,state1,stim_left,stim_right,rt_1,choice1,response1,rt_2,points,state2,stim_state2,stake,score,practice,rews1,rews2,background,high_arm,trial_type,trial_index,time_elapsed,internal_node_id,subid,stim_left_num,stim_right_num
0,1,object_10,object_03,1069.0,2,2,-1.0,0.0,2,object_05,1,0,0,1,2,desert_24,2,memory-2step-stake-s,488,2143400,0.0-18.0-0.0-0.0,489,1,2
1,4,object_04,object_06,1111.0,7,2,-1.0,0.0,1,object_02,1,0,0,0,3,restaurant_14,2,memory-2step-stake-s,489,2151914,0.0-18.0-0.0-0.1,489,8,7
2,3,object_09,object_08,723.0,6,2,-1.0,0.0,2,object_05,5,0,0,2,4,library_10,2,memory-2step-stake-s,490,2160434,0.0-18.0-0.0-0.2,489,5,6
3,4,object_04,object_06,975.0,7,2,-1.0,0.0,1,object_02,1,0,0,0,5,restaurant_14,2,memory-2step-stake-s,491,2168949,0.0-18.0-0.0-0.3,489,8,7
4,4,object_06,object_04,650.0,7,1,-1.0,0.0,1,object_02,1,0,0,4,8,restaurant_12,2,memory-2step-stake-s,492,2177464,0.0-18.0-0.0-0.4,489,7,8
5,1,object_10,object_03,840.0,2,2,-1.0,0.0,2,object_05,5,0,0,8,6,desert_18,2,memory-2step-stake-s,493,2185977,0.0-18.0-0.0-0.5,489,1,2
6,3,object_08,object_09,749.0,5,2,-1.0,0.0,1,object_02,5,0,0,8,5,library_15,2,memory-2step-stake-s,494,2194491,0.0-18.0-0.0-0.6,489,6,5
7,1,object_10,object_03,1060.0,1,1,923.0,0.8888888888888888,1,object_02,5,40,0,8,3,desert_26,2,memory-2step-stake-s,495,2203437,0.0-18.0-0.0-0.7,489,1,2
8,4,object_06,object_04,425.0,8,2,503.0,0.3333333333333333,2,object_05,1,43,0,9,3,restaurant_1,2,memory-2step-stake-s,496,2211460,0.0-18.0-0.0-0.8,489,7,8
9,3,object_09,object_08,627.0,6,2,513.0,0.1111111111111111,2,object_05,1,44,0,7,1,library_32,2,memory-2step-stake-s,497,2219289,0.0-18.0-0.0-0.9,489,5,6
10,4,object_04,object_06,890.0,7,2,556.0,0.8888888888888888,1,object_02,1,52,0,8,1,restaurant_2,2,memory-2step-stake-s,498,2227874,0.0-18.0-0.0-0.10,489,8,7
11,4,object_06,object_04,482.0,7,1,650.0,0.5555555555555556,1,object_02,1,57,0,5,4,restaurant_4,2,memory-2step-stake-s,499,2236248,0.0-18.0-0.0-0.11,489,7,8
12,4,object_04,object_06,994.0,8,1,732.0,0.5555555555555556,2,object_05,5,82,0,3,5,restaurant_2,2,memory-2step-stake-s,500,2244708,0.0-18.0-0.0-0.12,489,8,7
13,2,object_01,object_07,914.0,4,1,877.0,0.8888888888888888,2,object_05,5,122,0,1,8,forest_10,2,memory-2step-stake-s,501,2253612,0.0-18.0-0.0-0.13,489,4,3
14,4,object_04,object_06,557.0,7,2,880.0,0.4444444444444444,1,object_02,1,126,0,4,6,restaurant_27,2,memory-2step-stake-s,502,2262112,0.0-18.0-0.0-0.14,489,8,7
15,3,object_09,object_08,615.0,6,2,112.0,0.7777777777777778,2,object_05,1,133,0,1,7,library_1,2,memory-2step-stake-s,503,2270147,0.0-18.0-0.0-0.15,489,5,6
16,1,object_03,object_10,730.0,2,1,446.0,0.7777777777777778,2,object_05,5,168,0,4,7,desert_28,2,memory-2step-stake-s,504,2278520,0.0-18.0-0.0-0.16,489,2,1
17,4,object_04,object_06,547.0,7,2,563.0,0.3333333333333333,1,object_02,1,171,0,3,9,restaurant_28,2,memory-2step-stake-s,505,2286601,0.0-18.0-0.0-0.17,489,8,7
18,4,object_04,object_06,335.0,8,1,419.0,0.8888888888888888,2,object_05,5,211,0,4,8,restaurant_31,2,memory-2step-stake-s,506,2295045,0.0-18.0-0.0-0.18,489,8,7
19,1,object_10,object_03,553.0,1,1,179.0,0.6666666666666666,1,object_02,5,241,0,6,5,desert_31,2,memory-2step-stake-s,507,2303044,0.0-18.0-0.0-0.19,489,1,2
20,2,object_07,object_01,696.0,4,2,551.0,0.4444444444444444,2,object_05,5,261,0,6,4,forest_13,2,memory-2step-stake-s,508,2311214,0.0-18.0-0.0-0.20,489,3,4
21,2,object_01,object_07,681.0,3,2,530.0,0.6666666666666666,1,object_02,1,267,0,6,4,forest_6,2,memory-2step-stake-s,509,2319568,0.0-18.0-0.0-0.21,489,4,3
22,1,object_10,object_03,541.0,1,1,498.0,0.8888888888888888,1,object_02,1,275,0,8,5,desert_21,2,memory-2step-stake-s,510,2328089,0.0-18.0-0.0-0.22,489,1,2
23,3,object_09,object_08,728.0,6,2,703.0,0.7777777777777778,2,object_05,1,282,0,7,7,library_18,2,memory-2step-stake-s,511,2336712,0.0-18.0-0.0-0.23,489,5,6
24,3,object_08,object_09,383.0,6,1,565.0,0.8888888888888888,2,object_05,1,290,0,8,8,library_6,2,memory-2step-stake-s,512,2345302,0.0-18.0-0.0-0.24,489,6,5
25,1,object_03,object_10,571.0,2,1,473.0,0.7777777777777778,2,object_05,5,325,0,8,7,desert_27,2,memory-2step-stake-s,513,2353698,0.0-18.0-0.0-0.25,489,2,1
26,1,object_10,object_03,575.0,2,2,373.0,0.8888888888888888,2,object_05,5,365,0,7,8,desert_27,2,memory-2step-stake-s,514,2362092,0.0-18.0-0.0-0.26,489,1,2
27,2,object_01,object_07,748.0,4,1,423.0,0.8888888888888888,2,object_05,1,373,0,8,8,forest_26,2,memory-2step-stake-s,515,2370540,0.0-18.0-0.0-0.27,489,4,3
28,2,object_07,object_01,771.0,3,1,464.0,0.7777777777777778,1,object_02,5,408,0,7,7,forest_26,2,memory-2step-stake-s,516,2378930,0.0-18.0-0.0-0.28,489,3,4
29,4,object_04,object_06,595.0,8,1,312.0,0.7777777777777778,2,object_05,1,415,0,9,7,restaurant_32,2,memory-2step-stake-s,517,2387167,0.0-18.0-0.0-0.29,489,8,7
30,2,object_07,object_01,510.0,3,1,385.0,0.8888888888888888,1,object_02,5,455,0,8,8,forest_11,2,memory-2step-stake-s,518,2395578,0.0-18.0-0.0-0.30,489,3,4
31,3,object_09,object_08,437.0,5,1,384.0,0.7777777777777778,1,object_02,1,462,0,7,8,library_2,2,memory-2step-stake-s,519,2403886,0.0-18.0-0.0-0.31,489,5,6
32,4,object_06,object_04,497.0,8,2,454.0,0.8888888888888888,2,object_05,5,502,0,5,8,restaurant_16,2,memory-2step-stake-s,520,2412365,0.0-18.0-0.0-0.32,489,7,8
33,2,object_01,object_07,537.0,3,2,767.0,0.5555555555555556,1,object_02,5,527,0,5,6,forest_24,2,memory-2step-stake-s,521,2420850,0.0-18.0-0.0-0.33,489,4,3
34,4,object_04,object_06,697.0,8,1,554.0,0.4444444444444444,2,object_05,1,531,0,4,4,restaurant_14,2,memory-2step-stake-s,522,2429022,0.0-18.0-0.0-0.34,489,8,7
35,2,object_01,object_07,503.0,3,2,394.0,0.1111111111111111,1,object_02,5,536,0,1,5,forest_17,2,memory-2step-stake-s,523,2436732,0.0-18.0-0.0-0.35,489,4,3
36,1,object_10,object_03,540.0,2,2,437.0,0.6666666666666666,2,object_05,5,566,0,2,6,desert_9,2,memory-2step-stake-s,524,2444988,0.0-18.0-0.0-0.36,489,1,2
37,1,object_03,object_10,538.0,2,1,446.0,0.5555555555555556,2,object_05,5,591,0,1,5,desert_14,2,memory-2step-stake-s,525,2453155,0.0-18.0-0.0-0.37,489,2,1
38,2,object_07,object_01,759.0,3,1,540.0,0.4444444444444444,1,object_02,5,611,0,4,6,forest_4,2,memory-2step-stake-s,526,2461317,0.0-18.0-0.0-0.38,489,3,4
39,2,object_01,object_07,867.0,4,1,352.0,0.8888888888888888,2,object_05,5,651,0,3,8,forest_7,2,memory-2step-stake-s,527,2469692,0.0-18.0-0.0-0.39,489,4,3
40,4,object_04,object_06,647.0,8,1,397.0,0.5555555555555556,2,object_05,1,656,0,5,5,restaurant_27,2,memory-2step-stake-s,528,2477809,0.0-18.0-0.0-0.40,489,8,7
41,4,object_04,object_06,653.0,7,2,340.0,0.3333333333333333,1,object_02,1,659,0,3,3,restaurant_31,2,memory-2step-stake-s,529,2485667,0.0-18.0-0.0-0.41,489,8,7
42,4,object_04,object_06,562.0,8,1,600.0,0.2222222222222222,2,object_05,5,669,0,6,2,restaurant_21,2,memory-2step-stake-s,530,2493684,0.0-18.0-0.0-0.42,489,8,7
43,2,object_07,object_01,783.0,3,1,449.0,0.7777777777777778,1,object_02,5,704,0,7,1,forest_20,2,memory-2step-stake-s,531,2502058,0.0-18.0-0.0-0.43,489,3,4
44,3,object_08,object_09,629.0,6,1,581.0,0.1111111111111111,2,object_05,1,705,0,8,1,library_1,2,memory-2step-stake-s,532,2509955,0.0-18.0-0.0-0.44,489,6,5
45,4,object_04,object_06,672.0,7,2,620.0,0.8888888888888888,1,object_02,1,713,0,8,2,restaurant_1,2,memory-2step-stake-s,533,2518599,0.0-18.0-0.0-0.45,489,8,7
46,3,object_09,object_08,-1.0,-1,-1,-1.0,0.0,-,,5,713,0,8,3,library_4,2,memory-2step-stake-s,534,2525108,0.0-18.0-0.0-0.46,489,5,6
47,4,object_04,object_06,1076.0,7,2,1267.0,0.6666666666666666,1,object_02,5,743,0,6,4,restaurant_25,2,memory-2step-stake-s,535,2534196,0.0-18.0-0.0-0.47,489,8,7
48,1,object_03,object_10,588.0,1,2,111.0,0.3333333333333333,1,object_02,5,758,0,3,3,desert_27,2,memory-2step-stake-s,536,2541824,0.0-18.0-0.0-0.48,489,2,1
49,2,object_01,object_07,695.0,4,1,447.0,0.2222222222222222,2,object_05,5,768,0,5,2,forest_17,2,memory-2step-stake-s,537,2549688,0.0-18.0-0.0-0.49,489,4,3
50,3,object_09,object_08,747.0,5,1,589.0,0.5555555555555556,1,object_02,5,793,0,5,2,library_4,2,memory-2step-stake-s,538,2557999,0.0-18.0-0.0-0.50,489,5,6
51,1,object_03,object_10,504.0,1,2,460.0,0.6666666666666666,1,object_02,1,799,0,6,2,desert_21,2,memory-2step-stake-s,539,2566281,0.0-18.0-0.0-0.51,489,2,1
52,4,object_04,object_06,698.0,7,2,699.0,0.5555555555555556,1,object_02,5,824,0,5,2,restaurant_23,2,memory-2step-stake-s,540,2574702,0.0-18.0-0.0-0.52,489,8,7
53,2,object_01,object_07,872.0,3,2,330.0,0.6666666666666666,1,object_02,1,830,0,6,1,forest_6,2,memory-2step-stake-s,541,2582853,0.0-18.0-0.0-0.53,489,4,3
54,3,object_09,object_08,502.0,5,1,473.0,0.8888888888888888,1,object_02,1,838,0,8,4,library_10,2,memory-2step-stake-s,542,2591354,0.0-18.0-0.0-0.54,489,5,6
55,3,object_08,object_09,613.0,5,2,514.0,0.5555555555555556,1,object_02,1,843,0,5,4,library_31,2,memory-2step-stake-s,543,2599587,0.0-18.0-0.0-0.55,489,6,5
56,2,object_07,object_01,893.0,4,2,343.0,0.1111111111111111,2,object_05,5,848,0,5,1,forest_24,2,memory-2step-stake-s,544,2607244,0.0-18.0-0.0-0.56,489,3,4
57,2,object_07,object_01,666.0,3,1,506.0,0.8888888888888888,1,object_02,1,856,0,8,1,forest_12,2,memory-2step-stake-s,545,2615773,0.0-18.0-0.0-0.57,489,3,4
58,3,object_09,object_08,1327.0,5,1,526.0,0.5555555555555556,1,object_02,5,881,0,5,5,library_31,2,memory-2step-stake-s,546,2624021,0.0-18.0-0.0-0.58,489,5,6
59,1,object_10,object_03,522.0,2,2,332.0,0.5555555555555556,2,object_05,1,886,0,2,5,desert_18,2,memory-2step-stake-s,547,2632073,0.0-18.0-0.0-0.59,489,1,2
60,2,object_07,object_01,1099.0,3,1,502.0,0.1111111111111111,1,object_02,1,887,0,1,4,forest_20,2,memory-2step-stake-s,548,2639889,0.0-18.0-0.0-0.60,489,3,4
61,3,object_08,object_09,1099.0,6,1,-1.0,0.0,2,object_05,1,887,0,3,3,library_19,2,memory-2step-stake-s,549,2648405,0.0-18.0-0.0-0.61,489,6,5
62,1,object_10,object_03,957.0,2,2,456.0,0.5555555555555556,2,object_05,5,912,0,5,5,desert_24,2,memory-2step-stake-s,550,2656580,0.0-18.0-0.0-0.62,489,1,2
63,1,object_10,object_03,356.0,1,1,382.0,0.2222222222222222,1,object_02,1,914,0,2,0,desert_9,2,memory-2step-stake-s,551,2664379,0.0-18.0-0.0-0.63,489,1,2
64,3,object_08,object_09,475.0,5,2,532.0,0.0,1,object_02,1,914,0,0,1,library_8,2,memory-2step-stake-s,552,2672123,0.0-18.0-0.0-0.64,489,6,5
65,3,object_09,object_08,473.0,5,1,510.0,0.0,1,object_02,1,914,0,0,1,library_10,2,memory-2step-stake-s,553,2679848,0.0-18.0-0.0-0.65,489,5,6
66,1,object_03,object_10,644.0,2,1,541.0,0.4444444444444444,2,object_05,5,934,0,1,4,desert_27,2,memory-2step-stake-s,554,2688007,0.0-18.0-0.0-0.66,489,2,1
67,1,object_10,object_03,408.0,2,2,849.0,0.5555555555555556,2,object_05,5,959,0,0,5,desert_18,2,memory-2step-stake-s,555,2696575,0.0-18.0-0.0-0.67,489,1,2
68,3,object_09,object_08,852.0,5,1,518.0,0.1111111111111111,1,object_02,1,960,0,1,3,library_20,2,memory-2step-stake-s,556,2704408,0.0-18.0-0.0-0.68,489,5,6
69,3,object_08,object_09,1223.0,6,1,676.0,0.4444444444444444,2,object_05,5,980,0,0,4,library_19,2,memory-2step-stake-s,557,2712704,0.0-18.0-0.0-0.69,489,6,5
70,4,object_06,object_04,764.0,7,1,426.0,0.1111111111111111,1,object_02,1,981,0,1,4,restaurant_28,2,memory-2step-stake-s,558,2720445,0.0-18.0-0.0-0.70,489,7,8
71,4,object_04,object_06,734.0,8,1,433.0,0.5555555555555556,2,object_05,1,986,0,5,5,restaurant_23,2,memory-2step-stake-s,559,2728603,0.0-18.0-0.0-0.71,489,8,7
72,2,object_07,object_01,800.0,4,2,458.0,0.8888888888888888,2,object_05,5,1026,0,5,8,forest_7,2,memory-2step-stake-s,560,2737086,0.0-18.0-0.0-0.72,489,3,4
73,2,object_01,object_07,721.0,4,1,450.0,1.0,2,object_05,5,1071,0,3,9,forest_25,2,memory-2step-stake-s,561,2745660,0.0-18.0-0.0-0.73,489,4,3
74,4,object_06,object_04,804.0,8,2,361.0,0.7777777777777778,2,object_05,1,1078,0,1,7,restaurant_23,2,memory-2step-stake-s,562,2753942,0.0-18.0-0.0-0.74,489,7,8
75,1,object_10,object_03,772.0,2,2,392.0,0.3333333333333333,2,object_05,5,1093,0,2,3,desert_26,2,memory-2step-stake-s,563,2761851,0.0-18.0-0.0-0.75,489,1,2
76,3,object_08,object_09,494.0,6,1,379.0,0.1111111111111111,2,object_05,1,1094,0,5,1,library_8,2,memory-2step-stake-s,564,2769547,0.0-18.0-0.0-0.76,489,6,5
77,1,object_03,object_10,749.0,1,2,413.0,0.4444444444444444,1,object_02,5,1114,0,4,4,desert_21,2,memory-2step-stake-s,565,2777578,0.0-18.0-0.0-0.77,489,2,1
78,2,object_07,object_01,594.0,3,1,355.0,0.4444444444444444,1,object_02,5,1134,0,4,7,forest_13,2,memory-2step-stake-s,566,2785552,0.0-18.0-0.0-0.78,489,3,4
79,1,object_10,object_03,680.0,1,1,1251.0,0.1111111111111111,1,object_02,1,1135,0,1,7,desert_14,2,memory-2step-stake-s,567,2794118,0.0-18.0-0.0-0.79,489,1,2
80,2,object_07,object_01,574.0,4,2,320.0,0.5555555555555556,2,object_05,5,1160,0,0,5,forest_11,2,memory-2step-stake-s,568,2802158,0.0-18.0-0.0-0.80,489,3,4
81,1,object_10,object_03,511.0,2,2,294.0,0.4444444444444444,2,object_05,1,1164,0,2,4,desert_22,2,memory-2step-stake-s,569,2810071,0.0-18.0-0.0-0.81,489,1,2
82,2,object_01,object_07,795.0,4,1,478.0,0.3333333333333333,2,object_05,1,1167,0,1,3,forest_17,2,memory-2step-stake-s,570,2818073,0.0-18.0-0.0-0.82,489,4,3
83,3,object_09,object_08,989.0,5,1,-1.0,0.0,1,object_02,1,1167,0,2,4,library_12,2,memory-2step-stake-s,571,2826582,0.0-18.0-0.0-0.83,489,5,6
84,2,object_07,object_01,634.0,4,2,349.0,0.2222222222222222,2,object_05,5,1177,0,2,2,forest_14,2,memory-2step-stake-s,572,2834349,0.0-18.0-0.0-0.84,489,3,4
85,1,object_03,object_10,555.0,1,2,617.0,0.1111111111111111,1,object_02,1,1178,0,1,2,desert_26,2,memory-2step-stake-s,573,2842279,0.0-18.0-0.0-0.85,489,2,1
86,3,object_09,object_08,786.0,6,2,444.0,0.1111111111111111,2,object_05,1,1179,0,2,1,library_30,2,memory-2step-stake-s,574,2850038,0.0-18.0-0.0-0.86,489,5,6
87,2,object_01,object_07,887.0,4,1,714.0,0.0,2,object_05,5,1179,0,3,0,forest_13,2,memory-2step-stake-s,575,2857966,0.0-18.0-0.0-0.87,489,4,3
88,1,object_03,object_10,479.0,1,2,476.0,0.2222222222222222,1,object_02,1,1181,0,2,1,desert_26,2,memory-2step-stake-s,576,2865858,0.0-18.0-0.0-0.88,489,2,1
89,3,object_09,object_08,1283.0,5,1,507.0,0.0,1,object_02,5,1181,0,0,1,library_12,2,memory-2step-stake-s,577,2873577,0.0-18.0-0.0-0.89,489,5,6
90,1,object_03,object_10,1041.0,2,1,578.0,0.3333333333333333,2,object_05,5,1196,0,1,3,desert_21,2,memory-2step-stake-s,578,2881674,0.0-18.0-0.0-0.90,489,2,1
91,3,object_08,object_09,522.0,5,2,745.0,0.2222222222222222,1,object_02,1,1198,0,2,3,library_1,2,memory-2step-stake-s,579,2889834,0.0-18.0-0.0-0.91,489,6,5
92,2,object_07,object_01,836.0,4,2,498.0,0.3333333333333333,2,object_05,5,1213,0,2,3,forest_18,2,memory-2step-stake-s,580,2897852,0.0-18.0-0.0-0.92,489,3,4
93,4,object_04,object_06,887.0,8,1,397.0,0.4444444444444444,2,object_05,5,1233,0,2,4,restaurant_25,2,memory-2step-stake-s,581,2905868,0.0-18.0-0.0-0.93,489,8,7
94,2,object_01,object_07,689.0,4,1,381.0,0.7777777777777778,2,object_05,5,1268,0,2,7,forest_25,2,memory-2step-stake-s,582,2914170,0.0-18.0-0.0-0.94,489,4,3
95,2,object_07,object_01,1196.0,4,2,1378.0,1.0,2,object_05,5,1313,0,0,9,forest_27,2,memory-2step-stake-s,583,2923673,0.0-18.0-0.0-0.95,489,3,4
96,1,object_10,object_03,628.0,2,2,335.0,0.8888888888888888,2,object_05,1,1321,0,1,8,desert_24,2,memory-2step-stake-s,584,2932033,0.0-18.0-0.0-0.96,489,1,2
97,4,object_04,object_06,714.0,8,1,459.0,0.7777777777777778,2,object_05,1,1328,0,0,7,restaurant_22,2,memory-2step-stake-s,585,2940416,0.0-18.0-0.0-0.97,489,8,7
98,1,object_10,object_03,541.0,1,1,500.0,0.2222222222222222,1,object_02,1,1330,0,2,9,desert_13,2,memory-2step-stake-s,586,2948330,0.0-18.0-0.0-0.98,489,1,2
99,3,object_09,object_08,577.0,5,1,316.0,0.5555555555555556,1,object_02,1,1335,0,5,8,library_30,2,memory-2step-stake-s,587,2956366,0.0-18.0-0.0-0.99,489,5,6
100,4,object_06,object_04,1012.0,7,1,489.0,0.8888888888888888,1,object_02,1,1343,0,8,8,restaurant_21,2,memory-2step-stake-s,588,2964881,0.0-18.0-0.0-0.100,489,7,8
101,4,object_06,object_04,577.0,7,1,441.0,0.8888888888888888,1,object_02,1,1351,0,8,6,restaurant_25,2,memory-2step-stake-s,589,2973348,0.0-18.0-0.0-0.101,489,7,8
102,2,object_07,object_01,897.0,3,1,393.0,0.8888888888888888,1,object_02,5,1391,0,8,5,forest_4,2,memory-2step-stake-s,590,2981765,0.0-18.0-0.0-0.102,489,3,4
103,3,object_09,object_08,1281.0,5,1,577.0,1.0,1,object_02,1,1400,0,9,2,library_6,2,memory-2step-stake-s,591,2990465,0.0-18.0-0.0-0.103,489,5,6
104,2,object_01,object_07,1008.0,3,2,403.0,0.8888888888888888,1,object_02,5,1440,0,8,5,forest_25,2,memory-2step-stake-s,592,2998892,0.0-18.0-0.0-0.104,489,4,3
105,3,object_09,object_08,750.0,5,1,370.0,0.8888888888888888,1,object_02,1,1448,0,8,9,library_14,2,memory-2step-stake-s,593,3007285,0.0-18.0-0.0-0.105,489,5,6
106,4,object_06,object_04,842.0,7,1,316.0,0.5555555555555556,1,object_02,5,1473,0,5,8,restaurant_21,2,memory-2step-stake-s,594,3015321,0.0-18.0-0.0-0.106,489,7,8
107,2,object_01,object_07,812.0,4,1,431.0,0.8888888888888888,2,object_05,5,1513,0,6,8,forest_20,2,memory-2step-stake-s,595,3023774,0.0-18.0-0.0-0.107,489,4,3
108,1,object_03,object_10,540.0,2,1,479.0,0.8888888888888888,2,object_05,1,1521,0,7,8,desert_24,2,memory-2step-stake-s,596,3032274,0.0-18.0-0.0-0.108,489,2,1
109,4,object_04,object_06,709.0,8,1,362.0,0.7777777777777778,2,object_05,1,1528,0,6,7,restaurant_26,2,memory-2step-stake-s,597,3040559,0.0-18.0-0.0-0.109,489,8,7
110,1,object_10,object_03,385.0,2,2,462.0,0.5555555555555556,2,object_05,5,1553,0,9,5,desert_10,2,memory-2step-stake-s,598,3048741,0.0-18.0-0.0-0.110,489,1,2
111,2,object_07,object_01,601.0,3,1,404.0,1.0,1,object_02,5,1598,0,9,6,forest_12,2,memory-2step-stake-s,599,3057269,0.0-18.0-0.0-0.111,489,3,4
112,4,object_04,object_06,635.0,7,2,533.0,0.5555555555555556,1,object_02,5,1623,0,5,5,restaurant_31,2,memory-2step-stake-s,600,3065523,0.0-18.0-0.0-0.112,489,8,7
113,2,object_07,object_01,1313.0,4,2,457.0,0.1111111111111111,2,object_05,5,1628,0,6,1,forest_6,2,memory-2step-stake-s,601,3073294,0.0-18.0-0.0-0.113,489,3,4
114,1,object_03,object_10,769.0,2,1,487.0,0.2222222222222222,2,object_05,1,1630,0,8,2,desert_10,2,memory-2step-stake-s,602,3081198,0.0-18.0-0.0-0.114,489,2,1
115,1,object_03,object_10,606.0,1,2,11.0,0.7777777777777778,1,object_02,5,1665,0,7,3,desert_22,2,memory-2step-stake-s,603,3089131,0.0-18.0-0.0-0.115,489,2,1
116,3,object_09,object_08,1243.0,5,1,572.0,0.7777777777777778,1,object_02,1,1672,0,7,5,library_31,2,memory-2step-stake-s,604,3097629,0.0-18.0-0.0-0.116,489,5,6
117,3,object_08,object_09,752.0,5,2,431.0,0.8888888888888888,1,object_02,1,1680,0,8,1,library_6,2,memory-2step-stake-s,605,3106084,0.0-18.0-0.0-0.117,489,6,5
118,2,object_07,object_01,611.0,3,1,487.0,0.8888888888888888,1,object_02,5,1720,0,8,4,forest_17,2,memory-2step-stake-s,606,3114600,0.0-18.0-0.0-0.118,489,3,4
119,1,object_10,object_03,620.0,1,1,543.0,0.6666666666666666,1,object_02,5,1750,0,6,3,desert_28,2,memory-2step-stake-s,607,3122965,0.0-18.0-0.0-0.119,489,1,2
120,2,object_07,object_01,384.0,4,2,632.0,0.0,2,object_05,1,1750,0,8,0,forest_18,2,memory-2step-stake-s,608,3130813,0.0-18.0-0.0-0.120,489,3,4
121,3,object_08,object_09,444.0,6,1,491.0,0.1111111111111111,2,object_05,1,1751,0,6,1,library_12,2,memory-2step-stake-s,609,3138618,0.0-18.0-0.0-0.121,489,6,5
122,2,object_01,object_07,607.0,3,2,469.0,0.5555555555555556,1,object_02,1,1756,0,5,0,forest_7,2,memory-2step-stake-s,610,3146807,0.0-18.0-0.0-0.122,489,4,3
123,2,object_07,object_01,685.0,3,1,388.0,0.8888888888888888,1,object_02,5,1796,0,8,0,forest_24,2,memory-2step-stake-s,611,3155220,0.0-18.0-0.0-0.123,489,3,4
124,1,object_10,object_03,705.0,1,1,364.0,0.6666666666666666,1,object_02,5,1826,0,6,2,desert_23,2,memory-2step-stake-s,612,3163408,0.0-18.0-0.0-0.124,489,1,2
125,2,object_01,object_07,655.0,4,1,392.0,0.3333333333333333,2,object_05,1,1829,0,6,3,forest_1,2,memory-2step-stake-s,613,3171317,0.0-18.0-0.0-0.125,489,4,3
126,3,object_08,object_09,480.0,6,1,567.0,0.1111111111111111,2,object_05,1,1830,0,7,1,library_15,2,memory-2step-stake-s,614,3179200,0.0-18.0-0.0-0.126,489,6,5
127,3,object_09,object_08,990.0,5,1,399.0,0.6666666666666666,1,object_02,5,1860,0,6,0,library_4,2,memory-2step-stake-s,615,3187424,0.0-18.0-0.0-0.127,489,5,6
128,3,object_09,object_08,930.0,5,1,-1.0,0.0,1,object_02,5,1860,0,7,1,library_1,2,memory-2step-stake-s,617,3310271,0.0-18.0-0.1-0.128,489,5,6
129,2,object_07,object_01,625.0,3,1,427.0,0.5555555555555556,1,object_02,5,1885,0,5,4,forest_27,2,memory-2step-stake-s,618,3318419,0.0-18.0-0.1-0.129,489,3,4
130,1,object_03,object_10,406.0,1,2,324.0,0.5555555555555556,1,object_02,5,1910,0,5,5,desert_9,2,memory-2step-stake-s,619,3326461,0.0-18.0-0.1-0.130,489,2,1
131,3,object_09,object_08,801.0,6,2,465.0,0.3333333333333333,2,object_05,1,1913,0,4,3,library_4,2,memory-2step-stake-s,620,3334446,0.0-18.0-0.1-0.131,489,5,6
132,4,object_04,object_06,750.0,7,2,422.0,0.6666666666666666,1,object_02,1,1919,0,6,6,restaurant_32,2,memory-2step-stake-s,621,3342691,0.0-18.0-0.1-0.132,489,8,7
133,1,object_10,object_03,751.0,1,1,393.0,0.6666666666666666,1,object_02,5,1949,0,6,9,desert_25,2,memory-2step-stake-s,622,3350907,0.0-18.0-0.1-0.133,489,1,2
134,3,object_09,object_08,786.0,5,1,390.0,0.6666666666666666,1,object_02,1,1955,0,6,7,library_19,2,memory-2step-stake-s,623,3359120,0.0-18.0-0.1-0.134,489,5,6
135,2,object_01,object_07,615.0,3,2,79.0,0.5555555555555556,1,object_02,5,1980,0,5,7,forest_6,2,memory-2step-stake-s,624,3366918,0.0-18.0-0.1-0.135,489,4,3
136,1,object_10,object_03,615.0,2,2,493.0,0.6666666666666666,2,object_05,1,1986,0,4,6,desert_32,2,memory-2step-stake-s,625,3375237,0.0-18.0-0.1-0.136,489,1,2
137,3,object_08,object_09,674.0,5,2,511.0,0.4444444444444444,1,object_02,1,1990,0,4,7,library_13,2,memory-2step-stake-s,626,3383367,0.0-18.0-0.1-0.137,489,6,5
138,4,object_04,object_06,536.0,8,1,284.0,0.5555555555555556,2,object_05,1,1995,0,6,5,restaurant_25,2,memory-2step-stake-s,627,3391371,0.0-18.0-0.1-0.138,489,8,7
139,3,object_09,object_08,989.0,6,2,389.0,0.5555555555555556,2,object_05,1,2000,0,8,5,library_20,2,memory-2step-stake-s,628,3399485,0.0-18.0-0.1-0.139,489,5,6
140,1,object_10,object_03,633.0,2,2,520.0,1.0,2,object_05,1,2009,0,6,9,desert_6,2,memory-2step-stake-s,629,3408130,0.0-18.0-0.1-0.140,489,1,2
141,1,object_10,object_03,457.0,2,2,912.0,1.0,2,object_05,5,2054,0,6,9,desert_25,2,memory-2step-stake-s,630,3417169,0.0-18.0-0.1-0.141,489,1,2
142,2,object_07,object_01,758.0,4,2,484.0,0.7777777777777778,2,object_05,1,2061,0,6,7,forest_1,2,memory-2step-stake-s,631,3425580,0.0-18.0-0.1-0.142,489,3,4
143,3,object_08,object_09,993.0,5,2,356.0,0.5555555555555556,1,object_02,1,2066,0,5,9,library_20,2,memory-2step-stake-s,632,3433654,0.0-18.0-0.1-0.143,489,6,5
144,4,object_04,object_06,620.0,8,1,469.0,1.0,2,object_05,5,2111,0,4,9,restaurant_1,2,memory-2step-stake-s,633,3442246,0.0-18.0-0.1-0.144,489,8,7
145,3,object_09,object_08,747.0,6,2,609.0,1.0,2,object_05,1,2120,0,5,9,library_14,2,memory-2step-stake-s,634,3450978,0.0-18.0-0.1-0.145,489,5,6
146,3,object_08,object_09,1183.0,6,1,509.0,0.6666666666666666,2,object_05,1,2126,0,6,6,library_18,2,memory-2step-stake-s,635,3459307,0.0-18.0-0.1-0.146,489,6,5
147,3,object_08,object_09,560.0,5,2,345.0,1.0,1,object_02,1,2135,0,9,9,library_30,2,memory-2step-stake-s,636,3467775,0.0-18.0-0.1-0.147,489,6,5
148,4,object_06,object_04,707.0,7,1,275.0,0.6666666666666666,1,object_02,1,2141,0,6,6,restaurant_26,2,memory-2step-stake-s,637,3475875,0.0-18.0-0.1-0.148,489,7,8
149,1,object_10,object_03,408.0,2,2,9.0,0.6666666666666666,2,object_05,5,2171,0,6,6,desert_32,2,memory-2step-stake-s,638,3483703,0.0-18.0-0.1-0.149,489,1,2
150,4,object_06,object_04,640.0,7,1,380.0,0.4444444444444444,1,object_02,1,2175,0,4,6,restaurant_22,2,memory-2step-stake-s,639,3491702,0.0-18.0-0.1-0.150,489,7,8
151,1,object_10,object_03,546.0,2,2,536.0,0.6666666666666666,2,object_05,5,2205,0,3,6,desert_31,2,memory-2step-stake-s,640,3500056,0.0-18.0-0.1-0.151,489,1,2
152,1,object_10,object_03,395.0,1,1,374.0,0.3333333333333333,1,object_02,5,2220,0,3,4,desert_23,2,memory-2step-stake-s,641,3507947,0.0-18.0-0.1-0.152,489,1,2
153,1,object_10,object_03,407.0,2,2,503.0,0.3333333333333333,2,object_05,5,2235,0,2,3,desert_14,2,memory-2step-stake-s,642,3515965,0.0-18.0-0.1-0.153,489,1,2
154,4,object_04,object_06,582.0,7,2,584.0,0.2222222222222222,1,object_02,1,2237,0,2,1,restaurant_12,2,memory-2step-stake-s,643,3523965,0.0-18.0-0.1-0.154,489,8,7
155,4,object_04,object_06,1137.0,8,1,548.0,0.4444444444444444,2,object_05,1,2241,0,1,4,restaurant_12,2,memory-2step-stake-s,644,3532133,0.0-18.0-0.1-0.155,489,8,7
156,3,object_08,object_09,888.0,5,2,310.0,0.3333333333333333,1,object_02,1,2244,0,3,3,library_2,2,memory-2step-stake-s,645,3539960,0.0-18.0-0.1-0.156,489,6,5
157,2,object_07,object_01,1190.0,4,2,977.0,0.4444444444444444,2,object_05,5,2264,0,2,4,forest_18,2,memory-2step-stake-s,646,3548556,0.0-18.0-0.1-0.157,489,3,4
158,1,object_03,object_10,604.0,2,1,369.0,0.4444444444444444,2,object_05,5,2284,0,6,4,desert_6,2,memory-2step-stake-s,647,3556542,0.0-18.0-0.1-0.158,489,2,1
159,2,object_07,object_01,510.0,3,1,486.0,0.6666666666666666,1,object_02,5,2314,0,6,1,forest_27,2,memory-2step-stake-s,648,3564850,0.0-18.0-0.1-0.159,489,3,4
160,1,object_03,object_10,420.0,1,2,514.0,0.6666666666666666,1,object_02,5,2344,0,6,1,desert_10,2,memory-2step-stake-s,649,3573185,0.0-18.0-0.1-0.160,489,2,1
161,1,object_10,object_03,492.0,1,1,486.0,0.5555555555555556,1,object_02,5,2369,0,5,1,desert_22,2,memory-2step-stake-s,650,3581388,0.0-18.0-0.1-0.161,489,1,2
162,4,object_04,object_06,650.0,8,1,478.0,0.2222222222222222,2,object_05,5,2379,0,5,2,restaurant_2,2,memory-2step-stake-s,651,3589281,0.0-18.0-0.1-0.162,489,8,7
163,4,object_04,object_06,826.0,7,2,414.0,0.7777777777777778,1,object_02,1,2386,0,7,5,restaurant_26,2,memory-2step-stake-s,652,3597615,0.0-18.0-0.1-0.163,489,8,7
164,1,object_10,object_03,628.0,1,1,466.0,1.0,1,object_02,5,2431,0,9,7,desert_9,2,memory-2step-stake-s,653,3606208,0.0-18.0-0.1-0.164,489,1,2
165,4,object_06,object_04,703.0,7,1,412.0,0.8888888888888888,1,object_02,1,2439,0,8,9,restaurant_26,2,memory-2step-stake-s,654,3614645,0.0-18.0-0.1-0.165,489,7,8
166,4,object_04,object_06,595.0,7,2,552.0,0.7777777777777778,1,object_02,1,2446,0,7,7,restaurant_27,2,memory-2step-stake-s,655,3623122,0.0-18.0-0.1-0.166,489,8,7
167,1,object_03,object_10,614.0,1,2,45.0,0.5555555555555556,1,object_02,1,2451,0,5,7,desert_28,2,memory-2step-stake-s,656,3630885,0.0-18.0-0.1-0.167,489,2,1
168,4,object_06,object_04,801.0,8,2,825.0,1.0,2,object_05,1,2460,0,5,9,restaurant_14,2,memory-2step-stake-s,657,3639838,0.0-18.0-0.1-0.168,489,7,8
169,4,object_06,object_04,520.0,8,2,287.0,0.8888888888888888,2,object_05,1,2468,0,4,8,restaurant_16,2,memory-2step-stake-s,658,3648144,0.0-18.0-0.1-0.169,489,7,8
170,2,object_07,object_01,712.0,4,2,413.0,0.7777777777777778,2,object_05,5,2503,0,2,7,forest_18,2,memory-2step-stake-s,659,3656479,0.0-18.0-0.1-0.170,489,3,4
171,4,object_06,object_04,1010.0,8,2,649.0,0.8888888888888888,2,object_05,1,2511,0,4,8,restaurant_22,2,memory-2step-stake-s,660,3665149,0.0-18.0-0.1-0.171,489,7,8
172,3,object_08,object_09,1091.0,6,1,1048.0,0.6666666666666666,2,object_05,1,2517,0,5,6,library_13,2,memory-2step-stake-s,661,3674018,0.0-18.0-0.1-0.172,489,6,5
173,4,object_04,object_06,439.0,7,2,304.0,0.5555555555555556,1,object_02,5,2542,0,5,7,restaurant_4,2,memory-2step-stake-s,662,3682044,0.0-18.0-0.1-0.173,489,8,7
174,2,object_07,object_01,463.0,3,1,423.0,0.4444444444444444,1,object_02,5,2562,0,4,5,forest_20,2,memory-2step-stake-s,663,3690086,0.0-18.0-0.1-0.174,489,3,4
175,4,object_04,object_06,643.0,8,1,454.0,0.8888888888888888,2,object_05,1,2570,0,5,8,restaurant_16,2,memory-2step-stake-s,664,3698564,0.0-18.0-0.1-0.175,489,8,7
176,2,object_07,object_01,619.0,4,2,654.0,1.0,2,object_05,1,2579,0,5,9,forest_10,2,memory-2step-stake-s,665,3707340,0.0-18.0-0.1-0.176,489,3,4
177,2,object_01,object_07,626.0,4,1,1032.0,0.6666666666666666,2,object_05,1,2585,0,5,6,forest_11,2,memory-2step-stake-s,666,3716194,0.0-18.0-0.1-0.177,489,4,3
178,2,object_01,object_07,593.0,4,1,529.0,1.0,2,object_05,5,2630,0,4,9,forest_27,2,memory-2step-stake-s,667,3724849,0.0-18.0-0.1-0.178,489,4,3
179,4,object_04,object_06,534.0,8,1,193.0,0.8888888888888888,2,object_05,1,2638,0,3,8,restaurant_32,2,memory-2step-stake-s,668,3733063,0.0-18.0-0.1-0.179,489,8,7
180,3,object_08,object_09,802.0,6,1,420.0,0.6666666666666666,2,object_05,1,2644,0,6,6,library_32,2,memory-2step-stake-s,669,3741304,0.0-18.0-0.1-0.180,489,6,5
181,1,object_03,object_10,651.0,2,1,552.0,0.6666666666666666,2,object_05,5,2674,0,8,6,desert_32,2,memory-2step-stake-s,670,3749679,0.0-18.0-0.1-0.181,489,2,1
182,4,object_06,object_04,561.0,7,1,429.0,0.4444444444444444,1,object_02,1,2678,0,4,6,restaurant_31,2,memory-2step-stake-s,671,3757725,0.0-18.0-0.1-0.182,489,7,8
183,4,object_06,object_04,882.0,8,2,292.0,0.5555555555555556,2,object_05,1,2683,0,4,5,restaurant_1,2,memory-2step-stake-s,672,3765740,0.0-18.0-0.1-0.183,489,7,8
184,1,object_10,object_03,810.0,2,2,480.0,0.7777777777777778,2,object_05,5,2718,0,3,7,desert_13,2,memory-2step-stake-s,673,3774144,0.0-18.0-0.1-0.184,489,1,2
185,3,object_09,object_08,881.0,6,2,607.0,0.7777777777777778,2,object_05,1,2725,0,1,7,library_19,2,memory-2step-stake-s,674,3782675,0.0-18.0-0.1-0.185,489,5,6
186,3,object_08,object_09,991.0,6,1,530.0,0.8888888888888888,2,object_05,1,2733,0,2,8,library_31,2,memory-2step-stake-s,675,3791227,0.0-18.0-0.1-0.186,489,6,5
187,4,object_04,object_06,1274.0,8,1,464.0,0.6666666666666666,2,object_05,1,2739,0,4,6,restaurant_21,2,memory-2step-stake-s,676,3799513,0.0-18.0-0.1-0.187,489,8,7
188,4,object_06,object_04,1075.0,7,1,411.0,0.6666666666666666,1,object_02,1,2745,0,6,6,restaurant_9,2,memory-2step-stake-s,677,3807744,0.0-18.0-0.1-0.188,489,7,8
189,1,object_03,object_10,401.0,1,2,443.0,0.8888888888888888,1,object_02,5,2785,0,8,4,desert_14,2,memory-2step-stake-s,678,3816211,0.0-18.0-0.1-0.189,489,2,1
190,2,object_01,object_07,480.0,3,2,360.0,0.8888888888888888,1,object_02,5,2825,0,8,6,forest_14,2,memory-2step-stake-s,679,3824594,0.0-18.0-0.1-0.190,489,4,3
191,4,object_06,object_04,940.0,7,1,393.0,0.7777777777777778,1,object_02,1,2832,0,7,5,restaurant_27,2,memory-2step-stake-s,680,3832910,0.0-18.0-0.1-0.191,489,7,8
192,3,object_08,object_09,1177.0,5,2,506.0,0.8888888888888888,1,object_02,5,2872,0,8,6,library_14,2,memory-2step-stake-s,681,3841440,0.0-18.0-0.1-0.192,489,6,5
193,2,object_07,object_01,565.0,3,1,378.0,0.5555555555555556,1,object_02,5,2897,0,5,6,forest_4,2,memory-2step-stake-s,682,3849540,0.0-18.0-0.1-0.193,489,3,4
194,1,object_03,object_10,468.0,2,1,1269.0,0.3333333333333333,2,object_05,5,2912,0,6,3,desert_6,2,memory-2step-stake-s,683,3858328,0.0-18.0-0.1-0.194,489,2,1
195,1,object_03,object_10,846.0,2,1,908.0,0.2222222222222222,2,object_05,5,2922,0,8,2,desert_25,2,memory-2step-stake-s,684,3866652,0.0-18.0-0.1-0.195,489,2,1
196,3,object_09,object_08,464.0,6,2,539.0,0.1111111111111111,2,object_05,1,2923,0,8,1,library_8,2,memory-2step-stake-s,685,3874502,0.0-18.0-0.1-0.196,489,5,6
197,1,object_10,object_03,578.0,1,1,380.0,0.8888888888888888,1,object_02,5,2963,0,8,0,desert_13,2,memory-2step-stake-s,686,3882904,0.0-18.0-0.1-0.197,489,1,2
198,3,object_09,object_08,1269.0,5,1,707.0,0.6666666666666666,1,object_02,1,2969,0,6,1,library_18,2,memory-2step-stake-s,687,3891431,0.0-18.0-0.1-0.198,489,5,6
199,4,object_06,object_04,1083.0,7,1,468.0,0.8888888888888888,1,object_02,1,2977,0,8,0,restaurant_4,2,memory-2step-stake-s,688,3899923,0.0-18.0-0.1-0.199,489,7,8
200,2,object_07,object_01,1338.0,3,1,399.0,0.8888888888888888,1,object_02,5,3017,0,8,2,forest_1,2,memory-2step-stake-s,689,3908347,0.0-18.0-0.1-0.200,489,3,4
201,3,object_09,object_08,804.0,5,1,861.0,0.7777777777777778,1,object_02,1,3024,0,7,1,library_8,2,memory-2step-stake-s,690,3917133,0.0-18.0-0.1-0.201,489,5,6
202,3,object_09,object_08,1252.0,5,1,342.0,0.4444444444444444,1,object_02,1,3028,0,4,0,library_30,2,memory-2step-stake-s,691,3925092,0.0-18.0-0.1-0.202,489,5,6
203,2,object_07,object_01,870.0,4,2,354.0,0.2222222222222222,2,object_05,1,3030,0,3,2,forest_7,2,memory-2step-stake-s,692,3932861,0.0-18.0-0.1-0.203,489,3,4
204,3,object_09,object_08,965.0,5,1,516.0,0.3333333333333333,1,object_02,1,3033,0,3,0,library_32,2,memory-2step-stake-s,693,3940898,0.0-18.0-0.1-0.204,489,5,6
205,3,object_09,object_08,1186.0,5,1,544.0,0.4444444444444444,1,object_02,1,3037,0,4,2,library_2,2,memory-2step-stake-s,694,3949061,0.0-18.0-0.1-0.205,489,5,6
206,4,object_06,object_04,563.0,7,1,385.0,0.8888888888888888,1,object_02,5,3077,0,8,2,restaurant_22,2,memory-2step-stake-s,695,3957471,0.0-18.0-0.1-0.206,489,7,8
207,1,object_10,object_03,853.0,1,1,516.0,0.8888888888888888,1,object_02,5,3117,0,8,4,desert_18,2,memory-2step-stake-s,696,3966012,0.0-18.0-0.1-0.207,489,1,2
208,2,object_01,object_07,743.0,3,2,337.0,1.0,1,object_02,1,3126,0,9,3,forest_13,2,memory-2step-stake-s,697,3974479,0.0-18.0-0.1-0.208,489,4,3
209,1,object_10,object_03,1047.0,1,1,634.0,0.6666666666666666,1,object_02,1,3132,0,6,4,desert_6,2,memory-2step-stake-s,698,3982938,0.0-18.0-0.1-0.209,489,1,2
210,3,object_08,object_09,1023.0,6,1,420.0,0.6666666666666666,2,object_05,1,3138,0,6,6,library_2,2,memory-2step-stake-s,699,3991177,0.0-18.0-0.1-0.210,489,6,5
211,4,object_06,object_04,824.0,8,2,463.0,0.7777777777777778,2,object_05,1,3145,0,5,7,restaurant_2,2,memory-2step-stake-s,700,3999562,0.0-18.0-0.1-0.211,489,7,8
212,3,object_09,object_08,1024.0,6,2,473.0,1.0,2,object_05,5,3190,0,6,9,library_32,2,memory-2step-stake-s,701,4008161,0.0-18.0-0.1-0.212,489,5,6
213,2,object_07,object_01,1220.0,4,2,555.0,1.0,2,object_05,5,3235,0,9,9,forest_25,2,memory-2step-stake-s,702,4016841,0.0-18.0-0.1-0.213,489,3,4
214,3,object_09,object_08,973.0,6,2,484.0,0.8888888888888888,2,object_05,1,3243,0,9,8,library_15,2,memory-2step-stake-s,703,4025350,0.0-18.0-0.1-0.214,489,5,6
215,1,object_10,object_03,1035.0,2,2,575.0,0.6666666666666666,2,object_05,5,3273,0,8,6,desert_31,2,memory-2step-stake-s,704,4033750,0.0-18.0-0.1-0.215,489,1,2
216,3,object_08,object_09,966.0,5,2,227.0,0.7777777777777778,1,object_02,5,3308,0,7,6,library_15,2,memory-2step-stake-s,705,4041899,0.0-18.0-0.1-0.216,489,6,5
217,2,object_07,object_01,506.0,3,1,550.0,0.6666666666666666,1,object_02,5,3338,0,6,8,forest_1,2,memory-2step-stake-s,706,4050271,0.0-18.0-0.1-0.217,489,3,4
218,4,object_04,object_06,1034.0,8,1,393.0,0.8888888888888888,2,object_05,1,3346,0,3,8,restaurant_32,2,memory-2step-stake-s,707,4058685,0.0-18.0-0.1-0.218,489,8,7
219,4,object_06,object_04,652.0,8,2,322.0,1.0,2,object_05,1,3355,0,2,9,restaurant_12,2,memory-2step-stake-s,708,4067127,0.0-18.0-0.1-0.219,489,7,8
220,3,object_09,object_08,961.0,6,2,348.0,0.6666666666666666,2,object_05,1,3361,0,1,6,library_12,2,memory-2step-stake-s,709,4075297,0.0-18.0-0.1-0.220,489,5,6
221,2,object_01,object_07,957.0,3,2,872.0,0.2222222222222222,1,object_02,5,3371,0,2,7,forest_14,2,memory-2step-stake-s,710,4083586,0.0-18.0-0.1-0.221,489,4,3
222,1,object_03,object_10,517.0,2,1,319.0,0.7777777777777778,2,object_05,5,3406,0,3,7,desert_22,2,memory-2step-stake-s,711,4091830,0.0-18.0-0.1-0.222,489,2,1
223,3,object_08,object_09,1186.0,5,2,445.0,0.3333333333333333,1,object_02,1,3409,0,3,6,library_6,2,memory-2step-stake-s,712,4099793,0.0-18.0-0.1-0.223,489,6,5
224,2,object_01,object_07,1000.0,4,1,279.0,0.7777777777777778,2,object_05,5,3444,0,5,7,forest_14,2,memory-2step-stake-s,713,4107988,0.0-18.0-0.1-0.224,489,4,3
225,1,object_03,object_10,861.0,2,1,461.0,0.7777777777777778,2,object_05,5,3479,0,4,7,desert_10,2,memory-2step-stake-s,714,4116369,0.0-18.0-0.1-0.225,489,2,1
226,3,object_08,object_09,1142.0,6,1,397.0,0.5555555555555556,2,object_05,1,3484,0,2,5,library_10,2,memory-2step-stake-s,715,4124485,0.0-18.0-0.1-0.226,489,6,5
227,4,object_04,object_06,1136.0,7,2,346.0,0.3333333333333333,1,object_02,1,3487,0,3,7,restaurant_4,2,memory-2step-stake-s,716,4132350,0.0-18.0-0.1-0.227,489,8,7
228,4,object_06,object_04,1111.0,8,2,487.0,0.8888888888888888,2,object_05,1,3495,0,5,8,restaurant_9,2,memory-2step-stake-s,717,4140857,0.0-18.0-0.1-0.228,489,7,8
229,1,object_10,object_03,932.0,1,1,362.0,0.4444444444444444,1,object_02,5,3515,0,4,7,desert_32,2,memory-2step-stake-s,718,4148837,0.0-18.0-0.1-0.229,489,1,2
230,3,object_08,object_09,1391.0,5,2,348.0,0.6666666666666666,1,object_02,1,3521,0,6,7,library_14,2,memory-2step-stake-s,719,4157003,0.0-18.0-0.1-0.230,489,6,5
231,2,object_07,object_01,841.0,3,1,368.0,0.4444444444444444,1,object_02,5,3541,0,4,9,forest_11,2,memory-2step-stake-s,720,4164987,0.0-18.0-0.1-0.231,489,3,4
232,2,object_07,object_01,899.0,4,2,165.0,1.0,2,object_05,5,3586,0,5,9,forest_12,2,memory-2step-stake-s,721,4173274,0.0-18.0-0.1-0.232,489,3,4
233,4,object_04,object_06,1055.0,8,1,418.0,1.0,2,object_05,1,3595,0,5,9,restaurant_9,2,memory-2step-stake-s,722,4181822,0.0-18.0-0.1-0.233,489,8,7
234,3,object_08,object_09,1052.0,6,1,570.0,0.6666666666666666,2,object_05,1,3601,0,6,6,library_13,2,memory-2step-stake-s,723,4190212,0.0-18.0-0.1-0.234,489,6,5
235,3,object_09,object_08,975.0,6,2,390.0,0.8888888888888888,2,object_05,1,3609,0,4,8,library_13,2,memory-2step-stake-s,724,4198629,0.0-18.0-0.1-0.235,489,5,6
236,2,object_01,object_07,473.0,4,1,119.0,0.7777777777777778,2,object_05,5,3644,0,5,7,forest_24,2,memory-2step-stake-s,725,4206669,0.0-18.0-0.1-0.236,489,4,3
237,1,object_10,object_03,1268.0,2,2,553.0,0.6666666666666666,2,object_05,5,3674,0,7,6,desert_28,2,memory-2step-stake-s,726,4215043,0.0-18.0-0.1-0.237,489,1,2
238,4,object_06,object_04,484.0,7,1,332.0,0.3333333333333333,1,object_02,1,3677,0,3,8,restaurant_28,2,memory-2step-stake-s,727,4222893,0.0-18.0-0.1-0.238,489,7,8
239,2,object_07,object_01,462.0,4,2,-1.0,0.0,2,object_05,5,3677,0,5,8,forest_26,2,memory-2step-stake-s,728,4231403,0.0-18.0-0.1-0.239,489,3,4
240,1,object_10,object_03,386.0,2,2,455.0,0.5555555555555556,2,object_05,5,3702,0,3,5,desert_31,2,memory-2step-stake-s,729,4239576,0.0-18.0-0.1-0.240,489,1,2
241,1,object_03,object_10,1120.0,1,2,459.0,0.3333333333333333,1,object_02,5,3717,0,3,5,desert_25,2,memory-2step-stake-s,730,4247549,0.0-18.0-0.1-0.241,489,2,1
242,4,object_06,object_04,807.0,7,1,379.0,0.5555555555555556,1,object_02,1,3722,0,5,3,restaurant_28,2,memory-2step-stake-s,731,4255645,0.0-18.0-0.1-0.242,489,7,8
243,4,object_04,object_06,883.0,7,2,375.0,0.8888888888888888,1,object_02,1,3730,0,8,1,restaurant_16,2,memory-2step-stake-s,732,4264043,0.0-18.0-0.1-0.243,489,8,7
244,2,object_01,object_07,519.0,3,2,622.0,0.7777777777777778,1,object_02,1,3737,0,7,1,forest_12,2,memory-2step-stake-s,733,4272585,0.0-18.0-0.1-0.244,489,4,3
245,4,object_04,object_06,623.0,7,2,665.0,0.7777777777777778,1,object_02,1,3744,0,7,1,restaurant_23,2,memory-2step-stake-s,734,4281172,0.0-18.0-0.1-0.245,489,8,7
246,3,object_09,object_08,1135.0,5,1,430.0,1.0,1,object_02,1,3753,0,9,2,library_20,2,memory-2step-stake-s,735,4289725,0.0-18.0-0.1-0.246,489,5,6
247,2,object_01,object_07,1098.0,3,2,440.0,0.6666666666666666,1,object_02,5,3783,0,6,6,forest_26,2,memory-2step-stake-s,736,4297987,0.0-18.0-0.1-0.247,489,4,3
248,1,object_10,object_03,505.0,2,2,381.0,0.8888888888888888,2,object_05,5,3823,0,8,8,desert_13,2,memory-2step-stake-s,737,4306391,0.0-18.0-0.1-0.248,489,1,2
249,3,object_09,object_08,921.0,6,2,398.0,0.6666666666666666,2,object_05,1,3829,0,8,6,library_18,2,memory-2step-stake-s,738,4314613,0.0-18.0-0.1-0.249,489,5,6
250,2,object_07,object_01,554.0,3,1,432.0,0.8888888888888888,1,object_02,1,3837,0,8,8,forest_4,2,memory-2step-stake-s,739,4323069,0.0-18.0-0.1-0.250,489,3,4
251,4,object_04,object_06,677.0,7,2,543.0,1.0,1,object_02,1,3846,0,9,8,restaurant_9,2,memory-2step-stake-s,740,4331738,0.0-18.0-0.1-0.251,489,8,7
252,2,object_01,object_07,628.0,3,2,1031.0,0.6666666666666666,1,object_02,1,3852,0,6,8,forest_10,2,memory-2step-stake-s,741,4340592,0.0-18.0-0.1-0.252,489,4,3
253,1,object_10,object_03,590.0,1,1,338.0,0.8888888888888888,1,object_02,5,3892,0,8,9,desert_23,2,memory-2step-stake-s,742,4348952,0.0-18.0-0.1-0.253,489,1,2
254,2,object_01,object_07,446.0,3,2,492.0,0.4444444444444444,1,object_02,5,3912,0,4,7,forest_10,2,memory-2step-stake-s,743,4357062,0.0-18.0-0.1-0.254,489,4,3
255,1,object_03,object_10,362.0,2,1,448.0,0.8888888888888888,2,object_05,5,3952,0,3,8,desert_23,2,memory-2step-stake-s,744,4365532,0.0-18.0-0.1-0.255,489,2,1
