,state1,stim_left,stim_right,rt_1,choice1,response1,rt_2,points,state2,stim_state2,stake,score,practice,rews1,rews2,background,high_arm,trial_type,trial_index,time_elapsed,internal_node_id,subid,stim_left_num,stim_right_num
0,3,object_06,object_02,1042.16,5,2,-1.0,0.0,1,object_05,5,0,0,0,2,library_9,1,memory-2step-stake-s,488,910447,0.0-18.0-0.0-0.0,4419,6,5
1,2,object_04,object_08,557.53,3,1,376.195,0.2222222222222222,1,object_05,1,2,0,2,3,forest_3,1,memory-2step-stake-s,489,918269,0.0-18.0-0.0-0.1,4419,3,4
2,2,object_04,object_08,666.875,3,1,533.65,0.1111111111111111,1,object_05,5,7,0,1,2,forest_23,1,memory-2step-stake-s,490,926142,0.0-18.0-0.0-0.2,4419,3,4
3,2,object_08,object_04,818.2399998999999,4,1,604.225,0.1111111111111111,2,object_10,5,12,0,2,1,forest_20,1,memory-2step-stake-s,491,934075,0.0-18.0-0.0-0.3,4419,4,3
4,2,object_08,object_04,800.7650001000001,4,1,414.06,0.0,2,object_10,1,12,0,2,0,forest_1,1,memory-2step-stake-s,492,941726,0.0-18.0-0.0-0.4,4419,4,3
5,2,object_08,object_04,715.94,3,2,476.965,0.0,1,object_05,1,12,0,0,0,forest_23,1,memory-2step-stake-s,493,949442,0.0-18.0-0.0-0.5,4419,4,3
6,3,object_02,object_06,1319.72,6,2,511.175,0.0,2,object_10,5,12,0,1,0,library_17,1,memory-2step-stake-s,494,957198,0.0-18.0-0.0-0.6,4419,5,6
7,1,object_03,object_07,1005.015,1,1,422.37,0.1111111111111111,1,object_05,1,13,0,1,1,desert_6,1,memory-2step-stake-s,495,964965,0.0-18.0-0.0-0.7,4419,1,2
8,2,object_04,object_08,1074.885,3,1,336.125,0.0,1,object_05,1,13,0,0,2,forest_11,1,memory-2step-stake-s,496,972536,0.0-18.0-0.0-0.8,4419,3,4
9,1,object_03,object_07,1036.715,2,2,372.69,0.1111111111111111,2,object_10,1,14,0,0,1,desert_1,1,memory-2step-stake-s,497,980247,0.0-18.0-0.0-0.9,4419,1,2
10,3,object_02,object_06,545.33,5,1,416.085,0.2222222222222222,1,object_05,5,24,0,2,3,library_10,1,memory-2step-stake-s,498,988100,0.0-18.0-0.0-0.10,4419,5,6
11,3,object_06,object_02,684.28,5,2,394.205,0.0,1,object_05,5,24,0,0,2,library_24,1,memory-2step-stake-s,499,995729,0.0-18.0-0.0-0.11,4419,6,5
12,2,object_08,object_04,951.165,3,2,356.79,0.1111111111111111,1,object_05,1,25,0,1,1,forest_26,1,memory-2step-stake-s,500,1003418,0.0-18.0-0.0-0.12,4419,4,3
13,2,object_04,object_08,949.5850001,4,2,421.005,0.2222222222222222,2,object_10,1,27,0,3,2,forest_17,1,memory-2step-stake-s,501,1011277,0.0-18.0-0.0-0.13,4419,3,4
14,3,object_06,object_02,767.14,6,1,491.6,0.2222222222222222,2,object_10,5,37,0,2,2,library_25,1,memory-2step-stake-s,502,1019204,0.0-18.0-0.0-0.14,4419,6,5
15,4,object_09,object_01,1400.68,8,1,589.94,0.2222222222222222,2,object_10,1,39,0,5,2,restaurant_10,1,memory-2step-stake-s,503,1027230,0.0-18.0-0.0-0.15,4419,8,7
16,1,object_07,object_03,1240.83,2,1,533.64,0.4444444444444444,2,object_10,1,43,0,7,4,desert_17,1,memory-2step-stake-s,504,1035406,0.0-18.0-0.0-0.16,4419,2,1
17,4,object_09,object_01,1001.79,8,1,468.4049999,0.7777777777777778,2,object_10,5,78,0,5,7,restaurant_11,1,memory-2step-stake-s,505,1043837,0.0-18.0-0.0-0.17,4419,8,7
18,4,object_01,object_09,875.795,8,2,361.515,0.8888888888888888,2,object_10,5,118,0,5,8,restaurant_5,1,memory-2step-stake-s,506,1052262,0.0-18.0-0.0-0.18,4419,7,8
19,3,object_02,object_06,709.06,5,1,475.795,0.4444444444444444,1,object_05,5,138,0,4,7,library_20,1,memory-2step-stake-s,507,1060391,0.0-18.0-0.0-0.19,4419,5,6
20,4,object_01,object_09,1045.915,7,1,387.715,0.2222222222222222,1,object_05,5,148,0,2,6,restaurant_19,1,memory-2step-stake-s,508,1068250,0.0-18.0-0.0-0.20,4419,7,8
21,4,object_09,object_01,943.9599999,8,1,338.12,0.2222222222222222,2,object_10,5,158,0,3,2,restaurant_13,1,memory-2step-stake-s,509,1077486,0.0-18.0-0.0-0.21,4419,8,7
22,3,object_06,object_02,983.1300001,6,1,573.2250001,0.0,2,object_10,1,158,0,4,0,library_12,1,memory-2step-stake-s,510,1085287,0.0-18.0-0.0-0.22,4419,6,5
23,1,object_07,object_03,1354.075,1,2,466.32,0.3333333333333333,1,object_05,1,161,0,3,1,desert_11,1,memory-2step-stake-s,511,1093295,0.0-18.0-0.0-0.23,4419,2,1
24,2,object_04,object_08,1401.78,3,1,379.3850001,0.4444444444444444,1,object_05,1,165,0,4,1,forest_11,1,memory-2step-stake-s,512,1101324,0.0-18.0-0.0-0.24,4419,3,4
25,3,object_02,object_06,1213.695,6,2,660.5,0.2222222222222222,2,object_10,5,175,0,3,2,library_20,1,memory-2step-stake-s,513,1109427,0.0-18.0-0.0-0.25,4419,5,6
26,2,object_08,object_04,772.625,3,2,311.72,0.0,1,object_05,1,175,0,0,2,forest_10,1,memory-2step-stake-s,514,1116966,0.0-18.0-0.0-0.26,4419,4,3
27,4,object_01,object_09,911.6150001,8,2,432.255,0.3333333333333333,2,object_10,5,190,0,2,3,restaurant_19,1,memory-2step-stake-s,515,1124946,0.0-18.0-0.0-0.27,4419,7,8
28,4,object_09,object_01,905.95,8,1,476.8099999,0.3333333333333333,2,object_10,5,205,0,2,3,restaurant_25,1,memory-2step-stake-s,516,1132970,0.0-18.0-0.0-0.28,4419,8,7
29,3,object_06,object_02,-1.0,-1,-1,-1.0,0.0,-,,5,205,0,2,4,library_27,1,memory-2step-stake-s,517,1139499,0.0-18.0-0.0-0.29,4419,6,5
30,1,object_07,object_03,1086.59,2,1,452.89,0.5555555555555556,2,object_10,1,210,0,2,5,desert_20,1,memory-2step-stake-s,518,1147704,0.0-18.0-0.0-0.30,4419,2,1
31,2,object_08,object_04,1355.385,4,1,443.16,0.8888888888888888,2,object_10,5,250,0,3,8,forest_21,1,memory-2step-stake-s,519,1156207,0.0-18.0-0.0-0.31,4419,4,3
32,2,object_04,object_08,1112.095,4,2,475.87,0.6666666666666666,2,object_10,1,256,0,5,6,forest_17,1,memory-2step-stake-s,520,1164536,0.0-18.0-0.0-0.32,4419,3,4
33,1,object_03,object_07,-1.0,-1,-1,-1.0,0.0,-,,1,256,0,5,2,desert_32,1,memory-2step-stake-s,521,1171063,0.0-18.0-0.0-0.33,4419,1,2
34,3,object_06,object_02,594.27,5,2,354.005,0.6666666666666666,1,object_05,5,286,0,6,0,library_15,1,memory-2step-stake-s,522,1179265,0.0-18.0-0.0-0.34,4419,6,5
35,2,object_04,object_08,838.16,3,1,429.5399999,0.6666666666666666,1,object_05,5,316,0,6,2,forest_3,1,memory-2step-stake-s,523,1187551,0.0-18.0-0.0-0.35,4419,3,4
36,2,object_08,object_04,575.86,3,2,385.0649999,0.5555555555555556,1,object_05,1,321,0,5,1,forest_5,1,memory-2step-stake-s,524,1195695,0.0-18.0-0.0-0.36,4419,4,3
37,4,object_09,object_01,861.9250001,7,2,337.685,0.3333333333333333,1,object_05,5,336,0,3,1,restaurant_10,1,memory-2step-stake-s,525,1203589,0.0-18.0-0.0-0.37,4419,8,7
38,4,object_01,object_09,500.815,8,2,331.445,0.2222222222222222,2,object_10,5,346,0,2,2,restaurant_10,1,memory-2step-stake-s,526,1211355,0.0-18.0-0.0-0.38,4419,7,8
39,2,object_08,object_04,785.365,4,1,422.135,0.5555555555555556,2,object_10,1,351,0,4,5,forest_23,1,memory-2step-stake-s,527,1219537,0.0-18.0-0.0-0.39,4419,4,3
40,4,object_01,object_09,676.51,8,2,334.685,0.4444444444444444,2,object_10,5,371,0,6,4,restaurant_6,1,memory-2step-stake-s,528,1227515,0.0-18.0-0.0-0.40,4419,7,8
41,3,object_02,object_06,970.66,5,1,444.8599999,0.4444444444444444,1,object_05,5,391,0,4,3,library_24,1,memory-2step-stake-s,529,1235606,0.0-18.0-0.0-0.41,4419,5,6
42,4,object_01,object_09,726.8899999,7,1,473.29,0.3333333333333333,1,object_05,5,406,0,3,1,restaurant_19,1,memory-2step-stake-s,530,1243620,0.0-18.0-0.0-0.42,4419,7,8
43,2,object_08,object_04,831.9,4,1,542.225,0.3333333333333333,2,object_10,1,409,0,0,3,forest_7,1,memory-2step-stake-s,531,1251704,0.0-18.0-0.0-0.43,4419,4,3
44,3,object_06,object_02,790.6449999,6,1,430.25,0.1111111111111111,2,object_10,5,414,0,1,1,library_7,1,memory-2step-stake-s,532,1259473,0.0-18.0-0.0-0.44,4419,6,5
45,2,object_08,object_04,956.015,3,2,357.57,0.3333333333333333,1,object_05,1,417,0,3,1,forest_26,1,memory-2step-stake-s,533,1267366,0.0-18.0-0.0-0.45,4419,4,3
46,2,object_08,object_04,872.15,3,2,353.4650001,0.1111111111111111,1,object_05,1,418,0,1,2,forest_6,1,memory-2step-stake-s,534,1275059,0.0-18.0-0.0-0.46,4419,4,3
47,1,object_07,object_03,1319.325,1,2,384.195,0.3333333333333333,1,object_05,1,421,0,3,1,desert_31,1,memory-2step-stake-s,535,1282991,0.0-18.0-0.0-0.47,4419,2,1
48,3,object_02,object_06,563.3200001,5,1,183.205,0.2222222222222222,1,object_05,1,423,0,2,2,library_10,1,memory-2step-stake-s,536,1290614,0.0-18.0-0.0-0.48,4419,5,6
49,2,object_08,object_04,1044.7,4,1,316.935,0.1111111111111111,2,object_10,1,424,0,2,1,forest_3,1,memory-2step-stake-s,537,1298274,0.0-18.0-0.0-0.49,4419,4,3
50,2,object_04,object_08,178.26,4,2,0.185000012,0.0,2,object_10,1,424,0,1,0,forest_31,1,memory-2step-stake-s,538,1305510,0.0-18.0-0.0-0.50,4419,3,4
51,4,object_01,object_09,485.825,8,2,313.665,0.2222222222222222,2,object_10,5,434,0,2,2,restaurant_7,1,memory-2step-stake-s,539,1313268,0.0-18.0-0.0-0.51,4419,7,8
52,2,object_08,object_04,814.1099998999999,4,1,456.78,0.3333333333333333,2,object_10,1,437,0,5,3,forest_13,1,memory-2step-stake-s,540,1321268,0.0-18.0-0.0-0.52,4419,4,3
53,4,object_01,object_09,504.265,8,2,391.12,0.0,2,object_10,1,437,0,5,0,restaurant_24,1,memory-2step-stake-s,541,1328886,0.0-18.0-0.0-0.53,4419,7,8
54,3,object_02,object_06,1039.5,6,2,392.945,0.1111111111111111,2,object_10,5,442,0,6,1,library_11,1,memory-2step-stake-s,542,1336617,0.0-18.0-0.0-0.54,4419,5,6
55,3,object_06,object_02,496.635,5,2,350.7749999,0.7777777777777778,1,object_05,5,477,0,7,2,library_17,1,memory-2step-stake-s,543,1344913,0.0-18.0-0.0-0.55,4419,6,5
56,3,object_02,object_06,650.855,5,1,1112.355,0.6666666666666666,1,object_05,5,507,0,6,2,library_15,1,memory-2step-stake-s,544,1353871,0.0-18.0-0.0-0.56,4419,5,6
57,2,object_08,object_04,739.24,4,1,394.4400001,0.1111111111111111,2,object_10,1,508,0,5,1,forest_7,1,memory-2step-stake-s,545,1361606,0.0-18.0-0.0-0.57,4419,4,3
58,4,object_01,object_09,554.27,8,2,33.58500008,0.1111111111111111,2,object_10,5,513,0,5,1,restaurant_21,1,memory-2step-stake-s,546,1368982,0.0-18.0-0.0-0.58,4419,7,8
59,3,object_06,object_02,789.2849999,5,2,279.08,0.6666666666666666,1,object_05,5,543,0,6,0,library_17,1,memory-2step-stake-s,547,1377130,0.0-18.0-0.0-0.59,4419,6,5
60,4,object_09,object_01,779.59,7,2,438.54,0.3333333333333333,1,object_05,5,558,0,3,2,restaurant_11,1,memory-2step-stake-s,548,1385114,0.0-18.0-0.0-0.60,4419,8,7
61,4,object_09,object_01,610.565,8,1,306.445,0.0,2,object_10,1,558,0,1,0,restaurant_17,1,memory-2step-stake-s,549,1392653,0.0-18.0-0.0-0.61,4419,8,7
62,3,object_02,object_06,581.2250001,5,1,354.9,0.2222222222222222,1,object_05,5,568,0,2,1,library_22,1,memory-2step-stake-s,550,1400453,0.0-18.0-0.0-0.62,4419,5,6
63,4,object_01,object_09,673.7899999,7,1,334.775,0.2222222222222222,1,object_05,5,578,0,2,0,restaurant_32,1,memory-2step-stake-s,551,1408230,0.0-18.0-0.0-0.63,4419,7,8
64,1,object_03,object_07,654.6649999,2,2,325.04500010000004,0.1111111111111111,2,object_10,1,579,0,1,1,desert_18,1,memory-2step-stake-s,552,1415885,0.0-18.0-0.0-0.64,4419,1,2
65,1,object_07,object_03,865.8649998999999,1,2,312.8749999,0.2222222222222222,1,object_05,1,581,0,2,3,desert_31,1,memory-2step-stake-s,553,1423635,0.0-18.0-0.0-0.65,4419,2,1
66,1,object_07,object_03,664.39,1,2,273.535,0.2222222222222222,1,object_05,5,591,0,2,2,desert_2,1,memory-2step-stake-s,554,1431336,0.0-18.0-0.0-0.66,4419,2,1
67,4,object_01,object_09,769.48,7,1,332.54,0.4444444444444444,1,object_05,5,611,0,4,5,restaurant_24,1,memory-2step-stake-s,555,1439312,0.0-18.0-0.0-0.67,4419,7,8
68,4,object_01,object_09,692.2249999,7,1,373.0700001,0.5555555555555556,1,object_05,5,636,0,5,2,restaurant_31,1,memory-2step-stake-s,556,1447442,0.0-18.0-0.0-0.68,4419,7,8
69,3,object_02,object_06,685.19,5,1,322.25,0.5555555555555556,1,object_05,5,661,0,5,2,library_11,1,memory-2step-stake-s,557,1455514,0.0-18.0-0.0-0.69,4419,5,6
70,4,object_01,object_09,569.7999999,7,1,382.925,0.5555555555555556,1,object_05,5,686,0,5,0,restaurant_17,1,memory-2step-stake-s,558,1463644,0.0-18.0-0.0-0.70,4419,7,8
71,4,object_09,object_01,625.305,7,2,349.4000001,0.2222222222222222,1,object_05,5,696,0,2,2,restaurant_13,1,memory-2step-stake-s,559,1471428,0.0-18.0-0.0-0.71,4419,8,7
72,4,object_01,object_09,478.4550001,8,2,334.09,0.4444444444444444,2,object_10,5,716,0,6,4,restaurant_18,1,memory-2step-stake-s,560,1479410,0.0-18.0-0.0-0.72,4419,7,8
73,4,object_09,object_01,471.7550001,8,1,364.885,0.1111111111111111,2,object_10,5,721,0,3,1,restaurant_6,1,memory-2step-stake-s,561,1487106,0.0-18.0-0.0-0.73,4419,8,7
74,2,object_04,object_08,1204.095,3,1,447.525,0.1111111111111111,1,object_05,1,722,0,1,5,forest_28,1,memory-2step-stake-s,562,1494884,0.0-18.0-0.0-0.74,4419,3,4
75,3,object_02,object_06,782.59,6,2,277.03,0.5555555555555556,2,object_10,5,747,0,2,5,library_7,1,memory-2step-stake-s,563,1502907,0.0-18.0-0.0-0.75,4419,5,6
76,1,object_07,object_03,1203.02,2,1,459.2,0.3333333333333333,2,object_10,5,762,0,4,3,desert_17,1,memory-2step-stake-s,564,1510906,0.0-18.0-0.0-0.76,4419,2,1
77,4,object_09,object_01,622.92,8,1,349.715,0.2222222222222222,2,object_10,5,772,0,4,2,restaurant_7,1,memory-2step-stake-s,565,1518703,0.0-18.0-0.0-0.77,4419,8,7
78,1,object_03,object_07,970.08,2,2,774.855,0.1111111111111111,2,object_10,1,773,0,6,1,desert_15,1,memory-2step-stake-s,566,1526810,0.0-18.0-0.0-0.78,4419,1,2
79,4,object_01,object_09,927.53,7,1,278.915,0.7777777777777778,1,object_05,1,780,0,7,0,restaurant_32,1,memory-2step-stake-s,567,1535063,0.0-18.0-0.0-0.79,4419,7,8
80,2,object_08,object_04,742.7000001,4,1,304.8449999,0.2222222222222222,2,object_10,1,782,0,9,2,forest_5,1,memory-2step-stake-s,568,1542807,0.0-18.0-0.0-0.80,4419,4,3
81,3,object_02,object_06,821.3399999,5,1,323.54,0.8888888888888888,1,object_05,5,822,0,8,2,library_10,1,memory-2step-stake-s,569,1551185,0.0-18.0-0.0-0.81,4419,5,6
82,4,object_09,object_01,709.135,7,2,314.2,0.7777777777777778,1,object_05,5,857,0,7,3,restaurant_14,1,memory-2step-stake-s,570,1559439,0.0-18.0-0.0-0.82,4419,8,7
83,2,object_08,object_04,822.4699999,3,2,275.47,0.7777777777777778,1,object_05,1,864,0,7,3,forest_3,1,memory-2step-stake-s,571,1567672,0.0-18.0-0.0-0.83,4419,4,3
84,3,object_02,object_06,598.0250001,5,1,62.09500006,0.6666666666666666,1,object_05,5,894,0,6,1,library_20,1,memory-2step-stake-s,572,1575580,0.0-18.0-0.0-0.84,4419,5,6
85,3,object_02,object_06,551.7750001,5,1,173.2450001,0.2222222222222222,1,object_05,5,904,0,2,2,library_7,1,memory-2step-stake-s,573,1583187,0.0-18.0-0.0-0.85,4419,5,6
86,1,object_03,object_07,1017.74,1,1,353.8749999,0.1111111111111111,1,object_05,5,909,0,1,4,desert_25,1,memory-2step-stake-s,574,1590873,0.0-18.0-0.0-0.86,4419,1,2
87,3,object_06,object_02,790.07,6,1,80.85499995,0.7777777777777778,2,object_10,5,944,0,1,7,library_12,1,memory-2step-stake-s,575,1598914,0.0-18.0-0.0-0.87,4419,6,5
88,2,object_08,object_04,-1.0,-1,-1,-1.0,0.0,-,,1,944,0,5,7,forest_6,1,memory-2step-stake-s,576,1605433,0.0-18.0-0.0-0.88,4419,4,3
89,2,object_08,object_04,655.7700001000001,4,1,298.9650001,0.5555555555555556,2,object_10,1,949,0,2,5,forest_13,1,memory-2step-stake-s,577,1613475,0.0-18.0-0.0-0.89,4419,4,3
90,1,object_03,object_07,1151.25,1,1,352.995,0.6666666666666666,1,object_05,1,955,0,6,3,desert_1,1,memory-2step-stake-s,578,1621675,0.0-18.0-0.0-0.90,4419,1,2
91,3,object_06,object_02,441.6500001,5,2,411.0,0.6666666666666666,1,object_05,1,961,0,6,3,library_24,1,memory-2step-stake-s,579,1629933,0.0-18.0-0.0-0.91,4419,6,5
92,3,object_06,object_02,417.015,5,2,404.635,0.6666666666666666,1,object_05,5,991,0,6,3,library_18,1,memory-2step-stake-s,580,1638203,0.0-18.0-0.0-0.92,4419,6,5
93,1,object_03,object_07,1186.965,1,1,389.18000010000003,0.4444444444444444,1,object_05,5,1011,0,4,2,desert_1,1,memory-2step-stake-s,581,1646241,0.0-18.0-0.0-0.93,4419,1,2
94,2,object_08,object_04,823.395,3,2,370.99,0.2222222222222222,1,object_05,1,1013,0,2,4,forest_5,1,memory-2step-stake-s,582,1654041,0.0-18.0-0.0-0.94,4419,4,3
95,1,object_07,object_03,1072.06,1,2,411.8250001,0.1111111111111111,1,object_05,1,1014,0,1,1,desert_23,1,memory-2step-stake-s,583,1661791,0.0-18.0-0.0-0.95,4419,2,1
96,1,object_03,object_07,1167.25,2,2,301.16,0.2222222222222222,2,object_10,1,1016,0,1,2,desert_32,1,memory-2step-stake-s,584,1669535,0.0-18.0-0.0-0.96,4419,1,2
97,4,object_01,object_09,672.4299999,8,2,262.985,0.3333333333333333,2,object_10,5,1031,0,2,3,restaurant_4,1,memory-2step-stake-s,585,1677342,0.0-18.0-0.0-0.97,4419,7,8
98,1,object_07,object_03,833.9900001,2,1,391.17,0.2222222222222222,2,object_10,1,1033,0,3,2,desert_2,1,memory-2step-stake-s,586,1685162,0.0-18.0-0.0-0.98,4419,2,1
99,3,object_06,object_02,802.595,6,1,290.88,0.6666666666666666,2,object_10,5,1063,0,4,6,library_9,1,memory-2step-stake-s,587,1693276,0.0-18.0-0.0-0.99,4419,6,5
100,2,object_04,object_08,1063.525,4,2,373.34,0.4444444444444444,2,object_10,5,1083,0,4,4,forest_20,1,memory-2step-stake-s,588,1701285,0.0-18.0-0.0-0.100,4419,3,4
101,2,object_08,object_04,704.305,4,1,314.685,0.7777777777777778,2,object_10,1,1090,0,3,7,forest_11,1,memory-2step-stake-s,589,1709563,0.0-18.0-0.0-0.101,4419,4,3
102,3,object_06,object_02,773.605,6,1,272.4050001,0.8888888888888888,2,object_10,5,1130,0,2,8,library_20,1,memory-2step-stake-s,590,1717904,0.0-18.0-0.0-0.102,4419,6,5
103,2,object_08,object_04,568.705,4,1,119.36,0.7777777777777778,2,object_10,1,1137,0,4,7,forest_7,1,memory-2step-stake-s,591,1725973,0.0-18.0-0.0-0.103,4419,4,3
104,1,object_07,object_03,1235.395,2,1,373.95,0.6666666666666666,2,object_10,1,1143,0,4,6,desert_18,1,memory-2step-stake-s,592,1734192,0.0-18.0-0.0-0.104,4419,2,1
105,2,object_04,object_08,713.3950001000001,4,2,277.025,0.7777777777777778,2,object_10,5,1178,0,0,7,forest_28,1,memory-2step-stake-s,593,1742435,0.0-18.0-0.0-0.105,4419,3,4
106,1,object_03,object_07,801.97,2,2,528.79,0.8888888888888888,2,object_10,1,1186,0,2,8,desert_17,1,memory-2step-stake-s,594,1751015,0.0-18.0-0.0-0.106,4419,1,2
107,4,object_01,object_09,638.945,8,2,192.4450001,0.7777777777777778,2,object_10,1,1193,0,2,7,restaurant_21,1,memory-2step-stake-s,595,1759178,0.0-18.0-0.0-0.107,4419,7,8
108,4,object_09,object_01,493.845,8,1,303.465,0.3333333333333333,2,object_10,5,1208,0,1,3,restaurant_31,1,memory-2step-stake-s,596,1767028,0.0-18.0-0.0-0.108,4419,8,7
109,3,object_06,object_02,450.71,5,2,184.4349999,0.0,1,object_05,5,1208,0,0,3,library_28,1,memory-2step-stake-s,597,1774444,0.0-18.0-0.0-0.109,4419,6,5
110,1,object_07,object_03,919.01,1,2,333.415,0.2222222222222222,1,object_05,1,1210,0,2,4,desert_21,1,memory-2step-stake-s,598,1782220,0.0-18.0-0.0-0.110,4419,2,1
111,4,object_09,object_01,658.8450001,7,2,343.065,0.2222222222222222,1,object_05,5,1220,0,2,6,restaurant_24,1,memory-2step-stake-s,599,1790009,0.0-18.0-0.0-0.111,4419,8,7
112,1,object_03,object_07,908.41,2,2,304.82,0.6666666666666666,2,object_10,1,1226,0,3,6,desert_21,1,memory-2step-stake-s,600,1798171,0.0-18.0-0.0-0.112,4419,1,2
113,3,object_06,object_02,726.93,6,1,420.1199999,1.0,2,object_10,5,1271,0,0,9,library_28,1,memory-2step-stake-s,601,1806759,0.0-18.0-0.0-0.113,4419,6,5
114,4,object_01,object_09,455.42,8,2,703.09,0.8888888888888888,2,object_10,5,1311,0,3,8,restaurant_13,1,memory-2step-stake-s,602,1815512,0.0-18.0-0.0-0.114,4419,7,8
115,2,object_08,object_04,881.6999999,4,1,289.175,1.0,2,object_10,1,1320,0,3,9,forest_28,1,memory-2step-stake-s,603,1823963,0.0-18.0-0.0-0.115,4419,4,3
116,4,object_09,object_01,472.9399999,8,1,196.2,0.6666666666666666,2,object_10,5,1350,0,3,6,restaurant_25,1,memory-2step-stake-s,604,1832021,0.0-18.0-0.0-0.116,4419,8,7
117,2,object_04,object_08,772.885,4,2,341.7150001,0.8888888888888888,2,object_10,5,1390,0,0,8,forest_28,1,memory-2step-stake-s,605,1840426,0.0-18.0-0.0-0.117,4419,3,4
118,2,object_04,object_08,620.5600001,4,2,232.84000010000003,0.4444444444444444,2,object_10,1,1394,0,1,4,forest_17,1,memory-2step-stake-s,606,1848301,0.0-18.0-0.0-0.118,4419,3,4
119,4,object_09,object_01,543.575,8,1,322.06,0.5555555555555556,2,object_10,5,1419,0,0,5,restaurant_32,1,memory-2step-stake-s,607,1856373,0.0-18.0-0.0-0.119,4419,8,7
120,1,object_07,object_03,923.74,1,2,316.065,0.1111111111111111,1,object_05,5,1424,0,1,6,desert_6,1,memory-2step-stake-s,608,1864030,0.0-18.0-0.0-0.120,4419,2,1
121,3,object_06,object_02,821.02,6,1,252.54,0.5555555555555556,2,object_10,1,1429,0,1,5,library_22,1,memory-2step-stake-s,609,1872041,0.0-18.0-0.0-0.121,4419,6,5
122,3,object_06,object_02,695.4549999,6,1,306.30000010000003,0.4444444444444444,2,object_10,5,1449,0,1,4,library_15,1,memory-2step-stake-s,610,1879993,0.0-18.0-0.0-0.122,4419,6,5
123,4,object_09,object_01,433.0,8,1,228.21,0.5555555555555556,2,object_10,5,1474,0,3,5,restaurant_4,1,memory-2step-stake-s,611,1887960,0.0-18.0-0.0-0.123,4419,8,7
124,3,object_02,object_06,764.755,6,2,305.345,0.2222222222222222,2,object_10,5,1484,0,6,2,library_17,1,memory-2step-stake-s,612,1895706,0.0-18.0-0.0-0.124,4419,5,6
125,2,object_04,object_08,760.13,3,1,306.4,0.3333333333333333,1,object_05,1,1487,0,3,2,forest_18,1,memory-2step-stake-s,613,1903557,0.0-18.0-0.0-0.125,4419,3,4
126,4,object_09,object_01,618.9250001,7,2,313.29000010000004,0.1111111111111111,1,object_05,1,1488,0,1,1,restaurant_21,1,memory-2step-stake-s,614,1911202,0.0-18.0-0.0-0.126,4419,8,7
127,2,object_08,object_04,832.225,4,1,427.64,0.1111111111111111,2,object_10,1,1489,0,2,1,forest_21,1,memory-2step-stake-s,615,1918958,0.0-18.0-0.0-0.127,4419,4,3
128,2,object_08,object_04,1222.35,4,1,409.82999989999996,0.1111111111111111,2,object_10,1,1490,0,3,1,forest_31,1,memory-2step-stake-s,617,2169283,0.0-18.0-0.1-0.128,4419,4,3
129,1,object_07,object_03,1084.79,1,2,365.6749999,0.5555555555555556,1,object_05,1,1495,0,5,1,desert_10,1,memory-2step-stake-s,618,2177459,0.0-18.0-0.1-0.129,4419,2,1
130,4,object_01,object_09,685.01,7,1,257.695,0.4444444444444444,1,object_05,5,1515,0,4,1,restaurant_11,1,memory-2step-stake-s,619,2185353,0.0-18.0-0.1-0.130,4419,7,8
131,1,object_03,object_07,1168.445,1,1,416.215,0.1111111111111111,1,object_05,1,1516,0,1,1,desert_25,1,memory-2step-stake-s,620,2193115,0.0-18.0-0.1-0.131,4419,1,2
132,2,object_04,object_08,899.42,3,1,428.015,0.0,1,object_05,1,1516,0,0,0,forest_1,1,memory-2step-stake-s,621,2200779,0.0-18.0-0.1-0.132,4419,3,4
133,3,object_06,object_02,784.5750001,6,1,233.57,0.2222222222222222,2,object_10,5,1526,0,2,2,library_25,1,memory-2step-stake-s,622,2208462,0.0-18.0-0.1-0.133,4419,6,5
134,2,object_04,object_08,914.73,4,2,385.575,0.0,2,object_10,1,1526,0,1,0,forest_26,1,memory-2step-stake-s,623,2216088,0.0-18.0-0.1-0.134,4419,3,4
135,1,object_03,object_07,1145.065,2,2,414.2250001,0.3333333333333333,2,object_10,1,1529,0,0,3,desert_6,1,memory-2step-stake-s,624,2224056,0.0-18.0-0.1-0.135,4419,1,2
136,3,object_02,object_06,765.44,6,2,280.35,0.5555555555555556,2,object_10,5,1554,0,2,5,library_7,1,memory-2step-stake-s,625,2232086,0.0-18.0-0.1-0.136,4419,5,6
137,4,object_09,object_01,603.245,8,1,293.735,1.0,2,object_10,5,1599,0,2,9,restaurant_25,1,memory-2step-stake-s,626,2240531,0.0-18.0-0.1-0.137,4419,8,7
138,2,object_08,object_04,1112.445,4,1,379.7050001,0.8888888888888888,2,object_10,1,1607,0,1,8,forest_13,1,memory-2step-stake-s,627,2248977,0.0-18.0-0.1-0.138,4419,4,3
139,1,object_07,object_03,1040.38,2,1,454.73,0.8888888888888888,2,object_10,1,1615,0,3,8,desert_6,1,memory-2step-stake-s,628,2257496,0.0-18.0-0.1-0.139,4419,2,1
140,1,object_03,object_07,828.68,2,2,371.3100001,0.8888888888888888,2,object_10,1,1623,0,1,8,desert_26,1,memory-2step-stake-s,629,2265939,0.0-18.0-0.1-0.140,4419,1,2
141,1,object_07,object_03,703.3149999,2,1,355.8649999,0.8888888888888888,2,object_10,1,1631,0,1,8,desert_31,1,memory-2step-stake-s,630,2274352,0.0-18.0-0.1-0.141,4419,2,1
142,4,object_09,object_01,487.005,8,1,307.24,0.8888888888888888,2,object_10,1,1639,0,3,8,restaurant_17,1,memory-2step-stake-s,631,2282726,0.0-18.0-0.1-0.142,4419,8,7
143,1,object_07,object_03,664.8649998999999,2,1,301.045,0.8888888888888888,2,object_10,1,1647,0,5,8,desert_2,1,memory-2step-stake-s,632,2291088,0.0-18.0-0.1-0.143,4419,2,1
144,2,object_08,object_04,740.125,4,1,324.725,0.8888888888888888,2,object_10,5,1687,0,4,8,forest_21,1,memory-2step-stake-s,633,2299489,0.0-18.0-0.1-0.144,4419,4,3
145,1,object_03,object_07,779.445,2,2,296.5800001,1.0,2,object_10,1,1696,0,4,9,desert_15,1,memory-2step-stake-s,634,2307958,0.0-18.0-0.1-0.145,4419,1,2
146,4,object_01,object_09,551.5150001000001,8,2,345.06999989999997,1.0,2,object_10,5,1741,0,2,9,restaurant_11,1,memory-2step-stake-s,635,2316455,0.0-18.0-0.1-0.146,4419,7,8
147,4,object_09,object_01,870.32,8,1,312.29500010000004,0.8888888888888888,2,object_10,1,1749,0,1,8,restaurant_4,1,memory-2step-stake-s,636,2324832,0.0-18.0-0.1-0.147,4419,8,7
148,3,object_02,object_06,651.85,6,2,296.61000010000004,0.8888888888888888,2,object_10,5,1789,0,2,8,library_23,1,memory-2step-stake-s,637,2333197,0.0-18.0-0.1-0.148,4419,5,6
149,4,object_01,object_09,451.25,8,2,269.6,0.7777777777777778,2,object_10,5,1824,0,1,7,restaurant_31,1,memory-2step-stake-s,638,2341440,0.0-18.0-0.1-0.149,4419,7,8
150,4,object_09,object_01,460.55,8,1,199.3750001,0.3333333333333333,2,object_10,1,1827,0,0,3,restaurant_19,1,memory-2step-stake-s,639,2349184,0.0-18.0-0.1-0.150,4419,8,7
151,4,object_09,object_01,441.1299999,7,2,401.6849999,0.3333333333333333,1,object_05,1,1830,0,3,2,restaurant_32,1,memory-2step-stake-s,640,2357126,0.0-18.0-0.1-0.151,4419,8,7
152,3,object_02,object_06,733.89,5,1,470.67,0.2222222222222222,1,object_05,5,1840,0,2,2,library_25,1,memory-2step-stake-s,641,2365035,0.0-18.0-0.1-0.152,4419,5,6
153,4,object_09,object_01,413.9749999,8,1,253.5,0.3333333333333333,2,object_10,1,1843,0,2,3,restaurant_4,1,memory-2step-stake-s,642,2372834,0.0-18.0-0.1-0.153,4419,8,7
154,4,object_09,object_01,444.3099999,8,1,345.815,0.3333333333333333,2,object_10,5,1858,0,4,3,restaurant_6,1,memory-2step-stake-s,643,2380725,0.0-18.0-0.1-0.154,4419,8,7
155,4,object_09,object_01,371.8300001,8,1,326.475,0.2222222222222222,2,object_10,1,1860,0,4,2,restaurant_17,1,memory-2step-stake-s,644,2388494,0.0-18.0-0.1-0.155,4419,8,7
156,1,object_03,object_07,434.15,2,2,328.25,0.1111111111111111,2,object_10,1,1861,0,2,1,desert_23,1,memory-2step-stake-s,645,2396163,0.0-18.0-0.1-0.156,4419,1,2
157,3,object_02,object_06,459.945,5,1,278.225,0.4444444444444444,1,object_05,5,1881,0,4,5,library_12,1,memory-2step-stake-s,646,2404097,0.0-18.0-0.1-0.157,4419,5,6
158,1,object_07,object_03,1178.07,1,2,418.2450001,0.5555555555555556,1,object_05,1,1886,0,5,7,desert_26,1,memory-2step-stake-s,647,2412273,0.0-18.0-0.1-0.158,4419,2,1
159,1,object_03,object_07,881.4449999,1,1,386.375,0.5555555555555556,1,object_05,1,1891,0,5,5,desert_26,1,memory-2step-stake-s,648,2420412,0.0-18.0-0.1-0.159,4419,1,2
160,3,object_06,object_02,539.095,5,2,276.85500010000004,0.5555555555555556,1,object_05,1,1896,0,5,0,library_2,1,memory-2step-stake-s,649,2428445,0.0-18.0-0.1-0.160,4419,6,5
161,1,object_07,object_03,950.2600001000001,1,2,389.02,0.6666666666666666,1,object_05,1,1902,0,6,0,desert_12,1,memory-2step-stake-s,650,2436690,0.0-18.0-0.1-0.161,4419,2,1
162,4,object_01,object_09,733.515,7,1,504.89,0.7777777777777778,1,object_05,5,1937,0,7,2,restaurant_13,1,memory-2step-stake-s,651,2445150,0.0-18.0-0.1-0.162,4419,7,8
163,2,object_08,object_04,540.865,4,1,131.24,0.6666666666666666,2,object_10,1,1943,0,6,6,forest_21,1,memory-2step-stake-s,652,2453121,0.0-18.0-0.1-0.163,4419,4,3
164,1,object_07,object_03,1037.415,2,1,349.4099999,0.3333333333333333,2,object_10,1,1946,0,6,3,desert_1,1,memory-2step-stake-s,653,2461018,0.0-18.0-0.1-0.164,4419,2,1
165,2,object_04,object_08,923.49,3,1,372.0000001,0.8888888888888888,1,object_05,1,1954,0,8,0,forest_1,1,memory-2step-stake-s,654,2469443,0.0-18.0-0.1-0.165,4419,3,4
166,3,object_06,object_02,564.35,5,2,262.61000010000004,0.8888888888888888,1,object_05,5,1994,0,8,1,library_15,1,memory-2step-stake-s,655,2477773,0.0-18.0-0.1-0.166,4419,6,5
167,1,object_03,object_07,961.1450001000001,1,1,379.035,0.6666666666666666,1,object_05,1,2000,0,6,0,desert_25,1,memory-2step-stake-s,656,2485998,0.0-18.0-0.1-0.167,4419,1,2
168,2,object_08,object_04,791.1,4,1,358.76,0.0,2,object_10,1,2000,0,3,0,forest_10,1,memory-2step-stake-s,657,2493599,0.0-18.0-0.1-0.168,4419,4,3
169,2,object_04,object_08,1095.995,3,1,365.82999989999996,0.1111111111111111,1,object_05,1,2001,0,1,1,forest_10,1,memory-2step-stake-s,658,2501314,0.0-18.0-0.1-0.169,4419,3,4
170,1,object_03,object_07,967.525,2,2,340.85500010000004,0.0,2,object_10,5,2001,0,1,0,desert_2,1,memory-2step-stake-s,659,2508891,0.0-18.0-0.1-0.170,4419,1,2
171,4,object_09,object_01,661.77,7,2,294.1950001,0.1111111111111111,1,object_05,5,2006,0,1,3,restaurant_5,1,memory-2step-stake-s,660,2516522,0.0-18.0-0.1-0.171,4419,8,7
172,4,object_01,object_09,602.4399999,7,1,267.4349999,0.0,1,object_05,5,2006,0,0,1,restaurant_25,1,memory-2step-stake-s,661,2524025,0.0-18.0-0.1-0.172,4419,7,8
173,3,object_02,object_06,709.105,6,2,337.0950001,0.2222222222222222,2,object_10,5,2016,0,3,2,library_11,1,memory-2step-stake-s,662,2531801,0.0-18.0-0.1-0.173,4419,5,6
174,1,object_07,object_03,878.2950001,2,1,314.17,0.2222222222222222,2,object_10,1,2018,0,6,2,desert_26,1,memory-2step-stake-s,663,2539554,0.0-18.0-0.1-0.174,4419,2,1
175,2,object_04,object_08,1257.19,4,2,435.79,0.2222222222222222,2,object_10,1,2020,0,5,2,forest_13,1,memory-2step-stake-s,664,2547429,0.0-18.0-0.1-0.175,4419,3,4
176,3,object_02,object_06,639.55,6,2,278.8750001,0.1111111111111111,2,object_10,5,2025,0,7,1,library_28,1,memory-2step-stake-s,665,2555044,0.0-18.0-0.1-0.176,4419,5,6
177,4,object_01,object_09,484.16,8,2,241.925,0.0,2,object_10,1,2025,0,9,0,restaurant_14,1,memory-2step-stake-s,666,2562528,0.0-18.0-0.1-0.177,4419,7,8
178,2,object_08,object_04,869.9099999,3,2,303.085,0.8888888888888888,1,object_05,1,2033,0,8,2,forest_18,1,memory-2step-stake-s,667,2570896,0.0-18.0-0.1-0.178,4419,4,3
179,2,object_08,object_04,757.0999999,3,2,262.6649999,0.2222222222222222,1,object_05,1,2035,0,2,2,forest_6,1,memory-2step-stake-s,668,2578606,0.0-18.0-0.1-0.179,4419,4,3
180,4,object_09,object_01,764.805,7,2,322.195,0.2222222222222222,1,object_05,5,2045,0,2,2,restaurant_5,1,memory-2step-stake-s,669,2586370,0.0-18.0-0.1-0.180,4419,8,7
181,3,object_06,object_02,839.945,5,2,324.195,0.4444444444444444,1,object_05,1,2049,0,4,1,library_23,1,memory-2step-stake-s,670,2594351,0.0-18.0-0.1-0.181,4419,6,5
182,2,object_04,object_08,1060.065,3,1,396.4,0.4444444444444444,1,object_05,1,2053,0,4,1,forest_5,1,memory-2step-stake-s,671,2602390,0.0-18.0-0.1-0.182,4419,3,4
183,3,object_02,object_06,663.68,6,2,301.295,0.5555555555555556,2,object_10,5,2078,0,4,5,library_23,1,memory-2step-stake-s,672,2610455,0.0-18.0-0.1-0.183,4419,5,6
184,2,object_04,object_08,996.24,4,2,338.795,0.4444444444444444,2,object_10,1,2082,0,5,4,forest_7,1,memory-2step-stake-s,673,2618440,0.0-18.0-0.1-0.184,4419,3,4
185,4,object_01,object_09,1324.925,8,2,408.24,0.4444444444444444,2,object_10,1,2086,0,5,4,restaurant_14,1,memory-2step-stake-s,674,2626504,0.0-18.0-0.1-0.185,4419,7,8
186,2,object_08,object_04,755.075,4,1,330.115,0.4444444444444444,2,object_10,1,2090,0,1,4,forest_1,1,memory-2step-stake-s,675,2634484,0.0-18.0-0.1-0.186,4419,4,3
187,4,object_01,object_09,694.81,8,2,246.3849999,0.3333333333333333,2,object_10,5,2105,0,2,3,restaurant_14,1,memory-2step-stake-s,676,2642279,0.0-18.0-0.1-0.187,4419,7,8
188,1,object_03,object_07,822.6449999,2,2,317.85,0.1111111111111111,2,object_10,1,2106,0,2,1,desert_12,1,memory-2step-stake-s,677,2649926,0.0-18.0-0.1-0.188,4419,1,2
189,3,object_02,object_06,479.96,5,1,249.725,0.5555555555555556,1,object_05,5,2131,0,5,0,library_27,1,memory-2step-stake-s,678,2657928,0.0-18.0-0.1-0.189,4419,5,6
190,2,object_04,object_08,1104.815,3,1,373.15,0.2222222222222222,1,object_05,1,2133,0,2,1,forest_20,1,memory-2step-stake-s,679,2665752,0.0-18.0-0.1-0.190,4419,3,4
191,3,object_02,object_06,817.38,6,2,321.385,0.0,2,object_10,5,2133,0,2,0,library_18,1,memory-2step-stake-s,680,2673307,0.0-18.0-0.1-0.191,4419,5,6
192,2,object_04,object_08,1153.155,3,1,374.845,0.0,1,object_05,5,2133,0,0,2,forest_11,1,memory-2step-stake-s,681,2680921,0.0-18.0-0.1-0.192,4419,3,4
193,1,object_03,object_07,879.1,2,2,282.4650001,0.2222222222222222,2,object_10,1,2135,0,4,2,desert_11,1,memory-2step-stake-s,682,2688646,0.0-18.0-0.1-0.193,4419,1,2
194,1,object_07,object_03,667.71,2,1,321.3749999,0.2222222222222222,2,object_10,1,2137,0,2,2,desert_17,1,memory-2step-stake-s,683,2696411,0.0-18.0-0.1-0.194,4419,2,1
195,4,object_09,object_01,678.63,8,1,347.67,0.4444444444444444,2,object_10,5,2157,0,2,4,restaurant_10,1,memory-2step-stake-s,684,2704400,0.0-18.0-0.1-0.195,4419,8,7
196,4,object_09,object_01,532.84,8,1,283.33,0.6666666666666666,2,object_10,5,2187,0,1,6,restaurant_5,1,memory-2step-stake-s,685,2712536,0.0-18.0-0.1-0.196,4419,8,7
197,4,object_09,object_01,524.7950001,8,1,316.535,0.6666666666666666,2,object_10,1,2193,0,3,6,restaurant_7,1,memory-2step-stake-s,686,2720705,0.0-18.0-0.1-0.197,4419,8,7
198,1,object_03,object_07,765.38,2,2,356.35500010000004,0.6666666666666666,2,object_10,1,2199,0,2,6,desert_15,1,memory-2step-stake-s,687,2728928,0.0-18.0-0.1-0.198,4419,1,2
199,1,object_03,object_07,716.795,2,2,259.54,1.0,2,object_10,1,2208,0,0,9,desert_21,1,memory-2step-stake-s,688,2737366,0.0-18.0-0.1-0.199,4419,1,2
200,2,object_04,object_08,869.74,4,2,326.675,0.6666666666666666,2,object_10,1,2214,0,4,6,forest_23,1,memory-2step-stake-s,689,2745548,0.0-18.0-0.1-0.200,4419,3,4
201,2,object_04,object_08,666.2250001,4,2,259.8999999,0.4444444444444444,2,object_10,1,2218,0,6,4,forest_18,1,memory-2step-stake-s,690,2753470,0.0-18.0-0.1-0.201,4419,3,4
202,3,object_02,object_06,674.52,6,2,264.435,0.7777777777777778,2,object_10,5,2253,0,6,7,library_27,1,memory-2step-stake-s,691,2761693,0.0-18.0-0.1-0.202,4419,5,6
203,1,object_07,object_03,1045.6,2,1,306.46,0.4444444444444444,2,object_10,1,2257,0,7,4,desert_18,1,memory-2step-stake-s,692,2769652,0.0-18.0-0.1-0.203,4419,2,1
204,4,object_01,object_09,455.475,8,2,277.3750001,0.3333333333333333,2,object_10,5,2272,0,6,3,restaurant_21,1,memory-2step-stake-s,693,2777477,0.0-18.0-0.1-0.204,4419,7,8
205,4,object_09,object_01,533.375,8,1,275.64499989999996,0.0,2,object_10,5,2272,0,8,0,restaurant_7,1,memory-2step-stake-s,694,2784987,0.0-18.0-0.1-0.205,4419,8,7
206,3,object_06,object_02,533.4500001,5,2,325.94,0.5555555555555556,1,object_05,5,2297,0,5,5,library_12,1,memory-2step-stake-s,695,2793071,0.0-18.0-0.1-0.206,4419,6,5
207,3,object_06,object_02,522.285,5,2,355.73,0.6666666666666666,1,object_05,5,2327,0,6,2,library_28,1,memory-2step-stake-s,696,2801276,0.0-18.0-0.1-0.207,4419,6,5
208,1,object_03,object_07,1192.05,1,1,555.39,0.5555555555555556,1,object_05,1,2332,0,5,0,desert_20,1,memory-2step-stake-s,697,2809580,0.0-18.0-0.1-0.208,4419,1,2
209,2,object_04,object_08,843.955,3,1,390.0349999,0.7777777777777778,1,object_05,1,2339,0,7,6,forest_20,1,memory-2step-stake-s,698,2817939,0.0-18.0-0.1-0.209,4419,3,4
210,1,object_07,object_03,990.4199999,1,2,345.28,0.3333333333333333,1,object_05,1,2342,0,3,8,desert_32,1,memory-2step-stake-s,699,2825818,0.0-18.0-0.1-0.210,4419,2,1
211,2,object_04,object_08,946.81,3,1,267.3150001,0.5555555555555556,1,object_05,5,2367,0,5,6,forest_31,1,memory-2step-stake-s,700,2833832,0.0-18.0-0.1-0.211,4419,3,4
212,1,object_03,object_07,871.6200001,1,1,357.29,0.2222222222222222,1,object_05,1,2369,0,2,8,desert_20,1,memory-2step-stake-s,701,2841637,0.0-18.0-0.1-0.212,4419,1,2
213,1,object_07,object_03,768.59,1,2,400.395,0.2222222222222222,1,object_05,1,2371,0,2,6,desert_21,1,memory-2step-stake-s,702,2849487,0.0-18.0-0.1-0.213,4419,2,1
214,1,object_07,object_03,705.9300001,1,2,295.1400001,0.3333333333333333,1,object_05,5,2386,0,3,8,desert_32,1,memory-2step-stake-s,703,2857317,0.0-18.0-0.1-0.214,4419,2,1
215,1,object_07,object_03,718.625,1,2,267.75,0.3333333333333333,1,object_05,1,2389,0,3,8,desert_10,1,memory-2step-stake-s,704,2865120,0.0-18.0-0.1-0.215,4419,2,1
216,2,object_08,object_04,1237.065,3,2,416.45,0.3333333333333333,1,object_05,1,2392,0,3,9,forest_18,1,memory-2step-stake-s,705,2873085,0.0-18.0-0.1-0.216,4419,4,3
217,1,object_03,object_07,850.835,1,1,344.94,0.1111111111111111,1,object_05,1,2393,0,1,4,desert_11,1,memory-2step-stake-s,706,2880768,0.0-18.0-0.1-0.217,4419,1,2
218,3,object_02,object_06,719.87,6,2,325.185,0.5555555555555556,2,object_10,5,2418,0,2,5,library_27,1,memory-2step-stake-s,707,2888834,0.0-18.0-0.1-0.218,4419,5,6
219,1,object_07,object_03,889.9899998999999,2,1,317.53,0.5555555555555556,2,object_10,1,2423,0,2,5,desert_20,1,memory-2step-stake-s,708,2896897,0.0-18.0-0.1-0.219,4419,2,1
220,4,object_09,object_01,518.5400001,8,1,305.515,0.4444444444444444,2,object_10,5,2443,0,1,4,restaurant_18,1,memory-2step-stake-s,709,2904847,0.0-18.0-0.1-0.220,4419,8,7
221,1,object_07,object_03,789.7600001000001,1,2,299.6500001,0.0,1,object_05,5,2443,0,0,4,desert_10,1,memory-2step-stake-s,710,2912380,0.0-18.0-0.1-0.221,4419,2,1
222,4,object_01,object_09,468.0,8,2,240.62500010000002,0.1111111111111111,2,object_10,5,2448,0,3,1,restaurant_24,1,memory-2step-stake-s,711,2919960,0.0-18.0-0.1-0.222,4419,7,8
223,3,object_06,object_02,468.8,5,2,191.855,0.3333333333333333,1,object_05,5,2463,0,3,3,library_22,1,memory-2step-stake-s,712,2927695,0.0-18.0-0.1-0.223,4419,6,5
224,3,object_02,object_06,541.91,5,1,341.61,0.1111111111111111,1,object_05,1,2464,0,1,4,library_18,1,memory-2step-stake-s,713,2935375,0.0-18.0-0.1-0.224,4419,5,6
225,1,object_07,object_03,1319.48,1,2,387.61000010000004,0.2222222222222222,1,object_05,1,2466,0,2,3,desert_12,1,memory-2step-stake-s,714,2943203,0.0-18.0-0.1-0.225,4419,2,1
226,3,object_02,object_06,783.37,5,1,298.665,0.2222222222222222,1,object_05,5,2476,0,2,2,library_25,1,memory-2step-stake-s,715,2950934,0.0-18.0-0.1-0.226,4419,5,6
227,1,object_03,object_07,915.82,1,1,316.76,0.1111111111111111,1,object_05,1,2477,0,1,6,desert_12,1,memory-2step-stake-s,716,2958594,0.0-18.0-0.1-0.227,4419,1,2
228,4,object_09,object_01,734.5949999,7,2,238.765,0.0,1,object_05,5,2477,0,0,6,restaurant_31,1,memory-2step-stake-s,717,2966073,0.0-18.0-0.1-0.228,4419,8,7
229,2,object_08,object_04,876.5,4,1,324.875,0.6666666666666666,2,object_10,5,2507,0,2,6,forest_26,1,memory-2step-stake-s,718,2974246,0.0-18.0-0.1-0.229,4419,4,3
230,3,object_06,object_02,807.99,6,1,368.3900001,0.5555555555555556,2,object_10,1,2512,0,4,5,library_9,1,memory-2step-stake-s,719,2982376,0.0-18.0-0.1-0.230,4419,6,5
231,3,object_06,object_02,630.4449999,6,1,474.375,0.5555555555555556,2,object_10,5,2537,0,7,5,library_22,1,memory-2step-stake-s,720,2990603,0.0-18.0-0.1-0.231,4419,6,5
232,3,object_02,object_06,637.625,6,2,305.53,0.5555555555555556,2,object_10,1,2542,0,9,5,library_11,1,memory-2step-stake-s,721,2998657,0.0-18.0-0.1-0.232,4419,5,6
233,2,object_08,object_04,703.08,4,1,321.595,0.2222222222222222,2,object_10,5,2552,0,7,2,forest_10,1,memory-2step-stake-s,722,3006426,0.0-18.0-0.1-0.233,4419,4,3
234,2,object_08,object_04,747.895,4,1,267.8500001,0.5555555555555556,2,object_10,1,2557,0,7,5,forest_31,1,memory-2step-stake-s,723,3014447,0.0-18.0-0.1-0.234,4419,4,3
235,4,object_01,object_09,404.95,8,2,302.38499989999997,0.6666666666666666,2,object_10,5,2587,0,4,6,restaurant_18,1,memory-2step-stake-s,724,3022611,0.0-18.0-0.1-0.235,4419,7,8
236,1,object_07,object_03,679.2,2,1,313.8250001,0.6666666666666666,2,object_10,1,2593,0,3,6,desert_15,1,memory-2step-stake-s,725,3030789,0.0-18.0-0.1-0.236,4419,2,1
237,3,object_02,object_06,668.555,6,2,305.435,0.8888888888888888,2,object_10,5,2633,0,1,8,library_2,1,memory-2step-stake-s,726,3039145,0.0-18.0-0.1-0.237,4419,5,6
238,3,object_02,object_06,713.17,6,2,741.6500001,0.7777777777777778,2,object_10,1,2640,0,2,7,library_18,1,memory-2step-stake-s,727,3047847,0.0-18.0-0.1-0.238,4419,5,6
239,1,object_03,object_07,729.7199999,2,2,272.975,0.8888888888888888,2,object_10,1,2648,0,5,8,desert_10,1,memory-2step-stake-s,728,3056177,0.0-18.0-0.1-0.239,4419,1,2
240,2,object_08,object_04,704.9550001,4,1,349.515,1.0,2,object_10,1,2657,0,9,9,forest_17,1,memory-2step-stake-s,729,3064691,0.0-18.0-0.1-0.240,4419,4,3
241,3,object_02,object_06,692.145,6,2,363.12,0.7777777777777778,2,object_10,5,2692,0,6,7,library_9,1,memory-2step-stake-s,730,3073016,0.0-18.0-0.1-0.241,4419,5,6
242,3,object_06,object_02,546.54,6,1,220.49,0.8888888888888888,2,object_10,1,2700,0,3,8,library_10,1,memory-2step-stake-s,731,3081313,0.0-18.0-0.1-0.242,4419,6,5
243,1,object_07,object_03,573.0199999,2,1,274.17000010000004,0.5555555555555556,2,object_10,1,2705,0,3,5,desert_11,1,memory-2step-stake-s,732,3089327,0.0-18.0-0.1-0.243,4419,2,1
244,1,object_07,object_03,594.3700001,2,1,297.9199999,0.6666666666666666,2,object_10,1,2711,0,0,6,desert_25,1,memory-2step-stake-s,733,3097465,0.0-18.0-0.1-0.244,4419,2,1
245,3,object_06,object_02,674.8050001,6,1,295.9199999,0.6666666666666666,2,object_10,5,2741,0,0,6,library_2,1,memory-2step-stake-s,734,3105616,0.0-18.0-0.1-0.245,4419,6,5
246,1,object_03,object_07,788.4999999,2,2,278.985,0.6666666666666666,2,object_10,1,2747,0,1,6,desert_31,1,memory-2step-stake-s,735,3113753,0.0-18.0-0.1-0.246,4419,1,2
247,2,object_08,object_04,569.75,4,1,362.995,0.2222222222222222,2,object_10,1,2749,0,1,2,forest_6,1,memory-2step-stake-s,736,3121565,0.0-18.0-0.1-0.247,4419,4,3
248,3,object_06,object_02,420.13999989999996,5,2,233.875,0.1111111111111111,1,object_05,5,2754,0,1,1,library_2,1,memory-2step-stake-s,737,3129137,0.0-18.0-0.1-0.248,4419,6,5
249,3,object_02,object_06,474.37,5,1,336.72,0.2222222222222222,1,object_05,5,2764,0,2,2,library_24,1,memory-2step-stake-s,738,3136915,0.0-18.0-0.1-0.249,4419,5,6
250,4,object_09,object_01,663.975,7,2,246.615,0.1111111111111111,1,object_05,5,2769,0,1,2,restaurant_18,1,memory-2step-stake-s,739,3144503,0.0-18.0-0.1-0.250,4419,8,7
251,3,object_06,object_02,509.8700001,5,2,265.225,0.2222222222222222,1,object_05,1,2771,0,2,2,library_23,1,memory-2step-stake-s,740,3152209,0.0-18.0-0.1-0.251,4419,6,5
252,1,object_07,object_03,735.985,2,1,263.395,0.2222222222222222,2,object_10,1,2773,0,6,2,desert_23,1,memory-2step-stake-s,741,3159909,0.0-18.0-0.1-0.252,4419,2,1
253,4,object_01,object_09,682.06,8,2,322.65,0.5555555555555556,2,object_10,1,2778,0,6,5,restaurant_6,1,memory-2step-stake-s,742,3167985,0.0-18.0-0.1-0.253,4419,7,8
254,1,object_03,object_07,626.025,2,2,282.795,0.6666666666666666,2,object_10,1,2784,0,6,6,desert_23,1,memory-2step-stake-s,743,3176124,0.0-18.0-0.1-0.254,4419,1,2
255,1,object_07,object_03,754.75,2,1,255.77999989999998,1.0,2,object_10,1,2793,0,8,9,desert_18,1,memory-2step-stake-s,744,3184554,0.0-18.0-0.1-0.255,4419,2,1
