,state1,stim_left,stim_right,rt_1,choice1,response1,rt_2,points,state2,stim_state2,stake,score,practice,rews1,rews2,background,high_arm,trial_type,trial_index,time_elapsed,internal_node_id,subid,stim_left_num,stim_right_num
0,1,object_06,object_05,863.38,1,2,1354.71,0.1111111111111111,1,object_09,1,1,0,1,8,desert_20,1,memory-2step-stake-s,503,968017,0.0-18.0-0.0-0.0,4204,2,1
1,4,object_10,object_07,651.1200001,7,1,610.05,0.0,1,object_09,5,1,0,0,8,restaurant_24,1,memory-2step-stake-s,504,975862,0.0-18.0-0.0-0.1,4204,7,8
2,2,object_08,object_02,934.9800001,3,2,536.075,0.2222222222222222,1,object_09,5,11,0,2,6,forest_1,1,memory-2step-stake-s,505,983834,0.0-18.0-0.0-0.2,4204,4,3
3,1,object_06,object_05,1312.75,1,2,617.05,0.3333333333333333,1,object_09,1,14,0,3,4,desert_10,1,memory-2step-stake-s,506,991996,0.0-18.0-0.0-0.3,4204,2,1
4,3,object_04,object_01,693.1049998,5,2,938.57,0.4444444444444444,1,object_09,1,18,0,4,2,library_8,1,memory-2step-stake-s,507,1000580,0.0-18.0-0.0-0.4,4204,6,5
5,3,object_01,object_04,690.555,5,1,735.5900002000001,0.4444444444444444,1,object_09,1,22,0,4,4,library_7,1,memory-2step-stake-s,508,1008959,0.0-18.0-0.0-0.5,4204,5,6
6,1,object_06,object_05,758.135,1,2,1204.125,0.3333333333333333,1,object_09,1,25,0,3,3,desert_22,1,memory-2step-stake-s,509,1017705,0.0-18.0-0.0-0.6,4204,2,1
7,2,object_08,object_02,458.2849999,3,2,606.2100001,0.1111111111111111,1,object_09,1,26,0,1,2,forest_5,1,memory-2step-stake-s,510,1025649,0.0-18.0-0.0-0.7,4204,4,3
8,2,object_08,object_02,561.9750002000001,4,1,1109.79,0.4444444444444444,2,object_03,1,30,0,4,4,forest_27,1,memory-2step-stake-s,511,1034410,0.0-18.0-0.0-0.8,4204,4,3
9,1,object_06,object_05,649.5049999,1,2,1084.615,0.5555555555555556,1,object_09,1,35,0,5,5,desert_5,1,memory-2step-stake-s,512,1043239,0.0-18.0-0.0-0.9,4204,2,1
10,1,object_06,object_05,-1.0,-1,-1,-1.0,0.0,-,,5,35,0,7,4,desert_18,1,memory-2step-stake-s,513,1049762,0.0-18.0-0.0-0.10,4204,2,1
11,2,object_02,object_08,1036.715,3,1,-1.0,0.0,1,object_09,1,35,0,3,4,forest_24,1,memory-2step-stake-s,514,1058288,0.0-18.0-0.0-0.11,4204,3,4
12,1,object_06,object_05,775.5199999,1,2,612.0750001,0.2222222222222222,1,object_09,1,37,0,2,4,desert_30,1,memory-2step-stake-s,515,1066342,0.0-18.0-0.0-0.12,4204,2,1
13,1,object_05,object_06,876.2950001,1,1,483.585,0.0,1,object_09,5,37,0,0,4,desert_21,1,memory-2step-stake-s,516,1074052,0.0-18.0-0.0-0.13,4204,1,2
14,2,object_08,object_02,795.9049997999999,3,2,576.9799998999999,0.2222222222222222,1,object_09,5,47,0,2,2,forest_27,1,memory-2step-stake-s,517,1082066,0.0-18.0-0.0-0.14,4204,4,3
15,3,object_01,object_04,467.4750001,6,2,981.6149998999999,0.3333333333333333,2,object_03,5,62,0,3,3,library_11,1,memory-2step-stake-s,518,1090602,0.0-18.0-0.0-0.15,4204,5,6
16,4,object_10,object_07,630.755,7,1,848.3849999,0.1111111111111111,1,object_09,1,63,0,1,0,restaurant_5,1,memory-2step-stake-s,519,1098784,0.0-18.0-0.0-0.16,4204,7,8
17,3,object_04,object_01,1434.735,6,1,-1.0,0.0,2,object_03,5,63,0,1,3,library_6,1,memory-2step-stake-s,520,1107314,0.0-18.0-0.0-0.17,4204,6,5
18,2,object_02,object_08,426.81999989999997,4,2,1172.255,0.2222222222222222,2,object_03,5,73,0,5,2,forest_4,1,memory-2step-stake-s,521,1115938,0.0-18.0-0.0-0.18,4204,3,4
19,4,object_10,object_07,866.13,8,2,-1.0,0.0,2,object_03,5,73,0,4,2,restaurant_25,1,memory-2step-stake-s,522,1124476,0.0-18.0-0.0-0.19,4204,7,8
20,1,object_06,object_05,367.58499989999996,2,1,-1.0,0.0,2,object_03,1,73,0,5,2,desert_11,1,memory-2step-stake-s,523,1133016,0.0-18.0-0.0-0.20,4204,2,1
21,1,object_06,object_05,633.3399999,2,1,-1.0,0.0,2,object_03,1,73,0,4,5,desert_9,1,memory-2step-stake-s,524,1141550,0.0-18.0-0.0-0.21,4204,2,1
22,1,object_05,object_06,770.3549998999999,2,2,-1.0,0.0,2,object_03,1,73,0,4,5,desert_22,1,memory-2step-stake-s,525,1150079,0.0-18.0-0.0-0.22,4204,1,2
23,1,object_06,object_05,971.435,2,1,988.4899998999999,0.4444444444444444,2,object_03,1,77,0,4,4,desert_29,1,memory-2step-stake-s,526,1158706,0.0-18.0-0.0-0.23,4204,2,1
24,2,object_02,object_08,716.825,4,2,1266.71,0.4444444444444444,2,object_03,5,97,0,3,4,forest_18,1,memory-2step-stake-s,527,1167617,0.0-18.0-0.0-0.24,4204,3,4
25,1,object_06,object_05,330.025,1,2,970.2600001000001,0.4444444444444444,1,object_09,1,101,0,4,8,desert_2,1,memory-2step-stake-s,528,1176243,0.0-18.0-0.0-0.25,4204,2,1
26,2,object_02,object_08,440.98,4,2,675.8050001,0.6666666666666666,2,object_03,5,131,0,3,6,forest_20,1,memory-2step-stake-s,529,1184782,0.0-18.0-0.0-0.26,4204,3,4
27,3,object_01,object_04,375.1000001,6,2,-1.0,0.0,2,object_03,5,131,0,4,5,library_16,1,memory-2step-stake-s,530,1193315,0.0-18.0-0.0-0.27,4204,5,6
28,4,object_10,object_07,326.92000010000004,8,2,504.08499989999996,0.4444444444444444,2,object_03,5,151,0,6,4,restaurant_16,1,memory-2step-stake-s,531,1201470,0.0-18.0-0.0-0.28,4204,7,8
29,3,object_04,object_01,444.0200001,6,1,1113.315,0.5555555555555556,2,object_03,1,156,0,9,5,library_17,1,memory-2step-stake-s,532,1210332,0.0-18.0-0.0-0.29,4204,6,5
30,2,object_02,object_08,922.1049998999999,4,2,633.9349998,0.2222222222222222,2,object_03,1,158,0,6,2,forest_13,1,memory-2step-stake-s,533,1218406,0.0-18.0-0.0-0.30,4204,3,4
31,3,object_01,object_04,672.5649999,5,1,1349.48,0.7777777777777778,1,object_09,5,193,0,7,3,library_13,1,memory-2step-stake-s,534,1227722,0.0-18.0-0.0-0.31,4204,5,6
32,1,object_06,object_05,560.2150001,2,1,-1.0,0.0,2,object_03,1,193,0,9,6,desert_10,1,memory-2step-stake-s,535,1236252,0.0-18.0-0.0-0.32,4204,2,1
33,3,object_01,object_04,481.075,6,2,689.3799999,0.5555555555555556,2,object_03,5,218,0,9,5,library_8,1,memory-2step-stake-s,536,1244677,0.0-18.0-0.0-0.33,4204,5,6
34,2,object_02,object_08,632.9299998,3,1,656.5050001,0.8888888888888888,1,object_09,1,226,0,8,4,forest_1,1,memory-2step-stake-s,537,1253388,0.0-18.0-0.0-0.34,4204,3,4
35,2,object_08,object_02,665.2850001,3,2,1380.38,0.8888888888888888,1,object_09,1,234,0,8,7,forest_21,1,memory-2step-stake-s,538,1262819,0.0-18.0-0.0-0.35,4204,4,3
36,2,object_02,object_08,1129.74,3,1,-1.0,0.0,1,object_09,1,234,0,7,8,forest_31,1,memory-2step-stake-s,539,1271355,0.0-18.0-0.0-0.36,4204,3,4
37,4,object_10,object_07,757.7899999,7,1,504.76500020000003,0.8888888888888888,1,object_09,5,274,0,8,7,restaurant_25,1,memory-2step-stake-s,540,1279930,0.0-18.0-0.0-0.37,4204,7,8
38,2,object_08,object_02,1091.315,3,2,849.075,1.0,1,object_09,1,283,0,9,9,forest_5,1,memory-2step-stake-s,541,1288953,0.0-18.0-0.0-0.38,4204,4,3
39,2,object_08,object_02,684.1900002,4,1,424.49500020000005,1.0,2,object_03,1,292,0,8,9,forest_25,1,memory-2step-stake-s,542,1297542,0.0-18.0-0.0-0.39,4204,4,3
40,4,object_10,object_07,529.9600002000001,8,2,577.825,0.5555555555555556,2,object_03,5,317,0,8,5,restaurant_7,1,memory-2step-stake-s,543,1305868,0.0-18.0-0.0-0.40,4204,7,8
41,1,object_06,object_05,552.4499998,1,2,739.475,0.7777777777777778,1,object_09,1,324,0,7,3,desert_18,1,memory-2step-stake-s,544,1314563,0.0-18.0-0.0-0.41,4204,2,1
42,1,object_06,object_05,347.66,2,1,529.3950001000001,0.2222222222222222,2,object_03,1,326,0,4,2,desert_21,1,memory-2step-stake-s,545,1322533,0.0-18.0-0.0-0.42,4204,2,1
43,2,object_08,object_02,388.64,3,2,1045.33,0.4444444444444444,1,object_09,5,346,0,4,3,forest_20,1,memory-2step-stake-s,546,1331230,0.0-18.0-0.0-0.43,4204,4,3
44,3,object_04,object_01,511.9649998,6,1,994.555,0.2222222222222222,2,object_03,5,356,0,1,2,library_24,1,memory-2step-stake-s,547,1339669,0.0-18.0-0.0-0.44,4204,6,5
45,4,object_07,object_10,898.5600001,7,2,-1.0,0.0,1,object_09,1,356,0,0,3,restaurant_3,1,memory-2step-stake-s,548,1348203,0.0-18.0-0.0-0.45,4204,8,7
46,4,object_07,object_10,352.835,7,2,1200.04,0.0,1,object_09,5,356,0,0,3,restaurant_7,1,memory-2step-stake-s,549,1356643,0.0-18.0-0.0-0.46,4204,8,7
47,4,object_07,object_10,623.1850001,8,1,-1.0,0.0,2,object_03,1,356,0,1,2,restaurant_25,1,memory-2step-stake-s,550,1365163,0.0-18.0-0.0-0.47,4204,8,7
48,4,object_10,object_07,388.5999999,8,2,475.82999989999996,0.2222222222222222,2,object_03,5,366,0,1,2,restaurant_11,1,memory-2step-stake-s,551,1373080,0.0-18.0-0.0-0.48,4204,7,8
49,4,object_10,object_07,795.5200002,8,2,1167.205,0.5555555555555556,2,object_03,1,371,0,3,5,restaurant_18,1,memory-2step-stake-s,552,1381990,0.0-18.0-0.0-0.49,4204,7,8
50,4,object_10,object_07,336.90999980000004,8,2,137.95499990000002,0.6666666666666666,2,object_03,5,401,0,4,6,restaurant_23,1,memory-2step-stake-s,553,1389985,0.0-18.0-0.0-0.50,4204,7,8
51,3,object_04,object_01,803.695,6,1,-1.0,0.0,2,object_03,5,401,0,9,3,library_26,1,memory-2step-stake-s,554,1398520,0.0-18.0-0.0-0.51,4204,6,5
52,3,object_01,object_04,28.27499993,6,2,495.5800001,0.4444444444444444,2,object_03,5,421,0,9,4,library_24,1,memory-2step-stake-s,555,1406649,0.0-18.0-0.0-0.52,4204,5,6
53,4,object_07,object_10,973.5649999,8,1,1146.08,0.1111111111111111,2,object_03,5,426,0,7,1,restaurant_6,1,memory-2step-stake-s,556,1415129,0.0-18.0-0.0-0.53,4204,8,7
54,4,object_07,object_10,584.115,8,1,749.395,0.0,2,object_03,5,426,0,6,0,restaurant_11,1,memory-2step-stake-s,557,1423102,0.0-18.0-0.0-0.54,4204,8,7
55,4,object_07,object_10,347.07499989999997,7,2,826.6749999,0.4444444444444444,1,object_09,5,446,0,4,5,restaurant_20,1,memory-2step-stake-s,558,1431581,0.0-18.0-0.0-0.55,4204,8,7
56,4,object_10,object_07,826.3599998,8,2,1257.93,0.6666666666666666,2,object_03,5,476,0,5,6,restaurant_32,1,memory-2step-stake-s,559,1440695,0.0-18.0-0.0-0.56,4204,7,8
57,2,object_08,object_02,712.0449999,4,1,1115.44,0.5555555555555556,2,object_03,1,481,0,6,5,forest_9,1,memory-2step-stake-s,560,1449566,0.0-18.0-0.0-0.57,4204,4,3
58,3,object_01,object_04,695.7050001,6,2,455.81999979999995,0.3333333333333333,2,object_03,5,496,0,3,3,library_31,1,memory-2step-stake-s,561,1457558,0.0-18.0-0.0-0.58,4204,5,6
59,3,object_01,object_04,108.05500020000001,6,2,786.97,0.5555555555555556,2,object_03,1,501,0,2,5,library_30,1,memory-2step-stake-s,562,1466083,0.0-18.0-0.0-0.59,4204,5,6
60,3,object_01,object_04,1422.57,5,1,1030.705,0.2222222222222222,1,object_09,5,511,0,2,4,library_16,1,memory-2step-stake-s,563,1474551,0.0-18.0-0.0-0.60,4204,5,6
61,2,object_02,object_08,389.9099999,4,2,237.52,0.4444444444444444,2,object_03,1,515,0,7,4,forest_24,1,memory-2step-stake-s,564,1482434,0.0-18.0-0.0-0.61,4204,3,4
62,2,object_08,object_02,726.945,4,1,1046.845,0.0,2,object_03,1,515,0,5,0,forest_18,1,memory-2step-stake-s,565,1490714,0.0-18.0-0.0-0.62,4204,4,3
63,3,object_01,object_04,626.5799999,6,2,524.3499998,0.0,2,object_03,5,515,0,5,0,library_1,1,memory-2step-stake-s,566,1498468,0.0-18.0-0.0-0.63,4204,5,6
64,4,object_10,object_07,552.74,7,1,394.3350001,0.6666666666666666,1,object_09,5,545,0,6,2,restaurant_7,1,memory-2step-stake-s,567,1506716,0.0-18.0-0.0-0.64,4204,7,8
65,1,object_05,object_06,247.37,1,1,373.71,0.3333333333333333,1,object_09,1,548,0,3,1,desert_32,1,memory-2step-stake-s,568,1514628,0.0-18.0-0.0-0.65,4204,1,2
66,2,object_02,object_08,472.78,4,2,-1.0,0.0,2,object_03,1,548,0,1,1,forest_5,1,memory-2step-stake-s,569,1523161,0.0-18.0-0.0-0.66,4204,3,4
67,1,object_06,object_05,293.3100001,2,1,1130.825,0.2222222222222222,2,object_03,1,550,0,2,2,desert_13,1,memory-2step-stake-s,570,1531738,0.0-18.0-0.0-0.67,4204,2,1
68,1,object_06,object_05,1014.37,2,1,361.8099999,0.3333333333333333,2,object_03,1,553,0,2,3,desert_10,1,memory-2step-stake-s,571,1539641,0.0-18.0-0.0-0.68,4204,2,1
69,3,object_04,object_01,1038.395,5,2,620.1599999,0.2222222222222222,1,object_09,5,563,0,2,6,library_14,1,memory-2step-stake-s,572,1547701,0.0-18.0-0.0-0.69,4204,6,5
70,3,object_04,object_01,873.925,5,2,816.5550001,0.3333333333333333,1,object_09,1,566,0,3,6,library_12,1,memory-2step-stake-s,573,1556064,0.0-18.0-0.0-0.70,4204,6,5
71,2,object_02,object_08,1154.315,3,1,975.8850001000001,0.3333333333333333,1,object_09,1,569,0,3,5,forest_29,1,memory-2step-stake-s,574,1564587,0.0-18.0-0.0-0.71,4204,3,4
72,3,object_01,object_04,549.4299999,6,2,362.2600001,0.5555555555555556,2,object_03,5,594,0,2,5,library_31,1,memory-2step-stake-s,575,1572707,0.0-18.0-0.0-0.72,4204,5,6
73,2,object_08,object_02,1099.845,3,2,755.8800001,0.2222222222222222,1,object_09,1,596,0,2,4,forest_1,1,memory-2step-stake-s,576,1580905,0.0-18.0-0.0-0.73,4204,4,3
74,1,object_06,object_05,579.4800001,1,2,479.04000010000004,0.1111111111111111,1,object_09,1,597,0,1,4,desert_2,1,memory-2step-stake-s,577,1588715,0.0-18.0-0.0-0.74,4204,2,1
75,4,object_10,object_07,292.0600001,8,2,344.2749998,0.3333333333333333,2,object_03,1,600,0,1,3,restaurant_5,1,memory-2step-stake-s,578,1596602,0.0-18.0-0.0-0.75,4204,7,8
76,4,object_07,object_10,102.4800001,7,2,589.075,0.2222222222222222,1,object_09,5,610,0,2,4,restaurant_20,1,memory-2step-stake-s,579,1604637,0.0-18.0-0.0-0.76,4204,8,7
77,2,object_02,object_08,34.47000007,4,2,302.0599999,0.4444444444444444,2,object_03,1,614,0,1,4,forest_32,1,memory-2step-stake-s,580,1612590,0.0-18.0-0.0-0.77,4204,3,4
78,2,object_08,object_02,355.0,3,2,1252.605,0.1111111111111111,1,object_09,1,615,0,1,3,forest_27,1,memory-2step-stake-s,581,1621174,0.0-18.0-0.0-0.78,4204,4,3
79,3,object_01,object_04,928.3050001,5,1,508.22,0.1111111111111111,1,object_09,5,620,0,1,6,library_17,1,memory-2step-stake-s,582,1629013,0.0-18.0-0.0-0.79,4204,5,6
80,3,object_04,object_01,5.2399998530000005,5,2,359.705,0.1111111111111111,1,object_09,5,625,0,1,9,library_4,1,memory-2step-stake-s,583,1636711,0.0-18.0-0.0-0.80,4204,6,5
81,1,object_06,object_05,511.8200001,1,2,382.7300002,0.2222222222222222,1,object_09,1,627,0,2,8,desert_6,1,memory-2step-stake-s,584,1644526,0.0-18.0-0.0-0.81,4204,2,1
82,3,object_01,object_04,335.405,6,2,571.8750001,0.8888888888888888,2,object_03,5,667,0,2,8,library_30,1,memory-2step-stake-s,585,1653155,0.0-18.0-0.0-0.82,4204,5,6
83,2,object_02,object_08,308.5100001,3,1,868.9949999,0.4444444444444444,1,object_09,1,671,0,4,8,forest_24,1,memory-2step-stake-s,586,1661673,0.0-18.0-0.0-0.83,4204,3,4
84,2,object_08,object_02,-1.0,-1,-1,-1.0,0.0,-,,1,671,0,8,7,forest_29,1,memory-2step-stake-s,587,1668195,0.0-18.0-0.0-0.84,4204,4,3
85,3,object_01,object_04,710.2000001,6,2,1042.215,1.0,2,object_03,5,716,0,8,9,library_1,1,memory-2step-stake-s,588,1677405,0.0-18.0-0.0-0.85,4204,5,6
86,2,object_02,object_08,688.8799998,4,2,700.7549999,1.0,2,object_03,1,725,0,9,9,forest_30,1,memory-2step-stake-s,589,1686281,0.0-18.0-0.0-0.86,4204,3,4
87,2,object_08,object_02,502.63999979999994,4,1,-1.0,0.0,2,object_03,1,725,0,8,7,forest_1,1,memory-2step-stake-s,590,1694803,0.0-18.0-0.0-0.87,4204,4,3
88,2,object_08,object_02,510.4,3,2,724.4199999,0.8888888888888888,1,object_09,1,733,0,8,7,forest_32,1,memory-2step-stake-s,591,1703590,0.0-18.0-0.0-0.88,4204,4,3
89,1,object_05,object_06,328.89,2,2,461.9,1.0,2,object_03,1,742,0,8,9,desert_18,1,memory-2step-stake-s,592,1712205,0.0-18.0-0.0-0.89,4204,1,2
90,1,object_06,object_05,557.7099998,2,1,553.8999999,0.8888888888888888,2,object_03,5,782,0,9,8,desert_30,1,memory-2step-stake-s,593,1720819,0.0-18.0-0.0-0.90,4204,2,1
91,4,object_07,object_10,-1.0,-1,-1,-1.0,0.0,-,,5,782,0,8,7,restaurant_14,1,memory-2step-stake-s,594,1727348,0.0-18.0-0.0-0.91,4204,8,7
92,3,object_04,object_01,616.9650001,5,2,-1.0,0.0,1,object_09,5,782,0,7,3,library_11,1,memory-2step-stake-s,595,1735880,0.0-18.0-0.0-0.92,4204,6,5
93,1,object_06,object_05,268.375,1,2,1310.025,0.7777777777777778,1,object_09,5,817,0,7,4,desert_5,1,memory-2step-stake-s,596,1745141,0.0-18.0-0.0-0.93,4204,2,1
94,1,object_05,object_06,747.0500001,1,1,1013.515,0.8888888888888888,1,object_09,1,825,0,8,3,desert_30,1,memory-2step-stake-s,597,1754224,0.0-18.0-0.0-0.94,4204,1,2
95,4,object_10,object_07,905.1050001,7,1,1211.44,0.7777777777777778,1,object_09,5,860,0,7,1,restaurant_16,1,memory-2step-stake-s,598,1763386,0.0-18.0-0.0-0.95,4204,7,8
96,3,object_01,object_04,967.6400002,6,2,1115.07,0.0,2,object_03,5,860,0,8,0,library_8,1,memory-2step-stake-s,599,1771739,0.0-18.0-0.0-0.96,4204,5,6
97,1,object_05,object_06,-1.0,-1,-1,-1.0,0.0,-,,1,860,0,8,0,desert_29,1,memory-2step-stake-s,600,1778260,0.0-18.0-0.0-0.97,4204,1,2
98,1,object_05,object_06,495.79000010000004,1,1,1023.93,0.6666666666666666,1,object_09,5,890,0,6,2,desert_2,1,memory-2step-stake-s,601,1787148,0.0-18.0-0.0-0.98,4204,1,2
99,3,object_01,object_04,590.9150001,5,1,1355.885,0.5555555555555556,1,object_09,5,915,0,5,2,library_12,1,memory-2step-stake-s,602,1796265,0.0-18.0-0.0-0.99,4204,5,6
100,3,object_01,object_04,808.3550001,6,2,1144.05,0.2222222222222222,2,object_03,5,925,0,8,2,library_12,1,memory-2step-stake-s,603,1804855,0.0-18.0-0.0-0.100,4204,5,6
101,4,object_07,object_10,160.1800001,7,2,650.6149998999999,0.6666666666666666,1,object_09,5,955,0,6,4,restaurant_32,1,memory-2step-stake-s,604,1813355,0.0-18.0-0.0-0.101,4204,8,7
102,4,object_10,object_07,781.9299998,7,1,493.93500020000005,0.5555555555555556,1,object_09,5,980,0,5,4,restaurant_23,1,memory-2step-stake-s,605,1821614,0.0-18.0-0.0-0.102,4204,7,8
103,4,object_10,object_07,1025.99,8,2,756.18,0.5555555555555556,2,object_03,5,1005,0,5,5,restaurant_15,1,memory-2step-stake-s,606,1830126,0.0-18.0-0.0-0.103,4204,7,8
104,3,object_01,object_04,484.2600001,5,1,642.915,0.7777777777777778,1,object_09,5,1040,0,7,9,library_6,1,memory-2step-stake-s,607,1838735,0.0-18.0-0.0-0.104,4204,5,6
105,3,object_01,object_04,1024.365,5,1,885.4800002000001,0.7777777777777778,1,object_09,5,1075,0,7,8,library_17,1,memory-2step-stake-s,608,1847572,0.0-18.0-0.0-0.105,4204,5,6
106,2,object_02,object_08,348.41500010000004,4,2,835.3549998999999,0.7777777777777778,2,object_03,5,1110,0,6,7,forest_13,1,memory-2step-stake-s,609,1856375,0.0-18.0-0.0-0.106,4204,3,4
107,1,object_05,object_06,607.485,2,2,756.2899999,0.8888888888888888,2,object_03,1,1118,0,2,8,desert_3,1,memory-2step-stake-s,610,1865189,0.0-18.0-0.0-0.107,4204,1,2
108,1,object_05,object_06,608.8,1,1,732.3799999,0.1111111111111111,1,object_09,1,1119,0,1,7,desert_26,1,memory-2step-stake-s,611,1873254,0.0-18.0-0.0-0.108,4204,1,2
109,1,object_06,object_05,262.0899999,2,1,969.6749998,0.6666666666666666,2,object_03,5,1149,0,4,6,desert_20,1,memory-2step-stake-s,612,1882083,0.0-18.0-0.0-0.109,4204,2,1
110,2,object_08,object_02,1147.47,4,1,714.56,0.7777777777777778,2,object_03,1,1156,0,7,7,forest_9,1,memory-2step-stake-s,613,1890757,0.0-18.0-0.0-0.110,4204,4,3
111,3,object_04,object_01,445.17,5,2,-1.0,0.0,1,object_09,5,1156,0,7,7,library_11,1,memory-2step-stake-s,614,1899279,0.0-18.0-0.0-0.111,4204,6,5
112,3,object_01,object_04,830.3099999,6,2,811.6649999,0.7777777777777778,2,object_03,1,1163,0,6,7,library_31,1,memory-2step-stake-s,615,1908038,0.0-18.0-0.0-0.112,4204,5,6
113,2,object_02,object_08,846.7850001,4,2,-1.0,0.0,2,object_03,1,1163,0,9,7,forest_30,1,memory-2step-stake-s,616,1916573,0.0-18.0-0.0-0.113,4204,3,4
114,3,object_04,object_01,424.8599999,5,2,76.6749999,0.8888888888888888,1,object_09,1,1171,0,8,6,library_8,1,memory-2step-stake-s,617,1924710,0.0-18.0-0.0-0.114,4204,6,5
115,3,object_04,object_01,112.6299999,5,2,250.065,1.0,1,object_09,5,1216,0,9,9,library_1,1,memory-2step-stake-s,618,1933113,0.0-18.0-0.0-0.115,4204,6,5
116,2,object_08,object_02,328.0699998,4,1,-1.0,0.0,2,object_03,1,1216,0,6,8,forest_4,1,memory-2step-stake-s,619,1941642,0.0-18.0-0.0-0.116,4204,4,3
117,4,object_07,object_10,219.39499980000002,7,2,642.82,0.3333333333333333,1,object_09,5,1231,0,3,3,restaurant_23,1,memory-2step-stake-s,620,1949825,0.0-18.0-0.0-0.117,4204,8,7
118,2,object_02,object_08,1370.515,4,2,1242.58,0.6666666666666666,2,object_03,1,1237,0,5,6,forest_30,1,memory-2step-stake-s,621,1958928,0.0-18.0-0.0-0.118,4204,3,4
119,2,object_02,object_08,344.5850001,4,2,-1.0,0.0,2,object_03,1,1237,0,3,6,forest_13,1,memory-2step-stake-s,622,1967451,0.0-18.0-0.0-0.119,4204,3,4
120,4,object_07,object_10,157.4649999,8,1,1118.955,0.7777777777777778,2,object_03,5,1272,0,2,7,restaurant_24,1,memory-2step-stake-s,623,1976528,0.0-18.0-0.0-0.120,4204,8,7
121,4,object_10,object_07,624.3199999,7,1,1268.39,0.4444444444444444,1,object_09,5,1292,0,4,9,restaurant_15,1,memory-2step-stake-s,624,1985450,0.0-18.0-0.0-0.121,4204,7,8
122,1,object_06,object_05,573.8949999,2,1,927.5199999,0.8888888888888888,2,object_03,1,1300,0,1,8,desert_18,1,memory-2step-stake-s,625,1994433,0.0-18.0-0.0-0.122,4204,2,1
123,3,object_01,object_04,862.255,5,1,1457.0,0.2222222222222222,1,object_09,1,1302,0,2,7,library_16,1,memory-2step-stake-s,626,2003322,0.0-18.0-0.0-0.123,4204,5,6
124,4,object_07,object_10,1454.205,8,1,-1.0,0.0,2,object_03,5,1302,0,1,5,restaurant_12,1,memory-2step-stake-s,627,2011860,0.0-18.0-0.0-0.124,4204,8,7
125,4,object_10,object_07,455.9299999,7,1,580.3750001,0.1111111111111111,1,object_09,5,1307,0,1,6,restaurant_15,1,memory-2step-stake-s,628,2019779,0.0-18.0-0.0-0.125,4204,7,8
126,1,object_06,object_05,433.70500020000003,2,1,927.925,0.8888888888888888,2,object_03,1,1315,0,0,8,desert_6,1,memory-2step-stake-s,629,2028766,0.0-18.0-0.0-0.126,4204,2,1
127,4,object_10,object_07,820.5799998,7,1,1157.055,0.2222222222222222,1,object_09,5,1325,0,2,9,restaurant_16,1,memory-2step-stake-s,630,2037370,0.0-18.0-0.0-0.127,4204,7,8
128,3,object_04,object_01,338.1800002,6,1,259.385,0.8888888888888888,2,object_03,5,1365,0,1,8,library_24,1,memory-2step-stake-s,632,2888000,0.0-18.0-0.1-0.128,4204,6,5
129,4,object_07,object_10,1431.11,8,1,5.455000093,0.8888888888888888,2,object_03,5,1405,0,1,8,restaurant_12,1,memory-2step-stake-s,633,2896075,0.0-18.0-0.1-0.129,4204,8,7
130,1,object_05,object_06,225.79000010000001,1,1,361.0350001,0.1111111111111111,1,object_09,5,1410,0,1,8,desert_13,1,memory-2step-stake-s,634,2903777,0.0-18.0-0.1-0.130,4204,1,2
131,2,object_08,object_02,291.29000010000004,3,2,508.54000010000004,0.0,1,object_09,5,1410,0,0,8,forest_18,1,memory-2step-stake-s,635,2911517,0.0-18.0-0.1-0.131,4204,4,3
132,3,object_01,object_04,306.845,5,1,473.0200002,0.1111111111111111,1,object_09,5,1415,0,1,4,library_7,1,memory-2step-stake-s,636,2919322,0.0-18.0-0.1-0.132,4204,5,6
133,2,object_08,object_02,266.33,3,2,560.1249998,0.1111111111111111,1,object_09,1,1416,0,1,1,forest_20,1,memory-2step-stake-s,637,2927205,0.0-18.0-0.1-0.133,4204,4,3
134,1,object_06,object_05,236.71000010000003,2,1,409.12,0.2222222222222222,2,object_03,1,1418,0,5,2,desert_29,1,memory-2step-stake-s,638,2935060,0.0-18.0-0.1-0.134,4204,2,1
135,4,object_07,object_10,301.08499989999996,7,2,576.04,0.5555555555555556,1,object_09,5,1443,0,5,0,restaurant_12,1,memory-2step-stake-s,639,2943386,0.0-18.0-0.1-0.135,4204,8,7
136,4,object_07,object_10,243.9700002,8,1,446.61,0.1111111111111111,2,object_03,5,1448,0,7,1,restaurant_12,1,memory-2step-stake-s,640,2951171,0.0-18.0-0.1-0.136,4204,8,7
137,4,object_07,object_10,230.925,7,2,803.115,0.5555555555555556,1,object_09,5,1473,0,5,0,restaurant_23,1,memory-2step-stake-s,641,2959723,0.0-18.0-0.1-0.137,4204,8,7
138,3,object_01,object_04,261.4750001,5,1,613.44,0.6666666666666666,1,object_09,5,1503,0,6,2,library_12,1,memory-2step-stake-s,642,2968204,0.0-18.0-0.1-0.138,4204,5,6
139,3,object_01,object_04,189.28,6,2,665.7149999,0.3333333333333333,2,object_03,5,1518,0,6,3,library_4,1,memory-2step-stake-s,643,2976414,0.0-18.0-0.1-0.139,4204,5,6
140,1,object_05,object_06,487.825,1,1,772.535,0.5555555555555556,1,object_09,5,1543,0,5,1,desert_10,1,memory-2step-stake-s,644,2984939,0.0-18.0-0.1-0.140,4204,1,2
141,1,object_05,object_06,331.18,2,2,1461.455,0.2222222222222222,2,object_03,1,1545,0,7,2,desert_29,1,memory-2step-stake-s,645,2993828,0.0-18.0-0.1-0.141,4204,1,2
142,3,object_01,object_04,310.9600001,5,1,556.445,0.8888888888888888,1,object_09,5,1585,0,8,5,library_6,1,memory-2step-stake-s,646,3002433,0.0-18.0-0.1-0.142,4204,5,6
143,2,object_02,object_08,471.965,4,2,901.3449999,0.7777777777777778,2,object_03,1,1592,0,7,7,forest_13,1,memory-2step-stake-s,647,3011291,0.0-18.0-0.1-0.143,4204,3,4
144,2,object_08,object_02,451.6950001,4,1,319.6150002,0.8888888888888888,2,object_03,1,1600,0,8,8,forest_21,1,memory-2step-stake-s,648,3019677,0.0-18.0-0.1-0.144,4204,4,3
145,1,object_05,object_06,494.50999989999997,2,2,537.0149999,0.7777777777777778,2,object_03,1,1607,0,9,7,desert_21,1,memory-2step-stake-s,649,3028176,0.0-18.0-0.1-0.145,4204,1,2
146,3,object_01,object_04,266.725,5,1,1097.73,0.6666666666666666,1,object_09,5,1637,0,6,7,library_5,1,memory-2step-stake-s,650,3037132,0.0-18.0-0.1-0.146,4204,5,6
147,4,object_07,object_10,87.44999999,7,2,588.6599999,0.5555555555555556,1,object_09,5,1662,0,5,5,restaurant_1,1,memory-2step-stake-s,651,3045468,0.0-18.0-0.1-0.147,4204,8,7
148,3,object_04,object_01,255.15000010000003,6,1,112.16499979999999,0.4444444444444444,2,object_03,5,1682,0,5,4,library_14,1,memory-2step-stake-s,652,3053215,0.0-18.0-0.1-0.148,4204,6,5
149,1,object_06,object_05,153.805,1,2,576.72,0.4444444444444444,1,object_09,1,1686,0,4,2,desert_22,1,memory-2step-stake-s,653,3061438,0.0-18.0-0.1-0.149,4204,2,1
150,2,object_08,object_02,42.90999984,4,1,511.6000001,0.2222222222222222,2,object_03,1,1688,0,7,2,forest_29,1,memory-2step-stake-s,654,3069397,0.0-18.0-0.1-0.150,4204,4,3
151,1,object_06,object_05,395.735,2,1,510.035,0.1111111111111111,2,object_03,5,1693,0,7,1,desert_9,1,memory-2step-stake-s,655,3077247,0.0-18.0-0.1-0.151,4204,2,1
152,1,object_06,object_05,547.085,1,2,578.2950001,0.8888888888888888,1,object_09,1,1701,0,8,0,desert_30,1,memory-2step-stake-s,656,3085878,0.0-18.0-0.1-0.152,4204,2,1
153,1,object_06,object_05,240.23500019999997,2,1,274.5899998,0.3333333333333333,2,object_03,1,1704,0,6,3,desert_11,1,memory-2step-stake-s,657,3093704,0.0-18.0-0.1-0.153,4204,2,1
154,2,object_02,object_08,115.5999999,4,2,452.0399999,0.4444444444444444,2,object_03,5,1724,0,7,4,forest_24,1,memory-2step-stake-s,658,3101804,0.0-18.0-0.1-0.154,4204,3,4
155,2,object_02,object_08,271.655,3,1,351.855,0.6666666666666666,1,object_09,1,1730,0,6,4,forest_25,1,memory-2step-stake-s,659,3110001,0.0-18.0-0.1-0.155,4204,3,4
156,3,object_04,object_01,389.925,6,1,1010.78,0.6666666666666666,2,object_03,5,1760,0,4,6,library_30,1,memory-2step-stake-s,660,3118863,0.0-18.0-0.1-0.156,4204,6,5
157,3,object_04,object_01,405.32499989999997,5,2,702.14,0.5555555555555556,1,object_09,1,1765,0,5,8,library_26,1,memory-2step-stake-s,661,3127322,0.0-18.0-0.1-0.157,4204,6,5
158,4,object_10,object_07,335.14499989999996,7,1,596.5100001000001,0.4444444444444444,1,object_09,5,1785,0,4,9,restaurant_20,1,memory-2step-stake-s,662,3135566,0.0-18.0-0.1-0.158,4204,7,8
159,3,object_04,object_01,307.13999989999996,5,2,414.38,0.3333333333333333,1,object_09,1,1788,0,3,4,library_5,1,memory-2step-stake-s,663,3143515,0.0-18.0-0.1-0.159,4204,6,5
160,1,object_06,object_05,466.065,2,1,1164.495,0.1111111111111111,2,object_03,1,1789,0,2,1,desert_26,1,memory-2step-stake-s,664,3152017,0.0-18.0-0.1-0.160,4204,2,1
161,1,object_06,object_05,568.3950002,1,2,659.5149999,0.1111111111111111,1,object_09,1,1790,0,1,3,desert_22,1,memory-2step-stake-s,665,3160015,0.0-18.0-0.1-0.161,4204,2,1
162,3,object_04,object_01,322.715,6,1,426.71,0.3333333333333333,2,object_03,5,1805,0,1,3,library_13,1,memory-2step-stake-s,666,3167986,0.0-18.0-0.1-0.162,4204,6,5
163,2,object_02,object_08,32.30499988,4,2,410.4299999,0.0,2,object_03,1,1805,0,2,0,forest_31,1,memory-2step-stake-s,667,3175621,0.0-18.0-0.1-0.163,4204,3,4
164,4,object_10,object_07,497.955,7,1,544.3499999,0.6666666666666666,1,object_09,1,1811,0,6,3,restaurant_24,1,memory-2step-stake-s,668,3184017,0.0-18.0-0.1-0.164,4204,7,8
165,4,object_07,object_10,391.145,7,2,291.735,0.8888888888888888,1,object_09,5,1851,0,8,3,restaurant_1,1,memory-2step-stake-s,669,3192367,0.0-18.0-0.1-0.165,4204,8,7
166,1,object_06,object_05,301.44999989999997,2,1,656.6000001,0.3333333333333333,2,object_03,1,1854,0,6,3,desert_9,1,memory-2step-stake-s,670,3200556,0.0-18.0-0.1-0.166,4204,2,1
167,4,object_07,object_10,379.4750001,7,2,674.685,0.3333333333333333,1,object_09,5,1869,0,3,3,restaurant_3,1,memory-2step-stake-s,671,3208764,0.0-18.0-0.1-0.167,4204,8,7
168,1,object_05,object_06,275.30000010000003,1,1,563.5050002,0.1111111111111111,1,object_09,5,1874,0,1,0,desert_26,1,memory-2step-stake-s,672,3216660,0.0-18.0-0.1-0.168,4204,1,2
169,3,object_04,object_01,422.575,5,2,559.6699999,0.0,1,object_09,5,1874,0,0,0,library_30,1,memory-2step-stake-s,673,3224449,0.0-18.0-0.1-0.169,4204,6,5
170,1,object_05,object_06,444.83000020000003,1,1,851.155,0.1111111111111111,1,object_09,5,1879,0,1,1,desert_32,1,memory-2step-stake-s,674,3232636,0.0-18.0-0.1-0.170,4204,1,2
171,1,object_05,object_06,374.725,2,2,468.54499979999997,0.3333333333333333,2,object_03,1,1882,0,0,3,desert_13,1,memory-2step-stake-s,675,3240639,0.0-18.0-0.1-0.171,4204,1,2
172,2,object_08,object_02,434.79000010000004,4,1,535.655,0.7777777777777778,2,object_03,1,1889,0,0,7,forest_2,1,memory-2step-stake-s,676,3249136,0.0-18.0-0.1-0.172,4204,4,3
173,1,object_05,object_06,391.415,1,1,478.11500010000003,0.1111111111111111,1,object_09,5,1894,0,1,6,desert_3,1,memory-2step-stake-s,677,3256942,0.0-18.0-0.1-0.173,4204,1,2
174,2,object_02,object_08,590.8299999,4,2,586.0300001,0.7777777777777778,2,object_03,1,1901,0,1,7,forest_32,1,memory-2step-stake-s,678,3265479,0.0-18.0-0.1-0.174,4204,3,4
175,3,object_01,object_04,40.59499991,5,1,330.6900002,0.1111111111111111,1,object_09,5,1906,0,1,8,library_14,1,memory-2step-stake-s,679,3273145,0.0-18.0-0.1-0.175,4204,5,6
176,4,object_10,object_07,344.95499989999996,8,2,542.05,1.0,2,object_03,1,1915,0,2,9,restaurant_20,1,memory-2step-stake-s,680,3281846,0.0-18.0-0.1-0.176,4204,7,8
177,2,object_02,object_08,260.1350001,3,1,519.135,0.3333333333333333,1,object_09,1,1918,0,3,8,forest_4,1,memory-2step-stake-s,681,3290319,0.0-18.0-0.1-0.177,4204,3,4
178,2,object_02,object_08,484.5,4,2,515.195,0.8888888888888888,2,object_03,1,1926,0,3,8,forest_5,1,memory-2step-stake-s,682,3298892,0.0-18.0-0.1-0.178,4204,3,4
179,1,object_06,object_05,500.215,2,1,487.5050001,0.8888888888888888,2,object_03,1,1934,0,0,8,desert_6,1,memory-2step-stake-s,683,3307432,0.0-18.0-0.1-0.179,4204,2,1
180,3,object_04,object_01,525.17,5,2,620.29,0.0,1,object_09,1,1934,0,0,8,library_26,1,memory-2step-stake-s,684,3315290,0.0-18.0-0.1-0.180,4204,6,5
181,1,object_05,object_06,555.6600001,1,1,843.3099999,0.0,1,object_09,5,1934,0,0,7,desert_26,1,memory-2step-stake-s,685,3323360,0.0-18.0-0.1-0.181,4204,1,2
182,4,object_07,object_10,617.9750001,7,2,488.43500020000005,0.0,1,object_09,5,1934,0,0,7,restaurant_15,1,memory-2step-stake-s,686,3331081,0.0-18.0-0.1-0.182,4204,8,7
183,4,object_07,object_10,596.3099999,8,1,505.35,0.6666666666666666,2,object_03,5,1964,0,2,6,restaurant_24,1,memory-2step-stake-s,687,3339440,0.0-18.0-0.1-0.183,4204,8,7
184,1,object_06,object_05,416.9049999,1,2,628.0350001,0.0,1,object_09,1,1964,0,0,4,desert_3,1,memory-2step-stake-s,688,3347298,0.0-18.0-0.1-0.184,4204,2,1
185,1,object_05,object_06,491.37999979999995,1,1,699.4400001,0.1111111111111111,1,object_09,1,1965,0,1,5,desert_11,1,memory-2step-stake-s,689,3355332,0.0-18.0-0.1-0.185,4204,1,2
186,1,object_06,object_05,430.82499989999997,1,2,441.79000010000004,0.3333333333333333,1,object_09,1,1968,0,3,8,desert_6,1,memory-2step-stake-s,690,3363320,0.0-18.0-0.1-0.186,4204,2,1
187,4,object_10,object_07,583.7649999,7,1,442.3200001,0.4444444444444444,1,object_09,5,1988,0,4,8,restaurant_11,1,memory-2step-stake-s,691,3371416,0.0-18.0-0.1-0.187,4204,7,8
188,2,object_02,object_08,333.4999999,4,2,408.7049998,0.8888888888888888,2,object_03,1,1996,0,5,8,forest_31,1,memory-2step-stake-s,692,3379888,0.0-18.0-0.1-0.188,4204,3,4
189,3,object_01,object_04,172.765,5,1,577.3799999,0.1111111111111111,1,object_09,5,2001,0,1,7,library_24,1,memory-2step-stake-s,693,3387793,0.0-18.0-0.1-0.189,4204,5,6
190,4,object_10,object_07,318.9999999,8,2,454.5200001,1.0,2,object_03,1,2010,0,1,9,restaurant_3,1,memory-2step-stake-s,694,3396421,0.0-18.0-0.1-0.190,4204,7,8
191,1,object_06,object_05,414.93,1,2,415.6149998,0.2222222222222222,1,object_09,1,2012,0,2,8,desert_13,1,memory-2step-stake-s,695,3404279,0.0-18.0-0.1-0.191,4204,2,1
192,2,object_02,object_08,348.03,3,1,-1.0,0.0,1,object_09,1,2012,0,1,8,forest_9,1,memory-2step-stake-s,696,3412808,0.0-18.0-0.1-0.192,4204,3,4
193,4,object_10,object_07,727.065,8,2,1135.645,0.6666666666666666,2,object_03,1,2018,0,1,6,restaurant_18,1,memory-2step-stake-s,697,3421799,0.0-18.0-0.1-0.193,4204,7,8
194,2,object_08,object_02,301.705,3,2,473.12,0.1111111111111111,1,object_09,1,2019,0,1,6,forest_25,1,memory-2step-stake-s,698,3429593,0.0-18.0-0.1-0.194,4204,4,3
195,4,object_10,object_07,437.3999999,7,1,476.4999999,0.2222222222222222,1,object_09,5,2029,0,2,5,restaurant_3,1,memory-2step-stake-s,699,3437498,0.0-18.0-0.1-0.195,4204,7,8
196,4,object_07,object_10,57.40500009,7,2,521.44,0.3333333333333333,1,object_09,5,2044,0,3,6,restaurant_14,1,memory-2step-stake-s,700,3445558,0.0-18.0-0.1-0.196,4204,8,7
197,3,object_04,object_01,553.7649997999999,6,1,618.76,0.6666666666666666,2,object_03,5,2074,0,3,6,library_13,1,memory-2step-stake-s,701,3454021,0.0-18.0-0.1-0.197,4204,6,5
198,4,object_07,object_10,485.5200001,7,2,614.3100001,0.6666666666666666,1,object_09,5,2104,0,6,6,restaurant_16,1,memory-2step-stake-s,702,3462482,0.0-18.0-0.1-0.198,4204,8,7
199,3,object_04,object_01,767.25,5,2,725.8200001,1.0,1,object_09,5,2149,0,9,3,library_17,1,memory-2step-stake-s,703,3471367,0.0-18.0-0.1-0.199,4204,6,5
200,1,object_06,object_05,558.65,2,1,442.9299999,0.0,2,object_03,1,2149,0,8,0,desert_20,1,memory-2step-stake-s,704,3479040,0.0-18.0-0.1-0.200,4204,2,1
201,2,object_02,object_08,454.655,4,2,550.8600001,0.2222222222222222,2,object_03,5,2159,0,3,2,forest_2,1,memory-2step-stake-s,705,3487030,0.0-18.0-0.1-0.201,4204,3,4
202,3,object_04,object_01,472.695,6,1,545.96,0.1111111111111111,2,object_03,5,2164,0,2,1,library_6,1,memory-2step-stake-s,706,3494914,0.0-18.0-0.1-0.202,4204,6,5
203,4,object_10,object_07,570.21,7,1,558.065,0.2222222222222222,1,object_09,5,2174,0,2,1,restaurant_32,1,memory-2step-stake-s,707,3502921,0.0-18.0-0.1-0.203,4204,7,8
204,4,object_10,object_07,341.39,8,2,391.82,0.1111111111111111,2,object_03,5,2179,0,4,1,restaurant_14,1,memory-2step-stake-s,708,3510657,0.0-18.0-0.1-0.204,4204,7,8
205,1,object_05,object_06,441.685,2,2,408.54,0.1111111111111111,2,object_03,1,2180,0,2,1,desert_32,1,memory-2step-stake-s,709,3518439,0.0-18.0-0.1-0.205,4204,1,2
206,1,object_05,object_06,314.03,1,1,747.9650001,0.4444444444444444,1,object_09,1,2184,0,4,1,desert_9,1,memory-2step-stake-s,710,3526834,0.0-18.0-0.1-0.206,4204,1,2
207,3,object_04,object_01,538.225,5,2,933.285,0.5555555555555556,1,object_09,5,2209,0,5,3,library_4,1,memory-2step-stake-s,711,3535507,0.0-18.0-0.1-0.207,4204,6,5
208,2,object_08,object_02,586.535,4,1,783.7199999,0.1111111111111111,2,object_03,1,2210,0,1,1,forest_18,1,memory-2step-stake-s,712,3543622,0.0-18.0-0.1-0.208,4204,4,3
209,2,object_08,object_02,1083.225,3,2,804.6850001,0.1111111111111111,1,object_09,1,2211,0,1,0,forest_2,1,memory-2step-stake-s,713,3551753,0.0-18.0-0.1-0.209,4204,4,3
210,4,object_10,object_07,509.95499989999996,7,1,538.3049999,0.0,1,object_09,1,2211,0,0,2,restaurant_6,1,memory-2step-stake-s,714,3559527,0.0-18.0-0.1-0.210,4204,7,8
211,4,object_10,object_07,483.025,8,2,1367.24,0.1111111111111111,2,object_03,5,2216,0,3,1,restaurant_18,1,memory-2step-stake-s,715,3568221,0.0-18.0-0.1-0.211,4204,7,8
212,2,object_08,object_02,369.25,3,2,843.1199999,0.2222222222222222,1,object_09,5,2226,0,2,1,forest_4,1,memory-2step-stake-s,716,3576502,0.0-18.0-0.1-0.212,4204,4,3
213,3,object_01,object_04,599.2400001,5,1,655.395,0.1111111111111111,1,object_09,5,2231,0,1,1,library_1,1,memory-2step-stake-s,717,3584486,0.0-18.0-0.1-0.213,4204,5,6
214,1,object_06,object_05,261.525,1,2,625.8149999,0.4444444444444444,1,object_09,1,2235,0,4,2,desert_20,1,memory-2step-stake-s,718,3592750,0.0-18.0-0.1-0.214,4204,2,1
215,2,object_02,object_08,750.8050001,4,2,-1.0,0.0,2,object_03,1,2235,0,2,4,forest_29,1,memory-2step-stake-s,719,3601277,0.0-18.0-0.1-0.215,4204,3,4
216,4,object_10,object_07,619.4449998,8,2,427.04,0.5555555555555556,2,object_03,1,2240,0,0,5,restaurant_14,1,memory-2step-stake-s,720,3609456,0.0-18.0-0.1-0.216,4204,7,8
217,3,object_01,object_04,461.1549999,5,1,1147.945,0.1111111111111111,1,object_09,5,2245,0,1,5,library_7,1,memory-2step-stake-s,721,3617944,0.0-18.0-0.1-0.217,4204,5,6
218,4,object_10,object_07,466.6250001,8,2,712.79,0.7777777777777778,2,object_03,5,2280,0,1,7,restaurant_1,1,memory-2step-stake-s,722,3626602,0.0-18.0-0.1-0.218,4204,7,8
219,4,object_07,object_10,903.2300001,8,1,508.0899999,0.7777777777777778,2,object_03,5,2315,0,3,7,restaurant_5,1,memory-2step-stake-s,723,3635049,0.0-18.0-0.1-0.219,4204,8,7
220,2,object_02,object_08,347.4400002,4,2,681.2099998,0.5555555555555556,2,object_03,5,2340,0,3,5,forest_25,1,memory-2step-stake-s,724,3643467,0.0-18.0-0.1-0.220,4204,3,4
221,3,object_04,object_01,546.115,6,1,-1.0,0.0,2,object_03,5,2340,0,2,2,library_7,1,memory-2step-stake-s,725,3651998,0.0-18.0-0.1-0.221,4204,6,5
222,1,object_06,object_05,564.485,1,2,571.0549999,0.4444444444444444,1,object_09,5,2360,0,4,0,desert_5,1,memory-2step-stake-s,726,3660210,0.0-18.0-0.1-0.222,4204,2,1
223,1,object_05,object_06,394.5050002,1,1,720.49,0.4444444444444444,1,object_09,1,2364,0,4,1,desert_11,1,memory-2step-stake-s,727,3669372,0.0-18.0-0.1-0.223,4204,1,2
224,4,object_10,object_07,616.565,8,2,880.105,0.4444444444444444,2,object_03,1,2368,0,7,4,restaurant_11,1,memory-2step-stake-s,728,3677900,0.0-18.0-0.1-0.224,4204,7,8
225,1,object_05,object_06,439.1400001,1,1,837.2500001,0.6666666666666666,1,object_09,1,2374,0,6,1,desert_21,1,memory-2step-stake-s,729,3686599,0.0-18.0-0.1-0.225,4204,1,2
226,1,object_05,object_06,266.8399999,2,2,431.745,0.2222222222222222,2,object_03,5,2384,0,7,2,desert_2,1,memory-2step-stake-s,730,3694459,0.0-18.0-0.1-0.226,4204,1,2
227,2,object_02,object_08,442.6899999,4,2,675.5600001,0.0,2,object_03,1,2384,0,7,0,forest_20,1,memory-2step-stake-s,731,3702363,0.0-18.0-0.1-0.227,4204,3,4
228,3,object_04,object_01,315.4799999,6,1,594.3499999,0.0,2,object_03,5,2384,0,8,0,library_26,1,memory-2step-stake-s,732,3710188,0.0-18.0-0.1-0.228,4204,6,5
229,3,object_01,object_04,241.56,6,2,470.65,0.0,2,object_03,5,2384,0,7,0,library_5,1,memory-2step-stake-s,733,3717892,0.0-18.0-0.1-0.229,4204,5,6
230,4,object_10,object_07,556.4549998,7,1,553.6400001000001,0.5555555555555556,1,object_09,5,2409,0,5,1,restaurant_7,1,memory-2step-stake-s,734,3726201,0.0-18.0-0.1-0.230,4204,7,8
231,4,object_07,object_10,1222.275,7,2,703.2349998999999,0.8888888888888888,1,object_09,5,2449,0,8,2,restaurant_1,1,memory-2step-stake-s,735,3734956,0.0-18.0-0.1-0.231,4204,8,7
232,2,object_02,object_08,479.15,3,1,562.6700001,1.0,1,object_09,1,2458,0,9,4,forest_21,1,memory-2step-stake-s,736,3743684,0.0-18.0-0.1-0.232,4204,3,4
233,3,object_01,object_04,533.8650001,6,2,590.94,0.7777777777777778,2,object_03,5,2493,0,5,7,library_5,1,memory-2step-stake-s,737,3752238,0.0-18.0-0.1-0.233,4204,5,6
234,3,object_04,object_01,461.905,6,1,451.2449999,0.4444444444444444,2,object_03,5,2513,0,3,4,library_4,1,memory-2step-stake-s,738,3760332,0.0-18.0-0.1-0.234,4204,6,5
235,2,object_02,object_08,364.365,4,2,288.7200001,0.6666666666666666,2,object_03,1,2519,0,1,6,forest_9,1,memory-2step-stake-s,739,3768464,0.0-18.0-0.1-0.235,4204,3,4
236,3,object_04,object_01,348.8599998,6,1,712.7749999,0.6666666666666666,2,object_03,5,2549,0,3,6,library_16,1,memory-2step-stake-s,740,3777029,0.0-18.0-0.1-0.236,4204,6,5
237,2,object_02,object_08,475.2249999,4,2,284.885,0.6666666666666666,2,object_03,5,2579,0,2,6,forest_2,1,memory-2step-stake-s,741,3785155,0.0-18.0-0.1-0.237,4204,3,4
238,2,object_02,object_08,473.9950001,3,1,589.225,0.1111111111111111,1,object_09,1,2580,0,1,5,forest_30,1,memory-2step-stake-s,742,3793075,0.0-18.0-0.1-0.238,4204,3,4
239,1,object_05,object_06,540.52,2,2,635.525,0.7777777777777778,2,object_03,1,2587,0,1,7,desert_5,1,memory-2step-stake-s,743,3801658,0.0-18.0-0.1-0.239,4204,1,2
240,3,object_01,object_04,726.0350001,6,2,682.45,0.6666666666666666,2,object_03,5,2617,0,2,6,library_14,1,memory-2step-stake-s,744,3810190,0.0-18.0-0.1-0.240,4204,5,6
241,4,object_10,object_07,522.2799999,7,1,600.0049999,0.0,1,object_09,5,2617,0,0,9,restaurant_6,1,memory-2step-stake-s,745,3818010,0.0-18.0-0.1-0.241,4204,7,8
242,1,object_05,object_06,532.5849999,2,2,623.8550001,0.7777777777777778,2,object_03,1,2624,0,1,7,desert_32,1,memory-2step-stake-s,746,3826585,0.0-18.0-0.1-0.242,4204,1,2
243,2,object_02,object_08,664.5599999,3,1,898.97,0.3333333333333333,1,object_09,1,2627,0,3,7,forest_31,1,memory-2step-stake-s,747,3835021,0.0-18.0-0.1-0.243,4204,3,4
244,2,object_02,object_08,658.18,4,2,864.9249999,0.4444444444444444,2,object_03,5,2647,0,2,4,forest_32,1,memory-2step-stake-s,748,3843523,0.0-18.0-0.1-0.244,4204,3,4
245,4,object_10,object_07,317.4749999,8,2,619.6000001,0.4444444444444444,2,object_03,1,2651,0,3,4,restaurant_25,1,memory-2step-stake-s,749,3851784,0.0-18.0-0.1-0.245,4204,7,8
246,3,object_01,object_04,499.875,5,1,681.6099998999999,0.3333333333333333,1,object_09,5,2666,0,3,6,library_11,1,memory-2step-stake-s,750,3860009,0.0-18.0-0.1-0.246,4204,5,6
247,4,object_10,object_07,389.6300001,8,2,666.19,0.6666666666666666,2,object_03,5,2696,0,4,6,restaurant_32,1,memory-2step-stake-s,751,3868885,0.0-18.0-0.1-0.247,4204,7,8
248,4,object_10,object_07,520.8949997999999,7,1,701.595,0.4444444444444444,1,object_09,5,2716,0,4,5,restaurant_5,1,memory-2step-stake-s,752,3877228,0.0-18.0-0.1-0.248,4204,7,8
249,1,object_06,object_05,506.24499979999996,1,2,546.78,0.1111111111111111,1,object_09,1,2717,0,1,4,desert_3,1,memory-2step-stake-s,753,3885114,0.0-18.0-0.1-0.249,4204,2,1
250,2,object_02,object_08,607.0600001,3,1,740.9450002,0.0,1,object_09,1,2717,0,0,5,forest_27,1,memory-2step-stake-s,754,3893079,0.0-18.0-0.1-0.250,4204,3,4
251,4,object_10,object_07,413.195,8,2,1200.235,0.6666666666666666,2,object_03,5,2747,0,2,6,restaurant_6,1,memory-2step-stake-s,755,3902126,0.0-18.0-0.1-0.251,4204,7,8
252,3,object_01,object_04,513.6450001000001,5,1,-1.0,0.0,1,object_09,5,2747,0,2,4,library_31,1,memory-2step-stake-s,756,3910654,0.0-18.0-0.1-0.252,4204,5,6
253,2,object_08,object_02,230.67999980000002,3,2,735.655,0.4444444444444444,1,object_09,1,2751,0,4,4,forest_21,1,memory-2step-stake-s,757,3919030,0.0-18.0-0.1-0.253,4204,4,3
254,4,object_10,object_07,404.94,7,1,484.23000010000004,0.4444444444444444,1,object_09,1,2755,0,4,5,restaurant_18,1,memory-2step-stake-s,758,3927168,0.0-18.0-0.1-0.254,4204,7,8
255,3,object_04,object_01,270.13499989999997,5,2,966.2550001,0.6666666666666666,1,object_09,5,2785,0,6,0,library_13,1,memory-2step-stake-s,759,3935975,0.0-18.0-0.1-0.255,4204,6,5
