,state1,stim_left,stim_right,rt_1,choice1,response1,rt_2,points,state2,stim_state2,stake,score,practice,rews1,rews2,background,high_arm,trial_type,trial_index,time_elapsed,internal_node_id,subid,stim_left_num,stim_right_num
0,1,object_04,object_05,1003.825,1,2,-1.0,0.0,1,object_03,1,0,0,1,1,desert_19,1,memory-2step-stake-s,497,1411375,0.0-18.0-0.0-0.0,4043,2,1
1,1,object_04,object_05,894.985,2,1,1200.11,0.0,2,object_07,1,0,0,0,0,desert_3,1,memory-2step-stake-s,498,1419852,0.0-18.0-0.0-0.1,4043,2,1
2,4,object_10,object_08,-1.0,-1,-1,-1.0,0.0,-,,5,0,0,2,0,restaurant_17,1,memory-2step-stake-s,499,1426410,0.0-18.0-0.0-0.2,4043,8,7
3,3,object_09,object_01,840.175,6,1,581.26,0.3333333333333333,2,object_07,5,15,0,3,3,library_30,1,memory-2step-stake-s,500,1434566,0.0-18.0-0.0-0.3,4043,6,5
4,3,object_09,object_01,632.83,5,2,617.175,0.3333333333333333,1,object_03,5,30,0,3,1,library_26,1,memory-2step-stake-s,501,1442752,0.0-18.0-0.0-0.4,4043,6,5
5,2,object_06,object_02,899.605,4,1,951.595,0.3333333333333333,2,object_07,5,45,0,2,3,forest_23,1,memory-2step-stake-s,502,1451274,0.0-18.0-0.0-0.5,4043,4,3
6,2,object_02,object_06,1075.38,4,2,475.155,0.1111111111111111,2,object_07,1,46,0,1,1,forest_14,1,memory-2step-stake-s,503,1459102,0.0-18.0-0.0-0.6,4043,3,4
7,2,object_02,object_06,734.01,3,1,551.835,0.2222222222222222,1,object_03,1,48,0,2,2,forest_24,1,memory-2step-stake-s,504,1467126,0.0-18.0-0.0-0.7,4043,3,4
8,2,object_02,object_06,670.12,4,2,581.7,0.2222222222222222,2,object_07,1,50,0,0,2,forest_8,1,memory-2step-stake-s,505,1475189,0.0-18.0-0.0-0.8,4043,3,4
9,3,object_01,object_09,821.0,5,1,791.085,0.2222222222222222,1,object_03,5,60,0,2,2,library_9,1,memory-2step-stake-s,506,1483450,0.0-18.0-0.0-0.9,4043,5,6
10,3,object_01,object_09,570.315,6,2,589.72,0.1111111111111111,2,object_07,5,65,0,0,1,library_9,1,memory-2step-stake-s,507,1491387,0.0-18.0-0.0-0.10,4043,5,6
11,3,object_09,object_01,373.065,6,1,649.0649999,0.2222222222222222,2,object_07,1,67,0,0,2,library_32,1,memory-2step-stake-s,508,1499526,0.0-18.0-0.0-0.11,4043,6,5
12,2,object_02,object_06,876.105,3,1,363.20499989999996,0.1111111111111111,1,object_03,5,72,0,1,1,forest_8,1,memory-2step-stake-s,509,1507238,0.0-18.0-0.0-0.12,4043,3,4
13,2,object_06,object_02,633.255,3,2,461.405,0.4444444444444444,1,object_03,1,76,0,4,2,forest_20,1,memory-2step-stake-s,510,1515405,0.0-18.0-0.0-0.13,4043,4,3
14,1,object_04,object_05,407.88,1,2,421.955,0.2222222222222222,1,object_03,1,78,0,2,2,desert_10,1,memory-2step-stake-s,511,1523312,0.0-18.0-0.0-0.14,4043,2,1
15,1,object_04,object_05,857.925,2,1,956.85,0.4444444444444444,2,object_07,1,82,0,1,4,desert_3,1,memory-2step-stake-s,512,1531986,0.0-18.0-0.0-0.15,4043,2,1
16,1,object_05,object_04,526.425,2,2,562.245,0.6666666666666666,2,object_07,1,88,0,1,6,desert_27,1,memory-2step-stake-s,513,1540458,0.0-18.0-0.0-0.16,4043,1,2
17,4,object_08,object_10,257.07,7,1,469.71,0.2222222222222222,1,object_03,1,90,0,2,6,restaurant_13,1,memory-2step-stake-s,514,1548421,0.0-18.0-0.0-0.17,4043,7,8
18,1,object_04,object_05,847.57,1,2,620.45,0.1111111111111111,1,object_03,5,95,0,1,4,desert_8,1,memory-2step-stake-s,515,1556448,0.0-18.0-0.0-0.18,4043,2,1
19,3,object_01,object_09,829.15,6,2,1019.55,0.4444444444444444,2,object_07,5,115,0,0,4,library_7,1,memory-2step-stake-s,516,1565194,0.0-18.0-0.0-0.19,4043,5,6
20,1,object_05,object_04,471.69,1,1,675.105,0.5555555555555556,1,object_03,1,120,0,5,4,desert_27,1,memory-2step-stake-s,517,1573679,0.0-18.0-0.0-0.20,4043,1,2
21,3,object_01,object_09,346.005,6,2,476.99,0.7777777777777778,2,object_07,5,155,0,7,7,library_27,1,memory-2step-stake-s,518,1582216,0.0-18.0-0.0-0.21,4043,5,6
22,1,object_04,object_05,1139.625,1,2,1265.505,0.5555555555555556,1,object_03,1,160,0,5,7,desert_14,1,memory-2step-stake-s,519,1591300,0.0-18.0-0.0-0.22,4043,2,1
23,2,object_06,object_02,753.165,3,2,569.26,0.5555555555555556,1,object_03,1,165,0,5,7,forest_10,1,memory-2step-stake-s,520,1599680,0.0-18.0-0.0-0.23,4043,4,3
24,4,object_08,object_10,-1.0,-1,-1,-1.0,0.0,-,,5,165,0,5,8,restaurant_9,1,memory-2step-stake-s,521,1606207,0.0-18.0-0.0-0.24,4043,7,8
25,4,object_10,object_08,790.08,8,1,626.445,0.7777777777777778,2,object_07,5,200,0,3,7,restaurant_30,1,memory-2step-stake-s,522,1614873,0.0-18.0-0.0-0.25,4043,8,7
26,2,object_02,object_06,296.8,3,1,885.22,0.4444444444444444,1,object_03,1,204,0,4,5,forest_20,1,memory-2step-stake-s,523,1623465,0.0-18.0-0.0-0.26,4043,3,4
27,3,object_01,object_09,517.91,6,2,668.795,0.1111111111111111,2,object_07,5,209,0,1,1,library_2,1,memory-2step-stake-s,524,1631535,0.0-18.0-0.0-0.27,4043,5,6
28,2,object_02,object_06,977.65,3,1,559.655,0.0,1,object_03,5,209,0,0,1,forest_14,1,memory-2step-stake-s,525,1639363,0.0-18.0-0.0-0.28,4043,3,4
29,1,object_05,object_04,391.48,2,2,517.77,0.1111111111111111,2,object_07,1,210,0,1,1,desert_22,1,memory-2step-stake-s,526,1647270,0.0-18.0-0.0-0.29,4043,1,2
30,3,object_01,object_09,335.97,5,1,831.485,0.1111111111111111,1,object_03,5,215,0,1,0,library_30,1,memory-2step-stake-s,527,1655484,0.0-18.0-0.0-0.30,4043,5,6
31,1,object_04,object_05,900.03,2,1,798.865,0.3333333333333333,2,object_07,1,218,0,3,3,desert_5,1,memory-2step-stake-s,528,1663871,0.0-18.0-0.0-0.31,4043,2,1
32,2,object_02,object_06,370.86,4,2,506.01,0.1111111111111111,2,object_07,1,219,0,6,1,forest_8,1,memory-2step-stake-s,529,1671788,0.0-18.0-0.0-0.32,4043,3,4
33,3,object_01,object_09,967.65,5,1,737.81,0.6666666666666666,1,object_03,5,249,0,6,2,library_26,1,memory-2step-stake-s,530,1680430,0.0-18.0-0.0-0.33,4043,5,6
34,3,object_09,object_01,1096.925,5,2,839.105,0.6666666666666666,1,object_03,1,255,0,6,2,library_23,1,memory-2step-stake-s,531,1689179,0.0-18.0-0.0-0.34,4043,6,5
35,2,object_06,object_02,354.085,3,2,470.735,0.8888888888888888,1,object_03,5,295,0,8,0,forest_5,1,memory-2step-stake-s,532,1697788,0.0-18.0-0.0-0.35,4043,4,3
36,3,object_09,object_01,963.06,6,1,833.56,0.3333333333333333,2,object_07,5,310,0,6,3,library_32,1,memory-2step-stake-s,533,1706219,0.0-18.0-0.0-0.36,4043,6,5
37,2,object_02,object_06,509.775,3,1,611.27,0.2222222222222222,1,object_03,1,312,0,2,3,forest_30,1,memory-2step-stake-s,534,1714320,0.0-18.0-0.0-0.37,4043,3,4
38,3,object_09,object_01,602.405,5,2,592.75,0.4444444444444444,1,object_03,5,332,0,4,3,library_13,1,memory-2step-stake-s,535,1722586,0.0-18.0-0.0-0.38,4043,6,5
39,2,object_02,object_06,610.68,4,2,492.745,0.3333333333333333,2,object_07,1,335,0,7,3,forest_1,1,memory-2step-stake-s,536,1730640,0.0-18.0-0.0-0.39,4043,3,4
40,3,object_09,object_01,1497.79,6,1,-1.0,0.0,2,object_07,5,335,0,8,5,library_9,1,memory-2step-stake-s,537,1739194,0.0-18.0-0.0-0.40,4043,6,5
41,2,object_06,object_02,1186.49,3,2,617.49,0.5555555555555556,1,object_03,1,340,0,5,6,forest_21,1,memory-2step-stake-s,538,1747612,0.0-18.0-0.0-0.41,4043,4,3
42,3,object_01,object_09,1253.65,5,1,771.6949999,0.6666666666666666,1,object_03,5,370,0,6,4,library_2,1,memory-2step-stake-s,539,1756303,0.0-18.0-0.0-0.42,4043,5,6
43,1,object_04,object_05,405.71,2,1,967.11,0.4444444444444444,2,object_07,1,374,0,8,4,desert_3,1,memory-2step-stake-s,540,1764970,0.0-18.0-0.0-0.43,4043,2,1
44,2,object_06,object_02,657.195,3,2,755.385,0.6666666666666666,1,object_03,1,380,0,6,2,forest_1,1,memory-2step-stake-s,541,1773684,0.0-18.0-0.0-0.44,4043,4,3
45,1,object_05,object_04,557.435,2,2,660.035,0.4444444444444444,2,object_07,5,400,0,4,4,desert_21,1,memory-2step-stake-s,542,1782008,0.0-18.0-0.0-0.45,4043,1,2
46,1,object_05,object_04,800.865,1,1,-1.0,0.0,1,object_03,1,400,0,4,1,desert_32,1,memory-2step-stake-s,543,1790566,0.0-18.0-0.0-0.46,4043,1,2
47,4,object_10,object_08,728.62,8,1,528.525,0.4444444444444444,2,object_07,5,420,0,3,4,restaurant_30,1,memory-2step-stake-s,544,1798799,0.0-18.0-0.0-0.47,4043,8,7
48,3,object_09,object_01,679.69,5,2,685.57,0.2222222222222222,1,object_03,5,430,0,2,4,library_13,1,memory-2step-stake-s,545,1806948,0.0-18.0-0.0-0.48,4043,6,5
49,1,object_04,object_05,1033.205,2,1,422.9,0.3333333333333333,2,object_07,1,433,0,0,3,desert_6,1,memory-2step-stake-s,546,1814984,0.0-18.0-0.0-0.49,4043,2,1
50,4,object_08,object_10,698.995,7,1,607.765,0.1111111111111111,1,object_03,5,438,0,1,1,restaurant_18,1,memory-2step-stake-s,547,1822955,0.0-18.0-0.0-0.50,4043,7,8
51,4,object_08,object_10,914.43,8,2,726.38,0.1111111111111111,2,object_07,5,443,0,4,1,restaurant_32,1,memory-2step-stake-s,548,1831048,0.0-18.0-0.0-0.51,4043,7,8
52,3,object_09,object_01,477.16,6,1,309.505,0.0,2,object_07,5,443,0,5,0,library_4,1,memory-2step-stake-s,549,1838614,0.0-18.0-0.0-0.52,4043,6,5
53,1,object_04,object_05,431.05,1,2,330.59,0.7777777777777778,1,object_03,5,478,0,7,2,desert_21,1,memory-2step-stake-s,550,1847032,0.0-18.0-0.0-0.53,4043,2,1
54,4,object_08,object_10,697.135,8,2,799.895,0.3333333333333333,2,object_07,1,481,0,5,3,restaurant_12,1,memory-2step-stake-s,551,1855436,0.0-18.0-0.0-0.54,4043,7,8
55,1,object_05,object_04,513.015,1,1,355.875,0.2222222222222222,1,object_03,1,483,0,2,1,desert_19,1,memory-2step-stake-s,552,1863307,0.0-18.0-0.0-0.55,4043,1,2
56,4,object_08,object_10,558.605,8,2,525.535,0.2222222222222222,2,object_07,5,493,0,4,2,restaurant_18,1,memory-2step-stake-s,553,1871286,0.0-18.0-0.0-0.56,4043,7,8
57,4,object_10,object_08,1054.42,7,2,462.925,0.5555555555555556,1,object_03,5,518,0,5,1,restaurant_12,1,memory-2step-stake-s,554,1879555,0.0-18.0-0.0-0.57,4043,8,7
58,4,object_10,object_08,713.35,8,1,339.13,0.1111111111111111,2,object_07,5,523,0,4,1,restaurant_13,1,memory-2step-stake-s,555,1887246,0.0-18.0-0.0-0.58,4043,8,7
59,2,object_06,object_02,826.845,3,2,499.74,0.5555555555555556,1,object_03,5,548,0,5,2,forest_10,1,memory-2step-stake-s,556,1895554,0.0-18.0-0.0-0.59,4043,4,3
60,2,object_02,object_06,463.845,3,1,306.685,0.5555555555555556,1,object_03,1,553,0,5,3,forest_14,1,memory-2step-stake-s,557,1903675,0.0-18.0-0.0-0.60,4043,3,4
61,1,object_04,object_05,411.45,1,2,327.745,0.5555555555555556,1,object_03,1,558,0,5,2,desert_2,1,memory-2step-stake-s,558,1911818,0.0-18.0-0.0-0.61,4043,2,1
62,4,object_08,object_10,499.835,8,2,318.71,0.3333333333333333,2,object_07,5,573,0,1,3,restaurant_19,1,memory-2step-stake-s,559,1919759,0.0-18.0-0.0-0.62,4043,7,8
63,1,object_05,object_04,437.56,1,1,325.69,0.1111111111111111,1,object_03,1,574,0,1,3,desert_22,1,memory-2step-stake-s,560,1927460,0.0-18.0-0.0-0.63,4043,1,2
64,4,object_08,object_10,733.99,8,2,494.915,0.3333333333333333,2,object_07,5,589,0,2,3,restaurant_31,1,memory-2step-stake-s,561,1935563,0.0-18.0-0.0-0.64,4043,7,8
65,3,object_09,object_01,1309.805,5,2,536.7,0.5555555555555556,1,object_03,5,614,0,5,4,library_20,1,memory-2step-stake-s,562,1943909,0.0-18.0-0.0-0.65,4043,6,5
66,3,object_01,object_09,476.4,5,1,245.285,0.8888888888888888,1,object_03,5,654,0,8,6,library_10,1,memory-2step-stake-s,563,1952304,0.0-18.0-0.0-0.66,4043,5,6
67,2,object_02,object_06,540.85,3,1,298.355,1.0,1,object_03,1,663,0,9,6,forest_12,1,memory-2step-stake-s,564,1960880,0.0-18.0-0.0-0.67,4043,3,4
68,3,object_09,object_01,638.905,5,2,320.555,0.6666666666666666,1,object_03,5,693,0,6,7,library_22,1,memory-2step-stake-s,565,1969135,0.0-18.0-0.0-0.68,4043,6,5
69,3,object_01,object_09,352.245,5,1,290.85,0.8888888888888888,1,object_03,5,733,0,8,4,library_7,1,memory-2step-stake-s,566,1977529,0.0-18.0-0.0-0.69,4043,5,6
70,2,object_06,object_02,402.145,3,2,302.595,0.8888888888888888,1,object_03,1,741,0,8,5,forest_6,1,memory-2step-stake-s,567,1985992,0.0-18.0-0.0-0.70,4043,4,3
71,3,object_09,object_01,362.305,5,2,307.81,1.0,1,object_03,5,786,0,9,8,library_12,1,memory-2step-stake-s,568,1994556,0.0-18.0-0.0-0.71,4043,6,5
72,4,object_10,object_08,391.56,8,1,245.495,1.0,2,object_07,5,831,0,6,9,restaurant_14,1,memory-2step-stake-s,569,2003060,0.0-18.0-0.0-0.72,4043,8,7
73,2,object_02,object_06,496.555,3,1,252.55,1.0,1,object_03,5,876,0,9,8,forest_19,1,memory-2step-stake-s,570,2011587,0.0-18.0-0.0-0.73,4043,3,4
74,4,object_10,object_08,359.585,8,1,298.575,0.7777777777777778,2,object_07,5,911,0,7,7,restaurant_18,1,memory-2step-stake-s,571,2019918,0.0-18.0-0.0-0.74,4043,8,7
75,4,object_10,object_08,371.965,8,1,261.085,0.6666666666666666,2,object_07,5,941,0,7,6,restaurant_31,1,memory-2step-stake-s,572,2028121,0.0-18.0-0.0-0.75,4043,8,7
76,3,object_09,object_01,364.295,5,2,694.995,0.8888888888888888,1,object_03,5,981,0,8,6,library_28,1,memory-2step-stake-s,573,2036934,0.0-18.0-0.0-0.76,4043,6,5
77,1,object_04,object_05,366.415,1,2,301.395,0.7777777777777778,1,object_03,1,988,0,7,6,desert_9,1,memory-2step-stake-s,574,2045269,0.0-18.0-0.0-0.77,4043,2,1
78,3,object_01,object_09,395.49,5,1,281.12,0.7777777777777778,1,object_03,5,1023,0,7,8,library_4,1,memory-2step-stake-s,575,2053645,0.0-18.0-0.0-0.78,4043,5,6
79,1,object_05,object_04,392.115,2,2,251.12,0.7777777777777778,2,object_07,1,1030,0,8,7,desert_17,1,memory-2step-stake-s,576,2061911,0.0-18.0-0.0-0.79,4043,1,2
80,4,object_08,object_10,468.005,7,1,273.58,0.6666666666666666,1,object_03,5,1060,0,6,5,restaurant_21,1,memory-2step-stake-s,577,2070122,0.0-18.0-0.0-0.80,4043,7,8
81,3,object_01,object_09,827.19,5,1,329.985,0.5555555555555556,1,object_03,5,1085,0,5,4,library_28,1,memory-2step-stake-s,578,2078310,0.0-18.0-0.0-0.81,4043,5,6
82,1,object_05,object_04,632.035,2,2,228.53499989999997,0.6666666666666666,2,object_07,1,1091,0,7,6,desert_6,1,memory-2step-stake-s,579,2086465,0.0-18.0-0.0-0.82,4043,1,2
83,4,object_08,object_10,448.675,8,2,250.01,0.4444444444444444,2,object_07,5,1111,0,5,4,restaurant_21,1,memory-2step-stake-s,580,2094426,0.0-18.0-0.0-0.83,4043,7,8
84,3,object_09,object_01,375.53,5,2,289.285,0.7777777777777778,1,object_03,5,1146,0,7,5,library_32,1,memory-2step-stake-s,581,2102715,0.0-18.0-0.0-0.84,4043,6,5
85,2,object_02,object_06,437.35,3,1,324.06,0.8888888888888888,1,object_03,1,1154,0,8,5,forest_21,1,memory-2step-stake-s,582,2111184,0.0-18.0-0.0-0.85,4043,3,4
86,3,object_01,object_09,865.375,5,1,482.52,1.0,1,object_03,5,1199,0,9,4,library_21,1,memory-2step-stake-s,583,2119870,0.0-18.0-0.0-0.86,4043,5,6
87,1,object_04,object_05,581.27,1,2,372.57,0.5555555555555556,1,object_03,5,1224,0,5,3,desert_5,1,memory-2step-stake-s,584,2128046,0.0-18.0-0.0-0.87,4043,2,1
88,2,object_02,object_06,377.36,3,1,263.09,0.3333333333333333,1,object_03,5,1239,0,3,3,forest_1,1,memory-2step-stake-s,585,2135943,0.0-18.0-0.0-0.88,4043,3,4
89,1,object_05,object_04,375.89,1,1,254.825,0.6666666666666666,1,object_03,1,1245,0,6,1,desert_9,1,memory-2step-stake-s,586,2144122,0.0-18.0-0.0-0.89,4043,1,2
90,3,object_09,object_01,755.83,5,2,375.99,0.6666666666666666,1,object_03,5,1275,0,6,4,library_4,1,memory-2step-stake-s,587,2152398,0.0-18.0-0.0-0.90,4043,6,5
91,1,object_05,object_04,353.29,1,1,282.525,0.3333333333333333,1,object_03,1,1278,0,3,5,desert_5,1,memory-2step-stake-s,588,2160262,0.0-18.0-0.0-0.91,4043,1,2
92,1,object_05,object_04,413.085,1,1,329.91,0.0,1,object_03,1,1278,0,0,3,desert_23,1,memory-2step-stake-s,589,2167866,0.0-18.0-0.0-0.92,4043,1,2
93,2,object_02,object_06,306.29,4,2,349.795,0.6666666666666666,2,object_07,1,1284,0,0,6,forest_19,1,memory-2step-stake-s,590,2176130,0.0-18.0-0.0-0.93,4043,3,4
94,2,object_06,object_02,340.11,3,2,296.605,0.1111111111111111,1,object_03,1,1285,0,1,6,forest_10,1,memory-2step-stake-s,591,2183809,0.0-18.0-0.0-0.94,4043,4,3
95,4,object_10,object_08,531.535,8,1,352.76,0.6666666666666666,2,object_07,5,1315,0,0,6,restaurant_7,1,memory-2step-stake-s,592,2192073,0.0-18.0-0.0-0.95,4043,8,7
96,3,object_01,object_09,416.915,5,1,265.035,0.0,1,object_03,1,1315,0,0,5,library_13,1,memory-2step-stake-s,593,2199600,0.0-18.0-0.0-0.96,4043,5,6
97,4,object_10,object_08,427.39,8,1,295.275,0.1111111111111111,2,object_07,1,1316,0,0,1,restaurant_29,1,memory-2step-stake-s,594,2207278,0.0-18.0-0.0-0.97,4043,8,7
98,4,object_08,object_10,436.8,7,1,371.155,0.3333333333333333,1,object_03,5,1331,0,3,0,restaurant_7,1,memory-2step-stake-s,595,2215267,0.0-18.0-0.0-0.98,4043,7,8
99,2,object_02,object_06,434.4049999,3,1,326.16,0.2222222222222222,1,object_03,1,1333,0,2,1,forest_12,1,memory-2step-stake-s,596,2223067,0.0-18.0-0.0-0.99,4043,3,4
100,3,object_09,object_01,346.49,5,2,258.535,0.1111111111111111,1,object_03,1,1334,0,1,3,library_2,1,memory-2step-stake-s,597,2230707,0.0-18.0-0.0-0.100,4043,6,5
101,1,object_05,object_04,369.15,2,2,322.955,0.1111111111111111,2,object_07,1,1335,0,2,1,desert_3,1,memory-2step-stake-s,598,2238426,0.0-18.0-0.0-0.101,4043,1,2
102,4,object_08,object_10,400.48,8,2,334.765,0.2222222222222222,2,object_07,5,1345,0,1,2,restaurant_11,1,memory-2step-stake-s,599,2246253,0.0-18.0-0.0-0.102,4043,7,8
103,3,object_09,object_01,457.345,5,2,246.555,0.2222222222222222,1,object_03,1,1347,0,2,1,library_2,1,memory-2step-stake-s,600,2253957,0.0-18.0-0.0-0.103,4043,6,5
104,4,object_10,object_08,361.5999999,7,2,321.75,0.0,1,object_03,5,1347,0,0,1,restaurant_29,1,memory-2step-stake-s,601,2261543,0.0-18.0-0.0-0.104,4043,8,7
105,4,object_08,object_10,437.265,7,1,297.205,0.3333333333333333,1,object_03,5,1362,0,3,3,restaurant_12,1,memory-2step-stake-s,602,2269442,0.0-18.0-0.0-0.105,4043,7,8
106,4,object_10,object_08,589.535,8,1,345.92,0.3333333333333333,2,object_07,5,1377,0,3,3,restaurant_32,1,memory-2step-stake-s,603,2277384,0.0-18.0-0.0-0.106,4043,8,7
107,4,object_10,object_08,479.535,8,1,344.9,0.6666666666666666,2,object_07,1,1383,0,3,6,restaurant_7,1,memory-2step-stake-s,604,2285673,0.0-18.0-0.0-0.107,4043,8,7
108,3,object_01,object_09,658.475,5,1,443.56,0.0,1,object_03,1,1383,0,0,8,library_28,1,memory-2step-stake-s,605,2293392,0.0-18.0-0.0-0.108,4043,5,6
109,4,object_08,object_10,447.94,8,2,607.435,0.7777777777777778,2,object_07,1,1390,0,1,7,restaurant_11,1,memory-2step-stake-s,606,2302047,0.0-18.0-0.0-0.109,4043,7,8
110,1,object_05,object_04,378.775,1,1,254.21,0.1111111111111111,1,object_03,1,1391,0,1,4,desert_10,1,memory-2step-stake-s,607,2309699,0.0-18.0-0.0-0.110,4043,1,2
111,4,object_10,object_08,408.695,8,1,276.73,0.3333333333333333,2,object_07,5,1406,0,0,3,restaurant_7,1,memory-2step-stake-s,608,2317616,0.0-18.0-0.0-0.111,4043,8,7
112,4,object_10,object_08,428.15,8,1,276.815,0.8888888888888888,2,object_07,5,1446,0,0,8,restaurant_32,1,memory-2step-stake-s,609,2326057,0.0-18.0-0.0-0.112,4043,8,7
113,1,object_04,object_05,430.745,1,2,365.13,0.1111111111111111,1,object_03,1,1447,0,1,9,desert_22,1,memory-2step-stake-s,610,2333818,0.0-18.0-0.0-0.113,4043,2,1
114,1,object_04,object_05,370.515,1,2,269.47,0.2222222222222222,1,object_03,5,1457,0,2,7,desert_2,1,memory-2step-stake-s,611,2341595,0.0-18.0-0.0-0.114,4043,2,1
115,2,object_06,object_02,274.49,4,1,253.035,0.7777777777777778,2,object_07,1,1464,0,0,7,forest_19,1,memory-2step-stake-s,612,2349901,0.0-18.0-0.0-0.115,4043,4,3
116,1,object_04,object_05,609.9,1,2,323.395,0.2222222222222222,1,object_03,1,1466,0,2,6,desert_14,1,memory-2step-stake-s,613,2357741,0.0-18.0-0.0-0.116,4043,2,1
117,2,object_06,object_02,404.295,3,2,263.925,0.0,1,object_03,1,1466,0,0,8,forest_6,1,memory-2step-stake-s,614,2365273,0.0-18.0-0.0-0.117,4043,4,3
118,4,object_10,object_08,751.83,8,1,382.395,0.7777777777777778,2,object_07,5,1501,0,0,7,restaurant_16,1,memory-2step-stake-s,615,2373699,0.0-18.0-0.0-0.118,4043,8,7
119,3,object_09,object_01,527.855,5,2,609.315,0.2222222222222222,1,object_03,5,1511,0,2,5,library_20,1,memory-2step-stake-s,616,2381806,0.0-18.0-0.0-0.119,4043,6,5
120,2,object_06,object_02,588.115,4,1,509.775,0.7777777777777778,2,object_07,1,1518,0,3,7,forest_12,1,memory-2step-stake-s,617,2390378,0.0-18.0-0.0-0.120,4043,4,3
121,4,object_08,object_10,507.795,8,2,471.61,0.8888888888888888,2,object_07,5,1558,0,4,8,restaurant_27,1,memory-2step-stake-s,618,2398998,0.0-18.0-0.0-0.121,4043,7,8
122,3,object_01,object_09,845.53,5,1,638.305,0.5555555555555556,1,object_03,5,1583,0,5,8,library_12,1,memory-2step-stake-s,619,2407437,0.0-18.0-0.0-0.122,4043,5,6
123,1,object_05,object_04,560.06,1,1,593.16,0.4444444444444444,1,object_03,5,1603,0,4,7,desert_23,1,memory-2step-stake-s,620,2415732,0.0-18.0-0.0-0.123,4043,1,2
124,3,object_01,object_09,1099.38,5,1,866.435,0.6666666666666666,1,object_03,1,1609,0,6,6,library_23,1,memory-2step-stake-s,621,2424520,0.0-18.0-0.0-0.124,4043,5,6
125,1,object_05,object_04,716.625,1,1,626.485,0.5555555555555556,1,object_03,1,1614,0,5,5,desert_5,1,memory-2step-stake-s,622,2432990,0.0-18.0-0.0-0.125,4043,1,2
126,3,object_01,object_09,683.925,5,1,114.485,0.7777777777777778,1,object_03,5,1649,0,7,3,library_23,1,memory-2step-stake-s,623,2441155,0.0-18.0-0.0-0.126,4043,5,6
127,1,object_05,object_04,595.205,1,1,406.695,0.6666666666666666,1,object_03,1,1655,0,6,3,desert_17,1,memory-2step-stake-s,624,2449478,0.0-18.0-0.0-0.127,4043,1,2
128,2,object_06,object_02,1131.955,4,1,420.35,0.5555555555555556,2,object_07,1,1660,0,6,5,forest_2,1,memory-2step-stake-s,626,2527028,0.0-18.0-0.1-0.128,4043,4,3
129,3,object_09,object_01,314.91,5,2,340.465,0.8888888888888888,1,object_03,5,1700,0,8,4,library_30,1,memory-2step-stake-s,627,2535555,0.0-18.0-0.1-0.129,4043,6,5
130,1,object_05,object_04,346.845,2,2,525.38,0.4444444444444444,2,object_07,1,1704,0,8,4,desert_19,1,memory-2step-stake-s,628,2543774,0.0-18.0-0.1-0.130,4043,1,2
131,3,object_09,object_01,705.725,6,1,798.335,0.3333333333333333,2,object_07,1,1707,0,9,3,library_13,1,memory-2step-stake-s,629,2552153,0.0-18.0-0.1-0.131,4043,6,5
132,2,object_02,object_06,1097.235,3,1,507.435,0.8888888888888888,1,object_03,5,1747,0,8,1,forest_19,1,memory-2step-stake-s,630,2560784,0.0-18.0-0.1-0.132,4043,3,4
133,1,object_05,object_04,1268.605,1,1,516.595,0.6666666666666666,1,object_03,1,1753,0,6,4,desert_14,1,memory-2step-stake-s,631,2569205,0.0-18.0-0.1-0.133,4043,1,2
134,4,object_08,object_10,1165.935,8,2,1043.985,0.6666666666666666,2,object_07,5,1783,0,9,6,restaurant_19,1,memory-2step-stake-s,632,2578155,0.0-18.0-0.1-0.134,4043,7,8
135,1,object_05,object_04,1103.175,1,1,755.52,0.7777777777777778,1,object_03,1,1790,0,7,4,desert_17,1,memory-2step-stake-s,633,2586954,0.0-18.0-0.1-0.135,4043,1,2
136,2,object_06,object_02,421.285,3,2,572.785,0.8888888888888888,1,object_03,1,1798,0,8,2,forest_14,1,memory-2step-stake-s,634,2595688,0.0-18.0-0.1-0.136,4043,4,3
137,3,object_09,object_01,1181.36,5,2,621.595,0.6666666666666666,1,object_03,5,1828,0,6,2,library_23,1,memory-2step-stake-s,635,2604234,0.0-18.0-0.1-0.137,4043,6,5
138,3,object_09,object_01,545.415,5,2,520.23,0.7777777777777778,1,object_03,5,1863,0,7,1,library_10,1,memory-2step-stake-s,636,2612799,0.0-18.0-0.1-0.138,4043,6,5
139,2,object_06,object_02,1044.95,3,2,535.59,0.8888888888888888,1,object_03,1,1871,0,8,2,forest_30,1,memory-2step-stake-s,637,2621490,0.0-18.0-0.1-0.139,4043,4,3
140,3,object_01,object_09,1218.665,5,1,496.665,0.7777777777777778,1,object_03,5,1906,0,7,5,library_21,1,memory-2step-stake-s,638,2630012,0.0-18.0-0.1-0.140,4043,5,6
141,1,object_05,object_04,909.285,1,1,484.745,0.8888888888888888,1,object_03,5,1946,0,8,3,desert_27,1,memory-2step-stake-s,639,2638684,0.0-18.0-0.1-0.141,4043,1,2
142,2,object_06,object_02,1024.505,3,2,468.545,0.6666666666666666,1,object_03,5,1976,0,6,4,forest_20,1,memory-2step-stake-s,640,2647084,0.0-18.0-0.1-0.142,4043,4,3
143,1,object_05,object_04,883.435,1,1,422.63,0.1111111111111111,1,object_03,1,1977,0,1,7,desert_8,1,memory-2step-stake-s,641,2654848,0.0-18.0-0.1-0.143,4043,1,2
144,2,object_06,object_02,834.735,3,2,475.42,0.2222222222222222,1,object_03,1,1979,0,2,1,forest_20,1,memory-2step-stake-s,642,2662805,0.0-18.0-0.1-0.144,4043,4,3
145,1,object_04,object_05,1170.365,1,2,556.33,0.1111111111111111,1,object_03,1,1980,0,1,0,desert_9,1,memory-2step-stake-s,643,2670716,0.0-18.0-0.1-0.145,4043,2,1
146,2,object_02,object_06,1216.14,3,1,544.65,0.1111111111111111,1,object_03,1,1981,0,1,4,forest_24,1,memory-2step-stake-s,644,2678632,0.0-18.0-0.1-0.146,4043,3,4
147,2,object_02,object_06,882.645,3,1,483.7,0.4444444444444444,1,object_03,1,1985,0,4,2,forest_5,1,memory-2step-stake-s,645,2686834,0.0-18.0-0.1-0.147,4043,3,4
148,3,object_09,object_01,625.91,5,2,869.03,0.2222222222222222,1,object_03,5,1995,0,2,5,library_22,1,memory-2step-stake-s,646,2695159,0.0-18.0-0.1-0.148,4043,6,5
149,4,object_08,object_10,1044.45,8,2,648.065,0.5555555555555556,2,object_07,5,2020,0,1,5,restaurant_9,1,memory-2step-stake-s,647,2703616,0.0-18.0-0.1-0.149,4043,7,8
150,3,object_01,object_09,950.665,5,1,598.105,0.0,1,object_03,5,2020,0,0,6,library_26,1,memory-2step-stake-s,648,2711484,0.0-18.0-0.1-0.150,4043,5,6
151,4,object_08,object_10,1339.93,8,2,573.265,0.2222222222222222,2,object_07,5,2030,0,5,2,restaurant_13,1,memory-2step-stake-s,649,2719515,0.0-18.0-0.1-0.151,4043,7,8
152,1,object_05,object_04,644.265,1,1,610.19,0.1111111111111111,1,object_03,5,2035,0,1,1,desert_2,1,memory-2step-stake-s,650,2727482,0.0-18.0-0.1-0.152,4043,1,2
153,2,object_02,object_06,862.645,3,1,611.745,0.1111111111111111,1,object_03,5,2040,0,1,2,forest_30,1,memory-2step-stake-s,651,2735485,0.0-18.0-0.1-0.153,4043,3,4
154,3,object_09,object_01,992.15,5,2,459.485,0.1111111111111111,1,object_03,5,2045,0,1,3,library_12,1,memory-2step-stake-s,652,2743298,0.0-18.0-0.1-0.154,4043,6,5
155,1,object_04,object_05,1105.665,1,2,536.055,0.1111111111111111,1,object_03,5,2050,0,1,3,desert_21,1,memory-2step-stake-s,653,2751209,0.0-18.0-0.1-0.155,4043,2,1
156,1,object_05,object_04,994.94,1,1,485.83,0.1111111111111111,1,object_03,5,2055,0,1,4,desert_23,1,memory-2step-stake-s,654,2759085,0.0-18.0-0.1-0.156,4043,1,2
157,1,object_04,object_05,1390.61,1,2,428.67,0.3333333333333333,1,object_03,1,2058,0,3,3,desert_6,1,memory-2step-stake-s,655,2767125,0.0-18.0-0.1-0.157,4043,2,1
158,4,object_08,object_10,965.735,8,2,471.585,0.2222222222222222,2,object_07,5,2068,0,5,2,restaurant_29,1,memory-2step-stake-s,656,2775118,0.0-18.0-0.1-0.158,4043,7,8
159,3,object_01,object_09,980.12,5,1,577.12,0.3333333333333333,1,object_03,5,2083,0,3,0,library_20,1,memory-2step-stake-s,657,2783285,0.0-18.0-0.1-0.159,4043,5,6
160,2,object_06,object_02,930.49,3,2,728.09,0.3333333333333333,1,object_03,1,2086,0,3,3,forest_1,1,memory-2step-stake-s,658,2791589,0.0-18.0-0.1-0.160,4043,4,3
161,1,object_04,object_05,1150.0,1,2,556.7,1.0,1,object_03,1,2095,0,9,3,desert_26,1,memory-2step-stake-s,659,2800446,0.0-18.0-0.1-0.161,4043,2,1
162,4,object_10,object_08,1491.535,8,1,708.505,0.2222222222222222,2,object_07,5,2105,0,8,2,restaurant_14,1,memory-2step-stake-s,660,2808669,0.0-18.0-0.1-0.162,4043,8,7
163,3,object_09,object_01,998.895,5,2,737.79,0.8888888888888888,1,object_03,5,2145,0,8,3,library_10,1,memory-2step-stake-s,661,2817523,0.0-18.0-0.1-0.163,4043,6,5
164,1,object_05,object_04,1203.35,1,1,973.23,0.8888888888888888,1,object_03,1,2153,0,8,3,desert_23,1,memory-2step-stake-s,662,2826663,0.0-18.0-0.1-0.164,4043,1,2
165,4,object_10,object_08,954.205,8,1,-1.0,0.0,2,object_07,5,2153,0,7,5,restaurant_9,1,memory-2step-stake-s,663,2835229,0.0-18.0-0.1-0.165,4043,8,7
166,4,object_10,object_08,588.055,8,1,376.41,0.8888888888888888,2,object_07,5,2193,0,4,8,restaurant_11,1,memory-2step-stake-s,664,2843764,0.0-18.0-0.1-0.166,4043,8,7
167,4,object_08,object_10,1181.625,8,2,1079.73,0.7777777777777778,2,object_07,5,2228,0,8,7,restaurant_16,1,memory-2step-stake-s,665,2852870,0.0-18.0-0.1-0.167,4043,7,8
168,4,object_08,object_10,966.54,8,2,737.585,0.6666666666666666,2,object_07,5,2258,0,8,6,restaurant_19,1,memory-2step-stake-s,666,2861535,0.0-18.0-0.1-0.168,4043,7,8
169,2,object_02,object_06,660.085,3,1,1245.38,0.8888888888888888,1,object_03,1,2266,0,8,8,forest_23,1,memory-2step-stake-s,667,2870921,0.0-18.0-0.1-0.169,4043,3,4
170,2,object_06,object_02,714.73,3,2,599.905,0.8888888888888888,1,object_03,1,2274,0,8,8,forest_26,1,memory-2step-stake-s,668,2879706,0.0-18.0-0.1-0.170,4043,4,3
171,4,object_08,object_10,1191.995,8,2,1194.99,0.6666666666666666,2,object_07,5,2304,0,9,6,restaurant_31,1,memory-2step-stake-s,669,2888842,0.0-18.0-0.1-0.171,4043,7,8
172,2,object_06,object_02,798.835,3,2,505.375,0.8888888888888888,1,object_03,1,2312,0,8,7,forest_26,1,memory-2step-stake-s,670,2897543,0.0-18.0-0.1-0.172,4043,4,3
173,2,object_02,object_06,997.695,3,1,569.175,1.0,1,object_03,1,2321,0,9,5,forest_2,1,memory-2step-stake-s,671,2906337,0.0-18.0-0.1-0.173,4043,3,4
174,4,object_10,object_08,1167.71,8,1,721.9,0.7777777777777778,2,object_07,5,2356,0,9,7,restaurant_11,1,memory-2step-stake-s,672,2915097,0.0-18.0-0.1-0.174,4043,8,7
175,1,object_05,object_04,937.115,1,1,520.215,1.0,1,object_03,1,2365,0,9,4,desert_19,1,memory-2step-stake-s,673,2923910,0.0-18.0-0.1-0.175,4043,1,2
176,2,object_06,object_02,879.54,3,2,694.46,0.8888888888888888,1,object_03,5,2405,0,8,2,forest_5,1,memory-2step-stake-s,674,2932711,0.0-18.0-0.1-0.176,4043,4,3
177,4,object_08,object_10,872.395,8,2,604.335,0.5555555555555556,2,object_07,5,2430,0,8,5,restaurant_17,1,memory-2step-stake-s,675,2941127,0.0-18.0-0.1-0.177,4043,7,8
178,3,object_09,object_01,947.9,5,2,342.575,0.8888888888888888,1,object_03,1,2438,0,8,6,library_7,1,memory-2step-stake-s,676,2949638,0.0-18.0-0.1-0.178,4043,6,5
179,4,object_10,object_08,1011.25,8,1,637.04,0.6666666666666666,2,object_07,5,2468,0,8,6,restaurant_27,1,memory-2step-stake-s,677,2958211,0.0-18.0-0.1-0.179,4043,8,7
180,2,object_02,object_06,951.43,3,1,563.01,0.7777777777777778,1,object_03,1,2475,0,7,3,forest_27,1,memory-2step-stake-s,678,2966778,0.0-18.0-0.1-0.180,4043,3,4
181,4,object_10,object_08,898.39,8,1,597.57,0.1111111111111111,2,object_07,5,2480,0,5,1,restaurant_16,1,memory-2step-stake-s,679,2974765,0.0-18.0-0.1-0.181,4043,8,7
182,2,object_06,object_02,1005.955,3,2,667.44,0.0,1,object_03,1,2480,0,0,1,forest_24,1,memory-2step-stake-s,680,2982720,0.0-18.0-0.1-0.182,4043,4,3
183,4,object_08,object_10,-1.0,-1,-1,-1.0,0.0,-,,5,2480,0,1,0,restaurant_27,1,memory-2step-stake-s,681,2989279,0.0-18.0-0.1-0.183,4043,7,8
184,2,object_06,object_02,1192.745,3,2,539.125,0.3333333333333333,1,object_03,1,2483,0,3,1,forest_26,1,memory-2step-stake-s,682,2997398,0.0-18.0-0.1-0.184,4043,4,3
185,2,object_02,object_06,1360.415,3,1,-1.0,0.0,1,object_03,1,2483,0,5,0,forest_30,1,memory-2step-stake-s,683,3005964,0.0-18.0-0.1-0.185,4043,3,4
186,3,object_09,object_01,1235.58,5,2,1307.59,0.6666666666666666,1,object_03,5,2513,0,6,0,library_7,1,memory-2step-stake-s,684,3015207,0.0-18.0-0.1-0.186,4043,6,5
187,2,object_06,object_02,1005.125,3,2,461.825,0.7777777777777778,1,object_03,1,2520,0,7,0,forest_8,1,memory-2step-stake-s,685,3023683,0.0-18.0-0.1-0.187,4043,4,3
188,2,object_06,object_02,886.195,3,2,426.465,0.6666666666666666,1,object_03,1,2526,0,6,4,forest_2,1,memory-2step-stake-s,686,3032037,0.0-18.0-0.1-0.188,4043,4,3
189,2,object_02,object_06,1235.01,3,1,900.395,0.8888888888888888,1,object_03,1,2534,0,8,6,forest_5,1,memory-2step-stake-s,687,3041089,0.0-18.0-0.1-0.189,4043,3,4
190,2,object_02,object_06,1025.45,3,1,1351.085,0.8888888888888888,1,object_03,1,2542,0,8,6,forest_10,1,memory-2step-stake-s,688,3050578,0.0-18.0-0.1-0.190,4043,3,4
191,1,object_05,object_04,976.795,1,1,756.81,0.7777777777777778,1,object_03,5,2577,0,7,6,desert_32,1,memory-2step-stake-s,689,3059356,0.0-18.0-0.1-0.191,4043,1,2
192,2,object_06,object_02,970.84,3,2,458.945,0.6666666666666666,1,object_03,1,2583,0,6,5,forest_26,1,memory-2step-stake-s,690,3067735,0.0-18.0-0.1-0.192,4043,4,3
193,4,object_10,object_08,974.655,8,1,333.47,0.1111111111111111,2,object_07,5,2588,0,5,1,restaurant_13,1,memory-2step-stake-s,691,3075460,0.0-18.0-0.1-0.193,4043,8,7
194,3,object_01,object_09,1333.905,5,1,508.035,0.4444444444444444,1,object_03,5,2608,0,4,1,library_27,1,memory-2step-stake-s,692,3083724,0.0-18.0-0.1-0.194,4043,5,6
195,3,object_01,object_09,979.05,5,1,499.295,0.5555555555555556,1,object_03,5,2633,0,5,0,library_12,1,memory-2step-stake-s,693,3091994,0.0-18.0-0.1-0.195,4043,5,6
196,2,object_02,object_06,616.27,3,1,613.355,0.7777777777777778,1,object_03,1,2640,0,7,2,forest_21,1,memory-2step-stake-s,694,3100622,0.0-18.0-0.1-0.196,4043,3,4
197,3,object_01,object_09,768.645,5,1,806.38,0.5555555555555556,1,object_03,5,2665,0,5,1,library_28,1,memory-2step-stake-s,695,3109251,0.0-18.0-0.1-0.197,4043,5,6
198,1,object_04,object_05,1155.12,1,2,647.665,0.3333333333333333,1,object_03,1,2668,0,3,1,desert_32,1,memory-2step-stake-s,696,3117502,0.0-18.0-0.1-0.198,4043,2,1
199,3,object_09,object_01,1039.58,5,2,1033.655,0.6666666666666666,1,object_03,5,2698,0,6,3,library_22,1,memory-2step-stake-s,697,3126469,0.0-18.0-0.1-0.199,4043,6,5
200,4,object_10,object_08,1156.85,8,1,449.65,0.5555555555555556,2,object_07,5,2723,0,4,5,restaurant_31,1,memory-2step-stake-s,698,3134732,0.0-18.0-0.1-0.200,4043,8,7
201,3,object_09,object_01,1108.68,5,2,509.0,0.5555555555555556,1,object_03,5,2748,0,5,6,library_32,1,memory-2step-stake-s,699,3143082,0.0-18.0-0.1-0.201,4043,6,5
202,4,object_10,object_08,1021.265,8,1,375.255,0.3333333333333333,2,object_07,5,2763,0,7,3,restaurant_30,1,memory-2step-stake-s,700,3151031,0.0-18.0-0.1-0.202,4043,8,7
203,4,object_10,object_08,950.14,8,1,758.825,0.1111111111111111,2,object_07,5,2768,0,5,1,restaurant_9,1,memory-2step-stake-s,701,3159142,0.0-18.0-0.1-0.203,4043,8,7
204,2,object_06,object_02,1065.135,3,2,456.375,0.4444444444444444,1,object_03,5,2788,0,4,0,forest_21,1,memory-2step-stake-s,702,3167303,0.0-18.0-0.1-0.204,4043,4,3
205,4,object_10,object_08,998.13,8,1,494.91,0.2222222222222222,2,object_07,5,2798,0,2,2,restaurant_16,1,memory-2step-stake-s,703,3175291,0.0-18.0-0.1-0.205,4043,8,7
206,1,object_04,object_05,1446.295,1,2,738.08,0.0,1,object_03,5,2798,0,0,0,desert_22,1,memory-2step-stake-s,704,3183316,0.0-18.0-0.1-0.206,4043,2,1
207,2,object_02,object_06,772.2,3,1,463.355,0.1111111111111111,1,object_03,1,2799,0,1,2,forest_12,1,memory-2step-stake-s,705,3191120,0.0-18.0-0.1-0.207,4043,3,4
208,3,object_01,object_09,789.38,5,1,696.92,0.0,1,object_03,1,2799,0,0,1,library_21,1,memory-2step-stake-s,706,3199106,0.0-18.0-0.1-0.208,4043,5,6
209,2,object_02,object_06,804.115,3,1,460.32,0.2222222222222222,1,object_03,1,2801,0,2,2,forest_27,1,memory-2step-stake-s,707,3207055,0.0-18.0-0.1-0.209,4043,3,4
210,4,object_08,object_10,1246.85,8,2,1147.35,0.3333333333333333,2,object_07,5,2816,0,3,3,restaurant_14,1,memory-2step-stake-s,708,3215787,0.0-18.0-0.1-0.210,4043,7,8
211,3,object_09,object_01,990.23,5,2,442.045,0.1111111111111111,1,object_03,1,2817,0,1,2,library_20,1,memory-2step-stake-s,709,3223599,0.0-18.0-0.1-0.211,4043,6,5
212,3,object_09,object_01,943.995,5,2,458.63,0.0,1,object_03,5,2817,0,0,5,library_21,1,memory-2step-stake-s,710,3231336,0.0-18.0-0.1-0.212,4043,6,5
213,1,object_04,object_05,1365.52,1,2,810.885,0.1111111111111111,1,object_03,1,2818,0,1,6,desert_2,1,memory-2step-stake-s,711,3239523,0.0-18.0-0.1-0.213,4043,2,1
214,4,object_10,object_08,587.935,8,1,776.89,0.7777777777777778,2,object_07,1,2825,0,3,7,restaurant_21,1,memory-2step-stake-s,712,3248334,0.0-18.0-0.1-0.214,4043,8,7
215,1,object_05,object_04,1129.025,1,1,1130.66,0.2222222222222222,1,object_03,1,2827,0,2,6,desert_14,1,memory-2step-stake-s,713,3256952,0.0-18.0-0.1-0.215,4043,1,2
216,4,object_10,object_08,953.84,8,1,768.82,0.4444444444444444,2,object_07,5,2847,0,4,4,restaurant_30,1,memory-2step-stake-s,714,3265442,0.0-18.0-0.1-0.216,4043,8,7
217,4,object_08,object_10,1304.355,8,2,1113.395,0.3333333333333333,2,object_07,5,2862,0,5,3,restaurant_14,1,memory-2step-stake-s,715,3274178,0.0-18.0-0.1-0.217,4043,7,8
218,1,object_05,object_04,1089.225,1,1,727.795,0.6666666666666666,1,object_03,5,2892,0,6,2,desert_32,1,memory-2step-stake-s,716,3282829,0.0-18.0-0.1-0.218,4043,1,2
219,3,object_09,object_01,1091.49,5,2,1017.995,0.7777777777777778,1,object_03,5,2927,0,7,1,library_27,1,memory-2step-stake-s,717,3291845,0.0-18.0-0.1-0.219,4043,6,5
220,4,object_10,object_08,1410.255,8,1,890.045,0.1111111111111111,2,object_07,5,2932,0,7,1,restaurant_29,1,memory-2step-stake-s,718,3300129,0.0-18.0-0.1-0.220,4043,8,7
221,1,object_04,object_05,1414.515,1,2,819.97,0.7777777777777778,1,object_03,1,2939,0,7,1,desert_10,1,memory-2step-stake-s,719,3308951,0.0-18.0-0.1-0.221,4043,2,1
222,1,object_04,object_05,1031.47,1,2,714.145,0.7777777777777778,1,object_03,5,2974,0,7,4,desert_26,1,memory-2step-stake-s,720,3317724,0.0-18.0-0.1-0.222,4043,2,1
223,2,object_02,object_06,595.97,3,1,1274.475,0.5555555555555556,1,object_03,1,2979,0,5,6,forest_24,1,memory-2step-stake-s,721,3326842,0.0-18.0-0.1-0.223,4043,3,4
224,2,object_06,object_02,893.42,3,2,1262.5,0.4444444444444444,1,object_03,5,2999,0,4,7,forest_6,1,memory-2step-stake-s,722,3335800,0.0-18.0-0.1-0.224,4043,4,3
225,3,object_01,object_09,842.145,5,1,1119.505,0.4444444444444444,1,object_03,5,3019,0,4,7,library_9,1,memory-2step-stake-s,723,3344628,0.0-18.0-0.1-0.225,4043,5,6
226,1,object_04,object_05,1033.085,1,2,1122.345,0.7777777777777778,1,object_03,1,3026,0,7,9,desert_6,1,memory-2step-stake-s,724,3353801,0.0-18.0-0.1-0.226,4043,2,1
227,4,object_10,object_08,1317.465,8,1,1251.585,1.0,2,object_07,1,3035,0,7,9,restaurant_18,1,memory-2step-stake-s,725,3363356,0.0-18.0-0.1-0.227,4043,8,7
228,4,object_08,object_10,942.13,8,2,917.52,0.5555555555555556,2,object_07,5,3060,0,8,5,restaurant_12,1,memory-2step-stake-s,726,3372069,0.0-18.0-0.1-0.228,4043,7,8
229,3,object_01,object_09,1368.535,5,1,1427.695,0.6666666666666666,1,object_03,5,3090,0,6,5,library_22,1,memory-2step-stake-s,727,3381427,0.0-18.0-0.1-0.229,4043,5,6
230,1,object_05,object_04,1255.095,1,1,1233.745,0.5555555555555556,1,object_03,5,3115,0,5,2,desert_9,1,memory-2step-stake-s,728,3390473,0.0-18.0-0.1-0.230,4043,1,2
231,1,object_05,object_04,949.095,1,1,1060.285,0.2222222222222222,1,object_03,1,3117,0,2,2,desert_8,1,memory-2step-stake-s,729,3399011,0.0-18.0-0.1-0.231,4043,1,2
232,2,object_06,object_02,754.735,3,2,1454.18,0.1111111111111111,1,object_03,1,3118,0,1,0,forest_2,1,memory-2step-stake-s,730,3407866,0.0-18.0-0.1-0.232,4043,4,3
233,3,object_01,object_09,916.0,5,1,-1.0,0.0,1,object_03,1,3118,0,2,2,library_4,1,memory-2step-stake-s,731,3416433,0.0-18.0-0.1-0.233,4043,5,6
234,1,object_05,object_04,942.015,1,1,1047.58,0.0,1,object_03,1,3118,0,0,1,desert_26,1,memory-2step-stake-s,732,3424734,0.0-18.0-0.1-0.234,4043,1,2
235,1,object_04,object_05,1089.345,1,2,-1.0,0.0,1,object_03,1,3118,0,1,1,desert_27,1,memory-2step-stake-s,733,3433318,0.0-18.0-0.1-0.235,4043,2,1
236,2,object_02,object_06,1283.7,3,1,869.21,0.2222222222222222,1,object_03,1,3120,0,2,3,forest_6,1,memory-2step-stake-s,734,3441699,0.0-18.0-0.1-0.236,4043,3,4
237,2,object_02,object_06,1137.66,3,1,1177.3,0.1111111111111111,1,object_03,5,3125,0,1,3,forest_23,1,memory-2step-stake-s,735,3450239,0.0-18.0-0.1-0.237,4043,3,4
238,3,object_09,object_01,1047.215,5,2,1196.77,0.5555555555555556,1,object_03,5,3150,0,5,5,library_26,1,memory-2step-stake-s,736,3459285,0.0-18.0-0.1-0.238,4043,6,5
239,1,object_05,object_04,958.455,1,1,1057.93,0.5555555555555556,1,object_03,1,3155,0,5,8,desert_26,1,memory-2step-stake-s,737,3468161,0.0-18.0-0.1-0.239,4043,1,2
240,4,object_08,object_10,1384.06,8,2,-1.0,0.0,2,object_07,5,3155,0,4,8,restaurant_17,1,memory-2step-stake-s,738,3476751,0.0-18.0-0.1-0.240,4043,7,8
241,2,object_06,object_02,1049.73,3,2,1066.18,0.4444444444444444,1,object_03,1,3159,0,4,8,forest_27,1,memory-2step-stake-s,739,3485525,0.0-18.0-0.1-0.241,4043,4,3
242,1,object_05,object_04,972.945,1,1,1134.72,0.5555555555555556,1,object_03,1,3164,0,5,7,desert_21,1,memory-2step-stake-s,740,3494475,0.0-18.0-0.1-0.242,4043,1,2
243,3,object_09,object_01,771.755,5,2,1397.99,0.3333333333333333,1,object_03,5,3179,0,3,8,library_10,1,memory-2step-stake-s,741,3503451,0.0-18.0-0.1-0.243,4043,6,5
244,4,object_08,object_10,717.78,8,2,874.025,0.7777777777777778,2,object_07,5,3214,0,1,7,restaurant_17,1,memory-2step-stake-s,742,3512348,0.0-18.0-0.1-0.244,4043,7,8
245,1,object_05,object_04,967.335,1,1,645.965,0.1111111111111111,1,object_03,1,3215,0,1,9,desert_8,1,memory-2step-stake-s,743,3520350,0.0-18.0-0.1-0.245,4043,1,2
246,4,object_10,object_08,1153.37,8,1,1090.085,0.4444444444444444,2,object_07,1,3219,0,2,4,restaurant_27,1,memory-2step-stake-s,744,3529162,0.0-18.0-0.1-0.246,4043,8,7
247,4,object_08,object_10,1154.445,8,2,821.615,0.4444444444444444,2,object_07,1,3223,0,4,4,restaurant_32,1,memory-2step-stake-s,745,3537716,0.0-18.0-0.1-0.247,4043,7,8
248,2,object_06,object_02,662.66,3,2,503.81,0.6666666666666666,1,object_03,1,3229,0,6,6,forest_23,1,memory-2step-stake-s,746,3546175,0.0-18.0-0.1-0.248,4043,4,3
249,4,object_10,object_08,1209.41,8,1,1225.045,0.7777777777777778,2,object_07,5,3264,0,6,7,restaurant_21,1,memory-2step-stake-s,747,3555431,0.0-18.0-0.1-0.249,4043,8,7
250,3,object_09,object_01,835.28,5,2,1246.23,0.6666666666666666,1,object_03,5,3294,0,6,7,library_30,1,memory-2step-stake-s,748,3564575,0.0-18.0-0.1-0.250,4043,6,5
251,1,object_04,object_05,1054.685,1,2,-1.0,0.0,1,object_03,5,3294,0,4,7,desert_10,1,memory-2step-stake-s,749,3573169,0.0-18.0-0.1-0.251,4043,2,1
252,3,object_01,object_09,1073.485,5,1,670.845,0.7777777777777778,1,object_03,5,3329,0,7,8,library_27,1,memory-2step-stake-s,750,3581858,0.0-18.0-0.1-0.252,4043,5,6
253,2,object_06,object_02,1128.16,3,2,836.17,0.8888888888888888,1,object_03,1,3337,0,8,8,forest_27,1,memory-2step-stake-s,751,3590830,0.0-18.0-0.1-0.253,4043,4,3
254,1,object_04,object_05,1053.725,1,2,1361.115,0.8888888888888888,1,object_03,1,3345,0,8,7,desert_17,1,memory-2step-stake-s,752,3600335,0.0-18.0-0.1-0.254,4043,2,1
255,4,object_08,object_10,1102.975,8,2,1062.115,0.8888888888888888,2,object_07,5,3385,0,6,8,restaurant_19,1,memory-2step-stake-s,753,3609521,0.0-18.0-0.1-0.255,4043,7,8
