,state1,stim_left,stim_right,rt_1,choice1,response1,rt_2,points,state2,stim_state2,stake,score,practice,rews1,rews2,background,high_arm,trial_type,trial_index,time_elapsed,internal_node_id,subid,stim_left_num,stim_right_num
0,1,object_07,object_06,1143.265,1,1,-1.0,0.0,1,object_03,5,0,0,8,0,desert_26,2,memory-2step-stake-s,491,1207884,0.0-18.0-0.0-0.0,4147,1,2
1,3,object_09,object_10,1036.32,6,1,997.95,0.3333333333333333,2,object_04,1,3,0,9,3,library_5,2,memory-2step-stake-s,492,1216438,0.0-18.0-0.0-0.1,4147,6,5
2,2,object_05,object_08,625.785,4,1,602.735,0.1111111111111111,2,object_04,1,4,0,7,1,forest_8,2,memory-2step-stake-s,493,1224384,0.0-18.0-0.0-0.2,4147,4,3
3,1,object_06,object_07,1317.195,1,2,965.385,0.8888888888888888,1,object_03,5,44,0,8,2,desert_3,2,memory-2step-stake-s,494,1233428,0.0-18.0-0.0-0.3,4147,2,1
4,2,object_08,object_05,1101.015,3,1,828.5450001,0.8888888888888888,1,object_03,5,84,0,8,2,forest_3,2,memory-2step-stake-s,495,1242334,0.0-18.0-0.0-0.4,4147,3,4
5,1,object_07,object_06,-1.0,-1,-1,-1.0,0.0,-,,5,84,0,7,2,desert_23,2,memory-2step-stake-s,496,1248866,0.0-18.0-0.0-0.5,4147,1,2
6,3,object_09,object_10,561.0649999,5,2,890.76,0.7777777777777778,1,object_03,1,91,0,7,4,library_2,2,memory-2step-stake-s,497,1257726,0.0-18.0-0.0-0.6,4147,6,5
7,2,object_05,object_08,1130.89,3,2,415.325,0.8888888888888888,1,object_03,5,131,0,8,3,forest_32,2,memory-2step-stake-s,498,1266199,0.0-18.0-0.0-0.7,4147,4,3
8,4,object_01,object_02,868.515,8,1,533.485,0.2222222222222222,2,object_04,1,133,0,6,2,restaurant_14,2,memory-2step-stake-s,499,1274173,0.0-18.0-0.0-0.8,4147,8,7
9,4,object_02,object_01,824.1699999,7,1,535.725,0.6666666666666666,1,object_03,5,163,0,6,1,restaurant_18,2,memory-2step-stake-s,500,1282575,0.0-18.0-0.0-0.9,4147,7,8
10,3,object_10,object_09,459.8,5,1,356.315,0.5555555555555556,1,object_03,1,168,0,5,3,library_12,2,memory-2step-stake-s,501,1290701,0.0-18.0-0.0-0.10,4147,5,6
11,4,object_02,object_01,729.13,7,1,311.28,0.4444444444444444,1,object_03,1,172,0,4,5,restaurant_20,2,memory-2step-stake-s,502,1298681,0.0-18.0-0.0-0.11,4147,7,8
12,2,object_05,object_08,1013.75,3,2,402.05,0.2222222222222222,1,object_03,5,182,0,2,7,forest_8,2,memory-2step-stake-s,503,1306528,0.0-18.0-0.0-0.12,4147,4,3
13,1,object_06,object_07,839.13,2,1,263.6699999,0.7777777777777778,2,object_04,5,217,0,3,7,desert_8,2,memory-2step-stake-s,504,1314757,0.0-18.0-0.0-0.13,4147,2,1
14,3,object_09,object_10,659.0649999,6,1,437.105,0.7777777777777778,2,object_04,1,224,0,1,7,library_13,2,memory-2step-stake-s,505,1323161,0.0-18.0-0.0-0.14,4147,6,5
15,1,object_07,object_06,988.3999999,2,2,340.925,0.8888888888888888,2,object_04,5,264,0,2,8,desert_25,2,memory-2step-stake-s,506,1331572,0.0-18.0-0.0-0.15,4147,1,2
16,2,object_08,object_05,1094.365,4,2,425.56,0.8888888888888888,2,object_04,5,304,0,1,8,forest_27,2,memory-2step-stake-s,507,1340076,0.0-18.0-0.0-0.16,4147,3,4
17,1,object_06,object_07,696.47,2,1,353.38999989999996,0.7777777777777778,2,object_04,1,311,0,0,7,desert_26,2,memory-2step-stake-s,508,1348396,0.0-18.0-0.0-0.17,4147,2,1
18,3,object_09,object_10,771.145,6,1,450.3799999,0.8888888888888888,2,object_04,1,319,0,1,8,library_30,2,memory-2step-stake-s,509,1356926,0.0-18.0-0.0-0.18,4147,6,5
19,4,object_02,object_01,1015.215,8,2,302.565,0.7777777777777778,2,object_04,5,354,0,1,7,restaurant_12,2,memory-2step-stake-s,510,1365202,0.0-18.0-0.0-0.19,4147,7,8
20,4,object_02,object_01,734.25,8,2,326.6749999,0.7777777777777778,2,object_04,5,389,0,2,7,restaurant_11,2,memory-2step-stake-s,511,1373502,0.0-18.0-0.0-0.20,4147,7,8
21,4,object_01,object_02,870.875,7,2,301.32,0.1111111111111111,1,object_03,1,390,0,1,4,restaurant_14,2,memory-2step-stake-s,512,1381141,0.0-18.0-0.0-0.21,4147,8,7
22,2,object_05,object_08,1038.21,4,1,434.1,0.3333333333333333,2,object_04,1,393,0,1,3,forest_20,2,memory-2step-stake-s,513,1389134,0.0-18.0-0.0-0.22,4147,4,3
23,3,object_09,object_10,495.56,5,2,269.20499989999996,0.2222222222222222,1,object_03,1,395,0,2,0,library_27,2,memory-2step-stake-s,514,1396848,0.0-18.0-0.0-0.23,4147,6,5
24,1,object_06,object_07,1161.605,2,1,312.0899999,0.0,2,object_04,1,395,0,5,0,desert_25,2,memory-2step-stake-s,515,1404395,0.0-18.0-0.0-0.24,4147,2,1
25,1,object_07,object_06,626.6099998999999,1,1,322.71,0.5555555555555556,1,object_03,5,420,0,5,0,desert_19,2,memory-2step-stake-s,516,1412479,0.0-18.0-0.0-0.25,4147,1,2
26,4,object_01,object_02,1272.735,8,1,289.425,0.2222222222222222,2,object_04,1,422,0,6,2,restaurant_30,2,memory-2step-stake-s,517,1420219,0.0-18.0-0.0-0.26,4147,8,7
27,3,object_10,object_09,1023.105,5,1,289.67,0.2222222222222222,1,object_03,5,432,0,2,1,library_5,2,memory-2step-stake-s,518,1427958,0.0-18.0-0.0-0.27,4147,5,6
28,3,object_09,object_10,899.37,6,1,352.225,0.2222222222222222,2,object_04,1,434,0,3,2,library_20,2,memory-2step-stake-s,519,1435755,0.0-18.0-0.0-0.28,4147,6,5
29,4,object_01,object_02,629.84,7,2,333.69499989999997,0.3333333333333333,1,object_03,1,437,0,3,2,restaurant_13,2,memory-2step-stake-s,520,1443646,0.0-18.0-0.0-0.29,4147,8,7
30,4,object_02,object_01,891.3949999,7,1,290.35,0.1111111111111111,1,object_03,1,438,0,1,3,restaurant_20,2,memory-2step-stake-s,521,1451283,0.0-18.0-0.0-0.30,4147,7,8
31,1,object_07,object_06,743.655,1,1,332.815,0.0,1,object_03,5,438,0,0,3,desert_15,2,memory-2step-stake-s,522,1458860,0.0-18.0-0.0-0.31,4147,1,2
32,4,object_01,object_02,1149.435,7,2,355.77,0.3333333333333333,1,object_03,1,441,0,3,6,restaurant_4,2,memory-2step-stake-s,523,1466764,0.0-18.0-0.0-0.32,4147,8,7
33,2,object_08,object_05,931.5749999,3,1,316.19,0.1111111111111111,1,object_03,5,446,0,1,5,forest_18,2,memory-2step-stake-s,524,1474412,0.0-18.0-0.0-0.33,4147,3,4
34,1,object_06,object_07,562.2200001,2,1,299.835,0.6666666666666666,2,object_04,5,476,0,2,6,desert_28,2,memory-2step-stake-s,525,1482556,0.0-18.0-0.0-0.34,4147,2,1
35,4,object_02,object_01,613.585,8,2,337.01,0.3333333333333333,2,object_04,1,479,0,2,3,restaurant_17,2,memory-2step-stake-s,526,1490431,0.0-18.0-0.0-0.35,4147,7,8
36,1,object_06,object_07,1448.04,2,1,372.06,0.4444444444444444,2,object_04,5,499,0,3,4,desert_29,2,memory-2step-stake-s,527,1498468,0.0-18.0-0.0-0.36,4147,2,1
37,3,object_10,object_09,469.9400001,5,1,275.955,0.5555555555555556,1,object_03,1,504,0,5,3,library_15,2,memory-2step-stake-s,528,1506492,0.0-18.0-0.0-0.37,4147,5,6
38,3,object_09,object_10,655.315,5,2,232.545,0.7777777777777778,1,object_03,1,511,0,7,2,library_21,2,memory-2step-stake-s,529,1514687,0.0-18.0-0.0-0.38,4147,6,5
39,3,object_10,object_09,820.435,5,1,273.945,0.5555555555555556,1,object_03,1,516,0,5,0,library_2,2,memory-2step-stake-s,530,1522710,0.0-18.0-0.0-0.39,4147,5,6
40,4,object_01,object_02,633.78,8,1,328.335,0.2222222222222222,2,object_04,1,518,0,5,2,restaurant_8,2,memory-2step-stake-s,531,1530479,0.0-18.0-0.0-0.40,4147,8,7
41,2,object_05,object_08,624.8549998999999,3,2,289.43,0.7777777777777778,1,object_03,5,553,0,7,4,forest_10,2,memory-2step-stake-s,532,1538730,0.0-18.0-0.0-0.41,4147,4,3
42,3,object_09,object_10,488.98,5,2,303.245,0.6666666666666666,1,object_03,5,583,0,6,7,library_26,2,memory-2step-stake-s,533,1546892,0.0-18.0-0.0-0.42,4147,6,5
43,2,object_05,object_08,473.0,3,2,274.465,0.5555555555555556,1,object_03,5,608,0,5,5,forest_15,2,memory-2step-stake-s,534,1554926,0.0-18.0-0.0-0.43,4147,4,3
44,3,object_09,object_10,510.62,6,1,362.61,0.3333333333333333,2,object_04,1,611,0,5,3,library_15,2,memory-2step-stake-s,535,1562840,0.0-18.0-0.0-0.44,4147,6,5
45,2,object_05,object_08,454.15,3,2,259.585,0.4444444444444444,1,object_03,5,631,0,4,1,forest_19,2,memory-2step-stake-s,536,1570761,0.0-18.0-0.0-0.45,4147,4,3
46,2,object_05,object_08,539.365,3,2,344.36,0.2222222222222222,1,object_03,5,641,0,2,1,forest_15,2,memory-2step-stake-s,537,1578551,0.0-18.0-0.0-0.46,4147,4,3
47,1,object_07,object_06,933.755,2,2,308.465,0.1111111111111111,2,object_04,5,646,0,1,1,desert_28,2,memory-2step-stake-s,538,1586198,0.0-18.0-0.0-0.47,4147,1,2
48,4,object_02,object_01,817.045,8,2,264.3449999,0.2222222222222222,2,object_04,1,648,0,2,2,restaurant_23,2,memory-2step-stake-s,539,1593911,0.0-18.0-0.0-0.48,4147,7,8
49,3,object_10,object_09,395.725,5,1,297.855,0.2222222222222222,1,object_03,1,650,0,2,2,library_32,2,memory-2step-stake-s,540,1601652,0.0-18.0-0.0-0.49,4147,5,6
50,3,object_10,object_09,433.055,5,1,330.13,0.1111111111111111,1,object_03,1,651,0,1,3,library_13,2,memory-2step-stake-s,541,1609319,0.0-18.0-0.0-0.50,4147,5,6
51,2,object_08,object_05,1480.76,4,2,433.575,0.3333333333333333,2,object_04,5,666,0,5,3,forest_11,2,memory-2step-stake-s,542,1617301,0.0-18.0-0.0-0.51,4147,3,4
52,1,object_07,object_06,527.59,2,2,312.1249999,0.0,2,object_04,5,666,0,5,0,desert_3,2,memory-2step-stake-s,543,1624848,0.0-18.0-0.0-0.52,4147,1,2
53,4,object_01,object_02,1068.065,7,2,254.615,0.6666666666666666,1,object_03,1,672,0,6,1,restaurant_14,2,memory-2step-stake-s,544,1632962,0.0-18.0-0.0-0.53,4147,8,7
54,2,object_05,object_08,986.95,3,2,277.48,0.8888888888888888,1,object_03,1,680,0,8,1,forest_28,2,memory-2step-stake-s,545,1641306,0.0-18.0-0.0-0.54,4147,4,3
55,2,object_08,object_05,696.745,3,1,280.51999989999996,0.8888888888888888,1,object_03,5,720,0,8,2,forest_27,2,memory-2step-stake-s,546,1649676,0.0-18.0-0.0-0.55,4147,3,4
56,2,object_08,object_05,686.9150001,3,1,263.215,0.5555555555555556,1,object_03,1,725,0,5,4,forest_19,2,memory-2step-stake-s,547,1657702,0.0-18.0-0.0-0.56,4147,3,4
57,3,object_10,object_09,563.4549999,5,1,389.1799999,0.6666666666666666,1,object_03,5,755,0,6,8,library_12,2,memory-2step-stake-s,548,1665951,0.0-18.0-0.0-0.57,4147,5,6
58,3,object_09,object_10,578.61,5,2,362.48,0.4444444444444444,1,object_03,1,759,0,4,8,library_27,2,memory-2step-stake-s,549,1673969,0.0-18.0-0.0-0.58,4147,6,5
59,2,object_05,object_08,518.7349998999999,3,2,772.86,0.6666666666666666,1,object_03,5,789,0,6,7,forest_11,2,memory-2step-stake-s,550,1682601,0.0-18.0-0.0-0.59,4147,4,3
60,1,object_07,object_06,672.38,2,2,287.4649999,0.6666666666666666,2,object_04,1,795,0,8,6,desert_29,2,memory-2step-stake-s,551,1690772,0.0-18.0-0.0-0.60,4147,1,2
61,4,object_01,object_02,-1.0,-1,-1,-1.0,0.0,-,,1,795,0,9,4,restaurant_18,2,memory-2step-stake-s,552,1697298,0.0-18.0-0.0-0.61,4147,8,7
62,4,object_01,object_02,500.36500010000003,8,1,279.41,0.5555555555555556,2,object_04,1,800,0,5,5,restaurant_27,2,memory-2step-stake-s,553,1705340,0.0-18.0-0.0-0.62,4147,8,7
63,2,object_08,object_05,317.84,4,2,287.255,0.6666666666666666,2,object_04,5,830,0,3,6,forest_31,2,memory-2step-stake-s,554,1713500,0.0-18.0-0.0-0.63,4147,3,4
64,1,object_06,object_07,468.47,2,1,246.85000010000002,0.4444444444444444,2,object_04,5,850,0,1,4,desert_17,2,memory-2step-stake-s,555,1721411,0.0-18.0-0.0-0.64,4147,2,1
65,3,object_10,object_09,461.855,5,1,276.755,0.1111111111111111,1,object_03,1,851,0,1,8,library_3,2,memory-2step-stake-s,556,1729031,0.0-18.0-0.0-0.65,4147,5,6
66,3,object_10,object_09,492.16,6,2,460.49,0.6666666666666666,2,object_04,1,857,0,1,6,library_1,2,memory-2step-stake-s,557,1737367,0.0-18.0-0.0-0.66,4147,5,6
67,4,object_02,object_01,406.125,8,2,310.14,0.5555555555555556,2,object_04,1,862,0,1,5,restaurant_25,2,memory-2step-stake-s,558,1745433,0.0-18.0-0.0-0.67,4147,7,8
68,2,object_08,object_05,618.53,4,2,430.95,0.5555555555555556,2,object_04,5,887,0,0,5,forest_18,2,memory-2step-stake-s,559,1753620,0.0-18.0-0.0-0.68,4147,3,4
69,2,object_08,object_05,390.8200001,4,2,235.0499999,0.6666666666666666,2,object_04,5,917,0,2,6,forest_18,2,memory-2step-stake-s,560,1761738,0.0-18.0-0.0-0.69,4147,3,4
70,3,object_09,object_10,789.06,6,1,323.795,0.7777777777777778,2,object_04,5,952,0,3,7,library_10,2,memory-2step-stake-s,561,1770046,0.0-18.0-0.0-0.70,4147,6,5
71,4,object_02,object_01,681.2999999,7,1,262.405,0.5555555555555556,1,object_03,1,957,0,5,8,restaurant_27,2,memory-2step-stake-s,562,1778068,0.0-18.0-0.0-0.71,4147,7,8
72,2,object_08,object_05,907.6299999,3,1,321.55,0.5555555555555556,1,object_03,5,982,0,5,7,forest_27,2,memory-2step-stake-s,563,1786161,0.0-18.0-0.0-0.72,4147,3,4
73,3,object_09,object_10,610.9999999,6,1,237.7299999,0.8888888888888888,2,object_04,1,990,0,4,8,library_25,2,memory-2step-stake-s,564,1794467,0.0-18.0-0.0-0.73,4147,6,5
74,2,object_05,object_08,563.055,4,1,238.54,0.7777777777777778,2,object_04,5,1025,0,6,7,forest_24,2,memory-2step-stake-s,565,1802678,0.0-18.0-0.0-0.74,4147,4,3
75,4,object_02,object_01,797.715,8,2,246.375,0.4444444444444444,2,object_04,1,1029,0,8,4,restaurant_23,2,memory-2step-stake-s,566,1810584,0.0-18.0-0.0-0.75,4147,7,8
76,1,object_06,object_07,938.335,1,2,290.0200001,0.7777777777777778,1,object_03,5,1064,0,7,7,desert_14,2,memory-2step-stake-s,567,1818847,0.0-18.0-0.0-0.76,4147,2,1
77,2,object_05,object_08,497.49,3,2,244.395,0.7777777777777778,1,object_03,5,1099,0,7,6,forest_2,2,memory-2step-stake-s,568,1827067,0.0-18.0-0.0-0.77,4147,4,3
78,3,object_09,object_10,691.725,6,1,269.77,0.8888888888888888,2,object_04,1,1107,0,6,8,library_2,2,memory-2step-stake-s,569,1835401,0.0-18.0-0.0-0.78,4147,6,5
79,4,object_02,object_01,994.68,7,1,218.755,0.4444444444444444,1,object_03,1,1111,0,4,9,restaurant_17,2,memory-2step-stake-s,570,1843281,0.0-18.0-0.0-0.79,4147,7,8
80,3,object_09,object_10,718.435,6,1,285.365,0.8888888888888888,2,object_04,1,1119,0,0,8,library_15,2,memory-2step-stake-s,571,1851652,0.0-18.0-0.0-0.80,4147,6,5
81,1,object_06,object_07,484.32,2,1,245.7,0.7777777777777778,2,object_04,5,1154,0,1,7,desert_30,2,memory-2step-stake-s,572,1859851,0.0-18.0-0.0-0.81,4147,2,1
82,2,object_05,object_08,424.91500010000004,4,1,259.37,0.6666666666666666,2,object_04,5,1184,0,1,6,forest_10,2,memory-2step-stake-s,573,1867979,0.0-18.0-0.0-0.82,4147,4,3
83,4,object_01,object_02,424.08,7,2,217.18,0.4444444444444444,1,object_03,1,1188,0,4,9,restaurant_25,2,memory-2step-stake-s,574,1875850,0.0-18.0-0.0-0.83,4147,8,7
84,1,object_07,object_06,729.5050001,1,1,322.45,0.5555555555555556,1,object_03,1,1193,0,5,8,desert_17,2,memory-2step-stake-s,575,1883944,0.0-18.0-0.0-0.84,4147,1,2
85,1,object_06,object_07,1441.78,2,1,371.42,0.8888888888888888,2,object_04,5,1233,0,4,8,desert_9,2,memory-2step-stake-s,576,1892389,0.0-18.0-0.0-0.85,4147,2,1
86,2,object_08,object_05,904.8499999,4,2,284.14,0.7777777777777778,2,object_04,1,1240,0,6,7,forest_31,2,memory-2step-stake-s,577,1900596,0.0-18.0-0.0-0.86,4147,3,4
87,1,object_06,object_07,918.465,2,1,323.705,0.4444444444444444,2,object_04,5,1260,0,6,4,desert_9,2,memory-2step-stake-s,578,1908589,0.0-18.0-0.0-0.87,4147,2,1
88,1,object_06,object_07,646.31,1,2,349.83,0.8888888888888888,1,object_03,1,1268,0,8,9,desert_32,2,memory-2step-stake-s,579,1917021,0.0-18.0-0.0-0.88,4147,2,1
89,1,object_07,object_06,709.1,1,1,577.13,1.0,1,object_03,5,1313,0,9,9,desert_30,2,memory-2step-stake-s,580,1925779,0.0-18.0-0.0-0.89,4147,1,2
90,2,object_08,object_05,608.35,3,1,273.39,1.0,1,object_03,5,1358,0,9,8,forest_24,2,memory-2step-stake-s,581,1934229,0.0-18.0-0.0-0.90,4147,3,4
91,4,object_02,object_01,488.715,8,2,337.075,0.6666666666666666,2,object_04,1,1364,0,7,6,restaurant_2,2,memory-2step-stake-s,582,1942446,0.0-18.0-0.0-0.91,4147,7,8
92,3,object_09,object_10,1459.635,6,1,583.155,0.5555555555555556,2,object_04,1,1369,0,7,5,library_20,2,memory-2step-stake-s,583,1950802,0.0-18.0-0.0-0.92,4147,6,5
93,4,object_02,object_01,582.5,8,2,352.645,0.5555555555555556,2,object_04,1,1374,0,8,5,restaurant_28,2,memory-2step-stake-s,584,1958917,0.0-18.0-0.0-0.93,4147,7,8
94,2,object_05,object_08,523.82,3,2,315.82499989999997,0.8888888888888888,1,object_03,5,1414,0,8,2,forest_11,2,memory-2step-stake-s,585,1967322,0.0-18.0-0.0-0.94,4147,4,3
95,4,object_01,object_02,1044.155,8,1,335.175,0.4444444444444444,2,object_04,1,1418,0,6,4,restaurant_27,2,memory-2step-stake-s,586,1975317,0.0-18.0-0.0-0.95,4147,8,7
96,2,object_05,object_08,468.995,3,2,373.9400001,0.8888888888888888,1,object_03,5,1458,0,8,6,forest_20,2,memory-2step-stake-s,587,1983771,0.0-18.0-0.0-0.96,4147,4,3
97,4,object_02,object_01,631.255,8,2,424.0349999,0.7777777777777778,2,object_04,1,1465,0,8,7,restaurant_8,2,memory-2step-stake-s,588,1992171,0.0-18.0-0.0-0.97,4147,7,8
98,1,object_06,object_07,679.1449999,1,2,242.33,1.0,1,object_03,5,1510,0,9,4,desert_30,2,memory-2step-stake-s,589,2000598,0.0-18.0-0.0-0.98,4147,2,1
99,1,object_06,object_07,458.12,1,2,278.7,0.8888888888888888,1,object_03,5,1550,0,8,3,desert_23,2,memory-2step-stake-s,590,2008957,0.0-18.0-0.0-0.99,4147,2,1
100,4,object_02,object_01,739.7200001,8,2,245.9,0.3333333333333333,2,object_04,1,1553,0,9,3,restaurant_28,2,memory-2step-stake-s,591,2016763,0.0-18.0-0.0-0.100,4147,7,8
101,4,object_01,object_02,557.0500001,8,1,327.29,0.2222222222222222,2,object_04,1,1555,0,9,2,restaurant_8,2,memory-2step-stake-s,592,2024548,0.0-18.0-0.0-0.101,4147,8,7
102,1,object_07,object_06,840.0,2,2,322.345,0.6666666666666666,2,object_04,1,1561,0,9,6,desert_3,2,memory-2step-stake-s,593,2032736,0.0-18.0-0.0-0.102,4147,1,2
103,3,object_10,object_09,642.5300001,6,2,446.065,0.4444444444444444,2,object_04,1,1565,0,7,4,library_5,2,memory-2step-stake-s,594,2040842,0.0-18.0-0.0-0.103,4147,5,6
104,2,object_08,object_05,521.7950001,3,1,291.49000010000003,0.6666666666666666,1,object_03,5,1595,0,6,8,forest_28,2,memory-2step-stake-s,595,2049013,0.0-18.0-0.0-0.104,4147,3,4
105,1,object_07,object_06,638.985,1,1,287.0499999,0.8888888888888888,1,object_03,5,1635,0,8,7,desert_3,2,memory-2step-stake-s,596,2057366,0.0-18.0-0.0-0.105,4147,1,2
106,3,object_10,object_09,483.45999989999996,5,1,280.715,0.8888888888888888,1,object_03,5,1675,0,8,5,library_26,2,memory-2step-stake-s,597,2065731,0.0-18.0-0.0-0.106,4147,5,6
107,1,object_07,object_06,429.18,1,1,331.475,0.8888888888888888,1,object_03,5,1715,0,8,4,desert_30,2,memory-2step-stake-s,598,2074134,0.0-18.0-0.0-0.107,4147,1,2
108,1,object_07,object_06,496.365,1,1,255.46,0.5555555555555556,1,object_03,5,1740,0,5,4,desert_17,2,memory-2step-stake-s,599,2082150,0.0-18.0-0.0-0.108,4147,1,2
109,2,object_05,object_08,630.335,4,1,272.3749999,0.0,2,object_04,1,1740,0,5,0,forest_28,2,memory-2step-stake-s,600,2089654,0.0-18.0-0.0-0.109,4147,4,3
110,4,object_02,object_01,531.24,8,2,299.14,0.2222222222222222,2,object_04,1,1742,0,5,2,restaurant_30,2,memory-2step-stake-s,601,2097388,0.0-18.0-0.0-0.110,4147,7,8
111,2,object_05,object_08,565.8100001,3,2,272.9099999,0.7777777777777778,1,object_03,5,1777,0,7,2,forest_32,2,memory-2step-stake-s,602,2105630,0.0-18.0-0.0-0.111,4147,4,3
112,2,object_05,object_08,437.575,3,2,262.535,0.5555555555555556,1,object_03,5,1802,0,5,1,forest_28,2,memory-2step-stake-s,603,2113657,0.0-18.0-0.0-0.112,4147,4,3
113,4,object_02,object_01,1022.135,8,2,442.24,0.1111111111111111,2,object_04,1,1803,0,3,1,restaurant_25,2,memory-2step-stake-s,604,2121451,0.0-18.0-0.0-0.113,4147,7,8
114,2,object_08,object_05,567.99,3,1,335.4049999,0.2222222222222222,1,object_03,5,1813,0,2,0,forest_10,2,memory-2step-stake-s,605,2129243,0.0-18.0-0.0-0.114,4147,3,4
115,2,object_08,object_05,550.93,3,1,305.82,0.0,1,object_03,5,1813,0,0,0,forest_31,2,memory-2step-stake-s,606,2136789,0.0-18.0-0.0-0.115,4147,3,4
116,1,object_07,object_06,593.7450001,2,2,276.94,0.1111111111111111,2,object_04,5,1818,0,4,1,desert_17,2,memory-2step-stake-s,607,2144402,0.0-18.0-0.0-0.116,4147,1,2
117,3,object_09,object_10,811.625,5,2,385.735,0.5555555555555556,1,object_03,5,1843,0,5,0,library_3,2,memory-2step-stake-s,608,2152544,0.0-18.0-0.0-0.117,4147,6,5
118,1,object_07,object_06,454.0,1,1,281.17000010000004,0.8888888888888888,1,object_03,5,1883,0,8,1,desert_18,2,memory-2step-stake-s,609,2160903,0.0-18.0-0.0-0.118,4147,1,2
119,1,object_07,object_06,438.4000001,1,1,273.76499989999996,0.6666666666666666,1,object_03,5,1913,0,6,1,desert_29,2,memory-2step-stake-s,610,2169041,0.0-18.0-0.0-0.119,4147,1,2
120,3,object_09,object_10,663.3850001000001,6,1,254.8850001,0.2222222222222222,2,object_04,1,1915,0,6,2,library_10,2,memory-2step-stake-s,611,2176748,0.0-18.0-0.0-0.120,4147,6,5
121,4,object_01,object_02,1419.815,8,1,360.4,0.1111111111111111,2,object_04,1,1916,0,5,1,restaurant_22,2,memory-2step-stake-s,612,2184465,0.0-18.0-0.0-0.121,4147,8,7
122,1,object_07,object_06,457.06,1,1,319.66,0.4444444444444444,1,object_03,5,1936,0,4,6,desert_19,2,memory-2step-stake-s,613,2192444,0.0-18.0-0.0-0.122,4147,1,2
123,3,object_10,object_09,535.235,5,1,439.5,0.1111111111111111,1,object_03,5,1941,0,1,4,library_32,2,memory-2step-stake-s,614,2200225,0.0-18.0-0.0-0.123,4147,5,6
124,4,object_02,object_01,641.2,8,2,307.19,0.3333333333333333,2,object_04,1,1944,0,3,3,restaurant_11,2,memory-2step-stake-s,615,2208088,0.0-18.0-0.0-0.124,4147,7,8
125,4,object_02,object_01,434.38499989999997,7,1,271.055,0.1111111111111111,1,object_03,1,1945,0,1,2,restaurant_28,2,memory-2step-stake-s,616,2215705,0.0-18.0-0.0-0.125,4147,7,8
126,3,object_10,object_09,615.8,6,2,299.61,0.1111111111111111,2,object_04,1,1946,0,2,1,library_1,2,memory-2step-stake-s,617,2223349,0.0-18.0-0.0-0.126,4147,5,6
127,3,object_09,object_10,685.8150001,6,1,362.845,0.3333333333333333,2,object_04,1,1949,0,0,3,library_27,2,memory-2step-stake-s,618,2231265,0.0-18.0-0.0-0.127,4147,6,5
128,4,object_01,object_02,705.55,8,1,386.6,0.1111111111111111,2,object_04,1,1950,0,3,1,restaurant_13,2,memory-2step-stake-s,620,2241600,0.0-18.0-0.1-0.128,4147,8,7
129,1,object_07,object_06,460.35,1,1,245.86,0.4444444444444444,1,object_03,5,1970,0,4,1,desert_2,2,memory-2step-stake-s,621,2249507,0.0-18.0-0.1-0.129,4147,1,2
130,3,object_09,object_10,425.44,5,2,305.74000010000003,0.0,1,object_03,5,1970,0,0,5,library_13,2,memory-2step-stake-s,622,2257052,0.0-18.0-0.1-0.130,4147,6,5
131,1,object_07,object_06,455.82,1,1,286.4099999,0.3333333333333333,1,object_03,5,1985,0,3,5,desert_2,2,memory-2step-stake-s,623,2264900,0.0-18.0-0.1-0.131,4147,1,2
132,4,object_01,object_02,546.175,8,1,363.9199999,0.6666666666666666,2,object_04,1,1991,0,6,6,restaurant_2,2,memory-2step-stake-s,624,2273130,0.0-18.0-0.1-0.132,4147,8,7
133,1,object_06,object_07,482.36,2,1,228.745,0.5555555555555556,2,object_04,5,2016,0,7,5,desert_14,2,memory-2step-stake-s,625,2281134,0.0-18.0-0.1-0.133,4147,2,1
134,2,object_08,object_05,749.445,4,2,236.36,0.5555555555555556,2,object_04,5,2041,0,9,5,forest_5,2,memory-2step-stake-s,626,2289144,0.0-18.0-0.1-0.134,4147,3,4
135,4,object_01,object_02,1083.445,7,2,222.72,0.8888888888888888,1,object_03,1,2049,0,8,4,restaurant_30,2,memory-2step-stake-s,627,2297447,0.0-18.0-0.1-0.135,4147,8,7
136,3,object_10,object_09,484.8900001,5,1,272.795,0.8888888888888888,1,object_03,5,2089,0,8,3,library_2,2,memory-2step-stake-s,628,2305812,0.0-18.0-0.1-0.136,4147,5,6
137,3,object_09,object_10,392.0300001,5,2,777.535,0.8888888888888888,1,object_03,5,2129,0,8,4,library_12,2,memory-2step-stake-s,629,2314669,0.0-18.0-0.1-0.137,4147,6,5
138,2,object_08,object_05,478.095,3,1,981.425,0.7777777777777778,1,object_03,5,2164,0,7,2,forest_23,2,memory-2step-stake-s,630,2323611,0.0-18.0-0.1-0.138,4147,3,4
139,4,object_01,object_02,669.075,8,1,325.065,0.3333333333333333,2,object_04,1,2167,0,8,3,restaurant_23,2,memory-2step-stake-s,631,2331500,0.0-18.0-0.1-0.139,4147,8,7
140,4,object_02,object_01,607.855,8,2,370.9600001,0.1111111111111111,2,object_04,1,2168,0,7,1,restaurant_2,2,memory-2step-stake-s,632,2339217,0.0-18.0-0.1-0.140,4147,7,8
141,3,object_09,object_10,1014.615,5,2,214.12500010000002,0.4444444444444444,1,object_03,1,2172,0,4,1,library_21,2,memory-2step-stake-s,633,2347098,0.0-18.0-0.1-0.141,4147,6,5
142,2,object_05,object_08,471.76999989999996,3,2,268.055,0.3333333333333333,1,object_03,5,2187,0,3,2,forest_27,2,memory-2step-stake-s,634,2354926,0.0-18.0-0.1-0.142,4147,4,3
143,3,object_10,object_09,685.005,5,1,257.205,0.4444444444444444,1,object_03,1,2191,0,4,1,library_21,2,memory-2step-stake-s,635,2362843,0.0-18.0-0.1-0.143,4147,5,6
144,1,object_07,object_06,558.615,1,1,362.295,0.6666666666666666,1,object_03,5,2221,0,6,2,desert_26,2,memory-2step-stake-s,636,2371088,0.0-18.0-0.1-0.144,4147,1,2
145,2,object_05,object_08,486.41,3,2,551.185,1.0,1,object_03,5,2266,0,9,3,forest_20,2,memory-2step-stake-s,637,2379832,0.0-18.0-0.1-0.145,4147,4,3
146,2,object_05,object_08,435.21,3,2,266.4450001,0.8888888888888888,1,object_03,5,2306,0,8,2,forest_2,2,memory-2step-stake-s,638,2388173,0.0-18.0-0.1-0.146,4147,4,3
147,1,object_07,object_06,511.905,1,1,268.45,0.7777777777777778,1,object_03,5,2341,0,7,2,desert_25,2,memory-2step-stake-s,639,2396417,0.0-18.0-0.1-0.147,4147,1,2
148,2,object_08,object_05,459.6350001,3,1,328.1149999,1.0,1,object_03,5,2386,0,9,6,forest_11,2,memory-2step-stake-s,640,2404921,0.0-18.0-0.1-0.148,4147,3,4
149,3,object_09,object_10,792.13,6,1,296.86,0.3333333333333333,2,object_04,1,2389,0,9,3,library_1,2,memory-2step-stake-s,641,2412770,0.0-18.0-0.1-0.149,4147,6,5
150,4,object_02,object_01,1163.85,7,1,346.535,0.7777777777777778,1,object_03,1,2396,0,7,5,restaurant_2,2,memory-2step-stake-s,642,2421099,0.0-18.0-0.1-0.150,4147,7,8
151,2,object_05,object_08,780.7499999,4,1,478.4049999,0.4444444444444444,2,object_04,1,2400,0,7,4,forest_23,2,memory-2step-stake-s,643,2429246,0.0-18.0-0.1-0.151,4147,4,3
152,4,object_02,object_01,677.5700001,7,1,276.6099999,0.8888888888888888,1,object_03,5,2440,0,8,4,restaurant_12,2,memory-2step-stake-s,644,2437612,0.0-18.0-0.1-0.152,4147,7,8
153,3,object_10,object_09,919.67,6,2,307.91,0.5555555555555556,2,object_04,1,2445,0,8,5,library_32,2,memory-2step-stake-s,645,2445687,0.0-18.0-0.1-0.153,4147,5,6
154,2,object_05,object_08,501.4149999,3,2,393.775,0.7777777777777778,1,object_03,5,2480,0,7,4,forest_18,2,memory-2step-stake-s,646,2454053,0.0-18.0-0.1-0.154,4147,4,3
155,3,object_09,object_10,467.325,5,2,303.29,0.3333333333333333,1,object_03,5,2495,0,3,7,library_26,2,memory-2step-stake-s,647,2461896,0.0-18.0-0.1-0.155,4147,6,5
156,1,object_06,object_07,467.765,2,1,249.59500010000002,0.7777777777777778,2,object_04,5,2530,0,6,7,desert_2,2,memory-2step-stake-s,648,2470126,0.0-18.0-0.1-0.156,4147,2,1
157,3,object_10,object_09,605.34,6,2,267.32,0.5555555555555556,2,object_04,5,2555,0,8,5,library_13,2,memory-2step-stake-s,649,2478168,0.0-18.0-0.1-0.157,4147,5,6
158,4,object_02,object_01,521.89,7,1,261.8699999,0.6666666666666666,1,object_03,1,2561,0,6,9,restaurant_12,2,memory-2step-stake-s,650,2486312,0.0-18.0-0.1-0.158,4147,7,8
159,4,object_01,object_02,383.79,7,2,266.3799999,0.5555555555555556,1,object_03,1,2566,0,5,7,restaurant_27,2,memory-2step-stake-s,651,2494339,0.0-18.0-0.1-0.159,4147,8,7
160,1,object_06,object_07,-1.0,-1,-1,-1.0,0.0,-,,5,2566,0,5,9,desert_29,2,memory-2step-stake-s,652,2500873,0.0-18.0-0.1-0.160,4147,2,1
161,4,object_01,object_02,693.68,7,2,280.78,0.7777777777777778,1,object_03,5,2601,0,7,6,restaurant_23,2,memory-2step-stake-s,653,2509126,0.0-18.0-0.1-0.161,4147,8,7
162,3,object_09,object_10,450.27,5,2,339.0650001,0.7777777777777778,1,object_03,5,2636,0,7,4,library_23,2,memory-2step-stake-s,654,2517450,0.0-18.0-0.1-0.162,4147,6,5
163,1,object_07,object_06,481.485,2,2,221.1450001,0.4444444444444444,2,object_04,1,2640,0,9,4,desert_19,2,memory-2step-stake-s,655,2525330,0.0-18.0-0.1-0.163,4147,1,2
164,4,object_02,object_01,512.67,7,1,52.98499996,0.8888888888888888,1,object_03,1,2648,0,8,2,restaurant_25,2,memory-2step-stake-s,656,2533465,0.0-18.0-0.1-0.164,4147,7,8
165,3,object_09,object_10,678.015,6,1,253.66500010000001,0.4444444444444444,2,object_04,1,2652,0,8,4,library_30,2,memory-2step-stake-s,657,2541384,0.0-18.0-0.1-0.165,4147,6,5
166,4,object_01,object_02,947.44,8,1,458.685,0.4444444444444444,2,object_04,1,2656,0,7,4,restaurant_20,2,memory-2step-stake-s,658,2549515,0.0-18.0-0.1-0.166,4147,8,7
167,3,object_10,object_09,491.98,6,2,405.6299999,0.1111111111111111,2,object_04,1,2657,0,8,1,library_10,2,memory-2step-stake-s,659,2557270,0.0-18.0-0.1-0.167,4147,5,6
168,3,object_09,object_10,560.53,6,1,319.185,0.4444444444444444,2,object_04,1,2661,0,7,4,library_5,2,memory-2step-stake-s,660,2565262,0.0-18.0-0.1-0.168,4147,6,5
169,2,object_08,object_05,510.195,3,1,249.135,0.8888888888888888,1,object_03,5,2701,0,8,4,forest_31,2,memory-2step-stake-s,661,2573593,0.0-18.0-0.1-0.169,4147,3,4
170,2,object_08,object_05,387.80500010000003,3,1,295.61500010000003,0.5555555555555556,1,object_03,5,2726,0,5,2,forest_8,2,memory-2step-stake-s,662,2581659,0.0-18.0-0.1-0.170,4147,3,4
171,1,object_07,object_06,454.91,2,2,249.8600001,0.2222222222222222,2,object_04,5,2736,0,7,2,desert_8,2,memory-2step-stake-s,663,2589368,0.0-18.0-0.1-0.171,4147,1,2
172,1,object_06,object_07,454.65,1,2,250.14,0.7777777777777778,1,object_03,5,2771,0,7,7,desert_28,2,memory-2step-stake-s,664,2597606,0.0-18.0-0.1-0.172,4147,2,1
173,3,object_10,object_09,453.1749999,5,1,269.865,0.5555555555555556,1,object_03,5,2796,0,5,7,library_25,2,memory-2step-stake-s,665,2605633,0.0-18.0-0.1-0.173,4147,5,6
174,4,object_01,object_02,606.8750001,7,2,297.62,0.2222222222222222,1,object_03,5,2806,0,2,4,restaurant_30,2,memory-2step-stake-s,666,2613373,0.0-18.0-0.1-0.174,4147,8,7
175,3,object_10,object_09,999.0899999,6,2,359.755,0.4444444444444444,2,object_04,1,2810,0,2,4,library_3,2,memory-2step-stake-s,667,2621382,0.0-18.0-0.1-0.175,4147,5,6
176,3,object_10,object_09,525.9649999,5,1,238.2,0.2222222222222222,1,object_03,1,2812,0,2,5,library_23,2,memory-2step-stake-s,668,2629074,0.0-18.0-0.1-0.176,4147,5,6
177,2,object_05,object_08,492.09,3,2,302.2299999,0.2222222222222222,1,object_03,5,2822,0,2,8,forest_24,2,memory-2step-stake-s,669,2636833,0.0-18.0-0.1-0.177,4147,4,3
178,4,object_02,object_01,701.545,7,1,294.67,0.3333333333333333,1,object_03,1,2825,0,3,7,restaurant_22,2,memory-2step-stake-s,670,2644689,0.0-18.0-0.1-0.178,4147,7,8
179,1,object_07,object_06,417.765,1,1,304.03,0.2222222222222222,1,object_03,1,2827,0,2,9,desert_18,2,memory-2step-stake-s,671,2652444,0.0-18.0-0.1-0.179,4147,1,2
180,4,object_02,object_01,642.235,7,1,354.44,0.5555555555555556,1,object_03,1,2832,0,5,6,restaurant_13,2,memory-2step-stake-s,672,2660573,0.0-18.0-0.1-0.180,4147,7,8
181,2,object_08,object_05,421.7299999,3,1,281.465,1.0,1,object_03,5,2877,0,9,7,forest_3,2,memory-2step-stake-s,673,2669045,0.0-18.0-0.1-0.181,4147,3,4
182,4,object_01,object_02,633.1750001,8,1,301.385,0.6666666666666666,2,object_04,1,2883,0,9,6,restaurant_14,2,memory-2step-stake-s,674,2677216,0.0-18.0-0.1-0.182,4147,8,7
183,1,object_07,object_06,481.2,2,2,348.96,0.4444444444444444,2,object_04,1,2887,0,8,4,desert_2,2,memory-2step-stake-s,675,2685219,0.0-18.0-0.1-0.183,4147,1,2
184,2,object_05,object_08,425.615,3,2,227.325,0.8888888888888888,1,object_03,5,2927,0,8,7,forest_32,2,memory-2step-stake-s,676,2693525,0.0-18.0-0.1-0.184,4147,4,3
185,4,object_02,object_01,985.405,8,2,426.4949999,0.4444444444444444,2,object_04,1,2931,0,6,4,restaurant_8,2,memory-2step-stake-s,677,2701616,0.0-18.0-0.1-0.185,4147,7,8
186,4,object_01,object_02,553.1499999,8,1,342.96,0.0,2,object_04,1,2931,0,5,0,restaurant_22,2,memory-2step-stake-s,678,2709203,0.0-18.0-0.1-0.186,4147,8,7
187,3,object_10,object_09,735.445,6,2,278.74,0.0,2,object_04,1,2931,0,3,0,library_26,2,memory-2step-stake-s,679,2716725,0.0-18.0-0.1-0.187,4147,5,6
188,2,object_05,object_08,691.42,4,1,281.695,0.1111111111111111,2,object_04,1,2932,0,3,1,forest_23,2,memory-2step-stake-s,680,2724361,0.0-18.0-0.1-0.188,4147,4,3
189,3,object_10,object_09,865.3300001,5,1,283.645,0.4444444444444444,1,object_03,1,2936,0,4,2,library_23,2,memory-2step-stake-s,681,2732316,0.0-18.0-0.1-0.189,4147,5,6
190,2,object_05,object_08,494.8049999,3,2,314.975,0.1111111111111111,1,object_03,5,2941,0,1,0,forest_23,2,memory-2step-stake-s,682,2739972,0.0-18.0-0.1-0.190,4147,4,3
191,1,object_07,object_06,976.5099999,1,1,338.475,0.1111111111111111,1,object_03,5,2946,0,1,0,desert_8,2,memory-2step-stake-s,683,2747660,0.0-18.0-0.1-0.191,4147,1,2
192,2,object_05,object_08,495.855,4,1,229.605,0.2222222222222222,2,object_04,5,2956,0,3,2,forest_5,2,memory-2step-stake-s,684,2755354,0.0-18.0-0.1-0.192,4147,4,3
193,2,object_08,object_05,601.0400001,3,1,173.6849999,0.2222222222222222,1,object_03,5,2966,0,2,0,forest_19,2,memory-2step-stake-s,685,2762980,0.0-18.0-0.1-0.193,4147,3,4
194,4,object_01,object_02,471.9,7,2,287.8,0.3333333333333333,1,object_03,1,2969,0,3,3,restaurant_22,2,memory-2step-stake-s,686,2770827,0.0-18.0-0.1-0.194,4147,8,7
195,1,object_06,object_07,477.28,1,2,266.035,0.4444444444444444,1,object_03,5,2989,0,4,6,desert_26,2,memory-2step-stake-s,687,2778759,0.0-18.0-0.1-0.195,4147,2,1
196,3,object_09,object_10,349.835,6,1,379.3499999,0.4444444444444444,2,object_04,1,2993,0,8,4,library_15,2,memory-2step-stake-s,688,2786803,0.0-18.0-0.1-0.196,4147,6,5
197,1,object_07,object_06,450.955,1,1,259.175,0.8888888888888888,1,object_03,5,3033,0,8,6,desert_28,2,memory-2step-stake-s,689,2795152,0.0-18.0-0.1-0.197,4147,1,2
198,1,object_07,object_06,376.795,1,1,244.30499989999998,0.6666666666666666,1,object_03,5,3063,0,6,6,desert_18,2,memory-2step-stake-s,690,2803263,0.0-18.0-0.1-0.198,4147,1,2
199,1,object_07,object_06,433.675,2,2,148.04,0.8888888888888888,2,object_04,1,3071,0,6,8,desert_14,2,memory-2step-stake-s,691,2811502,0.0-18.0-0.1-0.199,4147,1,2
200,3,object_09,object_10,794.995,6,1,377.33,0.7777777777777778,2,object_04,1,3078,0,6,7,library_12,2,memory-2step-stake-s,692,2819857,0.0-18.0-0.1-0.200,4147,6,5
201,4,object_01,object_02,630.335,8,1,440.715,0.8888888888888888,2,object_04,1,3086,0,7,8,restaurant_28,2,memory-2step-stake-s,693,2828383,0.0-18.0-0.1-0.201,4147,8,7
202,2,object_08,object_05,726.92,3,1,399.22,0.7777777777777778,1,object_03,5,3121,0,7,8,forest_20,2,memory-2step-stake-s,694,2836758,0.0-18.0-0.1-0.202,4147,3,4
203,1,object_06,object_07,619.1700001,2,1,278.975,0.8888888888888888,2,object_04,5,3161,0,6,8,desert_23,2,memory-2step-stake-s,695,2845120,0.0-18.0-0.1-0.203,4147,2,1
204,4,object_02,object_01,848.11,7,1,308.91,0.5555555555555556,1,object_03,5,3186,0,5,8,restaurant_20,2,memory-2step-stake-s,696,2853191,0.0-18.0-0.1-0.204,4147,7,8
205,1,object_07,object_06,653.7700001000001,2,2,260.37,0.6666666666666666,2,object_04,5,3216,0,3,6,desert_25,2,memory-2step-stake-s,697,2861326,0.0-18.0-0.1-0.205,4147,1,2
206,4,object_02,object_01,936.7549999,7,1,406.235,0.2222222222222222,1,object_03,1,3218,0,2,2,restaurant_12,2,memory-2step-stake-s,698,2869180,0.0-18.0-0.1-0.206,4147,7,8
207,4,object_02,object_01,472.74,8,2,325.07499989999997,0.1111111111111111,2,object_04,1,3219,0,0,1,restaurant_17,2,memory-2step-stake-s,699,2876852,0.0-18.0-0.1-0.207,4147,7,8
208,1,object_06,object_07,443.405,2,1,254.025,0.1111111111111111,2,object_04,5,3224,0,4,1,desert_9,2,memory-2step-stake-s,700,2884445,0.0-18.0-0.1-0.208,4147,2,1
209,2,object_05,object_08,468.735,3,2,332.5350001,0.1111111111111111,1,object_03,5,3229,0,1,0,forest_19,2,memory-2step-stake-s,701,2892126,0.0-18.0-0.1-0.209,4147,4,3
210,2,object_08,object_05,627.0699999,4,2,303.7200001,0.1111111111111111,2,object_04,5,3234,0,1,1,forest_24,2,memory-2step-stake-s,702,2899780,0.0-18.0-0.1-0.210,4147,3,4
211,1,object_06,object_07,449.29,1,2,294.965,0.4444444444444444,1,object_03,5,3254,0,4,3,desert_15,2,memory-2step-stake-s,703,2907740,0.0-18.0-0.1-0.211,4147,2,1
212,2,object_05,object_08,467.43,3,2,290.85,0.8888888888888888,1,object_03,1,3262,0,8,3,forest_15,2,memory-2step-stake-s,704,2916126,0.0-18.0-0.1-0.212,4147,4,3
213,3,object_10,object_09,1301.3,5,1,325.085,0.8888888888888888,1,object_03,1,3270,0,8,6,library_20,2,memory-2step-stake-s,705,2924546,0.0-18.0-0.1-0.213,4147,5,6
214,4,object_02,object_01,607.3749999,7,1,312.5999999,0.8888888888888888,1,object_03,1,3278,0,8,7,restaurant_4,2,memory-2step-stake-s,706,2932940,0.0-18.0-0.1-0.214,4147,7,8
215,4,object_01,object_02,489.95,8,1,266.15,0.7777777777777778,2,object_04,5,3313,0,6,7,restaurant_4,2,memory-2step-stake-s,707,2941193,0.0-18.0-0.1-0.215,4147,8,7
216,1,object_07,object_06,527.5750001,1,1,189.65,0.7777777777777778,1,object_03,5,3348,0,7,8,desert_15,2,memory-2step-stake-s,708,2949364,0.0-18.0-0.1-0.216,4147,1,2
217,3,object_09,object_10,658.54,6,1,309.8350001,0.7777777777777778,2,object_04,1,3355,0,7,7,library_25,2,memory-2step-stake-s,709,2957649,0.0-18.0-0.1-0.217,4147,6,5
218,1,object_06,object_07,390.8599999,1,2,256.2149999,0.7777777777777778,1,object_03,5,3390,0,7,8,desert_23,2,memory-2step-stake-s,710,2965877,0.0-18.0-0.1-0.218,4147,2,1
219,1,object_06,object_07,414.3150001,1,2,290.9,0.7777777777777778,1,object_03,5,3425,0,7,8,desert_32,2,memory-2step-stake-s,711,2974131,0.0-18.0-0.1-0.219,4147,2,1
220,3,object_10,object_09,553.77,5,1,247.4549999,0.6666666666666666,1,object_03,1,3431,0,6,8,library_10,2,memory-2step-stake-s,712,2982251,0.0-18.0-0.1-0.220,4147,5,6
221,1,object_06,object_07,389.75,1,2,207.13,0.5555555555555556,1,object_03,5,3456,0,5,8,desert_9,2,memory-2step-stake-s,713,2990210,0.0-18.0-0.1-0.221,4147,2,1
222,4,object_01,object_02,506.195,8,1,248.245,0.6666666666666666,2,object_04,1,3462,0,6,6,restaurant_18,2,memory-2step-stake-s,714,2998330,0.0-18.0-0.1-0.222,4147,8,7
223,3,object_09,object_10,841.9550001,5,2,344.6299999,0.2222222222222222,1,object_03,5,3472,0,2,9,library_3,2,memory-2step-stake-s,715,3006128,0.0-18.0-0.1-0.223,4147,6,5
224,1,object_06,object_07,485.8,2,1,226.99,1.0,2,object_04,1,3481,0,3,9,desert_18,2,memory-2step-stake-s,716,3014539,0.0-18.0-0.1-0.224,4147,2,1
225,1,object_07,object_06,500.385,2,2,254.325,0.8888888888888888,2,object_04,5,3521,0,3,8,desert_15,2,memory-2step-stake-s,717,3022872,0.0-18.0-0.1-0.225,4147,1,2
226,2,object_05,object_08,770.625,3,2,401.6199999,0.7777777777777778,1,object_03,1,3528,0,7,6,forest_5,2,memory-2step-stake-s,718,3031237,0.0-18.0-0.1-0.226,4147,4,3
227,1,object_07,object_06,621.265,1,1,290.82499989999997,0.7777777777777778,1,object_03,5,3563,0,7,3,desert_32,2,memory-2step-stake-s,719,3039506,0.0-18.0-0.1-0.227,4147,1,2
228,3,object_09,object_10,529.655,6,1,258.9049999,0.2222222222222222,2,object_04,1,3565,0,8,2,library_30,2,memory-2step-stake-s,720,3047223,0.0-18.0-0.1-0.228,4147,6,5
229,3,object_09,object_10,585.4549999,5,2,291.8100001,0.8888888888888888,1,object_03,5,3605,0,8,0,library_30,2,memory-2step-stake-s,721,3055583,0.0-18.0-0.1-0.229,4147,6,5
230,4,object_01,object_02,705.905,8,1,269.09,0.1111111111111111,2,object_04,1,3606,0,7,1,restaurant_13,2,memory-2step-stake-s,722,3063196,0.0-18.0-0.1-0.230,4147,8,7
231,4,object_01,object_02,556.065,7,2,267.0,0.6666666666666666,1,object_03,1,3612,0,6,5,restaurant_17,2,memory-2step-stake-s,723,3071345,0.0-18.0-0.1-0.231,4147,8,7
232,3,object_10,object_09,509.52,5,1,282.23,0.7777777777777778,1,object_03,1,3619,0,7,6,library_27,2,memory-2step-stake-s,724,3079611,0.0-18.0-0.1-0.232,4147,5,6
233,3,object_09,object_10,493.48500010000004,5,2,282.20499989999996,1.0,1,object_03,1,3628,0,9,7,library_25,2,memory-2step-stake-s,725,3088082,0.0-18.0-0.1-0.233,4147,6,5
234,2,object_08,object_05,459.155,3,1,294.37,0.6666666666666666,1,object_03,5,3658,0,6,6,forest_3,2,memory-2step-stake-s,726,3096247,0.0-18.0-0.1-0.234,4147,3,4
235,2,object_05,object_08,539.8199999,4,1,311.955,0.4444444444444444,2,object_04,1,3662,0,8,4,forest_15,2,memory-2step-stake-s,727,3104226,0.0-18.0-0.1-0.235,4147,4,3
236,3,object_09,object_10,539.585,6,1,439.76499989999996,0.6666666666666666,2,object_04,1,3668,0,5,6,library_21,2,memory-2step-stake-s,728,3112541,0.0-18.0-0.1-0.236,4147,6,5
237,1,object_06,object_07,531.665,2,1,305.135,0.6666666666666666,2,object_04,1,3674,0,7,6,desert_32,2,memory-2step-stake-s,729,3120716,0.0-18.0-0.1-0.237,4147,2,1
238,3,object_10,object_09,487.045,5,1,269.63,0.4444444444444444,1,object_03,5,3694,0,4,7,library_20,2,memory-2step-stake-s,730,3128641,0.0-18.0-0.1-0.238,4147,5,6
239,3,object_10,object_09,425.34,5,1,264.4400001,0.5555555555555556,1,object_03,1,3699,0,5,4,library_23,2,memory-2step-stake-s,731,3136684,0.0-18.0-0.1-0.239,4147,5,6
240,2,object_05,object_08,431.585,3,2,265.44999989999997,0.6666666666666666,1,object_03,5,3729,0,6,3,forest_2,2,memory-2step-stake-s,732,3144827,0.0-18.0-0.1-0.240,4147,4,3
241,2,object_05,object_08,413.3799999,3,2,238.885,0.6666666666666666,1,object_03,5,3759,0,6,3,forest_3,2,memory-2step-stake-s,733,3152935,0.0-18.0-0.1-0.241,4147,4,3
242,4,object_02,object_01,454.6299999,8,2,222.0800001,0.1111111111111111,2,object_04,1,3760,0,6,1,restaurant_4,2,memory-2step-stake-s,734,3160497,0.0-18.0-0.1-0.242,4147,7,8
243,4,object_02,object_01,657.38,7,1,353.67000010000004,0.5555555555555556,1,object_03,1,3765,0,5,0,restaurant_11,2,memory-2step-stake-s,735,3168624,0.0-18.0-0.1-0.243,4147,7,8
244,1,object_07,object_06,465.265,1,1,253.01,0.5555555555555556,1,object_03,5,3790,0,5,5,desert_14,2,memory-2step-stake-s,736,3176636,0.0-18.0-0.1-0.244,4147,1,2
245,3,object_10,object_09,425.83,5,1,303.3149999,0.5555555555555556,1,object_03,5,3815,0,5,2,library_1,2,memory-2step-stake-s,737,3184706,0.0-18.0-0.1-0.245,4147,5,6
246,2,object_08,object_05,528.4950001,4,2,215.9200001,0.2222222222222222,2,object_04,1,3817,0,6,2,forest_8,2,memory-2step-stake-s,738,3192376,0.0-18.0-0.1-0.246,4147,3,4
247,3,object_09,object_10,588.125,5,2,363.35,0.2222222222222222,1,object_03,1,3819,0,2,2,library_32,2,memory-2step-stake-s,739,3200193,0.0-18.0-0.1-0.247,4147,6,5
248,1,object_06,object_07,446.735,1,2,250.1750001,0.4444444444444444,1,object_03,5,3839,0,4,4,desert_19,2,memory-2step-stake-s,740,3208097,0.0-18.0-0.1-0.248,4147,2,1
249,4,object_01,object_02,666.675,8,1,244.575,0.4444444444444444,2,object_04,1,3843,0,1,4,restaurant_11,2,memory-2step-stake-s,741,3215991,0.0-18.0-0.1-0.249,4147,8,7
250,2,object_08,object_05,506.19,3,1,248.2649999,0.1111111111111111,1,object_03,5,3848,0,1,7,forest_5,2,memory-2step-stake-s,742,3223582,0.0-18.0-0.1-0.250,4147,3,4
251,2,object_08,object_05,594.3550001,3,1,277.055,0.0,1,object_03,5,3848,0,0,8,forest_2,2,memory-2step-stake-s,743,3231101,0.0-18.0-0.1-0.251,4147,3,4
252,2,object_05,object_08,573.6649999,4,1,229.145,0.7777777777777778,2,object_04,5,3883,0,2,7,forest_32,2,memory-2step-stake-s,744,3239302,0.0-18.0-0.1-0.252,4147,4,3
253,1,object_07,object_06,658.975,2,2,287.965,0.6666666666666666,2,object_04,1,3889,0,0,6,desert_8,2,memory-2step-stake-s,745,3247460,0.0-18.0-0.1-0.253,4147,1,2
254,4,object_01,object_02,649.115,8,1,242.855,0.8888888888888888,2,object_04,5,3929,0,2,8,restaurant_18,2,memory-2step-stake-s,746,3255798,0.0-18.0-0.1-0.254,4147,8,7
255,2,object_05,object_08,462.57,4,1,265.62,0.7777777777777778,2,object_04,5,3964,0,2,7,forest_10,2,memory-2step-stake-s,747,3264043,0.0-18.0-0.1-0.255,4147,4,3
