,state1,stim_left,stim_right,rt_1,choice1,response1,rt_2,points,state2,stim_state2,stake,score,practice,rews1,rews2,background,high_arm,trial_type,trial_index,time_elapsed,internal_node_id,subid,stim_left_num,stim_right_num
0,3,object_08,object_05,773.4350001,6,1,-1.0,0.0,2,object_02,1,0,0,4,2,library_14,2,memory-2step-stake-s,499,979461,0.0-18.0-0.0-0.0,4222,6,5
1,2,object_07,object_01,492.2100001,4,2,415.7100001,0.1111111111111111,2,object_02,5,5,0,3,1,forest_27,2,memory-2step-stake-s,500,987205,0.0-18.0-0.0-0.1,4222,3,4
2,2,object_01,object_07,510.455,4,1,582.4200001,0.0,2,object_02,1,5,0,5,0,forest_31,2,memory-2step-stake-s,501,995013,0.0-18.0-0.0-0.2,4222,4,3
3,3,object_05,object_08,602.46,6,2,1364.89,0.0,2,object_02,1,5,0,4,0,library_19,2,memory-2step-stake-s,502,1003605,0.0-18.0-0.0-0.3,4222,5,6
4,3,object_05,object_08,976.6499999,5,1,730.86,0.3333333333333333,1,object_06,1,8,0,3,2,library_20,2,memory-2step-stake-s,503,1011867,0.0-18.0-0.0-0.4,4222,5,6
5,4,object_10,object_04,626.3100002,7,2,734.99,0.6666666666666666,1,object_06,5,38,0,6,5,restaurant_6,2,memory-2step-stake-s,504,1020445,0.0-18.0-0.0-0.5,4222,8,7
6,1,object_09,object_03,479.2849999,2,1,486.85999979999997,0.4444444444444444,2,object_02,5,58,0,7,4,desert_16,2,memory-2step-stake-s,505,1028566,0.0-18.0-0.0-0.6,4222,2,1
7,2,object_01,object_07,561.13,3,2,438.755,0.6666666666666666,1,object_06,1,64,0,6,2,forest_26,2,memory-2step-stake-s,506,1036849,0.0-18.0-0.0-0.7,4222,4,3
8,1,object_03,object_09,603.2750001,2,2,566.14,0.4444444444444444,2,object_02,5,84,0,5,4,desert_26,2,memory-2step-stake-s,507,1045047,0.0-18.0-0.0-0.8,4222,1,2
9,1,object_09,object_03,759.0949999,1,2,690.2350001,0.4444444444444444,1,object_06,5,104,0,4,5,desert_22,2,memory-2step-stake-s,508,1053367,0.0-18.0-0.0-0.9,4222,2,1
10,2,object_01,object_07,414.3950001,4,1,495.3950001,0.7777777777777778,2,object_02,5,139,0,5,7,forest_27,2,memory-2step-stake-s,509,1061799,0.0-18.0-0.0-0.10,4222,4,3
11,3,object_05,object_08,538.1700001,6,2,391.265,0.7777777777777778,2,object_02,5,174,0,4,7,library_15,2,memory-2step-stake-s,510,1070119,0.0-18.0-0.0-0.11,4222,5,6
12,4,object_04,object_10,952.5349999,8,2,741.505,1.0,2,object_02,5,219,0,5,9,restaurant_31,2,memory-2step-stake-s,511,1079004,0.0-18.0-0.0-0.12,4222,7,8
13,3,object_08,object_05,720.0449997999999,5,2,316.05500010000003,0.8888888888888888,1,object_06,1,227,0,8,9,library_31,2,memory-2step-stake-s,512,1087368,0.0-18.0-0.0-0.13,4222,6,5
14,4,object_04,object_10,580.5549999,8,2,522.2149999,0.8888888888888888,2,object_02,1,235,0,7,8,restaurant_6,2,memory-2step-stake-s,513,1095939,0.0-18.0-0.0-0.14,4222,7,8
15,1,object_03,object_09,543.915,1,1,542.4200001,1.0,1,object_06,1,244,0,9,9,desert_7,2,memory-2step-stake-s,514,1104627,0.0-18.0-0.0-0.15,4222,1,2
16,3,object_05,object_08,473.035,6,2,322.41,0.7777777777777778,2,object_02,1,251,0,8,7,library_6,2,memory-2step-stake-s,515,1112883,0.0-18.0-0.0-0.16,4222,5,6
17,1,object_03,object_09,853.9399998,2,2,680.7849999,0.6666666666666666,2,object_02,5,281,0,8,6,desert_28,2,memory-2step-stake-s,516,1121406,0.0-18.0-0.0-0.17,4222,1,2
18,4,object_04,object_10,646.01,8,2,412.9299999,0.8888888888888888,2,object_02,1,289,0,8,8,restaurant_7,2,memory-2step-stake-s,517,1129865,0.0-18.0-0.0-0.18,4222,7,8
19,3,object_08,object_05,758.8800001,5,2,867.7600001000001,1.0,1,object_06,5,334,0,9,9,library_4,2,memory-2step-stake-s,518,1138880,0.0-18.0-0.0-0.19,4222,6,5
20,4,object_04,object_10,730.8100001,7,1,405.06999989999997,0.7777777777777778,1,object_06,1,341,0,7,9,restaurant_15,2,memory-2step-stake-s,519,1147220,0.0-18.0-0.0-0.20,4222,7,8
21,1,object_03,object_09,653.16,1,1,470.285,0.7777777777777778,1,object_06,5,376,0,7,6,desert_8,2,memory-2step-stake-s,520,1155634,0.0-18.0-0.0-0.21,4222,1,2
22,1,object_09,object_03,574.4949998,1,2,434.1599999,0.8888888888888888,1,object_06,5,416,0,8,2,desert_10,2,memory-2step-stake-s,521,1164120,0.0-18.0-0.0-0.22,4222,2,1
23,2,object_01,object_07,605.86,3,2,407.7949999,0.5555555555555556,1,object_06,5,441,0,5,0,forest_20,2,memory-2step-stake-s,522,1172267,0.0-18.0-0.0-0.23,4222,4,3
24,1,object_09,object_03,823.1200001,2,1,415.2250001,0.1111111111111111,2,object_02,1,442,0,4,1,desert_5,2,memory-2step-stake-s,523,1180005,0.0-18.0-0.0-0.24,4222,2,1
25,3,object_08,object_05,702.4349999,5,2,369.9299998,0.4444444444444444,1,object_06,1,446,0,4,3,library_8,2,memory-2step-stake-s,524,1188011,0.0-18.0-0.0-0.25,4222,6,5
26,4,object_10,object_04,935.9799998,8,1,540.2899999,0.2222222222222222,2,object_02,1,448,0,2,2,restaurant_6,2,memory-2step-stake-s,525,1195995,0.0-18.0-0.0-0.26,4222,8,7
27,2,object_01,object_07,656.4150001,3,2,454.9400001,0.5555555555555556,1,object_06,5,473,0,5,1,forest_14,2,memory-2step-stake-s,526,1204182,0.0-18.0-0.0-0.27,4222,4,3
28,1,object_09,object_03,623.3999999,1,2,436.69499989999997,0.6666666666666666,1,object_06,1,479,0,6,1,desert_13,2,memory-2step-stake-s,527,1212465,0.0-18.0-0.0-0.28,4222,2,1
29,1,object_03,object_09,642.6499997999999,1,1,555.5449999,0.7777777777777778,1,object_06,5,514,0,7,2,desert_5,2,memory-2step-stake-s,528,1220961,0.0-18.0-0.0-0.29,4222,1,2
30,1,object_03,object_09,496.305,2,2,390.2449999,0.4444444444444444,2,object_02,1,518,0,7,4,desert_7,2,memory-2step-stake-s,529,1228995,0.0-18.0-0.0-0.30,4222,1,2
31,1,object_03,object_09,494.42500020000006,1,1,976.3900002,0.7777777777777778,1,object_06,1,525,0,7,2,desert_19,2,memory-2step-stake-s,530,1237922,0.0-18.0-0.0-0.31,4222,1,2
32,3,object_05,object_08,720.2899999,5,1,801.6600001,1.0,1,object_06,1,534,0,9,3,library_6,2,memory-2step-stake-s,531,1246861,0.0-18.0-0.0-0.32,4222,5,6
33,4,object_04,object_10,740.2550001,7,1,434.69,0.8888888888888888,1,object_06,1,542,0,8,1,restaurant_28,2,memory-2step-stake-s,532,1255341,0.0-18.0-0.0-0.33,4222,7,8
34,4,object_04,object_10,609.04,8,2,432.95,0.3333333333333333,2,object_02,1,545,0,7,3,restaurant_8,2,memory-2step-stake-s,533,1263309,0.0-18.0-0.0-0.34,4222,7,8
35,1,object_03,object_09,583.5550001,1,1,717.6450002,0.7777777777777778,1,object_06,5,580,0,7,4,desert_28,2,memory-2step-stake-s,534,1271971,0.0-18.0-0.0-0.35,4222,1,2
36,1,object_09,object_03,576.5450001,1,2,506.7200002,0.8888888888888888,1,object_06,1,588,0,8,5,desert_2,2,memory-2step-stake-s,535,1280520,0.0-18.0-0.0-0.36,4222,2,1
37,2,object_07,object_01,629.4100001,3,1,647.6050001,0.7777777777777778,1,object_06,5,623,0,7,1,forest_24,2,memory-2step-stake-s,536,1289107,0.0-18.0-0.0-0.37,4222,3,4
38,2,object_01,object_07,574.5950001,4,1,414.2150001,0.0,2,object_02,1,623,0,6,0,forest_30,2,memory-2step-stake-s,537,1296745,0.0-18.0-0.0-0.38,4222,4,3
39,4,object_04,object_10,624.1049998999999,7,1,413.4849999,0.6666666666666666,1,object_06,1,629,0,6,2,restaurant_2,2,memory-2step-stake-s,538,1305004,0.0-18.0-0.0-0.39,4222,7,8
40,3,object_05,object_08,654.715,5,1,428.0649999,0.2222222222222222,1,object_06,1,631,0,2,2,library_14,2,memory-2step-stake-s,539,1312867,0.0-18.0-0.0-0.40,4222,5,6
41,1,object_03,object_09,565.3949999,2,2,443.155,0.2222222222222222,2,object_02,5,641,0,0,2,desert_13,2,memory-2step-stake-s,540,1320751,0.0-18.0-0.0-0.41,4222,1,2
42,4,object_04,object_10,629.9999999,7,1,419.31,0.1111111111111111,1,object_06,5,646,0,1,1,restaurant_17,2,memory-2step-stake-s,541,1328501,0.0-18.0-0.0-0.42,4222,7,8
43,2,object_01,object_07,630.8200001,3,2,428.535,0.1111111111111111,1,object_06,1,647,0,1,1,forest_29,2,memory-2step-stake-s,542,1336261,0.0-18.0-0.0-0.43,4222,4,3
44,2,object_01,object_07,458.5899999,4,1,474.35,0.1111111111111111,2,object_02,5,652,0,1,1,forest_14,2,memory-2step-stake-s,543,1344064,0.0-18.0-0.0-0.44,4222,4,3
45,2,object_07,object_01,603.9349998,4,2,368.01499989999996,0.1111111111111111,2,object_02,5,657,0,0,1,forest_30,2,memory-2step-stake-s,544,1351760,0.0-18.0-0.0-0.45,4222,3,4
46,4,object_10,object_04,662.7450001,8,1,334.1250001,0.1111111111111111,2,object_02,5,662,0,1,1,restaurant_27,2,memory-2step-stake-s,545,1359429,0.0-18.0-0.0-0.46,4222,8,7
47,2,object_07,object_01,691.415,3,1,434.7600001,0.5555555555555556,1,object_06,1,667,0,5,0,forest_19,2,memory-2step-stake-s,546,1367606,0.0-18.0-0.0-0.47,4222,3,4
48,4,object_10,object_04,625.495,7,2,409.93000010000003,0.6666666666666666,1,object_06,1,673,0,6,3,restaurant_23,2,memory-2step-stake-s,547,1375857,0.0-18.0-0.0-0.48,4222,8,7
49,2,object_01,object_07,778.7349998999999,3,2,412.32499989999997,0.5555555555555556,1,object_06,5,698,0,5,7,forest_32,2,memory-2step-stake-s,548,1384005,0.0-18.0-0.0-0.49,4222,4,3
50,1,object_09,object_03,598.4499999,1,2,1399.655,0.8888888888888888,1,object_06,5,738,0,8,6,desert_26,2,memory-2step-stake-s,549,1393452,0.0-18.0-0.0-0.50,4222,2,1
51,4,object_10,object_04,624.875,7,2,591.7699997999999,0.6666666666666666,1,object_06,5,768,0,6,3,restaurant_30,2,memory-2step-stake-s,550,1401884,0.0-18.0-0.0-0.51,4222,8,7
52,4,object_10,object_04,597.2750001,7,2,413.585,0.5555555555555556,1,object_06,1,773,0,5,3,restaurant_14,2,memory-2step-stake-s,551,1410044,0.0-18.0-0.0-0.52,4222,8,7
53,2,object_01,object_07,734.3499998,4,1,358.675,0.3333333333333333,2,object_02,5,788,0,7,3,forest_3,2,memory-2step-stake-s,552,1417935,0.0-18.0-0.0-0.53,4222,4,3
54,4,object_04,object_10,731.7700002,7,1,363.69,0.7777777777777778,1,object_06,1,795,0,7,2,restaurant_28,2,memory-2step-stake-s,553,1426242,0.0-18.0-0.0-0.54,4222,7,8
55,3,object_08,object_05,676.34,5,2,474.6099999,0.6666666666666666,1,object_06,1,801,0,6,1,library_12,2,memory-2step-stake-s,554,1434565,0.0-18.0-0.0-0.55,4222,6,5
56,4,object_04,object_10,559.3999999,7,1,890.805,0.4444444444444444,1,object_06,1,805,0,4,1,restaurant_8,2,memory-2step-stake-s,555,1443090,0.0-18.0-0.0-0.56,4222,7,8
57,3,object_08,object_05,809.325,5,2,350.1550001,0.2222222222222222,1,object_06,5,815,0,2,3,library_1,2,memory-2step-stake-s,556,1450867,0.0-18.0-0.0-0.57,4222,6,5
58,2,object_01,object_07,717.985,4,1,415.025,0.1111111111111111,2,object_02,5,820,0,3,1,forest_20,2,memory-2step-stake-s,557,1458611,0.0-18.0-0.0-0.58,4222,4,3
59,4,object_04,object_10,750.25,7,1,454.30500010000003,0.1111111111111111,1,object_06,1,821,0,1,4,restaurant_1,2,memory-2step-stake-s,558,1466393,0.0-18.0-0.0-0.59,4222,7,8
60,2,object_07,object_01,773.5000001,4,2,669.2899999,0.5555555555555556,2,object_02,5,846,0,2,5,forest_31,2,memory-2step-stake-s,559,1474793,0.0-18.0-0.0-0.60,4222,3,4
61,4,object_10,object_04,613.69,8,1,442.5850001,0.5555555555555556,2,object_02,1,851,0,7,5,restaurant_23,2,memory-2step-stake-s,560,1482980,0.0-18.0-0.0-0.61,4222,8,7
62,2,object_01,object_07,834.8350001,4,1,926.8700001,0.8888888888888888,2,object_02,5,891,0,6,8,forest_7,2,memory-2step-stake-s,561,1491961,0.0-18.0-0.0-0.62,4222,4,3
63,3,object_05,object_08,-1.0,-1,-1,-1.0,0.0,-,,1,891,0,6,8,library_20,2,memory-2step-stake-s,562,1498484,0.0-18.0-0.0-0.63,4222,5,6
64,4,object_04,object_10,826.57,8,2,-1.0,0.0,2,object_02,5,891,0,5,7,restaurant_4,2,memory-2step-stake-s,563,1507016,0.0-18.0-0.0-0.64,4222,7,8
65,3,object_08,object_05,721.7399998999999,6,1,778.4500001,0.8888888888888888,2,object_02,1,899,0,7,8,library_27,2,memory-2step-stake-s,564,1515834,0.0-18.0-0.0-0.65,4222,6,5
66,4,object_04,object_10,393.8150001,8,2,558.705,1.0,2,object_02,1,908,0,6,9,restaurant_12,2,memory-2step-stake-s,565,1524538,0.0-18.0-0.0-0.66,4222,7,8
67,4,object_04,object_10,478.02,8,2,828.9600001,1.0,2,object_02,1,917,0,5,9,restaurant_14,2,memory-2step-stake-s,566,1533515,0.0-18.0-0.0-0.67,4222,7,8
68,4,object_10,object_04,807.54,8,1,1025.675,0.7777777777777778,2,object_02,1,924,0,6,7,restaurant_2,2,memory-2step-stake-s,567,1542495,0.0-18.0-0.0-0.68,4222,8,7
69,1,object_09,object_03,623.0050002,2,1,431.265,1.0,2,object_02,5,969,0,4,9,desert_10,2,memory-2step-stake-s,568,1551067,0.0-18.0-0.0-0.69,4222,2,1
70,3,object_08,object_05,576.745,6,1,495.42500010000003,0.8888888888888888,2,object_02,1,977,0,5,8,library_27,2,memory-2step-stake-s,569,1559595,0.0-18.0-0.0-0.70,4222,6,5
71,4,object_10,object_04,511.375,8,1,433.035,0.7777777777777778,2,object_02,5,1012,0,4,7,restaurant_4,2,memory-2step-stake-s,570,1567974,0.0-18.0-0.0-0.71,4222,8,7
72,2,object_07,object_01,870.2800001,3,1,573.42,0.2222222222222222,1,object_06,5,1022,0,2,6,forest_28,2,memory-2step-stake-s,571,1575975,0.0-18.0-0.0-0.72,4222,3,4
73,2,object_01,object_07,557.8599998,3,2,460.1149999,0.3333333333333333,1,object_06,5,1037,0,3,5,forest_32,2,memory-2step-stake-s,572,1583970,0.0-18.0-0.0-0.73,4222,4,3
74,4,object_10,object_04,807.9050002,8,1,464.64499989999996,0.3333333333333333,2,object_02,1,1040,0,7,3,restaurant_30,2,memory-2step-stake-s,573,1591970,0.0-18.0-0.0-0.74,4222,8,7
75,3,object_05,object_08,1313.825,5,1,500.46,0.6666666666666666,1,object_06,5,1070,0,6,2,library_28,2,memory-2step-stake-s,574,1600322,0.0-18.0-0.0-0.75,4222,5,6
76,1,object_09,object_03,653.9750001,1,2,483.1699999,0.7777777777777778,1,object_06,5,1105,0,7,3,desert_30,2,memory-2step-stake-s,575,1608766,0.0-18.0-0.0-0.76,4222,2,1
77,2,object_01,object_07,918.0800002000001,3,2,409.0700001,0.8888888888888888,1,object_06,1,1113,0,8,3,forest_20,2,memory-2step-stake-s,576,1617227,0.0-18.0-0.0-0.77,4222,4,3
78,3,object_08,object_05,717.6349999,5,2,431.075,0.8888888888888888,1,object_06,1,1121,0,8,4,library_19,2,memory-2step-stake-s,577,1625709,0.0-18.0-0.0-0.78,4222,6,5
79,4,object_04,object_10,633.3299999,7,1,351.55500010000003,0.7777777777777778,1,object_06,5,1156,0,7,2,restaurant_23,2,memory-2step-stake-s,578,1634012,0.0-18.0-0.0-0.79,4222,7,8
80,2,object_01,object_07,725.66,3,2,433.89,0.8888888888888888,1,object_06,5,1196,0,8,4,forest_18,2,memory-2step-stake-s,579,1642499,0.0-18.0-0.0-0.80,4222,4,3
81,4,object_04,object_10,678.4400002,7,1,1162.505,1.0,1,object_06,5,1241,0,9,0,restaurant_23,2,memory-2step-stake-s,580,1651817,0.0-18.0-0.0-0.81,4222,7,8
82,2,object_01,object_07,764.9049999,3,2,939.2049999,0.8888888888888888,1,object_06,5,1281,0,8,0,forest_26,2,memory-2step-stake-s,581,1660819,0.0-18.0-0.0-0.82,4222,4,3
83,1,object_09,object_03,558.1450001000001,1,2,555.1800001,0.6666666666666666,1,object_06,1,1287,0,6,2,desert_27,2,memory-2step-stake-s,582,1669223,0.0-18.0-0.0-0.83,4222,2,1
84,1,object_09,object_03,489.205,1,2,595.1650001,0.7777777777777778,1,object_06,1,1294,0,7,5,desert_20,2,memory-2step-stake-s,583,1677786,0.0-18.0-0.0-0.84,4222,2,1
85,3,object_05,object_08,-1.0,-1,-1,-1.0,0.0,-,,1,1294,0,8,8,library_8,2,memory-2step-stake-s,584,1684309,0.0-18.0-0.0-0.85,4222,5,6
86,2,object_07,object_01,967.7800001,3,1,1114.65,0.7777777777777778,1,object_06,5,1329,0,7,6,forest_29,2,memory-2step-stake-s,585,1693365,0.0-18.0-0.0-0.86,4222,3,4
87,1,object_09,object_03,613.8599998999999,1,2,489.4700001,0.6666666666666666,1,object_06,5,1359,0,6,4,desert_32,2,memory-2step-stake-s,586,1701701,0.0-18.0-0.0-0.87,4222,2,1
88,2,object_01,object_07,743.585,4,1,446.6649999,0.1111111111111111,2,object_02,5,1364,0,5,1,forest_17,2,memory-2step-stake-s,587,1709480,0.0-18.0-0.0-0.88,4222,4,3
89,3,object_05,object_08,590.1499997999999,5,1,427.79000010000004,0.7777777777777778,1,object_06,1,1371,0,7,2,library_28,2,memory-2step-stake-s,588,1717846,0.0-18.0-0.0-0.89,4222,5,6
90,3,object_08,object_05,692.7750001,5,2,758.8,0.6666666666666666,1,object_06,5,1401,0,6,3,library_4,2,memory-2step-stake-s,589,1726455,0.0-18.0-0.0-0.90,4222,6,5
91,3,object_08,object_05,1055.91,5,2,463.455,0.4444444444444444,1,object_06,5,1421,0,4,6,library_11,2,memory-2step-stake-s,590,1734560,0.0-18.0-0.0-0.91,4222,6,5
92,2,object_01,object_07,640.3000001,4,1,450.3900001,0.5555555555555556,2,object_02,5,1446,0,0,5,forest_7,2,memory-2step-stake-s,591,1742750,0.0-18.0-0.0-0.92,4222,4,3
93,2,object_07,object_01,649.0150001000001,4,2,547.4999999,0.8888888888888888,2,object_02,5,1486,0,1,8,forest_24,2,memory-2step-stake-s,592,1751367,0.0-18.0-0.0-0.93,4222,3,4
94,1,object_09,object_03,734.3299999,2,1,402.485,0.3333333333333333,2,object_02,1,1489,0,3,3,desert_30,2,memory-2step-stake-s,593,1759307,0.0-18.0-0.0-0.94,4222,2,1
95,2,object_01,object_07,696.3899999,3,2,488.715,0.8888888888888888,1,object_06,5,1529,0,8,3,forest_3,2,memory-2step-stake-s,594,1767842,0.0-18.0-0.0-0.95,4222,4,3
96,4,object_04,object_10,1374.295,7,1,463.885,0.8888888888888888,1,object_06,5,1569,0,8,1,restaurant_4,2,memory-2step-stake-s,595,1776365,0.0-18.0-0.0-0.96,4222,7,8
97,2,object_07,object_01,934.1200001,3,1,476.155,0.8888888888888888,1,object_06,5,1609,0,8,0,forest_17,2,memory-2step-stake-s,596,1784888,0.0-18.0-0.0-0.97,4222,3,4
98,1,object_09,object_03,638.3849999,1,2,416.7150001,1.0,1,object_06,5,1654,0,9,1,desert_8,2,memory-2step-stake-s,597,1793471,0.0-18.0-0.0-0.98,4222,2,1
99,2,object_01,object_07,956.4350001,3,2,-1.0,0.0,1,object_06,5,1654,0,5,0,forest_26,2,memory-2step-stake-s,598,1802005,0.0-18.0-0.0-0.99,4222,4,3
100,1,object_09,object_03,-1.0,-1,-1,-1.0,0.0,-,,5,1654,0,6,0,desert_22,2,memory-2step-stake-s,599,1808526,0.0-18.0-0.0-0.100,4222,2,1
101,4,object_04,object_10,-1.0,-1,-1,-1.0,0.0,-,,1,1654,0,9,2,restaurant_26,2,memory-2step-stake-s,600,1815048,0.0-18.0-0.0-0.101,4222,7,8
102,3,object_05,object_08,715.3650001,6,2,-1.0,0.0,2,object_02,1,1654,0,7,0,library_1,2,memory-2step-stake-s,601,1823582,0.0-18.0-0.0-0.102,4222,5,6
103,1,object_09,object_03,574.8350001,2,1,1155.725,0.0,2,object_02,5,1654,0,5,0,desert_20,2,memory-2step-stake-s,602,1831972,0.0-18.0-0.0-0.103,4222,2,1
104,3,object_08,object_05,737.9749999,5,2,-1.0,0.0,1,object_06,1,1654,0,3,1,library_6,2,memory-2step-stake-s,603,1840491,0.0-18.0-0.0-0.104,4222,6,5
105,1,object_09,object_03,575.5450001,1,2,452.055,0.5555555555555556,1,object_06,5,1679,0,5,1,desert_27,2,memory-2step-stake-s,604,1848687,0.0-18.0-0.0-0.105,4222,2,1
106,3,object_05,object_08,877.0599999,6,2,463.3599999,0.0,2,object_02,1,1679,0,5,0,library_9,2,memory-2step-stake-s,605,1856378,0.0-18.0-0.0-0.106,4222,5,6
107,3,object_08,object_05,592.1749999,5,2,425.75999979999995,0.7777777777777778,1,object_06,1,1686,0,7,2,library_31,2,memory-2step-stake-s,606,1864741,0.0-18.0-0.0-0.107,4222,6,5
108,3,object_05,object_08,510.39,5,1,602.4850002000001,1.0,1,object_06,5,1731,0,9,2,library_8,2,memory-2step-stake-s,607,1873482,0.0-18.0-0.0-0.108,4222,5,6
109,4,object_10,object_04,583.9450001,7,2,676.7199999,1.0,1,object_06,1,1740,0,9,5,restaurant_31,2,memory-2step-stake-s,608,1882298,0.0-18.0-0.0-0.109,4222,8,7
110,1,object_03,object_09,682.4649998,1,1,391.4949999,0.8888888888888888,1,object_06,1,1748,0,8,7,desert_16,2,memory-2step-stake-s,609,1890736,0.0-18.0-0.0-0.110,4222,1,2
111,2,object_01,object_07,582.0899999,3,2,447.4650002,0.6666666666666666,1,object_06,5,1778,0,6,9,forest_19,2,memory-2step-stake-s,610,1899026,0.0-18.0-0.0-0.111,4222,4,3
112,1,object_03,object_09,998.0849999,2,2,407.835,0.6666666666666666,2,object_02,5,1808,0,4,6,desert_19,2,memory-2step-stake-s,611,1907281,0.0-18.0-0.0-0.112,4222,1,2
113,3,object_05,object_08,822.16,6,2,455.8049999,0.5555555555555556,2,object_02,1,1813,0,2,5,library_11,2,memory-2step-stake-s,612,1915480,0.0-18.0-0.0-0.113,4222,5,6
114,1,object_03,object_09,553.4300001,1,1,407.0649999,0.3333333333333333,1,object_06,5,1828,0,3,6,desert_26,2,memory-2step-stake-s,613,1923420,0.0-18.0-0.0-0.114,4222,1,2
115,3,object_05,object_08,674.1249999,6,2,368.1000001,0.5555555555555556,2,object_02,1,1833,0,1,5,library_7,2,memory-2step-stake-s,614,1931521,0.0-18.0-0.0-0.115,4222,5,6
116,2,object_07,object_01,737.9649999,4,2,418.235,0.7777777777777778,2,object_02,5,1868,0,1,7,forest_7,2,memory-2step-stake-s,615,1939879,0.0-18.0-0.0-0.116,4222,3,4
117,2,object_01,object_07,573.66,4,1,588.46,0.7777777777777778,2,object_02,1,1875,0,1,7,forest_14,2,memory-2step-stake-s,616,1948407,0.0-18.0-0.0-0.117,4222,4,3
118,2,object_07,object_01,426.9950001,4,2,374.79500010000004,1.0,2,object_02,5,1920,0,1,9,forest_28,2,memory-2step-stake-s,617,1956935,0.0-18.0-0.0-0.118,4222,3,4
119,2,object_07,object_01,448.3500002,4,2,415.96500019999996,0.6666666666666666,2,object_02,1,1926,0,2,6,forest_28,2,memory-2step-stake-s,618,1965197,0.0-18.0-0.0-0.119,4222,3,4
120,4,object_10,object_04,837.4600001,8,1,589.31,0.7777777777777778,2,object_02,5,1961,0,2,7,restaurant_8,2,memory-2step-stake-s,619,1973730,0.0-18.0-0.0-0.120,4222,8,7
121,1,object_09,object_03,610.48,1,2,350.8900001,0.3333333333333333,1,object_06,5,1976,0,3,3,desert_16,2,memory-2step-stake-s,620,1981613,0.0-18.0-0.0-0.121,4222,2,1
122,2,object_01,object_07,632.9050001,4,1,385.2200001,0.4444444444444444,2,object_02,5,1996,0,3,4,forest_17,2,memory-2step-stake-s,621,1989635,0.0-18.0-0.0-0.122,4222,4,3
123,2,object_07,object_01,865.7250002000001,3,1,471.68999979999995,0.4444444444444444,1,object_06,5,2016,0,4,1,forest_1,2,memory-2step-stake-s,622,1997753,0.0-18.0-0.0-0.123,4222,3,4
124,1,object_09,object_03,1139.7,1,2,394.7399999,0.5555555555555556,1,object_06,5,2041,0,5,3,desert_28,2,memory-2step-stake-s,623,2005890,0.0-18.0-0.0-0.124,4222,2,1
125,2,object_01,object_07,931.3400001,3,2,356.1,0.5555555555555556,1,object_06,5,2066,0,5,4,forest_32,2,memory-2step-stake-s,624,2013990,0.0-18.0-0.0-0.125,4222,4,3
126,3,object_05,object_08,621.7050001,5,1,411.66,0.8888888888888888,1,object_06,1,2074,0,8,6,library_11,2,memory-2step-stake-s,625,2022452,0.0-18.0-0.0-0.126,4222,5,6
127,1,object_09,object_03,466.915,1,2,375.185,0.6666666666666666,1,object_06,1,2080,0,6,8,desert_8,2,memory-2step-stake-s,626,2030672,0.0-18.0-0.0-0.127,4222,2,1
128,2,object_07,object_01,1041.685,3,1,656.3800001,0.4444444444444444,1,object_06,5,2100,0,4,4,forest_29,2,memory-2step-stake-s,628,2117490,0.0-18.0-0.1-0.128,4222,3,4
129,2,object_01,object_07,1009.88,4,1,694.715,0.1111111111111111,2,object_02,1,2101,0,3,1,forest_3,2,memory-2step-stake-s,629,2125511,0.0-18.0-0.1-0.129,4222,4,3
130,1,object_09,object_03,702.03,1,2,718.08,0.7777777777777778,1,object_06,5,2136,0,7,2,desert_32,2,memory-2step-stake-s,630,2134167,0.0-18.0-0.1-0.130,4222,2,1
131,2,object_01,object_07,628.4749999,3,2,398.73,0.6666666666666666,1,object_06,1,2142,0,6,2,forest_1,2,memory-2step-stake-s,631,2142408,0.0-18.0-0.1-0.131,4222,4,3
132,4,object_04,object_10,732.1799998,7,1,478.9849999,0.4444444444444444,1,object_06,5,2162,0,4,2,restaurant_12,2,memory-2step-stake-s,632,2150535,0.0-18.0-0.1-0.132,4222,7,8
133,1,object_03,object_09,567.2300002000001,1,1,472.6199999,0.1111111111111111,1,object_06,5,2167,0,1,1,desert_2,2,memory-2step-stake-s,633,2158339,0.0-18.0-0.1-0.133,4222,1,2
134,2,object_07,object_01,741.495,4,2,518.6099998999999,0.1111111111111111,2,object_02,5,2172,0,3,1,forest_7,2,memory-2step-stake-s,634,2166190,0.0-18.0-0.1-0.134,4222,3,4
135,3,object_05,object_08,688.24,6,2,387.94,0.2222222222222222,2,object_02,1,2174,0,2,2,library_19,2,memory-2step-stake-s,635,2174003,0.0-18.0-0.1-0.135,4222,5,6
136,4,object_04,object_10,686.0800001,7,1,414.42,0.3333333333333333,1,object_06,1,2177,0,3,2,restaurant_17,2,memory-2step-stake-s,636,2181959,0.0-18.0-0.1-0.136,4222,7,8
137,3,object_08,object_05,650.895,6,1,429.9600001,0.1111111111111111,2,object_02,5,2182,0,2,1,library_19,2,memory-2step-stake-s,637,2189716,0.0-18.0-0.1-0.137,4222,6,5
138,4,object_04,object_10,715.575,7,1,424.4649999,0.0,1,object_06,1,2182,0,0,0,restaurant_15,2,memory-2step-stake-s,638,2197364,0.0-18.0-0.1-0.138,4222,7,8
139,4,object_10,object_04,742.6199999,8,1,574.5350001,0.2222222222222222,2,object_02,1,2184,0,3,2,restaurant_30,2,memory-2step-stake-s,639,2205380,0.0-18.0-0.1-0.139,4222,8,7
140,2,object_01,object_07,645.6199999,3,2,479.3749999,0.2222222222222222,1,object_06,5,2194,0,2,2,forest_31,2,memory-2step-stake-s,640,2213290,0.0-18.0-0.1-0.140,4222,4,3
141,3,object_05,object_08,973.6549999,5,1,591.4799998999999,0.3333333333333333,1,object_06,5,2209,0,3,7,library_20,2,memory-2step-stake-s,641,2221413,0.0-18.0-0.1-0.141,4222,5,6
142,1,object_03,object_09,865.4400001,1,1,661.4400002,0.3333333333333333,1,object_06,5,2224,0,3,4,desert_30,2,memory-2step-stake-s,642,2229616,0.0-18.0-0.1-0.142,4222,1,2
143,2,object_01,object_07,806.4250001,4,1,425.9349999,0.2222222222222222,2,object_02,1,2226,0,9,2,forest_14,2,memory-2step-stake-s,643,2237471,0.0-18.0-0.1-0.143,4222,4,3
144,4,object_10,object_04,762.26,7,2,1376.63,0.8888888888888888,1,object_06,1,2234,0,8,4,restaurant_27,2,memory-2step-stake-s,644,2246890,0.0-18.0-0.1-0.144,4222,8,7
145,4,object_10,object_04,632.365,7,2,446.2349999,0.6666666666666666,1,object_06,1,2240,0,6,3,restaurant_31,2,memory-2step-stake-s,645,2255174,0.0-18.0-0.1-0.145,4222,8,7
146,3,object_08,object_05,594.855,5,2,619.675,0.6666666666666666,1,object_06,1,2246,0,6,4,library_7,2,memory-2step-stake-s,646,2263638,0.0-18.0-0.1-0.146,4222,6,5
147,1,object_03,object_09,825.04,2,2,425.6200001,0.4444444444444444,2,object_02,1,2250,0,6,4,desert_20,2,memory-2step-stake-s,647,2271697,0.0-18.0-0.1-0.147,4222,1,2
148,4,object_04,object_10,964.8200001,7,1,688.7649999,0.8888888888888888,1,object_06,1,2258,0,8,4,restaurant_28,2,memory-2step-stake-s,648,2280438,0.0-18.0-0.1-0.148,4222,7,8
149,4,object_04,object_10,868.055,7,1,433.38499989999997,0.7777777777777778,1,object_06,5,2293,0,7,6,restaurant_7,2,memory-2step-stake-s,649,2288817,0.0-18.0-0.1-0.149,4222,7,8
150,2,object_01,object_07,690.62,3,2,496.76499979999994,0.8888888888888888,1,object_06,1,2301,0,8,9,forest_24,2,memory-2step-stake-s,650,2297361,0.0-18.0-0.1-0.150,4222,4,3
151,3,object_08,object_05,710.835,5,2,361.32499989999997,1.0,1,object_06,1,2310,0,9,7,library_9,2,memory-2step-stake-s,651,2305863,0.0-18.0-0.1-0.151,4222,6,5
152,2,object_01,object_07,502.25500020000004,4,1,482.6149999,0.8888888888888888,2,object_02,5,2350,0,8,8,forest_19,2,memory-2step-stake-s,652,2314395,0.0-18.0-0.1-0.152,4222,4,3
153,3,object_08,object_05,855.0799999,6,1,452.86000010000004,1.0,2,object_02,1,2359,0,7,9,library_3,2,memory-2step-stake-s,653,2322989,0.0-18.0-0.1-0.153,4222,6,5
154,4,object_10,object_04,814.9949999,8,1,535.5449999,0.7777777777777778,2,object_02,5,2394,0,5,7,restaurant_26,2,memory-2step-stake-s,654,2331464,0.0-18.0-0.1-0.154,4222,8,7
155,4,object_10,object_04,646.0650002,7,2,689.67,0.6666666666666666,1,object_06,1,2400,0,6,9,restaurant_7,2,memory-2step-stake-s,655,2339992,0.0-18.0-0.1-0.155,4222,8,7
156,2,object_07,object_01,888.8649998999999,3,1,1303.09,1.0,1,object_06,5,2445,0,9,8,forest_3,2,memory-2step-stake-s,656,2349427,0.0-18.0-0.1-0.156,4222,3,4
157,4,object_10,object_04,530.6499999,7,2,597.1700002,0.7777777777777778,1,object_06,1,2452,0,7,8,restaurant_14,2,memory-2step-stake-s,657,2357982,0.0-18.0-0.1-0.157,4222,8,7
158,3,object_05,object_08,754.8399998,6,2,444.44999979999994,0.6666666666666666,2,object_02,1,2458,0,8,6,library_7,2,memory-2step-stake-s,658,2366258,0.0-18.0-0.1-0.158,4222,5,6
159,1,object_09,object_03,642.0750001,2,1,420.0299999,0.4444444444444444,2,object_02,1,2462,0,8,4,desert_32,2,memory-2step-stake-s,659,2374324,0.0-18.0-0.1-0.159,4222,2,1
160,3,object_05,object_08,952.79,5,1,733.82,0.7777777777777778,1,object_06,1,2469,0,7,1,library_15,2,memory-2step-stake-s,660,2383009,0.0-18.0-0.1-0.160,4222,5,6
161,4,object_04,object_10,1329.325,8,2,833.1249999,0.4444444444444444,2,object_02,1,2473,0,6,4,restaurant_2,2,memory-2step-stake-s,661,2391476,0.0-18.0-0.1-0.161,4222,7,8
162,1,object_03,object_09,588.9099999,1,1,641.695,0.5555555555555556,1,object_06,5,2498,0,5,4,desert_7,2,memory-2step-stake-s,662,2399866,0.0-18.0-0.1-0.162,4222,1,2
163,3,object_08,object_05,579.385,5,2,448.8850001,0.3333333333333333,1,object_06,5,2513,0,3,4,library_15,2,memory-2step-stake-s,663,2407845,0.0-18.0-0.1-0.163,4222,6,5
164,3,object_05,object_08,587.5200001000001,6,2,420.48500010000004,1.0,2,object_02,1,2522,0,5,9,library_9,2,memory-2step-stake-s,664,2416410,0.0-18.0-0.1-0.164,4222,5,6
165,4,object_04,object_10,633.5750001,8,2,480.975,1.0,2,object_02,5,2567,0,3,9,restaurant_26,2,memory-2step-stake-s,665,2425046,0.0-18.0-0.1-0.165,4222,7,8
166,1,object_09,object_03,639.525,2,1,445.0999999,0.7777777777777778,2,object_02,5,2602,0,1,7,desert_10,2,memory-2step-stake-s,666,2433430,0.0-18.0-0.1-0.166,4222,2,1
167,2,object_07,object_01,721.865,4,2,313.4699999,0.7777777777777778,2,object_02,5,2637,0,1,7,forest_19,2,memory-2step-stake-s,667,2441686,0.0-18.0-0.1-0.167,4222,3,4
168,1,object_09,object_03,745.355,1,2,372.9100002,0.2222222222222222,1,object_06,5,2647,0,2,7,desert_24,2,memory-2step-stake-s,668,2449494,0.0-18.0-0.1-0.168,4222,2,1
169,4,object_10,object_04,747.64,8,1,390.1999998,0.6666666666666666,2,object_02,1,2653,0,1,6,restaurant_6,2,memory-2step-stake-s,669,2457729,0.0-18.0-0.1-0.169,4222,8,7
170,3,object_08,object_05,549.2800002,6,1,495.61000010000004,0.4444444444444444,2,object_02,1,2657,0,2,4,library_4,2,memory-2step-stake-s,670,2465861,0.0-18.0-0.1-0.170,4222,6,5
171,2,object_07,object_01,737.6349999,3,1,505.11499979999996,0.3333333333333333,1,object_06,5,2672,0,3,3,forest_32,2,memory-2step-stake-s,671,2473900,0.0-18.0-0.1-0.171,4222,3,4
172,3,object_08,object_05,600.32,5,2,464.23500010000004,0.4444444444444444,1,object_06,1,2676,0,4,3,library_27,2,memory-2step-stake-s,672,2481997,0.0-18.0-0.1-0.172,4222,6,5
173,1,object_03,object_09,653.7850001,2,2,353.78499980000004,0.2222222222222222,2,object_02,5,2686,0,3,2,desert_5,2,memory-2step-stake-s,673,2489787,0.0-18.0-0.1-0.173,4222,1,2
174,4,object_10,object_04,758.41,7,2,478.60500010000004,0.4444444444444444,1,object_06,1,2690,0,4,2,restaurant_27,2,memory-2step-stake-s,674,2497901,0.0-18.0-0.1-0.174,4222,8,7
175,2,object_07,object_01,674.3000001,3,1,403.1199999,0.1111111111111111,1,object_06,1,2691,0,1,0,forest_27,2,memory-2step-stake-s,675,2505643,0.0-18.0-0.1-0.175,4222,3,4
176,1,object_09,object_03,692.2650002,1,2,331.69499989999997,0.2222222222222222,1,object_06,5,2701,0,2,3,desert_5,2,memory-2step-stake-s,676,2513413,0.0-18.0-0.1-0.176,4222,2,1
177,2,object_01,object_07,835.185,4,1,464.805,0.6666666666666666,2,object_02,5,2731,0,4,6,forest_24,2,memory-2step-stake-s,677,2521720,0.0-18.0-0.1-0.177,4222,4,3
178,4,object_10,object_04,597.6450001000001,8,1,424.905,0.5555555555555556,2,object_02,5,2756,0,2,5,restaurant_1,2,memory-2step-stake-s,678,2529887,0.0-18.0-0.1-0.178,4222,8,7
179,4,object_10,object_04,1032.09,8,1,804.185,0.3333333333333333,2,object_02,1,2759,0,0,3,restaurant_26,2,memory-2step-stake-s,679,2538227,0.0-18.0-0.1-0.179,4222,8,7
180,3,object_05,object_08,543.4699999,5,1,383.3250001,0.0,1,object_06,1,2759,0,0,1,library_12,2,memory-2step-stake-s,680,2545838,0.0-18.0-0.1-0.180,4222,5,6
181,3,object_05,object_08,971.0799998,6,2,485.63999989999996,0.4444444444444444,2,object_02,1,2763,0,0,4,library_1,2,memory-2step-stake-s,681,2553956,0.0-18.0-0.1-0.181,4222,5,6
182,3,object_08,object_05,893.0900001,5,2,489.3749999,0.1111111111111111,1,object_06,1,2764,0,1,4,library_7,2,memory-2step-stake-s,682,2561780,0.0-18.0-0.1-0.182,4222,6,5
183,2,object_01,object_07,1062.405,4,1,549.3399999,1.0,2,object_02,5,2809,0,1,9,forest_31,2,memory-2step-stake-s,683,2570488,0.0-18.0-0.1-0.183,4222,4,3
184,4,object_10,object_04,959.76,8,1,553.6249999,0.8888888888888888,2,object_02,1,2817,0,2,8,restaurant_27,2,memory-2step-stake-s,684,2579088,0.0-18.0-0.1-0.184,4222,8,7
185,4,object_10,object_04,508.31999979999995,8,1,493.2899999,0.6666666666666666,2,object_02,5,2847,0,2,6,restaurant_30,2,memory-2step-stake-s,685,2587429,0.0-18.0-0.1-0.185,4222,8,7
186,2,object_07,object_01,643.0149997999999,3,1,441.4649999,0.2222222222222222,1,object_06,5,2857,0,2,7,forest_30,2,memory-2step-stake-s,686,2595301,0.0-18.0-0.1-0.186,4222,3,4
187,3,object_08,object_05,584.395,6,1,384.73,0.6666666666666666,2,object_02,1,2863,0,5,6,library_3,2,memory-2step-stake-s,687,2603525,0.0-18.0-0.1-0.187,4222,6,5
188,3,object_08,object_05,809.62,5,2,377.8599999,0.7777777777777778,1,object_06,1,2870,0,7,6,library_15,2,memory-2step-stake-s,688,2611830,0.0-18.0-0.1-0.188,4222,6,5
189,1,object_03,object_09,754.8100001,1,1,454.835,0.7777777777777778,1,object_06,5,2905,0,7,9,desert_22,2,memory-2step-stake-s,689,2620230,0.0-18.0-0.1-0.189,4222,1,2
190,3,object_08,object_05,750.6649999,5,2,403.6049999,1.0,1,object_06,1,2914,0,9,7,library_27,2,memory-2step-stake-s,690,2628780,0.0-18.0-0.1-0.190,4222,6,5
191,3,object_08,object_05,609.6000001,5,2,565.8249999,0.7777777777777778,1,object_06,1,2921,0,7,5,library_20,2,memory-2step-stake-s,691,2637281,0.0-18.0-0.1-0.191,4222,6,5
192,1,object_09,object_03,617.9450001,1,2,568.95,0.7777777777777778,1,object_06,1,2928,0,7,5,desert_7,2,memory-2step-stake-s,692,2645801,0.0-18.0-0.1-0.192,4222,2,1
193,1,object_03,object_09,691.8349999,1,1,449.0449999,0.7777777777777778,1,object_06,5,2963,0,7,5,desert_10,2,memory-2step-stake-s,693,2654191,0.0-18.0-0.1-0.193,4222,1,2
194,4,object_04,object_10,690.955,8,2,403.035,0.7777777777777778,2,object_02,5,2998,0,7,7,restaurant_8,2,memory-2step-stake-s,694,2662530,0.0-18.0-0.1-0.194,4222,7,8
195,3,object_08,object_05,828.3950002,6,1,476.50999989999997,0.4444444444444444,2,object_02,1,3002,0,7,4,library_28,2,memory-2step-stake-s,695,2670642,0.0-18.0-0.1-0.195,4222,6,5
196,3,object_08,object_05,540.545,5,2,422.23000010000004,0.5555555555555556,1,object_06,5,3027,0,5,4,library_12,2,memory-2step-stake-s,696,2678808,0.0-18.0-0.1-0.196,4222,6,5
197,2,object_07,object_01,1112.42,3,1,478.265,0.3333333333333333,1,object_06,5,3042,0,3,8,forest_29,2,memory-2step-stake-s,697,2686822,0.0-18.0-0.1-0.197,4222,3,4
198,2,object_01,object_07,588.2250001,4,1,436.98999979999996,0.7777777777777778,2,object_02,5,3077,0,5,7,forest_26,2,memory-2step-stake-s,698,2695203,0.0-18.0-0.1-0.198,4222,4,3
199,2,object_07,object_01,790.2250001,4,2,485.97,0.7777777777777778,2,object_02,1,3084,0,5,7,forest_18,2,memory-2step-stake-s,699,2703642,0.0-18.0-0.1-0.199,4222,3,4
200,4,object_04,object_10,876.8499999,8,2,566.595,0.4444444444444444,2,object_02,5,3104,0,5,4,restaurant_14,2,memory-2step-stake-s,700,2711843,0.0-18.0-0.1-0.200,4222,7,8
201,4,object_04,object_10,665.755,7,1,370.7999999,0.4444444444444444,1,object_06,1,3108,0,4,6,restaurant_4,2,memory-2step-stake-s,701,2719849,0.0-18.0-0.1-0.201,4222,7,8
202,4,object_10,object_04,764.9649999,7,2,487.2299999,0.2222222222222222,1,object_06,5,3118,0,2,6,restaurant_15,2,memory-2step-stake-s,702,2727764,0.0-18.0-0.1-0.202,4222,8,7
203,4,object_10,object_04,501.1499999,8,1,408.51,0.6666666666666666,2,object_02,1,3124,0,0,6,restaurant_12,2,memory-2step-stake-s,703,2736015,0.0-18.0-0.1-0.203,4222,8,7
204,1,object_03,object_09,690.1749999,2,2,401.325,0.4444444444444444,2,object_02,1,3128,0,4,4,desert_13,2,memory-2step-stake-s,704,2743987,0.0-18.0-0.1-0.204,4222,1,2
205,2,object_07,object_01,637.3050001,3,1,502.3999999,0.8888888888888888,1,object_06,5,3168,0,8,2,forest_17,2,memory-2step-stake-s,705,2752537,0.0-18.0-0.1-0.205,4222,3,4
206,3,object_05,object_08,675.9050002,5,1,483.2249999,1.0,1,object_06,1,3177,0,9,1,library_28,2,memory-2step-stake-s,706,2761181,0.0-18.0-0.1-0.206,4222,5,6
207,2,object_01,object_07,650.3599998999999,3,2,525.4200001,0.8888888888888888,1,object_06,1,3185,0,8,1,forest_1,2,memory-2step-stake-s,707,2769749,0.0-18.0-0.1-0.207,4222,4,3
208,3,object_08,object_05,944.9,5,2,635.115,0.7777777777777778,1,object_06,1,3192,0,7,1,library_1,2,memory-2step-stake-s,708,2778330,0.0-18.0-0.1-0.208,4222,6,5
209,1,object_09,object_03,1013.175,2,1,655.1049998999999,0.1111111111111111,2,object_02,5,3197,0,6,1,desert_28,2,memory-2step-stake-s,709,2786310,0.0-18.0-0.1-0.209,4222,2,1
210,4,object_10,object_04,753.6599999,7,2,414.665,0.7777777777777778,1,object_06,1,3204,0,7,1,restaurant_12,2,memory-2step-stake-s,710,2794680,0.0-18.0-0.1-0.210,4222,8,7
211,4,object_10,object_04,691.5600002,7,2,458.73500010000004,0.7777777777777778,1,object_06,1,3211,0,7,6,restaurant_15,2,memory-2step-stake-s,711,2803088,0.0-18.0-0.1-0.211,4222,8,7
212,1,object_03,object_09,708.075,1,1,353.96,1.0,1,object_06,5,3256,0,9,6,desert_27,2,memory-2step-stake-s,712,2811590,0.0-18.0-0.1-0.212,4222,1,2
213,1,object_09,object_03,558.825,1,2,389.4700001,0.7777777777777778,1,object_06,1,3263,0,7,4,desert_19,2,memory-2step-stake-s,713,2819937,0.0-18.0-0.1-0.213,4222,2,1
214,2,object_07,object_01,581.5400002,4,2,372.8499999,0.6666666666666666,2,object_02,5,3293,0,5,6,forest_30,2,memory-2step-stake-s,714,2828162,0.0-18.0-0.1-0.214,4222,3,4
215,3,object_08,object_05,889.805,5,2,510.03,0.3333333333333333,1,object_06,1,3296,0,3,7,library_8,2,memory-2step-stake-s,715,2836212,0.0-18.0-0.1-0.215,4222,6,5
216,2,object_07,object_01,716.64,4,2,434.98000010000004,0.7777777777777778,2,object_02,5,3331,0,5,7,forest_27,2,memory-2step-stake-s,716,2844588,0.0-18.0-0.1-0.216,4222,3,4
217,1,object_09,object_03,611.915,2,1,446.57500020000003,0.7777777777777778,2,object_02,5,3366,0,5,7,desert_27,2,memory-2step-stake-s,717,2852988,0.0-18.0-0.1-0.217,4222,2,1
218,4,object_10,object_04,727.9750002000001,7,2,405.03,0.8888888888888888,1,object_06,1,3374,0,8,8,restaurant_2,2,memory-2step-stake-s,718,2861447,0.0-18.0-0.1-0.218,4222,8,7
219,3,object_08,object_05,741.435,5,2,408.6999998,1.0,1,object_06,1,3383,0,9,9,library_3,2,memory-2step-stake-s,719,2870002,0.0-18.0-0.1-0.219,4222,6,5
220,1,object_09,object_03,592.8550002000001,1,2,332.0850001,0.8888888888888888,1,object_06,5,3423,0,8,6,desert_2,2,memory-2step-stake-s,720,2878383,0.0-18.0-0.1-0.220,4222,2,1
221,2,object_01,object_07,897.3450002000001,4,1,436.3799999,0.4444444444444444,2,object_02,1,3427,0,7,4,forest_20,2,memory-2step-stake-s,721,2886460,0.0-18.0-0.1-0.221,4222,4,3
222,1,object_03,object_09,556.5249999,1,1,507.735,0.6666666666666666,1,object_06,5,3457,0,6,6,desert_24,2,memory-2step-stake-s,722,2894803,0.0-18.0-0.1-0.222,4222,1,2
223,4,object_10,object_04,946.6649999,8,1,412.4700001,0.5555555555555556,2,object_02,1,3462,0,5,5,restaurant_28,2,memory-2step-stake-s,723,2902953,0.0-18.0-0.1-0.223,4222,8,7
224,3,object_08,object_05,777.46,5,2,638.0,0.4444444444444444,1,object_06,5,3482,0,4,5,library_6,2,memory-2step-stake-s,724,2911234,0.0-18.0-0.1-0.224,4222,6,5
225,3,object_05,object_08,677.9150001,6,2,461.2150001,0.3333333333333333,2,object_02,1,3485,0,3,3,library_9,2,memory-2step-stake-s,725,2919234,0.0-18.0-0.1-0.225,4222,5,6
226,1,object_09,object_03,630.1750001,1,2,465.0950001,0.3333333333333333,1,object_06,5,3500,0,3,3,desert_32,2,memory-2step-stake-s,726,2927234,0.0-18.0-0.1-0.226,4222,2,1
227,1,object_03,object_09,573.475,1,1,358.185,0.3333333333333333,1,object_06,5,3515,0,3,1,desert_22,2,memory-2step-stake-s,727,2935132,0.0-18.0-0.1-0.227,4222,1,2
228,1,object_03,object_09,747.2150002000001,2,2,687.1949998,0.0,2,object_02,5,3515,0,5,0,desert_26,2,memory-2step-stake-s,728,2943366,0.0-18.0-0.1-0.228,4222,1,2
229,4,object_10,object_04,1059.745,7,2,-1.0,0.0,1,object_06,1,3515,0,4,3,restaurant_1,2,memory-2step-stake-s,729,2951898,0.0-18.0-0.1-0.229,4222,8,7
230,1,object_09,object_03,574.7749999,1,2,627.0649999,0.7777777777777778,1,object_06,5,3550,0,7,2,desert_30,2,memory-2step-stake-s,730,2960474,0.0-18.0-0.1-0.230,4222,2,1
231,4,object_04,object_10,516.515,8,2,-1.0,0.0,2,object_02,1,3550,0,6,0,restaurant_17,2,memory-2step-stake-s,731,2969003,0.0-18.0-0.1-0.231,4222,7,8
232,1,object_03,object_09,663.375,1,1,401.51,1.0,1,object_06,5,3595,0,9,2,desert_24,2,memory-2step-stake-s,732,2977557,0.0-18.0-0.1-0.232,4222,1,2
233,2,object_01,object_07,533.76,3,2,490.49,0.8888888888888888,1,object_06,5,3635,0,8,1,forest_18,2,memory-2step-stake-s,733,2986099,0.0-18.0-0.1-0.233,4222,4,3
234,2,object_07,object_01,775.16,3,1,363.5100001,0.8888888888888888,1,object_06,1,3643,0,8,2,forest_18,2,memory-2step-stake-s,734,2994505,0.0-18.0-0.1-0.234,4222,3,4
235,1,object_09,object_03,551.925,1,2,757.0149999,1.0,1,object_06,5,3688,0,9,3,desert_20,2,memory-2step-stake-s,735,3003414,0.0-18.0-0.1-0.235,4222,2,1
236,1,object_09,object_03,539.2499999,1,2,322.9100001,1.0,1,object_06,5,3733,0,9,2,desert_13,2,memory-2step-stake-s,736,3011889,0.0-18.0-0.1-0.236,4222,2,1
237,1,object_09,object_03,580.755,1,2,325.5049998,0.8888888888888888,1,object_06,1,3741,0,8,0,desert_16,2,memory-2step-stake-s,737,3020263,0.0-18.0-0.1-0.237,4222,2,1
238,3,object_08,object_05,756.42,6,1,413.0200001,0.1111111111111111,2,object_02,1,3742,0,9,1,library_3,2,memory-2step-stake-s,738,3028007,0.0-18.0-0.1-0.238,4222,6,5
239,3,object_05,object_08,534.5149999,5,1,443.6250001,0.8888888888888888,1,object_06,5,3782,0,8,3,library_14,2,memory-2step-stake-s,739,3036503,0.0-18.0-0.1-0.239,4222,5,6
240,3,object_05,object_08,621.9600001,5,1,949.0050001,0.8888888888888888,1,object_06,1,3790,0,8,2,library_31,2,memory-2step-stake-s,740,3045501,0.0-18.0-0.1-0.240,4222,5,6
241,2,object_07,object_01,734.3850001000001,3,1,504.3449998,0.6666666666666666,1,object_06,5,3820,0,6,5,forest_28,2,memory-2step-stake-s,741,3053848,0.0-18.0-0.1-0.241,4222,3,4
242,1,object_03,object_09,647.995,1,1,362.4500001,0.6666666666666666,1,object_06,5,3850,0,6,8,desert_8,2,memory-2step-stake-s,742,3062060,0.0-18.0-0.1-0.242,4222,1,2
243,1,object_03,object_09,575.25,2,2,374.815,0.8888888888888888,2,object_02,1,3858,0,4,8,desert_19,2,memory-2step-stake-s,743,3070476,0.0-18.0-0.1-0.243,4222,1,2
244,3,object_05,object_08,616.4550001,6,2,428.87500020000004,0.7777777777777778,2,object_02,1,3865,0,7,7,library_11,2,memory-2step-stake-s,744,3078854,0.0-18.0-0.1-0.244,4222,5,6
245,4,object_10,object_04,641.3,8,1,374.2800001,0.8888888888888888,2,object_02,1,3873,0,7,8,restaurant_31,2,memory-2step-stake-s,745,3087267,0.0-18.0-0.1-0.245,4222,8,7
246,3,object_05,object_08,505.51,6,2,442.44499989999997,0.7777777777777778,2,object_02,1,3880,0,8,7,library_14,2,memory-2step-stake-s,746,3095652,0.0-18.0-0.1-0.246,4222,5,6
247,3,object_08,object_05,482.38999979999994,6,1,340.90000019999997,0.7777777777777778,2,object_02,1,3887,0,8,7,library_31,2,memory-2step-stake-s,747,3103932,0.0-18.0-0.1-0.247,4222,6,5
248,4,object_10,object_04,495.3399999,7,2,363.1550001,0.8888888888888888,1,object_06,1,3895,0,8,7,restaurant_1,2,memory-2step-stake-s,748,3112351,0.0-18.0-0.1-0.248,4222,8,7
249,1,object_09,object_03,614.0699999,1,2,400.59000019999996,0.6666666666666666,1,object_06,5,3925,0,6,7,desert_2,2,memory-2step-stake-s,749,3120591,0.0-18.0-0.1-0.249,4222,2,1
250,3,object_08,object_05,691.2,6,1,295.83,0.2222222222222222,2,object_02,1,3927,0,8,2,library_12,2,memory-2step-stake-s,750,3128319,0.0-18.0-0.1-0.250,4222,6,5
251,4,object_04,object_10,489.11,7,1,470.525,0.8888888888888888,1,object_06,1,3935,0,8,3,restaurant_17,2,memory-2step-stake-s,751,3136828,0.0-18.0-0.1-0.251,4222,7,8
252,1,object_09,object_03,547.9300001,1,2,461.2800002,0.4444444444444444,1,object_06,5,3955,0,4,5,desert_24,2,memory-2step-stake-s,752,3144941,0.0-18.0-0.1-0.252,4222,2,1
253,3,object_08,object_05,965.9749998,5,2,470.095,0.0,1,object_06,1,3955,0,0,7,library_4,2,memory-2step-stake-s,753,3152641,0.0-18.0-0.1-0.253,4222,6,5
254,2,object_07,object_01,692.0999999,4,2,460.705,0.7777777777777778,2,object_02,5,3990,0,1,7,forest_1,2,memory-2step-stake-s,754,3161053,0.0-18.0-0.1-0.254,4222,3,4
255,4,object_04,object_10,569.3849998,8,2,464.745,0.8888888888888888,2,object_02,1,3998,0,3,8,restaurant_7,2,memory-2step-stake-s,755,3169569,0.0-18.0-0.1-0.255,4222,7,8
