,state1,stim_left,stim_right,rt_1,choice1,response1,rt_2,points,state2,stim_state2,stake,score,practice,rews1,rews2,background,high_arm,trial_type,trial_index,time_elapsed,internal_node_id,subid,stim_left_num,stim_right_num
0,1,object_10,object_04,-1.0,-1,-1,-1.0,0.0,-,,5,0,0,4,5,desert_10,2,memory-2step-stake-s,489,921492,0.0-18.0-0.0-0.0,4275,2,1
1,3,object_07,object_02,576.025,6,1,-1.0,0.0,2,object_09,1,0,0,6,2,library_16,2,memory-2step-stake-s,490,930015,0.0-18.0-0.0-0.1,4275,6,5
2,3,object_07,object_02,588.3299999,6,1,424.73,0.2222222222222222,2,object_09,1,2,0,4,2,library_19,2,memory-2step-stake-s,491,937876,0.0-18.0-0.0-0.2,4275,6,5
3,1,object_10,object_04,570.04,1,2,588.7150001,0.3333333333333333,1,object_08,5,17,0,3,1,desert_8,2,memory-2step-stake-s,492,946004,0.0-18.0-0.0-0.3,4275,2,1
4,2,object_01,object_06,984.7949999,4,1,593.5750001,0.0,2,object_09,5,17,0,3,0,forest_30,2,memory-2step-stake-s,493,953824,0.0-18.0-0.0-0.4,4275,4,3
5,1,object_04,object_10,565.7799999,2,2,658.465,0.1111111111111111,2,object_09,5,22,0,5,1,desert_14,2,memory-2step-stake-s,494,961818,0.0-18.0-0.0-0.5,4275,1,2
6,2,object_01,object_06,620.6650001,4,1,533.975,0.1111111111111111,2,object_09,5,27,0,7,1,forest_11,2,memory-2step-stake-s,495,969688,0.0-18.0-0.0-0.6,4275,4,3
7,2,object_06,object_01,815.7599999,3,1,424.41,0.7777777777777778,1,object_08,5,62,0,7,3,forest_25,2,memory-2step-stake-s,496,978066,0.0-18.0-0.0-0.7,4275,3,4
8,2,object_06,object_01,696.37,4,2,458.6499999,0.6666666666666666,2,object_09,1,68,0,7,6,forest_32,2,memory-2step-stake-s,497,986377,0.0-18.0-0.0-0.8,4275,3,4
9,3,object_07,object_02,1218.4,5,2,735.4700001,0.8888888888888888,1,object_08,5,108,0,8,7,library_19,2,memory-2step-stake-s,498,995161,0.0-18.0-0.0-0.9,4275,6,5
10,1,object_04,object_10,1097.735,2,2,617.69,0.5555555555555556,2,object_09,5,133,0,8,5,desert_31,2,memory-2step-stake-s,499,1003518,0.0-18.0-0.0-0.10,4275,1,2
11,4,object_05,object_03,887.2550001,7,1,716.99,0.7777777777777778,1,object_08,1,140,0,7,2,restaurant_29,2,memory-2step-stake-s,500,1012180,0.0-18.0-0.0-0.11,4275,7,8
12,3,object_07,object_02,1402.45,6,1,769.125,0.1111111111111111,2,object_09,1,141,0,3,1,library_31,2,memory-2step-stake-s,501,1020281,0.0-18.0-0.0-0.12,4275,6,5
13,3,object_02,object_07,1194.52,6,2,518.8150001,0.2222222222222222,2,object_09,1,143,0,2,2,library_26,2,memory-2step-stake-s,502,1028227,0.0-18.0-0.0-0.13,4275,5,6
14,4,object_03,object_05,1264.54,8,1,631.9400001,0.7777777777777778,2,object_09,1,150,0,1,7,restaurant_28,2,memory-2step-stake-s,503,1036809,0.0-18.0-0.0-0.14,4275,8,7
15,2,object_01,object_06,842.24,3,2,502.6550001,0.2222222222222222,1,object_08,1,152,0,2,6,forest_32,2,memory-2step-stake-s,504,1044739,0.0-18.0-0.0-0.15,4275,4,3
16,1,object_10,object_04,1461.695,1,2,702.93,0.2222222222222222,1,object_08,1,154,0,2,5,desert_19,2,memory-2step-stake-s,505,1052872,0.0-18.0-0.0-0.16,4275,2,1
17,4,object_05,object_03,1167.13,7,1,562.8600001,0.1111111111111111,1,object_08,1,155,0,1,2,restaurant_28,2,memory-2step-stake-s,506,1060760,0.0-18.0-0.0-0.17,4275,7,8
18,2,object_01,object_06,1400.12,3,2,614.7949999,0.2222222222222222,1,object_08,1,157,0,2,0,forest_11,2,memory-2step-stake-s,507,1068807,0.0-18.0-0.0-0.18,4275,4,3
19,1,object_04,object_10,-1.0,-1,-1,-1.0,0.0,-,,5,157,0,2,1,desert_9,2,memory-2step-stake-s,508,1075331,0.0-18.0-0.0-0.19,4275,1,2
20,4,object_03,object_05,834.705,8,1,615.5000001,0.0,2,object_09,1,157,0,2,0,restaurant_8,2,memory-2step-stake-s,509,1083176,0.0-18.0-0.0-0.20,4275,8,7
21,4,object_05,object_03,770.09,8,2,594.73,0.2222222222222222,2,object_09,1,159,0,2,2,restaurant_6,2,memory-2step-stake-s,510,1091197,0.0-18.0-0.0-0.21,4275,7,8
22,2,object_01,object_06,1193.56,4,1,392.335,0.1111111111111111,2,object_09,5,164,0,4,1,forest_2,2,memory-2step-stake-s,511,1098920,0.0-18.0-0.0-0.22,4275,4,3
23,2,object_01,object_06,1403.97,3,2,507.05,0.4444444444444444,1,object_08,5,184,0,4,0,forest_4,2,memory-2step-stake-s,512,1107063,0.0-18.0-0.0-0.23,4275,4,3
24,3,object_02,object_07,1010.895,5,1,553.23,0.2222222222222222,1,object_08,1,186,0,2,1,library_15,2,memory-2step-stake-s,513,1115053,0.0-18.0-0.0-0.24,4275,5,6
25,1,object_10,object_04,616.865,1,2,716.0649999,0.2222222222222222,1,object_08,5,196,0,2,1,desert_9,2,memory-2step-stake-s,514,1123208,0.0-18.0-0.0-0.25,4275,2,1
26,1,object_04,object_10,1027.75,1,1,578.77,0.2222222222222222,1,object_08,5,206,0,2,6,desert_18,2,memory-2step-stake-s,515,1131213,0.0-18.0-0.0-0.26,4275,1,2
27,1,object_04,object_10,1140.01,2,2,471.195,1.0,2,object_09,5,251,0,4,9,desert_24,2,memory-2step-stake-s,516,1139841,0.0-18.0-0.0-0.27,4275,1,2
28,3,object_07,object_02,1488.96,6,1,1413.305,0.8888888888888888,2,object_09,1,259,0,5,8,library_31,2,memory-2step-stake-s,517,1149305,0.0-18.0-0.0-0.28,4275,6,5
29,1,object_10,object_04,1075.65,1,2,717.45,0.6666666666666666,1,object_08,1,265,0,6,7,desert_29,2,memory-2step-stake-s,518,1157869,0.0-18.0-0.0-0.29,4275,2,1
30,4,object_05,object_03,-1.0,-1,-1,-1.0,0.0,-,,1,265,0,1,5,restaurant_7,2,memory-2step-stake-s,519,1164391,0.0-18.0-0.0-0.30,4275,7,8
31,4,object_03,object_05,447.19,7,2,868.24,0.2222222222222222,1,object_08,1,267,0,2,5,restaurant_16,2,memory-2step-stake-s,520,1172688,0.0-18.0-0.0-0.31,4275,8,7
32,2,object_06,object_01,902.12,4,2,-1.0,0.0,2,object_09,5,267,0,4,9,forest_4,2,memory-2step-stake-s,521,1181208,0.0-18.0-0.0-0.32,4275,3,4
33,1,object_04,object_10,1253.155,1,1,548.785,0.3333333333333333,1,object_08,5,282,0,3,8,desert_25,2,memory-2step-stake-s,522,1189303,0.0-18.0-0.0-0.33,4275,1,2
34,2,object_06,object_01,831.2799999,4,2,340.77,0.8888888888888888,2,object_09,5,322,0,4,8,forest_20,2,memory-2step-stake-s,523,1197692,0.0-18.0-0.0-0.34,4275,3,4
35,2,object_06,object_01,-1.0,-1,-1,-1.0,0.0,-,,5,322,0,4,7,forest_17,2,memory-2step-stake-s,524,1204213,0.0-18.0-0.0-0.35,4275,3,4
36,1,object_10,object_04,758.3199999,1,2,371.52,0.5555555555555556,1,object_08,5,347,0,5,7,desert_32,2,memory-2step-stake-s,525,1212332,0.0-18.0-0.0-0.36,4275,2,1
37,1,object_10,object_04,964.7,2,1,381.0800001,0.8888888888888888,2,object_09,5,387,0,7,8,desert_19,2,memory-2step-stake-s,526,1220759,0.0-18.0-0.0-0.37,4275,2,1
38,4,object_05,object_03,804.4400001,8,2,431.14,0.4444444444444444,2,object_09,1,391,0,6,4,restaurant_32,2,memory-2step-stake-s,527,1228828,0.0-18.0-0.0-0.38,4275,7,8
39,4,object_03,object_05,1096.655,8,1,1465.57,0.1111111111111111,2,object_09,5,396,0,4,1,restaurant_16,2,memory-2step-stake-s,528,1237622,0.0-18.0-0.0-0.39,4275,8,7
40,4,object_05,object_03,1241.975,7,1,345.365,0.0,1,object_08,1,396,0,0,1,restaurant_8,2,memory-2step-stake-s,529,1245201,0.0-18.0-0.0-0.40,4275,7,8
41,4,object_03,object_05,887.25,7,2,323.38,0.1111111111111111,1,object_08,1,397,0,1,0,restaurant_31,2,memory-2step-stake-s,530,1252853,0.0-18.0-0.0-0.41,4275,8,7
42,2,object_01,object_06,787.6949999,4,1,336.045,0.2222222222222222,2,object_09,5,407,0,2,2,forest_13,2,memory-2step-stake-s,531,1260632,0.0-18.0-0.0-0.42,4275,4,3
43,3,object_02,object_07,662.575,6,2,436.945,0.1111111111111111,2,object_09,1,408,0,2,1,library_17,2,memory-2step-stake-s,532,1268406,0.0-18.0-0.0-0.43,4275,5,6
44,1,object_10,object_04,499.26,2,1,431.4199999,0.2222222222222222,2,object_09,1,410,0,2,2,desert_4,2,memory-2step-stake-s,533,1276278,0.0-18.0-0.0-0.44,4275,2,1
45,3,object_07,object_02,741.855,5,2,918.6900001,0.3333333333333333,1,object_08,1,413,0,3,3,library_5,2,memory-2step-stake-s,534,1284731,0.0-18.0-0.0-0.45,4275,6,5
46,2,object_06,object_01,701.63,3,1,-1.0,0.0,1,object_08,5,413,0,4,4,forest_14,2,memory-2step-stake-s,535,1293262,0.0-18.0-0.0-0.46,4275,3,4
47,1,object_04,object_10,1071.32,2,2,890.135,0.3333333333333333,2,object_09,5,428,0,4,3,desert_24,2,memory-2step-stake-s,536,1301685,0.0-18.0-0.0-0.47,4275,1,2
48,4,object_03,object_05,1192.645,8,1,391.515,0.1111111111111111,2,object_09,1,429,0,3,1,restaurant_2,2,memory-2step-stake-s,537,1309403,0.0-18.0-0.0-0.48,4275,8,7
49,2,object_06,object_01,-1.0,-1,-1,-1.0,0.0,-,,5,429,0,3,2,forest_20,2,memory-2step-stake-s,538,1315920,0.0-18.0-0.0-0.49,4275,3,4
50,4,object_03,object_05,575.99,7,2,472.525,0.4444444444444444,1,object_08,1,433,0,4,2,restaurant_10,2,memory-2step-stake-s,539,1324031,0.0-18.0-0.0-0.50,4275,8,7
51,4,object_05,object_03,902.48,7,1,632.1599999,0.1111111111111111,1,object_08,1,434,0,1,3,restaurant_6,2,memory-2step-stake-s,540,1331989,0.0-18.0-0.0-0.51,4275,7,8
52,4,object_03,object_05,419.06,7,2,472.8099999,0.3333333333333333,1,object_08,1,437,0,3,3,restaurant_32,2,memory-2step-stake-s,541,1339990,0.0-18.0-0.0-0.52,4275,8,7
53,1,object_04,object_10,-1.0,-1,-1,-1.0,0.0,-,,5,437,0,5,3,desert_4,2,memory-2step-stake-s,542,1346501,0.0-18.0-0.0-0.53,4275,1,2
54,4,object_03,object_05,627.4900001,7,2,317.4650001,0.6666666666666666,1,object_08,1,443,0,6,3,restaurant_10,2,memory-2step-stake-s,543,1354666,0.0-18.0-0.0-0.54,4275,8,7
55,1,object_04,object_10,978.66,2,2,386.575,0.1111111111111111,2,object_09,5,448,0,8,1,desert_4,2,memory-2step-stake-s,544,1362388,0.0-18.0-0.0-0.55,4275,1,2
56,2,object_01,object_06,900.1150001,4,1,629.865,0.3333333333333333,2,object_09,5,463,0,7,3,forest_27,2,memory-2step-stake-s,545,1370559,0.0-18.0-0.0-0.56,4275,4,3
57,3,object_02,object_07,916.32,5,1,543.425,0.7777777777777778,1,object_08,5,498,0,7,6,library_28,2,memory-2step-stake-s,546,1379061,0.0-18.0-0.0-0.57,4275,5,6
58,2,object_01,object_06,745.6499999,3,2,493.415,0.6666666666666666,1,object_08,1,504,0,6,3,forest_18,2,memory-2step-stake-s,547,1387402,0.0-18.0-0.0-0.58,4275,4,3
59,2,object_06,object_01,-1.0,-1,-1,-1.0,0.0,-,,5,504,0,6,1,forest_13,2,memory-2step-stake-s,548,1393925,0.0-18.0-0.0-0.59,4275,3,4
60,2,object_06,object_01,608.075,3,1,-1.0,0.0,1,object_08,5,504,0,3,0,forest_27,2,memory-2step-stake-s,549,1402447,0.0-18.0-0.0-0.60,4275,3,4
61,2,object_01,object_06,766.24,3,2,394.9,0.4444444444444444,1,object_08,5,524,0,4,1,forest_19,2,memory-2step-stake-s,550,1410473,0.0-18.0-0.0-0.61,4275,4,3
62,4,object_05,object_03,1059.65,8,2,481.85,0.2222222222222222,2,object_09,1,526,0,5,2,restaurant_20,2,memory-2step-stake-s,551,1418388,0.0-18.0-0.0-0.62,4275,7,8
63,3,object_07,object_02,784.735,6,1,464.29,0.3333333333333333,2,object_09,1,529,0,5,3,library_16,2,memory-2step-stake-s,552,1426378,0.0-18.0-0.0-0.63,4275,6,5
64,2,object_06,object_01,986.23,4,2,326.38,0.0,2,object_09,5,529,0,5,0,forest_16,2,memory-2step-stake-s,553,1433931,0.0-18.0-0.0-0.64,4275,3,4
65,1,object_04,object_10,1140.855,1,1,553.21,0.7777777777777778,1,object_08,5,564,0,7,3,desert_17,2,memory-2step-stake-s,554,1442443,0.0-18.0-0.0-0.65,4275,1,2
66,2,object_06,object_01,948.265,3,1,1421.08,0.6666666666666666,1,object_08,5,594,0,6,4,forest_27,2,memory-2step-stake-s,555,1451716,0.0-18.0-0.0-0.66,4275,3,4
67,4,object_03,object_05,870.515,8,1,380.1350001,0.7777777777777778,2,object_09,1,601,0,8,7,restaurant_32,2,memory-2step-stake-s,556,1460041,0.0-18.0-0.0-0.67,4275,8,7
68,1,object_10,object_04,1218.575,1,2,529.725,0.6666666666666666,1,object_08,5,631,0,6,7,desert_23,2,memory-2step-stake-s,557,1468414,0.0-18.0-0.0-0.68,4275,2,1
69,3,object_02,object_07,777.2799999,5,1,823.675,0.6666666666666666,1,object_08,1,637,0,6,7,library_14,2,memory-2step-stake-s,558,1477086,0.0-18.0-0.0-0.69,4275,5,6
70,1,object_10,object_04,528.1850001,1,2,171.085,0.8888888888888888,1,object_08,1,645,0,8,8,desert_9,2,memory-2step-stake-s,559,1485305,0.0-18.0-0.0-0.70,4275,2,1
71,1,object_10,object_04,550.6849999,2,1,373.175,0.8888888888888888,2,object_09,5,685,0,7,8,desert_10,2,memory-2step-stake-s,560,1493737,0.0-18.0-0.0-0.71,4275,2,1
72,4,object_05,object_03,1240.41,8,2,457.165,0.7777777777777778,2,object_09,1,692,0,7,7,restaurant_10,2,memory-2step-stake-s,561,1502137,0.0-18.0-0.0-0.72,4275,7,8
73,3,object_02,object_07,735.045,5,1,460.95999989999996,0.6666666666666666,1,object_08,1,698,0,6,3,library_15,2,memory-2step-stake-s,562,1510440,0.0-18.0-0.0-0.73,4275,5,6
74,2,object_01,object_06,834.695,4,1,369.315,0.4444444444444444,2,object_09,5,718,0,6,4,forest_19,2,memory-2step-stake-s,563,1518452,0.0-18.0-0.0-0.74,4275,4,3
75,1,object_10,object_04,684.0149999,1,2,525.155,0.5555555555555556,1,object_08,5,743,0,5,3,desert_23,2,memory-2step-stake-s,564,1526712,0.0-18.0-0.0-0.75,4275,2,1
76,2,object_01,object_06,728.1749999,4,1,798.495,0.2222222222222222,2,object_09,5,753,0,4,2,forest_5,2,memory-2step-stake-s,565,1534936,0.0-18.0-0.0-0.76,4275,4,3
77,3,object_07,object_02,733.335,5,2,538.0650001,0.3333333333333333,1,object_08,1,756,0,3,1,library_17,2,memory-2step-stake-s,566,1543018,0.0-18.0-0.0-0.77,4275,6,5
78,3,object_02,object_07,333.73000010000004,5,1,368.52,0.5555555555555556,1,object_08,1,761,0,5,2,library_28,2,memory-2step-stake-s,567,1551133,0.0-18.0-0.0-0.78,4275,5,6
79,3,object_02,object_07,447.86000010000004,6,2,616.5949999,0.2222222222222222,2,object_09,1,763,0,8,2,library_30,2,memory-2step-stake-s,568,1559192,0.0-18.0-0.0-0.79,4275,5,6
80,4,object_05,object_03,618.085,7,1,1001.565,0.8888888888888888,1,object_08,1,771,0,8,7,restaurant_6,2,memory-2step-stake-s,569,1568232,0.0-18.0-0.0-0.80,4275,7,8
81,1,object_04,object_10,1000.125,2,2,537.72,0.8888888888888888,2,object_09,5,811,0,5,8,desert_8,2,memory-2step-stake-s,570,1576808,0.0-18.0-0.0-0.81,4275,1,2
82,2,object_01,object_06,1010.09,3,2,357.3200001,0.7777777777777778,1,object_08,5,846,0,7,8,forest_16,2,memory-2step-stake-s,571,1585112,0.0-18.0-0.0-0.82,4275,4,3
83,2,object_06,object_01,915.13,3,1,326.4350001,0.8888888888888888,1,object_08,5,886,0,8,9,forest_25,2,memory-2step-stake-s,572,1593489,0.0-18.0-0.0-0.83,4275,3,4
84,1,object_04,object_10,1164.57,2,2,411.7749999,0.6666666666666666,2,object_09,5,916,0,4,6,desert_19,2,memory-2step-stake-s,573,1601746,0.0-18.0-0.0-0.84,4275,1,2
85,1,object_10,object_04,822.5,2,1,342.895,0.5555555555555556,2,object_09,5,941,0,3,5,desert_11,2,memory-2step-stake-s,574,1609826,0.0-18.0-0.0-0.85,4275,2,1
86,2,object_06,object_01,915.71,3,1,845.905,0.4444444444444444,1,object_08,5,961,0,4,3,forest_2,2,memory-2step-stake-s,575,1618306,0.0-18.0-0.0-0.86,4275,3,4
87,4,object_05,object_03,489.665,8,2,476.685,0.4444444444444444,2,object_09,1,965,0,7,4,restaurant_11,2,memory-2step-stake-s,576,1626423,0.0-18.0-0.0-0.87,4275,7,8
88,2,object_01,object_06,966.875,3,2,501.48,0.6666666666666666,1,object_08,5,995,0,6,2,forest_27,2,memory-2step-stake-s,577,1634759,0.0-18.0-0.0-0.88,4275,4,3
89,4,object_05,object_03,1385.25,7,1,779.98,0.4444444444444444,1,object_08,1,999,0,4,3,restaurant_17,2,memory-2step-stake-s,578,1643164,0.0-18.0-0.0-0.89,4275,7,8
90,2,object_06,object_01,769.37,4,2,550.71,0.4444444444444444,2,object_09,5,1019,0,2,4,forest_14,2,memory-2step-stake-s,579,1651354,0.0-18.0-0.0-0.90,4275,3,4
91,1,object_10,object_04,982.065,2,1,469.43000010000003,0.3333333333333333,2,object_09,1,1022,0,6,3,desert_10,2,memory-2step-stake-s,580,1659356,0.0-18.0-0.0-0.91,4275,2,1
92,1,object_10,object_04,1349.09,1,2,523.135,0.5555555555555556,1,object_08,1,1027,0,5,7,desert_27,2,memory-2step-stake-s,581,1667628,0.0-18.0-0.0-0.92,4275,2,1
93,3,object_02,object_07,811.8649998999999,5,1,555.405,0.7777777777777778,1,object_08,1,1034,0,7,6,library_15,2,memory-2step-stake-s,582,1676124,0.0-18.0-0.0-0.93,4275,5,6
94,1,object_10,object_04,679.835,1,2,729.175,0.6666666666666666,1,object_08,5,1064,0,6,2,desert_29,2,memory-2step-stake-s,583,1684694,0.0-18.0-0.0-0.94,4275,2,1
95,3,object_02,object_07,1201.115,5,1,528.165,0.4444444444444444,1,object_08,1,1068,0,4,1,library_29,2,memory-2step-stake-s,584,1692865,0.0-18.0-0.0-0.95,4275,5,6
96,1,object_10,object_04,517.15,2,1,484.7799999,0.3333333333333333,2,object_09,5,1083,0,5,3,desert_11,2,memory-2step-stake-s,585,1700886,0.0-18.0-0.0-0.96,4275,2,1
97,3,object_07,object_02,1301.29,5,2,716.255,0.3333333333333333,1,object_08,1,1086,0,3,1,library_28,2,memory-2step-stake-s,586,1709146,0.0-18.0-0.0-0.97,4275,6,5
98,1,object_04,object_10,356.67,1,1,343.79,0.2222222222222222,1,object_08,5,1096,0,2,3,desert_23,2,memory-2step-stake-s,587,1716918,0.0-18.0-0.0-0.98,4275,1,2
99,3,object_07,object_02,504.18,6,1,668.37,0.3333333333333333,2,object_09,1,1099,0,6,3,library_32,2,memory-2step-stake-s,588,1725115,0.0-18.0-0.0-0.99,4275,6,5
100,3,object_02,object_07,1078.05,5,1,387.84,0.4444444444444444,1,object_08,5,1119,0,4,3,library_18,2,memory-2step-stake-s,589,1733136,0.0-18.0-0.0-0.100,4275,5,6
101,2,object_06,object_01,909.595,4,2,335.755,0.3333333333333333,2,object_09,5,1134,0,5,3,forest_25,2,memory-2step-stake-s,590,1741018,0.0-18.0-0.0-0.101,4275,3,4
102,1,object_10,object_04,668.405,2,1,525.9250001,0.7777777777777778,2,object_09,1,1141,0,8,7,desert_14,2,memory-2step-stake-s,591,1749478,0.0-18.0-0.0-0.102,4275,2,1
103,4,object_03,object_05,671.265,7,2,913.155,1.0,1,object_08,1,1150,0,9,9,restaurant_4,2,memory-2step-stake-s,592,1758534,0.0-18.0-0.0-0.103,4275,8,7
104,3,object_02,object_07,938.68,5,1,642.705,0.6666666666666666,1,object_08,1,1156,0,6,9,library_31,2,memory-2step-stake-s,593,1767027,0.0-18.0-0.0-0.104,4275,5,6
105,2,object_06,object_01,877.23,4,2,786.825,0.6666666666666666,2,object_09,5,1186,0,4,6,forest_17,2,memory-2step-stake-s,594,1775653,0.0-18.0-0.0-0.105,4275,3,4
106,3,object_07,object_02,-1.0,-1,-1,-1.0,0.0,-,,1,1186,0,4,9,library_16,2,memory-2step-stake-s,595,1782176,0.0-18.0-0.0-0.106,4275,6,5
107,4,object_05,object_03,-1.0,-1,-1,-1.0,0.0,-,,1,1186,0,4,8,restaurant_20,2,memory-2step-stake-s,596,1788697,0.0-18.0-0.0-0.107,4275,7,8
108,4,object_03,object_05,435.965,8,1,669.3,0.8888888888888888,2,object_09,1,1194,0,3,8,restaurant_11,2,memory-2step-stake-s,597,1797415,0.0-18.0-0.0-0.108,4275,8,7
109,3,object_02,object_07,770.7399998999999,6,2,712.19,0.8888888888888888,2,object_09,5,1234,0,5,8,library_11,2,memory-2step-stake-s,598,1806170,0.0-18.0-0.0-0.109,4275,5,6
110,3,object_02,object_07,577.9250001,5,1,671.6,0.6666666666666666,1,object_08,5,1264,0,6,5,library_17,2,memory-2step-stake-s,599,1814672,0.0-18.0-0.0-0.110,4275,5,6
111,4,object_03,object_05,399.86,7,2,979.45,1.0,1,object_08,1,1273,0,9,2,restaurant_10,2,memory-2step-stake-s,600,1823807,0.0-18.0-0.0-0.111,4275,8,7
112,3,object_02,object_07,595.98,5,1,767.145,0.5555555555555556,1,object_08,1,1278,0,5,3,library_26,2,memory-2step-stake-s,601,1832318,0.0-18.0-0.0-0.112,4275,5,6
113,4,object_03,object_05,566.455,7,2,548.995,1.0,1,object_08,1,1287,0,9,1,restaurant_30,2,memory-2step-stake-s,602,1841013,0.0-18.0-0.0-0.113,4275,8,7
114,1,object_10,object_04,566.14,2,1,872.495,0.4444444444444444,2,object_09,5,1307,0,9,4,desert_18,2,memory-2step-stake-s,603,1849519,0.0-18.0-0.0-0.114,4275,2,1
115,4,object_05,object_03,994.0150001000001,8,2,695.555,0.6666666666666666,2,object_09,5,1337,0,9,6,restaurant_4,2,memory-2step-stake-s,604,1858047,0.0-18.0-0.0-0.115,4275,7,8
116,1,object_04,object_10,785.175,1,1,512.135,0.8888888888888888,1,object_08,5,1377,0,8,5,desert_18,2,memory-2step-stake-s,605,1866607,0.0-18.0-0.0-0.116,4275,1,2
117,3,object_07,object_02,642.645,6,1,412.38,0.5555555555555556,2,object_09,1,1382,0,6,5,library_31,2,memory-2step-stake-s,606,1874763,0.0-18.0-0.0-0.117,4275,6,5
118,2,object_06,object_01,960.26,4,2,413.165,0.6666666666666666,2,object_09,5,1412,0,8,6,forest_28,2,memory-2step-stake-s,607,1883028,0.0-18.0-0.0-0.118,4275,3,4
119,4,object_03,object_05,753.26,8,1,455.705,0.3333333333333333,2,object_09,5,1427,0,7,3,restaurant_30,2,memory-2step-stake-s,608,1891020,0.0-18.0-0.0-0.119,4275,8,7
120,1,object_10,object_04,865.045,2,1,727.6399999,0.6666666666666666,2,object_09,5,1457,0,9,6,desert_11,2,memory-2step-stake-s,609,1899588,0.0-18.0-0.0-0.120,4275,2,1
121,4,object_05,object_03,639.5800001,8,2,510.935,0.6666666666666666,2,object_09,1,1463,0,9,6,restaurant_11,2,memory-2step-stake-s,610,1907939,0.0-18.0-0.0-0.121,4275,7,8
122,3,object_07,object_02,668.14,6,1,503.665,0.6666666666666666,2,object_09,1,1469,0,7,6,library_29,2,memory-2step-stake-s,611,1916285,0.0-18.0-0.0-0.122,4275,6,5
123,3,object_02,object_07,1058.47,6,2,1033.56,0.7777777777777778,2,object_09,1,1476,0,9,7,library_19,2,memory-2step-stake-s,612,1925257,0.0-18.0-0.0-0.123,4275,5,6
124,2,object_01,object_06,908.945,3,2,575.715,0.6666666666666666,1,object_08,5,1506,0,6,3,forest_19,2,memory-2step-stake-s,613,1933672,0.0-18.0-0.0-0.124,4275,4,3
125,3,object_02,object_07,411.92000010000004,6,2,399.1599999,0.0,2,object_09,5,1506,0,5,0,library_12,2,memory-2step-stake-s,614,1941301,0.0-18.0-0.0-0.125,4275,5,6
126,4,object_03,object_05,1292.79,7,2,569.345,0.8888888888888888,1,object_08,5,1546,0,8,1,restaurant_7,2,memory-2step-stake-s,615,1949923,0.0-18.0-0.0-0.126,4275,8,7
127,3,object_02,object_07,894.9749999,5,1,413.0300001,1.0,1,object_08,5,1591,0,9,3,library_30,2,memory-2step-stake-s,616,1958493,0.0-18.0-0.0-0.127,4275,5,6
128,4,object_05,object_03,602.68,7,1,367.9,0.5555555555555556,1,object_08,1,1596,0,5,5,restaurant_31,2,memory-2step-stake-s,618,2017517,0.0-18.0-0.1-0.128,4275,7,8
129,3,object_07,object_02,342.59,5,2,535.895,0.2222222222222222,1,object_08,1,1598,0,2,6,library_32,2,memory-2step-stake-s,619,2025489,0.0-18.0-0.1-0.129,4275,6,5
130,1,object_10,object_04,649.105,2,1,489.455,0.8888888888888888,2,object_09,1,1606,0,3,8,desert_18,2,memory-2step-stake-s,620,2034038,0.0-18.0-0.1-0.130,4275,2,1
131,4,object_05,object_03,392.89,7,1,604.835,0.0,1,object_08,1,1606,0,0,7,restaurant_30,2,memory-2step-stake-s,621,2041869,0.0-18.0-0.1-0.131,4275,7,8
132,4,object_05,object_03,1039.59,8,2,953.765,0.6666666666666666,2,object_09,1,1612,0,4,6,restaurant_8,2,memory-2step-stake-s,622,2050658,0.0-18.0-0.1-0.132,4275,7,8
133,2,object_06,object_01,824.2800001,4,2,-1.0,0.0,2,object_09,5,1612,0,2,4,forest_16,2,memory-2step-stake-s,623,2059180,0.0-18.0-0.1-0.133,4275,3,4
134,1,object_04,object_10,-1.0,-1,-1,-1.0,0.0,-,,1,1612,0,3,1,desert_23,2,memory-2step-stake-s,624,2065698,0.0-18.0-0.1-0.134,4275,1,2
135,2,object_06,object_01,855.0199999,4,2,450.735,0.3333333333333333,2,object_09,5,1627,0,4,3,forest_30,2,memory-2step-stake-s,625,2073678,0.0-18.0-0.1-0.135,4275,3,4
136,3,object_07,object_02,499.2000001,6,1,557.275,0.2222222222222222,2,object_09,1,1629,0,5,2,library_18,2,memory-2step-stake-s,626,2081666,0.0-18.0-0.1-0.136,4275,6,5
137,1,object_04,object_10,396.155,2,2,394.565,0.0,2,object_09,5,1629,0,6,0,desert_19,2,memory-2step-stake-s,627,2089288,0.0-18.0-0.1-0.137,4275,1,2
138,3,object_02,object_07,464.3700001,6,2,483.73000010000004,0.1111111111111111,2,object_09,1,1630,0,6,1,library_14,2,memory-2step-stake-s,628,2097118,0.0-18.0-0.1-0.138,4275,5,6
139,2,object_06,object_01,1070.665,4,2,341.47,0.2222222222222222,2,object_09,5,1640,0,4,2,forest_32,2,memory-2step-stake-s,629,2104901,0.0-18.0-0.1-0.139,4275,3,4
140,3,object_07,object_02,948.9399999,6,1,674.82,0.2222222222222222,2,object_09,1,1642,0,5,2,library_30,2,memory-2step-stake-s,630,2113005,0.0-18.0-0.1-0.140,4275,6,5
141,3,object_07,object_02,1041.3,5,2,767.525,0.2222222222222222,1,object_08,1,1644,0,2,0,library_26,2,memory-2step-stake-s,631,2121208,0.0-18.0-0.1-0.141,4275,6,5
142,1,object_10,object_04,930.2350001,1,2,646.99,0.4444444444444444,1,object_08,5,1664,0,4,0,desert_11,2,memory-2step-stake-s,632,2129496,0.0-18.0-0.1-0.142,4275,2,1
143,2,object_01,object_06,774.935,4,1,652.395,0.0,2,object_09,5,1664,0,0,0,forest_19,2,memory-2step-stake-s,633,2137380,0.0-18.0-0.1-0.143,4275,4,3
144,1,object_10,object_04,820.16,2,1,460.955,0.0,2,object_09,5,1664,0,3,0,desert_31,2,memory-2step-stake-s,634,2145066,0.0-18.0-0.1-0.144,4275,2,1
145,1,object_04,object_10,1442.16,2,2,636.575,0.1111111111111111,2,object_09,5,1669,0,0,1,desert_9,2,memory-2step-stake-s,635,2153029,0.0-18.0-0.1-0.145,4275,1,2
146,3,object_07,object_02,1116.375,5,2,482.22,0.2222222222222222,1,object_08,1,1671,0,2,1,library_32,2,memory-2step-stake-s,636,2160933,0.0-18.0-0.1-0.146,4275,6,5
147,1,object_04,object_10,965.89,2,2,453.945,0.0,2,object_09,5,1671,0,0,0,desert_25,2,memory-2step-stake-s,637,2168613,0.0-18.0-0.1-0.147,4275,1,2
148,2,object_06,object_01,1191.025,3,1,632.6100001,0.0,1,object_08,5,1671,0,0,1,forest_28,2,memory-2step-stake-s,638,2176474,0.0-18.0-0.1-0.148,4275,3,4
149,4,object_05,object_03,851.2650001000001,7,1,553.97,0.1111111111111111,1,object_08,1,1672,0,1,3,restaurant_11,2,memory-2step-stake-s,639,2184357,0.0-18.0-0.1-0.149,4275,7,8
150,1,object_10,object_04,877.955,2,1,478.815,0.7777777777777778,2,object_09,5,1707,0,3,7,desert_4,2,memory-2step-stake-s,640,2192788,0.0-18.0-0.1-0.150,4275,2,1
151,1,object_04,object_10,559.84,2,2,-1.0,0.0,2,object_09,5,1707,0,3,6,desert_32,2,memory-2step-stake-s,641,2201309,0.0-18.0-0.1-0.151,4275,1,2
152,2,object_06,object_01,924.9249999,4,2,-1.0,0.0,2,object_09,5,1707,0,2,7,forest_13,2,memory-2step-stake-s,642,2209834,0.0-18.0-0.1-0.152,4275,3,4
153,1,object_04,object_10,566.3450001,2,2,-1.0,0.0,2,object_09,5,1707,0,5,6,desert_8,2,memory-2step-stake-s,643,2218358,0.0-18.0-0.1-0.153,4275,1,2
154,3,object_02,object_07,-1.0,-1,-1,-1.0,0.0,-,,1,1707,0,2,9,library_5,2,memory-2step-stake-s,644,2224879,0.0-18.0-0.1-0.154,4275,5,6
155,3,object_02,object_07,1376.68,6,2,855.695,0.8888888888888888,2,object_09,1,1715,0,3,8,library_18,2,memory-2step-stake-s,645,2233775,0.0-18.0-0.1-0.155,4275,5,6
156,2,object_06,object_01,527.8599998999999,3,1,519.7200001,0.3333333333333333,1,object_08,5,1730,0,3,9,forest_2,2,memory-2step-stake-s,646,2241828,0.0-18.0-0.1-0.156,4275,3,4
157,4,object_05,object_03,-1.0,-1,-1,-1.0,0.0,-,,1,1730,0,0,8,restaurant_7,2,memory-2step-stake-s,647,2248351,0.0-18.0-0.1-0.157,4275,7,8
158,1,object_10,object_04,498.12,1,2,520.9250001,0.3333333333333333,1,object_08,1,1733,0,3,8,desert_27,2,memory-2step-stake-s,648,2256410,0.0-18.0-0.1-0.158,4275,2,1
159,2,object_01,object_06,486.7799999,4,1,441.63499989999997,0.8888888888888888,2,object_09,1,1741,0,1,8,forest_28,2,memory-2step-stake-s,649,2264900,0.0-18.0-0.1-0.159,4275,4,3
160,3,object_02,object_07,485.30000010000003,6,2,908.19,0.8888888888888888,2,object_09,1,1749,0,3,8,library_11,2,memory-2step-stake-s,650,2273849,0.0-18.0-0.1-0.160,4275,5,6
161,2,object_01,object_06,524.09,4,1,310.74,0.7777777777777778,2,object_09,5,1784,0,0,7,forest_18,2,memory-2step-stake-s,651,2282100,0.0-18.0-0.1-0.161,4275,4,3
162,4,object_05,object_03,468.735,8,2,401.9000001,0.8888888888888888,2,object_09,1,1792,0,1,8,restaurant_17,2,memory-2step-stake-s,652,2290542,0.0-18.0-0.1-0.162,4275,7,8
163,3,object_02,object_07,1161.08,5,1,475.11,0.3333333333333333,1,object_08,1,1795,0,3,9,library_23,2,memory-2step-stake-s,653,2298553,0.0-18.0-0.1-0.163,4275,5,6
164,1,object_10,object_04,919.98,1,2,480.39,0.2222222222222222,1,object_08,1,1797,0,2,9,desert_31,2,memory-2step-stake-s,654,2306463,0.0-18.0-0.1-0.164,4275,2,1
165,1,object_04,object_10,969.1249999,2,2,485.1200001,0.8888888888888888,2,object_09,1,1805,0,1,8,desert_17,2,memory-2step-stake-s,655,2315000,0.0-18.0-0.1-0.165,4275,1,2
166,4,object_05,object_03,840.22,8,2,521.755,0.8888888888888888,2,object_09,1,1813,0,0,8,restaurant_23,2,memory-2step-stake-s,656,2323561,0.0-18.0-0.1-0.166,4275,7,8
167,2,object_01,object_06,789.84,4,1,448.675,0.5555555555555556,2,object_09,5,1838,0,1,5,forest_25,2,memory-2step-stake-s,657,2331747,0.0-18.0-0.1-0.167,4275,4,3
168,3,object_07,object_02,927.3399999,6,1,450.59,0.2222222222222222,2,object_09,1,1840,0,3,2,library_29,2,memory-2step-stake-s,658,2339630,0.0-18.0-0.1-0.168,4275,6,5
169,3,object_07,object_02,863.41,5,2,451.585,0.4444444444444444,1,object_08,5,1860,0,4,1,library_5,2,memory-2step-stake-s,659,2347715,0.0-18.0-0.1-0.169,4275,6,5
170,1,object_10,object_04,620.305,2,1,422.885,0.0,2,object_09,5,1860,0,4,0,desert_25,2,memory-2step-stake-s,660,2355363,0.0-18.0-0.1-0.170,4275,2,1
171,3,object_07,object_02,662.3600001,6,1,388.985,0.0,2,object_09,1,1860,0,1,0,library_19,2,memory-2step-stake-s,661,2362979,0.0-18.0-0.1-0.171,4275,6,5
172,4,object_03,object_05,811.75,7,2,517.1300001,0.0,1,object_08,1,1860,0,0,2,restaurant_32,2,memory-2step-stake-s,662,2370723,0.0-18.0-0.1-0.172,4275,8,7
173,4,object_05,object_03,-1.0,-1,-1,-1.0,0.0,-,,1,1860,0,1,2,restaurant_4,2,memory-2step-stake-s,663,2377240,0.0-18.0-0.1-0.173,4275,7,8
174,3,object_02,object_07,514.87,5,1,424.76,0.2222222222222222,1,object_08,5,1870,0,2,1,library_11,2,memory-2step-stake-s,664,2385096,0.0-18.0-0.1-0.174,4275,5,6
175,4,object_05,object_03,410.4899999,8,2,495.26,0.0,2,object_09,1,1870,0,1,0,restaurant_2,2,memory-2step-stake-s,665,2392818,0.0-18.0-0.1-0.175,4275,7,8
176,3,object_07,object_02,825.18,6,1,507.535,0.1111111111111111,2,object_09,5,1875,0,2,1,library_18,2,memory-2step-stake-s,666,2400653,0.0-18.0-0.1-0.176,4275,6,5
177,2,object_06,object_01,855.075,4,2,474.235,0.2222222222222222,2,object_09,5,1885,0,2,2,forest_14,2,memory-2step-stake-s,667,2408552,0.0-18.0-0.1-0.177,4275,3,4
178,4,object_03,object_05,800.7,7,2,388.68,0.5555555555555556,1,object_08,5,1910,0,5,2,restaurant_29,2,memory-2step-stake-s,668,2416674,0.0-18.0-0.1-0.178,4275,8,7
179,3,object_02,object_07,1019.89,5,1,413.815,0.4444444444444444,1,object_08,1,1914,0,4,1,library_23,2,memory-2step-stake-s,669,2424720,0.0-18.0-0.1-0.179,4275,5,6
180,1,object_10,object_04,737.06,2,1,474.375,0.1111111111111111,2,object_09,5,1919,0,7,1,desert_31,2,memory-2step-stake-s,670,2432525,0.0-18.0-0.1-0.180,4275,2,1
181,3,object_07,object_02,782.78,5,2,360.8850001,0.7777777777777778,1,object_08,1,1926,0,7,3,library_5,2,memory-2step-stake-s,671,2440831,0.0-18.0-0.1-0.181,4275,6,5
182,4,object_03,object_05,996.6,7,2,572.4449999,0.5555555555555556,1,object_08,5,1951,0,5,2,restaurant_2,2,memory-2step-stake-s,672,2449143,0.0-18.0-0.1-0.182,4275,8,7
183,1,object_04,object_10,1008.22,1,1,451.92,0.5555555555555556,1,object_08,5,1976,0,5,6,desert_14,2,memory-2step-stake-s,673,2457333,0.0-18.0-0.1-0.183,4275,1,2
184,1,object_04,object_10,949.08,2,2,769.125,0.8888888888888888,2,object_09,1,1984,0,4,8,desert_24,2,memory-2step-stake-s,674,2466151,0.0-18.0-0.1-0.184,4275,1,2
185,1,object_10,object_04,920.94,2,1,470.0249999,0.6666666666666666,2,object_09,1,1990,0,1,6,desert_14,2,memory-2step-stake-s,675,2474460,0.0-18.0-0.1-0.185,4275,2,1
186,2,object_01,object_06,1066.74,3,2,395.435,0.2222222222222222,1,object_08,1,1992,0,2,4,forest_11,2,memory-2step-stake-s,676,2482300,0.0-18.0-0.1-0.186,4275,4,3
187,1,object_04,object_10,779.535,2,2,458.505,0.3333333333333333,2,object_09,5,2007,0,4,3,desert_24,2,memory-2step-stake-s,677,2490295,0.0-18.0-0.1-0.187,4275,1,2
188,4,object_05,object_03,697.3049999,7,1,332.915,0.2222222222222222,1,object_08,1,2009,0,2,1,restaurant_28,2,memory-2step-stake-s,678,2498060,0.0-18.0-0.1-0.188,4275,7,8
189,1,object_10,object_04,783.85,1,2,427.23500010000004,0.1111111111111111,1,object_08,1,2010,0,1,1,desert_17,2,memory-2step-stake-s,679,2505814,0.0-18.0-0.1-0.189,4275,2,1
190,1,object_04,object_10,1118.64,1,1,487.2600001,0.0,1,object_08,5,2010,0,0,1,desert_25,2,memory-2step-stake-s,680,2513526,0.0-18.0-0.1-0.190,4275,1,2
191,2,object_06,object_01,835.805,4,2,356.59,0.1111111111111111,2,object_09,5,2015,0,1,1,forest_5,2,memory-2step-stake-s,681,2521217,0.0-18.0-0.1-0.191,4275,3,4
192,2,object_06,object_01,951.8299999,4,2,309.255,0.0,2,object_09,5,2015,0,1,0,forest_4,2,memory-2step-stake-s,682,2528758,0.0-18.0-0.1-0.192,4275,3,4
193,3,object_07,object_02,1184.91,5,2,489.885,0.3333333333333333,1,object_08,1,2018,0,3,0,library_14,2,memory-2step-stake-s,683,2536781,0.0-18.0-0.1-0.193,4275,6,5
194,3,object_07,object_02,979.495,5,2,371.12,0.5555555555555556,1,object_08,1,2023,0,5,0,library_12,2,memory-2step-stake-s,684,2544891,0.0-18.0-0.1-0.194,4275,6,5
195,2,object_06,object_01,807.265,3,1,361.495,0.5555555555555556,1,object_08,5,2048,0,5,2,forest_17,2,memory-2step-stake-s,685,2552992,0.0-18.0-0.1-0.195,4275,3,4
196,2,object_01,object_06,712.1,3,2,324.27,0.3333333333333333,1,object_08,1,2051,0,3,6,forest_13,2,memory-2step-stake-s,686,2560859,0.0-18.0-0.1-0.196,4275,4,3
197,3,object_07,object_02,1174.715,6,1,509.115,0.2222222222222222,2,object_09,1,2053,0,1,2,library_23,2,memory-2step-stake-s,687,2568796,0.0-18.0-0.1-0.197,4275,6,5
198,3,object_07,object_02,753.3150001,6,1,407.19999989999997,0.3333333333333333,2,object_09,1,2056,0,0,3,library_30,2,memory-2step-stake-s,688,2576747,0.0-18.0-0.1-0.198,4275,6,5
199,2,object_06,object_01,1025.655,3,1,543.835,0.2222222222222222,1,object_08,1,2058,0,2,3,forest_20,2,memory-2step-stake-s,689,2584725,0.0-18.0-0.1-0.199,4275,3,4
200,4,object_03,object_05,927.42,8,1,814.6500001,0.3333333333333333,2,object_09,1,2061,0,2,3,restaurant_23,2,memory-2step-stake-s,690,2593087,0.0-18.0-0.1-0.200,4275,8,7
201,4,object_03,object_05,965.035,7,2,468.48500010000004,0.2222222222222222,1,object_08,1,2063,0,2,3,restaurant_20,2,memory-2step-stake-s,691,2600986,0.0-18.0-0.1-0.201,4275,8,7
202,4,object_05,object_03,834.135,8,2,336.5300001,0.0,2,object_09,1,2063,0,2,0,restaurant_2,2,memory-2step-stake-s,692,2608549,0.0-18.0-0.1-0.202,4275,7,8
203,3,object_02,object_07,894.1650001,5,1,452.275,0.0,1,object_08,5,2063,0,0,2,library_12,2,memory-2step-stake-s,693,2616223,0.0-18.0-0.1-0.203,4275,5,6
204,4,object_05,object_03,468.02,8,2,516.255,0.2222222222222222,2,object_09,1,2065,0,2,2,restaurant_6,2,memory-2step-stake-s,694,2624164,0.0-18.0-0.1-0.204,4275,7,8
205,4,object_03,object_05,460.91,8,1,457.8,0.1111111111111111,2,object_09,5,2070,0,3,1,restaurant_8,2,memory-2step-stake-s,695,2631957,0.0-18.0-0.1-0.205,4275,8,7
206,4,object_03,object_05,851.78,7,2,555.975,0.6666666666666666,1,object_08,1,2076,0,6,0,restaurant_31,2,memory-2step-stake-s,696,2640346,0.0-18.0-0.1-0.206,4275,8,7
207,3,object_07,object_02,540.3900001000001,6,1,746.15,0.1111111111111111,2,object_09,5,2081,0,7,1,library_12,2,memory-2step-stake-s,697,2648421,0.0-18.0-0.1-0.207,4275,6,5
208,2,object_01,object_06,701.845,4,1,316.665,0.1111111111111111,2,object_09,5,2086,0,8,1,forest_17,2,memory-2step-stake-s,698,2656068,0.0-18.0-0.1-0.208,4275,4,3
209,4,object_05,object_03,661.78,8,2,559.085,0.2222222222222222,2,object_09,1,2088,0,8,2,restaurant_17,2,memory-2step-stake-s,699,2664061,0.0-18.0-0.1-0.209,4275,7,8
210,2,object_01,object_06,529.32,4,1,454.5049999,0.5555555555555556,2,object_09,5,2113,0,8,5,forest_18,2,memory-2step-stake-s,700,2672250,0.0-18.0-0.1-0.210,4275,4,3
211,3,object_07,object_02,911.1449999,6,1,694.255,0.5555555555555556,2,object_09,1,2118,0,7,5,library_23,2,memory-2step-stake-s,701,2680687,0.0-18.0-0.1-0.211,4275,6,5
212,1,object_04,object_10,604.22,2,2,494.91,0.4444444444444444,2,object_09,5,2138,0,6,4,desert_8,2,memory-2step-stake-s,702,2688820,0.0-18.0-0.1-0.212,4275,1,2
213,4,object_03,object_05,842.67,8,1,945.175,0.4444444444444444,2,object_09,1,2142,0,4,4,restaurant_17,2,memory-2step-stake-s,703,2697401,0.0-18.0-0.1-0.213,4275,8,7
214,3,object_07,object_02,959.04,5,2,584.885,0.2222222222222222,1,object_08,1,2144,0,2,3,library_28,2,memory-2step-stake-s,704,2705417,0.0-18.0-0.1-0.214,4275,6,5
215,3,object_07,object_02,448.595,6,1,612.355,0.2222222222222222,2,object_09,1,2146,0,4,2,library_29,2,memory-2step-stake-s,705,2713460,0.0-18.0-0.1-0.215,4275,6,5
216,4,object_03,object_05,994.165,8,1,965.825,0.3333333333333333,2,object_09,1,2149,0,4,3,restaurant_20,2,memory-2step-stake-s,706,2721956,0.0-18.0-0.1-0.216,4275,8,7
217,4,object_03,object_05,602.05,7,2,452.4749999,0.5555555555555556,1,object_08,5,2174,0,5,3,restaurant_31,2,memory-2step-stake-s,707,2730142,0.0-18.0-0.1-0.217,4275,8,7
218,3,object_07,object_02,594.48,6,1,489.085,0.2222222222222222,2,object_09,5,2184,0,7,2,library_26,2,memory-2step-stake-s,708,2738062,0.0-18.0-0.1-0.218,4275,6,5
219,3,object_07,object_02,1045.02,5,2,474.26,1.0,1,object_08,1,2193,0,9,2,library_14,2,memory-2step-stake-s,709,2746712,0.0-18.0-0.1-0.219,4275,6,5
220,4,object_03,object_05,499.2450001,8,1,448.79000010000004,0.4444444444444444,2,object_09,1,2197,0,4,4,restaurant_29,2,memory-2step-stake-s,710,2754808,0.0-18.0-0.1-0.220,4275,8,7
221,2,object_06,object_01,376.885,3,1,335.23,0.5555555555555556,1,object_08,5,2222,0,5,4,forest_28,2,memory-2step-stake-s,711,2762888,0.0-18.0-0.1-0.221,4275,3,4
222,4,object_05,object_03,621.925,8,2,552.7750001,0.3333333333333333,2,object_09,1,2225,0,3,3,restaurant_28,2,memory-2step-stake-s,712,2770968,0.0-18.0-0.1-0.222,4275,7,8
223,3,object_02,object_07,470.955,5,1,356.275,0.4444444444444444,1,object_08,5,2245,0,4,7,library_17,2,memory-2step-stake-s,713,2778968,0.0-18.0-0.1-0.223,4275,5,6
224,2,object_01,object_06,884.1400001000001,3,2,472.08,0.4444444444444444,1,object_08,5,2265,0,4,6,forest_11,2,memory-2step-stake-s,714,2787085,0.0-18.0-0.1-0.224,4275,4,3
225,3,object_07,object_02,1121.84,6,1,379.98000010000004,0.8888888888888888,2,object_09,1,2273,0,2,8,library_11,2,memory-2step-stake-s,715,2795523,0.0-18.0-0.1-0.225,4275,6,5
226,1,object_10,object_04,407.4650001,1,2,402.43,0.4444444444444444,1,object_08,5,2293,0,4,7,desert_29,2,memory-2step-stake-s,716,2803560,0.0-18.0-0.1-0.226,4275,2,1
227,4,object_05,object_03,597.895,7,1,416.13,0.2222222222222222,1,object_08,1,2295,0,2,7,restaurant_4,2,memory-2step-stake-s,717,2811410,0.0-18.0-0.1-0.227,4275,7,8
228,1,object_10,object_04,1018.725,1,2,303.47,0.1111111111111111,1,object_08,5,2300,0,1,4,desert_27,2,memory-2step-stake-s,718,2819047,0.0-18.0-0.1-0.228,4275,2,1
229,4,object_03,object_05,527.5549999,8,1,346.17500010000003,0.6666666666666666,2,object_09,1,2306,0,0,6,restaurant_29,2,memory-2step-stake-s,719,2827234,0.0-18.0-0.1-0.229,4275,8,7
230,4,object_05,object_03,1367.635,8,2,983.575,0.5555555555555556,2,object_09,1,2311,0,1,5,restaurant_7,2,memory-2step-stake-s,720,2835959,0.0-18.0-0.1-0.230,4275,7,8
231,2,object_01,object_06,612.29,4,1,382.75999989999997,0.7777777777777778,2,object_09,5,2346,0,2,7,forest_14,2,memory-2step-stake-s,721,2844289,0.0-18.0-0.1-0.231,4275,4,3
232,3,object_07,object_02,479.31999989999997,6,1,409.76,0.8888888888888888,2,object_09,1,2354,0,2,8,library_16,2,memory-2step-stake-s,722,2852749,0.0-18.0-0.1-0.232,4275,6,5
233,2,object_01,object_06,842.465,4,1,455.4849999,0.8888888888888888,2,object_09,5,2394,0,1,8,forest_32,2,memory-2step-stake-s,723,2861260,0.0-18.0-0.1-0.233,4275,4,3
234,1,object_10,object_04,716.2199999,1,2,466.55,0.5555555555555556,1,object_08,5,2419,0,5,8,desert_17,2,memory-2step-stake-s,724,2869471,0.0-18.0-0.1-0.234,4275,2,1
235,2,object_01,object_06,938.415,4,1,326.705,0.8888888888888888,2,object_09,5,2459,0,5,8,forest_18,2,memory-2step-stake-s,725,2877847,0.0-18.0-0.1-0.235,4275,4,3
236,1,object_04,object_10,639.13,2,2,360.325,0.6666666666666666,2,object_09,5,2489,0,6,6,desert_32,2,memory-2step-stake-s,726,2886060,0.0-18.0-0.1-0.236,4275,1,2
237,4,object_03,object_05,678.1299999,8,1,944.87,0.5555555555555556,2,object_09,1,2494,0,9,5,restaurant_23,2,memory-2step-stake-s,727,2894743,0.0-18.0-0.1-0.237,4275,8,7
238,2,object_01,object_06,774.045,4,1,669.825,0.2222222222222222,2,object_09,1,2496,0,8,2,forest_20,2,memory-2step-stake-s,728,2902838,0.0-18.0-0.1-0.238,4275,4,3
239,1,object_04,object_10,559.0850001,2,2,429.045,0.4444444444444444,2,object_09,5,2516,0,5,4,desert_32,2,memory-2step-stake-s,729,2910913,0.0-18.0-0.1-0.239,4275,1,2
240,4,object_05,object_03,622.0000001,7,1,596.3,0.5555555555555556,1,object_08,1,2521,0,5,9,restaurant_16,2,memory-2step-stake-s,730,2919254,0.0-18.0-0.1-0.240,4275,7,8
241,3,object_07,object_02,862.27,5,2,503.185,0.1111111111111111,1,object_08,1,2522,0,1,8,library_32,2,memory-2step-stake-s,731,2927084,0.0-18.0-0.1-0.241,4275,6,5
242,4,object_03,object_05,712.135,8,1,487.705,0.6666666666666666,2,object_09,1,2528,0,2,6,restaurant_23,2,memory-2step-stake-s,732,2935414,0.0-18.0-0.1-0.242,4275,8,7
243,2,object_06,object_01,857.325,3,1,443.6049999,0.1111111111111111,1,object_08,5,2533,0,1,7,forest_16,2,memory-2step-stake-s,733,2943190,0.0-18.0-0.1-0.243,4275,3,4
244,2,object_01,object_06,1258.245,3,2,689.7949999,0.1111111111111111,1,object_08,1,2534,0,1,8,forest_30,2,memory-2step-stake-s,734,2951201,0.0-18.0-0.1-0.244,4275,4,3
245,1,object_10,object_04,584.005,2,1,516.685,0.7777777777777778,2,object_09,5,2569,0,2,7,desert_10,2,memory-2step-stake-s,735,2959649,0.0-18.0-0.1-0.245,4275,2,1
246,2,object_01,object_06,1398.8,3,2,589.32,0.3333333333333333,1,object_08,5,2584,0,3,9,forest_5,2,memory-2step-stake-s,736,2967766,0.0-18.0-0.1-0.246,4275,4,3
247,3,object_02,object_07,902.755,6,2,451.22,0.8888888888888888,2,object_09,1,2592,0,5,8,library_15,2,memory-2step-stake-s,737,2976275,0.0-18.0-0.1-0.247,4275,5,6
248,2,object_01,object_06,752.62,3,2,706.88,0.3333333333333333,1,object_08,5,2607,0,3,7,forest_4,2,memory-2step-stake-s,738,2984522,0.0-18.0-0.1-0.248,4275,4,3
249,2,object_06,object_01,892.06,3,1,439.335,0.3333333333333333,1,object_08,1,2610,0,3,6,forest_2,2,memory-2step-stake-s,739,2992501,0.0-18.0-0.1-0.249,4275,3,4
250,2,object_06,object_01,842.8099999,3,1,447.565,0.0,1,object_08,1,2610,0,0,8,forest_30,2,memory-2step-stake-s,740,3000180,0.0-18.0-0.1-0.250,4275,3,4
251,4,object_05,object_03,1314.825,8,2,596.3249999,0.5555555555555556,2,object_09,5,2635,0,1,5,restaurant_16,2,memory-2step-stake-s,741,3008517,0.0-18.0-0.1-0.251,4275,7,8
252,1,object_10,object_04,728.73,2,1,545.285,0.4444444444444444,2,object_09,5,2655,0,0,4,desert_27,2,memory-2step-stake-s,742,3016698,0.0-18.0-0.1-0.252,4275,2,1
253,4,object_05,object_03,569.9250001,8,2,505.64,0.3333333333333333,2,object_09,1,2658,0,1,3,restaurant_30,2,memory-2step-stake-s,743,3024736,0.0-18.0-0.1-0.253,4275,7,8
254,1,object_04,object_10,476.545,1,1,1232.265,0.0,1,object_08,5,2658,0,0,5,desert_29,2,memory-2step-stake-s,744,3033194,0.0-18.0-0.1-0.254,4275,1,2
255,2,object_06,object_01,953.605,3,1,459.5499999,0.1111111111111111,1,object_08,1,2659,0,1,7,forest_5,2,memory-2step-stake-s,745,3040984,0.0-18.0-0.1-0.255,4275,3,4
