,state1,stim_left,stim_right,rt_1,choice1,response1,rt_2,points,state2,stim_state2,stake,score,practice,rews1,rews2,background,high_arm,trial_type,trial_index,time_elapsed,internal_node_id,subid,stim_left_num,stim_right_num
0,4,object_08,object_03,1292.98,8,1,-1.0,0.0,2,object_10,5,0,0,2,6,restaurant_2,1,memory-2step-stake-s,489,1712608,0.0-18.0-0.0-0.0,2370,8,7
1,3,object_07,object_04,1107.41,5,2,1036.79,0.2222222222222222,1,object_09,5,10,0,2,7,library_22,1,memory-2step-stake-s,490,1721127,0.0-18.0-0.0-0.1,2370,6,5
2,1,object_01,object_05,640.485,2,1,1130.68,0.5555555555555556,2,object_10,1,15,0,9,5,desert_16,1,memory-2step-stake-s,491,1730046,0.0-18.0-0.0-0.2,2370,2,1
3,1,object_05,object_01,1093.38,2,2,396.115,0.5555555555555556,2,object_10,1,20,0,6,5,desert_5,1,memory-2step-stake-s,492,1738252,0.0-18.0-0.0-0.3,2370,1,2
4,4,object_03,object_08,884.545,7,1,436.895,0.5555555555555556,1,object_09,5,45,0,5,4,restaurant_9,1,memory-2step-stake-s,493,1746477,0.0-18.0-0.0-0.4,2370,7,8
5,2,object_02,object_06,900.375,4,2,756.885,0.6666666666666666,2,object_10,1,51,0,6,6,forest_21,1,memory-2step-stake-s,494,1755148,0.0-18.0-0.0-0.5,2370,3,4
6,1,object_01,object_05,842.29,2,1,392.33,0.8888888888888888,2,object_10,1,59,0,2,8,desert_24,1,memory-2step-stake-s,495,1763679,0.0-18.0-0.0-0.6,2370,2,1
7,4,object_03,object_08,962.52,7,1,344.69,0.1111111111111111,1,object_09,5,64,0,1,9,restaurant_9,1,memory-2step-stake-s,496,1771427,0.0-18.0-0.0-0.7,2370,7,8
8,4,object_08,object_03,1120.11,8,1,297.03,0.5555555555555556,2,object_10,5,89,0,3,5,restaurant_14,1,memory-2step-stake-s,497,1779527,0.0-18.0-0.0-0.8,2370,8,7
9,1,object_05,object_01,933.94,2,2,336.34,0.5555555555555556,2,object_10,1,94,0,4,5,desert_8,1,memory-2step-stake-s,498,1787650,0.0-18.0-0.0-0.9,2370,1,2
10,2,object_06,object_02,942.035,4,1,555.86,0.3333333333333333,2,object_10,1,97,0,5,3,forest_20,1,memory-2step-stake-s,499,1795787,0.0-18.0-0.0-0.10,2370,4,3
11,3,object_07,object_04,1084.875,6,1,560.9,0.2222222222222222,2,object_10,5,107,0,3,2,library_31,1,memory-2step-stake-s,500,1803817,0.0-18.0-0.0-0.11,2370,6,5
12,1,object_05,object_01,686.505,1,1,295.975,0.4444444444444444,1,object_09,5,127,0,4,3,desert_8,1,memory-2step-stake-s,501,1811776,0.0-18.0-0.0-0.12,2370,1,2
13,3,object_04,object_07,1053.805,5,1,512.685,0.7777777777777778,1,object_09,1,134,0,7,4,library_3,1,memory-2step-stake-s,502,1820312,0.0-18.0-0.0-0.13,2370,5,6
14,2,object_06,object_02,913.385,3,2,431.845,0.5555555555555556,1,object_09,1,139,0,5,5,forest_14,1,memory-2step-stake-s,503,1828557,0.0-18.0-0.0-0.14,2370,4,3
15,1,object_05,object_01,949.17,1,1,261.565,0.2222222222222222,1,object_09,1,141,0,2,6,desert_12,1,memory-2step-stake-s,504,1836284,0.0-18.0-0.0-0.15,2370,1,2
16,3,object_04,object_07,802.225,6,2,307.25,0.6666666666666666,2,object_10,5,171,0,1,6,library_31,1,memory-2step-stake-s,505,1844492,0.0-18.0-0.0-0.16,2370,5,6
17,2,object_06,object_02,776.895,4,1,291.56,0.7777777777777778,2,object_10,1,178,0,1,7,forest_20,1,memory-2step-stake-s,506,1852802,0.0-18.0-0.0-0.17,2370,4,3
18,4,object_03,object_08,1065.73,7,1,263.635,0.2222222222222222,1,object_09,5,188,0,2,8,restaurant_25,1,memory-2step-stake-s,507,1860543,0.0-18.0-0.0-0.18,2370,7,8
19,3,object_04,object_07,1018.93,5,1,403.64,0.1111111111111111,1,object_09,5,193,0,1,8,library_24,1,memory-2step-stake-s,508,1868331,0.0-18.0-0.0-0.19,2370,5,6
20,4,object_03,object_08,856.775,8,2,318.02,0.8888888888888888,2,object_10,5,233,0,1,8,restaurant_4,1,memory-2step-stake-s,509,1876777,0.0-18.0-0.0-0.20,2370,7,8
21,3,object_07,object_04,1145.515,5,2,370.45,0.4444444444444444,1,object_09,5,253,0,4,7,library_1,1,memory-2step-stake-s,510,1884848,0.0-18.0-0.0-0.21,2370,6,5
22,3,object_07,object_04,1131.565,6,1,455.695,0.7777777777777778,2,object_10,1,260,0,8,7,library_25,1,memory-2step-stake-s,511,1893306,0.0-18.0-0.0-0.22,2370,6,5
23,1,object_05,object_01,1056.395,2,2,404.61,0.8888888888888888,2,object_10,1,268,0,4,8,desert_26,1,memory-2step-stake-s,512,1901813,0.0-18.0-0.0-0.23,2370,1,2
24,2,object_06,object_02,880.765,3,2,336.615,0.8888888888888888,1,object_09,1,276,0,8,6,forest_3,1,memory-2step-stake-s,513,1910253,0.0-18.0-0.0-0.24,2370,4,3
25,1,object_05,object_01,1004.115,2,2,348.185,0.7777777777777778,2,object_10,1,283,0,8,7,desert_21,1,memory-2step-stake-s,514,1918616,0.0-18.0-0.0-0.25,2370,1,2
26,2,object_06,object_02,846.605,3,2,417.41,0.5555555555555556,1,object_09,1,288,0,5,7,forest_16,1,memory-2step-stake-s,515,1926803,0.0-18.0-0.0-0.26,2370,4,3
27,1,object_05,object_01,812.725,2,2,407.68,0.6666666666666666,2,object_10,5,318,0,4,6,desert_20,1,memory-2step-stake-s,516,1935104,0.0-18.0-0.0-0.27,2370,1,2
28,1,object_05,object_01,916.555,1,1,327.01,0.0,1,object_09,5,318,0,0,9,desert_5,1,memory-2step-stake-s,517,1942688,0.0-18.0-0.0-0.28,2370,1,2
29,2,object_02,object_06,916.625,4,2,359.48,1.0,2,object_10,1,327,0,3,9,forest_10,1,memory-2step-stake-s,518,1951280,0.0-18.0-0.0-0.29,2370,3,4
30,2,object_06,object_02,858.31,4,1,332.89,1.0,2,object_10,1,336,0,2,9,forest_10,1,memory-2step-stake-s,519,1959813,0.0-18.0-0.0-0.30,2370,4,3
31,3,object_07,object_04,-1.0,-1,-1,-1.0,0.0,-,,5,336,0,1,5,library_18,1,memory-2step-stake-s,520,1966380,0.0-18.0-0.0-0.31,2370,6,5
32,3,object_07,object_04,746.535,6,1,299.96,0.5555555555555556,2,object_10,1,341,0,2,5,library_24,1,memory-2step-stake-s,521,1974495,0.0-18.0-0.0-0.32,2370,6,5
33,1,object_01,object_05,629.115,2,1,27.63,0.6666666666666666,2,object_10,1,347,0,2,6,desert_19,1,memory-2step-stake-s,522,1982403,0.0-18.0-0.0-0.33,2370,2,1
34,3,object_04,object_07,807.59,6,2,342.48,0.3333333333333333,2,object_10,5,362,0,4,3,library_21,1,memory-2step-stake-s,523,1990336,0.0-18.0-0.0-0.34,2370,5,6
35,3,object_04,object_07,957.195,5,1,572.005,0.5555555555555556,1,object_09,5,387,0,5,6,library_25,1,memory-2step-stake-s,524,1998681,0.0-18.0-0.0-0.35,2370,5,6
36,4,object_08,object_03,1027.3,7,2,345.87,0.7777777777777778,1,object_09,5,422,0,7,2,restaurant_1,1,memory-2step-stake-s,525,2007026,0.0-18.0-0.0-0.36,2370,8,7
37,2,object_02,object_06,1057.265,3,1,415.845,1.0,1,object_09,5,467,0,9,6,forest_3,1,memory-2step-stake-s,526,2015683,0.0-18.0-0.0-0.37,2370,3,4
38,3,object_07,object_04,645.725,6,1,358.495,0.6666666666666666,2,object_10,5,497,0,9,6,library_5,1,memory-2step-stake-s,527,2023971,0.0-18.0-0.0-0.38,2370,6,5
39,3,object_07,object_04,813.85,5,2,293.15,0.8888888888888888,1,object_09,5,537,0,8,6,library_29,1,memory-2step-stake-s,528,2032367,0.0-18.0-0.0-0.39,2370,6,5
40,4,object_08,object_03,1119.735,7,2,312.96,0.6666666666666666,1,object_09,5,567,0,6,6,restaurant_1,1,memory-2step-stake-s,529,2040590,0.0-18.0-0.0-0.40,2370,8,7
41,4,object_08,object_03,947.375,8,1,295.125,0.5555555555555556,2,object_10,5,592,0,6,5,restaurant_2,1,memory-2step-stake-s,530,2048681,0.0-18.0-0.0-0.41,2370,8,7
42,2,object_06,object_02,1283.51,4,1,293.01,0.4444444444444444,2,object_10,1,596,0,8,4,forest_25,1,memory-2step-stake-s,531,2056666,0.0-18.0-0.0-0.42,2370,4,3
43,2,object_06,object_02,998.475,3,2,318.87,0.4444444444444444,1,object_09,1,600,0,4,4,forest_17,1,memory-2step-stake-s,532,2064700,0.0-18.0-0.0-0.43,2370,4,3
44,3,object_07,object_04,1159.125,6,1,348.645,0.5555555555555556,2,object_10,5,625,0,2,5,library_24,1,memory-2step-stake-s,533,2072843,0.0-18.0-0.0-0.44,2370,6,5
45,1,object_05,object_01,1046.375,2,2,341.92,0.8888888888888888,2,object_10,1,633,0,1,8,desert_13,1,memory-2step-stake-s,534,2081285,0.0-18.0-0.0-0.45,2370,1,2
46,3,object_04,object_07,1165.485,6,2,367.225,0.8888888888888888,2,object_10,5,673,0,1,8,library_1,1,memory-2step-stake-s,535,2089763,0.0-18.0-0.0-0.46,2370,5,6
47,3,object_07,object_04,896.225,6,1,349.51,0.7777777777777778,2,object_10,1,680,0,3,7,library_31,1,memory-2step-stake-s,536,2098122,0.0-18.0-0.0-0.47,2370,6,5
48,2,object_02,object_06,1365.29,4,2,445.37,0.3333333333333333,2,object_10,1,683,0,3,3,forest_12,1,memory-2step-stake-s,537,2106191,0.0-18.0-0.0-0.48,2370,3,4
49,1,object_01,object_05,636.075,1,2,274.27,0.4444444444444444,1,object_09,1,687,0,4,1,desert_20,1,memory-2step-stake-s,538,2114168,0.0-18.0-0.0-0.49,2370,2,1
50,1,object_01,object_05,640.89,2,1,282.45,0.1111111111111111,2,object_10,1,688,0,2,1,desert_5,1,memory-2step-stake-s,539,2121817,0.0-18.0-0.0-0.50,2370,2,1
51,2,object_02,object_06,1030.275,3,1,330.625,0.3333333333333333,1,object_09,1,691,0,3,2,forest_1,1,memory-2step-stake-s,540,2129732,0.0-18.0-0.0-0.51,2370,3,4
52,4,object_03,object_08,969.715,7,1,298.17,0.4444444444444444,1,object_09,5,711,0,4,2,restaurant_25,1,memory-2step-stake-s,541,2137720,0.0-18.0-0.0-0.52,2370,7,8
53,4,object_03,object_08,1024.065,8,2,341.19,0.2222222222222222,2,object_10,5,721,0,4,2,restaurant_1,1,memory-2step-stake-s,542,2145538,0.0-18.0-0.0-0.53,2370,7,8
54,3,object_07,object_04,1228.73,5,2,515.895,0.6666666666666666,1,object_09,5,751,0,6,2,library_22,1,memory-2step-stake-s,543,2153956,0.0-18.0-0.0-0.54,2370,6,5
55,3,object_07,object_04,467.94,5,2,328.395,0.5555555555555556,1,object_09,1,756,0,5,0,library_29,1,memory-2step-stake-s,544,2162076,0.0-18.0-0.0-0.55,2370,6,5
56,3,object_04,object_07,944.22,5,1,311.715,0.6666666666666666,1,object_09,5,786,0,6,1,library_18,1,memory-2step-stake-s,545,2170291,0.0-18.0-0.0-0.56,2370,5,6
57,3,object_07,object_04,683.305,5,2,345.55,0.4444444444444444,1,object_09,5,806,0,4,1,library_26,1,memory-2step-stake-s,546,2178316,0.0-18.0-0.0-0.57,2370,6,5
58,2,object_02,object_06,767.42,4,2,265.475,0.3333333333333333,2,object_10,1,809,0,2,3,forest_21,1,memory-2step-stake-s,547,2186148,0.0-18.0-0.0-0.58,2370,3,4
59,4,object_08,object_03,1312.525,7,2,360.62,0.2222222222222222,1,object_09,5,819,0,2,4,restaurant_19,1,memory-2step-stake-s,548,2193961,0.0-18.0-0.0-0.59,2370,8,7
60,3,object_07,object_04,954.145,6,1,313.385,0.2222222222222222,2,object_10,5,829,0,1,2,library_23,1,memory-2step-stake-s,549,2201742,0.0-18.0-0.0-0.60,2370,6,5
61,1,object_05,object_01,719.36,1,1,293.965,0.6666666666666666,1,object_09,1,835,0,6,0,desert_21,1,memory-2step-stake-s,550,2209966,0.0-18.0-0.0-0.61,2370,1,2
62,4,object_03,object_08,1213.305,8,2,398.69,0.1111111111111111,2,object_10,5,840,0,6,1,restaurant_11,1,memory-2step-stake-s,551,2217761,0.0-18.0-0.0-0.62,2370,7,8
63,2,object_06,object_02,1182.28,3,2,311.865,0.7777777777777778,1,object_09,1,847,0,7,3,forest_28,1,memory-2step-stake-s,552,2226092,0.0-18.0-0.0-0.63,2370,4,3
64,1,object_01,object_05,480.87,1,2,282.88,0.2222222222222222,1,object_09,1,849,0,2,5,desert_28,1,memory-2step-stake-s,553,2233854,0.0-18.0-0.0-0.64,2370,2,1
65,3,object_04,object_07,869.235,6,2,327.34,0.2222222222222222,2,object_10,5,859,0,2,2,library_26,1,memory-2step-stake-s,554,2241661,0.0-18.0-0.0-0.65,2370,5,6
66,4,object_03,object_08,1123.415,7,1,327.905,0.0,1,object_09,5,859,0,0,3,restaurant_2,1,memory-2step-stake-s,555,2249258,0.0-18.0-0.0-0.66,2370,7,8
67,1,object_01,object_05,987.905,2,1,360.34,0.5555555555555556,2,object_10,1,864,0,1,5,desert_26,1,memory-2step-stake-s,556,2257400,0.0-18.0-0.0-0.67,2370,2,1
68,1,object_05,object_01,574.565,2,2,357.56,0.4444444444444444,2,object_10,1,868,0,2,4,desert_8,1,memory-2step-stake-s,557,2265417,0.0-18.0-0.0-0.68,2370,1,2
69,4,object_03,object_08,1023.215,7,1,314.185,0.2222222222222222,1,object_09,5,878,0,2,6,restaurant_11,1,memory-2step-stake-s,558,2273221,0.0-18.0-0.0-0.69,2370,7,8
70,4,object_03,object_08,982.865,8,2,403.455,0.1111111111111111,2,object_10,5,883,0,0,1,restaurant_5,1,memory-2step-stake-s,559,2280999,0.0-18.0-0.0-0.70,2370,7,8
71,3,object_07,object_04,1011.415,6,1,378.62,0.2222222222222222,2,object_10,5,893,0,2,2,library_21,1,memory-2step-stake-s,560,2288863,0.0-18.0-0.0-0.71,2370,6,5
72,2,object_02,object_06,657.695,3,1,310.9,0.0,1,object_09,1,893,0,0,3,forest_21,1,memory-2step-stake-s,561,2296448,0.0-18.0-0.0-0.72,2370,3,4
73,2,object_06,object_02,681.9,3,2,410.45,0.2222222222222222,1,object_09,1,895,0,2,2,forest_28,1,memory-2step-stake-s,562,2304331,0.0-18.0-0.0-0.73,2370,4,3
74,3,object_07,object_04,1137.23,6,1,322.57,0.3333333333333333,2,object_10,5,910,0,4,3,library_31,1,memory-2step-stake-s,563,2312262,0.0-18.0-0.0-0.74,2370,6,5
75,2,object_06,object_02,528.535,4,1,291.71,0.3333333333333333,2,object_10,5,925,0,4,3,forest_1,1,memory-2step-stake-s,564,2320156,0.0-18.0-0.0-0.75,2370,4,3
76,4,object_08,object_03,970.56,7,2,399.095,0.6666666666666666,1,object_09,1,931,0,6,1,restaurant_7,1,memory-2step-stake-s,565,2328469,0.0-18.0-0.0-0.76,2370,8,7
77,1,object_05,object_01,632.385,1,1,285.195,0.6666666666666666,1,object_09,5,961,0,6,4,desert_19,1,memory-2step-stake-s,566,2336636,0.0-18.0-0.0-0.77,2370,1,2
78,2,object_02,object_06,494.32,3,1,351.825,0.7777777777777778,1,object_09,1,968,0,7,4,forest_29,1,memory-2step-stake-s,567,2344995,0.0-18.0-0.0-0.78,2370,3,4
79,4,object_03,object_08,845.42,7,1,328.08,0.5555555555555556,1,object_09,5,993,0,5,0,restaurant_5,1,memory-2step-stake-s,568,2353129,0.0-18.0-0.0-0.79,2370,7,8
80,4,object_08,object_03,791.365,7,2,380.61,0.7777777777777778,1,object_09,5,1028,0,7,0,restaurant_28,1,memory-2step-stake-s,569,2361504,0.0-18.0-0.0-0.80,2370,8,7
81,2,object_06,object_02,592.075,3,2,296.21,0.8888888888888888,1,object_09,1,1036,0,8,2,forest_26,1,memory-2step-stake-s,570,2369923,0.0-18.0-0.0-0.81,2370,4,3
82,4,object_03,object_08,960.495,7,1,571.195,0.7777777777777778,1,object_09,5,1071,0,7,1,restaurant_9,1,memory-2step-stake-s,571,2378503,0.0-18.0-0.0-0.82,2370,7,8
83,4,object_03,object_08,732.185,7,1,362.08,0.5555555555555556,1,object_09,5,1096,0,5,0,restaurant_4,1,memory-2step-stake-s,572,2386684,0.0-18.0-0.0-0.83,2370,7,8
84,4,object_03,object_08,591.415,8,2,312.46,0.2222222222222222,2,object_10,5,1106,0,5,2,restaurant_29,1,memory-2step-stake-s,573,2394505,0.0-18.0-0.0-0.84,2370,7,8
85,3,object_04,object_07,1095.82,5,1,420.02,0.2222222222222222,1,object_09,5,1116,0,2,2,library_23,1,memory-2step-stake-s,574,2402425,0.0-18.0-0.0-0.85,2370,5,6
86,1,object_01,object_05,995.445,2,1,268.06,0.8888888888888888,2,object_10,1,1124,0,3,8,desert_6,1,memory-2step-stake-s,575,2410808,0.0-18.0-0.0-0.86,2370,2,1
87,2,object_02,object_06,510.83,4,2,296.795,1.0,2,object_10,1,1133,0,2,9,forest_28,1,memory-2step-stake-s,576,2419345,0.0-18.0-0.0-0.87,2370,3,4
88,3,object_04,object_07,1365.49,6,2,305.945,0.8888888888888888,2,object_10,5,1173,0,4,8,library_5,1,memory-2step-stake-s,577,2427779,0.0-18.0-0.0-0.88,2370,5,6
89,3,object_07,object_04,672.305,6,1,274.905,0.8888888888888888,2,object_10,5,1213,0,8,8,library_18,1,memory-2step-stake-s,578,2436189,0.0-18.0-0.0-0.89,2370,6,5
90,4,object_08,object_03,983.885,8,1,344.445,0.6666666666666666,2,object_10,5,1243,0,6,6,restaurant_23,1,memory-2step-stake-s,579,2444428,0.0-18.0-0.0-0.90,2370,8,7
91,4,object_03,object_08,982.1,8,2,266.27,0.7777777777777778,2,object_10,5,1278,0,3,7,restaurant_14,1,memory-2step-stake-s,580,2452705,0.0-18.0-0.0-0.91,2370,7,8
92,1,object_05,object_01,605.91,2,2,293.6,0.6666666666666666,2,object_10,1,1284,0,3,6,desert_26,1,memory-2step-stake-s,581,2460929,0.0-18.0-0.0-0.92,2370,1,2
93,4,object_03,object_08,1024.635,8,2,321.885,0.6666666666666666,2,object_10,5,1314,0,1,6,restaurant_16,1,memory-2step-stake-s,582,2469164,0.0-18.0-0.0-0.93,2370,7,8
94,3,object_07,object_04,1006.215,6,1,361.46,0.8888888888888888,2,object_10,5,1354,0,1,8,library_18,1,memory-2step-stake-s,583,2477639,0.0-18.0-0.0-0.94,2370,6,5
95,2,object_02,object_06,866.14,4,2,345.54,0.8888888888888888,2,object_10,1,1362,0,3,8,forest_6,1,memory-2step-stake-s,584,2486090,0.0-18.0-0.0-0.95,2370,3,4
96,2,object_06,object_02,758.515,4,1,315.48,0.5555555555555556,2,object_10,1,1367,0,3,5,forest_22,1,memory-2step-stake-s,585,2494174,0.0-18.0-0.0-0.96,2370,4,3
97,1,object_01,object_05,500.15,1,2,248.305,0.2222222222222222,1,object_09,1,1369,0,2,5,desert_11,1,memory-2step-stake-s,586,2501928,0.0-18.0-0.0-0.97,2370,2,1
98,3,object_04,object_07,863.3,6,2,263.705,0.2222222222222222,2,object_10,5,1379,0,4,2,library_8,1,memory-2step-stake-s,587,2509661,0.0-18.0-0.0-0.98,2370,5,6
99,2,object_02,object_06,490.755,3,1,331.235,0.5555555555555556,1,object_09,1,1384,0,5,2,forest_17,1,memory-2step-stake-s,588,2517777,0.0-18.0-0.0-0.99,2370,3,4
100,2,object_02,object_06,475.76,3,1,298.08,0.3333333333333333,1,object_09,1,1387,0,3,2,forest_6,1,memory-2step-stake-s,589,2525659,0.0-18.0-0.0-0.100,2370,3,4
101,4,object_03,object_08,973.45,7,1,296.19,0.2222222222222222,1,object_09,5,1397,0,2,2,restaurant_7,1,memory-2step-stake-s,590,2533418,0.0-18.0-0.0-0.101,2370,7,8
102,2,object_02,object_06,446.73,4,2,264.645,0.4444444444444444,2,object_10,1,1401,0,8,4,forest_14,1,memory-2step-stake-s,591,2541359,0.0-18.0-0.0-0.102,2370,3,4
103,3,object_07,object_04,1252.32,5,2,360.31,0.7777777777777778,1,object_09,5,1436,0,7,3,library_13,1,memory-2step-stake-s,592,2549699,0.0-18.0-0.0-0.103,2370,6,5
104,1,object_01,object_05,452.93,1,2,263.155,0.7777777777777778,1,object_09,5,1471,0,7,5,desert_13,1,memory-2step-stake-s,593,2557969,0.0-18.0-0.0-0.104,2370,2,1
105,4,object_03,object_08,971.06,7,1,312.61,0.6666666666666666,1,object_09,5,1501,0,6,4,restaurant_19,1,memory-2step-stake-s,594,2566163,0.0-18.0-0.0-0.105,2370,7,8
106,1,object_01,object_05,674.605,1,2,266.525,0.4444444444444444,1,object_09,5,1521,0,4,1,desert_24,1,memory-2step-stake-s,595,2574129,0.0-18.0-0.0-0.106,2370,2,1
107,2,object_02,object_06,453.805,4,2,294.33,0.1111111111111111,2,object_10,1,1522,0,3,1,forest_22,1,memory-2step-stake-s,596,2581800,0.0-18.0-0.0-0.107,2370,3,4
108,1,object_01,object_05,700.245,1,2,395.19,0.4444444444444444,1,object_09,1,1526,0,4,4,desert_30,1,memory-2step-stake-s,597,2589905,0.0-18.0-0.0-0.108,2370,2,1
109,4,object_08,object_03,865.39,7,2,281.94,0.6666666666666666,1,object_09,5,1556,0,6,2,restaurant_31,1,memory-2step-stake-s,598,2598097,0.0-18.0-0.0-0.109,2370,8,7
110,2,object_06,object_02,902.755,3,2,506.79,0.7777777777777778,1,object_09,1,1563,0,7,4,forest_6,1,memory-2step-stake-s,599,2606625,0.0-18.0-0.0-0.110,2370,4,3
111,3,object_07,object_04,1244.185,5,2,408.28,0.6666666666666666,1,object_09,5,1593,0,6,4,library_3,1,memory-2step-stake-s,600,2614932,0.0-18.0-0.0-0.111,2370,6,5
112,2,object_06,object_02,441.25,3,2,266.27,0.7777777777777778,1,object_09,5,1628,0,7,3,forest_12,1,memory-2step-stake-s,601,2623199,0.0-18.0-0.0-0.112,2370,4,3
113,4,object_08,object_03,1151.045,7,2,314.55,0.8888888888888888,1,object_09,5,1668,0,8,1,restaurant_11,1,memory-2step-stake-s,602,2631635,0.0-18.0-0.0-0.113,2370,8,7
114,1,object_01,object_05,682.065,1,2,264.515,1.0,1,object_09,1,1677,0,9,4,desert_16,1,memory-2step-stake-s,603,2640131,0.0-18.0-0.0-0.114,2370,2,1
115,4,object_03,object_08,575.24,7,1,267.845,1.0,1,object_09,5,1722,0,9,5,restaurant_5,1,memory-2step-stake-s,604,2648606,0.0-18.0-0.0-0.115,2370,7,8
116,3,object_07,object_04,940.42,5,2,281.385,1.0,1,object_09,5,1767,0,9,4,library_26,1,memory-2step-stake-s,605,2657130,0.0-18.0-0.0-0.116,2370,6,5
117,1,object_01,object_05,569.065,1,2,249.93,0.5555555555555556,1,object_09,1,1772,0,5,5,desert_6,1,memory-2step-stake-s,606,2665175,0.0-18.0-0.0-0.117,2370,2,1
118,3,object_07,object_04,564.495,6,1,346.51,0.6666666666666666,2,object_10,5,1802,0,7,6,library_3,1,memory-2step-stake-s,607,2673413,0.0-18.0-0.0-0.118,2370,6,5
119,4,object_08,object_03,1039.66,8,1,316.895,0.5555555555555556,2,object_10,1,1807,0,5,5,restaurant_4,1,memory-2step-stake-s,608,2681545,0.0-18.0-0.0-0.119,2370,8,7
120,3,object_07,object_04,922.965,5,2,299.705,0.7777777777777778,1,object_09,1,1814,0,7,7,library_8,1,memory-2step-stake-s,609,2689863,0.0-18.0-0.0-0.120,2370,6,5
121,2,object_06,object_02,523.76,3,2,251.69,0.8888888888888888,1,object_09,5,1854,0,8,5,forest_25,1,memory-2step-stake-s,610,2698247,0.0-18.0-0.0-0.121,2370,4,3
122,3,object_04,object_07,861.825,5,1,313.48,1.0,1,object_09,1,1863,0,9,5,library_25,1,memory-2step-stake-s,611,2706795,0.0-18.0-0.0-0.122,2370,5,6
123,2,object_06,object_02,477.2,3,2,342.98,0.7777777777777778,1,object_09,1,1870,0,7,1,forest_25,1,memory-2step-stake-s,612,2715138,0.0-18.0-0.0-0.123,2370,4,3
124,2,object_06,object_02,415.185,3,2,281.13,0.8888888888888888,1,object_09,5,1910,0,8,0,forest_28,1,memory-2step-stake-s,613,2723502,0.0-18.0-0.0-0.124,2370,4,3
125,1,object_01,object_05,699.72,1,2,300.905,0.7777777777777778,1,object_09,1,1917,0,7,2,desert_19,1,memory-2step-stake-s,614,2731803,0.0-18.0-0.0-0.125,2370,2,1
126,3,object_07,object_04,1162.63,5,2,311.145,0.8888888888888888,1,object_09,1,1925,0,8,3,library_27,1,memory-2step-stake-s,615,2740248,0.0-18.0-0.0-0.126,2370,6,5
127,2,object_06,object_02,639.26,3,2,250.54,1.0,1,object_09,1,1934,0,9,3,forest_1,1,memory-2step-stake-s,616,2748699,0.0-18.0-0.0-0.127,2370,4,3
128,1,object_05,object_01,1030.545,1,1,350.075,1.0,1,object_09,1,1943,0,9,2,desert_12,1,memory-2step-stake-s,618,2831645,0.0-18.0-0.1-0.128,2370,1,2
129,3,object_04,object_07,738.52,5,1,603.12,0.8888888888888888,1,object_09,5,1983,0,8,3,library_22,1,memory-2step-stake-s,619,2840388,0.0-18.0-0.1-0.129,2370,5,6
130,1,object_01,object_05,527.575,1,2,327.205,0.8888888888888888,1,object_09,1,1991,0,8,4,desert_23,1,memory-2step-stake-s,620,2848816,0.0-18.0-0.1-0.130,2370,2,1
131,4,object_03,object_08,1028.075,7,1,331.32,0.6666666666666666,1,object_09,5,2021,0,6,6,restaurant_14,1,memory-2step-stake-s,621,2857040,0.0-18.0-0.1-0.131,2370,7,8
132,1,object_05,object_01,777.825,1,1,264.35,0.8888888888888888,1,object_09,1,2029,0,8,6,desert_23,1,memory-2step-stake-s,622,2865428,0.0-18.0-0.1-0.132,2370,1,2
133,1,object_01,object_05,606.09,1,2,252.175,0.6666666666666666,1,object_09,1,2035,0,6,5,desert_12,1,memory-2step-stake-s,623,2873575,0.0-18.0-0.1-0.133,2370,2,1
134,1,object_01,object_05,377.155,1,2,298.62,0.7777777777777778,1,object_09,1,2042,0,7,4,desert_8,1,memory-2step-stake-s,624,2881922,0.0-18.0-0.1-0.134,2370,2,1
135,1,object_01,object_05,623.305,1,2,283.24,0.6666666666666666,1,object_09,5,2072,0,6,4,desert_6,1,memory-2step-stake-s,625,2890085,0.0-18.0-0.1-0.135,2370,2,1
136,3,object_07,object_04,783.26,6,1,299.18,0.6666666666666666,2,object_10,1,2078,0,2,6,library_21,1,memory-2step-stake-s,626,2898295,0.0-18.0-0.1-0.136,2370,6,5
137,4,object_03,object_08,873.87,8,2,382.2,0.2222222222222222,2,object_10,1,2080,0,5,2,restaurant_25,1,memory-2step-stake-s,627,2906162,0.0-18.0-0.1-0.137,2370,7,8
138,3,object_04,object_07,779.715,5,1,347.69,0.5555555555555556,1,object_09,1,2085,0,5,3,library_26,1,memory-2step-stake-s,628,2914300,0.0-18.0-0.1-0.138,2370,5,6
139,3,object_04,object_07,862.72,5,1,376.79,0.5555555555555556,1,object_09,5,2110,0,5,4,library_8,1,memory-2step-stake-s,629,2922471,0.0-18.0-0.1-0.139,2370,5,6
140,1,object_05,object_01,702.475,1,1,362.255,0.4444444444444444,1,object_09,1,2114,0,4,6,desert_23,1,memory-2step-stake-s,630,2930524,0.0-18.0-0.1-0.140,2370,1,2
141,1,object_01,object_05,716.0,2,1,313.195,0.5555555555555556,2,object_10,1,2119,0,3,5,desert_14,1,memory-2step-stake-s,631,2938621,0.0-18.0-0.1-0.141,2370,2,1
142,2,object_06,object_02,764.075,4,1,269.155,0.4444444444444444,2,object_10,1,2123,0,4,4,forest_6,1,memory-2step-stake-s,632,2946570,0.0-18.0-0.1-0.142,2370,4,3
143,4,object_08,object_03,1322.735,7,2,313.725,0.2222222222222222,1,object_09,5,2133,0,2,4,restaurant_23,1,memory-2step-stake-s,633,2954346,0.0-18.0-0.1-0.143,2370,8,7
144,3,object_07,object_04,990.34,6,1,340.075,0.7777777777777778,2,object_10,5,2168,0,4,7,library_11,1,memory-2step-stake-s,634,2962692,0.0-18.0-0.1-0.144,2370,6,5
145,2,object_06,object_02,521.495,4,1,308.015,0.5555555555555556,2,object_10,1,2173,0,3,5,forest_3,1,memory-2step-stake-s,635,2970795,0.0-18.0-0.1-0.145,2370,4,3
146,2,object_06,object_02,751.425,4,1,278.02,0.4444444444444444,2,object_10,1,2177,0,6,4,forest_29,1,memory-2step-stake-s,636,2978766,0.0-18.0-0.1-0.146,2370,4,3
147,3,object_04,object_07,927.53,5,1,374.345,0.5555555555555556,1,object_09,1,2182,0,5,2,library_22,1,memory-2step-stake-s,637,2986950,0.0-18.0-0.1-0.147,2370,5,6
148,3,object_04,object_07,1150.145,6,2,340.3,0.1111111111111111,2,object_10,5,2187,0,6,1,library_23,1,memory-2step-stake-s,638,2994661,0.0-18.0-0.1-0.148,2370,5,6
149,4,object_08,object_03,917.53,7,2,292.41,0.7777777777777778,1,object_09,5,2222,0,7,1,restaurant_1,1,memory-2step-stake-s,639,3002970,0.0-18.0-0.1-0.149,2370,8,7
150,2,object_02,object_06,854.125,3,1,294.605,0.7777777777777778,1,object_09,1,2229,0,7,4,forest_17,1,memory-2step-stake-s,640,3011277,0.0-18.0-0.1-0.150,2370,3,4
151,1,object_05,object_01,833.03,1,1,302.795,0.7777777777777778,1,object_09,1,2236,0,7,3,desert_20,1,memory-2step-stake-s,641,3019571,0.0-18.0-0.1-0.151,2370,1,2
152,1,object_01,object_05,680.055,1,2,310.985,0.7777777777777778,1,object_09,1,2243,0,7,4,desert_11,1,memory-2step-stake-s,642,3027881,0.0-18.0-0.1-0.152,2370,2,1
153,2,object_06,object_02,886.155,3,2,493.115,0.8888888888888888,1,object_09,1,2251,0,8,1,forest_12,1,memory-2step-stake-s,643,3036490,0.0-18.0-0.1-0.153,2370,4,3
154,4,object_03,object_08,849.735,7,1,249.58,1.0,1,object_09,5,2296,0,9,4,restaurant_2,1,memory-2step-stake-s,644,3044987,0.0-18.0-0.1-0.154,2370,7,8
155,1,object_05,object_01,590.735,1,1,237.405,1.0,1,object_09,1,2305,0,9,8,desert_19,1,memory-2step-stake-s,645,3053415,0.0-18.0-0.1-0.155,2370,1,2
156,2,object_06,object_02,458.08,3,2,281.37,0.7777777777777778,1,object_09,1,2312,0,7,6,forest_18,1,memory-2step-stake-s,646,3061689,0.0-18.0-0.1-0.156,2370,4,3
157,4,object_08,object_03,796.965,7,2,280.705,1.0,1,object_09,5,2357,0,9,5,restaurant_29,1,memory-2step-stake-s,647,3070202,0.0-18.0-0.1-0.157,2370,8,7
158,3,object_04,object_07,894.8,5,1,295.54,0.5555555555555556,1,object_09,5,2382,0,5,1,library_13,1,memory-2step-stake-s,648,3078291,0.0-18.0-0.1-0.158,2370,5,6
159,3,object_07,object_04,780.99,6,1,365.105,0.3333333333333333,2,object_10,5,2397,0,7,3,library_1,1,memory-2step-stake-s,649,3086221,0.0-18.0-0.1-0.159,2370,6,5
160,1,object_01,object_05,839.21,2,1,279.19,0.2222222222222222,2,object_10,1,2399,0,8,2,desert_21,1,memory-2step-stake-s,650,3093973,0.0-18.0-0.1-0.160,2370,2,1
161,2,object_02,object_06,735.705,3,1,283.98,1.0,1,object_09,1,2408,0,9,4,forest_20,1,memory-2step-stake-s,651,3102465,0.0-18.0-0.1-0.161,2370,3,4
162,4,object_03,object_08,763.7,7,1,297.26,1.0,1,object_09,5,2453,0,9,4,restaurant_8,1,memory-2step-stake-s,652,3111001,0.0-18.0-0.1-0.162,2370,7,8
163,4,object_03,object_08,558.985,7,1,311.68,0.8888888888888888,1,object_09,5,2493,0,8,6,restaurant_16,1,memory-2step-stake-s,653,3119433,0.0-18.0-0.1-0.163,2370,7,8
164,1,object_05,object_01,684.69,1,1,316.48,1.0,1,object_09,1,2502,0,9,7,desert_12,1,memory-2step-stake-s,654,3127951,0.0-18.0-0.1-0.164,2370,1,2
165,4,object_08,object_03,738.525,7,2,290.24,0.8888888888888888,1,object_09,5,2542,0,8,8,restaurant_28,1,memory-2step-stake-s,655,3136387,0.0-18.0-0.1-0.165,2370,8,7
166,4,object_08,object_03,543.13,7,2,348.49,0.4444444444444444,1,object_09,5,2562,0,4,8,restaurant_7,1,memory-2step-stake-s,656,3144442,0.0-18.0-0.1-0.166,2370,8,7
167,1,object_05,object_01,527.585,2,2,253.305,1.0,2,object_10,1,2571,0,5,9,desert_11,1,memory-2step-stake-s,657,3152910,0.0-18.0-0.1-0.167,2370,1,2
168,1,object_01,object_05,562.59,2,1,282.045,0.8888888888888888,2,object_10,5,2611,0,7,8,desert_21,1,memory-2step-stake-s,658,3161347,0.0-18.0-0.1-0.168,2370,2,1
169,3,object_07,object_04,827.59,6,1,288.07,0.4444444444444444,2,object_10,5,2631,0,9,4,library_11,1,memory-2step-stake-s,659,3169322,0.0-18.0-0.1-0.169,2370,6,5
170,2,object_02,object_06,523.685,3,1,269.335,0.7777777777777778,1,object_09,1,2638,0,7,0,forest_10,1,memory-2step-stake-s,660,3177596,0.0-18.0-0.1-0.170,2370,3,4
171,3,object_07,object_04,677.105,5,2,297.315,0.6666666666666666,1,object_09,5,2668,0,6,1,library_5,1,memory-2step-stake-s,661,3185780,0.0-18.0-0.1-0.171,2370,6,5
172,3,object_07,object_04,833.76,5,2,390.655,0.7777777777777778,1,object_09,5,2703,0,7,0,library_24,1,memory-2step-stake-s,662,3194178,0.0-18.0-0.1-0.172,2370,6,5
173,4,object_08,object_03,1243.425,7,2,363.565,0.8888888888888888,1,object_09,5,2743,0,8,2,restaurant_16,1,memory-2step-stake-s,663,3202673,0.0-18.0-0.1-0.173,2370,8,7
174,3,object_07,object_04,875.61,5,2,267.86,1.0,1,object_09,5,2788,0,9,0,library_11,1,memory-2step-stake-s,664,3211142,0.0-18.0-0.1-0.174,2370,6,5
175,2,object_06,object_02,508.845,3,2,253.235,0.7777777777777778,1,object_09,5,2823,0,7,3,forest_21,1,memory-2step-stake-s,665,3219384,0.0-18.0-0.1-0.175,2370,4,3
176,2,object_06,object_02,684.485,4,1,312.875,0.3333333333333333,2,object_10,1,2826,0,8,3,forest_26,1,memory-2step-stake-s,666,3227280,0.0-18.0-0.1-0.176,2370,4,3
177,1,object_01,object_05,671.275,1,2,268.42,0.8888888888888888,1,object_09,1,2834,0,8,4,desert_6,1,memory-2step-stake-s,667,3235668,0.0-18.0-0.1-0.177,2370,2,1
178,2,object_02,object_06,842.4,3,1,329.695,0.6666666666666666,1,object_09,1,2840,0,6,7,forest_18,1,memory-2step-stake-s,668,3243889,0.0-18.0-0.1-0.178,2370,3,4
179,4,object_03,object_08,781.335,7,1,300.62,0.8888888888888888,1,object_09,5,2880,0,8,4,restaurant_11,1,memory-2step-stake-s,669,3252303,0.0-18.0-0.1-0.179,2370,7,8
180,2,object_02,object_06,834.14,3,1,266.93,1.0,1,object_09,1,2889,0,9,9,forest_14,1,memory-2step-stake-s,670,3260783,0.0-18.0-0.1-0.180,2370,3,4
181,2,object_02,object_06,495.545,3,1,282.97,0.8888888888888888,1,object_09,1,2897,0,8,9,forest_29,1,memory-2step-stake-s,671,3269203,0.0-18.0-0.1-0.181,2370,3,4
182,2,object_06,object_02,513.725,3,2,314.22,0.6666666666666666,1,object_09,1,2903,0,6,7,forest_16,1,memory-2step-stake-s,672,3277435,0.0-18.0-0.1-0.182,2370,4,3
183,2,object_02,object_06,762.5,3,1,374.285,0.2222222222222222,1,object_09,1,2905,0,2,9,forest_12,1,memory-2step-stake-s,673,3285295,0.0-18.0-0.1-0.183,2370,3,4
184,1,object_05,object_01,528.895,2,2,268.195,1.0,2,object_10,1,2914,0,3,9,desert_30,1,memory-2step-stake-s,674,3293814,0.0-18.0-0.1-0.184,2370,1,2
185,4,object_03,object_08,847.8,8,2,286.095,1.0,2,object_10,5,2959,0,4,9,restaurant_29,1,memory-2step-stake-s,675,3302318,0.0-18.0-0.1-0.185,2370,7,8
186,3,object_07,object_04,1003.07,6,1,312.735,0.8888888888888888,2,object_10,5,2999,0,3,8,library_13,1,memory-2step-stake-s,676,3310721,0.0-18.0-0.1-0.186,2370,6,5
187,4,object_08,object_03,940.965,8,1,284.355,0.8888888888888888,2,object_10,1,3007,0,2,8,restaurant_14,1,memory-2step-stake-s,677,3319095,0.0-18.0-0.1-0.187,2370,8,7
188,4,object_08,object_03,907.9,8,1,332.29,0.8888888888888888,2,object_10,5,3047,0,1,8,restaurant_4,1,memory-2step-stake-s,678,3327547,0.0-18.0-0.1-0.188,2370,8,7
189,2,object_06,object_02,1389.105,3,2,331.965,0.0,1,object_09,1,3047,0,0,8,forest_18,1,memory-2step-stake-s,679,3335136,0.0-18.0-0.1-0.189,2370,4,3
190,3,object_07,object_04,820.615,6,1,301.145,0.8888888888888888,2,object_10,5,3087,0,0,8,library_29,1,memory-2step-stake-s,680,3343550,0.0-18.0-0.1-0.190,2370,6,5
191,1,object_05,object_01,781.64,2,2,312.11,0.6666666666666666,2,object_10,1,3093,0,1,6,desert_13,1,memory-2step-stake-s,681,3351762,0.0-18.0-0.1-0.191,2370,1,2
192,1,object_01,object_05,697.6,2,1,279.99,1.0,2,object_10,1,3102,0,4,9,desert_24,1,memory-2step-stake-s,682,3360283,0.0-18.0-0.1-0.192,2370,2,1
193,2,object_02,object_06,544.86,4,2,279.985,0.5555555555555556,2,object_10,1,3107,0,2,5,forest_20,1,memory-2step-stake-s,683,3368400,0.0-18.0-0.1-0.193,2370,3,4
194,1,object_05,object_01,865.85,2,2,327.355,0.8888888888888888,2,object_10,1,3115,0,1,8,desert_5,1,memory-2step-stake-s,684,3376871,0.0-18.0-0.1-0.194,2370,1,2
195,1,object_05,object_01,796.65,2,2,299.04,0.4444444444444444,2,object_10,1,3119,0,3,4,desert_28,1,memory-2step-stake-s,685,3384874,0.0-18.0-0.1-0.195,2370,1,2
196,4,object_03,object_08,767.815,7,1,359.045,0.2222222222222222,1,object_09,1,3121,0,2,4,restaurant_19,1,memory-2step-stake-s,686,3392709,0.0-18.0-0.1-0.196,2370,7,8
197,1,object_05,object_01,407.635,2,2,410.965,0.5555555555555556,2,object_10,1,3126,0,0,5,desert_24,1,memory-2step-stake-s,687,3400914,0.0-18.0-0.1-0.197,2370,1,2
198,4,object_08,object_03,818.465,7,2,282.385,0.5555555555555556,1,object_09,5,3151,0,5,7,restaurant_8,1,memory-2step-stake-s,688,3408968,0.0-18.0-0.1-0.198,2370,8,7
199,3,object_04,object_07,850.025,6,2,313.505,0.7777777777777778,2,object_10,5,3186,0,5,7,library_27,1,memory-2step-stake-s,689,3417292,0.0-18.0-0.1-0.199,2370,5,6
200,4,object_03,object_08,728.185,8,2,314.65,0.6666666666666666,2,object_10,5,3216,0,7,6,restaurant_31,1,memory-2step-stake-s,690,3425523,0.0-18.0-0.1-0.200,2370,7,8
201,2,object_02,object_06,729.955,4,2,472.89,0.8888888888888888,2,object_10,1,3224,0,5,8,forest_16,1,memory-2step-stake-s,691,3434103,0.0-18.0-0.1-0.201,2370,3,4
202,4,object_08,object_03,723.22,8,1,281.92,0.7777777777777778,2,object_10,5,3259,0,9,7,restaurant_25,1,memory-2step-stake-s,692,3442410,0.0-18.0-0.1-0.202,2370,8,7
203,4,object_03,object_08,790.085,8,2,300.145,1.0,2,object_10,5,3304,0,8,9,restaurant_31,1,memory-2step-stake-s,693,3450888,0.0-18.0-0.1-0.203,2370,7,8
204,1,object_01,object_05,584.64,2,1,328.75,1.0,2,object_10,1,3313,0,5,9,desert_14,1,memory-2step-stake-s,694,3459415,0.0-18.0-0.1-0.204,2370,2,1
205,1,object_01,object_05,709.1,2,1,817.015,0.7777777777777778,2,object_10,1,3320,0,5,7,desert_28,1,memory-2step-stake-s,695,3468223,0.0-18.0-0.1-0.205,2370,2,1
206,1,object_05,object_01,592.28,2,2,265.645,0.6666666666666666,2,object_10,5,3350,0,9,6,desert_11,1,memory-2step-stake-s,696,3476390,0.0-18.0-0.1-0.206,2370,1,2
207,4,object_03,object_08,669.445,7,1,268.02,0.8888888888888888,1,object_09,1,3358,0,8,4,restaurant_7,1,memory-2step-stake-s,697,3484770,0.0-18.0-0.1-0.207,2370,7,8
208,1,object_01,object_05,490.41,1,2,265.475,1.0,1,object_09,1,3367,0,9,6,desert_28,1,memory-2step-stake-s,698,3493263,0.0-18.0-0.1-0.208,2370,2,1
209,2,object_02,object_06,1167.1,3,1,284.83,0.7777777777777778,1,object_09,1,3374,0,7,7,forest_1,1,memory-2step-stake-s,699,3501585,0.0-18.0-0.1-0.209,2370,3,4
210,4,object_08,object_03,687.34,7,2,248.72,0.7777777777777778,1,object_09,5,3409,0,7,4,restaurant_9,1,memory-2step-stake-s,700,3509841,0.0-18.0-0.1-0.210,2370,8,7
211,2,object_02,object_06,936.885,3,1,279.465,0.8888888888888888,1,object_09,1,3417,0,8,5,forest_16,1,memory-2step-stake-s,701,3518257,0.0-18.0-0.1-0.211,2370,3,4
212,2,object_06,object_02,575.8,3,2,234.31,0.7777777777777778,1,object_09,5,3452,0,7,4,forest_10,1,memory-2step-stake-s,702,3526476,0.0-18.0-0.1-0.212,2370,4,3
213,2,object_06,object_02,494.57,3,2,282.895,0.7777777777777778,1,object_09,1,3459,0,7,5,forest_26,1,memory-2step-stake-s,703,3534732,0.0-18.0-0.1-0.213,2370,4,3
214,1,object_01,object_05,572.385,1,2,244.815,0.6666666666666666,1,object_09,1,3465,0,6,5,desert_30,1,memory-2step-stake-s,704,3542867,0.0-18.0-0.1-0.214,2370,2,1
215,3,object_07,object_04,642.385,6,1,294.39,0.2222222222222222,2,object_10,5,3475,0,6,2,library_23,1,memory-2step-stake-s,705,3550621,0.0-18.0-0.1-0.215,2370,6,5
216,4,object_03,object_08,892.635,7,1,314.315,0.4444444444444444,1,object_09,5,3495,0,4,2,restaurant_8,1,memory-2step-stake-s,706,3558621,0.0-18.0-0.1-0.216,2370,7,8
217,4,object_03,object_08,684.875,7,1,378.13,0.4444444444444444,1,object_09,5,3515,0,4,0,restaurant_16,1,memory-2step-stake-s,707,3566711,0.0-18.0-0.1-0.217,2370,7,8
218,1,object_01,object_05,688.42,2,1,249.41,0.0,2,object_10,1,3515,0,4,0,desert_20,1,memory-2step-stake-s,708,3574233,0.0-18.0-0.1-0.218,2370,2,1
219,3,object_07,object_04,770.845,5,2,316.68,0.5555555555555556,1,object_09,5,3540,0,5,3,library_5,1,memory-2step-stake-s,709,3582350,0.0-18.0-0.1-0.219,2370,6,5
220,4,object_08,object_03,666.645,7,2,299.325,0.7777777777777778,1,object_09,1,3547,0,7,2,restaurant_28,1,memory-2step-stake-s,710,3590650,0.0-18.0-0.1-0.220,2370,8,7
221,3,object_04,object_07,909.36,5,1,279.905,0.6666666666666666,1,object_09,1,3553,0,6,1,library_25,1,memory-2step-stake-s,711,3598802,0.0-18.0-0.1-0.221,2370,5,6
222,4,object_08,object_03,732.875,7,2,329.835,0.4444444444444444,1,object_09,5,3573,0,4,1,restaurant_5,1,memory-2step-stake-s,712,3606812,0.0-18.0-0.1-0.222,2370,8,7
223,2,object_02,object_06,443.45,4,2,296.285,0.0,2,object_10,1,3573,0,1,0,forest_22,1,memory-2step-stake-s,713,3614389,0.0-18.0-0.1-0.223,2370,3,4
224,2,object_02,object_06,549.24,3,1,249.69,0.3333333333333333,1,object_09,5,3588,0,3,1,forest_14,1,memory-2step-stake-s,714,3622230,0.0-18.0-0.1-0.224,2370,3,4
225,2,object_02,object_06,619.71,4,2,320.275,0.5555555555555556,2,object_10,1,3593,0,3,5,forest_29,1,memory-2step-stake-s,715,3630345,0.0-18.0-0.1-0.225,2370,3,4
226,1,object_01,object_05,500.275,2,1,268.21,0.2222222222222222,2,object_10,1,3595,0,1,2,desert_13,1,memory-2step-stake-s,716,3638072,0.0-18.0-0.1-0.226,2370,2,1
227,3,object_07,object_04,714.99,5,2,314.02,0.1111111111111111,1,object_09,5,3600,0,1,4,library_3,1,memory-2step-stake-s,717,3645776,0.0-18.0-0.1-0.227,2370,6,5
228,1,object_01,object_05,640.26,2,1,343.49,0.6666666666666666,2,object_10,1,3606,0,0,6,desert_14,1,memory-2step-stake-s,718,3654038,0.0-18.0-0.1-0.228,2370,2,1
229,4,object_08,object_03,1117.48,8,1,282.555,0.4444444444444444,2,object_10,5,3626,0,1,4,restaurant_29,1,memory-2step-stake-s,719,3662008,0.0-18.0-0.1-0.229,2370,8,7
230,4,object_08,object_03,751.205,7,2,332.885,0.2222222222222222,1,object_09,1,3628,0,2,1,restaurant_23,1,memory-2step-stake-s,720,3669814,0.0-18.0-0.1-0.230,2370,8,7
231,3,object_07,object_04,797.495,6,1,297.515,0.2222222222222222,2,object_10,5,3638,0,2,2,library_11,1,memory-2step-stake-s,721,3677590,0.0-18.0-0.1-0.231,2370,6,5
232,1,object_05,object_01,602.725,1,1,294.695,0.5555555555555556,1,object_09,1,3643,0,5,2,desert_30,1,memory-2step-stake-s,722,3685677,0.0-18.0-0.1-0.232,2370,1,2
233,2,object_06,object_02,605.92,3,2,281.765,0.3333333333333333,1,object_09,1,3646,0,3,4,forest_26,1,memory-2step-stake-s,723,3693534,0.0-18.0-0.1-0.233,2370,4,3
234,1,object_01,object_05,777.36,1,2,425.43,0.1111111111111111,1,object_09,1,3647,0,1,2,desert_23,1,memory-2step-stake-s,724,3701319,0.0-18.0-0.1-0.234,2370,2,1
235,4,object_08,object_03,848.04,8,1,283.29,0.3333333333333333,2,object_10,5,3662,0,3,3,restaurant_31,1,memory-2step-stake-s,725,3709185,0.0-18.0-0.1-0.235,2370,8,7
236,2,object_06,object_02,781.87,3,2,297.26,1.0,1,object_09,1,3671,0,9,2,forest_17,1,memory-2step-stake-s,726,3717701,0.0-18.0-0.1-0.236,2370,4,3
237,3,object_04,object_07,1120.615,5,1,362.48,0.7777777777777778,1,object_09,5,3706,0,7,4,library_13,1,memory-2step-stake-s,727,3726067,0.0-18.0-0.1-0.237,2370,5,6
238,4,object_08,object_03,690.35,7,2,265.325,0.6666666666666666,1,object_09,5,3736,0,6,1,restaurant_19,1,memory-2step-stake-s,728,3734246,0.0-18.0-0.1-0.238,2370,8,7
239,4,object_08,object_03,823.355,7,2,328.74,0.7777777777777778,1,object_09,5,3771,0,7,1,restaurant_8,1,memory-2step-stake-s,729,3742591,0.0-18.0-0.1-0.239,2370,8,7
240,3,object_04,object_07,808.73,5,1,327.655,0.7777777777777778,1,object_09,5,3806,0,7,1,library_27,1,memory-2step-stake-s,730,3750942,0.0-18.0-0.1-0.240,2370,5,6
241,2,object_02,object_06,1066.165,3,1,313.795,0.5555555555555556,1,object_09,1,3811,0,5,0,forest_25,1,memory-2step-stake-s,731,3759050,0.0-18.0-0.1-0.241,2370,3,4
242,4,object_03,object_08,801.965,8,2,248.485,0.0,2,object_10,5,3811,0,4,0,restaurant_23,1,memory-2step-stake-s,732,3766575,0.0-18.0-0.1-0.242,2370,7,8
243,2,object_06,object_02,524.005,3,2,282.885,0.4444444444444444,1,object_09,5,3831,0,4,4,forest_3,1,memory-2step-stake-s,733,3774553,0.0-18.0-0.1-0.243,2370,4,3
244,3,object_04,object_07,813.885,5,1,298.015,0.5555555555555556,1,object_09,5,3856,0,5,5,library_8,1,memory-2step-stake-s,734,3782652,0.0-18.0-0.1-0.244,2370,5,6
245,3,object_07,object_04,731.315,5,2,282.62,0.6666666666666666,1,object_09,5,3886,0,6,5,library_1,1,memory-2step-stake-s,735,3790825,0.0-18.0-0.1-0.245,2370,6,5
246,1,object_01,object_05,795.465,1,2,297.105,0.5555555555555556,1,object_09,1,3891,0,5,6,desert_26,1,memory-2step-stake-s,736,3798929,0.0-18.0-0.1-0.246,2370,2,1
247,3,object_04,object_07,746.24,6,2,291.36,0.5555555555555556,2,object_10,1,3896,0,6,5,library_29,1,memory-2step-stake-s,737,3807024,0.0-18.0-0.1-0.247,2370,5,6
248,1,object_01,object_05,687.46,2,1,361.135,0.6666666666666666,2,object_10,1,3902,0,7,6,desert_14,1,memory-2step-stake-s,738,3815276,0.0-18.0-0.1-0.248,2370,2,1
249,3,object_07,object_04,784.555,6,1,269.48,0.7777777777777778,2,object_10,5,3937,0,4,7,library_21,1,memory-2step-stake-s,739,3823530,0.0-18.0-0.1-0.249,2370,6,5
250,4,object_08,object_03,766.875,8,1,280.535,1.0,2,object_10,1,3946,0,3,9,restaurant_28,1,memory-2step-stake-s,740,3832065,0.0-18.0-0.1-0.250,2370,8,7
251,1,object_05,object_01,609.655,2,2,284.575,1.0,2,object_10,5,3991,0,2,9,desert_16,1,memory-2step-stake-s,741,3840565,0.0-18.0-0.1-0.251,2370,1,2
252,2,object_06,object_02,541.825,4,1,295.535,0.7777777777777778,2,object_10,1,3998,0,1,7,forest_22,1,memory-2step-stake-s,742,3848881,0.0-18.0-0.1-0.252,2370,4,3
253,1,object_01,object_05,640.595,2,1,263.405,0.6666666666666666,2,object_10,1,4004,0,1,6,desert_16,1,memory-2step-stake-s,743,3857043,0.0-18.0-0.1-0.253,2370,2,1
254,3,object_04,object_07,820.755,5,1,284.555,0.3333333333333333,1,object_09,1,4007,0,3,5,library_27,1,memory-2step-stake-s,744,3864934,0.0-18.0-0.1-0.254,2370,5,6
255,2,object_06,object_02,844.655,3,2,366.94,0.5555555555555556,1,object_09,1,4012,0,5,6,forest_18,1,memory-2step-stake-s,745,3873114,0.0-18.0-0.1-0.255,2370,4,3
