,state1,stim_left,stim_right,rt_1,choice1,response1,rt_2,points,state2,stim_state2,stake,score,practice,rews1,rews2,background,high_arm,trial_type,trial_index,time_elapsed,internal_node_id,subid,stim_left_num,stim_right_num
0,3,object_04,object_10,-1.0,-1,-1,-1.0,0.0,-,,1,0,0,2,6,library_11,2,memory-2step-stake-s,496,1051731,0.0-18.0-0.0-0.0,4150,6,5
1,2,object_09,object_05,914.025,4,1,1176.035,0.4444444444444444,2,object_03,5,20,0,1,4,forest_18,2,memory-2step-stake-s,497,1060553,0.0-18.0-0.0-0.1,4150,4,3
2,1,object_02,object_06,1115.83,1,2,1031.36,0.2222222222222222,1,object_08,5,30,0,2,2,desert_8,2,memory-2step-stake-s,498,1069029,0.0-18.0-0.0-0.2,4150,2,1
3,4,object_01,object_07,977.32,7,1,639.51,0.2222222222222222,1,object_08,1,32,0,2,1,restaurant_5,2,memory-2step-stake-s,499,1077108,0.0-18.0-0.0-0.3,4150,7,8
4,4,object_01,object_07,872.665,7,1,631.385,0.1111111111111111,1,object_08,1,33,0,1,1,restaurant_3,2,memory-2step-stake-s,500,1085072,0.0-18.0-0.0-0.4,4150,7,8
5,4,object_07,object_01,1383.89,8,1,783.51,0.2222222222222222,2,object_03,1,35,0,1,2,restaurant_11,2,memory-2step-stake-s,501,1093282,0.0-18.0-0.0-0.5,4150,8,7
6,3,object_10,object_04,1158.515,5,1,422.405,0.1111111111111111,1,object_08,1,36,0,1,5,library_19,2,memory-2step-stake-s,502,1101033,0.0-18.0-0.0-0.6,4150,5,6
7,3,object_10,object_04,648.61,6,2,586.94,0.6666666666666666,2,object_03,1,42,0,1,6,library_1,2,memory-2step-stake-s,503,1109477,0.0-18.0-0.0-0.7,4150,5,6
8,3,object_10,object_04,1258.825,6,2,943.625,0.6666666666666666,2,object_03,1,48,0,0,6,library_1,2,memory-2step-stake-s,504,1118282,0.0-18.0-0.0-0.8,4150,5,6
9,3,object_04,object_10,538.595,6,1,506.51,0.5555555555555556,2,object_03,1,53,0,0,5,library_22,2,memory-2step-stake-s,505,1126542,0.0-18.0-0.0-0.9,4150,6,5
10,1,object_06,object_02,652.76,2,2,467.18,0.3333333333333333,2,object_03,5,68,0,1,3,desert_7,2,memory-2step-stake-s,506,1134557,0.0-18.0-0.0-0.10,4150,1,2
11,3,object_04,object_10,1090.92,5,2,492.135,0.3333333333333333,1,object_08,5,83,0,3,1,library_12,2,memory-2step-stake-s,507,1142593,0.0-18.0-0.0-0.11,4150,6,5
12,1,object_06,object_02,699.005,1,1,413.485,0.4444444444444444,1,object_08,5,103,0,4,3,desert_19,2,memory-2step-stake-s,508,1150663,0.0-18.0-0.0-0.12,4150,1,2
13,1,object_06,object_02,1284.99,1,1,716.36,0.8888888888888888,1,object_08,1,111,0,8,2,desert_2,2,memory-2step-stake-s,509,1159453,0.0-18.0-0.0-0.13,4150,1,2
14,3,object_10,object_04,727.95,6,2,-1.0,0.0,2,object_03,5,111,0,6,0,library_3,2,memory-2step-stake-s,510,1167994,0.0-18.0-0.0-0.14,4150,5,6
15,2,object_09,object_05,800.81,4,1,408.995,0.1111111111111111,2,object_03,5,116,0,4,1,forest_28,2,memory-2step-stake-s,511,1175745,0.0-18.0-0.0-0.15,4150,4,3
16,4,object_01,object_07,499.875,8,2,494.815,0.0,2,object_03,1,116,0,4,0,restaurant_17,2,memory-2step-stake-s,512,1183474,0.0-18.0-0.0-0.16,4150,7,8
17,4,object_07,object_01,1015.97,7,2,582.39,0.0,1,object_08,1,116,0,0,2,restaurant_25,2,memory-2step-stake-s,513,1191290,0.0-18.0-0.0-0.17,4150,8,7
18,4,object_07,object_01,586.965,8,1,661.25,0.4444444444444444,2,object_03,5,136,0,2,4,restaurant_6,2,memory-2step-stake-s,514,1199600,0.0-18.0-0.0-0.18,4150,8,7
19,3,object_10,object_04,620.005,6,2,903.675,0.8888888888888888,2,object_03,1,144,0,0,8,library_7,2,memory-2step-stake-s,515,1208573,0.0-18.0-0.0-0.19,4150,5,6
20,1,object_02,object_06,1135.885,1,2,714.085,0.3333333333333333,1,object_08,5,159,0,3,8,desert_11,2,memory-2step-stake-s,516,1216843,0.0-18.0-0.0-0.20,4150,2,1
21,1,object_02,object_06,569.27,2,1,352.745,0.6666666666666666,2,object_03,5,189,0,5,6,desert_16,2,memory-2step-stake-s,517,1225055,0.0-18.0-0.0-0.21,4150,2,1
22,4,object_07,object_01,591.285,7,2,409.79,0.6666666666666666,1,object_08,1,195,0,6,5,restaurant_6,2,memory-2step-stake-s,518,1233325,0.0-18.0-0.0-0.22,4150,8,7
23,3,object_04,object_10,566.9,6,1,-1.0,0.0,2,object_03,1,195,0,7,5,library_4,2,memory-2step-stake-s,519,1241861,0.0-18.0-0.0-0.23,4150,6,5
24,1,object_06,object_02,-1.0,-1,-1,-1.0,0.0,-,,5,195,0,7,4,desert_23,2,memory-2step-stake-s,520,1248393,0.0-18.0-0.0-0.24,4150,1,2
25,1,object_06,object_02,456.86,2,2,394.705,0.5555555555555556,2,object_03,5,220,0,6,5,desert_21,2,memory-2step-stake-s,521,1256534,0.0-18.0-0.0-0.25,4150,1,2
26,2,object_05,object_09,775.9,3,1,508.175,0.5555555555555556,1,object_08,5,245,0,5,7,forest_26,2,memory-2step-stake-s,522,1264789,0.0-18.0-0.0-0.26,4150,3,4
27,1,object_06,object_02,474.255,2,2,434.59,0.5555555555555556,2,object_03,5,270,0,6,5,desert_13,2,memory-2step-stake-s,523,1272974,0.0-18.0-0.0-0.27,4150,1,2
28,1,object_06,object_02,545.235,2,2,494.57,1.0,2,object_03,5,315,0,3,9,desert_15,2,memory-2step-stake-s,524,1281632,0.0-18.0-0.0-0.28,4150,1,2
29,1,object_06,object_02,499.01,2,2,185.5,1.0,2,object_03,5,360,0,4,9,desert_21,2,memory-2step-stake-s,525,1289987,0.0-18.0-0.0-0.29,4150,1,2
30,4,object_01,object_07,1149.675,8,2,626.575,0.8888888888888888,2,object_03,1,368,0,3,8,restaurant_23,2,memory-2step-stake-s,526,1298687,0.0-18.0-0.0-0.30,4150,7,8
31,2,object_09,object_05,518.58,4,1,362.79,0.6666666666666666,2,object_03,1,374,0,2,6,forest_1,2,memory-2step-stake-s,527,1306913,0.0-18.0-0.0-0.31,4150,4,3
32,3,object_04,object_10,404.835,5,2,1174.68,0.1111111111111111,1,object_08,5,379,0,1,1,library_17,2,memory-2step-stake-s,528,1315428,0.0-18.0-0.0-0.32,4150,6,5
33,4,object_07,object_01,1121.025,8,1,510.045,0.4444444444444444,2,object_03,5,399,0,2,4,restaurant_12,2,memory-2step-stake-s,529,1323590,0.0-18.0-0.0-0.33,4150,8,7
34,4,object_07,object_01,653.66,7,2,545.71,0.1111111111111111,1,object_08,1,400,0,1,6,restaurant_23,2,memory-2step-stake-s,530,1331475,0.0-18.0-0.0-0.34,4150,8,7
35,2,object_09,object_05,574.265,4,1,420.005,0.8888888888888888,2,object_03,5,440,0,0,8,forest_31,2,memory-2step-stake-s,531,1339964,0.0-18.0-0.0-0.35,4150,4,3
36,4,object_01,object_07,819.555,7,1,483.59,0.4444444444444444,1,object_08,1,444,0,4,9,restaurant_4,2,memory-2step-stake-s,532,1348101,0.0-18.0-0.0-0.36,4150,7,8
37,4,object_01,object_07,871.29,8,2,465.12,0.7777777777777778,2,object_03,1,451,0,3,7,restaurant_4,2,memory-2step-stake-s,533,1356523,0.0-18.0-0.0-0.37,4150,7,8
38,2,object_05,object_09,729.29,3,1,396.35,0.4444444444444444,1,object_08,5,471,0,4,5,forest_24,2,memory-2step-stake-s,534,1364574,0.0-18.0-0.0-0.38,4150,3,4
39,2,object_05,object_09,825.175,4,2,379.105,0.6666666666666666,2,object_03,5,501,0,3,6,forest_27,2,memory-2step-stake-s,535,1372820,0.0-18.0-0.0-0.39,4150,3,4
40,2,object_09,object_05,1219.54,4,1,669.545,0.6666666666666666,2,object_03,5,531,0,3,6,forest_28,2,memory-2step-stake-s,536,1381350,0.0-18.0-0.0-0.40,4150,4,3
41,3,object_04,object_10,1175.485,6,1,430.415,0.4444444444444444,2,object_03,1,535,0,2,4,library_11,2,memory-2step-stake-s,537,1389441,0.0-18.0-0.0-0.41,4150,6,5
42,2,object_05,object_09,794.86,4,2,567.115,0.3333333333333333,2,object_03,5,550,0,2,3,forest_22,2,memory-2step-stake-s,538,1397559,0.0-18.0-0.0-0.42,4150,3,4
43,1,object_06,object_02,959.84,1,1,447.905,0.1111111111111111,1,object_08,5,555,0,1,1,desert_12,2,memory-2step-stake-s,539,1405344,0.0-18.0-0.0-0.43,4150,1,2
44,3,object_10,object_04,-1.0,-1,-1,-1.0,0.0,-,,1,555,0,1,0,library_17,2,memory-2step-stake-s,540,1411876,0.0-18.0-0.0-0.44,4150,5,6
45,3,object_04,object_10,521.87,5,2,450.31,0.3333333333333333,1,object_08,1,558,0,3,2,library_7,2,memory-2step-stake-s,541,1419875,0.0-18.0-0.0-0.45,4150,6,5
46,1,object_06,object_02,725.15,1,1,432.95,0.2222222222222222,1,object_08,5,568,0,2,4,desert_7,2,memory-2step-stake-s,542,1427749,0.0-18.0-0.0-0.46,4150,1,2
47,4,object_01,object_07,726.44,8,2,395.16,0.4444444444444444,2,object_03,1,572,0,0,4,restaurant_5,2,memory-2step-stake-s,543,1435800,0.0-18.0-0.0-0.47,4150,7,8
48,3,object_04,object_10,754.485,6,1,573.445,0.4444444444444444,2,object_03,5,592,0,0,4,library_30,2,memory-2step-stake-s,544,1444029,0.0-18.0-0.0-0.48,4150,6,5
49,1,object_06,object_02,730.13,2,2,553.265,0.5555555555555556,2,object_03,1,597,0,0,5,desert_23,2,memory-2step-stake-s,545,1452329,0.0-18.0-0.0-0.49,4150,1,2
50,2,object_05,object_09,692.61,3,1,448.12,0.0,1,object_08,1,597,0,0,4,forest_27,2,memory-2step-stake-s,546,1460013,0.0-18.0-0.0-0.50,4150,3,4
51,2,object_05,object_09,724.215,4,2,545.14,0.3333333333333333,2,object_03,1,600,0,1,3,forest_15,2,memory-2step-stake-s,547,1468111,0.0-18.0-0.0-0.51,4150,3,4
52,1,object_02,object_06,628.265,1,2,449.41,0.2222222222222222,1,object_08,5,610,0,2,4,desert_23,2,memory-2step-stake-s,548,1476010,0.0-18.0-0.0-0.52,4150,2,1
53,1,object_06,object_02,943.57,2,2,471.835,0.3333333333333333,2,object_03,5,625,0,3,3,desert_15,2,memory-2step-stake-s,549,1484034,0.0-18.0-0.0-0.53,4150,1,2
54,4,object_07,object_01,1269.8,8,1,516.4,0.5555555555555556,2,object_03,1,630,0,3,5,restaurant_12,2,memory-2step-stake-s,550,1492308,0.0-18.0-0.0-0.54,4150,8,7
55,2,object_09,object_05,1032.89,4,1,618.975,0.1111111111111111,2,object_03,5,635,0,0,1,forest_26,2,memory-2step-stake-s,551,1500270,0.0-18.0-0.0-0.55,4150,4,3
56,4,object_01,object_07,632.09,8,2,481.545,0.0,2,object_03,1,635,0,0,0,restaurant_6,2,memory-2step-stake-s,552,1507977,0.0-18.0-0.0-0.56,4150,7,8
57,4,object_07,object_01,587.495,7,2,407.41,0.1111111111111111,1,object_08,1,636,0,1,4,restaurant_25,2,memory-2step-stake-s,553,1515718,0.0-18.0-0.0-0.57,4150,8,7
58,3,object_04,object_10,746.05,6,1,449.51,0.7777777777777778,2,object_03,1,643,0,1,7,library_20,2,memory-2step-stake-s,554,1524127,0.0-18.0-0.0-0.58,4150,6,5
59,1,object_06,object_02,712.88,2,2,463.735,0.8888888888888888,2,object_03,5,683,0,4,8,desert_11,2,memory-2step-stake-s,555,1532648,0.0-18.0-0.0-0.59,4150,1,2
60,1,object_02,object_06,838.55,2,1,457.105,0.8888888888888888,2,object_03,5,723,0,3,8,desert_16,2,memory-2step-stake-s,556,1541175,0.0-18.0-0.0-0.60,4150,2,1
61,4,object_01,object_07,1023.08,7,1,481.485,0.3333333333333333,1,object_08,5,738,0,3,9,restaurant_8,2,memory-2step-stake-s,557,1549205,0.0-18.0-0.0-0.61,4150,7,8
62,2,object_09,object_05,1191.63,4,1,445.71,1.0,2,object_03,5,783,0,4,9,forest_13,2,memory-2step-stake-s,558,1557828,0.0-18.0-0.0-0.62,4150,4,3
63,3,object_10,object_04,1108.825,6,2,409.385,0.8888888888888888,2,object_03,5,823,0,6,8,library_12,2,memory-2step-stake-s,559,1566310,0.0-18.0-0.0-0.63,4150,5,6
64,4,object_07,object_01,797.19,8,1,785.78,0.7777777777777778,2,object_03,1,830,0,0,7,restaurant_8,2,memory-2step-stake-s,560,1575051,0.0-18.0-0.0-0.64,4150,8,7
65,2,object_05,object_09,722.68,4,2,422.92,0.7777777777777778,2,object_03,5,865,0,1,7,forest_1,2,memory-2step-stake-s,561,1583437,0.0-18.0-0.0-0.65,4150,3,4
66,4,object_01,object_07,628.09,7,1,385.32,0.0,1,object_08,5,865,0,0,7,restaurant_4,2,memory-2step-stake-s,562,1591060,0.0-18.0-0.0-0.66,4150,7,8
67,1,object_06,object_02,954.665,2,2,608.895,0.7777777777777778,2,object_03,5,900,0,1,7,desert_12,2,memory-2step-stake-s,563,1599633,0.0-18.0-0.0-0.67,4150,1,2
68,4,object_07,object_01,1287.8,8,1,590.29,0.6666666666666666,2,object_03,5,930,0,0,6,restaurant_26,2,memory-2step-stake-s,564,1608082,0.0-18.0-0.0-0.68,4150,8,7
69,1,object_06,object_02,893.1,2,2,441.865,0.5555555555555556,2,object_03,5,955,0,2,5,desert_22,2,memory-2step-stake-s,565,1616287,0.0-18.0-0.0-0.69,4150,1,2
70,4,object_01,object_07,808.36,8,2,339.755,0.4444444444444444,2,object_03,1,959,0,1,4,restaurant_23,2,memory-2step-stake-s,566,1624279,0.0-18.0-0.0-0.70,4150,7,8
71,4,object_01,object_07,1451.485,8,2,470.89,0.3333333333333333,2,object_03,1,962,0,2,3,restaurant_30,2,memory-2step-stake-s,567,1632290,0.0-18.0-0.0-0.71,4150,7,8
72,3,object_10,object_04,655.77,5,1,360.05,0.2222222222222222,1,object_08,1,964,0,2,3,library_7,2,memory-2step-stake-s,568,1640087,0.0-18.0-0.0-0.72,4150,5,6
73,1,object_02,object_06,-1.0,-1,-1,-1.0,0.0,-,,5,964,0,1,5,desert_2,2,memory-2step-stake-s,569,1646613,0.0-18.0-0.0-0.73,4150,2,1
74,3,object_10,object_04,585.265,5,1,471.675,0.1111111111111111,1,object_08,1,965,0,1,1,library_22,2,memory-2step-stake-s,570,1654426,0.0-18.0-0.0-0.74,4150,5,6
75,3,object_04,object_10,1027.055,5,2,447.605,0.1111111111111111,1,object_08,5,970,0,1,0,library_16,2,memory-2step-stake-s,571,1662220,0.0-18.0-0.0-0.75,4150,6,5
76,2,object_09,object_05,619.945,4,1,922.69,0.0,2,object_03,1,970,0,5,0,forest_23,2,memory-2step-stake-s,572,1670383,0.0-18.0-0.0-0.76,4150,4,3
77,4,object_01,object_07,733.115,7,1,436.06,0.6666666666666666,1,object_08,1,976,0,6,2,restaurant_10,2,memory-2step-stake-s,573,1678674,0.0-18.0-0.0-0.77,4150,7,8
78,4,object_01,object_07,391.12,8,2,378.83,0.1111111111111111,2,object_03,1,977,0,7,1,restaurant_11,2,memory-2step-stake-s,574,1686389,0.0-18.0-0.0-0.78,4150,7,8
79,3,object_04,object_10,959.06,5,2,445.16,1.0,1,object_08,5,1022,0,9,2,library_30,2,memory-2step-stake-s,575,1695014,0.0-18.0-0.0-0.79,4150,6,5
80,4,object_01,object_07,1031.195,8,2,460.805,0.1111111111111111,2,object_03,1,1023,0,8,1,restaurant_16,2,memory-2step-stake-s,576,1702813,0.0-18.0-0.0-0.80,4150,7,8
81,4,object_07,object_01,747.29,8,1,331.54,0.3333333333333333,2,object_03,1,1026,0,7,3,restaurant_31,2,memory-2step-stake-s,577,1710699,0.0-18.0-0.0-0.81,4150,8,7
82,3,object_04,object_10,674.81,5,2,401.09,0.8888888888888888,1,object_08,1,1034,0,8,4,library_17,2,memory-2step-stake-s,578,1719168,0.0-18.0-0.0-0.82,4150,6,5
83,1,object_06,object_02,855.11,2,2,413.36,0.5555555555555556,2,object_03,5,1059,0,7,5,desert_8,2,memory-2step-stake-s,579,1727345,0.0-18.0-0.0-0.83,4150,1,2
84,3,object_04,object_10,772.475,5,2,360.03,0.7777777777777778,1,object_08,1,1066,0,7,6,library_10,2,memory-2step-stake-s,580,1735666,0.0-18.0-0.0-0.84,4150,6,5
85,2,object_09,object_05,698.305,4,1,423.9,0.8888888888888888,2,object_03,5,1106,0,8,8,forest_18,2,memory-2step-stake-s,581,1744152,0.0-18.0-0.0-0.85,4150,4,3
86,3,object_04,object_10,740.425,5,2,734.235,0.8888888888888888,1,object_08,1,1114,0,8,5,library_21,2,memory-2step-stake-s,582,1752962,0.0-18.0-0.0-0.86,4150,6,5
87,2,object_05,object_09,861.145,4,2,327.58,0.8888888888888888,2,object_03,5,1154,0,7,8,forest_21,2,memory-2step-stake-s,583,1761364,0.0-18.0-0.0-0.87,4150,3,4
88,1,object_06,object_02,1084.3,1,1,417.83,1.0,1,object_08,1,1163,0,9,9,desert_23,2,memory-2step-stake-s,584,1769960,0.0-18.0-0.0-0.88,4150,1,2
89,2,object_09,object_05,947.01,4,1,353.045,0.5555555555555556,2,object_03,5,1188,0,9,5,forest_6,2,memory-2step-stake-s,585,1778073,0.0-18.0-0.0-0.89,4150,4,3
90,4,object_07,object_01,818.84,7,2,344.74,1.0,1,object_08,1,1197,0,9,8,restaurant_17,2,memory-2step-stake-s,586,1786587,0.0-18.0-0.0-0.90,4150,8,7
91,4,object_07,object_01,1125.02,8,1,671.645,0.8888888888888888,2,object_03,1,1205,0,8,8,restaurant_25,2,memory-2step-stake-s,587,1795324,0.0-18.0-0.0-0.91,4150,8,7
92,2,object_05,object_09,1387.565,4,2,1375.605,0.8888888888888888,2,object_03,5,1245,0,7,8,forest_22,2,memory-2step-stake-s,588,1804773,0.0-18.0-0.0-0.92,4150,3,4
93,2,object_09,object_05,579.865,4,1,345.04,0.7777777777777778,2,object_03,5,1280,0,7,7,forest_6,2,memory-2step-stake-s,589,1813079,0.0-18.0-0.0-0.93,4150,4,3
94,2,object_05,object_09,638.41,4,2,914.76,0.3333333333333333,2,object_03,5,1295,0,8,3,forest_30,2,memory-2step-stake-s,590,1821538,0.0-18.0-0.0-0.94,4150,3,4
95,2,object_05,object_09,549.96,4,2,611.86,0.1111111111111111,2,object_03,5,1300,0,8,1,forest_15,2,memory-2step-stake-s,591,1829488,0.0-18.0-0.0-0.95,4150,3,4
96,2,object_05,object_09,598.94,4,2,374.375,0.2222222222222222,2,object_03,5,1310,0,7,2,forest_28,2,memory-2step-stake-s,592,1837308,0.0-18.0-0.0-0.96,4150,3,4
97,1,object_06,object_02,1093.245,1,1,417.385,0.5555555555555556,1,object_08,5,1335,0,5,3,desert_10,2,memory-2step-stake-s,593,1845492,0.0-18.0-0.0-0.97,4150,1,2
98,4,object_01,object_07,591.215,8,2,326.1,0.7777777777777778,2,object_03,1,1342,0,5,7,restaurant_17,2,memory-2step-stake-s,594,1853782,0.0-18.0-0.0-0.98,4150,7,8
99,3,object_10,object_04,1052.965,6,2,390.12,0.7777777777777778,2,object_03,5,1377,0,5,7,library_22,2,memory-2step-stake-s,595,1862135,0.0-18.0-0.0-0.99,4150,5,6
100,3,object_10,object_04,716.025,5,1,347.65,0.5555555555555556,1,object_08,1,1382,0,5,5,library_4,2,memory-2step-stake-s,596,1870247,0.0-18.0-0.0-0.100,4150,5,6
101,2,object_09,object_05,714.525,4,1,365.91,0.1111111111111111,2,object_03,5,1387,0,5,1,forest_20,2,memory-2step-stake-s,597,1877970,0.0-18.0-0.0-0.101,4150,4,3
102,3,object_10,object_04,578.95,5,1,431.895,0.3333333333333333,1,object_08,1,1390,0,3,1,library_21,2,memory-2step-stake-s,598,1885953,0.0-18.0-0.0-0.102,4150,5,6
103,4,object_07,object_01,563.685,7,2,328.635,0.8888888888888888,1,object_08,1,1398,0,8,3,restaurant_4,2,memory-2step-stake-s,599,1894355,0.0-18.0-0.0-0.103,4150,8,7
104,4,object_01,object_07,479.915,8,2,395.215,0.2222222222222222,2,object_03,1,1400,0,4,2,restaurant_31,2,memory-2step-stake-s,600,1902196,0.0-18.0-0.0-0.104,4150,7,8
105,1,object_02,object_06,808.88,1,2,324.22,0.5555555555555556,1,object_08,5,1425,0,5,5,desert_11,2,memory-2step-stake-s,601,1910275,0.0-18.0-0.0-0.105,4150,2,1
106,2,object_09,object_05,678.53,3,2,310.925,0.4444444444444444,1,object_08,5,1445,0,4,7,forest_20,2,memory-2step-stake-s,602,1918237,0.0-18.0-0.0-0.106,4150,4,3
107,3,object_10,object_04,630.345,5,1,754.37,1.0,1,object_08,1,1454,0,9,6,library_20,2,memory-2step-stake-s,603,1927140,0.0-18.0-0.0-0.107,4150,5,6
108,3,object_04,object_10,735.39,5,2,514.985,0.5555555555555556,1,object_08,1,1459,0,5,7,library_19,2,memory-2step-stake-s,604,1935418,0.0-18.0-0.0-0.108,4150,6,5
109,1,object_02,object_06,724.77,1,2,328.605,0.6666666666666666,1,object_08,5,1489,0,6,6,desert_10,2,memory-2step-stake-s,605,1943604,0.0-18.0-0.0-0.109,4150,2,1
110,2,object_05,object_09,760.475,4,2,305.555,0.4444444444444444,2,object_03,5,1509,0,6,4,forest_13,2,memory-2step-stake-s,606,1951554,0.0-18.0-0.0-0.110,4150,3,4
111,1,object_02,object_06,1082.905,2,1,408.24,0.4444444444444444,2,object_03,5,1529,0,7,4,desert_7,2,memory-2step-stake-s,607,1959612,0.0-18.0-0.0-0.111,4150,2,1
112,3,object_04,object_10,609.37,5,2,338.8,0.6666666666666666,1,object_08,1,1535,0,6,0,library_4,2,memory-2step-stake-s,608,1967809,0.0-18.0-0.0-0.112,4150,6,5
113,4,object_07,object_01,599.92,7,2,367.1,0.8888888888888888,1,object_08,1,1543,0,8,2,restaurant_5,2,memory-2step-stake-s,609,1976240,0.0-18.0-0.0-0.113,4150,8,7
114,4,object_01,object_07,1267.22,7,1,840.625,0.8888888888888888,1,object_08,1,1551,0,8,0,restaurant_16,2,memory-2step-stake-s,610,1985149,0.0-18.0-0.0-0.114,4150,7,8
115,2,object_05,object_09,1071.61,4,2,452.31,0.0,2,object_03,5,1551,0,6,0,forest_30,2,memory-2step-stake-s,611,1992835,0.0-18.0-0.0-0.115,4150,3,4
116,3,object_10,object_04,941.02,5,1,369.825,1.0,1,object_08,5,1596,0,9,4,library_3,2,memory-2step-stake-s,612,2001362,0.0-18.0-0.0-0.116,4150,5,6
117,3,object_10,object_04,587.285,5,1,345.565,0.8888888888888888,1,object_08,1,1604,0,8,6,library_23,2,memory-2step-stake-s,613,2009785,0.0-18.0-0.0-0.117,4150,5,6
118,4,object_01,object_07,855.12,7,1,411.775,0.8888888888888888,1,object_08,5,1644,0,8,3,restaurant_30,2,memory-2step-stake-s,614,2018269,0.0-18.0-0.0-0.118,4150,7,8
119,1,object_02,object_06,721.43,2,1,407.235,0.2222222222222222,2,object_03,1,1646,0,8,2,desert_16,2,memory-2step-stake-s,615,2026121,0.0-18.0-0.0-0.119,4150,2,1
120,2,object_09,object_05,845.15,3,2,385.465,0.4444444444444444,1,object_08,5,1666,0,4,5,forest_30,2,memory-2step-stake-s,616,2034156,0.0-18.0-0.0-0.120,4150,4,3
121,1,object_02,object_06,709.715,1,2,429.78,0.4444444444444444,1,object_08,5,1686,0,4,4,desert_12,2,memory-2step-stake-s,617,2042245,0.0-18.0-0.0-0.121,4150,2,1
122,1,object_02,object_06,655.245,1,2,1196.885,0.2222222222222222,1,object_08,5,1696,0,2,4,desert_6,2,memory-2step-stake-s,618,2050882,0.0-18.0-0.0-0.122,4150,2,1
123,3,object_04,object_10,873.06,5,2,342.81,0.5555555555555556,1,object_08,1,1701,0,5,3,library_30,2,memory-2step-stake-s,619,2058987,0.0-18.0-0.0-0.123,4150,6,5
124,1,object_02,object_06,891.535,1,2,394.15,0.1111111111111111,1,object_08,5,1706,0,1,2,desert_18,2,memory-2step-stake-s,620,2066727,0.0-18.0-0.0-0.124,4150,2,1
125,2,object_05,object_09,1009.36,3,1,384.355,0.1111111111111111,1,object_08,5,1711,0,1,2,forest_22,2,memory-2step-stake-s,621,2074456,0.0-18.0-0.0-0.125,4150,3,4
126,4,object_01,object_07,676.54,8,2,355.11,0.1111111111111111,2,object_03,1,1712,0,0,1,restaurant_11,2,memory-2step-stake-s,622,2082158,0.0-18.0-0.0-0.126,4150,7,8
127,3,object_10,object_04,768.84,5,1,-1.0,0.0,1,object_08,1,1712,0,2,3,library_4,2,memory-2step-stake-s,623,2090691,0.0-18.0-0.0-0.127,4150,5,6
128,1,object_02,object_06,1232.785,2,1,441.735,0.4444444444444444,2,object_03,5,1732,0,6,4,desert_12,2,memory-2step-stake-s,625,2206689,0.0-18.0-0.1-0.128,4150,2,1
129,1,object_06,object_02,858.125,1,1,460.97,0.4444444444444444,1,object_08,5,1752,0,4,3,desert_18,2,memory-2step-stake-s,626,2214796,0.0-18.0-0.1-0.129,4150,1,2
130,1,object_02,object_06,482.23,1,2,628.42,0.2222222222222222,1,object_08,1,1754,0,2,2,desert_8,2,memory-2step-stake-s,627,2222862,0.0-18.0-0.1-0.130,4150,2,1
131,4,object_01,object_07,864.005,7,1,594.02,0.4444444444444444,1,object_08,1,1758,0,4,0,restaurant_6,2,memory-2step-stake-s,628,2231109,0.0-18.0-0.1-0.131,4150,7,8
132,3,object_04,object_10,496.105,5,2,466.075,0.7777777777777778,1,object_08,5,1793,0,7,4,library_19,2,memory-2step-stake-s,629,2239537,0.0-18.0-0.1-0.132,4150,6,5
133,1,object_02,object_06,683.735,1,2,429.07,1.0,1,object_08,1,1802,0,9,2,desert_6,2,memory-2step-stake-s,630,2248142,0.0-18.0-0.1-0.133,4150,2,1
134,4,object_01,object_07,592.54,8,2,497.605,0.0,2,object_03,1,1802,0,8,0,restaurant_16,2,memory-2step-stake-s,631,2255865,0.0-18.0-0.1-0.134,4150,7,8
135,2,object_09,object_05,923.975,4,1,395.41,0.3333333333333333,2,object_03,5,1817,0,7,3,forest_3,2,memory-2step-stake-s,632,2263814,0.0-18.0-0.1-0.135,4150,4,3
136,2,object_09,object_05,813.76,3,2,365.62,0.6666666666666666,1,object_08,1,1823,0,6,1,forest_24,2,memory-2step-stake-s,633,2272035,0.0-18.0-0.1-0.136,4150,4,3
137,1,object_06,object_02,1035.89,2,2,426.58,0.1111111111111111,2,object_03,5,1828,0,7,1,desert_22,2,memory-2step-stake-s,634,2279800,0.0-18.0-0.1-0.137,4150,1,2
138,3,object_04,object_10,947.985,5,2,419.41,0.8888888888888888,1,object_08,5,1868,0,8,6,library_3,2,memory-2step-stake-s,635,2288294,0.0-18.0-0.1-0.138,4150,6,5
139,3,object_04,object_10,680.39,5,2,370.14,0.6666666666666666,1,object_08,1,1874,0,6,5,library_10,2,memory-2step-stake-s,636,2296521,0.0-18.0-0.1-0.139,4150,6,5
140,4,object_07,object_01,707.535,8,1,366.38,0.6666666666666666,2,object_03,5,1904,0,8,6,restaurant_32,2,memory-2step-stake-s,637,2304737,0.0-18.0-0.1-0.140,4150,8,7
141,2,object_09,object_05,645.51,3,2,348.84,0.6666666666666666,1,object_08,1,1910,0,6,6,forest_3,2,memory-2step-stake-s,638,2312942,0.0-18.0-0.1-0.141,4150,4,3
142,2,object_05,object_09,1212.505,3,1,468.26,0.2222222222222222,1,object_08,5,1920,0,2,7,forest_13,2,memory-2step-stake-s,639,2320853,0.0-18.0-0.1-0.142,4150,3,4
143,2,object_09,object_05,1047.28,3,2,366.375,0.2222222222222222,1,object_08,5,1930,0,2,9,forest_20,2,memory-2step-stake-s,640,2328657,0.0-18.0-0.1-0.143,4150,4,3
144,2,object_05,object_09,724.91,4,2,508.2,0.7777777777777778,2,object_03,5,1965,0,4,7,forest_18,2,memory-2step-stake-s,641,2337123,0.0-18.0-0.1-0.144,4150,3,4
145,1,object_06,object_02,924.72,2,2,402.995,0.7777777777777778,2,object_03,5,2000,0,8,7,desert_8,2,memory-2step-stake-s,642,2345490,0.0-18.0-0.1-0.145,4150,1,2
146,2,object_05,object_09,1232.085,4,2,393.85,0.7777777777777778,2,object_03,5,2035,0,6,7,forest_28,2,memory-2step-stake-s,643,2353847,0.0-18.0-0.1-0.146,4150,3,4
147,2,object_05,object_09,1002.445,4,2,306.635,0.6666666666666666,2,object_03,5,2065,0,5,6,forest_31,2,memory-2step-stake-s,644,2362018,0.0-18.0-0.1-0.147,4150,3,4
148,2,object_05,object_09,720.915,4,2,493.585,0.4444444444444444,2,object_03,5,2085,0,3,4,forest_15,2,memory-2step-stake-s,645,2370174,0.0-18.0-0.1-0.148,4150,3,4
149,3,object_10,object_04,638.285,5,1,304.7,0.0,1,object_08,1,2085,0,0,6,library_16,2,memory-2step-stake-s,646,2377715,0.0-18.0-0.1-0.149,4150,5,6
150,4,object_01,object_07,851.155,8,2,369.29,0.4444444444444444,2,object_03,1,2089,0,2,4,restaurant_5,2,memory-2step-stake-s,647,2385735,0.0-18.0-0.1-0.150,4150,7,8
151,2,object_09,object_05,780.725,4,1,475.86,0.3333333333333333,2,object_03,5,2104,0,4,3,forest_23,2,memory-2step-stake-s,648,2393756,0.0-18.0-0.1-0.151,4150,4,3
152,2,object_09,object_05,705.295,3,2,489.74,0.4444444444444444,1,object_08,5,2124,0,4,3,forest_27,2,memory-2step-stake-s,649,2401897,0.0-18.0-0.1-0.152,4150,4,3
153,2,object_09,object_05,737.47,4,1,433.255,0.0,2,object_03,1,2124,0,5,0,forest_27,2,memory-2step-stake-s,650,2409562,0.0-18.0-0.1-0.153,4150,4,3
154,2,object_05,object_09,695.79,4,2,335.9,0.2222222222222222,2,object_03,5,2134,0,3,2,forest_3,2,memory-2step-stake-s,651,2417337,0.0-18.0-0.1-0.154,4150,3,4
155,3,object_04,object_10,587.02,5,2,526.02,0.2222222222222222,1,object_08,1,2136,0,2,4,library_15,2,memory-2step-stake-s,652,2425305,0.0-18.0-0.1-0.155,4150,6,5
156,1,object_02,object_06,1018.975,2,1,397.22,0.7777777777777778,2,object_03,5,2171,0,0,7,desert_20,2,memory-2step-stake-s,653,2433672,0.0-18.0-0.1-0.156,4150,2,1
157,3,object_10,object_04,957.86,5,1,373.905,0.3333333333333333,1,object_08,1,2174,0,3,7,library_1,2,memory-2step-stake-s,654,2441581,0.0-18.0-0.1-0.157,4150,5,6
158,2,object_05,object_09,755.12,4,2,320.285,0.7777777777777778,2,object_03,5,2209,0,4,7,forest_30,2,memory-2step-stake-s,655,2449860,0.0-18.0-0.1-0.158,4150,3,4
159,1,object_06,object_02,1433.67,1,1,-1.0,0.0,1,object_08,5,2209,0,4,6,desert_18,2,memory-2step-stake-s,656,2458401,0.0-18.0-0.1-0.159,4150,1,2
160,4,object_01,object_07,721.31,8,2,-1.0,0.0,2,object_03,1,2209,0,2,7,restaurant_3,2,memory-2step-stake-s,657,2466944,0.0-18.0-0.1-0.160,4150,7,8
161,3,object_10,object_04,1152.685,5,1,842.32,0.0,1,object_08,1,2209,0,0,7,library_20,2,memory-2step-stake-s,658,2475027,0.0-18.0-0.1-0.161,4150,5,6
162,1,object_02,object_06,636.915,1,2,994.08,0.0,1,object_08,1,2209,0,0,8,desert_11,2,memory-2step-stake-s,659,2483260,0.0-18.0-0.1-0.162,4150,2,1
163,4,object_01,object_07,1312.675,8,2,1037.05,0.6666666666666666,2,object_03,5,2239,0,2,6,restaurant_26,2,memory-2step-stake-s,660,2492157,0.0-18.0-0.1-0.163,4150,7,8
164,1,object_02,object_06,-1.0,-1,-1,-1.0,0.0,-,,5,2239,0,0,4,desert_19,2,memory-2step-stake-s,661,2498684,0.0-18.0-0.1-0.164,4150,2,1
165,3,object_04,object_10,696.065,5,2,688.54,0.2222222222222222,1,object_08,1,2241,0,2,1,library_19,2,memory-2step-stake-s,662,2506824,0.0-18.0-0.1-0.165,4150,6,5
166,3,object_10,object_04,824.395,5,1,722.38,0.5555555555555556,1,object_08,1,2246,0,5,3,library_23,2,memory-2step-stake-s,663,2515300,0.0-18.0-0.1-0.166,4150,5,6
167,3,object_04,object_10,772.765,5,2,404.66,0.7777777777777778,1,object_08,1,2253,0,7,5,library_21,2,memory-2step-stake-s,664,2523675,0.0-18.0-0.1-0.167,4150,6,5
168,2,object_09,object_05,1086.86,3,2,317.66,0.7777777777777778,1,object_08,1,2260,0,7,4,forest_22,2,memory-2step-stake-s,665,2531937,0.0-18.0-0.1-0.168,4150,4,3
169,2,object_05,object_09,974.96,4,2,380.635,0.1111111111111111,2,object_03,5,2265,0,6,1,forest_23,2,memory-2step-stake-s,666,2539663,0.0-18.0-0.1-0.169,4150,3,4
170,1,object_06,object_02,910.88,2,2,352.355,0.3333333333333333,2,object_03,1,2268,0,7,3,desert_22,2,memory-2step-stake-s,667,2547565,0.0-18.0-0.1-0.170,4150,1,2
171,4,object_01,object_07,762.96,7,1,756.265,0.3333333333333333,1,object_08,1,2271,0,3,7,restaurant_16,2,memory-2step-stake-s,668,2555870,0.0-18.0-0.1-0.171,4150,7,8
172,1,object_06,object_02,930.265,2,2,469.24,0.6666666666666666,2,object_03,1,2277,0,5,6,desert_20,2,memory-2step-stake-s,669,2564195,0.0-18.0-0.1-0.172,4150,1,2
173,1,object_02,object_06,1173.915,1,2,387.2,0.3333333333333333,1,object_08,5,2292,0,3,6,desert_19,2,memory-2step-stake-s,670,2572124,0.0-18.0-0.1-0.173,4150,2,1
174,4,object_07,object_01,908.085,7,2,394.35,0.1111111111111111,1,object_08,1,2293,0,1,8,restaurant_32,2,memory-2step-stake-s,671,2579852,0.0-18.0-0.1-0.174,4150,8,7
175,4,object_07,object_01,1033.01,8,1,380.87,0.4444444444444444,2,object_03,1,2297,0,1,4,restaurant_31,2,memory-2step-stake-s,672,2587883,0.0-18.0-0.1-0.175,4150,8,7
176,2,object_05,object_09,724.455,4,2,408.79,0.3333333333333333,2,object_03,5,2312,0,1,3,forest_21,2,memory-2step-stake-s,673,2595833,0.0-18.0-0.1-0.176,4150,3,4
177,2,object_05,object_09,1047.855,3,1,413.485,0.0,1,object_08,1,2312,0,0,4,forest_1,2,memory-2step-stake-s,674,2603480,0.0-18.0-0.1-0.177,4150,3,4
178,4,object_07,object_01,831.35,7,2,390.635,0.2222222222222222,1,object_08,1,2314,0,2,7,restaurant_32,2,memory-2step-stake-s,675,2611313,0.0-18.0-0.1-0.178,4150,8,7
179,3,object_10,object_04,845.91,6,2,401.705,0.7777777777777778,2,object_03,1,2321,0,2,7,library_20,2,memory-2step-stake-s,676,2619678,0.0-18.0-0.1-0.179,4150,5,6
180,4,object_01,object_07,1367.88,7,1,682.99,0.4444444444444444,1,object_08,1,2325,0,4,7,restaurant_31,2,memory-2step-stake-s,677,2628009,0.0-18.0-0.1-0.180,4150,7,8
181,1,object_02,object_06,1031.845,2,1,514.54,0.6666666666666666,2,object_03,5,2355,0,6,6,desert_15,2,memory-2step-stake-s,678,2636382,0.0-18.0-0.1-0.181,4150,2,1
182,4,object_07,object_01,1078.045,7,2,599.645,0.4444444444444444,1,object_08,1,2359,0,4,2,restaurant_25,2,memory-2step-stake-s,679,2644637,0.0-18.0-0.1-0.182,4150,8,7
183,1,object_02,object_06,643.315,1,2,486.905,0.4444444444444444,1,object_08,1,2363,0,4,2,desert_13,2,memory-2step-stake-s,680,2652773,0.0-18.0-0.1-0.183,4150,2,1
184,4,object_01,object_07,637.84,8,2,713.27,0.1111111111111111,2,object_03,1,2364,0,4,1,restaurant_30,2,memory-2step-stake-s,681,2660827,0.0-18.0-0.1-0.184,4150,7,8
185,1,object_06,object_02,995.905,2,2,623.215,0.1111111111111111,2,object_03,5,2369,0,7,1,desert_22,2,memory-2step-stake-s,682,2668786,0.0-18.0-0.1-0.185,4150,1,2
186,3,object_10,object_04,808.18,5,1,743.08,0.3333333333333333,1,object_08,1,2372,0,3,1,library_15,2,memory-2step-stake-s,683,2677077,0.0-18.0-0.1-0.186,4150,5,6
187,3,object_04,object_10,746.125,5,2,646.705,0.2222222222222222,1,object_08,1,2374,0,2,0,library_1,2,memory-2step-stake-s,684,2685169,0.0-18.0-0.1-0.187,4150,6,5
188,4,object_07,object_01,682.555,8,1,541.205,0.2222222222222222,2,object_03,1,2376,0,5,2,restaurant_17,2,memory-2step-stake-s,685,2693149,0.0-18.0-0.1-0.188,4150,8,7
189,3,object_10,object_04,655.135,6,2,541.665,0.3333333333333333,2,object_03,1,2379,0,3,3,library_23,2,memory-2step-stake-s,686,2701237,0.0-18.0-0.1-0.189,4150,5,6
190,3,object_10,object_04,845.405,5,1,496.86,0.6666666666666666,1,object_08,1,2385,0,6,3,library_10,2,memory-2step-stake-s,687,2709592,0.0-18.0-0.1-0.190,4150,5,6
191,2,object_05,object_09,428.05,4,2,450.66,0.5555555555555556,2,object_03,1,2390,0,9,5,forest_23,2,memory-2step-stake-s,688,2717798,0.0-18.0-0.1-0.191,4150,3,4
192,2,object_09,object_05,565.195,4,1,576.385,0.7777777777777778,2,object_03,5,2425,0,4,7,forest_3,2,memory-2step-stake-s,689,2726340,0.0-18.0-0.1-0.192,4150,4,3
193,4,object_07,object_01,781.91,7,2,-1.0,0.0,1,object_08,1,2425,0,5,6,restaurant_3,2,memory-2step-stake-s,690,2734874,0.0-18.0-0.1-0.193,4150,8,7
194,1,object_06,object_02,726.46,1,1,531.305,0.3333333333333333,1,object_08,5,2440,0,3,7,desert_13,2,memory-2step-stake-s,691,2742957,0.0-18.0-0.1-0.194,4150,1,2
195,3,object_10,object_04,544.065,6,2,436.695,0.6666666666666666,2,object_03,1,2446,0,0,6,library_17,2,memory-2step-stake-s,692,2751253,0.0-18.0-0.1-0.195,4150,5,6
196,3,object_10,object_04,895.2,6,2,783.685,0.8888888888888888,2,object_03,1,2454,0,2,8,library_16,2,memory-2step-stake-s,693,2760087,0.0-18.0-0.1-0.196,4150,5,6
197,2,object_09,object_05,525.52,4,1,629.73,0.8888888888888888,2,object_03,5,2494,0,4,8,forest_26,2,memory-2step-stake-s,694,2768779,0.0-18.0-0.1-0.197,4150,4,3
198,4,object_07,object_01,624.51,7,2,429.155,0.7777777777777778,1,object_08,1,2501,0,7,8,restaurant_8,2,memory-2step-stake-s,695,2777181,0.0-18.0-0.1-0.198,4150,8,7
199,4,object_01,object_07,688.975,7,1,490.955,1.0,1,object_08,1,2510,0,9,7,restaurant_30,2,memory-2step-stake-s,696,2785849,0.0-18.0-0.1-0.199,4150,7,8
200,2,object_05,object_09,566.305,4,2,446.56,1.0,2,object_03,5,2555,0,4,9,forest_6,2,memory-2step-stake-s,697,2794457,0.0-18.0-0.1-0.200,4150,3,4
201,1,object_02,object_06,851.99,1,2,488.245,0.2222222222222222,1,object_08,5,2565,0,2,8,desert_10,2,memory-2step-stake-s,698,2802394,0.0-18.0-0.1-0.201,4150,2,1
202,1,object_06,object_02,443.09,1,1,439.77,0.0,1,object_08,5,2565,0,0,9,desert_2,2,memory-2step-stake-s,699,2810065,0.0-18.0-0.1-0.202,4150,1,2
203,2,object_09,object_05,777.04,4,1,582.75,0.7777777777777778,2,object_03,1,2572,0,1,7,forest_20,2,memory-2step-stake-s,700,2818612,0.0-18.0-0.1-0.203,4150,4,3
204,3,object_10,object_04,659.54,6,2,464.79,1.0,2,object_03,1,2581,0,5,9,library_15,2,memory-2step-stake-s,701,2827255,0.0-18.0-0.1-0.204,4150,5,6
205,1,object_06,object_02,1013.46,2,2,441.575,0.7777777777777778,2,object_03,5,2616,0,4,7,desert_7,2,memory-2step-stake-s,702,2835660,0.0-18.0-0.1-0.205,4150,1,2
206,3,object_04,object_10,-1.0,-1,-1,-1.0,0.0,-,,1,2616,0,2,6,library_3,2,memory-2step-stake-s,703,2842181,0.0-18.0-0.1-0.206,4150,6,5
207,2,object_05,object_09,800.755,4,2,505.395,0.1111111111111111,2,object_03,5,2621,0,1,1,forest_31,2,memory-2step-stake-s,704,2850029,0.0-18.0-0.1-0.207,4150,3,4
208,1,object_06,object_02,954.71,2,2,570.48,0.0,2,object_03,5,2621,0,0,0,desert_6,2,memory-2step-stake-s,705,2857835,0.0-18.0-0.1-0.208,4150,1,2
209,1,object_02,object_06,713.865,2,1,594.495,0.1111111111111111,2,object_03,1,2622,0,2,1,desert_21,2,memory-2step-stake-s,706,2865769,0.0-18.0-0.1-0.209,4150,2,1
210,4,object_07,object_01,815.7,7,2,350.99,0.2222222222222222,1,object_08,1,2624,0,2,4,restaurant_10,2,memory-2step-stake-s,707,2873558,0.0-18.0-0.1-0.210,4150,8,7
211,2,object_05,object_09,1050.51,3,1,335.49,0.2222222222222222,1,object_08,5,2634,0,2,2,forest_1,2,memory-2step-stake-s,708,2881334,0.0-18.0-0.1-0.211,4150,3,4
212,4,object_07,object_01,983.07,7,2,862.45,0.1111111111111111,1,object_08,1,2635,0,1,1,restaurant_23,2,memory-2step-stake-s,709,2889534,0.0-18.0-0.1-0.212,4150,8,7
213,4,object_01,object_07,648.665,7,1,550.755,0.6666666666666666,1,object_08,1,2641,0,6,1,restaurant_26,2,memory-2step-stake-s,710,2897930,0.0-18.0-0.1-0.213,4150,7,8
214,4,object_07,object_01,796.015,7,2,462.18,0.4444444444444444,1,object_08,1,2645,0,4,0,restaurant_12,2,memory-2step-stake-s,711,2906029,0.0-18.0-0.1-0.214,4150,8,7
215,1,object_02,object_06,626.76,1,2,311.715,0.3333333333333333,1,object_08,5,2660,0,3,0,desert_20,2,memory-2step-stake-s,712,2913881,0.0-18.0-0.1-0.215,4150,2,1
216,2,object_05,object_09,1092.12,3,1,367.27,0.6666666666666666,1,object_08,5,2690,0,6,2,forest_24,2,memory-2step-stake-s,713,2922112,0.0-18.0-0.1-0.216,4150,3,4
217,1,object_02,object_06,578.195,1,2,329.965,0.7777777777777778,1,object_08,5,2725,0,7,3,desert_15,2,memory-2step-stake-s,714,2930404,0.0-18.0-0.1-0.217,4150,2,1
218,4,object_07,object_01,925.815,7,2,353.495,0.5555555555555556,1,object_08,5,2750,0,5,3,restaurant_8,2,memory-2step-stake-s,715,2938518,0.0-18.0-0.1-0.218,4150,8,7
219,3,object_04,object_10,710.825,5,2,373.86,1.0,1,object_08,1,2759,0,9,2,library_23,2,memory-2step-stake-s,716,2947062,0.0-18.0-0.1-0.219,4150,6,5
220,2,object_05,object_09,750.475,3,1,624.255,0.6666666666666666,1,object_08,1,2765,0,6,3,forest_21,2,memory-2step-stake-s,717,2955546,0.0-18.0-0.1-0.220,4150,3,4
221,1,object_02,object_06,548.315,1,2,523.24,0.2222222222222222,1,object_08,1,2767,0,2,3,desert_10,2,memory-2step-stake-s,718,2963502,0.0-18.0-0.1-0.221,4150,2,1
222,4,object_07,object_01,645.215,8,1,496.12,0.3333333333333333,2,object_03,1,2770,0,6,3,restaurant_26,2,memory-2step-stake-s,719,2971542,0.0-18.0-0.1-0.222,4150,8,7
223,2,object_09,object_05,935.76,3,2,1192.52,0.5555555555555556,1,object_08,5,2795,0,5,2,forest_6,2,memory-2step-stake-s,720,2980492,0.0-18.0-0.1-0.223,4150,4,3
224,1,object_06,object_02,660.45,2,2,539.785,0.1111111111111111,2,object_03,5,2800,0,2,1,desert_6,2,memory-2step-stake-s,721,2988372,0.0-18.0-0.1-0.224,4150,1,2
225,1,object_02,object_06,705.66,2,1,484.39,0.1111111111111111,2,object_03,1,2801,0,3,1,desert_2,2,memory-2step-stake-s,722,2996193,0.0-18.0-0.1-0.225,4150,2,1
226,1,object_06,object_02,1089.6,1,1,385.97,0.1111111111111111,1,object_08,5,2806,0,1,3,desert_18,2,memory-2step-stake-s,723,3003919,0.0-18.0-0.1-0.226,4150,1,2
227,4,object_07,object_01,581.115,7,2,542.13,0.0,1,object_08,1,2806,0,0,2,restaurant_10,2,memory-2step-stake-s,724,3011698,0.0-18.0-0.1-0.227,4150,8,7
228,3,object_04,object_10,827.765,6,1,554.51,0.1111111111111111,2,object_03,5,2811,0,2,1,library_10,2,memory-2step-stake-s,725,3019584,0.0-18.0-0.1-0.228,4150,6,5
229,3,object_04,object_10,981.85,6,1,328.705,0.1111111111111111,2,object_03,1,2812,0,1,1,library_30,2,memory-2step-stake-s,726,3027256,0.0-18.0-0.1-0.229,4150,6,5
230,1,object_06,object_02,1070.405,2,2,310.51,0.0,2,object_03,5,2812,0,1,0,desert_21,2,memory-2step-stake-s,727,3034796,0.0-18.0-0.1-0.230,4150,1,2
231,2,object_05,object_09,1337.49,3,1,349.47,0.1111111111111111,1,object_08,5,2817,0,1,0,forest_13,2,memory-2step-stake-s,728,3042479,0.0-18.0-0.1-0.231,4150,3,4
232,1,object_06,object_02,693.215,2,2,508.66,0.1111111111111111,2,object_03,1,2818,0,0,1,desert_16,2,memory-2step-stake-s,729,3050330,0.0-18.0-0.1-0.232,4150,1,2
233,3,object_10,object_04,597.09,5,1,748.805,0.1111111111111111,1,object_08,1,2819,0,1,1,library_16,2,memory-2step-stake-s,730,3058427,0.0-18.0-0.1-0.233,4150,5,6
234,2,object_05,object_09,1131.49,4,2,917.35,0.0,2,object_03,5,2819,0,2,0,forest_21,2,memory-2step-stake-s,731,3066581,0.0-18.0-0.1-0.234,4150,3,4
235,3,object_04,object_10,435.51,6,1,367.455,0.2222222222222222,2,object_03,1,2821,0,5,2,library_11,2,memory-2step-stake-s,732,3074396,0.0-18.0-0.1-0.235,4150,6,5
236,1,object_02,object_06,719.18,1,2,1224.18,0.7777777777777778,1,object_08,1,2828,0,7,7,desert_20,2,memory-2step-stake-s,733,3083583,0.0-18.0-0.1-0.236,4150,2,1
237,4,object_07,object_01,630.825,7,2,594.65,0.7777777777777778,1,object_08,1,2835,0,7,9,restaurant_10,2,memory-2step-stake-s,734,3092137,0.0-18.0-0.1-0.237,4150,8,7
238,2,object_05,object_09,583.225,3,1,633.485,0.5555555555555556,1,object_08,5,2860,0,5,8,forest_18,2,memory-2step-stake-s,735,3100532,0.0-18.0-0.1-0.238,4150,3,4
239,2,object_05,object_09,603.105,4,2,1084.735,1.0,2,object_03,5,2905,0,9,9,forest_26,2,memory-2step-stake-s,736,3109799,0.0-18.0-0.1-0.239,4150,3,4
240,1,object_02,object_06,595.735,1,2,557.405,0.7777777777777778,1,object_08,5,2940,0,7,7,desert_19,2,memory-2step-stake-s,737,3118326,0.0-18.0-0.1-0.240,4150,2,1
241,3,object_10,object_04,417.805,5,1,644.285,1.0,1,object_08,1,2949,0,9,6,library_12,2,memory-2step-stake-s,738,3127143,0.0-18.0-0.1-0.241,4150,5,6
242,4,object_07,object_01,1113.545,7,2,619.76,0.6666666666666666,1,object_08,1,2955,0,6,9,restaurant_12,2,memory-2step-stake-s,739,3135621,0.0-18.0-0.1-0.242,4150,8,7
243,3,object_04,object_10,999.39,6,1,655.92,0.8888888888888888,2,object_03,1,2963,0,5,8,library_22,2,memory-2step-stake-s,740,3144352,0.0-18.0-0.1-0.243,4150,6,5
244,2,object_09,object_05,486.215,3,2,495.425,0.4444444444444444,1,object_08,5,2983,0,4,4,forest_31,2,memory-2step-stake-s,741,3152497,0.0-18.0-0.1-0.244,4150,4,3
245,4,object_07,object_01,560.105,8,1,550.955,0.5555555555555556,2,object_03,5,3008,0,2,5,restaurant_3,2,memory-2step-stake-s,742,3160810,0.0-18.0-0.1-0.245,4150,8,7
246,3,object_04,object_10,505.81,5,2,523.87,0.5555555555555556,1,object_08,5,3033,0,5,3,library_12,2,memory-2step-stake-s,743,3169091,0.0-18.0-0.1-0.246,4150,6,5
247,2,object_09,object_05,522.745,4,1,747.885,0.4444444444444444,2,object_03,5,3053,0,5,4,forest_24,2,memory-2step-stake-s,744,3177493,0.0-18.0-0.1-0.247,4150,4,3
248,3,object_10,object_04,479.08,6,2,480.585,0.3333333333333333,2,object_03,5,3068,0,6,3,library_15,2,memory-2step-stake-s,745,3185520,0.0-18.0-0.1-0.248,4150,5,6
249,4,object_07,object_01,597.58,8,1,621.11,0.6666666666666666,2,object_03,1,3074,0,7,6,restaurant_11,2,memory-2step-stake-s,746,3193994,0.0-18.0-0.1-0.249,4150,8,7
250,3,object_04,object_10,1147.85,5,2,-1.0,0.0,1,object_08,5,3074,0,9,7,library_11,2,memory-2step-stake-s,747,3202534,0.0-18.0-0.1-0.250,4150,6,5
251,1,object_02,object_06,427.28,2,1,522.57,0.2222222222222222,2,object_03,1,3076,0,9,2,desert_13,2,memory-2step-stake-s,748,3210500,0.0-18.0-0.1-0.251,4150,2,1
252,2,object_09,object_05,621.7,3,2,476.015,0.8888888888888888,1,object_08,1,3084,0,8,2,forest_15,2,memory-2step-stake-s,749,3219034,0.0-18.0-0.1-0.252,4150,4,3
253,4,object_01,object_07,436.32,7,1,422.68,0.6666666666666666,1,object_08,1,3090,0,6,5,restaurant_32,2,memory-2step-stake-s,750,3227313,0.0-18.0-0.1-0.253,4150,7,8
254,3,object_10,object_04,505.71,6,2,502.26,0.5555555555555556,2,object_03,1,3095,0,7,5,library_7,2,memory-2step-stake-s,751,3235564,0.0-18.0-0.1-0.254,4150,5,6
255,3,object_04,object_10,388.295,6,1,458.34,0.4444444444444444,2,object_03,1,3099,0,8,4,library_21,2,memory-2step-stake-s,752,3243670,0.0-18.0-0.1-0.255,4150,6,5
