,state1,stim_left,stim_right,rt_1,choice1,response1,rt_2,points,state2,stim_state2,stake,score,practice,rews1,rews2,background,high_arm,trial_type,trial_index,time_elapsed,internal_node_id,subid,stim_left_num,stim_right_num
0,2,object_01,object_08,995.6149998999999,4,1,-1.0,0.0,2,object_06,1,0,0,4,2,forest_24,1,memory-2step-stake-s,497,5611115,0.0-18.0-0.0-0.0,454,4,3
1,2,object_08,object_01,-1.0,-1,-1,-1.0,0.0,-,,1,0,0,5,1,forest_22,1,memory-2step-stake-s,498,5617622,0.0-18.0-0.0-0.1,454,3,4
2,4,object_03,object_07,854.9899998999999,8,1,1014.59,0.1111111111111111,2,object_06,1,1,0,5,1,restaurant_5,1,memory-2step-stake-s,499,5625955,0.0-18.0-0.0-0.2,454,8,7
3,3,object_05,object_09,882.8049998,6,1,782.3700001,0.1111111111111111,2,object_06,1,2,0,5,1,library_24,1,memory-2step-stake-s,500,5634055,0.0-18.0-0.0-0.3,454,6,5
4,4,object_07,object_03,884.6699997999999,7,1,576.505,0.3333333333333333,1,object_10,1,5,0,3,5,restaurant_15,1,memory-2step-stake-s,501,5642158,0.0-18.0-0.0-0.4,454,7,8
5,3,object_09,object_05,597.7149999,5,1,696.79,0.4444444444444444,1,object_10,5,25,0,4,8,library_22,1,memory-2step-stake-s,502,5650496,0.0-18.0-0.0-0.5,454,5,6
6,1,object_04,object_02,569.7250001,2,1,627.905,0.5555555555555556,2,object_06,1,30,0,4,5,desert_24,1,memory-2step-stake-s,503,5658862,0.0-18.0-0.0-0.6,454,2,1
7,2,object_01,object_08,694.385,4,1,657.9499999,0.5555555555555556,2,object_06,1,35,0,3,5,forest_31,1,memory-2step-stake-s,504,5667249,0.0-18.0-0.0-0.7,454,4,3
8,3,object_09,object_05,610.3749999,5,1,1378.14,0.2222222222222222,1,object_10,5,45,0,2,6,library_8,1,memory-2step-stake-s,505,5676065,0.0-18.0-0.0-0.8,454,5,6
9,4,object_07,object_03,757.2700002,7,1,771.805,0.1111111111111111,1,object_10,5,50,0,1,9,restaurant_3,1,memory-2step-stake-s,506,5684164,0.0-18.0-0.0-0.9,454,7,8
10,3,object_05,object_09,934.2450001,6,1,580.575,0.7777777777777778,2,object_06,1,57,0,2,7,library_16,1,memory-2step-stake-s,507,5692693,0.0-18.0-0.0-0.10,454,6,5
11,3,object_09,object_05,849.4900002,6,2,449.1000001,1.0,2,object_06,1,66,0,4,9,library_27,1,memory-2step-stake-s,508,5701304,0.0-18.0-0.0-0.11,454,5,6
12,4,object_03,object_07,1231.57,7,2,429.12,0.5555555555555556,1,object_10,5,91,0,5,7,restaurant_5,1,memory-2step-stake-s,509,5709475,0.0-18.0-0.0-0.12,454,8,7
13,3,object_05,object_09,649.7799999,5,2,464.11500010000003,0.3333333333333333,1,object_10,5,106,0,3,8,library_29,1,memory-2step-stake-s,510,5717486,0.0-18.0-0.0-0.13,454,6,5
14,3,object_09,object_05,624.0049999,6,2,431.41,1.0,2,object_06,5,151,0,4,9,library_19,1,memory-2step-stake-s,511,5726066,0.0-18.0-0.0-0.14,454,5,6
15,4,object_07,object_03,1139.96,7,1,615.615,0.7777777777777778,1,object_10,5,186,0,7,8,restaurant_12,1,memory-2step-stake-s,512,5734635,0.0-18.0-0.0-0.15,454,7,8
16,1,object_02,object_04,821.7449998,2,2,608.0799999,0.8888888888888888,2,object_06,1,194,0,6,8,desert_28,1,memory-2step-stake-s,513,5743287,0.0-18.0-0.0-0.16,454,1,2
17,2,object_08,object_01,1214.98,3,1,716.2649999,0.4444444444444444,1,object_10,1,198,0,4,8,forest_4,1,memory-2step-stake-s,514,5751638,0.0-18.0-0.0-0.17,454,3,4
18,1,object_04,object_02,1263.2,2,1,456.67,0.7777777777777778,2,object_06,5,233,0,6,7,desert_10,1,memory-2step-stake-s,515,5760037,0.0-18.0-0.0-0.18,454,2,1
19,3,object_05,object_09,1029.675,6,1,517.1750002,0.8888888888888888,2,object_06,5,273,0,3,8,library_10,1,memory-2step-stake-s,516,5768601,0.0-18.0-0.0-0.19,454,6,5
20,3,object_05,object_09,681.0099999,6,1,514.0250002,0.4444444444444444,2,object_06,5,293,0,4,4,library_21,1,memory-2step-stake-s,517,5776750,0.0-18.0-0.0-0.20,454,6,5
21,2,object_08,object_01,1017.47,4,2,613.1599999,0.7777777777777778,2,object_06,1,300,0,4,7,forest_31,1,memory-2step-stake-s,518,5785301,0.0-18.0-0.0-0.21,454,3,4
22,3,object_09,object_05,713.95,6,2,452.1649999,0.7777777777777778,2,object_06,5,335,0,6,7,library_22,1,memory-2step-stake-s,519,5793692,0.0-18.0-0.0-0.22,454,5,6
23,2,object_08,object_01,887.7949999,4,2,600.145,1.0,2,object_06,1,344,0,6,9,forest_32,1,memory-2step-stake-s,520,5802443,0.0-18.0-0.0-0.23,454,3,4
24,3,object_09,object_05,505.1849999,6,2,488.0299999,0.6666666666666666,2,object_06,5,374,0,9,6,library_19,1,memory-2step-stake-s,521,5810765,0.0-18.0-0.0-0.24,454,5,6
25,3,object_09,object_05,1309.5,5,1,494.13499979999995,0.8888888888888888,1,object_10,5,414,0,8,7,library_14,1,memory-2step-stake-s,522,5819303,0.0-18.0-0.0-0.25,454,5,6
26,4,object_07,object_03,1234.18,7,1,724.65,1.0,1,object_10,5,459,0,9,8,restaurant_12,1,memory-2step-stake-s,523,5828173,0.0-18.0-0.0-0.26,454,7,8
27,1,object_02,object_04,854.8099999,1,1,533.3799999,0.8888888888888888,1,object_10,1,467,0,8,9,desert_4,1,memory-2step-stake-s,524,5836778,0.0-18.0-0.0-0.27,454,1,2
28,4,object_03,object_07,843.595,7,2,899.68,1.0,1,object_10,1,476,0,9,5,restaurant_8,1,memory-2step-stake-s,525,5845850,0.0-18.0-0.0-0.28,454,8,7
29,2,object_01,object_08,981.1850002,3,2,441.1199999,0.8888888888888888,1,object_10,1,484,0,8,6,forest_25,1,memory-2step-stake-s,526,5854338,0.0-18.0-0.0-0.29,454,4,3
30,1,object_02,object_04,718.5500001,1,1,490.435,0.8888888888888888,1,object_10,1,492,0,8,5,desert_20,1,memory-2step-stake-s,527,5862880,0.0-18.0-0.0-0.30,454,1,2
31,3,object_09,object_05,1043.19,5,1,435.98500010000004,0.8888888888888888,1,object_10,1,500,0,8,2,library_24,1,memory-2step-stake-s,528,5871366,0.0-18.0-0.0-0.31,454,5,6
32,1,object_04,object_02,793.15,2,1,723.3399998,0.4444444444444444,2,object_06,1,504,0,6,4,desert_30,1,memory-2step-stake-s,529,5879740,0.0-18.0-0.0-0.32,454,2,1
33,1,object_02,object_04,852.9899998,1,1,643.7950002,0.7777777777777778,1,object_10,1,511,0,7,5,desert_16,1,memory-2step-stake-s,530,5888339,0.0-18.0-0.0-0.33,454,1,2
34,1,object_04,object_02,974.405,2,1,516.6249999,0.0,2,object_06,1,511,0,7,0,desert_10,1,memory-2step-stake-s,531,5896079,0.0-18.0-0.0-0.34,454,2,1
35,3,object_09,object_05,532.5549999,6,2,527.335,0.2222222222222222,2,object_06,5,521,0,5,2,library_16,1,memory-2step-stake-s,532,5904039,0.0-18.0-0.0-0.35,454,5,6
36,1,object_04,object_02,916.4549999,2,1,880.5850002000001,0.2222222222222222,2,object_06,1,523,0,5,2,desert_10,1,memory-2step-stake-s,533,5912363,0.0-18.0-0.0-0.36,454,2,1
37,1,object_02,object_04,-1.0,-1,-1,-1.0,0.0,-,,1,523,0,1,0,desert_6,1,memory-2step-stake-s,534,5918886,0.0-18.0-0.0-0.37,454,1,2
38,3,object_05,object_09,562.28,5,2,204.11499990000002,0.1111111111111111,1,object_10,1,524,0,1,1,library_13,1,memory-2step-stake-s,535,5926427,0.0-18.0-0.0-0.38,454,6,5
39,1,object_02,object_04,630.84,1,1,449.6200001,0.2222222222222222,1,object_10,5,534,0,2,0,desert_11,1,memory-2step-stake-s,536,5934318,0.0-18.0-0.0-0.39,454,1,2
40,2,object_08,object_01,527.245,4,2,493.4649998,0.2222222222222222,2,object_06,1,536,0,1,2,forest_6,1,memory-2step-stake-s,537,5942242,0.0-18.0-0.0-0.40,454,3,4
41,1,object_04,object_02,521.1149998999999,1,2,560.2000002,0.1111111111111111,1,object_10,1,537,0,1,2,desert_11,1,memory-2step-stake-s,538,5950141,0.0-18.0-0.0-0.41,454,2,1
42,4,object_07,object_03,587.355,7,1,540.855,0.3333333333333333,1,object_10,1,540,0,3,1,restaurant_13,1,memory-2step-stake-s,539,5958222,0.0-18.0-0.0-0.42,454,7,8
43,3,object_09,object_05,869.0550001,5,1,593.8549998999999,0.3333333333333333,1,object_10,5,555,0,3,4,library_8,1,memory-2step-stake-s,540,5966351,0.0-18.0-0.0-0.43,454,5,6
44,3,object_09,object_05,399.5450002,6,2,484.135,0.8888888888888888,2,object_06,5,595,0,3,8,library_13,1,memory-2step-stake-s,541,5974885,0.0-18.0-0.0-0.44,454,5,6
45,1,object_02,object_04,1329.295,2,2,687.1550002,0.7777777777777778,2,object_06,1,602,0,2,7,desert_24,1,memory-2step-stake-s,542,5983522,0.0-18.0-0.0-0.45,454,1,2
46,1,object_04,object_02,1155.745,2,1,-1.0,0.0,2,object_06,5,602,0,3,7,desert_32,1,memory-2step-stake-s,543,5992054,0.0-18.0-0.0-0.46,454,2,1
47,1,object_02,object_04,703.9999999,1,1,571.4449999,0.3333333333333333,1,object_10,1,605,0,3,8,desert_21,1,memory-2step-stake-s,544,6000159,0.0-18.0-0.0-0.47,454,1,2
48,3,object_05,object_09,618.615,6,1,534.4349998,0.6666666666666666,2,object_06,5,635,0,3,6,library_26,1,memory-2step-stake-s,545,6008526,0.0-18.0-0.0-0.48,454,6,5
49,3,object_05,object_09,711.4299999,6,1,448.935,0.5555555555555556,2,object_06,1,640,0,3,5,library_10,1,memory-2step-stake-s,546,6016711,0.0-18.0-0.0-0.49,454,6,5
50,4,object_03,object_07,817.6050002000001,7,2,583.2200001,0.3333333333333333,1,object_10,5,655,0,3,7,restaurant_29,1,memory-2step-stake-s,547,6024836,0.0-18.0-0.0-0.50,454,8,7
51,2,object_01,object_08,647.9550002000001,4,1,673.985,0.7777777777777778,2,object_06,1,662,0,3,7,forest_6,1,memory-2step-stake-s,548,6033467,0.0-18.0-0.0-0.51,454,4,3
52,4,object_07,object_03,776.2850001,7,1,588.3500001,0.4444444444444444,1,object_10,5,682,0,4,8,restaurant_8,1,memory-2step-stake-s,549,6041701,0.0-18.0-0.0-0.52,454,7,8
53,3,object_09,object_05,474.29500010000004,6,2,370.1500001,1.0,2,object_06,5,727,0,6,9,library_20,1,memory-2step-stake-s,550,6050221,0.0-18.0-0.0-0.53,454,5,6
54,3,object_05,object_09,459.91,6,1,455.74000010000003,1.0,2,object_06,5,772,0,8,9,library_8,1,memory-2step-stake-s,551,6058823,0.0-18.0-0.0-0.54,454,6,5
55,4,object_03,object_07,757.2250001,8,1,793.5600001,0.5555555555555556,2,object_06,5,797,0,8,5,restaurant_15,1,memory-2step-stake-s,552,6067352,0.0-18.0-0.0-0.55,454,8,7
56,1,object_02,object_04,821.335,1,1,658.67,0.7777777777777778,1,object_10,1,804,0,7,8,desert_3,1,memory-2step-stake-s,553,6075958,0.0-18.0-0.0-0.56,454,1,2
57,2,object_08,object_01,554.64,3,1,903.345,0.7777777777777778,1,object_10,1,811,0,7,4,forest_6,1,memory-2step-stake-s,554,6084805,0.0-18.0-0.0-0.57,454,3,4
58,1,object_02,object_04,766.205,1,1,-1.0,0.0,1,object_10,1,811,0,8,4,desert_17,1,memory-2step-stake-s,555,6093325,0.0-18.0-0.0-0.58,454,1,2
59,2,object_01,object_08,490.4450001,3,2,700.215,0.8888888888888888,1,object_10,1,819,0,8,5,forest_5,1,memory-2step-stake-s,556,6102081,0.0-18.0-0.0-0.59,454,4,3
60,2,object_08,object_01,494.3049999,3,1,450.92,0.8888888888888888,1,object_10,1,827,0,8,4,forest_11,1,memory-2step-stake-s,557,6110582,0.0-18.0-0.0-0.60,454,3,4
61,3,object_09,object_05,671.39,6,2,418.1250001,0.3333333333333333,2,object_06,5,842,0,6,3,library_29,1,memory-2step-stake-s,558,6118528,0.0-18.0-0.0-0.61,454,5,6
62,4,object_03,object_07,1065.08,7,2,710.2950001,0.2222222222222222,1,object_10,5,852,0,2,0,restaurant_31,1,memory-2step-stake-s,559,6126672,0.0-18.0-0.0-0.62,454,8,7
63,4,object_03,object_07,870.5899999,8,1,516.42,0.1111111111111111,2,object_06,5,857,0,3,1,restaurant_3,1,memory-2step-stake-s,560,6134530,0.0-18.0-0.0-0.63,454,8,7
64,1,object_04,object_02,806.02,1,2,519.385,0.4444444444444444,1,object_10,1,861,0,4,0,desert_4,1,memory-2step-stake-s,561,6142689,0.0-18.0-0.0-0.64,454,2,1
65,2,object_08,object_01,495.54,3,1,395.215,0.5555555555555556,1,object_10,5,886,0,5,3,forest_28,1,memory-2step-stake-s,562,6150827,0.0-18.0-0.0-0.65,454,3,4
66,3,object_05,object_09,544.19,6,1,346.6749999,0.4444444444444444,2,object_06,1,890,0,4,4,library_22,1,memory-2step-stake-s,563,6158818,0.0-18.0-0.0-0.66,454,6,5
67,1,object_04,object_02,747.74,1,2,446.1149999,0.3333333333333333,1,object_10,1,893,0,3,3,desert_28,1,memory-2step-stake-s,564,6166800,0.0-18.0-0.0-0.67,454,2,1
68,1,object_04,object_02,455.48,2,1,413.17000010000004,0.3333333333333333,2,object_06,1,896,0,3,3,desert_23,1,memory-2step-stake-s,565,6174751,0.0-18.0-0.0-0.68,454,2,1
69,2,object_08,object_01,900.7250001,4,2,773.6749998,0.4444444444444444,2,object_06,1,900,0,0,4,forest_4,1,memory-2step-stake-s,566,6183161,0.0-18.0-0.0-0.69,454,3,4
70,2,object_01,object_08,500.03,3,2,351.8999999,0.1111111111111111,1,object_10,5,905,0,1,4,forest_13,1,memory-2step-stake-s,567,6190842,0.0-18.0-0.0-0.70,454,4,3
71,1,object_04,object_02,653.4899998999999,2,1,365.38999989999996,0.2222222222222222,2,object_06,1,907,0,1,2,desert_4,1,memory-2step-stake-s,568,6198637,0.0-18.0-0.0-0.71,454,2,1
72,4,object_07,object_03,915.73,8,2,766.365,0.2222222222222222,2,object_06,5,917,0,0,2,restaurant_27,1,memory-2step-stake-s,569,6206842,0.0-18.0-0.0-0.72,454,7,8
73,4,object_07,object_03,449.5250001,7,1,550.175,0.0,1,object_10,5,917,0,0,0,restaurant_29,1,memory-2step-stake-s,570,6214623,0.0-18.0-0.0-0.73,454,7,8
74,2,object_08,object_01,442.6499999,3,1,453.9000001,0.3333333333333333,1,object_10,1,920,0,3,3,forest_28,1,memory-2step-stake-s,571,6222620,0.0-18.0-0.0-0.74,454,3,4
75,1,object_04,object_02,749.6249999,1,2,471.2749999,0.2222222222222222,1,object_10,5,930,0,2,3,desert_29,1,memory-2step-stake-s,572,6230533,0.0-18.0-0.0-0.75,454,2,1
76,4,object_03,object_07,671.0299999,7,2,460.28,0.5555555555555556,1,object_10,5,955,0,5,5,restaurant_13,1,memory-2step-stake-s,573,6238729,0.0-18.0-0.0-0.76,454,8,7
77,2,object_01,object_08,520.73,4,1,399.0549999,0.6666666666666666,2,object_06,1,961,0,5,6,forest_15,1,memory-2step-stake-s,574,6246987,0.0-18.0-0.0-0.77,454,4,3
78,1,object_02,object_04,615.0549999,1,1,1058.405,0.6666666666666666,1,object_10,1,967,0,6,4,desert_23,1,memory-2step-stake-s,575,6255896,0.0-18.0-0.0-0.78,454,1,2
79,2,object_01,object_08,1148.085,4,1,500.4199999,0.5555555555555556,2,object_06,1,972,0,8,5,forest_5,1,memory-2step-stake-s,576,6264137,0.0-18.0-0.0-0.79,454,4,3
80,4,object_07,object_03,746.6199999,7,1,511.3499998,0.6666666666666666,1,object_10,5,1002,0,6,6,restaurant_1,1,memory-2step-stake-s,577,6272496,0.0-18.0-0.0-0.80,454,7,8
81,4,object_03,object_07,794.7199999,8,1,418.0600001,0.5555555555555556,2,object_06,5,1027,0,4,5,restaurant_11,1,memory-2step-stake-s,578,6280655,0.0-18.0-0.0-0.81,454,8,7
82,2,object_08,object_01,1000.135,4,2,435.91,0.4444444444444444,2,object_06,5,1047,0,8,4,forest_15,1,memory-2step-stake-s,579,6288739,0.0-18.0-0.0-0.82,454,3,4
83,2,object_08,object_01,438.91,3,1,664.4949999,0.5555555555555556,1,object_10,5,1072,0,5,3,forest_9,1,memory-2step-stake-s,580,6297137,0.0-18.0-0.0-0.83,454,3,4
84,1,object_04,object_02,473.9399999,1,2,392.56999989999997,0.5555555555555556,1,object_10,1,1077,0,5,2,desert_30,1,memory-2step-stake-s,581,6305287,0.0-18.0-0.0-0.84,454,2,1
85,4,object_07,object_03,516.79,7,1,400.5700001,0.7777777777777778,1,object_10,5,1112,0,7,2,restaurant_13,1,memory-2step-stake-s,582,6313629,0.0-18.0-0.0-0.85,454,7,8
86,1,object_04,object_02,779.195,2,1,618.765,0.2222222222222222,2,object_06,1,1114,0,9,2,desert_3,1,memory-2step-stake-s,583,6321672,0.0-18.0-0.0-0.86,454,2,1
87,1,object_02,object_04,756.415,2,2,465.63,0.3333333333333333,2,object_06,1,1117,0,9,3,desert_20,1,memory-2step-stake-s,584,6329684,0.0-18.0-0.0-0.87,454,1,2
88,2,object_01,object_08,803.18,4,1,411.145,0.4444444444444444,2,object_06,1,1121,0,7,4,forest_13,1,memory-2step-stake-s,585,6337746,0.0-18.0-0.0-0.88,454,4,3
89,1,object_04,object_02,668.05,2,1,385.36,0.4444444444444444,2,object_06,1,1125,0,7,4,desert_1,1,memory-2step-stake-s,586,6345758,0.0-18.0-0.0-0.89,454,2,1
90,1,object_02,object_04,572.8,2,2,450.3049999,0.4444444444444444,2,object_06,1,1129,0,7,4,desert_20,1,memory-2step-stake-s,587,6353854,0.0-18.0-0.0-0.90,454,1,2
91,1,object_04,object_02,485.0399999,2,1,488.61000010000004,0.5555555555555556,2,object_06,1,1134,0,4,5,desert_24,1,memory-2step-stake-s,588,6362092,0.0-18.0-0.0-0.91,454,2,1
92,3,object_09,object_05,924.2800002,6,2,1328.485,0.7777777777777778,2,object_06,5,1169,0,5,7,library_27,1,memory-2step-stake-s,589,6371373,0.0-18.0-0.0-0.92,454,5,6
93,4,object_07,object_03,500.1400001,7,1,489.3099999,0.7777777777777778,1,object_10,1,1176,0,7,7,restaurant_27,1,memory-2step-stake-s,590,6379813,0.0-18.0-0.0-0.93,454,7,8
94,3,object_09,object_05,709.12,6,2,406.2400002,0.6666666666666666,2,object_06,1,1182,0,8,6,library_16,1,memory-2step-stake-s,591,6388072,0.0-18.0-0.0-0.94,454,5,6
95,3,object_09,object_05,1102.955,5,1,768.9199999,0.8888888888888888,1,object_10,1,1190,0,8,7,library_18,1,memory-2step-stake-s,592,6396906,0.0-18.0-0.0-0.95,454,5,6
96,4,object_07,object_03,496.83499989999996,7,1,834.3750001,0.7777777777777778,1,object_10,5,1225,0,7,8,restaurant_27,1,memory-2step-stake-s,593,6405701,0.0-18.0-0.0-0.96,454,7,8
97,3,object_05,object_09,902.7850002,6,1,14.35499988,0.8888888888888888,2,object_06,5,1265,0,7,8,library_24,1,memory-2step-stake-s,594,6413767,0.0-18.0-0.0-0.97,454,6,5
98,2,object_08,object_01,937.5149999,4,2,530.7499999,0.8888888888888888,2,object_06,5,1305,0,6,8,forest_19,1,memory-2step-stake-s,595,6422357,0.0-18.0-0.0-0.98,454,3,4
99,2,object_08,object_01,542.8599998999999,3,1,427.87,0.5555555555555556,1,object_10,5,1330,0,5,8,forest_27,1,memory-2step-stake-s,596,6430517,0.0-18.0-0.0-0.99,454,3,4
100,4,object_07,object_03,704.0599999,8,2,416.3500001,0.7777777777777778,2,object_06,1,1337,0,5,7,restaurant_8,1,memory-2step-stake-s,597,6438886,0.0-18.0-0.0-0.100,454,7,8
101,2,object_08,object_01,465.7349999,3,1,366.64499989999996,0.5555555555555556,1,object_10,1,1342,0,5,8,forest_24,1,memory-2step-stake-s,598,6447001,0.0-18.0-0.0-0.101,454,3,4
102,1,object_04,object_02,798.9000001,1,2,993.8700001,0.7777777777777778,1,object_10,1,1349,0,7,8,desert_11,1,memory-2step-stake-s,599,6455953,0.0-18.0-0.0-0.102,454,2,1
103,4,object_07,object_03,794.9049999,8,2,430.5050001,0.8888888888888888,2,object_06,1,1357,0,6,8,restaurant_11,1,memory-2step-stake-s,600,6464444,0.0-18.0-0.0-0.103,454,7,8
104,1,object_02,object_04,684.4300001,1,1,498.8549999,0.3333333333333333,1,object_10,1,1360,0,3,7,desert_6,1,memory-2step-stake-s,601,6472472,0.0-18.0-0.0-0.104,454,1,2
105,1,object_04,object_02,818.8049998,1,2,574.36,0.3333333333333333,1,object_10,1,1363,0,3,6,desert_21,1,memory-2step-stake-s,602,6480581,0.0-18.0-0.0-0.105,454,2,1
106,1,object_04,object_02,455.5949999,2,1,684.75,0.6666666666666666,2,object_06,5,1393,0,1,6,desert_11,1,memory-2step-stake-s,603,6489116,0.0-18.0-0.0-0.106,454,2,1
107,1,object_02,object_04,658.975,1,1,445.05,0.0,1,object_10,1,1393,0,0,8,desert_3,1,memory-2step-stake-s,604,6496789,0.0-18.0-0.0-0.107,454,1,2
108,4,object_03,object_07,1122.12,8,1,729.5349999,1.0,2,object_06,5,1438,0,5,9,restaurant_14,1,memory-2step-stake-s,605,6505684,0.0-18.0-0.0-0.108,454,8,7
109,2,object_08,object_01,505.875,3,1,350.2249999,0.5555555555555556,1,object_10,1,1443,0,5,9,forest_19,1,memory-2step-stake-s,606,6513779,0.0-18.0-0.0-0.109,454,3,4
110,2,object_08,object_01,791.9049999,3,1,415.265,0.7777777777777778,1,object_10,1,1450,0,7,7,forest_9,1,memory-2step-stake-s,607,6522145,0.0-18.0-0.0-0.110,454,3,4
111,4,object_03,object_07,697.5099999,7,2,365.71,0.8888888888888888,1,object_10,5,1490,0,8,4,restaurant_11,1,memory-2step-stake-s,608,6530565,0.0-18.0-0.0-0.111,454,8,7
112,4,object_07,object_03,725.7600001000001,7,1,406.52,0.8888888888888888,1,object_10,5,1530,0,8,4,restaurant_1,1,memory-2step-stake-s,609,6539035,0.0-18.0-0.0-0.112,454,7,8
113,3,object_05,object_09,944.4500001,6,1,420.805,0.4444444444444444,2,object_06,5,1550,0,7,4,library_29,1,memory-2step-stake-s,610,6547109,0.0-18.0-0.0-0.113,454,6,5
114,3,object_09,object_05,792.775,5,1,424.95499989999996,0.4444444444444444,1,object_10,5,1570,0,4,1,library_20,1,memory-2step-stake-s,611,6555171,0.0-18.0-0.0-0.114,454,5,6
115,1,object_04,object_02,550.6549999,2,1,415.9550001,0.1111111111111111,2,object_06,1,1571,0,3,1,desert_17,1,memory-2step-stake-s,612,6562933,0.0-18.0-0.0-0.115,454,2,1
116,2,object_01,object_08,624.8999999,3,2,746.7149999,0.3333333333333333,1,object_10,1,1574,0,3,1,forest_25,1,memory-2step-stake-s,613,6571223,0.0-18.0-0.0-0.116,454,4,3
117,2,object_01,object_08,501.6900001,3,2,646.005,0.3333333333333333,1,object_10,1,1577,0,3,2,forest_32,1,memory-2step-stake-s,614,6579411,0.0-18.0-0.0-0.117,454,4,3
118,1,object_04,object_02,586.4000001,1,2,416.065,1.0,1,object_10,5,1622,0,9,3,desert_17,1,memory-2step-stake-s,615,6587981,0.0-18.0-0.0-0.118,454,2,1
119,1,object_02,object_04,482.83499989999996,1,1,457.005,0.8888888888888888,1,object_10,1,1630,0,8,1,desert_30,1,memory-2step-stake-s,616,6596482,0.0-18.0-0.0-0.119,454,1,2
120,3,object_05,object_09,845.765,5,2,453.9600001,0.5555555555555556,1,object_10,5,1655,0,5,1,library_24,1,memory-2step-stake-s,617,6604699,0.0-18.0-0.0-0.120,454,6,5
121,2,object_08,object_01,764.1,4,2,439.915,0.4444444444444444,2,object_06,1,1659,0,3,4,forest_28,1,memory-2step-stake-s,618,6612768,0.0-18.0-0.0-0.121,454,3,4
122,4,object_03,object_07,844.4000001,8,1,402.975,0.3333333333333333,2,object_06,5,1674,0,1,3,restaurant_10,1,memory-2step-stake-s,619,6620713,0.0-18.0-0.0-0.122,454,8,7
123,3,object_09,object_05,700.9699999,5,1,335.5599998,0.2222222222222222,1,object_10,5,1684,0,2,4,library_26,1,memory-2step-stake-s,620,6628484,0.0-18.0-0.0-0.123,454,5,6
124,2,object_08,object_01,730.8449999,4,2,365.5150002,0.4444444444444444,2,object_06,1,1688,0,0,4,forest_6,1,memory-2step-stake-s,621,6636496,0.0-18.0-0.0-0.124,454,3,4
125,4,object_03,object_07,692.18,8,1,729.885,0.6666666666666666,2,object_06,5,1718,0,4,6,restaurant_32,1,memory-2step-stake-s,622,6645082,0.0-18.0-0.0-0.125,454,8,7
126,2,object_08,object_01,544.6949999,3,1,463.275,0.2222222222222222,1,object_10,1,1720,0,2,4,forest_5,1,memory-2step-stake-s,623,6652976,0.0-18.0-0.0-0.126,454,3,4
127,3,object_05,object_09,922.06,6,1,426.32999989999996,0.6666666666666666,2,object_06,5,1750,0,4,6,library_20,1,memory-2step-stake-s,624,6661243,0.0-18.0-0.0-0.127,454,6,5
128,1,object_02,object_04,1057.39,1,1,890.4249999,0.6666666666666666,1,object_10,1,1756,0,6,2,desert_29,1,memory-2step-stake-s,626,6672284,0.0-18.0-0.1-0.128,454,1,2
129,1,object_02,object_04,577.915,2,2,820.7450002,0.3333333333333333,2,object_06,1,1759,0,4,3,desert_24,1,memory-2step-stake-s,627,6680657,0.0-18.0-0.1-0.129,454,1,2
130,1,object_04,object_02,782.7000001,2,1,442.2899999,0.1111111111111111,2,object_06,1,1760,0,7,1,desert_1,1,memory-2step-stake-s,628,6688432,0.0-18.0-0.1-0.130,454,2,1
131,1,object_02,object_04,930.3600001,2,2,394.4299999,0.3333333333333333,2,object_06,1,1763,0,7,3,desert_1,1,memory-2step-stake-s,629,6696368,0.0-18.0-0.1-0.131,454,1,2
132,4,object_07,object_03,553.7149999,7,1,561.765,0.7777777777777778,1,object_10,5,1798,0,7,4,restaurant_5,1,memory-2step-stake-s,630,6704880,0.0-18.0-0.1-0.132,454,7,8
133,3,object_09,object_05,-1.0,-1,-1,-1.0,0.0,-,,5,1798,0,9,8,library_8,1,memory-2step-stake-s,631,6711404,0.0-18.0-0.1-0.133,454,5,6
134,3,object_09,object_05,559.9399998,5,1,-1.0,0.0,1,object_10,5,1798,0,7,6,library_21,1,memory-2step-stake-s,632,6719934,0.0-18.0-0.1-0.134,454,5,6
135,2,object_01,object_08,746.4999999,3,2,414.595,0.7777777777777778,1,object_10,1,1805,0,7,7,forest_22,1,memory-2step-stake-s,633,6728301,0.0-18.0-0.1-0.135,454,4,3
136,4,object_07,object_03,523.3499999,7,1,383.2650001,0.8888888888888888,1,object_10,5,1845,0,8,7,restaurant_4,1,memory-2step-stake-s,634,6736741,0.0-18.0-0.1-0.136,454,7,8
137,1,object_04,object_02,430.30000010000003,2,1,443.03,0.6666666666666666,2,object_06,1,1851,0,7,6,desert_28,1,memory-2step-stake-s,635,6745028,0.0-18.0-0.1-0.137,454,2,1
138,4,object_07,object_03,702.0,8,2,423.245,0.5555555555555556,2,object_06,5,1876,0,6,5,restaurant_32,1,memory-2step-stake-s,636,6753204,0.0-18.0-0.1-0.138,454,7,8
139,4,object_07,object_03,418.98000010000004,7,1,422.32500020000003,0.3333333333333333,1,object_10,5,1891,0,3,6,restaurant_8,1,memory-2step-stake-s,637,6761169,0.0-18.0-0.1-0.139,454,7,8
140,4,object_07,object_03,785.9,8,2,361.02999980000004,0.5555555555555556,2,object_06,5,1916,0,3,5,restaurant_12,1,memory-2step-stake-s,638,6769276,0.0-18.0-0.1-0.140,454,7,8
141,3,object_05,object_09,683.5399999,6,1,367.605,0.5555555555555556,2,object_06,5,1941,0,1,5,library_10,1,memory-2step-stake-s,639,6777385,0.0-18.0-0.1-0.141,454,6,5
142,2,object_08,object_01,535.2699999,3,1,517.2049999,0.3333333333333333,1,object_10,1,1944,0,3,5,forest_25,1,memory-2step-stake-s,640,6785425,0.0-18.0-0.1-0.142,454,3,4
143,4,object_03,object_07,693.4450001,8,1,368.095,0.8888888888888888,2,object_06,5,1984,0,0,8,restaurant_10,1,memory-2step-stake-s,641,6793856,0.0-18.0-0.1-0.143,454,8,7
144,1,object_04,object_02,744.0499999,1,2,301.2550001,0.3333333333333333,1,object_10,1,1987,0,3,8,desert_30,1,memory-2step-stake-s,642,6801696,0.0-18.0-0.1-0.144,454,2,1
145,2,object_01,object_08,830.1000001,4,1,811.0450001,0.6666666666666666,2,object_06,5,2017,0,3,6,forest_22,1,memory-2step-stake-s,643,6810359,0.0-18.0-0.1-0.145,454,4,3
146,4,object_03,object_07,663.6349999,8,1,411.47999980000003,0.7777777777777778,2,object_06,5,2052,0,3,7,restaurant_15,1,memory-2step-stake-s,644,6818726,0.0-18.0-0.1-0.146,454,8,7
147,3,object_09,object_05,934.0949999,6,2,405.46,0.4444444444444444,2,object_06,5,2072,0,4,4,library_21,1,memory-2step-stake-s,645,6826771,0.0-18.0-0.1-0.147,454,5,6
148,3,object_05,object_09,798.5,5,2,337.80500010000003,0.2222222222222222,1,object_10,5,2082,0,2,0,library_29,1,memory-2step-stake-s,646,6834541,0.0-18.0-0.1-0.148,454,6,5
149,1,object_04,object_02,621.8350001,1,2,536.8850001000001,0.2222222222222222,1,object_10,1,2084,0,2,0,desert_32,1,memory-2step-stake-s,647,6842506,0.0-18.0-0.1-0.149,454,2,1
150,3,object_09,object_05,823.2399998,6,2,382.8399999,0.3333333333333333,2,object_06,5,2099,0,1,3,library_7,1,memory-2step-stake-s,648,6850433,0.0-18.0-0.1-0.150,454,5,6
151,2,object_08,object_01,712.9549999,4,2,422.7499999,0.3333333333333333,2,object_06,1,2102,0,1,3,forest_4,1,memory-2step-stake-s,649,6858412,0.0-18.0-0.1-0.151,454,3,4
152,3,object_09,object_05,539.755,5,1,532.5800001,0.1111111111111111,1,object_10,5,2107,0,1,1,library_20,1,memory-2step-stake-s,650,6866280,0.0-18.0-0.1-0.152,454,5,6
153,2,object_01,object_08,744.6900001,3,2,341.8999999,0.3333333333333333,1,object_10,1,2110,0,3,4,forest_25,1,memory-2step-stake-s,651,6874168,0.0-18.0-0.1-0.153,454,4,3
154,3,object_05,object_09,940.7300001,5,2,505.32,0.7777777777777778,1,object_10,5,2145,0,7,2,library_26,1,memory-2step-stake-s,652,6882620,0.0-18.0-0.1-0.154,454,6,5
155,1,object_04,object_02,440.8,2,1,351.5849998,0.2222222222222222,2,object_06,1,2147,0,5,2,desert_17,1,memory-2step-stake-s,653,6890399,0.0-18.0-0.1-0.155,454,2,1
156,2,object_01,object_08,555.8449998,4,1,397.7050001,0.6666666666666666,2,object_06,1,2153,0,4,6,forest_27,1,memory-2step-stake-s,654,6898643,0.0-18.0-0.1-0.156,454,4,3
157,3,object_09,object_05,747.86,6,2,484.98,0.1111111111111111,2,object_06,5,2158,0,5,1,library_14,1,memory-2step-stake-s,655,6906457,0.0-18.0-0.1-0.157,454,5,6
158,2,object_01,object_08,623.13,4,1,342.5449999,0.0,2,object_06,1,2158,0,7,0,forest_24,1,memory-2step-stake-s,656,6914031,0.0-18.0-0.1-0.158,454,4,3
159,3,object_05,object_09,758.14,5,2,374.0000001,0.2222222222222222,1,object_10,5,2168,0,2,1,library_27,1,memory-2step-stake-s,657,6921844,0.0-18.0-0.1-0.159,454,6,5
160,1,object_04,object_02,524.0900002000001,1,2,466.8949998,0.3333333333333333,1,object_10,1,2171,0,3,3,desert_28,1,memory-2step-stake-s,658,6929844,0.0-18.0-0.1-0.160,454,2,1
161,2,object_08,object_01,673.1750001,4,2,345.5100001,0.4444444444444444,2,object_06,5,2191,0,3,4,forest_22,1,memory-2step-stake-s,659,6937843,0.0-18.0-0.1-0.161,454,3,4
162,4,object_03,object_07,605.455,7,2,640.9450001,0.2222222222222222,1,object_10,5,2201,0,2,6,restaurant_11,1,memory-2step-stake-s,660,6945915,0.0-18.0-0.1-0.162,454,8,7
163,3,object_09,object_05,742.7149999,6,2,383.20999989999996,0.7777777777777778,2,object_06,5,2236,0,1,7,library_21,1,memory-2step-stake-s,661,6954249,0.0-18.0-0.1-0.163,454,5,6
164,3,object_05,object_09,869.985,6,1,366.54000010000004,0.8888888888888888,2,object_06,5,2276,0,1,8,library_7,1,memory-2step-stake-s,662,6962673,0.0-18.0-0.1-0.164,454,6,5
165,3,object_09,object_05,495.76999989999996,6,2,578.1950001,0.6666666666666666,2,object_06,5,2306,0,1,6,library_16,1,memory-2step-stake-s,663,6971098,0.0-18.0-0.1-0.165,454,5,6
166,2,object_01,object_08,712.4400001,3,2,560.935,0.1111111111111111,1,object_10,1,2307,0,1,5,forest_32,1,memory-2step-stake-s,664,6978988,0.0-18.0-0.1-0.166,454,4,3
167,3,object_09,object_05,512.7650001000001,6,2,1469.135,0.5555555555555556,2,object_06,5,2332,0,1,5,library_22,1,memory-2step-stake-s,665,6988201,0.0-18.0-0.1-0.167,454,5,6
168,3,object_05,object_09,872.215,5,2,341.97,0.1111111111111111,1,object_10,5,2337,0,1,6,library_14,1,memory-2step-stake-s,666,6995878,0.0-18.0-0.1-0.168,454,6,5
169,3,object_09,object_05,553.3100001,6,2,428.815,0.8888888888888888,2,object_06,5,2377,0,4,8,library_10,1,memory-2step-stake-s,667,7004370,0.0-18.0-0.1-0.169,454,5,6
170,4,object_07,object_03,568.2899999,7,1,387.195,0.4444444444444444,1,object_10,1,2381,0,4,8,restaurant_31,1,memory-2step-stake-s,668,7012394,0.0-18.0-0.1-0.170,454,7,8
171,2,object_08,object_01,451.725,3,1,345.13,0.1111111111111111,1,object_10,1,2382,0,1,8,forest_13,1,memory-2step-stake-s,669,7020069,0.0-18.0-0.1-0.171,454,3,4
172,3,object_09,object_05,490.31499979999995,6,2,394.49000010000003,0.6666666666666666,2,object_06,5,2412,0,2,6,library_7,1,memory-2step-stake-s,670,7028311,0.0-18.0-0.1-0.172,454,5,6
173,2,object_08,object_01,478.7000001,3,1,428.1299999,0.1111111111111111,1,object_10,1,2413,0,1,5,forest_4,1,memory-2step-stake-s,671,7036069,0.0-18.0-0.1-0.173,454,3,4
174,2,object_08,object_01,501.495,3,1,459.98499979999997,0.0,1,object_10,1,2413,0,0,2,forest_15,1,memory-2step-stake-s,672,7043758,0.0-18.0-0.1-0.174,454,3,4
175,2,object_01,object_08,718.7300001,3,2,591.73,0.1111111111111111,1,object_10,1,2414,0,1,1,forest_5,1,memory-2step-stake-s,673,7051686,0.0-18.0-0.1-0.175,454,4,3
176,2,object_08,object_01,724.4149997999999,4,2,368.215,0.1111111111111111,2,object_06,5,2419,0,4,1,forest_1,1,memory-2step-stake-s,674,7059387,0.0-18.0-0.1-0.176,454,3,4
177,1,object_02,object_04,488.1200001,2,2,339.17500010000003,0.3333333333333333,2,object_06,1,2422,0,5,3,desert_6,1,memory-2step-stake-s,675,7067265,0.0-18.0-0.1-0.177,454,1,2
178,3,object_05,object_09,799.75,5,2,370.075,0.7777777777777778,1,object_10,5,2457,0,7,0,library_14,1,memory-2step-stake-s,676,7075587,0.0-18.0-0.1-0.178,454,6,5
179,4,object_07,object_03,1099.175,7,1,370.7000001,0.7777777777777778,1,object_10,5,2492,0,7,1,restaurant_3,1,memory-2step-stake-s,677,7083912,0.0-18.0-0.1-0.179,454,7,8
180,4,object_07,object_03,543.5549999,7,1,339.3849998,0.8888888888888888,1,object_10,5,2532,0,8,0,restaurant_18,1,memory-2step-stake-s,678,7092316,0.0-18.0-0.1-0.180,454,7,8
181,2,object_01,object_08,571.8799999,4,1,387.5449998,0.1111111111111111,2,object_06,1,2533,0,9,1,forest_19,1,memory-2step-stake-s,679,7100035,0.0-18.0-0.1-0.181,454,4,3
182,1,object_04,object_02,442.6,2,1,389.65499980000004,0.1111111111111111,2,object_06,1,2534,0,8,1,desert_16,1,memory-2step-stake-s,680,7107760,0.0-18.0-0.1-0.182,454,2,1
183,1,object_04,object_02,461.32,2,1,571.3599998999999,0.2222222222222222,2,object_06,1,2536,0,9,2,desert_4,1,memory-2step-stake-s,681,7115763,0.0-18.0-0.1-0.183,454,2,1
184,2,object_08,object_01,645.4350001,3,1,742.9299999,0.8888888888888888,1,object_10,1,2544,0,8,2,forest_24,1,memory-2step-stake-s,682,7124558,0.0-18.0-0.1-0.184,454,3,4
185,3,object_09,object_05,703.945,5,1,584.675,0.8888888888888888,1,object_10,5,2584,0,8,2,library_7,1,memory-2step-stake-s,683,7133214,0.0-18.0-0.1-0.185,454,5,6
186,2,object_01,object_08,613.4000001,3,2,352.9099999,0.8888888888888888,1,object_10,5,2624,0,8,1,forest_1,1,memory-2step-stake-s,684,7141630,0.0-18.0-0.1-0.186,454,4,3
187,1,object_02,object_04,715.9200001,2,2,446.12,0.1111111111111111,2,object_06,1,2625,0,9,1,desert_21,1,memory-2step-stake-s,685,7149407,0.0-18.0-0.1-0.187,454,1,2
188,2,object_01,object_08,587.7749999,4,1,389.5100001,0.1111111111111111,2,object_06,1,2626,0,8,1,forest_13,1,memory-2step-stake-s,686,7157137,0.0-18.0-0.1-0.188,454,4,3
189,3,object_05,object_09,750.7450001,5,2,410.005,1.0,1,object_10,5,2671,0,9,0,library_19,1,memory-2step-stake-s,687,7165706,0.0-18.0-0.1-0.189,454,6,5
190,1,object_04,object_02,517.68,2,1,490.79500020000006,0.1111111111111111,2,object_06,1,2672,0,8,1,desert_32,1,memory-2step-stake-s,688,7173538,0.0-18.0-0.1-0.190,454,2,1
191,3,object_09,object_05,1027.345,5,1,523.0349997999999,0.8888888888888888,1,object_10,5,2712,0,8,1,library_26,1,memory-2step-stake-s,689,7182115,0.0-18.0-0.1-0.191,454,5,6
192,2,object_01,object_08,573.0649999,4,1,469.7100001,0.2222222222222222,2,object_06,1,2714,0,6,2,forest_31,1,memory-2step-stake-s,690,7190029,0.0-18.0-0.1-0.192,454,4,3
193,1,object_02,object_04,768.9399999,1,1,513.425,0.5555555555555556,1,object_10,5,2739,0,5,1,desert_23,1,memory-2step-stake-s,691,7198287,0.0-18.0-0.1-0.193,454,1,2
194,1,object_02,object_04,812.805,2,2,1334.435,0.1111111111111111,2,object_06,1,2740,0,3,1,desert_3,1,memory-2step-stake-s,692,7206957,0.0-18.0-0.1-0.194,454,1,2
195,2,object_08,object_01,594.4450002,4,2,390.8850001,0.2222222222222222,2,object_06,1,2742,0,6,2,forest_9,1,memory-2step-stake-s,693,7214787,0.0-18.0-0.1-0.195,454,3,4
196,2,object_08,object_01,606.285,3,1,1013.47,0.3333333333333333,1,object_10,5,2757,0,3,3,forest_32,1,memory-2step-stake-s,694,7223339,0.0-18.0-0.1-0.196,454,3,4
197,4,object_03,object_07,725.9450001,8,1,393.86,0.2222222222222222,2,object_06,5,2767,0,2,2,restaurant_4,1,memory-2step-stake-s,695,7231175,0.0-18.0-0.1-0.197,454,8,7
198,4,object_07,object_03,813.0050001,8,2,387.23,0.1111111111111111,2,object_06,1,2768,0,4,1,restaurant_10,1,memory-2step-stake-s,696,7238894,0.0-18.0-0.1-0.198,454,7,8
199,3,object_09,object_05,582.5800002000001,5,1,338.7200001,0.3333333333333333,1,object_10,5,2783,0,3,1,library_1,1,memory-2step-stake-s,697,7246778,0.0-18.0-0.1-0.199,454,5,6
200,1,object_04,object_02,744.0599999,1,2,340.7700001,0.0,1,object_10,5,2783,0,0,1,desert_1,1,memory-2step-stake-s,698,7254345,0.0-18.0-0.1-0.200,454,2,1
201,3,object_05,object_09,1036.245,6,1,465.7999999,0.0,2,object_06,5,2783,0,1,0,library_1,1,memory-2step-stake-s,699,7262044,0.0-18.0-0.1-0.201,454,6,5
202,1,object_04,object_02,487.0,2,1,399.31999989999997,0.0,2,object_06,1,2783,0,3,0,desert_29,1,memory-2step-stake-s,700,7269669,0.0-18.0-0.1-0.202,454,2,1
203,3,object_05,object_09,917.135,5,2,390.9850002,0.3333333333333333,1,object_10,5,2798,0,3,2,library_13,1,memory-2step-stake-s,701,7277596,0.0-18.0-0.1-0.203,454,6,5
204,3,object_05,object_09,559.2700001000001,5,2,361.7149999,0.3333333333333333,1,object_10,5,2813,0,3,2,library_18,1,memory-2step-stake-s,702,7285506,0.0-18.0-0.1-0.204,454,6,5
205,1,object_02,object_04,705.4699999,1,1,410.7850001,0.1111111111111111,1,object_10,5,2818,0,1,0,desert_29,1,memory-2step-stake-s,703,7293251,0.0-18.0-0.1-0.205,454,1,2
206,2,object_01,object_08,940.5,4,1,388.91,0.1111111111111111,2,object_06,1,2819,0,0,1,forest_11,1,memory-2step-stake-s,704,7300978,0.0-18.0-0.1-0.206,454,4,3
207,1,object_02,object_04,503.2549999,2,2,324.95999989999996,0.3333333333333333,2,object_06,5,2834,0,3,3,desert_16,1,memory-2step-stake-s,705,7308840,0.0-18.0-0.1-0.207,454,1,2
208,4,object_07,object_03,521.3200001,7,1,428.3400001,0.1111111111111111,1,object_10,1,2835,0,1,1,restaurant_14,1,memory-2step-stake-s,706,7316604,0.0-18.0-0.1-0.208,454,7,8
209,4,object_03,object_07,691.51,8,1,410.1549999,0.4444444444444444,2,object_06,5,2855,0,0,4,restaurant_4,1,memory-2step-stake-s,707,7324662,0.0-18.0-0.1-0.209,454,8,7
210,4,object_07,object_03,579.69,8,2,393.775,0.2222222222222222,2,object_06,5,2865,0,1,2,restaurant_31,1,memory-2step-stake-s,708,7332492,0.0-18.0-0.1-0.210,454,7,8
211,4,object_03,object_07,711.805,8,1,397.835,0.3333333333333333,2,object_06,5,2880,0,1,3,restaurant_10,1,memory-2step-stake-s,709,7340428,0.0-18.0-0.1-0.211,454,8,7
212,4,object_07,object_03,555.25,7,1,461.2450001,0.0,1,object_10,1,2880,0,0,1,restaurant_27,1,memory-2step-stake-s,710,7348117,0.0-18.0-0.1-0.212,454,7,8
213,2,object_08,object_01,459.80000010000003,3,1,892.405,0.2222222222222222,1,object_10,1,2882,0,2,4,forest_15,1,memory-2step-stake-s,711,7356445,0.0-18.0-0.1-0.213,454,3,4
214,3,object_09,object_05,592.9050001,5,1,510.2500001,0.1111111111111111,1,object_10,5,2887,0,1,3,library_13,1,memory-2step-stake-s,712,7364281,0.0-18.0-0.1-0.214,454,5,6
215,3,object_05,object_09,763.945,6,1,391.80000010000003,0.4444444444444444,2,object_06,5,2907,0,3,4,library_18,1,memory-2step-stake-s,713,7372320,0.0-18.0-0.1-0.215,454,6,5
216,4,object_07,object_03,527.1950001,8,2,382.1150002,0.2222222222222222,2,object_06,5,2917,0,2,2,restaurant_29,1,memory-2step-stake-s,714,7380128,0.0-18.0-0.1-0.216,454,7,8
217,1,object_04,object_02,453.915,2,1,323.5599999,0.1111111111111111,2,object_06,1,2918,0,2,1,desert_20,1,memory-2step-stake-s,715,7387779,0.0-18.0-0.1-0.217,454,2,1
218,3,object_09,object_05,623.0899999,5,1,417.17,0.0,1,object_10,5,2918,0,0,1,library_27,1,memory-2step-stake-s,716,7395430,0.0-18.0-0.1-0.218,454,5,6
219,1,object_02,object_04,590.6,1,1,404.2150001,0.1111111111111111,1,object_10,1,2919,0,1,1,desert_23,1,memory-2step-stake-s,717,7403173,0.0-18.0-0.1-0.219,454,1,2
220,2,object_01,object_08,661.9500001,4,1,436.7500001,0.2222222222222222,2,object_06,1,2921,0,0,2,forest_27,1,memory-2step-stake-s,718,7411055,0.0-18.0-0.1-0.220,454,4,3
221,1,object_02,object_04,1055.795,1,1,643.435,0.2222222222222222,1,object_10,1,2923,0,2,2,desert_32,1,memory-2step-stake-s,719,7419145,0.0-18.0-0.1-0.221,454,1,2
222,2,object_01,object_08,608.64,4,1,362.8699998,0.3333333333333333,2,object_06,5,2938,0,0,3,forest_11,1,memory-2step-stake-s,720,7427055,0.0-18.0-0.1-0.222,454,4,3
223,3,object_05,object_09,591.9300001,6,1,506.86500010000003,0.5555555555555556,2,object_06,1,2943,0,2,5,library_19,1,memory-2step-stake-s,721,7435310,0.0-18.0-0.1-0.223,454,6,5
224,2,object_01,object_08,625.095,3,2,677.985,0.2222222222222222,1,object_10,1,2945,0,2,3,forest_9,1,memory-2step-stake-s,722,7443423,0.0-18.0-0.1-0.224,454,4,3
225,4,object_07,object_03,777.0799999,8,2,418.5349999,0.3333333333333333,2,object_06,5,2960,0,0,3,restaurant_4,1,memory-2step-stake-s,723,7451388,0.0-18.0-0.1-0.225,454,7,8
226,4,object_03,object_07,717.3349999,8,1,452.295,0.0,2,object_06,5,2960,0,1,0,restaurant_18,1,memory-2step-stake-s,724,7459072,0.0-18.0-0.1-0.226,454,8,7
227,3,object_09,object_05,351.2050002,5,1,345.825,0.2222222222222222,1,object_10,5,2970,0,2,1,library_1,1,memory-2step-stake-s,725,7466865,0.0-18.0-0.1-0.227,454,5,6
228,4,object_03,object_07,350.145,8,1,-1.0,0.0,2,object_06,1,2970,0,3,3,restaurant_32,1,memory-2step-stake-s,726,7475393,0.0-18.0-0.1-0.228,454,8,7
229,4,object_03,object_07,634.9549999,8,1,396.5499999,0.0,2,object_06,5,2970,0,3,0,restaurant_1,1,memory-2step-stake-s,727,7483013,0.0-18.0-0.1-0.229,454,8,7
230,4,object_03,object_07,458.29,8,1,413.8800001,0.1111111111111111,2,object_06,1,2971,0,4,1,restaurant_5,1,memory-2step-stake-s,728,7490762,0.0-18.0-0.1-0.230,454,8,7
231,4,object_03,object_07,521.98,7,2,810.8050001,0.0,1,object_10,5,2971,0,0,1,restaurant_14,1,memory-2step-stake-s,729,7498800,0.0-18.0-0.1-0.231,454,8,7
232,2,object_01,object_08,542.4250001,3,2,374.3749999,0.1111111111111111,1,object_10,1,2972,0,1,2,forest_27,1,memory-2step-stake-s,730,7506509,0.0-18.0-0.1-0.232,454,4,3
233,2,object_08,object_01,724.7700002,4,2,425.01499989999996,0.7777777777777778,2,object_06,1,2979,0,3,7,forest_1,1,memory-2step-stake-s,731,7514900,0.0-18.0-0.1-0.233,454,3,4
234,4,object_03,object_07,807.0499999,8,1,447.685,1.0,2,object_06,5,3024,0,6,9,restaurant_14,1,memory-2step-stake-s,732,7523517,0.0-18.0-0.1-0.234,454,8,7
235,4,object_03,object_07,585.925,8,1,383.2050001,1.0,2,object_06,5,3069,0,5,9,restaurant_32,1,memory-2step-stake-s,733,7532057,0.0-18.0-0.1-0.235,454,8,7
236,2,object_08,object_01,601.8650001,4,2,388.7799999,0.8888888888888888,2,object_06,5,3109,0,3,8,forest_1,1,memory-2step-stake-s,734,7540495,0.0-18.0-0.1-0.236,454,3,4
237,1,object_04,object_02,664.5599999,1,2,474.015,0.2222222222222222,1,object_10,1,3111,0,2,8,desert_10,1,memory-2step-stake-s,735,7548407,0.0-18.0-0.1-0.237,454,2,1
238,1,object_04,object_02,605.065,1,2,512.3049999,0.3333333333333333,1,object_10,1,3114,0,3,7,desert_6,1,memory-2step-stake-s,736,7556463,0.0-18.0-0.1-0.238,454,2,1
239,4,object_03,object_07,510.38499989999997,7,2,491.005,0.6666666666666666,1,object_10,1,3120,0,6,7,restaurant_12,1,memory-2step-stake-s,737,7564801,0.0-18.0-0.1-0.239,454,8,7
240,2,object_08,object_01,758.6999999,4,2,357.175,0.8888888888888888,2,object_06,1,3128,0,5,8,forest_31,1,memory-2step-stake-s,738,7573212,0.0-18.0-0.1-0.240,454,3,4
241,3,object_05,object_09,883.405,5,2,773.1050001,0.1111111111111111,1,object_10,5,3133,0,1,8,library_18,1,memory-2step-stake-s,739,7581326,0.0-18.0-0.1-0.241,454,6,5
242,4,object_03,object_07,609.195,8,1,346.465,0.7777777777777778,2,object_06,5,3168,0,0,7,restaurant_18,1,memory-2step-stake-s,740,7589613,0.0-18.0-0.1-0.242,454,8,7
243,4,object_03,object_07,566.4050002,8,1,463.9299999,0.4444444444444444,2,object_06,5,3188,0,3,4,restaurant_13,1,memory-2step-stake-s,741,7597716,0.0-18.0-0.1-0.243,454,8,7
244,4,object_07,object_03,866.105,7,1,454.75,0.2222222222222222,1,object_10,5,3198,0,2,2,restaurant_29,1,memory-2step-stake-s,742,7605604,0.0-18.0-0.1-0.244,454,7,8
245,4,object_07,object_03,490.77,8,2,520.575,0.2222222222222222,2,object_06,5,3208,0,0,2,restaurant_3,1,memory-2step-stake-s,743,7613572,0.0-18.0-0.1-0.245,454,7,8
246,1,object_02,object_04,500.10500010000004,1,1,469.575,0.6666666666666666,1,object_10,1,3214,0,6,3,desert_21,1,memory-2step-stake-s,744,7621884,0.0-18.0-0.1-0.246,454,1,2
247,1,object_02,object_04,454.32,1,1,481.4550001,0.6666666666666666,1,object_10,5,3244,0,6,5,desert_16,1,memory-2step-stake-s,745,7630203,0.0-18.0-0.1-0.247,454,1,2
248,4,object_03,object_07,756.385,8,1,351.7499999,0.5555555555555556,2,object_06,1,3249,0,6,5,restaurant_18,1,memory-2step-stake-s,746,7638310,0.0-18.0-0.1-0.248,454,8,7
249,2,object_08,object_01,742.415,4,2,569.8899999,0.7777777777777778,2,object_06,1,3256,0,4,7,forest_19,1,memory-2step-stake-s,747,7646830,0.0-18.0-0.1-0.249,454,3,4
250,2,object_01,object_08,766.05,3,2,391.6099998,0.5555555555555556,1,object_10,1,3261,0,5,8,forest_11,1,memory-2step-stake-s,748,7654961,0.0-18.0-0.1-0.250,454,4,3
251,4,object_07,object_03,694.9,8,2,475.2,0.8888888888888888,2,object_06,5,3301,0,6,8,restaurant_15,1,memory-2step-stake-s,749,7663493,0.0-18.0-0.1-0.251,454,7,8
252,3,object_05,object_09,724.9699999,6,1,440.9150002,0.3333333333333333,2,object_06,5,3316,0,7,3,library_1,1,memory-2step-stake-s,750,7671474,0.0-18.0-0.1-0.252,454,6,5
253,4,object_03,object_07,935.12,7,2,866.6050001,0.5555555555555556,1,object_10,5,3341,0,5,1,restaurant_1,1,memory-2step-stake-s,751,7680079,0.0-18.0-0.1-0.253,454,8,7
254,4,object_07,object_03,960.7500001,7,1,473.3500001,0.6666666666666666,1,object_10,5,3371,0,6,1,restaurant_31,1,memory-2step-stake-s,752,7688401,0.0-18.0-0.1-0.254,454,7,8
255,2,object_01,object_08,631.8950001000001,4,1,402.0700001,0.4444444444444444,2,object_06,1,3375,0,6,4,forest_28,1,memory-2step-stake-s,753,7696442,0.0-18.0-0.1-0.255,454,4,3
