,state1,stim_left,stim_right,rt_1,choice1,response1,rt_2,points,state2,stim_state2,stake,score,practice,rews1,rews2,background,high_arm,trial_type,trial_index,time_elapsed,internal_node_id,subid,stim_left_num,stim_right_num
0,4,object_02,object_04,-1.0,-1,-1,-1.0,0.0,-,,1,0,0,1,7,restaurant_9,2,memory-2step-stake-s,494,1357254,0.0-18.0-0.0-0.0,4486,8,7
1,4,object_04,object_02,691.0900001,7,1,1434.8,0.1111111111111111,1,object_05,1,1,0,1,5,restaurant_10,2,memory-2step-stake-s,495,1366007,0.0-18.0-0.0-0.1,4486,7,8
2,3,object_08,object_06,856.7250001,5,2,1188.21,0.2222222222222222,1,object_05,1,3,0,2,2,library_23,2,memory-2step-stake-s,496,1374618,0.0-18.0-0.0-0.2,4486,6,5
3,3,object_06,object_08,1140.025,5,1,638.055,0.1111111111111111,1,object_05,1,4,0,1,2,library_12,2,memory-2step-stake-s,497,1382573,0.0-18.0-0.0-0.3,4486,5,6
4,2,object_07,object_03,846.97,3,2,1398.435,0.1111111111111111,1,object_05,5,9,0,1,0,forest_19,2,memory-2step-stake-s,498,1391289,0.0-18.0-0.0-0.4,4486,4,3
5,4,object_04,object_02,793.62,8,2,933.085,0.2222222222222222,2,object_01,5,19,0,2,2,restaurant_15,2,memory-2step-stake-s,499,1399641,0.0-18.0-0.0-0.5,4486,7,8
6,1,object_09,object_10,1000.92,2,1,886.0899999,0.2222222222222222,2,object_01,5,29,0,1,2,desert_26,2,memory-2step-stake-s,500,1407949,0.0-18.0-0.0-0.6,4486,2,1
7,4,object_04,object_02,915.605,7,1,367.89,0.1111111111111111,1,object_05,1,30,0,1,1,restaurant_9,2,memory-2step-stake-s,501,1415633,0.0-18.0-0.0-0.7,4486,7,8
8,4,object_04,object_02,649.595,8,2,738.2199999,0.4444444444444444,2,object_01,5,50,0,2,4,restaurant_30,2,memory-2step-stake-s,502,1423989,0.0-18.0-0.0-0.8,4486,7,8
9,3,object_08,object_06,903.14,6,1,780.29,0.5555555555555556,2,object_01,1,55,0,3,5,library_4,2,memory-2step-stake-s,503,1432492,0.0-18.0-0.0-0.9,4486,6,5
10,1,object_09,object_10,1379.435,2,1,855.355,0.4444444444444444,2,object_01,5,75,0,0,4,desert_7,2,memory-2step-stake-s,504,1440970,0.0-18.0-0.0-0.10,4486,2,1
11,4,object_02,object_04,1265.405,7,2,432.525,0.2222222222222222,1,object_05,1,77,0,2,5,restaurant_12,2,memory-2step-stake-s,505,1448818,0.0-18.0-0.0-0.11,4486,8,7
12,1,object_09,object_10,681.895,2,1,350.065,0.6666666666666666,2,object_01,5,107,0,2,6,desert_25,2,memory-2step-stake-s,506,1456995,0.0-18.0-0.0-0.12,4486,2,1
13,2,object_07,object_03,1431.93,3,2,637.455,0.1111111111111111,1,object_05,5,112,0,1,9,forest_10,2,memory-2step-stake-s,507,1464951,0.0-18.0-0.0-0.13,4486,4,3
14,2,object_03,object_07,1205.635,3,1,684.025,0.1111111111111111,1,object_05,5,117,0,1,5,forest_20,2,memory-2step-stake-s,508,1472955,0.0-18.0-0.0-0.14,4486,3,4
15,3,object_06,object_08,-1.0,-1,-1,-1.0,0.0,-,,1,117,0,0,5,library_32,2,memory-2step-stake-s,509,1479467,0.0-18.0-0.0-0.15,4486,5,6
16,4,object_04,object_02,678.37,7,1,334.99,0.0,1,object_05,1,117,0,0,2,restaurant_12,2,memory-2step-stake-s,510,1487020,0.0-18.0-0.0-0.16,4486,7,8
17,1,object_09,object_10,844.25,2,1,428.74,0.5555555555555556,2,object_01,5,142,0,4,5,desert_4,2,memory-2step-stake-s,511,1495175,0.0-18.0-0.0-0.17,4486,2,1
18,2,object_07,object_03,1354.445,3,2,533.315,0.8888888888888888,1,object_05,5,182,0,8,3,forest_3,2,memory-2step-stake-s,512,1503734,0.0-18.0-0.0-0.18,4486,4,3
19,3,object_06,object_08,961.37,6,2,552.455,0.4444444444444444,2,object_01,1,186,0,8,4,library_7,2,memory-2step-stake-s,513,1511906,0.0-18.0-0.0-0.19,4486,5,6
20,1,object_10,object_09,898.24,2,2,560.45,0.4444444444444444,2,object_01,5,206,0,8,4,desert_19,2,memory-2step-stake-s,514,1520093,0.0-18.0-0.0-0.20,4486,1,2
21,2,object_07,object_03,925.5799999,3,2,370.335,0.4444444444444444,1,object_05,1,210,0,4,5,forest_11,2,memory-2step-stake-s,515,1528088,0.0-18.0-0.0-0.21,4486,4,3
22,4,object_04,object_02,798.07,8,2,375.8800001,0.4444444444444444,2,object_01,1,214,0,1,4,restaurant_4,2,memory-2step-stake-s,516,1536086,0.0-18.0-0.0-0.22,4486,7,8
23,1,object_10,object_09,803.0750001,1,1,390.1900001,0.0,1,object_05,1,214,0,0,5,desert_11,2,memory-2step-stake-s,517,1543696,0.0-18.0-0.0-0.23,4486,1,2
24,1,object_10,object_09,811.72,2,2,484.58,0.4444444444444444,2,object_01,5,234,0,0,4,desert_4,2,memory-2step-stake-s,518,1551806,0.0-18.0-0.0-0.24,4486,1,2
25,2,object_07,object_03,1216.905,3,2,524.2099999,0.0,1,object_05,5,234,0,0,6,forest_24,2,memory-2step-stake-s,519,1559548,0.0-18.0-0.0-0.25,4486,4,3
26,4,object_04,object_02,539.365,8,2,340.82,0.4444444444444444,2,object_01,1,238,0,2,4,restaurant_30,2,memory-2step-stake-s,520,1567514,0.0-18.0-0.0-0.26,4486,7,8
27,2,object_03,object_07,848.55,4,2,310.665,0.4444444444444444,2,object_01,1,242,0,3,4,forest_17,2,memory-2step-stake-s,521,1575448,0.0-18.0-0.0-0.27,4486,3,4
28,1,object_10,object_09,826.5600001,2,2,493.0050001,0.4444444444444444,2,object_01,5,262,0,2,4,desert_32,2,memory-2step-stake-s,522,1583562,0.0-18.0-0.0-0.28,4486,1,2
29,1,object_09,object_10,635.8,2,1,309.09,0.5555555555555556,2,object_01,5,287,0,1,5,desert_6,2,memory-2step-stake-s,523,1591594,0.0-18.0-0.0-0.29,4486,2,1
30,2,object_03,object_07,849.07,4,2,383.29,0.5555555555555556,2,object_01,5,312,0,1,5,forest_29,2,memory-2step-stake-s,524,1599702,0.0-18.0-0.0-0.30,4486,3,4
31,3,object_06,object_08,761.68,6,2,507.55,0.8888888888888888,2,object_01,1,320,0,2,8,library_27,2,memory-2step-stake-s,525,1608239,0.0-18.0-0.0-0.31,4486,5,6
32,2,object_07,object_03,894.59,4,1,293.17,1.0,2,object_01,5,365,0,1,9,forest_11,2,memory-2step-stake-s,526,1616658,0.0-18.0-0.0-0.32,4486,4,3
33,3,object_06,object_08,652.7699999,6,2,578.7899999,0.8888888888888888,2,object_01,1,373,0,1,8,library_32,2,memory-2step-stake-s,527,1625268,0.0-18.0-0.0-0.33,4486,5,6
34,2,object_03,object_07,735.3500001,4,2,294.915,1.0,2,object_01,5,418,0,1,9,forest_3,2,memory-2step-stake-s,528,1633693,0.0-18.0-0.0-0.34,4486,3,4
35,3,object_06,object_08,676.7699999,6,2,413.485,1.0,2,object_01,5,463,0,2,9,library_32,2,memory-2step-stake-s,529,1642236,0.0-18.0-0.0-0.35,4486,5,6
36,3,object_08,object_06,617.58,5,2,306.05500010000003,0.0,1,object_05,1,463,0,0,9,library_23,2,memory-2step-stake-s,530,1649758,0.0-18.0-0.0-0.36,4486,6,5
37,2,object_07,object_03,907.065,3,2,661.9699999,0.1111111111111111,1,object_05,1,464,0,1,7,forest_11,2,memory-2step-stake-s,531,1657738,0.0-18.0-0.0-0.37,4486,4,3
38,3,object_08,object_06,1240.01,5,2,387.95,0.2222222222222222,1,object_05,1,466,0,2,7,library_6,2,memory-2step-stake-s,532,1665545,0.0-18.0-0.0-0.38,4486,6,5
39,3,object_06,object_08,1068.18,5,1,590.3550001,0.1111111111111111,1,object_05,1,467,0,1,8,library_4,2,memory-2step-stake-s,533,1673453,0.0-18.0-0.0-0.39,4486,5,6
40,1,object_09,object_10,1031.82,2,1,534.5249999,0.8888888888888888,2,object_01,5,507,0,4,8,desert_32,2,memory-2step-stake-s,534,1682019,0.0-18.0-0.0-0.40,4486,2,1
41,1,object_10,object_09,647.8799999,2,2,399.20999989999996,1.0,2,object_01,5,552,0,4,9,desert_27,2,memory-2step-stake-s,535,1690548,0.0-18.0-0.0-0.41,4486,1,2
42,4,object_02,object_04,817.685,7,2,345.835,0.7777777777777778,1,object_05,1,559,0,7,7,restaurant_4,2,memory-2step-stake-s,536,1698823,0.0-18.0-0.0-0.42,4486,8,7
43,3,object_06,object_08,724.01,5,1,284.265,0.6666666666666666,1,object_05,5,589,0,6,8,library_19,2,memory-2step-stake-s,537,1706935,0.0-18.0-0.0-0.43,4486,5,6
44,3,object_08,object_06,688.19,6,1,282.24,0.8888888888888888,2,object_01,1,597,0,4,8,library_2,2,memory-2step-stake-s,538,1715246,0.0-18.0-0.0-0.44,4486,6,5
45,3,object_06,object_08,1389.75,5,1,412.7000001,0.1111111111111111,1,object_05,1,598,0,1,9,library_27,2,memory-2step-stake-s,539,1722978,0.0-18.0-0.0-0.45,4486,5,6
46,4,object_04,object_02,954.775,7,1,453.98,0.3333333333333333,1,object_05,1,601,0,3,8,restaurant_1,2,memory-2step-stake-s,540,1730953,0.0-18.0-0.0-0.46,4486,7,8
47,2,object_07,object_03,1083.79,4,1,296.95,1.0,2,object_01,5,646,0,4,9,forest_32,2,memory-2step-stake-s,541,1739379,0.0-18.0-0.0-0.47,4486,4,3
48,4,object_02,object_04,885.775,7,2,307.98500010000004,0.6666666666666666,1,object_05,1,652,0,6,8,restaurant_23,2,memory-2step-stake-s,542,1747509,0.0-18.0-0.0-0.48,4486,8,7
49,3,object_06,object_08,949.3,5,1,365.0399999,0.6666666666666666,1,object_05,1,658,0,6,8,library_26,2,memory-2step-stake-s,543,1755700,0.0-18.0-0.0-0.49,4486,5,6
50,4,object_02,object_04,689.88,8,1,347.805,0.7777777777777778,2,object_01,5,693,0,5,7,restaurant_26,2,memory-2step-stake-s,544,1763976,0.0-18.0-0.0-0.50,4486,8,7
51,4,object_04,object_02,585.895,7,1,472.255,0.8888888888888888,1,object_05,1,701,0,8,9,restaurant_12,2,memory-2step-stake-s,545,1772473,0.0-18.0-0.0-0.51,4486,7,8
52,2,object_03,object_07,715.435,3,1,310.655,1.0,1,object_05,5,746,0,9,7,forest_10,2,memory-2step-stake-s,546,1780911,0.0-18.0-0.0-0.52,4486,3,4
53,3,object_08,object_06,1003.425,5,2,327.635,0.7777777777777778,1,object_05,1,753,0,7,6,library_28,2,memory-2step-stake-s,547,1789164,0.0-18.0-0.0-0.53,4486,6,5
54,3,object_08,object_06,584.725,6,1,289.0250001,0.7777777777777778,2,object_01,1,760,0,8,7,library_10,2,memory-2step-stake-s,548,1797383,0.0-18.0-0.0-0.54,4486,6,5
55,2,object_07,object_03,1115.795,4,1,401.215,0.4444444444444444,2,object_01,1,764,0,8,4,forest_10,2,memory-2step-stake-s,549,1805404,0.0-18.0-0.0-0.55,4486,4,3
56,2,object_03,object_07,602.4600001,3,1,438.355,0.7777777777777778,1,object_05,5,799,0,7,5,forest_18,2,memory-2step-stake-s,550,1813772,0.0-18.0-0.0-0.56,4486,3,4
57,1,object_10,object_09,834.0,1,1,360.165,1.0,1,object_05,5,844,0,9,3,desert_16,2,memory-2step-stake-s,551,1822262,0.0-18.0-0.0-0.57,4486,1,2
58,2,object_07,object_03,1401.07,3,2,598.645,0.6666666666666666,1,object_05,5,874,0,6,2,forest_20,2,memory-2step-stake-s,552,1830688,0.0-18.0-0.0-0.58,4486,4,3
59,4,object_02,object_04,1355.315,8,1,319.94,0.1111111111111111,2,object_01,1,875,0,7,1,restaurant_20,2,memory-2step-stake-s,553,1838329,0.0-18.0-0.0-0.59,4486,8,7
60,3,object_06,object_08,971.415,6,2,392.985,0.2222222222222222,2,object_01,1,877,0,6,2,library_21,2,memory-2step-stake-s,554,1846144,0.0-18.0-0.0-0.60,4486,5,6
61,2,object_07,object_03,803.76,3,2,306.03,1.0,1,object_05,5,922,0,9,3,forest_17,2,memory-2step-stake-s,555,1854581,0.0-18.0-0.0-0.61,4486,4,3
62,3,object_08,object_06,933.69,6,1,484.845,0.1111111111111111,2,object_01,1,923,0,7,1,library_10,2,memory-2step-stake-s,556,1862383,0.0-18.0-0.0-0.62,4486,6,5
63,4,object_02,object_04,585.5800001,8,1,426.575,0.1111111111111111,2,object_01,1,924,0,5,1,restaurant_7,2,memory-2step-stake-s,557,1870132,0.0-18.0-0.0-0.63,4486,8,7
64,1,object_10,object_09,869.27,1,1,450.0000001,0.4444444444444444,1,object_05,5,944,0,4,5,desert_19,2,memory-2step-stake-s,558,1878207,0.0-18.0-0.0-0.64,4486,1,2
65,2,object_07,object_03,743.165,3,2,367.905,0.4444444444444444,1,object_05,5,964,0,4,7,forest_29,2,memory-2step-stake-s,559,1886196,0.0-18.0-0.0-0.65,4486,4,3
66,3,object_06,object_08,658.7649999,6,2,338.65,0.6666666666666666,2,object_01,1,970,0,1,6,library_28,2,memory-2step-stake-s,560,1894361,0.0-18.0-0.0-0.66,4486,5,6
67,1,object_10,object_09,780.485,2,2,314.78,0.3333333333333333,2,object_01,5,985,0,2,3,desert_13,2,memory-2step-stake-s,561,1902197,0.0-18.0-0.0-0.67,4486,1,2
68,1,object_10,object_09,745.4250001,2,2,340.5549999,0.3333333333333333,2,object_01,5,1000,0,1,3,desert_18,2,memory-2step-stake-s,562,1910061,0.0-18.0-0.0-0.68,4486,1,2
69,3,object_06,object_08,609.13,5,1,286.015,0.1111111111111111,1,object_05,1,1001,0,1,5,library_4,2,memory-2step-stake-s,563,1917665,0.0-18.0-0.0-0.69,4486,5,6
70,4,object_02,object_04,712.705,7,2,304.5049999,0.5555555555555556,1,object_05,1,1006,0,5,6,restaurant_23,2,memory-2step-stake-s,564,1925693,0.0-18.0-0.0-0.70,4486,8,7
71,3,object_06,object_08,670.4000001,6,2,431.6,0.1111111111111111,2,object_01,1,1007,0,8,1,library_19,2,memory-2step-stake-s,565,1933442,0.0-18.0-0.0-0.71,4486,5,6
72,3,object_08,object_06,694.8000001,5,2,421.03,0.5555555555555556,1,object_05,5,1032,0,5,0,library_28,2,memory-2step-stake-s,566,1941587,0.0-18.0-0.0-0.72,4486,6,5
73,3,object_08,object_06,1155.88,6,1,327.145,0.2222222222222222,2,object_01,1,1034,0,3,2,library_27,2,memory-2step-stake-s,567,1949337,0.0-18.0-0.0-0.73,4486,6,5
74,3,object_08,object_06,477.55000010000003,6,1,577.5049999,0.4444444444444444,2,object_01,1,1038,0,4,4,library_2,2,memory-2step-stake-s,568,1957537,0.0-18.0-0.0-0.74,4486,6,5
75,1,object_09,object_10,715.535,1,2,300.18,0.5555555555555556,1,object_05,5,1063,0,5,5,desert_20,2,memory-2step-stake-s,569,1965561,0.0-18.0-0.0-0.75,4486,2,1
76,1,object_09,object_10,638.98,1,2,297.375,0.4444444444444444,1,object_05,5,1083,0,4,7,desert_19,2,memory-2step-stake-s,570,1973482,0.0-18.0-0.0-0.76,4486,2,1
77,2,object_03,object_07,810.44,3,1,305.085,0.6666666666666666,1,object_05,5,1113,0,6,8,forest_31,2,memory-2step-stake-s,571,1981613,0.0-18.0-0.0-0.77,4486,3,4
78,4,object_02,object_04,568.065,7,2,333.895,0.8888888888888888,1,object_05,5,1153,0,8,4,restaurant_15,2,memory-2step-stake-s,572,1989973,0.0-18.0-0.0-0.78,4486,8,7
79,3,object_06,object_08,711.72,5,1,362.6250001,1.0,1,object_05,5,1198,0,9,7,library_27,2,memory-2step-stake-s,573,1998463,0.0-18.0-0.0-0.79,4486,5,6
80,1,object_10,object_09,741.01,1,1,434.02,1.0,1,object_05,5,1243,0,9,4,desert_26,2,memory-2step-stake-s,574,2007023,0.0-18.0-0.0-0.80,4486,1,2
81,3,object_08,object_06,571.18,6,1,289.4700001,0.4444444444444444,2,object_01,1,1247,0,8,4,library_32,2,memory-2step-stake-s,575,2014936,0.0-18.0-0.0-0.81,4486,6,5
82,1,object_09,object_10,718.9099999,1,2,309.865,0.8888888888888888,1,object_05,5,1287,0,8,7,desert_24,2,memory-2step-stake-s,576,2023277,0.0-18.0-0.0-0.82,4486,2,1
83,3,object_08,object_06,603.685,6,1,356.165,1.0,2,object_01,1,1296,0,8,9,library_25,2,memory-2step-stake-s,577,2031762,0.0-18.0-0.0-0.83,4486,6,5
84,3,object_06,object_08,678.1850001,6,2,395.0499999,0.7777777777777778,2,object_01,5,1331,0,5,7,library_25,2,memory-2step-stake-s,578,2040084,0.0-18.0-0.0-0.84,4486,5,6
85,1,object_09,object_10,872.15,2,1,340.185,0.6666666666666666,2,object_01,5,1361,0,8,6,desert_11,2,memory-2step-stake-s,579,2048247,0.0-18.0-0.0-0.85,4486,2,1
86,2,object_03,object_07,956.12,3,1,470.27,0.5555555555555556,1,object_05,1,1366,0,5,5,forest_13,2,memory-2step-stake-s,580,2056436,0.0-18.0-0.0-0.86,4486,3,4
87,2,object_03,object_07,850.85,4,2,414.035,0.6666666666666666,2,object_01,5,1396,0,6,6,forest_24,2,memory-2step-stake-s,581,2064675,0.0-18.0-0.0-0.87,4486,3,4
88,1,object_10,object_09,743.58,2,2,322.98000010000004,0.5555555555555556,2,object_01,5,1421,0,6,5,desert_23,2,memory-2step-stake-s,582,2072723,0.0-18.0-0.0-0.88,4486,1,2
89,4,object_02,object_04,707.33,8,1,292.7499999,0.5555555555555556,2,object_01,1,1426,0,4,5,restaurant_16,2,memory-2step-stake-s,583,2080737,0.0-18.0-0.0-0.89,4486,8,7
90,2,object_03,object_07,765.1549999,4,2,396.31,0.5555555555555556,2,object_01,1,1431,0,2,5,forest_25,2,memory-2step-stake-s,584,2088860,0.0-18.0-0.0-0.90,4486,3,4
91,4,object_02,object_04,1259.225,7,2,355.415,0.1111111111111111,1,object_05,1,1432,0,1,5,restaurant_9,2,memory-2step-stake-s,585,2096533,0.0-18.0-0.0-0.91,4486,8,7
92,4,object_04,object_02,518.2149999,7,1,312.19999989999997,0.1111111111111111,1,object_05,1,1433,0,1,1,restaurant_10,2,memory-2step-stake-s,586,2104164,0.0-18.0-0.0-0.92,4486,7,8
93,2,object_03,object_07,1054.285,4,2,326.4500001,0.0,2,object_01,5,1433,0,1,0,forest_18,2,memory-2step-stake-s,587,2111708,0.0-18.0-0.0-0.93,4486,3,4
94,2,object_07,object_03,1003.29,3,2,314.4749999,0.1111111111111111,1,object_05,5,1438,0,1,2,forest_24,2,memory-2step-stake-s,588,2119344,0.0-18.0-0.0-0.94,4486,4,3
95,3,object_08,object_06,617.6750001,6,1,305.095,0.0,2,object_01,5,1438,0,1,0,library_2,2,memory-2step-stake-s,589,2126866,0.0-18.0-0.0-0.95,4486,6,5
96,3,object_08,object_06,494.69999989999997,6,1,327.24,0.2222222222222222,2,object_01,1,1440,0,5,2,library_16,2,memory-2step-stake-s,590,2134610,0.0-18.0-0.0-0.96,4486,6,5
97,3,object_08,object_06,440.45499989999996,5,2,328.7399999,0.4444444444444444,1,object_05,1,1444,0,4,2,library_26,2,memory-2step-stake-s,591,2142563,0.0-18.0-0.0-0.97,4486,6,5
98,4,object_04,object_02,682.66,7,1,366.24,0.7777777777777778,1,object_05,5,1479,0,7,2,restaurant_1,2,memory-2step-stake-s,592,2150859,0.0-18.0-0.0-0.98,4486,7,8
99,4,object_04,object_02,567.6500001,8,2,285.9949999,0.4444444444444444,2,object_01,1,1483,0,6,4,restaurant_4,2,memory-2step-stake-s,593,2158768,0.0-18.0-0.0-0.99,4486,7,8
100,2,object_03,object_07,826.4500001,3,1,305.685,0.7777777777777778,1,object_05,5,1518,0,7,2,forest_23,2,memory-2step-stake-s,594,2166999,0.0-18.0-0.0-0.100,4486,3,4
101,2,object_07,object_03,794.365,3,2,322.595,0.7777777777777778,1,object_05,5,1553,0,7,4,forest_27,2,memory-2step-stake-s,595,2175248,0.0-18.0-0.0-0.101,4486,4,3
102,2,object_03,object_07,696.1749999,3,1,334.0649999,0.6666666666666666,1,object_05,5,1583,0,6,6,forest_24,2,memory-2step-stake-s,596,2183405,0.0-18.0-0.0-0.102,4486,3,4
103,4,object_04,object_02,771.0149999,8,2,510.805,0.8888888888888888,2,object_01,1,1591,0,8,8,restaurant_30,2,memory-2step-stake-s,597,2191942,0.0-18.0-0.0-0.103,4486,7,8
104,4,object_04,object_02,1053.88,7,1,309.835,0.7777777777777778,1,object_05,1,1598,0,7,5,restaurant_5,2,memory-2step-stake-s,598,2200177,0.0-18.0-0.0-0.104,4486,7,8
105,4,object_02,object_04,716.84,8,1,278.255,0.8888888888888888,2,object_01,1,1606,0,8,8,restaurant_8,2,memory-2step-stake-s,599,2208478,0.0-18.0-0.0-0.105,4486,8,7
106,1,object_09,object_10,1111.255,2,1,273.785,0.4444444444444444,2,object_01,5,1626,0,6,4,desert_27,2,memory-2step-stake-s,600,2216379,0.0-18.0-0.0-0.106,4486,2,1
107,3,object_08,object_06,634.495,5,2,279.8499999,0.8888888888888888,1,object_05,5,1666,0,8,5,library_23,2,memory-2step-stake-s,601,2224684,0.0-18.0-0.0-0.107,4486,6,5
108,1,object_09,object_10,789.84,1,2,367.785,0.8888888888888888,1,object_05,5,1706,0,8,1,desert_12,2,memory-2step-stake-s,602,2233078,0.0-18.0-0.0-0.108,4486,2,1
109,3,object_08,object_06,537.9849998999999,6,1,273.63,0.0,2,object_01,1,1706,0,8,0,library_16,2,memory-2step-stake-s,603,2240567,0.0-18.0-0.0-0.109,4486,6,5
110,2,object_07,object_03,697.1849999,3,2,320.7500001,1.0,1,object_05,5,1751,0,9,1,forest_31,2,memory-2step-stake-s,604,2249015,0.0-18.0-0.0-0.110,4486,4,3
111,2,object_03,object_07,494.51499989999996,3,1,314.1450001,0.8888888888888888,1,object_05,5,1791,0,8,1,forest_3,2,memory-2step-stake-s,605,2257355,0.0-18.0-0.0-0.111,4486,3,4
112,4,object_02,object_04,613.09,8,1,281.77,0.0,2,object_01,1,1791,0,8,0,restaurant_31,2,memory-2step-stake-s,606,2264856,0.0-18.0-0.0-0.112,4486,8,7
113,3,object_08,object_06,596.185,6,1,947.9749999,0.2222222222222222,2,object_01,1,1793,0,9,2,library_8,2,memory-2step-stake-s,607,2273222,0.0-18.0-0.0-0.113,4486,6,5
114,2,object_03,object_07,876.88,3,1,378.45999989999996,0.5555555555555556,1,object_05,5,1818,0,5,2,forest_19,2,memory-2step-stake-s,608,2281326,0.0-18.0-0.0-0.114,4486,3,4
115,3,object_06,object_08,668.065,6,2,331.7849999,0.3333333333333333,2,object_01,1,1821,0,7,3,library_21,2,memory-2step-stake-s,609,2289177,0.0-18.0-0.0-0.115,4486,5,6
116,4,object_04,object_02,691.125,8,2,275.05500010000003,0.0,2,object_01,1,1821,0,7,0,restaurant_26,2,memory-2step-stake-s,610,2296669,0.0-18.0-0.0-0.116,4486,7,8
117,2,object_07,object_03,855.0250001,3,2,341.675,0.5555555555555556,1,object_05,5,1846,0,5,1,forest_29,2,memory-2step-stake-s,611,2304736,0.0-18.0-0.0-0.117,4486,4,3
118,3,object_06,object_08,604.2449999,6,2,344.4500001,0.3333333333333333,2,object_01,1,1849,0,4,3,library_26,2,memory-2step-stake-s,612,2312605,0.0-18.0-0.0-0.118,4486,5,6
119,4,object_04,object_02,646.6250001,8,2,332.355,0.2222222222222222,2,object_01,1,1851,0,1,2,restaurant_10,2,memory-2step-stake-s,613,2320357,0.0-18.0-0.0-0.119,4486,7,8
120,1,object_09,object_10,633.5850001,2,1,314.03,0.5555555555555556,2,object_01,5,1876,0,1,5,desert_7,2,memory-2step-stake-s,614,2328395,0.0-18.0-0.0-0.120,4486,2,1
121,2,object_07,object_03,776.525,3,2,294.465,0.2222222222222222,1,object_05,1,1878,0,2,6,forest_32,2,memory-2step-stake-s,615,2336109,0.0-18.0-0.0-0.121,4486,4,3
122,1,object_10,object_09,1031.475,2,2,368.86,0.5555555555555556,2,object_01,5,1903,0,1,5,desert_12,2,memory-2step-stake-s,616,2344206,0.0-18.0-0.0-0.122,4486,1,2
123,2,object_07,object_03,1308.485,4,1,373.8449999,0.3333333333333333,2,object_01,5,1918,0,1,3,forest_31,2,memory-2step-stake-s,617,2352098,0.0-18.0-0.0-0.123,4486,4,3
124,3,object_08,object_06,724.895,5,2,285.1450001,0.1111111111111111,1,object_05,5,1923,0,1,1,library_6,2,memory-2step-stake-s,618,2359708,0.0-18.0-0.0-0.124,4486,6,5
125,1,object_09,object_10,765.6950001,2,1,262.005,0.1111111111111111,2,object_01,5,1928,0,0,1,desert_11,2,memory-2step-stake-s,619,2367290,0.0-18.0-0.0-0.125,4486,2,1
126,1,object_10,object_09,923.605,2,2,279.51499989999996,0.1111111111111111,2,object_01,1,1929,0,2,1,desert_4,2,memory-2step-stake-s,620,2374887,0.0-18.0-0.0-0.126,4486,1,2
127,4,object_02,object_04,664.105,7,2,277.72,0.2222222222222222,1,object_05,5,1939,0,2,0,restaurant_16,2,memory-2step-stake-s,621,2382584,0.0-18.0-0.0-0.127,4486,8,7
128,3,object_08,object_06,1019.385,6,1,317.93,0.1111111111111111,2,object_01,1,1940,0,3,1,library_26,2,memory-2step-stake-s,623,2442989,0.0-18.0-0.1-0.128,4486,6,5
129,2,object_07,object_03,780.67,3,2,341.165,0.3333333333333333,1,object_05,5,1955,0,3,0,forest_20,2,memory-2step-stake-s,624,2450851,0.0-18.0-0.1-0.129,4486,4,3
130,4,object_02,object_04,693.785,8,1,284.0549999,0.2222222222222222,2,object_01,1,1957,0,3,2,restaurant_31,2,memory-2step-stake-s,625,2458554,0.0-18.0-0.1-0.130,4486,8,7
131,2,object_03,object_07,758.2950001,3,1,310.065,0.5555555555555556,1,object_05,5,1982,0,5,6,forest_23,2,memory-2step-stake-s,626,2466584,0.0-18.0-0.1-0.131,4486,3,4
132,4,object_02,object_04,579.46,7,2,303.2399999,0.8888888888888888,1,object_05,5,2022,0,8,7,restaurant_23,2,memory-2step-stake-s,627,2474918,0.0-18.0-0.1-0.132,4486,8,7
133,2,object_07,object_03,631.5649999,3,2,370.565,0.7777777777777778,1,object_05,5,2057,0,7,8,forest_31,2,memory-2step-stake-s,628,2483215,0.0-18.0-0.1-0.133,4486,4,3
134,4,object_04,object_02,470.135,8,2,307.61500010000003,0.8888888888888888,2,object_01,1,2065,0,8,8,restaurant_4,2,memory-2step-stake-s,629,2491548,0.0-18.0-0.1-0.134,4486,7,8
135,4,object_04,object_02,1187.83,7,1,278.645,0.7777777777777778,1,object_05,1,2072,0,7,5,restaurant_9,2,memory-2step-stake-s,630,2499756,0.0-18.0-0.1-0.135,4486,7,8
136,3,object_08,object_06,635.5549999,6,1,284.0,0.3333333333333333,2,object_01,5,2087,0,6,3,library_7,2,memory-2step-stake-s,631,2507562,0.0-18.0-0.1-0.136,4486,6,5
137,4,object_02,object_04,621.315,7,2,398.495,0.5555555555555556,1,object_05,5,2112,0,5,1,restaurant_7,2,memory-2step-stake-s,632,2515685,0.0-18.0-0.1-0.137,4486,8,7
138,4,object_02,object_04,865.0799999,8,1,328.57,0.0,2,object_01,1,2112,0,6,0,restaurant_7,2,memory-2step-stake-s,633,2523230,0.0-18.0-0.1-0.138,4486,8,7
139,3,object_06,object_08,915.75,6,2,300.345,0.1111111111111111,2,object_01,1,2113,0,5,1,library_19,2,memory-2step-stake-s,634,2530852,0.0-18.0-0.1-0.139,4486,5,6
140,3,object_08,object_06,568.08,5,2,256.045,0.8888888888888888,1,object_05,5,2153,0,8,1,library_16,2,memory-2step-stake-s,635,2539129,0.0-18.0-0.1-0.140,4486,6,5
141,4,object_02,object_04,575.415,8,1,348.11500010000003,0.1111111111111111,2,object_01,1,2154,0,7,1,restaurant_19,2,memory-2step-stake-s,636,2546794,0.0-18.0-0.1-0.141,4486,8,7
142,3,object_06,object_08,616.2449999,6,2,478.48500010000004,0.3333333333333333,2,object_01,1,2157,0,7,3,library_23,2,memory-2step-stake-s,637,2554793,0.0-18.0-0.1-0.142,4486,5,6
143,4,object_02,object_04,847.285,8,1,241.77,0.2222222222222222,2,object_01,1,2159,0,8,2,restaurant_5,2,memory-2step-stake-s,638,2562453,0.0-18.0-0.1-0.143,4486,8,7
144,1,object_10,object_09,1111.615,2,2,332.085,0.2222222222222222,2,object_01,5,2169,0,6,2,desert_25,2,memory-2step-stake-s,639,2570203,0.0-18.0-0.1-0.144,4486,1,2
145,2,object_03,object_07,785.75,3,1,414.29,0.6666666666666666,1,object_05,5,2199,0,6,3,forest_19,2,memory-2step-stake-s,640,2578440,0.0-18.0-0.1-0.145,4486,3,4
146,1,object_09,object_10,1182.745,1,2,351.60500010000004,0.8888888888888888,1,object_05,5,2239,0,8,7,desert_20,2,memory-2step-stake-s,641,2586817,0.0-18.0-0.1-0.146,4486,2,1
147,3,object_08,object_06,792.86,6,1,291.265,0.8888888888888888,2,object_01,1,2247,0,5,8,library_2,2,memory-2step-stake-s,642,2595137,0.0-18.0-0.1-0.147,4486,6,5
148,4,object_02,object_04,778.6300001,7,2,263.185,0.2222222222222222,1,object_05,1,2249,0,2,9,restaurant_19,2,memory-2step-stake-s,643,2602818,0.0-18.0-0.1-0.148,4486,8,7
149,2,object_03,object_07,733.7,4,2,302.955,0.8888888888888888,2,object_01,5,2289,0,5,8,forest_17,2,memory-2step-stake-s,644,2611144,0.0-18.0-0.1-0.149,4486,3,4
150,1,object_09,object_10,851.285,2,1,270.545,1.0,2,object_01,5,2334,0,5,9,desert_23,2,memory-2step-stake-s,645,2619543,0.0-18.0-0.1-0.150,4486,2,1
151,3,object_06,object_08,698.935,5,1,350.735,0.6666666666666666,1,object_05,1,2340,0,6,6,library_28,2,memory-2step-stake-s,646,2627718,0.0-18.0-0.1-0.151,4486,5,6
152,4,object_04,object_02,844.84,8,2,243.24,0.5555555555555556,2,object_01,1,2345,0,5,5,restaurant_20,2,memory-2step-stake-s,647,2635684,0.0-18.0-0.1-0.152,4486,7,8
153,2,object_07,object_03,776.645,3,2,277.92500010000003,0.3333333333333333,1,object_05,5,2360,0,3,4,forest_20,2,memory-2step-stake-s,648,2643480,0.0-18.0-0.1-0.153,4486,4,3
154,3,object_08,object_06,801.85,5,2,286.99000010000003,0.6666666666666666,1,object_05,1,2366,0,6,4,library_10,2,memory-2step-stake-s,649,2651591,0.0-18.0-0.1-0.154,4486,6,5
155,3,object_06,object_08,624.405,5,1,272.8799999,0.7777777777777778,1,object_05,5,2401,0,7,5,library_16,2,memory-2step-stake-s,650,2659793,0.0-18.0-0.1-0.155,4486,5,6
156,1,object_10,object_09,797.4449999,1,1,270.53,0.8888888888888888,1,object_05,5,2441,0,8,3,desert_32,2,memory-2step-stake-s,651,2668092,0.0-18.0-0.1-0.156,4486,1,2
157,1,object_10,object_09,586.685,1,1,274.525,0.7777777777777778,1,object_05,5,2476,0,7,2,desert_18,2,memory-2step-stake-s,652,2676291,0.0-18.0-0.1-0.157,4486,1,2
158,1,object_10,object_09,461.9400001,1,1,261.72,0.5555555555555556,1,object_05,5,2501,0,5,1,desert_13,2,memory-2step-stake-s,653,2684277,0.0-18.0-0.1-0.158,4486,1,2
159,1,object_09,object_10,726.9550001,2,1,291.83,0.1111111111111111,2,object_01,5,2506,0,9,1,desert_32,2,memory-2step-stake-s,654,2691887,0.0-18.0-0.1-0.159,4486,2,1
160,4,object_04,object_02,691.15,7,1,286.02,1.0,1,object_05,5,2551,0,9,1,restaurant_5,2,memory-2step-stake-s,655,2700301,0.0-18.0-0.1-0.160,4486,7,8
161,2,object_03,object_07,645.8749999,3,1,404.06,0.5555555555555556,1,object_05,5,2576,0,5,2,forest_18,2,memory-2step-stake-s,656,2708429,0.0-18.0-0.1-0.161,4486,3,4
162,4,object_02,object_04,673.775,7,2,316.03,0.2222222222222222,1,object_05,5,2586,0,2,1,restaurant_8,2,memory-2step-stake-s,657,2716165,0.0-18.0-0.1-0.162,4486,8,7
163,2,object_03,object_07,565.62,3,1,270.82999989999996,0.4444444444444444,1,object_05,1,2590,0,4,1,forest_27,2,memory-2step-stake-s,658,2724057,0.0-18.0-0.1-0.163,4486,3,4
164,2,object_03,object_07,608.875,4,2,255.07,0.1111111111111111,2,object_01,1,2591,0,7,1,forest_10,2,memory-2step-stake-s,659,2731631,0.0-18.0-0.1-0.164,4486,3,4
165,2,object_07,object_03,492.87,3,2,283.43000010000003,0.5555555555555556,1,object_05,5,2616,0,5,3,forest_21,2,memory-2step-stake-s,660,2739641,0.0-18.0-0.1-0.165,4486,4,3
166,1,object_09,object_10,786.89,1,2,310.045,1.0,1,object_05,5,2661,0,9,0,desert_20,2,memory-2step-stake-s,661,2748081,0.0-18.0-0.1-0.166,4486,2,1
167,4,object_02,object_04,581.5000001,7,2,250.595,0.8888888888888888,1,object_05,5,2701,0,8,6,restaurant_16,2,memory-2step-stake-s,662,2756356,0.0-18.0-0.1-0.167,4486,8,7
168,1,object_09,object_10,667.535,1,2,343.445,0.6666666666666666,1,object_05,5,2731,0,6,9,desert_6,2,memory-2step-stake-s,663,2764520,0.0-18.0-0.1-0.168,4486,2,1
169,4,object_04,object_02,680.5,7,1,407.245,0.4444444444444444,1,object_05,5,2751,0,4,7,restaurant_26,2,memory-2step-stake-s,664,2772551,0.0-18.0-0.1-0.169,4486,7,8
170,4,object_04,object_02,752.3449999,8,2,306.89,0.7777777777777778,2,object_01,1,2758,0,2,7,restaurant_5,2,memory-2step-stake-s,665,2780784,0.0-18.0-0.1-0.170,4486,7,8
171,4,object_04,object_02,541.64,7,1,274.51,0.3333333333333333,1,object_05,1,2761,0,3,8,restaurant_8,2,memory-2step-stake-s,666,2788579,0.0-18.0-0.1-0.171,4486,7,8
172,1,object_09,object_10,586.685,2,1,264.1799999,0.7777777777777778,2,object_01,5,2796,0,5,7,desert_7,2,memory-2step-stake-s,667,2796768,0.0-18.0-0.1-0.172,4486,2,1
173,1,object_09,object_10,426.245,2,1,395.805,0.7777777777777778,2,object_01,5,2831,0,5,7,desert_25,2,memory-2step-stake-s,668,2805093,0.0-18.0-0.1-0.173,4486,2,1
174,4,object_04,object_02,596.92,7,1,297.42,1.0,1,object_05,1,2840,0,9,8,restaurant_20,2,memory-2step-stake-s,669,2813518,0.0-18.0-0.1-0.174,4486,7,8
175,3,object_06,object_08,510.82,6,2,235.645,0.3333333333333333,2,object_01,1,2843,0,7,3,library_12,2,memory-2step-stake-s,670,2821275,0.0-18.0-0.1-0.175,4486,5,6
176,3,object_06,object_08,874.445,6,2,348.1200001,0.7777777777777778,2,object_01,1,2850,0,8,7,library_8,2,memory-2step-stake-s,671,2829549,0.0-18.0-0.1-0.176,4486,5,6
177,2,object_07,object_03,987.42,3,2,305.63,0.8888888888888888,1,object_05,5,2890,0,8,8,forest_32,2,memory-2step-stake-s,672,2837882,0.0-18.0-0.1-0.177,4486,4,3
178,4,object_04,object_02,518.4849998999999,7,1,425.235,1.0,1,object_05,5,2935,0,9,7,restaurant_15,2,memory-2step-stake-s,673,2846436,0.0-18.0-0.1-0.178,4486,7,8
179,4,object_04,object_02,675.0500001,8,2,275.8150001,1.0,2,object_01,1,2944,0,8,9,restaurant_12,2,memory-2step-stake-s,674,2854842,0.0-18.0-0.1-0.179,4486,7,8
180,4,object_04,object_02,697.52,8,2,232.5500001,0.6666666666666666,2,object_01,5,2974,0,7,6,restaurant_1,2,memory-2step-stake-s,675,2862904,0.0-18.0-0.1-0.180,4486,7,8
181,4,object_02,object_04,489.25999989999997,7,2,326.235,1.0,1,object_05,1,2983,0,9,7,restaurant_15,2,memory-2step-stake-s,676,2871359,0.0-18.0-0.1-0.181,4486,8,7
182,4,object_04,object_02,502.555,7,1,378.8750001,0.8888888888888888,1,object_05,5,3023,0,8,4,restaurant_26,2,memory-2step-stake-s,677,2879766,0.0-18.0-0.1-0.182,4486,7,8
183,2,object_03,object_07,761.485,3,1,335.57,0.7777777777777778,1,object_05,5,3058,0,7,7,forest_21,2,memory-2step-stake-s,678,2888025,0.0-18.0-0.1-0.183,4486,3,4
184,2,object_07,object_03,791.065,4,1,227.3899999,0.8888888888888888,2,object_01,1,3066,0,7,8,forest_19,2,memory-2step-stake-s,679,2896275,0.0-18.0-0.1-0.184,4486,4,3
185,2,object_07,object_03,460.9399999,3,2,280.48,0.8888888888888888,1,object_05,1,3074,0,8,9,forest_23,2,memory-2step-stake-s,680,2904582,0.0-18.0-0.1-0.185,4486,4,3
186,1,object_09,object_10,745.255,1,2,220.095,1.0,1,object_05,5,3119,0,9,3,desert_16,2,memory-2step-stake-s,681,2912932,0.0-18.0-0.1-0.186,4486,2,1
187,3,object_06,object_08,985.185,5,1,131.07,0.8888888888888888,1,object_05,1,3127,0,8,3,library_6,2,memory-2step-stake-s,682,2921092,0.0-18.0-0.1-0.187,4486,5,6
188,2,object_07,object_03,990.43,4,1,355.93,0.2222222222222222,2,object_01,1,3129,0,7,2,forest_13,2,memory-2step-stake-s,683,2928865,0.0-18.0-0.1-0.188,4486,4,3
189,4,object_02,object_04,600.5000001,8,1,431.99000010000003,0.3333333333333333,2,object_01,1,3132,0,6,3,restaurant_19,2,memory-2step-stake-s,684,2936817,0.0-18.0-0.1-0.189,4486,8,7
190,2,object_07,object_03,450.78,3,2,398.055,0.6666666666666666,1,object_05,5,3162,0,6,2,forest_3,2,memory-2step-stake-s,685,2945037,0.0-18.0-0.1-0.190,4486,4,3
191,1,object_09,object_10,703.4400001,1,2,300.3,0.8888888888888888,1,object_05,5,3202,0,8,0,desert_23,2,memory-2step-stake-s,686,2953366,0.0-18.0-0.1-0.191,4486,2,1
192,4,object_04,object_02,565.92,8,2,430.54,0.3333333333333333,2,object_01,1,3205,0,6,3,restaurant_20,2,memory-2step-stake-s,687,2961317,0.0-18.0-0.1-0.192,4486,7,8
193,2,object_07,object_03,758.8849999,3,2,313.7000001,1.0,1,object_05,5,3250,0,9,5,forest_13,2,memory-2step-stake-s,688,2969757,0.0-18.0-0.1-0.193,4486,4,3
194,1,object_10,object_09,681.96,1,1,403.74,0.7777777777777778,1,object_05,5,3285,0,7,3,desert_18,2,memory-2step-stake-s,689,2978088,0.0-18.0-0.1-0.194,4486,1,2
195,2,object_07,object_03,684.4599999,3,2,334.33,0.6666666666666666,1,object_05,5,3315,0,6,1,forest_25,2,memory-2step-stake-s,690,2986250,0.0-18.0-0.1-0.195,4486,4,3
196,1,object_09,object_10,534.54,1,2,325.00999989999997,0.3333333333333333,1,object_05,5,3330,0,3,1,desert_25,2,memory-2step-stake-s,691,2994093,0.0-18.0-0.1-0.196,4486,2,1
197,2,object_07,object_03,827.815,4,1,298.75999989999997,0.0,2,object_01,5,3330,0,5,0,forest_27,2,memory-2step-stake-s,692,3001609,0.0-18.0-0.1-0.197,4486,4,3
198,4,object_02,object_04,673.205,8,1,274.4699999,0.0,2,object_01,1,3330,0,6,0,restaurant_30,2,memory-2step-stake-s,693,3009102,0.0-18.0-0.1-0.198,4486,8,7
199,3,object_08,object_06,625.475,6,1,317.46,0.1111111111111111,2,object_01,1,3331,0,8,1,library_7,2,memory-2step-stake-s,694,3016736,0.0-18.0-0.1-0.199,4486,6,5
200,1,object_09,object_10,677.17,1,2,319.56,0.5555555555555556,1,object_05,5,3356,0,5,2,desert_6,2,memory-2step-stake-s,695,3024779,0.0-18.0-0.1-0.200,4486,2,1
201,4,object_02,object_04,573.37,8,1,298.78,0.2222222222222222,2,object_01,1,3358,0,7,2,restaurant_19,2,memory-2step-stake-s,696,3032499,0.0-18.0-0.1-0.201,4486,8,7
202,4,object_02,object_04,516.485,8,1,294.095,0.0,2,object_01,5,3358,0,4,0,restaurant_23,2,memory-2step-stake-s,697,3040010,0.0-18.0-0.1-0.202,4486,8,7
203,1,object_10,object_09,831.855,1,1,269.04,0.8888888888888888,1,object_05,5,3398,0,8,1,desert_13,2,memory-2step-stake-s,698,3048307,0.0-18.0-0.1-0.203,4486,1,2
204,3,object_06,object_08,995.6299999,5,1,465.8,0.7777777777777778,1,object_05,5,3433,0,7,2,library_21,2,memory-2step-stake-s,699,3056701,0.0-18.0-0.1-0.204,4486,5,6
205,1,object_09,object_10,710.46,2,1,312.26,0.0,2,object_01,1,3433,0,6,0,desert_13,2,memory-2step-stake-s,700,3064231,0.0-18.0-0.1-0.205,4486,2,1
206,1,object_10,object_09,633.9649999,1,1,290.38499989999997,0.7777777777777778,1,object_05,5,3468,0,7,1,desert_4,2,memory-2step-stake-s,701,3072448,0.0-18.0-0.1-0.206,4486,1,2
207,3,object_06,object_08,668.19,6,2,328.34,0.1111111111111111,2,object_01,1,3469,0,8,1,library_6,2,memory-2step-stake-s,702,3080095,0.0-18.0-0.1-0.207,4486,5,6
208,3,object_08,object_06,703.635,6,1,426.95,0.2222222222222222,2,object_01,1,3471,0,9,2,library_10,2,memory-2step-stake-s,703,3087943,0.0-18.0-0.1-0.208,4486,6,5
209,2,object_03,object_07,697.295,3,1,484.86000010000004,0.6666666666666666,1,object_05,5,3501,0,6,1,forest_21,2,memory-2step-stake-s,704,3096251,0.0-18.0-0.1-0.209,4486,3,4
210,3,object_06,object_08,629.6499999,6,2,391.26999989999996,0.2222222222222222,2,object_01,1,3503,0,4,2,library_25,2,memory-2step-stake-s,705,3104063,0.0-18.0-0.1-0.210,4486,5,6
211,3,object_08,object_06,682.8849999,6,1,372.175,0.0,2,object_01,1,3503,0,5,0,library_8,2,memory-2step-stake-s,706,3111651,0.0-18.0-0.1-0.211,4486,6,5
212,4,object_04,object_02,738.245,8,2,283.9650001,0.2222222222222222,2,object_01,1,3505,0,4,2,restaurant_31,2,memory-2step-stake-s,707,3119361,0.0-18.0-0.1-0.212,4486,7,8
213,2,object_03,object_07,477.18,3,1,439.885,0.2222222222222222,1,object_05,5,3515,0,2,3,forest_32,2,memory-2step-stake-s,708,3127220,0.0-18.0-0.1-0.213,4486,3,4
214,1,object_10,object_09,687.87,2,2,273.0950001,0.3333333333333333,2,object_01,5,3530,0,3,3,desert_12,2,memory-2step-stake-s,709,3135017,0.0-18.0-0.1-0.214,4486,1,2
215,4,object_02,object_04,719.3049999,8,1,293.5050001,0.3333333333333333,2,object_01,1,3533,0,3,3,restaurant_1,2,memory-2step-stake-s,710,3142832,0.0-18.0-0.1-0.215,4486,8,7
216,3,object_06,object_08,580.6699999,5,1,334.285,0.1111111111111111,1,object_05,1,3534,0,1,6,library_19,2,memory-2step-stake-s,711,3150484,0.0-18.0-0.1-0.216,4486,5,6
217,2,object_03,object_07,733.2799999,3,1,273.6000001,0.0,1,object_05,1,3534,0,0,7,forest_25,2,memory-2step-stake-s,712,3157977,0.0-18.0-0.1-0.217,4486,3,4
218,2,object_03,object_07,549.12,4,2,331.98500010000004,0.8888888888888888,2,object_01,5,3574,0,0,8,forest_17,2,memory-2step-stake-s,713,3166335,0.0-18.0-0.1-0.218,4486,3,4
219,2,object_03,object_07,443.8,3,1,299.78,0.1111111111111111,1,object_05,1,3575,0,1,7,forest_13,2,memory-2step-stake-s,714,3173955,0.0-18.0-0.1-0.219,4486,3,4
220,3,object_06,object_08,783.3400001,5,1,295.825,0.1111111111111111,1,object_05,1,3576,0,1,6,library_12,2,memory-2step-stake-s,715,3181568,0.0-18.0-0.1-0.220,4486,5,6
221,2,object_03,object_07,725.885,3,1,453.92,0.1111111111111111,1,object_05,1,3577,0,1,3,forest_25,2,memory-2step-stake-s,716,3189341,0.0-18.0-0.1-0.221,4486,3,4
222,1,object_09,object_10,1225.675,2,1,284.2600001,0.0,2,object_01,5,3577,0,0,0,desert_26,2,memory-2step-stake-s,717,3196844,0.0-18.0-0.1-0.222,4486,2,1
223,4,object_02,object_04,650.665,7,2,300.525,0.1111111111111111,1,object_05,5,3582,0,1,1,restaurant_16,2,memory-2step-stake-s,718,3204460,0.0-18.0-0.1-0.223,4486,8,7
224,1,object_09,object_10,479.555,2,1,280.12,0.0,2,object_01,1,3582,0,2,0,desert_27,2,memory-2step-stake-s,719,3211961,0.0-18.0-0.1-0.224,4486,2,1
225,3,object_08,object_06,771.865,6,1,267.73,0.3333333333333333,2,object_01,1,3585,0,3,3,library_12,2,memory-2step-stake-s,720,3219751,0.0-18.0-0.1-0.225,4486,6,5
226,1,object_09,object_10,622.115,2,1,259.675,0.6666666666666666,2,object_01,5,3615,0,6,6,desert_26,2,memory-2step-stake-s,721,3227836,0.0-18.0-0.1-0.226,4486,2,1
227,3,object_08,object_06,450.3200001,5,2,293.01,0.7777777777777778,1,object_05,1,3622,0,7,1,library_4,2,memory-2step-stake-s,722,3236055,0.0-18.0-0.1-0.227,4486,6,5
228,1,object_10,object_09,706.96,1,1,289.0,0.6666666666666666,1,object_05,5,3652,0,6,1,desert_6,2,memory-2step-stake-s,723,3244170,0.0-18.0-0.1-0.228,4486,1,2
229,4,object_02,object_04,1219.65,7,2,310.545,1.0,1,object_05,1,3661,0,9,0,restaurant_10,2,memory-2step-stake-s,724,3252610,0.0-18.0-0.1-0.229,4486,8,7
230,4,object_02,object_04,440.755,8,1,323.825,0.2222222222222222,2,object_01,1,3663,0,8,2,restaurant_7,2,memory-2step-stake-s,725,3260352,0.0-18.0-0.1-0.230,4486,8,7
231,1,object_09,object_10,466.885,1,2,356.005,0.8888888888888888,1,object_05,5,3703,0,8,2,desert_11,2,memory-2step-stake-s,726,3268735,0.0-18.0-0.1-0.231,4486,2,1
232,3,object_08,object_06,647.075,6,1,349.4950001,0.2222222222222222,2,object_01,1,3705,0,9,2,library_8,2,memory-2step-stake-s,727,3276505,0.0-18.0-0.1-0.232,4486,6,5
233,3,object_06,object_08,906.265,6,2,568.305,0.2222222222222222,2,object_01,1,3707,0,6,2,library_7,2,memory-2step-stake-s,728,3284493,0.0-18.0-0.1-0.233,4486,5,6
234,1,object_09,object_10,875.19,1,2,363.7450001,0.7777777777777778,1,object_05,5,3742,0,7,4,desert_24,2,memory-2step-stake-s,729,3292785,0.0-18.0-0.1-0.234,4486,2,1
235,2,object_03,object_07,1226.77,3,1,426.95,0.5555555555555556,1,object_05,5,3767,0,5,2,forest_18,2,memory-2step-stake-s,730,3300935,0.0-18.0-0.1-0.235,4486,3,4
236,1,object_09,object_10,748.995,1,2,311.7,0.2222222222222222,1,object_05,5,3777,0,2,2,desert_24,2,memory-2step-stake-s,731,3308669,0.0-18.0-0.1-0.236,4486,2,1
237,2,object_07,object_03,1196.265,4,1,295.425,0.1111111111111111,2,object_01,5,3782,0,1,1,forest_27,2,memory-2step-stake-s,732,3316288,0.0-18.0-0.1-0.237,4486,4,3
238,1,object_10,object_09,722.245,1,1,250.93,0.1111111111111111,1,object_05,5,3787,0,1,2,desert_27,2,memory-2step-stake-s,733,3323858,0.0-18.0-0.1-0.238,4486,1,2
239,3,object_08,object_06,647.19,6,1,224.68499989999998,0.3333333333333333,2,object_01,5,3802,0,1,3,library_21,2,memory-2step-stake-s,734,3331601,0.0-18.0-0.1-0.239,4486,6,5
240,2,object_03,object_07,630.655,4,2,381.55,0.0,2,object_01,5,3802,0,1,0,forest_21,2,memory-2step-stake-s,735,3339199,0.0-18.0-0.1-0.240,4486,3,4
241,1,object_09,object_10,771.86,1,2,276.04,0.3333333333333333,1,object_05,5,3817,0,3,1,desert_20,2,memory-2step-stake-s,736,3346999,0.0-18.0-0.1-0.241,4486,2,1
242,2,object_03,object_07,627.5650001,3,1,275.545,0.2222222222222222,1,object_05,5,3827,0,2,1,forest_11,2,memory-2step-stake-s,737,3354694,0.0-18.0-0.1-0.242,4486,3,4
243,2,object_07,object_03,837.525,3,2,286.6199999,0.0,1,object_05,5,3827,0,0,2,forest_29,2,memory-2step-stake-s,738,3362198,0.0-18.0-0.1-0.243,4486,4,3
244,4,object_02,object_04,671.245,7,2,261.185,0.2222222222222222,1,object_05,1,3829,0,2,0,restaurant_31,2,memory-2step-stake-s,739,3369881,0.0-18.0-0.1-0.244,4486,8,7
245,1,object_09,object_10,721.215,2,1,304.89,0.2222222222222222,2,object_01,5,3839,0,3,2,desert_23,2,memory-2step-stake-s,740,3377603,0.0-18.0-0.1-0.245,4486,2,1
246,1,object_09,object_10,648.63,1,2,264.95,0.4444444444444444,1,object_05,5,3859,0,4,1,desert_18,2,memory-2step-stake-s,741,3385494,0.0-18.0-0.1-0.246,4486,2,1
247,1,object_10,object_09,705.07,2,2,270.32,0.6666666666666666,2,object_01,1,3865,0,1,6,desert_16,2,memory-2step-stake-s,742,3393590,0.0-18.0-0.1-0.247,4486,1,2
248,1,object_10,object_09,474.76,2,2,335.07,1.0,2,object_01,5,3910,0,0,9,desert_12,2,memory-2step-stake-s,743,3402054,0.0-18.0-0.1-0.248,4486,1,2
249,1,object_09,object_10,820.77,2,1,341.0700001,0.8888888888888888,2,object_01,5,3950,0,6,8,desert_24,2,memory-2step-stake-s,744,3410427,0.0-18.0-0.1-0.249,4486,2,1
250,2,object_03,object_07,806.455,4,2,494.505,0.7777777777777778,2,object_01,5,3985,0,6,7,forest_23,2,memory-2step-stake-s,745,3418846,0.0-18.0-0.1-0.250,4486,3,4
251,1,object_09,object_10,568.6150001,2,1,356.2200001,0.8888888888888888,2,object_01,5,4025,0,5,8,desert_19,2,memory-2step-stake-s,746,3427229,0.0-18.0-0.1-0.251,4486,2,1
252,3,object_08,object_06,990.81,5,2,295.7,0.5555555555555556,1,object_05,1,4030,0,5,3,library_25,2,memory-2step-stake-s,747,3435247,0.0-18.0-0.1-0.252,4486,6,5
253,1,object_10,object_09,804.135,2,2,248.9799999,0.0,2,object_01,5,4030,0,4,0,desert_16,2,memory-2step-stake-s,748,3442713,0.0-18.0-0.1-0.253,4486,1,2
254,1,object_09,object_10,714.275,1,2,349.84,0.5555555555555556,1,object_05,5,4055,0,5,1,desert_7,2,memory-2step-stake-s,749,3450786,0.0-18.0-0.1-0.254,4486,2,1
255,4,object_02,object_04,630.2199999,8,1,260.6950001,0.3333333333333333,2,object_01,1,4058,0,2,3,restaurant_8,2,memory-2step-stake-s,750,3458568,0.0-18.0-0.1-0.255,4486,8,7
