,state1,stim_left,stim_right,rt_1,choice1,response1,rt_2,points,state2,stim_state2,stake,score,practice,rews1,rews2,background,high_arm,trial_type,trial_index,time_elapsed,internal_node_id,subid,stim_left_num,stim_right_num
0,2,object_07,object_05,925.795,3,2,-1.0,0.0,1,object_09,5,0,0,8,0,forest_29,2,memory-2step-stake-s,487,821441,0.0-18.0-0.0-0.0,811,4,3
1,1,object_01,object_04,835.93,2,1,-1.0,0.0,2,object_03,5,0,0,6,0,desert_28,2,memory-2step-stake-s,488,829962,0.0-18.0-0.0-0.1,811,2,1
2,3,object_08,object_02,-1.0,-1,-1,-1.0,0.0,-,,1,0,0,5,0,library_23,2,memory-2step-stake-s,489,836477,0.0-18.0-0.0-0.2,811,6,5
3,3,object_02,object_08,452.865,6,2,-1.0,0.0,2,object_03,1,0,0,8,2,library_25,2,memory-2step-stake-s,490,844998,0.0-18.0-0.0-0.3,811,5,6
4,4,object_06,object_10,758.2,7,2,-1.0,0.0,1,object_09,1,0,0,9,5,restaurant_22,2,memory-2step-stake-s,491,853522,0.0-18.0-0.0-0.4,811,8,7
5,4,object_10,object_06,617.45,8,2,-1.0,0.0,2,object_03,1,0,0,7,5,restaurant_28,2,memory-2step-stake-s,492,862042,0.0-18.0-0.0-0.5,811,7,8
6,1,object_04,object_01,709.58,1,1,-1.0,0.0,1,object_09,5,0,0,6,5,desert_13,2,memory-2step-stake-s,493,870563,0.0-18.0-0.0-0.6,811,1,2
7,2,object_05,object_07,599.715,4,2,-1.0,0.0,2,object_03,5,0,0,6,7,forest_21,2,memory-2step-stake-s,494,879083,0.0-18.0-0.0-0.7,811,3,4
8,2,object_05,object_07,603.415,3,1,-1.0,0.0,1,object_09,1,0,0,4,5,forest_11,2,memory-2step-stake-s,495,887602,0.0-18.0-0.0-0.8,811,3,4
9,1,object_01,object_04,1102.185,1,2,502.33,0.3333333333333333,1,object_09,5,15,0,3,5,desert_9,2,memory-2step-stake-s,496,895626,0.0-18.0-0.0-0.9,811,2,1
10,1,object_01,object_04,410.215,2,1,342.535,0.2222222222222222,2,object_03,5,25,0,0,2,desert_11,2,memory-2step-stake-s,497,903394,0.0-18.0-0.0-0.10,811,2,1
11,1,object_04,object_01,317.845,2,2,441.63,0.2222222222222222,2,object_03,1,27,0,1,2,desert_20,2,memory-2step-stake-s,498,911259,0.0-18.0-0.0-0.11,811,1,2
12,2,object_07,object_05,519.97,4,1,1001.335,0.3333333333333333,2,object_03,5,42,0,1,3,forest_19,2,memory-2step-stake-s,499,919786,0.0-18.0-0.0-0.12,811,4,3
13,4,object_06,object_10,935.43,8,1,893.24,0.1111111111111111,2,object_03,1,43,0,2,1,restaurant_3,2,memory-2step-stake-s,500,927998,0.0-18.0-0.0-0.13,811,8,7
14,4,object_06,object_10,333.415,7,2,561.13,0.0,1,object_09,1,43,0,0,0,restaurant_12,2,memory-2step-stake-s,501,935780,0.0-18.0-0.0-0.14,811,8,7
15,1,object_04,object_01,695.02,1,1,852.785,0.1111111111111111,1,object_09,5,48,0,1,1,desert_13,2,memory-2step-stake-s,502,943956,0.0-18.0-0.0-0.15,811,1,2
16,4,object_10,object_06,650.955,7,1,713.415,0.1111111111111111,1,object_09,1,49,0,1,0,restaurant_12,2,memory-2step-stake-s,503,951989,0.0-18.0-0.0-0.16,811,7,8
17,4,object_06,object_10,598.625,8,1,288.75,0.1111111111111111,2,object_03,5,54,0,1,1,restaurant_28,2,memory-2step-stake-s,504,959599,0.0-18.0-0.0-0.17,811,8,7
18,1,object_01,object_04,541.205,1,2,699.385,0.3333333333333333,1,object_09,5,69,0,3,1,desert_21,2,memory-2step-stake-s,505,967826,0.0-18.0-0.0-0.18,811,2,1
19,2,object_05,object_07,410.88,4,2,676.275,0.1111111111111111,2,object_03,5,74,0,2,1,forest_19,2,memory-2step-stake-s,506,975823,0.0-18.0-0.0-0.19,811,3,4
20,2,object_07,object_05,902.855,3,2,471.22,0.2222222222222222,1,object_09,5,84,0,2,3,forest_14,2,memory-2step-stake-s,507,983716,0.0-18.0-0.0-0.20,811,4,3
21,3,object_02,object_08,552.645,5,1,462.78,0.1111111111111111,1,object_09,1,85,0,1,2,library_1,2,memory-2step-stake-s,508,991498,0.0-18.0-0.0-0.21,811,5,6
22,3,object_02,object_08,413.165,6,2,468.26,0.1111111111111111,2,object_03,1,86,0,1,1,library_25,2,memory-2step-stake-s,509,999287,0.0-18.0-0.0-0.22,811,5,6
23,1,object_04,object_01,496.78,1,1,419.635,0.1111111111111111,1,object_09,5,91,0,1,5,desert_10,2,memory-2step-stake-s,510,1007026,0.0-18.0-0.0-0.23,811,1,2
24,2,object_07,object_05,296.535,3,2,433.615,0.2222222222222222,1,object_09,5,101,0,2,2,forest_23,2,memory-2step-stake-s,511,1014884,0.0-18.0-0.0-0.24,811,4,3
25,3,object_02,object_08,578.365,6,2,694.83,0.3333333333333333,2,object_03,1,104,0,2,3,library_9,2,memory-2step-stake-s,512,1023101,0.0-18.0-0.0-0.25,811,5,6
26,3,object_02,object_08,531.325,5,1,229.73,0.0,1,object_09,1,104,0,0,4,library_30,2,memory-2step-stake-s,513,1030550,0.0-18.0-0.0-0.26,811,5,6
27,2,object_07,object_05,873.385,4,1,459.045,0.3333333333333333,2,object_03,5,119,0,0,3,forest_3,2,memory-2step-stake-s,514,1038533,0.0-18.0-0.0-0.27,811,4,3
28,2,object_07,object_05,549.965,4,1,438.45,0.5555555555555556,2,object_03,1,124,0,4,5,forest_30,2,memory-2step-stake-s,515,1046703,0.0-18.0-0.0-0.28,811,4,3
29,2,object_07,object_05,567.875,4,1,332.32,0.5555555555555556,2,object_03,1,129,0,4,5,forest_12,2,memory-2step-stake-s,516,1054763,0.0-18.0-0.0-0.29,811,4,3
30,1,object_01,object_04,855.075,1,2,606.785,0.7777777777777778,1,object_09,5,164,0,7,7,desert_10,2,memory-2step-stake-s,517,1063300,0.0-18.0-0.0-0.30,811,2,1
31,3,object_02,object_08,526.095,6,2,593.015,0.8888888888888888,2,object_03,1,172,0,4,8,library_30,2,memory-2step-stake-s,518,1071924,0.0-18.0-0.0-0.31,811,5,6
32,4,object_10,object_06,754.79,7,1,839.995,0.3333333333333333,1,object_09,5,187,0,3,8,restaurant_2,2,memory-2step-stake-s,519,1080290,0.0-18.0-0.0-0.32,811,7,8
33,1,object_04,object_01,1204.33,1,1,498.11,0.2222222222222222,1,object_09,5,197,0,2,5,desert_14,2,memory-2step-stake-s,520,1088207,0.0-18.0-0.0-0.33,811,1,2
34,4,object_10,object_06,608.55,7,1,557.11,0.0,1,object_09,1,197,0,0,6,restaurant_20,2,memory-2step-stake-s,521,1095984,0.0-18.0-0.0-0.34,811,7,8
35,4,object_06,object_10,917.46,8,1,401.72,0.5555555555555556,2,object_03,1,202,0,1,5,restaurant_3,2,memory-2step-stake-s,522,1104109,0.0-18.0-0.0-0.35,811,8,7
36,4,object_06,object_10,661.285,8,1,270.035,0.6666666666666666,2,object_03,1,208,0,1,6,restaurant_10,2,memory-2step-stake-s,523,1112205,0.0-18.0-0.0-0.36,811,8,7
37,4,object_06,object_10,627.89,8,1,497.795,0.7777777777777778,2,object_03,1,215,0,0,7,restaurant_20,2,memory-2step-stake-s,524,1120631,0.0-18.0-0.0-0.37,811,8,7
38,3,object_02,object_08,1094.47,6,2,488.07,0.7777777777777778,2,object_03,1,222,0,2,7,library_10,2,memory-2step-stake-s,525,1129047,0.0-18.0-0.0-0.38,811,5,6
39,4,object_06,object_10,911.23,8,1,318.945,1.0,2,object_03,1,231,0,2,9,restaurant_31,2,memory-2step-stake-s,526,1137500,0.0-18.0-0.0-0.39,811,8,7
40,2,object_07,object_05,847.42,4,1,496.365,0.7777777777777778,2,object_03,5,266,0,4,7,forest_20,2,memory-2step-stake-s,527,1145926,0.0-18.0-0.0-0.40,811,4,3
41,3,object_08,object_02,1104.335,5,2,364.355,0.6666666666666666,1,object_09,1,272,0,6,8,library_9,2,memory-2step-stake-s,528,1154118,0.0-18.0-0.0-0.41,811,6,5
42,2,object_05,object_07,771.83,3,1,244.66,0.8888888888888888,1,object_09,5,312,0,8,8,forest_21,2,memory-2step-stake-s,529,1162394,0.0-18.0-0.0-0.42,811,3,4
43,3,object_02,object_08,849.69,5,1,369.475,0.5555555555555556,1,object_09,1,317,0,5,7,library_8,2,memory-2step-stake-s,530,1170486,0.0-18.0-0.0-0.43,811,5,6
44,1,object_04,object_01,844.37,1,1,598.81,0.5555555555555556,1,object_09,5,342,0,5,9,desert_5,2,memory-2step-stake-s,531,1178811,0.0-18.0-0.0-0.44,811,1,2
45,2,object_05,object_07,670.66,4,2,365.805,0.8888888888888888,2,object_03,5,382,0,5,8,forest_20,2,memory-2step-stake-s,532,1187208,0.0-18.0-0.0-0.45,811,3,4
46,2,object_05,object_07,829.66,4,2,506.02,0.7777777777777778,2,object_03,5,417,0,6,7,forest_28,2,memory-2step-stake-s,533,1195641,0.0-18.0-0.0-0.46,811,3,4
47,1,object_01,object_04,836.04,2,1,414.985,0.6666666666666666,2,object_03,5,447,0,6,6,desert_30,2,memory-2step-stake-s,534,1203883,0.0-18.0-0.0-0.47,811,2,1
48,3,object_08,object_02,875.045,5,2,477.49,0.5555555555555556,1,object_09,5,472,0,5,8,library_6,2,memory-2step-stake-s,535,1212088,0.0-18.0-0.0-0.48,811,6,5
49,4,object_06,object_10,985.315,8,1,510.93,1.0,2,object_03,1,481,0,2,9,restaurant_12,2,memory-2step-stake-s,536,1220728,0.0-18.0-0.0-0.49,811,8,7
50,4,object_10,object_06,1105.69,8,2,573.33,1.0,2,object_03,5,526,0,1,9,restaurant_24,2,memory-2step-stake-s,537,1229434,0.0-18.0-0.0-0.50,811,7,8
51,3,object_08,object_02,560.695,5,2,313.765,0.0,1,object_09,5,526,0,0,8,library_32,2,memory-2step-stake-s,538,1236966,0.0-18.0-0.0-0.51,811,6,5
52,2,object_07,object_05,643.155,4,1,464.225,0.7777777777777778,2,object_03,5,561,0,0,7,forest_30,2,memory-2step-stake-s,539,1245359,0.0-18.0-0.0-0.52,811,4,3
53,2,object_07,object_05,621.61,4,1,352.87,0.7777777777777778,2,object_03,5,596,0,0,7,forest_30,2,memory-2step-stake-s,540,1253643,0.0-18.0-0.0-0.53,811,4,3
54,2,object_07,object_05,568.48,4,1,490.09,0.7777777777777778,2,object_03,5,631,0,2,7,forest_28,2,memory-2step-stake-s,541,1262064,0.0-18.0-0.0-0.54,811,4,3
55,4,object_10,object_06,870.815,8,2,673.17,0.6666666666666666,2,object_03,1,637,0,1,6,restaurant_31,2,memory-2step-stake-s,542,1270564,0.0-18.0-0.0-0.55,811,7,8
56,2,object_05,object_07,642.865,3,1,337.0,0.0,1,object_09,1,637,0,0,5,forest_5,2,memory-2step-stake-s,543,1278122,0.0-18.0-0.0-0.56,811,3,4
57,1,object_01,object_04,1031.885,2,1,474.25,0.6666666666666666,2,object_03,5,667,0,2,6,desert_8,2,memory-2step-stake-s,544,1286426,0.0-18.0-0.0-0.57,811,2,1
58,1,object_04,object_01,851.965,1,1,507.87,0.2222222222222222,1,object_09,5,677,0,2,3,desert_14,2,memory-2step-stake-s,545,1294357,0.0-18.0-0.0-0.58,811,1,2
59,3,object_02,object_08,705.535,6,2,524.89,0.3333333333333333,2,object_03,1,680,0,1,3,library_13,2,memory-2step-stake-s,546,1302403,0.0-18.0-0.0-0.59,811,5,6
60,3,object_08,object_02,589.715,6,1,458.375,0.5555555555555556,2,object_03,1,685,0,2,5,library_13,2,memory-2step-stake-s,547,1310585,0.0-18.0-0.0-0.60,811,6,5
61,2,object_05,object_07,634.88,4,2,388.89,0.5555555555555556,2,object_03,5,710,0,3,5,forest_3,2,memory-2step-stake-s,548,1318700,0.0-18.0-0.0-0.61,811,3,4
62,2,object_05,object_07,472.305,4,2,1418.385,0.8888888888888888,2,object_03,5,750,0,7,8,forest_2,2,memory-2step-stake-s,549,1328152,0.0-18.0-0.0-0.62,811,3,4
63,1,object_04,object_01,839.205,2,2,483.065,0.7777777777777778,2,object_03,5,785,0,7,7,desert_23,2,memory-2step-stake-s,550,1336563,0.0-18.0-0.0-0.63,811,1,2
64,1,object_01,object_04,572.735,1,2,222.525,1.0,1,object_09,5,830,0,9,7,desert_28,2,memory-2step-stake-s,551,1344913,0.0-18.0-0.0-0.64,811,2,1
65,3,object_02,object_08,-1.0,-1,-1,-1.0,0.0,-,,1,830,0,6,9,library_10,2,memory-2step-stake-s,552,1351425,0.0-18.0-0.0-0.65,811,5,6
66,2,object_05,object_07,700.88,3,1,238.9,0.4444444444444444,1,object_09,5,850,0,4,6,forest_14,2,memory-2step-stake-s,553,1359291,0.0-18.0-0.0-0.66,811,3,4
67,2,object_07,object_05,995.545,4,1,855.775,0.8888888888888888,2,object_03,5,890,0,4,8,forest_12,2,memory-2step-stake-s,554,1368177,0.0-18.0-0.0-0.67,811,4,3
68,2,object_05,object_07,385.01,4,2,454.885,0.6666666666666666,2,object_03,5,920,0,2,6,forest_28,2,memory-2step-stake-s,555,1376457,0.0-18.0-0.0-0.68,811,3,4
69,3,object_08,object_02,593.355,5,2,282.9,0.6666666666666666,1,object_09,1,926,0,6,9,library_25,2,memory-2step-stake-s,556,1384567,0.0-18.0-0.0-0.69,811,6,5
70,4,object_10,object_06,747.64,7,1,738.445,1.0,1,object_09,5,971,0,9,7,restaurant_4,2,memory-2step-stake-s,557,1393436,0.0-18.0-0.0-0.70,811,7,8
71,1,object_04,object_01,523.48,2,2,522.005,0.8888888888888888,2,object_03,5,1011,0,8,8,desert_26,2,memory-2step-stake-s,558,1401989,0.0-18.0-0.0-0.71,811,1,2
72,4,object_06,object_10,351.62,7,2,339.455,0.6666666666666666,1,object_09,1,1017,0,6,7,restaurant_26,2,memory-2step-stake-s,559,1410158,0.0-18.0-0.0-0.72,811,8,7
73,2,object_07,object_05,349.175,4,1,275.37,0.6666666666666666,2,object_03,5,1047,0,6,6,forest_21,2,memory-2step-stake-s,560,1418258,0.0-18.0-0.0-0.73,811,4,3
74,3,object_02,object_08,563.42,6,2,202.11,0.5555555555555556,2,object_03,1,1052,0,6,5,library_20,2,memory-2step-stake-s,561,1426184,0.0-18.0-0.0-0.74,811,5,6
75,4,object_06,object_10,602.485,8,1,503.095,0.6666666666666666,2,object_03,1,1058,0,2,6,restaurant_8,2,memory-2step-stake-s,562,1434515,0.0-18.0-0.0-0.75,811,8,7
76,4,object_06,object_10,554.49,7,2,183.49,0.6666666666666666,1,object_09,1,1064,0,6,9,restaurant_14,2,memory-2step-stake-s,563,1442528,0.0-18.0-0.0-0.76,811,8,7
77,3,object_08,object_02,625.345,5,2,501.9,0.4444444444444444,1,object_09,1,1068,0,4,7,library_6,2,memory-2step-stake-s,564,1450653,0.0-18.0-0.0-0.77,811,6,5
78,3,object_08,object_02,595.085,6,1,344.825,1.0,2,object_03,1,1077,0,2,9,library_8,2,memory-2step-stake-s,565,1459128,0.0-18.0-0.0-0.78,811,6,5
79,2,object_07,object_05,513.65,4,1,241.985,0.6666666666666666,2,object_03,1,1083,0,1,6,forest_23,2,memory-2step-stake-s,566,1467195,0.0-18.0-0.0-0.79,811,4,3
80,2,object_05,object_07,622.155,4,2,268.29,0.7777777777777778,2,object_03,5,1118,0,2,7,forest_23,2,memory-2step-stake-s,567,1475390,0.0-18.0-0.0-0.80,811,3,4
81,1,object_01,object_04,694.04,1,2,683.075,0.1111111111111111,1,object_09,1,1119,0,1,8,desert_29,2,memory-2step-stake-s,568,1483392,0.0-18.0-0.0-0.81,811,2,1
82,4,object_10,object_06,1194.54,8,2,460.86,0.8888888888888888,2,object_03,1,1127,0,2,8,restaurant_24,2,memory-2step-stake-s,569,1491882,0.0-18.0-0.0-0.82,811,7,8
83,3,object_02,object_08,578.105,6,2,344.815,0.8888888888888888,2,object_03,1,1135,0,0,8,library_25,2,memory-2step-stake-s,570,1500260,0.0-18.0-0.0-0.83,811,5,6
84,3,object_02,object_08,407.095,6,2,-1.0,0.0,2,object_03,1,1135,0,0,9,library_10,2,memory-2step-stake-s,571,1508780,0.0-18.0-0.0-0.84,811,5,6
85,4,object_06,object_10,755.915,8,1,165.06,0.7777777777777778,2,object_03,5,1170,0,2,7,restaurant_2,2,memory-2step-stake-s,572,1516877,0.0-18.0-0.0-0.85,811,8,7
86,2,object_05,object_07,524.77,4,2,177.215,0.7777777777777778,2,object_03,5,1205,0,6,7,forest_26,2,memory-2step-stake-s,573,1524985,0.0-18.0-0.0-0.86,811,3,4
87,1,object_01,object_04,979.805,1,2,448.145,0.6666666666666666,1,object_09,5,1235,0,6,8,desert_11,2,memory-2step-stake-s,574,1533261,0.0-18.0-0.0-0.87,811,2,1
88,4,object_10,object_06,673.24,8,2,226.165,1.0,2,object_03,1,1244,0,3,9,restaurant_32,2,memory-2step-stake-s,575,1541615,0.0-18.0-0.0-0.88,811,7,8
89,4,object_06,object_10,923.27,7,2,353.675,0.2222222222222222,1,object_09,5,1254,0,2,9,restaurant_14,2,memory-2step-stake-s,576,1549389,0.0-18.0-0.0-0.89,811,8,7
90,1,object_04,object_01,732.94,2,2,323.985,0.7777777777777778,2,object_03,5,1289,0,4,7,desert_29,2,memory-2step-stake-s,577,1557643,0.0-18.0-0.0-0.90,811,1,2
91,2,object_05,object_07,548.47,4,2,219.05,0.8888888888888888,2,object_03,5,1329,0,6,8,forest_23,2,memory-2step-stake-s,578,1565889,0.0-18.0-0.0-0.91,811,3,4
92,4,object_10,object_06,737.575,8,2,311.78,0.7777777777777778,2,object_03,1,1336,0,8,7,restaurant_32,2,memory-2step-stake-s,579,1574131,0.0-18.0-0.0-0.92,811,7,8
93,3,object_08,object_02,653.56,6,1,520.33,0.8888888888888888,2,object_03,1,1344,0,4,8,library_31,2,memory-2step-stake-s,580,1582680,0.0-18.0-0.0-0.93,811,6,5
94,3,object_02,object_08,385.21,6,2,387.755,0.4444444444444444,2,object_03,1,1348,0,5,4,library_30,2,memory-2step-stake-s,581,1590692,0.0-18.0-0.0-0.94,811,5,6
95,3,object_02,object_08,362.91,5,1,234.775,0.2222222222222222,1,object_09,1,1350,0,2,7,library_23,2,memory-2step-stake-s,582,1598349,0.0-18.0-0.0-0.95,811,5,6
96,3,object_08,object_02,660.545,6,1,221.71,0.6666666666666666,2,object_03,1,1356,0,0,6,library_23,2,memory-2step-stake-s,583,1606399,0.0-18.0-0.0-0.96,811,6,5
97,1,object_04,object_01,701.13,2,2,434.475,0.3333333333333333,2,object_03,1,1359,0,3,3,desert_10,2,memory-2step-stake-s,584,1614357,0.0-18.0-0.0-0.97,811,1,2
98,4,object_10,object_06,785.895,7,1,470.085,0.5555555555555556,1,object_09,5,1384,0,5,1,restaurant_4,2,memory-2step-stake-s,585,1622556,0.0-18.0-0.0-0.98,811,7,8
99,4,object_10,object_06,556.88,7,1,334.125,0.1111111111111111,1,object_09,1,1385,0,1,1,restaurant_14,2,memory-2step-stake-s,586,1630210,0.0-18.0-0.0-0.99,811,7,8
100,2,object_07,object_05,716.695,4,1,177.77,0.2222222222222222,2,object_03,5,1395,0,1,2,forest_29,2,memory-2step-stake-s,587,1637816,0.0-18.0-0.0-0.100,811,4,3
101,4,object_06,object_10,657.545,7,2,278.245,0.1111111111111111,1,object_09,1,1396,0,1,3,restaurant_8,2,memory-2step-stake-s,588,1645416,0.0-18.0-0.0-0.101,811,8,7
102,3,object_02,object_08,620.99,6,2,364.635,0.4444444444444444,2,object_03,1,1400,0,2,4,library_20,2,memory-2step-stake-s,589,1653407,0.0-18.0-0.0-0.102,811,5,6
103,2,object_05,object_07,571.945,4,2,384.97,0.2222222222222222,2,object_03,5,1410,0,2,2,forest_3,2,memory-2step-stake-s,590,1661217,0.0-18.0-0.0-0.103,811,3,4
104,4,object_10,object_06,738.215,8,2,375.675,0.5555555555555556,2,object_03,1,1415,0,4,5,restaurant_26,2,memory-2step-stake-s,591,1669319,0.0-18.0-0.0-0.104,811,7,8
105,2,object_05,object_07,594.815,4,2,330.33,0.3333333333333333,2,object_03,5,1430,0,5,3,forest_20,2,memory-2step-stake-s,592,1677174,0.0-18.0-0.0-0.105,811,3,4
106,1,object_01,object_04,981.245,1,2,436.455,0.2222222222222222,1,object_09,5,1440,0,2,6,desert_26,2,memory-2step-stake-s,593,1685029,0.0-18.0-0.0-0.106,811,2,1
107,4,object_10,object_06,714.16,8,2,195.95,1.0,2,object_03,1,1449,0,1,9,restaurant_23,2,memory-2step-stake-s,594,1693354,0.0-18.0-0.0-0.107,811,7,8
108,1,object_01,object_04,1279.8,2,1,459.465,0.8888888888888888,2,object_03,5,1489,0,4,8,desert_23,2,memory-2step-stake-s,595,1701845,0.0-18.0-0.0-0.108,811,2,1
109,4,object_06,object_10,903.575,8,1,294.815,0.8888888888888888,2,object_03,1,1497,0,3,8,restaurant_23,2,memory-2step-stake-s,596,1710173,0.0-18.0-0.0-0.109,811,8,7
110,2,object_07,object_05,483.91,4,1,235.29,1.0,2,object_03,5,1542,0,3,9,forest_8,2,memory-2step-stake-s,597,1718536,0.0-18.0-0.0-0.110,811,4,3
111,4,object_06,object_10,778.04,8,1,249.72,0.5555555555555556,2,object_03,1,1547,0,0,5,restaurant_13,2,memory-2step-stake-s,598,1726507,0.0-18.0-0.0-0.111,811,8,7
112,2,object_05,object_07,469.415,4,2,308.435,0.4444444444444444,2,object_03,5,1567,0,1,4,forest_19,2,memory-2step-stake-s,599,1734439,0.0-18.0-0.0-0.112,811,3,4
113,1,object_01,object_04,833.37,1,2,409.82,0.4444444444444444,1,object_09,5,1587,0,4,6,desert_14,2,memory-2step-stake-s,600,1742476,0.0-18.0-0.0-0.113,811,2,1
114,1,object_04,object_01,1074.49,1,1,394.375,0.5555555555555556,1,object_09,5,1612,0,5,7,desert_20,2,memory-2step-stake-s,601,1750595,0.0-18.0-0.0-0.114,811,1,2
115,3,object_08,object_02,599.535,5,2,305.22,0.8888888888888888,1,object_09,1,1620,0,8,7,library_32,2,memory-2step-stake-s,602,1758930,0.0-18.0-0.0-0.115,811,6,5
116,3,object_02,object_08,457.955,6,2,203.77,0.7777777777777778,2,object_03,1,1627,0,8,7,library_2,2,memory-2step-stake-s,603,1767063,0.0-18.0-0.0-0.116,811,5,6
117,1,object_01,object_04,683.685,2,1,286.665,0.5555555555555556,2,object_03,1,1632,0,8,5,desert_12,2,memory-2step-stake-s,604,1775075,0.0-18.0-0.0-0.117,811,2,1
118,4,object_06,object_10,550.82,8,1,219.545,0.6666666666666666,2,object_03,1,1638,0,7,6,restaurant_3,2,memory-2step-stake-s,605,1783120,0.0-18.0-0.0-0.118,811,8,7
119,2,object_05,object_07,736.2,3,1,369.685,0.8888888888888888,1,object_09,5,1678,0,8,4,forest_14,2,memory-2step-stake-s,606,1791523,0.0-18.0-0.0-0.119,811,3,4
120,4,object_06,object_10,610.34,7,2,322.355,0.8888888888888888,1,object_09,1,1686,0,8,4,restaurant_13,2,memory-2step-stake-s,607,1799879,0.0-18.0-0.0-0.120,811,8,7
121,3,object_08,object_02,550.19,5,2,334.54,0.5555555555555556,1,object_09,1,1691,0,5,4,library_31,2,memory-2step-stake-s,608,1807943,0.0-18.0-0.0-0.121,811,6,5
122,3,object_02,object_08,450.525,6,2,177.43,0.4444444444444444,2,object_03,5,1711,0,5,4,library_12,2,memory-2step-stake-s,609,1815747,0.0-18.0-0.0-0.122,811,5,6
123,4,object_06,object_10,470.74,7,2,332.215,0.7777777777777778,1,object_09,5,1746,0,7,1,restaurant_26,2,memory-2step-stake-s,610,1824010,0.0-18.0-0.0-0.123,811,8,7
124,2,object_07,object_05,487.815,3,2,345.39,0.8888888888888888,1,object_09,1,1754,0,8,3,forest_28,2,memory-2step-stake-s,611,1832384,0.0-18.0-0.0-0.124,811,4,3
125,3,object_02,object_08,865.86,5,1,535.225,0.8888888888888888,1,object_09,1,1762,0,8,2,library_1,2,memory-2step-stake-s,612,1840954,0.0-18.0-0.0-0.125,811,5,6
126,2,object_07,object_05,498.24,3,2,366.96,0.6666666666666666,1,object_09,1,1768,0,6,2,forest_5,2,memory-2step-stake-s,613,1849150,0.0-18.0-0.0-0.126,811,4,3
127,1,object_04,object_01,403.45,2,2,351.685,0.0,2,object_03,5,1768,0,6,0,desert_12,2,memory-2step-stake-s,614,1856723,0.0-18.0-0.0-0.127,811,1,2
128,1,object_04,object_01,813.47,2,2,319.975,0.0,2,object_03,1,1768,0,6,0,desert_13,2,memory-2step-stake-s,616,1902107,0.0-18.0-0.1-0.128,811,1,2
129,2,object_07,object_05,1026.235,3,2,943.195,0.5555555555555556,1,object_09,5,1793,0,5,3,forest_24,2,memory-2step-stake-s,617,1910777,0.0-18.0-0.1-0.129,811,4,3
130,1,object_04,object_01,643.2,1,1,174.885,0.6666666666666666,1,object_09,5,1823,0,6,3,desert_21,2,memory-2step-stake-s,618,1918782,0.0-18.0-0.1-0.130,811,1,2
131,3,object_08,object_02,582.75,5,2,242.715,0.8888888888888888,1,object_09,1,1831,0,8,1,library_2,2,memory-2step-stake-s,619,1927054,0.0-18.0-0.1-0.131,811,6,5
132,2,object_05,object_07,706.87,3,1,363.565,1.0,1,object_09,5,1876,0,9,2,forest_11,2,memory-2step-stake-s,620,1935546,0.0-18.0-0.1-0.132,811,3,4
133,1,object_01,object_04,810.06,1,2,247.73,0.7777777777777778,1,object_09,1,1883,0,7,4,desert_28,2,memory-2step-stake-s,621,1943724,0.0-18.0-0.1-0.133,811,2,1
134,1,object_01,object_04,573.945,1,2,280.2,0.8888888888888888,1,object_09,5,1923,0,8,2,desert_30,2,memory-2step-stake-s,622,1952038,0.0-18.0-0.1-0.134,811,2,1
135,3,object_08,object_02,455.93,5,2,286.875,0.4444444444444444,1,object_09,1,1927,0,4,2,library_12,2,memory-2step-stake-s,623,1959949,0.0-18.0-0.1-0.135,811,6,5
136,1,object_04,object_01,450.255,2,2,267.575,0.3333333333333333,2,object_03,5,1942,0,8,3,desert_12,2,memory-2step-stake-s,624,1967740,0.0-18.0-0.1-0.136,811,1,2
137,3,object_02,object_08,701.815,5,1,335.55,0.6666666666666666,1,object_09,1,1948,0,6,2,library_30,2,memory-2step-stake-s,625,1975905,0.0-18.0-0.1-0.137,811,5,6
138,4,object_10,object_06,801.56,7,1,353.365,0.6666666666666666,1,object_09,1,1954,0,6,1,restaurant_4,2,memory-2step-stake-s,626,1984086,0.0-18.0-0.1-0.138,811,7,8
139,1,object_04,object_01,806.81,1,1,306.615,0.5555555555555556,1,object_09,5,1979,0,5,2,desert_10,2,memory-2step-stake-s,627,1992119,0.0-18.0-0.1-0.139,811,1,2
140,2,object_05,object_07,615.6,4,2,453.885,0.2222222222222222,2,object_03,5,1989,0,7,2,forest_5,2,memory-2step-stake-s,628,1999996,0.0-18.0-0.1-0.140,811,3,4
141,1,object_04,object_01,794.405,1,1,159.375,0.8888888888888888,1,object_09,5,2029,0,8,2,desert_28,2,memory-2step-stake-s,629,2008187,0.0-18.0-0.1-0.141,811,1,2
142,4,object_06,object_10,585.125,7,2,226.375,0.5555555555555556,1,object_09,1,2034,0,5,3,restaurant_10,2,memory-2step-stake-s,630,2016140,0.0-18.0-0.1-0.142,811,8,7
143,3,object_02,object_08,839.93,5,1,184.29,0.4444444444444444,1,object_09,1,2038,0,4,0,library_20,2,memory-2step-stake-s,631,2023947,0.0-18.0-0.1-0.143,811,5,6
144,4,object_10,object_06,505.425,7,1,12.645,0.3333333333333333,1,object_09,5,2053,0,3,3,restaurant_3,2,memory-2step-stake-s,632,2031482,0.0-18.0-0.1-0.144,811,7,8
145,3,object_08,object_02,549.195,6,1,321.76,0.4444444444444444,2,object_03,1,2057,0,3,4,library_27,2,memory-2step-stake-s,633,2039428,0.0-18.0-0.1-0.145,811,6,5
146,1,object_01,object_04,666.515,2,1,362.05,0.5555555555555556,2,object_03,5,2082,0,4,5,desert_29,2,memory-2step-stake-s,634,2047513,0.0-18.0-0.1-0.146,811,2,1
147,3,object_08,object_02,914.225,6,1,448.35,0.2222222222222222,2,object_03,1,2084,0,4,2,library_27,2,memory-2step-stake-s,635,2055382,0.0-18.0-0.1-0.147,811,6,5
148,3,object_08,object_02,435.94,5,2,245.825,0.4444444444444444,1,object_09,1,2088,0,4,1,library_14,2,memory-2step-stake-s,636,2063252,0.0-18.0-0.1-0.148,811,6,5
149,3,object_02,object_08,655.81,5,1,274.855,0.1111111111111111,1,object_09,5,2093,0,1,1,library_6,2,memory-2step-stake-s,637,2070846,0.0-18.0-0.1-0.149,811,5,6
150,1,object_01,object_04,557.695,2,1,181.335,0.2222222222222222,2,object_03,5,2103,0,4,2,desert_20,2,memory-2step-stake-s,638,2078450,0.0-18.0-0.1-0.150,811,2,1
151,1,object_04,object_01,466.78,2,2,415.62,0.1111111111111111,2,object_03,5,2108,0,1,1,desert_5,2,memory-2step-stake-s,639,2086186,0.0-18.0-0.1-0.151,811,1,2
152,1,object_01,object_04,604.5,1,2,196.91,0.1111111111111111,1,object_09,5,2113,0,1,0,desert_9,2,memory-2step-stake-s,640,2093703,0.0-18.0-0.1-0.152,811,2,1
153,1,object_01,object_04,484.225,2,1,325.11,0.2222222222222222,2,object_03,5,2123,0,1,2,desert_5,2,memory-2step-stake-s,641,2101449,0.0-18.0-0.1-0.153,811,2,1
154,2,object_05,object_07,624.915,4,2,475.52,0.2222222222222222,2,object_03,5,2133,0,1,2,forest_8,2,memory-2step-stake-s,642,2109349,0.0-18.0-0.1-0.154,811,3,4
155,4,object_10,object_06,556.885,8,2,283.975,0.3333333333333333,2,object_03,1,2136,0,2,3,restaurant_8,2,memory-2step-stake-s,643,2117157,0.0-18.0-0.1-0.155,811,7,8
156,3,object_02,object_08,472.775,5,1,175.48,0.2222222222222222,1,object_09,1,2138,0,2,5,library_27,2,memory-2step-stake-s,644,2124754,0.0-18.0-0.1-0.156,811,5,6
157,4,object_06,object_10,632.515,8,1,182.645,0.4444444444444444,2,object_03,1,2142,0,1,4,restaurant_10,2,memory-2step-stake-s,645,2132556,0.0-18.0-0.1-0.157,811,8,7
158,4,object_06,object_10,475.79,8,1,345.39,0.4444444444444444,2,object_03,1,2146,0,2,4,restaurant_31,2,memory-2step-stake-s,646,2140525,0.0-18.0-0.1-0.158,811,8,7
159,2,object_05,object_07,344.465,4,2,334.905,0.5555555555555556,2,object_03,1,2151,0,4,5,forest_11,2,memory-2step-stake-s,647,2148586,0.0-18.0-0.1-0.159,811,3,4
160,4,object_10,object_06,671.275,7,1,215.395,0.1111111111111111,1,object_09,1,2152,0,1,6,restaurant_23,2,memory-2step-stake-s,648,2156123,0.0-18.0-0.1-0.160,811,7,8
161,1,object_01,object_04,548.34,2,1,198.615,0.6666666666666666,2,object_03,5,2182,0,0,6,desert_21,2,memory-2step-stake-s,649,2164147,0.0-18.0-0.1-0.161,811,2,1
162,4,object_06,object_10,544.39,8,1,327.015,0.5555555555555556,2,object_03,1,2187,0,1,5,restaurant_32,2,memory-2step-stake-s,650,2172202,0.0-18.0-0.1-0.162,811,8,7
163,2,object_07,object_05,445.67,4,1,313.64,0.4444444444444444,2,object_03,5,2207,0,1,4,forest_12,2,memory-2step-stake-s,651,2180140,0.0-18.0-0.1-0.163,811,4,3
164,1,object_04,object_01,612.435,2,2,360.965,0.2222222222222222,2,object_03,5,2217,0,1,2,desert_30,2,memory-2step-stake-s,652,2187923,0.0-18.0-0.1-0.164,811,1,2
165,2,object_07,object_05,478.075,4,1,167.26,0.5555555555555556,2,object_03,5,2242,0,2,5,forest_26,2,memory-2step-stake-s,653,2195815,0.0-18.0-0.1-0.165,811,4,3
166,1,object_04,object_01,462.56,2,2,154.645,0.3333333333333333,2,object_03,5,2257,0,6,3,desert_3,2,memory-2step-stake-s,654,2203493,0.0-18.0-0.1-0.166,811,1,2
167,1,object_01,object_04,447.23,1,2,378.495,0.7777777777777778,1,object_09,5,2292,0,7,2,desert_9,2,memory-2step-stake-s,655,2211799,0.0-18.0-0.1-0.167,811,2,1
168,3,object_08,object_02,503.92,5,2,331.425,0.8888888888888888,1,object_09,1,2300,0,8,0,library_12,2,memory-2step-stake-s,656,2220162,0.0-18.0-0.1-0.168,811,6,5
169,3,object_08,object_02,377.675,5,2,175.075,0.4444444444444444,1,object_09,5,2320,0,4,1,library_23,2,memory-2step-stake-s,657,2227963,0.0-18.0-0.1-0.169,811,6,5
170,1,object_01,object_04,549.405,1,2,197.44,0.4444444444444444,1,object_09,5,2340,0,4,2,desert_5,2,memory-2step-stake-s,658,2235787,0.0-18.0-0.1-0.170,811,2,1
171,1,object_04,object_01,549.325,1,1,157.935,0.1111111111111111,1,object_09,5,2345,0,1,2,desert_8,2,memory-2step-stake-s,659,2243267,0.0-18.0-0.1-0.171,811,1,2
172,4,object_10,object_06,376.62,8,2,205.515,0.0,2,object_03,1,2345,0,2,0,restaurant_31,2,memory-2step-stake-s,660,2250690,0.0-18.0-0.1-0.172,811,7,8
173,1,object_04,object_01,571.22,1,1,244.79,0.3333333333333333,1,object_09,5,2360,0,3,3,desert_23,2,memory-2step-stake-s,661,2258458,0.0-18.0-0.1-0.173,811,1,2
174,1,object_04,object_01,478.98,1,1,36.165,0.0,1,object_09,5,2360,0,0,7,desert_20,2,memory-2step-stake-s,662,2265712,0.0-18.0-0.1-0.174,811,1,2
175,2,object_05,object_07,497.8,4,2,358.66,0.7777777777777778,2,object_03,5,2395,0,2,7,forest_29,2,memory-2step-stake-s,663,2273997,0.0-18.0-0.1-0.175,811,3,4
176,1,object_04,object_01,568.795,2,2,202.885,1.0,2,object_03,5,2440,0,5,9,desert_3,2,memory-2step-stake-s,664,2282328,0.0-18.0-0.1-0.176,811,1,2
177,3,object_08,object_02,753.7,6,1,482.0,0.7777777777777778,2,object_03,1,2447,0,7,7,library_10,2,memory-2step-stake-s,665,2290744,0.0-18.0-0.1-0.177,811,6,5
178,4,object_06,object_10,655.49,8,1,173.72,0.4444444444444444,2,object_03,5,2467,0,6,4,restaurant_23,2,memory-2step-stake-s,666,2298543,0.0-18.0-0.1-0.178,811,8,7
179,2,object_05,object_07,719.785,3,1,201.145,0.8888888888888888,1,object_09,1,2475,0,8,4,forest_19,2,memory-2step-stake-s,667,2306772,0.0-18.0-0.1-0.179,811,3,4
180,4,object_10,object_06,700.76,7,1,202.965,0.5555555555555556,1,object_09,1,2480,0,5,1,restaurant_20,2,memory-2step-stake-s,668,2314704,0.0-18.0-0.1-0.180,811,7,8
181,1,object_01,object_04,593.005,1,2,256.345,0.2222222222222222,1,object_09,5,2490,0,2,2,desert_26,2,memory-2step-stake-s,669,2322382,0.0-18.0-0.1-0.181,811,2,1
182,1,object_04,object_01,556.0,2,2,151.06,0.2222222222222222,2,object_03,1,2492,0,2,2,desert_29,2,memory-2step-stake-s,670,2329957,0.0-18.0-0.1-0.182,811,1,2
183,2,object_07,object_05,549.46,3,2,173.015,0.2222222222222222,1,object_09,5,2502,0,2,3,forest_24,2,memory-2step-stake-s,671,2337552,0.0-18.0-0.1-0.183,811,4,3
184,4,object_06,object_10,540.255,8,1,254.2,0.3333333333333333,2,object_03,1,2505,0,1,3,restaurant_28,2,memory-2step-stake-s,672,2345330,0.0-18.0-0.1-0.184,811,8,7
185,2,object_05,object_07,671.875,4,2,401.1,0.1111111111111111,2,object_03,5,2510,0,1,1,forest_29,2,memory-2step-stake-s,673,2353053,0.0-18.0-0.1-0.185,811,3,4
186,2,object_07,object_05,406.15,3,2,499.535,0.1111111111111111,1,object_09,5,2515,0,1,1,forest_2,2,memory-2step-stake-s,674,2360872,0.0-18.0-0.1-0.186,811,4,3
187,3,object_02,object_08,502.335,5,1,235.805,0.1111111111111111,1,object_09,1,2516,0,1,1,library_2,2,memory-2step-stake-s,675,2368428,0.0-18.0-0.1-0.187,811,5,6
188,3,object_02,object_08,480.535,6,2,162.72,0.1111111111111111,2,object_03,1,2517,0,5,1,library_1,2,memory-2step-stake-s,676,2375913,0.0-18.0-0.1-0.188,811,5,6
189,4,object_06,object_10,474.405,7,2,357.93,0.6666666666666666,1,object_09,1,2523,0,6,2,restaurant_8,2,memory-2step-stake-s,677,2384100,0.0-18.0-0.1-0.189,811,8,7
190,2,object_05,object_07,532.495,3,1,432.535,0.4444444444444444,1,object_09,5,2543,0,4,2,forest_2,2,memory-2step-stake-s,678,2392157,0.0-18.0-0.1-0.190,811,3,4
191,1,object_04,object_01,552.64,1,1,182.745,0.4444444444444444,1,object_09,5,2563,0,4,1,desert_9,2,memory-2step-stake-s,679,2399966,0.0-18.0-0.1-0.191,811,1,2
192,2,object_07,object_05,502.96,3,2,226.865,0.5555555555555556,1,object_09,5,2588,0,5,1,forest_20,2,memory-2step-stake-s,680,2407922,0.0-18.0-0.1-0.192,811,4,3
193,2,object_05,object_07,479.775,3,1,179.39,0.5555555555555556,1,object_09,5,2613,0,5,3,forest_8,2,memory-2step-stake-s,681,2415827,0.0-18.0-0.1-0.193,811,3,4
194,1,object_01,object_04,505.665,2,1,182.225,0.4444444444444444,2,object_03,1,2617,0,7,4,desert_11,2,memory-2step-stake-s,682,2423637,0.0-18.0-0.1-0.194,811,2,1
195,2,object_05,object_07,485.06,3,1,207.96,0.8888888888888888,1,object_09,5,2657,0,8,5,forest_11,2,memory-2step-stake-s,683,2431872,0.0-18.0-0.1-0.195,811,3,4
196,1,object_04,object_01,535.74,1,1,205.19,0.7777777777777778,1,object_09,5,2692,0,7,6,desert_30,2,memory-2step-stake-s,684,2440004,0.0-18.0-0.1-0.196,811,1,2
197,2,object_05,object_07,492.965,3,1,404.895,0.4444444444444444,1,object_09,1,2696,0,4,3,forest_26,2,memory-2step-stake-s,685,2448033,0.0-18.0-0.1-0.197,811,3,4
198,3,object_02,object_08,493.3,6,2,408.36,0.7777777777777778,2,object_03,1,2703,0,4,7,library_9,2,memory-2step-stake-s,686,2456370,0.0-18.0-0.1-0.198,811,5,6
199,2,object_05,object_07,461.335,3,1,362.655,0.5555555555555556,1,object_09,5,2728,0,5,7,forest_5,2,memory-2step-stake-s,687,2464463,0.0-18.0-0.1-0.199,811,3,4
200,3,object_02,object_08,709.275,6,2,188.185,1.0,2,object_03,1,2737,0,6,9,library_32,2,memory-2step-stake-s,688,2472783,0.0-18.0-0.1-0.200,811,5,6
201,3,object_02,object_08,527.2,5,1,231.67,0.5555555555555556,1,object_09,1,2742,0,5,5,library_13,2,memory-2step-stake-s,689,2480742,0.0-18.0-0.1-0.201,811,5,6
202,3,object_08,object_02,564.115,6,1,206.325,0.4444444444444444,2,object_03,1,2746,0,7,4,library_20,2,memory-2step-stake-s,690,2488570,0.0-18.0-0.1-0.202,811,6,5
203,4,object_06,object_10,644.155,7,2,229.175,0.5555555555555556,1,object_09,5,2771,0,5,1,restaurant_28,2,memory-2step-stake-s,691,2496523,0.0-18.0-0.1-0.203,811,8,7
204,3,object_02,object_08,694.79,5,1,211.34,0.5555555555555556,1,object_09,5,2796,0,5,1,library_14,2,memory-2step-stake-s,692,2504463,0.0-18.0-0.1-0.204,811,5,6
205,2,object_05,object_07,634.795,4,2,322.025,0.0,2,object_03,1,2796,0,2,0,forest_26,2,memory-2step-stake-s,693,2512004,0.0-18.0-0.1-0.205,811,3,4
206,2,object_05,object_07,435.16,3,1,206.585,0.1111111111111111,1,object_09,5,2801,0,1,2,forest_24,2,memory-2step-stake-s,694,2519530,0.0-18.0-0.1-0.206,811,3,4
207,3,object_02,object_08,609.235,6,2,33.235,0.5555555555555556,2,object_03,5,2826,0,1,5,library_12,2,memory-2step-stake-s,695,2527287,0.0-18.0-0.1-0.207,811,5,6
208,4,object_06,object_10,648.83,8,1,292.98,0.7777777777777778,2,object_03,1,2833,0,3,7,restaurant_2,2,memory-2step-stake-s,696,2535512,0.0-18.0-0.1-0.208,811,8,7
209,3,object_08,object_02,707.075,6,1,243.84,0.6666666666666666,2,object_03,1,2839,0,0,6,library_8,2,memory-2step-stake-s,697,2543581,0.0-18.0-0.1-0.209,811,6,5
210,2,object_07,object_05,555.31,4,1,399.185,0.6666666666666666,2,object_03,5,2869,0,0,6,forest_30,2,memory-2step-stake-s,698,2551807,0.0-18.0-0.1-0.210,811,4,3
211,1,object_04,object_01,466.42,2,2,168.975,1.0,2,object_03,5,2914,0,1,9,desert_11,2,memory-2step-stake-s,699,2560108,0.0-18.0-0.1-0.211,811,1,2
212,2,object_07,object_05,470.48,4,1,283.415,0.8888888888888888,2,object_03,5,2954,0,1,8,forest_14,2,memory-2step-stake-s,700,2568419,0.0-18.0-0.1-0.212,811,4,3
213,4,object_06,object_10,618.795,8,1,342.98,0.7777777777777778,2,object_03,1,2961,0,0,7,restaurant_4,2,memory-2step-stake-s,701,2576692,0.0-18.0-0.1-0.213,811,8,7
214,4,object_10,object_06,575.265,8,2,189.04,0.7777777777777778,2,object_03,1,2968,0,1,7,restaurant_26,2,memory-2step-stake-s,702,2584809,0.0-18.0-0.1-0.214,811,7,8
215,3,object_08,object_02,524.95,6,1,310.6,0.6666666666666666,2,object_03,1,2974,0,1,6,library_31,2,memory-2step-stake-s,703,2592952,0.0-18.0-0.1-0.215,811,6,5
216,3,object_08,object_02,656.8,6,1,299.545,0.3333333333333333,2,object_03,5,2989,0,1,3,library_27,2,memory-2step-stake-s,704,2600779,0.0-18.0-0.1-0.216,811,6,5
217,4,object_10,object_06,542.1,7,1,171.425,0.2222222222222222,1,object_09,1,2991,0,2,4,restaurant_12,2,memory-2step-stake-s,705,2608374,0.0-18.0-0.1-0.217,811,7,8
218,4,object_06,object_10,493.625,8,1,195.585,0.5555555555555556,2,object_03,1,2996,0,1,5,restaurant_22,2,memory-2step-stake-s,706,2616294,0.0-18.0-0.1-0.218,811,8,7
219,4,object_06,object_10,553.29,7,2,274.115,0.3333333333333333,1,object_09,1,2999,0,3,7,restaurant_20,2,memory-2step-stake-s,707,2624092,0.0-18.0-0.1-0.219,811,8,7
220,4,object_06,object_10,404.335,8,1,190.29,0.8888888888888888,2,object_03,1,3007,0,2,8,restaurant_22,2,memory-2step-stake-s,708,2632312,0.0-18.0-0.1-0.220,811,8,7
221,3,object_08,object_02,550.055,6,1,505.945,1.0,2,object_03,1,3016,0,1,9,library_14,2,memory-2step-stake-s,709,2640949,0.0-18.0-0.1-0.221,811,6,5
222,2,object_07,object_05,458.775,4,1,369.835,0.8888888888888888,2,object_03,5,3056,0,0,8,forest_21,2,memory-2step-stake-s,710,2649350,0.0-18.0-0.1-0.222,811,4,3
223,1,object_01,object_04,344.015,2,1,287.63,0.7777777777777778,2,object_03,5,3091,0,2,7,desert_13,2,memory-2step-stake-s,711,2657562,0.0-18.0-0.1-0.223,811,2,1
224,3,object_08,object_02,543.65,6,1,247.69,0.7777777777777778,2,object_03,1,3098,0,2,7,library_9,2,memory-2step-stake-s,712,2665738,0.0-18.0-0.1-0.224,811,6,5
225,3,object_08,object_02,383.445,6,1,486.46,0.6666666666666666,2,object_03,1,3104,0,1,6,library_8,2,memory-2step-stake-s,713,2674053,0.0-18.0-0.1-0.225,811,6,5
226,4,object_06,object_10,513.295,7,2,179.71,0.1111111111111111,1,object_09,1,3105,0,1,8,restaurant_2,2,memory-2step-stake-s,714,2681556,0.0-18.0-0.1-0.226,811,8,7
227,2,object_05,object_07,504.215,4,2,221.465,0.7777777777777778,2,object_03,5,3140,0,1,7,forest_3,2,memory-2step-stake-s,715,2689707,0.0-18.0-0.1-0.227,811,3,4
228,1,object_04,object_01,494.925,2,2,484.655,0.7777777777777778,2,object_03,5,3175,0,1,7,desert_8,2,memory-2step-stake-s,716,2698122,0.0-18.0-0.1-0.228,811,1,2
229,3,object_08,object_02,515.67,5,2,217.58,0.1111111111111111,1,object_09,1,3176,0,1,7,library_31,2,memory-2step-stake-s,717,2705661,0.0-18.0-0.1-0.229,811,6,5
230,3,object_08,object_02,391.61,6,1,155.485,0.8888888888888888,2,object_03,1,3184,0,3,8,library_6,2,memory-2step-stake-s,718,2713846,0.0-18.0-0.1-0.230,811,6,5
231,4,object_10,object_06,559.64,8,2,357.045,0.7777777777777778,2,object_03,1,3191,0,4,7,restaurant_22,2,memory-2step-stake-s,719,2722134,0.0-18.0-0.1-0.231,811,7,8
232,4,object_06,object_10,482.145,8,1,182.125,0.8888888888888888,2,object_03,1,3199,0,6,8,restaurant_13,2,memory-2step-stake-s,720,2730349,0.0-18.0-0.1-0.232,811,8,7
233,1,object_01,object_04,647.96,2,1,323.085,0.4444444444444444,2,object_03,1,3203,0,5,4,desert_3,2,memory-2step-stake-s,721,2738297,0.0-18.0-0.1-0.233,811,2,1
234,1,object_04,object_01,593.06,2,2,228.98,0.6666666666666666,2,object_03,5,3233,0,4,6,desert_14,2,memory-2step-stake-s,722,2746351,0.0-18.0-0.1-0.234,811,1,2
235,1,object_01,object_04,419.64,2,1,196.185,0.7777777777777778,2,object_03,5,3268,0,3,7,desert_23,2,memory-2step-stake-s,723,2754475,0.0-18.0-0.1-0.235,811,2,1
236,1,object_01,object_04,343.455,2,1,196.515,0.8888888888888888,2,object_03,5,3308,0,2,8,desert_21,2,memory-2step-stake-s,724,2762702,0.0-18.0-0.1-0.236,811,2,1
237,4,object_06,object_10,478.05,8,1,174.6,0.6666666666666666,2,object_03,5,3338,0,6,6,restaurant_13,2,memory-2step-stake-s,725,2770712,0.0-18.0-0.1-0.237,811,8,7
238,1,object_01,object_04,431.09,2,1,191.545,0.3333333333333333,2,object_03,5,3353,0,4,3,desert_12,2,memory-2step-stake-s,726,2778428,0.0-18.0-0.1-0.238,811,2,1
239,4,object_10,object_06,489.555,7,1,199.735,0.1111111111111111,1,object_09,1,3354,0,1,4,restaurant_24,2,memory-2step-stake-s,727,2785950,0.0-18.0-0.1-0.239,811,7,8
240,3,object_08,object_02,525.24,6,1,197.545,0.3333333333333333,2,object_03,1,3357,0,3,3,library_14,2,memory-2step-stake-s,728,2793672,0.0-18.0-0.1-0.240,811,6,5
241,2,object_07,object_05,523.445,4,1,199.595,0.2222222222222222,2,object_03,5,3367,0,5,2,forest_12,2,memory-2step-stake-s,729,2801292,0.0-18.0-0.1-0.241,811,4,3
242,4,object_06,object_10,521.675,8,1,213.605,0.1111111111111111,2,object_03,1,3368,0,6,1,restaurant_32,2,memory-2step-stake-s,730,2808826,0.0-18.0-0.1-0.242,811,8,7
243,2,object_05,object_07,537.065,3,1,234.115,0.8888888888888888,1,object_09,5,3408,0,8,3,forest_24,2,memory-2step-stake-s,731,2817092,0.0-18.0-0.1-0.243,811,3,4
244,4,object_10,object_06,440.66,7,1,255.25,0.8888888888888888,1,object_09,1,3416,0,8,2,restaurant_24,2,memory-2step-stake-s,732,2825379,0.0-18.0-0.1-0.244,811,7,8
245,3,object_02,object_08,466.21,5,1,283.945,0.6666666666666666,1,object_09,1,3422,0,6,3,library_2,2,memory-2step-stake-s,733,2833487,0.0-18.0-0.1-0.245,811,5,6
246,4,object_06,object_10,538.62,7,2,384.685,0.5555555555555556,1,object_09,1,3427,0,5,6,restaurant_14,2,memory-2step-stake-s,734,2841598,0.0-18.0-0.1-0.246,811,8,7
247,4,object_10,object_06,748.64,7,1,294.8,0.7777777777777778,1,object_09,1,3434,0,7,5,restaurant_10,2,memory-2step-stake-s,735,2849824,0.0-18.0-0.1-0.247,811,7,8
248,3,object_08,object_02,584.995,5,2,298.47,0.4444444444444444,1,object_09,1,3438,0,4,7,library_32,2,memory-2step-stake-s,736,2857752,0.0-18.0-0.1-0.248,811,6,5
249,2,object_07,object_05,635.32,4,1,331.715,0.5555555555555556,2,object_03,5,3463,0,2,5,forest_8,2,memory-2step-stake-s,737,2865808,0.0-18.0-0.1-0.249,811,4,3
250,1,object_01,object_04,468.25,2,1,258.46,0.6666666666666666,2,object_03,5,3493,0,4,6,desert_8,2,memory-2step-stake-s,738,2873895,0.0-18.0-0.1-0.250,811,2,1
251,2,object_07,object_05,629.215,4,1,319.385,0.7777777777777778,2,object_03,5,3528,0,4,7,forest_2,2,memory-2step-stake-s,739,2882141,0.0-18.0-0.1-0.251,811,4,3
252,3,object_02,object_08,703.075,6,2,-1.0,0.0,2,object_03,1,3528,0,2,4,library_1,2,memory-2step-stake-s,740,2890664,0.0-18.0-0.1-0.252,811,5,6
253,3,object_08,object_02,618.125,5,2,510.24,0.2222222222222222,1,object_09,1,3530,0,2,5,library_13,2,memory-2step-stake-s,741,2898598,0.0-18.0-0.1-0.253,811,6,5
254,1,object_01,object_04,523.395,1,2,193.99,0.1111111111111111,1,object_09,5,3535,0,1,7,desert_26,2,memory-2step-stake-s,742,2906111,0.0-18.0-0.1-0.254,811,2,1
255,1,object_04,object_01,681.395,2,2,324.985,1.0,2,object_03,1,3544,0,2,9,desert_3,2,memory-2step-stake-s,743,2914569,0.0-18.0-0.1-0.255,811,1,2
