,state1,stim_left,stim_right,rt_1,choice1,response1,rt_2,points,state2,stim_state2,stake,score,practice,rews1,rews2,background,high_arm,trial_type,trial_index,time_elapsed,internal_node_id,subid,stim_left_num,stim_right_num
0,3,object_08,object_07,1380.35,5,2,1442.52,0.7777777777777778,1,object_06,5,35,0,7,0,library_23,1,memory-2step-stake-s,487,1081019,0.0-18.0-0.0-0.0,4086,6,5
1,1,object_01,object_02,-1.0,-1,-1,-1.0,0.0,-,,1,35,0,7,0,desert_23,1,memory-2step-stake-s,488,1087568,0.0-18.0-0.0-0.1,4086,1,2
2,4,object_10,object_03,693.75,8,2,-1.0,0.0,2,object_04,5,35,0,7,3,restaurant_9,1,memory-2step-stake-s,489,1096136,0.0-18.0-0.0-0.2,4086,7,8
3,4,object_10,object_03,582.51,8,2,413.68,0.1111111111111111,2,object_04,1,36,0,6,1,restaurant_23,1,memory-2step-stake-s,490,1103918,0.0-18.0-0.0-0.3,4086,7,8
4,3,object_07,object_08,614.205,5,1,654.525,0.5555555555555556,1,object_06,1,41,0,5,3,library_3,1,memory-2step-stake-s,491,1112373,0.0-18.0-0.0-0.4,4086,5,6
5,4,object_10,object_03,771.025,7,1,405.67,1.0,1,object_06,5,86,0,9,1,restaurant_19,1,memory-2step-stake-s,492,1121025,0.0-18.0-0.0-0.5,4086,7,8
6,1,object_02,object_01,567.135,1,2,584.67,0.4444444444444444,1,object_06,1,90,0,4,1,desert_6,1,memory-2step-stake-s,493,1129309,0.0-18.0-0.0-0.6,4086,2,1
7,4,object_03,object_10,679.35,7,2,824.94,0.4444444444444444,1,object_06,1,94,0,4,0,restaurant_2,1,memory-2step-stake-s,494,1137823,0.0-18.0-0.0-0.7,4086,8,7
8,2,object_09,object_05,605.07,4,1,390.615,0.0,2,object_04,1,94,0,3,0,forest_3,1,memory-2step-stake-s,495,1145487,0.0-18.0-0.0-0.8,4086,4,3
9,1,object_01,object_02,827.795,2,2,355.66,0.0,2,object_04,5,94,0,2,0,desert_1,1,memory-2step-stake-s,496,1153131,0.0-18.0-0.0-0.9,4086,1,2
10,2,object_05,object_09,1136.38,3,1,551.865,0.1111111111111111,1,object_06,1,95,0,1,0,forest_26,1,memory-2step-stake-s,497,1161071,0.0-18.0-0.0-0.10,4086,3,4
11,1,object_01,object_02,616.095,1,1,316.695,0.4444444444444444,1,object_06,1,99,0,4,1,desert_14,1,memory-2step-stake-s,498,1169110,0.0-18.0-0.0-0.11,4086,1,2
12,1,object_01,object_02,1086.3,1,1,294.225,0.5555555555555556,1,object_06,1,104,0,5,2,desert_23,1,memory-2step-stake-s,499,1177210,0.0-18.0-0.0-0.12,4086,1,2
13,3,object_08,object_07,516.835,5,2,342.3,0.1111111111111111,1,object_06,5,109,0,1,1,library_16,1,memory-2step-stake-s,500,1184932,0.0-18.0-0.0-0.13,4086,6,5
14,1,object_01,object_02,735.25,2,2,353.96,0.0,2,object_04,5,109,0,2,0,desert_8,1,memory-2step-stake-s,501,1192544,0.0-18.0-0.0-0.14,4086,1,2
15,3,object_07,object_08,830.315,6,2,332.775,0.0,2,object_04,5,109,0,5,0,library_23,1,memory-2step-stake-s,502,1200155,0.0-18.0-0.0-0.15,4086,5,6
16,3,object_08,object_07,1011.12,6,1,293.33,0.1111111111111111,2,object_04,1,110,0,6,1,library_31,1,memory-2step-stake-s,503,1207821,0.0-18.0-0.0-0.16,4086,6,5
17,4,object_10,object_03,540.255,8,2,286.83,0.0,2,object_04,5,110,0,7,0,restaurant_1,1,memory-2step-stake-s,504,1215390,0.0-18.0-0.0-0.17,4086,7,8
18,1,object_02,object_01,644.935,1,2,319.035,0.5555555555555556,1,object_06,1,115,0,5,1,desert_18,1,memory-2step-stake-s,505,1223534,0.0-18.0-0.0-0.18,4086,2,1
19,4,object_03,object_10,808.145,8,1,346.415,0.3333333333333333,2,object_04,5,130,0,2,3,restaurant_5,1,memory-2step-stake-s,506,1231481,0.0-18.0-0.0-0.19,4086,8,7
20,4,object_03,object_10,575.26,7,2,254.155,0.1111111111111111,1,object_06,5,135,0,1,5,restaurant_3,1,memory-2step-stake-s,507,1239141,0.0-18.0-0.0-0.20,4086,8,7
21,2,object_09,object_05,809.66,3,2,283.565,0.0,1,object_06,5,135,0,0,6,forest_5,1,memory-2step-stake-s,508,1246690,0.0-18.0-0.0-0.21,4086,4,3
22,1,object_01,object_02,795.255,2,2,276.35,0.6666666666666666,2,object_04,1,141,0,1,6,desert_10,1,memory-2step-stake-s,509,1254872,0.0-18.0-0.0-0.22,4086,1,2
23,1,object_02,object_01,1034.32,2,1,354.725,0.4444444444444444,2,object_04,1,145,0,3,4,desert_10,1,memory-2step-stake-s,510,1262939,0.0-18.0-0.0-0.23,4086,2,1
24,3,object_08,object_07,854.355,6,1,288.005,0.5555555555555556,2,object_04,5,170,0,5,5,library_22,1,memory-2step-stake-s,511,1271047,0.0-18.0-0.0-0.24,4086,6,5
25,3,object_08,object_07,808.825,5,2,282.795,0.4444444444444444,1,object_06,5,190,0,4,7,library_23,1,memory-2step-stake-s,512,1279038,0.0-18.0-0.0-0.25,4086,6,5
26,4,object_10,object_03,591.7,8,2,364.19,0.4444444444444444,2,object_04,5,210,0,6,4,restaurant_24,1,memory-2step-stake-s,513,1287109,0.0-18.0-0.0-0.26,4086,7,8
27,3,object_08,object_07,467.57,6,1,376.895,0.4444444444444444,2,object_04,5,230,0,6,4,library_22,1,memory-2step-stake-s,514,1295174,0.0-18.0-0.0-0.27,4086,6,5
28,3,object_08,object_07,445.78,5,2,298.99,0.3333333333333333,1,object_06,1,233,0,3,7,library_18,1,memory-2step-stake-s,515,1303057,0.0-18.0-0.0-0.28,4086,6,5
29,3,object_08,object_07,548.84,6,1,381.225,1.0,2,object_04,5,278,0,5,9,library_16,1,memory-2step-stake-s,516,1311656,0.0-18.0-0.0-0.29,4086,6,5
30,1,object_01,object_02,771.26,2,2,332.205,0.7777777777777778,2,object_04,5,313,0,7,7,desert_6,1,memory-2step-stake-s,517,1320009,0.0-18.0-0.0-0.30,4086,1,2
31,3,object_07,object_08,791.535,6,2,303.63,0.7777777777777778,2,object_04,5,348,0,6,7,library_31,1,memory-2step-stake-s,518,1328353,0.0-18.0-0.0-0.31,4086,5,6
32,4,object_10,object_03,705.3,8,2,319.82,0.8888888888888888,2,object_04,1,356,0,5,8,restaurant_10,1,memory-2step-stake-s,519,1336791,0.0-18.0-0.0-0.32,4086,7,8
33,2,object_09,object_05,708.295,4,1,412.74,0.8888888888888888,2,object_04,1,364,0,5,8,forest_10,1,memory-2step-stake-s,520,1345322,0.0-18.0-0.0-0.33,4086,4,3
34,2,object_09,object_05,1157.23,3,2,346.56,0.4444444444444444,1,object_06,5,384,0,4,8,forest_29,1,memory-2step-stake-s,521,1353364,0.0-18.0-0.0-0.34,4086,4,3
35,2,object_05,object_09,1014.035,4,2,387.715,0.7777777777777778,2,object_04,1,391,0,1,7,forest_8,1,memory-2step-stake-s,522,1361802,0.0-18.0-0.0-0.35,4086,3,4
36,1,object_01,object_02,544.42,1,1,338.005,0.0,1,object_06,1,391,0,0,8,desert_6,1,memory-2step-stake-s,523,1369407,0.0-18.0-0.0-0.36,4086,1,2
37,3,object_07,object_08,564.45,6,2,261.07,0.7777777777777778,2,object_04,5,426,0,0,7,library_17,1,memory-2step-stake-s,524,1377670,0.0-18.0-0.0-0.37,4086,5,6
38,4,object_10,object_03,653.635,7,1,298.495,0.4444444444444444,1,object_06,1,430,0,4,8,restaurant_24,1,memory-2step-stake-s,525,1385672,0.0-18.0-0.0-0.38,4086,7,8
39,3,object_08,object_07,571.655,6,1,286.835,0.8888888888888888,2,object_04,5,470,0,2,8,library_9,1,memory-2step-stake-s,526,1394096,0.0-18.0-0.0-0.39,4086,6,5
40,3,object_07,object_08,531.415,6,2,357.285,0.4444444444444444,2,object_04,5,490,0,5,4,library_3,1,memory-2step-stake-s,527,1402167,0.0-18.0-0.0-0.40,4086,5,6
41,2,object_05,object_09,565.93,3,1,287.035,0.7777777777777778,1,object_06,1,497,0,7,4,forest_10,1,memory-2step-stake-s,528,1410497,0.0-18.0-0.0-0.41,4086,3,4
42,4,object_03,object_10,579.88,8,1,293.605,0.3333333333333333,2,object_04,5,512,0,5,3,restaurant_2,1,memory-2step-stake-s,529,1418370,0.0-18.0-0.0-0.42,4086,8,7
43,3,object_07,object_08,682.875,5,1,293.81,0.4444444444444444,1,object_06,5,532,0,4,5,library_12,1,memory-2step-stake-s,530,1426358,0.0-18.0-0.0-0.43,4086,5,6
44,2,object_09,object_05,723.98,3,2,353.38,0.5555555555555556,1,object_06,1,537,0,5,8,forest_24,1,memory-2step-stake-s,531,1434526,0.0-18.0-0.0-0.44,4086,4,3
45,3,object_07,object_08,568.555,5,1,321.62,0.5555555555555556,1,object_06,1,542,0,5,6,library_18,1,memory-2step-stake-s,532,1442649,0.0-18.0-0.0-0.45,4086,5,6
46,3,object_07,object_08,564.625,6,2,259.895,0.6666666666666666,2,object_04,5,572,0,6,6,library_1,1,memory-2step-stake-s,533,1450869,0.0-18.0-0.0-0.46,4086,5,6
47,3,object_07,object_08,776.545,5,1,270.935,0.7777777777777778,1,object_06,1,579,0,7,5,library_1,1,memory-2step-stake-s,534,1459146,0.0-18.0-0.0-0.47,4086,5,6
48,3,object_08,object_07,858.91,5,2,292.525,0.7777777777777778,1,object_06,5,614,0,7,4,library_27,1,memory-2step-stake-s,535,1467469,0.0-18.0-0.0-0.48,4086,6,5
49,4,object_10,object_03,622.145,7,1,226.78,0.7777777777777778,1,object_06,5,649,0,7,5,restaurant_18,1,memory-2step-stake-s,536,1475716,0.0-18.0-0.0-0.49,4086,7,8
50,2,object_09,object_05,787.6,3,2,277.83,0.8888888888888888,1,object_06,1,657,0,8,7,forest_13,1,memory-2step-stake-s,537,1484126,0.0-18.0-0.0-0.50,4086,4,3
51,1,object_02,object_01,596.805,2,1,311.61,0.6666666666666666,2,object_04,1,663,0,5,6,desert_3,1,memory-2step-stake-s,538,1492367,0.0-18.0-0.0-0.51,4086,2,1
52,3,object_08,object_07,421.485,5,2,277.76,0.6666666666666666,1,object_06,5,693,0,6,5,library_11,1,memory-2step-stake-s,539,1500572,0.0-18.0-0.0-0.52,4086,6,5
53,2,object_09,object_05,963.15,3,2,299.75,0.7777777777777778,1,object_06,1,700,0,7,5,forest_11,1,memory-2step-stake-s,540,1508899,0.0-18.0-0.0-0.53,4086,4,3
54,3,object_08,object_07,610.68,5,2,266.56,0.7777777777777778,1,object_06,5,735,0,7,8,library_16,1,memory-2step-stake-s,541,1517178,0.0-18.0-0.0-0.54,4086,6,5
55,4,object_10,object_03,715.48,8,2,313.7,1.0,2,object_04,5,780,0,6,9,restaurant_16,1,memory-2step-stake-s,542,1525711,0.0-18.0-0.0-0.55,4086,7,8
56,1,object_02,object_01,888.625,2,1,272.265,0.7777777777777778,2,object_04,1,787,0,3,7,desert_4,1,memory-2step-stake-s,543,1534002,0.0-18.0-0.0-0.56,4086,2,1
57,3,object_07,object_08,615.455,6,2,293.185,0.5555555555555556,2,object_04,5,812,0,5,5,library_3,1,memory-2step-stake-s,544,1542137,0.0-18.0-0.0-0.57,4086,5,6
58,1,object_01,object_02,958.515,1,1,390.7,0.3333333333333333,1,object_06,5,827,0,3,6,desert_1,1,memory-2step-stake-s,545,1550100,0.0-18.0-0.0-0.58,4086,1,2
59,2,object_05,object_09,787.47,3,1,324.915,0.2222222222222222,1,object_06,1,829,0,2,5,forest_13,1,memory-2step-stake-s,546,1557933,0.0-18.0-0.0-0.59,4086,3,4
60,4,object_03,object_10,494.08,8,1,244.815,0.5555555555555556,2,object_04,5,854,0,5,5,restaurant_19,1,memory-2step-stake-s,547,1565988,0.0-18.0-0.0-0.60,4086,8,7
61,1,object_02,object_01,1186.195,1,2,312.86,0.0,1,object_06,1,854,0,0,8,desert_9,1,memory-2step-stake-s,548,1573552,0.0-18.0-0.0-0.61,4086,2,1
62,2,object_09,object_05,950.22,4,1,376.81,1.0,2,object_04,1,863,0,1,9,forest_3,1,memory-2step-stake-s,549,1582157,0.0-18.0-0.0-0.62,4086,4,3
63,4,object_10,object_03,515.98,8,2,356.075,0.8888888888888888,2,object_04,1,871,0,1,8,restaurant_24,1,memory-2step-stake-s,550,1590642,0.0-18.0-0.0-0.63,4086,7,8
64,1,object_02,object_01,625.895,2,1,277.01,0.5555555555555556,2,object_04,5,896,0,1,5,desert_19,1,memory-2step-stake-s,551,1598733,0.0-18.0-0.0-0.64,4086,2,1
65,4,object_03,object_10,525.455,8,1,247.585,0.7777777777777778,2,object_04,5,931,0,1,7,restaurant_18,1,memory-2step-stake-s,552,1607005,0.0-18.0-0.0-0.65,4086,8,7
66,2,object_05,object_09,694.725,4,2,292.99,0.5555555555555556,2,object_04,1,936,0,2,5,forest_4,1,memory-2step-stake-s,553,1615111,0.0-18.0-0.0-0.66,4086,3,4
67,2,object_05,object_09,628.675,3,1,278.495,0.1111111111111111,1,object_06,1,937,0,1,6,forest_26,1,memory-2step-stake-s,554,1622769,0.0-18.0-0.0-0.67,4086,3,4
68,4,object_10,object_03,544.4,8,2,400.95,0.7777777777777778,2,object_04,5,972,0,0,7,restaurant_1,1,memory-2step-stake-s,555,1631175,0.0-18.0-0.0-0.68,4086,7,8
69,2,object_05,object_09,594.22,3,1,306.07,0.1111111111111111,1,object_06,1,973,0,1,6,forest_4,1,memory-2step-stake-s,556,1638876,0.0-18.0-0.0-0.69,4086,3,4
70,3,object_07,object_08,695.815,6,2,284.865,0.4444444444444444,2,object_04,5,993,0,1,4,library_18,1,memory-2step-stake-s,557,1646861,0.0-18.0-0.0-0.70,4086,5,6
71,3,object_07,object_08,789.905,6,2,304.415,0.3333333333333333,2,object_04,5,1008,0,5,3,library_11,1,memory-2step-stake-s,558,1654751,0.0-18.0-0.0-0.71,4086,5,6
72,1,object_01,object_02,896.78,2,2,286.585,0.6666666666666666,2,object_04,1,1014,0,4,6,desert_27,1,memory-2step-stake-s,559,1662949,0.0-18.0-0.0-0.72,4086,1,2
73,3,object_08,object_07,804.18,5,2,474.905,0.4444444444444444,1,object_06,1,1018,0,4,5,library_13,1,memory-2step-stake-s,560,1671117,0.0-18.0-0.0-0.73,4086,6,5
74,4,object_03,object_10,660.845,8,1,392.21,0.3333333333333333,2,object_04,5,1033,0,2,3,restaurant_11,1,memory-2step-stake-s,561,1679127,0.0-18.0-0.0-0.74,4086,8,7
75,3,object_08,object_07,595.145,5,2,251.035,0.1111111111111111,1,object_06,5,1038,0,1,2,library_27,1,memory-2step-stake-s,562,1686748,0.0-18.0-0.0-0.75,4086,6,5
76,3,object_08,object_07,632.685,6,1,286.21,0.4444444444444444,2,object_04,5,1058,0,2,4,library_31,1,memory-2step-stake-s,563,1694750,0.0-18.0-0.0-0.76,4086,6,5
77,4,object_03,object_10,608.18,8,1,312.365,0.5555555555555556,2,object_04,5,1083,0,0,5,restaurant_10,1,memory-2step-stake-s,564,1702870,0.0-18.0-0.0-0.77,4086,8,7
78,1,object_02,object_01,949.335,2,1,391.565,0.4444444444444444,2,object_04,5,1103,0,0,4,desert_8,1,memory-2step-stake-s,565,1710943,0.0-18.0-0.0-0.78,4086,2,1
79,1,object_02,object_01,611.83,1,2,307.32,0.2222222222222222,1,object_06,1,1105,0,2,4,desert_14,1,memory-2step-stake-s,566,1718761,0.0-18.0-0.0-0.79,4086,2,1
80,4,object_03,object_10,503.57,8,1,271.8099999,0.3333333333333333,2,object_04,5,1120,0,2,3,restaurant_5,1,memory-2step-stake-s,567,1726620,0.0-18.0-0.0-0.80,4086,8,7
81,3,object_07,object_08,499.055,6,2,354.11,0.6666666666666666,2,object_04,5,1150,0,2,6,library_27,1,memory-2step-stake-s,568,1734877,0.0-18.0-0.0-0.81,4086,5,6
82,4,object_03,object_10,546.565,7,2,324.48,0.2222222222222222,1,object_06,1,1152,0,2,1,restaurant_16,1,memory-2step-stake-s,569,1742697,0.0-18.0-0.0-0.82,4086,8,7
83,4,object_03,object_10,466.17,8,1,336.79,0.4444444444444444,2,object_04,5,1172,0,2,4,restaurant_11,1,memory-2step-stake-s,570,1750716,0.0-18.0-0.0-0.83,4086,8,7
84,1,object_01,object_02,594.825,2,2,324.38,0.6666666666666666,2,object_04,1,1178,0,0,6,desert_12,1,memory-2step-stake-s,571,1758948,0.0-18.0-0.0-0.84,4086,1,2
85,4,object_10,object_03,461.56,8,2,498.55,0.6666666666666666,2,object_04,1,1184,0,2,6,restaurant_10,1,memory-2step-stake-s,572,1767356,0.0-18.0-0.0-0.85,4086,7,8
86,2,object_05,object_09,826.06,4,2,942.46,0.7777777777777778,2,object_04,1,1191,0,1,7,forest_24,1,memory-2step-stake-s,573,1776310,0.0-18.0-0.0-0.86,4086,3,4
87,4,object_03,object_10,459.86,8,1,282.445,0.5555555555555556,2,object_04,5,1216,0,1,5,restaurant_11,1,memory-2step-stake-s,574,1784382,0.0-18.0-0.0-0.87,4086,8,7
88,3,object_08,object_07,670.495,6,1,546.665,0.4444444444444444,2,object_04,5,1236,0,0,4,library_9,1,memory-2step-stake-s,575,1792624,0.0-18.0-0.0-0.88,4086,6,5
89,2,object_05,object_09,483.33,4,2,342.8700001,0.5555555555555556,2,object_04,5,1261,0,1,5,forest_4,1,memory-2step-stake-s,576,1800799,0.0-18.0-0.0-0.89,4086,3,4
90,1,object_01,object_02,329.54,1,1,350.2,0.1111111111111111,1,object_06,1,1262,0,1,3,desert_3,1,memory-2step-stake-s,577,1808533,0.0-18.0-0.0-0.90,4086,1,2
91,4,object_10,object_03,447.49,8,2,383.77,0.5555555555555556,2,object_04,5,1287,0,1,5,restaurant_28,1,memory-2step-stake-s,578,1816738,0.0-18.0-0.0-0.91,4086,7,8
92,4,object_10,object_03,477.01,8,2,784.815,0.3333333333333333,2,object_04,5,1302,0,2,3,restaurant_23,1,memory-2step-stake-s,579,1825116,0.0-18.0-0.0-0.92,4086,7,8
93,1,object_02,object_01,770.01,1,2,360.45,0.5555555555555556,1,object_06,1,1307,0,5,3,desert_18,1,memory-2step-stake-s,580,1833271,0.0-18.0-0.0-0.93,4086,2,1
94,3,object_08,object_07,526.32,5,2,297.475,0.7777777777777778,1,object_06,5,1342,0,7,3,library_18,1,memory-2step-stake-s,581,1841600,0.0-18.0-0.0-0.94,4086,6,5
95,2,object_09,object_05,768.705,3,2,289.965,0.7777777777777778,1,object_06,1,1349,0,7,3,forest_11,1,memory-2step-stake-s,582,1849950,0.0-18.0-0.0-0.95,4086,4,3
96,3,object_08,object_07,657.255,5,2,326.625,0.6666666666666666,1,object_06,1,1355,0,6,4,library_23,1,memory-2step-stake-s,583,1858166,0.0-18.0-0.0-0.96,4086,6,5
97,3,object_07,object_08,495.65,5,1,306.4999999,1.0,1,object_06,5,1400,0,9,4,library_1,1,memory-2step-stake-s,584,1866755,0.0-18.0-0.0-0.97,4086,5,6
98,2,object_09,object_05,702.025,3,2,358.06,0.6666666666666666,1,object_06,1,1406,0,6,3,forest_19,1,memory-2step-stake-s,585,1875030,0.0-18.0-0.0-0.98,4086,4,3
99,2,object_05,object_09,640.84,4,2,266.06,0.3333333333333333,2,object_04,5,1421,0,7,3,forest_3,1,memory-2step-stake-s,586,1882883,0.0-18.0-0.0-0.99,4086,3,4
100,2,object_05,object_09,500.39,4,2,357.945,0.6666666666666666,2,object_04,1,1427,0,7,6,forest_8,1,memory-2step-stake-s,587,1891174,0.0-18.0-0.0-0.100,4086,3,4
101,2,object_05,object_09,501.385,3,1,402.29,0.8888888888888888,1,object_06,1,1435,0,8,6,forest_11,1,memory-2step-stake-s,588,1899714,0.0-18.0-0.0-0.101,4086,3,4
102,2,object_09,object_05,358.415,3,2,319.105,0.6666666666666666,1,object_06,1,1441,0,6,5,forest_29,1,memory-2step-stake-s,589,1907961,0.0-18.0-0.0-0.102,4086,4,3
103,2,object_05,object_09,532.82,4,2,328.27,0.5555555555555556,2,object_04,1,1446,0,7,5,forest_5,1,memory-2step-stake-s,590,1916100,0.0-18.0-0.0-0.103,4086,3,4
104,1,object_02,object_01,542.305,2,1,358.205,0.5555555555555556,2,object_04,1,1451,0,6,5,desert_19,1,memory-2step-stake-s,591,1924272,0.0-18.0-0.0-0.104,4086,2,1
105,4,object_03,object_10,448.445,7,2,263.285,0.7777777777777778,1,object_06,5,1486,0,7,4,restaurant_14,1,memory-2step-stake-s,592,1932563,0.0-18.0-0.0-0.105,4086,8,7
106,3,object_07,object_08,502.41,5,1,287.135,0.8888888888888888,1,object_06,5,1526,0,8,4,library_11,1,memory-2step-stake-s,593,1940974,0.0-18.0-0.0-0.106,4086,5,6
107,4,object_03,object_10,661.565,7,2,315.38,0.4444444444444444,1,object_06,5,1546,0,4,6,restaurant_10,1,memory-2step-stake-s,594,1948990,0.0-18.0-0.0-0.107,4086,8,7
108,3,object_07,object_08,773.44,5,1,333.62,0.3333333333333333,1,object_06,5,1561,0,3,7,library_22,1,memory-2step-stake-s,595,1956920,0.0-18.0-0.0-0.108,4086,5,6
109,1,object_01,object_02,625.695,2,2,344.36,0.8888888888888888,2,object_04,1,1569,0,5,8,desert_27,1,memory-2step-stake-s,596,1965408,0.0-18.0-0.0-0.109,4086,1,2
110,1,object_02,object_01,645.965,2,1,370.945,0.8888888888888888,2,object_04,1,1577,0,8,8,desert_23,1,memory-2step-stake-s,597,1973938,0.0-18.0-0.0-0.110,4086,2,1
111,3,object_08,object_07,668.885,6,1,445.22,0.7777777777777778,2,object_04,1,1584,0,7,7,library_7,1,memory-2step-stake-s,598,1982416,0.0-18.0-0.0-0.111,4086,6,5
112,3,object_08,object_07,542.56,6,1,337.605,0.6666666666666666,2,object_04,5,1614,0,4,6,library_16,1,memory-2step-stake-s,599,1990672,0.0-18.0-0.0-0.112,4086,6,5
113,2,object_09,object_05,702.6749999,4,1,377.0,0.5555555555555556,2,object_04,5,1639,0,1,5,forest_19,1,memory-2step-stake-s,600,1998864,0.0-18.0-0.0-0.113,4086,4,3
114,4,object_10,object_03,592.8,8,2,361.9,0.3333333333333333,2,object_04,5,1654,0,1,3,restaurant_14,1,memory-2step-stake-s,601,2006827,0.0-18.0-0.0-0.114,4086,7,8
115,2,object_09,object_05,670.16,3,2,332.07,0.3333333333333333,1,object_06,1,1657,0,3,6,forest_13,1,memory-2step-stake-s,602,2014762,0.0-18.0-0.0-0.115,4086,4,3
116,4,object_03,object_10,516.89,7,2,434.415,0.3333333333333333,1,object_06,5,1672,0,3,8,restaurant_5,1,memory-2step-stake-s,603,2022805,0.0-18.0-0.0-0.116,4086,8,7
117,2,object_05,object_09,601.605,3,1,279.85,0.6666666666666666,1,object_06,1,1678,0,6,9,forest_26,1,memory-2step-stake-s,604,2030999,0.0-18.0-0.0-0.117,4086,3,4
118,1,object_01,object_02,755.565,1,1,-1.0,0.0,1,object_06,1,1678,0,7,6,desert_3,1,memory-2step-stake-s,605,2039556,0.0-18.0-0.0-0.118,4086,1,2
119,2,object_05,object_09,499.275,3,1,314.945,0.5555555555555556,1,object_06,1,1683,0,5,3,forest_8,1,memory-2step-stake-s,606,2047647,0.0-18.0-0.0-0.119,4086,3,4
120,3,object_07,object_08,272.735,6,2,295.76,0.4444444444444444,2,object_04,1,1687,0,7,4,library_19,1,memory-2step-stake-s,607,2055648,0.0-18.0-0.0-0.120,4086,5,6
121,1,object_01,object_02,882.405,1,1,312.09,0.8888888888888888,1,object_06,1,1695,0,8,1,desert_20,1,memory-2step-stake-s,608,2064097,0.0-18.0-0.0-0.121,4086,1,2
122,3,object_08,object_07,683.815,5,2,276.375,0.8888888888888888,1,object_06,5,1735,0,8,5,library_19,1,memory-2step-stake-s,609,2072486,0.0-18.0-0.0-0.122,4086,6,5
123,1,object_02,object_01,675.44,1,2,256.855,0.7777777777777778,1,object_06,1,1742,0,7,5,desert_27,1,memory-2step-stake-s,610,2080754,0.0-18.0-0.0-0.123,4086,2,1
124,1,object_01,object_02,412.07,1,1,264.14,0.6666666666666666,1,object_06,1,1748,0,6,4,desert_3,1,memory-2step-stake-s,611,2088928,0.0-18.0-0.0-0.124,4086,1,2
125,1,object_02,object_01,759.72,1,2,371.495,0.7777777777777778,1,object_06,5,1783,0,7,8,desert_12,1,memory-2step-stake-s,612,2097331,0.0-18.0-0.0-0.125,4086,2,1
126,4,object_10,object_03,629.03,8,2,389.45,0.4444444444444444,2,object_04,1,1787,0,8,4,restaurant_16,1,memory-2step-stake-s,613,2105406,0.0-18.0-0.0-0.126,4086,7,8
127,2,object_09,object_05,428.1,3,2,285.285,1.0,1,object_06,1,1796,0,9,4,forest_12,1,memory-2step-stake-s,614,2113929,0.0-18.0-0.0-0.127,4086,4,3
128,3,object_07,object_08,760.14,6,2,315.52,0.2222222222222222,2,object_04,5,1806,0,6,2,library_17,1,memory-2step-stake-s,616,2246019,0.0-18.0-0.1-0.128,4086,5,6
129,2,object_05,object_09,630.145,3,1,309.57,0.7777777777777778,1,object_06,1,1813,0,7,1,forest_24,1,memory-2step-stake-s,617,2254350,0.0-18.0-0.1-0.129,4086,3,4
130,1,object_01,object_02,497.925,1,1,227.6,0.6666666666666666,1,object_06,1,1819,0,6,5,desert_9,1,memory-2step-stake-s,618,2262495,0.0-18.0-0.1-0.130,4086,1,2
131,2,object_09,object_05,541.175,3,2,430.125,0.8888888888888888,1,object_06,1,1827,0,8,1,forest_12,1,memory-2step-stake-s,619,2271069,0.0-18.0-0.1-0.131,4086,4,3
132,4,object_10,object_03,537.645,7,1,284.3,0.8888888888888888,1,object_06,5,1867,0,8,1,restaurant_19,1,memory-2step-stake-s,620,2279489,0.0-18.0-0.1-0.132,4086,7,8
133,2,object_05,object_09,498.285,4,2,249.225,0.2222222222222222,2,object_04,1,1869,0,8,2,forest_30,1,memory-2step-stake-s,621,2287238,0.0-18.0-0.1-0.133,4086,3,4
134,2,object_09,object_05,699.885,3,2,329.375,1.0,1,object_06,1,1878,0,9,2,forest_26,1,memory-2step-stake-s,622,2295811,0.0-18.0-0.1-0.134,4086,4,3
135,2,object_05,object_09,619.23,3,1,-1.0,0.0,1,object_06,1,1878,0,7,3,forest_28,1,memory-2step-stake-s,623,2304405,0.0-18.0-0.1-0.135,4086,3,4
136,4,object_03,object_10,596.145,7,2,254.815,0.7777777777777778,1,object_06,5,1913,0,7,2,restaurant_23,1,memory-2step-stake-s,624,2312683,0.0-18.0-0.1-0.136,4086,8,7
137,2,object_09,object_05,588.915,3,2,402.785,0.5555555555555556,1,object_06,1,1918,0,5,2,forest_7,1,memory-2step-stake-s,625,2320924,0.0-18.0-0.1-0.137,4086,4,3
138,1,object_02,object_01,617.02,2,1,397.095,0.4444444444444444,2,object_04,1,1922,0,1,4,desert_14,1,memory-2step-stake-s,626,2329035,0.0-18.0-0.1-0.138,4086,2,1
139,1,object_02,object_01,553.065,2,1,303.005,0.4444444444444444,2,object_04,1,1926,0,0,4,desert_27,1,memory-2step-stake-s,627,2337027,0.0-18.0-0.1-0.139,4086,2,1
140,3,object_08,object_07,564.645,6,1,457.52,0.1111111111111111,2,object_04,5,1931,0,5,1,library_17,1,memory-2step-stake-s,628,2344868,0.0-18.0-0.1-0.140,4086,6,5
141,1,object_01,object_02,721.31,1,1,282.475,0.3333333333333333,1,object_06,1,1934,0,3,2,desert_9,1,memory-2step-stake-s,629,2352761,0.0-18.0-0.1-0.141,4086,1,2
142,4,object_03,object_10,454.985,7,2,369.16,0.1111111111111111,1,object_06,5,1939,0,1,5,restaurant_31,1,memory-2step-stake-s,630,2360507,0.0-18.0-0.1-0.142,4086,8,7
143,2,object_05,object_09,542.87,4,2,542.17,0.5555555555555556,2,object_04,1,1944,0,2,5,forest_29,1,memory-2step-stake-s,631,2368874,0.0-18.0-0.1-0.143,4086,3,4
144,1,object_01,object_02,594.085,2,2,363.52,0.5555555555555556,2,object_04,1,1949,0,5,5,desert_20,1,memory-2step-stake-s,632,2377072,0.0-18.0-0.1-0.144,4086,1,2
145,3,object_08,object_07,674.225,6,1,468.115,0.3333333333333333,2,object_04,5,1964,0,6,3,library_11,1,memory-2step-stake-s,633,2385150,0.0-18.0-0.1-0.145,4086,6,5
146,4,object_10,object_03,411.365,8,2,540.245,0.4444444444444444,2,object_04,1,1968,0,7,4,restaurant_1,1,memory-2step-stake-s,634,2393419,0.0-18.0-0.1-0.146,4086,7,8
147,2,object_09,object_05,473.14,3,2,396.625,0.8888888888888888,1,object_06,1,1976,0,8,6,forest_5,1,memory-2step-stake-s,635,2401961,0.0-18.0-0.1-0.147,4086,4,3
148,4,object_10,object_03,444.51,7,1,488.125,0.8888888888888888,1,object_06,5,2016,0,8,4,restaurant_3,1,memory-2step-stake-s,636,2410591,0.0-18.0-0.1-0.148,4086,7,8
149,2,object_09,object_05,452.18,4,1,307.53,0.3333333333333333,2,object_04,1,2019,0,3,3,forest_3,1,memory-2step-stake-s,637,2418487,0.0-18.0-0.1-0.149,4086,4,3
150,1,object_02,object_01,678.84,1,2,446.64,0.5555555555555556,1,object_06,1,2024,0,5,2,desert_14,1,memory-2step-stake-s,638,2426742,0.0-18.0-0.1-0.150,4086,2,1
151,3,object_07,object_08,633.08,5,1,326.755,0.5555555555555556,1,object_06,1,2029,0,5,4,library_3,1,memory-2step-stake-s,639,2434904,0.0-18.0-0.1-0.151,4086,5,6
152,1,object_01,object_02,640.025,1,1,323.35,0.2222222222222222,1,object_06,1,2031,0,2,2,desert_8,1,memory-2step-stake-s,640,2442729,0.0-18.0-0.1-0.152,4086,1,2
153,4,object_03,object_10,738.665,8,1,444.125,0.0,2,object_04,5,2031,0,1,0,restaurant_24,1,memory-2step-stake-s,641,2450442,0.0-18.0-0.1-0.153,4086,8,7
154,3,object_08,object_07,622.34,5,2,327.565,0.3333333333333333,1,object_06,5,2046,0,3,5,library_27,1,memory-2step-stake-s,642,2458397,0.0-18.0-0.1-0.154,4086,6,5
155,3,object_08,object_07,401.175,5,2,287.55,0.0,1,object_06,5,2046,0,0,7,library_13,1,memory-2step-stake-s,643,2465953,0.0-18.0-0.1-0.155,4086,6,5
156,1,object_01,object_02,658.285,2,2,378.695,0.6666666666666666,2,object_04,1,2052,0,0,6,desert_13,1,memory-2step-stake-s,644,2474262,0.0-18.0-0.1-0.156,4086,1,2
157,2,object_09,object_05,588.67,4,1,274.355,0.3333333333333333,2,object_04,1,2055,0,1,3,forest_30,1,memory-2step-stake-s,645,2482137,0.0-18.0-0.1-0.157,4086,4,3
158,1,object_01,object_02,976.875,1,1,393.815,0.1111111111111111,1,object_06,5,2060,0,1,3,desert_12,1,memory-2step-stake-s,646,2489920,0.0-18.0-0.1-0.158,4086,1,2
159,2,object_09,object_05,385.975,3,2,371.97,0.3333333333333333,1,object_06,1,2063,0,3,0,forest_20,1,memory-2step-stake-s,647,2497882,0.0-18.0-0.1-0.159,4086,4,3
160,1,object_02,object_01,613.965,1,2,352.43,0.2222222222222222,1,object_06,1,2065,0,2,2,desert_10,1,memory-2step-stake-s,648,2505732,0.0-18.0-0.1-0.160,4086,2,1
161,3,object_07,object_08,666.78,6,2,352.735,0.3333333333333333,2,object_04,1,2068,0,1,3,library_12,1,memory-2step-stake-s,649,2513658,0.0-18.0-0.1-0.161,4086,5,6
162,2,object_05,object_09,580.47,4,2,757.58,0.1111111111111111,2,object_04,1,2069,0,3,1,forest_19,1,memory-2step-stake-s,650,2521811,0.0-18.0-0.1-0.162,4086,3,4
163,1,object_02,object_01,694.33,1,2,339.965,0.2222222222222222,1,object_06,1,2071,0,2,2,desert_12,1,memory-2step-stake-s,651,2529654,0.0-18.0-0.1-0.163,4086,2,1
164,2,object_09,object_05,482.005,4,1,388.185,0.3333333333333333,2,object_04,1,2074,0,2,3,forest_20,1,memory-2step-stake-s,652,2537620,0.0-18.0-0.1-0.164,4086,4,3
165,2,object_05,object_09,490.95,4,2,364.67,0.2222222222222222,2,object_04,1,2076,0,0,2,forest_28,1,memory-2step-stake-s,653,2545473,0.0-18.0-0.1-0.165,4086,3,4
166,3,object_07,object_08,557.1,5,1,298.715,0.6666666666666666,1,object_06,5,2106,0,6,2,library_13,1,memory-2step-stake-s,654,2553686,0.0-18.0-0.1-0.166,4086,5,6
167,4,object_03,object_10,486.17,7,2,323.26,0.8888888888888888,1,object_06,5,2146,0,8,4,restaurant_28,1,memory-2step-stake-s,655,2562151,0.0-18.0-0.1-0.167,4086,8,7
168,1,object_01,object_02,721.835,1,1,515.995,0.7777777777777778,1,object_06,1,2153,0,7,2,desert_23,1,memory-2step-stake-s,656,2570694,0.0-18.0-0.1-0.168,4086,1,2
169,1,object_02,object_01,630.54,1,2,767.41,0.5555555555555556,1,object_06,1,2158,0,5,2,desert_4,1,memory-2step-stake-s,657,2579276,0.0-18.0-0.1-0.169,4086,2,1
170,2,object_05,object_09,381.42,4,2,429.275,0.1111111111111111,2,object_04,5,2163,0,4,1,forest_7,1,memory-2step-stake-s,658,2587086,0.0-18.0-0.1-0.170,4086,3,4
171,4,object_10,object_03,537.85,7,1,163.01,0.6666666666666666,1,object_06,5,2193,0,6,2,restaurant_11,1,memory-2step-stake-s,659,2595188,0.0-18.0-0.1-0.171,4086,7,8
172,4,object_10,object_03,386.1,7,1,433.225,0.5555555555555556,1,object_06,5,2218,0,5,2,restaurant_9,1,memory-2step-stake-s,660,2603441,0.0-18.0-0.1-0.172,4086,7,8
173,1,object_01,object_02,790.035,1,1,316.52,0.5555555555555556,1,object_06,5,2243,0,5,1,desert_4,1,memory-2step-stake-s,661,2611571,0.0-18.0-0.1-0.173,4086,1,2
174,1,object_02,object_01,683.18,2,1,297.1,0.4444444444444444,2,object_04,5,2263,0,7,4,desert_8,1,memory-2step-stake-s,662,2619573,0.0-18.0-0.1-0.174,4086,2,1
175,4,object_10,object_03,542.6550001,8,2,418.11,0.5555555555555556,2,object_04,5,2288,0,9,5,restaurant_2,1,memory-2step-stake-s,663,2627794,0.0-18.0-0.1-0.175,4086,7,8
176,2,object_09,object_05,443.29,4,1,284.875,0.5555555555555556,2,object_04,1,2293,0,6,5,forest_10,1,memory-2step-stake-s,664,2635876,0.0-18.0-0.1-0.176,4086,4,3
177,1,object_02,object_01,568.295,2,1,728.0750001,0.3333333333333333,2,object_04,1,2296,0,9,3,desert_10,1,memory-2step-stake-s,665,2644193,0.0-18.0-0.1-0.177,4086,2,1
178,4,object_03,object_10,623.61,7,2,541.37,0.8888888888888888,1,object_06,1,2304,0,8,4,restaurant_25,1,memory-2step-stake-s,666,2652879,0.0-18.0-0.1-0.178,4086,8,7
179,3,object_08,object_07,751.455,5,2,257.22,0.8888888888888888,1,object_06,5,2344,0,8,6,library_31,1,memory-2step-stake-s,667,2661300,0.0-18.0-0.1-0.179,4086,6,5
180,2,object_09,object_05,649.84,3,2,693.68,0.7777777777777778,1,object_06,1,2351,0,7,6,forest_12,1,memory-2step-stake-s,668,2670040,0.0-18.0-0.1-0.180,4086,4,3
181,3,object_08,object_07,622.07,5,2,258.755,0.8888888888888888,1,object_06,1,2359,0,8,8,library_13,1,memory-2step-stake-s,669,2678417,0.0-18.0-0.1-0.181,4086,6,5
182,1,object_01,object_02,570.355,2,2,440.215,1.0,2,object_04,5,2404,0,9,9,desert_13,1,memory-2step-stake-s,670,2687126,0.0-18.0-0.1-0.182,4086,1,2
183,3,object_08,object_07,725.885,5,2,371.575,1.0,1,object_06,1,2413,0,9,7,library_7,1,memory-2step-stake-s,671,2695741,0.0-18.0-0.1-0.183,4086,6,5
184,4,object_03,object_10,480.53,8,1,308.94,0.6666666666666666,2,object_04,5,2443,0,6,6,restaurant_23,1,memory-2step-stake-s,672,2703979,0.0-18.0-0.1-0.184,4086,8,7
185,4,object_10,object_03,841.38,7,1,375.685,0.7777777777777778,1,object_06,1,2450,0,7,7,restaurant_9,1,memory-2step-stake-s,673,2712348,0.0-18.0-0.1-0.185,4086,7,8
186,1,object_02,object_01,581.335,1,2,393.09,0.5555555555555556,1,object_06,1,2455,0,5,7,desert_13,1,memory-2step-stake-s,674,2720536,0.0-18.0-0.1-0.186,4086,2,1
187,1,object_02,object_01,613.5,2,1,730.45,0.8888888888888888,2,object_04,5,2495,0,3,8,desert_18,1,memory-2step-stake-s,675,2729407,0.0-18.0-0.1-0.187,4086,2,1
188,1,object_01,object_02,619.255,2,2,359.99,0.8888888888888888,2,object_04,5,2535,0,1,8,desert_19,1,memory-2step-stake-s,676,2737899,0.0-18.0-0.1-0.188,4086,1,2
189,2,object_05,object_09,480.235,3,1,330.11,0.2222222222222222,1,object_06,1,2537,0,2,9,forest_12,1,memory-2step-stake-s,677,2745717,0.0-18.0-0.1-0.189,4086,3,4
190,2,object_05,object_09,533.56,4,2,312.54,0.8888888888888888,2,object_04,5,2577,0,1,8,forest_11,1,memory-2step-stake-s,678,2754152,0.0-18.0-0.1-0.190,4086,3,4
191,2,object_05,object_09,487.715,4,2,996.69,0.4444444444444444,2,object_04,1,2581,0,2,4,forest_30,1,memory-2step-stake-s,679,2762844,0.0-18.0-0.1-0.191,4086,3,4
192,3,object_07,object_08,510.07,5,1,410.58,0.3333333333333333,1,object_06,5,2596,0,3,5,library_15,1,memory-2step-stake-s,680,2770837,0.0-18.0-0.1-0.192,4086,5,6
193,1,object_01,object_02,440.605,2,2,320.06,0.3333333333333333,2,object_04,1,2599,0,5,3,desert_28,1,memory-2step-stake-s,681,2778745,0.0-18.0-0.1-0.193,4086,1,2
194,2,object_05,object_09,649.195,3,1,495.54,0.8888888888888888,1,object_06,1,2607,0,8,5,forest_4,1,memory-2step-stake-s,682,2787364,0.0-18.0-0.1-0.194,4086,3,4
195,3,object_08,object_07,711.56,5,2,247.905,0.5555555555555556,1,object_06,5,2632,0,5,9,library_19,1,memory-2step-stake-s,683,2795404,0.0-18.0-0.1-0.195,4086,6,5
196,1,object_02,object_01,537.665,2,1,382.485,0.8888888888888888,2,object_04,1,2640,0,7,8,desert_19,1,memory-2step-stake-s,684,2803933,0.0-18.0-0.1-0.196,4086,2,1
197,4,object_03,object_10,696.61,8,1,1140.785,0.7777777777777778,2,object_04,5,2675,0,5,7,restaurant_1,1,memory-2step-stake-s,685,2813119,0.0-18.0-0.1-0.197,4086,8,7
198,4,object_03,object_10,460.01,8,1,321.575,0.8888888888888888,2,object_04,1,2683,0,2,8,restaurant_28,1,memory-2step-stake-s,686,2821561,0.0-18.0-0.1-0.198,4086,8,7
199,2,object_09,object_05,437.425,4,1,288.9,0.8888888888888888,2,object_04,1,2691,0,5,8,forest_28,1,memory-2step-stake-s,687,2829996,0.0-18.0-0.1-0.199,4086,4,3
200,3,object_07,object_08,622.645,6,2,790.79,0.8888888888888888,2,object_04,5,2731,0,6,8,library_9,1,memory-2step-stake-s,688,2838898,0.0-18.0-0.1-0.200,4086,5,6
201,4,object_10,object_03,718.1300001,8,2,524.375,0.8888888888888888,2,object_04,5,2771,0,5,8,restaurant_14,1,memory-2step-stake-s,689,2847558,0.0-18.0-0.1-0.201,4086,7,8
202,1,object_01,object_02,596.195,2,2,388.99,0.4444444444444444,2,object_04,1,2775,0,2,4,desert_28,1,memory-2step-stake-s,690,2855661,0.0-18.0-0.1-0.202,4086,1,2
203,4,object_10,object_03,710.795,7,1,502.63,0.3333333333333333,1,object_06,1,2778,0,3,1,restaurant_19,1,memory-2step-stake-s,691,2863789,0.0-18.0-0.1-0.203,4086,7,8
204,2,object_05,object_09,441.8,3,1,348.875,0.6666666666666666,1,object_06,1,2784,0,6,2,forest_24,1,memory-2step-stake-s,692,2872032,0.0-18.0-0.1-0.204,4086,3,4
205,4,object_10,object_03,518.795,7,1,356.79,0.5555555555555556,1,object_06,5,2809,0,5,4,restaurant_3,1,memory-2step-stake-s,693,2880190,0.0-18.0-0.1-0.205,4086,7,8
206,3,object_07,object_08,566.81,6,2,360.57,0.5555555555555556,2,object_04,5,2834,0,5,5,library_12,1,memory-2step-stake-s,694,2888385,0.0-18.0-0.1-0.206,4086,5,6
207,2,object_09,object_05,396.8,4,1,271.405,0.1111111111111111,2,object_04,1,2835,0,2,1,forest_20,1,memory-2step-stake-s,695,2896033,0.0-18.0-0.1-0.207,4086,4,3
208,4,object_03,object_10,398.84,7,2,327.34,0.4444444444444444,1,object_06,5,2855,0,4,2,restaurant_18,1,memory-2step-stake-s,696,2904074,0.0-18.0-0.1-0.208,4086,8,7
209,4,object_10,object_03,473.925,7,1,298.625,0.3333333333333333,1,object_06,5,2870,0,3,1,restaurant_25,1,memory-2step-stake-s,697,2911968,0.0-18.0-0.1-0.209,4086,7,8
210,3,object_07,object_08,603.625,6,2,166.0950001,0.2222222222222222,2,object_04,1,2872,0,2,2,library_7,1,memory-2step-stake-s,698,2919607,0.0-18.0-0.1-0.210,4086,5,6
211,4,object_03,object_10,473.78,7,2,597.4950001,0.2222222222222222,1,object_06,1,2874,0,2,3,restaurant_31,1,memory-2step-stake-s,699,2927682,0.0-18.0-0.1-0.211,4086,8,7
212,1,object_02,object_01,534.475,2,1,223.415,0.1111111111111111,2,object_04,1,2875,0,1,1,desert_20,1,memory-2step-stake-s,700,2935314,0.0-18.0-0.1-0.212,4086,2,1
213,3,object_07,object_08,590.19,5,1,127.33,0.0,1,object_06,5,2875,0,0,1,library_22,1,memory-2step-stake-s,701,2942710,0.0-18.0-0.1-0.213,4086,5,6
214,1,object_02,object_01,575.435,2,1,399.515,0.1111111111111111,2,object_04,1,2876,0,2,1,desert_4,1,memory-2step-stake-s,702,2950479,0.0-18.0-0.1-0.214,4086,2,1
215,4,object_10,object_03,550.405,8,2,285.62,0.4444444444444444,2,object_04,5,2896,0,2,4,restaurant_3,1,memory-2step-stake-s,703,2958481,0.0-18.0-0.1-0.215,4086,7,8
216,4,object_03,object_10,695.555,8,1,283.785,0.6666666666666666,2,object_04,1,2902,0,1,6,restaurant_2,1,memory-2step-stake-s,704,2966663,0.0-18.0-0.1-0.216,4086,8,7
217,2,object_09,object_05,809.06,4,1,492.18,0.5555555555555556,2,object_04,1,2907,0,2,5,forest_30,1,memory-2step-stake-s,705,2974968,0.0-18.0-0.1-0.217,4086,4,3
218,3,object_07,object_08,623.04,6,2,359.26,0.5555555555555556,2,object_04,5,2932,0,1,5,library_19,1,memory-2step-stake-s,706,2983119,0.0-18.0-0.1-0.218,4086,5,6
219,3,object_08,object_07,551.885,6,1,645.6700001,0.6666666666666666,2,object_04,5,2962,0,2,6,library_7,1,memory-2step-stake-s,707,2991670,0.0-18.0-0.1-0.219,4086,6,5
220,2,object_05,object_09,656.255,4,2,491.79,0.4444444444444444,2,object_04,1,2966,0,5,4,forest_29,1,memory-2step-stake-s,708,2999876,0.0-18.0-0.1-0.220,4086,3,4
221,4,object_10,object_03,779.435,7,1,339.14,0.6666666666666666,1,object_06,1,2972,0,6,5,restaurant_16,1,memory-2step-stake-s,709,3008153,0.0-18.0-0.1-0.221,4086,7,8
222,1,object_02,object_01,769.175,1,2,616.755,0.5555555555555556,1,object_06,1,2977,0,5,8,desert_28,1,memory-2step-stake-s,710,3016592,0.0-18.0-0.1-0.222,4086,2,1
223,3,object_07,object_08,625.37,5,1,338.055,0.7777777777777778,1,object_06,5,3012,0,7,6,library_9,1,memory-2step-stake-s,711,3024958,0.0-18.0-0.1-0.223,4086,5,6
224,2,object_05,object_09,858.145,3,1,282.74,0.6666666666666666,1,object_06,1,3018,0,6,7,forest_20,1,memory-2step-stake-s,712,3033175,0.0-18.0-0.1-0.224,4086,3,4
225,4,object_10,object_03,434.415,7,1,433.515,0.7777777777777778,1,object_06,5,3053,0,7,7,restaurant_25,1,memory-2step-stake-s,713,3041632,0.0-18.0-0.1-0.225,4086,7,8
226,2,object_09,object_05,717.85,4,1,255.79,1.0,2,object_04,1,3062,0,9,9,forest_19,1,memory-2step-stake-s,714,3050156,0.0-18.0-0.1-0.226,4086,4,3
227,2,object_05,object_09,482.025,4,2,439.005,0.7777777777777778,2,object_04,1,3069,0,8,7,forest_10,1,memory-2step-stake-s,715,3058616,0.0-18.0-0.1-0.227,4086,3,4
228,3,object_07,object_08,605.075,6,2,349.995,0.7777777777777778,2,object_04,5,3104,0,5,7,library_12,1,memory-2step-stake-s,716,3067001,0.0-18.0-0.1-0.228,4086,5,6
229,3,object_07,object_08,522.65,6,2,500.845,0.8888888888888888,2,object_04,5,3144,0,5,8,library_15,1,memory-2step-stake-s,717,3075657,0.0-18.0-0.1-0.229,4086,5,6
230,4,object_10,object_03,566.855,7,1,274.795,0.6666666666666666,1,object_06,5,3174,0,6,6,restaurant_28,1,memory-2step-stake-s,718,3083838,0.0-18.0-0.1-0.230,4086,7,8
231,2,object_09,object_05,485.595,3,2,491.0,0.3333333333333333,1,object_06,1,3177,0,3,9,forest_28,1,memory-2step-stake-s,719,3091936,0.0-18.0-0.1-0.231,4086,4,3
232,3,object_08,object_07,395.055,6,1,259.085,0.6666666666666666,2,object_04,5,3207,0,2,6,library_15,1,memory-2step-stake-s,720,3100130,0.0-18.0-0.1-0.232,4086,6,5
233,2,object_09,object_05,353.305,3,2,360.745,0.0,1,object_06,1,3207,0,0,5,forest_7,1,memory-2step-stake-s,721,3107760,0.0-18.0-0.1-0.233,4086,4,3
234,1,object_01,object_02,1022.74,2,2,352.44999989999997,0.2222222222222222,2,object_04,5,3217,0,0,2,desert_13,1,memory-2step-stake-s,722,3115612,0.0-18.0-0.1-0.234,4086,1,2
235,4,object_03,object_10,751.1,8,1,583.775,0.4444444444444444,2,object_04,5,3237,0,2,4,restaurant_31,1,memory-2step-stake-s,723,3123880,0.0-18.0-0.1-0.235,4086,8,7
236,3,object_08,object_07,628.885,6,1,312.24,0.5555555555555556,2,object_04,5,3262,0,4,5,library_17,1,memory-2step-stake-s,724,3131999,0.0-18.0-0.1-0.236,4086,6,5
237,2,object_05,object_09,748.155,4,2,357.07,0.6666666666666666,2,object_04,1,3268,0,5,6,forest_7,1,memory-2step-stake-s,725,3140282,0.0-18.0-0.1-0.237,4086,3,4
238,2,object_05,object_09,847.995,4,2,565.865,0.5555555555555556,2,object_04,5,3293,0,0,5,forest_13,1,memory-2step-stake-s,726,3148645,0.0-18.0-0.1-0.238,4086,3,4
239,4,object_03,object_10,714.03,8,1,577.735,0.8888888888888888,2,object_04,1,3301,0,4,8,restaurant_18,1,memory-2step-stake-s,727,3157347,0.0-18.0-0.1-0.239,4086,8,7
240,1,object_01,object_02,864.41,2,2,808.74,0.6666666666666666,2,object_04,1,3307,0,3,6,desert_18,1,memory-2step-stake-s,728,3166068,0.0-18.0-0.1-0.240,4086,1,2
241,2,object_05,object_09,572.855,4,2,311.835,0.5555555555555556,2,object_04,1,3312,0,0,5,forest_5,1,memory-2step-stake-s,729,3174157,0.0-18.0-0.1-0.241,4086,3,4
242,4,object_03,object_10,602.875,8,1,387.905,0.6666666666666666,2,object_04,5,3342,0,1,6,restaurant_31,1,memory-2step-stake-s,730,3182465,0.0-18.0-0.1-0.242,4086,8,7
243,4,object_03,object_10,551.375,8,1,264.45,0.4444444444444444,2,object_04,5,3362,0,2,4,restaurant_9,1,memory-2step-stake-s,731,3190414,0.0-18.0-0.1-0.243,4086,8,7
244,1,object_02,object_01,605.255,2,1,378.345,0.7777777777777778,2,object_04,1,3369,0,5,7,desert_1,1,memory-2step-stake-s,732,3198816,0.0-18.0-0.1-0.244,4086,2,1
245,3,object_08,object_07,598.55,6,1,344.655,0.7777777777777778,2,object_04,5,3404,0,5,7,library_1,1,memory-2step-stake-s,733,3207205,0.0-18.0-0.1-0.245,4086,6,5
246,4,object_03,object_10,436.33,8,1,270.655,0.5555555555555556,2,object_04,5,3429,0,4,5,restaurant_25,1,memory-2step-stake-s,734,3215272,0.0-18.0-0.1-0.246,4086,8,7
247,2,object_05,object_09,390.22,4,2,418.45,0.7777777777777778,2,object_04,5,3464,0,2,7,forest_8,1,memory-2step-stake-s,735,3223720,0.0-18.0-0.1-0.247,4086,3,4
248,1,object_01,object_02,564.785,2,2,313.02,0.8888888888888888,2,object_04,5,3504,0,1,8,desert_9,1,memory-2step-stake-s,736,3232146,0.0-18.0-0.1-0.248,4086,1,2
249,3,object_08,object_07,506.075,6,1,340.4,0.8888888888888888,2,object_04,5,3544,0,1,8,library_15,1,memory-2step-stake-s,737,3240619,0.0-18.0-0.1-0.249,4086,6,5
250,4,object_03,object_10,487.84,8,1,293.95,0.7777777777777778,2,object_04,1,3551,0,3,7,restaurant_5,1,memory-2step-stake-s,738,3248958,0.0-18.0-0.1-0.250,4086,8,7
251,1,object_01,object_02,545.8650001,2,2,463.54,0.5555555555555556,2,object_04,1,3556,0,4,5,desert_1,1,memory-2step-stake-s,739,3257225,0.0-18.0-0.1-0.251,4086,1,2
252,4,object_10,object_03,578.91,8,2,330.93,0.6666666666666666,2,object_04,5,3586,0,3,6,restaurant_14,1,memory-2step-stake-s,740,3265467,0.0-18.0-0.1-0.252,4086,7,8
253,1,object_01,object_02,563.43,2,2,311.21,0.8888888888888888,2,object_04,1,3594,0,1,8,desert_20,1,memory-2step-stake-s,741,3273914,0.0-18.0-0.1-0.253,4086,1,2
254,1,object_02,object_01,625.155,2,1,309.74,0.6666666666666666,2,object_04,1,3600,0,3,6,desert_28,1,memory-2step-stake-s,742,3282125,0.0-18.0-0.1-0.254,4086,2,1
255,1,object_01,object_02,605.395,2,2,293.68,0.5555555555555556,2,object_04,1,3605,0,3,5,desert_6,1,memory-2step-stake-s,743,3290205,0.0-18.0-0.1-0.255,4086,1,2
