,state1,stim_left,stim_right,rt_1,choice1,response1,rt_2,points,state2,stim_state2,stake,score,practice,rews1,rews2,background,high_arm,trial_type,trial_index,time_elapsed,internal_node_id,subid,stim_left_num,stim_right_num
0,4,object_02,object_08,1319.045,7,1,1385.395,0.2222222222222222,1,object_10,5,10,0,2,2,restaurant_7,1,memory-2step-stake-s,487,1266056,0.0-18.0-0.0-0.0,4470,7,8
1,2,object_01,object_04,937.445,4,2,790.51,0.2222222222222222,2,object_06,5,20,0,3,2,forest_24,1,memory-2step-stake-s,488,1274271,0.0-18.0-0.0-0.1,4470,3,4
2,1,object_07,object_05,773.03,2,1,445.795,0.4444444444444444,2,object_06,1,24,0,6,4,desert_19,1,memory-2step-stake-s,489,1282341,0.0-18.0-0.0-0.2,4470,2,1
3,1,object_05,object_07,834.57,2,2,855.455,0.8888888888888888,2,object_06,1,32,0,6,8,desert_30,1,memory-2step-stake-s,490,1291222,0.0-18.0-0.0-0.3,4470,1,2
4,4,object_08,object_02,1403.52,8,1,1006.26,1.0,2,object_06,5,77,0,8,9,restaurant_8,1,memory-2step-stake-s,491,1300356,0.0-18.0-0.0-0.4,4470,8,7
5,2,object_04,object_01,1286.83,4,1,1242.515,0.2222222222222222,2,object_06,1,79,0,5,2,forest_2,1,memory-2step-stake-s,492,1309021,0.0-18.0-0.0-0.5,4470,4,3
6,3,object_03,object_09,635.625,5,2,485.56,0.4444444444444444,1,object_10,5,99,0,4,5,library_16,1,memory-2step-stake-s,493,1317134,0.0-18.0-0.0-0.6,4470,6,5
7,4,object_08,object_02,1033.5,8,1,428.145,0.7777777777777778,2,object_06,5,134,0,8,7,restaurant_21,1,memory-2step-stake-s,494,1325482,0.0-18.0-0.0-0.7,4470,8,7
8,3,object_09,object_03,904.61,6,2,448.36,0.6666666666666666,2,object_06,1,140,0,5,6,library_26,1,memory-2step-stake-s,495,1333756,0.0-18.0-0.0-0.8,4470,5,6
9,4,object_02,object_08,1166.405,8,2,440.49,0.3333333333333333,2,object_06,5,155,0,6,3,restaurant_11,1,memory-2step-stake-s,496,1341715,0.0-18.0-0.0-0.9,4470,7,8
10,2,object_04,object_01,882.15,4,1,763.055,0.4444444444444444,2,object_06,1,159,0,5,4,forest_29,1,memory-2step-stake-s,497,1350098,0.0-18.0-0.0-0.10,4470,4,3
11,3,object_09,object_03,674.855,5,1,375.185,0.5555555555555556,1,object_10,5,184,0,5,5,library_28,1,memory-2step-stake-s,498,1358198,0.0-18.0-0.0-0.11,4470,5,6
12,2,object_01,object_04,1165.54,4,2,-1.0,0.0,2,object_06,1,184,0,4,3,forest_20,1,memory-2step-stake-s,499,1366714,0.0-18.0-0.0-0.12,4470,3,4
13,4,object_08,object_02,1013.545,8,1,626.26,0.5555555555555556,2,object_06,5,209,0,3,5,restaurant_8,1,memory-2step-stake-s,500,1375066,0.0-18.0-0.0-0.13,4470,8,7
14,2,object_04,object_01,-1.0,-1,-1,-1.0,0.0,-,,1,209,0,3,4,forest_15,1,memory-2step-stake-s,501,1381578,0.0-18.0-0.0-0.14,4470,4,3
15,2,object_04,object_01,754.68,3,2,533.29,0.4444444444444444,1,object_10,5,229,0,4,8,forest_19,1,memory-2step-stake-s,502,1389732,0.0-18.0-0.0-0.15,4470,4,3
16,2,object_01,object_04,700.585,3,1,909.91,0.2222222222222222,1,object_10,5,239,0,2,7,forest_25,1,memory-2step-stake-s,503,1398059,0.0-18.0-0.0-0.16,4470,3,4
17,2,object_01,object_04,378.495,4,2,402.56,1.0,2,object_06,1,248,0,3,9,forest_28,1,memory-2step-stake-s,504,1406587,0.0-18.0-0.0-0.17,4470,3,4
18,2,object_04,object_01,482.3100001,4,1,540.06,0.8888888888888888,2,object_06,1,256,0,3,8,forest_15,1,memory-2step-stake-s,505,1415155,0.0-18.0-0.0-0.18,4470,4,3
19,4,object_08,object_02,783.295,7,2,-1.0,0.0,1,object_10,5,256,0,0,5,restaurant_20,1,memory-2step-stake-s,506,1423671,0.0-18.0-0.0-0.19,4470,8,7
20,2,object_01,object_04,496.4,3,1,461.795,0.1111111111111111,1,object_10,5,261,0,1,3,forest_29,1,memory-2step-stake-s,507,1431446,0.0-18.0-0.0-0.20,4470,3,4
21,2,object_04,object_01,355.825,3,2,372.15,0.2222222222222222,1,object_10,5,271,0,2,2,forest_10,1,memory-2step-stake-s,508,1439238,0.0-18.0-0.0-0.21,4470,4,3
22,1,object_05,object_07,1040.16,2,2,616.195,0.2222222222222222,2,object_06,1,273,0,3,2,desert_15,1,memory-2step-stake-s,509,1447272,0.0-18.0-0.0-0.22,4470,1,2
23,1,object_05,object_07,-1.0,-1,-1,-1.0,0.0,-,,1,273,0,2,1,desert_12,1,memory-2step-stake-s,510,1453781,0.0-18.0-0.0-0.23,4470,1,2
24,1,object_07,object_05,-1.0,-1,-1,-1.0,0.0,-,,1,273,0,0,3,desert_19,1,memory-2step-stake-s,511,1460291,0.0-18.0-0.0-0.24,4470,2,1
25,2,object_01,object_04,442.17,4,2,1195.595,0.5555555555555556,2,object_06,1,278,0,0,5,forest_2,1,memory-2step-stake-s,512,1469208,0.0-18.0-0.0-0.25,4470,3,4
26,3,object_09,object_03,847.655,5,1,657.645,0.1111111111111111,1,object_10,1,279,0,1,0,library_19,1,memory-2step-stake-s,513,1477185,0.0-18.0-0.0-0.26,4470,5,6
27,4,object_02,object_08,696.27,8,2,716.125,0.2222222222222222,2,object_06,5,289,0,1,2,restaurant_26,1,memory-2step-stake-s,514,1485319,0.0-18.0-0.0-0.27,4470,7,8
28,4,object_02,object_08,874.93,7,1,560.49,0.3333333333333333,1,object_10,1,292,0,3,4,restaurant_15,1,memory-2step-stake-s,515,1493398,0.0-18.0-0.0-0.28,4470,7,8
29,4,object_02,object_08,1102.71,7,1,417.635,0.6666666666666666,1,object_10,5,322,0,6,3,restaurant_18,1,memory-2step-stake-s,516,1501638,0.0-18.0-0.0-0.29,4470,7,8
30,2,object_01,object_04,1163.585,4,2,711.745,0.6666666666666666,2,object_06,1,328,0,4,6,forest_23,1,memory-2step-stake-s,517,1510173,0.0-18.0-0.0-0.30,4470,3,4
31,2,object_04,object_01,664.195,4,1,-1.0,0.0,2,object_06,5,328,0,1,2,forest_19,1,memory-2step-stake-s,518,1518687,0.0-18.0-0.0-0.31,4470,4,3
32,1,object_05,object_07,814.145,2,2,691.37,0.4444444444444444,2,object_06,1,332,0,1,4,desert_14,1,memory-2step-stake-s,519,1527000,0.0-18.0-0.0-0.32,4470,1,2
33,3,object_09,object_03,799.285,5,1,549.035,0.1111111111111111,1,object_10,5,337,0,1,6,library_27,1,memory-2step-stake-s,520,1534869,0.0-18.0-0.0-0.33,4470,5,6
34,4,object_08,object_02,-1.0,-1,-1,-1.0,0.0,-,,5,337,0,2,5,restaurant_30,1,memory-2step-stake-s,521,1541379,0.0-18.0-0.0-0.34,4470,8,7
35,3,object_09,object_03,556.54,6,2,650.945,0.5555555555555556,2,object_06,5,362,0,1,5,library_30,1,memory-2step-stake-s,522,1549753,0.0-18.0-0.0-0.35,4470,5,6
36,3,object_03,object_09,821.6800001,6,1,-1.0,0.0,2,object_06,5,362,0,0,2,library_32,1,memory-2step-stake-s,523,1558268,0.0-18.0-0.0-0.36,4470,6,5
37,3,object_09,object_03,499.96,6,2,598.2900001,0.3333333333333333,2,object_06,5,377,0,2,3,library_16,1,memory-2step-stake-s,524,1566385,0.0-18.0-0.0-0.37,4470,5,6
38,3,object_09,object_03,705.565,5,1,448.7750001,0.5555555555555556,1,object_10,5,402,0,5,2,library_31,1,memory-2step-stake-s,525,1574555,0.0-18.0-0.0-0.38,4470,5,6
39,3,object_09,object_03,437.56,5,1,393.665,0.7777777777777778,1,object_10,5,437,0,7,0,library_27,1,memory-2step-stake-s,526,1582875,0.0-18.0-0.0-0.39,4470,5,6
40,1,object_07,object_05,901.51,1,2,1104.485,0.6666666666666666,1,object_10,5,467,0,6,1,desert_12,1,memory-2step-stake-s,527,1591803,0.0-18.0-0.0-0.40,4470,2,1
41,1,object_05,object_07,576.11,1,1,398.94,0.5555555555555556,1,object_10,5,492,0,5,2,desert_10,1,memory-2step-stake-s,528,1599922,0.0-18.0-0.0-0.41,4470,1,2
42,1,object_05,object_07,832.185,1,1,405.635,0.3333333333333333,1,object_10,1,495,0,3,2,desert_27,1,memory-2step-stake-s,529,1607848,0.0-18.0-0.0-0.42,4470,1,2
43,1,object_05,object_07,802.15,2,2,994.945,0.1111111111111111,2,object_06,1,496,0,4,1,desert_2,1,memory-2step-stake-s,530,1616161,0.0-18.0-0.0-0.43,4470,1,2
44,3,object_03,object_09,1088.72,5,2,460.615,0.4444444444444444,1,object_10,5,516,0,4,4,library_26,1,memory-2step-stake-s,531,1624242,0.0-18.0-0.0-0.44,4470,6,5
45,3,object_03,object_09,-1.0,-1,-1,-1.0,0.0,-,,5,516,0,1,5,library_1,1,memory-2step-stake-s,532,1630751,0.0-18.0-0.0-0.45,4470,6,5
46,2,object_01,object_04,872.03,3,1,781.53,0.1111111111111111,1,object_10,1,517,0,1,5,forest_10,1,memory-2step-stake-s,533,1638849,0.0-18.0-0.0-0.46,4470,3,4
47,2,object_01,object_04,1179.43,3,1,1038.89,0.0,1,object_10,1,517,0,0,7,forest_24,1,memory-2step-stake-s,534,1647102,0.0-18.0-0.0-0.47,4470,3,4
48,3,object_09,object_03,596.34,5,1,343.35,0.2222222222222222,1,object_10,5,527,0,2,7,library_29,1,memory-2step-stake-s,535,1654864,0.0-18.0-0.0-0.48,4470,5,6
49,1,object_05,object_07,770.04,1,1,261.35,0.2222222222222222,1,object_10,1,529,0,2,6,desert_15,1,memory-2step-stake-s,536,1662541,0.0-18.0-0.0-0.49,4470,1,2
50,1,object_05,object_07,1111.315,2,2,-1.0,0.0,2,object_06,1,529,0,3,6,desert_14,1,memory-2step-stake-s,537,1671057,0.0-18.0-0.0-0.50,4470,1,2
51,2,object_01,object_04,925.415,4,2,549.585,1.0,2,object_06,5,574,0,1,9,forest_12,1,memory-2step-stake-s,538,1679735,0.0-18.0-0.0-0.51,4470,3,4
52,4,object_02,object_08,915.745,8,2,501.37,0.6666666666666666,2,object_06,5,604,0,2,6,restaurant_11,1,memory-2step-stake-s,539,1688062,0.0-18.0-0.0-0.52,4470,7,8
53,3,object_03,object_09,470.97,5,2,291.0,0.0,1,object_10,5,604,0,0,5,library_30,1,memory-2step-stake-s,540,1695568,0.0-18.0-0.0-0.53,4470,6,5
54,1,object_05,object_07,607.465,1,1,358.86,0.3333333333333333,1,object_10,5,619,0,3,0,desert_25,1,memory-2step-stake-s,541,1703448,0.0-18.0-0.0-0.54,4470,1,2
55,1,object_07,object_05,1012.61,2,1,424.16,0.0,2,object_06,1,619,0,4,0,desert_3,1,memory-2step-stake-s,542,1711087,0.0-18.0-0.0-0.55,4470,2,1
56,2,object_01,object_04,411.375,4,2,371.83,0.1111111111111111,2,object_06,1,620,0,7,1,forest_4,1,memory-2step-stake-s,543,1718776,0.0-18.0-0.0-0.56,4470,3,4
57,2,object_01,object_04,509.18,4,2,355.715,0.0,2,object_06,1,620,0,5,0,forest_4,1,memory-2step-stake-s,544,1726348,0.0-18.0-0.0-0.57,4470,3,4
58,3,object_09,object_03,531.985,5,1,355.535,0.4444444444444444,1,object_10,5,640,0,4,1,library_27,1,memory-2step-stake-s,545,1734329,0.0-18.0-0.0-0.58,4470,5,6
59,3,object_03,object_09,711.955,6,1,391.57,0.0,2,object_06,1,640,0,6,0,library_20,1,memory-2step-stake-s,546,1741934,0.0-18.0-0.0-0.59,4470,6,5
60,2,object_04,object_01,-1.0,-1,-1,-1.0,0.0,-,,1,640,0,8,0,forest_20,1,memory-2step-stake-s,547,1748446,0.0-18.0-0.0-0.60,4470,4,3
61,2,object_04,object_01,680.335,4,1,362.26,0.0,2,object_06,1,640,0,5,0,forest_16,1,memory-2step-stake-s,548,1756020,0.0-18.0-0.0-0.61,4470,4,3
62,4,object_02,object_08,680.795,8,2,897.1,0.1111111111111111,2,object_06,5,645,0,7,1,restaurant_9,1,memory-2step-stake-s,549,1764234,0.0-18.0-0.0-0.62,4470,7,8
63,3,object_09,object_03,594.405,5,1,408.54,0.8888888888888888,1,object_10,5,685,0,8,1,library_13,1,memory-2step-stake-s,550,1772667,0.0-18.0-0.0-0.63,4470,5,6
64,4,object_08,object_02,617.915,7,2,644.74,1.0,1,object_10,1,694,0,9,5,restaurant_18,1,memory-2step-stake-s,551,1781437,0.0-18.0-0.0-0.64,4470,8,7
65,2,object_01,object_04,553.075,3,1,338.105,0.8888888888888888,1,object_10,5,734,0,8,4,forest_30,1,memory-2step-stake-s,552,1789797,0.0-18.0-0.0-0.65,4470,3,4
66,4,object_02,object_08,770.4,7,1,353.84,0.6666666666666666,1,object_10,5,764,0,6,6,restaurant_30,1,memory-2step-stake-s,553,1797975,0.0-18.0-0.0-0.66,4470,7,8
67,2,object_04,object_01,803.315,3,2,558.365,0.5555555555555556,1,object_10,1,769,0,5,8,forest_20,1,memory-2step-stake-s,554,1806257,0.0-18.0-0.0-0.67,4470,4,3
68,3,object_09,object_03,590.195,5,1,441.345,0.7777777777777778,1,object_10,1,776,0,7,7,library_21,1,memory-2step-stake-s,555,1814625,0.0-18.0-0.0-0.68,4470,5,6
69,1,object_07,object_05,694.295,1,2,-1.0,0.0,1,object_10,1,776,0,7,8,desert_32,1,memory-2step-stake-s,556,1823139,0.0-18.0-0.0-0.69,4470,2,1
70,3,object_09,object_03,531.26,5,1,368.305,0.4444444444444444,1,object_10,5,796,0,4,8,library_28,1,memory-2step-stake-s,557,1831130,0.0-18.0-0.0-0.70,4470,5,6
71,2,object_04,object_01,485.9,3,2,552.675,0.5555555555555556,1,object_10,1,801,0,5,7,forest_2,1,memory-2step-stake-s,558,1839403,0.0-18.0-0.0-0.71,4470,4,3
72,3,object_03,object_09,696.8,5,2,482.98,0.5555555555555556,1,object_10,5,826,0,5,6,library_32,1,memory-2step-stake-s,559,1847609,0.0-18.0-0.0-0.72,4470,6,5
73,1,object_05,object_07,640.06,1,1,540.78,0.3333333333333333,1,object_10,5,841,0,3,7,desert_27,1,memory-2step-stake-s,560,1855668,0.0-18.0-0.0-0.73,4470,1,2
74,4,object_08,object_02,710.53,7,2,317.63,0.3333333333333333,1,object_10,5,856,0,3,2,restaurant_29,1,memory-2step-stake-s,561,1863508,0.0-18.0-0.0-0.74,4470,8,7
75,1,object_07,object_05,716.59,1,2,282.365,0.6666666666666666,1,object_10,1,862,0,6,0,desert_9,1,memory-2step-stake-s,562,1871611,0.0-18.0-0.0-0.75,4470,2,1
76,4,object_02,object_08,613.07,7,1,351.5,0.5555555555555556,1,object_10,5,887,0,5,1,restaurant_9,1,memory-2step-stake-s,563,1879684,0.0-18.0-0.0-0.76,4470,7,8
77,4,object_08,object_02,781.395,8,1,274.905,0.2222222222222222,2,object_06,5,897,0,5,2,restaurant_28,1,memory-2step-stake-s,564,1887378,0.0-18.0-0.0-0.77,4470,8,7
78,4,object_02,object_08,574.235,8,2,284.305,0.2222222222222222,2,object_06,5,907,0,7,2,restaurant_21,1,memory-2step-stake-s,565,1895081,0.0-18.0-0.0-0.78,4470,7,8
79,3,object_09,object_03,1112.765,5,1,602.83,0.4444444444444444,1,object_10,1,911,0,4,4,library_1,1,memory-2step-stake-s,566,1903305,0.0-18.0-0.0-0.79,4470,5,6
80,1,object_07,object_05,880.87,2,1,395.135,0.5555555555555556,2,object_06,1,916,0,5,5,desert_32,1,memory-2step-stake-s,567,1911425,0.0-18.0-0.0-0.80,4470,2,1
81,2,object_01,object_04,643.165,4,2,609.83,0.8888888888888888,2,object_06,1,924,0,6,8,forest_12,1,memory-2step-stake-s,568,1920057,0.0-18.0-0.0-0.81,4470,3,4
82,3,object_09,object_03,621.21,5,1,346.02,0.5555555555555556,1,object_10,5,949,0,5,3,library_31,1,memory-2step-stake-s,569,1928124,0.0-18.0-0.0-0.82,4470,5,6
83,4,object_08,object_02,726.565,7,2,291.835,0.6666666666666666,1,object_10,5,979,0,6,6,restaurant_19,1,memory-2step-stake-s,570,1936235,0.0-18.0-0.0-0.83,4470,8,7
84,4,object_02,object_08,692.855,7,1,374.93,0.8888888888888888,1,object_10,1,987,0,8,8,restaurant_30,1,memory-2step-stake-s,571,1944632,0.0-18.0-0.0-0.84,4470,7,8
85,1,object_05,object_07,774.315,1,1,516.505,0.6666666666666666,1,object_10,1,993,0,6,8,desert_30,1,memory-2step-stake-s,572,1952974,0.0-18.0-0.0-0.85,4470,1,2
86,4,object_08,object_02,696.17,7,2,344.865,0.7777777777777778,1,object_10,5,1028,0,7,7,restaurant_7,1,memory-2step-stake-s,573,1961238,0.0-18.0-0.0-0.86,4470,8,7
87,4,object_02,object_08,652.605,7,1,662.025,0.6666666666666666,1,object_10,5,1058,0,6,7,restaurant_11,1,memory-2step-stake-s,574,1969722,0.0-18.0-0.0-0.87,4470,7,8
88,3,object_09,object_03,597.0,5,1,602.845,0.4444444444444444,1,object_10,5,1078,0,4,8,library_6,1,memory-2step-stake-s,575,1977941,0.0-18.0-0.0-0.88,4470,5,6
89,3,object_09,object_03,668.495,5,1,505.53,0.3333333333333333,1,object_10,5,1093,0,3,7,library_32,1,memory-2step-stake-s,576,1985967,0.0-18.0-0.0-0.89,4470,5,6
90,3,object_03,object_09,590.205,5,2,686.965,0.2222222222222222,1,object_10,5,1103,0,2,8,library_28,1,memory-2step-stake-s,577,1994071,0.0-18.0-0.0-0.90,4470,6,5
91,2,object_04,object_01,638.035,4,1,518.735,0.5555555555555556,2,object_06,1,1108,0,4,5,forest_28,1,memory-2step-stake-s,578,2002313,0.0-18.0-0.0-0.91,4470,4,3
92,1,object_05,object_07,580.25,1,1,583.735,0.6666666666666666,1,object_10,1,1114,0,6,6,desert_8,1,memory-2step-stake-s,579,2010719,0.0-18.0-0.0-0.92,4470,1,2
93,2,object_04,object_01,508.32,4,1,619.895,0.4444444444444444,2,object_06,1,1118,0,8,4,forest_10,1,memory-2step-stake-s,580,2018958,0.0-18.0-0.0-0.93,4470,4,3
94,1,object_05,object_07,338.985,2,2,418.595,0.6666666666666666,2,object_06,1,1124,0,8,6,desert_25,1,memory-2step-stake-s,581,2027201,0.0-18.0-0.0-0.94,4470,1,2
95,4,object_02,object_08,656.2950001,7,1,461.4,0.8888888888888888,1,object_10,5,1164,0,8,7,restaurant_21,1,memory-2step-stake-s,582,2035685,0.0-18.0-0.0-0.95,4470,7,8
96,4,object_08,object_02,732.845,7,2,551.545,0.5555555555555556,1,object_10,5,1189,0,5,7,restaurant_8,1,memory-2step-stake-s,583,2043957,0.0-18.0-0.0-0.96,4470,8,7
97,1,object_07,object_05,760.95,1,2,430.13,0.6666666666666666,1,object_10,5,1219,0,6,7,desert_9,1,memory-2step-stake-s,584,2052215,0.0-18.0-0.0-0.97,4470,2,1
98,3,object_09,object_03,730.78,5,1,1031.98,0.6666666666666666,1,object_10,5,1249,0,6,8,library_22,1,memory-2step-stake-s,585,2061068,0.0-18.0-0.0-0.98,4470,5,6
99,4,object_02,object_08,708.81,7,1,536.505,0.7777777777777778,1,object_10,1,1256,0,7,7,restaurant_8,1,memory-2step-stake-s,586,2069530,0.0-18.0-0.0-0.99,4470,7,8
100,1,object_07,object_05,702.07,1,2,575.405,0.8888888888888888,1,object_10,5,1296,0,8,2,desert_27,1,memory-2step-stake-s,587,2078129,0.0-18.0-0.0-0.100,4470,2,1
101,3,object_09,object_03,533.595,5,1,627.405,0.7777777777777778,1,object_10,5,1331,0,7,1,library_30,1,memory-2step-stake-s,588,2086682,0.0-18.0-0.0-0.101,4470,5,6
102,2,object_01,object_04,649.155,4,2,543.755,0.2222222222222222,2,object_06,1,1333,0,8,2,forest_23,1,memory-2step-stake-s,589,2094643,0.0-18.0-0.0-0.102,4470,3,4
103,2,object_01,object_04,754.38,3,1,466.65,0.7777777777777778,1,object_10,1,1340,0,7,4,forest_15,1,memory-2step-stake-s,590,2103031,0.0-18.0-0.0-0.103,4470,3,4
104,3,object_09,object_03,530.62,5,1,494.91,0.3333333333333333,1,object_10,5,1355,0,3,3,library_11,1,memory-2step-stake-s,591,2111046,0.0-18.0-0.0-0.104,4470,5,6
105,3,object_03,object_09,580.035,5,2,550.765,0.3333333333333333,1,object_10,5,1370,0,3,3,library_27,1,memory-2step-stake-s,592,2119114,0.0-18.0-0.0-0.105,4470,6,5
106,4,object_02,object_08,513.06,7,1,304.24,0.3333333333333333,1,object_10,5,1385,0,3,2,restaurant_3,1,memory-2step-stake-s,593,2126936,0.0-18.0-0.0-0.106,4470,7,8
107,4,object_08,object_02,547.155,7,2,179.715,0.5555555555555556,1,object_10,5,1410,0,5,1,restaurant_19,1,memory-2step-stake-s,594,2134835,0.0-18.0-0.0-0.107,4470,8,7
108,1,object_05,object_07,604.405,1,1,272.27,1.0,1,object_10,1,1419,0,9,3,desert_9,1,memory-2step-stake-s,595,2143236,0.0-18.0-0.0-0.108,4470,1,2
109,4,object_02,object_08,685.13,7,1,431.46,0.7777777777777778,1,object_10,5,1454,0,7,1,restaurant_15,1,memory-2step-stake-s,596,2151593,0.0-18.0-0.0-0.109,4470,7,8
110,1,object_07,object_05,602.07,1,2,343.635,1.0,1,object_10,1,1463,0,9,1,desert_14,1,memory-2step-stake-s,597,2160063,0.0-18.0-0.0-0.110,4470,2,1
111,2,object_04,object_01,1025.37,4,1,545.575,0.3333333333333333,2,object_06,5,1478,0,7,3,forest_25,1,memory-2step-stake-s,598,2168126,0.0-18.0-0.0-0.111,4470,4,3
112,2,object_04,object_01,619.27,4,1,354.645,0.4444444444444444,2,object_06,1,1482,0,4,4,forest_2,1,memory-2step-stake-s,599,2176104,0.0-18.0-0.0-0.112,4470,4,3
113,1,object_07,object_05,703.955,1,2,334.64,0.4444444444444444,1,object_10,1,1486,0,4,4,desert_27,1,memory-2step-stake-s,600,2184058,0.0-18.0-0.0-0.113,4470,2,1
114,1,object_07,object_05,650.19,1,2,544.735,0.4444444444444444,1,object_10,1,1490,0,4,5,desert_10,1,memory-2step-stake-s,601,2192225,0.0-18.0-0.0-0.114,4470,2,1
115,3,object_03,object_09,693.71,5,2,732.805,0.2222222222222222,1,object_10,1,1492,0,2,6,library_21,1,memory-2step-stake-s,602,2200377,0.0-18.0-0.0-0.115,4470,6,5
116,4,object_08,object_02,710.19,7,2,619.25,0.1111111111111111,1,object_10,5,1497,0,1,5,restaurant_19,1,memory-2step-stake-s,603,2208311,0.0-18.0-0.0-0.116,4470,8,7
117,4,object_08,object_02,618.33,7,2,315.465,0.1111111111111111,1,object_10,5,1502,0,1,8,restaurant_11,1,memory-2step-stake-s,604,2215941,0.0-18.0-0.0-0.117,4470,8,7
118,3,object_03,object_09,527.245,5,2,278.6,0.0,1,object_10,5,1502,0,0,8,library_1,1,memory-2step-stake-s,605,2223435,0.0-18.0-0.0-0.118,4470,6,5
119,3,object_03,object_09,637.125,5,2,321.63,0.1111111111111111,1,object_10,5,1507,0,1,9,library_20,1,memory-2step-stake-s,606,2231073,0.0-18.0-0.0-0.119,4470,6,5
120,4,object_02,object_08,831.39,8,2,312.785,1.0,2,object_06,1,1516,0,3,9,restaurant_29,1,memory-2step-stake-s,607,2239511,0.0-18.0-0.0-0.120,4470,7,8
121,1,object_07,object_05,738.495,2,1,449.45,0.5555555555555556,2,object_06,1,1521,0,0,5,desert_10,1,memory-2step-stake-s,608,2247683,0.0-18.0-0.0-0.121,4470,2,1
122,3,object_03,object_09,963.78,6,1,333.19,0.5555555555555556,2,object_06,5,1546,0,2,5,library_22,1,memory-2step-stake-s,609,2255739,0.0-18.0-0.0-0.122,4470,6,5
123,4,object_02,object_08,1144.62,8,2,410.45,0.5555555555555556,2,object_06,5,1571,0,2,5,restaurant_1,1,memory-2step-stake-s,610,2263872,0.0-18.0-0.0-0.123,4470,7,8
124,4,object_02,object_08,646.4,7,1,316.11,0.4444444444444444,1,object_10,1,1575,0,4,2,restaurant_28,1,memory-2step-stake-s,611,2271810,0.0-18.0-0.0-0.124,4470,7,8
125,1,object_05,object_07,670.695,2,2,361.025,0.1111111111111111,2,object_06,1,1576,0,3,1,desert_22,1,memory-2step-stake-s,612,2279488,0.0-18.0-0.0-0.125,4470,1,2
126,2,object_01,object_04,998.465,3,1,415.315,0.3333333333333333,1,object_10,1,1579,0,3,1,forest_29,1,memory-2step-stake-s,613,2287419,0.0-18.0-0.0-0.126,4470,3,4
127,3,object_09,object_03,605.3699999,5,1,277.965,0.1111111111111111,1,object_10,5,1584,0,1,1,library_6,1,memory-2step-stake-s,614,2295013,0.0-18.0-0.0-0.127,4470,5,6
128,3,object_03,object_09,666.98,5,2,231.395,0.4444444444444444,1,object_10,5,1604,0,4,1,library_21,1,memory-2step-stake-s,616,2380783,0.0-18.0-0.1-0.128,4470,6,5
129,4,object_08,object_02,1072.39,8,1,302.265,0.1111111111111111,2,object_06,5,1609,0,4,1,restaurant_21,1,memory-2step-stake-s,617,2388418,0.0-18.0-0.1-0.129,4470,8,7
130,3,object_03,object_09,945.865,5,2,530.315,0.2222222222222222,1,object_10,5,1619,0,2,0,library_19,1,memory-2step-stake-s,618,2396397,0.0-18.0-0.1-0.130,4470,6,5
131,2,object_04,object_01,499.595,4,1,589.64,0.2222222222222222,2,object_06,1,1621,0,4,2,forest_12,1,memory-2step-stake-s,619,2404429,0.0-18.0-0.1-0.131,4470,4,3
132,4,object_02,object_08,765.525,7,1,422.17,0.1111111111111111,1,object_10,5,1626,0,1,5,restaurant_20,1,memory-2step-stake-s,620,2412186,0.0-18.0-0.1-0.132,4470,7,8
133,1,object_05,object_07,1187.665,2,2,813.35,0.5555555555555556,2,object_06,5,1651,0,1,5,desert_2,1,memory-2step-stake-s,621,2420747,0.0-18.0-0.1-0.133,4470,1,2
134,1,object_07,object_05,675.295,1,2,445.475,0.4444444444444444,1,object_10,5,1671,0,4,6,desert_22,1,memory-2step-stake-s,622,2428824,0.0-18.0-0.1-0.134,4470,2,1
135,1,object_07,object_05,764.605,1,2,909.715,0.6666666666666666,1,object_10,5,1701,0,6,4,desert_17,1,memory-2step-stake-s,623,2437599,0.0-18.0-0.1-0.135,4470,2,1
136,2,object_01,object_04,1263.645,4,2,848.88,0.7777777777777778,2,object_06,5,1736,0,4,7,forest_12,1,memory-2step-stake-s,624,2446407,0.0-18.0-0.1-0.136,4470,3,4
137,1,object_07,object_05,570.845,2,1,446.15,0.4444444444444444,2,object_06,1,1740,0,4,4,desert_25,1,memory-2step-stake-s,625,2454495,0.0-18.0-0.1-0.137,4470,2,1
138,1,object_05,object_07,709.325,1,1,454.045,0.5555555555555556,1,object_10,1,1745,0,5,7,desert_3,1,memory-2step-stake-s,626,2462697,0.0-18.0-0.1-0.138,4470,1,2
139,3,object_03,object_09,643.58,5,2,576.36,0.3333333333333333,1,object_10,5,1760,0,3,2,library_11,1,memory-2step-stake-s,627,2470809,0.0-18.0-0.1-0.139,4470,6,5
140,2,object_04,object_01,675.71,4,1,572.795,0.0,2,object_06,1,1760,0,4,0,forest_19,1,memory-2step-stake-s,628,2478615,0.0-18.0-0.1-0.140,4470,4,3
141,4,object_08,object_02,629.93,7,2,449.75,0.3333333333333333,1,object_10,5,1775,0,3,0,restaurant_18,1,memory-2step-stake-s,629,2486614,0.0-18.0-0.1-0.141,4470,8,7
142,1,object_05,object_07,657.89,1,1,597.53,0.2222222222222222,1,object_10,1,1777,0,2,2,desert_10,1,memory-2step-stake-s,630,2494659,0.0-18.0-0.1-0.142,4470,1,2
143,4,object_02,object_08,677.53,7,1,458.29,0.1111111111111111,1,object_10,5,1782,0,1,2,restaurant_26,1,memory-2step-stake-s,631,2502452,0.0-18.0-0.1-0.143,4470,7,8
144,2,object_01,object_04,664.885,4,2,388.92,0.3333333333333333,2,object_06,1,1785,0,2,3,forest_7,1,memory-2step-stake-s,632,2510386,0.0-18.0-0.1-0.144,4470,3,4
145,4,object_02,object_08,573.265,7,1,370.225,0.3333333333333333,1,object_10,5,1800,0,3,0,restaurant_30,1,memory-2step-stake-s,633,2518304,0.0-18.0-0.1-0.145,4470,7,8
146,1,object_05,object_07,604.765,1,1,591.3,0.5555555555555556,1,object_10,1,1805,0,5,3,desert_4,1,memory-2step-stake-s,634,2526640,0.0-18.0-0.1-0.146,4470,1,2
147,3,object_03,object_09,568.845,5,2,366.51,0.6666666666666666,1,object_10,5,1835,0,6,6,library_20,1,memory-2step-stake-s,635,2534848,0.0-18.0-0.1-0.147,4470,6,5
148,4,object_02,object_08,1156.335,7,1,520.18,0.3333333333333333,1,object_10,5,1850,0,3,6,restaurant_28,1,memory-2step-stake-s,636,2542908,0.0-18.0-0.1-0.148,4470,7,8
149,3,object_03,object_09,625.27,5,2,451.455,0.3333333333333333,1,object_10,1,1853,0,3,3,library_30,1,memory-2step-stake-s,637,2550896,0.0-18.0-0.1-0.149,4470,6,5
150,1,object_05,object_07,233.115,1,1,345.975,0.4444444444444444,1,object_10,1,1857,0,4,4,desert_8,1,memory-2step-stake-s,638,2558892,0.0-18.0-0.1-0.150,4470,1,2
151,1,object_05,object_07,536.285,1,1,381.945,0.5555555555555556,1,object_10,1,1862,0,5,7,desert_12,1,memory-2step-stake-s,639,2567025,0.0-18.0-0.1-0.151,4470,1,2
152,4,object_08,object_02,768.045,7,2,381.95,0.4444444444444444,1,object_10,5,1882,0,4,5,restaurant_32,1,memory-2step-stake-s,640,2575051,0.0-18.0-0.1-0.152,4470,8,7
153,4,object_08,object_02,613.9,8,1,289.895,0.6666666666666666,2,object_06,5,1912,0,3,6,restaurant_20,1,memory-2step-stake-s,641,2583193,0.0-18.0-0.1-0.153,4470,8,7
154,4,object_02,object_08,1210.275,7,1,385.585,0.1111111111111111,1,object_10,5,1917,0,1,4,restaurant_32,1,memory-2step-stake-s,642,2590918,0.0-18.0-0.1-0.154,4470,7,8
155,2,object_01,object_04,874.335,4,2,559.905,0.5555555555555556,2,object_06,1,1922,0,0,5,forest_25,1,memory-2step-stake-s,643,2599218,0.0-18.0-0.1-0.155,4470,3,4
156,3,object_03,object_09,679.705,5,2,298.645,0.1111111111111111,1,object_10,1,1923,0,1,5,library_28,1,memory-2step-stake-s,644,2606849,0.0-18.0-0.1-0.156,4470,6,5
157,3,object_03,object_09,574.275,5,2,432.24,0.1111111111111111,1,object_10,5,1928,0,1,4,library_29,1,memory-2step-stake-s,645,2614616,0.0-18.0-0.1-0.157,4470,6,5
158,1,object_05,object_07,618.2800001,1,1,1393.255,0.2222222222222222,1,object_10,1,1930,0,2,3,desert_4,1,memory-2step-stake-s,646,2623449,0.0-18.0-0.1-0.158,4470,1,2
159,1,object_07,object_05,582.125,1,2,571.34,0.3333333333333333,1,object_10,1,1933,0,3,3,desert_9,1,memory-2step-stake-s,647,2631561,0.0-18.0-0.1-0.159,4470,2,1
160,2,object_01,object_04,606.06,3,1,704.28,0.3333333333333333,1,object_10,1,1936,0,3,5,forest_15,1,memory-2step-stake-s,648,2639807,0.0-18.0-0.1-0.160,4470,3,4
161,3,object_09,object_03,841.645,5,1,518.935,0.4444444444444444,1,object_10,5,1956,0,4,7,library_20,1,memory-2step-stake-s,649,2647984,0.0-18.0-0.1-0.161,4470,5,6
162,3,object_03,object_09,682.71,5,2,908.995,0.3333333333333333,1,object_10,5,1971,0,3,6,library_29,1,memory-2step-stake-s,650,2656432,0.0-18.0-0.1-0.162,4470,6,5
163,4,object_08,object_02,738.135,8,1,358.05,0.3333333333333333,2,object_06,1,1974,0,3,3,restaurant_3,1,memory-2step-stake-s,651,2664337,0.0-18.0-0.1-0.163,4470,8,7
164,1,object_07,object_05,840.225,2,1,516.415,0.3333333333333333,2,object_06,1,1977,0,1,3,desert_4,1,memory-2step-stake-s,652,2672393,0.0-18.0-0.1-0.164,4470,2,1
165,3,object_09,object_03,758.785,5,1,386.165,0.2222222222222222,1,object_10,5,1987,0,2,3,library_26,1,memory-2step-stake-s,653,2680224,0.0-18.0-0.1-0.165,4470,5,6
166,1,object_07,object_05,717.495,1,2,320.075,0.2222222222222222,1,object_10,5,1997,0,2,3,desert_30,1,memory-2step-stake-s,654,2687981,0.0-18.0-0.1-0.166,4470,2,1
167,1,object_05,object_07,784.225,1,1,539.89,0.3333333333333333,1,object_10,1,2000,0,3,4,desert_17,1,memory-2step-stake-s,655,2696059,0.0-18.0-0.1-0.167,4470,1,2
168,4,object_02,object_08,733.0,7,1,199.49,0.1111111111111111,1,object_10,5,2005,0,1,5,restaurant_7,1,memory-2step-stake-s,656,2703600,0.0-18.0-0.1-0.168,4470,7,8
169,2,object_01,object_04,786.965,4,2,534.5,0.5555555555555556,2,object_06,1,2010,0,4,5,forest_19,1,memory-2step-stake-s,657,2711895,0.0-18.0-0.1-0.169,4470,3,4
170,4,object_02,object_08,951.53,8,2,378.525,0.5555555555555556,2,object_06,5,2035,0,6,5,restaurant_32,1,memory-2step-stake-s,658,2720025,0.0-18.0-0.1-0.170,4470,7,8
171,1,object_05,object_07,1345.28,1,1,986.285,0.4444444444444444,1,object_10,1,2039,0,4,5,desert_17,1,memory-2step-stake-s,659,2728667,0.0-18.0-0.1-0.171,4470,1,2
172,1,object_07,object_05,486.305,2,1,447.94,0.4444444444444444,2,object_06,1,2043,0,7,4,desert_32,1,memory-2step-stake-s,660,2736760,0.0-18.0-0.1-0.172,4470,2,1
173,1,object_07,object_05,567.8,1,2,1110.17,0.6666666666666666,1,object_10,1,2049,0,6,5,desert_8,1,memory-2step-stake-s,661,2745724,0.0-18.0-0.1-0.173,4470,2,1
174,2,object_04,object_01,837.37,4,1,561.89,0.7777777777777778,2,object_06,1,2056,0,5,7,forest_24,1,memory-2step-stake-s,662,2754242,0.0-18.0-0.1-0.174,4470,4,3
175,1,object_07,object_05,413.865,1,2,391.945,1.0,1,object_10,1,2065,0,9,8,desert_2,1,memory-2step-stake-s,663,2762792,0.0-18.0-0.1-0.175,4470,2,1
176,2,object_01,object_04,500.145,3,1,440.76,0.7777777777777778,1,object_10,1,2072,0,7,8,forest_28,1,memory-2step-stake-s,664,2771191,0.0-18.0-0.1-0.176,4470,3,4
177,2,object_01,object_04,881.23,3,1,551.115,0.8888888888888888,1,object_10,1,2080,0,8,8,forest_16,1,memory-2step-stake-s,665,2779816,0.0-18.0-0.1-0.177,4470,3,4
178,1,object_05,object_07,817.475,1,1,557.505,0.8888888888888888,1,object_10,5,2120,0,8,8,desert_12,1,memory-2step-stake-s,666,2788442,0.0-18.0-0.1-0.178,4470,1,2
179,2,object_04,object_01,-1.0,-1,-1,-1.0,0.0,-,,1,2120,0,9,9,forest_20,1,memory-2step-stake-s,667,2794972,0.0-18.0-0.1-0.179,4470,4,3
180,1,object_05,object_07,662.95,1,1,870.23,0.5555555555555556,1,object_10,5,2145,0,5,8,desert_3,1,memory-2step-stake-s,668,2803597,0.0-18.0-0.1-0.180,4470,1,2
181,2,object_01,object_04,1062.795,3,1,643.935,0.5555555555555556,1,object_10,1,2150,0,5,9,forest_30,1,memory-2step-stake-s,669,2812003,0.0-18.0-0.1-0.181,4470,3,4
182,1,object_07,object_05,1222.555,1,2,920.835,0.5555555555555556,1,object_10,1,2155,0,5,7,desert_25,1,memory-2step-stake-s,670,2820671,0.0-18.0-0.1-0.182,4470,2,1
183,4,object_02,object_08,736.835,8,2,351.805,0.5555555555555556,2,object_06,5,2180,0,6,5,restaurant_18,1,memory-2step-stake-s,671,2828773,0.0-18.0-0.1-0.183,4470,7,8
184,4,object_08,object_02,1236.515,7,2,478.81,0.7777777777777778,1,object_10,1,2187,0,7,2,restaurant_19,1,memory-2step-stake-s,672,2837218,0.0-18.0-0.1-0.184,4470,8,7
185,2,object_01,object_04,691.98,3,1,1292.035,1.0,1,object_10,1,2196,0,9,1,forest_4,1,memory-2step-stake-s,673,2846673,0.0-18.0-0.1-0.185,4470,3,4
186,1,object_07,object_05,593.175,2,1,774.075,0.3333333333333333,2,object_06,1,2199,0,8,3,desert_15,1,memory-2step-stake-s,674,2854997,0.0-18.0-0.1-0.186,4470,2,1
187,2,object_01,object_04,749.565,3,1,324.395,0.7777777777777778,1,object_10,5,2234,0,7,1,forest_7,1,memory-2step-stake-s,675,2863284,0.0-18.0-0.1-0.187,4470,3,4
188,3,object_09,object_03,146.29,6,2,337.69,0.1111111111111111,2,object_06,5,2239,0,5,1,library_16,1,memory-2step-stake-s,676,2870965,0.0-18.0-0.1-0.188,4470,5,6
189,2,object_04,object_01,685.71,4,1,493.84,0.2222222222222222,2,object_06,1,2241,0,8,2,forest_29,1,memory-2step-stake-s,677,2878897,0.0-18.0-0.1-0.189,4470,4,3
190,3,object_09,object_03,527.92,5,1,403.31,0.5555555555555556,1,object_10,5,2266,0,5,3,library_21,1,memory-2step-stake-s,678,2887051,0.0-18.0-0.1-0.190,4470,5,6
191,4,object_02,object_08,713.335,7,1,358.835,0.6666666666666666,1,object_10,1,2272,0,6,3,restaurant_15,1,memory-2step-stake-s,679,2895255,0.0-18.0-0.1-0.191,4470,7,8
192,1,object_07,object_05,707.705,1,2,1089.16,0.4444444444444444,1,object_10,1,2276,0,4,3,desert_8,1,memory-2step-stake-s,680,2903995,0.0-18.0-0.1-0.192,4470,2,1
193,4,object_02,object_08,472.485,8,2,679.375,0.7777777777777778,2,object_06,5,2311,0,4,7,restaurant_26,1,memory-2step-stake-s,681,2912634,0.0-18.0-0.1-0.193,4470,7,8
194,3,object_09,object_03,563.985,5,1,440.87,0.2222222222222222,1,object_10,5,2321,0,2,8,library_11,1,memory-2step-stake-s,682,2920510,0.0-18.0-0.1-0.194,4470,5,6
195,1,object_05,object_07,700.11,1,1,326.585,0.2222222222222222,1,object_10,1,2323,0,2,6,desert_2,1,memory-2step-stake-s,683,2928274,0.0-18.0-0.1-0.195,4470,1,2
196,1,object_07,object_05,661.4,1,2,722.275,0.3333333333333333,1,object_10,1,2326,0,3,6,desert_32,1,memory-2step-stake-s,684,2936545,0.0-18.0-0.1-0.196,4470,2,1
197,4,object_02,object_08,694.39,8,2,428.125,0.6666666666666666,2,object_06,5,2356,0,1,6,restaurant_9,1,memory-2step-stake-s,685,2944820,0.0-18.0-0.1-0.197,4470,7,8
198,2,object_04,object_01,769.395,4,1,570.13,0.8888888888888888,2,object_06,5,2396,0,3,8,forest_5,1,memory-2step-stake-s,686,2953449,0.0-18.0-0.1-0.198,4470,4,3
199,3,object_09,object_03,622.3,6,2,473.16,0.8888888888888888,2,object_06,1,2404,0,6,8,library_13,1,memory-2step-stake-s,687,2961983,0.0-18.0-0.1-0.199,4470,5,6
200,3,object_03,object_09,912.015,5,2,541.165,0.7777777777777778,1,object_10,5,2439,0,7,4,library_19,1,memory-2step-stake-s,688,2970486,0.0-18.0-0.1-0.200,4470,6,5
201,2,object_04,object_01,611.6,4,1,513.33,0.3333333333333333,2,object_06,5,2454,0,8,3,forest_16,1,memory-2step-stake-s,689,2978545,0.0-18.0-0.1-0.201,4470,4,3
202,4,object_02,object_08,742.4,8,2,287.09,0.6666666666666666,2,object_06,5,2484,0,6,6,restaurant_1,1,memory-2step-stake-s,690,2986685,0.0-18.0-0.1-0.202,4470,7,8
203,1,object_07,object_05,622.075,2,1,478.405,0.7777777777777778,2,object_06,1,2491,0,8,7,desert_3,1,memory-2step-stake-s,691,2995121,0.0-18.0-0.1-0.203,4470,2,1
204,4,object_08,object_02,905.405,8,1,256.145,0.6666666666666666,2,object_06,5,2521,0,9,6,restaurant_3,1,memory-2step-stake-s,692,3003243,0.0-18.0-0.1-0.204,4470,8,7
205,2,object_04,object_01,803.255,3,2,549.935,0.8888888888888888,1,object_10,1,2529,0,8,5,forest_7,1,memory-2step-stake-s,693,3011854,0.0-18.0-0.1-0.205,4470,4,3
206,2,object_01,object_04,633.7,4,2,758.92,0.4444444444444444,2,object_06,1,2533,0,7,4,forest_5,1,memory-2step-stake-s,694,3020257,0.0-18.0-0.1-0.206,4470,3,4
207,3,object_03,object_09,507.335,5,2,489.775,0.8888888888888888,1,object_10,5,2573,0,8,3,library_6,1,memory-2step-stake-s,695,3028809,0.0-18.0-0.1-0.207,4470,6,5
208,1,object_07,object_05,704.27,1,2,477.195,0.6666666666666666,1,object_10,5,2603,0,6,4,desert_14,1,memory-2step-stake-s,696,3037146,0.0-18.0-0.1-0.208,4470,2,1
209,3,object_09,object_03,613.805,5,1,407.82,1.0,1,object_10,5,2648,0,9,2,library_22,1,memory-2step-stake-s,697,3045729,0.0-18.0-0.1-0.209,4470,5,6
210,2,object_01,object_04,881.85,4,2,420.89,0.2222222222222222,2,object_06,5,2658,0,5,2,forest_23,1,memory-2step-stake-s,698,3053586,0.0-18.0-0.1-0.210,4470,3,4
211,1,object_05,object_07,559.325,1,1,557.125,0.4444444444444444,1,object_10,1,2662,0,4,2,desert_15,1,memory-2step-stake-s,699,3061789,0.0-18.0-0.1-0.211,4470,1,2
212,4,object_08,object_02,590.02,7,2,24.24499998,0.4444444444444444,1,object_10,5,2682,0,4,5,restaurant_3,1,memory-2step-stake-s,700,3069456,0.0-18.0-0.1-0.212,4470,8,7
213,3,object_09,object_03,729.03,5,1,578.535,0.6666666666666666,1,object_10,5,2712,0,6,6,library_16,1,memory-2step-stake-s,701,3077870,0.0-18.0-0.1-0.213,4470,5,6
214,3,object_09,object_03,623.855,5,1,473.21,0.4444444444444444,1,object_10,5,2732,0,4,8,library_31,1,memory-2step-stake-s,702,3085994,0.0-18.0-0.1-0.214,4470,5,6
215,4,object_08,object_02,1022.0,8,1,1112.255,1.0,2,object_06,5,2777,0,6,9,restaurant_29,1,memory-2step-stake-s,703,3095257,0.0-18.0-0.1-0.215,4470,8,7
216,1,object_07,object_05,751.815,2,1,585.3,1.0,2,object_06,1,2786,0,4,9,desert_22,1,memory-2step-stake-s,704,3104004,0.0-18.0-0.1-0.216,4470,2,1
217,2,object_04,object_01,1044.155,3,2,-1.0,0.0,1,object_10,1,2786,0,0,6,forest_10,1,memory-2step-stake-s,705,3112531,0.0-18.0-0.1-0.217,4470,4,3
218,4,object_08,object_02,745.465,8,1,567.405,0.6666666666666666,2,object_06,5,2816,0,6,6,restaurant_1,1,memory-2step-stake-s,706,3120957,0.0-18.0-0.1-0.218,4470,8,7
219,2,object_04,object_01,554.61,3,2,503.27,0.7777777777777778,1,object_10,1,2823,0,7,4,forest_7,1,memory-2step-stake-s,707,3129422,0.0-18.0-0.1-0.219,4470,4,3
220,2,object_04,object_01,980.515,4,1,496.9,0.4444444444444444,2,object_06,5,2843,0,9,4,forest_4,1,memory-2step-stake-s,708,3137569,0.0-18.0-0.1-0.220,4470,4,3
221,3,object_03,object_09,693.46,5,2,555.69,0.8888888888888888,1,object_10,1,2851,0,8,3,library_19,1,memory-2step-stake-s,709,3146184,0.0-18.0-0.1-0.221,4470,6,5
222,3,object_03,object_09,733.875,5,2,649.055,0.6666666666666666,1,object_10,1,2857,0,6,5,library_29,1,memory-2step-stake-s,710,3154680,0.0-18.0-0.1-0.222,4470,6,5
223,3,object_09,object_03,683.855,5,1,337.38,1.0,1,object_10,5,2902,0,9,4,library_13,1,memory-2step-stake-s,711,3163181,0.0-18.0-0.1-0.223,4470,5,6
224,4,object_08,object_02,613.67,8,1,404.43,0.1111111111111111,2,object_06,1,2903,0,8,1,restaurant_26,1,memory-2step-stake-s,712,3170926,0.0-18.0-0.1-0.224,4470,8,7
225,3,object_03,object_09,655.63,5,2,578.135,1.0,1,object_10,5,2948,0,9,6,library_26,1,memory-2step-stake-s,713,3179669,0.0-18.0-0.1-0.225,4470,6,5
226,2,object_04,object_01,1249.885,3,2,986.45,1.0,1,object_10,1,2957,0,9,4,forest_24,1,memory-2step-stake-s,714,3188815,0.0-18.0-0.1-0.226,4470,4,3
227,1,object_07,object_05,450.405,2,1,556.865,0.7777777777777778,2,object_06,1,2964,0,6,7,desert_4,1,memory-2step-stake-s,715,3197329,0.0-18.0-0.1-0.227,4470,2,1
228,1,object_05,object_07,1032.47,2,2,466.235,0.6666666666666666,2,object_06,1,2970,0,7,6,desert_17,1,memory-2step-stake-s,716,3205641,0.0-18.0-0.1-0.228,4470,1,2
229,2,object_04,object_01,812.33,4,1,568.08,0.6666666666666666,2,object_06,1,2976,0,8,6,forest_5,1,memory-2step-stake-s,717,3214053,0.0-18.0-0.1-0.229,4470,4,3
230,3,object_09,object_03,773.155,5,1,448.445,0.8888888888888888,1,object_10,5,3016,0,8,3,library_13,1,memory-2step-stake-s,718,3222555,0.0-18.0-0.1-0.230,4470,5,6
231,4,object_02,object_08,643.79,8,2,433.815,0.5555555555555556,2,object_06,5,3041,0,8,5,restaurant_15,1,memory-2step-stake-s,719,3230742,0.0-18.0-0.1-0.231,4470,7,8
232,3,object_09,object_03,520.805,5,1,298.69,0.5555555555555556,1,object_10,5,3066,0,5,8,library_11,1,memory-2step-stake-s,720,3238782,0.0-18.0-0.1-0.232,4470,5,6
233,4,object_02,object_08,1157.84,7,1,663.555,0.5555555555555556,1,object_10,5,3091,0,5,4,restaurant_1,1,memory-2step-stake-s,721,3247189,0.0-18.0-0.1-0.233,4470,7,8
234,3,object_03,object_09,-1.0,-1,-1,-1.0,0.0,-,,5,3091,0,6,4,library_31,1,memory-2step-stake-s,722,3253708,0.0-18.0-0.1-0.234,4470,6,5
235,4,object_08,object_02,984.13,8,1,495.28,0.4444444444444444,2,object_06,5,3111,0,4,4,restaurant_9,1,memory-2step-stake-s,723,3261863,0.0-18.0-0.1-0.235,4470,8,7
236,4,object_08,object_02,993.68,8,1,711.675,0.2222222222222222,2,object_06,5,3121,0,7,2,restaurant_7,1,memory-2step-stake-s,724,3270012,0.0-18.0-0.1-0.236,4470,8,7
237,4,object_02,object_08,660.9,8,2,342.7,0.1111111111111111,2,object_06,1,3122,0,6,1,restaurant_29,1,memory-2step-stake-s,725,3277689,0.0-18.0-0.1-0.237,4470,7,8
238,1,object_05,object_07,415.35,1,1,656.815,0.4444444444444444,1,object_10,1,3126,0,4,4,desert_30,1,memory-2step-stake-s,726,3285998,0.0-18.0-0.1-0.238,4470,1,2
239,2,object_01,object_04,934.065,3,1,575.9999999,0.7777777777777778,1,object_10,1,3133,0,7,2,forest_16,1,memory-2step-stake-s,727,3294530,0.0-18.0-0.1-0.239,4470,3,4
240,4,object_08,object_02,751.22,8,1,245.8,0.1111111111111111,2,object_06,5,3138,0,9,1,restaurant_20,1,memory-2step-stake-s,728,3302116,0.0-18.0-0.1-0.240,4470,8,7
241,3,object_09,object_03,827.275,6,2,332.845,0.1111111111111111,2,object_06,5,3143,0,8,1,library_22,1,memory-2step-stake-s,729,3309787,0.0-18.0-0.1-0.241,4470,5,6
242,2,object_01,object_04,634.445,4,2,347.035,0.2222222222222222,2,object_06,1,3145,0,7,2,forest_30,1,memory-2step-stake-s,730,3317575,0.0-18.0-0.1-0.242,4470,3,4
243,3,object_03,object_09,537.76,5,2,275.59,0.7777777777777778,1,object_10,5,3180,0,7,1,library_6,1,memory-2step-stake-s,731,3325805,0.0-18.0-0.1-0.243,4470,6,5
244,3,object_09,object_03,1171.715,5,1,816.53,0.6666666666666666,1,object_10,1,3186,0,6,2,library_32,1,memory-2step-stake-s,732,3334466,0.0-18.0-0.1-0.244,4470,5,6
245,2,object_01,object_04,1395.95,4,2,568.885,0.6666666666666666,2,object_06,5,3216,0,5,6,forest_28,1,memory-2step-stake-s,733,3342890,0.0-18.0-0.1-0.245,4470,3,4
246,1,object_05,object_07,1091.09,1,1,635.685,0.6666666666666666,1,object_10,1,3222,0,6,8,desert_19,1,memory-2step-stake-s,734,3351389,0.0-18.0-0.1-0.246,4470,1,2
247,2,object_04,object_01,505.33,3,2,482.955,0.5555555555555556,1,object_10,1,3227,0,5,8,forest_5,1,memory-2step-stake-s,735,3359636,0.0-18.0-0.1-0.247,4470,4,3
248,2,object_01,object_04,576.19,3,1,498.82,0.8888888888888888,1,object_10,1,3235,0,8,7,forest_30,1,memory-2step-stake-s,736,3368191,0.0-18.0-0.1-0.248,4470,3,4
249,2,object_04,object_01,897.935,3,2,685.09,0.7777777777777778,1,object_10,1,3242,0,7,8,forest_23,1,memory-2step-stake-s,737,3376828,0.0-18.0-0.1-0.249,4470,4,3
250,1,object_07,object_05,520.925,2,1,507.78,1.0,2,object_06,1,3251,0,8,9,desert_22,1,memory-2step-stake-s,738,3385513,0.0-18.0-0.1-0.250,4470,2,1
251,1,object_05,object_07,781.405,1,1,572.615,1.0,1,object_10,1,3260,0,9,9,desert_19,1,memory-2step-stake-s,739,3394247,0.0-18.0-0.1-0.251,4470,1,2
252,4,object_02,object_08,825.07,7,1,360.59,0.8888888888888888,1,object_10,5,3300,0,8,6,restaurant_28,1,memory-2step-stake-s,740,3402676,0.0-18.0-0.1-0.252,4470,7,8
253,3,object_03,object_09,706.995,5,2,734.235,0.6666666666666666,1,object_10,1,3306,0,6,7,library_1,1,memory-2step-stake-s,741,3411271,0.0-18.0-0.1-0.253,4470,6,5
254,2,object_04,object_01,674.01,3,2,733.525,0.7777777777777778,1,object_10,1,3313,0,7,7,forest_25,1,memory-2step-stake-s,742,3419956,0.0-18.0-0.1-0.254,4470,4,3
255,4,object_02,object_08,697.245,7,1,487.02,1.0,1,object_10,5,3358,0,9,8,restaurant_32,1,memory-2step-stake-s,743,3428604,0.0-18.0-0.1-0.255,4470,7,8
