,state1,stim_left,stim_right,rt_1,choice1,response1,rt_2,points,state2,stim_state2,stake,score,practice,rews1,rews2,background,high_arm,trial_type,trial_index,time_elapsed,internal_node_id,subid,stim_left_num,stim_right_num
0,1,object_10,object_05,1115.57,2,1,1106.205,0.1111111111111111,2,object_07,1,1,0,1,1,desert_27,1,memory-2step-stake-s,489,1271806,0.0-18.0-0.0-0.0,4256,2,1
1,4,object_02,object_04,1232.115,7,1,1271.295,0.1111111111111111,1,object_08,1,2,0,1,4,restaurant_12,1,memory-2step-stake-s,490,1280455,0.0-18.0-0.0-0.1,4256,7,8
2,4,object_02,object_04,-1.0,-1,-1,-1.0,0.0,-,,5,2,0,1,4,restaurant_29,1,memory-2step-stake-s,491,1287001,0.0-18.0-0.0-0.2,4256,7,8
3,4,object_02,object_04,661.3299999,7,1,670.595,0.2222222222222222,1,object_08,5,12,0,2,0,restaurant_32,1,memory-2step-stake-s,492,1295152,0.0-18.0-0.0-0.3,4256,7,8
4,3,object_03,object_09,859.3,6,2,752.26,0.2222222222222222,2,object_07,1,14,0,1,2,library_23,1,memory-2step-stake-s,493,1303397,0.0-18.0-0.0-0.4,4256,5,6
5,2,object_06,object_01,1075.91,4,2,800.1849999,0.1111111111111111,2,object_07,1,15,0,0,1,forest_17,1,memory-2step-stake-s,494,1311564,0.0-18.0-0.0-0.5,4256,3,4
6,4,object_02,object_04,-1.0,-1,-1,-1.0,0.0,-,,5,15,0,1,2,restaurant_26,1,memory-2step-stake-s,495,1318109,0.0-18.0-0.0-0.6,4256,7,8
7,2,object_01,object_06,881.865,3,2,410.475,0.3333333333333333,1,object_08,1,18,0,3,3,forest_3,1,memory-2step-stake-s,496,1326102,0.0-18.0-0.0-0.7,4256,4,3
8,2,object_01,object_06,912.305,4,1,534.3249999,0.4444444444444444,2,object_07,1,22,0,1,4,forest_20,1,memory-2step-stake-s,497,1334317,0.0-18.0-0.0-0.8,4256,4,3
9,1,object_05,object_10,751.4300001,2,2,434.67,0.3333333333333333,2,object_07,1,25,0,6,3,desert_31,1,memory-2step-stake-s,498,1342341,0.0-18.0-0.0-0.9,4256,1,2
10,2,object_01,object_06,585.7650001000001,3,2,331.98,0.5555555555555556,1,object_08,1,30,0,5,3,forest_31,1,memory-2step-stake-s,499,1350449,0.0-18.0-0.0-0.10,4256,4,3
11,1,object_05,object_10,711.365,1,1,680.79,0.2222222222222222,1,object_08,1,32,0,2,0,desert_21,1,memory-2step-stake-s,500,1358604,0.0-18.0-0.0-0.11,4256,1,2
12,3,object_03,object_09,825.91,5,1,472.925,0.0,1,object_08,5,32,0,0,3,library_3,1,memory-2step-stake-s,501,1366319,0.0-18.0-0.0-0.12,4256,5,6
13,4,object_04,object_02,982.7299998999999,8,1,778.295,0.2222222222222222,2,object_07,5,42,0,1,2,restaurant_22,1,memory-2step-stake-s,502,1374566,0.0-18.0-0.0-0.13,4256,8,7
14,4,object_04,object_02,789.8800001,8,1,458.58,0.3333333333333333,2,object_07,1,45,0,1,3,restaurant_11,1,memory-2step-stake-s,503,1382583,0.0-18.0-0.0-0.14,4256,8,7
15,2,object_06,object_01,952.175,4,2,577.62,0.1111111111111111,2,object_07,1,46,0,2,1,forest_9,1,memory-2step-stake-s,504,1390523,0.0-18.0-0.0-0.15,4256,3,4
16,1,object_05,object_10,585.02,1,1,446.95499989999996,0.5555555555555556,1,object_08,1,51,0,5,4,desert_6,1,memory-2step-stake-s,505,1398752,0.0-18.0-0.0-0.16,4256,1,2
17,4,object_02,object_04,833.67,8,2,528.56,0.4444444444444444,2,object_07,5,71,0,3,4,restaurant_28,1,memory-2step-stake-s,506,1406976,0.0-18.0-0.0-0.17,4256,7,8
18,4,object_02,object_04,828.2249999,8,2,839.375,0.2222222222222222,2,object_07,1,73,0,4,2,restaurant_6,1,memory-2step-stake-s,507,1415279,0.0-18.0-0.0-0.18,4256,7,8
19,2,object_06,object_01,897.1099998999999,4,2,422.29500010000004,0.2222222222222222,2,object_07,1,75,0,3,2,forest_9,1,memory-2step-stake-s,508,1423181,0.0-18.0-0.0-0.19,4256,3,4
20,4,object_04,object_02,925.44,7,2,441.6550001,0.6666666666666666,1,object_08,5,105,0,6,7,restaurant_27,1,memory-2step-stake-s,509,1431538,0.0-18.0-0.0-0.20,4256,8,7
21,1,object_10,object_05,853.21,2,1,445.48,0.8888888888888888,2,object_07,1,113,0,4,8,desert_14,1,memory-2step-stake-s,510,1440098,0.0-18.0-0.0-0.21,4256,2,1
22,1,object_05,object_10,888.565,1,1,503.88,0.7777777777777778,1,object_08,1,120,0,7,7,desert_21,1,memory-2step-stake-s,511,1448602,0.0-18.0-0.0-0.22,4256,1,2
23,2,object_06,object_01,719.94,3,1,320.165,0.7777777777777778,1,object_08,1,127,0,7,8,forest_9,1,memory-2step-stake-s,512,1456932,0.0-18.0-0.0-0.23,4256,3,4
24,2,object_06,object_01,818.965,4,2,454.64,0.8888888888888888,2,object_07,1,135,0,5,8,forest_18,1,memory-2step-stake-s,513,1465519,0.0-18.0-0.0-0.24,4256,3,4
25,3,object_03,object_09,1095.245,6,2,445.545,0.7777777777777778,2,object_07,5,170,0,4,7,library_25,1,memory-2step-stake-s,514,1473987,0.0-18.0-0.0-0.25,4256,5,6
26,1,object_10,object_05,997.14,1,2,398.36,0.7777777777777778,1,object_08,1,177,0,7,6,desert_27,1,memory-2step-stake-s,515,1482353,0.0-18.0-0.0-0.26,4256,2,1
27,2,object_01,object_06,961.1749999,4,1,346.305,0.4444444444444444,2,object_07,1,181,0,5,4,forest_27,1,memory-2step-stake-s,516,1490387,0.0-18.0-0.0-0.27,4256,4,3
28,2,object_06,object_01,1188.695,4,2,525.5400001,0.5555555555555556,2,object_07,1,186,0,3,5,forest_15,1,memory-2step-stake-s,517,1498694,0.0-18.0-0.0-0.28,4256,3,4
29,4,object_04,object_02,982.775,7,2,373.9,0.4444444444444444,1,object_08,5,206,0,4,8,restaurant_6,1,memory-2step-stake-s,518,1506758,0.0-18.0-0.0-0.29,4256,8,7
30,2,object_06,object_01,892.46,4,2,302.61500010000003,0.7777777777777778,2,object_07,5,241,0,3,7,forest_3,1,memory-2step-stake-s,519,1515085,0.0-18.0-0.0-0.30,4256,3,4
31,1,object_05,object_10,1017.365,1,1,-1.0,0.0,1,object_08,1,241,0,4,7,desert_4,1,memory-2step-stake-s,520,1523660,0.0-18.0-0.0-0.31,4256,1,2
32,2,object_06,object_01,1049.99,4,2,268.61,0.6666666666666666,2,object_07,1,247,0,5,6,forest_18,1,memory-2step-stake-s,521,1531816,0.0-18.0-0.0-0.32,4256,3,4
33,2,object_06,object_01,1041.565,3,1,434.32499989999997,0.6666666666666666,1,object_08,1,253,0,6,8,forest_23,1,memory-2step-stake-s,522,1540180,0.0-18.0-0.0-0.33,4256,3,4
34,3,object_09,object_03,938.445,6,1,475.945,0.8888888888888888,2,object_07,5,293,0,7,8,library_4,1,memory-2step-stake-s,523,1548759,0.0-18.0-0.0-0.34,4256,6,5
35,3,object_09,object_03,822.2000001,6,1,661.605,0.7777777777777778,2,object_07,5,328,0,5,7,library_26,1,memory-2step-stake-s,524,1557456,0.0-18.0-0.0-0.35,4256,6,5
36,3,object_09,object_03,1264.83,5,2,290.955,0.6666666666666666,1,object_08,1,334,0,6,8,library_15,1,memory-2step-stake-s,525,1565657,0.0-18.0-0.0-0.36,4256,6,5
37,3,object_09,object_03,1117.535,5,2,312.29,0.6666666666666666,1,object_08,5,364,0,6,9,library_11,1,memory-2step-stake-s,526,1573858,0.0-18.0-0.0-0.37,4256,6,5
38,1,object_05,object_10,965.53,2,2,358.735,0.6666666666666666,2,object_07,1,370,0,5,6,desert_4,1,memory-2step-stake-s,527,1582094,0.0-18.0-0.0-0.38,4256,1,2
39,4,object_02,object_04,965.705,7,1,311.46,0.6666666666666666,1,object_08,5,400,0,6,6,restaurant_12,1,memory-2step-stake-s,528,1590338,0.0-18.0-0.0-0.39,4256,7,8
40,3,object_03,object_09,950.5650001,6,2,311.075,0.3333333333333333,2,object_07,5,415,0,6,3,library_9,1,memory-2step-stake-s,529,1598232,0.0-18.0-0.0-0.40,4256,5,6
41,4,object_04,object_02,1015.275,7,2,439.9400001,0.7777777777777778,1,object_08,5,450,0,7,3,restaurant_24,1,memory-2step-stake-s,530,1606686,0.0-18.0-0.0-0.41,4256,8,7
42,4,object_02,object_04,658.575,7,1,328.845,0.8888888888888888,1,object_08,5,490,0,8,6,restaurant_23,1,memory-2step-stake-s,531,1615124,0.0-18.0-0.0-0.42,4256,7,8
43,4,object_02,object_04,932.495,8,2,321.83,0.5555555555555556,2,object_07,1,495,0,7,5,restaurant_16,1,memory-2step-stake-s,532,1623230,0.0-18.0-0.0-0.43,4256,7,8
44,2,object_06,object_01,1082.155,4,2,620.15,0.5555555555555556,2,object_07,1,500,0,8,5,forest_25,1,memory-2step-stake-s,533,1631668,0.0-18.0-0.0-0.44,4256,3,4
45,2,object_06,object_01,1190.66,4,2,604.255,0.4444444444444444,2,object_07,1,504,0,6,4,forest_29,1,memory-2step-stake-s,534,1639953,0.0-18.0-0.0-0.45,4256,3,4
46,1,object_05,object_10,1237.09,2,2,620.765,0.8888888888888888,2,object_07,1,512,0,7,8,desert_18,1,memory-2step-stake-s,535,1648702,0.0-18.0-0.0-0.46,4256,1,2
47,3,object_03,object_09,1228.975,5,1,589.445,1.0,1,object_08,5,557,0,9,6,library_14,1,memory-2step-stake-s,536,1657512,0.0-18.0-0.0-0.47,4256,5,6
48,3,object_09,object_03,978.685,6,1,416.4849999,0.6666666666666666,2,object_07,1,563,0,9,6,library_11,1,memory-2step-stake-s,537,1665824,0.0-18.0-0.0-0.48,4256,6,5
49,3,object_09,object_03,961.795,6,1,451.9699999,0.7777777777777778,2,object_07,5,598,0,5,7,library_13,1,memory-2step-stake-s,538,1674283,0.0-18.0-0.0-0.49,4256,6,5
50,2,object_06,object_01,1030.54,3,1,485.42,0.2222222222222222,1,object_08,5,608,0,2,8,forest_29,1,memory-2step-stake-s,539,1682233,0.0-18.0-0.0-0.50,4256,3,4
51,2,object_01,object_06,1230.12,3,2,345.79000010000004,0.1111111111111111,1,object_08,1,609,0,1,6,forest_20,1,memory-2step-stake-s,540,1689927,0.0-18.0-0.0-0.51,4256,4,3
52,3,object_03,object_09,1207.995,5,1,582.455,0.2222222222222222,1,object_08,5,619,0,2,7,library_26,1,memory-2step-stake-s,541,1697981,0.0-18.0-0.0-0.52,4256,5,6
53,2,object_06,object_01,1008.715,4,2,548.3049999,1.0,2,object_07,1,628,0,3,9,forest_18,1,memory-2step-stake-s,542,1706727,0.0-18.0-0.0-0.53,4256,3,4
54,1,object_05,object_10,1287.57,1,1,661.585,0.4444444444444444,1,object_08,1,632,0,4,8,desert_27,1,memory-2step-stake-s,543,1715067,0.0-18.0-0.0-0.54,4256,1,2
55,2,object_06,object_01,1069.92,4,2,835.23,0.7777777777777778,2,object_07,1,639,0,4,7,forest_29,1,memory-2step-stake-s,544,1723895,0.0-18.0-0.0-0.55,4256,3,4
56,4,object_02,object_04,1093.885,7,1,577.715,0.5555555555555556,1,object_08,5,664,0,5,8,restaurant_23,1,memory-2step-stake-s,545,1732295,0.0-18.0-0.0-0.56,4256,7,8
57,2,object_06,object_01,1004.715,4,2,249.9549999,1.0,2,object_07,1,673,0,1,9,forest_4,1,memory-2step-stake-s,546,1740744,0.0-18.0-0.0-0.57,4256,3,4
58,2,object_01,object_06,903.405,4,1,357.145,0.8888888888888888,2,object_07,5,713,0,0,8,forest_27,1,memory-2step-stake-s,547,1749235,0.0-18.0-0.0-0.58,4256,4,3
59,3,object_09,object_03,1191.99,5,2,520.7600001000001,0.2222222222222222,1,object_08,5,723,0,2,8,library_28,1,memory-2step-stake-s,548,1757244,0.0-18.0-0.0-0.59,4256,6,5
60,4,object_04,object_02,1029.46,7,2,470.0399999,0.1111111111111111,1,object_08,5,728,0,1,6,restaurant_16,1,memory-2step-stake-s,549,1765070,0.0-18.0-0.0-0.60,4256,8,7
61,2,object_01,object_06,-1.0,-1,-1,-1.0,0.0,-,,1,728,0,1,6,forest_23,1,memory-2step-stake-s,550,1771620,0.0-18.0-0.0-0.61,4256,4,3
62,4,object_02,object_04,744.815,8,2,288.65,0.5555555555555556,2,object_07,5,753,0,2,5,restaurant_10,1,memory-2step-stake-s,551,1779700,0.0-18.0-0.0-0.62,4256,7,8
63,4,object_02,object_04,1056.595,8,2,290.2,0.6666666666666666,2,object_07,5,783,0,4,6,restaurant_29,1,memory-2step-stake-s,552,1787929,0.0-18.0-0.0-0.63,4256,7,8
64,4,object_02,object_04,704.18,8,2,405.53,0.5555555555555556,2,object_07,5,808,0,3,5,restaurant_21,1,memory-2step-stake-s,553,1796145,0.0-18.0-0.0-0.64,4256,7,8
65,4,object_02,object_04,694.5849999,8,2,345.25,0.6666666666666666,2,object_07,5,838,0,4,6,restaurant_7,1,memory-2step-stake-s,554,1804403,0.0-18.0-0.0-0.65,4256,7,8
66,1,object_05,object_10,971.5849999,1,1,541.935,0.1111111111111111,1,object_08,5,843,0,1,7,desert_26,1,memory-2step-stake-s,555,1812311,0.0-18.0-0.0-0.66,4256,1,2
67,1,object_05,object_10,1006.05,2,2,485.05500010000003,0.6666666666666666,2,object_07,1,849,0,4,6,desert_6,1,memory-2step-stake-s,556,1820704,0.0-18.0-0.0-0.67,4256,1,2
68,3,object_09,object_03,889.785,6,1,464.5700001,0.6666666666666666,2,object_07,5,879,0,3,6,library_11,1,memory-2step-stake-s,557,1829044,0.0-18.0-0.0-0.68,4256,6,5
69,3,object_09,object_03,783.9950001,6,1,427.045,0.5555555555555556,2,object_07,5,904,0,5,5,library_26,1,memory-2step-stake-s,558,1837245,0.0-18.0-0.0-0.69,4256,6,5
70,1,object_10,object_05,973.825,1,2,468.0999999,0.8888888888888888,1,object_08,1,912,0,8,6,desert_3,1,memory-2step-stake-s,559,1845810,0.0-18.0-0.0-0.70,4256,2,1
71,3,object_03,object_09,1113.325,5,1,474.385,0.8888888888888888,1,object_08,5,952,0,8,8,library_24,1,memory-2step-stake-s,560,1854400,0.0-18.0-0.0-0.71,4256,5,6
72,4,object_04,object_02,1107.61,7,2,394.065,0.6666666666666666,1,object_08,1,958,0,6,7,restaurant_11,1,memory-2step-stake-s,561,1862710,0.0-18.0-0.0-0.72,4256,8,7
73,1,object_05,object_10,807.825,2,2,453.2850001,0.8888888888888888,2,object_07,1,966,0,6,8,desert_4,1,memory-2step-stake-s,562,1871297,0.0-18.0-0.0-0.73,4256,1,2
74,3,object_09,object_03,987.37,6,1,578.5149999,0.6666666666666666,2,object_07,5,996,0,4,6,library_24,1,memory-2step-stake-s,563,1879764,0.0-18.0-0.0-0.74,4256,6,5
75,3,object_09,object_03,666.34,6,1,334.0449999,0.7777777777777778,2,object_07,5,1031,0,5,7,library_9,1,memory-2step-stake-s,564,1888120,0.0-18.0-0.0-0.75,4256,6,5
76,4,object_04,object_02,960.08,7,2,410.39,0.4444444444444444,1,object_08,5,1051,0,4,8,restaurant_29,1,memory-2step-stake-s,565,1896251,0.0-18.0-0.0-0.76,4256,8,7
77,2,object_06,object_01,1043.52,3,1,451.475,0.6666666666666666,1,object_08,1,1057,0,6,7,forest_17,1,memory-2step-stake-s,566,1904600,0.0-18.0-0.0-0.77,4256,3,4
78,1,object_10,object_05,728.8749999,1,2,409.565,0.6666666666666666,1,object_08,1,1063,0,6,8,desert_31,1,memory-2step-stake-s,567,1912880,0.0-18.0-0.0-0.78,4256,2,1
79,3,object_03,object_09,1083.555,5,1,353.4550001,0.8888888888888888,1,object_08,1,1071,0,8,9,library_9,1,memory-2step-stake-s,568,1921317,0.0-18.0-0.0-0.79,4256,5,6
80,1,object_05,object_10,934.2850001,1,1,627.9699999,0.8888888888888888,1,object_08,1,1079,0,8,9,desert_21,1,memory-2step-stake-s,569,1930083,0.0-18.0-0.0-0.80,4256,1,2
81,3,object_03,object_09,1008.845,5,1,365.2949999,1.0,1,object_08,5,1124,0,9,9,library_26,1,memory-2step-stake-s,570,1938650,0.0-18.0-0.0-0.81,4256,5,6
82,1,object_10,object_05,1302.2,2,1,511.91,0.5555555555555556,2,object_07,1,1129,0,9,5,desert_1,1,memory-2step-stake-s,571,1946952,0.0-18.0-0.0-0.82,4256,2,1
83,1,object_05,object_10,1030.21,1,1,404.645,0.6666666666666666,1,object_08,1,1135,0,6,5,desert_5,1,memory-2step-stake-s,572,1955257,0.0-18.0-0.0-0.83,4256,1,2
84,3,object_03,object_09,642.23,5,1,285.76,0.8888888888888888,1,object_08,5,1175,0,8,4,library_30,1,memory-2step-stake-s,573,1963631,0.0-18.0-0.0-0.84,4256,5,6
85,1,object_05,object_10,910.91,2,2,338.685,0.5555555555555556,2,object_07,1,1180,0,9,5,desert_14,1,memory-2step-stake-s,574,1971765,0.0-18.0-0.0-0.85,4256,1,2
86,4,object_04,object_02,756.2599999,7,2,310.295,0.8888888888888888,1,object_08,5,1220,0,8,5,restaurant_27,1,memory-2step-stake-s,575,1980195,0.0-18.0-0.0-0.86,4256,8,7
87,2,object_06,object_01,875.32,3,1,415.4099999,0.3333333333333333,1,object_08,1,1223,0,3,4,forest_1,1,memory-2step-stake-s,576,1988222,0.0-18.0-0.0-0.87,4256,3,4
88,2,object_06,object_01,691.075,4,2,309.455,0.3333333333333333,2,object_07,1,1226,0,2,3,forest_4,1,memory-2step-stake-s,577,1996100,0.0-18.0-0.0-0.88,4256,3,4
89,3,object_09,object_03,928.225,5,2,417.65,0.0,1,object_08,5,1226,0,0,5,library_5,1,memory-2step-stake-s,578,2003765,0.0-18.0-0.0-0.89,4256,6,5
90,2,object_01,object_06,874.88,3,2,402.4149999,0.2222222222222222,1,object_08,1,1228,0,2,3,forest_25,1,memory-2step-stake-s,579,2011663,0.0-18.0-0.0-0.90,4256,4,3
91,4,object_04,object_02,790.32,8,1,370.68000010000003,0.1111111111111111,2,object_07,5,1233,0,3,1,restaurant_21,1,memory-2step-stake-s,580,2019390,0.0-18.0-0.0-0.91,4256,8,7
92,3,object_09,object_03,928.235,5,2,266.005,0.3333333333333333,1,object_08,5,1248,0,3,2,library_16,1,memory-2step-stake-s,581,2027258,0.0-18.0-0.0-0.92,4256,6,5
93,3,object_03,object_09,1056.935,5,1,317.79,0.6666666666666666,1,object_08,5,1278,0,6,3,library_3,1,memory-2step-stake-s,582,2035501,0.0-18.0-0.0-0.93,4256,5,6
94,2,object_01,object_06,768.96,3,2,359.3400001,0.5555555555555556,1,object_08,5,1303,0,5,3,forest_3,1,memory-2step-stake-s,583,2043636,0.0-18.0-0.0-0.94,4256,4,3
95,3,object_09,object_03,771.135,5,2,370.025,0.5555555555555556,1,object_08,5,1328,0,5,4,library_9,1,memory-2step-stake-s,584,2051765,0.0-18.0-0.0-0.95,4256,6,5
96,4,object_02,object_04,782.69,7,1,353.565,0.3333333333333333,1,object_08,5,1343,0,3,5,restaurant_21,1,memory-2step-stake-s,585,2059675,0.0-18.0-0.0-0.96,4256,7,8
97,2,object_06,object_01,729.935,4,2,293.2750001,0.7777777777777778,2,object_07,1,1350,0,1,7,forest_23,1,memory-2step-stake-s,586,2067993,0.0-18.0-0.0-0.97,4256,3,4
98,3,object_09,object_03,655.6599999,6,1,400.6350001,1.0,2,object_07,5,1395,0,1,9,library_30,1,memory-2step-stake-s,587,2076628,0.0-18.0-0.0-0.98,4256,6,5
99,3,object_03,object_09,744.34,6,2,435.72,0.8888888888888888,2,object_07,5,1435,0,2,8,library_4,1,memory-2step-stake-s,588,2085192,0.0-18.0-0.0-0.99,4256,5,6
100,3,object_03,object_09,712.845,6,2,353.2199999,0.8888888888888888,2,object_07,5,1475,0,4,8,library_28,1,memory-2step-stake-s,589,2093663,0.0-18.0-0.0-0.100,4256,5,6
101,1,object_05,object_10,1126.955,1,1,513.185,0.2222222222222222,1,object_08,5,1485,0,2,7,desert_8,1,memory-2step-stake-s,590,2101657,0.0-18.0-0.0-0.101,4256,1,2
102,2,object_01,object_06,956.765,3,2,614.38,0.6666666666666666,1,object_08,1,1491,0,6,5,forest_1,1,memory-2step-stake-s,591,2110158,0.0-18.0-0.0-0.102,4256,4,3
103,2,object_06,object_01,944.565,3,1,293.94,0.4444444444444444,1,object_08,1,1495,0,4,6,forest_20,1,memory-2step-stake-s,592,2118132,0.0-18.0-0.0-0.103,4256,3,4
104,3,object_03,object_09,1004.045,6,2,291.705,1.0,2,object_07,5,1540,0,5,9,library_14,1,memory-2step-stake-s,593,2126633,0.0-18.0-0.0-0.104,4256,5,6
105,2,object_01,object_06,800.6900001,4,1,288.09,0.7777777777777778,2,object_07,1,1547,0,6,7,forest_1,1,memory-2step-stake-s,594,2134916,0.0-18.0-0.0-0.105,4256,4,3
106,4,object_02,object_04,890.155,8,2,327.67,0.7777777777777778,2,object_07,5,1582,0,4,7,restaurant_22,1,memory-2step-stake-s,595,2143284,0.0-18.0-0.0-0.106,4256,7,8
107,1,object_05,object_10,850.4900001,1,1,404.4,0.5555555555555556,1,object_08,1,1587,0,5,8,desert_1,1,memory-2step-stake-s,596,2151487,0.0-18.0-0.0-0.107,4256,1,2
108,2,object_06,object_01,969.895,3,1,266.205,0.4444444444444444,1,object_08,1,1591,0,4,9,forest_27,1,memory-2step-stake-s,597,2159430,0.0-18.0-0.0-0.108,4256,3,4
109,1,object_10,object_05,1162.825,2,1,443.17,0.7777777777777778,2,object_07,5,1626,0,4,7,desert_5,1,memory-2step-stake-s,598,2167871,0.0-18.0-0.0-0.109,4256,2,1
110,2,object_06,object_01,1105.325,3,1,379.19499989999997,0.6666666666666666,1,object_08,1,1632,0,6,8,forest_31,1,memory-2step-stake-s,599,2176151,0.0-18.0-0.0-0.110,4256,3,4
111,1,object_10,object_05,816.76,1,2,468.92500010000003,0.8888888888888888,1,object_08,1,1640,0,8,9,desert_4,1,memory-2step-stake-s,600,2184705,0.0-18.0-0.0-0.111,4256,2,1
112,1,object_05,object_10,1000.52,1,1,325.5949999,0.8888888888888888,1,object_08,1,1648,0,8,8,desert_8,1,memory-2step-stake-s,601,2193134,0.0-18.0-0.0-0.112,4256,1,2
113,1,object_05,object_10,719.86,1,1,314.64,0.8888888888888888,1,object_08,1,1656,0,8,4,desert_1,1,memory-2step-stake-s,602,2201591,0.0-18.0-0.0-0.113,4256,1,2
114,1,object_10,object_05,978.0999999,2,1,261.055,0.4444444444444444,2,object_07,1,1660,0,8,4,desert_9,1,memory-2step-stake-s,603,2209531,0.0-18.0-0.0-0.114,4256,2,1
115,4,object_02,object_04,621.115,7,1,266.135,0.8888888888888888,1,object_08,5,1700,0,8,3,restaurant_24,1,memory-2step-stake-s,604,2217886,0.0-18.0-0.0-0.115,4256,7,8
116,1,object_05,object_10,865.95,2,2,281.19,0.8888888888888888,2,object_07,1,1708,0,7,8,desert_31,1,memory-2step-stake-s,605,2226268,0.0-18.0-0.0-0.116,4256,1,2
117,2,object_01,object_06,1023.2,4,1,281.125,0.7777777777777778,2,object_07,1,1715,0,5,7,forest_17,1,memory-2step-stake-s,606,2234569,0.0-18.0-0.0-0.117,4256,4,3
118,1,object_05,object_10,962.41,2,2,452.79,0.8888888888888888,2,object_07,5,1755,0,5,8,desert_1,1,memory-2step-stake-s,607,2243152,0.0-18.0-0.0-0.118,4256,1,2
119,4,object_04,object_02,836.75,8,1,250.63,1.0,2,object_07,5,1800,0,6,9,restaurant_8,1,memory-2step-stake-s,608,2251619,0.0-18.0-0.0-0.119,4256,8,7
120,1,object_10,object_05,691.385,1,2,318.58,0.5555555555555556,1,object_08,5,1825,0,5,5,desert_9,1,memory-2step-stake-s,609,2259741,0.0-18.0-0.0-0.120,4256,2,1
121,1,object_10,object_05,1114.35,2,1,478.26499989999996,1.0,2,object_07,1,1834,0,4,9,desert_10,1,memory-2step-stake-s,610,2268383,0.0-18.0-0.0-0.121,4256,2,1
122,1,object_05,object_10,810.655,1,1,236.41500010000001,0.3333333333333333,1,object_08,5,1849,0,3,8,desert_6,1,memory-2step-stake-s,611,2276202,0.0-18.0-0.0-0.122,4256,1,2
123,1,object_05,object_10,928.515,2,2,319.395,0.8888888888888888,2,object_07,1,1857,0,6,8,desert_3,1,memory-2step-stake-s,612,2284672,0.0-18.0-0.0-0.123,4256,1,2
124,2,object_01,object_06,945.2,4,1,266.5350001,0.6666666666666666,2,object_07,5,1887,0,8,6,forest_4,1,memory-2step-stake-s,613,2292816,0.0-18.0-0.0-0.124,4256,4,3
125,1,object_05,object_10,642.54,1,1,433.475,0.6666666666666666,1,object_08,1,1893,0,6,4,desert_11,1,memory-2step-stake-s,614,2301128,0.0-18.0-0.0-0.125,4256,1,2
126,2,object_06,object_01,1038.495,4,2,326.74,0.4444444444444444,2,object_07,1,1897,0,6,4,forest_12,1,memory-2step-stake-s,615,2309123,0.0-18.0-0.0-0.126,4256,3,4
127,3,object_09,object_03,1094.625,5,2,311.035,0.5555555555555556,1,object_08,5,1922,0,5,2,library_5,1,memory-2step-stake-s,616,2317236,0.0-18.0-0.0-0.127,4256,6,5
128,3,object_03,object_09,686.495,5,1,521.42,0.6666666666666666,1,object_08,5,1952,0,6,2,library_14,1,memory-2step-stake-s,618,2407823,0.0-18.0-0.1-0.128,4256,5,6
129,2,object_06,object_01,714.45,4,2,295.36000010000004,0.2222222222222222,2,object_07,1,1954,0,7,2,forest_19,1,memory-2step-stake-s,619,2415600,0.0-18.0-0.1-0.129,4256,3,4
130,4,object_02,object_04,547.955,7,1,363.28,1.0,1,object_08,5,1999,0,9,1,restaurant_8,1,memory-2step-stake-s,620,2424211,0.0-18.0-0.1-0.130,4256,7,8
131,4,object_04,object_02,798.8549998999999,7,2,277.8950001,0.8888888888888888,1,object_08,5,2039,0,8,1,restaurant_21,1,memory-2step-stake-s,621,2432636,0.0-18.0-0.1-0.131,4256,8,7
132,3,object_09,object_03,720.19,5,2,290.605,0.6666666666666666,1,object_08,5,2069,0,6,0,library_6,1,memory-2step-stake-s,622,2440848,0.0-18.0-0.1-0.132,4256,6,5
133,2,object_01,object_06,611.005,4,1,371.175,0.2222222222222222,2,object_07,1,2071,0,3,2,forest_15,1,memory-2step-stake-s,623,2448704,0.0-18.0-0.1-0.133,4256,4,3
134,3,object_09,object_03,694.38,5,2,361.1699999,0.4444444444444444,1,object_08,5,2091,0,4,1,library_4,1,memory-2step-stake-s,624,2456769,0.0-18.0-0.1-0.134,4256,6,5
135,1,object_05,object_10,882.155,1,1,566.765,0.2222222222222222,1,object_08,1,2093,0,2,2,desert_27,1,memory-2step-stake-s,625,2464803,0.0-18.0-0.1-0.135,4256,1,2
136,4,object_02,object_04,652.63,7,1,278.76,0.0,1,object_08,5,2093,0,0,0,restaurant_12,1,memory-2step-stake-s,626,2472339,0.0-18.0-0.1-0.136,4256,7,8
137,4,object_04,object_02,841.5,8,1,342.28,0.1111111111111111,2,object_07,1,2094,0,0,1,restaurant_7,1,memory-2step-stake-s,627,2480072,0.0-18.0-0.1-0.137,4256,8,7
138,3,object_03,object_09,858.7250001,6,2,283.205,0.0,2,object_07,1,2094,0,3,0,library_15,1,memory-2step-stake-s,628,2487617,0.0-18.0-0.1-0.138,4256,5,6
139,2,object_06,object_01,1027.97,3,1,346.745,0.1111111111111111,1,object_08,1,2095,0,1,1,forest_25,1,memory-2step-stake-s,629,2495324,0.0-18.0-0.1-0.139,4256,3,4
140,1,object_05,object_10,991.67,1,1,336.825,0.0,1,object_08,1,2095,0,0,2,desert_6,1,memory-2step-stake-s,630,2502921,0.0-18.0-0.1-0.140,4256,1,2
141,2,object_06,object_01,739.735,4,2,267.8850001,0.5555555555555556,2,object_07,1,2100,0,0,5,forest_2,1,memory-2step-stake-s,631,2511015,0.0-18.0-0.1-0.141,4256,3,4
142,1,object_10,object_05,967.66,2,1,510.58,0.7777777777777778,2,object_07,1,2107,0,2,7,desert_10,1,memory-2step-stake-s,632,2519538,0.0-18.0-0.1-0.142,4256,2,1
143,1,object_05,object_10,1258.645,2,2,607.215,1.0,2,object_07,5,2152,0,1,9,desert_10,1,memory-2step-stake-s,633,2528361,0.0-18.0-0.1-0.143,4256,1,2
144,2,object_01,object_06,951.0400001,3,2,314.2499999,0.0,1,object_08,5,2152,0,0,8,forest_29,1,memory-2step-stake-s,634,2535935,0.0-18.0-0.1-0.144,4256,4,3
145,4,object_04,object_02,596.8299999,8,1,347.725,0.7777777777777778,2,object_07,5,2187,0,2,7,restaurant_24,1,memory-2step-stake-s,635,2544309,0.0-18.0-0.1-0.145,4256,8,7
146,1,object_10,object_05,946.4199999,2,1,236.30499989999998,0.3333333333333333,2,object_07,1,2190,0,1,3,desert_21,1,memory-2step-stake-s,636,2552117,0.0-18.0-0.1-0.146,4256,2,1
147,4,object_02,object_04,721.5400001,7,1,264.7000001,0.3333333333333333,1,object_08,1,2193,0,3,3,restaurant_11,1,memory-2step-stake-s,637,2559960,0.0-18.0-0.1-0.147,4256,7,8
148,2,object_06,object_01,918.4000001,4,2,222.1349999,0.6666666666666666,2,object_07,1,2199,0,4,6,forest_2,1,memory-2step-stake-s,638,2568092,0.0-18.0-0.1-0.148,4256,3,4
149,4,object_02,object_04,896.4,8,2,346.685,0.4444444444444444,2,object_07,5,2219,0,5,4,restaurant_23,1,memory-2step-stake-s,639,2576145,0.0-18.0-0.1-0.149,4256,7,8
150,3,object_03,object_09,936.125,5,1,300.2299999,0.5555555555555556,1,object_08,5,2244,0,5,4,library_24,1,memory-2step-stake-s,640,2584226,0.0-18.0-0.1-0.150,4256,5,6
151,3,object_09,object_03,781.8199999,6,1,294.305,0.7777777777777778,2,object_07,1,2251,0,3,7,library_23,1,memory-2step-stake-s,641,2592541,0.0-18.0-0.1-0.151,4256,6,5
152,1,object_05,object_10,1101.705,1,1,249.315,0.2222222222222222,1,object_08,1,2253,0,2,5,desert_31,1,memory-2step-stake-s,642,2600267,0.0-18.0-0.1-0.152,4256,1,2
153,1,object_10,object_05,984.7349998999999,2,1,388.835,0.3333333333333333,2,object_07,1,2256,0,2,3,desert_18,1,memory-2step-stake-s,643,2608233,0.0-18.0-0.1-0.153,4256,2,1
154,3,object_03,object_09,825.865,5,1,279.865,0.5555555555555556,1,object_08,5,2281,0,5,4,library_24,1,memory-2step-stake-s,644,2616300,0.0-18.0-0.1-0.154,4256,5,6
155,1,object_05,object_10,888.575,1,1,332.4099999,0.5555555555555556,1,object_08,1,2286,0,5,4,desert_3,1,memory-2step-stake-s,645,2624452,0.0-18.0-0.1-0.155,4256,1,2
156,2,object_01,object_06,737.69,4,1,261.685,0.6666666666666666,2,object_07,1,2292,0,6,6,forest_3,1,memory-2step-stake-s,646,2632616,0.0-18.0-0.1-0.156,4256,4,3
157,3,object_03,object_09,848.4949999,6,2,324.33,0.6666666666666666,2,object_07,5,2322,0,8,6,library_5,1,memory-2step-stake-s,647,2640824,0.0-18.0-0.1-0.157,4256,5,6
158,2,object_06,object_01,879.97,4,2,277.2850001,0.6666666666666666,2,object_07,5,2352,0,7,6,forest_9,1,memory-2step-stake-s,648,2649009,0.0-18.0-0.1-0.158,4256,3,4
159,2,object_06,object_01,747.16,3,1,256.9100001,0.7777777777777778,1,object_08,1,2359,0,7,8,forest_12,1,memory-2step-stake-s,649,2657266,0.0-18.0-0.1-0.159,4256,3,4
160,1,object_10,object_05,984.1100001,1,2,284.82999989999996,0.7777777777777778,1,object_08,1,2366,0,7,7,desert_29,1,memory-2step-stake-s,650,2665541,0.0-18.0-0.1-0.160,4256,2,1
161,3,object_03,object_09,596.3999999,5,1,300.65,0.6666666666666666,1,object_08,5,2396,0,6,8,library_28,1,memory-2step-stake-s,651,2673752,0.0-18.0-0.1-0.161,4256,5,6
162,2,object_06,object_01,695.4450001,4,2,255.22500010000002,0.5555555555555556,2,object_07,1,2401,0,8,5,forest_31,1,memory-2step-stake-s,652,2681799,0.0-18.0-0.1-0.162,4256,3,4
163,2,object_01,object_06,723.525,4,1,252.71,0.4444444444444444,2,object_07,1,2405,0,3,4,forest_4,1,memory-2step-stake-s,653,2689762,0.0-18.0-0.1-0.163,4256,4,3
164,3,object_09,object_03,601.7049999,5,2,272.8649999,0.1111111111111111,1,object_08,5,2410,0,1,6,library_15,1,memory-2step-stake-s,654,2697416,0.0-18.0-0.1-0.164,4256,6,5
165,4,object_04,object_02,743.645,8,1,244.49,0.1111111111111111,2,object_07,1,2411,0,2,1,restaurant_32,1,memory-2step-stake-s,655,2705030,0.0-18.0-0.1-0.165,4256,8,7
166,1,object_05,object_10,798.795,1,1,322.115,0.2222222222222222,1,object_08,1,2413,0,2,1,desert_29,1,memory-2step-stake-s,656,2712847,0.0-18.0-0.1-0.166,4256,1,2
167,1,object_05,object_10,849.39,1,1,259.355,0.1111111111111111,1,object_08,5,2418,0,1,6,desert_9,1,memory-2step-stake-s,657,2720478,0.0-18.0-0.1-0.167,4256,1,2
168,2,object_06,object_01,516.6,4,2,281.065,0.6666666666666666,2,object_07,1,2424,0,1,6,forest_1,1,memory-2step-stake-s,658,2728656,0.0-18.0-0.1-0.168,4256,3,4
169,1,object_10,object_05,901.755,2,1,277.04000010000004,0.7777777777777778,2,object_07,5,2459,0,3,7,desert_14,1,memory-2step-stake-s,659,2736914,0.0-18.0-0.1-0.169,4256,2,1
170,2,object_01,object_06,589.48,4,1,384.55,0.6666666666666666,2,object_07,1,2465,0,3,6,forest_19,1,memory-2step-stake-s,660,2745223,0.0-18.0-0.1-0.170,4256,4,3
171,3,object_09,object_03,534.6499999,6,1,254.565,0.7777777777777778,2,object_07,5,2500,0,6,7,library_5,1,memory-2step-stake-s,661,2753503,0.0-18.0-0.1-0.171,4256,6,5
172,1,object_10,object_05,897.875,2,1,298.095,0.6666666666666666,2,object_07,5,2530,0,9,6,desert_8,1,memory-2step-stake-s,662,2761693,0.0-18.0-0.1-0.172,4256,2,1
173,2,object_01,object_06,871.1700001,3,2,294.485,0.8888888888888888,1,object_08,1,2538,0,8,6,forest_31,1,memory-2step-stake-s,663,2770111,0.0-18.0-0.1-0.173,4256,4,3
174,1,object_05,object_10,862.955,1,1,326.44499989999997,0.7777777777777778,1,object_08,1,2545,0,7,6,desert_3,1,memory-2step-stake-s,664,2778429,0.0-18.0-0.1-0.174,4256,1,2
175,1,object_05,object_10,615.34,1,1,336.325,0.7777777777777778,1,object_08,5,2580,0,7,5,desert_8,1,memory-2step-stake-s,665,2786786,0.0-18.0-0.1-0.175,4256,1,2
176,4,object_04,object_02,763.6000001,8,1,288.555,0.6666666666666666,2,object_07,1,2586,0,8,6,restaurant_8,1,memory-2step-stake-s,666,2794997,0.0-18.0-0.1-0.176,4256,8,7
177,2,object_01,object_06,684.965,4,1,287.42000010000004,0.3333333333333333,2,object_07,5,2601,0,8,3,forest_19,1,memory-2step-stake-s,667,2802850,0.0-18.0-0.1-0.177,4256,4,3
178,3,object_03,object_09,749.13,5,1,250.79,0.8888888888888888,1,object_08,1,2609,0,8,2,library_16,1,memory-2step-stake-s,668,2811195,0.0-18.0-0.1-0.178,4256,5,6
179,2,object_06,object_01,876.0200001000001,3,1,281.875,1.0,1,object_08,5,2654,0,9,3,forest_12,1,memory-2step-stake-s,669,2819701,0.0-18.0-0.1-0.179,4256,3,4
180,3,object_03,object_09,570.6549999,5,1,295.38499989999997,0.6666666666666666,1,object_08,5,2684,0,6,5,library_23,1,memory-2step-stake-s,670,2827915,0.0-18.0-0.1-0.180,4256,5,6
181,1,object_10,object_05,849.315,2,1,292.2100001,0.1111111111111111,2,object_07,1,2685,0,8,1,desert_26,1,memory-2step-stake-s,671,2835603,0.0-18.0-0.1-0.181,4256,2,1
182,4,object_04,object_02,798.16,7,2,262.1899999,0.8888888888888888,1,object_08,5,2725,0,8,1,restaurant_10,1,memory-2step-stake-s,672,2843960,0.0-18.0-0.1-0.182,4256,8,7
183,4,object_04,object_02,652.41,7,2,314.54500010000004,0.7777777777777778,1,object_08,5,2760,0,7,3,restaurant_10,1,memory-2step-stake-s,673,2852251,0.0-18.0-0.1-0.183,4256,8,7
184,1,object_10,object_05,818.7749999,1,2,276.16,1.0,1,object_08,5,2805,0,9,4,desert_26,1,memory-2step-stake-s,674,2860737,0.0-18.0-0.1-0.184,4256,2,1
185,4,object_02,object_04,572.23,7,1,307.69,0.8888888888888888,1,object_08,5,2845,0,8,1,restaurant_16,1,memory-2step-stake-s,675,2869192,0.0-18.0-0.1-0.185,4256,7,8
186,4,object_02,object_04,588.9549999,7,1,329.1849999,0.5555555555555556,1,object_08,5,2870,0,5,4,restaurant_27,1,memory-2step-stake-s,676,2877302,0.0-18.0-0.1-0.186,4256,7,8
187,4,object_04,object_02,627.995,7,2,293.29500010000004,0.2222222222222222,1,object_08,5,2880,0,2,7,restaurant_6,1,memory-2step-stake-s,677,2885092,0.0-18.0-0.1-0.187,4256,8,7
188,2,object_06,object_01,773.2350001,4,2,284.63,0.4444444444444444,2,object_07,5,2900,0,6,4,forest_25,1,memory-2step-stake-s,678,2893060,0.0-18.0-0.1-0.188,4256,3,4
189,4,object_02,object_04,648.2500001,8,2,1071.64,0.5555555555555556,2,object_07,5,2925,0,6,5,restaurant_28,1,memory-2step-stake-s,679,2901933,0.0-18.0-0.1-0.189,4256,7,8
190,3,object_09,object_03,773.0050001,6,1,311.6199999,0.1111111111111111,2,object_07,1,2926,0,5,1,library_30,1,memory-2step-stake-s,680,2909631,0.0-18.0-0.1-0.190,4256,6,5
191,4,object_02,object_04,481.44,7,1,292.285,0.4444444444444444,1,object_08,5,2946,0,4,2,restaurant_24,1,memory-2step-stake-s,681,2917630,0.0-18.0-0.1-0.191,4256,7,8
192,1,object_05,object_10,663.715,1,1,302.3750001,0.5555555555555556,1,object_08,1,2951,0,5,2,desert_11,1,memory-2step-stake-s,682,2925742,0.0-18.0-0.1-0.192,4256,1,2
193,3,object_09,object_03,792.455,5,2,299.565,0.8888888888888888,1,object_08,5,2991,0,8,1,library_25,1,memory-2step-stake-s,683,2934164,0.0-18.0-0.1-0.193,4256,6,5
194,3,object_03,object_09,576.0850001,5,1,266.6450001,0.8888888888888888,1,object_08,5,3031,0,8,3,library_25,1,memory-2step-stake-s,684,2942509,0.0-18.0-0.1-0.194,4256,5,6
195,4,object_02,object_04,610.295,7,1,285.3700001,0.8888888888888888,1,object_08,1,3039,0,8,4,restaurant_28,1,memory-2step-stake-s,685,2950900,0.0-18.0-0.1-0.195,4256,7,8
196,3,object_03,object_09,536.45,5,1,303.37,1.0,1,object_08,5,3084,0,9,6,library_25,1,memory-2step-stake-s,686,2959407,0.0-18.0-0.1-0.196,4256,5,6
197,3,object_09,object_03,653.4900001,5,2,262.5249999,0.5555555555555556,1,object_08,5,3109,0,5,7,library_23,1,memory-2step-stake-s,687,2967453,0.0-18.0-0.1-0.197,4256,6,5
198,4,object_02,object_04,510.55,7,1,242.97,0.3333333333333333,1,object_08,5,3124,0,3,5,restaurant_8,1,memory-2step-stake-s,688,2975298,0.0-18.0-0.1-0.198,4256,7,8
199,1,object_05,object_10,967.5800001,2,2,307.73,0.4444444444444444,2,object_07,1,3128,0,3,4,desert_5,1,memory-2step-stake-s,689,2983291,0.0-18.0-0.1-0.199,4256,1,2
200,4,object_04,object_02,617.615,8,1,319.7849999,0.5555555555555556,2,object_07,1,3133,0,6,5,restaurant_32,1,memory-2step-stake-s,690,2991382,0.0-18.0-0.1-0.200,4256,8,7
201,1,object_05,object_10,800.875,1,1,261.605,0.8888888888888888,1,object_08,1,3141,0,8,5,desert_11,1,memory-2step-stake-s,691,2999715,0.0-18.0-0.1-0.201,4256,1,2
202,2,object_06,object_01,596.325,3,1,224.59,0.6666666666666666,1,object_08,1,3147,0,6,3,forest_15,1,memory-2step-stake-s,692,3007825,0.0-18.0-0.1-0.202,4256,3,4
203,4,object_02,object_04,514.8550001,7,1,226.49,0.8888888888888888,1,object_08,5,3187,0,8,2,restaurant_10,1,memory-2step-stake-s,693,3016143,0.0-18.0-0.1-0.203,4256,7,8
204,4,object_02,object_04,463.98,7,1,302.495,0.8888888888888888,1,object_08,5,3227,0,8,3,restaurant_16,1,memory-2step-stake-s,694,3024542,0.0-18.0-0.1-0.204,4256,7,8
205,3,object_03,object_09,717.57,5,1,286.675,0.8888888888888888,1,object_08,5,3267,0,8,7,library_15,1,memory-2step-stake-s,695,3032903,0.0-18.0-0.1-0.205,4256,5,6
206,3,object_09,object_03,701.045,6,1,232.8,0.5555555555555556,2,object_07,1,3272,0,9,5,library_11,1,memory-2step-stake-s,696,3040907,0.0-18.0-0.1-0.206,4256,6,5
207,2,object_01,object_06,621.7550001,4,1,268.1199999,0.5555555555555556,2,object_07,1,3277,0,5,5,forest_18,1,memory-2step-stake-s,697,3049003,0.0-18.0-0.1-0.207,4256,4,3
208,4,object_02,object_04,619.98,7,1,306.555,0.3333333333333333,1,object_08,1,3280,0,3,7,restaurant_22,1,memory-2step-stake-s,698,3056891,0.0-18.0-0.1-0.208,4256,7,8
209,1,object_10,object_05,981.185,1,2,281.19,0.8888888888888888,1,object_08,1,3288,0,8,6,desert_14,1,memory-2step-stake-s,699,3065317,0.0-18.0-0.1-0.209,4256,2,1
210,4,object_04,object_02,673.775,7,2,270.6749999,0.8888888888888888,1,object_08,1,3296,0,8,8,restaurant_29,1,memory-2step-stake-s,700,3073670,0.0-18.0-0.1-0.210,4256,8,7
211,3,object_03,object_09,471.80000010000003,5,1,356.1300001,0.8888888888888888,1,object_08,5,3336,0,8,8,library_13,1,memory-2step-stake-s,701,3082122,0.0-18.0-0.1-0.211,4256,5,6
212,2,object_06,object_01,825.6049998999999,3,1,289.29,0.7777777777777778,1,object_08,5,3371,0,7,8,forest_12,1,memory-2step-stake-s,702,3090409,0.0-18.0-0.1-0.212,4256,3,4
213,4,object_04,object_02,667.5600001,7,2,275.395,0.7777777777777778,1,object_08,5,3406,0,7,8,restaurant_7,1,memory-2step-stake-s,703,3098662,0.0-18.0-0.1-0.213,4256,8,7
214,1,object_10,object_05,807.03,1,2,329.085,0.7777777777777778,1,object_08,5,3441,0,7,5,desert_5,1,memory-2step-stake-s,704,3106976,0.0-18.0-0.1-0.214,4256,2,1
215,4,object_02,object_04,528.045,7,1,279.905,1.0,1,object_08,5,3486,0,9,8,restaurant_6,1,memory-2step-stake-s,705,3115498,0.0-18.0-0.1-0.215,4256,7,8
216,4,object_04,object_02,602.28,7,2,313.28,0.4444444444444444,1,object_08,5,3506,0,4,5,restaurant_26,1,memory-2step-stake-s,706,3123511,0.0-18.0-0.1-0.216,4256,8,7
217,1,object_05,object_10,855.3599998999999,2,2,276.48,0.4444444444444444,2,object_07,1,3510,0,6,4,desert_18,1,memory-2step-stake-s,707,3131454,0.0-18.0-0.1-0.217,4256,1,2
218,2,object_01,object_06,663.7650001000001,4,1,304.945,0.4444444444444444,2,object_07,1,3514,0,6,4,forest_23,1,memory-2step-stake-s,708,3139463,0.0-18.0-0.1-0.218,4256,4,3
219,4,object_02,object_04,879.59,8,2,262.495,0.2222222222222222,2,object_07,5,3524,0,5,2,restaurant_26,1,memory-2step-stake-s,709,3147211,0.0-18.0-0.1-0.219,4256,7,8
220,1,object_05,object_10,812.865,1,1,235.62000010000003,0.5555555555555556,1,object_08,1,3529,0,5,3,desert_10,1,memory-2step-stake-s,710,3155235,0.0-18.0-0.1-0.220,4256,1,2
221,3,object_03,object_09,606.5399999,5,1,269.59,0.1111111111111111,1,object_08,5,3534,0,1,4,library_16,1,memory-2step-stake-s,711,3162852,0.0-18.0-0.1-0.221,4256,5,6
222,1,object_10,object_05,852.07,2,1,266.915,0.4444444444444444,2,object_07,5,3554,0,2,4,desert_26,1,memory-2step-stake-s,712,3170843,0.0-18.0-0.1-0.222,4256,2,1
223,4,object_04,object_02,440.2,8,1,274.18000010000003,0.6666666666666666,2,object_07,5,3584,0,0,6,restaurant_12,1,memory-2step-stake-s,713,3179001,0.0-18.0-0.1-0.223,4256,8,7
224,4,object_04,object_02,581.02,8,1,348.1299999,0.6666666666666666,2,object_07,5,3614,0,1,6,restaurant_23,1,memory-2step-stake-s,714,3187224,0.0-18.0-0.1-0.224,4256,8,7
225,4,object_04,object_02,582.1400001000001,8,1,255.69500010000002,0.2222222222222222,2,object_07,5,3624,0,1,2,restaurant_7,1,memory-2step-stake-s,715,3194965,0.0-18.0-0.1-0.225,4256,8,7
226,3,object_03,object_09,636.785,5,1,238.69,0.1111111111111111,1,object_08,5,3629,0,1,3,library_28,1,memory-2step-stake-s,716,3202584,0.0-18.0-0.1-0.226,4256,5,6
227,3,object_09,object_03,663.585,6,1,269.69,0.2222222222222222,2,object_07,5,3639,0,0,2,library_14,1,memory-2step-stake-s,717,3210316,0.0-18.0-0.1-0.227,4256,6,5
228,3,object_03,object_09,867.38,6,2,286.785,0.1111111111111111,2,object_07,5,3644,0,1,1,library_3,1,memory-2step-stake-s,718,3217991,0.0-18.0-0.1-0.228,4256,5,6
229,1,object_10,object_05,941.67,1,2,241.225,0.3333333333333333,1,object_08,5,3659,0,3,3,desert_18,1,memory-2step-stake-s,719,3225823,0.0-18.0-0.1-0.229,4256,2,1
230,4,object_04,object_02,724.47,7,2,274.88,0.2222222222222222,1,object_08,5,3669,0,2,2,restaurant_11,1,memory-2step-stake-s,720,3233589,0.0-18.0-0.1-0.230,4256,8,7
231,3,object_09,object_03,692.9149999,6,1,307.2050001,0.0,2,object_07,1,3669,0,2,0,library_13,1,memory-2step-stake-s,721,3241177,0.0-18.0-0.1-0.231,4256,6,5
232,4,object_04,object_02,629.0450001,7,2,278.605,0.7777777777777778,1,object_08,1,3676,0,7,1,restaurant_26,1,memory-2step-stake-s,722,3249445,0.0-18.0-0.1-0.232,4256,8,7
233,2,object_01,object_06,806.58,3,2,312.735,0.5555555555555556,1,object_08,1,3681,0,5,3,forest_19,1,memory-2step-stake-s,723,3257588,0.0-18.0-0.1-0.233,4256,4,3
234,3,object_09,object_03,602.0899999,5,2,324.7499999,0.5555555555555556,1,object_08,5,3706,0,5,4,library_6,1,memory-2step-stake-s,724,3265718,0.0-18.0-0.1-0.234,4256,6,5
235,3,object_03,object_09,555.48,5,1,247.095,0.3333333333333333,1,object_08,5,3721,0,3,3,library_4,1,memory-2step-stake-s,725,3273555,0.0-18.0-0.1-0.235,4256,5,6
236,4,object_02,object_04,607.4,8,2,256.645,0.3333333333333333,2,object_07,5,3736,0,3,3,restaurant_28,1,memory-2step-stake-s,726,3281406,0.0-18.0-0.1-0.236,4256,7,8
237,2,object_06,object_01,786.855,3,1,277.98,0.3333333333333333,1,object_08,1,3739,0,3,4,forest_27,1,memory-2step-stake-s,727,3289291,0.0-18.0-0.1-0.237,4256,3,4
238,2,object_01,object_06,914.485,3,2,276.04,0.1111111111111111,1,object_08,5,3744,0,1,3,forest_2,1,memory-2step-stake-s,728,3296948,0.0-18.0-0.1-0.238,4256,4,3
239,2,object_06,object_01,757.16,4,2,357.555,0.5555555555555556,2,object_07,1,3749,0,0,5,forest_15,1,memory-2step-stake-s,729,3305099,0.0-18.0-0.1-0.239,4256,3,4
240,4,object_02,object_04,500.215,8,2,353.28,0.3333333333333333,2,object_07,5,3764,0,1,3,restaurant_27,1,memory-2step-stake-s,730,3313040,0.0-18.0-0.1-0.240,4256,7,8
241,1,object_05,object_10,737.3799999,1,1,293.28,0.0,1,object_08,1,3764,0,0,1,desert_11,1,memory-2step-stake-s,731,3320585,0.0-18.0-0.1-0.241,4256,1,2
242,2,object_06,object_01,562.42,4,2,394.23,0.3333333333333333,2,object_07,1,3767,0,1,3,forest_17,1,memory-2step-stake-s,732,3328553,0.0-18.0-0.1-0.242,4256,3,4
243,3,object_09,object_03,741.7,6,1,344.0950001,0.6666666666666666,2,object_07,5,3797,0,1,6,library_13,1,memory-2step-stake-s,733,3336809,0.0-18.0-0.1-0.243,4256,6,5
244,2,object_01,object_06,691.0750001,4,1,301.48,0.6666666666666666,2,object_07,1,3803,0,1,6,forest_20,1,memory-2step-stake-s,734,3345006,0.0-18.0-0.1-0.244,4256,4,3
245,3,object_09,object_03,512.5849999,6,1,273.99,0.4444444444444444,2,object_07,5,3823,0,2,4,library_6,1,memory-2step-stake-s,735,3352976,0.0-18.0-0.1-0.245,4256,6,5
246,2,object_01,object_06,648.055,3,2,292.34,0.4444444444444444,1,object_08,1,3827,0,4,4,forest_2,1,memory-2step-stake-s,736,3360963,0.0-18.0-0.1-0.246,4256,4,3
247,3,object_09,object_03,701.3849999,5,2,281.51,0.5555555555555556,1,object_08,5,3852,0,5,4,library_16,1,memory-2step-stake-s,737,3369072,0.0-18.0-0.1-0.247,4256,6,5
248,4,object_04,object_02,594.8899999,8,1,263.75,0.4444444444444444,2,object_07,1,3856,0,7,4,restaurant_22,1,memory-2step-stake-s,738,3377016,0.0-18.0-0.1-0.248,4256,8,7
249,4,object_04,object_02,595.365,7,2,258.2050001,0.5555555555555556,1,object_08,5,3881,0,5,5,restaurant_32,1,memory-2step-stake-s,739,3385056,0.0-18.0-0.1-0.249,4256,8,7
250,1,object_05,object_10,940.3799999,2,2,280.765,0.8888888888888888,2,object_07,1,3889,0,5,8,desert_9,1,memory-2step-stake-s,740,3393464,0.0-18.0-0.1-0.250,4256,1,2
251,3,object_03,object_09,763.565,6,2,392.05,0.8888888888888888,2,object_07,5,3929,0,6,8,library_6,1,memory-2step-stake-s,741,3401962,0.0-18.0-0.1-0.251,4256,5,6
252,3,object_09,object_03,509.92,6,1,298.41500010000004,1.0,2,object_07,5,3974,0,3,9,library_30,1,memory-2step-stake-s,742,3410510,0.0-18.0-0.1-0.252,4256,6,5
253,3,object_03,object_09,693.9900001,6,2,241.90499989999998,0.8888888888888888,2,object_07,1,3982,0,5,8,library_3,1,memory-2step-stake-s,743,3418873,0.0-18.0-0.1-0.253,4256,5,6
254,1,object_05,object_10,834.9050001,1,1,271.6799999,0.8888888888888888,1,object_08,1,3990,0,8,8,desert_29,1,memory-2step-stake-s,744,3427227,0.0-18.0-0.1-0.254,4256,1,2
255,1,object_10,object_05,940.455,2,1,271.605,0.7777777777777778,2,object_07,1,3997,0,7,7,desert_29,1,memory-2step-stake-s,745,3435493,0.0-18.0-0.1-0.255,4256,2,1
