,state1,stim_left,stim_right,rt_1,choice1,response1,rt_2,points,state2,stim_state2,stake,score,practice,rews1,rews2,background,high_arm,trial_type,trial_index,time_elapsed,internal_node_id,subid,stim_left_num,stim_right_num
0,4,object_05,object_10,937.715,8,1,679.3,0.8888888888888888,2,object_06,1,8,0,1,8,restaurant_18,2,memory-2step-stake-s,497,1230228,0.0-18.0-0.0-0.0,4192,8,7
1,2,object_08,object_04,860.095,4,2,641.59,0.7777777777777778,2,object_06,5,43,0,2,7,forest_7,2,memory-2step-stake-s,498,1238832,0.0-18.0-0.0-0.1,4192,3,4
2,2,object_04,object_08,912.425,4,1,740.975,0.7777777777777778,2,object_06,5,78,0,4,7,forest_14,2,memory-2step-stake-s,499,1247530,0.0-18.0-0.0-0.2,4192,4,3
3,4,object_05,object_10,725.525,7,2,696.89,0.3333333333333333,1,object_01,1,81,0,3,7,restaurant_21,2,memory-2step-stake-s,500,1255769,0.0-18.0-0.0-0.3,4192,8,7
4,4,object_05,object_10,1087.19,8,1,687.905,0.7777777777777778,2,object_06,1,88,0,0,7,restaurant_3,2,memory-2step-stake-s,501,1264410,0.0-18.0-0.0-0.4,4192,8,7
5,3,object_09,object_07,1172.685,6,2,1282.385,1.0,2,object_06,1,97,0,1,9,library_6,2,memory-2step-stake-s,502,1273859,0.0-18.0-0.0-0.5,4192,5,6
6,4,object_05,object_10,1329.885,8,1,596.615,1.0,2,object_06,1,106,0,3,9,restaurant_7,2,memory-2step-stake-s,503,1282613,0.0-18.0-0.0-0.6,4192,8,7
7,2,object_04,object_08,1118.285,4,1,605.25,0.7777777777777778,2,object_06,1,113,0,5,7,forest_5,2,memory-2step-stake-s,504,1291184,0.0-18.0-0.0-0.7,4192,4,3
8,2,object_08,object_04,919.32,4,2,593.485,0.6666666666666666,2,object_06,5,143,0,2,6,forest_24,2,memory-2step-stake-s,505,1299631,0.0-18.0-0.0-0.8,4192,3,4
9,1,object_02,object_03,1268.05,1,1,634.22,0.4444444444444444,1,object_01,5,163,0,4,7,desert_14,2,memory-2step-stake-s,506,1307913,0.0-18.0-0.0-0.9,4192,1,2
10,3,object_09,object_07,1273.19,5,1,491.395,0.4444444444444444,1,object_01,1,167,0,4,9,library_29,2,memory-2step-stake-s,507,1316052,0.0-18.0-0.0-0.10,4192,5,6
11,4,object_10,object_05,1344.13,7,1,103.995,0.8888888888888888,1,object_01,1,175,0,8,8,restaurant_9,2,memory-2step-stake-s,508,1324212,0.0-18.0-0.0-0.11,4192,7,8
12,3,object_09,object_07,555.965,5,1,225.825,0.8888888888888888,1,object_01,1,183,0,8,6,library_11,2,memory-2step-stake-s,509,1332507,0.0-18.0-0.0-0.12,4192,5,6
13,4,object_05,object_10,966.89,8,1,747.145,0.6666666666666666,2,object_06,1,189,0,8,6,restaurant_8,2,memory-2step-stake-s,510,1341097,0.0-18.0-0.0-0.13,4192,8,7
14,3,object_09,object_07,957.49,6,2,757.01,0.8888888888888888,2,object_06,5,229,0,8,8,library_9,2,memory-2step-stake-s,511,1349915,0.0-18.0-0.0-0.14,4192,5,6
15,3,object_09,object_07,1154.41,5,1,959.55,0.8888888888888888,1,object_01,5,269,0,8,6,library_2,2,memory-2step-stake-s,512,1358936,0.0-18.0-0.0-0.15,4192,5,6
16,1,object_02,object_03,1132.375,2,2,749.93,0.6666666666666666,2,object_06,5,299,0,8,6,desert_12,2,memory-2step-stake-s,513,1367539,0.0-18.0-0.0-0.16,4192,1,2
17,3,object_09,object_07,798.555,5,1,540.98,0.7777777777777778,1,object_01,1,306,0,7,6,library_29,2,memory-2step-stake-s,514,1376030,0.0-18.0-0.0-0.17,4192,5,6
18,3,object_07,object_09,795.845,5,2,464.24,0.7777777777777778,1,object_01,5,341,0,7,5,library_14,2,memory-2step-stake-s,515,1384439,0.0-18.0-0.0-0.18,4192,6,5
19,1,object_02,object_03,1064.64,1,1,650.375,0.6666666666666666,1,object_01,5,371,0,6,7,desert_5,2,memory-2step-stake-s,516,1392934,0.0-18.0-0.0-0.19,4192,1,2
20,2,object_04,object_08,1102.835,4,1,865.5,0.4444444444444444,2,object_06,5,391,0,6,4,forest_12,2,memory-2step-stake-s,517,1401447,0.0-18.0-0.0-0.20,4192,4,3
21,3,object_09,object_07,-1.0,-1,-1,-1.0,0.0,-,,1,391,0,9,3,library_2,2,memory-2step-stake-s,518,1407973,0.0-18.0-0.0-0.21,4192,5,6
22,3,object_09,object_07,557.885,5,1,673.64,0.7777777777777778,1,object_01,1,398,0,7,3,library_14,2,memory-2step-stake-s,519,1416603,0.0-18.0-0.0-0.22,4192,5,6
23,2,object_08,object_04,1022.985,3,1,229.12,0.6666666666666666,1,object_01,1,404,0,6,6,forest_6,2,memory-2step-stake-s,520,1424680,0.0-18.0-0.0-0.23,4192,3,4
24,4,object_05,object_10,694.86,7,2,72.11499999,0.7777777777777778,1,object_01,1,411,0,7,5,restaurant_18,2,memory-2step-stake-s,521,1432715,0.0-18.0-0.0-0.24,4192,8,7
25,3,object_09,object_07,664.725,5,1,877.68,0.8888888888888888,1,object_01,1,419,0,8,7,library_11,2,memory-2step-stake-s,522,1441657,0.0-18.0-0.0-0.25,4192,5,6
26,2,object_08,object_04,1302.29,4,2,778.72,0.8888888888888888,2,object_06,5,459,0,9,8,forest_15,2,memory-2step-stake-s,523,1450500,0.0-18.0-0.0-0.26,4192,3,4
27,2,object_04,object_08,1397.47,4,1,16.45499998,0.6666666666666666,2,object_06,5,489,0,6,6,forest_7,2,memory-2step-stake-s,524,1458370,0.0-18.0-0.0-0.27,4192,4,3
28,4,object_10,object_05,1409.36,8,2,46.23500002,0.4444444444444444,2,object_06,1,493,0,6,4,restaurant_2,2,memory-2step-stake-s,525,1466059,0.0-18.0-0.0-0.28,4192,7,8
29,3,object_09,object_07,675.175,5,1,882.525,0.4444444444444444,1,object_01,1,497,0,4,6,library_13,2,memory-2step-stake-s,526,1474586,0.0-18.0-0.0-0.29,4192,5,6
30,4,object_05,object_10,-1.0,-1,-1,-1.0,0.0,-,,1,497,0,6,1,restaurant_32,2,memory-2step-stake-s,527,1481108,0.0-18.0-0.0-0.30,4192,8,7
31,1,object_03,object_02,623.6,2,1,1191.29,0.0,2,object_06,5,497,0,3,0,desert_5,2,memory-2step-stake-s,528,1489530,0.0-18.0-0.0-0.31,4192,2,1
32,3,object_07,object_09,927.615,5,2,752.88,0.3333333333333333,1,object_01,5,512,0,3,2,library_14,2,memory-2step-stake-s,529,1497823,0.0-18.0-0.0-0.32,4192,6,5
33,3,object_07,object_09,629.91,5,2,635.6799999,0.2222222222222222,1,object_01,5,522,0,2,3,library_5,2,memory-2step-stake-s,530,1505898,0.0-18.0-0.0-0.33,4192,6,5
34,1,object_03,object_02,1492.365,1,2,646.945,0.2222222222222222,1,object_01,5,532,0,2,5,desert_29,2,memory-2step-stake-s,531,1513981,0.0-18.0-0.0-0.34,4192,2,1
35,2,object_08,object_04,1264.065,4,2,841.71,0.6666666666666666,2,object_06,5,562,0,4,6,forest_3,2,memory-2step-stake-s,532,1522673,0.0-18.0-0.0-0.35,4192,3,4
36,1,object_02,object_03,1307.63,2,2,199.515,0.5555555555555556,2,object_06,5,587,0,8,5,desert_22,2,memory-2step-stake-s,533,1530615,0.0-18.0-0.0-0.36,4192,1,2
37,1,object_03,object_02,850.87,1,2,269.525,0.5555555555555556,1,object_01,5,612,0,5,2,desert_29,2,memory-2step-stake-s,534,1538634,0.0-18.0-0.0-0.37,4192,2,1
38,3,object_07,object_09,697.405,6,1,1235.81,0.1111111111111111,2,object_06,1,613,0,4,1,library_5,2,memory-2step-stake-s,535,1547212,0.0-18.0-0.0-0.38,4192,6,5
39,4,object_05,object_10,740.33,7,2,923.905,0.4444444444444444,1,object_01,1,617,0,4,2,restaurant_16,2,memory-2step-stake-s,536,1555778,0.0-18.0-0.0-0.39,4192,8,7
40,3,object_07,object_09,391.65,6,1,336.375,0.1111111111111111,2,object_06,1,618,0,0,1,library_22,2,memory-2step-stake-s,537,1563449,0.0-18.0-0.0-0.40,4192,6,5
41,1,object_03,object_02,969.93,1,2,10.69000002,0.2222222222222222,1,object_01,5,628,0,2,2,desert_8,2,memory-2step-stake-s,538,1570904,0.0-18.0-0.0-0.41,4192,2,1
42,2,object_04,object_08,976.675,4,1,699.7,0.1111111111111111,2,object_06,5,633,0,5,1,forest_25,2,memory-2step-stake-s,539,1578942,0.0-18.0-0.0-0.42,4192,4,3
43,1,object_03,object_02,-1.0,-1,-1,-1.0,0.0,-,,5,633,0,8,0,desert_16,2,memory-2step-stake-s,540,1585466,0.0-18.0-0.0-0.43,4192,2,1
44,2,object_08,object_04,1157.815,3,1,99.01000001,0.7777777777777778,1,object_01,5,668,0,7,1,forest_2,2,memory-2step-stake-s,541,1593522,0.0-18.0-0.0-0.44,4192,3,4
45,1,object_03,object_02,1317.175,2,1,538.275,0.4444444444444444,2,object_06,5,688,0,7,4,desert_6,2,memory-2step-stake-s,542,1601706,0.0-18.0-0.0-0.45,4192,2,1
46,1,object_02,object_03,1037.375,1,1,93.21000002,0.4444444444444444,1,object_01,5,708,0,4,1,desert_6,2,memory-2step-stake-s,543,1609441,0.0-18.0-0.0-0.46,4192,1,2
47,3,object_07,object_09,961.63,5,2,815.235,0.3333333333333333,1,object_01,1,711,0,3,1,library_25,2,memory-2step-stake-s,544,1617802,0.0-18.0-0.0-0.47,4192,6,5
48,4,object_10,object_05,1208.175,7,1,180.415,0.2222222222222222,1,object_01,5,721,0,2,1,restaurant_22,2,memory-2step-stake-s,545,1625429,0.0-18.0-0.0-0.48,4192,7,8
49,4,object_05,object_10,1051.015,7,2,628.905,0.6666666666666666,1,object_01,1,727,0,6,3,restaurant_23,2,memory-2step-stake-s,546,1633906,0.0-18.0-0.0-0.49,4192,8,7
50,1,object_03,object_02,855.755,1,2,600.36,0.8888888888888888,1,object_01,5,767,0,8,8,desert_5,2,memory-2step-stake-s,547,1642561,0.0-18.0-0.0-0.50,4192,2,1
51,3,object_07,object_09,608.83,6,1,6.730000023,0.7777777777777778,2,object_06,1,774,0,5,7,library_11,2,memory-2step-stake-s,548,1650519,0.0-18.0-0.0-0.51,4192,6,5
52,2,object_08,object_04,746.445,3,1,870.98,0.4444444444444444,1,object_01,5,794,0,4,5,forest_20,2,memory-2step-stake-s,549,1659036,0.0-18.0-0.0-0.52,4192,3,4
53,4,object_05,object_10,846.46,7,2,179.12,0.7777777777777778,1,object_01,1,801,0,7,8,restaurant_16,2,memory-2step-stake-s,550,1667170,0.0-18.0-0.0-0.53,4192,8,7
54,4,object_05,object_10,618.67,7,2,696.28,0.8888888888888888,1,object_01,1,809,0,8,8,restaurant_14,2,memory-2step-stake-s,551,1675929,0.0-18.0-0.0-0.54,4192,8,7
55,4,object_10,object_05,564.845,7,1,-1.0,0.0,1,object_01,1,809,0,8,8,restaurant_4,2,memory-2step-stake-s,552,1684462,0.0-18.0-0.0-0.55,4192,7,8
56,2,object_08,object_04,694.34,3,1,307.465,0.8888888888888888,1,object_01,5,849,0,8,8,forest_13,2,memory-2step-stake-s,553,1692819,0.0-18.0-0.0-0.56,4192,3,4
57,3,object_09,object_07,636.16,6,2,289.3,0.7777777777777778,2,object_06,1,856,0,8,7,library_4,2,memory-2step-stake-s,554,1701062,0.0-18.0-0.0-0.57,4192,5,6
58,1,object_02,object_03,604.835,1,1,1149.785,0.8888888888888888,1,object_01,5,896,0,8,7,desert_8,2,memory-2step-stake-s,555,1710270,0.0-18.0-0.0-0.58,4192,1,2
59,1,object_03,object_02,991.105,1,2,506.69,1.0,1,object_01,5,941,0,9,6,desert_4,2,memory-2step-stake-s,556,1718937,0.0-18.0-0.0-0.59,4192,2,1
60,2,object_04,object_08,638.86,3,2,659.75,1.0,1,object_01,5,986,0,9,6,forest_3,2,memory-2step-stake-s,557,1727760,0.0-18.0-0.0-0.60,4192,4,3
61,3,object_09,object_07,533.77,6,2,251.205,0.4444444444444444,2,object_06,1,990,0,9,4,library_5,2,memory-2step-stake-s,558,1735654,0.0-18.0-0.0-0.61,4192,5,6
62,3,object_07,object_09,680.01,5,2,818.37,0.7777777777777778,1,object_01,1,997,0,7,3,library_15,2,memory-2step-stake-s,559,1744435,0.0-18.0-0.0-0.62,4192,6,5
63,2,object_04,object_08,720.24,3,2,240.445,0.7777777777777778,1,object_01,5,1032,0,7,7,forest_7,2,memory-2step-stake-s,560,1752635,0.0-18.0-0.0-0.63,4192,4,3
64,2,object_04,object_08,1084.545,4,1,581.71,0.4444444444444444,2,object_06,5,1052,0,5,4,forest_11,2,memory-2step-stake-s,561,1760859,0.0-18.0-0.0-0.64,4192,4,3
65,2,object_08,object_04,1248.725,3,1,477.06,0.6666666666666666,1,object_01,5,1082,0,6,8,forest_6,2,memory-2step-stake-s,562,1769184,0.0-18.0-0.0-0.65,4192,3,4
66,4,object_05,object_10,1392.03,7,2,-1.0,0.0,1,object_01,1,1082,0,8,7,restaurant_18,2,memory-2step-stake-s,563,1777714,0.0-18.0-0.0-0.66,4192,8,7
67,1,object_02,object_03,854.85,1,1,69.86500003,0.8888888888888888,1,object_01,5,1122,0,8,8,desert_9,2,memory-2step-stake-s,564,1785839,0.0-18.0-0.0-0.67,4192,1,2
68,1,object_03,object_02,690.17,1,2,253.34,0.8888888888888888,1,object_01,1,1130,0,8,6,desert_16,2,memory-2step-stake-s,565,1794142,0.0-18.0-0.0-0.68,4192,2,1
69,4,object_05,object_10,775.925,7,2,404.835,0.7777777777777778,1,object_01,5,1165,0,7,3,restaurant_23,2,memory-2step-stake-s,566,1802486,0.0-18.0-0.0-0.69,4192,8,7
70,3,object_07,object_09,891.58,5,2,179.8,0.0,1,object_01,1,1165,0,0,1,library_5,2,memory-2step-stake-s,567,1809900,0.0-18.0-0.0-0.70,4192,6,5
71,3,object_07,object_09,899.385,6,1,257.655,0.2222222222222222,2,object_06,1,1167,0,0,2,library_27,2,memory-2step-stake-s,568,1817593,0.0-18.0-0.0-0.71,4192,6,5
72,1,object_02,object_03,826.46,2,2,368.5,0.4444444444444444,2,object_06,5,1187,0,4,4,desert_22,2,memory-2step-stake-s,569,1825607,0.0-18.0-0.0-0.72,4192,1,2
73,4,object_10,object_05,768.375,8,2,352.79,0.5555555555555556,2,object_06,5,1212,0,5,5,restaurant_32,2,memory-2step-stake-s,570,1833699,0.0-18.0-0.0-0.73,4192,7,8
74,4,object_10,object_05,957.32,8,2,815.585,0.8888888888888888,2,object_06,1,1220,0,6,8,restaurant_22,2,memory-2step-stake-s,571,1842568,0.0-18.0-0.0-0.74,4192,7,8
75,4,object_10,object_05,1094.52,8,2,565.44,1.0,2,object_06,1,1229,0,6,9,restaurant_14,2,memory-2step-stake-s,572,1851284,0.0-18.0-0.0-0.75,4192,7,8
76,4,object_10,object_05,880.175,8,2,177.585,0.4444444444444444,2,object_06,1,1233,0,3,4,restaurant_3,2,memory-2step-stake-s,573,1859101,0.0-18.0-0.0-0.76,4192,7,8
77,1,object_02,object_03,1010.85,2,2,126.06,0.3333333333333333,2,object_06,5,1248,0,2,3,desert_19,2,memory-2step-stake-s,574,1866778,0.0-18.0-0.0-0.77,4192,1,2
78,1,object_03,object_02,944.91,1,2,831.05,0.3333333333333333,1,object_01,5,1263,0,3,7,desert_29,2,memory-2step-stake-s,575,1875152,0.0-18.0-0.0-0.78,4192,2,1
79,1,object_03,object_02,1044.91,1,2,245.185,0.4444444444444444,1,object_01,1,1267,0,4,8,desert_12,2,memory-2step-stake-s,576,1883039,0.0-18.0-0.0-0.79,4192,2,1
80,1,object_03,object_02,750.56,1,2,104.67,0.5555555555555556,1,object_01,5,1292,0,5,9,desert_10,2,memory-2step-stake-s,577,1890896,0.0-18.0-0.0-0.80,4192,2,1
81,1,object_03,object_02,732.465,1,2,718.355,0.7777777777777778,1,object_01,5,1327,0,7,6,desert_12,2,memory-2step-stake-s,578,1899566,0.0-18.0-0.0-0.81,4192,2,1
82,3,object_07,object_09,1027.39,5,2,640.55,0.4444444444444444,1,object_01,1,1331,0,4,6,library_1,2,memory-2step-stake-s,579,1907856,0.0-18.0-0.0-0.82,4192,6,5
83,3,object_07,object_09,970.94,6,1,195.38,0.6666666666666666,2,object_06,5,1361,0,4,6,library_21,2,memory-2step-stake-s,580,1915907,0.0-18.0-0.0-0.83,4192,6,5
84,3,object_07,object_09,1137.79,6,1,539.205,0.5555555555555556,2,object_06,1,1366,0,7,5,library_22,2,memory-2step-stake-s,581,1924201,0.0-18.0-0.0-0.84,4192,6,5
85,3,object_07,object_09,808.02,5,2,602.54,0.7777777777777778,1,object_01,5,1401,0,7,4,library_13,2,memory-2step-stake-s,582,1932770,0.0-18.0-0.0-0.85,4192,6,5
86,1,object_03,object_02,930.64,1,2,688.96,0.7777777777777778,1,object_01,5,1436,0,7,5,desert_10,2,memory-2step-stake-s,583,1941410,0.0-18.0-0.0-0.86,4192,2,1
87,1,object_02,object_03,662.09,1,1,-1.0,0.0,1,object_01,5,1436,0,7,8,desert_31,2,memory-2step-stake-s,584,1949937,0.0-18.0-0.0-0.87,4192,1,2
88,3,object_07,object_09,723.58,5,2,635.46,0.7777777777777778,1,object_01,5,1471,0,7,8,library_9,2,memory-2step-stake-s,585,1958530,0.0-18.0-0.0-0.88,4192,6,5
89,3,object_07,object_09,547.48,5,2,40.42999999,0.7777777777777778,1,object_01,1,1478,0,7,9,library_32,2,memory-2step-stake-s,586,1966519,0.0-18.0-0.0-0.89,4192,6,5
90,3,object_07,object_09,653.25,5,2,157.505,0.8888888888888888,1,object_01,1,1486,0,8,7,library_6,2,memory-2step-stake-s,587,1974736,0.0-18.0-0.0-0.90,4192,6,5
91,3,object_07,object_09,696.835,5,2,-1.0,0.0,1,object_01,1,1486,0,8,9,library_2,2,memory-2step-stake-s,588,1983269,0.0-18.0-0.0-0.91,4192,6,5
92,3,object_07,object_09,812.985,5,2,444.285,0.7777777777777778,1,object_01,1,1493,0,7,8,library_9,2,memory-2step-stake-s,589,1991669,0.0-18.0-0.0-0.92,4192,6,5
93,4,object_05,object_10,653.81,7,2,441.58,1.0,1,object_01,1,1502,0,9,7,restaurant_9,2,memory-2step-stake-s,590,2000257,0.0-18.0-0.0-0.93,4192,8,7
94,4,object_10,object_05,465.88,8,2,213.975,1.0,2,object_06,1,1511,0,9,9,restaurant_22,2,memory-2step-stake-s,591,2008623,0.0-18.0-0.0-0.94,4192,7,8
95,1,object_03,object_02,741.53,2,1,280.455,0.8888888888888888,2,object_06,5,1551,0,9,8,desert_4,2,memory-2step-stake-s,592,2016962,0.0-18.0-0.0-0.95,4192,2,1
96,3,object_07,object_09,828.185,5,2,701.58,0.8888888888888888,1,object_01,1,1559,0,8,8,library_27,2,memory-2step-stake-s,593,2025717,0.0-18.0-0.0-0.96,4192,6,5
97,1,object_03,object_02,802.705,2,1,344.13,1.0,2,object_06,5,1604,0,8,9,desert_5,2,memory-2step-stake-s,594,2034216,0.0-18.0-0.0-0.97,4192,2,1
98,2,object_08,object_04,697.09,4,2,440.915,0.7777777777777778,2,object_06,5,1639,0,7,7,forest_5,2,memory-2step-stake-s,595,2042603,0.0-18.0-0.0-0.98,4192,3,4
99,4,object_10,object_05,594.68,7,1,1177.01,0.7777777777777778,1,object_01,1,1646,0,7,6,restaurant_23,2,memory-2step-stake-s,596,2051750,0.0-18.0-0.0-0.99,4192,7,8
100,1,object_03,object_02,751.215,2,1,358.735,0.6666666666666666,2,object_06,1,1652,0,4,6,desert_21,2,memory-2step-stake-s,597,2059961,0.0-18.0-0.0-0.100,4192,2,1
101,1,object_02,object_03,601.33,2,2,199.725,0.4444444444444444,2,object_06,1,1656,0,3,4,desert_21,2,memory-2step-stake-s,598,2067806,0.0-18.0-0.0-0.101,4192,1,2
102,3,object_09,object_07,935.485,6,2,45.31999998,0.4444444444444444,2,object_06,5,1676,0,4,4,library_32,2,memory-2step-stake-s,599,2075490,0.0-18.0-0.0-0.102,4192,5,6
103,1,object_03,object_02,730.865,1,2,608.795,0.5555555555555556,1,object_01,5,1701,0,5,7,desert_6,2,memory-2step-stake-s,600,2083853,0.0-18.0-0.0-0.103,4192,2,1
104,2,object_08,object_04,1058.77,3,1,728.9,0.8888888888888888,1,object_01,1,1709,0,8,6,forest_2,2,memory-2step-stake-s,601,2092649,0.0-18.0-0.0-0.104,4192,3,4
105,2,object_04,object_08,848.4,3,2,855.995,1.0,1,object_01,5,1754,0,9,9,forest_14,2,memory-2step-stake-s,602,2101664,0.0-18.0-0.0-0.105,4192,4,3
106,1,object_02,object_03,984.46,1,1,222.8,1.0,1,object_01,5,1799,0,9,9,desert_6,2,memory-2step-stake-s,603,2110045,0.0-18.0-0.0-0.106,4192,1,2
107,3,object_09,object_07,973.07,5,1,96.395,1.0,1,object_01,1,1808,0,9,5,library_25,2,memory-2step-stake-s,604,2118310,0.0-18.0-0.0-0.107,4192,5,6
108,1,object_02,object_03,641.375,1,1,979.825,0.8888888888888888,1,object_01,5,1848,0,8,7,desert_16,2,memory-2step-stake-s,605,2127335,0.0-18.0-0.0-0.108,4192,1,2
109,4,object_05,object_10,1128.765,8,1,671.68,0.7777777777777778,2,object_06,1,1855,0,8,7,restaurant_2,2,memory-2step-stake-s,606,2135959,0.0-18.0-0.0-0.109,4192,8,7
110,1,object_03,object_02,936.72,1,2,730.47,0.7777777777777778,1,object_01,5,1890,0,7,9,desert_21,2,memory-2step-stake-s,607,2144653,0.0-18.0-0.0-0.110,4192,2,1
111,3,object_09,object_07,852.74,5,1,464.655,0.7777777777777778,1,object_01,1,1897,0,7,8,library_4,2,memory-2step-stake-s,608,2153063,0.0-18.0-0.0-0.111,4192,5,6
112,2,object_04,object_08,1183.645,3,2,-1.0,0.0,1,object_01,5,1897,0,7,8,forest_3,2,memory-2step-stake-s,609,2161586,0.0-18.0-0.0-0.112,4192,4,3
113,4,object_05,object_10,-1.0,-1,-1,-1.0,0.0,-,,1,1897,0,8,8,restaurant_19,2,memory-2step-stake-s,610,2168106,0.0-18.0-0.0-0.113,4192,8,7
114,1,object_03,object_02,693.73,1,2,237.755,1.0,1,object_01,1,1906,0,9,7,desert_20,2,memory-2step-stake-s,611,2176510,0.0-18.0-0.0-0.114,4192,2,1
115,1,object_03,object_02,666.09,1,2,1019.25,0.8888888888888888,1,object_01,5,1946,0,8,8,desert_4,2,memory-2step-stake-s,612,2185585,0.0-18.0-0.0-0.115,4192,2,1
116,1,object_03,object_02,668.67,1,2,86.09500004,0.8888888888888888,1,object_01,1,1954,0,8,6,desert_14,2,memory-2step-stake-s,613,2193729,0.0-18.0-0.0-0.116,4192,2,1
117,4,object_10,object_05,1089.175,7,1,455.195,0.5555555555555556,1,object_01,1,1959,0,5,7,restaurant_8,2,memory-2step-stake-s,614,2201923,0.0-18.0-0.0-0.117,4192,7,8
118,4,object_10,object_05,1080.35,8,2,137.36000009999998,0.6666666666666666,2,object_06,1,1965,0,5,6,restaurant_15,2,memory-2step-stake-s,615,2209895,0.0-18.0-0.0-0.118,4192,7,8
119,2,object_08,object_04,635.24,3,1,358.09,0.5555555555555556,1,object_01,5,1990,0,5,4,forest_26,2,memory-2step-stake-s,616,2218005,0.0-18.0-0.0-0.119,4192,3,4
120,2,object_04,object_08,606.605,3,2,97.84,0.7777777777777778,1,object_01,1,1997,0,7,4,forest_25,2,memory-2step-stake-s,617,2226055,0.0-18.0-0.0-0.120,4192,4,3
121,3,object_09,object_07,915.03,5,1,77.69499999,0.6666666666666666,1,object_01,1,2003,0,6,5,library_13,2,memory-2step-stake-s,618,2233984,0.0-18.0-0.0-0.121,4192,5,6
122,2,object_08,object_04,871.99,3,1,178.93,0.2222222222222222,1,object_01,5,2013,0,2,4,forest_20,2,memory-2step-stake-s,619,2241594,0.0-18.0-0.0-0.122,4192,3,4
123,2,object_04,object_08,843.29,4,1,4.550000012,0.5555555555555556,2,object_06,5,2038,0,1,5,forest_15,2,memory-2step-stake-s,620,2249353,0.0-18.0-0.0-0.123,4192,4,3
124,3,object_09,object_07,1428.505,6,2,907.32,0.3333333333333333,2,object_06,1,2041,0,0,3,library_1,2,memory-2step-stake-s,621,2257802,0.0-18.0-0.0-0.124,4192,5,6
125,4,object_05,object_10,1020.385,8,1,58.76500002,0.1111111111111111,2,object_06,1,2042,0,0,1,restaurant_3,2,memory-2step-stake-s,622,2265189,0.0-18.0-0.0-0.125,4192,8,7
126,4,object_10,object_05,1047.495,7,1,242.57,0.0,1,object_01,1,2042,0,0,3,restaurant_8,2,memory-2step-stake-s,623,2272659,0.0-18.0-0.0-0.126,4192,7,8
127,3,object_09,object_07,760.11,5,1,308.385,0.1111111111111111,1,object_01,1,2043,0,1,3,library_15,2,memory-2step-stake-s,624,2280286,0.0-18.0-0.0-0.127,4192,5,6
128,1,object_03,object_02,871.7,2,1,39.09000003,0.3333333333333333,2,object_06,1,2046,0,0,3,desert_19,2,memory-2step-stake-s,626,2889171,0.0-18.0-0.1-0.128,4192,2,1
129,1,object_03,object_02,990.81,1,2,110.3,0.3333333333333333,1,object_01,5,2061,0,3,1,desert_30,2,memory-2step-stake-s,627,2896827,0.0-18.0-0.1-0.129,4192,2,1
130,4,object_05,object_10,802.155,7,2,728.2,0.5555555555555556,1,object_01,1,2066,0,5,1,restaurant_15,2,memory-2step-stake-s,628,2905296,0.0-18.0-0.1-0.130,4192,8,7
131,1,object_03,object_02,589.86,1,2,760.005,0.7777777777777778,1,object_01,5,2101,0,7,3,desert_9,2,memory-2step-stake-s,629,2914021,0.0-18.0-0.1-0.131,4192,2,1
132,4,object_05,object_10,665.87,8,1,314.75,0.1111111111111111,2,object_06,1,2102,0,8,1,restaurant_19,2,memory-2step-stake-s,630,2921670,0.0-18.0-0.1-0.132,4192,8,7
133,1,object_02,object_03,920.455,2,2,-1.0,0.0,2,object_06,5,2102,0,6,3,desert_9,2,memory-2step-stake-s,631,2930196,0.0-18.0-0.1-0.133,4192,1,2
134,2,object_04,object_08,797.615,4,1,803.325,0.3333333333333333,2,object_06,1,2105,0,7,3,forest_7,2,memory-2step-stake-s,632,2938540,0.0-18.0-0.1-0.134,4192,4,3
135,1,object_03,object_02,661.255,1,2,759.34,0.5555555555555556,1,object_01,5,2130,0,5,1,desert_22,2,memory-2step-stake-s,633,2947049,0.0-18.0-0.1-0.135,4192,2,1
136,3,object_09,object_07,706.04,5,1,58.41499998,0.6666666666666666,1,object_01,1,2136,0,6,2,library_15,2,memory-2step-stake-s,634,2954962,0.0-18.0-0.1-0.136,4192,5,6
137,4,object_05,object_10,1192.69,7,2,341.93,0.6666666666666666,1,object_01,1,2142,0,6,1,restaurant_7,2,memory-2step-stake-s,635,2963158,0.0-18.0-0.1-0.137,4192,8,7
138,1,object_03,object_02,869.34,1,2,365.555,0.6666666666666666,1,object_01,1,2148,0,6,1,desert_12,2,memory-2step-stake-s,636,2971369,0.0-18.0-0.1-0.138,4192,2,1
139,2,object_08,object_04,968.58,3,1,752.59,0.7777777777777778,1,object_01,1,2155,0,7,5,forest_2,2,memory-2step-stake-s,637,2980071,0.0-18.0-0.1-0.139,4192,3,4
140,2,object_04,object_08,682.66,4,1,181.21,0.5555555555555556,2,object_06,5,2180,0,6,5,forest_20,2,memory-2step-stake-s,638,2987991,0.0-18.0-0.1-0.140,4192,4,3
141,4,object_10,object_05,922.09,8,2,14.89499997,0.3333333333333333,2,object_06,1,2183,0,6,3,restaurant_15,2,memory-2step-stake-s,639,2995541,0.0-18.0-0.1-0.141,4192,7,8
142,3,object_07,object_09,1016.78,6,1,198.05,0.4444444444444444,2,object_06,1,2187,0,2,4,library_9,2,memory-2step-stake-s,640,3003390,0.0-18.0-0.1-0.142,4192,6,5
143,3,object_09,object_07,783.88,5,1,126.17,0.0,1,object_01,1,2187,0,0,3,library_1,2,memory-2step-stake-s,641,3010741,0.0-18.0-0.1-0.143,4192,5,6
144,2,object_04,object_08,1069.07,3,2,379.83,0.1111111111111111,1,object_01,5,2192,0,1,1,forest_15,2,memory-2step-stake-s,642,3018459,0.0-18.0-0.1-0.144,4192,4,3
145,4,object_10,object_05,905.655,8,2,537.835,0.2222222222222222,2,object_06,1,2194,0,0,2,restaurant_19,2,memory-2step-stake-s,643,3026435,0.0-18.0-0.1-0.145,4192,7,8
146,2,object_08,object_04,1499.835,4,2,618.85,0.2222222222222222,2,object_06,5,2204,0,1,2,forest_26,2,memory-2step-stake-s,644,3034491,0.0-18.0-0.1-0.146,4192,3,4
147,2,object_04,object_08,914.455,4,1,69.24500002,0.3333333333333333,2,object_06,1,2207,0,3,3,forest_13,2,memory-2step-stake-s,645,3042097,0.0-18.0-0.1-0.147,4192,4,3
148,2,object_08,object_04,682.68,4,2,104.03,0.3333333333333333,2,object_06,5,2222,0,3,3,forest_11,2,memory-2step-stake-s,646,3049742,0.0-18.0-0.1-0.148,4192,3,4
149,1,object_02,object_03,567.44,1,1,110.385,0.5555555555555556,1,object_01,1,2227,0,5,2,desert_21,2,memory-2step-stake-s,647,3057601,0.0-18.0-0.1-0.149,4192,1,2
150,3,object_09,object_07,1090.625,5,1,414.285,0.6666666666666666,1,object_01,1,2233,0,6,5,library_21,2,memory-2step-stake-s,648,3065868,0.0-18.0-0.1-0.150,4192,5,6
151,1,object_03,object_02,858.655,1,2,8.824999968,0.6666666666666666,1,object_01,5,2263,0,6,7,desert_19,2,memory-2step-stake-s,649,3073724,0.0-18.0-0.1-0.151,4192,2,1
152,4,object_05,object_10,845.57,8,1,261.885,0.4444444444444444,2,object_06,1,2267,0,7,4,restaurant_21,2,memory-2step-stake-s,650,3081624,0.0-18.0-0.1-0.152,4192,8,7
153,3,object_09,object_07,699.43,5,1,298.875,0.8888888888888888,1,object_01,1,2275,0,8,5,library_29,2,memory-2step-stake-s,651,3089975,0.0-18.0-0.1-0.153,4192,5,6
154,2,object_04,object_08,849.105,3,2,132.355,0.6666666666666666,1,object_01,5,2305,0,6,3,forest_3,2,memory-2step-stake-s,652,3097975,0.0-18.0-0.1-0.154,4192,4,3
155,3,object_07,object_09,880.18,5,2,214.92,0.6666666666666666,1,object_01,5,2335,0,6,7,library_1,2,memory-2step-stake-s,653,3106042,0.0-18.0-0.1-0.155,4192,6,5
156,4,object_10,object_05,642.32,7,1,225.56,0.6666666666666666,1,object_01,1,2341,0,6,9,restaurant_8,2,memory-2step-stake-s,654,3114115,0.0-18.0-0.1-0.156,4192,7,8
157,1,object_03,object_02,605.91,1,2,15.52000002,0.2222222222222222,1,object_01,5,2351,0,2,7,desert_30,2,memory-2step-stake-s,655,3121575,0.0-18.0-0.1-0.157,4192,2,1
158,2,object_08,object_04,741.56,3,1,867.08,0.2222222222222222,1,object_01,1,2353,0,2,7,forest_25,2,memory-2step-stake-s,656,3129880,0.0-18.0-0.1-0.158,4192,3,4
159,3,object_07,object_09,872.78,5,2,34.92499999,0.1111111111111111,1,object_01,5,2358,0,1,4,library_2,2,memory-2step-stake-s,657,3137254,0.0-18.0-0.1-0.159,4192,6,5
160,3,object_07,object_09,818.585,6,1,279.825,0.6666666666666666,2,object_06,1,2364,0,5,6,library_29,2,memory-2step-stake-s,658,3145393,0.0-18.0-0.1-0.160,4192,6,5
161,4,object_10,object_05,726.785,8,2,284.475,0.3333333333333333,2,object_06,5,2379,0,5,3,restaurant_22,2,memory-2step-stake-s,659,3153218,0.0-18.0-0.1-0.161,4192,7,8
162,2,object_04,object_08,862.03,3,2,-1.0,0.0,1,object_01,5,2379,0,5,0,forest_14,2,memory-2step-stake-s,660,3161751,0.0-18.0-0.1-0.162,4192,4,3
163,1,object_02,object_03,1112.32,1,1,151.12,0.6666666666666666,1,object_01,1,2385,0,6,2,desert_9,2,memory-2step-stake-s,661,3169752,0.0-18.0-0.1-0.163,4192,1,2
164,4,object_10,object_05,649.69,7,1,143.595,0.8888888888888888,1,object_01,5,2425,0,8,5,restaurant_32,2,memory-2step-stake-s,662,3177953,0.0-18.0-0.1-0.164,4192,7,8
165,4,object_10,object_05,662.075,7,1,89.73000001,0.7777777777777778,1,object_01,1,2432,0,7,2,restaurant_32,2,memory-2step-stake-s,663,3185983,0.0-18.0-0.1-0.165,4192,7,8
166,2,object_08,object_04,715.67,3,1,69.19000001,0.7777777777777778,1,object_01,5,2467,0,7,2,forest_29,2,memory-2step-stake-s,664,3194018,0.0-18.0-0.1-0.166,4192,3,4
167,2,object_08,object_04,623.63,3,1,303.31,0.6666666666666666,1,object_01,5,2497,0,6,4,forest_24,2,memory-2step-stake-s,665,3202167,0.0-18.0-0.1-0.167,4192,3,4
168,2,object_04,object_08,781.05,3,2,214.86,0.8888888888888888,1,object_01,5,2537,0,8,4,forest_29,2,memory-2step-stake-s,666,3210436,0.0-18.0-0.1-0.168,4192,4,3
169,4,object_05,object_10,1040.455,8,1,937.59,0.3333333333333333,2,object_06,5,2552,0,8,3,restaurant_16,2,memory-2step-stake-s,667,3218922,0.0-18.0-0.1-0.169,4192,8,7
170,2,object_04,object_08,747.655,3,2,778.625,0.5555555555555556,1,object_01,5,2577,0,5,3,forest_14,2,memory-2step-stake-s,668,3227454,0.0-18.0-0.1-0.170,4192,4,3
171,4,object_10,object_05,311.285,8,2,76.18999999,0.1111111111111111,2,object_06,5,2582,0,7,1,restaurant_7,2,memory-2step-stake-s,669,3234874,0.0-18.0-0.1-0.171,4192,7,8
172,2,object_08,object_04,614.975,3,1,169.41,0.5555555555555556,1,object_01,5,2607,0,5,1,forest_26,2,memory-2step-stake-s,670,3242781,0.0-18.0-0.1-0.172,4192,3,4
173,3,object_07,object_09,797.47,5,2,660.255,0.5555555555555556,1,object_01,1,2612,0,5,2,library_25,2,memory-2step-stake-s,671,3251185,0.0-18.0-0.1-0.173,4192,6,5
174,3,object_07,object_09,487.13,6,1,791.96,0.2222222222222222,2,object_06,1,2614,0,3,2,library_32,2,memory-2step-stake-s,672,3259410,0.0-18.0-0.1-0.174,4192,6,5
175,4,object_05,object_10,370.21,7,2,64.19500004,0.6666666666666666,1,object_01,1,2620,0,6,3,restaurant_3,2,memory-2step-stake-s,673,3267326,0.0-18.0-0.1-0.175,4192,8,7
176,2,object_08,object_04,185.48,4,2,12.63499999,0.3333333333333333,2,object_06,5,2635,0,5,3,forest_5,2,memory-2step-stake-s,674,3274883,0.0-18.0-0.1-0.176,4192,3,4
177,3,object_07,object_09,1382.405,5,2,1494.255,0.3333333333333333,1,object_01,1,2638,0,3,2,library_6,2,memory-2step-stake-s,675,3283915,0.0-18.0-0.1-0.177,4192,6,5
178,1,object_03,object_02,690.975,2,1,647.42,0.3333333333333333,2,object_06,5,2653,0,1,3,desert_14,2,memory-2step-stake-s,676,3292103,0.0-18.0-0.1-0.178,4192,2,1
179,1,object_02,object_03,472.36,2,2,-1.0,0.0,2,object_06,5,2653,0,3,0,desert_14,2,memory-2step-stake-s,677,3300634,0.0-18.0-0.1-0.179,4192,1,2
180,3,object_07,object_09,13.73999997,6,1,694.77,0.0,2,object_06,1,2653,0,3,0,library_15,2,memory-2step-stake-s,678,3308554,0.0-18.0-0.1-0.180,4192,6,5
181,4,object_05,object_10,724.075,7,2,1114.59,0.4444444444444444,1,object_01,1,2657,0,4,3,restaurant_7,2,memory-2step-stake-s,679,3317320,0.0-18.0-0.1-0.181,4192,8,7
182,4,object_05,object_10,654.0,8,1,264.895,0.2222222222222222,2,object_06,1,2659,0,4,2,restaurant_9,2,memory-2step-stake-s,680,3325014,0.0-18.0-0.1-0.182,4192,8,7
183,2,object_08,object_04,23.63499999,3,1,616.045,0.5555555555555556,1,object_01,5,2684,0,5,2,forest_13,2,memory-2step-stake-s,681,3333381,0.0-18.0-0.1-0.183,4192,3,4
184,4,object_10,object_05,595.67,8,2,112.94,0.3333333333333333,2,object_06,1,2687,0,7,3,restaurant_4,2,memory-2step-stake-s,682,3341040,0.0-18.0-0.1-0.184,4192,7,8
185,3,object_09,object_07,679.96,5,1,446.265,0.8888888888888888,1,object_01,1,2695,0,8,0,library_13,2,memory-2step-stake-s,683,3349557,0.0-18.0-0.1-0.185,4192,5,6
186,2,object_08,object_04,836.71,3,1,251.01,0.8888888888888888,1,object_01,5,2735,0,8,3,forest_20,2,memory-2step-stake-s,684,3357867,0.0-18.0-0.1-0.186,4192,3,4
187,4,object_10,object_05,1389.765,7,1,502.0,0.4444444444444444,1,object_01,1,2739,0,4,4,restaurant_15,2,memory-2step-stake-s,685,3366014,0.0-18.0-0.1-0.187,4192,7,8
188,4,object_10,object_05,908.305,8,2,41.68999998,0.5555555555555556,2,object_06,1,2744,0,4,5,restaurant_23,2,memory-2step-stake-s,686,3373801,0.0-18.0-0.1-0.188,4192,7,8
189,2,object_04,object_08,896.47,3,2,85.94999998,0.1111111111111111,1,object_01,1,2745,0,1,5,forest_29,2,memory-2step-stake-s,687,3381222,0.0-18.0-0.1-0.189,4192,4,3
190,2,object_08,object_04,1107.88,4,2,131.13,0.4444444444444444,2,object_06,1,2749,0,1,4,forest_25,2,memory-2step-stake-s,688,3388995,0.0-18.0-0.1-0.190,4192,3,4
191,1,object_03,object_02,-1.0,-1,-1,-1.0,0.0,-,,1,2749,0,2,5,desert_31,2,memory-2step-stake-s,689,3395512,0.0-18.0-0.1-0.191,4192,2,1
192,3,object_07,object_09,960.605,6,1,153.4,0.7777777777777778,2,object_06,1,2756,0,3,7,library_6,2,memory-2step-stake-s,690,3403613,0.0-18.0-0.1-0.192,4192,6,5
193,1,object_03,object_02,785.145,2,1,901.115,0.7777777777777778,2,object_06,5,2791,0,5,7,desert_20,2,memory-2step-stake-s,691,3412471,0.0-18.0-0.1-0.193,4192,2,1
194,2,object_04,object_08,1022.51,4,1,182.265,1.0,2,object_06,5,2836,0,4,9,forest_13,2,memory-2step-stake-s,692,3420821,0.0-18.0-0.1-0.194,4192,4,3
195,1,object_02,object_03,1293.545,2,2,50.09999999,1.0,2,object_06,5,2881,0,6,9,desert_10,2,memory-2step-stake-s,693,3429023,0.0-18.0-0.1-0.195,4192,1,2
196,2,object_08,object_04,1244.19,4,2,64.00000001,1.0,2,object_06,5,2926,0,6,9,forest_12,2,memory-2step-stake-s,694,3437244,0.0-18.0-0.1-0.196,4192,3,4
197,3,object_07,object_09,1204.21,6,1,123.2,0.7777777777777778,2,object_06,1,2933,0,2,7,library_11,2,memory-2step-stake-s,695,3445320,0.0-18.0-0.1-0.197,4192,6,5
198,2,object_08,object_04,909.615,4,2,309.69,0.7777777777777778,2,object_06,5,2968,0,1,7,forest_2,2,memory-2step-stake-s,696,3453591,0.0-18.0-0.1-0.198,4192,3,4
199,1,object_03,object_02,1012.795,1,2,3.070000035,0.2222222222222222,1,object_01,1,2970,0,2,8,desert_19,2,memory-2step-stake-s,697,3461025,0.0-18.0-0.1-0.199,4192,2,1
200,1,object_02,object_03,713.535,2,2,320.7,0.5555555555555556,2,object_06,5,2995,0,0,5,desert_20,2,memory-2step-stake-s,698,3469089,0.0-18.0-0.1-0.200,4192,1,2
201,4,object_10,object_05,-1.0,-1,-1,-1.0,0.0,-,,1,2995,0,3,7,restaurant_14,2,memory-2step-stake-s,699,3475609,0.0-18.0-0.1-0.201,4192,7,8
202,1,object_03,object_02,755.09,2,1,12.09999999,0.7777777777777778,2,object_06,1,3002,0,1,7,desert_31,2,memory-2step-stake-s,700,3483576,0.0-18.0-0.1-0.202,4192,2,1
203,3,object_09,object_07,1068.0,6,2,425.24,0.7777777777777778,2,object_06,1,3009,0,1,7,library_22,2,memory-2step-stake-s,701,3491967,0.0-18.0-0.1-0.203,4192,5,6
204,2,object_04,object_08,847.54,4,1,773.675,0.7777777777777778,2,object_06,5,3044,0,3,7,forest_17,2,memory-2step-stake-s,702,3500687,0.0-18.0-0.1-0.204,4192,4,3
205,4,object_05,object_10,892.62,8,1,195.305,0.8888888888888888,2,object_06,1,3052,0,3,8,restaurant_16,2,memory-2step-stake-s,703,3508943,0.0-18.0-0.1-0.205,4192,8,7
206,3,object_07,object_09,784.605,6,1,714.04,0.5555555555555556,2,object_06,1,3057,0,0,5,library_4,2,memory-2step-stake-s,704,3517406,0.0-18.0-0.1-0.206,4192,6,5
207,1,object_03,object_02,852.905,2,1,195.545,0.6666666666666666,2,object_06,5,3087,0,2,6,desert_4,2,memory-2step-stake-s,705,3525446,0.0-18.0-0.1-0.207,4192,2,1
208,2,object_08,object_04,967.46,4,2,38.93000004,1.0,2,object_06,5,3132,0,4,9,forest_24,2,memory-2step-stake-s,706,3533655,0.0-18.0-0.1-0.208,4192,3,4
209,2,object_04,object_08,959.735,4,1,650.005,0.6666666666666666,2,object_06,5,3162,0,5,6,forest_12,2,memory-2step-stake-s,707,3542163,0.0-18.0-0.1-0.209,4192,4,3
210,1,object_03,object_02,904.705,2,1,87.47000003,0.5555555555555556,2,object_06,5,3187,0,3,5,desert_31,2,memory-2step-stake-s,708,3549995,0.0-18.0-0.1-0.210,4192,2,1
211,2,object_04,object_08,884.475,4,1,420.575,0.7777777777777778,2,object_06,5,3222,0,1,7,forest_6,2,memory-2step-stake-s,709,3558382,0.0-18.0-0.1-0.211,4192,4,3
212,4,object_10,object_05,827.555,8,2,206.225,0.6666666666666666,2,object_06,1,3228,0,1,6,restaurant_21,2,memory-2step-stake-s,710,3566441,0.0-18.0-0.1-0.212,4192,7,8
213,2,object_04,object_08,914.945,4,1,29.16999999,0.8888888888888888,2,object_06,5,3268,0,1,8,forest_26,2,memory-2step-stake-s,711,3574517,0.0-18.0-0.1-0.213,4192,4,3
214,4,object_10,object_05,998.74,8,2,71.55000005,0.7777777777777778,2,object_06,1,3275,0,1,7,restaurant_2,2,memory-2step-stake-s,712,3582555,0.0-18.0-0.1-0.214,4192,7,8
215,2,object_04,object_08,763.305,4,1,-1.0,0.0,2,object_06,5,3275,0,0,5,forest_5,2,memory-2step-stake-s,713,3591081,0.0-18.0-0.1-0.215,4192,4,3
216,2,object_04,object_08,185.12,3,2,203.305,0.0,1,object_01,5,3275,0,0,7,forest_17,2,memory-2step-stake-s,714,3598505,0.0-18.0-0.1-0.216,4192,4,3
217,3,object_07,object_09,961.545,6,1,315.045,0.7777777777777778,2,object_06,5,3310,0,4,7,library_27,2,memory-2step-stake-s,715,3606776,0.0-18.0-0.1-0.217,4192,6,5
218,1,object_02,object_03,713.975,2,2,347.95,0.7777777777777778,2,object_06,5,3345,0,4,7,desert_8,2,memory-2step-stake-s,716,3615070,0.0-18.0-0.1-0.218,4192,1,2
219,1,object_02,object_03,536.13,2,2,194.55,0.8888888888888888,2,object_06,5,3385,0,2,8,desert_30,2,memory-2step-stake-s,717,3623319,0.0-18.0-0.1-0.219,4192,1,2
220,3,object_07,object_09,1010.03,6,1,82.77000004,0.7777777777777778,2,object_06,1,3392,0,2,7,library_4,2,memory-2step-stake-s,718,3631351,0.0-18.0-0.1-0.220,4192,6,5
221,2,object_08,object_04,1155.255,4,2,288.905,1.0,2,object_06,1,3401,0,4,9,forest_29,2,memory-2step-stake-s,719,3639805,0.0-18.0-0.1-0.221,4192,3,4
222,3,object_07,object_09,1213.74,6,1,254.525,0.7777777777777778,2,object_06,1,3408,0,4,7,library_21,2,memory-2step-stake-s,720,3648010,0.0-18.0-0.1-0.222,4192,6,5
223,2,object_08,object_04,876.035,4,2,217.02,0.5555555555555556,2,object_06,5,3433,0,4,5,forest_17,2,memory-2step-stake-s,721,3655978,0.0-18.0-0.1-0.223,4192,3,4
224,2,object_04,object_08,797.23,4,1,194.7,0.6666666666666666,2,object_06,5,3463,0,6,6,forest_11,2,memory-2step-stake-s,722,3664025,0.0-18.0-0.1-0.224,4192,4,3
225,1,object_02,object_03,832.99,2,2,305.545,1.0,2,object_06,5,3508,0,5,9,desert_10,2,memory-2step-stake-s,723,3672491,0.0-18.0-0.1-0.225,4192,1,2
226,3,object_07,object_09,865.535,6,1,210.365,1.0,2,object_06,1,3517,0,5,9,library_14,2,memory-2step-stake-s,724,3680846,0.0-18.0-0.1-0.226,4192,6,5
227,2,object_04,object_08,778.645,4,1,850.745,0.8888888888888888,2,object_06,1,3525,0,2,8,forest_24,2,memory-2step-stake-s,725,3689747,0.0-18.0-0.1-0.227,4192,4,3
228,2,object_08,object_04,595.475,4,2,673.59,1.0,2,object_06,5,3570,0,3,9,forest_15,2,memory-2step-stake-s,726,3698584,0.0-18.0-0.1-0.228,4192,3,4
229,1,object_03,object_02,812.395,2,1,42.62999998,0.6666666666666666,2,object_06,5,3600,0,3,6,desert_22,2,memory-2step-stake-s,727,3706487,0.0-18.0-0.1-0.229,4192,2,1
230,4,object_05,object_10,1086.46,8,1,308.68,0.4444444444444444,2,object_06,1,3604,0,6,4,restaurant_21,2,memory-2step-stake-s,728,3714442,0.0-18.0-0.1-0.230,4192,8,7
231,4,object_05,object_10,1146.72,7,2,158.425,0.5555555555555556,1,object_01,1,3609,0,5,2,restaurant_10,2,memory-2step-stake-s,729,3722358,0.0-18.0-0.1-0.231,4192,8,7
232,3,object_09,object_07,1137.695,5,1,557.33,0.6666666666666666,1,object_01,1,3615,0,6,1,library_32,2,memory-2step-stake-s,730,3730761,0.0-18.0-0.1-0.232,4192,5,6
233,4,object_05,object_10,1234.775,7,2,549.575,0.5555555555555556,1,object_01,1,3620,0,5,0,restaurant_4,2,memory-2step-stake-s,731,3739065,0.0-18.0-0.1-0.233,4192,8,7
234,4,object_10,object_05,830.51,7,1,-1.0,0.0,1,object_01,1,3620,0,8,2,restaurant_9,2,memory-2step-stake-s,732,3747596,0.0-18.0-0.1-0.234,4192,7,8
235,2,object_08,object_04,1043.035,3,1,77.53000001,0.8888888888888888,1,object_01,5,3660,0,8,3,forest_6,2,memory-2step-stake-s,733,3755741,0.0-18.0-0.1-0.235,4192,3,4
236,1,object_03,object_02,773.82,1,2,85.46000003,0.6666666666666666,1,object_01,5,3690,0,6,4,desert_30,2,memory-2step-stake-s,734,3763669,0.0-18.0-0.1-0.236,4192,2,1
237,4,object_10,object_05,626.27,7,1,57.76500003,0.5555555555555556,1,object_01,1,3695,0,5,8,restaurant_10,2,memory-2step-stake-s,735,3771473,0.0-18.0-0.1-0.237,4192,7,8
238,4,object_05,object_10,779.585,7,2,162.175,0.1111111111111111,1,object_01,1,3696,0,1,5,restaurant_19,2,memory-2step-stake-s,736,3778969,0.0-18.0-0.1-0.238,4192,8,7
239,4,object_05,object_10,729.575,8,1,535.21,0.5555555555555556,2,object_06,5,3721,0,1,5,restaurant_10,2,memory-2step-stake-s,737,3787253,0.0-18.0-0.1-0.239,4192,8,7
240,2,object_08,object_04,1302.19,3,1,365.69,0.1111111111111111,1,object_01,5,3726,0,1,5,forest_17,2,memory-2step-stake-s,738,3794953,0.0-18.0-0.1-0.240,4192,3,4
241,3,object_07,object_09,1087.27,6,1,102.56,0.5555555555555556,2,object_06,1,3731,0,0,5,library_25,2,memory-2step-stake-s,739,3802800,0.0-18.0-0.1-0.241,4192,6,5
242,3,object_07,object_09,833.61,6,1,192.01,0.8888888888888888,2,object_06,5,3771,0,3,8,library_22,2,memory-2step-stake-s,740,3811061,0.0-18.0-0.1-0.242,4192,6,5
243,3,object_07,object_09,648.8,6,1,714.105,1.0,2,object_06,1,3780,0,2,9,library_27,2,memory-2step-stake-s,741,3819948,0.0-18.0-0.1-0.243,4192,6,5
244,1,object_03,object_02,1046.015,2,1,788.31,1.0,2,object_06,5,3825,0,3,9,desert_20,2,memory-2step-stake-s,742,3828910,0.0-18.0-0.1-0.244,4192,2,1
245,4,object_10,object_05,1125.86,8,2,129.915,0.8888888888888888,2,object_06,1,3833,0,4,8,restaurant_10,2,memory-2step-stake-s,743,3837105,0.0-18.0-0.1-0.245,4192,7,8
246,4,object_05,object_10,828.615,8,1,220.935,0.8888888888888888,2,object_06,1,3841,0,3,8,restaurant_14,2,memory-2step-stake-s,744,3845382,0.0-18.0-0.1-0.246,4192,8,7
247,3,object_09,object_07,953.51,6,2,212.275,0.8888888888888888,2,object_06,1,3849,0,2,8,library_21,2,memory-2step-stake-s,745,3853649,0.0-18.0-0.1-0.247,4192,5,6
248,4,object_10,object_05,978.99,8,2,153.965,0.6666666666666666,2,object_06,1,3855,0,1,6,restaurant_4,2,memory-2step-stake-s,746,3861649,0.0-18.0-0.1-0.248,4192,7,8
249,4,object_05,object_10,926.52,8,1,123.94,0.7777777777777778,2,object_06,1,3862,0,2,7,restaurant_18,2,memory-2step-stake-s,747,3869723,0.0-18.0-0.1-0.249,4192,8,7
250,1,object_03,object_02,742.775,2,1,14.32500005,0.8888888888888888,2,object_06,5,3902,0,1,8,desert_29,2,memory-2step-stake-s,748,3877796,0.0-18.0-0.1-0.250,4192,2,1
251,4,object_05,object_10,606.375,8,1,347.28,0.7777777777777778,2,object_06,1,3909,0,0,7,restaurant_2,2,memory-2step-stake-s,749,3886096,0.0-18.0-0.1-0.251,4192,8,7
252,2,object_04,object_08,690.575,4,1,25.555,0.7777777777777778,2,object_06,5,3944,0,1,7,forest_11,2,memory-2step-stake-s,750,3894075,0.0-18.0-0.1-0.252,4192,4,3
253,1,object_02,object_03,636.48,2,2,208.11,0.4444444444444444,2,object_06,5,3964,0,2,4,desert_16,2,memory-2step-stake-s,751,3901929,0.0-18.0-0.1-0.253,4192,1,2
254,1,object_02,object_03,639.405,1,1,63.69499996,0.2222222222222222,1,object_01,5,3974,0,2,5,desert_8,2,memory-2step-stake-s,752,3909430,0.0-18.0-0.1-0.254,4192,1,2
255,2,object_04,object_08,628.19,4,1,181.735,0.6666666666666666,2,object_06,5,4004,0,1,6,forest_12,2,memory-2step-stake-s,753,3917473,0.0-18.0-0.1-0.255,4192,4,3
