,state1,stim_left,stim_right,rt_1,choice1,response1,rt_2,points,state2,stim_state2,stake,score,practice,rews1,rews2,background,high_arm,trial_type,trial_index,time_elapsed,internal_node_id,subid,stim_left_num,stim_right_num
0,1,object_02,object_03,-1.0,-1,-1,-1.0,0.0,-,,1,0,0,9,2,desert_31,1,memory-2step-stake-s,490,1105915,0.0-18.0-0.0-0.0,326,2,1
1,3,object_06,object_09,668.0,5,2,-1.0,0.0,1,object_05,5,0,0,8,3,library_4,1,memory-2step-stake-s,491,1114525,0.0-18.0-0.0-0.1,326,6,5
2,4,object_07,object_10,842.0,8,1,-1.0,0.0,2,object_01,5,0,0,8,5,restaurant_13,1,memory-2step-stake-s,492,1123134,0.0-18.0-0.0-0.2,326,8,7
3,2,object_08,object_04,1437.0,4,2,-1.0,0.0,2,object_01,1,0,0,6,5,forest_30,1,memory-2step-stake-s,493,1131734,0.0-18.0-0.0-0.3,326,3,4
4,2,object_08,object_04,-1.0,-1,-1,-1.0,0.0,-,,1,0,0,5,5,forest_5,1,memory-2step-stake-s,494,1138354,0.0-18.0-0.0-0.4,326,3,4
5,2,object_04,object_08,766.0,4,1,-1.0,0.0,2,object_01,1,0,0,4,5,forest_23,1,memory-2step-stake-s,495,1146944,0.0-18.0-0.0-0.5,326,4,3
6,3,object_06,object_09,702.0,5,2,-1.0,0.0,1,object_05,1,0,0,4,4,library_2,1,memory-2step-stake-s,496,1155545,0.0-18.0-0.0-0.6,326,6,5
7,1,object_03,object_02,695.0,1,1,913.0,0.2222222222222222,1,object_05,5,10,0,2,8,desert_28,1,memory-2step-stake-s,497,1164004,0.0-18.0-0.0-0.7,326,1,2
8,2,object_04,object_08,398.0,3,2,422.0,0.5555555555555556,1,object_05,1,15,0,5,6,forest_18,1,memory-2step-stake-s,498,1172366,0.0-18.0-0.0-0.8,326,4,3
9,4,object_07,object_10,357.0,8,1,500.0,0.3333333333333333,2,object_01,5,30,0,6,3,restaurant_13,1,memory-2step-stake-s,499,1180564,0.0-18.0-0.0-0.9,326,8,7
10,3,object_06,object_09,478.0,5,2,397.0,0.7777777777777778,1,object_05,1,37,0,7,5,library_12,1,memory-2step-stake-s,500,1189085,0.0-18.0-0.0-0.10,326,6,5
11,1,object_02,object_03,581.0,2,1,500.0,0.4444444444444444,2,object_01,5,57,0,8,4,desert_18,1,memory-2step-stake-s,501,1197383,0.0-18.0-0.0-0.11,326,2,1
12,4,object_07,object_10,537.0,7,2,569.0,0.7777777777777778,1,object_05,5,92,0,7,2,restaurant_14,1,memory-2step-stake-s,502,1206073,0.0-18.0-0.0-0.12,326,8,7
13,3,object_09,object_06,375.0,5,1,388.0,0.4444444444444444,1,object_05,5,112,0,4,1,library_31,1,memory-2step-stake-s,503,1214244,0.0-18.0-0.0-0.13,326,5,6
14,3,object_06,object_09,541.0,5,2,541.0,0.1111111111111111,1,object_05,5,117,0,1,4,library_26,1,memory-2step-stake-s,504,1222253,0.0-18.0-0.0-0.14,326,6,5
15,1,object_03,object_02,357.0,1,1,476.0,0.0,1,object_05,1,117,0,0,9,desert_21,1,memory-2step-stake-s,505,1230033,0.0-18.0-0.0-0.15,326,1,2
16,1,object_02,object_03,1179.0,1,2,493.0,0.3333333333333333,1,object_05,1,120,0,3,6,desert_19,1,memory-2step-stake-s,506,1238194,0.0-18.0-0.0-0.16,326,2,1
17,1,object_02,object_03,743.0,2,1,509.0,0.4444444444444444,2,object_01,1,124,0,4,4,desert_18,1,memory-2step-stake-s,507,1246473,0.0-18.0-0.0-0.17,326,2,1
18,4,object_07,object_10,1467.0,8,1,876.0,0.7777777777777778,2,object_01,5,159,0,3,7,restaurant_13,1,memory-2step-stake-s,508,1255494,0.0-18.0-0.0-0.18,326,8,7
19,1,object_03,object_02,1018.0,1,1,1074.0,0.3333333333333333,1,object_05,1,162,0,3,8,desert_23,1,memory-2step-stake-s,509,1264264,0.0-18.0-0.0-0.19,326,1,2
20,3,object_06,object_09,1311.0,6,1,456.0,1.0,2,object_01,5,207,0,1,9,library_4,1,memory-2step-stake-s,510,1273113,0.0-18.0-0.0-0.20,326,6,5
21,3,object_06,object_09,514.0,5,2,384.0,0.2222222222222222,1,object_05,5,217,0,2,8,library_15,1,memory-2step-stake-s,511,1281044,0.0-18.0-0.0-0.21,326,6,5
22,1,object_02,object_03,1099.0,2,1,594.0,1.0,2,object_01,1,226,0,1,9,desert_14,1,memory-2step-stake-s,512,1290013,0.0-18.0-0.0-0.22,326,2,1
23,3,object_06,object_09,1087.0,6,1,528.0,1.0,2,object_01,5,271,0,1,9,library_22,1,memory-2step-stake-s,513,1298933,0.0-18.0-0.0-0.23,326,6,5
24,3,object_09,object_06,1026.0,5,1,448.0,0.1111111111111111,1,object_05,1,272,0,1,7,library_1,1,memory-2step-stake-s,514,1306774,0.0-18.0-0.0-0.24,326,5,6
25,3,object_09,object_06,943.0,5,1,424.0,0.0,1,object_05,1,272,0,0,6,library_22,1,memory-2step-stake-s,515,1314493,0.0-18.0-0.0-0.25,326,5,6
26,2,object_08,object_04,739.0,4,2,1000.0,0.8888888888888888,2,object_01,1,280,0,1,8,forest_19,1,memory-2step-stake-s,516,1323763,0.0-18.0-0.0-0.26,326,3,4
27,2,object_08,object_04,878.0,3,1,603.0,0.0,1,object_05,1,280,0,0,6,forest_1,1,memory-2step-stake-s,517,1331654,0.0-18.0-0.0-0.27,326,3,4
28,4,object_10,object_07,1053.0,7,1,475.0,0.1111111111111111,1,object_05,5,285,0,1,7,restaurant_14,1,memory-2step-stake-s,518,1339533,0.0-18.0-0.0-0.28,326,7,8
29,1,object_03,object_02,877.0,1,1,581.0,0.1111111111111111,1,object_05,1,286,0,1,9,desert_17,1,memory-2step-stake-s,519,1347553,0.0-18.0-0.0-0.29,326,1,2
30,4,object_10,object_07,-1.0,-1,-1,-1.0,0.0,-,,5,286,0,3,8,restaurant_24,1,memory-2step-stake-s,520,1354153,0.0-18.0-0.0-0.30,326,7,8
31,3,object_09,object_06,559.0,5,1,-1.0,0.0,1,object_05,1,286,0,1,8,library_2,1,memory-2step-stake-s,521,1362773,0.0-18.0-0.0-0.31,326,5,6
32,3,object_09,object_06,684.0,6,2,566.0,0.6666666666666666,2,object_01,5,316,0,2,6,library_15,1,memory-2step-stake-s,522,1371334,0.0-18.0-0.0-0.32,326,5,6
33,4,object_10,object_07,1020.0,8,2,405.0,0.7777777777777778,2,object_01,5,351,0,0,7,restaurant_6,1,memory-2step-stake-s,523,1379873,0.0-18.0-0.0-0.33,326,7,8
34,2,object_08,object_04,409.0,3,1,457.0,0.1111111111111111,1,object_05,1,352,0,1,7,forest_30,1,memory-2step-stake-s,524,1387772,0.0-18.0-0.0-0.34,326,3,4
35,4,object_07,object_10,825.0,7,2,518.0,0.3333333333333333,1,object_05,5,367,0,3,3,restaurant_10,1,memory-2step-stake-s,525,1395953,0.0-18.0-0.0-0.35,326,8,7
36,1,object_03,object_02,462.0,1,1,1106.0,0.2222222222222222,1,object_05,1,369,0,2,0,desert_10,1,memory-2step-stake-s,526,1404613,0.0-18.0-0.0-0.36,326,1,2
37,4,object_07,object_10,849.0,7,2,504.0,0.1111111111111111,1,object_05,5,374,0,1,0,restaurant_7,1,memory-2step-stake-s,527,1412543,0.0-18.0-0.0-0.37,326,8,7
38,1,object_03,object_02,581.0,1,1,652.0,0.2222222222222222,1,object_05,1,376,0,2,1,desert_10,1,memory-2step-stake-s,528,1420723,0.0-18.0-0.0-0.38,326,1,2
39,1,object_03,object_02,812.0,2,2,676.0,0.1111111111111111,2,object_01,1,377,0,1,1,desert_17,1,memory-2step-stake-s,529,1428833,0.0-18.0-0.0-0.39,326,1,2
40,4,object_07,object_10,728.0,8,1,424.0,0.0,2,object_01,5,377,0,0,0,restaurant_17,1,memory-2step-stake-s,530,1436573,0.0-18.0-0.0-0.40,326,8,7
41,2,object_04,object_08,774.0,3,2,624.0,0.0,1,object_05,1,377,0,0,1,forest_9,1,memory-2step-stake-s,531,1444503,0.0-18.0-0.0-0.41,326,4,3
42,3,object_06,object_09,494.0,6,1,349.0,0.0,2,object_01,5,377,0,1,0,library_12,1,memory-2step-stake-s,532,1452192,0.0-18.0-0.0-0.42,326,6,5
43,1,object_02,object_03,468.0,1,2,426.0,0.1111111111111111,1,object_05,1,378,0,1,0,desert_3,1,memory-2step-stake-s,533,1460043,0.0-18.0-0.0-0.43,326,2,1
44,1,object_02,object_03,545.0,2,1,648.0,0.1111111111111111,2,object_01,1,379,0,1,1,desert_32,1,memory-2step-stake-s,534,1468113,0.0-18.0-0.0-0.44,326,2,1
45,3,object_09,object_06,588.0,6,2,738.0,0.2222222222222222,2,object_01,1,381,0,2,2,library_14,1,memory-2step-stake-s,535,1476413,0.0-18.0-0.0-0.45,326,5,6
46,4,object_07,object_10,488.0,8,1,352.0,0.4444444444444444,2,object_01,5,401,0,0,4,restaurant_2,1,memory-2step-stake-s,536,1484533,0.0-18.0-0.0-0.46,326,8,7
47,1,object_02,object_03,513.0,1,2,413.0,0.2222222222222222,1,object_05,5,411,0,2,2,desert_25,1,memory-2step-stake-s,537,1492533,0.0-18.0-0.0-0.47,326,2,1
48,4,object_07,object_10,356.0,8,1,538.0,0.0,2,object_01,1,411,0,3,0,restaurant_29,1,memory-2step-stake-s,538,1500362,0.0-18.0-0.0-0.48,326,8,7
49,2,object_08,object_04,641.0,4,2,487.0,0.1111111111111111,2,object_01,1,412,0,0,1,forest_12,1,memory-2step-stake-s,539,1508263,0.0-18.0-0.0-0.49,326,3,4
50,3,object_09,object_06,443.0,5,1,553.0,0.1111111111111111,1,object_05,5,417,0,1,0,library_14,1,memory-2step-stake-s,540,1516252,0.0-18.0-0.0-0.50,326,5,6
51,2,object_04,object_08,300.0,3,2,441.0,0.4444444444444444,1,object_05,1,421,0,4,2,forest_12,1,memory-2step-stake-s,541,1524493,0.0-18.0-0.0-0.51,326,4,3
52,2,object_08,object_04,591.0,3,1,331.0,0.3333333333333333,1,object_05,1,424,0,3,5,forest_5,1,memory-2step-stake-s,542,1532483,0.0-18.0-0.0-0.52,326,3,4
53,1,object_03,object_02,-1.0,-1,-1,-1.0,0.0,-,,5,424,0,6,7,desert_28,1,memory-2step-stake-s,543,1539103,0.0-18.0-0.0-0.53,326,1,2
54,1,object_02,object_03,595.0,2,1,735.0,0.8888888888888888,2,object_01,1,432,0,8,8,desert_25,1,memory-2step-stake-s,544,1548093,0.0-18.0-0.0-0.54,326,2,1
55,2,object_08,object_04,411.0,4,2,493.0,0.8888888888888888,2,object_01,5,472,0,8,8,forest_26,1,memory-2step-stake-s,545,1556833,0.0-18.0-0.0-0.55,326,3,4
56,1,object_02,object_03,572.0,2,1,517.0,0.7777777777777778,2,object_01,1,479,0,9,7,desert_28,1,memory-2step-stake-s,546,1565462,0.0-18.0-0.0-0.56,326,2,1
57,3,object_09,object_06,1130.0,5,1,614.0,0.8888888888888888,1,object_05,5,519,0,8,5,library_15,1,memory-2step-stake-s,547,1574353,0.0-18.0-0.0-0.57,326,5,6
58,2,object_04,object_08,303.0,3,2,389.0,1.0,1,object_05,1,528,0,9,4,forest_23,1,memory-2step-stake-s,548,1583133,0.0-18.0-0.0-0.58,326,4,3
59,3,object_06,object_09,669.0,6,1,350.0,0.7777777777777778,2,object_01,5,563,0,6,7,library_22,1,memory-2step-stake-s,549,1591622,0.0-18.0-0.0-0.59,326,6,5
60,2,object_08,object_04,375.0,4,2,461.0,0.7777777777777778,2,object_01,1,570,0,2,7,forest_19,1,memory-2step-stake-s,550,1600232,0.0-18.0-0.0-0.60,326,3,4
61,3,object_06,object_09,652.0,6,1,419.0,0.3333333333333333,2,object_01,5,585,0,4,3,library_19,1,memory-2step-stake-s,551,1608266,0.0-18.0-0.0-0.61,326,6,5
62,3,object_09,object_06,693.0,6,2,485.0,0.6666666666666666,2,object_01,5,615,0,5,6,library_26,1,memory-2step-stake-s,552,1616773,0.0-18.0-0.0-0.62,326,5,6
63,2,object_08,object_04,469.0,3,1,1082.0,0.5555555555555556,1,object_05,1,620,0,5,4,forest_12,1,memory-2step-stake-s,553,1625732,0.0-18.0-0.0-0.63,326,3,4
64,4,object_10,object_07,816.0,8,2,692.0,0.2222222222222222,2,object_01,5,630,0,4,2,restaurant_2,1,memory-2step-stake-s,554,1633952,0.0-18.0-0.0-0.64,326,7,8
65,4,object_10,object_07,482.0,7,1,859.0,0.6666666666666666,1,object_05,5,660,0,6,3,restaurant_14,1,memory-2step-stake-s,555,1642842,0.0-18.0-0.0-0.65,326,7,8
66,4,object_07,object_10,751.0,7,2,598.0,0.6666666666666666,1,object_05,5,690,0,6,6,restaurant_18,1,memory-2step-stake-s,556,1651391,0.0-18.0-0.0-0.66,326,8,7
67,1,object_03,object_02,471.0,1,1,595.0,0.8888888888888888,1,object_05,5,730,0,8,8,desert_28,1,memory-2step-stake-s,557,1660141,0.0-18.0-0.0-0.67,326,1,2
68,3,object_09,object_06,619.0,6,2,528.0,0.7777777777777778,2,object_01,5,765,0,7,7,library_14,1,memory-2step-stake-s,558,1668731,0.0-18.0-0.0-0.68,326,5,6
69,2,object_04,object_08,661.0,4,1,589.0,0.7777777777777778,2,object_01,1,772,0,5,7,forest_1,1,memory-2step-stake-s,559,1677366,0.0-18.0-0.0-0.69,326,4,3
70,4,object_07,object_10,668.0,7,2,377.0,0.2222222222222222,1,object_05,5,782,0,2,9,restaurant_17,1,memory-2step-stake-s,560,1685236,0.0-18.0-0.0-0.70,326,8,7
71,4,object_07,object_10,394.0,8,1,516.0,0.4444444444444444,2,object_01,5,802,0,0,4,restaurant_27,1,memory-2step-stake-s,561,1693512,0.0-18.0-0.0-0.71,326,8,7
72,4,object_10,object_07,380.0,8,2,457.0,0.2222222222222222,2,object_01,5,812,0,0,2,restaurant_7,1,memory-2step-stake-s,562,1701522,0.0-18.0-0.0-0.72,326,7,8
73,4,object_07,object_10,571.0,7,2,956.0,0.2222222222222222,1,object_05,5,822,0,2,3,restaurant_18,1,memory-2step-stake-s,563,1710012,0.0-18.0-0.0-0.73,326,8,7
74,2,object_04,object_08,536.0,4,1,-1.0,0.0,2,object_01,1,822,0,1,4,forest_12,1,memory-2step-stake-s,564,1718622,0.0-18.0-0.0-0.74,326,4,3
75,2,object_04,object_08,330.0,3,2,610.0,0.2222222222222222,1,object_05,5,832,0,2,4,forest_4,1,memory-2step-stake-s,565,1726781,0.0-18.0-0.0-0.75,326,4,3
76,2,object_04,object_08,345.0,4,1,660.0,0.3333333333333333,2,object_01,1,835,0,4,3,forest_26,1,memory-2step-stake-s,566,1735091,0.0-18.0-0.0-0.76,326,4,3
77,1,object_02,object_03,602.0,1,2,864.0,0.5555555555555556,1,object_05,1,840,0,5,3,desert_18,1,memory-2step-stake-s,567,1743862,0.0-18.0-0.0-0.77,326,2,1
78,4,object_10,object_07,423.0,7,1,746.0,0.6666666666666666,1,object_05,5,870,0,6,5,restaurant_21,1,memory-2step-stake-s,568,1752640,0.0-18.0-0.0-0.78,326,7,8
79,2,object_04,object_08,841.0,3,2,483.0,0.4444444444444444,1,object_05,1,874,0,4,5,forest_6,1,memory-2step-stake-s,569,1760902,0.0-18.0-0.0-0.79,326,4,3
80,3,object_06,object_09,577.0,6,1,508.0,0.6666666666666666,2,object_01,5,904,0,4,6,library_23,1,memory-2step-stake-s,570,1769442,0.0-18.0-0.0-0.80,326,6,5
81,2,object_08,object_04,347.0,4,2,528.0,0.5555555555555556,2,object_01,1,909,0,4,5,forest_22,1,memory-2step-stake-s,571,1777902,0.0-18.0-0.0-0.81,326,3,4
82,4,object_07,object_10,376.0,8,1,582.0,0.6666666666666666,2,object_01,1,915,0,4,6,restaurant_24,1,memory-2step-stake-s,572,1786492,0.0-18.0-0.0-0.82,326,8,7
83,4,object_10,object_07,636.0,7,1,441.0,0.5555555555555556,1,object_05,5,940,0,5,4,restaurant_7,1,memory-2step-stake-s,573,1794861,0.0-18.0-0.0-0.83,326,7,8
84,1,object_02,object_03,717.0,1,2,604.0,0.1111111111111111,1,object_05,1,941,0,1,3,desert_31,1,memory-2step-stake-s,574,1802891,0.0-18.0-0.0-0.84,326,2,1
85,1,object_02,object_03,685.0,2,1,587.0,0.2222222222222222,2,object_01,1,943,0,3,2,desert_3,1,memory-2step-stake-s,575,1811022,0.0-18.0-0.0-0.85,326,2,1
86,2,object_08,object_04,707.0,3,1,605.0,0.2222222222222222,1,object_05,5,953,0,2,3,forest_4,1,memory-2step-stake-s,576,1819155,0.0-18.0-0.0-0.86,326,3,4
87,3,object_09,object_06,515.0,6,2,584.0,0.4444444444444444,2,object_01,5,973,0,2,4,library_23,1,memory-2step-stake-s,577,1827491,0.0-18.0-0.0-0.87,326,5,6
88,3,object_09,object_06,510.0,5,1,516.0,0.3333333333333333,1,object_05,5,988,0,3,2,library_7,1,memory-2step-stake-s,578,1835691,0.0-18.0-0.0-0.88,326,5,6
89,3,object_09,object_06,392.0,6,2,578.0,0.3333333333333333,2,object_01,5,1003,0,4,3,library_6,1,memory-2step-stake-s,579,1843969,0.0-18.0-0.0-0.89,326,5,6
90,4,object_10,object_07,338.0,7,1,466.0,0.6666666666666666,1,object_05,5,1033,0,6,3,restaurant_20,1,memory-2step-stake-s,580,1852432,0.0-18.0-0.0-0.90,326,7,8
91,2,object_04,object_08,348.0,3,2,839.0,1.0,1,object_05,1,1042,0,9,5,forest_26,1,memory-2step-stake-s,581,1861662,0.0-18.0-0.0-0.91,326,4,3
92,2,object_08,object_04,620.0,3,1,517.0,0.7777777777777778,1,object_05,1,1049,0,7,7,forest_5,1,memory-2step-stake-s,582,1870342,0.0-18.0-0.0-0.92,326,3,4
93,3,object_06,object_09,920.0,5,2,639.0,0.6666666666666666,1,object_05,5,1079,0,6,9,library_4,1,memory-2step-stake-s,583,1879022,0.0-18.0-0.0-0.93,326,6,5
94,4,object_10,object_07,737.0,7,1,468.0,0.6666666666666666,1,object_05,1,1085,0,6,6,restaurant_1,1,memory-2step-stake-s,584,1887491,0.0-18.0-0.0-0.94,326,7,8
95,4,object_07,object_10,1123.0,8,1,536.0,0.5555555555555556,2,object_01,5,1110,0,9,5,restaurant_2,1,memory-2step-stake-s,585,1895911,0.0-18.0-0.0-0.95,326,8,7
96,2,object_08,object_04,866.0,4,2,659.0,0.1111111111111111,2,object_01,1,1111,0,8,1,forest_16,1,memory-2step-stake-s,586,1904011,0.0-18.0-0.0-0.96,326,3,4
97,3,object_09,object_06,688.0,5,1,382.0,0.7777777777777778,1,object_05,5,1146,0,7,0,library_31,1,memory-2step-stake-s,587,1912561,0.0-18.0-0.0-0.97,326,5,6
98,4,object_10,object_07,468.0,8,2,410.0,0.1111111111111111,2,object_01,1,1147,0,5,1,restaurant_11,1,memory-2step-stake-s,588,1920400,0.0-18.0-0.0-0.98,326,7,8
99,2,object_08,object_04,787.0,3,1,379.0,0.5555555555555556,1,object_05,5,1172,0,5,3,forest_28,1,memory-2step-stake-s,589,1928652,0.0-18.0-0.0-0.99,326,3,4
100,4,object_07,object_10,647.0,8,1,502.0,0.2222222222222222,2,object_01,5,1182,0,3,2,restaurant_20,1,memory-2step-stake-s,590,1936701,0.0-18.0-0.0-0.100,326,8,7
101,4,object_10,object_07,640.0,8,2,510.0,0.2222222222222222,2,object_01,5,1192,0,4,2,restaurant_24,1,memory-2step-stake-s,591,1944771,0.0-18.0-0.0-0.101,326,7,8
102,2,object_08,object_04,1073.0,4,2,555.0,0.1111111111111111,2,object_01,1,1193,0,4,1,forest_18,1,memory-2step-stake-s,592,1952761,0.0-18.0-0.0-0.102,326,3,4
103,4,object_07,object_10,1054.0,8,1,462.0,0.1111111111111111,2,object_01,5,1198,0,3,1,restaurant_17,1,memory-2step-stake-s,593,1960630,0.0-18.0-0.0-0.103,326,8,7
104,3,object_09,object_06,1324.0,6,2,530.0,0.1111111111111111,2,object_01,5,1203,0,2,1,library_23,1,memory-2step-stake-s,594,1968550,0.0-18.0-0.0-0.104,326,5,6
105,2,object_04,object_08,1305.0,3,2,599.0,0.4444444444444444,1,object_05,5,1223,0,4,1,forest_19,1,memory-2step-stake-s,595,1976825,0.0-18.0-0.0-0.105,326,4,3
106,1,object_03,object_02,1168.0,2,2,688.0,0.0,2,object_01,1,1223,0,1,0,desert_10,1,memory-2step-stake-s,596,1984790,0.0-18.0-0.0-0.106,326,1,2
107,1,object_02,object_03,1278.0,2,1,487.0,0.5555555555555556,2,object_01,1,1228,0,4,5,desert_16,1,memory-2step-stake-s,597,1993151,0.0-18.0-0.0-0.107,326,2,1
108,3,object_06,object_09,946.0,5,2,505.0,0.3333333333333333,1,object_05,5,1243,0,3,5,library_24,1,memory-2step-stake-s,598,2001295,0.0-18.0-0.0-0.108,326,6,5
109,4,object_10,object_07,838.0,7,1,895.0,0.4444444444444444,1,object_05,1,1247,0,4,4,restaurant_20,1,memory-2step-stake-s,599,2009952,0.0-18.0-0.0-0.109,326,7,8
110,4,object_07,object_10,1196.0,8,1,817.0,0.4444444444444444,2,object_01,5,1267,0,4,4,restaurant_29,1,memory-2step-stake-s,600,2018570,0.0-18.0-0.0-0.110,326,8,7
111,1,object_02,object_03,540.0,1,2,559.0,0.0,1,object_05,1,1267,0,0,2,desert_5,1,memory-2step-stake-s,601,2026451,0.0-18.0-0.0-0.111,326,2,1
112,4,object_07,object_10,972.0,8,1,376.0,0.2222222222222222,2,object_01,5,1277,0,4,2,restaurant_6,1,memory-2step-stake-s,602,2034371,0.0-18.0-0.0-0.112,326,8,7
113,4,object_10,object_07,1320.0,8,2,482.0,0.4444444444444444,2,object_01,5,1297,0,2,4,restaurant_14,1,memory-2step-stake-s,603,2042661,0.0-18.0-0.0-0.113,326,7,8
114,2,object_04,object_08,527.0,4,1,730.0,0.4444444444444444,2,object_01,1,1301,0,4,4,forest_6,1,memory-2step-stake-s,604,2051191,0.0-18.0-0.0-0.114,326,4,3
115,3,object_09,object_06,1277.0,6,2,568.0,0.7777777777777778,2,object_01,5,1336,0,4,7,library_19,1,memory-2step-stake-s,605,2059891,0.0-18.0-0.0-0.115,326,5,6
116,4,object_10,object_07,516.0,7,1,433.0,0.4444444444444444,1,object_05,5,1356,0,4,5,restaurant_29,1,memory-2step-stake-s,606,2068090,0.0-18.0-0.0-0.116,326,7,8
117,4,object_07,object_10,831.0,8,1,570.0,0.8888888888888888,2,object_01,5,1396,0,5,8,restaurant_1,1,memory-2step-stake-s,607,2076911,0.0-18.0-0.0-0.117,326,8,7
118,3,object_06,object_09,790.0,5,2,585.0,0.6666666666666666,1,object_05,1,1402,0,6,6,library_24,1,memory-2step-stake-s,608,2085521,0.0-18.0-0.0-0.118,326,6,5
119,3,object_06,object_09,574.0,6,1,632.0,0.7777777777777778,2,object_01,1,1409,0,8,7,library_31,1,memory-2step-stake-s,609,2094320,0.0-18.0-0.0-0.119,326,6,5
120,1,object_03,object_02,555.0,2,2,443.0,0.8888888888888888,2,object_01,1,1417,0,5,8,desert_32,1,memory-2step-stake-s,610,2103041,0.0-18.0-0.0-0.120,326,1,2
121,1,object_02,object_03,670.0,2,1,605.0,0.8888888888888888,2,object_01,1,1425,0,4,8,desert_17,1,memory-2step-stake-s,611,2111861,0.0-18.0-0.0-0.121,326,2,1
122,3,object_09,object_06,1279.0,5,1,479.0,0.2222222222222222,1,object_05,5,1435,0,2,9,library_6,1,memory-2step-stake-s,612,2119890,0.0-18.0-0.0-0.122,326,5,6
123,4,object_07,object_10,1245.0,7,2,471.0,0.4444444444444444,1,object_05,5,1455,0,4,7,restaurant_6,1,memory-2step-stake-s,613,2128151,0.0-18.0-0.0-0.123,326,8,7
124,2,object_04,object_08,609.0,4,1,504.0,0.7777777777777778,2,object_01,5,1490,0,6,7,forest_6,1,memory-2step-stake-s,614,2136781,0.0-18.0-0.0-0.124,326,4,3
125,2,object_08,object_04,842.0,4,2,625.0,0.6666666666666666,2,object_01,1,1496,0,7,6,forest_16,1,memory-2step-stake-s,615,2145410,0.0-18.0-0.0-0.125,326,3,4
126,2,object_04,object_08,1006.0,3,2,557.0,0.5555555555555556,1,object_05,1,1501,0,5,6,forest_13,1,memory-2step-stake-s,616,2153890,0.0-18.0-0.0-0.126,326,4,3
127,4,object_10,object_07,704.0,7,1,552.0,0.3333333333333333,1,object_05,5,1516,0,3,4,restaurant_22,1,memory-2step-stake-s,617,2162111,0.0-18.0-0.0-0.127,326,7,8
128,4,object_10,object_07,1120.0,7,1,689.0,0.5555555555555556,1,object_05,5,1541,0,5,4,restaurant_10,1,memory-2step-stake-s,619,2214070,0.0-18.0-0.1-0.128,326,7,8
129,2,object_04,object_08,1008.0,3,2,714.0,0.6666666666666666,1,object_05,1,1547,0,6,3,forest_30,1,memory-2step-stake-s,620,2222790,0.0-18.0-0.1-0.129,326,4,3
130,1,object_03,object_02,984.0,1,1,430.0,0.5555555555555556,1,object_05,1,1552,0,5,2,desert_24,1,memory-2step-stake-s,621,2231121,0.0-18.0-0.1-0.130,326,1,2
131,2,object_08,object_04,842.0,4,2,466.0,0.1111111111111111,2,object_01,1,1553,0,5,1,forest_22,1,memory-2step-stake-s,622,2238971,0.0-18.0-0.1-0.131,326,3,4
132,1,object_02,object_03,1073.0,2,1,407.0,0.1111111111111111,2,object_01,1,1554,0,4,1,desert_31,1,memory-2step-stake-s,623,2246790,0.0-18.0-0.1-0.132,326,2,1
133,1,object_02,object_03,1048.0,2,1,849.0,0.0,2,object_01,1,1554,0,5,0,desert_4,1,memory-2step-stake-s,624,2254931,0.0-18.0-0.1-0.133,326,2,1
134,2,object_08,object_04,925.0,4,2,638.0,0.2222222222222222,2,object_01,1,1556,0,6,2,forest_16,1,memory-2step-stake-s,625,2263150,0.0-18.0-0.1-0.134,326,3,4
135,4,object_07,object_10,1040.0,8,1,529.0,0.1111111111111111,2,object_01,5,1561,0,5,1,restaurant_6,1,memory-2step-stake-s,626,2271110,0.0-18.0-0.1-0.135,326,8,7
136,1,object_02,object_03,777.0,1,2,468.0,0.8888888888888888,1,object_05,1,1569,0,8,0,desert_16,1,memory-2step-stake-s,627,2279840,0.0-18.0-0.1-0.136,326,2,1
137,3,object_09,object_06,825.0,5,1,607.0,0.8888888888888888,1,object_05,5,1609,0,8,2,library_20,1,memory-2step-stake-s,628,2288671,0.0-18.0-0.1-0.137,326,5,6
138,3,object_09,object_06,988.0,5,1,446.0,0.5555555555555556,1,object_05,5,1634,0,5,6,library_20,1,memory-2step-stake-s,629,2297029,0.0-18.0-0.1-0.138,326,5,6
139,3,object_09,object_06,1021.0,6,2,413.0,0.5555555555555556,2,object_01,5,1659,0,1,5,library_15,1,memory-2step-stake-s,630,2305370,0.0-18.0-0.1-0.139,326,5,6
140,1,object_03,object_02,921.0,2,2,405.0,0.2222222222222222,2,object_01,1,1661,0,5,2,desert_4,1,memory-2step-stake-s,631,2313350,0.0-18.0-0.1-0.140,326,1,2
141,4,object_07,object_10,804.0,8,1,687.0,0.0,2,object_01,5,1661,0,8,0,restaurant_27,1,memory-2step-stake-s,632,2321350,0.0-18.0-0.1-0.141,326,8,7
142,3,object_06,object_09,754.0,5,2,397.0,1.0,1,object_05,5,1706,0,9,1,library_12,1,memory-2step-stake-s,633,2330150,0.0-18.0-0.1-0.142,326,6,5
143,1,object_02,object_03,797.0,2,1,506.0,0.3333333333333333,2,object_01,1,1709,0,8,3,desert_21,1,memory-2step-stake-s,634,2338330,0.0-18.0-0.1-0.143,326,2,1
144,4,object_10,object_07,1198.0,8,2,560.0,0.1111111111111111,2,object_01,5,1714,0,9,1,restaurant_21,1,memory-2step-stake-s,635,2346350,0.0-18.0-0.1-0.144,326,7,8
145,2,object_08,object_04,992.0,4,2,583.0,0.1111111111111111,2,object_01,1,1715,0,6,1,forest_16,1,memory-2step-stake-s,636,2354350,0.0-18.0-0.1-0.145,326,3,4
146,1,object_03,object_02,1034.0,2,2,585.0,0.3333333333333333,2,object_01,1,1718,0,9,3,desert_18,1,memory-2step-stake-s,637,2362609,0.0-18.0-0.1-0.146,326,1,2
147,3,object_06,object_09,798.0,6,1,497.0,0.3333333333333333,2,object_01,5,1733,0,8,3,library_23,1,memory-2step-stake-s,638,2370770,0.0-18.0-0.1-0.147,326,6,5
148,2,object_04,object_08,950.0,4,1,583.0,0.6666666666666666,2,object_01,1,1739,0,5,6,forest_13,1,memory-2step-stake-s,639,2379380,0.0-18.0-0.1-0.148,326,4,3
149,2,object_04,object_08,1183.0,3,2,593.0,0.2222222222222222,1,object_05,1,1741,0,2,6,forest_1,1,memory-2step-stake-s,640,2387489,0.0-18.0-0.1-0.149,326,4,3
150,1,object_02,object_03,914.0,1,2,615.0,0.5555555555555556,1,object_05,1,1746,0,5,8,desert_4,1,memory-2step-stake-s,641,2396010,0.0-18.0-0.1-0.150,326,2,1
151,1,object_02,object_03,956.0,1,2,433.0,0.4444444444444444,1,object_05,5,1766,0,4,7,desert_3,1,memory-2step-stake-s,642,2404210,0.0-18.0-0.1-0.151,326,2,1
152,2,object_04,object_08,340.0,4,1,431.0,0.6666666666666666,2,object_01,1,1772,0,2,6,forest_21,1,memory-2step-stake-s,643,2412660,0.0-18.0-0.1-0.152,326,4,3
153,4,object_07,object_10,827.0,7,2,612.0,0.0,1,object_05,5,1772,0,0,4,restaurant_7,1,memory-2step-stake-s,644,2420550,0.0-18.0-0.1-0.153,326,8,7
154,1,object_03,object_02,1162.0,2,2,530.0,0.4444444444444444,2,object_01,1,1776,0,1,4,desert_5,1,memory-2step-stake-s,645,2428869,0.0-18.0-0.1-0.154,326,1,2
155,3,object_09,object_06,991.0,5,1,456.0,0.3333333333333333,1,object_05,5,1791,0,3,3,library_14,1,memory-2step-stake-s,646,2437009,0.0-18.0-0.1-0.155,326,5,6
156,1,object_03,object_02,899.0,1,1,544.0,0.3333333333333333,1,object_05,1,1794,0,3,5,desert_31,1,memory-2step-stake-s,647,2445239,0.0-18.0-0.1-0.156,326,1,2
157,3,object_09,object_06,918.0,5,1,416.0,0.1111111111111111,1,object_05,5,1799,0,1,5,library_2,1,memory-2step-stake-s,648,2453109,0.0-18.0-0.1-0.157,326,5,6
158,1,object_02,object_03,1151.0,2,1,527.0,0.7777777777777778,2,object_01,5,1834,0,1,7,desert_19,1,memory-2step-stake-s,649,2461799,0.0-18.0-0.1-0.158,326,2,1
159,2,object_08,object_04,1015.0,4,2,492.0,0.8888888888888888,2,object_01,1,1842,0,0,8,forest_22,1,memory-2step-stake-s,650,2470579,0.0-18.0-0.1-0.159,326,3,4
160,3,object_09,object_06,964.0,5,1,594.0,0.5555555555555556,1,object_05,5,1867,0,5,8,library_2,1,memory-2step-stake-s,651,2479119,0.0-18.0-0.1-0.160,326,5,6
161,4,object_10,object_07,709.0,8,2,485.0,0.7777777777777778,2,object_01,5,1902,0,5,7,restaurant_13,1,memory-2step-stake-s,652,2487760,0.0-18.0-0.1-0.161,326,7,8
162,1,object_02,object_03,612.0,2,1,460.0,0.8888888888888888,2,object_01,1,1910,0,8,8,desert_21,1,memory-2step-stake-s,653,2496470,0.0-18.0-0.1-0.162,326,2,1
163,1,object_03,object_02,719.0,2,2,358.0,0.7777777777777778,2,object_01,5,1945,0,4,7,desert_14,1,memory-2step-stake-s,654,2504950,0.0-18.0-0.1-0.163,326,1,2
164,2,object_08,object_04,547.0,3,1,373.0,0.6666666666666666,1,object_05,5,1975,0,6,9,forest_9,1,memory-2step-stake-s,655,2513263,0.0-18.0-0.1-0.164,326,3,4
165,4,object_10,object_07,539.0,8,2,624.0,0.8888888888888888,2,object_01,5,2015,0,5,8,restaurant_10,1,memory-2step-stake-s,656,2522120,0.0-18.0-0.1-0.165,326,7,8
166,2,object_04,object_08,412.0,4,1,442.0,0.1111111111111111,2,object_01,5,2020,0,5,1,forest_4,1,memory-2step-stake-s,657,2529988,0.0-18.0-0.1-0.166,326,4,3
167,3,object_06,object_09,490.0,5,2,395.0,0.2222222222222222,1,object_05,5,2030,0,2,2,library_19,1,memory-2step-stake-s,658,2537969,0.0-18.0-0.1-0.167,326,6,5
168,1,object_02,object_03,625.0,2,1,437.0,0.1111111111111111,2,object_01,1,2031,0,2,1,desert_10,1,memory-2step-stake-s,659,2545840,0.0-18.0-0.1-0.168,326,2,1
169,3,object_06,object_09,767.0,5,2,641.0,0.3333333333333333,1,object_05,5,2046,0,3,1,library_7,1,memory-2step-stake-s,660,2554139,0.0-18.0-0.1-0.169,326,6,5
170,2,object_08,object_04,409.0,3,1,435.0,0.4444444444444444,1,object_05,1,2050,0,4,3,forest_19,1,memory-2step-stake-s,661,2562370,0.0-18.0-0.1-0.170,326,3,4
171,2,object_04,object_08,681.0,3,2,572.0,0.1111111111111111,1,object_05,5,2055,0,1,2,forest_23,1,memory-2step-stake-s,662,2570389,0.0-18.0-0.1-0.171,326,4,3
172,1,object_03,object_02,706.0,1,1,387.0,0.1111111111111111,1,object_05,1,2056,0,1,1,desert_32,1,memory-2step-stake-s,663,2578206,0.0-18.0-0.1-0.172,326,1,2
173,4,object_07,object_10,1059.0,7,2,614.0,0.2222222222222222,1,object_05,5,2066,0,2,0,restaurant_27,1,memory-2step-stake-s,664,2586349,0.0-18.0-0.1-0.173,326,8,7
174,1,object_02,object_03,864.0,2,1,578.0,0.2222222222222222,2,object_01,1,2068,0,2,2,desert_14,1,memory-2step-stake-s,665,2594509,0.0-18.0-0.1-0.174,326,2,1
175,2,object_08,object_04,760.0,4,2,854.0,0.2222222222222222,2,object_01,1,2070,0,0,2,forest_28,1,memory-2step-stake-s,666,2602928,0.0-18.0-0.1-0.175,326,3,4
176,1,object_02,object_03,520.0,2,1,428.0,0.5555555555555556,2,object_01,1,2075,0,5,5,desert_21,1,memory-2step-stake-s,667,2611249,0.0-18.0-0.1-0.176,326,2,1
177,4,object_10,object_07,784.0,8,2,584.0,0.5555555555555556,2,object_01,5,2100,0,5,5,restaurant_11,1,memory-2step-stake-s,668,2619749,0.0-18.0-0.1-0.177,326,7,8
178,3,object_09,object_06,890.0,5,1,713.0,0.8888888888888888,1,object_05,5,2140,0,8,2,library_24,1,memory-2step-stake-s,669,2628679,0.0-18.0-0.1-0.178,326,5,6
179,4,object_10,object_07,520.0,8,2,481.0,0.1111111111111111,2,object_01,5,2145,0,8,1,restaurant_20,1,memory-2step-stake-s,670,2636598,0.0-18.0-0.1-0.179,326,7,8
180,1,object_02,object_03,438.0,2,1,495.0,0.1111111111111111,2,object_01,1,2146,0,6,1,desert_14,1,memory-2step-stake-s,671,2644528,0.0-18.0-0.1-0.180,326,2,1
181,3,object_06,object_09,579.0,5,2,586.0,0.5555555555555556,1,object_05,1,2151,0,5,2,library_32,1,memory-2step-stake-s,672,2652949,0.0-18.0-0.1-0.181,326,6,5
182,4,object_10,object_07,731.0,7,1,525.0,0.5555555555555556,1,object_05,5,2176,0,5,2,restaurant_22,1,memory-2step-stake-s,673,2661349,0.0-18.0-0.1-0.182,326,7,8
183,4,object_07,object_10,545.0,7,2,605.0,0.4444444444444444,1,object_05,5,2196,0,4,2,restaurant_27,1,memory-2step-stake-s,674,2669749,0.0-18.0-0.1-0.183,326,8,7
184,1,object_03,object_02,910.0,2,2,444.0,0.3333333333333333,2,object_01,1,2199,0,4,3,desert_23,1,memory-2step-stake-s,675,2677858,0.0-18.0-0.1-0.184,326,1,2
185,1,object_02,object_03,792.0,1,2,460.0,0.6666666666666666,1,object_05,5,2229,0,6,1,desert_25,1,memory-2step-stake-s,676,2686349,0.0-18.0-0.1-0.185,326,2,1
186,2,object_08,object_04,338.0,3,1,338.0,0.7777777777777778,1,object_05,1,2236,0,7,2,forest_13,1,memory-2step-stake-s,677,2694819,0.0-18.0-0.1-0.186,326,3,4
187,1,object_03,object_02,707.0,2,2,356.0,0.0,2,object_01,1,2236,0,9,0,desert_5,1,memory-2step-stake-s,678,2702478,0.0-18.0-0.1-0.187,326,1,2
188,4,object_07,object_10,949.0,7,2,499.0,0.7777777777777778,1,object_05,5,2271,0,7,1,restaurant_2,1,memory-2step-stake-s,679,2711118,0.0-18.0-0.1-0.188,326,8,7
189,4,object_07,object_10,604.0,7,2,497.0,0.6666666666666666,1,object_05,5,2301,0,6,1,restaurant_24,1,memory-2step-stake-s,680,2719629,0.0-18.0-0.1-0.189,326,8,7
190,1,object_03,object_02,797.0,1,1,504.0,0.8888888888888888,1,object_05,1,2309,0,8,2,desert_24,1,memory-2step-stake-s,681,2728379,0.0-18.0-0.1-0.190,326,1,2
191,2,object_04,object_08,818.0,4,1,318.0,0.1111111111111111,2,object_01,1,2310,0,8,1,forest_6,1,memory-2step-stake-s,682,2736148,0.0-18.0-0.1-0.191,326,4,3
192,2,object_04,object_08,618.0,4,1,482.0,0.2222222222222222,2,object_01,1,2312,0,8,2,forest_26,1,memory-2step-stake-s,683,2744179,0.0-18.0-0.1-0.192,326,4,3
193,3,object_09,object_06,829.0,5,1,536.0,1.0,1,object_05,5,2357,0,9,2,library_7,1,memory-2step-stake-s,684,2753099,0.0-18.0-0.1-0.193,326,5,6
194,4,object_10,object_07,1005.0,8,2,517.0,0.3333333333333333,2,object_01,1,2360,0,8,3,restaurant_11,1,memory-2step-stake-s,685,2761268,0.0-18.0-0.1-0.194,326,7,8
195,1,object_02,object_03,729.0,1,2,430.0,0.5555555555555556,1,object_05,5,2385,0,5,0,desert_4,1,memory-2step-stake-s,686,2769548,0.0-18.0-0.1-0.195,326,2,1
196,1,object_03,object_02,699.0,2,2,311.0,0.1111111111111111,2,object_01,1,2386,0,4,1,desert_19,1,memory-2step-stake-s,687,2777309,0.0-18.0-0.1-0.196,326,1,2
197,3,object_06,object_09,812.0,5,2,385.0,0.5555555555555556,1,object_05,5,2411,0,5,1,library_20,1,memory-2step-stake-s,688,2785597,0.0-18.0-0.1-0.197,326,6,5
198,1,object_02,object_03,735.0,1,2,539.0,0.5555555555555556,1,object_05,5,2436,0,5,0,desert_24,1,memory-2step-stake-s,689,2794068,0.0-18.0-0.1-0.198,326,2,1
199,3,object_09,object_06,782.0,5,1,447.0,0.6666666666666666,1,object_05,5,2466,0,6,3,library_6,1,memory-2step-stake-s,690,2802538,0.0-18.0-0.1-0.199,326,5,6
200,3,object_06,object_09,639.0,5,2,514.0,0.8888888888888888,1,object_05,5,2506,0,8,0,library_32,1,memory-2step-stake-s,691,2811318,0.0-18.0-0.1-0.200,326,6,5
201,3,object_06,object_09,742.0,6,1,329.0,0.3333333333333333,2,object_01,1,2509,0,6,3,library_24,1,memory-2step-stake-s,692,2819278,0.0-18.0-0.1-0.201,326,6,5
202,1,object_02,object_03,718.0,2,1,446.0,0.1111111111111111,2,object_01,1,2510,0,7,1,desert_25,1,memory-2step-stake-s,693,2827139,0.0-18.0-0.1-0.202,326,2,1
203,1,object_02,object_03,872.0,2,1,1116.0,0.0,2,object_01,1,2510,0,5,0,desert_16,1,memory-2step-stake-s,694,2835588,0.0-18.0-0.1-0.203,326,2,1
204,1,object_02,object_03,651.0,2,1,390.0,0.1111111111111111,2,object_01,1,2511,0,6,1,desert_24,1,memory-2step-stake-s,695,2843408,0.0-18.0-0.1-0.204,326,2,1
205,3,object_06,object_09,521.0,5,2,406.0,0.6666666666666666,1,object_05,5,2541,0,6,1,library_26,1,memory-2step-stake-s,696,2851848,0.0-18.0-0.1-0.205,326,6,5
206,1,object_02,object_03,626.0,2,1,374.0,0.2222222222222222,2,object_01,1,2543,0,5,2,desert_19,1,memory-2step-stake-s,697,2859787,0.0-18.0-0.1-0.206,326,2,1
207,4,object_07,object_10,790.0,7,2,459.0,0.3333333333333333,1,object_05,5,2558,0,3,2,restaurant_21,1,memory-2step-stake-s,698,2867908,0.0-18.0-0.1-0.207,326,8,7
208,2,object_04,object_08,732.0,4,1,424.0,0.1111111111111111,2,object_01,1,2559,0,3,1,forest_18,1,memory-2step-stake-s,699,2875768,0.0-18.0-0.1-0.208,326,4,3
209,2,object_08,object_04,723.0,4,2,574.0,0.1111111111111111,2,object_01,1,2560,0,3,1,forest_9,1,memory-2step-stake-s,700,2883809,0.0-18.0-0.1-0.209,326,3,4
210,3,object_09,object_06,650.0,5,1,367.0,0.3333333333333333,1,object_05,5,2575,0,3,4,library_31,1,memory-2step-stake-s,701,2891848,0.0-18.0-0.1-0.210,326,5,6
211,2,object_08,object_04,821.0,4,2,457.0,0.4444444444444444,2,object_01,1,2579,0,4,4,forest_21,1,memory-2step-stake-s,702,2900108,0.0-18.0-0.1-0.211,326,3,4
212,2,object_08,object_04,691.0,3,1,484.0,0.5555555555555556,1,object_05,1,2584,0,5,5,forest_18,1,memory-2step-stake-s,703,2908448,0.0-18.0-0.1-0.212,326,3,4
213,3,object_09,object_06,874.0,5,1,-1.0,0.0,1,object_05,5,2584,0,6,2,library_4,1,memory-2step-stake-s,704,2917068,0.0-18.0-0.1-0.213,326,5,6
214,2,object_04,object_08,722.0,4,1,376.0,0.0,2,object_01,1,2584,0,4,0,forest_21,1,memory-2step-stake-s,705,2924768,0.0-18.0-0.1-0.214,326,4,3
215,4,object_07,object_10,652.0,7,2,319.0,0.6666666666666666,1,object_05,5,2614,0,6,2,restaurant_21,1,memory-2step-stake-s,706,2933088,0.0-18.0-0.1-0.215,326,8,7
216,2,object_04,object_08,607.0,4,1,349.0,0.5555555555555556,2,object_01,1,2619,0,8,5,forest_4,1,memory-2step-stake-s,707,2941348,0.0-18.0-0.1-0.216,326,4,3
217,4,object_10,object_07,660.0,7,1,405.0,0.7777777777777778,1,object_05,5,2654,0,7,4,restaurant_10,1,memory-2step-stake-s,708,2949888,0.0-18.0-0.1-0.217,326,7,8
218,3,object_09,object_06,643.0,5,1,484.0,0.7777777777777778,1,object_05,5,2689,0,7,6,library_32,1,memory-2step-stake-s,709,2958518,0.0-18.0-0.1-0.218,326,5,6
219,4,object_07,object_10,709.0,7,2,410.0,0.4444444444444444,1,object_05,5,2709,0,4,7,restaurant_18,1,memory-2step-stake-s,710,2966748,0.0-18.0-0.1-0.219,326,8,7
220,2,object_08,object_04,588.0,3,1,470.0,0.2222222222222222,1,object_05,1,2711,0,2,8,forest_13,1,memory-2step-stake-s,711,2974768,0.0-18.0-0.1-0.220,326,3,4
221,1,object_03,object_02,890.0,1,1,574.0,0.5555555555555556,1,object_05,1,2716,0,5,8,desert_23,1,memory-2step-stake-s,712,2983228,0.0-18.0-0.1-0.221,326,1,2
222,3,object_06,object_09,854.0,6,1,375.0,0.5555555555555556,2,object_01,5,2741,0,5,5,library_1,1,memory-2step-stake-s,713,2991487,0.0-18.0-0.1-0.222,326,6,5
223,2,object_04,object_08,706.0,3,2,431.0,0.7777777777777778,1,object_05,1,2748,0,7,8,forest_9,1,memory-2step-stake-s,714,3000068,0.0-18.0-0.1-0.223,326,4,3
224,3,object_09,object_06,638.0,5,1,357.0,0.6666666666666666,1,object_05,5,2778,0,6,5,library_1,1,memory-2step-stake-s,715,3008447,0.0-18.0-0.1-0.224,326,5,6
225,3,object_06,object_09,780.0,6,1,403.0,0.4444444444444444,2,object_01,5,2798,0,3,4,library_6,1,memory-2step-stake-s,716,3016647,0.0-18.0-0.1-0.225,326,6,5
226,3,object_06,object_09,786.0,5,2,450.0,0.0,1,object_05,5,2798,0,0,5,library_1,1,memory-2step-stake-s,717,3024377,0.0-18.0-0.1-0.226,326,6,5
227,2,object_08,object_04,413.0,3,1,414.0,0.1111111111111111,1,object_05,1,2799,0,1,5,forest_23,1,memory-2step-stake-s,718,3032217,0.0-18.0-0.1-0.227,326,3,4
228,3,object_06,object_09,636.0,6,1,341.0,0.6666666666666666,2,object_01,5,2829,0,2,6,library_22,1,memory-2step-stake-s,719,3040547,0.0-18.0-0.1-0.228,326,6,5
229,3,object_06,object_09,549.0,6,1,397.0,0.4444444444444444,2,object_01,5,2849,0,0,4,library_20,1,memory-2step-stake-s,720,3048738,0.0-18.0-0.1-0.229,326,6,5
230,2,object_04,object_08,523.0,4,1,381.0,0.5555555555555556,2,object_01,1,2854,0,0,5,forest_5,1,memory-2step-stake-s,721,3057038,0.0-18.0-0.1-0.230,326,4,3
231,2,object_04,object_08,745.0,3,2,415.0,0.4444444444444444,1,object_05,1,2858,0,4,7,forest_28,1,memory-2step-stake-s,722,3065208,0.0-18.0-0.1-0.231,326,4,3
232,3,object_06,object_09,570.0,6,1,376.0,0.8888888888888888,2,object_01,5,2898,0,2,8,library_7,1,memory-2step-stake-s,723,3073854,0.0-18.0-0.1-0.232,326,6,5
233,2,object_04,object_08,674.0,4,1,402.0,0.7777777777777778,2,object_01,1,2905,0,0,7,forest_28,1,memory-2step-stake-s,724,3082408,0.0-18.0-0.1-0.233,326,4,3
234,3,object_06,object_09,669.0,5,2,361.0,0.2222222222222222,1,object_05,5,2915,0,2,4,library_26,1,memory-2step-stake-s,725,3090308,0.0-18.0-0.1-0.234,326,6,5
235,4,object_07,object_10,806.0,8,1,422.0,0.7777777777777778,2,object_01,5,2950,0,3,7,restaurant_29,1,memory-2step-stake-s,726,3098808,0.0-18.0-0.1-0.235,326,8,7
236,1,object_02,object_03,1153.0,2,1,577.0,1.0,2,object_01,5,2995,0,2,9,desert_16,1,memory-2step-stake-s,727,3107767,0.0-18.0-0.1-0.236,326,2,1
237,4,object_10,object_07,805.0,8,2,413.0,0.7777777777777778,2,object_01,5,3030,0,5,7,restaurant_17,1,memory-2step-stake-s,728,3116317,0.0-18.0-0.1-0.237,326,7,8
238,3,object_06,object_09,711.0,6,1,506.0,0.8888888888888888,2,object_01,5,3070,0,2,8,library_12,1,memory-2step-stake-s,729,3125107,0.0-18.0-0.1-0.238,326,6,5
239,4,object_07,object_10,1069.0,8,1,627.0,0.8888888888888888,2,object_01,1,3078,0,1,8,restaurant_18,1,memory-2step-stake-s,730,3133998,0.0-18.0-0.1-0.239,326,8,7
240,4,object_10,object_07,692.0,8,2,396.0,0.8888888888888888,2,object_01,5,3118,0,1,8,restaurant_22,1,memory-2step-stake-s,731,3142647,0.0-18.0-0.1-0.240,326,7,8
241,4,object_10,object_07,579.0,8,2,439.0,0.8888888888888888,2,object_01,5,3158,0,3,8,restaurant_1,1,memory-2step-stake-s,732,3151337,0.0-18.0-0.1-0.241,326,7,8
242,4,object_07,object_10,564.0,8,1,397.0,0.8888888888888888,2,object_01,5,3198,0,3,8,restaurant_22,1,memory-2step-stake-s,733,3159997,0.0-18.0-0.1-0.242,326,8,7
243,1,object_02,object_03,841.0,1,2,458.0,0.2222222222222222,1,object_05,1,3200,0,2,7,desert_3,1,memory-2step-stake-s,734,3168007,0.0-18.0-0.1-0.243,326,2,1
244,1,object_03,object_02,702.0,1,1,432.0,0.6666666666666666,1,object_05,1,3206,0,6,9,desert_5,1,memory-2step-stake-s,735,3176427,0.0-18.0-0.1-0.244,326,1,2
245,1,object_02,object_03,692.0,1,2,380.0,0.6666666666666666,1,object_05,5,3236,0,6,8,desert_17,1,memory-2step-stake-s,736,3184827,0.0-18.0-0.1-0.245,326,2,1
246,1,object_02,object_03,646.0,2,1,475.0,0.7777777777777778,2,object_01,1,3243,0,3,7,desert_32,1,memory-2step-stake-s,737,3193457,0.0-18.0-0.1-0.246,326,2,1
247,3,object_09,object_06,819.0,6,2,531.0,0.8888888888888888,2,object_01,5,3283,0,2,8,library_32,1,memory-2step-stake-s,738,3202237,0.0-18.0-0.1-0.247,326,5,6
248,2,object_04,object_08,646.0,4,1,549.0,0.8888888888888888,2,object_01,1,3291,0,0,8,forest_22,1,memory-2step-stake-s,739,3211067,0.0-18.0-0.1-0.248,326,4,3
249,2,object_08,object_04,675.0,3,1,465.0,0.2222222222222222,1,object_05,5,3301,0,2,8,forest_21,1,memory-2step-stake-s,740,3219057,0.0-18.0-0.1-0.249,326,3,4
250,3,object_06,object_09,1212.0,6,1,559.0,0.5555555555555556,2,object_01,5,3326,0,2,5,library_19,1,memory-2step-stake-s,741,3227527,0.0-18.0-0.1-0.250,326,6,5
251,4,object_07,object_10,930.0,7,2,508.0,0.5555555555555556,1,object_05,5,3351,0,5,3,restaurant_1,1,memory-2step-stake-s,742,3235917,0.0-18.0-0.1-0.251,326,8,7
252,2,object_04,object_08,784.0,4,1,469.0,0.1111111111111111,2,object_01,1,3352,0,7,1,forest_1,1,memory-2step-stake-s,743,3243787,0.0-18.0-0.1-0.252,326,4,3
253,1,object_03,object_02,803.0,2,2,533.0,0.1111111111111111,2,object_01,1,3353,0,8,1,desert_23,1,memory-2step-stake-s,744,3251727,0.0-18.0-0.1-0.253,326,1,2
254,2,object_04,object_08,977.0,4,1,436.0,0.2222222222222222,2,object_01,1,3355,0,6,2,forest_30,1,memory-2step-stake-s,745,3259747,0.0-18.0-0.1-0.254,326,4,3
255,4,object_10,object_07,997.0,7,1,467.0,0.8888888888888888,1,object_05,5,3395,0,8,6,restaurant_11,1,memory-2step-stake-s,746,3268467,0.0-18.0-0.1-0.255,326,7,8
