,state1,stim_left,stim_right,rt_1,choice1,response1,rt_2,points,state2,stim_state2,stake,score,practice,rews1,rews2,background,high_arm,trial_type,trial_index,time_elapsed,internal_node_id,subid,stim_left_num,stim_right_num
0,3,object_08,object_07,1063.31,6,2,-1.0,0.0,2,object_05,1,0,0,0,3,library_16,2,memory-2step-stake-s,492,1107145,0.0-18.0-0.0-0.0,3671,5,6
1,2,object_02,object_01,-1.0,-1,-1,-1.0,0.0,-,,1,0,0,1,7,forest_16,2,memory-2step-stake-s,493,1113655,0.0-18.0-0.0-0.1,3671,3,4
2,4,object_10,object_04,695.285,7,1,1186.53,0.5555555555555556,1,object_03,1,5,0,5,6,restaurant_21,2,memory-2step-stake-s,494,1122561,0.0-18.0-0.0-0.2,3671,7,8
3,3,object_08,object_07,525.61,6,2,457.38,0.8888888888888888,2,object_05,1,13,0,8,8,library_12,2,memory-2step-stake-s,495,1131046,0.0-18.0-0.0-0.3,3671,5,6
4,2,object_02,object_01,720.315,4,2,827.875,1.0,2,object_05,5,58,0,7,9,forest_16,2,memory-2step-stake-s,496,1140001,0.0-18.0-0.0-0.4,3671,3,4
5,1,object_06,object_09,959.005,1,1,673.41,0.8888888888888888,1,object_03,5,98,0,8,9,desert_20,2,memory-2step-stake-s,497,1148697,0.0-18.0-0.0-0.5,3671,1,2
6,4,object_10,object_04,941.92,7,1,872.01,0.8888888888888888,1,object_03,1,106,0,8,8,restaurant_14,2,memory-2step-stake-s,498,1157595,0.0-18.0-0.0-0.6,3671,7,8
7,1,object_09,object_06,995.83,1,2,718.73,0.7777777777777778,1,object_03,5,141,0,7,6,desert_5,2,memory-2step-stake-s,499,1166239,0.0-18.0-0.0-0.7,3671,2,1
8,4,object_10,object_04,745.02,7,1,573.43,0.4444444444444444,1,object_03,1,145,0,4,5,restaurant_28,2,memory-2step-stake-s,500,1174432,0.0-18.0-0.0-0.8,3671,7,8
9,3,object_08,object_07,1335.77,6,2,634.855,0.5555555555555556,2,object_05,5,170,0,4,5,library_28,2,memory-2step-stake-s,501,1182787,0.0-18.0-0.0-0.9,3671,5,6
10,1,object_06,object_09,901.195,2,2,600.46,0.4444444444444444,2,object_05,5,190,0,5,4,desert_26,2,memory-2step-stake-s,502,1191003,0.0-18.0-0.0-0.10,3671,1,2
11,2,object_02,object_01,1045.47,4,2,790.89,0.3333333333333333,2,object_05,5,205,0,3,3,forest_27,2,memory-2step-stake-s,503,1199313,0.0-18.0-0.0-0.11,3671,3,4
12,3,object_08,object_07,1359.67,5,1,705.905,0.1111111111111111,1,object_03,1,206,0,1,2,library_9,2,memory-2step-stake-s,504,1207333,0.0-18.0-0.0-0.12,3671,5,6
13,3,object_07,object_08,1322.22,6,1,1141.66,0.1111111111111111,2,object_05,1,207,0,4,1,library_27,2,memory-2step-stake-s,505,1215790,0.0-18.0-0.0-0.13,3671,6,5
14,4,object_10,object_04,768.77,8,2,659.235,0.0,2,object_05,1,207,0,8,0,restaurant_15,2,memory-2step-stake-s,506,1223664,0.0-18.0-0.0-0.14,3671,7,8
15,2,object_01,object_02,1352.135,3,2,698.755,1.0,1,object_03,5,252,0,9,1,forest_26,2,memory-2step-stake-s,507,1232487,0.0-18.0-0.0-0.15,3671,4,3
16,1,object_09,object_06,-1.0,-1,-1,-1.0,0.0,-,,5,252,0,8,0,desert_8,2,memory-2step-stake-s,508,1238999,0.0-18.0-0.0-0.16,3671,2,1
17,3,object_07,object_08,864.8550001,6,1,698.835,0.3333333333333333,2,object_05,5,267,0,6,3,library_1,2,memory-2step-stake-s,509,1247215,0.0-18.0-0.0-0.17,3671,6,5
18,3,object_07,object_08,961.425,5,2,724.675,1.0,1,object_03,1,276,0,9,4,library_1,2,memory-2step-stake-s,510,1256064,0.0-18.0-0.0-0.18,3671,6,5
19,2,object_01,object_02,1175.505,3,2,560.9,1.0,1,object_03,5,321,0,9,2,forest_1,2,memory-2step-stake-s,511,1264751,0.0-18.0-0.0-0.19,3671,4,3
20,1,object_06,object_09,1256.805,2,2,707.03,0.3333333333333333,2,object_05,5,336,0,6,3,desert_29,2,memory-2step-stake-s,512,1272977,0.0-18.0-0.0-0.20,3671,1,2
21,2,object_01,object_02,1005.48,3,2,448.065,1.0,1,object_03,5,381,0,9,3,forest_4,2,memory-2step-stake-s,513,1281550,0.0-18.0-0.0-0.21,3671,4,3
22,4,object_04,object_10,953.67,8,1,635.795,0.5555555555555556,2,object_05,5,406,0,7,5,restaurant_23,2,memory-2step-stake-s,514,1289905,0.0-18.0-0.0-0.22,3671,8,7
23,3,object_08,object_07,1158.845,6,2,656.49,0.2222222222222222,2,object_05,5,416,0,7,2,library_14,2,memory-2step-stake-s,515,1297980,0.0-18.0-0.0-0.23,3671,5,6
24,2,object_02,object_01,956.035,3,1,470.08,0.6666666666666666,1,object_03,5,446,0,6,1,forest_25,2,memory-2step-stake-s,516,1306271,0.0-18.0-0.0-0.24,3671,3,4
25,4,object_10,object_04,688.47,8,2,643.005,0.0,2,object_05,1,446,0,5,0,restaurant_15,2,memory-2step-stake-s,517,1314130,0.0-18.0-0.0-0.25,3671,7,8
26,1,object_09,object_06,1294.505,2,1,617.11,0.0,2,object_05,5,446,0,5,0,desert_25,2,memory-2step-stake-s,518,1321961,0.0-18.0-0.0-0.26,3671,2,1
27,3,object_08,object_07,1183.48,5,1,602.52,0.4444444444444444,1,object_03,5,466,0,4,3,library_5,2,memory-2step-stake-s,519,1330180,0.0-18.0-0.0-0.27,3671,5,6
28,1,object_09,object_06,1107.285,2,1,629.845,0.1111111111111111,2,object_05,1,467,0,5,1,desert_27,2,memory-2step-stake-s,520,1338125,0.0-18.0-0.0-0.28,3671,2,1
29,3,object_07,object_08,-1.0,-1,-1,-1.0,0.0,-,,1,467,0,3,1,library_29,2,memory-2step-stake-s,521,1344634,0.0-18.0-0.0-0.29,3671,6,5
30,3,object_08,object_07,629.07,6,2,639.345,0.3333333333333333,2,object_05,1,470,0,2,3,library_17,2,memory-2step-stake-s,522,1352792,0.0-18.0-0.0-0.30,3671,5,6
31,2,object_02,object_01,414.44,3,1,576.765,0.2222222222222222,1,object_03,5,480,0,2,4,forest_10,2,memory-2step-stake-s,523,1360786,0.0-18.0-0.0-0.31,3671,3,4
32,4,object_04,object_10,973.97,7,2,761.005,0.2222222222222222,1,object_03,1,482,0,2,4,restaurant_12,2,memory-2step-stake-s,524,1368963,0.0-18.0-0.0-0.32,3671,8,7
33,3,object_07,object_08,661.85,6,1,463.495,0.4444444444444444,2,object_05,1,486,0,5,4,library_24,2,memory-2step-stake-s,525,1377043,0.0-18.0-0.0-0.33,3671,6,5
34,2,object_01,object_02,813.0800001,4,1,510.655,0.5555555555555556,2,object_05,5,511,0,6,5,forest_22,2,memory-2step-stake-s,526,1385272,0.0-18.0-0.0-0.34,3671,4,3
35,2,object_01,object_02,1175.145,4,1,674.77,0.3333333333333333,2,object_05,5,526,0,7,3,forest_13,2,memory-2step-stake-s,527,1393464,0.0-18.0-0.0-0.35,3671,4,3
36,4,object_04,object_10,1287.03,8,1,674.54,0.4444444444444444,2,object_05,1,530,0,8,4,restaurant_26,2,memory-2step-stake-s,528,1401757,0.0-18.0-0.0-0.36,3671,8,7
37,3,object_08,object_07,995.45,6,2,615.2,0.7777777777777778,2,object_05,1,537,0,8,7,library_22,2,memory-2step-stake-s,529,1410292,0.0-18.0-0.0-0.37,3671,5,6
38,4,object_04,object_10,1058.545,8,1,668.48,0.4444444444444444,2,object_05,1,541,0,8,4,restaurant_24,2,memory-2step-stake-s,530,1418583,0.0-18.0-0.0-0.38,3671,8,7
39,2,object_02,object_01,1159.97,4,2,706.415,0.3333333333333333,2,object_05,5,556,0,8,3,forest_17,2,memory-2step-stake-s,531,1426808,0.0-18.0-0.0-0.39,3671,3,4
40,4,object_04,object_10,1095.495,7,2,649.55,0.8888888888888888,1,object_03,1,564,0,8,3,restaurant_23,2,memory-2step-stake-s,532,1435485,0.0-18.0-0.0-0.40,3671,8,7
41,1,object_09,object_06,890.72,1,2,605.99,0.8888888888888888,1,object_03,1,572,0,8,2,desert_7,2,memory-2step-stake-s,533,1444113,0.0-18.0-0.0-0.41,3671,2,1
42,3,object_08,object_07,998.785,5,1,578.68,1.0,1,object_03,1,581,0,9,3,library_22,2,memory-2step-stake-s,534,1452817,0.0-18.0-0.0-0.42,3671,5,6
43,4,object_04,object_10,1391.275,7,2,691.105,0.7777777777777778,1,object_03,5,616,0,7,1,restaurant_14,2,memory-2step-stake-s,535,1461428,0.0-18.0-0.0-0.43,3671,8,7
44,2,object_01,object_02,947.965,3,2,919.37,0.6666666666666666,1,object_03,1,622,0,6,2,forest_7,2,memory-2step-stake-s,536,1470168,0.0-18.0-0.0-0.44,3671,4,3
45,4,object_04,object_10,838.85,8,1,520.525,0.2222222222222222,2,object_05,1,624,0,5,2,restaurant_11,2,memory-2step-stake-s,537,1478106,0.0-18.0-0.0-0.45,3671,8,7
46,1,object_09,object_06,748.805,1,2,542.56,0.1111111111111111,1,object_03,5,629,0,1,3,desert_32,2,memory-2step-stake-s,538,1485968,0.0-18.0-0.0-0.46,3671,2,1
47,1,object_09,object_06,1086.71,2,1,659.095,0.3333333333333333,2,object_05,5,644,0,4,3,desert_29,2,memory-2step-stake-s,539,1494145,0.0-18.0-0.0-0.47,3671,2,1
48,3,object_08,object_07,1232.1,6,2,441.54,0.4444444444444444,2,object_05,5,664,0,6,4,library_22,2,memory-2step-stake-s,540,1502204,0.0-18.0-0.0-0.48,3671,5,6
49,2,object_02,object_01,875.14,4,2,503.285,0.4444444444444444,2,object_05,5,684,0,5,4,forest_7,2,memory-2step-stake-s,541,1510326,0.0-18.0-0.0-0.49,3671,3,4
50,2,object_01,object_02,841.78,4,1,795.785,0.4444444444444444,2,object_05,5,704,0,2,4,forest_22,2,memory-2step-stake-s,542,1518739,0.0-18.0-0.0-0.50,3671,4,3
51,1,object_06,object_09,804.575,2,2,663.245,0.6666666666666666,2,object_05,5,734,0,4,6,desert_2,2,memory-2step-stake-s,543,1527223,0.0-18.0-0.0-0.51,3671,1,2
52,3,object_08,object_07,1088.81,6,2,667.205,0.4444444444444444,2,object_05,5,754,0,4,4,library_5,2,memory-2step-stake-s,544,1535508,0.0-18.0-0.0-0.52,3671,5,6
53,4,object_10,object_04,988.21,8,2,471.25,0.3333333333333333,2,object_05,1,757,0,5,3,restaurant_12,2,memory-2step-stake-s,545,1543496,0.0-18.0-0.0-0.53,3671,7,8
54,1,object_09,object_06,-1.0,-1,-1,-1.0,0.0,-,,5,757,0,2,3,desert_20,2,memory-2step-stake-s,546,1550003,0.0-18.0-0.0-0.54,3671,2,1
55,4,object_10,object_04,1020.74,7,1,327.4,0.3333333333333333,1,object_03,5,772,0,3,1,restaurant_28,2,memory-2step-stake-s,547,1557849,0.0-18.0-0.0-0.55,3671,7,8
56,1,object_06,object_09,741.95,1,1,424.39,0.2222222222222222,1,object_03,5,782,0,2,2,desert_8,2,memory-2step-stake-s,548,1565690,0.0-18.0-0.0-0.56,3671,1,2
57,1,object_09,object_06,748.715,2,1,519.905,0.0,2,object_05,5,782,0,3,0,desert_2,2,memory-2step-stake-s,549,1573424,0.0-18.0-0.0-0.57,3671,2,1
58,4,object_10,object_04,1208.175,7,1,451.715,0.2222222222222222,1,object_03,1,784,0,2,1,restaurant_25,2,memory-2step-stake-s,550,1581290,0.0-18.0-0.0-0.58,3671,7,8
59,2,object_01,object_02,733.29,3,2,705.045,0.2222222222222222,1,object_03,5,794,0,2,1,forest_27,2,memory-2step-stake-s,551,1589411,0.0-18.0-0.0-0.59,3671,4,3
60,2,object_02,object_01,892.62,4,2,495.435,0.3333333333333333,2,object_05,5,809,0,1,3,forest_1,2,memory-2step-stake-s,552,1597425,0.0-18.0-0.0-0.60,3671,3,4
61,3,object_08,object_07,950.93,6,2,841.565,0.1111111111111111,2,object_05,5,814,0,0,1,library_9,2,memory-2step-stake-s,553,1605581,0.0-18.0-0.0-0.61,3671,5,6
62,1,object_09,object_06,723.47,1,2,590.25,0.3333333333333333,1,object_03,5,829,0,3,2,desert_7,2,memory-2step-stake-s,554,1613688,0.0-18.0-0.0-0.62,3671,2,1
63,3,object_07,object_08,1095.53,6,1,754.68,0.1111111111111111,2,object_05,1,830,0,0,1,library_23,2,memory-2step-stake-s,555,1621757,0.0-18.0-0.0-0.63,3671,6,5
64,2,object_02,object_01,778.105,3,1,701.505,0.3333333333333333,1,object_03,5,845,0,3,2,forest_18,2,memory-2step-stake-s,556,1629975,0.0-18.0-0.0-0.64,3671,3,4
65,3,object_07,object_08,950.75,5,2,409.28,0.4444444444444444,1,object_03,5,865,0,4,2,library_24,2,memory-2step-stake-s,557,1638004,0.0-18.0-0.0-0.65,3671,6,5
66,2,object_01,object_02,1025.21,3,2,643.39,0.0,1,object_03,5,865,0,0,2,forest_13,2,memory-2step-stake-s,558,1645865,0.0-18.0-0.0-0.66,3671,4,3
67,4,object_04,object_10,718.93,8,1,649.955,0.4444444444444444,2,object_05,1,869,0,1,4,restaurant_6,2,memory-2step-stake-s,559,1654132,0.0-18.0-0.0-0.67,3671,8,7
68,2,object_01,object_02,787.475,4,1,1045.68,0.3333333333333333,2,object_05,5,884,0,2,3,forest_23,2,memory-2step-stake-s,560,1662698,0.0-18.0-0.0-0.68,3671,4,3
69,2,object_01,object_02,1106.555,3,2,462.19,0.0,1,object_03,5,884,0,0,3,forest_10,2,memory-2step-stake-s,561,1670376,0.0-18.0-0.0-0.69,3671,4,3
70,4,object_10,object_04,958.48,8,2,377.47,0.4444444444444444,2,object_05,1,888,0,1,4,restaurant_22,2,memory-2step-stake-s,562,1678375,0.0-18.0-0.0-0.70,3671,7,8
71,4,object_04,object_10,872.49,8,1,810.79,0.4444444444444444,2,object_05,1,892,0,2,4,restaurant_21,2,memory-2step-stake-s,563,1686802,0.0-18.0-0.0-0.71,3671,8,7
72,1,object_09,object_06,807.41,1,2,442.63,0.3333333333333333,1,object_03,5,907,0,3,4,desert_22,2,memory-2step-stake-s,564,1694760,0.0-18.0-0.0-0.72,3671,2,1
73,4,object_04,object_10,607.62,8,1,475.185,0.3333333333333333,2,object_05,1,910,0,5,3,restaurant_1,2,memory-2step-stake-s,565,1702751,0.0-18.0-0.0-0.73,3671,8,7
74,4,object_10,object_04,815.965,7,1,530.08,0.2222222222222222,1,object_03,1,912,0,2,6,restaurant_15,2,memory-2step-stake-s,566,1710698,0.0-18.0-0.0-0.74,3671,7,8
75,4,object_04,object_10,1141.58,8,1,656.44,0.4444444444444444,2,object_05,1,916,0,4,4,restaurant_22,2,memory-2step-stake-s,567,1718972,0.0-18.0-0.0-0.75,3671,8,7
76,4,object_04,object_10,656.95,8,1,460.405,0.5555555555555556,2,object_05,1,921,0,1,5,restaurant_11,2,memory-2step-stake-s,568,1727154,0.0-18.0-0.0-0.76,3671,8,7
77,4,object_04,object_10,645.63,8,1,849.69,0.5555555555555556,2,object_05,1,926,0,2,5,restaurant_21,2,memory-2step-stake-s,569,1735720,0.0-18.0-0.0-0.77,3671,8,7
78,1,object_09,object_06,1375.52,2,1,417.955,0.4444444444444444,2,object_05,5,946,0,0,4,desert_16,2,memory-2step-stake-s,570,1743757,0.0-18.0-0.0-0.78,3671,2,1
79,1,object_06,object_09,898.09,2,2,446.54,0.4444444444444444,2,object_05,1,950,0,1,4,desert_29,2,memory-2step-stake-s,571,1751821,0.0-18.0-0.0-0.79,3671,1,2
80,2,object_02,object_01,625.935,3,1,588.49,0.4444444444444444,1,object_03,5,970,0,4,6,forest_25,2,memory-2step-stake-s,572,1760028,0.0-18.0-0.0-0.80,3671,3,4
81,1,object_09,object_06,801.93,1,2,436.475,0.3333333333333333,1,object_03,5,985,0,3,7,desert_17,2,memory-2step-stake-s,573,1767984,0.0-18.0-0.0-0.81,3671,2,1
82,2,object_02,object_01,764.97,3,1,719.04,0.0,1,object_03,5,985,0,0,8,forest_8,2,memory-2step-stake-s,574,1775919,0.0-18.0-0.0-0.82,3671,3,4
83,4,object_10,object_04,871.455,8,2,466.3,0.7777777777777778,2,object_05,1,992,0,1,7,restaurant_25,2,memory-2step-stake-s,575,1784307,0.0-18.0-0.0-0.83,3671,7,8
84,2,object_02,object_01,931.55,4,2,781.665,0.6666666666666666,2,object_05,5,1022,0,1,6,forest_31,2,memory-2step-stake-s,576,1792910,0.0-18.0-0.0-0.84,3671,3,4
85,3,object_07,object_08,825.685,6,1,797.435,0.7777777777777778,2,object_05,1,1029,0,1,7,library_12,2,memory-2step-stake-s,577,1801623,0.0-18.0-0.0-0.85,3671,6,5
86,4,object_10,object_04,1144.32,8,2,562.43,0.7777777777777778,2,object_05,1,1036,0,1,7,restaurant_26,2,memory-2step-stake-s,578,1810110,0.0-18.0-0.0-0.86,3671,7,8
87,3,object_07,object_08,519.765,6,1,635.66,0.6666666666666666,2,object_05,1,1042,0,1,6,library_16,2,memory-2step-stake-s,579,1818565,0.0-18.0-0.0-0.87,3671,6,5
88,1,object_09,object_06,937.9200001,1,2,749.725,0.1111111111111111,1,object_03,1,1043,0,1,5,desert_12,2,memory-2step-stake-s,580,1826629,0.0-18.0-0.0-0.88,3671,2,1
89,1,object_06,object_09,818.3,2,2,461.225,0.6666666666666666,2,object_05,5,1073,0,4,6,desert_26,2,memory-2step-stake-s,581,1834910,0.0-18.0-0.0-0.89,3671,1,2
90,2,object_01,object_02,1144.53,3,2,435.56,0.2222222222222222,1,object_03,5,1083,0,2,6,forest_29,2,memory-2step-stake-s,582,1842762,0.0-18.0-0.0-0.90,3671,4,3
91,3,object_07,object_08,796.81,6,1,727.675,0.7777777777777778,2,object_05,1,1090,0,5,7,library_15,2,memory-2step-stake-s,583,1851411,0.0-18.0-0.0-0.91,3671,6,5
92,4,object_10,object_04,876.085,8,2,797.805,0.6666666666666666,2,object_05,1,1096,0,4,6,restaurant_14,2,memory-2step-stake-s,584,1860028,0.0-18.0-0.0-0.92,3671,7,8
93,3,object_07,object_08,849.1,6,1,812.67,0.6666666666666666,2,object_05,1,1102,0,5,6,library_2,2,memory-2step-stake-s,585,1868661,0.0-18.0-0.0-0.93,3671,6,5
94,2,object_01,object_02,706.875,4,1,965.22,0.5555555555555556,2,object_05,5,1127,0,8,5,forest_10,2,memory-2step-stake-s,586,1877345,0.0-18.0-0.0-0.94,3671,4,3
95,1,object_06,object_09,1086.47,2,2,666.035,1.0,2,object_05,5,1172,0,8,9,desert_5,2,memory-2step-stake-s,587,1886134,0.0-18.0-0.0-0.95,3671,1,2
96,2,object_02,object_01,737.59,4,2,178.69,0.8888888888888888,2,object_05,5,1212,0,7,8,forest_4,2,memory-2step-stake-s,588,1894338,0.0-18.0-0.0-0.96,3671,3,4
97,1,object_09,object_06,957.44,2,1,481.465,0.6666666666666666,2,object_05,5,1242,0,5,6,desert_17,2,memory-2step-stake-s,589,1902637,0.0-18.0-0.0-0.97,3671,2,1
98,3,object_07,object_08,746.725,6,1,700.57,0.6666666666666666,2,object_05,1,1248,0,9,6,library_9,2,memory-2step-stake-s,590,1911160,0.0-18.0-0.0-0.98,3671,6,5
99,4,object_10,object_04,831.395,8,2,731.43,0.3333333333333333,2,object_05,5,1263,0,8,3,restaurant_23,2,memory-2step-stake-s,591,1919407,0.0-18.0-0.0-0.99,3671,7,8
100,2,object_02,object_01,678.72,3,1,546.675,0.6666666666666666,1,object_03,1,1269,0,6,2,forest_8,2,memory-2step-stake-s,592,1927772,0.0-18.0-0.0-0.100,3671,3,4
101,2,object_02,object_01,1042.38,3,1,437.4,1.0,1,object_03,5,1314,0,9,0,forest_13,2,memory-2step-stake-s,593,1936335,0.0-18.0-0.0-0.101,3671,3,4
102,4,object_10,object_04,890.3049999,7,1,662.02,1.0,1,object_03,5,1359,0,9,3,restaurant_7,2,memory-2step-stake-s,594,1945127,0.0-18.0-0.0-0.102,3671,7,8
103,4,object_10,object_04,695.62,7,1,1048.65,0.8888888888888888,1,object_03,1,1367,0,8,5,restaurant_7,2,memory-2step-stake-s,595,1954200,0.0-18.0-0.0-0.103,3671,7,8
104,4,object_04,object_10,790.5,7,2,593.665,0.8888888888888888,1,object_03,1,1375,0,8,5,restaurant_26,2,memory-2step-stake-s,596,1962820,0.0-18.0-0.0-0.104,3671,8,7
105,1,object_09,object_06,931.47,1,2,533.655,0.8888888888888888,1,object_03,5,1415,0,8,6,desert_11,2,memory-2step-stake-s,597,1971378,0.0-18.0-0.0-0.105,3671,2,1
106,1,object_06,object_09,756.715,1,1,671.4549999,0.7777777777777778,1,object_03,5,1450,0,7,7,desert_16,2,memory-2step-stake-s,598,1979971,0.0-18.0-0.0-0.106,3671,1,2
107,2,object_01,object_02,794.565,3,2,532.97,0.4444444444444444,1,object_03,1,1454,0,4,5,forest_31,2,memory-2step-stake-s,599,1988126,0.0-18.0-0.0-0.107,3671,4,3
108,3,object_07,object_08,752.18,6,1,698.855,0.5555555555555556,2,object_05,1,1459,0,8,5,library_28,2,memory-2step-stake-s,600,1996545,0.0-18.0-0.0-0.108,3671,6,5
109,4,object_10,object_04,884.38,8,2,599.61,0.5555555555555556,2,object_05,1,1464,0,6,5,restaurant_22,2,memory-2step-stake-s,601,2004867,0.0-18.0-0.0-0.109,3671,7,8
110,4,object_10,object_04,699.04,8,2,503.47,0.4444444444444444,2,object_05,1,1468,0,6,4,restaurant_12,2,memory-2step-stake-s,602,2012988,0.0-18.0-0.0-0.110,3671,7,8
111,2,object_01,object_02,746.7899999,4,1,461.23,0.7777777777777778,2,object_05,5,1503,0,6,7,forest_8,2,memory-2step-stake-s,603,2021372,0.0-18.0-0.0-0.111,3671,4,3
112,2,object_01,object_02,579.825,4,1,645.79,0.7777777777777778,2,object_05,1,1510,0,8,7,forest_23,2,memory-2step-stake-s,604,2029940,0.0-18.0-0.0-0.112,3671,4,3
113,4,object_04,object_10,707.75,8,1,581.665,0.8888888888888888,2,object_05,1,1518,0,7,8,restaurant_28,2,memory-2step-stake-s,605,2038545,0.0-18.0-0.0-0.113,3671,8,7
114,2,object_01,object_02,1286.76,3,2,470.78,0.3333333333333333,1,object_03,5,1533,0,3,6,forest_1,2,memory-2step-stake-s,606,2046533,0.0-18.0-0.0-0.114,3671,4,3
115,1,object_09,object_06,857.56,2,1,573.54,0.7777777777777778,2,object_05,5,1568,0,3,7,desert_11,2,memory-2step-stake-s,607,2055029,0.0-18.0-0.0-0.115,3671,2,1
116,2,object_02,object_01,751.33,4,2,451.51,0.5555555555555556,2,object_05,5,1593,0,5,5,forest_29,2,memory-2step-stake-s,608,2063200,0.0-18.0-0.0-0.116,3671,3,4
117,1,object_09,object_06,701.855,2,1,583.635,0.3333333333333333,2,object_05,5,1608,0,3,3,desert_26,2,memory-2step-stake-s,609,2071304,0.0-18.0-0.0-0.117,3671,2,1
118,4,object_04,object_10,678.365,7,2,450.965,0.5555555555555556,1,object_03,1,1613,0,5,1,restaurant_23,2,memory-2step-stake-s,610,2079473,0.0-18.0-0.0-0.118,3671,8,7
119,2,object_01,object_02,950.04,4,1,626.085,0.2222222222222222,2,object_05,5,1623,0,8,2,forest_29,2,memory-2step-stake-s,611,2087513,0.0-18.0-0.0-0.119,3671,4,3
120,4,object_10,object_04,693.115,7,1,752.38,1.0,1,object_03,1,1632,0,9,3,restaurant_6,2,memory-2step-stake-s,612,2096390,0.0-18.0-0.0-0.120,3671,7,8
121,4,object_10,object_04,633.31,7,1,795.815,1.0,1,object_03,1,1641,0,9,5,restaurant_5,2,memory-2step-stake-s,613,2105310,0.0-18.0-0.0-0.121,3671,7,8
122,1,object_09,object_06,840.16,1,2,723.135,0.8888888888888888,1,object_03,5,1681,0,8,2,desert_22,2,memory-2step-stake-s,614,2114059,0.0-18.0-0.0-0.122,3671,2,1
123,3,object_08,object_07,1107.735,5,1,534.285,0.7777777777777778,1,object_03,1,1688,0,7,3,library_27,2,memory-2step-stake-s,615,2122515,0.0-18.0-0.0-0.123,3671,5,6
124,1,object_06,object_09,732.02,1,1,527.735,0.8888888888888888,1,object_03,5,1728,0,8,4,desert_29,2,memory-2step-stake-s,616,2131065,0.0-18.0-0.0-0.124,3671,1,2
125,3,object_08,object_07,1062.455,5,1,498.32,1.0,1,object_03,1,1737,0,9,3,library_15,2,memory-2step-stake-s,617,2139687,0.0-18.0-0.0-0.125,3671,5,6
126,4,object_04,object_10,783.295,7,2,442.64,0.8888888888888888,1,object_03,1,1745,0,8,8,restaurant_28,2,memory-2step-stake-s,618,2148153,0.0-18.0-0.0-0.126,3671,8,7
127,1,object_09,object_06,941.73,1,2,399.97,0.8888888888888888,1,object_03,5,1785,0,8,8,desert_32,2,memory-2step-stake-s,619,2156578,0.0-18.0-0.0-0.127,3671,2,1
128,2,object_01,object_02,902.855,3,2,633.28,0.8888888888888888,1,object_03,5,1825,0,8,7,forest_18,2,memory-2step-stake-s,621,2230928,0.0-18.0-0.1-0.128,3671,4,3
129,4,object_10,object_04,830.38,7,1,680.66,1.0,1,object_03,1,1834,0,9,4,restaurant_1,2,memory-2step-stake-s,622,2239733,0.0-18.0-0.1-0.129,3671,7,8
130,3,object_07,object_08,873.28,5,2,437.345,0.5555555555555556,1,object_03,5,1859,0,5,1,library_24,2,memory-2step-stake-s,623,2247889,0.0-18.0-0.1-0.130,3671,6,5
131,1,object_06,object_09,782.165,1,1,407.22,0.8888888888888888,1,object_03,1,1867,0,8,0,desert_11,2,memory-2step-stake-s,624,2256321,0.0-18.0-0.1-0.131,3671,1,2
132,2,object_01,object_02,941.395,3,2,457.685,0.8888888888888888,1,object_03,5,1907,0,8,3,forest_25,2,memory-2step-stake-s,625,2264800,0.0-18.0-0.1-0.132,3671,4,3
133,4,object_10,object_04,-1.0,-1,-1,-1.0,0.0,-,,1,1907,0,8,3,restaurant_25,2,memory-2step-stake-s,626,2271310,0.0-18.0-0.1-0.133,3671,7,8
134,1,object_06,object_09,705.175,1,1,373.235,0.6666666666666666,1,object_03,5,1937,0,6,6,desert_7,2,memory-2step-stake-s,627,2279501,0.0-18.0-0.1-0.134,3671,1,2
135,1,object_09,object_06,704.81,1,2,658.64,0.5555555555555556,1,object_03,5,1962,0,5,5,desert_8,2,memory-2step-stake-s,628,2287879,0.0-18.0-0.1-0.135,3671,2,1
136,1,object_09,object_06,782.53,1,2,569.48,0.6666666666666666,1,object_03,5,1992,0,6,6,desert_7,2,memory-2step-stake-s,629,2296270,0.0-18.0-0.1-0.136,3671,2,1
137,1,object_06,object_09,744.17,1,1,419.925,0.4444444444444444,1,object_03,5,2012,0,4,8,desert_22,2,memory-2step-stake-s,630,2304306,0.0-18.0-0.1-0.137,3671,1,2
138,2,object_02,object_01,723.285,4,2,415.4,0.8888888888888888,2,object_05,1,2020,0,8,8,forest_29,2,memory-2step-stake-s,631,2312747,0.0-18.0-0.1-0.138,3671,3,4
139,4,object_10,object_04,747.14,8,2,405.9,0.7777777777777778,2,object_05,1,2027,0,8,7,restaurant_9,2,memory-2step-stake-s,632,2321073,0.0-18.0-0.1-0.139,3671,7,8
140,2,object_02,object_01,781.085,4,2,450.495,0.8888888888888888,2,object_05,5,2067,0,8,8,forest_1,2,memory-2step-stake-s,633,2329543,0.0-18.0-0.1-0.140,3671,3,4
141,3,object_08,object_07,744.055,6,2,538.74,0.8888888888888888,2,object_05,1,2075,0,9,8,library_22,2,memory-2step-stake-s,634,2338105,0.0-18.0-0.1-0.141,3671,5,6
142,2,object_01,object_02,869.675,4,1,664.875,0.4444444444444444,2,object_05,5,2095,0,9,4,forest_8,2,memory-2step-stake-s,635,2346387,0.0-18.0-0.1-0.142,3671,4,3
143,3,object_07,object_08,1258.215,5,2,478.615,1.0,1,object_03,1,2104,0,9,3,library_14,2,memory-2step-stake-s,636,2354991,0.0-18.0-0.1-0.143,3671,6,5
144,2,object_02,object_01,935.8,3,1,296.52,0.8888888888888888,1,object_03,5,2144,0,8,6,forest_26,2,memory-2step-stake-s,637,2363313,0.0-18.0-0.1-0.144,3671,3,4
145,4,object_04,object_10,1012.8,7,2,791.19,1.0,1,object_03,1,2153,0,9,5,restaurant_25,2,memory-2step-stake-s,638,2372230,0.0-18.0-0.1-0.145,3671,8,7
146,3,object_07,object_08,807.03,5,2,512.875,0.6666666666666666,1,object_03,1,2159,0,6,4,library_12,2,memory-2step-stake-s,639,2380568,0.0-18.0-0.1-0.146,3671,6,5
147,3,object_07,object_08,847.74,5,2,442.16,0.8888888888888888,1,object_03,1,2167,0,8,2,library_28,2,memory-2step-stake-s,640,2389033,0.0-18.0-0.1-0.147,3671,6,5
148,4,object_10,object_04,700.735,7,1,488.58,0.7777777777777778,1,object_03,1,2174,0,7,3,restaurant_5,2,memory-2step-stake-s,641,2397445,0.0-18.0-0.1-0.148,3671,7,8
149,4,object_04,object_10,753.51,7,2,694.595,0.5555555555555556,1,object_03,1,2179,0,5,4,restaurant_24,2,memory-2step-stake-s,642,2405858,0.0-18.0-0.1-0.149,3671,8,7
150,2,object_01,object_02,1013.525,3,2,792.0,0.5555555555555556,1,object_03,1,2184,0,5,2,forest_17,2,memory-2step-stake-s,643,2414368,0.0-18.0-0.1-0.150,3671,4,3
151,2,object_01,object_02,1014.67,3,2,1392.15,0.2222222222222222,1,object_03,1,2186,0,2,4,forest_18,2,memory-2step-stake-s,644,2423178,0.0-18.0-0.1-0.151,3671,4,3
152,3,object_07,object_08,795.615,6,1,430.335,0.1111111111111111,2,object_05,1,2187,0,5,1,library_12,2,memory-2step-stake-s,645,2430926,0.0-18.0-0.1-0.152,3671,6,5
153,4,object_04,object_10,697.215,8,1,508.21,0.0,2,object_05,1,2187,0,3,0,restaurant_11,2,memory-2step-stake-s,646,2438646,0.0-18.0-0.1-0.153,3671,8,7
154,2,object_02,object_01,1031.98,3,1,610.415,0.4444444444444444,1,object_03,5,2207,0,4,4,forest_27,2,memory-2step-stake-s,647,2446875,0.0-18.0-0.1-0.154,3671,3,4
155,3,object_07,object_08,778.82,5,2,302.76,0.4444444444444444,1,object_03,1,2211,0,4,3,library_6,2,memory-2step-stake-s,648,2454794,0.0-18.0-0.1-0.155,3671,6,5
156,3,object_08,object_07,1155.91,5,1,558.95,0.5555555555555556,1,object_03,1,2216,0,5,6,library_17,2,memory-2step-stake-s,649,2463072,0.0-18.0-0.1-0.156,3671,5,6
157,3,object_07,object_08,748.435,5,2,494.65,0.5555555555555556,1,object_03,1,2221,0,5,4,library_2,2,memory-2step-stake-s,650,2471288,0.0-18.0-0.1-0.157,3671,6,5
158,1,object_06,object_09,1220.855,1,1,510.615,0.8888888888888888,1,object_03,1,2229,0,8,4,desert_27,2,memory-2step-stake-s,651,2479826,0.0-18.0-0.1-0.158,3671,1,2
159,3,object_07,object_08,956.35,5,2,863.97,1.0,1,object_03,1,2238,0,9,5,library_15,2,memory-2step-stake-s,652,2488812,0.0-18.0-0.1-0.159,3671,6,5
160,4,object_04,object_10,1355.79,7,2,1063.105,0.8888888888888888,1,object_03,1,2246,0,8,6,restaurant_24,2,memory-2step-stake-s,653,2497898,0.0-18.0-0.1-0.160,3671,8,7
161,4,object_04,object_10,934.21,8,1,513.685,0.7777777777777778,2,object_05,1,2253,0,6,7,restaurant_1,2,memory-2step-stake-s,654,2506331,0.0-18.0-0.1-0.161,3671,8,7
162,3,object_07,object_08,652.27,6,1,351.72,0.6666666666666666,2,object_05,1,2259,0,9,6,library_23,2,memory-2step-stake-s,655,2514503,0.0-18.0-0.1-0.162,3671,6,5
163,3,object_07,object_08,792.385,6,1,388.545,0.7777777777777778,2,object_05,5,2294,0,7,7,library_1,2,memory-2step-stake-s,656,2522812,0.0-18.0-0.1-0.163,3671,6,5
164,3,object_07,object_08,1267.045,5,2,469.82,0.6666666666666666,1,object_03,1,2300,0,6,8,library_24,2,memory-2step-stake-s,657,2531103,0.0-18.0-0.1-0.164,3671,6,5
165,2,object_01,object_02,926.805,4,1,473.955,0.6666666666666666,2,object_05,5,2330,0,5,6,forest_22,2,memory-2step-stake-s,658,2539397,0.0-18.0-0.1-0.165,3671,4,3
166,3,object_08,object_07,705.735,6,2,451.25,0.8888888888888888,2,object_05,1,2338,0,4,8,library_14,2,memory-2step-stake-s,659,2547871,0.0-18.0-0.1-0.166,3671,5,6
167,4,object_10,object_04,920.17,8,2,539.645,0.7777777777777778,2,object_05,1,2345,0,7,7,restaurant_15,2,memory-2step-stake-s,660,2556332,0.0-18.0-0.1-0.167,3671,7,8
168,3,object_07,object_08,1280.57,5,2,581.54,0.4444444444444444,1,object_03,1,2349,0,4,6,library_15,2,memory-2step-stake-s,661,2564533,0.0-18.0-0.1-0.168,3671,6,5
169,1,object_06,object_09,1049.28,2,2,958.305,0.8888888888888888,2,object_05,5,2389,0,0,8,desert_5,2,memory-2step-stake-s,662,2573512,0.0-18.0-0.1-0.169,3671,1,2
170,1,object_06,object_09,790.29,2,2,914.48,0.7777777777777778,2,object_05,5,2424,0,2,7,desert_20,2,memory-2step-stake-s,663,2582348,0.0-18.0-0.1-0.170,3671,1,2
171,4,object_10,object_04,730.815,8,2,623.09,0.7777777777777778,2,object_05,1,2431,0,4,7,restaurant_5,2,memory-2step-stake-s,664,2590893,0.0-18.0-0.1-0.171,3671,7,8
172,4,object_04,object_10,1265.745,8,1,596.35,0.6666666666666666,2,object_05,1,2437,0,2,6,restaurant_7,2,memory-2step-stake-s,665,2599318,0.0-18.0-0.1-0.172,3671,8,7
173,1,object_09,object_06,1280.83,2,1,811.72,0.6666666666666666,2,object_05,5,2467,0,2,6,desert_12,2,memory-2step-stake-s,666,2607952,0.0-18.0-0.1-0.173,3671,2,1
174,4,object_04,object_10,694.705,7,2,618.07,0.1111111111111111,1,object_03,1,2468,0,1,9,restaurant_22,2,memory-2step-stake-s,667,2615884,0.0-18.0-0.1-0.174,3671,8,7
175,1,object_09,object_06,650.125,2,1,606.5,0.6666666666666666,2,object_05,5,2498,0,4,6,desert_15,2,memory-2step-stake-s,668,2624310,0.0-18.0-0.1-0.175,3671,2,1
176,1,object_06,object_09,785.19,2,2,820.55,0.3333333333333333,2,object_05,5,2513,0,1,3,desert_27,2,memory-2step-stake-s,669,2632648,0.0-18.0-0.1-0.176,3671,1,2
177,2,object_01,object_02,806.735,3,2,618.835,0.1111111111111111,1,object_03,5,2518,0,1,2,forest_17,2,memory-2step-stake-s,670,2640581,0.0-18.0-0.1-0.177,3671,4,3
178,4,object_04,object_10,1208.89,8,1,563.335,0.0,2,object_05,1,2518,0,1,0,restaurant_24,2,memory-2step-stake-s,671,2648360,0.0-18.0-0.1-0.178,3671,8,7
179,3,object_07,object_08,717.74,5,2,696.32,0.2222222222222222,1,object_03,1,2520,0,2,1,library_29,2,memory-2step-stake-s,672,2656472,0.0-18.0-0.1-0.179,3671,6,5
180,1,object_09,object_06,758.03,1,2,599.735,0.4444444444444444,1,object_03,5,2540,0,4,1,desert_27,2,memory-2step-stake-s,673,2664691,0.0-18.0-0.1-0.180,3671,2,1
181,1,object_09,object_06,882.895,1,2,477.8,0.7777777777777778,1,object_03,5,2575,0,7,2,desert_32,2,memory-2step-stake-s,674,2673090,0.0-18.0-0.1-0.181,3671,2,1
182,3,object_08,object_07,787.26,6,2,358.58,0.1111111111111111,2,object_05,1,2576,0,8,1,library_29,2,memory-2step-stake-s,675,2680765,0.0-18.0-0.1-0.182,3671,5,6
183,2,object_01,object_02,825.13,3,2,381.48,0.8888888888888888,1,object_03,5,2616,0,8,2,forest_10,2,memory-2step-stake-s,676,2689169,0.0-18.0-0.1-0.183,3671,4,3
184,4,object_10,object_04,971.91,7,1,678.94,1.0,1,object_03,1,2625,0,9,0,restaurant_9,2,memory-2step-stake-s,677,2697973,0.0-18.0-0.1-0.184,3671,7,8
185,2,object_01,object_02,-1.0,-1,-1,-1.0,0.0,-,,5,2625,0,8,1,forest_4,2,memory-2step-stake-s,678,2704482,0.0-18.0-0.1-0.185,3671,4,3
186,4,object_04,object_10,668.605,7,2,583.74,0.7777777777777778,1,object_03,1,2632,0,7,0,restaurant_1,2,memory-2step-stake-s,679,2712987,0.0-18.0-0.1-0.186,3671,8,7
187,1,object_06,object_09,748.11,1,1,391.295,0.4444444444444444,1,object_03,1,2636,0,4,2,desert_17,2,memory-2step-stake-s,680,2720996,0.0-18.0-0.1-0.187,3671,1,2
188,3,object_08,object_07,1138.67,5,1,445.705,0.5555555555555556,1,object_03,5,2661,0,5,2,library_1,2,memory-2step-stake-s,681,2729161,0.0-18.0-0.1-0.188,3671,5,6
189,1,object_09,object_06,805.885,1,2,511.65,0.6666666666666666,1,object_03,5,2691,0,6,4,desert_25,2,memory-2step-stake-s,682,2737496,0.0-18.0-0.1-0.189,3671,2,1
190,3,object_08,object_07,934.01,5,1,562.635,0.7777777777777778,1,object_03,1,2698,0,7,4,library_23,2,memory-2step-stake-s,683,2745979,0.0-18.0-0.1-0.190,3671,5,6
191,3,object_07,object_08,834.055,5,2,812.93,0.5555555555555556,1,object_03,5,2723,0,5,5,library_29,2,memory-2step-stake-s,684,2754514,0.0-18.0-0.1-0.191,3671,6,5
192,2,object_02,object_01,669.785,3,1,464.885,0.3333333333333333,1,object_03,5,2738,0,3,6,forest_26,2,memory-2step-stake-s,685,2762493,0.0-18.0-0.1-0.192,3671,3,4
193,2,object_01,object_02,713.275,4,1,435.46,0.7777777777777778,2,object_05,5,2773,0,3,7,forest_13,2,memory-2step-stake-s,686,2770852,0.0-18.0-0.1-0.193,3671,4,3
194,2,object_02,object_01,675.01,4,2,638.29,0.8888888888888888,2,object_05,5,2813,0,1,8,forest_7,2,memory-2step-stake-s,687,2779511,0.0-18.0-0.1-0.194,3671,3,4
195,2,object_01,object_02,973.205,4,1,529.97,0.8888888888888888,2,object_05,5,2853,0,2,8,forest_4,2,memory-2step-stake-s,688,2788064,0.0-18.0-0.1-0.195,3671,4,3
196,4,object_10,object_04,692.505,8,2,400.475,0.5555555555555556,2,object_05,5,2878,0,0,5,restaurant_12,2,memory-2step-stake-s,689,2796184,0.0-18.0-0.1-0.196,3671,7,8
197,4,object_10,object_04,789.705,8,2,408.22,0.4444444444444444,2,object_05,1,2882,0,0,4,restaurant_9,2,memory-2step-stake-s,690,2804210,0.0-18.0-0.1-0.197,3671,7,8
198,1,object_06,object_09,531.11,1,1,437.355,0.2222222222222222,1,object_03,5,2892,0,2,6,desert_25,2,memory-2step-stake-s,691,2812063,0.0-18.0-0.1-0.198,3671,1,2
199,2,object_02,object_01,638.595,3,1,361.42,0.3333333333333333,1,object_03,1,2895,0,3,8,forest_17,2,memory-2step-stake-s,692,2819944,0.0-18.0-0.1-0.199,3671,3,4
200,4,object_10,object_04,772.435,7,1,447.065,0.4444444444444444,1,object_03,5,2915,0,4,5,restaurant_9,2,memory-2step-stake-s,693,2828011,0.0-18.0-0.1-0.200,3671,7,8
201,1,object_06,object_09,707.045,1,1,551.86,0.4444444444444444,1,object_03,5,2935,0,4,4,desert_16,2,memory-2step-stake-s,694,2836180,0.0-18.0-0.1-0.201,3671,1,2
202,1,object_09,object_06,794.84,1,2,469.92,0.2222222222222222,1,object_03,5,2945,0,2,5,desert_12,2,memory-2step-stake-s,695,2844064,0.0-18.0-0.1-0.202,3671,2,1
203,1,object_09,object_06,639.35,2,1,401.495,0.6666666666666666,2,object_05,5,2975,0,2,6,desert_15,2,memory-2step-stake-s,696,2852285,0.0-18.0-0.1-0.203,3671,2,1
204,2,object_01,object_02,704.715,4,1,1450.06,0.4444444444444444,2,object_05,5,2995,0,2,4,forest_23,2,memory-2step-stake-s,697,2861353,0.0-18.0-0.1-0.204,3671,4,3
205,1,object_06,object_09,1018.67,2,2,371.675,0.3333333333333333,2,object_05,1,2998,0,7,3,desert_2,2,memory-2step-stake-s,698,2869245,0.0-18.0-0.1-0.205,3671,1,2
206,2,object_01,object_02,722.185,3,2,486.055,0.8888888888888888,1,object_03,1,3006,0,8,2,forest_22,2,memory-2step-stake-s,699,2877752,0.0-18.0-0.1-0.206,3671,4,3
207,3,object_07,object_08,-1.0,-1,-1,-1.0,0.0,-,,5,3006,0,7,2,library_16,2,memory-2step-stake-s,700,2884262,0.0-18.0-0.1-0.207,3671,6,5
208,3,object_07,object_08,823.895,5,2,369.18,0.6666666666666666,1,object_03,1,3012,0,6,2,library_9,2,memory-2step-stake-s,701,2892451,0.0-18.0-0.1-0.208,3671,6,5
209,3,object_07,object_08,570.375,5,2,605.79,0.4444444444444444,1,object_03,1,3016,0,4,5,library_27,2,memory-2step-stake-s,702,2900676,0.0-18.0-0.1-0.209,3671,6,5
210,4,object_04,object_10,922.69,7,2,423.115,0.5555555555555556,1,object_03,1,3021,0,5,6,restaurant_5,2,memory-2step-stake-s,703,2908817,0.0-18.0-0.1-0.210,3671,8,7
211,2,object_01,object_02,739.715,3,2,488.51,0.5555555555555556,1,object_03,5,3046,0,5,5,forest_16,2,memory-2step-stake-s,704,2917026,0.0-18.0-0.1-0.211,3671,4,3
212,4,object_04,object_10,730.92,7,2,548.245,0.6666666666666666,1,object_03,1,3052,0,6,3,restaurant_11,2,memory-2step-stake-s,705,2925397,0.0-18.0-0.1-0.212,3671,8,7
213,1,object_06,object_09,738.28,1,1,460.565,0.5555555555555556,1,object_03,5,3077,0,5,1,desert_8,2,memory-2step-stake-s,706,2933576,0.0-18.0-0.1-0.213,3671,1,2
214,1,object_09,object_06,916.795,1,2,583.465,0.4444444444444444,1,object_03,5,3097,0,4,4,desert_2,2,memory-2step-stake-s,707,2941780,0.0-18.0-0.1-0.214,3671,2,1
215,1,object_09,object_06,472.71,2,1,403.95,0.1111111111111111,2,object_05,5,3102,0,2,1,desert_15,2,memory-2step-stake-s,708,2949501,0.0-18.0-0.1-0.215,3671,2,1
216,1,object_09,object_06,512.24,1,2,418.755,0.3333333333333333,1,object_03,5,3117,0,3,2,desert_5,2,memory-2step-stake-s,709,2957439,0.0-18.0-0.1-0.216,3671,2,1
217,3,object_07,object_08,647.155,6,1,418.655,0.2222222222222222,2,object_05,1,3119,0,2,2,library_2,2,memory-2step-stake-s,710,2965273,0.0-18.0-0.1-0.217,3671,6,5
218,3,object_08,object_07,891.2,6,2,558.885,0.1111111111111111,2,object_05,1,3120,0,6,1,library_17,2,memory-2step-stake-s,711,2973149,0.0-18.0-0.1-0.218,3671,5,6
219,2,object_01,object_02,1144.93,3,2,819.215,0.7777777777777778,1,object_03,1,3127,0,7,1,forest_31,2,memory-2step-stake-s,712,2981892,0.0-18.0-0.1-0.219,3671,4,3
220,3,object_07,object_08,665.445,5,2,645.14,0.6666666666666666,1,object_03,1,3133,0,6,2,library_6,2,memory-2step-stake-s,713,2990358,0.0-18.0-0.1-0.220,3671,6,5
221,3,object_07,object_08,863.615,5,2,450.76,0.6666666666666666,1,object_03,1,3139,0,6,0,library_5,2,memory-2step-stake-s,714,2998629,0.0-18.0-0.1-0.221,3671,6,5
222,4,object_04,object_10,585.11,7,2,485.165,0.4444444444444444,1,object_03,1,3143,0,4,2,restaurant_21,2,memory-2step-stake-s,715,3006732,0.0-18.0-0.1-0.222,3671,8,7
223,4,object_10,object_04,800.925,7,1,355.535,0.1111111111111111,1,object_03,5,3148,0,1,6,restaurant_7,2,memory-2step-stake-s,716,3014402,0.0-18.0-0.1-0.223,3671,7,8
224,1,object_06,object_09,546.93,2,2,565.395,1.0,2,object_05,5,3193,0,4,9,desert_20,2,memory-2step-stake-s,717,3023095,0.0-18.0-0.1-0.224,3671,1,2
225,1,object_09,object_06,847.625,2,1,458.925,0.8888888888888888,2,object_05,5,3233,0,2,8,desert_32,2,memory-2step-stake-s,718,3031577,0.0-18.0-0.1-0.225,3671,2,1
226,3,object_08,object_07,1461.5,6,2,617.035,0.8888888888888888,2,object_05,1,3241,0,1,8,library_28,2,memory-2step-stake-s,719,3040216,0.0-18.0-0.1-0.226,3671,5,6
227,2,object_02,object_01,743.345,4,2,393.825,0.6666666666666666,2,object_05,5,3271,0,1,6,forest_25,2,memory-2step-stake-s,720,3048429,0.0-18.0-0.1-0.227,3671,3,4
228,3,object_07,object_08,720.48,6,1,514.48,0.2222222222222222,2,object_05,1,3273,0,3,2,library_2,2,memory-2step-stake-s,721,3056361,0.0-18.0-0.1-0.228,3671,6,5
229,3,object_07,object_08,683.795,5,2,399.56,0.2222222222222222,1,object_03,5,3283,0,2,1,library_16,2,memory-2step-stake-s,722,3064175,0.0-18.0-0.1-0.229,3671,6,5
230,1,object_09,object_06,719.25,1,2,401.535,0.2222222222222222,1,object_03,5,3293,0,2,4,desert_12,2,memory-2step-stake-s,723,3071993,0.0-18.0-0.1-0.230,3671,2,1
231,3,object_07,object_08,846.235,6,1,409.66,0.4444444444444444,2,object_05,1,3297,0,4,4,library_17,2,memory-2step-stake-s,724,3080019,0.0-18.0-0.1-0.231,3671,6,5
232,3,object_07,object_08,667.455,6,1,1126.735,0.6666666666666666,2,object_05,1,3303,0,6,6,library_6,2,memory-2step-stake-s,725,3088963,0.0-18.0-0.1-0.232,3671,6,5
233,2,object_01,object_02,864.77,4,1,676.13,0.8888888888888888,2,object_05,5,3343,0,6,8,forest_31,2,memory-2step-stake-s,726,3097664,0.0-18.0-0.1-0.233,3671,4,3
234,3,object_08,object_07,1165.395,6,2,480.76,0.8888888888888888,2,object_05,1,3351,0,6,8,library_5,2,memory-2step-stake-s,727,3106169,0.0-18.0-0.1-0.234,3671,5,6
235,1,object_06,object_09,798.005,2,2,546.02,1.0,2,object_05,5,3396,0,9,9,desert_17,2,memory-2step-stake-s,728,3114836,0.0-18.0-0.1-0.235,3671,1,2
236,2,object_02,object_01,825.635,4,2,492.315,0.8888888888888888,2,object_05,5,3436,0,8,8,forest_16,2,memory-2step-stake-s,729,3123355,0.0-18.0-0.1-0.236,3671,3,4
237,4,object_04,object_10,987.92,7,2,279.66,1.0,1,object_03,1,3445,0,9,8,restaurant_14,2,memory-2step-stake-s,730,3131756,0.0-18.0-0.1-0.237,3671,8,7
238,1,object_09,object_06,657.18,1,2,333.03,1.0,1,object_03,5,3490,0,9,9,desert_26,2,memory-2step-stake-s,731,3140212,0.0-18.0-0.1-0.238,3671,2,1
239,1,object_09,object_06,616.62,1,2,387.735,0.8888888888888888,1,object_03,5,3530,0,8,7,desert_22,2,memory-2step-stake-s,732,3148623,0.0-18.0-0.1-0.239,3671,2,1
240,2,object_02,object_01,803.89,4,2,646.33,0.8888888888888888,2,object_05,5,3570,0,9,8,forest_27,2,memory-2step-stake-s,733,3157294,0.0-18.0-0.1-0.240,3671,3,4
241,1,object_06,object_09,664.465,2,2,1034.545,0.8888888888888888,2,object_05,5,3610,0,5,8,desert_25,2,memory-2step-stake-s,734,3166350,0.0-18.0-0.1-0.241,3671,1,2
242,3,object_08,object_07,823.49,6,2,443.26,0.4444444444444444,2,object_05,1,3614,0,6,4,library_6,2,memory-2step-stake-s,735,3174412,0.0-18.0-0.1-0.242,3671,5,6
243,2,object_02,object_01,674.37,3,1,381.505,0.4444444444444444,1,object_03,5,3634,0,4,1,forest_23,2,memory-2step-stake-s,736,3182411,0.0-18.0-0.1-0.243,3671,3,4
244,2,object_02,object_01,730.505,3,1,572.76,0.6666666666666666,1,object_03,5,3664,0,6,3,forest_26,2,memory-2step-stake-s,737,3190806,0.0-18.0-0.1-0.244,3671,3,4
245,1,object_09,object_06,1103.825,1,2,385.945,0.7777777777777778,1,object_03,5,3699,0,7,1,desert_11,2,memory-2step-stake-s,738,3199114,0.0-18.0-0.1-0.245,3671,2,1
246,1,object_09,object_06,580.545,1,2,465.02,0.6666666666666666,1,object_03,5,3729,0,6,0,desert_16,2,memory-2step-stake-s,739,3207400,0.0-18.0-0.1-0.246,3671,2,1
247,3,object_07,object_08,869.165,5,2,447.74,0.2222222222222222,1,object_03,5,3739,0,2,1,library_14,2,memory-2step-stake-s,740,3215265,0.0-18.0-0.1-0.247,3671,6,5
248,4,object_10,object_04,812.085,8,2,574.73,0.0,2,object_05,5,3739,0,0,0,restaurant_6,2,memory-2step-stake-s,741,3223055,0.0-18.0-0.1-0.248,3671,7,8
249,4,object_04,object_10,926.165,8,1,617.425,0.2222222222222222,2,object_05,1,3741,0,1,2,restaurant_26,2,memory-2step-stake-s,742,3231089,0.0-18.0-0.1-0.249,3671,8,7
250,4,object_10,object_04,748.59,7,1,439.855,0.1111111111111111,1,object_03,1,3742,0,1,3,restaurant_6,2,memory-2step-stake-s,743,3238845,0.0-18.0-0.1-0.250,3671,7,8
251,2,object_01,object_02,910.95,4,1,392.895,0.3333333333333333,2,object_05,5,3757,0,0,3,forest_7,2,memory-2step-stake-s,744,3246760,0.0-18.0-0.1-0.251,3671,4,3
252,3,object_08,object_07,758.19,6,2,394.015,0.6666666666666666,2,object_05,1,3763,0,0,6,library_27,2,memory-2step-stake-s,745,3254974,0.0-18.0-0.1-0.252,3671,5,6
253,2,object_01,object_02,608.035,4,1,411.33,0.2222222222222222,2,object_05,5,3773,0,1,2,forest_18,2,memory-2step-stake-s,746,3262801,0.0-18.0-0.1-0.253,3671,4,3
254,3,object_08,object_07,708.29,6,2,504.46,0.5555555555555556,2,object_05,1,3778,0,2,5,library_23,2,memory-2step-stake-s,747,3271024,0.0-18.0-0.1-0.254,3671,5,6
255,1,object_09,object_06,852.925,2,1,624.65,0.6666666666666666,2,object_05,5,3808,0,1,6,desert_15,2,memory-2step-stake-s,748,3279472,0.0-18.0-0.1-0.255,3671,2,1
