,state1,stim_left,stim_right,rt_1,choice1,response1,rt_2,points,state2,stim_state2,stake,score,practice,rews1,rews2,background,high_arm,trial_type,trial_index,time_elapsed,internal_node_id,subid,stim_left_num,stim_right_num
0,4,object_05,object_01,-1.0,-1,-1,-1.0,0.0,-,,1,0,0,1,2,restaurant_26,2,memory-2step-stake-s,489,932017,0.0-18.0-0.0-0.0,3506,8,7
1,2,object_04,object_02,540.285,4,2,967.27,0.1111111111111111,2,object_10,5,5,0,3,1,forest_26,2,memory-2step-stake-s,490,940329,0.0-18.0-0.0-0.1,3506,3,4
2,1,object_03,object_06,934.295,1,1,1428.675,0.3333333333333333,1,object_07,5,20,0,3,2,desert_11,2,memory-2step-stake-s,491,949319,0.0-18.0-0.0-0.2,3506,1,2
3,3,object_08,object_09,1157.615,5,2,805.03,0.2222222222222222,1,object_07,1,22,0,2,3,library_1,2,memory-2step-stake-s,492,957568,0.0-18.0-0.0-0.3,3506,6,5
4,1,object_03,object_06,-1.0,-1,-1,-1.0,0.0,-,,5,22,0,1,4,desert_27,2,memory-2step-stake-s,493,964101,0.0-18.0-0.0-0.4,3506,1,2
5,3,object_08,object_09,873.32,6,1,861.095,0.2222222222222222,2,object_10,1,24,0,0,2,library_24,2,memory-2step-stake-s,494,972413,0.0-18.0-0.0-0.5,3506,6,5
6,1,object_03,object_06,934.27,1,1,1129.045,0.1111111111111111,1,object_07,1,25,0,1,2,desert_6,2,memory-2step-stake-s,495,980889,0.0-18.0-0.0-0.6,3506,1,2
7,3,object_09,object_08,957.615,5,1,986.665,0.4444444444444444,1,object_07,5,45,0,4,3,library_16,2,memory-2step-stake-s,496,989544,0.0-18.0-0.0-0.7,3506,5,6
8,3,object_09,object_08,-1.0,-1,-1,-1.0,0.0,-,,1,45,0,6,0,library_28,2,memory-2step-stake-s,497,996084,0.0-18.0-0.0-0.8,3506,5,6
9,3,object_08,object_09,900.805,5,2,1265.125,0.7777777777777778,1,object_07,1,52,0,7,2,library_2,2,memory-2step-stake-s,498,1005318,0.0-18.0-0.0-0.9,3506,6,5
10,4,object_05,object_01,863.24,8,1,942.99,0.4444444444444444,2,object_10,5,72,0,8,4,restaurant_19,2,memory-2step-stake-s,499,1013923,0.0-18.0-0.0-0.10,3506,8,7
11,4,object_01,object_05,1048.755,7,1,969.82,0.8888888888888888,1,object_07,1,80,0,8,2,restaurant_27,2,memory-2step-stake-s,500,1022972,0.0-18.0-0.0-0.11,3506,7,8
12,4,object_05,object_01,909.82,8,1,558.215,0.4444444444444444,2,object_10,5,100,0,8,4,restaurant_25,2,memory-2step-stake-s,501,1031197,0.0-18.0-0.0-0.12,3506,8,7
13,4,object_05,object_01,875.265,8,1,538.345,0.6666666666666666,2,object_10,1,106,0,9,6,restaurant_18,2,memory-2step-stake-s,502,1039612,0.0-18.0-0.0-0.13,3506,8,7
14,3,object_08,object_09,602.835,5,2,585.17,0.8888888888888888,1,object_07,5,146,0,8,6,library_16,2,memory-2step-stake-s,503,1048278,0.0-18.0-0.0-0.14,3506,6,5
15,3,object_09,object_08,636.0,6,2,1101.135,0.4444444444444444,2,object_10,1,150,0,9,4,library_5,2,memory-2step-stake-s,504,1057037,0.0-18.0-0.0-0.15,3506,5,6
16,2,object_02,object_04,888.625,4,1,1030.595,0.4444444444444444,2,object_10,1,154,0,8,4,forest_29,2,memory-2step-stake-s,505,1065733,0.0-18.0-0.0-0.16,3506,4,3
17,1,object_03,object_06,737.46,2,2,1094.42,0.6666666666666666,2,object_10,5,184,0,9,6,desert_17,2,memory-2step-stake-s,506,1074701,0.0-18.0-0.0-0.17,3506,1,2
18,3,object_09,object_08,879.455,5,1,880.07,1.0,1,object_07,1,193,0,9,4,library_29,2,memory-2step-stake-s,507,1083772,0.0-18.0-0.0-0.18,3506,5,6
19,3,object_09,object_08,873.32,6,2,593.81,0.1111111111111111,2,object_10,1,194,0,7,1,library_32,2,memory-2step-stake-s,508,1091714,0.0-18.0-0.0-0.19,3506,5,6
20,1,object_03,object_06,1160.0,2,2,1458.765,0.1111111111111111,2,object_10,5,199,0,8,1,desert_21,2,memory-2step-stake-s,509,1100522,0.0-18.0-0.0-0.20,3506,1,2
21,4,object_01,object_05,1229.865,8,2,1145.515,0.1111111111111111,2,object_10,1,200,0,5,1,restaurant_27,2,memory-2step-stake-s,510,1109015,0.0-18.0-0.0-0.21,3506,7,8
22,1,object_06,object_03,875.935,2,1,344.335,0.1111111111111111,2,object_10,1,201,0,5,1,desert_6,2,memory-2step-stake-s,511,1116707,0.0-18.0-0.0-0.22,3506,2,1
23,1,object_03,object_06,1050.095,1,1,839.945,0.5555555555555556,1,object_07,5,226,0,5,1,desert_10,2,memory-2step-stake-s,512,1125311,0.0-18.0-0.0-0.23,3506,1,2
24,2,object_04,object_02,1263.06,3,1,-1.0,0.0,1,object_07,5,226,0,6,2,forest_1,2,memory-2step-stake-s,513,1133839,0.0-18.0-0.0-0.24,3506,3,4
25,4,object_01,object_05,790.605,7,1,902.61,0.3333333333333333,1,object_07,5,241,0,3,1,restaurant_30,2,memory-2step-stake-s,514,1142295,0.0-18.0-0.0-0.25,3506,7,8
26,1,object_06,object_03,987.52,1,2,391.465,0.2222222222222222,1,object_07,1,243,0,2,2,desert_32,2,memory-2step-stake-s,515,1150138,0.0-18.0-0.0-0.26,3506,2,1
27,1,object_06,object_03,854.59,2,1,764.295,0.3333333333333333,2,object_10,5,258,0,1,3,desert_19,2,memory-2step-stake-s,516,1158463,0.0-18.0-0.0-0.27,3506,2,1
28,4,object_05,object_01,1083.91,8,1,650.61,0.2222222222222222,2,object_10,1,260,0,2,2,restaurant_22,2,memory-2step-stake-s,517,1166563,0.0-18.0-0.0-0.28,3506,8,7
29,2,object_04,object_02,1030.6,3,1,632.95,0.4444444444444444,1,object_07,5,280,0,4,4,forest_16,2,memory-2step-stake-s,518,1174853,0.0-18.0-0.0-0.29,3506,3,4
30,1,object_06,object_03,899.275,1,2,670.135,0.3333333333333333,1,object_07,5,295,0,3,6,desert_32,2,memory-2step-stake-s,519,1183072,0.0-18.0-0.0-0.30,3506,2,1
31,2,object_02,object_04,854.52,4,1,666.345,0.5555555555555556,2,object_10,5,320,0,3,5,forest_18,2,memory-2step-stake-s,520,1191503,0.0-18.0-0.0-0.31,3506,4,3
32,1,object_06,object_03,1135.025,1,2,709.085,0.1111111111111111,1,object_07,5,325,0,1,5,desert_31,2,memory-2step-stake-s,521,1199548,0.0-18.0-0.0-0.32,3506,2,1
33,1,object_06,object_03,738.545,2,1,317.825,0.5555555555555556,2,object_10,5,350,0,0,5,desert_11,2,memory-2step-stake-s,522,1207628,0.0-18.0-0.0-0.33,3506,2,1
34,4,object_01,object_05,964.52,8,2,482.735,0.7777777777777778,2,object_10,1,357,0,3,7,restaurant_15,2,memory-2step-stake-s,523,1216072,0.0-18.0-0.0-0.34,3506,7,8
35,3,object_09,object_08,1194.255,5,1,941.355,0.5555555555555556,1,object_07,1,362,0,5,4,library_27,2,memory-2step-stake-s,524,1224780,0.0-18.0-0.0-0.35,3506,5,6
36,4,object_01,object_05,942.035,8,2,504.85,0.0,2,object_10,1,362,0,4,0,restaurant_19,2,memory-2step-stake-s,525,1232528,0.0-18.0-0.0-0.36,3506,7,8
37,2,object_04,object_02,1032.695,3,1,841.07,0.6666666666666666,1,object_07,5,392,0,6,1,forest_30,2,memory-2step-stake-s,526,1241237,0.0-18.0-0.0-0.37,3506,3,4
38,2,object_04,object_02,1032.355,4,2,660.775,0.2222222222222222,2,object_10,5,402,0,9,2,forest_25,2,memory-2step-stake-s,527,1249347,0.0-18.0-0.0-0.38,3506,3,4
39,3,object_09,object_08,634.5,5,1,-1.0,0.0,1,object_07,1,402,0,9,0,library_2,2,memory-2step-stake-s,528,1257884,0.0-18.0-0.0-0.39,3506,5,6
40,3,object_09,object_08,361.915,6,2,463.625,0.1111111111111111,2,object_10,1,403,0,6,1,library_12,2,memory-2step-stake-s,529,1265688,0.0-18.0-0.0-0.40,3506,5,6
41,4,object_01,object_05,666.17,7,1,798.105,0.3333333333333333,1,object_07,1,406,0,3,1,restaurant_22,2,memory-2step-stake-s,530,1274029,0.0-18.0-0.0-0.41,3506,7,8
42,1,object_03,object_06,939.86,2,2,793.19,0.5555555555555556,2,object_10,1,411,0,4,5,desert_28,2,memory-2step-stake-s,531,1282580,0.0-18.0-0.0-0.42,3506,1,2
43,4,object_05,object_01,243.48,8,1,706.63,0.3333333333333333,2,object_10,1,414,0,2,3,restaurant_18,2,memory-2step-stake-s,532,1290837,0.0-18.0-0.0-0.43,3506,8,7
44,1,object_03,object_06,587.26,2,2,442.79,0.0,2,object_10,1,414,0,1,0,desert_26,2,memory-2step-stake-s,533,1298520,0.0-18.0-0.0-0.44,3506,1,2
45,2,object_04,object_02,970.835,3,1,999.69,0.1111111111111111,1,object_07,5,419,0,1,0,forest_29,2,memory-2step-stake-s,534,1306860,0.0-18.0-0.0-0.45,3506,3,4
46,2,object_02,object_04,745.225,3,2,493.91,0.1111111111111111,1,object_07,5,424,0,1,2,forest_18,2,memory-2step-stake-s,535,1314697,0.0-18.0-0.0-0.46,3506,4,3
47,1,object_06,object_03,693.22,2,1,519.275,0.1111111111111111,2,object_10,5,429,0,0,1,desert_15,2,memory-2step-stake-s,536,1322559,0.0-18.0-0.0-0.47,3506,2,1
48,4,object_01,object_05,971.605,8,2,1141.105,0.2222222222222222,2,object_10,1,431,0,0,2,restaurant_14,2,memory-2step-stake-s,537,1331145,0.0-18.0-0.0-0.48,3506,7,8
49,4,object_01,object_05,734.18,7,1,903.825,0.1111111111111111,1,object_07,1,432,0,1,1,restaurant_10,2,memory-2step-stake-s,538,1339393,0.0-18.0-0.0-0.49,3506,7,8
50,3,object_08,object_09,584.73,5,2,558.655,0.6666666666666666,1,object_07,1,438,0,6,1,library_12,2,memory-2step-stake-s,539,1347828,0.0-18.0-0.0-0.50,3506,6,5
51,1,object_03,object_06,1122.64,1,1,553.38,0.5555555555555556,1,object_07,1,443,0,5,0,desert_32,2,memory-2step-stake-s,540,1356148,0.0-18.0-0.0-0.51,3506,1,2
52,4,object_01,object_05,1433.31,8,2,524.085,0.1111111111111111,2,object_10,1,444,0,6,1,restaurant_16,2,memory-2step-stake-s,541,1364021,0.0-18.0-0.0-0.52,3506,7,8
53,1,object_03,object_06,1116.955,2,2,236.605,0.2222222222222222,2,object_10,1,446,0,5,2,desert_28,2,memory-2step-stake-s,542,1371710,0.0-18.0-0.0-0.53,3506,1,2
54,2,object_02,object_04,1224.445,4,1,445.715,0.2222222222222222,2,object_10,5,456,0,8,2,forest_8,2,memory-2step-stake-s,543,1379604,0.0-18.0-0.0-0.54,3506,4,3
55,4,object_05,object_01,910.435,8,1,684.56,0.1111111111111111,2,object_10,1,457,0,7,1,restaurant_26,2,memory-2step-stake-s,544,1387633,0.0-18.0-0.0-0.55,3506,8,7
56,4,object_05,object_01,637.56,7,2,775.12,0.7777777777777778,1,object_07,1,464,0,7,2,restaurant_22,2,memory-2step-stake-s,545,1396385,0.0-18.0-0.0-0.56,3506,8,7
57,1,object_03,object_06,740.615,2,2,78.765,0.2222222222222222,2,object_10,5,474,0,8,2,desert_14,2,memory-2step-stake-s,546,1403908,0.0-18.0-0.0-0.57,3506,1,2
58,4,object_01,object_05,134.61,7,1,498.255,0.6666666666666666,1,object_07,1,480,0,6,1,restaurant_5,2,memory-2step-stake-s,547,1412276,0.0-18.0-0.0-0.58,3506,7,8
59,4,object_01,object_05,1098.27,8,2,249.145,0.1111111111111111,2,object_10,5,485,0,7,1,restaurant_21,2,memory-2step-stake-s,548,1419859,0.0-18.0-0.0-0.59,3506,7,8
60,2,object_04,object_02,1266.24,3,1,301.17,0.8888888888888888,1,object_07,5,525,0,8,1,forest_8,2,memory-2step-stake-s,549,1428234,0.0-18.0-0.0-0.60,3506,3,4
61,2,object_04,object_02,1132.535,3,1,476.745,0.8888888888888888,1,object_07,5,565,0,8,0,forest_30,2,memory-2step-stake-s,550,1436796,0.0-18.0-0.0-0.61,3506,3,4
62,2,object_02,object_04,924.2,3,2,233.745,0.5555555555555556,1,object_07,5,590,0,5,0,forest_1,2,memory-2step-stake-s,551,1444790,0.0-18.0-0.0-0.62,3506,4,3
63,3,object_08,object_09,1010.25,5,2,488.94,0.7777777777777778,1,object_07,1,597,0,7,3,library_27,2,memory-2step-stake-s,552,1453251,0.0-18.0-0.0-0.63,3506,6,5
64,1,object_03,object_06,1219.52,1,1,350.39,0.3333333333333333,1,object_07,1,600,0,3,4,desert_11,2,memory-2step-stake-s,553,1461161,0.0-18.0-0.0-0.64,3506,1,2
65,3,object_08,object_09,1058.175,6,1,-1.0,0.0,2,object_10,5,600,0,3,1,library_2,2,memory-2step-stake-s,554,1469701,0.0-18.0-0.0-0.65,3506,6,5
66,3,object_09,object_08,610.29,6,2,728.275,0.0,2,object_10,1,600,0,2,0,library_2,2,memory-2step-stake-s,555,1477672,0.0-18.0-0.0-0.66,3506,5,6
67,2,object_04,object_02,984.97,4,2,259.145,0.2222222222222222,2,object_10,1,602,0,1,2,forest_25,2,memory-2step-stake-s,556,1485380,0.0-18.0-0.0-0.67,3506,3,4
68,2,object_04,object_02,1133.095,3,1,334.89,0.3333333333333333,1,object_07,5,617,0,3,2,forest_6,2,memory-2step-stake-s,557,1493268,0.0-18.0-0.0-0.68,3506,3,4
69,4,object_05,object_01,466.9,7,2,740.53,0.8888888888888888,1,object_07,1,625,0,8,1,restaurant_29,2,memory-2step-stake-s,558,1502091,0.0-18.0-0.0-0.69,3506,8,7
70,2,object_02,object_04,21.07,4,1,463.785,0.0,2,object_10,5,625,0,9,0,forest_18,2,memory-2step-stake-s,559,1509795,0.0-18.0-0.0-0.70,3506,4,3
71,4,object_01,object_05,90.185,8,2,34.69,0.1111111111111111,2,object_10,1,626,0,8,1,restaurant_10,2,memory-2step-stake-s,560,1517160,0.0-18.0-0.0-0.71,3506,7,8
72,3,object_08,object_09,133.705,6,1,227.525,0.1111111111111111,2,object_10,1,627,0,6,1,library_24,2,memory-2step-stake-s,561,1524712,0.0-18.0-0.0-0.72,3506,6,5
73,3,object_09,object_08,99.07,6,2,370.83,0.3333333333333333,2,object_10,1,630,0,4,3,library_22,2,memory-2step-stake-s,562,1532641,0.0-18.0-0.0-0.73,3506,5,6
74,4,object_05,object_01,47.9,8,1,438.86,0.2222222222222222,2,object_10,1,632,0,0,2,restaurant_10,2,memory-2step-stake-s,563,1540534,0.0-18.0-0.0-0.74,3506,8,7
75,4,object_05,object_01,3.415000001,7,2,-1.0,0.0,1,object_07,1,632,0,2,2,restaurant_18,2,memory-2step-stake-s,564,1549059,0.0-18.0-0.0-0.75,3506,8,7
76,1,object_03,object_06,804.905,1,1,-1.0,0.0,1,object_07,5,632,0,1,1,desert_24,2,memory-2step-stake-s,565,1557601,0.0-18.0-0.0-0.76,3506,1,2
77,1,object_06,object_03,387.865,2,1,440.45,0.1111111111111111,2,object_10,5,637,0,0,1,desert_15,2,memory-2step-stake-s,566,1565381,0.0-18.0-0.0-0.77,3506,2,1
78,2,object_04,object_02,361.035,4,2,345.915,0.0,2,object_10,5,637,0,1,0,forest_8,2,memory-2step-stake-s,567,1572967,0.0-18.0-0.0-0.78,3506,3,4
79,1,object_03,object_06,125.27,1,1,422.835,0.1111111111111111,1,object_07,5,642,0,1,1,desert_6,2,memory-2step-stake-s,568,1580727,0.0-18.0-0.0-0.79,3506,1,2
80,1,object_03,object_06,1012.465,2,2,981.715,0.0,2,object_10,5,642,0,0,0,desert_14,2,memory-2step-stake-s,569,1588946,0.0-18.0-0.0-0.80,3506,1,2
81,4,object_01,object_05,427.72,8,2,433.06,0.2222222222222222,2,object_10,1,644,0,0,2,restaurant_16,2,memory-2step-stake-s,570,1596820,0.0-18.0-0.0-0.81,3506,7,8
82,2,object_02,object_04,563.515,4,1,263.665,0.0,2,object_10,5,644,0,0,0,forest_3,2,memory-2step-stake-s,571,1604324,0.0-18.0-0.0-0.82,3506,4,3
83,1,object_06,object_03,294.48,2,1,617.65,0.1111111111111111,2,object_10,5,649,0,2,1,desert_10,2,memory-2step-stake-s,572,1612286,0.0-18.0-0.0-0.83,3506,2,1
84,1,object_06,object_03,245.81,1,2,674.045,0.3333333333333333,1,object_07,5,664,0,3,1,desert_28,2,memory-2step-stake-s,573,1620513,0.0-18.0-0.0-0.84,3506,2,1
85,2,object_02,object_04,290.14,4,1,1040.165,0.0,2,object_10,5,664,0,2,0,forest_18,2,memory-2step-stake-s,574,1628795,0.0-18.0-0.0-0.85,3506,4,3
86,3,object_09,object_08,148.81,6,2,471.16,0.2222222222222222,2,object_10,1,666,0,2,2,library_1,2,memory-2step-stake-s,575,1636711,0.0-18.0-0.0-0.86,3506,5,6
87,4,object_01,object_05,674.25,7,1,368.2,0.2222222222222222,1,object_07,1,668,0,2,3,restaurant_12,2,memory-2step-stake-s,576,1644516,0.0-18.0-0.0-0.87,3506,7,8
88,3,object_09,object_08,232.5,6,2,390.995,0.2222222222222222,2,object_10,5,678,0,2,2,library_11,2,memory-2step-stake-s,577,1652360,0.0-18.0-0.0-0.88,3506,5,6
89,3,object_09,object_08,601.68,5,1,943.59,0.0,1,object_07,1,678,0,0,1,library_19,2,memory-2step-stake-s,578,1660535,0.0-18.0-0.0-0.89,3506,5,6
90,3,object_09,object_08,810.775,6,2,893.62,0.1111111111111111,2,object_10,1,679,0,1,1,library_19,2,memory-2step-stake-s,579,1668773,0.0-18.0-0.0-0.90,3506,5,6
91,3,object_09,object_08,316.46,5,1,710.845,0.1111111111111111,1,object_07,1,680,0,1,1,library_29,2,memory-2step-stake-s,580,1676830,0.0-18.0-0.0-0.91,3506,5,6
92,3,object_09,object_08,514.125,6,2,409.575,0.2222222222222222,2,object_10,1,682,0,4,2,library_22,2,memory-2step-stake-s,581,1684694,0.0-18.0-0.0-0.92,3506,5,6
93,4,object_05,object_01,55.77,8,1,-1.0,0.0,2,object_10,1,682,0,4,5,restaurant_29,2,memory-2step-stake-s,582,1693238,0.0-18.0-0.0-0.93,3506,8,7
94,3,object_09,object_08,845.725,6,2,825.05,0.1111111111111111,2,object_10,1,683,0,7,1,library_32,2,memory-2step-stake-s,583,1701406,0.0-18.0-0.0-0.94,3506,5,6
95,1,object_03,object_06,628.58,2,2,634.895,0.2222222222222222,2,object_10,5,693,0,7,2,desert_24,2,memory-2step-stake-s,584,1709485,0.0-18.0-0.0-0.95,3506,1,2
96,4,object_01,object_05,184.125,7,1,756.635,0.6666666666666666,1,object_07,1,699,0,6,3,restaurant_14,2,memory-2step-stake-s,585,1718115,0.0-18.0-0.0-0.96,3506,7,8
97,3,object_09,object_08,1311.24,6,2,1443.08,0.2222222222222222,2,object_10,5,709,0,4,2,library_11,2,memory-2step-stake-s,586,1727002,0.0-18.0-0.0-0.97,3506,5,6
98,3,object_09,object_08,253.45,5,1,653.855,0.3333333333333333,1,object_07,1,712,0,3,1,library_31,2,memory-2step-stake-s,587,1735199,0.0-18.0-0.0-0.98,3506,5,6
99,4,object_01,object_05,161.305,8,2,380.685,0.2222222222222222,2,object_10,1,714,0,6,2,restaurant_14,2,memory-2step-stake-s,588,1743028,0.0-18.0-0.0-0.99,3506,7,8
100,1,object_06,object_03,51.975,2,1,546.515,0.3333333333333333,2,object_10,5,729,0,5,3,desert_12,2,memory-2step-stake-s,589,1751121,0.0-18.0-0.0-0.100,3506,2,1
101,3,object_09,object_08,1446.695,6,2,1121.855,0.3333333333333333,2,object_10,5,744,0,4,3,library_32,2,memory-2step-stake-s,590,1759802,0.0-18.0-0.0-0.101,3506,5,6
102,2,object_04,object_02,399.715,3,1,1468.93,0.5555555555555556,1,object_07,1,749,0,5,5,forest_22,2,memory-2step-stake-s,591,1769026,0.0-18.0-0.0-0.102,3506,3,4
103,2,object_04,object_02,757.76,4,2,843.32,0.4444444444444444,2,object_10,5,769,0,6,4,forest_21,2,memory-2step-stake-s,592,1777525,0.0-18.0-0.0-0.103,3506,3,4
104,2,object_04,object_02,278.225,3,1,1160.665,1.0,1,object_07,5,814,0,9,7,forest_26,2,memory-2step-stake-s,593,1786857,0.0-18.0-0.0-0.104,3506,3,4
105,4,object_05,object_01,740.065,7,2,1216.945,1.0,1,object_07,5,859,0,9,6,restaurant_21,2,memory-2step-stake-s,594,1796257,0.0-18.0-0.0-0.105,3506,8,7
106,4,object_01,object_05,214.38,7,1,-1.0,0.0,1,object_07,1,859,0,9,7,restaurant_12,2,memory-2step-stake-s,595,1804798,0.0-18.0-0.0-0.106,3506,7,8
107,2,object_02,object_04,543.985,3,2,567.005,0.7777777777777778,1,object_07,1,866,0,7,8,forest_32,2,memory-2step-stake-s,596,1813337,0.0-18.0-0.0-0.107,3506,4,3
108,3,object_09,object_08,732.805,6,2,1302.545,0.7777777777777778,2,object_10,1,873,0,5,7,library_31,2,memory-2step-stake-s,597,1822620,0.0-18.0-0.0-0.108,3506,5,6
109,4,object_01,object_05,562.705,7,1,413.06,0.4444444444444444,1,object_07,1,877,0,4,7,restaurant_19,2,memory-2step-stake-s,598,1830696,0.0-18.0-0.0-0.109,3506,7,8
110,2,object_02,object_04,448.265,3,2,823.775,0.3333333333333333,1,object_07,1,880,0,3,6,forest_5,2,memory-2step-stake-s,599,1839072,0.0-18.0-0.0-0.110,3506,4,3
111,2,object_02,object_04,1070.545,4,1,983.86,0.6666666666666666,2,object_10,5,910,0,2,6,forest_16,2,memory-2step-stake-s,600,1847927,0.0-18.0-0.0-0.111,3506,4,3
112,2,object_02,object_04,273.315,3,2,736.17,0.0,1,object_07,5,910,0,0,4,forest_25,2,memory-2step-stake-s,601,1855902,0.0-18.0-0.0-0.112,3506,4,3
113,2,object_02,object_04,-1.0,-1,-1,-1.0,0.0,-,,5,910,0,0,2,forest_32,2,memory-2step-stake-s,602,1862430,0.0-18.0-0.0-0.113,3506,4,3
114,3,object_08,object_09,-1.0,-1,-1,-1.0,0.0,-,,1,910,0,1,1,library_1,2,memory-2step-stake-s,603,1868959,0.0-18.0-0.0-0.114,3506,6,5
115,1,object_06,object_03,53.205,1,2,506.175,0.3333333333333333,1,object_07,5,925,0,3,1,desert_27,2,memory-2step-stake-s,604,1877020,0.0-18.0-0.0-0.115,3506,2,1
116,2,object_04,object_02,348.385,3,1,398.69,0.1111111111111111,1,object_07,5,930,0,1,3,forest_5,2,memory-2step-stake-s,605,1884765,0.0-18.0-0.0-0.116,3506,3,4
117,1,object_06,object_03,51.435,1,2,513.055,0.4444444444444444,1,object_07,5,950,0,4,1,desert_17,2,memory-2step-stake-s,606,1892938,0.0-18.0-0.0-0.117,3506,2,1
118,4,object_05,object_01,5.9,8,1,230.125,0.3333333333333333,2,object_10,1,953,0,0,3,restaurant_21,2,memory-2step-stake-s,607,1900718,0.0-18.0-0.0-0.118,3506,8,7
119,1,object_06,object_03,190.705,2,1,549.785,0.3333333333333333,2,object_10,5,968,0,3,3,desert_31,2,memory-2step-stake-s,608,1908822,0.0-18.0-0.0-0.119,3506,2,1
120,2,object_02,object_04,74.225,3,2,-1.0,0.0,1,object_07,1,968,0,0,4,forest_13,2,memory-2step-stake-s,609,1917365,0.0-18.0-0.0-0.120,3506,4,3
121,4,object_01,object_05,17.295,7,1,529.795,0.2222222222222222,1,object_07,1,970,0,2,3,restaurant_29,2,memory-2step-stake-s,610,1925337,0.0-18.0-0.0-0.121,3506,7,8
122,3,object_09,object_08,105.49,6,2,237.91,0.5555555555555556,2,object_10,1,975,0,6,5,library_18,2,memory-2step-stake-s,611,1933334,0.0-18.0-0.0-0.122,3506,5,6
123,3,object_09,object_08,123.43,6,2,943.75,0.8888888888888888,2,object_10,1,983,0,4,8,library_5,2,memory-2step-stake-s,612,1942361,0.0-18.0-0.0-0.123,3506,5,6
124,1,object_03,object_06,109.82,1,1,1499.435,0.1111111111111111,1,object_07,1,984,0,1,9,desert_12,2,memory-2step-stake-s,613,1951203,0.0-18.0-0.0-0.124,3506,1,2
125,1,object_06,object_03,85.36,1,2,624.85,0.3333333333333333,1,object_07,5,999,0,3,6,desert_26,2,memory-2step-stake-s,614,1959378,0.0-18.0-0.0-0.125,3506,2,1
126,1,object_03,object_06,144.815,1,1,501.975,0.0,1,object_07,5,999,0,0,3,desert_31,2,memory-2step-stake-s,615,1967113,0.0-18.0-0.0-0.126,3506,1,2
127,2,object_04,object_02,194.615,4,2,486.63,0.2222222222222222,2,object_10,5,1009,0,1,2,forest_29,2,memory-2step-stake-s,616,1975042,0.0-18.0-0.0-0.127,3506,3,4
128,4,object_01,object_05,145.55,8,2,81.93,0.3333333333333333,2,object_10,5,1024,0,4,3,restaurant_15,2,memory-2step-stake-s,618,2104382,0.0-18.0-0.1-0.128,3506,7,8
129,3,object_08,object_09,3.644999999,6,1,1145.11,0.2222222222222222,2,object_10,1,1026,0,1,2,library_5,2,memory-2step-stake-s,619,2112981,0.0-18.0-0.1-0.129,3506,6,5
130,3,object_09,object_08,512.155,5,1,149.12,0.1111111111111111,1,object_07,5,1031,0,1,0,library_31,2,memory-2step-stake-s,620,2120467,0.0-18.0-0.1-0.130,3506,5,6
131,2,object_04,object_02,132.025,4,2,775.25,0.1111111111111111,2,object_10,1,1032,0,5,1,forest_21,2,memory-2step-stake-s,621,2128584,0.0-18.0-0.1-0.131,3506,3,4
132,1,object_06,object_03,112.675,1,2,-1.0,0.0,1,object_07,5,1032,0,3,0,desert_27,2,memory-2step-stake-s,622,2137121,0.0-18.0-0.1-0.132,3506,2,1
133,2,object_02,object_04,-1.0,-1,-1,-1.0,0.0,-,,5,1032,0,2,2,forest_22,2,memory-2step-stake-s,623,2143657,0.0-18.0-0.1-0.133,3506,4,3
134,2,object_04,object_02,52.04,3,1,115.71,0.0,1,object_07,5,1032,0,0,1,forest_13,2,memory-2step-stake-s,624,2151014,0.0-18.0-0.1-0.134,3506,3,4
135,4,object_01,object_05,59.34,8,2,129.365,0.1111111111111111,2,object_10,1,1033,0,0,1,restaurant_18,2,memory-2step-stake-s,625,2158491,0.0-18.0-0.1-0.135,3506,7,8
136,1,object_03,object_06,167.73,2,2,64.61,0.3333333333333333,2,object_10,5,1048,0,2,3,desert_14,2,memory-2step-stake-s,626,2166100,0.0-18.0-0.1-0.136,3506,1,2
137,3,object_08,object_09,258.17,5,2,157.95,0.4444444444444444,1,object_07,5,1068,0,4,2,library_11,2,memory-2step-stake-s,627,2173909,0.0-18.0-0.1-0.137,3506,6,5
138,1,object_03,object_06,816.94,1,1,58.65,0.3333333333333333,1,object_07,5,1083,0,3,3,desert_26,2,memory-2step-stake-s,628,2181515,0.0-18.0-0.1-0.138,3506,1,2
139,4,object_01,object_05,133.845,8,2,190.475,0.3333333333333333,2,object_10,1,1086,0,6,3,restaurant_19,2,memory-2step-stake-s,629,2189248,0.0-18.0-0.1-0.139,3506,7,8
140,2,object_04,object_02,97.57,3,1,91.615,0.4444444444444444,1,object_07,5,1106,0,4,3,forest_6,2,memory-2step-stake-s,630,2197003,0.0-18.0-0.1-0.140,3506,3,4
141,4,object_01,object_05,-1.0,-1,-1,-1.0,0.0,-,,1,1106,0,1,6,restaurant_25,2,memory-2step-stake-s,631,2203532,0.0-18.0-0.1-0.141,3506,7,8
142,4,object_01,object_05,8.154999999,8,2,148.915,0.7777777777777778,2,object_10,1,1113,0,0,7,restaurant_10,2,memory-2step-stake-s,632,2211651,0.0-18.0-0.1-0.142,3506,7,8
143,1,object_06,object_03,9.894999999,2,1,53.625,0.6666666666666666,2,object_10,5,1143,0,3,6,desert_9,2,memory-2step-stake-s,633,2219578,0.0-18.0-0.1-0.143,3506,2,1
144,2,object_04,object_02,41.92,3,1,37.475,0.4444444444444444,1,object_07,5,1163,0,4,8,forest_32,2,memory-2step-stake-s,634,2227270,0.0-18.0-0.1-0.144,3506,3,4
145,4,object_01,object_05,154.655,8,2,46.45,0.7777777777777778,2,object_10,1,1170,0,1,7,restaurant_16,2,memory-2step-stake-s,635,2235301,0.0-18.0-0.1-0.145,3506,7,8
146,2,object_04,object_02,5.779999999,3,1,-1.0,0.0,1,object_07,5,1170,0,2,7,forest_7,2,memory-2step-stake-s,636,2243834,0.0-18.0-0.1-0.146,3506,3,4
147,1,object_06,object_03,143.515,1,2,-1.0,0.0,1,object_07,1,1170,0,5,5,desert_26,2,memory-2step-stake-s,637,2252375,0.0-18.0-0.1-0.147,3506,2,1
148,4,object_05,object_01,119.725,7,2,300.62,0.3333333333333333,1,object_07,1,1173,0,3,4,restaurant_29,2,memory-2step-stake-s,638,2260219,0.0-18.0-0.1-0.148,3506,8,7
149,1,object_06,object_03,-1.0,-1,-1,-1.0,0.0,-,,5,1173,0,3,9,desert_21,2,memory-2step-stake-s,639,2266744,0.0-18.0-0.1-0.149,3506,2,1
150,3,object_09,object_08,130.305,5,1,991.29,0.4444444444444444,1,object_07,1,1177,0,4,8,library_3,2,memory-2step-stake-s,640,2275383,0.0-18.0-0.1-0.150,3506,5,6
151,2,object_04,object_02,161.395,3,1,115.56,0.6666666666666666,1,object_07,5,1207,0,6,8,forest_1,2,memory-2step-stake-s,641,2283333,0.0-18.0-0.1-0.151,3506,3,4
152,2,object_04,object_02,109.195,4,2,1333.58,0.7777777777777778,2,object_10,5,1242,0,5,7,forest_21,2,memory-2step-stake-s,642,2292627,0.0-18.0-0.1-0.152,3506,3,4
153,3,object_09,object_08,44.275,6,2,75.19,0.8888888888888888,2,object_10,1,1250,0,6,8,library_28,2,memory-2step-stake-s,643,2300781,0.0-18.0-0.1-0.153,3506,5,6
154,2,object_02,object_04,1261.795,3,2,152.655,0.6666666666666666,1,object_07,5,1280,0,6,4,forest_3,2,memory-2step-stake-s,644,2308787,0.0-18.0-0.1-0.154,3506,4,3
155,4,object_05,object_01,237.34,7,2,37.05,0.3333333333333333,1,object_07,1,1283,0,3,6,restaurant_12,2,memory-2step-stake-s,645,2316375,0.0-18.0-0.1-0.155,3506,8,7
156,1,object_06,object_03,-1.0,-1,-1,-1.0,0.0,-,,5,1283,0,2,6,desert_14,2,memory-2step-stake-s,646,2322907,0.0-18.0-0.1-0.156,3506,2,1
157,3,object_09,object_08,1244.805,5,1,145.01,0.6666666666666666,1,object_07,1,1289,0,6,5,library_19,2,memory-2step-stake-s,647,2330921,0.0-18.0-0.1-0.157,3506,5,6
158,2,object_02,object_04,151.75,3,2,443.915,1.0,1,object_07,5,1334,0,9,5,forest_30,2,memory-2step-stake-s,648,2339551,0.0-18.0-0.1-0.158,3506,4,3
159,1,object_03,object_06,246.96,1,1,92.37,0.7777777777777778,1,object_07,1,1341,0,7,3,desert_19,2,memory-2step-stake-s,649,2347606,0.0-18.0-0.1-0.159,3506,1,2
160,3,object_08,object_09,129.735,6,1,103.025,0.2222222222222222,2,object_10,1,1343,0,5,2,library_29,2,memory-2step-stake-s,650,2355148,0.0-18.0-0.1-0.160,3506,6,5
161,1,object_03,object_06,12.16,2,2,136.68,0.1111111111111111,2,object_10,5,1348,0,5,1,desert_9,2,memory-2step-stake-s,651,2362633,0.0-18.0-0.1-0.161,3506,1,2
162,2,object_04,object_02,43.725,3,1,299.93,0.5555555555555556,1,object_07,5,1373,0,5,2,forest_25,2,memory-2step-stake-s,652,2370688,0.0-18.0-0.1-0.162,3506,3,4
163,4,object_01,object_05,818.425,8,2,687.655,0.4444444444444444,2,object_10,1,1377,0,8,4,restaurant_30,2,memory-2step-stake-s,653,2379035,0.0-18.0-0.1-0.163,3506,7,8
164,2,object_04,object_02,173.815,3,1,394.82,0.8888888888888888,1,object_07,5,1417,0,8,2,forest_6,2,memory-2step-stake-s,654,2387503,0.0-18.0-0.1-0.164,3506,3,4
165,4,object_01,object_05,46.0,8,2,-1.0,0.0,2,object_10,1,1417,0,7,0,restaurant_16,2,memory-2step-stake-s,655,2396031,0.0-18.0-0.1-0.165,3506,7,8
166,2,object_02,object_04,1027.575,4,1,152.79,0.1111111111111111,2,object_10,5,1422,0,5,1,forest_22,2,memory-2step-stake-s,656,2403518,0.0-18.0-0.1-0.166,3506,4,3
167,1,object_03,object_06,28.295,2,2,176.49,0.0,2,object_10,5,1422,0,5,0,desert_24,2,memory-2step-stake-s,657,2410931,0.0-18.0-0.1-0.167,3506,1,2
168,3,object_08,object_09,133.92,6,1,38.1,0.0,2,object_10,5,1422,0,6,0,library_16,2,memory-2step-stake-s,658,2418209,0.0-18.0-0.1-0.168,3506,6,5
169,4,object_01,object_05,-1.0,-1,-1,-1.0,0.0,-,,1,1422,0,4,5,restaurant_5,2,memory-2step-stake-s,659,2424732,0.0-18.0-0.1-0.169,3506,7,8
170,2,object_04,object_02,3.6399999989999996,4,2,23.01,0.3333333333333333,2,object_10,5,1437,0,2,3,forest_7,2,memory-2step-stake-s,660,2432308,0.0-18.0-0.1-0.170,3506,3,4
171,2,object_04,object_02,69.255,4,2,-1.0,0.0,2,object_10,5,1437,0,3,0,forest_26,2,memory-2step-stake-s,661,2440841,0.0-18.0-0.1-0.171,3506,3,4
172,2,object_04,object_02,94.35,3,1,39.085,0.6666666666666666,1,object_07,5,1467,0,6,2,forest_5,2,memory-2step-stake-s,662,2448752,0.0-18.0-0.1-0.172,3506,3,4
173,1,object_06,object_03,71.545,1,2,79.18,1.0,1,object_07,1,1476,0,9,3,desert_19,2,memory-2step-stake-s,663,2457008,0.0-18.0-0.1-0.173,3506,2,1
174,3,object_09,object_08,37.525,6,2,137.725,0.4444444444444444,2,object_10,1,1480,0,8,4,library_28,2,memory-2step-stake-s,664,2464806,0.0-18.0-0.1-0.174,3506,5,6
175,1,object_06,object_03,30.585,1,2,130.84,0.8888888888888888,1,object_07,5,1520,0,8,5,desert_10,2,memory-2step-stake-s,665,2473003,0.0-18.0-0.1-0.175,3506,2,1
176,1,object_03,object_06,139.405,1,1,167.75,0.7777777777777778,1,object_07,1,1527,0,7,8,desert_19,2,memory-2step-stake-s,666,2481130,0.0-18.0-0.1-0.176,3506,1,2
177,3,object_08,object_09,3.605,5,2,75.27,0.4444444444444444,1,object_07,1,1531,0,4,6,library_18,2,memory-2step-stake-s,667,2488863,0.0-18.0-0.1-0.177,3506,6,5
178,3,object_08,object_09,126.065,5,2,108.385,0.3333333333333333,1,object_07,1,1534,0,3,5,library_1,2,memory-2step-stake-s,668,2496509,0.0-18.0-0.1-0.178,3506,6,5
179,4,object_05,object_01,154.315,8,1,-1.0,0.0,2,object_10,1,1534,0,6,4,restaurant_6,2,memory-2step-stake-s,669,2505036,0.0-18.0-0.1-0.179,3506,8,7
180,2,object_04,object_02,153.68,3,1,-1.0,0.0,1,object_07,5,1534,0,6,6,forest_30,2,memory-2step-stake-s,670,2513570,0.0-18.0-0.1-0.180,3506,3,4
181,4,object_05,object_01,175.25,7,2,211.54,0.5555555555555556,1,object_07,5,1559,0,5,5,restaurant_14,2,memory-2step-stake-s,671,2521540,0.0-18.0-0.1-0.181,3506,8,7
182,2,object_04,object_02,985.4,4,2,85.805,0.4444444444444444,2,object_10,1,1563,0,6,4,forest_7,2,memory-2step-stake-s,672,2529277,0.0-18.0-0.1-0.182,3506,3,4
183,4,object_01,object_05,85.405,7,1,206.955,0.8888888888888888,1,object_07,5,1603,0,8,2,restaurant_5,2,memory-2step-stake-s,673,2537535,0.0-18.0-0.1-0.183,3506,7,8
184,2,object_02,object_04,60.625,3,2,16.42,0.7777777777777778,1,object_07,1,1610,0,7,4,forest_6,2,memory-2step-stake-s,674,2545507,0.0-18.0-0.1-0.184,3506,4,3
185,4,object_05,object_01,248.525,8,1,137.8,0.7777777777777778,2,object_10,1,1617,0,8,7,restaurant_6,2,memory-2step-stake-s,675,2553619,0.0-18.0-0.1-0.185,3506,8,7
186,4,object_05,object_01,52.58,7,2,189.94,0.8888888888888888,1,object_07,1,1625,0,8,9,restaurant_25,2,memory-2step-stake-s,676,2561883,0.0-18.0-0.1-0.186,3506,8,7
187,4,object_01,object_05,226.985,7,1,56.985,0.8888888888888888,1,object_07,1,1633,0,8,7,restaurant_27,2,memory-2step-stake-s,677,2570003,0.0-18.0-0.1-0.187,3506,7,8
188,1,object_06,object_03,221.435,1,2,76.54,0.7777777777777778,1,object_07,5,1668,0,7,6,desert_21,2,memory-2step-stake-s,678,2578045,0.0-18.0-0.1-0.188,3506,2,1
189,4,object_05,object_01,185.245,8,1,252.965,0.7777777777777778,2,object_10,1,1675,0,6,7,restaurant_27,2,memory-2step-stake-s,679,2586249,0.0-18.0-0.1-0.189,3506,8,7
190,2,object_02,object_04,102.25,3,2,166.62,0.4444444444444444,1,object_07,5,1695,0,4,7,forest_1,2,memory-2step-stake-s,680,2594072,0.0-18.0-0.1-0.190,3506,4,3
191,1,object_06,object_03,33.02,2,1,542.14,0.7777777777777778,2,object_10,5,1730,0,4,7,desert_11,2,memory-2step-stake-s,681,2602583,0.0-18.0-0.1-0.191,3506,2,1
192,1,object_06,object_03,34.625,1,2,163.805,0.6666666666666666,1,object_07,5,1760,0,6,8,desert_31,2,memory-2step-stake-s,682,2610602,0.0-18.0-0.1-0.192,3506,2,1
193,1,object_03,object_06,170.42,1,1,143.735,0.6666666666666666,1,object_07,1,1766,0,6,6,desert_9,2,memory-2step-stake-s,683,2618613,0.0-18.0-0.1-0.193,3506,1,2
194,2,object_04,object_02,107.565,4,2,200.865,0.5555555555555556,2,object_10,5,1791,0,7,5,forest_26,2,memory-2step-stake-s,684,2626574,0.0-18.0-0.1-0.194,3506,3,4
195,1,object_06,object_03,25.765,2,1,55.3,0.8888888888888888,2,object_10,5,1831,0,7,8,desert_10,2,memory-2step-stake-s,685,2634707,0.0-18.0-0.1-0.195,3506,2,1
196,2,object_04,object_02,158.81,3,1,3.125000001,0.3333333333333333,1,object_07,5,1846,0,3,8,forest_5,2,memory-2step-stake-s,686,2642256,0.0-18.0-0.1-0.196,3506,3,4
197,4,object_05,object_01,72.585,7,2,66.71,0.2222222222222222,1,object_07,1,1848,0,2,8,restaurant_12,2,memory-2step-stake-s,687,2649769,0.0-18.0-0.1-0.197,3506,8,7
198,3,object_08,object_09,7.105,6,1,215.7,0.7777777777777778,2,object_10,1,1855,0,2,7,library_3,2,memory-2step-stake-s,688,2657941,0.0-18.0-0.1-0.198,3506,6,5
199,4,object_05,object_01,88.885,7,2,228.095,0.2222222222222222,1,object_07,1,1857,0,2,6,restaurant_6,2,memory-2step-stake-s,689,2665618,0.0-18.0-0.1-0.199,3506,8,7
200,4,object_01,object_05,101.545,8,2,621.345,0.6666666666666666,2,object_10,1,1863,0,2,6,restaurant_6,2,memory-2step-stake-s,690,2674104,0.0-18.0-0.1-0.200,3506,7,8
201,1,object_06,object_03,123.63,2,1,37.09,0.5555555555555556,2,object_10,5,1888,0,2,5,desert_28,2,memory-2step-stake-s,691,2681891,0.0-18.0-0.1-0.201,3506,2,1
202,2,object_02,object_04,129.385,3,2,322.38,0.3333333333333333,1,object_07,5,1903,0,3,8,forest_29,2,memory-2step-stake-s,692,2689759,0.0-18.0-0.1-0.202,3506,4,3
203,4,object_01,object_05,166.14,7,1,107.285,0.5555555555555556,1,object_07,1,1908,0,5,7,restaurant_21,2,memory-2step-stake-s,693,2697621,0.0-18.0-0.1-0.203,3506,7,8
204,4,object_01,object_05,164.66,8,2,47.95,0.6666666666666666,2,object_10,1,1914,0,8,6,restaurant_5,2,memory-2step-stake-s,694,2705525,0.0-18.0-0.1-0.204,3506,7,8
205,4,object_01,object_05,60.185,7,1,86.025,1.0,1,object_07,1,1923,0,9,6,restaurant_30,2,memory-2step-stake-s,695,2713775,0.0-18.0-0.1-0.205,3506,7,8
206,3,object_09,object_08,109.23,6,2,167.925,1.0,2,object_10,1,1932,0,9,9,library_22,2,memory-2step-stake-s,696,2722121,0.0-18.0-0.1-0.206,3506,5,6
207,2,object_02,object_04,3.595,4,1,232.11,0.8888888888888888,2,object_10,5,1972,0,9,8,forest_21,2,memory-2step-stake-s,697,2730413,0.0-18.0-0.1-0.207,3506,4,3
208,2,object_02,object_04,138.875,3,2,181.775,0.8888888888888888,1,object_07,5,2012,0,8,6,forest_3,2,memory-2step-stake-s,698,2738665,0.0-18.0-0.1-0.208,3506,4,3
209,1,object_06,object_03,36.095,2,1,91.63,0.5555555555555556,2,object_10,5,2037,0,7,5,desert_32,2,memory-2step-stake-s,699,2746514,0.0-18.0-0.1-0.209,3506,2,1
210,2,object_04,object_02,116.155,4,2,173.355,0.6666666666666666,2,object_10,5,2067,0,2,6,forest_3,2,memory-2step-stake-s,700,2754543,0.0-18.0-0.1-0.210,3506,3,4
211,1,object_06,object_03,948.27,2,1,90.785,0.7777777777777778,2,object_10,5,2102,0,3,7,desert_15,2,memory-2step-stake-s,701,2762593,0.0-18.0-0.1-0.211,3506,2,1
212,3,object_09,object_08,138.3,6,2,117.76,0.6666666666666666,2,object_10,1,2108,0,3,6,library_22,2,memory-2step-stake-s,702,2770569,0.0-18.0-0.1-0.212,3506,5,6
213,4,object_05,object_01,31.74,8,1,28.53,0.5555555555555556,2,object_10,5,2133,0,6,5,restaurant_25,2,memory-2step-stake-s,703,2778344,0.0-18.0-0.1-0.213,3506,8,7
214,4,object_01,object_05,129.31,7,1,33.73,0.7777777777777778,1,object_07,1,2140,0,7,3,restaurant_26,2,memory-2step-stake-s,704,2786338,0.0-18.0-0.1-0.214,3506,7,8
215,2,object_04,object_02,3.52,4,2,231.735,0.4444444444444444,2,object_10,5,2160,0,5,4,forest_8,2,memory-2step-stake-s,705,2794221,0.0-18.0-0.1-0.215,3506,3,4
216,4,object_05,object_01,54.85,8,1,175.115,0.1111111111111111,2,object_10,5,2165,0,3,1,restaurant_30,2,memory-2step-stake-s,706,2801731,0.0-18.0-0.1-0.216,3506,8,7
217,3,object_08,object_09,105.275,5,2,117.655,0.1111111111111111,1,object_07,5,2170,0,1,1,library_12,2,memory-2step-stake-s,707,2809196,0.0-18.0-0.1-0.217,3506,6,5
218,3,object_08,object_09,152.06,6,1,-1.0,0.0,2,object_10,1,2170,0,1,1,library_18,2,memory-2step-stake-s,708,2817728,0.0-18.0-0.1-0.218,3506,6,5
219,2,object_02,object_04,142.81,4,1,56.245,0.2222222222222222,2,object_10,5,2180,0,2,2,forest_16,2,memory-2step-stake-s,709,2825231,0.0-18.0-0.1-0.219,3506,4,3
220,3,object_08,object_09,198.595,5,2,127.695,0.3333333333333333,1,object_07,1,2183,0,3,1,library_11,2,memory-2step-stake-s,710,2832909,0.0-18.0-0.1-0.220,3506,6,5
221,2,object_04,object_02,146.54,3,1,22.925,0.2222222222222222,1,object_07,5,2193,0,2,2,forest_13,2,memory-2step-stake-s,711,2840369,0.0-18.0-0.1-0.221,3506,3,4
222,2,object_04,object_02,6.11,4,2,391.53,0.1111111111111111,2,object_10,5,2198,0,4,1,forest_7,2,memory-2step-stake-s,712,2848103,0.0-18.0-0.1-0.222,3506,3,4
223,3,object_08,object_09,528.38,6,1,163.74,0.0,2,object_10,1,2198,0,2,0,library_16,2,memory-2step-stake-s,713,2855493,0.0-18.0-0.1-0.223,3506,6,5
224,2,object_04,object_02,133.74,4,2,112.03,0.3333333333333333,2,object_10,5,2213,0,1,3,forest_16,2,memory-2step-stake-s,714,2863137,0.0-18.0-0.1-0.224,3506,3,4
225,1,object_06,object_03,167.825,2,1,122.85,0.3333333333333333,2,object_10,5,2228,0,2,3,desert_9,2,memory-2step-stake-s,715,2870801,0.0-18.0-0.1-0.225,3506,2,1
226,3,object_09,object_08,33.545,5,1,181.765,0.5555555555555556,1,object_07,5,2253,0,5,3,library_18,2,memory-2step-stake-s,716,2878735,0.0-18.0-0.1-0.226,3506,5,6
227,1,object_06,object_03,84.235,1,2,115.3,0.6666666666666666,1,object_07,5,2283,0,6,3,desert_21,2,memory-2step-stake-s,717,2886717,0.0-18.0-0.1-0.227,3506,2,1
228,1,object_06,object_03,-1.0,-1,-1,-1.0,0.0,-,,5,2283,0,8,0,desert_27,2,memory-2step-stake-s,718,2893246,0.0-18.0-0.1-0.228,3506,2,1
229,3,object_09,object_08,53.775,5,1,46.99,0.7777777777777778,1,object_07,1,2290,0,7,0,library_29,2,memory-2step-stake-s,719,2901264,0.0-18.0-0.1-0.229,3506,5,6
230,3,object_08,object_09,53.725,6,1,83.905,0.3333333333333333,2,object_10,1,2293,0,7,3,library_12,2,memory-2step-stake-s,720,2908900,0.0-18.0-0.1-0.230,3506,6,5
231,3,object_08,object_09,58.585,5,2,123.645,0.8888888888888888,1,object_07,1,2301,0,8,3,library_5,2,memory-2step-stake-s,721,2917081,0.0-18.0-0.1-0.231,3506,6,5
232,3,object_09,object_08,81.51,6,2,151.635,0.3333333333333333,2,object_10,1,2304,0,7,3,library_24,2,memory-2step-stake-s,722,2924786,0.0-18.0-0.1-0.232,3506,5,6
233,4,object_05,object_01,3.649999999,8,1,1311.14,0.4444444444444444,2,object_10,1,2308,0,9,4,restaurant_26,2,memory-2step-stake-s,723,2933740,0.0-18.0-0.1-0.233,3506,8,7
234,3,object_08,object_09,70.04,6,1,255.155,0.3333333333333333,2,object_10,1,2311,0,6,3,library_32,2,memory-2step-stake-s,724,2941549,0.0-18.0-0.1-0.234,3506,6,5
235,1,object_03,object_06,134.825,2,2,17.35,0.1111111111111111,2,object_10,5,2316,0,5,1,desert_12,2,memory-2step-stake-s,725,2948908,0.0-18.0-0.1-0.235,3506,1,2
236,1,object_03,object_06,162.035,2,2,182.885,0.0,2,object_10,5,2316,0,4,0,desert_15,2,memory-2step-stake-s,726,2956323,0.0-18.0-0.1-0.236,3506,1,2
237,1,object_03,object_06,86.54,2,2,188.555,0.1111111111111111,2,object_10,5,2321,0,6,1,desert_12,2,memory-2step-stake-s,727,2963856,0.0-18.0-0.1-0.237,3506,1,2
238,4,object_05,object_01,190.92,8,1,119.76,0.2222222222222222,2,object_10,5,2331,0,6,2,restaurant_22,2,memory-2step-stake-s,728,2971420,0.0-18.0-0.1-0.238,3506,8,7
239,1,object_06,object_03,148.31,2,1,347.005,0.5555555555555556,2,object_10,5,2356,0,7,5,desert_17,2,memory-2step-stake-s,729,2979509,0.0-18.0-0.1-0.239,3506,2,1
240,3,object_08,object_09,207.475,5,2,53.885,0.8888888888888888,1,object_07,1,2364,0,8,0,library_24,2,memory-2step-stake-s,730,2987620,0.0-18.0-0.1-0.240,3506,6,5
241,3,object_08,object_09,72.96,5,2,120.665,0.7777777777777778,1,object_07,5,2399,0,7,2,library_27,2,memory-2step-stake-s,731,2995719,0.0-18.0-0.1-0.241,3506,6,5
242,4,object_01,object_05,136.025,7,1,210.05,0.6666666666666666,1,object_07,1,2405,0,6,6,restaurant_15,2,memory-2step-stake-s,732,3003780,0.0-18.0-0.1-0.242,3506,7,8
243,1,object_03,object_06,170.82,1,1,439.045,0.4444444444444444,1,object_07,1,2409,0,4,6,desert_6,2,memory-2step-stake-s,733,3011872,0.0-18.0-0.1-0.243,3506,1,2
244,1,object_06,object_03,487.26,1,2,-1.0,0.0,1,object_07,5,2409,0,1,5,desert_24,2,memory-2step-stake-s,734,3020416,0.0-18.0-0.1-0.244,3506,2,1
245,2,object_02,object_04,162.04,3,2,285.25,0.2222222222222222,1,object_07,5,2419,0,2,3,forest_22,2,memory-2step-stake-s,735,3028159,0.0-18.0-0.1-0.245,3506,4,3
246,4,object_01,object_05,162.01,7,1,153.995,0.3333333333333333,1,object_07,1,2422,0,3,3,restaurant_15,2,memory-2step-stake-s,736,3035863,0.0-18.0-0.1-0.246,3506,7,8
247,3,object_08,object_09,101.61,5,2,84.03,0.1111111111111111,1,object_07,5,2427,0,1,2,library_28,2,memory-2step-stake-s,737,3043283,0.0-18.0-0.1-0.247,3506,6,5
248,3,object_09,object_08,26.42,5,1,157.75,0.0,1,object_07,1,2427,0,0,1,library_31,2,memory-2step-stake-s,738,3050675,0.0-18.0-0.1-0.248,3506,5,6
249,3,object_09,object_08,126.585,6,2,453.21,0.7777777777777778,2,object_10,1,2434,0,1,7,library_3,2,memory-2step-stake-s,739,3059096,0.0-18.0-0.1-0.249,3506,5,6
250,1,object_06,object_03,183.325,2,1,565.635,1.0,2,object_10,5,2479,0,7,9,desert_17,2,memory-2step-stake-s,740,3067822,0.0-18.0-0.1-0.250,3506,2,1
251,2,object_04,object_02,63.725,4,2,747.145,0.7777777777777778,2,object_10,1,2486,0,8,7,forest_32,2,memory-2step-stake-s,741,3076545,0.0-18.0-0.1-0.251,3506,3,4
252,3,object_09,object_08,10.045,6,2,79.905,0.7777777777777778,2,object_10,1,2493,0,7,7,library_3,2,memory-2step-stake-s,742,3084603,0.0-18.0-0.1-0.252,3506,5,6
253,2,object_02,object_04,143.41,4,1,255.83,1.0,2,object_10,5,2538,0,8,9,forest_13,2,memory-2step-stake-s,743,3093021,0.0-18.0-0.1-0.253,3506,4,3
254,3,object_08,object_09,71.545,5,2,840.315,0.8888888888888888,1,object_07,5,2578,0,8,7,library_27,2,memory-2step-stake-s,744,3101944,0.0-18.0-0.1-0.254,3506,6,5
255,3,object_09,object_08,161.855,6,2,658.07,0.5555555555555556,2,object_10,5,2603,0,9,5,library_19,2,memory-2step-stake-s,745,3110358,0.0-18.0-0.1-0.255,3506,5,6
