,state1,stim_left,stim_right,rt_1,choice1,response1,rt_2,points,state2,stim_state2,stake,score,practice,rews1,rews2,background,high_arm,trial_type,trial_index,time_elapsed,internal_node_id,subid,stim_left_num,stim_right_num
0,2,object_05,object_01,811.2300001,4,2,-1.0,0.0,2,object_03,5,0,0,4,2,forest_23,2,memory-2step-stake-s,487,840166,0.0-18.0-0.0-0.0,3631,3,4
1,2,object_05,object_01,763.8850003,4,2,433.9749999,0.2222222222222222,2,object_03,5,10,0,4,2,forest_31,2,memory-2step-stake-s,488,848022,0.0-18.0-0.0-0.1,3631,3,4
2,3,object_04,object_10,590.4449997,5,1,849.3400002000001,0.6666666666666666,1,object_07,1,16,0,6,3,library_3,2,memory-2step-stake-s,489,856698,0.0-18.0-0.0-0.2,3631,5,6
3,4,object_09,object_02,629.5400001,7,1,413.7649997,0.4444444444444444,1,object_07,1,20,0,4,4,restaurant_25,2,memory-2step-stake-s,490,864736,0.0-18.0-0.0-0.3,3631,7,8
4,1,object_06,object_08,838.0700001,1,2,754.1149998999999,0.2222222222222222,1,object_07,5,30,0,2,3,desert_2,2,memory-2step-stake-s,491,872908,0.0-18.0-0.0-0.4,3631,2,1
5,4,object_02,object_09,264.7799999,7,2,228.43000010000003,0.3333333333333333,1,object_07,1,33,0,3,4,restaurant_9,2,memory-2step-stake-s,492,880656,0.0-18.0-0.0-0.5,3631,8,7
6,1,object_06,object_08,249.8749997,1,2,352.4750001,0.4444444444444444,1,object_07,5,53,0,4,8,desert_11,2,memory-2step-stake-s,493,888634,0.0-18.0-0.0-0.6,3631,2,1
7,2,object_01,object_05,582.1100002999999,4,1,353.5150001,0.7777777777777778,2,object_03,5,88,0,1,7,forest_8,2,memory-2step-stake-s,494,896916,0.0-18.0-0.0-0.7,3631,4,3
8,4,object_02,object_09,691.325,7,2,721.2999999,0.2222222222222222,1,object_07,1,90,0,2,9,restaurant_16,2,memory-2step-stake-s,495,905058,0.0-18.0-0.0-0.8,3631,8,7
9,2,object_01,object_05,79.11499962,3,2,333.05,0.2222222222222222,1,object_07,1,92,0,2,9,forest_14,2,memory-2step-stake-s,496,912808,0.0-18.0-0.0-0.9,3631,4,3
10,1,object_08,object_06,667.4600001,1,1,249.235,0.0,1,object_07,1,92,0,0,6,desert_17,2,memory-2step-stake-s,497,920273,0.0-18.0-0.0-0.10,3631,1,2
11,4,object_09,object_02,612.8600002000001,7,1,219.32999980000002,0.3333333333333333,1,object_07,1,95,0,3,6,restaurant_16,2,memory-2step-stake-s,498,928011,0.0-18.0-0.0-0.11,3631,7,8
12,4,object_09,object_02,347.5649999,8,2,223.62000030000002,0.6666666666666666,2,object_03,1,101,0,3,6,restaurant_1,2,memory-2step-stake-s,499,936055,0.0-18.0-0.0-0.12,3631,7,8
13,3,object_10,object_04,793.11,6,1,302.7550001,1.0,2,object_03,1,110,0,5,9,library_21,2,memory-2step-stake-s,500,944487,0.0-18.0-0.0-0.13,3631,6,5
14,4,object_09,object_02,1033.265,8,2,381.0800002,0.8888888888888888,2,object_03,1,118,0,3,8,restaurant_25,2,memory-2step-stake-s,501,952898,0.0-18.0-0.0-0.14,3631,7,8
15,3,object_04,object_10,1031.045,6,2,649.5599998,0.5555555555555556,2,object_03,5,143,0,3,5,library_5,2,memory-2step-stake-s,502,961268,0.0-18.0-0.0-0.15,3631,5,6
16,1,object_08,object_06,1006.895,1,1,539.5899997,0.2222222222222222,1,object_07,5,153,0,2,6,desert_18,2,memory-2step-stake-s,503,969226,0.0-18.0-0.0-0.16,3631,1,2
17,2,object_01,object_05,1193.71,3,2,646.41,0.2222222222222222,1,object_07,5,163,0,2,6,forest_9,2,memory-2step-stake-s,504,977292,0.0-18.0-0.0-0.17,3631,4,3
18,2,object_05,object_01,1341.4,4,2,797.5900001,0.7777777777777778,2,object_03,1,170,0,1,7,forest_9,2,memory-2step-stake-s,505,986016,0.0-18.0-0.0-0.18,3631,3,4
19,2,object_01,object_05,837.76,4,1,514.7549999,0.4444444444444444,2,object_03,5,190,0,1,4,forest_29,2,memory-2step-stake-s,506,994152,0.0-18.0-0.0-0.19,3631,4,3
20,1,object_06,object_08,51.69000011,1,2,264.09000019999996,0.4444444444444444,1,object_07,5,210,0,4,0,desert_27,2,memory-2step-stake-s,507,1002037,0.0-18.0-0.0-0.20,3631,2,1
21,1,object_08,object_06,820.5900001,2,2,295.01,0.3333333333333333,2,object_03,1,213,0,5,3,desert_32,2,memory-2step-stake-s,508,1009849,0.0-18.0-0.0-0.21,3631,1,2
22,1,object_08,object_06,1004.745,2,2,-1.0,0.0,2,object_03,5,213,0,4,3,desert_7,2,memory-2step-stake-s,509,1018366,0.0-18.0-0.0-0.22,3631,1,2
23,2,object_01,object_05,928.9549999,4,1,350.1200001,0.2222222222222222,2,object_03,5,223,0,3,2,forest_24,2,memory-2step-stake-s,510,1026134,0.0-18.0-0.0-0.23,3631,4,3
24,4,object_09,object_02,991.1549999,8,2,316.3950001,0.0,2,object_03,1,223,0,1,0,restaurant_14,2,memory-2step-stake-s,511,1033665,0.0-18.0-0.0-0.24,3631,7,8
25,1,object_06,object_08,437.61500020000005,1,2,385.4950001,0.2222222222222222,1,object_07,5,233,0,2,2,desert_9,2,memory-2step-stake-s,512,1041467,0.0-18.0-0.0-0.25,3631,2,1
26,2,object_05,object_01,556.3650001,3,1,309.9750001,0.1111111111111111,1,object_07,5,238,0,1,3,forest_4,2,memory-2step-stake-s,513,1049093,0.0-18.0-0.0-0.26,3631,3,4
27,2,object_05,object_01,675.1299999,4,2,326.1000002,0.3333333333333333,2,object_03,5,253,0,2,3,forest_17,2,memory-2step-stake-s,514,1056939,0.0-18.0-0.0-0.27,3631,3,4
28,3,object_04,object_10,804.2800003,5,1,379.9949996,0.3333333333333333,1,object_07,1,256,0,3,1,library_8,2,memory-2step-stake-s,515,1064838,0.0-18.0-0.0-0.28,3631,5,6
29,2,object_05,object_01,702.3300002000001,4,2,271.5249998,0.1111111111111111,2,object_03,5,261,0,5,1,forest_20,2,memory-2step-stake-s,516,1072425,0.0-18.0-0.0-0.29,3631,3,4
30,4,object_02,object_09,585.8849999,8,1,92.69999992,0.3333333333333333,2,object_03,1,264,0,9,3,restaurant_25,2,memory-2step-stake-s,517,1080035,0.0-18.0-0.0-0.30,3631,8,7
31,3,object_10,object_04,959.8099999,6,1,349.7599997,0.6666666666666666,2,object_03,1,270,0,8,6,library_23,2,memory-2step-stake-s,518,1088205,0.0-18.0-0.0-0.31,3631,6,5
32,2,object_05,object_01,768.5199999,4,2,426.7150001,0.5555555555555556,2,object_03,5,295,0,7,5,forest_27,2,memory-2step-stake-s,519,1096355,0.0-18.0-0.0-0.32,3631,3,4
33,2,object_01,object_05,406.8300002,3,2,380.32,0.7777777777777778,1,object_07,1,302,0,7,6,forest_20,2,memory-2step-stake-s,520,1104662,0.0-18.0-0.0-0.33,3631,4,3
34,2,object_05,object_01,786.1300004,3,1,568.3150003,0.8888888888888888,1,object_07,5,342,0,8,5,forest_4,2,memory-2step-stake-s,521,1113258,0.0-18.0-0.0-0.34,3631,3,4
35,1,object_06,object_08,500.095,1,2,298.8649998,0.6666666666666666,1,object_07,5,372,0,6,6,desert_24,2,memory-2step-stake-s,522,1121380,0.0-18.0-0.0-0.35,3631,2,1
36,4,object_02,object_09,1370.125,8,1,628.7699997999999,0.6666666666666666,2,object_03,1,378,0,6,6,restaurant_14,2,memory-2step-stake-s,523,1129829,0.0-18.0-0.0-0.36,3631,8,7
37,1,object_08,object_06,913.6899998,2,2,1110.845,0.6666666666666666,2,object_03,5,408,0,8,6,desert_11,2,memory-2step-stake-s,524,1138763,0.0-18.0-0.0-0.37,3631,1,2
38,3,object_10,object_04,874.2450001,5,2,269.95500039999996,0.8888888888888888,1,object_07,1,416,0,8,4,library_6,2,memory-2step-stake-s,525,1147058,0.0-18.0-0.0-0.38,3631,6,5
39,4,object_09,object_02,995.8649998999999,8,2,384.8900003,0.6666666666666666,2,object_03,1,422,0,8,6,restaurant_26,2,memory-2step-stake-s,526,1155266,0.0-18.0-0.0-0.39,3631,7,8
40,4,object_09,object_02,1164.48,7,1,288.675,0.7777777777777778,1,object_07,1,429,0,7,6,restaurant_18,2,memory-2step-stake-s,527,1163481,0.0-18.0-0.0-0.40,3631,7,8
41,3,object_10,object_04,818.3849999,5,2,349.535,1.0,1,object_07,1,438,0,9,1,library_17,2,memory-2step-stake-s,528,1171959,0.0-18.0-0.0-0.41,3631,6,5
42,3,object_10,object_04,725.0800002000001,6,1,527.5750002,0.4444444444444444,2,object_03,1,442,0,8,4,library_13,2,memory-2step-stake-s,529,1180107,0.0-18.0-0.0-0.42,3631,6,5
43,4,object_09,object_02,798.86,8,2,216.08000019999997,0.4444444444444444,2,object_03,5,462,0,8,4,restaurant_19,2,memory-2step-stake-s,530,1187940,0.0-18.0-0.0-0.43,3631,7,8
44,1,object_08,object_06,402.8099999,1,1,239.73499980000003,1.0,1,object_07,5,507,0,9,9,desert_7,2,memory-2step-stake-s,531,1196306,0.0-18.0-0.0-0.44,3631,1,2
45,1,object_08,object_06,493.0949998,2,2,304.43,0.8888888888888888,2,object_03,1,515,0,8,8,desert_5,2,memory-2step-stake-s,532,1204633,0.0-18.0-0.0-0.45,3631,1,2
46,2,object_01,object_05,364.2199999,4,1,496.5849998,0.7777777777777778,2,object_03,5,550,0,9,7,forest_23,2,memory-2step-stake-s,533,1213055,0.0-18.0-0.0-0.46,3631,4,3
47,2,object_01,object_05,356.625,3,2,225.9800001,0.8888888888888888,1,object_07,1,558,0,8,3,forest_10,2,memory-2step-stake-s,534,1221305,0.0-18.0-0.0-0.47,3631,4,3
48,3,object_04,object_10,320.98000030000003,5,1,469.55499979999996,0.7777777777777778,1,object_07,1,565,0,7,1,library_11,2,memory-2step-stake-s,535,1229697,0.0-18.0-0.0-0.48,3631,5,6
49,1,object_06,object_08,392.0899997,1,2,293.085,0.3333333333333333,1,object_07,5,580,0,3,1,desert_5,2,memory-2step-stake-s,536,1237511,0.0-18.0-0.0-0.49,3631,2,1
50,3,object_10,object_04,297.975,6,1,381.1499998,0.1111111111111111,2,object_03,1,581,0,6,1,library_28,2,memory-2step-stake-s,537,1245211,0.0-18.0-0.0-0.50,3631,6,5
51,3,object_10,object_04,255.895,5,2,343.8049997,0.6666666666666666,1,object_07,1,587,0,6,2,library_8,2,memory-2step-stake-s,538,1253378,0.0-18.0-0.0-0.51,3631,6,5
52,4,object_09,object_02,207.07,7,1,198.29000019999998,0.7777777777777778,1,object_07,1,594,0,7,4,restaurant_29,2,memory-2step-stake-s,539,1261501,0.0-18.0-0.0-0.52,3631,7,8
53,3,object_10,object_04,283.355,5,2,293.8999999,0.4444444444444444,1,object_07,1,598,0,4,8,library_27,2,memory-2step-stake-s,540,1269417,0.0-18.0-0.0-0.53,3631,6,5
54,3,object_04,object_10,407.28000039999995,6,2,231.6900003,1.0,2,object_03,5,643,0,3,9,library_28,2,memory-2step-stake-s,541,1277774,0.0-18.0-0.0-0.54,3631,5,6
55,3,object_10,object_04,604.57,5,2,374.9350002,0.4444444444444444,1,object_07,1,647,0,4,4,library_31,2,memory-2step-stake-s,542,1285769,0.0-18.0-0.0-0.55,3631,6,5
56,4,object_09,object_02,283.115,7,1,755.5149999,0.5555555555555556,1,object_07,1,652,0,5,2,restaurant_29,2,memory-2step-stake-s,543,1294250,0.0-18.0-0.0-0.56,3631,7,8
57,2,object_05,object_01,-1.0,-1,-1,-1.0,0.0,-,,5,652,0,7,2,forest_31,2,memory-2step-stake-s,544,1300760,0.0-18.0-0.0-0.57,3631,3,4
58,2,object_01,object_05,359.3649999,3,2,822.78,0.7777777777777778,1,object_07,5,687,0,7,2,forest_28,2,memory-2step-stake-s,545,1309509,0.0-18.0-0.0-0.58,3631,4,3
59,3,object_10,object_04,96.20499983,5,2,277.6900004,0.6666666666666666,1,object_07,1,693,0,6,2,library_11,2,memory-2step-stake-s,546,1317610,0.0-18.0-0.0-0.59,3631,6,5
60,4,object_02,object_09,277.98500010000004,8,1,518.7999997,0.5555555555555556,2,object_03,1,698,0,6,5,restaurant_11,2,memory-2step-stake-s,547,1325852,0.0-18.0-0.0-0.60,3631,8,7
61,3,object_04,object_10,299.9249999,6,2,313.4650001,0.5555555555555556,2,object_03,1,703,0,6,5,library_13,2,memory-2step-stake-s,548,1333888,0.0-18.0-0.0-0.61,3631,5,6
62,2,object_05,object_01,325.9899998,4,2,262.5099998,0.3333333333333333,2,object_03,5,718,0,3,3,forest_19,2,memory-2step-stake-s,549,1341669,0.0-18.0-0.0-0.62,3631,3,4
63,4,object_02,object_09,384.17,7,2,531.92,0.2222222222222222,1,object_07,1,720,0,2,1,restaurant_5,2,memory-2step-stake-s,550,1349621,0.0-18.0-0.0-0.63,3631,8,7
64,4,object_09,object_02,219.56499989999998,8,2,460.38499989999997,0.0,2,object_03,1,720,0,5,0,restaurant_22,2,memory-2step-stake-s,551,1357296,0.0-18.0-0.0-0.64,3631,7,8
65,1,object_08,object_06,285.0549999,1,1,585.9099999,0.6666666666666666,1,object_07,5,750,0,6,3,desert_8,2,memory-2step-stake-s,552,1365703,0.0-18.0-0.0-0.65,3631,1,2
66,4,object_09,object_02,248.6049999,8,2,426.66000030000004,0.7777777777777778,2,object_03,5,785,0,6,7,restaurant_19,2,memory-2step-stake-s,553,1374053,0.0-18.0-0.0-0.66,3631,7,8
67,2,object_05,object_01,110.44,3,1,269.055,1.0,1,object_07,5,830,0,9,5,forest_28,2,memory-2step-stake-s,554,1382450,0.0-18.0-0.0-0.67,3631,3,4
68,4,object_09,object_02,123.7150002,8,2,351.7550002,0.1111111111111111,2,object_03,1,831,0,7,1,restaurant_22,2,memory-2step-stake-s,555,1390120,0.0-18.0-0.0-0.68,3631,7,8
69,4,object_09,object_02,771.1299998,8,2,873.2349998,0.5555555555555556,2,object_03,1,836,0,7,5,restaurant_31,2,memory-2step-stake-s,556,1398712,0.0-18.0-0.0-0.69,3631,7,8
70,1,object_06,object_08,91.86499985,1,2,436.45500020000003,1.0,1,object_07,1,845,0,9,5,desert_29,2,memory-2step-stake-s,557,1407275,0.0-18.0-0.0-0.70,3631,2,1
71,1,object_08,object_06,461.3999999,2,2,483.3,0.7777777777777778,2,object_03,5,880,0,8,7,desert_2,2,memory-2step-stake-s,558,1415683,0.0-18.0-0.0-0.71,3631,1,2
72,2,object_01,object_05,21.01000026,4,1,335.9599998,0.5555555555555556,2,object_03,5,905,0,8,5,forest_29,2,memory-2step-stake-s,559,1423744,0.0-18.0-0.0-0.72,3631,4,3
73,3,object_10,object_04,149.3549999,5,2,464.98999979999996,0.4444444444444444,1,object_07,1,909,0,4,9,library_17,2,memory-2step-stake-s,560,1431831,0.0-18.0-0.0-0.73,3631,6,5
74,4,object_02,object_09,155.63500019999998,8,1,731.195,0.8888888888888888,2,object_03,5,949,0,6,8,restaurant_5,2,memory-2step-stake-s,561,1440588,0.0-18.0-0.0-0.74,3631,8,7
75,1,object_08,object_06,361.3799997,2,2,400.19,0.8888888888888888,2,object_03,5,989,0,3,8,desert_22,2,memory-2step-stake-s,562,1449020,0.0-18.0-0.0-0.75,3631,1,2
76,1,object_08,object_06,469.6450001,2,2,270.2000001,0.8888888888888888,2,object_03,5,1029,0,6,8,desert_5,2,memory-2step-stake-s,563,1457315,0.0-18.0-0.0-0.76,3631,1,2
77,1,object_06,object_08,269.94,2,1,491.9799999,0.7777777777777778,2,object_03,5,1064,0,8,7,desert_11,2,memory-2step-stake-s,564,1465734,0.0-18.0-0.0-0.77,3631,2,1
78,3,object_10,object_04,959.605,5,2,18.55999976,1.0,1,object_07,1,1073,0,9,9,library_6,2,memory-2step-stake-s,565,1473878,0.0-18.0-0.0-0.78,3631,6,5
79,4,object_09,object_02,-1.0,-1,-1,-1.0,0.0,-,,1,1073,0,9,5,restaurant_26,2,memory-2step-stake-s,566,1480388,0.0-18.0-0.0-0.79,3631,7,8
80,1,object_06,object_08,374.9450003,1,2,301.6300001,0.5555555555555556,1,object_07,5,1098,0,5,8,desert_24,2,memory-2step-stake-s,567,1488410,0.0-18.0-0.0-0.80,3631,2,1
81,1,object_06,object_08,307.575,1,2,276.8100002,0.2222222222222222,1,object_07,5,1108,0,2,7,desert_29,2,memory-2step-stake-s,568,1496104,0.0-18.0-0.0-0.81,3631,2,1
82,2,object_05,object_01,372.8799997,4,2,1015.215,0.8888888888888888,2,object_03,5,1148,0,5,8,forest_27,2,memory-2step-stake-s,569,1505147,0.0-18.0-0.0-0.82,3631,3,4
83,2,object_05,object_01,593.8949999,4,2,254.0699998,0.8888888888888888,2,object_03,5,1188,0,4,8,forest_26,2,memory-2step-stake-s,570,1513426,0.0-18.0-0.0-0.83,3631,3,4
84,3,object_04,object_10,577.8450002000001,6,2,946.5449997000002,0.8888888888888888,2,object_03,1,1196,0,5,8,library_2,2,memory-2step-stake-s,571,1522396,0.0-18.0-0.0-0.84,3631,5,6
85,4,object_09,object_02,573.355,8,2,368.29000010000004,0.8888888888888888,2,object_03,5,1236,0,5,8,restaurant_31,2,memory-2step-stake-s,572,1530790,0.0-18.0-0.0-0.85,3631,7,8
86,2,object_05,object_01,376.59,3,1,670.1850002,0.5555555555555556,1,object_07,5,1261,0,5,8,forest_14,2,memory-2step-stake-s,573,1539180,0.0-18.0-0.0-0.86,3631,3,4
87,2,object_05,object_01,818.7799999,4,2,1144.685,0.7777777777777778,2,object_03,5,1296,0,4,7,forest_24,2,memory-2step-stake-s,574,1548250,0.0-18.0-0.0-0.87,3631,3,4
88,3,object_04,object_10,1343.9,6,2,957.5450001,0.6666666666666666,2,object_03,1,1302,0,4,6,library_21,2,memory-2step-stake-s,575,1557027,0.0-18.0-0.0-0.88,3631,5,6
89,3,object_04,object_10,504.9749999,5,1,522.3449999,0.8888888888888888,1,object_07,1,1310,0,8,5,library_14,2,memory-2step-stake-s,576,1565575,0.0-18.0-0.0-0.89,3631,5,6
90,3,object_10,object_04,423.29499960000004,5,2,1340.36,0.4444444444444444,1,object_07,1,1314,0,4,6,library_5,2,memory-2step-stake-s,577,1574535,0.0-18.0-0.0-0.90,3631,6,5
91,3,object_10,object_04,279.1299997,5,2,876.7499998,0.2222222222222222,1,object_07,1,1316,0,2,9,library_14,2,memory-2step-stake-s,578,1582831,0.0-18.0-0.0-0.91,3631,6,5
92,4,object_02,object_09,401.4249998,7,2,592.4450001,0.0,1,object_07,1,1316,0,0,8,restaurant_22,2,memory-2step-stake-s,579,1590642,0.0-18.0-0.0-0.92,3631,8,7
93,3,object_04,object_10,257.7499999,6,2,288.04,1.0,2,object_03,5,1361,0,2,9,library_13,2,memory-2step-stake-s,580,1599058,0.0-18.0-0.0-0.93,3631,5,6
94,1,object_06,object_08,248.4200001,2,1,698.2700001000001,0.7777777777777778,2,object_03,5,1396,0,4,7,desert_27,2,memory-2step-stake-s,581,1607678,0.0-18.0-0.0-0.94,3631,2,1
95,3,object_04,object_10,917.8149998,6,2,1045.03,0.8888888888888888,2,object_03,1,1404,0,4,8,library_23,2,memory-2step-stake-s,582,1616746,0.0-18.0-0.0-0.95,3631,5,6
96,1,object_08,object_06,294.2400002,2,2,562.81,0.8888888888888888,2,object_03,5,1444,0,2,8,desert_30,2,memory-2step-stake-s,583,1625334,0.0-18.0-0.0-0.96,3631,1,2
97,1,object_08,object_06,302.9200002,1,1,533.8249998,0.3333333333333333,1,object_07,1,1447,0,3,9,desert_30,2,memory-2step-stake-s,584,1633390,0.0-18.0-0.0-0.97,3631,1,2
98,2,object_01,object_05,1295.8,4,1,962.64,1.0,2,object_03,5,1492,0,3,9,forest_24,2,memory-2step-stake-s,585,1642479,0.0-18.0-0.0-0.98,3631,4,3
99,4,object_09,object_02,972.7600002999999,7,1,-1.0,0.0,1,object_07,1,1492,0,6,9,restaurant_26,2,memory-2step-stake-s,586,1650995,0.0-18.0-0.0-0.99,3631,7,8
100,3,object_04,object_10,251.6550003,6,2,342.22,1.0,2,object_03,5,1537,0,6,9,library_14,2,memory-2step-stake-s,587,1659462,0.0-18.0-0.0-0.100,3631,5,6
101,3,object_04,object_10,914.87,5,1,306.1250001,0.8888888888888888,1,object_07,1,1545,0,8,8,library_17,2,memory-2step-stake-s,588,1667790,0.0-18.0-0.0-0.101,3631,5,6
102,3,object_04,object_10,309.76999969999997,6,2,444.5850002,0.8888888888888888,2,object_03,1,1553,0,6,8,library_31,2,memory-2step-stake-s,589,1676260,0.0-18.0-0.0-0.102,3631,5,6
103,2,object_01,object_05,113.88499990000001,4,1,445.69500020000004,0.7777777777777778,2,object_03,5,1588,0,6,7,forest_21,2,memory-2step-stake-s,590,1684629,0.0-18.0-0.0-0.103,3631,4,3
104,3,object_04,object_10,242.995,6,2,268.79000010000004,0.6666666666666666,2,object_03,5,1618,0,8,6,library_8,2,memory-2step-stake-s,591,1692720,0.0-18.0-0.0-0.104,3631,5,6
105,2,object_05,object_01,33.74000033,3,1,354.5499998,0.5555555555555556,1,object_07,5,1643,0,5,2,forest_28,2,memory-2step-stake-s,592,1700796,0.0-18.0-0.0-0.105,3631,3,4
106,4,object_09,object_02,215.9350002,8,2,237.2300001,0.7777777777777778,2,object_03,1,1650,0,5,7,restaurant_9,2,memory-2step-stake-s,593,1708957,0.0-18.0-0.0-0.106,3631,7,8
107,2,object_01,object_05,18.11000006,4,1,238.5100001,0.6666666666666666,2,object_03,5,1680,0,8,6,forest_21,2,memory-2step-stake-s,594,1717018,0.0-18.0-0.0-0.107,3631,4,3
108,3,object_10,object_04,504.245,5,2,275.535,1.0,1,object_07,1,1689,0,9,2,library_13,2,memory-2step-stake-s,595,1725423,0.0-18.0-0.0-0.108,3631,6,5
109,2,object_01,object_05,688.6300002,4,1,607.26,0.6666666666666666,2,object_03,5,1719,0,7,6,forest_31,2,memory-2step-stake-s,596,1733852,0.0-18.0-0.0-0.109,3631,4,3
110,4,object_02,object_09,513.6449997999999,7,2,264.9849998,0.6666666666666666,1,object_07,1,1725,0,6,8,restaurant_11,2,memory-2step-stake-s,597,1741942,0.0-18.0-0.0-0.110,3631,8,7
111,1,object_08,object_06,740.5499998,2,2,571.0100001000001,0.7777777777777778,2,object_03,5,1760,0,4,7,desert_18,2,memory-2step-stake-s,598,1750436,0.0-18.0-0.0-0.111,3631,1,2
112,4,object_09,object_02,96.09499993,7,1,452.44499989999997,0.4444444444444444,1,object_07,5,1780,0,4,6,restaurant_16,2,memory-2step-stake-s,599,1758513,0.0-18.0-0.0-0.112,3631,7,8
113,3,object_10,object_04,266.1600001,5,2,192.45500019999997,0.5555555555555556,1,object_07,1,1785,0,5,6,library_10,2,memory-2step-stake-s,600,1766426,0.0-18.0-0.0-0.113,3631,6,5
114,2,object_01,object_05,193.14499990000002,4,1,377.7700001,0.7777777777777778,2,object_03,5,1820,0,4,7,forest_4,2,memory-2step-stake-s,601,1774727,0.0-18.0-0.0-0.114,3631,4,3
115,1,object_06,object_08,260.3750001,1,2,176.97499969999998,0.4444444444444444,1,object_07,5,1840,0,4,5,desert_3,2,memory-2step-stake-s,602,1782522,0.0-18.0-0.0-0.115,3631,2,1
116,4,object_02,object_09,162.20499990000002,8,1,384.80000010000003,0.4444444444444444,2,object_03,5,1860,0,2,4,restaurant_31,2,memory-2step-stake-s,603,1790526,0.0-18.0-0.0-0.116,3631,8,7
117,2,object_01,object_05,291.9799997,3,2,510.57000039999997,0.4444444444444444,1,object_07,5,1880,0,4,5,forest_28,2,memory-2step-stake-s,604,1798655,0.0-18.0-0.0-0.117,3631,4,3
118,4,object_02,object_09,264.16500010000004,7,2,671.015,0.4444444444444444,1,object_07,5,1900,0,4,5,restaurant_7,2,memory-2step-stake-s,605,1806948,0.0-18.0-0.0-0.118,3631,8,7
119,1,object_08,object_06,334.4399999,2,2,504.14000030000005,0.3333333333333333,2,object_03,5,1915,0,4,3,desert_9,2,memory-2step-stake-s,606,1814971,0.0-18.0-0.0-0.119,3631,1,2
120,3,object_10,object_04,208.61499990000002,6,1,263.0449999,0.6666666666666666,2,object_03,1,1921,0,2,6,library_27,2,memory-2step-stake-s,607,1823057,0.0-18.0-0.0-0.120,3631,6,5
121,2,object_01,object_05,106.22,3,2,215.475,0.2222222222222222,1,object_07,5,1931,0,2,2,forest_14,2,memory-2step-stake-s,608,1830691,0.0-18.0-0.0-0.121,3631,4,3
122,1,object_08,object_06,266.3350003,2,2,302.63999989999996,0.1111111111111111,2,object_03,5,1936,0,4,1,desert_16,2,memory-2step-stake-s,609,1838311,0.0-18.0-0.0-0.122,3631,1,2
123,4,object_02,object_09,248.3700002,7,2,781.585,0.4444444444444444,1,object_07,5,1956,0,4,2,restaurant_9,2,memory-2step-stake-s,610,1846713,0.0-18.0-0.0-0.123,3631,8,7
124,1,object_08,object_06,477.215,2,2,254.1100001,0.0,2,object_03,5,1956,0,3,0,desert_22,2,memory-2step-stake-s,611,1854183,0.0-18.0-0.0-0.124,3631,1,2
125,3,object_10,object_04,838.2699997000001,5,2,-1.0,0.0,1,object_07,1,1956,0,4,1,library_17,2,memory-2step-stake-s,612,1862699,0.0-18.0-0.0-0.125,3631,6,5
126,3,object_04,object_10,111.08999979999999,5,1,469.6650002,0.6666666666666666,1,object_07,1,1962,0,6,2,library_11,2,memory-2step-stake-s,613,1870995,0.0-18.0-0.0-0.126,3631,5,6
127,1,object_06,object_08,237.14999989999998,1,2,353.66499980000003,0.5555555555555556,1,object_07,5,1987,0,5,4,desert_2,2,memory-2step-stake-s,614,1879076,0.0-18.0-0.0-0.127,3631,2,1
128,1,object_06,object_08,463.53499960000005,2,1,426.12499979999996,0.4444444444444444,2,object_03,5,2007,0,8,4,desert_9,2,memory-2step-stake-s,616,1955342,0.0-18.0-0.1-0.128,3631,2,1
129,4,object_02,object_09,167.7800003,7,2,248.85000010000002,0.7777777777777778,1,object_07,1,2014,0,7,3,restaurant_11,2,memory-2step-stake-s,617,1963519,0.0-18.0-0.1-0.129,3631,8,7
130,4,object_02,object_09,244.3499998,8,1,1123.54,0.3333333333333333,2,object_03,1,2017,0,7,3,restaurant_20,2,memory-2step-stake-s,618,1972168,0.0-18.0-0.1-0.130,3631,8,7
131,2,object_05,object_01,195.9700002,3,1,247.57000010000002,0.4444444444444444,1,object_07,5,2037,0,4,4,forest_10,2,memory-2step-stake-s,619,1980037,0.0-18.0-0.1-0.131,3631,3,4
132,1,object_08,object_06,369.3049997,1,1,520.3499999,0.5555555555555556,1,object_07,5,2062,0,5,5,desert_24,2,memory-2step-stake-s,620,1988279,0.0-18.0-0.1-0.132,3631,1,2
133,2,object_05,object_01,388.80500010000003,4,2,343.7650003,0.5555555555555556,2,object_03,5,2087,0,5,5,forest_21,2,memory-2step-stake-s,621,1996345,0.0-18.0-0.1-0.133,3631,3,4
134,1,object_06,object_08,350.34000039999995,2,1,438.1300001,0.3333333333333333,2,object_03,1,2090,0,4,3,desert_2,2,memory-2step-stake-s,622,2004301,0.0-18.0-0.1-0.134,3631,2,1
135,3,object_10,object_04,257.58,6,1,456.8000003,0.4444444444444444,2,object_03,1,2094,0,7,4,library_18,2,memory-2step-stake-s,623,2012376,0.0-18.0-0.1-0.135,3631,6,5
136,1,object_06,object_08,187.2700001,1,2,224.13,0.8888888888888888,1,object_07,5,2134,0,8,1,desert_3,2,memory-2step-stake-s,624,2020626,0.0-18.0-0.1-0.136,3631,2,1
137,4,object_02,object_09,408.665,8,1,506.24499979999996,0.0,2,object_03,5,2134,0,7,0,restaurant_18,2,memory-2step-stake-s,625,2028352,0.0-18.0-0.1-0.137,3631,8,7
138,1,object_06,object_08,284.6049997,1,2,498.33499969999997,0.6666666666666666,1,object_07,5,2164,0,6,3,desert_30,2,memory-2step-stake-s,626,2036673,0.0-18.0-0.1-0.138,3631,2,1
139,4,object_09,object_02,94.35500018,7,1,467.615,0.5555555555555556,1,object_07,1,2169,0,5,3,restaurant_7,2,memory-2step-stake-s,627,2044864,0.0-18.0-0.1-0.139,3631,7,8
140,3,object_10,object_04,397.9400001,5,2,686.4100001,0.4444444444444444,1,object_07,1,2173,0,4,6,library_23,2,memory-2step-stake-s,628,2053170,0.0-18.0-0.1-0.140,3631,6,5
141,2,object_05,object_01,133.6949999,3,1,213.465,0.4444444444444444,1,object_07,5,2193,0,4,8,forest_8,2,memory-2step-stake-s,629,2061006,0.0-18.0-0.1-0.141,3631,3,4
142,2,object_05,object_01,298.2549998,4,2,295.62,0.8888888888888888,2,object_03,1,2201,0,9,8,forest_8,2,memory-2step-stake-s,630,2069330,0.0-18.0-0.1-0.142,3631,3,4
143,3,object_10,object_04,276.48,6,1,282.0349997,0.8888888888888888,2,object_03,5,2241,0,6,8,library_3,2,memory-2step-stake-s,631,2077634,0.0-18.0-0.1-0.143,3631,6,5
144,3,object_04,object_10,313.6749999,6,2,349.1100003,0.8888888888888888,2,object_03,5,2281,0,9,8,library_8,2,memory-2step-stake-s,632,2086005,0.0-18.0-0.1-0.144,3631,5,6
145,1,object_08,object_06,84.85500002,1,1,265.05,1.0,1,object_07,1,2290,0,9,7,desert_18,2,memory-2step-stake-s,633,2094401,0.0-18.0-0.1-0.145,3631,1,2
146,4,object_02,object_09,322.015,7,2,504.0549999,0.7777777777777778,1,object_07,1,2297,0,7,9,restaurant_11,2,memory-2step-stake-s,634,2102825,0.0-18.0-0.1-0.146,3631,8,7
147,1,object_08,object_06,168.86499990000002,2,2,333.075,0.8888888888888888,2,object_03,5,2337,0,8,8,desert_17,2,memory-2step-stake-s,635,2111183,0.0-18.0-0.1-0.147,3631,1,2
148,3,object_04,object_10,625.4750001,5,1,296.41,0.8888888888888888,1,object_07,1,2345,0,8,8,library_31,2,memory-2step-stake-s,636,2119506,0.0-18.0-0.1-0.148,3631,5,6
149,1,object_08,object_06,50.61999988,2,2,803.51,0.6666666666666666,2,object_03,5,2375,0,6,6,desert_7,2,memory-2step-stake-s,637,2128130,0.0-18.0-0.1-0.149,3631,1,2
150,2,object_01,object_05,13.49500008,3,2,309.7549998,0.6666666666666666,1,object_07,1,2381,0,6,8,forest_14,2,memory-2step-stake-s,638,2136265,0.0-18.0-0.1-0.150,3631,4,3
151,2,object_01,object_05,0.14499994,4,1,365.6100002,0.6666666666666666,2,object_03,5,2411,0,8,6,forest_9,2,memory-2step-stake-s,639,2144455,0.0-18.0-0.1-0.151,3631,4,3
152,4,object_09,object_02,470.2550001,8,2,555.2300001,0.7777777777777778,2,object_03,1,2418,0,8,7,restaurant_14,2,memory-2step-stake-s,640,2152935,0.0-18.0-0.1-0.152,3631,7,8
153,1,object_08,object_06,456.09,1,1,1198.205,0.5555555555555556,1,object_07,5,2443,0,5,4,desert_30,2,memory-2step-stake-s,641,2161854,0.0-18.0-0.1-0.153,3631,1,2
154,3,object_04,object_10,853.2000002,5,1,488.6999996,0.3333333333333333,1,object_07,1,2446,0,3,4,library_5,2,memory-2step-stake-s,642,2169864,0.0-18.0-0.1-0.154,3631,5,6
155,1,object_08,object_06,1355.68,1,1,578.6000001,0.3333333333333333,1,object_07,5,2461,0,3,3,desert_29,2,memory-2step-stake-s,643,2177962,0.0-18.0-0.1-0.155,3631,1,2
156,2,object_01,object_05,476.365,3,2,196.72500019999998,0.4444444444444444,1,object_07,5,2481,0,4,6,forest_19,2,memory-2step-stake-s,644,2185782,0.0-18.0-0.1-0.156,3631,4,3
157,3,object_10,object_04,75.86499956,6,1,404.2849997,0.7777777777777778,2,object_03,1,2488,0,7,7,library_11,2,memory-2step-stake-s,645,2194110,0.0-18.0-0.1-0.157,3631,6,5
158,1,object_06,object_08,410.8249997,2,1,628.3899997000001,0.6666666666666666,2,object_03,5,2518,0,7,6,desert_27,2,memory-2step-stake-s,646,2202563,0.0-18.0-0.1-0.158,3631,2,1
159,3,object_04,object_10,578.245,6,2,406.74,0.7777777777777778,2,object_03,5,2553,0,7,7,library_31,2,memory-2step-stake-s,647,2210892,0.0-18.0-0.1-0.159,3631,5,6
160,1,object_08,object_06,473.07000030000006,1,1,330.385,0.8888888888888888,1,object_07,1,2561,0,8,8,desert_16,2,memory-2step-stake-s,648,2219248,0.0-18.0-0.1-0.160,3631,1,2
161,2,object_05,object_01,208.7599998,4,2,460.02999969999996,1.0,2,object_03,1,2570,0,6,9,forest_20,2,memory-2step-stake-s,649,2227834,0.0-18.0-0.1-0.161,3631,3,4
162,1,object_08,object_06,311.0750001,1,1,379.14499969999997,0.4444444444444444,1,object_07,5,2590,0,4,7,desert_27,2,memory-2step-stake-s,650,2235833,0.0-18.0-0.1-0.162,3631,1,2
163,1,object_08,object_06,339.28,1,1,234.71499980000002,0.5555555555555556,1,object_07,5,2615,0,5,9,desert_32,2,memory-2step-stake-s,651,2243792,0.0-18.0-0.1-0.163,3631,1,2
164,4,object_02,object_09,311.9399999,8,1,337.67499960000004,0.7777777777777778,2,object_03,1,2622,0,2,7,restaurant_1,2,memory-2step-stake-s,652,2252054,0.0-18.0-0.1-0.164,3631,8,7
165,3,object_10,object_04,282.10499980000003,5,2,167.7250001,0.3333333333333333,1,object_07,1,2625,0,3,7,library_27,2,memory-2step-stake-s,653,2259741,0.0-18.0-0.1-0.165,3631,6,5
166,2,object_01,object_05,839.8799999,4,1,354.7550002,0.8888888888888888,2,object_03,5,2665,0,5,8,forest_27,2,memory-2step-stake-s,654,2268120,0.0-18.0-0.1-0.166,3631,4,3
167,2,object_05,object_01,116.2300003,4,2,480.5000001,0.6666666666666666,2,object_03,1,2671,0,6,6,forest_10,2,memory-2step-stake-s,655,2276422,0.0-18.0-0.1-0.167,3631,3,4
168,2,object_05,object_01,157.5200004,3,1,293.82999989999996,0.6666666666666666,1,object_07,5,2701,0,6,3,forest_29,2,memory-2step-stake-s,656,2284537,0.0-18.0-0.1-0.168,3631,3,4
169,1,object_06,object_08,784.7849997000001,1,2,870.5150001000001,0.8888888888888888,1,object_07,1,2709,0,8,7,desert_24,2,memory-2step-stake-s,657,2293429,0.0-18.0-0.1-0.169,3631,2,1
170,4,object_02,object_09,548.7600002,8,1,558.1899998,0.6666666666666666,2,object_03,1,2715,0,8,6,restaurant_31,2,memory-2step-stake-s,658,2301809,0.0-18.0-0.1-0.170,3631,8,7
171,2,object_05,object_01,552.375,4,2,612.6600001,0.7777777777777778,2,object_03,5,2750,0,7,7,forest_24,2,memory-2step-stake-s,659,2310345,0.0-18.0-0.1-0.171,3631,3,4
172,3,object_04,object_10,392.8700001,6,2,657.0649999,0.5555555555555556,2,object_03,1,2755,0,5,5,library_10,2,memory-2step-stake-s,660,2318727,0.0-18.0-0.1-0.172,3631,5,6
173,3,object_10,object_04,172.91999980000003,6,1,737.3299999,0.6666666666666666,2,object_03,1,2761,0,4,6,library_2,2,memory-2step-stake-s,661,2327287,0.0-18.0-0.1-0.173,3631,6,5
174,4,object_02,object_09,995.8500001,8,1,1290.11,0.6666666666666666,2,object_03,1,2767,0,2,6,restaurant_18,2,memory-2step-stake-s,662,2336400,0.0-18.0-0.1-0.174,3631,8,7
175,2,object_05,object_01,222.14999980000002,4,2,534.4349998,0.6666666666666666,2,object_03,5,2797,0,3,6,forest_4,2,memory-2step-stake-s,663,2344759,0.0-18.0-0.1-0.175,3631,3,4
176,4,object_09,object_02,453.30999979999996,7,1,1209.63,0.0,1,object_07,5,2797,0,0,7,restaurant_16,2,memory-2step-stake-s,664,2353186,0.0-18.0-0.1-0.176,3631,7,8
177,4,object_09,object_02,665.2799997999999,7,1,607.9849997,0.1111111111111111,1,object_07,1,2798,0,1,5,restaurant_26,2,memory-2step-stake-s,665,2361115,0.0-18.0-0.1-0.177,3631,7,8
178,4,object_02,object_09,79.47999984,7,2,331.5349999,0.1111111111111111,1,object_07,1,2799,0,1,5,restaurant_24,2,memory-2step-stake-s,666,2368763,0.0-18.0-0.1-0.178,3631,8,7
179,2,object_01,object_05,282.9300002,3,2,427.0000001,0.2222222222222222,1,object_07,1,2801,0,2,5,forest_26,2,memory-2step-stake-s,667,2376609,0.0-18.0-0.1-0.179,3631,4,3
180,1,object_06,object_08,378.5600001,1,2,440.39999969999997,0.5555555555555556,1,object_07,5,2826,0,5,5,desert_9,2,memory-2step-stake-s,668,2384771,0.0-18.0-0.1-0.180,3631,2,1
181,4,object_02,object_09,231.0500001,7,2,405.7149999,1.0,1,object_07,1,2835,0,9,6,restaurant_25,2,memory-2step-stake-s,669,2393300,0.0-18.0-0.1-0.181,3631,8,7
182,3,object_04,object_10,510.25000030000007,5,1,778.7549999,0.7777777777777778,1,object_07,1,2842,0,7,6,library_18,2,memory-2step-stake-s,670,2402010,0.0-18.0-0.1-0.182,3631,5,6
183,3,object_10,object_04,39.87499978,5,2,1287.715,1.0,1,object_07,5,2887,0,9,3,library_28,2,memory-2step-stake-s,671,2411422,0.0-18.0-0.1-0.183,3631,6,5
184,1,object_06,object_08,680.1300002,2,1,477.6999997,0.3333333333333333,2,object_03,5,2902,0,9,3,desert_11,2,memory-2step-stake-s,672,2419425,0.0-18.0-0.1-0.184,3631,2,1
185,3,object_04,object_10,344.6450001,6,2,355.6650002,0.5555555555555556,2,object_03,1,2907,0,8,5,library_3,2,memory-2step-stake-s,673,2427499,0.0-18.0-0.1-0.185,3631,5,6
186,4,object_02,object_09,23.49000005,8,1,279.8099997,0.5555555555555556,2,object_03,1,2912,0,8,5,restaurant_7,2,memory-2step-stake-s,674,2435501,0.0-18.0-0.1-0.186,3631,8,7
187,3,object_04,object_10,412.6249999,5,1,987.4549997000001,0.7777777777777778,1,object_07,1,2919,0,7,8,library_10,2,memory-2step-stake-s,675,2444412,0.0-18.0-0.1-0.187,3631,5,6
188,3,object_04,object_10,284.18,6,2,407.995,0.8888888888888888,2,object_03,5,2959,0,5,8,library_2,2,memory-2step-stake-s,676,2452846,0.0-18.0-0.1-0.188,3631,5,6
189,1,object_08,object_06,80.65500017,1,1,379.7250004,0.3333333333333333,1,object_07,5,2974,0,3,8,desert_29,2,memory-2step-stake-s,677,2460743,0.0-18.0-0.1-0.189,3631,1,2
190,1,object_08,object_06,307.1000003,2,2,720.675,0.7777777777777778,2,object_03,5,3009,0,7,7,desert_16,2,memory-2step-stake-s,678,2469392,0.0-18.0-0.1-0.190,3631,1,2
191,4,object_09,object_02,299.3999999,7,1,347.8399999,0.5555555555555556,1,object_07,1,3014,0,5,9,restaurant_20,2,memory-2step-stake-s,679,2477459,0.0-18.0-0.1-0.191,3631,7,8
192,4,object_02,object_09,372.8550002,7,2,174.2500002,0.3333333333333333,1,object_07,1,3017,0,3,7,restaurant_1,2,memory-2step-stake-s,680,2485154,0.0-18.0-0.1-0.192,3631,8,7
193,2,object_05,object_01,587.33,3,1,-1.0,0.0,1,object_07,5,3017,0,4,6,forest_26,2,memory-2step-stake-s,681,2493669,0.0-18.0-0.1-0.193,3631,3,4
194,3,object_10,object_04,232.76,6,1,334.45,0.6666666666666666,2,object_03,5,3047,0,7,6,library_28,2,memory-2step-stake-s,682,2501827,0.0-18.0-0.1-0.194,3631,6,5
195,4,object_09,object_02,218.46000010000003,8,2,251.5199999,0.6666666666666666,2,object_03,5,3077,0,5,6,restaurant_18,2,memory-2step-stake-s,683,2509901,0.0-18.0-0.1-0.195,3631,7,8
196,2,object_05,object_01,228.5450003,3,1,485.64500039999996,0.2222222222222222,1,object_07,5,3087,0,2,5,forest_21,2,memory-2step-stake-s,684,2517807,0.0-18.0-0.1-0.196,3631,3,4
197,2,object_01,object_05,247.9900001,3,2,425.88499979999995,0.6666666666666666,1,object_07,5,3117,0,6,3,forest_20,2,memory-2step-stake-s,685,2526056,0.0-18.0-0.1-0.197,3631,4,3
198,1,object_08,object_06,498.0050004,2,2,431.725,0.3333333333333333,2,object_03,5,3132,0,8,3,desert_32,2,memory-2step-stake-s,686,2534007,0.0-18.0-0.1-0.198,3631,1,2
199,4,object_09,object_02,15.139999800000002,7,1,390.83500019999997,0.7777777777777778,1,object_07,5,3167,0,7,3,restaurant_19,2,memory-2step-stake-s,687,2542319,0.0-18.0-0.1-0.199,3631,7,8
200,1,object_06,object_08,336.16499980000003,1,2,379.56999989999997,0.6666666666666666,1,object_07,5,3197,0,6,0,desert_22,2,memory-2step-stake-s,688,2550519,0.0-18.0-0.1-0.200,3631,2,1
201,3,object_10,object_04,239.32000019999998,6,1,203.9649999,0.2222222222222222,2,object_03,1,3199,0,4,2,library_21,2,memory-2step-stake-s,689,2558141,0.0-18.0-0.1-0.201,3631,6,5
202,1,object_08,object_06,389.895,1,1,623.2699999,0.4444444444444444,1,object_07,5,3219,0,4,3,desert_18,2,memory-2step-stake-s,690,2566387,0.0-18.0-0.1-0.202,3631,1,2
203,1,object_06,object_08,450.83,1,2,1063.95,0.3333333333333333,1,object_07,5,3234,0,3,0,desert_17,2,memory-2step-stake-s,691,2574970,0.0-18.0-0.1-0.203,3631,2,1
204,1,object_06,object_08,644.5250004,2,1,706.0349997999999,0.3333333333333333,2,object_03,1,3237,0,0,3,desert_8,2,memory-2step-stake-s,692,2583199,0.0-18.0-0.1-0.204,3631,2,1
205,3,object_04,object_10,397.9950002,6,2,244.6099999,0.2222222222222222,2,object_03,5,3247,0,2,2,library_18,2,memory-2step-stake-s,693,2590862,0.0-18.0-0.1-0.205,3631,5,6
206,2,object_05,object_01,3.959999885,3,1,367.0999999,0.2222222222222222,1,object_07,5,3257,0,2,2,forest_8,2,memory-2step-stake-s,694,2598652,0.0-18.0-0.1-0.206,3631,3,4
207,3,object_10,object_04,437.31500020000004,5,2,631.5800002999999,0.3333333333333333,1,object_07,1,3260,0,3,1,library_2,2,memory-2step-stake-s,695,2606802,0.0-18.0-0.1-0.207,3631,6,5
208,2,object_05,object_01,315.0299997,4,2,737.245,0.0,2,object_03,1,3260,0,4,0,forest_17,2,memory-2step-stake-s,696,2614754,0.0-18.0-0.1-0.208,3631,3,4
209,4,object_09,object_02,544.975,7,1,610.105,0.5555555555555556,1,object_07,1,3265,0,5,3,restaurant_14,2,memory-2step-stake-s,697,2623089,0.0-18.0-0.1-0.209,3631,7,8
210,3,object_10,object_04,-1.0,-1,-1,-1.0,0.0,-,,1,3265,0,4,7,library_27,2,memory-2step-stake-s,698,2629600,0.0-18.0-0.1-0.210,3631,6,5
211,3,object_10,object_04,373.6749999,6,1,727.6900001,0.4444444444444444,2,object_03,5,3285,0,4,4,library_6,2,memory-2step-stake-s,699,2637946,0.0-18.0-0.1-0.211,3631,6,5
212,2,object_01,object_05,599.7250001,3,2,607.0300001,0.5555555555555556,1,object_07,5,3310,0,5,3,forest_10,2,memory-2step-stake-s,700,2646274,0.0-18.0-0.1-0.212,3631,4,3
213,2,object_01,object_05,362.6100002,4,1,366.8650002,0.2222222222222222,2,object_03,5,3320,0,5,2,forest_23,2,memory-2step-stake-s,701,2654059,0.0-18.0-0.1-0.213,3631,4,3
214,3,object_10,object_04,357.1899999,5,2,342.9350001,0.1111111111111111,1,object_07,1,3321,0,1,3,library_5,2,memory-2step-stake-s,702,2661719,0.0-18.0-0.1-0.214,3631,6,5
215,3,object_04,object_10,429.06500030000007,5,1,134.57999980000002,0.1111111111111111,1,object_07,1,3322,0,1,0,library_21,2,memory-2step-stake-s,703,2669168,0.0-18.0-0.1-0.215,3631,5,6
216,1,object_06,object_08,270.1100004,2,1,301.92,0.2222222222222222,2,object_03,5,3332,0,3,2,desert_17,2,memory-2step-stake-s,704,2676888,0.0-18.0-0.1-0.216,3631,2,1
217,4,object_02,object_09,422.65999969999996,7,2,721.0849999,0.3333333333333333,1,object_07,1,3335,0,3,1,restaurant_1,2,memory-2step-stake-s,705,2685135,0.0-18.0-0.1-0.217,3631,8,7
218,3,object_04,object_10,500.9850003,5,1,908.0449999,0.5555555555555556,1,object_07,1,3340,0,5,0,library_6,2,memory-2step-stake-s,706,2693764,0.0-18.0-0.1-0.218,3631,5,6
219,4,object_09,object_02,792.3000003,7,1,862.6950001,0.5555555555555556,1,object_07,5,3365,0,5,1,restaurant_19,2,memory-2step-stake-s,707,2702347,0.0-18.0-0.1-0.219,3631,7,8
220,3,object_10,object_04,-1.0,-1,-1,-1.0,0.0,-,,1,3365,0,5,1,library_18,2,memory-2step-stake-s,708,2708859,0.0-18.0-0.1-0.220,3631,6,5
221,4,object_09,object_02,310.86000010000004,7,1,457.89000020000003,0.2222222222222222,1,object_07,1,3367,0,2,1,restaurant_7,2,memory-2step-stake-s,709,2716741,0.0-18.0-0.1-0.221,3631,7,8
222,2,object_01,object_05,743.1099997,4,1,669.0349997999999,0.1111111111111111,2,object_03,5,3372,0,1,1,forest_19,2,memory-2step-stake-s,710,2724726,0.0-18.0-0.1-0.222,3631,4,3
223,4,object_02,object_09,302.38999989999996,8,1,410.255,0.1111111111111111,2,object_03,1,3373,0,4,1,restaurant_24,2,memory-2step-stake-s,711,2732456,0.0-18.0-0.1-0.223,3631,8,7
224,4,object_02,object_09,131.92000009999998,8,1,1088.395,0.1111111111111111,2,object_03,1,3374,0,3,1,restaurant_29,2,memory-2step-stake-s,712,2740863,0.0-18.0-0.1-0.224,3631,8,7
225,2,object_05,object_01,280.6549999,4,2,638.2000004,0.4444444444444444,2,object_03,5,3394,0,5,4,forest_17,2,memory-2step-stake-s,713,2749126,0.0-18.0-0.1-0.225,3631,3,4
226,4,object_09,object_02,1140.575,7,1,-1.0,0.0,1,object_07,1,3394,0,2,2,restaurant_24,2,memory-2step-stake-s,714,2757643,0.0-18.0-0.1-0.226,3631,7,8
227,2,object_01,object_05,544.5949999,4,1,1365.8,0.1111111111111111,2,object_03,5,3399,0,4,1,forest_19,2,memory-2step-stake-s,715,2766328,0.0-18.0-0.1-0.227,3631,4,3
228,3,object_10,object_04,183.2050001,6,1,820.845,0.0,2,object_03,1,3399,0,8,0,library_3,2,memory-2step-stake-s,716,2774366,0.0-18.0-0.1-0.228,3631,6,5
229,1,object_08,object_06,739.8100002,1,1,895.98,0.8888888888888888,1,object_07,5,3439,0,8,2,desert_5,2,memory-2step-stake-s,717,2783285,0.0-18.0-0.1-0.229,3631,1,2
230,3,object_10,object_04,231.255,5,2,371.0600003,0.8888888888888888,1,object_07,1,3447,0,8,0,library_14,2,memory-2step-stake-s,718,2791680,0.0-18.0-0.1-0.230,3631,6,5
231,4,object_02,object_09,628.8199998,8,1,487.30000020000006,0.2222222222222222,2,object_03,1,3449,0,9,2,restaurant_29,2,memory-2step-stake-s,719,2799585,0.0-18.0-0.1-0.231,3631,8,7
232,2,object_01,object_05,319.66499980000003,4,1,602.9449999,0.2222222222222222,2,object_03,1,3451,0,9,2,forest_29,2,memory-2step-stake-s,720,2807606,0.0-18.0-0.1-0.232,3631,4,3
233,2,object_05,object_01,446.1400001,4,2,-1.0,0.0,2,object_03,5,3451,0,8,2,forest_26,2,memory-2step-stake-s,721,2816122,0.0-18.0-0.1-0.233,3631,3,4
234,2,object_01,object_05,376.135,4,1,633.3650001,0.2222222222222222,2,object_03,5,3461,0,5,2,forest_27,2,memory-2step-stake-s,722,2824174,0.0-18.0-0.1-0.234,3631,4,3
235,1,object_06,object_08,659.92,1,2,336.9749999,0.4444444444444444,1,object_07,1,3465,0,4,3,desert_22,2,memory-2step-stake-s,723,2832132,0.0-18.0-0.1-0.235,3631,2,1
236,1,object_08,object_06,983.92,1,1,280.305,0.6666666666666666,1,object_07,5,3495,0,6,7,desert_7,2,memory-2step-stake-s,724,2840238,0.0-18.0-0.1-0.236,3631,1,2
237,1,object_08,object_06,321.7500001,1,1,331.1299998,0.8888888888888888,1,object_07,5,3535,0,8,6,desert_32,2,memory-2step-stake-s,725,2848596,0.0-18.0-0.1-0.237,3631,1,2
238,2,object_01,object_05,250.0300002,4,1,324.8049999,0.7777777777777778,2,object_03,5,3570,0,8,7,forest_31,2,memory-2step-stake-s,726,2856848,0.0-18.0-0.1-0.238,3631,4,3
239,3,object_10,object_04,337.80500010000003,6,1,397.285,0.7777777777777778,2,object_03,1,3577,0,8,7,library_10,2,memory-2step-stake-s,727,2865168,0.0-18.0-0.1-0.239,3631,6,5
240,4,object_09,object_02,125.78000039999999,8,2,382.40499980000004,1.0,2,object_03,1,3586,0,9,9,restaurant_20,2,memory-2step-stake-s,728,2873677,0.0-18.0-0.1-0.240,3631,7,8
241,1,object_06,object_08,563.4749997,2,1,360.415,0.5555555555555556,2,object_03,5,3611,0,6,5,desert_3,2,memory-2step-stake-s,729,2881760,0.0-18.0-0.1-0.241,3631,2,1
242,2,object_01,object_05,89.38000025,3,2,334.2800001,0.8888888888888888,1,object_07,5,3651,0,8,6,forest_17,2,memory-2step-stake-s,730,2890121,0.0-18.0-0.1-0.242,3631,4,3
243,1,object_08,object_06,150.715,2,2,1503.325,0.5555555555555556,2,object_03,1,3656,0,9,5,desert_16,2,memory-2step-stake-s,731,2899357,0.0-18.0-0.1-0.243,3631,1,2
244,2,object_05,object_01,539.8300001,3,1,682.3999997999999,0.8888888888888888,1,object_07,5,3696,0,8,8,forest_23,2,memory-2step-stake-s,732,2908066,0.0-18.0-0.1-0.244,3631,3,4
245,4,object_02,object_09,796.6450001000001,7,2,403.13,0.7777777777777778,1,object_07,1,3703,0,7,6,restaurant_5,2,memory-2step-stake-s,733,2916398,0.0-18.0-0.1-0.245,3631,8,7
246,4,object_09,object_02,169.1950001,7,1,161.4600001,0.8888888888888888,1,object_07,1,3711,0,8,5,restaurant_24,2,memory-2step-stake-s,734,2924582,0.0-18.0-0.1-0.246,3631,7,8
247,1,object_08,object_06,336.8599997,2,2,313.4350004,0.6666666666666666,2,object_03,5,3741,0,9,6,desert_8,2,memory-2step-stake-s,735,2932718,0.0-18.0-0.1-0.247,3631,1,2
248,1,object_08,object_06,308.9350001,2,2,366.36500010000003,0.7777777777777778,2,object_03,5,3776,0,7,7,desert_8,2,memory-2step-stake-s,736,2941008,0.0-18.0-0.1-0.248,3631,1,2
249,3,object_04,object_10,113.34999979999999,5,1,248.8950002,0.7777777777777778,1,object_07,1,3783,0,7,7,library_23,2,memory-2step-stake-s,737,2949179,0.0-18.0-0.1-0.249,3631,5,6
250,1,object_08,object_06,406.4750001,2,2,522.6850002,1.0,2,object_03,5,3828,0,6,9,desert_3,2,memory-2step-stake-s,738,2957827,0.0-18.0-0.1-0.250,3631,1,2
251,4,object_09,object_02,256.4600003,7,1,364.1300001,0.7777777777777778,1,object_07,1,3835,0,7,9,restaurant_5,2,memory-2step-stake-s,739,2966115,0.0-18.0-0.1-0.251,3631,7,8
252,2,object_01,object_05,308.5750001,3,2,107.7449997,0.7777777777777778,1,object_07,5,3870,0,7,9,forest_9,2,memory-2step-stake-s,740,2974146,0.0-18.0-0.1-0.252,3631,4,3
253,4,object_02,object_09,353.325,8,1,948.82,0.8888888888888888,2,object_03,5,3910,0,8,8,restaurant_22,2,memory-2step-stake-s,741,2983118,0.0-18.0-0.1-0.253,3631,8,7
254,4,object_09,object_02,422.065,8,2,338.1800004,1.0,2,object_03,5,3955,0,8,9,restaurant_9,2,memory-2step-stake-s,742,2991580,0.0-18.0-0.1-0.254,3631,7,8
255,4,object_02,object_09,409.2999999,8,1,500.6499998,0.6666666666666666,2,object_03,1,3961,0,8,6,restaurant_20,2,memory-2step-stake-s,743,2999901,0.0-18.0-0.1-0.255,3631,8,7
