,state1,stim_left,stim_right,rt_1,choice1,response1,rt_2,points,state2,stim_state2,stake,score,practice,rews1,rews2,background,high_arm,trial_type,trial_index,time_elapsed,internal_node_id,subid,stim_left_num,stim_right_num
0,1,object_01,object_09,1130.385,2,2,-1.0,0.0,2,object_08,1,0,0,0,9,desert_19,1,memory-2step-stake-s,497,14362465,0.0-18.0-0.0-0.0,4281,1,2
1,2,object_04,object_07,702.855,3,1,752.575,0.1111111111111111,1,object_05,1,1,0,1,7,forest_1,1,memory-2step-stake-s,498,14370631,0.0-18.0-0.0-0.1,4281,3,4
2,4,object_06,object_03,862.63,8,2,1195.28,0.8888888888888888,2,object_08,5,41,0,1,8,restaurant_25,1,memory-2step-stake-s,499,14379927,0.0-18.0-0.0-0.2,4281,7,8
3,3,object_10,object_02,1117.29,5,2,913.44,0.2222222222222222,1,object_05,5,51,0,2,4,library_13,1,memory-2step-stake-s,500,14388333,0.0-18.0-0.0-0.3,4281,6,5
4,4,object_03,object_06,631.58,8,1,466.395,0.0,2,object_08,5,51,0,1,0,restaurant_25,1,memory-2step-stake-s,501,14396057,0.0-18.0-0.0-0.4,4281,8,7
5,1,object_09,object_01,987.11,2,1,606.245,0.1111111111111111,2,object_08,1,52,0,2,1,desert_5,1,memory-2step-stake-s,502,14404048,0.0-18.0-0.0-0.5,4281,2,1
6,4,object_03,object_06,1087.575,7,2,620.0,0.2222222222222222,1,object_05,1,54,0,2,2,restaurant_17,1,memory-2step-stake-s,503,14412171,0.0-18.0-0.0-0.6,4281,8,7
7,2,object_07,object_04,1224.4,3,2,663.375,0.5555555555555556,1,object_05,1,59,0,5,1,forest_28,1,memory-2step-stake-s,504,14420621,0.0-18.0-0.0-0.7,4281,4,3
8,4,object_03,object_06,887.565,7,2,555.28,0.6666666666666666,1,object_05,5,89,0,6,1,restaurant_28,1,memory-2step-stake-s,505,14429126,0.0-18.0-0.0-0.8,4281,8,7
9,3,object_10,object_02,833.46,6,1,617.925,0.1111111111111111,2,object_08,5,94,0,9,1,library_9,1,memory-2step-stake-s,506,14437148,0.0-18.0-0.0-0.9,4281,6,5
10,1,object_09,object_01,847.525,1,2,522.94,0.5555555555555556,1,object_05,1,99,0,5,3,desert_21,1,memory-2step-stake-s,507,14445493,0.0-18.0-0.0-0.10,4281,2,1
11,2,object_04,object_07,922.145,4,2,815.55,0.1111111111111111,2,object_08,5,104,0,4,1,forest_20,1,memory-2step-stake-s,508,14453682,0.0-18.0-0.0-0.11,4281,3,4
12,1,object_01,object_09,886.02,1,1,613.61,0.4444444444444444,1,object_05,1,108,0,4,2,desert_19,1,memory-2step-stake-s,509,14461971,0.0-18.0-0.0-0.12,4281,1,2
13,3,object_02,object_10,929.445,5,1,506.88,0.5555555555555556,1,object_05,5,133,0,5,1,library_30,1,memory-2step-stake-s,510,14470290,0.0-18.0-0.0-0.13,4281,5,6
14,4,object_06,object_03,1142.615,8,2,731.32,0.1111111111111111,2,object_08,1,134,0,7,1,restaurant_16,1,memory-2step-stake-s,511,14478395,0.0-18.0-0.0-0.14,4281,7,8
15,2,object_04,object_07,911.535,3,1,519.15,0.7777777777777778,1,object_05,1,141,0,7,0,forest_22,1,memory-2step-stake-s,512,14486944,0.0-18.0-0.0-0.15,4281,3,4
16,4,object_06,object_03,1025.16,7,1,649.415,0.3333333333333333,1,object_05,1,144,0,3,0,restaurant_1,1,memory-2step-stake-s,513,14495215,0.0-18.0-0.0-0.16,4281,7,8
17,2,object_04,object_07,1459.045,4,2,604.575,0.4444444444444444,2,object_08,1,148,0,2,4,forest_25,1,memory-2step-stake-s,514,14503541,0.0-18.0-0.0-0.17,4281,3,4
18,3,object_10,object_02,-1.0,-1,-1,-1.0,0.0,-,,5,148,0,0,2,library_22,1,memory-2step-stake-s,515,14510072,0.0-18.0-0.0-0.18,4281,6,5
19,2,object_07,object_04,1169.635,4,1,597.73,0.0,2,object_08,1,148,0,3,0,forest_12,1,memory-2step-stake-s,516,14517954,0.0-18.0-0.0-0.19,4281,4,3
20,1,object_01,object_09,845.97,1,1,394.16,0.5555555555555556,1,object_05,1,153,0,5,1,desert_1,1,memory-2step-stake-s,517,14526194,0.0-18.0-0.0-0.20,4281,1,2
21,2,object_04,object_07,724.125,4,2,308.47,0.1111111111111111,2,object_08,1,154,0,8,1,forest_4,1,memory-2step-stake-s,518,14533875,0.0-18.0-0.0-0.21,4281,3,4
22,2,object_04,object_07,786.95,3,1,580.15,1.0,1,object_05,1,163,0,9,1,forest_20,1,memory-2step-stake-s,519,14542750,0.0-18.0-0.0-0.22,4281,3,4
23,1,object_09,object_01,802.54,1,2,947.345,1.0,1,object_05,1,172,0,9,1,desert_27,1,memory-2step-stake-s,520,14552000,0.0-18.0-0.0-0.23,4281,2,1
24,1,object_01,object_09,774.885,1,1,1080.99,0.8888888888888888,1,object_05,1,180,0,8,2,desert_23,1,memory-2step-stake-s,521,14561255,0.0-18.0-0.0-0.24,4281,1,2
25,4,object_03,object_06,901.17,8,1,536.05,0.3333333333333333,2,object_08,5,195,0,7,3,restaurant_2,1,memory-2step-stake-s,522,14569432,0.0-18.0-0.0-0.25,4281,8,7
26,2,object_04,object_07,-1.0,-1,-1,-1.0,0.0,-,,1,195,0,3,6,forest_14,1,memory-2step-stake-s,523,14576002,0.0-18.0-0.0-0.26,4281,3,4
27,3,object_02,object_10,723.165,5,1,371.49,0.2222222222222222,1,object_05,5,205,0,2,8,library_15,1,memory-2step-stake-s,524,14583830,0.0-18.0-0.0-0.27,4281,5,6
28,3,object_10,object_02,890.065,6,1,481.925,0.8888888888888888,2,object_08,5,245,0,3,8,library_30,1,memory-2step-stake-s,525,14592474,0.0-18.0-0.0-0.28,4281,6,5
29,2,object_04,object_07,893.205,3,1,285.795,0.1111111111111111,1,object_05,1,246,0,1,4,forest_25,1,memory-2step-stake-s,526,14600183,0.0-18.0-0.0-0.29,4281,3,4
30,3,object_02,object_10,1246.485,6,2,425.05,0.6666666666666666,2,object_08,5,276,0,1,6,library_13,1,memory-2step-stake-s,527,14608560,0.0-18.0-0.0-0.30,4281,5,6
31,2,object_04,object_07,930.05,4,2,288.49,0.7777777777777778,2,object_08,1,283,0,1,7,forest_18,1,memory-2step-stake-s,528,14616924,0.0-18.0-0.0-0.31,4281,3,4
32,4,object_03,object_06,796.49,8,1,334.815,0.6666666666666666,2,object_08,5,313,0,0,6,restaurant_5,1,memory-2step-stake-s,529,14625179,0.0-18.0-0.0-0.32,4281,8,7
33,4,object_06,object_03,1134.465,8,2,589.63,0.8888888888888888,2,object_08,5,353,0,5,8,restaurant_10,1,memory-2step-stake-s,530,14633887,0.0-18.0-0.0-0.33,4281,7,8
34,3,object_02,object_10,1220.755,6,2,652.175,0.8888888888888888,2,object_08,1,361,0,3,8,library_7,1,memory-2step-stake-s,531,14642734,0.0-18.0-0.0-0.34,4281,5,6
35,2,object_07,object_04,1403.0,3,2,520.94,0.5555555555555556,1,object_05,1,366,0,5,8,forest_12,1,memory-2step-stake-s,532,14651059,0.0-18.0-0.0-0.35,4281,4,3
36,2,object_07,object_04,769.455,3,2,352.845,0.7777777777777778,1,object_05,1,373,0,7,9,forest_17,1,memory-2step-stake-s,533,14659479,0.0-18.0-0.0-0.36,4281,4,3
37,3,object_02,object_10,778.485,5,1,352.485,1.0,1,object_05,1,382,0,9,8,library_14,1,memory-2step-stake-s,534,14668053,0.0-18.0-0.0-0.37,4281,5,6
38,1,object_09,object_01,947.82,1,2,441.56,1.0,1,object_05,5,427,0,9,7,desert_17,1,memory-2step-stake-s,535,14676729,0.0-18.0-0.0-0.38,4281,2,1
39,1,object_09,object_01,638.22,1,2,544.905,0.8888888888888888,1,object_05,1,435,0,8,7,desert_17,1,memory-2step-stake-s,536,14685417,0.0-18.0-0.0-0.39,4281,2,1
40,1,object_01,object_09,569.485,1,1,270.685,0.8888888888888888,1,object_05,5,475,0,8,6,desert_9,1,memory-2step-stake-s,537,14693807,0.0-18.0-0.0-0.40,4281,1,2
41,2,object_07,object_04,1191.2,4,1,417.585,0.4444444444444444,2,object_08,5,495,0,6,4,forest_25,1,memory-2step-stake-s,538,14701957,0.0-18.0-0.0-0.41,4281,4,3
42,3,object_02,object_10,846.425,5,1,379.495,0.8888888888888888,1,object_05,5,535,0,8,4,library_18,1,memory-2step-stake-s,539,14710553,0.0-18.0-0.0-0.42,4281,5,6
43,2,object_04,object_07,724.03,4,2,469.7,0.3333333333333333,2,object_08,1,538,0,8,3,forest_14,1,memory-2step-stake-s,540,14718600,0.0-18.0-0.0-0.43,4281,3,4
44,4,object_03,object_06,719.925,8,1,383.47,0.3333333333333333,2,object_08,5,553,0,8,3,restaurant_22,1,memory-2step-stake-s,541,14726594,0.0-18.0-0.0-0.44,4281,8,7
45,2,object_04,object_07,1056.39,3,1,330.175,0.4444444444444444,1,object_05,1,557,0,4,1,forest_20,1,memory-2step-stake-s,542,14734618,0.0-18.0-0.0-0.45,4281,3,4
46,2,object_04,object_07,929.475,4,2,326.745,0.2222222222222222,2,object_08,1,559,0,5,2,forest_29,1,memory-2step-stake-s,543,14742478,0.0-18.0-0.0-0.46,4281,3,4
47,2,object_07,object_04,1410.425,3,2,376.525,0.5555555555555556,1,object_05,1,564,0,5,1,forest_1,1,memory-2step-stake-s,544,14750663,0.0-18.0-0.0-0.47,4281,4,3
48,3,object_10,object_02,809.175,5,2,340.14,0.1111111111111111,1,object_05,5,569,0,1,2,library_30,1,memory-2step-stake-s,545,14758386,0.0-18.0-0.0-0.48,4281,6,5
49,1,object_09,object_01,683.14,2,1,378.55,0.0,2,object_08,1,569,0,1,0,desert_19,1,memory-2step-stake-s,546,14766031,0.0-18.0-0.0-0.49,4281,2,1
50,4,object_03,object_06,808.905,7,2,559.985,0.5555555555555556,1,object_05,1,574,0,5,2,restaurant_28,1,memory-2step-stake-s,547,14774390,0.0-18.0-0.0-0.50,4281,8,7
51,3,object_10,object_02,748.735,5,2,866.47,0.3333333333333333,1,object_05,1,577,0,3,0,library_29,1,memory-2step-stake-s,548,14782852,0.0-18.0-0.0-0.51,4281,6,5
52,3,object_10,object_02,956.125,6,1,415.31,0.1111111111111111,2,object_08,5,582,0,0,1,library_20,1,memory-2step-stake-s,549,14790643,0.0-18.0-0.0-0.52,4281,6,5
53,1,object_01,object_09,1169.25,1,1,431.51,0.1111111111111111,1,object_05,1,583,0,1,1,desert_30,1,memory-2step-stake-s,550,14798454,0.0-18.0-0.0-0.53,4281,1,2
54,1,object_09,object_01,753.295,2,1,709.85,0.1111111111111111,2,object_08,1,584,0,4,1,desert_31,1,memory-2step-stake-s,551,14806557,0.0-18.0-0.0-0.54,4281,2,1
55,2,object_07,object_04,1057.915,3,2,512.05,0.7777777777777778,1,object_05,1,591,0,7,3,forest_17,1,memory-2step-stake-s,552,14815138,0.0-18.0-0.0-0.55,4281,4,3
56,4,object_06,object_03,-1.0,-1,-1,-1.0,0.0,-,,1,591,0,5,1,restaurant_28,1,memory-2step-stake-s,553,14821703,0.0-18.0-0.0-0.56,4281,7,8
57,4,object_03,object_06,-1.0,-1,-1,-1.0,0.0,-,,5,591,0,5,1,restaurant_5,1,memory-2step-stake-s,554,14828267,0.0-18.0-0.0-0.57,4281,8,7
58,4,object_06,object_03,610.285,8,2,330.455,0.0,2,object_08,1,591,0,2,0,restaurant_3,1,memory-2step-stake-s,555,14835858,0.0-18.0-0.0-0.58,4281,7,8
59,2,object_04,object_07,783.32,3,1,393.815,0.1111111111111111,1,object_05,5,596,0,1,0,forest_11,1,memory-2step-stake-s,556,14843650,0.0-18.0-0.0-0.59,4281,3,4
60,4,object_06,object_03,744.705,7,1,480.43,0.1111111111111111,1,object_05,5,601,0,1,1,restaurant_8,1,memory-2step-stake-s,557,14851523,0.0-18.0-0.0-0.60,4281,7,8
61,3,object_02,object_10,903.645,6,2,339.315,0.1111111111111111,2,object_08,5,606,0,3,1,library_14,1,memory-2step-stake-s,558,14859251,0.0-18.0-0.0-0.61,4281,5,6
62,3,object_02,object_10,737.08,5,1,431.3,0.3333333333333333,1,object_05,5,621,0,3,1,library_4,1,memory-2step-stake-s,559,14867293,0.0-18.0-0.0-0.62,4281,5,6
63,1,object_01,object_09,911.335,1,1,333.325,0.5555555555555556,1,object_05,1,626,0,5,2,desert_23,1,memory-2step-stake-s,560,14875447,0.0-18.0-0.0-0.63,4281,1,2
64,4,object_06,object_03,886.315,7,1,357.135,0.5555555555555556,1,object_05,5,651,0,5,1,restaurant_31,1,memory-2step-stake-s,561,14883611,0.0-18.0-0.0-0.64,4281,7,8
65,4,object_03,object_06,860.88,7,2,394.885,0.5555555555555556,1,object_05,5,676,0,5,3,restaurant_4,1,memory-2step-stake-s,562,14891822,0.0-18.0-0.0-0.65,4281,8,7
66,2,object_04,object_07,1016.23,3,1,482.755,0.4444444444444444,1,object_05,1,680,0,4,4,forest_25,1,memory-2step-stake-s,563,14899976,0.0-18.0-0.0-0.66,4281,3,4
67,3,object_02,object_10,770.715,5,1,462.785,0.7777777777777778,1,object_05,5,715,0,7,5,library_9,1,memory-2step-stake-s,564,14908466,0.0-18.0-0.0-0.67,4281,5,6
68,3,object_02,object_10,609.04,5,1,451.68,1.0,1,object_05,5,760,0,9,3,library_20,1,memory-2step-stake-s,565,14917172,0.0-18.0-0.0-0.68,4281,5,6
69,1,object_09,object_01,648.835,1,2,488.34,1.0,1,object_05,5,805,0,9,3,desert_21,1,memory-2step-stake-s,566,14925909,0.0-18.0-0.0-0.69,4281,2,1
70,2,object_04,object_07,923.175,3,1,340.21,0.8888888888888888,1,object_05,1,813,0,8,1,forest_14,1,memory-2step-stake-s,567,14934364,0.0-18.0-0.0-0.70,4281,3,4
71,4,object_03,object_06,676.895,7,2,499.07,0.6666666666666666,1,object_05,5,843,0,6,3,restaurant_1,1,memory-2step-stake-s,568,14942804,0.0-18.0-0.0-0.71,4281,8,7
72,2,object_04,object_07,581.735,3,1,325.245,0.5555555555555556,1,object_05,1,848,0,5,2,forest_8,1,memory-2step-stake-s,569,14950942,0.0-18.0-0.0-0.72,4281,3,4
73,3,object_10,object_02,566.135,5,2,324.4,0.1111111111111111,1,object_05,5,853,0,1,5,library_24,1,memory-2step-stake-s,570,14958633,0.0-18.0-0.0-0.73,4281,6,5
74,3,object_02,object_10,941.89,6,2,281.67,0.7777777777777778,2,object_08,5,888,0,3,7,library_23,1,memory-2step-stake-s,571,14966958,0.0-18.0-0.0-0.74,4281,5,6
75,1,object_09,object_01,694.445,2,1,505.98,1.0,2,object_08,1,897,0,7,9,desert_5,1,memory-2step-stake-s,572,14975740,0.0-18.0-0.0-0.75,4281,2,1
76,1,object_09,object_01,949.795,2,1,594.595,0.5555555555555556,2,object_08,1,902,0,8,5,desert_8,1,memory-2step-stake-s,573,14984156,0.0-18.0-0.0-0.76,4281,2,1
77,1,object_09,object_01,553.33,2,1,428.075,0.5555555555555556,2,object_08,1,907,0,8,5,desert_30,1,memory-2step-stake-s,574,14992400,0.0-18.0-0.0-0.77,4281,2,1
78,3,object_10,object_02,816.32,6,1,298.41,0.7777777777777778,2,object_08,5,942,0,7,7,library_32,1,memory-2step-stake-s,575,15000765,0.0-18.0-0.0-0.78,4281,6,5
79,1,object_01,object_09,876.795,2,2,566.08,0.8888888888888888,2,object_08,5,982,0,7,8,desert_30,1,memory-2step-stake-s,576,15009446,0.0-18.0-0.0-0.79,4281,1,2
80,3,object_10,object_02,974.94,6,1,448.905,0.6666666666666666,2,object_08,1,988,0,6,6,library_21,1,memory-2step-stake-s,577,15017826,0.0-18.0-0.0-0.80,4281,6,5
81,2,object_07,object_04,962.605,4,1,461.71,0.6666666666666666,2,object_08,1,994,0,9,6,forest_11,1,memory-2step-stake-s,578,15026217,0.0-18.0-0.0-0.81,4281,4,3
82,3,object_10,object_02,836.085,6,1,264.435,0.6666666666666666,2,object_08,5,1024,0,7,6,library_18,1,memory-2step-stake-s,579,15034440,0.0-18.0-0.0-0.82,4281,6,5
83,4,object_03,object_06,1189.56,8,1,530.605,0.7777777777777778,2,object_08,1,1031,0,7,7,restaurant_21,1,memory-2step-stake-s,580,15043001,0.0-18.0-0.0-0.83,4281,8,7
84,2,object_04,object_07,875.465,4,2,344.05,0.5555555555555556,2,object_08,1,1036,0,7,5,forest_29,1,memory-2step-stake-s,581,15051173,0.0-18.0-0.0-0.84,4281,3,4
85,1,object_09,object_01,790.06,1,2,656.13,0.5555555555555556,1,object_05,1,1041,0,5,9,desert_11,1,memory-2step-stake-s,582,15059658,0.0-18.0-0.0-0.85,4281,2,1
86,3,object_02,object_10,631.71,5,1,320.695,0.4444444444444444,1,object_05,5,1061,0,4,8,library_24,1,memory-2step-stake-s,583,15067661,0.0-18.0-0.0-0.86,4281,5,6
87,3,object_02,object_10,849.535,6,2,648.65,0.6666666666666666,2,object_08,5,1091,0,5,6,library_21,1,memory-2step-stake-s,584,15076234,0.0-18.0-0.0-0.87,4281,5,6
88,1,object_09,object_01,619.41,2,1,305.195,0.7777777777777778,2,object_08,1,1098,0,8,7,desert_9,1,memory-2step-stake-s,585,15084555,0.0-18.0-0.0-0.88,4281,2,1
89,1,object_01,object_09,646.34,2,2,412.61,0.6666666666666666,2,object_08,1,1104,0,7,6,desert_2,1,memory-2step-stake-s,586,15092916,0.0-18.0-0.0-0.89,4281,1,2
90,1,object_09,object_01,548.445,2,1,413.925,0.7777777777777778,2,object_08,1,1111,0,3,7,desert_23,1,memory-2step-stake-s,587,15101371,0.0-18.0-0.0-0.90,4281,2,1
91,4,object_03,object_06,1293.88,7,2,453.72,0.1111111111111111,1,object_05,5,1116,0,1,9,restaurant_25,1,memory-2step-stake-s,588,15109218,0.0-18.0-0.0-0.91,4281,8,7
92,4,object_06,object_03,775.675,7,1,323.665,0.1111111111111111,1,object_05,5,1121,0,1,7,restaurant_18,1,memory-2step-stake-s,589,15116950,0.0-18.0-0.0-0.92,4281,7,8
93,2,object_07,object_04,-1.0,-1,-1,-1.0,0.0,-,,1,1121,0,1,8,forest_18,1,memory-2step-stake-s,590,15123502,0.0-18.0-0.0-0.93,4281,4,3
94,4,object_03,object_06,580.24,8,1,271.7,0.8888888888888888,2,object_08,5,1161,0,3,8,restaurant_25,1,memory-2step-stake-s,591,15131946,0.0-18.0-0.0-0.94,4281,8,7
95,4,object_06,object_03,1003.915,8,2,238.305,0.6666666666666666,2,object_08,5,1191,0,1,6,restaurant_2,1,memory-2step-stake-s,592,15140117,0.0-18.0-0.0-0.95,4281,7,8
96,1,object_09,object_01,654.925,2,1,582.235,0.3333333333333333,2,object_08,1,1194,0,0,3,desert_2,1,memory-2step-stake-s,593,15148278,0.0-18.0-0.0-0.96,4281,2,1
97,3,object_02,object_10,581.465,5,1,375.725,0.4444444444444444,1,object_05,5,1214,0,4,0,library_23,1,memory-2step-stake-s,594,15156350,0.0-18.0-0.0-0.97,4281,5,6
98,2,object_04,object_07,841.505,3,1,372.89,0.2222222222222222,1,object_05,1,1216,0,2,2,forest_29,1,memory-2step-stake-s,595,15164230,0.0-18.0-0.0-0.98,4281,3,4
99,4,object_06,object_03,684.685,8,2,444.455,0.2222222222222222,2,object_08,5,1226,0,6,2,restaurant_18,1,memory-2step-stake-s,596,15172157,0.0-18.0-0.0-0.99,4281,7,8
100,4,object_03,object_06,764.405,7,2,276.365,0.8888888888888888,1,object_05,5,1266,0,8,1,restaurant_27,1,memory-2step-stake-s,597,15180585,0.0-18.0-0.0-0.100,4281,8,7
101,1,object_01,object_09,797.365,1,1,413.725,0.8888888888888888,1,object_05,1,1274,0,8,2,desert_11,1,memory-2step-stake-s,598,15189139,0.0-18.0-0.0-0.101,4281,1,2
102,4,object_03,object_06,815.995,7,2,275.25,0.8888888888888888,1,object_05,5,1314,0,8,1,restaurant_3,1,memory-2step-stake-s,599,15197519,0.0-18.0-0.0-0.102,4281,8,7
103,4,object_06,object_03,931.985,7,1,325.35,0.7777777777777778,1,object_05,5,1349,0,7,0,restaurant_17,1,memory-2step-stake-s,600,15205856,0.0-18.0-0.0-0.103,4281,7,8
104,1,object_09,object_01,638.0,1,2,553.125,0.3333333333333333,1,object_05,1,1352,0,3,1,desert_27,1,memory-2step-stake-s,601,15214034,0.0-18.0-0.0-0.104,4281,2,1
105,4,object_03,object_06,716.275,7,2,415.245,0.1111111111111111,1,object_05,5,1357,0,1,1,restaurant_18,1,memory-2step-stake-s,602,15221836,0.0-18.0-0.0-0.105,4281,8,7
106,2,object_07,object_04,906.825,4,1,371.23,0.1111111111111111,2,object_08,5,1362,0,1,1,forest_28,1,memory-2step-stake-s,603,15229615,0.0-18.0-0.0-0.106,4281,4,3
107,3,object_02,object_10,657.235,5,1,261.42,0.5555555555555556,1,object_05,5,1387,0,5,1,library_1,1,memory-2step-stake-s,604,15237702,0.0-18.0-0.0-0.107,4281,5,6
108,4,object_03,object_06,832.595,7,2,351.9,0.5555555555555556,1,object_05,1,1392,0,5,1,restaurant_5,1,memory-2step-stake-s,605,15245866,0.0-18.0-0.0-0.108,4281,8,7
109,4,object_06,object_03,610.87,7,1,305.19,0.7777777777777778,1,object_05,5,1427,0,7,1,restaurant_1,1,memory-2step-stake-s,606,15254228,0.0-18.0-0.0-0.109,4281,7,8
110,1,object_01,object_09,662.325,1,1,360.685,0.7777777777777778,1,object_05,1,1434,0,7,1,desert_26,1,memory-2step-stake-s,607,15262594,0.0-18.0-0.0-0.110,4281,1,2
111,1,object_01,object_09,582.13,1,1,329.7,0.5555555555555556,1,object_05,1,1439,0,5,3,desert_17,1,memory-2step-stake-s,608,15270786,0.0-18.0-0.0-0.111,4281,1,2
112,4,object_03,object_06,652.97,7,2,484.21,0.4444444444444444,1,object_05,1,1443,0,4,5,restaurant_28,1,memory-2step-stake-s,609,15278994,0.0-18.0-0.0-0.112,4281,8,7
113,3,object_02,object_10,611.955,5,1,383.715,0.4444444444444444,1,object_05,5,1463,0,4,5,library_4,1,memory-2step-stake-s,610,15287092,0.0-18.0-0.0-0.113,4281,5,6
114,3,object_02,object_10,577.975,6,2,322.46,0.3333333333333333,2,object_08,5,1478,0,6,3,library_24,1,memory-2step-stake-s,611,15295035,0.0-18.0-0.0-0.114,4281,5,6
115,4,object_03,object_06,782.235,7,2,294.205,0.2222222222222222,1,object_05,5,1488,0,2,2,restaurant_8,1,memory-2step-stake-s,612,15302837,0.0-18.0-0.0-0.115,4281,8,7
116,1,object_09,object_01,604.83,2,1,439.565,0.5555555555555556,2,object_08,1,1493,0,4,5,desert_26,1,memory-2step-stake-s,613,15311119,0.0-18.0-0.0-0.116,4281,2,1
117,3,object_10,object_02,787.215,6,1,297.54,0.1111111111111111,2,object_08,5,1498,0,0,1,library_23,1,memory-2step-stake-s,614,15318778,0.0-18.0-0.0-0.117,4281,6,5
118,3,object_02,object_10,611.41,6,2,404.1,0.3333333333333333,2,object_08,5,1513,0,0,3,library_29,1,memory-2step-stake-s,615,15326738,0.0-18.0-0.0-0.118,4281,5,6
119,4,object_06,object_03,646.47,8,2,280.325,0.1111111111111111,2,object_08,5,1518,0,0,1,restaurant_27,1,memory-2step-stake-s,616,15334392,0.0-18.0-0.0-0.119,4281,7,8
120,4,object_06,object_03,657.99,7,1,357.93,0.1111111111111111,1,object_05,5,1523,0,1,2,restaurant_22,1,memory-2step-stake-s,617,15342126,0.0-18.0-0.0-0.120,4281,7,8
121,4,object_03,object_06,642.97,8,1,288.08,0.2222222222222222,2,object_08,5,1533,0,1,2,restaurant_16,1,memory-2step-stake-s,618,15349899,0.0-18.0-0.0-0.121,4281,8,7
122,2,object_07,object_04,958.365,4,1,253.51,0.0,2,object_08,1,1533,0,5,0,forest_22,1,memory-2step-stake-s,619,15357418,0.0-18.0-0.0-0.122,4281,4,3
123,1,object_09,object_01,589.55,1,2,270.085,1.0,1,object_05,1,1542,0,9,1,desert_2,1,memory-2step-stake-s,620,15365976,0.0-18.0-0.0-0.123,4281,2,1
124,4,object_03,object_06,688.685,7,2,254.925,0.6666666666666666,1,object_05,5,1572,0,6,0,restaurant_21,1,memory-2step-stake-s,621,15374165,0.0-18.0-0.0-0.124,4281,8,7
125,2,object_04,object_07,1065.715,3,1,221.91,0.5555555555555556,1,object_05,1,1577,0,5,0,forest_9,1,memory-2step-stake-s,622,15382195,0.0-18.0-0.0-0.125,4281,3,4
126,1,object_09,object_01,580.95,1,2,387.53,0.4444444444444444,1,object_05,1,1581,0,4,0,desert_5,1,memory-2step-stake-s,623,15390329,0.0-18.0-0.0-0.126,4281,2,1
127,1,object_09,object_01,526.59,2,1,252.565,0.2222222222222222,2,object_08,1,1583,0,1,2,desert_1,1,memory-2step-stake-s,624,15398057,0.0-18.0-0.0-0.127,4281,2,1
128,3,object_02,object_10,659.325,5,1,304.615,0.1111111111111111,1,object_05,5,1588,0,1,4,library_32,1,memory-2step-stake-s,626,15459468,0.0-18.0-0.1-0.128,4281,5,6
129,3,object_10,object_02,851.605,6,1,341.49,0.3333333333333333,2,object_08,5,1603,0,1,3,library_20,1,memory-2step-stake-s,627,15467444,0.0-18.0-0.1-0.129,4281,6,5
130,4,object_03,object_06,646.92,8,1,283.825,0.3333333333333333,2,object_08,5,1618,0,1,3,restaurant_22,1,memory-2step-stake-s,628,15475322,0.0-18.0-0.1-0.130,4281,8,7
131,2,object_07,object_04,746.665,3,2,218.485,0.4444444444444444,1,object_05,1,1622,0,4,2,forest_1,1,memory-2step-stake-s,629,15483231,0.0-18.0-0.1-0.131,4281,4,3
132,3,object_10,object_02,563.21,5,2,227.605,0.3333333333333333,1,object_05,5,1637,0,3,2,library_9,1,memory-2step-stake-s,630,15491037,0.0-18.0-0.1-0.132,4281,6,5
133,2,object_04,object_07,704.8,4,2,299.315,0.2222222222222222,2,object_08,1,1639,0,6,2,forest_18,1,memory-2step-stake-s,631,15498840,0.0-18.0-0.1-0.133,4281,3,4
134,3,object_10,object_02,532.055,5,2,332.8,0.2222222222222222,1,object_05,5,1649,0,2,0,library_15,1,memory-2step-stake-s,632,15506646,0.0-18.0-0.1-0.134,4281,6,5
135,3,object_02,object_10,635.335,6,2,283.6,0.1111111111111111,2,object_08,5,1654,0,1,1,library_9,1,memory-2step-stake-s,633,15514333,0.0-18.0-0.1-0.135,4281,5,6
136,4,object_03,object_06,733.39,7,2,466.42,0.4444444444444444,1,object_05,5,1674,0,4,2,restaurant_5,1,memory-2step-stake-s,634,15522508,0.0-18.0-0.1-0.136,4281,8,7
137,1,object_01,object_09,694.395,1,1,286.145,0.2222222222222222,1,object_05,5,1684,0,2,1,desert_8,1,memory-2step-stake-s,635,15530271,0.0-18.0-0.1-0.137,4281,1,2
138,2,object_07,object_04,819.685,4,1,316.46,0.1111111111111111,2,object_08,5,1689,0,0,1,forest_17,1,memory-2step-stake-s,636,15537955,0.0-18.0-0.1-0.138,4281,4,3
139,4,object_03,object_06,733.87,7,2,364.985,0.1111111111111111,1,object_05,5,1694,0,1,3,restaurant_3,1,memory-2step-stake-s,637,15545736,0.0-18.0-0.1-0.139,4281,8,7
140,2,object_07,object_04,734.75,4,1,258.25,0.4444444444444444,2,object_08,1,1698,0,2,4,forest_8,1,memory-2step-stake-s,638,15553715,0.0-18.0-0.1-0.140,4281,4,3
141,3,object_02,object_10,679.875,6,2,648.625,0.6666666666666666,2,object_08,1,1704,0,0,6,library_29,1,memory-2step-stake-s,639,15562289,0.0-18.0-0.1-0.141,4281,5,6
142,3,object_02,object_10,593.725,6,2,832.395,0.4444444444444444,2,object_08,5,1724,0,4,4,library_7,1,memory-2step-stake-s,640,15570798,0.0-18.0-0.1-0.142,4281,5,6
143,4,object_03,object_06,620.41,8,1,284.5,0.3333333333333333,2,object_08,5,1739,0,0,3,restaurant_10,1,memory-2step-stake-s,641,15578654,0.0-18.0-0.1-0.143,4281,8,7
144,1,object_09,object_01,511.875,2,1,296.425,0.7777777777777778,2,object_08,1,1746,0,1,7,desert_21,1,memory-2step-stake-s,642,15586981,0.0-18.0-0.1-0.144,4281,2,1
145,1,object_01,object_09,361.645,2,2,322.505,0.7777777777777778,2,object_08,1,1753,0,2,7,desert_26,1,memory-2step-stake-s,643,15595368,0.0-18.0-0.1-0.145,4281,1,2
146,2,object_04,object_07,560.865,4,2,264.765,0.5555555555555556,2,object_08,1,1758,0,0,5,forest_12,1,memory-2step-stake-s,644,15603441,0.0-18.0-0.1-0.146,4281,3,4
147,3,object_02,object_10,562.755,6,2,872.105,0.5555555555555556,2,object_08,5,1783,0,1,5,library_4,1,memory-2step-stake-s,645,15612169,0.0-18.0-0.1-0.147,4281,5,6
148,3,object_02,object_10,528.74,6,2,357.615,0.4444444444444444,2,object_08,5,1803,0,1,4,library_1,1,memory-2step-stake-s,646,15620212,0.0-18.0-0.1-0.148,4281,5,6
149,3,object_02,object_10,521.56,6,2,292.67,0.6666666666666666,2,object_08,5,1833,0,0,6,library_30,1,memory-2step-stake-s,647,15628403,0.0-18.0-0.1-0.149,4281,5,6
150,2,object_07,object_04,638.305,4,1,263.67,0.7777777777777778,2,object_08,1,1840,0,2,7,forest_28,1,memory-2step-stake-s,648,15636687,0.0-18.0-0.1-0.150,4281,4,3
151,3,object_10,object_02,796.07,6,1,317.985,0.6666666666666666,2,object_08,5,1870,0,3,6,library_24,1,memory-2step-stake-s,649,15644962,0.0-18.0-0.1-0.151,4281,6,5
152,2,object_04,object_07,667.065,4,2,293.515,0.4444444444444444,2,object_08,5,1890,0,2,4,forest_9,1,memory-2step-stake-s,650,15652994,0.0-18.0-0.1-0.152,4281,3,4
153,1,object_09,object_01,621.365,2,1,271.06,0.7777777777777778,2,object_08,5,1925,0,2,7,desert_23,1,memory-2step-stake-s,651,15661274,0.0-18.0-0.1-0.153,4281,2,1
154,1,object_09,object_01,473.64,2,1,356.075,0.8888888888888888,2,object_08,5,1965,0,2,8,desert_21,1,memory-2step-stake-s,652,15669818,0.0-18.0-0.1-0.154,4281,2,1
155,1,object_01,object_09,441.49,2,2,262.15,0.8888888888888888,2,object_08,5,2005,0,1,8,desert_11,1,memory-2step-stake-s,653,15678209,0.0-18.0-0.1-0.155,4281,1,2
156,2,object_07,object_04,474.605,3,2,285.735,0.0,1,object_05,1,2005,0,0,7,forest_20,1,memory-2step-stake-s,654,15685782,0.0-18.0-0.1-0.156,4281,4,3
157,4,object_06,object_03,869.145,8,2,289.785,0.6666666666666666,2,object_08,5,2035,0,2,6,restaurant_27,1,memory-2step-stake-s,655,15694045,0.0-18.0-0.1-0.157,4281,7,8
158,1,object_01,object_09,628.29,2,2,333.82,0.3333333333333333,2,object_08,1,2038,0,1,3,desert_31,1,memory-2step-stake-s,656,15701956,0.0-18.0-0.1-0.158,4281,1,2
159,1,object_01,object_09,393.68,2,2,470.145,0.8888888888888888,2,object_08,1,2046,0,2,8,desert_28,1,memory-2step-stake-s,657,15710581,0.0-18.0-0.1-0.159,4281,1,2
160,2,object_04,object_07,603.455,4,2,319.44,0.7777777777777778,2,object_08,1,2053,0,2,7,forest_1,1,memory-2step-stake-s,658,15718923,0.0-18.0-0.1-0.160,4281,3,4
161,3,object_10,object_02,801.78,6,1,305.53,0.8888888888888888,2,object_08,5,2093,0,1,8,library_1,1,memory-2step-stake-s,659,15727329,0.0-18.0-0.1-0.161,4281,6,5
162,1,object_01,object_09,924.555,2,2,480.4,1.0,2,object_08,1,2102,0,2,9,desert_1,1,memory-2step-stake-s,660,15736091,0.0-18.0-0.1-0.162,4281,1,2
163,3,object_02,object_10,808.36,6,2,252.79,0.8888888888888888,2,object_08,5,2142,0,0,8,library_18,1,memory-2step-stake-s,661,15744485,0.0-18.0-0.1-0.163,4281,5,6
164,3,object_02,object_10,581.94,6,2,376.995,1.0,2,object_08,5,2187,0,0,9,library_23,1,memory-2step-stake-s,662,15753071,0.0-18.0-0.1-0.164,4281,5,6
165,3,object_02,object_10,602.94,6,2,270.645,0.7777777777777778,2,object_08,5,2222,0,1,7,library_1,1,memory-2step-stake-s,663,15761431,0.0-18.0-0.1-0.165,4281,5,6
166,2,object_07,object_04,1047.29,4,1,516.98,0.7777777777777778,2,object_08,1,2229,0,5,7,forest_2,1,memory-2step-stake-s,664,15769993,0.0-18.0-0.1-0.166,4281,4,3
167,1,object_09,object_01,568.905,2,1,531.525,0.5555555555555556,2,object_08,1,2234,0,5,5,desert_30,1,memory-2step-stake-s,665,15778345,0.0-18.0-0.1-0.167,4281,2,1
168,1,object_09,object_01,550.575,2,1,293.755,0.6666666666666666,2,object_08,1,2240,0,9,6,desert_28,1,memory-2step-stake-s,666,15786557,0.0-18.0-0.1-0.168,4281,2,1
169,4,object_03,object_06,1128.145,8,1,411.535,0.4444444444444444,2,object_08,1,2244,0,4,4,restaurant_16,1,memory-2step-stake-s,667,15794626,0.0-18.0-0.1-0.169,4281,8,7
170,4,object_06,object_03,638.655,8,2,267.245,0.5555555555555556,2,object_08,5,2269,0,4,5,restaurant_31,1,memory-2step-stake-s,668,15802746,0.0-18.0-0.1-0.170,4281,7,8
171,3,object_10,object_02,802.19,6,1,461.43,0.5555555555555556,2,object_08,5,2294,0,2,5,library_20,1,memory-2step-stake-s,669,15811017,0.0-18.0-0.1-0.171,4281,6,5
172,2,object_04,object_07,769.27,4,2,323.36,0.3333333333333333,2,object_08,1,2297,0,0,3,forest_9,1,memory-2step-stake-s,670,15818959,0.0-18.0-0.1-0.172,4281,3,4
173,1,object_09,object_01,563.815,1,2,365.995,0.0,1,object_05,1,2297,0,0,1,desert_1,1,memory-2step-stake-s,671,15826593,0.0-18.0-0.1-0.173,4281,2,1
174,4,object_03,object_06,483.065,8,1,468.72,0.3333333333333333,2,object_08,1,2300,0,0,3,restaurant_4,1,memory-2step-stake-s,672,15834666,0.0-18.0-0.1-0.174,4281,8,7
175,4,object_06,object_03,626.91,8,2,265.86,0.3333333333333333,2,object_08,5,2315,0,1,3,restaurant_8,1,memory-2step-stake-s,673,15842507,0.0-18.0-0.1-0.175,4281,7,8
176,4,object_06,object_03,593.71,8,2,236.535,0.2222222222222222,2,object_08,5,2325,0,2,2,restaurant_21,1,memory-2step-stake-s,674,15850227,0.0-18.0-0.1-0.176,4281,7,8
177,1,object_01,object_09,521.835,1,1,237.055,0.1111111111111111,1,object_05,5,2330,0,1,0,desert_28,1,memory-2step-stake-s,675,15857879,0.0-18.0-0.1-0.177,4281,1,2
178,1,object_09,object_01,991.97,2,1,444.73,0.2222222222222222,2,object_08,1,2332,0,2,2,desert_9,1,memory-2step-stake-s,676,15865811,0.0-18.0-0.1-0.178,4281,2,1
179,2,object_04,object_07,800.92,3,1,278.96,0.0,1,object_05,5,2332,0,0,4,forest_4,1,memory-2step-stake-s,677,15873360,0.0-18.0-0.1-0.179,4281,3,4
180,1,object_09,object_01,649.425,2,1,471.525,0.4444444444444444,2,object_08,1,2336,0,1,4,desert_17,1,memory-2step-stake-s,678,15881507,0.0-18.0-0.1-0.180,4281,2,1
181,2,object_04,object_07,752.325,4,2,346.97,0.1111111111111111,2,object_08,1,2337,0,5,1,forest_17,1,memory-2step-stake-s,679,15889255,0.0-18.0-0.1-0.181,4281,3,4
182,4,object_03,object_06,460.185,8,1,254.825,0.1111111111111111,2,object_08,1,2338,0,7,1,restaurant_31,1,memory-2step-stake-s,680,15896897,0.0-18.0-0.1-0.182,4281,8,7
183,3,object_02,object_10,543.66,5,1,293.03,0.3333333333333333,1,object_05,5,2353,0,3,1,library_32,1,memory-2step-stake-s,681,15904777,0.0-18.0-0.1-0.183,4281,5,6
184,3,object_02,object_10,598.335,5,1,349.315,0.2222222222222222,1,object_05,1,2355,0,2,1,library_4,1,memory-2step-stake-s,682,15912609,0.0-18.0-0.1-0.184,4281,5,6
185,4,object_03,object_06,-1.0,-1,-1,-1.0,0.0,-,,1,2355,0,2,2,restaurant_27,1,memory-2step-stake-s,683,15919157,0.0-18.0-0.1-0.185,4281,8,7
186,2,object_04,object_07,-1.0,-1,-1,-1.0,0.0,-,,1,2355,0,4,3,forest_9,1,memory-2step-stake-s,684,15925699,0.0-18.0-0.1-0.186,4281,3,4
187,4,object_06,object_03,826.495,7,1,481.815,0.6666666666666666,1,object_05,5,2385,0,6,3,restaurant_3,1,memory-2step-stake-s,685,15934103,0.0-18.0-0.1-0.187,4281,7,8
188,4,object_03,object_06,694.15,7,2,365.885,0.5555555555555556,1,object_05,5,2410,0,5,3,restaurant_22,1,memory-2step-stake-s,686,15942258,0.0-18.0-0.1-0.188,4281,8,7
189,4,object_03,object_06,667.29,7,2,257.375,0.8888888888888888,1,object_05,5,2450,0,8,5,restaurant_18,1,memory-2step-stake-s,687,15950644,0.0-18.0-0.1-0.189,4281,8,7
190,1,object_01,object_09,529.92,1,1,343.78,1.0,1,object_05,1,2459,0,9,5,desert_19,1,memory-2step-stake-s,688,15959235,0.0-18.0-0.1-0.190,4281,1,2
191,4,object_06,object_03,726.455,7,1,338.255,1.0,1,object_05,5,2504,0,9,1,restaurant_2,1,memory-2step-stake-s,689,15967833,0.0-18.0-0.1-0.191,4281,7,8
192,2,object_07,object_04,504.835,3,2,298.08,0.7777777777777778,1,object_05,1,2511,0,7,3,forest_15,1,memory-2step-stake-s,690,15976173,0.0-18.0-0.1-0.192,4281,4,3
193,4,object_06,object_03,648.29,7,1,345.2,0.6666666666666666,1,object_05,1,2517,0,6,4,restaurant_4,1,memory-2step-stake-s,691,15984469,0.0-18.0-0.1-0.193,4281,7,8
194,2,object_04,object_07,725.96,3,1,285.315,0.5555555555555556,1,object_05,5,2542,0,5,7,forest_14,1,memory-2step-stake-s,692,15992537,0.0-18.0-0.1-0.194,4281,3,4
195,1,object_09,object_01,1168.475,1,2,281.795,0.8888888888888888,1,object_05,1,2550,0,8,6,desert_8,1,memory-2step-stake-s,693,16000958,0.0-18.0-0.1-0.195,4281,2,1
196,2,object_04,object_07,668.755,3,1,319.26,1.0,1,object_05,1,2559,0,9,5,forest_2,1,memory-2step-stake-s,694,16009521,0.0-18.0-0.1-0.196,4281,3,4
197,2,object_04,object_07,827.125,3,1,553.545,0.8888888888888888,1,object_05,1,2567,0,8,6,forest_11,1,memory-2step-stake-s,695,16018242,0.0-18.0-0.1-0.197,4281,3,4
198,2,object_07,object_04,559.02,3,2,308.985,0.8888888888888888,1,object_05,1,2575,0,8,3,forest_28,1,memory-2step-stake-s,696,16026704,0.0-18.0-0.1-0.198,4281,4,3
199,2,object_07,object_04,607.93,3,2,511.685,0.5555555555555556,1,object_05,1,2580,0,5,7,forest_4,1,memory-2step-stake-s,697,16035039,0.0-18.0-0.1-0.199,4281,4,3
200,1,object_09,object_01,635.44,1,2,894.595,0.5555555555555556,1,object_05,1,2585,0,5,9,desert_8,1,memory-2step-stake-s,698,16043739,0.0-18.0-0.1-0.200,4281,2,1
201,3,object_10,object_02,556.885,5,2,307.545,0.5555555555555556,1,object_05,5,2610,0,5,6,library_15,1,memory-2step-stake-s,699,16051868,0.0-18.0-0.1-0.201,4281,6,5
202,3,object_10,object_02,553.875,5,2,281.075,0.4444444444444444,1,object_05,1,2614,0,4,4,library_22,1,memory-2step-stake-s,700,16059861,0.0-18.0-0.1-0.202,4281,6,5
203,3,object_02,object_10,462.225,5,1,293.1,0.4444444444444444,1,object_05,5,2634,0,4,1,library_14,1,memory-2step-stake-s,701,16067880,0.0-18.0-0.1-0.203,4281,5,6
204,1,object_09,object_01,678.85,2,1,261.635,0.0,2,object_08,1,2634,0,5,0,desert_31,1,memory-2step-stake-s,702,16075407,0.0-18.0-0.1-0.204,4281,2,1
205,1,object_01,object_09,535.945,1,1,247.445,0.4444444444444444,1,object_05,1,2638,0,4,3,desert_27,1,memory-2step-stake-s,703,16083346,0.0-18.0-0.1-0.205,4281,1,2
206,3,object_10,object_02,677.165,5,2,421.36,0.5555555555555556,1,object_05,5,2663,0,5,5,library_7,1,memory-2step-stake-s,704,16091571,0.0-18.0-0.1-0.206,4281,6,5
207,2,object_04,object_07,638.58,3,1,491.205,0.6666666666666666,1,object_05,5,2693,0,6,7,forest_15,1,memory-2step-stake-s,705,16099928,0.0-18.0-0.1-0.207,4281,3,4
208,2,object_04,object_07,577.455,3,1,428.22,0.7777777777777778,1,object_05,1,2700,0,7,8,forest_15,1,memory-2step-stake-s,706,16108381,0.0-18.0-0.1-0.208,4281,3,4
209,1,object_01,object_09,524.155,1,1,241.435,0.7777777777777778,1,object_05,1,2707,0,7,7,desert_28,1,memory-2step-stake-s,707,16116643,0.0-18.0-0.1-0.209,4281,1,2
210,1,object_01,object_09,609.08,1,1,572.59,0.5555555555555556,1,object_05,1,2712,0,5,7,desert_4,1,memory-2step-stake-s,708,16125006,0.0-18.0-0.1-0.210,4281,1,2
211,1,object_09,object_01,567.705,1,2,255.1,0.6666666666666666,1,object_05,1,2718,0,6,8,desert_31,1,memory-2step-stake-s,709,16133226,0.0-18.0-0.1-0.211,4281,2,1
212,4,object_06,object_03,967.28,7,1,383.135,0.6666666666666666,1,object_05,5,2748,0,6,6,restaurant_21,1,memory-2step-stake-s,710,16141526,0.0-18.0-0.1-0.212,4281,7,8
213,1,object_01,object_09,554.475,1,1,353.735,0.6666666666666666,1,object_05,1,2754,0,6,4,desert_5,1,memory-2step-stake-s,711,16149822,0.0-18.0-0.1-0.213,4281,1,2
214,2,object_04,object_07,580.25,3,1,518.11,0.8888888888888888,1,object_05,5,2794,0,8,7,forest_2,1,memory-2step-stake-s,712,16158495,0.0-18.0-0.1-0.214,4281,3,4
215,3,object_02,object_10,821.805,5,1,536.935,1.0,1,object_05,5,2839,0,9,4,library_22,1,memory-2step-stake-s,713,16167276,0.0-18.0-0.1-0.215,4281,5,6
216,2,object_07,object_04,581.995,3,2,456.515,0.8888888888888888,1,object_05,1,2847,0,8,1,forest_29,1,memory-2step-stake-s,714,16175873,0.0-18.0-0.1-0.216,4281,4,3
217,4,object_06,object_03,788.095,7,1,410.61,1.0,1,object_05,5,2892,0,9,0,restaurant_4,1,memory-2step-stake-s,715,16184545,0.0-18.0-0.1-0.217,4281,7,8
218,2,object_07,object_04,606.875,3,2,467.155,0.7777777777777778,1,object_05,1,2899,0,7,2,forest_8,1,memory-2step-stake-s,716,16193084,0.0-18.0-0.1-0.218,4281,4,3
219,2,object_07,object_04,688.18,3,2,552.255,0.6666666666666666,1,object_05,5,2929,0,6,1,forest_22,1,memory-2step-stake-s,717,16201611,0.0-18.0-0.1-0.219,4281,4,3
220,4,object_03,object_06,960.135,7,2,436.52,0.7777777777777778,1,object_05,5,2964,0,7,2,restaurant_10,1,memory-2step-stake-s,718,16210101,0.0-18.0-0.1-0.220,4281,8,7
221,1,object_01,object_09,588.615,1,1,428.085,0.5555555555555556,1,object_05,1,2969,0,5,1,desert_2,1,memory-2step-stake-s,719,16218348,0.0-18.0-0.1-0.221,4281,1,2
222,2,object_04,object_07,680.645,3,1,287.925,0.8888888888888888,1,object_05,1,2977,0,8,1,forest_12,1,memory-2step-stake-s,720,16226783,0.0-18.0-0.1-0.222,4281,3,4
223,1,object_01,object_09,537.985,1,1,499.595,0.7777777777777778,1,object_05,5,3012,0,7,2,desert_9,1,memory-2step-stake-s,721,16235315,0.0-18.0-0.1-0.223,4281,1,2
224,2,object_07,object_04,616.425,3,2,516.465,0.8888888888888888,1,object_05,5,3052,0,8,1,forest_4,1,memory-2step-stake-s,722,16243980,0.0-18.0-0.1-0.224,4281,4,3
225,4,object_03,object_06,698.705,7,2,426.54,0.8888888888888888,1,object_05,5,3092,0,8,2,restaurant_1,1,memory-2step-stake-s,723,16252567,0.0-18.0-0.1-0.225,4281,8,7
226,4,object_03,object_06,600.975,7,2,286.08,0.4444444444444444,1,object_05,1,3096,0,4,3,restaurant_17,1,memory-2step-stake-s,724,16260561,0.0-18.0-0.1-0.226,4281,8,7
227,3,object_02,object_10,601.37,5,1,317.815,0.2222222222222222,1,object_05,1,3098,0,2,2,library_15,1,memory-2step-stake-s,725,16268372,0.0-18.0-0.1-0.227,4281,5,6
228,2,object_04,object_07,651.0,4,2,314.175,0.6666666666666666,2,object_08,1,3104,0,0,6,forest_8,1,memory-2step-stake-s,726,16276645,0.0-18.0-0.1-0.228,4281,3,4
229,1,object_01,object_09,613.56,2,2,241.13,1.0,2,object_08,1,3113,0,1,9,desert_4,1,memory-2step-stake-s,727,16285116,0.0-18.0-0.1-0.229,4281,1,2
230,4,object_06,object_03,528.05,8,2,522.23,1.0,2,object_08,1,3122,0,1,9,restaurant_10,1,memory-2step-stake-s,728,16293883,0.0-18.0-0.1-0.230,4281,7,8
231,4,object_06,object_03,588.595,8,2,563.535,0.7777777777777778,2,object_08,1,3129,0,3,7,restaurant_8,1,memory-2step-stake-s,729,16302483,0.0-18.0-0.1-0.231,4281,7,8
232,2,object_07,object_04,869.07,4,1,418.89,0.7777777777777778,2,object_08,1,3136,0,3,7,forest_2,1,memory-2step-stake-s,730,16310941,0.0-18.0-0.1-0.232,4281,4,3
233,2,object_07,object_04,673.395,4,1,346.18,0.3333333333333333,2,object_08,5,3151,0,4,3,forest_15,1,memory-2step-stake-s,731,16318877,0.0-18.0-0.1-0.233,4281,4,3
234,3,object_10,object_02,698.135,6,1,836.045,0.6666666666666666,2,object_08,5,3181,0,2,6,library_13,1,memory-2step-stake-s,732,16327629,0.0-18.0-0.1-0.234,4281,6,5
235,2,object_07,object_04,635.43,4,1,499.315,0.8888888888888888,2,object_08,1,3189,0,3,8,forest_11,1,memory-2step-stake-s,733,16336258,0.0-18.0-0.1-0.235,4281,4,3
236,2,object_04,object_07,676.1,4,2,435.75,0.8888888888888888,2,object_08,5,3229,0,5,8,forest_22,1,memory-2step-stake-s,734,16344840,0.0-18.0-0.1-0.236,4281,3,4
237,4,object_03,object_06,714.985,8,1,363.55,1.0,2,object_08,5,3274,0,6,9,restaurant_16,1,memory-2step-stake-s,735,16353439,0.0-18.0-0.1-0.237,4281,8,7
238,3,object_02,object_10,552.96,6,2,636.165,0.8888888888888888,2,object_08,5,3314,0,4,8,library_21,1,memory-2step-stake-s,736,16362254,0.0-18.0-0.1-0.238,4281,5,6
239,1,object_09,object_01,674.665,2,1,287.47,0.8888888888888888,2,object_08,5,3354,0,2,8,desert_4,1,memory-2step-stake-s,737,16370655,0.0-18.0-0.1-0.239,4281,2,1
240,3,object_10,object_02,653.59,6,1,364.06,0.7777777777777778,2,object_08,5,3389,0,1,7,library_21,1,memory-2step-stake-s,738,16379073,0.0-18.0-0.1-0.240,4281,6,5
241,3,object_02,object_10,1194.465,6,2,356.185,0.6666666666666666,2,object_08,5,3419,0,1,6,library_7,1,memory-2step-stake-s,739,16387349,0.0-18.0-0.1-0.241,4281,5,6
242,1,object_01,object_09,759.975,2,2,696.895,0.8888888888888888,2,object_08,1,3427,0,2,8,desert_27,1,memory-2step-stake-s,740,16396230,0.0-18.0-0.1-0.242,4281,1,2
243,1,object_01,object_09,695.77,2,2,345.975,0.7777777777777778,2,object_08,1,3434,0,1,7,desert_26,1,memory-2step-stake-s,741,16404619,0.0-18.0-0.1-0.243,4281,1,2
244,3,object_10,object_02,679.2,6,1,249.505,0.5555555555555556,2,object_08,5,3459,0,4,5,library_13,1,memory-2step-stake-s,742,16412721,0.0-18.0-0.1-0.244,4281,6,5
245,3,object_02,object_10,585.445,6,2,400.625,0.6666666666666666,2,object_08,5,3489,0,2,6,library_14,1,memory-2step-stake-s,743,16421036,0.0-18.0-0.1-0.245,4281,5,6
246,1,object_01,object_09,671.385,2,2,403.305,0.5555555555555556,2,object_08,1,3494,0,4,5,desert_4,1,memory-2step-stake-s,744,16429243,0.0-18.0-0.1-0.246,4281,1,2
247,3,object_02,object_10,850.835,6,2,447.31,0.6666666666666666,2,object_08,5,3524,0,4,6,library_18,1,memory-2step-stake-s,745,16437593,0.0-18.0-0.1-0.247,4281,5,6
248,4,object_06,object_03,781.925,7,1,309.015,0.2222222222222222,1,object_05,5,3534,0,2,7,restaurant_17,1,memory-2step-stake-s,746,16445399,0.0-18.0-0.1-0.248,4281,7,8
249,4,object_06,object_03,466.495,8,2,289.825,0.5555555555555556,2,object_08,5,3559,0,4,5,restaurant_2,1,memory-2step-stake-s,747,16453504,0.0-18.0-0.1-0.249,4281,7,8
250,1,object_09,object_01,658.38,1,2,235.56,0.4444444444444444,1,object_05,1,3563,0,4,3,desert_11,1,memory-2step-stake-s,748,16461460,0.0-18.0-0.1-0.250,4281,2,1
251,4,object_03,object_06,545.3,8,1,226.61,0.0,2,object_08,1,3563,0,2,0,restaurant_31,1,memory-2step-stake-s,749,16468962,0.0-18.0-0.1-0.251,4281,8,7
252,3,object_02,object_10,654.5,5,1,337.755,0.1111111111111111,1,object_05,5,3568,0,1,1,library_32,1,memory-2step-stake-s,750,16476685,0.0-18.0-0.1-0.252,4281,5,6
253,3,object_02,object_10,456.155,5,1,282.0,0.2222222222222222,1,object_05,5,3578,0,2,1,library_29,1,memory-2step-stake-s,751,16484478,0.0-18.0-0.1-0.253,4281,5,6
254,2,object_04,object_07,754.82,3,1,285.07,0.0,1,object_05,1,3578,0,0,2,forest_18,1,memory-2step-stake-s,752,16492044,0.0-18.0-0.1-0.254,4281,3,4
255,3,object_02,object_10,667.925,6,2,462.31,0.7777777777777778,2,object_08,1,3585,0,1,7,library_22,1,memory-2step-stake-s,753,16500521,0.0-18.0-0.1-0.255,4281,5,6
