,state1,stim_left,stim_right,rt_1,choice1,response1,rt_2,points,state2,stim_state2,stake,score,practice,rews1,rews2,background,high_arm,trial_type,trial_index,time_elapsed,internal_node_id,subid,stim_left_num,stim_right_num
0,2,object_09,object_08,1301.405,4,2,1414.515,0.1111111111111111,2,object_10,5,5,0,9,1,forest_16,2,memory-2step-stake-s,491,1203358,0.0-18.0-0.0-0.0,4091,3,4
1,2,object_08,object_09,1243.945,4,1,736.96,0.1111111111111111,2,object_10,5,10,0,6,1,forest_14,2,memory-2step-stake-s,492,1211411,0.0-18.0-0.0-0.1,4091,4,3
2,2,object_09,object_08,1166.715,3,1,343.98,0.6666666666666666,1,object_04,1,16,0,6,1,forest_28,2,memory-2step-stake-s,493,1219577,0.0-18.0-0.0-0.2,4091,3,4
3,2,object_09,object_08,1068.615,3,1,419.985,0.8888888888888888,1,object_04,5,56,0,8,2,forest_16,2,memory-2step-stake-s,494,1228022,0.0-18.0-0.0-0.3,4091,3,4
4,1,object_02,object_07,961.14,1,2,603.145,0.6666666666666666,1,object_04,5,86,0,6,0,desert_10,2,memory-2step-stake-s,495,1236445,0.0-18.0-0.0-0.4,4091,2,1
5,4,object_06,object_01,1392.585,8,2,437.61,0.3333333333333333,2,object_10,1,89,0,8,3,restaurant_9,2,memory-2step-stake-s,496,1244399,0.0-18.0-0.0-0.5,4091,7,8
6,4,object_06,object_01,1465.15,7,1,712.325,0.6666666666666666,1,object_04,1,95,0,6,3,restaurant_29,2,memory-2step-stake-s,497,1252932,0.0-18.0-0.0-0.6,4091,7,8
7,4,object_01,object_06,1368.655,7,2,404.835,0.7777777777777778,1,object_04,1,102,0,7,3,restaurant_2,2,memory-2step-stake-s,498,1261255,0.0-18.0-0.0-0.7,4091,8,7
8,1,object_07,object_02,870.47,2,2,390.77,0.2222222222222222,2,object_10,5,112,0,8,2,desert_7,2,memory-2step-stake-s,499,1269062,0.0-18.0-0.0-0.8,4091,1,2
9,2,object_08,object_09,1158.3,3,2,289.615,0.6666666666666666,1,object_04,5,142,0,6,1,forest_6,2,memory-2step-stake-s,500,1277178,0.0-18.0-0.0-0.9,4091,4,3
10,1,object_02,object_07,1222.93,1,2,303.425,0.6666666666666666,1,object_04,1,148,0,6,2,desert_17,2,memory-2step-stake-s,501,1285304,0.0-18.0-0.0-0.10,4091,2,1
11,4,object_06,object_01,884.56,8,2,388.73,0.0,2,object_10,1,148,0,6,0,restaurant_21,2,memory-2step-stake-s,502,1292911,0.0-18.0-0.0-0.11,4091,7,8
12,3,object_05,object_03,1302.5,5,2,281.29,0.5555555555555556,1,object_04,1,153,0,5,3,library_20,2,memory-2step-stake-s,503,1300908,0.0-18.0-0.0-0.12,4091,6,5
13,1,object_02,object_07,975.945,2,1,433.85,0.2222222222222222,2,object_10,5,163,0,4,2,desert_2,2,memory-2step-stake-s,504,1308755,0.0-18.0-0.0-0.13,4091,2,1
14,1,object_02,object_07,429.65,1,2,259.025,0.6666666666666666,1,object_04,5,193,0,6,3,desert_27,2,memory-2step-stake-s,505,1316836,0.0-18.0-0.0-0.14,4091,2,1
15,3,object_05,object_03,1379.785,6,1,369.65,0.7777777777777778,2,object_10,1,200,0,4,7,library_32,2,memory-2step-stake-s,506,1325128,0.0-18.0-0.0-0.15,4091,6,5
16,3,object_05,object_03,1411.05,5,2,347.095,0.1111111111111111,1,object_04,5,205,0,1,6,library_23,2,memory-2step-stake-s,507,1332793,0.0-18.0-0.0-0.16,4091,6,5
17,3,object_03,object_05,1378.16,5,1,253.645,0.1111111111111111,1,object_04,5,210,0,1,3,library_1,2,memory-2step-stake-s,508,1340365,0.0-18.0-0.0-0.17,4091,5,6
18,3,object_05,object_03,1135.505,5,2,257.12,0.3333333333333333,1,object_04,5,225,0,3,2,library_26,2,memory-2step-stake-s,509,1348138,0.0-18.0-0.0-0.18,4091,6,5
19,3,object_03,object_05,1383.86,5,1,308.9,0.6666666666666666,1,object_04,1,231,0,6,1,library_26,2,memory-2step-stake-s,510,1356274,0.0-18.0-0.0-0.19,4091,5,6
20,2,object_09,object_08,910.105,4,2,285.29,0.2222222222222222,2,object_10,1,233,0,7,2,forest_6,2,memory-2step-stake-s,511,1363974,0.0-18.0-0.0-0.20,4091,3,4
21,3,object_03,object_05,855.985,5,1,319.565,0.7777777777777778,1,object_04,1,240,0,7,7,library_25,2,memory-2step-stake-s,512,1372221,0.0-18.0-0.0-0.21,4091,5,6
22,1,object_02,object_07,677.745,1,2,313.24,0.7777777777777778,1,object_04,1,247,0,7,7,desert_5,2,memory-2step-stake-s,513,1380454,0.0-18.0-0.0-0.22,4091,2,1
23,1,object_02,object_07,561.52,1,2,326.105,0.6666666666666666,1,object_04,5,277,0,6,6,desert_5,2,memory-2step-stake-s,514,1388599,0.0-18.0-0.0-0.23,4091,2,1
24,2,object_09,object_08,-1.0,-1,-1,-1.0,0.0,-,,5,277,0,7,2,forest_18,2,memory-2step-stake-s,515,1395108,0.0-18.0-0.0-0.24,4091,3,4
25,2,object_09,object_08,511.705,4,2,372.05,0.2222222222222222,2,object_10,5,287,0,9,2,forest_29,2,memory-2step-stake-s,516,1402894,0.0-18.0-0.0-0.25,4091,3,4
26,3,object_05,object_03,405.135,5,2,418.455,0.8888888888888888,1,object_04,1,295,0,8,0,library_20,2,memory-2step-stake-s,517,1411331,0.0-18.0-0.0-0.26,4091,6,5
27,2,object_09,object_08,1082.14,3,1,292.805,0.6666666666666666,1,object_04,5,325,0,6,5,forest_17,2,memory-2step-stake-s,518,1419447,0.0-18.0-0.0-0.27,4091,3,4
28,4,object_06,object_01,886.73,8,2,564.86,0.5555555555555556,2,object_10,1,330,0,6,5,restaurant_10,2,memory-2step-stake-s,519,1427732,0.0-18.0-0.0-0.28,4091,7,8
29,4,object_06,object_01,-1.0,-1,-1,-1.0,0.0,-,,1,330,0,8,5,restaurant_14,2,memory-2step-stake-s,520,1434244,0.0-18.0-0.0-0.29,4091,7,8
30,2,object_09,object_08,608.555,4,2,307.885,0.7777777777777778,2,object_10,5,365,0,9,7,forest_18,2,memory-2step-stake-s,521,1442474,0.0-18.0-0.0-0.30,4091,3,4
31,1,object_07,object_02,699.76,1,1,392.885,0.7777777777777778,1,object_04,5,400,0,7,6,desert_2,2,memory-2step-stake-s,522,1450786,0.0-18.0-0.0-0.31,4091,1,2
32,1,object_07,object_02,715.47,2,2,312.165,0.3333333333333333,2,object_10,1,403,0,7,3,desert_32,2,memory-2step-stake-s,523,1458614,0.0-18.0-0.0-0.32,4091,1,2
33,1,object_02,object_07,571.125,1,2,251.265,0.5555555555555556,1,object_04,5,428,0,5,2,desert_22,2,memory-2step-stake-s,524,1466584,0.0-18.0-0.0-0.33,4091,2,1
34,1,object_02,object_07,535.56,2,1,365.585,0.3333333333333333,2,object_10,5,443,0,8,3,desert_14,2,memory-2step-stake-s,525,1474472,0.0-18.0-0.0-0.34,4091,2,1
35,4,object_06,object_01,372.295,8,2,341.265,0.2222222222222222,2,object_10,1,445,0,3,2,restaurant_23,2,memory-2step-stake-s,526,1482229,0.0-18.0-0.0-0.35,4091,7,8
36,4,object_06,object_01,678.17,7,1,609.07,0.0,1,object_04,1,445,0,0,4,restaurant_29,2,memory-2step-stake-s,527,1490051,0.0-18.0-0.0-0.36,4091,7,8
37,4,object_06,object_01,864.47,8,2,353.81,0.6666666666666666,2,object_10,1,451,0,1,6,restaurant_30,2,memory-2step-stake-s,528,1498226,0.0-18.0-0.0-0.37,4091,7,8
38,1,object_02,object_07,601.71,1,2,354.46,0.2222222222222222,1,object_04,5,461,0,2,5,desert_19,2,memory-2step-stake-s,529,1505999,0.0-18.0-0.0-0.38,4091,2,1
39,1,object_07,object_02,1213.775,1,1,334.71,0.3333333333333333,1,object_04,1,464,0,3,6,desert_25,2,memory-2step-stake-s,530,1513854,0.0-18.0-0.0-0.39,4091,1,2
40,3,object_05,object_03,431.655,6,1,272.315,1.0,2,object_10,1,473,0,4,9,library_1,2,memory-2step-stake-s,531,1522248,0.0-18.0-0.0-0.40,4091,6,5
41,2,object_09,object_08,745.955,4,2,436.355,0.8888888888888888,2,object_10,1,481,0,5,8,forest_1,2,memory-2step-stake-s,532,1530704,0.0-18.0-0.0-0.41,4091,3,4
42,3,object_05,object_03,1137.29,6,1,401.035,0.6666666666666666,2,object_10,5,511,0,3,6,library_5,2,memory-2step-stake-s,533,1538926,0.0-18.0-0.0-0.42,4091,6,5
43,4,object_06,object_01,311.885,7,1,289.695,0.2222222222222222,1,object_04,1,513,0,2,9,restaurant_1,2,memory-2step-stake-s,534,1546635,0.0-18.0-0.0-0.43,4091,7,8
44,4,object_06,object_01,1254.815,8,2,322.665,0.5555555555555556,2,object_10,1,518,0,3,5,restaurant_1,2,memory-2step-stake-s,535,1554675,0.0-18.0-0.0-0.44,4091,7,8
45,4,object_01,object_06,636.66,7,2,260.91,0.1111111111111111,1,object_04,1,519,0,1,6,restaurant_11,2,memory-2step-stake-s,536,1562250,0.0-18.0-0.0-0.45,4091,8,7
46,1,object_02,object_07,494.95,1,2,582.265,0.3333333333333333,1,object_04,5,534,0,3,8,desert_7,2,memory-2step-stake-s,537,1570351,0.0-18.0-0.0-0.46,4091,2,1
47,1,object_02,object_07,439.205,1,2,268.55,0.2222222222222222,1,object_04,5,544,0,2,4,desert_20,2,memory-2step-stake-s,538,1578038,0.0-18.0-0.0-0.47,4091,2,1
48,1,object_02,object_07,649.865,2,1,281.56,0.5555555555555556,2,object_10,5,569,0,3,5,desert_32,2,memory-2step-stake-s,539,1586038,0.0-18.0-0.0-0.48,4091,2,1
49,4,object_06,object_01,702.575,7,1,264.495,0.5555555555555556,1,object_04,1,574,0,5,3,restaurant_30,2,memory-2step-stake-s,540,1594024,0.0-18.0-0.0-0.49,4091,7,8
50,2,object_09,object_08,687.0,3,1,538.41,0.5555555555555556,1,object_04,5,599,0,5,2,forest_29,2,memory-2step-stake-s,541,1602278,0.0-18.0-0.0-0.50,4091,3,4
51,2,object_09,object_08,738.84,4,2,454.92,0.3333333333333333,2,object_10,5,614,0,7,3,forest_26,2,memory-2step-stake-s,542,1610256,0.0-18.0-0.0-0.51,4091,3,4
52,4,object_06,object_01,826.855,8,2,230.145,0.5555555555555556,2,object_10,1,619,0,6,5,restaurant_4,2,memory-2step-stake-s,543,1618210,0.0-18.0-0.0-0.52,4091,7,8
53,2,object_09,object_08,946.35,4,2,274.9,0.6666666666666666,2,object_10,5,649,0,4,6,forest_17,2,memory-2step-stake-s,544,1626314,0.0-18.0-0.0-0.53,4091,3,4
54,4,object_01,object_06,620.825,8,1,293.0,0.5555555555555556,2,object_10,1,654,0,6,5,restaurant_14,2,memory-2step-stake-s,545,1634320,0.0-18.0-0.0-0.54,4091,8,7
55,1,object_07,object_02,646.22,2,2,424.36,0.7777777777777778,2,object_10,5,689,0,3,7,desert_19,2,memory-2step-stake-s,546,1642670,0.0-18.0-0.0-0.55,4091,1,2
56,2,object_08,object_09,948.605,3,2,737.88,0.3333333333333333,1,object_04,5,704,0,3,8,forest_10,2,memory-2step-stake-s,547,1650923,0.0-18.0-0.0-0.56,4091,4,3
57,1,object_02,object_07,728.39,1,2,341.985,0.6666666666666666,1,object_04,5,734,0,6,9,desert_10,2,memory-2step-stake-s,548,1659089,0.0-18.0-0.0-0.57,4091,2,1
58,3,object_05,object_03,354.985,6,1,350.445,0.4444444444444444,2,object_10,1,738,0,5,4,library_32,2,memory-2step-stake-s,549,1667056,0.0-18.0-0.0-0.58,4091,6,5
59,1,object_07,object_02,409.81,2,2,340.945,0.5555555555555556,2,object_10,1,743,0,2,5,desert_14,2,memory-2step-stake-s,550,1675122,0.0-18.0-0.0-0.59,4091,1,2
60,1,object_07,object_02,433.015,2,2,300.655,0.4444444444444444,2,object_10,5,763,0,4,4,desert_30,2,memory-2step-stake-s,551,1683045,0.0-18.0-0.0-0.60,4091,1,2
61,3,object_03,object_05,535.4,5,1,417.98,0.2222222222222222,1,object_04,5,773,0,2,5,library_5,2,memory-2step-stake-s,552,1690882,0.0-18.0-0.0-0.61,4091,5,6
62,2,object_09,object_08,412.535,4,2,309.595,0.7777777777777778,2,object_10,5,808,0,5,7,forest_13,2,memory-2step-stake-s,553,1699538,0.0-18.0-0.0-0.62,4091,3,4
63,4,object_06,object_01,286.995,8,2,297.04,0.7777777777777778,2,object_10,1,815,0,5,7,restaurant_4,2,memory-2step-stake-s,554,1707754,0.0-18.0-0.0-0.63,4091,7,8
64,4,object_06,object_01,605.635,7,1,527.78,0.1111111111111111,1,object_04,1,816,0,1,9,restaurant_26,2,memory-2step-stake-s,555,1715600,0.0-18.0-0.0-0.64,4091,7,8
65,3,object_05,object_03,266.685,5,2,383.575,0.2222222222222222,1,object_04,1,818,0,2,8,library_10,2,memory-2step-stake-s,556,1723405,0.0-18.0-0.0-0.65,4091,6,5
66,2,object_09,object_08,911.185,4,2,346.415,0.7777777777777778,2,object_10,5,853,0,2,7,forest_30,2,memory-2step-stake-s,557,1731677,0.0-18.0-0.0-0.66,4091,3,4
67,2,object_09,object_08,628.725,3,1,297.38,0.2222222222222222,1,object_04,5,863,0,2,7,forest_10,2,memory-2step-stake-s,558,1739393,0.0-18.0-0.0-0.67,4091,3,4
68,1,object_02,object_07,559.46,1,2,321.545,0.1111111111111111,1,object_04,5,868,0,1,8,desert_25,2,memory-2step-stake-s,559,1747034,0.0-18.0-0.0-0.68,4091,2,1
69,1,object_02,object_07,507.65,2,1,272.09,0.7777777777777778,2,object_10,5,903,0,1,7,desert_7,2,memory-2step-stake-s,560,1755229,0.0-18.0-0.0-0.69,4091,2,1
70,4,object_06,object_01,835.48,8,2,630.23,0.8888888888888888,2,object_10,1,911,0,0,8,restaurant_20,2,memory-2step-stake-s,561,1763884,0.0-18.0-0.0-0.70,4091,7,8
71,3,object_05,object_03,718.765,6,1,341.8,1.0,2,object_10,1,920,0,0,9,library_2,2,memory-2step-stake-s,562,1772352,0.0-18.0-0.0-0.71,4091,6,5
72,1,object_07,object_02,529.825,2,2,92.45999999,0.7777777777777778,2,object_10,5,955,0,1,7,desert_24,2,memory-2step-stake-s,563,1780371,0.0-18.0-0.0-0.72,4091,1,2
73,3,object_03,object_05,621.335,6,2,431.325,0.7777777777777778,2,object_10,5,990,0,2,7,library_29,2,memory-2step-stake-s,564,1788728,0.0-18.0-0.0-0.73,4091,5,6
74,4,object_06,object_01,613.37,7,1,296.03,0.4444444444444444,1,object_04,1,994,0,4,9,restaurant_14,2,memory-2step-stake-s,565,1796645,0.0-18.0-0.0-0.74,4091,7,8
75,1,object_07,object_02,461.825,2,2,493.205,0.8888888888888888,2,object_10,5,1034,0,3,8,desert_19,2,memory-2step-stake-s,566,1805162,0.0-18.0-0.0-0.75,4091,1,2
76,2,object_09,object_08,542.325,4,2,382.685,0.8888888888888888,2,object_10,5,1074,0,4,8,forest_1,2,memory-2step-stake-s,567,1813569,0.0-18.0-0.0-0.76,4091,3,4
77,1,object_07,object_02,305.805,1,1,430.765,0.2222222222222222,1,object_04,5,1084,0,2,6,desert_2,2,memory-2step-stake-s,568,1821417,0.0-18.0-0.0-0.77,4091,1,2
78,3,object_03,object_05,986.785,5,1,303.755,0.2222222222222222,1,object_04,5,1094,0,2,6,library_3,2,memory-2step-stake-s,569,1829139,0.0-18.0-0.0-0.78,4091,5,6
79,4,object_01,object_06,769.315,7,2,312.565,0.4444444444444444,1,object_04,5,1114,0,4,8,restaurant_23,2,memory-2step-stake-s,570,1837072,0.0-18.0-0.0-0.79,4091,8,7
80,4,object_01,object_06,491.755,8,1,750.985,1.0,2,object_10,1,1123,0,2,9,restaurant_2,2,memory-2step-stake-s,571,1845955,0.0-18.0-0.0-0.80,4091,8,7
81,3,object_05,object_03,631.95,5,2,79.815,0.3333333333333333,1,object_04,5,1138,0,3,8,library_13,2,memory-2step-stake-s,572,1853555,0.0-18.0-0.0-0.81,4091,6,5
82,4,object_06,object_01,908.46,8,2,283.15,0.6666666666666666,2,object_10,1,1144,0,2,6,restaurant_8,2,memory-2step-stake-s,573,1861664,0.0-18.0-0.0-0.82,4091,7,8
83,4,object_06,object_01,310.67,8,2,354.31,0.7777777777777778,2,object_10,1,1151,0,2,7,restaurant_11,2,memory-2step-stake-s,574,1869941,0.0-18.0-0.0-0.83,4091,7,8
84,1,object_02,object_07,334.2,2,1,359.23,0.7777777777777778,2,object_10,1,1158,0,2,7,desert_32,2,memory-2step-stake-s,575,1878223,0.0-18.0-0.0-0.84,4091,2,1
85,4,object_01,object_06,726.79,7,2,-1.0,0.0,1,object_04,1,1158,0,4,2,restaurant_20,2,memory-2step-stake-s,576,1886743,0.0-18.0-0.0-0.85,4091,8,7
86,4,object_01,object_06,231.61,8,1,90.405,0.2222222222222222,2,object_10,1,1160,0,8,2,restaurant_22,2,memory-2step-stake-s,577,1894254,0.0-18.0-0.0-0.86,4091,8,7
87,4,object_06,object_01,132.29,8,2,437.785,0.0,2,object_10,1,1160,0,8,0,restaurant_9,2,memory-2step-stake-s,578,1901908,0.0-18.0-0.0-0.87,4091,7,8
88,1,object_07,object_02,406.135,2,2,316.41,0.2222222222222222,2,object_10,5,1170,0,8,2,desert_25,2,memory-2step-stake-s,579,1909643,0.0-18.0-0.0-0.88,4091,1,2
89,1,object_02,object_07,445.92,1,2,226.07,0.7777777777777778,1,object_04,5,1205,0,7,0,desert_30,2,memory-2step-stake-s,580,1917795,0.0-18.0-0.0-0.89,4091,2,1
90,4,object_06,object_01,312.81,7,1,431.26,0.8888888888888888,1,object_04,1,1213,0,8,1,restaurant_20,2,memory-2step-stake-s,581,1926254,0.0-18.0-0.0-0.90,4091,7,8
91,2,object_08,object_09,835.58,4,1,642.725,0.1111111111111111,2,object_10,5,1218,0,7,1,forest_10,2,memory-2step-stake-s,582,1934214,0.0-18.0-0.0-0.91,4091,4,3
92,3,object_05,object_03,775.02,5,2,359.075,1.0,1,object_04,1,1227,0,9,1,library_14,2,memory-2step-stake-s,583,1942700,0.0-18.0-0.0-0.92,4091,6,5
93,2,object_08,object_09,596.805,3,2,285.39,0.7777777777777778,1,object_04,5,1262,0,7,1,forest_28,2,memory-2step-stake-s,584,1950909,0.0-18.0-0.0-0.93,4091,4,3
94,4,object_01,object_06,1134.685,7,2,312.805,0.6666666666666666,1,object_04,5,1292,0,6,0,restaurant_22,2,memory-2step-stake-s,585,1959044,0.0-18.0-0.0-0.94,4091,8,7
95,3,object_03,object_05,-1.0,-1,-1,-1.0,0.0,-,,1,1292,0,6,1,library_14,2,memory-2step-stake-s,586,1965555,0.0-18.0-0.0-0.95,4091,5,6
96,4,object_06,object_01,890.88,7,1,287.845,1.0,1,object_04,1,1301,0,9,0,restaurant_10,2,memory-2step-stake-s,587,1973968,0.0-18.0-0.0-0.96,4091,7,8
97,2,object_08,object_09,598.965,3,2,269.345,0.6666666666666666,1,object_04,5,1331,0,6,4,forest_14,2,memory-2step-stake-s,588,1982062,0.0-18.0-0.0-0.97,4091,4,3
98,2,object_08,object_09,494.105,3,2,302.02,0.7777777777777778,1,object_04,5,1366,0,7,2,forest_1,2,memory-2step-stake-s,589,1990287,0.0-18.0-0.0-0.98,4091,4,3
99,2,object_08,object_09,529.28,3,2,453.14,0.8888888888888888,1,object_04,5,1406,0,8,3,forest_16,2,memory-2step-stake-s,590,1998765,0.0-18.0-0.0-0.99,4091,4,3
100,1,object_07,object_02,691.235,2,2,485.48,0.4444444444444444,2,object_10,5,1426,0,5,4,desert_20,2,memory-2step-stake-s,591,2006876,0.0-18.0-0.0-0.100,4091,1,2
101,3,object_03,object_05,738.575,5,1,237.345,1.0,1,object_04,1,1435,0,9,5,library_31,2,memory-2step-stake-s,592,2015239,0.0-18.0-0.0-0.101,4091,5,6
102,1,object_02,object_07,450.9,1,2,280.43,0.8888888888888888,1,object_04,5,1475,0,8,4,desert_7,2,memory-2step-stake-s,593,2023545,0.0-18.0-0.0-0.102,4091,2,1
103,3,object_05,object_03,524.535,5,2,299.045,0.8888888888888888,1,object_04,1,1483,0,8,7,library_10,2,memory-2step-stake-s,594,2031868,0.0-18.0-0.0-0.103,4091,6,5
104,3,object_05,object_03,408.925,5,2,268.91,0.7777777777777778,1,object_04,1,1490,0,7,7,library_1,2,memory-2step-stake-s,595,2040060,0.0-18.0-0.0-0.104,4091,6,5
105,2,object_09,object_08,977.27,4,2,308.52,0.8888888888888888,2,object_10,5,1530,0,8,8,forest_13,2,memory-2step-stake-s,596,2048392,0.0-18.0-0.0-0.105,4091,3,4
106,4,object_01,object_06,380.29,7,2,254.46,0.6666666666666666,1,object_04,1,1536,0,6,6,restaurant_10,2,memory-2step-stake-s,597,2056469,0.0-18.0-0.0-0.106,4091,8,7
107,4,object_01,object_06,575.49,7,2,311.55,0.2222222222222222,1,object_04,1,1538,0,2,6,restaurant_11,2,memory-2step-stake-s,598,2064200,0.0-18.0-0.0-0.107,4091,8,7
108,1,object_02,object_07,653.33,2,1,267.59,0.6666666666666666,2,object_10,1,1544,0,0,6,desert_27,2,memory-2step-stake-s,599,2072290,0.0-18.0-0.0-0.108,4091,2,1
109,1,object_07,object_02,512.435,2,2,279.355,0.6666666666666666,2,object_10,5,1574,0,0,6,desert_2,2,memory-2step-stake-s,600,2080396,0.0-18.0-0.0-0.109,4091,1,2
110,1,object_02,object_07,613.855,2,1,327.405,0.2222222222222222,2,object_10,5,1584,0,2,2,desert_8,2,memory-2step-stake-s,601,2088143,0.0-18.0-0.0-0.110,4091,2,1
111,3,object_03,object_05,478.15,5,1,1228.35,0.1111111111111111,1,object_04,1,1585,0,1,5,library_30,2,memory-2step-stake-s,602,2096688,0.0-18.0-0.0-0.111,4091,5,6
112,3,object_05,object_03,459.935,5,2,287.27,0.3333333333333333,1,object_04,1,1588,0,3,4,library_31,2,memory-2step-stake-s,603,2104494,0.0-18.0-0.0-0.112,4091,6,5
113,3,object_05,object_03,491.875,5,2,326.91,0.3333333333333333,1,object_04,1,1591,0,3,3,library_1,2,memory-2step-stake-s,604,2112340,0.0-18.0-0.0-0.113,4091,6,5
114,3,object_03,object_05,529.155,5,1,263.475,0.2222222222222222,1,object_04,1,1593,0,2,1,library_32,2,memory-2step-stake-s,605,2120027,0.0-18.0-0.0-0.114,4091,5,6
115,1,object_02,object_07,619.65,1,2,272.755,0.3333333333333333,1,object_04,5,1608,0,3,0,desert_14,2,memory-2step-stake-s,606,2127823,0.0-18.0-0.0-0.115,4091,2,1
116,1,object_02,object_07,465.545,2,1,235.51,0.1111111111111111,2,object_10,5,1613,0,3,1,desert_22,2,memory-2step-stake-s,607,2135375,0.0-18.0-0.0-0.116,4091,2,1
117,2,object_09,object_08,901.93,4,2,291.38,0.3333333333333333,2,object_10,5,1628,0,5,3,forest_7,2,memory-2step-stake-s,608,2143186,0.0-18.0-0.0-0.117,4091,3,4
118,2,object_08,object_09,712.03,3,2,230.44,0.5555555555555556,1,object_04,1,1633,0,5,4,forest_9,2,memory-2step-stake-s,609,2151135,0.0-18.0-0.0-0.118,4091,4,3
119,4,object_06,object_01,446.87,7,1,234.61,0.2222222222222222,1,object_04,1,1635,0,2,2,restaurant_2,2,memory-2step-stake-s,610,2158790,0.0-18.0-0.0-0.119,4091,7,8
120,3,object_05,object_03,646.29,5,2,310.83,0.1111111111111111,1,object_04,1,1636,0,1,0,library_29,2,memory-2step-stake-s,611,2166421,0.0-18.0-0.0-0.120,4091,6,5
121,2,object_09,object_08,1259.15,3,1,364.585,0.2222222222222222,1,object_04,5,1646,0,2,3,forest_3,2,memory-2step-stake-s,612,2174207,0.0-18.0-0.0-0.121,4091,3,4
122,1,object_07,object_02,636.445,2,2,388.875,0.5555555555555556,2,object_10,5,1671,0,1,5,desert_17,2,memory-2step-stake-s,613,2182325,0.0-18.0-0.0-0.122,4091,1,2
123,4,object_06,object_01,484.745,8,2,305.115,0.5555555555555556,2,object_10,1,1676,0,5,5,restaurant_23,2,memory-2step-stake-s,614,2190352,0.0-18.0-0.0-0.123,4091,7,8
124,4,object_01,object_06,253.45,7,2,368.16,0.8888888888888888,1,object_04,1,1684,0,8,7,restaurant_22,2,memory-2step-stake-s,615,2198746,0.0-18.0-0.0-0.124,4091,8,7
125,1,object_07,object_02,471.1,1,1,279.69,0.7777777777777778,1,object_04,5,1719,0,7,7,desert_17,2,memory-2step-stake-s,616,2206949,0.0-18.0-0.0-0.125,4091,1,2
126,1,object_07,object_02,401.35,1,1,231.095,0.7777777777777778,1,object_04,5,1754,0,7,9,desert_8,2,memory-2step-stake-s,617,2215105,0.0-18.0-0.0-0.126,4091,1,2
127,2,object_08,object_09,699.03,3,2,286.85,0.7777777777777778,1,object_04,5,1789,0,7,5,forest_14,2,memory-2step-stake-s,618,2223315,0.0-18.0-0.0-0.127,4091,4,3
128,4,object_06,object_01,898.37,8,2,251.57,0.3333333333333333,2,object_10,1,1792,0,7,3,restaurant_26,2,memory-2step-stake-s,620,2572021,0.0-18.0-0.1-0.128,4091,7,8
129,3,object_05,object_03,513.46,5,2,310.205,0.8888888888888888,1,object_04,5,1832,0,8,5,library_3,2,memory-2step-stake-s,621,2580355,0.0-18.0-0.1-0.129,4091,6,5
130,4,object_06,object_01,417.975,7,1,306.305,0.7777777777777778,1,object_04,1,1839,0,7,5,restaurant_26,2,memory-2step-stake-s,622,2588587,0.0-18.0-0.1-0.130,4091,7,8
131,2,object_09,object_08,903.21,3,1,329.53,1.0,1,object_04,5,1884,0,9,6,forest_17,2,memory-2step-stake-s,623,2597043,0.0-18.0-0.1-0.131,4091,3,4
132,1,object_07,object_02,485.44,1,1,328.115,0.7777777777777778,1,object_04,5,1919,0,7,6,desert_4,2,memory-2step-stake-s,624,2605294,0.0-18.0-0.1-0.132,4091,1,2
133,1,object_02,object_07,425.53,1,2,271.91,0.8888888888888888,1,object_04,1,1927,0,8,9,desert_8,2,memory-2step-stake-s,625,2613590,0.0-18.0-0.1-0.133,4091,2,1
134,3,object_03,object_05,594.47,5,1,263.15,0.7777777777777778,1,object_04,5,1962,0,7,5,library_13,2,memory-2step-stake-s,626,2621778,0.0-18.0-0.1-0.134,4091,5,6
135,1,object_02,object_07,433.055,1,2,254.285,0.5555555555555556,1,object_04,1,1967,0,5,7,desert_22,2,memory-2step-stake-s,627,2629754,0.0-18.0-0.1-0.135,4091,2,1
136,2,object_08,object_09,558.105,3,2,257.86,0.6666666666666666,1,object_04,5,1997,0,6,6,forest_26,2,memory-2step-stake-s,628,2637844,0.0-18.0-0.1-0.136,4091,4,3
137,3,object_03,object_05,517.865,5,1,329.83,0.8888888888888888,1,object_04,1,2005,0,8,7,library_20,2,memory-2step-stake-s,629,2646200,0.0-18.0-0.1-0.137,4091,5,6
138,2,object_09,object_08,592.635,3,1,194.53,1.0,1,object_04,5,2050,0,9,6,forest_30,2,memory-2step-stake-s,630,2654530,0.0-18.0-0.1-0.138,4091,3,4
139,3,object_05,object_03,434.42,5,2,231.71,0.8888888888888888,1,object_04,5,2090,0,8,4,library_25,2,memory-2step-stake-s,631,2662787,0.0-18.0-0.1-0.139,4091,6,5
140,1,object_07,object_02,428.65,1,1,407.96,0.8888888888888888,1,object_04,5,2130,0,8,2,desert_19,2,memory-2step-stake-s,632,2671223,0.0-18.0-0.1-0.140,4091,1,2
141,2,object_09,object_08,451.965,3,1,239.88,0.8888888888888888,1,object_04,5,2170,0,8,5,forest_29,2,memory-2step-stake-s,633,2679491,0.0-18.0-0.1-0.141,4091,3,4
142,1,object_07,object_02,452.435,1,1,56.82,0.8888888888888888,1,object_04,5,2210,0,8,6,desert_27,2,memory-2step-stake-s,634,2687573,0.0-18.0-0.1-0.142,4091,1,2
143,2,object_08,object_09,638.9,3,2,89.63499998,1.0,1,object_04,5,2255,0,9,8,forest_26,2,memory-2step-stake-s,635,2695787,0.0-18.0-0.1-0.143,4091,4,3
144,1,object_07,object_02,449.565,1,1,46.46499999,1.0,1,object_04,5,2300,0,9,8,desert_5,2,memory-2step-stake-s,636,2703960,0.0-18.0-0.1-0.144,4091,1,2
145,2,object_08,object_09,429.635,3,2,187.16,0.7777777777777778,1,object_04,5,2335,0,7,9,forest_7,2,memory-2step-stake-s,637,2712071,0.0-18.0-0.1-0.145,4091,4,3
146,4,object_06,object_01,1007.845,7,1,403.92,0.8888888888888888,1,object_04,1,2343,0,8,7,restaurant_8,2,memory-2step-stake-s,638,2720512,0.0-18.0-0.1-0.146,4091,7,8
147,4,object_06,object_01,522.915,7,1,91.60499999,0.5555555555555556,1,object_04,5,2368,0,5,9,restaurant_28,2,memory-2step-stake-s,639,2728324,0.0-18.0-0.1-0.147,4091,7,8
148,4,object_06,object_01,449.365,7,1,30.295,0.8888888888888888,1,object_04,1,2376,0,8,7,restaurant_20,2,memory-2step-stake-s,640,2736383,0.0-18.0-0.1-0.148,4091,7,8
149,4,object_01,object_06,473.835,7,2,320.945,0.8888888888888888,1,object_04,1,2384,0,8,5,restaurant_28,2,memory-2step-stake-s,641,2744729,0.0-18.0-0.1-0.149,4091,8,7
150,1,object_07,object_02,425.015,1,1,260.075,0.5555555555555556,1,object_04,5,2409,0,5,4,desert_17,2,memory-2step-stake-s,642,2752708,0.0-18.0-0.1-0.150,4091,1,2
151,2,object_09,object_08,448.195,3,1,178.945,0.8888888888888888,1,object_04,5,2449,0,8,7,forest_8,2,memory-2step-stake-s,643,2760910,0.0-18.0-0.1-0.151,4091,3,4
152,1,object_07,object_02,464.99,1,1,317.1,0.8888888888888888,1,object_04,5,2489,0,8,7,desert_4,2,memory-2step-stake-s,644,2769258,0.0-18.0-0.1-0.152,4091,1,2
153,2,object_09,object_08,448.06,3,1,73.00499998,0.8888888888888888,1,object_04,5,2529,0,8,6,forest_26,2,memory-2step-stake-s,645,2777357,0.0-18.0-0.1-0.153,4091,3,4
154,3,object_05,object_03,545.715,6,1,332.82,0.8888888888888888,2,object_10,1,2537,0,8,8,library_5,2,memory-2step-stake-s,646,2785715,0.0-18.0-0.1-0.154,4091,6,5
155,3,object_05,object_03,579.11,6,1,181.965,1.0,2,object_10,1,2546,0,6,9,library_26,2,memory-2step-stake-s,647,2794024,0.0-18.0-0.1-0.155,4091,6,5
156,3,object_03,object_05,545.98,6,2,610.445,0.5555555555555556,2,object_10,1,2551,0,8,5,library_32,2,memory-2step-stake-s,648,2802357,0.0-18.0-0.1-0.156,4091,5,6
157,2,object_09,object_08,495.23,4,2,350.57,0.7777777777777778,2,object_10,1,2558,0,8,7,forest_3,2,memory-2step-stake-s,649,2810632,0.0-18.0-0.1-0.157,4091,3,4
158,4,object_01,object_06,447.28,8,1,100.04,0.4444444444444444,2,object_10,1,2562,0,9,4,restaurant_28,2,memory-2step-stake-s,650,2818353,0.0-18.0-0.1-0.158,4091,8,7
159,2,object_09,object_08,420.085,3,1,23.27000001,1.0,1,object_04,5,2607,0,9,5,forest_8,2,memory-2step-stake-s,651,2826503,0.0-18.0-0.1-0.159,4091,3,4
160,1,object_07,object_02,396.455,1,1,56.95,1.0,1,object_04,5,2652,0,9,8,desert_24,2,memory-2step-stake-s,652,2834694,0.0-18.0-0.1-0.160,4091,1,2
161,3,object_03,object_05,508.21,5,1,148.64,1.0,1,object_04,1,2661,0,9,9,library_23,2,memory-2step-stake-s,653,2842971,0.0-18.0-0.1-0.161,4091,5,6
162,2,object_09,object_08,389.315,3,1,22.08999998,0.7777777777777778,1,object_04,5,2696,0,7,9,forest_14,2,memory-2step-stake-s,654,2850918,0.0-18.0-0.1-0.162,4091,3,4
163,3,object_05,object_03,449.075,5,2,55.93999999,0.7777777777777778,1,object_04,1,2703,0,7,8,library_23,2,memory-2step-stake-s,655,2858895,0.0-18.0-0.1-0.163,4091,6,5
164,3,object_05,object_03,776.58,5,2,18.645,0.8888888888888888,1,object_04,1,2711,0,8,8,library_31,2,memory-2step-stake-s,656,2866934,0.0-18.0-0.1-0.164,4091,6,5
165,1,object_07,object_02,447.755,1,1,357.835,1.0,1,object_04,5,2756,0,9,6,desert_20,2,memory-2step-stake-s,657,2875418,0.0-18.0-0.1-0.165,4091,1,2
166,2,object_09,object_08,446.995,3,1,384.595,0.8888888888888888,1,object_04,5,2796,0,8,8,forest_7,2,memory-2step-stake-s,658,2883831,0.0-18.0-0.1-0.166,4091,3,4
167,4,object_01,object_06,431.74,7,2,304.855,0.8888888888888888,1,object_04,1,2804,0,8,8,restaurant_29,2,memory-2step-stake-s,659,2892167,0.0-18.0-0.1-0.167,4091,8,7
168,3,object_03,object_05,762.515,5,1,67.58,0.5555555555555556,1,object_04,1,2809,0,5,9,library_29,2,memory-2step-stake-s,660,2899958,0.0-18.0-0.1-0.168,4091,5,6
169,1,object_07,object_02,463.8,1,1,74.1,0.0,1,object_04,5,2809,0,0,9,desert_10,2,memory-2step-stake-s,661,2907249,0.0-18.0-0.1-0.169,4091,1,2
170,3,object_03,object_05,462.43,6,2,382.01,0.6666666666666666,2,object_10,1,2815,0,1,6,library_18,2,memory-2step-stake-s,662,2915451,0.0-18.0-0.1-0.170,4091,5,6
171,4,object_01,object_06,545.615,8,1,295.635,0.4444444444444444,2,object_10,1,2819,0,1,4,restaurant_11,2,memory-2step-stake-s,663,2923365,0.0-18.0-0.1-0.171,4091,8,7
172,2,object_09,object_08,463.25,3,1,237.94,0.2222222222222222,1,object_04,5,2829,0,2,2,forest_1,2,memory-2step-stake-s,664,2931020,0.0-18.0-0.1-0.172,4091,3,4
173,2,object_09,object_08,499.935,4,2,244.815,0.3333333333333333,2,object_10,1,2832,0,1,3,forest_6,2,memory-2step-stake-s,665,2938785,0.0-18.0-0.1-0.173,4091,3,4
174,3,object_05,object_03,478.485,6,1,122.53,0.3333333333333333,2,object_10,1,2835,0,1,3,library_3,2,memory-2step-stake-s,666,2946426,0.0-18.0-0.1-0.174,4091,6,5
175,3,object_03,object_05,495.875,5,1,190.485,0.4444444444444444,1,object_04,5,2855,0,4,2,library_30,2,memory-2step-stake-s,667,2954246,0.0-18.0-0.1-0.175,4091,5,6
176,3,object_05,object_03,416.405,5,2,278.97,0.1111111111111111,1,object_04,1,2856,0,1,4,library_5,2,memory-2step-stake-s,668,2961842,0.0-18.0-0.1-0.176,4091,6,5
177,2,object_08,object_09,839.245,4,1,331.36,0.1111111111111111,2,object_10,1,2857,0,4,1,forest_18,2,memory-2step-stake-s,669,2969488,0.0-18.0-0.1-0.177,4091,4,3
178,3,object_03,object_05,868.85,5,1,280.205,0.4444444444444444,1,object_04,1,2861,0,4,2,library_10,2,memory-2step-stake-s,670,2977390,0.0-18.0-0.1-0.178,4091,5,6
179,2,object_09,object_08,455.835,4,2,35.58500001,0.4444444444444444,2,object_10,1,2865,0,6,4,forest_3,2,memory-2step-stake-s,671,2985050,0.0-18.0-0.1-0.179,4091,3,4
180,1,object_07,object_02,462.95,1,1,175.39,0.5555555555555556,1,object_04,5,2890,0,5,4,desert_25,2,memory-2step-stake-s,672,2992950,0.0-18.0-0.1-0.180,4091,1,2
181,3,object_05,object_03,597.635,5,2,195.1,0.5555555555555556,1,object_04,5,2915,0,5,1,library_30,2,memory-2step-stake-s,673,3000869,0.0-18.0-0.1-0.181,4091,6,5
182,2,object_09,object_08,481.755,3,1,65.015,0.5555555555555556,1,object_04,5,2940,0,5,1,forest_28,2,memory-2step-stake-s,674,3008655,0.0-18.0-0.1-0.182,4091,3,4
183,4,object_01,object_06,418.315,7,2,59.71,0.7777777777777778,1,object_04,1,2947,0,7,3,restaurant_10,2,memory-2step-stake-s,675,3016637,0.0-18.0-0.1-0.183,4091,8,7
184,1,object_07,object_02,442.945,1,1,214.74,0.4444444444444444,1,object_04,5,2967,0,4,1,desert_27,2,memory-2step-stake-s,676,3024474,0.0-18.0-0.1-0.184,4091,1,2
185,3,object_03,object_05,455.98,5,1,221.705,0.3333333333333333,1,object_04,1,2970,0,3,1,library_18,2,memory-2step-stake-s,677,3032217,0.0-18.0-0.1-0.185,4091,5,6
186,3,object_05,object_03,449.81,6,1,217.435,0.0,2,object_10,5,2970,0,4,0,library_3,2,memory-2step-stake-s,678,3039650,0.0-18.0-0.1-0.186,4091,6,5
187,1,object_07,object_02,461.195,2,2,249.275,0.2222222222222222,2,object_10,1,2972,0,7,2,desert_4,2,memory-2step-stake-s,679,3047319,0.0-18.0-0.1-0.187,4091,1,2
188,4,object_01,object_06,830.47,8,1,284.91,0.1111111111111111,2,object_10,5,2977,0,8,1,restaurant_21,2,memory-2step-stake-s,680,3054921,0.0-18.0-0.1-0.188,4091,8,7
189,4,object_06,object_01,403.925,7,1,228.135,1.0,1,object_04,1,2986,0,9,1,restaurant_22,2,memory-2step-stake-s,681,3063278,0.0-18.0-0.1-0.189,4091,7,8
190,2,object_08,object_09,493.58,3,2,234.945,1.0,1,object_04,5,3031,0,9,0,forest_16,2,memory-2step-stake-s,682,3071639,0.0-18.0-0.1-0.190,4091,4,3
191,2,object_08,object_09,758.57,3,2,345.7,0.6666666666666666,1,object_04,5,3061,0,6,3,forest_30,2,memory-2step-stake-s,683,3079804,0.0-18.0-0.1-0.191,4091,4,3
192,2,object_08,object_09,446.745,3,2,521.065,0.6666666666666666,1,object_04,5,3091,0,6,2,forest_30,2,memory-2step-stake-s,684,3088154,0.0-18.0-0.1-0.192,4091,4,3
193,1,object_07,object_02,758.355,1,1,277.425,1.0,1,object_04,5,3136,0,9,4,desert_30,2,memory-2step-stake-s,685,3096558,0.0-18.0-0.1-0.193,4091,1,2
194,2,object_08,object_09,641.69,3,2,243.35,1.0,1,object_04,5,3181,0,9,5,forest_17,2,memory-2step-stake-s,686,3104927,0.0-18.0-0.1-0.194,4091,4,3
195,4,object_06,object_01,430.39,7,1,46.70499999,0.8888888888888888,1,object_04,1,3189,0,8,6,restaurant_30,2,memory-2step-stake-s,687,3113002,0.0-18.0-0.1-0.195,4091,7,8
196,4,object_01,object_06,728.685,7,2,302.445,1.0,1,object_04,1,3198,0,9,5,restaurant_1,2,memory-2step-stake-s,688,3121428,0.0-18.0-0.1-0.196,4091,8,7
197,1,object_02,object_07,654.225,1,2,323.135,0.7777777777777778,1,object_04,5,3233,0,7,8,desert_14,2,memory-2step-stake-s,689,3129673,0.0-18.0-0.1-0.197,4091,2,1
198,2,object_09,object_08,442.59,3,1,524.535,0.4444444444444444,1,object_04,5,3253,0,4,7,forest_18,2,memory-2step-stake-s,690,3137820,0.0-18.0-0.1-0.198,4091,3,4
199,3,object_05,object_03,424.15,5,2,56.39000001,0.1111111111111111,1,object_04,1,3254,0,1,7,library_10,2,memory-2step-stake-s,691,3145193,0.0-18.0-0.1-0.199,4091,6,5
200,1,object_02,object_07,402.285,2,1,228.085,0.8888888888888888,2,object_10,5,3294,0,3,8,desert_22,2,memory-2step-stake-s,692,3153444,0.0-18.0-0.1-0.200,4091,2,1
201,2,object_08,object_09,451.0,4,1,288.725,0.8888888888888888,2,object_10,5,3334,0,4,8,forest_29,2,memory-2step-stake-s,693,3161762,0.0-18.0-0.1-0.201,4091,4,3
202,4,object_01,object_06,475.3,8,1,221.48,0.8888888888888888,2,object_10,1,3342,0,0,8,restaurant_21,2,memory-2step-stake-s,694,3170008,0.0-18.0-0.1-0.202,4091,8,7
203,2,object_09,object_08,1017.235,4,2,316.18,0.8888888888888888,2,object_10,5,3382,0,1,8,forest_13,2,memory-2step-stake-s,695,3178352,0.0-18.0-0.1-0.203,4091,3,4
204,3,object_05,object_03,555.65,6,1,213.775,0.7777777777777778,2,object_10,1,3389,0,1,7,library_18,2,memory-2step-stake-s,696,3186490,0.0-18.0-0.1-0.204,4091,6,5
205,4,object_06,object_01,730.785,8,2,245.97,0.6666666666666666,2,object_10,1,3395,0,1,6,restaurant_28,2,memory-2step-stake-s,697,3194560,0.0-18.0-0.1-0.205,4091,7,8
206,4,object_06,object_01,610.48,8,2,272.36,0.3333333333333333,2,object_10,1,3398,0,0,3,restaurant_8,2,memory-2step-stake-s,698,3202352,0.0-18.0-0.1-0.206,4091,7,8
207,3,object_05,object_03,436.755,6,1,264.155,0.7777777777777778,2,object_10,1,3405,0,0,7,library_25,2,memory-2step-stake-s,699,3210541,0.0-18.0-0.1-0.207,4091,6,5
208,3,object_05,object_03,457.18,6,1,31.265,0.7777777777777778,2,object_10,1,3412,0,1,7,library_31,2,memory-2step-stake-s,700,3218495,0.0-18.0-0.1-0.208,4091,6,5
209,3,object_05,object_03,411.6,5,2,282.26,0.1111111111111111,1,object_04,1,3413,0,1,9,library_18,2,memory-2step-stake-s,701,3226095,0.0-18.0-0.1-0.209,4091,6,5
210,3,object_05,object_03,509.475,6,1,266.59,0.7777777777777778,2,object_10,1,3420,0,1,7,library_14,2,memory-2step-stake-s,702,3234286,0.0-18.0-0.1-0.210,4091,6,5
211,4,object_06,object_01,422.465,8,2,250.785,0.8888888888888888,2,object_10,1,3428,0,1,8,restaurant_9,2,memory-2step-stake-s,703,3242560,0.0-18.0-0.1-0.211,4091,7,8
212,3,object_05,object_03,737.84,6,1,235.05,0.6666666666666666,2,object_10,1,3434,0,0,6,library_30,2,memory-2step-stake-s,704,3250621,0.0-18.0-0.1-0.212,4091,6,5
213,1,object_07,object_02,402.17,2,2,151.63,0.8888888888888888,2,object_10,5,3474,0,1,8,desert_30,2,memory-2step-stake-s,705,3258800,0.0-18.0-0.1-0.213,4091,1,2
214,1,object_07,object_02,434.345,2,2,315.01,1.0,2,object_10,5,3519,0,1,9,desert_24,2,memory-2step-stake-s,706,3267242,0.0-18.0-0.1-0.214,4091,1,2
215,3,object_03,object_05,512.86,6,2,256.05,0.7777777777777778,2,object_10,1,3526,0,1,7,library_13,2,memory-2step-stake-s,707,3275423,0.0-18.0-0.1-0.215,4091,5,6
216,3,object_03,object_05,676.58,6,2,222.635,1.0,2,object_10,1,3535,0,2,9,library_2,2,memory-2step-stake-s,708,3283773,0.0-18.0-0.1-0.216,4091,5,6
217,3,object_03,object_05,439.35,6,2,130.505,1.0,2,object_10,1,3544,0,4,9,library_14,2,memory-2step-stake-s,709,3292033,0.0-18.0-0.1-0.217,4091,5,6
218,2,object_08,object_09,872.445,3,2,283.24,0.7777777777777778,1,object_04,5,3579,0,7,7,forest_13,2,memory-2step-stake-s,710,3300239,0.0-18.0-0.1-0.218,4091,4,3
219,3,object_03,object_05,580.635,6,2,277.03,0.8888888888888888,2,object_10,1,3587,0,7,8,library_13,2,memory-2step-stake-s,711,3308545,0.0-18.0-0.1-0.219,4091,5,6
220,4,object_01,object_06,450.87,7,2,172.515,0.8888888888888888,1,object_04,5,3627,0,8,8,restaurant_30,2,memory-2step-stake-s,712,3316742,0.0-18.0-0.1-0.220,4091,8,7
221,4,object_06,object_01,492.525,7,1,112.54,0.6666666666666666,1,object_04,1,3633,0,6,8,restaurant_26,2,memory-2step-stake-s,713,3324677,0.0-18.0-0.1-0.221,4091,7,8
222,4,object_01,object_06,399.855,7,2,173.535,0.6666666666666666,1,object_04,1,3639,0,6,8,restaurant_4,2,memory-2step-stake-s,714,3332674,0.0-18.0-0.1-0.222,4091,8,7
223,3,object_05,object_03,591.645,6,1,75.72999998,0.6666666666666666,2,object_10,1,3645,0,6,6,library_25,2,memory-2step-stake-s,715,3340578,0.0-18.0-0.1-0.223,4091,6,5
224,1,object_07,object_02,421.385,1,1,335.015,0.6666666666666666,1,object_04,5,3675,0,6,5,desert_4,2,memory-2step-stake-s,716,3348739,0.0-18.0-0.1-0.224,4091,1,2
225,2,object_08,object_09,586.47,3,2,323.16,1.0,1,object_04,5,3720,0,9,5,forest_8,2,memory-2step-stake-s,717,3357188,0.0-18.0-0.1-0.225,4091,4,3
226,2,object_08,object_09,411.17,3,2,231.68,0.8888888888888888,1,object_04,5,3760,0,8,7,forest_7,2,memory-2step-stake-s,718,3365454,0.0-18.0-0.1-0.226,4091,4,3
227,3,object_05,object_03,435.865,5,2,395.59,1.0,1,object_04,1,3769,0,9,7,library_20,2,memory-2step-stake-s,719,3373976,0.0-18.0-0.1-0.227,4091,6,5
228,4,object_06,object_01,824.02,7,1,279.45,0.4444444444444444,1,object_04,1,3773,0,4,6,restaurant_23,2,memory-2step-stake-s,720,3381874,0.0-18.0-0.1-0.228,4091,7,8
229,4,object_06,object_01,752.26,7,1,287.865,0.3333333333333333,1,object_04,5,3788,0,3,2,restaurant_4,2,memory-2step-stake-s,721,3389678,0.0-18.0-0.1-0.229,4091,7,8
230,2,object_09,object_08,431.38,4,2,467.74,0.4444444444444444,2,object_10,1,3792,0,1,4,forest_6,2,memory-2step-stake-s,722,3397767,0.0-18.0-0.1-0.230,4091,3,4
231,4,object_06,object_01,418.14,8,2,380.17,0.4444444444444444,2,object_10,1,3796,0,1,4,restaurant_14,2,memory-2step-stake-s,723,3405767,0.0-18.0-0.1-0.231,4091,7,8
232,1,object_07,object_02,412.225,2,2,98.57,0.1111111111111111,2,object_10,1,3797,0,3,1,desert_10,2,memory-2step-stake-s,724,3413185,0.0-18.0-0.1-0.232,4091,1,2
233,2,object_09,object_08,726.24,4,2,350.39,0.2222222222222222,2,object_10,5,3807,0,3,2,forest_9,2,memory-2step-stake-s,725,3420953,0.0-18.0-0.1-0.233,4091,3,4
234,2,object_09,object_08,569.925,3,1,444.445,0.3333333333333333,1,object_04,5,3822,0,3,3,forest_9,2,memory-2step-stake-s,726,3428919,0.0-18.0-0.1-0.234,4091,3,4
235,3,object_05,object_03,768.275,5,2,284.815,0.3333333333333333,1,object_04,5,3837,0,3,1,library_2,2,memory-2step-stake-s,727,3436722,0.0-18.0-0.1-0.235,4091,6,5
236,2,object_09,object_08,439.085,4,2,357.42,0.3333333333333333,2,object_10,1,3840,0,5,3,forest_3,2,memory-2step-stake-s,728,3444599,0.0-18.0-0.1-0.236,4091,3,4
237,3,object_03,object_05,396.39,6,2,57.34999999,0.0,2,object_10,1,3840,0,4,0,library_2,2,memory-2step-stake-s,729,3451871,0.0-18.0-0.1-0.237,4091,5,6
238,2,object_09,object_08,672.085,3,1,260.955,0.3333333333333333,1,object_04,5,3855,0,3,2,forest_9,2,memory-2step-stake-s,730,3459655,0.0-18.0-0.1-0.238,4091,3,4
239,4,object_06,object_01,681.425,8,2,237.535,0.5555555555555556,2,object_10,1,3860,0,3,5,restaurant_2,2,memory-2step-stake-s,731,3467614,0.0-18.0-0.1-0.239,4091,7,8
240,4,object_06,object_01,655.61,8,2,301.93,0.7777777777777778,2,object_10,5,3895,0,4,7,restaurant_29,2,memory-2step-stake-s,732,3475838,0.0-18.0-0.1-0.240,4091,7,8
241,3,object_03,object_05,531.985,6,2,123.59,0.6666666666666666,2,object_10,1,3901,0,2,6,library_26,2,memory-2step-stake-s,733,3483783,0.0-18.0-0.1-0.241,4091,5,6
242,1,object_07,object_02,758.505,2,2,292.31,1.0,2,object_10,5,3946,0,3,9,desert_24,2,memory-2step-stake-s,734,3492200,0.0-18.0-0.1-0.242,4091,1,2
243,2,object_08,object_09,535.895,3,2,253.295,0.3333333333333333,1,object_04,1,3949,0,3,8,forest_8,2,memory-2step-stake-s,735,3499973,0.0-18.0-0.1-0.243,4091,4,3
244,4,object_06,object_01,965.3,8,2,401.62,1.0,2,object_10,1,3958,0,3,9,restaurant_1,2,memory-2step-stake-s,736,3508499,0.0-18.0-0.1-0.244,4091,7,8
245,2,object_09,object_08,680.94,4,2,301.96,0.7777777777777778,2,object_10,5,3993,0,3,7,forest_28,2,memory-2step-stake-s,737,3516723,0.0-18.0-0.1-0.245,4091,3,4
246,4,object_01,object_06,868.565,8,1,295.18,0.8888888888888888,2,object_10,1,4001,0,0,8,restaurant_9,2,memory-2step-stake-s,738,3525049,0.0-18.0-0.1-0.246,4091,8,7
247,2,object_08,object_09,1018.905,4,1,250.195,0.3333333333333333,2,object_10,5,4016,0,1,3,forest_10,2,memory-2step-stake-s,739,3532818,0.0-18.0-0.1-0.247,4091,4,3
248,1,object_02,object_07,481.52,2,1,288.3,0.2222222222222222,2,object_10,5,4026,0,1,2,desert_32,2,memory-2step-stake-s,740,3540524,0.0-18.0-0.1-0.248,4091,2,1
249,4,object_06,object_01,625.55,7,1,256.685,0.3333333333333333,1,object_04,5,4041,0,3,1,restaurant_21,2,memory-2step-stake-s,741,3548303,0.0-18.0-0.1-0.249,4091,7,8
250,3,object_05,object_03,755.6,6,1,279.0,0.5555555555555556,2,object_10,1,4046,0,5,5,library_23,2,memory-2step-stake-s,742,3556302,0.0-18.0-0.1-0.250,4091,6,5
251,1,object_02,object_07,406.34,1,2,232.275,0.3333333333333333,1,object_04,5,4061,0,3,3,desert_8,2,memory-2step-stake-s,743,3564052,0.0-18.0-0.1-0.251,4091,2,1
252,1,object_07,object_02,509.285,1,1,230.035,0.1111111111111111,1,object_04,5,4066,0,1,2,desert_20,2,memory-2step-stake-s,744,3571599,0.0-18.0-0.1-0.252,4091,1,2
253,1,object_02,object_07,588.72,1,2,29.61,0.1111111111111111,1,object_04,1,4067,0,1,1,desert_5,2,memory-2step-stake-s,745,3578949,0.0-18.0-0.1-0.253,4091,2,1
254,3,object_05,object_03,1064.33,6,1,114.06,0.1111111111111111,2,object_10,1,4068,0,2,1,library_29,2,memory-2step-stake-s,746,3586387,0.0-18.0-0.1-0.254,4091,6,5
255,4,object_01,object_06,518.665,7,2,227.46,0.0,1,object_04,1,4068,0,0,1,restaurant_8,2,memory-2step-stake-s,747,3593834,0.0-18.0-0.1-0.255,4091,8,7
