,state1,stim_left,stim_right,rt_1,choice1,response1,rt_2,points,state2,stim_state2,stake,score,practice,rews1,rews2,background,high_arm,trial_type,trial_index,time_elapsed,internal_node_id,subid,stim_left_num,stim_right_num
0,4,object_10,object_02,-1.0,-1,-1,-1.0,0.0,-,,5,0,0,6,1,restaurant_9,1,memory-2step-stake-s,487,831780,0.0-18.0-0.0-0.0,606,8,7
1,2,object_03,object_05,809.01,3,2,-1.0,0.0,1,object_04,1,0,0,5,3,forest_23,1,memory-2step-stake-s,488,840300,0.0-18.0-0.0-0.1,606,4,3
2,1,object_08,object_09,-1.0,-1,-1,-1.0,0.0,-,,5,0,0,5,5,desert_31,1,memory-2step-stake-s,489,846824,0.0-18.0-0.0-0.2,606,2,1
3,4,object_02,object_10,696.99,7,1,1122.255,0.3333333333333333,1,object_04,1,3,0,3,7,restaurant_9,1,memory-2step-stake-s,490,855497,0.0-18.0-0.0-0.3,606,7,8
4,4,object_10,object_02,1084.055,7,2,1011.98,0.4444444444444444,1,object_04,5,23,0,4,9,restaurant_5,1,memory-2step-stake-s,491,864167,0.0-18.0-0.0-0.4,606,8,7
5,1,object_08,object_09,699.58,2,1,850.04,0.8888888888888888,2,object_06,1,31,0,1,8,desert_29,1,memory-2step-stake-s,492,873087,0.0-18.0-0.0-0.5,606,2,1
6,4,object_10,object_02,995.475,7,2,633.46,0.0,1,object_04,5,31,0,0,8,restaurant_12,1,memory-2step-stake-s,493,880949,0.0-18.0-0.0-0.6,606,8,7
7,1,object_09,object_08,714.395,2,2,459.67,1.0,2,object_06,5,76,0,1,9,desert_26,1,memory-2step-stake-s,494,889567,0.0-18.0-0.0-0.7,606,1,2
8,2,object_05,object_03,742.805,3,1,893.075,0.0,1,object_04,1,76,0,0,9,forest_24,1,memory-2step-stake-s,495,897693,0.0-18.0-0.0-0.8,606,3,4
9,3,object_07,object_01,1097.305,5,2,669.525,0.2222222222222222,1,object_04,5,86,0,2,6,library_26,1,memory-2step-stake-s,496,905806,0.0-18.0-0.0-0.9,606,6,5
10,4,object_10,object_02,693.395,8,1,567.255,0.7777777777777778,2,object_06,5,121,0,3,7,restaurant_25,1,memory-2step-stake-s,497,914327,0.0-18.0-0.0-0.10,606,8,7
11,1,object_08,object_09,726.515,2,1,476.35,0.7777777777777778,2,object_06,1,128,0,4,7,desert_30,1,memory-2step-stake-s,498,922767,0.0-18.0-0.0-0.11,606,2,1
12,2,object_03,object_05,824.625,4,1,704.61,0.4444444444444444,2,object_06,5,148,0,5,4,forest_18,1,memory-2step-stake-s,499,931113,0.0-18.0-0.0-0.12,606,4,3
13,2,object_05,object_03,607.46,4,2,689.415,0.3333333333333333,2,object_06,1,151,0,5,3,forest_21,1,memory-2step-stake-s,500,939347,0.0-18.0-0.0-0.13,606,3,4
14,2,object_03,object_05,705.135,4,1,784.545,0.3333333333333333,2,object_06,1,154,0,9,3,forest_13,1,memory-2step-stake-s,501,947680,0.0-18.0-0.0-0.14,606,4,3
15,4,object_02,object_10,967.285,8,2,661.77,0.3333333333333333,2,object_06,1,157,0,8,3,restaurant_5,1,memory-2step-stake-s,502,955884,0.0-18.0-0.0-0.15,606,7,8
16,2,object_03,object_05,731.665,3,2,869.765,0.4444444444444444,1,object_04,1,161,0,4,2,forest_15,1,memory-2step-stake-s,503,964393,0.0-18.0-0.0-0.16,606,4,3
17,1,object_08,object_09,1103.355,1,2,741.485,0.1111111111111111,1,object_04,1,162,0,1,1,desert_26,1,memory-2step-stake-s,504,972470,0.0-18.0-0.0-0.17,606,2,1
18,3,object_07,object_01,434.475,6,1,599.62,0.5555555555555556,2,object_06,5,187,0,2,5,library_5,1,memory-2step-stake-s,505,980814,0.0-18.0-0.0-0.18,606,6,5
19,3,object_01,object_07,379.67,6,2,393.13,0.6666666666666666,2,object_06,5,217,0,3,6,library_20,1,memory-2step-stake-s,506,989070,0.0-18.0-0.0-0.19,606,5,6
20,4,object_02,object_10,459.385,8,2,578.29,0.6666666666666666,2,object_06,5,247,0,6,6,restaurant_7,1,memory-2step-stake-s,507,997502,0.0-18.0-0.0-0.20,606,7,8
21,1,object_08,object_09,432.18,2,1,390.32,0.6666666666666666,2,object_06,1,253,0,7,6,desert_22,1,memory-2step-stake-s,508,1005749,0.0-18.0-0.0-0.21,606,2,1
22,2,object_03,object_05,507.1,3,2,570.93,0.8888888888888888,1,object_04,1,261,0,8,6,forest_15,1,memory-2step-stake-s,509,1014390,0.0-18.0-0.0-0.22,606,4,3
23,1,object_09,object_08,721.615,2,2,547.285,0.7777777777777778,2,object_06,1,268,0,5,7,desert_27,1,memory-2step-stake-s,510,1022911,0.0-18.0-0.0-0.23,606,1,2
24,4,object_02,object_10,455.4,7,1,442.985,0.3333333333333333,1,object_04,5,283,0,3,9,restaurant_19,1,memory-2step-stake-s,511,1030898,0.0-18.0-0.0-0.24,606,7,8
25,1,object_09,object_08,498.19,2,2,463.585,0.6666666666666666,2,object_06,1,289,0,7,6,desert_20,1,memory-2step-stake-s,512,1039217,0.0-18.0-0.0-0.25,606,1,2
26,1,object_09,object_08,579.69,2,2,661.365,0.4444444444444444,2,object_06,1,293,0,9,4,desert_22,1,memory-2step-stake-s,513,1047528,0.0-18.0-0.0-0.26,606,1,2
27,3,object_07,object_01,861.46,5,2,341.255,0.8888888888888888,1,object_04,5,333,0,8,3,library_1,1,memory-2step-stake-s,514,1055943,0.0-18.0-0.0-0.27,606,6,5
28,2,object_05,object_03,526.61,3,1,576.045,0.7777777777777778,1,object_04,5,368,0,7,0,forest_24,1,memory-2step-stake-s,515,1064493,0.0-18.0-0.0-0.28,606,3,4
29,1,object_08,object_09,379.74,1,2,440.71,0.8888888888888888,1,object_04,1,376,0,8,1,desert_2,1,memory-2step-stake-s,516,1072999,0.0-18.0-0.0-0.29,606,2,1
30,4,object_02,object_10,706.62,8,2,447.915,0.3333333333333333,2,object_06,5,391,0,8,3,restaurant_19,1,memory-2step-stake-s,517,1080992,0.0-18.0-0.0-0.30,606,7,8
31,2,object_03,object_05,606.695,4,1,842.44,0.4444444444444444,2,object_06,1,395,0,7,4,forest_4,1,memory-2step-stake-s,518,1089492,0.0-18.0-0.0-0.31,606,4,3
32,1,object_08,object_09,563.205,1,2,648.545,1.0,1,object_04,1,404,0,9,7,desert_2,1,memory-2step-stake-s,519,1098308,0.0-18.0-0.0-0.32,606,2,1
33,4,object_10,object_02,614.88,7,2,490.345,0.8888888888888888,1,object_04,5,444,0,8,9,restaurant_29,1,memory-2step-stake-s,520,1106862,0.0-18.0-0.0-0.33,606,8,7
34,4,object_02,object_10,496.04,8,2,353.925,0.7777777777777778,2,object_06,5,479,0,7,7,restaurant_31,1,memory-2step-stake-s,521,1115174,0.0-18.0-0.0-0.34,606,7,8
35,4,object_10,object_02,388.91,8,1,702.87,0.5555555555555556,2,object_06,5,504,0,7,5,restaurant_12,1,memory-2step-stake-s,522,1123639,0.0-18.0-0.0-0.35,606,8,7
36,3,object_07,object_01,642.37,5,2,692.28,1.0,1,object_04,5,549,0,9,4,library_16,1,memory-2step-stake-s,523,1132496,0.0-18.0-0.0-0.36,606,6,5
37,2,object_03,object_05,1002.665,3,2,719.015,0.7777777777777778,1,object_04,1,556,0,7,2,forest_29,1,memory-2step-stake-s,524,1141170,0.0-18.0-0.0-0.37,606,4,3
38,4,object_10,object_02,767.825,8,1,785.285,0.2222222222222222,2,object_06,1,558,0,9,2,restaurant_20,1,memory-2step-stake-s,525,1149397,0.0-18.0-0.0-0.38,606,8,7
39,3,object_01,object_07,639.695,6,2,511.14,0.1111111111111111,2,object_06,5,563,0,7,1,library_7,1,memory-2step-stake-s,526,1157245,0.0-18.0-0.0-0.39,606,5,6
40,4,object_02,object_10,651.875,8,2,660.2,0.1111111111111111,2,object_06,1,564,0,7,1,restaurant_3,1,memory-2step-stake-s,527,1165243,0.0-18.0-0.0-0.40,606,7,8
41,4,object_10,object_02,866.915,7,2,698.86,0.6666666666666666,1,object_04,5,594,0,6,1,restaurant_19,1,memory-2step-stake-s,528,1173804,0.0-18.0-0.0-0.41,606,8,7
42,3,object_01,object_07,962.085,5,1,783.075,0.8888888888888888,1,object_04,5,634,0,8,0,library_27,1,memory-2step-stake-s,529,1182677,0.0-18.0-0.0-0.42,606,5,6
43,2,object_05,object_03,707.735,4,2,924.85,0.3333333333333333,2,object_06,1,637,0,7,3,forest_29,1,memory-2step-stake-s,530,1191142,0.0-18.0-0.0-0.43,606,3,4
44,3,object_07,object_01,826.945,5,2,700.685,0.7777777777777778,1,object_04,5,672,0,7,2,library_13,1,memory-2step-stake-s,531,1199812,0.0-18.0-0.0-0.44,606,6,5
45,1,object_09,object_08,713.24,2,2,898.215,0.4444444444444444,2,object_06,5,692,0,5,4,desert_9,1,memory-2step-stake-s,532,1208357,0.0-18.0-0.0-0.45,606,1,2
46,3,object_07,object_01,775.235,5,2,778.14,0.3333333333333333,1,object_04,5,707,0,3,1,library_17,1,memory-2step-stake-s,533,1216678,0.0-18.0-0.0-0.46,606,6,5
47,1,object_08,object_09,956.46,2,1,738.08,0.1111111111111111,2,object_06,5,712,0,5,1,desert_2,1,memory-2step-stake-s,534,1224758,0.0-18.0-0.0-0.47,606,2,1
48,2,object_05,object_03,623.505,4,2,1433.45,0.0,2,object_06,5,712,0,4,0,forest_18,1,memory-2step-stake-s,535,1233422,0.0-18.0-0.0-0.48,606,3,4
49,3,object_07,object_01,975.845,5,2,821.47,0.4444444444444444,1,object_04,5,732,0,4,3,library_30,1,memory-2step-stake-s,536,1241887,0.0-18.0-0.0-0.49,606,6,5
50,1,object_08,object_09,1094.39,1,2,-1.0,0.0,1,object_04,1,732,0,3,5,desert_9,1,memory-2step-stake-s,537,1250420,0.0-18.0-0.0-0.50,606,2,1
51,3,object_01,object_07,933.115,5,1,765.09,0.4444444444444444,1,object_04,5,752,0,4,7,library_21,1,memory-2step-stake-s,538,1258829,0.0-18.0-0.0-0.51,606,5,6
52,1,object_08,object_09,675.48,1,2,401.485,0.6666666666666666,1,object_04,1,758,0,6,7,desert_27,1,memory-2step-stake-s,539,1267081,0.0-18.0-0.0-0.52,606,2,1
53,1,object_09,object_08,790.7,2,2,791.23,0.6666666666666666,2,object_06,1,764,0,6,6,desert_20,1,memory-2step-stake-s,540,1275723,0.0-18.0-0.0-0.53,606,1,2
54,1,object_08,object_09,570.795,2,1,925.435,0.8888888888888888,2,object_06,1,772,0,8,8,desert_4,1,memory-2step-stake-s,541,1284702,0.0-18.0-0.0-0.54,606,2,1
55,1,object_08,object_09,505.945,2,1,775.245,0.6666666666666666,2,object_06,5,802,0,9,6,desert_11,1,memory-2step-stake-s,542,1293324,0.0-18.0-0.0-0.55,606,2,1
56,4,object_10,object_02,783.255,7,2,680.615,0.7777777777777778,1,object_04,5,837,0,7,7,restaurant_15,1,memory-2step-stake-s,543,1301962,0.0-18.0-0.0-0.56,606,8,7
57,3,object_01,object_07,602.1,5,1,415.495,0.8888888888888888,1,object_04,5,877,0,8,4,library_30,1,memory-2step-stake-s,544,1310440,0.0-18.0-0.0-0.57,606,5,6
58,1,object_09,object_08,409.24,2,2,640.975,0.7777777777777778,2,object_06,5,912,0,7,7,desert_4,1,memory-2step-stake-s,545,1319046,0.0-18.0-0.0-0.58,606,1,2
59,3,object_07,object_01,418.39,6,1,591.97,1.0,2,object_06,5,957,0,7,9,library_16,1,memory-2step-stake-s,546,1327811,0.0-18.0-0.0-0.59,606,6,5
60,1,object_09,object_08,668.53,2,2,884.08,0.7777777777777778,2,object_06,1,964,0,5,7,desert_31,1,memory-2step-stake-s,547,1336654,0.0-18.0-0.0-0.60,606,1,2
61,2,object_03,object_05,696.595,3,2,692.725,0.2222222222222222,1,object_04,1,966,0,2,9,forest_18,1,memory-2step-stake-s,548,1344793,0.0-18.0-0.0-0.61,606,4,3
62,2,object_05,object_03,959.395,4,2,617.37,0.6666666666666666,2,object_06,1,972,0,1,6,forest_2,1,memory-2step-stake-s,549,1353267,0.0-18.0-0.0-0.62,606,3,4
63,2,object_03,object_05,708.405,3,2,537.915,0.0,1,object_04,1,972,0,0,7,forest_4,1,memory-2step-stake-s,550,1361030,0.0-18.0-0.0-0.63,606,4,3
64,3,object_07,object_01,906.345,5,2,491.67,0.0,1,object_04,5,972,0,0,7,library_5,1,memory-2step-stake-s,551,1368748,0.0-18.0-0.0-0.64,606,6,5
65,4,object_02,object_10,1018.95,8,2,555.38,0.8888888888888888,2,object_06,5,1012,0,1,8,restaurant_11,1,memory-2step-stake-s,552,1377369,0.0-18.0-0.0-0.65,606,7,8
66,4,object_10,object_02,752.09,7,2,575.735,0.1111111111111111,1,object_04,1,1013,0,1,8,restaurant_3,1,memory-2step-stake-s,553,1385277,0.0-18.0-0.0-0.66,606,8,7
67,2,object_03,object_05,1155.445,3,2,542.535,0.6666666666666666,1,object_04,1,1019,0,6,9,forest_16,1,memory-2step-stake-s,554,1393682,0.0-18.0-0.0-0.67,606,4,3
68,3,object_01,object_07,1305.155,6,2,1106.525,1.0,2,object_06,5,1064,0,5,9,library_27,1,memory-2step-stake-s,555,1402952,0.0-18.0-0.0-0.68,606,5,6
69,2,object_05,object_03,777.095,3,1,562.285,0.2222222222222222,1,object_04,1,1066,0,2,6,forest_4,1,memory-2step-stake-s,556,1410954,0.0-18.0-0.0-0.69,606,3,4
70,2,object_03,object_05,603.635,3,2,393.05,0.2222222222222222,1,object_04,1,1068,0,2,4,forest_21,1,memory-2step-stake-s,557,1418792,0.0-18.0-0.0-0.70,606,4,3
71,2,object_03,object_05,475.22,3,2,399.105,0.2222222222222222,1,object_04,1,1070,0,2,4,forest_29,1,memory-2step-stake-s,558,1426628,0.0-18.0-0.0-0.71,606,4,3
72,4,object_02,object_10,946.52,8,2,614.175,0.5555555555555556,2,object_06,5,1095,0,1,5,restaurant_20,1,memory-2step-stake-s,559,1434997,0.0-18.0-0.0-0.72,606,7,8
73,1,object_09,object_08,957.465,1,1,701.41,0.3333333333333333,1,object_04,1,1098,0,3,4,desert_8,1,memory-2step-stake-s,560,1443239,0.0-18.0-0.0-0.73,606,1,2
74,4,object_02,object_10,741.17,7,1,387.75,0.4444444444444444,1,object_04,5,1118,0,4,5,restaurant_7,1,memory-2step-stake-s,561,1451283,0.0-18.0-0.0-0.74,606,7,8
75,1,object_08,object_09,1091.12,1,2,566.555,0.4444444444444444,1,object_04,1,1122,0,4,3,desert_22,1,memory-2step-stake-s,562,1459494,0.0-18.0-0.0-0.75,606,2,1
76,2,object_03,object_05,684.215,4,1,618.25,0.5555555555555556,2,object_06,1,1127,0,5,5,forest_26,1,memory-2step-stake-s,563,1467872,0.0-18.0-0.0-0.76,606,4,3
77,4,object_02,object_10,877.25,8,2,624.515,0.7777777777777778,2,object_06,1,1134,0,0,7,restaurant_8,1,memory-2step-stake-s,564,1476440,0.0-18.0-0.0-0.77,606,7,8
78,2,object_05,object_03,594.27,3,1,425.89,0.0,1,object_04,1,1134,0,0,9,forest_3,1,memory-2step-stake-s,565,1484105,0.0-18.0-0.0-0.78,606,3,4
79,4,object_02,object_10,869.065,8,2,429.585,0.7777777777777778,2,object_06,1,1141,0,3,7,restaurant_27,1,memory-2step-stake-s,566,1492493,0.0-18.0-0.0-0.79,606,7,8
80,2,object_05,object_03,672.995,3,1,520.195,0.2222222222222222,1,object_04,1,1143,0,2,6,forest_25,1,memory-2step-stake-s,567,1500451,0.0-18.0-0.0-0.80,606,3,4
81,2,object_05,object_03,443.625,3,1,362.235,0.1111111111111111,1,object_04,1,1144,0,1,5,forest_9,1,memory-2step-stake-s,568,1508154,0.0-18.0-0.0-0.81,606,3,4
82,4,object_02,object_10,647.455,8,2,565.715,0.4444444444444444,2,object_06,1,1148,0,4,4,restaurant_8,1,memory-2step-stake-s,569,1516377,0.0-18.0-0.0-0.82,606,7,8
83,2,object_05,object_03,482.32,3,1,366.8,0.7777777777777778,1,object_04,1,1155,0,7,5,forest_13,1,memory-2step-stake-s,570,1524709,0.0-18.0-0.0-0.83,606,3,4
84,3,object_01,object_07,987.185,6,2,572.225,0.4444444444444444,2,object_06,5,1175,0,7,4,library_21,1,memory-2step-stake-s,571,1532923,0.0-18.0-0.0-0.84,606,5,6
85,2,object_05,object_03,673.12,3,1,312.185,0.3333333333333333,1,object_04,1,1178,0,3,4,forest_25,1,memory-2step-stake-s,572,1540770,0.0-18.0-0.0-0.85,606,3,4
86,1,object_08,object_09,614.95,1,2,675.605,0.3333333333333333,1,object_04,1,1181,0,3,3,desert_20,1,memory-2step-stake-s,573,1548999,0.0-18.0-0.0-0.86,606,2,1
87,4,object_02,object_10,552.155,7,1,467.715,0.2222222222222222,1,object_04,5,1191,0,2,3,restaurant_20,1,memory-2step-stake-s,574,1556902,0.0-18.0-0.0-0.87,606,7,8
88,2,object_05,object_03,643.965,3,1,-1.0,0.0,1,object_04,1,1191,0,6,0,forest_2,1,memory-2step-stake-s,575,1565437,0.0-18.0-0.0-0.88,606,3,4
89,3,object_07,object_01,1010.195,6,1,503.265,0.0,2,object_06,1,1191,0,6,0,library_11,1,memory-2step-stake-s,576,1573177,0.0-18.0-0.0-0.89,606,6,5
90,2,object_03,object_05,673.545,3,2,381.225,0.5555555555555556,1,object_04,1,1196,0,5,1,forest_13,1,memory-2step-stake-s,577,1581299,0.0-18.0-0.0-0.90,606,4,3
91,4,object_10,object_02,1142.0,8,1,739.215,0.4444444444444444,2,object_06,5,1216,0,1,4,restaurant_8,1,memory-2step-stake-s,578,1589683,0.0-18.0-0.0-0.91,606,8,7
92,2,object_03,object_05,962.215,3,2,480.355,0.1111111111111111,1,object_04,1,1217,0,1,4,forest_31,1,memory-2step-stake-s,579,1597500,0.0-18.0-0.0-0.92,606,4,3
93,3,object_01,object_07,841.43,5,1,727.015,0.0,1,object_04,5,1217,0,0,5,library_28,1,memory-2step-stake-s,580,1605447,0.0-18.0-0.0-0.93,606,5,6
94,4,object_10,object_02,1095.135,7,2,836.59,0.1111111111111111,1,object_04,5,1222,0,1,7,restaurant_9,1,memory-2step-stake-s,581,1613625,0.0-18.0-0.0-0.94,606,8,7
95,1,object_08,object_09,915.085,2,1,665.475,0.6666666666666666,2,object_06,1,1228,0,3,6,desert_30,1,memory-2step-stake-s,582,1622140,0.0-18.0-0.0-0.95,606,2,1
96,3,object_01,object_07,1388.965,6,2,757.555,0.7777777777777778,2,object_06,5,1263,0,3,7,library_28,1,memory-2step-stake-s,583,1630853,0.0-18.0-0.0-0.96,606,5,6
97,2,object_03,object_05,929.495,4,1,503.735,0.8888888888888888,2,object_06,5,1303,0,2,8,forest_21,1,memory-2step-stake-s,584,1639419,0.0-18.0-0.0-0.97,606,4,3
98,2,object_03,object_05,824.755,4,1,394.665,0.6666666666666666,2,object_06,5,1333,0,1,6,forest_26,1,memory-2step-stake-s,585,1647670,0.0-18.0-0.0-0.98,606,4,3
99,1,object_08,object_09,1365.99,2,1,823.295,0.2222222222222222,2,object_06,1,1335,0,2,2,desert_8,1,memory-2step-stake-s,586,1655937,0.0-18.0-0.0-0.99,606,2,1
100,4,object_10,object_02,604.745,7,2,580.72,0.0,1,object_04,5,1335,0,0,3,restaurant_5,1,memory-2step-stake-s,587,1663747,0.0-18.0-0.0-0.100,606,8,7
101,4,object_10,object_02,941.945,8,1,624.26,0.4444444444444444,2,object_06,5,1355,0,1,4,restaurant_3,1,memory-2step-stake-s,588,1672019,0.0-18.0-0.0-0.101,606,8,7
102,3,object_07,object_01,-1.0,-1,-1,-1.0,0.0,-,,1,1355,0,2,3,library_11,1,memory-2step-stake-s,589,1678541,0.0-18.0-0.0-0.102,606,6,5
103,3,object_01,object_07,703.6,6,2,677.735,0.1111111111111111,2,object_06,5,1360,0,4,1,library_17,1,memory-2step-stake-s,590,1686560,0.0-18.0-0.0-0.103,606,5,6
104,1,object_08,object_09,564.33,2,1,537.8,0.4444444444444444,2,object_06,1,1364,0,6,4,desert_2,1,memory-2step-stake-s,591,1694758,0.0-18.0-0.0-0.104,606,2,1
105,2,object_03,object_05,572.38,3,2,703.96,0.2222222222222222,1,object_04,5,1374,0,2,5,forest_21,1,memory-2step-stake-s,592,1702902,0.0-18.0-0.0-0.105,606,4,3
106,1,object_09,object_08,625.375,1,1,455.12,0.1111111111111111,1,object_04,1,1375,0,1,4,desert_13,1,memory-2step-stake-s,593,1710698,0.0-18.0-0.0-0.106,606,1,2
107,3,object_01,object_07,-1.0,-1,-1,-1.0,0.0,-,,5,1375,0,0,2,library_17,1,memory-2step-stake-s,594,1717225,0.0-18.0-0.0-0.107,606,5,6
108,3,object_01,object_07,412.31,6,2,525.645,0.1111111111111111,2,object_06,5,1380,0,1,1,library_8,1,memory-2step-stake-s,595,1725087,0.0-18.0-0.0-0.108,606,5,6
109,4,object_10,object_02,518.535,8,1,779.23,0.2222222222222222,2,object_06,5,1390,0,3,2,restaurant_27,1,memory-2step-stake-s,596,1733306,0.0-18.0-0.0-0.109,606,8,7
110,3,object_01,object_07,1109.65,5,1,782.52,0.4444444444444444,1,object_04,1,1394,0,4,3,library_16,1,memory-2step-stake-s,597,1741737,0.0-18.0-0.0-0.110,606,5,6
111,1,object_08,object_09,591.45,1,2,363.855,0.2222222222222222,1,object_04,1,1396,0,2,8,desert_23,1,memory-2step-stake-s,598,1749537,0.0-18.0-0.0-0.111,606,2,1
112,3,object_07,object_01,903.845,5,2,622.165,0.5555555555555556,1,object_04,5,1421,0,5,6,library_13,1,memory-2step-stake-s,599,1757906,0.0-18.0-0.0-0.112,606,6,5
113,4,object_02,object_10,945.155,8,2,607.615,0.4444444444444444,2,object_06,5,1441,0,5,4,restaurant_14,1,memory-2step-stake-s,600,1766171,0.0-18.0-0.0-0.113,606,7,8
114,2,object_03,object_05,618.665,3,2,807.67,0.8888888888888888,1,object_04,1,1449,0,8,6,forest_9,1,memory-2step-stake-s,601,1775044,0.0-18.0-0.0-0.114,606,4,3
115,4,object_02,object_10,878.84,7,1,745.765,0.5555555555555556,1,object_04,1,1454,0,5,5,restaurant_14,1,memory-2step-stake-s,602,1783549,0.0-18.0-0.0-0.115,606,7,8
116,4,object_02,object_10,696.545,7,1,636.785,0.6666666666666666,1,object_04,5,1484,0,6,4,restaurant_15,1,memory-2step-stake-s,603,1792038,0.0-18.0-0.0-0.116,606,7,8
117,3,object_01,object_07,445.19,6,2,539.775,0.3333333333333333,2,object_06,5,1499,0,3,3,library_20,1,memory-2step-stake-s,604,1800134,0.0-18.0-0.0-0.117,606,5,6
118,3,object_07,object_01,569.03,6,1,583.49,0.0,2,object_06,5,1499,0,6,0,library_2,1,memory-2step-stake-s,605,1807951,0.0-18.0-0.0-0.118,606,6,5
119,4,object_02,object_10,553.155,8,2,473.425,0.1111111111111111,2,object_06,5,1504,0,5,1,restaurant_12,1,memory-2step-stake-s,606,1815761,0.0-18.0-0.0-0.119,606,7,8
120,3,object_01,object_07,486.475,6,2,424.715,0.1111111111111111,2,object_06,1,1505,0,3,1,library_13,1,memory-2step-stake-s,607,1823526,0.0-18.0-0.0-0.120,606,5,6
121,1,object_09,object_08,814.47,2,2,433.49,0.0,2,object_06,1,1505,0,3,0,desert_23,1,memory-2step-stake-s,608,1831195,0.0-18.0-0.0-0.121,606,1,2
122,1,object_08,object_09,825.785,1,2,538.02,0.5555555555555556,1,object_04,1,1510,0,5,2,desert_3,1,memory-2step-stake-s,609,1839496,0.0-18.0-0.0-0.122,606,2,1
123,2,object_05,object_03,688.025,4,2,513.115,0.2222222222222222,2,object_06,1,1512,0,7,2,forest_13,1,memory-2step-stake-s,610,1847455,0.0-18.0-0.0-0.123,606,3,4
124,1,object_09,object_08,786.29,2,2,383.275,0.2222222222222222,2,object_06,1,1514,0,6,2,desert_4,1,memory-2step-stake-s,611,1855277,0.0-18.0-0.0-0.124,606,1,2
125,3,object_01,object_07,747.76,5,1,618.55,0.7777777777777778,1,object_04,5,1549,0,7,3,library_11,1,memory-2step-stake-s,612,1863863,0.0-18.0-0.0-0.125,606,5,6
126,1,object_08,object_09,476.62,1,2,466.44,0.6666666666666666,1,object_04,1,1555,0,6,4,desert_26,1,memory-2step-stake-s,613,1872198,0.0-18.0-0.0-0.126,606,2,1
127,1,object_08,object_09,850.745,2,1,641.09,0.3333333333333333,2,object_06,1,1558,0,6,3,desert_27,1,memory-2step-stake-s,614,1880392,0.0-18.0-0.0-0.127,606,2,1
128,3,object_07,object_01,-1.0,-1,-1,-1.0,0.0,-,,5,1558,0,6,4,library_28,1,memory-2step-stake-s,616,2010328,0.0-18.0-0.1-0.128,606,6,5
129,1,object_08,object_09,379.775,1,2,378.66,0.7777777777777778,1,object_04,1,1565,0,7,5,desert_22,1,memory-2step-stake-s,617,2018662,0.0-18.0-0.1-0.129,606,2,1
130,2,object_05,object_03,473.215,3,1,286.66,0.7777777777777778,1,object_04,5,1600,0,7,6,forest_2,1,memory-2step-stake-s,618,2026902,0.0-18.0-0.1-0.130,606,3,4
131,2,object_03,object_05,491.34,3,2,277.06,0.7777777777777778,1,object_04,1,1607,0,7,9,forest_9,1,memory-2step-stake-s,619,2035134,0.0-18.0-0.1-0.131,606,4,3
132,1,object_09,object_08,658.495,1,1,577.63,0.5555555555555556,1,object_04,1,1612,0,5,7,desert_30,1,memory-2step-stake-s,620,2043461,0.0-18.0-0.1-0.132,606,1,2
133,3,object_01,object_07,895.05,5,1,376.64,0.5555555555555556,1,object_04,5,1637,0,5,6,library_26,1,memory-2step-stake-s,621,2051580,0.0-18.0-0.1-0.133,606,5,6
134,3,object_01,object_07,751.74,6,2,912.36,0.7777777777777778,2,object_06,5,1672,0,5,7,library_11,1,memory-2step-stake-s,622,2060460,0.0-18.0-0.1-0.134,606,5,6
135,2,object_03,object_05,489.055,4,1,583.81,0.5555555555555556,2,object_06,1,1677,0,8,5,forest_29,1,memory-2step-stake-s,623,2068784,0.0-18.0-0.1-0.135,606,4,3
136,3,object_01,object_07,404.28,6,2,318.24,0.4444444444444444,2,object_06,5,1697,0,7,4,library_16,1,memory-2step-stake-s,624,2076745,0.0-18.0-0.1-0.136,606,5,6
137,2,object_05,object_03,743.555,4,2,341.285,0.5555555555555556,2,object_06,1,1702,0,9,5,forest_16,1,memory-2step-stake-s,625,2084844,0.0-18.0-0.1-0.137,606,3,4
138,4,object_10,object_02,793.94,7,2,265.09,0.7777777777777778,1,object_04,5,1737,0,7,5,restaurant_11,1,memory-2step-stake-s,626,2093075,0.0-18.0-0.1-0.138,606,8,7
139,3,object_01,object_07,1192.44,5,1,414.165,0.8888888888888888,1,object_04,5,1777,0,8,5,library_30,1,memory-2step-stake-s,627,2101552,0.0-18.0-0.1-0.139,606,5,6
140,2,object_05,object_03,446.875,4,2,395.75,0.3333333333333333,2,object_06,1,1780,0,6,3,forest_26,1,memory-2step-stake-s,628,2109489,0.0-18.0-0.1-0.140,606,3,4
141,3,object_01,object_07,810.845,5,1,323.65,0.6666666666666666,1,object_04,5,1810,0,6,3,library_1,1,memory-2step-stake-s,629,2117676,0.0-18.0-0.1-0.141,606,5,6
142,2,object_03,object_05,610.845,3,2,393.725,1.0,1,object_04,1,1819,0,9,3,forest_27,1,memory-2step-stake-s,630,2126243,0.0-18.0-0.1-0.142,606,4,3
143,4,object_10,object_02,717.9,7,2,400.13,1.0,1,object_04,5,1864,0,9,1,restaurant_15,1,memory-2step-stake-s,631,2134821,0.0-18.0-0.1-0.143,606,8,7
144,1,object_09,object_08,992.64,1,1,492.205,0.7777777777777778,1,object_04,1,1871,0,7,3,desert_8,1,memory-2step-stake-s,632,2143272,0.0-18.0-0.1-0.144,606,1,2
145,4,object_10,object_02,618.725,7,2,412.805,0.6666666666666666,1,object_04,5,1901,0,6,1,restaurant_5,1,memory-2step-stake-s,633,2151545,0.0-18.0-0.1-0.145,606,8,7
146,4,object_10,object_02,559.75,7,2,312.935,0.5555555555555556,1,object_04,5,1926,0,5,3,restaurant_31,1,memory-2step-stake-s,634,2159616,0.0-18.0-0.1-0.146,606,8,7
147,2,object_05,object_03,723.115,4,2,400.36,0.0,2,object_06,1,1926,0,3,0,forest_2,1,memory-2step-stake-s,635,2167232,0.0-18.0-0.1-0.147,606,3,4
148,1,object_08,object_09,1164.855,2,1,768.49,0.3333333333333333,2,object_06,1,1929,0,1,3,desert_23,1,memory-2step-stake-s,636,2175547,0.0-18.0-0.1-0.148,606,2,1
149,3,object_07,object_01,849.16,6,1,468.18,0.3333333333333333,2,object_06,5,1944,0,1,3,library_17,1,memory-2step-stake-s,637,2183569,0.0-18.0-0.1-0.149,606,6,5
150,4,object_10,object_02,445.395,7,2,356.35,0.2222222222222222,1,object_04,5,1954,0,2,4,restaurant_25,1,memory-2step-stake-s,638,2191363,0.0-18.0-0.1-0.150,606,8,7
151,2,object_03,object_05,521.59,3,2,347.63,0.1111111111111111,1,object_04,1,1955,0,1,1,forest_31,1,memory-2step-stake-s,639,2199039,0.0-18.0-0.1-0.151,606,4,3
152,4,object_02,object_10,900.57,8,2,525.955,0.0,2,object_06,5,1955,0,1,0,restaurant_8,1,memory-2step-stake-s,640,2206794,0.0-18.0-0.1-0.152,606,7,8
153,4,object_10,object_02,762.71,7,2,345.39,0.5555555555555556,1,object_04,1,1960,0,5,4,restaurant_11,1,memory-2step-stake-s,641,2214886,0.0-18.0-0.1-0.153,606,8,7
154,1,object_08,object_09,1272.24,2,1,436.16,0.4444444444444444,2,object_06,1,1964,0,8,4,desert_15,1,memory-2step-stake-s,642,2222968,0.0-18.0-0.1-0.154,606,2,1
155,4,object_02,object_10,537.545,7,1,340.2,0.7777777777777778,1,object_04,5,1999,0,7,3,restaurant_12,1,memory-2step-stake-s,643,2231269,0.0-18.0-0.1-0.155,606,7,8
156,4,object_10,object_02,536.955,7,2,691.93,0.7777777777777778,1,object_04,5,2034,0,7,0,restaurant_3,1,memory-2step-stake-s,644,2239913,0.0-18.0-0.1-0.156,606,8,7
157,4,object_02,object_10,473.08,7,1,486.82,0.7777777777777778,1,object_04,5,2069,0,7,2,restaurant_27,1,memory-2step-stake-s,645,2248358,0.0-18.0-0.1-0.157,606,7,8
158,2,object_03,object_05,870.99,4,1,405.12,0.1111111111111111,2,object_06,1,2070,0,6,1,forest_3,1,memory-2step-stake-s,646,2256103,0.0-18.0-0.1-0.158,606,4,3
159,1,object_09,object_08,-1.0,-1,-1,-1.0,0.0,-,,1,2070,0,8,1,desert_31,1,memory-2step-stake-s,647,2262625,0.0-18.0-0.1-0.159,606,1,2
160,1,object_08,object_09,962.02,1,2,555.2,0.7777777777777778,1,object_04,5,2105,0,7,1,desert_13,1,memory-2step-stake-s,648,2271142,0.0-18.0-0.1-0.160,606,2,1
161,3,object_01,object_07,664.925,5,1,659.175,0.8888888888888888,1,object_04,5,2145,0,8,1,library_2,1,memory-2step-stake-s,649,2279871,0.0-18.0-0.1-0.161,606,5,6
162,4,object_10,object_02,503.735,7,2,364.94,0.5555555555555556,1,object_04,5,2170,0,5,3,restaurant_31,1,memory-2step-stake-s,650,2287985,0.0-18.0-0.1-0.162,606,8,7
163,2,object_03,object_05,601.98,4,1,716.115,0.3333333333333333,2,object_06,1,2173,0,3,3,forest_31,1,memory-2step-stake-s,651,2296260,0.0-18.0-0.1-0.163,606,4,3
164,3,object_01,object_07,735.195,5,1,337.535,0.2222222222222222,1,object_04,1,2175,0,2,3,library_1,1,memory-2step-stake-s,652,2304035,0.0-18.0-0.1-0.164,606,5,6
165,4,object_02,object_10,511.96,8,2,446.185,0.2222222222222222,2,object_06,5,2185,0,3,2,restaurant_28,1,memory-2step-stake-s,653,2311926,0.0-18.0-0.1-0.165,606,7,8
166,1,object_08,object_09,592.61,1,2,393.06,0.3333333333333333,1,object_04,1,2188,0,3,2,desert_26,1,memory-2step-stake-s,654,2319861,0.0-18.0-0.1-0.166,606,2,1
167,1,object_08,object_09,937.69,2,1,383.61,0.4444444444444444,2,object_06,1,2192,0,2,4,desert_27,1,memory-2step-stake-s,655,2327899,0.0-18.0-0.1-0.167,606,2,1
168,2,object_03,object_05,929.245,3,2,370.61,0.2222222222222222,1,object_04,1,2194,0,2,4,forest_15,1,memory-2step-stake-s,656,2335703,0.0-18.0-0.1-0.168,606,4,3
169,1,object_08,object_09,1059.49,1,2,487.055,0.2222222222222222,1,object_04,1,2196,0,2,6,desert_9,1,memory-2step-stake-s,657,2343630,0.0-18.0-0.1-0.169,606,2,1
170,2,object_03,object_05,531.54,3,2,379.76,0.5555555555555556,1,object_04,1,2201,0,5,5,forest_27,1,memory-2step-stake-s,658,2351761,0.0-18.0-0.1-0.170,606,4,3
171,1,object_09,object_08,1055.475,2,2,562.0,0.5555555555555556,2,object_06,1,2206,0,6,5,desert_15,1,memory-2step-stake-s,659,2360072,0.0-18.0-0.1-0.171,606,1,2
172,4,object_02,object_10,736.86,7,1,1036.52,0.2222222222222222,1,object_04,5,2216,0,2,5,restaurant_20,1,memory-2step-stake-s,660,2368553,0.0-18.0-0.1-0.172,606,7,8
173,3,object_01,object_07,912.46,5,1,640.985,0.1111111111111111,1,object_04,1,2217,0,1,7,library_8,1,memory-2step-stake-s,661,2376529,0.0-18.0-0.1-0.173,606,5,6
174,2,object_03,object_05,498.29,3,2,356.455,0.0,1,object_04,1,2217,0,0,6,forest_3,1,memory-2step-stake-s,662,2384120,0.0-18.0-0.1-0.174,606,4,3
175,3,object_07,object_01,824.84,5,2,343.73,0.0,1,object_04,1,2217,0,0,7,library_7,1,memory-2step-stake-s,663,2391697,0.0-18.0-0.1-0.175,606,6,5
176,3,object_07,object_01,1234.825,6,1,407.555,0.6666666666666666,2,object_06,5,2247,0,2,6,library_8,1,memory-2step-stake-s,664,2399951,0.0-18.0-0.1-0.176,606,6,5
177,4,object_10,object_02,598.82,7,2,511.32,0.2222222222222222,1,object_04,1,2249,0,2,6,restaurant_29,1,memory-2step-stake-s,665,2407900,0.0-18.0-0.1-0.177,606,8,7
178,4,object_02,object_10,668.305,7,1,399.07,0.2222222222222222,1,object_04,5,2259,0,2,5,restaurant_15,1,memory-2step-stake-s,666,2415746,0.0-18.0-0.1-0.178,606,7,8
179,4,object_02,object_10,618.425,8,2,325.1,0.6666666666666666,2,object_06,5,2289,0,5,6,restaurant_27,1,memory-2step-stake-s,667,2423918,0.0-18.0-0.1-0.179,606,7,8
180,1,object_08,object_09,566.365,2,1,593.565,0.5555555555555556,2,object_06,1,2294,0,4,5,desert_3,1,memory-2step-stake-s,668,2432272,0.0-18.0-0.1-0.180,606,2,1
181,1,object_08,object_09,690.12,1,2,566.1,0.5555555555555556,1,object_04,1,2299,0,5,6,desert_11,1,memory-2step-stake-s,669,2440588,0.0-18.0-0.1-0.181,606,2,1
182,3,object_01,object_07,894.65,5,1,644.325,0.6666666666666666,1,object_04,5,2329,0,6,9,library_27,1,memory-2step-stake-s,670,2449085,0.0-18.0-0.1-0.182,606,5,6
183,4,object_02,object_10,765.74,8,2,370.485,0.7777777777777778,2,object_06,1,2336,0,7,7,restaurant_7,1,memory-2step-stake-s,671,2457423,0.0-18.0-0.1-0.183,606,7,8
184,1,object_09,object_08,776.78,1,1,284.345,0.7777777777777778,1,object_04,1,2343,0,7,9,desert_11,1,memory-2step-stake-s,672,2465676,0.0-18.0-0.1-0.184,606,1,2
185,3,object_07,object_01,662.22,5,2,370.725,0.8888888888888888,1,object_04,5,2383,0,8,8,library_7,1,memory-2step-stake-s,673,2474103,0.0-18.0-0.1-0.185,606,6,5
186,4,object_02,object_10,820.88,7,1,809.365,0.6666666666666666,1,object_04,5,2413,0,6,8,restaurant_11,1,memory-2step-stake-s,674,2482763,0.0-18.0-0.1-0.186,606,7,8
187,1,object_08,object_09,466.78,1,2,438.245,0.5555555555555556,1,object_04,1,2418,0,5,5,desert_9,1,memory-2step-stake-s,675,2490952,0.0-18.0-0.1-0.187,606,2,1
188,2,object_03,object_05,710.49,3,2,380.545,0.2222222222222222,1,object_04,1,2420,0,2,5,forest_27,1,memory-2step-stake-s,676,2498776,0.0-18.0-0.1-0.188,606,4,3
189,2,object_03,object_05,650.59,3,2,373.175,0.0,1,object_04,1,2420,0,0,6,forest_3,1,memory-2step-stake-s,677,2506377,0.0-18.0-0.1-0.189,606,4,3
190,3,object_01,object_07,1259.2,6,2,541.29,0.7777777777777778,2,object_06,5,2455,0,2,7,library_31,1,memory-2step-stake-s,678,2514878,0.0-18.0-0.1-0.190,606,5,6
191,4,object_10,object_02,794.125,8,1,546.955,0.8888888888888888,2,object_06,5,2495,0,2,8,restaurant_28,1,memory-2step-stake-s,679,2523496,0.0-18.0-0.1-0.191,606,8,7
192,3,object_07,object_01,1080.0,5,2,368.685,0.2222222222222222,1,object_04,1,2497,0,2,8,library_2,1,memory-2step-stake-s,680,2531306,0.0-18.0-0.1-0.192,606,6,5
193,2,object_05,object_03,585.57,3,1,531.37,0.1111111111111111,1,object_04,1,2498,0,1,8,forest_27,1,memory-2step-stake-s,681,2539178,0.0-18.0-0.1-0.193,606,3,4
194,3,object_01,object_07,407.99,6,2,381.83,0.8888888888888888,2,object_06,5,2538,0,0,8,library_5,1,memory-2step-stake-s,682,2547622,0.0-18.0-0.1-0.194,606,5,6
195,4,object_10,object_02,886.34,7,2,380.86,0.0,1,object_04,5,2538,0,0,8,restaurant_28,1,memory-2step-stake-s,683,2555234,0.0-18.0-0.1-0.195,606,8,7
196,4,object_10,object_02,540.63,8,1,325.335,0.8888888888888888,2,object_06,5,2578,0,3,8,restaurant_28,1,memory-2step-stake-s,684,2563624,0.0-18.0-0.1-0.196,606,8,7
197,3,object_07,object_01,1267.715,5,2,571.57,0.3333333333333333,1,object_04,5,2593,0,3,7,library_26,1,memory-2step-stake-s,685,2571735,0.0-18.0-0.1-0.197,606,6,5
198,4,object_02,object_10,961.715,8,2,355.34,0.8888888888888888,2,object_06,5,2633,0,5,8,restaurant_9,1,memory-2step-stake-s,686,2580159,0.0-18.0-0.1-0.198,606,7,8
199,1,object_09,object_08,1063.755,1,1,409.985,0.4444444444444444,1,object_04,1,2637,0,4,7,desert_30,1,memory-2step-stake-s,687,2588224,0.0-18.0-0.1-0.199,606,1,2
200,4,object_02,object_10,570.115,8,2,361.375,0.3333333333333333,2,object_06,5,2652,0,7,3,restaurant_29,1,memory-2step-stake-s,688,2596135,0.0-18.0-0.1-0.200,606,7,8
201,4,object_10,object_02,462.13,7,2,306.685,0.8888888888888888,1,object_04,5,2692,0,8,4,restaurant_7,1,memory-2step-stake-s,689,2604524,0.0-18.0-0.1-0.201,606,8,7
202,4,object_02,object_10,638.8,8,2,434.455,0.7777777777777778,2,object_06,1,2699,0,8,7,restaurant_29,1,memory-2step-stake-s,690,2612924,0.0-18.0-0.1-0.202,606,7,8
203,3,object_01,object_07,594.3,6,2,348.915,0.7777777777777778,2,object_06,5,2734,0,9,7,library_20,1,memory-2step-stake-s,691,2621241,0.0-18.0-0.1-0.203,606,5,6
204,2,object_03,object_05,744.585,3,2,372.365,0.6666666666666666,1,object_04,1,2740,0,6,5,forest_23,1,memory-2step-stake-s,692,2629458,0.0-18.0-0.1-0.204,606,4,3
205,1,object_08,object_09,726.11,2,1,293.89,0.2222222222222222,2,object_06,1,2742,0,5,2,desert_8,1,memory-2step-stake-s,693,2637192,0.0-18.0-0.1-0.205,606,2,1
206,1,object_08,object_09,870.29,1,2,410.38,0.4444444444444444,1,object_04,1,2746,0,4,0,desert_15,1,memory-2step-stake-s,694,2645237,0.0-18.0-0.1-0.206,606,2,1
207,3,object_01,object_07,670.14,5,1,368.75,0.3333333333333333,1,object_04,1,2749,0,3,1,library_5,1,memory-2step-stake-s,695,2653148,0.0-18.0-0.1-0.207,606,5,6
208,3,object_07,object_01,922.54,5,2,676.2,0.6666666666666666,1,object_04,5,2779,0,6,0,library_13,1,memory-2step-stake-s,696,2661687,0.0-18.0-0.1-0.208,606,6,5
209,1,object_09,object_08,590.49,1,1,453.555,0.8888888888888888,1,object_04,1,2787,0,8,0,desert_29,1,memory-2step-stake-s,697,2670188,0.0-18.0-0.1-0.209,606,1,2
210,3,object_01,object_07,1037.505,5,1,448.815,0.8888888888888888,1,object_04,5,2827,0,8,3,library_31,1,memory-2step-stake-s,698,2678711,0.0-18.0-0.1-0.210,606,5,6
211,2,object_05,object_03,728.145,4,2,375.97,0.1111111111111111,2,object_06,1,2828,0,6,1,forest_26,1,memory-2step-stake-s,699,2686452,0.0-18.0-0.1-0.211,606,3,4
212,4,object_10,object_02,736.87,8,1,305.845,0.0,2,object_06,1,2828,0,6,0,restaurant_14,1,memory-2step-stake-s,700,2693988,0.0-18.0-0.1-0.212,606,8,7
213,1,object_09,object_08,1093.53,1,1,446.325,0.6666666666666666,1,object_04,5,2858,0,6,3,desert_23,1,memory-2step-stake-s,701,2702288,0.0-18.0-0.1-0.213,606,1,2
214,2,object_05,object_03,750.415,3,1,378.68,0.6666666666666666,1,object_04,5,2888,0,6,6,forest_16,1,memory-2step-stake-s,702,2710525,0.0-18.0-0.1-0.214,606,3,4
215,3,object_01,object_07,893.375,5,1,451.465,0.8888888888888888,1,object_04,5,2928,0,8,5,library_2,1,memory-2step-stake-s,703,2719044,0.0-18.0-0.1-0.215,606,5,6
216,2,object_03,object_05,1310.875,4,1,474.68,0.0,2,object_06,1,2928,0,6,0,forest_25,1,memory-2step-stake-s,704,2726744,0.0-18.0-0.1-0.216,606,4,3
217,3,object_01,object_07,767.74,5,1,253.065,0.3333333333333333,1,object_04,5,2943,0,3,2,library_28,1,memory-2step-stake-s,705,2734545,0.0-18.0-0.1-0.217,606,5,6
218,2,object_03,object_05,444.99,4,1,392.63,0.3333333333333333,2,object_06,1,2946,0,5,3,forest_24,1,memory-2step-stake-s,706,2742484,0.0-18.0-0.1-0.218,606,4,3
219,3,object_07,object_01,774.56,5,2,349.47,0.8888888888888888,1,object_04,1,2954,0,8,6,library_27,1,memory-2step-stake-s,707,2750885,0.0-18.0-0.1-0.219,606,6,5
220,2,object_05,object_03,590.76,3,1,299.43,0.7777777777777778,1,object_04,5,2989,0,7,6,forest_23,1,memory-2step-stake-s,708,2759159,0.0-18.0-0.1-0.220,606,3,4
221,3,object_07,object_01,724.21,5,2,332.345,0.6666666666666666,1,object_04,5,3019,0,6,4,library_31,1,memory-2step-stake-s,709,2767340,0.0-18.0-0.1-0.221,606,6,5
222,4,object_10,object_02,657.205,7,2,257.775,0.3333333333333333,1,object_04,5,3034,0,3,4,restaurant_14,1,memory-2step-stake-s,710,2775149,0.0-18.0-0.1-0.222,606,8,7
223,3,object_07,object_01,696.44,6,1,404.875,0.3333333333333333,2,object_06,1,3037,0,6,3,library_20,1,memory-2step-stake-s,711,2783092,0.0-18.0-0.1-0.223,606,6,5
224,1,object_08,object_09,579.62,1,2,216.995,0.8888888888888888,1,object_04,1,3045,0,8,4,desert_3,1,memory-2step-stake-s,712,2791379,0.0-18.0-0.1-0.224,606,2,1
225,1,object_09,object_08,783.205,2,2,234.8,0.2222222222222222,2,object_06,1,3047,0,4,2,desert_3,1,memory-2step-stake-s,713,2799049,0.0-18.0-0.1-0.225,606,1,2
226,1,object_08,object_09,1123.41,2,1,346.1,0.1111111111111111,2,object_06,1,3048,0,5,1,desert_15,1,memory-2step-stake-s,714,2806731,0.0-18.0-0.1-0.226,606,2,1
227,1,object_08,object_09,571.815,1,2,244.4,0.4444444444444444,1,object_04,1,3052,0,4,2,desert_29,1,memory-2step-stake-s,715,2814628,0.0-18.0-0.1-0.227,606,2,1
228,2,object_05,object_03,736.9,4,2,341.455,0.0,2,object_06,1,3052,0,6,0,forest_23,1,memory-2step-stake-s,716,2822205,0.0-18.0-0.1-0.228,606,3,4
229,3,object_07,object_01,1332.605,6,1,578.59,0.1111111111111111,2,object_06,1,3053,0,7,1,library_21,1,memory-2step-stake-s,717,2830124,0.0-18.0-0.1-0.229,606,6,5
230,3,object_01,object_07,802.37,5,1,378.46,1.0,1,object_04,5,3098,0,9,3,library_30,1,memory-2step-stake-s,718,2838674,0.0-18.0-0.1-0.230,606,5,6
231,2,object_05,object_03,520.275,4,2,389.3,0.4444444444444444,2,object_06,1,3102,0,9,4,forest_9,1,memory-2step-stake-s,719,2846710,0.0-18.0-0.1-0.231,606,3,4
232,2,object_05,object_03,495.6,4,2,298.96,0.3333333333333333,2,object_06,1,3105,0,8,3,forest_24,1,memory-2step-stake-s,720,2854554,0.0-18.0-0.1-0.232,606,3,4
233,2,object_05,object_03,490.8,3,1,319.685,0.6666666666666666,1,object_04,1,3111,0,6,3,forest_31,1,memory-2step-stake-s,721,2862727,0.0-18.0-0.1-0.233,606,3,4
234,1,object_09,object_08,1031.79,1,1,296.1,0.6666666666666666,1,object_04,5,3141,0,6,6,desert_13,1,memory-2step-stake-s,722,2870879,0.0-18.0-0.1-0.234,606,1,2
235,1,object_08,object_09,439.81,1,2,409.65,0.8888888888888888,1,object_04,1,3149,0,8,6,desert_4,1,memory-2step-stake-s,723,2879355,0.0-18.0-0.1-0.235,606,2,1
236,3,object_07,object_01,733.59,5,2,376.415,0.8888888888888888,1,object_04,5,3189,0,8,4,library_1,1,memory-2step-stake-s,724,2887805,0.0-18.0-0.1-0.236,606,6,5
237,4,object_02,object_10,799.605,7,1,381.15,0.8888888888888888,1,object_04,5,3229,0,8,5,restaurant_25,1,memory-2step-stake-s,725,2896260,0.0-18.0-0.1-0.237,606,7,8
238,2,object_03,object_05,502.04,4,1,346.385,1.0,2,object_06,1,3238,0,8,9,forest_16,1,memory-2step-stake-s,726,2904769,0.0-18.0-0.1-0.238,606,4,3
239,3,object_07,object_01,840.565,5,2,491.48,0.5555555555555556,1,object_04,1,3243,0,5,6,library_8,1,memory-2step-stake-s,727,2913015,0.0-18.0-0.1-0.239,606,6,5
240,3,object_07,object_01,686.725,5,2,387.395,0.4444444444444444,1,object_04,5,3263,0,4,6,library_26,1,memory-2step-stake-s,728,2921047,0.0-18.0-0.1-0.240,606,6,5
241,4,object_02,object_10,1007.05,8,2,391.96,0.3333333333333333,2,object_06,5,3278,0,3,3,restaurant_19,1,memory-2step-stake-s,729,2928989,0.0-18.0-0.1-0.241,606,7,8
242,2,object_03,object_05,702.745,4,1,314.905,0.0,2,object_06,5,3278,0,4,0,forest_18,1,memory-2step-stake-s,730,2936537,0.0-18.0-0.1-0.242,606,4,3
243,2,object_03,object_05,912.38,4,1,786.78,0.2222222222222222,2,object_06,5,3288,0,3,2,forest_25,1,memory-2step-stake-s,731,2944767,0.0-18.0-0.1-0.243,606,4,3
244,3,object_07,object_01,773.29,5,2,501.51,0.3333333333333333,1,object_04,5,3303,0,3,2,library_31,1,memory-2step-stake-s,732,2952807,0.0-18.0-0.1-0.244,606,6,5
245,3,object_07,object_01,634.65,5,2,346.245,0.6666666666666666,1,object_04,5,3333,0,6,0,library_21,1,memory-2step-stake-s,733,2961012,0.0-18.0-0.1-0.245,606,6,5
246,1,object_09,object_08,923.52,2,2,305.055,0.2222222222222222,2,object_06,1,3335,0,5,2,desert_13,1,memory-2step-stake-s,734,2968767,0.0-18.0-0.1-0.246,606,1,2
247,2,object_05,object_03,518.85,4,2,550.5,0.0,2,object_06,1,3335,0,7,0,forest_4,1,memory-2step-stake-s,735,2976549,0.0-18.0-0.1-0.247,606,3,4
248,4,object_10,object_02,502.615,7,2,324.075,0.7777777777777778,1,object_04,5,3370,0,7,3,restaurant_25,1,memory-2step-stake-s,736,2984842,0.0-18.0-0.1-0.248,606,8,7
249,3,object_01,object_07,808.25,5,1,441.345,0.5555555555555556,1,object_04,5,3395,0,5,2,library_7,1,memory-2step-stake-s,737,2993042,0.0-18.0-0.1-0.249,606,5,6
250,1,object_09,object_08,1301.995,2,2,547.455,0.3333333333333333,2,object_06,1,3398,0,2,3,desert_31,1,memory-2step-stake-s,738,3001139,0.0-18.0-0.1-0.250,606,1,2
251,2,object_05,object_03,1101.31,4,2,389.11,0.3333333333333333,2,object_06,1,3401,0,0,3,forest_15,1,memory-2step-stake-s,739,3009074,0.0-18.0-0.1-0.251,606,3,4
252,1,object_09,object_08,803.95,2,2,240.34,0.4444444444444444,2,object_06,1,3405,0,2,4,desert_11,1,memory-2step-stake-s,740,3016959,0.0-18.0-0.1-0.252,606,1,2
253,1,object_08,object_09,1074.345,1,2,390.1,0.3333333333333333,1,object_04,1,3408,0,3,4,desert_29,1,memory-2step-stake-s,741,3024896,0.0-18.0-0.1-0.253,606,2,1
254,4,object_10,object_02,759.505,8,1,313.025,0.3333333333333333,2,object_06,5,3423,0,5,3,restaurant_31,1,memory-2step-stake-s,742,3032758,0.0-18.0-0.1-0.254,606,8,7
255,1,object_09,object_08,917.925,1,1,349.585,0.6666666666666666,1,object_04,5,3453,0,6,5,desert_20,1,memory-2step-stake-s,743,3040959,0.0-18.0-0.1-0.255,606,1,2
