,state1,stim_left,stim_right,rt_1,choice1,response1,rt_2,points,state2,stim_state2,stake,score,practice,rews1,rews2,background,high_arm,trial_type,trial_index,time_elapsed,internal_node_id,subid,stim_left_num,stim_right_num
0,3,object_10,object_04,1172.0,5,1,-1.0,0.0,1,object_03,1,0,0,9,1,library_10,2,memory-2step-stake-s,495,1069218,0.0-18.0-0.0-0.0,3962,5,6
1,4,object_02,object_06,676.0,7,2,749.0,0.8888888888888888,1,object_03,1,8,0,8,2,restaurant_22,2,memory-2step-stake-s,496,1077984,0.0-18.0-0.0-0.1,3962,8,7
2,1,object_05,object_08,778.0,1,1,1297.0,0.5555555555555556,1,object_03,5,33,0,5,4,desert_9,2,memory-2step-stake-s,497,1086994,0.0-18.0-0.0-0.2,3962,1,2
3,1,object_05,object_08,896.0,1,1,939.0,0.1111111111111111,1,object_03,5,38,0,1,4,desert_9,2,memory-2step-stake-s,498,1095244,0.0-18.0-0.0-0.3,3962,1,2
4,3,object_10,object_04,865.0,6,2,890.0,0.4444444444444444,2,object_07,1,42,0,2,4,library_15,2,memory-2step-stake-s,499,1103753,0.0-18.0-0.0-0.4,3962,5,6
5,2,object_01,object_09,842.0,3,1,635.0,0.3333333333333333,1,object_03,5,57,0,3,3,forest_4,2,memory-2step-stake-s,500,1111906,0.0-18.0-0.0-0.5,3962,3,4
6,4,object_06,object_02,-1.0,-1,-1,-1.0,0.0,-,,5,57,0,2,2,restaurant_1,2,memory-2step-stake-s,501,1118419,0.0-18.0-0.0-0.6,3962,7,8
7,4,object_02,object_06,782.0,7,2,501.0,0.4444444444444444,1,object_03,1,61,0,4,2,restaurant_27,2,memory-2step-stake-s,502,1126538,0.0-18.0-0.0-0.7,3962,8,7
8,2,object_01,object_09,1313.0,3,1,414.0,0.2222222222222222,1,object_03,5,71,0,2,3,forest_11,2,memory-2step-stake-s,503,1134369,0.0-18.0-0.0-0.8,3962,3,4
9,3,object_04,object_10,1417.0,5,2,608.0,0.1111111111111111,1,object_03,1,72,0,1,4,library_24,2,memory-2step-stake-s,504,1142292,0.0-18.0-0.0-0.9,3962,6,5
10,1,object_05,object_08,1316.0,2,2,507.0,0.3333333333333333,2,object_07,5,87,0,0,3,desert_13,2,memory-2step-stake-s,505,1150321,0.0-18.0-0.0-0.10,3962,1,2
11,1,object_05,object_08,-1.0,-1,-1,-1.0,0.0,-,,5,87,0,2,1,desert_30,2,memory-2step-stake-s,506,1156833,0.0-18.0-0.0-0.11,3962,1,2
12,1,object_08,object_05,1077.0,1,2,555.0,0.1111111111111111,1,object_03,5,92,0,1,1,desert_1,2,memory-2step-stake-s,507,1164706,0.0-18.0-0.0-0.12,3962,2,1
13,1,object_05,object_08,703.0,1,1,581.0,0.1111111111111111,1,object_03,5,97,0,1,3,desert_13,2,memory-2step-stake-s,508,1172606,0.0-18.0-0.0-0.13,3962,1,2
14,4,object_02,object_06,625.0,7,2,454.0,0.2222222222222222,1,object_03,1,99,0,2,2,restaurant_32,2,memory-2step-stake-s,509,1180478,0.0-18.0-0.0-0.14,3962,8,7
15,1,object_08,object_05,1164.0,2,1,830.0,0.3333333333333333,2,object_07,5,114,0,4,3,desert_29,2,memory-2step-stake-s,510,1188827,0.0-18.0-0.0-0.15,3962,2,1
16,2,object_01,object_09,912.0,4,2,524.0,0.5555555555555556,2,object_07,1,119,0,3,5,forest_14,2,memory-2step-stake-s,511,1197072,0.0-18.0-0.0-0.16,3962,3,4
17,3,object_10,object_04,1145.0,6,2,530.0,0.2222222222222222,2,object_07,1,121,0,4,2,library_16,2,memory-2step-stake-s,512,1205024,0.0-18.0-0.0-0.17,3962,5,6
18,2,object_09,object_01,1437.0,3,2,567.0,0.3333333333333333,1,object_03,1,124,0,3,2,forest_11,2,memory-2step-stake-s,513,1213111,0.0-18.0-0.0-0.18,3962,4,3
19,1,object_05,object_08,1096.0,2,2,442.0,0.0,2,object_07,5,124,0,0,0,desert_2,2,memory-2step-stake-s,514,1220768,0.0-18.0-0.0-0.19,3962,1,2
20,2,object_09,object_01,1094.0,4,1,568.0,0.5555555555555556,2,object_07,5,149,0,4,5,forest_4,2,memory-2step-stake-s,515,1229059,0.0-18.0-0.0-0.20,3962,4,3
21,2,object_01,object_09,1459.0,4,2,531.0,1.0,2,object_07,5,194,0,1,9,forest_16,2,memory-2step-stake-s,516,1237715,0.0-18.0-0.0-0.21,3962,3,4
22,2,object_09,object_01,839.0,4,1,530.0,0.7777777777777778,2,object_07,5,229,0,1,7,forest_1,2,memory-2step-stake-s,517,1246169,0.0-18.0-0.0-0.22,3962,4,3
23,4,object_06,object_02,994.0,8,2,526.0,0.8888888888888888,2,object_07,1,237,0,1,8,restaurant_32,2,memory-2step-stake-s,518,1254722,0.0-18.0-0.0-0.23,3962,7,8
24,4,object_02,object_06,1279.0,8,1,485.0,0.8888888888888888,2,object_07,5,277,0,4,8,restaurant_28,2,memory-2step-stake-s,519,1263235,0.0-18.0-0.0-0.24,3962,8,7
25,1,object_08,object_05,1331.0,1,2,522.0,0.5555555555555556,1,object_03,5,302,0,5,5,desert_2,2,memory-2step-stake-s,520,1271478,0.0-18.0-0.0-0.25,3962,2,1
26,1,object_08,object_05,1136.0,2,1,436.0,0.2222222222222222,2,object_07,5,312,0,7,2,desert_15,2,memory-2step-stake-s,521,1279333,0.0-18.0-0.0-0.26,3962,2,1
27,4,object_06,object_02,744.0,8,2,434.0,0.1111111111111111,2,object_07,1,313,0,7,1,restaurant_24,2,memory-2step-stake-s,522,1287084,0.0-18.0-0.0-0.27,3962,7,8
28,4,object_02,object_06,810.0,7,2,489.0,0.7777777777777778,1,object_03,1,320,0,7,4,restaurant_32,2,memory-2step-stake-s,523,1295498,0.0-18.0-0.0-0.28,3962,8,7
29,4,object_06,object_02,1462.0,7,1,517.0,0.6666666666666666,1,object_03,1,326,0,6,7,restaurant_1,2,memory-2step-stake-s,524,1303841,0.0-18.0-0.0-0.29,3962,7,8
30,2,object_01,object_09,1227.0,4,2,-1.0,0.0,2,object_07,1,326,0,6,5,forest_13,2,memory-2step-stake-s,525,1312357,0.0-18.0-0.0-0.30,3962,3,4
31,1,object_08,object_05,1067.0,1,2,483.0,0.5555555555555556,1,object_03,5,351,0,5,3,desert_23,2,memory-2step-stake-s,526,1320563,0.0-18.0-0.0-0.31,3962,2,1
32,4,object_02,object_06,1114.0,7,2,609.0,0.4444444444444444,1,object_03,1,355,0,4,4,restaurant_15,2,memory-2step-stake-s,527,1328794,0.0-18.0-0.0-0.32,3962,8,7
33,1,object_05,object_08,1077.0,1,1,556.0,0.2222222222222222,1,object_03,5,365,0,2,4,desert_11,2,memory-2step-stake-s,528,1336769,0.0-18.0-0.0-0.33,3962,1,2
34,4,object_02,object_06,1025.0,7,2,359.0,0.1111111111111111,1,object_03,1,366,0,1,6,restaurant_12,2,memory-2step-stake-s,529,1344444,0.0-18.0-0.0-0.34,3962,8,7
35,1,object_08,object_05,-1.0,-1,-1,-1.0,0.0,-,,5,366,0,2,4,desert_23,2,memory-2step-stake-s,530,1350954,0.0-18.0-0.0-0.35,3962,2,1
36,2,object_01,object_09,1034.0,3,1,412.0,0.0,1,object_03,5,366,0,0,3,forest_26,2,memory-2step-stake-s,531,1358580,0.0-18.0-0.0-0.36,3962,3,4
37,1,object_05,object_08,1237.0,2,2,412.0,0.4444444444444444,2,object_07,5,386,0,2,4,desert_30,2,memory-2step-stake-s,532,1366613,0.0-18.0-0.0-0.37,3962,1,2
38,4,object_06,object_02,1238.0,7,1,525.0,0.5555555555555556,1,object_03,1,391,0,5,2,restaurant_26,2,memory-2step-stake-s,533,1374853,0.0-18.0-0.0-0.38,3962,7,8
39,3,object_10,object_04,1258.0,5,1,381.0,0.0,1,object_03,1,391,0,0,3,library_14,2,memory-2step-stake-s,534,1382450,0.0-18.0-0.0-0.39,3962,5,6
40,1,object_05,object_08,1183.0,1,1,412.0,0.4444444444444444,1,object_03,5,411,0,4,0,desert_11,2,memory-2step-stake-s,535,1390485,0.0-18.0-0.0-0.40,3962,1,2
41,1,object_05,object_08,1254.0,1,1,434.0,0.3333333333333333,1,object_03,5,426,0,3,0,desert_29,2,memory-2step-stake-s,536,1398439,0.0-18.0-0.0-0.41,3962,1,2
42,4,object_06,object_02,921.0,8,2,566.0,0.1111111111111111,2,object_07,1,427,0,1,1,restaurant_10,2,memory-2step-stake-s,537,1406321,0.0-18.0-0.0-0.42,3962,7,8
43,3,object_04,object_10,1208.0,6,1,899.0,0.3333333333333333,2,object_07,1,430,0,2,3,library_7,2,memory-2step-stake-s,538,1414738,0.0-18.0-0.0-0.43,3962,6,5
44,1,object_05,object_08,1061.0,2,2,448.0,0.6666666666666666,2,object_07,5,460,0,4,6,desert_22,2,memory-2step-stake-s,539,1422997,0.0-18.0-0.0-0.44,3962,1,2
45,1,object_05,object_08,916.0,2,2,393.0,0.5555555555555556,2,object_07,5,485,0,6,5,desert_13,2,memory-2step-stake-s,540,1431105,0.0-18.0-0.0-0.45,3962,1,2
46,2,object_01,object_09,1209.0,3,1,594.0,0.5555555555555556,1,object_03,5,510,0,5,6,forest_4,2,memory-2step-stake-s,541,1439417,0.0-18.0-0.0-0.46,3962,3,4
47,4,object_02,object_06,1344.0,7,2,728.0,0.6666666666666666,1,object_03,1,516,0,6,5,restaurant_2,2,memory-2step-stake-s,542,1447966,0.0-18.0-0.0-0.47,3962,8,7
48,1,object_05,object_08,991.0,1,1,564.0,1.0,1,object_03,5,561,0,9,6,desert_24,2,memory-2step-stake-s,543,1456656,0.0-18.0-0.0-0.48,3962,1,2
49,3,object_04,object_10,1474.0,6,1,446.0,0.7777777777777778,2,object_07,1,568,0,8,7,library_22,2,memory-2step-stake-s,544,1465025,0.0-18.0-0.0-0.49,3962,6,5
50,2,object_01,object_09,1164.0,4,2,484.0,1.0,2,object_07,5,613,0,8,9,forest_18,2,memory-2step-stake-s,545,1473638,0.0-18.0-0.0-0.50,3962,3,4
51,4,object_02,object_06,994.0,8,1,442.0,0.7777777777777778,2,object_07,1,620,0,7,7,restaurant_1,2,memory-2step-stake-s,546,1482006,0.0-18.0-0.0-0.51,3962,8,7
52,3,object_04,object_10,837.0,5,2,564.0,0.6666666666666666,1,object_03,5,650,0,6,7,library_3,2,memory-2step-stake-s,547,1490394,0.0-18.0-0.0-0.52,3962,6,5
53,1,object_05,object_08,663.0,1,1,492.0,0.8888888888888888,1,object_03,1,658,0,8,9,desert_28,2,memory-2step-stake-s,548,1498916,0.0-18.0-0.0-0.53,3962,1,2
54,3,object_10,object_04,868.0,6,2,541.0,1.0,2,object_07,1,667,0,9,9,library_13,2,memory-2step-stake-s,549,1507586,0.0-18.0-0.0-0.54,3962,5,6
55,1,object_08,object_05,811.0,2,1,661.0,0.8888888888888888,2,object_07,5,707,0,9,8,desert_4,2,memory-2step-stake-s,550,1516270,0.0-18.0-0.0-0.55,3962,2,1
56,2,object_09,object_01,989.0,3,2,450.0,0.8888888888888888,1,object_03,5,747,0,8,7,forest_4,2,memory-2step-stake-s,551,1524749,0.0-18.0-0.0-0.56,3962,4,3
57,1,object_05,object_08,741.0,1,1,495.0,0.6666666666666666,1,object_03,5,777,0,6,8,desert_24,2,memory-2step-stake-s,552,1533069,0.0-18.0-0.0-0.57,3962,1,2
58,2,object_01,object_09,685.0,4,2,467.0,0.6666666666666666,2,object_07,1,783,0,6,6,forest_10,2,memory-2step-stake-s,553,1541359,0.0-18.0-0.0-0.58,3962,3,4
59,1,object_08,object_05,960.0,2,1,459.0,0.3333333333333333,2,object_07,5,798,0,5,3,desert_11,2,memory-2step-stake-s,554,1549337,0.0-18.0-0.0-0.59,3962,2,1
60,2,object_01,object_09,1112.0,3,1,794.0,0.7777777777777778,1,object_03,5,833,0,7,2,forest_30,2,memory-2step-stake-s,555,1558060,0.0-18.0-0.0-0.60,3962,3,4
61,1,object_08,object_05,982.0,1,2,502.0,0.5555555555555556,1,object_03,5,858,0,5,1,desert_1,2,memory-2step-stake-s,556,1566285,0.0-18.0-0.0-0.61,3962,2,1
62,2,object_09,object_01,717.0,4,1,385.0,0.1111111111111111,2,object_07,5,863,0,4,1,forest_7,2,memory-2step-stake-s,557,1573986,0.0-18.0-0.0-0.62,3962,4,3
63,2,object_09,object_01,1146.0,4,1,360.0,0.2222222222222222,2,object_07,5,873,0,7,2,forest_21,2,memory-2step-stake-s,558,1581765,0.0-18.0-0.0-0.63,3962,4,3
64,1,object_08,object_05,1053.0,1,2,508.0,0.8888888888888888,1,object_03,5,913,0,8,1,desert_28,2,memory-2step-stake-s,559,1590299,0.0-18.0-0.0-0.64,3962,2,1
65,1,object_08,object_05,943.0,1,2,418.0,0.7777777777777778,1,object_03,5,948,0,7,0,desert_4,2,memory-2step-stake-s,560,1598645,0.0-18.0-0.0-0.65,3962,2,1
66,3,object_10,object_04,1316.0,6,2,627.0,0.1111111111111111,2,object_07,5,953,0,6,1,library_31,2,memory-2step-stake-s,561,1606590,0.0-18.0-0.0-0.66,3962,5,6
67,1,object_05,object_08,862.0,1,1,469.0,0.4444444444444444,1,object_03,5,973,0,4,2,desert_15,2,memory-2step-stake-s,562,1614678,0.0-18.0-0.0-0.67,3962,1,2
68,3,object_10,object_04,1066.0,5,1,419.0,0.4444444444444444,1,object_03,1,977,0,4,0,library_16,2,memory-2step-stake-s,563,1622719,0.0-18.0-0.0-0.68,3962,5,6
69,4,object_06,object_02,954.0,8,2,533.0,0.2222222222222222,2,object_07,1,979,0,0,2,restaurant_29,2,memory-2step-stake-s,564,1630670,0.0-18.0-0.0-0.69,3962,7,8
70,1,object_08,object_05,1331.0,2,1,426.0,0.3333333333333333,2,object_07,1,982,0,0,3,desert_23,2,memory-2step-stake-s,565,1638617,0.0-18.0-0.0-0.70,3962,2,1
71,4,object_06,object_02,1285.0,8,2,392.0,0.2222222222222222,2,object_07,1,984,0,2,2,restaurant_29,2,memory-2step-stake-s,566,1646426,0.0-18.0-0.0-0.71,3962,7,8
72,3,object_10,object_04,942.0,6,2,467.0,0.3333333333333333,2,object_07,1,987,0,2,3,library_20,2,memory-2step-stake-s,567,1654413,0.0-18.0-0.0-0.72,3962,5,6
73,1,object_05,object_08,1065.0,1,1,476.0,0.3333333333333333,1,object_03,1,990,0,3,1,desert_23,2,memory-2step-stake-s,568,1662408,0.0-18.0-0.0-0.73,3962,1,2
74,4,object_02,object_06,983.0,8,1,420.0,0.5555555555555556,2,object_07,5,1015,0,3,5,restaurant_7,2,memory-2step-stake-s,569,1670550,0.0-18.0-0.0-0.74,3962,8,7
75,2,object_01,object_09,970.0,4,2,439.0,0.6666666666666666,2,object_07,5,1045,0,2,6,forest_21,2,memory-2step-stake-s,570,1678812,0.0-18.0-0.0-0.75,3962,3,4
76,1,object_08,object_05,735.0,2,1,494.0,0.5555555555555556,2,object_07,5,1070,0,4,5,desert_1,2,memory-2step-stake-s,571,1687028,0.0-18.0-0.0-0.76,3962,2,1
77,2,object_01,object_09,712.0,4,2,364.0,0.5555555555555556,2,object_07,5,1095,0,4,5,forest_21,2,memory-2step-stake-s,572,1695114,0.0-18.0-0.0-0.77,3962,3,4
78,2,object_09,object_01,692.0,4,1,417.0,0.7777777777777778,2,object_07,5,1130,0,4,7,forest_12,2,memory-2step-stake-s,573,1703458,0.0-18.0-0.0-0.78,3962,4,3
79,4,object_02,object_06,861.0,7,2,686.0,0.1111111111111111,1,object_03,1,1131,0,1,6,restaurant_26,2,memory-2step-stake-s,574,1711460,0.0-18.0-0.0-0.79,3962,8,7
80,1,object_08,object_05,713.0,2,1,441.0,0.8888888888888888,2,object_07,5,1171,0,1,8,desert_12,2,memory-2step-stake-s,575,1719927,0.0-18.0-0.0-0.80,3962,2,1
81,1,object_08,object_05,824.0,2,1,597.0,1.0,2,object_07,5,1216,0,5,9,desert_22,2,memory-2step-stake-s,576,1728650,0.0-18.0-0.0-0.81,3962,2,1
82,2,object_09,object_01,858.0,4,1,527.0,0.4444444444444444,2,object_07,5,1236,0,2,4,forest_26,2,memory-2step-stake-s,577,1736797,0.0-18.0-0.0-0.82,3962,4,3
83,3,object_04,object_10,1199.0,5,2,497.0,0.2222222222222222,1,object_03,1,1238,0,2,5,library_20,2,memory-2step-stake-s,578,1744709,0.0-18.0-0.0-0.83,3962,6,5
84,4,object_02,object_06,714.0,7,2,476.0,0.3333333333333333,1,object_03,1,1241,0,3,7,restaurant_11,2,memory-2step-stake-s,579,1752707,0.0-18.0-0.0-0.84,3962,8,7
85,3,object_04,object_10,843.0,6,1,461.0,0.7777777777777778,2,object_07,1,1248,0,2,7,library_8,2,memory-2step-stake-s,580,1761093,0.0-18.0-0.0-0.85,3962,6,5
86,1,object_08,object_05,638.0,1,2,462.0,0.2222222222222222,1,object_03,1,1250,0,2,6,desert_20,2,memory-2step-stake-s,581,1768972,0.0-18.0-0.0-0.86,3962,2,1
87,1,object_08,object_05,708.0,2,1,484.0,0.6666666666666666,2,object_07,5,1280,0,3,6,desert_29,2,memory-2step-stake-s,582,1777278,0.0-18.0-0.0-0.87,3962,2,1
88,2,object_01,object_09,836.0,4,2,527.0,0.6666666666666666,2,object_07,5,1310,0,5,6,forest_18,2,memory-2step-stake-s,583,1785627,0.0-18.0-0.0-0.88,3962,3,4
89,2,object_09,object_01,732.0,4,1,400.0,0.6666666666666666,2,object_07,5,1340,0,6,6,forest_7,2,memory-2step-stake-s,584,1793851,0.0-18.0-0.0-0.89,3962,4,3
90,3,object_04,object_10,936.0,5,2,566.0,0.5555555555555556,1,object_03,1,1345,0,5,6,library_30,2,memory-2step-stake-s,585,1802139,0.0-18.0-0.0-0.90,3962,6,5
91,3,object_10,object_04,978.0,6,2,393.0,0.7777777777777778,2,object_07,1,1352,0,5,7,library_10,2,memory-2step-stake-s,586,1810456,0.0-18.0-0.0-0.91,3962,5,6
92,2,object_01,object_09,-1.0,-1,-1,-1.0,0.0,-,,5,1352,0,3,5,forest_6,2,memory-2step-stake-s,587,1816969,0.0-18.0-0.0-0.92,3962,3,4
93,4,object_06,object_02,763.0,7,1,780.0,0.3333333333333333,1,object_03,1,1355,0,3,3,restaurant_2,2,memory-2step-stake-s,588,1825267,0.0-18.0-0.0-0.93,3962,7,8
94,1,object_05,object_08,731.0,2,2,498.0,0.7777777777777778,2,object_07,5,1390,0,0,7,desert_9,2,memory-2step-stake-s,589,1833690,0.0-18.0-0.0-0.94,3962,1,2
95,2,object_09,object_01,640.0,4,1,416.0,0.4444444444444444,2,object_07,5,1410,0,2,4,forest_7,2,memory-2step-stake-s,590,1841727,0.0-18.0-0.0-0.95,3962,4,3
96,3,object_10,object_04,907.0,5,1,474.0,0.3333333333333333,1,object_03,1,1413,0,3,5,library_7,2,memory-2step-stake-s,591,1849716,0.0-18.0-0.0-0.96,3962,5,6
97,1,object_08,object_05,890.0,2,1,479.0,0.7777777777777778,2,object_07,5,1448,0,2,7,desert_4,2,memory-2step-stake-s,592,1858109,0.0-18.0-0.0-0.97,3962,2,1
98,2,object_01,object_09,702.0,4,2,457.0,0.4444444444444444,2,object_07,5,1468,0,1,4,forest_22,2,memory-2step-stake-s,593,1866183,0.0-18.0-0.0-0.98,3962,3,4
99,4,object_02,object_06,827.0,8,1,418.0,0.6666666666666666,2,object_07,5,1498,0,1,6,restaurant_10,2,memory-2step-stake-s,594,1874412,0.0-18.0-0.0-0.99,3962,8,7
100,3,object_10,object_04,1062.0,5,1,341.0,0.2222222222222222,1,object_03,5,1508,0,2,9,library_25,2,memory-2step-stake-s,595,1882162,0.0-18.0-0.0-0.100,3962,5,6
101,2,object_01,object_09,651.0,4,2,443.0,1.0,2,object_07,5,1553,0,2,9,forest_1,2,memory-2step-stake-s,596,1890720,0.0-18.0-0.0-0.101,3962,3,4
102,1,object_08,object_05,773.0,2,1,294.0,0.7777777777777778,2,object_07,5,1588,0,4,7,desert_30,2,memory-2step-stake-s,597,1898935,0.0-18.0-0.0-0.102,3962,2,1
103,4,object_06,object_02,1073.0,7,1,407.0,0.1111111111111111,1,object_03,1,1589,0,1,9,restaurant_7,2,memory-2step-stake-s,598,1906657,0.0-18.0-0.0-0.103,3962,7,8
104,2,object_01,object_09,731.0,4,2,425.0,0.5555555555555556,2,object_07,5,1614,0,2,5,forest_1,2,memory-2step-stake-s,599,1914804,0.0-18.0-0.0-0.104,3962,3,4
105,1,object_05,object_08,964.0,2,2,479.0,0.5555555555555556,2,object_07,5,1639,0,2,5,desert_2,2,memory-2step-stake-s,600,1923003,0.0-18.0-0.0-0.105,3962,1,2
106,1,object_05,object_08,858.0,2,2,553.0,0.5555555555555556,2,object_07,5,1664,0,1,5,desert_1,2,memory-2step-stake-s,601,1931279,0.0-18.0-0.0-0.106,3962,1,2
107,2,object_01,object_09,696.0,4,2,531.0,0.7777777777777778,2,object_07,5,1699,0,4,7,forest_16,2,memory-2step-stake-s,602,1939736,0.0-18.0-0.0-0.107,3962,3,4
108,3,object_10,object_04,1389.0,5,1,768.0,0.4444444444444444,1,object_03,1,1703,0,4,6,library_16,2,memory-2step-stake-s,603,1948127,0.0-18.0-0.0-0.108,3962,5,6
109,3,object_04,object_10,1189.0,5,2,563.0,0.4444444444444444,1,object_03,1,1707,0,4,7,library_10,2,memory-2step-stake-s,604,1956309,0.0-18.0-0.0-0.109,3962,6,5
110,3,object_04,object_10,938.0,6,1,345.0,0.4444444444444444,2,object_07,5,1727,0,3,4,library_30,2,memory-2step-stake-s,605,1964278,0.0-18.0-0.0-0.110,3962,6,5
111,1,object_05,object_08,768.0,2,2,519.0,0.5555555555555556,2,object_07,5,1752,0,4,5,desert_15,2,memory-2step-stake-s,606,1972518,0.0-18.0-0.0-0.111,3962,1,2
112,4,object_06,object_02,971.0,7,1,296.0,0.4444444444444444,1,object_03,1,1756,0,4,5,restaurant_28,2,memory-2step-stake-s,607,1980434,0.0-18.0-0.0-0.112,3962,7,8
113,4,object_06,object_02,1074.0,7,1,339.0,0.5555555555555556,1,object_03,1,1761,0,5,4,restaurant_32,2,memory-2step-stake-s,608,1988497,0.0-18.0-0.0-0.113,3962,7,8
114,1,object_05,object_08,931.0,1,1,342.0,0.5555555555555556,1,object_03,1,1766,0,5,2,desert_12,2,memory-2step-stake-s,609,1996561,0.0-18.0-0.0-0.114,3962,1,2
115,4,object_06,object_02,876.0,7,1,454.0,0.7777777777777778,1,object_03,1,1773,0,7,1,restaurant_28,2,memory-2step-stake-s,610,2004942,0.0-18.0-0.0-0.115,3962,7,8
116,4,object_06,object_02,1022.0,7,1,291.0,0.7777777777777778,1,object_03,1,1780,0,7,0,restaurant_27,2,memory-2step-stake-s,611,2013159,0.0-18.0-0.0-0.116,3962,7,8
117,2,object_01,object_09,881.0,3,1,371.0,1.0,1,object_03,5,1825,0,9,1,forest_11,2,memory-2step-stake-s,612,2021660,0.0-18.0-0.0-0.117,3962,3,4
118,1,object_08,object_05,1048.0,1,2,-1.0,0.0,1,object_03,5,1825,0,8,4,desert_9,2,memory-2step-stake-s,613,2030176,0.0-18.0-0.0-0.118,3962,2,1
119,2,object_09,object_01,949.0,3,2,429.0,0.7777777777777778,1,object_03,5,1860,0,7,5,forest_1,2,memory-2step-stake-s,614,2038529,0.0-18.0-0.0-0.119,3962,4,3
120,4,object_06,object_02,964.0,8,2,402.0,0.2222222222222222,2,object_07,1,1862,0,7,2,restaurant_27,2,memory-2step-stake-s,615,2046349,0.0-18.0-0.0-0.120,3962,7,8
121,3,object_10,object_04,1216.0,5,1,442.0,0.6666666666666666,1,object_03,1,1868,0,6,2,library_25,2,memory-2step-stake-s,616,2054615,0.0-18.0-0.0-0.121,3962,5,6
122,3,object_10,object_04,882.0,6,2,-1.0,0.0,2,object_07,1,1868,0,5,2,library_23,2,memory-2step-stake-s,617,2063131,0.0-18.0-0.0-0.122,3962,5,6
123,3,object_10,object_04,967.0,6,2,637.0,0.1111111111111111,2,object_07,1,1869,0,4,1,library_1,2,memory-2step-stake-s,618,2071084,0.0-18.0-0.0-0.123,3962,5,6
124,4,object_06,object_02,863.0,8,2,361.0,0.1111111111111111,2,object_07,5,1874,0,4,1,restaurant_25,2,memory-2step-stake-s,619,2078762,0.0-18.0-0.0-0.124,3962,7,8
125,4,object_02,object_06,950.0,7,2,309.0,0.4444444444444444,1,object_03,1,1878,0,4,2,restaurant_12,2,memory-2step-stake-s,620,2086695,0.0-18.0-0.0-0.125,3962,8,7
126,4,object_02,object_06,1217.0,7,2,434.0,0.2222222222222222,1,object_03,1,1880,0,2,2,restaurant_12,2,memory-2step-stake-s,621,2094546,0.0-18.0-0.0-0.126,3962,8,7
127,2,object_01,object_09,684.0,4,2,362.0,0.3333333333333333,2,object_07,5,1895,0,0,3,forest_14,2,memory-2step-stake-s,622,2102427,0.0-18.0-0.0-0.127,3962,3,4
128,3,object_10,object_04,-1.0,-1,-1,-1.0,0.0,-,,1,1895,0,1,3,library_3,2,memory-2step-stake-s,624,2207197,0.0-18.0-0.1-0.128,3962,5,6
129,3,object_10,object_04,982.0,5,1,410.0,0.3333333333333333,1,object_03,1,1898,0,3,3,library_8,2,memory-2step-stake-s,625,2215124,0.0-18.0-0.1-0.129,3962,5,6
130,2,object_01,object_09,537.0,4,2,372.0,0.0,2,object_07,1,1898,0,7,0,forest_10,2,memory-2step-stake-s,626,2222709,0.0-18.0-0.1-0.130,3962,3,4
131,3,object_04,object_10,985.0,6,1,294.0,0.4444444444444444,2,object_07,1,1902,0,3,4,library_31,2,memory-2step-stake-s,627,2230625,0.0-18.0-0.1-0.131,3962,6,5
132,2,object_09,object_01,1298.0,3,2,422.0,0.6666666666666666,1,object_03,1,1908,0,6,3,forest_6,2,memory-2step-stake-s,628,2238872,0.0-18.0-0.1-0.132,3962,4,3
133,3,object_04,object_10,696.0,5,2,307.0,0.6666666666666666,1,object_03,1,1914,0,6,5,library_24,2,memory-2step-stake-s,629,2247002,0.0-18.0-0.1-0.133,3962,6,5
134,3,object_04,object_10,676.0,6,1,319.0,0.8888888888888888,2,object_07,1,1922,0,6,8,library_3,2,memory-2step-stake-s,630,2255352,0.0-18.0-0.1-0.134,3962,6,5
135,1,object_08,object_05,751.0,2,1,389.0,0.8888888888888888,2,object_07,5,1962,0,9,8,desert_32,2,memory-2step-stake-s,631,2263768,0.0-18.0-0.1-0.135,3962,2,1
136,4,object_06,object_02,787.0,8,2,349.0,0.7777777777777778,2,object_07,1,1969,0,9,7,restaurant_20,2,memory-2step-stake-s,632,2272043,0.0-18.0-0.1-0.136,3962,7,8
137,4,object_06,object_02,1019.0,8,2,426.0,1.0,2,object_07,1,1978,0,8,9,restaurant_20,2,memory-2step-stake-s,633,2280596,0.0-18.0-0.1-0.137,3962,7,8
138,1,object_05,object_08,921.0,1,1,385.0,0.5555555555555556,1,object_03,1,1983,0,5,6,desert_12,2,memory-2step-stake-s,634,2288695,0.0-18.0-0.1-0.138,3962,1,2
139,2,object_01,object_09,565.0,4,2,322.0,0.6666666666666666,2,object_07,5,2013,0,5,6,forest_16,2,memory-2step-stake-s,635,2296839,0.0-18.0-0.1-0.139,3962,3,4
140,3,object_04,object_10,863.0,6,1,484.0,0.3333333333333333,2,object_07,1,2016,0,4,3,library_14,2,memory-2step-stake-s,636,2304843,0.0-18.0-0.1-0.140,3962,6,5
141,1,object_08,object_05,643.0,2,1,418.0,0.1111111111111111,2,object_07,5,2021,0,3,1,desert_24,2,memory-2step-stake-s,637,2312577,0.0-18.0-0.1-0.141,3962,2,1
142,3,object_10,object_04,721.0,6,2,365.0,0.3333333333333333,2,object_07,1,2024,0,2,3,library_15,2,memory-2step-stake-s,638,2320461,0.0-18.0-0.1-0.142,3962,5,6
143,4,object_06,object_02,856.0,7,1,369.0,0.1111111111111111,1,object_03,1,2025,0,1,6,restaurant_24,2,memory-2step-stake-s,639,2328148,0.0-18.0-0.1-0.143,3962,7,8
144,3,object_04,object_10,1218.0,6,1,368.0,0.4444444444444444,2,object_07,1,2029,0,2,4,library_14,2,memory-2step-stake-s,640,2336136,0.0-18.0-0.1-0.144,3962,6,5
145,3,object_10,object_04,1059.0,5,1,633.0,0.3333333333333333,1,object_03,1,2032,0,3,5,library_31,2,memory-2step-stake-s,641,2344286,0.0-18.0-0.1-0.145,3962,5,6
146,3,object_10,object_04,962.0,6,2,324.0,0.3333333333333333,2,object_07,1,2035,0,4,3,library_1,2,memory-2step-stake-s,642,2352129,0.0-18.0-0.1-0.146,3962,5,6
147,3,object_10,object_04,718.0,6,2,366.0,0.2222222222222222,2,object_07,1,2037,0,3,2,library_15,2,memory-2step-stake-s,643,2359911,0.0-18.0-0.1-0.147,3962,5,6
148,4,object_06,object_02,745.0,7,1,533.0,0.5555555555555556,1,object_03,1,2042,0,5,1,restaurant_24,2,memory-2step-stake-s,644,2368167,0.0-18.0-0.1-0.148,3962,7,8
149,3,object_04,object_10,737.0,6,1,419.0,0.1111111111111111,2,object_07,1,2043,0,9,1,library_22,2,memory-2step-stake-s,645,2375903,0.0-18.0-0.1-0.149,3962,6,5
150,2,object_01,object_09,798.0,3,1,334.0,0.8888888888888888,1,object_03,5,2083,0,8,1,forest_14,2,memory-2step-stake-s,646,2384260,0.0-18.0-0.1-0.150,3962,3,4
151,2,object_09,object_01,868.0,3,2,352.0,0.5555555555555556,1,object_03,5,2108,0,5,3,forest_13,2,memory-2step-stake-s,647,2392332,0.0-18.0-0.1-0.151,3962,4,3
152,4,object_02,object_06,729.0,8,1,426.0,0.6666666666666666,2,object_07,1,2114,0,8,6,restaurant_20,2,memory-2step-stake-s,648,2400584,0.0-18.0-0.1-0.152,3962,8,7
153,2,object_09,object_01,751.0,4,1,490.0,0.6666666666666666,2,object_07,5,2144,0,6,6,forest_18,2,memory-2step-stake-s,649,2408897,0.0-18.0-0.1-0.153,3962,4,3
154,4,object_06,object_02,1175.0,7,1,465.0,0.4444444444444444,1,object_03,1,2148,0,4,4,restaurant_22,2,memory-2step-stake-s,650,2416981,0.0-18.0-0.1-0.154,3962,7,8
155,1,object_05,object_08,978.0,1,1,408.0,0.6666666666666666,1,object_03,1,2154,0,6,4,desert_32,2,memory-2step-stake-s,651,2425212,0.0-18.0-0.1-0.155,3962,1,2
156,3,object_04,object_10,836.0,5,2,528.0,0.2222222222222222,1,object_03,1,2156,0,2,4,library_3,2,memory-2step-stake-s,652,2433158,0.0-18.0-0.1-0.156,3962,6,5
157,1,object_08,object_05,964.0,2,1,559.0,0.5555555555555556,2,object_07,5,2181,0,1,5,desert_20,2,memory-2step-stake-s,653,2441439,0.0-18.0-0.1-0.157,3962,2,1
158,3,object_10,object_04,1064.0,6,2,458.0,0.6666666666666666,2,object_07,5,2211,0,1,6,library_30,2,memory-2step-stake-s,654,2449723,0.0-18.0-0.1-0.158,3962,5,6
159,4,object_02,object_06,1062.0,7,2,340.0,0.3333333333333333,1,object_03,1,2214,0,3,7,restaurant_29,2,memory-2step-stake-s,655,2457583,0.0-18.0-0.1-0.159,3962,8,7
160,2,object_01,object_09,640.0,4,2,390.0,0.3333333333333333,2,object_07,5,2229,0,5,3,forest_7,2,memory-2step-stake-s,656,2465491,0.0-18.0-0.1-0.160,3962,3,4
161,4,object_02,object_06,927.0,7,2,281.0,0.5555555555555556,1,object_03,1,2234,0,5,1,restaurant_7,2,memory-2step-stake-s,657,2473494,0.0-18.0-0.1-0.161,3962,8,7
162,4,object_06,object_02,785.0,7,1,326.0,0.4444444444444444,1,object_03,1,2238,0,4,4,restaurant_26,2,memory-2step-stake-s,658,2481440,0.0-18.0-0.1-0.162,3962,7,8
163,2,object_09,object_01,659.0,4,1,414.0,0.4444444444444444,2,object_07,1,2242,0,6,4,forest_13,2,memory-2step-stake-s,659,2489475,0.0-18.0-0.1-0.163,3962,4,3
164,2,object_09,object_01,610.0,4,1,359.0,0.4444444444444444,2,object_07,5,2262,0,7,4,forest_18,2,memory-2step-stake-s,660,2497453,0.0-18.0-0.1-0.164,3962,4,3
165,2,object_01,object_09,923.0,3,1,432.0,0.5555555555555556,1,object_03,5,2287,0,5,4,forest_27,2,memory-2step-stake-s,661,2505607,0.0-18.0-0.1-0.165,3962,3,4
166,1,object_08,object_05,811.0,1,2,371.0,0.6666666666666666,1,object_03,5,2317,0,6,4,desert_22,2,memory-2step-stake-s,662,2513800,0.0-18.0-0.1-0.166,3962,2,1
167,3,object_10,object_04,1098.0,6,2,286.0,0.2222222222222222,2,object_07,1,2319,0,5,2,library_16,2,memory-2step-stake-s,663,2521505,0.0-18.0-0.1-0.167,3962,5,6
168,1,object_05,object_08,966.0,2,2,343.0,0.3333333333333333,2,object_07,5,2334,0,4,3,desert_20,2,memory-2step-stake-s,664,2529366,0.0-18.0-0.1-0.168,3962,1,2
169,3,object_04,object_10,999.0,6,1,295.0,0.4444444444444444,2,object_07,1,2338,0,4,4,library_7,2,memory-2step-stake-s,665,2537282,0.0-18.0-0.1-0.169,3962,6,5
170,2,object_01,object_09,880.0,4,2,463.0,0.1111111111111111,2,object_07,5,2343,0,6,1,forest_30,2,memory-2step-stake-s,666,2545062,0.0-18.0-0.1-0.170,3962,3,4
171,2,object_01,object_09,965.0,3,1,367.0,0.6666666666666666,1,object_03,5,2373,0,6,1,forest_14,2,memory-2step-stake-s,667,2553254,0.0-18.0-0.1-0.171,3962,3,4
172,1,object_05,object_08,1362.0,1,1,389.0,0.6666666666666666,1,object_03,5,2403,0,6,1,desert_11,2,memory-2step-stake-s,668,2561467,0.0-18.0-0.1-0.172,3962,1,2
173,2,object_09,object_01,1006.0,4,1,405.0,0.1111111111111111,2,object_07,1,2404,0,5,1,forest_13,2,memory-2step-stake-s,669,2569188,0.0-18.0-0.1-0.173,3962,4,3
174,3,object_10,object_04,1020.0,5,1,293.0,0.5555555555555556,1,object_03,1,2409,0,5,1,library_22,2,memory-2step-stake-s,670,2577202,0.0-18.0-0.1-0.174,3962,5,6
175,3,object_04,object_10,753.0,6,1,365.0,0.3333333333333333,2,object_07,1,2412,0,1,3,library_23,2,memory-2step-stake-s,671,2585088,0.0-18.0-0.1-0.175,3962,6,5
176,4,object_02,object_06,1322.0,7,2,341.0,0.0,1,object_03,5,2412,0,0,2,restaurant_10,2,memory-2step-stake-s,672,2592646,0.0-18.0-0.1-0.176,3962,8,7
177,2,object_01,object_09,977.0,4,2,369.0,0.3333333333333333,2,object_07,5,2427,0,0,3,forest_12,2,memory-2step-stake-s,673,2600535,0.0-18.0-0.1-0.177,3962,3,4
178,2,object_01,object_09,645.0,3,1,373.0,0.1111111111111111,1,object_03,1,2428,0,1,3,forest_10,2,memory-2step-stake-s,674,2608223,0.0-18.0-0.1-0.178,3962,3,4
179,4,object_02,object_06,982.0,8,1,326.0,0.3333333333333333,2,object_07,1,2431,0,2,3,restaurant_22,2,memory-2step-stake-s,675,2616070,0.0-18.0-0.1-0.179,3962,8,7
180,3,object_04,object_10,1283.0,6,1,365.0,0.5555555555555556,2,object_07,5,2456,0,6,5,library_20,2,memory-2step-stake-s,676,2624156,0.0-18.0-0.1-0.180,3962,6,5
181,4,object_06,object_02,1246.0,8,2,446.0,0.6666666666666666,2,object_07,1,2462,0,7,6,restaurant_28,2,memory-2step-stake-s,677,2632427,0.0-18.0-0.1-0.181,3962,7,8
182,2,object_09,object_01,670.0,4,1,385.0,0.4444444444444444,2,object_07,5,2482,0,6,4,forest_12,2,memory-2step-stake-s,678,2640434,0.0-18.0-0.1-0.182,3962,4,3
183,2,object_09,object_01,690.0,3,2,400.0,0.5555555555555556,1,object_03,5,2507,0,5,3,forest_6,2,memory-2step-stake-s,679,2648558,0.0-18.0-0.1-0.183,3962,4,3
184,3,object_10,object_04,865.0,6,2,460.0,0.1111111111111111,2,object_07,1,2508,0,7,1,library_22,2,memory-2step-stake-s,680,2656333,0.0-18.0-0.1-0.184,3962,5,6
185,2,object_01,object_09,690.0,4,2,319.0,0.3333333333333333,2,object_07,1,2511,0,6,3,forest_27,2,memory-2step-stake-s,681,2664173,0.0-18.0-0.1-0.185,3962,3,4
186,1,object_05,object_08,798.0,2,2,328.0,0.3333333333333333,2,object_07,5,2526,0,7,3,desert_4,2,memory-2step-stake-s,682,2672021,0.0-18.0-0.1-0.186,3962,1,2
187,4,object_06,object_02,795.0,7,1,366.0,0.6666666666666666,1,object_03,5,2556,0,6,7,restaurant_15,2,memory-2step-stake-s,683,2680212,0.0-18.0-0.1-0.187,3962,7,8
188,3,object_04,object_10,970.0,5,2,992.0,0.6666666666666666,1,object_03,1,2562,0,6,6,library_15,2,memory-2step-stake-s,684,2689030,0.0-18.0-0.1-0.188,3962,6,5
189,2,object_01,object_09,861.0,3,1,358.0,0.5555555555555556,1,object_03,5,2587,0,5,5,forest_11,2,memory-2step-stake-s,685,2697112,0.0-18.0-0.1-0.189,3962,3,4
190,3,object_04,object_10,804.0,6,1,397.0,0.2222222222222222,2,object_07,1,2589,0,6,2,library_13,2,memory-2step-stake-s,686,2704929,0.0-18.0-0.1-0.190,3962,6,5
191,3,object_04,object_10,841.0,5,2,401.0,0.7777777777777778,1,object_03,1,2596,0,7,2,library_25,2,memory-2step-stake-s,687,2713258,0.0-18.0-0.1-0.191,3962,6,5
192,1,object_08,object_05,826.0,1,2,467.0,0.4444444444444444,1,object_03,5,2616,0,4,2,desert_22,2,memory-2step-stake-s,688,2721347,0.0-18.0-0.1-0.192,3962,2,1
193,4,object_02,object_06,784.0,8,1,316.0,0.3333333333333333,2,object_07,5,2631,0,2,3,restaurant_22,2,memory-2step-stake-s,689,2729183,0.0-18.0-0.1-0.193,3962,8,7
194,3,object_04,object_10,812.0,5,2,425.0,0.0,1,object_03,1,2631,0,0,2,library_25,2,memory-2step-stake-s,690,2736826,0.0-18.0-0.1-0.194,3962,6,5
195,3,object_04,object_10,828.0,6,1,352.0,0.4444444444444444,2,object_07,5,2651,0,1,4,library_1,2,memory-2step-stake-s,691,2744799,0.0-18.0-0.1-0.195,3962,6,5
196,4,object_06,object_02,827.0,7,1,374.0,0.1111111111111111,1,object_03,1,2652,0,1,5,restaurant_25,2,memory-2step-stake-s,692,2752489,0.0-18.0-0.1-0.196,3962,7,8
197,1,object_05,object_08,702.0,2,2,411.0,0.4444444444444444,2,object_07,5,2672,0,4,4,desert_30,2,memory-2step-stake-s,693,2760525,0.0-18.0-0.1-0.197,3962,1,2
198,4,object_02,object_06,982.0,8,1,462.0,0.7777777777777778,2,object_07,5,2707,0,0,7,restaurant_26,2,memory-2step-stake-s,694,2768911,0.0-18.0-0.1-0.198,3962,8,7
199,4,object_06,object_02,898.0,8,2,383.0,0.6666666666666666,2,object_07,5,2737,0,2,6,restaurant_11,2,memory-2step-stake-s,695,2777118,0.0-18.0-0.1-0.199,3962,7,8
200,3,object_10,object_04,830.0,6,2,382.0,0.5555555555555556,2,object_07,5,2762,0,1,5,library_7,2,memory-2step-stake-s,696,2785223,0.0-18.0-0.1-0.200,3962,5,6
201,2,object_09,object_01,812.0,3,2,370.0,0.5555555555555556,1,object_03,5,2787,0,5,4,forest_30,2,memory-2step-stake-s,697,2793315,0.0-18.0-0.1-0.201,3962,4,3
202,3,object_10,object_04,1067.0,6,2,382.0,0.5555555555555556,2,object_07,5,2812,0,3,5,library_10,2,memory-2step-stake-s,698,2801420,0.0-18.0-0.1-0.202,3962,5,6
203,1,object_05,object_08,622.0,1,1,389.0,0.4444444444444444,1,object_03,1,2816,0,4,8,desert_15,2,memory-2step-stake-s,699,2809429,0.0-18.0-0.1-0.203,3962,1,2
204,1,object_05,object_08,647.0,2,2,393.0,0.7777777777777778,2,object_07,1,2823,0,2,7,desert_2,2,memory-2step-stake-s,700,2817732,0.0-18.0-0.1-0.204,3962,1,2
205,2,object_09,object_01,646.0,4,1,352.0,0.7777777777777778,2,object_07,5,2858,0,1,7,forest_22,2,memory-2step-stake-s,701,2825997,0.0-18.0-0.1-0.205,3962,4,3
206,4,object_06,object_02,709.0,8,2,474.0,1.0,2,object_07,1,2867,0,2,9,restaurant_10,2,memory-2step-stake-s,702,2834584,0.0-18.0-0.1-0.206,3962,7,8
207,1,object_05,object_08,764.0,2,2,391.0,0.7777777777777778,2,object_07,5,2902,0,2,7,desert_29,2,memory-2step-stake-s,703,2842885,0.0-18.0-0.1-0.207,3962,1,2
208,4,object_02,object_06,1457.0,8,1,441.0,0.5555555555555556,2,object_07,1,2907,0,5,5,restaurant_2,2,memory-2step-stake-s,704,2851039,0.0-18.0-0.1-0.208,3962,8,7
209,3,object_10,object_04,935.0,6,2,414.0,0.5555555555555556,2,object_07,1,2912,0,5,5,library_24,2,memory-2step-stake-s,705,2859174,0.0-18.0-0.1-0.209,3962,5,6
210,3,object_10,object_04,647.0,6,2,400.0,0.7777777777777778,2,object_07,5,2947,0,4,7,library_30,2,memory-2step-stake-s,706,2867499,0.0-18.0-0.1-0.210,3962,5,6
211,3,object_10,object_04,686.0,6,2,317.0,1.0,2,object_07,5,2992,0,6,9,library_14,2,memory-2step-stake-s,707,2875945,0.0-18.0-0.1-0.211,3962,5,6
212,1,object_05,object_08,636.0,2,2,503.0,1.0,2,object_07,5,3037,0,6,9,desert_13,2,memory-2step-stake-s,708,2884575,0.0-18.0-0.1-0.212,3962,1,2
213,2,object_01,object_09,973.0,4,2,572.0,0.6666666666666666,2,object_07,5,3067,0,9,6,forest_26,2,memory-2step-stake-s,709,2892970,0.0-18.0-0.1-0.213,3962,3,4
214,4,object_06,object_02,675.0,7,1,477.0,0.7777777777777778,1,object_03,1,3074,0,7,9,restaurant_7,2,memory-2step-stake-s,710,2901375,0.0-18.0-0.1-0.214,3962,7,8
215,4,object_06,object_02,670.0,8,2,451.0,0.7777777777777778,2,object_07,5,3109,0,7,7,restaurant_24,2,memory-2step-stake-s,711,2909750,0.0-18.0-0.1-0.215,3962,7,8
216,2,object_01,object_09,694.0,4,2,337.0,1.0,2,object_07,5,3154,0,7,9,forest_12,2,memory-2step-stake-s,712,2918216,0.0-18.0-0.1-0.216,3962,3,4
217,3,object_10,object_04,941.0,5,1,369.0,0.8888888888888888,1,object_03,1,3162,0,8,5,library_31,2,memory-2step-stake-s,713,2926613,0.0-18.0-0.1-0.217,3962,5,6
218,1,object_08,object_05,783.0,1,2,452.0,0.7777777777777778,1,object_03,1,3169,0,7,3,desert_12,2,memory-2step-stake-s,714,2934990,0.0-18.0-0.1-0.218,3962,2,1
219,3,object_10,object_04,712.0,6,2,350.0,0.1111111111111111,2,object_07,5,3174,0,4,1,library_23,2,memory-2step-stake-s,715,2942660,0.0-18.0-0.1-0.219,3962,5,6
220,4,object_02,object_06,746.0,7,2,375.0,0.4444444444444444,1,object_03,1,3178,0,4,0,restaurant_15,2,memory-2step-stake-s,716,2950656,0.0-18.0-0.1-0.220,3962,8,7
221,4,object_02,object_06,759.0,7,2,387.0,0.6666666666666666,1,object_03,5,3208,0,6,1,restaurant_1,2,memory-2step-stake-s,717,2958866,0.0-18.0-0.1-0.221,3962,8,7
222,2,object_01,object_09,679.0,3,1,401.0,0.5555555555555556,1,object_03,5,3233,0,5,2,forest_26,2,memory-2step-stake-s,718,2966988,0.0-18.0-0.1-0.222,3962,3,4
223,4,object_02,object_06,1002.0,7,2,448.0,0.6666666666666666,1,object_03,1,3239,0,6,0,restaurant_15,2,memory-2step-stake-s,719,2975263,0.0-18.0-0.1-0.223,3962,8,7
224,3,object_10,object_04,997.0,5,1,392.0,0.6666666666666666,1,object_03,1,3245,0,6,3,library_24,2,memory-2step-stake-s,720,2983480,0.0-18.0-0.1-0.224,3962,5,6
225,1,object_05,object_08,731.0,2,2,312.0,0.7777777777777778,2,object_07,1,3252,0,6,7,desert_20,2,memory-2step-stake-s,721,2991718,0.0-18.0-0.1-0.225,3962,1,2
226,4,object_02,object_06,735.0,7,2,322.0,1.0,1,object_03,1,3261,0,9,8,restaurant_11,2,memory-2step-stake-s,722,3000167,0.0-18.0-0.1-0.226,3962,8,7
227,2,object_01,object_09,876.0,3,1,378.0,0.8888888888888888,1,object_03,5,3301,0,8,7,forest_22,2,memory-2step-stake-s,723,3008571,0.0-18.0-0.1-0.227,3962,3,4
228,2,object_01,object_09,698.0,4,2,383.0,1.0,2,object_07,5,3346,0,5,9,forest_10,2,memory-2step-stake-s,724,3017081,0.0-18.0-0.1-0.228,3962,3,4
229,4,object_06,object_02,840.0,7,1,474.0,0.8888888888888888,1,object_03,1,3354,0,8,8,restaurant_20,2,memory-2step-stake-s,725,3025583,0.0-18.0-0.1-0.229,3962,7,8
230,2,object_01,object_09,666.0,4,2,350.0,0.6666666666666666,2,object_07,5,3384,0,8,6,forest_27,2,memory-2step-stake-s,726,3033756,0.0-18.0-0.1-0.230,3962,3,4
231,1,object_05,object_08,760.0,2,2,347.0,0.7777777777777778,2,object_07,5,3419,0,9,7,desert_32,2,memory-2step-stake-s,727,3042026,0.0-18.0-0.1-0.231,3962,1,2
232,4,object_06,object_02,541.0,7,1,403.0,1.0,1,object_03,1,3428,0,9,6,restaurant_11,2,memory-2step-stake-s,728,3050560,0.0-18.0-0.1-0.232,3962,7,8
233,2,object_01,object_09,760.0,3,1,339.0,0.8888888888888888,1,object_03,1,3436,0,8,5,forest_30,2,memory-2step-stake-s,729,3058925,0.0-18.0-0.1-0.233,3962,3,4
234,1,object_05,object_08,900.0,1,1,583.0,1.0,1,object_03,5,3481,0,9,4,desert_32,2,memory-2step-stake-s,730,3067636,0.0-18.0-0.1-0.234,3962,1,2
235,4,object_02,object_06,1220.0,8,1,428.0,0.4444444444444444,2,object_07,1,3485,0,8,4,restaurant_29,2,memory-2step-stake-s,731,3075688,0.0-18.0-0.1-0.235,3962,8,7
236,3,object_04,object_10,1144.0,6,1,477.0,0.4444444444444444,2,object_07,1,3489,0,7,4,library_13,2,memory-2step-stake-s,732,3083787,0.0-18.0-0.1-0.236,3962,6,5
237,3,object_04,object_10,817.0,5,2,374.0,1.0,1,object_03,1,3498,0,9,3,library_20,2,memory-2step-stake-s,733,3092289,0.0-18.0-0.1-0.237,3962,6,5
238,4,object_06,object_02,1000.0,7,1,401.0,0.8888888888888888,1,object_03,1,3506,0,8,3,restaurant_12,2,memory-2step-stake-s,734,3100718,0.0-18.0-0.1-0.238,3962,7,8
239,4,object_02,object_06,838.0,7,2,407.0,0.7777777777777778,1,object_03,5,3541,0,7,4,restaurant_2,2,memory-2step-stake-s,735,3109053,0.0-18.0-0.1-0.239,3962,8,7
240,3,object_04,object_10,1127.0,5,2,516.0,0.7777777777777778,1,object_03,5,3576,0,7,1,library_13,2,memory-2step-stake-s,736,3117495,0.0-18.0-0.1-0.240,3962,6,5
241,3,object_10,object_04,686.0,6,2,408.0,0.3333333333333333,2,object_07,1,3579,0,8,3,library_8,2,memory-2step-stake-s,737,3125423,0.0-18.0-0.1-0.241,3962,5,6
242,4,object_02,object_06,719.0,7,2,514.0,0.7777777777777778,1,object_03,1,3586,0,7,2,restaurant_27,2,memory-2step-stake-s,738,3133862,0.0-18.0-0.1-0.242,3962,8,7
243,3,object_10,object_04,867.0,5,1,433.0,0.8888888888888888,1,object_03,1,3594,0,8,0,library_23,2,memory-2step-stake-s,739,3142324,0.0-18.0-0.1-0.243,3962,5,6
244,2,object_01,object_09,757.0,4,2,397.0,0.1111111111111111,2,object_07,1,3595,0,6,1,forest_27,2,memory-2step-stake-s,740,3150038,0.0-18.0-0.1-0.244,3962,3,4
245,2,object_09,object_01,871.0,3,2,346.0,0.8888888888888888,1,object_03,1,3603,0,8,2,forest_16,2,memory-2step-stake-s,741,3158410,0.0-18.0-0.1-0.245,3962,4,3
246,2,object_01,object_09,679.0,3,1,418.0,1.0,1,object_03,1,3612,0,9,1,forest_22,2,memory-2step-stake-s,742,3166955,0.0-18.0-0.1-0.246,3962,3,4
247,4,object_02,object_06,1193.0,7,2,575.0,0.6666666666666666,1,object_03,1,3618,0,6,1,restaurant_25,2,memory-2step-stake-s,743,3175350,0.0-18.0-0.1-0.247,3962,8,7
248,2,object_09,object_01,1191.0,3,2,438.0,0.3333333333333333,1,object_03,5,3633,0,3,1,forest_6,2,memory-2step-stake-s,744,3183306,0.0-18.0-0.1-0.248,3962,4,3
249,4,object_06,object_02,1090.0,8,2,370.0,0.2222222222222222,2,object_07,1,3635,0,2,2,restaurant_25,2,memory-2step-stake-s,745,3191096,0.0-18.0-0.1-0.249,3962,7,8
250,1,object_08,object_05,1016.0,1,2,387.0,0.2222222222222222,1,object_03,5,3645,0,2,2,desert_24,2,memory-2step-stake-s,746,3198904,0.0-18.0-0.1-0.250,3962,2,1
251,3,object_04,object_10,1006.0,6,1,349.0,0.3333333333333333,2,object_07,1,3648,0,1,3,library_1,2,memory-2step-stake-s,747,3206775,0.0-18.0-0.1-0.251,3962,6,5
252,2,object_01,object_09,996.0,4,2,335.0,0.1111111111111111,2,object_07,5,3653,0,2,1,forest_21,2,memory-2step-stake-s,748,3214429,0.0-18.0-0.1-0.252,3962,3,4
253,1,object_05,object_08,750.0,2,2,327.0,0.4444444444444444,2,object_07,5,3673,0,2,4,desert_28,2,memory-2step-stake-s,749,3222379,0.0-18.0-0.1-0.253,3962,1,2
254,1,object_08,object_05,1176.0,1,2,330.0,0.2222222222222222,1,object_03,5,3683,0,2,3,desert_28,2,memory-2step-stake-s,750,3230127,0.0-18.0-0.1-0.254,3962,2,1
255,3,object_04,object_10,1009.0,5,2,341.0,0.4444444444444444,1,object_03,1,3687,0,4,2,library_8,2,memory-2step-stake-s,751,3238092,0.0-18.0-0.1-0.255,3962,6,5
