,state1,stim_left,stim_right,rt_1,choice1,response1,rt_2,points,state2,stim_state2,stake,score,practice,rews1,rews2,background,high_arm,trial_type,trial_index,time_elapsed,internal_node_id,subid,stim_left_num,stim_right_num
0,3,object_08,object_05,765.28,6,1,-1.0,0.0,2,object_07,1,0,0,6,4,library_14,2,memory-2step-stake-s,644,1271141,0.0-18.0-0.0-0.0,4213,6,5
1,3,object_08,object_05,622.925,5,2,1120.795,0.5555555555555556,1,object_03,1,5,0,5,5,library_20,2,memory-2step-stake-s,645,1279982,0.0-18.0-0.0-0.1,4213,6,5
2,1,object_09,object_10,728.65,1,1,731.135,0.4444444444444444,1,object_03,5,25,0,4,2,desert_13,2,memory-2step-stake-s,646,1288334,0.0-18.0-0.0-0.2,4213,1,2
3,2,object_02,object_06,507.485,4,2,732.985,0.1111111111111111,2,object_07,5,30,0,4,1,forest_22,2,memory-2step-stake-s,647,1296382,0.0-18.0-0.0-0.3,4213,3,4
4,3,object_08,object_05,469.37,6,1,476.305,0.4444444444444444,2,object_07,1,34,0,3,4,library_14,2,memory-2step-stake-s,648,1304475,0.0-18.0-0.0-0.4,4213,6,5
5,2,object_06,object_02,377.045,4,1,526.945,0.4444444444444444,2,object_07,5,54,0,7,4,forest_25,2,memory-2step-stake-s,649,1312621,0.0-18.0-0.0-0.5,4213,4,3
6,4,object_04,object_01,630.16,7,1,709.355,0.4444444444444444,1,object_03,5,74,0,4,5,restaurant_6,2,memory-2step-stake-s,650,1320949,0.0-18.0-0.0-0.6,4213,7,8
7,4,object_01,object_04,525.42,8,1,694.805,0.5555555555555556,2,object_07,1,79,0,6,5,restaurant_9,2,memory-2step-stake-s,651,1329361,0.0-18.0-0.0-0.7,4213,8,7
8,1,object_09,object_10,570.865,2,2,454.485,0.7777777777777778,2,object_07,5,114,0,7,7,desert_3,2,memory-2step-stake-s,652,1337736,0.0-18.0-0.0-0.8,4213,1,2
9,1,object_10,object_09,361.77,1,2,324.315,0.8888888888888888,1,object_03,1,122,0,8,8,desert_5,2,memory-2step-stake-s,653,1346080,0.0-18.0-0.0-0.9,4213,2,1
10,1,object_09,object_10,199.52,2,2,-1.0,0.0,2,object_07,5,122,0,7,8,desert_1,2,memory-2step-stake-s,654,1354600,0.0-18.0-0.0-0.10,4213,1,2
11,4,object_04,object_01,545.23,7,1,347.115,0.7777777777777778,1,object_03,1,129,0,7,8,restaurant_7,2,memory-2step-stake-s,655,1362881,0.0-18.0-0.0-0.11,4213,7,8
12,1,object_10,object_09,499.765,2,1,393.155,1.0,2,object_07,5,174,0,9,9,desert_13,2,memory-2step-stake-s,656,1371400,0.0-18.0-0.0-0.12,4213,2,1
13,2,object_02,object_06,946.13,3,1,736.05,1.0,1,object_03,5,219,0,9,8,forest_23,2,memory-2step-stake-s,657,1380269,0.0-18.0-0.0-0.13,4213,3,4
14,3,object_08,object_05,669.59,5,2,897.005,1.0,1,object_03,1,228,0,9,8,library_29,2,memory-2step-stake-s,658,1389293,0.0-18.0-0.0-0.14,4213,6,5
15,1,object_09,object_10,1385.46,2,2,436.155,1.0,2,object_07,1,237,0,8,9,desert_13,2,memory-2step-stake-s,659,1397851,0.0-18.0-0.0-0.15,4213,1,2
16,2,object_02,object_06,502.2249999,4,2,815.6,0.8888888888888888,2,object_07,5,277,0,4,8,forest_4,2,memory-2step-stake-s,660,1406691,0.0-18.0-0.0-0.16,4213,3,4
17,3,object_08,object_05,333.405,5,2,924.72,0.2222222222222222,1,object_03,1,279,0,2,8,library_29,2,memory-2step-stake-s,661,1415045,0.0-18.0-0.0-0.17,4213,6,5
18,3,object_05,object_08,530.1,6,2,713.55,0.4444444444444444,2,object_07,5,299,0,2,4,library_13,2,memory-2step-stake-s,662,1423376,0.0-18.0-0.0-0.18,4213,5,6
19,4,object_04,object_01,510.195,8,2,454.64,0.0,2,object_07,1,299,0,2,0,restaurant_14,2,memory-2step-stake-s,663,1431043,0.0-18.0-0.0-0.19,4213,7,8
20,1,object_09,object_10,-1.0,-1,-1,-1.0,0.0,-,,5,299,0,4,1,desert_8,2,memory-2step-stake-s,664,1437552,0.0-18.0-0.0-0.20,4213,1,2
21,2,object_02,object_06,437.215,3,1,1039.05,0.4444444444444444,1,object_03,5,319,0,4,4,forest_23,2,memory-2step-stake-s,665,1446216,0.0-18.0-0.0-0.21,4213,3,4
22,2,object_06,object_02,529.935,4,1,404.89,0.1111111111111111,2,object_07,1,320,0,2,1,forest_18,2,memory-2step-stake-s,666,1453938,0.0-18.0-0.0-0.22,4213,4,3
23,3,object_08,object_05,469.59,6,1,402.485,0.2222222222222222,2,object_07,1,322,0,6,2,library_32,2,memory-2step-stake-s,667,1461754,0.0-18.0-0.0-0.23,4213,6,5
24,1,object_09,object_10,455.96,1,1,468.2,0.5555555555555556,1,object_03,5,347,0,5,0,desert_25,2,memory-2step-stake-s,668,1469940,0.0-18.0-0.0-0.24,4213,1,2
25,1,object_09,object_10,393.175,1,1,720.74,0.7777777777777778,1,object_03,5,382,0,7,2,desert_12,2,memory-2step-stake-s,669,1478591,0.0-18.0-0.0-0.25,4213,1,2
26,1,object_10,object_09,673.695,2,1,-1.0,0.0,2,object_07,5,382,0,6,1,desert_3,2,memory-2step-stake-s,670,1487105,0.0-18.0-0.0-0.26,4213,2,1
27,2,object_06,object_02,343.825,3,2,578.06,0.5555555555555556,1,object_03,5,407,0,5,6,forest_24,2,memory-2step-stake-s,671,1495404,0.0-18.0-0.0-0.27,4213,4,3
28,4,object_01,object_04,344.62,7,2,561.35,0.6666666666666666,1,object_03,1,413,0,6,8,restaurant_14,2,memory-2step-stake-s,672,1503795,0.0-18.0-0.0-0.28,4213,8,7
29,2,object_02,object_06,276.665,4,2,816.09,1.0,2,object_07,5,458,0,7,9,forest_24,2,memory-2step-stake-s,673,1512742,0.0-18.0-0.0-0.29,4213,3,4
30,2,object_02,object_06,455.95,4,2,1035.805,0.7777777777777778,2,object_07,1,465,0,7,7,forest_10,2,memory-2step-stake-s,674,1521713,0.0-18.0-0.0-0.30,4213,3,4
31,1,object_09,object_10,519.405,2,2,976.03,0.8888888888888888,2,object_07,5,505,0,9,8,desert_8,2,memory-2step-stake-s,675,1530710,0.0-18.0-0.0-0.31,4213,1,2
32,2,object_06,object_02,343.91,3,2,914.26,0.8888888888888888,1,object_03,5,545,0,8,6,forest_23,2,memory-2step-stake-s,676,1539645,0.0-18.0-0.0-0.32,4213,4,3
33,1,object_10,object_09,289.065,1,2,310.38,0.6666666666666666,1,object_03,5,575,0,6,6,desert_13,2,memory-2step-stake-s,677,1547771,0.0-18.0-0.0-0.33,4213,2,1
34,4,object_04,object_01,176.865,7,1,505.225,0.8888888888888888,1,object_03,1,583,0,8,6,restaurant_12,2,memory-2step-stake-s,678,1556300,0.0-18.0-0.0-0.34,4213,7,8
35,3,object_08,object_05,441.25,6,1,-1.0,0.0,2,object_07,1,583,0,8,8,library_7,2,memory-2step-stake-s,679,1564814,0.0-18.0-0.0-0.35,4213,6,5
36,2,object_02,object_06,-1.0,-1,-1,-1.0,0.0,-,,5,583,0,9,7,forest_3,2,memory-2step-stake-s,680,1571321,0.0-18.0-0.0-0.36,4213,3,4
37,1,object_10,object_09,415.075,2,1,-1.0,0.0,2,object_07,1,583,0,8,7,desert_28,2,memory-2step-stake-s,681,1579833,0.0-18.0-0.0-0.37,4213,2,1
38,3,object_05,object_08,322.465,5,1,1047.755,0.6666666666666666,1,object_03,1,589,0,6,6,library_8,2,memory-2step-stake-s,682,1588701,0.0-18.0-0.0-0.38,4213,5,6
39,2,object_02,object_06,417.55,3,1,1039.21,0.8888888888888888,1,object_03,5,629,0,8,6,forest_7,2,memory-2step-stake-s,683,1597759,0.0-18.0-0.0-0.39,4213,3,4
40,1,object_09,object_10,810.035,2,2,0.13,0.6666666666666666,2,object_07,5,659,0,5,6,desert_9,2,memory-2step-stake-s,684,1605580,0.0-18.0-0.0-0.40,4213,1,2
41,2,object_02,object_06,522.04,4,2,378.51,0.4444444444444444,2,object_07,5,679,0,4,4,forest_18,2,memory-2step-stake-s,685,1613575,0.0-18.0-0.0-0.41,4213,3,4
42,3,object_05,object_08,454.665,6,2,599.88,0.3333333333333333,2,object_07,5,694,0,4,3,library_7,2,memory-2step-stake-s,686,1621699,0.0-18.0-0.0-0.42,4213,5,6
43,3,object_08,object_05,373.315,5,2,398.67,0.5555555555555556,1,object_03,1,699,0,5,6,library_2,2,memory-2step-stake-s,687,1629817,0.0-18.0-0.0-0.43,4213,6,5
44,4,object_01,object_04,578.655,7,2,3.9649999819999997,0.5555555555555556,1,object_03,1,704,0,5,4,restaurant_5,2,memory-2step-stake-s,688,1637539,0.0-18.0-0.0-0.44,4213,8,7
45,2,object_06,object_02,469.49,3,2,-1.0,0.0,1,object_03,5,704,0,6,5,forest_26,2,memory-2step-stake-s,689,1646054,0.0-18.0-0.0-0.45,4213,4,3
46,3,object_05,object_08,-1.0,-1,-1,-1.0,0.0,-,,1,704,0,7,7,library_18,2,memory-2step-stake-s,690,1652564,0.0-18.0-0.0-0.46,4213,5,6
47,3,object_08,object_05,-1.0,-1,-1,-1.0,0.0,-,,1,704,0,9,8,library_1,2,memory-2step-stake-s,691,1659073,0.0-18.0-0.0-0.47,4213,6,5
48,3,object_08,object_05,503.165,6,1,1019.555,0.8888888888888888,2,object_07,1,712,0,8,8,library_20,2,memory-2step-stake-s,692,1668117,0.0-18.0-0.0-0.48,4213,6,5
49,1,object_09,object_10,250.885,2,2,451.835,0.5555555555555556,2,object_07,5,737,0,8,5,desert_25,2,memory-2step-stake-s,693,1676288,0.0-18.0-0.0-0.49,4213,1,2
50,1,object_09,object_10,239.27,2,2,392.655,0.4444444444444444,2,object_07,5,757,0,9,4,desert_14,2,memory-2step-stake-s,694,1684298,0.0-18.0-0.0-0.50,4213,1,2
51,2,object_02,object_06,325.2899999,3,1,745.165,0.7777777777777778,1,object_03,1,764,0,7,7,forest_13,2,memory-2step-stake-s,695,1692968,0.0-18.0-0.0-0.51,4213,3,4
52,3,object_05,object_08,454.47,5,1,95.38499999,0.6666666666666666,1,object_03,1,770,0,6,6,library_7,2,memory-2step-stake-s,696,1700884,0.0-18.0-0.0-0.52,4213,5,6
53,1,object_10,object_09,398.26,1,2,208.56,0.3333333333333333,1,object_03,1,773,0,3,5,desert_4,2,memory-2step-stake-s,697,1708610,0.0-18.0-0.0-0.53,4213,2,1
54,1,object_09,object_10,291.23,1,1,413.105,0.6666666666666666,1,object_03,5,803,0,6,7,desert_25,2,memory-2step-stake-s,698,1716844,0.0-18.0-0.0-0.54,4213,1,2
55,4,object_01,object_04,451.595,7,2,400.455,1.0,1,object_03,1,812,0,9,7,restaurant_12,2,memory-2step-stake-s,699,1725364,0.0-18.0-0.0-0.55,4213,8,7
56,4,object_04,object_01,428.285,7,1,727.525,0.8888888888888888,1,object_03,1,820,0,8,5,restaurant_21,2,memory-2step-stake-s,700,1734114,0.0-18.0-0.0-0.56,4213,7,8
57,1,object_09,object_10,267.075,1,1,1173.435,0.7777777777777778,1,object_03,5,855,0,7,7,desert_24,2,memory-2step-stake-s,701,1743212,0.0-18.0-0.0-0.57,4213,1,2
58,3,object_05,object_08,362.32,6,2,282.49,0.4444444444444444,2,object_07,1,859,0,8,4,library_29,2,memory-2step-stake-s,702,1751113,0.0-18.0-0.0-0.58,4213,5,6
59,4,object_01,object_04,412.33,8,1,502.115,0.5555555555555556,2,object_07,5,884,0,8,5,restaurant_5,2,memory-2step-stake-s,703,1759336,0.0-18.0-0.0-0.59,4213,8,7
60,4,object_04,object_01,422.7,8,2,429.38,0.2222222222222222,2,object_07,1,886,0,8,2,restaurant_25,2,memory-2step-stake-s,704,1767182,0.0-18.0-0.0-0.60,4213,7,8
61,3,object_05,object_08,62.89,5,1,485.65,0.8888888888888888,1,object_03,1,894,0,8,1,library_30,2,memory-2step-stake-s,705,1775689,0.0-18.0-0.0-0.61,4213,5,6
62,4,object_04,object_01,220.93,7,1,-1.0,0.0,1,object_03,1,894,0,9,1,restaurant_1,2,memory-2step-stake-s,706,1784201,0.0-18.0-0.0-0.62,4213,7,8
63,2,object_02,object_06,778.935,3,1,402.47,0.6666666666666666,1,object_03,5,924,0,6,0,forest_22,2,memory-2step-stake-s,707,1792424,0.0-18.0-0.0-0.63,4213,3,4
64,1,object_09,object_10,297.765,1,1,825.96,0.7777777777777778,1,object_03,5,959,0,7,0,desert_5,2,memory-2step-stake-s,708,1801170,0.0-18.0-0.0-0.64,4213,1,2
65,3,object_08,object_05,277.61,5,2,123.105,0.4444444444444444,1,object_03,1,963,0,4,5,library_8,2,memory-2step-stake-s,709,1808911,0.0-18.0-0.0-0.65,4213,6,5
66,2,object_06,object_02,513.28,3,2,355.045,0.3333333333333333,1,object_03,5,978,0,3,7,forest_9,2,memory-2step-stake-s,710,1816784,0.0-18.0-0.0-0.66,4213,4,3
67,4,object_04,object_01,415.895,8,2,309.69,0.6666666666666666,2,object_07,1,984,0,7,6,restaurant_3,2,memory-2step-stake-s,711,1824911,0.0-18.0-0.0-0.67,4213,7,8
68,2,object_06,object_02,567.44,3,2,394.49,0.6666666666666666,1,object_03,1,990,0,6,6,forest_22,2,memory-2step-stake-s,712,1833134,0.0-18.0-0.0-0.68,4213,4,3
69,1,object_09,object_10,-1.0,-1,-1,-1.0,0.0,-,,5,990,0,9,6,desert_25,2,memory-2step-stake-s,713,1839645,0.0-18.0-0.0-0.69,4213,1,2
70,1,object_09,object_10,-1.0,-1,-1,-1.0,0.0,-,,5,990,0,8,7,desert_4,2,memory-2step-stake-s,714,1846153,0.0-18.0-0.0-0.70,4213,1,2
71,4,object_01,object_04,-1.0,-1,-1,-1.0,0.0,-,,1,990,0,7,5,restaurant_21,2,memory-2step-stake-s,715,1852659,0.0-18.0-0.0-0.71,4213,8,7
72,2,object_02,object_06,-1.0,-1,-1,-1.0,0.0,-,,5,990,0,4,8,forest_20,2,memory-2step-stake-s,716,1859186,0.0-18.0-0.0-0.72,4213,3,4
73,4,object_01,object_04,-1.0,-1,-1,-1.0,0.0,-,,1,990,0,6,7,restaurant_22,2,memory-2step-stake-s,717,1865695,0.0-18.0-0.0-0.73,4213,8,7
74,1,object_10,object_09,210.85,2,1,693.26,0.8888888888888888,2,object_07,5,1030,0,5,8,desert_14,2,memory-2step-stake-s,718,1874409,0.0-18.0-0.0-0.74,4213,2,1
75,3,object_05,object_08,233.18,5,1,482.385,0.7777777777777778,1,object_03,1,1037,0,7,8,library_8,2,memory-2step-stake-s,719,1882810,0.0-18.0-0.0-0.75,4213,5,6
76,1,object_10,object_09,208.765,2,1,69.50499996,0.4444444444444444,2,object_07,5,1057,0,7,4,desert_3,2,memory-2step-stake-s,720,1890494,0.0-18.0-0.0-0.76,4213,2,1
77,4,object_04,object_01,99.90000003,7,1,661.54,0.6666666666666666,1,object_03,5,1087,0,6,0,restaurant_26,2,memory-2step-stake-s,721,1898975,0.0-18.0-0.0-0.77,4213,7,8
78,4,object_04,object_01,546.97,7,1,418.675,0.7777777777777778,1,object_03,1,1094,0,7,0,restaurant_21,2,memory-2step-stake-s,722,1907314,0.0-18.0-0.0-0.78,4213,7,8
79,3,object_05,object_08,597.615,5,1,276.015,1.0,1,object_03,1,1103,0,9,1,library_20,2,memory-2step-stake-s,723,1915713,0.0-18.0-0.0-0.79,4213,5,6
80,4,object_01,object_04,574.93,8,1,395.005,0.2222222222222222,2,object_07,1,1105,0,7,2,restaurant_26,2,memory-2step-stake-s,724,1923521,0.0-18.0-0.0-0.80,4213,8,7
81,3,object_05,object_08,624.895,5,1,290.055,0.8888888888888888,1,object_03,1,1113,0,8,2,library_24,2,memory-2step-stake-s,725,1931835,0.0-18.0-0.0-0.81,4213,5,6
82,4,object_04,object_01,565.93,7,1,343.28,0.7777777777777778,1,object_03,1,1120,0,7,5,restaurant_3,2,memory-2step-stake-s,726,1940106,0.0-18.0-0.0-0.82,4213,7,8
83,2,object_06,object_02,91.56500001,3,2,34.44000002,0.6666666666666666,1,object_03,5,1150,0,6,6,forest_7,2,memory-2step-stake-s,727,1947957,0.0-18.0-0.0-0.83,4213,4,3
84,4,object_01,object_04,12.92000001,7,2,736.79,0.6666666666666666,1,object_03,1,1156,0,6,4,restaurant_16,2,memory-2step-stake-s,728,1956513,0.0-18.0-0.0-0.84,4213,8,7
85,3,object_08,object_05,-1.0,-1,-1,-1.0,0.0,-,,1,1156,0,5,5,library_29,2,memory-2step-stake-s,729,1963032,0.0-18.0-0.0-0.85,4213,6,5
86,2,object_02,object_06,569.62,4,2,462.245,0.5555555555555556,2,object_07,1,1161,0,6,5,forest_16,2,memory-2step-stake-s,730,1971214,0.0-18.0-0.0-0.86,4213,3,4
87,3,object_05,object_08,310.46,6,2,292.5,0.4444444444444444,2,object_07,1,1165,0,7,4,library_13,2,memory-2step-stake-s,731,1979124,0.0-18.0-0.0-0.87,4213,5,6
88,3,object_08,object_05,15.68000001,6,1,302.86,0.6666666666666666,2,object_07,1,1171,0,6,6,library_16,2,memory-2step-stake-s,732,1987243,0.0-18.0-0.0-0.88,4213,6,5
89,1,object_10,object_09,74.24500003,1,2,692.215,1.0,1,object_03,5,1216,0,9,5,desert_23,2,memory-2step-stake-s,733,1996062,0.0-18.0-0.0-0.89,4213,2,1
90,1,object_09,object_10,89.12000002,2,2,304.985,0.7777777777777778,2,object_07,5,1251,0,8,7,desert_29,2,memory-2step-stake-s,734,2004283,0.0-18.0-0.0-0.90,4213,1,2
91,1,object_10,object_09,263.15,1,2,308.795,1.0,1,object_03,5,1296,0,9,8,desert_16,2,memory-2step-stake-s,735,2012714,0.0-18.0-0.0-0.91,4213,2,1
92,2,object_02,object_06,164.585,4,2,270.09,0.8888888888888888,2,object_07,1,1304,0,8,8,forest_10,2,memory-2step-stake-s,736,2021006,0.0-18.0-0.0-0.92,4213,3,4
93,2,object_02,object_06,276.435,4,2,97.35999996,0.8888888888888888,2,object_07,5,1344,0,9,8,forest_21,2,memory-2step-stake-s,737,2029123,0.0-18.0-0.0-0.93,4213,3,4
94,4,object_01,object_04,9.109999985,7,2,508.91,0.5555555555555556,1,object_03,1,1349,0,5,5,restaurant_2,2,memory-2step-stake-s,738,2037353,0.0-18.0-0.0-0.94,4213,8,7
95,3,object_08,object_05,200.28,5,2,273.235,0.3333333333333333,1,object_03,1,1352,0,3,7,library_8,2,memory-2step-stake-s,739,2045145,0.0-18.0-0.0-0.95,4213,6,5
96,3,object_08,object_05,285.16,5,2,149.265,0.4444444444444444,1,object_03,1,1356,0,4,9,library_23,2,memory-2step-stake-s,740,2052913,0.0-18.0-0.0-0.96,4213,6,5
97,4,object_04,object_01,95.47,7,1,5.23000001,0.5555555555555556,1,object_03,1,1361,0,5,8,restaurant_25,2,memory-2step-stake-s,741,2060635,0.0-18.0-0.0-0.97,4213,7,8
98,2,object_02,object_06,338.095,3,1,9.870000009,0.7777777777777778,1,object_03,1,1368,0,7,6,forest_18,2,memory-2step-stake-s,742,2068568,0.0-18.0-0.0-0.98,4213,3,4
99,4,object_04,object_01,240.995,7,1,249.315,0.7777777777777778,1,object_03,1,1375,0,7,3,restaurant_29,2,memory-2step-stake-s,743,2076738,0.0-18.0-0.0-0.99,4213,7,8
100,1,object_09,object_10,73.92,1,1,82.79499999,0.6666666666666666,1,object_03,1,1381,0,6,0,desert_9,2,memory-2step-stake-s,744,2084644,0.0-18.0-0.0-0.100,4213,1,2
101,1,object_10,object_09,297.13,2,1,643.61,0.2222222222222222,2,object_07,5,1391,0,5,2,desert_15,2,memory-2step-stake-s,745,2092703,0.0-18.0-0.0-0.101,4213,2,1
102,4,object_04,object_01,311.75,8,2,572.325,0.1111111111111111,2,object_07,1,1392,0,2,1,restaurant_16,2,memory-2step-stake-s,746,2100600,0.0-18.0-0.0-0.102,4213,7,8
103,4,object_01,object_04,189.69,7,2,199.485,0.3333333333333333,1,object_03,1,1395,0,3,1,restaurant_1,2,memory-2step-stake-s,747,2108315,0.0-18.0-0.0-0.103,4213,8,7
104,1,object_09,object_10,50.92999997,1,1,210.505,0.2222222222222222,1,object_03,5,1405,0,2,2,desert_4,2,memory-2step-stake-s,748,2115942,0.0-18.0-0.0-0.104,4213,1,2
105,4,object_01,object_04,268.05,8,1,109.805,0.1111111111111111,2,object_07,1,1406,0,1,1,restaurant_21,2,memory-2step-stake-s,749,2123365,0.0-18.0-0.0-0.105,4213,8,7
106,1,object_09,object_10,16.92999998,2,2,99.85499998,0.2222222222222222,2,object_07,5,1416,0,3,2,desert_28,2,memory-2step-stake-s,750,2130886,0.0-18.0-0.0-0.106,4213,1,2
107,1,object_09,object_10,417.825,2,2,140.285,0.2222222222222222,2,object_07,1,1418,0,1,2,desert_24,2,memory-2step-stake-s,751,2138439,0.0-18.0-0.0-0.107,4213,1,2
108,2,object_02,object_06,382.025,4,2,107.24,0.2222222222222222,2,object_07,5,1428,0,2,2,forest_9,2,memory-2step-stake-s,752,2145960,0.0-18.0-0.0-0.108,4213,3,4
109,4,object_04,object_01,248.555,8,2,578.68,0.6666666666666666,2,object_07,1,1434,0,4,6,restaurant_9,2,memory-2step-stake-s,753,2154360,0.0-18.0-0.0-0.109,4213,7,8
110,2,object_06,object_02,524.16,3,2,115.87,0.4444444444444444,1,object_03,5,1454,0,4,7,forest_16,2,memory-2step-stake-s,754,2162095,0.0-18.0-0.0-0.110,4213,4,3
111,1,object_10,object_09,759.0,1,2,610.965,0.3333333333333333,1,object_03,5,1469,0,3,6,desert_14,2,memory-2step-stake-s,755,2170239,0.0-18.0-0.0-0.111,4213,2,1
112,3,object_08,object_05,763.87,5,2,-1.0,0.0,1,object_03,1,1469,0,3,7,library_18,2,memory-2step-stake-s,756,2178754,0.0-18.0-0.0-0.112,4213,6,5
113,3,object_05,object_08,113.06,6,2,134.42,0.4444444444444444,2,object_07,5,1489,0,3,4,library_30,2,memory-2step-stake-s,757,2186506,0.0-18.0-0.0-0.113,4213,5,6
114,4,object_04,object_01,-1.0,-1,-1,-1.0,0.0,-,,5,1489,0,2,2,restaurant_3,2,memory-2step-stake-s,758,2193019,0.0-18.0-0.0-0.114,4213,7,8
115,2,object_02,object_06,-1.0,-1,-1,-1.0,0.0,-,,1,1489,0,4,4,forest_20,2,memory-2step-stake-s,759,2199528,0.0-18.0-0.0-0.115,4213,3,4
116,2,object_02,object_06,-1.0,-1,-1,-1.0,0.0,-,,5,1489,0,6,4,forest_10,2,memory-2step-stake-s,760,2206035,0.0-18.0-0.0-0.116,4213,3,4
117,2,object_06,object_02,-1.0,-1,-1,-1.0,0.0,-,,1,1489,0,2,1,forest_24,2,memory-2step-stake-s,761,2212545,0.0-18.0-0.0-0.117,4213,4,3
118,2,object_06,object_02,276.625,4,1,755.205,0.3333333333333333,2,object_07,5,1504,0,3,3,forest_4,2,memory-2step-stake-s,762,2220821,0.0-18.0-0.0-0.118,4213,4,3
119,3,object_08,object_05,151.85,6,1,-1.0,0.0,2,object_07,1,1504,0,1,7,library_23,2,memory-2step-stake-s,763,2229336,0.0-18.0-0.0-0.119,4213,6,5
120,1,object_10,object_09,-1.0,-1,-1,-1.0,0.0,-,,1,1504,0,2,3,desert_5,2,memory-2step-stake-s,764,2235843,0.0-18.0-0.0-0.120,4213,2,1
121,4,object_01,object_04,724.1,7,2,-1.0,0.0,1,object_03,1,1504,0,0,0,restaurant_7,2,memory-2step-stake-s,765,2244356,0.0-18.0-0.0-0.121,4213,8,7
122,3,object_08,object_05,501.66,5,2,189.665,0.0,1,object_03,5,1504,0,0,0,library_24,2,memory-2step-stake-s,766,2251762,0.0-18.0-0.0-0.122,4213,6,5
123,3,object_08,object_05,32.69999998,5,2,109.765,0.0,1,object_03,1,1504,0,0,2,library_1,2,memory-2step-stake-s,767,2259085,0.0-18.0-0.0-0.123,4213,6,5
124,4,object_01,object_04,74.62000003,8,1,280.815,0.2222222222222222,2,object_07,1,1506,0,3,2,restaurant_22,2,memory-2step-stake-s,768,2266780,0.0-18.0-0.0-0.124,4213,8,7
125,1,object_09,object_10,315.405,1,1,88.89000001,0.1111111111111111,1,object_03,5,1511,0,1,3,desert_1,2,memory-2step-stake-s,769,2274183,0.0-18.0-0.0-0.125,4213,1,2
126,3,object_08,object_05,408.2,6,1,914.59,0.2222222222222222,2,object_07,5,1521,0,0,2,library_11,2,memory-2step-stake-s,770,2282511,0.0-18.0-0.0-0.126,4213,6,5
127,3,object_08,object_05,235.94,6,1,486.255,0.3333333333333333,2,object_07,1,1524,0,1,3,library_1,2,memory-2step-stake-s,771,2290513,0.0-18.0-0.0-0.127,4213,6,5
128,3,object_08,object_05,287.495,6,1,11.94500003,0.3333333333333333,2,object_07,1,1527,0,3,3,library_14,2,memory-2step-stake-s,773,2298263,0.0-18.0-0.1-0.128,4213,6,5
129,2,object_06,object_02,250.92,4,1,363.405,0.6666666666666666,2,object_07,5,1557,0,1,6,forest_4,2,memory-2step-stake-s,774,2306448,0.0-18.0-0.1-0.129,4213,4,3
130,3,object_05,object_08,351.64,5,1,815.18,0.2222222222222222,1,object_03,5,1567,0,2,8,library_13,2,memory-2step-stake-s,775,2314676,0.0-18.0-0.1-0.130,4213,5,6
131,3,object_05,object_08,328.02,5,1,64.97000001,0.4444444444444444,1,object_03,1,1571,0,4,5,library_24,2,memory-2step-stake-s,776,2322359,0.0-18.0-0.1-0.131,4213,5,6
132,3,object_08,object_05,237.9900001,5,2,39.01999997,0.5555555555555556,1,object_03,1,1576,0,5,9,library_30,2,memory-2step-stake-s,777,2330121,0.0-18.0-0.1-0.132,4213,6,5
133,3,object_05,object_08,124.115,6,2,598.755,0.7777777777777778,2,object_07,1,1583,0,4,7,library_16,2,memory-2step-stake-s,778,2338640,0.0-18.0-0.1-0.133,4213,5,6
134,4,object_04,object_01,584.35,8,2,225.025,0.5555555555555556,2,object_07,1,1588,0,6,5,restaurant_29,2,memory-2step-stake-s,779,2346587,0.0-18.0-0.1-0.134,4213,7,8
135,2,object_06,object_02,285.115,3,2,1221.115,0.7777777777777778,1,object_03,5,1623,0,7,4,forest_25,2,memory-2step-stake-s,780,2355729,0.0-18.0-0.1-0.135,4213,4,3
136,1,object_10,object_09,1288.845,1,2,144.825,1.0,1,object_03,5,1668,0,9,7,desert_16,2,memory-2step-stake-s,781,2363995,0.0-18.0-0.1-0.136,4213,2,1
137,4,object_04,object_01,457.66,8,2,444.56,0.3333333333333333,2,object_07,5,1683,0,7,3,restaurant_1,2,memory-2step-stake-s,782,2371956,0.0-18.0-0.1-0.137,4213,7,8
138,3,object_08,object_05,117.305,5,2,-1.0,0.0,1,object_03,5,1683,0,8,3,library_21,2,memory-2step-stake-s,783,2380473,0.0-18.0-0.1-0.138,4213,6,5
139,3,object_05,object_08,17.54999999,6,2,344.14,0.3333333333333333,2,object_07,1,1686,0,6,3,library_24,2,memory-2step-stake-s,784,2388330,0.0-18.0-0.1-0.139,4213,5,6
140,3,object_08,object_05,399.66,5,2,770.54,0.4444444444444444,1,object_03,1,1690,0,4,1,library_1,2,memory-2step-stake-s,785,2396716,0.0-18.0-0.1-0.140,4213,6,5
141,3,object_05,object_08,-1.0,-1,-1,-1.0,0.0,-,,1,1690,0,5,1,library_21,2,memory-2step-stake-s,786,2403225,0.0-18.0-0.1-0.141,4213,5,6
142,2,object_06,object_02,471.08,3,2,621.245,0.6666666666666666,1,object_03,5,1720,0,6,3,forest_10,2,memory-2step-stake-s,787,2411678,0.0-18.0-0.1-0.142,4213,4,3
143,2,object_06,object_02,3.63000005,4,1,311.695,0.3333333333333333,2,object_07,5,1735,0,6,3,forest_20,2,memory-2step-stake-s,788,2419507,0.0-18.0-0.1-0.143,4213,4,3
144,4,object_04,object_01,508.385,8,2,-1.0,0.0,2,object_07,1,1735,0,5,3,restaurant_7,2,memory-2step-stake-s,789,2428020,0.0-18.0-0.1-0.144,4213,7,8
145,1,object_10,object_09,164.31,1,2,-1.0,0.0,1,object_03,1,1735,0,1,5,desert_16,2,memory-2step-stake-s,790,2436532,0.0-18.0-0.1-0.145,4213,2,1
146,1,object_10,object_09,1193.005,1,2,1493.435,0.1111111111111111,1,object_03,5,1740,0,1,4,desert_15,2,memory-2step-stake-s,791,2445341,0.0-18.0-0.1-0.146,4213,2,1
147,1,object_10,object_09,395.665,1,2,650.245,0.0,1,object_03,5,1740,0,0,1,desert_8,2,memory-2step-stake-s,792,2453215,0.0-18.0-0.1-0.147,4213,2,1
148,3,object_05,object_08,482.23,6,2,453.15,0.2222222222222222,2,object_07,1,1742,0,5,2,library_21,2,memory-2step-stake-s,793,2461081,0.0-18.0-0.1-0.148,4213,5,6
149,2,object_02,object_06,718.69,4,2,369.31,0.1111111111111111,2,object_07,1,1743,0,2,1,forest_21,2,memory-2step-stake-s,794,2468765,0.0-18.0-0.1-0.149,4213,3,4
150,4,object_04,object_01,663.245,8,2,311.985,0.2222222222222222,2,object_07,1,1745,0,4,2,restaurant_25,2,memory-2step-stake-s,795,2476494,0.0-18.0-0.1-0.150,4213,7,8
151,4,object_04,object_01,223.145,7,1,686.715,0.4444444444444444,1,object_03,1,1749,0,4,1,restaurant_22,2,memory-2step-stake-s,796,2484797,0.0-18.0-0.1-0.151,4213,7,8
152,2,object_02,object_06,345.21,3,1,377.01,0.0,1,object_03,5,1749,0,0,4,forest_11,2,memory-2step-stake-s,797,2492394,0.0-18.0-0.1-0.152,4213,3,4
153,1,object_09,object_10,346.6,1,1,586.845,0.0,1,object_03,5,1749,0,0,3,desert_9,2,memory-2step-stake-s,798,2500193,0.0-18.0-0.1-0.153,4213,1,2
154,4,object_04,object_01,374.6,7,1,301.145,0.3333333333333333,1,object_03,1,1752,0,3,2,restaurant_3,2,memory-2step-stake-s,799,2508022,0.0-18.0-0.1-0.154,4213,7,8
155,4,object_01,object_04,290.395,8,1,387.105,0.2222222222222222,2,object_07,1,1754,0,3,2,restaurant_28,2,memory-2step-stake-s,800,2515834,0.0-18.0-0.1-0.155,4213,8,7
156,1,object_09,object_10,361.46,2,2,430.085,0.6666666666666666,2,object_07,5,1784,0,1,6,desert_12,2,memory-2step-stake-s,801,2524085,0.0-18.0-0.1-0.156,4213,1,2
157,4,object_04,object_01,238.375,8,2,986.83,0.5555555555555556,2,object_07,1,1789,0,1,5,restaurant_1,2,memory-2step-stake-s,802,2532795,0.0-18.0-0.1-0.157,4213,7,8
158,1,object_10,object_09,168.535,1,2,1465.795,0.2222222222222222,1,object_03,5,1799,0,2,1,desert_24,2,memory-2step-stake-s,803,2541688,0.0-18.0-0.1-0.158,4213,2,1
159,1,object_10,object_09,681.405,1,2,245.095,0.5555555555555556,1,object_03,1,1804,0,5,1,desert_28,2,memory-2step-stake-s,804,2549652,0.0-18.0-0.1-0.159,4213,2,1
160,3,object_08,object_05,1022.1,5,2,356.315,0.5555555555555556,1,object_03,1,1809,0,5,3,library_23,2,memory-2step-stake-s,805,2557727,0.0-18.0-0.1-0.160,4213,6,5
161,1,object_09,object_10,335.28,2,2,526.415,0.4444444444444444,2,object_07,5,1829,0,2,4,desert_23,2,memory-2step-stake-s,806,2565872,0.0-18.0-0.1-0.161,4213,1,2
162,2,object_02,object_06,105.01,4,2,120.215,0.3333333333333333,2,object_07,5,1844,0,1,3,forest_22,2,memory-2step-stake-s,807,2573507,0.0-18.0-0.1-0.162,4213,3,4
163,2,object_06,object_02,792.48,3,2,652.5950001,0.2222222222222222,1,object_03,5,1854,0,2,5,forest_13,2,memory-2step-stake-s,808,2581575,0.0-18.0-0.1-0.163,4213,4,3
164,2,object_02,object_06,544.615,3,1,169.2,0.2222222222222222,1,object_03,5,1864,0,2,5,forest_9,2,memory-2step-stake-s,809,2589171,0.0-18.0-0.1-0.164,4213,3,4
165,4,object_04,object_01,820.43,7,1,643.105,0.3333333333333333,1,object_03,1,1867,0,3,5,restaurant_14,2,memory-2step-stake-s,810,2597330,0.0-18.0-0.1-0.165,4213,7,8
166,3,object_05,object_08,696.815,5,1,609.31,0.2222222222222222,1,object_03,1,1869,0,2,5,library_7,2,memory-2step-stake-s,811,2605355,0.0-18.0-0.1-0.166,4213,5,6
167,2,object_02,object_06,230.02,3,1,282.25999989999997,0.1111111111111111,1,object_03,5,1874,0,1,3,forest_26,2,memory-2step-stake-s,812,2612952,0.0-18.0-0.1-0.167,4213,3,4
168,2,object_06,object_02,646.355,3,2,149.45,0.2222222222222222,1,object_03,5,1884,0,2,1,forest_4,2,memory-2step-stake-s,813,2620516,0.0-18.0-0.1-0.168,4213,4,3
169,1,object_09,object_10,651.675,2,2,465.91,0.1111111111111111,2,object_07,1,1885,0,1,1,desert_16,2,memory-2step-stake-s,814,2628295,0.0-18.0-0.1-0.169,4213,1,2
170,4,object_01,object_04,290.29,7,2,83.92500004,0.2222222222222222,1,object_03,1,1887,0,2,5,restaurant_28,2,memory-2step-stake-s,815,2635794,0.0-18.0-0.1-0.170,4213,8,7
171,4,object_04,object_01,294.605,8,2,228.18,0.4444444444444444,2,object_07,5,1907,0,0,4,restaurant_7,2,memory-2step-stake-s,816,2643639,0.0-18.0-0.1-0.171,4213,7,8
172,3,object_08,object_05,305.59,5,2,15.35999996,0.0,1,object_03,1,1907,0,0,6,library_32,2,memory-2step-stake-s,817,2650868,0.0-18.0-0.1-0.172,4213,6,5
173,4,object_04,object_01,373.12,8,2,247.175,0.4444444444444444,2,object_07,1,1911,0,1,4,restaurant_16,2,memory-2step-stake-s,818,2658734,0.0-18.0-0.1-0.173,4213,7,8
174,4,object_01,object_04,203.045,8,1,940.615,0.3333333333333333,2,object_07,1,1914,0,1,3,restaurant_28,2,memory-2step-stake-s,819,2667203,0.0-18.0-0.1-0.174,4213,8,7
175,2,object_06,object_02,918.005,3,2,65.68500004,0.1111111111111111,1,object_03,5,1919,0,1,6,forest_7,2,memory-2step-stake-s,820,2674583,0.0-18.0-0.1-0.175,4213,4,3
176,4,object_04,object_01,125.71,8,2,-1.0,0.0,2,object_07,1,1919,0,2,5,restaurant_6,2,memory-2step-stake-s,821,2683095,0.0-18.0-0.1-0.176,4213,7,8
177,2,object_06,object_02,412.775,4,1,61.97499996,0.3333333333333333,2,object_07,5,1934,0,0,3,forest_16,2,memory-2step-stake-s,822,2690672,0.0-18.0-0.1-0.177,4213,4,3
178,4,object_04,object_01,37.83500002,8,2,174.28,0.4444444444444444,2,object_07,1,1938,0,0,4,restaurant_5,2,memory-2step-stake-s,823,2698464,0.0-18.0-0.1-0.178,4213,7,8
179,2,object_06,object_02,218.78,4,1,25.07000003,0.5555555555555556,2,object_07,5,1963,0,2,5,forest_21,2,memory-2step-stake-s,824,2706209,0.0-18.0-0.1-0.179,4213,4,3
180,4,object_04,object_01,-1.0,-1,-1,-1.0,0.0,-,,1,1963,0,4,8,restaurant_5,2,memory-2step-stake-s,825,2712721,0.0-18.0-0.1-0.180,4213,7,8
181,1,object_10,object_09,-1.0,-1,-1,-1.0,0.0,-,,5,1963,0,6,8,desert_29,2,memory-2step-stake-s,826,2719238,0.0-18.0-0.1-0.181,4213,2,1
182,2,object_06,object_02,233.27,3,2,-1.0,0.0,1,object_03,5,1963,0,4,7,forest_25,2,memory-2step-stake-s,827,2727754,0.0-18.0-0.1-0.182,4213,4,3
183,1,object_10,object_09,516.215,1,2,15.92500001,0.4444444444444444,1,object_03,5,1983,0,4,5,desert_29,2,memory-2step-stake-s,828,2735387,0.0-18.0-0.1-0.183,4213,2,1
184,3,object_08,object_05,33.34999998,5,2,582.64,0.0,1,object_03,1,1983,0,0,7,library_18,2,memory-2step-stake-s,829,2743180,0.0-18.0-0.1-0.184,4213,6,5
185,2,object_02,object_06,391.41,4,2,1190.635,0.8888888888888888,2,object_07,5,2023,0,4,8,forest_11,2,memory-2step-stake-s,830,2752392,0.0-18.0-0.1-0.185,4213,3,4
186,4,object_04,object_01,721.56,8,2,168.93,0.6666666666666666,2,object_07,1,2029,0,6,6,restaurant_2,2,memory-2step-stake-s,831,2760390,0.0-18.0-0.1-0.186,4213,7,8
187,1,object_09,object_10,695.36,2,2,684.32,0.5555555555555556,2,object_07,5,2054,0,2,5,desert_5,2,memory-2step-stake-s,832,2768793,0.0-18.0-0.1-0.187,4213,1,2
188,3,object_05,object_08,-1.0,-1,-1,-1.0,0.0,-,,5,2054,0,3,5,library_23,2,memory-2step-stake-s,833,2775302,0.0-18.0-0.1-0.188,4213,5,6
189,4,object_04,object_01,403.42,8,2,557.915,0.4444444444444444,2,object_07,5,2074,0,5,4,restaurant_14,2,memory-2step-stake-s,834,2783477,0.0-18.0-0.1-0.189,4213,7,8
190,3,object_05,object_08,85.04500001,6,2,7.3049999770000005,0.5555555555555556,2,object_07,1,2079,0,5,5,library_2,2,memory-2step-stake-s,835,2791205,0.0-18.0-0.1-0.190,4213,5,6
191,1,object_09,object_10,493.94,2,2,788.515,0.6666666666666666,2,object_07,5,2109,0,2,6,desert_12,2,memory-2step-stake-s,836,2799819,0.0-18.0-0.1-0.191,4213,1,2
192,1,object_10,object_09,-1.0,-1,-1,-1.0,0.0,-,,5,2109,0,1,7,desert_9,2,memory-2step-stake-s,837,2806327,0.0-18.0-0.1-0.192,4213,2,1
193,2,object_02,object_06,145.88,4,2,750.765,0.5555555555555556,2,object_07,5,2134,0,0,5,forest_3,2,memory-2step-stake-s,838,2814805,0.0-18.0-0.1-0.193,4213,3,4
194,2,object_02,object_06,223.14,4,2,159.605,0.4444444444444444,2,object_07,5,2154,0,2,4,forest_13,2,memory-2step-stake-s,839,2822581,0.0-18.0-0.1-0.194,4213,3,4
195,3,object_08,object_05,11.28999999,6,1,102.885,0.4444444444444444,2,object_07,1,2158,0,1,4,library_21,2,memory-2step-stake-s,840,2830303,0.0-18.0-0.1-0.195,4213,6,5
196,4,object_01,object_04,393.705,8,1,481.15,0.6666666666666666,2,object_07,1,2164,0,3,6,restaurant_12,2,memory-2step-stake-s,841,2838604,0.0-18.0-0.1-0.196,4213,8,7
197,4,object_04,object_01,283.935,7,1,439.635,0.2222222222222222,1,object_03,1,2166,0,2,7,restaurant_12,2,memory-2step-stake-s,842,2846460,0.0-18.0-0.1-0.197,4213,7,8
198,1,object_09,object_10,747.44,1,1,384.24,0.3333333333333333,1,object_03,5,2181,0,3,7,desert_8,2,memory-2step-stake-s,843,2854369,0.0-18.0-0.1-0.198,4213,1,2
199,1,object_09,object_10,521.565,1,1,702.67,0.2222222222222222,1,object_03,5,2191,0,2,8,desert_12,2,memory-2step-stake-s,844,2862488,0.0-18.0-0.1-0.199,4213,1,2
200,1,object_09,object_10,562.05,1,1,833.48,0.0,1,object_03,5,2191,0,0,7,desert_15,2,memory-2step-stake-s,845,2870548,0.0-18.0-0.1-0.200,4213,1,2
201,2,object_06,object_02,60.79999998,4,1,147.085,0.8888888888888888,2,object_07,5,2231,0,2,8,forest_9,2,memory-2step-stake-s,846,2878719,0.0-18.0-0.1-0.201,4213,4,3
202,2,object_06,object_02,491.25,4,1,490.38,0.8888888888888888,2,object_07,5,2271,0,1,8,forest_20,2,memory-2step-stake-s,847,2887234,0.0-18.0-0.1-0.202,4213,4,3
203,3,object_05,object_08,255.79,5,1,194.335,0.0,1,object_03,1,2271,0,0,7,library_30,2,memory-2step-stake-s,848,2894643,0.0-18.0-0.1-0.203,4213,5,6
204,1,object_10,object_09,143.855,1,2,666.255,0.1111111111111111,1,object_03,5,2276,0,1,8,desert_3,2,memory-2step-stake-s,849,2902624,0.0-18.0-0.1-0.204,4213,2,1
205,3,object_05,object_08,737.225,6,2,270.825,0.7777777777777778,2,object_07,1,2283,0,1,7,library_11,2,memory-2step-stake-s,850,2910818,0.0-18.0-0.1-0.205,4213,5,6
206,2,object_06,object_02,520.77,3,2,254.335,0.0,1,object_03,1,2283,0,0,9,forest_11,2,memory-2step-stake-s,851,2918287,0.0-18.0-0.1-0.206,4213,4,3
207,3,object_05,object_08,-1.0,-1,-1,-1.0,0.0,-,,1,2283,0,0,7,library_11,2,memory-2step-stake-s,852,2924806,0.0-18.0-0.1-0.207,4213,5,6
208,3,object_05,object_08,-1.0,-1,-1,-1.0,0.0,-,,5,2283,0,1,5,library_32,2,memory-2step-stake-s,853,2931323,0.0-18.0-0.1-0.208,4213,5,6
209,4,object_04,object_01,465.05,8,2,655.88,0.6666666666666666,2,object_07,1,2289,0,2,6,restaurant_6,2,memory-2step-stake-s,854,2939813,0.0-18.0-0.1-0.209,4213,7,8
210,4,object_04,object_01,268.295,8,2,252.62,0.5555555555555556,2,object_07,1,2294,0,0,5,restaurant_22,2,memory-2step-stake-s,855,2947781,0.0-18.0-0.1-0.210,4213,7,8
211,2,object_02,object_06,474.7899999,4,2,-1.0,0.0,2,object_07,5,2294,0,2,7,forest_26,2,memory-2step-stake-s,856,2956297,0.0-18.0-0.1-0.211,4213,3,4
212,4,object_01,object_04,581.115,8,1,212.06,0.6666666666666666,2,object_07,1,2300,0,4,6,restaurant_6,2,memory-2step-stake-s,857,2964329,0.0-18.0-0.1-0.212,4213,8,7
213,2,object_02,object_06,449.305,3,1,16.305,1.0,1,object_03,5,2345,0,9,8,forest_7,2,memory-2step-stake-s,858,2972470,0.0-18.0-0.1-0.213,4213,3,4
214,2,object_06,object_02,109.99,4,1,274.755,0.6666666666666666,2,object_07,5,2375,0,8,6,forest_13,2,memory-2step-stake-s,859,2980580,0.0-18.0-0.1-0.214,4213,4,3
215,3,object_05,object_08,52.88500001,5,1,291.79,1.0,1,object_03,5,2420,0,9,5,library_20,2,memory-2step-stake-s,860,2988997,0.0-18.0-0.1-0.215,4213,5,6
216,2,object_06,object_02,211.945,4,1,780.56,0.7777777777777778,2,object_07,5,2455,0,8,7,forest_21,2,memory-2step-stake-s,861,2997700,0.0-18.0-0.1-0.216,4213,4,3
217,1,object_10,object_09,721.7,1,2,1297.71,0.8888888888888888,1,object_03,5,2495,0,8,7,desert_28,2,memory-2step-stake-s,862,3007020,0.0-18.0-0.1-0.217,4213,2,1
218,4,object_04,object_01,587.44,8,2,228.935,0.8888888888888888,2,object_07,5,2535,0,8,8,restaurant_9,2,memory-2step-stake-s,863,3015270,0.0-18.0-0.1-0.218,4213,7,8
219,1,object_09,object_10,79.09999997,2,2,354.355,0.6666666666666666,2,object_07,1,2541,0,8,6,desert_23,2,memory-2step-stake-s,864,3023464,0.0-18.0-0.1-0.219,4213,1,2
220,1,object_10,object_09,105.08,1,2,592.325,0.5555555555555556,1,object_03,5,2566,0,5,7,desert_4,2,memory-2step-stake-s,865,3031776,0.0-18.0-0.1-0.220,4213,2,1
221,2,object_02,object_06,496.145,4,2,107.305,0.4444444444444444,2,object_07,5,2586,0,3,4,forest_26,2,memory-2step-stake-s,866,3039500,0.0-18.0-0.1-0.221,4213,3,4
222,4,object_01,object_04,566.18,8,1,66.87499996,0.5555555555555556,2,object_07,1,2591,0,7,5,restaurant_26,2,memory-2step-stake-s,867,3047299,0.0-18.0-0.1-0.222,4213,8,7
223,4,object_01,object_04,311.81,7,2,929.465,0.8888888888888888,1,object_03,1,2599,0,8,1,restaurant_29,2,memory-2step-stake-s,868,3056249,0.0-18.0-0.1-0.223,4213,8,7
224,3,object_08,object_05,454.735,5,2,38.12000004,1.0,1,object_03,1,2608,0,9,2,library_11,2,memory-2step-stake-s,869,3064435,0.0-18.0-0.1-0.224,4213,6,5
225,3,object_05,object_08,402.54,5,1,687.24,0.7777777777777778,1,object_03,1,2615,0,7,0,library_18,2,memory-2step-stake-s,870,3073057,0.0-18.0-0.1-0.225,4213,5,6
226,2,object_06,object_02,145.32,4,1,598.845,0.5555555555555556,2,object_07,5,2640,0,5,5,forest_16,2,memory-2step-stake-s,871,3081389,0.0-18.0-0.1-0.226,4213,4,3
227,3,object_05,object_08,241.28,6,2,263.16,0.7777777777777778,2,object_07,1,2647,0,3,7,library_32,2,memory-2step-stake-s,872,3089571,0.0-18.0-0.1-0.227,4213,5,6
228,2,object_02,object_06,-1.0,-1,-1,-1.0,0.0,-,,5,2647,0,0,4,forest_18,2,memory-2step-stake-s,873,3096084,0.0-18.0-0.1-0.228,4213,3,4
229,4,object_01,object_04,414.23,7,2,315.74,0.2222222222222222,1,object_03,1,2649,0,2,3,restaurant_29,2,memory-2step-stake-s,874,3103816,0.0-18.0-0.1-0.229,4213,8,7
230,1,object_09,object_10,-1.0,-1,-1,-1.0,0.0,-,,1,2649,0,3,2,desert_24,2,memory-2step-stake-s,875,3110324,0.0-18.0-0.1-0.230,4213,1,2
231,3,object_05,object_08,400.78,5,1,72.79000001,0.2222222222222222,1,object_03,1,2651,0,2,1,library_13,2,memory-2step-stake-s,876,3117815,0.0-18.0-0.1-0.231,4213,5,6
232,2,object_06,object_02,262.59,4,1,285.105,0.3333333333333333,2,object_07,1,2654,0,3,3,forest_3,2,memory-2step-stake-s,877,3125614,0.0-18.0-0.1-0.232,4213,4,3
233,3,object_08,object_05,815.405,5,2,1023.965,0.6666666666666666,1,object_03,1,2660,0,6,5,library_2,2,memory-2step-stake-s,878,3134458,0.0-18.0-0.1-0.233,4213,6,5
234,2,object_06,object_02,352.775,3,2,835.895,0.6666666666666666,1,object_03,5,2690,0,6,5,forest_24,2,memory-2step-stake-s,879,3143112,0.0-18.0-0.1-0.234,4213,4,3
235,3,object_08,object_05,390.26,5,2,544.38,0.6666666666666666,1,object_03,5,2720,0,6,6,library_14,2,memory-2step-stake-s,880,3151476,0.0-18.0-0.1-0.235,4213,6,5
236,4,object_04,object_01,518.635,8,2,873.465,0.7777777777777778,2,object_07,1,2727,0,7,7,restaurant_9,2,memory-2step-stake-s,881,3160273,0.0-18.0-0.1-0.236,4213,7,8
237,4,object_04,object_01,268.865,8,2,881.64,0.8888888888888888,2,object_07,5,2767,0,7,8,restaurant_16,2,memory-2step-stake-s,882,3169178,0.0-18.0-0.1-0.237,4213,7,8
238,1,object_09,object_10,184.445,1,1,455.83,0.5555555555555556,1,object_03,5,2792,0,5,6,desert_29,2,memory-2step-stake-s,883,3177355,0.0-18.0-0.1-0.238,4213,1,2
239,4,object_01,object_04,243.75499989999997,8,1,339.425,0.5555555555555556,2,object_07,1,2797,0,6,5,restaurant_2,2,memory-2step-stake-s,884,3185413,0.0-18.0-0.1-0.239,4213,8,7
240,2,object_02,object_06,251.165,3,1,730.45,0.5555555555555556,1,object_03,5,2822,0,5,5,forest_11,2,memory-2step-stake-s,885,3193864,0.0-18.0-0.1-0.240,4213,3,4
241,1,object_10,object_09,81.94,1,2,322.68,0.7777777777777778,1,object_03,5,2857,0,7,3,desert_1,2,memory-2step-stake-s,886,3202109,0.0-18.0-0.1-0.241,4213,2,1
242,1,object_10,object_09,214.38,1,2,605.095,1.0,1,object_03,5,2902,0,9,1,desert_1,2,memory-2step-stake-s,887,3210851,0.0-18.0-0.1-0.242,4213,2,1
243,4,object_04,object_01,503.925,7,1,224.515,1.0,1,object_03,1,2911,0,9,3,restaurant_25,2,memory-2step-stake-s,888,3219210,0.0-18.0-0.1-0.243,4213,7,8
244,1,object_10,object_09,37.02499997,1,2,179.68,0.8888888888888888,1,object_03,5,2951,0,8,2,desert_14,2,memory-2step-stake-s,889,3227440,0.0-18.0-0.1-0.244,4213,2,1
245,3,object_08,object_05,63.35000001,6,1,372.455,0.0,2,object_07,1,2951,0,8,0,library_16,2,memory-2step-stake-s,890,3235025,0.0-18.0-0.1-0.245,4213,6,5
246,2,object_06,object_02,510.535,4,1,124.15,0.1111111111111111,2,object_07,5,2956,0,6,1,forest_23,2,memory-2step-stake-s,891,3242463,0.0-18.0-0.1-0.246,4213,4,3
247,1,object_09,object_10,34.70999998,1,1,637.875,0.4444444444444444,1,object_03,5,2976,0,4,2,desert_15,2,memory-2step-stake-s,892,3250716,0.0-18.0-0.1-0.247,4213,1,2
248,3,object_05,object_08,1181.27,5,1,301.175,0.3333333333333333,1,object_03,1,2979,0,3,5,library_16,2,memory-2step-stake-s,893,3258531,0.0-18.0-0.1-0.248,4213,5,6
249,1,object_09,object_10,-1.0,-1,-1,-1.0,0.0,-,,5,2979,0,4,4,desert_23,2,memory-2step-stake-s,894,3265042,0.0-18.0-0.1-0.249,4213,1,2
250,4,object_04,object_01,-1.0,-1,-1,-1.0,0.0,-,,1,2979,0,4,8,restaurant_28,2,memory-2step-stake-s,895,3271550,0.0-18.0-0.1-0.250,4213,7,8
251,4,object_04,object_01,459.7,8,2,90.26999999,0.7777777777777778,2,object_07,1,2986,0,5,7,restaurant_2,2,memory-2step-stake-s,896,3279562,0.0-18.0-0.1-0.251,4213,7,8
252,4,object_04,object_01,1109.865,8,2,2.374999982,0.5555555555555556,2,object_07,1,2991,0,7,5,restaurant_26,2,memory-2step-stake-s,897,3287286,0.0-18.0-0.1-0.252,4213,7,8
253,3,object_05,object_08,-1.0,-1,-1,-1.0,0.0,-,,1,2991,0,7,5,library_2,2,memory-2step-stake-s,898,3293796,0.0-18.0-0.1-0.253,4213,5,6
254,2,object_02,object_06,340.95,4,2,480.65,0.3333333333333333,2,object_07,5,3006,0,5,3,forest_25,2,memory-2step-stake-s,899,3301794,0.0-18.0-0.1-0.254,4213,3,4
255,2,object_02,object_06,506.775,4,2,467.78,0.2222222222222222,2,object_07,5,3016,0,7,2,forest_3,2,memory-2step-stake-s,900,3309679,0.0-18.0-0.1-0.255,4213,3,4
