,state1,stim_left,stim_right,rt_1,choice1,response1,rt_2,points,state2,stim_state2,stake,score,practice,rews1,rews2,background,high_arm,trial_type,trial_index,time_elapsed,internal_node_id,subid,stim_left_num,stim_right_num
0,3,object_09,object_08,1049.05,5,1,-1.0,0.0,1,object_07,5,0,0,2,5,library_9,1,memory-2step-stake-s,487,848025,0.0-18.0-0.0-0.0,4277,5,6
1,4,object_10,object_03,597.785,7,2,494.8700001,0.2222222222222222,1,object_07,5,10,0,2,8,restaurant_5,1,memory-2step-stake-s,488,855958,0.0-18.0-0.0-0.1,4277,8,7
2,4,object_10,object_03,637.75,7,2,545.785,0.2222222222222222,1,object_07,5,20,0,2,6,restaurant_14,1,memory-2step-stake-s,489,863942,0.0-18.0-0.0-0.2,4277,8,7
3,4,object_03,object_10,701.755,7,1,549.15,0.1111111111111111,1,object_07,5,25,0,1,5,restaurant_12,1,memory-2step-stake-s,490,871824,0.0-18.0-0.0-0.3,4277,7,8
4,1,object_01,object_04,643.81,1,2,722.195,0.4444444444444444,1,object_07,5,45,0,4,1,desert_12,1,memory-2step-stake-s,491,880182,0.0-18.0-0.0-0.4,4277,2,1
5,3,object_09,object_08,980.43,5,1,634.79,0.2222222222222222,1,object_07,1,47,0,2,4,library_4,1,memory-2step-stake-s,492,888249,0.0-18.0-0.0-0.5,4277,5,6
6,3,object_09,object_08,860.78,6,2,541.9300001,0.4444444444444444,2,object_05,5,67,0,2,4,library_2,1,memory-2step-stake-s,493,896435,0.0-18.0-0.0-0.6,4277,5,6
7,1,object_01,object_04,491.67500010000003,2,1,402.8350001,0.3333333333333333,2,object_05,5,82,0,1,3,desert_22,1,memory-2step-stake-s,494,904377,0.0-18.0-0.0-0.7,4277,2,1
8,1,object_01,object_04,495.715,1,2,597.2750001,0.1111111111111111,1,object_07,5,87,0,1,2,desert_31,1,memory-2step-stake-s,495,912305,0.0-18.0-0.0-0.8,4277,2,1
9,4,object_03,object_10,986.2,7,1,521.0449999,0.2222222222222222,1,object_07,5,97,0,2,3,restaurant_4,1,memory-2step-stake-s,496,920263,0.0-18.0-0.0-0.9,4277,7,8
10,3,object_08,object_09,724.25,6,1,471.395,0.3333333333333333,2,object_05,5,112,0,1,3,library_22,1,memory-2step-stake-s,497,928277,0.0-18.0-0.0-0.10,4277,6,5
11,4,object_03,object_10,701.595,8,2,721.285,0.3333333333333333,2,object_05,1,115,0,2,3,restaurant_24,1,memory-2step-stake-s,498,936540,0.0-18.0-0.0-0.11,4277,7,8
12,2,object_06,object_02,304.625,4,1,442.315,0.2222222222222222,2,object_05,1,117,0,6,2,forest_15,1,memory-2step-stake-s,499,944407,0.0-18.0-0.0-0.12,4277,4,3
13,3,object_08,object_09,397.78,6,1,316.77,0.0,2,object_05,5,117,0,7,0,library_19,1,memory-2step-stake-s,500,951952,0.0-18.0-0.0-0.13,4277,6,5
14,3,object_09,object_08,455.21,5,1,392.305,0.8888888888888888,1,object_07,5,157,0,8,1,library_27,1,memory-2step-stake-s,501,960385,0.0-18.0-0.0-0.14,4277,5,6
15,1,object_04,object_01,644.235,1,1,1044.43,0.6666666666666666,1,object_07,1,163,0,6,0,desert_31,1,memory-2step-stake-s,502,969275,0.0-18.0-0.0-0.15,4277,1,2
16,2,object_02,object_06,575.465,4,2,515.55,0.1111111111111111,2,object_05,1,164,0,6,1,forest_18,1,memory-2step-stake-s,503,977119,0.0-18.0-0.0-0.16,4277,3,4
17,4,object_03,object_10,452.3,7,1,-1.0,0.0,1,object_07,1,164,0,6,1,restaurant_7,1,memory-2step-stake-s,504,985650,0.0-18.0-0.0-0.17,4277,7,8
18,1,object_04,object_01,509.0399999,2,2,300.63999989999996,0.1111111111111111,2,object_05,1,165,0,2,1,desert_9,1,memory-2step-stake-s,505,993276,0.0-18.0-0.0-0.18,4277,1,2
19,1,object_04,object_01,468.87,1,1,587.0299999,0.5555555555555556,1,object_07,1,170,0,5,0,desert_28,1,memory-2step-stake-s,506,1001602,0.0-18.0-0.0-0.19,4277,1,2
20,4,object_03,object_10,493.5249999,7,1,684.4250001,0.5555555555555556,1,object_07,5,195,0,5,5,restaurant_28,1,memory-2step-stake-s,507,1010033,0.0-18.0-0.0-0.20,4277,7,8
21,3,object_08,object_09,446.595,6,1,863.2700001000001,0.8888888888888888,2,object_05,5,235,0,5,8,library_2,1,memory-2step-stake-s,508,1018937,0.0-18.0-0.0-0.21,4277,6,5
22,1,object_04,object_01,710.6849999,2,2,932.8300001,0.5555555555555556,2,object_05,1,240,0,7,5,desert_27,1,memory-2step-stake-s,509,1027611,0.0-18.0-0.0-0.22,4277,1,2
23,3,object_08,object_09,1090.925,6,1,-1.0,0.0,2,object_05,5,240,0,9,6,library_18,1,memory-2step-stake-s,510,1036137,0.0-18.0-0.0-0.23,4277,6,5
24,4,object_03,object_10,304.26499989999996,7,1,396.29000010000004,0.6666666666666666,1,object_07,1,246,0,6,5,restaurant_13,1,memory-2step-stake-s,511,1044378,0.0-18.0-0.0-0.24,4277,7,8
25,4,object_10,object_03,616.765,8,1,-1.0,0.0,2,object_05,5,246,0,4,4,restaurant_1,1,memory-2step-stake-s,512,1052898,0.0-18.0-0.0-0.25,4277,8,7
26,4,object_03,object_10,285.1250001,7,1,802.185,0.3333333333333333,1,object_07,5,261,0,3,2,restaurant_12,1,memory-2step-stake-s,513,1061235,0.0-18.0-0.0-0.26,4277,7,8
27,4,object_10,object_03,368.645,8,1,478.245,0.3333333333333333,2,object_05,5,276,0,4,3,restaurant_24,1,memory-2step-stake-s,514,1069250,0.0-18.0-0.0-0.27,4277,8,7
28,1,object_04,object_01,592.715,2,2,1192.46,0.3333333333333333,2,object_05,1,279,0,3,3,desert_28,1,memory-2step-stake-s,515,1077986,0.0-18.0-0.0-0.28,4277,1,2
29,2,object_06,object_02,343.11,4,1,-1.0,0.0,2,object_05,1,279,0,3,5,forest_26,1,memory-2step-stake-s,516,1086504,0.0-18.0-0.0-0.29,4277,4,3
30,3,object_08,object_09,344.16,6,1,426.945,0.6666666666666666,2,object_05,5,309,0,5,6,library_4,1,memory-2step-stake-s,517,1094781,0.0-18.0-0.0-0.30,4277,6,5
31,3,object_09,object_08,407.795,5,1,545.665,0.4444444444444444,1,object_07,1,313,0,4,5,library_28,1,memory-2step-stake-s,518,1102962,0.0-18.0-0.0-0.31,4277,5,6
32,1,object_04,object_01,322.78,2,2,551.5249999,0.7777777777777778,2,object_05,5,348,0,3,7,desert_30,1,memory-2step-stake-s,519,1111458,0.0-18.0-0.0-0.32,4277,1,2
33,3,object_09,object_08,967.0750001,5,1,611.9850001,0.1111111111111111,1,object_07,5,353,0,1,8,library_9,1,memory-2step-stake-s,520,1119400,0.0-18.0-0.0-0.33,4277,5,6
34,2,object_02,object_06,913.48,3,1,1378.5,0.0,1,object_07,1,353,0,0,8,forest_23,1,memory-2step-stake-s,521,1128012,0.0-18.0-0.0-0.34,4277,3,4
35,4,object_03,object_10,272.58499989999996,7,1,343.3449999,0.0,1,object_07,5,353,0,0,8,restaurant_17,1,memory-2step-stake-s,522,1135599,0.0-18.0-0.0-0.35,4277,7,8
36,3,object_08,object_09,569.6950001,5,2,535.635,0.3333333333333333,1,object_07,5,368,0,3,8,library_25,1,memory-2step-stake-s,523,1143677,0.0-18.0-0.0-0.36,4277,6,5
37,2,object_06,object_02,691.87,4,1,680.64,0.8888888888888888,2,object_05,1,376,0,4,8,forest_26,1,memory-2step-stake-s,524,1152415,0.0-18.0-0.0-0.37,4277,4,3
38,1,object_04,object_01,533.53,1,1,664.7,0.3333333333333333,1,object_07,1,379,0,3,8,desert_8,1,memory-2step-stake-s,525,1160610,0.0-18.0-0.0-0.38,4277,1,2
39,3,object_09,object_08,340.4600001,6,2,1063.695,0.7777777777777778,2,object_05,1,386,0,4,7,library_8,1,memory-2step-stake-s,526,1169629,0.0-18.0-0.0-0.39,4277,5,6
40,3,object_09,object_08,675.585,5,1,800.8150001,0.1111111111111111,1,object_07,5,391,0,1,7,library_22,1,memory-2step-stake-s,527,1177755,0.0-18.0-0.0-0.40,4277,5,6
41,2,object_02,object_06,922.445,4,2,913.68,0.5555555555555556,2,object_05,1,396,0,3,5,forest_23,1,memory-2step-stake-s,528,1186415,0.0-18.0-0.0-0.41,4277,3,4
42,4,object_10,object_03,1093.445,8,1,923.095,0.5555555555555556,2,object_05,5,421,0,3,5,restaurant_8,1,memory-2step-stake-s,529,1195084,0.0-18.0-0.0-0.42,4277,8,7
43,2,object_06,object_02,1227.235,4,1,-1.0,0.0,2,object_05,1,421,0,1,7,forest_28,1,memory-2step-stake-s,530,1203613,0.0-18.0-0.0-0.43,4277,4,3
44,4,object_03,object_10,1046.32,8,2,450.5700001,0.8888888888888888,2,object_05,1,429,0,2,8,restaurant_4,1,memory-2step-stake-s,531,1212118,0.0-18.0-0.0-0.44,4277,7,8
45,3,object_08,object_09,980.31,6,1,485.35,0.8888888888888888,2,object_05,1,437,0,1,8,library_25,1,memory-2step-stake-s,532,1220646,0.0-18.0-0.0-0.45,4277,6,5
46,4,object_03,object_10,733.57,8,2,495.515,1.0,2,object_05,5,482,0,1,9,restaurant_23,1,memory-2step-stake-s,533,1229291,0.0-18.0-0.0-0.46,4277,7,8
47,2,object_06,object_02,678.1049998999999,4,1,425.835,0.8888888888888888,2,object_05,5,522,0,2,8,forest_23,1,memory-2step-stake-s,534,1237767,0.0-18.0-0.0-0.47,4277,4,3
48,1,object_01,object_04,781.78,2,1,504.55,0.8888888888888888,2,object_05,1,530,0,5,8,desert_12,1,memory-2step-stake-s,535,1246316,0.0-18.0-0.0-0.48,4277,2,1
49,4,object_10,object_03,855.4400001,8,1,565.76,0.8888888888888888,2,object_05,5,570,0,3,8,restaurant_8,1,memory-2step-stake-s,536,1254924,0.0-18.0-0.0-0.49,4277,8,7
50,1,object_04,object_01,729.62,2,2,1047.52,0.8888888888888888,2,object_05,1,578,0,2,8,desert_3,1,memory-2step-stake-s,537,1264012,0.0-18.0-0.0-0.50,4277,1,2
51,3,object_09,object_08,899.305,5,1,399.3449999,0.4444444444444444,1,object_07,1,582,0,4,5,library_14,1,memory-2step-stake-s,538,1272033,0.0-18.0-0.0-0.51,4277,5,6
52,1,object_04,object_01,877.8200001,2,2,385.135,0.4444444444444444,2,object_05,5,602,0,3,4,desert_9,1,memory-2step-stake-s,539,1280049,0.0-18.0-0.0-0.52,4277,1,2
53,2,object_06,object_02,584.4299999,4,1,469.41500010000004,0.4444444444444444,2,object_05,1,606,0,6,4,forest_15,1,memory-2step-stake-s,540,1288151,0.0-18.0-0.0-0.53,4277,4,3
54,3,object_08,object_09,1124.835,6,1,598.3,0.3333333333333333,2,object_05,5,621,0,6,3,library_15,1,memory-2step-stake-s,541,1296283,0.0-18.0-0.0-0.54,4277,6,5
55,2,object_02,object_06,1410.4,3,1,920.6899999,0.2222222222222222,1,object_07,1,623,0,2,3,forest_30,1,memory-2step-stake-s,542,1304632,0.0-18.0-0.0-0.55,4277,3,4
56,4,object_10,object_03,1135.145,7,2,445.65,0.2222222222222222,1,object_07,5,633,0,2,6,restaurant_4,1,memory-2step-stake-s,543,1312515,0.0-18.0-0.0-0.56,4277,8,7
57,1,object_04,object_01,1301.94,2,2,410.56999989999997,0.6666666666666666,2,object_05,5,663,0,2,6,desert_27,1,memory-2step-stake-s,544,1320779,0.0-18.0-0.0-0.57,4277,1,2
58,3,object_08,object_09,931.89,5,2,511.425,0.3333333333333333,1,object_07,5,678,0,3,9,library_32,1,memory-2step-stake-s,545,1328823,0.0-18.0-0.0-0.58,4277,6,5
59,4,object_03,object_10,747.46,8,2,359.2600001,0.8888888888888888,2,object_05,5,718,0,4,8,restaurant_1,1,memory-2step-stake-s,546,1337234,0.0-18.0-0.0-0.59,4277,7,8
60,4,object_10,object_03,1080.115,7,2,381.7,0.3333333333333333,1,object_07,5,733,0,3,7,restaurant_14,1,memory-2step-stake-s,547,1345149,0.0-18.0-0.0-0.60,4277,8,7
61,1,object_01,object_04,587.495,1,2,360.87,0.6666666666666666,1,object_07,5,763,0,6,9,desert_29,1,memory-2step-stake-s,548,1353357,0.0-18.0-0.0-0.61,4277,2,1
62,3,object_08,object_09,473.48,6,1,326.5249999,1.0,2,object_05,5,808,0,7,9,library_8,1,memory-2step-stake-s,549,1361837,0.0-18.0-0.0-0.62,4277,6,5
63,4,object_03,object_10,803.1199999,8,2,311.6649999,1.0,2,object_05,1,817,0,6,9,restaurant_29,1,memory-2step-stake-s,550,1370296,0.0-18.0-0.0-0.63,4277,7,8
64,4,object_03,object_10,632.915,8,2,602.8700001,0.6666666666666666,2,object_05,5,847,0,2,6,restaurant_28,1,memory-2step-stake-s,551,1378740,0.0-18.0-0.0-0.64,4277,7,8
65,4,object_03,object_10,744.545,8,2,434.81,0.7777777777777778,2,object_05,5,882,0,3,7,restaurant_5,1,memory-2step-stake-s,552,1387130,0.0-18.0-0.0-0.65,4277,7,8
66,2,object_06,object_02,893.9199999,4,1,710.98,0.3333333333333333,2,object_05,1,885,0,4,3,forest_22,1,memory-2step-stake-s,553,1395384,0.0-18.0-0.0-0.66,4277,4,3
67,2,object_06,object_02,572.625,4,1,396.615,0.3333333333333333,2,object_05,1,888,0,4,3,forest_26,1,memory-2step-stake-s,554,1403310,0.0-18.0-0.0-0.67,4277,4,3
68,4,object_10,object_03,727.2,8,1,854.7500001,0.4444444444444444,2,object_05,5,908,0,6,4,restaurant_30,1,memory-2step-stake-s,555,1411806,0.0-18.0-0.0-0.68,4277,8,7
69,1,object_01,object_04,719.765,1,2,329.405,0.5555555555555556,1,object_07,1,913,0,5,4,desert_30,1,memory-2step-stake-s,556,1419886,0.0-18.0-0.0-0.69,4277,2,1
70,4,object_10,object_03,447.655,8,1,360.2250001,0.1111111111111111,2,object_05,5,918,0,6,1,restaurant_30,1,memory-2step-stake-s,557,1427579,0.0-18.0-0.0-0.70,4277,8,7
71,1,object_01,object_04,967.04,1,2,396.02,0.4444444444444444,1,object_07,5,938,0,4,3,desert_29,1,memory-2step-stake-s,558,1435609,0.0-18.0-0.0-0.71,4277,2,1
72,2,object_06,object_02,646.88,4,1,349.06,0.1111111111111111,2,object_05,1,939,0,6,1,forest_22,1,memory-2step-stake-s,559,1443289,0.0-18.0-0.0-0.72,4277,4,3
73,3,object_08,object_09,734.465,5,2,338.24000010000003,0.6666666666666666,1,object_07,1,945,0,6,1,library_9,1,memory-2step-stake-s,560,1451467,0.0-18.0-0.0-0.73,4277,6,5
74,4,object_10,object_03,788.4899998999999,7,2,363.325,0.5555555555555556,1,object_07,1,950,0,5,1,restaurant_29,1,memory-2step-stake-s,561,1459577,0.0-18.0-0.0-0.74,4277,8,7
75,3,object_09,object_08,760.4950001,5,1,-1.0,0.0,1,object_07,5,950,0,6,4,library_19,1,memory-2step-stake-s,562,1468099,0.0-18.0-0.0-0.75,4277,5,6
76,3,object_09,object_08,671.89,5,1,695.545,0.6666666666666666,1,object_07,5,980,0,6,6,library_18,1,memory-2step-stake-s,563,1476629,0.0-18.0-0.0-0.76,4277,5,6
77,1,object_04,object_01,1103.525,1,1,438.85,0.5555555555555556,1,object_07,1,985,0,5,6,desert_30,1,memory-2step-stake-s,564,1484804,0.0-18.0-0.0-0.77,4277,1,2
78,3,object_08,object_09,682.68,6,1,306.8200001,0.4444444444444444,2,object_05,5,1005,0,6,4,library_11,1,memory-2step-stake-s,565,1492755,0.0-18.0-0.0-0.78,4277,6,5
79,3,object_08,object_09,532.76,5,2,430.77,0.8888888888888888,1,object_07,5,1045,0,8,5,library_27,1,memory-2step-stake-s,566,1501237,0.0-18.0-0.0-0.79,4277,6,5
80,1,object_01,object_04,693.2,1,2,373.24,0.8888888888888888,1,object_07,5,1085,0,8,5,desert_11,1,memory-2step-stake-s,567,1509673,0.0-18.0-0.0-0.80,4277,2,1
81,3,object_09,object_08,863.63,5,1,683.0899999,0.7777777777777778,1,object_07,1,1092,0,7,6,library_25,1,memory-2step-stake-s,568,1518298,0.0-18.0-0.0-0.81,4277,5,6
82,3,object_08,object_09,707.1849999,5,2,983.9849998999999,0.5555555555555556,1,object_07,5,1117,0,5,7,library_15,1,memory-2step-stake-s,569,1527024,0.0-18.0-0.0-0.82,4277,6,5
83,3,object_09,object_08,754.845,6,2,-1.0,0.0,2,object_05,1,1117,0,3,8,library_11,1,memory-2step-stake-s,570,1535546,0.0-18.0-0.0-0.83,4277,5,6
84,3,object_09,object_08,728.885,6,2,606.975,0.4444444444444444,2,object_05,1,1121,0,3,4,library_14,1,memory-2step-stake-s,571,1543786,0.0-18.0-0.0-0.84,4277,5,6
85,3,object_08,object_09,815.525,5,2,432.73,0.5555555555555556,1,object_07,5,1146,0,5,3,library_11,1,memory-2step-stake-s,572,1551952,0.0-18.0-0.0-0.85,4277,6,5
86,4,object_10,object_03,888.3399999,8,1,552.3,0.0,2,object_05,5,1146,0,2,0,restaurant_24,1,memory-2step-stake-s,573,1559728,0.0-18.0-0.0-0.86,4277,8,7
87,1,object_04,object_01,649.6850001,1,1,332.035,0.2222222222222222,1,object_07,1,1148,0,2,3,desert_28,1,memory-2step-stake-s,574,1567497,0.0-18.0-0.0-0.87,4277,1,2
88,2,object_06,object_02,631.225,4,1,349.4149999,0.4444444444444444,2,object_05,1,1152,0,2,4,forest_18,1,memory-2step-stake-s,575,1575483,0.0-18.0-0.0-0.88,4277,4,3
89,4,object_10,object_03,593.4250001,8,1,408.77,0.4444444444444444,2,object_05,5,1172,0,1,4,restaurant_8,1,memory-2step-stake-s,576,1583528,0.0-18.0-0.0-0.89,4277,8,7
90,1,object_04,object_01,765.84,1,1,457.545,0.1111111111111111,1,object_07,1,1173,0,1,4,desert_12,1,memory-2step-stake-s,577,1591312,0.0-18.0-0.0-0.90,4277,1,2
91,4,object_10,object_03,733.345,8,1,313.935,0.3333333333333333,2,object_05,5,1188,0,2,3,restaurant_17,1,memory-2step-stake-s,578,1599166,0.0-18.0-0.0-0.91,4277,8,7
92,4,object_03,object_10,1132.54,8,2,330.79,0.1111111111111111,2,object_05,5,1193,0,2,1,restaurant_18,1,memory-2step-stake-s,579,1606835,0.0-18.0-0.0-0.92,4277,7,8
93,3,object_09,object_08,772.135,5,1,374.11,0.1111111111111111,1,object_07,5,1198,0,1,3,library_32,1,memory-2step-stake-s,580,1614545,0.0-18.0-0.0-0.93,4277,5,6
94,2,object_02,object_06,833.7750001,4,2,634.705,0.3333333333333333,2,object_05,1,1201,0,2,3,forest_30,1,memory-2step-stake-s,581,1622719,0.0-18.0-0.0-0.94,4277,3,4
95,3,object_08,object_09,695.98,6,1,567.2500001,0.0,2,object_05,5,1201,0,1,0,library_28,1,memory-2step-stake-s,582,1630513,0.0-18.0-0.0-0.95,4277,6,5
96,1,object_01,object_04,776.725,1,2,697.485,0.2222222222222222,1,object_07,1,1203,0,2,2,desert_6,1,memory-2step-stake-s,583,1638647,0.0-18.0-0.0-0.96,4277,2,1
97,2,object_06,object_02,557.9400001,4,1,348.14,0.2222222222222222,2,object_05,1,1205,0,4,2,forest_17,1,memory-2step-stake-s,584,1646433,0.0-18.0-0.0-0.97,4277,4,3
98,3,object_09,object_08,795.515,6,2,388.0050001,0.3333333333333333,2,object_05,5,1220,0,3,3,library_15,1,memory-2step-stake-s,585,1654362,0.0-18.0-0.0-0.98,4277,5,6
99,3,object_09,object_08,657.96,6,2,346.8150001,0.3333333333333333,2,object_05,5,1235,0,2,3,library_15,1,memory-2step-stake-s,586,1662251,0.0-18.0-0.0-0.99,4277,5,6
100,2,object_02,object_06,581.395,4,2,319.1699999,0.7777777777777778,2,object_05,1,1242,0,5,7,forest_17,1,memory-2step-stake-s,587,1670530,0.0-18.0-0.0-0.100,4277,3,4
101,1,object_04,object_01,701.54,2,2,390.6299999,0.6666666666666666,2,object_05,1,1248,0,0,6,desert_19,1,memory-2step-stake-s,588,1678764,0.0-18.0-0.0-0.101,4277,1,2
102,4,object_10,object_03,686.25,8,1,350.23000010000004,0.3333333333333333,2,object_05,1,1251,0,1,3,restaurant_1,1,memory-2step-stake-s,589,1686645,0.0-18.0-0.0-0.102,4277,8,7
103,3,object_09,object_08,849.335,6,2,865.615,0.7777777777777778,2,object_05,5,1286,0,5,7,library_18,1,memory-2step-stake-s,590,1695463,0.0-18.0-0.0-0.103,4277,5,6
104,3,object_08,object_09,865.1650001,5,2,337.91,0.7777777777777778,1,object_07,5,1321,0,7,8,library_19,1,memory-2step-stake-s,591,1703757,0.0-18.0-0.0-0.104,4277,6,5
105,2,object_06,object_02,445.71,4,1,384.145,0.5555555555555556,2,object_05,1,1326,0,6,5,forest_21,1,memory-2step-stake-s,592,1711889,0.0-18.0-0.0-0.105,4277,4,3
106,2,object_02,object_06,724.145,4,2,43.73999999,0.3333333333333333,2,object_05,5,1341,0,6,3,forest_12,1,memory-2step-stake-s,593,1719461,0.0-18.0-0.0-0.106,4277,3,4
107,1,object_01,object_04,789.765,2,1,508.3700001,0.1111111111111111,2,object_05,1,1342,0,4,1,desert_31,1,memory-2step-stake-s,594,1727299,0.0-18.0-0.0-0.107,4277,2,1
108,4,object_03,object_10,625.2700001000001,8,2,677.6000001,0.0,2,object_05,5,1342,0,5,0,restaurant_24,1,memory-2step-stake-s,595,1735203,0.0-18.0-0.0-0.108,4277,7,8
109,3,object_08,object_09,703.2,6,1,370.56,0.3333333333333333,2,object_05,5,1357,0,7,3,library_21,1,memory-2step-stake-s,596,1743106,0.0-18.0-0.0-0.109,4277,6,5
110,2,object_02,object_06,650.045,4,2,347.0000001,0.1111111111111111,2,object_05,1,1358,0,9,1,forest_22,1,memory-2step-stake-s,597,1750779,0.0-18.0-0.0-0.110,4277,3,4
111,3,object_08,object_09,998.92,5,2,414.32499989999997,0.7777777777777778,1,object_07,5,1393,0,7,2,library_28,1,memory-2step-stake-s,598,1759133,0.0-18.0-0.0-0.111,4277,6,5
112,4,object_10,object_03,871.945,8,1,587.425,0.5555555555555556,2,object_05,5,1418,0,6,5,restaurant_18,1,memory-2step-stake-s,599,1767454,0.0-18.0-0.0-0.112,4277,8,7
113,3,object_09,object_08,635.995,6,2,597.3250001,0.4444444444444444,2,object_05,1,1422,0,7,4,library_32,1,memory-2step-stake-s,600,1775688,0.0-18.0-0.0-0.113,4277,5,6
114,2,object_02,object_06,668.065,4,2,483.5300001,0.0,2,object_05,1,1422,0,9,0,forest_23,1,memory-2step-stake-s,601,1783394,0.0-18.0-0.0-0.114,4277,3,4
115,4,object_03,object_10,667.015,7,1,1023.41,0.8888888888888888,1,object_07,5,1462,0,8,2,restaurant_17,1,memory-2step-stake-s,602,1792467,0.0-18.0-0.0-0.115,4277,7,8
116,3,object_09,object_08,669.385,5,1,-1.0,0.0,1,object_07,1,1462,0,9,3,library_22,1,memory-2step-stake-s,603,1800996,0.0-18.0-0.0-0.116,4277,5,6
117,4,object_03,object_10,710.05,7,1,425.63999989999996,0.7777777777777778,1,object_07,1,1469,0,7,6,restaurant_18,1,memory-2step-stake-s,604,1809364,0.0-18.0-0.0-0.117,4277,7,8
118,4,object_10,object_03,-1.0,-1,-1,-1.0,0.0,-,,5,1469,0,8,4,restaurant_13,1,memory-2step-stake-s,605,1815885,0.0-18.0-0.0-0.118,4277,8,7
119,4,object_03,object_10,336.9849999,7,1,815.94,0.8888888888888888,1,object_07,5,1509,0,8,7,restaurant_29,1,memory-2step-stake-s,606,1824745,0.0-18.0-0.0-0.119,4277,7,8
120,3,object_08,object_09,564.0100001000001,6,1,1102.73,0.8888888888888888,2,object_05,5,1549,0,9,8,library_25,1,memory-2step-stake-s,607,1833905,0.0-18.0-0.0-0.120,4277,6,5
121,1,object_04,object_01,1134.845,1,1,-1.0,0.0,1,object_07,1,1549,0,6,6,desert_18,1,memory-2step-stake-s,608,1842443,0.0-18.0-0.0-0.121,4277,1,2
122,1,object_04,object_01,289.72,1,1,449.015,0.3333333333333333,1,object_07,1,1552,0,3,6,desert_25,1,memory-2step-stake-s,609,1850434,0.0-18.0-0.0-0.122,4277,1,2
123,3,object_09,object_08,920.52,5,1,-1.0,0.0,1,object_07,5,1552,0,6,5,library_14,1,memory-2step-stake-s,610,1858959,0.0-18.0-0.0-0.123,4277,5,6
124,3,object_08,object_09,778.1400001000001,6,1,351.495,0.5555555555555556,2,object_05,1,1557,0,6,5,library_8,1,memory-2step-stake-s,611,1867055,0.0-18.0-0.0-0.124,4277,6,5
125,3,object_08,object_09,586.47,6,1,381.9550001,0.6666666666666666,2,object_05,5,1587,0,6,6,library_23,1,memory-2step-stake-s,612,1875284,0.0-18.0-0.0-0.125,4277,6,5
126,4,object_03,object_10,524.185,8,2,567.34,0.7777777777777778,2,object_05,5,1622,0,8,7,restaurant_14,1,memory-2step-stake-s,613,1883786,0.0-18.0-0.0-0.126,4277,7,8
127,4,object_03,object_10,593.05,8,2,-1.0,0.0,2,object_05,5,1622,0,7,8,restaurant_13,1,memory-2step-stake-s,614,1892317,0.0-18.0-0.0-0.127,4277,7,8
128,4,object_10,object_03,617.4550001,8,1,363.2850001,0.8888888888888888,2,object_05,5,1662,0,8,8,restaurant_30,1,memory-2step-stake-s,616,2060537,0.0-18.0-0.1-0.128,4277,8,7
129,2,object_02,object_06,638.7349998999999,4,2,415.015,1.0,2,object_05,1,1671,0,6,9,forest_12,1,memory-2step-stake-s,617,2069107,0.0-18.0-0.1-0.129,4277,3,4
130,1,object_01,object_04,638.6300001,2,1,1006.565,0.8888888888888888,2,object_05,1,1679,0,6,8,desert_3,1,memory-2step-stake-s,618,2078163,0.0-18.0-0.1-0.130,4277,2,1
131,2,object_06,object_02,675.945,4,1,972.515,0.7777777777777778,2,object_05,1,1686,0,4,7,forest_8,1,memory-2step-stake-s,619,2087069,0.0-18.0-0.1-0.131,4277,4,3
132,4,object_10,object_03,721.65,8,1,837.86,0.5555555555555556,2,object_05,1,1691,0,4,5,restaurant_9,1,memory-2step-stake-s,620,2095654,0.0-18.0-0.1-0.132,4277,8,7
133,1,object_01,object_04,631.625,2,1,537.0499999,0.4444444444444444,2,object_05,1,1695,0,2,4,desert_31,1,memory-2step-stake-s,621,2103821,0.0-18.0-0.1-0.133,4277,2,1
134,4,object_03,object_10,1356.61,8,2,952.56,0.7777777777777778,2,object_05,5,1730,0,1,7,restaurant_12,1,memory-2step-stake-s,622,2112728,0.0-18.0-0.1-0.134,4277,7,8
135,4,object_10,object_03,597.495,8,1,746.685,0.4444444444444444,2,object_05,5,1750,0,3,4,restaurant_29,1,memory-2step-stake-s,623,2121112,0.0-18.0-0.1-0.135,4277,8,7
136,1,object_04,object_01,898.7199999,2,2,-1.0,0.0,2,object_05,5,1750,0,1,5,desert_18,1,memory-2step-stake-s,624,2129640,0.0-18.0-0.1-0.136,4277,1,2
137,1,object_04,object_01,-1.0,-1,-1,-1.0,0.0,-,,1,1750,0,2,5,desert_24,1,memory-2step-stake-s,625,2136163,0.0-18.0-0.1-0.137,4277,1,2
138,2,object_02,object_06,754.3050001,4,2,523.855,0.7777777777777778,2,object_05,5,1785,0,3,7,forest_26,1,memory-2step-stake-s,626,2144643,0.0-18.0-0.1-0.138,4277,3,4
139,4,object_10,object_03,761.4699999,8,1,303.73,1.0,2,object_05,5,1830,0,7,9,restaurant_28,1,memory-2step-stake-s,627,2153106,0.0-18.0-0.1-0.139,4277,8,7
140,3,object_08,object_09,866.3,6,1,490.335,0.5555555555555556,2,object_05,1,1835,0,6,5,library_8,1,memory-2step-stake-s,628,2161344,0.0-18.0-0.1-0.140,4277,6,5
141,2,object_02,object_06,912.425,4,2,363.84,0.2222222222222222,2,object_05,1,1837,0,3,2,forest_27,1,memory-2step-stake-s,629,2169143,0.0-18.0-0.1-0.141,4277,3,4
142,3,object_09,object_08,840.315,6,2,388.865,0.4444444444444444,2,object_05,5,1857,0,6,4,library_9,1,memory-2step-stake-s,630,2177172,0.0-18.0-0.1-0.142,4277,5,6
143,2,object_02,object_06,1170.275,4,2,661.8999999,0.4444444444444444,2,object_05,1,1861,0,5,4,forest_19,1,memory-2step-stake-s,631,2185476,0.0-18.0-0.1-0.143,4277,3,4
144,2,object_06,object_02,561.76,4,1,427.195,0.2222222222222222,2,object_05,1,1863,0,8,2,forest_19,1,memory-2step-stake-s,632,2193339,0.0-18.0-0.1-0.144,4277,4,3
145,2,object_02,object_06,567.81,4,2,507.3150001,0.2222222222222222,2,object_05,1,1865,0,7,2,forest_31,1,memory-2step-stake-s,633,2201284,0.0-18.0-0.1-0.145,4277,3,4
146,3,object_09,object_08,595.27,5,1,332.0350001,0.4444444444444444,1,object_07,5,1885,0,4,5,library_21,1,memory-2step-stake-s,634,2209252,0.0-18.0-0.1-0.146,4277,5,6
147,2,object_06,object_02,658.8,4,1,353.085,0.5555555555555556,2,object_05,1,1890,0,0,5,forest_16,1,memory-2step-stake-s,635,2217347,0.0-18.0-0.1-0.147,4277,4,3
148,2,object_02,object_06,677.36,4,2,448.175,0.7777777777777778,2,object_05,5,1925,0,3,7,forest_15,1,memory-2step-stake-s,636,2225748,0.0-18.0-0.1-0.148,4277,3,4
149,1,object_01,object_04,876.425,2,1,481.45,0.7777777777777778,2,object_05,1,1932,0,3,7,desert_12,1,memory-2step-stake-s,637,2234178,0.0-18.0-0.1-0.149,4277,2,1
150,3,object_08,object_09,669.68,6,1,433.215,0.4444444444444444,2,object_05,5,1952,0,3,4,library_18,1,memory-2step-stake-s,638,2242245,0.0-18.0-0.1-0.150,4277,6,5
151,1,object_04,object_01,645.745,2,2,485.39,0.3333333333333333,2,object_05,1,1955,0,1,3,desert_6,1,memory-2step-stake-s,639,2250261,0.0-18.0-0.1-0.151,4277,1,2
152,1,object_01,object_04,642.46,2,1,885.535,0.4444444444444444,2,object_05,1,1959,0,0,4,desert_25,1,memory-2step-stake-s,640,2258792,0.0-18.0-0.1-0.152,4277,2,1
153,3,object_08,object_09,696.2550001,6,1,661.78,0.1111111111111111,2,object_05,5,1964,0,0,1,library_2,1,memory-2step-stake-s,641,2266778,0.0-18.0-0.1-0.153,4277,6,5
154,1,object_04,object_01,749.5799999,1,1,324.96,0.2222222222222222,1,object_07,1,1966,0,2,1,desert_25,1,memory-2step-stake-s,642,2274540,0.0-18.0-0.1-0.154,4277,1,2
155,1,object_04,object_01,590.72,1,1,396.79,0.2222222222222222,1,object_07,1,1968,0,2,3,desert_11,1,memory-2step-stake-s,643,2282372,0.0-18.0-0.1-0.155,4277,1,2
156,2,object_02,object_06,689.21,4,2,483.155,0.4444444444444444,2,object_05,5,1988,0,5,4,forest_21,1,memory-2step-stake-s,644,2290496,0.0-18.0-0.1-0.156,4277,3,4
157,4,object_10,object_03,650.6000001,8,1,623.015,0.1111111111111111,2,object_05,5,1993,0,4,1,restaurant_28,1,memory-2step-stake-s,645,2298447,0.0-18.0-0.1-0.157,4277,8,7
158,2,object_02,object_06,606.0649999,4,2,513.6150001,0.0,2,object_05,5,1993,0,4,0,forest_28,1,memory-2step-stake-s,646,2306190,0.0-18.0-0.1-0.158,4277,3,4
159,4,object_10,object_03,660.85,7,2,390.9999999,0.5555555555555556,1,object_07,5,2018,0,5,3,restaurant_5,1,memory-2step-stake-s,647,2314329,0.0-18.0-0.1-0.159,4277,8,7
160,4,object_10,object_03,961.1699999,7,2,549.55,0.3333333333333333,1,object_07,5,2033,0,3,5,restaurant_23,1,memory-2step-stake-s,648,2322420,0.0-18.0-0.1-0.160,4277,8,7
161,3,object_09,object_08,677.455,6,2,962.65,0.5555555555555556,2,object_05,5,2058,0,4,5,library_19,1,memory-2step-stake-s,649,2331115,0.0-18.0-0.1-0.161,4277,5,6
162,2,object_02,object_06,790.2,4,2,575.31,0.6666666666666666,2,object_05,1,2064,0,2,6,forest_31,1,memory-2step-stake-s,650,2339544,0.0-18.0-0.1-0.162,4277,3,4
163,3,object_08,object_09,644.8,6,1,973.77,0.5555555555555556,2,object_05,5,2089,0,3,5,library_23,1,memory-2step-stake-s,651,2348261,0.0-18.0-0.1-0.163,4277,6,5
164,4,object_03,object_10,764.4550001,8,2,546.54,0.8888888888888888,2,object_05,5,2129,0,1,8,restaurant_12,1,memory-2step-stake-s,652,2356855,0.0-18.0-0.1-0.164,4277,7,8
165,2,object_06,object_02,769.51,4,1,481.8699999,0.5555555555555556,2,object_05,1,2134,0,4,5,forest_27,1,memory-2step-stake-s,653,2365073,0.0-18.0-0.1-0.165,4277,4,3
166,2,object_06,object_02,693.6550001,4,1,471.225,1.0,2,object_05,1,2143,0,1,9,forest_30,1,memory-2step-stake-s,654,2373696,0.0-18.0-0.1-0.166,4277,4,3
167,4,object_10,object_03,714.135,8,1,491.885,1.0,2,object_05,5,2188,0,2,9,restaurant_7,1,memory-2step-stake-s,655,2382343,0.0-18.0-0.1-0.167,4277,8,7
168,2,object_06,object_02,607.955,4,1,292.145,1.0,2,object_05,1,2197,0,2,9,forest_10,1,memory-2step-stake-s,656,2390796,0.0-18.0-0.1-0.168,4277,4,3
169,1,object_04,object_01,509.265,1,1,380.275,0.5555555555555556,1,object_07,1,2202,0,5,6,desert_8,1,memory-2step-stake-s,657,2398913,0.0-18.0-0.1-0.169,4277,1,2
170,3,object_08,object_09,513.885,6,1,617.075,0.6666666666666666,2,object_05,5,2232,0,4,6,library_23,1,memory-2step-stake-s,658,2407372,0.0-18.0-0.1-0.170,4277,6,5
171,1,object_01,object_04,1041.48,2,1,857.575,0.8888888888888888,2,object_05,1,2240,0,2,8,desert_9,1,memory-2step-stake-s,659,2416279,0.0-18.0-0.1-0.171,4277,2,1
172,2,object_06,object_02,620.645,4,1,509.475,0.6666666666666666,2,object_05,1,2246,0,3,6,forest_19,1,memory-2step-stake-s,660,2424615,0.0-18.0-0.1-0.172,4277,4,3
173,1,object_04,object_01,557.9049999,1,1,572.3849999,0.3333333333333333,1,object_07,1,2249,0,3,7,desert_8,1,memory-2step-stake-s,661,2432724,0.0-18.0-0.1-0.173,4277,1,2
174,3,object_08,object_09,527.48,6,1,552.4,0.8888888888888888,2,object_05,5,2289,0,2,8,library_11,1,memory-2step-stake-s,662,2441332,0.0-18.0-0.1-0.174,4277,6,5
175,1,object_01,object_04,654.7749999,2,1,599.0749999,0.7777777777777778,2,object_05,1,2296,0,3,7,desert_28,1,memory-2step-stake-s,663,2449872,0.0-18.0-0.1-0.175,4277,2,1
176,4,object_10,object_03,617.25,8,1,898.945,0.2222222222222222,2,object_05,5,2306,0,3,2,restaurant_9,1,memory-2step-stake-s,664,2458204,0.0-18.0-0.1-0.176,4277,8,7
177,3,object_08,object_09,593.1999999,6,1,1103.17,0.1111111111111111,2,object_05,1,2307,0,3,1,library_21,1,memory-2step-stake-s,665,2466648,0.0-18.0-0.1-0.177,4277,6,5
178,1,object_04,object_01,496.85,1,1,-1.0,0.0,1,object_07,5,2307,0,3,1,desert_3,1,memory-2step-stake-s,666,2475167,0.0-18.0-0.1-0.178,4277,1,2
179,1,object_04,object_01,477.705,1,1,605.0400001,0.5555555555555556,1,object_07,1,2312,0,5,2,desert_29,1,memory-2step-stake-s,667,2483514,0.0-18.0-0.1-0.179,4277,1,2
180,4,object_03,object_10,351.78,8,2,200.535,0.1111111111111111,2,object_05,5,2317,0,7,1,restaurant_9,1,memory-2step-stake-s,668,2491054,0.0-18.0-0.1-0.180,4277,7,8
181,2,object_06,object_02,598.335,4,1,936.5699999,0.3333333333333333,2,object_05,1,2320,0,6,3,forest_8,1,memory-2step-stake-s,669,2499523,0.0-18.0-0.1-0.181,4277,4,3
182,1,object_04,object_01,654.18,1,1,578.995,0.7777777777777778,1,object_07,1,2327,0,7,2,desert_9,1,memory-2step-stake-s,670,2508051,0.0-18.0-0.1-0.182,4277,1,2
183,4,object_03,object_10,540.195,8,2,441.24000010000003,0.4444444444444444,2,object_05,5,2347,0,8,4,restaurant_17,1,memory-2step-stake-s,671,2516127,0.0-18.0-0.1-0.183,4277,7,8
184,2,object_02,object_06,636.185,4,2,598.755,0.2222222222222222,2,object_05,1,2349,0,8,2,forest_18,1,memory-2step-stake-s,672,2524158,0.0-18.0-0.1-0.184,4277,3,4
185,2,object_06,object_02,858.11,4,1,488.565,0.5555555555555556,2,object_05,5,2374,0,8,5,forest_10,1,memory-2step-stake-s,673,2532382,0.0-18.0-0.1-0.185,4277,4,3
186,3,object_09,object_08,684.8050001,6,2,672.15,0.6666666666666666,2,object_05,5,2404,0,3,6,library_28,1,memory-2step-stake-s,674,2540899,0.0-18.0-0.1-0.186,4277,5,6
187,2,object_06,object_02,612.31,4,1,-1.0,0.0,2,object_05,1,2404,0,2,5,forest_27,1,memory-2step-stake-s,675,2549428,0.0-18.0-0.1-0.187,4277,4,3
188,3,object_09,object_08,683.3949999,5,1,490.295,0.4444444444444444,1,object_07,5,2424,0,4,7,library_22,1,memory-2step-stake-s,676,2557561,0.0-18.0-0.1-0.188,4277,5,6
189,1,object_04,object_01,731.1349999,1,1,661.9000001,1.0,1,object_07,1,2433,0,9,8,desert_29,1,memory-2step-stake-s,677,2566383,0.0-18.0-0.1-0.189,4277,1,2
190,2,object_02,object_06,574.475,4,2,823.11,0.8888888888888888,2,object_05,1,2441,0,8,8,forest_28,1,memory-2step-stake-s,678,2575250,0.0-18.0-0.1-0.190,4277,3,4
191,2,object_06,object_02,576.2550001,4,1,510.275,1.0,2,object_05,1,2450,0,6,9,forest_21,1,memory-2step-stake-s,679,2583916,0.0-18.0-0.1-0.191,4277,4,3
192,1,object_01,object_04,926.0250001,2,1,533.09,0.7777777777777778,2,object_05,5,2485,0,8,7,desert_19,1,memory-2step-stake-s,680,2592402,0.0-18.0-0.1-0.192,4277,2,1
193,3,object_08,object_09,459.16,6,1,433.79,0.7777777777777778,2,object_05,5,2520,0,5,7,library_27,1,memory-2step-stake-s,681,2600780,0.0-18.0-0.1-0.193,4277,6,5
194,2,object_06,object_02,-1.0,-1,-1,-1.0,0.0,-,,5,2520,0,7,9,forest_30,1,memory-2step-stake-s,682,2607300,0.0-18.0-0.1-0.194,4277,4,3
195,2,object_06,object_02,489.185,4,1,1011.625,0.7777777777777778,2,object_05,1,2527,0,3,7,forest_15,1,memory-2step-stake-s,683,2616250,0.0-18.0-0.1-0.195,4277,4,3
196,2,object_02,object_06,318.095,3,1,355.05,0.3333333333333333,1,object_07,5,2542,0,3,7,forest_16,1,memory-2step-stake-s,684,2624138,0.0-18.0-0.1-0.196,4277,3,4
197,3,object_09,object_08,791.63,6,2,521.135,1.0,2,object_05,5,2587,0,2,9,library_23,1,memory-2step-stake-s,685,2632814,0.0-18.0-0.1-0.197,4277,5,6
198,1,object_01,object_04,750.2349998999999,2,1,409.6649999,0.8888888888888888,2,object_05,1,2595,0,4,8,desert_6,1,memory-2step-stake-s,686,2641268,0.0-18.0-0.1-0.198,4277,2,1
199,1,object_01,object_04,839.915,2,1,511.02,0.6666666666666666,2,object_05,1,2601,0,0,6,desert_6,1,memory-2step-stake-s,687,2649620,0.0-18.0-0.1-0.199,4277,2,1
200,4,object_10,object_03,666.725,8,1,387.215,0.5555555555555556,2,object_05,5,2626,0,2,5,restaurant_7,1,memory-2step-stake-s,688,2657749,0.0-18.0-0.1-0.200,4277,8,7
201,3,object_09,object_08,464.995,5,1,371.76,0.5555555555555556,1,object_07,5,2651,0,5,4,library_4,1,memory-2step-stake-s,689,2665856,0.0-18.0-0.1-0.201,4277,5,6
202,1,object_01,object_04,754.28,2,1,453.07,0.0,2,object_05,1,2651,0,2,0,desert_3,1,memory-2step-stake-s,690,2673534,0.0-18.0-0.1-0.202,4277,2,1
203,4,object_03,object_10,543.2600001000001,8,2,459.1300001,0.1111111111111111,2,object_05,5,2656,0,4,1,restaurant_14,1,memory-2step-stake-s,691,2681318,0.0-18.0-0.1-0.203,4277,7,8
204,1,object_04,object_01,824.0050001,1,1,1427.6,0.8888888888888888,1,object_07,1,2664,0,8,1,desert_18,1,memory-2step-stake-s,692,2690795,0.0-18.0-0.1-0.204,4277,1,2
205,1,object_04,object_01,816.8,1,1,833.165,0.8888888888888888,1,object_07,1,2672,0,8,2,desert_19,1,memory-2step-stake-s,693,2699675,0.0-18.0-0.1-0.205,4277,1,2
206,4,object_10,object_03,272.6649999,8,1,540.855,0.2222222222222222,2,object_05,5,2682,0,7,2,restaurant_13,1,memory-2step-stake-s,694,2707649,0.0-18.0-0.1-0.206,4277,8,7
207,4,object_03,object_10,944.025,7,1,825.82,0.8888888888888888,1,object_07,5,2722,0,8,3,restaurant_7,1,memory-2step-stake-s,695,2716518,0.0-18.0-0.1-0.207,4277,7,8
208,1,object_01,object_04,528.695,1,2,999.0500001,1.0,1,object_07,1,2731,0,9,4,desert_11,1,memory-2step-stake-s,696,2725665,0.0-18.0-0.1-0.208,4277,2,1
209,1,object_01,object_04,654.015,2,1,869.2599999,0.5555555555555556,2,object_05,1,2736,0,5,5,desert_27,1,memory-2step-stake-s,697,2734273,0.0-18.0-0.1-0.209,4277,2,1
210,2,object_06,object_02,-1.0,-1,-1,-1.0,0.0,-,,1,2736,0,6,2,forest_31,1,memory-2step-stake-s,698,2740794,0.0-18.0-0.1-0.210,4277,4,3
211,1,object_04,object_01,-1.0,-1,-1,-1.0,0.0,-,,1,2736,0,5,2,desert_24,1,memory-2step-stake-s,699,2747323,0.0-18.0-0.1-0.211,4277,1,2
212,2,object_06,object_02,-1.0,-1,-1,-1.0,0.0,-,,1,2736,0,7,4,forest_10,1,memory-2step-stake-s,700,2753844,0.0-18.0-0.1-0.212,4277,4,3
213,2,object_02,object_06,-1.0,-1,-1,-1.0,0.0,-,,1,2736,0,5,6,forest_31,1,memory-2step-stake-s,701,2760364,0.0-18.0-0.1-0.213,4277,3,4
214,4,object_03,object_10,543.375,7,1,-1.0,0.0,1,object_07,5,2736,0,6,5,restaurant_30,1,memory-2step-stake-s,702,2768886,0.0-18.0-0.1-0.214,4277,7,8
215,2,object_06,object_02,450.67,4,1,562.295,0.7777777777777778,2,object_05,5,2771,0,5,7,forest_18,1,memory-2step-stake-s,703,2777408,0.0-18.0-0.1-0.215,4277,4,3
216,4,object_10,object_03,583.185,8,1,882.14,1.0,2,object_05,5,2816,0,4,9,restaurant_18,1,memory-2step-stake-s,704,2786447,0.0-18.0-0.1-0.216,4277,8,7
217,1,object_01,object_04,455.8900001,1,2,411.805,0.3333333333333333,1,object_07,1,2819,0,3,9,desert_18,1,memory-2step-stake-s,705,2794402,0.0-18.0-0.1-0.217,4277,2,1
218,2,object_02,object_06,435.45999989999996,3,1,487.495,0.4444444444444444,1,object_07,1,2823,0,4,7,forest_8,1,memory-2step-stake-s,706,2802561,0.0-18.0-0.1-0.218,4277,3,4
219,1,object_04,object_01,566.09,1,1,354.37,0.2222222222222222,1,object_07,1,2825,0,2,4,desert_22,1,memory-2step-stake-s,707,2810358,0.0-18.0-0.1-0.219,4277,1,2
220,1,object_01,object_04,495.625,1,2,424.1300001,0.3333333333333333,1,object_07,5,2840,0,3,4,desert_22,1,memory-2step-stake-s,708,2818322,0.0-18.0-0.1-0.220,4277,2,1
221,2,object_06,object_02,592.025,4,1,461.57,0.4444444444444444,2,object_05,5,2860,0,6,4,forest_16,1,memory-2step-stake-s,709,2826422,0.0-18.0-0.1-0.221,4277,4,3
222,2,object_02,object_06,672.7349998999999,4,2,483.065,0.3333333333333333,2,object_05,5,2875,0,5,3,forest_28,1,memory-2step-stake-s,710,2834445,0.0-18.0-0.1-0.222,4277,3,4
223,4,object_03,object_10,636.665,8,2,368.53,0.2222222222222222,2,object_05,5,2885,0,9,2,restaurant_1,1,memory-2step-stake-s,711,2842243,0.0-18.0-0.1-0.223,4277,7,8
224,3,object_09,object_08,331.9949999,5,1,347.25,0.8888888888888888,1,object_07,5,2925,0,8,1,library_14,1,memory-2step-stake-s,712,2850626,0.0-18.0-0.1-0.224,4277,5,6
225,1,object_04,object_01,660.3849999,2,2,275.41,0.5555555555555556,2,object_05,5,2950,0,6,5,desert_19,1,memory-2step-stake-s,713,2858637,0.0-18.0-0.1-0.225,4277,1,2
226,4,object_10,object_03,644.8850001000001,8,1,794.26,0.6666666666666666,2,object_05,5,2980,0,6,6,restaurant_8,1,memory-2step-stake-s,714,2867283,0.0-18.0-0.1-0.226,4277,8,7
227,1,object_04,object_01,606.795,1,1,325.13,0.5555555555555556,1,object_07,1,2985,0,5,6,desert_27,1,memory-2step-stake-s,715,2875358,0.0-18.0-0.1-0.227,4277,1,2
228,3,object_08,object_09,580.7050001,6,1,416.475,0.5555555555555556,2,object_05,5,3010,0,4,5,library_4,1,memory-2step-stake-s,716,2883518,0.0-18.0-0.1-0.228,4277,6,5
229,2,object_06,object_02,593.12,4,1,554.0499999,0.5555555555555556,2,object_05,5,3035,0,4,5,forest_17,1,memory-2step-stake-s,717,2891808,0.0-18.0-0.1-0.229,4277,4,3
230,2,object_06,object_02,494.225,4,1,603.815,0.6666666666666666,2,object_05,5,3065,0,1,6,forest_17,1,memory-2step-stake-s,718,2900258,0.0-18.0-0.1-0.230,4277,4,3
231,1,object_04,object_01,221.59,1,1,427.01,0.1111111111111111,1,object_07,1,3066,0,1,6,desert_24,1,memory-2step-stake-s,719,2908014,0.0-18.0-0.1-0.231,4277,1,2
232,4,object_10,object_03,48.465,7,2,157.5399999,0.1111111111111111,1,object_07,5,3071,0,1,4,restaurant_23,1,memory-2step-stake-s,720,2915497,0.0-18.0-0.1-0.232,4277,8,7
233,2,object_06,object_02,480.03,3,2,435.86,0.1111111111111111,1,object_07,1,3072,0,1,5,forest_16,1,memory-2step-stake-s,721,2923253,0.0-18.0-0.1-0.233,4277,4,3
234,2,object_06,object_02,488.1500001,3,2,642.6500001,0.1111111111111111,1,object_07,1,3073,0,1,5,forest_27,1,memory-2step-stake-s,722,2931231,0.0-18.0-0.1-0.234,4277,4,3
235,1,object_01,object_04,896.3400001,2,1,355.63499989999997,0.6666666666666666,2,object_05,5,3103,0,1,6,desert_22,1,memory-2step-stake-s,723,2939438,0.0-18.0-0.1-0.235,4277,2,1
236,2,object_06,object_02,662.8500001,4,1,329.38,0.4444444444444444,2,object_05,1,3107,0,2,4,forest_21,1,memory-2step-stake-s,724,2947407,0.0-18.0-0.1-0.236,4277,4,3
237,2,object_02,object_06,967.5,4,2,285.425,0.3333333333333333,2,object_05,1,3110,0,5,3,forest_19,1,memory-2step-stake-s,725,2955226,0.0-18.0-0.1-0.237,4277,3,4
238,2,object_02,object_06,585.835,4,2,472.2899999,0.5555555555555556,2,object_05,1,3115,0,4,5,forest_12,1,memory-2step-stake-s,726,2963439,0.0-18.0-0.1-0.238,4277,3,4
239,3,object_08,object_09,686.8650001,6,1,301.5600001,0.2222222222222222,2,object_05,5,3125,0,1,2,library_32,1,memory-2step-stake-s,727,2971167,0.0-18.0-0.1-0.239,4277,6,5
240,2,object_06,object_02,781.935,4,1,576.2850001,0.2222222222222222,2,object_05,1,3127,0,2,2,forest_8,1,memory-2step-stake-s,728,2979183,0.0-18.0-0.1-0.240,4277,4,3
241,3,object_09,object_08,600.565,6,2,799.125,0.0,2,object_05,5,3127,0,4,0,library_2,1,memory-2step-stake-s,729,2987210,0.0-18.0-0.1-0.241,4277,5,6
242,4,object_03,object_10,746.535,8,2,298.30500010000003,0.3333333333333333,2,object_05,5,3142,0,3,3,restaurant_9,1,memory-2step-stake-s,730,2995045,0.0-18.0-0.1-0.242,4277,7,8
243,1,object_04,object_01,289.6649999,1,1,461.84,0.4444444444444444,1,object_07,1,3146,0,4,2,desert_11,1,memory-2step-stake-s,731,3003146,0.0-18.0-0.1-0.243,4277,1,2
244,3,object_08,object_09,687.715,6,1,504.575,0.2222222222222222,2,object_05,1,3148,0,1,2,library_21,1,memory-2step-stake-s,732,3011078,0.0-18.0-0.1-0.244,4277,6,5
245,3,object_08,object_09,726.12,6,1,280.38499989999997,0.3333333333333333,2,object_05,5,3163,0,3,3,library_27,1,memory-2step-stake-s,733,3018905,0.0-18.0-0.1-0.245,4277,6,5
246,2,object_06,object_02,482.82,4,1,294.985,0.5555555555555556,2,object_05,1,3168,0,2,5,forest_12,1,memory-2step-stake-s,734,3026941,0.0-18.0-0.1-0.246,4277,4,3
247,1,object_04,object_01,311.785,2,2,274.45,0.6666666666666666,2,object_05,1,3174,0,3,6,desert_30,1,memory-2step-stake-s,735,3035071,0.0-18.0-0.1-0.247,4277,1,2
248,2,object_02,object_06,364.785,3,1,305.96,0.3333333333333333,1,object_07,1,3177,0,3,8,forest_22,1,memory-2step-stake-s,736,3042912,0.0-18.0-0.1-0.248,4277,3,4
249,1,object_01,object_04,565.615,1,2,754.92,0.4444444444444444,1,object_07,5,3197,0,4,5,desert_25,1,memory-2step-stake-s,737,3051304,0.0-18.0-0.1-0.249,4277,2,1
250,1,object_04,object_01,667.52,2,2,352.36500010000003,0.3333333333333333,2,object_05,1,3200,0,5,3,desert_24,1,memory-2step-stake-s,738,3059195,0.0-18.0-0.1-0.250,4277,1,2
251,4,object_03,object_10,1043.1,8,2,447.495,0.1111111111111111,2,object_05,5,3205,0,6,1,restaurant_4,1,memory-2step-stake-s,739,3066971,0.0-18.0-0.1-0.251,4277,7,8
252,1,object_04,object_01,1486.805,2,2,789.18,0.3333333333333333,2,object_05,1,3208,0,8,3,desert_8,1,memory-2step-stake-s,740,3075301,0.0-18.0-0.1-0.252,4277,1,2
253,2,object_02,object_06,547.9049999,4,2,518.67,0.1111111111111111,2,object_05,1,3209,0,9,1,forest_10,1,memory-2step-stake-s,741,3083156,0.0-18.0-0.1-0.253,4277,3,4
254,4,object_03,object_10,588.06,8,2,363.54500010000004,0.2222222222222222,2,object_05,1,3211,0,8,2,restaurant_23,1,memory-2step-stake-s,742,3090950,0.0-18.0-0.1-0.254,4277,7,8
255,4,object_03,object_10,503.925,8,2,-1.0,0.0,2,object_05,5,3211,0,7,3,restaurant_5,1,memory-2step-stake-s,743,3099477,0.0-18.0-0.1-0.255,4277,7,8
