,state1,stim_left,stim_right,rt_1,choice1,response1,rt_2,points,state2,stim_state2,stake,score,practice,rews1,rews2,background,high_arm,trial_type,trial_index,time_elapsed,internal_node_id,subid,stim_left_num,stim_right_num
0,4,object_06,object_05,-1.0,-1,-1,-1.0,0.0,-,,1,0,0,2,4,restaurant_4,2,memory-2step-stake-s,498,879871,0.0-18.0-0.0-0.0,1876,7,8
1,4,object_06,object_05,532.0,7,1,-1.0,0.0,1,object_07,5,0,0,4,6,restaurant_2,2,memory-2step-stake-s,499,888383,0.0-18.0-0.0-0.1,1876,7,8
2,2,object_08,object_02,748.0,3,1,-1.0,0.0,1,object_07,5,0,0,4,4,forest_15,2,memory-2step-stake-s,500,896900,0.0-18.0-0.0-0.2,1876,3,4
3,1,object_09,object_04,861.0,1,2,-1.0,0.0,1,object_07,5,0,0,5,6,desert_28,2,memory-2step-stake-s,501,905418,0.0-18.0-0.0-0.3,1876,2,1
4,1,object_09,object_04,460.0,2,1,-1.0,0.0,2,object_01,1,0,0,7,8,desert_5,2,memory-2step-stake-s,502,913935,0.0-18.0-0.0-0.4,1876,2,1
5,3,object_10,object_03,906.0,5,2,-1.0,0.0,1,object_07,1,0,0,8,6,library_4,2,memory-2step-stake-s,503,922461,0.0-18.0-0.0-0.5,1876,6,5
6,1,object_09,object_04,989.0,1,2,-1.0,0.0,1,object_07,5,0,0,9,2,desert_27,2,memory-2step-stake-s,504,930975,0.0-18.0-0.0-0.6,1876,2,1
7,4,object_06,object_05,1092.0,7,1,-1.0,0.0,1,object_07,1,0,0,8,1,restaurant_6,2,memory-2step-stake-s,505,939493,0.0-18.0-0.0-0.7,1876,7,8
8,2,object_02,object_08,1062.0,4,1,-1.0,0.0,2,object_01,5,0,0,9,3,forest_10,2,memory-2step-stake-s,506,948015,0.0-18.0-0.0-0.8,1876,4,3
9,4,object_05,object_06,322.0,7,2,352.0,0.6666666666666666,1,object_07,1,6,0,6,5,restaurant_24,2,memory-2step-stake-s,507,956193,0.0-18.0-0.0-0.9,1876,8,7
10,4,object_05,object_06,485.0,8,1,732.0,0.3333333333333333,2,object_01,5,21,0,4,3,restaurant_14,2,memory-2step-stake-s,508,964450,0.0-18.0-0.0-0.10,1876,8,7
11,4,object_06,object_05,455.0,8,2,548.0,0.0,2,object_01,1,21,0,2,0,restaurant_29,2,memory-2step-stake-s,509,972217,0.0-18.0-0.0-0.11,1876,7,8
12,3,object_03,object_10,636.0,5,1,279.0,0.0,1,object_07,1,21,0,0,2,library_6,2,memory-2step-stake-s,510,979718,0.0-18.0-0.0-0.12,1876,5,6
13,4,object_06,object_05,711.0,8,2,436.0,0.1111111111111111,2,object_01,1,22,0,3,1,restaurant_19,2,memory-2step-stake-s,511,987475,0.0-18.0-0.0-0.13,1876,7,8
14,3,object_10,object_03,668.0,6,1,306.0,0.4444444444444444,2,object_01,1,26,0,5,4,library_27,2,memory-2step-stake-s,512,995408,0.0-18.0-0.0-0.14,1876,6,5
15,4,object_05,object_06,700.0,8,1,9.0,0.3333333333333333,2,object_01,1,29,0,7,3,restaurant_31,2,memory-2step-stake-s,513,1002941,0.0-18.0-0.0-0.15,1876,8,7
16,3,object_03,object_10,868.0,5,1,667.0,0.8888888888888888,1,object_07,5,69,0,8,4,library_3,2,memory-2step-stake-s,514,1011641,0.0-18.0-0.0-0.16,1876,5,6
17,2,object_08,object_02,1066.0,4,2,520.0,0.5555555555555556,2,object_01,5,94,0,9,5,forest_9,2,memory-2step-stake-s,515,1019892,0.0-18.0-0.0-0.17,1876,3,4
18,3,object_03,object_10,572.0,6,2,131.0,0.4444444444444444,2,object_01,1,98,0,8,4,library_11,2,memory-2step-stake-s,516,1027645,0.0-18.0-0.0-0.18,1876,5,6
19,1,object_04,object_09,962.0,1,1,520.0,0.5555555555555556,1,object_07,5,123,0,5,4,desert_3,2,memory-2step-stake-s,517,1035895,0.0-18.0-0.0-0.19,1876,1,2
20,2,object_02,object_08,1002.0,3,2,422.0,0.5555555555555556,1,object_07,5,148,0,5,5,forest_10,2,memory-2step-stake-s,518,1044053,0.0-18.0-0.0-0.20,1876,4,3
21,2,object_08,object_02,866.0,3,1,384.0,0.5555555555555556,1,object_07,5,173,0,5,5,forest_3,2,memory-2step-stake-s,519,1052161,0.0-18.0-0.0-0.21,1876,3,4
22,4,object_06,object_05,711.0,7,1,470.0,0.4444444444444444,1,object_07,5,193,0,4,3,restaurant_1,2,memory-2step-stake-s,520,1060253,0.0-18.0-0.0-0.22,1876,7,8
23,2,object_08,object_02,683.0,4,2,478.0,0.4444444444444444,2,object_01,1,197,0,5,4,forest_30,2,memory-2step-stake-s,521,1068355,0.0-18.0-0.0-0.23,1876,3,4
24,3,object_10,object_03,620.0,5,2,403.0,0.5555555555555556,1,object_07,1,202,0,5,2,library_27,2,memory-2step-stake-s,522,1076484,0.0-18.0-0.0-0.24,1876,6,5
25,3,object_10,object_03,682.0,6,1,831.0,0.2222222222222222,2,object_01,1,204,0,6,2,library_25,2,memory-2step-stake-s,523,1084736,0.0-18.0-0.0-0.25,1876,6,5
26,1,object_04,object_09,866.0,2,2,452.0,0.3333333333333333,2,object_01,5,219,0,9,3,desert_6,2,memory-2step-stake-s,524,1092718,0.0-18.0-0.0-0.26,1876,1,2
27,2,object_08,object_02,1060.0,3,1,403.0,0.7777777777777778,1,object_07,5,254,0,7,4,forest_10,2,memory-2step-stake-s,525,1101061,0.0-18.0-0.0-0.27,1876,3,4
28,4,object_06,object_05,928.0,7,1,399.0,0.8888888888888888,1,object_07,1,262,0,8,7,restaurant_28,2,memory-2step-stake-s,526,1109498,0.0-18.0-0.0-0.28,1876,7,8
29,1,object_04,object_09,904.0,2,2,396.0,0.7777777777777778,2,object_01,5,297,0,5,7,desert_30,2,memory-2step-stake-s,527,1117835,0.0-18.0-0.0-0.29,1876,1,2
30,1,object_04,object_09,1038.0,1,1,396.0,0.5555555555555556,1,object_07,5,322,0,5,7,desert_4,2,memory-2step-stake-s,528,1125958,0.0-18.0-0.0-0.30,1876,1,2
31,1,object_04,object_09,860.0,2,2,330.0,0.7777777777777778,2,object_01,5,357,0,4,7,desert_7,2,memory-2step-stake-s,529,1134220,0.0-18.0-0.0-0.31,1876,1,2
32,3,object_10,object_03,879.0,5,2,397.0,0.2222222222222222,1,object_07,5,367,0,2,7,library_11,2,memory-2step-stake-s,530,1142035,0.0-18.0-0.0-0.32,1876,6,5
33,2,object_08,object_02,1187.0,4,2,397.0,0.8888888888888888,2,object_01,5,407,0,3,8,forest_14,2,memory-2step-stake-s,531,1150474,0.0-18.0-0.0-0.33,1876,3,4
34,3,object_10,object_03,954.0,6,1,401.0,1.0,2,object_01,5,452,0,2,9,library_6,2,memory-2step-stake-s,532,1159023,0.0-18.0-0.0-0.34,1876,6,5
35,4,object_06,object_05,827.0,7,1,297.0,0.5555555555555556,1,object_07,1,457,0,5,8,restaurant_22,2,memory-2step-stake-s,533,1167044,0.0-18.0-0.0-0.35,1876,7,8
36,4,object_06,object_05,626.0,7,1,472.0,0.8888888888888888,1,object_07,1,465,0,8,8,restaurant_22,2,memory-2step-stake-s,534,1175552,0.0-18.0-0.0-0.36,1876,7,8
37,2,object_08,object_02,1151.0,4,2,306.0,0.7777777777777778,2,object_01,5,500,0,9,7,forest_23,2,memory-2step-stake-s,535,1183793,0.0-18.0-0.0-0.37,1876,3,4
38,4,object_05,object_06,1121.0,8,1,364.0,0.8888888888888888,2,object_01,1,508,0,8,8,restaurant_11,2,memory-2step-stake-s,536,1192189,0.0-18.0-0.0-0.38,1876,8,7
39,3,object_03,object_10,1398.0,6,2,1475.0,0.7777777777777778,2,object_01,5,543,0,7,7,library_2,2,memory-2step-stake-s,537,1201613,0.0-18.0-0.0-0.39,1876,5,6
40,1,object_04,object_09,927.0,2,2,346.0,0.7777777777777778,2,object_01,5,578,0,9,7,desert_24,2,memory-2step-stake-s,538,1209907,0.0-18.0-0.0-0.40,1876,1,2
41,1,object_04,object_09,834.0,2,2,461.0,0.6666666666666666,2,object_01,5,608,0,9,6,desert_29,2,memory-2step-stake-s,539,1218205,0.0-18.0-0.0-0.41,1876,1,2
42,4,object_06,object_05,920.0,8,2,508.0,0.7777777777777778,2,object_01,1,615,0,6,7,restaurant_19,2,memory-2step-stake-s,540,1226648,0.0-18.0-0.0-0.42,1876,7,8
43,2,object_02,object_08,1304.0,3,2,407.0,1.0,1,object_07,5,660,0,9,9,forest_4,2,memory-2step-stake-s,541,1235190,0.0-18.0-0.0-0.43,1876,4,3
44,3,object_03,object_10,1087.0,5,1,332.0,0.6666666666666666,1,object_07,1,666,0,6,8,library_17,2,memory-2step-stake-s,542,1243353,0.0-18.0-0.0-0.44,1876,5,6
45,1,object_04,object_09,904.0,1,1,395.0,0.5555555555555556,1,object_07,5,691,0,5,9,desert_10,2,memory-2step-stake-s,543,1251486,0.0-18.0-0.0-0.45,1876,1,2
46,1,object_09,object_04,279.0,2,1,540.0,1.0,2,object_01,1,700,0,6,9,desert_4,2,memory-2step-stake-s,544,1260170,0.0-18.0-0.0-0.46,1876,2,1
47,3,object_10,object_03,622.0,6,1,547.0,1.0,2,object_01,1,709,0,6,9,library_6,2,memory-2step-stake-s,545,1268862,0.0-18.0-0.0-0.47,1876,6,5
48,2,object_02,object_08,859.0,4,1,320.0,0.7777777777777778,2,object_01,5,744,0,7,7,forest_5,2,memory-2step-stake-s,546,1277115,0.0-18.0-0.0-0.48,1876,4,3
49,1,object_04,object_09,393.0,1,1,397.0,0.5555555555555556,1,object_07,1,749,0,5,9,desert_8,2,memory-2step-stake-s,547,1285247,0.0-18.0-0.0-0.49,1876,1,2
50,1,object_04,object_09,588.0,2,2,395.0,0.8888888888888888,2,object_01,1,757,0,5,8,desert_9,2,memory-2step-stake-s,548,1293667,0.0-18.0-0.0-0.50,1876,1,2
51,2,object_08,object_02,995.0,3,1,390.0,0.6666666666666666,1,object_07,5,787,0,6,9,forest_14,2,memory-2step-stake-s,549,1301884,0.0-18.0-0.0-0.51,1876,3,4
52,4,object_05,object_06,953.0,8,1,446.0,0.7777777777777778,2,object_01,1,794,0,7,7,restaurant_26,2,memory-2step-stake-s,550,1310280,0.0-18.0-0.0-0.52,1876,8,7
53,4,object_06,object_05,905.0,8,2,340.0,0.8888888888888888,2,object_01,5,834,0,6,8,restaurant_4,2,memory-2step-stake-s,551,1318652,0.0-18.0-0.0-0.53,1876,7,8
54,3,object_03,object_10,945.0,5,1,68.0,0.7777777777777778,1,object_07,1,841,0,7,8,library_12,2,memory-2step-stake-s,552,1326654,0.0-18.0-0.0-0.54,1876,5,6
55,4,object_05,object_06,-1.0,-1,-1,-1.0,0.0,-,,1,841,0,7,7,restaurant_26,2,memory-2step-stake-s,553,1333173,0.0-18.0-0.0-0.55,1876,8,7
56,2,object_08,object_02,978.0,4,2,295.0,0.8888888888888888,2,object_01,5,881,0,3,8,forest_15,2,memory-2step-stake-s,554,1341505,0.0-18.0-0.0-0.56,1876,3,4
57,1,object_04,object_09,868.0,2,2,290.0,0.7777777777777778,2,object_01,5,916,0,4,7,desert_18,2,memory-2step-stake-s,555,1349739,0.0-18.0-0.0-0.57,1876,1,2
58,1,object_09,object_04,970.0,2,1,307.0,0.8888888888888888,2,object_01,5,956,0,9,8,desert_24,2,memory-2step-stake-s,556,1358093,0.0-18.0-0.0-0.58,1876,2,1
59,3,object_10,object_03,939.0,5,2,298.0,0.7777777777777778,1,object_07,1,963,0,7,7,library_20,2,memory-2step-stake-s,557,1366326,0.0-18.0-0.0-0.59,1876,6,5
60,1,object_04,object_09,970.0,2,2,342.0,0.7777777777777778,2,object_01,1,970,0,6,7,desert_4,2,memory-2step-stake-s,558,1374609,0.0-18.0-0.0-0.60,1876,1,2
61,2,object_02,object_08,860.0,4,1,431.0,0.3333333333333333,2,object_01,5,985,0,4,3,forest_28,2,memory-2step-stake-s,559,1382571,0.0-18.0-0.0-0.61,1876,4,3
62,1,object_09,object_04,1040.0,1,2,330.0,0.4444444444444444,1,object_07,5,1005,0,4,5,desert_7,2,memory-2step-stake-s,560,1390523,0.0-18.0-0.0-0.62,1876,2,1
63,1,object_04,object_09,703.0,1,1,316.0,0.4444444444444444,1,object_07,5,1025,0,4,4,desert_10,2,memory-2step-stake-s,561,1398466,0.0-18.0-0.0-0.63,1876,1,2
64,3,object_10,object_03,819.0,6,1,273.0,0.7777777777777778,2,object_01,1,1032,0,7,7,library_32,2,memory-2step-stake-s,562,1406668,0.0-18.0-0.0-0.64,1876,6,5
65,1,object_09,object_04,407.0,2,1,309.0,0.6666666666666666,2,object_01,1,1038,0,8,6,desert_30,2,memory-2step-stake-s,563,1414812,0.0-18.0-0.0-0.65,1876,2,1
66,4,object_05,object_06,436.0,8,1,44.0,0.8888888888888888,2,object_01,1,1046,0,8,8,restaurant_19,2,memory-2step-stake-s,564,1422878,0.0-18.0-0.0-0.66,1876,8,7
67,1,object_04,object_09,852.0,2,2,579.0,0.7777777777777778,2,object_01,5,1081,0,8,7,desert_27,2,memory-2step-stake-s,565,1431386,0.0-18.0-0.0-0.67,1876,1,2
68,3,object_03,object_10,1002.0,6,2,767.0,0.8888888888888888,2,object_01,1,1089,0,9,8,library_12,2,memory-2step-stake-s,566,1440182,0.0-18.0-0.0-0.68,1876,5,6
69,1,object_04,object_09,1102.0,1,1,301.0,0.8888888888888888,1,object_07,5,1129,0,8,8,desert_17,2,memory-2step-stake-s,567,1448516,0.0-18.0-0.0-0.69,1876,1,2
70,3,object_10,object_03,832.0,6,1,219.0,0.8888888888888888,2,object_01,5,1169,0,7,8,library_20,2,memory-2step-stake-s,568,1456798,0.0-18.0-0.0-0.70,1876,6,5
71,3,object_10,object_03,427.0,6,1,309.0,0.6666666666666666,2,object_01,1,1175,0,5,6,library_12,2,memory-2step-stake-s,569,1464945,0.0-18.0-0.0-0.71,1876,6,5
72,2,object_02,object_08,736.0,4,1,397.0,0.6666666666666666,2,object_01,5,1205,0,8,6,forest_22,2,memory-2step-stake-s,570,1473167,0.0-18.0-0.0-0.72,1876,4,3
73,2,object_02,object_08,-1.0,-1,-1,-1.0,0.0,-,,5,1205,0,7,7,forest_32,2,memory-2step-stake-s,571,1479684,0.0-18.0-0.0-0.73,1876,4,3
74,1,object_04,object_09,796.0,1,1,386.0,0.7777777777777778,1,object_07,5,1240,0,7,6,desert_30,2,memory-2step-stake-s,572,1488001,0.0-18.0-0.0-0.74,1876,1,2
75,3,object_03,object_10,756.0,6,2,418.0,0.8888888888888888,2,object_01,1,1248,0,5,8,library_2,2,memory-2step-stake-s,573,1496441,0.0-18.0-0.0-0.75,1876,5,6
76,4,object_05,object_06,1081.0,8,1,583.0,0.8888888888888888,2,object_01,1,1256,0,5,8,restaurant_28,2,memory-2step-stake-s,574,1505053,0.0-18.0-0.0-0.76,1876,8,7
77,4,object_06,object_05,426.0,8,2,265.0,0.7777777777777778,2,object_01,1,1263,0,5,7,restaurant_31,2,memory-2step-stake-s,575,1513248,0.0-18.0-0.0-0.77,1876,7,8
78,2,object_02,object_08,1123.0,4,1,304.0,0.6666666666666666,2,object_01,5,1293,0,5,6,forest_22,2,memory-2step-stake-s,576,1521377,0.0-18.0-0.0-0.78,1876,4,3
79,4,object_06,object_05,324.0,7,1,28.0,0.7777777777777778,1,object_07,1,1300,0,7,7,restaurant_26,2,memory-2step-stake-s,577,1529353,0.0-18.0-0.0-0.79,1876,7,8
80,3,object_10,object_03,238.0,6,1,253.0,0.4444444444444444,2,object_01,5,1320,0,4,4,library_32,2,memory-2step-stake-s,578,1537227,0.0-18.0-0.0-0.80,1876,6,5
81,3,object_10,object_03,774.0,5,2,378.0,0.2222222222222222,1,object_07,5,1330,0,2,2,library_4,2,memory-2step-stake-s,579,1545027,0.0-18.0-0.0-0.81,1876,6,5
82,2,object_02,object_08,375.0,3,2,307.0,0.2222222222222222,1,object_07,1,1332,0,2,0,forest_9,2,memory-2step-stake-s,580,1552761,0.0-18.0-0.0-0.82,1876,4,3
83,3,object_03,object_10,490.0,5,1,327.0,0.3333333333333333,1,object_07,1,1335,0,3,2,library_20,2,memory-2step-stake-s,581,1560613,0.0-18.0-0.0-0.83,1876,5,6
84,2,object_02,object_08,949.0,3,2,315.0,0.3333333333333333,1,object_07,5,1350,0,3,6,forest_10,2,memory-2step-stake-s,582,1568457,0.0-18.0-0.0-0.84,1876,4,3
85,1,object_09,object_04,920.0,1,2,351.0,0.3333333333333333,1,object_07,5,1365,0,3,5,desert_17,2,memory-2step-stake-s,583,1576332,0.0-18.0-0.0-0.85,1876,2,1
86,4,object_06,object_05,-1.0,-1,-1,-1.0,0.0,-,,1,1365,0,3,2,restaurant_12,2,memory-2step-stake-s,584,1582853,0.0-18.0-0.0-0.86,1876,7,8
87,3,object_10,object_03,274.0,5,2,441.0,0.1111111111111111,1,object_07,1,1366,0,1,1,library_23,2,memory-2step-stake-s,585,1590615,0.0-18.0-0.0-0.87,1876,6,5
88,2,object_08,object_02,1183.0,4,2,384.0,0.1111111111111111,2,object_01,5,1371,0,1,1,forest_9,2,memory-2step-stake-s,586,1598328,0.0-18.0-0.0-0.88,1876,3,4
89,1,object_04,object_09,839.0,2,2,301.0,0.0,2,object_01,5,1371,0,1,0,desert_23,2,memory-2step-stake-s,587,1605851,0.0-18.0-0.0-0.89,1876,1,2
90,3,object_10,object_03,1001.0,6,1,309.0,0.1111111111111111,2,object_01,1,1372,0,0,1,library_32,2,memory-2step-stake-s,588,1613481,0.0-18.0-0.0-0.90,1876,6,5
91,4,object_05,object_06,350.0,8,1,244.0,0.1111111111111111,2,object_01,1,1373,0,3,1,restaurant_6,2,memory-2step-stake-s,589,1621047,0.0-18.0-0.0-0.91,1876,8,7
92,2,object_08,object_02,818.0,4,2,691.0,0.2222222222222222,2,object_01,5,1383,0,3,2,forest_3,2,memory-2step-stake-s,590,1629163,0.0-18.0-0.0-0.92,1876,3,4
93,3,object_10,object_03,528.0,5,2,64.0,0.0,1,object_07,1,1383,0,0,1,library_32,2,memory-2step-stake-s,591,1636436,0.0-18.0-0.0-0.93,1876,6,5
94,4,object_05,object_06,439.0,8,1,-1.0,0.0,2,object_01,1,1383,0,0,3,restaurant_1,2,memory-2step-stake-s,592,1644955,0.0-18.0-0.0-0.94,1876,8,7
95,2,object_08,object_02,607.0,3,1,499.0,0.0,1,object_07,1,1383,0,0,3,forest_20,2,memory-2step-stake-s,593,1652670,0.0-18.0-0.0-0.95,1876,3,4
96,3,object_10,object_03,425.0,6,1,550.0,0.4444444444444444,2,object_01,1,1387,0,1,4,library_29,2,memory-2step-stake-s,594,1660843,0.0-18.0-0.0-0.96,1876,6,5
97,1,object_04,object_09,-1.0,-1,-1,-1.0,0.0,-,,5,1387,0,3,4,desert_30,2,memory-2step-stake-s,595,1667360,0.0-18.0-0.0-0.97,1876,1,2
98,4,object_06,object_05,471.0,7,1,428.0,0.1111111111111111,1,object_07,5,1392,0,1,5,restaurant_1,2,memory-2step-stake-s,596,1675110,0.0-18.0-0.0-0.98,1876,7,8
99,1,object_09,object_04,735.0,1,2,291.0,0.1111111111111111,1,object_07,5,1397,0,1,3,desert_6,2,memory-2step-stake-s,597,1682727,0.0-18.0-0.0-0.99,1876,2,1
100,4,object_05,object_06,223.0,7,2,3.0,0.1111111111111111,1,object_07,1,1398,0,1,5,restaurant_6,2,memory-2step-stake-s,598,1690050,0.0-18.0-0.0-0.100,1876,8,7
101,2,object_08,object_02,761.0,4,2,279.0,0.4444444444444444,2,object_01,1,1402,0,4,4,forest_20,2,memory-2step-stake-s,599,1697951,0.0-18.0-0.0-0.101,1876,3,4
102,2,object_08,object_02,747.0,3,1,55.0,0.7777777777777778,1,object_07,5,1437,0,7,4,forest_4,2,memory-2step-stake-s,600,1705947,0.0-18.0-0.0-0.102,1876,3,4
103,1,object_04,object_09,1117.0,1,1,275.0,0.6666666666666666,1,object_07,5,1467,0,6,6,desert_10,2,memory-2step-stake-s,601,1714054,0.0-18.0-0.0-0.103,1876,1,2
104,4,object_06,object_05,831.0,7,1,304.0,0.8888888888888888,1,object_07,5,1507,0,8,5,restaurant_4,2,memory-2step-stake-s,602,1722393,0.0-18.0-0.0-0.104,1876,7,8
105,4,object_05,object_06,685.0,7,2,225.0,1.0,1,object_07,5,1552,0,9,4,restaurant_28,2,memory-2step-stake-s,603,1730757,0.0-18.0-0.0-0.105,1876,8,7
106,2,object_02,object_08,1031.0,4,1,243.0,0.3333333333333333,2,object_01,5,1567,0,9,3,forest_32,2,memory-2step-stake-s,604,1738528,0.0-18.0-0.0-0.106,1876,4,3
107,1,object_04,object_09,1069.0,1,1,307.0,0.8888888888888888,1,object_07,5,1607,0,8,2,desert_6,2,memory-2step-stake-s,605,1746868,0.0-18.0-0.0-0.107,1876,1,2
108,2,object_02,object_08,990.0,4,1,108.0,0.5555555555555556,2,object_01,1,1612,0,5,5,forest_12,2,memory-2step-stake-s,606,1754701,0.0-18.0-0.0-0.108,1876,4,3
109,3,object_03,object_10,1029.0,5,1,554.0,0.6666666666666666,1,object_07,1,1618,0,6,1,library_27,2,memory-2step-stake-s,607,1763088,0.0-18.0-0.0-0.109,1876,5,6
110,1,object_04,object_09,795.0,1,1,296.0,0.2222222222222222,1,object_07,5,1628,0,2,1,desert_23,2,memory-2step-stake-s,608,1770809,0.0-18.0-0.0-0.110,1876,1,2
111,1,object_04,object_09,810.0,2,2,295.0,0.3333333333333333,2,object_01,5,1643,0,3,3,desert_18,2,memory-2step-stake-s,609,1778626,0.0-18.0-0.0-0.111,1876,1,2
112,3,object_03,object_10,385.0,6,2,880.0,0.6666666666666666,2,object_01,1,1649,0,1,6,library_10,2,memory-2step-stake-s,610,1787339,0.0-18.0-0.0-0.112,1876,5,6
113,1,object_09,object_04,443.0,1,2,283.0,0.4444444444444444,1,object_07,5,1669,0,4,6,desert_8,2,memory-2step-stake-s,611,1795245,0.0-18.0-0.0-0.113,1876,2,1
114,2,object_02,object_08,254.0,3,2,386.0,0.5555555555555556,1,object_07,1,1674,0,5,3,forest_14,2,memory-2step-stake-s,612,1803358,0.0-18.0-0.0-0.114,1876,4,3
115,3,object_03,object_10,647.0,6,2,353.0,0.0,2,object_01,5,1674,0,4,0,library_14,2,memory-2step-stake-s,613,1810934,0.0-18.0-0.0-0.115,1876,5,6
116,2,object_02,object_08,831.0,3,2,283.0,0.6666666666666666,1,object_07,5,1704,0,6,1,forest_3,2,memory-2step-stake-s,614,1819049,0.0-18.0-0.0-0.116,1876,4,3
117,3,object_03,object_10,194.0,6,2,747.0,0.2222222222222222,2,object_01,1,1706,0,8,2,library_11,2,memory-2step-stake-s,615,1827224,0.0-18.0-0.0-0.117,1876,5,6
118,3,object_10,object_03,499.0,5,2,576.0,0.8888888888888888,1,object_07,1,1714,0,8,0,library_11,2,memory-2step-stake-s,616,1835845,0.0-18.0-0.0-0.118,1876,6,5
119,3,object_10,object_03,367.0,5,2,354.0,0.8888888888888888,1,object_07,1,1722,0,8,4,library_25,2,memory-2step-stake-s,617,1844230,0.0-18.0-0.0-0.119,1876,6,5
120,2,object_02,object_08,1009.0,3,2,301.0,1.0,1,object_07,1,1731,0,9,3,forest_30,2,memory-2step-stake-s,618,1852672,0.0-18.0-0.0-0.120,1876,4,3
121,1,object_04,object_09,1338.0,2,2,485.0,0.1111111111111111,2,object_01,5,1736,0,8,1,desert_24,2,memory-2step-stake-s,619,1860485,0.0-18.0-0.0-0.121,1876,1,2
122,1,object_09,object_04,1478.0,2,1,505.0,0.3333333333333333,2,object_01,1,1739,0,7,3,desert_6,2,memory-2step-stake-s,620,1868519,0.0-18.0-0.0-0.122,1876,2,1
123,1,object_04,object_09,-1.0,-1,-1,-1.0,0.0,-,,5,1739,0,9,5,desert_9,2,memory-2step-stake-s,621,1875031,0.0-18.0-0.0-0.123,1876,1,2
124,3,object_03,object_10,904.0,5,1,427.0,0.5555555555555556,1,object_07,5,1764,0,5,3,library_1,2,memory-2step-stake-s,622,1883180,0.0-18.0-0.0-0.124,1876,5,6
125,1,object_04,object_09,969.0,1,1,647.0,0.8888888888888888,1,object_07,1,1772,0,8,3,desert_5,2,memory-2step-stake-s,623,1891855,0.0-18.0-0.0-0.125,1876,1,2
126,3,object_03,object_10,914.0,6,2,553.0,0.5555555555555556,2,object_01,1,1777,0,7,5,library_29,2,memory-2step-stake-s,624,1900139,0.0-18.0-0.0-0.126,1876,5,6
127,4,object_05,object_06,992.0,8,1,463.0,0.2222222222222222,2,object_01,1,1779,0,8,2,restaurant_30,2,memory-2step-stake-s,625,1908027,0.0-18.0-0.0-0.127,1876,8,7
128,3,object_03,object_10,1288.0,5,1,780.0,1.0,1,object_07,5,1824,0,9,1,library_14,2,memory-2step-stake-s,627,3160327,0.0-18.0-0.1-0.128,1876,5,6
129,1,object_09,object_04,965.0,1,2,1058.0,1.0,1,object_07,5,1869,0,9,2,desert_7,2,memory-2step-stake-s,628,3169528,0.0-18.0-0.1-0.129,1876,2,1
130,4,object_05,object_06,674.0,8,1,325.0,0.3333333333333333,2,object_01,5,1884,0,8,3,restaurant_11,2,memory-2step-stake-s,629,3177376,0.0-18.0-0.1-0.130,1876,8,7
131,4,object_06,object_05,458.0,8,2,701.0,0.1111111111111111,2,object_01,1,1885,0,7,1,restaurant_29,2,memory-2step-stake-s,630,3185405,0.0-18.0-0.1-0.131,1876,7,8
132,4,object_05,object_06,273.0,8,1,301.0,0.1111111111111111,2,object_01,1,1886,0,9,1,restaurant_30,2,memory-2step-stake-s,631,3193025,0.0-18.0-0.1-0.132,1876,8,7
133,2,object_02,object_08,769.0,4,1,13.0,0.4444444444444444,2,object_01,5,1906,0,9,4,forest_32,2,memory-2step-stake-s,632,3200669,0.0-18.0-0.1-0.133,1876,4,3
134,1,object_04,object_09,409.0,1,1,327.0,0.5555555555555556,1,object_07,5,1931,0,5,6,desert_28,2,memory-2step-stake-s,633,3208720,0.0-18.0-0.1-0.134,1876,1,2
135,1,object_04,object_09,354.0,2,2,696.0,0.6666666666666666,2,object_01,1,1937,0,6,6,desert_7,2,memory-2step-stake-s,634,3217241,0.0-18.0-0.1-0.135,1876,1,2
136,3,object_03,object_10,309.0,6,2,196.0,0.6666666666666666,2,object_01,1,1943,0,5,6,library_17,2,memory-2step-stake-s,635,3225274,0.0-18.0-0.1-0.136,1876,5,6
137,2,object_08,object_02,919.0,3,1,1067.0,0.6666666666666666,1,object_07,5,1973,0,6,3,forest_28,2,memory-2step-stake-s,636,3234173,0.0-18.0-0.1-0.137,1876,3,4
138,1,object_09,object_04,846.0,1,2,301.0,0.3333333333333333,1,object_07,5,1988,0,3,2,desert_24,2,memory-2step-stake-s,637,3241994,0.0-18.0-0.1-0.138,1876,2,1
139,4,object_06,object_05,1201.0,8,2,469.0,0.6666666666666666,2,object_01,1,1994,0,5,6,restaurant_24,2,memory-2step-stake-s,638,3250294,0.0-18.0-0.1-0.139,1876,7,8
140,1,object_09,object_04,874.0,1,2,313.0,0.2222222222222222,1,object_07,5,2004,0,2,8,desert_3,2,memory-2step-stake-s,639,3258030,0.0-18.0-0.1-0.140,1876,2,1
141,2,object_02,object_08,793.0,3,2,630.0,0.1111111111111111,1,object_07,5,2009,0,1,9,forest_5,2,memory-2step-stake-s,640,3265977,0.0-18.0-0.1-0.141,1876,4,3
142,2,object_08,object_02,600.0,4,2,175.0,0.6666666666666666,2,object_01,1,2015,0,1,6,forest_1,2,memory-2step-stake-s,641,3273978,0.0-18.0-0.1-0.142,1876,3,4
143,1,object_04,object_09,794.0,1,1,-1.0,0.0,1,object_07,5,2015,0,1,6,desert_18,2,memory-2step-stake-s,642,3282498,0.0-18.0-0.1-0.143,1876,1,2
144,2,object_08,object_02,1015.0,4,2,223.0,0.7777777777777778,2,object_01,1,2022,0,2,7,forest_22,2,memory-2step-stake-s,643,3290655,0.0-18.0-0.1-0.144,1876,3,4
145,4,object_06,object_05,992.0,8,2,923.0,0.8888888888888888,2,object_01,5,2062,0,1,8,restaurant_2,2,memory-2step-stake-s,644,3299617,0.0-18.0-0.1-0.145,1876,7,8
146,4,object_06,object_05,240.0,7,1,38.0,0.1111111111111111,1,object_07,1,2063,0,1,8,restaurant_22,2,memory-2step-stake-s,645,3306970,0.0-18.0-0.1-0.146,1876,7,8
147,2,object_08,object_02,1194.0,3,1,393.0,0.0,1,object_07,5,2063,0,0,6,forest_9,2,memory-2step-stake-s,646,3314580,0.0-18.0-0.1-0.147,1876,3,4
148,3,object_10,object_03,747.0,5,2,498.0,0.1111111111111111,1,object_07,1,2064,0,1,9,library_14,2,memory-2step-stake-s,647,3322397,0.0-18.0-0.1-0.148,1876,6,5
149,3,object_03,object_10,952.0,6,2,311.0,0.8888888888888888,2,object_01,1,2072,0,3,8,library_23,2,memory-2step-stake-s,648,3330747,0.0-18.0-0.1-0.149,1876,5,6
150,4,object_05,object_06,791.0,7,2,493.0,0.4444444444444444,1,object_07,1,2076,0,4,8,restaurant_12,2,memory-2step-stake-s,649,3338869,0.0-18.0-0.1-0.150,1876,8,7
151,3,object_10,object_03,997.0,6,1,730.0,0.8888888888888888,2,object_01,1,2084,0,4,8,library_27,2,memory-2step-stake-s,650,3347644,0.0-18.0-0.1-0.151,1876,6,5
152,3,object_03,object_10,1248.0,6,2,147.0,0.8888888888888888,2,object_01,1,2092,0,3,8,library_29,2,memory-2step-stake-s,651,3355825,0.0-18.0-0.1-0.152,1876,5,6
153,4,object_05,object_06,911.0,8,1,421.0,0.7777777777777778,2,object_01,5,2127,0,0,7,restaurant_21,2,memory-2step-stake-s,652,3364184,0.0-18.0-0.1-0.153,1876,8,7
154,1,object_04,object_09,1270.0,1,1,467.0,0.1111111111111111,1,object_07,5,2132,0,1,8,desert_29,2,memory-2step-stake-s,653,3371982,0.0-18.0-0.1-0.154,1876,1,2
155,4,object_06,object_05,749.0,8,2,442.0,0.5555555555555556,2,object_01,1,2137,0,1,5,restaurant_30,2,memory-2step-stake-s,654,3380158,0.0-18.0-0.1-0.155,1876,7,8
156,4,object_05,object_06,583.0,7,2,-1.0,0.0,1,object_07,1,2137,0,2,4,restaurant_31,2,memory-2step-stake-s,655,3388681,0.0-18.0-0.1-0.156,1876,8,7
157,3,object_03,object_10,627.0,5,1,127.0,0.4444444444444444,1,object_07,1,2141,0,4,2,library_17,2,memory-2step-stake-s,656,3396432,0.0-18.0-0.1-0.157,1876,5,6
158,3,object_10,object_03,1367.0,5,2,534.0,0.6666666666666666,1,object_07,1,2147,0,6,1,library_17,2,memory-2step-stake-s,657,3404796,0.0-18.0-0.1-0.158,1876,6,5
159,2,object_08,object_02,771.0,3,1,466.0,0.2222222222222222,1,object_07,5,2157,0,2,1,forest_4,2,memory-2step-stake-s,658,3412694,0.0-18.0-0.1-0.159,1876,3,4
160,3,object_03,object_10,866.0,6,2,-1.0,0.0,2,object_01,1,2157,0,3,1,library_3,2,memory-2step-stake-s,659,3421215,0.0-18.0-0.1-0.160,1876,5,6
161,2,object_08,object_02,796.0,4,2,139.0,0.3333333333333333,2,object_01,1,2160,0,1,3,forest_1,2,memory-2step-stake-s,660,3428874,0.0-18.0-0.1-0.161,1876,3,4
162,4,object_06,object_05,1404.0,7,1,108.0,0.0,1,object_07,5,2160,0,0,3,restaurant_2,2,memory-2step-stake-s,661,3436205,0.0-18.0-0.1-0.162,1876,7,8
163,3,object_03,object_10,1164.0,6,2,335.0,0.3333333333333333,2,object_01,1,2163,0,1,3,library_10,2,memory-2step-stake-s,662,3444067,0.0-18.0-0.1-0.163,1876,5,6
164,2,object_02,object_08,1230.0,4,1,-1.0,0.0,2,object_01,5,2163,0,2,1,forest_27,2,memory-2step-stake-s,663,3452588,0.0-18.0-0.1-0.164,1876,4,3
165,2,object_08,object_02,964.0,4,2,331.0,0.0,2,object_01,5,2163,0,4,0,forest_1,2,memory-2step-stake-s,664,3460130,0.0-18.0-0.1-0.165,1876,3,4
166,2,object_02,object_08,1097.0,4,1,23.0,0.2222222222222222,2,object_01,5,2173,0,3,2,forest_23,2,memory-2step-stake-s,665,3467576,0.0-18.0-0.1-0.166,1876,4,3
167,4,object_05,object_06,885.0,7,2,578.0,0.4444444444444444,1,object_07,1,2177,0,4,1,restaurant_22,2,memory-2step-stake-s,666,3475785,0.0-18.0-0.1-0.167,1876,8,7
168,4,object_05,object_06,235.0,7,2,49.0,0.4444444444444444,1,object_07,1,2181,0,4,1,restaurant_11,2,memory-2step-stake-s,667,3483461,0.0-18.0-0.1-0.168,1876,8,7
169,2,object_02,object_08,1102.0,3,2,258.0,0.3333333333333333,1,object_07,5,2196,0,3,4,forest_12,2,memory-2step-stake-s,668,3491248,0.0-18.0-0.1-0.169,1876,4,3
170,2,object_08,object_02,1205.0,3,1,298.0,0.5555555555555556,1,object_07,5,2221,0,5,3,forest_28,2,memory-2step-stake-s,669,3499274,0.0-18.0-0.1-0.170,1876,3,4
171,2,object_02,object_08,1038.0,3,2,235.0,0.7777777777777778,1,object_07,5,2256,0,7,3,forest_23,2,memory-2step-stake-s,670,3507449,0.0-18.0-0.1-0.171,1876,4,3
172,4,object_06,object_05,1040.0,8,2,357.0,0.4444444444444444,2,object_01,5,2276,0,9,4,restaurant_28,2,memory-2step-stake-s,671,3515442,0.0-18.0-0.1-0.172,1876,7,8
173,3,object_03,object_10,1313.0,6,2,615.0,0.3333333333333333,2,object_01,5,2291,0,5,3,library_23,2,memory-2step-stake-s,672,3523580,0.0-18.0-0.1-0.173,1876,5,6
174,3,object_03,object_10,1017.0,5,1,-1.0,0.0,1,object_07,5,2291,0,5,1,library_2,2,memory-2step-stake-s,673,3532099,0.0-18.0-0.1-0.174,1876,5,6
175,2,object_08,object_02,1075.0,4,2,-1.0,0.0,2,object_01,1,2291,0,5,1,forest_1,2,memory-2step-stake-s,674,3540622,0.0-18.0-0.1-0.175,1876,3,4
176,3,object_03,object_10,-1.0,-1,-1,-1.0,0.0,-,,5,2291,0,6,3,library_4,2,memory-2step-stake-s,675,3547139,0.0-18.0-0.1-0.176,1876,5,6
177,2,object_02,object_08,-1.0,-1,-1,-1.0,0.0,-,,5,2291,0,8,6,forest_28,2,memory-2step-stake-s,676,3553651,0.0-18.0-0.1-0.177,1876,4,3
178,4,object_05,object_06,-1.0,-1,-1,-1.0,0.0,-,,1,2291,0,8,4,restaurant_21,2,memory-2step-stake-s,677,3560167,0.0-18.0-0.1-0.178,1876,8,7
179,1,object_04,object_09,-1.0,-1,-1,-1.0,0.0,-,,1,2291,0,9,4,desert_8,2,memory-2step-stake-s,678,3566687,0.0-18.0-0.1-0.179,1876,1,2
180,1,object_04,object_09,1031.0,1,1,1066.0,1.0,1,object_07,5,2336,0,9,5,desert_29,2,memory-2step-stake-s,679,3575906,0.0-18.0-0.1-0.180,1876,1,2
181,3,object_10,object_03,293.0,5,2,303.0,0.8888888888888888,1,object_07,1,2344,0,8,7,library_14,2,memory-2step-stake-s,680,3584244,0.0-18.0-0.1-0.181,1876,6,5
182,2,object_02,object_08,1414.0,4,1,352.0,0.7777777777777778,2,object_01,5,2379,0,7,7,forest_12,2,memory-2step-stake-s,681,3592529,0.0-18.0-0.1-0.182,1876,4,3
183,1,object_09,object_04,1058.0,1,2,464.0,0.6666666666666666,1,object_07,5,2409,0,6,6,desert_18,2,memory-2step-stake-s,682,3600823,0.0-18.0-0.1-0.183,1876,2,1
184,1,object_04,object_09,431.0,2,2,446.0,1.0,2,object_01,5,2454,0,7,9,desert_5,2,memory-2step-stake-s,683,3609397,0.0-18.0-0.1-0.184,1876,1,2
185,2,object_02,object_08,872.0,4,1,357.0,1.0,2,object_01,1,2463,0,6,9,forest_30,2,memory-2step-stake-s,684,3617899,0.0-18.0-0.1-0.185,1876,4,3
186,4,object_05,object_06,1141.0,8,1,-1.0,0.0,2,object_01,5,2463,0,7,9,restaurant_14,2,memory-2step-stake-s,685,3626416,0.0-18.0-0.1-0.186,1876,8,7
187,3,object_10,object_03,1145.0,5,2,475.0,0.7777777777777778,1,object_07,5,2498,0,7,7,library_23,2,memory-2step-stake-s,686,3634822,0.0-18.0-0.1-0.187,1876,6,5
188,4,object_05,object_06,872.0,7,2,49.0,0.7777777777777778,1,object_07,1,2505,0,7,3,restaurant_1,2,memory-2step-stake-s,687,3642810,0.0-18.0-0.1-0.188,1876,8,7
189,2,object_02,object_08,707.0,3,2,904.0,0.4444444444444444,1,object_07,5,2525,0,4,8,forest_15,2,memory-2step-stake-s,688,3651339,0.0-18.0-0.1-0.189,1876,4,3
190,2,object_08,object_02,1436.0,4,2,520.0,0.8888888888888888,2,object_01,1,2533,0,1,8,forest_23,2,memory-2step-stake-s,689,3659894,0.0-18.0-0.1-0.190,1876,3,4
191,1,object_04,object_09,1277.0,1,1,24.0,0.1111111111111111,1,object_07,5,2538,0,1,8,desert_23,2,memory-2step-stake-s,690,3667245,0.0-18.0-0.1-0.191,1876,1,2
192,2,object_02,object_08,1112.0,3,2,1498.0,0.0,1,object_07,5,2538,0,0,9,forest_22,2,memory-2step-stake-s,691,3675966,0.0-18.0-0.1-0.192,1876,4,3
193,1,object_04,object_09,825.0,2,2,-1.0,0.0,2,object_01,5,2538,0,3,7,desert_10,2,memory-2step-stake-s,692,3684489,0.0-18.0-0.1-0.193,1876,1,2
194,3,object_03,object_10,-1.0,-1,-1,-1.0,0.0,-,,1,2538,0,2,5,library_29,2,memory-2step-stake-s,693,3691002,0.0-18.0-0.1-0.194,1876,5,6
195,1,object_09,object_04,952.0,1,2,1321.0,0.4444444444444444,1,object_07,5,2558,0,4,6,desert_9,2,memory-2step-stake-s,694,3699941,0.0-18.0-0.1-0.195,1876,2,1
196,1,object_04,object_09,1306.0,1,1,793.0,0.2222222222222222,1,object_07,5,2568,0,2,8,desert_3,2,memory-2step-stake-s,695,3708162,0.0-18.0-0.1-0.196,1876,1,2
197,1,object_09,object_04,963.0,2,1,-1.0,0.0,2,object_01,5,2568,0,4,6,desert_9,2,memory-2step-stake-s,696,3716681,0.0-18.0-0.1-0.197,1876,2,1
198,1,object_04,object_09,683.0,2,2,63.0,0.2222222222222222,2,object_01,5,2578,0,4,2,desert_4,2,memory-2step-stake-s,697,3724162,0.0-18.0-0.1-0.198,1876,1,2
199,3,object_10,object_03,492.0,5,2,93.0,0.7777777777777778,1,object_07,1,2585,0,7,2,library_3,2,memory-2step-stake-s,698,3732184,0.0-18.0-0.1-0.199,1876,6,5
200,2,object_02,object_08,309.0,3,2,340.0,0.8888888888888888,1,object_07,1,2593,0,8,0,forest_20,2,memory-2step-stake-s,699,3740562,0.0-18.0-0.1-0.200,1876,4,3
201,4,object_06,object_05,651.0,8,2,1248.0,0.2222222222222222,2,object_01,1,2595,0,8,2,restaurant_11,2,memory-2step-stake-s,700,3749241,0.0-18.0-0.1-0.201,1876,7,8
202,1,object_09,object_04,-1.0,-1,-1,-1.0,0.0,-,,5,2595,0,9,4,desert_27,2,memory-2step-stake-s,701,3755761,0.0-18.0-0.1-0.202,1876,2,1
203,3,object_10,object_03,-1.0,-1,-1,-1.0,0.0,-,,1,2595,0,5,5,library_25,2,memory-2step-stake-s,702,3762277,0.0-18.0-0.1-0.203,1876,6,5
204,1,object_09,object_04,-1.0,-1,-1,-1.0,0.0,-,,5,2595,0,4,2,desert_29,2,memory-2step-stake-s,703,3768795,0.0-18.0-0.1-0.204,1876,2,1
205,2,object_08,object_02,-1.0,-1,-1,-1.0,0.0,-,,5,2595,0,4,0,forest_32,2,memory-2step-stake-s,704,3775313,0.0-18.0-0.1-0.205,1876,3,4
206,3,object_10,object_03,-1.0,-1,-1,-1.0,0.0,-,,1,2595,0,5,0,library_10,2,memory-2step-stake-s,705,3781824,0.0-18.0-0.1-0.206,1876,6,5
207,2,object_08,object_02,-1.0,-1,-1,-1.0,0.0,-,,5,2595,0,4,1,forest_30,2,memory-2step-stake-s,706,3788336,0.0-18.0-0.1-0.207,1876,3,4
208,4,object_05,object_06,-1.0,-1,-1,-1.0,0.0,-,,5,2595,0,1,2,restaurant_14,2,memory-2step-stake-s,707,3794852,0.0-18.0-0.1-0.208,1876,8,7
209,2,object_08,object_02,-1.0,-1,-1,-1.0,0.0,-,,5,2595,0,0,2,forest_5,2,memory-2step-stake-s,708,3801367,0.0-18.0-0.1-0.209,1876,3,4
210,3,object_03,object_10,-1.0,-1,-1,-1.0,0.0,-,,1,2595,0,2,2,library_6,2,memory-2step-stake-s,709,3807879,0.0-18.0-0.1-0.210,1876,5,6
211,1,object_04,object_09,-1.0,-1,-1,-1.0,0.0,-,,5,2595,0,1,1,desert_3,2,memory-2step-stake-s,710,3814396,0.0-18.0-0.1-0.211,1876,1,2
212,4,object_05,object_06,-1.0,-1,-1,-1.0,0.0,-,,1,2595,0,2,3,restaurant_29,2,memory-2step-stake-s,711,3820914,0.0-18.0-0.1-0.212,1876,8,7
213,4,object_06,object_05,-1.0,-1,-1,-1.0,0.0,-,,1,2595,0,2,6,restaurant_19,2,memory-2step-stake-s,712,3827423,0.0-18.0-0.1-0.213,1876,7,8
214,4,object_06,object_05,931.0,8,2,43.0,0.7777777777777778,2,object_01,1,2602,0,1,7,restaurant_24,2,memory-2step-stake-s,713,3835407,0.0-18.0-0.1-0.214,1876,7,8
215,4,object_05,object_06,786.0,7,2,39.0,0.1111111111111111,1,object_07,1,2603,0,1,5,restaurant_26,2,memory-2step-stake-s,714,3842769,0.0-18.0-0.1-0.215,1876,8,7
216,3,object_03,object_10,944.0,5,1,96.0,0.3333333333333333,1,object_07,1,2606,0,3,4,library_2,2,memory-2step-stake-s,715,3850390,0.0-18.0-0.1-0.216,1876,5,6
217,1,object_09,object_04,482.0,2,1,288.0,0.2222222222222222,2,object_01,5,2616,0,5,2,desert_5,2,memory-2step-stake-s,716,3858099,0.0-18.0-0.1-0.217,1876,2,1
218,2,object_02,object_08,1084.0,3,2,105.0,0.5555555555555556,1,object_07,1,2621,0,5,1,forest_5,2,memory-2step-stake-s,717,3865931,0.0-18.0-0.1-0.218,1876,4,3
219,4,object_05,object_06,213.0,7,2,634.0,0.4444444444444444,1,object_07,1,2625,0,4,3,restaurant_14,2,memory-2step-stake-s,718,3874188,0.0-18.0-0.1-0.219,1876,8,7
220,4,object_06,object_05,694.0,7,1,116.0,0.5555555555555556,1,object_07,1,2630,0,5,0,restaurant_12,2,memory-2step-stake-s,719,3882039,0.0-18.0-0.1-0.220,1876,7,8
221,2,object_08,object_02,999.0,4,2,308.0,0.1111111111111111,2,object_01,5,2635,0,6,1,forest_20,2,memory-2step-stake-s,720,3889670,0.0-18.0-0.1-0.221,1876,3,4
222,3,object_03,object_10,775.0,5,1,94.0,0.7777777777777778,1,object_07,5,2670,0,7,3,library_20,2,memory-2step-stake-s,721,3897692,0.0-18.0-0.1-0.222,1876,5,6
223,1,object_09,object_04,209.0,1,2,150.0,0.8888888888888888,1,object_07,1,2678,0,8,3,desert_8,2,memory-2step-stake-s,722,3905885,0.0-18.0-0.1-0.223,1876,2,1
224,1,object_09,object_04,461.0,1,2,291.0,1.0,1,object_07,5,2723,0,9,3,desert_23,2,memory-2step-stake-s,723,3914312,0.0-18.0-0.1-0.224,1876,2,1
225,4,object_06,object_05,793.0,8,2,61.0,0.2222222222222222,2,object_01,1,2725,0,8,2,restaurant_12,2,memory-2step-stake-s,724,3921800,0.0-18.0-0.1-0.225,1876,7,8
226,4,object_06,object_05,434.0,8,2,67.0,0.4444444444444444,2,object_01,1,2729,0,7,4,restaurant_2,2,memory-2step-stake-s,725,3929505,0.0-18.0-0.1-0.226,1876,7,8
227,2,object_08,object_02,108.0,4,2,1.0,0.6666666666666666,2,object_01,5,2759,0,7,6,forest_4,2,memory-2step-stake-s,726,3937346,0.0-18.0-0.1-0.227,1876,3,4
228,3,object_10,object_03,221.0,5,2,131.0,0.8888888888888888,1,object_07,1,2767,0,8,7,library_3,2,memory-2step-stake-s,727,3945518,0.0-18.0-0.1-0.228,1876,6,5
229,3,object_03,object_10,1329.0,6,2,-1.0,0.0,2,object_01,1,2767,0,6,6,library_25,2,memory-2step-stake-s,728,3954045,0.0-18.0-0.1-0.229,1876,5,6
230,2,object_02,object_08,354.0,4,1,38.0,0.5555555555555556,2,object_01,5,2792,0,8,5,forest_14,2,memory-2step-stake-s,729,3961813,0.0-18.0-0.1-0.230,1876,4,3
231,2,object_08,object_02,739.0,4,2,162.0,0.3333333333333333,2,object_01,5,2807,0,8,3,forest_27,2,memory-2step-stake-s,730,3969498,0.0-18.0-0.1-0.231,1876,3,4
232,2,object_08,object_02,747.0,4,2,153.0,0.4444444444444444,2,object_01,5,2827,0,8,4,forest_12,2,memory-2step-stake-s,731,3977288,0.0-18.0-0.1-0.232,1876,3,4
233,3,object_10,object_03,634.0,5,2,590.0,0.6666666666666666,1,object_07,1,2833,0,6,6,library_10,2,memory-2step-stake-s,732,3985705,0.0-18.0-0.1-0.233,1876,6,5
234,3,object_10,object_03,630.0,6,1,11.0,0.8888888888888888,2,object_01,1,2841,0,5,8,library_12,2,memory-2step-stake-s,733,3993755,0.0-18.0-0.1-0.234,1876,6,5
235,4,object_05,object_06,273.0,7,2,356.0,0.6666666666666666,1,object_07,5,2871,0,6,9,restaurant_30,2,memory-2step-stake-s,734,4001956,0.0-18.0-0.1-0.235,1876,8,7
236,4,object_06,object_05,67.0,8,2,-1.0,0.0,2,object_01,1,2871,0,7,6,restaurant_31,2,memory-2step-stake-s,735,4010472,0.0-18.0-0.1-0.236,1876,7,8
237,1,object_09,object_04,1140.0,1,2,348.0,1.0,1,object_07,5,2916,0,9,7,desert_27,2,memory-2step-stake-s,736,4018965,0.0-18.0-0.1-0.237,1876,2,1
238,4,object_05,object_06,635.0,7,2,785.0,0.8888888888888888,1,object_07,1,2924,0,8,8,restaurant_21,2,memory-2step-stake-s,737,4027783,0.0-18.0-0.1-0.238,1876,8,7
239,2,object_02,object_08,153.0,3,2,176.0,0.8888888888888888,1,object_07,5,2964,0,8,6,forest_27,2,memory-2step-stake-s,738,4035990,0.0-18.0-0.1-0.239,1876,4,3
240,4,object_06,object_05,1254.0,7,1,527.0,0.7777777777777778,1,object_07,1,2971,0,7,4,restaurant_29,2,memory-2step-stake-s,739,4044446,0.0-18.0-0.1-0.240,1876,7,8
241,3,object_10,object_03,303.0,5,2,-1.0,0.0,1,object_07,1,2971,0,4,2,library_1,2,memory-2step-stake-s,740,4052974,0.0-18.0-0.1-0.241,1876,6,5
242,1,object_04,object_09,839.0,1,1,279.0,0.4444444444444444,1,object_07,5,2991,0,4,4,desert_28,2,memory-2step-stake-s,741,4060877,0.0-18.0-0.1-0.242,1876,1,2
243,3,object_03,object_10,1016.0,5,1,151.0,0.7777777777777778,1,object_07,1,2998,0,7,5,library_1,2,memory-2step-stake-s,742,4068964,0.0-18.0-0.1-0.243,1876,5,6
244,4,object_06,object_05,47.0,8,2,403.0,0.7777777777777778,2,object_01,1,3005,0,9,7,restaurant_4,2,memory-2step-stake-s,743,4077294,0.0-18.0-0.1-0.244,1876,7,8
245,1,object_09,object_04,781.0,1,2,145.0,0.8888888888888888,1,object_07,5,3045,0,8,6,desert_17,2,memory-2step-stake-s,744,4085488,0.0-18.0-0.1-0.245,1876,2,1
246,3,object_03,object_10,136.0,6,2,794.0,0.4444444444444444,2,object_01,5,3065,0,9,4,library_1,2,memory-2step-stake-s,745,4093915,0.0-18.0-0.1-0.246,1876,5,6
247,4,object_05,object_06,766.0,8,1,92.0,0.6666666666666666,2,object_01,1,3071,0,7,6,restaurant_6,2,memory-2step-stake-s,746,4101838,0.0-18.0-0.1-0.247,1876,8,7
248,4,object_06,object_05,178.0,7,1,341.0,0.7777777777777778,1,object_07,1,3078,0,7,7,restaurant_24,2,memory-2step-stake-s,747,4110114,0.0-18.0-0.1-0.248,1876,7,8
249,2,object_02,object_08,546.0,4,1,216.0,1.0,2,object_01,5,3123,0,9,9,forest_15,2,memory-2step-stake-s,748,4118464,0.0-18.0-0.1-0.249,1876,4,3
250,2,object_08,object_02,69.0,4,2,59.0,0.5555555555555556,2,object_01,1,3128,0,9,5,forest_3,2,memory-2step-stake-s,749,4126252,0.0-18.0-0.1-0.250,1876,3,4
251,1,object_04,object_09,30.0,2,2,538.0,0.6666666666666666,2,object_01,1,3134,0,8,6,desert_17,2,memory-2step-stake-s,750,4134614,0.0-18.0-0.1-0.251,1876,1,2
252,1,object_04,object_09,920.0,1,1,309.0,0.8888888888888888,1,object_07,5,3174,0,8,9,desert_28,2,memory-2step-stake-s,751,4142963,0.0-18.0-0.1-0.252,1876,1,2
253,4,object_05,object_06,759.0,8,1,1473.0,0.7777777777777778,2,object_01,5,3209,0,7,7,restaurant_21,2,memory-2step-stake-s,752,4152380,0.0-18.0-0.1-0.253,1876,8,7
254,3,object_03,object_10,186.0,6,2,851.0,0.8888888888888888,2,object_01,1,3217,0,9,8,library_4,2,memory-2step-stake-s,753,4161277,0.0-18.0-0.1-0.254,1876,5,6
255,2,object_02,object_08,1147.0,4,1,363.0,0.6666666666666666,2,object_01,5,3247,0,5,6,forest_27,2,memory-2step-stake-s,754,4169472,0.0-18.0-0.1-0.255,1876,4,3
