,state1,stim_left,stim_right,rt_1,choice1,response1,rt_2,points,state2,stim_state2,stake,score,practice,rews1,rews2,background,high_arm,trial_type,trial_index,time_elapsed,internal_node_id,subid,stim_left_num,stim_right_num
0,3,object_10,object_02,561.69,6,1,418.49,0.6666666666666666,2,object_06,1,6,0,4,6,library_16,1,memory-2step-stake-s,488,1174564,0.0-18.0-0.0-0.0,2962,6,5
1,2,object_03,object_05,1130.955,4,2,475.64,0.3333333333333333,2,object_06,1,9,0,3,3,forest_13,1,memory-2step-stake-s,489,1182590,0.0-18.0-0.0-0.1,2962,3,4
2,2,object_03,object_05,1095.48,4,2,-1.0,0.0,2,object_06,1,9,0,2,3,forest_5,1,memory-2step-stake-s,490,1191118,0.0-18.0-0.0-0.2,2962,3,4
3,4,object_04,object_01,521.84,8,1,719.93,0.2222222222222222,2,object_06,5,19,0,1,2,restaurant_19,1,memory-2step-stake-s,491,1199276,0.0-18.0-0.0-0.3,2962,8,7
4,2,object_03,object_05,858.02,3,1,357.25,0.2222222222222222,1,object_08,1,21,0,2,0,forest_15,1,memory-2step-stake-s,492,1207070,0.0-18.0-0.0-0.4,2962,3,4
5,1,object_07,object_09,720.165,2,2,369.18,0.3333333333333333,2,object_06,5,36,0,3,3,desert_5,1,memory-2step-stake-s,493,1214991,0.0-18.0-0.0-0.5,2962,1,2
6,4,object_01,object_04,829.155,8,2,308.575,0.4444444444444444,2,object_06,5,56,0,5,4,restaurant_5,1,memory-2step-stake-s,494,1222953,0.0-18.0-0.0-0.6,2962,7,8
7,4,object_04,object_01,-1.0,-1,-1,-1.0,0.0,-,,1,56,0,6,3,restaurant_5,1,memory-2step-stake-s,495,1229481,0.0-18.0-0.0-0.7,2962,8,7
8,3,object_02,object_10,681.225,5,1,347.91,0.7777777777777778,1,object_08,5,91,0,7,0,library_14,1,memory-2step-stake-s,496,1237791,0.0-18.0-0.0-0.8,2962,5,6
9,1,object_09,object_07,936.64,2,1,286.795,0.2222222222222222,2,object_06,5,101,0,8,2,desert_7,1,memory-2step-stake-s,497,1245520,0.0-18.0-0.0-0.9,2962,2,1
10,1,object_07,object_09,953.05,1,1,371.215,0.8888888888888888,1,object_08,1,109,0,8,5,desert_22,1,memory-2step-stake-s,498,1253958,0.0-18.0-0.0-0.10,2962,1,2
11,4,object_04,object_01,1232.085,8,1,560.57,1.0,2,object_06,5,154,0,7,9,restaurant_28,1,memory-2step-stake-s,499,1262683,0.0-18.0-0.0-0.11,2962,8,7
12,1,object_07,object_09,1259.58,2,2,396.63,0.8888888888888888,2,object_06,1,162,0,6,8,desert_3,1,memory-2step-stake-s,500,1271141,0.0-18.0-0.0-0.12,2962,1,2
13,4,object_01,object_04,1035.595,7,1,300.65,0.6666666666666666,1,object_08,5,192,0,6,8,restaurant_28,1,memory-2step-stake-s,501,1279291,0.0-18.0-0.0-0.13,2962,7,8
14,2,object_05,object_03,-1.0,-1,-1,-1.0,0.0,-,,1,192,0,7,9,forest_3,1,memory-2step-stake-s,502,1285816,0.0-18.0-0.0-0.14,2962,4,3
15,3,object_10,object_02,639.9,6,1,440.495,0.6666666666666666,2,object_06,5,222,0,8,6,library_8,1,memory-2step-stake-s,503,1294114,0.0-18.0-0.0-0.15,2962,6,5
16,4,object_01,object_04,888.71,7,1,265.8,0.8888888888888888,1,object_08,5,262,0,8,6,restaurant_17,1,memory-2step-stake-s,504,1302445,0.0-18.0-0.0-0.16,2962,7,8
17,4,object_01,object_04,530.48,8,2,263.255,0.5555555555555556,2,object_06,5,287,0,5,5,restaurant_29,1,memory-2step-stake-s,505,1310458,0.0-18.0-0.0-0.17,2962,7,8
18,3,object_10,object_02,978.985,5,2,362.3,0.6666666666666666,1,object_08,5,317,0,6,2,library_32,1,memory-2step-stake-s,506,1318679,0.0-18.0-0.0-0.18,2962,6,5
19,3,object_10,object_02,774.85,6,1,309.43,0.1111111111111111,2,object_06,5,322,0,5,1,library_8,1,memory-2step-stake-s,507,1326316,0.0-18.0-0.0-0.19,2962,6,5
20,3,object_02,object_10,925.07,5,1,378.445,0.4444444444444444,1,object_08,5,342,0,4,2,library_32,1,memory-2step-stake-s,508,1334349,0.0-18.0-0.0-0.20,2962,5,6
21,2,object_05,object_03,983.12,4,1,300.37,0.1111111111111111,2,object_06,1,343,0,5,1,forest_15,1,memory-2step-stake-s,509,1341983,0.0-18.0-0.0-0.21,2962,4,3
22,2,object_03,object_05,965.365,3,1,288.465,0.5555555555555556,1,object_08,1,348,0,5,1,forest_8,1,memory-2step-stake-s,510,1350032,0.0-18.0-0.0-0.22,2962,3,4
23,2,object_05,object_03,951.445,3,2,273.47,0.6666666666666666,1,object_08,1,354,0,6,0,forest_25,1,memory-2step-stake-s,511,1358159,0.0-18.0-0.0-0.23,2962,4,3
24,1,object_07,object_09,847.34,2,2,232.85,0.1111111111111111,2,object_06,1,355,0,6,1,desert_25,1,memory-2step-stake-s,512,1365728,0.0-18.0-0.0-0.24,2962,1,2
25,1,object_09,object_07,717.235,1,2,266.195,0.7777777777777778,1,object_08,1,362,0,7,1,desert_31,1,memory-2step-stake-s,513,1373957,0.0-18.0-0.0-0.25,2962,2,1
26,3,object_10,object_02,626.66,5,2,359.34,0.5555555555555556,1,object_08,5,387,0,5,3,library_2,1,memory-2step-stake-s,514,1382073,0.0-18.0-0.0-0.26,2962,6,5
27,1,object_09,object_07,991.975,1,2,263.91,0.7777777777777778,1,object_08,1,394,0,7,6,desert_23,1,memory-2step-stake-s,515,1390296,0.0-18.0-0.0-0.27,2962,2,1
28,3,object_10,object_02,892.92,5,2,253.975,0.4444444444444444,1,object_08,5,414,0,4,5,library_6,1,memory-2step-stake-s,516,1398199,0.0-18.0-0.0-0.28,2962,6,5
29,4,object_04,object_01,841.575,8,1,355.84,0.5555555555555556,2,object_06,5,439,0,5,5,restaurant_6,1,memory-2step-stake-s,517,1406303,0.0-18.0-0.0-0.29,2962,8,7
30,4,object_04,object_01,669.105,8,1,224.11,0.2222222222222222,2,object_06,5,449,0,3,2,restaurant_4,1,memory-2step-stake-s,518,1413966,0.0-18.0-0.0-0.30,2962,8,7
31,1,object_09,object_07,774.885,2,1,151.4,0.5555555555555556,2,object_06,5,474,0,1,5,desert_5,1,memory-2step-stake-s,519,1421872,0.0-18.0-0.0-0.31,2962,2,1
32,1,object_07,object_09,887.49,1,1,252.455,0.1111111111111111,1,object_08,1,475,0,1,4,desert_25,1,memory-2step-stake-s,520,1429459,0.0-18.0-0.0-0.32,2962,1,2
33,1,object_07,object_09,765.305,2,2,484.475,1.0,2,object_06,1,484,0,1,9,desert_3,1,memory-2step-stake-s,521,1438097,0.0-18.0-0.0-0.33,2962,1,2
34,1,object_09,object_07,475.68,2,1,298.395,0.8888888888888888,2,object_06,5,524,0,3,8,desert_15,1,memory-2step-stake-s,522,1446457,0.0-18.0-0.0-0.34,2962,2,1
35,1,object_07,object_09,1161.825,1,1,379.21,0.0,1,object_08,1,524,0,0,5,desert_19,1,memory-2step-stake-s,523,1454067,0.0-18.0-0.0-0.35,2962,1,2
36,3,object_10,object_02,632.59,6,1,311.49,0.4444444444444444,2,object_06,5,544,0,2,4,library_13,1,memory-2step-stake-s,524,1462020,0.0-18.0-0.0-0.36,2962,6,5
37,2,object_05,object_03,888.95,3,2,264.29,0.1111111111111111,1,object_08,1,545,0,1,5,forest_3,1,memory-2step-stake-s,525,1469616,0.0-18.0-0.0-0.37,2962,4,3
38,3,object_02,object_10,813.315,6,2,257.965,0.6666666666666666,2,object_06,5,575,0,1,6,library_24,1,memory-2step-stake-s,526,1477729,0.0-18.0-0.0-0.38,2962,5,6
39,2,object_03,object_05,861.78,4,2,218.835,0.5555555555555556,2,object_06,5,600,0,1,5,forest_22,1,memory-2step-stake-s,527,1485690,0.0-18.0-0.0-0.39,2962,3,4
40,3,object_02,object_10,762.295,5,1,259.985,0.4444444444444444,1,object_08,1,604,0,4,6,library_9,1,memory-2step-stake-s,528,1493594,0.0-18.0-0.0-0.40,2962,5,6
41,4,object_04,object_01,805.675,8,1,251.38,0.8888888888888888,2,object_06,5,644,0,3,8,restaurant_26,1,memory-2step-stake-s,529,1501904,0.0-18.0-0.0-0.41,2962,8,7
42,3,object_02,object_10,930.58,5,1,54.0,0.1111111111111111,1,object_08,5,649,0,1,8,library_8,1,memory-2step-stake-s,530,1509294,0.0-18.0-0.0-0.42,2962,5,6
43,4,object_04,object_01,951.205,8,1,315.16,0.6666666666666666,2,object_06,5,679,0,4,6,restaurant_1,1,memory-2step-stake-s,531,1517456,0.0-18.0-0.0-0.43,2962,8,7
44,3,object_02,object_10,665.77,5,1,276.945,0.4444444444444444,1,object_08,1,683,0,4,7,library_29,1,memory-2step-stake-s,532,1525385,0.0-18.0-0.0-0.44,2962,5,6
45,1,object_09,object_07,662.94,1,2,82.93,0.5555555555555556,1,object_08,5,708,0,5,7,desert_2,1,memory-2step-stake-s,533,1533213,0.0-18.0-0.0-0.45,2962,2,1
46,3,object_10,object_02,680.52,5,2,221.17,0.7777777777777778,1,object_08,1,715,0,7,5,library_18,1,memory-2step-stake-s,534,1541394,0.0-18.0-0.0-0.46,2962,6,5
47,3,object_02,object_10,606.135,5,1,725.78,0.6666666666666666,1,object_08,5,745,0,6,5,library_3,1,memory-2step-stake-s,535,1549973,0.0-18.0-0.0-0.47,2962,5,6
48,4,object_01,object_04,785.6,7,1,256.41,0.5555555555555556,1,object_08,5,770,0,5,6,restaurant_22,1,memory-2step-stake-s,536,1557978,0.0-18.0-0.0-0.48,2962,7,8
49,4,object_04,object_01,1056.93,8,1,349.93,0.6666666666666666,2,object_06,5,800,0,8,6,restaurant_19,1,memory-2step-stake-s,537,1566186,0.0-18.0-0.0-0.49,2962,8,7
50,3,object_02,object_10,485.67,5,1,283.45,0.5555555555555556,1,object_08,5,825,0,5,6,library_22,1,memory-2step-stake-s,538,1574223,0.0-18.0-0.0-0.50,2962,5,6
51,4,object_04,object_01,724.01,7,2,246.485,0.6666666666666666,1,object_08,5,855,0,6,7,restaurant_17,1,memory-2step-stake-s,539,1582327,0.0-18.0-0.0-0.51,2962,8,7
52,2,object_03,object_05,744.66,3,1,353.775,0.7777777777777778,1,object_08,1,862,0,7,8,forest_30,1,memory-2step-stake-s,540,1590646,0.0-18.0-0.0-0.52,2962,3,4
53,4,object_01,object_04,885.735,8,2,234.885,0.7777777777777778,2,object_06,5,897,0,8,7,restaurant_6,1,memory-2step-stake-s,541,1598842,0.0-18.0-0.0-0.53,2962,7,8
54,1,object_07,object_09,693.14,2,2,247.81,1.0,2,object_06,1,906,0,7,9,desert_2,1,memory-2step-stake-s,542,1607247,0.0-18.0-0.0-0.54,2962,1,2
55,3,object_02,object_10,871.94,6,2,364.225,0.8888888888888888,2,object_06,5,946,0,5,8,library_29,1,memory-2step-stake-s,543,1615669,0.0-18.0-0.0-0.55,2962,5,6
56,2,object_03,object_05,981.705,3,1,265.665,0.4444444444444444,1,object_08,1,950,0,4,7,forest_31,1,memory-2step-stake-s,544,1623584,0.0-18.0-0.0-0.56,2962,3,4
57,1,object_09,object_07,723.68,2,1,240.59,0.8888888888888888,2,object_06,1,958,0,5,8,desert_5,1,memory-2step-stake-s,545,1631876,0.0-18.0-0.0-0.57,2962,2,1
58,1,object_07,object_09,692.665,1,1,272.08,0.3333333333333333,1,object_08,1,961,0,3,8,desert_32,1,memory-2step-stake-s,546,1639693,0.0-18.0-0.0-0.58,2962,1,2
59,3,object_10,object_02,872.32,6,1,-1.0,0.0,2,object_06,1,961,0,5,8,library_13,1,memory-2step-stake-s,547,1648223,0.0-18.0-0.0-0.59,2962,6,5
60,1,object_07,object_09,597.915,2,2,62.615,0.8888888888888888,2,object_06,1,969,0,6,8,desert_9,1,memory-2step-stake-s,548,1656342,0.0-18.0-0.0-0.60,2962,1,2
61,4,object_01,object_04,939.65,8,2,136.465,1.0,2,object_06,1,978,0,3,9,restaurant_21,1,memory-2step-stake-s,549,1664647,0.0-18.0-0.0-0.61,2962,7,8
62,4,object_01,object_04,903.75,8,2,57.875,1.0,2,object_06,5,1023,0,5,9,restaurant_13,1,memory-2step-stake-s,550,1672869,0.0-18.0-0.0-0.62,2962,7,8
63,1,object_09,object_07,918.56,2,1,254.975,0.6666666666666666,2,object_06,1,1029,0,4,6,desert_2,1,memory-2step-stake-s,551,1680984,0.0-18.0-0.0-0.63,2962,2,1
64,4,object_01,object_04,648.82,7,1,315.95,0.4444444444444444,1,object_08,5,1049,0,4,4,restaurant_2,1,memory-2step-stake-s,552,1688952,0.0-18.0-0.0-0.64,2962,7,8
65,3,object_02,object_10,768.67,5,1,230.15,0.3333333333333333,1,object_08,1,1052,0,3,0,library_6,1,memory-2step-stake-s,553,1696719,0.0-18.0-0.0-0.65,2962,5,6
66,3,object_10,object_02,916.765,6,1,240.825,0.1111111111111111,2,object_06,5,1057,0,3,1,library_32,1,memory-2step-stake-s,554,1704294,0.0-18.0-0.0-0.66,2962,6,5
67,4,object_04,object_01,804.305,7,2,136.4,0.0,1,object_08,5,1057,0,0,1,restaurant_6,1,memory-2step-stake-s,555,1711661,0.0-18.0-0.0-0.67,2962,8,7
68,2,object_05,object_03,1039.65,4,1,195.99,0.2222222222222222,2,object_06,1,1059,0,2,2,forest_30,1,memory-2step-stake-s,556,1719289,0.0-18.0-0.0-0.68,2962,4,3
69,3,object_10,object_02,840.665,5,2,209.22,0.3333333333333333,1,object_08,5,1074,0,3,1,library_14,1,memory-2step-stake-s,557,1727042,0.0-18.0-0.0-0.69,2962,6,5
70,2,object_05,object_03,922.62,4,1,175.97,0.1111111111111111,2,object_06,1,1075,0,1,1,forest_3,1,memory-2step-stake-s,558,1734559,0.0-18.0-0.0-0.70,2962,4,3
71,4,object_04,object_01,1056.47,7,2,63.72999999,0.1111111111111111,1,object_08,1,1076,0,1,2,restaurant_2,1,memory-2step-stake-s,559,1741958,0.0-18.0-0.0-0.71,2962,8,7
72,3,object_10,object_02,874.835,6,1,116.44,0.2222222222222222,2,object_06,5,1086,0,2,2,library_27,1,memory-2step-stake-s,560,1749519,0.0-18.0-0.0-0.72,2962,6,5
73,2,object_03,object_05,788.995,4,2,890.955,0.2222222222222222,2,object_06,1,1088,0,1,2,forest_14,1,memory-2step-stake-s,561,1757846,0.0-18.0-0.0-0.73,2962,3,4
74,1,object_09,object_07,755.43,1,2,227.23,0.1111111111111111,1,object_08,1,1089,0,1,2,desert_21,1,memory-2step-stake-s,562,1765405,0.0-18.0-0.0-0.74,2962,2,1
75,2,object_03,object_05,818.125,4,2,343.78,0.7777777777777778,2,object_06,1,1096,0,5,7,forest_22,1,memory-2step-stake-s,563,1773706,0.0-18.0-0.0-0.75,2962,3,4
76,1,object_09,object_07,663.03,2,1,271.06,0.4444444444444444,2,object_06,1,1100,0,6,4,desert_9,1,memory-2step-stake-s,564,1781618,0.0-18.0-0.0-0.76,2962,2,1
77,1,object_07,object_09,627.895,2,2,232.965,0.6666666666666666,2,object_06,1,1106,0,8,6,desert_30,1,memory-2step-stake-s,565,1789693,0.0-18.0-0.0-0.77,2962,1,2
78,4,object_01,object_04,615.1,8,2,42.35999999,0.8888888888888888,2,object_06,5,1146,0,8,8,restaurant_13,1,memory-2step-stake-s,566,1797794,0.0-18.0-0.0-0.78,2962,7,8
79,2,object_05,object_03,655.025,4,1,5.604999984,1.0,2,object_06,1,1155,0,8,9,forest_15,1,memory-2step-stake-s,567,1805964,0.0-18.0-0.0-0.79,2962,4,3
80,3,object_02,object_10,855.85,5,1,80.76000001,0.8888888888888888,1,object_08,1,1163,0,8,8,library_2,1,memory-2step-stake-s,568,1814107,0.0-18.0-0.0-0.80,2962,5,6
81,3,object_02,object_10,752.3,5,1,74.56500002,1.0,1,object_08,1,1172,0,9,9,library_13,1,memory-2step-stake-s,569,1822349,0.0-18.0-0.0-0.81,2962,5,6
82,4,object_01,object_04,1108.26,7,1,256.555,0.8888888888888888,1,object_08,5,1212,0,8,6,restaurant_11,1,memory-2step-stake-s,570,1830677,0.0-18.0-0.0-0.82,2962,7,8
83,3,object_10,object_02,665.085,5,2,8.860000002,1.0,1,object_08,5,1257,0,9,7,library_22,1,memory-2step-stake-s,571,1838856,0.0-18.0-0.0-0.83,2962,6,5
84,1,object_07,object_09,766.19,1,1,46.46499999,0.8888888888888888,1,object_08,1,1265,0,8,6,desert_13,1,memory-2step-stake-s,572,1846969,0.0-18.0-0.0-0.84,2962,1,2
85,3,object_10,object_02,627.035,5,2,115.005,0.6666666666666666,1,object_08,5,1295,0,6,5,library_6,1,memory-2step-stake-s,573,1854939,0.0-18.0-0.0-0.85,2962,6,5
86,4,object_04,object_01,631.74,7,2,169.955,1.0,1,object_08,5,1340,0,9,7,restaurant_5,1,memory-2step-stake-s,574,1863269,0.0-18.0-0.0-0.86,2962,8,7
87,3,object_10,object_02,586.58,5,2,138.735,0.8888888888888888,1,object_08,5,1380,0,8,3,library_16,1,memory-2step-stake-s,575,1871469,0.0-18.0-0.0-0.87,2962,6,5
88,2,object_05,object_03,585.615,4,1,9.850000002,0.2222222222222222,2,object_06,1,1382,0,8,2,forest_22,1,memory-2step-stake-s,576,1878917,0.0-18.0-0.0-0.88,2962,4,3
89,2,object_05,object_03,473.23,3,2,361.615,0.5555555555555556,1,object_08,1,1387,0,5,1,forest_13,1,memory-2step-stake-s,577,1887030,0.0-18.0-0.0-0.89,2962,4,3
90,3,object_10,object_02,586.97,5,2,224.195,0.6666666666666666,1,object_08,5,1417,0,6,2,library_27,1,memory-2step-stake-s,578,1895110,0.0-18.0-0.0-0.90,2962,6,5
91,2,object_03,object_05,741.045,4,2,103.0,0.2222222222222222,2,object_06,1,1419,0,3,2,forest_25,1,memory-2step-stake-s,579,1902650,0.0-18.0-0.0-0.91,2962,3,4
92,1,object_07,object_09,753.97,1,1,285.505,0.8888888888888888,1,object_08,1,1427,0,8,3,desert_7,1,memory-2step-stake-s,580,1910986,0.0-18.0-0.0-0.92,2962,1,2
93,2,object_03,object_05,840.05,3,1,8.115000004,1.0,1,object_08,5,1472,0,9,5,forest_22,1,memory-2step-stake-s,581,1919158,0.0-18.0-0.0-0.93,2962,3,4
94,4,object_01,object_04,1067.55,7,1,316.73,0.8888888888888888,1,object_08,5,1512,0,8,4,restaurant_5,1,memory-2step-stake-s,582,1927537,0.0-18.0-0.0-0.94,2962,7,8
95,3,object_02,object_10,611.63,5,1,765.355,0.7777777777777778,1,object_08,5,1547,0,7,3,library_8,1,memory-2step-stake-s,583,1936266,0.0-18.0-0.0-0.95,2962,5,6
96,2,object_05,object_03,805.56,3,2,207.555,0.6666666666666666,1,object_08,1,1553,0,6,4,forest_14,1,memory-2step-stake-s,584,1944322,0.0-18.0-0.0-0.96,2962,4,3
97,1,object_09,object_07,689.83,1,2,104.55,0.3333333333333333,1,object_08,1,1556,0,3,3,desert_1,1,memory-2step-stake-s,585,1951964,0.0-18.0-0.0-0.97,2962,2,1
98,2,object_05,object_03,648.785,4,1,747.34,0.3333333333333333,2,object_06,1,1559,0,2,3,forest_27,1,memory-2step-stake-s,586,1960247,0.0-18.0-0.0-0.98,2962,4,3
99,2,object_05,object_03,641.205,4,1,49.04000001,0.1111111111111111,2,object_06,1,1560,0,0,1,forest_11,1,memory-2step-stake-s,587,1967628,0.0-18.0-0.0-0.99,2962,4,3
100,1,object_09,object_07,565.485,1,2,25.24000002,0.1111111111111111,1,object_08,1,1561,0,1,2,desert_19,1,memory-2step-stake-s,588,1974992,0.0-18.0-0.0-0.100,2962,2,1
101,3,object_02,object_10,853.455,6,2,176.515,0.2222222222222222,2,object_06,5,1571,0,1,2,library_20,1,memory-2step-stake-s,589,1982602,0.0-18.0-0.0-0.101,2962,5,6
102,4,object_04,object_01,1237.975,8,1,272.735,0.2222222222222222,2,object_06,5,1581,0,3,2,restaurant_21,1,memory-2step-stake-s,590,1990320,0.0-18.0-0.0-0.102,2962,8,7
103,2,object_03,object_05,690.065,3,1,82.86,0.2222222222222222,1,object_08,1,1583,0,2,4,forest_30,1,memory-2step-stake-s,591,1997841,0.0-18.0-0.0-0.103,2962,3,4
104,2,object_03,object_05,1018.06,4,2,135.405,0.2222222222222222,2,object_06,1,1585,0,5,2,forest_27,1,memory-2step-stake-s,592,2005419,0.0-18.0-0.0-0.104,2962,3,4
105,3,object_10,object_02,738.325,6,1,9.244999994,0.1111111111111111,2,object_06,5,1590,0,4,1,library_27,1,memory-2step-stake-s,593,2012760,0.0-18.0-0.0-0.105,2962,6,5
106,4,object_01,object_04,693.305,7,1,182.78,0.3333333333333333,1,object_08,5,1605,0,3,0,restaurant_26,1,memory-2step-stake-s,594,2020486,0.0-18.0-0.0-0.106,2962,7,8
107,4,object_01,object_04,661.515,7,1,28.34000002,0.6666666666666666,1,object_08,5,1635,0,6,2,restaurant_17,1,memory-2step-stake-s,595,2028373,0.0-18.0-0.0-0.107,2962,7,8
108,3,object_02,object_10,674.725,5,1,411.93,0.7777777777777778,1,object_08,1,1642,0,7,0,library_24,1,memory-2step-stake-s,596,2036742,0.0-18.0-0.0-0.108,2962,5,6
109,3,object_02,object_10,554.315,5,1,55.96,0.3333333333333333,1,object_08,5,1657,0,3,0,library_30,1,memory-2step-stake-s,597,2044340,0.0-18.0-0.0-0.109,2962,5,6
110,1,object_07,object_09,653.18,2,2,995.725,0.3333333333333333,2,object_06,5,1672,0,2,3,desert_13,1,memory-2step-stake-s,598,2052882,0.0-18.0-0.0-0.110,2962,1,2
111,2,object_03,object_05,604.705,3,1,240.435,0.2222222222222222,1,object_08,1,1674,0,2,4,forest_23,1,memory-2step-stake-s,599,2060559,0.0-18.0-0.0-0.111,2962,3,4
112,2,object_05,object_03,378.205,3,2,69.19499999,0.1111111111111111,1,object_08,1,1675,0,1,3,forest_27,1,memory-2step-stake-s,600,2067964,0.0-18.0-0.0-0.112,2962,4,3
113,2,object_05,object_03,432.225,4,1,62.01999998,0.2222222222222222,2,object_06,1,1677,0,2,2,forest_25,1,memory-2step-stake-s,601,2075464,0.0-18.0-0.0-0.113,2962,4,3
114,2,object_03,object_05,611.84,3,1,184.88,0.1111111111111111,1,object_08,1,1678,0,1,3,forest_9,1,memory-2step-stake-s,602,2082982,0.0-18.0-0.0-0.114,2962,3,4
115,2,object_03,object_05,330.79,4,2,141.745,0.0,2,object_06,1,1678,0,1,0,forest_5,1,memory-2step-stake-s,603,2090354,0.0-18.0-0.0-0.115,2962,3,4
116,2,object_03,object_05,609.975,3,1,78.26499999,0.0,1,object_08,1,1678,0,0,2,forest_5,1,memory-2step-stake-s,604,2097666,0.0-18.0-0.0-0.116,2962,3,4
117,3,object_10,object_02,743.32,6,1,106.37,0.2222222222222222,2,object_06,1,1680,0,1,2,library_3,1,memory-2step-stake-s,605,2105212,0.0-18.0-0.0-0.117,2962,6,5
118,4,object_01,object_04,928.115,8,2,175.955,0.3333333333333333,2,object_06,5,1695,0,1,3,restaurant_32,1,memory-2step-stake-s,606,2112933,0.0-18.0-0.0-0.118,2962,7,8
119,2,object_03,object_05,835.445,3,1,62.26500002,0.0,1,object_08,1,1695,0,0,2,forest_18,1,memory-2step-stake-s,607,2120234,0.0-18.0-0.0-0.119,2962,3,4
120,2,object_05,object_03,564.565,4,1,24.13999999,0.0,2,object_06,1,1695,0,1,0,forest_8,1,memory-2step-stake-s,608,2127495,0.0-18.0-0.0-0.120,2962,4,3
121,4,object_01,object_04,819.815,7,1,199.67,0.0,1,object_08,5,1695,0,0,1,restaurant_32,1,memory-2step-stake-s,609,2134926,0.0-18.0-0.0-0.121,2962,7,8
122,3,object_02,object_10,956.76,6,2,155.96,0.0,2,object_06,5,1695,0,1,0,library_16,1,memory-2step-stake-s,610,2142313,0.0-18.0-0.0-0.122,2962,5,6
123,4,object_01,object_04,690.9,7,1,104.14,0.1111111111111111,1,object_08,5,1700,0,1,0,restaurant_11,1,memory-2step-stake-s,611,2149755,0.0-18.0-0.0-0.123,2962,7,8
124,1,object_09,object_07,770.075,2,1,80.56,0.1111111111111111,2,object_06,1,1701,0,2,1,desert_21,1,memory-2step-stake-s,612,2157171,0.0-18.0-0.0-0.124,2962,2,1
125,2,object_03,object_05,881.22,4,2,96.01000001,0.2222222222222222,2,object_06,1,1703,0,3,2,forest_10,1,memory-2step-stake-s,613,2164709,0.0-18.0-0.0-0.125,2962,3,4
126,2,object_03,object_05,446.075,4,2,42.22499998,0.0,2,object_06,1,1703,0,2,0,forest_31,1,memory-2step-stake-s,614,2171986,0.0-18.0-0.0-0.126,2962,3,4
127,3,object_02,object_10,727.385,6,2,60.38499999,0.2222222222222222,2,object_06,5,1713,0,4,2,library_9,1,memory-2step-stake-s,615,2179489,0.0-18.0-0.0-0.127,2962,5,6
128,2,object_03,object_05,582.785,3,1,320.37,0.0,1,object_08,5,1713,0,0,1,forest_11,1,memory-2step-stake-s,617,2204068,0.0-18.0-0.1-0.128,2962,3,4
129,3,object_10,object_02,475.285,5,2,26.82,0.1111111111111111,1,object_08,5,1718,0,1,0,library_24,1,memory-2step-stake-s,618,2211429,0.0-18.0-0.1-0.129,2962,6,5
130,1,object_09,object_07,446.215,2,1,87.55,0.4444444444444444,2,object_06,1,1722,0,1,4,desert_22,1,memory-2step-stake-s,619,2219152,0.0-18.0-0.1-0.130,2962,2,1
131,1,object_09,object_07,426.27,2,1,177.385,0.3333333333333333,2,object_06,1,1725,0,1,3,desert_2,1,memory-2step-stake-s,620,2226865,0.0-18.0-0.1-0.131,2962,2,1
132,4,object_01,object_04,879.96,8,2,132.655,0.0,2,object_06,5,1725,0,1,0,restaurant_17,1,memory-2step-stake-s,621,2234228,0.0-18.0-0.1-0.132,2962,7,8
133,3,object_10,object_02,970.965,5,2,57.69500002,0.1111111111111111,1,object_08,5,1730,0,1,1,library_27,1,memory-2step-stake-s,622,2241619,0.0-18.0-0.1-0.133,2962,6,5
134,3,object_10,object_02,710.02,6,1,63.67500001,0.5555555555555556,2,object_06,5,1755,0,2,5,library_18,1,memory-2step-stake-s,623,2249426,0.0-18.0-0.1-0.134,2962,6,5
135,1,object_09,object_07,467.375,2,1,1009.815,0.6666666666666666,2,object_06,1,1761,0,2,6,desert_3,1,memory-2step-stake-s,624,2258291,0.0-18.0-0.1-0.135,2962,2,1
136,3,object_10,object_02,593.795,6,1,30.49500001,0.3333333333333333,2,object_06,5,1776,0,0,3,library_24,1,memory-2step-stake-s,625,2265867,0.0-18.0-0.1-0.136,2962,6,5
137,4,object_04,object_01,926.46,7,2,145.605,0.2222222222222222,1,object_08,1,1778,0,2,1,restaurant_32,1,memory-2step-stake-s,626,2273451,0.0-18.0-0.1-0.137,2962,8,7
138,3,object_10,object_02,660.625,6,1,274.85,0.0,2,object_06,1,1778,0,3,0,library_6,1,memory-2step-stake-s,627,2280954,0.0-18.0-0.1-0.138,2962,6,5
139,4,object_01,object_04,841.115,8,2,120.295,0.1111111111111111,2,object_06,5,1783,0,0,1,restaurant_10,1,memory-2step-stake-s,628,2288405,0.0-18.0-0.1-0.139,2962,7,8
140,1,object_09,object_07,588.215,1,2,128.265,0.1111111111111111,1,object_08,5,1788,0,1,2,desert_32,1,memory-2step-stake-s,629,2295870,0.0-18.0-0.1-0.140,2962,2,1
141,1,object_09,object_07,614.95,1,2,121.22,0.4444444444444444,1,object_08,1,1792,0,4,3,desert_3,1,memory-2step-stake-s,630,2303638,0.0-18.0-0.1-0.141,2962,2,1
142,2,object_03,object_05,738.41,3,1,193.74,0.6666666666666666,1,object_08,1,1798,0,6,4,forest_25,1,memory-2step-stake-s,631,2311686,0.0-18.0-0.1-0.142,2962,3,4
143,4,object_04,object_01,794.92,7,2,152.625,0.4444444444444444,1,object_08,5,1818,0,4,5,restaurant_1,1,memory-2step-stake-s,632,2319483,0.0-18.0-0.1-0.143,2962,8,7
144,4,object_01,object_04,788.13,7,1,90.55000002,0.7777777777777778,1,object_08,5,1853,0,7,7,restaurant_4,1,memory-2step-stake-s,633,2327526,0.0-18.0-0.1-0.144,2962,7,8
145,2,object_05,object_03,-1.0,-1,-1,-1.0,0.0,-,,1,1853,0,4,5,forest_14,1,memory-2step-stake-s,634,2334051,0.0-18.0-0.1-0.145,2962,4,3
146,1,object_07,object_09,737.305,1,1,213.34,0.4444444444444444,1,object_08,5,1873,0,4,7,desert_31,1,memory-2step-stake-s,635,2341908,0.0-18.0-0.1-0.146,2962,1,2
147,2,object_05,object_03,697.985,3,2,92.37,0.5555555555555556,1,object_08,1,1878,0,5,8,forest_23,1,memory-2step-stake-s,636,2349733,0.0-18.0-0.1-0.147,2962,4,3
148,4,object_04,object_01,809.47,7,2,158.03,0.2222222222222222,1,object_08,5,1888,0,2,9,restaurant_13,1,memory-2step-stake-s,637,2357323,0.0-18.0-0.1-0.148,2962,8,7
149,2,object_05,object_03,786.24,4,1,4.515000008,0.6666666666666666,2,object_06,5,1918,0,4,6,forest_11,1,memory-2step-stake-s,638,2365184,0.0-18.0-0.1-0.149,2962,4,3
150,1,object_07,object_09,771.07,2,2,50.59999999,0.7777777777777778,2,object_06,1,1925,0,8,7,desert_19,1,memory-2step-stake-s,639,2373195,0.0-18.0-0.1-0.150,2962,1,2
151,3,object_10,object_02,774.3,6,1,182.165,0.7777777777777778,2,object_06,1,1932,0,8,7,library_20,1,memory-2step-stake-s,640,2381337,0.0-18.0-0.1-0.151,2962,6,5
152,1,object_09,object_07,566.545,2,1,60.81,0.8888888888888888,2,object_06,1,1940,0,8,8,desert_19,1,memory-2step-stake-s,641,2389452,0.0-18.0-0.1-0.152,2962,2,1
153,4,object_04,object_01,782.86,8,1,83.82500001,0.7777777777777778,2,object_06,5,1975,0,8,7,restaurant_10,1,memory-2step-stake-s,642,2397492,0.0-18.0-0.1-0.153,2962,8,7
154,2,object_03,object_05,665.905,4,2,168.605,1.0,2,object_06,5,2020,0,9,9,forest_5,1,memory-2step-stake-s,643,2405825,0.0-18.0-0.1-0.154,2962,3,4
155,3,object_02,object_10,793.67,6,2,47.87500002,0.5555555555555556,2,object_06,1,2025,0,8,5,library_13,1,memory-2step-stake-s,644,2413628,0.0-18.0-0.1-0.155,2962,5,6
156,1,object_09,object_07,687.445,2,1,355.13,1.0,2,object_06,1,2034,0,6,9,desert_30,1,memory-2step-stake-s,645,2422147,0.0-18.0-0.1-0.156,2962,2,1
157,4,object_04,object_01,670.215,8,1,211.93,0.7777777777777778,2,object_06,5,2069,0,3,7,restaurant_4,1,memory-2step-stake-s,646,2430316,0.0-18.0-0.1-0.157,2962,8,7
158,3,object_02,object_10,602.91,6,2,65.99499998,0.8888888888888888,2,object_06,5,2109,0,2,8,library_16,1,memory-2step-stake-s,647,2438436,0.0-18.0-0.1-0.158,2962,5,6
159,2,object_03,object_05,628.49,4,2,149.135,0.8888888888888888,2,object_06,1,2117,0,4,8,forest_23,1,memory-2step-stake-s,648,2446647,0.0-18.0-0.1-0.159,2962,3,4
160,4,object_01,object_04,737.465,8,2,305.45,0.5555555555555556,2,object_06,5,2142,0,0,5,restaurant_29,1,memory-2step-stake-s,649,2454705,0.0-18.0-0.1-0.160,2962,7,8
161,1,object_07,object_09,797.765,1,1,39.75500001,0.2222222222222222,1,object_08,1,2144,0,2,9,desert_7,1,memory-2step-stake-s,650,2462185,0.0-18.0-0.1-0.161,2962,1,2
162,2,object_03,object_05,751.985,4,2,585.42,1.0,2,object_06,1,2153,0,5,9,forest_9,1,memory-2step-stake-s,651,2470945,0.0-18.0-0.1-0.162,2962,3,4
163,3,object_10,object_02,932.73,6,1,53.86500002,1.0,2,object_06,5,2198,0,3,9,library_18,1,memory-2step-stake-s,652,2479171,0.0-18.0-0.1-0.163,2962,6,5
164,1,object_07,object_09,764.94,2,2,92.58999999,0.7777777777777778,2,object_06,1,2205,0,4,7,desert_5,1,memory-2step-stake-s,653,2487216,0.0-18.0-0.1-0.164,2962,1,2
165,1,object_09,object_07,505.86,2,1,85.43000001,0.7777777777777778,2,object_06,1,2212,0,1,7,desert_30,1,memory-2step-stake-s,654,2495268,0.0-18.0-0.1-0.165,2962,2,1
166,2,object_05,object_03,640.835,4,1,32.11,0.7777777777777778,2,object_06,1,2219,0,2,7,forest_10,1,memory-2step-stake-s,655,2503268,0.0-18.0-0.1-0.166,2962,4,3
167,2,object_03,object_05,667.23,4,2,261.87,0.8888888888888888,2,object_06,1,2227,0,3,8,forest_11,1,memory-2step-stake-s,656,2511580,0.0-18.0-0.1-0.167,2962,3,4
168,3,object_02,object_10,605.68,6,2,61.43,0.5555555555555556,2,object_06,5,2252,0,5,5,library_22,1,memory-2step-stake-s,657,2519397,0.0-18.0-0.1-0.168,2962,5,6
169,3,object_10,object_02,794.185,6,1,77.17499998,0.6666666666666666,2,object_06,5,2282,0,4,6,library_2,1,memory-2step-stake-s,658,2527327,0.0-18.0-0.1-0.169,2962,6,5
170,1,object_09,object_07,610.805,2,1,350.61,1.0,2,object_06,5,2327,0,2,9,desert_1,1,memory-2step-stake-s,659,2535840,0.0-18.0-0.1-0.170,2962,2,1
171,4,object_04,object_01,719.535,8,1,277.715,0.7777777777777778,2,object_06,5,2362,0,6,7,restaurant_10,1,memory-2step-stake-s,660,2544081,0.0-18.0-0.1-0.171,2962,8,7
172,4,object_01,object_04,599.145,8,2,223.135,0.6666666666666666,2,object_06,5,2392,0,6,6,restaurant_11,1,memory-2step-stake-s,661,2552158,0.0-18.0-0.1-0.172,2962,7,8
173,2,object_03,object_05,732.905,4,2,118.32,0.7777777777777778,2,object_06,1,2399,0,8,7,forest_15,1,memory-2step-stake-s,662,2560239,0.0-18.0-0.1-0.173,2962,3,4
174,2,object_05,object_03,792.12,4,1,173.5,0.5555555555555556,2,object_06,1,2404,0,7,5,forest_31,1,memory-2step-stake-s,663,2568160,0.0-18.0-0.1-0.174,2962,4,3
175,2,object_05,object_03,462.3,4,1,130.34,0.5555555555555556,2,object_06,1,2409,0,5,5,forest_23,1,memory-2step-stake-s,664,2576049,0.0-18.0-0.1-0.175,2962,4,3
176,2,object_03,object_05,480.76,4,2,159.26,0.0,2,object_06,1,2409,0,8,0,forest_10,1,memory-2step-stake-s,665,2583439,0.0-18.0-0.1-0.176,2962,3,4
177,3,object_10,object_02,788.04,5,2,241.87,0.6666666666666666,1,object_08,5,2439,0,6,1,library_14,1,memory-2step-stake-s,666,2591538,0.0-18.0-0.1-0.177,2962,6,5
178,3,object_10,object_02,736.44,5,2,146.855,0.6666666666666666,1,object_08,1,2445,0,6,4,library_20,1,memory-2step-stake-s,667,2599537,0.0-18.0-0.1-0.178,2962,6,5
179,1,object_09,object_07,597.27,1,2,276.6,0.6666666666666666,1,object_08,1,2451,0,6,6,desert_9,1,memory-2step-stake-s,668,2607670,0.0-18.0-0.1-0.179,2962,2,1
180,1,object_07,object_09,670.33,1,1,80.81500002,0.8888888888888888,1,object_08,1,2459,0,8,6,desert_13,1,memory-2step-stake-s,669,2615815,0.0-18.0-0.1-0.180,2962,1,2
181,1,object_09,object_07,550.415,1,2,203.865,0.7777777777777778,1,object_08,1,2466,0,7,6,desert_22,1,memory-2step-stake-s,670,2623971,0.0-18.0-0.1-0.181,2962,2,1
182,3,object_02,object_10,570.785,5,1,176.035,0.7777777777777778,1,object_08,5,2501,0,7,6,library_14,1,memory-2step-stake-s,671,2632104,0.0-18.0-0.1-0.182,2962,5,6
183,2,object_05,object_03,672.445,3,2,226.235,0.2222222222222222,1,object_08,5,2511,0,2,5,forest_30,1,memory-2step-stake-s,672,2639767,0.0-18.0-0.1-0.183,2962,4,3
184,4,object_01,object_04,771.195,7,1,196.855,0.2222222222222222,1,object_08,5,2521,0,2,8,restaurant_21,1,memory-2step-stake-s,673,2647403,0.0-18.0-0.1-0.184,2962,7,8
185,3,object_10,object_02,1108.535,6,1,365.64,0.7777777777777778,2,object_06,5,2556,0,3,7,library_9,1,memory-2step-stake-s,674,2655731,0.0-18.0-0.1-0.185,2962,6,5
186,1,object_07,object_09,895.515,2,2,135.535,0.8888888888888888,2,object_06,1,2564,0,2,8,desert_23,1,memory-2step-stake-s,675,2663948,0.0-18.0-0.1-0.186,2962,1,2
187,1,object_07,object_09,917.8,2,2,305.81,0.8888888888888888,2,object_06,1,2572,0,5,8,desert_9,1,memory-2step-stake-s,676,2672322,0.0-18.0-0.1-0.187,2962,1,2
188,1,object_07,object_09,570.405,2,2,433.78,0.5555555555555556,2,object_06,1,2577,0,4,5,desert_22,1,memory-2step-stake-s,677,2680513,0.0-18.0-0.1-0.188,2962,1,2
189,2,object_05,object_03,650.15,4,1,12.46500001,0.5555555555555556,2,object_06,1,2582,0,7,5,forest_18,1,memory-2step-stake-s,678,2688271,0.0-18.0-0.1-0.189,2962,4,3
190,4,object_04,object_01,594.395,8,1,113.93,0.5555555555555556,2,object_06,5,2607,0,5,5,restaurant_29,1,memory-2step-stake-s,679,2696124,0.0-18.0-0.1-0.190,2962,8,7
191,2,object_03,object_05,675.965,3,1,45.66,0.6666666666666666,1,object_08,1,2613,0,6,4,forest_14,1,memory-2step-stake-s,680,2704023,0.0-18.0-0.1-0.191,2962,3,4
192,2,object_05,object_03,1022.715,3,2,168.98,0.8888888888888888,1,object_08,1,2621,0,8,4,forest_13,1,memory-2step-stake-s,681,2712261,0.0-18.0-0.1-0.192,2962,4,3
193,2,object_05,object_03,717.89,3,2,111.055,0.8888888888888888,1,object_08,5,2661,0,8,6,forest_18,1,memory-2step-stake-s,682,2720432,0.0-18.0-0.1-0.193,2962,4,3
194,2,object_05,object_03,733.615,3,2,96.685,0.8888888888888888,1,object_08,1,2669,0,8,5,forest_9,1,memory-2step-stake-s,683,2728597,0.0-18.0-0.1-0.194,2962,4,3
195,4,object_01,object_04,1237.7,8,2,259.69,0.4444444444444444,2,object_06,1,2673,0,5,4,restaurant_21,1,memory-2step-stake-s,684,2736506,0.0-18.0-0.1-0.195,2962,7,8
196,1,object_09,object_07,729.475,1,2,1.19000001,0.8888888888888888,1,object_08,1,2681,0,8,1,desert_13,1,memory-2step-stake-s,685,2744572,0.0-18.0-0.1-0.196,2962,2,1
197,3,object_02,object_10,730.865,5,1,160.84,0.5555555555555556,1,object_08,1,2686,0,5,3,library_20,1,memory-2step-stake-s,686,2752479,0.0-18.0-0.1-0.197,2962,5,6
198,2,object_05,object_03,587.315,3,2,102.205,0.8888888888888888,1,object_08,1,2694,0,8,0,forest_3,1,memory-2step-stake-s,687,2760644,0.0-18.0-0.1-0.198,2962,4,3
199,1,object_07,object_09,512.85,1,1,146.625,0.8888888888888888,1,object_08,1,2702,0,8,2,desert_1,1,memory-2step-stake-s,688,2768858,0.0-18.0-0.1-0.199,2962,1,2
200,1,object_09,object_07,509.925,1,2,86.47499999,0.5555555555555556,1,object_08,1,2707,0,5,4,desert_15,1,memory-2step-stake-s,689,2776695,0.0-18.0-0.1-0.200,2962,2,1
201,1,object_09,object_07,571.855,1,2,209.02,0.5555555555555556,1,object_08,1,2712,0,5,6,desert_31,1,memory-2step-stake-s,690,2784654,0.0-18.0-0.1-0.201,2962,2,1
202,1,object_07,object_09,1102.245,2,2,205.14,0.7777777777777778,2,object_06,5,2747,0,8,7,desert_25,1,memory-2step-stake-s,691,2792813,0.0-18.0-0.1-0.202,2962,1,2
203,4,object_04,object_01,833.88,8,1,185.345,0.5555555555555556,2,object_06,5,2772,0,5,5,restaurant_4,1,memory-2step-stake-s,692,2800752,0.0-18.0-0.1-0.203,2962,8,7
204,1,object_09,object_07,437.325,2,1,39.53499999,0.5555555555555556,2,object_06,1,2777,0,6,5,desert_21,1,memory-2step-stake-s,693,2808545,0.0-18.0-0.1-0.204,2962,2,1
205,3,object_02,object_10,682.085,6,2,137.09,0.6666666666666666,2,object_06,5,2807,0,8,6,library_29,1,memory-2step-stake-s,694,2816539,0.0-18.0-0.1-0.205,2962,5,6
206,3,object_02,object_10,481.9,5,1,231.39,0.8888888888888888,1,object_08,1,2815,0,8,2,library_2,1,memory-2step-stake-s,695,2824837,0.0-18.0-0.1-0.206,2962,5,6
207,4,object_01,object_04,599.93,7,1,173.195,0.8888888888888888,1,object_08,5,2855,0,8,1,restaurant_19,1,memory-2step-stake-s,696,2833080,0.0-18.0-0.1-0.207,2962,7,8
208,3,object_10,object_02,665.61,5,2,54.64000002,0.8888888888888888,1,object_08,5,2895,0,8,0,library_32,1,memory-2step-stake-s,697,2841199,0.0-18.0-0.1-0.208,2962,6,5
209,4,object_04,object_01,732.98,7,2,146.095,1.0,1,object_08,5,2940,0,9,0,restaurant_10,1,memory-2step-stake-s,698,2849506,0.0-18.0-0.1-0.209,2962,8,7
210,2,object_03,object_05,667.105,3,1,90.39,0.8888888888888888,1,object_08,5,2980,0,8,0,forest_31,1,memory-2step-stake-s,699,2857659,0.0-18.0-0.1-0.210,2962,3,4
211,3,object_02,object_10,549.785,5,1,127.11,0.8888888888888888,1,object_08,5,3020,0,8,1,library_30,1,memory-2step-stake-s,700,2865847,0.0-18.0-0.1-0.211,2962,5,6
212,4,object_01,object_04,527.745,7,1,119.935,0.7777777777777778,1,object_08,5,3055,0,7,3,restaurant_26,1,memory-2step-stake-s,701,2873931,0.0-18.0-0.1-0.212,2962,7,8
213,3,object_02,object_10,520.64,5,1,41.88,1.0,1,object_08,1,3064,0,9,4,library_30,1,memory-2step-stake-s,702,2882140,0.0-18.0-0.1-0.213,2962,5,6
214,1,object_09,object_07,565.1,1,2,96.53000001,0.6666666666666666,1,object_08,1,3070,0,6,5,desert_1,1,memory-2step-stake-s,703,2890087,0.0-18.0-0.1-0.214,2962,2,1
215,3,object_10,object_02,540.12,5,2,115.125,0.7777777777777778,1,object_08,5,3105,0,7,6,library_3,1,memory-2step-stake-s,704,2898153,0.0-18.0-0.1-0.215,2962,6,5
216,2,object_05,object_03,593.02,3,2,185.15,0.6666666666666666,1,object_08,1,3111,0,6,4,forest_8,1,memory-2step-stake-s,705,2906184,0.0-18.0-0.1-0.216,2962,4,3
217,1,object_09,object_07,930.935,1,2,307.24,0.8888888888888888,1,object_08,1,3119,0,8,3,desert_15,1,memory-2step-stake-s,706,2914550,0.0-18.0-0.1-0.217,2962,2,1
218,4,object_01,object_04,761.15,7,1,127.525,1.0,1,object_08,5,3164,0,9,1,restaurant_22,1,memory-2step-stake-s,707,2922842,0.0-18.0-0.1-0.218,2962,7,8
219,4,object_04,object_01,535.775,7,2,121.09,1.0,1,object_08,5,3209,0,9,2,restaurant_29,1,memory-2step-stake-s,708,2931135,0.0-18.0-0.1-0.219,2962,8,7
220,1,object_07,object_09,778.05,1,1,22.48499999,1.0,1,object_08,5,3254,0,9,4,desert_32,1,memory-2step-stake-s,709,2939329,0.0-18.0-0.1-0.220,2962,1,2
221,4,object_04,object_01,522.93,7,2,426.05,0.6666666666666666,1,object_08,5,3284,0,6,6,restaurant_22,1,memory-2step-stake-s,710,2947613,0.0-18.0-0.1-0.221,2962,8,7
222,2,object_05,object_03,627.71,3,2,78.305,1.0,1,object_08,1,3293,0,9,7,forest_18,1,memory-2step-stake-s,711,2955859,0.0-18.0-0.1-0.222,2962,4,3
223,3,object_10,object_02,583.74,5,2,103.665,0.7777777777777778,1,object_08,1,3300,0,7,9,library_22,1,memory-2step-stake-s,712,2963938,0.0-18.0-0.1-0.223,2962,6,5
224,2,object_03,object_05,799.8,3,1,216.925,0.7777777777777778,1,object_08,5,3335,0,7,7,forest_9,1,memory-2step-stake-s,713,2972098,0.0-18.0-0.1-0.224,2962,3,4
225,4,object_04,object_01,569.165,7,2,251.04,0.8888888888888888,1,object_08,5,3375,0,8,8,restaurant_1,1,memory-2step-stake-s,714,2980400,0.0-18.0-0.1-0.225,2962,8,7
226,4,object_01,object_04,696.445,7,1,6.385000015,0.8888888888888888,1,object_08,5,3415,0,8,6,restaurant_28,1,memory-2step-stake-s,715,2988469,0.0-18.0-0.1-0.226,2962,7,8
227,4,object_01,object_04,586.975,7,1,161.27,0.5555555555555556,1,object_08,5,3440,0,5,8,restaurant_1,1,memory-2step-stake-s,716,2996385,0.0-18.0-0.1-0.227,2962,7,8
228,3,object_10,object_02,635.245,6,1,99.865,0.7777777777777778,2,object_06,5,3475,0,5,7,library_29,1,memory-2step-stake-s,717,3004446,0.0-18.0-0.1-0.228,2962,6,5
229,3,object_10,object_02,559.565,6,1,48.53500001,0.3333333333333333,2,object_06,5,3490,0,7,3,library_30,1,memory-2step-stake-s,718,3012035,0.0-18.0-0.1-0.229,2962,6,5
230,4,object_04,object_01,577.9,7,2,56.65000001,0.6666666666666666,1,object_08,5,3520,0,6,1,restaurant_13,1,memory-2step-stake-s,719,3019948,0.0-18.0-0.1-0.230,2962,8,7
231,3,object_02,object_10,639.535,5,1,43.47,0.8888888888888888,1,object_08,5,3560,0,8,1,library_9,1,memory-2step-stake-s,720,3028060,0.0-18.0-0.1-0.231,2962,5,6
232,1,object_09,object_07,465.975,1,2,446.665,0.8888888888888888,1,object_08,1,3568,0,8,1,desert_31,1,memory-2step-stake-s,721,3036573,0.0-18.0-0.1-0.232,2962,2,1
233,1,object_09,object_07,574.015,1,2,39.085,0.8888888888888888,1,object_08,1,3576,0,8,3,desert_7,1,memory-2step-stake-s,722,3044677,0.0-18.0-0.1-0.233,2962,2,1
234,2,object_03,object_05,789.635,3,1,65.16,0.6666666666666666,1,object_08,5,3606,0,6,2,forest_8,1,memory-2step-stake-s,723,3052639,0.0-18.0-0.1-0.234,2962,3,4
235,4,object_01,object_04,762.135,7,1,176.56,0.7777777777777778,1,object_08,1,3613,0,7,5,restaurant_2,1,memory-2step-stake-s,724,3060769,0.0-18.0-0.1-0.235,2962,7,8
236,1,object_07,object_09,813.56,1,1,383.085,0.8888888888888888,1,object_08,1,3621,0,8,5,desert_32,1,memory-2step-stake-s,725,3069215,0.0-18.0-0.1-0.236,2962,1,2
237,4,object_01,object_04,553.92,7,1,97.98000002,0.8888888888888888,1,object_08,5,3661,0,8,6,restaurant_22,1,memory-2step-stake-s,726,3077372,0.0-18.0-0.1-0.237,2962,7,8
238,1,object_09,object_07,574.56,1,2,116.12,0.8888888888888888,1,object_08,1,3669,0,8,8,desert_15,1,memory-2step-stake-s,727,3085557,0.0-18.0-0.1-0.238,2962,2,1
239,2,object_03,object_05,621.48,3,1,185.29,0.8888888888888888,1,object_08,5,3709,0,8,8,forest_27,1,memory-2step-stake-s,728,3093801,0.0-18.0-0.1-0.239,2962,3,4
240,1,object_07,object_09,527.865,1,1,72.70000002,0.6666666666666666,1,object_08,1,3715,0,6,9,desert_21,1,memory-2step-stake-s,729,3101727,0.0-18.0-0.1-0.240,2962,1,2
241,4,object_04,object_01,608.325,7,2,153.515,0.5555555555555556,1,object_08,5,3740,0,5,6,restaurant_26,1,memory-2step-stake-s,730,3109623,0.0-18.0-0.1-0.241,2962,8,7
242,3,object_02,object_10,754.64,6,2,288.26,0.5555555555555556,2,object_06,5,3765,0,8,5,library_3,1,memory-2step-stake-s,731,3117663,0.0-18.0-0.1-0.242,2962,5,6
243,1,object_09,object_07,621.67,1,2,171.515,0.5555555555555556,1,object_08,1,3770,0,5,7,desert_23,1,memory-2step-stake-s,732,3125575,0.0-18.0-0.1-0.243,2962,2,1
244,4,object_01,object_04,808.605,7,1,3.950000013,0.3333333333333333,1,object_08,5,3785,0,3,8,restaurant_6,1,memory-2step-stake-s,733,3133128,0.0-18.0-0.1-0.244,2962,7,8
245,4,object_01,object_04,672.72,8,2,177.11,0.8888888888888888,2,object_06,5,3825,0,2,8,restaurant_11,1,memory-2step-stake-s,734,3141368,0.0-18.0-0.1-0.245,2962,7,8
246,1,object_07,object_09,623.3,2,2,122.435,0.8888888888888888,2,object_06,5,3865,0,3,8,desert_23,1,memory-2step-stake-s,735,3149550,0.0-18.0-0.1-0.246,2962,1,2
247,1,object_07,object_09,699.26,1,1,199.15,0.3333333333333333,1,object_08,1,3868,0,3,7,desert_25,1,memory-2step-stake-s,736,3157291,0.0-18.0-0.1-0.247,2962,1,2
248,4,object_01,object_04,596.035,8,2,95.18499998,0.8888888888888888,2,object_06,5,3908,0,1,8,restaurant_28,1,memory-2step-stake-s,737,3165442,0.0-18.0-0.1-0.248,2962,7,8
249,3,object_02,object_10,609.61,6,2,82.78,0.8888888888888888,2,object_06,5,3948,0,0,8,library_18,1,memory-2step-stake-s,738,3173581,0.0-18.0-0.1-0.249,2962,5,6
250,2,object_03,object_05,662.605,4,2,15.19000001,0.7777777777777778,2,object_06,5,3983,0,1,7,forest_10,1,memory-2step-stake-s,739,3181557,0.0-18.0-0.1-0.250,2962,3,4
251,4,object_01,object_04,594.165,8,2,73.88499999,0.7777777777777778,2,object_06,5,4018,0,1,7,restaurant_2,1,memory-2step-stake-s,740,3189585,0.0-18.0-0.1-0.251,2962,7,8
252,4,object_01,object_04,558.225,8,2,166.39,0.8888888888888888,2,object_06,5,4058,0,2,8,restaurant_32,1,memory-2step-stake-s,741,3197817,0.0-18.0-0.1-0.252,2962,7,8
253,4,object_04,object_01,542.475,8,1,46.21,0.6666666666666666,2,object_06,5,4088,0,3,6,restaurant_19,1,memory-2step-stake-s,742,3205719,0.0-18.0-0.1-0.253,2962,8,7
254,2,object_03,object_05,496.175,4,2,129.45,0.6666666666666666,2,object_06,1,4094,0,0,6,forest_13,1,memory-2step-stake-s,743,3213697,0.0-18.0-0.1-0.254,2962,3,4
255,1,object_07,object_09,568.58,2,2,7.0699999920000005,0.6666666666666666,2,object_06,1,4100,0,0,6,desert_30,1,memory-2step-stake-s,744,3221560,0.0-18.0-0.1-0.255,2962,1,2
