,state1,stim_left,stim_right,rt_1,choice1,response1,rt_2,points,state2,stim_state2,stake,score,practice,rews1,rews2,background,high_arm,trial_type,trial_index,time_elapsed,internal_node_id,subid,stim_left_num,stim_right_num
0,3,object_01,object_07,600.15,5,2,1079.99,0.1111111111111111,1,object_10,5,5,0,1,6,library_30,2,memory-2step-stake-s,489,873922,0.0-18.0-0.0-0.0,3591,6,5
1,4,object_09,object_04,475.9399999,8,1,1469.78,0.7777777777777778,2,object_02,1,12,0,0,7,restaurant_4,2,memory-2step-stake-s,490,883347,0.0-18.0-0.0-0.1,3591,8,7
2,1,object_05,object_08,638.8399999,2,2,951.865,0.8888888888888888,2,object_02,5,52,0,1,8,desert_9,2,memory-2step-stake-s,491,892363,0.0-18.0-0.0-0.2,3591,1,2
3,1,object_08,object_05,541.8,2,1,383.635,0.7777777777777778,2,object_02,5,87,0,3,7,desert_23,2,memory-2step-stake-s,492,900708,0.0-18.0-0.0-0.3,3591,2,1
4,4,object_09,object_04,846.315,7,2,393.1400001,0.3333333333333333,1,object_10,1,90,0,3,6,restaurant_13,2,memory-2step-stake-s,493,908653,0.0-18.0-0.0-0.4,3591,8,7
5,2,object_03,object_06,950.2549999,3,1,435.4899999,0.2222222222222222,1,object_10,5,100,0,2,4,forest_11,2,memory-2step-stake-s,494,916532,0.0-18.0-0.0-0.5,3591,3,4
6,4,object_04,object_09,721.275,7,1,376.93,0.2222222222222222,1,object_10,1,102,0,2,3,restaurant_6,2,memory-2step-stake-s,495,924365,0.0-18.0-0.0-0.6,3591,7,8
7,3,object_07,object_01,738.8500001,6,2,404.2,0.3333333333333333,2,object_02,1,105,0,2,3,library_13,2,memory-2step-stake-s,496,932315,0.0-18.0-0.0-0.7,3591,5,6
8,3,object_07,object_01,955.16,6,2,452.55500010000003,0.1111111111111111,2,object_02,5,110,0,0,1,library_17,2,memory-2step-stake-s,497,940106,0.0-18.0-0.0-0.8,3591,5,6
9,3,object_07,object_01,663.91,5,1,482.92,0.1111111111111111,1,object_10,1,111,0,1,0,library_18,2,memory-2step-stake-s,498,947936,0.0-18.0-0.0-0.9,3591,5,6
10,2,object_03,object_06,802.455,3,1,453.64,0.1111111111111111,1,object_10,5,116,0,1,1,forest_26,2,memory-2step-stake-s,499,955734,0.0-18.0-0.0-0.10,3591,3,4
11,1,object_05,object_08,620.84,2,2,332.385,0.2222222222222222,2,object_02,5,126,0,1,2,desert_26,2,memory-2step-stake-s,500,963510,0.0-18.0-0.0-0.11,3591,1,2
12,1,object_08,object_05,742.17,2,1,452.5050001,0.2222222222222222,2,object_02,5,136,0,3,2,desert_13,2,memory-2step-stake-s,501,971400,0.0-18.0-0.0-0.12,3591,2,1
13,3,object_07,object_01,779.93,6,2,474.915,0.1111111111111111,2,object_02,1,137,0,7,1,library_13,2,memory-2step-stake-s,502,979216,0.0-18.0-0.0-0.13,3591,5,6
14,4,object_04,object_09,996.6300001,8,2,469.99,0.1111111111111111,2,object_02,1,138,0,6,1,restaurant_19,2,memory-2step-stake-s,503,987027,0.0-18.0-0.0-0.14,3591,7,8
15,2,object_06,object_03,1027.415,4,1,512.465,0.3333333333333333,2,object_02,5,153,0,3,3,forest_26,2,memory-2step-stake-s,504,995070,0.0-18.0-0.0-0.15,3591,4,3
16,4,object_04,object_09,798.51,7,1,435.8099999,0.3333333333333333,1,object_10,1,156,0,3,4,restaurant_9,2,memory-2step-stake-s,505,1003047,0.0-18.0-0.0-0.16,3591,7,8
17,2,object_06,object_03,1492.475,4,1,516.425,0.2222222222222222,2,object_02,5,166,0,3,2,forest_3,2,memory-2step-stake-s,506,1011011,0.0-18.0-0.0-0.17,3591,4,3
18,1,object_05,object_08,556.505,2,2,458.69,0.4444444444444444,2,object_02,5,186,0,1,4,desert_22,2,memory-2step-stake-s,507,1019115,0.0-18.0-0.0-0.18,3591,1,2
19,3,object_07,object_01,462.695,5,1,326.8350001,0.6666666666666666,1,object_10,1,192,0,6,5,library_7,2,memory-2step-stake-s,508,1027303,0.0-18.0-0.0-0.19,3591,5,6
20,1,object_08,object_05,1304.56,2,1,552.17,0.8888888888888888,2,object_02,1,200,0,5,8,desert_29,2,memory-2step-stake-s,509,1035918,0.0-18.0-0.0-0.20,3591,2,1
21,2,object_06,object_03,1459.53,3,2,386.9700001,0.3333333333333333,1,object_10,5,215,0,3,6,forest_31,2,memory-2step-stake-s,510,1043854,0.0-18.0-0.0-0.21,3591,4,3
22,4,object_04,object_09,-1.0,-1,-1,-1.0,0.0,-,,1,215,0,1,8,restaurant_2,2,memory-2step-stake-s,511,1050384,0.0-18.0-0.0-0.22,3591,7,8
23,3,object_07,object_01,675.77,6,2,457.77,0.7777777777777778,2,object_02,1,222,0,1,7,library_8,2,memory-2step-stake-s,512,1058792,0.0-18.0-0.0-0.23,3591,5,6
24,1,object_05,object_08,462.225,2,2,117.56,0.5555555555555556,2,object_02,5,247,0,1,5,desert_8,2,memory-2step-stake-s,513,1066661,0.0-18.0-0.0-0.24,3591,1,2
25,2,object_06,object_03,854.755,4,1,368.26499989999996,0.4444444444444444,2,object_02,5,267,0,2,4,forest_30,2,memory-2step-stake-s,514,1074682,0.0-18.0-0.0-0.25,3591,4,3
26,2,object_03,object_06,384.175,4,2,323.985,0.2222222222222222,2,object_02,5,277,0,2,2,forest_11,2,memory-2step-stake-s,515,1082446,0.0-18.0-0.0-0.26,3591,3,4
27,3,object_07,object_01,461.32,5,1,262.06,0.5555555555555556,1,object_10,5,302,0,5,7,library_2,2,memory-2step-stake-s,516,1090460,0.0-18.0-0.0-0.27,3591,5,6
28,2,object_06,object_03,518.625,4,1,318.915,0.6666666666666666,2,object_02,5,332,0,5,6,forest_15,2,memory-2step-stake-s,517,1098633,0.0-18.0-0.0-0.28,3591,4,3
29,2,object_03,object_06,622.595,4,2,299.185,0.8888888888888888,2,object_02,5,372,0,4,8,forest_21,2,memory-2step-stake-s,518,1106993,0.0-18.0-0.0-0.29,3591,3,4
30,3,object_07,object_01,846.7100001,5,1,475.15,0.4444444444444444,1,object_10,5,392,0,4,8,library_9,2,memory-2step-stake-s,519,1115121,0.0-18.0-0.0-0.30,3591,5,6
31,4,object_04,object_09,354.18,8,2,219.15499989999998,0.8888888888888888,2,object_02,1,400,0,6,8,restaurant_31,2,memory-2step-stake-s,520,1123393,0.0-18.0-0.0-0.31,3591,7,8
32,2,object_03,object_06,648.82,4,2,265.505,0.6666666666666666,2,object_02,5,430,0,8,6,forest_2,2,memory-2step-stake-s,521,1131517,0.0-18.0-0.0-0.32,3591,3,4
33,4,object_09,object_04,386.96,8,1,634.1449999,0.6666666666666666,2,object_02,1,436,0,8,6,restaurant_19,2,memory-2step-stake-s,522,1140015,0.0-18.0-0.0-0.33,3591,8,7
34,2,object_03,object_06,828.6700001,3,1,259.475,0.4444444444444444,1,object_10,1,440,0,4,5,forest_9,2,memory-2step-stake-s,523,1147931,0.0-18.0-0.0-0.34,3591,3,4
35,4,object_09,object_04,686.515,7,2,292.26,0.2222222222222222,1,object_10,1,442,0,2,1,restaurant_16,2,memory-2step-stake-s,524,1155659,0.0-18.0-0.0-0.35,3591,8,7
36,4,object_09,object_04,497.985,8,1,376.6899999,0.2222222222222222,2,object_02,1,444,0,3,2,restaurant_30,2,memory-2step-stake-s,525,1163485,0.0-18.0-0.0-0.36,3591,8,7
37,2,object_03,object_06,824.115,4,2,265.7,0.2222222222222222,2,object_02,5,454,0,4,2,forest_2,2,memory-2step-stake-s,526,1171196,0.0-18.0-0.0-0.37,3591,3,4
38,1,object_05,object_08,806.375,1,1,281.99,0.7777777777777778,1,object_10,5,489,0,7,2,desert_32,2,memory-2step-stake-s,527,1179428,0.0-18.0-0.0-0.38,3591,1,2
39,2,object_03,object_06,479.36,3,1,287.1549999,0.6666666666666666,1,object_10,5,519,0,6,1,forest_30,2,memory-2step-stake-s,528,1187563,0.0-18.0-0.0-0.39,3591,3,4
40,3,object_01,object_07,481.975,6,1,233.855,0.3333333333333333,2,object_02,1,522,0,8,3,library_9,2,memory-2step-stake-s,529,1195351,0.0-18.0-0.0-0.40,3591,6,5
41,2,object_06,object_03,755.0799999,4,1,214.075,0.1111111111111111,2,object_02,5,527,0,7,1,forest_11,2,memory-2step-stake-s,530,1202910,0.0-18.0-0.0-0.41,3591,4,3
42,1,object_08,object_05,1169.51,1,2,293.1649999,0.6666666666666666,1,object_10,1,533,0,6,2,desert_7,2,memory-2step-stake-s,531,1211056,0.0-18.0-0.0-0.42,3591,2,1
43,4,object_09,object_04,1204.31,8,1,314.84,0.4444444444444444,2,object_02,1,537,0,8,4,restaurant_2,2,memory-2step-stake-s,532,1219030,0.0-18.0-0.0-0.43,3591,8,7
44,3,object_01,object_07,823.1,6,1,366.015,0.5555555555555556,2,object_02,1,542,0,6,5,library_7,2,memory-2step-stake-s,533,1227150,0.0-18.0-0.0-0.44,3591,6,5
45,1,object_05,object_08,496.32,1,1,357.455,0.7777777777777778,1,object_10,5,577,0,7,4,desert_16,2,memory-2step-stake-s,534,1235451,0.0-18.0-0.0-0.45,3591,1,2
46,2,object_03,object_06,484.82499989999997,3,1,263.26,0.6666666666666666,1,object_10,5,607,0,6,4,forest_25,2,memory-2step-stake-s,535,1243558,0.0-18.0-0.0-0.46,3591,3,4
47,1,object_05,object_08,739.01,1,1,766.3,0.5555555555555556,1,object_10,1,612,0,5,5,desert_2,2,memory-2step-stake-s,536,1252080,0.0-18.0-0.0-0.47,3591,1,2
48,3,object_07,object_01,653.53,6,2,501.5649999,0.8888888888888888,2,object_02,1,620,0,2,8,library_29,2,memory-2step-stake-s,537,1260626,0.0-18.0-0.0-0.48,3591,5,6
49,2,object_06,object_03,733.03,3,2,541.46,0.2222222222222222,1,object_10,5,630,0,2,7,forest_27,2,memory-2step-stake-s,538,1268609,0.0-18.0-0.0-0.49,3591,4,3
50,1,object_05,object_08,1174.975,2,2,333.93,1.0,2,object_02,5,675,0,3,9,desert_32,2,memory-2step-stake-s,539,1277110,0.0-18.0-0.0-0.50,3591,1,2
51,3,object_07,object_01,886.06,5,1,274.05,0.3333333333333333,1,object_10,1,678,0,3,7,library_5,2,memory-2step-stake-s,540,1284929,0.0-18.0-0.0-0.51,3591,5,6
52,1,object_05,object_08,751.64,2,2,284.86,0.5555555555555556,2,object_02,5,703,0,4,5,desert_23,2,memory-2step-stake-s,541,1292973,0.0-18.0-0.0-0.52,3591,1,2
53,1,object_05,object_08,640.5000001,1,1,277.075,0.5555555555555556,1,object_10,1,708,0,5,4,desert_22,2,memory-2step-stake-s,542,1301001,0.0-18.0-0.0-0.53,3591,1,2
54,1,object_05,object_08,494.02,1,1,299.165,0.3333333333333333,1,object_10,5,723,0,3,4,desert_29,2,memory-2step-stake-s,543,1308847,0.0-18.0-0.0-0.54,3591,1,2
55,3,object_01,object_07,953.2799999,5,2,291.67000010000004,0.7777777777777778,1,object_10,1,730,0,7,4,library_2,2,memory-2step-stake-s,544,1317095,0.0-18.0-0.0-0.55,3591,6,5
56,3,object_07,object_01,720.345,6,2,305.165,0.5555555555555556,2,object_02,1,735,0,6,5,library_30,2,memory-2step-stake-s,545,1325150,0.0-18.0-0.0-0.56,3591,5,6
57,3,object_01,object_07,1127.635,5,2,368.9,0.7777777777777778,1,object_10,1,742,0,7,8,library_23,2,memory-2step-stake-s,546,1333481,0.0-18.0-0.0-0.57,3591,6,5
58,1,object_05,object_08,781.03,1,1,524.49,0.8888888888888888,1,object_10,5,782,0,8,8,desert_7,2,memory-2step-stake-s,547,1342067,0.0-18.0-0.0-0.58,3591,1,2
59,1,object_05,object_08,788.835,1,1,271.845,0.5555555555555556,1,object_10,5,807,0,5,8,desert_26,2,memory-2step-stake-s,548,1350079,0.0-18.0-0.0-0.59,3591,1,2
60,3,object_01,object_07,588.6949999,5,2,299.08,0.2222222222222222,1,object_10,1,809,0,2,8,library_18,2,memory-2step-stake-s,549,1357820,0.0-18.0-0.0-0.60,3591,6,5
61,4,object_04,object_09,1083.145,8,2,427.5900001,0.7777777777777778,2,object_02,1,816,0,2,7,restaurant_30,2,memory-2step-stake-s,550,1366214,0.0-18.0-0.0-0.61,3591,7,8
62,1,object_08,object_05,638.72,1,2,266.24,0.2222222222222222,1,object_10,5,826,0,2,3,desert_5,2,memory-2step-stake-s,551,1373920,0.0-18.0-0.0-0.62,3591,2,1
63,2,object_06,object_03,845.6999999,4,1,279.93,0.8888888888888888,2,object_02,5,866,0,0,8,forest_18,2,memory-2step-stake-s,552,1382252,0.0-18.0-0.0-0.63,3591,4,3
64,2,object_03,object_06,649.8100001,3,1,315.81999989999997,0.2222222222222222,1,object_10,5,876,0,2,7,forest_18,2,memory-2step-stake-s,553,1389998,0.0-18.0-0.0-0.64,3591,3,4
65,1,object_05,object_08,577.645,1,1,296.95999989999996,0.4444444444444444,1,object_10,5,896,0,4,7,desert_13,2,memory-2step-stake-s,554,1397944,0.0-18.0-0.0-0.65,3591,1,2
66,3,object_07,object_01,638.5949999,6,2,249.90000010000003,1.0,2,object_02,1,905,0,6,9,library_22,2,memory-2step-stake-s,555,1406353,0.0-18.0-0.0-0.66,3591,5,6
67,2,object_03,object_06,406.3449999,4,2,306.5600001,1.0,2,object_02,1,914,0,8,9,forest_7,2,memory-2step-stake-s,556,1414818,0.0-18.0-0.0-0.67,3591,3,4
68,2,object_06,object_03,1072.805,4,1,371.465,0.8888888888888888,2,object_02,5,954,0,8,8,forest_9,2,memory-2step-stake-s,557,1423253,0.0-18.0-0.0-0.68,3591,4,3
69,4,object_09,object_04,676.66,7,2,375.31,0.7777777777777778,1,object_10,1,961,0,7,9,restaurant_16,2,memory-2step-stake-s,558,1431585,0.0-18.0-0.0-0.69,3591,8,7
70,3,object_07,object_01,594.6600001,6,2,335.68,0.8888888888888888,2,object_02,1,969,0,6,8,library_11,2,memory-2step-stake-s,559,1439963,0.0-18.0-0.0-0.70,3591,5,6
71,1,object_08,object_05,726.99,1,2,365.1299999,0.7777777777777778,1,object_10,1,976,0,7,7,desert_5,2,memory-2step-stake-s,560,1448285,0.0-18.0-0.0-0.71,3591,2,1
72,1,object_05,object_08,615.7150001,1,1,286.925,0.6666666666666666,1,object_10,1,982,0,6,8,desert_29,2,memory-2step-stake-s,561,1456433,0.0-18.0-0.0-0.72,3591,1,2
73,1,object_08,object_05,979.315,2,1,440.385,0.8888888888888888,2,object_02,5,1022,0,3,8,desert_6,2,memory-2step-stake-s,562,1464923,0.0-18.0-0.0-0.73,3591,2,1
74,2,object_06,object_03,592.645,3,2,295.54,1.0,1,object_10,1,1031,0,9,8,forest_15,2,memory-2step-stake-s,563,1473376,0.0-18.0-0.0-0.74,3591,4,3
75,2,object_06,object_03,463.5399999,4,1,294.0399999,1.0,2,object_02,5,1076,0,6,9,forest_31,2,memory-2step-stake-s,564,1481836,0.0-18.0-0.0-0.75,3591,4,3
76,3,object_01,object_07,976.76,5,2,331.6200001,0.5555555555555556,1,object_10,1,1081,0,5,6,library_24,2,memory-2step-stake-s,565,1489915,0.0-18.0-0.0-0.76,3591,6,5
77,1,object_05,object_08,807.9,2,2,368.945,0.4444444444444444,2,object_02,5,1101,0,3,4,desert_14,2,memory-2step-stake-s,566,1497933,0.0-18.0-0.0-0.77,3591,1,2
78,4,object_04,object_09,599.27,7,1,266.91,0.3333333333333333,1,object_10,1,1104,0,3,3,restaurant_23,2,memory-2step-stake-s,567,1505750,0.0-18.0-0.0-0.78,3591,7,8
79,4,object_09,object_04,1054.48,8,1,362.52,0.4444444444444444,2,object_02,1,1108,0,2,4,restaurant_13,2,memory-2step-stake-s,568,1513760,0.0-18.0-0.0-0.79,3591,8,7
80,2,object_03,object_06,513.475,3,1,277.585,0.6666666666666666,1,object_10,5,1138,0,6,6,forest_16,2,memory-2step-stake-s,569,1521892,0.0-18.0-0.0-0.80,3591,3,4
81,3,object_07,object_01,820.915,6,2,326.12,1.0,2,object_02,5,1183,0,6,9,library_18,2,memory-2step-stake-s,570,1530387,0.0-18.0-0.0-0.81,3591,5,6
82,4,object_09,object_04,1026.95,7,2,375.75,0.7777777777777778,1,object_10,1,1190,0,7,8,restaurant_7,2,memory-2step-stake-s,571,1538709,0.0-18.0-0.0-0.82,3591,8,7
83,3,object_07,object_01,866.5550001,5,1,654.2400001,1.0,1,object_10,1,1199,0,9,9,library_23,2,memory-2step-stake-s,572,1547527,0.0-18.0-0.0-0.83,3591,5,6
84,2,object_06,object_03,685.95,3,2,322.95999989999996,0.8888888888888888,1,object_10,5,1239,0,8,4,forest_11,2,memory-2step-stake-s,573,1555911,0.0-18.0-0.0-0.84,3591,4,3
85,4,object_04,object_09,976.32,8,2,623.2050001,0.4444444444444444,2,object_02,1,1243,0,7,4,restaurant_23,2,memory-2step-stake-s,574,1564179,0.0-18.0-0.0-0.85,3591,7,8
86,3,object_01,object_07,802.565,5,2,304.0,0.6666666666666666,1,object_10,1,1249,0,6,7,library_7,2,memory-2step-stake-s,575,1572343,0.0-18.0-0.0-0.86,3591,6,5
87,2,object_06,object_03,637.4,4,1,364.55500010000003,0.7777777777777778,2,object_02,1,1256,0,4,7,forest_3,2,memory-2step-stake-s,576,1580673,0.0-18.0-0.0-0.87,3591,4,3
88,1,object_05,object_08,691.8650001,1,1,329.855,0.4444444444444444,1,object_10,5,1276,0,4,9,desert_16,2,memory-2step-stake-s,577,1588644,0.0-18.0-0.0-0.88,3591,1,2
89,3,object_01,object_07,844.235,6,1,453.935,0.8888888888888888,2,object_02,5,1316,0,5,8,library_24,2,memory-2step-stake-s,578,1597155,0.0-18.0-0.0-0.89,3591,6,5
90,4,object_04,object_09,773.855,8,2,417.9849999,0.8888888888888888,2,object_02,5,1356,0,5,8,restaurant_1,2,memory-2step-stake-s,579,1605630,0.0-18.0-0.0-0.90,3591,7,8
91,1,object_08,object_05,656.5350001,1,2,349.0200001,0.6666666666666666,1,object_10,5,1386,0,6,6,desert_16,2,memory-2step-stake-s,580,1613836,0.0-18.0-0.0-0.91,3591,2,1
92,2,object_06,object_03,605.665,4,1,305.035,0.7777777777777778,2,object_02,5,1421,0,7,7,forest_31,2,memory-2step-stake-s,581,1622104,0.0-18.0-0.0-0.92,3591,4,3
93,1,object_08,object_05,658.645,2,1,611.57,0.7777777777777778,2,object_02,5,1456,0,8,7,desert_23,2,memory-2step-stake-s,582,1630677,0.0-18.0-0.0-0.93,3591,2,1
94,3,object_07,object_01,685.145,5,1,351.26499989999996,0.4444444444444444,1,object_10,1,1460,0,4,7,library_5,2,memory-2step-stake-s,583,1638683,0.0-18.0-0.0-0.94,3591,5,6
95,2,object_03,object_06,554.455,3,1,394.63,0.0,1,object_10,5,1460,0,0,6,forest_2,2,memory-2step-stake-s,584,1646311,0.0-18.0-0.0-0.95,3591,3,4
96,3,object_07,object_01,428.0000001,6,2,432.1549999,0.6666666666666666,2,object_02,5,1490,0,3,6,library_9,2,memory-2step-stake-s,585,1654596,0.0-18.0-0.0-0.96,3591,5,6
97,1,object_08,object_05,466.185,1,2,309.47,0.5555555555555556,1,object_10,5,1515,0,5,8,desert_31,2,memory-2step-stake-s,586,1662658,0.0-18.0-0.0-0.97,3591,2,1
98,4,object_09,object_04,623.805,7,2,357.925,0.7777777777777778,1,object_10,1,1522,0,7,8,restaurant_24,2,memory-2step-stake-s,587,1670981,0.0-18.0-0.0-0.98,3591,8,7
99,1,object_08,object_05,814.81,1,2,332.105,0.6666666666666666,1,object_10,1,1528,0,6,7,desert_14,2,memory-2step-stake-s,588,1679176,0.0-18.0-0.0-0.99,3591,2,1
100,1,object_08,object_05,569.695,2,1,394.22,1.0,2,object_02,5,1573,0,4,9,desert_6,2,memory-2step-stake-s,589,1687743,0.0-18.0-0.0-0.100,3591,2,1
101,4,object_09,object_04,750.07,8,1,305.98000010000004,0.7777777777777778,2,object_02,1,1580,0,7,7,restaurant_30,2,memory-2step-stake-s,590,1696015,0.0-18.0-0.0-0.101,3591,8,7
102,1,object_08,object_05,527.4,2,1,327.9299999,0.8888888888888888,2,object_02,5,1620,0,4,8,desert_32,2,memory-2step-stake-s,591,1704405,0.0-18.0-0.0-0.102,3591,2,1
103,1,object_05,object_08,612.435,1,1,385.81,0.5555555555555556,1,object_10,5,1645,0,5,5,desert_13,2,memory-2step-stake-s,592,1712551,0.0-18.0-0.0-0.103,3591,1,2
104,4,object_04,object_09,635.765,8,2,331.445,0.3333333333333333,2,object_02,1,1648,0,7,3,restaurant_6,2,memory-2step-stake-s,593,1720422,0.0-18.0-0.0-0.104,3591,7,8
105,4,object_09,object_04,854.9649999,7,2,281.98,0.8888888888888888,1,object_10,1,1656,0,8,2,restaurant_4,2,memory-2step-stake-s,594,1728767,0.0-18.0-0.0-0.105,3591,8,7
106,4,object_09,object_04,510.3750001,7,2,280.965,1.0,1,object_10,1,1665,0,9,4,restaurant_10,2,memory-2step-stake-s,595,1737213,0.0-18.0-0.0-0.106,3591,8,7
107,3,object_01,object_07,1095.98,6,1,451.86,0.4444444444444444,2,object_02,1,1669,0,8,4,library_23,2,memory-2step-stake-s,596,1745318,0.0-18.0-0.0-0.107,3591,6,5
108,2,object_03,object_06,889.01,4,2,375.1899999,0.2222222222222222,2,object_02,5,1679,0,9,2,forest_26,2,memory-2step-stake-s,597,1753132,0.0-18.0-0.0-0.108,3591,3,4
109,4,object_04,object_09,1102.155,7,1,333.015,0.8888888888888888,1,object_10,1,1687,0,8,2,restaurant_25,2,memory-2step-stake-s,598,1761529,0.0-18.0-0.0-0.109,3591,7,8
110,3,object_01,object_07,889.2750001,5,2,315.0300001,0.8888888888888888,1,object_10,1,1695,0,8,1,library_1,2,memory-2step-stake-s,599,1769906,0.0-18.0-0.0-0.110,3591,6,5
111,1,object_08,object_05,711.935,1,2,332.345,0.6666666666666666,1,object_10,1,1701,0,6,1,desert_2,2,memory-2step-stake-s,600,1778092,0.0-18.0-0.0-0.111,3591,2,1
112,3,object_01,object_07,681.865,6,1,293.97,0.2222222222222222,2,object_02,1,1703,0,9,2,library_18,2,memory-2step-stake-s,601,1785829,0.0-18.0-0.0-0.112,3591,6,5
113,1,object_08,object_05,762.69,1,2,300.44,0.8888888888888888,1,object_10,5,1743,0,8,0,desert_32,2,memory-2step-stake-s,602,1794191,0.0-18.0-0.0-0.113,3591,2,1
114,3,object_01,object_07,740.355,5,2,303.375,1.0,1,object_10,5,1788,0,9,1,library_5,2,memory-2step-stake-s,603,1802642,0.0-18.0-0.0-0.114,3591,6,5
115,4,object_09,object_04,796.4849998999999,7,2,295.51,1.0,1,object_10,1,1797,0,9,3,restaurant_2,2,memory-2step-stake-s,604,1811104,0.0-18.0-0.0-0.115,3591,8,7
116,3,object_01,object_07,479.095,5,2,315.44,0.7777777777777778,1,object_10,5,1832,0,7,1,library_24,2,memory-2step-stake-s,605,1819382,0.0-18.0-0.0-0.116,3591,6,5
117,2,object_03,object_06,508.055,3,1,370.095,0.6666666666666666,1,object_10,5,1862,0,6,3,forest_15,2,memory-2step-stake-s,606,1827609,0.0-18.0-0.0-0.117,3591,3,4
118,2,object_06,object_03,541.72,3,2,353.2050001,0.8888888888888888,1,object_10,5,1902,0,8,6,forest_21,2,memory-2step-stake-s,607,1836031,0.0-18.0-0.0-0.118,3591,4,3
119,2,object_03,object_06,482.565,3,1,322.075,0.8888888888888888,1,object_10,5,1942,0,8,8,forest_23,2,memory-2step-stake-s,608,1844409,0.0-18.0-0.0-0.119,3591,3,4
120,3,object_01,object_07,586.005,5,2,272.575,0.8888888888888888,1,object_10,1,1950,0,8,7,library_13,2,memory-2step-stake-s,609,1852748,0.0-18.0-0.0-0.120,3591,6,5
121,2,object_03,object_06,680.225,3,1,294.80500010000003,0.7777777777777778,1,object_10,1,1957,0,7,4,forest_9,2,memory-2step-stake-s,610,1861005,0.0-18.0-0.0-0.121,3591,3,4
122,1,object_08,object_05,633.5,1,2,408.0800001,0.4444444444444444,1,object_10,5,1977,0,4,3,desert_13,2,memory-2step-stake-s,611,1869059,0.0-18.0-0.0-0.122,3591,2,1
123,4,object_04,object_09,770.4650001,8,2,286.25,0.6666666666666666,2,object_02,1,1983,0,5,6,restaurant_1,2,memory-2step-stake-s,612,1877199,0.0-18.0-0.0-0.123,3591,7,8
124,3,object_07,object_01,644.035,5,1,336.915,0.6666666666666666,1,object_10,1,1989,0,6,5,library_10,2,memory-2step-stake-s,613,1885384,0.0-18.0-0.0-0.124,3591,5,6
125,4,object_09,object_04,835.755,7,2,309.485,0.8888888888888888,1,object_10,1,1997,0,8,6,restaurant_9,2,memory-2step-stake-s,614,1893757,0.0-18.0-0.0-0.125,3591,8,7
126,4,object_09,object_04,600.7749999,7,2,313.03,0.7777777777777778,1,object_10,1,2004,0,7,3,restaurant_10,2,memory-2step-stake-s,615,1902030,0.0-18.0-0.0-0.126,3591,8,7
127,4,object_04,object_09,864.3149999,8,2,326.35,0.4444444444444444,2,object_02,1,2008,0,3,4,restaurant_19,2,memory-2step-stake-s,616,1910003,0.0-18.0-0.0-0.127,3591,7,8
128,3,object_01,object_07,662.5549999,5,2,323.1299999,0.1111111111111111,1,object_10,5,2013,0,1,2,library_24,2,memory-2step-stake-s,618,1921866,0.0-18.0-0.1-0.128,3591,6,5
129,1,object_05,object_08,683.51,1,1,342.88499989999997,0.1111111111111111,1,object_10,5,2018,0,1,1,desert_29,2,memory-2step-stake-s,619,1929546,0.0-18.0-0.1-0.129,3591,1,2
130,2,object_03,object_06,694.075,4,2,330.0600001,0.1111111111111111,2,object_02,5,2023,0,2,1,forest_23,2,memory-2step-stake-s,620,1937218,0.0-18.0-0.1-0.130,3591,3,4
131,4,object_04,object_09,802.21,8,2,329.0800001,0.0,2,object_02,1,2023,0,0,0,restaurant_13,2,memory-2step-stake-s,621,1944782,0.0-18.0-0.1-0.131,3591,7,8
132,1,object_08,object_05,688.05,2,1,306.5899999,0.0,2,object_02,5,2023,0,1,0,desert_14,2,memory-2step-stake-s,622,1952318,0.0-18.0-0.1-0.132,3591,2,1
133,3,object_07,object_01,846.795,6,2,268.895,0.3333333333333333,2,object_02,1,2026,0,0,3,library_17,2,memory-2step-stake-s,623,1960132,0.0-18.0-0.1-0.133,3591,5,6
134,4,object_09,object_04,858.26,8,1,327.05,0.6666666666666666,2,object_02,5,2056,0,1,6,restaurant_5,2,memory-2step-stake-s,624,1968316,0.0-18.0-0.1-0.134,3591,8,7
135,3,object_01,object_07,645.2799999,6,1,340.92,0.5555555555555556,2,object_02,1,2061,0,0,5,library_11,2,memory-2step-stake-s,625,1976411,0.0-18.0-0.1-0.135,3591,6,5
136,2,object_03,object_06,844.3,3,1,790.105,0.1111111111111111,1,object_10,5,2066,0,1,5,forest_16,2,memory-2step-stake-s,626,1984539,0.0-18.0-0.1-0.136,3591,3,4
137,1,object_08,object_05,498.26,2,1,252.595,0.6666666666666666,2,object_02,5,2096,0,2,6,desert_31,2,memory-2step-stake-s,627,1992661,0.0-18.0-0.1-0.137,3591,2,1
138,2,object_03,object_06,1046.4,4,2,335.5200001,0.6666666666666666,2,object_02,5,2126,0,3,6,forest_7,2,memory-2step-stake-s,628,2000857,0.0-18.0-0.1-0.138,3591,3,4
139,1,object_05,object_08,451.655,2,2,278.85,0.5555555555555556,2,object_02,1,2131,0,4,5,desert_8,2,memory-2step-stake-s,629,2008886,0.0-18.0-0.1-0.139,3591,1,2
140,4,object_04,object_09,566.72,7,1,316.72,0.2222222222222222,1,object_10,5,2141,0,2,3,restaurant_6,2,memory-2step-stake-s,630,2016648,0.0-18.0-0.1-0.140,3591,7,8
141,1,object_05,object_08,966.115,2,2,287.245,0.2222222222222222,2,object_02,5,2151,0,2,2,desert_9,2,memory-2step-stake-s,631,2024378,0.0-18.0-0.1-0.141,3591,1,2
142,4,object_09,object_04,411.05,8,1,295.54,0.5555555555555556,2,object_02,1,2156,0,5,5,restaurant_31,2,memory-2step-stake-s,632,2032431,0.0-18.0-0.1-0.142,3591,8,7
143,4,object_09,object_04,421.185,8,1,280.04,0.6666666666666666,2,object_02,1,2162,0,7,6,restaurant_9,2,memory-2step-stake-s,633,2040563,0.0-18.0-0.1-0.143,3591,8,7
144,4,object_04,object_09,520.545,8,2,338.76,0.8888888888888888,2,object_02,1,2170,0,5,8,restaurant_7,2,memory-2step-stake-s,634,2048955,0.0-18.0-0.1-0.144,3591,7,8
145,2,object_03,object_06,1055.765,4,2,539.915,1.0,2,object_02,1,2179,0,8,9,forest_31,2,memory-2step-stake-s,635,2057649,0.0-18.0-0.1-0.145,3591,3,4
146,4,object_09,object_04,445.585,8,1,368.05500010000003,0.4444444444444444,2,object_02,1,2183,0,8,4,restaurant_30,2,memory-2step-stake-s,636,2065664,0.0-18.0-0.1-0.146,3591,8,7
147,3,object_07,object_01,1313.045,6,2,477.7449999,0.3333333333333333,2,object_02,5,2198,0,7,3,library_17,2,memory-2step-stake-s,637,2073689,0.0-18.0-0.1-0.147,3591,5,6
148,4,object_09,object_04,584.945,8,1,309.8500001,0.4444444444444444,2,object_02,1,2202,0,8,4,restaurant_25,2,memory-2step-stake-s,638,2081640,0.0-18.0-0.1-0.148,3591,8,7
149,4,object_09,object_04,381.755,7,2,245.625,1.0,1,object_10,1,2211,0,9,2,restaurant_6,2,memory-2step-stake-s,639,2090054,0.0-18.0-0.1-0.149,3591,8,7
150,4,object_04,object_09,435.59,7,1,304.59,0.7777777777777778,1,object_10,1,2218,0,7,3,restaurant_24,2,memory-2step-stake-s,640,2098310,0.0-18.0-0.1-0.150,3591,7,8
151,4,object_09,object_04,543.75,7,2,316.83499989999996,0.7777777777777778,1,object_10,1,2225,0,7,3,restaurant_5,2,memory-2step-stake-s,641,2106590,0.0-18.0-0.1-0.151,3591,8,7
152,3,object_07,object_01,969.325,6,2,304.95499989999996,0.5555555555555556,2,object_02,1,2230,0,7,5,library_2,2,memory-2step-stake-s,642,2114646,0.0-18.0-0.1-0.152,3591,5,6
153,2,object_03,object_06,463.295,4,2,301.705,0.4444444444444444,2,object_02,5,2250,0,7,4,forest_1,2,memory-2step-stake-s,643,2122599,0.0-18.0-0.1-0.153,3591,3,4
154,1,object_08,object_05,649.2399998999999,2,1,290.9350001,0.8888888888888888,2,object_02,5,2290,0,6,8,desert_22,2,memory-2step-stake-s,644,2130953,0.0-18.0-0.1-0.154,3591,2,1
155,4,object_09,object_04,1036.815,7,2,321.445,1.0,1,object_10,1,2299,0,9,8,restaurant_16,2,memory-2step-stake-s,645,2139423,0.0-18.0-0.1-0.155,3591,8,7
156,3,object_07,object_01,1471.27,6,2,433.145,0.8888888888888888,2,object_02,1,2307,0,6,8,library_10,2,memory-2step-stake-s,646,2147913,0.0-18.0-0.1-0.156,3591,5,6
157,4,object_04,object_09,863.32,7,1,319.055,0.7777777777777778,1,object_10,1,2314,0,7,3,restaurant_23,2,memory-2step-stake-s,647,2156196,0.0-18.0-0.1-0.157,3591,7,8
158,1,object_08,object_05,626.615,2,1,324.2799999,0.3333333333333333,2,object_02,5,2329,0,7,3,desert_23,2,memory-2step-stake-s,648,2164068,0.0-18.0-0.1-0.158,3591,2,1
159,1,object_05,object_08,1363.93,1,1,453.4450001,0.8888888888888888,1,object_10,5,2369,0,8,1,desert_16,2,memory-2step-stake-s,649,2172588,0.0-18.0-0.1-0.159,3591,1,2
160,3,object_07,object_01,607.46,6,2,337.905,0.2222222222222222,2,object_02,1,2371,0,9,2,library_29,2,memory-2step-stake-s,650,2180367,0.0-18.0-0.1-0.160,3591,5,6
161,3,object_01,object_07,1328.195,5,2,491.375,1.0,1,object_10,1,2380,0,9,3,library_1,2,memory-2step-stake-s,651,2189015,0.0-18.0-0.1-0.161,3591,6,5
162,1,object_08,object_05,875.315,1,2,293.695,1.0,1,object_10,5,2425,0,9,1,desert_17,2,memory-2step-stake-s,652,2197455,0.0-18.0-0.1-0.162,3591,2,1
163,1,object_05,object_08,420.53,1,1,270.6899999,0.8888888888888888,1,object_10,5,2465,0,8,2,desert_5,2,memory-2step-stake-s,653,2205792,0.0-18.0-0.1-0.163,3591,1,2
164,3,object_07,object_01,883.4599999,5,1,321.1749999,0.6666666666666666,1,object_10,1,2471,0,6,3,library_22,2,memory-2step-stake-s,654,2213966,0.0-18.0-0.1-0.164,3591,5,6
165,2,object_06,object_03,561.16,3,2,331.415,0.8888888888888888,1,object_10,5,2511,0,8,1,forest_18,2,memory-2step-stake-s,655,2222362,0.0-18.0-0.1-0.165,3591,4,3
166,1,object_05,object_08,517.985,1,1,280.625,0.8888888888888888,1,object_10,5,2551,0,8,1,desert_7,2,memory-2step-stake-s,656,2230706,0.0-18.0-0.1-0.166,3591,1,2
167,3,object_01,object_07,773.63,5,2,364.33,1.0,1,object_10,5,2596,0,9,3,library_8,2,memory-2step-stake-s,657,2239227,0.0-18.0-0.1-0.167,3591,6,5
168,4,object_04,object_09,414.445,7,1,295.3,0.6666666666666666,1,object_10,1,2602,0,6,1,restaurant_31,2,memory-2step-stake-s,658,2247363,0.0-18.0-0.1-0.168,3591,7,8
169,3,object_07,object_01,709.5649999,5,1,326.565,0.7777777777777778,1,object_10,1,2609,0,7,0,library_11,2,memory-2step-stake-s,659,2255633,0.0-18.0-0.1-0.169,3591,5,6
170,4,object_09,object_04,1116.89,7,2,361.795,0.5555555555555556,1,object_10,1,2614,0,5,1,restaurant_2,2,memory-2step-stake-s,660,2263745,0.0-18.0-0.1-0.170,3591,8,7
171,2,object_06,object_03,421.56,4,1,301.76999989999996,0.3333333333333333,2,object_02,1,2617,0,2,3,forest_7,2,memory-2step-stake-s,661,2271590,0.0-18.0-0.1-0.171,3591,4,3
172,4,object_04,object_09,1346.58,8,2,382.86,0.2222222222222222,2,object_02,5,2627,0,3,2,restaurant_19,2,memory-2step-stake-s,662,2279411,0.0-18.0-0.1-0.172,3591,7,8
173,3,object_01,object_07,756.15,6,1,305.5250001,0.0,2,object_02,1,2627,0,5,0,library_29,2,memory-2step-stake-s,663,2286953,0.0-18.0-0.1-0.173,3591,6,5
174,2,object_03,object_06,608.58,4,2,316.095,0.3333333333333333,2,object_02,5,2642,0,3,3,forest_27,2,memory-2step-stake-s,664,2294816,0.0-18.0-0.1-0.174,3591,3,4
175,4,object_09,object_04,433.63499989999997,7,2,337.035,0.1111111111111111,1,object_10,1,2643,0,1,5,restaurant_9,2,memory-2step-stake-s,665,2302488,0.0-18.0-0.1-0.175,3591,8,7
176,1,object_05,object_08,401.755,1,1,307.755,0.2222222222222222,1,object_10,5,2653,0,2,5,desert_5,2,memory-2step-stake-s,666,2310242,0.0-18.0-0.1-0.176,3591,1,2
177,2,object_06,object_03,545.26,3,2,317.76,0.0,1,object_10,5,2653,0,0,4,forest_21,2,memory-2step-stake-s,667,2317802,0.0-18.0-0.1-0.177,3591,4,3
178,4,object_04,object_09,883.805,8,2,330.1250001,0.3333333333333333,2,object_02,5,2668,0,1,3,restaurant_4,2,memory-2step-stake-s,668,2325687,0.0-18.0-0.1-0.178,3591,7,8
179,4,object_09,object_04,467.5349999,8,1,325.895,0.4444444444444444,2,object_02,1,2672,0,3,4,restaurant_10,2,memory-2step-stake-s,669,2333667,0.0-18.0-0.1-0.179,3591,8,7
180,1,object_05,object_08,435.705,2,2,313.13,0.5555555555555556,2,object_02,5,2697,0,4,5,desert_2,2,memory-2step-stake-s,670,2341727,0.0-18.0-0.1-0.180,3591,1,2
181,2,object_06,object_03,537.675,3,2,398.875,0.4444444444444444,1,object_10,1,2701,0,4,2,forest_16,2,memory-2step-stake-s,671,2349769,0.0-18.0-0.1-0.181,3591,4,3
182,2,object_06,object_03,468.2,3,2,328.9099999,0.3333333333333333,1,object_10,5,2716,0,3,1,forest_18,2,memory-2step-stake-s,672,2357639,0.0-18.0-0.1-0.182,3591,4,3
183,1,object_08,object_05,727.19,1,2,318.52,0.2222222222222222,1,object_10,5,2726,0,2,1,desert_6,2,memory-2step-stake-s,673,2365400,0.0-18.0-0.1-0.183,3591,2,1
184,1,object_05,object_08,466.73,2,2,391.085,0.4444444444444444,2,object_02,5,2746,0,0,4,desert_8,2,memory-2step-stake-s,674,2373447,0.0-18.0-0.1-0.184,3591,1,2
185,4,object_04,object_09,663.5850001,8,2,545.725,0.6666666666666666,2,object_02,1,2752,0,1,6,restaurant_25,2,memory-2step-stake-s,675,2381850,0.0-18.0-0.1-0.185,3591,7,8
186,4,object_09,object_04,973.185,8,1,411.1499999,0.3333333333333333,2,object_02,1,2755,0,0,3,restaurant_10,2,memory-2step-stake-s,676,2389814,0.0-18.0-0.1-0.186,3591,8,7
187,3,object_07,object_01,525.7850001,5,1,318.095,0.1111111111111111,1,object_10,1,2756,0,1,5,library_29,2,memory-2step-stake-s,677,2397479,0.0-18.0-0.1-0.187,3591,5,6
188,2,object_03,object_06,739.91,3,1,326.615,0.0,1,object_10,5,2756,0,0,9,forest_25,2,memory-2step-stake-s,678,2405044,0.0-18.0-0.1-0.188,3591,3,4
189,2,object_03,object_06,417.155,4,2,351.305,0.8888888888888888,2,object_02,5,2796,0,3,8,forest_1,2,memory-2step-stake-s,679,2413453,0.0-18.0-0.1-0.189,3591,3,4
190,4,object_04,object_09,572.34,8,2,341.655,0.7777777777777778,2,object_02,1,2803,0,1,7,restaurant_13,2,memory-2step-stake-s,680,2421759,0.0-18.0-0.1-0.190,3591,7,8
191,3,object_01,object_07,1073.88,6,1,392.06999989999997,0.7777777777777778,2,object_02,1,2810,0,1,7,library_11,2,memory-2step-stake-s,681,2430099,0.0-18.0-0.1-0.191,3591,6,5
192,1,object_08,object_05,812.48,2,1,308.345,1.0,2,object_02,5,2855,0,2,9,desert_26,2,memory-2step-stake-s,682,2438575,0.0-18.0-0.1-0.192,3591,2,1
193,4,object_09,object_04,474.375,8,1,323.73000010000004,0.5555555555555556,2,object_02,1,2860,0,2,5,restaurant_23,2,memory-2step-stake-s,683,2446654,0.0-18.0-0.1-0.193,3591,8,7
194,1,object_05,object_08,807.105,2,2,337.855,0.3333333333333333,2,object_02,5,2875,0,2,3,desert_6,2,memory-2step-stake-s,684,2454544,0.0-18.0-0.1-0.194,3591,1,2
195,4,object_09,object_04,699.09,8,1,370.57499989999997,0.0,2,object_02,1,2875,0,1,0,restaurant_24,2,memory-2step-stake-s,685,2462154,0.0-18.0-0.1-0.195,3591,8,7
196,3,object_01,object_07,786.5,6,1,416.98,0.1111111111111111,2,object_02,1,2876,0,4,1,library_2,2,memory-2step-stake-s,686,2469915,0.0-18.0-0.1-0.196,3591,6,5
197,3,object_01,object_07,574.73,5,2,423.78,0.6666666666666666,1,object_10,5,2906,0,6,0,library_10,2,memory-2step-stake-s,687,2478190,0.0-18.0-0.1-0.197,3591,6,5
198,1,object_08,object_05,942.6600001,1,2,313.35500010000004,0.7777777777777778,1,object_10,5,2941,0,7,2,desert_7,2,memory-2step-stake-s,688,2486459,0.0-18.0-0.1-0.198,3591,2,1
199,3,object_01,object_07,1346.545,6,1,335.015,0.0,2,object_02,1,2941,0,9,0,library_8,2,memory-2step-stake-s,689,2494028,0.0-18.0-0.1-0.199,3591,6,5
200,1,object_08,object_05,532.55,1,2,442.0050001,0.8888888888888888,1,object_10,5,2981,0,8,1,desert_31,2,memory-2step-stake-s,690,2502525,0.0-18.0-0.1-0.200,3591,2,1
201,2,object_03,object_06,752.68,4,2,433.045,0.3333333333333333,2,object_02,5,2996,0,7,3,forest_23,2,memory-2step-stake-s,691,2510509,0.0-18.0-0.1-0.201,3591,3,4
202,3,object_01,object_07,411.6699999,5,2,336.1899999,0.6666666666666666,1,object_10,1,3002,0,6,3,library_17,2,memory-2step-stake-s,692,2518701,0.0-18.0-0.1-0.202,3591,6,5
203,2,object_06,object_03,500.7100001,3,2,411.5,1.0,1,object_10,5,3047,0,9,2,forest_2,2,memory-2step-stake-s,693,2527278,0.0-18.0-0.1-0.203,3591,4,3
204,2,object_06,object_03,677.27,3,2,322.555,0.8888888888888888,1,object_10,1,3055,0,8,1,forest_26,2,memory-2step-stake-s,694,2535655,0.0-18.0-0.1-0.204,3591,4,3
205,3,object_01,object_07,1366.795,5,2,410.15,0.7777777777777778,1,object_10,1,3062,0,7,4,library_1,2,memory-2step-stake-s,695,2544033,0.0-18.0-0.1-0.205,3591,6,5
206,1,object_08,object_05,636.7700001000001,1,2,363.675,0.7777777777777778,1,object_10,5,3097,0,7,6,desert_17,2,memory-2step-stake-s,696,2552358,0.0-18.0-0.1-0.206,3591,2,1
207,1,object_05,object_08,862.89,1,1,428.8499999,0.7777777777777778,1,object_10,5,3132,0,7,3,desert_31,2,memory-2step-stake-s,697,2560738,0.0-18.0-0.1-0.207,3591,1,2
208,3,object_07,object_01,402.67000010000004,5,1,352.9000001,0.5555555555555556,1,object_10,1,3137,0,5,1,library_30,2,memory-2step-stake-s,698,2568844,0.0-18.0-0.1-0.208,3591,5,6
209,4,object_09,object_04,637.645,7,2,266.515,0.5555555555555556,1,object_10,1,3142,0,5,0,restaurant_7,2,memory-2step-stake-s,699,2576865,0.0-18.0-0.1-0.209,3591,8,7
210,1,object_08,object_05,741.405,1,2,311.395,0.6666666666666666,1,object_10,5,3172,0,6,3,desert_8,2,memory-2step-stake-s,700,2585015,0.0-18.0-0.1-0.210,3591,2,1
211,4,object_09,object_04,429.92500010000003,7,2,331.06,0.7777777777777778,1,object_10,1,3179,0,7,2,restaurant_1,2,memory-2step-stake-s,701,2593296,0.0-18.0-0.1-0.211,3591,8,7
212,2,object_06,object_03,468.81,3,2,286.555,0.5555555555555556,1,object_10,5,3204,0,5,1,forest_30,2,memory-2step-stake-s,702,2601341,0.0-18.0-0.1-0.212,3591,4,3
213,2,object_06,object_03,675.04,3,2,322.1,0.4444444444444444,1,object_10,1,3208,0,4,1,forest_7,2,memory-2step-stake-s,703,2609318,0.0-18.0-0.1-0.213,3591,4,3
214,3,object_01,object_07,686.725,5,2,304.685,0.3333333333333333,1,object_10,1,3211,0,3,0,library_30,2,memory-2step-stake-s,704,2617161,0.0-18.0-0.1-0.214,3591,6,5
215,4,object_04,object_09,443.005,8,2,307.03,0.1111111111111111,2,object_02,1,3212,0,4,1,restaurant_5,2,memory-2step-stake-s,705,2624802,0.0-18.0-0.1-0.215,3591,7,8
216,4,object_09,object_04,558.255,7,2,353.245,0.2222222222222222,1,object_10,1,3214,0,2,0,restaurant_7,2,memory-2step-stake-s,706,2632601,0.0-18.0-0.1-0.216,3591,8,7
217,3,object_07,object_01,968.4049999,6,2,366.255,0.2222222222222222,2,object_02,1,3216,0,0,2,library_9,2,memory-2step-stake-s,707,2640411,0.0-18.0-0.1-0.217,3591,5,6
218,2,object_06,object_03,412.825,4,1,286.7749999,0.2222222222222222,2,object_02,5,3226,0,1,2,forest_16,2,memory-2step-stake-s,708,2648143,0.0-18.0-0.1-0.218,3591,4,3
219,3,object_07,object_01,428.43,6,2,307.545,0.3333333333333333,2,object_02,5,3241,0,0,3,library_10,2,memory-2step-stake-s,709,2655994,0.0-18.0-0.1-0.219,3591,5,6
220,1,object_05,object_08,770.32,2,2,302.885,0.3333333333333333,2,object_02,5,3256,0,2,3,desert_22,2,memory-2step-stake-s,710,2663842,0.0-18.0-0.1-0.220,3591,1,2
221,2,object_06,object_03,547.7699999,4,1,333.1200001,0.5555555555555556,2,object_02,5,3281,0,3,5,forest_1,2,memory-2step-stake-s,711,2671922,0.0-18.0-0.1-0.221,3591,4,3
222,1,object_05,object_08,402.8,2,2,305.33,0.3333333333333333,2,object_02,1,3284,0,2,3,desert_17,2,memory-2step-stake-s,712,2679780,0.0-18.0-0.1-0.222,3591,1,2
223,2,object_06,object_03,352.205,4,1,303.4,0.7777777777777778,2,object_02,5,3319,0,2,7,forest_9,2,memory-2step-stake-s,713,2688032,0.0-18.0-0.1-0.223,3591,4,3
224,2,object_03,object_06,-1.0,-1,-1,-1.0,0.0,-,,5,3319,0,1,5,forest_15,2,memory-2step-stake-s,714,2694557,0.0-18.0-0.1-0.224,3591,3,4
225,4,object_04,object_09,436.23,8,2,279.905,0.4444444444444444,2,object_02,1,3323,0,0,4,restaurant_5,2,memory-2step-stake-s,715,2702494,0.0-18.0-0.1-0.225,3591,7,8
226,1,object_05,object_08,498.965,2,2,283.36,0.5555555555555556,2,object_02,5,3348,0,1,5,desert_9,2,memory-2step-stake-s,716,2710529,0.0-18.0-0.1-0.226,3591,1,2
227,3,object_07,object_01,633.935,6,2,315.24,0.7777777777777778,2,object_02,1,3355,0,1,7,library_22,2,memory-2step-stake-s,717,2718814,0.0-18.0-0.1-0.227,3591,5,6
228,1,object_05,object_08,364.49000010000003,2,2,322.1850001,0.6666666666666666,2,object_02,5,3385,0,2,6,desert_2,2,memory-2step-stake-s,718,2727003,0.0-18.0-0.1-0.228,3591,1,2
229,2,object_03,object_06,410.53,4,2,359.73500010000004,1.0,2,object_02,1,3394,0,0,9,forest_30,2,memory-2step-stake-s,719,2735528,0.0-18.0-0.1-0.229,3591,3,4
230,4,object_09,object_04,673.2300001,7,2,347.4249999,0.0,1,object_10,1,3394,0,0,8,restaurant_24,2,memory-2step-stake-s,720,2743112,0.0-18.0-0.1-0.230,3591,8,7
231,2,object_03,object_06,425.2149999,4,2,315.04,0.8888888888888888,2,object_02,1,3402,0,3,8,forest_3,2,memory-2step-stake-s,721,2751488,0.0-18.0-0.1-0.231,3591,3,4
232,2,object_06,object_03,435.745,4,1,461.69,0.4444444444444444,2,object_02,5,3422,0,4,4,forest_25,2,memory-2step-stake-s,722,2759595,0.0-18.0-0.1-0.232,3591,4,3
233,3,object_07,object_01,345.9950001,6,2,286.69,0.2222222222222222,2,object_02,1,3424,0,4,2,library_5,2,memory-2step-stake-s,723,2767331,0.0-18.0-0.1-0.233,3591,5,6
234,2,object_06,object_03,617.3149999,3,2,310.94499989999997,0.8888888888888888,1,object_10,5,3464,0,8,1,forest_1,2,memory-2step-stake-s,724,2775690,0.0-18.0-0.1-0.234,3591,4,3
235,2,object_03,object_06,458.945,3,1,294.9049999,0.5555555555555556,1,object_10,5,3489,0,5,0,forest_23,2,memory-2step-stake-s,725,2783738,0.0-18.0-0.1-0.235,3591,3,4
236,2,object_03,object_06,357.345,3,1,335.97,0.7777777777777778,1,object_10,1,3496,0,7,1,forest_21,2,memory-2step-stake-s,726,2792027,0.0-18.0-0.1-0.236,3591,3,4
237,3,object_01,object_07,1162.12,5,2,332.8999999,0.8888888888888888,1,object_10,1,3504,0,8,0,library_22,2,memory-2step-stake-s,727,2800415,0.0-18.0-0.1-0.237,3591,6,5
238,2,object_06,object_03,469.61500010000003,3,2,398.1400001,0.6666666666666666,1,object_10,1,3510,0,6,2,forest_3,2,memory-2step-stake-s,728,2808672,0.0-18.0-0.1-0.238,3591,4,3
239,4,object_09,object_04,659.4250001,8,1,364.0300001,0.4444444444444444,2,object_02,5,3530,0,6,4,restaurant_16,2,memory-2step-stake-s,729,2816690,0.0-18.0-0.1-0.239,3591,8,7
240,1,object_08,object_05,462.775,1,2,313.825,0.7777777777777778,1,object_10,1,3537,0,7,4,desert_17,2,memory-2step-stake-s,730,2824961,0.0-18.0-0.1-0.240,3591,2,1
241,1,object_08,object_05,408.51,1,2,280.665,0.6666666666666666,1,object_10,1,3543,0,6,9,desert_26,2,memory-2step-stake-s,731,2833090,0.0-18.0-0.1-0.241,3591,2,1
242,3,object_01,object_07,527.2199999,5,2,295.115,0.7777777777777778,1,object_10,1,3550,0,7,7,library_23,2,memory-2step-stake-s,732,2841335,0.0-18.0-0.1-0.242,3591,6,5
243,3,object_07,object_01,1146.42,5,1,465.14,0.6666666666666666,1,object_10,1,3556,0,6,7,library_13,2,memory-2step-stake-s,733,2849647,0.0-18.0-0.1-0.243,3591,5,6
244,1,object_08,object_05,510.53,1,2,445.875,0.7777777777777778,1,object_10,1,3563,0,7,7,desert_14,2,memory-2step-stake-s,734,2858044,0.0-18.0-0.1-0.244,3591,2,1
245,4,object_04,object_09,936.7,7,1,334.235,0.8888888888888888,1,object_10,5,3603,0,8,5,restaurant_25,2,memory-2step-stake-s,735,2866438,0.0-18.0-0.1-0.245,3591,7,8
246,2,object_03,object_06,954.23,3,1,280.13999989999996,0.8888888888888888,1,object_10,1,3611,0,8,4,forest_27,2,memory-2step-stake-s,736,2874781,0.0-18.0-0.1-0.246,3591,3,4
247,3,object_07,object_01,818.7350001,5,1,561.615,0.6666666666666666,1,object_10,5,3641,0,6,5,library_8,2,memory-2step-stake-s,737,2883224,0.0-18.0-0.1-0.247,3591,5,6
248,3,object_01,object_07,515.315,5,2,391.605,0.5555555555555556,1,object_10,1,3646,0,5,6,library_7,2,memory-2step-stake-s,738,2891374,0.0-18.0-0.1-0.248,3591,6,5
249,4,object_04,object_09,981.0850001,7,1,396.745,0.5555555555555556,1,object_10,5,3671,0,5,7,restaurant_1,2,memory-2step-stake-s,739,2899521,0.0-18.0-0.1-0.249,3591,7,8
250,2,object_03,object_06,447.805,3,1,318.43,0.7777777777777778,1,object_10,5,3706,0,7,8,forest_25,2,memory-2step-stake-s,740,2907795,0.0-18.0-0.1-0.250,3591,3,4
251,4,object_04,object_09,845.1599999,7,1,399.185,0.8888888888888888,1,object_10,1,3714,0,8,8,restaurant_31,2,memory-2step-stake-s,741,2916266,0.0-18.0-0.1-0.251,3591,7,8
252,2,object_03,object_06,372.41,3,1,46.11,0.5555555555555556,1,object_10,1,3719,0,5,3,forest_27,2,memory-2step-stake-s,742,2924070,0.0-18.0-0.1-0.252,3591,3,4
253,3,object_07,object_01,695.4450001,5,1,391.915,0.4444444444444444,1,object_10,1,3723,0,4,4,library_1,2,memory-2step-stake-s,743,2932110,0.0-18.0-0.1-0.253,3591,5,6
254,1,object_08,object_05,593.42,1,2,277.205,0.2222222222222222,1,object_10,5,3733,0,2,5,desert_9,2,memory-2step-stake-s,744,2939832,0.0-18.0-0.1-0.254,3591,2,1
255,4,object_09,object_04,717.71,8,1,354.495,0.4444444444444444,2,object_02,1,3737,0,1,4,restaurant_4,2,memory-2step-stake-s,745,2947835,0.0-18.0-0.1-0.255,3591,8,7
