,state1,stim_left,stim_right,rt_1,choice1,response1,rt_2,points,state2,stim_state2,stake,score,practice,rews1,rews2,background,high_arm,trial_type,trial_index,time_elapsed,internal_node_id,subid,stim_left_num,stim_right_num
0,2,object_10,object_02,958.4,4,1,1158.245,0.1111111111111111,2,object_03,5,5,0,1,1,forest_19,2,memory-2step-stake-s,491,1163539,0.0-18.0-0.0-0.0,4353,4,3
1,4,object_01,object_05,1066.885,7,1,628.1,0.0,1,object_04,1,5,0,0,2,restaurant_27,2,memory-2step-stake-s,492,1171380,0.0-18.0-0.0-0.1,4353,7,8
2,3,object_08,object_06,858.34,5,2,1455.24,0.1111111111111111,1,object_04,1,6,0,1,4,library_4,2,memory-2step-stake-s,493,1180151,0.0-18.0-0.0-0.2,4353,6,5
3,2,object_02,object_10,1309.065,3,1,773.88,0.1111111111111111,1,object_04,5,11,0,1,4,forest_4,2,memory-2step-stake-s,494,1188240,0.0-18.0-0.0-0.3,4353,3,4
4,4,object_05,object_01,1419.945,8,1,724.43,0.3333333333333333,2,object_03,1,14,0,0,3,restaurant_16,2,memory-2step-stake-s,495,1196484,0.0-18.0-0.0-0.4,4353,8,7
5,2,object_10,object_02,1227.8,4,1,726.905,0.6666666666666666,2,object_03,1,20,0,2,6,forest_28,2,memory-2step-stake-s,496,1205035,0.0-18.0-0.0-0.5,4353,4,3
6,1,object_07,object_09,-1.0,-1,-1,-1.0,0.0,-,,5,20,0,0,9,desert_18,2,memory-2step-stake-s,497,1211544,0.0-18.0-0.0-0.6,4353,1,2
7,2,object_02,object_10,705.22,3,1,470.175,0.1111111111111111,1,object_04,5,25,0,1,7,forest_23,2,memory-2step-stake-s,498,1219328,0.0-18.0-0.0-0.7,4353,3,4
8,3,object_06,object_08,1165.84,6,2,727.385,1.0,2,object_03,5,70,0,2,9,library_26,2,memory-2step-stake-s,499,1228182,0.0-18.0-0.0-0.8,4353,5,6
9,3,object_08,object_06,649.83,5,2,466.705,0.3333333333333333,1,object_04,5,85,0,3,9,library_23,2,memory-2step-stake-s,500,1236167,0.0-18.0-0.0-0.9,4353,6,5
10,3,object_06,object_08,781.065,5,1,647.775,0.4444444444444444,1,object_04,1,89,0,4,8,library_6,2,memory-2step-stake-s,501,1244434,0.0-18.0-0.0-0.10,4353,5,6
11,2,object_10,object_02,1364.685,4,1,350.615,0.8888888888888888,2,object_03,5,129,0,1,8,forest_23,2,memory-2step-stake-s,502,1252812,0.0-18.0-0.0-0.11,4353,4,3
12,1,object_09,object_07,896.77,2,1,420.48,0.6666666666666666,2,object_03,5,159,0,3,6,desert_32,2,memory-2step-stake-s,503,1261055,0.0-18.0-0.0-0.12,4353,2,1
13,4,object_05,object_01,1047.025,7,2,292.895,0.4444444444444444,1,object_04,1,163,0,4,7,restaurant_1,2,memory-2step-stake-s,504,1268966,0.0-18.0-0.0-0.13,4353,8,7
14,2,object_10,object_02,874.59,4,1,236.27,0.8888888888888888,2,object_03,5,203,0,2,8,forest_16,2,memory-2step-stake-s,505,1277229,0.0-18.0-0.0-0.14,4353,4,3
15,1,object_07,object_09,909.86,1,1,438.335,0.0,1,object_04,1,203,0,0,7,desert_21,2,memory-2step-stake-s,506,1284882,0.0-18.0-0.0-0.15,4353,1,2
16,2,object_02,object_10,925.13,4,2,606.82,0.8888888888888888,2,object_03,5,243,0,2,8,forest_22,2,memory-2step-stake-s,507,1293515,0.0-18.0-0.0-0.16,4353,3,4
17,3,object_08,object_06,1237.815,6,1,430.27,1.0,2,object_03,5,288,0,0,9,library_25,2,memory-2step-stake-s,508,1302075,0.0-18.0-0.0-0.17,4353,6,5
18,1,object_07,object_09,1169.935,1,1,554.71,0.2222222222222222,1,object_04,5,298,0,2,7,desert_9,2,memory-2step-stake-s,509,1310048,0.0-18.0-0.0-0.18,4353,1,2
19,2,object_02,object_10,793.06,4,2,702.965,1.0,2,object_03,5,343,0,2,9,forest_27,2,memory-2step-stake-s,510,1318879,0.0-18.0-0.0-0.19,4353,3,4
20,4,object_05,object_01,776.605,8,1,679.71,0.6666666666666666,2,object_03,5,373,0,1,6,restaurant_22,2,memory-2step-stake-s,511,1327381,0.0-18.0-0.0-0.20,4353,8,7
21,4,object_01,object_05,1267.735,7,1,671.525,0.1111111111111111,1,object_04,1,374,0,1,5,restaurant_11,2,memory-2step-stake-s,512,1335365,0.0-18.0-0.0-0.21,4353,7,8
22,2,object_02,object_10,727.005,4,2,703.5,0.7777777777777778,2,object_03,1,381,0,2,7,forest_29,2,memory-2step-stake-s,513,1343993,0.0-18.0-0.0-0.22,4353,3,4
23,1,object_09,object_07,611.32,2,1,394.635,0.6666666666666666,2,object_03,5,411,0,1,6,desert_6,2,memory-2step-stake-s,514,1352209,0.0-18.0-0.0-0.23,4353,2,1
24,2,object_02,object_10,944.235,3,1,384.88,0.2222222222222222,1,object_04,5,421,0,2,4,forest_4,2,memory-2step-stake-s,515,1360010,0.0-18.0-0.0-0.24,4353,3,4
25,4,object_05,object_01,-1.0,-1,-1,-1.0,0.0,-,,1,421,0,1,6,restaurant_11,2,memory-2step-stake-s,516,1366518,0.0-18.0-0.0-0.25,4353,8,7
26,1,object_07,object_09,636.325,2,2,298.89,0.8888888888888888,2,object_03,1,429,0,2,8,desert_9,2,memory-2step-stake-s,517,1374843,0.0-18.0-0.0-0.26,4353,1,2
27,2,object_02,object_10,638.495,4,2,418.19,0.8888888888888888,2,object_03,5,469,0,1,8,forest_32,2,memory-2step-stake-s,518,1383287,0.0-18.0-0.0-0.27,4353,3,4
28,4,object_05,object_01,670.515,8,1,505.075,0.6666666666666666,2,object_03,1,475,0,2,6,restaurant_30,2,memory-2step-stake-s,519,1391614,0.0-18.0-0.0-0.28,4353,8,7
29,2,object_02,object_10,559.88,4,2,500.53,0.5555555555555556,2,object_03,5,500,0,2,5,forest_10,2,memory-2step-stake-s,520,1399837,0.0-18.0-0.0-0.29,4353,3,4
30,1,object_09,object_07,650.42,2,1,556.975,0.3333333333333333,2,object_03,5,515,0,2,3,desert_12,2,memory-2step-stake-s,521,1407911,0.0-18.0-0.0-0.30,4353,2,1
31,3,object_06,object_08,-1.0,-1,-1,-1.0,0.0,-,,1,515,0,3,5,library_10,2,memory-2step-stake-s,522,1414418,0.0-18.0-0.0-0.31,4353,5,6
32,3,object_06,object_08,487.105,6,2,571.565,0.6666666666666666,2,object_03,1,521,0,7,6,library_13,2,memory-2step-stake-s,523,1422810,0.0-18.0-0.0-0.32,4353,5,6
33,4,object_01,object_05,535.61,7,1,551.93,0.6666666666666666,1,object_04,1,527,0,6,7,restaurant_27,2,memory-2step-stake-s,524,1431185,0.0-18.0-0.0-0.33,4353,7,8
34,1,object_07,object_09,651.185,1,1,394.855,0.6666666666666666,1,object_04,5,557,0,6,7,desert_3,2,memory-2step-stake-s,525,1439403,0.0-18.0-0.0-0.34,4353,1,2
35,3,object_08,object_06,719.745,5,2,717.445,0.8888888888888888,1,object_04,1,565,0,8,8,library_18,2,memory-2step-stake-s,526,1448147,0.0-18.0-0.0-0.35,4353,6,5
36,1,object_09,object_07,611.03,2,1,454.43,0.7777777777777778,2,object_03,5,600,0,5,7,desert_19,2,memory-2step-stake-s,527,1456525,0.0-18.0-0.0-0.36,4353,2,1
37,4,object_01,object_05,973.355,7,1,592.695,0.5555555555555556,1,object_04,1,605,0,5,8,restaurant_28,2,memory-2step-stake-s,528,1464839,0.0-18.0-0.0-0.37,4353,7,8
38,1,object_09,object_07,705.035,2,1,328.68,0.8888888888888888,2,object_03,5,645,0,5,8,desert_6,2,memory-2step-stake-s,529,1473194,0.0-18.0-0.0-0.38,4353,2,1
39,4,object_01,object_05,691.235,8,2,244.93,0.6666666666666666,2,object_03,1,651,0,7,6,restaurant_21,2,memory-2step-stake-s,530,1481264,0.0-18.0-0.0-0.39,4353,7,8
40,1,object_09,object_07,762.345,1,2,576.935,0.7777777777777778,1,object_04,5,686,0,7,8,desert_27,2,memory-2step-stake-s,531,1489767,0.0-18.0-0.0-0.40,4353,2,1
41,3,object_06,object_08,740.285,5,1,301.235,0.7777777777777778,1,object_04,1,693,0,7,4,library_14,2,memory-2step-stake-s,532,1497994,0.0-18.0-0.0-0.41,4353,5,6
42,3,object_08,object_06,942.61,5,2,453.665,0.8888888888888888,1,object_04,1,701,0,8,0,library_5,2,memory-2step-stake-s,533,1506474,0.0-18.0-0.0-0.42,4353,6,5
43,4,object_01,object_05,-1.0,-1,-1,-1.0,0.0,-,,5,701,0,8,1,restaurant_30,2,memory-2step-stake-s,534,1512981,0.0-18.0-0.0-0.43,4353,7,8
44,1,object_07,object_09,1049.97,2,2,482.56,0.1111111111111111,2,object_03,5,706,0,6,1,desert_20,2,memory-2step-stake-s,535,1520778,0.0-18.0-0.0-0.44,4353,1,2
45,1,object_09,object_07,798.215,2,1,-1.0,0.0,2,object_03,1,706,0,8,3,desert_20,2,memory-2step-stake-s,536,1529292,0.0-18.0-0.0-0.45,4353,2,1
46,4,object_05,object_01,-1.0,-1,-1,-1.0,0.0,-,,1,706,0,8,7,restaurant_13,2,memory-2step-stake-s,537,1535800,0.0-18.0-0.0-0.46,4353,8,7
47,3,object_06,object_08,665.075,5,1,405.77,0.7777777777777778,1,object_04,1,713,0,7,7,library_25,2,memory-2step-stake-s,538,1544129,0.0-18.0-0.0-0.47,4353,5,6
48,4,object_05,object_01,583.77,8,1,305.075,0.4444444444444444,2,object_03,1,717,0,6,4,restaurant_30,2,memory-2step-stake-s,539,1552054,0.0-18.0-0.0-0.48,4353,8,7
49,1,object_09,object_07,626.0,2,1,352.575,0.4444444444444444,2,object_03,5,737,0,4,4,desert_18,2,memory-2step-stake-s,540,1560026,0.0-18.0-0.0-0.49,4353,2,1
50,1,object_07,object_09,672.465,2,2,400.975,0.2222222222222222,2,object_03,1,739,0,3,2,desert_7,2,memory-2step-stake-s,541,1567844,0.0-18.0-0.0-0.50,4353,1,2
51,3,object_06,object_08,1102.65,6,2,541.405,0.4444444444444444,2,object_03,1,743,0,2,4,library_25,2,memory-2step-stake-s,542,1576005,0.0-18.0-0.0-0.51,4353,5,6
52,3,object_08,object_06,721.07,6,1,237.27,0.7777777777777778,2,object_03,1,750,0,3,7,library_5,2,memory-2step-stake-s,543,1584166,0.0-18.0-0.0-0.52,4353,6,5
53,2,object_10,object_02,1075.725,3,2,542.945,0.2222222222222222,1,object_04,5,760,0,2,5,forest_31,2,memory-2step-stake-s,544,1592125,0.0-18.0-0.0-0.53,4353,4,3
54,2,object_02,object_10,743.685,3,1,433.665,0.1111111111111111,1,object_04,5,765,0,1,2,forest_28,2,memory-2step-stake-s,545,1599873,0.0-18.0-0.0-0.54,4353,3,4
55,2,object_02,object_10,549.01,4,2,301.245,0.0,2,object_03,5,765,0,3,0,forest_9,2,memory-2step-stake-s,546,1607387,0.0-18.0-0.0-0.55,4353,3,4
56,2,object_10,object_02,710.155,3,2,435.03,0.7777777777777778,1,object_04,1,772,0,7,2,forest_31,2,memory-2step-stake-s,547,1615745,0.0-18.0-0.0-0.56,4353,4,3
57,3,object_06,object_08,923.08,5,1,336.745,0.8888888888888888,1,object_04,1,780,0,8,1,library_14,2,memory-2step-stake-s,548,1624106,0.0-18.0-0.0-0.57,4353,5,6
58,1,object_07,object_09,753.65,1,1,324.175,0.6666666666666666,1,object_04,5,810,0,6,3,desert_22,2,memory-2step-stake-s,549,1632252,0.0-18.0-0.0-0.58,4353,1,2
59,4,object_05,object_01,697.985,7,2,346.175,0.5555555555555556,1,object_04,1,815,0,5,3,restaurant_16,2,memory-2step-stake-s,550,1640319,0.0-18.0-0.0-0.59,4353,8,7
60,2,object_02,object_10,712.855,3,1,276.42,0.5555555555555556,1,object_04,5,840,0,5,4,forest_5,2,memory-2step-stake-s,551,1648318,0.0-18.0-0.0-0.60,4353,3,4
61,4,object_01,object_05,753.705,8,2,487.305,0.7777777777777778,2,object_03,1,847,0,5,7,restaurant_13,2,memory-2step-stake-s,552,1656731,0.0-18.0-0.0-0.61,4353,7,8
62,2,object_02,object_10,768.365,4,2,466.505,0.7777777777777778,2,object_03,5,882,0,5,7,forest_22,2,memory-2step-stake-s,553,1665122,0.0-18.0-0.0-0.62,4353,3,4
63,1,object_07,object_09,618.695,1,1,363.15,0.1111111111111111,1,object_04,1,883,0,1,3,desert_22,2,memory-2step-stake-s,554,1672801,0.0-18.0-0.0-0.63,4353,1,2
64,2,object_10,object_02,701.89,4,1,300.74,0.4444444444444444,2,object_03,5,903,0,0,4,forest_28,2,memory-2step-stake-s,555,1680724,0.0-18.0-0.0-0.64,4353,4,3
65,4,object_01,object_05,789.045,7,1,468.08,0.0,1,object_04,5,903,0,0,4,restaurant_30,2,memory-2step-stake-s,556,1688404,0.0-18.0-0.0-0.65,4353,7,8
66,1,object_09,object_07,977.08,2,1,405.425,0.3333333333333333,2,object_03,5,918,0,1,3,desert_12,2,memory-2step-stake-s,557,1696328,0.0-18.0-0.0-0.66,4353,2,1
67,4,object_01,object_05,702.485,7,1,286.51,0.3333333333333333,1,object_04,1,921,0,3,5,restaurant_2,2,memory-2step-stake-s,558,1704133,0.0-18.0-0.0-0.67,4353,7,8
68,3,object_06,object_08,765.445,6,2,471.5,0.5555555555555556,2,object_03,1,926,0,5,5,library_13,2,memory-2step-stake-s,559,1712325,0.0-18.0-0.0-0.68,4353,5,6
69,1,object_09,object_07,733.745,2,1,333.66,0.6666666666666666,2,object_03,5,956,0,7,6,desert_12,2,memory-2step-stake-s,560,1720481,0.0-18.0-0.0-0.69,4353,2,1
70,4,object_01,object_05,569.63,8,2,257.185,0.7777777777777778,2,object_03,5,991,0,3,7,restaurant_23,2,memory-2step-stake-s,561,1728664,0.0-18.0-0.0-0.70,4353,7,8
71,1,object_07,object_09,835.355,2,2,470.215,0.6666666666666666,2,object_03,5,1021,0,2,6,desert_15,2,memory-2step-stake-s,562,1736955,0.0-18.0-0.0-0.71,4353,1,2
72,3,object_06,object_08,856.185,5,1,514.755,0.3333333333333333,1,object_04,5,1036,0,3,3,library_10,2,memory-2step-stake-s,563,1744988,0.0-18.0-0.0-0.72,4353,5,6
73,4,object_01,object_05,392.06,8,2,247.895,0.3333333333333333,2,object_03,5,1051,0,2,3,restaurant_2,2,memory-2step-stake-s,564,1752753,0.0-18.0-0.0-0.73,4353,7,8
74,4,object_01,object_05,513.605,7,1,290.325,0.1111111111111111,1,object_04,1,1052,0,1,2,restaurant_26,2,memory-2step-stake-s,565,1760359,0.0-18.0-0.0-0.74,4353,7,8
75,1,object_09,object_07,695.815,2,1,306.65,0.1111111111111111,2,object_03,5,1057,0,2,1,desert_1,2,memory-2step-stake-s,566,1767980,0.0-18.0-0.0-0.75,4353,2,1
76,4,object_05,object_01,523.71,7,2,458.43,0.4444444444444444,1,object_04,1,1061,0,4,3,restaurant_21,2,memory-2step-stake-s,567,1776059,0.0-18.0-0.0-0.76,4353,8,7
77,3,object_08,object_06,999.115,5,2,510.645,0.2222222222222222,1,object_04,1,1063,0,2,2,library_9,2,memory-2step-stake-s,568,1783986,0.0-18.0-0.0-0.77,4353,6,5
78,3,object_08,object_06,556.305,6,1,518.025,0.5555555555555556,2,object_03,1,1068,0,1,5,library_27,2,memory-2step-stake-s,569,1792224,0.0-18.0-0.0-0.78,4353,6,5
79,3,object_08,object_06,817.97,6,1,291.71,0.1111111111111111,2,object_03,1,1069,0,2,1,library_23,2,memory-2step-stake-s,570,1799830,0.0-18.0-0.0-0.79,4353,6,5
80,3,object_06,object_08,687.35,5,1,390.465,0.3333333333333333,1,object_04,1,1072,0,3,0,library_9,2,memory-2step-stake-s,571,1807738,0.0-18.0-0.0-0.80,4353,5,6
81,1,object_07,object_09,683.575,2,2,364.1,0.4444444444444444,2,object_03,5,1092,0,3,4,desert_30,2,memory-2step-stake-s,572,1815721,0.0-18.0-0.0-0.81,4353,1,2
82,1,object_07,object_09,1132.42,1,1,376.475,0.4444444444444444,1,object_04,1,1096,0,4,2,desert_18,2,memory-2step-stake-s,573,1823715,0.0-18.0-0.0-0.82,4353,1,2
83,2,object_10,object_02,724.995,3,2,283.5,0.7777777777777778,1,object_04,5,1131,0,7,2,forest_31,2,memory-2step-stake-s,574,1831925,0.0-18.0-0.0-0.83,4353,4,3
84,4,object_05,object_01,820.835,7,2,299.55,0.8888888888888888,1,object_04,1,1139,0,8,0,restaurant_1,2,memory-2step-stake-s,575,1840251,0.0-18.0-0.0-0.84,4353,8,7
85,4,object_05,object_01,498.81,7,2,479.165,0.5555555555555556,1,object_04,1,1144,0,5,3,restaurant_16,2,memory-2step-stake-s,576,1848452,0.0-18.0-0.0-0.85,4353,8,7
86,3,object_06,object_08,751.32,5,1,381.235,1.0,1,object_04,1,1153,0,9,2,library_2,2,memory-2step-stake-s,577,1856962,0.0-18.0-0.0-0.86,4353,5,6
87,2,object_10,object_02,842.28,3,2,250.86,0.6666666666666666,1,object_04,5,1183,0,6,2,forest_16,2,memory-2step-stake-s,578,1865036,0.0-18.0-0.0-0.87,4353,4,3
88,2,object_02,object_10,574.385,3,1,310.835,0.6666666666666666,1,object_04,5,1213,0,6,2,forest_26,2,memory-2step-stake-s,579,1873172,0.0-18.0-0.0-0.88,4353,3,4
89,2,object_10,object_02,773.44,4,1,290.345,0.2222222222222222,2,object_03,5,1223,0,7,2,forest_2,2,memory-2step-stake-s,580,1880877,0.0-18.0-0.0-0.89,4353,4,3
90,3,object_06,object_08,946.405,5,1,588.84,0.7777777777777778,1,object_04,1,1230,0,7,2,library_6,2,memory-2step-stake-s,581,1889392,0.0-18.0-0.0-0.90,4353,5,6
91,3,object_08,object_06,864.89,5,2,310.59,0.6666666666666666,1,object_04,1,1236,0,6,3,library_9,2,memory-2step-stake-s,582,1897527,0.0-18.0-0.0-0.91,4353,6,5
92,1,object_07,object_09,925.275,1,1,324.79,0.3333333333333333,1,object_04,5,1251,0,3,1,desert_15,2,memory-2step-stake-s,583,1905369,0.0-18.0-0.0-0.92,4353,1,2
93,1,object_09,object_07,675.46,1,2,683.21,0.1111111111111111,1,object_04,5,1256,0,1,1,desert_3,2,memory-2step-stake-s,584,1913367,0.0-18.0-0.0-0.93,4353,2,1
94,2,object_10,object_02,709.075,4,1,353.56,0.4444444444444444,2,object_03,5,1276,0,2,4,forest_10,2,memory-2step-stake-s,585,1921341,0.0-18.0-0.0-0.94,4353,4,3
95,1,object_07,object_09,894.725,2,2,406.055,0.7777777777777778,2,object_03,5,1311,0,0,7,desert_14,2,memory-2step-stake-s,586,1929671,0.0-18.0-0.0-0.95,4353,1,2
96,2,object_02,object_10,693.235,3,1,246.94,0.1111111111111111,1,object_04,5,1316,0,1,6,forest_10,2,memory-2step-stake-s,587,1937232,0.0-18.0-0.0-0.96,4353,3,4
97,2,object_02,object_10,578.95,4,2,400.11,0.8888888888888888,2,object_03,5,1356,0,1,8,forest_19,2,memory-2step-stake-s,588,1945658,0.0-18.0-0.0-0.97,4353,3,4
98,3,object_06,object_08,931.595,6,2,348.13,0.5555555555555556,2,object_03,1,1361,0,2,5,library_26,2,memory-2step-stake-s,589,1953727,0.0-18.0-0.0-0.98,4353,5,6
99,4,object_05,object_01,1002.29,8,1,332.015,0.3333333333333333,2,object_03,5,1376,0,1,3,restaurant_15,2,memory-2step-stake-s,590,1961578,0.0-18.0-0.0-0.99,4353,8,7
100,1,object_09,object_07,699.885,1,2,273.37,0.2222222222222222,1,object_04,5,1386,0,2,3,desert_20,2,memory-2step-stake-s,591,1969267,0.0-18.0-0.0-0.100,4353,2,1
101,4,object_01,object_05,1091.185,8,2,535.925,0.4444444444444444,2,object_03,1,1390,0,1,4,restaurant_4,2,memory-2step-stake-s,592,1977420,0.0-18.0-0.0-0.101,4353,7,8
102,4,object_01,object_05,722.535,8,2,368.155,0.5555555555555556,2,object_03,1,1395,0,0,5,restaurant_26,2,memory-2step-stake-s,593,1985510,0.0-18.0-0.0-0.102,4353,7,8
103,2,object_02,object_10,639.37,4,2,415.05,0.4444444444444444,2,object_03,5,1415,0,0,4,forest_27,2,memory-2step-stake-s,594,1993545,0.0-18.0-0.0-0.103,4353,3,4
104,3,object_08,object_06,781.325,6,1,470.245,0.3333333333333333,2,object_03,5,1430,0,3,3,library_18,2,memory-2step-stake-s,595,2001532,0.0-18.0-0.0-0.104,4353,6,5
105,3,object_08,object_06,789.685,5,2,611.37,0.3333333333333333,1,object_04,1,1433,0,3,3,library_1,2,memory-2step-stake-s,596,2009661,0.0-18.0-0.0-0.105,4353,6,5
106,4,object_05,object_01,1145.55,7,2,266.06,0.2222222222222222,1,object_04,1,1435,0,2,4,restaurant_1,2,memory-2step-stake-s,597,2017342,0.0-18.0-0.0-0.106,4353,8,7
107,4,object_01,object_05,543.845,8,2,277.56,0.2222222222222222,2,object_03,1,1437,0,1,2,restaurant_1,2,memory-2step-stake-s,598,2025035,0.0-18.0-0.0-0.107,4353,7,8
108,4,object_05,object_01,674.505,7,2,333.19,0.0,1,object_04,1,1437,0,0,2,restaurant_19,2,memory-2step-stake-s,599,2032581,0.0-18.0-0.0-0.108,4353,8,7
109,4,object_01,object_05,607.67,7,1,324.435,0.0,1,object_04,1,1437,0,0,4,restaurant_2,2,memory-2step-stake-s,600,2040121,0.0-18.0-0.0-0.109,4353,7,8
110,3,object_06,object_08,1464.34,6,2,585.155,0.3333333333333333,2,object_03,5,1452,0,3,3,library_27,2,memory-2step-stake-s,601,2048225,0.0-18.0-0.0-0.110,4353,5,6
111,4,object_05,object_01,1348.59,7,2,365.265,0.2222222222222222,1,object_04,1,1454,0,2,4,restaurant_4,2,memory-2step-stake-s,602,2056007,0.0-18.0-0.0-0.111,4353,8,7
112,3,object_06,object_08,862.525,5,1,502.055,0.7777777777777778,1,object_04,1,1461,0,7,4,library_3,2,memory-2step-stake-s,603,2064435,0.0-18.0-0.0-0.112,4353,5,6
113,2,object_02,object_10,832.85,3,1,281.57,0.7777777777777778,1,object_04,1,1468,0,7,3,forest_19,2,memory-2step-stake-s,604,2072642,0.0-18.0-0.0-0.113,4353,3,4
114,3,object_08,object_06,1253.475,6,1,302.395,0.2222222222222222,2,object_03,1,1470,0,7,2,library_7,2,memory-2step-stake-s,605,2080361,0.0-18.0-0.0-0.114,4353,6,5
115,4,object_01,object_05,859.36,7,1,345.41,0.8888888888888888,1,object_04,1,1478,0,8,0,restaurant_26,2,memory-2step-stake-s,606,2088730,0.0-18.0-0.0-0.115,4353,7,8
116,1,object_07,object_09,683.87,1,1,290.82,0.8888888888888888,1,object_04,5,1518,0,8,2,desert_14,2,memory-2step-stake-s,607,2097048,0.0-18.0-0.0-0.116,4353,1,2
117,2,object_10,object_02,986.825,3,2,316.505,1.0,1,object_04,5,1563,0,9,2,forest_9,2,memory-2step-stake-s,608,2105495,0.0-18.0-0.0-0.117,4353,4,3
118,3,object_08,object_06,1025.965,5,2,369.52,0.8888888888888888,1,object_04,1,1571,0,8,9,library_3,2,memory-2step-stake-s,609,2113892,0.0-18.0-0.0-0.118,4353,6,5
119,4,object_05,object_01,534.655,8,1,274.375,0.6666666666666666,2,object_03,1,1577,0,7,6,restaurant_19,2,memory-2step-stake-s,610,2121990,0.0-18.0-0.0-0.119,4353,8,7
120,2,object_02,object_10,987.345,4,2,453.19,0.2222222222222222,2,object_03,1,1579,0,4,2,forest_29,2,memory-2step-stake-s,611,2129860,0.0-18.0-0.0-0.120,4353,3,4
121,3,object_06,object_08,836.475,5,1,264.045,0.1111111111111111,1,object_04,1,1580,0,1,2,library_13,2,memory-2step-stake-s,612,2137439,0.0-18.0-0.0-0.121,4353,5,6
122,2,object_02,object_10,1077.24,4,2,235.805,0.0,2,object_03,5,1580,0,3,0,forest_23,2,memory-2step-stake-s,613,2144887,0.0-18.0-0.0-0.122,4353,3,4
123,3,object_08,object_06,868.72,5,2,291.445,0.5555555555555556,1,object_04,1,1585,0,5,1,library_14,2,memory-2step-stake-s,614,2152899,0.0-18.0-0.0-0.123,4353,6,5
124,2,object_10,object_02,644.53,3,2,241.505,0.4444444444444444,1,object_04,5,1605,0,4,0,forest_31,2,memory-2step-stake-s,615,2160760,0.0-18.0-0.0-0.124,4353,4,3
125,3,object_08,object_06,1164.84,6,1,499.525,0.3333333333333333,2,object_03,1,1608,0,7,3,library_7,2,memory-2step-stake-s,616,2168779,0.0-18.0-0.0-0.125,4353,6,5
126,3,object_08,object_06,697.48,5,2,540.985,0.5555555555555556,1,object_04,1,1613,0,5,6,library_13,2,memory-2step-stake-s,617,2177043,0.0-18.0-0.0-0.126,4353,6,5
127,1,object_07,object_09,907.55,1,1,333.155,0.8888888888888888,1,object_04,5,1653,0,8,5,desert_3,2,memory-2step-stake-s,618,2185403,0.0-18.0-0.0-0.127,4353,1,2
128,2,object_02,object_10,-1.0,-1,-1,-1.0,0.0,-,,5,1653,0,9,4,forest_4,2,memory-2step-stake-s,620,2324157,0.0-18.0-0.1-0.128,4353,3,4
129,2,object_02,object_10,466.735,3,1,580.84,0.8888888888888888,1,object_04,5,1693,0,8,2,forest_32,2,memory-2step-stake-s,621,2332766,0.0-18.0-0.1-0.129,4353,3,4
130,2,object_10,object_02,541.89,3,2,310.625,0.8888888888888888,1,object_04,5,1733,0,8,2,forest_18,2,memory-2step-stake-s,622,2341104,0.0-18.0-0.1-0.130,4353,4,3
131,3,object_06,object_08,745.4,6,2,501.195,0.3333333333333333,2,object_03,1,1736,0,7,3,library_3,2,memory-2step-stake-s,623,2349124,0.0-18.0-0.1-0.131,4353,5,6
132,2,object_02,object_10,411.7,3,1,450.77,0.7777777777777778,1,object_04,1,1743,0,7,4,forest_27,2,memory-2step-stake-s,624,2357501,0.0-18.0-0.1-0.132,4353,3,4
133,2,object_02,object_10,444.965,3,1,281.565,0.8888888888888888,1,object_04,5,1783,0,8,4,forest_18,2,memory-2step-stake-s,625,2365809,0.0-18.0-0.1-0.133,4353,3,4
134,1,object_07,object_09,795.39,1,1,267.91,0.5555555555555556,1,object_04,5,1808,0,5,4,desert_14,2,memory-2step-stake-s,626,2373799,0.0-18.0-0.1-0.134,4353,1,2
135,4,object_05,object_01,725.92,7,2,329.58,0.4444444444444444,1,object_04,5,1828,0,4,4,restaurant_13,2,memory-2step-stake-s,627,2381749,0.0-18.0-0.1-0.135,4353,8,7
136,3,object_08,object_06,798.785,6,1,511.255,0.3333333333333333,2,object_03,1,1831,0,5,3,library_6,2,memory-2step-stake-s,628,2389780,0.0-18.0-0.1-0.136,4353,6,5
137,3,object_08,object_06,542.495,6,1,358.565,0.5555555555555556,2,object_03,1,1836,0,0,5,library_23,2,memory-2step-stake-s,629,2397860,0.0-18.0-0.1-0.137,4353,6,5
138,2,object_10,object_02,690.64,4,1,351.485,0.5555555555555556,2,object_03,5,1861,0,1,5,forest_27,2,memory-2step-stake-s,630,2405931,0.0-18.0-0.1-0.138,4353,4,3
139,3,object_06,object_08,820.085,5,1,358.74,0.5555555555555556,1,object_04,1,1866,0,5,4,library_4,2,memory-2step-stake-s,631,2414011,0.0-18.0-0.1-0.139,4353,5,6
140,1,object_07,object_09,805.84,1,1,244.36,1.0,1,object_04,5,1911,0,9,5,desert_18,2,memory-2step-stake-s,632,2422384,0.0-18.0-0.1-0.140,4353,1,2
141,1,object_07,object_09,557.385,1,1,252.04,0.8888888888888888,1,object_04,5,1951,0,8,7,desert_20,2,memory-2step-stake-s,633,2430663,0.0-18.0-0.1-0.141,4353,1,2
142,2,object_02,object_10,1073.545,3,1,266.17,1.0,1,object_04,5,1996,0,9,7,forest_26,2,memory-2step-stake-s,634,2439058,0.0-18.0-0.1-0.142,4353,3,4
143,2,object_10,object_02,512.66,3,2,301.955,0.8888888888888888,1,object_04,5,2036,0,8,9,forest_9,2,memory-2step-stake-s,635,2447386,0.0-18.0-0.1-0.143,4353,4,3
144,4,object_05,object_01,438.19,8,1,451.715,0.8888888888888888,2,object_03,1,2044,0,8,8,restaurant_27,2,memory-2step-stake-s,636,2455863,0.0-18.0-0.1-0.144,4353,8,7
145,3,object_08,object_06,1080.03,6,1,244.275,0.7777777777777778,2,object_03,1,2051,0,8,7,library_1,2,memory-2step-stake-s,637,2464032,0.0-18.0-0.1-0.145,4353,6,5
146,4,object_05,object_01,689.855,7,2,254.595,0.8888888888888888,1,object_04,1,2059,0,8,4,restaurant_19,2,memory-2step-stake-s,638,2472314,0.0-18.0-0.1-0.146,4353,8,7
147,2,object_02,object_10,1157.7,4,2,253.6,0.4444444444444444,2,object_03,1,2063,0,8,4,forest_16,2,memory-2step-stake-s,639,2480190,0.0-18.0-0.1-0.147,4353,3,4
148,4,object_01,object_05,846.875,7,1,266.69,0.4444444444444444,1,object_04,1,2067,0,4,2,restaurant_6,2,memory-2step-stake-s,640,2488076,0.0-18.0-0.1-0.148,4353,7,8
149,1,object_09,object_07,1227.88,1,2,308.475,0.5555555555555556,1,object_04,1,2072,0,5,1,desert_21,2,memory-2step-stake-s,641,2496106,0.0-18.0-0.1-0.149,4353,2,1
150,1,object_09,object_07,479.61,2,1,514.275,0.5555555555555556,2,object_03,1,2077,0,7,5,desert_30,2,memory-2step-stake-s,642,2504343,0.0-18.0-0.1-0.150,4353,2,1
151,3,object_08,object_06,1153.13,6,1,312.725,0.5555555555555556,2,object_03,1,2082,0,9,5,library_7,2,memory-2step-stake-s,643,2512378,0.0-18.0-0.1-0.151,4353,6,5
152,2,object_10,object_02,1184.88,4,1,257.795,0.2222222222222222,2,object_03,5,2092,0,8,2,forest_29,2,memory-2step-stake-s,644,2520052,0.0-18.0-0.1-0.152,4353,4,3
153,4,object_05,object_01,503.825,7,2,239.03,0.7777777777777778,1,object_04,1,2099,0,7,4,restaurant_22,2,memory-2step-stake-s,645,2528217,0.0-18.0-0.1-0.153,4353,8,7
154,1,object_09,object_07,603.185,1,2,361.055,0.6666666666666666,1,object_04,5,2129,0,6,2,desert_22,2,memory-2step-stake-s,646,2536401,0.0-18.0-0.1-0.154,4353,2,1
155,1,object_09,object_07,491.68,1,2,320.34,1.0,1,object_04,5,2174,0,9,1,desert_27,2,memory-2step-stake-s,647,2544851,0.0-18.0-0.1-0.155,4353,2,1
156,2,object_10,object_02,466.415,3,2,279.93,0.3333333333333333,1,object_04,5,2189,0,3,3,forest_22,2,memory-2step-stake-s,648,2552649,0.0-18.0-0.1-0.156,4353,4,3
157,1,object_07,object_09,769.545,2,2,318.16,0.2222222222222222,2,object_03,5,2199,0,3,2,desert_32,2,memory-2step-stake-s,649,2560384,0.0-18.0-0.1-0.157,4353,1,2
158,1,object_07,object_09,627.65,1,1,255.29,0.3333333333333333,1,object_04,1,2202,0,3,4,desert_30,2,memory-2step-stake-s,650,2568158,0.0-18.0-0.1-0.158,4353,1,2
159,4,object_01,object_05,1107.445,8,2,772.755,0.6666666666666666,2,object_03,1,2208,0,1,6,restaurant_11,2,memory-2step-stake-s,651,2576754,0.0-18.0-0.1-0.159,4353,7,8
160,3,object_06,object_08,811.25,5,1,402.385,0.3333333333333333,1,object_04,1,2211,0,3,8,library_18,2,memory-2step-stake-s,652,2584676,0.0-18.0-0.1-0.160,4353,5,6
161,3,object_08,object_06,742.055,6,1,222.645,0.8888888888888888,2,object_03,1,2219,0,1,8,library_2,2,memory-2step-stake-s,653,2592924,0.0-18.0-0.1-0.161,4353,6,5
162,1,object_09,object_07,680.5,2,1,296.575,0.7777777777777778,2,object_03,5,2254,0,1,7,desert_21,2,memory-2step-stake-s,654,2601145,0.0-18.0-0.1-0.162,4353,2,1
163,3,object_08,object_06,729.84,6,1,251.905,0.8888888888888888,2,object_03,5,2294,0,1,8,library_9,2,memory-2step-stake-s,655,2609423,0.0-18.0-0.1-0.163,4353,6,5
164,2,object_02,object_10,831.2,4,2,167.53,0.7777777777777778,2,object_03,5,2329,0,1,7,forest_32,2,memory-2step-stake-s,656,2617516,0.0-18.0-0.1-0.164,4353,3,4
165,3,object_08,object_06,698.875,5,2,254.615,0.3333333333333333,1,object_04,1,2332,0,3,8,library_5,2,memory-2step-stake-s,657,2625286,0.0-18.0-0.1-0.165,4353,6,5
166,4,object_01,object_05,758.23,7,1,274.78,0.3333333333333333,1,object_04,1,2335,0,3,9,restaurant_22,2,memory-2step-stake-s,658,2633080,0.0-18.0-0.1-0.166,4353,7,8
167,1,object_07,object_09,413.24,2,2,247.3,0.8888888888888888,2,object_03,5,2375,0,7,8,desert_9,2,memory-2step-stake-s,659,2641354,0.0-18.0-0.1-0.167,4353,1,2
168,2,object_02,object_10,749.345,4,2,315.735,0.8888888888888888,2,object_03,5,2415,0,7,8,forest_2,2,memory-2step-stake-s,660,2649695,0.0-18.0-0.1-0.168,4353,3,4
169,4,object_01,object_05,665.425,7,1,619.345,0.7777777777777778,1,object_04,1,2422,0,7,9,restaurant_21,2,memory-2step-stake-s,661,2658238,0.0-18.0-0.1-0.169,4353,7,8
170,1,object_07,object_09,581.905,1,1,221.99,0.7777777777777778,1,object_04,5,2457,0,7,7,desert_7,2,memory-2step-stake-s,662,2666385,0.0-18.0-0.1-0.170,4353,1,2
171,1,object_09,object_07,632.71,1,2,326.37,0.4444444444444444,1,object_04,5,2477,0,4,5,desert_7,2,memory-2step-stake-s,663,2674331,0.0-18.0-0.1-0.171,4353,2,1
172,1,object_07,object_09,589.6,2,2,282.25,0.3333333333333333,2,object_03,5,2492,0,0,3,desert_19,2,memory-2step-stake-s,664,2682133,0.0-18.0-0.1-0.172,4353,1,2
173,2,object_10,object_02,659.7,3,2,223.275,0.0,1,object_04,5,2492,0,0,6,forest_5,2,memory-2step-stake-s,665,2689570,0.0-18.0-0.1-0.173,4353,4,3
174,4,object_05,object_01,550.78,8,1,471.0,0.4444444444444444,2,object_03,1,2496,0,1,4,restaurant_26,2,memory-2step-stake-s,666,2697660,0.0-18.0-0.1-0.174,4353,8,7
175,1,object_07,object_09,462.045,2,2,387.505,0.2222222222222222,2,object_03,5,2506,0,2,2,desert_19,2,memory-2step-stake-s,667,2705463,0.0-18.0-0.1-0.175,4353,1,2
176,1,object_09,object_07,551.945,2,1,263.685,0.1111111111111111,2,object_03,1,2507,0,1,1,desert_27,2,memory-2step-stake-s,668,2713042,0.0-18.0-0.1-0.176,4353,2,1
177,4,object_01,object_05,640.82,8,2,291.34,0.0,2,object_03,1,2507,0,1,0,restaurant_28,2,memory-2step-stake-s,669,2720545,0.0-18.0-0.1-0.177,4353,7,8
178,3,object_08,object_06,767.1,5,2,475.205,0.2222222222222222,1,object_04,1,2509,0,2,0,library_7,2,memory-2step-stake-s,670,2728436,0.0-18.0-0.1-0.178,4353,6,5
179,2,object_10,object_02,827.47,3,2,296.03,0.4444444444444444,1,object_04,5,2529,0,4,1,forest_9,2,memory-2step-stake-s,671,2736352,0.0-18.0-0.1-0.179,4353,4,3
180,2,object_10,object_02,692.99,4,1,391.05,0.2222222222222222,2,object_03,5,2539,0,6,2,forest_28,2,memory-2step-stake-s,672,2744159,0.0-18.0-0.1-0.180,4353,4,3
181,4,object_01,object_05,724.41,7,1,355.92,0.5555555555555556,1,object_04,1,2544,0,5,2,restaurant_11,2,memory-2step-stake-s,673,2752235,0.0-18.0-0.1-0.181,4353,7,8
182,4,object_01,object_05,745.715,7,1,311.395,0.6666666666666666,1,object_04,1,2550,0,6,1,restaurant_23,2,memory-2step-stake-s,674,2760369,0.0-18.0-0.1-0.182,4353,7,8
183,3,object_06,object_08,830.99,5,1,273.585,0.7777777777777778,1,object_04,1,2557,0,7,0,library_10,2,memory-2step-stake-s,675,2769212,0.0-18.0-0.1-0.183,4353,5,6
184,3,object_08,object_06,1051.24,6,1,340.115,0.0,2,object_03,1,2557,0,9,0,library_4,2,memory-2step-stake-s,676,2776764,0.0-18.0-0.1-0.184,4353,6,5
185,4,object_05,object_01,834.855,7,2,842.55,0.5555555555555556,1,object_04,1,2562,0,5,2,restaurant_2,2,memory-2step-stake-s,677,2785329,0.0-18.0-0.1-0.185,4353,8,7
186,4,object_05,object_01,537.655,7,2,339.21,0.2222222222222222,1,object_04,1,2564,0,2,3,restaurant_6,2,memory-2step-stake-s,678,2793086,0.0-18.0-0.1-0.186,4353,8,7
187,3,object_08,object_06,1071.225,6,1,340.075,0.3333333333333333,2,object_03,1,2567,0,4,3,library_25,2,memory-2step-stake-s,679,2800944,0.0-18.0-0.1-0.187,4353,6,5
188,1,object_09,object_07,756.495,1,2,274.995,0.3333333333333333,1,object_04,1,2570,0,3,1,desert_27,2,memory-2step-stake-s,680,2808738,0.0-18.0-0.1-0.188,4353,2,1
189,3,object_08,object_06,686.615,6,1,324.645,0.2222222222222222,2,object_03,1,2572,0,5,2,library_27,2,memory-2step-stake-s,681,2816479,0.0-18.0-0.1-0.189,4353,6,5
190,3,object_08,object_06,952.845,5,2,595.7,0.6666666666666666,1,object_04,1,2578,0,6,3,library_6,2,memory-2step-stake-s,682,2824898,0.0-18.0-0.1-0.190,4353,6,5
191,2,object_02,object_10,549.835,3,1,257.605,0.6666666666666666,1,object_04,5,2608,0,6,1,forest_26,2,memory-2step-stake-s,683,2832978,0.0-18.0-0.1-0.191,4353,3,4
192,4,object_01,object_05,421.165,8,2,336.545,0.2222222222222222,2,object_03,1,2610,0,3,2,restaurant_4,2,memory-2step-stake-s,684,2840730,0.0-18.0-0.1-0.192,4353,7,8
193,1,object_09,object_07,610.245,1,2,277.21,0.1111111111111111,1,object_04,5,2615,0,1,2,desert_15,2,memory-2step-stake-s,685,2848321,0.0-18.0-0.1-0.193,4353,2,1
194,4,object_01,object_05,625.455,8,2,287.91,0.3333333333333333,2,object_03,5,2630,0,0,3,restaurant_27,2,memory-2step-stake-s,686,2856127,0.0-18.0-0.1-0.194,4353,7,8
195,4,object_05,object_01,952.05,7,2,258.975,0.1111111111111111,1,object_04,5,2635,0,1,5,restaurant_13,2,memory-2step-stake-s,687,2863702,0.0-18.0-0.1-0.195,4353,8,7
196,2,object_02,object_10,673.165,4,2,381.71,0.5555555555555556,2,object_03,5,2660,0,0,5,forest_19,2,memory-2step-stake-s,688,2871804,0.0-18.0-0.1-0.196,4353,3,4
197,4,object_01,object_05,675.095,8,2,288.665,0.5555555555555556,2,object_03,1,2665,0,4,5,restaurant_28,2,memory-2step-stake-s,689,2879814,0.0-18.0-0.1-0.197,4353,7,8
198,1,object_07,object_09,598.89,2,2,420.46,0.5555555555555556,2,object_03,1,2670,0,5,5,desert_32,2,memory-2step-stake-s,690,2887957,0.0-18.0-0.1-0.198,4353,1,2
199,4,object_01,object_05,430.86,7,1,346.49,0.5555555555555556,1,object_04,1,2675,0,5,7,restaurant_28,2,memory-2step-stake-s,691,2896027,0.0-18.0-0.1-0.199,4353,7,8
200,4,object_01,object_05,468.285,7,1,347.84,0.2222222222222222,1,object_04,1,2677,0,2,5,restaurant_23,2,memory-2step-stake-s,692,2903790,0.0-18.0-0.1-0.200,4353,7,8
201,4,object_01,object_05,383.87,8,2,279.895,0.4444444444444444,2,object_03,1,2681,0,2,4,restaurant_15,2,memory-2step-stake-s,693,2911690,0.0-18.0-0.1-0.201,4353,7,8
202,1,object_07,object_09,1152.015,1,1,334.74,0.3333333333333333,1,object_04,5,2696,0,3,6,desert_15,2,memory-2step-stake-s,694,2919540,0.0-18.0-0.1-0.202,4353,1,2
203,1,object_07,object_09,1299.135,2,2,338.84,0.6666666666666666,2,object_03,1,2702,0,1,6,desert_19,2,memory-2step-stake-s,695,2927701,0.0-18.0-0.1-0.203,4353,1,2
204,3,object_06,object_08,687.785,5,1,205.74,0.2222222222222222,1,object_04,1,2704,0,2,8,library_1,2,memory-2step-stake-s,696,2935322,0.0-18.0-0.1-0.204,4353,5,6
205,2,object_02,object_10,536.715,4,2,288.825,0.8888888888888888,2,object_03,5,2744,0,2,8,forest_5,2,memory-2step-stake-s,697,2943637,0.0-18.0-0.1-0.205,4353,3,4
206,3,object_08,object_06,674.84,6,1,262.07,0.7777777777777778,2,object_03,5,2779,0,1,7,library_14,2,memory-2step-stake-s,698,2951824,0.0-18.0-0.1-0.206,4353,6,5
207,3,object_06,object_08,672.155,6,2,353.79,0.4444444444444444,2,object_03,1,2783,0,1,4,library_18,2,memory-2step-stake-s,699,2959798,0.0-18.0-0.1-0.207,4353,5,6
208,3,object_06,object_08,655.235,6,2,407.665,0.8888888888888888,2,object_03,1,2791,0,0,8,library_5,2,memory-2step-stake-s,700,2968233,0.0-18.0-0.1-0.208,4353,5,6
209,4,object_05,object_01,830.74,7,2,253.565,0.0,1,object_04,1,2791,0,0,8,restaurant_6,2,memory-2step-stake-s,701,2975699,0.0-18.0-0.1-0.209,4353,8,7
210,3,object_08,object_06,933.09,6,1,215.81,0.8888888888888888,2,object_03,1,2799,0,1,8,library_26,2,memory-2step-stake-s,702,2983940,0.0-18.0-0.1-0.210,4353,6,5
211,2,object_02,object_10,514.635,4,2,252.125,0.7777777777777778,2,object_03,5,2834,0,3,7,forest_29,2,memory-2step-stake-s,703,2992119,0.0-18.0-0.1-0.211,4353,3,4
212,2,object_10,object_02,617.675,3,2,242.815,0.2222222222222222,1,object_04,1,2836,0,2,3,forest_4,2,memory-2step-stake-s,704,2999779,0.0-18.0-0.1-0.212,4353,4,3
213,3,object_08,object_06,656.215,6,1,392.735,0.4444444444444444,2,object_03,1,2840,0,4,4,library_23,2,memory-2step-stake-s,705,3007790,0.0-18.0-0.1-0.213,4353,6,5
214,4,object_01,object_05,707.95,8,2,389.555,0.7777777777777778,2,object_03,1,2847,0,5,7,restaurant_16,2,memory-2step-stake-s,706,3016104,0.0-18.0-0.1-0.214,4353,7,8
215,3,object_06,object_08,1006.475,6,2,390.24,0.4444444444444444,2,object_03,1,2851,0,5,4,library_27,2,memory-2step-stake-s,707,3024114,0.0-18.0-0.1-0.215,4353,5,6
216,1,object_09,object_07,809.05,1,2,271.715,0.7777777777777778,1,object_04,5,2886,0,7,2,desert_32,2,memory-2step-stake-s,708,3032310,0.0-18.0-0.1-0.216,4353,2,1
217,1,object_09,object_07,414.745,1,2,252.21,0.8888888888888888,1,object_04,5,2926,0,8,1,desert_22,2,memory-2step-stake-s,709,3040590,0.0-18.0-0.1-0.217,4353,2,1
218,2,object_02,object_10,708.615,3,1,286.795,0.6666666666666666,1,object_04,5,2956,0,6,4,forest_10,2,memory-2step-stake-s,710,3048701,0.0-18.0-0.1-0.218,4353,3,4
219,3,object_06,object_08,929.885,6,2,487.655,1.0,2,object_03,1,2965,0,7,9,library_26,2,memory-2step-stake-s,711,3057317,0.0-18.0-0.1-0.219,4353,5,6
220,1,object_09,object_07,563.71,2,1,273.2,0.8888888888888888,2,object_03,1,2973,0,7,8,desert_7,2,memory-2step-stake-s,712,3065617,0.0-18.0-0.1-0.220,4353,2,1
221,3,object_08,object_06,857.735,6,1,279.95,0.8888888888888888,2,object_03,1,2981,0,6,8,library_2,2,memory-2step-stake-s,713,3073925,0.0-18.0-0.1-0.221,4353,6,5
222,4,object_05,object_01,682.9,7,2,543.625,0.4444444444444444,1,object_04,1,2985,0,4,8,restaurant_15,2,memory-2step-stake-s,714,3082089,0.0-18.0-0.1-0.222,4353,8,7
223,2,object_02,object_10,639.825,4,2,271.45,0.8888888888888888,2,object_03,5,3025,0,3,8,forest_18,2,memory-2step-stake-s,715,3090386,0.0-18.0-0.1-0.223,4353,3,4
224,1,object_09,object_07,456.355,2,1,305.06,0.3333333333333333,2,object_03,5,3040,0,3,3,desert_12,2,memory-2step-stake-s,716,3098210,0.0-18.0-0.1-0.224,4353,2,1
225,4,object_01,object_05,821.79,7,1,266.785,0.1111111111111111,1,object_04,5,3045,0,1,0,restaurant_4,2,memory-2step-stake-s,717,3105790,0.0-18.0-0.1-0.225,4353,7,8
226,2,object_02,object_10,709.335,4,2,314.42,0.3333333333333333,2,object_03,5,3060,0,2,3,forest_2,2,memory-2step-stake-s,718,3113622,0.0-18.0-0.1-0.226,4353,3,4
227,1,object_07,object_09,837.925,1,1,239.455,0.1111111111111111,1,object_04,5,3065,0,1,1,desert_9,2,memory-2step-stake-s,719,3121177,0.0-18.0-0.1-0.227,4353,1,2
228,3,object_08,object_06,1291.795,5,2,418.475,0.0,1,object_04,1,3065,0,0,2,library_2,2,memory-2step-stake-s,720,3128810,0.0-18.0-0.1-0.228,4353,6,5
229,4,object_05,object_01,585.42,8,1,288.905,0.5555555555555556,2,object_03,5,3090,0,3,5,restaurant_22,2,memory-2step-stake-s,721,3136820,0.0-18.0-0.1-0.229,4353,8,7
230,2,object_02,object_10,740.175,4,2,265.875,0.3333333333333333,2,object_03,5,3105,0,2,3,forest_23,2,memory-2step-stake-s,722,3144603,0.0-18.0-0.1-0.230,4353,3,4
231,1,object_07,object_09,965.21,1,1,268.73,0.1111111111111111,1,object_04,1,3106,0,1,2,desert_6,2,memory-2step-stake-s,723,3152186,0.0-18.0-0.1-0.231,4353,1,2
232,3,object_06,object_08,866.735,6,2,452.325,0.1111111111111111,2,object_03,1,3107,0,0,1,library_3,2,memory-2step-stake-s,724,3159954,0.0-18.0-0.1-0.232,4353,5,6
233,2,object_02,object_10,652.035,3,1,99.595,0.3333333333333333,1,object_04,5,3122,0,3,3,forest_32,2,memory-2step-stake-s,725,3167570,0.0-18.0-0.1-0.233,4353,3,4
234,2,object_02,object_10,585.58,4,2,269.075,0.4444444444444444,2,object_03,1,3126,0,3,4,forest_18,2,memory-2step-stake-s,726,3175460,0.0-18.0-0.1-0.234,4353,3,4
235,2,object_10,object_02,715.77,4,1,296.33,0.2222222222222222,2,object_03,5,3136,0,1,2,forest_2,2,memory-2step-stake-s,727,3183171,0.0-18.0-0.1-0.235,4353,4,3
236,2,object_10,object_02,521.575,3,2,229.255,0.2222222222222222,1,object_04,1,3138,0,2,5,forest_5,2,memory-2step-stake-s,728,3190818,0.0-18.0-0.1-0.236,4353,4,3
237,1,object_07,object_09,879.355,2,2,718.875,0.4444444444444444,2,object_03,5,3158,0,1,4,desert_30,2,memory-2step-stake-s,729,3199155,0.0-18.0-0.1-0.237,4353,1,2
238,1,object_09,object_07,615.92,2,1,298.385,0.6666666666666666,2,object_03,5,3188,0,0,6,desert_6,2,memory-2step-stake-s,730,3207279,0.0-18.0-0.1-0.238,4353,2,1
239,1,object_09,object_07,416.19,2,1,190.615,0.8888888888888888,2,object_03,5,3228,0,2,8,desert_1,2,memory-2step-stake-s,731,3215496,0.0-18.0-0.1-0.239,4353,2,1
240,2,object_02,object_10,464.09,3,1,279.92,0.1111111111111111,1,object_04,5,3233,0,1,9,forest_16,2,memory-2step-stake-s,732,3223090,0.0-18.0-0.1-0.240,4353,3,4
241,1,object_09,object_07,552.64,1,2,380.435,0.2222222222222222,1,object_04,5,3243,0,2,9,desert_1,2,memory-2step-stake-s,733,3230887,0.0-18.0-0.1-0.241,4353,2,1
242,2,object_02,object_10,752.025,4,2,373.575,1.0,2,object_03,5,3288,0,2,9,forest_22,2,memory-2step-stake-s,734,3239388,0.0-18.0-0.1-0.242,4353,3,4
243,4,object_05,object_01,479.655,8,1,290.555,1.0,2,object_03,1,3297,0,3,9,restaurant_21,2,memory-2step-stake-s,735,3247809,0.0-18.0-0.1-0.243,4353,8,7
244,4,object_05,object_01,433.71,8,1,275.745,0.8888888888888888,2,object_03,5,3337,0,5,8,restaurant_23,2,memory-2step-stake-s,736,3256112,0.0-18.0-0.1-0.244,4353,8,7
245,1,object_07,object_09,517.025,2,2,134.55,0.4444444444444444,2,object_03,5,3357,0,7,4,desert_14,2,memory-2step-stake-s,737,3263867,0.0-18.0-0.1-0.245,4353,1,2
246,3,object_06,object_08,826.745,5,1,548.285,0.8888888888888888,1,object_04,1,3365,0,8,2,library_10,2,memory-2step-stake-s,738,3272444,0.0-18.0-0.1-0.246,4353,5,6
247,4,object_01,object_05,757.09,7,1,315.545,0.3333333333333333,1,object_04,1,3368,0,3,1,restaurant_15,2,memory-2step-stake-s,739,3280278,0.0-18.0-0.1-0.247,4353,7,8
248,4,object_01,object_05,380.21,8,2,259.885,0.0,2,object_03,1,3368,0,2,0,restaurant_6,2,memory-2step-stake-s,740,3287751,0.0-18.0-0.1-0.248,4353,7,8
249,4,object_01,object_05,265.76,7,1,273.29,0.0,1,object_04,1,3368,0,0,1,restaurant_19,2,memory-2step-stake-s,741,3295238,0.0-18.0-0.1-0.249,4353,7,8
250,1,object_09,object_07,585.58,2,1,322.415,0.0,2,object_03,5,3368,0,0,0,desert_1,2,memory-2step-stake-s,742,3302776,0.0-18.0-0.1-0.250,4353,2,1
251,3,object_06,object_08,741.47,6,2,282.965,0.0,2,object_03,1,3368,0,1,0,library_1,2,memory-2step-stake-s,743,3310273,0.0-18.0-0.1-0.251,4353,5,6
252,2,object_10,object_02,838.81,3,2,543.685,0.1111111111111111,1,object_04,5,3373,0,1,2,forest_26,2,memory-2step-stake-s,744,3318133,0.0-18.0-0.1-0.252,4353,4,3
253,1,object_09,object_07,816.03,1,2,488.615,0.2222222222222222,1,object_04,5,3383,0,2,0,desert_3,2,memory-2step-stake-s,745,3326038,0.0-18.0-0.1-0.253,4353,2,1
254,1,object_07,object_09,585.435,2,2,358.07,0.3333333333333333,2,object_03,5,3398,0,5,3,desert_21,2,memory-2step-stake-s,746,3333914,0.0-18.0-0.1-0.254,4353,1,2
255,3,object_08,object_06,1172.055,5,2,594.925,0.4444444444444444,1,object_04,1,3402,0,4,3,library_4,2,memory-2step-stake-s,747,3342127,0.0-18.0-0.1-0.255,4353,6,5
