,state1,stim_left,stim_right,rt_1,choice1,response1,rt_2,points,state2,stim_state2,stake,score,practice,rews1,rews2,background,high_arm,trial_type,trial_index,time_elapsed,internal_node_id,subid,stim_left_num,stim_right_num
0,2,object_10,object_07,771.815,3,1,-1.0,0.0,1,object_03,1,0,0,2,4,forest_22,2,memory-2step-stake-s,496,950204,0.0-18.0-0.0-0.0,4089,3,4
1,2,object_10,object_07,402.17,4,2,636.14,0.5555555555555556,2,object_02,5,25,0,0,5,forest_29,2,memory-2step-stake-s,497,958578,0.0-18.0-0.0-0.1,4089,3,4
2,2,object_07,object_10,608.475,3,2,682.365,0.1111111111111111,1,object_03,5,30,0,1,4,forest_21,2,memory-2step-stake-s,498,966595,0.0-18.0-0.0-0.2,4089,4,3
3,1,object_01,object_06,444.11,2,1,591.3,0.7777777777777778,2,object_02,5,65,0,2,7,desert_13,2,memory-2step-stake-s,499,975139,0.0-18.0-0.0-0.3,4089,2,1
4,3,object_04,object_09,477.045,5,2,349.075,0.1111111111111111,1,object_03,1,66,0,1,7,library_13,2,memory-2step-stake-s,500,982820,0.0-18.0-0.0-0.4,4089,6,5
5,1,object_06,object_01,471.625,1,1,741.025,0.1111111111111111,1,object_03,5,71,0,1,7,desert_7,2,memory-2step-stake-s,501,990895,0.0-18.0-0.0-0.5,4089,1,2
6,4,object_08,object_05,778.535,7,1,519.35,0.1111111111111111,1,object_03,1,72,0,1,7,restaurant_8,2,memory-2step-stake-s,502,998745,0.0-18.0-0.0-0.6,4089,7,8
7,4,object_05,object_08,813.215,7,2,210.66,0.3333333333333333,1,object_03,1,75,0,3,6,restaurant_12,2,memory-2step-stake-s,503,1006487,0.0-18.0-0.0-0.7,4089,8,7
8,3,object_04,object_09,1043.72,6,1,838.605,1.0,2,object_02,1,84,0,3,9,library_8,2,memory-2step-stake-s,504,1015485,0.0-18.0-0.0-0.8,4089,6,5
9,1,object_01,object_06,-1.0,-1,-1,-1.0,0.0,-,,5,84,0,3,8,desert_32,2,memory-2step-stake-s,505,1022007,0.0-18.0-0.0-0.9,4089,2,1
10,2,object_10,object_07,518.49,4,2,494.24,0.4444444444444444,2,object_02,5,104,0,6,4,forest_13,2,memory-2step-stake-s,506,1030125,0.0-18.0-0.0-0.10,4089,3,4
11,4,object_05,object_08,760.725,7,2,367.01,0.3333333333333333,1,object_03,1,107,0,3,4,restaurant_24,2,memory-2step-stake-s,507,1038025,0.0-18.0-0.0-0.11,4089,8,7
12,3,object_04,object_09,431.04,6,1,468.045,0.3333333333333333,2,object_02,1,110,0,2,3,library_28,2,memory-2step-stake-s,508,1046029,0.0-18.0-0.0-0.12,4089,6,5
13,4,object_08,object_05,972.37,7,1,482.145,0.3333333333333333,1,object_03,1,113,0,3,2,restaurant_21,2,memory-2step-stake-s,509,1054046,0.0-18.0-0.0-0.13,4089,7,8
14,1,object_06,object_01,890.225,2,2,499.415,0.1111111111111111,2,object_02,1,114,0,2,1,desert_11,2,memory-2step-stake-s,510,1061871,0.0-18.0-0.0-0.14,4089,1,2
15,2,object_07,object_10,630.325,4,1,411.24,0.2222222222222222,2,object_02,5,124,0,4,2,forest_22,2,memory-2step-stake-s,511,1069713,0.0-18.0-0.0-0.15,4089,4,3
16,1,object_01,object_06,559.37,2,1,300.09,0.2222222222222222,2,object_02,5,134,0,2,2,desert_1,2,memory-2step-stake-s,512,1077448,0.0-18.0-0.0-0.16,4089,2,1
17,3,object_04,object_09,652.83,6,1,440.605,0.2222222222222222,2,object_02,1,136,0,6,2,library_13,2,memory-2step-stake-s,513,1085323,0.0-18.0-0.0-0.17,4089,6,5
18,2,object_10,object_07,635.17,4,2,295.465,0.4444444444444444,2,object_02,5,156,0,6,4,forest_3,2,memory-2step-stake-s,514,1093261,0.0-18.0-0.0-0.18,4089,3,4
19,1,object_01,object_06,704.085,2,1,445.495,0.3333333333333333,2,object_02,5,171,0,8,3,desert_6,2,memory-2step-stake-s,515,1101243,0.0-18.0-0.0-0.19,4089,2,1
20,1,object_01,object_06,693.915,1,2,384.34,0.5555555555555556,1,object_03,5,196,0,5,1,desert_20,2,memory-2step-stake-s,516,1109372,0.0-18.0-0.0-0.20,4089,2,1
21,2,object_10,object_07,576.02,3,1,420.945,0.4444444444444444,1,object_03,5,216,0,4,1,forest_7,2,memory-2step-stake-s,517,1117437,0.0-18.0-0.0-0.21,4089,3,4
22,2,object_10,object_07,596.445,3,1,714.845,0.6666666666666666,1,object_03,5,246,0,6,3,forest_12,2,memory-2step-stake-s,518,1125998,0.0-18.0-0.0-0.22,4089,3,4
23,2,object_10,object_07,581.275,4,2,582.47,0.0,2,object_02,5,246,0,8,0,forest_25,2,memory-2step-stake-s,519,1133807,0.0-18.0-0.0-0.23,4089,3,4
24,4,object_08,object_05,605.88,7,1,459.98,0.5555555555555556,1,object_03,1,251,0,5,5,restaurant_19,2,memory-2step-stake-s,520,1142021,0.0-18.0-0.0-0.24,4089,7,8
25,2,object_10,object_07,521.975,4,2,619.92,0.6666666666666666,2,object_02,5,281,0,5,6,forest_31,2,memory-2step-stake-s,521,1150472,0.0-18.0-0.0-0.25,4089,3,4
26,2,object_10,object_07,441.56,3,1,367.54,0.5555555555555556,1,object_03,1,286,0,5,6,forest_18,2,memory-2step-stake-s,522,1158587,0.0-18.0-0.0-0.26,4089,3,4
27,4,object_05,object_08,652.965,7,2,489.835,0.3333333333333333,1,object_03,1,289,0,3,7,restaurant_21,2,memory-2step-stake-s,523,1166607,0.0-18.0-0.0-0.27,4089,8,7
28,2,object_07,object_10,455.235,4,1,513.44,0.8888888888888888,2,object_02,1,297,0,2,8,forest_12,2,memory-2step-stake-s,524,1175153,0.0-18.0-0.0-0.28,4089,4,3
29,4,object_08,object_05,688.145,7,1,572.81,0.2222222222222222,1,object_03,1,299,0,2,9,restaurant_9,2,memory-2step-stake-s,525,1183142,0.0-18.0-0.0-0.29,4089,7,8
30,3,object_09,object_04,1080.17,6,2,610.535,0.8888888888888888,2,object_02,1,307,0,1,8,library_8,2,memory-2step-stake-s,526,1191800,0.0-18.0-0.0-0.30,4089,5,6
31,1,object_06,object_01,587.925,2,2,518.79,1.0,2,object_02,1,316,0,2,9,desert_2,2,memory-2step-stake-s,527,1200475,0.0-18.0-0.0-0.31,4089,1,2
32,3,object_09,object_04,1015.14,6,2,503.375,0.7777777777777778,2,object_02,1,323,0,1,7,library_17,2,memory-2step-stake-s,528,1208924,0.0-18.0-0.0-0.32,4089,5,6
33,1,object_06,object_01,828.595,2,2,398.97,0.6666666666666666,2,object_02,1,329,0,3,6,desert_26,2,memory-2step-stake-s,529,1217168,0.0-18.0-0.0-0.33,4089,1,2
34,3,object_09,object_04,693.525,6,2,488.73,0.7777777777777778,2,object_02,1,336,0,2,7,library_18,2,memory-2step-stake-s,530,1225605,0.0-18.0-0.0-0.34,4089,5,6
35,4,object_05,object_08,961.655,7,2,420.63,0.1111111111111111,1,object_03,1,337,0,1,7,restaurant_23,2,memory-2step-stake-s,531,1233347,0.0-18.0-0.0-0.35,4089,8,7
36,3,object_09,object_04,1129.77,6,2,368.115,0.8888888888888888,2,object_02,1,345,0,0,8,library_31,2,memory-2step-stake-s,532,1241776,0.0-18.0-0.0-0.36,4089,5,6
37,4,object_08,object_05,628.06,8,2,427.175,0.8888888888888888,2,object_02,1,353,0,5,8,restaurant_7,2,memory-2step-stake-s,533,1250263,0.0-18.0-0.0-0.37,4089,7,8
38,1,object_01,object_06,519.69,2,1,391.89,0.8888888888888888,2,object_02,5,393,0,6,8,desert_7,2,memory-2step-stake-s,534,1258698,0.0-18.0-0.0-0.38,4089,2,1
39,3,object_04,object_09,673.66,6,1,1018.42,0.6666666666666666,2,object_02,1,399,0,7,6,library_21,2,memory-2step-stake-s,535,1267556,0.0-18.0-0.0-0.39,4089,6,5
40,1,object_01,object_06,478.31,2,1,452.905,0.5555555555555556,2,object_02,5,424,0,6,5,desert_32,2,memory-2step-stake-s,536,1275759,0.0-18.0-0.0-0.40,4089,2,1
41,2,object_07,object_10,910.17,4,1,464.225,0.2222222222222222,2,object_02,5,434,0,5,2,forest_22,2,memory-2step-stake-s,537,1283653,0.0-18.0-0.0-0.41,4089,4,3
42,1,object_06,object_01,556.855,2,2,361.94,0.1111111111111111,2,object_02,5,439,0,8,1,desert_15,2,memory-2step-stake-s,538,1291345,0.0-18.0-0.0-0.42,4089,1,2
43,3,object_09,object_04,443.025,6,2,309.08,0.1111111111111111,2,object_02,5,444,0,6,1,library_17,2,memory-2step-stake-s,539,1298983,0.0-18.0-0.0-0.43,4089,5,6
44,3,object_04,object_09,657.47,5,2,336.69,0.8888888888888888,1,object_03,5,484,0,8,0,library_5,2,memory-2step-stake-s,540,1307373,0.0-18.0-0.0-0.44,4089,6,5
45,3,object_04,object_09,455.9,6,1,435.495,0.2222222222222222,2,object_02,5,494,0,9,2,library_5,2,memory-2step-stake-s,541,1315238,0.0-18.0-0.0-0.45,4089,6,5
46,3,object_09,object_04,554.955,5,1,318.39,0.8888888888888888,1,object_03,5,534,0,8,4,library_25,2,memory-2step-stake-s,542,1323604,0.0-18.0-0.0-0.46,4089,5,6
47,1,object_01,object_06,-1.0,-1,-1,-1.0,0.0,-,,5,534,0,5,6,desert_6,2,memory-2step-stake-s,543,1330126,0.0-18.0-0.0-0.47,4089,2,1
48,2,object_10,object_07,680.355,3,1,344.48,0.8888888888888888,1,object_03,5,574,0,8,7,forest_9,2,memory-2step-stake-s,544,1338524,0.0-18.0-0.0-0.48,4089,3,4
49,4,object_05,object_08,622.68,7,2,420.485,0.6666666666666666,1,object_03,1,580,0,6,7,restaurant_27,2,memory-2step-stake-s,545,1346781,0.0-18.0-0.0-0.49,4089,8,7
50,3,object_04,object_09,705.85,6,1,309.35,0.6666666666666666,2,object_02,1,586,0,9,6,library_24,2,memory-2step-stake-s,546,1354938,0.0-18.0-0.0-0.50,4089,6,5
51,1,object_06,object_01,885.13,2,2,332.64,1.0,2,object_02,5,631,0,7,9,desert_4,2,memory-2step-stake-s,547,1363430,0.0-18.0-0.0-0.51,4089,1,2
52,4,object_08,object_05,890.085,8,2,371.48,1.0,2,object_02,1,640,0,8,9,restaurant_1,2,memory-2step-stake-s,548,1371965,0.0-18.0-0.0-0.52,4089,7,8
53,1,object_06,object_01,877.77,2,2,354.86,0.7777777777777778,2,object_02,5,675,0,8,7,desert_20,2,memory-2step-stake-s,549,1380268,0.0-18.0-0.0-0.53,4089,1,2
54,4,object_08,object_05,832.505,8,2,337.9,0.8888888888888888,2,object_02,1,683,0,8,8,restaurant_28,2,memory-2step-stake-s,550,1388664,0.0-18.0-0.0-0.54,4089,7,8
55,3,object_09,object_04,791.095,6,2,334.06,0.8888888888888888,2,object_02,1,691,0,7,8,library_21,2,memory-2step-stake-s,551,1397056,0.0-18.0-0.0-0.55,4089,5,6
56,1,object_01,object_06,545.575,2,1,420.58,0.6666666666666666,2,object_02,1,697,0,4,6,desert_4,2,memory-2step-stake-s,552,1405326,0.0-18.0-0.0-0.56,4089,2,1
57,3,object_09,object_04,640.825,6,2,293.805,0.6666666666666666,2,object_02,5,727,0,1,6,library_3,2,memory-2step-stake-s,553,1413460,0.0-18.0-0.0-0.57,4089,5,6
58,4,object_05,object_08,601.215,8,1,334.985,0.7777777777777778,2,object_02,1,734,0,2,7,restaurant_32,2,memory-2step-stake-s,554,1421755,0.0-18.0-0.0-0.58,4089,8,7
59,2,object_07,object_10,714.24,3,2,495.695,0.2222222222222222,1,object_03,1,736,0,2,6,forest_10,2,memory-2step-stake-s,555,1429678,0.0-18.0-0.0-0.59,4089,4,3
60,2,object_07,object_10,496.76,4,1,369.335,0.8888888888888888,2,object_02,1,744,0,2,8,forest_6,2,memory-2step-stake-s,556,1438096,0.0-18.0-0.0-0.60,4089,4,3
61,1,object_01,object_06,498.845,1,2,423.195,0.4444444444444444,1,object_03,5,764,0,4,9,desert_24,2,memory-2step-stake-s,557,1446171,0.0-18.0-0.0-0.61,4089,2,1
62,4,object_05,object_08,450.33,8,1,653.915,0.8888888888888888,2,object_02,1,772,0,8,8,restaurant_32,2,memory-2step-stake-s,558,1454884,0.0-18.0-0.0-0.62,4089,8,7
63,1,object_06,object_01,-1.0,-1,-1,-1.0,0.0,-,,5,772,0,3,8,desert_14,2,memory-2step-stake-s,559,1461405,0.0-18.0-0.0-0.63,4089,1,2
64,3,object_04,object_09,635.39,5,2,410.98,0.5555555555555556,1,object_03,5,797,0,5,9,library_11,2,memory-2step-stake-s,560,1469553,0.0-18.0-0.0-0.64,4089,6,5
65,2,object_07,object_10,527.45,3,2,800.735,0.6666666666666666,1,object_03,5,827,0,6,6,forest_11,2,memory-2step-stake-s,561,1478187,0.0-18.0-0.0-0.65,4089,4,3
66,1,object_01,object_06,839.6,2,1,487.325,0.8888888888888888,2,object_02,5,867,0,5,8,desert_22,2,memory-2step-stake-s,562,1486724,0.0-18.0-0.0-0.66,4089,2,1
67,4,object_05,object_08,446.735,8,1,374.74,0.8888888888888888,2,object_02,1,875,0,7,8,restaurant_17,2,memory-2step-stake-s,563,1495148,0.0-18.0-0.0-0.67,4089,8,7
68,1,object_06,object_01,379.11,2,2,364.575,1.0,2,object_02,5,920,0,7,9,desert_24,2,memory-2step-stake-s,564,1503674,0.0-18.0-0.0-0.68,4089,1,2
69,2,object_07,object_10,864.84,3,2,378.935,0.7777777777777778,1,object_03,5,955,0,7,6,forest_13,2,memory-2step-stake-s,565,1512007,0.0-18.0-0.0-0.69,4089,4,3
70,4,object_08,object_05,444.165,8,2,487.49,0.1111111111111111,2,object_02,1,956,0,6,1,restaurant_9,2,memory-2step-stake-s,566,1519819,0.0-18.0-0.0-0.70,4089,7,8
71,4,object_05,object_08,649.035,7,2,408.33,0.8888888888888888,1,object_03,1,964,0,8,0,restaurant_9,2,memory-2step-stake-s,567,1528283,0.0-18.0-0.0-0.71,4089,8,7
72,2,object_10,object_07,513.97,3,1,363.325,0.8888888888888888,1,object_03,5,1004,0,8,2,forest_14,2,memory-2step-stake-s,568,1536707,0.0-18.0-0.0-0.72,4089,3,4
73,3,object_04,object_09,827.775,5,2,382.1,0.8888888888888888,1,object_03,1,1012,0,8,5,library_18,2,memory-2step-stake-s,569,1545140,0.0-18.0-0.0-0.73,4089,6,5
74,4,object_08,object_05,667.98,7,1,351.035,0.7777777777777778,1,object_03,1,1019,0,7,9,restaurant_10,2,memory-2step-stake-s,570,1553443,0.0-18.0-0.0-0.74,4089,7,8
75,2,object_10,object_07,489.505,4,2,372.865,1.0,2,object_02,5,1064,0,8,9,forest_5,2,memory-2step-stake-s,571,1561975,0.0-18.0-0.0-0.75,4089,3,4
76,2,object_07,object_10,540.995,4,1,381.93,1.0,2,object_02,5,1109,0,7,9,forest_9,2,memory-2step-stake-s,572,1570509,0.0-18.0-0.0-0.76,4089,4,3
77,4,object_08,object_05,330.105,8,2,687.235,0.8888888888888888,2,object_02,1,1117,0,7,8,restaurant_24,2,memory-2step-stake-s,573,1579256,0.0-18.0-0.0-0.77,4089,7,8
78,3,object_09,object_04,452.69,5,1,468.39,0.7777777777777778,1,object_03,1,1124,0,7,7,library_25,2,memory-2step-stake-s,574,1587680,0.0-18.0-0.0-0.78,4089,5,6
79,4,object_05,object_08,499.545,8,1,383.3,1.0,2,object_02,1,1133,0,7,9,restaurant_9,2,memory-2step-stake-s,575,1596217,0.0-18.0-0.0-0.79,4089,8,7
80,2,object_10,object_07,445.345,4,2,382.145,1.0,2,object_02,5,1178,0,8,9,forest_21,2,memory-2step-stake-s,576,1604742,0.0-18.0-0.0-0.80,4089,3,4
81,3,object_09,object_04,650.735,5,1,493.25,0.7777777777777778,1,object_03,1,1185,0,7,6,library_23,2,memory-2step-stake-s,577,1613189,0.0-18.0-0.0-0.81,4089,5,6
82,2,object_10,object_07,581.085,4,2,353.385,0.6666666666666666,2,object_02,5,1215,0,9,6,forest_12,2,memory-2step-stake-s,578,1621385,0.0-18.0-0.0-0.82,4089,3,4
83,1,object_06,object_01,251.65,1,1,357.755,0.8888888888888888,1,object_03,5,1255,0,8,6,desert_7,2,memory-2step-stake-s,579,1629799,0.0-18.0-0.0-0.83,4089,1,2
84,1,object_06,object_01,372.155,2,2,373.685,0.5555555555555556,2,object_02,5,1280,0,9,5,desert_12,2,memory-2step-stake-s,580,1637922,0.0-18.0-0.0-0.84,4089,1,2
85,1,object_06,object_01,276.6,1,1,385.7,0.6666666666666666,1,object_03,5,1310,0,6,1,desert_1,2,memory-2step-stake-s,581,1646148,0.0-18.0-0.0-0.85,4089,1,2
86,4,object_05,object_08,1053.155,7,2,384.625,0.4444444444444444,1,object_03,1,1314,0,4,0,restaurant_19,2,memory-2step-stake-s,582,1654164,0.0-18.0-0.0-0.86,4089,8,7
87,1,object_01,object_06,775.085,2,1,556.165,0.1111111111111111,2,object_02,5,1319,0,2,1,desert_11,2,memory-2step-stake-s,583,1662310,0.0-18.0-0.0-0.87,4089,2,1
88,3,object_09,object_04,837.63,5,1,477.025,0.3333333333333333,1,object_03,1,1322,0,3,1,library_18,2,memory-2step-stake-s,584,1670312,0.0-18.0-0.0-0.88,4089,5,6
89,1,object_06,object_01,992.75,2,2,589.64,0.1111111111111111,2,object_02,5,1327,0,2,1,desert_2,2,memory-2step-stake-s,585,1678228,0.0-18.0-0.0-0.89,4089,1,2
90,2,object_10,object_07,-1.0,-1,-1,-1.0,0.0,-,,1,1327,0,2,1,forest_29,2,memory-2step-stake-s,586,1686197,0.0-18.0-0.0-0.90,4089,3,4
91,2,object_07,object_10,642.74,4,1,724.945,0.4444444444444444,2,object_02,5,1347,0,2,4,forest_10,2,memory-2step-stake-s,587,1694555,0.0-18.0-0.0-0.91,4089,4,3
92,2,object_07,object_10,534.71,3,2,521.275,0.3333333333333333,1,object_03,5,1362,0,3,5,forest_31,2,memory-2step-stake-s,588,1702604,0.0-18.0-0.0-0.92,4089,4,3
93,1,object_01,object_06,860.415,2,1,397.805,0.3333333333333333,2,object_02,5,1377,0,5,3,desert_22,2,memory-2step-stake-s,589,1710532,0.0-18.0-0.0-0.93,4089,2,1
94,2,object_07,object_10,362.875,3,2,301.315,0.5555555555555556,1,object_03,5,1402,0,5,2,forest_29,2,memory-2step-stake-s,590,1718576,0.0-18.0-0.0-0.94,4089,4,3
95,2,object_10,object_07,502.845,3,1,486.4,0.4444444444444444,1,object_03,5,1422,0,4,2,forest_14,2,memory-2step-stake-s,591,1726702,0.0-18.0-0.0-0.95,4089,3,4
96,1,object_01,object_06,440.275,1,2,412.785,0.2222222222222222,1,object_03,1,1424,0,2,0,desert_20,2,memory-2step-stake-s,592,1734544,0.0-18.0-0.0-0.96,4089,2,1
97,3,object_04,object_09,400.655,5,2,629.515,0.4444444444444444,1,object_03,1,1428,0,4,0,library_23,2,memory-2step-stake-s,593,1742799,0.0-18.0-0.0-0.97,4089,6,5
98,3,object_09,object_04,593.48,5,1,425.565,0.4444444444444444,1,object_03,1,1432,0,4,3,library_28,2,memory-2step-stake-s,594,1750860,0.0-18.0-0.0-0.98,4089,5,6
99,1,object_06,object_01,535.07,2,2,385.57,0.3333333333333333,2,object_02,1,1435,0,2,3,desert_25,2,memory-2step-stake-s,595,1758772,0.0-18.0-0.0-0.99,4089,1,2
100,3,object_04,object_09,539.995,6,1,426.045,0.0,2,object_02,1,1435,0,1,0,library_29,2,memory-2step-stake-s,596,1766428,0.0-18.0-0.0-0.100,4089,6,5
101,3,object_04,object_09,340.535,5,2,391.535,0.4444444444444444,1,object_03,5,1455,0,4,0,library_26,2,memory-2step-stake-s,597,1774449,0.0-18.0-0.0-0.101,4089,6,5
102,2,object_10,object_07,290.305,3,1,337.62,0.3333333333333333,1,object_03,5,1470,0,3,2,forest_3,2,memory-2step-stake-s,598,1782318,0.0-18.0-0.0-0.102,4089,3,4
103,2,object_07,object_10,553.55,3,2,379.515,0.6666666666666666,1,object_03,5,1500,0,6,4,forest_11,2,memory-2step-stake-s,599,1790531,0.0-18.0-0.0-0.103,4089,4,3
104,3,object_09,object_04,464.73,6,2,357.19,0.5555555555555556,2,object_02,5,1525,0,7,5,library_31,2,memory-2step-stake-s,600,1798610,0.0-18.0-0.0-0.104,4089,5,6
105,1,object_01,object_06,359.17,2,1,340.985,0.6666666666666666,2,object_02,5,1555,0,8,6,desert_6,2,memory-2step-stake-s,601,1806787,0.0-18.0-0.0-0.105,4089,2,1
106,3,object_04,object_09,697.125,5,2,344.24,0.7777777777777778,1,object_03,1,1562,0,7,7,library_25,2,memory-2step-stake-s,602,1815073,0.0-18.0-0.0-0.106,4089,6,5
107,1,object_06,object_01,841.275,2,2,339.05,0.8888888888888888,2,object_02,5,1602,0,9,8,desert_20,2,memory-2step-stake-s,603,1823451,0.0-18.0-0.0-0.107,4089,1,2
108,4,object_05,object_08,514.265,8,1,424.705,0.7777777777777778,2,object_02,5,1637,0,9,7,restaurant_6,2,memory-2step-stake-s,604,1831817,0.0-18.0-0.0-0.108,4089,8,7
109,1,object_06,object_01,679.135,2,2,319.635,0.8888888888888888,2,object_02,5,1677,0,8,8,desert_6,2,memory-2step-stake-s,605,1840183,0.0-18.0-0.0-0.109,4089,1,2
110,2,object_07,object_10,753.57,4,1,433.645,0.5555555555555556,2,object_02,1,1682,0,9,5,forest_3,2,memory-2step-stake-s,606,1848348,0.0-18.0-0.0-0.110,4089,4,3
111,2,object_07,object_10,1027.13,4,1,383.975,0.3333333333333333,2,object_02,5,1697,0,8,3,forest_13,2,memory-2step-stake-s,607,1856263,0.0-18.0-0.0-0.111,4089,4,3
112,2,object_10,object_07,625.505,4,2,499.17,0.5555555555555556,2,object_02,1,1702,0,6,5,forest_6,2,memory-2step-stake-s,608,1864499,0.0-18.0-0.0-0.112,4089,3,4
113,4,object_05,object_08,344.365,8,1,350.435,0.5555555555555556,2,object_02,5,1727,0,5,5,restaurant_10,2,memory-2step-stake-s,609,1872584,0.0-18.0-0.0-0.113,4089,8,7
114,2,object_10,object_07,499.85,3,1,277.275,0.5555555555555556,1,object_03,5,1752,0,5,6,forest_14,2,memory-2step-stake-s,610,1880597,0.0-18.0-0.0-0.114,4089,3,4
115,1,object_01,object_06,301.95,1,2,306.775,0.4444444444444444,1,object_03,5,1772,0,4,7,desert_26,2,memory-2step-stake-s,611,1888539,0.0-18.0-0.0-0.115,4089,2,1
116,1,object_06,object_01,318.345,1,1,290.465,0.4444444444444444,1,object_03,5,1792,0,4,7,desert_22,2,memory-2step-stake-s,612,1896455,0.0-18.0-0.0-0.116,4089,1,2
117,1,object_01,object_06,319.51,1,2,374.34,0.6666666666666666,1,object_03,5,1822,0,6,8,desert_15,2,memory-2step-stake-s,613,1904674,0.0-18.0-0.0-0.117,4089,2,1
118,1,object_06,object_01,620.58,1,1,460.065,0.4444444444444444,1,object_03,5,1842,0,4,9,desert_13,2,memory-2step-stake-s,614,1912764,0.0-18.0-0.0-0.118,4089,1,2
119,3,object_09,object_04,432.015,6,2,346.08,0.7777777777777778,2,object_02,1,1849,0,2,7,library_31,2,memory-2step-stake-s,615,1921050,0.0-18.0-0.0-0.119,4089,5,6
120,2,object_07,object_10,519.86,4,1,409.62,0.7777777777777778,2,object_02,5,1884,0,3,7,forest_12,2,memory-2step-stake-s,616,1929408,0.0-18.0-0.0-0.120,4089,4,3
121,3,object_09,object_04,417.34,6,2,398.0,0.7777777777777778,2,object_02,1,1891,0,0,7,library_29,2,memory-2step-stake-s,617,1937756,0.0-18.0-0.0-0.121,4089,5,6
122,3,object_09,object_04,374.36,5,1,418.97,0.5555555555555556,1,object_03,1,1896,0,5,9,library_3,2,memory-2step-stake-s,618,1945915,0.0-18.0-0.0-0.122,4089,5,6
123,2,object_07,object_10,808.09,3,2,351.29,0.3333333333333333,1,object_03,5,1911,0,3,9,forest_31,2,memory-2step-stake-s,619,1953799,0.0-18.0-0.0-0.123,4089,4,3
124,4,object_05,object_08,367.01,8,1,417.525,0.7777777777777778,2,object_02,1,1918,0,4,7,restaurant_19,2,memory-2step-stake-s,620,1962154,0.0-18.0-0.0-0.124,4089,8,7
125,3,object_09,object_04,522.845,6,2,297.235,0.6666666666666666,2,object_02,5,1948,0,5,6,library_11,2,memory-2step-stake-s,621,1970294,0.0-18.0-0.0-0.125,4089,5,6
126,3,object_04,object_09,807.865,5,2,361.83,0.8888888888888888,1,object_03,1,1956,0,8,8,library_28,2,memory-2step-stake-s,622,1978704,0.0-18.0-0.0-0.126,4089,6,5
127,3,object_04,object_09,408.355,5,2,444.95,0.5555555555555556,1,object_03,1,1961,0,5,9,library_26,2,memory-2step-stake-s,623,1986891,0.0-18.0-0.0-0.127,4089,6,5
128,2,object_10,object_07,674.35,3,1,323.575,0.3333333333333333,1,object_03,1,1964,0,3,7,forest_10,2,memory-2step-stake-s,625,1998224,0.0-18.0-0.1-0.128,4089,3,4
129,4,object_08,object_05,265.6,8,2,410.11,1.0,2,object_02,1,1973,0,1,9,restaurant_14,2,memory-2step-stake-s,626,2006784,0.0-18.0-0.1-0.129,4089,7,8
130,3,object_09,object_04,291.52,5,1,386.895,0.1111111111111111,1,object_03,1,1974,0,1,6,library_13,2,memory-2step-stake-s,627,2014497,0.0-18.0-0.1-0.130,4089,5,6
131,2,object_10,object_07,309.34,4,2,388.71,0.4444444444444444,2,object_02,5,1994,0,2,4,forest_5,2,memory-2step-stake-s,628,2022522,0.0-18.0-0.1-0.131,4089,3,4
132,4,object_08,object_05,361.56,8,2,317.18,0.2222222222222222,2,object_02,5,2004,0,2,2,restaurant_21,2,memory-2step-stake-s,629,2030271,0.0-18.0-0.1-0.132,4089,7,8
133,4,object_05,object_08,664.24,8,1,347.81,0.1111111111111111,2,object_02,1,2005,0,4,1,restaurant_14,2,memory-2step-stake-s,630,2037946,0.0-18.0-0.1-0.133,4089,8,7
134,3,object_04,object_09,499.665,5,2,431.135,0.7777777777777778,1,object_03,5,2040,0,7,1,library_3,2,memory-2step-stake-s,631,2046313,0.0-18.0-0.1-0.134,4089,6,5
135,4,object_08,object_05,581.225,8,2,362.005,0.1111111111111111,2,object_02,1,2041,0,7,1,restaurant_23,2,memory-2step-stake-s,632,2053996,0.0-18.0-0.1-0.135,4089,7,8
136,4,object_08,object_05,618.21,8,2,329.495,0.4444444444444444,2,object_02,1,2045,0,6,4,restaurant_23,2,memory-2step-stake-s,633,2061953,0.0-18.0-0.1-0.136,4089,7,8
137,4,object_08,object_05,425.11,8,2,603.865,0.4444444444444444,2,object_02,1,2049,0,6,4,restaurant_28,2,memory-2step-stake-s,634,2070195,0.0-18.0-0.1-0.137,4089,7,8
138,2,object_10,object_07,595.195,3,1,333.82,0.7777777777777778,1,object_03,5,2084,0,7,5,forest_5,2,memory-2step-stake-s,635,2078462,0.0-18.0-0.1-0.138,4089,3,4
139,4,object_05,object_08,375.65,7,2,405.235,0.7777777777777778,1,object_03,5,2119,0,7,4,restaurant_23,2,memory-2step-stake-s,636,2086806,0.0-18.0-0.1-0.139,4089,8,7
140,4,object_08,object_05,376.155,8,2,348.015,0.4444444444444444,2,object_02,1,2123,0,4,4,restaurant_6,2,memory-2step-stake-s,637,2094783,0.0-18.0-0.1-0.140,4089,7,8
141,2,object_10,object_07,624.2,3,1,821.64,0.7777777777777778,1,object_03,5,2158,0,7,5,forest_25,2,memory-2step-stake-s,638,2103546,0.0-18.0-0.1-0.141,4089,3,4
142,4,object_08,object_05,410.015,8,2,294.0,0.4444444444444444,2,object_02,5,2178,0,7,4,restaurant_7,2,memory-2step-stake-s,639,2111481,0.0-18.0-0.1-0.142,4089,7,8
143,1,object_01,object_06,687.935,2,1,392.36,0.6666666666666666,2,object_02,5,2208,0,3,6,desert_14,2,memory-2step-stake-s,640,2119709,0.0-18.0-0.1-0.143,4089,2,1
144,1,object_06,object_01,911.445,2,2,325.56,0.7777777777777778,2,object_02,5,2243,0,1,7,desert_25,2,memory-2step-stake-s,641,2127976,0.0-18.0-0.1-0.144,4089,1,2
145,2,object_07,object_10,340.12,4,1,330.88,0.8888888888888888,2,object_02,5,2283,0,3,8,forest_6,2,memory-2step-stake-s,642,2136354,0.0-18.0-0.1-0.145,4089,4,3
146,4,object_08,object_05,485.5,8,2,377.19,0.7777777777777778,2,object_02,1,2290,0,5,7,restaurant_1,2,memory-2step-stake-s,643,2144675,0.0-18.0-0.1-0.146,4089,7,8
147,2,object_10,object_07,561.52,3,1,275.725,0.6666666666666666,1,object_03,5,2320,0,6,8,forest_25,2,memory-2step-stake-s,644,2152788,0.0-18.0-0.1-0.147,4089,3,4
148,2,object_10,object_07,404.07,4,2,313.79,0.8888888888888888,2,object_02,5,2360,0,6,8,forest_21,2,memory-2step-stake-s,645,2161156,0.0-18.0-0.1-0.148,4089,3,4
149,2,object_10,object_07,429.89,3,1,615.075,0.2222222222222222,1,object_03,5,2370,0,2,5,forest_9,2,memory-2step-stake-s,646,2169197,0.0-18.0-0.1-0.149,4089,3,4
150,3,object_09,object_04,404.485,6,2,700.44,0.7777777777777778,2,object_02,1,2377,0,2,7,library_4,2,memory-2step-stake-s,647,2177834,0.0-18.0-0.1-0.150,4089,5,6
151,4,object_08,object_05,318.25,8,2,302.765,0.4444444444444444,2,object_02,1,2381,0,3,4,restaurant_17,2,memory-2step-stake-s,648,2185773,0.0-18.0-0.1-0.151,4089,7,8
152,1,object_06,object_01,753.54,2,2,362.83,0.0,2,object_02,5,2381,0,6,0,desert_11,2,memory-2step-stake-s,649,2193362,0.0-18.0-0.1-0.152,4089,1,2
153,4,object_08,object_05,260.835,7,1,247.735,0.5555555555555556,1,object_03,5,2406,0,5,1,restaurant_12,2,memory-2step-stake-s,650,2201355,0.0-18.0-0.1-0.153,4089,7,8
154,2,object_10,object_07,766.55,4,2,-1.0,0.0,2,object_02,1,2406,0,5,1,forest_6,2,memory-2step-stake-s,651,2209874,0.0-18.0-0.1-0.154,4089,3,4
155,2,object_10,object_07,385.755,4,2,-1.0,0.0,2,object_02,5,2406,0,6,4,forest_3,2,memory-2step-stake-s,652,2218397,0.0-18.0-0.1-0.155,4089,3,4
156,3,object_04,object_09,413.84,6,1,395.575,0.3333333333333333,2,object_02,1,2409,0,6,3,library_25,2,memory-2step-stake-s,653,2226325,0.0-18.0-0.1-0.156,4089,6,5
157,1,object_01,object_06,769.955,1,2,659.715,0.2222222222222222,1,object_03,5,2419,0,2,0,desert_12,2,memory-2step-stake-s,654,2234418,0.0-18.0-0.1-0.157,4089,2,1
158,3,object_04,object_09,405.335,6,1,429.095,0.0,2,object_02,1,2419,0,5,0,library_5,2,memory-2step-stake-s,655,2242064,0.0-18.0-0.1-0.158,4089,6,5
159,1,object_06,object_01,364.215,2,2,312.875,0.1111111111111111,2,object_02,5,2424,0,8,1,desert_15,2,memory-2step-stake-s,656,2249697,0.0-18.0-0.1-0.159,4089,1,2
160,3,object_09,object_04,215.685,5,1,561.23,0.8888888888888888,1,object_03,1,2432,0,8,2,library_4,2,memory-2step-stake-s,657,2258292,0.0-18.0-0.1-0.160,4089,5,6
161,4,object_08,object_05,534.225,8,2,332.935,0.2222222222222222,2,object_02,1,2434,0,6,2,restaurant_21,2,memory-2step-stake-s,658,2266060,0.0-18.0-0.1-0.161,4089,7,8
162,3,object_04,object_09,892.525,6,1,477.745,0.1111111111111111,2,object_02,1,2435,0,4,1,library_31,2,memory-2step-stake-s,659,2273862,0.0-18.0-0.1-0.162,4089,6,5
163,3,object_09,object_04,511.685,6,2,359.42,0.1111111111111111,2,object_02,1,2436,0,7,1,library_11,2,memory-2step-stake-s,660,2281547,0.0-18.0-0.1-0.163,4089,5,6
164,1,object_01,object_06,531.66,2,1,349.08,0.2222222222222222,2,object_02,5,2446,0,9,2,desert_13,2,memory-2step-stake-s,661,2289326,0.0-18.0-0.1-0.164,4089,2,1
165,2,object_07,object_10,264.14,3,2,337.025,1.0,1,object_03,5,2491,0,9,2,forest_25,2,memory-2step-stake-s,662,2297812,0.0-18.0-0.1-0.165,4089,4,3
166,4,object_05,object_08,460.125,8,1,292.545,0.2222222222222222,2,object_02,1,2493,0,8,2,restaurant_10,2,memory-2step-stake-s,663,2305534,0.0-18.0-0.1-0.166,4089,8,7
167,3,object_09,object_04,281.355,6,2,449.185,0.3333333333333333,2,object_02,1,2496,0,7,3,library_4,2,memory-2step-stake-s,664,2313521,0.0-18.0-0.1-0.167,4089,5,6
168,1,object_06,object_01,329.34,1,1,322.93,0.6666666666666666,1,object_03,5,2526,0,6,5,desert_14,2,memory-2step-stake-s,665,2321681,0.0-18.0-0.1-0.168,4089,1,2
169,2,object_10,object_07,405.94,4,2,289.57,0.1111111111111111,2,object_02,5,2531,0,6,1,forest_7,2,memory-2step-stake-s,666,2329296,0.0-18.0-0.1-0.169,4089,3,4
170,1,object_06,object_01,572.755,1,1,340.375,1.0,1,object_03,1,2540,0,9,1,desert_4,2,memory-2step-stake-s,667,2337775,0.0-18.0-0.1-0.170,4089,1,2
171,1,object_06,object_01,657.63,2,2,411.605,0.1111111111111111,2,object_02,5,2545,0,7,1,desert_25,2,memory-2step-stake-s,668,2345507,0.0-18.0-0.1-0.171,4089,1,2
172,4,object_08,object_05,544.215,8,2,324.545,0.3333333333333333,2,object_02,5,2560,0,8,3,restaurant_14,2,memory-2step-stake-s,669,2353362,0.0-18.0-0.1-0.172,4089,7,8
173,2,object_10,object_07,509.31,4,2,283.485,0.3333333333333333,2,object_02,1,2563,0,8,3,forest_31,2,memory-2step-stake-s,670,2361168,0.0-18.0-0.1-0.173,4089,3,4
174,4,object_05,object_08,408.395,8,1,419.75,0.5555555555555556,2,object_02,1,2568,0,7,5,restaurant_17,2,memory-2step-stake-s,671,2369331,0.0-18.0-0.1-0.174,4089,8,7
175,4,object_08,object_05,426.07,7,1,318.825,1.0,1,object_03,1,2577,0,9,7,restaurant_17,2,memory-2step-stake-s,672,2377799,0.0-18.0-0.1-0.175,4089,7,8
176,2,object_10,object_07,325.29,4,2,305.27,0.6666666666666666,2,object_02,5,2607,0,8,6,forest_10,2,memory-2step-stake-s,673,2385931,0.0-18.0-0.1-0.176,4089,3,4
177,4,object_05,object_08,383.24,8,1,426.43,0.6666666666666666,2,object_02,5,2637,0,9,6,restaurant_32,2,memory-2step-stake-s,674,2394195,0.0-18.0-0.1-0.177,4089,8,7
178,2,object_10,object_07,314.155,4,2,341.19,0.8888888888888888,2,object_02,5,2677,0,4,8,forest_18,2,memory-2step-stake-s,675,2402582,0.0-18.0-0.1-0.178,4089,3,4
179,1,object_06,object_01,488.535,1,1,329.805,0.2222222222222222,1,object_03,1,2679,0,2,5,desert_12,2,memory-2step-stake-s,676,2410334,0.0-18.0-0.1-0.179,4089,1,2
180,3,object_04,object_09,339.595,5,2,400.87,0.3333333333333333,1,object_03,1,2682,0,3,4,library_29,2,memory-2step-stake-s,677,2418259,0.0-18.0-0.1-0.180,4089,6,5
181,2,object_10,object_07,440.605,3,1,348.87,0.5555555555555556,1,object_03,1,2687,0,5,6,forest_11,2,memory-2step-stake-s,678,2426350,0.0-18.0-0.1-0.181,4089,3,4
182,2,object_10,object_07,724.895,4,2,456.09,1.0,2,object_02,5,2732,0,5,9,forest_22,2,memory-2step-stake-s,679,2434950,0.0-18.0-0.1-0.182,4089,3,4
183,3,object_04,object_09,303.265,5,2,290.845,0.7777777777777778,1,object_03,1,2739,0,7,6,library_4,2,memory-2step-stake-s,680,2443187,0.0-18.0-0.1-0.183,4089,6,5
184,1,object_06,object_01,476.385,2,2,437.925,0.7777777777777778,2,object_02,5,2774,0,7,7,desert_22,2,memory-2step-stake-s,681,2451565,0.0-18.0-0.1-0.184,4089,1,2
185,4,object_05,object_08,-1.0,-1,-1,-1.0,0.0,-,,1,2774,0,9,9,restaurant_19,2,memory-2step-stake-s,682,2458083,0.0-18.0-0.1-0.185,4089,8,7
186,2,object_07,object_10,478.795,3,2,373.76,0.8888888888888888,1,object_03,5,2814,0,8,9,forest_14,2,memory-2step-stake-s,683,2466490,0.0-18.0-0.1-0.186,4089,4,3
187,3,object_04,object_09,388.625,5,2,419.94,0.7777777777777778,1,object_03,1,2821,0,7,8,library_8,2,memory-2step-stake-s,684,2474849,0.0-18.0-0.1-0.187,4089,6,5
188,4,object_08,object_05,436.965,8,2,342.735,0.8888888888888888,2,object_02,1,2829,0,6,8,restaurant_27,2,memory-2step-stake-s,685,2483242,0.0-18.0-0.1-0.188,4089,7,8
189,3,object_04,object_09,483.67,6,1,593.29,0.6666666666666666,2,object_02,5,2859,0,3,6,library_21,2,memory-2step-stake-s,686,2491683,0.0-18.0-0.1-0.189,4089,6,5
190,3,object_09,object_04,471.62,6,2,434.155,0.8888888888888888,2,object_02,5,2899,0,1,8,library_24,2,memory-2step-stake-s,687,2500170,0.0-18.0-0.1-0.190,4089,5,6
191,4,object_08,object_05,675.27,7,1,411.755,0.1111111111111111,1,object_03,1,2900,0,1,6,restaurant_6,2,memory-2step-stake-s,688,2507915,0.0-18.0-0.1-0.191,4089,7,8
192,2,object_10,object_07,655.345,4,2,286.41,0.8888888888888888,2,object_02,5,2940,0,1,8,forest_13,2,memory-2step-stake-s,689,2516250,0.0-18.0-0.1-0.192,4089,3,4
193,3,object_04,object_09,690.755,6,1,308.235,0.8888888888888888,2,object_02,1,2948,0,2,8,library_18,2,memory-2step-stake-s,690,2524604,0.0-18.0-0.1-0.193,4089,6,5
194,1,object_06,object_01,580.355,2,2,361.66,0.4444444444444444,2,object_02,5,2968,0,1,4,desert_15,2,memory-2step-stake-s,691,2532594,0.0-18.0-0.1-0.194,4089,1,2
195,1,object_01,object_06,693.635,2,1,364.98,0.6666666666666666,2,object_02,5,2998,0,3,6,desert_4,2,memory-2step-stake-s,692,2540811,0.0-18.0-0.1-0.195,4089,2,1
196,3,object_09,object_04,395.83,6,2,461.13,0.5555555555555556,2,object_02,1,3003,0,4,5,library_28,2,memory-2step-stake-s,693,2549015,0.0-18.0-0.1-0.196,4089,5,6
197,1,object_01,object_06,398.645,2,1,385.38,0.4444444444444444,2,object_02,5,3023,0,5,4,desert_1,2,memory-2step-stake-s,694,2557034,0.0-18.0-0.1-0.197,4089,2,1
198,4,object_08,object_05,310.89,8,2,392.335,0.5555555555555556,2,object_02,1,3028,0,6,5,restaurant_14,2,memory-2step-stake-s,695,2565163,0.0-18.0-0.1-0.198,4089,7,8
199,2,object_07,object_10,411.04,3,2,288.68,0.6666666666666666,1,object_03,5,3058,0,6,4,forest_11,2,memory-2step-stake-s,696,2573293,0.0-18.0-0.1-0.199,4089,4,3
200,4,object_08,object_05,631.03,8,2,318.56,0.6666666666666666,2,object_02,1,3064,0,8,6,restaurant_7,2,memory-2step-stake-s,697,2581446,0.0-18.0-0.1-0.200,4089,7,8
201,1,object_01,object_06,280.105,2,1,407.71,0.8888888888888888,2,object_02,5,3104,0,7,8,desert_2,2,memory-2step-stake-s,698,2589899,0.0-18.0-0.1-0.201,4089,2,1
202,4,object_05,object_08,608.2,8,1,445.88,0.7777777777777778,2,object_02,1,3111,0,5,7,restaurant_6,2,memory-2step-stake-s,699,2598287,0.0-18.0-0.1-0.202,4089,8,7
203,3,object_09,object_04,393.255,6,2,382.045,0.6666666666666666,2,object_02,5,3141,0,2,6,library_23,2,memory-2step-stake-s,700,2606517,0.0-18.0-0.1-0.203,4089,5,6
204,3,object_04,object_09,577.5,5,2,374.09,0.1111111111111111,1,object_03,1,3142,0,1,7,library_24,2,memory-2step-stake-s,701,2614220,0.0-18.0-0.1-0.204,4089,6,5
205,3,object_09,object_04,560.15,6,2,365.825,0.8888888888888888,2,object_02,1,3150,0,4,8,library_23,2,memory-2step-stake-s,702,2622643,0.0-18.0-0.1-0.205,4089,5,6
206,3,object_04,object_09,795.335,5,2,283.52,0.2222222222222222,1,object_03,1,3152,0,2,9,library_29,2,memory-2step-stake-s,703,2630357,0.0-18.0-0.1-0.206,4089,6,5
207,2,object_10,object_07,661.9,3,1,449.6,0.3333333333333333,1,object_03,5,3167,0,3,9,forest_21,2,memory-2step-stake-s,704,2638336,0.0-18.0-0.1-0.207,4089,3,4
208,4,object_05,object_08,732.855,8,1,377.145,0.6666666666666666,2,object_02,1,3173,0,1,6,restaurant_8,2,memory-2step-stake-s,705,2646561,0.0-18.0-0.1-0.208,4089,8,7
209,2,object_07,object_10,1036.15,3,2,402.45,0.1111111111111111,1,object_03,5,3178,0,1,7,forest_29,2,memory-2step-stake-s,706,2654288,0.0-18.0-0.1-0.209,4089,4,3
210,4,object_08,object_05,293.05,8,2,522.455,0.7777777777777778,2,object_02,5,3213,0,3,7,restaurant_27,2,memory-2step-stake-s,707,2662757,0.0-18.0-0.1-0.210,4089,7,8
211,1,object_01,object_06,419.7,2,1,367.165,0.8888888888888888,2,object_02,5,3253,0,4,8,desert_11,2,memory-2step-stake-s,708,2671173,0.0-18.0-0.1-0.211,4089,2,1
212,4,object_05,object_08,373.27,7,2,345.71,0.3333333333333333,1,object_03,1,3256,0,3,8,restaurant_12,2,memory-2step-stake-s,709,2679057,0.0-18.0-0.1-0.212,4089,8,7
213,4,object_05,object_08,397.195,8,1,-1.0,0.0,2,object_02,1,3256,0,1,6,restaurant_1,2,memory-2step-stake-s,710,2687579,0.0-18.0-0.1-0.213,4089,8,7
214,1,object_06,object_01,484.765,1,1,523.745,0.2222222222222222,1,object_03,5,3266,0,2,5,desert_14,2,memory-2step-stake-s,711,2695528,0.0-18.0-0.1-0.214,4089,1,2
215,2,object_07,object_10,367.145,3,2,654.89,0.2222222222222222,1,object_03,5,3276,0,2,5,forest_5,2,memory-2step-stake-s,712,2703610,0.0-18.0-0.1-0.215,4089,4,3
216,1,object_01,object_06,394.47,1,2,359.34,0.2222222222222222,1,object_03,5,3286,0,2,4,desert_26,2,memory-2step-stake-s,713,2711393,0.0-18.0-0.1-0.216,4089,2,1
217,1,object_06,object_01,252.08,1,1,563.845,0.1111111111111111,1,object_03,5,3291,0,1,3,desert_13,2,memory-2step-stake-s,714,2719278,0.0-18.0-0.1-0.217,4089,1,2
218,3,object_04,object_09,324.985,5,2,439.51,0.4444444444444444,1,object_03,1,3295,0,4,4,library_24,2,memory-2step-stake-s,715,2727354,0.0-18.0-0.1-0.218,4089,6,5
219,4,object_05,object_08,404.555,8,1,333.665,0.3333333333333333,2,object_02,1,3298,0,4,3,restaurant_28,2,memory-2step-stake-s,716,2735220,0.0-18.0-0.1-0.219,4089,8,7
220,3,object_04,object_09,286.41,5,2,310.61,0.5555555555555556,1,object_03,1,3303,0,5,2,library_17,2,memory-2step-stake-s,717,2743260,0.0-18.0-0.1-0.220,4089,6,5
221,1,object_06,object_01,272.63,2,2,325.725,0.4444444444444444,2,object_02,5,3323,0,4,4,desert_26,2,memory-2step-stake-s,718,2751222,0.0-18.0-0.1-0.221,4089,1,2
222,4,object_08,object_05,325.98,7,1,323.46,0.1111111111111111,1,object_03,1,3324,0,1,5,restaurant_28,2,memory-2step-stake-s,719,2758873,0.0-18.0-0.1-0.222,4089,7,8
223,4,object_05,object_08,989.355,7,2,350.81,0.3333333333333333,1,object_03,1,3327,0,3,6,restaurant_8,2,memory-2step-stake-s,720,2766753,0.0-18.0-0.1-0.223,4089,8,7
224,2,object_07,object_10,743.675,4,1,372.18,0.6666666666666666,2,object_02,5,3357,0,1,6,forest_9,2,memory-2step-stake-s,721,2774972,0.0-18.0-0.1-0.224,4089,4,3
225,3,object_04,object_09,401.155,5,2,369.54,0.3333333333333333,1,object_03,5,3372,0,3,3,library_13,2,memory-2step-stake-s,722,2782870,0.0-18.0-0.1-0.225,4089,6,5
226,1,object_01,object_06,1194.64,1,2,436.535,0.3333333333333333,1,object_03,1,3375,0,3,1,desert_32,2,memory-2step-stake-s,723,2790844,0.0-18.0-0.1-0.226,4089,2,1
227,3,object_04,object_09,440.535,5,2,309.895,1.0,1,object_03,1,3384,0,9,2,library_5,2,memory-2step-stake-s,724,2799309,0.0-18.0-0.1-0.227,4089,6,5
228,2,object_07,object_10,555.66,3,2,301.965,1.0,1,object_03,5,3429,0,9,4,forest_18,2,memory-2step-stake-s,725,2807772,0.0-18.0-0.1-0.228,4089,4,3
229,3,object_09,object_04,419.955,5,1,256.67,0.6666666666666666,1,object_03,1,3435,0,6,7,library_26,2,memory-2step-stake-s,726,2815865,0.0-18.0-0.1-0.229,4089,5,6
230,1,object_01,object_06,467.655,2,1,245.405,0.7777777777777778,2,object_02,5,3470,0,7,7,desert_7,2,memory-2step-stake-s,727,2824061,0.0-18.0-0.1-0.230,4089,2,1
231,1,object_01,object_06,692.085,2,1,457.415,0.8888888888888888,2,object_02,5,3510,0,5,8,desert_25,2,memory-2step-stake-s,728,2832548,0.0-18.0-0.1-0.231,4089,2,1
232,1,object_01,object_06,374.655,2,1,347.505,0.5555555555555556,2,object_02,5,3535,0,4,5,desert_24,2,memory-2step-stake-s,729,2840634,0.0-18.0-0.1-0.232,4089,2,1
233,4,object_05,object_08,738.58,8,1,337.41,1.0,2,object_02,5,3580,0,5,9,restaurant_8,2,memory-2step-stake-s,730,2849111,0.0-18.0-0.1-0.233,4089,8,7
234,3,object_04,object_09,706.75,5,2,361.265,0.6666666666666666,1,object_03,1,3586,0,6,8,library_8,2,memory-2step-stake-s,731,2857316,0.0-18.0-0.1-0.234,4089,6,5
235,3,object_04,object_09,648.88,6,1,364.13,0.7777777777777778,2,object_02,1,3593,0,4,7,library_11,2,memory-2step-stake-s,732,2865638,0.0-18.0-0.1-0.235,4089,6,5
236,3,object_09,object_04,242.415,6,2,443.505,0.6666666666666666,2,object_02,1,3599,0,6,6,library_3,2,memory-2step-stake-s,733,2873926,0.0-18.0-0.1-0.236,4089,5,6
237,4,object_05,object_08,364.53,8,1,386.635,0.7777777777777778,2,object_02,1,3606,0,6,7,restaurant_10,2,memory-2step-stake-s,734,2882255,0.0-18.0-0.1-0.237,4089,8,7
238,2,object_10,object_07,308.035,4,2,207.845,0.4444444444444444,2,object_02,5,3626,0,7,4,forest_7,2,memory-2step-stake-s,735,2890097,0.0-18.0-0.1-0.238,4089,3,4
239,1,object_06,object_01,488.14,2,2,239.205,0.1111111111111111,2,object_02,1,3627,0,5,1,desert_1,2,memory-2step-stake-s,736,2897660,0.0-18.0-0.1-0.239,4089,1,2
240,4,object_08,object_05,523.0,7,1,332.33,0.4444444444444444,1,object_03,1,3631,0,4,3,restaurant_7,2,memory-2step-stake-s,737,2905634,0.0-18.0-0.1-0.240,4089,7,8
241,4,object_08,object_05,345.3,8,2,482.855,0.5555555555555556,2,object_02,1,3636,0,9,5,restaurant_24,2,memory-2step-stake-s,738,2913850,0.0-18.0-0.1-0.241,4089,7,8
242,1,object_01,object_06,558.425,1,2,329.225,0.8888888888888888,1,object_03,5,3676,0,8,5,desert_2,2,memory-2step-stake-s,739,2922227,0.0-18.0-0.1-0.242,4089,2,1
243,1,object_06,object_01,648.075,1,1,475.895,0.8888888888888888,1,object_03,5,3716,0,8,8,desert_24,2,memory-2step-stake-s,740,2930746,0.0-18.0-0.1-0.243,4089,1,2
244,4,object_08,object_05,1248.745,8,2,595.985,0.8888888888888888,2,object_02,1,3724,0,8,8,restaurant_32,2,memory-2step-stake-s,741,2939383,0.0-18.0-0.1-0.244,4089,7,8
245,3,object_09,object_04,579.755,5,1,318.365,0.5555555555555556,1,object_03,1,3729,0,5,5,library_21,2,memory-2step-stake-s,742,2947430,0.0-18.0-0.1-0.245,4089,5,6
246,3,object_09,object_04,554.435,5,1,400.59,0.5555555555555556,1,object_03,1,3734,0,5,6,library_17,2,memory-2step-stake-s,743,2955561,0.0-18.0-0.1-0.246,4089,5,6
247,4,object_05,object_08,392.14,7,2,422.21,0.5555555555555556,1,object_03,1,3739,0,5,8,restaurant_1,2,memory-2step-stake-s,744,2963730,0.0-18.0-0.1-0.247,4089,8,7
248,1,object_01,object_06,529.28,2,1,379.73,0.7777777777777778,2,object_02,5,3774,0,3,7,desert_32,2,memory-2step-stake-s,745,2972059,0.0-18.0-0.1-0.248,4089,2,1
249,4,object_08,object_05,506.015,8,2,326.185,0.5555555555555556,2,object_02,1,3779,0,6,5,restaurant_27,2,memory-2step-stake-s,746,2980129,0.0-18.0-0.1-0.249,4089,7,8
250,1,object_06,object_01,462.36,2,2,405.75,0.5555555555555556,2,object_02,5,3804,0,5,5,desert_12,2,memory-2step-stake-s,747,2988274,0.0-18.0-0.1-0.250,4089,1,2
251,3,object_04,object_09,399.21,6,1,302.98,0.3333333333333333,2,object_02,1,3807,0,5,3,library_26,2,memory-2step-stake-s,748,2996100,0.0-18.0-0.1-0.251,4089,6,5
252,2,object_07,object_10,352.79,3,2,313.565,0.7777777777777778,1,object_03,5,3842,0,7,1,forest_7,2,memory-2step-stake-s,749,3004362,0.0-18.0-0.1-0.252,4089,4,3
253,4,object_08,object_05,511.36,8,2,422.55,0.0,2,object_02,5,3842,0,6,0,restaurant_24,2,memory-2step-stake-s,750,3012004,0.0-18.0-0.1-0.253,4089,7,8
254,4,object_05,object_08,457.145,8,1,319.05,0.3333333333333333,2,object_02,1,3845,0,6,3,restaurant_12,2,memory-2step-stake-s,751,3019857,0.0-18.0-0.1-0.254,4089,8,7
255,2,object_07,object_10,650.44,4,1,349.225,0.5555555555555556,2,object_02,1,3850,0,7,5,forest_18,2,memory-2step-stake-s,752,3027950,0.0-18.0-0.1-0.255,4089,4,3
