,state1,stim_left,stim_right,rt_1,choice1,response1,rt_2,points,state2,stim_state2,stake,score,practice,rews1,rews2,background,high_arm,trial_type,trial_index,time_elapsed,internal_node_id,subid,stim_left_num,stim_right_num
0,2,object_02,object_01,1272.95,4,2,-1.0,0.0,2,object_07,1,0,0,3,7,forest_8,1,memory-2step-stake-s,497,1207826,0.0-18.0-0.0-0.0,4407,3,4
1,3,object_05,object_06,806.355,6,1,822.635,0.7777777777777778,2,object_07,5,35,0,3,7,library_20,1,memory-2step-stake-s,498,1216688,0.0-18.0-0.0-0.1,4407,6,5
2,1,object_09,object_10,1039.83,2,2,501.91,0.7777777777777778,2,object_07,1,42,0,5,7,desert_28,1,memory-2step-stake-s,499,1225230,0.0-18.0-0.0-0.2,4407,1,2
3,4,object_08,object_03,1248.97,7,1,625.78,0.4444444444444444,1,object_04,5,62,0,4,8,restaurant_17,1,memory-2step-stake-s,500,1233561,0.0-18.0-0.0-0.3,4407,7,8
4,1,object_09,object_10,465.785,1,1,474.85,0.5555555555555556,1,object_04,1,67,0,5,6,desert_8,1,memory-2step-stake-s,501,1241849,0.0-18.0-0.0-0.4,4407,1,2
5,3,object_06,object_05,776.66,6,2,415.955,1.0,2,object_07,5,112,0,8,9,library_6,1,memory-2step-stake-s,502,1250535,0.0-18.0-0.0-0.5,4407,5,6
6,2,object_02,object_01,766.59,4,2,451.235,0.8888888888888888,2,object_07,5,152,0,9,8,forest_21,1,memory-2step-stake-s,503,1259129,0.0-18.0-0.0-0.6,4407,3,4
7,2,object_02,object_01,543.1,4,2,379.175,0.7777777777777778,2,object_07,5,187,0,8,7,forest_11,1,memory-2step-stake-s,504,1267544,0.0-18.0-0.0-0.7,4407,3,4
8,4,object_03,object_08,556.45,8,1,397.695,0.5555555555555556,2,object_07,1,192,0,8,5,restaurant_18,1,memory-2step-stake-s,505,1275781,0.0-18.0-0.0-0.8,4407,8,7
9,1,object_09,object_10,595.62,1,1,374.9,0.8888888888888888,1,object_04,1,200,0,8,3,desert_23,1,memory-2step-stake-s,506,1284314,0.0-18.0-0.0-0.9,4407,1,2
10,2,object_02,object_01,781.24,3,1,454.625,0.6666666666666666,1,object_04,1,206,0,6,4,forest_18,1,memory-2step-stake-s,507,1292702,0.0-18.0-0.0-0.10,4407,3,4
11,4,object_03,object_08,791.475,7,2,541.26,0.4444444444444444,1,object_04,1,210,0,4,3,restaurant_27,1,memory-2step-stake-s,508,1300934,0.0-18.0-0.0-0.11,4407,8,7
12,1,object_10,object_09,582.275,2,1,264.88,0.6666666666666666,2,object_07,1,216,0,3,6,desert_22,1,memory-2step-stake-s,509,1309122,0.0-18.0-0.0-0.12,4407,2,1
13,4,object_03,object_08,527.45,7,2,160.34,0.2222222222222222,1,object_04,1,218,0,2,9,restaurant_20,1,memory-2step-stake-s,510,1316759,0.0-18.0-0.0-0.13,4407,8,7
14,2,object_01,object_02,681.805,3,2,311.22,0.6666666666666666,1,object_04,1,224,0,6,6,forest_30,1,memory-2step-stake-s,511,1325017,0.0-18.0-0.0-0.14,4407,4,3
15,1,object_10,object_09,950.255,1,2,517.71,0.6666666666666666,1,object_04,1,230,0,6,3,desert_30,1,memory-2step-stake-s,512,1333463,0.0-18.0-0.0-0.15,4407,2,1
16,3,object_06,object_05,1185.39,6,2,362.265,0.2222222222222222,2,object_07,5,240,0,5,2,library_7,1,memory-2step-stake-s,513,1341312,0.0-18.0-0.0-0.16,4407,5,6
17,3,object_05,object_06,752.565,5,2,233.97,0.8888888888888888,1,object_04,5,280,0,8,2,library_16,1,memory-2step-stake-s,514,1349720,0.0-18.0-0.0-0.17,4407,6,5
18,2,object_02,object_01,958.89,4,2,275.53,0.6666666666666666,2,object_07,5,310,0,5,6,forest_24,1,memory-2step-stake-s,515,1357901,0.0-18.0-0.0-0.18,4407,3,4
19,2,object_01,object_02,1106.57,3,2,419.0,0.4444444444444444,1,object_04,1,314,0,4,5,forest_24,1,memory-2step-stake-s,516,1366023,0.0-18.0-0.0-0.19,4407,4,3
20,3,object_06,object_05,946.335,5,1,309.5,0.1111111111111111,1,object_04,5,319,0,1,5,library_26,1,memory-2step-stake-s,517,1373714,0.0-18.0-0.0-0.20,4407,5,6
21,2,object_02,object_01,1041.495,3,1,317.61,0.1111111111111111,1,object_04,1,320,0,1,8,forest_25,1,memory-2step-stake-s,518,1381413,0.0-18.0-0.0-0.21,4407,3,4
22,3,object_06,object_05,1152.1,6,2,240.41,1.0,2,object_07,5,365,0,3,9,library_23,1,memory-2step-stake-s,519,1389892,0.0-18.0-0.0-0.22,4407,5,6
23,1,object_10,object_09,708.12,1,2,345.555,0.3333333333333333,1,object_04,1,368,0,3,5,desert_28,1,memory-2step-stake-s,520,1397825,0.0-18.0-0.0-0.23,4407,2,1
24,1,object_10,object_09,854.82,1,2,304.205,0.2222222222222222,1,object_04,1,370,0,2,3,desert_8,1,memory-2step-stake-s,521,1405615,0.0-18.0-0.0-0.24,4407,2,1
25,3,object_06,object_05,740.41,5,1,65.44999999,0.5555555555555556,1,object_04,5,395,0,5,4,library_17,1,memory-2step-stake-s,522,1413506,0.0-18.0-0.0-0.25,4407,5,6
26,4,object_08,object_03,858.52,8,2,241.755,0.5555555555555556,2,object_07,5,420,0,3,5,restaurant_6,1,memory-2step-stake-s,523,1421577,0.0-18.0-0.0-0.26,4407,7,8
27,4,object_03,object_08,1204.77,7,2,390.605,0.1111111111111111,1,object_04,5,425,0,1,5,restaurant_22,1,memory-2step-stake-s,524,1429351,0.0-18.0-0.0-0.27,4407,8,7
28,2,object_02,object_01,970.905,4,2,185.35,0.5555555555555556,2,object_07,1,430,0,1,5,forest_1,1,memory-2step-stake-s,525,1437375,0.0-18.0-0.0-0.28,4407,3,4
29,4,object_08,object_03,864.84,7,1,279.07,0.4444444444444444,1,object_04,5,450,0,4,7,restaurant_30,1,memory-2step-stake-s,526,1445366,0.0-18.0-0.0-0.29,4407,7,8
30,1,object_10,object_09,1209.385,1,2,313.18,0.4444444444444444,1,object_04,1,454,0,4,8,desert_23,1,memory-2step-stake-s,527,1453373,0.0-18.0-0.0-0.30,4407,2,1
31,3,object_05,object_06,1019.06,5,2,136.5,0.6666666666666666,1,object_04,5,484,0,6,9,library_5,1,memory-2step-stake-s,528,1461428,0.0-18.0-0.0-0.31,4407,6,5
32,1,object_10,object_09,778.62,2,1,235.08,0.8888888888888888,2,object_07,1,492,0,8,8,desert_16,1,memory-2step-stake-s,529,1469809,0.0-18.0-0.0-0.32,4407,2,1
33,3,object_05,object_06,903.54,5,2,280.775,0.7777777777777778,1,object_04,5,527,0,7,7,library_23,1,memory-2step-stake-s,530,1478118,0.0-18.0-0.0-0.33,4407,6,5
34,1,object_10,object_09,899.945,1,2,297.71,1.0,1,object_04,1,536,0,9,7,desert_27,1,memory-2step-stake-s,531,1486676,0.0-18.0-0.0-0.34,4407,2,1
35,3,object_05,object_06,765.035,6,1,293.1,0.6666666666666666,2,object_07,5,566,0,6,6,library_32,1,memory-2step-stake-s,532,1494884,0.0-18.0-0.0-0.35,4407,6,5
36,1,object_10,object_09,631.105,1,2,424.855,0.4444444444444444,1,object_04,1,570,0,4,5,desert_22,1,memory-2step-stake-s,533,1503008,0.0-18.0-0.0-0.36,4407,2,1
37,1,object_10,object_09,862.81,2,1,249.91,0.6666666666666666,2,object_07,5,600,0,4,6,desert_16,1,memory-2step-stake-s,534,1511175,0.0-18.0-0.0-0.37,4407,2,1
38,2,object_02,object_01,860.17,4,2,246.2,0.5555555555555556,2,object_07,1,605,0,4,5,forest_14,1,memory-2step-stake-s,535,1519251,0.0-18.0-0.0-0.38,4407,3,4
39,4,object_03,object_08,910.35,8,1,321.445,0.7777777777777778,2,object_07,1,612,0,5,7,restaurant_15,1,memory-2step-stake-s,536,1527604,0.0-18.0-0.0-0.39,4407,8,7
40,1,object_10,object_09,562.72,2,1,263.545,0.6666666666666666,2,object_07,1,618,0,3,6,desert_20,1,memory-2step-stake-s,537,1535816,0.0-18.0-0.0-0.40,4407,2,1
41,2,object_02,object_01,672.895,3,1,249.635,0.4444444444444444,1,object_04,1,622,0,4,7,forest_28,1,memory-2step-stake-s,538,1543768,0.0-18.0-0.0-0.41,4407,3,4
42,2,object_01,object_02,714.41,3,2,308.55,0.4444444444444444,1,object_04,1,626,0,4,9,forest_13,1,memory-2step-stake-s,539,1551784,0.0-18.0-0.0-0.42,4407,4,3
43,3,object_05,object_06,706.73,5,2,268.6,0.6666666666666666,1,object_04,5,656,0,6,8,library_30,1,memory-2step-stake-s,540,1559977,0.0-18.0-0.0-0.43,4407,6,5
44,3,object_06,object_05,630.635,5,1,328.44,0.2222222222222222,1,object_04,5,666,0,2,8,library_7,1,memory-2step-stake-s,541,1567798,0.0-18.0-0.0-0.44,4407,5,6
45,3,object_05,object_06,638.53,5,2,314.305,0.2222222222222222,1,object_04,5,676,0,2,7,library_21,1,memory-2step-stake-s,542,1575629,0.0-18.0-0.0-0.45,4407,6,5
46,4,object_03,object_08,902.43,7,2,240.945,0.5555555555555556,1,object_04,5,701,0,5,6,restaurant_22,1,memory-2step-stake-s,543,1583683,0.0-18.0-0.0-0.46,4407,8,7
47,4,object_03,object_08,488.52,8,1,373.545,0.8888888888888888,2,object_07,5,741,0,7,8,restaurant_22,1,memory-2step-stake-s,544,1592198,0.0-18.0-0.0-0.47,4407,8,7
48,2,object_01,object_02,1238.215,4,1,355.645,0.7777777777777778,2,object_07,5,776,0,5,7,forest_19,1,memory-2step-stake-s,545,1600567,0.0-18.0-0.0-0.48,4407,4,3
49,3,object_05,object_06,1071.06,5,2,455.775,0.7777777777777778,1,object_04,5,811,0,7,9,library_5,1,memory-2step-stake-s,546,1609062,0.0-18.0-0.0-0.49,4407,6,5
50,2,object_02,object_01,1035.365,3,1,680.46,0.7777777777777778,1,object_04,1,818,0,7,8,forest_13,1,memory-2step-stake-s,547,1617760,0.0-18.0-0.0-0.50,4407,3,4
51,4,object_08,object_03,888.935,8,2,263.275,0.6666666666666666,2,object_07,5,848,0,7,6,restaurant_16,1,memory-2step-stake-s,548,1625945,0.0-18.0-0.0-0.51,4407,7,8
52,4,object_03,object_08,799.38,8,1,373.665,0.4444444444444444,2,object_07,5,868,0,8,4,restaurant_2,1,memory-2step-stake-s,549,1634019,0.0-18.0-0.0-0.52,4407,8,7
53,2,object_01,object_02,1135.645,3,2,410.255,0.8888888888888888,1,object_04,5,908,0,8,4,forest_17,1,memory-2step-stake-s,550,1642602,0.0-18.0-0.0-0.53,4407,4,3
54,2,object_02,object_01,1178.505,3,1,311.16,0.8888888888888888,1,object_04,1,916,0,8,5,forest_18,1,memory-2step-stake-s,551,1651060,0.0-18.0-0.0-0.54,4407,3,4
55,2,object_01,object_02,1131.13,3,2,437.505,0.7777777777777778,1,object_04,1,923,0,7,6,forest_24,1,memory-2step-stake-s,552,1659533,0.0-18.0-0.0-0.55,4407,4,3
56,2,object_02,object_01,955.36,4,2,385.565,0.8888888888888888,2,object_07,1,931,0,7,8,forest_17,1,memory-2step-stake-s,553,1668056,0.0-18.0-0.0-0.56,4407,3,4
57,3,object_05,object_06,775.825,5,2,643.545,0.8888888888888888,1,object_04,5,971,0,8,8,library_15,1,memory-2step-stake-s,554,1676848,0.0-18.0-0.0-0.57,4407,6,5
58,2,object_01,object_02,1061.84,4,1,327.655,0.8888888888888888,2,object_07,1,979,0,5,8,forest_25,1,memory-2step-stake-s,555,1685312,0.0-18.0-0.0-0.58,4407,4,3
59,1,object_09,object_10,871.675,2,2,439.17,0.6666666666666666,2,object_07,1,985,0,3,6,desert_4,1,memory-2step-stake-s,556,1693676,0.0-18.0-0.0-0.59,4407,1,2
60,4,object_03,object_08,707.54,8,1,422.345,0.8888888888888888,2,object_07,5,1025,0,2,8,restaurant_24,1,memory-2step-stake-s,557,1702225,0.0-18.0-0.0-0.60,4407,8,7
61,1,object_10,object_09,1119.475,1,2,279.94,0.1111111111111111,1,object_04,1,1026,0,1,8,desert_17,1,memory-2step-stake-s,558,1709877,0.0-18.0-0.0-0.61,4407,2,1
62,2,object_02,object_01,973.6,4,2,130.67,0.7777777777777778,2,object_07,1,1033,0,0,7,forest_14,1,memory-2step-stake-s,559,1718043,0.0-18.0-0.0-0.62,4407,3,4
63,1,object_10,object_09,650.63,2,1,267.605,0.5555555555555556,2,object_07,5,1058,0,1,5,desert_8,1,memory-2step-stake-s,560,1726114,0.0-18.0-0.0-0.63,4407,2,1
64,4,object_08,object_03,1157.365,8,2,430.8,0.5555555555555556,2,object_07,1,1063,0,4,5,restaurant_24,1,memory-2step-stake-s,561,1734366,0.0-18.0-0.0-0.64,4407,7,8
65,4,object_08,object_03,581.195,8,2,117.725,0.7777777777777778,2,object_07,1,1070,0,2,7,restaurant_24,1,memory-2step-stake-s,562,1742494,0.0-18.0-0.0-0.65,4407,7,8
66,3,object_05,object_06,929.365,6,1,244.835,0.8888888888888888,2,object_07,5,1110,0,2,8,library_6,1,memory-2step-stake-s,563,1750853,0.0-18.0-0.0-0.66,4407,6,5
67,3,object_05,object_06,578.4,5,2,313.225,0.3333333333333333,1,object_04,5,1125,0,3,7,library_5,1,memory-2step-stake-s,564,1758774,0.0-18.0-0.0-0.67,4407,6,5
68,1,object_09,object_10,592.42,2,2,577.71,0.6666666666666666,2,object_07,1,1131,0,1,6,desert_22,1,memory-2step-stake-s,565,1767271,0.0-18.0-0.0-0.68,4407,1,2
69,2,object_01,object_02,968.79,3,2,529.315,0.1111111111111111,1,object_04,1,1132,0,1,7,forest_7,1,memory-2step-stake-s,566,1775212,0.0-18.0-0.0-0.69,4407,4,3
70,4,object_03,object_08,964.7,7,2,287.37,0.3333333333333333,1,object_04,5,1147,0,3,9,restaurant_27,1,memory-2step-stake-s,567,1783115,0.0-18.0-0.0-0.70,4407,8,7
71,3,object_05,object_06,1148.88,6,1,443.485,1.0,2,object_07,5,1192,0,3,9,library_20,1,memory-2step-stake-s,568,1791817,0.0-18.0-0.0-0.71,4407,6,5
72,4,object_08,object_03,1034.675,7,1,240.665,0.4444444444444444,1,object_04,1,1196,0,4,6,restaurant_18,1,memory-2step-stake-s,569,1799758,0.0-18.0-0.0-0.72,4407,7,8
73,1,object_09,object_10,699.065,2,2,338.66,0.4444444444444444,2,object_07,5,1216,0,7,4,desert_28,1,memory-2step-stake-s,570,1807783,0.0-18.0-0.0-0.73,4407,1,2
74,1,object_09,object_10,1163.845,1,1,332.48,0.5555555555555556,1,object_04,1,1221,0,5,6,desert_11,1,memory-2step-stake-s,571,1815943,0.0-18.0-0.0-0.74,4407,1,2
75,1,object_10,object_09,704.105,1,2,411.09,0.0,1,object_04,1,1221,0,0,7,desert_2,1,memory-2step-stake-s,572,1823614,0.0-18.0-0.0-0.75,4407,2,1
76,4,object_08,object_03,976.6,8,2,442.435,1.0,2,object_07,5,1266,0,2,9,restaurant_13,1,memory-2step-stake-s,573,1832296,0.0-18.0-0.0-0.76,4407,7,8
77,1,object_10,object_09,574.29,2,1,340.715,0.8888888888888888,2,object_07,1,1274,0,1,8,desert_18,1,memory-2step-stake-s,574,1840789,0.0-18.0-0.0-0.77,4407,2,1
78,2,object_01,object_02,941.235,4,1,150.165,0.8888888888888888,2,object_07,1,1282,0,0,8,forest_11,1,memory-2step-stake-s,575,1849090,0.0-18.0-0.0-0.78,4407,4,3
79,1,object_10,object_09,292.36,1,2,106.065,0.0,1,object_04,1,1282,0,0,7,desert_11,1,memory-2step-stake-s,576,1856478,0.0-18.0-0.0-0.79,4407,2,1
80,3,object_06,object_05,889.97,5,1,414.59,0.0,1,object_04,5,1282,0,0,5,library_15,1,memory-2step-stake-s,577,1864178,0.0-18.0-0.0-0.80,4407,5,6
81,2,object_02,object_01,739.25,4,2,363.165,0.7777777777777778,2,object_07,5,1317,0,0,7,forest_1,1,memory-2step-stake-s,578,1872551,0.0-18.0-0.0-0.81,4407,3,4
82,3,object_06,object_05,821.72,6,2,501.88,0.5555555555555556,2,object_07,1,1322,0,1,5,library_24,1,memory-2step-stake-s,579,1880881,0.0-18.0-0.0-0.82,4407,5,6
83,3,object_06,object_05,787.735,6,2,435.43,0.5555555555555556,2,object_07,1,1327,0,5,5,library_18,1,memory-2step-stake-s,580,1889147,0.0-18.0-0.0-0.83,4407,5,6
84,4,object_08,object_03,889.805,8,2,324.745,0.5555555555555556,2,object_07,5,1352,0,5,5,restaurant_22,1,memory-2step-stake-s,581,1897278,0.0-18.0-0.0-0.84,4407,7,8
85,3,object_05,object_06,-1.0,-1,-1,-1.0,0.0,-,,5,1352,0,7,0,library_7,1,memory-2step-stake-s,582,1903838,0.0-18.0-0.0-0.85,4407,6,5
86,3,object_05,object_06,766.865,6,1,471.425,0.1111111111111111,2,object_07,1,1353,0,8,1,library_15,1,memory-2step-stake-s,583,1911712,0.0-18.0-0.0-0.86,4407,6,5
87,2,object_02,object_01,632.285,4,2,161.99,0.0,2,object_07,1,1353,0,8,0,forest_28,1,memory-2step-stake-s,584,1919135,0.0-18.0-0.0-0.87,4407,3,4
88,4,object_03,object_08,707.45,7,2,306.605,0.8888888888888888,1,object_04,5,1393,0,8,1,restaurant_30,1,memory-2step-stake-s,585,1927624,0.0-18.0-0.0-0.88,4407,8,7
89,2,object_01,object_02,736.125,3,2,228.415,1.0,1,object_04,1,1402,0,9,1,forest_28,1,memory-2step-stake-s,586,1936103,0.0-18.0-0.0-0.89,4407,4,3
90,2,object_02,object_01,659.57,3,1,304.195,0.6666666666666666,1,object_04,1,1408,0,6,1,forest_16,1,memory-2step-stake-s,587,1944316,0.0-18.0-0.0-0.90,4407,3,4
91,4,object_08,object_03,527.235,7,1,413.935,0.7777777777777778,1,object_04,5,1443,0,7,4,restaurant_20,1,memory-2step-stake-s,588,1952796,0.0-18.0-0.0-0.91,4407,7,8
92,4,object_08,object_03,648.12,7,1,327.385,0.8888888888888888,1,object_04,1,1451,0,8,5,restaurant_2,1,memory-2step-stake-s,589,1961254,0.0-18.0-0.0-0.92,4407,7,8
93,3,object_05,object_06,682.855,5,2,641.635,0.8888888888888888,1,object_04,5,1491,0,8,7,library_4,1,memory-2step-stake-s,590,1970031,0.0-18.0-0.0-0.93,4407,6,5
94,1,object_10,object_09,712.055,1,2,309.605,1.0,1,object_04,1,1500,0,9,5,desert_30,1,memory-2step-stake-s,591,1978562,0.0-18.0-0.0-0.94,4407,2,1
95,4,object_03,object_08,872.665,7,2,286.625,0.7777777777777778,1,object_04,5,1535,0,7,9,restaurant_8,1,memory-2step-stake-s,592,1986921,0.0-18.0-0.0-0.95,4407,8,7
96,1,object_10,object_09,721.885,1,2,258.295,0.8888888888888888,1,object_04,1,1543,0,8,7,desert_17,1,memory-2step-stake-s,593,1995325,0.0-18.0-0.0-0.96,4407,2,1
97,4,object_08,object_03,652.62,7,1,438.96,0.7777777777777778,1,object_04,5,1578,0,7,4,restaurant_6,1,memory-2step-stake-s,594,2003794,0.0-18.0-0.0-0.97,4407,7,8
98,2,object_02,object_01,908.65,3,1,277.1,0.2222222222222222,1,object_04,1,1580,0,2,5,forest_13,1,memory-2step-stake-s,595,2011557,0.0-18.0-0.0-0.98,4407,3,4
99,3,object_06,object_05,883.93,6,2,295.59,0.5555555555555556,2,object_07,5,1605,0,0,5,library_26,1,memory-2step-stake-s,596,2019676,0.0-18.0-0.0-0.99,4407,5,6
100,2,object_01,object_02,688.25,3,2,287.215,0.1111111111111111,1,object_04,1,1606,0,1,8,forest_28,1,memory-2step-stake-s,597,2027368,0.0-18.0-0.0-0.100,4407,4,3
101,3,object_05,object_06,827.25,6,1,674.7,0.8888888888888888,2,object_07,5,1646,0,2,8,library_7,1,memory-2step-stake-s,598,2036187,0.0-18.0-0.0-0.101,4407,6,5
102,3,object_05,object_06,626.875,6,1,321.33,0.8888888888888888,2,object_07,5,1686,0,0,8,library_20,1,memory-2step-stake-s,599,2044649,0.0-18.0-0.0-0.102,4407,6,5
103,4,object_03,object_08,1031.275,8,1,725.975,0.7777777777777778,2,object_07,5,1721,0,1,7,restaurant_2,1,memory-2step-stake-s,600,2053390,0.0-18.0-0.0-0.103,4407,8,7
104,1,object_10,object_09,767.825,1,2,283.33,0.0,1,object_04,5,1721,0,0,3,desert_17,1,memory-2step-stake-s,601,2060949,0.0-18.0-0.0-0.104,4407,2,1
105,4,object_03,object_08,572.67,8,1,358.755,0.1111111111111111,2,object_07,5,1726,0,3,1,restaurant_16,1,memory-2step-stake-s,602,2068717,0.0-18.0-0.0-0.105,4407,8,7
106,3,object_05,object_06,666.62,5,2,310.22,0.5555555555555556,1,object_04,5,1751,0,5,3,library_32,1,memory-2step-stake-s,603,2076857,0.0-18.0-0.0-0.106,4407,6,5
107,4,object_08,object_03,798.45,7,1,279.76,0.3333333333333333,1,object_04,5,1766,0,3,2,restaurant_20,1,memory-2step-stake-s,604,2084730,0.0-18.0-0.0-0.107,4407,7,8
108,4,object_08,object_03,575.185,8,2,342.33,0.2222222222222222,2,object_07,1,1768,0,5,2,restaurant_15,1,memory-2step-stake-s,605,2092586,0.0-18.0-0.0-0.108,4407,7,8
109,4,object_08,object_03,772.005,8,2,337.295,0.0,2,object_07,5,1768,0,4,0,restaurant_3,1,memory-2step-stake-s,606,2100204,0.0-18.0-0.0-0.109,4407,7,8
110,1,object_10,object_09,574.0,2,1,406.495,0.3333333333333333,2,object_07,1,1771,0,2,3,desert_30,1,memory-2step-stake-s,607,2108206,0.0-18.0-0.0-0.110,4407,2,1
111,1,object_09,object_10,740.77,1,1,356.84,0.4444444444444444,1,object_04,1,1775,0,4,5,desert_26,1,memory-2step-stake-s,608,2116261,0.0-18.0-0.0-0.111,4407,1,2
112,1,object_09,object_10,724.565,2,2,378.075,0.6666666666666666,2,object_07,5,1805,0,3,6,desert_4,1,memory-2step-stake-s,609,2124570,0.0-18.0-0.0-0.112,4407,1,2
113,4,object_08,object_03,942.325,8,2,439.37,0.7777777777777778,2,object_07,1,1812,0,4,7,restaurant_16,1,memory-2step-stake-s,610,2133035,0.0-18.0-0.0-0.113,4407,7,8
114,2,object_02,object_01,709.4,3,1,578.415,0.2222222222222222,1,object_04,1,1814,0,2,7,forest_18,1,memory-2step-stake-s,611,2141102,0.0-18.0-0.0-0.114,4407,3,4
115,2,object_01,object_02,721.575,4,1,800.84,0.6666666666666666,2,object_07,1,1820,0,4,6,forest_7,1,memory-2step-stake-s,612,2149818,0.0-18.0-0.0-0.115,4407,4,3
116,1,object_09,object_10,1062.985,2,2,344.99,0.3333333333333333,2,object_07,1,1823,0,2,3,desert_30,1,memory-2step-stake-s,613,2157746,0.0-18.0-0.0-0.116,4407,1,2
117,4,object_08,object_03,911.015,8,2,291.34,0.1111111111111111,2,object_07,5,1828,0,1,1,restaurant_7,1,memory-2step-stake-s,614,2165439,0.0-18.0-0.0-0.117,4407,7,8
118,3,object_06,object_05,1137.765,5,1,433.86,0.1111111111111111,1,object_04,5,1833,0,1,4,library_26,1,memory-2step-stake-s,615,2173260,0.0-18.0-0.0-0.118,4407,5,6
119,3,object_06,object_05,416.655,6,2,401.61,0.6666666666666666,2,object_07,1,1839,0,2,6,library_8,1,memory-2step-stake-s,616,2181580,0.0-18.0-0.0-0.119,4407,5,6
120,2,object_02,object_01,565.51,4,2,412.235,0.6666666666666666,2,object_07,5,1869,0,1,6,forest_19,1,memory-2step-stake-s,617,2189901,0.0-18.0-0.0-0.120,4407,3,4
121,1,object_09,object_10,871.37,2,2,368.4,0.4444444444444444,2,object_07,5,1889,0,0,4,desert_9,1,memory-2step-stake-s,618,2197984,0.0-18.0-0.0-0.121,4407,1,2
122,4,object_08,object_03,629.825,8,2,730.51,0.4444444444444444,2,object_07,5,1909,0,2,4,restaurant_13,1,memory-2step-stake-s,619,2206432,0.0-18.0-0.0-0.122,4407,7,8
123,4,object_03,object_08,464.92,8,1,463.42,0.7777777777777778,2,object_07,5,1944,0,8,7,restaurant_15,1,memory-2step-stake-s,620,2214896,0.0-18.0-0.0-0.123,4407,8,7
124,2,object_02,object_01,578.4,4,2,306.535,0.5555555555555556,2,object_07,1,1949,0,7,5,forest_22,1,memory-2step-stake-s,621,2223028,0.0-18.0-0.0-0.124,4407,3,4
125,2,object_02,object_01,575.025,4,2,660.68,0.2222222222222222,2,object_07,1,1951,0,8,2,forest_8,1,memory-2step-stake-s,622,2231182,0.0-18.0-0.0-0.125,4407,3,4
126,2,object_02,object_01,778.58,3,1,702.87,0.7777777777777778,1,object_04,1,1958,0,7,0,forest_30,1,memory-2step-stake-s,623,2239902,0.0-18.0-0.0-0.126,4407,3,4
127,4,object_08,object_03,615.79,7,1,330.375,0.5555555555555556,1,object_04,5,1983,0,5,3,restaurant_8,1,memory-2step-stake-s,624,2248047,0.0-18.0-0.0-0.127,4407,7,8
128,1,object_10,object_09,487.59,1,2,434.93,0.6666666666666666,1,object_04,5,2013,0,6,2,desert_20,1,memory-2step-stake-s,626,2311758,0.0-18.0-0.1-0.128,4407,2,1
129,2,object_01,object_02,699.545,3,2,46.11,0.4444444444444444,1,object_04,5,2033,0,4,1,forest_18,1,memory-2step-stake-s,627,2319522,0.0-18.0-0.1-0.129,4407,4,3
130,3,object_06,object_05,1036.16,6,2,335.995,0.0,2,object_07,5,2033,0,3,0,library_30,1,memory-2step-stake-s,628,2327144,0.0-18.0-0.1-0.130,4407,5,6
131,1,object_09,object_10,1172.075,1,1,343.825,0.3333333333333333,1,object_04,1,2036,0,3,1,desert_2,1,memory-2step-stake-s,629,2335081,0.0-18.0-0.1-0.131,4407,1,2
132,3,object_06,object_05,1022.665,6,2,390.27,0.5555555555555556,2,object_07,1,2041,0,5,5,library_21,1,memory-2step-stake-s,630,2343286,0.0-18.0-0.1-0.132,4407,5,6
133,3,object_05,object_06,1143.23,6,1,463.895,0.5555555555555556,2,object_07,5,2066,0,3,5,library_5,1,memory-2step-stake-s,631,2351576,0.0-18.0-0.1-0.133,4407,6,5
134,3,object_06,object_05,694.51,6,2,229.635,0.6666666666666666,2,object_07,5,2096,0,4,6,library_16,1,memory-2step-stake-s,632,2359754,0.0-18.0-0.1-0.134,4407,5,6
135,1,object_10,object_09,821.955,2,1,334.99,0.5555555555555556,2,object_07,1,2101,0,3,5,desert_20,1,memory-2step-stake-s,633,2367917,0.0-18.0-0.1-0.135,4407,2,1
136,3,object_06,object_05,608.795,6,2,427.345,0.2222222222222222,2,object_07,5,2111,0,1,2,library_17,1,memory-2step-stake-s,634,2375816,0.0-18.0-0.1-0.136,4407,5,6
137,1,object_09,object_10,757.87,1,1,271.295,0.0,1,object_04,5,2111,0,0,5,desert_27,1,memory-2step-stake-s,635,2383364,0.0-18.0-0.1-0.137,4407,1,2
138,1,object_10,object_09,890.455,2,1,334.41,0.4444444444444444,2,object_07,1,2115,0,4,4,desert_26,1,memory-2step-stake-s,636,2391399,0.0-18.0-0.1-0.138,4407,2,1
139,3,object_06,object_05,561.47,6,2,321.695,0.5555555555555556,2,object_07,5,2140,0,4,5,library_21,1,memory-2step-stake-s,637,2399555,0.0-18.0-0.1-0.139,4407,5,6
140,3,object_06,object_05,541.085,6,2,479.9,0.5555555555555556,2,object_07,5,2165,0,6,5,library_21,1,memory-2step-stake-s,638,2407843,0.0-18.0-0.1-0.140,4407,5,6
141,1,object_09,object_10,747.91,2,2,270.32,0.3333333333333333,2,object_07,1,2168,0,4,3,desert_28,1,memory-2step-stake-s,639,2415712,0.0-18.0-0.1-0.141,4407,1,2
142,1,object_09,object_10,563.73,1,1,346.51,0.3333333333333333,1,object_04,1,2171,0,3,3,desert_1,1,memory-2step-stake-s,640,2423651,0.0-18.0-0.1-0.142,4407,1,2
143,4,object_03,object_08,1173.555,7,2,473.905,0.3333333333333333,1,object_04,5,2186,0,3,5,restaurant_4,1,memory-2step-stake-s,641,2431737,0.0-18.0-0.1-0.143,4407,8,7
144,4,object_03,object_08,600.46,8,1,520.73,0.4444444444444444,2,object_07,1,2190,0,4,4,restaurant_20,1,memory-2step-stake-s,642,2439957,0.0-18.0-0.1-0.144,4407,8,7
145,3,object_06,object_05,358.25,5,1,374.47,0.0,1,object_04,1,2190,0,0,4,library_15,1,memory-2step-stake-s,643,2447620,0.0-18.0-0.1-0.145,4407,5,6
146,3,object_06,object_05,563.57,6,2,457.575,0.4444444444444444,2,object_07,5,2210,0,3,4,library_6,1,memory-2step-stake-s,644,2455785,0.0-18.0-0.1-0.146,4407,5,6
147,4,object_03,object_08,584.815,8,1,179.365,0.3333333333333333,2,object_07,5,2225,0,4,3,restaurant_3,1,memory-2step-stake-s,645,2463593,0.0-18.0-0.1-0.147,4407,8,7
148,3,object_06,object_05,667.055,6,2,345.21,0.1111111111111111,2,object_07,5,2230,0,6,1,library_23,1,memory-2step-stake-s,646,2471322,0.0-18.0-0.1-0.148,4407,5,6
149,1,object_10,object_09,876.62,1,2,384.38,1.0,1,object_04,1,2239,0,9,2,desert_4,1,memory-2step-stake-s,647,2479929,0.0-18.0-0.1-0.149,4407,2,1
150,2,object_01,object_02,626.47,3,2,124.715,0.8888888888888888,1,object_04,5,2279,0,8,4,forest_13,1,memory-2step-stake-s,648,2488191,0.0-18.0-0.1-0.150,4407,4,3
151,3,object_06,object_05,706.55,5,1,554.28,0.6666666666666666,1,object_04,5,2309,0,6,6,library_26,1,memory-2step-stake-s,649,2496666,0.0-18.0-0.1-0.151,4407,5,6
152,1,object_09,object_10,655.66,2,2,264.945,0.2222222222222222,2,object_07,1,2311,0,6,2,desert_1,1,memory-2step-stake-s,650,2504418,0.0-18.0-0.1-0.152,4407,1,2
153,2,object_01,object_02,684.15,3,2,292.125,0.3333333333333333,1,object_04,1,2314,0,3,1,forest_8,1,memory-2step-stake-s,651,2512301,0.0-18.0-0.1-0.153,4407,4,3
154,1,object_10,object_09,1149.68,1,2,317.96,0.0,1,object_04,1,2314,0,0,4,desert_9,1,memory-2step-stake-s,652,2519856,0.0-18.0-0.1-0.154,4407,2,1
155,4,object_08,object_03,746.095,7,1,312.505,0.0,1,object_04,5,2314,0,0,3,restaurant_15,1,memory-2step-stake-s,653,2527445,0.0-18.0-0.1-0.155,4407,7,8
156,4,object_08,object_03,694.555,8,2,247.99,0.4444444444444444,2,object_07,5,2334,0,4,4,restaurant_7,1,memory-2step-stake-s,654,2535396,0.0-18.0-0.1-0.156,4407,7,8
157,2,object_01,object_02,937.575,4,1,285.455,0.3333333333333333,2,object_07,1,2337,0,6,3,forest_30,1,memory-2step-stake-s,655,2543256,0.0-18.0-0.1-0.157,4407,4,3
158,3,object_06,object_05,565.28,6,2,84.30000002,0.2222222222222222,2,object_07,5,2347,0,4,2,library_23,1,memory-2step-stake-s,656,2550829,0.0-18.0-0.1-0.158,4407,5,6
159,1,object_09,object_10,817.955,1,1,235.345,0.5555555555555556,1,object_04,5,2372,0,5,0,desert_16,1,memory-2step-stake-s,657,2558876,0.0-18.0-0.1-0.159,4407,1,2
160,2,object_01,object_02,802.67,4,1,309.41,0.2222222222222222,2,object_07,1,2374,0,7,2,forest_17,1,memory-2step-stake-s,658,2566668,0.0-18.0-0.1-0.160,4407,4,3
161,4,object_03,object_08,810.65,8,1,306.89,0.4444444444444444,2,object_07,1,2378,0,7,4,restaurant_6,1,memory-2step-stake-s,659,2574712,0.0-18.0-0.1-0.161,4407,8,7
162,3,object_05,object_06,1156.175,6,1,284.665,0.1111111111111111,2,object_07,5,2383,0,8,1,library_18,1,memory-2step-stake-s,660,2582397,0.0-18.0-0.1-0.162,4407,6,5
163,3,object_06,object_05,624.6,5,1,300.905,0.7777777777777778,1,object_04,5,2418,0,7,3,library_30,1,memory-2step-stake-s,661,2590714,0.0-18.0-0.1-0.163,4407,5,6
164,2,object_02,object_01,754.33,4,2,262.51,0.4444444444444444,2,object_07,1,2422,0,9,4,forest_1,1,memory-2step-stake-s,662,2598667,0.0-18.0-0.1-0.164,4407,3,4
165,3,object_06,object_05,1150.975,5,1,369.215,0.8888888888888888,1,object_04,5,2462,0,8,7,library_16,1,memory-2step-stake-s,663,2607183,0.0-18.0-0.1-0.165,4407,5,6
166,2,object_01,object_02,886.4,4,1,384.51,0.8888888888888888,2,object_07,1,2470,0,7,8,forest_22,1,memory-2step-stake-s,664,2615706,0.0-18.0-0.1-0.166,4407,4,3
167,4,object_03,object_08,774.435,7,2,306.955,1.0,1,object_04,5,2515,0,9,7,restaurant_7,1,memory-2step-stake-s,665,2624275,0.0-18.0-0.1-0.167,4407,8,7
168,2,object_01,object_02,537.51,4,1,228.055,0.8888888888888888,2,object_07,1,2523,0,8,8,forest_7,1,memory-2step-stake-s,666,2632641,0.0-18.0-0.1-0.168,4407,4,3
169,2,object_01,object_02,647.905,4,1,364.425,1.0,2,object_07,1,2532,0,9,9,forest_19,1,memory-2step-stake-s,667,2641281,0.0-18.0-0.1-0.169,4407,4,3
170,2,object_01,object_02,615.07,4,1,305.305,0.8888888888888888,2,object_07,1,2540,0,8,8,forest_14,1,memory-2step-stake-s,668,2649728,0.0-18.0-0.1-0.170,4407,4,3
171,2,object_02,object_01,625.09,4,2,300.085,0.8888888888888888,2,object_07,1,2548,0,5,8,forest_22,1,memory-2step-stake-s,669,2658163,0.0-18.0-0.1-0.171,4407,3,4
172,4,object_08,object_03,693.585,7,1,271.41,0.3333333333333333,1,object_04,5,2563,0,3,8,restaurant_18,1,memory-2step-stake-s,670,2666042,0.0-18.0-0.1-0.172,4407,7,8
173,4,object_03,object_08,568.61,7,2,44.585,0.2222222222222222,1,object_04,5,2573,0,2,6,restaurant_27,1,memory-2step-stake-s,671,2673612,0.0-18.0-0.1-0.173,4407,8,7
174,1,object_09,object_10,762.265,2,2,255.85,0.3333333333333333,2,object_07,1,2576,0,0,3,desert_22,1,memory-2step-stake-s,672,2681468,0.0-18.0-0.1-0.174,4407,1,2
175,1,object_09,object_10,892.715,2,2,23.205,0.1111111111111111,2,object_07,5,2581,0,1,1,desert_11,1,memory-2step-stake-s,673,2688876,0.0-18.0-0.1-0.175,4407,1,2
176,2,object_02,object_01,850.765,4,2,103.895,0.3333333333333333,2,object_07,1,2584,0,0,3,forest_22,1,memory-2step-stake-s,674,2696556,0.0-18.0-0.1-0.176,4407,3,4
177,1,object_10,object_09,919.335,1,2,252.215,0.1111111111111111,1,object_04,1,2585,0,1,3,desert_27,1,memory-2step-stake-s,675,2704175,0.0-18.0-0.1-0.177,4407,2,1
178,4,object_08,object_03,486.51,7,1,262.755,0.1111111111111111,1,object_04,5,2590,0,1,1,restaurant_8,1,memory-2step-stake-s,676,2711806,0.0-18.0-0.1-0.178,4407,7,8
179,3,object_06,object_05,640.3,6,2,314.405,0.3333333333333333,2,object_07,5,2605,0,1,3,library_30,1,memory-2step-stake-s,677,2719727,0.0-18.0-0.1-0.179,4407,5,6
180,4,object_03,object_08,760.605,8,1,261.82,0.2222222222222222,2,object_07,5,2615,0,0,2,restaurant_7,1,memory-2step-stake-s,678,2727479,0.0-18.0-0.1-0.180,4407,8,7
181,2,object_02,object_01,791.15,4,2,357.325,0.1111111111111111,2,object_07,1,2616,0,3,1,forest_14,1,memory-2step-stake-s,679,2735215,0.0-18.0-0.1-0.181,4407,3,4
182,2,object_02,object_01,418.92,3,1,426.555,0.4444444444444444,1,object_04,1,2620,0,4,2,forest_21,1,memory-2step-stake-s,680,2743327,0.0-18.0-0.1-0.182,4407,3,4
183,1,object_09,object_10,695.705,1,1,274.02,0.4444444444444444,1,object_04,1,2624,0,4,3,desert_1,1,memory-2step-stake-s,681,2751303,0.0-18.0-0.1-0.183,4407,1,2
184,3,object_05,object_06,570.695,5,2,206.815,0.2222222222222222,1,object_04,1,2626,0,2,3,library_16,1,memory-2step-stake-s,682,2759007,0.0-18.0-0.1-0.184,4407,6,5
185,2,object_01,object_02,455.005,4,1,343.375,0.1111111111111111,2,object_07,1,2627,0,4,1,forest_8,1,memory-2step-stake-s,683,2766721,0.0-18.0-0.1-0.185,4407,4,3
186,3,object_05,object_06,405.94,5,2,340.595,0.1111111111111111,1,object_04,5,2632,0,1,1,library_18,1,memory-2step-stake-s,684,2774435,0.0-18.0-0.1-0.186,4407,6,5
187,3,object_05,object_06,590.145,5,2,297.91,0.4444444444444444,1,object_04,1,2636,0,4,3,library_8,1,memory-2step-stake-s,685,2782453,0.0-18.0-0.1-0.187,4407,6,5
188,1,object_09,object_10,498.425,1,1,429.845,0.6666666666666666,1,object_04,1,2642,0,6,4,desert_23,1,memory-2step-stake-s,686,2790805,0.0-18.0-0.1-0.188,4407,1,2
189,3,object_06,object_05,809.535,6,2,295.93,0.7777777777777778,2,object_07,5,2677,0,7,7,library_32,1,memory-2step-stake-s,687,2799103,0.0-18.0-0.1-0.189,4407,5,6
190,4,object_03,object_08,754.48,8,1,650.68,0.7777777777777778,2,object_07,5,2712,0,6,7,restaurant_6,1,memory-2step-stake-s,688,2807774,0.0-18.0-0.1-0.190,4407,8,7
191,1,object_09,object_10,760.05,2,2,245.27,0.7777777777777778,2,object_07,1,2719,0,6,7,desert_20,1,memory-2step-stake-s,689,2816045,0.0-18.0-0.1-0.191,4407,1,2
192,2,object_01,object_02,471.64,4,1,332.12,0.5555555555555556,2,object_07,1,2724,0,4,5,forest_16,1,memory-2step-stake-s,690,2824178,0.0-18.0-0.1-0.192,4407,4,3
193,2,object_02,object_01,394.255,4,2,330.8,0.4444444444444444,2,object_07,1,2728,0,3,4,forest_16,1,memory-2step-stake-s,691,2832212,0.0-18.0-0.1-0.193,4407,3,4
194,2,object_01,object_02,386.75,4,1,1285.525,0.3333333333333333,2,object_07,5,2743,0,3,3,forest_16,1,memory-2step-stake-s,692,2841117,0.0-18.0-0.1-0.194,4407,4,3
195,3,object_05,object_06,475.26,5,2,437.13,0.3333333333333333,1,object_04,5,2758,0,3,3,library_20,1,memory-2step-stake-s,693,2849146,0.0-18.0-0.1-0.195,4407,6,5
196,4,object_03,object_08,531.725,8,1,295.745,0.3333333333333333,2,object_07,5,2773,0,1,3,restaurant_8,1,memory-2step-stake-s,694,2857055,0.0-18.0-0.1-0.196,4407,8,7
197,4,object_08,object_03,527.71,8,2,354.2,0.1111111111111111,2,object_07,5,2778,0,0,1,restaurant_17,1,memory-2step-stake-s,695,2864788,0.0-18.0-0.1-0.197,4407,7,8
198,2,object_02,object_01,819.03,3,1,382.395,0.3333333333333333,1,object_04,1,2781,0,3,1,forest_25,1,memory-2step-stake-s,696,2872753,0.0-18.0-0.1-0.198,4407,3,4
199,4,object_03,object_08,1002.93,8,1,292.39,0.3333333333333333,2,object_07,5,2796,0,4,3,restaurant_13,1,memory-2step-stake-s,697,2880635,0.0-18.0-0.1-0.199,4407,8,7
200,3,object_05,object_06,662.975,5,2,308.785,0.4444444444444444,1,object_04,5,2816,0,4,2,library_8,1,memory-2step-stake-s,698,2888644,0.0-18.0-0.1-0.200,4407,6,5
201,1,object_09,object_10,754.77,2,2,371.285,0.2222222222222222,2,object_07,1,2818,0,6,2,desert_4,1,memory-2step-stake-s,699,2896513,0.0-18.0-0.1-0.201,4407,1,2
202,1,object_09,object_10,498.635,2,2,424.34,0.0,2,object_07,1,2818,0,7,0,desert_26,1,memory-2step-stake-s,700,2904205,0.0-18.0-0.1-0.202,4407,1,2
203,1,object_09,object_10,594.905,2,2,52.71999998,0.5555555555555556,2,object_07,5,2843,0,5,5,desert_26,1,memory-2step-stake-s,701,2912045,0.0-18.0-0.1-0.203,4407,1,2
204,4,object_08,object_03,655.47,7,1,316.675,0.0,1,object_04,5,2843,0,0,4,restaurant_2,1,memory-2step-stake-s,702,2919653,0.0-18.0-0.1-0.204,4407,7,8
205,2,object_02,object_01,745.925,4,2,377.77,0.2222222222222222,2,object_07,1,2845,0,1,2,forest_11,1,memory-2step-stake-s,703,2927505,0.0-18.0-0.1-0.205,4407,3,4
206,4,object_03,object_08,574.13,8,1,319.765,0.4444444444444444,2,object_07,5,2865,0,2,4,restaurant_17,1,memory-2step-stake-s,704,2935533,0.0-18.0-0.1-0.206,4407,8,7
207,1,object_10,object_09,690.995,1,2,418.15,0.4444444444444444,1,object_04,1,2869,0,4,2,desert_11,1,memory-2step-stake-s,705,2943637,0.0-18.0-0.1-0.207,4407,2,1
208,4,object_03,object_08,810.81,8,1,1145.74,0.4444444444444444,2,object_07,5,2889,0,5,4,restaurant_3,1,memory-2step-stake-s,706,2952475,0.0-18.0-0.1-0.208,4407,8,7
209,3,object_06,object_05,314.405,5,1,501.025,0.6666666666666666,1,object_04,5,2919,0,6,2,library_24,1,memory-2step-stake-s,707,2960892,0.0-18.0-0.1-0.209,4407,5,6
210,1,object_09,object_10,70.71499998,2,2,62.41000001,0.3333333333333333,2,object_07,1,2922,0,6,3,desert_2,1,memory-2step-stake-s,708,2968560,0.0-18.0-0.1-0.210,4407,1,2
211,2,object_01,object_02,424.475,4,1,342.57,0.2222222222222222,2,object_07,1,2924,0,6,2,forest_30,1,memory-2step-stake-s,709,2976381,0.0-18.0-0.1-0.211,4407,4,3
212,3,object_06,object_05,943.625,6,2,110.19,0.0,2,object_07,5,2924,0,5,0,library_4,1,memory-2step-stake-s,710,2983795,0.0-18.0-0.1-0.212,4407,5,6
213,4,object_08,object_03,588.545,7,1,429.275,0.5555555555555556,1,object_04,5,2949,0,5,3,restaurant_27,1,memory-2step-stake-s,711,2992038,0.0-18.0-0.1-0.213,4407,7,8
214,1,object_09,object_10,769.24,1,1,332.085,0.6666666666666666,1,object_04,1,2955,0,6,1,desert_16,1,memory-2step-stake-s,712,3000287,0.0-18.0-0.1-0.214,4407,1,2
215,3,object_06,object_05,670.355,5,1,290.81,0.6666666666666666,1,object_04,1,2961,0,6,0,library_24,1,memory-2step-stake-s,713,3008507,0.0-18.0-0.1-0.215,4407,5,6
216,3,object_05,object_06,903.12,6,1,292.535,0.1111111111111111,2,object_07,5,2966,0,6,1,library_4,1,memory-2step-stake-s,714,3016212,0.0-18.0-0.1-0.216,4407,6,5
217,2,object_02,object_01,1026.56,3,1,266.92,0.4444444444444444,1,object_04,1,2970,0,4,2,forest_7,1,memory-2step-stake-s,715,3024151,0.0-18.0-0.1-0.217,4407,3,4
218,2,object_01,object_02,772.73,3,2,276.21,0.6666666666666666,1,object_04,1,2976,0,6,1,forest_19,1,memory-2step-stake-s,716,3032362,0.0-18.0-0.1-0.218,4407,4,3
219,3,object_06,object_05,606.91,5,1,123.53,0.3333333333333333,1,object_04,5,2991,0,3,2,library_4,1,memory-2step-stake-s,717,3040066,0.0-18.0-0.1-0.219,4407,5,6
220,2,object_01,object_02,474.27,3,2,290.29,0.3333333333333333,1,object_04,1,2994,0,3,3,forest_25,1,memory-2step-stake-s,718,3047949,0.0-18.0-0.1-0.220,4407,4,3
221,3,object_06,object_05,481.53,6,2,263.405,0.5555555555555556,2,object_07,5,3019,0,5,5,library_17,1,memory-2step-stake-s,719,3056031,0.0-18.0-0.1-0.221,4407,5,6
222,3,object_05,object_06,614.92,6,1,342.025,0.5555555555555556,2,object_07,5,3044,0,7,5,library_17,1,memory-2step-stake-s,720,3064180,0.0-18.0-0.1-0.222,4407,6,5
223,4,object_03,object_08,621.51,8,1,95.08999999,0.2222222222222222,2,object_07,5,3054,0,6,2,restaurant_16,1,memory-2step-stake-s,721,3071753,0.0-18.0-0.1-0.223,4407,8,7
224,4,object_08,object_03,698.66,7,1,323.125,0.7777777777777778,1,object_04,5,3089,0,7,0,restaurant_18,1,memory-2step-stake-s,722,3080110,0.0-18.0-0.1-0.224,4407,7,8
225,1,object_09,object_10,911.065,2,2,286.545,0.1111111111111111,2,object_07,1,3090,0,7,1,desert_8,1,memory-2step-stake-s,723,3087786,0.0-18.0-0.1-0.225,4407,1,2
226,3,object_06,object_05,674.535,6,2,303.82,0.1111111111111111,2,object_07,5,3095,0,8,1,library_32,1,memory-2step-stake-s,724,3095468,0.0-18.0-0.1-0.226,4407,5,6
227,1,object_10,object_09,613.47,2,1,521.32,0.0,2,object_07,1,3095,0,8,0,desert_18,1,memory-2step-stake-s,725,3103250,0.0-18.0-0.1-0.227,4407,2,1
228,4,object_03,object_08,635.725,7,2,301.065,0.8888888888888888,1,object_04,5,3135,0,8,1,restaurant_13,1,memory-2step-stake-s,726,3111698,0.0-18.0-0.1-0.228,4407,8,7
229,1,object_09,object_10,877.69,1,1,406.925,0.7777777777777778,1,object_04,1,3142,0,7,3,desert_23,1,memory-2step-stake-s,727,3120118,0.0-18.0-0.1-0.229,4407,1,2
230,2,object_01,object_02,1261.515,3,2,-1.0,0.0,1,object_04,1,3142,0,5,2,forest_21,1,memory-2step-stake-s,728,3128682,0.0-18.0-0.1-0.230,4407,4,3
231,1,object_09,object_10,688.38,1,1,271.485,0.6666666666666666,1,object_04,5,3172,0,6,2,desert_18,1,memory-2step-stake-s,729,3136867,0.0-18.0-0.1-0.231,4407,1,2
232,1,object_10,object_09,778.445,1,2,262.58,0.6666666666666666,1,object_04,1,3178,0,6,3,desert_17,1,memory-2step-stake-s,730,3145042,0.0-18.0-0.1-0.232,4407,2,1
233,2,object_02,object_01,592.145,3,1,279.99,0.7777777777777778,1,object_04,1,3185,0,7,2,forest_17,1,memory-2step-stake-s,731,3153352,0.0-18.0-0.1-0.233,4407,3,4
234,4,object_03,object_08,564.245,7,2,292.325,0.6666666666666666,1,object_04,5,3215,0,6,5,restaurant_4,1,memory-2step-stake-s,732,3161555,0.0-18.0-0.1-0.234,4407,8,7
235,4,object_08,object_03,454.65,7,1,47.44000002,0.4444444444444444,1,object_04,5,3235,0,4,5,restaurant_17,1,memory-2step-stake-s,733,3169329,0.0-18.0-0.1-0.235,4407,7,8
236,4,object_03,object_08,570.25,7,2,4.025000002,0.2222222222222222,1,object_04,5,3245,0,2,9,restaurant_4,1,memory-2step-stake-s,734,3176815,0.0-18.0-0.1-0.236,4407,8,7
237,1,object_09,object_10,880.29,1,1,257.42,0.0,1,object_04,1,3245,0,0,9,desert_2,1,memory-2step-stake-s,735,3184372,0.0-18.0-0.1-0.237,4407,1,2
238,1,object_09,object_10,833.165,2,2,281.175,0.7777777777777778,2,object_07,1,3252,0,1,7,desert_9,1,memory-2step-stake-s,736,3192677,0.0-18.0-0.1-0.238,4407,1,2
239,4,object_03,object_08,445.635,8,1,191.33,0.5555555555555556,2,object_07,5,3277,0,4,5,restaurant_30,1,memory-2step-stake-s,737,3200693,0.0-18.0-0.1-0.239,4407,8,7
240,1,object_10,object_09,588.36,1,2,255.53,0.0,1,object_04,1,3277,0,0,3,desert_18,1,memory-2step-stake-s,738,3208231,0.0-18.0-0.1-0.240,4407,2,1
241,4,object_03,object_08,447.785,8,1,276.585,0.0,2,object_07,1,3277,0,1,0,restaurant_4,1,memory-2step-stake-s,739,3215788,0.0-18.0-0.1-0.241,4407,8,7
242,4,object_03,object_08,683.365,8,1,147.875,0.1111111111111111,2,object_07,5,3282,0,2,1,restaurant_30,1,memory-2step-stake-s,740,3223298,0.0-18.0-0.1-0.242,4407,8,7
243,4,object_08,object_03,585.7,8,2,248.25,0.0,2,object_07,5,3282,0,2,0,restaurant_24,1,memory-2step-stake-s,741,3230804,0.0-18.0-0.1-0.243,4407,7,8
244,2,object_01,object_02,768.975,3,2,407.315,0.1111111111111111,1,object_04,5,3287,0,1,2,forest_21,1,memory-2step-stake-s,742,3238571,0.0-18.0-0.1-0.244,4407,4,3
245,2,object_02,object_01,970.42,4,2,236.255,0.2222222222222222,2,object_07,1,3289,0,4,2,forest_11,1,memory-2step-stake-s,743,3246324,0.0-18.0-0.1-0.245,4407,3,4
246,3,object_06,object_05,678.47,6,2,142.46,0.2222222222222222,2,object_07,5,3299,0,5,2,library_24,1,memory-2step-stake-s,744,3253973,0.0-18.0-0.1-0.246,4407,5,6
247,4,object_08,object_03,609.25,8,2,360.535,0.1111111111111111,2,object_07,5,3304,0,6,1,restaurant_3,1,memory-2step-stake-s,745,3261703,0.0-18.0-0.1-0.247,4407,7,8
248,3,object_06,object_05,656.77,5,1,341.02,0.6666666666666666,1,object_04,5,3334,0,6,1,library_6,1,memory-2step-stake-s,746,3269941,0.0-18.0-0.1-0.248,4407,5,6
249,1,object_10,object_09,823.08,1,2,60.52499998,0.7777777777777778,1,object_04,1,3341,0,7,0,desert_1,1,memory-2step-stake-s,747,3278012,0.0-18.0-0.1-0.249,4407,2,1
250,3,object_05,object_06,608.83,5,2,312.025,0.5555555555555556,1,object_04,1,3346,0,5,1,library_18,1,memory-2step-stake-s,748,3286158,0.0-18.0-0.1-0.250,4407,6,5
251,1,object_10,object_09,606.2,1,2,272.745,0.6666666666666666,1,object_04,1,3352,0,6,2,desert_9,1,memory-2step-stake-s,749,3294342,0.0-18.0-0.1-0.251,4407,2,1
252,1,object_10,object_09,769.635,1,2,7.840000005,0.5555555555555556,1,object_04,1,3357,0,5,3,desert_27,1,memory-2step-stake-s,750,3302159,0.0-18.0-0.1-0.252,4407,2,1
253,2,object_02,object_01,387.375,3,1,1052.99,0.4444444444444444,1,object_04,1,3361,0,4,6,forest_1,1,memory-2step-stake-s,751,3310898,0.0-18.0-0.1-0.253,4407,3,4
254,2,object_02,object_01,1306.795,3,1,1080.67,0.6666666666666666,1,object_04,1,3367,0,6,9,forest_24,1,memory-2step-stake-s,752,3319885,0.0-18.0-0.1-0.254,4407,3,4
255,3,object_05,object_06,580.41,5,2,129.455,0.6666666666666666,1,object_04,5,3397,0,6,8,library_8,1,memory-2step-stake-s,753,3327917,0.0-18.0-0.1-0.255,4407,6,5
