,state1,stim_left,stim_right,rt_1,choice1,response1,rt_2,points,state2,stim_state2,stake,score,practice,rews1,rews2,background,high_arm,trial_type,trial_index,time_elapsed,internal_node_id,subid,stim_left_num,stim_right_num
0,1,object_06,object_05,990.0,2,1,-1.0,0.0,2,object_01,1,0,0,3,8,desert_26,1,memory-2step-stake-s,496,1218626,0.0-18.0-0.0-0.0,4130,2,1
1,3,object_03,object_09,1001.0,6,1,524.0,0.6666666666666666,2,object_01,5,30,0,4,6,library_2,1,memory-2step-stake-s,497,1226960,0.0-18.0-0.0-0.1,4130,6,5
2,3,object_03,object_09,1089.0,5,2,495.0,1.0,1,object_10,5,75,0,9,6,library_17,1,memory-2step-stake-s,498,1235568,0.0-18.0-0.0-0.2,4130,6,5
3,3,object_09,object_03,908.0,6,2,90.0,0.6666666666666666,2,object_01,1,81,0,8,6,library_11,1,memory-2step-stake-s,499,1243472,0.0-18.0-0.0-0.3,4130,5,6
4,4,object_02,object_07,910.0,8,1,1152.0,0.4444444444444444,2,object_01,5,101,0,8,4,restaurant_22,1,memory-2step-stake-s,500,1252235,0.0-18.0-0.0-0.4,4130,8,7
5,4,object_07,object_02,940.0,8,2,433.0,0.5555555555555556,2,object_01,1,106,0,5,5,restaurant_26,1,memory-2step-stake-s,501,1260385,0.0-18.0-0.0-0.5,4130,7,8
6,4,object_02,object_07,581.0,8,1,283.0,0.5555555555555556,2,object_01,5,131,0,9,5,restaurant_15,1,memory-2step-stake-s,502,1268378,0.0-18.0-0.0-0.6,4130,8,7
7,2,object_04,object_08,991.0,4,2,647.0,0.7777777777777778,2,object_01,1,138,0,7,7,forest_23,1,memory-2step-stake-s,503,1276935,0.0-18.0-0.0-0.7,4130,3,4
8,2,object_08,object_04,1069.0,3,2,162.0,0.7777777777777778,1,object_10,1,145,0,7,2,forest_20,1,memory-2step-stake-s,504,1285012,0.0-18.0-0.0-0.8,4130,4,3
9,2,object_04,object_08,1119.0,3,1,629.0,0.3333333333333333,1,object_10,1,148,0,3,1,forest_18,1,memory-2step-stake-s,505,1293150,0.0-18.0-0.0-0.9,4130,3,4
10,3,object_09,object_03,1166.0,6,2,131.0,0.3333333333333333,2,object_01,5,163,0,1,3,library_30,1,memory-2step-stake-s,506,1300790,0.0-18.0-0.0-0.10,4130,5,6
11,1,object_06,object_05,1021.0,2,1,240.0,0.1111111111111111,2,object_01,1,164,0,0,1,desert_10,1,memory-2step-stake-s,507,1308337,0.0-18.0-0.0-0.11,4130,2,1
12,2,object_08,object_04,927.0,4,1,216.0,0.1111111111111111,2,object_01,1,165,0,1,1,forest_25,1,memory-2step-stake-s,508,1315863,0.0-18.0-0.0-0.12,4130,4,3
13,1,object_06,object_05,1322.0,1,2,326.0,0.2222222222222222,1,object_10,1,167,0,2,2,desert_29,1,memory-2step-stake-s,509,1323595,0.0-18.0-0.0-0.13,4130,2,1
14,1,object_06,object_05,1278.0,2,1,291.0,0.3333333333333333,2,object_01,1,170,0,1,3,desert_26,1,memory-2step-stake-s,510,1331397,0.0-18.0-0.0-0.14,4130,2,1
15,3,object_09,object_03,659.0,5,1,226.0,0.0,1,object_10,1,170,0,0,6,library_17,1,memory-2step-stake-s,511,1338828,0.0-18.0-0.0-0.15,4130,5,6
16,1,object_06,object_05,1336.0,2,1,255.0,0.6666666666666666,2,object_01,1,176,0,1,6,desert_14,1,memory-2step-stake-s,512,1346893,0.0-18.0-0.0-0.16,4130,2,1
17,3,object_03,object_09,1029.0,6,1,319.0,0.8888888888888888,2,object_01,1,184,0,1,8,library_18,1,memory-2step-stake-s,513,1355226,0.0-18.0-0.0-0.17,4130,6,5
18,4,object_02,object_07,1111.0,8,1,258.0,0.8888888888888888,2,object_01,5,224,0,0,8,restaurant_8,1,memory-2step-stake-s,514,1363497,0.0-18.0-0.0-0.18,4130,8,7
19,2,object_04,object_08,1348.0,3,1,448.0,0.2222222222222222,1,object_10,1,226,0,2,8,forest_21,1,memory-2step-stake-s,515,1371353,0.0-18.0-0.0-0.19,4130,3,4
20,1,object_05,object_06,1300.0,1,1,265.0,0.6666666666666666,1,object_10,1,232,0,6,9,desert_1,1,memory-2step-stake-s,516,1379428,0.0-18.0-0.0-0.20,4130,1,2
21,3,object_09,object_03,1047.0,5,1,292.0,0.5555555555555556,1,object_10,5,257,0,5,6,library_13,1,memory-2step-stake-s,517,1387431,0.0-18.0-0.0-0.21,4130,5,6
22,1,object_05,object_06,1059.0,1,1,293.0,0.1111111111111111,1,object_10,1,258,0,1,8,desert_14,1,memory-2step-stake-s,518,1395030,0.0-18.0-0.0-0.22,4130,1,2
23,4,object_07,object_02,523.0,8,2,265.0,0.7777777777777778,2,object_01,5,293,0,1,7,restaurant_30,1,memory-2step-stake-s,519,1403207,0.0-18.0-0.0-0.23,4130,7,8
24,3,object_03,object_09,1046.0,5,2,332.0,0.1111111111111111,1,object_10,1,294,0,1,8,library_18,1,memory-2step-stake-s,520,1410848,0.0-18.0-0.0-0.24,4130,6,5
25,3,object_09,object_03,512.0,6,2,253.0,0.8888888888888888,2,object_01,5,334,0,3,8,library_7,1,memory-2step-stake-s,521,1419112,0.0-18.0-0.0-0.25,4130,5,6
26,1,object_06,object_05,1119.0,2,1,295.0,0.7777777777777778,2,object_01,5,369,0,3,7,desert_6,1,memory-2step-stake-s,522,1427318,0.0-18.0-0.0-0.26,4130,2,1
27,4,object_07,object_02,766.0,8,2,252.0,0.5555555555555556,2,object_01,5,394,0,3,5,restaurant_10,1,memory-2step-stake-s,523,1435277,0.0-18.0-0.0-0.27,4130,7,8
28,2,object_04,object_08,1088.0,3,1,287.0,0.4444444444444444,1,object_10,5,414,0,4,2,forest_3,1,memory-2step-stake-s,524,1443174,0.0-18.0-0.0-0.28,4130,3,4
29,4,object_07,object_02,963.0,8,2,312.0,0.2222222222222222,2,object_01,5,424,0,6,2,restaurant_15,1,memory-2step-stake-s,525,1450895,0.0-18.0-0.0-0.29,4130,7,8
30,1,object_06,object_05,909.0,2,1,275.0,0.2222222222222222,2,object_01,1,426,0,5,2,desert_28,1,memory-2step-stake-s,526,1458583,0.0-18.0-0.0-0.30,4130,2,1
31,2,object_04,object_08,-1.0,-1,-1,-1.0,0.0,-,,5,426,0,2,3,forest_3,1,memory-2step-stake-s,527,1465085,0.0-18.0-0.0-0.31,4130,3,4
32,1,object_06,object_05,715.0,2,1,321.0,0.3333333333333333,2,object_01,1,429,0,1,3,desert_1,1,memory-2step-stake-s,528,1472915,0.0-18.0-0.0-0.32,4130,2,1
33,4,object_02,object_07,1083.0,7,2,664.0,0.3333333333333333,1,object_10,5,444,0,3,2,restaurant_19,1,memory-2step-stake-s,529,1481089,0.0-18.0-0.0-0.33,4130,8,7
34,2,object_08,object_04,-1.0,-1,-1,-1.0,0.0,-,,5,444,0,3,5,forest_31,1,memory-2step-stake-s,530,1487594,0.0-18.0-0.0-0.34,4130,4,3
35,4,object_02,object_07,1158.0,7,2,303.0,0.4444444444444444,1,object_10,5,464,0,4,2,restaurant_21,1,memory-2step-stake-s,531,1495506,0.0-18.0-0.0-0.35,4130,8,7
36,2,object_04,object_08,808.0,4,2,264.0,0.0,2,object_01,5,464,0,2,0,forest_31,1,memory-2step-stake-s,532,1502978,0.0-18.0-0.0-0.36,4130,3,4
37,3,object_09,object_03,872.0,6,2,156.0,0.1111111111111111,2,object_01,5,469,0,1,1,library_26,1,memory-2step-stake-s,533,1510441,0.0-18.0-0.0-0.37,4130,5,6
38,3,object_09,object_03,505.0,5,1,276.0,0.2222222222222222,1,object_10,5,479,0,2,4,library_16,1,memory-2step-stake-s,534,1518127,0.0-18.0-0.0-0.38,4130,5,6
39,1,object_06,object_05,1079.0,2,1,313.0,0.4444444444444444,2,object_01,5,499,0,0,4,desert_8,1,memory-2step-stake-s,535,1526051,0.0-18.0-0.0-0.39,4130,2,1
40,4,object_02,object_07,499.0,7,2,403.0,0.1111111111111111,1,object_10,5,504,0,1,3,restaurant_6,1,memory-2step-stake-s,536,1533761,0.0-18.0-0.0-0.40,4130,8,7
41,3,object_09,object_03,1107.0,6,2,295.0,0.5555555555555556,2,object_01,5,529,0,2,5,library_13,1,memory-2step-stake-s,537,1541767,0.0-18.0-0.0-0.41,4130,5,6
42,2,object_08,object_04,731.0,4,1,125.0,0.2222222222222222,2,object_01,1,531,0,1,2,forest_25,1,memory-2step-stake-s,538,1549298,0.0-18.0-0.0-0.42,4130,4,3
43,4,object_02,object_07,388.0,8,1,266.0,0.0,2,object_01,1,531,0,1,0,restaurant_17,1,memory-2step-stake-s,539,1556772,0.0-18.0-0.0-0.43,4130,8,7
44,1,object_06,object_05,650.0,1,2,283.0,0.1111111111111111,1,object_10,5,536,0,1,1,desert_13,1,memory-2step-stake-s,540,1564361,0.0-18.0-0.0-0.44,4130,2,1
45,4,object_07,object_02,498.0,7,1,303.0,0.1111111111111111,1,object_10,5,541,0,1,2,restaurant_32,1,memory-2step-stake-s,541,1571974,0.0-18.0-0.0-0.45,4130,7,8
46,3,object_09,object_03,474.0,5,1,283.0,0.4444444444444444,1,object_10,1,545,0,4,0,library_17,1,memory-2step-stake-s,542,1579868,0.0-18.0-0.0-0.46,4130,5,6
47,4,object_02,object_07,500.0,7,2,275.0,0.7777777777777778,1,object_10,5,580,0,7,0,restaurant_18,1,memory-2step-stake-s,543,1588058,0.0-18.0-0.0-0.47,4130,8,7
48,4,object_02,object_07,415.0,7,2,244.0,0.6666666666666666,1,object_10,5,610,0,6,1,restaurant_10,1,memory-2step-stake-s,544,1596113,0.0-18.0-0.0-0.48,4130,8,7
49,1,object_05,object_06,872.0,1,1,290.0,0.6666666666666666,1,object_10,1,616,0,6,3,desert_3,1,memory-2step-stake-s,545,1604213,0.0-18.0-0.0-0.49,4130,1,2
50,1,object_06,object_05,445.0,1,2,290.0,0.7777777777777778,1,object_10,5,651,0,7,4,desert_21,1,memory-2step-stake-s,546,1612412,0.0-18.0-0.0-0.50,4130,2,1
51,2,object_04,object_08,624.0,4,2,372.0,0.7777777777777778,2,object_01,1,658,0,6,7,forest_27,1,memory-2step-stake-s,547,1620695,0.0-18.0-0.0-0.51,4130,3,4
52,2,object_04,object_08,1062.0,4,2,336.0,0.6666666666666666,2,object_01,1,664,0,5,6,forest_18,1,memory-2step-stake-s,548,1628841,0.0-18.0-0.0-0.52,4130,3,4
53,1,object_05,object_06,419.0,1,1,249.0,0.6666666666666666,1,object_10,5,694,0,6,5,desert_24,1,memory-2step-stake-s,549,1636903,0.0-18.0-0.0-0.53,4130,1,2
54,3,object_09,object_03,861.0,5,1,148.0,0.4444444444444444,1,object_10,5,714,0,4,6,library_5,1,memory-2step-stake-s,550,1644658,0.0-18.0-0.0-0.54,4130,5,6
55,1,object_05,object_06,393.0,1,1,301.0,0.2222222222222222,1,object_10,1,716,0,2,5,desert_13,1,memory-2step-stake-s,551,1652367,0.0-18.0-0.0-0.55,4130,1,2
56,2,object_04,object_08,839.0,4,2,307.0,0.4444444444444444,2,object_01,1,720,0,3,4,forest_18,1,memory-2step-stake-s,552,1660284,0.0-18.0-0.0-0.56,4130,3,4
57,3,object_03,object_09,837.0,6,1,277.0,0.2222222222222222,2,object_01,1,722,0,6,2,library_7,1,memory-2step-stake-s,553,1667970,0.0-18.0-0.0-0.57,4130,6,5
58,2,object_08,object_04,773.0,4,1,283.0,0.1111111111111111,2,object_01,1,723,0,5,1,forest_8,1,memory-2step-stake-s,554,1675559,0.0-18.0-0.0-0.58,4130,4,3
59,2,object_08,object_04,684.0,3,2,39.0,0.8888888888888888,1,object_10,1,731,0,8,1,forest_32,1,memory-2step-stake-s,555,1683609,0.0-18.0-0.0-0.59,4130,4,3
60,4,object_02,object_07,482.0,7,2,325.0,1.0,1,object_10,5,776,0,9,1,restaurant_21,1,memory-2step-stake-s,556,1692046,0.0-18.0-0.0-0.60,4130,8,7
61,3,object_09,object_03,966.0,5,1,297.0,0.6666666666666666,1,object_10,1,782,0,6,3,library_13,1,memory-2step-stake-s,557,1700151,0.0-18.0-0.0-0.61,4130,5,6
62,1,object_06,object_05,1005.0,1,2,324.0,0.7777777777777778,1,object_10,1,789,0,7,6,desert_11,1,memory-2step-stake-s,558,1708387,0.0-18.0-0.0-0.62,4130,2,1
63,1,object_05,object_06,578.0,1,1,556.0,0.8888888888888888,1,object_10,1,797,0,8,3,desert_1,1,memory-2step-stake-s,559,1716955,0.0-18.0-0.0-0.63,4130,1,2
64,3,object_03,object_09,864.0,5,2,285.0,0.8888888888888888,1,object_10,5,837,0,8,2,library_3,1,memory-2step-stake-s,560,1725251,0.0-18.0-0.0-0.64,4130,6,5
65,4,object_07,object_02,763.0,7,1,323.0,0.7777777777777778,1,object_10,5,872,0,7,2,restaurant_11,1,memory-2step-stake-s,561,1733480,0.0-18.0-0.0-0.65,4130,7,8
66,4,object_02,object_07,872.0,7,2,230.0,1.0,1,object_10,5,917,0,9,3,restaurant_30,1,memory-2step-stake-s,562,1741818,0.0-18.0-0.0-0.66,4130,8,7
67,2,object_04,object_08,839.0,4,2,295.0,0.4444444444444444,2,object_01,1,921,0,6,4,forest_12,1,memory-2step-stake-s,563,1749722,0.0-18.0-0.0-0.67,4130,3,4
68,1,object_05,object_06,520.0,1,1,276.0,0.6666666666666666,1,object_10,5,951,0,6,5,desert_3,1,memory-2step-stake-s,564,1757812,0.0-18.0-0.0-0.68,4130,1,2
69,3,object_03,object_09,796.0,5,2,324.0,1.0,1,object_10,5,996,0,9,2,library_11,1,memory-2step-stake-s,565,1766250,0.0-18.0-0.0-0.69,4130,6,5
70,1,object_06,object_05,502.0,1,2,472.0,0.6666666666666666,1,object_10,1,1002,0,6,1,desert_10,1,memory-2step-stake-s,566,1774536,0.0-18.0-0.0-0.70,4130,2,1
71,1,object_06,object_05,593.0,1,2,248.0,1.0,1,object_10,1,1011,0,9,2,desert_13,1,memory-2step-stake-s,567,1782898,0.0-18.0-0.0-0.71,4130,2,1
72,4,object_07,object_02,1064.0,7,1,472.0,0.5555555555555556,1,object_10,5,1036,0,5,2,restaurant_17,1,memory-2step-stake-s,568,1791080,0.0-18.0-0.0-0.72,4130,7,8
73,1,object_06,object_05,731.0,1,2,302.0,0.8888888888888888,1,object_10,1,1044,0,8,5,desert_32,1,memory-2step-stake-s,569,1799398,0.0-18.0-0.0-0.73,4130,2,1
74,4,object_02,object_07,549.0,7,2,237.0,0.7777777777777778,1,object_10,5,1079,0,7,3,restaurant_15,1,memory-2step-stake-s,570,1807549,0.0-18.0-0.0-0.74,4130,8,7
75,1,object_06,object_05,615.0,1,2,378.0,0.8888888888888888,1,object_10,1,1087,0,8,4,desert_28,1,memory-2step-stake-s,571,1815945,0.0-18.0-0.0-0.75,4130,2,1
76,4,object_02,object_07,494.0,7,2,522.0,0.5555555555555556,1,object_10,5,1112,0,5,9,restaurant_19,1,memory-2step-stake-s,572,1824175,0.0-18.0-0.0-0.76,4130,8,7
77,4,object_02,object_07,910.0,7,2,456.0,0.5555555555555556,1,object_10,5,1137,0,5,8,restaurant_32,1,memory-2step-stake-s,573,1832347,0.0-18.0-0.0-0.77,4130,8,7
78,4,object_07,object_02,580.0,7,1,236.0,0.5555555555555556,1,object_10,5,1162,0,5,8,restaurant_13,1,memory-2step-stake-s,574,1840292,0.0-18.0-0.0-0.78,4130,7,8
79,4,object_02,object_07,514.0,7,2,460.0,0.5555555555555556,1,object_10,1,1167,0,5,9,restaurant_18,1,memory-2step-stake-s,575,1848462,0.0-18.0-0.0-0.79,4130,8,7
80,3,object_09,object_03,421.0,5,1,449.0,0.5555555555555556,1,object_10,5,1192,0,5,8,library_28,1,memory-2step-stake-s,576,1856616,0.0-18.0-0.0-0.80,4130,5,6
81,2,object_04,object_08,1197.0,4,2,330.0,0.5555555555555556,2,object_01,1,1197,0,4,5,forest_32,1,memory-2step-stake-s,577,1864654,0.0-18.0-0.0-0.81,4130,3,4
82,4,object_07,object_02,727.0,7,1,240.0,0.0,1,object_10,5,1197,0,0,7,restaurant_16,1,memory-2step-stake-s,578,1872100,0.0-18.0-0.0-0.82,4130,7,8
83,3,object_03,object_09,754.0,5,2,264.0,0.3333333333333333,1,object_10,5,1212,0,3,7,library_3,1,memory-2step-stake-s,579,1879871,0.0-18.0-0.0-0.83,4130,6,5
84,3,object_09,object_03,829.0,6,2,272.0,0.7777777777777778,2,object_01,1,1219,0,2,7,library_25,1,memory-2step-stake-s,580,1888054,0.0-18.0-0.0-0.84,4130,5,6
85,2,object_08,object_04,705.0,4,1,301.0,0.7777777777777778,2,object_01,5,1254,0,4,7,forest_8,1,memory-2step-stake-s,581,1896272,0.0-18.0-0.0-0.85,4130,4,3
86,4,object_07,object_02,846.0,8,2,259.0,0.7777777777777778,2,object_01,5,1289,0,3,7,restaurant_18,1,memory-2step-stake-s,582,1904445,0.0-18.0-0.0-0.86,4130,7,8
87,2,object_08,object_04,823.0,4,1,315.0,0.7777777777777778,2,object_01,1,1296,0,4,7,forest_31,1,memory-2step-stake-s,583,1912671,0.0-18.0-0.0-0.87,4130,4,3
88,4,object_07,object_02,451.0,8,2,222.0,0.5555555555555556,2,object_01,5,1321,0,5,5,restaurant_17,1,memory-2step-stake-s,584,1920615,0.0-18.0-0.0-0.88,4130,7,8
89,3,object_09,object_03,868.0,6,2,144.0,0.5555555555555556,2,object_01,1,1326,0,4,5,library_7,1,memory-2step-stake-s,585,1928467,0.0-18.0-0.0-0.89,4130,5,6
90,1,object_05,object_06,374.0,1,1,295.0,0.5555555555555556,1,object_10,1,1331,0,5,4,desert_29,1,memory-2step-stake-s,586,1936472,0.0-18.0-0.0-0.90,4130,1,2
91,1,object_06,object_05,567.0,1,2,314.0,0.4444444444444444,1,object_10,1,1335,0,4,4,desert_28,1,memory-2step-stake-s,587,1944397,0.0-18.0-0.0-0.91,4130,2,1
92,4,object_02,object_07,1002.0,8,1,656.0,0.3333333333333333,2,object_01,5,1350,0,4,3,restaurant_26,1,memory-2step-stake-s,588,1952563,0.0-18.0-0.0-0.92,4130,8,7
93,1,object_06,object_05,743.0,1,2,671.0,0.1111111111111111,1,object_10,1,1351,0,1,5,desert_1,1,memory-2step-stake-s,589,1960544,0.0-18.0-0.0-0.93,4130,2,1
94,2,object_04,object_08,1096.0,4,2,303.0,1.0,2,object_01,1,1360,0,1,9,forest_16,1,memory-2step-stake-s,590,1968969,0.0-18.0-0.0-0.94,4130,3,4
95,2,object_08,object_04,521.0,4,1,267.0,1.0,2,object_01,5,1405,0,2,9,forest_11,1,memory-2step-stake-s,591,1977344,0.0-18.0-0.0-0.95,4130,4,3
96,1,object_06,object_05,996.0,2,1,296.0,1.0,2,object_01,1,1414,0,0,9,desert_32,1,memory-2step-stake-s,592,1985757,0.0-18.0-0.0-0.96,4130,2,1
97,4,object_07,object_02,801.0,7,1,307.0,0.2222222222222222,1,object_10,5,1424,0,2,8,restaurant_25,1,memory-2step-stake-s,593,1993472,0.0-18.0-0.0-0.97,4130,7,8
98,2,object_04,object_08,667.0,4,2,279.0,0.6666666666666666,2,object_01,1,1430,0,2,6,forest_20,1,memory-2step-stake-s,594,2001563,0.0-18.0-0.0-0.98,4130,3,4
99,3,object_03,object_09,1157.0,6,1,376.0,0.6666666666666666,2,object_01,5,1460,0,3,6,library_26,1,memory-2step-stake-s,595,2009749,0.0-18.0-0.0-0.99,4130,6,5
100,2,object_04,object_08,762.0,4,2,28.0,0.7777777777777778,2,object_01,1,1467,0,1,7,forest_6,1,memory-2step-stake-s,596,2017684,0.0-18.0-0.0-0.100,4130,3,4
101,2,object_04,object_08,698.0,4,2,433.0,0.7777777777777778,2,object_01,1,1474,0,0,7,forest_31,1,memory-2step-stake-s,597,2026027,0.0-18.0-0.0-0.101,4130,3,4
102,3,object_03,object_09,891.0,6,1,285.0,1.0,2,object_01,1,1483,0,3,9,library_5,1,memory-2step-stake-s,598,2034427,0.0-18.0-0.0-0.102,4130,6,5
103,1,object_06,object_05,886.0,2,1,290.0,0.7777777777777778,2,object_01,5,1518,0,2,7,desert_18,1,memory-2step-stake-s,599,2042629,0.0-18.0-0.0-0.103,4130,2,1
104,2,object_04,object_08,936.0,3,1,287.0,0.2222222222222222,1,object_10,1,1520,0,2,2,forest_12,1,memory-2step-stake-s,600,2050324,0.0-18.0-0.0-0.104,4130,3,4
105,1,object_06,object_05,584.0,2,1,297.0,0.4444444444444444,2,object_01,1,1524,0,1,4,desert_32,1,memory-2step-stake-s,601,2058233,0.0-18.0-0.0-0.105,4130,2,1
106,4,object_07,object_02,851.0,8,2,387.0,0.6666666666666666,2,object_01,5,1554,0,1,6,restaurant_22,1,memory-2step-stake-s,602,2066433,0.0-18.0-0.0-0.106,4130,7,8
107,3,object_09,object_03,800.0,6,2,322.0,0.8888888888888888,2,object_01,5,1594,0,4,8,library_16,1,memory-2step-stake-s,603,2074770,0.0-18.0-0.0-0.107,4130,5,6
108,2,object_08,object_04,652.0,4,1,435.0,0.6666666666666666,2,object_01,1,1600,0,5,6,forest_16,1,memory-2step-stake-s,604,2083011,0.0-18.0-0.0-0.108,4130,4,3
109,2,object_04,object_08,469.0,4,2,203.0,0.5555555555555556,2,object_01,1,1605,0,6,5,forest_23,1,memory-2step-stake-s,605,2090926,0.0-18.0-0.0-0.109,4130,3,4
110,1,object_05,object_06,936.0,2,2,421.0,0.3333333333333333,2,object_01,1,1608,0,9,3,desert_6,1,memory-2step-stake-s,606,2098855,0.0-18.0-0.0-0.110,4130,1,2
111,1,object_06,object_05,658.0,1,2,326.0,1.0,1,object_10,1,1617,0,9,0,desert_4,1,memory-2step-stake-s,607,2107304,0.0-18.0-0.0-0.111,4130,2,1
112,2,object_04,object_08,1009.0,4,2,360.0,0.2222222222222222,2,object_01,1,1619,0,6,2,forest_4,1,memory-2step-stake-s,608,2115072,0.0-18.0-0.0-0.112,4130,3,4
113,2,object_08,object_04,728.0,3,2,318.0,0.3333333333333333,1,object_10,1,1622,0,3,0,forest_4,1,memory-2step-stake-s,609,2122896,0.0-18.0-0.0-0.113,4130,4,3
114,4,object_02,object_07,530.0,8,1,251.0,0.1111111111111111,2,object_01,5,1627,0,4,1,restaurant_6,1,memory-2step-stake-s,610,2130456,0.0-18.0-0.0-0.114,4130,8,7
115,3,object_09,object_03,452.0,6,2,252.0,0.0,2,object_01,5,1627,0,3,0,library_28,1,memory-2step-stake-s,611,2137918,0.0-18.0-0.0-0.115,4130,5,6
116,4,object_02,object_07,623.0,7,2,526.0,0.7777777777777778,1,object_10,1,1634,0,7,3,restaurant_19,1,memory-2step-stake-s,612,2146358,0.0-18.0-0.0-0.116,4130,8,7
117,3,object_03,object_09,976.0,5,2,398.0,0.7777777777777778,1,object_10,5,1669,0,7,1,library_18,1,memory-2step-stake-s,613,2154667,0.0-18.0-0.0-0.117,4130,6,5
118,1,object_05,object_06,874.0,1,1,1095.0,0.5555555555555556,1,object_10,1,1674,0,5,1,desert_21,1,memory-2step-stake-s,614,2163475,0.0-18.0-0.0-0.118,4130,1,2
119,1,object_05,object_06,-1.0,-1,-1,-1.0,0.0,-,,5,1674,0,8,5,desert_24,1,memory-2step-stake-s,615,2169981,0.0-18.0-0.0-0.119,4130,1,2
120,4,object_07,object_02,1083.0,7,1,688.0,1.0,1,object_10,5,1719,0,9,4,restaurant_21,1,memory-2step-stake-s,616,2178780,0.0-18.0-0.0-0.120,4130,7,8
121,2,object_04,object_08,811.0,4,2,304.0,0.3333333333333333,2,object_01,1,1722,0,5,3,forest_21,1,memory-2step-stake-s,617,2186591,0.0-18.0-0.0-0.121,4130,3,4
122,3,object_03,object_09,692.0,5,2,302.0,0.4444444444444444,1,object_10,1,1726,0,4,5,library_11,1,memory-2step-stake-s,618,2194505,0.0-18.0-0.0-0.122,4130,6,5
123,3,object_03,object_09,685.0,5,2,353.0,0.6666666666666666,1,object_10,5,1756,0,6,8,library_2,1,memory-2step-stake-s,619,2202671,0.0-18.0-0.0-0.123,4130,6,5
124,2,object_08,object_04,661.0,4,1,295.0,0.8888888888888888,2,object_01,1,1764,0,5,8,forest_27,1,memory-2step-stake-s,620,2210977,0.0-18.0-0.0-0.124,4130,4,3
125,2,object_08,object_04,449.0,4,1,491.0,0.8888888888888888,2,object_01,1,1772,0,9,8,forest_25,1,memory-2step-stake-s,621,2219480,0.0-18.0-0.0-0.125,4130,4,3
126,4,object_02,object_07,851.0,8,1,231.0,1.0,2,object_01,5,1817,0,8,9,restaurant_11,1,memory-2step-stake-s,622,2227823,0.0-18.0-0.0-0.126,4130,8,7
127,2,object_04,object_08,1083.0,3,1,291.0,0.4444444444444444,1,object_10,5,1837,0,4,5,forest_12,1,memory-2step-stake-s,623,2235722,0.0-18.0-0.0-0.127,4130,3,4
128,4,object_07,object_02,697.0,8,2,206.0,0.2222222222222222,2,object_01,5,1847,0,7,2,restaurant_22,1,memory-2step-stake-s,625,2475387,0.0-18.0-0.1-0.128,4130,7,8
129,4,object_07,object_02,651.0,8,2,214.0,0.2222222222222222,2,object_01,5,1857,0,5,2,restaurant_15,1,memory-2step-stake-s,626,2483008,0.0-18.0-0.1-0.129,4130,7,8
130,3,object_03,object_09,491.0,6,1,319.0,0.2222222222222222,2,object_01,5,1867,0,1,2,library_2,1,memory-2step-stake-s,627,2490738,0.0-18.0-0.1-0.130,4130,6,5
131,1,object_06,object_05,531.0,1,2,156.0,0.1111111111111111,1,object_10,1,1868,0,1,0,desert_18,1,memory-2step-stake-s,628,2498201,0.0-18.0-0.1-0.131,4130,2,1
132,2,object_08,object_04,571.0,4,1,287.0,0.1111111111111111,2,object_01,1,1869,0,1,1,forest_23,1,memory-2step-stake-s,629,2505795,0.0-18.0-0.1-0.132,4130,4,3
133,3,object_09,object_03,543.0,5,1,283.0,0.0,1,object_10,1,1869,0,0,1,library_15,1,memory-2step-stake-s,630,2513286,0.0-18.0-0.1-0.133,4130,5,6
134,4,object_07,object_02,412.0,7,1,439.0,0.1111111111111111,1,object_10,5,1874,0,1,0,restaurant_25,1,memory-2step-stake-s,631,2521032,0.0-18.0-0.1-0.134,4130,7,8
135,2,object_08,object_04,769.0,3,2,298.0,0.1111111111111111,1,object_10,1,1875,0,1,0,forest_3,1,memory-2step-stake-s,632,2528644,0.0-18.0-0.1-0.135,4130,4,3
136,1,object_06,object_05,123.0,2,1,435.0,0.1111111111111111,2,object_01,1,1876,0,3,1,desert_4,1,memory-2step-stake-s,633,2536386,0.0-18.0-0.1-0.136,4130,2,1
137,4,object_02,object_07,681.0,8,1,269.0,0.1111111111111111,2,object_01,5,1881,0,2,1,restaurant_13,1,memory-2step-stake-s,634,2543965,0.0-18.0-0.1-0.137,4130,8,7
138,1,object_05,object_06,538.0,1,1,351.0,0.6666666666666666,1,object_10,1,1887,0,6,1,desert_10,1,memory-2step-stake-s,635,2552130,0.0-18.0-0.1-0.138,4130,1,2
139,1,object_05,object_06,454.0,1,1,252.0,0.0,1,object_10,1,1887,0,0,3,desert_8,1,memory-2step-stake-s,636,2559588,0.0-18.0-0.1-0.139,4130,1,2
140,4,object_07,object_02,538.0,7,1,293.0,0.0,1,object_10,5,1887,0,0,3,restaurant_8,1,memory-2step-stake-s,637,2567090,0.0-18.0-0.1-0.140,4130,7,8
141,1,object_05,object_06,536.0,1,1,427.0,0.1111111111111111,1,object_10,1,1888,0,1,4,desert_18,1,memory-2step-stake-s,638,2574826,0.0-18.0-0.1-0.141,4130,1,2
142,3,object_09,object_03,868.0,5,1,702.0,0.1111111111111111,1,object_10,5,1893,0,1,1,library_3,1,memory-2step-stake-s,639,2582833,0.0-18.0-0.1-0.142,4130,5,6
143,1,object_06,object_05,316.0,1,2,467.0,0.1111111111111111,1,object_10,1,1894,0,1,2,desert_21,1,memory-2step-stake-s,640,2590605,0.0-18.0-0.1-0.143,4130,2,1
144,2,object_08,object_04,798.0,4,1,516.0,0.4444444444444444,2,object_01,5,1914,0,0,4,forest_11,1,memory-2step-stake-s,641,2598735,0.0-18.0-0.1-0.144,4130,4,3
145,3,object_03,object_09,802.0,6,1,402.0,0.2222222222222222,2,object_01,5,1924,0,4,2,library_25,1,memory-2step-stake-s,642,2606545,0.0-18.0-0.1-0.145,4130,6,5
146,1,object_06,object_05,611.0,2,1,289.0,0.3333333333333333,2,object_01,1,1927,0,1,3,desert_24,1,memory-2step-stake-s,643,2614341,0.0-18.0-0.1-0.146,4130,2,1
147,2,object_04,object_08,723.0,4,2,285.0,0.6666666666666666,2,object_01,5,1957,0,0,6,forest_25,1,memory-2step-stake-s,644,2622437,0.0-18.0-0.1-0.147,4130,3,4
148,2,object_08,object_04,699.0,3,2,255.0,0.0,1,object_10,1,1957,0,0,5,forest_16,1,memory-2step-stake-s,645,2629897,0.0-18.0-0.1-0.148,4130,4,3
149,1,object_05,object_06,469.0,2,2,393.0,0.6666666666666666,2,object_01,1,1963,0,2,6,desert_29,1,memory-2step-stake-s,646,2638103,0.0-18.0-0.1-0.149,4130,1,2
150,4,object_02,object_07,951.0,7,2,468.0,0.2222222222222222,1,object_10,1,1965,0,2,4,restaurant_16,1,memory-2step-stake-s,647,2645979,0.0-18.0-0.1-0.150,4130,8,7
151,1,object_05,object_06,756.0,2,2,316.0,0.3333333333333333,2,object_01,1,1968,0,0,3,desert_4,1,memory-2step-stake-s,648,2653805,0.0-18.0-0.1-0.151,4130,1,2
152,3,object_09,object_03,329.0,6,2,392.0,0.3333333333333333,2,object_01,1,1971,0,1,3,library_15,1,memory-2step-stake-s,649,2661705,0.0-18.0-0.1-0.152,4130,5,6
153,1,object_06,object_05,740.0,2,1,275.0,0.4444444444444444,2,object_01,1,1975,0,3,4,desert_29,1,memory-2step-stake-s,650,2669593,0.0-18.0-0.1-0.153,4130,2,1
154,3,object_03,object_09,483.0,6,1,399.0,0.8888888888888888,2,object_01,5,2015,0,3,8,library_30,1,memory-2step-stake-s,651,2678008,0.0-18.0-0.1-0.154,4130,6,5
155,3,object_03,object_09,1448.0,6,1,-1.0,0.0,2,object_01,1,2015,0,2,8,library_15,1,memory-2step-stake-s,652,2686517,0.0-18.0-0.1-0.155,4130,6,5
156,2,object_08,object_04,186.0,3,2,299.0,0.3333333333333333,1,object_10,1,2018,0,3,8,forest_12,1,memory-2step-stake-s,653,2694330,0.0-18.0-0.1-0.156,4130,4,3
157,4,object_07,object_02,522.0,7,1,444.0,0.1111111111111111,1,object_10,5,2023,0,1,8,restaurant_16,1,memory-2step-stake-s,654,2702079,0.0-18.0-0.1-0.157,4130,7,8
158,1,object_06,object_05,1453.0,1,2,714.0,0.2222222222222222,1,object_10,1,2025,0,2,7,desert_11,1,memory-2step-stake-s,655,2710203,0.0-18.0-0.1-0.158,4130,2,1
159,2,object_04,object_08,1222.0,4,2,697.0,0.7777777777777778,2,object_01,1,2032,0,3,7,forest_24,1,memory-2step-stake-s,656,2718810,0.0-18.0-0.1-0.159,4130,3,4
160,1,object_06,object_05,653.0,2,1,351.0,0.3333333333333333,2,object_01,1,2035,0,4,3,desert_26,1,memory-2step-stake-s,657,2726667,0.0-18.0-0.1-0.160,4130,2,1
161,3,object_03,object_09,1116.0,6,1,410.0,0.3333333333333333,2,object_01,5,2050,0,4,3,library_26,1,memory-2step-stake-s,658,2734585,0.0-18.0-0.1-0.161,4130,6,5
162,3,object_09,object_03,519.0,5,1,225.0,0.1111111111111111,1,object_10,5,2055,0,1,2,library_16,1,memory-2step-stake-s,659,2742117,0.0-18.0-0.1-0.162,4130,5,6
163,3,object_03,object_09,429.0,6,1,375.0,0.2222222222222222,2,object_01,5,2065,0,3,2,library_16,1,memory-2step-stake-s,660,2749901,0.0-18.0-0.1-0.163,4130,6,5
164,2,object_04,object_08,181.0,4,2,236.0,0.1111111111111111,2,object_01,1,2066,0,7,1,forest_6,1,memory-2step-stake-s,661,2757444,0.0-18.0-0.1-0.164,4130,3,4
165,3,object_09,object_03,362.0,5,1,444.0,0.7777777777777778,1,object_10,5,2101,0,7,1,library_14,1,memory-2step-stake-s,662,2765805,0.0-18.0-0.1-0.165,4130,5,6
166,4,object_02,object_07,658.0,8,1,327.0,0.0,2,object_01,1,2101,0,9,0,restaurant_26,1,memory-2step-stake-s,663,2773337,0.0-18.0-0.1-0.166,4130,8,7
167,2,object_04,object_08,381.0,4,2,399.0,0.2222222222222222,2,object_01,1,2103,0,7,2,forest_16,1,memory-2step-stake-s,664,2781143,0.0-18.0-0.1-0.167,4130,3,4
168,3,object_09,object_03,717.0,5,1,486.0,0.8888888888888888,1,object_10,5,2143,0,8,2,library_26,1,memory-2step-stake-s,665,2789643,0.0-18.0-0.1-0.168,4130,5,6
169,2,object_08,object_04,1059.0,4,1,312.0,0.3333333333333333,2,object_01,1,2146,0,8,3,forest_4,1,memory-2step-stake-s,666,2797463,0.0-18.0-0.1-0.169,4130,4,3
170,2,object_04,object_08,593.0,4,2,305.0,0.6666666666666666,2,object_01,1,2152,0,6,6,forest_20,1,memory-2step-stake-s,667,2805577,0.0-18.0-0.1-0.170,4130,3,4
171,1,object_05,object_06,490.0,1,1,231.0,0.6666666666666666,1,object_10,1,2158,0,6,5,desert_3,1,memory-2step-stake-s,668,2813623,0.0-18.0-0.1-0.171,4130,1,2
172,4,object_02,object_07,653.0,7,2,314.0,0.3333333333333333,1,object_10,5,2173,0,3,5,restaurant_8,1,memory-2step-stake-s,669,2821445,0.0-18.0-0.1-0.172,4130,8,7
173,3,object_09,object_03,594.0,5,1,423.0,0.3333333333333333,1,object_10,5,2188,0,3,6,library_14,1,memory-2step-stake-s,670,2829376,0.0-18.0-0.1-0.173,4130,5,6
174,2,object_08,object_04,88.0,3,2,392.0,0.3333333333333333,1,object_10,1,2191,0,3,5,forest_24,1,memory-2step-stake-s,671,2837276,0.0-18.0-0.1-0.174,4130,4,3
175,2,object_04,object_08,691.0,4,2,313.0,1.0,2,object_01,5,2236,0,3,9,forest_18,1,memory-2step-stake-s,672,2845703,0.0-18.0-0.1-0.175,4130,3,4
176,4,object_07,object_02,450.0,8,2,289.0,0.7777777777777778,2,object_01,1,2243,0,3,7,restaurant_6,1,memory-2step-stake-s,673,2853907,0.0-18.0-0.1-0.176,4130,7,8
177,3,object_03,object_09,803.0,5,2,435.0,0.4444444444444444,1,object_10,5,2263,0,4,3,library_8,1,memory-2step-stake-s,674,2861952,0.0-18.0-0.1-0.177,4130,6,5
178,3,object_09,object_03,476.0,6,2,266.0,0.2222222222222222,2,object_01,5,2273,0,2,2,library_28,1,memory-2step-stake-s,675,2869622,0.0-18.0-0.1-0.178,4130,5,6
179,1,object_05,object_06,905.0,1,1,403.0,0.2222222222222222,1,object_10,5,2283,0,2,2,desert_24,1,memory-2step-stake-s,676,2877436,0.0-18.0-0.1-0.179,4130,1,2
180,1,object_06,object_05,617.0,2,1,330.0,0.4444444444444444,2,object_01,1,2287,0,5,4,desert_8,1,memory-2step-stake-s,677,2885373,0.0-18.0-0.1-0.180,4130,2,1
181,1,object_05,object_06,633.0,2,2,342.0,0.0,2,object_01,1,2287,0,6,0,desert_32,1,memory-2step-stake-s,678,2892919,0.0-18.0-0.1-0.181,4130,1,2
182,2,object_08,object_04,652.0,4,1,348.0,0.1111111111111111,2,object_01,1,2288,0,7,1,forest_24,1,memory-2step-stake-s,679,2900571,0.0-18.0-0.1-0.182,4130,4,3
183,1,object_06,object_05,632.0,1,2,348.0,0.6666666666666666,1,object_10,1,2294,0,6,2,desert_21,1,memory-2step-stake-s,680,2908728,0.0-18.0-0.1-0.183,4130,2,1
184,2,object_04,object_08,857.0,4,2,304.0,0.2222222222222222,2,object_01,1,2296,0,7,2,forest_27,1,memory-2step-stake-s,681,2916441,0.0-18.0-0.1-0.184,4130,3,4
185,1,object_06,object_05,871.0,2,1,373.0,0.2222222222222222,2,object_01,5,2306,0,5,2,desert_6,1,memory-2step-stake-s,682,2924223,0.0-18.0-0.1-0.185,4130,2,1
186,2,object_08,object_04,1167.0,3,2,333.0,0.7777777777777778,1,object_10,5,2341,0,7,4,forest_21,1,memory-2step-stake-s,683,2932469,0.0-18.0-0.1-0.186,4130,4,3
187,1,object_06,object_05,773.0,2,1,317.0,0.1111111111111111,2,object_01,1,2342,0,6,1,desert_8,1,memory-2step-stake-s,684,2940092,0.0-18.0-0.1-0.187,4130,2,1
188,4,object_02,object_07,629.0,7,2,225.0,0.8888888888888888,1,object_10,5,2382,0,8,2,restaurant_32,1,memory-2step-stake-s,685,2948334,0.0-18.0-0.1-0.188,4130,8,7
189,1,object_06,object_05,829.0,2,1,308.0,0.2222222222222222,2,object_01,1,2384,0,8,2,desert_28,1,memory-2step-stake-s,686,2956094,0.0-18.0-0.1-0.189,4130,2,1
190,3,object_03,object_09,1344.0,5,2,412.0,0.8888888888888888,1,object_10,1,2392,0,8,3,library_15,1,memory-2step-stake-s,687,2964725,0.0-18.0-0.1-0.190,4130,6,5
191,3,object_03,object_09,-1.0,-1,-1,-1.0,0.0,-,,5,2392,0,9,3,library_5,1,memory-2step-stake-s,688,2971326,0.0-18.0-0.1-0.191,4130,6,5
192,1,object_05,object_06,24.0,2,2,276.0,0.0,2,object_01,1,2392,0,7,0,desert_14,1,memory-2step-stake-s,689,2978916,0.0-18.0-0.1-0.192,4130,1,2
193,3,object_03,object_09,488.0,5,2,218.0,0.7777777777777778,1,object_10,5,2427,0,7,4,library_2,1,memory-2step-stake-s,690,2987100,0.0-18.0-0.1-0.193,4130,6,5
194,1,object_05,object_06,1002.0,1,1,259.0,0.7777777777777778,1,object_10,5,2462,0,7,1,desert_18,1,memory-2step-stake-s,691,2995270,0.0-18.0-0.1-0.194,4130,1,2
195,3,object_03,object_09,704.0,5,2,386.0,0.8888888888888888,1,object_10,5,2502,0,8,3,library_8,1,memory-2step-stake-s,692,3003664,0.0-18.0-0.1-0.195,4130,6,5
196,2,object_08,object_04,1259.0,3,2,415.0,0.5555555555555556,1,object_10,1,2507,0,5,2,forest_8,1,memory-2step-stake-s,693,3011788,0.0-18.0-0.1-0.196,4130,4,3
197,4,object_02,object_07,537.0,7,2,241.0,0.2222222222222222,1,object_10,1,2509,0,2,3,restaurant_11,1,memory-2step-stake-s,694,3019441,0.0-18.0-0.1-0.197,4130,8,7
198,1,object_06,object_05,1214.0,2,1,333.0,0.4444444444444444,2,object_01,5,2529,0,5,4,desert_3,1,memory-2step-stake-s,695,3027387,0.0-18.0-0.1-0.198,4130,2,1
199,4,object_02,object_07,482.0,8,1,176.0,0.4444444444444444,2,object_01,5,2549,0,8,4,restaurant_17,1,memory-2step-stake-s,696,3035170,0.0-18.0-0.1-0.199,4130,8,7
200,2,object_08,object_04,873.0,4,1,308.0,0.7777777777777778,2,object_01,5,2584,0,8,7,forest_3,1,memory-2step-stake-s,697,3043386,0.0-18.0-0.1-0.200,4130,4,3
201,4,object_02,object_07,517.0,8,1,302.0,0.5555555555555556,2,object_01,5,2609,0,8,5,restaurant_11,1,memory-2step-stake-s,698,3051402,0.0-18.0-0.1-0.201,4130,8,7
202,3,object_09,object_03,1272.0,6,2,315.0,0.6666666666666666,2,object_01,5,2639,0,7,6,library_28,1,memory-2step-stake-s,699,3059529,0.0-18.0-0.1-0.202,4130,5,6
203,1,object_06,object_05,643.0,1,2,407.0,0.6666666666666666,1,object_10,1,2645,0,6,9,desert_11,1,memory-2step-stake-s,700,3067753,0.0-18.0-0.1-0.203,4130,2,1
204,4,object_07,object_02,566.0,7,1,268.0,0.6666666666666666,1,object_10,5,2675,0,6,7,restaurant_6,1,memory-2step-stake-s,701,3075831,0.0-18.0-0.1-0.204,4130,7,8
205,2,object_04,object_08,448.0,4,2,319.0,0.8888888888888888,2,object_01,1,2683,0,9,8,forest_11,1,memory-2step-stake-s,702,3084162,0.0-18.0-0.1-0.205,4130,3,4
206,3,object_09,object_03,1179.0,5,1,444.0,0.8888888888888888,1,object_10,5,2723,0,8,7,library_14,1,memory-2step-stake-s,703,3092619,0.0-18.0-0.1-0.206,4130,5,6
207,1,object_06,object_05,928.0,1,2,298.0,0.7777777777777778,1,object_10,1,2730,0,7,7,desert_4,1,memory-2step-stake-s,704,3100828,0.0-18.0-0.1-0.207,4130,2,1
208,4,object_07,object_02,603.0,8,2,100.0,1.0,2,object_01,5,2775,0,4,9,restaurant_10,1,memory-2step-stake-s,705,3109044,0.0-18.0-0.1-0.208,4130,7,8
209,2,object_08,object_04,613.0,4,1,294.0,0.8888888888888888,2,object_01,5,2815,0,5,8,forest_11,1,memory-2step-stake-s,706,3117348,0.0-18.0-0.1-0.209,4130,4,3
210,3,object_03,object_09,609.0,5,2,501.0,0.6666666666666666,1,object_10,1,2821,0,6,6,library_17,1,memory-2step-stake-s,707,3125660,0.0-18.0-0.1-0.210,4130,6,5
211,2,object_04,object_08,449.0,4,2,299.0,0.7777777777777778,2,object_01,1,2828,0,5,7,forest_27,1,memory-2step-stake-s,708,3133874,0.0-18.0-0.1-0.211,4130,3,4
212,3,object_09,object_03,656.0,6,2,272.0,0.8888888888888888,2,object_01,5,2868,0,3,8,library_25,1,memory-2step-stake-s,709,3142157,0.0-18.0-0.1-0.212,4130,5,6
213,4,object_07,object_02,483.0,8,2,460.0,0.7777777777777778,2,object_01,5,2903,0,0,7,restaurant_30,1,memory-2step-stake-s,710,3150531,0.0-18.0-0.1-0.213,4130,7,8
214,4,object_07,object_02,445.0,8,2,373.0,0.6666666666666666,2,object_01,5,2933,0,3,6,restaurant_18,1,memory-2step-stake-s,711,3158716,0.0-18.0-0.1-0.214,4130,7,8
215,1,object_05,object_06,840.0,2,2,277.0,0.5555555555555556,2,object_01,1,2938,0,0,5,desert_10,1,memory-2step-stake-s,712,3166702,0.0-18.0-0.1-0.215,4130,1,2
216,4,object_02,object_07,454.0,8,1,293.0,0.5555555555555556,2,object_01,5,2963,0,1,5,restaurant_16,1,memory-2step-stake-s,713,3174706,0.0-18.0-0.1-0.216,4130,8,7
217,2,object_04,object_08,592.0,4,2,392.0,0.7777777777777778,2,object_01,5,2998,0,1,7,forest_24,1,memory-2step-stake-s,714,3183009,0.0-18.0-0.1-0.217,4130,3,4
218,4,object_02,object_07,408.0,8,1,284.0,0.7777777777777778,2,object_01,5,3033,0,1,7,restaurant_8,1,memory-2step-stake-s,715,3191202,0.0-18.0-0.1-0.218,4130,8,7
219,3,object_03,object_09,424.0,6,1,350.0,0.7777777777777778,2,object_01,5,3068,0,1,7,library_5,1,memory-2step-stake-s,716,3199464,0.0-18.0-0.1-0.219,4130,6,5
220,2,object_08,object_04,697.0,3,2,44.0,0.0,1,object_10,1,3068,0,0,6,forest_4,1,memory-2step-stake-s,717,3206717,0.0-18.0-0.1-0.220,4130,4,3
221,3,object_09,object_03,631.0,5,1,345.0,0.0,1,object_10,1,3068,0,0,6,library_8,1,memory-2step-stake-s,718,3214270,0.0-18.0-0.1-0.221,4130,5,6
222,2,object_08,object_04,673.0,4,1,341.0,0.6666666666666666,2,object_01,1,3074,0,4,6,forest_6,1,memory-2step-stake-s,719,3222424,0.0-18.0-0.1-0.222,4130,4,3
223,4,object_07,object_02,470.0,8,2,379.0,0.5555555555555556,2,object_01,5,3099,0,6,5,restaurant_13,1,memory-2step-stake-s,720,3230513,0.0-18.0-0.1-0.223,4130,7,8
224,1,object_05,object_06,617.0,1,1,339.0,0.8888888888888888,1,object_10,1,3107,0,8,5,desert_26,1,memory-2step-stake-s,721,3238869,0.0-18.0-0.1-0.224,4130,1,2
225,4,object_02,object_07,411.0,7,2,327.0,0.8888888888888888,1,object_10,5,3147,0,8,3,restaurant_22,1,memory-2step-stake-s,722,3247208,0.0-18.0-0.1-0.225,4130,8,7
226,3,object_03,object_09,449.0,5,2,105.0,0.7777777777777778,1,object_10,5,3182,0,7,5,library_25,1,memory-2step-stake-s,723,3255228,0.0-18.0-0.1-0.226,4130,6,5
227,2,object_04,object_08,671.0,3,1,247.0,0.6666666666666666,1,object_10,1,3188,0,6,5,forest_6,1,memory-2step-stake-s,724,3263284,0.0-18.0-0.1-0.227,4130,3,4
228,3,object_09,object_03,508.0,6,2,346.0,0.6666666666666666,2,object_01,1,3194,0,5,6,library_13,1,memory-2step-stake-s,725,3271441,0.0-18.0-0.1-0.228,4130,5,6
229,2,object_08,object_04,281.0,4,1,305.0,0.6666666666666666,2,object_01,1,3200,0,8,6,forest_32,1,memory-2step-stake-s,726,3279554,0.0-18.0-0.1-0.229,4130,4,3
230,3,object_09,object_03,539.0,6,2,289.0,0.7777777777777778,2,object_01,5,3235,0,4,7,library_30,1,memory-2step-stake-s,727,3287749,0.0-18.0-0.1-0.230,4130,5,6
231,1,object_06,object_05,650.0,2,1,582.0,0.6666666666666666,2,object_01,1,3241,0,6,6,desert_14,1,memory-2step-stake-s,728,3296143,0.0-18.0-0.1-0.231,4130,2,1
232,1,object_06,object_05,732.0,2,1,251.0,1.0,2,object_01,1,3250,0,5,9,desert_11,1,memory-2step-stake-s,729,3304506,0.0-18.0-0.1-0.232,4130,2,1
233,4,object_02,object_07,485.0,8,1,384.0,0.6666666666666666,2,object_01,5,3280,0,6,6,restaurant_32,1,memory-2step-stake-s,730,3312700,0.0-18.0-0.1-0.233,4130,8,7
234,4,object_02,object_07,566.0,8,1,373.0,0.6666666666666666,2,object_01,5,3310,0,4,6,restaurant_30,1,memory-2step-stake-s,731,3320882,0.0-18.0-0.1-0.234,4130,8,7
235,2,object_08,object_04,537.0,4,1,312.0,0.6666666666666666,2,object_01,1,3316,0,0,6,forest_23,1,memory-2step-stake-s,732,3329002,0.0-18.0-0.1-0.235,4130,4,3
236,4,object_07,object_02,545.0,8,2,314.0,0.7777777777777778,2,object_01,5,3351,0,1,7,restaurant_26,1,memory-2step-stake-s,733,3337229,0.0-18.0-0.1-0.236,4130,7,8
237,1,object_05,object_06,530.0,1,1,2.0,0.1111111111111111,1,object_10,1,3352,0,1,4,desert_6,1,memory-2step-stake-s,734,3344537,0.0-18.0-0.1-0.237,4130,1,2
238,1,object_06,object_05,684.0,2,1,345.0,0.5555555555555556,2,object_01,1,3357,0,1,5,desert_13,1,memory-2step-stake-s,735,3352590,0.0-18.0-0.1-0.238,4130,2,1
239,4,object_02,object_07,474.0,8,1,-1.0,0.0,2,object_01,5,3357,0,3,9,restaurant_21,1,memory-2step-stake-s,736,3361098,0.0-18.0-0.1-0.239,4130,8,7
240,4,object_02,object_07,437.0,8,1,310.0,0.7777777777777778,2,object_01,5,3392,0,3,7,restaurant_25,1,memory-2step-stake-s,737,3369322,0.0-18.0-0.1-0.240,4130,8,7
241,3,object_03,object_09,475.0,6,1,233.0,0.7777777777777778,2,object_01,5,3427,0,2,7,library_8,1,memory-2step-stake-s,738,3377469,0.0-18.0-0.1-0.241,4130,6,5
242,2,object_04,object_08,727.0,3,1,482.0,0.1111111111111111,1,object_10,1,3428,0,1,4,forest_21,1,memory-2step-stake-s,739,3385297,0.0-18.0-0.1-0.242,4130,3,4
243,4,object_02,object_07,490.0,8,1,295.0,0.3333333333333333,2,object_01,5,3443,0,1,3,restaurant_19,1,memory-2step-stake-s,740,3393209,0.0-18.0-0.1-0.243,4130,8,7
244,2,object_04,object_08,932.0,3,1,344.0,0.2222222222222222,1,object_10,1,3445,0,2,1,forest_20,1,memory-2step-stake-s,741,3401055,0.0-18.0-0.1-0.244,4130,3,4
245,3,object_09,object_03,410.0,6,2,182.0,0.1111111111111111,2,object_01,5,3450,0,1,1,library_11,1,memory-2step-stake-s,742,3408660,0.0-18.0-0.1-0.245,4130,5,6
246,2,object_08,object_04,1036.0,3,2,374.0,0.1111111111111111,1,object_10,1,3451,0,1,3,forest_8,1,memory-2step-stake-s,743,3416374,0.0-18.0-0.1-0.246,4130,4,3
247,3,object_09,object_03,492.0,6,2,286.0,0.5555555555555556,2,object_01,5,3476,0,1,5,library_30,1,memory-2step-stake-s,744,3424369,0.0-18.0-0.1-0.247,4130,5,6
248,4,object_02,object_07,501.0,8,1,1.0,0.3333333333333333,2,object_01,5,3491,0,1,3,restaurant_10,1,memory-2step-stake-s,745,3431880,0.0-18.0-0.1-0.248,4130,8,7
249,4,object_07,object_02,451.0,8,2,263.0,0.1111111111111111,2,object_01,5,3496,0,4,1,restaurant_13,1,memory-2step-stake-s,746,3439453,0.0-18.0-0.1-0.249,4130,7,8
250,4,object_02,object_07,393.0,7,2,165.0,0.0,1,object_10,1,3496,0,0,2,restaurant_25,1,memory-2step-stake-s,747,3446827,0.0-18.0-0.1-0.250,4130,8,7
251,3,object_09,object_03,663.0,5,1,269.0,0.3333333333333333,1,object_10,1,3499,0,3,5,library_18,1,memory-2step-stake-s,748,3454606,0.0-18.0-0.1-0.251,4130,5,6
252,3,object_03,object_09,590.0,6,1,257.0,0.7777777777777778,2,object_01,5,3534,0,3,7,library_7,1,memory-2step-stake-s,749,3462771,0.0-18.0-0.1-0.252,4130,6,5
253,2,object_08,object_04,579.0,4,1,441.0,0.6666666666666666,2,object_01,1,3540,0,5,6,forest_32,1,memory-2step-stake-s,750,3471024,0.0-18.0-0.1-0.253,4130,4,3
254,3,object_09,object_03,421.0,6,2,400.0,0.6666666666666666,2,object_01,5,3570,0,9,6,library_3,1,memory-2step-stake-s,751,3479233,0.0-18.0-0.1-0.254,4130,5,6
255,3,object_03,object_09,783.0,6,1,400.0,0.7777777777777778,2,object_01,5,3605,0,8,7,library_14,1,memory-2step-stake-s,752,3487546,0.0-18.0-0.1-0.255,4130,6,5
