,state1,stim_left,stim_right,rt_1,choice1,response1,rt_2,points,state2,stim_state2,stake,score,practice,rews1,rews2,background,high_arm,trial_type,trial_index,time_elapsed,internal_node_id,subid,stim_left_num,stim_right_num
0,1,object_03,object_09,-1.0,-1,-1,-1.0,0.0,-,,1,0,0,2,1,desert_15,1,memory-2step-stake-s,2883,10658549,0.0-18.0-0.0-0.0,4452,1,2
1,3,object_06,object_02,524.0,6,1,-1.0,0.0,2,object_10,1,0,0,3,4,library_22,1,memory-2step-stake-s,2884,10667075,0.0-18.0-0.0-0.1,4452,6,5
2,2,object_07,object_01,505.0,4,2,393.0,0.3333333333333333,2,object_10,1,3,0,0,3,forest_4,1,memory-2step-stake-s,2885,10674999,0.0-18.0-0.0-0.2,4452,3,4
3,2,object_01,object_07,681.0,3,2,767.0,0.1111111111111111,1,object_04,1,4,0,1,3,forest_1,1,memory-2step-stake-s,2886,10683088,0.0-18.0-0.0-0.3,4452,4,3
4,4,object_05,object_08,755.0,8,2,1077.0,0.5555555555555556,2,object_10,5,29,0,4,5,restaurant_2,1,memory-2step-stake-s,2887,10691900,0.0-18.0-0.0-0.4,4452,7,8
5,4,object_05,object_08,550.0,7,1,864.0,0.4444444444444444,1,object_04,5,49,0,4,4,restaurant_4,1,memory-2step-stake-s,2888,10700401,0.0-18.0-0.0-0.5,4452,7,8
6,4,object_08,object_05,1000.0,7,2,649.0,0.4444444444444444,1,object_04,5,69,0,4,4,restaurant_16,1,memory-2step-stake-s,2889,10708675,0.0-18.0-0.0-0.6,4452,8,7
7,3,object_02,object_06,577.0,6,2,657.0,0.6666666666666666,2,object_10,5,99,0,1,6,library_12,1,memory-2step-stake-s,2890,10717166,0.0-18.0-0.0-0.7,4452,5,6
8,2,object_07,object_01,835.0,3,1,631.0,0.0,1,object_04,5,99,0,0,9,forest_18,1,memory-2step-stake-s,2891,10725020,0.0-18.0-0.0-0.8,4452,3,4
9,4,object_08,object_05,478.0,7,2,512.0,0.2222222222222222,1,object_04,1,101,0,2,7,restaurant_2,1,memory-2step-stake-s,2892,10732956,0.0-18.0-0.0-0.9,4452,8,7
10,3,object_06,object_02,669.0,6,1,588.0,0.6666666666666666,2,object_10,5,131,0,0,6,library_3,1,memory-2step-stake-s,2893,10741375,0.0-18.0-0.0-0.10,4452,6,5
11,3,object_06,object_02,1115.0,6,1,555.0,0.8888888888888888,2,object_10,1,139,0,3,8,library_4,1,memory-2step-stake-s,2894,10749970,0.0-18.0-0.0-0.11,4452,6,5
12,3,object_02,object_06,694.0,6,2,911.0,0.8888888888888888,2,object_10,5,179,0,4,8,library_12,1,memory-2step-stake-s,2895,10758918,0.0-18.0-0.0-0.12,4452,5,6
13,4,object_05,object_08,1290.0,8,2,669.0,0.6666666666666666,2,object_10,5,209,0,6,6,restaurant_31,1,memory-2step-stake-s,2896,10767415,0.0-18.0-0.0-0.13,4452,7,8
14,3,object_02,object_06,757.0,6,2,393.0,0.5555555555555556,2,object_10,5,234,0,5,5,library_14,1,memory-2step-stake-s,2897,10775538,0.0-18.0-0.0-0.14,4452,5,6
15,2,object_07,object_01,1298.0,3,1,505.0,0.3333333333333333,1,object_04,5,249,0,3,7,forest_23,1,memory-2step-stake-s,2898,10783564,0.0-18.0-0.0-0.15,4452,3,4
16,1,object_03,object_09,585.0,2,2,475.0,0.5555555555555556,2,object_10,1,254,0,5,5,desert_2,1,memory-2step-stake-s,2899,10791770,0.0-18.0-0.0-0.16,4452,1,2
17,3,object_06,object_02,734.0,6,1,433.0,0.5555555555555556,2,object_10,5,279,0,5,5,library_14,1,memory-2step-stake-s,2900,10799938,0.0-18.0-0.0-0.17,4452,6,5
18,1,object_03,object_09,673.0,2,2,472.0,0.6666666666666666,2,object_10,1,285,0,4,6,desert_2,1,memory-2step-stake-s,2901,10808242,0.0-18.0-0.0-0.18,4452,1,2
19,2,object_01,object_07,613.0,3,2,567.0,0.6666666666666666,1,object_04,5,315,0,6,8,forest_30,1,memory-2step-stake-s,2902,10816659,0.0-18.0-0.0-0.19,4452,4,3
20,3,object_02,object_06,698.0,6,2,380.0,0.8888888888888888,2,object_10,5,355,0,5,8,library_32,1,memory-2step-stake-s,2903,10825092,0.0-18.0-0.0-0.20,4452,5,6
21,4,object_08,object_05,1099.0,8,1,492.0,0.8888888888888888,2,object_10,5,395,0,8,8,restaurant_5,1,memory-2step-stake-s,2904,10833625,0.0-18.0-0.0-0.21,4452,8,7
22,4,object_05,object_08,1137.0,8,2,555.0,0.8888888888888888,2,object_10,5,435,0,6,8,restaurant_19,1,memory-2step-stake-s,2905,10842221,0.0-18.0-0.0-0.22,4452,7,8
23,2,object_07,object_01,571.0,3,1,545.0,0.6666666666666666,1,object_04,1,441,0,6,9,forest_32,1,memory-2step-stake-s,2906,10850605,0.0-18.0-0.0-0.23,4452,3,4
24,2,object_07,object_01,599.0,3,1,-1.0,0.0,1,object_04,1,441,0,8,7,forest_18,1,memory-2step-stake-s,2907,10859124,0.0-18.0-0.0-0.24,4452,3,4
25,4,object_05,object_08,-1.0,-1,-1,-1.0,0.0,-,,5,441,0,7,7,restaurant_21,1,memory-2step-stake-s,2908,10865642,0.0-18.0-0.0-0.25,4452,7,8
26,3,object_06,object_02,551.0,6,1,481.0,0.5555555555555556,2,object_10,5,466,0,7,5,library_30,1,memory-2step-stake-s,2909,10873852,0.0-18.0-0.0-0.26,4452,6,5
27,2,object_07,object_01,719.0,3,1,674.0,0.8888888888888888,1,object_04,1,474,0,8,4,forest_18,1,memory-2step-stake-s,2910,10882566,0.0-18.0-0.0-0.27,4452,3,4
28,2,object_01,object_07,678.0,3,2,715.0,1.0,1,object_04,1,483,0,9,4,forest_16,1,memory-2step-stake-s,2911,10891419,0.0-18.0-0.0-0.28,4452,4,3
29,3,object_02,object_06,460.0,6,2,1056.0,0.4444444444444444,2,object_10,5,503,0,9,4,library_2,1,memory-2step-stake-s,2912,10900107,0.0-18.0-0.0-0.29,4452,5,6
30,1,object_09,object_03,1023.0,1,2,457.0,0.7777777777777778,1,object_04,1,510,0,7,5,desert_26,1,memory-2step-stake-s,2913,10908501,0.0-18.0-0.0-0.30,4452,2,1
31,3,object_06,object_02,712.0,6,1,583.0,0.8888888888888888,2,object_10,1,518,0,9,8,library_16,1,memory-2step-stake-s,2914,10917123,0.0-18.0-0.0-0.31,4452,6,5
32,4,object_08,object_05,727.0,8,1,503.0,0.7777777777777778,2,object_10,1,525,0,6,7,restaurant_29,1,memory-2step-stake-s,2915,10925556,0.0-18.0-0.0-0.32,4452,8,7
33,2,object_07,object_01,-1.0,-1,-1,-1.0,0.0,-,,1,525,0,8,9,forest_16,1,memory-2step-stake-s,2916,10932071,0.0-18.0-0.0-0.33,4452,3,4
34,4,object_08,object_05,1159.0,8,1,501.0,0.7777777777777778,2,object_10,5,560,0,7,7,restaurant_21,1,memory-2step-stake-s,2917,10940506,0.0-18.0-0.0-0.34,4452,8,7
35,4,object_08,object_05,821.0,8,1,518.0,0.7777777777777778,2,object_10,5,595,0,7,7,restaurant_4,1,memory-2step-stake-s,2918,10948962,0.0-18.0-0.0-0.35,4452,8,7
36,1,object_09,object_03,812.0,1,2,795.0,0.8888888888888888,1,object_04,1,603,0,8,8,desert_24,1,memory-2step-stake-s,2919,10957796,0.0-18.0-0.0-0.36,4452,2,1
37,3,object_02,object_06,931.0,6,2,638.0,1.0,2,object_10,5,648,0,9,9,library_4,1,memory-2step-stake-s,2920,10966571,0.0-18.0-0.0-0.37,4452,5,6
38,3,object_06,object_02,543.0,6,1,754.0,0.7777777777777778,2,object_10,5,683,0,8,7,library_22,1,memory-2step-stake-s,2921,10975265,0.0-18.0-0.0-0.38,4452,6,5
39,2,object_07,object_01,519.0,3,1,695.0,0.6666666666666666,1,object_04,5,713,0,6,7,forest_1,1,memory-2step-stake-s,2922,10983796,0.0-18.0-0.0-0.39,4452,3,4
40,3,object_06,object_02,600.0,6,1,706.0,0.7777777777777778,2,object_10,5,748,0,6,7,library_27,1,memory-2step-stake-s,2923,10992437,0.0-18.0-0.0-0.40,4452,6,5
41,1,object_09,object_03,849.0,1,2,-1.0,0.0,1,object_04,1,748,0,6,9,desert_9,1,memory-2step-stake-s,2924,11000961,0.0-18.0-0.0-0.41,4452,2,1
42,2,object_01,object_07,668.0,3,2,739.0,0.6666666666666666,1,object_04,1,754,0,6,7,forest_6,1,memory-2step-stake-s,2925,11009533,0.0-18.0-0.0-0.42,4452,4,3
43,2,object_07,object_01,656.0,3,1,627.0,0.8888888888888888,1,object_04,5,794,0,8,9,forest_3,1,memory-2step-stake-s,2926,11018198,0.0-18.0-0.0-0.43,4452,3,4
44,2,object_07,object_01,770.0,3,1,-1.0,0.0,1,object_04,1,794,0,8,9,forest_32,1,memory-2step-stake-s,2927,11026724,0.0-18.0-0.0-0.44,4452,3,4
45,4,object_08,object_05,856.0,8,1,623.0,0.4444444444444444,2,object_10,5,814,0,7,4,restaurant_12,1,memory-2step-stake-s,2928,11034975,0.0-18.0-0.0-0.45,4452,8,7
46,1,object_03,object_09,496.0,2,2,627.0,0.5555555555555556,2,object_10,5,839,0,6,5,desert_22,1,memory-2step-stake-s,2929,11043327,0.0-18.0-0.0-0.46,4452,1,2
47,4,object_05,object_08,674.0,8,2,484.0,0.6666666666666666,2,object_10,1,845,0,7,6,restaurant_16,1,memory-2step-stake-s,2930,11051640,0.0-18.0-0.0-0.47,4452,7,8
48,3,object_06,object_02,616.0,6,1,666.0,0.8888888888888888,2,object_10,5,885,0,8,8,library_32,1,memory-2step-stake-s,2931,11060343,0.0-18.0-0.0-0.48,4452,6,5
49,4,object_08,object_05,644.0,8,1,628.0,1.0,2,object_10,5,930,0,9,9,restaurant_32,1,memory-2step-stake-s,2932,11069110,0.0-18.0-0.0-0.49,4452,8,7
50,4,object_08,object_05,930.0,8,1,1041.0,0.5555555555555556,2,object_10,5,955,0,7,5,restaurant_4,1,memory-2step-stake-s,2933,11077881,0.0-18.0-0.0-0.50,4452,8,7
51,3,object_02,object_06,751.0,6,2,-1.0,0.0,2,object_10,1,955,0,6,5,library_18,1,memory-2step-stake-s,2934,11086401,0.0-18.0-0.0-0.51,4452,5,6
52,1,object_09,object_03,876.0,2,1,457.0,0.3333333333333333,2,object_10,1,958,0,3,3,desert_30,1,memory-2step-stake-s,2935,11094388,0.0-18.0-0.0-0.52,4452,2,1
53,1,object_09,object_03,525.0,1,2,481.0,0.7777777777777778,1,object_04,1,965,0,7,6,desert_24,1,memory-2step-stake-s,2936,11102803,0.0-18.0-0.0-0.53,4452,2,1
54,2,object_07,object_01,931.0,3,1,613.0,0.8888888888888888,1,object_04,1,973,0,8,5,forest_13,1,memory-2step-stake-s,2937,11111453,0.0-18.0-0.0-0.54,4452,3,4
55,4,object_08,object_05,771.0,8,1,464.0,0.4444444444444444,2,object_10,5,993,0,8,4,restaurant_16,1,memory-2step-stake-s,2938,11119542,0.0-18.0-0.0-0.55,4452,8,7
56,1,object_09,object_03,422.0,1,2,476.0,0.6666666666666666,1,object_04,1,999,0,6,8,desert_3,1,memory-2step-stake-s,2939,11127852,0.0-18.0-0.0-0.56,4452,2,1
57,3,object_06,object_02,513.0,6,1,532.0,0.7777777777777778,2,object_10,5,1034,0,8,7,library_26,1,memory-2step-stake-s,2940,11136316,0.0-18.0-0.0-0.57,4452,6,5
58,3,object_02,object_06,643.0,6,2,524.0,0.3333333333333333,2,object_10,5,1049,0,9,3,library_20,1,memory-2step-stake-s,2941,11144366,0.0-18.0-0.0-0.58,4452,5,6
59,2,object_07,object_01,463.0,3,1,602.0,0.8888888888888888,1,object_04,1,1057,0,8,2,forest_13,1,memory-2step-stake-s,2942,11153013,0.0-18.0-0.0-0.59,4452,3,4
60,2,object_01,object_07,1052.0,3,2,504.0,0.7777777777777778,1,object_04,1,1064,0,7,2,forest_6,1,memory-2step-stake-s,2943,11161458,0.0-18.0-0.0-0.60,4452,4,3
61,3,object_06,object_02,639.0,6,1,462.0,0.5555555555555556,2,object_10,5,1089,0,2,5,library_23,1,memory-2step-stake-s,2944,11169650,0.0-18.0-0.0-0.61,4452,6,5
62,2,object_07,object_01,690.0,4,2,518.0,0.5555555555555556,2,object_10,1,1094,0,3,5,forest_30,1,memory-2step-stake-s,2945,11177904,0.0-18.0-0.0-0.62,4452,3,4
63,1,object_09,object_03,872.0,1,2,629.0,0.1111111111111111,1,object_04,1,1095,0,1,5,desert_22,1,memory-2step-stake-s,2946,11185851,0.0-18.0-0.0-0.63,4452,2,1
64,2,object_01,object_07,480.0,4,1,650.0,0.6666666666666666,2,object_10,1,1101,0,4,6,forest_4,1,memory-2step-stake-s,2947,11194342,0.0-18.0-0.0-0.64,4452,4,3
65,2,object_01,object_07,629.0,3,2,680.0,0.2222222222222222,1,object_04,1,1103,0,2,5,forest_12,1,memory-2step-stake-s,2948,11202447,0.0-18.0-0.0-0.65,4452,4,3
66,2,object_07,object_01,491.0,3,1,374.0,0.1111111111111111,1,object_04,5,1108,0,1,3,forest_12,1,memory-2step-stake-s,2949,11210143,0.0-18.0-0.0-0.66,4452,3,4
67,4,object_08,object_05,771.0,7,2,472.0,0.0,1,object_04,5,1108,0,0,6,restaurant_21,1,memory-2step-stake-s,2950,11217833,0.0-18.0-0.0-0.67,4452,8,7
68,3,object_06,object_02,627.0,6,1,703.0,1.0,2,object_10,5,1153,0,1,9,library_2,1,memory-2step-stake-s,2951,11226679,0.0-18.0-0.0-0.68,4452,6,5
69,4,object_05,object_08,623.0,8,2,497.0,0.5555555555555556,2,object_10,1,1158,0,1,5,restaurant_2,1,memory-2step-stake-s,2952,11234908,0.0-18.0-0.0-0.69,4452,7,8
70,1,object_03,object_09,959.0,1,1,435.0,0.4444444444444444,1,object_04,1,1162,0,4,3,desert_11,1,memory-2step-stake-s,2953,11242973,0.0-18.0-0.0-0.70,4452,1,2
71,3,object_02,object_06,823.0,6,2,557.0,0.5555555555555556,2,object_10,5,1187,0,4,5,library_23,1,memory-2step-stake-s,2954,11251247,0.0-18.0-0.0-0.71,4452,5,6
72,4,object_05,object_08,657.0,8,2,511.0,1.0,2,object_10,5,1232,0,7,9,restaurant_23,1,memory-2step-stake-s,2955,11259897,0.0-18.0-0.0-0.72,4452,7,8
73,2,object_07,object_01,634.0,3,1,593.0,0.5555555555555556,1,object_04,5,1257,0,5,6,forest_8,1,memory-2step-stake-s,2956,11268223,0.0-18.0-0.0-0.73,4452,3,4
74,2,object_01,object_07,624.0,3,2,819.0,1.0,1,object_04,1,1266,0,9,5,forest_28,1,memory-2step-stake-s,2957,11277183,0.0-18.0-0.0-0.74,4452,4,3
75,4,object_05,object_08,717.0,8,2,560.0,0.7777777777777778,2,object_10,5,1301,0,5,7,restaurant_14,1,memory-2step-stake-s,2958,11285676,0.0-18.0-0.0-0.75,4452,7,8
76,4,object_05,object_08,658.0,7,1,449.0,0.5555555555555556,1,object_04,1,1306,0,5,6,restaurant_29,1,memory-2step-stake-s,2959,11293851,0.0-18.0-0.0-0.76,4452,7,8
77,1,object_03,object_09,654.0,2,2,54.0,0.2222222222222222,2,object_10,1,1308,0,6,2,desert_13,1,memory-2step-stake-s,2960,11301331,0.0-18.0-0.0-0.77,4452,1,2
78,2,object_07,object_01,411.0,3,1,636.0,0.5555555555555556,1,object_04,5,1333,0,5,4,forest_8,1,memory-2step-stake-s,2961,11309699,0.0-18.0-0.0-0.78,4452,3,4
79,2,object_07,object_01,391.0,4,2,431.0,0.6666666666666666,2,object_10,1,1339,0,6,6,forest_3,1,memory-2step-stake-s,2962,11317961,0.0-18.0-0.0-0.79,4452,3,4
80,3,object_06,object_02,501.0,6,1,400.0,0.4444444444444444,2,object_10,1,1343,0,8,4,library_20,1,memory-2step-stake-s,2963,11325988,0.0-18.0-0.0-0.80,4452,6,5
81,1,object_09,object_03,428.0,1,2,463.0,0.8888888888888888,1,object_04,5,1383,0,8,4,desert_10,1,memory-2step-stake-s,2964,11334492,0.0-18.0-0.0-0.81,4452,2,1
82,1,object_03,object_09,376.0,1,1,703.0,0.5555555555555556,1,object_04,1,1388,0,5,2,desert_29,1,memory-2step-stake-s,2965,11342930,0.0-18.0-0.0-0.82,4452,1,2
83,2,object_01,object_07,863.0,3,2,624.0,0.1111111111111111,1,object_04,1,1389,0,1,2,forest_1,1,memory-2step-stake-s,2966,11350876,0.0-18.0-0.0-0.83,4452,4,3
84,1,object_03,object_09,321.0,1,1,356.0,0.2222222222222222,1,object_04,5,1399,0,2,2,desert_18,1,memory-2step-stake-s,2967,11358655,0.0-18.0-0.0-0.84,4452,1,2
85,4,object_08,object_05,582.0,7,2,806.0,0.2222222222222222,1,object_04,5,1409,0,2,5,restaurant_12,1,memory-2step-stake-s,2968,11366891,0.0-18.0-0.0-0.85,4452,8,7
86,1,object_09,object_03,546.0,2,1,590.0,0.7777777777777778,2,object_10,1,1416,0,3,7,desert_26,1,memory-2step-stake-s,2969,11375407,0.0-18.0-0.0-0.86,4452,2,1
87,1,object_09,object_03,434.0,1,2,433.0,0.1111111111111111,1,object_04,1,1417,0,1,9,desert_11,1,memory-2step-stake-s,2970,11383165,0.0-18.0-0.0-0.87,4452,2,1
88,1,object_03,object_09,1023.0,2,2,532.0,0.7777777777777778,2,object_10,1,1424,0,2,7,desert_25,1,memory-2step-stake-s,2971,11391626,0.0-18.0-0.0-0.88,4452,1,2
89,3,object_02,object_06,880.0,5,1,537.0,0.2222222222222222,1,object_04,1,1426,0,2,7,library_4,1,memory-2step-stake-s,2972,11399592,0.0-18.0-0.0-0.89,4452,5,6
90,1,object_03,object_09,1063.0,2,2,-1.0,0.0,2,object_10,1,1426,0,5,9,desert_22,1,memory-2step-stake-s,2973,11408110,0.0-18.0-0.0-0.90,4452,1,2
91,2,object_01,object_07,747.0,3,2,942.0,0.6666666666666666,1,object_04,1,1432,0,6,7,forest_6,1,memory-2step-stake-s,2974,11416882,0.0-18.0-0.0-0.91,4452,4,3
92,2,object_01,object_07,734.0,4,1,694.0,0.7777777777777778,2,object_10,1,1439,0,9,7,forest_13,1,memory-2step-stake-s,2975,11425503,0.0-18.0-0.0-0.92,4452,4,3
93,3,object_02,object_06,1134.0,5,1,536.0,0.8888888888888888,1,object_04,5,1479,0,8,5,library_32,1,memory-2step-stake-s,2976,11434072,0.0-18.0-0.0-0.93,4452,5,6
94,2,object_01,object_07,1210.0,3,2,676.0,0.8888888888888888,1,object_04,1,1487,0,8,8,forest_23,1,memory-2step-stake-s,2977,11442782,0.0-18.0-0.0-0.94,4452,4,3
95,1,object_09,object_03,658.0,1,2,684.0,1.0,1,object_04,1,1496,0,9,8,desert_18,1,memory-2step-stake-s,2978,11451608,0.0-18.0-0.0-0.95,4452,2,1
96,1,object_09,object_03,587.0,2,1,487.0,0.8888888888888888,2,object_10,5,1536,0,6,8,desert_15,1,memory-2step-stake-s,2979,11460132,0.0-18.0-0.0-0.96,4452,2,1
97,1,object_09,object_03,670.0,1,2,-1.0,0.0,1,object_04,5,1536,0,8,8,desert_3,1,memory-2step-stake-s,2980,11468656,0.0-18.0-0.0-0.97,4452,2,1
98,4,object_08,object_05,886.0,8,1,675.0,0.6666666666666666,2,object_10,5,1566,0,7,6,restaurant_23,1,memory-2step-stake-s,2981,11477163,0.0-18.0-0.0-0.98,4452,8,7
99,2,object_01,object_07,550.0,3,2,674.0,0.6666666666666666,1,object_04,5,1596,0,6,4,forest_4,1,memory-2step-stake-s,2982,11485663,0.0-18.0-0.0-0.99,4452,4,3
100,4,object_05,object_08,647.0,8,2,795.0,0.5555555555555556,2,object_10,5,1621,0,6,5,restaurant_15,1,memory-2step-stake-s,2983,11494193,0.0-18.0-0.0-0.100,4452,7,8
101,4,object_08,object_05,608.0,8,1,517.0,0.4444444444444444,2,object_10,5,1641,0,8,4,restaurant_14,1,memory-2step-stake-s,2984,11502346,0.0-18.0-0.0-0.101,4452,8,7
102,3,object_06,object_02,499.0,5,2,484.0,0.8888888888888888,1,object_04,5,1681,0,8,1,library_26,1,memory-2step-stake-s,2985,11510870,0.0-18.0-0.0-0.102,4452,6,5
103,1,object_09,object_03,414.0,2,1,476.0,0.1111111111111111,2,object_10,5,1686,0,6,1,desert_26,1,memory-2step-stake-s,2986,11518673,0.0-18.0-0.0-0.103,4452,2,1
104,1,object_03,object_09,472.0,2,2,717.0,0.2222222222222222,2,object_10,1,1688,0,9,2,desert_24,1,memory-2step-stake-s,2987,11526809,0.0-18.0-0.0-0.104,4452,1,2
105,3,object_02,object_06,918.0,6,2,538.0,0.6666666666666666,2,object_10,1,1694,0,8,6,library_16,1,memory-2step-stake-s,2988,11535174,0.0-18.0-0.0-0.105,4452,5,6
106,1,object_03,object_09,566.0,2,2,648.0,0.8888888888888888,2,object_10,1,1702,0,7,8,desert_15,1,memory-2step-stake-s,2989,11543858,0.0-18.0-0.0-0.106,4452,1,2
107,3,object_06,object_02,753.0,6,1,634.0,1.0,2,object_10,5,1747,0,8,9,library_22,1,memory-2step-stake-s,2990,11552628,0.0-18.0-0.0-0.107,4452,6,5
108,2,object_01,object_07,672.0,3,2,613.0,0.7777777777777778,1,object_04,1,1754,0,7,8,forest_4,1,memory-2step-stake-s,2991,11561179,0.0-18.0-0.0-0.108,4452,4,3
109,2,object_07,object_01,599.0,3,1,512.0,0.3333333333333333,1,object_04,1,1757,0,3,9,forest_25,1,memory-2step-stake-s,2992,11569217,0.0-18.0-0.0-0.109,4452,3,4
110,1,object_03,object_09,932.0,2,2,460.0,1.0,2,object_10,1,1766,0,2,9,desert_29,1,memory-2step-stake-s,2993,11577818,0.0-18.0-0.0-0.110,4452,1,2
111,2,object_01,object_07,533.0,3,2,560.0,0.0,1,object_04,1,1766,0,0,8,forest_28,1,memory-2step-stake-s,2994,11585598,0.0-18.0-0.0-0.111,4452,4,3
112,2,object_07,object_01,424.0,3,1,486.0,0.1111111111111111,1,object_04,1,1767,0,1,6,forest_8,1,memory-2step-stake-s,2995,11593410,0.0-18.0-0.0-0.112,4452,3,4
113,1,object_03,object_09,353.0,2,2,468.0,0.8888888888888888,2,object_10,1,1775,0,3,8,desert_2,1,memory-2step-stake-s,2996,11601913,0.0-18.0-0.0-0.113,4452,1,2
114,1,object_03,object_09,898.0,2,2,527.0,0.7777777777777778,2,object_10,1,1782,0,1,7,desert_30,1,memory-2step-stake-s,2997,11610377,0.0-18.0-0.0-0.114,4452,1,2
115,1,object_09,object_03,572.0,2,1,1127.0,1.0,2,object_10,1,1791,0,0,9,desert_29,1,memory-2step-stake-s,2998,11619643,0.0-18.0-0.0-0.115,4452,2,1
116,4,object_05,object_08,431.0,8,2,359.0,0.6666666666666666,2,object_10,5,1821,0,1,6,restaurant_31,1,memory-2step-stake-s,2999,11627833,0.0-18.0-0.0-0.116,4452,7,8
117,4,object_08,object_05,838.0,8,1,632.0,0.7777777777777778,2,object_10,5,1856,0,2,7,restaurant_14,1,memory-2step-stake-s,3000,11636399,0.0-18.0-0.0-0.117,4452,8,7
118,1,object_09,object_03,450.0,1,2,746.0,0.0,1,object_04,1,1856,0,0,6,desert_25,1,memory-2step-stake-s,3001,11644368,0.0-18.0-0.0-0.118,4452,2,1
119,4,object_05,object_08,685.0,7,1,523.0,0.3333333333333333,1,object_04,5,1871,0,3,9,restaurant_1,1,memory-2step-stake-s,3002,11652417,0.0-18.0-0.0-0.119,4452,7,8
120,1,object_03,object_09,536.0,2,2,702.0,0.5555555555555556,2,object_10,1,1876,0,6,5,desert_9,1,memory-2step-stake-s,3003,11660853,0.0-18.0-0.0-0.120,4452,1,2
121,4,object_05,object_08,673.0,8,2,660.0,0.6666666666666666,2,object_10,5,1906,0,6,6,restaurant_22,1,memory-2step-stake-s,3004,11669345,0.0-18.0-0.0-0.121,4452,7,8
122,1,object_03,object_09,911.0,2,2,558.0,0.3333333333333333,2,object_10,1,1909,0,4,3,desert_15,1,memory-2step-stake-s,3005,11677426,0.0-18.0-0.0-0.122,4452,1,2
123,4,object_05,object_08,813.0,8,2,490.0,0.3333333333333333,2,object_10,5,1924,0,4,3,restaurant_22,1,memory-2step-stake-s,3006,11685445,0.0-18.0-0.0-0.123,4452,7,8
124,1,object_03,object_09,885.0,1,1,475.0,0.8888888888888888,1,object_04,1,1932,0,8,0,desert_10,1,memory-2step-stake-s,3007,11693959,0.0-18.0-0.0-0.124,4452,1,2
125,3,object_02,object_06,1125.0,6,2,502.0,0.0,2,object_10,5,1932,0,5,0,library_5,1,memory-2step-stake-s,3008,11701683,0.0-18.0-0.0-0.125,4452,5,6
126,1,object_09,object_03,1062.0,2,1,675.0,0.2222222222222222,2,object_10,5,1942,0,4,2,desert_23,1,memory-2step-stake-s,3009,11709827,0.0-18.0-0.0-0.126,4452,2,1
127,1,object_09,object_03,944.0,1,2,478.0,0.1111111111111111,1,object_04,1,1943,0,1,2,desert_19,1,memory-2step-stake-s,3010,11717636,0.0-18.0-0.0-0.127,4452,2,1
128,4,object_08,object_05,1384.0,8,1,432.0,0.0,2,object_10,5,1943,0,2,0,restaurant_5,1,memory-2step-stake-s,3012,11946690,0.0-18.0-0.1-0.128,4452,8,7
129,4,object_05,object_08,795.0,7,1,560.0,0.1111111111111111,1,object_04,5,1948,0,1,3,restaurant_12,1,memory-2step-stake-s,3013,11954568,0.0-18.0-0.1-0.129,4452,7,8
130,4,object_05,object_08,1016.0,7,1,395.0,0.4444444444444444,1,object_04,5,1968,0,4,1,restaurant_14,1,memory-2step-stake-s,3014,11962586,0.0-18.0-0.1-0.130,4452,7,8
131,1,object_09,object_03,1171.0,1,2,411.0,0.2222222222222222,1,object_04,1,1970,0,2,0,desert_9,1,memory-2step-stake-s,3015,11970419,0.0-18.0-0.1-0.131,4452,2,1
132,1,object_09,object_03,770.0,2,1,393.0,0.1111111111111111,2,object_10,1,1971,0,0,1,desert_18,1,memory-2step-stake-s,3016,11978136,0.0-18.0-0.1-0.132,4452,2,1
133,2,object_07,object_01,709.0,3,1,425.0,0.1111111111111111,1,object_04,1,1972,0,1,0,forest_24,1,memory-2step-stake-s,3017,11985887,0.0-18.0-0.1-0.133,4452,3,4
134,4,object_08,object_05,683.0,7,2,418.0,0.3333333333333333,1,object_04,5,1987,0,3,1,restaurant_32,1,memory-2step-stake-s,3018,11993830,0.0-18.0-0.1-0.134,4452,8,7
135,1,object_03,object_09,516.0,1,1,437.0,0.3333333333333333,1,object_04,5,2002,0,3,3,desert_25,1,memory-2step-stake-s,3019,12001802,0.0-18.0-0.1-0.135,4452,1,2
136,3,object_06,object_02,429.0,5,2,402.0,0.4444444444444444,1,object_04,5,2022,0,4,5,library_26,1,memory-2step-stake-s,3020,12009832,0.0-18.0-0.1-0.136,4452,6,5
137,1,object_03,object_09,1121.0,2,2,447.0,0.4444444444444444,2,object_10,1,2026,0,3,4,desert_25,1,memory-2step-stake-s,3021,12017908,0.0-18.0-0.1-0.137,4452,1,2
138,4,object_05,object_08,1020.0,8,2,387.0,0.1111111111111111,2,object_10,5,2031,0,5,1,restaurant_27,1,memory-2step-stake-s,3022,12025623,0.0-18.0-0.1-0.138,4452,7,8
139,2,object_01,object_07,707.0,4,1,523.0,0.3333333333333333,2,object_10,5,2046,0,3,3,forest_26,1,memory-2step-stake-s,3023,12033673,0.0-18.0-0.1-0.139,4452,4,3
140,4,object_08,object_05,428.0,7,2,502.0,0.1111111111111111,1,object_04,5,2051,0,1,5,restaurant_15,1,memory-2step-stake-s,3024,12041496,0.0-18.0-0.1-0.140,4452,8,7
141,2,object_07,object_01,512.0,3,1,631.0,0.3333333333333333,1,object_04,1,2054,0,3,5,forest_25,1,memory-2step-stake-s,3025,12049654,0.0-18.0-0.1-0.141,4452,3,4
142,1,object_09,object_03,461.0,1,2,356.0,0.2222222222222222,1,object_04,5,2064,0,2,3,desert_10,1,memory-2step-stake-s,3026,12057435,0.0-18.0-0.1-0.142,4452,2,1
143,2,object_07,object_01,668.0,3,1,516.0,0.2222222222222222,1,object_04,1,2066,0,2,4,forest_26,1,memory-2step-stake-s,3027,12065376,0.0-18.0-0.1-0.143,4452,3,4
144,4,object_05,object_08,364.0,8,2,519.0,0.3333333333333333,2,object_10,5,2081,0,1,3,restaurant_29,1,memory-2step-stake-s,3028,12073428,0.0-18.0-0.1-0.144,4452,7,8
145,2,object_01,object_07,438.0,4,1,482.0,0.2222222222222222,2,object_10,1,2083,0,5,2,forest_24,1,memory-2step-stake-s,3029,12081336,0.0-18.0-0.1-0.145,4452,4,3
146,2,object_01,object_07,851.0,3,2,535.0,0.5555555555555556,1,object_04,5,2108,0,5,6,forest_24,1,memory-2step-stake-s,3030,12089599,0.0-18.0-0.1-0.146,4452,4,3
147,4,object_08,object_05,231.0,8,1,405.0,0.7777777777777778,2,object_10,5,2143,0,3,7,restaurant_31,1,memory-2step-stake-s,3031,12097941,0.0-18.0-0.1-0.147,4452,8,7
148,4,object_08,object_05,525.0,8,1,419.0,0.7777777777777778,2,object_10,5,2178,0,3,7,restaurant_1,1,memory-2step-stake-s,3032,12106305,0.0-18.0-0.1-0.148,4452,8,7
149,3,object_06,object_02,1062.0,6,1,571.0,0.6666666666666666,2,object_10,5,2208,0,4,6,library_27,1,memory-2step-stake-s,3033,12114713,0.0-18.0-0.1-0.149,4452,6,5
150,3,object_06,object_02,917.0,6,1,388.0,0.2222222222222222,2,object_10,1,2210,0,2,2,library_18,1,memory-2step-stake-s,3034,12122526,0.0-18.0-0.1-0.150,4452,6,5
151,1,object_03,object_09,1251.0,1,1,516.0,0.5555555555555556,1,object_04,5,2235,0,5,0,desert_3,1,memory-2step-stake-s,3035,12130765,0.0-18.0-0.1-0.151,4452,1,2
152,1,object_09,object_03,1202.0,1,2,443.0,0.3333333333333333,1,object_04,1,2238,0,3,0,desert_24,1,memory-2step-stake-s,3036,12138734,0.0-18.0-0.1-0.152,4452,2,1
153,3,object_02,object_06,484.0,5,1,532.0,0.5555555555555556,1,object_04,5,2263,0,5,1,library_16,1,memory-2step-stake-s,3037,12146998,0.0-18.0-0.1-0.153,4452,5,6
154,3,object_06,object_02,499.0,5,2,584.0,1.0,1,object_04,5,2308,0,9,1,library_2,1,memory-2step-stake-s,3038,12155725,0.0-18.0-0.1-0.154,4452,6,5
155,2,object_01,object_07,732.0,4,1,437.0,0.3333333333333333,2,object_10,1,2311,0,9,3,forest_12,1,memory-2step-stake-s,3039,12163686,0.0-18.0-0.1-0.155,4452,4,3
156,4,object_08,object_05,677.0,8,1,386.0,0.1111111111111111,2,object_10,5,2316,0,8,1,restaurant_19,1,memory-2step-stake-s,3040,12171393,0.0-18.0-0.1-0.156,4452,8,7
157,2,object_07,object_01,293.0,4,2,452.0,0.1111111111111111,2,object_10,1,2317,0,8,1,forest_23,1,memory-2step-stake-s,3041,12179172,0.0-18.0-0.1-0.157,4452,3,4
158,3,object_02,object_06,800.0,5,1,446.0,0.8888888888888888,1,object_04,5,2357,0,8,2,library_22,1,memory-2step-stake-s,3042,12187653,0.0-18.0-0.1-0.158,4452,5,6
159,4,object_05,object_08,822.0,7,1,404.0,0.8888888888888888,1,object_04,5,2397,0,8,2,restaurant_23,1,memory-2step-stake-s,3043,12196093,0.0-18.0-0.1-0.159,4452,7,8
160,1,object_09,object_03,-1.0,-1,-1,-1.0,0.0,-,,1,2397,0,9,2,desert_3,1,memory-2step-stake-s,3044,12202612,0.0-18.0-0.1-0.160,4452,2,1
161,4,object_08,object_05,781.0,7,2,446.0,0.6666666666666666,1,object_04,5,2427,0,6,2,restaurant_27,1,memory-2step-stake-s,3045,12210891,0.0-18.0-0.1-0.161,4452,8,7
162,4,object_08,object_05,1343.0,7,2,549.0,1.0,1,object_04,5,2472,0,9,3,restaurant_22,1,memory-2step-stake-s,3046,12219576,0.0-18.0-0.1-0.162,4452,8,7
163,3,object_06,object_02,595.0,6,1,489.0,0.6666666666666666,2,object_10,5,2502,0,8,6,library_12,1,memory-2step-stake-s,3047,12227898,0.0-18.0-0.1-0.163,4452,6,5
164,3,object_02,object_06,1208.0,6,2,764.0,0.3333333333333333,2,object_10,5,2517,0,8,3,library_32,1,memory-2step-stake-s,3048,12236190,0.0-18.0-0.1-0.164,4452,5,6
165,4,object_08,object_05,567.0,8,1,1045.0,0.3333333333333333,2,object_10,5,2532,0,8,3,restaurant_1,1,memory-2step-stake-s,3049,12244759,0.0-18.0-0.1-0.165,4452,8,7
166,3,object_06,object_02,375.0,5,2,369.0,0.8888888888888888,1,object_04,5,2572,0,8,6,library_30,1,memory-2step-stake-s,3050,12253176,0.0-18.0-0.1-0.166,4452,6,5
167,2,object_01,object_07,447.0,4,1,468.0,1.0,2,object_10,1,2581,0,8,9,forest_1,1,memory-2step-stake-s,3051,12261776,0.0-18.0-0.1-0.167,4452,4,3
168,4,object_08,object_05,511.0,7,2,468.0,0.8888888888888888,1,object_04,5,2621,0,8,6,restaurant_23,1,memory-2step-stake-s,3052,12270281,0.0-18.0-0.1-0.168,4452,8,7
169,3,object_02,object_06,631.0,5,1,137.0,0.6666666666666666,1,object_04,5,2651,0,6,8,library_3,1,memory-2step-stake-s,3053,12278254,0.0-18.0-0.1-0.169,4452,5,6
170,2,object_01,object_07,475.0,3,2,506.0,1.0,1,object_04,1,2660,0,9,8,forest_28,1,memory-2step-stake-s,3054,12286905,0.0-18.0-0.1-0.170,4452,4,3
171,1,object_03,object_09,516.0,1,1,650.0,0.6666666666666666,1,object_04,1,2666,0,6,8,desert_9,1,memory-2step-stake-s,3055,12295393,0.0-18.0-0.1-0.171,4452,1,2
172,3,object_06,object_02,533.0,5,2,501.0,0.6666666666666666,1,object_04,1,2672,0,6,2,library_12,1,memory-2step-stake-s,3056,12303731,0.0-18.0-0.1-0.172,4452,6,5
173,2,object_07,object_01,577.0,3,1,582.0,0.1111111111111111,1,object_04,1,2673,0,1,3,forest_24,1,memory-2step-stake-s,3057,12311637,0.0-18.0-0.1-0.173,4452,3,4
174,4,object_05,object_08,481.0,8,2,669.0,0.4444444444444444,2,object_10,5,2693,0,5,4,restaurant_21,1,memory-2step-stake-s,3058,12319930,0.0-18.0-0.1-0.174,4452,7,8
175,2,object_01,object_07,473.0,4,1,697.0,0.4444444444444444,2,object_10,1,2697,0,3,4,forest_30,1,memory-2step-stake-s,3059,12328251,0.0-18.0-0.1-0.175,4452,4,3
176,1,object_03,object_09,855.0,2,2,405.0,0.4444444444444444,2,object_10,1,2701,0,2,4,desert_23,1,memory-2step-stake-s,3060,12336284,0.0-18.0-0.1-0.176,4452,1,2
177,3,object_02,object_06,457.0,5,1,452.0,0.2222222222222222,1,object_04,5,2711,0,2,4,library_5,1,memory-2step-stake-s,3061,12344159,0.0-18.0-0.1-0.177,4452,5,6
178,4,object_05,object_08,492.0,8,2,784.0,0.5555555555555556,2,object_10,5,2736,0,0,5,restaurant_27,1,memory-2step-stake-s,3062,12352672,0.0-18.0-0.1-0.178,4452,7,8
179,1,object_03,object_09,517.0,2,2,-1.0,0.0,2,object_10,1,2736,0,0,6,desert_11,1,memory-2step-stake-s,3063,12361197,0.0-18.0-0.1-0.179,4452,1,2
180,3,object_02,object_06,488.0,5,1,402.0,0.3333333333333333,1,object_04,5,2751,0,3,2,library_2,1,memory-2step-stake-s,3064,12369130,0.0-18.0-0.1-0.180,4452,5,6
181,3,object_06,object_02,459.0,5,2,549.0,0.4444444444444444,1,object_04,5,2771,0,4,2,library_14,1,memory-2step-stake-s,3065,12377305,0.0-18.0-0.1-0.181,4452,6,5
182,3,object_06,object_02,462.0,6,1,407.0,0.2222222222222222,2,object_10,5,2781,0,7,2,library_20,1,memory-2step-stake-s,3066,12385140,0.0-18.0-0.1-0.182,4452,6,5
183,3,object_06,object_02,275.0,5,2,415.0,0.8888888888888888,1,object_04,5,2821,0,8,1,library_28,1,memory-2step-stake-s,3067,12393595,0.0-18.0-0.1-0.183,4452,6,5
184,3,object_02,object_06,454.0,5,1,426.0,1.0,1,object_04,5,2866,0,9,0,library_18,1,memory-2step-stake-s,3068,12402156,0.0-18.0-0.1-0.184,4452,5,6
185,4,object_05,object_08,422.0,8,2,405.0,0.4444444444444444,2,object_10,5,2886,0,8,4,restaurant_29,1,memory-2step-stake-s,3069,12410189,0.0-18.0-0.1-0.185,4452,7,8
186,1,object_09,object_03,921.0,2,1,565.0,0.3333333333333333,2,object_10,1,2889,0,7,3,desert_19,1,memory-2step-stake-s,3070,12418285,0.0-18.0-0.1-0.186,4452,2,1
187,2,object_07,object_01,750.0,4,2,432.0,0.6666666666666666,2,object_10,1,2895,0,9,6,forest_25,1,memory-2step-stake-s,3071,12426554,0.0-18.0-0.1-0.187,4452,3,4
188,2,object_07,object_01,574.0,3,1,435.0,1.0,1,object_04,5,2940,0,9,6,forest_16,1,memory-2step-stake-s,3072,12435128,0.0-18.0-0.1-0.188,4452,3,4
189,4,object_05,object_08,863.0,7,1,436.0,0.7777777777777778,1,object_04,5,2975,0,7,5,restaurant_2,1,memory-2step-stake-s,3073,12443501,0.0-18.0-0.1-0.189,4452,7,8
190,3,object_06,object_02,418.0,5,2,437.0,0.5555555555555556,1,object_04,5,3000,0,5,5,library_30,1,memory-2step-stake-s,3074,12451668,0.0-18.0-0.1-0.190,4452,6,5
191,1,object_09,object_03,320.0,2,1,459.0,0.5555555555555556,2,object_10,1,3005,0,4,5,desert_2,1,memory-2step-stake-s,3075,12459855,0.0-18.0-0.1-0.191,4452,2,1
192,4,object_08,object_05,324.0,7,2,387.0,0.8888888888888888,1,object_04,1,3013,0,8,6,restaurant_5,1,memory-2step-stake-s,3076,12468284,0.0-18.0-0.1-0.192,4452,8,7
193,2,object_01,object_07,811.0,4,1,471.0,0.8888888888888888,2,object_10,5,3053,0,5,8,forest_32,1,memory-2step-stake-s,3077,12476793,0.0-18.0-0.1-0.193,4452,4,3
194,1,object_03,object_09,370.0,2,2,431.0,0.8888888888888888,2,object_10,1,3061,0,7,8,desert_23,1,memory-2step-stake-s,3078,12485256,0.0-18.0-0.1-0.194,4452,1,2
195,4,object_05,object_08,388.0,7,1,378.0,0.4444444444444444,1,object_04,5,3081,0,4,7,restaurant_19,1,memory-2step-stake-s,3079,12493261,0.0-18.0-0.1-0.195,4452,7,8
196,4,object_05,object_08,365.0,8,2,559.0,0.6666666666666666,2,object_10,5,3111,0,4,6,restaurant_15,1,memory-2step-stake-s,3080,12501657,0.0-18.0-0.1-0.196,4452,7,8
197,3,object_06,object_02,366.0,6,1,505.0,0.7777777777777778,2,object_10,5,3146,0,7,7,library_5,1,memory-2step-stake-s,3081,12510097,0.0-18.0-0.1-0.197,4452,6,5
198,1,object_03,object_09,849.0,2,2,548.0,0.6666666666666666,2,object_10,1,3152,0,6,6,desert_13,1,memory-2step-stake-s,3082,12518473,0.0-18.0-0.1-0.198,4452,1,2
199,4,object_05,object_08,692.0,8,2,855.0,0.8888888888888888,2,object_10,5,3192,0,5,8,restaurant_4,1,memory-2step-stake-s,3083,12527359,0.0-18.0-0.1-0.199,4452,7,8
200,1,object_09,object_03,646.0,1,2,738.0,0.4444444444444444,1,object_04,1,3196,0,4,8,desert_30,1,memory-2step-stake-s,3084,12535728,0.0-18.0-0.1-0.200,4452,2,1
201,4,object_05,object_08,423.0,7,1,452.0,0.3333333333333333,1,object_04,5,3211,0,3,4,restaurant_31,1,memory-2step-stake-s,3085,12543710,0.0-18.0-0.1-0.201,4452,7,8
202,3,object_02,object_06,407.0,6,2,465.0,0.1111111111111111,2,object_10,1,3212,0,3,1,library_3,1,memory-2step-stake-s,3086,12551498,0.0-18.0-0.1-0.202,4452,5,6
203,1,object_03,object_09,480.0,1,1,718.0,0.2222222222222222,1,object_04,1,3214,0,2,5,desert_29,1,memory-2step-stake-s,3087,12559643,0.0-18.0-0.1-0.203,4452,1,2
204,1,object_03,object_09,397.0,2,2,441.0,0.2222222222222222,2,object_10,1,3216,0,3,2,desert_19,1,memory-2step-stake-s,3088,12567509,0.0-18.0-0.1-0.204,4452,1,2
205,3,object_02,object_06,389.0,5,1,573.0,0.5555555555555556,1,object_04,1,3221,0,5,3,library_23,1,memory-2step-stake-s,3089,12575805,0.0-18.0-0.1-0.205,4452,5,6
206,2,object_01,object_07,553.0,3,2,581.0,0.6666666666666666,1,object_04,1,3227,0,6,4,forest_25,1,memory-2step-stake-s,3090,12584225,0.0-18.0-0.1-0.206,4452,4,3
207,3,object_02,object_06,657.0,6,2,799.0,0.4444444444444444,2,object_10,1,3231,0,7,4,library_20,1,memory-2step-stake-s,3091,12592650,0.0-18.0-0.1-0.207,4452,5,6
208,2,object_01,object_07,536.0,4,1,527.0,0.6666666666666666,2,object_10,1,3237,0,8,6,forest_28,1,memory-2step-stake-s,3092,12601009,0.0-18.0-0.1-0.208,4452,4,3
209,3,object_02,object_06,571.0,6,2,441.0,0.5555555555555556,2,object_10,1,3242,0,6,5,library_28,1,memory-2step-stake-s,3093,12609191,0.0-18.0-0.1-0.209,4452,5,6
210,4,object_08,object_05,417.0,8,1,425.0,0.5555555555555556,2,object_10,5,3267,0,6,5,restaurant_5,1,memory-2step-stake-s,3094,12617360,0.0-18.0-0.1-0.210,4452,8,7
211,4,object_05,object_08,613.0,8,2,877.0,0.6666666666666666,2,object_10,5,3297,0,6,6,restaurant_32,1,memory-2step-stake-s,3095,12626081,0.0-18.0-0.1-0.211,4452,7,8
212,4,object_05,object_08,503.0,8,2,1081.0,0.6666666666666666,2,object_10,5,3327,0,9,6,restaurant_15,1,memory-2step-stake-s,3096,12634998,0.0-18.0-0.1-0.212,4452,7,8
213,3,object_02,object_06,419.0,6,2,418.0,0.7777777777777778,2,object_10,5,3362,0,8,7,library_14,1,memory-2step-stake-s,3097,12643363,0.0-18.0-0.1-0.213,4452,5,6
214,1,object_09,object_03,524.0,2,1,565.0,0.8888888888888888,2,object_10,1,3370,0,4,8,desert_22,1,memory-2step-stake-s,3098,12651965,0.0-18.0-0.1-0.214,4452,2,1
215,1,object_03,object_09,200.0,2,2,369.0,1.0,2,object_10,1,3379,0,5,9,desert_10,1,memory-2step-stake-s,3099,12660470,0.0-18.0-0.1-0.215,4452,1,2
216,1,object_09,object_03,650.0,1,2,426.0,0.6666666666666666,1,object_04,1,3385,0,6,7,desert_13,1,memory-2step-stake-s,3100,12668733,0.0-18.0-0.1-0.216,4452,2,1
217,2,object_07,object_01,578.0,3,1,415.0,0.4444444444444444,1,object_04,5,3405,0,4,9,forest_18,1,memory-2step-stake-s,3101,12676777,0.0-18.0-0.1-0.217,4452,3,4
218,2,object_07,object_01,805.0,3,1,471.0,0.4444444444444444,1,object_04,1,3409,0,4,7,forest_30,1,memory-2step-stake-s,3102,12684878,0.0-18.0-0.1-0.218,4452,3,4
219,3,object_06,object_02,667.0,5,2,432.0,0.3333333333333333,1,object_04,5,3424,0,3,5,library_3,1,memory-2step-stake-s,3103,12692836,0.0-18.0-0.1-0.219,4452,6,5
220,2,object_01,object_07,649.0,4,1,493.0,0.1111111111111111,2,object_10,1,3425,0,6,1,forest_26,1,memory-2step-stake-s,3104,12700649,0.0-18.0-0.1-0.220,4452,4,3
221,2,object_01,object_07,387.0,3,2,430.0,0.7777777777777778,1,object_04,1,3432,0,7,2,forest_6,1,memory-2step-stake-s,3105,12709017,0.0-18.0-0.1-0.221,4452,4,3
222,3,object_02,object_06,534.0,5,1,566.0,0.6666666666666666,1,object_04,5,3462,0,6,2,library_16,1,memory-2step-stake-s,3106,12717417,0.0-18.0-0.1-0.222,4452,5,6
223,2,object_07,object_01,377.0,4,2,426.0,0.2222222222222222,2,object_10,1,3464,0,8,2,forest_32,1,memory-2step-stake-s,3107,12725265,0.0-18.0-0.1-0.223,4452,3,4
224,1,object_09,object_03,337.0,2,1,409.0,0.2222222222222222,2,object_10,1,3466,0,6,2,desert_19,1,memory-2step-stake-s,3108,12733100,0.0-18.0-0.1-0.224,4452,2,1
225,1,object_09,object_03,563.0,1,2,513.0,0.6666666666666666,1,object_04,1,3472,0,6,5,desert_30,1,memory-2step-stake-s,3109,12741441,0.0-18.0-0.1-0.225,4452,2,1
226,3,object_06,object_02,1100.0,6,1,626.0,0.5555555555555556,2,object_10,5,3497,0,4,5,library_28,1,memory-2step-stake-s,3110,12749792,0.0-18.0-0.1-0.226,4452,6,5
227,3,object_06,object_02,700.0,5,2,412.0,0.4444444444444444,1,object_04,1,3501,0,4,4,library_30,1,memory-2step-stake-s,3111,12757831,0.0-18.0-0.1-0.227,4452,6,5
228,4,object_05,object_08,762.0,7,1,457.0,0.3333333333333333,1,object_04,5,3516,0,3,3,restaurant_16,1,memory-2step-stake-s,3112,12765813,0.0-18.0-0.1-0.228,4452,7,8
229,4,object_08,object_05,708.0,8,1,590.0,0.6666666666666666,2,object_10,5,3546,0,4,6,restaurant_1,1,memory-2step-stake-s,3113,12774237,0.0-18.0-0.1-0.229,4452,8,7
230,4,object_05,object_08,454.0,8,2,402.0,0.4444444444444444,2,object_10,5,3566,0,3,4,restaurant_27,1,memory-2step-stake-s,3114,12782270,0.0-18.0-0.1-0.230,4452,7,8
231,2,object_01,object_07,487.0,4,1,428.0,0.4444444444444444,2,object_10,1,3570,0,4,4,forest_16,1,memory-2step-stake-s,3115,12790326,0.0-18.0-0.1-0.231,4452,4,3
232,2,object_07,object_01,435.0,4,2,492.0,0.4444444444444444,2,object_10,1,3574,0,3,4,forest_3,1,memory-2step-stake-s,3116,12798451,0.0-18.0-0.1-0.232,4452,3,4
233,2,object_01,object_07,510.0,4,1,497.0,0.6666666666666666,2,object_10,1,3580,0,4,6,forest_8,1,memory-2step-stake-s,3117,12806783,0.0-18.0-0.1-0.233,4452,4,3
234,2,object_01,object_07,568.0,3,2,460.0,0.5555555555555556,1,object_04,5,3605,0,5,5,forest_3,1,memory-2step-stake-s,3118,12814971,0.0-18.0-0.1-0.234,4452,4,3
235,3,object_06,object_02,629.0,6,1,627.0,0.4444444444444444,2,object_10,5,3625,0,1,4,library_26,1,memory-2step-stake-s,3119,12823223,0.0-18.0-0.1-0.235,4452,6,5
236,3,object_06,object_02,334.0,5,2,654.0,0.1111111111111111,1,object_04,1,3626,0,1,6,library_27,1,memory-2step-stake-s,3120,12831204,0.0-18.0-0.1-0.236,4452,6,5
237,3,object_06,object_02,590.0,6,1,367.0,0.8888888888888888,2,object_10,5,3666,0,1,8,library_27,1,memory-2step-stake-s,3121,12839615,0.0-18.0-0.1-0.237,4452,6,5
238,4,object_08,object_05,741.0,8,1,518.0,0.8888888888888888,2,object_10,1,3674,0,2,8,restaurant_22,1,memory-2step-stake-s,3122,12848163,0.0-18.0-0.1-0.238,4452,8,7
239,4,object_05,object_08,632.0,8,2,340.0,0.7777777777777778,2,object_10,5,3709,0,1,7,restaurant_12,1,memory-2step-stake-s,3123,12856437,0.0-18.0-0.1-0.239,4452,7,8
240,3,object_02,object_06,726.0,6,2,429.0,0.7777777777777778,2,object_10,5,3744,0,0,7,library_28,1,memory-2step-stake-s,3124,12864801,0.0-18.0-0.1-0.240,4452,5,6
241,1,object_03,object_09,1463.0,2,2,483.0,0.6666666666666666,2,object_10,1,3750,0,3,6,desert_11,1,memory-2step-stake-s,3125,12873117,0.0-18.0-0.1-0.241,4452,1,2
242,2,object_01,object_07,899.0,3,2,484.0,0.5555555555555556,1,object_04,1,3755,0,5,6,forest_23,1,memory-2step-stake-s,3126,12881335,0.0-18.0-0.1-0.242,4452,4,3
243,3,object_02,object_06,566.0,5,1,351.0,0.5555555555555556,1,object_04,1,3760,0,5,8,library_4,1,memory-2step-stake-s,3127,12889422,0.0-18.0-0.1-0.243,4452,5,6
244,1,object_09,object_03,576.0,1,2,398.0,0.2222222222222222,1,object_04,1,3762,0,2,8,desert_23,1,memory-2step-stake-s,3128,12897242,0.0-18.0-0.1-0.244,4452,2,1
245,1,object_09,object_03,508.0,2,1,952.0,0.7777777777777778,2,object_10,5,3797,0,1,7,desert_13,1,memory-2step-stake-s,3129,12906127,0.0-18.0-0.1-0.245,4452,2,1
246,3,object_06,object_02,438.0,5,2,392.0,0.3333333333333333,1,object_04,1,3800,0,3,9,library_23,1,memory-2step-stake-s,3130,12914051,0.0-18.0-0.1-0.246,4452,6,5
247,2,object_07,object_01,402.0,3,1,516.0,0.1111111111111111,1,object_04,1,3801,0,1,8,forest_13,1,memory-2step-stake-s,3131,12921889,0.0-18.0-0.1-0.247,4452,3,4
248,2,object_07,object_01,466.0,4,2,365.0,0.5555555555555556,2,object_10,1,3806,0,5,5,forest_26,1,memory-2step-stake-s,3132,12929985,0.0-18.0-0.1-0.248,4452,3,4
249,3,object_06,object_02,525.0,6,1,761.0,0.7777777777777778,2,object_10,1,3813,0,4,7,library_18,1,memory-2step-stake-s,3133,12938684,0.0-18.0-0.1-0.249,4452,6,5
250,2,object_07,object_01,432.0,4,2,459.0,0.6666666666666666,2,object_10,1,3819,0,1,6,forest_12,1,memory-2step-stake-s,3134,12946973,0.0-18.0-0.1-0.250,4452,3,4
251,1,object_09,object_03,611.0,2,1,518.0,0.5555555555555556,2,object_10,1,3824,0,0,5,desert_18,1,memory-2step-stake-s,3135,12955219,0.0-18.0-0.1-0.251,4452,2,1
252,3,object_06,object_02,484.0,5,2,454.0,0.1111111111111111,1,object_04,5,3829,0,1,9,library_5,1,memory-2step-stake-s,3136,12962994,0.0-18.0-0.1-0.252,4452,6,5
253,1,object_03,object_09,399.0,1,1,462.0,0.0,1,object_04,1,3829,0,0,8,desert_26,1,memory-2step-stake-s,3137,12970671,0.0-18.0-0.1-0.253,4452,1,2
254,4,object_05,object_08,334.0,8,2,388.0,0.8888888888888888,2,object_10,5,3869,0,0,8,restaurant_32,1,memory-2step-stake-s,3138,12979094,0.0-18.0-0.1-0.254,4452,7,8
255,4,object_08,object_05,472.0,8,1,415.0,1.0,2,object_10,5,3914,0,1,9,restaurant_19,1,memory-2step-stake-s,3139,12987648,0.0-18.0-0.1-0.255,4452,8,7
