,state1,stim_left,stim_right,rt_1,choice1,response1,rt_2,points,state2,stim_state2,stake,score,practice,rews1,rews2,background,high_arm,trial_type,trial_index,time_elapsed,internal_node_id,subid,stim_left_num,stim_right_num
0,2,object_03,object_06,-1.0,-1,-1,-1.0,0.0,-,,5,0,0,2,6,forest_25,2,memory-2step-stake-s,491,1346418,0.0-18.0-0.0-0.0,4165,3,4
1,3,object_01,object_08,356.195,6,1,-1.0,0.0,2,object_07,1,0,0,1,7,library_9,2,memory-2step-stake-s,492,1355024,0.0-18.0-0.0-0.1,4165,6,5
2,4,object_09,object_02,371.545,8,2,353.655,1.0,2,object_07,1,9,0,2,9,restaurant_1,2,memory-2step-stake-s,493,1363725,0.0-18.0-0.0-0.2,4165,7,8
3,3,object_08,object_01,298.58,5,1,662.295,0.3333333333333333,1,object_10,1,12,0,3,9,library_17,2,memory-2step-stake-s,494,1372009,0.0-18.0-0.0-0.3,4165,5,6
4,3,object_08,object_01,648.055,6,2,664.385,0.6666666666666666,2,object_07,5,42,0,0,6,library_23,2,memory-2step-stake-s,495,1380681,0.0-18.0-0.0-0.4,4165,5,6
5,1,object_05,object_04,615.265,2,1,673.065,0.6666666666666666,2,object_07,1,48,0,3,6,desert_5,2,memory-2step-stake-s,496,1389315,0.0-18.0-0.0-0.5,4165,2,1
6,4,object_02,object_09,751.68,8,1,590.17,1.0,2,object_07,1,57,0,2,9,restaurant_23,2,memory-2step-stake-s,497,1398196,0.0-18.0-0.0-0.6,4165,8,7
7,2,object_03,object_06,333.68,4,2,829.675,0.8888888888888888,2,object_07,1,65,0,1,8,forest_3,2,memory-2step-stake-s,498,1407192,0.0-18.0-0.0-0.7,4165,3,4
8,1,object_05,object_04,404.155,1,2,495.035,0.0,1,object_10,5,65,0,0,9,desert_25,2,memory-2step-stake-s,499,1414996,0.0-18.0-0.0-0.8,4165,2,1
9,2,object_03,object_06,726.83,3,1,578.99,0.2222222222222222,1,object_10,5,75,0,2,6,forest_5,2,memory-2step-stake-s,500,1423076,0.0-18.0-0.0-0.9,4165,3,4
10,2,object_06,object_03,440.565,3,2,466.03,0.0,1,object_10,5,75,0,0,5,forest_10,2,memory-2step-stake-s,501,1430840,0.0-18.0-0.0-0.10,4165,4,3
11,1,object_04,object_05,517.84,1,1,526.69,0.1111111111111111,1,object_10,5,80,0,1,4,desert_8,2,memory-2step-stake-s,502,1438773,0.0-18.0-0.0-0.11,4165,1,2
12,4,object_09,object_02,759.94,8,2,508.705,0.2222222222222222,2,object_07,1,82,0,4,2,restaurant_19,2,memory-2step-stake-s,503,1446789,0.0-18.0-0.0-0.12,4165,7,8
13,4,object_02,object_09,818.525,8,1,435.175,0.2222222222222222,2,object_07,1,84,0,7,2,restaurant_28,2,memory-2step-stake-s,504,1454708,0.0-18.0-0.0-0.13,4165,8,7
14,1,object_04,object_05,802.285,2,2,547.265,0.1111111111111111,2,object_07,5,89,0,5,1,desert_2,2,memory-2step-stake-s,505,1462642,0.0-18.0-0.0-0.14,4165,1,2
15,2,object_06,object_03,754.295,4,1,476.185,0.0,2,object_07,5,89,0,8,0,forest_5,2,memory-2step-stake-s,506,1470439,0.0-18.0-0.0-0.15,4165,4,3
16,1,object_04,object_05,587.895,2,2,373.68,0.5555555555555556,2,object_07,5,114,0,7,5,desert_28,2,memory-2step-stake-s,507,1478666,0.0-18.0-0.0-0.16,4165,1,2
17,1,object_05,object_04,1071.225,1,2,593.975,0.7777777777777778,1,object_10,5,149,0,7,6,desert_27,2,memory-2step-stake-s,508,1487355,0.0-18.0-0.0-0.17,4165,2,1
18,2,object_03,object_06,667.12,4,2,432.845,0.3333333333333333,2,object_07,5,164,0,5,3,forest_6,2,memory-2step-stake-s,509,1495391,0.0-18.0-0.0-0.18,4165,3,4
19,1,object_05,object_04,753.935,2,1,523.895,0.6666666666666666,2,object_07,1,170,0,4,6,desert_28,2,memory-2step-stake-s,510,1503899,0.0-18.0-0.0-0.19,4165,2,1
20,2,object_06,object_03,631.135,3,2,417.94,0.4444444444444444,1,object_10,5,190,0,4,9,forest_27,2,memory-2step-stake-s,511,1512049,0.0-18.0-0.0-0.20,4165,4,3
21,3,object_08,object_01,684.24,5,1,483.235,0.1111111111111111,1,object_10,1,191,0,1,6,library_16,2,memory-2step-stake-s,512,1519940,0.0-18.0-0.0-0.21,4165,5,6
22,1,object_05,object_04,723.805,1,2,463.275,0.1111111111111111,1,object_10,5,196,0,1,7,desert_29,2,memory-2step-stake-s,513,1527804,0.0-18.0-0.0-0.22,4165,2,1
23,1,object_05,object_04,953.7,1,2,490.875,0.1111111111111111,1,object_10,5,201,0,1,8,desert_15,2,memory-2step-stake-s,514,1535690,0.0-18.0-0.0-0.23,4165,2,1
24,2,object_03,object_06,859.065,3,1,429.9,0.2222222222222222,1,object_10,5,211,0,2,9,forest_25,2,memory-2step-stake-s,515,1543639,0.0-18.0-0.0-0.24,4165,3,4
25,3,object_01,object_08,776.975,5,2,464.915,0.5555555555555556,1,object_10,5,236,0,5,5,library_29,2,memory-2step-stake-s,516,1551948,0.0-18.0-0.0-0.25,4165,6,5
26,4,object_09,object_02,656.77,7,1,384.375,0.2222222222222222,1,object_10,1,238,0,2,6,restaurant_18,2,memory-2step-stake-s,517,1559823,0.0-18.0-0.0-0.26,4165,7,8
27,2,object_03,object_06,707.3,4,2,519.79,0.6666666666666666,2,object_07,5,268,0,2,6,forest_8,2,memory-2step-stake-s,518,1568323,0.0-18.0-0.0-0.27,4165,3,4
28,1,object_05,object_04,924.67,2,1,495.36,0.5555555555555556,2,object_07,5,293,0,3,5,desert_5,2,memory-2step-stake-s,519,1576674,0.0-18.0-0.0-0.28,4165,2,1
29,3,object_08,object_01,825.915,5,1,355.83,0.2222222222222222,1,object_10,1,295,0,2,8,library_23,2,memory-2step-stake-s,520,1584526,0.0-18.0-0.0-0.29,4165,5,6
30,2,object_06,object_03,1191.155,3,2,657.555,0.3333333333333333,1,object_10,5,310,0,3,7,forest_23,2,memory-2step-stake-s,521,1592824,0.0-18.0-0.0-0.30,4165,4,3
31,1,object_05,object_04,743.765,1,2,517.985,0.2222222222222222,1,object_10,1,312,0,2,4,desert_20,2,memory-2step-stake-s,522,1600855,0.0-18.0-0.0-0.31,4165,2,1
32,3,object_01,object_08,799.32,6,1,504.1,0.3333333333333333,2,object_07,1,315,0,0,3,library_17,2,memory-2step-stake-s,523,1608974,0.0-18.0-0.0-0.32,4165,6,5
33,3,object_08,object_01,647.57,6,2,370.28,0.2222222222222222,2,object_07,1,317,0,2,2,library_26,2,memory-2step-stake-s,524,1616872,0.0-18.0-0.0-0.33,4165,5,6
34,1,object_04,object_05,1103.185,2,2,470.93,0.0,2,object_07,5,317,0,1,0,desert_2,2,memory-2step-stake-s,525,1624643,0.0-18.0-0.0-0.34,4165,1,2
35,1,object_05,object_04,845.065,2,1,460.13,0.2222222222222222,2,object_07,5,327,0,1,2,desert_20,2,memory-2step-stake-s,526,1632629,0.0-18.0-0.0-0.35,4165,2,1
36,4,object_09,object_02,729.275,8,2,378.155,0.3333333333333333,2,object_07,5,342,0,0,3,restaurant_2,2,memory-2step-stake-s,527,1640620,0.0-18.0-0.0-0.36,4165,7,8
37,1,object_05,object_04,936.395,1,2,430.09,0.0,1,object_10,5,342,0,0,5,desert_28,2,memory-2step-stake-s,528,1648331,0.0-18.0-0.0-0.37,4165,2,1
38,1,object_04,object_05,749.575,2,2,567.46,0.0,2,object_07,5,342,0,2,0,desert_29,2,memory-2step-stake-s,529,1656207,0.0-18.0-0.0-0.38,4165,1,2
39,4,object_09,object_02,665.285,7,1,274.27,0.3333333333333333,1,object_10,1,345,0,3,1,restaurant_30,2,memory-2step-stake-s,530,1664098,0.0-18.0-0.0-0.39,4165,7,8
40,3,object_01,object_08,669.95,5,2,301.33,0.3333333333333333,1,object_10,1,348,0,3,1,library_17,2,memory-2step-stake-s,531,1672038,0.0-18.0-0.0-0.40,4165,6,5
41,3,object_08,object_01,733.33,6,2,358.22,0.1111111111111111,2,object_07,1,349,0,2,1,library_28,2,memory-2step-stake-s,532,1679790,0.0-18.0-0.0-0.41,4165,5,6
42,2,object_06,object_03,760.235,4,1,348.005,0.3333333333333333,2,object_07,5,364,0,4,3,forest_26,2,memory-2step-stake-s,533,1687795,0.0-18.0-0.0-0.42,4165,4,3
43,1,object_04,object_05,1061.72,1,1,542.085,0.4444444444444444,1,object_10,5,384,0,4,3,desert_1,2,memory-2step-stake-s,534,1696109,0.0-18.0-0.0-0.43,4165,1,2
44,1,object_04,object_05,708.34,1,1,431.005,0.4444444444444444,1,object_10,5,404,0,4,0,desert_28,2,memory-2step-stake-s,535,1704276,0.0-18.0-0.0-0.44,4165,1,2
45,4,object_02,object_09,673.295,8,1,326.89,0.1111111111111111,2,object_07,5,409,0,2,1,restaurant_23,2,memory-2step-stake-s,536,1712025,0.0-18.0-0.0-0.45,4165,8,7
46,4,object_09,object_02,944.57,7,1,263.575,0.2222222222222222,1,object_10,1,411,0,2,1,restaurant_26,2,memory-2step-stake-s,537,1719801,0.0-18.0-0.0-0.46,4165,7,8
47,3,object_01,object_08,636.8,5,2,-1.0,0.0,1,object_10,1,411,0,1,3,library_23,2,memory-2step-stake-s,538,1728404,0.0-18.0-0.0-0.47,4165,6,5
48,2,object_06,object_03,892.765,3,2,375.32,0.6666666666666666,1,object_10,5,441,0,6,0,forest_5,2,memory-2step-stake-s,539,1736734,0.0-18.0-0.0-0.48,4165,4,3
49,2,object_06,object_03,1211.45,4,1,553.98,0.2222222222222222,2,object_07,5,451,0,6,2,forest_13,2,memory-2step-stake-s,540,1744797,0.0-18.0-0.0-0.49,4165,4,3
50,1,object_04,object_05,735.635,2,2,394.715,0.6666666666666666,2,object_07,5,481,0,7,6,desert_15,2,memory-2step-stake-s,541,1753137,0.0-18.0-0.0-0.50,4165,1,2
51,3,object_08,object_01,772.635,6,2,313.26,0.8888888888888888,2,object_07,5,521,0,8,8,library_9,2,memory-2step-stake-s,542,1761662,0.0-18.0-0.0-0.51,4165,5,6
52,1,object_05,object_04,774.145,1,2,461.99,0.3333333333333333,1,object_10,5,536,0,3,8,desert_26,2,memory-2step-stake-s,543,1769745,0.0-18.0-0.0-0.52,4165,2,1
53,1,object_05,object_04,851.445,1,2,376.985,0.4444444444444444,1,object_10,5,556,0,4,7,desert_31,2,memory-2step-stake-s,544,1777837,0.0-18.0-0.0-0.53,4165,2,1
54,4,object_02,object_09,891.63,8,1,-1.0,0.0,2,object_07,1,556,0,3,9,restaurant_29,2,memory-2step-stake-s,545,1786437,0.0-18.0-0.0-0.54,4165,8,7
55,3,object_08,object_01,771.42,5,1,271.355,0.1111111111111111,1,object_10,1,557,0,1,9,library_2,2,memory-2step-stake-s,546,1794129,0.0-18.0-0.0-0.55,4165,5,6
56,4,object_02,object_09,782.985,7,2,-1.0,0.0,1,object_10,1,557,0,1,8,restaurant_21,2,memory-2step-stake-s,547,1802726,0.0-18.0-0.0-0.56,4165,8,7
57,4,object_02,object_09,982.75,8,1,-1.0,0.0,2,object_07,1,557,0,1,8,restaurant_2,2,memory-2step-stake-s,548,1811316,0.0-18.0-0.0-0.57,4165,8,7
58,1,object_04,object_05,599.625,2,2,1052.25,0.8888888888888888,2,object_07,5,597,0,4,8,desert_13,2,memory-2step-stake-s,549,1820557,0.0-18.0-0.0-0.58,4165,1,2
59,2,object_03,object_06,670.66,4,2,407.975,0.8888888888888888,2,object_07,5,637,0,1,8,forest_4,2,memory-2step-stake-s,550,1829167,0.0-18.0-0.0-0.59,4165,3,4
60,4,object_09,object_02,731.525,8,2,368.275,0.7777777777777778,2,object_07,5,672,0,2,7,restaurant_24,2,memory-2step-stake-s,551,1837629,0.0-18.0-0.0-0.60,4165,7,8
61,3,object_08,object_01,963.315,6,2,520.265,0.8888888888888888,2,object_07,1,680,0,1,8,library_20,2,memory-2step-stake-s,552,1846320,0.0-18.0-0.0-0.61,4165,5,6
62,4,object_02,object_09,948.865,7,2,554.51,0.0,1,object_10,5,680,0,0,5,restaurant_15,2,memory-2step-stake-s,553,1854202,0.0-18.0-0.0-0.62,4165,8,7
63,2,object_03,object_06,510.055,4,2,360.31,0.3333333333333333,2,object_07,5,695,0,0,3,forest_26,2,memory-2step-stake-s,554,1862163,0.0-18.0-0.0-0.63,4165,3,4
64,3,object_08,object_01,642.065,5,1,419.34,0.2222222222222222,1,object_10,1,697,0,2,1,library_21,2,memory-2step-stake-s,555,1870085,0.0-18.0-0.0-0.64,4165,5,6
65,4,object_09,object_02,800.95,7,1,71.44,0.4444444444444444,1,object_10,1,701,0,4,3,restaurant_21,2,memory-2step-stake-s,556,1877920,0.0-18.0-0.0-0.65,4165,7,8
66,2,object_06,object_03,679.66,4,1,300.4,0.0,2,object_07,5,701,0,1,0,forest_27,2,memory-2step-stake-s,557,1885502,0.0-18.0-0.0-0.66,4165,4,3
67,4,object_09,object_02,745.53,8,2,316.975,0.1111111111111111,2,object_07,5,706,0,1,1,restaurant_1,2,memory-2step-stake-s,558,1893226,0.0-18.0-0.0-0.67,4165,7,8
68,1,object_04,object_05,317.315,1,1,596.055,0.4444444444444444,1,object_10,5,726,0,4,2,desert_5,2,memory-2step-stake-s,559,1901578,0.0-18.0-0.0-0.68,4165,1,2
69,3,object_08,object_01,685.965,6,2,346.935,0.2222222222222222,2,object_07,1,728,0,3,2,library_26,2,memory-2step-stake-s,560,1909418,0.0-18.0-0.0-0.69,4165,5,6
70,2,object_06,object_03,744.25,3,2,257.385,0.6666666666666666,1,object_10,5,758,0,6,2,forest_6,2,memory-2step-stake-s,561,1917662,0.0-18.0-0.0-0.70,4165,4,3
71,2,object_06,object_03,767.01,3,2,508.835,0.6666666666666666,1,object_10,5,788,0,6,2,forest_6,2,memory-2step-stake-s,562,1926155,0.0-18.0-0.0-0.71,4165,4,3
72,4,object_09,object_02,632.865,8,2,361.6,0.3333333333333333,2,object_07,1,791,0,7,3,restaurant_24,2,memory-2step-stake-s,563,1934147,0.0-18.0-0.0-0.72,4165,7,8
73,3,object_08,object_01,1117.23,6,2,420.595,0.3333333333333333,2,object_07,1,794,0,9,3,library_23,2,memory-2step-stake-s,564,1942188,0.0-18.0-0.0-0.73,4165,5,6
74,2,object_03,object_06,798.155,3,1,442.155,0.8888888888888888,1,object_10,5,834,0,8,4,forest_30,2,memory-2step-stake-s,565,1950800,0.0-18.0-0.0-0.74,4165,3,4
75,3,object_08,object_01,1246.155,5,1,591.755,0.6666666666666666,1,object_10,1,840,0,6,3,library_9,2,memory-2step-stake-s,566,1959349,0.0-18.0-0.0-0.75,4165,5,6
76,3,object_01,object_08,1145.51,5,2,704.0,1.0,1,object_10,1,849,0,9,4,library_4,2,memory-2step-stake-s,567,1968323,0.0-18.0-0.0-0.76,4165,6,5
77,2,object_03,object_06,768.315,3,1,334.935,1.0,1,object_10,5,894,0,9,3,forest_1,2,memory-2step-stake-s,568,1976934,0.0-18.0-0.0-0.77,4165,3,4
78,2,object_06,object_03,993.42,3,2,640.765,0.6666666666666666,1,object_10,5,924,0,6,4,forest_8,2,memory-2step-stake-s,569,1985523,0.0-18.0-0.0-0.78,4165,4,3
79,3,object_08,object_01,1022.7,6,2,399.58,0.4444444444444444,2,object_07,1,928,0,5,4,library_19,2,memory-2step-stake-s,570,1993669,0.0-18.0-0.0-0.79,4165,5,6
80,3,object_08,object_01,1044.92,6,2,405.47,0.8888888888888888,2,object_07,5,968,0,5,8,library_13,2,memory-2step-stake-s,571,2002284,0.0-18.0-0.0-0.80,4165,5,6
81,1,object_04,object_05,858.955,2,2,369.055,0.8888888888888888,2,object_07,5,1008,0,2,8,desert_20,2,memory-2step-stake-s,572,2010833,0.0-18.0-0.0-0.81,4165,1,2
82,4,object_02,object_09,908.375,8,1,607.66,0.7777777777777778,2,object_07,1,1015,0,2,7,restaurant_2,2,memory-2step-stake-s,573,2019515,0.0-18.0-0.0-0.82,4165,8,7
83,1,object_04,object_05,783.725,1,1,374.63,0.1111111111111111,1,object_10,5,1020,0,1,4,desert_15,2,memory-2step-stake-s,574,2027283,0.0-18.0-0.0-0.83,4165,1,2
84,3,object_08,object_01,647.88,6,2,52.01500002,0.2222222222222222,2,object_07,1,1022,0,1,2,library_31,2,memory-2step-stake-s,575,2034871,0.0-18.0-0.0-0.84,4165,5,6
85,3,object_08,object_01,897.225,6,2,377.835,0.3333333333333333,2,object_07,1,1025,0,1,3,library_20,2,memory-2step-stake-s,576,2042915,0.0-18.0-0.0-0.85,4165,5,6
86,1,object_05,object_04,870.47,1,2,642.815,0.2222222222222222,1,object_10,5,1035,0,2,2,desert_27,2,memory-2step-stake-s,577,2051095,0.0-18.0-0.0-0.86,4165,2,1
87,3,object_08,object_01,592.49,5,1,636.66,0.1111111111111111,1,object_10,5,1040,0,1,1,library_26,2,memory-2step-stake-s,578,2059124,0.0-18.0-0.0-0.87,4165,5,6
88,1,object_04,object_05,644.425,1,1,378.94,0.0,1,object_10,5,1040,0,0,2,desert_2,2,memory-2step-stake-s,579,2066797,0.0-18.0-0.0-0.88,4165,1,2
89,3,object_01,object_08,983.305,5,2,376.02,0.2222222222222222,1,object_10,1,1042,0,2,0,library_5,2,memory-2step-stake-s,580,2074685,0.0-18.0-0.0-0.89,4165,6,5
90,1,object_05,object_04,834.195,2,1,345.505,0.3333333333333333,2,object_07,5,1057,0,1,3,desert_26,2,memory-2step-stake-s,581,2082658,0.0-18.0-0.0-0.90,4165,2,1
91,1,object_05,object_04,590.685,1,2,288.12,0.4444444444444444,1,object_10,5,1077,0,4,6,desert_30,2,memory-2step-stake-s,582,2090677,0.0-18.0-0.0-0.91,4165,2,1
92,2,object_03,object_06,684.925,4,2,335.445,0.5555555555555556,2,object_07,5,1102,0,5,5,forest_27,2,memory-2step-stake-s,583,2098891,0.0-18.0-0.0-0.92,4165,3,4
93,4,object_02,object_09,767.06,7,2,313.55,0.6666666666666666,1,object_10,5,1132,0,6,6,restaurant_24,2,memory-2step-stake-s,584,2107133,0.0-18.0-0.0-0.93,4165,8,7
94,4,object_02,object_09,655.825,8,1,356.965,0.4444444444444444,2,object_07,5,1152,0,8,4,restaurant_1,2,memory-2step-stake-s,585,2115262,0.0-18.0-0.0-0.94,4165,8,7
95,3,object_08,object_01,704.76,6,2,413.735,0.2222222222222222,2,object_07,1,1154,0,9,2,library_21,2,memory-2step-stake-s,586,2123233,0.0-18.0-0.0-0.95,4165,5,6
96,1,object_05,object_04,765.5,2,1,342.62,0.3333333333333333,2,object_07,1,1157,0,6,3,desert_13,2,memory-2step-stake-s,587,2131194,0.0-18.0-0.0-0.96,4165,2,1
97,4,object_02,object_09,572.095,7,2,569.45,0.5555555555555556,1,object_10,1,1162,0,5,3,restaurant_26,2,memory-2step-stake-s,588,2139596,0.0-18.0-0.0-0.97,4165,8,7
98,3,object_01,object_08,534.685,6,1,319.525,0.2222222222222222,2,object_07,1,1164,0,6,2,library_28,2,memory-2step-stake-s,589,2147445,0.0-18.0-0.0-0.98,4165,6,5
99,2,object_06,object_03,911.325,3,2,396.95,0.3333333333333333,1,object_10,5,1179,0,3,4,forest_25,2,memory-2step-stake-s,590,2155499,0.0-18.0-0.0-0.99,4165,4,3
100,2,object_03,object_06,866.74,3,1,493.795,0.4444444444444444,1,object_10,5,1199,0,4,3,forest_23,2,memory-2step-stake-s,591,2163766,0.0-18.0-0.0-0.100,4165,3,4
101,4,object_09,object_02,801.33,8,2,426.16,0.2222222222222222,2,object_07,1,1201,0,5,2,restaurant_25,2,memory-2step-stake-s,592,2171745,0.0-18.0-0.0-0.101,4165,7,8
102,4,object_09,object_02,950.485,8,2,347.385,0.0,2,object_07,1,1201,0,4,0,restaurant_2,2,memory-2step-stake-s,593,2179384,0.0-18.0-0.0-0.102,4165,7,8
103,3,object_08,object_01,922.135,6,2,469.83,0.1111111111111111,2,object_07,1,1202,0,5,1,library_17,2,memory-2step-stake-s,594,2187252,0.0-18.0-0.0-0.103,4165,5,6
104,3,object_08,object_01,964.445,5,1,326.7,0.5555555555555556,1,object_10,1,1207,0,5,1,library_31,2,memory-2step-stake-s,595,2195454,0.0-18.0-0.0-0.104,4165,5,6
105,1,object_04,object_05,634.38,1,1,370.095,0.1111111111111111,1,object_10,5,1212,0,1,0,desert_25,2,memory-2step-stake-s,596,2203229,0.0-18.0-0.0-0.105,4165,1,2
106,4,object_02,object_09,1203.485,8,1,394.37,0.0,2,object_07,5,1212,0,0,0,restaurant_5,2,memory-2step-stake-s,597,2210908,0.0-18.0-0.0-0.106,4165,8,7
107,2,object_03,object_06,804.81,4,2,604.98,0.3333333333333333,2,object_07,5,1227,0,4,3,forest_29,2,memory-2step-stake-s,598,2219134,0.0-18.0-0.0-0.107,4165,3,4
108,3,object_08,object_01,754.725,6,2,488.5,0.1111111111111111,2,object_07,1,1228,0,5,1,library_2,2,memory-2step-stake-s,599,2227037,0.0-18.0-0.0-0.108,4165,5,6
109,2,object_03,object_06,760.45,3,1,521.005,0.6666666666666666,1,object_10,5,1258,0,6,3,forest_23,2,memory-2step-stake-s,600,2235543,0.0-18.0-0.0-0.109,4165,3,4
110,3,object_08,object_01,604.545,6,2,339.97,0.3333333333333333,2,object_07,1,1261,0,5,3,library_28,2,memory-2step-stake-s,601,2243507,0.0-18.0-0.0-0.110,4165,5,6
111,1,object_04,object_05,828.21,1,1,557.475,0.6666666666666666,1,object_10,5,1291,0,6,2,desert_15,2,memory-2step-stake-s,602,2252022,0.0-18.0-0.0-0.111,4165,1,2
112,4,object_09,object_02,680.33,8,2,476.14,0.3333333333333333,2,object_07,1,1294,0,2,3,restaurant_30,2,memory-2step-stake-s,603,2260115,0.0-18.0-0.0-0.112,4165,7,8
113,2,object_03,object_06,729.605,4,2,386.505,0.1111111111111111,2,object_07,1,1295,0,2,1,forest_13,2,memory-2step-stake-s,604,2267902,0.0-18.0-0.0-0.113,4165,3,4
114,1,object_05,object_04,707.46,2,1,486.835,0.4444444444444444,2,object_07,5,1315,0,5,4,desert_1,2,memory-2step-stake-s,605,2276131,0.0-18.0-0.0-0.114,4165,2,1
115,2,object_06,object_03,689.095,3,2,505.08,0.6666666666666666,1,object_10,5,1345,0,6,5,forest_29,2,memory-2step-stake-s,606,2284589,0.0-18.0-0.0-0.115,4165,4,3
116,1,object_05,object_04,663.27,2,1,455.85,0.7777777777777778,2,object_07,5,1380,0,5,7,desert_8,2,memory-2step-stake-s,607,2293138,0.0-18.0-0.0-0.116,4165,2,1
117,3,object_08,object_01,966.645,5,1,630.865,0.3333333333333333,1,object_10,5,1395,0,3,9,library_5,2,memory-2step-stake-s,608,2301386,0.0-18.0-0.0-0.117,4165,5,6
118,1,object_04,object_05,674.665,2,2,352.64,0.7777777777777778,2,object_07,5,1430,0,3,7,desert_1,2,memory-2step-stake-s,609,2309863,0.0-18.0-0.0-0.118,4165,1,2
119,3,object_08,object_01,728.495,6,2,333.435,1.0,2,object_07,1,1439,0,7,9,library_5,2,memory-2step-stake-s,610,2318514,0.0-18.0-0.0-0.119,4165,5,6
120,1,object_05,object_04,746.355,2,1,413.98,0.8888888888888888,2,object_07,5,1479,0,8,8,desert_27,2,memory-2step-stake-s,611,2327115,0.0-18.0-0.0-0.120,4165,2,1
121,4,object_09,object_02,703.965,7,1,422.37,0.7777777777777778,1,object_10,1,1486,0,7,8,restaurant_21,2,memory-2step-stake-s,612,2335619,0.0-18.0-0.0-0.121,4165,7,8
122,3,object_08,object_01,1095.57,5,1,400.515,0.6666666666666666,1,object_10,1,1492,0,6,7,library_29,2,memory-2step-stake-s,613,2344015,0.0-18.0-0.0-0.122,4165,5,6
123,1,object_04,object_05,651.0,2,2,358.38,0.6666666666666666,2,object_07,5,1522,0,3,6,desert_2,2,memory-2step-stake-s,614,2352338,0.0-18.0-0.0-0.123,4165,1,2
124,3,object_08,object_01,734.925,5,1,313.81,0.0,1,object_10,1,1522,0,0,2,library_2,2,memory-2step-stake-s,615,2359936,0.0-18.0-0.0-0.124,4165,5,6
125,4,object_02,object_09,788.55,7,2,353.62,0.4444444444444444,1,object_10,1,1526,0,4,3,restaurant_5,2,memory-2step-stake-s,616,2368026,0.0-18.0-0.0-0.125,4165,8,7
126,4,object_02,object_09,689.025,7,2,284.605,0.5555555555555556,1,object_10,1,1531,0,5,5,restaurant_27,2,memory-2step-stake-s,617,2376184,0.0-18.0-0.0-0.126,4165,8,7
127,1,object_04,object_05,544.725,2,2,334.32,0.2222222222222222,2,object_07,1,1533,0,2,2,desert_8,2,memory-2step-stake-s,618,2384073,0.0-18.0-0.0-0.127,4165,1,2
128,3,object_01,object_08,843.845,5,2,429.55,0.3333333333333333,1,object_10,1,1536,0,3,3,library_14,2,memory-2step-stake-s,620,2470510,0.0-18.0-0.1-0.128,4165,6,5
129,3,object_01,object_08,769.635,5,2,298.045,0.3333333333333333,1,object_10,5,1551,0,3,3,library_20,2,memory-2step-stake-s,621,2478440,0.0-18.0-0.1-0.129,4165,6,5
130,2,object_03,object_06,759.405,3,1,444.115,0.2222222222222222,1,object_10,1,1553,0,2,2,forest_4,2,memory-2step-stake-s,622,2486405,0.0-18.0-0.1-0.130,4165,3,4
131,4,object_02,object_09,597.38,7,2,321.26,0.0,1,object_10,1,1553,0,0,3,restaurant_23,2,memory-2step-stake-s,623,2493996,0.0-18.0-0.1-0.131,4165,8,7
132,3,object_01,object_08,642.545,5,2,246.76,0.1111111111111111,1,object_10,5,1558,0,1,1,library_4,2,memory-2step-stake-s,624,2501636,0.0-18.0-0.1-0.132,4165,6,5
133,2,object_03,object_06,574.145,4,2,340.045,0.2222222222222222,2,object_07,1,1560,0,2,2,forest_6,2,memory-2step-stake-s,625,2509466,0.0-18.0-0.1-0.133,4165,3,4
134,4,object_02,object_09,669.79,7,2,368.515,0.5555555555555556,1,object_10,1,1565,0,5,5,restaurant_16,2,memory-2step-stake-s,626,2517665,0.0-18.0-0.1-0.134,4165,8,7
135,3,object_01,object_08,756.15,6,1,364.285,0.4444444444444444,2,object_07,1,1569,0,5,4,library_28,2,memory-2step-stake-s,627,2525768,0.0-18.0-0.1-0.135,4165,6,5
136,2,object_03,object_06,870.67,4,2,224.995,0.4444444444444444,2,object_07,1,1573,0,5,4,forest_30,2,memory-2step-stake-s,628,2533748,0.0-18.0-0.1-0.136,4165,3,4
137,4,object_09,object_02,744.925,7,1,252.685,0.4444444444444444,1,object_10,1,1577,0,4,5,restaurant_21,2,memory-2step-stake-s,629,2541719,0.0-18.0-0.1-0.137,4165,7,8
138,4,object_02,object_09,670.44,7,2,340.215,0.2222222222222222,1,object_10,5,1587,0,2,5,restaurant_29,2,memory-2step-stake-s,630,2549598,0.0-18.0-0.1-0.138,4165,8,7
139,1,object_04,object_05,580.505,2,2,317.005,0.5555555555555556,2,object_07,1,1592,0,3,5,desert_26,2,memory-2step-stake-s,631,2557771,0.0-18.0-0.1-0.139,4165,1,2
140,2,object_03,object_06,859.33,3,1,406.18,0.3333333333333333,1,object_10,5,1607,0,3,5,forest_3,2,memory-2step-stake-s,632,2565810,0.0-18.0-0.1-0.140,4165,3,4
141,1,object_04,object_05,435.81,2,2,490.255,0.6666666666666666,2,object_07,5,1637,0,3,6,desert_32,2,memory-2step-stake-s,633,2574263,0.0-18.0-0.1-0.141,4165,1,2
142,2,object_03,object_06,919.39,3,1,321.575,0.7777777777777778,1,object_10,1,1644,0,7,4,forest_17,2,memory-2step-stake-s,634,2582610,0.0-18.0-0.1-0.142,4165,3,4
143,2,object_06,object_03,682.915,4,1,289.635,0.3333333333333333,2,object_07,5,1659,0,5,3,forest_1,2,memory-2step-stake-s,635,2590556,0.0-18.0-0.1-0.143,4165,4,3
144,3,object_01,object_08,882.555,6,1,382.685,0.4444444444444444,2,object_07,5,1679,0,2,4,library_31,2,memory-2step-stake-s,636,2598697,0.0-18.0-0.1-0.144,4165,6,5
145,4,object_02,object_09,956.005,8,1,325.365,0.6666666666666666,2,object_07,1,1685,0,3,6,restaurant_26,2,memory-2step-stake-s,637,2606985,0.0-18.0-0.1-0.145,4165,8,7
146,3,object_01,object_08,669.945,6,1,356.385,0.7777777777777778,2,object_07,1,1692,0,3,7,library_13,2,memory-2step-stake-s,638,2615384,0.0-18.0-0.1-0.146,4165,6,5
147,2,object_06,object_03,885.295,3,2,382.32,0.7777777777777778,1,object_10,5,1727,0,7,8,forest_29,2,memory-2step-stake-s,639,2623834,0.0-18.0-0.1-0.147,4165,4,3
148,1,object_05,object_04,520.415,2,1,309.765,0.7777777777777778,2,object_07,1,1734,0,6,7,desert_13,2,memory-2step-stake-s,640,2632179,0.0-18.0-0.1-0.148,4165,2,1
149,4,object_02,object_09,703.15,7,2,294.29,0.4444444444444444,1,object_10,5,1754,0,4,7,restaurant_27,2,memory-2step-stake-s,641,2640229,0.0-18.0-0.1-0.149,4165,8,7
150,1,object_05,object_04,569.285,2,1,366.695,0.6666666666666666,2,object_07,5,1784,0,6,6,desert_32,2,memory-2step-stake-s,642,2648561,0.0-18.0-0.1-0.150,4165,2,1
151,3,object_08,object_01,859.24,6,2,413.87,0.5555555555555556,2,object_07,5,1809,0,4,5,library_26,2,memory-2step-stake-s,643,2656860,0.0-18.0-0.1-0.151,4165,5,6
152,2,object_06,object_03,738.075,3,2,488.73,0.4444444444444444,1,object_10,5,1829,0,4,4,forest_26,2,memory-2step-stake-s,644,2665080,0.0-18.0-0.1-0.152,4165,4,3
153,4,object_09,object_02,860.75,7,1,315.95,0.6666666666666666,1,object_10,1,1835,0,6,5,restaurant_18,2,memory-2step-stake-s,645,2673397,0.0-18.0-0.1-0.153,4165,7,8
154,2,object_06,object_03,993.695,4,1,374.41,0.6666666666666666,2,object_07,5,1865,0,4,6,forest_21,2,memory-2step-stake-s,646,2681744,0.0-18.0-0.1-0.154,4165,4,3
155,4,object_02,object_09,752.03,7,2,347.77,0.3333333333333333,1,object_10,1,1868,0,3,7,restaurant_25,2,memory-2step-stake-s,647,2689779,0.0-18.0-0.1-0.155,4165,8,7
156,3,object_08,object_01,799.875,6,2,742.11,0.6666666666666666,2,object_07,1,1874,0,5,6,library_13,2,memory-2step-stake-s,648,2698506,0.0-18.0-0.1-0.156,4165,5,6
157,4,object_02,object_09,873.58,7,2,391.3,0.6666666666666666,1,object_10,1,1880,0,6,7,restaurant_5,2,memory-2step-stake-s,649,2706866,0.0-18.0-0.1-0.157,4165,8,7
158,2,object_06,object_03,952.37,3,2,465.245,0.8888888888888888,1,object_10,5,1920,0,8,6,forest_17,2,memory-2step-stake-s,650,2715515,0.0-18.0-0.1-0.158,4165,4,3
159,1,object_04,object_05,758.115,2,2,334.085,0.6666666666666666,2,object_07,5,1950,0,6,6,desert_24,2,memory-2step-stake-s,651,2723813,0.0-18.0-0.1-0.159,4165,1,2
160,1,object_05,object_04,550.13,2,1,330.765,0.7777777777777778,2,object_07,1,1957,0,9,7,desert_27,2,memory-2step-stake-s,652,2732211,0.0-18.0-0.1-0.160,4165,2,1
161,3,object_01,object_08,632.595,6,1,367.315,1.0,2,object_07,5,2002,0,7,9,library_21,2,memory-2step-stake-s,653,2740894,0.0-18.0-0.1-0.161,4165,6,5
162,4,object_02,object_09,769.905,7,2,455.675,0.7777777777777778,1,object_10,5,2037,0,7,6,restaurant_18,2,memory-2step-stake-s,654,2749412,0.0-18.0-0.1-0.162,4165,8,7
163,2,object_03,object_06,823.065,3,1,413.605,0.8888888888888888,1,object_10,1,2045,0,8,5,forest_5,2,memory-2step-stake-s,655,2758035,0.0-18.0-0.1-0.163,4165,3,4
164,3,object_08,object_01,693.96,6,2,361.935,0.1111111111111111,2,object_07,1,2046,0,9,1,library_14,2,memory-2step-stake-s,656,2765820,0.0-18.0-0.1-0.164,4165,5,6
165,1,object_04,object_05,545.1,2,2,435.675,0.3333333333333333,2,object_07,1,2049,0,7,3,desert_24,2,memory-2step-stake-s,657,2773868,0.0-18.0-0.1-0.165,4165,1,2
166,4,object_09,object_02,892.075,7,1,515.52,0.7777777777777778,1,object_10,5,2084,0,7,0,restaurant_16,2,memory-2step-stake-s,658,2782442,0.0-18.0-0.1-0.166,4165,7,8
167,2,object_06,object_03,739.04,3,2,339.005,0.7777777777777778,1,object_10,5,2119,0,7,1,forest_17,2,memory-2step-stake-s,659,2790891,0.0-18.0-0.1-0.167,4165,4,3
168,4,object_02,object_09,806.795,7,2,447.42,0.8888888888888888,1,object_10,1,2127,0,8,1,restaurant_30,2,memory-2step-stake-s,660,2799563,0.0-18.0-0.1-0.168,4165,8,7
169,1,object_05,object_04,491.63,2,1,383.4,0.1111111111111111,2,object_07,1,2128,0,7,1,desert_5,2,memory-2step-stake-s,661,2807311,0.0-18.0-0.1-0.169,4165,2,1
170,2,object_03,object_06,738.77,3,1,328.04,0.8888888888888888,1,object_10,5,2168,0,8,1,forest_26,2,memory-2step-stake-s,662,2815837,0.0-18.0-0.1-0.170,4165,3,4
171,4,object_09,object_02,764.045,7,1,328.965,0.5555555555555556,1,object_10,1,2173,0,5,5,restaurant_15,2,memory-2step-stake-s,663,2824020,0.0-18.0-0.1-0.171,4165,7,8
172,2,object_06,object_03,1366.56,3,2,442.905,0.1111111111111111,1,object_10,5,2178,0,1,8,forest_3,2,memory-2step-stake-s,664,2831876,0.0-18.0-0.1-0.172,4165,4,3
173,1,object_05,object_04,823.82,2,1,516.285,0.5555555555555556,2,object_07,5,2203,0,1,5,desert_25,2,memory-2step-stake-s,665,2840271,0.0-18.0-0.1-0.173,4165,2,1
174,1,object_05,object_04,644.155,2,1,359.29,0.6666666666666666,2,object_07,5,2233,0,2,6,desert_30,2,memory-2step-stake-s,666,2848568,0.0-18.0-0.1-0.174,4165,2,1
175,2,object_06,object_03,727.885,3,2,491.9,0.4444444444444444,1,object_10,1,2237,0,4,7,forest_10,2,memory-2step-stake-s,667,2856799,0.0-18.0-0.1-0.175,4165,4,3
176,2,object_03,object_06,771.735,4,2,471.25,0.8888888888888888,2,object_07,5,2277,0,2,8,forest_30,2,memory-2step-stake-s,668,2865458,0.0-18.0-0.1-0.176,4165,3,4
177,4,object_02,object_09,863.905,7,2,321.05,0.2222222222222222,1,object_10,1,2279,0,2,7,restaurant_1,2,memory-2step-stake-s,669,2873332,0.0-18.0-0.1-0.177,4165,8,7
178,3,object_08,object_01,767.06,6,2,426.735,0.6666666666666666,2,object_07,1,2285,0,5,6,library_16,2,memory-2step-stake-s,670,2881740,0.0-18.0-0.1-0.178,4165,5,6
179,4,object_09,object_02,860.6,7,1,428.75,0.3333333333333333,1,object_10,1,2288,0,3,8,restaurant_19,2,memory-2step-stake-s,671,2889830,0.0-18.0-0.1-0.179,4165,7,8
180,3,object_01,object_08,892.5,6,1,412.855,0.5555555555555556,2,object_07,5,2313,0,2,5,library_5,2,memory-2step-stake-s,672,2898056,0.0-18.0-0.1-0.180,4165,6,5
181,2,object_03,object_06,1344.08,3,1,499.49,0.5555555555555556,1,object_10,5,2338,0,5,9,forest_25,2,memory-2step-stake-s,673,2906424,0.0-18.0-0.1-0.181,4165,3,4
182,4,object_09,object_02,667.36,7,1,313.76,0.5555555555555556,1,object_10,1,2343,0,5,3,restaurant_19,2,memory-2step-stake-s,674,2914607,0.0-18.0-0.1-0.182,4165,7,8
183,2,object_03,object_06,1202.075,4,2,408.685,0.1111111111111111,2,object_07,1,2344,0,7,1,forest_13,2,memory-2step-stake-s,675,2922436,0.0-18.0-0.1-0.183,4165,3,4
184,3,object_08,object_01,645.05,6,2,463.685,0.3333333333333333,2,object_07,5,2359,0,9,3,library_20,2,memory-2step-stake-s,676,2930510,0.0-18.0-0.1-0.184,4165,5,6
185,3,object_08,object_01,688.195,6,2,387.965,0.2222222222222222,2,object_07,1,2361,0,3,2,library_16,2,memory-2step-stake-s,677,2938408,0.0-18.0-0.1-0.185,4165,5,6
186,4,object_02,object_09,904.635,7,2,549.28,0.2222222222222222,1,object_10,5,2371,0,2,1,restaurant_28,2,memory-2step-stake-s,678,2946466,0.0-18.0-0.1-0.186,4165,8,7
187,3,object_08,object_01,813.695,6,2,399.95,0.2222222222222222,2,object_07,1,2373,0,2,2,library_13,2,memory-2step-stake-s,679,2954375,0.0-18.0-0.1-0.187,4165,5,6
188,3,object_08,object_01,568.82,6,2,353.625,0.2222222222222222,2,object_07,1,2375,0,3,2,library_21,2,memory-2step-stake-s,680,2962234,0.0-18.0-0.1-0.188,4165,5,6
189,4,object_09,object_02,698.835,7,1,506.42,0.3333333333333333,1,object_10,5,2390,0,3,2,restaurant_27,2,memory-2step-stake-s,681,2970364,0.0-18.0-0.1-0.189,4165,7,8
190,4,object_02,object_09,923.615,8,1,348.665,0.0,2,object_07,1,2390,0,3,0,restaurant_23,2,memory-2step-stake-s,682,2978000,0.0-18.0-0.1-0.190,4165,8,7
191,4,object_09,object_02,938.175,7,1,341.855,0.1111111111111111,1,object_10,5,2395,0,1,1,restaurant_18,2,memory-2step-stake-s,683,2985730,0.0-18.0-0.1-0.191,4165,7,8
192,1,object_04,object_05,632.57,2,2,293.12,0.1111111111111111,2,object_07,1,2396,0,1,1,desert_31,2,memory-2step-stake-s,684,2993442,0.0-18.0-0.1-0.192,4165,1,2
193,4,object_02,object_09,651.055,8,1,364.86,0.1111111111111111,2,object_07,1,2397,0,2,1,restaurant_29,2,memory-2step-stake-s,685,3001227,0.0-18.0-0.1-0.193,4165,8,7
194,1,object_05,object_04,505.0,2,1,657.355,0.4444444444444444,2,object_07,1,2401,0,4,4,desert_20,2,memory-2step-stake-s,686,3009615,0.0-18.0-0.1-0.194,4165,2,1
195,4,object_02,object_09,839.24,7,2,431.23,0.3333333333333333,1,object_10,1,2404,0,3,5,restaurant_16,2,memory-2step-stake-s,687,3017675,0.0-18.0-0.1-0.195,4165,8,7
196,2,object_03,object_06,1120.865,3,1,609.365,0.3333333333333333,1,object_10,5,2419,0,3,6,forest_21,2,memory-2step-stake-s,688,3025936,0.0-18.0-0.1-0.196,4165,3,4
197,3,object_01,object_08,801.21,6,1,249.105,0.6666666666666666,2,object_07,1,2425,0,1,6,library_31,2,memory-2step-stake-s,689,3034116,0.0-18.0-0.1-0.197,4165,6,5
198,4,object_02,object_09,988.175,7,2,446.64,0.1111111111111111,1,object_10,1,2426,0,1,3,restaurant_30,2,memory-2step-stake-s,690,3041958,0.0-18.0-0.1-0.198,4165,8,7
199,2,object_03,object_06,1343.29,3,1,412.52,0.1111111111111111,1,object_10,5,2431,0,1,1,forest_8,2,memory-2step-stake-s,691,3049795,0.0-18.0-0.1-0.199,4165,3,4
200,3,object_08,object_01,766.9,6,2,277.13,0.1111111111111111,2,object_07,5,2436,0,1,1,library_16,2,memory-2step-stake-s,692,3057487,0.0-18.0-0.1-0.200,4165,5,6
201,4,object_02,object_09,1194.645,7,2,425.71,0.0,1,object_10,1,2436,0,0,5,restaurant_15,2,memory-2step-stake-s,693,3065249,0.0-18.0-0.1-0.201,4165,8,7
202,3,object_08,object_01,618.315,6,2,323.275,0.5555555555555556,2,object_07,1,2441,0,5,5,library_14,2,memory-2step-stake-s,694,3073440,0.0-18.0-0.1-0.202,4165,5,6
203,1,object_04,object_05,676.6,2,2,379.265,0.7777777777777778,2,object_07,1,2448,0,2,7,desert_29,2,memory-2step-stake-s,695,3081875,0.0-18.0-0.1-0.203,4165,1,2
204,3,object_08,object_01,1263.275,6,2,396.24,0.7777777777777778,2,object_07,1,2455,0,0,7,library_4,2,memory-2step-stake-s,696,3090356,0.0-18.0-0.1-0.204,4165,5,6
205,2,object_03,object_06,-1.0,-1,-1,-1.0,0.0,-,,1,2455,0,0,4,forest_23,2,memory-2step-stake-s,697,3096932,0.0-18.0-0.1-0.205,4165,3,4
206,1,object_04,object_05,526.925,2,2,396.66,0.3333333333333333,2,object_07,5,2470,0,3,3,desert_8,2,memory-2step-stake-s,698,3104942,0.0-18.0-0.1-0.206,4165,1,2
207,3,object_01,object_08,1135.67,6,1,337.77,0.2222222222222222,2,object_07,1,2472,0,0,2,library_29,2,memory-2step-stake-s,699,3112790,0.0-18.0-0.1-0.207,4165,6,5
208,4,object_09,object_02,690.34,7,1,180.615,0.1111111111111111,1,object_10,1,2473,0,1,2,restaurant_29,2,memory-2step-stake-s,700,3120407,0.0-18.0-0.1-0.208,4165,7,8
209,2,object_06,object_03,-1.0,-1,-1,-1.0,0.0,-,,5,2473,0,2,3,forest_27,2,memory-2step-stake-s,701,3126974,0.0-18.0-0.1-0.209,4165,4,3
210,2,object_06,object_03,466.385,3,2,184.925,0.2222222222222222,1,object_10,5,2483,0,2,3,forest_13,2,memory-2step-stake-s,702,3134665,0.0-18.0-0.1-0.210,4165,4,3
211,1,object_04,object_05,705.02,1,1,295.965,0.4444444444444444,1,object_10,1,2487,0,4,5,desert_31,2,memory-2step-stake-s,703,3142690,0.0-18.0-0.1-0.211,4165,1,2
212,3,object_01,object_08,700.23,5,2,236.645,0.3333333333333333,1,object_10,1,2490,0,3,3,library_19,2,memory-2step-stake-s,704,3150525,0.0-18.0-0.1-0.212,4165,6,5
213,4,object_09,object_02,627.795,7,1,324.43,0.3333333333333333,1,object_10,1,2493,0,3,0,restaurant_19,2,memory-2step-stake-s,705,3158480,0.0-18.0-0.1-0.213,4165,7,8
214,1,object_04,object_05,530.405,2,2,247.23,0.1111111111111111,2,object_07,5,2498,0,6,1,desert_29,2,memory-2step-stake-s,706,3166123,0.0-18.0-0.1-0.214,4165,1,2
215,1,object_04,object_05,487.085,2,2,469.01,0.1111111111111111,2,object_07,5,2503,0,3,1,desert_1,2,memory-2step-stake-s,707,3173999,0.0-18.0-0.1-0.215,4165,1,2
216,1,object_04,object_05,500.425,2,2,332.835,0.0,2,object_07,5,2503,0,5,0,desert_25,2,memory-2step-stake-s,708,3181641,0.0-18.0-0.1-0.216,4165,1,2
217,3,object_01,object_08,886.085,6,1,488.275,0.2222222222222222,2,object_07,5,2513,0,5,2,library_14,2,memory-2step-stake-s,709,3189627,0.0-18.0-0.1-0.217,4165,6,5
218,2,object_03,object_06,932.65,3,1,318.16,0.7777777777777778,1,object_10,5,2548,0,7,3,forest_1,2,memory-2step-stake-s,710,3198040,0.0-18.0-0.1-0.218,4165,3,4
219,3,object_08,object_01,876.34,5,1,438.3,0.8888888888888888,1,object_10,5,2588,0,8,0,library_9,2,memory-2step-stake-s,711,3206681,0.0-18.0-0.1-0.219,4165,5,6
220,4,object_09,object_02,768.3,7,1,298.77,1.0,1,object_10,5,2633,0,9,3,restaurant_28,2,memory-2step-stake-s,712,3215240,0.0-18.0-0.1-0.220,4165,7,8
221,4,object_02,object_09,763.655,8,1,284.63,0.3333333333333333,2,object_07,1,2636,0,9,3,restaurant_15,2,memory-2step-stake-s,713,3223176,0.0-18.0-0.1-0.221,4165,8,7
222,2,object_06,object_03,743.66,3,2,305.53,0.6666666666666666,1,object_10,5,2666,0,6,3,forest_8,2,memory-2step-stake-s,714,3231439,0.0-18.0-0.1-0.222,4165,4,3
223,2,object_03,object_06,803.455,4,2,469.145,0.2222222222222222,2,object_07,5,2676,0,4,2,forest_10,2,memory-2step-stake-s,715,3239445,0.0-18.0-0.1-0.223,4165,3,4
224,4,object_02,object_09,900.19,8,1,366.22,0.3333333333333333,2,object_07,1,2679,0,4,3,restaurant_27,2,memory-2step-stake-s,716,3247472,0.0-18.0-0.1-0.224,4165,8,7
225,1,object_05,object_04,684.135,2,1,388.82,0.2222222222222222,2,object_07,1,2681,0,3,2,desert_32,2,memory-2step-stake-s,717,3255406,0.0-18.0-0.1-0.225,4165,2,1
226,1,object_05,object_04,599.935,1,2,302.025,0.2222222222222222,1,object_10,5,2691,0,2,3,desert_24,2,memory-2step-stake-s,718,3263255,0.0-18.0-0.1-0.226,4165,2,1
227,1,object_05,object_04,584.48,2,1,337.205,0.5555555555555556,2,object_07,5,2716,0,0,5,desert_26,2,memory-2step-stake-s,719,3271439,0.0-18.0-0.1-0.227,4165,2,1
228,1,object_05,object_04,617.2,2,1,18.76000001,0.8888888888888888,2,object_07,1,2724,0,1,8,desert_30,2,memory-2step-stake-s,720,3279706,0.0-18.0-0.1-0.228,4165,2,1
229,2,object_06,object_03,616.445,3,2,382.285,0.3333333333333333,1,object_10,1,2727,0,3,7,forest_4,2,memory-2step-stake-s,721,3287755,0.0-18.0-0.1-0.229,4165,4,3
230,3,object_08,object_01,915.88,6,2,370.64,0.6666666666666666,2,object_07,1,2733,0,3,6,library_19,2,memory-2step-stake-s,722,3296122,0.0-18.0-0.1-0.230,4165,5,6
231,2,object_06,object_03,367.785,3,2,295.87,0.2222222222222222,1,object_10,5,2743,0,2,8,forest_1,2,memory-2step-stake-s,723,3303935,0.0-18.0-0.1-0.231,4165,4,3
232,2,object_03,object_06,592.54,3,1,253.77,0.4444444444444444,1,object_10,5,2763,0,4,8,forest_21,2,memory-2step-stake-s,724,3311972,0.0-18.0-0.1-0.232,4165,3,4
233,3,object_01,object_08,649.96,6,1,329.925,0.6666666666666666,2,object_07,1,2769,0,1,6,library_4,2,memory-2step-stake-s,725,3320255,0.0-18.0-0.1-0.233,4165,6,5
234,2,object_06,object_03,852.075,3,2,349.58,0.1111111111111111,1,object_10,5,2774,0,1,5,forest_17,2,memory-2step-stake-s,726,3328021,0.0-18.0-0.1-0.234,4165,4,3
235,1,object_04,object_05,650.435,1,1,161.515,0.4444444444444444,1,object_10,1,2778,0,4,3,desert_24,2,memory-2step-stake-s,727,3335938,0.0-18.0-0.1-0.235,4165,1,2
236,1,object_04,object_05,610.765,2,2,341.915,0.1111111111111111,2,object_07,1,2779,0,5,1,desert_30,2,memory-2step-stake-s,728,3343685,0.0-18.0-0.1-0.236,4165,1,2
237,1,object_04,object_05,416.935,2,2,507.44,0.2222222222222222,2,object_07,5,2789,0,5,2,desert_32,2,memory-2step-stake-s,729,3351738,0.0-18.0-0.1-0.237,4165,1,2
238,1,object_04,object_05,440.79,2,2,275.13,0.0,2,object_07,5,2789,0,7,0,desert_31,2,memory-2step-stake-s,730,3359272,0.0-18.0-0.1-0.238,4165,1,2
239,2,object_03,object_06,884.54,4,2,624.385,0.0,2,object_07,5,2789,0,6,0,forest_21,2,memory-2step-stake-s,731,3367202,0.0-18.0-0.1-0.239,4165,3,4
240,3,object_08,object_01,1384.21,6,2,437.065,0.1111111111111111,2,object_07,1,2790,0,7,1,library_19,2,memory-2step-stake-s,732,3375057,0.0-18.0-0.1-0.240,4165,5,6
241,4,object_09,object_02,558.465,7,1,467.3,0.7777777777777778,1,object_10,5,2825,0,7,4,restaurant_26,2,memory-2step-stake-s,733,3383623,0.0-18.0-0.1-0.241,4165,7,8
242,2,object_03,object_06,1103.72,3,1,327.705,0.3333333333333333,1,object_10,5,2840,0,3,4,forest_29,2,memory-2step-stake-s,734,3391580,0.0-18.0-0.1-0.242,4165,3,4
243,2,object_03,object_06,1134.045,4,2,362.38,0.2222222222222222,2,object_07,1,2842,0,1,2,forest_30,2,memory-2step-stake-s,735,3399456,0.0-18.0-0.1-0.243,4165,3,4
244,4,object_02,object_09,733.96,7,2,426.94,0.1111111111111111,1,object_10,5,2847,0,1,1,restaurant_28,2,memory-2step-stake-s,736,3407291,0.0-18.0-0.1-0.244,4165,8,7
245,4,object_09,object_02,850.225,7,1,231.84,0.1111111111111111,1,object_10,1,2848,0,1,7,restaurant_5,2,memory-2step-stake-s,737,3414943,0.0-18.0-0.1-0.245,4165,7,8
246,4,object_02,object_09,679.43,7,2,325.045,0.2222222222222222,1,object_10,1,2850,0,2,8,restaurant_16,2,memory-2step-stake-s,738,3422778,0.0-18.0-0.1-0.246,4165,8,7
247,4,object_02,object_09,677.84,8,1,49.02000001,0.7777777777777778,2,object_07,1,2857,0,1,7,restaurant_25,2,memory-2step-stake-s,739,3430879,0.0-18.0-0.1-0.247,4165,8,7
248,2,object_03,object_06,818.57,4,2,496.105,0.8888888888888888,2,object_07,5,2897,0,1,8,forest_3,2,memory-2step-stake-s,740,3439573,0.0-18.0-0.1-0.248,4165,3,4
249,4,object_02,object_09,802.485,7,2,378.435,0.1111111111111111,1,object_10,1,2898,0,1,9,restaurant_25,2,memory-2step-stake-s,741,3447331,0.0-18.0-0.1-0.249,4165,8,7
250,2,object_03,object_06,973.455,4,2,370.93,0.8888888888888888,2,object_07,5,2938,0,5,8,forest_4,2,memory-2step-stake-s,742,3455876,0.0-18.0-0.1-0.250,4165,3,4
251,1,object_04,object_05,698.07,2,2,153.945,1.0,2,object_07,5,2983,0,5,9,desert_13,2,memory-2step-stake-s,743,3464353,0.0-18.0-0.1-0.251,4165,1,2
252,4,object_09,object_02,806.825,7,1,277.11,0.8888888888888888,1,object_10,5,3023,0,8,4,restaurant_24,2,memory-2step-stake-s,744,3472821,0.0-18.0-0.1-0.252,4165,7,8
253,2,object_03,object_06,1064.32,3,1,387.18,0.4444444444444444,1,object_10,5,3043,0,4,5,forest_10,2,memory-2step-stake-s,745,3480948,0.0-18.0-0.1-0.253,4165,3,4
254,3,object_01,object_08,851.83,5,2,293.66,0.6666666666666666,1,object_10,5,3073,0,6,8,library_2,2,memory-2step-stake-s,746,3489215,0.0-18.0-0.1-0.254,4165,6,5
255,3,object_08,object_01,635.585,6,2,378.71,0.5555555555555556,2,object_07,1,3078,0,4,5,library_29,2,memory-2step-stake-s,747,3497461,0.0-18.0-0.1-0.255,4165,5,6
