,state1,stim_left,stim_right,rt_1,choice1,response1,rt_2,points,state2,stim_state2,stake,score,practice,rews1,rews2,background,high_arm,trial_type,trial_index,time_elapsed,internal_node_id,subid,stim_left_num,stim_right_num
0,3,object_08,object_06,955.72,5,2,675.905,0.1111111111111111,1,object_02,5,5,0,1,2,library_19,1,memory-2step-stake-s,495,1087166,0.0-18.0-0.0-0.0,4459,6,5
1,4,object_09,object_04,629.99,8,1,657.535,0.0,2,object_07,5,5,0,0,0,restaurant_22,1,memory-2step-stake-s,496,1095044,0.0-18.0-0.0-0.1,4459,8,7
2,3,object_06,object_08,474.625,6,2,421.865,0.1111111111111111,2,object_07,5,10,0,3,1,library_13,1,memory-2step-stake-s,497,1102787,0.0-18.0-0.0-0.2,4459,5,6
3,1,object_01,object_05,1123.275,2,1,768.565,0.1111111111111111,2,object_07,5,15,0,1,1,desert_12,1,memory-2step-stake-s,498,1110875,0.0-18.0-0.0-0.3,4459,2,1
4,2,object_10,object_03,623.79,4,2,701.055,0.2222222222222222,2,object_07,1,17,0,4,2,forest_23,1,memory-2step-stake-s,499,1118999,0.0-18.0-0.0-0.4,4459,3,4
5,4,object_09,object_04,1254.375,7,2,425.93,0.4444444444444444,1,object_02,5,37,0,4,0,restaurant_4,1,memory-2step-stake-s,500,1127046,0.0-18.0-0.0-0.5,4459,8,7
6,1,object_05,object_01,785.17,2,2,444.805,0.3333333333333333,2,object_07,5,52,0,1,3,desert_3,1,memory-2step-stake-s,501,1135014,0.0-18.0-0.0-0.6,4459,1,2
7,4,object_04,object_09,773.51,7,1,374.395,0.1111111111111111,1,object_02,1,53,0,1,3,restaurant_19,1,memory-2step-stake-s,502,1142708,0.0-18.0-0.0-0.7,4459,7,8
8,1,object_05,object_01,533.95,2,2,316.84,0.4444444444444444,2,object_07,1,57,0,1,4,desert_20,1,memory-2step-stake-s,503,1150646,0.0-18.0-0.0-0.8,4459,1,2
9,3,object_06,object_08,873.56,6,2,349.855,0.7777777777777778,2,object_07,1,64,0,3,7,library_22,1,memory-2step-stake-s,504,1158923,0.0-18.0-0.0-0.9,4459,5,6
10,4,object_04,object_09,639.185,7,1,356.13,0.4444444444444444,1,object_02,5,84,0,4,6,restaurant_18,1,memory-2step-stake-s,505,1166900,0.0-18.0-0.0-0.10,4459,7,8
11,4,object_04,object_09,744.82,8,2,341.395,0.6666666666666666,2,object_07,5,114,0,6,6,restaurant_21,1,memory-2step-stake-s,506,1175066,0.0-18.0-0.0-0.11,4459,7,8
12,2,object_03,object_10,847.315,4,1,284.975,0.3333333333333333,2,object_07,1,117,0,4,3,forest_23,1,memory-2step-stake-s,507,1182872,0.0-18.0-0.0-0.12,4459,4,3
13,4,object_09,object_04,755.035,7,2,351.32,0.3333333333333333,1,object_02,5,132,0,3,3,restaurant_24,1,memory-2step-stake-s,508,1190745,0.0-18.0-0.0-0.13,4459,8,7
14,4,object_09,object_04,495.03,7,2,405.925,0.5555555555555556,1,object_02,5,157,0,5,3,restaurant_24,1,memory-2step-stake-s,509,1198877,0.0-18.0-0.0-0.14,4459,8,7
15,3,object_06,object_08,-1.0,-1,-1,-1.0,0.0,-,,5,157,0,2,0,library_5,1,memory-2step-stake-s,510,1205390,0.0-18.0-0.0-0.15,4459,5,6
16,4,object_04,object_09,537.74,7,1,229.815,0.2222222222222222,1,object_02,5,167,0,2,0,restaurant_5,1,memory-2step-stake-s,511,1213038,0.0-18.0-0.0-0.16,4459,7,8
17,4,object_09,object_04,640.245,8,1,338.34,0.1111111111111111,2,object_07,5,172,0,2,1,restaurant_8,1,memory-2step-stake-s,512,1220692,0.0-18.0-0.0-0.17,4459,8,7
18,2,object_10,object_03,692.695,4,2,333.835,0.2222222222222222,2,object_07,5,182,0,4,2,forest_9,1,memory-2step-stake-s,513,1228445,0.0-18.0-0.0-0.18,4459,3,4
19,4,object_04,object_09,548.595,8,2,325.485,0.2222222222222222,2,object_07,5,192,0,4,2,restaurant_3,1,memory-2step-stake-s,514,1236193,0.0-18.0-0.0-0.19,4459,7,8
20,2,object_03,object_10,661.555,4,1,281.845,0.7777777777777778,2,object_07,1,199,0,3,7,forest_26,1,memory-2step-stake-s,515,1244401,0.0-18.0-0.0-0.20,4459,4,3
21,2,object_10,object_03,681.005,4,2,343.8,0.8888888888888888,2,object_07,1,207,0,1,8,forest_20,1,memory-2step-stake-s,516,1252772,0.0-18.0-0.0-0.21,4459,3,4
22,4,object_04,object_09,843.09,8,2,279.605,1.0,2,object_07,5,252,0,1,9,restaurant_25,1,memory-2step-stake-s,517,1261181,0.0-18.0-0.0-0.22,4459,7,8
23,3,object_06,object_08,942.885,6,2,374.335,0.8888888888888888,2,object_07,5,292,0,1,8,library_13,1,memory-2step-stake-s,518,1269584,0.0-18.0-0.0-0.23,4459,5,6
24,4,object_09,object_04,781.83,8,1,0.20999999800000002,0.8888888888888888,2,object_07,5,332,0,5,8,restaurant_4,1,memory-2step-stake-s,519,1277614,0.0-18.0-0.0-0.24,4459,8,7
25,2,object_03,object_10,1291.585,4,1,335.085,0.8888888888888888,2,object_07,1,340,0,5,8,forest_1,1,memory-2step-stake-s,520,1285976,0.0-18.0-0.0-0.25,4459,4,3
26,4,object_09,object_04,914.46,7,2,362.73,0.4444444444444444,1,object_02,5,360,0,4,6,restaurant_20,1,memory-2step-stake-s,521,1293962,0.0-18.0-0.0-0.26,4459,8,7
27,4,object_09,object_04,901.65,7,2,334.765,0.6666666666666666,1,object_02,5,390,0,6,6,restaurant_32,1,memory-2step-stake-s,522,1302121,0.0-18.0-0.0-0.27,4459,8,7
28,3,object_08,object_06,874.96,6,1,353.0,0.6666666666666666,2,object_07,1,396,0,8,6,library_31,1,memory-2step-stake-s,523,1310299,0.0-18.0-0.0-0.28,4459,6,5
29,1,object_01,object_05,682.05,2,1,225.745,0.3333333333333333,2,object_07,5,411,0,9,3,desert_16,1,memory-2step-stake-s,524,1318044,0.0-18.0-0.0-0.29,4459,2,1
30,2,object_03,object_10,714.225,4,1,307.305,0.3333333333333333,2,object_07,1,414,0,8,3,forest_7,1,memory-2step-stake-s,525,1325874,0.0-18.0-0.0-0.30,4459,4,3
31,4,object_04,object_09,887.665,7,1,414.94,0.8888888888888888,1,object_02,5,454,0,8,1,restaurant_22,1,memory-2step-stake-s,526,1334317,0.0-18.0-0.0-0.31,4459,7,8
32,3,object_06,object_08,754.83,6,2,281.645,0.2222222222222222,2,object_07,5,464,0,8,2,library_17,1,memory-2step-stake-s,527,1342019,0.0-18.0-0.0-0.32,4459,5,6
33,3,object_06,object_08,662.835,6,2,414.34,0.4444444444444444,2,object_07,1,468,0,9,4,library_20,1,memory-2step-stake-s,528,1350053,0.0-18.0-0.0-0.33,4459,5,6
34,1,object_05,object_01,545.075,2,2,310.42,0.7777777777777778,2,object_07,1,475,0,8,7,desert_11,1,memory-2step-stake-s,529,1358288,0.0-18.0-0.0-0.34,4459,1,2
35,2,object_03,object_10,660.565,4,1,216.25,0.7777777777777778,2,object_07,5,510,0,9,7,forest_20,1,memory-2step-stake-s,530,1366432,0.0-18.0-0.0-0.35,4459,4,3
36,3,object_06,object_08,1022.855,6,2,254.445,0.6666666666666666,2,object_07,5,540,0,9,6,library_19,1,memory-2step-stake-s,531,1374512,0.0-18.0-0.0-0.36,4459,5,6
37,2,object_03,object_10,780.72,3,2,202.055,0.8888888888888888,1,object_02,5,580,0,8,6,forest_32,1,memory-2step-stake-s,532,1382741,0.0-18.0-0.0-0.37,4459,4,3
38,4,object_09,object_04,720.52,7,2,283.935,0.8888888888888888,1,object_02,5,620,0,8,7,restaurant_21,1,memory-2step-stake-s,533,1391056,0.0-18.0-0.0-0.38,4459,8,7
39,2,object_10,object_03,1221.535,3,1,546.885,1.0,1,object_02,1,629,0,9,6,forest_7,1,memory-2step-stake-s,534,1399729,0.0-18.0-0.0-0.39,4459,3,4
40,1,object_05,object_01,447.435,1,1,371.845,0.6666666666666666,1,object_02,5,659,0,6,3,desert_16,1,memory-2step-stake-s,535,1407925,0.0-18.0-0.0-0.40,4459,1,2
41,1,object_05,object_01,615.785,2,2,282.85,0.5555555555555556,2,object_07,1,664,0,7,5,desert_10,1,memory-2step-stake-s,536,1415932,0.0-18.0-0.0-0.41,4459,1,2
42,4,object_04,object_09,933.0,7,1,287.32,0.8888888888888888,1,object_02,5,704,0,8,7,restaurant_3,1,memory-2step-stake-s,537,1424249,0.0-18.0-0.0-0.42,4459,7,8
43,1,object_01,object_05,539.785,1,2,232.24,0.6666666666666666,1,object_02,1,710,0,6,8,desert_29,1,memory-2step-stake-s,538,1432307,0.0-18.0-0.0-0.43,4459,2,1
44,2,object_03,object_10,568.57,4,1,203.86,1.0,2,object_07,1,719,0,4,9,forest_30,1,memory-2step-stake-s,539,1440644,0.0-18.0-0.0-0.44,4459,4,3
45,1,object_01,object_05,487.09,1,2,122.81,0.6666666666666666,1,object_02,1,725,0,6,6,desert_32,1,memory-2step-stake-s,540,1448594,0.0-18.0-0.0-0.45,4459,2,1
46,3,object_08,object_06,617.715,6,1,213.72,0.7777777777777778,2,object_07,5,760,0,5,7,library_20,1,memory-2step-stake-s,541,1456733,0.0-18.0-0.0-0.46,4459,6,5
47,2,object_03,object_10,683.265,4,1,223.81,0.8888888888888888,2,object_07,1,768,0,5,8,forest_1,1,memory-2step-stake-s,542,1464983,0.0-18.0-0.0-0.47,4459,4,3
48,3,object_06,object_08,558.6,6,2,1211.815,0.8888888888888888,2,object_07,5,808,0,6,8,library_23,1,memory-2step-stake-s,543,1474221,0.0-18.0-0.0-0.48,4459,5,6
49,4,object_04,object_09,254.885,7,1,1273.06,0.8888888888888888,1,object_02,5,848,0,8,8,restaurant_17,1,memory-2step-stake-s,544,1483522,0.0-18.0-0.0-0.49,4459,7,8
50,3,object_06,object_08,681.03,5,1,407.9,0.7777777777777778,1,object_02,5,883,0,7,5,library_23,1,memory-2step-stake-s,545,1491853,0.0-18.0-0.0-0.50,4459,5,6
51,2,object_03,object_10,536.355,4,1,398.055,0.3333333333333333,2,object_07,5,898,0,8,3,forest_30,1,memory-2step-stake-s,546,1499774,0.0-18.0-0.0-0.51,4459,4,3
52,2,object_10,object_03,377.11,4,2,367.12,0.3333333333333333,2,object_07,1,901,0,9,3,forest_12,1,memory-2step-stake-s,547,1507661,0.0-18.0-0.0-0.52,4459,3,4
53,2,object_10,object_03,307.04,3,1,255.15,0.8888888888888888,1,object_02,1,909,0,8,2,forest_30,1,memory-2step-stake-s,548,1515939,0.0-18.0-0.0-0.53,4459,3,4
54,3,object_08,object_06,758.26,6,1,323.775,0.1111111111111111,2,object_07,1,910,0,5,1,library_31,1,memory-2step-stake-s,549,1523583,0.0-18.0-0.0-0.54,4459,6,5
55,1,object_05,object_01,659.385,1,1,367.57,0.4444444444444444,1,object_02,1,914,0,4,0,desert_24,1,memory-2step-stake-s,550,1531572,0.0-18.0-0.0-0.55,4459,1,2
56,3,object_06,object_08,948.315,6,2,230.805,0.0,2,object_07,5,914,0,4,0,library_9,1,memory-2step-stake-s,551,1539020,0.0-18.0-0.0-0.56,4459,5,6
57,2,object_03,object_10,330.95,4,1,379.66,0.2222222222222222,2,object_07,1,916,0,3,2,forest_26,1,memory-2step-stake-s,552,1546820,0.0-18.0-0.0-0.57,4459,4,3
58,1,object_01,object_05,214.605,2,1,355.27,0.3333333333333333,2,object_07,1,919,0,2,3,desert_19,1,memory-2step-stake-s,553,1554695,0.0-18.0-0.0-0.58,4459,2,1
59,2,object_10,object_03,189.86,3,1,433.255,0.2222222222222222,1,object_02,1,921,0,2,5,forest_26,1,memory-2step-stake-s,554,1562545,0.0-18.0-0.0-0.59,4459,3,4
60,1,object_01,object_05,631.95,1,2,-1.0,0.0,1,object_02,1,921,0,3,4,desert_10,1,memory-2step-stake-s,555,1571060,0.0-18.0-0.0-0.60,4459,2,1
61,2,object_10,object_03,432.55,4,2,642.885,0.3333333333333333,2,object_07,1,924,0,3,3,forest_29,1,memory-2step-stake-s,556,1579225,0.0-18.0-0.0-0.61,4459,3,4
62,1,object_05,object_01,279.3,1,1,938.695,0.4444444444444444,1,object_02,1,928,0,4,3,desert_8,1,memory-2step-stake-s,557,1587788,0.0-18.0-0.0-0.62,4459,1,2
63,2,object_03,object_10,476.995,4,1,494.07,0.3333333333333333,2,object_07,1,931,0,3,3,forest_7,1,memory-2step-stake-s,558,1596670,0.0-18.0-0.0-0.63,4459,4,3
64,3,object_08,object_06,574.78,5,2,493.29,0.1111111111111111,1,object_02,5,936,0,1,2,library_13,1,memory-2step-stake-s,559,1604482,0.0-18.0-0.0-0.64,4459,6,5
65,2,object_03,object_10,535.705,4,1,360.745,0.4444444444444444,2,object_07,1,940,0,2,4,forest_32,1,memory-2step-stake-s,560,1612468,0.0-18.0-0.0-0.65,4459,4,3
66,2,object_03,object_10,487.715,4,1,-1.0,0.0,2,object_07,1,940,0,4,5,forest_12,1,memory-2step-stake-s,561,1620985,0.0-18.0-0.0-0.66,4459,4,3
67,2,object_10,object_03,445.745,4,2,314.54,0.3333333333333333,2,object_07,5,955,0,0,3,forest_1,1,memory-2step-stake-s,562,1628822,0.0-18.0-0.0-0.67,4459,3,4
68,3,object_06,object_08,316.31,5,1,522.83,0.0,1,object_02,5,955,0,0,2,library_30,1,memory-2step-stake-s,563,1636560,0.0-18.0-0.0-0.68,4459,5,6
69,1,object_01,object_05,497.22,2,1,394.55,0.1111111111111111,2,object_07,1,956,0,2,1,desert_31,1,memory-2step-stake-s,564,1644271,0.0-18.0-0.0-0.69,4459,2,1
70,2,object_03,object_10,570.185,4,1,654.55,0.2222222222222222,2,object_07,1,958,0,3,2,forest_29,1,memory-2step-stake-s,565,1652343,0.0-18.0-0.0-0.70,4459,4,3
71,2,object_10,object_03,602.395,4,2,441.155,0.0,2,object_07,1,958,0,2,0,forest_10,1,memory-2step-stake-s,566,1660003,0.0-18.0-0.0-0.71,4459,3,4
72,3,object_06,object_08,271.045,6,2,420.14,0.1111111111111111,2,object_07,5,963,0,3,1,library_29,1,memory-2step-stake-s,567,1667741,0.0-18.0-0.0-0.72,4459,5,6
73,4,object_09,object_04,757.405,8,1,484.995,0.1111111111111111,2,object_07,5,968,0,4,1,restaurant_1,1,memory-2step-stake-s,568,1675540,0.0-18.0-0.0-0.73,4459,8,7
74,1,object_05,object_01,472.66,1,1,390.69,0.4444444444444444,1,object_02,1,972,0,4,3,desert_31,1,memory-2step-stake-s,569,1683554,0.0-18.0-0.0-0.74,4459,1,2
75,3,object_06,object_08,777.125,5,1,407.915,0.4444444444444444,1,object_02,5,992,0,4,3,library_7,1,memory-2step-stake-s,570,1691583,0.0-18.0-0.0-0.75,4459,5,6
76,3,object_06,object_08,689.385,5,1,558.975,0.3333333333333333,1,object_02,5,1007,0,3,5,library_23,1,memory-2step-stake-s,571,1699661,0.0-18.0-0.0-0.76,4459,5,6
77,1,object_05,object_01,605.71,2,2,630.46,0.5555555555555556,2,object_07,1,1012,0,2,5,desert_31,1,memory-2step-stake-s,572,1708014,0.0-18.0-0.0-0.77,4459,1,2
78,3,object_08,object_06,556.215,6,1,649.89,0.3333333333333333,2,object_07,5,1027,0,3,3,library_5,1,memory-2step-stake-s,573,1716186,0.0-18.0-0.0-0.78,4459,6,5
79,1,object_05,object_01,642.105,2,2,744.82,0.5555555555555556,2,object_07,1,1032,0,3,5,desert_2,1,memory-2step-stake-s,574,1724657,0.0-18.0-0.0-0.79,4459,1,2
80,3,object_08,object_06,603.47,6,1,611.99,0.7777777777777778,2,object_07,5,1067,0,1,7,library_20,1,memory-2step-stake-s,575,1733196,0.0-18.0-0.0-0.80,4459,6,5
81,2,object_10,object_03,237.1,4,2,756.59,0.5555555555555556,2,object_07,1,1072,0,2,5,forest_6,1,memory-2step-stake-s,576,1741678,0.0-18.0-0.0-0.81,4459,3,4
82,2,object_10,object_03,534.385,4,2,575.945,0.1111111111111111,2,object_07,1,1073,0,4,1,forest_18,1,memory-2step-stake-s,577,1749573,0.0-18.0-0.0-0.82,4459,3,4
83,1,object_01,object_05,268.02,1,2,415.95,0.5555555555555556,1,object_02,1,1078,0,5,0,desert_20,1,memory-2step-stake-s,578,1757712,0.0-18.0-0.0-0.83,4459,2,1
84,1,object_01,object_05,554.175,1,2,-1.0,0.0,1,object_02,1,1078,0,4,0,desert_20,1,memory-2step-stake-s,579,1766227,0.0-18.0-0.0-0.84,4459,2,1
85,1,object_01,object_05,647.29,1,2,595.17,0.6666666666666666,1,object_02,1,1084,0,6,3,desert_11,1,memory-2step-stake-s,580,1774647,0.0-18.0-0.0-0.85,4459,2,1
86,3,object_06,object_08,308.255,5,1,533.865,0.3333333333333333,1,object_02,5,1099,0,3,4,library_4,1,memory-2step-stake-s,581,1782700,0.0-18.0-0.0-0.86,4459,5,6
87,2,object_03,object_10,534.2,4,1,537.695,0.5555555555555556,2,object_07,1,1104,0,3,5,forest_20,1,memory-2step-stake-s,582,1790960,0.0-18.0-0.0-0.87,4459,4,3
88,3,object_06,object_08,237.915,6,2,493.015,0.3333333333333333,2,object_07,5,1119,0,3,3,library_24,1,memory-2step-stake-s,583,1798974,0.0-18.0-0.0-0.88,4459,5,6
89,1,object_01,object_05,540.49,2,1,981.485,0.4444444444444444,2,object_07,1,1123,0,3,4,desert_3,1,memory-2step-stake-s,584,1807580,0.0-18.0-0.0-0.89,4459,2,1
90,1,object_01,object_05,99.735,1,2,691.16,0.1111111111111111,1,object_02,1,1124,0,1,1,desert_29,1,memory-2step-stake-s,585,1815591,0.0-18.0-0.0-0.90,4459,2,1
91,1,object_01,object_05,222.64,2,1,1079.3,0.2222222222222222,2,object_07,1,1126,0,3,2,desert_24,1,memory-2step-stake-s,586,1824093,0.0-18.0-0.0-0.91,4459,2,1
92,4,object_04,object_09,368.075,7,1,1062.23,0.2222222222222222,1,object_02,5,1136,0,2,2,restaurant_14,1,memory-2step-stake-s,587,1832572,0.0-18.0-0.0-0.92,4459,7,8
93,2,object_03,object_10,245.47,4,1,831.15,0.2222222222222222,2,object_07,5,1146,0,0,2,forest_2,1,memory-2step-stake-s,588,1840825,0.0-18.0-0.0-0.93,4459,4,3
94,2,object_10,object_03,447.395,4,2,538.025,0.3333333333333333,2,object_07,1,1149,0,0,3,forest_18,1,memory-2step-stake-s,589,1848882,0.0-18.0-0.0-0.94,4459,3,4
95,2,object_10,object_03,259.235,4,2,457.995,0.2222222222222222,2,object_07,1,1151,0,2,2,forest_18,1,memory-2step-stake-s,590,1856761,0.0-18.0-0.0-0.95,4459,3,4
96,2,object_10,object_03,460.265,3,1,597.0,0.2222222222222222,1,object_02,1,1153,0,2,2,forest_9,1,memory-2step-stake-s,591,1864776,0.0-18.0-0.0-0.96,4459,3,4
97,2,object_03,object_10,413.125,3,2,681.32,0.2222222222222222,1,object_02,5,1163,0,2,0,forest_6,1,memory-2step-stake-s,592,1872875,0.0-18.0-0.0-0.97,4459,4,3
98,2,object_10,object_03,457.045,3,1,-1.0,0.0,1,object_02,1,1163,0,3,1,forest_10,1,memory-2step-stake-s,593,1881391,0.0-18.0-0.0-0.98,4459,3,4
99,2,object_10,object_03,345.75,4,2,614.845,0.1111111111111111,2,object_07,1,1164,0,4,1,forest_13,1,memory-2step-stake-s,594,1889327,0.0-18.0-0.0-0.99,4459,3,4
100,1,object_01,object_05,217.635,2,1,518.625,0.4444444444444444,2,object_07,5,1184,0,3,4,desert_3,1,memory-2step-stake-s,595,1897469,0.0-18.0-0.0-0.100,4459,2,1
101,4,object_09,object_04,389.025,7,2,664.135,0.4444444444444444,1,object_02,5,1204,0,4,5,restaurant_1,1,memory-2step-stake-s,596,1905757,0.0-18.0-0.0-0.101,4459,8,7
102,4,object_04,object_09,392.05,7,1,657.99,0.4444444444444444,1,object_02,5,1224,0,4,6,restaurant_3,1,memory-2step-stake-s,597,1914035,0.0-18.0-0.0-0.102,4459,7,8
103,3,object_06,object_08,211.62,6,2,828.515,0.8888888888888888,2,object_07,1,1232,0,5,8,library_3,1,memory-2step-stake-s,598,1922891,0.0-18.0-0.0-0.103,4459,5,6
104,3,object_08,object_06,263.18,6,1,395.155,0.8888888888888888,2,object_07,5,1272,0,4,8,library_17,1,memory-2step-stake-s,599,1931313,0.0-18.0-0.0-0.104,4459,6,5
105,4,object_09,object_04,802.725,8,1,757.62,1.0,2,object_07,1,1281,0,4,9,restaurant_21,1,memory-2step-stake-s,600,1940201,0.0-18.0-0.0-0.105,4459,8,7
106,1,object_01,object_05,369.415,1,2,415.535,0.6666666666666666,1,object_02,5,1311,0,6,7,desert_16,1,memory-2step-stake-s,601,1948441,0.0-18.0-0.0-0.106,4459,2,1
107,3,object_08,object_06,253.855,6,1,567.39,0.6666666666666666,2,object_07,5,1341,0,7,6,library_4,1,memory-2step-stake-s,602,1956831,0.0-18.0-0.0-0.107,4459,6,5
108,1,object_05,object_01,437.505,2,2,860.415,0.5555555555555556,2,object_07,5,1366,0,6,5,desert_12,1,memory-2step-stake-s,603,1965413,0.0-18.0-0.0-0.108,4459,1,2
109,4,object_04,object_09,332.06,7,1,502.395,0.5555555555555556,1,object_02,1,1371,0,5,3,restaurant_22,1,memory-2step-stake-s,604,1973638,0.0-18.0-0.0-0.109,4459,7,8
110,3,object_08,object_06,487.765,5,2,477.405,0.4444444444444444,1,object_02,5,1391,0,4,2,library_16,1,memory-2step-stake-s,605,1981738,0.0-18.0-0.0-0.110,4459,6,5
111,1,object_01,object_05,264.505,2,1,252.045,0.6666666666666666,2,object_07,5,1421,0,2,6,desert_15,1,memory-2step-stake-s,606,1989816,0.0-18.0-0.0-0.111,4459,2,1
112,4,object_09,object_04,6.159999997000001,7,2,356.2,0.1111111111111111,1,object_02,5,1426,0,1,8,restaurant_16,1,memory-2step-stake-s,607,1997493,0.0-18.0-0.0-0.112,4459,8,7
113,3,object_08,object_06,530.61,6,1,453.17,0.8888888888888888,2,object_07,5,1466,0,1,8,library_5,1,memory-2step-stake-s,608,2005973,0.0-18.0-0.0-0.113,4459,6,5
114,1,object_05,object_01,267.33,2,2,416.115,0.7777777777777778,2,object_07,5,1501,0,2,7,desert_32,1,memory-2step-stake-s,609,2014313,0.0-18.0-0.0-0.114,4459,1,2
115,3,object_06,object_08,500.08,5,1,585.12,0.1111111111111111,1,object_02,5,1506,0,1,8,library_7,1,memory-2step-stake-s,610,2022216,0.0-18.0-0.0-0.115,4459,5,6
116,4,object_09,object_04,478.655,8,1,545.04,0.8888888888888888,2,object_07,5,1546,0,2,8,restaurant_8,1,memory-2step-stake-s,611,2030787,0.0-18.0-0.0-0.116,4459,8,7
117,1,object_01,object_05,368.29,1,2,594.09,0.3333333333333333,1,object_02,1,1549,0,3,7,desert_2,1,memory-2step-stake-s,612,2038902,0.0-18.0-0.0-0.117,4459,2,1
118,3,object_06,object_08,502.21,6,2,485.74,1.0,2,object_07,5,1594,0,6,9,library_3,1,memory-2step-stake-s,613,2047518,0.0-18.0-0.0-0.118,4459,5,6
119,2,object_10,object_03,495.5,4,2,626.575,0.8888888888888888,2,object_07,1,1602,0,4,8,forest_29,1,memory-2step-stake-s,614,2056173,0.0-18.0-0.0-0.119,4459,3,4
120,1,object_01,object_05,549.185,1,2,536.95,0.2222222222222222,1,object_02,1,1604,0,2,7,desert_15,1,memory-2step-stake-s,615,2064127,0.0-18.0-0.0-0.120,4459,2,1
121,3,object_08,object_06,595.275,5,2,506.415,0.2222222222222222,1,object_02,5,1614,0,2,5,library_22,1,memory-2step-stake-s,616,2072054,0.0-18.0-0.0-0.121,4459,6,5
122,4,object_04,object_09,384.62,8,2,406.315,0.6666666666666666,2,object_07,5,1644,0,3,6,restaurant_16,1,memory-2step-stake-s,617,2080288,0.0-18.0-0.0-0.122,4459,7,8
123,2,object_10,object_03,446.55,3,1,468.805,0.5555555555555556,1,object_02,1,1649,0,5,5,forest_21,1,memory-2step-stake-s,618,2088478,0.0-18.0-0.0-0.123,4459,3,4
124,4,object_04,object_09,416.6,7,1,473.705,0.7777777777777778,1,object_02,5,1684,0,7,6,restaurant_19,1,memory-2step-stake-s,619,2096878,0.0-18.0-0.0-0.124,4459,7,8
125,4,object_09,object_04,243.565,7,2,500.405,0.4444444444444444,1,object_02,5,1704,0,4,4,restaurant_24,1,memory-2step-stake-s,620,2105000,0.0-18.0-0.0-0.125,4459,8,7
126,2,object_10,object_03,197.755,3,1,350.74,0.2222222222222222,1,object_02,1,1706,0,2,7,forest_10,1,memory-2step-stake-s,621,2112770,0.0-18.0-0.0-0.126,4459,3,4
127,1,object_01,object_05,202.25,1,2,594.81,0.3333333333333333,1,object_02,5,1721,0,3,8,desert_29,1,memory-2step-stake-s,622,2120886,0.0-18.0-0.0-0.127,4459,2,1
128,3,object_08,object_06,648.15,6,1,399.97,0.8888888888888888,2,object_07,5,1761,0,4,8,library_7,1,memory-2step-stake-s,624,2406498,0.0-18.0-0.1-0.128,4459,6,5
129,1,object_05,object_01,412.705,2,2,693.24,0.7777777777777778,2,object_07,1,1768,0,6,7,desert_11,1,memory-2step-stake-s,625,2415116,0.0-18.0-0.1-0.129,4459,1,2
130,1,object_05,object_01,378.955,1,1,-1.0,0.0,1,object_02,1,1768,0,4,5,desert_20,1,memory-2step-stake-s,626,2423632,0.0-18.0-0.1-0.130,4459,1,2
131,4,object_04,object_09,382.87,8,2,557.455,0.7777777777777778,2,object_07,5,1803,0,6,7,restaurant_20,1,memory-2step-stake-s,627,2432115,0.0-18.0-0.1-0.131,4459,7,8
132,1,object_05,object_01,338.895,1,1,1027.725,0.8888888888888888,1,object_02,5,1843,0,8,4,desert_10,1,memory-2step-stake-s,628,2441175,0.0-18.0-0.1-0.132,4459,1,2
133,2,object_10,object_03,378.57,4,2,749.455,0.2222222222222222,2,object_07,1,1845,0,8,2,forest_1,1,memory-2step-stake-s,629,2449343,0.0-18.0-0.1-0.133,4459,3,4
134,4,object_04,object_09,423.64,8,2,745.23,0.3333333333333333,2,object_07,5,1860,0,8,3,restaurant_25,1,memory-2step-stake-s,630,2457608,0.0-18.0-0.1-0.134,4459,7,8
135,4,object_09,object_04,449.245,8,1,853.08,0.4444444444444444,2,object_07,5,1880,0,8,4,restaurant_19,1,memory-2step-stake-s,631,2466085,0.0-18.0-0.1-0.135,4459,8,7
136,1,object_05,object_01,446.2,2,2,704.305,0.4444444444444444,2,object_07,1,1884,0,8,4,desert_12,1,memory-2step-stake-s,632,2474412,0.0-18.0-0.1-0.136,4459,1,2
137,3,object_08,object_06,382.09,5,2,541.215,0.6666666666666666,1,object_02,1,1890,0,6,4,library_7,1,memory-2step-stake-s,633,2482778,0.0-18.0-0.1-0.137,4459,6,5
138,3,object_06,object_08,396.135,5,1,647.55,0.8888888888888888,1,object_02,5,1930,0,8,7,library_17,1,memory-2step-stake-s,634,2491453,0.0-18.0-0.1-0.138,4459,5,6
139,2,object_10,object_03,391.92,4,2,628.27,0.7777777777777778,2,object_07,1,1937,0,9,7,forest_30,1,memory-2step-stake-s,635,2500008,0.0-18.0-0.1-0.139,4459,3,4
140,1,object_05,object_01,588.635,2,2,650.36,1.0,2,object_07,1,1946,0,6,9,desert_11,1,memory-2step-stake-s,636,2508789,0.0-18.0-0.1-0.140,4459,1,2
141,3,object_08,object_06,641.29,5,2,550.145,0.7777777777777778,1,object_02,5,1981,0,7,7,library_4,1,memory-2step-stake-s,637,2517268,0.0-18.0-0.1-0.141,4459,6,5
142,4,object_04,object_09,401.37,7,1,645.88,1.0,1,object_02,5,2026,0,9,7,restaurant_18,1,memory-2step-stake-s,638,2526041,0.0-18.0-0.1-0.142,4459,7,8
143,1,object_01,object_05,487.24,2,1,-1.0,0.0,2,object_07,1,2026,0,7,9,desert_24,1,memory-2step-stake-s,639,2534555,0.0-18.0-0.1-0.143,4459,2,1
144,4,object_04,object_09,554.005,7,1,548.235,0.6666666666666666,1,object_02,5,2056,0,6,8,restaurant_18,1,memory-2step-stake-s,640,2542926,0.0-18.0-0.1-0.144,4459,7,8
145,3,object_08,object_06,373.1,6,1,-1.0,0.0,2,object_07,5,2056,0,6,8,library_3,1,memory-2step-stake-s,641,2551443,0.0-18.0-0.1-0.145,4459,6,5
146,1,object_01,object_05,1352.37,2,1,1082.98,0.7777777777777778,2,object_07,5,2091,0,2,7,desert_24,1,memory-2step-stake-s,642,2560453,0.0-18.0-0.1-0.146,4459,2,1
147,3,object_06,object_08,854.9,5,1,714.175,0.4444444444444444,1,object_02,5,2111,0,4,7,library_31,1,memory-2step-stake-s,643,2568789,0.0-18.0-0.1-0.147,4459,5,6
148,3,object_08,object_06,257.25,5,2,642.12,0.3333333333333333,1,object_02,5,2126,0,3,6,library_17,1,memory-2step-stake-s,644,2576950,0.0-18.0-0.1-0.148,4459,6,5
149,1,object_01,object_05,382.115,2,1,611.79,0.8888888888888888,2,object_07,1,2134,0,3,8,desert_31,1,memory-2step-stake-s,645,2585591,0.0-18.0-0.1-0.149,4459,2,1
150,4,object_04,object_09,315.65,8,2,641.15,0.8888888888888888,2,object_07,5,2174,0,3,8,restaurant_17,1,memory-2step-stake-s,646,2594260,0.0-18.0-0.1-0.150,4459,7,8
151,4,object_04,object_09,408.185,7,1,571.435,0.1111111111111111,1,object_02,5,2179,0,1,9,restaurant_24,1,memory-2step-stake-s,647,2602149,0.0-18.0-0.1-0.151,4459,7,8
152,4,object_09,object_04,495.655,7,2,596.085,0.2222222222222222,1,object_02,5,2189,0,2,8,restaurant_14,1,memory-2step-stake-s,648,2610164,0.0-18.0-0.1-0.152,4459,8,7
153,1,object_01,object_05,708.645,2,1,523.38,0.8888888888888888,2,object_07,1,2197,0,0,8,desert_26,1,memory-2step-stake-s,649,2618717,0.0-18.0-0.1-0.153,4459,2,1
154,2,object_03,object_10,419.11,3,2,647.785,0.0,1,object_02,1,2197,0,0,8,forest_21,1,memory-2step-stake-s,650,2626583,0.0-18.0-0.1-0.154,4459,4,3
155,4,object_09,object_04,465.405,7,2,646.415,0.1111111111111111,1,object_02,5,2202,0,1,9,restaurant_1,1,memory-2step-stake-s,651,2634546,0.0-18.0-0.1-0.155,4459,8,7
156,2,object_10,object_03,452.455,4,2,593.03,0.8888888888888888,2,object_07,1,2210,0,3,8,forest_21,1,memory-2step-stake-s,652,2643164,0.0-18.0-0.1-0.156,4459,3,4
157,4,object_04,object_09,917.79,8,2,1258.82,0.8888888888888888,2,object_07,5,2250,0,3,8,restaurant_3,1,memory-2step-stake-s,653,2652451,0.0-18.0-0.1-0.157,4459,7,8
158,1,object_05,object_01,680.795,1,1,1117.58,0.3333333333333333,1,object_02,1,2253,0,3,9,desert_12,1,memory-2step-stake-s,654,2661088,0.0-18.0-0.1-0.158,4459,1,2
159,1,object_01,object_05,400.13,1,2,699.97,0.0,1,object_02,1,2253,0,0,3,desert_17,1,memory-2step-stake-s,655,2669006,0.0-18.0-0.1-0.159,4459,2,1
160,4,object_09,object_04,332.05,8,1,649.14,0.7777777777777778,2,object_07,5,2288,0,1,7,restaurant_17,1,memory-2step-stake-s,656,2677577,0.0-18.0-0.1-0.160,4459,8,7
161,4,object_04,object_09,469.465,8,2,1099.435,0.6666666666666666,2,object_07,5,2318,0,5,6,restaurant_21,1,memory-2step-stake-s,657,2686500,0.0-18.0-0.1-0.161,4459,7,8
162,3,object_08,object_06,303.425,6,1,544.73,0.7777777777777778,2,object_07,5,2353,0,5,7,library_13,1,memory-2step-stake-s,658,2694971,0.0-18.0-0.1-0.162,4459,6,5
163,3,object_06,object_08,405.075,6,2,1376.215,0.6666666666666666,2,object_07,5,2383,0,1,6,library_9,1,memory-2step-stake-s,659,2704171,0.0-18.0-0.1-0.163,4459,5,6
164,2,object_03,object_10,543.24,4,1,-1.0,0.0,2,object_07,5,2383,0,5,4,forest_13,1,memory-2step-stake-s,660,2712687,0.0-18.0-0.1-0.164,4459,4,3
165,1,object_01,object_05,343.16,1,2,529.055,0.7777777777777778,1,object_02,1,2390,0,7,3,desert_10,1,memory-2step-stake-s,661,2721139,0.0-18.0-0.1-0.165,4459,2,1
166,3,object_06,object_08,373.44,5,1,630.1,0.5555555555555556,1,object_02,5,2415,0,5,7,library_9,1,memory-2step-stake-s,662,2729494,0.0-18.0-0.1-0.166,4459,5,6
167,3,object_06,object_08,293.54,6,2,587.87,0.6666666666666666,2,object_07,5,2445,0,4,6,library_20,1,memory-2step-stake-s,663,2737908,0.0-18.0-0.1-0.167,4459,5,6
168,3,object_06,object_08,172.44,5,1,458.975,0.4444444444444444,1,object_02,1,2449,0,4,5,library_4,1,memory-2step-stake-s,664,2745987,0.0-18.0-0.1-0.168,4459,5,6
169,3,object_08,object_06,366.005,5,2,802.89,0.2222222222222222,1,object_02,1,2451,0,2,2,library_3,1,memory-2step-stake-s,665,2754209,0.0-18.0-0.1-0.169,4459,6,5
170,1,object_01,object_05,516.505,1,2,-1.0,0.0,1,object_02,1,2451,0,3,3,desert_17,1,memory-2step-stake-s,666,2762727,0.0-18.0-0.1-0.170,4459,2,1
171,4,object_09,object_04,-1.0,-1,-1,-1.0,0.0,-,,1,2451,0,4,4,restaurant_5,1,memory-2step-stake-s,667,2769239,0.0-18.0-0.1-0.171,4459,8,7
172,4,object_09,object_04,526.38,7,2,554.96,0.5555555555555556,1,object_02,5,2476,0,5,6,restaurant_20,1,memory-2step-stake-s,668,2777519,0.0-18.0-0.1-0.172,4459,8,7
173,4,object_09,object_04,654.265,8,1,667.47,0.3333333333333333,2,object_07,1,2479,0,0,3,restaurant_25,1,memory-2step-stake-s,669,2785707,0.0-18.0-0.1-0.173,4459,8,7
174,2,object_10,object_03,415.265,4,2,1025.62,0.3333333333333333,2,object_07,1,2482,0,4,3,forest_12,1,memory-2step-stake-s,670,2794252,0.0-18.0-0.1-0.174,4459,3,4
175,2,object_10,object_03,675.395,4,2,1249.74,0.0,2,object_07,1,2482,0,7,0,forest_21,1,memory-2step-stake-s,671,2802718,0.0-18.0-0.1-0.175,4459,3,4
176,3,object_08,object_06,916.72,6,1,-1.0,0.0,2,object_07,5,2482,0,2,0,library_30,1,memory-2step-stake-s,672,2811235,0.0-18.0-0.1-0.176,4459,6,5
177,2,object_10,object_03,428.41,4,2,582.515,0.1111111111111111,2,object_07,5,2487,0,2,1,forest_26,1,memory-2step-stake-s,673,2819136,0.0-18.0-0.1-0.177,4459,3,4
178,1,object_05,object_01,370.575,1,1,390.11,0.4444444444444444,1,object_02,1,2491,0,4,0,desert_15,1,memory-2step-stake-s,674,2827148,0.0-18.0-0.1-0.178,4459,1,2
179,3,object_06,object_08,444.97,6,2,635.05,0.1111111111111111,2,object_07,5,2496,0,2,1,library_19,1,memory-2step-stake-s,675,2835101,0.0-18.0-0.1-0.179,4459,5,6
180,1,object_05,object_01,490.975,2,2,583.61,0.0,2,object_07,1,2496,0,1,0,desert_19,1,memory-2step-stake-s,676,2842902,0.0-18.0-0.1-0.180,4459,1,2
181,3,object_06,object_08,497.815,5,1,1062.245,0.2222222222222222,1,object_02,5,2506,0,2,1,library_24,1,memory-2step-stake-s,677,2851383,0.0-18.0-0.1-0.181,4459,5,6
182,2,object_03,object_10,644.51,4,1,565.835,0.1111111111111111,2,object_07,1,2507,0,3,1,forest_6,1,memory-2step-stake-s,678,2859269,0.0-18.0-0.1-0.182,4459,4,3
183,3,object_08,object_06,552.1,5,2,945.845,0.2222222222222222,1,object_02,5,2517,0,2,3,library_29,1,memory-2step-stake-s,679,2867636,0.0-18.0-0.1-0.183,4459,6,5
184,1,object_01,object_05,559.52,2,1,623.37,0.5555555555555556,2,object_07,5,2542,0,4,5,desert_26,1,memory-2step-stake-s,680,2875986,0.0-18.0-0.1-0.184,4459,2,1
185,1,object_01,object_05,400.59,1,2,833.55,0.4444444444444444,1,object_02,1,2546,0,4,5,desert_19,1,memory-2step-stake-s,681,2884440,0.0-18.0-0.1-0.185,4459,2,1
186,2,object_03,object_10,495.47,3,2,-1.0,0.0,1,object_02,1,2546,0,3,4,forest_18,1,memory-2step-stake-s,682,2892957,0.0-18.0-0.1-0.186,4459,4,3
187,3,object_08,object_06,522.97,6,1,803.45,0.2222222222222222,2,object_07,5,2556,0,1,2,library_22,1,memory-2step-stake-s,683,2901179,0.0-18.0-0.1-0.187,4459,6,5
188,4,object_04,object_09,437.965,8,2,550.33,0.2222222222222222,2,object_07,5,2566,0,1,2,restaurant_32,1,memory-2step-stake-s,684,2909141,0.0-18.0-0.1-0.188,4459,7,8
189,4,object_09,object_04,519.03,8,1,488.845,0.4444444444444444,2,object_07,5,2586,0,7,4,restaurant_14,1,memory-2step-stake-s,685,2917249,0.0-18.0-0.1-0.189,4459,8,7
190,1,object_05,object_01,466.235,2,2,585.48,0.3333333333333333,2,object_07,1,2589,0,8,3,desert_32,1,memory-2step-stake-s,686,2925357,0.0-18.0-0.1-0.190,4459,1,2
191,1,object_05,object_01,453.01,2,2,577.05,0.0,2,object_07,1,2589,0,9,0,desert_3,1,memory-2step-stake-s,687,2933151,0.0-18.0-0.1-0.191,4459,1,2
192,4,object_09,object_04,588.29,7,2,471.875,0.8888888888888888,1,object_02,5,2629,0,8,2,restaurant_8,1,memory-2step-stake-s,688,2941651,0.0-18.0-0.1-0.192,4459,8,7
193,2,object_03,object_10,521.875,4,1,576.37,0.2222222222222222,2,object_07,5,2639,0,8,2,forest_13,1,memory-2step-stake-s,689,2949649,0.0-18.0-0.1-0.193,4459,4,3
194,2,object_03,object_10,587.595,3,2,749.38,0.6666666666666666,1,object_02,5,2669,0,6,3,forest_29,1,memory-2step-stake-s,690,2958224,0.0-18.0-0.1-0.194,4459,4,3
195,3,object_08,object_06,565.49,6,1,633.86,0.2222222222222222,2,object_07,5,2679,0,6,2,library_16,1,memory-2step-stake-s,691,2966279,0.0-18.0-0.1-0.195,4459,6,5
196,2,object_10,object_03,564.59,4,2,703.455,0.3333333333333333,2,object_07,1,2682,0,8,3,forest_10,1,memory-2step-stake-s,692,2974501,0.0-18.0-0.1-0.196,4459,3,4
197,3,object_06,object_08,480.955,5,1,737.205,0.6666666666666666,1,object_02,5,2712,0,6,0,library_31,1,memory-2step-stake-s,693,2983063,0.0-18.0-0.1-0.197,4459,5,6
198,1,object_05,object_01,685.6,2,2,1114.875,0.3333333333333333,2,object_07,1,2715,0,5,3,desert_17,1,memory-2step-stake-s,694,2991696,0.0-18.0-0.1-0.198,4459,1,2
199,2,object_10,object_03,572.83,4,2,-1.0,0.0,2,object_07,1,2715,0,5,0,forest_23,1,memory-2step-stake-s,695,3000214,0.0-18.0-0.1-0.199,4459,3,4
200,1,object_01,object_05,540.31,2,1,1399.045,0.2222222222222222,2,object_07,1,2717,0,3,2,desert_32,1,memory-2step-stake-s,696,3009032,0.0-18.0-0.1-0.200,4459,2,1
201,1,object_01,object_05,539.55,1,2,670.81,0.3333333333333333,1,object_02,1,2720,0,3,2,desert_26,1,memory-2step-stake-s,697,3017221,0.0-18.0-0.1-0.201,4459,2,1
202,3,object_08,object_06,414.015,6,1,562.005,0.0,2,object_07,5,2720,0,6,0,library_16,1,memory-2step-stake-s,698,3025000,0.0-18.0-0.1-0.202,4459,6,5
203,3,object_08,object_06,449.05,6,1,684.02,0.1111111111111111,2,object_07,5,2725,0,8,1,library_19,1,memory-2step-stake-s,699,3033000,0.0-18.0-0.1-0.203,4459,6,5
204,1,object_05,object_01,498.975,2,2,726.085,0.2222222222222222,2,object_07,1,2727,0,6,2,desert_8,1,memory-2step-stake-s,700,3041145,0.0-18.0-0.1-0.204,4459,1,2
205,2,object_10,object_03,392.855,3,1,979.36,0.7777777777777778,1,object_02,5,2762,0,7,1,forest_9,1,memory-2step-stake-s,701,3050050,0.0-18.0-0.1-0.205,4459,3,4
206,2,object_03,object_10,502.485,4,1,582.435,0.2222222222222222,2,object_07,1,2764,0,7,2,forest_2,1,memory-2step-stake-s,702,3058047,0.0-18.0-0.1-0.206,4459,4,3
207,4,object_09,object_04,495.34,7,2,663.44,0.8888888888888888,1,object_02,5,2804,0,8,1,restaurant_16,1,memory-2step-stake-s,703,3066739,0.0-18.0-0.1-0.207,4459,8,7
208,4,object_09,object_04,488.99,7,2,646.24,0.6666666666666666,1,object_02,5,2834,0,6,2,restaurant_16,1,memory-2step-stake-s,704,3075208,0.0-18.0-0.1-0.208,4459,8,7
209,3,object_06,object_08,421.03,5,1,711.515,0.7777777777777778,1,object_02,5,2869,0,7,0,library_30,1,memory-2step-stake-s,705,3083843,0.0-18.0-0.1-0.209,4459,5,6
210,3,object_08,object_06,519.315,6,1,602.705,0.1111111111111111,2,object_07,5,2874,0,6,1,library_29,1,memory-2step-stake-s,706,3091764,0.0-18.0-0.1-0.210,4459,6,5
211,4,object_04,object_09,474.835,8,2,714.475,0.2222222222222222,2,object_07,5,2884,0,7,2,restaurant_20,1,memory-2step-stake-s,707,3099898,0.0-18.0-0.1-0.211,4459,7,8
212,2,object_10,object_03,551.47,4,2,967.5,0.2222222222222222,2,object_07,1,2886,0,5,2,forest_9,1,memory-2step-stake-s,708,3108287,0.0-18.0-0.1-0.212,4459,3,4
213,4,object_09,object_04,1376.63,7,2,601.41,0.3333333333333333,1,object_02,1,2889,0,3,4,restaurant_17,1,memory-2step-stake-s,709,3116410,0.0-18.0-0.1-0.213,4459,8,7
214,3,object_08,object_06,243.285,6,1,799.685,0.5555555555555556,2,object_07,5,2914,0,3,5,library_24,1,memory-2step-stake-s,710,3124931,0.0-18.0-0.1-0.214,4459,6,5
215,4,object_09,object_04,324.525,7,2,490.44,0.2222222222222222,1,object_02,1,2916,0,2,6,restaurant_32,1,memory-2step-stake-s,711,3132842,0.0-18.0-0.1-0.215,4459,8,7
216,2,object_03,object_10,357.635,4,1,439.14,0.0,2,object_07,1,2916,0,3,0,forest_20,1,memory-2step-stake-s,712,3140499,0.0-18.0-0.1-0.216,4459,4,3
217,2,object_10,object_03,259.11,4,2,498.99,0.1111111111111111,2,object_07,1,2917,0,3,1,forest_23,1,memory-2step-stake-s,713,3148315,0.0-18.0-0.1-0.217,4459,3,4
218,2,object_03,object_10,604.845,4,1,605.52,0.1111111111111111,2,object_07,1,2918,0,3,1,forest_13,1,memory-2step-stake-s,714,3156239,0.0-18.0-0.1-0.218,4459,4,3
219,3,object_08,object_06,445.9,5,2,1104.755,0.4444444444444444,1,object_02,5,2938,0,4,1,library_30,1,memory-2step-stake-s,715,3164968,0.0-18.0-0.1-0.219,4459,6,5
220,1,object_01,object_05,372.305,2,1,473.415,0.2222222222222222,2,object_07,5,2948,0,2,2,desert_2,1,memory-2step-stake-s,716,3172862,0.0-18.0-0.1-0.220,4459,2,1
221,1,object_05,object_01,197.365,2,2,344.23,0.3333333333333333,2,object_07,5,2963,0,2,3,desert_8,1,memory-2step-stake-s,717,3180729,0.0-18.0-0.1-0.221,4459,1,2
222,2,object_10,object_03,1481.92,3,1,-1.0,0.0,1,object_02,1,2963,0,1,2,forest_32,1,memory-2step-stake-s,718,3189248,0.0-18.0-0.1-0.222,4459,3,4
223,1,object_01,object_05,194.715,1,2,387.38,0.1111111111111111,1,object_02,5,2968,0,1,3,desert_16,1,memory-2step-stake-s,719,3196954,0.0-18.0-0.1-0.223,4459,2,1
224,4,object_09,object_04,421.14,8,1,-1.0,0.0,2,object_07,5,2968,0,2,3,restaurant_18,1,memory-2step-stake-s,720,3205470,0.0-18.0-0.1-0.224,4459,8,7
225,1,object_01,object_05,1457.11,2,1,752.35,0.4444444444444444,2,object_07,1,2972,0,1,4,desert_8,1,memory-2step-stake-s,721,3213844,0.0-18.0-0.1-0.225,4459,2,1
226,1,object_01,object_05,421.185,2,1,526.68,0.5555555555555556,2,object_07,1,2977,0,0,5,desert_29,1,memory-2step-stake-s,722,3222091,0.0-18.0-0.1-0.226,4459,2,1
227,4,object_04,object_09,375.065,7,1,534.035,0.1111111111111111,1,object_02,5,2982,0,1,5,restaurant_5,1,memory-2step-stake-s,723,3229944,0.0-18.0-0.1-0.227,4459,7,8
228,2,object_10,object_03,427.66,4,2,576.405,0.5555555555555556,2,object_07,5,3007,0,1,5,forest_2,1,memory-2step-stake-s,724,3238245,0.0-18.0-0.1-0.228,4459,3,4
229,1,object_05,object_01,559.86,2,2,656.725,0.6666666666666666,2,object_07,1,3013,0,3,6,desert_26,1,memory-2step-stake-s,725,3246727,0.0-18.0-0.1-0.229,4459,1,2
230,4,object_04,object_09,299.915,8,2,519.84,0.7777777777777778,2,object_07,5,3048,0,4,7,restaurant_4,1,memory-2step-stake-s,726,3255172,0.0-18.0-0.1-0.230,4459,7,8
231,2,object_03,object_10,235.025,3,2,524.945,0.1111111111111111,1,object_02,1,3049,0,1,9,forest_6,1,memory-2step-stake-s,727,3263013,0.0-18.0-0.1-0.231,4459,4,3
232,4,object_04,object_09,790.9,8,2,565.03,0.7777777777777778,2,object_07,5,3084,0,0,7,restaurant_14,1,memory-2step-stake-s,728,3271507,0.0-18.0-0.1-0.232,4459,7,8
233,4,object_09,object_04,728.445,8,1,511.335,0.7777777777777778,2,object_07,5,3119,0,0,7,restaurant_22,1,memory-2step-stake-s,729,3279944,0.0-18.0-0.1-0.233,4459,8,7
234,4,object_04,object_09,626.775,8,2,438.08,0.7777777777777778,2,object_07,1,3126,0,5,7,restaurant_19,1,memory-2step-stake-s,730,3288309,0.0-18.0-0.1-0.234,4459,7,8
235,2,object_03,object_10,799.175,3,2,430.4,0.7777777777777778,1,object_02,1,3133,0,7,6,forest_2,1,memory-2step-stake-s,731,3296666,0.0-18.0-0.1-0.235,4459,4,3
236,4,object_09,object_04,437.21,8,1,423.78,0.6666666666666666,2,object_07,1,3139,0,9,6,restaurant_32,1,memory-2step-stake-s,732,3304912,0.0-18.0-0.1-0.236,4459,8,7
237,3,object_08,object_06,1014.33,5,2,420.51,0.6666666666666666,1,object_02,5,3169,0,6,6,library_22,1,memory-2step-stake-s,733,3313156,0.0-18.0-0.1-0.237,4459,6,5
238,3,object_06,object_08,1190.925,5,1,503.53,0.8888888888888888,1,object_02,5,3209,0,8,5,library_9,1,memory-2step-stake-s,734,3321686,0.0-18.0-0.1-0.238,4459,5,6
239,4,object_09,object_04,764.39,8,1,463.325,1.0,2,object_07,5,3254,0,6,9,restaurant_25,1,memory-2step-stake-s,735,3330277,0.0-18.0-0.1-0.239,4459,8,7
240,3,object_06,object_08,1418.99,6,2,742.165,0.7777777777777778,2,object_07,1,3261,0,5,7,library_24,1,memory-2step-stake-s,736,3338948,0.0-18.0-0.1-0.240,4459,5,6
241,4,object_04,object_09,450.145,8,2,502.575,0.7777777777777778,2,object_07,5,3296,0,5,7,restaurant_8,1,memory-2step-stake-s,737,3347377,0.0-18.0-0.1-0.241,4459,7,8
242,1,object_01,object_05,779.615,2,1,288.245,0.8888888888888888,2,object_07,1,3304,0,7,8,desert_19,1,memory-2step-stake-s,738,3355692,0.0-18.0-0.1-0.242,4459,2,1
243,2,object_10,object_03,517.54,4,2,315.84,0.7777777777777778,2,object_07,1,3311,0,8,7,forest_12,1,memory-2step-stake-s,739,3363934,0.0-18.0-0.1-0.243,4459,3,4
244,4,object_04,object_09,580.465,8,2,457.245,0.6666666666666666,2,object_07,1,3317,0,8,6,restaurant_5,1,memory-2step-stake-s,740,3372215,0.0-18.0-0.1-0.244,4459,7,8
245,3,object_08,object_06,519.265,5,2,354.515,1.0,1,object_02,5,3362,0,9,6,library_23,1,memory-2step-stake-s,741,3380699,0.0-18.0-0.1-0.245,4459,6,5
246,4,object_04,object_09,495.535,8,2,463.715,0.7777777777777778,2,object_07,5,3397,0,7,7,restaurant_1,1,memory-2step-stake-s,742,3389090,0.0-18.0-0.1-0.246,4459,7,8
247,3,object_08,object_06,-1.0,-1,-1,-1.0,0.0,-,,5,3397,0,5,7,library_29,1,memory-2step-stake-s,743,3395603,0.0-18.0-0.1-0.247,4459,6,5
248,4,object_04,object_09,257.695,7,1,29.825,0.7777777777777778,1,object_02,1,3404,0,7,8,restaurant_4,1,memory-2step-stake-s,744,3403558,0.0-18.0-0.1-0.248,4459,7,8
249,1,object_05,object_01,508.8,2,2,376.15,0.8888888888888888,2,object_07,5,3444,0,9,8,desert_2,1,memory-2step-stake-s,745,3411962,0.0-18.0-0.1-0.249,4459,1,2
250,2,object_03,object_10,236.295,4,1,844.655,0.4444444444444444,2,object_07,5,3464,0,8,4,forest_7,1,memory-2step-stake-s,746,3420428,0.0-18.0-0.1-0.250,4459,4,3
251,3,object_08,object_06,296.94,5,2,685.835,0.8888888888888888,1,object_02,5,3504,0,8,5,library_5,1,memory-2step-stake-s,747,3429143,0.0-18.0-0.1-0.251,4459,6,5
252,1,object_05,object_01,253.26,1,1,478.91,0.8888888888888888,1,object_02,1,3512,0,8,2,desert_17,1,memory-2step-stake-s,748,3437651,0.0-18.0-0.1-0.252,4459,1,2
253,3,object_08,object_06,240.135,5,2,600.96,1.0,1,object_02,5,3557,0,9,6,library_16,1,memory-2step-stake-s,749,3446378,0.0-18.0-0.1-0.253,4459,6,5
254,1,object_05,object_01,253.36,1,1,691.895,0.8888888888888888,1,object_02,1,3565,0,8,3,desert_15,1,memory-2step-stake-s,750,3455099,0.0-18.0-0.1-0.254,4459,1,2
255,2,object_03,object_10,241.335,3,2,-1.0,0.0,1,object_02,1,3565,0,6,2,forest_32,1,memory-2step-stake-s,751,3463614,0.0-18.0-0.1-0.255,4459,4,3
