,state1,stim_left,stim_right,rt_1,choice1,response1,rt_2,points,state2,stim_state2,stake,score,practice,rews1,rews2,background,high_arm,trial_type,trial_index,time_elapsed,internal_node_id,subid,stim_left_num,stim_right_num
0,3,object_04,object_08,1180.0,6,2,624.0,0.1111111111111111,2,object_07,1,1,0,2,1,library_10,2,memory-2step-stake-s,497,3637332,0.0-18.0-0.0-0.0,3836,5,6
1,1,object_10,object_09,394.0,2,1,790.0,0.0,2,object_07,5,1,0,0,0,desert_30,2,memory-2step-stake-s,498,3645340,0.0-18.0-0.0-0.1,3836,2,1
2,4,object_06,object_05,629.0,7,2,1166.0,0.1111111111111111,1,object_03,1,2,0,1,1,restaurant_9,2,memory-2step-stake-s,499,3653830,0.0-18.0-0.0-0.2,3836,8,7
3,2,object_01,object_02,466.0,4,2,506.0,0.5555555555555556,2,object_07,5,27,0,1,5,forest_27,2,memory-2step-stake-s,500,3662070,0.0-18.0-0.0-0.3,3836,3,4
4,2,object_02,object_01,638.0,4,1,398.0,0.2222222222222222,2,object_07,5,37,0,1,2,forest_9,2,memory-2step-stake-s,501,3669900,0.0-18.0-0.0-0.4,3836,4,3
5,2,object_02,object_01,581.0,3,2,620.0,0.0,1,object_03,5,37,0,0,2,forest_10,2,memory-2step-stake-s,502,3677744,0.0-18.0-0.0-0.5,3836,4,3
6,2,object_02,object_01,882.0,3,2,310.0,0.1111111111111111,1,object_03,1,38,0,1,3,forest_15,2,memory-2step-stake-s,503,3685381,0.0-18.0-0.0-0.6,3836,4,3
7,4,object_06,object_05,726.0,8,1,665.0,0.5555555555555556,2,object_07,5,63,0,1,5,restaurant_7,2,memory-2step-stake-s,504,3693767,0.0-18.0-0.0-0.7,3836,8,7
8,2,object_01,object_02,836.0,3,1,360.0,0.1111111111111111,1,object_03,5,68,0,1,3,forest_8,2,memory-2step-stake-s,505,3701442,0.0-18.0-0.0-0.8,3836,3,4
9,1,object_09,object_10,320.0,1,1,887.0,0.1111111111111111,1,object_03,5,73,0,1,5,desert_11,2,memory-2step-stake-s,506,3709655,0.0-18.0-0.0-0.9,3836,1,2
10,3,object_08,object_04,844.0,6,1,439.0,0.6666666666666666,2,object_07,1,79,0,2,6,library_12,2,memory-2step-stake-s,507,3718900,0.0-18.0-0.0-0.10,3836,6,5
11,2,object_01,object_02,-1.0,-1,-1,-1.0,0.0,-,,5,79,0,2,3,forest_26,2,memory-2step-stake-s,508,3726308,0.0-18.0-0.0-0.11,3836,3,4
12,4,object_06,object_05,389.0,8,1,738.0,0.4444444444444444,2,object_07,1,83,0,1,4,restaurant_18,2,memory-2step-stake-s,509,3734666,0.0-18.0-0.0-0.12,3836,8,7
13,3,object_04,object_08,654.0,6,2,-1.0,0.0,2,object_07,5,83,0,1,3,library_28,2,memory-2step-stake-s,510,3743189,0.0-18.0-0.0-0.13,3836,5,6
14,2,object_01,object_02,290.0,3,1,285.0,0.0,1,object_03,5,83,0,0,1,forest_15,2,memory-2step-stake-s,511,3750711,0.0-18.0-0.0-0.14,3836,3,4
15,3,object_04,object_08,-1.0,-1,-1,-1.0,0.0,-,,1,83,0,1,3,library_28,2,memory-2step-stake-s,512,3757225,0.0-18.0-0.0-0.15,3836,5,6
16,3,object_04,object_08,275.0,6,2,480.0,0.3333333333333333,2,object_07,1,86,0,4,3,library_13,2,memory-2step-stake-s,513,3765242,0.0-18.0-0.0-0.16,3836,5,6
17,4,object_06,object_05,329.0,8,1,411.0,0.3333333333333333,2,object_07,1,89,0,4,3,restaurant_8,2,memory-2step-stake-s,514,3773188,0.0-18.0-0.0-0.17,3836,8,7
18,3,object_08,object_04,563.0,6,1,451.0,0.5555555555555556,2,object_07,1,94,0,5,5,library_20,2,memory-2step-stake-s,515,3781369,0.0-18.0-0.0-0.18,3836,6,5
19,2,object_02,object_01,373.0,3,2,276.0,0.5555555555555556,1,object_03,5,119,0,5,6,forest_3,2,memory-2step-stake-s,516,3789382,0.0-18.0-0.0-0.19,3836,4,3
20,3,object_04,object_08,9.0,5,1,511.0,0.4444444444444444,1,object_03,1,123,0,4,8,library_26,2,memory-2step-stake-s,517,3797522,0.0-18.0-0.0-0.20,3836,5,6
21,3,object_08,object_04,294.0,5,2,1248.0,0.4444444444444444,1,object_03,1,127,0,4,8,library_19,2,memory-2step-stake-s,518,3806403,0.0-18.0-0.0-0.21,3836,6,5
22,2,object_01,object_02,501.0,3,1,684.0,0.6666666666666666,1,object_03,5,157,0,6,8,forest_23,2,memory-2step-stake-s,519,3814933,0.0-18.0-0.0-0.22,3836,3,4
23,3,object_08,object_04,652.0,6,1,382.0,0.7777777777777778,2,object_07,1,164,0,8,7,library_19,2,memory-2step-stake-s,520,3823251,0.0-18.0-0.0-0.23,3836,6,5
24,2,object_02,object_01,477.0,3,2,344.0,0.8888888888888888,1,object_03,5,204,0,8,9,forest_25,2,memory-2step-stake-s,521,3831633,0.0-18.0-0.0-0.24,3836,4,3
25,1,object_09,object_10,852.0,2,2,333.0,1.0,2,object_07,5,249,0,4,9,desert_9,2,memory-2step-stake-s,522,3840100,0.0-18.0-0.0-0.25,3836,1,2
26,1,object_10,object_09,1034.0,2,1,333.0,0.8888888888888888,2,object_07,5,289,0,7,8,desert_26,2,memory-2step-stake-s,523,3848464,0.0-18.0-0.0-0.26,3836,2,1
27,4,object_06,object_05,804.0,7,2,419.0,0.7777777777777778,1,object_03,1,296,0,7,8,restaurant_29,2,memory-2step-stake-s,524,3856815,0.0-18.0-0.0-0.27,3836,8,7
28,1,object_09,object_10,898.0,1,1,391.0,0.8888888888888888,1,object_03,5,336,0,8,5,desert_32,2,memory-2step-stake-s,525,3865234,0.0-18.0-0.0-0.28,3836,1,2
29,2,object_01,object_02,452.0,4,2,334.0,0.4444444444444444,2,object_07,5,356,0,9,4,forest_11,2,memory-2step-stake-s,526,3873187,0.0-18.0-0.0-0.29,3836,3,4
30,2,object_02,object_01,1069.0,3,2,449.0,1.0,1,object_03,5,401,0,9,6,forest_27,2,memory-2step-stake-s,527,3881773,0.0-18.0-0.0-0.30,3836,4,3
31,4,object_05,object_06,410.0,7,1,368.0,1.0,1,object_03,1,410,0,9,4,restaurant_31,2,memory-2step-stake-s,528,3890273,0.0-18.0-0.0-0.31,3836,7,8
32,4,object_06,object_05,452.0,7,2,321.0,1.0,1,object_03,1,419,0,9,5,restaurant_11,2,memory-2step-stake-s,529,3898732,0.0-18.0-0.0-0.32,3836,8,7
33,1,object_10,object_09,747.0,2,1,310.0,0.8888888888888888,2,object_07,5,459,0,6,8,desert_11,2,memory-2step-stake-s,530,3907078,0.0-18.0-0.0-0.33,3836,2,1
34,4,object_06,object_05,648.0,8,1,411.0,1.0,2,object_07,1,468,0,7,9,restaurant_5,2,memory-2step-stake-s,531,3915624,0.0-18.0-0.0-0.34,3836,8,7
35,1,object_10,object_09,691.0,1,2,298.0,0.7777777777777778,1,object_03,5,503,0,7,7,desert_2,2,memory-2step-stake-s,532,3923859,0.0-18.0-0.0-0.35,3836,2,1
36,3,object_08,object_04,891.0,6,1,341.0,0.4444444444444444,2,object_07,1,507,0,6,4,library_28,2,memory-2step-stake-s,533,3931838,0.0-18.0-0.0-0.36,3836,6,5
37,1,object_10,object_09,723.0,1,2,354.0,0.3333333333333333,1,object_03,5,522,0,3,8,desert_20,2,memory-2step-stake-s,534,3939721,0.0-18.0-0.0-0.37,3836,2,1
38,3,object_04,object_08,541.0,6,2,405.0,0.6666666666666666,2,object_07,1,528,0,5,6,library_12,2,memory-2step-stake-s,535,3947960,0.0-18.0-0.0-0.38,3836,5,6
39,4,object_06,object_05,854.0,8,1,327.0,0.8888888888888888,2,object_07,5,568,0,6,8,restaurant_6,2,memory-2step-stake-s,536,3956334,0.0-18.0-0.0-0.39,3836,8,7
40,4,object_05,object_06,867.0,8,2,362.0,0.7777777777777778,2,object_07,1,575,0,4,7,restaurant_3,2,memory-2step-stake-s,537,3964638,0.0-18.0-0.0-0.40,3836,7,8
41,3,object_04,object_08,619.0,5,1,379.0,0.6666666666666666,1,object_03,5,605,0,6,8,library_7,2,memory-2step-stake-s,538,3972855,0.0-18.0-0.0-0.41,3836,5,6
42,4,object_05,object_06,816.0,8,2,385.0,1.0,2,object_07,1,614,0,2,9,restaurant_6,2,memory-2step-stake-s,539,3981389,0.0-18.0-0.0-0.42,3836,7,8
43,3,object_04,object_08,1008.0,5,1,325.0,0.3333333333333333,1,object_03,1,617,0,3,7,library_3,2,memory-2step-stake-s,540,3989236,0.0-18.0-0.0-0.43,3836,5,6
44,4,object_05,object_06,575.0,8,2,333.0,1.0,2,object_07,1,626,0,0,9,restaurant_7,2,memory-2step-stake-s,541,3997704,0.0-18.0-0.0-0.44,3836,7,8
45,2,object_02,object_01,487.0,4,1,274.0,0.8888888888888888,2,object_07,5,666,0,2,8,forest_13,2,memory-2step-stake-s,542,4006026,0.0-18.0-0.0-0.45,3836,4,3
46,3,object_08,object_04,910.0,5,2,902.0,0.2222222222222222,1,object_03,1,668,0,2,5,library_24,2,memory-2step-stake-s,543,4014351,0.0-18.0-0.0-0.46,3836,6,5
47,1,object_09,object_10,746.0,1,1,437.0,0.0,1,object_03,5,668,0,0,2,desert_15,2,memory-2step-stake-s,544,4022009,0.0-18.0-0.0-0.47,3836,1,2
48,1,object_10,object_09,728.0,1,2,399.0,0.0,1,object_03,5,668,0,0,4,desert_2,2,memory-2step-stake-s,545,4029623,0.0-18.0-0.0-0.48,3836,2,1
49,2,object_01,object_02,977.0,3,1,306.0,0.1111111111111111,1,object_03,5,673,0,1,6,forest_2,2,memory-2step-stake-s,546,4037259,0.0-18.0-0.0-0.49,3836,3,4
50,3,object_04,object_08,925.0,6,2,393.0,0.6666666666666666,2,object_07,1,679,0,2,6,library_23,2,memory-2step-stake-s,547,4045484,0.0-18.0-0.0-0.50,3836,5,6
51,1,object_09,object_10,462.0,2,2,332.0,0.5555555555555556,2,object_07,5,704,0,5,5,desert_16,2,memory-2step-stake-s,548,4053543,0.0-18.0-0.0-0.51,3836,1,2
52,3,object_08,object_04,1089.0,5,2,525.0,0.7777777777777778,1,object_03,1,711,0,7,7,library_26,2,memory-2step-stake-s,549,4062002,0.0-18.0-0.0-0.52,3836,6,5
53,4,object_06,object_05,721.0,8,1,355.0,0.5555555555555556,2,object_07,5,736,0,8,5,restaurant_29,2,memory-2step-stake-s,550,4070096,0.0-18.0-0.0-0.53,3836,8,7
54,3,object_08,object_04,640.0,5,2,423.0,0.8888888888888888,1,object_03,5,776,0,8,6,library_28,2,memory-2step-stake-s,551,4078570,0.0-18.0-0.0-0.54,3836,6,5
55,1,object_10,object_09,1343.0,2,1,311.0,0.7777777777777778,2,object_07,5,811,0,9,7,desert_4,2,memory-2step-stake-s,552,4086820,0.0-18.0-0.0-0.55,3836,2,1
56,4,object_05,object_06,634.0,8,2,317.0,0.5555555555555556,2,object_07,1,816,0,7,5,restaurant_29,2,memory-2step-stake-s,553,4094869,0.0-18.0-0.0-0.56,3836,7,8
57,2,object_02,object_01,566.0,4,1,375.0,0.5555555555555556,2,object_07,5,841,0,7,5,forest_26,2,memory-2step-stake-s,554,4102974,0.0-18.0-0.0-0.57,3836,4,3
58,3,object_08,object_04,945.0,5,2,363.0,0.4444444444444444,1,object_03,1,845,0,4,6,library_31,2,memory-2step-stake-s,555,4110967,0.0-18.0-0.0-0.58,3836,6,5
59,2,object_01,object_02,817.0,4,2,328.0,0.8888888888888888,2,object_07,5,885,0,4,8,forest_2,2,memory-2step-stake-s,556,4119341,0.0-18.0-0.0-0.59,3836,3,4
60,1,object_09,object_10,696.0,2,2,347.0,0.7777777777777778,2,object_07,5,920,0,4,7,desert_4,2,memory-2step-stake-s,557,4127629,0.0-18.0-0.0-0.60,3836,1,2
61,1,object_10,object_09,965.0,2,1,308.0,0.7777777777777778,2,object_07,5,955,0,4,7,desert_32,2,memory-2step-stake-s,558,4135877,0.0-18.0-0.0-0.61,3836,2,1
62,1,object_09,object_10,577.0,2,2,381.0,0.8888888888888888,2,object_07,5,995,0,3,8,desert_5,2,memory-2step-stake-s,559,4144289,0.0-18.0-0.0-0.62,3836,1,2
63,1,object_10,object_09,565.0,2,1,328.0,0.7777777777777778,2,object_07,5,1030,0,6,7,desert_26,2,memory-2step-stake-s,560,4152556,0.0-18.0-0.0-0.63,3836,2,1
64,3,object_04,object_08,700.0,6,2,389.0,0.7777777777777778,2,object_07,1,1037,0,7,7,library_25,2,memory-2step-stake-s,561,4160873,0.0-18.0-0.0-0.64,3836,5,6
65,4,object_05,object_06,767.0,8,2,1249.0,0.8888888888888888,2,object_07,1,1045,0,7,8,restaurant_11,2,memory-2step-stake-s,562,4170164,0.0-18.0-0.0-0.65,3836,7,8
66,4,object_05,object_06,563.0,7,1,498.0,1.0,1,object_03,5,1090,0,9,8,restaurant_7,2,memory-2step-stake-s,563,4178795,0.0-18.0-0.0-0.66,3836,7,8
67,1,object_09,object_10,794.0,2,2,309.0,0.8888888888888888,2,object_07,5,1130,0,5,8,desert_32,2,memory-2step-stake-s,564,4187153,0.0-18.0-0.0-0.67,3836,1,2
68,4,object_05,object_06,576.0,8,2,426.0,0.5555555555555556,2,object_07,1,1135,0,3,5,restaurant_5,2,memory-2step-stake-s,565,4195313,0.0-18.0-0.0-0.68,3836,7,8
69,2,object_02,object_01,690.0,4,1,368.0,0.5555555555555556,2,object_07,5,1160,0,2,5,forest_27,2,memory-2step-stake-s,566,4203417,0.0-18.0-0.0-0.69,3836,4,3
70,2,object_01,object_02,692.0,3,1,573.0,0.3333333333333333,1,object_03,1,1163,0,3,1,forest_15,2,memory-2step-stake-s,567,4211517,0.0-18.0-0.0-0.70,3836,3,4
71,4,object_06,object_05,1072.0,7,2,392.0,0.5555555555555556,1,object_03,1,1168,0,5,2,restaurant_31,2,memory-2step-stake-s,568,4219638,0.0-18.0-0.0-0.71,3836,8,7
72,4,object_06,object_05,657.0,8,1,415.0,0.1111111111111111,2,object_07,1,1169,0,2,1,restaurant_9,2,memory-2step-stake-s,569,4227378,0.0-18.0-0.0-0.72,3836,8,7
73,4,object_05,object_06,759.0,8,2,372.0,0.1111111111111111,2,object_07,1,1170,0,1,1,restaurant_27,2,memory-2step-stake-s,570,4235077,0.0-18.0-0.0-0.73,3836,7,8
74,1,object_09,object_10,399.0,2,2,444.0,0.1111111111111111,2,object_07,5,1175,0,1,1,desert_20,2,memory-2step-stake-s,571,4242856,0.0-18.0-0.0-0.74,3836,1,2
75,1,object_09,object_10,391.0,1,1,394.0,0.2222222222222222,1,object_03,5,1185,0,2,2,desert_9,2,memory-2step-stake-s,572,4250673,0.0-18.0-0.0-0.75,3836,1,2
76,4,object_05,object_06,790.0,8,2,386.0,0.1111111111111111,2,object_07,1,1186,0,1,1,restaurant_31,2,memory-2step-stake-s,573,4258381,0.0-18.0-0.0-0.76,3836,7,8
77,2,object_01,object_02,474.0,4,2,338.0,0.4444444444444444,2,object_07,5,1206,0,0,4,forest_27,2,memory-2step-stake-s,574,4266338,0.0-18.0-0.0-0.77,3836,3,4
78,1,object_10,object_09,382.0,2,1,349.0,0.0,2,object_07,5,1206,0,3,0,desert_21,2,memory-2step-stake-s,575,4273906,0.0-18.0-0.0-0.78,3836,2,1
79,4,object_05,object_06,650.0,7,1,358.0,0.2222222222222222,1,object_03,1,1208,0,2,0,restaurant_14,2,memory-2step-stake-s,576,4281692,0.0-18.0-0.0-0.79,3836,7,8
80,3,object_08,object_04,708.0,5,2,369.0,0.4444444444444444,1,object_03,1,1212,0,4,1,library_19,2,memory-2step-stake-s,577,4289690,0.0-18.0-0.0-0.80,3836,6,5
81,2,object_01,object_02,407.0,3,1,347.0,0.6666666666666666,1,object_03,5,1242,0,6,3,forest_13,2,memory-2step-stake-s,578,4297884,0.0-18.0-0.0-0.81,3836,3,4
82,2,object_02,object_01,591.0,3,2,498.0,0.6666666666666666,1,object_03,5,1272,0,6,1,forest_29,2,memory-2step-stake-s,579,4306217,0.0-18.0-0.0-0.82,3836,4,3
83,3,object_04,object_08,594.0,5,1,313.0,0.6666666666666666,1,object_03,1,1278,0,6,1,library_7,2,memory-2step-stake-s,580,4314370,0.0-18.0-0.0-0.83,3836,5,6
84,4,object_06,object_05,861.0,8,1,335.0,0.1111111111111111,2,object_07,1,1279,0,8,1,restaurant_3,2,memory-2step-stake-s,581,4322029,0.0-18.0-0.0-0.84,3836,8,7
85,1,object_10,object_09,976.0,1,2,380.0,0.6666666666666666,1,object_03,5,1309,0,6,1,desert_25,2,memory-2step-stake-s,582,4330252,0.0-18.0-0.0-0.85,3836,2,1
86,4,object_06,object_05,650.0,7,2,453.0,0.3333333333333333,1,object_03,1,1312,0,3,1,restaurant_18,2,memory-2step-stake-s,583,4338227,0.0-18.0-0.0-0.86,3836,8,7
87,3,object_08,object_04,740.0,6,1,386.0,0.3333333333333333,2,object_07,1,1315,0,4,3,library_10,2,memory-2step-stake-s,584,4346146,0.0-18.0-0.0-0.87,3836,6,5
88,1,object_09,object_10,538.0,1,1,110.0,0.1111111111111111,1,object_03,5,1320,0,1,5,desert_16,2,memory-2step-stake-s,585,4353578,0.0-18.0-0.0-0.88,3836,1,2
89,3,object_08,object_04,437.0,5,2,438.0,0.0,1,object_03,1,1320,0,0,8,library_31,2,memory-2step-stake-s,586,4361242,0.0-18.0-0.0-0.89,3836,6,5
90,3,object_04,object_08,534.0,5,1,435.0,0.2222222222222222,1,object_03,1,1322,0,2,5,library_29,2,memory-2step-stake-s,587,4369097,0.0-18.0-0.0-0.90,3836,5,6
91,2,object_01,object_02,639.0,4,2,396.0,0.5555555555555556,2,object_07,1,1327,0,1,5,forest_7,2,memory-2step-stake-s,588,4377215,0.0-18.0-0.0-0.91,3836,3,4
92,1,object_09,object_10,508.0,1,1,276.0,0.0,1,object_03,5,1327,0,0,6,desert_5,2,memory-2step-stake-s,589,4384709,0.0-18.0-0.0-0.92,3836,1,2
93,1,object_10,object_09,429.0,2,1,457.0,0.7777777777777778,2,object_07,5,1362,0,1,7,desert_29,2,memory-2step-stake-s,590,4393100,0.0-18.0-0.0-0.93,3836,2,1
94,1,object_09,object_10,674.0,2,2,391.0,0.8888888888888888,2,object_07,5,1402,0,0,8,desert_9,2,memory-2step-stake-s,591,4401526,0.0-18.0-0.0-0.94,3836,1,2
95,2,object_02,object_01,1032.0,3,2,383.0,0.2222222222222222,1,object_03,5,1412,0,2,8,forest_2,2,memory-2step-stake-s,592,4409337,0.0-18.0-0.0-0.95,3836,4,3
96,2,object_02,object_01,708.0,4,1,409.0,0.6666666666666666,2,object_07,5,1442,0,4,6,forest_26,2,memory-2step-stake-s,593,4417584,0.0-18.0-0.0-0.96,3836,4,3
97,1,object_10,object_09,366.0,2,1,305.0,0.6666666666666666,2,object_07,5,1472,0,7,6,desert_9,2,memory-2step-stake-s,594,4425723,0.0-18.0-0.0-0.97,3836,2,1
98,1,object_10,object_09,993.0,2,1,298.0,1.0,2,object_07,5,1517,0,8,9,desert_21,2,memory-2step-stake-s,595,4434167,0.0-18.0-0.0-0.98,3836,2,1
99,4,object_05,object_06,626.0,8,2,987.0,1.0,2,object_07,1,1526,0,9,9,restaurant_18,2,memory-2step-stake-s,596,4443302,0.0-18.0-0.0-0.99,3836,7,8
100,4,object_05,object_06,637.0,7,1,307.0,0.8888888888888888,1,object_03,1,1534,0,8,8,restaurant_8,2,memory-2step-stake-s,597,4451654,0.0-18.0-0.0-0.100,3836,7,8
101,2,object_01,object_02,594.0,3,1,369.0,1.0,1,object_03,1,1543,0,9,4,forest_29,2,memory-2step-stake-s,598,4460164,0.0-18.0-0.0-0.101,3836,3,4
102,3,object_04,object_08,509.0,5,1,395.0,0.7777777777777778,1,object_03,1,1550,0,7,2,library_7,2,memory-2step-stake-s,599,4468498,0.0-18.0-0.0-0.102,3836,5,6
103,1,object_09,object_10,621.0,1,1,326.0,0.8888888888888888,1,object_03,5,1590,0,8,0,desert_18,2,memory-2step-stake-s,600,4476859,0.0-18.0-0.0-0.103,3836,1,2
104,2,object_02,object_01,823.0,4,1,324.0,0.3333333333333333,2,object_07,5,1605,0,7,3,forest_9,2,memory-2step-stake-s,601,4484716,0.0-18.0-0.0-0.104,3836,4,3
105,1,object_10,object_09,906.0,2,1,541.0,0.4444444444444444,2,object_07,5,1625,0,8,4,desert_29,2,memory-2step-stake-s,602,4492887,0.0-18.0-0.0-0.105,3836,2,1
106,3,object_08,object_04,798.0,5,2,437.0,0.5555555555555556,1,object_03,5,1650,0,5,6,library_24,2,memory-2step-stake-s,603,4501053,0.0-18.0-0.0-0.106,3836,6,5
107,3,object_08,object_04,614.0,6,1,327.0,0.7777777777777778,2,object_07,1,1657,0,9,7,library_29,2,memory-2step-stake-s,604,4509330,0.0-18.0-0.0-0.107,3836,6,5
108,1,object_10,object_09,-1.0,-1,-1,-1.0,0.0,-,,5,1657,0,6,7,desert_29,2,memory-2step-stake-s,605,4515853,0.0-18.0-0.0-0.108,3836,2,1
109,3,object_04,object_08,683.0,6,2,509.0,0.7777777777777778,2,object_07,5,1692,0,5,7,library_29,2,memory-2step-stake-s,606,4524298,0.0-18.0-0.0-0.109,3836,5,6
110,4,object_06,object_05,398.0,8,1,406.0,0.6666666666666666,2,object_07,1,1698,0,5,6,restaurant_8,2,memory-2step-stake-s,607,4532540,0.0-18.0-0.0-0.110,3836,8,7
111,1,object_10,object_09,810.0,2,1,415.0,0.4444444444444444,2,object_07,5,1718,0,2,4,desert_32,2,memory-2step-stake-s,608,4540590,0.0-18.0-0.0-0.111,3836,2,1
112,2,object_01,object_02,676.0,4,2,321.0,0.4444444444444444,2,object_07,1,1722,0,0,4,forest_7,2,memory-2step-stake-s,609,4548542,0.0-18.0-0.0-0.112,3836,3,4
113,1,object_10,object_09,570.0,2,1,379.0,0.2222222222222222,2,object_07,5,1732,0,2,2,desert_29,2,memory-2step-stake-s,610,4556356,0.0-18.0-0.0-0.113,3836,2,1
114,3,object_04,object_08,537.0,5,1,297.0,0.1111111111111111,1,object_03,5,1737,0,1,3,library_7,2,memory-2step-stake-s,611,4563982,0.0-18.0-0.0-0.114,3836,5,6
115,1,object_10,object_09,350.0,1,2,391.0,0.5555555555555556,1,object_03,5,1762,0,5,1,desert_16,2,memory-2step-stake-s,612,4572112,0.0-18.0-0.0-0.115,3836,2,1
116,4,object_05,object_06,498.0,8,2,382.0,0.2222222222222222,2,object_07,1,1764,0,8,2,restaurant_21,2,memory-2step-stake-s,613,4579918,0.0-18.0-0.0-0.116,3836,7,8
117,4,object_05,object_06,902.0,7,1,418.0,0.6666666666666666,1,object_03,1,1770,0,6,6,restaurant_30,2,memory-2step-stake-s,614,4588173,0.0-18.0-0.0-0.117,3836,7,8
118,2,object_01,object_02,702.0,4,2,308.0,0.4444444444444444,2,object_07,5,1790,0,7,4,forest_13,2,memory-2step-stake-s,615,4596112,0.0-18.0-0.0-0.118,3836,3,4
119,2,object_02,object_01,594.0,4,1,311.0,0.5555555555555556,2,object_07,5,1815,0,5,5,forest_1,2,memory-2step-stake-s,616,4604162,0.0-18.0-0.0-0.119,3836,4,3
120,3,object_04,object_08,615.0,6,2,422.0,0.7777777777777778,2,object_07,5,1850,0,3,7,library_27,2,memory-2step-stake-s,617,4612517,0.0-18.0-0.0-0.120,3836,5,6
121,1,object_10,object_09,625.0,2,1,304.0,0.6666666666666666,2,object_07,1,1856,0,2,6,desert_31,2,memory-2step-stake-s,618,4620655,0.0-18.0-0.0-0.121,3836,2,1
122,3,object_08,object_04,786.0,5,2,410.0,0.2222222222222222,1,object_03,1,1858,0,2,5,library_10,2,memory-2step-stake-s,619,4628494,0.0-18.0-0.0-0.122,3836,6,5
123,3,object_04,object_08,781.0,6,2,357.0,0.6666666666666666,2,object_07,5,1888,0,0,6,library_12,2,memory-2step-stake-s,620,4636694,0.0-18.0-0.0-0.123,3836,5,6
124,2,object_02,object_01,666.0,4,1,431.0,0.7777777777777778,2,object_07,5,1923,0,1,7,forest_10,2,memory-2step-stake-s,621,4645062,0.0-18.0-0.0-0.124,3836,4,3
125,3,object_04,object_08,499.0,6,2,436.0,0.8888888888888888,2,object_07,1,1931,0,1,8,library_10,2,memory-2step-stake-s,622,4653530,0.0-18.0-0.0-0.125,3836,5,6
126,2,object_01,object_02,613.0,3,1,315.0,0.2222222222222222,1,object_03,5,1941,0,2,8,forest_21,2,memory-2step-stake-s,623,4661262,0.0-18.0-0.0-0.126,3836,3,4
127,4,object_05,object_06,408.0,8,2,372.0,0.7777777777777778,2,object_07,5,1976,0,2,7,restaurant_18,2,memory-2step-stake-s,624,4669573,0.0-18.0-0.0-0.127,3836,7,8
128,3,object_04,object_08,1001.0,5,1,484.0,0.2222222222222222,1,object_03,5,1986,0,2,7,library_20,2,memory-2step-stake-s,626,4753355,0.0-18.0-0.1-0.128,3836,5,6
129,2,object_02,object_01,480.0,4,1,325.0,0.8888888888888888,2,object_07,5,2026,0,0,8,forest_23,2,memory-2step-stake-s,627,4761725,0.0-18.0-0.1-0.129,3836,4,3
130,3,object_04,object_08,487.0,6,2,396.0,0.5555555555555556,2,object_07,5,2051,0,0,5,library_27,2,memory-2step-stake-s,628,4769858,0.0-18.0-0.1-0.130,3836,5,6
131,2,object_02,object_01,439.0,4,1,348.0,0.6666666666666666,2,object_07,5,2081,0,3,6,forest_8,2,memory-2step-stake-s,629,4778050,0.0-18.0-0.1-0.131,3836,4,3
132,1,object_10,object_09,945.0,2,1,604.0,0.5555555555555556,2,object_07,5,2106,0,3,5,desert_16,2,memory-2step-stake-s,630,4786393,0.0-18.0-0.1-0.132,3836,2,1
133,1,object_09,object_10,363.0,2,2,543.0,0.6666666666666666,2,object_07,5,2136,0,2,6,desert_15,2,memory-2step-stake-s,631,4794780,0.0-18.0-0.1-0.133,3836,1,2
134,2,object_02,object_01,729.0,4,1,427.0,0.8888888888888888,2,object_07,5,2176,0,1,8,forest_26,2,memory-2step-stake-s,632,4803251,0.0-18.0-0.1-0.134,3836,4,3
135,4,object_05,object_06,767.0,8,2,-1.0,0.0,2,object_07,5,2176,0,2,8,restaurant_29,2,memory-2step-stake-s,633,4811776,0.0-18.0-0.1-0.135,3836,7,8
136,2,object_02,object_01,440.0,4,1,324.0,1.0,2,object_07,5,2221,0,1,9,forest_7,2,memory-2step-stake-s,634,4820241,0.0-18.0-0.1-0.136,3836,4,3
137,1,object_10,object_09,703.0,2,1,303.0,1.0,2,object_07,1,2230,0,4,9,desert_4,2,memory-2step-stake-s,635,4828693,0.0-18.0-0.1-0.137,3836,2,1
138,2,object_02,object_01,623.0,4,1,673.0,1.0,2,object_07,1,2239,0,8,9,forest_9,2,memory-2step-stake-s,636,4837520,0.0-18.0-0.1-0.138,3836,4,3
139,2,object_01,object_02,527.0,4,2,115.0,0.8888888888888888,2,object_07,5,2279,0,8,8,forest_3,2,memory-2step-stake-s,637,4845673,0.0-18.0-0.1-0.139,3836,3,4
140,2,object_02,object_01,542.0,4,1,296.0,1.0,2,object_07,5,2324,0,7,9,forest_1,2,memory-2step-stake-s,638,4854117,0.0-18.0-0.1-0.140,3836,4,3
141,3,object_08,object_04,712.0,5,2,218.0,0.8888888888888888,1,object_03,1,2332,0,8,8,library_12,2,memory-2step-stake-s,639,4862385,0.0-18.0-0.1-0.141,3836,6,5
142,1,object_09,object_10,597.0,1,1,394.0,0.6666666666666666,1,object_03,1,2338,0,6,6,desert_18,2,memory-2step-stake-s,640,4870614,0.0-18.0-0.1-0.142,3836,1,2
143,4,object_05,object_06,639.0,8,2,324.0,0.3333333333333333,2,object_07,1,2341,0,5,3,restaurant_11,2,memory-2step-stake-s,641,4878473,0.0-18.0-0.1-0.143,3836,7,8
144,1,object_09,object_10,948.0,2,2,568.0,0.5555555555555556,2,object_07,5,2366,0,1,5,desert_11,2,memory-2step-stake-s,642,4886782,0.0-18.0-0.1-0.144,3836,1,2
145,3,object_04,object_08,757.0,5,1,336.0,0.6666666666666666,1,object_03,5,2396,0,6,8,library_13,2,memory-2step-stake-s,643,4894957,0.0-18.0-0.1-0.145,3836,5,6
146,4,object_06,object_05,528.0,8,1,346.0,0.7777777777777778,2,object_07,5,2431,0,5,7,restaurant_3,2,memory-2step-stake-s,644,4903243,0.0-18.0-0.1-0.146,3836,8,7
147,1,object_10,object_09,1015.0,2,1,437.0,0.8888888888888888,2,object_07,5,2471,0,3,8,desert_11,2,memory-2step-stake-s,645,4911730,0.0-18.0-0.1-0.147,3836,2,1
148,3,object_04,object_08,603.0,6,2,789.0,0.8888888888888888,2,object_07,1,2479,0,8,8,library_25,2,memory-2step-stake-s,646,4920563,0.0-18.0-0.1-0.148,3836,5,6
149,3,object_08,object_04,1475.0,6,1,-1.0,0.0,2,object_07,5,2479,0,6,8,library_27,2,memory-2step-stake-s,647,4929089,0.0-18.0-0.1-0.149,3836,6,5
150,2,object_02,object_01,1045.0,4,1,317.0,0.7777777777777778,2,object_07,5,2514,0,6,7,forest_21,2,memory-2step-stake-s,648,4937344,0.0-18.0-0.1-0.150,3836,4,3
151,4,object_05,object_06,460.0,8,2,340.0,1.0,2,object_07,5,2559,0,4,9,restaurant_5,2,memory-2step-stake-s,649,4945831,0.0-18.0-0.1-0.151,3836,7,8
152,2,object_02,object_01,461.0,4,1,360.0,0.8888888888888888,2,object_07,5,2599,0,5,8,forest_21,2,memory-2step-stake-s,650,4954233,0.0-18.0-0.1-0.152,3836,4,3
153,4,object_05,object_06,-1.0,-1,-1,-1.0,0.0,-,,1,2599,0,6,6,restaurant_14,2,memory-2step-stake-s,651,4960837,0.0-18.0-0.1-0.153,3836,7,8
154,2,object_01,object_02,784.0,4,2,334.0,1.0,2,object_07,1,2608,0,3,9,forest_11,2,memory-2step-stake-s,652,4969296,0.0-18.0-0.1-0.154,3836,3,4
155,1,object_10,object_09,767.0,2,1,367.0,0.8888888888888888,2,object_07,5,2648,0,3,8,desert_31,2,memory-2step-stake-s,653,4977701,0.0-18.0-0.1-0.155,3836,2,1
156,3,object_08,object_04,518.0,5,2,369.0,0.3333333333333333,1,object_03,1,2651,0,3,8,library_24,2,memory-2step-stake-s,654,4985605,0.0-18.0-0.1-0.156,3836,6,5
157,3,object_08,object_04,559.0,6,1,287.0,0.8888888888888888,2,object_07,1,2659,0,2,8,library_13,2,memory-2step-stake-s,655,4993930,0.0-18.0-0.1-0.157,3836,6,5
158,1,object_10,object_09,572.0,2,1,119.0,0.8888888888888888,2,object_07,5,2699,0,5,8,desert_26,2,memory-2step-stake-s,656,5002093,0.0-18.0-0.1-0.158,3836,2,1
159,1,object_10,object_09,515.0,2,1,441.0,0.6666666666666666,2,object_07,5,2729,0,3,6,desert_30,2,memory-2step-stake-s,657,5010363,0.0-18.0-0.1-0.159,3836,2,1
160,4,object_05,object_06,692.0,8,2,1141.0,0.3333333333333333,2,object_07,1,2732,0,2,3,restaurant_32,2,memory-2step-stake-s,658,5019030,0.0-18.0-0.1-0.160,3836,7,8
161,3,object_08,object_04,624.0,5,2,329.0,0.5555555555555556,1,object_03,1,2737,0,5,3,library_31,2,memory-2step-stake-s,659,5027099,0.0-18.0-0.1-0.161,3836,6,5
162,1,object_09,object_10,429.0,2,2,455.0,0.1111111111111111,2,object_07,5,2742,0,6,1,desert_2,2,memory-2step-stake-s,660,5034882,0.0-18.0-0.1-0.162,3836,1,2
163,3,object_08,object_04,623.0,6,1,336.0,0.2222222222222222,2,object_07,1,2744,0,2,2,library_3,2,memory-2step-stake-s,661,5042648,0.0-18.0-0.1-0.163,3836,6,5
164,3,object_08,object_04,367.0,5,2,308.0,0.4444444444444444,1,object_03,1,2748,0,4,1,library_20,2,memory-2step-stake-s,662,5050594,0.0-18.0-0.1-0.164,3836,6,5
165,2,object_02,object_01,586.0,3,2,361.0,0.2222222222222222,1,object_03,5,2758,0,2,5,forest_29,2,memory-2step-stake-s,663,5058389,0.0-18.0-0.1-0.165,3836,4,3
166,3,object_08,object_04,426.0,6,1,292.0,0.7777777777777778,2,object_07,1,2765,0,5,7,library_26,2,memory-2step-stake-s,664,5066625,0.0-18.0-0.1-0.166,3836,6,5
167,4,object_06,object_05,591.0,8,1,333.0,0.7777777777777778,2,object_07,1,2772,0,6,7,restaurant_27,2,memory-2step-stake-s,665,5074900,0.0-18.0-0.1-0.167,3836,8,7
168,3,object_08,object_04,393.0,6,1,66.0,0.3333333333333333,2,object_07,1,2775,0,8,3,library_25,2,memory-2step-stake-s,666,5082500,0.0-18.0-0.1-0.168,3836,6,5
169,2,object_02,object_01,546.0,4,1,352.0,0.3333333333333333,2,object_07,5,2790,0,6,3,forest_2,2,memory-2step-stake-s,667,5090383,0.0-18.0-0.1-0.169,3836,4,3
170,4,object_05,object_06,842.0,8,2,293.0,0.0,2,object_07,1,2790,0,5,0,restaurant_30,2,memory-2step-stake-s,668,5097904,0.0-18.0-0.1-0.170,3836,7,8
171,3,object_04,object_08,589.0,5,1,351.0,0.4444444444444444,1,object_03,5,2810,0,4,4,library_24,2,memory-2step-stake-s,669,5105892,0.0-18.0-0.1-0.171,3836,5,6
172,4,object_05,object_06,699.0,7,1,266.0,0.6666666666666666,1,object_03,5,2840,0,6,3,restaurant_27,2,memory-2step-stake-s,670,5113997,0.0-18.0-0.1-0.172,3836,7,8
173,3,object_04,object_08,1286.0,6,2,465.0,0.2222222222222222,2,object_07,1,2842,0,8,2,library_25,2,memory-2step-stake-s,671,5121889,0.0-18.0-0.1-0.173,3836,5,6
174,3,object_08,object_04,1206.0,6,1,284.0,0.3333333333333333,2,object_07,1,2845,0,5,3,library_4,2,memory-2step-stake-s,672,5129708,0.0-18.0-0.1-0.174,3836,6,5
175,4,object_06,object_05,623.0,7,2,308.0,0.2222222222222222,1,object_03,5,2855,0,2,4,restaurant_6,2,memory-2step-stake-s,673,5137443,0.0-18.0-0.1-0.175,3836,8,7
176,1,object_10,object_09,441.0,2,1,269.0,0.5555555555555556,2,object_07,5,2880,0,0,5,desert_26,2,memory-2step-stake-s,674,5145450,0.0-18.0-0.1-0.176,3836,2,1
177,2,object_02,object_01,712.0,4,1,400.0,0.2222222222222222,2,object_07,5,2890,0,3,2,forest_23,2,memory-2step-stake-s,675,5153287,0.0-18.0-0.1-0.177,3836,4,3
178,4,object_05,object_06,763.0,8,2,795.0,0.2222222222222222,2,object_07,1,2892,0,3,2,restaurant_32,2,memory-2step-stake-s,676,5161514,0.0-18.0-0.1-0.178,3836,7,8
179,1,object_10,object_09,572.0,2,1,539.0,0.2222222222222222,2,object_07,5,2902,0,5,2,desert_15,2,memory-2step-stake-s,677,5169484,0.0-18.0-0.1-0.179,3836,2,1
180,4,object_05,object_06,465.0,8,2,580.0,0.4444444444444444,2,object_07,1,2906,0,1,4,restaurant_21,2,memory-2step-stake-s,678,5177705,0.0-18.0-0.1-0.180,3836,7,8
181,2,object_02,object_01,479.0,4,1,260.0,0.4444444444444444,2,object_07,5,2926,0,0,4,forest_9,2,memory-2step-stake-s,679,5185601,0.0-18.0-0.1-0.181,3836,4,3
182,4,object_05,object_06,701.0,8,2,365.0,0.7777777777777778,2,object_07,5,2961,0,1,7,restaurant_31,2,memory-2step-stake-s,680,5193909,0.0-18.0-0.1-0.182,3836,7,8
183,3,object_08,object_04,584.0,5,2,664.0,0.1111111111111111,1,object_03,1,2962,0,1,4,library_23,2,memory-2step-stake-s,681,5201905,0.0-18.0-0.1-0.183,3836,6,5
184,2,object_02,object_01,566.0,4,1,289.0,0.1111111111111111,2,object_07,5,2967,0,1,1,forest_29,2,memory-2step-stake-s,682,5209517,0.0-18.0-0.1-0.184,3836,4,3
185,1,object_09,object_10,495.0,2,2,382.0,0.1111111111111111,2,object_07,1,2968,0,1,1,desert_2,2,memory-2step-stake-s,683,5217225,0.0-18.0-0.1-0.185,3836,1,2
186,1,object_09,object_10,601.0,1,1,326.0,0.4444444444444444,1,object_03,5,2988,0,4,0,desert_30,2,memory-2step-stake-s,684,5225187,0.0-18.0-0.1-0.186,3836,1,2
187,3,object_04,object_08,480.0,6,2,324.0,0.2222222222222222,2,object_07,1,2990,0,3,2,library_26,2,memory-2step-stake-s,685,5232948,0.0-18.0-0.1-0.187,3836,5,6
188,1,object_10,object_09,807.0,2,1,350.0,0.4444444444444444,2,object_07,5,3010,0,0,4,desert_18,2,memory-2step-stake-s,686,5240932,0.0-18.0-0.1-0.188,3836,2,1
189,2,object_02,object_01,-1.0,-1,-1,-1.0,0.0,-,,5,3010,0,1,3,forest_10,2,memory-2step-stake-s,687,5247449,0.0-18.0-0.1-0.189,3836,4,3
190,4,object_05,object_06,1467.0,8,2,518.0,0.3333333333333333,2,object_07,1,3013,0,1,3,restaurant_14,2,memory-2step-stake-s,688,5255495,0.0-18.0-0.1-0.190,3836,7,8
191,1,object_10,object_09,513.0,2,1,19.0,0.6666666666666666,2,object_07,1,3019,0,3,6,desert_18,2,memory-2step-stake-s,689,5263353,0.0-18.0-0.1-0.191,3836,2,1
192,2,object_02,object_01,551.0,4,1,368.0,0.3333333333333333,2,object_07,5,3034,0,1,3,forest_25,2,memory-2step-stake-s,690,5271252,0.0-18.0-0.1-0.192,3836,4,3
193,4,object_06,object_05,143.0,7,2,335.0,0.1111111111111111,1,object_03,1,3035,0,1,5,restaurant_23,2,memory-2step-stake-s,691,5278915,0.0-18.0-0.1-0.193,3836,8,7
194,2,object_02,object_01,458.0,4,1,337.0,0.6666666666666666,2,object_07,5,3065,0,1,6,forest_10,2,memory-2step-stake-s,692,5287092,0.0-18.0-0.1-0.194,3836,4,3
195,4,object_06,object_05,589.0,8,1,478.0,0.4444444444444444,2,object_07,1,3069,0,0,4,restaurant_11,2,memory-2step-stake-s,693,5295205,0.0-18.0-0.1-0.195,3836,8,7
196,3,object_04,object_08,651.0,6,2,1094.0,0.1111111111111111,2,object_07,5,3074,0,2,1,library_31,2,memory-2step-stake-s,694,5303621,0.0-18.0-0.1-0.196,3836,5,6
197,1,object_10,object_09,413.0,2,1,309.0,0.3333333333333333,2,object_07,5,3089,0,3,3,desert_25,2,memory-2step-stake-s,695,5311463,0.0-18.0-0.1-0.197,3836,2,1
198,2,object_02,object_01,563.0,4,1,346.0,0.1111111111111111,2,object_07,5,3094,0,3,1,forest_8,2,memory-2step-stake-s,696,5319136,0.0-18.0-0.1-0.198,3836,4,3
199,1,object_09,object_10,620.0,2,2,394.0,0.2222222222222222,2,object_07,5,3104,0,4,2,desert_20,2,memory-2step-stake-s,697,5326962,0.0-18.0-0.1-0.199,3836,1,2
200,4,object_05,object_06,568.0,7,1,355.0,0.3333333333333333,1,object_03,1,3107,0,3,3,restaurant_6,2,memory-2step-stake-s,698,5334851,0.0-18.0-0.1-0.200,3836,7,8
201,4,object_06,object_05,874.0,8,1,33.0,0.1111111111111111,2,object_07,1,3108,0,3,1,restaurant_9,2,memory-2step-stake-s,699,5342214,0.0-18.0-0.1-0.201,3836,8,7
202,4,object_05,object_06,654.0,8,2,376.0,0.3333333333333333,2,object_07,5,3123,0,5,3,restaurant_3,2,memory-2step-stake-s,700,5350129,0.0-18.0-0.1-0.202,3836,7,8
203,2,object_02,object_01,560.0,4,1,584.0,0.4444444444444444,2,object_07,5,3143,0,5,4,forest_25,2,memory-2step-stake-s,701,5358341,0.0-18.0-0.1-0.203,3836,4,3
204,4,object_05,object_06,680.0,8,2,320.0,0.4444444444444444,2,object_07,1,3147,0,5,4,restaurant_30,2,memory-2step-stake-s,702,5366298,0.0-18.0-0.1-0.204,3836,7,8
205,3,object_08,object_04,542.0,6,1,362.0,0.7777777777777778,2,object_07,1,3154,0,5,7,library_19,2,memory-2step-stake-s,703,5374598,0.0-18.0-0.1-0.205,3836,6,5
206,1,object_09,object_10,529.0,2,2,247.0,0.7777777777777778,2,object_07,1,3161,0,8,7,desert_30,2,memory-2step-stake-s,704,5382784,0.0-18.0-0.1-0.206,3836,1,2
207,1,object_10,object_09,378.0,2,1,680.0,0.7777777777777778,2,object_07,5,3196,0,7,7,desert_15,2,memory-2step-stake-s,705,5391396,0.0-18.0-0.1-0.207,3836,2,1
208,4,object_06,object_05,590.0,7,2,853.0,1.0,1,object_03,1,3205,0,9,5,restaurant_14,2,memory-2step-stake-s,706,5400387,0.0-18.0-0.1-0.208,3836,8,7
209,1,object_10,object_09,731.0,2,1,385.0,0.4444444444444444,2,object_07,5,3225,0,6,4,desert_21,2,memory-2step-stake-s,707,5408404,0.0-18.0-0.1-0.209,3836,2,1
210,2,object_01,object_02,653.0,3,1,399.0,0.5555555555555556,1,object_03,5,3250,0,5,5,forest_21,2,memory-2step-stake-s,708,5416540,0.0-18.0-0.1-0.210,3836,3,4
211,1,object_09,object_10,652.0,2,2,418.0,0.2222222222222222,2,object_07,1,3252,0,2,2,desert_5,2,memory-2step-stake-s,709,5424390,0.0-18.0-0.1-0.211,3836,1,2
212,4,object_06,object_05,403.0,8,1,40.0,0.0,2,object_07,5,3252,0,1,0,restaurant_21,2,memory-2step-stake-s,710,5431650,0.0-18.0-0.1-0.212,3836,8,7
213,2,object_01,object_02,460.0,4,2,691.0,0.2222222222222222,2,object_07,5,3262,0,2,2,forest_8,2,memory-2step-stake-s,711,5439771,0.0-18.0-0.1-0.213,3836,3,4
214,1,object_09,object_10,617.0,1,1,357.0,0.2222222222222222,1,object_03,1,3264,0,2,3,desert_20,2,memory-2step-stake-s,712,5447553,0.0-18.0-0.1-0.214,3836,1,2
215,4,object_05,object_06,534.0,8,2,-1.0,0.0,2,object_07,1,3264,0,0,2,restaurant_32,2,memory-2step-stake-s,713,5456085,0.0-18.0-0.1-0.215,3836,7,8
216,4,object_05,object_06,357.0,7,1,375.0,0.0,1,object_03,1,3264,0,0,0,restaurant_23,2,memory-2step-stake-s,714,5463685,0.0-18.0-0.1-0.216,3836,7,8
217,3,object_08,object_04,375.0,5,2,351.0,0.1111111111111111,1,object_03,1,3265,0,1,1,library_3,2,memory-2step-stake-s,715,5471366,0.0-18.0-0.1-0.217,3836,6,5
218,3,object_08,object_04,386.0,6,1,372.0,0.3333333333333333,2,object_07,5,3280,0,3,3,library_23,2,memory-2step-stake-s,716,5479272,0.0-18.0-0.1-0.218,3836,6,5
219,3,object_08,object_04,1425.0,5,2,1324.0,0.4444444444444444,1,object_03,1,3284,0,4,0,library_4,2,memory-2step-stake-s,717,5488235,0.0-18.0-0.1-0.219,3836,6,5
220,2,object_01,object_02,-1.0,-1,-1,-1.0,0.0,-,,5,3284,0,3,1,forest_11,2,memory-2step-stake-s,718,5494753,0.0-18.0-0.1-0.220,3836,3,4
221,2,object_01,object_02,384.0,3,1,471.0,0.2222222222222222,1,object_03,1,3286,0,2,2,forest_7,2,memory-2step-stake-s,719,5502656,0.0-18.0-0.1-0.221,3836,3,4
222,3,object_08,object_04,405.0,5,2,407.0,0.2222222222222222,1,object_03,1,3288,0,2,2,library_20,2,memory-2step-stake-s,720,5510494,0.0-18.0-0.1-0.222,3836,6,5
223,3,object_08,object_04,450.0,6,1,396.0,0.5555555555555556,2,object_07,1,3293,0,1,5,library_13,2,memory-2step-stake-s,721,5518620,0.0-18.0-0.1-0.223,3836,6,5
224,2,object_02,object_01,619.0,3,2,413.0,0.3333333333333333,1,object_03,5,3308,0,3,3,forest_1,2,memory-2step-stake-s,722,5526567,0.0-18.0-0.1-0.224,3836,4,3
225,1,object_09,object_10,408.0,2,2,481.0,0.4444444444444444,2,object_07,5,3328,0,7,4,desert_5,2,memory-2step-stake-s,723,5534678,0.0-18.0-0.1-0.225,3836,1,2
226,2,object_02,object_01,420.0,4,1,320.0,0.6666666666666666,2,object_07,5,3358,0,9,6,forest_3,2,memory-2step-stake-s,724,5542841,0.0-18.0-0.1-0.226,3836,4,3
227,1,object_09,object_10,376.0,2,2,383.0,0.6666666666666666,2,object_07,1,3364,0,6,6,desert_4,2,memory-2step-stake-s,725,5551062,0.0-18.0-0.1-0.227,3836,1,2
228,2,object_02,object_01,420.0,4,1,391.0,0.6666666666666666,2,object_07,1,3370,0,5,6,forest_11,2,memory-2step-stake-s,726,5559290,0.0-18.0-0.1-0.228,3836,4,3
229,4,object_06,object_05,274.0,7,2,349.0,0.3333333333333333,1,object_03,5,3385,0,3,4,restaurant_30,2,memory-2step-stake-s,727,5567173,0.0-18.0-0.1-0.229,3836,8,7
230,4,object_06,object_05,747.0,8,1,323.0,0.8888888888888888,2,object_07,1,3393,0,3,8,restaurant_21,2,memory-2step-stake-s,728,5575539,0.0-18.0-0.1-0.230,3836,8,7
231,3,object_04,object_08,663.0,5,1,312.0,0.1111111111111111,1,object_03,5,3398,0,1,9,library_4,2,memory-2step-stake-s,729,5583178,0.0-18.0-0.1-0.231,3836,5,6
232,4,object_05,object_06,505.0,8,2,268.0,0.7777777777777778,2,object_07,5,3433,0,0,7,restaurant_8,2,memory-2step-stake-s,730,5591387,0.0-18.0-0.1-0.232,3836,7,8
233,2,object_01,object_02,569.0,3,1,290.0,0.2222222222222222,1,object_03,1,3435,0,2,6,forest_13,2,memory-2step-stake-s,731,5599102,0.0-18.0-0.1-0.233,3836,3,4
234,2,object_02,object_01,559.0,3,2,283.0,0.4444444444444444,1,object_03,5,3455,0,4,8,forest_3,2,memory-2step-stake-s,732,5607016,0.0-18.0-0.1-0.234,3836,4,3
235,1,object_09,object_10,1024.0,2,2,372.0,0.8888888888888888,2,object_07,5,3495,0,4,8,desert_21,2,memory-2step-stake-s,733,5615436,0.0-18.0-0.1-0.235,3836,1,2
236,2,object_02,object_01,648.0,4,1,345.0,1.0,2,object_07,5,3540,0,4,9,forest_1,2,memory-2step-stake-s,734,5623924,0.0-18.0-0.1-0.236,3836,4,3
237,2,object_01,object_02,621.0,4,2,344.0,0.8888888888888888,2,object_07,5,3580,0,2,8,forest_15,2,memory-2step-stake-s,735,5632306,0.0-18.0-0.1-0.237,3836,3,4
238,1,object_09,object_10,545.0,1,1,329.0,0.7777777777777778,1,object_03,1,3587,0,7,9,desert_31,2,memory-2step-stake-s,736,5640571,0.0-18.0-0.1-0.238,3836,1,2
239,1,object_09,object_10,478.0,2,2,371.0,0.7777777777777778,2,object_07,5,3622,0,5,7,desert_31,2,memory-2step-stake-s,737,5648885,0.0-18.0-0.1-0.239,3836,1,2
240,1,object_09,object_10,915.0,2,2,469.0,0.4444444444444444,2,object_07,5,3642,0,6,4,desert_25,2,memory-2step-stake-s,738,5656982,0.0-18.0-0.1-0.240,3836,1,2
241,4,object_06,object_05,523.0,8,1,278.0,0.5555555555555556,2,object_07,5,3667,0,9,5,restaurant_5,2,memory-2step-stake-s,739,5664995,0.0-18.0-0.1-0.241,3836,8,7
242,1,object_09,object_10,533.0,2,2,429.0,0.7777777777777778,2,object_07,1,3674,0,6,7,desert_25,2,memory-2step-stake-s,740,5673372,0.0-18.0-0.1-0.242,3836,1,2
243,4,object_06,object_05,453.0,8,1,443.0,0.8888888888888888,2,object_07,1,3682,0,7,8,restaurant_32,2,memory-2step-stake-s,741,5681861,0.0-18.0-0.1-0.243,3836,8,7
244,3,object_04,object_08,567.0,6,2,443.0,1.0,2,object_07,1,3691,0,6,9,library_23,2,memory-2step-stake-s,742,5690446,0.0-18.0-0.1-0.244,3836,5,6
245,3,object_04,object_08,683.0,5,1,572.0,0.6666666666666666,1,object_03,5,3721,0,6,6,library_29,2,memory-2step-stake-s,743,5698856,0.0-18.0-0.1-0.245,3836,5,6
246,4,object_05,object_06,394.0,7,1,350.0,0.8888888888888888,1,object_03,1,3729,0,8,4,restaurant_23,2,memory-2step-stake-s,744,5707255,0.0-18.0-0.1-0.246,3836,7,8
247,4,object_05,object_06,572.0,8,2,681.0,0.5555555555555556,2,object_07,1,3734,0,3,5,restaurant_9,2,memory-2step-stake-s,745,5715675,0.0-18.0-0.1-0.247,3836,7,8
248,2,object_02,object_01,555.0,4,1,412.0,0.7777777777777778,2,object_07,5,3769,0,3,7,forest_25,2,memory-2step-stake-s,746,5724034,0.0-18.0-0.1-0.248,3836,4,3
249,4,object_05,object_06,804.0,8,2,505.0,0.6666666666666666,2,object_07,1,3775,0,0,6,restaurant_27,2,memory-2step-stake-s,747,5732378,0.0-18.0-0.1-0.249,3836,7,8
250,3,object_08,object_04,493.0,5,2,355.0,0.1111111111111111,1,object_03,1,3776,0,1,7,library_4,2,memory-2step-stake-s,748,5740062,0.0-18.0-0.1-0.250,3836,6,5
251,4,object_06,object_05,639.0,8,1,54.0,0.4444444444444444,2,object_07,1,3780,0,3,4,restaurant_7,2,memory-2step-stake-s,749,5747751,0.0-18.0-0.1-0.251,3836,8,7
252,3,object_08,object_04,1031.0,6,1,541.0,0.4444444444444444,2,object_07,1,3784,0,3,4,library_3,2,memory-2step-stake-s,750,5755925,0.0-18.0-0.1-0.252,3836,6,5
253,3,object_08,object_04,656.0,5,2,419.0,0.5555555555555556,1,object_03,1,3789,0,5,5,library_27,2,memory-2step-stake-s,751,5764084,0.0-18.0-0.1-0.253,3836,6,5
254,4,object_06,object_05,376.0,8,1,376.0,0.8888888888888888,2,object_07,1,3797,0,4,8,restaurant_23,2,memory-2step-stake-s,752,5772504,0.0-18.0-0.1-0.254,3836,8,7
255,2,object_01,object_02,679.0,4,2,313.0,1.0,2,object_07,1,3806,0,2,9,forest_23,2,memory-2step-stake-s,753,5781071,0.0-18.0-0.1-0.255,3836,3,4
