,state1,stim_left,stim_right,rt_1,choice1,response1,rt_2,points,state2,stim_state2,stake,score,practice,rews1,rews2,background,high_arm,trial_type,trial_index,time_elapsed,internal_node_id,subid,stim_left_num,stim_right_num
0,4,object_10,object_08,744.565,8,1,-1.0,0.0,2,object_01,5,0,0,5,3,restaurant_14,1,memory-2step-stake-s,488,1542177,0.0-18.0-0.0-0.0,4019,8,7
1,2,object_06,object_05,1322.28,3,2,-1.0,0.0,1,object_07,1,0,0,1,3,forest_20,1,memory-2step-stake-s,489,1550778,0.0-18.0-0.0-0.1,4019,4,3
2,3,object_02,object_03,1479.765,6,1,-1.0,0.0,2,object_01,5,0,0,3,1,library_21,1,memory-2step-stake-s,490,1559354,0.0-18.0-0.0-0.2,4019,6,5
3,2,object_06,object_05,935.12,4,1,-1.0,0.0,2,object_01,5,0,0,2,1,forest_20,1,memory-2step-stake-s,491,1567927,0.0-18.0-0.0-0.3,4019,4,3
4,1,object_04,object_09,1473.93,2,1,-1.0,0.0,2,object_01,1,0,0,1,4,desert_5,1,memory-2step-stake-s,492,1576499,0.0-18.0-0.0-0.4,4019,2,1
5,1,object_09,object_04,-1.0,-1,-1,-1.0,0.0,-,,1,0,0,1,7,desert_18,1,memory-2step-stake-s,493,1583054,0.0-18.0-0.0-0.5,4019,1,2
6,1,object_04,object_09,1405.885,1,2,-1.0,0.0,1,object_07,1,0,0,2,7,desert_9,1,memory-2step-stake-s,494,1591641,0.0-18.0-0.0-0.6,4019,2,1
7,2,object_06,object_05,1391.255,3,2,-1.0,0.0,1,object_07,5,0,0,1,9,forest_26,1,memory-2step-stake-s,495,1600209,0.0-18.0-0.0-0.7,4019,4,3
8,2,object_06,object_05,1254.165,4,1,-1.0,0.0,2,object_01,1,0,0,1,9,forest_16,1,memory-2step-stake-s,496,1608772,0.0-18.0-0.0-0.8,4019,4,3
9,1,object_04,object_09,595.9,1,2,411.255,0.1111111111111111,1,object_07,1,1,0,1,6,desert_12,1,memory-2step-stake-s,497,1616571,0.0-18.0-0.0-0.9,4019,2,1
10,3,object_03,object_02,752.115,5,1,296.395,0.3333333333333333,1,object_07,5,16,0,3,7,library_26,1,memory-2step-stake-s,498,1624465,0.0-18.0-0.0-0.10,4019,5,6
11,2,object_05,object_06,926.67,3,1,778.945,0.1111111111111111,1,object_07,5,21,0,1,5,forest_4,1,memory-2step-stake-s,499,1632628,0.0-18.0-0.0-0.11,4019,3,4
12,2,object_06,object_05,643.36,3,2,546.56,0.0,1,object_07,5,21,0,0,5,forest_18,1,memory-2step-stake-s,500,1640460,0.0-18.0-0.0-0.12,4019,4,3
13,3,object_03,object_02,1203.155,5,1,786.37,0.2222222222222222,1,object_07,5,31,0,2,6,library_3,1,memory-2step-stake-s,501,1648751,0.0-18.0-0.0-0.13,4019,5,6
14,1,object_04,object_09,643.995,2,1,725.07,0.3333333333333333,2,object_01,1,34,0,5,3,desert_30,1,memory-2step-stake-s,502,1657064,0.0-18.0-0.0-0.14,4019,2,1
15,2,object_05,object_06,-1.0,-1,-1,-1.0,0.0,-,,1,34,0,6,3,forest_18,1,memory-2step-stake-s,503,1663639,0.0-18.0-0.0-0.15,4019,3,4
16,2,object_06,object_05,765.945,4,1,511.23,0.2222222222222222,2,object_01,1,36,0,5,2,forest_17,1,memory-2step-stake-s,504,1671644,0.0-18.0-0.0-0.16,4019,4,3
17,3,object_03,object_02,1009.255,6,2,661.46,0.4444444444444444,2,object_01,1,40,0,3,4,library_27,1,memory-2step-stake-s,505,1680002,0.0-18.0-0.0-0.17,4019,5,6
18,4,object_08,object_10,1286.135,7,1,637.785,0.5555555555555556,1,object_07,5,65,0,5,4,restaurant_22,1,memory-2step-stake-s,506,1688467,0.0-18.0-0.0-0.18,4019,7,8
19,4,object_08,object_10,830.46,7,1,446.965,0.8888888888888888,1,object_07,1,73,0,8,5,restaurant_31,1,memory-2step-stake-s,507,1697027,0.0-18.0-0.0-0.19,4019,7,8
20,3,object_02,object_03,1412.945,6,1,611.1,0.3333333333333333,2,object_01,5,88,0,6,3,library_6,1,memory-2step-stake-s,508,1705222,0.0-18.0-0.0-0.20,4019,6,5
21,1,object_04,object_09,816.22,1,2,652.73,0.7777777777777778,1,object_07,1,95,0,7,1,desert_19,1,memory-2step-stake-s,509,1713896,0.0-18.0-0.0-0.21,4019,2,1
22,1,object_04,object_09,1118.16,1,2,-1.0,0.0,1,object_07,1,95,0,6,2,desert_8,1,memory-2step-stake-s,510,1722449,0.0-18.0-0.0-0.22,4019,2,1
23,4,object_10,object_08,15.425,8,1,521.73,0.0,2,object_01,5,95,0,5,0,restaurant_29,1,memory-2step-stake-s,511,1730248,0.0-18.0-0.0-0.23,4019,8,7
24,3,object_02,object_03,709.79,6,1,379.59,0.1111111111111111,2,object_01,5,100,0,5,1,library_20,1,memory-2step-stake-s,512,1738027,0.0-18.0-0.0-0.24,4019,6,5
25,1,object_04,object_09,787.625,1,2,484.405,0.7777777777777778,1,object_07,5,135,0,7,1,desert_21,1,memory-2step-stake-s,513,1746540,0.0-18.0-0.0-0.25,4019,2,1
26,3,object_03,object_02,1257.455,6,2,644.58,0.0,2,object_01,5,135,0,5,0,library_25,1,memory-2step-stake-s,514,1754454,0.0-18.0-0.0-0.26,4019,5,6
27,3,object_02,object_03,1014.92,5,2,571.61,0.6666666666666666,1,object_07,5,165,0,6,0,library_9,1,memory-2step-stake-s,515,1762937,0.0-18.0-0.0-0.27,4019,6,5
28,1,object_09,object_04,974.4,2,2,642.405,0.3333333333333333,2,object_01,1,168,0,4,3,desert_21,1,memory-2step-stake-s,516,1771194,0.0-18.0-0.0-0.28,4019,1,2
29,4,object_08,object_10,1061.16,7,1,630.48,0.2222222222222222,1,object_07,5,178,0,2,3,restaurant_17,1,memory-2step-stake-s,517,1779317,0.0-18.0-0.0-0.29,4019,7,8
30,2,object_06,object_05,887.505,3,2,648.74,0.1111111111111111,1,object_07,1,179,0,1,2,forest_30,1,memory-2step-stake-s,518,1787334,0.0-18.0-0.0-0.30,4019,4,3
31,2,object_06,object_05,707.585,4,1,471.61,0.1111111111111111,2,object_01,1,180,0,2,1,forest_19,1,memory-2step-stake-s,519,1795192,0.0-18.0-0.0-0.31,4019,4,3
32,2,object_06,object_05,1057.175,4,1,609.735,0.2222222222222222,2,object_01,1,182,0,0,2,forest_19,1,memory-2step-stake-s,520,1803313,0.0-18.0-0.0-0.32,4019,4,3
33,4,object_08,object_10,715.855,8,2,603.955,0.2222222222222222,2,object_01,5,192,0,1,2,restaurant_14,1,memory-2step-stake-s,521,1811412,0.0-18.0-0.0-0.33,4019,7,8
34,4,object_10,object_08,934.16,7,2,655.525,0.1111111111111111,1,object_07,1,193,0,1,3,restaurant_22,1,memory-2step-stake-s,522,1819458,0.0-18.0-0.0-0.34,4019,8,7
35,3,object_02,object_03,-1.0,-1,-1,-1.0,0.0,-,,5,193,0,0,5,library_22,1,memory-2step-stake-s,523,1826015,0.0-18.0-0.0-0.35,4019,6,5
36,3,object_03,object_02,393.685,5,1,589.76,0.0,1,object_07,5,193,0,0,3,library_20,1,memory-2step-stake-s,524,1833881,0.0-18.0-0.0-0.36,4019,5,6
37,3,object_02,object_03,912.18,6,1,473.25,0.2222222222222222,2,object_01,1,195,0,2,2,library_21,1,memory-2step-stake-s,525,1841822,0.0-18.0-0.0-0.37,4019,6,5
38,4,object_08,object_10,1317.93,7,1,563.695,0.3333333333333333,1,object_07,5,210,0,3,2,restaurant_12,1,memory-2step-stake-s,526,1849948,0.0-18.0-0.0-0.38,4019,7,8
39,4,object_08,object_10,918.135,7,1,546.365,1.0,1,object_07,5,255,0,9,0,restaurant_21,1,memory-2step-stake-s,527,1858754,0.0-18.0-0.0-0.39,4019,7,8
40,2,object_06,object_05,588.71,4,1,658.865,0.0,2,object_01,1,255,0,7,0,forest_5,1,memory-2step-stake-s,528,1866682,0.0-18.0-0.0-0.40,4019,4,3
41,2,object_05,object_06,-1.0,-1,-1,-1.0,0.0,-,,1,255,0,8,1,forest_13,1,memory-2step-stake-s,529,1873246,0.0-18.0-0.0-0.41,4019,3,4
42,2,object_05,object_06,726.48,4,2,600.1,0.0,2,object_01,5,255,0,9,0,forest_24,1,memory-2step-stake-s,530,1881127,0.0-18.0-0.0-0.42,4019,3,4
43,1,object_04,object_09,1109.74,2,1,779.59,0.0,2,object_01,1,255,0,7,0,desert_31,1,memory-2step-stake-s,531,1889174,0.0-18.0-0.0-0.43,4019,2,1
44,3,object_02,object_03,-1.0,-1,-1,-1.0,0.0,-,,5,255,0,8,3,library_8,1,memory-2step-stake-s,532,1895721,0.0-18.0-0.0-0.44,4019,6,5
45,4,object_08,object_10,605.205,8,2,764.795,0.2222222222222222,2,object_01,5,265,0,5,2,restaurant_22,1,memory-2step-stake-s,533,1903970,0.0-18.0-0.0-0.45,4019,7,8
46,2,object_05,object_06,798.855,4,2,663.91,0.1111111111111111,2,object_01,1,266,0,3,1,forest_22,1,memory-2step-stake-s,534,1912001,0.0-18.0-0.0-0.46,4019,3,4
47,2,object_05,object_06,604.88,3,1,498.555,0.0,1,object_07,1,266,0,0,4,forest_22,1,memory-2step-stake-s,535,1919773,0.0-18.0-0.0-0.47,4019,3,4
48,4,object_08,object_10,1137.23,8,2,619.735,0.1111111111111111,2,object_01,1,267,0,1,1,restaurant_10,1,memory-2step-stake-s,536,1927776,0.0-18.0-0.0-0.48,4019,7,8
49,2,object_06,object_05,761.945,4,1,576.265,0.3333333333333333,2,object_01,5,282,0,1,3,forest_4,1,memory-2step-stake-s,537,1935935,0.0-18.0-0.0-0.49,4019,4,3
50,1,object_04,object_09,1406.985,2,1,730.255,0.4444444444444444,2,object_01,5,302,0,3,4,desert_30,1,memory-2step-stake-s,538,1944370,0.0-18.0-0.0-0.50,4019,2,1
51,2,object_05,object_06,1081.0,4,2,856.46,0.6666666666666666,2,object_01,1,308,0,0,6,forest_30,1,memory-2step-stake-s,539,1953132,0.0-18.0-0.0-0.51,4019,3,4
52,1,object_04,object_09,871.8,2,1,1479.97,1.0,2,object_01,1,317,0,4,9,desert_6,1,memory-2step-stake-s,540,1962854,0.0-18.0-0.0-0.52,4019,2,1
53,1,object_04,object_09,674.485,2,1,452.46,0.8888888888888888,2,object_01,1,325,0,3,8,desert_21,1,memory-2step-stake-s,541,1971462,0.0-18.0-0.0-0.53,4019,2,1
54,2,object_05,object_06,889.065,4,2,551.825,0.8888888888888888,2,object_01,1,333,0,1,8,forest_28,1,memory-2step-stake-s,542,1980145,0.0-18.0-0.0-0.54,4019,3,4
55,2,object_05,object_06,645.685,4,2,-1.0,0.0,2,object_01,1,333,0,3,6,forest_30,1,memory-2step-stake-s,543,1988722,0.0-18.0-0.0-0.55,4019,3,4
56,1,object_04,object_09,615.135,2,1,517.695,0.1111111111111111,2,object_01,1,334,0,4,1,desert_30,1,memory-2step-stake-s,544,1996630,0.0-18.0-0.0-0.56,4019,2,1
57,1,object_09,object_04,816.675,1,1,346.625,0.2222222222222222,1,object_07,5,344,0,2,3,desert_19,1,memory-2step-stake-s,545,2004456,0.0-18.0-0.0-0.57,4019,1,2
58,4,object_10,object_08,1379.545,8,1,718.555,0.3333333333333333,2,object_01,5,359,0,1,3,restaurant_21,1,memory-2step-stake-s,546,2012781,0.0-18.0-0.0-0.58,4019,8,7
59,4,object_10,object_08,1130.67,7,2,625.0,0.0,1,object_07,5,359,0,0,4,restaurant_29,1,memory-2step-stake-s,547,2020652,0.0-18.0-0.0-0.59,4019,8,7
60,4,object_10,object_08,621.04,8,1,398.16,0.5555555555555556,2,object_01,5,384,0,2,5,restaurant_17,1,memory-2step-stake-s,548,2028856,0.0-18.0-0.0-0.60,4019,8,7
61,1,object_09,object_04,852.69,2,2,449.64,0.4444444444444444,2,object_01,1,388,0,2,4,desert_12,1,memory-2step-stake-s,549,2037018,0.0-18.0-0.0-0.61,4019,1,2
62,4,object_08,object_10,977.2,8,2,-1.0,0.0,2,object_01,1,388,0,4,2,restaurant_32,1,memory-2step-stake-s,550,2045584,0.0-18.0-0.0-0.62,4019,7,8
63,1,object_09,object_04,876.45,2,2,272.44,0.1111111111111111,2,object_01,1,389,0,5,1,desert_9,1,memory-2step-stake-s,551,2053232,0.0-18.0-0.0-0.63,4019,1,2
64,2,object_06,object_05,1033.525,4,1,484.45,0.4444444444444444,2,object_01,1,393,0,4,4,forest_5,1,memory-2step-stake-s,552,2061399,0.0-18.0-0.0-0.64,4019,4,3
65,4,object_08,object_10,1044.1,8,2,384.46,0.2222222222222222,2,object_01,5,403,0,0,2,restaurant_16,1,memory-2step-stake-s,553,2069284,0.0-18.0-0.0-0.65,4019,7,8
66,2,object_05,object_06,906.69,3,1,563.815,0.2222222222222222,1,object_07,1,405,0,2,5,forest_25,1,memory-2step-stake-s,554,2077341,0.0-18.0-0.0-0.66,4019,3,4
67,4,object_08,object_10,-1.0,-1,-1,-1.0,0.0,-,,1,405,0,1,1,restaurant_26,1,memory-2step-stake-s,555,2083882,0.0-18.0-0.0-0.67,4019,7,8
68,4,object_10,object_08,978.575,8,1,527.705,0.2222222222222222,2,object_01,5,415,0,1,2,restaurant_32,1,memory-2step-stake-s,556,2091906,0.0-18.0-0.0-0.68,4019,8,7
69,3,object_03,object_02,1327.37,6,2,607.365,0.3333333333333333,2,object_01,5,430,0,1,3,library_30,1,memory-2step-stake-s,557,2100125,0.0-18.0-0.0-0.69,4019,5,6
70,1,object_04,object_09,789.39,1,2,374.755,0.3333333333333333,1,object_07,1,433,0,3,2,desert_6,1,memory-2step-stake-s,558,2108107,0.0-18.0-0.0-0.70,4019,2,1
71,2,object_06,object_05,1392.77,4,1,563.575,0.2222222222222222,2,object_01,1,435,0,1,2,forest_4,1,memory-2step-stake-s,559,2116164,0.0-18.0-0.0-0.71,4019,4,3
72,1,object_04,object_09,769.835,1,2,310.11,0.3333333333333333,1,object_07,5,450,0,3,2,desert_18,1,memory-2step-stake-s,560,2124059,0.0-18.0-0.0-0.72,4019,2,1
73,4,object_08,object_10,1187.85,8,2,763.955,0.0,2,object_01,5,450,0,6,0,restaurant_28,1,memory-2step-stake-s,561,2132075,0.0-18.0-0.0-0.73,4019,7,8
74,3,object_02,object_03,1245.725,6,1,531.945,0.1111111111111111,2,object_01,5,455,0,2,1,library_20,1,memory-2step-stake-s,562,2139981,0.0-18.0-0.0-0.74,4019,6,5
75,3,object_02,object_03,812.165,5,2,551.165,0.3333333333333333,1,object_07,5,470,0,3,1,library_6,1,memory-2step-stake-s,563,2148156,0.0-18.0-0.0-0.75,4019,6,5
76,3,object_02,object_03,722.825,5,2,393.975,0.2222222222222222,1,object_07,5,480,0,2,1,library_21,1,memory-2step-stake-s,564,2156051,0.0-18.0-0.0-0.76,4019,6,5
77,2,object_06,object_05,541.07,3,2,643.445,0.4444444444444444,1,object_07,1,484,0,4,2,forest_18,1,memory-2step-stake-s,565,2164392,0.0-18.0-0.0-0.77,4019,4,3
78,2,object_06,object_05,760.14,3,2,596.785,0.5555555555555556,1,object_07,1,489,0,5,2,forest_22,1,memory-2step-stake-s,566,2172810,0.0-18.0-0.0-0.78,4019,4,3
79,4,object_08,object_10,1020.345,7,1,533.19,0.5555555555555556,1,object_07,5,514,0,5,4,restaurant_21,1,memory-2step-stake-s,567,2181169,0.0-18.0-0.0-0.79,4019,7,8
80,3,object_03,object_02,1206.45,5,1,463.07,0.8888888888888888,1,object_07,5,554,0,8,8,library_26,1,memory-2step-stake-s,568,2189767,0.0-18.0-0.0-0.80,4019,5,6
81,2,object_06,object_05,744.995,3,2,528.21,0.7777777777777778,1,object_07,5,589,0,7,9,forest_28,1,memory-2step-stake-s,569,2198308,0.0-18.0-0.0-0.81,4019,4,3
82,2,object_06,object_05,606.725,3,2,272.07,0.6666666666666666,1,object_07,5,619,0,6,9,forest_4,1,memory-2step-stake-s,570,2206483,0.0-18.0-0.0-0.82,4019,4,3
83,4,object_10,object_08,900.535,8,1,718.385,0.6666666666666666,2,object_01,1,625,0,5,6,restaurant_22,1,memory-2step-stake-s,571,2215123,0.0-18.0-0.0-0.83,4019,8,7
84,1,object_09,object_04,1259.845,2,2,611.48,0.3333333333333333,2,object_01,1,628,0,5,3,desert_25,1,memory-2step-stake-s,572,2223356,0.0-18.0-0.0-0.84,4019,1,2
85,4,object_10,object_08,1020.48,7,2,433.135,0.1111111111111111,1,object_07,5,633,0,1,4,restaurant_32,1,memory-2step-stake-s,573,2231173,0.0-18.0-0.0-0.85,4019,8,7
86,1,object_09,object_04,879.705,1,1,705.78,0.2222222222222222,1,object_07,1,635,0,2,4,desert_27,1,memory-2step-stake-s,574,2239380,0.0-18.0-0.0-0.86,4019,1,2
87,2,object_05,object_06,-1.0,-1,-1,-1.0,0.0,-,,1,635,0,4,6,forest_13,1,memory-2step-stake-s,575,2245925,0.0-18.0-0.0-0.87,4019,3,4
88,4,object_10,object_08,865.8,8,1,660.085,0.8888888888888888,2,object_01,5,675,0,5,8,restaurant_7,1,memory-2step-stake-s,576,2254733,0.0-18.0-0.0-0.88,4019,8,7
89,1,object_04,object_09,702.835,2,1,596.55,0.8888888888888888,2,object_01,5,715,0,8,8,desert_5,1,memory-2step-stake-s,577,2263437,0.0-18.0-0.0-0.89,4019,2,1
90,4,object_08,object_10,1169.74,7,1,555.645,1.0,1,object_07,5,760,0,9,5,restaurant_16,1,memory-2step-stake-s,578,2272228,0.0-18.0-0.0-0.90,4019,7,8
91,1,object_09,object_04,709.92,1,1,680.48,0.7777777777777778,1,object_07,1,767,0,7,4,desert_10,1,memory-2step-stake-s,579,2280944,0.0-18.0-0.0-0.91,4019,1,2
92,2,object_05,object_06,1231.985,3,1,821.965,0.7777777777777778,1,object_07,1,774,0,7,5,forest_2,1,memory-2step-stake-s,580,2289799,0.0-18.0-0.0-0.92,4019,3,4
93,1,object_04,object_09,664.41,1,2,438.925,0.6666666666666666,1,object_07,1,780,0,6,4,desert_30,1,memory-2step-stake-s,581,2298168,0.0-18.0-0.0-0.93,4019,2,1
94,3,object_02,object_03,874.79,5,2,433.025,0.4444444444444444,1,object_07,5,800,0,4,2,library_12,1,memory-2step-stake-s,582,2306310,0.0-18.0-0.0-0.94,4019,6,5
95,2,object_05,object_06,966.3,4,2,532.655,0.1111111111111111,2,object_01,5,805,0,8,1,forest_26,1,memory-2step-stake-s,583,2314243,0.0-18.0-0.0-0.95,4019,3,4
96,2,object_06,object_05,1198.88,3,2,541.16,0.8888888888888888,1,object_07,1,813,0,8,0,forest_26,1,memory-2step-stake-s,584,2322912,0.0-18.0-0.0-0.96,4019,4,3
97,3,object_02,object_03,1066.155,5,2,415.17,0.8888888888888888,1,object_07,5,853,0,8,4,library_3,1,memory-2step-stake-s,585,2331478,0.0-18.0-0.0-0.97,4019,6,5
98,1,object_04,object_09,1098.25,1,2,450.85,0.8888888888888888,1,object_07,1,861,0,8,3,desert_8,1,memory-2step-stake-s,586,2340037,0.0-18.0-0.0-0.98,4019,2,1
99,1,object_04,object_09,1141.945,1,2,602.71,1.0,1,object_07,1,870,0,9,4,desert_15,1,memory-2step-stake-s,587,2348890,0.0-18.0-0.0-0.99,4019,2,1
100,2,object_05,object_06,1482.655,3,1,575.225,0.7777777777777778,1,object_07,1,877,0,7,5,forest_18,1,memory-2step-stake-s,588,2357498,0.0-18.0-0.0-0.100,4019,3,4
101,2,object_06,object_05,756.02,3,2,-1.0,0.0,1,object_07,1,877,0,5,5,forest_16,1,memory-2step-stake-s,589,2366093,0.0-18.0-0.0-0.101,4019,4,3
102,4,object_10,object_08,1284.92,8,1,542.72,0.6666666666666666,2,object_01,1,883,0,5,6,restaurant_18,1,memory-2step-stake-s,590,2374570,0.0-18.0-0.0-0.102,4019,8,7
103,4,object_08,object_10,1200.825,8,2,624.08,1.0,2,object_01,5,928,0,6,9,restaurant_12,1,memory-2step-stake-s,591,2383444,0.0-18.0-0.0-0.103,4019,7,8
104,1,object_04,object_09,819.21,2,1,403.905,0.7777777777777778,2,object_01,1,935,0,3,7,desert_5,1,memory-2step-stake-s,592,2391875,0.0-18.0-0.0-0.104,4019,2,1
105,1,object_04,object_09,1151.445,2,1,304.63,0.5555555555555556,2,object_01,1,940,0,1,5,desert_27,1,memory-2step-stake-s,593,2399985,0.0-18.0-0.0-0.105,4019,2,1
106,2,object_06,object_05,1310.56,4,1,663.29,0.6666666666666666,2,object_01,5,970,0,1,6,forest_20,1,memory-2step-stake-s,594,2408578,0.0-18.0-0.0-0.106,4019,4,3
107,3,object_02,object_03,1094.185,6,1,627.795,0.4444444444444444,2,object_01,5,990,0,2,4,library_21,1,memory-2step-stake-s,595,2416912,0.0-18.0-0.0-0.107,4019,6,5
108,4,object_08,object_10,909.855,7,1,316.34,0.5555555555555556,1,object_07,1,995,0,5,4,restaurant_18,1,memory-2step-stake-s,596,2425043,0.0-18.0-0.0-0.108,4019,7,8
109,1,object_04,object_09,791.665,1,2,485.085,0.6666666666666666,1,object_07,1,1001,0,6,3,desert_15,1,memory-2step-stake-s,597,2433444,0.0-18.0-0.0-0.109,4019,2,1
110,1,object_09,object_04,1309.935,1,1,483.915,0.8888888888888888,1,object_07,5,1041,0,8,3,desert_29,1,memory-2step-stake-s,598,2442038,0.0-18.0-0.0-0.110,4019,1,2
111,3,object_03,object_02,1053.485,5,1,441.78,0.5555555555555556,1,object_07,5,1066,0,5,2,library_12,1,memory-2step-stake-s,599,2450324,0.0-18.0-0.0-0.111,4019,5,6
112,4,object_10,object_08,1010.73,7,2,456.77,0.6666666666666666,1,object_07,1,1072,0,6,1,restaurant_28,1,memory-2step-stake-s,600,2458686,0.0-18.0-0.0-0.112,4019,8,7
113,3,object_03,object_02,757.95,5,1,454.84,0.5555555555555556,1,object_07,1,1077,0,5,0,library_30,1,memory-2step-stake-s,601,2466924,0.0-18.0-0.0-0.113,4019,5,6
114,2,object_05,object_06,959.58,4,2,631.3,0.1111111111111111,2,object_01,1,1078,0,5,1,forest_24,1,memory-2step-stake-s,602,2474977,0.0-18.0-0.0-0.114,4019,3,4
115,2,object_05,object_06,720.53,3,1,310.26,1.0,1,object_07,1,1087,0,9,3,forest_28,1,memory-2step-stake-s,603,2483512,0.0-18.0-0.0-0.115,4019,3,4
116,1,object_04,object_09,1193.48,1,2,225.97,0.6666666666666666,1,object_07,1,1093,0,6,1,desert_5,1,memory-2step-stake-s,604,2491647,0.0-18.0-0.0-0.116,4019,2,1
117,1,object_04,object_09,889.89,1,2,280.935,0.7777777777777778,1,object_07,1,1100,0,7,3,desert_19,1,memory-2step-stake-s,605,2499963,0.0-18.0-0.0-0.117,4019,2,1
118,3,object_02,object_03,-1.0,-1,-1,-1.0,0.0,-,,1,1100,0,7,4,library_9,1,memory-2step-stake-s,606,2506537,0.0-18.0-0.0-0.118,4019,6,5
119,1,object_09,object_04,1387.085,1,1,569.305,0.7777777777777778,1,object_07,1,1107,0,7,1,desert_10,1,memory-2step-stake-s,607,2515113,0.0-18.0-0.0-0.119,4019,1,2
120,3,object_02,object_03,899.83,5,2,494.575,0.6666666666666666,1,object_07,5,1137,0,6,1,library_8,1,memory-2step-stake-s,608,2523541,0.0-18.0-0.0-0.120,4019,6,5
121,3,object_03,object_02,691.91,5,1,222.78,0.7777777777777778,1,object_07,1,1144,0,7,2,library_10,1,memory-2step-stake-s,609,2531763,0.0-18.0-0.0-0.121,4019,5,6
122,3,object_02,object_03,668.555,5,2,653.5,0.8888888888888888,1,object_07,1,1152,0,8,5,library_20,1,memory-2step-stake-s,610,2540540,0.0-18.0-0.0-0.122,4019,6,5
123,1,object_04,object_09,926.0,1,2,324.76,0.8888888888888888,1,object_07,1,1160,0,8,4,desert_8,1,memory-2step-stake-s,611,2548993,0.0-18.0-0.0-0.123,4019,2,1
124,4,object_10,object_08,942.125,7,2,405.36,0.6666666666666666,1,object_07,5,1190,0,6,6,restaurant_26,1,memory-2step-stake-s,612,2557322,0.0-18.0-0.0-0.124,4019,8,7
125,1,object_04,object_09,919.51,1,2,316.31,0.6666666666666666,1,object_07,1,1196,0,6,7,desert_29,1,memory-2step-stake-s,613,2565564,0.0-18.0-0.0-0.125,4019,2,1
126,2,object_05,object_06,1081.17,3,1,524.795,0.4444444444444444,1,object_07,1,1200,0,4,7,forest_23,1,memory-2step-stake-s,614,2573811,0.0-18.0-0.0-0.126,4019,3,4
127,4,object_08,object_10,937.49,7,1,261.51,0.4444444444444444,1,object_07,5,1220,0,4,7,restaurant_28,1,memory-2step-stake-s,615,2581794,0.0-18.0-0.0-0.127,4019,7,8
128,1,object_04,object_09,665.85,2,1,456.775,0.8888888888888888,2,object_01,1,1228,0,2,8,desert_8,1,memory-2step-stake-s,617,2964767,0.0-18.0-0.1-0.128,4019,2,1
129,3,object_03,object_02,876.645,6,2,385.54,0.7777777777777778,2,object_01,5,1263,0,1,7,library_10,1,memory-2step-stake-s,618,2973169,0.0-18.0-0.1-0.129,4019,5,6
130,1,object_09,object_04,1249.92,2,2,430.845,0.8888888888888888,2,object_01,1,1271,0,0,8,desert_25,1,memory-2step-stake-s,619,2981697,0.0-18.0-0.1-0.130,4019,1,2
131,1,object_04,object_09,1164.11,2,1,595.945,0.8888888888888888,2,object_01,1,1279,0,1,8,desert_31,1,memory-2step-stake-s,620,2990436,0.0-18.0-0.1-0.131,4019,2,1
132,2,object_05,object_06,887.49,4,2,927.835,1.0,2,object_01,1,1288,0,1,9,forest_23,1,memory-2step-stake-s,621,2999587,0.0-18.0-0.1-0.132,4019,3,4
133,1,object_04,object_09,766.98,2,1,448.94,0.8888888888888888,2,object_01,1,1296,0,0,8,desert_25,1,memory-2step-stake-s,622,3008171,0.0-18.0-0.1-0.133,4019,2,1
134,2,object_05,object_06,1016.055,4,2,312.49,0.8888888888888888,2,object_01,5,1336,0,1,8,forest_23,1,memory-2step-stake-s,623,3016630,0.0-18.0-0.1-0.134,4019,3,4
135,2,object_05,object_06,753.06,4,2,397.73,0.7777777777777778,2,object_01,1,1343,0,1,7,forest_22,1,memory-2step-stake-s,624,3025055,0.0-18.0-0.1-0.135,4019,3,4
136,2,object_06,object_05,1081.19,4,1,574.595,0.8888888888888888,2,object_01,1,1351,0,1,8,forest_17,1,memory-2step-stake-s,625,3033779,0.0-18.0-0.1-0.136,4019,4,3
137,3,object_02,object_03,1036.41,6,1,497.465,1.0,2,object_01,5,1396,0,0,9,library_31,1,memory-2step-stake-s,626,3042525,0.0-18.0-0.1-0.137,4019,6,5
138,2,object_06,object_05,828.195,4,1,1090.51,0.8888888888888888,2,object_01,1,1404,0,1,8,forest_2,1,memory-2step-stake-s,627,3051770,0.0-18.0-0.1-0.138,4019,4,3
139,1,object_04,object_09,642.06,1,2,528.29,0.1111111111111111,1,object_07,1,1405,0,1,6,desert_9,1,memory-2step-stake-s,628,3059681,0.0-18.0-0.1-0.139,4019,2,1
140,3,object_02,object_03,793.36,6,1,404.01,0.4444444444444444,2,object_01,5,1425,0,1,4,library_27,1,memory-2step-stake-s,629,3067771,0.0-18.0-0.1-0.140,4019,6,5
141,4,object_10,object_08,1254.905,8,1,562.115,0.5555555555555556,2,object_01,5,1450,0,1,5,restaurant_14,1,memory-2step-stake-s,630,3076131,0.0-18.0-0.1-0.141,4019,8,7
142,3,object_02,object_03,838.675,6,1,382.615,0.4444444444444444,2,object_01,5,1470,0,2,4,library_10,1,memory-2step-stake-s,631,3084231,0.0-18.0-0.1-0.142,4019,6,5
143,4,object_08,object_10,894.595,8,2,431.745,0.4444444444444444,2,object_01,5,1490,0,5,4,restaurant_14,1,memory-2step-stake-s,632,3092357,0.0-18.0-0.1-0.143,4019,7,8
144,3,object_02,object_03,706.86,6,1,371.32,0.1111111111111111,2,object_01,5,1495,0,5,1,library_32,1,memory-2step-stake-s,633,3100120,0.0-18.0-0.1-0.144,4019,6,5
145,4,object_10,object_08,872.41,7,2,489.52,0.6666666666666666,1,object_07,5,1525,0,6,2,restaurant_5,1,memory-2step-stake-s,634,3108524,0.0-18.0-0.1-0.145,4019,8,7
146,1,object_04,object_09,880.035,1,2,450.6,0.6666666666666666,1,object_07,5,1555,0,6,1,desert_10,1,memory-2step-stake-s,635,3116872,0.0-18.0-0.1-0.146,4019,2,1
147,1,object_04,object_09,954.18,1,2,290.09,0.6666666666666666,1,object_07,1,1561,0,6,4,desert_24,1,memory-2step-stake-s,636,3125075,0.0-18.0-0.1-0.147,4019,2,1
148,3,object_02,object_03,928.535,5,2,477.38,0.5555555555555556,1,object_07,5,1586,0,5,5,library_3,1,memory-2step-stake-s,637,3133396,0.0-18.0-0.1-0.148,4019,6,5
149,3,object_02,object_03,811.81,5,2,362.39,0.6666666666666666,1,object_07,5,1616,0,6,7,library_27,1,memory-2step-stake-s,638,3141668,0.0-18.0-0.1-0.149,4019,6,5
150,3,object_02,object_03,603.205,5,2,776.215,0.8888888888888888,1,object_07,5,1656,0,8,5,library_32,1,memory-2step-stake-s,639,3150557,0.0-18.0-0.1-0.150,4019,6,5
151,4,object_10,object_08,820.225,7,2,367.065,0.8888888888888888,1,object_07,1,1664,0,8,4,restaurant_5,1,memory-2step-stake-s,640,3159035,0.0-18.0-0.1-0.151,4019,8,7
152,1,object_04,object_09,990.825,1,2,431.595,0.8888888888888888,1,object_07,1,1672,0,8,2,desert_24,1,memory-2step-stake-s,641,3167630,0.0-18.0-0.1-0.152,4019,2,1
153,2,object_06,object_05,1139.33,3,2,412.475,0.8888888888888888,1,object_07,1,1680,0,8,4,forest_13,1,memory-2step-stake-s,642,3176142,0.0-18.0-0.1-0.153,4019,4,3
154,1,object_04,object_09,1044.525,1,2,501.605,1.0,1,object_07,1,1689,0,9,2,desert_31,1,memory-2step-stake-s,643,3184871,0.0-18.0-0.1-0.154,4019,2,1
155,2,object_05,object_06,1457.755,4,2,594.025,0.2222222222222222,2,object_01,1,1691,0,9,2,forest_25,1,memory-2step-stake-s,644,3192951,0.0-18.0-0.1-0.155,4019,3,4
156,4,object_08,object_10,897.255,7,1,365.22,0.6666666666666666,1,object_07,5,1721,0,6,1,restaurant_8,1,memory-2step-stake-s,645,3201246,0.0-18.0-0.1-0.156,4019,7,8
157,4,object_08,object_10,770.89,7,1,819.26,0.7777777777777778,1,object_07,5,1756,0,7,1,restaurant_28,1,memory-2step-stake-s,646,3210075,0.0-18.0-0.1-0.157,4019,7,8
158,4,object_10,object_08,781.61,7,2,318.15,0.8888888888888888,1,object_07,5,1796,0,8,2,restaurant_5,1,memory-2step-stake-s,647,3218538,0.0-18.0-0.1-0.158,4019,8,7
159,2,object_06,object_05,1060.75,3,2,605.47,0.8888888888888888,1,object_07,1,1804,0,8,2,forest_23,1,memory-2step-stake-s,648,3227279,0.0-18.0-0.1-0.159,4019,4,3
160,1,object_09,object_04,1020.41,1,1,467.32,1.0,1,object_07,1,1813,0,9,3,desert_15,1,memory-2step-stake-s,649,3235985,0.0-18.0-0.1-0.160,4019,1,2
161,2,object_06,object_05,939.73,3,2,387.295,0.6666666666666666,1,object_07,1,1819,0,6,2,forest_16,1,memory-2step-stake-s,650,3244305,0.0-18.0-0.1-0.161,4019,4,3
162,2,object_06,object_05,929.86,3,2,546.025,0.8888888888888888,1,object_07,1,1827,0,8,3,forest_5,1,memory-2step-stake-s,651,3252975,0.0-18.0-0.1-0.162,4019,4,3
163,3,object_02,object_03,1123.585,5,2,356.545,0.7777777777777778,1,object_07,5,1862,0,7,3,library_8,1,memory-2step-stake-s,652,3261352,0.0-18.0-0.1-0.163,4019,6,5
164,3,object_02,object_03,555.08,5,2,475.75,1.0,1,object_07,5,1907,0,9,2,library_32,1,memory-2step-stake-s,653,3270071,0.0-18.0-0.1-0.164,4019,6,5
165,2,object_06,object_05,826.06,3,2,471.415,0.6666666666666666,1,object_07,1,1913,0,6,4,forest_24,1,memory-2step-stake-s,654,3278441,0.0-18.0-0.1-0.165,4019,4,3
166,2,object_05,object_06,765.18,3,1,316.395,1.0,1,object_07,1,1922,0,9,6,forest_17,1,memory-2step-stake-s,655,3286975,0.0-18.0-0.1-0.166,4019,3,4
167,2,object_05,object_06,1201.505,3,1,1451.235,0.8888888888888888,1,object_07,1,1930,0,8,5,forest_5,1,memory-2step-stake-s,656,3296557,0.0-18.0-0.1-0.167,4019,3,4
168,3,object_03,object_02,1000.04,5,1,410.07,0.8888888888888888,1,object_07,1,1938,0,8,5,library_30,1,memory-2step-stake-s,657,3305091,0.0-18.0-0.1-0.168,4019,5,6
169,1,object_09,object_04,873.87,1,1,661.53,0.8888888888888888,1,object_07,1,1946,0,8,5,desert_6,1,memory-2step-stake-s,658,3313917,0.0-18.0-0.1-0.169,4019,1,2
170,4,object_10,object_08,1027.295,7,2,647.33,1.0,1,object_07,5,1991,0,9,3,restaurant_31,1,memory-2step-stake-s,659,3322807,0.0-18.0-0.1-0.170,4019,8,7
171,3,object_02,object_03,607.945,5,2,258.355,0.6666666666666666,1,object_07,5,2021,0,6,3,library_6,1,memory-2step-stake-s,660,3330995,0.0-18.0-0.1-0.171,4019,6,5
172,2,object_05,object_06,806.46,3,1,521.82,0.6666666666666666,1,object_07,1,2027,0,6,7,forest_20,1,memory-2step-stake-s,661,3339415,0.0-18.0-0.1-0.172,4019,3,4
173,3,object_03,object_02,1028.945,5,1,-1.0,0.0,1,object_07,5,2027,0,5,9,library_3,1,memory-2step-stake-s,662,3347985,0.0-18.0-0.1-0.173,4019,5,6
174,3,object_03,object_02,667.82,5,1,446.81,0.8888888888888888,1,object_07,5,2067,0,8,5,library_6,1,memory-2step-stake-s,663,3356591,0.0-18.0-0.1-0.174,4019,5,6
175,3,object_02,object_03,681.945,5,2,552.09,0.7777777777777778,1,object_07,5,2102,0,7,5,library_23,1,memory-2step-stake-s,664,3365129,0.0-18.0-0.1-0.175,4019,6,5
176,4,object_10,object_08,1012.375,7,2,359.615,0.7777777777777778,1,object_07,5,2137,0,7,8,restaurant_10,1,memory-2step-stake-s,665,3373566,0.0-18.0-0.1-0.176,4019,8,7
177,1,object_04,object_09,750.185,1,2,430.005,0.5555555555555556,1,object_07,1,2142,0,5,8,desert_24,1,memory-2step-stake-s,666,3381796,0.0-18.0-0.1-0.177,4019,2,1
178,4,object_08,object_10,840.6,7,1,328.185,0.4444444444444444,1,object_07,5,2162,0,4,4,restaurant_7,1,memory-2step-stake-s,667,3389816,0.0-18.0-0.1-0.178,4019,7,8
179,1,object_09,object_04,885.545,1,1,363.145,0.4444444444444444,1,object_07,5,2182,0,4,6,desert_29,1,memory-2step-stake-s,668,3397858,0.0-18.0-0.1-0.179,4019,1,2
180,4,object_08,object_10,761.165,7,1,425.97,0.1111111111111111,1,object_07,1,2183,0,1,4,restaurant_8,1,memory-2step-stake-s,669,3405649,0.0-18.0-0.1-0.180,4019,7,8
181,2,object_06,object_05,935.925,4,1,331.195,0.4444444444444444,2,object_01,1,2187,0,0,4,forest_17,1,memory-2step-stake-s,670,3413678,0.0-18.0-0.1-0.181,4019,4,3
182,3,object_03,object_02,749.97,6,2,448.78,0.6666666666666666,2,object_01,5,2217,0,3,6,library_23,1,memory-2step-stake-s,671,3422034,0.0-18.0-0.1-0.182,4019,5,6
183,1,object_09,object_04,950.93,2,2,279.21,0.6666666666666666,2,object_01,1,2223,0,4,6,desert_12,1,memory-2step-stake-s,672,3430206,0.0-18.0-0.1-0.183,4019,1,2
184,3,object_02,object_03,1008.875,6,1,439.395,0.6666666666666666,2,object_01,1,2229,0,4,6,library_12,1,memory-2step-stake-s,673,3438530,0.0-18.0-0.1-0.184,4019,6,5
185,4,object_08,object_10,1001.0,8,2,555.95,0.7777777777777778,2,object_01,5,2264,0,4,7,restaurant_16,1,memory-2step-stake-s,674,3447113,0.0-18.0-0.1-0.185,4019,7,8
186,4,object_08,object_10,805.085,8,2,430.875,0.7777777777777778,2,object_01,5,2299,0,4,7,restaurant_8,1,memory-2step-stake-s,675,3455588,0.0-18.0-0.1-0.186,4019,7,8
187,4,object_08,object_10,662.6,8,2,598.095,0.7777777777777778,2,object_01,1,2306,0,2,7,restaurant_5,1,memory-2step-stake-s,676,3464215,0.0-18.0-0.1-0.187,4019,7,8
188,3,object_02,object_03,1193.145,6,1,430.08,0.6666666666666666,2,object_01,5,2336,0,8,6,library_27,1,memory-2step-stake-s,677,3472551,0.0-18.0-0.1-0.188,4019,6,5
189,4,object_08,object_10,989.87,8,2,288.395,0.6666666666666666,2,object_01,5,2366,0,8,6,restaurant_18,1,memory-2step-stake-s,678,3480757,0.0-18.0-0.1-0.189,4019,7,8
190,4,object_08,object_10,875.065,8,2,462.205,0.6666666666666666,2,object_01,5,2396,0,6,6,restaurant_16,1,memory-2step-stake-s,679,3489152,0.0-18.0-0.1-0.190,4019,7,8
191,3,object_03,object_02,1007.195,6,2,457.025,0.8888888888888888,2,object_01,1,2404,0,5,8,library_9,1,memory-2step-stake-s,680,3497763,0.0-18.0-0.1-0.191,4019,5,6
192,2,object_06,object_05,1152.27,4,1,523.915,0.8888888888888888,2,object_01,5,2444,0,5,8,forest_19,1,memory-2step-stake-s,681,3506412,0.0-18.0-0.1-0.192,4019,4,3
193,3,object_02,object_03,861.615,6,1,365.56,0.7777777777777778,2,object_01,5,2479,0,3,7,library_25,1,memory-2step-stake-s,682,3514795,0.0-18.0-0.1-0.193,4019,6,5
194,1,object_04,object_09,968.83,2,1,441.23,0.5555555555555556,2,object_01,1,2484,0,4,5,desert_19,1,memory-2step-stake-s,683,3523037,0.0-18.0-0.1-0.194,4019,2,1
195,2,object_05,object_06,874.915,4,2,314.415,0.3333333333333333,2,object_01,1,2487,0,3,3,forest_16,1,memory-2step-stake-s,684,3530945,0.0-18.0-0.1-0.195,4019,3,4
196,1,object_04,object_09,986.99,2,1,568.25,0.3333333333333333,2,object_01,1,2490,0,4,3,desert_18,1,memory-2step-stake-s,685,3539087,0.0-18.0-0.1-0.196,4019,2,1
197,4,object_10,object_08,955.62,7,2,492.24,0.4444444444444444,1,object_07,5,2510,0,4,0,restaurant_17,1,memory-2step-stake-s,686,3547257,0.0-18.0-0.1-0.197,4019,8,7
198,3,object_03,object_02,741.555,5,1,299.69,0.5555555555555556,1,object_07,1,2515,0,5,1,library_10,1,memory-2step-stake-s,687,3555375,0.0-18.0-0.1-0.198,4019,5,6
199,1,object_09,object_04,1252.32,1,1,369.14,0.3333333333333333,1,object_07,1,2518,0,3,2,desert_27,1,memory-2step-stake-s,688,3563304,0.0-18.0-0.1-0.199,4019,1,2
200,3,object_03,object_02,595.265,5,1,350.64,0.1111111111111111,1,object_07,5,2523,0,1,1,library_30,1,memory-2step-stake-s,689,3571050,0.0-18.0-0.1-0.200,4019,5,6
201,2,object_06,object_05,812.735,4,1,264.125,0.2222222222222222,2,object_01,1,2525,0,3,2,forest_24,1,memory-2step-stake-s,690,3578811,0.0-18.0-0.1-0.201,4019,4,3
202,4,object_10,object_08,1132.075,8,1,404.525,0.0,2,object_01,1,2525,0,0,0,restaurant_26,1,memory-2step-stake-s,691,3586479,0.0-18.0-0.1-0.202,4019,8,7
203,1,object_04,object_09,1221.705,1,2,396.025,0.4444444444444444,1,object_07,1,2529,0,4,1,desert_18,1,memory-2step-stake-s,692,3594556,0.0-18.0-0.1-0.203,4019,2,1
204,2,object_06,object_05,938.23,3,2,258.3,0.5555555555555556,1,object_07,5,2554,0,5,0,forest_30,1,memory-2step-stake-s,693,3602638,0.0-18.0-0.1-0.204,4019,4,3
205,2,object_06,object_05,866.55,3,2,478.68,0.6666666666666666,1,object_07,1,2560,0,6,4,forest_2,1,memory-2step-stake-s,694,3611044,0.0-18.0-0.1-0.205,4019,4,3
206,2,object_05,object_06,953.035,3,1,748.295,0.1111111111111111,1,object_07,5,2565,0,1,1,forest_19,1,memory-2step-stake-s,695,3619173,0.0-18.0-0.1-0.206,4019,3,4
207,4,object_10,object_08,832.905,8,1,282.3,0.1111111111111111,2,object_01,5,2570,0,1,1,restaurant_12,1,memory-2step-stake-s,696,3626825,0.0-18.0-0.1-0.207,4019,8,7
208,4,object_08,object_10,891.48,8,2,414.55,0.4444444444444444,2,object_01,5,2590,0,1,4,restaurant_12,1,memory-2step-stake-s,697,3634953,0.0-18.0-0.1-0.208,4019,7,8
209,2,object_05,object_06,997.51,4,2,310.89,0.5555555555555556,2,object_01,5,2615,0,1,5,forest_2,1,memory-2step-stake-s,698,3643078,0.0-18.0-0.1-0.209,4019,3,4
210,3,object_02,object_03,1022.86,6,1,621.75,0.4444444444444444,2,object_01,5,2635,0,1,4,library_12,1,memory-2step-stake-s,699,3651420,0.0-18.0-0.1-0.210,4019,6,5
211,4,object_08,object_10,1120.555,8,2,378.475,0.3333333333333333,2,object_01,1,2638,0,1,3,restaurant_26,1,memory-2step-stake-s,700,3659399,0.0-18.0-0.1-0.211,4019,7,8
212,3,object_03,object_02,855.64,6,2,9.8,0.5555555555555556,2,object_01,1,2643,0,1,5,library_22,1,memory-2step-stake-s,701,3667230,0.0-18.0-0.1-0.212,4019,5,6
213,4,object_08,object_10,1020.11,8,2,294.65,0.4444444444444444,2,object_01,5,2663,0,1,4,restaurant_29,1,memory-2step-stake-s,702,3675225,0.0-18.0-0.1-0.213,4019,7,8
214,4,object_10,object_08,882.37,8,1,415.225,0.4444444444444444,2,object_01,5,2683,0,3,4,restaurant_10,1,memory-2step-stake-s,703,3683347,0.0-18.0-0.1-0.214,4019,8,7
215,4,object_10,object_08,745.25,8,1,282.325,0.6666666666666666,2,object_01,1,2689,0,5,6,restaurant_31,1,memory-2step-stake-s,704,3691566,0.0-18.0-0.1-0.215,4019,8,7
216,1,object_09,object_04,1256.3,2,2,339.33,0.3333333333333333,2,object_01,1,2692,0,5,3,desert_10,1,memory-2step-stake-s,705,3699500,0.0-18.0-0.1-0.216,4019,1,2
217,1,object_09,object_04,1087.015,2,2,296.205,0.3333333333333333,2,object_01,1,2695,0,5,3,desert_29,1,memory-2step-stake-s,706,3707392,0.0-18.0-0.1-0.217,4019,1,2
218,3,object_03,object_02,837.0,5,1,357.225,0.5555555555555556,1,object_07,5,2720,0,5,1,library_26,1,memory-2step-stake-s,707,3715573,0.0-18.0-0.1-0.218,4019,5,6
219,1,object_04,object_09,1005.685,1,2,245.36,0.4444444444444444,1,object_07,1,2724,0,4,3,desert_15,1,memory-2step-stake-s,708,3723521,0.0-18.0-0.1-0.219,4019,2,1
220,1,object_04,object_09,709.9,1,2,463.095,0.2222222222222222,1,object_07,1,2726,0,2,3,desert_9,1,memory-2step-stake-s,709,3731458,0.0-18.0-0.1-0.220,4019,2,1
221,1,object_04,object_09,598.35,2,1,329.13,0.0,2,object_01,1,2726,0,1,0,desert_24,1,memory-2step-stake-s,710,3739045,0.0-18.0-0.1-0.221,4019,2,1
222,4,object_08,object_10,890.465,7,1,328.225,0.2222222222222222,1,object_07,5,2736,0,2,3,restaurant_18,1,memory-2step-stake-s,711,3746859,0.0-18.0-0.1-0.222,4019,7,8
223,4,object_08,object_10,681.14,7,1,389.88,0.1111111111111111,1,object_07,5,2741,0,1,4,restaurant_17,1,memory-2step-stake-s,712,3754614,0.0-18.0-0.1-0.223,4019,7,8
224,3,object_03,object_02,987.59,6,2,407.805,0.5555555555555556,2,object_01,5,2766,0,1,5,library_31,1,memory-2step-stake-s,713,3762828,0.0-18.0-0.1-0.224,4019,5,6
225,3,object_02,object_03,909.25,5,2,486.025,0.2222222222222222,1,object_07,5,2776,0,2,6,library_9,1,memory-2step-stake-s,714,3770797,0.0-18.0-0.1-0.225,4019,6,5
226,2,object_06,object_05,730.49,4,1,398.565,0.7777777777777778,2,object_01,1,2783,0,4,7,forest_28,1,memory-2step-stake-s,715,3779224,0.0-18.0-0.1-0.226,4019,4,3
227,4,object_10,object_08,780.675,8,1,331.57,0.6666666666666666,2,object_01,5,2813,0,2,6,restaurant_7,1,memory-2step-stake-s,716,3787482,0.0-18.0-0.1-0.227,4019,8,7
228,1,object_09,object_04,980.39,2,2,357.395,0.3333333333333333,2,object_01,1,2816,0,2,3,desert_12,1,memory-2step-stake-s,717,3795458,0.0-18.0-0.1-0.228,4019,1,2
229,2,object_05,object_06,936.13,4,2,1270.75,0.5555555555555556,2,object_01,1,2821,0,0,5,forest_26,1,memory-2step-stake-s,718,3804536,0.0-18.0-0.1-0.229,4019,3,4
230,4,object_08,object_10,963.19,8,2,325.33,0.4444444444444444,2,object_01,1,2825,0,2,4,restaurant_21,1,memory-2step-stake-s,719,3812550,0.0-18.0-0.1-0.230,4019,7,8
231,2,object_05,object_06,1171.87,4,2,454.325,0.0,2,object_01,5,2825,0,0,0,forest_25,1,memory-2step-stake-s,720,3820263,0.0-18.0-0.1-0.231,4019,3,4
232,3,object_03,object_02,722.635,5,1,280.535,0.0,1,object_07,5,2825,0,0,0,library_25,1,memory-2step-stake-s,721,3827797,0.0-18.0-0.1-0.232,4019,5,6
233,1,object_04,object_09,960.455,1,2,954.47,0.3333333333333333,1,object_07,1,2828,0,3,5,desert_6,1,memory-2step-stake-s,722,3836311,0.0-18.0-0.1-0.233,4019,2,1
234,3,object_03,object_02,881.095,5,1,300.76,0.2222222222222222,1,object_07,5,2838,0,2,6,library_25,1,memory-2step-stake-s,723,3844096,0.0-18.0-0.1-0.234,4019,5,6
235,2,object_06,object_05,1353.58,3,2,355.965,0.0,1,object_07,1,2838,0,0,1,forest_13,1,memory-2step-stake-s,724,3851718,0.0-18.0-0.1-0.235,4019,4,3
236,4,object_08,object_10,935.72,8,2,157.445,0.2222222222222222,2,object_01,1,2840,0,1,2,restaurant_32,1,memory-2step-stake-s,725,3859398,0.0-18.0-0.1-0.236,4019,7,8
237,4,object_08,object_10,968.105,8,2,352.07,0.0,2,object_01,5,2840,0,1,0,restaurant_31,1,memory-2step-stake-s,726,3867012,0.0-18.0-0.1-0.237,4019,7,8
238,3,object_03,object_02,1161.005,5,1,421.86,0.1111111111111111,1,object_07,5,2845,0,1,2,library_26,1,memory-2step-stake-s,727,3874791,0.0-18.0-0.1-0.238,4019,5,6
239,3,object_02,object_03,784.465,5,2,404.29,0.3333333333333333,1,object_07,5,2860,0,3,4,library_23,1,memory-2step-stake-s,728,3882757,0.0-18.0-0.1-0.239,4019,6,5
240,1,object_04,object_09,783.955,1,2,-1.0,0.0,1,object_07,1,2860,0,2,6,desert_27,1,memory-2step-stake-s,729,3891328,0.0-18.0-0.1-0.240,4019,2,1
241,3,object_02,object_03,703.655,5,2,402.215,0.4444444444444444,1,object_07,5,2880,0,4,7,library_22,1,memory-2step-stake-s,730,3899436,0.0-18.0-0.1-0.241,4019,6,5
242,3,object_02,object_03,647.315,5,2,325.43,0.3333333333333333,1,object_07,5,2895,0,3,6,library_8,1,memory-2step-stake-s,731,3907335,0.0-18.0-0.1-0.242,4019,6,5
243,1,object_04,object_09,648.14,2,1,327.285,0.6666666666666666,2,object_01,1,2901,0,2,6,desert_25,1,memory-2step-stake-s,732,3915611,0.0-18.0-0.1-0.243,4019,2,1
244,3,object_02,object_03,1073.47,6,1,445.54,0.7777777777777778,2,object_01,5,2936,0,2,7,library_22,1,memory-2step-stake-s,733,3924119,0.0-18.0-0.1-0.244,4019,6,5
245,4,object_08,object_10,732.425,8,2,314.23,0.4444444444444444,2,object_01,5,2956,0,2,4,restaurant_7,1,memory-2step-stake-s,734,3932142,0.0-18.0-0.1-0.245,4019,7,8
246,4,object_08,object_10,792.41,8,2,270.775,0.4444444444444444,2,object_01,1,2960,0,3,4,restaurant_10,1,memory-2step-stake-s,735,3940113,0.0-18.0-0.1-0.246,4019,7,8
247,1,object_09,object_04,882.905,2,2,312.75,0.0,2,object_01,1,2960,0,2,0,desert_21,1,memory-2step-stake-s,736,3947695,0.0-18.0-0.1-0.247,4019,1,2
248,3,object_03,object_02,530.595,5,1,322.165,0.4444444444444444,1,object_07,5,2980,0,4,1,library_23,1,memory-2step-stake-s,737,3955748,0.0-18.0-0.1-0.248,4019,5,6
249,4,object_08,object_10,840.45,7,1,419.94,0.2222222222222222,1,object_07,5,2990,0,2,1,restaurant_29,1,memory-2step-stake-s,738,3963661,0.0-18.0-0.1-0.249,4019,7,8
250,4,object_08,object_10,677.455,7,1,318.03,0.2222222222222222,1,object_07,5,3000,0,2,2,restaurant_8,1,memory-2step-stake-s,739,3971456,0.0-18.0-0.1-0.250,4019,7,8
251,1,object_04,object_09,1000.71,2,1,640.13,0.2222222222222222,2,object_01,1,3002,0,3,2,desert_31,1,memory-2step-stake-s,740,3979582,0.0-18.0-0.1-0.251,4019,2,1
252,3,object_03,object_02,817.995,5,1,686.55,0.2222222222222222,1,object_07,1,3004,0,2,5,library_31,1,memory-2step-stake-s,741,3987757,0.0-18.0-0.1-0.252,4019,5,6
253,3,object_02,object_03,1072.35,5,2,780.43,0.4444444444444444,1,object_07,1,3008,0,4,3,library_32,1,memory-2step-stake-s,742,3996248,0.0-18.0-0.1-0.253,4019,6,5
254,3,object_03,object_02,573.365,5,1,491.435,0.4444444444444444,1,object_07,1,3012,0,4,3,library_31,1,memory-2step-stake-s,743,4004456,0.0-18.0-0.1-0.254,4019,5,6
255,2,object_05,object_06,-1.0,-1,-1,-1.0,0.0,-,,1,3012,0,1,1,forest_25,1,memory-2step-stake-s,744,4011026,0.0-18.0-0.1-0.255,4019,3,4
