,state1,stim_left,stim_right,rt_1,choice1,response1,rt_2,points,state2,stim_state2,stake,score,practice,rews1,rews2,background,high_arm,trial_type,trial_index,time_elapsed,internal_node_id,subid,stim_left_num,stim_right_num
0,3,object_05,object_02,1380.26,5,1,-1.0,0.0,1,object_03,1,0,0,2,5,library_32,2,memory-2step-stake-s,487,1112295,0.0-18.0-0.0-0.0,4416,5,6
1,3,object_05,object_02,1354.16,5,1,748.85,0.3333333333333333,1,object_03,1,3,0,3,6,library_19,2,memory-2step-stake-s,488,1120593,0.0-18.0-0.0-0.1,4416,5,6
2,3,object_05,object_02,818.15,5,1,577.01,0.7777777777777778,1,object_03,5,38,0,7,4,library_17,2,memory-2step-stake-s,489,1129144,0.0-18.0-0.0-0.2,4416,5,6
3,3,object_02,object_05,968.19,6,1,996.705,0.5555555555555556,2,object_04,1,43,0,7,5,library_4,2,memory-2step-stake-s,490,1137887,0.0-18.0-0.0-0.3,4416,6,5
4,2,object_08,object_01,998.82,3,2,-1.0,0.0,1,object_03,5,43,0,6,6,forest_21,2,memory-2step-stake-s,491,1146420,0.0-18.0-0.0-0.4,4416,4,3
5,3,object_02,object_05,1072.255,5,2,810.195,0.5555555555555556,1,object_03,1,48,0,5,5,library_11,2,memory-2step-stake-s,492,1154987,0.0-18.0-0.0-0.5,4416,6,5
6,1,object_09,object_10,880.725,2,1,575.865,0.2222222222222222,2,object_04,5,58,0,4,2,desert_15,2,memory-2step-stake-s,493,1163005,0.0-18.0-0.0-0.6,4416,2,1
7,1,object_10,object_09,906.1,2,2,617.71,0.5555555555555556,2,object_04,5,83,0,3,5,desert_12,2,memory-2step-stake-s,494,1171377,0.0-18.0-0.0-0.7,4416,1,2
8,1,object_09,object_10,1252.37,1,2,848.4,0.1111111111111111,1,object_03,5,88,0,1,6,desert_32,2,memory-2step-stake-s,495,1179565,0.0-18.0-0.0-0.8,4416,2,1
9,4,object_07,object_06,1484.385,7,1,594.64,0.3333333333333333,1,object_03,1,91,0,3,9,restaurant_18,2,memory-2step-stake-s,496,1187717,0.0-18.0-0.0-0.9,4416,7,8
10,3,object_02,object_05,650.74,5,2,571.77,0.2222222222222222,1,object_03,1,93,0,2,6,library_10,2,memory-2step-stake-s,497,1195736,0.0-18.0-0.0-0.10,4416,6,5
11,2,object_01,object_08,1307.15,4,2,793.84,0.5555555555555556,2,object_04,5,118,0,1,5,forest_15,2,memory-2step-stake-s,498,1204276,0.0-18.0-0.0-0.11,4416,3,4
12,3,object_05,object_02,835.525,6,2,569.995,0.4444444444444444,2,object_04,1,122,0,1,4,library_26,2,memory-2step-stake-s,499,1212502,0.0-18.0-0.0-0.12,4416,5,6
13,4,object_06,object_07,1298.91,8,1,543.91,0.2222222222222222,2,object_04,1,124,0,1,2,restaurant_13,2,memory-2step-stake-s,500,1220482,0.0-18.0-0.0-0.13,4416,8,7
14,3,object_02,object_05,896.165,5,2,607.64,0.1111111111111111,1,object_03,1,125,0,1,1,library_19,2,memory-2step-stake-s,501,1228431,0.0-18.0-0.0-0.14,4416,6,5
15,2,object_01,object_08,968.305,3,1,739.24,0.2222222222222222,1,object_03,5,135,0,2,3,forest_6,2,memory-2step-stake-s,502,1236615,0.0-18.0-0.0-0.15,4416,3,4
16,1,object_09,object_10,-1.0,-1,-1,-1.0,0.0,-,,5,135,0,3,2,desert_1,2,memory-2step-stake-s,503,1243150,0.0-18.0-0.0-0.16,4416,2,1
17,3,object_05,object_02,974.47,5,1,649.225,0.6666666666666666,1,object_03,1,141,0,6,5,library_32,2,memory-2step-stake-s,504,1251655,0.0-18.0-0.0-0.17,4416,5,6
18,3,object_05,object_02,736.85,5,1,1384.195,0.5555555555555556,1,object_03,1,146,0,5,5,library_10,2,memory-2step-stake-s,505,1260802,0.0-18.0-0.0-0.18,4416,5,6
19,3,object_05,object_02,627.39,5,1,491.515,0.6666666666666666,1,object_03,1,152,0,6,7,library_32,2,memory-2step-stake-s,506,1269152,0.0-18.0-0.0-0.19,4416,5,6
20,4,object_07,object_06,715.975,8,2,699.74,0.5555555555555556,2,object_04,1,157,0,5,5,restaurant_30,2,memory-2step-stake-s,507,1277605,0.0-18.0-0.0-0.20,4416,7,8
21,2,object_01,object_08,1232.855,3,1,716.615,0.7777777777777778,1,object_03,5,192,0,7,6,forest_12,2,memory-2step-stake-s,508,1286297,0.0-18.0-0.0-0.21,4416,3,4
22,1,object_09,object_10,-1.0,-1,-1,-1.0,0.0,-,,1,192,0,8,2,desert_19,2,memory-2step-stake-s,509,1292829,0.0-18.0-0.0-0.22,4416,2,1
23,4,object_06,object_07,699.64,7,2,803.61,0.7777777777777778,1,object_03,5,227,0,7,1,restaurant_3,2,memory-2step-stake-s,510,1301589,0.0-18.0-0.0-0.23,4416,8,7
24,3,object_05,object_02,1102.775,5,1,668.92,0.6666666666666666,1,object_03,1,233,0,6,4,library_29,2,memory-2step-stake-s,511,1310128,0.0-18.0-0.0-0.24,4416,5,6
25,2,object_08,object_01,737.845,4,1,461.765,0.1111111111111111,2,object_04,5,238,0,7,1,forest_30,2,memory-2step-stake-s,512,1317934,0.0-18.0-0.0-0.25,4416,4,3
26,2,object_08,object_01,1172.57,3,2,801.595,0.8888888888888888,1,object_03,1,246,0,8,1,forest_9,2,memory-2step-stake-s,513,1326808,0.0-18.0-0.0-0.26,4416,4,3
27,4,object_06,object_07,625.445,8,1,571.22,0.2222222222222222,2,object_04,1,248,0,5,2,restaurant_25,2,memory-2step-stake-s,514,1334821,0.0-18.0-0.0-0.27,4416,8,7
28,3,object_05,object_02,1084.125,5,1,-1.0,0.0,1,object_03,5,248,0,6,4,library_7,2,memory-2step-stake-s,515,1343352,0.0-18.0-0.0-0.28,4416,5,6
29,2,object_01,object_08,796.845,4,2,583.07,0.4444444444444444,2,object_04,5,268,0,2,4,forest_6,2,memory-2step-stake-s,516,1351594,0.0-18.0-0.0-0.29,4416,3,4
30,1,object_09,object_10,1183.24,1,2,606.08,0.3333333333333333,1,object_03,5,283,0,3,4,desert_29,2,memory-2step-stake-s,517,1359746,0.0-18.0-0.0-0.30,4416,2,1
31,2,object_08,object_01,1123.01,4,1,564.78,0.4444444444444444,2,object_04,5,303,0,1,4,forest_15,2,memory-2step-stake-s,518,1367969,0.0-18.0-0.0-0.31,4416,4,3
32,2,object_01,object_08,1224.15,3,1,581.02,0.2222222222222222,1,object_03,5,313,0,2,2,forest_10,2,memory-2step-stake-s,519,1375996,0.0-18.0-0.0-0.32,4416,3,4
33,2,object_08,object_01,-1.0,-1,-1,-1.0,0.0,-,,1,313,0,0,2,forest_27,2,memory-2step-stake-s,520,1382528,0.0-18.0-0.0-0.33,4416,4,3
34,2,object_01,object_08,668.985,3,1,472.335,0.1111111111111111,1,object_03,5,318,0,1,3,forest_10,2,memory-2step-stake-s,521,1390337,0.0-18.0-0.0-0.34,4416,3,4
35,4,object_07,object_06,-1.0,-1,-1,-1.0,0.0,-,,1,318,0,4,0,restaurant_3,2,memory-2step-stake-s,522,1396859,0.0-18.0-0.0-0.35,4416,7,8
36,2,object_01,object_08,1152.415,3,1,716.51,0.4444444444444444,1,object_03,1,322,0,4,1,forest_27,2,memory-2step-stake-s,523,1405232,0.0-18.0-0.0-0.36,4416,3,4
37,4,object_06,object_07,1209.28,8,1,664.875,0.2222222222222222,2,object_04,1,324,0,4,2,restaurant_11,2,memory-2step-stake-s,524,1413336,0.0-18.0-0.0-0.37,4416,8,7
38,4,object_07,object_06,837.15,7,1,665.805,0.3333333333333333,1,object_03,5,339,0,3,1,restaurant_24,2,memory-2step-stake-s,525,1421545,0.0-18.0-0.0-0.38,4416,7,8
39,1,object_09,object_10,1403.055,1,2,744.55,0.1111111111111111,1,object_03,5,344,0,1,0,desert_8,2,memory-2step-stake-s,526,1429624,0.0-18.0-0.0-0.39,4416,2,1
40,2,object_01,object_08,1447.94,4,2,693.3,0.1111111111111111,2,object_04,5,349,0,0,1,forest_20,2,memory-2step-stake-s,527,1437664,0.0-18.0-0.0-0.40,4416,3,4
41,1,object_09,object_10,787.665,2,1,709.86,0.1111111111111111,2,object_04,5,354,0,5,1,desert_3,2,memory-2step-stake-s,528,1445722,0.0-18.0-0.0-0.41,4416,2,1
42,4,object_06,object_07,341.81,7,2,708.82,0.7777777777777778,1,object_03,1,361,0,7,1,restaurant_22,2,memory-2step-stake-s,529,1454407,0.0-18.0-0.0-0.42,4416,8,7
43,4,object_07,object_06,1045.595,8,2,690.91,0.2222222222222222,2,object_04,1,363,0,6,2,restaurant_18,2,memory-2step-stake-s,530,1462539,0.0-18.0-0.0-0.43,4416,7,8
44,1,object_10,object_09,1076.445,1,1,489.355,0.7777777777777778,1,object_03,5,398,0,7,5,desert_1,2,memory-2step-stake-s,531,1471001,0.0-18.0-0.0-0.44,4416,1,2
45,1,object_09,object_10,845.625,1,2,-1.0,0.0,1,object_03,5,398,0,8,5,desert_19,2,memory-2step-stake-s,532,1479540,0.0-18.0-0.0-0.45,4416,2,1
46,2,object_08,object_01,989.04,3,2,609.33,1.0,1,object_03,5,443,0,9,6,forest_30,2,memory-2step-stake-s,533,1488309,0.0-18.0-0.0-0.46,4416,4,3
47,1,object_10,object_09,-1.0,-1,-1,-1.0,0.0,-,,5,443,0,6,7,desert_29,2,memory-2step-stake-s,534,1494833,0.0-18.0-0.0-0.47,4416,1,2
48,3,object_05,object_02,228.585,6,2,554.455,0.8888888888888888,2,object_04,5,483,0,4,8,library_12,2,memory-2step-stake-s,535,1503442,0.0-18.0-0.0-0.48,4416,5,6
49,1,object_10,object_09,967.83,2,2,683.86,0.7777777777777778,2,object_04,5,518,0,3,7,desert_16,2,memory-2step-stake-s,536,1512080,0.0-18.0-0.0-0.49,4416,1,2
50,1,object_10,object_09,553.595,2,2,817.445,0.8888888888888888,2,object_04,1,526,0,2,8,desert_15,2,memory-2step-stake-s,537,1520966,0.0-18.0-0.0-0.50,4416,1,2
51,2,object_08,object_01,873.405,4,1,685.025,1.0,2,object_04,5,571,0,2,9,forest_12,2,memory-2step-stake-s,538,1529845,0.0-18.0-0.0-0.51,4416,4,3
52,3,object_05,object_02,772.79,5,1,432.68,0.3333333333333333,1,object_03,1,574,0,3,7,library_15,2,memory-2step-stake-s,539,1537830,0.0-18.0-0.0-0.52,4416,5,6
53,3,object_05,object_02,736.74,6,2,602.165,0.8888888888888888,2,object_04,1,582,0,3,8,library_28,2,memory-2step-stake-s,540,1546500,0.0-18.0-0.0-0.53,4416,5,6
54,3,object_05,object_02,837.77,6,2,518.2,0.7777777777777778,2,object_04,1,589,0,1,7,library_29,2,memory-2step-stake-s,541,1554990,0.0-18.0-0.0-0.54,4416,5,6
55,4,object_06,object_07,1154.515,7,2,791.47,0.2222222222222222,1,object_03,5,599,0,2,8,restaurant_24,2,memory-2step-stake-s,542,1563226,0.0-18.0-0.0-0.55,4416,8,7
56,2,object_08,object_01,1077.76,3,2,506.96,0.3333333333333333,1,object_03,1,602,0,3,6,forest_24,2,memory-2step-stake-s,543,1571288,0.0-18.0-0.0-0.56,4416,4,3
57,2,object_08,object_01,616.82,4,1,543.86,0.4444444444444444,2,object_04,5,622,0,4,4,forest_24,2,memory-2step-stake-s,544,1579493,0.0-18.0-0.0-0.57,4416,4,3
58,1,object_09,object_10,1216.775,1,2,697.685,0.4444444444444444,1,object_03,5,642,0,4,2,desert_3,2,memory-2step-stake-s,545,1587835,0.0-18.0-0.0-0.58,4416,2,1
59,1,object_09,object_10,793.825,1,2,696.18,0.1111111111111111,1,object_03,1,643,0,1,3,desert_5,2,memory-2step-stake-s,546,1595878,0.0-18.0-0.0-0.59,4416,2,1
60,3,object_05,object_02,972.8,5,1,521.57,0.2222222222222222,1,object_03,5,653,0,2,2,library_1,2,memory-2step-stake-s,547,1603847,0.0-18.0-0.0-0.60,4416,5,6
61,4,object_07,object_06,947.66,8,2,734.17,0.2222222222222222,2,object_04,1,655,0,3,2,restaurant_30,2,memory-2step-stake-s,548,1612033,0.0-18.0-0.0-0.61,4416,7,8
62,4,object_06,object_07,-1.0,-1,-1,-1.0,0.0,-,,1,655,0,0,0,restaurant_11,2,memory-2step-stake-s,549,1618566,0.0-18.0-0.0-0.62,4416,8,7
63,2,object_08,object_01,678.36,4,1,726.32,0.1111111111111111,2,object_04,5,660,0,1,1,forest_9,2,memory-2step-stake-s,550,1626627,0.0-18.0-0.0-0.63,4416,4,3
64,2,object_08,object_01,739.845,3,2,540.3,0.1111111111111111,1,object_03,1,661,0,1,1,forest_24,2,memory-2step-stake-s,551,1634510,0.0-18.0-0.0-0.64,4416,4,3
65,3,object_05,object_02,555.53,6,2,545.535,0.2222222222222222,2,object_04,1,663,0,4,2,library_17,2,memory-2step-stake-s,552,1642502,0.0-18.0-0.0-0.65,4416,5,6
66,3,object_05,object_02,851.79,5,1,266.98,0.4444444444444444,1,object_03,1,667,0,4,0,library_7,2,memory-2step-stake-s,553,1650425,0.0-18.0-0.0-0.66,4416,5,6
67,4,object_07,object_06,756.48,8,2,686.555,0.1111111111111111,2,object_04,1,668,0,1,1,restaurant_2,2,memory-2step-stake-s,554,1658449,0.0-18.0-0.0-0.67,4416,7,8
68,3,object_02,object_05,811.07,5,2,533.49,0.0,1,object_03,5,668,0,0,2,library_17,2,memory-2step-stake-s,555,1666206,0.0-18.0-0.0-0.68,4416,6,5
69,2,object_08,object_01,691.08,4,1,618.815,0.1111111111111111,2,object_04,5,673,0,1,1,forest_24,2,memory-2step-stake-s,556,1674162,0.0-18.0-0.0-0.69,4416,4,3
70,1,object_10,object_09,650.74,2,2,627.505,0.3333333333333333,2,object_04,5,688,0,0,3,desert_32,2,memory-2step-stake-s,557,1682326,0.0-18.0-0.0-0.70,4416,1,2
71,4,object_07,object_06,971.745,7,1,750.075,0.3333333333333333,1,object_03,1,691,0,3,4,restaurant_11,2,memory-2step-stake-s,558,1690615,0.0-18.0-0.0-0.71,4416,7,8
72,1,object_10,object_09,828.48,2,2,1171.845,0.6666666666666666,2,object_04,1,697,0,4,6,desert_17,2,memory-2step-stake-s,559,1699640,0.0-18.0-0.0-0.72,4416,1,2
73,1,object_10,object_09,815.045,2,2,845.405,0.5555555555555556,2,object_04,1,702,0,7,5,desert_5,2,memory-2step-stake-s,560,1708242,0.0-18.0-0.0-0.73,4416,1,2
74,2,object_01,object_08,566.99,3,1,1172.975,0.7777777777777778,1,object_03,5,737,0,7,4,forest_4,2,memory-2step-stake-s,561,1717369,0.0-18.0-0.0-0.74,4416,3,4
75,3,object_05,object_02,496.06,6,2,987.545,0.4444444444444444,2,object_04,1,741,0,8,4,library_12,2,memory-2step-stake-s,562,1725997,0.0-18.0-0.0-0.75,4416,5,6
76,2,object_08,object_01,798.42,4,1,585.765,0.5555555555555556,2,object_04,5,766,0,5,5,forest_4,2,memory-2step-stake-s,563,1734329,0.0-18.0-0.0-0.76,4416,4,3
77,3,object_05,object_02,565.43,6,2,475.24,0.4444444444444444,2,object_04,5,786,0,3,4,library_1,2,memory-2step-stake-s,564,1742442,0.0-18.0-0.0-0.77,4416,5,6
78,1,object_10,object_09,951.375,2,2,408.475,0.0,2,object_04,5,786,0,3,0,desert_29,2,memory-2step-stake-s,565,1750067,0.0-18.0-0.0-0.78,4416,1,2
79,3,object_05,object_02,652.13,5,1,454.0,0.3333333333333333,1,object_03,1,789,0,3,0,library_12,2,memory-2step-stake-s,566,1758053,0.0-18.0-0.0-0.79,4416,5,6
80,3,object_02,object_05,1254.93,5,2,450.565,0.4444444444444444,1,object_03,1,793,0,4,1,library_11,2,memory-2step-stake-s,567,1766157,0.0-18.0-0.0-0.80,4416,6,5
81,2,object_08,object_01,768.77,4,1,600.395,0.3333333333333333,2,object_04,5,808,0,2,3,forest_21,2,memory-2step-stake-s,568,1774309,0.0-18.0-0.0-0.81,4416,4,3
82,1,object_09,object_10,778.25,2,1,834.76,0.1111111111111111,2,object_04,5,813,0,1,1,desert_32,2,memory-2step-stake-s,569,1782488,0.0-18.0-0.0-0.82,4416,2,1
83,4,object_06,object_07,586.92,7,2,661.28,0.2222222222222222,1,object_03,1,815,0,2,3,restaurant_31,2,memory-2step-stake-s,570,1790596,0.0-18.0-0.0-0.83,4416,8,7
84,3,object_02,object_05,794.275,6,1,457.64,0.4444444444444444,2,object_04,5,835,0,1,4,library_28,2,memory-2step-stake-s,571,1798712,0.0-18.0-0.0-0.84,4416,6,5
85,3,object_05,object_02,484.655,6,2,629.055,0.1111111111111111,2,object_04,5,840,0,2,1,library_30,2,memory-2step-stake-s,572,1806686,0.0-18.0-0.0-0.85,4416,5,6
86,4,object_07,object_06,581.53,7,1,596.745,0.2222222222222222,1,object_03,1,842,0,2,5,restaurant_16,2,memory-2step-stake-s,573,1814734,0.0-18.0-0.0-0.86,4416,7,8
87,1,object_10,object_09,622.13,2,2,-1.0,0.0,2,object_04,5,842,0,1,4,desert_3,2,memory-2step-stake-s,574,1823271,0.0-18.0-0.0-0.87,4416,1,2
88,2,object_08,object_01,952.235,3,2,673.81,0.3333333333333333,1,object_03,1,845,0,3,5,forest_5,2,memory-2step-stake-s,575,1831497,0.0-18.0-0.0-0.88,4416,4,3
89,2,object_01,object_08,732.115,3,1,825.105,0.2222222222222222,1,object_03,5,855,0,2,4,forest_22,2,memory-2step-stake-s,576,1839757,0.0-18.0-0.0-0.89,4416,3,4
90,3,object_02,object_05,752.48,5,2,1146.165,0.0,1,object_03,1,855,0,0,2,library_10,2,memory-2step-stake-s,577,1848140,0.0-18.0-0.0-0.90,4416,6,5
91,1,object_09,object_10,696.905,2,1,635.725,0.1111111111111111,2,object_04,5,860,0,1,1,desert_1,2,memory-2step-stake-s,578,1856107,0.0-18.0-0.0-0.91,4416,2,1
92,3,object_02,object_05,865.11,5,2,571.045,0.0,1,object_03,1,860,0,0,4,library_11,2,memory-2step-stake-s,579,1863910,0.0-18.0-0.0-0.92,4416,6,5
93,2,object_01,object_08,470.155,3,1,744.11,0.0,1,object_03,5,860,0,0,4,forest_12,2,memory-2step-stake-s,580,1871884,0.0-18.0-0.0-0.93,4416,3,4
94,1,object_10,object_09,989.945,2,2,587.5,0.7777777777777778,2,object_04,1,867,0,0,7,desert_16,2,memory-2step-stake-s,581,1880446,0.0-18.0-0.0-0.94,4416,1,2
95,2,object_08,object_01,615.67,4,1,630.625,0.6666666666666666,2,object_04,1,873,0,3,6,forest_21,2,memory-2step-stake-s,582,1888927,0.0-18.0-0.0-0.95,4416,4,3
96,4,object_07,object_06,928.505,7,1,646.62,0.4444444444444444,1,object_03,1,877,0,4,9,restaurant_11,2,memory-2step-stake-s,583,1897222,0.0-18.0-0.0-0.96,4416,7,8
97,3,object_05,object_02,711.18,6,2,719.57,0.5555555555555556,2,object_04,1,882,0,4,5,library_19,2,memory-2step-stake-s,584,1905705,0.0-18.0-0.0-0.97,4416,5,6
98,4,object_06,object_07,1144.21,7,2,662.41,0.1111111111111111,1,object_03,5,887,0,1,4,restaurant_15,2,memory-2step-stake-s,585,1913698,0.0-18.0-0.0-0.98,4416,8,7
99,1,object_10,object_09,602.455,1,1,449.195,0.1111111111111111,1,object_03,5,892,0,1,4,desert_18,2,memory-2step-stake-s,586,1921488,0.0-18.0-0.0-0.99,4416,1,2
100,3,object_05,object_02,356.76,6,2,528.015,0.2222222222222222,2,object_04,1,894,0,2,2,library_28,2,memory-2step-stake-s,587,1929457,0.0-18.0-0.0-0.100,4416,5,6
101,3,object_02,object_05,840.28,5,2,642.71,0.0,1,object_03,1,894,0,0,4,library_30,2,memory-2step-stake-s,588,1937334,0.0-18.0-0.0-0.101,4416,6,5
102,4,object_06,object_07,608.95,8,1,543.78,0.6666666666666666,2,object_04,1,900,0,2,6,restaurant_19,2,memory-2step-stake-s,589,1945740,0.0-18.0-0.0-0.102,4416,8,7
103,4,object_06,object_07,497.945,7,2,292.185,0.5555555555555556,1,object_03,1,905,0,5,8,restaurant_26,2,memory-2step-stake-s,590,1953778,0.0-18.0-0.0-0.103,4416,8,7
104,1,object_09,object_10,460.355,2,1,482.895,0.7777777777777778,2,object_04,1,912,0,9,7,desert_17,2,memory-2step-stake-s,591,1962222,0.0-18.0-0.0-0.104,4416,2,1
105,1,object_09,object_10,794.765,2,1,544.8,0.4444444444444444,2,object_04,1,916,0,8,4,desert_28,2,memory-2step-stake-s,592,1970413,0.0-18.0-0.0-0.105,4416,2,1
106,4,object_07,object_06,663.845,8,2,-1.0,0.0,2,object_04,1,916,0,6,1,restaurant_31,2,memory-2step-stake-s,593,1978943,0.0-18.0-0.0-0.106,4416,7,8
107,3,object_05,object_02,511.585,5,1,1007.925,0.5555555555555556,1,object_03,1,921,0,5,4,library_26,2,memory-2step-stake-s,594,1987688,0.0-18.0-0.0-0.107,4416,5,6
108,4,object_07,object_06,543.77,8,2,429.375,0.3333333333333333,2,object_04,1,924,0,4,3,restaurant_26,2,memory-2step-stake-s,595,1995663,0.0-18.0-0.0-0.108,4416,7,8
109,2,object_08,object_01,862.935,4,1,562.025,0.5555555555555556,2,object_04,5,949,0,8,5,forest_20,2,memory-2step-stake-s,596,2003974,0.0-18.0-0.0-0.109,4416,4,3
110,1,object_10,object_09,711.64,2,2,360.935,0.4444444444444444,2,object_04,5,969,0,7,4,desert_28,2,memory-2step-stake-s,597,2011987,0.0-18.0-0.0-0.110,4416,1,2
111,3,object_02,object_05,894.45,5,2,404.055,0.8888888888888888,1,object_03,1,977,0,8,7,library_12,2,memory-2step-stake-s,598,2020451,0.0-18.0-0.0-0.111,4416,6,5
112,1,object_09,object_10,488.49,1,2,474.83,0.5555555555555556,1,object_03,1,982,0,5,7,desert_16,2,memory-2step-stake-s,599,2028678,0.0-18.0-0.0-0.112,4416,2,1
113,4,object_07,object_06,655.745,7,1,515.69,0.4444444444444444,1,object_03,1,986,0,4,9,restaurant_16,2,memory-2step-stake-s,600,2036846,0.0-18.0-0.0-0.113,4416,7,8
114,2,object_01,object_08,509.925,4,2,311.71,0.8888888888888888,2,object_04,1,994,0,1,8,forest_22,2,memory-2step-stake-s,601,2045217,0.0-18.0-0.0-0.114,4416,3,4
115,2,object_08,object_01,572.635,4,1,475.055,0.7777777777777778,2,object_04,5,1029,0,0,7,forest_5,2,memory-2step-stake-s,602,2053656,0.0-18.0-0.0-0.115,4416,4,3
116,2,object_01,object_08,725.525,4,2,667.79,0.4444444444444444,2,object_04,5,1049,0,3,4,forest_4,2,memory-2step-stake-s,603,2061987,0.0-18.0-0.0-0.116,4416,3,4
117,4,object_06,object_07,554.095,8,1,539.32,0.3333333333333333,2,object_04,5,1064,0,5,3,restaurant_25,2,memory-2step-stake-s,604,2070073,0.0-18.0-0.0-0.117,4416,8,7
118,1,object_10,object_09,821.58,2,2,1099.58,0.1111111111111111,2,object_04,5,1069,0,5,1,desert_6,2,memory-2step-stake-s,605,2078515,0.0-18.0-0.0-0.118,4416,1,2
119,3,object_05,object_02,744.015,5,1,991.99,0.4444444444444444,1,object_03,1,1073,0,4,4,library_20,2,memory-2step-stake-s,606,2087148,0.0-18.0-0.0-0.119,4416,5,6
120,4,object_06,object_07,670.775,7,2,-1.0,0.0,1,object_03,1,1073,0,2,4,restaurant_19,2,memory-2step-stake-s,607,2095681,0.0-18.0-0.0-0.120,4416,8,7
121,4,object_07,object_06,944.895,7,1,697.49,0.4444444444444444,1,object_03,5,1093,0,4,6,restaurant_28,2,memory-2step-stake-s,608,2104030,0.0-18.0-0.0-0.121,4416,7,8
122,1,object_10,object_09,686.775,2,2,654.675,0.6666666666666666,2,object_04,1,1099,0,5,6,desert_13,2,memory-2step-stake-s,609,2112538,0.0-18.0-0.0-0.122,4416,1,2
123,4,object_07,object_06,626.88,7,1,636.96,0.8888888888888888,1,object_03,1,1107,0,8,5,restaurant_2,2,memory-2step-stake-s,610,2121243,0.0-18.0-0.0-0.123,4416,7,8
124,1,object_09,object_10,676.935,2,1,856.83,0.5555555555555556,2,object_04,5,1132,0,8,5,desert_11,2,memory-2step-stake-s,611,2129848,0.0-18.0-0.0-0.124,4416,2,1
125,3,object_02,object_05,938.67,5,2,-1.0,0.0,1,object_03,1,1132,0,9,5,library_17,2,memory-2step-stake-s,612,2138385,0.0-18.0-0.0-0.125,4416,6,5
126,4,object_06,object_07,1003.29,7,2,792.01,0.8888888888888888,1,object_03,1,1140,0,8,3,restaurant_5,2,memory-2step-stake-s,613,2147220,0.0-18.0-0.0-0.126,4416,8,7
127,2,object_08,object_01,726.88,3,2,760.295,0.6666666666666666,1,object_03,5,1170,0,6,4,forest_5,2,memory-2step-stake-s,614,2155830,0.0-18.0-0.0-0.127,4416,4,3
128,1,object_10,object_09,1143.95,2,2,814.425,0.5555555555555556,2,object_04,1,1175,0,7,5,desert_8,2,memory-2step-stake-s,616,3140063,0.0-18.0-0.1-0.128,4416,1,2
129,3,object_05,object_02,435.975,5,1,421.74,0.8888888888888888,1,object_03,1,1183,0,8,5,library_30,2,memory-2step-stake-s,617,3148523,0.0-18.0-0.1-0.129,4416,5,6
130,3,object_02,object_05,486.04,5,2,583.175,1.0,1,object_03,1,1192,0,9,3,library_1,2,memory-2step-stake-s,618,3157242,0.0-18.0-0.1-0.130,4416,6,5
131,4,object_07,object_06,874.85,7,1,489.96,1.0,1,object_03,1,1201,0,9,2,restaurant_22,2,memory-2step-stake-s,619,3165898,0.0-18.0-0.1-0.131,4416,7,8
132,4,object_07,object_06,680.215,8,2,560.89,0.2222222222222222,2,object_04,1,1203,0,9,2,restaurant_24,2,memory-2step-stake-s,620,3173904,0.0-18.0-0.1-0.132,4416,7,8
133,4,object_06,object_07,577.445,7,2,608.51,0.6666666666666666,1,object_03,5,1233,0,6,6,restaurant_22,2,memory-2step-stake-s,621,3182353,0.0-18.0-0.1-0.133,4416,8,7
134,3,object_02,object_05,811.18,5,2,528.765,0.6666666666666666,1,object_03,1,1239,0,6,9,library_15,2,memory-2step-stake-s,622,3190722,0.0-18.0-0.1-0.134,4416,6,5
135,2,object_01,object_08,688.98,4,2,569.36,0.8888888888888888,2,object_04,5,1279,0,9,8,forest_15,2,memory-2step-stake-s,623,3199344,0.0-18.0-0.1-0.135,4416,3,4
136,2,object_08,object_01,662.05,4,1,523.23,0.7777777777777778,2,object_04,1,1286,0,8,7,forest_10,2,memory-2step-stake-s,624,3207826,0.0-18.0-0.1-0.136,4416,4,3
137,3,object_05,object_02,660.315,6,2,543.69,0.8888888888888888,2,object_04,1,1294,0,9,8,library_20,2,memory-2step-stake-s,625,3216422,0.0-18.0-0.1-0.137,4416,5,6
138,3,object_02,object_05,854.735,5,2,748.13,0.8888888888888888,1,object_03,1,1302,0,8,9,library_26,2,memory-2step-stake-s,626,3225246,0.0-18.0-0.1-0.138,4416,6,5
139,1,object_09,object_10,718.765,2,1,590.99,0.7777777777777778,2,object_04,5,1337,0,8,7,desert_6,2,memory-2step-stake-s,627,3233790,0.0-18.0-0.1-0.139,4416,2,1
140,1,object_10,object_09,457.13,2,2,1081.13,0.8888888888888888,2,object_04,5,1377,0,8,8,desert_6,2,memory-2step-stake-s,628,3242916,0.0-18.0-0.1-0.140,4416,1,2
141,1,object_09,object_10,628.1,2,1,585.59,1.0,2,object_04,5,1422,0,8,9,desert_13,2,memory-2step-stake-s,629,3251663,0.0-18.0-0.1-0.141,4416,2,1
142,1,object_10,object_09,467.005,2,2,665.595,0.8888888888888888,2,object_04,5,1462,0,7,8,desert_11,2,memory-2step-stake-s,630,3260389,0.0-18.0-0.1-0.142,4416,1,2
143,1,object_09,object_10,497.17,2,1,535.765,1.0,2,object_04,5,1507,0,8,9,desert_13,2,memory-2step-stake-s,631,3269089,0.0-18.0-0.1-0.143,4416,2,1
144,2,object_08,object_01,770.685,4,1,514.74,0.8888888888888888,2,object_04,5,1547,0,8,8,forest_6,2,memory-2step-stake-s,632,3277663,0.0-18.0-0.1-0.144,4416,4,3
145,2,object_01,object_08,679.64,4,2,453.315,0.7777777777777778,2,object_04,5,1582,0,8,7,forest_7,2,memory-2step-stake-s,633,3286076,0.0-18.0-0.1-0.145,4416,3,4
146,1,object_09,object_10,596.91,2,1,454.765,0.6666666666666666,2,object_04,5,1612,0,9,6,desert_11,2,memory-2step-stake-s,634,3294397,0.0-18.0-0.1-0.146,4416,2,1
147,3,object_05,object_02,604.38,5,1,454.355,0.7777777777777778,1,object_03,5,1647,0,7,5,library_4,2,memory-2step-stake-s,635,3302810,0.0-18.0-0.1-0.147,4416,5,6
148,4,object_06,object_07,723.76,7,2,486.505,0.8888888888888888,1,object_03,1,1655,0,8,3,restaurant_25,2,memory-2step-stake-s,636,3311368,0.0-18.0-0.1-0.148,4416,8,7
149,2,object_01,object_08,756.47,3,1,502.22,0.8888888888888888,1,object_03,1,1663,0,8,5,forest_29,2,memory-2step-stake-s,637,3319928,0.0-18.0-0.1-0.149,4416,3,4
150,1,object_09,object_10,300.295,1,2,1381.17,0.8888888888888888,1,object_03,1,1671,0,8,2,desert_12,2,memory-2step-stake-s,638,3329370,0.0-18.0-0.1-0.150,4416,2,1
151,2,object_08,object_01,825.97,4,1,653.47,0.4444444444444444,2,object_04,5,1691,0,9,4,forest_26,2,memory-2step-stake-s,639,3337668,0.0-18.0-0.1-0.151,4416,4,3
152,4,object_06,object_07,912.535,7,2,728.455,1.0,1,object_03,1,1700,0,9,3,restaurant_16,2,memory-2step-stake-s,640,3346559,0.0-18.0-0.1-0.152,4416,8,7
153,1,object_10,object_09,673.8,1,1,963.025,1.0,1,object_03,5,1745,0,9,1,desert_16,2,memory-2step-stake-s,641,3355691,0.0-18.0-0.1-0.153,4416,1,2
154,4,object_06,object_07,460.38,7,2,492.7,0.8888888888888888,1,object_03,5,1785,0,8,2,restaurant_5,2,memory-2step-stake-s,642,3364244,0.0-18.0-0.1-0.154,4416,8,7
155,1,object_10,object_09,990.855,1,1,527.87,0.8888888888888888,1,object_03,5,1825,0,8,4,desert_11,2,memory-2step-stake-s,643,3372836,0.0-18.0-0.1-0.155,4416,1,2
156,4,object_07,object_06,905.54,7,1,431.34,0.6666666666666666,1,object_03,1,1831,0,6,5,restaurant_3,2,memory-2step-stake-s,644,3381130,0.0-18.0-0.1-0.156,4416,7,8
157,4,object_07,object_06,630.925,8,2,728.895,0.4444444444444444,2,object_04,1,1835,0,5,4,restaurant_13,2,memory-2step-stake-s,645,3389506,0.0-18.0-0.1-0.157,4416,7,8
158,3,object_02,object_05,1215.39,5,2,723.495,0.8888888888888888,1,object_03,1,1843,0,8,5,library_2,2,memory-2step-stake-s,646,3398304,0.0-18.0-0.1-0.158,4416,6,5
159,1,object_10,object_09,949.195,2,2,710.925,0.3333333333333333,2,object_04,5,1858,0,7,3,desert_19,2,memory-2step-stake-s,647,3406560,0.0-18.0-0.1-0.159,4416,1,2
160,4,object_07,object_06,530.03,7,1,647.54,0.6666666666666666,1,object_03,1,1864,0,6,6,restaurant_22,2,memory-2step-stake-s,648,3415067,0.0-18.0-0.1-0.160,4416,7,8
161,3,object_02,object_05,760.045,5,2,478.14,0.6666666666666666,1,object_03,1,1870,0,6,3,library_1,2,memory-2step-stake-s,649,3423406,0.0-18.0-0.1-0.161,4416,6,5
162,1,object_10,object_09,1214.475,2,2,518.005,0.1111111111111111,2,object_04,5,1875,0,7,1,desert_15,2,memory-2step-stake-s,650,3431263,0.0-18.0-0.1-0.162,4416,1,2
163,2,object_01,object_08,951.61,3,1,-1.0,0.0,1,object_03,5,1875,0,7,2,forest_5,2,memory-2step-stake-s,651,3439799,0.0-18.0-0.1-0.163,4416,3,4
164,4,object_06,object_07,593.4,7,2,452.21,0.8888888888888888,1,object_03,5,1915,0,8,3,restaurant_5,2,memory-2step-stake-s,652,3448305,0.0-18.0-0.1-0.164,4416,8,7
165,4,object_07,object_06,424.195,7,1,1290.66,0.5555555555555556,1,object_03,1,1920,0,5,3,restaurant_30,2,memory-2step-stake-s,653,3457348,0.0-18.0-0.1-0.165,4416,7,8
166,2,object_01,object_08,747.855,4,2,1018.09,0.3333333333333333,2,object_04,5,1935,0,3,3,forest_26,2,memory-2step-stake-s,654,3465906,0.0-18.0-0.1-0.166,4416,3,4
167,4,object_07,object_06,562.205,7,1,675.02,0.4444444444444444,1,object_03,1,1939,0,4,3,restaurant_15,2,memory-2step-stake-s,655,3474228,0.0-18.0-0.1-0.167,4416,7,8
168,2,object_01,object_08,708.525,4,2,588.89,0.2222222222222222,2,object_04,1,1941,0,3,2,forest_20,2,memory-2step-stake-s,656,3482253,0.0-18.0-0.1-0.168,4416,3,4
169,3,object_02,object_05,692.51,5,2,770.735,0.4444444444444444,1,object_03,5,1961,0,4,2,library_28,2,memory-2step-stake-s,657,3490680,0.0-18.0-0.1-0.169,4416,6,5
170,1,object_09,object_10,630.075,2,1,721.77,0.5555555555555556,2,object_04,5,1986,0,1,5,desert_15,2,memory-2step-stake-s,658,3499152,0.0-18.0-0.1-0.170,4416,2,1
171,1,object_10,object_09,1044.015,2,2,396.075,0.7777777777777778,2,object_04,5,2021,0,0,7,desert_17,2,memory-2step-stake-s,659,3507504,0.0-18.0-0.1-0.171,4416,1,2
172,2,object_08,object_01,389.645,4,1,552.015,0.6666666666666666,2,object_04,5,2051,0,3,6,forest_15,2,memory-2step-stake-s,660,3515906,0.0-18.0-0.1-0.172,4416,4,3
173,2,object_08,object_01,1212.505,3,2,1150.185,0.2222222222222222,1,object_03,1,2053,0,2,5,forest_10,2,memory-2step-stake-s,661,3524498,0.0-18.0-0.1-0.173,4416,4,3
174,3,object_05,object_02,591.69,5,1,728.42,0.1111111111111111,1,object_03,1,2054,0,1,7,library_2,2,memory-2step-stake-s,662,3532565,0.0-18.0-0.1-0.174,4416,5,6
175,2,object_01,object_08,523.22,4,2,540.41,0.8888888888888888,2,object_04,5,2094,0,2,8,forest_7,2,memory-2step-stake-s,663,3541175,0.0-18.0-0.1-0.175,4416,3,4
176,3,object_02,object_05,369.54,6,1,488.56,0.7777777777777778,2,object_04,1,2101,0,2,7,library_26,2,memory-2step-stake-s,664,3549628,0.0-18.0-0.1-0.176,4416,6,5
177,4,object_06,object_07,559.115,7,2,853.675,0.2222222222222222,1,object_03,5,2111,0,2,5,restaurant_15,2,memory-2step-stake-s,665,3557925,0.0-18.0-0.1-0.177,4416,8,7
178,1,object_10,object_09,985.17,1,1,-1.0,0.0,1,object_03,5,2111,0,0,4,desert_17,2,memory-2step-stake-s,666,3566455,0.0-18.0-0.1-0.178,4416,1,2
179,2,object_01,object_08,744.895,4,2,144.745,0.5555555555555556,2,object_04,5,2136,0,1,5,forest_26,2,memory-2step-stake-s,667,3574342,0.0-18.0-0.1-0.179,4416,3,4
180,1,object_10,object_09,915.925,1,1,1060.255,0.2222222222222222,1,object_03,5,2146,0,2,6,desert_12,2,memory-2step-stake-s,668,3582851,0.0-18.0-0.1-0.180,4416,1,2
181,3,object_02,object_05,955.485,5,2,572.205,0.2222222222222222,1,object_03,5,2156,0,2,6,library_19,2,memory-2step-stake-s,669,3590869,0.0-18.0-0.1-0.181,4416,6,5
182,4,object_06,object_07,-1.0,-1,-1,-1.0,0.0,-,,1,2156,0,2,7,restaurant_30,2,memory-2step-stake-s,670,3597399,0.0-18.0-0.1-0.182,4416,8,7
183,3,object_02,object_05,748.435,6,1,753.265,0.7777777777777778,2,object_04,1,2163,0,1,7,library_30,2,memory-2step-stake-s,671,3606113,0.0-18.0-0.1-0.183,4416,6,5
184,1,object_10,object_09,830.2,1,1,1121.445,0.3333333333333333,1,object_03,5,2178,0,3,7,desert_18,2,memory-2step-stake-s,672,3614778,0.0-18.0-0.1-0.184,4416,1,2
185,1,object_09,object_10,679.26,1,2,827.135,0.6666666666666666,1,object_03,1,2184,0,6,7,desert_5,2,memory-2step-stake-s,673,3623480,0.0-18.0-0.1-0.185,4416,2,1
186,3,object_02,object_05,988.565,5,2,792.815,0.8888888888888888,1,object_03,1,2192,0,8,5,library_29,2,memory-2step-stake-s,674,3632340,0.0-18.0-0.1-0.186,4416,6,5
187,4,object_06,object_07,606.9,8,1,485.54,0.6666666666666666,2,object_04,5,2222,0,7,6,restaurant_31,2,memory-2step-stake-s,675,3640688,0.0-18.0-0.1-0.187,4416,8,7
188,3,object_05,object_02,1260.36,6,2,607.215,0.6666666666666666,2,object_04,1,2228,0,8,6,library_15,2,memory-2step-stake-s,676,3649158,0.0-18.0-0.1-0.188,4416,5,6
189,4,object_06,object_07,1170.165,8,1,1083.09,0.5555555555555556,2,object_04,1,2233,0,9,5,restaurant_31,2,memory-2step-stake-s,677,3657994,0.0-18.0-0.1-0.189,4416,8,7
190,4,object_07,object_06,1184.76,8,2,520.795,0.6666666666666666,2,object_04,1,2239,0,9,6,restaurant_25,2,memory-2step-stake-s,678,3666372,0.0-18.0-0.1-0.190,4416,7,8
191,3,object_05,object_02,495.96,5,1,-1.0,0.0,1,object_03,1,2239,0,6,5,library_32,2,memory-2step-stake-s,679,3674914,0.0-18.0-0.1-0.191,4416,5,6
192,2,object_01,object_08,569.905,4,2,717.135,0.2222222222222222,2,object_04,5,2249,0,7,2,forest_7,2,memory-2step-stake-s,680,3683075,0.0-18.0-0.1-0.192,4416,3,4
193,1,object_09,object_10,656.03,1,2,960.62,0.8888888888888888,1,object_03,5,2289,0,8,4,desert_8,2,memory-2step-stake-s,681,3692118,0.0-18.0-0.1-0.193,4416,2,1
194,3,object_05,object_02,733.87,5,1,497.2,0.8888888888888888,1,object_03,1,2297,0,8,7,library_4,2,memory-2step-stake-s,682,3700693,0.0-18.0-0.1-0.194,4416,5,6
195,1,object_10,object_09,529.88,2,2,769.965,0.8888888888888888,2,object_04,1,2305,0,7,8,desert_8,2,memory-2step-stake-s,683,3709528,0.0-18.0-0.1-0.195,4416,1,2
196,4,object_07,object_06,761.585,7,1,800.515,0.6666666666666666,1,object_03,1,2311,0,6,5,restaurant_13,2,memory-2step-stake-s,684,3718193,0.0-18.0-0.1-0.196,4416,7,8
197,4,object_07,object_06,866.26,8,2,558.69,0.5555555555555556,2,object_04,1,2316,0,9,5,restaurant_2,2,memory-2step-stake-s,685,3726509,0.0-18.0-0.1-0.197,4416,7,8
198,2,object_08,object_01,684.245,4,1,495.98,0.6666666666666666,2,object_04,5,2346,0,9,6,forest_22,2,memory-2step-stake-s,686,3734867,0.0-18.0-0.1-0.198,4416,4,3
199,4,object_06,object_07,574.685,7,2,495.965,0.8888888888888888,1,object_03,1,2354,0,8,5,restaurant_13,2,memory-2step-stake-s,687,3743431,0.0-18.0-0.1-0.199,4416,8,7
200,4,object_07,object_06,519.11,7,1,761.21,1.0,1,object_03,1,2363,0,9,1,restaurant_3,2,memory-2step-stake-s,688,3752373,0.0-18.0-0.1-0.200,4416,7,8
201,2,object_01,object_08,869.445,3,1,651.75,0.7777777777777778,1,object_03,5,2398,0,7,1,forest_4,2,memory-2step-stake-s,689,3760992,0.0-18.0-0.1-0.201,4416,3,4
202,1,object_10,object_09,731.85,1,1,737.5,0.7777777777777778,1,object_03,5,2433,0,7,4,desert_6,2,memory-2step-stake-s,690,3769700,0.0-18.0-0.1-0.202,4416,1,2
203,1,object_10,object_09,640.545,1,1,637.595,0.5555555555555556,1,object_03,5,2458,0,5,2,desert_32,2,memory-2step-stake-s,691,3778097,0.0-18.0-0.1-0.203,4416,1,2
204,1,object_09,object_10,774.915,1,2,664.93,0.6666666666666666,1,object_03,5,2488,0,6,2,desert_18,2,memory-2step-stake-s,692,3786621,0.0-18.0-0.1-0.204,4416,2,1
205,4,object_07,object_06,724.295,7,1,685.055,0.6666666666666666,1,object_03,5,2518,0,6,2,restaurant_16,2,memory-2step-stake-s,693,3795166,0.0-18.0-0.1-0.205,4416,7,8
206,4,object_06,object_07,956.375,7,2,875.52,0.5555555555555556,1,object_03,1,2523,0,5,2,restaurant_26,2,memory-2step-stake-s,694,3803806,0.0-18.0-0.1-0.206,4416,8,7
207,2,object_08,object_01,1466.885,3,2,457.66,0.5555555555555556,1,object_03,5,2548,0,5,1,forest_21,2,memory-2step-stake-s,695,3812015,0.0-18.0-0.1-0.207,4416,4,3
208,1,object_10,object_09,877.605,1,1,640.99,0.3333333333333333,1,object_03,1,2551,0,3,2,desert_29,2,memory-2step-stake-s,696,3820198,0.0-18.0-0.1-0.208,4416,1,2
209,1,object_10,object_09,675.96,1,1,768.81,0.2222222222222222,1,object_03,5,2561,0,2,4,desert_5,2,memory-2step-stake-s,697,3828405,0.0-18.0-0.1-0.209,4416,1,2
210,2,object_01,object_08,906.835,3,1,709.825,0.3333333333333333,1,object_03,5,2576,0,3,5,forest_30,2,memory-2step-stake-s,698,3836662,0.0-18.0-0.1-0.210,4416,3,4
211,4,object_06,object_07,573.35,7,2,716.7,0.2222222222222222,1,object_03,1,2578,0,2,4,restaurant_15,2,memory-2step-stake-s,699,3844813,0.0-18.0-0.1-0.211,4416,8,7
212,2,object_01,object_08,765.105,3,1,522.21,0.3333333333333333,1,object_03,1,2581,0,3,3,forest_29,2,memory-2step-stake-s,700,3852881,0.0-18.0-0.1-0.212,4416,3,4
213,4,object_06,object_07,577.44,7,2,623.13,0.0,1,object_03,1,2581,0,0,5,restaurant_28,2,memory-2step-stake-s,701,3860735,0.0-18.0-0.1-0.213,4416,8,7
214,2,object_08,object_01,737.54,3,2,497.66,0.1111111111111111,1,object_03,5,2586,0,1,3,forest_22,2,memory-2step-stake-s,702,3868577,0.0-18.0-0.1-0.214,4416,4,3
215,3,object_05,object_02,736.715,5,1,612.88,0.2222222222222222,1,object_03,5,2596,0,2,1,library_2,2,memory-2step-stake-s,703,3876635,0.0-18.0-0.1-0.215,4416,5,6
216,2,object_01,object_08,723.94,4,2,1272.35,0.1111111111111111,2,object_04,5,2601,0,2,1,forest_26,2,memory-2step-stake-s,704,3885250,0.0-18.0-0.1-0.216,4416,3,4
217,4,object_07,object_06,540.465,7,1,568.1,0.0,1,object_03,1,2601,0,0,1,restaurant_28,2,memory-2step-stake-s,705,3893055,0.0-18.0-0.1-0.217,4416,7,8
218,3,object_02,object_05,782.875,5,2,586.865,0.0,1,object_03,1,2601,0,0,1,library_29,2,memory-2step-stake-s,706,3900887,0.0-18.0-0.1-0.218,4416,6,5
219,4,object_06,object_07,591.745,7,2,664.11,0.3333333333333333,1,object_03,1,2604,0,3,2,restaurant_26,2,memory-2step-stake-s,707,3909110,0.0-18.0-0.1-0.219,4416,8,7
220,1,object_10,object_09,659.505,1,1,631.015,0.3333333333333333,1,object_03,5,2619,0,3,1,desert_12,2,memory-2step-stake-s,708,3917291,0.0-18.0-0.1-0.220,4416,1,2
221,2,object_08,object_01,1308.42,3,2,650.73,0.5555555555555556,1,object_03,5,2644,0,5,3,forest_12,2,memory-2step-stake-s,709,3925689,0.0-18.0-0.1-0.221,4416,4,3
222,1,object_10,object_09,627.4,1,1,617.185,0.2222222222222222,1,object_03,5,2654,0,2,2,desert_28,2,memory-2step-stake-s,710,3933746,0.0-18.0-0.1-0.222,4416,1,2
223,2,object_01,object_08,1196.605,4,2,530.895,0.5555555555555556,2,object_04,5,2679,0,3,5,forest_20,2,memory-2step-stake-s,711,3942028,0.0-18.0-0.1-0.223,4416,3,4
224,2,object_01,object_08,-1.0,-1,-1,-1.0,0.0,-,,5,2679,0,4,6,forest_29,2,memory-2step-stake-s,712,3948549,0.0-18.0-0.1-0.224,4416,3,4
225,3,object_02,object_05,526.565,5,2,785.665,0.6666666666666666,1,object_03,1,2685,0,6,3,library_10,2,memory-2step-stake-s,713,3957209,0.0-18.0-0.1-0.225,4416,6,5
226,1,object_09,object_10,631.55,2,1,798.195,0.2222222222222222,2,object_04,5,2695,0,5,2,desert_1,2,memory-2step-stake-s,714,3965448,0.0-18.0-0.1-0.226,4416,2,1
227,1,object_10,object_09,663.225,1,1,774.17,0.4444444444444444,1,object_03,1,2699,0,4,2,desert_19,2,memory-2step-stake-s,715,3973881,0.0-18.0-0.1-0.227,4416,1,2
228,4,object_07,object_06,721.675,7,1,677.355,0.5555555555555556,1,object_03,1,2704,0,5,3,restaurant_2,2,memory-2step-stake-s,716,3982317,0.0-18.0-0.1-0.228,4416,7,8
229,2,object_08,object_01,771.835,3,2,698.885,0.6666666666666666,1,object_03,5,2734,0,6,1,forest_27,2,memory-2step-stake-s,717,3990863,0.0-18.0-0.1-0.229,4416,4,3
230,2,object_08,object_01,961.78,4,1,549.755,0.0,2,object_04,5,2734,0,7,0,forest_9,2,memory-2step-stake-s,718,3998652,0.0-18.0-0.1-0.230,4416,4,3
231,2,object_08,object_01,654.005,4,1,-1.0,0.0,2,object_04,5,2734,0,8,0,forest_6,2,memory-2step-stake-s,719,4007184,0.0-18.0-0.1-0.231,4416,4,3
232,4,object_06,object_07,631.24,7,2,496.49,0.7777777777777778,1,object_03,1,2741,0,7,3,restaurant_28,2,memory-2step-stake-s,720,4015654,0.0-18.0-0.1-0.232,4416,8,7
233,4,object_06,object_07,911.655,7,2,494.74,0.8888888888888888,1,object_03,1,2749,0,8,0,restaurant_19,2,memory-2step-stake-s,721,4024221,0.0-18.0-0.1-0.233,4416,8,7
234,4,object_06,object_07,728.78,7,2,827.555,0.6666666666666666,1,object_03,1,2755,0,6,2,restaurant_5,2,memory-2step-stake-s,722,4032904,0.0-18.0-0.1-0.234,4416,8,7
235,4,object_07,object_06,492.8,7,1,724.25,0.7777777777777778,1,object_03,5,2790,0,7,0,restaurant_24,2,memory-2step-stake-s,723,4041580,0.0-18.0-0.1-0.235,4416,7,8
236,1,object_09,object_10,599.205,1,2,612.0,0.7777777777777778,1,object_03,5,2825,0,7,3,desert_3,2,memory-2step-stake-s,724,4050157,0.0-18.0-0.1-0.236,4416,2,1
237,2,object_08,object_01,894.765,4,1,581.32,0.1111111111111111,2,object_04,5,2830,0,4,1,forest_27,2,memory-2step-stake-s,725,4058084,0.0-18.0-0.1-0.237,4416,4,3
238,2,object_01,object_08,549.41,4,2,562.885,0.1111111111111111,2,object_04,1,2831,0,3,1,forest_30,2,memory-2step-stake-s,726,4065985,0.0-18.0-0.1-0.238,4416,3,4
239,3,object_05,object_02,749.765,5,1,607.83,0.4444444444444444,1,object_03,1,2835,0,4,4,library_20,2,memory-2step-stake-s,727,4074239,0.0-18.0-0.1-0.239,4416,5,6
240,4,object_06,object_07,530.385,7,2,526.995,0.4444444444444444,1,object_03,1,2839,0,4,4,restaurant_18,2,memory-2step-stake-s,728,4082418,0.0-18.0-0.1-0.240,4416,8,7
241,3,object_02,object_05,824.49,5,2,676.47,0.3333333333333333,1,object_03,5,2854,0,3,3,library_7,2,memory-2step-stake-s,729,4090638,0.0-18.0-0.1-0.241,4416,6,5
242,3,object_02,object_05,695.005,5,2,575.99,0.0,1,object_03,1,2854,0,0,4,library_4,2,memory-2step-stake-s,730,4098453,0.0-18.0-0.1-0.242,4416,6,5
243,3,object_05,object_02,-1.0,-1,-1,-1.0,0.0,-,,1,2854,0,1,4,library_2,2,memory-2step-stake-s,731,4104979,0.0-18.0-0.1-0.243,4416,5,6
244,1,object_10,object_09,561.995,1,1,563.585,0.1111111111111111,1,object_03,1,2855,0,1,7,desert_28,2,memory-2step-stake-s,732,4112882,0.0-18.0-0.1-0.244,4416,1,2
245,2,object_08,object_01,-1.0,-1,-1,-1.0,0.0,-,,5,2855,0,1,2,forest_7,2,memory-2step-stake-s,733,4119410,0.0-18.0-0.1-0.245,4416,4,3
246,1,object_09,object_10,737.23,1,2,601.125,0.2222222222222222,1,object_03,5,2865,0,2,4,desert_13,2,memory-2step-stake-s,734,4127453,0.0-18.0-0.1-0.246,4416,2,1
247,3,object_02,object_05,687.825,5,2,1367.985,0.2222222222222222,1,object_03,1,2867,0,2,1,library_15,2,memory-2step-stake-s,735,4136279,0.0-18.0-0.1-0.247,4416,6,5
248,2,object_08,object_01,690.395,4,1,540.84,0.0,2,object_04,5,2867,0,5,0,forest_9,2,memory-2step-stake-s,736,4144056,0.0-18.0-0.1-0.248,4416,4,3
249,3,object_05,object_02,762.82,5,1,595.345,0.7777777777777778,1,object_03,1,2874,0,7,2,library_20,2,memory-2step-stake-s,737,4152618,0.0-18.0-0.1-0.249,4416,5,6
250,4,object_06,object_07,681.16,7,2,570.83,0.8888888888888888,1,object_03,1,2882,0,8,4,restaurant_18,2,memory-2step-stake-s,738,4161265,0.0-18.0-0.1-0.250,4416,8,7
251,1,object_09,object_10,842.875,1,2,1183.92,0.7777777777777778,1,object_03,5,2917,0,7,4,desert_18,2,memory-2step-stake-s,739,4170412,0.0-18.0-0.1-0.251,4416,2,1
252,3,object_02,object_05,663.445,5,2,566.21,0.7777777777777778,1,object_03,1,2924,0,7,7,library_7,2,memory-2step-stake-s,740,4178941,0.0-18.0-0.1-0.252,4416,6,5
253,3,object_02,object_05,701.27,5,2,996.615,1.0,1,object_03,1,2933,0,9,7,library_11,2,memory-2step-stake-s,741,4188114,0.0-18.0-0.1-0.253,4416,6,5
254,4,object_06,object_07,838.225,7,2,763.02,0.8888888888888888,1,object_03,1,2941,0,8,7,restaurant_19,2,memory-2step-stake-s,742,4196958,0.0-18.0-0.1-0.254,4416,8,7
255,2,object_01,object_08,1441.565,3,1,615.815,0.6666666666666666,1,object_03,1,2947,0,6,8,forest_29,2,memory-2step-stake-s,743,4205431,0.0-18.0-0.1-0.255,4416,3,4
