,state1,stim_left,stim_right,rt_1,choice1,response1,rt_2,points,state2,stim_state2,stake,score,practice,rews1,rews2,background,high_arm,trial_type,trial_index,time_elapsed,internal_node_id,subid,stim_left_num,stim_right_num
0,1,object_02,object_05,-1.0,-1,-1,-1.0,0.0,-,,5,0,0,2,4,desert_29,2,memory-2step-stake-s,495,1175280,0.0-18.0-0.0-0.0,4460,1,2
1,3,object_01,object_10,603.815,6,1,1298.93,0.3333333333333333,2,object_06,1,3,0,1,3,library_11,2,memory-2step-stake-s,496,1184215,0.0-18.0-0.0-0.1,4460,6,5
2,3,object_01,object_10,787.625,5,2,823.365,0.3333333333333333,1,object_04,1,6,0,3,5,library_2,2,memory-2step-stake-s,497,1192646,0.0-18.0-0.0-0.2,4460,6,5
3,4,object_03,object_08,671.73,8,1,863.075,0.5555555555555556,2,object_06,1,11,0,3,5,restaurant_4,2,memory-2step-stake-s,498,1201296,0.0-18.0-0.0-0.3,4460,8,7
4,3,object_10,object_01,962.79,5,1,644.025,0.4444444444444444,1,object_04,1,15,0,4,4,library_22,2,memory-2step-stake-s,499,1209648,0.0-18.0-0.0-0.4,4460,5,6
5,2,object_07,object_09,771.42,3,2,852.455,0.5555555555555556,1,object_04,1,20,0,5,8,forest_25,2,memory-2step-stake-s,500,1218330,0.0-18.0-0.0-0.5,4460,4,3
6,2,object_07,object_09,677.925,4,1,678.765,0.8888888888888888,2,object_06,5,60,0,6,8,forest_22,2,memory-2step-stake-s,501,1227181,0.0-18.0-0.0-0.6,4460,4,3
7,4,object_03,object_08,1070.7,7,2,592.85,0.6666666666666666,1,object_04,5,90,0,6,8,restaurant_8,2,memory-2step-stake-s,502,1235717,0.0-18.0-0.0-0.7,4460,8,7
8,3,object_10,object_01,732.61,5,1,462.055,0.4444444444444444,1,object_04,1,94,0,4,8,library_6,2,memory-2step-stake-s,503,1243906,0.0-18.0-0.0-0.8,4460,5,6
9,2,object_07,object_09,1028.525,4,1,666.895,0.6666666666666666,2,object_06,5,124,0,5,6,forest_23,2,memory-2step-stake-s,504,1252493,0.0-18.0-0.0-0.9,4460,4,3
10,2,object_09,object_07,1378.475,4,2,604.49,0.5555555555555556,2,object_06,1,129,0,5,5,forest_18,2,memory-2step-stake-s,505,1260897,0.0-18.0-0.0-0.10,4460,3,4
11,2,object_07,object_09,1312.01,3,2,730.27,0.7777777777777778,1,object_04,5,164,0,7,6,forest_27,2,memory-2step-stake-s,506,1269661,0.0-18.0-0.0-0.11,4460,4,3
12,1,object_02,object_05,986.16,1,1,795.595,0.7777777777777778,1,object_04,5,199,0,7,3,desert_6,2,memory-2step-stake-s,507,1278473,0.0-18.0-0.0-0.12,4460,1,2
13,1,object_02,object_05,897.96,1,1,536.115,0.6666666666666666,1,object_04,1,205,0,6,0,desert_16,2,memory-2step-stake-s,508,1286950,0.0-18.0-0.0-0.13,4460,1,2
14,4,object_03,object_08,1118.175,8,1,715.24,0.2222222222222222,2,object_06,1,207,0,5,2,restaurant_19,2,memory-2step-stake-s,509,1295157,0.0-18.0-0.0-0.14,4460,8,7
15,2,object_07,object_09,680.2,3,2,614.005,0.4444444444444444,1,object_04,5,227,0,4,3,forest_8,2,memory-2step-stake-s,510,1303468,0.0-18.0-0.0-0.15,4460,4,3
16,4,object_08,object_03,977.49,7,1,732.735,0.4444444444444444,1,object_04,1,231,0,4,9,restaurant_32,2,memory-2step-stake-s,511,1311891,0.0-18.0-0.0-0.16,4460,7,8
17,4,object_08,object_03,938.895,8,2,808.69,1.0,2,object_06,5,276,0,4,9,restaurant_8,2,memory-2step-stake-s,512,1320987,0.0-18.0-0.0-0.17,4460,7,8
18,2,object_07,object_09,-1.0,-1,-1,-1.0,0.0,-,,5,276,0,5,7,forest_1,2,memory-2step-stake-s,513,1327541,0.0-18.0-0.0-0.18,4460,4,3
19,3,object_01,object_10,853.14,6,1,591.39,0.4444444444444444,2,object_06,1,280,0,8,4,library_9,2,memory-2step-stake-s,514,1335857,0.0-18.0-0.0-0.19,4460,6,5
20,1,object_05,object_02,556.49,1,2,753.755,1.0,1,object_04,5,325,0,9,2,desert_5,2,memory-2step-stake-s,515,1344890,0.0-18.0-0.0-0.20,4460,2,1
21,3,object_01,object_10,693.22,6,1,794.56,0.3333333333333333,2,object_06,1,328,0,9,3,library_22,2,memory-2step-stake-s,516,1353291,0.0-18.0-0.0-0.21,4460,6,5
22,1,object_02,object_05,919.215,2,2,755.565,0.1111111111111111,2,object_06,1,329,0,8,1,desert_31,2,memory-2step-stake-s,517,1361432,0.0-18.0-0.0-0.22,4460,1,2
23,2,object_09,object_07,922.66,3,1,602.815,0.6666666666666666,1,object_04,5,359,0,6,1,forest_22,2,memory-2step-stake-s,518,1370001,0.0-18.0-0.0-0.23,4460,3,4
24,3,object_10,object_01,997.95,6,2,484.275,0.3333333333333333,2,object_06,1,362,0,6,3,library_7,2,memory-2step-stake-s,519,1378107,0.0-18.0-0.0-0.24,4460,5,6
25,4,object_08,object_03,1017.12,7,1,775.15,1.0,1,object_04,1,371,0,9,3,restaurant_12,2,memory-2step-stake-s,520,1387126,0.0-18.0-0.0-0.25,4460,7,8
26,1,object_05,object_02,880.22,1,2,575.51,1.0,1,object_04,5,416,0,9,3,desert_6,2,memory-2step-stake-s,521,1395965,0.0-18.0-0.0-0.26,4460,2,1
27,1,object_05,object_02,1447.69,2,1,695.22,0.3333333333333333,2,object_06,5,431,0,6,3,desert_31,2,memory-2step-stake-s,522,1404257,0.0-18.0-0.0-0.27,4460,2,1
28,1,object_02,object_05,812.46,2,2,627.215,0.1111111111111111,2,object_06,5,436,0,7,1,desert_19,2,memory-2step-stake-s,523,1412272,0.0-18.0-0.0-0.28,4460,1,2
29,4,object_08,object_03,1306.27,7,1,559.66,0.8888888888888888,1,object_04,5,476,0,8,2,restaurant_6,2,memory-2step-stake-s,524,1421010,0.0-18.0-0.0-0.29,4460,7,8
30,4,object_03,object_08,768.15,7,2,821.845,0.5555555555555556,1,object_04,1,481,0,5,1,restaurant_5,2,memory-2step-stake-s,525,1429659,0.0-18.0-0.0-0.30,4460,8,7
31,1,object_05,object_02,1374.985,1,2,459.665,0.4444444444444444,1,object_04,5,501,0,4,3,desert_12,2,memory-2step-stake-s,526,1437868,0.0-18.0-0.0-0.31,4460,2,1
32,4,object_03,object_08,865.055,8,1,643.86,0.3333333333333333,2,object_06,1,504,0,6,3,restaurant_21,2,memory-2step-stake-s,527,1446099,0.0-18.0-0.0-0.32,4460,8,7
33,2,object_09,object_07,1264.635,3,1,729.21,0.5555555555555556,1,object_04,5,529,0,5,0,forest_18,2,memory-2step-stake-s,528,1454665,0.0-18.0-0.0-0.33,4460,3,4
34,1,object_02,object_05,-1.0,-1,-1,-1.0,0.0,-,,5,529,0,6,0,desert_30,2,memory-2step-stake-s,529,1461232,0.0-18.0-0.0-0.34,4460,1,2
35,4,object_03,object_08,1368.05,8,1,805.15,0.0,2,object_06,5,529,0,6,0,restaurant_5,2,memory-2step-stake-s,530,1469322,0.0-18.0-0.0-0.35,4460,8,7
36,3,object_10,object_01,857.435,6,2,552.12,0.0,2,object_06,1,529,0,6,0,library_12,2,memory-2step-stake-s,531,1477167,0.0-18.0-0.0-0.36,4460,5,6
37,2,object_07,object_09,1244.345,3,2,673.685,0.5555555555555556,1,object_04,5,554,0,5,1,forest_1,2,memory-2step-stake-s,532,1485672,0.0-18.0-0.0-0.37,4460,4,3
38,4,object_08,object_03,924.28,8,2,684.365,0.3333333333333333,2,object_06,5,569,0,7,3,restaurant_6,2,memory-2step-stake-s,533,1493958,0.0-18.0-0.0-0.38,4460,7,8
39,1,object_05,object_02,1047.89,2,1,733.365,0.4444444444444444,2,object_06,5,589,0,8,4,desert_9,2,memory-2step-stake-s,534,1502396,0.0-18.0-0.0-0.39,4460,2,1
40,2,object_07,object_09,1351.365,4,1,627.835,0.2222222222222222,2,object_06,5,599,0,9,2,forest_4,2,memory-2step-stake-s,535,1510506,0.0-18.0-0.0-0.40,4460,4,3
41,3,object_01,object_10,1068.02,6,1,694.565,0.1111111111111111,2,object_06,1,600,0,7,1,library_16,2,memory-2step-stake-s,536,1518592,0.0-18.0-0.0-0.41,4460,6,5
42,2,object_07,object_09,955.815,4,1,754.125,0.2222222222222222,2,object_06,5,610,0,8,2,forest_9,2,memory-2step-stake-s,537,1526826,0.0-18.0-0.0-0.42,4460,4,3
43,1,object_05,object_02,1105.48,2,1,466.465,0.1111111111111111,2,object_06,5,615,0,8,1,desert_9,2,memory-2step-stake-s,538,1534674,0.0-18.0-0.0-0.43,4460,2,1
44,2,object_07,object_09,1003.75,3,2,770.095,1.0,1,object_04,5,660,0,9,3,forest_23,2,memory-2step-stake-s,539,1543713,0.0-18.0-0.0-0.44,4460,4,3
45,1,object_05,object_02,846.3,1,2,728.59,0.8888888888888888,1,object_04,5,700,0,8,7,desert_29,2,memory-2step-stake-s,540,1552588,0.0-18.0-0.0-0.45,4460,2,1
46,3,object_10,object_01,589.545,5,1,723.09,0.7777777777777778,1,object_04,1,707,0,7,6,library_16,2,memory-2step-stake-s,541,1561318,0.0-18.0-0.0-0.46,4460,5,6
47,1,object_02,object_05,1242.12,2,2,793.325,0.4444444444444444,2,object_06,5,727,0,8,4,desert_15,2,memory-2step-stake-s,542,1569833,0.0-18.0-0.0-0.47,4460,1,2
48,2,object_09,object_07,1307.035,3,1,629.285,0.5555555555555556,1,object_04,5,752,0,5,5,forest_18,2,memory-2step-stake-s,543,1578299,0.0-18.0-0.0-0.48,4460,3,4
49,4,object_03,object_08,1201.61,7,2,735.355,0.3333333333333333,1,object_04,1,755,0,3,5,restaurant_5,2,memory-2step-stake-s,544,1586628,0.0-18.0-0.0-0.49,4460,8,7
50,1,object_05,object_02,1059.685,2,1,1155.08,0.5555555555555556,2,object_06,1,760,0,3,5,desert_19,2,memory-2step-stake-s,545,1595599,0.0-18.0-0.0-0.50,4460,2,1
51,3,object_10,object_01,1058.685,6,2,753.855,0.3333333333333333,2,object_06,5,775,0,4,3,library_2,2,memory-2step-stake-s,546,1603950,0.0-18.0-0.0-0.51,4460,5,6
52,2,object_07,object_09,1045.545,3,2,590.635,0.6666666666666666,1,object_04,5,805,0,6,5,forest_9,2,memory-2step-stake-s,547,1612460,0.0-18.0-0.0-0.52,4460,4,3
53,2,object_07,object_09,656.88,4,1,515.965,0.7777777777777778,2,object_06,5,840,0,5,7,forest_4,2,memory-2step-stake-s,548,1621051,0.0-18.0-0.0-0.53,4460,4,3
54,3,object_10,object_01,1208.12,5,1,630.41,0.6666666666666666,1,object_04,1,846,0,6,5,library_1,2,memory-2step-stake-s,549,1629613,0.0-18.0-0.0-0.54,4460,5,6
55,2,object_07,object_09,1064.83,3,2,996.425,0.3333333333333333,1,object_04,1,849,0,3,8,forest_25,2,memory-2step-stake-s,550,1638211,0.0-18.0-0.0-0.55,4460,4,3
56,3,object_10,object_01,782.885,5,1,550.915,1.0,1,object_04,1,858,0,9,8,library_18,2,memory-2step-stake-s,551,1647035,0.0-18.0-0.0-0.56,4460,5,6
57,2,object_09,object_07,571.32,4,2,915.08,0.8888888888888888,2,object_06,5,898,0,8,8,forest_1,2,memory-2step-stake-s,552,1656139,0.0-18.0-0.0-0.57,4460,3,4
58,2,object_07,object_09,718.42,4,1,707.99,1.0,2,object_06,5,943,0,9,9,forest_17,2,memory-2step-stake-s,553,1665184,0.0-18.0-0.0-0.58,4460,4,3
59,4,object_08,object_03,907.775,8,2,671.36,0.4444444444444444,2,object_06,1,947,0,7,4,restaurant_9,2,memory-2step-stake-s,554,1673588,0.0-18.0-0.0-0.59,4460,7,8
60,4,object_08,object_03,929.62,8,2,500.86,0.4444444444444444,2,object_06,5,967,0,7,4,restaurant_18,2,memory-2step-stake-s,555,1681781,0.0-18.0-0.0-0.60,4460,7,8
61,4,object_03,object_08,717.83,8,1,532.005,0.5555555555555556,2,object_06,1,972,0,8,5,restaurant_10,2,memory-2step-stake-s,556,1690148,0.0-18.0-0.0-0.61,4460,8,7
62,3,object_10,object_01,845.41,6,2,776.725,0.3333333333333333,2,object_06,1,975,0,7,3,library_24,2,memory-2step-stake-s,557,1698522,0.0-18.0-0.0-0.62,4460,5,6
63,2,object_09,object_07,907.395,3,1,904.055,0.8888888888888888,1,object_04,5,1015,0,8,1,forest_4,2,memory-2step-stake-s,558,1707553,0.0-18.0-0.0-0.63,4460,3,4
64,3,object_01,object_10,1327.405,5,2,761.04,0.8888888888888888,1,object_04,1,1023,0,8,4,library_16,2,memory-2step-stake-s,559,1716496,0.0-18.0-0.0-0.64,4460,6,5
65,4,object_03,object_08,1068.415,8,1,625.575,0.2222222222222222,2,object_06,1,1025,0,6,2,restaurant_1,2,memory-2step-stake-s,560,1724623,0.0-18.0-0.0-0.65,4460,8,7
66,1,object_02,object_05,1122.1,2,2,800.015,0.5555555555555556,2,object_06,1,1030,0,4,5,desert_8,2,memory-2step-stake-s,561,1733270,0.0-18.0-0.0-0.66,4460,1,2
67,1,object_02,object_05,1490.65,1,1,439.19,0.5555555555555556,1,object_04,5,1055,0,5,5,desert_26,2,memory-2step-stake-s,562,1741540,0.0-18.0-0.0-0.67,4460,1,2
68,2,object_07,object_09,1211.51,4,1,739.785,0.7777777777777778,2,object_06,5,1090,0,5,7,forest_11,2,memory-2step-stake-s,563,1750327,0.0-18.0-0.0-0.68,4460,4,3
69,2,object_07,object_09,723.285,3,2,391.555,0.5555555555555556,1,object_04,1,1095,0,5,8,forest_9,2,memory-2step-stake-s,564,1758528,0.0-18.0-0.0-0.69,4460,4,3
70,4,object_03,object_08,611.295,8,1,-1.0,0.0,2,object_06,1,1095,0,9,7,restaurant_31,2,memory-2step-stake-s,565,1767098,0.0-18.0-0.0-0.70,4460,8,7
71,3,object_10,object_01,-1.0,-1,-1,-1.0,0.0,-,,1,1095,0,7,8,library_15,2,memory-2step-stake-s,566,1773674,0.0-18.0-0.0-0.71,4460,5,6
72,2,object_09,object_07,528.175,3,1,812.3,0.8888888888888888,1,object_04,5,1135,0,8,6,forest_8,2,memory-2step-stake-s,567,1782677,0.0-18.0-0.0-0.72,4460,3,4
73,1,object_05,object_02,645.775,1,2,640.695,1.0,1,object_04,5,1180,0,9,2,desert_18,2,memory-2step-stake-s,568,1791607,0.0-18.0-0.0-0.73,4460,2,1
74,4,object_08,object_03,867.94,7,1,446.89,1.0,1,object_04,1,1189,0,9,3,restaurant_30,2,memory-2step-stake-s,569,1800303,0.0-18.0-0.0-0.74,4460,7,8
75,2,object_09,object_07,748.59,4,2,844.995,0.2222222222222222,2,object_06,5,1199,0,8,2,forest_18,2,memory-2step-stake-s,570,1808634,0.0-18.0-0.0-0.75,4460,3,4
76,1,object_02,object_05,578.045,1,1,632.545,0.7777777777777778,1,object_04,5,1234,0,7,1,desert_15,2,memory-2step-stake-s,571,1817333,0.0-18.0-0.0-0.76,4460,1,2
77,4,object_03,object_08,958.795,7,2,1177.01,0.8888888888888888,1,object_04,1,1242,0,8,1,restaurant_30,2,memory-2step-stake-s,572,1826652,0.0-18.0-0.0-0.77,4460,8,7
78,3,object_10,object_01,979.36,5,1,945.53,1.0,1,object_04,1,1251,0,9,5,library_21,2,memory-2step-stake-s,573,1835919,0.0-18.0-0.0-0.78,4460,5,6
79,3,object_10,object_01,732.145,6,2,835.29,0.6666666666666666,2,object_06,5,1281,0,7,6,library_1,2,memory-2step-stake-s,574,1844684,0.0-18.0-0.0-0.79,4460,5,6
80,1,object_05,object_02,788.52,2,1,472.14,0.6666666666666666,2,object_06,5,1311,0,7,6,desert_29,2,memory-2step-stake-s,575,1853094,0.0-18.0-0.0-0.80,4460,2,1
81,4,object_03,object_08,1214.105,7,2,1134.13,0.7777777777777778,1,object_04,1,1318,0,7,6,restaurant_7,2,memory-2step-stake-s,576,1862286,0.0-18.0-0.0-0.81,4460,8,7
82,1,object_02,object_05,463.23,1,1,647.965,0.5555555555555556,1,object_04,5,1343,0,5,5,desert_8,2,memory-2step-stake-s,577,1870747,0.0-18.0-0.0-0.82,4460,1,2
83,1,object_05,object_02,541.59,1,2,652.38,0.4444444444444444,1,object_04,5,1363,0,4,7,desert_7,2,memory-2step-stake-s,578,1879102,0.0-18.0-0.0-0.83,4460,2,1
84,2,object_09,object_07,773.975,3,1,1283.155,0.1111111111111111,1,object_04,5,1368,0,1,6,forest_17,2,memory-2step-stake-s,579,1887786,0.0-18.0-0.0-0.84,4460,3,4
85,4,object_03,object_08,914.16,8,1,667.3,0.8888888888888888,2,object_06,1,1376,0,2,8,restaurant_19,2,memory-2step-stake-s,580,1896607,0.0-18.0-0.0-0.85,4460,8,7
86,4,object_03,object_08,1248.415,7,2,492.155,0.1111111111111111,1,object_04,1,1377,0,1,9,restaurant_19,2,memory-2step-stake-s,581,1904507,0.0-18.0-0.0-0.86,4460,8,7
87,3,object_01,object_10,990.145,6,1,-1.0,0.0,2,object_06,1,1377,0,2,7,library_9,2,memory-2step-stake-s,582,1913065,0.0-18.0-0.0-0.87,4460,6,5
88,2,object_07,object_09,530.405,3,2,687.3,0.1111111111111111,1,object_04,1,1378,0,1,8,forest_23,2,memory-2step-stake-s,583,1921155,0.0-18.0-0.0-0.88,4460,4,3
89,3,object_10,object_01,617.105,6,2,536.91,0.8888888888888888,2,object_06,5,1418,0,2,8,library_24,2,memory-2step-stake-s,584,1929840,0.0-18.0-0.0-0.89,4460,5,6
90,3,object_01,object_10,676.52,6,1,525.965,0.8888888888888888,2,object_06,1,1426,0,0,8,library_5,2,memory-2step-stake-s,585,1938575,0.0-18.0-0.0-0.90,4460,6,5
91,4,object_03,object_08,533.455,7,2,533.055,0.0,1,object_04,1,1426,0,0,6,restaurant_4,2,memory-2step-stake-s,586,1946373,0.0-18.0-0.0-0.91,4460,8,7
92,3,object_01,object_10,1034.155,5,2,821.185,0.2222222222222222,1,object_04,1,1428,0,2,5,library_15,2,memory-2step-stake-s,587,1954673,0.0-18.0-0.0-0.92,4460,6,5
93,1,object_02,object_05,695.8,1,1,694.155,0.2222222222222222,1,object_04,5,1438,0,2,7,desert_15,2,memory-2step-stake-s,588,1962886,0.0-18.0-0.0-0.93,4460,1,2
94,1,object_02,object_05,909.64,1,1,425.555,0.6666666666666666,1,object_04,1,1444,0,6,2,desert_5,2,memory-2step-stake-s,589,1971250,0.0-18.0-0.0-0.94,4460,1,2
95,4,object_03,object_08,979.295,8,1,598.605,0.5555555555555556,2,object_06,1,1449,0,6,5,restaurant_9,2,memory-2step-stake-s,590,1979657,0.0-18.0-0.0-0.95,4460,8,7
96,3,object_01,object_10,554.715,5,2,674.755,0.8888888888888888,1,object_04,1,1457,0,8,6,library_18,2,memory-2step-stake-s,591,1988465,0.0-18.0-0.0-0.96,4460,6,5
97,4,object_03,object_08,805.64,8,1,684.86,0.8888888888888888,2,object_06,1,1465,0,5,8,restaurant_23,2,memory-2step-stake-s,592,1997297,0.0-18.0-0.0-0.97,4460,8,7
98,4,object_08,object_03,522.16,7,1,480.395,0.6666666666666666,1,object_04,1,1471,0,6,5,restaurant_19,2,memory-2step-stake-s,593,2005692,0.0-18.0-0.0-0.98,4460,7,8
99,4,object_03,object_08,1147.365,7,2,820.305,0.6666666666666666,1,object_04,1,1477,0,6,2,restaurant_23,2,memory-2step-stake-s,594,2014438,0.0-18.0-0.0-0.99,4460,8,7
100,3,object_10,object_01,794.77,5,1,409.16,0.5555555555555556,1,object_04,1,1482,0,5,3,library_4,2,memory-2step-stake-s,595,2022680,0.0-18.0-0.0-0.100,4460,5,6
101,2,object_09,object_07,802.385,3,1,678.965,0.5555555555555556,1,object_04,5,1507,0,5,3,forest_17,2,memory-2step-stake-s,596,2031195,0.0-18.0-0.0-0.101,4460,3,4
102,4,object_08,object_03,1073.815,7,1,650.815,1.0,1,object_04,1,1516,0,9,2,restaurant_9,2,memory-2step-stake-s,597,2040141,0.0-18.0-0.0-0.102,4460,7,8
103,2,object_09,object_07,455.055,4,2,407.61,0.3333333333333333,2,object_06,5,1531,0,8,3,forest_25,2,memory-2step-stake-s,598,2048153,0.0-18.0-0.0-0.103,4460,3,4
104,2,object_09,object_07,828.58,4,2,456.03,0.1111111111111111,2,object_06,5,1536,0,8,1,forest_31,2,memory-2step-stake-s,599,2055985,0.0-18.0-0.0-0.104,4460,3,4
105,4,object_03,object_08,698.3,8,1,491.105,0.5555555555555556,2,object_06,1,1541,0,8,5,restaurant_21,2,memory-2step-stake-s,600,2064339,0.0-18.0-0.0-0.105,4460,8,7
106,1,object_05,object_02,457.41,1,2,434.735,0.4444444444444444,1,object_04,5,1561,0,4,7,desert_17,2,memory-2step-stake-s,601,2072483,0.0-18.0-0.0-0.106,4460,2,1
107,2,object_09,object_07,467.72,3,1,424.525,0.5555555555555556,1,object_04,5,1586,0,5,7,forest_24,2,memory-2step-stake-s,602,2080747,0.0-18.0-0.0-0.107,4460,3,4
108,1,object_02,object_05,998.29,2,2,506.025,0.6666666666666666,2,object_06,5,1616,0,5,6,desert_9,2,memory-2step-stake-s,603,2089164,0.0-18.0-0.0-0.108,4460,1,2
109,4,object_08,object_03,744.595,8,2,588.675,0.1111111111111111,2,object_06,1,1617,0,7,1,restaurant_1,2,memory-2step-stake-s,604,2097147,0.0-18.0-0.0-0.109,4460,7,8
110,4,object_03,object_08,838.425,8,1,759.61,0.1111111111111111,2,object_06,5,1622,0,8,1,restaurant_12,2,memory-2step-stake-s,605,2105301,0.0-18.0-0.0-0.110,4460,8,7
111,4,object_08,object_03,1234.685,7,1,591.505,0.7777777777777778,1,object_04,1,1629,0,7,3,restaurant_18,2,memory-2step-stake-s,606,2113906,0.0-18.0-0.0-0.111,4460,7,8
112,2,object_07,object_09,1034.115,3,2,742.43,1.0,1,object_04,1,1638,0,9,6,forest_4,2,memory-2step-stake-s,607,2122910,0.0-18.0-0.0-0.112,4460,4,3
113,4,object_03,object_08,1192.845,8,1,427.68,0.6666666666666666,2,object_06,1,1644,0,8,6,restaurant_9,2,memory-2step-stake-s,608,2131252,0.0-18.0-0.0-0.113,4460,8,7
114,3,object_10,object_01,1131.185,6,2,510.345,0.7777777777777778,2,object_06,5,1679,0,8,7,library_9,2,memory-2step-stake-s,609,2139766,0.0-18.0-0.0-0.114,4460,5,6
115,1,object_05,object_02,751.19,2,1,459.22,0.8888888888888888,2,object_06,5,1719,0,7,8,desert_18,2,memory-2step-stake-s,610,2148392,0.0-18.0-0.0-0.115,4460,2,1
116,2,object_09,object_07,1311.52,3,1,445.62,0.6666666666666666,1,object_04,5,1749,0,6,8,forest_25,2,memory-2step-stake-s,611,2156796,0.0-18.0-0.0-0.116,4460,3,4
117,1,object_02,object_05,752.28,2,2,562.78,0.8888888888888888,2,object_06,5,1789,0,8,8,desert_29,2,memory-2step-stake-s,612,2165533,0.0-18.0-0.0-0.117,4460,1,2
118,3,object_01,object_10,702.77,6,1,537.58,0.8888888888888888,2,object_06,1,1797,0,6,8,library_6,2,memory-2step-stake-s,613,2174262,0.0-18.0-0.0-0.118,4460,6,5
119,2,object_09,object_07,490.415,4,2,521.095,0.6666666666666666,2,object_06,5,1827,0,6,6,forest_11,2,memory-2step-stake-s,614,2182752,0.0-18.0-0.0-0.119,4460,3,4
120,2,object_09,object_07,1082.71,3,1,545.515,0.4444444444444444,1,object_04,5,1847,0,4,9,forest_31,2,memory-2step-stake-s,615,2190995,0.0-18.0-0.0-0.120,4460,3,4
121,3,object_10,object_01,426.66,6,2,382.85,1.0,2,object_06,1,1856,0,5,9,library_18,2,memory-2step-stake-s,616,2199662,0.0-18.0-0.0-0.121,4460,5,6
122,2,object_07,object_09,710.815,4,1,1015.535,0.7777777777777778,2,object_06,1,1863,0,3,7,forest_8,2,memory-2step-stake-s,617,2208734,0.0-18.0-0.0-0.122,4460,4,3
123,3,object_01,object_10,1107.0,6,1,851.56,0.7777777777777778,2,object_06,1,1870,0,1,7,library_7,2,memory-2step-stake-s,618,2217600,0.0-18.0-0.0-0.123,4460,6,5
124,4,object_08,object_03,874.195,8,2,565.17,0.8888888888888888,2,object_06,1,1878,0,2,8,restaurant_4,2,memory-2step-stake-s,619,2226347,0.0-18.0-0.0-0.124,4460,7,8
125,3,object_01,object_10,1416.855,6,1,745.985,0.8888888888888888,2,object_06,1,1886,0,3,8,library_7,2,memory-2step-stake-s,620,2235263,0.0-18.0-0.0-0.125,4460,6,5
126,4,object_08,object_03,1091.8,7,1,527.9,0.3333333333333333,1,object_04,1,1889,0,3,8,restaurant_7,2,memory-2step-stake-s,621,2243392,0.0-18.0-0.0-0.126,4460,7,8
127,3,object_10,object_01,907.95,5,1,565.355,0.1111111111111111,1,object_04,1,1890,0,1,8,library_7,2,memory-2step-stake-s,622,2251345,0.0-18.0-0.0-0.127,4460,5,6
128,1,object_02,object_05,688.36,2,2,483.65,0.8888888888888888,2,object_06,5,1930,0,0,8,desert_17,2,memory-2step-stake-s,624,2408946,0.0-18.0-0.1-0.128,4460,1,2
129,3,object_10,object_01,911.425,6,2,929.49,1.0,2,object_06,1,1939,0,1,9,library_24,2,memory-2step-stake-s,625,2418157,0.0-18.0-0.1-0.129,4460,5,6
130,1,object_02,object_05,982.28,1,1,566.99,0.0,1,object_04,5,1939,0,0,7,desert_19,2,memory-2step-stake-s,626,2425998,0.0-18.0-0.1-0.130,4460,1,2
131,4,object_03,object_08,1032.67,8,1,1358.76,0.8888888888888888,2,object_06,1,1947,0,3,8,restaurant_10,2,memory-2step-stake-s,627,2435526,0.0-18.0-0.1-0.131,4460,8,7
132,3,object_10,object_01,936.275,6,2,1152.705,0.7777777777777778,2,object_06,1,1954,0,4,7,library_12,2,memory-2step-stake-s,628,2444713,0.0-18.0-0.1-0.132,4460,5,6
133,4,object_08,object_03,654.82,7,1,849.545,0.3333333333333333,1,object_04,1,1957,0,3,6,restaurant_32,2,memory-2step-stake-s,629,2453196,0.0-18.0-0.1-0.133,4460,7,8
134,4,object_03,object_08,1068.515,8,1,486.19,0.5555555555555556,2,object_06,1,1962,0,4,5,restaurant_30,2,memory-2step-stake-s,630,2461501,0.0-18.0-0.1-0.134,4460,8,7
135,3,object_01,object_10,870.895,6,1,795.3,0.4444444444444444,2,object_06,1,1966,0,1,4,library_15,2,memory-2step-stake-s,631,2470021,0.0-18.0-0.1-0.135,4460,6,5
136,1,object_02,object_05,1018.15,2,2,577.905,0.5555555555555556,2,object_06,5,1991,0,2,5,desert_12,2,memory-2step-stake-s,632,2478431,0.0-18.0-0.1-0.136,4460,1,2
137,3,object_10,object_01,1274.415,5,1,584.88,0.2222222222222222,1,object_04,1,1993,0,2,7,library_18,2,memory-2step-stake-s,633,2486504,0.0-18.0-0.1-0.137,4460,5,6
138,4,object_03,object_08,1260.195,7,2,577.65,0.3333333333333333,1,object_04,1,1996,0,3,4,restaurant_12,2,memory-2step-stake-s,634,2494684,0.0-18.0-0.1-0.138,4460,8,7
139,4,object_03,object_08,1423.665,8,1,445.505,0.6666666666666666,2,object_06,5,2026,0,3,6,restaurant_6,2,memory-2step-stake-s,635,2503044,0.0-18.0-0.1-0.139,4460,8,7
140,2,object_07,object_09,1432.795,4,1,690.63,0.5555555555555556,2,object_06,5,2051,0,0,5,forest_22,2,memory-2step-stake-s,636,2511575,0.0-18.0-0.1-0.140,4460,4,3
141,3,object_01,object_10,867.125,5,2,730.865,0.5555555555555556,1,object_04,1,2056,0,5,5,library_10,2,memory-2step-stake-s,637,2520125,0.0-18.0-0.1-0.141,4460,6,5
142,3,object_10,object_01,586.86,5,1,481.81,0.6666666666666666,1,object_04,1,2062,0,6,7,library_24,2,memory-2step-stake-s,638,2528547,0.0-18.0-0.1-0.142,4460,5,6
143,1,object_05,object_02,866.53,1,2,439.49,0.7777777777777778,1,object_04,5,2097,0,7,6,desert_8,2,memory-2step-stake-s,639,2537004,0.0-18.0-0.1-0.143,4460,2,1
144,4,object_03,object_08,928.67,8,1,447.43,0.7777777777777778,2,object_06,1,2104,0,8,7,restaurant_7,2,memory-2step-stake-s,640,2545486,0.0-18.0-0.1-0.144,4460,8,7
145,2,object_09,object_07,1380.57,3,1,766.125,0.7777777777777778,1,object_04,1,2111,0,7,6,forest_8,2,memory-2step-stake-s,641,2554338,0.0-18.0-0.1-0.145,4460,3,4
146,4,object_08,object_03,895.54,8,2,801.565,0.3333333333333333,2,object_06,1,2114,0,0,3,restaurant_31,2,memory-2step-stake-s,642,2562757,0.0-18.0-0.1-0.146,4460,7,8
147,1,object_05,object_02,925.195,1,2,451.515,0.5555555555555556,1,object_04,5,2139,0,5,4,desert_12,2,memory-2step-stake-s,643,2571011,0.0-18.0-0.1-0.147,4460,2,1
148,3,object_10,object_01,1041.435,6,2,402.69,0.0,2,object_06,1,2139,0,5,0,library_15,2,memory-2step-stake-s,644,2578688,0.0-18.0-0.1-0.148,4460,5,6
149,1,object_05,object_02,761.61,1,2,432.055,0.3333333333333333,1,object_04,5,2154,0,3,0,desert_12,2,memory-2step-stake-s,645,2586726,0.0-18.0-0.1-0.149,4460,2,1
150,3,object_10,object_01,1092.415,6,2,388.96,0.2222222222222222,2,object_06,1,2156,0,3,2,library_4,2,memory-2step-stake-s,646,2594615,0.0-18.0-0.1-0.150,4460,5,6
151,3,object_01,object_10,1106.605,6,1,417.52,0.3333333333333333,2,object_06,1,2159,0,5,3,library_12,2,memory-2step-stake-s,647,2602625,0.0-18.0-0.1-0.151,4460,6,5
152,4,object_08,object_03,1398.765,8,2,1059.605,0.2222222222222222,2,object_06,1,2161,0,6,2,restaurant_23,2,memory-2step-stake-s,648,2611152,0.0-18.0-0.1-0.152,4460,7,8
153,4,object_03,object_08,1245.22,8,1,458.29,0.1111111111111111,2,object_06,1,2162,0,5,1,restaurant_7,2,memory-2step-stake-s,649,2618984,0.0-18.0-0.1-0.153,4460,8,7
154,2,object_09,object_07,1116.245,4,2,686.245,0.2222222222222222,2,object_06,5,2172,0,5,2,forest_24,2,memory-2step-stake-s,650,2627154,0.0-18.0-0.1-0.154,4460,3,4
155,4,object_08,object_03,879.615,8,2,406.54,0.3333333333333333,2,object_06,1,2175,0,8,3,restaurant_1,2,memory-2step-stake-s,651,2635167,0.0-18.0-0.1-0.155,4460,7,8
156,1,object_02,object_05,838.95,2,2,422.27,0.1111111111111111,2,object_06,1,2176,0,4,1,desert_31,2,memory-2step-stake-s,652,2642973,0.0-18.0-0.1-0.156,4460,1,2
157,2,object_09,object_07,1016.485,3,1,404.485,0.3333333333333333,1,object_04,5,2191,0,3,2,forest_10,2,memory-2step-stake-s,653,2650985,0.0-18.0-0.1-0.157,4460,3,4
158,1,object_02,object_05,1001.825,1,1,472.47,0.5555555555555556,1,object_04,5,2216,0,5,2,desert_7,2,memory-2step-stake-s,654,2659284,0.0-18.0-0.1-0.158,4460,1,2
159,2,object_07,object_09,1061.455,3,2,400.265,0.4444444444444444,1,object_04,5,2236,0,4,1,forest_21,2,memory-2step-stake-s,655,2667374,0.0-18.0-0.1-0.159,4460,4,3
160,3,object_01,object_10,1301.645,5,2,408.57,0.3333333333333333,1,object_04,1,2239,0,3,1,library_11,2,memory-2step-stake-s,656,2675370,0.0-18.0-0.1-0.160,4460,6,5
161,2,object_09,object_07,890.22,4,2,536.77,0.5555555555555556,2,object_06,1,2244,0,7,5,forest_10,2,memory-2step-stake-s,657,2683707,0.0-18.0-0.1-0.161,4460,3,4
162,1,object_02,object_05,1200.185,1,1,697.49,0.7777777777777778,1,object_04,5,2279,0,7,6,desert_18,2,memory-2step-stake-s,658,2692441,0.0-18.0-0.1-0.162,4460,1,2
163,4,object_08,object_03,736.76,7,1,426.12,0.7777777777777778,1,object_04,5,2314,0,7,9,restaurant_6,2,memory-2step-stake-s,659,2700909,0.0-18.0-0.1-0.163,4460,7,8
164,3,object_10,object_01,1072.695,5,1,640.22,0.8888888888888888,1,object_04,1,2322,0,8,7,library_22,2,memory-2step-stake-s,660,2709675,0.0-18.0-0.1-0.164,4460,5,6
165,1,object_02,object_05,864.65,1,1,585.35,0.5555555555555556,1,object_04,5,2347,0,5,6,desert_26,2,memory-2step-stake-s,661,2718081,0.0-18.0-0.1-0.165,4460,1,2
166,1,object_02,object_05,629.365,2,2,413.695,1.0,2,object_06,5,2392,0,3,9,desert_30,2,memory-2step-stake-s,662,2726803,0.0-18.0-0.1-0.166,4460,1,2
167,1,object_02,object_05,840.51,2,2,420.85,0.4444444444444444,2,object_06,1,2396,0,4,4,desert_5,2,memory-2step-stake-s,663,2734912,0.0-18.0-0.1-0.167,4460,1,2
168,1,object_05,object_02,885.53,2,1,904.98,0.7777777777777778,2,object_06,5,2431,0,5,7,desert_5,2,memory-2step-stake-s,664,2743852,0.0-18.0-0.1-0.168,4460,2,1
169,3,object_10,object_01,730.085,6,2,786.035,0.8888888888888888,2,object_06,1,2439,0,2,8,library_5,2,memory-2step-stake-s,665,2752821,0.0-18.0-0.1-0.169,4460,5,6
170,2,object_07,object_09,923.48,4,1,412.675,0.8888888888888888,2,object_06,5,2479,0,4,8,forest_32,2,memory-2step-stake-s,666,2761392,0.0-18.0-0.1-0.170,4460,4,3
171,4,object_03,object_08,1079.565,7,2,616.305,0.6666666666666666,1,object_04,1,2485,0,6,8,restaurant_32,2,memory-2step-stake-s,667,2769976,0.0-18.0-0.1-0.171,4460,8,7
172,2,object_09,object_07,806.62,3,1,463.275,0.6666666666666666,1,object_04,5,2515,0,6,8,forest_21,2,memory-2step-stake-s,668,2778396,0.0-18.0-0.1-0.172,4460,3,4
173,4,object_08,object_03,1275.21,8,2,569.935,0.6666666666666666,2,object_06,1,2521,0,8,6,restaurant_18,2,memory-2step-stake-s,669,2786881,0.0-18.0-0.1-0.173,4460,7,8
174,1,object_05,object_02,726.245,2,1,1274.175,0.4444444444444444,2,object_06,5,2541,0,3,4,desert_17,2,memory-2step-stake-s,670,2795875,0.0-18.0-0.1-0.174,4460,2,1
175,1,object_02,object_05,819.52,2,2,514.335,0.2222222222222222,2,object_06,5,2551,0,4,2,desert_16,2,memory-2step-stake-s,671,2803876,0.0-18.0-0.1-0.175,4460,1,2
176,3,object_10,object_01,910.46,5,1,386.575,0.3333333333333333,1,object_04,1,2554,0,3,2,library_11,2,memory-2step-stake-s,672,2811859,0.0-18.0-0.1-0.176,4460,5,6
177,1,object_02,object_05,501.355,1,1,541.44,0.6666666666666666,1,object_04,1,2560,0,6,1,desert_13,2,memory-2step-stake-s,673,2820351,0.0-18.0-0.1-0.177,4460,1,2
178,1,object_05,object_02,959.115,2,1,414.755,0.0,2,object_06,1,2560,0,6,0,desert_9,2,memory-2step-stake-s,674,2828050,0.0-18.0-0.1-0.178,4460,2,1
179,3,object_10,object_01,800.845,6,2,608.26,0.1111111111111111,2,object_06,1,2561,0,8,1,library_5,2,memory-2step-stake-s,675,2836058,0.0-18.0-0.1-0.179,4460,5,6
180,2,object_07,object_09,967.11,4,1,433.82,0.3333333333333333,2,object_06,5,2576,0,8,3,forest_21,2,memory-2step-stake-s,676,2844105,0.0-18.0-0.1-0.180,4460,4,3
181,2,object_07,object_09,956.555,4,1,727.78,0.0,2,object_06,5,2576,0,5,0,forest_11,2,memory-2step-stake-s,677,2852114,0.0-18.0-0.1-0.181,4460,4,3
182,1,object_05,object_02,1120.79,2,1,371.905,0.2222222222222222,2,object_06,1,2578,0,8,2,desert_13,2,memory-2step-stake-s,678,2859955,0.0-18.0-0.1-0.182,4460,2,1
183,1,object_02,object_05,1291.68,1,1,483.755,0.7777777777777778,1,object_04,5,2613,0,7,3,desert_26,2,memory-2step-stake-s,679,2868464,0.0-18.0-0.1-0.183,4460,1,2
184,2,object_09,object_07,903.35,3,1,451.61,0.7777777777777778,1,object_04,5,2648,0,7,6,forest_32,2,memory-2step-stake-s,680,2876956,0.0-18.0-0.1-0.184,4460,3,4
185,3,object_01,object_10,1283.495,6,1,385.125,0.7777777777777778,2,object_06,1,2655,0,7,7,library_21,2,memory-2step-stake-s,681,2885392,0.0-18.0-0.1-0.185,4460,6,5
186,4,object_08,object_03,1249.41,7,1,515.55,0.8888888888888888,1,object_04,1,2663,0,8,7,restaurant_10,2,memory-2step-stake-s,682,2894077,0.0-18.0-0.1-0.186,4460,7,8
187,3,object_10,object_01,910.98,5,1,373.0,0.7777777777777778,1,object_04,1,2670,0,7,8,library_11,2,memory-2step-stake-s,683,2902481,0.0-18.0-0.1-0.187,4460,5,6
188,4,object_03,object_08,1253.84,8,1,631.26,0.5555555555555556,2,object_06,1,2675,0,8,5,restaurant_21,2,memory-2step-stake-s,684,2910947,0.0-18.0-0.1-0.188,4460,8,7
189,4,object_03,object_08,752.435,8,1,435.96,0.5555555555555556,2,object_06,1,2680,0,9,5,restaurant_1,2,memory-2step-stake-s,685,2919207,0.0-18.0-0.1-0.189,4460,8,7
190,3,object_01,object_10,653.275,6,1,368.855,0.4444444444444444,2,object_06,1,2684,0,6,4,library_16,2,memory-2step-stake-s,686,2927289,0.0-18.0-0.1-0.190,4460,6,5
191,1,object_05,object_02,1016.945,2,1,482.24,0.3333333333333333,2,object_06,5,2699,0,6,3,desert_17,2,memory-2step-stake-s,687,2935367,0.0-18.0-0.1-0.191,4460,2,1
192,3,object_10,object_01,905.895,6,2,515.775,0.2222222222222222,2,object_06,1,2701,0,6,2,library_6,2,memory-2step-stake-s,688,2943367,0.0-18.0-0.1-0.192,4460,5,6
193,1,object_05,object_02,913.71,1,2,451.175,0.3333333333333333,1,object_04,5,2716,0,3,4,desert_30,2,memory-2step-stake-s,689,2951431,0.0-18.0-0.1-0.193,4460,2,1
194,2,object_07,object_09,1036.29,3,2,389.565,0.3333333333333333,1,object_04,5,2731,0,3,5,forest_27,2,memory-2step-stake-s,690,2959426,0.0-18.0-0.1-0.194,4460,4,3
195,2,object_09,object_07,1108.875,4,2,424.52,0.7777777777777778,2,object_06,5,2766,0,6,7,forest_23,2,memory-2step-stake-s,691,2967888,0.0-18.0-0.1-0.195,4460,3,4
196,2,object_09,object_07,1437.095,4,2,393.61,0.4444444444444444,2,object_06,5,2786,0,8,4,forest_11,2,memory-2step-stake-s,692,2975979,0.0-18.0-0.1-0.196,4460,3,4
197,4,object_08,object_03,1188.07,7,1,684.76,0.8888888888888888,1,object_04,5,2826,0,8,3,restaurant_4,2,memory-2step-stake-s,693,2984846,0.0-18.0-0.1-0.197,4460,7,8
198,4,object_03,object_08,974.91,7,2,519.61,1.0,1,object_04,1,2835,0,9,1,restaurant_30,2,memory-2step-stake-s,694,2993608,0.0-18.0-0.1-0.198,4460,8,7
199,2,object_07,object_09,1053.04,3,2,980.82,0.6666666666666666,1,object_04,5,2865,0,6,4,forest_1,2,memory-2step-stake-s,695,3002521,0.0-18.0-0.1-0.199,4460,4,3
200,1,object_02,object_05,1314.845,2,2,450.88,0.2222222222222222,2,object_06,5,2875,0,2,2,desert_16,2,memory-2step-stake-s,696,3010444,0.0-18.0-0.1-0.200,4460,1,2
201,2,object_07,object_09,892.975,3,2,382.3,0.3333333333333333,1,object_04,5,2890,0,3,2,forest_24,2,memory-2step-stake-s,697,3018433,0.0-18.0-0.1-0.201,4460,4,3
202,4,object_08,object_03,374.87,7,1,526.465,0.2222222222222222,1,object_04,5,2900,0,2,1,restaurant_31,2,memory-2step-stake-s,698,3026465,0.0-18.0-0.1-0.202,4460,7,8
203,4,object_03,object_08,719.33,7,2,282.355,0.3333333333333333,1,object_04,1,2903,0,3,1,restaurant_5,2,memory-2step-stake-s,699,3034367,0.0-18.0-0.1-0.203,4460,8,7
204,4,object_08,object_03,570.175,7,1,606.735,0.0,1,object_04,1,2903,0,0,2,restaurant_23,2,memory-2step-stake-s,700,3042258,0.0-18.0-0.1-0.204,4460,7,8
205,4,object_08,object_03,475.785,7,1,443.685,0.2222222222222222,1,object_04,1,2905,0,2,3,restaurant_10,2,memory-2step-stake-s,701,3050199,0.0-18.0-0.1-0.205,4460,7,8
206,3,object_01,object_10,1012.615,5,2,392.01,0.1111111111111111,1,object_04,1,2906,0,1,5,library_2,2,memory-2step-stake-s,702,3058001,0.0-18.0-0.1-0.206,4460,6,5
207,3,object_01,object_10,526.655,5,2,516.67,0.2222222222222222,1,object_04,1,2908,0,2,2,library_4,2,memory-2step-stake-s,703,3066020,0.0-18.0-0.1-0.207,4460,6,5
208,3,object_10,object_01,614.59,5,1,581.61,0.4444444444444444,1,object_04,1,2912,0,4,4,library_21,2,memory-2step-stake-s,704,3074310,0.0-18.0-0.1-0.208,4460,5,6
209,2,object_07,object_09,821.635,4,1,666.735,0.2222222222222222,2,object_06,1,2914,0,3,2,forest_32,2,memory-2step-stake-s,705,3082487,0.0-18.0-0.1-0.209,4460,4,3
210,1,object_05,object_02,646.56,1,2,512.735,0.5555555555555556,1,object_04,5,2939,0,5,0,desert_31,2,memory-2step-stake-s,706,3090808,0.0-18.0-0.1-0.210,4460,2,1
211,4,object_03,object_08,860.595,8,1,511.045,0.0,2,object_06,1,2939,0,4,0,restaurant_21,2,memory-2step-stake-s,707,3098599,0.0-18.0-0.1-0.211,4460,8,7
212,1,object_02,object_05,501.39,1,1,484.955,0.6666666666666666,1,object_04,5,2969,0,6,1,desert_26,2,memory-2step-stake-s,708,3107002,0.0-18.0-0.1-0.212,4460,1,2
213,1,object_02,object_05,597.035,1,1,380.735,0.4444444444444444,1,object_04,5,2989,0,4,1,desert_18,2,memory-2step-stake-s,709,3115105,0.0-18.0-0.1-0.213,4460,1,2
214,1,object_05,object_02,508.535,1,2,525.72,0.2222222222222222,1,object_04,5,2999,0,2,1,desert_6,2,memory-2step-stake-s,710,3123164,0.0-18.0-0.1-0.214,4460,2,1
215,2,object_09,object_07,856.49,4,2,387.515,0.4444444444444444,2,object_06,5,3019,0,5,4,forest_27,2,memory-2step-stake-s,711,3131236,0.0-18.0-0.1-0.215,4460,3,4
216,3,object_01,object_10,1187.395,6,1,638.195,0.2222222222222222,2,object_06,1,3021,0,9,2,library_1,2,memory-2step-stake-s,712,3139350,0.0-18.0-0.1-0.216,4460,6,5
217,1,object_02,object_05,500.315,1,1,470.675,0.7777777777777778,1,object_04,5,3056,0,7,1,desert_15,2,memory-2step-stake-s,713,3147868,0.0-18.0-0.1-0.217,4460,1,2
218,3,object_10,object_01,717.96,6,2,610.05,0.0,2,object_06,5,3056,0,9,0,library_2,2,memory-2step-stake-s,714,3155752,0.0-18.0-0.1-0.218,4460,5,6
219,3,object_01,object_10,1023.81,6,1,473.12,0.1111111111111111,2,object_06,1,3057,0,9,1,library_6,2,memory-2step-stake-s,715,3163624,0.0-18.0-0.1-0.219,4460,6,5
220,3,object_10,object_01,586.765,6,2,-1.0,0.0,2,object_06,1,3057,0,7,1,library_10,2,memory-2step-stake-s,716,3172220,0.0-18.0-0.1-0.220,4460,5,6
221,1,object_02,object_05,1009.08,2,2,359.63,0.1111111111111111,2,object_06,1,3058,0,8,1,desert_7,2,memory-2step-stake-s,717,3179963,0.0-18.0-0.1-0.221,4460,1,2
222,3,object_01,object_10,979.075,6,1,410.985,0.1111111111111111,2,object_06,1,3059,0,8,1,library_9,2,memory-2step-stake-s,718,3187738,0.0-18.0-0.1-0.222,4460,6,5
223,1,object_02,object_05,522.935,1,1,418.685,0.7777777777777778,1,object_04,5,3094,0,7,2,desert_16,2,memory-2step-stake-s,719,3196197,0.0-18.0-0.1-0.223,4460,1,2
224,1,object_02,object_05,487.44,1,1,408.365,0.6666666666666666,1,object_04,5,3124,0,6,3,desert_30,2,memory-2step-stake-s,720,3204536,0.0-18.0-0.1-0.224,4460,1,2
225,2,object_09,object_07,687.885,4,2,442.325,0.7777777777777778,2,object_06,5,3159,0,4,7,forest_9,2,memory-2step-stake-s,721,3213025,0.0-18.0-0.1-0.225,4460,3,4
226,4,object_08,object_03,1441.105,7,1,555.59,0.2222222222222222,1,object_04,1,3161,0,2,7,restaurant_12,2,memory-2step-stake-s,722,3221095,0.0-18.0-0.1-0.226,4460,7,8
227,3,object_10,object_01,1183.38,6,2,465.025,0.4444444444444444,2,object_06,1,3165,0,4,4,library_1,2,memory-2step-stake-s,723,3229293,0.0-18.0-0.1-0.227,4460,5,6
228,2,object_07,object_09,870.0,3,2,426.96,0.4444444444444444,1,object_04,5,3185,0,4,8,forest_10,2,memory-2step-stake-s,724,3237431,0.0-18.0-0.1-0.228,4460,4,3
229,3,object_10,object_01,994.695,5,1,392.255,0.3333333333333333,1,object_04,1,3188,0,3,6,library_10,2,memory-2step-stake-s,725,3245452,0.0-18.0-0.1-0.229,4460,5,6
230,4,object_08,object_03,964.685,7,1,361.44,0.4444444444444444,1,object_04,1,3192,0,4,8,restaurant_18,2,memory-2step-stake-s,726,3253537,0.0-18.0-0.1-0.230,4460,7,8
231,1,object_05,object_02,516.335,1,2,375.22,0.3333333333333333,1,object_04,5,3207,0,3,6,desert_13,2,memory-2step-stake-s,727,3261520,0.0-18.0-0.1-0.231,4460,2,1
232,2,object_07,object_09,884.935,4,1,694.515,0.5555555555555556,2,object_06,5,3232,0,3,5,forest_22,2,memory-2step-stake-s,728,3270050,0.0-18.0-0.1-0.232,4460,4,3
233,3,object_01,object_10,931.595,6,1,400.79,0.6666666666666666,2,object_06,5,3262,0,6,6,library_12,2,memory-2step-stake-s,729,3278397,0.0-18.0-0.1-0.233,4460,6,5
234,2,object_09,object_07,999.33,3,1,369.695,0.8888888888888888,1,object_04,5,3302,0,8,5,forest_31,2,memory-2step-stake-s,730,3286927,0.0-18.0-0.1-0.234,4460,3,4
235,2,object_09,object_07,1154.225,3,1,410.975,0.8888888888888888,1,object_04,1,3310,0,8,7,forest_27,2,memory-2step-stake-s,731,3295494,0.0-18.0-0.1-0.235,4460,3,4
236,2,object_07,object_09,816.61,3,2,387.53,1.0,1,object_04,5,3355,0,9,5,forest_17,2,memory-2step-stake-s,732,3304136,0.0-18.0-0.1-0.236,4460,4,3
237,4,object_08,object_03,1024.555,8,2,403.0,0.8888888888888888,2,object_06,1,3363,0,6,8,restaurant_31,2,memory-2step-stake-s,733,3312671,0.0-18.0-0.1-0.237,4460,7,8
238,1,object_02,object_05,631.705,1,1,529.72,0.6666666666666666,1,object_04,1,3369,0,6,7,desert_6,2,memory-2step-stake-s,734,3321148,0.0-18.0-0.1-0.238,4460,1,2
239,4,object_03,object_08,1022.255,7,2,339.59,0.7777777777777778,1,object_04,1,3376,0,7,4,restaurant_32,2,memory-2step-stake-s,735,3329533,0.0-18.0-0.1-0.239,4460,8,7
240,3,object_10,object_01,1031.67,5,1,408.575,0.8888888888888888,1,object_04,5,3416,0,8,6,library_22,2,memory-2step-stake-s,736,3338073,0.0-18.0-0.1-0.240,4460,5,6
241,1,object_05,object_02,815.32,1,2,531.84,0.7777777777777778,1,object_04,5,3451,0,7,4,desert_7,2,memory-2step-stake-s,737,3346629,0.0-18.0-0.1-0.241,4460,2,1
242,2,object_09,object_07,740.535,4,2,586.43,0.0,2,object_06,1,3451,0,6,0,forest_21,2,memory-2step-stake-s,738,3354499,0.0-18.0-0.1-0.242,4460,3,4
243,1,object_02,object_05,656.735,1,1,373.715,0.6666666666666666,1,object_04,5,3481,0,6,1,desert_19,2,memory-2step-stake-s,739,3362770,0.0-18.0-0.1-0.243,4460,1,2
244,1,object_02,object_05,397.965,1,1,490.415,0.7777777777777778,1,object_04,5,3516,0,7,1,desert_13,2,memory-2step-stake-s,740,3371335,0.0-18.0-0.1-0.244,4460,1,2
245,4,object_03,object_08,809.23,7,2,598.0,0.8888888888888888,1,object_04,5,3556,0,8,1,restaurant_8,2,memory-2step-stake-s,741,3380076,0.0-18.0-0.1-0.245,4460,8,7
246,2,object_09,object_07,541.715,3,1,481.34,0.7777777777777778,1,object_04,5,3591,0,7,5,forest_10,2,memory-2step-stake-s,742,3388592,0.0-18.0-0.1-0.246,4460,3,4
247,2,object_09,object_07,662.95,3,1,506.02,0.5555555555555556,1,object_04,5,3616,0,5,6,forest_24,2,memory-2step-stake-s,743,3396949,0.0-18.0-0.1-0.247,4460,3,4
248,3,object_10,object_01,631.04,6,2,482.75,0.5555555555555556,2,object_06,1,3621,0,3,5,library_4,2,memory-2step-stake-s,744,3405288,0.0-18.0-0.1-0.248,4460,5,6
249,2,object_09,object_07,910.05,4,2,404.33,0.3333333333333333,2,object_06,5,3636,0,3,3,forest_31,2,memory-2step-stake-s,745,3413316,0.0-18.0-0.1-0.249,4460,3,4
250,1,object_05,object_02,580.73,1,2,432.13,0.7777777777777778,1,object_04,5,3671,0,7,1,desert_8,2,memory-2step-stake-s,746,3421787,0.0-18.0-0.1-0.250,4460,2,1
251,2,object_07,object_09,1249.695,4,1,535.655,0.1111111111111111,2,object_06,5,3676,0,8,1,forest_32,2,memory-2step-stake-s,747,3429723,0.0-18.0-0.1-0.251,4460,4,3
252,3,object_01,object_10,941.135,6,1,355.54,0.2222222222222222,2,object_06,1,3678,0,6,2,library_21,2,memory-2step-stake-s,748,3437572,0.0-18.0-0.1-0.252,4460,6,5
253,3,object_10,object_01,1031.74,5,1,392.535,0.6666666666666666,1,object_04,5,3708,0,6,1,library_10,2,memory-2step-stake-s,749,3445913,0.0-18.0-0.1-0.253,4460,5,6
254,3,object_10,object_01,637.45,5,1,374.68,0.5555555555555556,1,object_04,5,3733,0,5,1,library_5,2,memory-2step-stake-s,750,3454126,0.0-18.0-0.1-0.254,4460,5,6
255,4,object_08,object_03,790.44,8,2,414.29,0.1111111111111111,2,object_06,1,3734,0,7,1,restaurant_8,2,memory-2step-stake-s,751,3461938,0.0-18.0-0.1-0.255,4460,7,8
