,state1,stim_left,stim_right,rt_1,choice1,response1,rt_2,points,state2,stim_state2,stake,score,practice,rews1,rews2,background,high_arm,trial_type,trial_index,time_elapsed,internal_node_id,subid,stim_left_num,stim_right_num
0,3,object_06,object_03,-1.0,-1,-1,-1.0,0.0,-,,5,0,0,4,0,library_6,1,memory-2step-stake-s,487,1288885,0.0-18.0-0.0-0.0,953,6,5
1,2,object_05,object_07,1123.155,4,1,-1.0,0.0,2,object_01,1,0,0,8,2,forest_1,1,memory-2step-stake-s,488,1297418,0.0-18.0-0.0-0.1,953,4,3
2,3,object_06,object_03,485.79,5,2,-1.0,0.0,1,object_09,5,0,0,8,3,library_24,1,memory-2step-stake-s,489,1305939,0.0-18.0-0.0-0.2,953,6,5
3,1,object_02,object_04,901.325,2,1,-1.0,0.0,2,object_01,1,0,0,8,3,desert_11,1,memory-2step-stake-s,490,1314471,0.0-18.0-0.0-0.3,953,2,1
4,1,object_04,object_02,1468.345,1,1,-1.0,0.0,1,object_09,1,0,0,7,3,desert_14,1,memory-2step-stake-s,491,1323004,0.0-18.0-0.0-0.4,953,1,2
5,1,object_04,object_02,1342.57,2,2,-1.0,0.0,2,object_01,1,0,0,7,2,desert_16,1,memory-2step-stake-s,492,1331534,0.0-18.0-0.0-0.5,953,1,2
6,1,object_02,object_04,-1.0,-1,-1,-1.0,0.0,-,,1,0,0,8,1,desert_25,1,memory-2step-stake-s,493,1338059,0.0-18.0-0.0-0.6,953,2,1
7,3,object_06,object_03,840.405,6,1,-1.0,0.0,2,object_01,1,0,0,6,4,library_10,1,memory-2step-stake-s,494,1346592,0.0-18.0-0.0-0.7,953,6,5
8,1,object_02,object_04,981.805,2,1,-1.0,0.0,2,object_01,1,0,0,6,4,desert_21,1,memory-2step-stake-s,495,1355115,0.0-18.0-0.0-0.8,953,2,1
9,2,object_05,object_07,1138.825,3,2,-1.0,0.0,1,object_09,1,0,0,9,5,forest_10,1,memory-2step-stake-s,496,1363645,0.0-18.0-0.0-0.9,953,4,3
10,3,object_06,object_03,1239.605,5,2,-1.0,0.0,1,object_09,5,0,0,6,4,library_13,1,memory-2step-stake-s,497,1372174,0.0-18.0-0.0-0.10,953,6,5
11,1,object_02,object_04,1479.29,1,2,-1.0,0.0,1,object_09,1,0,0,6,2,desert_22,1,memory-2step-stake-s,498,1380706,0.0-18.0-0.0-0.11,953,2,1
12,2,object_07,object_05,1269.23,4,2,-1.0,0.0,2,object_01,5,0,0,6,5,forest_6,1,memory-2step-stake-s,499,1389231,0.0-18.0-0.0-0.12,953,3,4
13,1,object_02,object_04,744.215,1,2,-1.0,0.0,1,object_09,1,0,0,6,4,desert_14,1,memory-2step-stake-s,500,1397761,0.0-18.0-0.0-0.13,953,2,1
14,1,object_02,object_04,358.68,2,1,-1.0,0.0,2,object_01,1,0,0,6,4,desert_22,1,memory-2step-stake-s,501,1406284,0.0-18.0-0.0-0.14,953,2,1
15,1,object_02,object_04,436.02,2,1,492.23,0.3333333333333333,2,object_01,1,3,0,6,3,desert_14,1,memory-2step-stake-s,502,1414322,0.0-18.0-0.0-0.15,953,2,1
16,1,object_04,object_02,-1.0,-1,-1,-1.0,0.0,-,,1,3,0,5,5,desert_20,1,memory-2step-stake-s,503,1420839,0.0-18.0-0.0-0.16,953,1,2
17,4,object_08,object_10,695.105,7,1,524.485,0.6666666666666666,1,object_09,5,33,0,6,5,restaurant_12,1,memory-2step-stake-s,504,1429214,0.0-18.0-0.0-0.17,953,7,8
18,1,object_04,object_02,782.835,2,2,-1.0,0.0,2,object_01,1,33,0,3,3,desert_14,1,memory-2step-stake-s,505,1437749,0.0-18.0-0.0-0.18,953,1,2
19,3,object_03,object_06,662.325,5,1,788.685,0.1111111111111111,1,object_09,5,38,0,1,4,library_5,1,memory-2step-stake-s,506,1445868,0.0-18.0-0.0-0.19,953,5,6
20,3,object_03,object_06,721.47,6,2,850.83,0.7777777777777778,2,object_01,1,45,0,2,7,library_17,1,memory-2step-stake-s,507,1454667,0.0-18.0-0.0-0.20,953,5,6
21,2,object_07,object_05,974.98,3,1,1337.62,0.2222222222222222,1,object_09,5,55,0,2,9,forest_6,1,memory-2step-stake-s,508,1463445,0.0-18.0-0.0-0.21,953,3,4
22,1,object_02,object_04,765.79,2,1,844.105,0.8888888888888888,2,object_01,5,95,0,1,8,desert_11,1,memory-2step-stake-s,509,1472349,0.0-18.0-0.0-0.22,953,2,1
23,3,object_06,object_03,1294.34,6,1,933.905,0.8888888888888888,2,object_01,5,135,0,0,8,library_18,1,memory-2step-stake-s,510,1481344,0.0-18.0-0.0-0.23,953,6,5
24,2,object_07,object_05,-1.0,-1,-1,-1.0,0.0,-,,1,135,0,1,7,forest_31,1,memory-2step-stake-s,511,1487866,0.0-18.0-0.0-0.24,953,3,4
25,3,object_06,object_03,647.595,5,2,886.055,0.1111111111111111,1,object_09,5,140,0,1,3,library_4,1,memory-2step-stake-s,512,1496083,0.0-18.0-0.0-0.25,953,6,5
26,3,object_03,object_06,1482.375,6,2,-1.0,0.0,2,object_01,5,140,0,0,2,library_2,1,memory-2step-stake-s,513,1504612,0.0-18.0-0.0-0.26,953,5,6
27,4,object_08,object_10,1026.95,7,1,721.245,0.0,1,object_09,5,140,0,0,1,restaurant_30,1,memory-2step-stake-s,514,1512563,0.0-18.0-0.0-0.27,953,7,8
28,4,object_10,object_08,1008.79,8,1,757.025,0.2222222222222222,2,object_01,5,150,0,1,2,restaurant_30,1,memory-2step-stake-s,515,1520764,0.0-18.0-0.0-0.28,953,8,7
29,1,object_04,object_02,857.69,1,1,759.355,0.3333333333333333,1,object_09,1,153,0,3,1,desert_25,1,memory-2step-stake-s,516,1529059,0.0-18.0-0.0-0.29,953,1,2
30,4,object_08,object_10,-1.0,-1,-1,-1.0,0.0,-,,5,153,0,1,3,restaurant_4,1,memory-2step-stake-s,517,1535583,0.0-18.0-0.0-0.30,953,7,8
31,1,object_02,object_04,940.59,2,1,698.315,0.5555555555555556,2,object_01,1,158,0,1,5,desert_15,1,memory-2step-stake-s,518,1544032,0.0-18.0-0.0-0.31,953,2,1
32,2,object_05,object_07,1071.68,3,2,942.095,0.4444444444444444,1,object_09,5,178,0,4,3,forest_1,1,memory-2step-stake-s,519,1552620,0.0-18.0-0.0-0.32,953,4,3
33,4,object_10,object_08,903.1,8,1,551.72,0.4444444444444444,2,object_01,1,182,0,2,4,restaurant_15,1,memory-2step-stake-s,520,1560815,0.0-18.0-0.0-0.33,953,8,7
34,2,object_05,object_07,1172.76,4,1,539.945,0.3333333333333333,2,object_01,1,185,0,2,3,forest_6,1,memory-2step-stake-s,521,1568895,0.0-18.0-0.0-0.34,953,4,3
35,2,object_07,object_05,1056.865,3,1,814.44,0.5555555555555556,1,object_09,1,190,0,5,4,forest_5,1,memory-2step-stake-s,522,1577449,0.0-18.0-0.0-0.35,953,3,4
36,2,object_05,object_07,1305.57,3,2,1460.64,0.5555555555555556,1,object_09,5,215,0,5,1,forest_27,1,memory-2step-stake-s,523,1586655,0.0-18.0-0.0-0.36,953,4,3
37,1,object_04,object_02,869.41,1,1,741.31,0.5555555555555556,1,object_09,1,220,0,5,2,desert_15,1,memory-2step-stake-s,524,1595146,0.0-18.0-0.0-0.37,953,1,2
38,2,object_07,object_05,675.14,3,1,434.175,0.7777777777777778,1,object_09,1,227,0,7,3,forest_4,1,memory-2step-stake-s,525,1603523,0.0-18.0-0.0-0.38,953,3,4
39,2,object_07,object_05,685.01,4,2,382.155,0.3333333333333333,2,object_01,1,230,0,9,3,forest_26,1,memory-2step-stake-s,526,1611450,0.0-18.0-0.0-0.39,953,3,4
40,4,object_10,object_08,1381.005,8,1,729.555,0.3333333333333333,2,object_01,5,245,0,9,3,restaurant_3,1,memory-2step-stake-s,527,1619726,0.0-18.0-0.0-0.40,953,8,7
41,4,object_08,object_10,1023.46,7,1,1377.645,1.0,1,object_09,5,290,0,9,1,restaurant_29,1,memory-2step-stake-s,528,1629267,0.0-18.0-0.0-0.41,953,7,8
42,4,object_08,object_10,590.51,7,1,483.715,0.7777777777777778,1,object_09,5,325,0,7,2,restaurant_3,1,memory-2step-stake-s,529,1637709,0.0-18.0-0.0-0.42,953,7,8
43,2,object_05,object_07,-1.0,-1,-1,-1.0,0.0,-,,1,325,0,6,1,forest_15,1,memory-2step-stake-s,530,1644237,0.0-18.0-0.0-0.43,953,4,3
44,3,object_03,object_06,931.465,5,1,1076.305,0.7777777777777778,1,object_09,5,360,0,7,5,library_6,1,memory-2step-stake-s,531,1653270,0.0-18.0-0.0-0.44,953,5,6
45,1,object_02,object_04,928.41,2,1,732.11,0.3333333333333333,2,object_01,1,363,0,9,3,desert_3,1,memory-2step-stake-s,532,1661548,0.0-18.0-0.0-0.45,953,2,1
46,4,object_10,object_08,1290.2,8,1,794.44,1.0,2,object_01,1,372,0,8,9,restaurant_30,1,memory-2step-stake-s,533,1670505,0.0-18.0-0.0-0.46,953,8,7
47,3,object_03,object_06,1493.575,6,2,768.36,1.0,2,object_01,1,381,0,8,9,library_26,1,memory-2step-stake-s,534,1679437,0.0-18.0-0.0-0.47,953,5,6
48,2,object_07,object_05,1089.34,3,1,851.69,0.8888888888888888,1,object_09,1,389,0,8,6,forest_15,1,memory-2step-stake-s,535,1688340,0.0-18.0-0.0-0.48,953,3,4
49,1,object_02,object_04,637.755,2,1,679.605,0.6666666666666666,2,object_01,1,395,0,5,6,desert_1,1,memory-2step-stake-s,536,1696868,0.0-18.0-0.0-0.49,953,2,1
50,2,object_07,object_05,960.79,3,1,928.205,0.4444444444444444,1,object_09,5,415,0,4,5,forest_27,1,memory-2step-stake-s,537,1705441,0.0-18.0-0.0-0.50,953,3,4
51,2,object_05,object_07,1293.785,4,1,726.38,0.4444444444444444,2,object_01,1,419,0,5,4,forest_1,1,memory-2step-stake-s,538,1713812,0.0-18.0-0.0-0.51,953,4,3
52,3,object_06,object_03,1085.39,6,1,707.695,0.5555555555555556,2,object_01,5,444,0,4,5,library_15,1,memory-2step-stake-s,539,1722261,0.0-18.0-0.0-0.52,953,6,5
53,4,object_10,object_08,1318.22,8,1,813.92,0.7777777777777778,2,object_01,5,479,0,7,7,restaurant_20,1,memory-2step-stake-s,540,1731032,0.0-18.0-0.0-0.53,953,8,7
54,1,object_02,object_04,-1.0,-1,-1,-1.0,0.0,-,,1,479,0,8,8,desert_27,1,memory-2step-stake-s,541,1737552,0.0-18.0-0.0-0.54,953,2,1
55,3,object_03,object_06,760.07,5,1,818.005,0.8888888888888888,1,object_09,5,519,0,8,7,library_3,1,memory-2step-stake-s,542,1746417,0.0-18.0-0.0-0.55,953,5,6
56,3,object_06,object_03,759.08,5,2,715.22,0.7777777777777778,1,object_09,5,554,0,7,8,library_17,1,memory-2step-stake-s,543,1755089,0.0-18.0-0.0-0.56,953,6,5
57,2,object_07,object_05,755.505,3,1,-1.0,0.0,1,object_09,1,554,0,4,6,forest_10,1,memory-2step-stake-s,544,1763618,0.0-18.0-0.0-0.57,953,3,4
58,1,object_02,object_04,623.34,2,1,606.855,0.6666666666666666,2,object_01,1,560,0,5,6,desert_3,1,memory-2step-stake-s,545,1772073,0.0-18.0-0.0-0.58,953,2,1
59,4,object_10,object_08,1191.595,7,2,770.24,0.5555555555555556,1,object_09,5,585,0,5,4,restaurant_26,1,memory-2step-stake-s,546,1780584,0.0-18.0-0.0-0.59,953,8,7
60,1,object_04,object_02,786.8,2,2,866.705,0.1111111111111111,2,object_01,1,586,0,4,1,desert_22,1,memory-2step-stake-s,547,1788788,0.0-18.0-0.0-0.60,953,1,2
61,2,object_05,object_07,944.645,4,1,758.505,0.2222222222222222,2,object_01,1,588,0,6,2,forest_21,1,memory-2step-stake-s,548,1796987,0.0-18.0-0.0-0.61,953,4,3
62,3,object_03,object_06,1364.565,5,1,975.315,0.6666666666666666,1,object_09,1,594,0,6,3,library_12,1,memory-2step-stake-s,549,1805820,0.0-18.0-0.0-0.62,953,5,6
63,2,object_07,object_05,-1.0,-1,-1,-1.0,0.0,-,,1,594,0,5,2,forest_31,1,memory-2step-stake-s,550,1812344,0.0-18.0-0.0-0.63,953,3,4
64,3,object_06,object_03,1156.315,5,2,1013.06,0.6666666666666666,1,object_09,5,624,0,6,2,library_28,1,memory-2step-stake-s,551,1821207,0.0-18.0-0.0-0.64,953,6,5
65,4,object_08,object_10,1033.165,7,1,951.235,0.7777777777777778,1,object_09,1,631,0,7,3,restaurant_1,1,memory-2step-stake-s,552,1830116,0.0-18.0-0.0-0.65,953,7,8
66,1,object_02,object_04,665.345,2,1,507.41,0.2222222222222222,2,object_01,1,633,0,7,2,desert_16,1,memory-2step-stake-s,553,1838050,0.0-18.0-0.0-0.66,953,2,1
67,3,object_03,object_06,824.665,5,1,1092.715,0.8888888888888888,1,object_09,5,673,0,8,0,library_32,1,memory-2step-stake-s,554,1847203,0.0-18.0-0.0-0.67,953,5,6
68,3,object_03,object_06,625.07,5,1,441.475,0.8888888888888888,1,object_09,5,713,0,8,0,library_4,1,memory-2step-stake-s,555,1855708,0.0-18.0-0.0-0.68,953,5,6
69,3,object_03,object_06,1341.365,5,1,606.365,0.8888888888888888,1,object_09,5,753,0,8,0,library_2,1,memory-2step-stake-s,556,1864365,0.0-18.0-0.0-0.69,953,5,6
70,4,object_08,object_10,-1.0,-1,-1,-1.0,0.0,-,,5,753,0,8,1,restaurant_32,1,memory-2step-stake-s,557,1870887,0.0-18.0-0.0-0.70,953,7,8
71,2,object_05,object_07,1204.62,4,1,733.865,0.0,2,object_01,1,753,0,7,0,forest_4,1,memory-2step-stake-s,558,1878855,0.0-18.0-0.0-0.71,953,4,3
72,4,object_08,object_10,1304.475,7,1,578.12,0.7777777777777778,1,object_09,5,788,0,7,1,restaurant_29,1,memory-2step-stake-s,559,1887389,0.0-18.0-0.0-0.72,953,7,8
73,3,object_06,object_03,859.73,5,2,459.72,1.0,1,object_09,5,833,0,9,4,library_2,1,memory-2step-stake-s,560,1896015,0.0-18.0-0.0-0.73,953,6,5
74,2,object_07,object_05,1371.955,4,2,785.03,0.3333333333333333,2,object_01,1,836,0,6,3,forest_7,1,memory-2step-stake-s,561,1904344,0.0-18.0-0.0-0.74,953,3,4
75,1,object_02,object_04,740.67,2,1,948.08,0.5555555555555556,2,object_01,1,841,0,6,5,desert_20,1,memory-2step-stake-s,562,1913040,0.0-18.0-0.0-0.75,953,2,1
76,2,object_05,object_07,985.74,4,1,628.625,0.4444444444444444,2,object_01,1,845,0,2,4,forest_29,1,memory-2step-stake-s,563,1921310,0.0-18.0-0.0-0.76,953,4,3
77,1,object_02,object_04,1355.675,2,1,726.83,0.3333333333333333,2,object_01,1,848,0,3,3,desert_1,1,memory-2step-stake-s,564,1929571,0.0-18.0-0.0-0.77,953,2,1
78,1,object_04,object_02,1178.04,1,1,764.455,0.2222222222222222,1,object_09,5,858,0,2,4,desert_3,1,memory-2step-stake-s,565,1937771,0.0-18.0-0.0-0.78,953,1,2
79,3,object_03,object_06,1040.135,6,2,468.015,0.5555555555555556,2,object_01,5,883,0,2,5,library_28,1,memory-2step-stake-s,566,1945982,0.0-18.0-0.0-0.79,953,5,6
80,1,object_04,object_02,1096.195,2,2,540.24,0.5555555555555556,2,object_01,1,888,0,5,5,desert_3,1,memory-2step-stake-s,567,1954262,0.0-18.0-0.0-0.80,953,1,2
81,4,object_08,object_10,1142.735,7,1,447.96,0.4444444444444444,1,object_09,5,908,0,4,4,restaurant_29,1,memory-2step-stake-s,568,1962350,0.0-18.0-0.0-0.81,953,7,8
82,2,object_05,object_07,562.085,3,2,-1.0,0.0,1,object_09,1,908,0,1,5,forest_26,1,memory-2step-stake-s,569,1970885,0.0-18.0-0.0-0.82,953,4,3
83,3,object_06,object_03,433.585,6,1,501.48,0.6666666666666666,2,object_01,1,914,0,1,6,library_24,1,memory-2step-stake-s,570,1979231,0.0-18.0-0.0-0.83,953,6,5
84,1,object_02,object_04,555.51,2,1,581.895,0.4444444444444444,2,object_01,1,918,0,1,4,desert_5,1,memory-2step-stake-s,571,1987455,0.0-18.0-0.0-0.84,953,2,1
85,4,object_08,object_10,1392.85,8,2,1253.015,0.6666666666666666,2,object_01,5,948,0,1,6,restaurant_3,1,memory-2step-stake-s,572,1996559,0.0-18.0-0.0-0.85,953,7,8
86,4,object_08,object_10,637.095,7,1,762.515,0.1111111111111111,1,object_09,5,953,0,1,5,restaurant_21,1,memory-2step-stake-s,573,2004650,0.0-18.0-0.0-0.86,953,7,8
87,4,object_10,object_08,1335.905,8,1,670.85,0.8888888888888888,2,object_01,5,993,0,1,8,restaurant_1,1,memory-2step-stake-s,574,2013373,0.0-18.0-0.0-0.87,953,8,7
88,4,object_10,object_08,1376.81,8,1,777.735,0.7777777777777778,2,object_01,5,1028,0,2,7,restaurant_32,1,memory-2step-stake-s,575,2022103,0.0-18.0-0.0-0.88,953,8,7
89,4,object_10,object_08,941.245,8,1,974.245,0.6666666666666666,2,object_01,5,1058,0,4,6,restaurant_1,1,memory-2step-stake-s,576,2030934,0.0-18.0-0.0-0.89,953,8,7
90,2,object_05,object_07,950.695,3,2,776.675,0.5555555555555556,1,object_09,1,1063,0,5,5,forest_22,1,memory-2step-stake-s,577,2039453,0.0-18.0-0.0-0.90,953,4,3
91,2,object_07,object_05,333.61,3,1,425.585,0.6666666666666666,1,object_09,1,1069,0,6,5,forest_5,1,memory-2step-stake-s,578,2047727,0.0-18.0-0.0-0.91,953,3,4
92,4,object_08,object_10,1246.91,7,1,788.52,0.5555555555555556,1,object_09,1,1074,0,5,4,restaurant_20,1,memory-2step-stake-s,579,2056275,0.0-18.0-0.0-0.92,953,7,8
93,2,object_07,object_05,1152.62,4,2,813.11,0.7777777777777778,2,object_01,1,1081,0,3,7,forest_17,1,memory-2step-stake-s,580,2065029,0.0-18.0-0.0-0.93,953,3,4
94,2,object_07,object_05,-1.0,-1,-1,-1.0,0.0,-,,1,1081,0,1,6,forest_4,1,memory-2step-stake-s,581,2071541,0.0-18.0-0.0-0.94,953,3,4
95,1,object_02,object_04,1089.825,2,1,795.24,0.8888888888888888,2,object_01,1,1089,0,3,8,desert_5,1,memory-2step-stake-s,582,2080391,0.0-18.0-0.0-0.95,953,2,1
96,2,object_07,object_05,631.64,3,1,732.82,0.0,1,object_09,1,1089,0,0,8,forest_17,1,memory-2step-stake-s,583,2088350,0.0-18.0-0.0-0.96,953,3,4
97,3,object_03,object_06,730.45,5,1,669.79,0.0,1,object_09,5,1089,0,0,5,library_11,1,memory-2step-stake-s,584,2096248,0.0-18.0-0.0-0.97,953,5,6
98,4,object_10,object_08,1314.35,8,1,913.615,1.0,2,object_01,5,1134,0,1,9,restaurant_20,1,memory-2step-stake-s,585,2105316,0.0-18.0-0.0-0.98,953,8,7
99,2,object_07,object_05,867.325,4,2,799.645,0.7777777777777778,2,object_01,1,1141,0,5,7,forest_21,1,memory-2step-stake-s,586,2114061,0.0-18.0-0.0-0.99,953,3,4
100,3,object_03,object_06,626.385,5,1,650.48,0.2222222222222222,1,object_09,5,1151,0,2,8,library_12,1,memory-2step-stake-s,587,2122145,0.0-18.0-0.0-0.100,953,5,6
101,1,object_02,object_04,1385.95,2,1,637.105,1.0,2,object_01,1,1160,0,1,9,desert_27,1,memory-2step-stake-s,588,2130950,0.0-18.0-0.0-0.101,953,2,1
102,2,object_05,object_07,1317.96,4,1,697.345,0.7777777777777778,2,object_01,1,1167,0,0,7,forest_22,1,memory-2step-stake-s,589,2139603,0.0-18.0-0.0-0.102,953,4,3
103,1,object_04,object_02,1260.89,1,1,826.65,0.0,1,object_09,1,1167,0,0,6,desert_25,1,memory-2step-stake-s,590,2147660,0.0-18.0-0.0-0.103,953,1,2
104,3,object_03,object_06,1015.14,5,1,597.965,0.3333333333333333,1,object_09,5,1182,0,3,5,library_4,1,memory-2step-stake-s,591,2155796,0.0-18.0-0.0-0.104,953,5,6
105,4,object_08,object_10,676.33,7,1,506.155,0.2222222222222222,1,object_09,5,1192,0,2,4,restaurant_19,1,memory-2step-stake-s,592,2163736,0.0-18.0-0.0-0.105,953,7,8
106,4,object_08,object_10,791.46,7,1,909.005,0.2222222222222222,1,object_09,5,1202,0,2,3,restaurant_4,1,memory-2step-stake-s,593,2172076,0.0-18.0-0.0-0.106,953,7,8
107,1,object_02,object_04,617.47,1,2,637.975,0.2222222222222222,1,object_09,1,1204,0,2,2,desert_22,1,memory-2step-stake-s,594,2180151,0.0-18.0-0.0-0.107,953,2,1
108,3,object_03,object_06,1379.89,5,1,1244.965,0.2222222222222222,1,object_09,1,1206,0,2,5,library_12,1,memory-2step-stake-s,595,2188837,0.0-18.0-0.0-0.108,953,5,6
109,2,object_05,object_07,770.285,4,1,486.41,0.1111111111111111,2,object_01,1,1207,0,1,1,forest_27,1,memory-2step-stake-s,596,2196668,0.0-18.0-0.0-0.109,953,4,3
110,4,object_08,object_10,1097.35,8,2,630.895,0.1111111111111111,2,object_01,1,1208,0,2,1,restaurant_16,1,memory-2step-stake-s,597,2204629,0.0-18.0-0.0-0.110,953,7,8
111,3,object_03,object_06,1151.135,6,2,892.545,0.2222222222222222,2,object_01,5,1218,0,1,2,library_15,1,memory-2step-stake-s,598,2212963,0.0-18.0-0.0-0.111,953,5,6
112,3,object_03,object_06,975.945,5,1,430.63,0.0,1,object_09,5,1218,0,0,5,library_26,1,memory-2step-stake-s,599,2220625,0.0-18.0-0.0-0.112,953,5,6
113,4,object_10,object_08,1299.13,8,1,646.04,0.6666666666666666,2,object_01,5,1248,0,1,6,restaurant_12,1,memory-2step-stake-s,600,2229110,0.0-18.0-0.0-0.113,953,8,7
114,3,object_06,object_03,1159.66,6,1,782.385,0.5555555555555556,2,object_01,5,1273,0,4,5,library_10,1,memory-2step-stake-s,601,2237637,0.0-18.0-0.0-0.114,953,6,5
115,3,object_06,object_03,1192.09,6,1,795.195,0.6666666666666666,2,object_01,5,1303,0,6,6,library_32,1,memory-2step-stake-s,602,2246277,0.0-18.0-0.0-0.115,953,6,5
116,2,object_07,object_05,1460.54,4,2,824.09,0.7777777777777778,2,object_01,5,1338,0,6,7,forest_15,1,memory-2step-stake-s,603,2255057,0.0-18.0-0.0-0.116,953,3,4
117,1,object_04,object_02,1410.635,2,2,663.625,0.8888888888888888,2,object_01,5,1378,0,7,8,desert_5,1,memory-2step-stake-s,604,2263778,0.0-18.0-0.0-0.117,953,1,2
118,1,object_02,object_04,-1.0,-1,-1,-1.0,0.0,-,,1,1378,0,9,8,desert_31,1,memory-2step-stake-s,605,2270299,0.0-18.0-0.0-0.118,953,2,1
119,4,object_08,object_10,995.6,7,1,773.91,1.0,1,object_09,5,1423,0,9,8,restaurant_15,1,memory-2step-stake-s,606,2279242,0.0-18.0-0.0-0.119,953,7,8
120,3,object_06,object_03,1296.545,5,2,448.72,0.6666666666666666,1,object_09,5,1453,0,6,8,library_3,1,memory-2step-stake-s,607,2287545,0.0-18.0-0.0-0.120,953,6,5
121,1,object_02,object_04,934.855,1,2,341.87,0.5555555555555556,1,object_09,1,1458,0,5,7,desert_9,1,memory-2step-stake-s,608,2295637,0.0-18.0-0.0-0.121,953,2,1
122,1,object_02,object_04,984.855,2,1,688.345,0.8888888888888888,2,object_01,1,1466,0,7,8,desert_15,1,memory-2step-stake-s,609,2304384,0.0-18.0-0.0-0.122,953,2,1
123,4,object_10,object_08,1143.155,7,2,628.39,0.7777777777777778,1,object_09,5,1501,0,7,8,restaurant_16,1,memory-2step-stake-s,610,2312965,0.0-18.0-0.0-0.123,953,8,7
124,3,object_03,object_06,1113.79,5,1,768.12,0.6666666666666666,1,object_09,5,1531,0,6,7,library_26,1,memory-2step-stake-s,611,2321591,0.0-18.0-0.0-0.124,953,5,6
125,1,object_02,object_04,988.985,1,2,758.27,0.7777777777777778,1,object_09,1,1538,0,7,3,desert_27,1,memory-2step-stake-s,612,2330304,0.0-18.0-0.0-0.125,953,2,1
126,4,object_10,object_08,977.74,8,1,638.965,0.2222222222222222,2,object_01,5,1548,0,9,2,restaurant_19,1,memory-2step-stake-s,613,2338386,0.0-18.0-0.0-0.126,953,8,7
127,2,object_05,object_07,984.39,4,1,594.01,0.2222222222222222,2,object_01,1,1550,0,7,2,forest_16,1,memory-2step-stake-s,614,2346411,0.0-18.0-0.0-0.127,953,4,3
128,3,object_06,object_03,1227.01,6,1,505.865,0.5555555555555556,2,object_01,5,1575,0,5,5,library_5,1,memory-2step-stake-s,616,2519168,0.0-18.0-0.1-0.128,953,6,5
129,1,object_04,object_02,-1.0,-1,-1,-1.0,0.0,-,,1,1575,0,8,7,desert_32,1,memory-2step-stake-s,617,2525691,0.0-18.0-0.1-0.129,953,1,2
130,2,object_05,object_07,430.25,3,2,758.35,0.6666666666666666,1,object_09,1,1581,0,6,7,forest_5,1,memory-2step-stake-s,618,2534310,0.0-18.0-0.1-0.130,953,4,3
131,4,object_08,object_10,681.565,7,1,583.5,0.8888888888888888,1,object_09,5,1621,0,8,5,restaurant_10,1,memory-2step-stake-s,619,2542937,0.0-18.0-0.1-0.131,953,7,8
132,2,object_05,object_07,843.17,4,1,886.59,0.3333333333333333,2,object_01,1,1624,0,7,3,forest_30,1,memory-2step-stake-s,620,2551363,0.0-18.0-0.1-0.132,953,4,3
133,1,object_02,object_04,1302.495,2,1,753.1,0.6666666666666666,2,object_01,1,1630,0,7,6,desert_24,1,memory-2step-stake-s,621,2559962,0.0-18.0-0.1-0.133,953,2,1
134,2,object_07,object_05,1167.46,4,2,1139.995,0.7777777777777778,2,object_01,5,1665,0,7,7,forest_31,1,memory-2step-stake-s,622,2569055,0.0-18.0-0.1-0.134,953,3,4
135,2,object_07,object_05,1267.27,3,1,476.92,0.8888888888888888,1,object_09,1,1673,0,8,6,forest_7,1,memory-2step-stake-s,623,2577595,0.0-18.0-0.1-0.135,953,3,4
136,4,object_10,object_08,-1.0,-1,-1,-1.0,0.0,-,,1,1673,0,7,8,restaurant_26,1,memory-2step-stake-s,624,2584117,0.0-18.0-0.1-0.136,953,8,7
137,3,object_06,object_03,1012.55,6,1,599.44,1.0,2,object_01,5,1718,0,7,9,library_10,1,memory-2step-stake-s,625,2592872,0.0-18.0-0.1-0.137,953,6,5
138,1,object_02,object_04,666.88,1,2,518.77,0.5555555555555556,1,object_09,1,1723,0,5,9,desert_5,1,memory-2step-stake-s,626,2601131,0.0-18.0-0.1-0.138,953,2,1
139,3,object_06,object_03,507.5,6,1,685.84,0.8888888888888888,2,object_01,5,1763,0,4,8,library_24,1,memory-2step-stake-s,627,2609878,0.0-18.0-0.1-0.139,953,6,5
140,1,object_02,object_04,689.98,2,1,714.64,0.4444444444444444,2,object_01,1,1767,0,4,4,desert_11,1,memory-2step-stake-s,628,2618235,0.0-18.0-0.1-0.140,953,2,1
141,2,object_05,object_07,792.73,4,1,916.29,0.5555555555555556,2,object_01,1,1772,0,7,5,forest_5,1,memory-2step-stake-s,629,2626894,0.0-18.0-0.1-0.141,953,4,3
142,3,object_03,object_06,1074.805,6,2,579.735,0.7777777777777778,2,object_01,5,1807,0,9,7,library_18,1,memory-2step-stake-s,630,2635422,0.0-18.0-0.1-0.142,953,5,6
143,4,object_08,object_10,1175.37,7,1,1080.095,1.0,1,object_09,1,1816,0,9,6,restaurant_15,1,memory-2step-stake-s,631,2644668,0.0-18.0-0.1-0.143,953,7,8
144,3,object_03,object_06,705.37,5,1,503.7,0.6666666666666666,1,object_09,5,1846,0,6,7,library_6,1,memory-2step-stake-s,632,2653017,0.0-18.0-0.1-0.144,953,5,6
145,1,object_04,object_02,875.205,1,1,622.76,0.2222222222222222,1,object_09,5,1856,0,2,8,desert_11,1,memory-2step-stake-s,633,2661074,0.0-18.0-0.1-0.145,953,1,2
146,4,object_10,object_08,889.36,7,2,-1.0,0.0,1,object_09,1,1856,0,1,8,restaurant_2,1,memory-2step-stake-s,634,2669603,0.0-18.0-0.1-0.146,953,8,7
147,3,object_03,object_06,397.625,5,1,353.575,0.2222222222222222,1,object_09,5,1866,0,2,5,library_5,1,memory-2step-stake-s,635,2677393,0.0-18.0-0.1-0.147,953,5,6
148,3,object_06,object_03,1002.29,6,1,701.395,0.3333333333333333,2,object_01,1,1869,0,5,3,library_3,1,memory-2step-stake-s,636,2685640,0.0-18.0-0.1-0.148,953,6,5
149,1,object_04,object_02,1122.74,1,1,683.025,0.3333333333333333,1,object_09,1,1872,0,3,3,desert_1,1,memory-2step-stake-s,637,2693856,0.0-18.0-0.1-0.149,953,1,2
150,2,object_05,object_07,1288.24,3,2,617.33,0.3333333333333333,1,object_09,1,1875,0,3,4,forest_30,1,memory-2step-stake-s,638,2702013,0.0-18.0-0.1-0.150,953,4,3
151,2,object_05,object_07,1024.575,4,1,458.39,0.3333333333333333,2,object_01,1,1878,0,3,3,forest_10,1,memory-2step-stake-s,639,2710009,0.0-18.0-0.1-0.151,953,4,3
152,2,object_07,object_05,918.81,3,1,718.7,0.4444444444444444,1,object_09,5,1898,0,4,6,forest_29,1,memory-2step-stake-s,640,2718369,0.0-18.0-0.1-0.152,953,3,4
153,4,object_10,object_08,1161.025,8,1,491.99,0.7777777777777778,2,object_01,1,1905,0,7,7,restaurant_32,1,memory-2step-stake-s,641,2726816,0.0-18.0-0.1-0.153,953,8,7
154,1,object_04,object_02,904.695,2,2,503.555,0.7777777777777778,2,object_01,1,1912,0,8,7,desert_16,1,memory-2step-stake-s,642,2735279,0.0-18.0-0.1-0.154,953,1,2
155,2,object_07,object_05,1007.005,3,1,615.52,0.6666666666666666,1,object_09,1,1918,0,6,7,forest_26,1,memory-2step-stake-s,643,2743751,0.0-18.0-0.1-0.155,953,3,4
156,1,object_04,object_02,1108.355,1,1,558.835,0.6666666666666666,1,object_09,1,1924,0,6,8,desert_24,1,memory-2step-stake-s,644,2752160,0.0-18.0-0.1-0.156,953,1,2
157,4,object_10,object_08,960.715,7,2,406.82,0.6666666666666666,1,object_09,5,1954,0,6,8,restaurant_16,1,memory-2step-stake-s,645,2760424,0.0-18.0-0.1-0.157,953,8,7
158,2,object_07,object_05,1148.565,4,2,552.955,0.7777777777777778,2,object_01,1,1961,0,6,7,forest_7,1,memory-2step-stake-s,646,2768928,0.0-18.0-0.1-0.158,953,3,4
159,4,object_10,object_08,1119.295,8,1,787.55,0.8888888888888888,2,object_01,5,2001,0,4,8,restaurant_23,1,memory-2step-stake-s,647,2777773,0.0-18.0-0.1-0.159,953,8,7
160,4,object_10,object_08,853.335,8,1,561.16,0.7777777777777778,2,object_01,5,2036,0,2,7,restaurant_4,1,memory-2step-stake-s,648,2786292,0.0-18.0-0.1-0.160,953,8,7
161,2,object_05,object_07,1055.635,3,2,481.02,0.2222222222222222,1,object_09,1,2038,0,2,8,forest_31,1,memory-2step-stake-s,649,2794216,0.0-18.0-0.1-0.161,953,4,3
162,2,object_05,object_07,944.875,4,1,710.99,0.8888888888888888,2,object_01,1,2046,0,1,8,forest_4,1,memory-2step-stake-s,650,2802979,0.0-18.0-0.1-0.162,953,4,3
163,4,object_10,object_08,879.0,8,1,685.195,0.6666666666666666,2,object_01,5,2076,0,2,6,restaurant_29,1,memory-2step-stake-s,651,2811512,0.0-18.0-0.1-0.163,953,8,7
164,4,object_10,object_08,770.03,7,2,414.81,0.3333333333333333,1,object_09,1,2079,0,3,9,restaurant_23,1,memory-2step-stake-s,652,2819471,0.0-18.0-0.1-0.164,953,8,7
165,3,object_03,object_06,1293.75,5,1,760.915,0.2222222222222222,1,object_09,5,2089,0,2,7,library_2,1,memory-2step-stake-s,653,2827665,0.0-18.0-0.1-0.165,953,5,6
166,1,object_02,object_04,1137.195,2,1,453.91,0.8888888888888888,2,object_01,1,2097,0,4,8,desert_21,1,memory-2step-stake-s,654,2836172,0.0-18.0-0.1-0.166,953,2,1
167,1,object_02,object_04,1391.515,1,2,472.74,0.6666666666666666,1,object_09,1,2103,0,6,8,desert_15,1,memory-2step-stake-s,655,2844492,0.0-18.0-0.1-0.167,953,2,1
168,1,object_04,object_02,1201.98,1,1,393.025,0.5555555555555556,1,object_09,1,2108,0,5,8,desert_9,1,memory-2step-stake-s,656,2852628,0.0-18.0-0.1-0.168,953,1,2
169,2,object_07,object_05,1109.675,4,2,684.86,0.6666666666666666,2,object_01,1,2114,0,5,6,forest_22,1,memory-2step-stake-s,657,2861156,0.0-18.0-0.1-0.169,953,3,4
170,2,object_07,object_05,289.99,3,1,398.41,0.0,1,object_09,5,2114,0,0,7,forest_30,1,memory-2step-stake-s,658,2868785,0.0-18.0-0.1-0.170,953,3,4
171,3,object_06,object_03,1150.09,6,1,511.0,1.0,2,object_01,5,2159,0,3,9,library_18,1,memory-2step-stake-s,659,2877451,0.0-18.0-0.1-0.171,953,6,5
172,3,object_03,object_06,1165.515,6,2,535.8,0.8888888888888888,2,object_01,5,2199,0,3,8,library_15,1,memory-2step-stake-s,660,2886050,0.0-18.0-0.1-0.172,953,5,6
173,4,object_10,object_08,1019.99,8,1,656.495,0.8888888888888888,2,object_01,5,2239,0,3,8,restaurant_2,1,memory-2step-stake-s,661,2894755,0.0-18.0-0.1-0.173,953,8,7
174,4,object_08,object_10,1240.745,8,2,563.175,0.8888888888888888,2,object_01,5,2279,0,2,8,restaurant_10,1,memory-2step-stake-s,662,2903376,0.0-18.0-0.1-0.174,953,7,8
175,1,object_02,object_04,1123.47,2,1,800.855,0.7777777777777778,2,object_01,1,2286,0,6,7,desert_21,1,memory-2step-stake-s,663,2912126,0.0-18.0-0.1-0.175,953,2,1
176,3,object_06,object_03,771.215,6,1,509.15,0.8888888888888888,2,object_01,5,2326,0,8,8,library_11,1,memory-2step-stake-s,664,2920691,0.0-18.0-0.1-0.176,953,6,5
177,1,object_02,object_04,1315.83,1,2,483.25,0.8888888888888888,1,object_09,1,2334,0,8,8,desert_32,1,memory-2step-stake-s,665,2929222,0.0-18.0-0.1-0.177,953,2,1
178,2,object_05,object_07,877.21,4,1,418.14,0.7777777777777778,2,object_01,1,2341,0,9,7,forest_1,1,memory-2step-stake-s,666,2937601,0.0-18.0-0.1-0.178,953,4,3
179,4,object_10,object_08,734.165,7,2,340.85,1.0,1,object_09,5,2386,0,9,6,restaurant_2,1,memory-2step-stake-s,667,2946111,0.0-18.0-0.1-0.179,953,8,7
180,4,object_08,object_10,1349.355,7,1,532.075,1.0,1,object_09,5,2431,0,9,5,restaurant_19,1,memory-2step-stake-s,668,2954808,0.0-18.0-0.1-0.180,953,7,8
181,3,object_06,object_03,1117.505,5,2,797.94,1.0,1,object_09,5,2476,0,9,4,library_13,1,memory-2step-stake-s,669,2963769,0.0-18.0-0.1-0.181,953,6,5
182,3,object_06,object_03,729.545,6,1,827.49,0.3333333333333333,2,object_01,5,2491,0,8,3,library_13,1,memory-2step-stake-s,670,2972133,0.0-18.0-0.1-0.182,953,6,5
183,4,object_08,object_10,1156.365,7,1,464.35,0.3333333333333333,1,object_09,5,2506,0,3,1,restaurant_15,1,memory-2step-stake-s,671,2980141,0.0-18.0-0.1-0.183,953,7,8
184,1,object_02,object_04,882.02,2,1,372.305,0.1111111111111111,2,object_01,1,2507,0,1,1,desert_25,1,memory-2step-stake-s,672,2987847,0.0-18.0-0.1-0.184,953,2,1
185,2,object_05,object_07,830.56,3,2,812.37,0.0,1,object_09,5,2507,0,0,2,forest_27,1,memory-2step-stake-s,673,2995893,0.0-18.0-0.1-0.185,953,4,3
186,3,object_03,object_06,1411.915,5,1,511.74,0.0,1,object_09,1,2507,0,0,1,library_28,1,memory-2step-stake-s,674,3003639,0.0-18.0-0.1-0.186,953,5,6
187,3,object_06,object_03,1050.41,6,1,1331.645,0.3333333333333333,2,object_01,5,2522,0,0,3,library_12,1,memory-2step-stake-s,675,3012511,0.0-18.0-0.1-0.187,953,6,5
188,1,object_02,object_04,854.525,2,1,540.965,0.6666666666666666,2,object_01,5,2552,0,1,6,desert_24,1,memory-2step-stake-s,676,3020904,0.0-18.0-0.1-0.188,953,2,1
189,1,object_02,object_04,637.525,1,2,1013.89,0.4444444444444444,1,object_09,5,2572,0,4,7,desert_20,1,memory-2step-stake-s,677,3029564,0.0-18.0-0.1-0.189,953,2,1
190,4,object_10,object_08,830.965,7,2,413.665,0.0,1,object_09,1,2572,0,0,5,restaurant_21,1,memory-2step-stake-s,678,3037209,0.0-18.0-0.1-0.190,953,8,7
191,4,object_08,object_10,1172.935,7,1,412.775,0.1111111111111111,1,object_09,5,2577,0,1,2,restaurant_10,1,memory-2step-stake-s,679,3044963,0.0-18.0-0.1-0.191,953,7,8
192,3,object_06,object_03,1148.44,6,1,745.965,0.3333333333333333,2,object_01,1,2580,0,4,3,library_24,1,memory-2step-stake-s,680,3053251,0.0-18.0-0.1-0.192,953,6,5
193,3,object_06,object_03,631.975,5,2,387.045,0.5555555555555556,1,object_09,5,2605,0,5,3,library_11,1,memory-2step-stake-s,681,3061382,0.0-18.0-0.1-0.193,953,6,5
194,4,object_10,object_08,372.745,8,1,384.83,0.2222222222222222,2,object_01,5,2615,0,2,2,restaurant_26,1,memory-2step-stake-s,682,3069199,0.0-18.0-0.1-0.194,953,8,7
195,2,object_07,object_05,832.635,3,1,507.295,0.4444444444444444,1,object_09,5,2635,0,4,0,forest_10,1,memory-2step-stake-s,683,3077354,0.0-18.0-0.1-0.195,953,3,4
196,1,object_02,object_04,802.77,1,2,419.585,0.7777777777777778,1,object_09,1,2642,0,7,3,desert_31,1,memory-2step-stake-s,684,3085729,0.0-18.0-0.1-0.196,953,2,1
197,3,object_06,object_03,1213.995,5,2,513.5,0.7777777777777778,1,object_09,5,2677,0,7,2,library_5,1,memory-2step-stake-s,685,3094200,0.0-18.0-0.1-0.197,953,6,5
198,2,object_05,object_07,1156.975,4,1,594.585,0.6666666666666666,2,object_01,1,2683,0,4,6,forest_26,1,memory-2step-stake-s,686,3102645,0.0-18.0-0.1-0.198,953,4,3
199,2,object_05,object_07,914.07,4,1,798.47,0.7777777777777778,2,object_01,1,2690,0,4,7,forest_17,1,memory-2step-stake-s,687,3111395,0.0-18.0-0.1-0.199,953,4,3
200,3,object_03,object_06,872.755,6,2,589.105,0.8888888888888888,2,object_01,5,2730,0,6,8,library_13,1,memory-2step-stake-s,688,3120032,0.0-18.0-0.1-0.200,953,5,6
201,3,object_06,object_03,853.685,5,2,393.58,0.7777777777777778,1,object_09,5,2765,0,7,7,library_6,1,memory-2step-stake-s,689,3128378,0.0-18.0-0.1-0.201,953,6,5
202,1,object_04,object_02,975.225,2,2,684.005,0.5555555555555556,2,object_01,1,2770,0,8,5,desert_31,1,memory-2step-stake-s,690,3136799,0.0-18.0-0.1-0.202,953,1,2
203,1,object_02,object_04,1242.72,1,2,660.52,0.7777777777777778,1,object_09,5,2805,0,7,6,desert_32,1,memory-2step-stake-s,691,3145412,0.0-18.0-0.1-0.203,953,2,1
204,1,object_04,object_02,1459.55,1,1,600.23,0.6666666666666666,1,object_09,1,2811,0,6,5,desert_24,1,memory-2step-stake-s,692,3153866,0.0-18.0-0.1-0.204,953,1,2
205,1,object_04,object_02,1311.79,2,2,666.375,0.1111111111111111,2,object_01,1,2812,0,7,1,desert_27,1,memory-2step-stake-s,693,3161869,0.0-18.0-0.1-0.205,953,1,2
206,4,object_10,object_08,1319.915,7,2,412.675,1.0,1,object_09,5,2857,0,9,3,restaurant_12,1,memory-2step-stake-s,694,3170444,0.0-18.0-0.1-0.206,953,8,7
207,2,object_07,object_05,1184.475,3,1,885.085,0.8888888888888888,1,object_09,1,2865,0,8,0,forest_6,1,memory-2step-stake-s,695,3179386,0.0-18.0-0.1-0.207,953,3,4
208,4,object_10,object_08,926.615,8,1,411.185,0.2222222222222222,2,object_01,5,2875,0,9,2,restaurant_23,1,memory-2step-stake-s,696,3187243,0.0-18.0-0.1-0.208,953,8,7
209,2,object_07,object_05,843.92,4,2,1362.925,0.2222222222222222,2,object_01,1,2877,0,8,2,forest_29,1,memory-2step-stake-s,697,3196042,0.0-18.0-0.1-0.209,953,3,4
210,2,object_07,object_05,997.955,4,2,491.43,0.2222222222222222,2,object_01,1,2879,0,9,2,forest_15,1,memory-2step-stake-s,698,3203973,0.0-18.0-0.1-0.210,953,3,4
211,4,object_10,object_08,904.71,8,1,451.635,0.2222222222222222,2,object_01,5,2889,0,8,2,restaurant_4,1,memory-2step-stake-s,699,3211865,0.0-18.0-0.1-0.211,953,8,7
212,1,object_04,object_02,1455.6,2,2,1363.02,0.3333333333333333,2,object_01,1,2892,0,7,3,desert_21,1,memory-2step-stake-s,700,3220769,0.0-18.0-0.1-0.212,953,1,2
213,4,object_10,object_08,-1.0,-1,-1,-1.0,0.0,-,,5,2892,0,8,4,restaurant_3,1,memory-2step-stake-s,701,3227292,0.0-18.0-0.1-0.213,953,8,7
214,3,object_06,object_03,871.88,5,2,479.22,0.5555555555555556,1,object_09,5,2917,0,5,5,library_11,1,memory-2step-stake-s,702,3235524,0.0-18.0-0.1-0.214,953,6,5
215,3,object_03,object_06,1032.805,5,1,517.945,0.6666666666666666,1,object_09,5,2947,0,6,6,library_28,1,memory-2step-stake-s,703,3243884,0.0-18.0-0.1-0.215,953,5,6
216,2,object_07,object_05,846.58,3,1,609.075,0.7777777777777778,1,object_09,5,2982,0,7,8,forest_30,1,memory-2step-stake-s,704,3252453,0.0-18.0-0.1-0.216,953,3,4
217,3,object_03,object_06,835.87,5,1,540.17,0.6666666666666666,1,object_09,5,3012,0,6,6,library_3,1,memory-2step-stake-s,705,3260847,0.0-18.0-0.1-0.217,953,5,6
218,4,object_10,object_08,855.71,7,2,440.955,0.5555555555555556,1,object_09,5,3037,0,5,6,restaurant_21,1,memory-2step-stake-s,706,3269033,0.0-18.0-0.1-0.218,953,8,7
219,2,object_05,object_07,569.195,4,1,362.58,0.5555555555555556,2,object_01,1,3042,0,8,5,forest_16,1,memory-2step-stake-s,707,3277138,0.0-18.0-0.1-0.219,953,4,3
220,2,object_05,object_07,910.735,3,2,505.99,0.7777777777777778,1,object_09,5,3077,0,7,5,forest_16,1,memory-2step-stake-s,708,3285594,0.0-18.0-0.1-0.220,953,4,3
221,4,object_08,object_10,835.515,7,1,420.465,1.0,1,object_09,5,3122,0,9,2,restaurant_10,1,memory-2step-stake-s,709,3294185,0.0-18.0-0.1-0.221,953,7,8
222,4,object_08,object_10,1078.24,8,2,374.77,0.2222222222222222,2,object_01,1,3124,0,8,2,restaurant_1,1,memory-2step-stake-s,710,3301993,0.0-18.0-0.1-0.222,953,7,8
223,3,object_03,object_06,1247.23,5,1,641.21,0.8888888888888888,1,object_09,5,3164,0,8,1,library_10,1,memory-2step-stake-s,711,3310697,0.0-18.0-0.1-0.223,953,5,6
224,3,object_03,object_06,1273.425,6,2,547.695,0.2222222222222222,2,object_01,1,3166,0,5,2,library_32,1,memory-2step-stake-s,712,3318681,0.0-18.0-0.1-0.224,953,5,6
225,4,object_08,object_10,1279.765,8,2,398.145,0.4444444444444444,2,object_01,1,3170,0,7,4,restaurant_19,1,memory-2step-stake-s,713,3326717,0.0-18.0-0.1-0.225,953,7,8
226,2,object_05,object_07,773.125,4,1,375.315,0.7777777777777778,2,object_01,1,3177,0,4,7,forest_16,1,memory-2step-stake-s,714,3335042,0.0-18.0-0.1-0.226,953,4,3
227,4,object_10,object_08,800.875,7,2,426.9,0.3333333333333333,1,object_09,1,3180,0,3,9,restaurant_26,1,memory-2step-stake-s,715,3343012,0.0-18.0-0.1-0.227,953,8,7
228,2,object_07,object_05,711.32,3,1,496.9,0.4444444444444444,1,object_09,1,3184,0,4,7,forest_21,1,memory-2step-stake-s,716,3351156,0.0-18.0-0.1-0.228,953,3,4
229,4,object_08,object_10,732.16,7,1,461.97,0.3333333333333333,1,object_09,1,3187,0,3,6,restaurant_21,1,memory-2step-stake-s,717,3359157,0.0-18.0-0.1-0.229,953,7,8
230,2,object_07,object_05,885.435,3,1,605.54,0.3333333333333333,1,object_09,1,3190,0,3,4,forest_17,1,memory-2step-stake-s,718,3367305,0.0-18.0-0.1-0.230,953,3,4
231,1,object_04,object_02,1411.75,1,1,1033.6,0.2222222222222222,1,object_09,1,3192,0,2,2,desert_32,1,memory-2step-stake-s,719,3375778,0.0-18.0-0.1-0.231,953,1,2
232,3,object_06,object_03,986.955,6,1,376.945,0.1111111111111111,2,object_01,5,3197,0,2,1,library_17,1,memory-2step-stake-s,720,3383488,0.0-18.0-0.1-0.232,953,6,5
233,1,object_02,object_04,1052.345,2,1,408.43,0.1111111111111111,2,object_01,5,3202,0,3,1,desert_31,1,memory-2step-stake-s,721,3391233,0.0-18.0-0.1-0.233,953,2,1
234,2,object_05,object_07,1077.625,4,1,401.12,0.0,2,object_01,1,3202,0,2,0,forest_29,1,memory-2step-stake-s,722,3398861,0.0-18.0-0.1-0.234,953,4,3
235,3,object_06,object_03,868.485,6,1,513.62,0.3333333333333333,2,object_01,1,3205,0,2,3,library_18,1,memory-2step-stake-s,723,3406913,0.0-18.0-0.1-0.235,953,6,5
236,4,object_08,object_10,917.035,7,1,397.135,0.3333333333333333,1,object_09,5,3220,0,3,5,restaurant_23,1,memory-2step-stake-s,724,3414851,0.0-18.0-0.1-0.236,953,7,8
237,2,object_07,object_05,1426.495,3,1,471.555,0.6666666666666666,1,object_09,1,3226,0,6,4,forest_22,1,memory-2step-stake-s,725,3423181,0.0-18.0-0.1-0.237,953,3,4
238,3,object_03,object_06,835.885,5,1,415.715,0.8888888888888888,1,object_09,5,3266,0,8,3,library_32,1,memory-2step-stake-s,726,3431651,0.0-18.0-0.1-0.238,953,5,6
239,1,object_02,object_04,862.675,2,1,471.825,0.4444444444444444,2,object_01,1,3270,0,9,4,desert_20,1,memory-2step-stake-s,727,3439764,0.0-18.0-0.1-0.239,953,2,1
240,4,object_08,object_10,522.57,7,1,295.9,1.0,1,object_09,5,3315,0,9,7,restaurant_20,1,memory-2step-stake-s,728,3448224,0.0-18.0-0.1-0.240,953,7,8
241,2,object_05,object_07,961.195,4,1,401.215,0.8888888888888888,2,object_01,1,3323,0,7,8,forest_21,1,memory-2step-stake-s,729,3456683,0.0-18.0-0.1-0.241,953,4,3
242,3,object_06,object_03,803.175,6,1,376.31,0.7777777777777778,2,object_01,5,3358,0,5,7,library_17,1,memory-2step-stake-s,730,3465005,0.0-18.0-0.1-0.242,953,6,5
243,2,object_05,object_07,1015.995,3,2,434.265,0.5555555555555556,1,object_09,1,3363,0,5,9,forest_7,1,memory-2step-stake-s,731,3473184,0.0-18.0-0.1-0.243,953,4,3
244,1,object_02,object_04,910.21,1,2,493.11,0.8888888888888888,1,object_09,1,3371,0,8,8,desert_1,1,memory-2step-stake-s,732,3481732,0.0-18.0-0.1-0.244,953,2,1
245,4,object_08,object_10,810.2,7,1,381.815,0.6666666666666666,1,object_09,5,3401,0,6,7,restaurant_30,1,memory-2step-stake-s,733,3489959,0.0-18.0-0.1-0.245,953,7,8
246,4,object_08,object_10,842.975,8,2,387.245,0.5555555555555556,2,object_01,5,3426,0,6,5,restaurant_2,1,memory-2step-stake-s,734,3498096,0.0-18.0-0.1-0.246,953,7,8
247,4,object_08,object_10,698.675,7,1,328.665,0.0,1,object_09,5,3426,0,0,6,restaurant_16,1,memory-2step-stake-s,735,3505652,0.0-18.0-0.1-0.247,953,7,8
248,1,object_02,object_04,940.59,1,2,336.225,0.0,1,object_09,1,3426,0,0,6,desert_16,1,memory-2step-stake-s,736,3513214,0.0-18.0-0.1-0.248,953,2,1
249,3,object_06,object_03,1397.365,6,1,709.145,0.6666666666666666,2,object_01,5,3456,0,3,6,library_15,1,memory-2step-stake-s,737,3521766,0.0-18.0-0.1-0.249,953,6,5
250,1,object_04,object_02,997.035,1,1,441.9,0.1111111111111111,1,object_09,1,3457,0,1,6,desert_9,1,memory-2step-stake-s,738,3529536,0.0-18.0-0.1-0.250,953,1,2
251,3,object_06,object_03,776.325,6,1,404.615,1.0,2,object_01,5,3502,0,1,9,library_4,1,memory-2step-stake-s,739,3538105,0.0-18.0-0.1-0.251,953,6,5
252,1,object_04,object_02,1205.745,2,2,583.66,1.0,2,object_01,1,3511,0,3,9,desert_9,1,memory-2step-stake-s,740,3546846,0.0-18.0-0.1-0.252,953,1,2
253,4,object_10,object_08,749.555,8,1,366.23,1.0,2,object_01,5,3556,0,3,9,restaurant_32,1,memory-2step-stake-s,741,3555362,0.0-18.0-0.1-0.253,953,8,7
254,3,object_03,object_06,1339.25,6,2,469.68,0.4444444444444444,2,object_01,5,3576,0,5,4,library_26,1,memory-2step-stake-s,742,3563474,0.0-18.0-0.1-0.254,953,5,6
255,4,object_08,object_10,1029.665,8,2,431.495,0.6666666666666666,2,object_01,1,3582,0,1,6,restaurant_12,1,memory-2step-stake-s,743,3571764,0.0-18.0-0.1-0.255,953,7,8
