,state1,stim_left,stim_right,rt_1,choice1,response1,rt_2,points,state2,stim_state2,stake,score,practice,rews1,rews2,background,high_arm,trial_type,trial_index,time_elapsed,internal_node_id,subid,stim_left_num,stim_right_num
0,3,object_01,object_08,1464.81,6,1,-1.0,0.0,2,object_04,1,0,0,7,2,library_2,2,memory-2step-stake-s,493,954248,0.0-18.0-0.0-0.0,4417,6,5
1,1,object_03,object_06,-1.0,-1,-1,-1.0,0.0,-,,5,0,0,6,3,desert_10,2,memory-2step-stake-s,494,960772,0.0-18.0-0.0-0.1,4417,1,2
2,4,object_02,object_09,-1.0,-1,-1,-1.0,0.0,-,,1,0,0,9,3,restaurant_15,2,memory-2step-stake-s,495,967296,0.0-18.0-0.0-0.2,4417,7,8
3,2,object_05,object_07,854.3500002000001,4,1,668.97,0.5555555555555556,2,object_04,5,25,0,8,5,forest_23,2,memory-2step-stake-s,496,975715,0.0-18.0-0.0-0.3,4417,4,3
4,2,object_07,object_05,866.7049999,4,2,1112.325,0.3333333333333333,2,object_04,5,40,0,9,3,forest_1,2,memory-2step-stake-s,497,984370,0.0-18.0-0.0-0.4,4417,3,4
5,2,object_07,object_05,-1.0,-1,-1,-1.0,0.0,-,,5,40,0,7,6,forest_29,2,memory-2step-stake-s,498,990896,0.0-18.0-0.0-0.5,4417,3,4
6,3,object_01,object_08,1129.925,6,1,776.0449997000001,0.5555555555555556,2,object_04,1,45,0,5,5,library_12,2,memory-2step-stake-s,499,999416,0.0-18.0-0.0-0.6,4417,6,5
7,3,object_01,object_08,973.8100002999998,6,1,555.1399997999999,0.5555555555555556,2,object_04,1,50,0,6,5,library_14,2,memory-2step-stake-s,500,1007718,0.0-18.0-0.0-0.7,4417,6,5
8,1,object_03,object_06,1002.445,2,2,639.7950002,0.4444444444444444,2,object_04,5,70,0,5,4,desert_27,2,memory-2step-stake-s,501,1016008,0.0-18.0-0.0-0.8,4417,1,2
9,3,object_01,object_08,672.9199997999999,5,2,546.6450001000001,0.7777777777777778,1,object_10,1,77,0,7,6,library_25,2,memory-2step-stake-s,502,1024513,0.0-18.0-0.0-0.9,4417,6,5
10,1,object_03,object_06,848.1600001,1,1,690.4699998,1.0,1,object_10,5,122,0,9,4,desert_22,2,memory-2step-stake-s,503,1033378,0.0-18.0-0.0-0.10,4417,1,2
11,2,object_07,object_05,1013.195,4,2,517.4699998,0.2222222222222222,2,object_04,5,132,0,8,2,forest_8,2,memory-2step-stake-s,504,1041336,0.0-18.0-0.0-0.11,4417,3,4
12,4,object_02,object_09,1077.655,7,1,713.24,1.0,1,object_10,1,141,0,9,4,restaurant_25,2,memory-2step-stake-s,505,1050206,0.0-18.0-0.0-0.12,4417,7,8
13,2,object_05,object_07,1181.105,3,2,715.8349999,0.8888888888888888,1,object_10,5,181,0,8,6,forest_9,2,memory-2step-stake-s,506,1058981,0.0-18.0-0.0-0.13,4417,4,3
14,3,object_08,object_01,1136.36,5,1,618.9900002999999,0.7777777777777778,1,object_10,5,216,0,7,6,library_25,2,memory-2step-stake-s,507,1067564,0.0-18.0-0.0-0.14,4417,5,6
15,1,object_06,object_03,838.6249999,1,2,599.2799997000001,1.0,1,object_10,5,261,0,9,8,desert_29,2,memory-2step-stake-s,508,1076318,0.0-18.0-0.0-0.15,4417,2,1
16,1,object_03,object_06,888.4900002999999,1,1,593.2050002999999,1.0,1,object_10,5,306,0,9,7,desert_20,2,memory-2step-stake-s,509,1085069,0.0-18.0-0.0-0.16,4417,1,2
17,3,object_01,object_08,1047.93,5,2,713.5749999,0.7777777777777778,1,object_10,1,313,0,7,2,library_10,2,memory-2step-stake-s,510,1093733,0.0-18.0-0.0-0.17,4417,6,5
18,1,object_03,object_06,575.89,1,1,622.7449998,1.0,1,object_10,5,358,0,9,3,desert_14,2,memory-2step-stake-s,511,1102527,0.0-18.0-0.0-0.18,4417,1,2
19,4,object_09,object_02,735.6149997,7,2,605.2549998,0.7777777777777778,1,object_10,5,393,0,7,5,restaurant_14,2,memory-2step-stake-s,512,1111091,0.0-18.0-0.0-0.19,4417,8,7
20,1,object_03,object_06,605.955,1,1,505.0400002,0.2222222222222222,1,object_10,5,403,0,2,3,desert_3,2,memory-2step-stake-s,513,1119033,0.0-18.0-0.0-0.20,4417,1,2
21,1,object_03,object_06,498.67999969999994,1,1,810.9050002,0.2222222222222222,1,object_10,5,413,0,2,3,desert_9,2,memory-2step-stake-s,514,1127282,0.0-18.0-0.0-0.21,4417,1,2
22,2,object_05,object_07,1483.12,3,2,960.1099998999999,0.1111111111111111,1,object_10,1,414,0,1,5,forest_12,2,memory-2step-stake-s,515,1135572,0.0-18.0-0.0-0.22,4417,4,3
23,3,object_08,object_01,765.7550001,6,2,669.15,0.8888888888888888,2,object_04,1,422,0,3,8,library_31,2,memory-2step-stake-s,516,1144295,0.0-18.0-0.0-0.23,4417,5,6
24,4,object_02,object_09,1088.185,8,2,744.19,0.6666666666666666,2,object_04,5,452,0,4,6,restaurant_26,2,memory-2step-stake-s,517,1152888,0.0-18.0-0.0-0.24,4417,7,8
25,1,object_03,object_06,714.5599998,2,2,-1.0,0.0,2,object_04,1,452,0,3,7,desert_19,2,memory-2step-stake-s,518,1161412,0.0-18.0-0.0-0.25,4417,1,2
26,3,object_01,object_08,805.7749997999999,6,1,387.2750001,0.8888888888888888,2,object_04,1,460,0,7,8,library_27,2,memory-2step-stake-s,519,1169851,0.0-18.0-0.0-0.26,4417,6,5
27,1,object_06,object_03,953.7799995999999,2,1,560.5049999,0.7777777777777778,2,object_04,5,495,0,6,7,desert_4,2,memory-2step-stake-s,520,1178363,0.0-18.0-0.0-0.27,4417,2,1
28,1,object_03,object_06,902.3150001,1,1,1458.445,0.7777777777777778,1,object_10,5,530,0,7,5,desert_21,2,memory-2step-stake-s,521,1187778,0.0-18.0-0.0-0.28,4417,1,2
29,2,object_07,object_05,863.9849997000001,3,1,583.6899998,0.8888888888888888,1,object_10,5,570,0,8,4,forest_2,2,memory-2step-stake-s,522,1196410,0.0-18.0-0.0-0.29,4417,3,4
30,3,object_01,object_08,874.7749999,5,2,396.375,0.6666666666666666,1,object_10,1,576,0,6,4,library_22,2,memory-2step-stake-s,523,1204647,0.0-18.0-0.0-0.30,4417,6,5
31,4,object_02,object_09,735.475,7,1,367.8250001,0.8888888888888888,1,object_10,1,584,0,8,3,restaurant_14,2,memory-2step-stake-s,524,1213073,0.0-18.0-0.0-0.31,4417,7,8
32,2,object_05,object_07,978.4050002,4,1,608.7199999,0.7777777777777778,2,object_04,1,591,0,3,7,forest_8,2,memory-2step-stake-s,525,1221633,0.0-18.0-0.0-0.32,4417,4,3
33,3,object_01,object_08,1269.885,5,2,606.0799998,0.0,1,object_10,1,591,0,0,6,library_8,2,memory-2step-stake-s,526,1229476,0.0-18.0-0.0-0.33,4417,6,5
34,3,object_08,object_01,665.3100001,6,2,423.9349999,0.7777777777777778,2,object_04,5,626,0,1,7,library_31,2,memory-2step-stake-s,527,1237845,0.0-18.0-0.0-0.34,4417,5,6
35,4,object_09,object_02,1153.545,8,1,415.4099999,1.0,2,object_04,1,635,0,0,9,restaurant_21,2,memory-2step-stake-s,528,1246436,0.0-18.0-0.0-0.35,4417,8,7
36,4,object_09,object_02,887.7299995999999,7,2,585.2649999,0.2222222222222222,1,object_10,1,637,0,2,7,restaurant_3,2,memory-2step-stake-s,529,1254454,0.0-18.0-0.0-0.36,4417,8,7
37,4,object_02,object_09,631.0999999,8,2,167.13,0.6666666666666666,2,object_04,1,643,0,1,6,restaurant_4,2,memory-2step-stake-s,530,1262478,0.0-18.0-0.0-0.37,4417,7,8
38,1,object_03,object_06,890.2500002,2,2,653.7550003,0.8888888888888888,2,object_04,5,683,0,3,8,desert_4,2,memory-2step-stake-s,531,1271192,0.0-18.0-0.0-0.38,4417,1,2
39,3,object_01,object_08,741.5700001,6,1,551.6550001,0.7777777777777778,2,object_04,1,690,0,3,7,library_1,2,memory-2step-stake-s,532,1279691,0.0-18.0-0.0-0.39,4417,6,5
40,2,object_05,object_07,747.1949998,3,2,565.2400004,0.3333333333333333,1,object_10,5,705,0,3,8,forest_12,2,memory-2step-stake-s,533,1287800,0.0-18.0-0.0-0.40,4417,4,3
41,1,object_03,object_06,1397.015,1,1,586.53,0.1111111111111111,1,object_10,5,710,0,1,4,desert_13,2,memory-2step-stake-s,534,1295719,0.0-18.0-0.0-0.41,4417,1,2
42,1,object_03,object_06,579.69,2,2,400.2399999,0.2222222222222222,2,object_04,5,720,0,1,2,desert_13,2,memory-2step-stake-s,535,1303556,0.0-18.0-0.0-0.42,4417,1,2
43,3,object_01,object_08,1020.025,5,2,554.3299997,0.1111111111111111,1,object_10,1,721,0,1,4,library_8,2,memory-2step-stake-s,536,1311445,0.0-18.0-0.0-0.43,4417,6,5
44,4,object_09,object_02,960.1199999,8,1,642.2599996,0.1111111111111111,2,object_04,1,722,0,3,1,restaurant_13,2,memory-2step-stake-s,537,1319416,0.0-18.0-0.0-0.44,4417,8,7
45,4,object_02,object_09,808.4899997,7,1,426.10500010000004,0.5555555555555556,1,object_10,1,727,0,5,6,restaurant_25,2,memory-2step-stake-s,538,1327595,0.0-18.0-0.0-0.45,4417,7,8
46,3,object_08,object_01,1190.885,6,2,426.0500004,1.0,2,object_04,5,772,0,7,9,library_10,2,memory-2step-stake-s,539,1336169,0.0-18.0-0.0-0.46,4417,5,6
47,1,object_06,object_03,1008.11,1,2,676.4549999,0.3333333333333333,1,object_10,5,787,0,3,7,desert_20,2,memory-2step-stake-s,540,1344383,0.0-18.0-0.0-0.47,4417,2,1
48,4,object_02,object_09,1147.325,8,2,569.6300003,0.8888888888888888,2,object_04,1,795,0,4,8,restaurant_17,2,memory-2step-stake-s,541,1353010,0.0-18.0-0.0-0.48,4417,7,8
49,2,object_05,object_07,966.3199997000002,4,1,693.1100002999999,0.6666666666666666,2,object_04,5,825,0,2,6,forest_7,2,memory-2step-stake-s,542,1361551,0.0-18.0-0.0-0.49,4417,4,3
50,2,object_05,object_07,1029.915,4,1,595.0700003,0.6666666666666666,2,object_04,1,831,0,4,6,forest_9,2,memory-2step-stake-s,543,1369987,0.0-18.0-0.0-0.50,4417,4,3
51,2,object_07,object_05,714.1400003,3,1,499.56500020000004,0.3333333333333333,1,object_10,1,834,0,3,2,forest_1,2,memory-2step-stake-s,544,1378024,0.0-18.0-0.0-0.51,4417,3,4
52,1,object_03,object_06,952.7500002,2,2,348.7899997,0.3333333333333333,2,object_04,5,849,0,4,3,desert_25,2,memory-2step-stake-s,545,1385919,0.0-18.0-0.0-0.52,4417,1,2
53,3,object_08,object_01,858.9599999,5,1,378.4750002,0.6666666666666666,1,object_10,5,879,0,6,3,library_10,2,memory-2step-stake-s,546,1394158,0.0-18.0-0.0-0.53,4417,5,6
54,2,object_07,object_05,1038.75,4,2,546.8450002000001,0.3333333333333333,2,object_04,5,894,0,5,3,forest_1,2,memory-2step-stake-s,547,1402242,0.0-18.0-0.0-0.54,4417,3,4
55,2,object_07,object_05,829.3400002000001,3,1,405.3450003,0.8888888888888888,1,object_10,5,934,0,8,2,forest_7,2,memory-2step-stake-s,548,1410701,0.0-18.0-0.0-0.55,4417,3,4
56,3,object_01,object_08,1128.145,6,1,427.18000010000003,0.5555555555555556,2,object_04,1,939,0,7,5,library_23,2,memory-2step-stake-s,549,1418875,0.0-18.0-0.0-0.56,4417,6,5
57,2,object_05,object_07,1109.835,3,2,894.1350002,0.2222222222222222,1,object_10,1,941,0,2,2,forest_10,2,memory-2step-stake-s,550,1427206,0.0-18.0-0.0-0.57,4417,4,3
58,3,object_01,object_08,856.5500001,6,1,372.825,0.1111111111111111,2,object_04,1,942,0,3,1,library_23,2,memory-2step-stake-s,551,1434909,0.0-18.0-0.0-0.58,4417,6,5
59,4,object_09,object_02,629.615,7,2,617.6399997999999,0.2222222222222222,1,object_10,1,944,0,2,1,restaurant_27,2,memory-2step-stake-s,552,1442961,0.0-18.0-0.0-0.59,4417,8,7
60,4,object_02,object_09,699.5000001,7,1,370.015,0.1111111111111111,1,object_10,1,945,0,1,0,restaurant_28,2,memory-2step-stake-s,553,1450666,0.0-18.0-0.0-0.60,4417,7,8
61,3,object_01,object_08,632.1900003,5,2,424.85500030000003,0.4444444444444444,1,object_10,1,949,0,4,0,library_8,2,memory-2step-stake-s,554,1458728,0.0-18.0-0.0-0.61,4417,6,5
62,4,object_02,object_09,1174.62,7,1,686.8400001,0.4444444444444444,1,object_10,1,953,0,4,2,restaurant_4,2,memory-2step-stake-s,555,1467047,0.0-18.0-0.0-0.62,4417,7,8
63,4,object_02,object_09,1186.62,8,2,495.44999979999994,0.1111111111111111,2,object_04,5,958,0,4,1,restaurant_20,2,memory-2step-stake-s,556,1474883,0.0-18.0-0.0-0.63,4417,7,8
64,1,object_03,object_06,1415.855,1,1,477.31,0.4444444444444444,1,object_10,5,978,0,4,1,desert_26,2,memory-2step-stake-s,557,1483011,0.0-18.0-0.0-0.64,4417,1,2
65,1,object_06,object_03,1391.975,1,2,405.795,0.4444444444444444,1,object_10,5,998,0,4,0,desert_27,2,memory-2step-stake-s,558,1491048,0.0-18.0-0.0-0.65,4417,2,1
66,4,object_02,object_09,721.7699997000001,8,2,369.5100001,0.0,2,object_04,1,998,0,6,0,restaurant_14,2,memory-2step-stake-s,559,1498644,0.0-18.0-0.0-0.66,4417,7,8
67,1,object_03,object_06,1235.555,1,1,344.5649999,0.5555555555555556,1,object_10,5,1023,0,5,3,desert_3,2,memory-2step-stake-s,560,1506731,0.0-18.0-0.0-0.67,4417,1,2
68,2,object_05,object_07,866.835,3,2,453.24999979999996,1.0,1,object_10,5,1068,0,9,1,forest_10,2,memory-2step-stake-s,561,1515345,0.0-18.0-0.0-0.68,4417,4,3
69,3,object_01,object_08,1152.935,5,2,649.9050003,1.0,1,object_10,1,1077,0,9,2,library_2,2,memory-2step-stake-s,562,1524163,0.0-18.0-0.0-0.69,4417,6,5
70,1,object_03,object_06,1195.605,1,1,373.2650001,1.0,1,object_10,5,1122,0,9,3,desert_9,2,memory-2step-stake-s,563,1532709,0.0-18.0-0.0-0.70,4417,1,2
71,4,object_09,object_02,652.7100001,7,2,322.51999989999996,0.8888888888888888,1,object_10,5,1162,0,8,3,restaurant_20,2,memory-2step-stake-s,564,1541091,0.0-18.0-0.0-0.71,4417,8,7
72,1,object_06,object_03,786.0000003,2,1,396.9950001,0.3333333333333333,2,object_04,1,1165,0,7,3,desert_27,2,memory-2step-stake-s,565,1549027,0.0-18.0-0.0-0.72,4417,2,1
73,4,object_02,object_09,737.58,7,1,362.23000010000004,0.8888888888888888,1,object_10,1,1173,0,8,2,restaurant_32,2,memory-2step-stake-s,566,1557446,0.0-18.0-0.0-0.73,4417,7,8
74,2,object_07,object_05,546.4349999,3,1,323.2750003,0.7777777777777778,1,object_10,5,1208,0,7,4,forest_29,2,memory-2step-stake-s,567,1565728,0.0-18.0-0.0-0.74,4417,3,4
75,3,object_01,object_08,604.8050001,6,1,333.2350003,0.3333333333333333,2,object_04,1,1211,0,9,3,library_25,2,memory-2step-stake-s,568,1573600,0.0-18.0-0.0-0.75,4417,6,5
76,3,object_08,object_01,619.2300002999999,5,1,406.4500001,0.5555555555555556,1,object_10,1,1216,0,5,6,library_26,2,memory-2step-stake-s,569,1581756,0.0-18.0-0.0-0.76,4417,5,6
77,1,object_03,object_06,1140.43,2,2,339.28000039999995,0.6666666666666666,2,object_04,5,1246,0,4,6,desert_13,2,memory-2step-stake-s,570,1589947,0.0-18.0-0.0-0.77,4417,1,2
78,4,object_09,object_02,1162.565,8,1,309.2999998,0.7777777777777778,2,object_04,1,1253,0,8,7,restaurant_13,2,memory-2step-stake-s,571,1598220,0.0-18.0-0.0-0.78,4417,8,7
79,3,object_01,object_08,815.2749999,5,2,359.29000010000004,0.7777777777777778,1,object_10,1,1260,0,7,5,library_31,2,memory-2step-stake-s,572,1606544,0.0-18.0-0.0-0.79,4417,6,5
80,1,object_06,object_03,893.3400004000001,2,1,372.5300003,1.0,2,object_04,5,1305,0,8,9,desert_25,2,memory-2step-stake-s,573,1615078,0.0-18.0-0.0-0.80,4417,2,1
81,1,object_03,object_06,829.2100001,1,1,328.89,0.8888888888888888,1,object_10,5,1345,0,8,9,desert_26,2,memory-2step-stake-s,574,1623472,0.0-18.0-0.0-0.81,4417,1,2
82,4,object_09,object_02,628.7000002,7,2,280.2849999,0.5555555555555556,1,object_10,5,1370,0,5,4,restaurant_3,2,memory-2step-stake-s,575,1631507,0.0-18.0-0.0-0.82,4417,8,7
83,4,object_02,object_09,907.2500002,8,2,370.47,0.5555555555555556,2,object_04,1,1375,0,3,5,restaurant_6,2,memory-2step-stake-s,576,1639628,0.0-18.0-0.0-0.83,4417,7,8
84,3,object_01,object_08,1391.79,6,1,384.7449999,0.5555555555555556,2,object_04,5,1400,0,3,5,library_26,2,memory-2step-stake-s,577,1647755,0.0-18.0-0.0-0.84,4417,6,5
85,1,object_03,object_06,1241.87,1,1,317.975,0.4444444444444444,1,object_10,5,1420,0,4,5,desert_10,2,memory-2step-stake-s,578,1655720,0.0-18.0-0.0-0.85,4417,1,2
86,3,object_08,object_01,730.3800001,6,2,358.0049998,0.3333333333333333,2,object_04,1,1423,0,1,3,library_7,2,memory-2step-stake-s,579,1663621,0.0-18.0-0.0-0.86,4417,5,6
87,2,object_05,object_07,742.2250002000001,3,2,647.595,0.1111111111111111,1,object_10,5,1428,0,1,4,forest_4,2,memory-2step-stake-s,580,1671603,0.0-18.0-0.0-0.87,4417,4,3
88,3,object_01,object_08,1342.41,6,1,612.805,0.4444444444444444,2,object_04,1,1432,0,3,4,library_1,2,memory-2step-stake-s,581,1679864,0.0-18.0-0.0-0.88,4417,6,5
89,3,object_01,object_08,944.0549999,5,2,457.7799998,0.2222222222222222,1,object_10,1,1434,0,2,4,library_19,2,memory-2step-stake-s,582,1687761,0.0-18.0-0.0-0.89,4417,6,5
90,3,object_01,object_08,524.7649997,6,1,441.32000020000004,0.5555555555555556,2,object_04,1,1439,0,2,5,library_27,2,memory-2step-stake-s,583,1695955,0.0-18.0-0.0-0.90,4417,6,5
91,2,object_05,object_07,577.4349999,4,1,378.4050001,0.5555555555555556,2,object_04,5,1464,0,4,5,forest_3,2,memory-2step-stake-s,584,1704083,0.0-18.0-0.0-0.91,4417,4,3
92,1,object_03,object_06,849.1099998,2,2,371.6700003,0.7777777777777778,2,object_04,5,1499,0,6,7,desert_29,2,memory-2step-stake-s,585,1712419,0.0-18.0-0.0-0.92,4417,1,2
93,4,object_02,object_09,746.7399998999999,8,2,500.8199996999999,0.5555555555555556,2,object_04,5,1524,0,6,5,restaurant_32,2,memory-2step-stake-s,586,1720668,0.0-18.0-0.0-0.93,4417,7,8
94,2,object_07,object_05,658.5299997000001,4,2,353.135,0.8888888888888888,2,object_04,5,1564,0,4,8,forest_19,2,memory-2step-stake-s,587,1729074,0.0-18.0-0.0-0.94,4417,3,4
95,2,object_07,object_05,1160.78,4,2,402.0599998,0.7777777777777778,2,object_04,5,1599,0,2,7,forest_3,2,memory-2step-stake-s,588,1737428,0.0-18.0-0.0-0.95,4417,3,4
96,2,object_05,object_07,914.6200004000001,4,1,358.455,0.7777777777777778,2,object_04,5,1634,0,2,7,forest_18,2,memory-2step-stake-s,589,1745746,0.0-18.0-0.0-0.96,4417,4,3
97,3,object_01,object_08,517.8499999,5,2,348.4700001,0.0,1,object_10,1,1634,0,0,7,library_17,2,memory-2step-stake-s,590,1753320,0.0-18.0-0.0-0.97,4417,6,5
98,1,object_06,object_03,928.3250002,2,1,397.285,0.7777777777777778,2,object_04,1,1641,0,3,7,desert_13,2,memory-2step-stake-s,591,1761676,0.0-18.0-0.0-0.98,4417,2,1
99,3,object_01,object_08,1169.115,5,2,393.65499980000004,0.6666666666666666,1,object_10,1,1647,0,6,7,library_7,2,memory-2step-stake-s,592,1769919,0.0-18.0-0.0-0.99,4417,6,5
100,4,object_09,object_02,759.7499997,7,2,348.305,0.7777777777777778,1,object_10,5,1682,0,7,7,restaurant_26,2,memory-2step-stake-s,593,1778221,0.0-18.0-0.0-0.100,4417,8,7
101,1,object_06,object_03,969.9800001,1,2,402.3799999,0.3333333333333333,1,object_10,5,1697,0,3,7,desert_3,2,memory-2step-stake-s,594,1786159,0.0-18.0-0.0-0.101,4417,2,1
102,4,object_09,object_02,590.88,8,1,317.7799997,0.7777777777777778,2,object_04,1,1704,0,3,7,restaurant_15,2,memory-2step-stake-s,595,1794434,0.0-18.0-0.0-0.102,4417,8,7
103,2,object_07,object_05,1062.505,4,2,327.2450003,0.7777777777777778,2,object_04,5,1739,0,2,7,forest_12,2,memory-2step-stake-s,596,1802717,0.0-18.0-0.0-0.103,4417,3,4
104,4,object_02,object_09,800.4199997999999,8,2,346.8799996,1.0,2,object_04,1,1748,0,1,9,restaurant_25,2,memory-2step-stake-s,597,1811229,0.0-18.0-0.0-0.104,4417,7,8
105,1,object_06,object_03,864.6050002000001,2,1,237.56500010000002,0.8888888888888888,2,object_04,5,1788,0,3,8,desert_16,2,memory-2step-stake-s,598,1819530,0.0-18.0-0.0-0.105,4417,2,1
106,3,object_01,object_08,429.79,5,2,303.4750004,0.5555555555555556,1,object_10,1,1793,0,5,7,library_8,2,memory-2step-stake-s,599,1827576,0.0-18.0-0.0-0.106,4417,6,5
107,4,object_09,object_02,822.3049999,8,1,295.74,0.7777777777777778,2,object_04,1,1800,0,6,7,restaurant_27,2,memory-2step-stake-s,600,1835823,0.0-18.0-0.0-0.107,4417,8,7
108,1,object_06,object_03,588.525,2,1,316.66499980000003,0.6666666666666666,2,object_04,5,1830,0,5,6,desert_20,2,memory-2step-stake-s,601,1843999,0.0-18.0-0.0-0.108,4417,2,1
109,4,object_09,object_02,872.4099997999999,7,2,374.8850003,0.8888888888888888,1,object_10,1,1838,0,8,5,restaurant_4,2,memory-2step-stake-s,602,1852437,0.0-18.0-0.0-0.109,4417,8,7
110,3,object_01,object_08,698.1250001,6,1,321.09000019999996,0.5555555555555556,2,object_04,1,1843,0,8,5,library_17,2,memory-2step-stake-s,603,1860510,0.0-18.0-0.0-0.110,4417,6,5
111,4,object_02,object_09,713.0150003,7,1,309.22000019999996,1.0,1,object_10,1,1852,0,9,7,restaurant_27,2,memory-2step-stake-s,604,1868982,0.0-18.0-0.0-0.111,4417,7,8
112,4,object_09,object_02,560.2750001,7,2,306.3449999,0.5555555555555556,1,object_10,1,1857,0,5,8,restaurant_28,2,memory-2step-stake-s,605,1877041,0.0-18.0-0.0-0.112,4417,8,7
113,3,object_01,object_08,585.8,6,1,457.07,0.7777777777777778,2,object_04,1,1864,0,7,7,library_12,2,memory-2step-stake-s,606,1885459,0.0-18.0-0.0-0.113,4417,6,5
114,4,object_02,object_09,1197.25,8,2,395.7350003,0.6666666666666666,2,object_04,1,1870,0,8,6,restaurant_6,2,memory-2step-stake-s,607,1893703,0.0-18.0-0.0-0.114,4417,7,8
115,2,object_05,object_07,874.4449997000002,3,2,384.74000010000003,0.8888888888888888,1,object_10,1,1878,0,8,6,forest_4,2,memory-2step-stake-s,608,1902138,0.0-18.0-0.0-0.115,4417,4,3
116,2,object_05,object_07,830.3749999,4,1,309.96000019999997,0.4444444444444444,2,object_04,5,1898,0,5,4,forest_11,2,memory-2step-stake-s,609,1910091,0.0-18.0-0.0-0.116,4417,4,3
117,1,object_06,object_03,742.4000003,1,2,263.9349997,0.8888888888888888,1,object_10,5,1938,0,8,5,desert_25,2,memory-2step-stake-s,610,1918416,0.0-18.0-0.0-0.117,4417,2,1
118,3,object_01,object_08,752.57,6,1,119.165,0.5555555555555556,2,object_04,1,1943,0,8,5,library_5,2,memory-2step-stake-s,611,1926288,0.0-18.0-0.0-0.118,4417,6,5
119,3,object_08,object_01,488.09999969999996,5,1,405.65500039999995,0.8888888888888888,1,object_10,1,1951,0,8,4,library_1,2,memory-2step-stake-s,612,1934759,0.0-18.0-0.0-0.119,4417,5,6
120,4,object_09,object_02,766.665,8,1,330.91,0.4444444444444444,2,object_04,1,1955,0,5,4,restaurant_17,2,memory-2step-stake-s,613,1942740,0.0-18.0-0.0-0.120,4417,8,7
121,4,object_02,object_09,782.4500002999999,8,2,299.11,0.3333333333333333,2,object_04,1,1958,0,5,3,restaurant_20,2,memory-2step-stake-s,614,1950572,0.0-18.0-0.0-0.121,4417,7,8
122,4,object_09,object_02,986.8849995999999,7,2,322.065,0.7777777777777778,1,object_10,1,1965,0,7,4,restaurant_22,2,memory-2step-stake-s,615,1958855,0.0-18.0-0.0-0.122,4417,8,7
123,1,object_06,object_03,1234.895,1,2,360.65999980000004,0.6666666666666666,1,object_10,5,1995,0,6,4,desert_16,2,memory-2step-stake-s,616,1967076,0.0-18.0-0.0-0.123,4417,2,1
124,3,object_08,object_01,856.59,5,1,362.29000010000004,0.8888888888888888,1,object_10,1,2003,0,8,7,library_27,2,memory-2step-stake-s,617,1975495,0.0-18.0-0.0-0.124,4417,5,6
125,3,object_08,object_01,750.8800002,5,1,308.2000003,0.8888888888888888,1,object_10,1,2011,0,8,7,library_19,2,memory-2step-stake-s,618,1983869,0.0-18.0-0.0-0.125,4417,5,6
126,4,object_02,object_09,615.0600002,8,2,390.745,1.0,2,object_04,1,2020,0,8,9,restaurant_21,2,memory-2step-stake-s,619,1992420,0.0-18.0-0.0-0.126,4417,7,8
127,4,object_02,object_09,649.6350002,8,2,317.5249998,0.6666666666666666,2,object_04,1,2026,0,5,6,restaurant_22,2,memory-2step-stake-s,620,2000594,0.0-18.0-0.0-0.127,4417,7,8
128,4,object_02,object_09,566.3800002,7,1,259.6650003,0.4444444444444444,1,object_10,1,2030,0,4,7,restaurant_20,2,memory-2step-stake-s,622,2054042,0.0-18.0-0.1-0.128,4417,7,8
129,2,object_07,object_05,647.1899999,4,2,648.5450002,0.5555555555555556,2,object_04,1,2035,0,6,5,forest_2,2,memory-2step-stake-s,623,2062442,0.0-18.0-0.1-0.129,4417,3,4
130,3,object_01,object_08,689.6450003,5,2,463.155,0.5555555555555556,1,object_10,1,2040,0,5,3,library_7,2,memory-2step-stake-s,624,2070656,0.0-18.0-0.1-0.130,4417,6,5
131,2,object_07,object_05,815.5550002,4,2,360.4099997,0.4444444444444444,2,object_04,5,2060,0,3,4,forest_3,2,memory-2step-stake-s,625,2078660,0.0-18.0-0.1-0.131,4417,3,4
132,2,object_07,object_05,806.3400001,3,1,288.2349999,1.0,1,object_10,1,2069,0,9,2,forest_14,2,memory-2step-stake-s,626,2087114,0.0-18.0-0.1-0.132,4417,3,4
133,3,object_01,object_08,953.0099998,6,1,351.33,0.4444444444444444,2,object_04,1,2073,0,7,4,library_26,2,memory-2step-stake-s,627,2095112,0.0-18.0-0.1-0.133,4417,6,5
134,2,object_07,object_05,662.9799996,3,1,442.425,0.8888888888888888,1,object_10,5,2113,0,8,4,forest_7,2,memory-2step-stake-s,628,2103618,0.0-18.0-0.1-0.134,4417,3,4
135,1,object_03,object_06,777.735,1,1,435.9050002,0.6666666666666666,1,object_10,5,2143,0,6,4,desert_14,2,memory-2step-stake-s,629,2111908,0.0-18.0-0.1-0.135,4417,1,2
136,4,object_09,object_02,711.0600001,7,2,327.205,0.6666666666666666,1,object_10,5,2173,0,6,4,restaurant_14,2,memory-2step-stake-s,630,2120092,0.0-18.0-0.1-0.136,4417,8,7
137,3,object_01,object_08,648.8649998999999,6,1,430.36999969999994,0.0,2,object_04,1,2173,0,9,0,library_1,2,memory-2step-stake-s,631,2127750,0.0-18.0-0.1-0.137,4417,6,5
138,3,object_08,object_01,756.48,5,1,708.195,0.5555555555555556,1,object_10,1,2178,0,5,0,library_10,2,memory-2step-stake-s,632,2136203,0.0-18.0-0.1-0.138,4417,5,6
139,1,object_03,object_06,654.3399999,2,2,457.6599998,0.1111111111111111,2,object_04,5,2183,0,8,1,desert_19,2,memory-2step-stake-s,633,2143999,0.0-18.0-0.1-0.139,4417,1,2
140,2,object_07,object_05,639.095,3,1,267.8700001,0.7777777777777778,1,object_10,5,2218,0,7,0,forest_14,2,memory-2step-stake-s,634,2152225,0.0-18.0-0.1-0.140,4417,3,4
141,2,object_05,object_07,663.1999998,3,2,361.3650003,0.5555555555555556,1,object_10,5,2243,0,5,3,forest_20,2,memory-2step-stake-s,635,2160338,0.0-18.0-0.1-0.141,4417,4,3
142,1,object_03,object_06,723.0699998,1,1,421.73000010000004,0.8888888888888888,1,object_10,5,2283,0,8,1,desert_22,2,memory-2step-stake-s,636,2168822,0.0-18.0-0.1-0.142,4417,1,2
143,1,object_06,object_03,438.2799999,1,2,383.11500010000003,0.4444444444444444,1,object_10,5,2303,0,4,1,desert_28,2,memory-2step-stake-s,637,2176852,0.0-18.0-0.1-0.143,4417,2,1
144,1,object_06,object_03,401.3450001,1,2,361.68000010000003,0.4444444444444444,1,object_10,5,2323,0,4,6,desert_27,2,memory-2step-stake-s,638,2184856,0.0-18.0-0.1-0.144,4417,2,1
145,1,object_06,object_03,614.635,2,1,342.16499980000003,0.8888888888888888,2,object_04,5,2363,0,8,8,desert_9,2,memory-2step-stake-s,639,2193262,0.0-18.0-0.1-0.145,4417,2,1
146,4,object_02,object_09,1017.27,7,1,682.8599996,0.8888888888888888,1,object_10,5,2403,0,8,4,restaurant_10,2,memory-2step-stake-s,640,2202004,0.0-18.0-0.1-0.146,4417,7,8
147,2,object_05,object_07,458.9,4,1,352.4850002,0.1111111111111111,2,object_04,5,2408,0,9,1,forest_18,2,memory-2step-stake-s,641,2209684,0.0-18.0-0.1-0.147,4417,4,3
148,3,object_08,object_01,853.17,6,2,323.1100002,0.1111111111111111,2,object_04,1,2409,0,6,1,library_19,2,memory-2step-stake-s,642,2217340,0.0-18.0-0.1-0.148,4417,5,6
149,2,object_07,object_05,396.0549999,4,2,329.53999980000003,0.1111111111111111,2,object_04,5,2414,0,5,1,forest_19,2,memory-2step-stake-s,643,2225004,0.0-18.0-0.1-0.149,4417,3,4
150,2,object_07,object_05,723.4050003,3,1,337.845,0.3333333333333333,1,object_10,1,2417,0,3,5,forest_1,2,memory-2step-stake-s,644,2232882,0.0-18.0-0.1-0.150,4417,3,4
151,4,object_02,object_09,996.57,8,2,358.3499999,0.3333333333333333,2,object_04,5,2432,0,1,3,restaurant_27,2,memory-2step-stake-s,645,2240783,0.0-18.0-0.1-0.151,4417,7,8
152,1,object_03,object_06,1476.62,2,2,392.7249997,0.0,2,object_04,5,2432,0,1,0,desert_14,2,memory-2step-stake-s,646,2248400,0.0-18.0-0.1-0.152,4417,1,2
153,1,object_06,object_03,917.0249999,1,2,435.3699996,0.1111111111111111,1,object_10,5,2437,0,1,2,desert_19,2,memory-2step-stake-s,647,2256166,0.0-18.0-0.1-0.153,4417,2,1
154,2,object_05,object_07,1362.555,3,2,461.36000010000004,0.1111111111111111,1,object_10,1,2438,0,1,2,forest_23,2,memory-2step-stake-s,648,2263951,0.0-18.0-0.1-0.154,4417,4,3
155,4,object_02,object_09,1417.195,8,2,381.8399999,0.4444444444444444,2,object_04,1,2442,0,0,4,restaurant_13,2,memory-2step-stake-s,649,2271974,0.0-18.0-0.1-0.155,4417,7,8
156,3,object_01,object_08,621.63,5,2,308.2000003,0.4444444444444444,1,object_10,1,2446,0,4,6,library_22,2,memory-2step-stake-s,650,2279932,0.0-18.0-0.1-0.156,4417,6,5
157,2,object_07,object_05,761.7949997000001,4,2,291.16999960000004,0.2222222222222222,2,object_04,5,2456,0,1,2,forest_11,2,memory-2step-stake-s,651,2287665,0.0-18.0-0.1-0.157,4417,3,4
158,2,object_07,object_05,569.4400002,3,1,320.8149998,0.1111111111111111,1,object_10,5,2461,0,1,2,forest_20,2,memory-2step-stake-s,652,2295322,0.0-18.0-0.1-0.158,4417,3,4
159,4,object_02,object_09,1160.555,7,1,304.0700001,0.1111111111111111,1,object_10,1,2462,0,1,2,restaurant_26,2,memory-2step-stake-s,653,2302956,0.0-18.0-0.1-0.159,4417,7,8
160,2,object_05,object_07,636.4350002,4,1,310.5850001,0.1111111111111111,2,object_04,5,2467,0,4,1,forest_3,2,memory-2step-stake-s,654,2310596,0.0-18.0-0.1-0.160,4417,4,3
161,3,object_01,object_08,738.6650001,5,2,379.59,0.2222222222222222,1,object_10,1,2469,0,2,0,library_31,2,memory-2step-stake-s,655,2318412,0.0-18.0-0.1-0.161,4417,6,5
162,4,object_02,object_09,647.7999999,8,2,590.7049999,0.3333333333333333,2,object_04,1,2472,0,4,3,restaurant_28,2,memory-2step-stake-s,656,2326532,0.0-18.0-0.1-0.162,4417,7,8
163,2,object_07,object_05,742.2599997000001,3,1,279.61000010000004,0.2222222222222222,1,object_10,5,2482,0,2,1,forest_2,2,memory-2step-stake-s,657,2334242,0.0-18.0-0.1-0.163,4417,3,4
164,1,object_06,object_03,762.875,1,2,441.19000020000004,0.4444444444444444,1,object_10,5,2502,0,4,1,desert_28,2,memory-2step-stake-s,658,2342321,0.0-18.0-0.1-0.164,4417,2,1
165,2,object_07,object_05,-1.0,-1,-1,-1.0,0.0,-,,5,2502,0,3,4,forest_19,2,memory-2step-stake-s,659,2348846,0.0-18.0-0.1-0.165,4417,3,4
166,3,object_01,object_08,780.3750001,5,2,318.93000010000003,0.2222222222222222,1,object_10,1,2504,0,2,1,library_14,2,memory-2step-stake-s,660,2356592,0.0-18.0-0.1-0.166,4417,6,5
167,3,object_08,object_01,735.8300001,6,2,297.15,0.2222222222222222,2,object_04,1,2506,0,2,2,library_23,2,memory-2step-stake-s,661,2364328,0.0-18.0-0.1-0.167,4417,5,6
168,2,object_05,object_07,606.4850002999999,3,2,315.2099997,0.2222222222222222,1,object_10,1,2508,0,2,3,forest_10,2,memory-2step-stake-s,662,2372078,0.0-18.0-0.1-0.168,4417,4,3
169,2,object_07,object_05,346.1449998,4,2,335.8400003,0.1111111111111111,2,object_04,1,2509,0,2,1,forest_18,2,memory-2step-stake-s,663,2379736,0.0-18.0-0.1-0.169,4417,3,4
170,4,object_09,object_02,1355.255,7,2,611.9499998,0.4444444444444444,1,object_10,1,2513,0,4,0,restaurant_21,2,memory-2step-stake-s,664,2387993,0.0-18.0-0.1-0.170,4417,8,7
171,3,object_01,object_08,536.6849996999999,5,2,256.7599998,0.5555555555555556,1,object_10,1,2518,0,5,1,library_5,2,memory-2step-stake-s,665,2395990,0.0-18.0-0.1-0.171,4417,6,5
172,4,object_02,object_09,572.0099998,7,1,421.6149999,0.3333333333333333,1,object_10,5,2533,0,3,4,restaurant_10,2,memory-2step-stake-s,666,2403954,0.0-18.0-0.1-0.172,4417,7,8
173,1,object_03,object_06,883.6400001000001,2,2,346.7399999,0.1111111111111111,2,object_04,5,2538,0,1,1,desert_22,2,memory-2step-stake-s,667,2411634,0.0-18.0-0.1-0.173,4417,1,2
174,1,object_03,object_06,801.3049997,2,2,221.2950001,0.1111111111111111,2,object_04,1,2539,0,3,1,desert_14,2,memory-2step-stake-s,668,2419185,0.0-18.0-0.1-0.174,4417,1,2
175,4,object_09,object_02,712.8599998999999,8,1,385.2200001,0.2222222222222222,2,object_04,1,2541,0,3,2,restaurant_32,2,memory-2step-stake-s,669,2427004,0.0-18.0-0.1-0.175,4417,8,7
176,4,object_02,object_09,663.0599997,8,2,531.7250001,0.2222222222222222,2,object_04,1,2543,0,1,2,restaurant_15,2,memory-2step-stake-s,670,2434973,0.0-18.0-0.1-0.176,4417,7,8
177,2,object_05,object_07,697.9749999,3,2,307.025,0.0,1,object_10,5,2543,0,0,5,forest_9,2,memory-2step-stake-s,671,2442512,0.0-18.0-0.1-0.177,4417,4,3
178,4,object_09,object_02,775.19,8,1,409.8799997,0.6666666666666666,2,object_04,1,2549,0,2,6,restaurant_32,2,memory-2step-stake-s,672,2450773,0.0-18.0-0.1-0.178,4417,8,7
179,2,object_07,object_05,670.655,4,2,588.8649998,0.1111111111111111,2,object_04,5,2554,0,2,1,forest_29,2,memory-2step-stake-s,673,2458691,0.0-18.0-0.1-0.179,4417,3,4
180,1,object_03,object_06,1179.53,2,2,429.4199999,0.2222222222222222,2,object_04,1,2556,0,3,2,desert_4,2,memory-2step-stake-s,674,2466557,0.0-18.0-0.1-0.180,4417,1,2
181,4,object_02,object_09,713.5649999,7,1,443.825,0.5555555555555556,1,object_10,1,2561,0,5,2,restaurant_22,2,memory-2step-stake-s,675,2474748,0.0-18.0-0.1-0.181,4417,7,8
182,4,object_02,object_09,629.83,7,1,466.8350001,0.8888888888888888,1,object_10,1,2569,0,8,4,restaurant_6,2,memory-2step-stake-s,676,2483276,0.0-18.0-0.1-0.182,4417,7,8
183,3,object_08,object_01,754.6700002,5,1,353.325,0.7777777777777778,1,object_10,1,2576,0,7,4,library_5,2,memory-2step-stake-s,677,2491587,0.0-18.0-0.1-0.183,4417,5,6
184,4,object_02,object_09,765.8299999,7,1,1295.085,0.8888888888888888,1,object_10,1,2584,0,8,4,restaurant_28,2,memory-2step-stake-s,678,2500953,0.0-18.0-0.1-0.184,4417,7,8
185,1,object_03,object_06,1252.855,1,1,300.485,1.0,1,object_10,5,2629,0,9,6,desert_26,2,memory-2step-stake-s,679,2509422,0.0-18.0-0.1-0.185,4417,1,2
186,4,object_09,object_02,710.275,7,2,333.6149999,1.0,1,object_10,1,2638,0,9,8,restaurant_3,2,memory-2step-stake-s,680,2517920,0.0-18.0-0.1-0.186,4417,8,7
187,2,object_05,object_07,905.485,3,2,454.75500030000006,0.8888888888888888,1,object_10,5,2678,0,8,7,forest_12,2,memory-2step-stake-s,681,2526437,0.0-18.0-0.1-0.187,4417,4,3
188,2,object_07,object_05,492.10499969999995,3,1,326.22000019999996,0.8888888888888888,1,object_10,5,2718,0,8,7,forest_9,2,memory-2step-stake-s,682,2534813,0.0-18.0-0.1-0.188,4417,3,4
189,4,object_09,object_02,486.3899997,7,2,413.8150001,0.8888888888888888,1,object_10,1,2726,0,8,6,restaurant_13,2,memory-2step-stake-s,683,2543289,0.0-18.0-0.1-0.189,4417,8,7
190,2,object_05,object_07,1228.06,3,2,330.94999989999997,0.6666666666666666,1,object_10,5,2756,0,6,8,forest_14,2,memory-2step-stake-s,684,2551481,0.0-18.0-0.1-0.190,4417,4,3
191,2,object_07,object_05,443.69499989999997,3,1,259.7050001,0.8888888888888888,1,object_10,5,2796,0,8,8,forest_23,2,memory-2step-stake-s,685,2559797,0.0-18.0-0.1-0.191,4417,3,4
192,2,object_07,object_05,434.1900004,3,1,308.59499980000004,0.6666666666666666,1,object_10,5,2826,0,6,8,forest_20,2,memory-2step-stake-s,686,2567962,0.0-18.0-0.1-0.192,4417,3,4
193,1,object_06,object_03,652.185,1,2,365.0750001,0.8888888888888888,1,object_10,5,2866,0,8,8,desert_4,2,memory-2step-stake-s,687,2576385,0.0-18.0-0.1-0.193,4417,2,1
194,2,object_05,object_07,893.6149998999999,3,2,427.61000010000004,0.5555555555555556,1,object_10,5,2891,0,5,8,forest_4,2,memory-2step-stake-s,688,2584558,0.0-18.0-0.1-0.194,4417,4,3
195,3,object_08,object_01,536.6350003,5,1,383.7899999,0.2222222222222222,1,object_10,5,2901,0,2,8,library_12,2,memory-2step-stake-s,689,2592378,0.0-18.0-0.1-0.195,4417,5,6
196,1,object_03,object_06,780.855,2,2,318.8499999,0.6666666666666666,2,object_04,1,2907,0,2,6,desert_29,2,memory-2step-stake-s,690,2600540,0.0-18.0-0.1-0.196,4417,1,2
197,4,object_02,object_09,730.4499997,8,2,373.9999998,0.3333333333333333,2,object_04,5,2922,0,1,3,restaurant_25,2,memory-2step-stake-s,691,2608453,0.0-18.0-0.1-0.197,4417,7,8
198,3,object_08,object_01,744.9999996,6,2,474.955,0.3333333333333333,2,object_04,1,2925,0,3,3,library_19,2,memory-2step-stake-s,692,2616464,0.0-18.0-0.1-0.198,4417,5,6
199,2,object_07,object_05,710.4500001,4,2,341.085,0.4444444444444444,2,object_04,5,2945,0,5,4,forest_20,2,memory-2step-stake-s,693,2624451,0.0-18.0-0.1-0.199,4417,3,4
200,4,object_09,object_02,667.3999997000001,8,1,378.27999980000004,0.4444444444444444,2,object_04,1,2949,0,0,4,restaurant_21,2,memory-2step-stake-s,694,2632469,0.0-18.0-0.1-0.200,4417,8,7
201,2,object_05,object_07,870.48,4,1,450.4249999,0.6666666666666666,2,object_04,1,2955,0,3,6,forest_11,2,memory-2step-stake-s,695,2640770,0.0-18.0-0.1-0.201,4417,4,3
202,2,object_07,object_05,780.1650003999999,4,2,344.21000019999997,0.5555555555555556,2,object_04,1,2960,0,4,5,forest_29,2,memory-2step-stake-s,696,2648864,0.0-18.0-0.1-0.202,4417,3,4
203,2,object_07,object_05,796.7499997,4,2,217.3250001,0.5555555555555556,2,object_04,5,2985,0,6,5,forest_11,2,memory-2step-stake-s,697,2656828,0.0-18.0-0.1-0.203,4417,3,4
204,1,object_03,object_06,896.1800002,1,1,392.8200002,0.6666666666666666,1,object_10,1,2991,0,6,2,desert_16,2,memory-2step-stake-s,698,2665059,0.0-18.0-0.1-0.204,4417,1,2
205,1,object_06,object_03,826.1349997000001,1,2,462.31499969999993,0.6666666666666666,1,object_10,5,3021,0,6,0,desert_9,2,memory-2step-stake-s,699,2673378,0.0-18.0-0.1-0.205,4417,2,1
206,1,object_03,object_06,708.445,1,1,397.6100003,0.7777777777777778,1,object_10,5,3056,0,7,0,desert_10,2,memory-2step-stake-s,700,2681731,0.0-18.0-0.1-0.206,4417,1,2
207,2,object_07,object_05,773.3650002999999,3,1,370.96,0.8888888888888888,1,object_10,5,3096,0,8,2,forest_2,2,memory-2step-stake-s,701,2690165,0.0-18.0-0.1-0.207,4417,3,4
208,1,object_03,object_06,669.0450003,1,1,366.14499989999996,1.0,1,object_10,5,3141,0,9,5,desert_19,2,memory-2step-stake-s,702,2698700,0.0-18.0-0.1-0.208,4417,1,2
209,1,object_03,object_06,633.3099999,1,1,324.68000010000003,1.0,1,object_10,5,3186,0,9,6,desert_10,2,memory-2step-stake-s,703,2707198,0.0-18.0-0.1-0.209,4417,1,2
210,3,object_01,object_08,770.4099999,5,2,325.1650003,0.8888888888888888,1,object_10,1,3194,0,8,4,library_17,2,memory-2step-stake-s,704,2715593,0.0-18.0-0.1-0.210,4417,6,5
211,3,object_08,object_01,481.07999979999994,5,1,340.4299999,0.7777777777777778,1,object_10,1,3201,0,7,3,library_7,2,memory-2step-stake-s,705,2723888,0.0-18.0-0.1-0.211,4417,5,6
212,1,object_06,object_03,688.6100001,1,2,320.4200002,0.7777777777777778,1,object_10,5,3236,0,7,1,desert_20,2,memory-2step-stake-s,706,2732150,0.0-18.0-0.1-0.212,4417,2,1
213,2,object_07,object_05,735.6599997999999,3,1,412.0099996,1.0,1,object_10,5,3281,0,9,3,forest_19,2,memory-2step-stake-s,707,2740723,0.0-18.0-0.1-0.213,4417,3,4
214,3,object_01,object_08,792.8250004,5,2,292.91500010000004,0.8888888888888888,1,object_10,1,3289,0,8,5,library_22,2,memory-2step-stake-s,708,2749077,0.0-18.0-0.1-0.214,4417,6,5
215,3,object_08,object_01,794.6000001,5,1,479.4400004,0.7777777777777778,1,object_10,1,3296,0,7,4,library_14,2,memory-2step-stake-s,709,2757518,0.0-18.0-0.1-0.215,4417,5,6
216,2,object_07,object_05,1085.01,3,1,849.7250001,0.6666666666666666,1,object_10,5,3326,0,6,2,forest_10,2,memory-2step-stake-s,710,2766215,0.0-18.0-0.1-0.216,4417,3,4
217,4,object_02,object_09,647.5200001000001,7,1,449.3,0.4444444444444444,1,object_10,1,3330,0,4,2,restaurant_15,2,memory-2step-stake-s,711,2774312,0.0-18.0-0.1-0.217,4417,7,8
218,1,object_06,object_03,1455.435,2,1,368.245,0.4444444444444444,2,object_04,5,3350,0,6,4,desert_28,2,memory-2step-stake-s,712,2782324,0.0-18.0-0.1-0.218,4417,2,1
219,2,object_07,object_05,598.6199998,3,1,329.68,0.5555555555555556,1,object_10,5,3375,0,5,0,forest_8,2,memory-2step-stake-s,713,2790410,0.0-18.0-0.1-0.219,4417,3,4
220,3,object_01,object_08,760.1200002,5,2,304.69499989999997,0.6666666666666666,1,object_10,1,3381,0,6,1,library_27,2,memory-2step-stake-s,714,2798566,0.0-18.0-0.1-0.220,4417,6,5
221,4,object_02,object_09,668.2950002,7,1,330.3700001,0.6666666666666666,1,object_10,1,3387,0,6,0,restaurant_17,2,memory-2step-stake-s,715,2806745,0.0-18.0-0.1-0.221,4417,7,8
222,4,object_02,object_09,466.61499979999996,7,1,368.2949999,0.4444444444444444,1,object_10,5,3407,0,4,2,restaurant_3,2,memory-2step-stake-s,716,2814757,0.0-18.0-0.1-0.222,4417,7,8
223,1,object_06,object_03,811.735,1,2,415.67,0.6666666666666666,1,object_10,5,3437,0,6,4,desert_22,2,memory-2step-stake-s,717,2823029,0.0-18.0-0.1-0.223,4417,2,1
224,3,object_01,object_08,550.3400001,5,2,335.4750001,0.7777777777777778,1,object_10,1,3444,0,7,4,library_2,2,memory-2step-stake-s,718,2831317,0.0-18.0-0.1-0.224,4417,6,5
225,1,object_06,object_03,883.8300002000001,1,2,431.7749999,0.6666666666666666,1,object_10,1,3450,0,6,1,desert_21,2,memory-2step-stake-s,719,2839603,0.0-18.0-0.1-0.225,4417,2,1
226,2,object_07,object_05,545.0650002,3,1,614.4250003,0.5555555555555556,1,object_10,5,3475,0,5,1,forest_7,2,memory-2step-stake-s,720,2847974,0.0-18.0-0.1-0.226,4417,3,4
227,4,object_02,object_09,628.4699999,7,1,344.815,0.3333333333333333,1,object_10,1,3478,0,3,2,restaurant_10,2,memory-2step-stake-s,721,2855857,0.0-18.0-0.1-0.227,4417,7,8
228,2,object_05,object_07,726.795,3,2,282.7499998,0.1111111111111111,1,object_10,5,3483,0,1,7,forest_23,2,memory-2step-stake-s,722,2863479,0.0-18.0-0.1-0.228,4417,4,3
229,1,object_03,object_06,1046.96,2,2,272.2100001,0.7777777777777778,2,object_04,5,3518,0,1,7,desert_28,2,memory-2step-stake-s,723,2871705,0.0-18.0-0.1-0.229,4417,1,2
230,3,object_01,object_08,670.2999999,5,2,304.4199999,0.0,1,object_10,1,3518,0,0,8,library_2,2,memory-2step-stake-s,724,2879235,0.0-18.0-0.1-0.230,4417,6,5
231,2,object_05,object_07,455.75999979999995,4,1,261.1849997,0.7777777777777778,2,object_04,5,3553,0,1,7,forest_18,2,memory-2step-stake-s,725,2887443,0.0-18.0-0.1-0.231,4417,4,3
232,3,object_01,object_08,622.1799999,6,1,376.20999989999996,0.8888888888888888,2,object_04,1,3561,0,5,8,library_5,2,memory-2step-stake-s,726,2895889,0.0-18.0-0.1-0.232,4417,6,5
233,1,object_06,object_03,888.6500001,2,1,332.165,0.8888888888888888,2,object_04,1,3569,0,8,8,desert_16,2,memory-2step-stake-s,727,2904278,0.0-18.0-0.1-0.233,4417,2,1
234,3,object_01,object_08,711.6700001,6,1,388.09499980000004,0.7777777777777778,2,object_04,1,3576,0,6,7,library_17,2,memory-2step-stake-s,728,2912609,0.0-18.0-0.1-0.234,4417,6,5
235,4,object_02,object_09,804.3499999,8,2,260.7499999,0.6666666666666666,2,object_04,1,3582,0,9,6,restaurant_22,2,memory-2step-stake-s,729,2920730,0.0-18.0-0.1-0.235,4417,7,8
236,4,object_09,object_02,859.5850002000001,8,1,419.82,0.2222222222222222,2,object_04,1,3584,0,8,2,restaurant_10,2,memory-2step-stake-s,730,2928590,0.0-18.0-0.1-0.236,4417,8,7
237,4,object_09,object_02,828.4850004,7,2,287.92,0.4444444444444444,1,object_10,1,3588,0,4,3,restaurant_26,2,memory-2step-stake-s,731,2936517,0.0-18.0-0.1-0.237,4417,8,7
238,1,object_06,object_03,719.3700001,1,2,374.5999997,0.1111111111111111,1,object_10,5,3593,0,1,2,desert_29,2,memory-2step-stake-s,732,2944229,0.0-18.0-0.1-0.238,4417,2,1
239,2,object_07,object_05,722.3749999,3,1,295.9699999,0.1111111111111111,1,object_10,1,3594,0,1,3,forest_14,2,memory-2step-stake-s,733,2951863,0.0-18.0-0.1-0.239,4417,3,4
240,3,object_08,object_01,569.2750001,6,2,521.3350002000001,0.3333333333333333,2,object_04,1,3597,0,1,3,library_26,2,memory-2step-stake-s,734,2959926,0.0-18.0-0.1-0.240,4417,5,6
241,4,object_02,object_09,646.0750001,8,2,351.6349997,0.3333333333333333,2,object_04,1,3600,0,0,3,restaurant_4,2,memory-2step-stake-s,735,2967815,0.0-18.0-0.1-0.241,4417,7,8
242,1,object_06,object_03,956.9450002,2,1,433.08000030000005,0.2222222222222222,2,object_04,5,3610,0,5,2,desert_21,2,memory-2step-stake-s,736,2975693,0.0-18.0-0.1-0.242,4417,2,1
243,3,object_08,object_01,716.97,5,1,251.4800001,0.8888888888888888,1,object_10,1,3618,0,8,2,library_12,2,memory-2step-stake-s,737,2983994,0.0-18.0-0.1-0.243,4417,5,6
244,3,object_08,object_01,536.2749997999999,5,1,495.3349996,0.6666666666666666,1,object_10,1,3624,0,6,3,library_23,2,memory-2step-stake-s,738,2992327,0.0-18.0-0.1-0.244,4417,5,6
245,4,object_09,object_02,595.6850001,7,2,347.4249998,0.5555555555555556,1,object_10,1,3629,0,5,3,restaurant_6,2,memory-2step-stake-s,739,3000411,0.0-18.0-0.1-0.245,4417,8,7
246,2,object_07,object_05,857.725,4,2,282.7000003,0.5555555555555556,2,object_04,5,3654,0,1,5,forest_4,2,memory-2step-stake-s,740,3008435,0.0-18.0-0.1-0.246,4417,3,4
247,2,object_05,object_07,1400.465,3,2,324.7799999,0.4444444444444444,1,object_10,5,3674,0,4,6,forest_8,2,memory-2step-stake-s,741,3016403,0.0-18.0-0.1-0.247,4417,4,3
248,1,object_03,object_06,590.8650002,1,1,279.49000010000003,0.8888888888888888,1,object_10,1,3682,0,8,8,desert_25,2,memory-2step-stake-s,742,3024741,0.0-18.0-0.1-0.248,4417,1,2
249,3,object_01,object_08,660.6649999,5,2,365.9950001,0.8888888888888888,1,object_10,1,3690,0,8,9,library_14,2,memory-2step-stake-s,743,3033164,0.0-18.0-0.1-0.249,4417,6,5
250,1,object_06,object_03,778.9400001,1,2,258.9250002,0.7777777777777778,1,object_10,5,3725,0,7,6,desert_26,2,memory-2step-stake-s,744,3041373,0.0-18.0-0.1-0.250,4417,2,1
251,1,object_03,object_06,963.2950001,2,2,416.1450001,0.5555555555555556,2,object_04,1,3730,0,6,5,desert_3,2,memory-2step-stake-s,745,3049542,0.0-18.0-0.1-0.251,4417,1,2
252,4,object_09,object_02,702.825,7,2,366.5700001,0.6666666666666666,1,object_10,1,3736,0,6,5,restaurant_17,2,memory-2step-stake-s,746,3057770,0.0-18.0-0.1-0.252,4417,8,7
253,3,object_01,object_08,406.6150002,5,2,321.0800001,0.7777777777777778,1,object_10,5,3771,0,7,2,library_22,2,memory-2step-stake-s,747,3066049,0.0-18.0-0.1-0.253,4417,6,5
254,3,object_01,object_08,716.86,5,2,512.5599996999999,0.6666666666666666,1,object_10,1,3777,0,6,1,library_25,2,memory-2step-stake-s,748,3074413,0.0-18.0-0.1-0.254,4417,6,5
255,1,object_06,object_03,664.8800001,1,2,430.43000020000005,0.3333333333333333,1,object_10,5,3792,0,3,0,desert_21,2,memory-2step-stake-s,749,3082388,0.0-18.0-0.1-0.255,4417,2,1
