,state1,stim_left,stim_right,rt_1,choice1,response1,rt_2,points,state2,stim_state2,stake,score,practice,rews1,rews2,background,high_arm,trial_type,trial_index,time_elapsed,internal_node_id,subid,stim_left_num,stim_right_num
0,4,object_02,object_04,1430.48,7,2,-1.0,0.0,1,object_08,1,0,0,3,5,restaurant_27,2,memory-2step-stake-s,487,1134004,0.0-18.0-0.0-0.0,2447,8,7
1,3,object_10,object_01,1155.075,5,1,-1.0,0.0,1,object_08,1,0,0,2,1,library_32,2,memory-2step-stake-s,488,1142542,0.0-18.0-0.0-0.1,2447,5,6
2,2,object_06,object_03,842.675,4,2,-1.0,0.0,2,object_09,5,0,0,5,1,forest_30,2,memory-2step-stake-s,489,1151067,0.0-18.0-0.0-0.2,2447,3,4
3,2,object_06,object_03,1048.74,3,1,-1.0,0.0,1,object_08,5,0,0,8,2,forest_3,2,memory-2step-stake-s,490,1159606,0.0-18.0-0.0-0.3,2447,3,4
4,4,object_02,object_04,1103.285,8,1,-1.0,0.0,2,object_09,5,0,0,8,5,restaurant_4,2,memory-2step-stake-s,491,1168131,0.0-18.0-0.0-0.4,2447,8,7
5,4,object_02,object_04,1274.24,8,1,-1.0,0.0,2,object_09,1,0,0,9,6,restaurant_30,2,memory-2step-stake-s,492,1176670,0.0-18.0-0.0-0.5,2447,8,7
6,2,object_03,object_06,-1.0,-1,-1,-1.0,0.0,-,,5,0,0,9,5,forest_15,2,memory-2step-stake-s,493,1183200,0.0-18.0-0.0-0.6,2447,4,3
7,1,object_07,object_05,914.4349999,2,2,-1.0,0.0,2,object_09,5,0,0,9,9,desert_5,2,memory-2step-stake-s,494,1191736,0.0-18.0-0.0-0.7,2447,1,2
8,1,object_07,object_05,435.86000010000004,1,1,-1.0,0.0,1,object_08,5,0,0,9,8,desert_23,2,memory-2step-stake-s,495,1200275,0.0-18.0-0.0-0.8,2447,1,2
9,4,object_02,object_04,1051.28,8,1,-1.0,0.0,2,object_09,1,0,0,8,6,restaurant_30,2,memory-2step-stake-s,496,1208816,0.0-18.0-0.0-0.9,2447,8,7
10,1,object_05,object_07,504.5399999,1,2,-1.0,0.0,1,object_08,1,0,0,7,7,desert_22,2,memory-2step-stake-s,497,1217346,0.0-18.0-0.0-0.10,2447,2,1
11,2,object_06,object_03,771.8250002,4,2,-1.0,0.0,2,object_09,5,0,0,6,8,forest_30,2,memory-2step-stake-s,498,1225874,0.0-18.0-0.0-0.11,2447,3,4
12,1,object_05,object_07,494.42000010000004,1,2,-1.0,0.0,1,object_08,5,0,0,5,8,desert_2,2,memory-2step-stake-s,499,1234409,0.0-18.0-0.0-0.12,2447,2,1
13,1,object_07,object_05,534.0400001,1,1,-1.0,0.0,1,object_08,5,0,0,6,8,desert_3,2,memory-2step-stake-s,500,1242937,0.0-18.0-0.0-0.13,2447,1,2
14,3,object_10,object_01,1260.75,6,2,-1.0,0.0,2,object_09,1,0,0,7,9,library_30,2,memory-2step-stake-s,501,1251464,0.0-18.0-0.0-0.14,2447,5,6
15,3,object_01,object_10,579.0000001,6,1,-1.0,0.0,2,object_09,1,0,0,7,8,library_7,2,memory-2step-stake-s,502,1259998,0.0-18.0-0.0-0.15,2447,6,5
16,2,object_06,object_03,668.115,4,2,-1.0,0.0,2,object_09,5,0,0,5,5,forest_4,2,memory-2step-stake-s,503,1268533,0.0-18.0-0.0-0.16,2447,3,4
17,3,object_01,object_10,-1.0,-1,-1,-1.0,0.0,-,,1,0,0,9,1,library_26,2,memory-2step-stake-s,504,1275064,0.0-18.0-0.0-0.17,2447,6,5
18,1,object_07,object_05,464.42000010000004,2,2,-1.0,0.0,2,object_09,5,0,0,8,1,desert_9,2,memory-2step-stake-s,505,1283594,0.0-18.0-0.0-0.18,2447,1,2
19,4,object_02,object_04,341.635,8,1,-1.0,0.0,2,object_09,1,0,0,9,1,restaurant_9,2,memory-2step-stake-s,506,1292130,0.0-18.0-0.0-0.19,2447,8,7
20,2,object_06,object_03,551.3550001,3,1,-1.0,0.0,1,object_08,1,0,0,8,1,forest_8,2,memory-2step-stake-s,507,1300665,0.0-18.0-0.0-0.20,2447,3,4
21,4,object_04,object_02,618.2200001,8,2,-1.0,0.0,2,object_09,1,0,0,7,1,restaurant_27,2,memory-2step-stake-s,508,1309194,0.0-18.0-0.0-0.21,2447,7,8
22,1,object_05,object_07,708.6649997999999,2,1,-1.0,0.0,2,object_09,5,0,0,7,0,desert_26,2,memory-2step-stake-s,509,1317732,0.0-18.0-0.0-0.22,2447,2,1
23,1,object_07,object_05,622.19,2,2,-1.0,0.0,2,object_09,1,0,0,9,3,desert_10,2,memory-2step-stake-s,510,1326264,0.0-18.0-0.0-0.23,2447,1,2
24,3,object_01,object_10,745.775,5,2,-1.0,0.0,1,object_08,1,0,0,9,2,library_2,2,memory-2step-stake-s,511,1334799,0.0-18.0-0.0-0.24,2447,6,5
25,2,object_03,object_06,611.9550001,4,1,-1.0,0.0,2,object_09,5,0,0,6,1,forest_17,2,memory-2step-stake-s,512,1343341,0.0-18.0-0.0-0.25,2447,4,3
26,4,object_04,object_02,321.5000001,8,2,-1.0,0.0,2,object_09,1,0,0,6,0,restaurant_30,2,memory-2step-stake-s,513,1351875,0.0-18.0-0.0-0.26,2447,7,8
27,1,object_05,object_07,925.815,2,1,-1.0,0.0,2,object_09,5,0,0,6,1,desert_5,2,memory-2step-stake-s,514,1360404,0.0-18.0-0.0-0.27,2447,2,1
28,1,object_05,object_07,122.8750001,1,2,-1.0,0.0,1,object_08,5,0,0,8,1,desert_13,2,memory-2step-stake-s,515,1368927,0.0-18.0-0.0-0.28,2447,2,1
29,3,object_10,object_01,401.9299999,5,1,-1.0,0.0,1,object_08,1,0,0,8,4,library_6,2,memory-2step-stake-s,516,1377460,0.0-18.0-0.0-0.29,2447,5,6
30,3,object_10,object_01,193.0399998,5,1,-1.0,0.0,1,object_08,1,0,0,6,1,library_17,2,memory-2step-stake-s,517,1385990,0.0-18.0-0.0-0.30,2447,5,6
31,2,object_06,object_03,442.99000010000003,3,1,-1.0,0.0,1,object_08,5,0,0,8,0,forest_20,2,memory-2step-stake-s,518,1394528,0.0-18.0-0.0-0.31,2447,3,4
32,2,object_03,object_06,-1.0,-1,-1,-1.0,0.0,-,,5,0,0,8,1,forest_4,2,memory-2step-stake-s,519,1401056,0.0-18.0-0.0-0.32,2447,4,3
33,1,object_07,object_05,103.4000001,2,2,-1.0,0.0,2,object_09,5,0,0,7,0,desert_10,2,memory-2step-stake-s,520,1409593,0.0-18.0-0.0-0.33,2447,1,2
34,1,object_05,object_07,695.1550001,2,1,-1.0,0.0,2,object_09,5,0,0,9,3,desert_22,2,memory-2step-stake-s,521,1418122,0.0-18.0-0.0-0.34,2447,2,1
35,4,object_04,object_02,693.345,7,1,-1.0,0.0,1,object_08,5,0,0,6,5,restaurant_9,2,memory-2step-stake-s,522,1426654,0.0-18.0-0.0-0.35,2447,7,8
36,4,object_02,object_04,594.8599998,8,1,364.995,0.4444444444444444,2,object_09,1,4,0,5,4,restaurant_12,2,memory-2step-stake-s,523,1434664,0.0-18.0-0.0-0.36,2447,8,7
37,2,object_03,object_06,432.54,3,2,507.345,0.2222222222222222,1,object_08,5,14,0,2,7,forest_3,2,memory-2step-stake-s,524,1442613,0.0-18.0-0.0-0.37,2447,4,3
38,1,object_07,object_05,458.81,1,1,370.53,0.3333333333333333,1,object_08,1,17,0,3,8,desert_11,2,memory-2step-stake-s,525,1450525,0.0-18.0-0.0-0.38,2447,1,2
39,3,object_10,object_01,575.1500002,6,2,708.4599999,1.0,2,object_09,1,26,0,2,9,library_4,2,memory-2step-stake-s,526,1459408,0.0-18.0-0.0-0.39,2447,5,6
40,4,object_04,object_02,747.5449999,7,1,654.11,0.0,1,object_08,5,26,0,0,7,restaurant_19,2,memory-2step-stake-s,527,1467292,0.0-18.0-0.0-0.40,2447,7,8
41,2,object_03,object_06,858.2299998999999,3,2,597.6550002,0.2222222222222222,1,object_08,5,36,0,2,4,forest_14,2,memory-2step-stake-s,528,1475323,0.0-18.0-0.0-0.41,2447,4,3
42,1,object_07,object_05,394.5600002,1,1,483.29000010000004,0.3333333333333333,1,object_08,1,39,0,3,4,desert_12,2,memory-2step-stake-s,529,1483352,0.0-18.0-0.0-0.42,2447,1,2
43,4,object_02,object_04,516.54,7,2,812.3100002,0.3333333333333333,1,object_08,1,42,0,3,6,restaurant_18,2,memory-2step-stake-s,530,1491708,0.0-18.0-0.0-0.43,2447,8,7
44,4,object_02,object_04,332.68,8,1,440.8,0.7777777777777778,2,object_09,1,49,0,4,7,restaurant_7,2,memory-2step-stake-s,531,1500118,0.0-18.0-0.0-0.44,2447,8,7
45,4,object_04,object_02,448.105,8,2,579.8200001,1.0,2,object_09,1,58,0,7,9,restaurant_10,2,memory-2step-stake-s,532,1508862,0.0-18.0-0.0-0.45,2447,7,8
46,3,object_10,object_01,47.52999987,5,1,412.31999989999997,0.6666666666666666,1,object_08,1,64,0,6,9,library_22,2,memory-2step-stake-s,533,1517142,0.0-18.0-0.0-0.46,2447,5,6
47,4,object_02,object_04,417.105,7,2,483.585,0.7777777777777778,1,object_08,1,71,0,7,9,restaurant_26,2,memory-2step-stake-s,534,1525595,0.0-18.0-0.0-0.47,2447,8,7
48,3,object_10,object_01,311.5600001,5,1,532.07,0.7777777777777778,1,object_08,1,78,0,7,7,library_9,2,memory-2step-stake-s,535,1534086,0.0-18.0-0.0-0.48,2447,5,6
49,2,object_03,object_06,352.5100001,3,2,540.845,0.6666666666666666,1,object_08,5,108,0,6,7,forest_14,2,memory-2step-stake-s,536,1542484,0.0-18.0-0.0-0.49,2447,4,3
50,3,object_10,object_01,420.63499989999997,5,1,605.585,1.0,1,object_08,1,117,0,9,6,library_26,2,memory-2step-stake-s,537,1551252,0.0-18.0-0.0-0.50,2447,5,6
51,3,object_10,object_01,1445.555,6,2,843.935,0.6666666666666666,2,object_09,1,123,0,7,6,library_30,2,memory-2step-stake-s,538,1559946,0.0-18.0-0.0-0.51,2447,5,6
52,1,object_05,object_07,355.4199999,2,1,566.41,0.8888888888888888,2,object_09,5,163,0,6,8,desert_23,2,memory-2step-stake-s,539,1568579,0.0-18.0-0.0-0.52,2447,2,1
53,4,object_02,object_04,369.5750001,7,2,466.735,0.7777777777777778,1,object_08,5,198,0,7,8,restaurant_2,2,memory-2step-stake-s,540,1576997,0.0-18.0-0.0-0.53,2447,8,7
54,4,object_04,object_02,571.9000001,7,1,544.3200001,0.8888888888888888,1,object_08,1,206,0,8,6,restaurant_30,2,memory-2step-stake-s,541,1585599,0.0-18.0-0.0-0.54,2447,7,8
55,3,object_10,object_01,346.73500010000004,6,2,468.6,0.5555555555555556,2,object_09,5,231,0,6,5,library_9,2,memory-2step-stake-s,542,1593819,0.0-18.0-0.0-0.55,2447,5,6
56,4,object_02,object_04,329.4499998,8,1,525.75,0.6666666666666666,2,object_09,1,237,0,7,6,restaurant_26,2,memory-2step-stake-s,543,1602196,0.0-18.0-0.0-0.56,2447,8,7
57,3,object_10,object_01,427.535,6,2,541.83,0.7777777777777778,2,object_09,1,244,0,8,7,library_22,2,memory-2step-stake-s,544,1610694,0.0-18.0-0.0-0.57,2447,5,6
58,2,object_06,object_03,601.8000001,3,1,713.485,0.7777777777777778,1,object_08,5,279,0,7,6,forest_4,2,memory-2step-stake-s,545,1619374,0.0-18.0-0.0-0.58,2447,3,4
59,4,object_02,object_04,337.0500002,7,2,447.9350001,0.8888888888888888,1,object_08,1,287,0,8,6,restaurant_31,2,memory-2step-stake-s,546,1627880,0.0-18.0-0.0-0.59,2447,8,7
60,2,object_03,object_06,624.8600001,4,1,721.0349999,0.5555555555555556,2,object_09,5,312,0,6,5,forest_26,2,memory-2step-stake-s,547,1636340,0.0-18.0-0.0-0.60,2447,4,3
61,2,object_03,object_06,547.5299999,3,2,960.4550002000001,0.8888888888888888,1,object_08,5,352,0,8,6,forest_16,2,memory-2step-stake-s,548,1645363,0.0-18.0-0.0-0.61,2447,4,3
62,2,object_06,object_03,408.2750001,3,1,513.1399999,0.5555555555555556,1,object_08,5,377,0,5,4,forest_22,2,memory-2step-stake-s,549,1653624,0.0-18.0-0.0-0.62,2447,3,4
63,3,object_10,object_01,122.35000009999999,6,2,504.095,0.6666666666666666,2,object_09,1,383,0,6,6,library_1,2,memory-2step-stake-s,550,1661996,0.0-18.0-0.0-0.63,2447,5,6
64,4,object_04,object_02,478.2200002,7,1,621.51,0.1111111111111111,1,object_08,5,388,0,1,9,restaurant_28,2,memory-2step-stake-s,551,1669946,0.0-18.0-0.0-0.64,2447,7,8
65,4,object_04,object_02,964.1099998,8,2,608.06,0.7777777777777778,2,object_09,1,395,0,1,7,restaurant_7,2,memory-2step-stake-s,552,1678514,0.0-18.0-0.0-0.65,2447,7,8
66,2,object_03,object_06,1100.09,4,1,638.6450001000001,0.5555555555555556,2,object_09,5,420,0,1,5,forest_21,2,memory-2step-stake-s,553,1686894,0.0-18.0-0.0-0.66,2447,4,3
67,4,object_04,object_02,1370.195,8,2,602.985,0.7777777777777778,2,object_09,1,427,0,1,7,restaurant_10,2,memory-2step-stake-s,554,1695467,0.0-18.0-0.0-0.67,2447,7,8
68,4,object_02,object_04,1185.255,8,1,694.9400001,0.8888888888888888,2,object_09,5,467,0,0,8,restaurant_12,2,memory-2step-stake-s,555,1704234,0.0-18.0-0.0-0.68,2447,8,7
69,1,object_07,object_05,-1.0,-1,-1,-1.0,0.0,-,,5,467,0,1,5,desert_20,2,memory-2step-stake-s,556,1710757,0.0-18.0-0.0-0.69,2447,1,2
70,4,object_04,object_02,957.8450001,7,1,570.3700001,0.1111111111111111,1,object_08,1,468,0,1,3,restaurant_28,2,memory-2step-stake-s,557,1718662,0.0-18.0-0.0-0.70,2447,7,8
71,3,object_01,object_10,705.845,5,2,820.0000001,0.2222222222222222,1,object_08,1,470,0,2,3,library_28,2,memory-2step-stake-s,558,1726912,0.0-18.0-0.0-0.71,2447,6,5
72,4,object_02,object_04,-1.0,-1,-1,-1.0,0.0,-,,1,470,0,1,3,restaurant_3,2,memory-2step-stake-s,559,1733434,0.0-18.0-0.0-0.72,2447,8,7
73,1,object_05,object_07,972.2499999,2,1,546.475,0.2222222222222222,2,object_09,1,472,0,1,2,desert_11,2,memory-2step-stake-s,560,1741414,0.0-18.0-0.0-0.73,2447,2,1
74,3,object_10,object_01,808.5400001,5,1,632.4500002,0.0,1,object_08,5,472,0,0,4,library_24,2,memory-2step-stake-s,561,1749274,0.0-18.0-0.0-0.74,2447,5,6
75,2,object_06,object_03,-1.0,-1,-1,-1.0,0.0,-,,5,472,0,2,2,forest_3,2,memory-2step-stake-s,562,1755793,0.0-18.0-0.0-0.75,2447,3,4
76,4,object_02,object_04,627.0300001,8,1,403.54000010000004,0.1111111111111111,2,object_09,1,473,0,3,1,restaurant_25,2,memory-2step-stake-s,563,1763527,0.0-18.0-0.0-0.76,2447,8,7
77,1,object_05,object_07,985.755,1,2,533.5850001,0.4444444444444444,1,object_08,5,493,0,4,0,desert_21,2,memory-2step-stake-s,564,1771701,0.0-18.0-0.0-0.77,2447,2,1
78,4,object_04,object_02,1226.055,7,1,583.535,0.5555555555555556,1,object_08,1,498,0,5,1,restaurant_9,2,memory-2step-stake-s,565,1780035,0.0-18.0-0.0-0.78,2447,7,8
79,4,object_02,object_04,680.3900001000001,8,1,735.7649999,0.2222222222222222,2,object_09,1,500,0,4,2,restaurant_4,2,memory-2step-stake-s,566,1788221,0.0-18.0-0.0-0.79,2447,8,7
80,3,object_10,object_01,530.705,6,2,576.9549999,0.1111111111111111,2,object_09,1,501,0,6,1,library_31,2,memory-2step-stake-s,567,1796140,0.0-18.0-0.0-0.80,2447,5,6
81,4,object_04,object_02,581.0699998,7,1,718.72,0.7777777777777778,1,object_08,1,508,0,7,1,restaurant_18,2,memory-2step-stake-s,568,1804815,0.0-18.0-0.0-0.81,2447,7,8
82,4,object_02,object_04,736.295,8,1,970.9950001,0.1111111111111111,2,object_09,1,509,0,7,1,restaurant_27,2,memory-2step-stake-s,569,1813123,0.0-18.0-0.0-0.82,2447,8,7
83,3,object_01,object_10,505.1200001,5,2,597.485,0.6666666666666666,1,object_08,1,515,0,6,1,library_9,2,memory-2step-stake-s,570,1821576,0.0-18.0-0.0-0.83,2447,6,5
84,3,object_01,object_10,901.2600002,6,1,631.97,0.3333333333333333,2,object_09,1,518,0,3,3,library_29,2,memory-2step-stake-s,571,1829746,0.0-18.0-0.0-0.84,2447,6,5
85,2,object_06,object_03,488.0250001,4,2,446.855,0.6666666666666666,2,object_09,5,548,0,2,6,forest_28,2,memory-2step-stake-s,572,1838053,0.0-18.0-0.0-0.85,2447,3,4
86,1,object_07,object_05,681.3049999,1,1,929.735,0.1111111111111111,1,object_08,1,549,0,1,6,desert_21,2,memory-2step-stake-s,573,1846326,0.0-18.0-0.0-0.86,2447,1,2
87,1,object_05,object_07,751.495,1,2,1413.36,0.0,1,object_08,1,549,0,0,9,desert_2,2,memory-2step-stake-s,574,1854972,0.0-18.0-0.0-0.87,2447,2,1
88,3,object_10,object_01,515.8499999,6,2,548.5750001,1.0,2,object_09,1,558,0,4,9,library_24,2,memory-2step-stake-s,575,1863692,0.0-18.0-0.0-0.88,2447,5,6
89,3,object_01,object_10,548.2350001,5,2,742.72,0.1111111111111111,1,object_08,1,559,0,1,8,library_29,2,memory-2step-stake-s,576,1871777,0.0-18.0-0.0-0.89,2447,6,5
90,1,object_05,object_07,487.9000001,2,1,434.4249999,0.8888888888888888,2,object_09,5,599,0,0,8,desert_5,2,memory-2step-stake-s,577,1880274,0.0-18.0-0.0-0.90,2447,2,1
91,1,object_05,object_07,946.3149998,1,2,678.48,0.2222222222222222,1,object_08,1,601,0,2,8,desert_17,2,memory-2step-stake-s,578,1888392,0.0-18.0-0.0-0.91,2447,2,1
92,4,object_02,object_04,769.105,8,1,438.11499979999996,0.6666666666666666,2,object_09,1,607,0,2,6,restaurant_2,2,memory-2step-stake-s,579,1896681,0.0-18.0-0.0-0.92,2447,8,7
93,3,object_10,object_01,863.9750001,6,2,1212.12,0.3333333333333333,2,object_09,5,622,0,2,3,library_7,2,memory-2step-stake-s,580,1905434,0.0-18.0-0.0-0.93,2447,5,6
94,2,object_03,object_06,623.2999999,4,1,611.235,0.4444444444444444,2,object_09,5,642,0,4,4,forest_14,2,memory-2step-stake-s,581,1913697,0.0-18.0-0.0-0.94,2447,4,3
95,1,object_05,object_07,454.20999989999996,1,2,546.5599999,0.5555555555555556,1,object_08,5,667,0,5,6,desert_29,2,memory-2step-stake-s,582,1921986,0.0-18.0-0.0-0.95,2447,2,1
96,2,object_03,object_06,2.545000054,4,1,507.435,0.7777777777777778,2,object_09,1,674,0,1,7,forest_31,2,memory-2step-stake-s,583,1930452,0.0-18.0-0.0-0.96,2447,4,3
97,4,object_02,object_04,453.58,7,2,756.9899998999999,0.1111111111111111,1,object_08,1,675,0,1,7,restaurant_12,2,memory-2step-stake-s,584,1938549,0.0-18.0-0.0-0.97,2447,8,7
98,3,object_10,object_01,830.935,5,1,392.16500010000004,0.1111111111111111,1,object_08,1,676,0,1,8,library_17,2,memory-2step-stake-s,585,1946280,0.0-18.0-0.0-0.98,2447,5,6
99,1,object_05,object_07,25.52499995,1,2,791.74,0.2222222222222222,1,object_08,1,678,0,2,8,desert_12,2,memory-2step-stake-s,586,1954515,0.0-18.0-0.0-0.99,2447,2,1
100,2,object_03,object_06,334.9550001,4,1,565.01,0.7777777777777778,2,object_09,5,713,0,1,7,forest_17,2,memory-2step-stake-s,587,1963036,0.0-18.0-0.0-0.100,2447,4,3
101,3,object_10,object_01,-1.0,-1,-1,-1.0,0.0,-,,1,713,0,2,6,library_6,2,memory-2step-stake-s,588,1969559,0.0-18.0-0.0-0.101,2447,5,6
102,2,object_03,object_06,454.31000020000005,3,2,483.305,0.1111111111111111,1,object_08,5,718,0,1,4,forest_28,2,memory-2step-stake-s,589,1977371,0.0-18.0-0.0-0.102,2447,4,3
103,3,object_01,object_10,436.885,6,1,588.9949999,0.0,2,object_09,1,718,0,2,0,library_29,2,memory-2step-stake-s,590,1985200,0.0-18.0-0.0-0.103,2447,6,5
104,3,object_01,object_10,392.795,5,2,1451.83,0.3333333333333333,1,object_08,1,721,0,3,1,library_28,2,memory-2step-stake-s,591,1994201,0.0-18.0-0.0-0.104,2447,6,5
105,2,object_06,object_03,436.7149998,3,1,455.79499979999997,0.5555555555555556,1,object_08,5,746,0,5,1,forest_19,2,memory-2step-stake-s,592,2002400,0.0-18.0-0.0-0.105,2447,3,4
106,1,object_07,object_05,181.3399999,2,2,570.395,0.1111111111111111,2,object_09,5,751,0,6,1,desert_12,2,memory-2step-stake-s,593,2010308,0.0-18.0-0.0-0.106,2447,1,2
107,1,object_07,object_05,419.6599999,1,1,672.39,0.6666666666666666,1,object_08,5,781,0,6,2,desert_2,2,memory-2step-stake-s,594,2018844,0.0-18.0-0.0-0.107,2447,1,2
108,4,object_04,object_02,155.1300001,8,2,482.7700001,0.2222222222222222,2,object_09,1,783,0,5,2,restaurant_28,2,memory-2step-stake-s,595,2026764,0.0-18.0-0.0-0.108,2447,7,8
109,2,object_03,object_06,519.6049998,4,1,232.52999989999998,0.2222222222222222,2,object_09,5,793,0,6,2,forest_28,2,memory-2step-stake-s,596,2034442,0.0-18.0-0.0-0.109,2447,4,3
110,3,object_01,object_10,377.67000010000004,5,2,391.07499989999997,0.8888888888888888,1,object_08,1,801,0,8,2,library_17,2,memory-2step-stake-s,597,2042902,0.0-18.0-0.0-0.110,2447,6,5
111,1,object_07,object_05,378.645,1,1,458.4600001,0.5555555555555556,1,object_08,5,826,0,5,4,desert_10,2,memory-2step-stake-s,598,2051094,0.0-18.0-0.0-0.111,2447,1,2
112,3,object_10,object_01,575.4200001,6,2,951.6450001000001,0.4444444444444444,2,object_09,1,830,0,6,4,library_32,2,memory-2step-stake-s,599,2059684,0.0-18.0-0.0-0.112,2447,5,6
113,2,object_06,object_03,530.5050001,3,1,636.2399998999999,0.8888888888888888,1,object_08,5,870,0,8,3,forest_19,2,memory-2step-stake-s,600,2068371,0.0-18.0-0.0-0.113,2447,3,4
114,1,object_07,object_05,312.14499989999996,1,1,313.0349999,0.7777777777777778,1,object_08,1,877,0,7,1,desert_20,2,memory-2step-stake-s,601,2076651,0.0-18.0-0.0-0.114,2447,1,2
115,1,object_05,object_07,96.64500016,1,2,460.765,0.8888888888888888,1,object_08,1,885,0,8,1,desert_1,2,memory-2step-stake-s,602,2085177,0.0-18.0-0.0-0.115,2447,2,1
116,3,object_01,object_10,1038.89,5,2,462.67500010000003,0.8888888888888888,1,object_08,1,893,0,8,2,library_6,2,memory-2step-stake-s,603,2093706,0.0-18.0-0.0-0.116,2447,6,5
117,1,object_07,object_05,445.0350001,1,1,667.2399998999999,0.8888888888888888,1,object_08,5,933,0,8,1,desert_29,2,memory-2step-stake-s,604,2102438,0.0-18.0-0.0-0.117,2447,1,2
118,1,object_07,object_05,562.3600001,2,2,438.45,0.2222222222222222,2,object_09,5,943,0,7,2,desert_9,2,memory-2step-stake-s,605,2110326,0.0-18.0-0.0-0.118,2447,1,2
119,1,object_07,object_05,433.7850001,1,1,673.215,0.8888888888888888,1,object_08,5,983,0,8,2,desert_3,2,memory-2step-stake-s,606,2119061,0.0-18.0-0.0-0.119,2447,1,2
120,4,object_04,object_02,479.7799999,8,2,927.2750001,0.4444444444444444,2,object_09,1,987,0,9,4,restaurant_4,2,memory-2step-stake-s,607,2127634,0.0-18.0-0.0-0.120,2447,7,8
121,4,object_02,object_04,645.88,8,1,818.305,0.5555555555555556,2,object_09,1,992,0,7,5,restaurant_25,2,memory-2step-stake-s,608,2136191,0.0-18.0-0.0-0.121,2447,8,7
122,3,object_10,object_01,412.7999998,6,2,493.175,0.5555555555555556,2,object_09,1,997,0,8,5,library_28,2,memory-2step-stake-s,609,2144436,0.0-18.0-0.0-0.122,2447,5,6
123,2,object_03,object_06,1393.285,4,1,692.0950001,0.5555555555555556,2,object_09,5,1022,0,5,5,forest_17,2,memory-2step-stake-s,610,2152877,0.0-18.0-0.0-0.123,2447,4,3
124,1,object_05,object_07,279.2199999,1,2,527.005,0.5555555555555556,1,object_08,1,1027,0,5,5,desert_17,2,memory-2step-stake-s,611,2161149,0.0-18.0-0.0-0.124,2447,2,1
125,3,object_01,object_10,498.5150001,6,1,-1.0,0.0,2,object_09,1,1027,0,4,6,library_4,2,memory-2step-stake-s,612,2169723,0.0-18.0-0.0-0.125,2447,6,5
126,1,object_07,object_05,405.7499999,2,2,463.31499979999995,0.3333333333333333,2,object_09,5,1042,0,6,3,desert_22,2,memory-2step-stake-s,613,2177721,0.0-18.0-0.0-0.126,2447,1,2
127,2,object_03,object_06,311.7449998,4,1,597.6549999,0.2222222222222222,2,object_09,1,1044,0,3,2,forest_8,2,memory-2step-stake-s,614,2185756,0.0-18.0-0.0-0.127,2447,4,3
128,2,object_06,object_03,407.4049999,4,2,483.17000010000004,0.3333333333333333,2,object_09,5,1059,0,4,3,forest_26,2,memory-2step-stake-s,616,2223627,0.0-18.0-0.1-0.128,2447,3,4
129,1,object_07,object_05,585.375,1,1,444.225,0.3333333333333333,1,object_08,5,1074,0,3,2,desert_22,2,memory-2step-stake-s,617,2231618,0.0-18.0-0.1-0.129,2447,1,2
130,4,object_02,object_04,170.62,7,2,450.835,0.2222222222222222,1,object_08,1,1076,0,2,5,restaurant_23,2,memory-2step-stake-s,618,2239503,0.0-18.0-0.1-0.130,2447,8,7
131,4,object_04,object_02,330.82999989999996,7,1,882.395,0.5555555555555556,1,object_08,5,1101,0,5,5,restaurant_10,2,memory-2step-stake-s,619,2248131,0.0-18.0-0.1-0.131,2447,7,8
132,2,object_03,object_06,508.50499979999995,4,1,706.6249999,0.7777777777777778,2,object_09,5,1136,0,8,7,forest_21,2,memory-2step-stake-s,620,2256782,0.0-18.0-0.1-0.132,2447,4,3
133,3,object_10,object_01,536.9899998999999,6,2,616.4900002,0.8888888888888888,2,object_09,1,1144,0,8,8,library_31,2,memory-2step-stake-s,621,2265444,0.0-18.0-0.1-0.133,2447,5,6
134,3,object_10,object_01,481.4849999,5,1,499.3,0.8888888888888888,1,object_08,5,1184,0,8,6,library_30,2,memory-2step-stake-s,622,2274008,0.0-18.0-0.1-0.134,2447,5,6
135,3,object_10,object_01,305.25,6,2,449.93000010000003,0.5555555555555556,2,object_09,1,1189,0,4,5,library_8,2,memory-2step-stake-s,623,2282220,0.0-18.0-0.1-0.135,2447,5,6
136,2,object_03,object_06,292.30500010000003,4,1,397.995,0.7777777777777778,2,object_09,5,1224,0,5,7,forest_26,2,memory-2step-stake-s,624,2290584,0.0-18.0-0.1-0.136,2447,4,3
137,4,object_02,object_04,841.8050001,7,2,590.8350002000001,0.6666666666666666,1,object_08,1,1230,0,6,5,restaurant_10,2,memory-2step-stake-s,625,2299025,0.0-18.0-0.1-0.137,2447,8,7
138,4,object_04,object_02,170.0899999,7,1,341.6899999,0.4444444444444444,1,object_08,1,1234,0,4,5,restaurant_27,2,memory-2step-stake-s,626,2307022,0.0-18.0-0.1-0.138,2447,7,8
139,3,object_01,object_10,429.1600001,5,2,440.4500001,0.3333333333333333,1,object_08,1,1237,0,3,3,library_26,2,memory-2step-stake-s,627,2315001,0.0-18.0-0.1-0.139,2447,6,5
140,4,object_02,object_04,497.32999989999996,8,1,572.29,0.4444444444444444,2,object_09,1,1241,0,3,4,restaurant_31,2,memory-2step-stake-s,628,2323218,0.0-18.0-0.1-0.140,2447,8,7
141,2,object_03,object_06,820.6500001,3,2,581.125,0.3333333333333333,1,object_08,5,1256,0,3,4,forest_11,2,memory-2step-stake-s,629,2331347,0.0-18.0-0.1-0.141,2447,4,3
142,3,object_01,object_10,433.585,6,1,657.0050002,0.4444444444444444,2,object_09,5,1276,0,0,4,library_4,2,memory-2step-stake-s,630,2339649,0.0-18.0-0.1-0.142,2447,6,5
143,2,object_06,object_03,484.6300001,4,2,476.275,0.4444444444444444,2,object_09,5,1296,0,2,4,forest_16,2,memory-2step-stake-s,631,2347770,0.0-18.0-0.1-0.143,2447,3,4
144,3,object_01,object_10,570.3399999,6,1,506.9000002,0.3333333333333333,2,object_09,5,1311,0,7,3,library_2,2,memory-2step-stake-s,632,2355809,0.0-18.0-0.1-0.144,2447,6,5
145,2,object_06,object_03,328.10500010000004,4,2,453.2349999,0.4444444444444444,2,object_09,5,1331,0,8,4,forest_21,2,memory-2step-stake-s,633,2363912,0.0-18.0-0.1-0.145,2447,3,4
146,4,object_02,object_04,370.7949999,8,1,448.66,0.5555555555555556,2,object_09,5,1356,0,7,5,restaurant_7,2,memory-2step-stake-s,634,2372107,0.0-18.0-0.1-0.146,2447,8,7
147,3,object_10,object_01,425.4150002,6,2,388.83499989999996,0.2222222222222222,2,object_09,1,1358,0,9,2,library_29,2,memory-2step-stake-s,635,2379942,0.0-18.0-0.1-0.147,2447,5,6
148,4,object_04,object_02,340.605,7,1,525.9399998,0.8888888888888888,1,object_08,1,1366,0,8,1,restaurant_31,2,memory-2step-stake-s,636,2388531,0.0-18.0-0.1-0.148,2447,7,8
149,2,object_06,object_03,377.505,4,2,468.35,0.3333333333333333,2,object_09,5,1381,0,8,3,forest_8,2,memory-2step-stake-s,637,2396546,0.0-18.0-0.1-0.149,2447,3,4
150,1,object_05,object_07,-1.0,-1,-1,-1.0,0.0,-,,5,1381,0,9,2,desert_23,2,memory-2step-stake-s,638,2403077,0.0-18.0-0.1-0.150,2447,2,1
151,4,object_02,object_04,505.86500020000005,8,1,512.8049999,0.3333333333333333,2,object_09,5,1396,0,8,3,restaurant_26,2,memory-2step-stake-s,639,2411118,0.0-18.0-0.1-0.151,2447,8,7
152,4,object_04,object_02,577.2800001,8,2,-1.0,0.0,2,object_09,1,1396,0,8,6,restaurant_28,2,memory-2step-stake-s,640,2419651,0.0-18.0-0.1-0.152,2447,7,8
153,3,object_01,object_10,594.5000001,6,1,539.8800001,0.5555555555555556,2,object_09,1,1401,0,9,5,library_30,2,memory-2step-stake-s,641,2427939,0.0-18.0-0.1-0.153,2447,6,5
154,3,object_01,object_10,418.3399999,5,2,730.1999999,0.6666666666666666,1,object_08,1,1407,0,6,4,library_32,2,memory-2step-stake-s,642,2436524,0.0-18.0-0.1-0.154,2447,6,5
155,3,object_10,object_01,368.5600001,5,1,641.485,0.8888888888888888,1,object_08,1,1415,0,8,2,library_31,2,memory-2step-stake-s,643,2445223,0.0-18.0-0.1-0.155,2447,5,6
156,2,object_06,object_03,329.3049999,4,2,445.995,0.1111111111111111,2,object_09,5,1420,0,8,1,forest_26,2,memory-2step-stake-s,644,2453005,0.0-18.0-0.1-0.156,2447,3,4
157,2,object_03,object_06,492.6450001,4,1,680.1849999,0.5555555555555556,2,object_09,5,1445,0,8,5,forest_14,2,memory-2step-stake-s,645,2461441,0.0-18.0-0.1-0.157,2447,4,3
158,1,object_07,object_05,538.8300002000001,1,1,519.7050001,0.5555555555555556,1,object_08,5,1470,0,5,5,desert_17,2,memory-2step-stake-s,646,2469713,0.0-18.0-0.1-0.158,2447,1,2
159,1,object_07,object_05,3.9349999280000003,2,2,379.3199998,0.4444444444444444,2,object_09,1,1474,0,2,4,desert_1,2,memory-2step-stake-s,647,2477742,0.0-18.0-0.1-0.159,2447,1,2
160,4,object_04,object_02,8.330000099,7,1,559.0549998,0.2222222222222222,1,object_08,1,1476,0,2,1,restaurant_7,2,memory-2step-stake-s,648,2485740,0.0-18.0-0.1-0.160,2447,7,8
161,1,object_07,object_05,242.7950001,2,2,659.3299999,0.1111111111111111,2,object_09,5,1481,0,1,1,desert_20,2,memory-2step-stake-s,649,2493737,0.0-18.0-0.1-0.161,2447,1,2
162,1,object_05,object_07,697.0550001,2,1,851.6849999,0.1111111111111111,2,object_09,1,1482,0,2,1,desert_13,2,memory-2step-stake-s,650,2501924,0.0-18.0-0.1-0.162,2447,2,1
163,4,object_02,object_04,576.9199999,7,2,354.1000001,0.5555555555555556,1,object_08,1,1487,0,5,1,restaurant_23,2,memory-2step-stake-s,651,2510036,0.0-18.0-0.1-0.163,2447,8,7
164,1,object_05,object_07,488.445,2,1,640.17,0.4444444444444444,2,object_09,5,1507,0,6,4,desert_26,2,memory-2step-stake-s,652,2518321,0.0-18.0-0.1-0.164,2447,2,1
165,2,object_03,object_06,175.335,3,2,424.445,0.8888888888888888,1,object_08,5,1547,0,8,6,forest_15,2,memory-2step-stake-s,653,2526807,0.0-18.0-0.1-0.165,2447,4,3
166,3,object_10,object_01,775.78,5,1,626.19,0.4444444444444444,1,object_08,1,1551,0,4,3,library_2,2,memory-2step-stake-s,654,2535091,0.0-18.0-0.1-0.166,2447,5,6
167,1,object_05,object_07,451.58499989999996,1,2,419.885,0.5555555555555556,1,object_08,5,1576,0,5,3,desert_29,2,memory-2step-stake-s,655,2543262,0.0-18.0-0.1-0.167,2447,2,1
168,3,object_10,object_01,580.1349999,5,1,351.27,0.3333333333333333,1,object_08,1,1579,0,3,3,library_4,2,memory-2step-stake-s,656,2551159,0.0-18.0-0.1-0.168,2447,5,6
169,1,object_05,object_07,583.72,1,2,513.9400002,0.1111111111111111,1,object_08,5,1584,0,1,1,desert_3,2,memory-2step-stake-s,657,2559017,0.0-18.0-0.1-0.169,2447,2,1
170,1,object_05,object_07,312.105,2,1,614.0749999,0.1111111111111111,2,object_09,5,1589,0,4,1,desert_13,2,memory-2step-stake-s,658,2566977,0.0-18.0-0.1-0.170,2447,2,1
171,1,object_07,object_05,986.1150002,2,2,569.96,0.1111111111111111,2,object_09,5,1594,0,8,1,desert_17,2,memory-2step-stake-s,659,2574879,0.0-18.0-0.1-0.171,2447,1,2
172,1,object_05,object_07,542.225,2,1,524.1,0.5555555555555556,2,object_09,5,1619,0,6,5,desert_10,2,memory-2step-stake-s,660,2583159,0.0-18.0-0.1-0.172,2447,2,1
173,3,object_01,object_10,935.67,5,2,1223.81,0.8888888888888888,1,object_08,1,1627,0,8,4,library_6,2,memory-2step-stake-s,661,2592447,0.0-18.0-0.1-0.173,2447,6,5
174,1,object_05,object_07,701.625,2,1,697.3300001,0.7777777777777778,2,object_09,5,1662,0,7,7,desert_9,2,memory-2step-stake-s,662,2601103,0.0-18.0-0.1-0.174,2447,2,1
175,3,object_01,object_10,332.985,5,2,364.21,0.7777777777777778,1,object_08,1,1669,0,7,9,library_2,2,memory-2step-stake-s,663,2609436,0.0-18.0-0.1-0.175,2447,6,5
176,3,object_01,object_10,411.8049999,6,1,720.835,0.8888888888888888,2,object_09,5,1709,0,8,8,library_8,2,memory-2step-stake-s,664,2618225,0.0-18.0-0.1-0.176,2447,6,5
177,4,object_02,object_04,140.4949999,7,2,451.47,1.0,1,object_08,5,1754,0,9,6,restaurant_19,2,memory-2step-stake-s,665,2626856,0.0-18.0-0.1-0.177,2447,8,7
178,1,object_05,object_07,470.9350001,2,1,409.8350001,0.7777777777777778,2,object_09,5,1789,0,8,7,desert_11,2,memory-2step-stake-s,666,2635230,0.0-18.0-0.1-0.178,2447,2,1
179,2,object_06,object_03,412.09,4,2,459.7199999,0.8888888888888888,2,object_09,5,1829,0,8,8,forest_22,2,memory-2step-stake-s,667,2643748,0.0-18.0-0.1-0.179,2447,3,4
180,3,object_10,object_01,750.545,5,1,601.795,0.5555555555555556,1,object_08,1,1834,0,5,7,library_17,2,memory-2step-stake-s,668,2652099,0.0-18.0-0.1-0.180,2447,5,6
181,3,object_10,object_01,447.7550001,6,2,610.225,1.0,2,object_09,1,1843,0,4,9,library_24,2,memory-2step-stake-s,669,2660863,0.0-18.0-0.1-0.181,2447,5,6
182,2,object_03,object_06,538.105,4,1,549.5750001,0.4444444444444444,2,object_09,5,1863,0,3,4,forest_19,2,memory-2step-stake-s,670,2669065,0.0-18.0-0.1-0.182,2447,4,3
183,1,object_07,object_05,497.31,2,2,520.2599999,0.4444444444444444,2,object_09,5,1883,0,1,4,desert_9,2,memory-2step-stake-s,671,2677239,0.0-18.0-0.1-0.183,2447,1,2
184,2,object_03,object_06,308.25,4,1,358.29000010000004,0.2222222222222222,2,object_09,5,1893,0,2,2,forest_22,2,memory-2step-stake-s,672,2685039,0.0-18.0-0.1-0.184,2447,4,3
185,1,object_07,object_05,399.37,2,2,550.06,0.3333333333333333,2,object_09,1,1896,0,4,3,desert_12,2,memory-2step-stake-s,673,2693132,0.0-18.0-0.1-0.185,2447,1,2
186,4,object_04,object_02,6.3300000039999995,7,1,493.98,0.3333333333333333,1,object_08,1,1899,0,3,0,restaurant_18,2,memory-2step-stake-s,674,2701168,0.0-18.0-0.1-0.186,2447,7,8
187,2,object_03,object_06,207.065,3,2,491.17500010000003,0.5555555555555556,1,object_08,1,1904,0,5,2,forest_31,2,memory-2step-stake-s,675,2709408,0.0-18.0-0.1-0.187,2447,4,3
188,3,object_01,object_10,394.3649998,6,1,1104.85,0.1111111111111111,2,object_09,1,1905,0,5,1,library_1,2,memory-2step-stake-s,676,2717848,0.0-18.0-0.1-0.188,2447,6,5
189,3,object_01,object_10,395.3499999,5,2,452.25999989999997,0.2222222222222222,1,object_08,1,1907,0,2,2,library_24,2,memory-2step-stake-s,677,2725739,0.0-18.0-0.1-0.189,2447,6,5
190,2,object_06,object_03,311.6350002,3,1,579.4300002,0.0,1,object_08,5,1907,0,0,5,forest_16,2,memory-2step-stake-s,678,2733548,0.0-18.0-0.1-0.190,2447,3,4
191,1,object_05,object_07,255.5,1,2,362.1149999,0.1111111111111111,1,object_08,5,1912,0,1,6,desert_20,2,memory-2step-stake-s,679,2741245,0.0-18.0-0.1-0.191,2447,2,1
192,3,object_01,object_10,680.6400002,6,1,681.1549999,0.7777777777777778,2,object_09,5,1947,0,3,7,library_8,2,memory-2step-stake-s,680,2749886,0.0-18.0-0.1-0.192,2447,6,5
193,2,object_03,object_06,432.42,3,2,569.935,0.2222222222222222,1,object_08,5,1957,0,2,4,forest_11,2,memory-2step-stake-s,681,2757898,0.0-18.0-0.1-0.193,2447,4,3
194,2,object_06,object_03,608.515,3,1,672.0,0.2222222222222222,1,object_08,5,1967,0,2,6,forest_11,2,memory-2step-stake-s,682,2766018,0.0-18.0-0.1-0.194,2447,3,4
195,4,object_02,object_04,491.225,7,2,613.7049999,0.4444444444444444,1,object_08,1,1971,0,4,6,restaurant_25,2,memory-2step-stake-s,683,2774285,0.0-18.0-0.1-0.195,2447,8,7
196,2,object_03,object_06,421.725,4,1,505.36000010000004,0.4444444444444444,2,object_09,5,1991,0,3,4,forest_20,2,memory-2step-stake-s,684,2782436,0.0-18.0-0.1-0.196,2447,4,3
197,3,object_10,object_01,434.92500020000006,6,2,697.005,0.4444444444444444,2,object_09,1,1995,0,7,4,library_28,2,memory-2step-stake-s,685,2790766,0.0-18.0-0.1-0.197,2447,5,6
198,2,object_06,object_03,508.26499979999994,3,1,568.65,0.8888888888888888,1,object_08,5,2035,0,8,3,forest_21,2,memory-2step-stake-s,686,2799397,0.0-18.0-0.1-0.198,2447,3,4
199,2,object_06,object_03,1177.19,3,1,582.7499998,0.7777777777777778,1,object_08,5,2070,0,7,4,forest_17,2,memory-2step-stake-s,687,2807929,0.0-18.0-0.1-0.199,2447,3,4
200,4,object_02,object_04,41.46500002,7,2,535.72,0.7777777777777778,1,object_08,1,2077,0,7,6,restaurant_25,2,memory-2step-stake-s,688,2816418,0.0-18.0-0.1-0.200,2447,8,7
201,3,object_01,object_10,497.4749999,6,1,553.355,0.7777777777777778,2,object_09,1,2084,0,8,7,library_32,2,memory-2step-stake-s,689,2824924,0.0-18.0-0.1-0.201,2447,6,5
202,1,object_05,object_07,505.87,1,2,425.4349999,1.0,1,object_08,5,2129,0,9,7,desert_2,2,memory-2step-stake-s,690,2833514,0.0-18.0-0.1-0.202,2447,2,1
203,4,object_02,object_04,671.8899999,8,1,440.65,0.5555555555555556,2,object_09,1,2134,0,8,5,restaurant_26,2,memory-2step-stake-s,691,2841697,0.0-18.0-0.1-0.203,2447,8,7
204,3,object_01,object_10,584.5350001,5,2,617.6100001,0.7777777777777778,1,object_08,5,2169,0,7,6,library_1,2,memory-2step-stake-s,692,2850273,0.0-18.0-0.1-0.204,2447,6,5
205,2,object_03,object_06,862.56,4,1,961.4649999,0.6666666666666666,2,object_09,1,2175,0,4,6,forest_11,2,memory-2step-stake-s,693,2859089,0.0-18.0-0.1-0.205,2447,4,3
206,1,object_05,object_07,396.3250001,2,1,503.8350001,0.6666666666666666,2,object_09,5,2205,0,5,6,desert_21,2,memory-2step-stake-s,694,2867449,0.0-18.0-0.1-0.206,2447,2,1
207,1,object_07,object_05,794.4199999,2,2,842.1,0.4444444444444444,2,object_09,5,2225,0,8,4,desert_13,2,memory-2step-stake-s,695,2875939,0.0-18.0-0.1-0.207,2447,1,2
208,4,object_04,object_02,429.6250001,7,1,405.2500001,1.0,1,object_08,5,2270,0,9,4,restaurant_4,2,memory-2step-stake-s,696,2884511,0.0-18.0-0.1-0.208,2447,7,8
209,4,object_04,object_02,529.3050001,8,2,494.74999979999996,0.2222222222222222,2,object_09,1,2272,0,8,2,restaurant_2,2,memory-2step-stake-s,697,2892450,0.0-18.0-0.1-0.209,2447,7,8
210,4,object_02,object_04,659.8150001,8,1,456.25,0.6666666666666666,2,object_09,5,2302,0,7,6,restaurant_12,2,memory-2step-stake-s,698,2900753,0.0-18.0-0.1-0.210,2447,8,7
211,2,object_03,object_06,516.6749998,3,2,551.215,0.6666666666666666,1,object_08,5,2332,0,6,8,forest_15,2,memory-2step-stake-s,699,2909165,0.0-18.0-0.1-0.211,2447,4,3
212,3,object_10,object_01,146.46,5,1,545.565,0.6666666666666666,1,object_08,5,2362,0,6,6,library_22,2,memory-2step-stake-s,700,2917554,0.0-18.0-0.1-0.212,2447,5,6
213,4,object_02,object_04,909.825,7,2,412.9600001,0.1111111111111111,1,object_08,1,2363,0,1,7,restaurant_19,2,memory-2step-stake-s,701,2925307,0.0-18.0-0.1-0.213,2447,8,7
214,4,object_02,object_04,466.56999989999997,8,1,524.9299998,0.8888888888888888,2,object_09,1,2371,0,3,8,restaurant_23,2,memory-2step-stake-s,702,2933892,0.0-18.0-0.1-0.214,2447,8,7
215,4,object_02,object_04,224.2800002,8,1,325.0,0.8888888888888888,2,object_09,1,2379,0,4,8,restaurant_23,2,memory-2step-stake-s,703,2942278,0.0-18.0-0.1-0.215,2447,8,7
216,2,object_06,object_03,633.7349998999999,4,2,419.4699998,0.8888888888888888,2,object_09,5,2419,0,0,8,forest_16,2,memory-2step-stake-s,704,2950760,0.0-18.0-0.1-0.216,2447,3,4
217,1,object_07,object_05,765.65,1,1,-1.0,0.0,1,object_08,5,2419,0,5,5,desert_26,2,memory-2step-stake-s,705,2959290,0.0-18.0-0.1-0.217,2447,1,2
218,1,object_07,object_05,119.715,1,1,355.155,0.1111111111111111,1,object_08,5,2424,0,1,1,desert_26,2,memory-2step-stake-s,706,2966980,0.0-18.0-0.1-0.218,2447,1,2
219,1,object_07,object_05,330.26,2,2,577.08,0.2222222222222222,2,object_09,5,2434,0,4,2,desert_21,2,memory-2step-stake-s,707,2975002,0.0-18.0-0.1-0.219,2447,1,2
220,2,object_06,object_03,371.2200001,3,1,190.76000009999998,0.4444444444444444,1,object_08,1,2438,0,4,2,forest_31,2,memory-2step-stake-s,708,2982840,0.0-18.0-0.1-0.220,2447,3,4
221,1,object_05,object_07,373.16,1,2,465.48,0.3333333333333333,1,object_08,1,2441,0,3,4,desert_3,2,memory-2step-stake-s,709,2990851,0.0-18.0-0.1-0.221,2447,2,1
222,1,object_05,object_07,279.105,2,1,669.9249998,0.5555555555555556,2,object_09,5,2466,0,4,5,desert_5,2,memory-2step-stake-s,710,2999270,0.0-18.0-0.1-0.222,2447,2,1
223,2,object_06,object_03,198.7449999,4,2,606.4249999,0.6666666666666666,2,object_09,1,2472,0,2,6,forest_15,2,memory-2step-stake-s,711,3007725,0.0-18.0-0.1-0.223,2447,3,4
224,1,object_07,object_05,404.1900001,1,1,777.8749999,0.4444444444444444,1,object_08,5,2492,0,4,6,desert_11,2,memory-2step-stake-s,712,3016145,0.0-18.0-0.1-0.224,2447,1,2
225,4,object_02,object_04,422.99000010000003,8,1,-1.0,0.0,2,object_09,1,2492,0,4,5,restaurant_18,2,memory-2step-stake-s,713,3024681,0.0-18.0-0.1-0.225,2447,8,7
226,3,object_10,object_01,214.595,6,2,853.14,0.5555555555555556,2,object_09,5,2517,0,2,5,library_1,2,memory-2step-stake-s,714,3033275,0.0-18.0-0.1-0.226,2447,5,6
227,4,object_02,object_04,446.575,7,2,1081.505,0.1111111111111111,1,object_08,1,2518,0,1,2,restaurant_19,2,memory-2step-stake-s,715,3041694,0.0-18.0-0.1-0.227,2447,8,7
228,3,object_01,object_10,662.0499999,6,1,607.8900001000001,0.5555555555555556,2,object_09,1,2523,0,0,5,library_22,2,memory-2step-stake-s,716,3050038,0.0-18.0-0.1-0.228,2447,6,5
229,1,object_07,object_05,781.4399998,2,2,639.615,0.4444444444444444,2,object_09,5,2543,0,0,4,desert_23,2,memory-2step-stake-s,717,3058335,0.0-18.0-0.1-0.229,2447,1,2
230,2,object_06,object_03,659.425,3,1,644.29,0.2222222222222222,1,object_08,5,2553,0,2,5,forest_3,2,memory-2step-stake-s,718,3066409,0.0-18.0-0.1-0.230,2447,3,4
231,1,object_05,object_07,742.295,2,1,-1.0,0.0,2,object_09,5,2553,0,2,8,desert_1,2,memory-2step-stake-s,719,3074932,0.0-18.0-0.1-0.231,2447,2,1
232,2,object_03,object_06,462.4600001,4,1,1135.07,0.8888888888888888,2,object_09,1,2561,0,2,8,forest_30,2,memory-2step-stake-s,720,3084137,0.0-18.0-0.1-0.232,2447,4,3
233,4,object_02,object_04,382.73,7,2,1093.5,0.2222222222222222,1,object_08,5,2571,0,2,6,restaurant_3,2,memory-2step-stake-s,721,3092668,0.0-18.0-0.1-0.233,2447,8,7
234,2,object_03,object_06,326.82499989999997,4,1,-1.0,0.0,2,object_09,5,2571,0,1,4,forest_28,2,memory-2step-stake-s,722,3101203,0.0-18.0-0.1-0.234,2447,4,3
235,2,object_03,object_06,53.96000016,4,1,83.94000004,0.7777777777777778,2,object_09,5,2606,0,4,7,forest_19,2,memory-2step-stake-s,723,3109243,0.0-18.0-0.1-0.235,2447,4,3
236,2,object_06,object_03,578.52,4,2,496.5899999,0.8888888888888888,2,object_09,5,2646,0,2,8,forest_20,2,memory-2step-stake-s,724,3117797,0.0-18.0-0.1-0.236,2447,3,4
237,4,object_02,object_04,394.9249999,8,1,379.8449999,0.6666666666666666,2,object_09,5,2676,0,3,6,restaurant_2,2,memory-2step-stake-s,725,3126035,0.0-18.0-0.1-0.237,2447,8,7
238,4,object_02,object_04,186.7,7,2,538.13,0.2222222222222222,1,object_08,1,2678,0,2,7,restaurant_3,2,memory-2step-stake-s,726,3134021,0.0-18.0-0.1-0.238,2447,8,7
239,2,object_03,object_06,389.9149999,4,1,492.55000010000003,0.6666666666666666,2,object_09,5,2708,0,3,6,forest_30,2,memory-2step-stake-s,727,3142359,0.0-18.0-0.1-0.239,2447,4,3
240,3,object_10,object_01,331.605,6,2,409.2050001,0.8888888888888888,2,object_09,1,2716,0,1,8,library_7,2,memory-2step-stake-s,728,3150821,0.0-18.0-0.1-0.240,2447,5,6
241,3,object_01,object_10,38.11999992,6,1,413.56999989999997,0.6666666666666666,2,object_09,1,2722,0,0,6,library_31,2,memory-2step-stake-s,729,3159075,0.0-18.0-0.1-0.241,2447,6,5
242,4,object_04,object_02,356.93,8,2,484.045,0.8888888888888888,2,object_09,1,2730,0,1,8,restaurant_3,2,memory-2step-stake-s,730,3167631,0.0-18.0-0.1-0.242,2447,7,8
243,1,object_05,object_07,478.66500010000004,2,1,556.42,0.7777777777777778,2,object_09,5,2765,0,1,7,desert_29,2,memory-2step-stake-s,731,3176148,0.0-18.0-0.1-0.243,2447,2,1
244,4,object_02,object_04,51.15000019,8,1,419.5900001,1.0,2,object_09,1,2774,0,0,9,restaurant_31,2,memory-2step-stake-s,732,3184728,0.0-18.0-0.1-0.244,2447,8,7
245,1,object_07,object_05,560.605,2,2,624.965,0.6666666666666666,2,object_09,5,2804,0,2,6,desert_1,2,memory-2step-stake-s,733,3193214,0.0-18.0-0.1-0.245,2447,1,2
246,2,object_06,object_03,257.03,3,1,571.5450002,0.4444444444444444,1,object_08,5,2824,0,4,5,forest_31,2,memory-2step-stake-s,734,3201415,0.0-18.0-0.1-0.246,2447,3,4
247,3,object_10,object_01,400.715,6,2,468.30000010000003,0.5555555555555556,2,object_09,5,2849,0,4,5,library_7,2,memory-2step-stake-s,735,3209635,0.0-18.0-0.1-0.247,2447,5,6
248,2,object_06,object_03,432.86500010000003,3,1,512.265,0.1111111111111111,1,object_08,5,2854,0,1,7,forest_8,2,memory-2step-stake-s,736,3217487,0.0-18.0-0.1-0.248,2447,3,4
249,3,object_01,object_10,181.82999990000002,5,2,400.1250002,0.1111111111111111,1,object_08,1,2855,0,1,6,library_9,2,memory-2step-stake-s,737,3225224,0.0-18.0-0.1-0.249,2447,6,5
250,2,object_03,object_06,342.7899999,4,1,435.2300002,0.8888888888888888,2,object_09,5,2895,0,1,8,forest_22,2,memory-2step-stake-s,738,3233712,0.0-18.0-0.1-0.250,2447,4,3
251,3,object_01,object_10,403.3849998,5,2,455.11,0.2222222222222222,1,object_08,1,2897,0,2,8,library_8,2,memory-2step-stake-s,739,3241617,0.0-18.0-0.1-0.251,2447,6,5
252,2,object_06,object_03,49.31000015,3,1,516.9250001,0.5555555555555556,1,object_08,5,2922,0,5,6,forest_20,2,memory-2step-stake-s,740,3249891,0.0-18.0-0.1-0.252,2447,3,4
253,4,object_04,object_02,312.8749998,8,2,369.3199998,0.6666666666666666,2,object_09,1,2928,0,4,6,restaurant_9,2,memory-2step-stake-s,741,3258118,0.0-18.0-0.1-0.253,2447,7,8
254,2,object_06,object_03,78.84500013,3,1,383.405,0.6666666666666666,1,object_08,5,2958,0,6,7,forest_4,2,memory-2step-stake-s,742,3266368,0.0-18.0-0.1-0.254,2447,3,4
255,3,object_01,object_10,569.8850001000001,5,2,626.5150001000001,0.7777777777777778,1,object_08,5,2993,0,7,7,library_26,2,memory-2step-stake-s,743,3274941,0.0-18.0-0.1-0.255,2447,6,5
