,state1,stim_left,stim_right,rt_1,choice1,response1,rt_2,points,state2,stim_state2,stake,score,practice,rews1,rews2,background,high_arm,trial_type,trial_index,time_elapsed,internal_node_id,subid,stim_left_num,stim_right_num
0,2,object_08,object_06,1296.0,4,2,1337.0,0.2222222222222222,2,object_10,5,10,0,1,2,forest_1,2,memory-2step-stake-s,495,1172843,0.0-18.0-0.0-0.0,4445,3,4
1,1,object_03,object_05,1016.0,2,2,-1.0,0.0,2,object_10,5,10,0,2,2,desert_20,2,memory-2step-stake-s,496,1181356,0.0-18.0-0.0-0.1,4445,1,2
2,3,object_01,object_09,766.0,6,2,-1.0,0.0,2,object_10,1,10,0,7,3,library_25,2,memory-2step-stake-s,497,1189874,0.0-18.0-0.0-0.2,4445,5,6
3,3,object_01,object_09,476.0,6,2,328.0,0.2222222222222222,2,object_10,1,12,0,7,2,library_4,2,memory-2step-stake-s,498,1197620,0.0-18.0-0.0-0.3,4445,5,6
4,2,object_06,object_08,686.0,3,2,902.0,0.6666666666666666,1,object_02,5,42,0,6,0,forest_11,2,memory-2step-stake-s,499,1206341,0.0-18.0-0.0-0.4,4445,4,3
5,1,object_03,object_05,891.0,1,1,439.0,0.3333333333333333,1,object_02,5,57,0,3,1,desert_5,2,memory-2step-stake-s,500,1214296,0.0-18.0-0.0-0.5,4445,1,2
6,2,object_08,object_06,888.0,3,1,372.0,0.3333333333333333,1,object_02,5,72,0,3,2,forest_19,2,memory-2step-stake-s,501,1222188,0.0-18.0-0.0-0.6,4445,3,4
7,1,object_05,object_03,737.0,1,2,1351.0,0.2222222222222222,1,object_02,5,82,0,2,4,desert_31,2,memory-2step-stake-s,502,1230963,0.0-18.0-0.0-0.7,4445,2,1
8,2,object_06,object_08,764.0,4,1,446.0,0.4444444444444444,2,object_10,5,102,0,4,4,forest_26,2,memory-2step-stake-s,503,1239026,0.0-18.0-0.0-0.8,4445,4,3
9,4,object_07,object_04,995.0,8,1,517.0,0.6666666666666666,2,object_10,1,108,0,1,6,restaurant_12,2,memory-2step-stake-s,504,1247366,0.0-18.0-0.0-0.9,4445,8,7
10,2,object_08,object_06,1397.0,4,2,453.0,0.6666666666666666,2,object_10,5,138,0,0,6,forest_20,2,memory-2step-stake-s,505,1255641,0.0-18.0-0.0-0.10,4445,3,4
11,4,object_04,object_07,466.0,8,2,369.0,0.6666666666666666,2,object_10,1,144,0,2,6,restaurant_13,2,memory-2step-stake-s,506,1263837,0.0-18.0-0.0-0.11,4445,7,8
12,4,object_04,object_07,511.0,8,2,377.0,0.3333333333333333,2,object_10,1,147,0,1,3,restaurant_21,2,memory-2step-stake-s,507,1271736,0.0-18.0-0.0-0.12,4445,7,8
13,2,object_06,object_08,729.0,3,2,612.0,0.0,1,object_02,1,147,0,0,1,forest_13,2,memory-2step-stake-s,508,1279563,0.0-18.0-0.0-0.13,4445,4,3
14,3,object_09,object_01,1058.0,5,2,422.0,0.0,1,object_02,1,147,0,0,0,library_19,2,memory-2step-stake-s,509,1287198,0.0-18.0-0.0-0.14,4445,6,5
15,4,object_04,object_07,1113.0,8,2,379.0,0.2222222222222222,2,object_10,1,149,0,2,2,restaurant_12,2,memory-2step-stake-s,510,1294995,0.0-18.0-0.0-0.15,4445,7,8
16,3,object_01,object_09,1000.0,6,2,403.0,0.4444444444444444,2,object_10,1,153,0,5,4,library_6,2,memory-2step-stake-s,511,1303018,0.0-18.0-0.0-0.16,4445,5,6
17,1,object_05,object_03,657.0,1,2,308.0,0.4444444444444444,1,object_02,1,157,0,4,4,desert_6,2,memory-2step-stake-s,512,1310950,0.0-18.0-0.0-0.17,4445,2,1
18,4,object_04,object_07,830.0,7,1,412.0,0.6666666666666666,1,object_02,1,163,0,6,2,restaurant_23,2,memory-2step-stake-s,513,1319183,0.0-18.0-0.0-0.18,4445,7,8
19,1,object_05,object_03,869.0,2,1,347.0,0.3333333333333333,2,object_10,5,178,0,6,3,desert_3,2,memory-2step-stake-s,514,1327051,0.0-18.0-0.0-0.19,4445,2,1
20,1,object_03,object_05,582.0,2,2,118.0,0.1111111111111111,2,object_10,5,183,0,9,1,desert_27,2,memory-2step-stake-s,515,1334484,0.0-18.0-0.0-0.20,4445,1,2
21,2,object_08,object_06,699.0,4,2,292.0,0.3333333333333333,2,object_10,1,186,0,8,3,forest_4,2,memory-2step-stake-s,516,1342300,0.0-18.0-0.0-0.21,4445,3,4
22,1,object_05,object_03,606.0,2,1,393.0,0.0,2,object_10,5,186,0,8,0,desert_11,2,memory-2step-stake-s,517,1349907,0.0-18.0-0.0-0.22,4445,2,1
23,1,object_03,object_05,584.0,1,1,356.0,0.7777777777777778,1,object_02,5,221,0,7,2,desert_20,2,memory-2step-stake-s,518,1358186,0.0-18.0-0.0-0.23,4445,1,2
24,3,object_09,object_01,-1.0,-1,-1,-1.0,0.0,-,,1,221,0,5,6,library_18,2,memory-2step-stake-s,519,1364695,0.0-18.0-0.0-0.24,4445,6,5
25,3,object_01,object_09,993.0,6,2,482.0,0.6666666666666666,2,object_10,1,227,0,4,6,library_22,2,memory-2step-stake-s,520,1373000,0.0-18.0-0.0-0.25,4445,5,6
26,4,object_04,object_07,1024.0,7,1,475.0,0.4444444444444444,1,object_02,1,231,0,4,3,restaurant_2,2,memory-2step-stake-s,521,1381093,0.0-18.0-0.0-0.26,4445,7,8
27,2,object_06,object_08,813.0,3,2,820.0,0.4444444444444444,1,object_02,5,251,0,4,0,forest_1,2,memory-2step-stake-s,522,1389537,0.0-18.0-0.0-0.27,4445,4,3
28,1,object_05,object_03,684.0,2,1,485.0,0.3333333333333333,2,object_10,5,266,0,4,3,desert_18,2,memory-2step-stake-s,523,1397541,0.0-18.0-0.0-0.28,4445,2,1
29,4,object_07,object_04,779.0,7,2,745.0,0.1111111111111111,1,object_02,1,267,0,1,4,restaurant_2,2,memory-2step-stake-s,524,1405602,0.0-18.0-0.0-0.29,4445,8,7
30,2,object_08,object_06,556.0,3,1,81.0,0.1111111111111111,1,object_02,5,272,0,1,3,forest_30,2,memory-2step-stake-s,525,1412997,0.0-18.0-0.0-0.30,4445,3,4
31,4,object_07,object_04,1095.0,8,1,419.0,0.5555555555555556,2,object_10,1,277,0,0,5,restaurant_2,2,memory-2step-stake-s,526,1421137,0.0-18.0-0.0-0.31,4445,8,7
32,2,object_08,object_06,902.0,4,2,397.0,0.5555555555555556,2,object_10,5,302,0,1,5,forest_28,2,memory-2step-stake-s,527,1429261,0.0-18.0-0.0-0.32,4445,3,4
33,4,object_04,object_07,705.0,8,2,393.0,0.6666666666666666,2,object_10,1,308,0,2,6,restaurant_1,2,memory-2step-stake-s,528,1437479,0.0-18.0-0.0-0.33,4445,7,8
34,3,object_01,object_09,870.0,6,2,448.0,0.4444444444444444,2,object_10,1,312,0,2,4,library_22,2,memory-2step-stake-s,529,1445547,0.0-18.0-0.0-0.34,4445,5,6
35,4,object_04,object_07,500.0,8,2,516.0,0.3333333333333333,2,object_10,1,315,0,3,3,restaurant_15,2,memory-2step-stake-s,530,1453581,0.0-18.0-0.0-0.35,4445,7,8
36,4,object_07,object_04,813.0,7,2,155.0,0.5555555555555556,1,object_02,1,320,0,5,3,restaurant_18,2,memory-2step-stake-s,531,1461459,0.0-18.0-0.0-0.36,4445,8,7
37,2,object_08,object_06,1395.0,4,2,526.0,0.2222222222222222,2,object_10,5,330,0,8,2,forest_8,2,memory-2step-stake-s,532,1469402,0.0-18.0-0.0-0.37,4445,3,4
38,3,object_01,object_09,717.0,6,2,369.0,0.2222222222222222,2,object_10,1,332,0,7,2,library_19,2,memory-2step-stake-s,533,1477187,0.0-18.0-0.0-0.38,4445,5,6
39,2,object_08,object_06,458.0,3,1,280.0,0.8888888888888888,1,object_02,5,372,0,8,1,forest_30,2,memory-2step-stake-s,534,1485491,0.0-18.0-0.0-0.39,4445,3,4
40,4,object_04,object_07,518.0,8,2,309.0,0.0,2,object_10,1,372,0,7,0,restaurant_15,2,memory-2step-stake-s,535,1493021,0.0-18.0-0.0-0.40,4445,7,8
41,1,object_05,object_03,1365.0,1,2,472.0,0.5555555555555556,1,object_02,5,397,0,5,2,desert_18,2,memory-2step-stake-s,536,1501213,0.0-18.0-0.0-0.41,4445,2,1
42,3,object_01,object_09,1042.0,5,1,385.0,0.3333333333333333,1,object_02,1,400,0,3,2,library_7,2,memory-2step-stake-s,537,1509116,0.0-18.0-0.0-0.42,4445,5,6
43,2,object_06,object_08,528.0,3,2,349.0,0.3333333333333333,1,object_02,1,403,0,3,2,forest_20,2,memory-2step-stake-s,538,1516984,0.0-18.0-0.0-0.43,4445,4,3
44,2,object_06,object_08,-1.0,-1,-1,-1.0,0.0,-,,5,403,0,4,0,forest_26,2,memory-2step-stake-s,539,1523493,0.0-18.0-0.0-0.44,4445,4,3
45,3,object_01,object_09,622.0,5,1,399.0,0.3333333333333333,1,object_02,1,406,0,3,1,library_25,2,memory-2step-stake-s,540,1531410,0.0-18.0-0.0-0.45,4445,5,6
46,2,object_08,object_06,1095.0,4,2,518.0,0.1111111111111111,2,object_10,1,407,0,1,1,forest_2,2,memory-2step-stake-s,541,1539243,0.0-18.0-0.0-0.46,4445,3,4
47,2,object_06,object_08,1425.0,3,2,451.0,0.1111111111111111,1,object_02,5,412,0,1,1,forest_2,2,memory-2step-stake-s,542,1547009,0.0-18.0-0.0-0.47,4445,4,3
48,4,object_07,object_04,920.0,7,2,345.0,0.1111111111111111,1,object_02,1,413,0,1,1,restaurant_7,2,memory-2step-stake-s,543,1554672,0.0-18.0-0.0-0.48,4445,8,7
49,2,object_06,object_08,961.0,3,2,345.0,0.2222222222222222,1,object_02,5,423,0,2,2,forest_13,2,memory-2step-stake-s,544,1562436,0.0-18.0-0.0-0.49,4445,4,3
50,4,object_04,object_07,1406.0,7,1,510.0,0.1111111111111111,1,object_02,1,424,0,1,5,restaurant_1,2,memory-2step-stake-s,545,1570261,0.0-18.0-0.0-0.50,4445,7,8
51,4,object_04,object_07,498.0,8,2,139.0,0.4444444444444444,2,object_10,1,428,0,2,4,restaurant_23,2,memory-2step-stake-s,546,1578019,0.0-18.0-0.0-0.51,4445,7,8
52,1,object_03,object_05,1122.0,2,2,407.0,0.7777777777777778,2,object_10,1,435,0,1,7,desert_23,2,memory-2step-stake-s,547,1586349,0.0-18.0-0.0-0.52,4445,1,2
53,2,object_08,object_06,1139.0,4,2,844.0,0.7777777777777778,2,object_10,5,470,0,1,7,forest_6,2,memory-2step-stake-s,548,1595117,0.0-18.0-0.0-0.53,4445,3,4
54,3,object_09,object_01,-1.0,-1,-1,-1.0,0.0,-,,1,470,0,2,8,library_12,2,memory-2step-stake-s,549,1601625,0.0-18.0-0.0-0.54,4445,6,5
55,1,object_03,object_05,777.0,2,2,563.0,0.8888888888888888,2,object_10,1,478,0,4,8,desert_18,2,memory-2step-stake-s,550,1610214,0.0-18.0-0.0-0.55,4445,1,2
56,1,object_03,object_05,337.0,2,2,402.0,0.4444444444444444,2,object_10,1,482,0,5,4,desert_15,2,memory-2step-stake-s,551,1618235,0.0-18.0-0.0-0.56,4445,1,2
57,2,object_06,object_08,444.0,3,2,284.0,0.5555555555555556,1,object_02,5,507,0,5,1,forest_6,2,memory-2step-stake-s,552,1626245,0.0-18.0-0.0-0.57,4445,4,3
58,1,object_05,object_03,795.0,1,2,369.0,0.3333333333333333,1,object_02,5,522,0,3,2,desert_3,2,memory-2step-stake-s,553,1634134,0.0-18.0-0.0-0.58,4445,2,1
59,1,object_05,object_03,457.0,2,1,494.0,0.1111111111111111,2,object_10,5,527,0,7,1,desert_2,2,memory-2step-stake-s,554,1641943,0.0-18.0-0.0-0.59,4445,2,1
60,2,object_06,object_08,1200.0,4,1,423.0,0.2222222222222222,2,object_10,5,537,0,7,2,forest_28,2,memory-2step-stake-s,555,1649783,0.0-18.0-0.0-0.60,4445,4,3
61,3,object_09,object_01,1163.0,5,2,317.0,0.8888888888888888,1,object_02,5,577,0,8,2,library_8,2,memory-2step-stake-s,556,1658128,0.0-18.0-0.0-0.61,4445,6,5
62,3,object_09,object_01,785.0,5,2,1097.0,0.8888888888888888,1,object_02,1,585,0,8,1,library_30,2,memory-2step-stake-s,557,1667250,0.0-18.0-0.0-0.62,4445,6,5
63,2,object_06,object_08,441.0,3,2,310.0,0.5555555555555556,1,object_02,5,610,0,5,3,forest_25,2,memory-2step-stake-s,558,1675280,0.0-18.0-0.0-0.63,4445,4,3
64,3,object_09,object_01,486.0,6,1,478.0,0.1111111111111111,2,object_10,1,611,0,5,1,library_26,2,memory-2step-stake-s,559,1683073,0.0-18.0-0.0-0.64,4445,6,5
65,2,object_06,object_08,1327.0,3,2,411.0,0.6666666666666666,1,object_02,5,641,0,6,2,forest_2,2,memory-2step-stake-s,560,1691306,0.0-18.0-0.0-0.65,4445,4,3
66,2,object_08,object_06,440.0,3,1,293.0,0.5555555555555556,1,object_02,5,666,0,5,2,forest_19,2,memory-2step-stake-s,561,1699324,0.0-18.0-0.0-0.66,4445,3,4
67,1,object_03,object_05,507.0,2,2,344.0,0.2222222222222222,2,object_10,5,676,0,7,2,desert_2,2,memory-2step-stake-s,562,1707087,0.0-18.0-0.0-0.67,4445,1,2
68,3,object_01,object_09,699.0,6,2,472.0,0.2222222222222222,2,object_10,1,678,0,9,2,library_6,2,memory-2step-stake-s,563,1714976,0.0-18.0-0.0-0.68,4445,5,6
69,2,object_06,object_08,1449.0,4,1,519.0,0.1111111111111111,2,object_10,5,683,0,8,1,forest_25,2,memory-2step-stake-s,564,1722812,0.0-18.0-0.0-0.69,4445,4,3
70,1,object_05,object_03,876.0,2,1,593.0,0.1111111111111111,2,object_10,1,684,0,8,1,desert_15,2,memory-2step-stake-s,565,1730722,0.0-18.0-0.0-0.70,4445,2,1
71,2,object_08,object_06,426.0,4,2,491.0,0.0,2,object_10,5,684,0,6,0,forest_1,2,memory-2step-stake-s,566,1738433,0.0-18.0-0.0-0.71,4445,3,4
72,4,object_04,object_07,627.0,8,2,257.0,0.3333333333333333,2,object_10,1,687,0,8,3,restaurant_23,2,memory-2step-stake-s,567,1746207,0.0-18.0-0.0-0.72,4445,7,8
73,2,object_08,object_06,953.0,4,2,376.0,0.5555555555555556,2,object_10,5,712,0,9,5,forest_20,2,memory-2step-stake-s,568,1754303,0.0-18.0-0.0-0.73,4445,3,4
74,2,object_06,object_08,1135.0,3,2,478.0,0.7777777777777778,1,object_02,5,747,0,7,7,forest_21,2,memory-2step-stake-s,569,1762702,0.0-18.0-0.0-0.74,4445,4,3
75,4,object_04,object_07,753.0,8,2,357.0,0.7777777777777778,2,object_10,1,754,0,5,7,restaurant_24,2,memory-2step-stake-s,570,1770985,0.0-18.0-0.0-0.75,4445,7,8
76,3,object_09,object_01,469.0,5,2,611.0,0.4444444444444444,1,object_02,1,758,0,4,5,library_27,2,memory-2step-stake-s,571,1779213,0.0-18.0-0.0-0.76,4445,6,5
77,4,object_04,object_07,957.0,8,2,529.0,0.5555555555555556,2,object_10,5,783,0,3,5,restaurant_25,2,memory-2step-stake-s,572,1787460,0.0-18.0-0.0-0.77,4445,7,8
78,4,object_04,object_07,708.0,8,2,394.0,0.8888888888888888,2,object_10,1,791,0,7,8,restaurant_23,2,memory-2step-stake-s,573,1795877,0.0-18.0-0.0-0.78,4445,7,8
79,3,object_09,object_01,430.0,5,2,380.0,0.8888888888888888,1,object_02,1,799,0,8,8,library_30,2,memory-2step-stake-s,574,1804280,0.0-18.0-0.0-0.79,4445,6,5
80,2,object_08,object_06,1316.0,3,1,953.0,0.7777777777777778,1,object_02,5,834,0,7,9,forest_8,2,memory-2step-stake-s,575,1813159,0.0-18.0-0.0-0.80,4445,3,4
81,1,object_05,object_03,580.0,1,2,902.0,0.8888888888888888,1,object_02,5,874,0,8,8,desert_1,2,memory-2step-stake-s,576,1822087,0.0-18.0-0.0-0.81,4445,2,1
82,3,object_09,object_01,507.0,5,2,583.0,0.7777777777777778,1,object_02,1,881,0,7,6,library_25,2,memory-2step-stake-s,577,1830593,0.0-18.0-0.0-0.82,4445,6,5
83,1,object_05,object_03,102.0,2,1,289.0,0.4444444444444444,2,object_10,5,901,0,6,4,desert_19,2,memory-2step-stake-s,578,1838500,0.0-18.0-0.0-0.83,4445,2,1
84,1,object_05,object_03,497.0,1,2,678.0,0.2222222222222222,1,object_02,5,911,0,2,6,desert_31,2,memory-2step-stake-s,579,1846594,0.0-18.0-0.0-0.84,4445,2,1
85,4,object_07,object_04,525.0,7,2,371.0,0.4444444444444444,1,object_02,1,915,0,4,6,restaurant_1,2,memory-2step-stake-s,580,1854588,0.0-18.0-0.0-0.85,4445,8,7
86,1,object_03,object_05,543.0,2,2,326.0,0.6666666666666666,2,object_10,5,945,0,5,6,desert_18,2,memory-2step-stake-s,581,1862738,0.0-18.0-0.0-0.86,4445,1,2
87,1,object_05,object_03,-1.0,-1,-1,-1.0,0.0,-,,5,945,0,6,5,desert_6,2,memory-2step-stake-s,582,1869248,0.0-18.0-0.0-0.87,4445,2,1
88,3,object_01,object_09,532.0,5,1,282.0,0.8888888888888888,1,object_02,1,953,0,8,6,library_22,2,memory-2step-stake-s,583,1877554,0.0-18.0-0.0-0.88,4445,5,6
89,1,object_03,object_05,1001.0,2,2,497.0,0.5555555555555556,2,object_10,5,978,0,7,5,desert_8,2,memory-2step-stake-s,584,1885770,0.0-18.0-0.0-0.89,4445,1,2
90,1,object_03,object_05,477.0,2,2,430.0,0.4444444444444444,2,object_10,5,998,0,5,4,desert_6,2,memory-2step-stake-s,585,1893820,0.0-18.0-0.0-0.90,4445,1,2
91,4,object_07,object_04,758.0,7,2,474.0,0.4444444444444444,1,object_02,1,1002,0,4,5,restaurant_12,2,memory-2step-stake-s,586,1901914,0.0-18.0-0.0-0.91,4445,8,7
92,2,object_06,object_08,1064.0,3,2,322.0,0.2222222222222222,1,object_02,5,1012,0,2,4,forest_25,2,memory-2step-stake-s,587,1909651,0.0-18.0-0.0-0.92,4445,4,3
93,4,object_04,object_07,945.0,7,1,374.0,0.6666666666666666,1,object_02,5,1042,0,6,4,restaurant_31,2,memory-2step-stake-s,588,1917846,0.0-18.0-0.0-0.93,4445,7,8
94,4,object_07,object_04,726.0,7,2,210.0,1.0,1,object_02,1,1051,0,9,6,restaurant_15,2,memory-2step-stake-s,589,1926182,0.0-18.0-0.0-0.94,4445,8,7
95,4,object_04,object_07,418.0,7,1,125.0,0.6666666666666666,1,object_02,1,1057,0,6,6,restaurant_22,2,memory-2step-stake-s,590,1934134,0.0-18.0-0.0-0.95,4445,7,8
96,4,object_04,object_07,836.0,7,1,386.0,0.7777777777777778,1,object_02,1,1064,0,7,6,restaurant_17,2,memory-2step-stake-s,591,1942443,0.0-18.0-0.0-0.96,4445,7,8
97,4,object_07,object_04,481.0,7,2,599.0,0.8888888888888888,1,object_02,1,1072,0,8,8,restaurant_25,2,memory-2step-stake-s,592,1951065,0.0-18.0-0.0-0.97,4445,8,7
98,4,object_07,object_04,606.0,7,2,954.0,0.8888888888888888,1,object_02,1,1080,0,8,8,restaurant_22,2,memory-2step-stake-s,593,1960042,0.0-18.0-0.0-0.98,4445,8,7
99,4,object_07,object_04,429.0,7,2,532.0,0.5555555555555556,1,object_02,5,1105,0,5,9,restaurant_12,2,memory-2step-stake-s,594,1968300,0.0-18.0-0.0-0.99,4445,8,7
100,1,object_05,object_03,565.0,2,1,389.0,0.8888888888888888,2,object_10,5,1145,0,8,8,desert_20,2,memory-2step-stake-s,595,1976718,0.0-18.0-0.0-0.100,4445,2,1
101,1,object_03,object_05,729.0,2,2,125.0,0.5555555555555556,2,object_10,5,1170,0,6,5,desert_31,2,memory-2step-stake-s,596,1984563,0.0-18.0-0.0-0.101,4445,1,2
102,1,object_03,object_05,668.0,2,2,369.0,0.6666666666666666,2,object_10,5,1200,0,6,6,desert_28,2,memory-2step-stake-s,597,1992756,0.0-18.0-0.0-0.102,4445,1,2
103,2,object_08,object_06,689.0,4,2,407.0,0.6666666666666666,2,object_10,5,1230,0,8,6,forest_11,2,memory-2step-stake-s,598,2000983,0.0-18.0-0.0-0.103,4445,3,4
104,1,object_05,object_03,1147.0,2,1,466.0,0.8888888888888888,2,object_10,5,1270,0,8,8,desert_3,2,memory-2step-stake-s,599,2009474,0.0-18.0-0.0-0.104,4445,2,1
105,3,object_09,object_01,518.0,5,2,566.0,0.7777777777777778,1,object_02,1,1277,0,7,7,library_8,2,memory-2step-stake-s,600,2017964,0.0-18.0-0.0-0.105,4445,6,5
106,2,object_06,object_08,340.0,3,2,68.0,0.5555555555555556,1,object_02,5,1302,0,5,7,forest_29,2,memory-2step-stake-s,601,2025753,0.0-18.0-0.0-0.106,4445,4,3
107,4,object_04,object_07,652.0,7,1,416.0,0.7777777777777778,1,object_02,1,1309,0,7,8,restaurant_1,2,memory-2step-stake-s,602,2034092,0.0-18.0-0.0-0.107,4445,7,8
108,1,object_03,object_05,749.0,2,2,-1.0,0.0,2,object_10,5,1309,0,4,9,desert_1,2,memory-2step-stake-s,603,2042607,0.0-18.0-0.0-0.108,4445,1,2
109,2,object_08,object_06,1022.0,3,1,447.0,0.4444444444444444,1,object_02,5,1329,0,4,6,forest_13,2,memory-2step-stake-s,604,2050676,0.0-18.0-0.0-0.109,4445,3,4
110,3,object_01,object_09,888.0,6,2,611.0,0.3333333333333333,2,object_10,1,1332,0,5,3,library_23,2,memory-2step-stake-s,605,2058803,0.0-18.0-0.0-0.110,4445,5,6
111,3,object_09,object_01,484.0,5,2,388.0,0.5555555555555556,1,object_02,1,1337,0,5,2,library_1,2,memory-2step-stake-s,606,2066911,0.0-18.0-0.0-0.111,4445,6,5
112,4,object_04,object_07,1400.0,7,1,430.0,0.6666666666666666,1,object_02,1,1343,0,6,0,restaurant_25,2,memory-2step-stake-s,607,2075162,0.0-18.0-0.0-0.112,4445,7,8
113,2,object_08,object_06,406.0,4,2,446.0,0.3333333333333333,2,object_10,1,1346,0,4,3,forest_19,2,memory-2step-stake-s,608,2083128,0.0-18.0-0.0-0.113,4445,3,4
114,2,object_06,object_08,820.0,3,2,140.0,0.2222222222222222,1,object_02,5,1356,0,2,5,forest_26,2,memory-2step-stake-s,609,2090684,0.0-18.0-0.0-0.114,4445,4,3
115,4,object_04,object_07,1033.0,7,1,289.0,0.3333333333333333,1,object_02,1,1359,0,3,5,restaurant_28,2,memory-2step-stake-s,610,2098492,0.0-18.0-0.0-0.115,4445,7,8
116,3,object_09,object_01,637.0,6,1,407.0,0.5555555555555556,2,object_10,1,1364,0,5,5,library_1,2,memory-2step-stake-s,611,2106621,0.0-18.0-0.0-0.116,4445,6,5
117,3,object_01,object_09,729.0,6,2,695.0,0.6666666666666666,2,object_10,1,1370,0,3,6,library_7,2,memory-2step-stake-s,612,2115139,0.0-18.0-0.0-0.117,4445,5,6
118,2,object_08,object_06,608.0,4,2,495.0,0.8888888888888888,2,object_10,5,1410,0,3,8,forest_26,2,memory-2step-stake-s,613,2123674,0.0-18.0-0.0-0.118,4445,3,4
119,4,object_07,object_04,667.0,7,2,855.0,0.2222222222222222,1,object_02,1,1412,0,2,6,restaurant_13,2,memory-2step-stake-s,614,2131953,0.0-18.0-0.0-0.119,4445,8,7
120,2,object_06,object_08,-1.0,-1,-1,-1.0,0.0,-,,5,1412,0,1,9,forest_19,2,memory-2step-stake-s,615,2138467,0.0-18.0-0.0-0.120,4445,4,3
121,3,object_09,object_01,635.0,6,1,398.0,0.8888888888888888,2,object_10,1,1420,0,3,8,library_18,2,memory-2step-stake-s,616,2146894,0.0-18.0-0.0-0.121,4445,6,5
122,3,object_01,object_09,342.0,6,2,448.0,0.7777777777777778,2,object_10,1,1427,0,1,7,library_12,2,memory-2step-stake-s,617,2155268,0.0-18.0-0.0-0.122,4445,5,6
123,1,object_05,object_03,718.0,2,1,684.0,0.7777777777777778,2,object_10,1,1434,0,1,7,desert_23,2,memory-2step-stake-s,618,2163879,0.0-18.0-0.0-0.123,4445,2,1
124,4,object_07,object_04,728.0,7,2,658.0,0.0,1,object_02,1,1434,0,0,7,restaurant_25,2,memory-2step-stake-s,619,2171751,0.0-18.0-0.0-0.124,4445,8,7
125,4,object_04,object_07,457.0,8,2,308.0,0.6666666666666666,2,object_10,1,1440,0,2,6,restaurant_18,2,memory-2step-stake-s,620,2179883,0.0-18.0-0.0-0.125,4445,7,8
126,4,object_04,object_07,649.0,8,2,141.0,0.7777777777777778,2,object_10,1,1447,0,2,7,restaurant_22,2,memory-2step-stake-s,621,2187954,0.0-18.0-0.0-0.126,4445,7,8
127,1,object_05,object_03,997.0,2,1,538.0,0.6666666666666666,2,object_10,5,1477,0,0,6,desert_4,2,memory-2step-stake-s,622,2196317,0.0-18.0-0.0-0.127,4445,2,1
128,3,object_01,object_09,-1.0,-1,-1,-1.0,0.0,-,,1,1477,0,1,9,library_26,2,memory-2step-stake-s,624,2232962,0.0-18.0-0.1-0.128,4445,5,6
129,4,object_07,object_04,626.0,7,2,204.0,0.3333333333333333,1,object_02,5,1492,0,3,6,restaurant_21,2,memory-2step-stake-s,625,2240687,0.0-18.0-0.1-0.129,4445,8,7
130,3,object_01,object_09,625.0,6,2,645.0,0.7777777777777778,2,object_10,1,1499,0,1,7,library_6,2,memory-2step-stake-s,626,2249254,0.0-18.0-0.1-0.130,4445,5,6
131,4,object_07,object_04,304.0,7,2,967.0,0.0,1,object_02,1,1499,0,0,6,restaurant_18,2,memory-2step-stake-s,627,2257435,0.0-18.0-0.1-0.131,4445,8,7
132,1,object_03,object_05,448.0,2,2,61.0,0.5555555555555556,2,object_10,5,1524,0,2,5,desert_4,2,memory-2step-stake-s,628,2265217,0.0-18.0-0.1-0.132,4445,1,2
133,2,object_06,object_08,724.0,3,2,459.0,0.3333333333333333,1,object_02,1,1527,0,3,5,forest_29,2,memory-2step-stake-s,629,2273196,0.0-18.0-0.1-0.133,4445,4,3
134,3,object_09,object_01,535.0,6,1,184.0,0.7777777777777778,2,object_10,5,1562,0,1,7,library_22,2,memory-2step-stake-s,630,2281304,0.0-18.0-0.1-0.134,4445,6,5
135,3,object_01,object_09,458.0,6,2,500.0,0.2222222222222222,2,object_10,1,1564,0,1,2,library_1,2,memory-2step-stake-s,631,2289220,0.0-18.0-0.1-0.135,4445,5,6
136,4,object_04,object_07,379.0,7,1,691.0,0.1111111111111111,1,object_02,1,1565,0,1,1,restaurant_27,2,memory-2step-stake-s,632,2297233,0.0-18.0-0.1-0.136,4445,7,8
137,3,object_09,object_01,320.0,5,2,78.0,0.0,1,object_02,1,1565,0,0,0,library_19,2,memory-2step-stake-s,633,2304526,0.0-18.0-0.1-0.137,4445,6,5
138,2,object_06,object_08,375.0,3,2,227.0,0.2222222222222222,1,object_02,5,1575,0,2,2,forest_13,2,memory-2step-stake-s,634,2312169,0.0-18.0-0.1-0.138,4445,4,3
139,3,object_01,object_09,759.0,6,2,244.0,0.3333333333333333,2,object_10,1,1578,0,1,3,library_29,2,memory-2step-stake-s,635,2319931,0.0-18.0-0.1-0.139,4445,5,6
140,3,object_01,object_09,711.0,6,2,366.0,0.5555555555555556,2,object_10,5,1603,0,3,5,library_23,2,memory-2step-stake-s,636,2328019,0.0-18.0-0.1-0.140,4445,5,6
141,3,object_01,object_09,109.0,5,1,219.0,0.0,1,object_02,5,1603,0,0,5,library_27,2,memory-2step-stake-s,637,2335453,0.0-18.0-0.1-0.141,4445,5,6
142,3,object_01,object_09,530.0,6,2,534.0,0.7777777777777778,2,object_10,1,1610,0,1,7,library_8,2,memory-2step-stake-s,638,2343912,0.0-18.0-0.1-0.142,4445,5,6
143,4,object_04,object_07,252.0,8,2,428.0,0.7777777777777778,2,object_10,5,1645,0,0,7,restaurant_31,2,memory-2step-stake-s,639,2352264,0.0-18.0-0.1-0.143,4445,7,8
144,1,object_03,object_05,549.0,2,2,29.0,0.5555555555555556,2,object_10,1,1650,0,4,5,desert_27,2,memory-2step-stake-s,640,2360015,0.0-18.0-0.1-0.144,4445,1,2
145,3,object_01,object_09,355.0,5,1,193.0,0.3333333333333333,1,object_02,5,1665,0,3,5,library_24,2,memory-2step-stake-s,641,2367727,0.0-18.0-0.1-0.145,4445,5,6
146,1,object_05,object_03,310.0,1,2,118.0,0.3333333333333333,1,object_02,5,1680,0,3,4,desert_2,2,memory-2step-stake-s,642,2375365,0.0-18.0-0.1-0.146,4445,2,1
147,4,object_07,object_04,841.0,7,2,358.0,0.1111111111111111,1,object_02,1,1681,0,1,4,restaurant_27,2,memory-2step-stake-s,643,2383038,0.0-18.0-0.1-0.147,4445,8,7
148,4,object_07,object_04,379.0,8,1,468.0,0.4444444444444444,2,object_10,1,1685,0,1,4,restaurant_13,2,memory-2step-stake-s,644,2391128,0.0-18.0-0.1-0.148,4445,8,7
149,4,object_07,object_04,593.0,7,2,390.0,0.1111111111111111,1,object_02,1,1686,0,1,7,restaurant_24,2,memory-2step-stake-s,645,2398838,0.0-18.0-0.1-0.149,4445,8,7
150,3,object_09,object_01,1044.0,5,2,1193.0,0.0,1,object_02,1,1686,0,0,9,library_19,2,memory-2step-stake-s,646,2407247,0.0-18.0-0.1-0.150,4445,6,5
151,4,object_07,object_04,742.0,8,1,212.0,0.8888888888888888,2,object_10,1,1694,0,1,8,restaurant_28,2,memory-2step-stake-s,647,2415484,0.0-18.0-0.1-0.151,4445,8,7
152,4,object_04,object_07,387.0,8,2,527.0,0.8888888888888888,2,object_10,1,1702,0,1,8,restaurant_7,2,memory-2step-stake-s,648,2424036,0.0-18.0-0.1-0.152,4445,7,8
153,3,object_01,object_09,397.0,5,1,637.0,0.5555555555555556,1,object_02,1,1707,0,5,7,library_6,2,memory-2step-stake-s,649,2432390,0.0-18.0-0.1-0.153,4445,5,6
154,4,object_07,object_04,684.0,8,1,169.0,0.8888888888888888,2,object_10,1,1715,0,4,8,restaurant_2,2,memory-2step-stake-s,650,2440585,0.0-18.0-0.1-0.154,4445,8,7
155,3,object_09,object_01,-1.0,-1,-1,-1.0,0.0,-,,1,1715,0,6,8,library_24,2,memory-2step-stake-s,651,2447094,0.0-18.0-0.1-0.155,4445,6,5
156,4,object_07,object_04,611.0,7,2,216.0,0.8888888888888888,1,object_02,1,1723,0,8,9,restaurant_28,2,memory-2step-stake-s,652,2455335,0.0-18.0-0.1-0.156,4445,8,7
157,3,object_09,object_01,677.0,6,1,287.0,0.7777777777777778,2,object_10,1,1730,0,8,7,library_30,2,memory-2step-stake-s,653,2463545,0.0-18.0-0.1-0.157,4445,6,5
158,3,object_09,object_01,512.0,5,2,240.0,0.7777777777777778,1,object_02,1,1737,0,7,6,library_18,2,memory-2step-stake-s,654,2471711,0.0-18.0-0.1-0.158,4445,6,5
159,2,object_08,object_06,403.0,4,2,1132.0,0.6666666666666666,2,object_10,1,1743,0,9,6,forest_3,2,memory-2step-stake-s,655,2480670,0.0-18.0-0.1-0.159,4445,3,4
160,4,object_07,object_04,474.0,8,1,600.0,0.4444444444444444,2,object_10,1,1747,0,8,4,restaurant_17,2,memory-2step-stake-s,656,2488892,0.0-18.0-0.1-0.160,4445,8,7
161,2,object_08,object_06,675.0,4,2,512.0,0.7777777777777778,2,object_10,1,1754,0,7,7,forest_11,2,memory-2step-stake-s,657,2497327,0.0-18.0-0.1-0.161,4445,3,4
162,1,object_03,object_05,181.0,2,2,898.0,0.5555555555555556,2,object_10,1,1759,0,9,5,desert_28,2,memory-2step-stake-s,658,2505945,0.0-18.0-0.1-0.162,4445,1,2
163,4,object_04,object_07,364.0,7,1,135.0,0.8888888888888888,1,object_02,1,1767,0,8,7,restaurant_15,2,memory-2step-stake-s,659,2514105,0.0-18.0-0.1-0.163,4445,7,8
164,3,object_01,object_09,424.0,6,2,1255.0,0.6666666666666666,2,object_10,1,1773,0,9,6,library_23,2,memory-2step-stake-s,660,2523189,0.0-18.0-0.1-0.164,4445,5,6
165,1,object_03,object_05,491.0,1,1,890.0,1.0,1,object_02,1,1782,0,9,8,desert_6,2,memory-2step-stake-s,661,2532208,0.0-18.0-0.1-0.165,4445,1,2
166,4,object_04,object_07,425.0,8,2,468.0,0.8888888888888888,2,object_10,5,1822,0,7,8,restaurant_31,2,memory-2step-stake-s,662,2540701,0.0-18.0-0.1-0.166,4445,7,8
167,2,object_08,object_06,1317.0,3,1,710.0,0.7777777777777778,1,object_02,1,1829,0,7,6,forest_28,2,memory-2step-stake-s,663,2549334,0.0-18.0-0.1-0.167,4445,3,4
168,1,object_05,object_03,420.0,1,2,1191.0,0.7777777777777778,1,object_02,5,1864,0,7,7,desert_23,2,memory-2step-stake-s,664,2558450,0.0-18.0-0.1-0.168,4445,2,1
169,3,object_01,object_09,525.0,5,1,503.0,0.4444444444444444,1,object_02,1,1868,0,4,8,library_7,2,memory-2step-stake-s,665,2566575,0.0-18.0-0.1-0.169,4445,5,6
170,1,object_05,object_03,84.0,1,2,3.0,0.3333333333333333,1,object_02,5,1883,0,3,8,desert_19,2,memory-2step-stake-s,666,2574095,0.0-18.0-0.1-0.170,4445,2,1
171,2,object_06,object_08,413.0,4,1,451.0,0.8888888888888888,2,object_10,5,1923,0,2,8,forest_11,2,memory-2step-stake-s,667,2582571,0.0-18.0-0.1-0.171,4445,4,3
172,1,object_03,object_05,185.0,1,1,162.0,0.1111111111111111,1,object_02,5,1928,0,1,9,desert_11,2,memory-2step-stake-s,668,2590050,0.0-18.0-0.1-0.172,4445,1,2
173,3,object_09,object_01,436.0,5,2,57.0,0.1111111111111111,1,object_02,1,1929,0,1,6,library_29,2,memory-2step-stake-s,669,2597424,0.0-18.0-0.1-0.173,4445,6,5
174,2,object_06,object_08,773.0,4,1,45.0,0.7777777777777778,2,object_10,5,1964,0,1,7,forest_2,2,memory-2step-stake-s,670,2605397,0.0-18.0-0.1-0.174,4445,4,3
175,4,object_07,object_04,787.0,7,2,216.0,0.5555555555555556,1,object_02,1,1969,0,5,8,restaurant_17,2,memory-2step-stake-s,671,2613330,0.0-18.0-0.1-0.175,4445,8,7
176,2,object_06,object_08,427.0,4,1,257.0,0.8888888888888888,2,object_10,5,2009,0,8,8,forest_25,2,memory-2step-stake-s,672,2621611,0.0-18.0-0.1-0.176,4445,4,3
177,2,object_08,object_06,1442.0,4,2,546.0,0.8888888888888888,2,object_10,5,2049,0,6,8,forest_30,2,memory-2step-stake-s,673,2630181,0.0-18.0-0.1-0.177,4445,3,4
178,2,object_08,object_06,1285.0,4,2,1035.0,0.8888888888888888,2,object_10,5,2089,0,5,8,forest_21,2,memory-2step-stake-s,674,2639243,0.0-18.0-0.1-0.178,4445,3,4
179,3,object_09,object_01,968.0,5,2,482.0,0.5555555555555556,1,object_02,5,2114,0,5,8,library_4,2,memory-2step-stake-s,675,2647449,0.0-18.0-0.1-0.179,4445,6,5
180,2,object_08,object_06,739.0,4,2,75.0,0.7777777777777778,2,object_10,5,2149,0,2,7,forest_29,2,memory-2step-stake-s,676,2655448,0.0-18.0-0.1-0.180,4445,3,4
181,4,object_04,object_07,678.0,7,1,547.0,0.2222222222222222,1,object_02,5,2159,0,2,6,restaurant_7,2,memory-2step-stake-s,677,2663410,0.0-18.0-0.1-0.181,4445,7,8
182,2,object_08,object_06,-1.0,-1,-1,-1.0,0.0,-,,1,2159,0,2,9,forest_4,2,memory-2step-stake-s,678,2669921,0.0-18.0-0.1-0.182,4445,3,4
183,1,object_05,object_03,723.0,2,1,703.0,0.7777777777777778,2,object_10,5,2194,0,0,7,desert_15,2,memory-2step-stake-s,679,2678546,0.0-18.0-0.1-0.183,4445,2,1
184,3,object_09,object_01,540.0,6,1,616.0,0.8888888888888888,2,object_10,1,2202,0,2,8,library_30,2,memory-2step-stake-s,680,2687189,0.0-18.0-0.1-0.184,4445,6,5
185,4,object_04,object_07,381.0,8,2,472.0,0.8888888888888888,2,object_10,1,2210,0,4,8,restaurant_24,2,memory-2step-stake-s,681,2695684,0.0-18.0-0.1-0.185,4445,7,8
186,1,object_05,object_03,366.0,2,1,27.0,0.6666666666666666,2,object_10,1,2216,0,1,6,desert_8,2,memory-2step-stake-s,682,2703533,0.0-18.0-0.1-0.186,4445,2,1
187,3,object_09,object_01,385.0,6,1,-1.0,0.0,2,object_10,1,2216,0,4,6,library_24,2,memory-2step-stake-s,683,2712047,0.0-18.0-0.1-0.187,4445,6,5
188,3,object_09,object_01,501.0,5,2,518.0,0.4444444444444444,1,object_02,1,2220,0,4,5,library_18,2,memory-2step-stake-s,684,2720191,0.0-18.0-0.1-0.188,4445,6,5
189,4,object_07,object_04,999.0,8,1,903.0,0.6666666666666666,2,object_10,1,2226,0,3,6,restaurant_24,2,memory-2step-stake-s,685,2728916,0.0-18.0-0.1-0.189,4445,8,7
190,4,object_07,object_04,512.0,7,2,-1.0,0.0,1,object_02,1,2226,0,3,4,restaurant_27,2,memory-2step-stake-s,686,2737430,0.0-18.0-0.1-0.190,4445,8,7
191,3,object_09,object_01,752.0,5,2,483.0,0.7777777777777778,1,object_02,1,2233,0,7,6,library_27,2,memory-2step-stake-s,687,2745838,0.0-18.0-0.1-0.191,4445,6,5
192,1,object_03,object_05,220.0,1,1,312.0,1.0,1,object_02,5,2278,0,9,4,desert_11,2,memory-2step-stake-s,688,2754274,0.0-18.0-0.1-0.192,4445,1,2
193,4,object_07,object_04,447.0,7,2,547.0,0.8888888888888888,1,object_02,1,2286,0,8,4,restaurant_17,2,memory-2step-stake-s,689,2762847,0.0-18.0-0.1-0.193,4445,8,7
194,2,object_08,object_06,469.0,3,1,265.0,0.7777777777777778,1,object_02,5,2321,0,7,3,forest_21,2,memory-2step-stake-s,690,2771034,0.0-18.0-0.1-0.194,4445,3,4
195,2,object_06,object_08,427.0,4,1,1467.0,0.3333333333333333,2,object_10,5,2336,0,8,3,forest_4,2,memory-2step-stake-s,691,2780019,0.0-18.0-0.1-0.195,4445,4,3
196,1,object_03,object_05,534.0,2,2,1086.0,0.4444444444444444,2,object_10,5,2356,0,9,4,desert_31,2,memory-2step-stake-s,692,2788726,0.0-18.0-0.1-0.196,4445,1,2
197,3,object_01,object_09,598.0,5,1,315.0,1.0,1,object_02,1,2365,0,9,2,library_7,2,memory-2step-stake-s,693,2797165,0.0-18.0-0.1-0.197,4445,5,6
198,2,object_06,object_08,300.0,3,2,568.0,0.8888888888888888,1,object_02,5,2405,0,8,1,forest_20,2,memory-2step-stake-s,694,2805760,0.0-18.0-0.1-0.198,4445,4,3
199,2,object_06,object_08,612.0,4,1,-1.0,0.0,2,object_10,5,2405,0,7,4,forest_6,2,memory-2step-stake-s,695,2814274,0.0-18.0-0.1-0.199,4445,4,3
200,1,object_05,object_03,847.0,1,2,882.0,0.7777777777777778,1,object_02,1,2412,0,7,9,desert_5,2,memory-2step-stake-s,696,2823080,0.0-18.0-0.1-0.200,4445,2,1
201,1,object_05,object_03,664.0,1,2,1132.0,0.7777777777777778,1,object_02,5,2447,0,7,8,desert_4,2,memory-2step-stake-s,697,2832136,0.0-18.0-0.1-0.201,4445,2,1
202,2,object_08,object_06,-1.0,-1,-1,-1.0,0.0,-,,5,2447,0,7,8,forest_3,2,memory-2step-stake-s,698,2838646,0.0-18.0-0.1-0.202,4445,3,4
203,4,object_07,object_04,525.0,8,1,454.0,0.7777777777777778,2,object_10,5,2482,0,6,7,restaurant_21,2,memory-2step-stake-s,699,2847026,0.0-18.0-0.1-0.203,4445,8,7
204,4,object_07,object_04,1152.0,8,1,377.0,0.8888888888888888,2,object_10,1,2490,0,5,8,restaurant_22,2,memory-2step-stake-s,700,2855431,0.0-18.0-0.1-0.204,4445,8,7
205,1,object_05,object_03,380.0,2,1,870.0,1.0,2,object_10,5,2535,0,4,9,desert_1,2,memory-2step-stake-s,701,2864427,0.0-18.0-0.1-0.205,4445,2,1
206,3,object_09,object_01,934.0,5,2,597.0,0.0,1,object_02,1,2535,0,0,8,library_24,2,memory-2step-stake-s,702,2872239,0.0-18.0-0.1-0.206,4445,6,5
207,4,object_07,object_04,660.0,8,1,460.0,1.0,2,object_10,1,2544,0,0,9,restaurant_31,2,memory-2step-stake-s,703,2880827,0.0-18.0-0.1-0.207,4445,8,7
208,1,object_03,object_05,396.0,1,1,272.0,0.2222222222222222,1,object_02,5,2554,0,2,7,desert_27,2,memory-2step-stake-s,704,2888518,0.0-18.0-0.1-0.208,4445,1,2
209,1,object_05,object_03,1176.0,2,1,470.0,0.4444444444444444,2,object_10,5,2574,0,2,4,desert_28,2,memory-2step-stake-s,705,2896609,0.0-18.0-0.1-0.209,4445,2,1
210,1,object_03,object_05,348.0,2,2,910.0,0.5555555555555556,2,object_10,1,2579,0,0,5,desert_23,2,memory-2step-stake-s,706,2905240,0.0-18.0-0.1-0.210,4445,1,2
211,1,object_03,object_05,358.0,1,1,1121.0,0.2222222222222222,1,object_02,1,2581,0,2,3,desert_8,2,memory-2step-stake-s,707,2913778,0.0-18.0-0.1-0.211,4445,1,2
212,1,object_03,object_05,490.0,2,2,343.0,0.4444444444444444,2,object_10,5,2601,0,0,4,desert_15,2,memory-2step-stake-s,708,2921740,0.0-18.0-0.1-0.212,4445,1,2
213,2,object_08,object_06,453.0,3,1,515.0,0.2222222222222222,1,object_02,1,2603,0,2,3,forest_8,2,memory-2step-stake-s,709,2929678,0.0-18.0-0.1-0.213,4445,3,4
214,2,object_06,object_08,451.0,3,2,672.0,0.0,1,object_02,5,2603,0,0,1,forest_1,2,memory-2step-stake-s,710,2937565,0.0-18.0-0.1-0.214,4445,4,3
215,3,object_09,object_01,455.0,5,2,427.0,0.1111111111111111,1,object_02,1,2604,0,1,1,library_1,2,memory-2step-stake-s,711,2945308,0.0-18.0-0.1-0.215,4445,6,5
216,2,object_06,object_08,408.0,3,2,294.0,0.0,1,object_02,1,2604,0,0,0,forest_6,2,memory-2step-stake-s,712,2952818,0.0-18.0-0.1-0.216,4445,4,3
217,2,object_06,object_08,537.0,4,1,321.0,0.2222222222222222,2,object_10,5,2614,0,1,2,forest_8,2,memory-2step-stake-s,713,2960555,0.0-18.0-0.1-0.217,4445,4,3
218,1,object_03,object_05,1326.0,2,2,550.0,0.4444444444444444,2,object_10,5,2634,0,1,4,desert_19,2,memory-2step-stake-s,714,2968728,0.0-18.0-0.1-0.218,4445,1,2
219,1,object_05,object_03,357.0,2,1,356.0,0.4444444444444444,2,object_10,1,2638,0,2,4,desert_4,2,memory-2step-stake-s,715,2976706,0.0-18.0-0.1-0.219,4445,2,1
220,2,object_06,object_08,762.0,3,2,512.0,0.2222222222222222,1,object_02,5,2648,0,2,5,forest_21,2,memory-2step-stake-s,716,2984635,0.0-18.0-0.1-0.220,4445,4,3
221,3,object_01,object_09,652.0,6,2,249.0,0.4444444444444444,2,object_10,1,2652,0,2,4,library_29,2,memory-2step-stake-s,717,2992504,0.0-18.0-0.1-0.221,4445,5,6
222,3,object_09,object_01,329.0,6,1,1021.0,0.5555555555555556,2,object_10,1,2657,0,0,5,library_29,2,memory-2step-stake-s,718,3001245,0.0-18.0-0.1-0.222,4445,6,5
223,2,object_06,object_08,438.0,3,2,812.0,0.1111111111111111,1,object_02,5,2662,0,1,3,forest_3,2,memory-2step-stake-s,719,3009373,0.0-18.0-0.1-0.223,4445,4,3
224,1,object_05,object_03,469.0,2,1,706.0,0.2222222222222222,2,object_10,1,2664,0,1,2,desert_28,2,memory-2step-stake-s,720,3017496,0.0-18.0-0.1-0.224,4445,2,1
225,3,object_01,object_09,315.0,6,2,402.0,0.7777777777777778,2,object_10,1,2671,0,1,7,library_25,2,memory-2step-stake-s,721,3025820,0.0-18.0-0.1-0.225,4445,5,6
226,2,object_06,object_08,485.0,4,1,542.0,1.0,2,object_10,5,2716,0,0,9,forest_4,2,memory-2step-stake-s,722,3034488,0.0-18.0-0.1-0.226,4445,4,3
227,4,object_04,object_07,690.0,8,2,771.0,0.8888888888888888,2,object_10,1,2724,0,3,8,restaurant_18,2,memory-2step-stake-s,723,3043283,0.0-18.0-0.1-0.227,4445,7,8
228,1,object_03,object_05,185.0,1,1,489.0,0.0,1,object_02,5,2724,0,0,8,desert_27,2,memory-2step-stake-s,724,3050987,0.0-18.0-0.1-0.228,4445,1,2
229,1,object_03,object_05,609.0,1,1,-1.0,0.0,1,object_02,5,2724,0,0,8,desert_2,2,memory-2step-stake-s,725,3059500,0.0-18.0-0.1-0.229,4445,1,2
230,4,object_04,object_07,894.0,7,1,267.0,0.1111111111111111,1,object_02,1,2725,0,1,7,restaurant_21,2,memory-2step-stake-s,726,3067081,0.0-18.0-0.1-0.230,4445,7,8
231,1,object_03,object_05,435.0,2,2,373.0,0.6666666666666666,2,object_10,1,2731,0,0,6,desert_20,2,memory-2step-stake-s,727,3075276,0.0-18.0-0.1-0.231,4445,1,2
232,1,object_05,object_03,652.0,2,1,285.0,1.0,2,object_10,1,2740,0,2,9,desert_5,2,memory-2step-stake-s,728,3083686,0.0-18.0-0.1-0.232,4445,2,1
233,3,object_09,object_01,421.0,6,1,547.0,0.7777777777777778,2,object_10,1,2747,0,1,7,library_26,2,memory-2step-stake-s,729,3092158,0.0-18.0-0.1-0.233,4445,6,5
234,3,object_09,object_01,412.0,5,2,417.0,0.3333333333333333,1,object_02,1,2750,0,3,7,library_27,2,memory-2step-stake-s,730,3100099,0.0-18.0-0.1-0.234,4445,6,5
235,4,object_07,object_04,352.0,8,1,573.0,0.8888888888888888,2,object_10,1,2758,0,1,8,restaurant_13,2,memory-2step-stake-s,731,3108697,0.0-18.0-0.1-0.235,4445,8,7
236,1,object_03,object_05,561.0,2,2,551.0,0.6666666666666666,2,object_10,1,2764,0,4,6,desert_3,2,memory-2step-stake-s,732,3117071,0.0-18.0-0.1-0.236,4445,1,2
237,1,object_03,object_05,303.0,1,1,-1.0,0.0,1,object_02,5,2764,0,5,3,desert_8,2,memory-2step-stake-s,733,3125585,0.0-18.0-0.1-0.237,4445,1,2
238,4,object_04,object_07,421.0,7,1,931.0,0.0,1,object_02,5,2764,0,0,2,restaurant_27,2,memory-2step-stake-s,734,3133733,0.0-18.0-0.1-0.238,4445,7,8
239,3,object_01,object_09,334.0,6,2,379.0,0.0,2,object_10,1,2764,0,1,0,library_4,2,memory-2step-stake-s,735,3141328,0.0-18.0-0.1-0.239,4445,5,6
240,3,object_09,object_01,561.0,5,2,361.0,0.5555555555555556,1,object_02,1,2769,0,5,4,library_8,2,memory-2step-stake-s,736,3149410,0.0-18.0-0.1-0.240,4445,6,5
241,2,object_08,object_06,296.0,3,1,854.0,0.4444444444444444,1,object_02,5,2789,0,4,3,forest_29,2,memory-2step-stake-s,737,3157886,0.0-18.0-0.1-0.241,4445,3,4
242,2,object_06,object_08,296.0,3,2,38.0,0.6666666666666666,1,object_02,5,2819,0,6,4,forest_28,2,memory-2step-stake-s,738,3165746,0.0-18.0-0.1-0.242,4445,4,3
243,1,object_05,object_03,369.0,2,1,1058.0,0.5555555555555556,2,object_10,5,2844,0,5,5,desert_11,2,memory-2step-stake-s,739,3174526,0.0-18.0-0.1-0.243,4445,2,1
244,3,object_09,object_01,317.0,6,1,-1.0,0.0,2,object_10,1,2844,0,7,3,library_4,2,memory-2step-stake-s,740,3183043,0.0-18.0-0.1-0.244,4445,6,5
245,3,object_09,object_01,172.0,5,2,669.0,0.8888888888888888,1,object_02,1,2852,0,8,2,library_12,2,memory-2step-stake-s,741,3191737,0.0-18.0-0.1-0.245,4445,6,5
246,1,object_03,object_05,577.0,1,1,585.0,1.0,1,object_02,5,2897,0,9,1,desert_1,2,memory-2step-stake-s,742,3200450,0.0-18.0-0.1-0.246,4445,1,2
247,3,object_09,object_01,551.0,6,1,799.0,0.3333333333333333,2,object_10,1,2900,0,7,3,library_12,2,memory-2step-stake-s,743,3208768,0.0-18.0-0.1-0.247,4445,6,5
248,2,object_06,object_08,428.0,3,2,219.0,0.8888888888888888,1,object_02,5,2940,0,8,1,forest_30,2,memory-2step-stake-s,744,3217015,0.0-18.0-0.1-0.248,4445,4,3
249,1,object_05,object_03,357.0,2,1,68.0,0.1111111111111111,2,object_10,5,2945,0,8,1,desert_5,2,memory-2step-stake-s,745,3224401,0.0-18.0-0.1-0.249,4445,2,1
250,2,object_06,object_08,413.0,3,2,293.0,0.8888888888888888,1,object_02,5,2985,0,8,4,forest_3,2,memory-2step-stake-s,746,3232720,0.0-18.0-0.1-0.250,4445,4,3
251,4,object_04,object_07,839.0,8,2,24.0,0.3333333333333333,2,object_10,1,2988,0,9,3,restaurant_7,2,memory-2step-stake-s,747,3240260,0.0-18.0-0.1-0.251,4445,7,8
252,1,object_05,object_03,521.0,1,2,297.0,0.8888888888888888,1,object_02,1,2996,0,8,3,desert_19,2,memory-2step-stake-s,748,3248582,0.0-18.0-0.1-0.252,4445,2,1
253,3,object_01,object_09,700.0,6,2,333.0,0.4444444444444444,2,object_10,5,3016,0,8,4,library_23,2,memory-2step-stake-s,749,3256535,0.0-18.0-0.1-0.253,4445,5,6
254,3,object_09,object_01,632.0,6,1,301.0,0.4444444444444444,2,object_10,1,3020,0,6,4,library_26,2,memory-2step-stake-s,750,3264457,0.0-18.0-0.1-0.254,4445,6,5
255,4,object_07,object_04,261.0,7,2,683.0,0.8888888888888888,1,object_02,5,3060,0,8,2,restaurant_28,2,memory-2step-stake-s,751,3273166,0.0-18.0-0.1-0.255,4445,8,7
