,state1,stim_left,stim_right,rt_1,choice1,response1,rt_2,points,state2,stim_state2,stake,score,practice,rews1,rews2,background,high_arm,trial_type,trial_index,time_elapsed,internal_node_id,subid,stim_left_num,stim_right_num
0,2,object_05,object_02,-1.0,-1,-1,-1.0,0.0,-,,5,0,0,1,1,forest_12,2,memory-2step-stake-s,492,1053260,0.0-18.0-0.0-0.0,1940,4,3
1,2,object_02,object_05,1191.975,4,2,-1.0,0.0,2,object_01,5,0,0,1,3,forest_4,2,memory-2step-stake-s,493,1061792,0.0-18.0-0.0-0.1,1940,3,4
2,2,object_02,object_05,1005.8,4,2,616.495,0.1111111111111111,2,object_01,1,1,0,0,1,forest_20,2,memory-2step-stake-s,494,1069744,0.0-18.0-0.0-0.2,1940,3,4
3,4,object_10,object_09,1091.665,7,2,933.47,0.0,1,object_06,1,1,0,0,2,restaurant_20,2,memory-2step-stake-s,495,1077910,0.0-18.0-0.0-0.3,1940,8,7
4,3,object_08,object_03,892.595,5,1,756.545,0.0,1,object_06,1,1,0,0,1,library_14,2,memory-2step-stake-s,496,1085897,0.0-18.0-0.0-0.4,1940,5,6
5,4,object_10,object_09,940.39,7,2,739.895,0.2222222222222222,1,object_06,1,3,0,2,4,restaurant_22,2,memory-2step-stake-s,497,1094075,0.0-18.0-0.0-0.5,1940,8,7
6,3,object_03,object_08,995.795,6,1,567.94,0.1111111111111111,2,object_01,1,4,0,2,1,library_19,2,memory-2step-stake-s,498,1101974,0.0-18.0-0.0-0.6,1940,6,5
7,3,object_03,object_08,1398.34,5,2,561.315,0.4444444444444444,1,object_06,1,8,0,4,1,library_32,2,memory-2step-stake-s,499,1110181,0.0-18.0-0.0-0.7,1940,6,5
8,4,object_10,object_09,1235.69,7,2,262.43,0.3333333333333333,1,object_06,1,11,0,3,0,restaurant_23,2,memory-2step-stake-s,500,1117988,0.0-18.0-0.0-0.8,1940,8,7
9,2,object_05,object_02,791.995,4,1,481.97,0.1111111111111111,2,object_01,5,16,0,4,1,forest_30,2,memory-2step-stake-s,501,1125806,0.0-18.0-0.0-0.9,1940,4,3
10,2,object_02,object_05,957.905,4,2,777.44,0.1111111111111111,2,object_01,5,21,0,5,1,forest_19,2,memory-2step-stake-s,502,1133914,0.0-18.0-0.0-0.10,1940,3,4
11,1,object_07,object_04,962.415,1,1,732.15,0.6666666666666666,1,object_06,5,51,0,6,1,desert_1,2,memory-2step-stake-s,503,1142505,0.0-18.0-0.0-0.11,1940,1,2
12,1,object_07,object_04,997.14,1,1,471.01,0.5555555555555556,1,object_06,5,76,0,5,3,desert_2,2,memory-2step-stake-s,504,1150723,0.0-18.0-0.0-0.12,1940,1,2
13,4,object_10,object_09,1018.45,7,2,660.95,0.6666666666666666,1,object_06,1,82,0,6,2,restaurant_1,2,memory-2step-stake-s,505,1159244,0.0-18.0-0.0-0.13,1940,8,7
14,1,object_04,object_07,1011.2,1,2,458.275,0.5555555555555556,1,object_06,5,107,0,5,1,desert_27,2,memory-2step-stake-s,506,1167456,0.0-18.0-0.0-0.14,1940,2,1
15,3,object_03,object_08,1099.095,5,2,479.22,0.4444444444444444,1,object_06,1,111,0,4,1,library_21,2,memory-2step-stake-s,507,1175583,0.0-18.0-0.0-0.15,1940,6,5
16,3,object_08,object_03,1133.33,5,1,734.455,0.2222222222222222,1,object_06,5,121,0,2,2,library_7,2,memory-2step-stake-s,508,1183755,0.0-18.0-0.0-0.16,1940,5,6
17,1,object_04,object_07,1175.525,1,2,802.27,0.2222222222222222,1,object_06,5,131,0,2,1,desert_1,2,memory-2step-stake-s,509,1191997,0.0-18.0-0.0-0.17,1940,2,1
18,3,object_03,object_08,995.15,6,1,524.66,0.3333333333333333,2,object_01,5,146,0,4,3,library_15,2,memory-2step-stake-s,510,1200059,0.0-18.0-0.0-0.18,1940,6,5
19,4,object_10,object_09,854.79,8,1,417.46,0.4444444444444444,2,object_01,1,150,0,5,4,restaurant_11,2,memory-2step-stake-s,511,1208127,0.0-18.0-0.0-0.19,1940,8,7
20,4,object_09,object_10,1065.71,8,2,517.515,0.4444444444444444,2,object_01,5,170,0,3,4,restaurant_28,2,memory-2step-stake-s,512,1216293,0.0-18.0-0.0-0.20,1940,7,8
21,1,object_07,object_04,1030.12,2,2,535.38,0.4444444444444444,2,object_01,5,190,0,3,4,desert_23,2,memory-2step-stake-s,513,1224477,0.0-18.0-0.0-0.21,1940,1,2
22,1,object_07,object_04,989.045,2,2,544.845,0.6666666666666666,2,object_01,5,220,0,4,6,desert_21,2,memory-2step-stake-s,514,1232876,0.0-18.0-0.0-0.22,1940,1,2
23,3,object_08,object_03,862.095,6,2,959.04,0.6666666666666666,2,object_01,1,226,0,5,6,library_11,2,memory-2step-stake-s,515,1241692,0.0-18.0-0.0-0.23,1940,5,6
24,1,object_04,object_07,1098.665,2,1,532.515,0.8888888888888888,2,object_01,5,266,0,1,8,desert_28,2,memory-2step-stake-s,516,1250288,0.0-18.0-0.0-0.24,1940,2,1
25,3,object_03,object_08,1138.795,6,1,554.065,0.6666666666666666,2,object_01,1,272,0,1,6,library_7,2,memory-2step-stake-s,517,1258698,0.0-18.0-0.0-0.25,1940,6,5
26,4,object_09,object_10,1164.25,8,2,687.26,0.8888888888888888,2,object_01,1,280,0,3,8,restaurant_21,2,memory-2step-stake-s,518,1267451,0.0-18.0-0.0-0.26,1940,7,8
27,2,object_05,object_02,1421.56,4,1,631.03,0.6666666666666666,2,object_01,5,310,0,5,6,forest_15,2,memory-2step-stake-s,519,1275931,0.0-18.0-0.0-0.27,1940,4,3
28,1,object_04,object_07,933.245,2,1,585.78,0.5555555555555556,2,object_01,5,335,0,4,5,desert_22,2,memory-2step-stake-s,520,1284266,0.0-18.0-0.0-0.28,1940,2,1
29,3,object_08,object_03,1063.535,6,2,611.835,1.0,2,object_01,1,344,0,0,9,library_8,2,memory-2step-stake-s,521,1293042,0.0-18.0-0.0-0.29,1940,5,6
30,3,object_08,object_03,925.885,6,2,497.85,0.7777777777777778,2,object_01,1,351,0,1,7,library_7,2,memory-2step-stake-s,522,1301493,0.0-18.0-0.0-0.30,1940,5,6
31,1,object_07,object_04,1117.565,2,2,620.22,0.8888888888888888,2,object_01,5,391,0,0,8,desert_24,2,memory-2step-stake-s,523,1310181,0.0-18.0-0.0-0.31,1940,1,2
32,2,object_05,object_02,1138.84,4,1,422.36,0.6666666666666666,2,object_01,5,421,0,2,6,forest_28,2,memory-2step-stake-s,524,1318458,0.0-18.0-0.0-0.32,1940,4,3
33,2,object_05,object_02,1184.475,4,1,474.56,0.5555555555555556,2,object_01,5,446,0,1,5,forest_28,2,memory-2step-stake-s,525,1326683,0.0-18.0-0.0-0.33,1940,4,3
34,3,object_08,object_03,868.44,6,2,382.91,0.2222222222222222,2,object_01,1,448,0,1,2,library_13,2,memory-2step-stake-s,526,1334507,0.0-18.0-0.0-0.34,1940,5,6
35,4,object_09,object_10,1007.855,7,1,469.345,0.3333333333333333,1,object_06,1,451,0,3,3,restaurant_18,2,memory-2step-stake-s,527,1342522,0.0-18.0-0.0-0.35,1940,7,8
36,3,object_08,object_03,1026.97,5,1,568.24,0.4444444444444444,1,object_06,5,471,0,4,5,library_14,2,memory-2step-stake-s,528,1350741,0.0-18.0-0.0-0.36,1940,5,6
37,4,object_10,object_09,1274.575,7,2,647.05,0.4444444444444444,1,object_06,1,475,0,4,6,restaurant_21,2,memory-2step-stake-s,529,1359035,0.0-18.0-0.0-0.37,1940,8,7
38,2,object_05,object_02,962.02,3,2,486.955,0.2222222222222222,1,object_06,5,485,0,2,2,forest_15,2,memory-2step-stake-s,530,1366958,0.0-18.0-0.0-0.38,1940,4,3
39,2,object_02,object_05,935.935,4,2,830.035,0.0,2,object_01,5,485,0,1,0,forest_19,2,memory-2step-stake-s,531,1375014,0.0-18.0-0.0-0.39,1940,3,4
40,2,object_02,object_05,981.94,3,1,669.015,0.2222222222222222,1,object_06,5,495,0,2,3,forest_30,2,memory-2step-stake-s,532,1383122,0.0-18.0-0.0-0.40,1940,3,4
41,4,object_09,object_10,1116.17,8,2,503.9,0.1111111111111111,2,object_01,1,496,0,2,1,restaurant_11,2,memory-2step-stake-s,533,1390958,0.0-18.0-0.0-0.41,1940,7,8
42,4,object_10,object_09,1387.69,8,1,513.69,0.1111111111111111,2,object_01,5,501,0,2,1,restaurant_1,2,memory-2step-stake-s,534,1398805,0.0-18.0-0.0-0.42,1940,8,7
43,1,object_07,object_04,1218.56,1,1,497.12,0.4444444444444444,1,object_06,5,521,0,4,1,desert_17,2,memory-2step-stake-s,535,1406943,0.0-18.0-0.0-0.43,1940,1,2
44,4,object_10,object_09,1185.415,7,2,591.105,0.4444444444444444,1,object_06,5,541,0,4,1,restaurant_6,2,memory-2step-stake-s,536,1415179,0.0-18.0-0.0-0.44,1940,8,7
45,3,object_08,object_03,1395.275,5,1,534.475,0.3333333333333333,1,object_06,1,544,0,3,3,library_9,2,memory-2step-stake-s,537,1423258,0.0-18.0-0.0-0.45,1940,5,6
46,2,object_05,object_02,1092.0,3,2,615.21,0.5555555555555556,1,object_06,5,569,0,5,7,forest_15,2,memory-2step-stake-s,538,1431628,0.0-18.0-0.0-0.46,1940,4,3
47,4,object_10,object_09,1381.415,7,2,644.3,0.5555555555555556,1,object_06,1,574,0,5,5,restaurant_18,2,memory-2step-stake-s,539,1440021,0.0-18.0-0.0-0.47,1940,8,7
48,3,object_08,object_03,1260.47,5,1,501.635,0.5555555555555556,1,object_06,5,599,0,5,1,library_21,2,memory-2step-stake-s,540,1448268,0.0-18.0-0.0-0.48,1940,5,6
49,1,object_04,object_07,1133.505,1,2,413.11,0.7777777777777778,1,object_06,5,634,0,7,2,desert_31,2,memory-2step-stake-s,541,1456644,0.0-18.0-0.0-0.49,1940,2,1
50,1,object_07,object_04,951.38,1,1,-1.0,0.0,1,object_06,5,634,0,5,4,desert_10,2,memory-2step-stake-s,542,1465176,0.0-18.0-0.0-0.50,1940,1,2
51,1,object_04,object_07,723.005,1,2,406.075,0.6666666666666666,1,object_06,5,664,0,6,3,desert_20,2,memory-2step-stake-s,543,1473441,0.0-18.0-0.0-0.51,1940,2,1
52,4,object_09,object_10,1408.865,7,1,573.54,0.3333333333333333,1,object_06,1,667,0,3,6,restaurant_22,2,memory-2step-stake-s,544,1481555,0.0-18.0-0.0-0.52,1940,7,8
53,2,object_05,object_02,1030.3,3,2,400.51,0.1111111111111111,1,object_06,5,672,0,1,7,forest_9,2,memory-2step-stake-s,545,1489292,0.0-18.0-0.0-0.53,1940,4,3
54,3,object_03,object_08,-1.0,-1,-1,-1.0,0.0,-,,1,672,0,3,8,library_23,2,memory-2step-stake-s,546,1495816,0.0-18.0-0.0-0.54,1940,6,5
55,1,object_04,object_07,739.35,2,1,475.24,0.5555555555555556,2,object_01,5,697,0,5,5,desert_2,2,memory-2step-stake-s,547,1504047,0.0-18.0-0.0-0.55,1940,2,1
56,3,object_08,object_03,1041.43,6,2,495.56,0.7777777777777778,2,object_01,1,704,0,5,7,library_29,2,memory-2step-stake-s,548,1512498,0.0-18.0-0.0-0.56,1940,5,6
57,2,object_02,object_05,922.14,4,2,495.07,0.5555555555555556,2,object_01,1,709,0,6,5,forest_10,2,memory-2step-stake-s,549,1520739,0.0-18.0-0.0-0.57,1940,3,4
58,1,object_04,object_07,743.43,2,1,584.355,0.5555555555555556,2,object_01,5,734,0,7,5,desert_10,2,memory-2step-stake-s,550,1529074,0.0-18.0-0.0-0.58,1940,2,1
59,1,object_07,object_04,1009.94,2,2,547.145,1.0,2,object_01,5,779,0,8,9,desert_24,2,memory-2step-stake-s,551,1537786,0.0-18.0-0.0-0.59,1940,1,2
60,1,object_04,object_07,919.425,2,1,586.72,0.8888888888888888,2,object_01,5,819,0,9,8,desert_17,2,memory-2step-stake-s,552,1546440,0.0-18.0-0.0-0.60,1940,2,1
61,3,object_03,object_08,857.615,6,1,528.91,0.7777777777777778,2,object_01,1,826,0,9,7,library_13,2,memory-2step-stake-s,553,1554932,0.0-18.0-0.0-0.61,1940,6,5
62,4,object_10,object_09,-1.0,-1,-1,-1.0,0.0,-,,1,826,0,4,3,restaurant_13,2,memory-2step-stake-s,554,1561456,0.0-18.0-0.0-0.62,1940,8,7
63,3,object_08,object_03,1119.795,6,2,527.495,0.4444444444444444,2,object_01,5,846,0,6,4,library_32,2,memory-2step-stake-s,555,1569628,0.0-18.0-0.0-0.63,1940,5,6
64,2,object_02,object_05,1318.415,4,2,504.305,0.7777777777777778,2,object_01,1,853,0,4,7,forest_17,2,memory-2step-stake-s,556,1578090,0.0-18.0-0.0-0.64,1940,3,4
65,3,object_08,object_03,983.63,6,2,467.63,0.5555555555555556,2,object_01,1,858,0,4,5,library_16,2,memory-2step-stake-s,557,1586303,0.0-18.0-0.0-0.65,1940,5,6
66,4,object_09,object_10,1199.955,8,2,519.91,0.7777777777777778,2,object_01,1,865,0,3,7,restaurant_23,2,memory-2step-stake-s,558,1594783,0.0-18.0-0.0-0.66,1940,7,8
67,1,object_07,object_04,886.15,2,2,575.68,0.6666666666666666,2,object_01,5,895,0,3,6,desert_10,2,memory-2step-stake-s,559,1603211,0.0-18.0-0.0-0.67,1940,1,2
68,2,object_02,object_05,826.85,4,2,491.055,0.6666666666666666,2,object_01,5,925,0,4,6,forest_9,2,memory-2step-stake-s,560,1611551,0.0-18.0-0.0-0.68,1940,3,4
69,2,object_02,object_05,775.08,4,2,618.11,0.3333333333333333,2,object_01,5,940,0,2,3,forest_16,2,memory-2step-stake-s,561,1619712,0.0-18.0-0.0-0.69,1940,3,4
70,4,object_09,object_10,1011.52,8,2,849.975,0.3333333333333333,2,object_01,1,943,0,4,3,restaurant_7,2,memory-2step-stake-s,562,1628105,0.0-18.0-0.0-0.70,1940,7,8
71,2,object_02,object_05,1089.855,4,2,652.465,0.3333333333333333,2,object_01,5,958,0,4,3,forest_5,2,memory-2step-stake-s,563,1636301,0.0-18.0-0.0-0.71,1940,3,4
72,4,object_10,object_09,816.785,8,1,386.45,0.3333333333333333,2,object_01,1,961,0,5,3,restaurant_22,2,memory-2step-stake-s,564,1644235,0.0-18.0-0.0-0.72,1940,8,7
73,2,object_05,object_02,905.175,3,2,467.91,0.6666666666666666,1,object_06,1,967,0,6,5,forest_17,2,memory-2step-stake-s,565,1652558,0.0-18.0-0.0-0.73,1940,4,3
74,1,object_04,object_07,848.85,1,2,557.975,1.0,1,object_06,5,1012,0,9,9,desert_14,2,memory-2step-stake-s,566,1661287,0.0-18.0-0.0-0.74,1940,2,1
75,1,object_04,object_07,856.84,1,2,426.135,0.7777777777777778,1,object_06,5,1047,0,7,7,desert_14,2,memory-2step-stake-s,567,1669675,0.0-18.0-0.0-0.75,1940,2,1
76,2,object_02,object_05,918.19,3,1,529.325,0.3333333333333333,1,object_06,5,1062,0,3,8,forest_16,2,memory-2step-stake-s,568,1677748,0.0-18.0-0.0-0.76,1940,3,4
77,4,object_10,object_09,1111.175,8,1,444.84,0.8888888888888888,2,object_01,1,1070,0,5,8,restaurant_23,2,memory-2step-stake-s,569,1686257,0.0-18.0-0.0-0.77,1940,8,7
78,4,object_09,object_10,1463.82,8,2,457.15,0.8888888888888888,2,object_01,5,1110,0,4,8,restaurant_6,2,memory-2step-stake-s,570,1694778,0.0-18.0-0.0-0.78,1940,7,8
79,1,object_07,object_04,1245.29,2,2,411.225,0.6666666666666666,2,object_01,1,1116,0,4,6,desert_21,2,memory-2step-stake-s,571,1703043,0.0-18.0-0.0-0.79,1940,1,2
80,1,object_07,object_04,1072.42,2,2,380.35,0.5555555555555556,2,object_01,1,1121,0,4,5,desert_22,2,memory-2step-stake-s,572,1711174,0.0-18.0-0.0-0.80,1940,1,2
81,3,object_08,object_03,736.815,5,1,383.995,0.6666666666666666,1,object_06,5,1151,0,6,8,library_26,2,memory-2step-stake-s,573,1719416,0.0-18.0-0.0-0.81,1940,5,6
82,2,object_02,object_05,1022.24,3,1,368.635,0.6666666666666666,1,object_06,5,1181,0,6,8,forest_32,2,memory-2step-stake-s,574,1727635,0.0-18.0-0.0-0.82,1940,3,4
83,2,object_05,object_02,894.73,3,2,505.625,0.4444444444444444,1,object_06,5,1201,0,4,9,forest_29,2,memory-2step-stake-s,575,1735790,0.0-18.0-0.0-0.83,1940,4,3
84,3,object_03,object_08,1194.275,6,1,605.42,0.5555555555555556,2,object_01,1,1206,0,7,5,library_9,2,memory-2step-stake-s,576,1744142,0.0-18.0-0.0-0.84,1940,6,5
85,3,object_03,object_08,884.68,6,1,455.17,0.3333333333333333,2,object_01,5,1221,0,7,3,library_12,2,memory-2step-stake-s,577,1752140,0.0-18.0-0.0-0.85,1940,6,5
86,2,object_05,object_02,798.18,3,2,465.24,0.6666666666666666,1,object_06,5,1251,0,6,6,forest_1,2,memory-2step-stake-s,578,1760463,0.0-18.0-0.0-0.86,1940,4,3
87,2,object_02,object_05,1175.33,3,1,459.455,0.3333333333333333,1,object_06,5,1266,0,3,7,forest_4,2,memory-2step-stake-s,579,1768467,0.0-18.0-0.0-0.87,1940,3,4
88,4,object_10,object_09,1268.99,8,1,603.29,0.7777777777777778,2,object_01,5,1301,0,3,7,restaurant_1,2,memory-2step-stake-s,580,1777029,0.0-18.0-0.0-0.88,1940,8,7
89,3,object_08,object_03,997.88,6,2,596.53,0.6666666666666666,2,object_01,1,1307,0,4,6,library_19,2,memory-2step-stake-s,581,1785479,0.0-18.0-0.0-0.89,1940,5,6
90,2,object_02,object_05,909.095,4,2,524.955,1.0,2,object_01,5,1352,0,8,9,forest_15,2,memory-2step-stake-s,582,1794174,0.0-18.0-0.0-0.90,1940,3,4
91,1,object_07,object_04,1166.78,2,2,400.135,1.0,2,object_01,5,1397,0,1,9,desert_13,2,memory-2step-stake-s,583,1802747,0.0-18.0-0.0-0.91,1940,1,2
92,1,object_04,object_07,1015.57,2,1,528.285,0.8888888888888888,2,object_01,5,1437,0,2,8,desert_28,2,memory-2step-stake-s,584,1811343,0.0-18.0-0.0-0.92,1940,2,1
93,3,object_03,object_08,840.465,6,1,524.525,1.0,2,object_01,1,1446,0,2,9,library_11,2,memory-2step-stake-s,585,1820026,0.0-18.0-0.0-0.93,1940,6,5
94,2,object_05,object_02,803.12,4,1,414.925,0.6666666666666666,2,object_01,5,1476,0,4,6,forest_16,2,memory-2step-stake-s,586,1828297,0.0-18.0-0.0-0.94,1940,4,3
95,2,object_05,object_02,692.18,4,1,390.4,0.5555555555555556,2,object_01,5,1501,0,5,5,forest_4,2,memory-2step-stake-s,587,1836434,0.0-18.0-0.0-0.95,1940,4,3
96,4,object_10,object_09,1019.87,7,2,503.3,0.4444444444444444,1,object_06,1,1505,0,4,3,restaurant_12,2,memory-2step-stake-s,588,1844577,0.0-18.0-0.0-0.96,1940,8,7
97,3,object_03,object_08,693.6,6,1,415.135,0.5555555555555556,2,object_01,5,1530,0,6,5,library_15,2,memory-2step-stake-s,589,1852744,0.0-18.0-0.0-0.97,1940,6,5
98,4,object_09,object_10,1477.485,8,2,541.445,0.4444444444444444,2,object_01,1,1534,0,7,4,restaurant_21,2,memory-2step-stake-s,590,1860934,0.0-18.0-0.0-0.98,1940,7,8
99,3,object_03,object_08,776.79,5,2,505.735,0.8888888888888888,1,object_06,1,1542,0,8,1,library_23,2,memory-2step-stake-s,591,1869506,0.0-18.0-0.0-0.99,1940,6,5
100,2,object_05,object_02,874.365,3,2,466.96,0.6666666666666666,1,object_06,1,1548,0,6,2,forest_10,2,memory-2step-stake-s,592,1877830,0.0-18.0-0.0-0.100,1940,4,3
101,1,object_04,object_07,838.67,1,2,467.035,0.7777777777777778,1,object_06,5,1583,0,7,1,desert_24,2,memory-2step-stake-s,593,1886257,0.0-18.0-0.0-0.101,1940,2,1
102,4,object_09,object_10,926.165,7,1,435.105,0.6666666666666666,1,object_06,1,1589,0,6,3,restaurant_8,2,memory-2step-stake-s,594,1894551,0.0-18.0-0.0-0.102,1940,7,8
103,1,object_07,object_04,709.77,1,1,378.135,0.3333333333333333,1,object_06,5,1604,0,3,5,desert_19,2,memory-2step-stake-s,595,1902474,0.0-18.0-0.0-0.103,1940,1,2
104,4,object_10,object_09,1010.37,8,1,330.725,0.8888888888888888,2,object_01,1,1612,0,0,8,restaurant_12,2,memory-2step-stake-s,596,1910873,0.0-18.0-0.0-0.104,1940,8,7
105,4,object_10,object_09,1041.89,8,1,473.77,0.7777777777777778,2,object_01,1,1619,0,2,7,restaurant_25,2,memory-2step-stake-s,597,1919306,0.0-18.0-0.0-0.105,1940,8,7
106,1,object_04,object_07,1006.39,2,1,389.97,0.4444444444444444,2,object_01,5,1639,0,6,4,desert_19,2,memory-2step-stake-s,598,1927339,0.0-18.0-0.0-0.106,1940,2,1
107,2,object_02,object_05,945.26,3,1,455.025,0.5555555555555556,1,object_06,5,1664,0,5,0,forest_9,2,memory-2step-stake-s,599,1935545,0.0-18.0-0.0-0.107,1940,3,4
108,2,object_02,object_05,818.85,3,1,471.95,0.2222222222222222,1,object_06,5,1674,0,2,2,forest_1,2,memory-2step-stake-s,600,1943457,0.0-18.0-0.0-0.108,1940,3,4
109,4,object_10,object_09,890.1,8,1,432.935,0.2222222222222222,2,object_01,1,1676,0,2,2,restaurant_18,2,memory-2step-stake-s,601,1951328,0.0-18.0-0.0-0.109,1940,8,7
110,1,object_04,object_07,799.7,1,2,387.935,0.2222222222222222,1,object_06,5,1686,0,2,1,desert_23,2,memory-2step-stake-s,602,1959152,0.0-18.0-0.0-0.110,1940,2,1
111,2,object_02,object_05,753.46,3,1,420.535,0.1111111111111111,1,object_06,1,1687,0,1,1,forest_19,2,memory-2step-stake-s,603,1966906,0.0-18.0-0.0-0.111,1940,3,4
112,4,object_09,object_10,1009.07,8,2,520.32,0.1111111111111111,2,object_01,1,1688,0,2,1,restaurant_13,2,memory-2step-stake-s,604,1974759,0.0-18.0-0.0-0.112,1940,7,8
113,4,object_09,object_10,1101.25,7,1,-1.0,0.0,1,object_06,1,1688,0,4,1,restaurant_20,2,memory-2step-stake-s,605,1983291,0.0-18.0-0.0-0.113,1940,7,8
114,4,object_10,object_09,1133.12,8,1,351.845,0.3333333333333333,2,object_01,5,1703,0,3,3,restaurant_22,2,memory-2step-stake-s,606,1991185,0.0-18.0-0.0-0.114,1940,8,7
115,3,object_08,object_03,1017.64,5,1,-1.0,0.0,1,object_06,1,1703,0,3,4,library_12,2,memory-2step-stake-s,607,1999711,0.0-18.0-0.0-0.115,1940,5,6
116,2,object_05,object_02,947.505,3,2,441.3,0.1111111111111111,1,object_06,5,1708,0,1,2,forest_32,2,memory-2step-stake-s,608,2007488,0.0-18.0-0.0-0.116,1940,4,3
117,1,object_04,object_07,1052.995,2,1,477.935,0.3333333333333333,2,object_01,5,1723,0,1,3,desert_28,2,memory-2step-stake-s,609,2015510,0.0-18.0-0.0-0.117,1940,2,1
118,3,object_08,object_03,800.315,6,2,409.87,0.2222222222222222,2,object_01,5,1733,0,2,2,library_29,2,memory-2step-stake-s,610,2023358,0.0-18.0-0.0-0.118,1940,5,6
119,3,object_03,object_08,873.835,6,1,497.68,0.3333333333333333,2,object_01,1,1736,0,4,3,library_8,2,memory-2step-stake-s,611,2031396,0.0-18.0-0.0-0.119,1940,6,5
120,2,object_05,object_02,761.35,3,2,490.545,0.6666666666666666,1,object_06,5,1766,0,6,5,forest_2,2,memory-2step-stake-s,612,2039743,0.0-18.0-0.0-0.120,1940,4,3
121,2,object_05,object_02,706.23,3,2,461.405,0.6666666666666666,1,object_06,5,1796,0,6,3,forest_1,2,memory-2step-stake-s,613,2048060,0.0-18.0-0.0-0.121,1940,4,3
122,2,object_05,object_02,755.96,3,2,487.94,0.6666666666666666,1,object_06,1,1802,0,6,5,forest_2,2,memory-2step-stake-s,614,2056401,0.0-18.0-0.0-0.122,1940,4,3
123,1,object_07,object_04,1185.39,2,2,445.945,0.5555555555555556,2,object_01,5,1827,0,7,5,desert_22,2,memory-2step-stake-s,615,2064602,0.0-18.0-0.0-0.123,1940,1,2
124,2,object_02,object_05,874.375,4,2,477.345,0.7777777777777778,2,object_01,5,1862,0,7,7,forest_29,2,memory-2step-stake-s,616,2073041,0.0-18.0-0.0-0.124,1940,3,4
125,2,object_02,object_05,675.72,4,2,467.245,0.7777777777777778,2,object_01,5,1897,0,8,7,forest_28,2,memory-2step-stake-s,617,2081469,0.0-18.0-0.0-0.125,1940,3,4
126,3,object_08,object_03,784.095,6,2,362.865,1.0,2,object_01,1,1906,0,6,9,library_29,2,memory-2step-stake-s,618,2090001,0.0-18.0-0.0-0.126,1940,5,6
127,4,object_09,object_10,-1.0,-1,-1,-1.0,0.0,-,,1,1906,0,2,9,restaurant_20,2,memory-2step-stake-s,619,2096526,0.0-18.0-0.0-0.127,1940,7,8
128,2,object_05,object_02,1129.94,4,1,598.315,0.6666666666666666,2,object_01,5,1936,0,2,6,forest_20,2,memory-2step-stake-s,621,2190065,0.0-18.0-0.1-0.128,1940,4,3
129,1,object_04,object_07,837.875,2,1,365.265,0.2222222222222222,2,object_01,5,1946,0,6,2,desert_1,2,memory-2step-stake-s,622,2197872,0.0-18.0-0.1-0.129,1940,2,1
130,3,object_03,object_08,722.44,5,2,368.385,0.6666666666666666,1,object_06,5,1976,0,6,2,library_29,2,memory-2step-stake-s,623,2206096,0.0-18.0-0.1-0.130,1940,6,5
131,1,object_07,object_04,592.4,1,1,368.035,0.4444444444444444,1,object_06,5,1996,0,4,2,desert_2,2,memory-2step-stake-s,624,2214112,0.0-18.0-0.1-0.131,1940,1,2
132,4,object_10,object_09,999.06,8,1,428.78,0.0,2,object_01,1,1996,0,1,0,restaurant_6,2,memory-2step-stake-s,625,2221768,0.0-18.0-0.1-0.132,1940,8,7
133,2,object_02,object_05,827.77,3,1,371.375,0.4444444444444444,1,object_06,1,2000,0,4,2,forest_29,2,memory-2step-stake-s,626,2229789,0.0-18.0-0.1-0.133,1940,3,4
134,4,object_09,object_10,905.215,7,1,470.185,0.2222222222222222,1,object_06,5,2010,0,2,2,restaurant_13,2,memory-2step-stake-s,627,2237700,0.0-18.0-0.1-0.134,1940,7,8
135,1,object_04,object_07,748.805,2,1,429.21,0.3333333333333333,2,object_01,5,2025,0,2,3,desert_13,2,memory-2step-stake-s,628,2245669,0.0-18.0-0.1-0.135,1940,2,1
136,4,object_09,object_10,951.645,8,2,437.67,0.6666666666666666,2,object_01,1,2031,0,4,6,restaurant_32,2,memory-2step-stake-s,629,2253963,0.0-18.0-0.1-0.136,1940,7,8
137,1,object_07,object_04,976.6,2,2,481.09,0.7777777777777778,2,object_01,5,2066,0,4,7,desert_24,2,memory-2step-stake-s,630,2262402,0.0-18.0-0.1-0.137,1940,1,2
138,2,object_02,object_05,662.48,4,2,383.5,0.6666666666666666,2,object_01,1,2072,0,1,6,forest_16,2,memory-2step-stake-s,631,2270645,0.0-18.0-0.1-0.138,1940,3,4
139,3,object_08,object_03,787.845,6,2,502.015,0.8888888888888888,2,object_01,1,2080,0,1,8,library_21,2,memory-2step-stake-s,632,2279206,0.0-18.0-0.1-0.139,1940,5,6
140,4,object_10,object_09,745.53,8,1,537.845,0.7777777777777778,2,object_01,5,2115,0,1,7,restaurant_25,2,memory-2step-stake-s,633,2287702,0.0-18.0-0.1-0.140,1940,8,7
141,3,object_03,object_08,736.82,6,1,467.275,0.6666666666666666,2,object_01,5,2145,0,0,6,library_9,2,memory-2step-stake-s,634,2296022,0.0-18.0-0.1-0.141,1940,6,5
142,3,object_08,object_03,703.925,6,2,358.15,0.7777777777777778,2,object_01,1,2152,0,4,7,library_8,2,memory-2step-stake-s,635,2304338,0.0-18.0-0.1-0.142,1940,5,6
143,3,object_03,object_08,725.935,6,1,479.505,0.4444444444444444,2,object_01,5,2172,0,6,4,library_27,2,memory-2step-stake-s,636,2312464,0.0-18.0-0.1-0.143,1940,6,5
144,2,object_02,object_05,709.4,4,2,488.615,0.4444444444444444,2,object_01,5,2192,0,4,4,forest_30,2,memory-2step-stake-s,637,2320595,0.0-18.0-0.1-0.144,1940,3,4
145,1,object_07,object_04,741.78,1,1,494.31,0.5555555555555556,1,object_06,5,2217,0,5,3,desert_21,2,memory-2step-stake-s,638,2328837,0.0-18.0-0.1-0.145,1940,1,2
146,3,object_03,object_08,719.93,5,2,489.63,0.1111111111111111,1,object_06,1,2218,0,1,3,library_16,2,memory-2step-stake-s,639,2336661,0.0-18.0-0.1-0.146,1940,6,5
147,1,object_04,object_07,545.945,1,2,393.41,0.3333333333333333,1,object_06,5,2233,0,3,8,desert_31,2,memory-2step-stake-s,640,2344595,0.0-18.0-0.1-0.147,1940,2,1
148,4,object_10,object_09,853.605,7,2,406.18,0.3333333333333333,1,object_06,1,2236,0,3,9,restaurant_12,2,memory-2step-stake-s,641,2352547,0.0-18.0-0.1-0.148,1940,8,7
149,1,object_04,object_07,443.765,1,2,475.615,0.2222222222222222,1,object_06,5,2246,0,2,9,desert_2,2,memory-2step-stake-s,642,2360464,0.0-18.0-0.1-0.149,1940,2,1
150,3,object_03,object_08,1161.665,5,2,535.095,0.1111111111111111,1,object_06,1,2247,0,1,7,library_14,2,memory-2step-stake-s,643,2368334,0.0-18.0-0.1-0.150,1940,6,5
151,3,object_08,object_03,565.265,5,1,531.305,0.1111111111111111,1,object_06,1,2248,0,1,3,library_9,2,memory-2step-stake-s,644,2376199,0.0-18.0-0.1-0.151,1940,5,6
152,4,object_10,object_09,459.96,8,1,377.33,0.2222222222222222,2,object_01,1,2250,0,0,2,restaurant_32,2,memory-2step-stake-s,645,2384012,0.0-18.0-0.1-0.152,1940,8,7
153,3,object_03,object_08,666.89,5,2,444.045,0.3333333333333333,1,object_06,1,2253,0,3,3,library_15,2,memory-2step-stake-s,646,2391998,0.0-18.0-0.1-0.153,1940,6,5
154,2,object_02,object_05,661.15,3,1,401.12,0.5555555555555556,1,object_06,5,2278,0,5,4,forest_10,2,memory-2step-stake-s,647,2400153,0.0-18.0-0.1-0.154,1940,3,4
155,3,object_03,object_08,755.62,5,2,512.09,0.2222222222222222,1,object_06,1,2280,0,2,1,library_12,2,memory-2step-stake-s,648,2408105,0.0-18.0-0.1-0.155,1940,6,5
156,1,object_07,object_04,724.47,1,1,431.4,0.2222222222222222,1,object_06,5,2290,0,2,1,desert_23,2,memory-2step-stake-s,649,2415975,0.0-18.0-0.1-0.156,1940,1,2
157,2,object_05,object_02,671.325,3,2,415.485,0.1111111111111111,1,object_06,5,2295,0,1,3,forest_4,2,memory-2step-stake-s,650,2423724,0.0-18.0-0.1-0.157,1940,4,3
158,3,object_08,object_03,636.115,5,1,434.41,0.2222222222222222,1,object_06,1,2297,0,2,4,library_21,2,memory-2step-stake-s,651,2431600,0.0-18.0-0.1-0.158,1940,5,6
159,3,object_03,object_08,1135.05,5,2,-1.0,0.0,1,object_06,1,2297,0,2,8,library_26,2,memory-2step-stake-s,652,2440132,0.0-18.0-0.1-0.159,1940,6,5
160,4,object_10,object_09,926.65,7,2,430.78,0.1111111111111111,1,object_06,1,2298,0,1,9,restaurant_12,2,memory-2step-stake-s,653,2447898,0.0-18.0-0.1-0.160,1940,8,7
161,1,object_07,object_04,-1.0,-1,-1,-1.0,0.0,-,,5,2298,0,2,7,desert_23,2,memory-2step-stake-s,654,2454422,0.0-18.0-0.1-0.161,1940,1,2
162,2,object_02,object_05,817.16,4,2,488.91,0.5555555555555556,2,object_01,5,2323,0,6,5,forest_20,2,memory-2step-stake-s,655,2462658,0.0-18.0-0.1-0.162,1940,3,4
163,3,object_03,object_08,840.635,6,1,517.88,0.5555555555555556,2,object_01,1,2328,0,5,5,library_13,2,memory-2step-stake-s,656,2470929,0.0-18.0-0.1-0.163,1940,6,5
164,1,object_07,object_04,848.76,2,2,569.025,0.8888888888888888,2,object_01,5,2368,0,5,8,desert_14,2,memory-2step-stake-s,657,2479566,0.0-18.0-0.1-0.164,1940,1,2
165,1,object_04,object_07,669.035,2,1,418.21,0.6666666666666666,2,object_01,1,2374,0,7,6,desert_22,2,memory-2step-stake-s,658,2487842,0.0-18.0-0.1-0.165,1940,2,1
166,1,object_07,object_04,729.55,2,2,497.72,0.4444444444444444,2,object_01,5,2394,0,7,4,desert_21,2,memory-2step-stake-s,659,2495980,0.0-18.0-0.1-0.166,1940,1,2
167,4,object_09,object_10,984.2,8,2,294.24,0.3333333333333333,2,object_01,1,2397,0,9,3,restaurant_32,2,memory-2step-stake-s,660,2503816,0.0-18.0-0.1-0.167,1940,7,8
168,3,object_03,object_08,750.215,6,1,499.61,0.3333333333333333,2,object_01,5,2412,0,8,3,library_12,2,memory-2step-stake-s,661,2511860,0.0-18.0-0.1-0.168,1940,6,5
169,2,object_02,object_05,687.74,4,2,389.175,0.3333333333333333,2,object_01,5,2427,0,8,3,forest_12,2,memory-2step-stake-s,662,2519795,0.0-18.0-0.1-0.169,1940,3,4
170,4,object_09,object_10,1128.625,8,2,420.97,0.5555555555555556,2,object_01,1,2432,0,8,5,restaurant_13,2,memory-2step-stake-s,663,2527967,0.0-18.0-0.1-0.170,1940,7,8
171,2,object_02,object_05,993.88,4,2,419.055,0.6666666666666666,2,object_01,5,2462,0,7,6,forest_12,2,memory-2step-stake-s,664,2536243,0.0-18.0-0.1-0.171,1940,3,4
172,4,object_10,object_09,847.865,8,1,465.97,0.6666666666666666,2,object_01,1,2468,0,8,6,restaurant_28,2,memory-2step-stake-s,665,2544567,0.0-18.0-0.1-0.172,1940,8,7
173,4,object_09,object_10,740.62,8,2,429.335,0.6666666666666666,2,object_01,1,2474,0,7,6,restaurant_4,2,memory-2step-stake-s,666,2552855,0.0-18.0-0.1-0.173,1940,7,8
174,1,object_07,object_04,1184.625,2,2,421.335,0.4444444444444444,2,object_01,1,2478,0,7,4,desert_13,2,memory-2step-stake-s,667,2560923,0.0-18.0-0.1-0.174,1940,1,2
175,3,object_03,object_08,963.435,6,1,943.99,0.2222222222222222,2,object_01,1,2480,0,6,2,library_19,2,memory-2step-stake-s,668,2569304,0.0-18.0-0.1-0.175,1940,6,5
176,2,object_05,object_02,997.94,4,1,435.325,0.1111111111111111,2,object_01,1,2481,0,8,1,forest_9,2,memory-2step-stake-s,669,2577076,0.0-18.0-0.1-0.176,1940,4,3
177,1,object_04,object_07,904.475,2,1,394.735,0.3333333333333333,2,object_01,5,2496,0,8,3,desert_31,2,memory-2step-stake-s,670,2585016,0.0-18.0-0.1-0.177,1940,2,1
178,3,object_08,object_03,724.775,6,2,401.915,0.4444444444444444,2,object_01,5,2516,0,9,4,library_23,2,memory-2step-stake-s,671,2593062,0.0-18.0-0.1-0.178,1940,5,6
179,2,object_05,object_02,656.42,4,1,506.465,0.5555555555555556,2,object_01,5,2541,0,7,5,forest_30,2,memory-2step-stake-s,672,2601320,0.0-18.0-0.1-0.179,1940,4,3
180,4,object_10,object_09,876.635,8,1,470.035,0.5555555555555556,2,object_01,1,2546,0,8,5,restaurant_6,2,memory-2step-stake-s,673,2609544,0.0-18.0-0.1-0.180,1940,8,7
181,3,object_08,object_03,801.14,6,2,517.91,0.4444444444444444,2,object_01,1,2550,0,6,4,library_26,2,memory-2step-stake-s,674,2617711,0.0-18.0-0.1-0.181,1940,5,6
182,4,object_09,object_10,1177.065,8,2,432.19,0.6666666666666666,2,object_01,1,2556,0,4,6,restaurant_8,2,memory-2step-stake-s,675,2625999,0.0-18.0-0.1-0.182,1940,7,8
183,1,object_04,object_07,731.11,2,1,454.825,0.8888888888888888,2,object_01,1,2564,0,3,8,desert_17,2,memory-2step-stake-s,676,2634520,0.0-18.0-0.1-0.183,1940,2,1
184,3,object_03,object_08,832.51,6,1,497.545,0.3333333333333333,2,object_01,5,2579,0,3,3,library_14,2,memory-2step-stake-s,677,2642553,0.0-18.0-0.1-0.184,1940,6,5
185,1,object_04,object_07,529.165,2,1,527.04,0.2222222222222222,2,object_01,5,2589,0,4,2,desert_19,2,memory-2step-stake-s,678,2650510,0.0-18.0-0.1-0.185,1940,2,1
186,2,object_02,object_05,781.045,4,2,417.82,0.2222222222222222,2,object_01,1,2591,0,0,2,forest_28,2,memory-2step-stake-s,679,2658369,0.0-18.0-0.1-0.186,1940,3,4
187,1,object_04,object_07,1036.2,2,1,388.34,0.1111111111111111,2,object_01,5,2596,0,2,1,desert_30,2,memory-2step-stake-s,680,2666094,0.0-18.0-0.1-0.187,1940,2,1
188,4,object_10,object_09,923.95,8,1,395.27,0.2222222222222222,2,object_01,1,2598,0,0,2,restaurant_4,2,memory-2step-stake-s,681,2673930,0.0-18.0-0.1-0.188,1940,8,7
189,2,object_02,object_05,824.13,4,2,586.545,0.1111111111111111,2,object_01,5,2603,0,6,1,forest_1,2,memory-2step-stake-s,682,2681853,0.0-18.0-0.1-0.189,1940,3,4
190,1,object_07,object_04,773.995,1,1,469.23,0.5555555555555556,1,object_06,5,2628,0,5,6,desert_27,2,memory-2step-stake-s,683,2690077,0.0-18.0-0.1-0.190,1940,1,2
191,2,object_05,object_02,824.705,3,2,468.5,0.7777777777777778,1,object_06,5,2663,0,7,3,forest_12,2,memory-2step-stake-s,684,2698505,0.0-18.0-0.1-0.191,1940,4,3
192,1,object_07,object_04,655.755,1,1,407.945,0.8888888888888888,1,object_06,1,2671,0,8,2,desert_30,2,memory-2step-stake-s,685,2706979,0.0-18.0-0.1-0.192,1940,1,2
193,1,object_07,object_04,700.29,2,2,532.605,0.1111111111111111,2,object_01,5,2676,0,8,1,desert_19,2,memory-2step-stake-s,686,2714844,0.0-18.0-0.1-0.193,1940,1,2
194,2,object_05,object_02,920.05,3,2,411.57,0.7777777777777778,1,object_06,5,2711,0,7,2,forest_10,2,memory-2step-stake-s,687,2723219,0.0-18.0-0.1-0.194,1940,4,3
195,2,object_02,object_05,655.73,3,1,435.31,1.0,1,object_06,5,2756,0,9,2,forest_2,2,memory-2step-stake-s,688,2731827,0.0-18.0-0.1-0.195,1940,3,4
196,4,object_10,object_09,900.335,7,2,319.03,1.0,1,object_06,5,2801,0,9,4,restaurant_20,2,memory-2step-stake-s,689,2740312,0.0-18.0-0.1-0.196,1940,8,7
197,3,object_08,object_03,831.635,5,1,381.875,0.8888888888888888,1,object_06,5,2841,0,8,2,library_26,2,memory-2step-stake-s,690,2748758,0.0-18.0-0.1-0.197,1940,5,6
198,4,object_09,object_10,880.355,7,1,483.67,0.8888888888888888,1,object_06,1,2849,0,8,2,restaurant_4,2,memory-2step-stake-s,691,2757307,0.0-18.0-0.1-0.198,1940,7,8
199,4,object_09,object_10,876.35,8,2,513.83,0.0,2,object_01,1,2849,0,8,0,restaurant_25,2,memory-2step-stake-s,692,2765050,0.0-18.0-0.1-0.199,1940,7,8
200,3,object_03,object_08,804.68,5,2,370.205,0.6666666666666666,1,object_06,1,2855,0,6,1,library_11,2,memory-2step-stake-s,693,2773274,0.0-18.0-0.1-0.200,1940,6,5
201,1,object_07,object_04,639.07,1,1,362.48,0.7777777777777778,1,object_06,5,2890,0,7,2,desert_14,2,memory-2step-stake-s,694,2781598,0.0-18.0-0.1-0.201,1940,1,2
202,1,object_07,object_04,701.37,1,1,258.965,0.6666666666666666,1,object_06,5,2920,0,6,3,desert_10,2,memory-2step-stake-s,695,2789712,0.0-18.0-0.1-0.202,1940,1,2
203,2,object_02,object_05,1216.175,3,1,454.33,1.0,1,object_06,5,2965,0,9,4,forest_5,2,memory-2step-stake-s,696,2798337,0.0-18.0-0.1-0.203,1940,3,4
204,4,object_10,object_09,714.13,7,2,445.7,0.7777777777777778,1,object_06,1,2972,0,7,2,restaurant_1,2,memory-2step-stake-s,697,2806741,0.0-18.0-0.1-0.204,1940,8,7
205,3,object_08,object_03,588.61,5,1,481.57,0.1111111111111111,1,object_06,1,2973,0,1,0,library_16,2,memory-2step-stake-s,698,2814559,0.0-18.0-0.1-0.205,1940,5,6
206,1,object_04,object_07,886.57,2,1,622.31,0.0,2,object_01,5,2973,0,0,0,desert_17,2,memory-2step-stake-s,699,2822412,0.0-18.0-0.1-0.206,1940,2,1
207,4,object_10,object_09,1119.81,8,1,506.475,0.2222222222222222,2,object_01,1,2975,0,1,2,restaurant_11,2,memory-2step-stake-s,700,2830358,0.0-18.0-0.1-0.207,1940,8,7
208,4,object_10,object_09,1113.47,8,1,408.04,0.2222222222222222,2,object_01,5,2985,0,3,2,restaurant_8,2,memory-2step-stake-s,701,2838206,0.0-18.0-0.1-0.208,1940,8,7
209,3,object_03,object_08,676.91,5,2,453.585,0.3333333333333333,1,object_06,1,2988,0,3,0,library_19,2,memory-2step-stake-s,702,2846203,0.0-18.0-0.1-0.209,1940,6,5
210,3,object_03,object_08,692.105,6,1,400.01,0.1111111111111111,2,object_01,1,2989,0,2,1,library_27,2,memory-2step-stake-s,703,2853941,0.0-18.0-0.1-0.210,1940,6,5
211,3,object_08,object_03,769.38,5,1,347.55,0.3333333333333333,1,object_06,5,3004,0,3,5,library_11,2,memory-2step-stake-s,704,2861835,0.0-18.0-0.1-0.211,1940,5,6
212,4,object_09,object_10,869.035,8,2,321.135,0.1111111111111111,2,object_01,1,3005,0,2,1,restaurant_7,2,memory-2step-stake-s,705,2869490,0.0-18.0-0.1-0.212,1940,7,8
213,4,object_09,object_10,833.47,8,2,389.075,0.0,2,object_01,1,3005,0,1,0,restaurant_25,2,memory-2step-stake-s,706,2877111,0.0-18.0-0.1-0.213,1940,7,8
214,1,object_07,object_04,856.345,1,1,413.53,0.2222222222222222,1,object_06,5,3015,0,2,1,desert_28,2,memory-2step-stake-s,707,2884964,0.0-18.0-0.1-0.214,1940,1,2
215,2,object_05,object_02,671.785,3,2,305.715,0.1111111111111111,1,object_06,5,3020,0,1,0,forest_5,2,memory-2step-stake-s,708,2892602,0.0-18.0-0.1-0.215,1940,4,3
216,1,object_04,object_07,641.06,2,1,385.05,0.1111111111111111,2,object_01,5,3025,0,0,1,desert_30,2,memory-2step-stake-s,709,2900322,0.0-18.0-0.1-0.216,1940,2,1
217,3,object_08,object_03,907.195,6,2,389.7,0.0,2,object_01,1,3025,0,2,0,library_32,2,memory-2step-stake-s,710,2907943,0.0-18.0-0.1-0.217,1940,5,6
218,3,object_03,object_08,581.9,5,2,441.165,0.1111111111111111,1,object_06,1,3026,0,1,1,library_27,2,memory-2step-stake-s,711,2915715,0.0-18.0-0.1-0.218,1940,6,5
219,3,object_03,object_08,917.32,5,2,460.905,0.3333333333333333,1,object_06,1,3029,0,3,2,library_32,2,memory-2step-stake-s,712,2923718,0.0-18.0-0.1-0.219,1940,6,5
220,4,object_09,object_10,1083.055,8,2,398.775,0.1111111111111111,2,object_01,1,3030,0,0,1,restaurant_32,2,memory-2step-stake-s,713,2931450,0.0-18.0-0.1-0.220,1940,7,8
221,2,object_05,object_02,832.865,4,1,461.635,0.1111111111111111,2,object_01,5,3035,0,2,1,forest_5,2,memory-2step-stake-s,714,2939245,0.0-18.0-0.1-0.221,1940,4,3
222,4,object_09,object_10,1151.83,7,1,539.21,0.5555555555555556,1,object_06,5,3060,0,5,1,restaurant_11,2,memory-2step-stake-s,715,2947539,0.0-18.0-0.1-0.222,1940,7,8
223,2,object_02,object_05,703.98,3,1,816.58,0.4444444444444444,1,object_06,5,3080,0,4,2,forest_32,2,memory-2step-stake-s,716,2956001,0.0-18.0-0.1-0.223,1940,3,4
224,4,object_09,object_10,1049.495,7,1,325.825,0.3333333333333333,1,object_06,1,3083,0,3,2,restaurant_4,2,memory-2step-stake-s,717,2963872,0.0-18.0-0.1-0.224,1940,7,8
225,4,object_10,object_09,781.725,8,1,407.145,0.0,2,object_01,1,3083,0,4,0,restaurant_7,2,memory-2step-stake-s,718,2971510,0.0-18.0-0.1-0.225,1940,8,7
226,4,object_10,object_09,859.405,7,2,399.695,0.5555555555555556,1,object_06,1,3088,0,5,6,restaurant_28,2,memory-2step-stake-s,719,2979665,0.0-18.0-0.1-0.226,1940,8,7
227,4,object_10,object_09,1076.12,7,2,360.17,0.7777777777777778,1,object_06,1,3095,0,7,6,restaurant_21,2,memory-2step-stake-s,720,2987982,0.0-18.0-0.1-0.227,1940,8,7
228,1,object_04,object_07,1123.52,1,2,520.99,1.0,1,object_06,5,3140,0,9,8,desert_20,2,memory-2step-stake-s,721,2996671,0.0-18.0-0.1-0.228,1940,2,1
229,1,object_04,object_07,894.92,1,2,470.135,0.5555555555555556,1,object_06,5,3165,0,5,8,desert_20,2,memory-2step-stake-s,722,3004890,0.0-18.0-0.1-0.229,1940,2,1
230,3,object_03,object_08,734.075,5,2,487.68,0.5555555555555556,1,object_06,1,3170,0,5,7,library_7,2,memory-2step-stake-s,723,3013126,0.0-18.0-0.1-0.230,1940,6,5
231,4,object_10,object_09,1199.235,7,2,481.645,0.6666666666666666,1,object_06,1,3176,0,6,5,restaurant_7,2,memory-2step-stake-s,724,3021467,0.0-18.0-0.1-0.231,1940,8,7
232,2,object_02,object_05,1022.285,3,1,358.02,0.5555555555555556,1,object_06,1,3181,0,5,8,forest_32,2,memory-2step-stake-s,725,3029567,0.0-18.0-0.1-0.232,1940,3,4
233,4,object_10,object_09,1065.815,7,2,444.04,0.6666666666666666,1,object_06,1,3187,0,6,7,restaurant_8,2,memory-2step-stake-s,726,3037869,0.0-18.0-0.1-0.233,1940,8,7
234,1,object_07,object_04,790.22,1,1,347.6,0.8888888888888888,1,object_06,5,3227,0,8,6,desert_31,2,memory-2step-stake-s,727,3046279,0.0-18.0-0.1-0.234,1940,1,2
235,3,object_08,object_03,694.85,5,1,-1.0,0.0,1,object_06,1,3227,0,7,5,library_8,2,memory-2step-stake-s,728,3054812,0.0-18.0-0.1-0.235,1940,5,6
236,3,object_03,object_08,645.31,5,2,510.015,0.8888888888888888,1,object_06,1,3235,0,8,5,library_15,2,memory-2step-stake-s,729,3063390,0.0-18.0-0.1-0.236,1940,6,5
237,1,object_04,object_07,724.1,1,2,530.57,0.7777777777777778,1,object_06,5,3270,0,7,2,desert_20,2,memory-2step-stake-s,730,3071882,0.0-18.0-0.1-0.237,1940,2,1
238,1,object_07,object_04,550.46,1,1,355.365,0.8888888888888888,1,object_06,1,3278,0,8,2,desert_27,2,memory-2step-stake-s,731,3080298,0.0-18.0-0.1-0.238,1940,1,2
239,2,object_05,object_02,682.32,3,2,344.555,0.3333333333333333,1,object_06,1,3281,0,3,3,forest_20,2,memory-2step-stake-s,732,3088185,0.0-18.0-0.1-0.239,1940,4,3
240,2,object_02,object_05,747.275,4,2,383.62,0.5555555555555556,2,object_01,1,3286,0,5,5,forest_29,2,memory-2step-stake-s,733,3096323,0.0-18.0-0.1-0.240,1940,3,4
241,1,object_04,object_07,622.235,2,1,296.245,0.2222222222222222,2,object_01,5,3296,0,3,2,desert_1,2,memory-2step-stake-s,734,3104059,0.0-18.0-0.1-0.241,1940,2,1
242,1,object_07,object_04,804.725,2,2,284.425,0.1111111111111111,2,object_01,1,3297,0,2,1,desert_27,2,memory-2step-stake-s,735,3111675,0.0-18.0-0.1-0.242,1940,1,2
243,4,object_09,object_10,1026.075,7,1,331.81,0.0,1,object_06,1,3297,0,0,2,restaurant_28,2,memory-2step-stake-s,736,3119238,0.0-18.0-0.1-0.243,1940,7,8
244,3,object_03,object_08,1161.655,6,1,384.47,0.1111111111111111,2,object_01,1,3298,0,4,1,library_27,2,memory-2step-stake-s,737,3126958,0.0-18.0-0.1-0.244,1940,6,5
245,2,object_05,object_02,687.73,3,2,365.33,0.3333333333333333,1,object_06,5,3313,0,3,2,forest_2,2,memory-2step-stake-s,738,3134856,0.0-18.0-0.1-0.245,1940,4,3
246,2,object_05,object_02,584.46,3,2,345.665,0.1111111111111111,1,object_06,5,3318,0,1,0,forest_19,2,memory-2step-stake-s,739,3142536,0.0-18.0-0.1-0.246,1940,4,3
247,1,object_07,object_04,508.925,1,1,460.875,0.1111111111111111,1,object_06,5,3323,0,1,0,desert_30,2,memory-2step-stake-s,740,3150331,0.0-18.0-0.1-0.247,1940,1,2
248,4,object_09,object_10,844.345,8,2,495.15,0.1111111111111111,2,object_01,1,3324,0,0,1,restaurant_23,2,memory-2step-stake-s,741,3158161,0.0-18.0-0.1-0.248,1940,7,8
249,2,object_05,object_02,769.735,3,2,443.53,0.3333333333333333,1,object_06,5,3339,0,3,1,forest_17,2,memory-2step-stake-s,742,3166147,0.0-18.0-0.1-0.249,1940,4,3
250,3,object_03,object_08,1461.005,6,1,598.795,0.3333333333333333,2,object_01,1,3342,0,0,3,library_23,2,memory-2step-stake-s,743,3174285,0.0-18.0-0.1-0.250,1940,6,5
251,2,object_02,object_05,760.74,4,2,351.905,0.1111111111111111,2,object_01,5,3347,0,1,1,forest_17,2,memory-2step-stake-s,744,3181970,0.0-18.0-0.1-0.251,1940,3,4
252,3,object_03,object_08,882.24,6,1,384.225,0.3333333333333333,2,object_01,1,3350,0,3,3,library_13,2,memory-2step-stake-s,745,3189898,0.0-18.0-0.1-0.252,1940,6,5
253,3,object_08,object_03,914.44,6,2,385.98,0.2222222222222222,2,object_01,1,3352,0,3,2,library_16,2,memory-2step-stake-s,746,3197722,0.0-18.0-0.1-0.253,1940,5,6
254,1,object_04,object_07,787.435,2,1,430.92,0.1111111111111111,2,object_01,5,3357,0,3,1,desert_13,2,memory-2step-stake-s,747,3205487,0.0-18.0-0.1-0.254,1940,2,1
255,4,object_09,object_10,902.425,7,1,383.82,0.2222222222222222,1,object_06,5,3367,0,2,2,restaurant_18,2,memory-2step-stake-s,748,3213312,0.0-18.0-0.1-0.255,1940,7,8
