,state1,stim_left,stim_right,rt_1,choice1,response1,rt_2,points,state2,stim_state2,stake,score,practice,rews1,rews2,background,high_arm,trial_type,trial_index,time_elapsed,internal_node_id,subid,stim_left_num,stim_right_num
0,3,object_07,object_09,753.605,5,2,468.605,0.5555555555555556,1,object_03,1,5,0,5,3,library_11,2,memory-2step-stake-s,499,1011118,0.0-18.0-0.0-0.0,4376,6,5
1,1,object_10,object_08,1094.42,2,1,881.3750001,0.2222222222222222,2,object_02,5,15,0,1,2,desert_21,2,memory-2step-stake-s,500,1019458,0.0-18.0-0.0-0.1,4376,2,1
2,1,object_10,object_08,756.06,1,2,742.855,0.2222222222222222,1,object_03,5,25,0,2,1,desert_22,2,memory-2step-stake-s,501,1027657,0.0-18.0-0.0-0.2,4376,2,1
3,4,object_01,object_05,973.21,8,2,666.29,0.1111111111111111,2,object_02,5,30,0,0,1,restaurant_26,2,memory-2step-stake-s,502,1035669,0.0-18.0-0.0-0.3,4376,7,8
4,2,object_04,object_06,697.085,4,2,645.06,0.1111111111111111,2,object_02,5,35,0,0,1,forest_26,2,memory-2step-stake-s,503,1043658,0.0-18.0-0.0-0.4,4376,3,4
5,3,object_09,object_07,992.01,5,1,411.225,0.2222222222222222,1,object_03,1,37,0,2,3,library_3,2,memory-2step-stake-s,504,1051520,0.0-18.0-0.0-0.5,4376,5,6
6,2,object_06,object_04,959.985,3,2,299.375,0.1111111111111111,1,object_03,1,38,0,1,2,forest_2,2,memory-2step-stake-s,505,1059149,0.0-18.0-0.0-0.6,4376,4,3
7,2,object_06,object_04,720.35,4,1,361.865,0.3333333333333333,2,object_02,5,53,0,1,3,forest_6,2,memory-2step-stake-s,506,1067071,0.0-18.0-0.0-0.7,4376,4,3
8,3,object_09,object_07,883.93,6,2,424.61,0.3333333333333333,2,object_02,1,56,0,6,3,library_6,2,memory-2step-stake-s,507,1075049,0.0-18.0-0.0-0.8,4376,5,6
9,3,object_07,object_09,920.345,6,1,406.185,0.1111111111111111,2,object_02,1,57,0,8,1,library_1,2,memory-2step-stake-s,508,1082797,0.0-18.0-0.0-0.9,4376,6,5
10,4,object_01,object_05,829.6,8,2,440.595,0.3333333333333333,2,object_02,1,60,0,7,3,restaurant_28,2,memory-2step-stake-s,509,1090795,0.0-18.0-0.0-0.10,4376,7,8
11,4,object_05,object_01,895.435,7,2,354.11,0.7777777777777778,1,object_03,1,67,0,7,4,restaurant_6,2,memory-2step-stake-s,510,1099114,0.0-18.0-0.0-0.11,4376,8,7
12,1,object_10,object_08,1083.955,1,2,557.49,0.7777777777777778,1,object_03,1,74,0,7,4,desert_5,2,memory-2step-stake-s,511,1107652,0.0-18.0-0.0-0.12,4376,2,1
13,1,object_08,object_10,658.59,1,1,359.73,0.5555555555555556,1,object_03,5,99,0,5,1,desert_26,2,memory-2step-stake-s,512,1115784,0.0-18.0-0.0-0.13,4376,1,2
14,2,object_06,object_04,781.93,4,1,294.425,0.2222222222222222,2,object_02,5,109,0,1,2,forest_14,2,memory-2step-stake-s,513,1123516,0.0-18.0-0.0-0.14,4376,4,3
15,1,object_08,object_10,714.64,1,1,324.205,0.5555555555555556,1,object_03,5,134,0,5,2,desert_25,2,memory-2step-stake-s,514,1131606,0.0-18.0-0.0-0.15,4376,1,2
16,2,object_06,object_04,547.97,3,2,340.96,0.5555555555555556,1,object_03,5,159,0,5,2,forest_26,2,memory-2step-stake-s,515,1139718,0.0-18.0-0.0-0.16,4376,4,3
17,3,object_09,object_07,855.36,6,2,335.49,0.1111111111111111,2,object_02,1,160,0,8,1,library_24,2,memory-2step-stake-s,516,1147398,0.0-18.0-0.0-0.17,4376,5,6
18,4,object_01,object_05,1001.275,7,1,394.46,0.5555555555555556,1,object_03,1,165,0,5,0,restaurant_17,2,memory-2step-stake-s,517,1155568,0.0-18.0-0.0-0.18,4376,7,8
19,4,object_05,object_01,723.22,7,2,440.085,0.3333333333333333,1,object_03,5,180,0,3,1,restaurant_23,2,memory-2step-stake-s,518,1163572,0.0-18.0-0.0-0.19,4376,8,7
20,2,object_04,object_06,757.155,3,1,492.24,0.5555555555555556,1,object_03,5,205,0,5,1,forest_10,2,memory-2step-stake-s,519,1171823,0.0-18.0-0.0-0.20,4376,3,4
21,1,object_10,object_08,694.355,1,2,392.225,0.4444444444444444,1,object_03,5,225,0,4,0,desert_4,2,memory-2step-stake-s,520,1179860,0.0-18.0-0.0-0.21,4376,2,1
22,3,object_09,object_07,868.63,5,1,349.525,0.4444444444444444,1,object_03,1,229,0,4,3,library_4,2,memory-2step-stake-s,521,1187865,0.0-18.0-0.0-0.22,4376,5,6
23,2,object_04,object_06,813.535,4,2,358.44,0.3333333333333333,2,object_02,5,244,0,1,3,forest_28,2,memory-2step-stake-s,522,1195770,0.0-18.0-0.0-0.23,4376,3,4
24,2,object_06,object_04,570.89,4,1,538.445,0.3333333333333333,2,object_02,5,259,0,4,3,forest_12,2,memory-2step-stake-s,523,1203849,0.0-18.0-0.0-0.24,4376,4,3
25,3,object_07,object_09,470.78,5,2,390.105,0.6666666666666666,1,object_03,1,265,0,6,3,library_30,2,memory-2step-stake-s,524,1212109,0.0-18.0-0.0-0.25,4376,6,5
26,2,object_06,object_04,1066.61,3,2,354.655,0.2222222222222222,1,object_03,5,275,0,2,3,forest_29,2,memory-2step-stake-s,525,1219909,0.0-18.0-0.0-0.26,4376,4,3
27,3,object_09,object_07,729.28,5,1,360.825,0.4444444444444444,1,object_03,1,279,0,4,2,library_18,2,memory-2step-stake-s,526,1227935,0.0-18.0-0.0-0.27,4376,5,6
28,4,object_01,object_05,844.445,8,2,390.935,0.7777777777777778,2,object_02,1,286,0,4,7,restaurant_6,2,memory-2step-stake-s,527,1236289,0.0-18.0-0.0-0.28,4376,7,8
29,1,object_08,object_10,667.145,1,1,589.815,0.8888888888888888,1,object_03,1,294,0,8,8,desert_26,2,memory-2step-stake-s,528,1244961,0.0-18.0-0.0-0.29,4376,1,2
30,3,object_07,object_09,610.93,5,2,452.665,0.8888888888888888,1,object_03,1,302,0,8,9,library_24,2,memory-2step-stake-s,529,1253499,0.0-18.0-0.0-0.30,4376,6,5
31,3,object_09,object_07,928.135,5,1,1111.215,0.8888888888888888,1,object_03,1,310,0,8,6,library_16,2,memory-2step-stake-s,530,1262689,0.0-18.0-0.0-0.31,4376,5,6
32,4,object_05,object_01,673.795,8,1,375.33,0.8888888888888888,2,object_02,1,318,0,4,8,restaurant_22,2,memory-2step-stake-s,531,1271137,0.0-18.0-0.0-0.32,4376,8,7
33,1,object_08,object_10,617.63,1,1,312.175,0.2222222222222222,1,object_03,1,320,0,2,9,desert_10,2,memory-2step-stake-s,532,1278890,0.0-18.0-0.0-0.33,4376,1,2
34,3,object_07,object_09,947.835,5,2,341.36,0.3333333333333333,1,object_03,1,323,0,3,8,library_13,2,memory-2step-stake-s,533,1286783,0.0-18.0-0.0-0.34,4376,6,5
35,4,object_01,object_05,730.99,7,1,318.9,0.1111111111111111,1,object_03,1,324,0,1,5,restaurant_11,2,memory-2step-stake-s,534,1294435,0.0-18.0-0.0-0.35,4376,7,8
36,1,object_10,object_08,773.1249999,2,1,317.83,0.7777777777777778,2,object_02,5,359,0,2,7,desert_22,2,memory-2step-stake-s,535,1302734,0.0-18.0-0.0-0.36,4376,2,1
37,2,object_06,object_04,862.91,3,2,460.865,0.3333333333333333,1,object_03,5,374,0,3,6,forest_27,2,memory-2step-stake-s,536,1310751,0.0-18.0-0.0-0.37,4376,4,3
38,4,object_01,object_05,682.105,7,1,436.49000010000003,0.1111111111111111,1,object_03,1,375,0,1,5,restaurant_13,2,memory-2step-stake-s,537,1318532,0.0-18.0-0.0-0.38,4376,7,8
39,4,object_05,object_01,553.97,7,2,450.365,0.0,1,object_03,1,375,0,0,6,restaurant_28,2,memory-2step-stake-s,538,1326217,0.0-18.0-0.0-0.39,4376,8,7
40,2,object_06,object_04,774.2700001000001,4,1,325.4,0.7777777777777778,2,object_02,1,382,0,1,7,forest_1,2,memory-2step-stake-s,539,1334506,0.0-18.0-0.0-0.40,4376,4,3
41,2,object_04,object_06,1100.705,4,2,401.395,0.6666666666666666,2,object_02,5,412,0,2,6,forest_22,2,memory-2step-stake-s,540,1342795,0.0-18.0-0.0-0.41,4376,3,4
42,4,object_05,object_01,1145.19,7,2,322.48,0.0,1,object_03,1,412,0,0,8,restaurant_6,2,memory-2step-stake-s,541,1350346,0.0-18.0-0.0-0.42,4376,8,7
43,1,object_08,object_10,1009.535,2,2,766.125,1.0,2,object_02,5,457,0,3,9,desert_21,2,memory-2step-stake-s,542,1359302,0.0-18.0-0.0-0.43,4376,1,2
44,2,object_06,object_04,1335.845,4,1,340.435,0.7777777777777778,2,object_02,1,464,0,3,7,forest_1,2,memory-2step-stake-s,543,1367608,0.0-18.0-0.0-0.44,4376,4,3
45,3,object_07,object_09,986.315,6,1,403.76,0.6666666666666666,2,object_02,1,470,0,4,6,library_2,2,memory-2step-stake-s,544,1375867,0.0-18.0-0.0-0.45,4376,6,5
46,2,object_04,object_06,1089.33,4,2,359.005,0.7777777777777778,2,object_02,5,505,0,5,7,forest_7,2,memory-2step-stake-s,545,1384165,0.0-18.0-0.0-0.46,4376,3,4
47,4,object_05,object_01,1147.11,7,2,389.135,0.6666666666666666,1,object_03,1,511,0,6,5,restaurant_28,2,memory-2step-stake-s,546,1392422,0.0-18.0-0.0-0.47,4376,8,7
48,4,object_01,object_05,631.385,7,1,441.425,1.0,1,object_03,1,520,0,9,3,restaurant_22,2,memory-2step-stake-s,547,1401046,0.0-18.0-0.0-0.48,4376,7,8
49,1,object_08,object_10,615.27,1,1,328.395,1.0,1,object_03,1,529,0,9,2,desert_1,2,memory-2step-stake-s,548,1409550,0.0-18.0-0.0-0.49,4376,1,2
50,3,object_09,object_07,658.335,6,2,339.53,0.3333333333333333,2,object_02,5,544,0,8,3,library_24,2,memory-2step-stake-s,549,1417440,0.0-18.0-0.0-0.50,4376,5,6
51,2,object_06,object_04,660.415,4,1,513.45,0.8888888888888888,2,object_02,5,584,0,6,8,forest_8,2,memory-2step-stake-s,550,1426004,0.0-18.0-0.0-0.51,4376,4,3
52,1,object_10,object_08,707.335,2,1,309.65,0.7777777777777778,2,object_02,5,619,0,7,7,desert_8,2,memory-2step-stake-s,551,1434275,0.0-18.0-0.0-0.52,4376,2,1
53,2,object_04,object_06,1007.17,4,2,342.645,0.7777777777777778,2,object_02,5,654,0,9,7,forest_26,2,memory-2step-stake-s,552,1442602,0.0-18.0-0.0-0.53,4376,3,4
54,3,object_07,object_09,920.1,6,1,363.1599999,0.7777777777777778,2,object_02,1,661,0,8,7,library_30,2,memory-2step-stake-s,553,1450934,0.0-18.0-0.0-0.54,4376,6,5
55,1,object_10,object_08,884.805,2,1,339.405,0.8888888888888888,2,object_02,1,669,0,8,8,desert_28,2,memory-2step-stake-s,554,1459351,0.0-18.0-0.0-0.55,4376,2,1
56,4,object_01,object_05,684.14,7,1,317.84,1.0,1,object_03,1,678,0,9,8,restaurant_20,2,memory-2step-stake-s,555,1467860,0.0-18.0-0.0-0.56,4376,7,8
57,4,object_01,object_05,1080.525,7,1,358.585,0.8888888888888888,1,object_03,5,718,0,8,7,restaurant_16,2,memory-2step-stake-s,556,1476292,0.0-18.0-0.0-0.57,4376,7,8
58,2,object_04,object_06,858.125,3,1,299.49,0.8888888888888888,1,object_03,5,758,0,8,7,forest_28,2,memory-2step-stake-s,557,1484653,0.0-18.0-0.0-0.58,4376,3,4
59,2,object_06,object_04,1220.475,3,2,330.415,0.8888888888888888,1,object_03,5,798,0,8,7,forest_14,2,memory-2step-stake-s,558,1493045,0.0-18.0-0.0-0.59,4376,4,3
60,2,object_06,object_04,707.65,3,2,330.57,0.8888888888888888,1,object_03,5,838,0,8,8,forest_2,2,memory-2step-stake-s,559,1501450,0.0-18.0-0.0-0.60,4376,4,3
61,4,object_05,object_01,1029.29,7,2,332.34,0.6666666666666666,1,object_03,5,868,0,6,9,restaurant_24,2,memory-2step-stake-s,560,1509639,0.0-18.0-0.0-0.61,4376,8,7
62,3,object_07,object_09,863.3,6,1,358.215,0.8888888888888888,2,object_02,1,876,0,8,8,library_7,2,memory-2step-stake-s,561,1518059,0.0-18.0-0.0-0.62,4376,6,5
63,4,object_01,object_05,968.98,8,2,395.775,0.6666666666666666,2,object_02,5,906,0,9,6,restaurant_20,2,memory-2step-stake-s,562,1526326,0.0-18.0-0.0-0.63,4376,7,8
64,4,object_01,object_05,644.76,7,1,424.395,1.0,1,object_03,1,915,0,9,4,restaurant_11,2,memory-2step-stake-s,563,1534951,0.0-18.0-0.0-0.64,4376,7,8
65,2,object_06,object_04,712.01,4,1,295.075,0.5555555555555556,2,object_02,5,940,0,5,5,forest_6,2,memory-2step-stake-s,564,1542995,0.0-18.0-0.0-0.65,4376,4,3
66,3,object_09,object_07,693.125,6,2,814.73,0.1111111111111111,2,object_02,1,941,0,8,1,library_6,2,memory-2step-stake-s,565,1551150,0.0-18.0-0.0-0.66,4376,5,6
67,1,object_08,object_10,975.14,1,1,280.345,0.8888888888888888,1,object_03,5,981,0,8,2,desert_11,2,memory-2step-stake-s,566,1559495,0.0-18.0-0.0-0.67,4376,1,2
68,1,object_10,object_08,717.71,1,2,312.885,0.8888888888888888,1,object_03,1,989,0,8,5,desert_5,2,memory-2step-stake-s,567,1567858,0.0-18.0-0.0-0.68,4376,2,1
69,1,object_10,object_08,647.315,1,2,393.12,0.7777777777777778,1,object_03,1,996,0,7,6,desert_10,2,memory-2step-stake-s,568,1576227,0.0-18.0-0.0-0.69,4376,2,1
70,2,object_06,object_04,947.945,3,2,338.38,0.3333333333333333,1,object_03,5,1011,0,3,5,forest_1,2,memory-2step-stake-s,569,1584115,0.0-18.0-0.0-0.70,4376,4,3
71,3,object_07,object_09,632.205,6,1,366.87,0.1111111111111111,2,object_02,1,1012,0,5,1,library_3,2,memory-2step-stake-s,570,1591825,0.0-18.0-0.0-0.71,4376,6,5
72,3,object_09,object_07,927.645,5,1,341.935,0.3333333333333333,1,object_03,1,1015,0,3,1,library_10,2,memory-2step-stake-s,571,1599717,0.0-18.0-0.0-0.72,4376,5,6
73,2,object_04,object_06,599.025,3,1,325.03,0.3333333333333333,1,object_03,5,1030,0,3,5,forest_15,2,memory-2step-stake-s,572,1607600,0.0-18.0-0.0-0.73,4376,3,4
74,1,object_10,object_08,902.695,1,2,480.79,0.2222222222222222,1,object_03,5,1040,0,2,6,desert_28,2,memory-2step-stake-s,573,1615532,0.0-18.0-0.0-0.74,4376,2,1
75,4,object_05,object_01,638.015,8,1,337.735,0.7777777777777778,2,object_02,1,1047,0,3,7,restaurant_24,2,memory-2step-stake-s,574,1623830,0.0-18.0-0.0-0.75,4376,8,7
76,4,object_05,object_01,839.61,8,1,287.105,0.6666666666666666,2,object_02,1,1053,0,5,6,restaurant_7,2,memory-2step-stake-s,575,1631972,0.0-18.0-0.0-0.76,4376,8,7
77,1,object_08,object_10,570.535,2,2,307.735,0.3333333333333333,2,object_02,1,1056,0,4,3,desert_4,2,memory-2step-stake-s,576,1639844,0.0-18.0-0.0-0.77,4376,1,2
78,1,object_10,object_08,706.56,1,2,363.235,0.4444444444444444,1,object_03,1,1060,0,4,1,desert_12,2,memory-2step-stake-s,577,1647866,0.0-18.0-0.0-0.78,4376,2,1
79,1,object_08,object_10,721.815,1,1,328.55,0.7777777777777778,1,object_03,5,1095,0,7,4,desert_11,2,memory-2step-stake-s,578,1656166,0.0-18.0-0.0-0.79,4376,1,2
80,2,object_06,object_04,453.195,3,2,344.53,0.4444444444444444,1,object_03,5,1115,0,4,4,forest_2,2,memory-2step-stake-s,579,1664164,0.0-18.0-0.0-0.80,4376,4,3
81,4,object_01,object_05,730.69,8,2,727.4,0.4444444444444444,2,object_02,5,1135,0,4,4,restaurant_3,2,memory-2step-stake-s,580,1672558,0.0-18.0-0.0-0.81,4376,7,8
82,3,object_07,object_09,1003.285,5,2,398.805,0.1111111111111111,1,object_03,1,1136,0,1,7,library_18,2,memory-2step-stake-s,581,1680290,0.0-18.0-0.0-0.82,4376,6,5
83,2,object_04,object_06,936.515,4,2,276.48,0.7777777777777778,2,object_02,5,1171,0,4,7,forest_25,2,memory-2step-stake-s,582,1688537,0.0-18.0-0.0-0.83,4376,3,4
84,4,object_01,object_05,676.1,7,1,306.81,0.4444444444444444,1,object_03,1,1175,0,4,5,restaurant_14,2,memory-2step-stake-s,583,1696509,0.0-18.0-0.0-0.84,4376,7,8
85,2,object_04,object_06,1033.34,3,1,330.07,0.3333333333333333,1,object_03,5,1190,0,3,3,forest_25,2,memory-2step-stake-s,584,1704398,0.0-18.0-0.0-0.85,4376,3,4
86,2,object_04,object_06,818.485,4,2,367.445,0.0,2,object_02,5,1190,0,2,0,forest_8,2,memory-2step-stake-s,585,1712002,0.0-18.0-0.0-0.86,4376,3,4
87,3,object_07,object_09,1263.545,6,1,407.345,0.7777777777777778,2,object_02,1,1197,0,2,7,library_4,2,memory-2step-stake-s,586,1720364,0.0-18.0-0.0-0.87,4376,6,5
88,4,object_05,object_01,1444.63,7,2,436.79,0.4444444444444444,1,object_03,5,1217,0,4,9,restaurant_19,2,memory-2step-stake-s,587,1728459,0.0-18.0-0.0-0.88,4376,8,7
89,3,object_09,object_07,990.84,6,2,361.77,0.8888888888888888,2,object_02,1,1225,0,6,8,library_4,2,memory-2step-stake-s,588,1736906,0.0-18.0-0.0-0.89,4376,5,6
90,2,object_06,object_04,1103.595,3,2,370.07,0.7777777777777778,1,object_03,5,1260,0,7,6,forest_27,2,memory-2step-stake-s,589,1745259,0.0-18.0-0.0-0.90,4376,4,3
91,2,object_04,object_06,934.2,3,1,317.455,0.7777777777777778,1,object_03,5,1295,0,7,2,forest_8,2,memory-2step-stake-s,590,1753556,0.0-18.0-0.0-0.91,4376,3,4
92,4,object_01,object_05,756.675,7,1,306.79,0.5555555555555556,1,object_03,1,1300,0,5,4,restaurant_23,2,memory-2step-stake-s,591,1761608,0.0-18.0-0.0-0.92,4376,7,8
93,1,object_10,object_08,764.235,2,1,319.625,0.2222222222222222,2,object_02,1,1302,0,8,2,desert_22,2,memory-2step-stake-s,592,1769364,0.0-18.0-0.0-0.93,4376,2,1
94,3,object_07,object_09,1038.325,5,2,355.95,0.7777777777777778,1,object_03,1,1309,0,7,4,library_10,2,memory-2step-stake-s,593,1777703,0.0-18.0-0.0-0.94,4376,6,5
95,4,object_01,object_05,838.455,8,2,363.245,0.2222222222222222,2,object_02,1,1311,0,5,2,restaurant_4,2,memory-2step-stake-s,594,1785505,0.0-18.0-0.0-0.95,4376,7,8
96,1,object_10,object_08,557.19,1,2,532.15,0.5555555555555556,1,object_03,5,1336,0,5,2,desert_29,2,memory-2step-stake-s,595,1793800,0.0-18.0-0.0-0.96,4376,2,1
97,1,object_10,object_08,638.075,1,2,384.33,0.5555555555555556,1,object_03,5,1361,0,5,4,desert_8,2,memory-2step-stake-s,596,1801943,0.0-18.0-0.0-0.97,4376,2,1
98,4,object_01,object_05,646.39,7,1,1077.07,0.6666666666666666,1,object_03,1,1367,0,6,2,restaurant_22,2,memory-2step-stake-s,597,1810887,0.0-18.0-0.0-0.98,4376,7,8
99,3,object_09,object_07,720.195,6,2,346.835,0.3333333333333333,2,object_02,1,1370,0,8,3,library_10,2,memory-2step-stake-s,598,1818790,0.0-18.0-0.0-0.99,4376,5,6
100,4,object_05,object_01,863.355,7,2,524.55,1.0,1,object_03,1,1379,0,9,3,restaurant_28,2,memory-2step-stake-s,599,1827472,0.0-18.0-0.0-0.100,4376,8,7
101,3,object_09,object_07,863.955,5,1,316.695,0.7777777777777778,1,object_03,1,1386,0,7,3,library_24,2,memory-2step-stake-s,600,1835729,0.0-18.0-0.0-0.101,4376,5,6
102,3,object_09,object_07,877.44,5,1,338.41,0.7777777777777778,1,object_03,1,1393,0,7,5,library_8,2,memory-2step-stake-s,601,1844016,0.0-18.0-0.0-0.102,4376,5,6
103,4,object_01,object_05,931.045,7,1,524.93,0.8888888888888888,1,object_03,1,1401,0,8,5,restaurant_22,2,memory-2step-stake-s,602,1852631,0.0-18.0-0.0-0.103,4376,7,8
104,4,object_01,object_05,729.905,7,1,369.455,0.8888888888888888,1,object_03,1,1409,0,8,7,restaurant_14,2,memory-2step-stake-s,603,1861083,0.0-18.0-0.0-0.104,4376,7,8
105,4,object_05,object_01,770.68,7,2,1230.625,1.0,1,object_03,1,1418,0,9,8,restaurant_3,2,memory-2step-stake-s,604,1870511,0.0-18.0-0.0-0.105,4376,8,7
106,4,object_01,object_05,573.735,7,1,349.765,0.7777777777777778,1,object_03,5,1453,0,7,4,restaurant_23,2,memory-2step-stake-s,605,1878847,0.0-18.0-0.0-0.106,4376,7,8
107,3,object_09,object_07,1114.89,5,1,364.98,0.7777777777777778,1,object_03,1,1460,0,7,1,library_11,2,memory-2step-stake-s,606,1887188,0.0-18.0-0.0-0.107,4376,5,6
108,2,object_06,object_04,862.4,3,2,292.095,1.0,1,object_03,5,1505,0,9,1,forest_15,2,memory-2step-stake-s,607,1895656,0.0-18.0-0.0-0.108,4376,4,3
109,1,object_10,object_08,784.85,1,2,316.7,1.0,1,object_03,5,1550,0,9,1,desert_18,2,memory-2step-stake-s,608,1904130,0.0-18.0-0.0-0.109,4376,2,1
110,3,object_07,object_09,983.38,5,2,376.71,0.8888888888888888,1,object_03,1,1558,0,8,4,library_31,2,memory-2step-stake-s,609,1912575,0.0-18.0-0.0-0.110,4376,6,5
111,1,object_08,object_10,629.38,1,1,323.06,0.8888888888888888,1,object_03,1,1566,0,8,6,desert_5,2,memory-2step-stake-s,610,1920986,0.0-18.0-0.0-0.111,4376,1,2
112,2,object_04,object_06,860.865,3,1,348.955,1.0,1,object_03,1,1575,0,9,3,forest_26,2,memory-2step-stake-s,611,1929512,0.0-18.0-0.0-0.112,4376,3,4
113,4,object_05,object_01,760.7,7,2,328.61,1.0,1,object_03,1,1584,0,9,1,restaurant_26,2,memory-2step-stake-s,612,1938039,0.0-18.0-0.0-0.113,4376,8,7
114,3,object_07,object_09,-1.0,-1,-1,-1.0,0.0,-,,1,1584,0,8,3,library_25,2,memory-2step-stake-s,613,1944576,0.0-18.0-0.0-0.114,4376,6,5
115,2,object_04,object_06,770.2,3,1,446.125,0.6666666666666666,1,object_03,5,1614,0,6,2,forest_10,2,memory-2step-stake-s,614,1952905,0.0-18.0-0.0-0.115,4376,3,4
116,4,object_01,object_05,689.515,8,2,325.045,0.2222222222222222,2,object_02,1,1616,0,8,2,restaurant_20,2,memory-2step-stake-s,615,1960683,0.0-18.0-0.0-0.116,4376,7,8
117,3,object_07,object_09,792.185,6,1,364.165,0.5555555555555556,2,object_02,1,1621,0,6,5,library_2,2,memory-2step-stake-s,616,1968800,0.0-18.0-0.0-0.117,4376,6,5
118,2,object_06,object_04,789.145,3,2,301.89,0.5555555555555556,1,object_03,5,1646,0,5,6,forest_12,2,memory-2step-stake-s,617,1976860,0.0-18.0-0.0-0.118,4376,4,3
119,2,object_06,object_04,826.23,3,2,520.76,0.7777777777777778,1,object_03,5,1681,0,7,4,forest_7,2,memory-2step-stake-s,618,1985342,0.0-18.0-0.0-0.119,4376,4,3
120,3,object_09,object_07,770.195,5,1,321.675,0.8888888888888888,1,object_03,1,1689,0,8,7,library_1,2,memory-2step-stake-s,619,1993743,0.0-18.0-0.0-0.120,4376,5,6
121,1,object_10,object_08,588.405,1,2,288.99,0.8888888888888888,1,object_03,5,1729,0,8,8,desert_1,2,memory-2step-stake-s,620,2002118,0.0-18.0-0.0-0.121,4376,2,1
122,3,object_07,object_09,638.14,5,2,381.15,0.7777777777777778,1,object_03,5,1764,0,7,9,library_31,2,memory-2step-stake-s,621,2010461,0.0-18.0-0.0-0.122,4376,6,5
123,2,object_06,object_04,687.78,3,2,481.7600001,0.5555555555555556,1,object_03,5,1789,0,5,7,forest_8,2,memory-2step-stake-s,622,2018682,0.0-18.0-0.0-0.123,4376,4,3
124,4,object_01,object_05,1038.985,7,1,346.835,0.2222222222222222,1,object_03,5,1799,0,2,9,restaurant_17,2,memory-2step-stake-s,623,2026489,0.0-18.0-0.0-0.124,4376,7,8
125,1,object_10,object_08,695.115,2,1,463.78,0.4444444444444444,2,object_02,5,1819,0,1,4,desert_23,2,memory-2step-stake-s,624,2034610,0.0-18.0-0.0-0.125,4376,2,1
126,3,object_09,object_07,820.81,5,1,338.8,0.2222222222222222,1,object_03,1,1821,0,2,5,library_11,2,memory-2step-stake-s,625,2042403,0.0-18.0-0.0-0.126,4376,5,6
127,4,object_01,object_05,837.06,8,2,261.27,0.6666666666666666,2,object_02,1,1827,0,3,6,restaurant_14,2,memory-2step-stake-s,626,2050545,0.0-18.0-0.0-0.127,4376,7,8
128,1,object_10,object_08,490.06,1,2,290.985,0.4444444444444444,1,object_03,5,1847,0,4,8,desert_28,2,memory-2step-stake-s,628,2134105,0.0-18.0-0.1-0.128,4376,2,1
129,2,object_06,object_04,848.57,3,2,537.025,0.4444444444444444,1,object_03,5,1867,0,4,9,forest_27,2,memory-2step-stake-s,629,2142295,0.0-18.0-0.1-0.129,4376,4,3
130,4,object_05,object_01,539.7,7,2,402.805,0.0,1,object_03,5,1867,0,0,7,restaurant_26,2,memory-2step-stake-s,630,2149932,0.0-18.0-0.1-0.130,4376,8,7
131,1,object_10,object_08,894.89,2,1,536.615,0.6666666666666666,2,object_02,5,1897,0,1,6,desert_23,2,memory-2step-stake-s,631,2158338,0.0-18.0-0.1-0.131,4376,2,1
132,3,object_09,object_07,764.31,5,1,284.02,0.3333333333333333,1,object_03,1,1900,0,3,7,library_7,2,memory-2step-stake-s,632,2166169,0.0-18.0-0.1-0.132,4376,5,6
133,3,object_09,object_07,843.51,6,2,300.495,0.2222222222222222,2,object_02,1,1902,0,2,2,library_8,2,memory-2step-stake-s,633,2173919,0.0-18.0-0.1-0.133,4376,5,6
134,1,object_08,object_10,532.91,1,1,300.165,0.1111111111111111,1,object_03,5,1907,0,1,5,desert_11,2,memory-2step-stake-s,634,2181557,0.0-18.0-0.1-0.134,4376,1,2
135,1,object_10,object_08,717.625,1,2,275.94,0.2222222222222222,1,object_03,5,1917,0,2,6,desert_12,2,memory-2step-stake-s,635,2189291,0.0-18.0-0.1-0.135,4376,2,1
136,4,object_01,object_05,619.59,7,1,326.58,0.0,1,object_03,1,1917,0,0,4,restaurant_13,2,memory-2step-stake-s,636,2196854,0.0-18.0-0.1-0.136,4376,7,8
137,4,object_01,object_05,595.375,8,2,253.815,0.6666666666666666,2,object_02,1,1923,0,1,6,restaurant_16,2,memory-2step-stake-s,637,2204970,0.0-18.0-0.1-0.137,4376,7,8
138,3,object_09,object_07,1458.795,6,2,377.475,0.8888888888888888,2,object_02,5,1963,0,4,8,library_30,2,memory-2step-stake-s,638,2213427,0.0-18.0-0.1-0.138,4376,5,6
139,2,object_04,object_06,762.79,4,2,322.08,0.8888888888888888,2,object_02,1,1971,0,5,8,forest_12,2,memory-2step-stake-s,639,2221838,0.0-18.0-0.1-0.139,4376,3,4
140,4,object_05,object_01,824.14,8,1,395.35,1.0,2,object_02,1,1980,0,6,9,restaurant_19,2,memory-2step-stake-s,640,2230429,0.0-18.0-0.1-0.140,4376,8,7
141,3,object_09,object_07,799.93,5,1,568.37,0.5555555555555556,1,object_03,5,2005,0,5,8,library_8,2,memory-2step-stake-s,641,2238765,0.0-18.0-0.1-0.141,4376,5,6
142,1,object_10,object_08,808.89,2,1,323.61,0.6666666666666666,2,object_02,1,2011,0,5,6,desert_24,2,memory-2step-stake-s,642,2246954,0.0-18.0-0.1-0.142,4376,2,1
143,1,object_08,object_10,594.66,1,1,460.65,0.6666666666666666,1,object_03,5,2041,0,6,8,desert_1,2,memory-2step-stake-s,643,2255292,0.0-18.0-0.1-0.143,4376,1,2
144,4,object_01,object_05,961.72,7,1,310.63,0.6666666666666666,1,object_03,1,2047,0,6,8,restaurant_7,2,memory-2step-stake-s,644,2263475,0.0-18.0-0.1-0.144,4376,7,8
145,4,object_05,object_01,653.87,7,2,455.37,0.5555555555555556,1,object_03,1,2052,0,5,7,restaurant_4,2,memory-2step-stake-s,645,2271685,0.0-18.0-0.1-0.145,4376,8,7
146,1,object_10,object_08,515.845,1,2,439.325,0.5555555555555556,1,object_03,5,2077,0,5,7,desert_23,2,memory-2step-stake-s,646,2279871,0.0-18.0-0.1-0.146,4376,2,1
147,3,object_07,object_09,709.475,6,1,329.415,0.5555555555555556,2,object_02,1,2082,0,7,5,library_2,2,memory-2step-stake-s,647,2287952,0.0-18.0-0.1-0.147,4376,6,5
148,2,object_06,object_04,690.26,3,2,366.79,0.8888888888888888,1,object_03,5,2122,0,8,0,forest_30,2,memory-2step-stake-s,648,2296378,0.0-18.0-0.1-0.148,4376,4,3
149,2,object_06,object_04,650.515,3,2,294.79,1.0,1,object_03,5,2167,0,9,1,forest_15,2,memory-2step-stake-s,649,2304836,0.0-18.0-0.1-0.149,4376,4,3
150,4,object_01,object_05,812.17,7,1,375.385,0.7777777777777778,1,object_03,1,2174,0,7,2,restaurant_3,2,memory-2step-stake-s,650,2313178,0.0-18.0-0.1-0.150,4376,7,8
151,1,object_10,object_08,467.965,1,2,329.745,1.0,1,object_03,5,2219,0,9,2,desert_1,2,memory-2step-stake-s,651,2321665,0.0-18.0-0.1-0.151,4376,2,1
152,3,object_09,object_07,797.085,5,1,322.155,1.0,1,object_03,1,2228,0,9,3,library_3,2,memory-2step-stake-s,652,2330191,0.0-18.0-0.1-0.152,4376,5,6
153,2,object_04,object_06,610.365,3,1,338.155,0.5555555555555556,1,object_03,1,2233,0,5,5,forest_12,2,memory-2step-stake-s,653,2338294,0.0-18.0-0.1-0.153,4376,3,4
154,3,object_09,object_07,624.37,5,1,301.485,0.4444444444444444,1,object_03,5,2253,0,4,6,library_8,2,memory-2step-stake-s,654,2346254,0.0-18.0-0.1-0.154,4376,5,6
155,1,object_10,object_08,661.625,1,2,345.005,0.5555555555555556,1,object_03,5,2278,0,5,5,desert_10,2,memory-2step-stake-s,655,2354374,0.0-18.0-0.1-0.155,4376,2,1
156,1,object_08,object_10,614.435,1,1,286.965,0.5555555555555556,1,object_03,5,2303,0,5,1,desert_21,2,memory-2step-stake-s,656,2362435,0.0-18.0-0.1-0.156,4376,1,2
157,3,object_09,object_07,549.28,5,1,304.92,0.4444444444444444,1,object_03,1,2307,0,4,2,library_25,2,memory-2step-stake-s,657,2370404,0.0-18.0-0.1-0.157,4376,5,6
158,2,object_06,object_04,707.965,3,2,463.335,0.8888888888888888,1,object_03,5,2347,0,8,4,forest_29,2,memory-2step-stake-s,658,2378946,0.0-18.0-0.1-0.158,4376,4,3
159,1,object_10,object_08,643.565,1,2,335.935,0.7777777777777778,1,object_03,1,2354,0,7,9,desert_24,2,memory-2step-stake-s,659,2387253,0.0-18.0-0.1-0.159,4376,2,1
160,2,object_04,object_06,629.5799999,3,1,349.105,0.6666666666666666,1,object_03,5,2384,0,6,9,forest_6,2,memory-2step-stake-s,660,2395471,0.0-18.0-0.1-0.160,4376,3,4
161,4,object_05,object_01,662.555,7,2,384.49,0.4444444444444444,1,object_03,1,2388,0,4,6,restaurant_11,2,memory-2step-stake-s,661,2403516,0.0-18.0-0.1-0.161,4376,8,7
162,3,object_09,object_07,728.145,5,1,407.125,0.7777777777777778,1,object_03,1,2395,0,7,5,library_3,2,memory-2step-stake-s,662,2411874,0.0-18.0-0.1-0.162,4376,5,6
163,3,object_09,object_07,653.635,6,2,290.145,0.3333333333333333,2,object_02,1,2398,0,9,3,library_25,2,memory-2step-stake-s,663,2419703,0.0-18.0-0.1-0.163,4376,5,6
164,4,object_01,object_05,486.975,7,1,297.275,0.4444444444444444,1,object_03,1,2402,0,4,0,restaurant_4,2,memory-2step-stake-s,664,2427653,0.0-18.0-0.1-0.164,4376,7,8
165,4,object_05,object_01,796.4,7,2,510.4,0.5555555555555556,1,object_03,1,2407,0,5,1,restaurant_24,2,memory-2step-stake-s,665,2435934,0.0-18.0-0.1-0.165,4376,8,7
166,1,object_08,object_10,664.865,1,1,464.16,0.7777777777777778,1,object_03,1,2414,0,7,0,desert_8,2,memory-2step-stake-s,666,2444357,0.0-18.0-0.1-0.166,4376,1,2
167,4,object_01,object_05,471.095,7,1,359.525,0.7777777777777778,1,object_03,1,2421,0,7,1,restaurant_6,2,memory-2step-stake-s,667,2452697,0.0-18.0-0.1-0.167,4376,7,8
168,3,object_07,object_09,865.655,5,2,300.935,0.7777777777777778,1,object_03,5,2456,0,7,0,library_13,2,memory-2step-stake-s,668,2460961,0.0-18.0-0.1-0.168,4376,6,5
169,4,object_05,object_01,594.205,7,2,434.82,0.8888888888888888,1,object_03,1,2464,0,8,1,restaurant_23,2,memory-2step-stake-s,669,2469474,0.0-18.0-0.1-0.169,4376,8,7
170,4,object_05,object_01,608.605,7,2,371.81,0.6666666666666666,1,object_03,1,2470,0,6,1,restaurant_24,2,memory-2step-stake-s,670,2477726,0.0-18.0-0.1-0.170,4376,8,7
171,3,object_09,object_07,901.425,5,1,332.26,0.8888888888888888,1,object_03,1,2478,0,8,4,library_1,2,memory-2step-stake-s,671,2486133,0.0-18.0-0.1-0.171,4376,5,6
172,1,object_10,object_08,511.13,1,2,307.215,1.0,1,object_03,5,2523,0,9,3,desert_4,2,memory-2step-stake-s,672,2494636,0.0-18.0-0.1-0.172,4376,2,1
173,3,object_09,object_07,550.86,5,1,325.145,0.8888888888888888,1,object_03,1,2531,0,8,2,library_4,2,memory-2step-stake-s,673,2503056,0.0-18.0-0.1-0.173,4376,5,6
174,4,object_01,object_05,426.685,7,1,276.535,0.8888888888888888,1,object_03,1,2539,0,8,2,restaurant_26,2,memory-2step-stake-s,674,2511417,0.0-18.0-0.1-0.174,4376,7,8
175,3,object_07,object_09,624.275,5,2,417.35,0.8888888888888888,1,object_03,1,2547,0,8,4,library_13,2,memory-2step-stake-s,675,2519917,0.0-18.0-0.1-0.175,4376,6,5
176,1,object_08,object_10,435.2299999,1,1,269.4,0.7777777777777778,1,object_03,5,2582,0,7,5,desert_25,2,memory-2step-stake-s,676,2528148,0.0-18.0-0.1-0.176,4376,1,2
177,2,object_04,object_06,655.995,3,1,372.865,0.7777777777777778,1,object_03,5,2617,0,7,6,forest_22,2,memory-2step-stake-s,677,2536486,0.0-18.0-0.1-0.177,4376,3,4
178,3,object_07,object_09,726.55,6,1,313.32,0.7777777777777778,2,object_02,1,2624,0,5,7,library_25,2,memory-2step-stake-s,678,2544742,0.0-18.0-0.1-0.178,4376,6,5
179,4,object_05,object_01,466.965,8,1,351.02,0.7777777777777778,2,object_02,1,2631,0,6,7,restaurant_17,2,memory-2step-stake-s,679,2553065,0.0-18.0-0.1-0.179,4376,8,7
180,1,object_10,object_08,731.485,2,1,298.285,0.8888888888888888,2,object_02,1,2639,0,6,8,desert_8,2,memory-2step-stake-s,680,2561449,0.0-18.0-0.1-0.180,4376,2,1
181,1,object_10,object_08,512.54,2,1,311.21,0.8888888888888888,2,object_02,5,2679,0,9,8,desert_25,2,memory-2step-stake-s,681,2569822,0.0-18.0-0.1-0.181,4376,2,1
182,4,object_05,object_01,495.195,8,1,396.46,0.8888888888888888,2,object_02,5,2719,0,8,8,restaurant_13,2,memory-2step-stake-s,682,2578286,0.0-18.0-0.1-0.182,4376,8,7
183,1,object_08,object_10,489.43,2,2,451.375,1.0,2,object_02,5,2764,0,5,9,desert_24,2,memory-2step-stake-s,683,2586914,0.0-18.0-0.1-0.183,4376,1,2
184,4,object_01,object_05,889.205,8,2,549.095,1.0,2,object_02,1,2773,0,3,9,restaurant_16,2,memory-2step-stake-s,684,2595662,0.0-18.0-0.1-0.184,4376,7,8
185,3,object_09,object_07,828.185,5,1,331.045,0.4444444444444444,1,object_03,5,2793,0,4,9,library_31,2,memory-2step-stake-s,685,2603661,0.0-18.0-0.1-0.185,4376,5,6
186,1,object_08,object_10,553.345,2,2,287.5649999,0.7777777777777778,2,object_02,1,2800,0,5,7,desert_11,2,memory-2step-stake-s,686,2611942,0.0-18.0-0.1-0.186,4376,1,2
187,3,object_09,object_07,645.45,6,2,308.33,0.8888888888888888,2,object_02,1,2808,0,6,8,library_31,2,memory-2step-stake-s,687,2620319,0.0-18.0-0.1-0.187,4376,5,6
188,1,object_08,object_10,498.71,2,2,347.955,0.6666666666666666,2,object_02,1,2814,0,4,6,desert_26,2,memory-2step-stake-s,688,2628533,0.0-18.0-0.1-0.188,4376,1,2
189,3,object_07,object_09,674.12,5,2,300.455,0.6666666666666666,1,object_03,1,2820,0,6,8,library_16,2,memory-2step-stake-s,689,2636692,0.0-18.0-0.1-0.189,4376,6,5
190,1,object_08,object_10,485.97,2,2,323.26,0.4444444444444444,2,object_02,1,2824,0,5,4,desert_24,2,memory-2step-stake-s,690,2644671,0.0-18.0-0.1-0.190,4376,1,2
191,3,object_07,object_09,1019.84,5,2,304.45,0.7777777777777778,1,object_03,1,2831,0,7,7,library_6,2,memory-2step-stake-s,691,2652947,0.0-18.0-0.1-0.191,4376,6,5
192,2,object_06,object_04,902.71,3,2,374.38,0.5555555555555556,1,object_03,5,2856,0,5,7,forest_14,2,memory-2step-stake-s,692,2661079,0.0-18.0-0.1-0.192,4376,4,3
193,1,object_10,object_08,729.78,1,2,286.215,0.1111111111111111,1,object_03,1,2857,0,1,8,desert_26,2,memory-2step-stake-s,693,2668711,0.0-18.0-0.1-0.193,4376,2,1
194,4,object_01,object_05,550.235,8,2,273.32,1.0,2,object_02,1,2866,0,0,9,restaurant_7,2,memory-2step-stake-s,694,2677149,0.0-18.0-0.1-0.194,4376,7,8
195,1,object_10,object_08,451.23,2,1,431.505,0.7777777777777778,2,object_02,1,2873,0,0,7,desert_18,2,memory-2step-stake-s,695,2685564,0.0-18.0-0.1-0.195,4376,2,1
196,1,object_10,object_08,412.225,2,1,314.365,0.6666666666666666,2,object_02,5,2903,0,1,6,desert_21,2,memory-2step-stake-s,696,2693745,0.0-18.0-0.1-0.196,4376,2,1
197,4,object_05,object_01,720.98,8,1,376.535,0.3333333333333333,2,object_02,5,2918,0,0,3,restaurant_4,2,memory-2step-stake-s,697,2701670,0.0-18.0-0.1-0.197,4376,8,7
198,2,object_06,object_04,664.61,3,2,278.655,0.3333333333333333,1,object_03,5,2933,0,3,4,forest_6,2,memory-2step-stake-s,698,2709514,0.0-18.0-0.1-0.198,4376,4,3
199,4,object_01,object_05,590.8900001000001,7,1,382.835,0.2222222222222222,1,object_03,1,2935,0,2,4,restaurant_14,2,memory-2step-stake-s,699,2717354,0.0-18.0-0.1-0.199,4376,7,8
200,1,object_10,object_08,428.77,2,1,345.765,0.3333333333333333,2,object_02,1,2938,0,6,3,desert_4,2,memory-2step-stake-s,700,2725253,0.0-18.0-0.1-0.200,4376,2,1
201,1,object_10,object_08,377.135,2,1,331.555,0.7777777777777778,2,object_02,1,2945,0,6,7,desert_18,2,memory-2step-stake-s,701,2733566,0.0-18.0-0.1-0.201,4376,2,1
202,3,object_09,object_07,905.495,6,2,427.105,0.6666666666666666,2,object_02,1,2951,0,9,6,library_6,2,memory-2step-stake-s,702,2741886,0.0-18.0-0.1-0.202,4376,5,6
203,2,object_06,object_04,634.65,4,1,310.98,0.5555555555555556,2,object_02,5,2976,0,6,5,forest_14,2,memory-2step-stake-s,703,2749956,0.0-18.0-0.1-0.203,4376,4,3
204,3,object_07,object_09,660.84,6,1,356.03,0.4444444444444444,2,object_02,1,2980,0,5,4,library_18,2,memory-2step-stake-s,704,2757977,0.0-18.0-0.1-0.204,4376,6,5
205,3,object_09,object_07,743.05,5,1,305.63,0.7777777777777778,1,object_03,1,2987,0,7,6,library_16,2,memory-2step-stake-s,705,2766243,0.0-18.0-0.1-0.205,4376,5,6
206,2,object_06,object_04,686.135,3,2,344.55,1.0,1,object_03,5,3032,0,9,6,forest_30,2,memory-2step-stake-s,706,2774733,0.0-18.0-0.1-0.206,4376,4,3
207,1,object_10,object_08,434.14,1,2,477.22,0.7777777777777778,1,object_03,1,3039,0,7,9,desert_10,2,memory-2step-stake-s,707,2783148,0.0-18.0-0.1-0.207,4376,2,1
208,3,object_09,object_07,478.875,5,1,352.6,1.0,1,object_03,5,3084,0,9,9,library_10,2,memory-2step-stake-s,708,2791643,0.0-18.0-0.1-0.208,4376,5,6
209,2,object_04,object_06,818.795,3,1,394.685,0.5555555555555556,1,object_03,5,3109,0,5,9,forest_25,2,memory-2step-stake-s,709,2799789,0.0-18.0-0.1-0.209,4376,3,4
210,4,object_05,object_01,840.31,7,2,306.77,0.5555555555555556,1,object_03,1,3114,0,5,8,restaurant_3,2,memory-2step-stake-s,710,2807843,0.0-18.0-0.1-0.210,4376,8,7
211,4,object_01,object_05,459.43,7,1,326.335,0.5555555555555556,1,object_03,1,3119,0,5,4,restaurant_16,2,memory-2step-stake-s,711,2815916,0.0-18.0-0.1-0.211,4376,7,8
212,1,object_08,object_10,440.19,1,1,321.645,0.5555555555555556,1,object_03,1,3124,0,5,4,desert_22,2,memory-2step-stake-s,712,2823978,0.0-18.0-0.1-0.212,4376,1,2
213,2,object_06,object_04,660.445,4,1,302.85,0.5555555555555556,2,object_02,5,3149,0,6,5,forest_22,2,memory-2step-stake-s,713,2832158,0.0-18.0-0.1-0.213,4376,4,3
214,4,object_05,object_01,662.095,8,1,288.825,0.4444444444444444,2,object_02,5,3169,0,5,4,restaurant_13,2,memory-2step-stake-s,714,2840090,0.0-18.0-0.1-0.214,4376,8,7
215,2,object_06,object_04,710.56,3,2,292.15,0.4444444444444444,1,object_03,1,3173,0,4,5,forest_15,2,memory-2step-stake-s,715,2848015,0.0-18.0-0.1-0.215,4376,4,3
216,2,object_04,object_06,748.12,3,1,271.26,0.4444444444444444,1,object_03,5,3193,0,4,4,forest_28,2,memory-2step-stake-s,716,2855924,0.0-18.0-0.1-0.216,4376,3,4
217,1,object_10,object_08,738.6,1,2,341.37,0.6666666666666666,1,object_03,5,3223,0,6,2,desert_29,2,memory-2step-stake-s,717,2864124,0.0-18.0-0.1-0.217,4376,2,1
218,2,object_04,object_06,624.46,3,1,394.39,1.0,1,object_03,5,3268,0,9,2,forest_7,2,memory-2step-stake-s,718,2872664,0.0-18.0-0.1-0.218,4376,3,4
219,1,object_10,object_08,701.315,1,2,521.98,1.0,1,object_03,5,3313,0,9,3,desert_5,2,memory-2step-stake-s,719,2881336,0.0-18.0-0.1-0.219,4376,2,1
220,1,object_10,object_08,571.66,1,2,316.075,0.8888888888888888,1,object_03,5,3353,0,8,5,desert_12,2,memory-2step-stake-s,720,2889687,0.0-18.0-0.1-0.220,4376,2,1
221,1,object_08,object_10,502.765,1,1,352.795,0.5555555555555556,1,object_03,5,3378,0,5,3,desert_29,2,memory-2step-stake-s,721,2897783,0.0-18.0-0.1-0.221,4376,1,2
222,2,object_04,object_06,575.73,3,1,845.755,1.0,1,object_03,5,3423,0,9,7,forest_25,2,memory-2step-stake-s,722,2906785,0.0-18.0-0.1-0.222,4376,3,4
223,4,object_01,object_05,482.205,7,1,198.84,1.0,1,object_03,1,3432,0,9,6,restaurant_11,2,memory-2step-stake-s,723,2915137,0.0-18.0-0.1-0.223,4376,7,8
224,1,object_08,object_10,478.13,1,1,317.57,0.7777777777777778,1,object_03,5,3467,0,7,6,desert_18,2,memory-2step-stake-s,724,2923392,0.0-18.0-0.1-0.224,4376,1,2
225,3,object_09,object_07,649.49,5,1,315.41,0.8888888888888888,1,object_03,1,3475,0,8,4,library_18,2,memory-2step-stake-s,725,2931754,0.0-18.0-0.1-0.225,4376,5,6
226,4,object_01,object_05,638.77,7,1,303.455,0.7777777777777778,1,object_03,5,3510,0,7,1,restaurant_7,2,memory-2step-stake-s,726,2940010,0.0-18.0-0.1-0.226,4376,7,8
227,1,object_10,object_08,637.0,1,2,361.67,0.7777777777777778,1,object_03,5,3545,0,7,3,desert_25,2,memory-2step-stake-s,727,2948329,0.0-18.0-0.1-0.227,4376,2,1
228,2,object_04,object_06,912.62,3,1,382.165,0.5555555555555556,1,object_03,5,3570,0,5,0,forest_29,2,memory-2step-stake-s,728,2956446,0.0-18.0-0.1-0.228,4376,3,4
229,4,object_01,object_05,602.535,7,1,388.125,0.7777777777777778,1,object_03,1,3577,0,7,0,restaurant_19,2,memory-2step-stake-s,729,2964792,0.0-18.0-0.1-0.229,4376,7,8
230,3,object_09,object_07,626.085,5,1,322.085,0.7777777777777778,1,object_03,5,3612,0,7,0,library_7,2,memory-2step-stake-s,730,2973064,0.0-18.0-0.1-0.230,4376,5,6
231,2,object_04,object_06,483.2,3,1,338.685,0.8888888888888888,1,object_03,5,3652,0,8,2,forest_30,2,memory-2step-stake-s,731,2981459,0.0-18.0-0.1-0.231,4376,3,4
232,4,object_05,object_01,521.58,8,1,108.485,0.2222222222222222,2,object_02,1,3654,0,8,2,restaurant_20,2,memory-2step-stake-s,732,2989001,0.0-18.0-0.1-0.232,4376,8,7
233,3,object_09,object_07,838.255,5,1,304.605,0.7777777777777778,1,object_03,1,3661,0,7,1,library_1,2,memory-2step-stake-s,733,2997276,0.0-18.0-0.1-0.233,4376,5,6
234,3,object_09,object_07,554.795,5,1,408.29,0.7777777777777778,1,object_03,1,3668,0,7,1,library_30,2,memory-2step-stake-s,734,3005644,0.0-18.0-0.1-0.234,4376,5,6
235,3,object_07,object_09,513.435,5,2,292.385,0.6666666666666666,1,object_03,1,3674,0,6,4,library_11,2,memory-2step-stake-s,735,3013798,0.0-18.0-0.1-0.235,4376,6,5
236,2,object_06,object_04,558.54,4,1,329.995,0.4444444444444444,2,object_02,1,3678,0,8,4,forest_22,2,memory-2step-stake-s,736,3021757,0.0-18.0-0.1-0.236,4376,4,3
237,2,object_06,object_04,569.01,3,2,306.985,0.6666666666666666,1,object_03,5,3708,0,6,9,forest_29,2,memory-2step-stake-s,737,3029914,0.0-18.0-0.1-0.237,4376,4,3
238,4,object_01,object_05,481.915,7,1,314.63,1.0,1,object_03,1,3717,0,9,8,restaurant_19,2,memory-2step-stake-s,738,3038372,0.0-18.0-0.1-0.238,4376,7,8
239,3,object_09,object_07,875.22,6,2,339.275,0.6666666666666666,2,object_02,1,3723,0,8,6,library_2,2,memory-2step-stake-s,739,3046553,0.0-18.0-0.1-0.239,4376,5,6
240,3,object_09,object_07,567.785,5,1,339.375,0.8888888888888888,1,object_03,5,3763,0,8,5,library_13,2,memory-2step-stake-s,740,3054937,0.0-18.0-0.1-0.240,4376,5,6
241,1,object_08,object_10,812.695,1,1,354.44499989999997,0.8888888888888888,1,object_03,1,3771,0,8,0,desert_28,2,memory-2step-stake-s,741,3063331,0.0-18.0-0.1-0.241,4376,1,2
242,3,object_09,object_07,447.685,5,1,317.625,0.8888888888888888,1,object_03,1,3779,0,8,0,library_7,2,memory-2step-stake-s,742,3071700,0.0-18.0-0.1-0.242,4376,5,6
243,2,object_06,object_04,704.69,3,2,335.125,1.0,1,object_03,5,3824,0,9,2,forest_27,2,memory-2step-stake-s,743,3080184,0.0-18.0-0.1-0.243,4376,4,3
244,1,object_08,object_10,556.785,1,1,708.825,0.8888888888888888,1,object_03,5,3864,0,8,4,desert_12,2,memory-2step-stake-s,744,3088932,0.0-18.0-0.1-0.244,4376,1,2
245,2,object_04,object_06,600.04,3,1,370.395,0.6666666666666666,1,object_03,5,3894,0,6,3,forest_10,2,memory-2step-stake-s,745,3097153,0.0-18.0-0.1-0.245,4376,3,4
246,3,object_07,object_09,816.1,5,2,323.84,0.7777777777777778,1,object_03,5,3929,0,7,4,library_16,2,memory-2step-stake-s,746,3105419,0.0-18.0-0.1-0.246,4376,6,5
247,4,object_05,object_01,755.395,7,2,332.05,0.7777777777777778,1,object_03,1,3936,0,7,6,restaurant_17,2,memory-2step-stake-s,747,3113698,0.0-18.0-0.1-0.247,4376,8,7
248,2,object_04,object_06,511.11,3,1,340.37,0.5555555555555556,1,object_03,1,3941,0,5,7,forest_7,2,memory-2step-stake-s,748,3121770,0.0-18.0-0.1-0.248,4376,3,4
249,2,object_04,object_06,613.54,3,1,354.77,0.2222222222222222,1,object_03,1,3943,0,2,7,forest_2,2,memory-2step-stake-s,749,3129553,0.0-18.0-0.1-0.249,4376,3,4
250,1,object_08,object_10,863.61,1,1,335.405,0.2222222222222222,1,object_03,5,3953,0,2,4,desert_29,2,memory-2step-stake-s,750,3137322,0.0-18.0-0.1-0.250,4376,1,2
251,2,object_04,object_06,897.62,4,2,258.365,0.3333333333333333,2,object_02,5,3968,0,2,3,forest_1,2,memory-2step-stake-s,751,3145119,0.0-18.0-0.1-0.251,4376,3,4
252,1,object_10,object_08,450.28,2,1,295.05,0.5555555555555556,2,object_02,5,3993,0,1,5,desert_23,2,memory-2step-stake-s,752,3153150,0.0-18.0-0.1-0.252,4376,2,1
253,2,object_06,object_04,970.985,4,1,311.835,0.8888888888888888,2,object_02,5,4033,0,0,8,forest_30,2,memory-2step-stake-s,753,3161502,0.0-18.0-0.1-0.253,4376,4,3
254,2,object_06,object_04,641.88,4,1,323.815,0.7777777777777778,2,object_02,1,4040,0,0,7,forest_28,2,memory-2step-stake-s,754,3169777,0.0-18.0-0.1-0.254,4376,4,3
255,2,object_04,object_06,666.86,4,2,272.06,0.8888888888888888,2,object_02,5,4080,0,3,8,forest_10,2,memory-2step-stake-s,755,3178110,0.0-18.0-0.1-0.255,4376,3,4
