,state1,stim_left,stim_right,rt_1,choice1,response1,rt_2,points,state2,stim_state2,stake,score,practice,rews1,rews2,background,high_arm,trial_type,trial_index,time_elapsed,internal_node_id,subid,stim_left_num,stim_right_num
0,2,object_05,object_01,883.05,4,2,505.43,0.0,2,object_02,1,0,0,8,0,forest_2,1,memory-2step-stake-s,501,883210,0.0-18.0-0.0-0.0,3688,3,4
1,1,object_03,object_08,879.8150001,2,1,822.135,0.6666666666666666,2,object_02,1,6,0,6,6,desert_19,1,memory-2step-stake-s,502,891928,0.0-18.0-0.0-0.1,3688,2,1
2,4,object_04,object_07,713.875,8,2,471.01,0.5555555555555556,2,object_02,5,31,0,5,5,restaurant_4,1,memory-2step-stake-s,503,900201,0.0-18.0-0.0-0.2,3688,7,8
3,4,object_04,object_07,-1.0,-1,-1,-1.0,0.0,-,,5,31,0,6,9,restaurant_8,1,memory-2step-stake-s,504,906752,0.0-18.0-0.0-0.3,3688,7,8
4,2,object_01,object_05,613.035,4,1,733.88,0.5555555555555556,2,object_02,1,36,0,4,5,forest_9,1,memory-2step-stake-s,505,915294,0.0-18.0-0.0-0.4,3688,4,3
5,1,object_08,object_03,627.385,2,2,588.87,0.7777777777777778,2,object_02,1,43,0,1,7,desert_6,1,memory-2step-stake-s,506,923904,0.0-18.0-0.0-0.5,3688,1,2
6,4,object_07,object_04,847.38,8,1,448.845,0.8888888888888888,2,object_02,5,83,0,2,8,restaurant_1,1,memory-2step-stake-s,507,932435,0.0-18.0-0.0-0.6,3688,8,7
7,4,object_04,object_07,775.37,8,2,340.015,0.7777777777777778,2,object_02,5,118,0,5,7,restaurant_22,1,memory-2step-stake-s,508,940793,0.0-18.0-0.0-0.7,3688,7,8
8,3,object_06,object_09,864.925,6,2,429.74,0.4444444444444444,2,object_02,5,138,0,4,4,library_7,1,memory-2step-stake-s,509,948913,0.0-18.0-0.0-0.8,3688,5,6
9,3,object_06,object_09,1054.09,5,1,444.55500010000003,0.6666666666666666,1,object_10,5,168,0,6,2,library_11,1,memory-2step-stake-s,510,957247,0.0-18.0-0.0-0.9,3688,5,6
10,1,object_03,object_08,-1.0,-1,-1,-1.0,0.0,-,,5,168,0,9,2,desert_19,1,memory-2step-stake-s,511,963799,0.0-18.0-0.0-0.10,3688,2,1
11,4,object_07,object_04,490.735,8,1,369.53,0.3333333333333333,2,object_02,5,183,0,9,3,restaurant_31,1,memory-2step-stake-s,512,971779,0.0-18.0-0.0-0.11,3688,8,7
12,1,object_03,object_08,872.97,1,2,354.145,0.8888888888888888,1,object_10,1,191,0,8,5,desert_7,1,memory-2step-stake-s,513,980255,0.0-18.0-0.0-0.12,3688,2,1
13,4,object_04,object_07,745.975,8,2,115.57,0.4444444444444444,2,object_02,5,211,0,8,4,restaurant_19,1,memory-2step-stake-s,514,988068,0.0-18.0-0.0-0.13,3688,7,8
14,3,object_09,object_06,712.495,5,2,451.82,0.8888888888888888,1,object_10,5,251,0,8,2,library_16,1,memory-2step-stake-s,515,996629,0.0-18.0-0.0-0.14,3688,6,5
15,3,object_09,object_06,755.66,5,2,300.905,0.6666666666666666,1,object_10,5,281,0,6,1,library_11,1,memory-2step-stake-s,516,1004838,0.0-18.0-0.0-0.15,3688,6,5
16,4,object_07,object_04,613.42,8,1,206.835,0.2222222222222222,2,object_02,5,291,0,6,2,restaurant_20,1,memory-2step-stake-s,517,1012511,0.0-18.0-0.0-0.16,3688,8,7
17,3,object_09,object_06,731.105,5,2,262.305,0.4444444444444444,1,object_10,5,311,0,4,7,library_11,1,memory-2step-stake-s,518,1020472,0.0-18.0-0.0-0.17,3688,6,5
18,1,object_03,object_08,648.145,2,1,229.875,0.6666666666666666,2,object_02,1,317,0,2,6,desert_27,1,memory-2step-stake-s,519,1028602,0.0-18.0-0.0-0.18,3688,2,1
19,3,object_06,object_09,635.31,6,2,369.005,0.7777777777777778,2,object_02,5,352,0,4,7,library_31,1,memory-2step-stake-s,520,1036971,0.0-18.0-0.0-0.19,3688,5,6
20,4,object_07,object_04,571.495,8,1,363.48,0.4444444444444444,2,object_02,5,372,0,6,4,restaurant_24,1,memory-2step-stake-s,521,1045033,0.0-18.0-0.0-0.20,3688,8,7
21,3,object_06,object_09,604.97,6,2,287.36,0.5555555555555556,2,object_02,5,397,0,8,5,library_20,1,memory-2step-stake-s,522,1053101,0.0-18.0-0.0-0.21,3688,5,6
22,2,object_01,object_05,591.21,4,1,468.985,0.4444444444444444,2,object_02,1,401,0,6,4,forest_29,1,memory-2step-stake-s,523,1061258,0.0-18.0-0.0-0.22,3688,4,3
23,4,object_07,object_04,1165.07,7,2,320.79,0.6666666666666666,1,object_10,5,431,0,6,3,restaurant_14,1,memory-2step-stake-s,524,1069469,0.0-18.0-0.0-0.23,3688,8,7
24,2,object_01,object_05,631.575,3,2,88.37999997,0.8888888888888888,1,object_10,1,439,0,8,1,forest_4,1,memory-2step-stake-s,525,1077668,0.0-18.0-0.0-0.24,3688,4,3
25,3,object_09,object_06,686.955,6,1,33.605,0.2222222222222222,2,object_02,5,449,0,7,2,library_16,1,memory-2step-stake-s,526,1085169,0.0-18.0-0.0-0.25,3688,6,5
26,2,object_05,object_01,616.295,4,2,11.145,0.1111111111111111,2,object_02,1,450,0,3,1,forest_21,1,memory-2step-stake-s,527,1092555,0.0-18.0-0.0-0.26,3688,3,4
27,4,object_07,object_04,674.775,7,2,224.685,0.1111111111111111,1,object_10,5,455,0,1,2,restaurant_17,1,memory-2step-stake-s,528,1100149,0.0-18.0-0.0-0.27,3688,8,7
28,2,object_05,object_01,570.34,4,2,294.48,0.0,2,object_02,1,455,0,3,0,forest_13,1,memory-2step-stake-s,529,1107735,0.0-18.0-0.0-0.28,3688,3,4
29,3,object_09,object_06,584.16,5,2,196.405,0.1111111111111111,1,object_10,5,460,0,1,2,library_28,1,memory-2step-stake-s,530,1115303,0.0-18.0-0.0-0.29,3688,6,5
30,1,object_03,object_08,930.585,1,2,253.0,0.4444444444444444,1,object_10,5,480,0,4,0,desert_8,1,memory-2step-stake-s,531,1123257,0.0-18.0-0.0-0.30,3688,2,1
31,3,object_06,object_09,815.535,5,1,240.165,0.4444444444444444,1,object_10,5,500,0,4,1,library_21,1,memory-2step-stake-s,532,1131159,0.0-18.0-0.0-0.31,3688,5,6
32,2,object_05,object_01,812.025,4,2,260.805,0.0,2,object_02,1,500,0,5,0,forest_5,1,memory-2step-stake-s,533,1138688,0.0-18.0-0.0-0.32,3688,3,4
33,3,object_06,object_09,700.44,5,1,65.43000002,0.4444444444444444,1,object_10,5,520,0,4,0,library_3,1,memory-2step-stake-s,534,1146470,0.0-18.0-0.0-0.33,3688,5,6
34,3,object_06,object_09,491.75,6,2,161.91,0.6666666666666666,2,object_02,5,550,0,2,6,library_15,1,memory-2step-stake-s,535,1154537,0.0-18.0-0.0-0.34,3688,5,6
35,3,object_09,object_06,454.86,6,1,101.19,0.2222222222222222,2,object_02,5,560,0,3,2,library_3,1,memory-2step-stake-s,536,1162099,0.0-18.0-0.0-0.35,3688,6,5
36,3,object_09,object_06,962.365,6,1,486.745,0.3333333333333333,2,object_02,1,563,0,4,3,library_6,1,memory-2step-stake-s,537,1170173,0.0-18.0-0.0-0.36,3688,6,5
37,4,object_04,object_07,569.275,7,1,260.76,0.2222222222222222,1,object_10,5,573,0,2,2,restaurant_15,1,memory-2step-stake-s,538,1177893,0.0-18.0-0.0-0.37,3688,7,8
38,1,object_08,object_03,758.14,2,2,304.085,0.1111111111111111,2,object_02,1,574,0,3,1,desert_3,1,memory-2step-stake-s,539,1185562,0.0-18.0-0.0-0.38,3688,1,2
39,1,object_08,object_03,723.7,2,2,238.17,0.2222222222222222,2,object_02,1,576,0,2,2,desert_6,1,memory-2step-stake-s,540,1193275,0.0-18.0-0.0-0.39,3688,1,2
40,2,object_05,object_01,776.025,3,1,282.955,0.2222222222222222,1,object_10,1,578,0,2,2,forest_3,1,memory-2step-stake-s,541,1201039,0.0-18.0-0.0-0.40,3688,3,4
41,3,object_09,object_06,560.635,6,1,108.66,0.1111111111111111,2,object_02,1,579,0,3,1,library_1,1,memory-2step-stake-s,542,1208546,0.0-18.0-0.0-0.41,3688,6,5
42,4,object_07,object_04,501.555,8,1,437.445,0.5555555555555556,2,object_02,5,604,0,4,5,restaurant_23,1,memory-2step-stake-s,543,1216793,0.0-18.0-0.0-0.42,3688,8,7
43,3,object_06,object_09,499.66,6,2,201.48,0.5555555555555556,2,object_02,5,629,0,8,5,library_27,1,memory-2step-stake-s,544,1224779,0.0-18.0-0.0-0.43,3688,5,6
44,3,object_06,object_09,883.225,5,1,355.31,0.6666666666666666,1,object_10,5,659,0,6,5,library_20,1,memory-2step-stake-s,545,1233039,0.0-18.0-0.0-0.44,3688,5,6
45,4,object_04,object_07,660.355,7,1,199.43,0.7777777777777778,1,object_10,5,694,0,7,4,restaurant_31,1,memory-2step-stake-s,546,1241262,0.0-18.0-0.0-0.45,3688,7,8
46,4,object_07,object_04,701.87,7,2,281.01,1.0,1,object_10,5,739,0,9,3,restaurant_15,1,memory-2step-stake-s,547,1249737,0.0-18.0-0.0-0.46,3688,8,7
47,2,object_01,object_05,590.865,3,2,359.345,0.8888888888888888,1,object_10,1,747,0,8,5,forest_21,1,memory-2step-stake-s,548,1258193,0.0-18.0-0.0-0.47,3688,4,3
48,3,object_09,object_06,561.17,5,2,171.275,0.8888888888888888,1,object_10,5,787,0,8,1,library_28,1,memory-2step-stake-s,549,1266455,0.0-18.0-0.0-0.48,3688,6,5
49,1,object_08,object_03,543.535,1,1,306.1850001,0.7777777777777778,1,object_10,1,794,0,7,0,desert_3,1,memory-2step-stake-s,550,1274758,0.0-18.0-0.0-0.49,3688,1,2
50,1,object_08,object_03,877.85,1,1,316.23,1.0,1,object_10,5,839,0,9,3,desert_12,1,memory-2step-stake-s,551,1283274,0.0-18.0-0.0-0.50,3688,1,2
51,2,object_01,object_05,532.895,4,1,1000.815,0.6666666666666666,2,object_02,1,845,0,7,6,forest_25,1,memory-2step-stake-s,552,1292170,0.0-18.0-0.0-0.51,3688,4,3
52,3,object_06,object_09,549.355,5,1,231.235,0.7777777777777778,1,object_10,5,880,0,7,7,library_20,1,memory-2step-stake-s,553,1300399,0.0-18.0-0.0-0.52,3688,5,6
53,2,object_01,object_05,547.02,3,2,394.255,0.8888888888888888,1,object_10,1,888,0,8,7,forest_22,1,memory-2step-stake-s,554,1308903,0.0-18.0-0.0-0.53,3688,4,3
54,1,object_08,object_03,696.43,1,1,233.59,0.5555555555555556,1,object_10,1,893,0,5,4,desert_17,1,memory-2step-stake-s,555,1316942,0.0-18.0-0.0-0.54,3688,1,2
55,4,object_07,object_04,515.69,7,2,155.12,0.5555555555555556,1,object_10,5,918,0,5,1,restaurant_23,1,memory-2step-stake-s,556,1324884,0.0-18.0-0.0-0.55,3688,8,7
56,4,object_07,object_04,524.805,7,2,238.89,0.5555555555555556,1,object_10,5,943,0,5,0,restaurant_21,1,memory-2step-stake-s,557,1332903,0.0-18.0-0.0-0.56,3688,8,7
57,2,object_01,object_05,840.425,4,1,274.675,0.0,2,object_02,1,943,0,6,0,forest_13,1,memory-2step-stake-s,558,1340445,0.0-18.0-0.0-0.57,3688,4,3
58,2,object_05,object_01,829.55,4,2,295.72,0.1111111111111111,2,object_02,1,944,0,8,1,forest_18,1,memory-2step-stake-s,559,1348132,0.0-18.0-0.0-0.58,3688,3,4
59,1,object_08,object_03,786.315,2,2,320.99,0.4444444444444444,2,object_02,1,948,0,6,4,desert_23,1,memory-2step-stake-s,560,1356144,0.0-18.0-0.0-0.59,3688,1,2
60,2,object_05,object_01,883.315,3,1,309.7550001,0.2222222222222222,1,object_10,1,950,0,2,4,forest_27,1,memory-2step-stake-s,561,1363937,0.0-18.0-0.0-0.60,3688,3,4
61,1,object_03,object_08,782.75,2,1,274.945,0.4444444444444444,2,object_02,1,954,0,1,4,desert_8,1,memory-2step-stake-s,562,1371886,0.0-18.0-0.0-0.61,3688,2,1
62,2,object_01,object_05,1096.435,3,2,358.22,0.1111111111111111,1,object_10,1,955,0,1,5,forest_18,1,memory-2step-stake-s,563,1379611,0.0-18.0-0.0-0.62,3688,4,3
63,1,object_03,object_08,653.45,2,1,387.67,0.5555555555555556,2,object_02,5,980,0,0,5,desert_10,1,memory-2step-stake-s,564,1387797,0.0-18.0-0.0-0.63,3688,2,1
64,1,object_03,object_08,648.355,1,2,213.955,0.2222222222222222,1,object_10,1,982,0,2,4,desert_12,1,memory-2step-stake-s,565,1395494,0.0-18.0-0.0-0.64,3688,2,1
65,2,object_01,object_05,1042.145,4,1,301.44,0.1111111111111111,2,object_02,5,987,0,2,1,forest_17,1,memory-2step-stake-s,566,1403181,0.0-18.0-0.0-0.65,3688,4,3
66,2,object_05,object_01,669.26,4,2,172.98,0.1111111111111111,2,object_02,1,988,0,5,1,forest_32,1,memory-2step-stake-s,567,1410733,0.0-18.0-0.0-0.66,3688,3,4
67,4,object_07,object_04,532.215,7,2,134.805,0.7777777777777778,1,object_10,5,1023,0,7,2,restaurant_20,1,memory-2step-stake-s,568,1418865,0.0-18.0-0.0-0.67,3688,8,7
68,3,object_09,object_06,682.42,5,2,294.675,1.0,1,object_10,5,1068,0,9,1,library_17,1,memory-2step-stake-s,569,1427372,0.0-18.0-0.0-0.68,3688,6,5
69,3,object_06,object_09,638.705,5,1,108.295,1.0,1,object_10,1,1077,0,9,2,library_32,1,memory-2step-stake-s,570,1435703,0.0-18.0-0.0-0.69,3688,5,6
70,1,object_08,object_03,674.425,1,1,146.305,0.8888888888888888,1,object_10,1,1085,0,8,4,desert_23,1,memory-2step-stake-s,571,1443924,0.0-18.0-0.0-0.70,3688,1,2
71,2,object_05,object_01,713.065,3,1,119.24,0.8888888888888888,1,object_10,1,1093,0,8,6,forest_27,1,memory-2step-stake-s,572,1452142,0.0-18.0-0.0-0.71,3688,3,4
72,4,object_04,object_07,577.04,7,1,107.16,0.6666666666666666,1,object_10,5,1123,0,6,3,restaurant_30,1,memory-2step-stake-s,573,1460129,0.0-18.0-0.0-0.72,3688,7,8
73,2,object_05,object_01,628.18,4,2,22.43999997,0.4444444444444444,2,object_02,1,1127,0,4,4,forest_32,1,memory-2step-stake-s,574,1467849,0.0-18.0-0.0-0.73,3688,3,4
74,3,object_09,object_06,530.45,5,2,104.61,0.4444444444444444,1,object_10,5,1147,0,4,4,library_17,1,memory-2step-stake-s,575,1475631,0.0-18.0-0.0-0.74,3688,6,5
75,1,object_08,object_03,888.185,2,2,236.105,0.1111111111111111,2,object_02,1,1148,0,2,1,desert_14,1,memory-2step-stake-s,576,1483252,0.0-18.0-0.0-0.75,3688,1,2
76,4,object_07,object_04,600.34,7,2,113.395,0.4444444444444444,1,object_10,5,1168,0,4,1,restaurant_16,1,memory-2step-stake-s,577,1491057,0.0-18.0-0.0-0.76,3688,8,7
77,3,object_06,object_09,521.245,5,1,68.25999997,0.4444444444444444,1,object_10,5,1188,0,4,2,library_6,1,memory-2step-stake-s,578,1498820,0.0-18.0-0.0-0.77,3688,5,6
78,2,object_05,object_01,850.755,4,2,222.29,0.2222222222222222,2,object_02,1,1190,0,3,2,forest_22,1,memory-2step-stake-s,579,1506517,0.0-18.0-0.0-0.78,3688,3,4
79,2,object_05,object_01,663.24,3,1,72.46500003,0.1111111111111111,1,object_10,5,1195,0,1,5,forest_17,1,memory-2step-stake-s,580,1513956,0.0-18.0-0.0-0.79,3688,3,4
80,1,object_03,object_08,912.925,2,1,238.4,0.8888888888888888,2,object_02,5,1235,0,2,8,desert_7,1,memory-2step-stake-s,581,1522291,0.0-18.0-0.0-0.80,3688,2,1
81,2,object_05,object_01,943.41,4,2,123.97,0.7777777777777778,2,object_02,1,1242,0,3,7,forest_18,1,memory-2step-stake-s,582,1530409,0.0-18.0-0.0-0.81,3688,3,4
82,4,object_04,object_07,698.48,8,2,207.655,0.6666666666666666,2,object_02,5,1272,0,0,6,restaurant_24,1,memory-2step-stake-s,583,1538509,0.0-18.0-0.0-0.82,3688,7,8
83,4,object_04,object_07,503.865,8,2,260.01,0.4444444444444444,2,object_02,5,1292,0,2,4,restaurant_15,1,memory-2step-stake-s,584,1546465,0.0-18.0-0.0-0.83,3688,7,8
84,1,object_03,object_08,454.4099999,2,1,249.985,0.4444444444444444,2,object_02,1,1296,0,0,4,desert_10,1,memory-2step-stake-s,585,1554413,0.0-18.0-0.0-0.84,3688,2,1
85,1,object_08,object_03,535.895,1,1,204.355,0.0,1,object_10,5,1296,0,0,5,desert_7,1,memory-2step-stake-s,586,1561895,0.0-18.0-0.0-0.85,3688,1,2
86,4,object_04,object_07,781.41,8,2,260.15,0.4444444444444444,2,object_02,5,1316,0,2,4,restaurant_20,1,memory-2step-stake-s,587,1569847,0.0-18.0-0.0-0.86,3688,7,8
87,4,object_04,object_07,599.885,7,1,4.634999961,0.5555555555555556,1,object_10,1,1321,0,5,6,restaurant_8,1,memory-2step-stake-s,588,1577648,0.0-18.0-0.0-0.87,3688,7,8
88,2,object_05,object_01,682.0,3,1,179.79,0.5555555555555556,1,object_10,1,1326,0,5,2,forest_29,1,memory-2step-stake-s,589,1585626,0.0-18.0-0.0-0.88,3688,3,4
89,1,object_08,object_03,600.63,2,2,62.67999997,0.3333333333333333,2,object_02,1,1329,0,3,3,desert_23,1,memory-2step-stake-s,590,1593274,0.0-18.0-0.0-0.89,3688,1,2
90,3,object_06,object_09,511.385,5,1,425.585,0.4444444444444444,1,object_10,5,1349,0,4,1,library_4,1,memory-2step-stake-s,591,1601392,0.0-18.0-0.0-0.90,3688,5,6
91,1,object_03,object_08,498.14,2,1,450.025,0.3333333333333333,2,object_02,1,1352,0,3,3,desert_19,1,memory-2step-stake-s,592,1609377,0.0-18.0-0.0-0.91,3688,2,1
92,3,object_09,object_06,614.595,6,1,54.83000004,0.8888888888888888,2,object_02,5,1392,0,5,8,library_1,1,memory-2step-stake-s,593,1617562,0.0-18.0-0.0-0.92,3688,6,5
93,4,object_07,object_04,592.85,8,1,193.16,0.5555555555555556,2,object_02,5,1417,0,8,5,restaurant_14,1,memory-2step-stake-s,594,1625549,0.0-18.0-0.0-0.93,3688,8,7
94,2,object_05,object_01,593.215,4,2,103.475,0.8888888888888888,2,object_02,5,1457,0,6,8,forest_3,1,memory-2step-stake-s,595,1633724,0.0-18.0-0.0-0.94,3688,3,4
95,1,object_08,object_03,630.6,1,1,184.475,0.4444444444444444,1,object_10,1,1461,0,4,6,desert_13,1,memory-2step-stake-s,596,1641612,0.0-18.0-0.0-0.95,3688,1,2
96,3,object_09,object_06,587.695,6,1,133.88,0.6666666666666666,2,object_02,5,1491,0,6,6,library_30,1,memory-2step-stake-s,597,1649595,0.0-18.0-0.0-0.96,3688,6,5
97,3,object_09,object_06,536.9,6,1,271.175,0.7777777777777778,2,object_02,5,1526,0,6,7,library_21,1,memory-2step-stake-s,598,1657863,0.0-18.0-0.0-0.97,3688,6,5
98,3,object_09,object_06,440.96,6,1,331.975,0.7777777777777778,2,object_02,5,1561,0,7,7,library_27,1,memory-2step-stake-s,599,1666182,0.0-18.0-0.0-0.98,3688,6,5
99,3,object_06,object_09,1091.705,6,2,327.77,0.8888888888888888,2,object_02,1,1569,0,6,8,library_4,1,memory-2step-stake-s,600,1674622,0.0-18.0-0.0-0.99,3688,5,6
100,4,object_04,object_07,657.595,8,2,278.89,0.6666666666666666,2,object_02,5,1599,0,6,6,restaurant_23,1,memory-2step-stake-s,601,1682806,0.0-18.0-0.0-0.100,3688,7,8
101,3,object_09,object_06,494.9249999,6,1,261.915,0.6666666666666666,2,object_02,5,1629,0,6,6,library_16,1,memory-2step-stake-s,602,1690980,0.0-18.0-0.0-0.101,3688,6,5
102,1,object_03,object_08,637.87,1,2,259.21,0.6666666666666666,1,object_10,1,1635,0,6,5,desert_6,1,memory-2step-stake-s,603,1699122,0.0-18.0-0.0-0.102,3688,2,1
103,3,object_06,object_09,930.005,5,1,869.495,0.5555555555555556,1,object_10,1,1640,0,5,9,library_7,1,memory-2step-stake-s,604,1707774,0.0-18.0-0.0-0.103,3688,5,6
104,3,object_06,object_09,442.795,5,1,11.47500001,0.3333333333333333,1,object_10,5,1655,0,3,6,library_28,1,memory-2step-stake-s,605,1715364,0.0-18.0-0.0-0.104,3688,5,6
105,2,object_01,object_05,785.955,3,2,217.13,0.4444444444444444,1,object_10,1,1659,0,4,4,forest_2,1,memory-2step-stake-s,606,1723277,0.0-18.0-0.0-0.105,3688,4,3
106,3,object_09,object_06,520.39,5,2,191.515,0.4444444444444444,1,object_10,5,1679,0,4,5,library_31,1,memory-2step-stake-s,607,1731135,0.0-18.0-0.0-0.106,3688,6,5
107,4,object_04,object_07,498.865,7,1,220.475,1.0,1,object_10,1,1688,0,9,1,restaurant_24,1,memory-2step-stake-s,608,1739553,0.0-18.0-0.0-0.107,3688,7,8
108,2,object_05,object_01,481.635,4,2,118.65,0.1111111111111111,2,object_02,1,1689,0,8,1,forest_25,1,memory-2step-stake-s,609,1747060,0.0-18.0-0.0-0.108,3688,3,4
109,1,object_03,object_08,704.67,1,2,239.42,0.5555555555555556,1,object_10,1,1694,0,5,4,desert_17,1,memory-2step-stake-s,610,1755111,0.0-18.0-0.0-0.109,3688,2,1
110,4,object_04,object_07,451.65,8,2,183.895,0.4444444444444444,2,object_02,5,1714,0,5,4,restaurant_19,1,memory-2step-stake-s,611,1762976,0.0-18.0-0.0-0.110,3688,7,8
111,1,object_03,object_08,477.09,2,1,121.225,0.3333333333333333,2,object_02,1,1717,0,7,3,desert_17,1,memory-2step-stake-s,612,1770699,0.0-18.0-0.0-0.111,3688,2,1
112,1,object_03,object_08,473.025,1,2,239.065,1.0,1,object_10,1,1726,0,9,6,desert_18,1,memory-2step-stake-s,613,1779135,0.0-18.0-0.0-0.112,3688,2,1
113,2,object_01,object_05,832.13,3,2,318.1,0.7777777777777778,1,object_10,1,1733,0,7,4,forest_8,1,memory-2step-stake-s,614,1787457,0.0-18.0-0.0-0.113,3688,4,3
114,4,object_07,object_04,479.89,7,2,167.62,0.7777777777777778,1,object_10,5,1768,0,7,2,restaurant_21,1,memory-2step-stake-s,615,1795635,0.0-18.0-0.0-0.114,3688,8,7
115,3,object_09,object_06,560.75,5,2,17.18999998,0.7777777777777778,1,object_10,5,1803,0,7,2,library_27,1,memory-2step-stake-s,616,1803663,0.0-18.0-0.0-0.115,3688,6,5
116,2,object_01,object_05,868.255,4,1,273.67,0.3333333333333333,2,object_02,5,1818,0,7,3,forest_4,1,memory-2step-stake-s,617,1811516,0.0-18.0-0.0-0.116,3688,4,3
117,3,object_06,object_09,726.94,5,1,308.995,0.4444444444444444,1,object_10,5,1838,0,4,2,library_15,1,memory-2step-stake-s,618,1819528,0.0-18.0-0.0-0.117,3688,5,6
118,4,object_04,object_07,662.085,8,2,266.535,0.5555555555555556,2,object_02,5,1863,0,6,5,restaurant_11,1,memory-2step-stake-s,619,1827589,0.0-18.0-0.0-0.118,3688,7,8
119,3,object_06,object_09,555.665,6,2,300.87,0.4444444444444444,2,object_02,1,1867,0,5,4,library_11,1,memory-2step-stake-s,620,1835588,0.0-18.0-0.0-0.119,3688,5,6
120,4,object_04,object_07,655.1,8,2,277.535,0.6666666666666666,2,object_02,5,1897,0,6,6,restaurant_20,1,memory-2step-stake-s,621,1843785,0.0-18.0-0.0-0.120,3688,7,8
121,2,object_01,object_05,743.48,3,2,253.545,0.5555555555555556,1,object_10,1,1902,0,5,4,forest_15,1,memory-2step-stake-s,622,1851806,0.0-18.0-0.0-0.121,3688,4,3
122,4,object_07,object_04,609.855,7,2,210.63,0.5555555555555556,1,object_10,5,1927,0,5,7,restaurant_23,1,memory-2step-stake-s,623,1859790,0.0-18.0-0.0-0.122,3688,8,7
123,2,object_05,object_01,980.915,3,1,339.62,0.8888888888888888,1,object_10,1,1935,0,8,4,forest_8,1,memory-2step-stake-s,624,1868279,0.0-18.0-0.0-0.123,3688,3,4
124,3,object_06,object_09,735.13,5,1,209.52,0.8888888888888888,1,object_10,1,1943,0,8,1,library_31,1,memory-2step-stake-s,625,1876591,0.0-18.0-0.0-0.124,3688,5,6
125,4,object_04,object_07,1049.855,7,1,322.435,0.7777777777777778,1,object_10,5,1978,0,7,2,restaurant_1,1,memory-2step-stake-s,626,1884882,0.0-18.0-0.0-0.125,3688,7,8
126,4,object_07,object_04,465.505,7,2,251.845,0.7777777777777778,1,object_10,5,2013,0,7,2,restaurant_22,1,memory-2step-stake-s,627,1893123,0.0-18.0-0.0-0.126,3688,8,7
127,2,object_01,object_05,774.07,4,1,98.91,0.1111111111111111,2,object_02,1,2014,0,7,1,forest_5,1,memory-2step-stake-s,628,1900605,0.0-18.0-0.0-0.127,3688,4,3
128,2,object_01,object_05,796.965,4,1,341.375,0.2222222222222222,2,object_02,1,2016,0,7,2,forest_25,1,memory-2step-stake-s,630,1956514,0.0-18.0-0.1-0.128,3688,4,3
129,3,object_09,object_06,497.585,5,2,324.55,0.8888888888888888,1,object_10,5,2056,0,8,4,library_4,1,memory-2step-stake-s,631,1964941,0.0-18.0-0.1-0.129,3688,6,5
130,3,object_09,object_06,441.18,5,2,249.055,0.8888888888888888,1,object_10,5,2096,0,8,2,library_3,1,memory-2step-stake-s,632,1973307,0.0-18.0-0.1-0.130,3688,6,5
131,3,object_09,object_06,448.975,5,2,276.635,0.8888888888888888,1,object_10,5,2136,0,8,3,library_32,1,memory-2step-stake-s,633,1981685,0.0-18.0-0.1-0.131,3688,6,5
132,4,object_04,object_07,593.97,7,1,285.955,0.7777777777777778,1,object_10,5,2171,0,7,3,restaurant_30,1,memory-2step-stake-s,634,1989990,0.0-18.0-0.1-0.132,3688,7,8
133,3,object_09,object_06,449.5,5,2,295.795,0.7777777777777778,1,object_10,5,2206,0,7,4,library_31,1,memory-2step-stake-s,635,1998300,0.0-18.0-0.1-0.133,3688,6,5
134,2,object_05,object_01,534.425,4,2,215.39,0.0,2,object_02,1,2206,0,5,0,forest_2,1,memory-2step-stake-s,636,2005775,0.0-18.0-0.1-0.134,3688,3,4
135,3,object_09,object_06,601.975,5,2,377.51,0.2222222222222222,1,object_10,1,2208,0,2,3,library_30,1,memory-2step-stake-s,637,2013655,0.0-18.0-0.1-0.135,3688,6,5
136,2,object_01,object_05,674.705,4,1,311.315,0.7777777777777778,2,object_02,1,2215,0,3,7,forest_22,1,memory-2step-stake-s,638,2021974,0.0-18.0-0.1-0.136,3688,4,3
137,1,object_03,object_08,705.585,2,1,76.68499998,0.5555555555555556,2,object_02,1,2220,0,2,5,desert_27,1,memory-2step-stake-s,639,2029871,0.0-18.0-0.1-0.137,3688,2,1
138,3,object_06,object_09,547.55,6,2,224.02,0.5555555555555556,2,object_02,5,2245,0,1,5,library_20,1,memory-2step-stake-s,640,2037896,0.0-18.0-0.1-0.138,3688,5,6
139,2,object_01,object_05,596.29,4,1,192.31,0.6666666666666666,2,object_02,5,2275,0,2,6,forest_32,1,memory-2step-stake-s,641,2045967,0.0-18.0-0.1-0.139,3688,4,3
140,3,object_06,object_09,789.615,6,2,332.795,0.7777777777777778,2,object_02,5,2310,0,4,7,library_15,1,memory-2step-stake-s,642,2054283,0.0-18.0-0.1-0.140,3688,5,6
141,1,object_08,object_03,534.365,1,1,34.77500001,0.0,1,object_10,1,2310,0,0,9,desert_10,1,memory-2step-stake-s,643,2061554,0.0-18.0-0.1-0.141,3688,1,2
142,4,object_07,object_04,894.6999999,7,2,228.675,0.4444444444444444,1,object_10,5,2330,0,4,8,restaurant_4,1,memory-2step-stake-s,644,2069465,0.0-18.0-0.1-0.142,3688,8,7
143,1,object_03,object_08,706.675,1,2,234.65,0.6666666666666666,1,object_10,1,2336,0,6,9,desert_12,1,memory-2step-stake-s,645,2077590,0.0-18.0-0.1-0.143,3688,2,1
144,3,object_06,object_09,869.52,5,1,301.06,0.6666666666666666,1,object_10,5,2366,0,6,6,library_32,1,memory-2step-stake-s,646,2085777,0.0-18.0-0.1-0.144,3688,5,6
145,4,object_07,object_04,448.5,7,2,255.29,0.5555555555555556,1,object_10,5,2391,0,5,7,restaurant_15,1,memory-2step-stake-s,647,2093816,0.0-18.0-0.1-0.145,3688,8,7
146,4,object_07,object_04,376.385,7,2,293.635,0.3333333333333333,1,object_10,5,2406,0,3,8,restaurant_16,1,memory-2step-stake-s,648,2101701,0.0-18.0-0.1-0.146,3688,8,7
147,1,object_08,object_03,655.895,2,2,226.73,0.8888888888888888,2,object_02,1,2414,0,8,8,desert_26,1,memory-2step-stake-s,649,2110044,0.0-18.0-0.1-0.147,3688,1,2
148,2,object_01,object_05,682.775,3,2,349.96,0.8888888888888888,1,object_10,1,2422,0,8,9,forest_5,1,memory-2step-stake-s,650,2118499,0.0-18.0-0.1-0.148,3688,4,3
149,2,object_05,object_01,765.25,3,1,239.33,0.6666666666666666,1,object_10,5,2452,0,6,8,forest_21,1,memory-2step-stake-s,651,2126626,0.0-18.0-0.1-0.149,3688,3,4
150,1,object_03,object_08,553.965,1,2,236.875,0.5555555555555556,1,object_10,5,2477,0,5,8,desert_14,1,memory-2step-stake-s,652,2134634,0.0-18.0-0.1-0.150,3688,2,1
151,3,object_06,object_09,539.925,6,2,220.53,0.7777777777777778,2,object_02,1,2484,0,7,7,library_30,1,memory-2step-stake-s,653,2142862,0.0-18.0-0.1-0.151,3688,5,6
152,4,object_07,object_04,682.585,8,1,179.35,0.5555555555555556,2,object_02,5,2509,0,4,5,restaurant_14,1,memory-2step-stake-s,654,2150827,0.0-18.0-0.1-0.152,3688,8,7
153,1,object_03,object_08,556.68,2,1,288.99,0.5555555555555556,2,object_02,1,2514,0,2,5,desert_21,1,memory-2step-stake-s,655,2158906,0.0-18.0-0.1-0.153,3688,2,1
154,1,object_08,object_03,502.88,2,2,202.785,0.2222222222222222,2,object_02,1,2516,0,2,2,desert_21,1,memory-2step-stake-s,656,2166607,0.0-18.0-0.1-0.154,3688,1,2
155,3,object_09,object_06,474.735,5,2,238.275,0.1111111111111111,1,object_10,5,2521,0,1,1,library_7,1,memory-2step-stake-s,657,2174236,0.0-18.0-0.1-0.155,3688,6,5
156,4,object_04,object_07,633.36,8,2,394.35,0.1111111111111111,2,object_02,5,2526,0,5,1,restaurant_1,1,memory-2step-stake-s,658,2182018,0.0-18.0-0.1-0.156,3688,7,8
157,4,object_07,object_04,625.6950001,7,2,167.095,0.1111111111111111,1,object_10,5,2531,0,1,3,restaurant_30,1,memory-2step-stake-s,659,2189533,0.0-18.0-0.1-0.157,3688,8,7
158,2,object_01,object_05,849.03,3,2,255.58,0.1111111111111111,1,object_10,5,2536,0,1,0,forest_32,1,memory-2step-stake-s,660,2197176,0.0-18.0-0.1-0.158,3688,4,3
159,2,object_05,object_01,759.845,4,2,285.49,0.0,2,object_02,5,2536,0,0,0,forest_27,1,memory-2step-stake-s,661,2204730,0.0-18.0-0.1-0.159,3688,3,4
160,4,object_04,object_07,572.06,8,2,292.73,0.5555555555555556,2,object_02,1,2541,0,1,5,restaurant_31,1,memory-2step-stake-s,662,2212809,0.0-18.0-0.1-0.160,3688,7,8
161,4,object_04,object_07,554.245,8,2,419.25,0.4444444444444444,2,object_02,1,2545,0,0,4,restaurant_21,1,memory-2step-stake-s,663,2220924,0.0-18.0-0.1-0.161,3688,7,8
162,2,object_01,object_05,1006.28,3,2,287.06,0.1111111111111111,1,object_10,1,2546,0,1,5,forest_15,1,memory-2step-stake-s,664,2228557,0.0-18.0-0.1-0.162,3688,4,3
163,4,object_04,object_07,776.0050001,8,2,322.96,0.3333333333333333,2,object_02,1,2549,0,3,3,restaurant_11,1,memory-2step-stake-s,665,2236478,0.0-18.0-0.1-0.163,3688,7,8
164,1,object_08,object_03,507.565,1,1,236.545,0.2222222222222222,1,object_10,1,2551,0,2,6,desert_27,1,memory-2step-stake-s,666,2244193,0.0-18.0-0.1-0.164,3688,1,2
165,2,object_05,object_01,654.315,4,2,163.51,0.3333333333333333,2,object_02,1,2554,0,2,3,forest_21,1,memory-2step-stake-s,667,2251903,0.0-18.0-0.1-0.165,3688,3,4
166,2,object_05,object_01,712.525,3,1,250.48,0.3333333333333333,1,object_10,5,2569,0,3,3,forest_4,1,memory-2step-stake-s,668,2259759,0.0-18.0-0.1-0.166,3688,3,4
167,2,object_01,object_05,724.99,4,1,316.355,0.5555555555555556,2,object_02,5,2594,0,4,5,forest_17,1,memory-2step-stake-s,669,2267871,0.0-18.0-0.1-0.167,3688,4,3
168,3,object_06,object_09,596.33,6,2,193.445,0.8888888888888888,2,object_02,1,2602,0,4,8,library_32,1,memory-2step-stake-s,670,2276148,0.0-18.0-0.1-0.168,3688,5,6
169,4,object_07,object_04,560.89,8,1,230.94,0.6666666666666666,2,object_02,5,2632,0,7,6,restaurant_19,1,memory-2step-stake-s,671,2284263,0.0-18.0-0.1-0.169,3688,8,7
170,4,object_04,object_07,518.975,8,2,361.445,0.4444444444444444,2,object_02,5,2652,0,4,4,restaurant_16,1,memory-2step-stake-s,672,2292316,0.0-18.0-0.1-0.170,3688,7,8
171,4,object_04,object_07,562.15,7,1,451.71,0.3333333333333333,1,object_10,1,2655,0,3,3,restaurant_24,1,memory-2step-stake-s,673,2300340,0.0-18.0-0.1-0.171,3688,7,8
172,1,object_08,object_03,473.715,2,2,208.825,0.3333333333333333,2,object_02,5,2670,0,4,3,desert_21,1,memory-2step-stake-s,674,2308134,0.0-18.0-0.1-0.172,3688,1,2
173,1,object_03,object_08,497.33,1,2,39.60000002,0.3333333333333333,1,object_10,1,2673,0,3,4,desert_14,1,memory-2step-stake-s,675,2315742,0.0-18.0-0.1-0.173,3688,2,1
174,1,object_03,object_08,479.825,1,2,235.87,0.1111111111111111,1,object_10,5,2678,0,1,8,desert_30,1,memory-2step-stake-s,676,2323371,0.0-18.0-0.1-0.174,3688,2,1
175,3,object_06,object_09,381.515,6,2,273.94,0.7777777777777778,2,object_02,5,2713,0,1,7,library_15,1,memory-2step-stake-s,677,2331613,0.0-18.0-0.1-0.175,3688,5,6
176,4,object_04,object_07,705.255,8,2,326.25,0.8888888888888888,2,object_02,1,2721,0,1,8,restaurant_4,1,memory-2step-stake-s,678,2340045,0.0-18.0-0.1-0.176,3688,7,8
177,1,object_03,object_08,640.715,2,1,1432.615,1.0,2,object_02,1,2730,0,2,9,desert_26,1,memory-2step-stake-s,679,2349698,0.0-18.0-0.1-0.177,3688,2,1
178,1,object_08,object_03,617.48,2,2,457.65,1.0,2,object_02,5,2775,0,1,9,desert_18,1,memory-2step-stake-s,680,2358357,0.0-18.0-0.1-0.178,3688,1,2
179,3,object_06,object_09,544.84,6,2,183.445,0.4444444444444444,2,object_02,5,2795,0,3,4,library_16,1,memory-2step-stake-s,681,2366213,0.0-18.0-0.1-0.179,3688,5,6
180,2,object_01,object_05,909.88,3,2,385.365,0.5555555555555556,1,object_10,1,2800,0,5,3,forest_8,1,memory-2step-stake-s,682,2374355,0.0-18.0-0.1-0.180,3688,4,3
181,4,object_07,object_04,647.66,7,2,324.835,0.3333333333333333,1,object_10,5,2815,0,3,1,restaurant_8,1,memory-2step-stake-s,683,2382242,0.0-18.0-0.1-0.181,3688,8,7
182,4,object_07,object_04,553.245,8,1,81.13500004,0.1111111111111111,2,object_02,5,2820,0,1,1,restaurant_16,1,memory-2step-stake-s,684,2389705,0.0-18.0-0.1-0.182,3688,8,7
183,2,object_05,object_01,699.635,3,1,177.94,0.2222222222222222,1,object_10,1,2822,0,2,4,forest_25,1,memory-2step-stake-s,685,2397387,0.0-18.0-0.1-0.183,3688,3,4
184,3,object_09,object_06,660.73,6,1,189.415,0.7777777777777778,2,object_02,5,2857,0,4,7,library_17,1,memory-2step-stake-s,686,2405555,0.0-18.0-0.1-0.184,3688,6,5
185,2,object_05,object_01,571.94,4,2,117.65,0.4444444444444444,2,object_02,1,2861,0,5,4,forest_2,1,memory-2step-stake-s,687,2413347,0.0-18.0-0.1-0.185,3688,3,4
186,1,object_08,object_03,583.32,2,2,297.145,0.4444444444444444,2,object_02,5,2881,0,6,4,desert_27,1,memory-2step-stake-s,688,2421336,0.0-18.0-0.1-0.186,3688,1,2
187,2,object_01,object_05,589.505,4,1,223.615,0.3333333333333333,2,object_02,1,2884,0,4,3,forest_13,1,memory-2step-stake-s,689,2429133,0.0-18.0-0.1-0.187,3688,4,3
188,1,object_03,object_08,546.935,2,1,189.28,0.5555555555555556,2,object_02,1,2889,0,4,5,desert_18,1,memory-2step-stake-s,690,2437126,0.0-18.0-0.1-0.188,3688,2,1
189,4,object_07,object_04,554.24,8,1,107.205,0.5555555555555556,2,object_02,5,2914,0,5,5,restaurant_21,1,memory-2step-stake-s,691,2445062,0.0-18.0-0.1-0.189,3688,8,7
190,4,object_04,object_07,420.86500010000003,8,2,250.19,0.6666666666666666,2,object_02,5,2944,0,6,6,restaurant_17,1,memory-2step-stake-s,692,2453184,0.0-18.0-0.1-0.190,3688,7,8
191,3,object_06,object_09,557.765,6,2,235.06,0.7777777777777778,2,object_02,1,2951,0,3,7,library_3,1,memory-2step-stake-s,693,2461414,0.0-18.0-0.1-0.191,3688,5,6
192,2,object_01,object_05,584.0499999,4,1,297.47,0.8888888888888888,2,object_02,1,2959,0,9,8,forest_5,1,memory-2step-stake-s,694,2469814,0.0-18.0-0.1-0.192,3688,4,3
193,2,object_01,object_05,642.48,4,1,312.54,0.6666666666666666,2,object_02,1,2965,0,7,6,forest_8,1,memory-2step-stake-s,695,2478020,0.0-18.0-0.1-0.193,3688,4,3
194,1,object_03,object_08,592.545,2,1,264.87,0.4444444444444444,2,object_02,1,2969,0,7,4,desert_13,1,memory-2step-stake-s,696,2485985,0.0-18.0-0.1-0.194,3688,2,1
195,1,object_08,object_03,508.095,1,1,16.70500002,1.0,1,object_10,1,2978,0,9,3,desert_12,1,memory-2step-stake-s,697,2494205,0.0-18.0-0.1-0.195,3688,1,2
196,4,object_07,object_04,650.245,7,2,301.27,0.5555555555555556,1,object_10,5,3003,0,5,2,restaurant_31,1,memory-2step-stake-s,698,2502269,0.0-18.0-0.1-0.196,3688,8,7
197,2,object_01,object_05,653.03,3,2,174.565,0.6666666666666666,1,object_10,5,3033,0,6,0,forest_4,1,memory-2step-stake-s,699,2510337,0.0-18.0-0.1-0.197,3688,4,3
198,4,object_07,object_04,575.915,7,2,135.0,0.7777777777777778,1,object_10,5,3068,0,7,3,restaurant_17,1,memory-2step-stake-s,700,2518466,0.0-18.0-0.1-0.198,3688,8,7
199,3,object_09,object_06,517.42,5,2,258.88,0.7777777777777778,1,object_10,5,3103,0,7,6,library_6,1,memory-2step-stake-s,701,2526721,0.0-18.0-0.1-0.199,3688,6,5
200,1,object_03,object_08,446.655,1,2,419.85,0.6666666666666666,1,object_10,1,3109,0,6,8,desert_8,1,memory-2step-stake-s,702,2535050,0.0-18.0-0.1-0.200,3688,2,1
201,2,object_01,object_05,591.11,3,2,389.88,0.8888888888888888,1,object_10,1,3117,0,8,6,forest_15,1,memory-2step-stake-s,703,2543546,0.0-18.0-0.1-0.201,3688,4,3
202,3,object_09,object_06,574.825,5,2,234.79,0.7777777777777778,1,object_10,5,3152,0,7,6,library_21,1,memory-2step-stake-s,704,2551781,0.0-18.0-0.1-0.202,3688,6,5
203,2,object_05,object_01,539.31,4,2,10.94000001,0.7777777777777778,2,object_02,5,3187,0,6,7,forest_29,1,memory-2step-stake-s,705,2559785,0.0-18.0-0.1-0.203,3688,3,4
204,3,object_06,object_09,498.97,6,2,350.0,0.8888888888888888,2,object_02,5,3227,0,5,8,library_17,1,memory-2step-stake-s,706,2568227,0.0-18.0-0.1-0.204,3688,5,6
205,2,object_01,object_05,604.235,3,2,236.44,0.5555555555555556,1,object_10,1,3232,0,5,8,forest_3,1,memory-2step-stake-s,707,2576246,0.0-18.0-0.1-0.205,3688,4,3
206,2,object_01,object_05,594.125,4,1,219.905,0.6666666666666666,2,object_02,1,3238,0,5,6,forest_17,1,memory-2step-stake-s,708,2584375,0.0-18.0-0.1-0.206,3688,4,3
207,2,object_05,object_01,508.18,4,2,293.44,0.4444444444444444,2,object_02,1,3242,0,1,4,forest_22,1,memory-2step-stake-s,709,2592349,0.0-18.0-0.1-0.207,3688,3,4
208,1,object_08,object_03,592.035,2,2,139.145,0.2222222222222222,2,object_02,1,3244,0,1,2,desert_10,1,memory-2step-stake-s,710,2599939,0.0-18.0-0.1-0.208,3688,1,2
209,1,object_08,object_03,437.575,1,1,327.445,0.1111111111111111,1,object_10,1,3245,0,1,2,desert_18,1,memory-2step-stake-s,711,2607649,0.0-18.0-0.1-0.209,3688,1,2
210,2,object_01,object_05,580.495,3,2,277.105,0.2222222222222222,1,object_10,1,3247,0,2,3,forest_18,1,memory-2step-stake-s,712,2615418,0.0-18.0-0.1-0.210,3688,4,3
211,2,object_05,object_01,629.315,4,2,215.08,0.4444444444444444,2,object_02,5,3267,0,3,4,forest_9,1,memory-2step-stake-s,713,2623305,0.0-18.0-0.1-0.211,3688,3,4
212,1,object_03,object_08,523.91,2,1,210.98,0.2222222222222222,2,object_02,1,3269,0,6,2,desert_30,1,memory-2step-stake-s,714,2630976,0.0-18.0-0.1-0.212,3688,2,1
213,3,object_06,object_09,597.905,5,1,137.35,0.7777777777777778,1,object_10,5,3304,0,7,2,library_21,1,memory-2step-stake-s,715,2639153,0.0-18.0-0.1-0.213,3688,5,6
214,2,object_01,object_05,526.78,4,1,6.869999983,0.0,2,object_02,1,3304,0,7,0,forest_29,1,memory-2step-stake-s,716,2646428,0.0-18.0-0.1-0.214,3688,4,3
215,4,object_04,object_07,718.745,7,1,291.905,0.5555555555555556,1,object_10,5,3329,0,5,2,restaurant_22,1,memory-2step-stake-s,717,2654507,0.0-18.0-0.1-0.215,3688,7,8
216,2,object_05,object_01,557.66,3,1,23.53000001,0.3333333333333333,1,object_10,1,3332,0,3,3,forest_9,1,memory-2step-stake-s,718,2662099,0.0-18.0-0.1-0.216,3688,3,4
217,4,object_07,object_04,573.715,8,1,143.385,0.1111111111111111,2,object_02,5,3337,0,4,1,restaurant_11,1,memory-2step-stake-s,719,2669625,0.0-18.0-0.1-0.217,3688,8,7
218,2,object_05,object_01,653.84,3,1,309.515,0.4444444444444444,1,object_10,1,3341,0,4,1,forest_13,1,memory-2step-stake-s,720,2677629,0.0-18.0-0.1-0.218,3688,3,4
219,4,object_04,object_07,488.48,7,1,114.19,0.1111111111111111,1,object_10,5,3346,0,1,1,restaurant_17,1,memory-2step-stake-s,721,2685093,0.0-18.0-0.1-0.219,3688,7,8
220,4,object_04,object_07,438.275,8,2,215.5,0.2222222222222222,2,object_02,5,3356,0,2,2,restaurant_14,1,memory-2step-stake-s,722,2692782,0.0-18.0-0.1-0.220,3688,7,8
221,4,object_04,object_07,922.415,8,2,302.92,0.1111111111111111,2,object_02,5,3361,0,2,1,restaurant_1,1,memory-2step-stake-s,723,2700440,0.0-18.0-0.1-0.221,3688,7,8
222,3,object_09,object_06,715.215,5,2,334.5999999,0.2222222222222222,1,object_10,5,3371,0,2,3,library_28,1,memory-2step-stake-s,724,2708210,0.0-18.0-0.1-0.222,3688,6,5
223,1,object_03,object_08,536.875,1,2,256.7349999,0.0,1,object_10,1,3371,0,0,3,desert_21,1,memory-2step-stake-s,725,2715742,0.0-18.0-0.1-0.223,3688,2,1
224,3,object_06,object_09,546.17,6,2,13.905,0.5555555555555556,2,object_02,5,3396,0,2,5,library_1,1,memory-2step-stake-s,726,2723530,0.0-18.0-0.1-0.224,3688,5,6
225,1,object_03,object_08,382.46,2,1,205.435,0.3333333333333333,2,object_02,1,3399,0,2,3,desert_13,1,memory-2step-stake-s,727,2731322,0.0-18.0-0.1-0.225,3688,2,1
226,1,object_03,object_08,514.59,2,1,255.07,0.3333333333333333,2,object_02,1,3402,0,7,3,desert_17,1,memory-2step-stake-s,728,2739149,0.0-18.0-0.1-0.226,3688,2,1
227,1,object_03,object_08,497.66,2,1,112.645,0.1111111111111111,2,object_02,5,3407,0,8,1,desert_7,1,memory-2step-stake-s,729,2746630,0.0-18.0-0.1-0.227,3688,2,1
228,2,object_05,object_01,693.935,4,2,310.225,0.2222222222222222,2,object_02,1,3409,0,8,2,forest_3,1,memory-2step-stake-s,730,2754384,0.0-18.0-0.1-0.228,3688,3,4
229,1,object_08,object_03,545.975,2,2,245.44,0.2222222222222222,2,object_02,5,3419,0,7,2,desert_30,1,memory-2step-stake-s,731,2762109,0.0-18.0-0.1-0.229,3688,1,2
230,3,object_06,object_09,1030.27,5,1,301.175,0.3333333333333333,1,object_10,5,3434,0,3,3,library_6,1,memory-2step-stake-s,732,2769994,0.0-18.0-0.1-0.230,3688,5,6
231,4,object_07,object_04,660.815,8,1,169.29,0.4444444444444444,2,object_02,5,3454,0,2,4,restaurant_30,1,memory-2step-stake-s,733,2777843,0.0-18.0-0.1-0.231,3688,8,7
232,1,object_03,object_08,445.695,2,1,292.575,0.4444444444444444,2,object_02,1,3458,0,3,4,desert_19,1,memory-2step-stake-s,734,2785821,0.0-18.0-0.1-0.232,3688,2,1
233,4,object_07,object_04,541.335,8,1,201.565,0.5555555555555556,2,object_02,5,3483,0,6,5,restaurant_11,1,memory-2step-stake-s,735,2793817,0.0-18.0-0.1-0.233,3688,8,7
234,1,object_08,object_03,967.505,2,2,288.02,0.5555555555555556,2,object_02,1,3488,0,5,5,desert_8,1,memory-2step-stake-s,736,2801911,0.0-18.0-0.1-0.234,3688,1,2
235,2,object_01,object_05,605.935,4,1,286.325,0.6666666666666666,2,object_02,1,3494,0,3,6,forest_27,1,memory-2step-stake-s,737,2810098,0.0-18.0-0.1-0.235,3688,4,3
236,1,object_08,object_03,628.275,2,2,608.115,0.6666666666666666,2,object_02,1,3500,0,3,6,desert_13,1,memory-2step-stake-s,738,2818578,0.0-18.0-0.1-0.236,3688,1,2
237,1,object_03,object_08,405.71,2,1,561.505,0.7777777777777778,2,object_02,1,3507,0,1,7,desert_14,1,memory-2step-stake-s,739,2827114,0.0-18.0-0.1-0.237,3688,2,1
238,4,object_07,object_04,485.625,8,1,48.32,0.8888888888888888,2,object_02,5,3547,0,3,8,restaurant_19,1,memory-2step-stake-s,740,2835277,0.0-18.0-0.1-0.238,3688,8,7
239,1,object_08,object_03,588.085,2,2,269.065,0.8888888888888888,2,object_02,5,3587,0,5,8,desert_23,1,memory-2step-stake-s,741,2843685,0.0-18.0-0.1-0.239,3688,1,2
240,1,object_03,object_08,409.615,2,1,1133.79,0.6666666666666666,2,object_02,1,3593,0,4,6,desert_3,1,memory-2step-stake-s,742,2852682,0.0-18.0-0.1-0.240,3688,2,1
241,3,object_09,object_06,622.4,6,1,391.015,0.8888888888888888,2,object_02,5,3633,0,6,8,library_4,1,memory-2step-stake-s,743,2861206,0.0-18.0-0.1-0.241,3688,6,5
242,1,object_03,object_08,651.325,2,1,651.585,0.8888888888888888,2,object_02,1,3641,0,7,8,desert_30,1,memory-2step-stake-s,744,2869961,0.0-18.0-0.1-0.242,3688,2,1
243,4,object_04,object_07,1117.415,8,2,401.785,0.8888888888888888,2,object_02,5,3681,0,4,8,restaurant_4,1,memory-2step-stake-s,745,2878510,0.0-18.0-0.1-0.243,3688,7,8
244,1,object_03,object_08,540.425,2,1,481.865,0.8888888888888888,2,object_02,1,3689,0,2,8,desert_3,1,memory-2step-stake-s,746,2887069,0.0-18.0-0.1-0.244,3688,2,1
245,3,object_09,object_06,727.29,6,1,353.145,0.7777777777777778,2,object_02,5,3724,0,6,7,library_1,1,memory-2step-stake-s,747,2895422,0.0-18.0-0.1-0.245,3688,6,5
246,2,object_05,object_01,634.385,4,2,475.125,0.7777777777777778,2,object_02,1,3731,0,6,7,forest_9,1,memory-2step-stake-s,748,2903920,0.0-18.0-0.1-0.246,3688,3,4
247,4,object_07,object_04,586.355,8,1,274.19,0.8888888888888888,2,object_02,5,3771,0,7,8,restaurant_22,1,memory-2step-stake-s,749,2912263,0.0-18.0-0.1-0.247,3688,8,7
248,1,object_03,object_08,530.19,2,1,220.445,0.8888888888888888,2,object_02,1,3779,0,8,8,desert_6,1,memory-2step-stake-s,750,2920555,0.0-18.0-0.1-0.248,3688,2,1
249,3,object_09,object_06,708.695,6,1,297.875,0.8888888888888888,2,object_02,1,3787,0,5,8,library_27,1,memory-2step-stake-s,751,2928959,0.0-18.0-0.1-0.249,3688,6,5
250,2,object_05,object_01,659.04,4,2,733.845,0.5555555555555556,2,object_02,1,3792,0,4,5,forest_15,1,memory-2step-stake-s,752,2937490,0.0-18.0-0.1-0.250,3688,3,4
251,3,object_09,object_06,492.075,6,1,28.44999998,0.7777777777777778,2,object_02,5,3827,0,7,7,library_7,1,memory-2step-stake-s,753,2945506,0.0-18.0-0.1-0.251,3688,6,5
252,1,object_03,object_08,643.58,2,1,269.89,0.4444444444444444,2,object_02,5,3847,0,8,4,desert_26,1,memory-2step-stake-s,754,2953459,0.0-18.0-0.1-0.252,3688,2,1
253,1,object_08,object_03,548.275,2,2,265.84,0.3333333333333333,2,object_02,5,3862,0,8,3,desert_26,1,memory-2step-stake-s,755,2961273,0.0-18.0-0.1-0.253,3688,1,2
254,4,object_04,object_07,547.5,7,1,66.65499997,0.4444444444444444,1,object_10,1,3866,0,4,4,restaurant_8,1,memory-2step-stake-s,756,2969033,0.0-18.0-0.1-0.254,3688,7,8
255,3,object_09,object_06,695.905,5,2,657.935,0.1111111111111111,1,object_10,5,3871,0,1,6,library_30,1,memory-2step-stake-s,757,2977061,0.0-18.0-0.1-0.255,3688,6,5
