,state1,stim_left,stim_right,rt_1,choice1,response1,rt_2,points,state2,stim_state2,stake,score,practice,rews1,rews2,background,high_arm,trial_type,trial_index,time_elapsed,internal_node_id,subid,stim_left_num,stim_right_num
0,3,object_03,object_04,1070.0,6,2,1361.0,0.8888888888888888,2,object_07,1,8,0,3,8,library_3,1,memory-2step-stake-s,492,1114828,0.0-18.0-0.0-0.0,4398,5,6
1,4,object_09,object_08,1006.0,8,1,760.0,0.7777777777777778,2,object_07,5,43,0,1,7,restaurant_6,1,memory-2step-stake-s,493,1123516,0.0-18.0-0.0-0.1,4398,8,7
2,1,object_06,object_10,603.0,1,2,803.0,0.0,1,object_01,5,43,0,0,7,desert_10,1,memory-2step-stake-s,494,1131536,0.0-18.0-0.0-0.2,4398,2,1
3,3,object_04,object_03,926.0,5,2,796.0,0.1111111111111111,1,object_01,1,44,0,1,7,library_20,1,memory-2step-stake-s,495,1139650,0.0-18.0-0.0-0.3,4398,6,5
4,3,object_03,object_04,910.0,5,1,719.0,0.1111111111111111,1,object_01,5,49,0,1,6,library_31,1,memory-2step-stake-s,496,1147686,0.0-18.0-0.0-0.4,4398,5,6
5,3,object_04,object_03,-1.0,-1,-1,-1.0,0.0,-,,1,49,0,1,5,library_4,1,memory-2step-stake-s,497,1154196,0.0-18.0-0.0-0.5,4398,6,5
6,1,object_06,object_10,743.0,2,1,481.0,0.7777777777777778,2,object_07,1,56,0,1,7,desert_24,1,memory-2step-stake-s,498,1162602,0.0-18.0-0.0-0.6,4398,2,1
7,4,object_08,object_09,763.0,8,2,495.0,0.7777777777777778,2,object_07,5,91,0,1,7,restaurant_30,1,memory-2step-stake-s,499,1171024,0.0-18.0-0.0-0.7,4398,7,8
8,4,object_09,object_08,1118.0,7,2,490.0,0.0,1,object_01,1,91,0,0,7,restaurant_17,1,memory-2step-stake-s,500,1178731,0.0-18.0-0.0-0.8,4398,8,7
9,2,object_05,object_02,1045.0,4,2,625.0,0.7777777777777778,2,object_07,1,98,0,2,7,forest_23,1,memory-2step-stake-s,501,1187285,0.0-18.0-0.0-0.9,4398,3,4
10,3,object_04,object_03,725.0,5,2,493.0,0.1111111111111111,1,object_01,5,103,0,1,8,library_27,1,memory-2step-stake-s,502,1195097,0.0-18.0-0.0-0.10,4398,6,5
11,1,object_06,object_10,1200.0,1,2,754.0,0.1111111111111111,1,object_01,1,104,0,1,9,desert_10,1,memory-2step-stake-s,503,1203170,0.0-18.0-0.0-0.11,4398,2,1
12,3,object_04,object_03,495.0,6,1,491.0,0.7777777777777778,2,object_07,5,139,0,2,7,library_15,1,memory-2step-stake-s,504,1211587,0.0-18.0-0.0-0.12,4398,6,5
13,2,object_05,object_02,760.0,3,1,658.0,0.0,1,object_01,1,139,0,0,6,forest_18,1,memory-2step-stake-s,505,1219465,0.0-18.0-0.0-0.13,4398,3,4
14,3,object_03,object_04,731.0,6,2,454.0,0.4444444444444444,2,object_07,5,159,0,1,4,library_24,1,memory-2step-stake-s,506,1227542,0.0-18.0-0.0-0.14,4398,5,6
15,2,object_02,object_05,-1.0,-1,-1,-1.0,0.0,-,,1,159,0,0,0,forest_15,1,memory-2step-stake-s,507,1234053,0.0-18.0-0.0-0.15,4398,4,3
16,1,object_10,object_06,778.0,2,2,509.0,0.2222222222222222,2,object_07,5,169,0,3,2,desert_30,1,memory-2step-stake-s,508,1241980,0.0-18.0-0.0-0.16,4398,1,2
17,2,object_02,object_05,834.0,4,1,538.0,0.5555555555555556,2,object_07,1,174,0,3,5,forest_18,1,memory-2step-stake-s,509,1250240,0.0-18.0-0.0-0.17,4398,4,3
18,1,object_06,object_10,605.0,1,2,494.0,0.4444444444444444,1,object_01,1,178,0,4,4,desert_13,1,memory-2step-stake-s,510,1258352,0.0-18.0-0.0-0.18,4398,2,1
19,3,object_04,object_03,657.0,5,2,423.0,0.4444444444444444,1,object_01,5,198,0,4,2,library_23,1,memory-2step-stake-s,511,1266397,0.0-18.0-0.0-0.19,4398,6,5
20,4,object_09,object_08,668.0,8,1,684.0,0.2222222222222222,2,object_07,5,208,0,2,2,restaurant_15,1,memory-2step-stake-s,512,1274501,0.0-18.0-0.0-0.20,4398,8,7
21,3,object_03,object_04,629.0,6,2,455.0,0.4444444444444444,2,object_07,5,228,0,1,4,library_26,1,memory-2step-stake-s,513,1282580,0.0-18.0-0.0-0.21,4398,5,6
22,1,object_06,object_10,547.0,2,1,617.0,0.6666666666666666,2,object_07,1,234,0,1,6,desert_24,1,memory-2step-stake-s,514,1291022,0.0-18.0-0.0-0.22,4398,2,1
23,3,object_04,object_03,528.0,5,2,553.0,0.6666666666666666,1,object_01,5,264,0,6,5,library_15,1,memory-2step-stake-s,515,1299400,0.0-18.0-0.0-0.23,4398,6,5
24,4,object_08,object_09,814.0,8,2,582.0,0.8888888888888888,2,object_07,5,304,0,6,8,restaurant_18,1,memory-2step-stake-s,516,1308010,0.0-18.0-0.0-0.24,4398,7,8
25,4,object_08,object_09,757.0,7,1,477.0,0.7777777777777778,1,object_01,5,339,0,7,5,restaurant_4,1,memory-2step-stake-s,517,1316412,0.0-18.0-0.0-0.25,4398,7,8
26,2,object_02,object_05,567.0,3,2,450.0,0.7777777777777778,1,object_01,5,374,0,7,7,forest_14,1,memory-2step-stake-s,518,1324787,0.0-18.0-0.0-0.26,4398,4,3
27,1,object_06,object_10,489.0,2,1,456.0,0.8888888888888888,2,object_07,1,382,0,9,8,desert_15,1,memory-2step-stake-s,519,1333276,0.0-18.0-0.0-0.27,4398,2,1
28,2,object_05,object_02,484.0,4,2,529.0,0.5555555555555556,2,object_07,1,387,0,8,5,forest_27,1,memory-2step-stake-s,520,1341531,0.0-18.0-0.0-0.28,4398,3,4
29,2,object_05,object_02,480.0,3,1,898.0,0.7777777777777778,1,object_01,1,394,0,7,4,forest_28,1,memory-2step-stake-s,521,1350355,0.0-18.0-0.0-0.29,4398,3,4
30,1,object_10,object_06,784.0,1,1,537.0,1.0,1,object_01,1,403,0,9,3,desert_16,1,memory-2step-stake-s,522,1359020,0.0-18.0-0.0-0.30,4398,1,2
31,4,object_08,object_09,429.0,8,2,523.0,0.3333333333333333,2,object_07,5,418,0,8,3,restaurant_17,1,memory-2step-stake-s,523,1367063,0.0-18.0-0.0-0.31,4398,7,8
32,3,object_03,object_04,394.0,5,1,476.0,0.6666666666666666,1,object_01,5,448,0,6,1,library_23,1,memory-2step-stake-s,524,1375368,0.0-18.0-0.0-0.32,4398,5,6
33,2,object_05,object_02,299.0,4,2,537.0,0.3333333333333333,2,object_07,1,451,0,8,3,forest_21,1,memory-2step-stake-s,525,1383426,0.0-18.0-0.0-0.33,4398,3,4
34,3,object_04,object_03,498.0,5,2,443.0,0.6666666666666666,1,object_01,5,481,0,6,5,library_20,1,memory-2step-stake-s,526,1391694,0.0-18.0-0.0-0.34,4398,6,5
35,3,object_04,object_03,393.0,6,1,486.0,0.5555555555555556,2,object_07,5,506,0,7,5,library_5,1,memory-2step-stake-s,527,1399903,0.0-18.0-0.0-0.35,4398,6,5
36,4,object_08,object_09,585.0,8,2,588.0,0.4444444444444444,2,object_07,1,510,0,7,4,restaurant_18,1,memory-2step-stake-s,528,1408114,0.0-18.0-0.0-0.36,4398,7,8
37,2,object_05,object_02,980.0,3,1,604.0,0.7777777777777778,1,object_01,1,517,0,7,5,forest_18,1,memory-2step-stake-s,529,1416646,0.0-18.0-0.0-0.37,4398,3,4
38,3,object_03,object_04,1166.0,5,1,560.0,0.8888888888888888,1,object_01,5,557,0,8,3,library_16,1,memory-2step-stake-s,530,1425238,0.0-18.0-0.0-0.38,4398,5,6
39,3,object_03,object_04,1172.0,5,1,411.0,0.8888888888888888,1,object_01,5,597,0,8,4,library_26,1,memory-2step-stake-s,531,1433677,0.0-18.0-0.0-0.39,4398,5,6
40,2,object_02,object_05,956.0,3,2,505.0,0.6666666666666666,1,object_01,5,627,0,6,8,forest_30,1,memory-2step-stake-s,532,1442006,0.0-18.0-0.0-0.40,4398,4,3
41,3,object_04,object_03,826.0,6,1,553.0,0.5555555555555556,2,object_07,5,652,0,6,5,library_5,1,memory-2step-stake-s,533,1450282,0.0-18.0-0.0-0.41,4398,6,5
42,2,object_05,object_02,1030.0,4,2,495.0,0.5555555555555556,2,object_07,5,677,0,4,5,forest_20,1,memory-2step-stake-s,534,1458499,0.0-18.0-0.0-0.42,4398,3,4
43,1,object_10,object_06,819.0,1,1,629.0,0.5555555555555556,1,object_01,1,682,0,5,2,desert_12,1,memory-2step-stake-s,535,1466850,0.0-18.0-0.0-0.43,4398,1,2
44,4,object_09,object_08,605.0,7,2,424.0,0.6666666666666666,1,object_01,1,688,0,6,0,restaurant_6,1,memory-2step-stake-s,536,1475097,0.0-18.0-0.0-0.44,4398,8,7
45,2,object_02,object_05,981.0,3,2,435.0,0.3333333333333333,1,object_01,5,703,0,3,0,forest_21,1,memory-2step-stake-s,537,1483058,0.0-18.0-0.0-0.45,4398,4,3
46,1,object_10,object_06,976.0,1,1,638.0,0.4444444444444444,1,object_01,1,707,0,4,3,desert_17,1,memory-2step-stake-s,538,1491317,0.0-18.0-0.0-0.46,4398,1,2
47,3,object_03,object_04,927.0,6,2,403.0,0.4444444444444444,2,object_07,5,727,0,4,4,library_23,1,memory-2step-stake-s,539,1499340,0.0-18.0-0.0-0.47,4398,5,6
48,1,object_10,object_06,607.0,2,2,498.0,0.4444444444444444,2,object_07,1,731,0,2,4,desert_11,1,memory-2step-stake-s,540,1507459,0.0-18.0-0.0-0.48,4398,1,2
49,3,object_04,object_03,618.0,5,2,481.0,0.2222222222222222,1,object_01,5,741,0,2,7,library_20,1,memory-2step-stake-s,541,1515359,0.0-18.0-0.0-0.49,4398,6,5
50,1,object_10,object_06,521.0,1,1,557.0,0.3333333333333333,1,object_01,1,744,0,3,8,desert_11,1,memory-2step-stake-s,542,1523435,0.0-18.0-0.0-0.50,4398,1,2
51,3,object_03,object_04,1255.0,5,1,375.0,0.5555555555555556,1,object_01,5,769,0,5,6,library_27,1,memory-2step-stake-s,543,1531537,0.0-18.0-0.0-0.51,4398,5,6
52,3,object_03,object_04,568.0,6,2,636.0,1.0,2,object_07,5,814,0,4,9,library_9,1,memory-2step-stake-s,544,1540302,0.0-18.0-0.0-0.52,4398,5,6
53,1,object_06,object_10,843.0,1,2,532.0,0.1111111111111111,1,object_01,1,815,0,1,8,desert_19,1,memory-2step-stake-s,545,1548153,0.0-18.0-0.0-0.53,4398,2,1
54,1,object_10,object_06,1480.0,1,1,689.0,0.0,1,object_01,1,815,0,0,9,desert_12,1,memory-2step-stake-s,546,1556056,0.0-18.0-0.0-0.54,4398,1,2
55,1,object_06,object_10,1351.0,2,1,585.0,0.8888888888888888,2,object_07,1,823,0,2,8,desert_22,1,memory-2step-stake-s,547,1564666,0.0-18.0-0.0-0.55,4398,2,1
56,2,object_02,object_05,1251.0,3,2,450.0,0.1111111111111111,1,object_01,5,828,0,1,7,forest_26,1,memory-2step-stake-s,548,1572434,0.0-18.0-0.0-0.56,4398,4,3
57,1,object_06,object_10,1171.0,2,1,593.0,0.2222222222222222,2,object_07,5,838,0,3,2,desert_24,1,memory-2step-stake-s,549,1580452,0.0-18.0-0.0-0.57,4398,2,1
58,3,object_03,object_04,854.0,6,2,439.0,0.6666666666666666,2,object_07,5,868,0,5,6,library_15,1,memory-2step-stake-s,550,1588717,0.0-18.0-0.0-0.58,4398,5,6
59,4,object_08,object_09,695.0,8,2,485.0,0.4444444444444444,2,object_07,1,872,0,4,4,restaurant_12,1,memory-2step-stake-s,551,1596827,0.0-18.0-0.0-0.59,4398,7,8
60,1,object_10,object_06,782.0,1,1,441.0,0.1111111111111111,1,object_01,1,873,0,1,2,desert_10,1,memory-2step-stake-s,552,1604586,0.0-18.0-0.0-0.60,4398,1,2
61,3,object_04,object_03,882.0,5,2,497.0,0.1111111111111111,1,object_01,5,878,0,1,2,library_10,1,memory-2step-stake-s,553,1612401,0.0-18.0-0.0-0.61,4398,6,5
62,3,object_04,object_03,898.0,6,1,793.0,0.4444444444444444,2,object_07,1,882,0,4,4,library_30,1,memory-2step-stake-s,554,1620818,0.0-18.0-0.0-0.62,4398,6,5
63,3,object_04,object_03,1160.0,6,1,431.0,0.5555555555555556,2,object_07,5,907,0,5,5,library_9,1,memory-2step-stake-s,555,1628971,0.0-18.0-0.0-0.63,4398,6,5
64,4,object_08,object_09,788.0,8,2,556.0,0.4444444444444444,2,object_07,5,927,0,6,4,restaurant_3,1,memory-2step-stake-s,556,1637150,0.0-18.0-0.0-0.64,4398,7,8
65,2,object_02,object_05,925.0,4,1,492.0,0.4444444444444444,2,object_07,1,931,0,3,4,forest_2,1,memory-2step-stake-s,557,1645263,0.0-18.0-0.0-0.65,4398,4,3
66,2,object_05,object_02,912.0,3,1,455.0,0.3333333333333333,1,object_01,1,934,0,3,5,forest_18,1,memory-2step-stake-s,558,1653239,0.0-18.0-0.0-0.66,4398,3,4
67,4,object_08,object_09,1013.0,7,1,697.0,0.1111111111111111,1,object_01,5,939,0,1,6,restaurant_8,1,memory-2step-stake-s,559,1661251,0.0-18.0-0.0-0.67,4398,7,8
68,4,object_09,object_08,605.0,7,2,476.0,0.3333333333333333,1,object_01,1,942,0,3,7,restaurant_31,1,memory-2step-stake-s,560,1669252,0.0-18.0-0.0-0.68,4398,8,7
69,4,object_09,object_08,1159.0,8,1,541.0,0.8888888888888888,2,object_07,5,982,0,5,8,restaurant_5,1,memory-2step-stake-s,561,1677822,0.0-18.0-0.0-0.69,4398,8,7
70,2,object_02,object_05,1087.0,4,1,428.0,0.8888888888888888,2,object_07,1,990,0,4,8,forest_2,1,memory-2step-stake-s,562,1686278,0.0-18.0-0.0-0.70,4398,4,3
71,1,object_10,object_06,1045.0,2,2,448.0,0.8888888888888888,2,object_07,1,998,0,1,8,desert_20,1,memory-2step-stake-s,563,1694751,0.0-18.0-0.0-0.71,4398,1,2
72,2,object_02,object_05,905.0,4,1,406.0,1.0,2,object_07,1,1007,0,5,9,forest_26,1,memory-2step-stake-s,564,1703290,0.0-18.0-0.0-0.72,4398,4,3
73,1,object_06,object_10,1026.0,2,1,571.0,0.6666666666666666,2,object_07,1,1013,0,7,6,desert_16,1,memory-2step-stake-s,565,1711682,0.0-18.0-0.0-0.73,4398,2,1
74,1,object_10,object_06,865.0,2,2,459.0,0.6666666666666666,2,object_07,1,1019,0,6,6,desert_23,1,memory-2step-stake-s,566,1719966,0.0-18.0-0.0-0.74,4398,1,2
75,2,object_05,object_02,831.0,4,2,517.0,1.0,2,object_07,1,1028,0,6,9,forest_1,1,memory-2step-stake-s,567,1728614,0.0-18.0-0.0-0.75,4398,3,4
76,2,object_02,object_05,672.0,4,1,387.0,0.8888888888888888,2,object_07,1,1036,0,5,8,forest_20,1,memory-2step-stake-s,568,1737028,0.0-18.0-0.0-0.76,4398,4,3
77,2,object_02,object_05,671.0,4,1,412.0,0.7777777777777778,2,object_07,5,1071,0,6,7,forest_21,1,memory-2step-stake-s,569,1745370,0.0-18.0-0.0-0.77,4398,4,3
78,1,object_06,object_10,1075.0,2,1,450.0,0.6666666666666666,2,object_07,5,1101,0,5,6,desert_16,1,memory-2step-stake-s,570,1753645,0.0-18.0-0.0-0.78,4398,2,1
79,3,object_04,object_03,1008.0,6,1,416.0,0.6666666666666666,2,object_07,5,1131,0,5,6,library_3,1,memory-2step-stake-s,571,1761885,0.0-18.0-0.0-0.79,4398,6,5
80,1,object_10,object_06,779.0,2,2,510.0,0.5555555555555556,2,object_07,1,1136,0,3,5,desert_6,1,memory-2step-stake-s,572,1770119,0.0-18.0-0.0-0.80,4398,1,2
81,1,object_06,object_10,754.0,2,1,414.0,0.5555555555555556,2,object_07,1,1141,0,2,5,desert_17,1,memory-2step-stake-s,573,1778254,0.0-18.0-0.0-0.81,4398,2,1
82,1,object_10,object_06,711.0,2,2,491.0,0.7777777777777778,2,object_07,1,1148,0,2,7,desert_13,1,memory-2step-stake-s,574,1786673,0.0-18.0-0.0-0.82,4398,1,2
83,1,object_06,object_10,678.0,2,1,430.0,0.7777777777777778,2,object_07,5,1183,0,2,7,desert_12,1,memory-2step-stake-s,575,1795030,0.0-18.0-0.0-0.83,4398,2,1
84,4,object_08,object_09,1292.0,7,1,493.0,0.3333333333333333,1,object_01,5,1198,0,3,9,restaurant_9,1,memory-2step-stake-s,576,1803041,0.0-18.0-0.0-0.84,4398,7,8
85,1,object_10,object_06,652.0,2,2,319.0,0.8888888888888888,2,object_07,1,1206,0,5,8,desert_17,1,memory-2step-stake-s,577,1811389,0.0-18.0-0.0-0.85,4398,1,2
86,2,object_05,object_02,774.0,4,2,469.0,0.6666666666666666,2,object_07,1,1212,0,6,6,forest_20,1,memory-2step-stake-s,578,1819683,0.0-18.0-0.0-0.86,4398,3,4
87,4,object_08,object_09,890.0,8,2,461.0,1.0,2,object_07,1,1221,0,4,9,restaurant_18,1,memory-2step-stake-s,579,1828274,0.0-18.0-0.0-0.87,4398,7,8
88,2,object_02,object_05,760.0,4,1,443.0,0.6666666666666666,2,object_07,5,1251,0,3,6,forest_17,1,memory-2step-stake-s,580,1836543,0.0-18.0-0.0-0.88,4398,4,3
89,4,object_09,object_08,995.0,8,1,436.0,0.8888888888888888,2,object_07,5,1291,0,1,8,restaurant_9,1,memory-2step-stake-s,581,1845006,0.0-18.0-0.0-0.89,4398,8,7
90,2,object_05,object_02,681.0,4,2,411.0,0.4444444444444444,2,object_07,1,1295,0,2,4,forest_4,1,memory-2step-stake-s,582,1853036,0.0-18.0-0.0-0.90,4398,3,4
91,4,object_09,object_08,786.0,8,1,391.0,0.7777777777777778,2,object_07,1,1302,0,0,7,restaurant_31,1,memory-2step-stake-s,583,1861351,0.0-18.0-0.0-0.91,4398,8,7
92,3,object_04,object_03,800.0,6,1,418.0,0.5555555555555556,2,object_07,5,1327,0,2,5,library_10,1,memory-2step-stake-s,584,1869497,0.0-18.0-0.0-0.92,4398,6,5
93,2,object_05,object_02,609.0,4,2,492.0,0.6666666666666666,2,object_07,1,1333,0,1,6,forest_27,1,memory-2step-stake-s,585,1877813,0.0-18.0-0.0-0.93,4398,3,4
94,1,object_06,object_10,873.0,2,1,403.0,1.0,2,object_07,1,1342,0,6,9,desert_15,1,memory-2step-stake-s,586,1886343,0.0-18.0-0.0-0.94,4398,2,1
95,3,object_03,object_04,790.0,6,2,477.0,0.7777777777777778,2,object_07,5,1377,0,4,7,library_26,1,memory-2step-stake-s,587,1894750,0.0-18.0-0.0-0.95,4398,5,6
96,3,object_04,object_03,782.0,6,1,562.0,0.7777777777777778,2,object_07,5,1412,0,6,7,library_23,1,memory-2step-stake-s,588,1903237,0.0-18.0-0.0-0.96,4398,6,5
97,3,object_03,object_04,661.0,6,2,372.0,0.6666666666666666,2,object_07,5,1442,0,7,6,library_30,1,memory-2step-stake-s,589,1911431,0.0-18.0-0.0-0.97,4398,5,6
98,2,object_05,object_02,606.0,4,2,475.0,0.3333333333333333,2,object_07,5,1457,0,5,3,forest_1,1,memory-2step-stake-s,590,1919427,0.0-18.0-0.0-0.98,4398,3,4
99,1,object_10,object_06,774.0,2,2,372.0,0.3333333333333333,2,object_07,1,1460,0,3,3,desert_19,1,memory-2step-stake-s,591,1927320,0.0-18.0-0.0-0.99,4398,1,2
100,1,object_10,object_06,695.0,2,2,415.0,0.1111111111111111,2,object_07,1,1461,0,5,1,desert_25,1,memory-2step-stake-s,592,1935054,0.0-18.0-0.0-0.100,4398,1,2
101,1,object_06,object_10,890.0,1,2,388.0,0.5555555555555556,1,object_01,1,1466,0,5,0,desert_27,1,memory-2step-stake-s,593,1943166,0.0-18.0-0.0-0.101,4398,2,1
102,4,object_09,object_08,1020.0,7,2,394.0,0.5555555555555556,1,object_01,5,1491,0,5,0,restaurant_31,1,memory-2step-stake-s,594,1951287,0.0-18.0-0.0-0.102,4398,8,7
103,4,object_08,object_09,879.0,7,1,442.0,0.7777777777777778,1,object_01,5,1526,0,7,1,restaurant_9,1,memory-2step-stake-s,595,1959656,0.0-18.0-0.0-0.103,4398,7,8
104,2,object_05,object_02,652.0,3,1,395.0,0.7777777777777778,1,object_01,1,1533,0,7,0,forest_25,1,memory-2step-stake-s,596,1967978,0.0-18.0-0.0-0.104,4398,3,4
105,1,object_10,object_06,827.0,1,1,407.0,0.8888888888888888,1,object_01,1,1541,0,8,2,desert_15,1,memory-2step-stake-s,597,1976412,0.0-18.0-0.0-0.105,4398,1,2
106,1,object_06,object_10,767.0,1,2,363.0,1.0,1,object_01,1,1550,0,9,0,desert_6,1,memory-2step-stake-s,598,1984906,0.0-18.0-0.0-0.106,4398,2,1
107,3,object_03,object_04,745.0,5,1,456.0,0.5555555555555556,1,object_01,5,1575,0,5,3,library_12,1,memory-2step-stake-s,599,1993083,0.0-18.0-0.0-0.107,4398,5,6
108,2,object_02,object_05,897.0,3,2,392.0,0.3333333333333333,1,object_01,1,1578,0,3,2,forest_17,1,memory-2step-stake-s,600,2000992,0.0-18.0-0.0-0.108,4398,4,3
109,4,object_09,object_08,1100.0,8,1,411.0,0.3333333333333333,2,object_07,5,1593,0,5,3,restaurant_31,1,memory-2step-stake-s,601,2008923,0.0-18.0-0.0-0.109,4398,8,7
110,2,object_02,object_05,772.0,3,2,401.0,0.5555555555555556,1,object_01,1,1598,0,5,0,forest_15,1,memory-2step-stake-s,602,2017047,0.0-18.0-0.0-0.110,4398,4,3
111,4,object_08,object_09,1010.0,7,1,405.0,0.0,1,object_01,5,1598,0,0,0,restaurant_15,1,memory-2step-stake-s,603,2024673,0.0-18.0-0.0-0.111,4398,7,8
112,2,object_05,object_02,1110.0,4,2,389.0,0.2222222222222222,2,object_07,1,1600,0,0,2,forest_7,1,memory-2step-stake-s,604,2032481,0.0-18.0-0.0-0.112,4398,3,4
113,4,object_09,object_08,1071.0,8,1,454.0,0.0,2,object_07,5,1600,0,4,0,restaurant_5,1,memory-2step-stake-s,605,2040151,0.0-18.0-0.0-0.113,4398,8,7
114,1,object_06,object_10,1111.0,1,2,400.0,0.5555555555555556,1,object_01,5,1625,0,5,0,desert_13,1,memory-2step-stake-s,606,2048274,0.0-18.0-0.0-0.114,4398,2,1
115,2,object_02,object_05,981.0,3,2,387.0,0.6666666666666666,1,object_01,1,1631,0,6,0,forest_7,1,memory-2step-stake-s,607,2056485,0.0-18.0-0.0-0.115,4398,4,3
116,3,object_03,object_04,803.0,5,1,371.0,0.2222222222222222,1,object_01,5,1641,0,2,4,library_20,1,memory-2step-stake-s,608,2064279,0.0-18.0-0.0-0.116,4398,5,6
117,4,object_09,object_08,1052.0,8,1,443.0,0.5555555555555556,2,object_07,5,1666,0,1,5,restaurant_8,1,memory-2step-stake-s,609,2072441,0.0-18.0-0.0-0.117,4398,8,7
118,2,object_02,object_05,847.0,3,2,437.0,0.1111111111111111,1,object_01,1,1667,0,1,5,forest_23,1,memory-2step-stake-s,610,2080195,0.0-18.0-0.0-0.118,4398,4,3
119,3,object_04,object_03,927.0,6,1,409.0,0.7777777777777778,2,object_07,5,1702,0,1,7,library_24,1,memory-2step-stake-s,611,2088530,0.0-18.0-0.0-0.119,4398,6,5
120,4,object_08,object_09,939.0,8,2,444.0,0.8888888888888888,2,object_07,5,1742,0,3,8,restaurant_5,1,memory-2step-stake-s,612,2097001,0.0-18.0-0.0-0.120,4398,7,8
121,2,object_05,object_02,860.0,4,2,369.0,0.5555555555555556,2,object_07,5,1767,0,4,5,forest_17,1,memory-2step-stake-s,613,2105093,0.0-18.0-0.0-0.121,4398,3,4
122,4,object_08,object_09,1138.0,8,2,359.0,0.8888888888888888,2,object_07,5,1807,0,3,8,restaurant_3,1,memory-2step-stake-s,614,2113483,0.0-18.0-0.0-0.122,4398,7,8
123,3,object_04,object_03,699.0,6,1,396.0,0.6666666666666666,2,object_07,5,1837,0,1,6,library_5,1,memory-2step-stake-s,615,2121705,0.0-18.0-0.0-0.123,4398,6,5
124,1,object_06,object_10,809.0,2,1,405.0,0.8888888888888888,2,object_07,1,1845,0,1,8,desert_16,1,memory-2step-stake-s,616,2130137,0.0-18.0-0.0-0.124,4398,2,1
125,3,object_04,object_03,709.0,6,1,400.0,1.0,2,object_07,5,1890,0,1,9,library_4,1,memory-2step-stake-s,617,2138668,0.0-18.0-0.0-0.125,4398,6,5
126,4,object_08,object_09,730.0,8,2,382.0,1.0,2,object_07,5,1935,0,4,9,restaurant_27,1,memory-2step-stake-s,618,2147181,0.0-18.0-0.0-0.126,4398,7,8
127,2,object_05,object_02,631.0,4,2,388.0,0.7777777777777778,2,object_07,1,1942,0,5,7,forest_1,1,memory-2step-stake-s,619,2155496,0.0-18.0-0.0-0.127,4398,3,4
128,3,object_04,object_03,658.0,5,2,404.0,0.4444444444444444,1,object_01,1,1946,0,4,8,library_11,1,memory-2step-stake-s,621,2182873,0.0-18.0-0.1-0.128,4398,6,5
129,2,object_02,object_05,587.0,4,1,387.0,0.5555555555555556,2,object_07,1,1951,0,5,5,forest_28,1,memory-2step-stake-s,622,2190985,0.0-18.0-0.1-0.129,4398,4,3
130,4,object_08,object_09,643.0,8,2,421.0,0.6666666666666666,2,object_07,5,1981,0,3,6,restaurant_6,1,memory-2step-stake-s,623,2199231,0.0-18.0-0.1-0.130,4398,7,8
131,3,object_04,object_03,752.0,6,1,391.0,0.4444444444444444,2,object_07,5,2001,0,2,4,library_30,1,memory-2step-stake-s,624,2207246,0.0-18.0-0.1-0.131,4398,6,5
132,2,object_05,object_02,488.0,4,2,625.0,0.4444444444444444,2,object_07,1,2005,0,5,4,forest_28,1,memory-2step-stake-s,625,2215494,0.0-18.0-0.1-0.132,4398,3,4
133,2,object_02,object_05,635.0,3,2,476.0,0.7777777777777778,1,object_01,1,2012,0,7,3,forest_4,1,memory-2step-stake-s,626,2223895,0.0-18.0-0.1-0.133,4398,4,3
134,2,object_05,object_02,740.0,3,1,420.0,0.5555555555555556,1,object_01,5,2037,0,5,5,forest_30,1,memory-2step-stake-s,627,2232038,0.0-18.0-0.1-0.134,4398,3,4
135,2,object_02,object_05,923.0,3,2,519.0,0.5555555555555556,1,object_01,1,2042,0,5,6,forest_7,1,memory-2step-stake-s,628,2240281,0.0-18.0-0.1-0.135,4398,4,3
136,4,object_08,object_09,928.0,7,1,403.0,0.8888888888888888,1,object_01,5,2082,0,8,5,restaurant_30,1,memory-2step-stake-s,629,2248713,0.0-18.0-0.1-0.136,4398,7,8
137,4,object_09,object_08,801.0,7,2,384.0,0.8888888888888888,1,object_01,5,2122,0,8,5,restaurant_3,1,memory-2step-stake-s,630,2257125,0.0-18.0-0.1-0.137,4398,8,7
138,1,object_10,object_06,763.0,2,2,463.0,0.7777777777777778,2,object_07,1,2129,0,7,7,desert_13,1,memory-2step-stake-s,631,2265513,0.0-18.0-0.1-0.138,4398,1,2
139,3,object_03,object_04,744.0,6,2,379.0,0.7777777777777778,2,object_07,5,2164,0,4,7,library_16,1,memory-2step-stake-s,632,2273814,0.0-18.0-0.1-0.139,4398,5,6
140,2,object_02,object_05,1141.0,4,1,466.0,0.3333333333333333,2,object_07,1,2167,0,6,3,forest_30,1,memory-2step-stake-s,633,2281800,0.0-18.0-0.1-0.140,4398,4,3
141,3,object_03,object_04,759.0,5,1,409.0,0.8888888888888888,1,object_01,5,2207,0,8,0,library_24,1,memory-2step-stake-s,634,2290236,0.0-18.0-0.1-0.141,4398,5,6
142,1,object_10,object_06,853.0,1,1,351.0,0.5555555555555556,1,object_01,1,2212,0,5,2,desert_17,1,memory-2step-stake-s,635,2298313,0.0-18.0-0.1-0.142,4398,1,2
143,4,object_09,object_08,867.0,7,2,355.0,0.5555555555555556,1,object_01,5,2237,0,5,4,restaurant_29,1,memory-2step-stake-s,636,2306390,0.0-18.0-0.1-0.143,4398,8,7
144,2,object_05,object_02,630.0,4,2,394.0,0.4444444444444444,2,object_07,5,2257,0,3,4,forest_1,1,memory-2step-stake-s,637,2314406,0.0-18.0-0.1-0.144,4398,3,4
145,1,object_06,object_10,703.0,1,2,556.0,0.5555555555555556,1,object_01,1,2262,0,5,5,desert_23,1,memory-2step-stake-s,638,2322683,0.0-18.0-0.1-0.145,4398,2,1
146,4,object_09,object_08,778.0,7,2,501.0,0.6666666666666666,1,object_01,5,2292,0,6,4,restaurant_12,1,memory-2step-stake-s,639,2331008,0.0-18.0-0.1-0.146,4398,8,7
147,3,object_04,object_03,760.0,5,2,3.0,0.7777777777777778,1,object_01,1,2299,0,7,7,library_31,1,memory-2step-stake-s,640,2338941,0.0-18.0-0.1-0.147,4398,6,5
148,1,object_10,object_06,764.0,1,1,415.0,0.5555555555555556,1,object_01,1,2304,0,5,5,desert_6,1,memory-2step-stake-s,641,2347080,0.0-18.0-0.1-0.148,4398,1,2
149,4,object_08,object_09,1065.0,7,1,364.0,0.5555555555555556,1,object_01,5,2329,0,5,6,restaurant_27,1,memory-2step-stake-s,642,2355168,0.0-18.0-0.1-0.149,4398,7,8
150,2,object_05,object_02,899.0,4,2,678.0,0.5555555555555556,2,object_07,1,2334,0,5,5,forest_4,1,memory-2step-stake-s,643,2363568,0.0-18.0-0.1-0.150,4398,3,4
151,3,object_03,object_04,1088.0,6,2,570.0,0.2222222222222222,2,object_07,5,2344,0,5,2,library_9,1,memory-2step-stake-s,644,2371556,0.0-18.0-0.1-0.151,4398,5,6
152,2,object_05,object_02,713.0,3,1,356.0,0.6666666666666666,1,object_01,1,2350,0,6,4,forest_14,1,memory-2step-stake-s,645,2379741,0.0-18.0-0.1-0.152,4398,3,4
153,1,object_10,object_06,640.0,2,2,422.0,0.2222222222222222,2,object_07,1,2352,0,8,2,desert_30,1,memory-2step-stake-s,646,2387582,0.0-18.0-0.1-0.153,4398,1,2
154,1,object_06,object_10,812.0,1,2,391.0,0.8888888888888888,1,object_01,1,2360,0,8,1,desert_30,1,memory-2step-stake-s,647,2395997,0.0-18.0-0.1-0.154,4398,2,1
155,2,object_05,object_02,712.0,3,1,441.0,0.7777777777777778,1,object_01,5,2395,0,7,1,forest_4,1,memory-2step-stake-s,648,2404365,0.0-18.0-0.1-0.155,4398,3,4
156,2,object_02,object_05,931.0,3,2,401.0,0.8888888888888888,1,object_01,5,2435,0,8,3,forest_15,1,memory-2step-stake-s,649,2412793,0.0-18.0-0.1-0.156,4398,4,3
157,1,object_06,object_10,611.0,1,2,508.0,1.0,1,object_01,5,2480,0,9,3,desert_20,1,memory-2step-stake-s,650,2421434,0.0-18.0-0.1-0.157,4398,2,1
158,4,object_08,object_09,673.0,7,1,487.0,0.5555555555555556,1,object_01,5,2505,0,5,4,restaurant_32,1,memory-2step-stake-s,651,2429645,0.0-18.0-0.1-0.158,4398,7,8
159,2,object_05,object_02,742.0,3,1,322.0,0.3333333333333333,1,object_01,1,2508,0,3,4,forest_23,1,memory-2step-stake-s,652,2437485,0.0-18.0-0.1-0.159,4398,3,4
160,4,object_08,object_09,802.0,8,2,348.0,0.5555555555555556,2,object_07,5,2533,0,7,5,restaurant_15,1,memory-2step-stake-s,653,2445555,0.0-18.0-0.1-0.160,4398,7,8
161,2,object_05,object_02,881.0,4,2,350.0,0.5555555555555556,2,object_07,1,2538,0,7,5,forest_17,1,memory-2step-stake-s,654,2453631,0.0-18.0-0.1-0.161,4398,3,4
162,3,object_03,object_04,848.0,6,2,398.0,0.3333333333333333,2,object_07,1,2541,0,7,3,library_11,1,memory-2step-stake-s,655,2461550,0.0-18.0-0.1-0.162,4398,5,6
163,3,object_04,object_03,708.0,6,1,370.0,0.5555555555555556,2,object_07,5,2566,0,6,5,library_16,1,memory-2step-stake-s,656,2469643,0.0-18.0-0.1-0.163,4398,6,5
164,4,object_09,object_08,877.0,7,2,540.0,0.6666666666666666,1,object_01,5,2596,0,6,7,restaurant_30,1,memory-2step-stake-s,657,2478008,0.0-18.0-0.1-0.164,4398,8,7
165,3,object_03,object_04,1058.0,6,2,388.0,0.8888888888888888,2,object_07,5,2636,0,6,8,library_27,1,memory-2step-stake-s,658,2486423,0.0-18.0-0.1-0.165,4398,5,6
166,2,object_05,object_02,719.0,4,2,389.0,0.6666666666666666,2,object_07,1,2642,0,8,6,forest_26,1,memory-2step-stake-s,659,2494638,0.0-18.0-0.1-0.166,4398,3,4
167,1,object_06,object_10,828.0,2,1,438.0,0.8888888888888888,2,object_07,1,2650,0,7,8,desert_22,1,memory-2step-stake-s,660,2503103,0.0-18.0-0.1-0.167,4398,2,1
168,2,object_02,object_05,553.0,4,1,364.0,0.6666666666666666,2,object_07,5,2680,0,7,6,forest_23,1,memory-2step-stake-s,661,2511299,0.0-18.0-0.1-0.168,4398,4,3
169,4,object_09,object_08,700.0,7,2,415.0,0.7777777777777778,1,object_01,5,2715,0,7,6,restaurant_4,1,memory-2step-stake-s,662,2519640,0.0-18.0-0.1-0.169,4398,8,7
170,4,object_08,object_09,722.0,7,1,432.0,0.8888888888888888,1,object_01,5,2755,0,8,7,restaurant_25,1,memory-2step-stake-s,663,2528101,0.0-18.0-0.1-0.170,4398,7,8
171,1,object_06,object_10,735.0,1,2,386.0,0.8888888888888888,1,object_01,5,2795,0,8,4,desert_27,1,memory-2step-stake-s,664,2536513,0.0-18.0-0.1-0.171,4398,2,1
172,2,object_05,object_02,932.0,3,1,351.0,1.0,1,object_01,5,2840,0,9,6,forest_2,1,memory-2step-stake-s,665,2544997,0.0-18.0-0.1-0.172,4398,3,4
173,4,object_08,object_09,902.0,7,1,387.0,0.7777777777777778,1,object_01,1,2847,0,7,8,restaurant_32,1,memory-2step-stake-s,666,2553310,0.0-18.0-0.1-0.173,4398,7,8
174,1,object_06,object_10,711.0,1,2,324.0,0.8888888888888888,1,object_01,1,2855,0,8,6,desert_25,1,memory-2step-stake-s,667,2561661,0.0-18.0-0.1-0.174,4398,2,1
175,4,object_09,object_08,676.0,8,1,381.0,0.6666666666666666,2,object_07,5,2885,0,7,6,restaurant_25,1,memory-2step-stake-s,668,2569866,0.0-18.0-0.1-0.175,4398,8,7
176,1,object_06,object_10,734.0,1,2,341.0,0.8888888888888888,1,object_01,1,2893,0,8,4,desert_10,1,memory-2step-stake-s,669,2578237,0.0-18.0-0.1-0.176,4398,2,1
177,3,object_03,object_04,775.0,5,1,422.0,0.6666666666666666,1,object_01,5,2923,0,6,5,library_4,1,memory-2step-stake-s,670,2586485,0.0-18.0-0.1-0.177,4398,5,6
178,4,object_08,object_09,929.0,7,1,371.0,0.3333333333333333,1,object_01,5,2938,0,3,5,restaurant_30,1,memory-2step-stake-s,671,2594375,0.0-18.0-0.1-0.178,4398,7,8
179,4,object_08,object_09,825.0,8,2,388.0,0.7777777777777778,2,object_07,5,2973,0,5,7,restaurant_25,1,memory-2step-stake-s,672,2602688,0.0-18.0-0.1-0.179,4398,7,8
180,2,object_02,object_05,881.0,4,1,400.0,0.5555555555555556,2,object_07,1,2978,0,8,5,forest_15,1,memory-2step-stake-s,673,2610814,0.0-18.0-0.1-0.180,4398,4,3
181,4,object_08,object_09,1123.0,8,2,433.0,0.6666666666666666,2,object_07,5,3008,0,9,6,restaurant_17,1,memory-2step-stake-s,674,2619071,0.0-18.0-0.1-0.181,4398,7,8
182,3,object_04,object_03,805.0,5,2,339.0,0.7777777777777778,1,object_01,5,3043,0,7,6,library_24,1,memory-2step-stake-s,675,2627336,0.0-18.0-0.1-0.182,4398,6,5
183,3,object_03,object_04,692.0,5,1,417.0,0.7777777777777778,1,object_01,5,3078,0,7,4,library_3,1,memory-2step-stake-s,676,2635679,0.0-18.0-0.1-0.183,4398,5,6
184,4,object_08,object_09,775.0,7,1,435.0,0.8888888888888888,1,object_01,5,3118,0,8,6,restaurant_8,1,memory-2step-stake-s,677,2644141,0.0-18.0-0.1-0.184,4398,7,8
185,2,object_05,object_02,737.0,3,1,351.0,1.0,1,object_01,1,3127,0,9,4,forest_7,1,memory-2step-stake-s,678,2652619,0.0-18.0-0.1-0.185,4398,3,4
186,4,object_09,object_08,764.0,7,2,394.0,0.4444444444444444,1,object_01,5,3147,0,4,3,restaurant_18,1,memory-2step-stake-s,679,2660635,0.0-18.0-0.1-0.186,4398,8,7
187,1,object_06,object_10,677.0,2,1,429.0,0.8888888888888888,2,object_07,1,3155,0,3,8,desert_20,1,memory-2step-stake-s,680,2669095,0.0-18.0-0.1-0.187,4398,2,1
188,3,object_04,object_03,745.0,6,1,389.0,0.6666666666666666,2,object_07,5,3185,0,3,6,library_12,1,memory-2step-stake-s,681,2677309,0.0-18.0-0.1-0.188,4398,6,5
189,1,object_06,object_10,683.0,2,1,391.0,0.6666666666666666,2,object_07,1,3191,0,3,6,desert_12,1,memory-2step-stake-s,682,2685523,0.0-18.0-0.1-0.189,4398,2,1
190,4,object_08,object_09,696.0,8,2,358.0,0.5555555555555556,2,object_07,5,3216,0,3,5,restaurant_12,1,memory-2step-stake-s,683,2693606,0.0-18.0-0.1-0.190,4398,7,8
191,2,object_02,object_05,877.0,3,2,614.0,0.0,1,object_01,1,3216,0,0,2,forest_26,1,memory-2step-stake-s,684,2701437,0.0-18.0-0.1-0.191,4398,4,3
192,3,object_04,object_03,776.0,6,1,404.0,0.3333333333333333,2,object_07,5,3231,0,0,3,library_15,1,memory-2step-stake-s,685,2709362,0.0-18.0-0.1-0.192,4398,6,5
193,3,object_03,object_04,652.0,5,1,394.0,0.0,1,object_01,5,3231,0,0,3,library_26,1,memory-2step-stake-s,686,2716972,0.0-18.0-0.1-0.193,4398,5,6
194,2,object_02,object_05,887.0,3,2,429.0,0.0,1,object_01,5,3231,0,0,0,forest_21,1,memory-2step-stake-s,687,2724618,0.0-18.0-0.1-0.194,4398,4,3
195,1,object_06,object_10,1268.0,2,1,693.0,0.0,2,object_07,1,3231,0,0,0,desert_25,1,memory-2step-stake-s,688,2732527,0.0-18.0-0.1-0.195,4398,2,1
196,1,object_10,object_06,643.0,2,2,360.0,0.2222222222222222,2,object_07,1,3233,0,3,2,desert_11,1,memory-2step-stake-s,689,2740311,0.0-18.0-0.1-0.196,4398,1,2
197,4,object_08,object_09,887.0,8,2,394.0,0.0,2,object_07,5,3233,0,4,0,restaurant_29,1,memory-2step-stake-s,690,2747920,0.0-18.0-0.1-0.197,4398,7,8
198,4,object_08,object_09,787.0,7,1,368.0,0.2222222222222222,1,object_01,5,3243,0,2,0,restaurant_4,1,memory-2step-stake-s,691,2755706,0.0-18.0-0.1-0.198,4398,7,8
199,2,object_02,object_05,754.0,4,1,390.0,0.1111111111111111,2,object_07,1,3244,0,3,1,forest_27,1,memory-2step-stake-s,692,2763411,0.0-18.0-0.1-0.199,4398,4,3
200,2,object_05,object_02,902.0,3,1,418.0,0.3333333333333333,1,object_01,5,3259,0,3,3,forest_2,1,memory-2step-stake-s,693,2771354,0.0-18.0-0.1-0.200,4398,3,4
201,2,object_02,object_05,701.0,3,2,438.0,0.5555555555555556,1,object_01,1,3264,0,5,2,forest_27,1,memory-2step-stake-s,694,2779515,0.0-18.0-0.1-0.201,4398,4,3
202,1,object_06,object_10,845.0,1,2,320.0,0.6666666666666666,1,object_01,1,3270,0,6,2,desert_27,1,memory-2step-stake-s,695,2787661,0.0-18.0-0.1-0.202,4398,2,1
203,1,object_06,object_10,781.0,1,2,376.0,0.3333333333333333,1,object_01,1,3273,0,3,0,desert_27,1,memory-2step-stake-s,696,2795557,0.0-18.0-0.1-0.203,4398,2,1
204,1,object_10,object_06,727.0,1,1,585.0,0.2222222222222222,1,object_01,1,3275,0,2,1,desert_20,1,memory-2step-stake-s,697,2803561,0.0-18.0-0.1-0.204,4398,1,2
205,4,object_08,object_09,993.0,7,1,342.0,0.2222222222222222,1,object_01,1,3277,0,2,0,restaurant_17,1,memory-2step-stake-s,698,2811326,0.0-18.0-0.1-0.205,4398,7,8
206,2,object_02,object_05,731.0,4,1,477.0,0.3333333333333333,2,object_07,1,3280,0,2,3,forest_25,1,memory-2step-stake-s,699,2819322,0.0-18.0-0.1-0.206,4398,4,3
207,4,object_08,object_09,699.0,8,2,356.0,0.5555555555555556,2,object_07,5,3305,0,1,5,restaurant_8,1,memory-2step-stake-s,700,2827402,0.0-18.0-0.1-0.207,4398,7,8
208,1,object_10,object_06,897.0,2,2,584.0,0.4444444444444444,2,object_07,1,3309,0,2,4,desert_23,1,memory-2step-stake-s,701,2835608,0.0-18.0-0.1-0.208,4398,1,2
209,4,object_08,object_09,1022.0,8,2,421.0,0.7777777777777778,2,object_07,1,3316,0,2,7,restaurant_3,1,memory-2step-stake-s,702,2843959,0.0-18.0-0.1-0.209,4398,7,8
210,3,object_03,object_04,939.0,6,2,387.0,0.7777777777777778,2,object_07,5,3351,0,2,7,library_11,1,memory-2step-stake-s,703,2852273,0.0-18.0-0.1-0.210,4398,5,6
211,1,object_06,object_10,715.0,2,1,375.0,0.8888888888888888,2,object_07,5,3391,0,1,8,desert_22,1,memory-2step-stake-s,704,2860673,0.0-18.0-0.1-0.211,4398,2,1
212,2,object_02,object_05,648.0,4,1,373.0,0.5555555555555556,2,object_07,1,3396,0,2,5,forest_25,1,memory-2step-stake-s,705,2868769,0.0-18.0-0.1-0.212,4398,4,3
213,4,object_09,object_08,865.0,8,1,503.0,0.5555555555555556,2,object_07,1,3401,0,1,5,restaurant_4,1,memory-2step-stake-s,706,2876996,0.0-18.0-0.1-0.213,4398,8,7
214,1,object_06,object_10,1003.0,2,1,346.0,0.4444444444444444,2,object_07,1,3405,0,2,4,desert_23,1,memory-2step-stake-s,707,2884962,0.0-18.0-0.1-0.214,4398,2,1
215,3,object_03,object_04,817.0,5,1,346.0,0.5555555555555556,1,object_01,5,3430,0,5,7,library_12,1,memory-2step-stake-s,708,2893031,0.0-18.0-0.1-0.215,4398,5,6
216,4,object_08,object_09,881.0,8,2,416.0,0.8888888888888888,2,object_07,1,3438,0,8,8,restaurant_15,1,memory-2step-stake-s,709,2901475,0.0-18.0-0.1-0.216,4398,7,8
217,3,object_04,object_03,973.0,6,1,522.0,0.5555555555555556,2,object_07,5,3463,0,9,5,library_30,1,memory-2step-stake-s,710,2909719,0.0-18.0-0.1-0.217,4398,6,5
218,1,object_06,object_10,833.0,1,2,493.0,1.0,1,object_01,1,3472,0,9,5,desert_24,1,memory-2step-stake-s,711,2918341,0.0-18.0-0.1-0.218,4398,2,1
219,1,object_06,object_10,787.0,1,2,355.0,0.6666666666666666,1,object_01,1,3478,0,6,3,desert_15,1,memory-2step-stake-s,712,2926520,0.0-18.0-0.1-0.219,4398,2,1
220,3,object_03,object_04,817.0,5,1,285.0,0.7777777777777778,1,object_01,5,3513,0,7,2,library_9,1,memory-2step-stake-s,713,2934735,0.0-18.0-0.1-0.220,4398,5,6
221,2,object_02,object_05,985.0,4,1,324.0,0.1111111111111111,2,object_07,1,3514,0,4,1,forest_25,1,memory-2step-stake-s,714,2942377,0.0-18.0-0.1-0.221,4398,4,3
222,1,object_06,object_10,769.0,1,2,399.0,1.0,1,object_01,1,3523,0,9,1,desert_6,1,memory-2step-stake-s,715,2950906,0.0-18.0-0.1-0.222,4398,2,1
223,3,object_04,object_03,1189.0,5,2,338.0,0.7777777777777778,1,object_01,5,3558,0,7,4,library_4,1,memory-2step-stake-s,716,2959170,0.0-18.0-0.1-0.223,4398,6,5
224,1,object_06,object_10,704.0,1,2,362.0,0.7777777777777778,1,object_01,1,3565,0,7,3,desert_25,1,memory-2step-stake-s,717,2967461,0.0-18.0-0.1-0.224,4398,2,1
225,4,object_08,object_09,900.0,8,2,375.0,0.1111111111111111,2,object_07,5,3570,0,3,1,restaurant_32,1,memory-2step-stake-s,718,2975152,0.0-18.0-0.1-0.225,4398,7,8
226,1,object_06,object_10,771.0,1,2,880.0,0.4444444444444444,1,object_01,1,3574,0,4,0,desert_19,1,memory-2step-stake-s,719,2983654,0.0-18.0-0.1-0.226,4398,2,1
227,3,object_04,object_03,700.0,5,2,352.0,0.3333333333333333,1,object_01,5,3589,0,3,2,library_27,1,memory-2step-stake-s,720,2991527,0.0-18.0-0.1-0.227,4398,6,5
228,4,object_08,object_09,706.0,8,2,374.0,0.1111111111111111,2,object_07,5,3594,0,1,1,restaurant_27,1,memory-2step-stake-s,721,2999217,0.0-18.0-0.1-0.228,4398,7,8
229,3,object_04,object_03,544.0,5,2,350.0,0.1111111111111111,1,object_01,5,3599,0,1,0,library_16,1,memory-2step-stake-s,722,3006888,0.0-18.0-0.1-0.229,4398,6,5
230,3,object_03,object_04,695.0,6,2,390.0,0.3333333333333333,2,object_07,5,3614,0,0,3,library_11,1,memory-2step-stake-s,723,3014797,0.0-18.0-0.1-0.230,4398,5,6
231,1,object_06,object_10,877.0,2,1,477.0,0.6666666666666666,2,object_07,5,3644,0,4,6,desert_19,1,memory-2step-stake-s,724,3023097,0.0-18.0-0.1-0.231,4398,2,1
232,3,object_04,object_03,1301.0,5,2,337.0,0.2222222222222222,1,object_01,5,3654,0,2,5,library_31,1,memory-2step-stake-s,725,3030853,0.0-18.0-0.1-0.232,4398,6,5
233,4,object_09,object_08,842.0,7,2,390.0,0.0,1,object_01,5,3654,0,0,3,restaurant_9,1,memory-2step-stake-s,726,3038460,0.0-18.0-0.1-0.233,4398,8,7
234,4,object_08,object_09,700.0,8,2,443.0,0.2222222222222222,2,object_07,1,3656,0,1,2,restaurant_32,1,memory-2step-stake-s,727,3046321,0.0-18.0-0.1-0.234,4398,7,8
235,2,object_02,object_05,791.0,4,1,327.0,0.3333333333333333,2,object_07,1,3659,0,4,3,forest_14,1,memory-2step-stake-s,728,3054165,0.0-18.0-0.1-0.235,4398,4,3
236,3,object_03,object_04,718.0,5,1,368.0,0.4444444444444444,1,object_01,5,3679,0,4,0,library_10,1,memory-2step-stake-s,729,3062157,0.0-18.0-0.1-0.236,4398,5,6
237,4,object_09,object_08,906.0,7,2,369.0,0.1111111111111111,1,object_01,5,3684,0,1,0,restaurant_12,1,memory-2step-stake-s,730,3069848,0.0-18.0-0.1-0.237,4398,8,7
238,2,object_05,object_02,806.0,4,2,403.0,0.3333333333333333,2,object_07,1,3687,0,2,3,forest_20,1,memory-2step-stake-s,731,3077772,0.0-18.0-0.1-0.238,4398,3,4
239,4,object_09,object_08,698.0,7,2,375.0,0.1111111111111111,1,object_01,5,3692,0,1,5,restaurant_29,1,memory-2step-stake-s,732,3085466,0.0-18.0-0.1-0.239,4398,8,7
240,3,object_03,object_04,1023.0,6,2,336.0,0.6666666666666666,2,object_07,5,3722,0,1,6,library_5,1,memory-2step-stake-s,733,3093626,0.0-18.0-0.1-0.240,4398,5,6
241,4,object_08,object_09,613.0,8,2,446.0,0.4444444444444444,2,object_07,1,3726,0,3,4,restaurant_29,1,memory-2step-stake-s,734,3101694,0.0-18.0-0.1-0.241,4398,7,8
242,1,object_10,object_06,661.0,2,2,391.0,0.3333333333333333,2,object_07,1,3729,0,1,3,desert_22,1,memory-2step-stake-s,735,3109605,0.0-18.0-0.1-0.242,4398,1,2
243,4,object_08,object_09,781.0,8,2,571.0,0.0,2,object_07,5,3729,0,0,0,restaurant_5,1,memory-2step-stake-s,736,3117400,0.0-18.0-0.1-0.243,4398,7,8
244,4,object_08,object_09,847.0,7,1,341.0,0.0,1,object_01,1,3729,0,0,2,restaurant_25,1,memory-2step-stake-s,737,3124959,0.0-18.0-0.1-0.244,4398,7,8
245,3,object_04,object_03,921.0,6,1,329.0,0.1111111111111111,2,object_07,5,3734,0,1,1,library_3,1,memory-2step-stake-s,738,3132605,0.0-18.0-0.1-0.245,4398,6,5
246,2,object_02,object_05,716.0,3,2,626.0,0.3333333333333333,1,object_01,1,3737,0,3,2,forest_28,1,memory-2step-stake-s,739,3140750,0.0-18.0-0.1-0.246,4398,4,3
247,2,object_05,object_02,1162.0,3,1,480.0,0.6666666666666666,1,object_01,5,3767,0,6,2,forest_14,1,memory-2step-stake-s,740,3149054,0.0-18.0-0.1-0.247,4398,3,4
248,3,object_04,object_03,717.0,5,2,367.0,0.5555555555555556,1,object_01,5,3792,0,5,3,library_31,1,memory-2step-stake-s,741,3157146,0.0-18.0-0.1-0.248,4398,6,5
249,3,object_03,object_04,752.0,5,1,363.0,0.1111111111111111,1,object_01,5,3797,0,1,1,library_12,1,memory-2step-stake-s,742,3164827,0.0-18.0-0.1-0.249,4398,5,6
250,1,object_06,object_10,867.0,1,2,357.0,0.2222222222222222,1,object_01,1,3799,0,2,0,desert_30,1,memory-2step-stake-s,743,3172603,0.0-18.0-0.1-0.250,4398,2,1
251,1,object_10,object_06,721.0,2,2,363.0,0.4444444444444444,2,object_07,1,3803,0,1,4,desert_11,1,memory-2step-stake-s,744,3180588,0.0-18.0-0.1-0.251,4398,1,2
252,3,object_04,object_03,1278.0,6,1,409.0,0.3333333333333333,2,object_07,5,3818,0,3,3,library_10,1,memory-2step-stake-s,745,3188520,0.0-18.0-0.1-0.252,4398,6,5
253,4,object_09,object_08,752.0,7,2,348.0,0.0,1,object_01,5,3818,0,0,1,restaurant_27,1,memory-2step-stake-s,746,3196085,0.0-18.0-0.1-0.253,4398,8,7
254,4,object_08,object_09,877.0,8,2,409.0,0.2222222222222222,2,object_07,5,3828,0,1,2,restaurant_6,1,memory-2step-stake-s,747,3203913,0.0-18.0-0.1-0.254,4398,7,8
255,2,object_05,object_02,845.0,3,1,359.0,0.4444444444444444,1,object_01,1,3832,0,4,1,forest_30,1,memory-2step-stake-s,748,3211892,0.0-18.0-0.1-0.255,4398,3,4
