,state1,stim_left,stim_right,rt_1,choice1,response1,rt_2,points,state2,stim_state2,stake,score,practice,rews1,rews2,background,high_arm,trial_type,trial_index,time_elapsed,internal_node_id,subid,stim_left_num,stim_right_num
0,2,object_05,object_03,1085.975,3,2,992.3300002999998,0.7777777777777778,1,object_10,1,7,0,7,1,forest_28,2,memory-2step-stake-s,493,955738,0.0-18.0-0.0-0.0,3964,4,3
1,1,object_06,object_02,869.5949995999999,2,1,512.8350002000001,0.2222222222222222,2,object_04,5,17,0,8,2,desert_14,2,memory-2step-stake-s,494,963685,0.0-18.0-0.0-0.1,3964,2,1
2,3,object_09,object_08,743.6349997000001,5,2,792.5249999,0.6666666666666666,1,object_10,1,23,0,6,4,library_13,2,memory-2step-stake-s,495,972320,0.0-18.0-0.0-0.2,3964,6,5
3,4,object_07,object_01,604.3150001,8,2,779.755,0.4444444444444444,2,object_04,5,43,0,5,4,restaurant_29,2,memory-2step-stake-s,496,980753,0.0-18.0-0.0-0.3,3964,7,8
4,2,object_05,object_03,731.0500001,4,1,810.6800001,0.5555555555555556,2,object_04,5,68,0,5,5,forest_28,2,memory-2step-stake-s,497,989305,0.0-18.0-0.0-0.4,3964,4,3
5,2,object_03,object_05,1041.38,4,2,715.5249999,0.4444444444444444,2,object_04,5,88,0,4,4,forest_5,2,memory-2step-stake-s,498,997663,0.0-18.0-0.0-0.5,3964,3,4
6,2,object_05,object_03,1220.875,4,1,890.8350002000001,0.3333333333333333,2,object_04,5,103,0,4,3,forest_18,2,memory-2step-stake-s,499,1006088,0.0-18.0-0.0-0.6,3964,4,3
7,2,object_05,object_03,772.0550001,3,2,708.6800002,0.3333333333333333,1,object_10,5,118,0,3,1,forest_25,2,memory-2step-stake-s,500,1014340,0.0-18.0-0.0-0.7,3964,4,3
8,1,object_02,object_06,994.225,1,1,815.1850002,0.1111111111111111,1,object_10,5,123,0,1,3,desert_16,2,memory-2step-stake-s,501,1022481,0.0-18.0-0.0-0.8,3964,1,2
9,3,object_09,object_08,1193.165,5,2,763.5900001,0.0,1,object_10,1,123,0,0,3,library_9,2,memory-2step-stake-s,502,1030473,0.0-18.0-0.0-0.9,3964,6,5
10,3,object_09,object_08,865.5699999,6,1,635.7499999,0.1111111111111111,2,object_04,1,124,0,0,1,library_1,2,memory-2step-stake-s,503,1038433,0.0-18.0-0.0-0.10,3964,6,5
11,3,object_08,object_09,973.4149999,5,1,399.8250002,0.1111111111111111,1,object_10,1,125,0,1,4,library_11,2,memory-2step-stake-s,504,1046172,0.0-18.0-0.0-0.11,3964,5,6
12,3,object_08,object_09,614.91,5,1,534.1699999,0.2222222222222222,1,object_10,1,127,0,2,4,library_19,2,memory-2step-stake-s,505,1054143,0.0-18.0-0.0-0.12,3964,5,6
13,1,object_02,object_06,931.7050002999998,1,1,419.9049999,0.1111111111111111,1,object_10,5,132,0,1,7,desert_9,2,memory-2step-stake-s,506,1061902,0.0-18.0-0.0-0.13,3964,1,2
14,2,object_03,object_05,604.2549997000001,4,2,508.5399998,1.0,2,object_04,5,177,0,0,9,forest_2,2,memory-2step-stake-s,507,1070576,0.0-18.0-0.0-0.14,3964,3,4
15,1,object_02,object_06,777.975,2,2,689.2349998999999,0.7777777777777778,2,object_04,5,212,0,0,7,desert_14,2,memory-2step-stake-s,508,1079232,0.0-18.0-0.0-0.15,3964,1,2
16,2,object_05,object_03,1169.53,3,2,753.0950001,0.4444444444444444,1,object_10,5,232,0,4,5,forest_6,2,memory-2step-stake-s,509,1087623,0.0-18.0-0.0-0.16,3964,4,3
17,2,object_03,object_05,891.3699999,3,1,629.125,0.1111111111111111,1,object_10,5,237,0,1,4,forest_17,2,memory-2step-stake-s,510,1095586,0.0-18.0-0.0-0.17,3964,3,4
18,2,object_05,object_03,926.6650002,4,1,534.4350003000001,0.2222222222222222,2,object_04,5,247,0,3,2,forest_22,2,memory-2step-stake-s,511,1103556,0.0-18.0-0.0-0.18,3964,4,3
19,2,object_05,object_03,1036.38,3,2,627.7999999,0.3333333333333333,1,object_10,5,262,0,3,4,forest_13,2,memory-2step-stake-s,512,1111719,0.0-18.0-0.0-0.19,3964,4,3
20,1,object_06,object_02,1041.61,1,2,453.5649996,0.4444444444444444,1,object_10,5,282,0,4,2,desert_27,2,memory-2step-stake-s,513,1119813,0.0-18.0-0.0-0.20,3964,2,1
21,2,object_03,object_05,932.4600002999998,3,1,532.1750003000001,0.8888888888888888,1,object_10,5,322,0,8,1,forest_13,2,memory-2step-stake-s,514,1128404,0.0-18.0-0.0-0.21,3964,3,4
22,3,object_09,object_08,701.6199999,5,2,621.1200002999999,0.8888888888888888,1,object_10,5,362,0,8,3,library_16,2,memory-2step-stake-s,515,1137072,0.0-18.0-0.0-0.22,3964,6,5
23,2,object_03,object_05,718.7700002,3,1,417.955,0.8888888888888888,1,object_10,5,402,0,8,7,forest_19,2,memory-2step-stake-s,516,1145552,0.0-18.0-0.0-0.23,3964,3,4
24,1,object_06,object_02,654.7650001000001,1,2,479.1950001,0.6666666666666666,1,object_10,5,432,0,6,9,desert_10,2,memory-2step-stake-s,517,1153876,0.0-18.0-0.0-0.24,3964,2,1
25,3,object_08,object_09,595.5600003,5,1,485.57,0.7777777777777778,1,object_10,1,439,0,7,8,library_1,2,memory-2step-stake-s,518,1162296,0.0-18.0-0.0-0.25,3964,5,6
26,3,object_08,object_09,638.94,5,1,517.9099999,1.0,1,object_10,1,448,0,9,7,library_2,2,memory-2step-stake-s,519,1170974,0.0-18.0-0.0-0.26,3964,5,6
27,1,object_06,object_02,570.3200004,1,2,537.9599999,0.8888888888888888,1,object_10,5,488,0,8,8,desert_20,2,memory-2step-stake-s,520,1179568,0.0-18.0-0.0-0.27,3964,2,1
28,2,object_05,object_03,758.2399998999999,3,2,518.16,0.8888888888888888,1,object_10,1,496,0,8,6,forest_20,2,memory-2step-stake-s,521,1188141,0.0-18.0-0.0-0.28,3964,4,3
29,3,object_08,object_09,696.4150001,5,1,730.645,0.8888888888888888,1,object_10,5,536,0,8,3,library_22,2,memory-2step-stake-s,522,1196906,0.0-18.0-0.0-0.29,3964,5,6
30,4,object_01,object_07,-1.0,-1,-1,-1.0,0.0,-,,1,536,0,4,1,restaurant_10,2,memory-2step-stake-s,523,1203433,0.0-18.0-0.0-0.30,3964,8,7
31,2,object_05,object_03,523.5600001,3,2,363.3900001,0.6666666666666666,1,object_10,5,566,0,6,4,forest_23,2,memory-2step-stake-s,524,1211646,0.0-18.0-0.0-0.31,3964,4,3
32,4,object_01,object_07,655.5399997000001,7,2,526.4100004,0.3333333333333333,1,object_10,1,569,0,3,5,restaurant_6,2,memory-2step-stake-s,525,1219716,0.0-18.0-0.0-0.32,3964,8,7
33,4,object_01,object_07,704.1049995,7,2,471.50500030000006,0.6666666666666666,1,object_10,1,575,0,6,8,restaurant_14,2,memory-2step-stake-s,526,1228029,0.0-18.0-0.0-0.33,3964,8,7
34,1,object_02,object_06,639.525,1,1,471.475,0.5555555555555556,1,object_10,1,580,0,5,7,desert_23,2,memory-2step-stake-s,527,1236242,0.0-18.0-0.0-0.34,3964,1,2
35,3,object_08,object_09,586.2049996000001,5,1,458.44000020000004,0.3333333333333333,1,object_10,5,595,0,3,6,library_21,2,memory-2step-stake-s,528,1244249,0.0-18.0-0.0-0.35,3964,5,6
36,3,object_08,object_09,488.43500020000005,5,1,321.9149997,0.2222222222222222,1,object_10,5,605,0,2,5,library_9,2,memory-2step-stake-s,529,1252001,0.0-18.0-0.0-0.36,3964,5,6
37,1,object_06,object_02,571.0899998,2,1,419.5749997,0.5555555555555556,2,object_04,5,630,0,2,5,desert_19,2,memory-2step-stake-s,530,1260172,0.0-18.0-0.0-0.37,3964,2,1
38,4,object_07,object_01,801.9050001,8,2,449.3800001,0.5555555555555556,2,object_04,5,655,0,3,5,restaurant_32,2,memory-2step-stake-s,531,1268355,0.0-18.0-0.0-0.38,3964,7,8
39,3,object_09,object_08,595.6700002,6,1,459.08000039999996,0.1111111111111111,2,object_04,1,656,0,4,1,library_12,2,memory-2step-stake-s,532,1276150,0.0-18.0-0.0-0.39,3964,6,5
40,1,object_06,object_02,466.98,1,2,434.81499979999995,0.3333333333333333,1,object_10,5,671,0,3,0,desert_9,2,memory-2step-stake-s,533,1284124,0.0-18.0-0.0-0.40,3964,2,1
41,4,object_01,object_07,661.5849999,7,2,485.09500039999995,0.3333333333333333,1,object_10,1,674,0,3,2,restaurant_7,2,memory-2step-stake-s,534,1292156,0.0-18.0-0.0-0.41,3964,8,7
42,2,object_05,object_03,702.4500002,3,2,453.9649999,0.1111111111111111,1,object_10,5,679,0,1,2,forest_31,2,memory-2step-stake-s,535,1299946,0.0-18.0-0.0-0.42,3964,4,3
43,1,object_02,object_06,679.8700001,1,1,343.90000019999997,0.3333333333333333,1,object_10,5,694,0,3,3,desert_10,2,memory-2step-stake-s,536,1307825,0.0-18.0-0.0-0.43,3964,1,2
44,2,object_05,object_03,472.815,3,2,490.03,0.4444444444444444,1,object_10,5,714,0,4,5,forest_5,2,memory-2step-stake-s,537,1315948,0.0-18.0-0.0-0.44,3964,4,3
45,1,object_02,object_06,509.3149999,1,1,341.1149997,0.4444444444444444,1,object_10,5,734,0,4,6,desert_23,2,memory-2step-stake-s,538,1323929,0.0-18.0-0.0-0.45,3964,1,2
46,3,object_08,object_09,508.79499969999995,5,1,434.13500020000004,0.4444444444444444,1,object_10,5,754,0,4,5,library_24,2,memory-2step-stake-s,539,1331991,0.0-18.0-0.0-0.46,3964,5,6
47,4,object_07,object_01,538.0000002,8,2,490.29999969999994,0.3333333333333333,2,object_04,1,757,0,8,3,restaurant_26,2,memory-2step-stake-s,540,1340028,0.0-18.0-0.0-0.47,3964,7,8
48,3,object_08,object_09,606.47,5,1,362.8449999,0.7777777777777778,1,object_10,5,792,0,7,3,library_5,2,memory-2step-stake-s,541,1348334,0.0-18.0-0.0-0.48,3964,5,6
49,3,object_09,object_08,769.1850001,5,2,364.2549999,0.7777777777777778,1,object_10,1,799,0,7,4,library_13,2,memory-2step-stake-s,542,1356647,0.0-18.0-0.0-0.49,3964,6,5
50,2,object_03,object_05,608.36,4,2,353.72,0.2222222222222222,2,object_04,5,809,0,6,2,forest_19,2,memory-2step-stake-s,543,1364439,0.0-18.0-0.0-0.50,3964,3,4
51,1,object_02,object_06,625.19,1,1,409.7250002,0.6666666666666666,1,object_10,5,839,0,6,2,desert_8,2,memory-2step-stake-s,544,1372695,0.0-18.0-0.0-0.51,3964,1,2
52,1,object_02,object_06,516.4800002000001,1,1,292.105,0.4444444444444444,1,object_10,1,843,0,4,1,desert_20,2,memory-2step-stake-s,545,1380613,0.0-18.0-0.0-0.52,3964,1,2
53,2,object_05,object_03,638.2800001,3,2,334.3449999,0.2222222222222222,1,object_10,5,853,0,2,0,forest_14,2,memory-2step-stake-s,546,1388373,0.0-18.0-0.0-0.53,3964,4,3
54,1,object_02,object_06,689.9600001,1,1,298.6399997,0.0,1,object_10,5,853,0,0,1,desert_10,2,memory-2step-stake-s,547,1395901,0.0-18.0-0.0-0.54,3964,1,2
55,2,object_03,object_05,793.7599998,4,2,513.0950003,0.0,2,object_04,5,853,0,1,0,forest_31,2,memory-2step-stake-s,548,1403649,0.0-18.0-0.0-0.55,3964,3,4
56,3,object_09,object_08,933.95,5,2,565.1100002999999,0.0,1,object_10,5,853,0,0,0,library_21,2,memory-2step-stake-s,549,1411448,0.0-18.0-0.0-0.56,3964,6,5
57,1,object_06,object_02,605.2049999,1,2,340.9599997,0.1111111111111111,1,object_10,1,854,0,1,2,desert_19,2,memory-2step-stake-s,550,1419131,0.0-18.0-0.0-0.57,3964,2,1
58,1,object_02,object_06,532.5699998,1,1,326.44,0.1111111111111111,1,object_10,5,859,0,1,1,desert_8,2,memory-2step-stake-s,551,1426787,0.0-18.0-0.0-0.58,3964,1,2
59,4,object_07,object_01,773.97,7,1,493.18999979999995,0.2222222222222222,1,object_10,1,861,0,2,4,restaurant_10,2,memory-2step-stake-s,552,1434725,0.0-18.0-0.0-0.59,3964,7,8
60,2,object_03,object_05,620.3449997,3,1,403.9599998,0.5555555555555556,1,object_10,5,886,0,5,2,forest_3,2,memory-2step-stake-s,553,1442870,0.0-18.0-0.0-0.60,3964,3,4
61,3,object_08,object_09,594.2000002,5,1,411.3099999,0.5555555555555556,1,object_10,5,911,0,5,4,library_25,2,memory-2step-stake-s,554,1451017,0.0-18.0-0.0-0.61,3964,5,6
62,4,object_07,object_01,548.2049999,7,1,425.425,0.5555555555555556,1,object_10,5,936,0,5,3,restaurant_30,2,memory-2step-stake-s,555,1459179,0.0-18.0-0.0-0.62,3964,7,8
63,1,object_02,object_06,505.69,1,1,467.74999979999996,0.4444444444444444,1,object_10,5,956,0,4,5,desert_3,2,memory-2step-stake-s,556,1467289,0.0-18.0-0.0-0.63,3964,1,2
64,3,object_08,object_09,482.53500039999994,5,1,651.2750001,0.7777777777777778,1,object_10,1,963,0,7,5,library_5,2,memory-2step-stake-s,557,1475895,0.0-18.0-0.0-0.64,3964,5,6
65,2,object_05,object_03,574.5300003,3,2,495.9849999,0.3333333333333333,1,object_10,5,978,0,3,5,forest_13,2,memory-2step-stake-s,558,1483927,0.0-18.0-0.0-0.65,3964,4,3
66,4,object_07,object_01,569.41,7,1,295.1699998,0.5555555555555556,1,object_10,1,983,0,5,4,restaurant_25,2,memory-2step-stake-s,559,1491963,0.0-18.0-0.0-0.66,3964,7,8
67,4,object_01,object_07,556.7199998,7,2,319.6299998,0.3333333333333333,1,object_10,1,986,0,3,5,restaurant_25,2,memory-2step-stake-s,560,1499816,0.0-18.0-0.0-0.67,3964,8,7
68,4,object_01,object_07,515.3449996999999,7,2,435.5099996999999,0.2222222222222222,1,object_10,1,988,0,2,5,restaurant_29,2,memory-2step-stake-s,561,1507687,0.0-18.0-0.0-0.68,3964,8,7
69,3,object_09,object_08,614.7250002000001,6,1,386.9650001,0.1111111111111111,2,object_04,5,993,0,1,1,library_25,2,memory-2step-stake-s,562,1515400,0.0-18.0-0.0-0.69,3964,6,5
70,1,object_02,object_06,662.455,2,2,263.3400001,0.0,2,object_04,5,993,0,3,0,desert_19,2,memory-2step-stake-s,563,1522893,0.0-18.0-0.0-0.70,3964,1,2
71,2,object_03,object_05,821.5099997000001,4,2,303.21,0.2222222222222222,2,object_04,1,995,0,2,2,forest_22,2,memory-2step-stake-s,564,1530629,0.0-18.0-0.0-0.71,3964,3,4
72,1,object_02,object_06,757.8400001,1,1,461.6950001,0.2222222222222222,1,object_10,1,997,0,2,3,desert_11,2,memory-2step-stake-s,565,1538524,0.0-18.0-0.0-0.72,3964,1,2
73,2,object_05,object_03,795.31,4,1,371.5599999,0.6666666666666666,2,object_04,5,1027,0,5,6,forest_5,2,memory-2step-stake-s,566,1546730,0.0-18.0-0.0-0.73,3964,4,3
74,2,object_03,object_05,576.0899996,4,2,375.86,0.5555555555555556,2,object_04,5,1052,0,6,5,forest_31,2,memory-2step-stake-s,567,1554860,0.0-18.0-0.0-0.74,3964,3,4
75,2,object_05,object_03,613.6500002,4,1,341.1750002,0.5555555555555556,2,object_04,5,1077,0,2,5,forest_31,2,memory-2step-stake-s,568,1562940,0.0-18.0-0.0-0.75,3964,4,3
76,4,object_07,object_01,722.6199997,7,1,438.2150001,0.2222222222222222,1,object_10,1,1079,0,2,4,restaurant_1,2,memory-2step-stake-s,569,1570801,0.0-18.0-0.0-0.76,3964,7,8
77,2,object_03,object_05,583.755,4,2,327.2199999,0.6666666666666666,2,object_04,5,1109,0,1,6,forest_23,2,memory-2step-stake-s,570,1578973,0.0-18.0-0.0-0.77,3964,3,4
78,2,object_05,object_03,690.9700002999999,4,1,362.95,0.7777777777777778,2,object_04,5,1144,0,1,7,forest_18,2,memory-2step-stake-s,571,1587277,0.0-18.0-0.0-0.78,3964,4,3
79,2,object_03,object_05,459.2049997,4,2,291.14499969999997,0.7777777777777778,2,object_04,5,1179,0,0,7,forest_18,2,memory-2step-stake-s,572,1595529,0.0-18.0-0.0-0.79,3964,3,4
80,3,object_08,object_09,801.405,5,1,419.7749998,0.0,1,object_10,1,1179,0,0,5,library_14,2,memory-2step-stake-s,573,1603178,0.0-18.0-0.0-0.80,3964,5,6
81,3,object_08,object_09,619.68,6,2,309.1449998,0.6666666666666666,2,object_04,5,1209,0,1,6,library_16,2,memory-2step-stake-s,574,1611335,0.0-18.0-0.0-0.81,3964,5,6
82,4,object_01,object_07,1255.665,8,1,531.4349998,0.7777777777777778,2,object_04,5,1244,0,7,7,restaurant_3,2,memory-2step-stake-s,575,1619808,0.0-18.0-0.0-0.82,3964,8,7
83,4,object_07,object_01,676.06,7,1,417.345,1.0,1,object_10,1,1253,0,9,8,restaurant_30,2,memory-2step-stake-s,576,1628359,0.0-18.0-0.0-0.83,3964,7,8
84,1,object_06,object_02,707.9650001,1,2,363.715,0.8888888888888888,1,object_10,5,1293,0,8,9,desert_32,2,memory-2step-stake-s,577,1636771,0.0-18.0-0.0-0.84,3964,2,1
85,2,object_03,object_05,740.7849999,3,1,310.2799999,0.8888888888888888,1,object_10,5,1333,0,8,7,forest_25,2,memory-2step-stake-s,578,1645124,0.0-18.0-0.0-0.85,3964,3,4
86,3,object_08,object_09,628.3399998,5,1,437.7100002,0.7777777777777778,1,object_10,1,1340,0,7,4,library_24,2,memory-2step-stake-s,579,1653506,0.0-18.0-0.0-0.86,3964,5,6
87,3,object_08,object_09,634.6149998999999,6,2,372.9600003,0.7777777777777778,2,object_04,1,1347,0,4,7,library_20,2,memory-2step-stake-s,580,1661838,0.0-18.0-0.0-0.87,3964,5,6
88,2,object_03,object_05,730.19,3,1,303.235,0.3333333333333333,1,object_10,5,1362,0,3,6,forest_9,2,memory-2step-stake-s,581,1669667,0.0-18.0-0.0-0.88,3964,3,4
89,4,object_07,object_01,970.7199995999999,7,1,458.98000010000004,0.3333333333333333,1,object_10,1,1365,0,3,2,restaurant_26,2,memory-2step-stake-s,582,1677659,0.0-18.0-0.0-0.89,3964,7,8
90,4,object_07,object_01,498.1150003000001,7,1,460.405,0.4444444444444444,1,object_10,1,1369,0,4,3,restaurant_13,2,memory-2step-stake-s,583,1685763,0.0-18.0-0.0-0.90,3964,7,8
91,2,object_05,object_03,770.3399998,4,1,290.2850001,0.2222222222222222,2,object_04,5,1379,0,5,2,forest_19,2,memory-2step-stake-s,584,1693492,0.0-18.0-0.0-0.91,3964,4,3
92,4,object_01,object_07,652.2850003,7,2,587.9499996000001,0.3333333333333333,1,object_10,1,1382,0,3,2,restaurant_14,2,memory-2step-stake-s,585,1701613,0.0-18.0-0.0-0.92,3964,8,7
93,3,object_09,object_08,471.58499989999996,6,1,274.3200003,0.2222222222222222,2,object_04,1,1384,0,3,2,library_22,2,memory-2step-stake-s,586,1709323,0.0-18.0-0.0-0.93,3964,6,5
94,4,object_07,object_01,545.1799999,8,2,322.2250002,0.4444444444444444,2,object_04,1,1388,0,2,4,restaurant_6,2,memory-2step-stake-s,587,1717284,0.0-18.0-0.0-0.94,3964,7,8
95,1,object_02,object_06,592.9299998,1,1,289.105,0.3333333333333333,1,object_10,5,1403,0,3,3,desert_14,2,memory-2step-stake-s,588,1725113,0.0-18.0-0.0-0.95,3964,1,2
96,2,object_03,object_05,1106.395,4,2,323.1349997,0.4444444444444444,2,object_04,5,1423,0,5,4,forest_22,2,memory-2step-stake-s,589,1733073,0.0-18.0-0.0-0.96,3964,3,4
97,2,object_03,object_05,1034.0,3,1,424.3100001,0.4444444444444444,1,object_10,5,1443,0,4,5,forest_23,2,memory-2step-stake-s,590,1741153,0.0-18.0-0.0-0.97,3964,3,4
98,4,object_07,object_01,545.7000001,8,2,338.4850002,0.6666666666666666,2,object_04,1,1449,0,2,6,restaurant_24,2,memory-2step-stake-s,591,1749336,0.0-18.0-0.0-0.98,3964,7,8
99,1,object_02,object_06,560.6050002000001,2,2,308.495,0.8888888888888888,2,object_04,5,1489,0,1,8,desert_16,2,memory-2step-stake-s,592,1757677,0.0-18.0-0.0-0.99,3964,1,2
100,1,object_02,object_06,477.6099999,2,2,430.15499969999996,0.8888888888888888,2,object_04,5,1529,0,3,8,desert_16,2,memory-2step-stake-s,593,1766150,0.0-18.0-0.0-0.100,3964,1,2
101,3,object_09,object_08,887.3149999,6,1,330.5700002,0.5555555555555556,2,object_04,1,1534,0,3,5,library_19,2,memory-2step-stake-s,594,1774218,0.0-18.0-0.0-0.101,3964,6,5
102,1,object_06,object_02,673.9950002999999,1,2,373.0849996,0.0,1,object_10,5,1534,0,0,2,desert_27,2,memory-2step-stake-s,595,1781823,0.0-18.0-0.0-0.102,3964,2,1
103,4,object_07,object_01,490.4149999,7,1,498.435,0.1111111111111111,1,object_10,1,1535,0,1,1,restaurant_3,2,memory-2step-stake-s,596,1789661,0.0-18.0-0.0-0.103,3964,7,8
104,2,object_05,object_03,740.6950002,4,1,388.4149999,0.2222222222222222,2,object_04,5,1545,0,2,2,forest_20,2,memory-2step-stake-s,597,1797491,0.0-18.0-0.0-0.104,3964,4,3
105,1,object_06,object_02,774.4650002999999,2,1,376.2650001,0.4444444444444444,2,object_04,5,1565,0,2,4,desert_28,2,memory-2step-stake-s,598,1805510,0.0-18.0-0.0-0.105,3964,2,1
106,1,object_02,object_06,658.5200001000001,2,2,326.355,0.3333333333333333,2,object_04,5,1580,0,1,3,desert_32,2,memory-2step-stake-s,599,1813371,0.0-18.0-0.0-0.106,3964,1,2
107,4,object_07,object_01,738.2800002,7,1,547.2550001,0.1111111111111111,1,object_10,1,1581,0,1,0,restaurant_23,2,memory-2step-stake-s,600,1821251,0.0-18.0-0.0-0.107,3964,7,8
108,1,object_02,object_06,653.5049998,2,2,428.9699998,0.1111111111111111,2,object_04,5,1586,0,1,1,desert_8,2,memory-2step-stake-s,601,1829011,0.0-18.0-0.0-0.108,3964,1,2
109,3,object_08,object_09,644.355,6,2,494.12499969999993,0.2222222222222222,2,object_04,1,1588,0,1,2,library_11,2,memory-2step-stake-s,602,1836948,0.0-18.0-0.0-0.109,3964,5,6
110,4,object_01,object_07,629.5949998,7,2,332.63499989999997,0.1111111111111111,1,object_10,1,1589,0,1,4,restaurant_16,2,memory-2step-stake-s,603,1844610,0.0-18.0-0.0-0.110,3964,8,7
111,1,object_02,object_06,686.16,2,2,335.7150001,0.6666666666666666,2,object_04,5,1619,0,2,6,desert_20,2,memory-2step-stake-s,604,1852800,0.0-18.0-0.0-0.111,3964,1,2
112,4,object_07,object_01,783.7650003,8,2,705.7849997999999,0.6666666666666666,2,object_04,5,1649,0,2,6,restaurant_32,2,memory-2step-stake-s,605,1861345,0.0-18.0-0.0-0.112,3964,7,8
113,2,object_05,object_03,733.9699999,4,1,305.615,0.5555555555555556,2,object_04,5,1674,0,5,5,forest_20,2,memory-2step-stake-s,606,1869394,0.0-18.0-0.0-0.113,3964,4,3
114,4,object_01,object_07,576.595,7,2,439.1549998,0.5555555555555556,1,object_10,1,1679,0,5,5,restaurant_7,2,memory-2step-stake-s,607,1877586,0.0-18.0-0.0-0.114,3964,8,7
115,2,object_05,object_03,776.3749999,3,2,343.7900003,0.3333333333333333,1,object_10,1,1682,0,3,7,forest_9,2,memory-2step-stake-s,608,1885464,0.0-18.0-0.0-0.115,3964,4,3
116,1,object_02,object_06,648.3700001,2,2,352.38499989999997,0.5555555555555556,2,object_04,5,1707,0,3,5,desert_11,2,memory-2step-stake-s,609,1893553,0.0-18.0-0.0-0.116,3964,1,2
117,1,object_06,object_02,693.4350003,2,1,429.0299998,0.6666666666666666,2,object_04,5,1737,0,6,6,desert_3,2,memory-2step-stake-s,610,1901836,0.0-18.0-0.0-0.117,3964,2,1
118,3,object_09,object_08,827.265,6,1,455.6749999,1.0,2,object_04,1,1746,0,6,9,library_16,2,memory-2step-stake-s,611,1910441,0.0-18.0-0.0-0.118,3964,6,5
119,1,object_06,object_02,469.6650002,2,1,357.6099998,1.0,2,object_04,5,1791,0,3,9,desert_29,2,memory-2step-stake-s,612,1918945,0.0-18.0-0.0-0.119,3964,2,1
120,4,object_01,object_07,451.1600002,7,2,502.165,0.5555555555555556,1,object_10,1,1796,0,5,9,restaurant_20,2,memory-2step-stake-s,613,1927186,0.0-18.0-0.0-0.120,3964,8,7
121,2,object_03,object_05,778.86,4,2,355.5300003,0.7777777777777778,2,object_04,5,1831,0,3,7,forest_14,2,memory-2step-stake-s,614,1935484,0.0-18.0-0.0-0.121,3964,3,4
122,2,object_05,object_03,628.7449999,4,1,303.3349998,0.7777777777777778,2,object_04,5,1866,0,3,7,forest_25,2,memory-2step-stake-s,615,1943721,0.0-18.0-0.0-0.122,3964,4,3
123,4,object_01,object_07,730.7450002999999,8,1,307.8149999,0.7777777777777778,2,object_04,5,1901,0,1,7,restaurant_32,2,memory-2step-stake-s,616,1951974,0.0-18.0-0.0-0.123,3964,8,7
124,2,object_05,object_03,518.6000001,4,1,430.05000010000003,0.6666666666666666,2,object_04,5,1931,0,0,6,forest_3,2,memory-2step-stake-s,617,1960245,0.0-18.0-0.0-0.124,3964,4,3
125,3,object_09,object_08,700.0099998,5,2,469.1550001,0.1111111111111111,1,object_10,1,1932,0,1,8,library_2,2,memory-2step-stake-s,618,1968044,0.0-18.0-0.0-0.125,3964,6,5
126,3,object_08,object_09,607.4650004,5,1,423.44,0.3333333333333333,1,object_10,1,1935,0,3,8,library_16,2,memory-2step-stake-s,619,1976006,0.0-18.0-0.0-0.126,3964,5,6
127,4,object_07,object_01,420.955,7,1,384.05,0.3333333333333333,1,object_10,1,1938,0,3,7,restaurant_24,2,memory-2step-stake-s,620,1983916,0.0-18.0-0.0-0.127,3964,7,8
128,4,object_07,object_01,633.6250002,8,2,280.9300004,0.5555555555555556,2,object_04,5,1963,0,2,5,restaurant_13,2,memory-2step-stake-s,622,1993698,0.0-18.0-0.1-0.128,3964,7,8
129,4,object_01,object_07,427.5950002,8,1,351.4649998,0.6666666666666666,2,object_04,1,1969,0,1,6,restaurant_1,2,memory-2step-stake-s,623,2001879,0.0-18.0-0.1-0.129,3964,8,7
130,3,object_09,object_08,690.2599996,5,2,414.91500010000004,0.1111111111111111,1,object_10,1,1970,0,1,5,library_1,2,memory-2step-stake-s,624,2009623,0.0-18.0-0.1-0.130,3964,6,5
131,4,object_01,object_07,457.6100004,8,1,330.54,0.6666666666666666,2,object_04,5,2000,0,0,6,restaurant_24,2,memory-2step-stake-s,625,2017798,0.0-18.0-0.1-0.131,3964,8,7
132,2,object_03,object_05,780.2650002,4,2,457.16999979999997,0.8888888888888888,2,object_04,1,2008,0,2,8,forest_17,2,memory-2step-stake-s,626,2026296,0.0-18.0-0.1-0.132,3964,3,4
133,4,object_01,object_07,433.60999969999995,8,1,321.9099999,0.8888888888888888,2,object_04,5,2048,0,2,8,restaurant_23,2,memory-2step-stake-s,627,2034658,0.0-18.0-0.1-0.133,3964,8,7
134,2,object_03,object_05,580.5249996,3,1,340.67500010000003,0.0,1,object_10,1,2048,0,0,9,forest_28,2,memory-2step-stake-s,628,2042228,0.0-18.0-0.1-0.134,3964,3,4
135,1,object_02,object_06,806.0400002,2,2,389.885,1.0,2,object_04,5,2093,0,1,9,desert_29,2,memory-2step-stake-s,629,2050771,0.0-18.0-0.1-0.135,3964,1,2
136,1,object_06,object_02,933.805,2,1,349.525,0.8888888888888888,2,object_04,5,2133,0,2,8,desert_5,2,memory-2step-stake-s,630,2059166,0.0-18.0-0.1-0.136,3964,2,1
137,3,object_09,object_08,643.495,5,2,259.9849999,0.0,1,object_10,1,2133,0,0,8,library_20,2,memory-2step-stake-s,631,2066664,0.0-18.0-0.1-0.137,3964,6,5
138,2,object_03,object_05,1497.815,4,2,514.7250001,0.7777777777777778,2,object_04,5,2168,0,1,7,forest_25,2,memory-2step-stake-s,632,2075137,0.0-18.0-0.1-0.138,3964,3,4
139,4,object_07,object_01,536.485,7,1,43.65999997,0.4444444444444444,1,object_10,1,2172,0,4,8,restaurant_16,2,memory-2step-stake-s,633,2082821,0.0-18.0-0.1-0.139,3964,7,8
140,1,object_02,object_06,733.5000001,1,1,359.9450001,0.4444444444444444,1,object_10,1,2176,0,4,7,desert_14,2,memory-2step-stake-s,634,2090819,0.0-18.0-0.1-0.140,3964,1,2
141,1,object_02,object_06,741.7049999,1,1,285.1749999,0.3333333333333333,1,object_10,1,2179,0,3,8,desert_9,2,memory-2step-stake-s,635,2098639,0.0-18.0-0.1-0.141,3964,1,2
142,4,object_07,object_01,800.52,8,2,360.95499989999996,0.8888888888888888,2,object_04,5,2219,0,2,8,restaurant_6,2,memory-2step-stake-s,636,2107042,0.0-18.0-0.1-0.142,3964,7,8
143,3,object_09,object_08,908.7700001000001,6,1,412.7699998,0.8888888888888888,2,object_04,1,2227,0,0,8,library_30,2,memory-2step-stake-s,637,2115497,0.0-18.0-0.1-0.143,3964,6,5
144,4,object_07,object_01,793.0300003,7,1,370.745,0.2222222222222222,1,object_10,1,2229,0,2,8,restaurant_1,2,memory-2step-stake-s,638,2123306,0.0-18.0-0.1-0.144,3964,7,8
145,4,object_01,object_07,729.9550002999999,8,1,298.25,0.6666666666666666,2,object_04,5,2259,0,1,6,restaurant_10,2,memory-2step-stake-s,639,2131439,0.0-18.0-0.1-0.145,3964,8,7
146,1,object_02,object_06,656.8450001,1,1,320.15499980000004,0.0,1,object_10,5,2259,0,0,5,desert_29,2,memory-2step-stake-s,640,2138986,0.0-18.0-0.1-0.146,3964,1,2
147,2,object_03,object_05,628.5399999,4,2,310.7100003,0.5555555555555556,2,object_04,5,2284,0,3,5,forest_2,2,memory-2step-stake-s,641,2147046,0.0-18.0-0.1-0.147,3964,3,4
148,1,object_02,object_06,704.5149999,2,2,328.4649998,0.3333333333333333,2,object_04,5,2299,0,3,3,desert_32,2,memory-2step-stake-s,642,2154895,0.0-18.0-0.1-0.148,3964,1,2
149,1,object_06,object_02,574.2349997,2,1,370.72,0.5555555555555556,2,object_04,5,2324,0,7,5,desert_8,2,memory-2step-stake-s,643,2162992,0.0-18.0-0.1-0.149,3964,2,1
150,4,object_07,object_01,793.2449998,8,2,305.0550004,0.2222222222222222,2,object_04,5,2334,0,7,2,restaurant_20,2,memory-2step-stake-s,644,2170731,0.0-18.0-0.1-0.150,3964,7,8
151,4,object_01,object_07,561.4899998,7,2,796.3049999,0.4444444444444444,1,object_10,1,2338,0,4,2,restaurant_32,2,memory-2step-stake-s,645,2179175,0.0-18.0-0.1-0.151,3964,8,7
152,4,object_01,object_07,819.1400003,7,2,869.4750001,0.0,1,object_10,1,2338,0,0,3,restaurant_14,2,memory-2step-stake-s,646,2187265,0.0-18.0-0.1-0.152,3964,8,7
153,2,object_03,object_05,771.4450001,3,1,290.8350001,0.3333333333333333,1,object_10,5,2353,0,3,5,forest_9,2,memory-2step-stake-s,647,2195102,0.0-18.0-0.1-0.153,3964,3,4
154,4,object_07,object_01,415.5099997,8,2,351.855,0.5555555555555556,2,object_04,1,2358,0,1,5,restaurant_20,2,memory-2step-stake-s,648,2203193,0.0-18.0-0.1-0.154,3964,7,8
155,3,object_09,object_08,713.0499999,6,1,342.2349999,0.5555555555555556,2,object_04,5,2383,0,2,5,library_14,2,memory-2step-stake-s,649,2211284,0.0-18.0-0.1-0.155,3964,6,5
156,2,object_03,object_05,825.5099999,4,2,281.4250002,0.2222222222222222,2,object_04,5,2393,0,1,2,forest_2,2,memory-2step-stake-s,650,2219002,0.0-18.0-0.1-0.156,3964,3,4
157,1,object_06,object_02,698.235,1,2,362.8000002,0.3333333333333333,1,object_10,5,2408,0,3,4,desert_26,2,memory-2step-stake-s,651,2226902,0.0-18.0-0.1-0.157,3964,2,1
158,3,object_09,object_08,774.5400001,5,2,347.6349995,0.7777777777777778,1,object_10,1,2415,0,7,6,library_20,2,memory-2step-stake-s,652,2235185,0.0-18.0-0.1-0.158,3964,6,5
159,4,object_01,object_07,498.4950004,8,1,388.425,0.5555555555555556,2,object_04,1,2420,0,7,5,restaurant_24,2,memory-2step-stake-s,653,2243304,0.0-18.0-0.1-0.159,3964,8,7
160,4,object_01,object_07,555.2650001000001,7,2,267.8950001,0.6666666666666666,1,object_10,1,2426,0,6,1,restaurant_29,2,memory-2step-stake-s,654,2251417,0.0-18.0-0.1-0.160,3964,8,7
161,1,object_06,object_02,490.0449999,1,2,336.66,0.6666666666666666,1,object_10,5,2456,0,6,2,desert_32,2,memory-2step-stake-s,655,2259601,0.0-18.0-0.1-0.161,3964,2,1
162,2,object_03,object_05,738.08,3,1,346.4599997,0.5555555555555556,1,object_10,5,2481,0,5,2,forest_14,2,memory-2step-stake-s,656,2267692,0.0-18.0-0.1-0.162,3964,3,4
163,2,object_03,object_05,637.7900001,4,2,382.0599997,0.3333333333333333,2,object_04,5,2496,0,3,3,forest_2,2,memory-2step-stake-s,657,2275613,0.0-18.0-0.1-0.163,3964,3,4
164,2,object_05,object_03,1026.135,3,2,450.07000030000006,0.3333333333333333,1,object_10,5,2511,0,3,0,forest_3,2,memory-2step-stake-s,658,2283601,0.0-18.0-0.1-0.164,3964,4,3
165,3,object_08,object_09,880.6950002999998,6,2,474.1000002,0.1111111111111111,2,object_04,1,2512,0,2,1,library_9,2,memory-2step-stake-s,659,2291407,0.0-18.0-0.1-0.165,3964,5,6
166,4,object_07,object_01,652.3899999,7,1,324.38500039999997,0.1111111111111111,1,object_10,5,2517,0,1,2,restaurant_23,2,memory-2step-stake-s,660,2299067,0.0-18.0-0.1-0.166,3964,7,8
167,3,object_08,object_09,503.2299999,6,2,472.3550002,0.1111111111111111,2,object_04,1,2518,0,3,1,library_13,2,memory-2step-stake-s,661,2306875,0.0-18.0-0.1-0.167,3964,5,6
168,1,object_02,object_06,758.595,2,2,327.085,0.1111111111111111,2,object_04,5,2523,0,4,1,desert_27,2,memory-2step-stake-s,662,2314532,0.0-18.0-0.1-0.168,3964,1,2
169,3,object_08,object_09,766.8149997,6,2,366.5550002,0.0,2,object_04,1,2523,0,5,0,library_30,2,memory-2step-stake-s,663,2322129,0.0-18.0-0.1-0.169,3964,5,6
170,3,object_08,object_09,570.2999998,5,1,418.4599998,0.0,1,object_10,1,2523,0,0,4,library_12,2,memory-2step-stake-s,664,2329784,0.0-18.0-0.1-0.170,3964,5,6
171,1,object_06,object_02,793.9200001,2,1,333.78499980000004,0.5555555555555556,2,object_04,5,2548,0,2,5,desert_9,2,memory-2step-stake-s,665,2337860,0.0-18.0-0.1-0.171,3964,2,1
172,3,object_08,object_09,811.0699998,6,2,301.27999980000004,0.4444444444444444,2,object_04,1,2552,0,5,4,library_24,2,memory-2step-stake-s,666,2345797,0.0-18.0-0.1-0.172,3964,5,6
173,4,object_07,object_01,755.7900003,7,1,291.6899999,0.4444444444444444,1,object_10,1,2556,0,4,4,restaurant_13,2,memory-2step-stake-s,667,2353735,0.0-18.0-0.1-0.173,3964,7,8
174,1,object_02,object_06,774.615,2,2,283.5999997,0.5555555555555556,2,object_04,5,2581,0,3,5,desert_11,2,memory-2step-stake-s,668,2361754,0.0-18.0-0.1-0.174,3964,1,2
175,1,object_02,object_06,489.60999960000004,1,1,521.0849996999999,0.3333333333333333,1,object_10,1,2584,0,3,7,desert_19,2,memory-2step-stake-s,669,2369803,0.0-18.0-0.1-0.175,3964,1,2
176,1,object_02,object_06,1145.22,1,1,477.07499979999994,0.5555555555555556,1,object_10,1,2589,0,5,6,desert_29,2,memory-2step-stake-s,670,2378021,0.0-18.0-0.1-0.176,3964,1,2
177,4,object_01,object_07,896.8950002,8,1,378.1499998,0.8888888888888888,2,object_04,1,2597,0,7,8,restaurant_16,2,memory-2step-stake-s,671,2386426,0.0-18.0-0.1-0.177,3964,8,7
178,4,object_01,object_07,752.6150001,7,2,319.925,0.4444444444444444,1,object_10,1,2601,0,4,9,restaurant_3,2,memory-2step-stake-s,672,2394373,0.0-18.0-0.1-0.178,3964,8,7
179,3,object_09,object_08,787.85,5,2,315.0499999,0.3333333333333333,1,object_10,1,2604,0,3,9,library_1,2,memory-2step-stake-s,673,2402221,0.0-18.0-0.1-0.179,3964,6,5
180,2,object_05,object_03,920.75,4,1,353.2150001,0.8888888888888888,2,object_04,5,2644,0,6,8,forest_19,2,memory-2step-stake-s,674,2410622,0.0-18.0-0.1-0.180,3964,4,3
181,4,object_07,object_01,846.3949999,8,2,69.87500004,0.4444444444444444,2,object_04,5,2664,0,8,4,restaurant_14,2,memory-2step-stake-s,675,2418331,0.0-18.0-0.1-0.181,3964,7,8
182,3,object_09,object_08,994.6950004,5,2,983.0749999,0.6666666666666666,1,object_10,1,2670,0,6,5,library_2,2,memory-2step-stake-s,676,2427157,0.0-18.0-0.1-0.182,3964,6,5
183,4,object_01,object_07,504.48999969999994,7,2,355.21999980000004,0.5555555555555556,1,object_10,1,2675,0,5,7,restaurant_7,2,memory-2step-stake-s,677,2435247,0.0-18.0-0.1-0.183,3964,8,7
184,2,object_03,object_05,709.4700001,4,2,342.3249996,0.8888888888888888,2,object_04,1,2683,0,1,8,forest_23,2,memory-2step-stake-s,678,2443638,0.0-18.0-0.1-0.184,3964,3,4
185,1,object_02,object_06,744.0749998,2,2,336.79000010000004,0.7777777777777778,2,object_04,5,2718,0,3,7,desert_23,2,memory-2step-stake-s,679,2451908,0.0-18.0-0.1-0.185,3964,1,2
186,1,object_02,object_06,573.1299999,1,1,230.82999980000002,0.5555555555555556,1,object_10,5,2743,0,5,7,desert_11,2,memory-2step-stake-s,680,2459877,0.0-18.0-0.1-0.186,3964,1,2
187,3,object_09,object_08,631.7349998,6,1,337.0050001,0.8888888888888888,2,object_04,5,2783,0,7,8,library_25,2,memory-2step-stake-s,681,2468267,0.0-18.0-0.1-0.187,3964,6,5
188,1,object_02,object_06,713.4000002,2,2,273.70999989999996,0.6666666666666666,2,object_04,5,2813,0,9,6,desert_3,2,memory-2step-stake-s,682,2476373,0.0-18.0-0.1-0.188,3964,1,2
189,4,object_01,object_07,631.0399999,7,2,394.3149997,0.5555555555555556,1,object_10,1,2818,0,5,4,restaurant_25,2,memory-2step-stake-s,683,2484491,0.0-18.0-0.1-0.189,3964,8,7
190,2,object_05,object_03,984.6049998999999,3,2,378.395,0.8888888888888888,1,object_10,5,2858,0,8,4,forest_17,2,memory-2step-stake-s,684,2492922,0.0-18.0-0.1-0.190,3964,4,3
191,1,object_02,object_06,818.3749998,2,2,257.95,0.6666666666666666,2,object_04,5,2888,0,4,6,desert_26,2,memory-2step-stake-s,685,2501015,0.0-18.0-0.1-0.191,3964,1,2
192,3,object_09,object_08,647.14,5,2,360.0349999,0.4444444444444444,1,object_10,5,2908,0,4,5,library_13,2,memory-2step-stake-s,686,2509009,0.0-18.0-0.1-0.192,3964,6,5
193,3,object_09,object_08,762.0649999,5,2,-1.0,0.0,1,object_10,1,2908,0,7,6,library_19,2,memory-2step-stake-s,687,2517539,0.0-18.0-0.1-0.193,3964,6,5
194,2,object_03,object_05,544.0199999,3,1,288.925,0.7777777777777778,1,object_10,5,2943,0,7,9,forest_6,2,memory-2step-stake-s,688,2525774,0.0-18.0-0.1-0.194,3964,3,4
195,1,object_06,object_02,546.3749999,1,2,256.6399998,1.0,1,object_10,5,2988,0,9,9,desert_5,2,memory-2step-stake-s,689,2534162,0.0-18.0-0.1-0.195,3964,2,1
196,2,object_03,object_05,1158.865,3,1,361.215,0.8888888888888888,1,object_10,5,3028,0,8,9,forest_3,2,memory-2step-stake-s,690,2542571,0.0-18.0-0.1-0.196,3964,3,4
197,4,object_07,object_01,583.0000001,7,1,206.615,1.0,1,object_10,5,3073,0,9,9,restaurant_30,2,memory-2step-stake-s,691,2550929,0.0-18.0-0.1-0.197,3964,7,8
198,2,object_05,object_03,572.9799997,4,1,262.3300003,0.7777777777777778,2,object_04,5,3108,0,7,7,forest_6,2,memory-2step-stake-s,692,2559138,0.0-18.0-0.1-0.198,3964,4,3
199,1,object_06,object_02,627.63,1,2,254.2499998,0.5555555555555556,1,object_10,5,3133,0,5,7,desert_28,2,memory-2step-stake-s,693,2567115,0.0-18.0-0.1-0.199,3964,2,1
200,3,object_09,object_08,626.8150001,6,1,306.7449997,0.5555555555555556,2,object_04,5,3158,0,7,5,library_24,2,memory-2step-stake-s,694,2575168,0.0-18.0-0.1-0.200,3964,6,5
201,4,object_01,object_07,593.08,7,2,333.51999989999996,0.8888888888888888,1,object_10,1,3166,0,8,5,restaurant_26,2,memory-2step-stake-s,695,2583539,0.0-18.0-0.1-0.201,3964,8,7
202,1,object_02,object_06,557.5099997000001,1,1,255.7800002,0.7777777777777778,1,object_10,5,3201,0,7,7,desert_26,2,memory-2step-stake-s,696,2591727,0.0-18.0-0.1-0.202,3964,1,2
203,3,object_08,object_09,592.8250002,5,1,269.63,0.6666666666666666,1,object_10,1,3207,0,6,5,library_12,2,memory-2step-stake-s,697,2599829,0.0-18.0-0.1-0.203,3964,5,6
204,3,object_08,object_09,609.565,6,2,276.29,0.6666666666666666,2,object_04,5,3237,0,2,6,library_2,2,memory-2step-stake-s,698,2607940,0.0-18.0-0.1-0.204,3964,5,6
205,3,object_09,object_08,827.8450002000001,6,1,294.4450001,0.4444444444444444,2,object_04,1,3241,0,4,4,library_5,2,memory-2step-stake-s,699,2615877,0.0-18.0-0.1-0.205,3964,6,5
206,3,object_08,object_09,677.2949997999999,5,1,318.9350003,0.4444444444444444,1,object_10,5,3261,0,4,2,library_22,2,memory-2step-stake-s,700,2623830,0.0-18.0-0.1-0.206,3964,5,6
207,4,object_07,object_01,790.1149997,8,2,450.81999989999997,0.2222222222222222,2,object_04,1,3263,0,3,2,restaurant_1,2,memory-2step-stake-s,701,2631705,0.0-18.0-0.1-0.207,3964,7,8
208,2,object_05,object_03,885.5099999,3,2,312.0300001,0.6666666666666666,1,object_10,5,3293,0,6,4,forest_6,2,memory-2step-stake-s,702,2639849,0.0-18.0-0.1-0.208,3964,4,3
209,1,object_02,object_06,573.1199998,1,1,412.7600002,0.4444444444444444,1,object_10,5,3313,0,4,6,desert_26,2,memory-2step-stake-s,703,2647894,0.0-18.0-0.1-0.209,3964,1,2
210,1,object_02,object_06,450.0899999,1,1,372.49,0.6666666666666666,1,object_10,5,3343,0,6,6,desert_5,2,memory-2step-stake-s,704,2656093,0.0-18.0-0.1-0.210,3964,1,2
211,4,object_07,object_01,483.18499979999996,7,1,396.5100003,0.8888888888888888,1,object_10,5,3383,0,8,5,restaurant_10,2,memory-2step-stake-s,705,2664530,0.0-18.0-0.1-0.211,3964,7,8
212,2,object_03,object_05,846.0900001,3,1,229.75499969999998,0.7777777777777778,1,object_10,5,3418,0,7,7,forest_14,2,memory-2step-stake-s,706,2672706,0.0-18.0-0.1-0.212,3964,3,4
213,3,object_09,object_08,1131.525,6,1,412.5550003,0.5555555555555556,2,object_04,1,3423,0,8,5,library_11,2,memory-2step-stake-s,707,2680861,0.0-18.0-0.1-0.213,3964,6,5
214,4,object_01,object_07,538.4249999,8,1,253.98499980000003,0.6666666666666666,2,object_04,1,3429,0,8,6,restaurant_13,2,memory-2step-stake-s,708,2688969,0.0-18.0-0.1-0.214,3964,8,7
215,3,object_08,object_09,587.2449996,5,1,219.56000010000002,0.7777777777777778,1,object_10,1,3436,0,7,3,library_5,2,memory-2step-stake-s,709,2697141,0.0-18.0-0.1-0.215,3964,5,6
216,1,object_02,object_06,545.8149998,1,1,352.6249998,0.8888888888888888,1,object_10,5,3476,0,8,4,desert_27,2,memory-2step-stake-s,710,2705552,0.0-18.0-0.1-0.216,3964,1,2
217,1,object_06,object_02,1454.085,2,1,410.48000010000004,0.3333333333333333,2,object_04,5,3491,0,8,3,desert_3,2,memory-2step-stake-s,711,2713491,0.0-18.0-0.1-0.217,3964,2,1
218,4,object_01,object_07,528.4099997999999,8,1,289.0750002,0.2222222222222222,2,object_04,1,3493,0,7,2,restaurant_26,2,memory-2step-stake-s,712,2721210,0.0-18.0-0.1-0.218,3964,8,7
219,3,object_09,object_08,556.32,5,2,303.845,0.8888888888888888,1,object_10,5,3533,0,8,8,library_25,2,memory-2step-stake-s,713,2729559,0.0-18.0-0.1-0.219,3964,6,5
220,2,object_03,object_05,898.4650001,3,1,333.3150004,0.4444444444444444,1,object_10,1,3537,0,4,8,forest_13,2,memory-2step-stake-s,714,2737536,0.0-18.0-0.1-0.220,3964,3,4
221,4,object_07,object_01,470.365,8,2,471.30499969999994,0.6666666666666666,2,object_04,1,3543,0,6,6,restaurant_20,2,memory-2step-stake-s,715,2745839,0.0-18.0-0.1-0.221,3964,7,8
222,1,object_06,object_02,1206.935,2,1,314.3150001,0.8888888888888888,2,object_04,5,3583,0,7,8,desert_16,2,memory-2step-stake-s,716,2754207,0.0-18.0-0.1-0.222,3964,2,1
223,3,object_09,object_08,586.17,5,2,59.41500003,0.6666666666666666,1,object_10,1,3589,0,6,7,library_14,2,memory-2step-stake-s,717,2762107,0.0-18.0-0.1-0.223,3964,6,5
224,4,object_01,object_07,1423.965,8,1,376.7649997,0.8888888888888888,2,object_04,1,3597,0,7,8,restaurant_3,2,memory-2step-stake-s,718,2770541,0.0-18.0-0.1-0.224,3964,8,7
225,4,object_07,object_01,599.655,7,1,303.79499960000004,0.5555555555555556,1,object_10,1,3602,0,5,6,restaurant_16,2,memory-2step-stake-s,719,2778575,0.0-18.0-0.1-0.225,3964,7,8
226,1,object_06,object_02,720.6700002,2,1,300.09499980000004,1.0,2,object_04,5,3647,0,4,9,desert_20,2,memory-2step-stake-s,720,2787016,0.0-18.0-0.1-0.226,3964,2,1
227,4,object_07,object_01,625.1149997,8,2,177.015,0.8888888888888888,2,object_04,1,3655,0,7,8,restaurant_29,2,memory-2step-stake-s,721,2795236,0.0-18.0-0.1-0.227,3964,7,8
228,2,object_05,object_03,796.8649998999999,4,1,333.2549999,0.3333333333333333,2,object_04,5,3670,0,7,3,forest_22,2,memory-2step-stake-s,722,2803104,0.0-18.0-0.1-0.228,3964,4,3
229,3,object_09,object_08,528.1849996999999,5,2,463.68,0.7777777777777778,1,object_10,5,3705,0,7,5,library_14,2,memory-2step-stake-s,723,2811505,0.0-18.0-0.1-0.229,3964,6,5
230,2,object_05,object_03,624.4199997999999,3,2,281.5300003,0.4444444444444444,1,object_10,5,3725,0,4,6,forest_28,2,memory-2step-stake-s,724,2819431,0.0-18.0-0.1-0.230,3964,4,3
231,2,object_03,object_05,593.355,3,1,194.135,0.6666666666666666,1,object_10,5,3755,0,6,5,forest_18,2,memory-2step-stake-s,725,2827470,0.0-18.0-0.1-0.231,3964,3,4
232,3,object_08,object_09,569.6149998999999,5,1,49.52000035,0.4444444444444444,1,object_10,1,3759,0,4,9,library_22,2,memory-2step-stake-s,726,2835159,0.0-18.0-0.1-0.232,3964,5,6
233,2,object_05,object_03,682.8550002999999,4,1,338.6400002,0.3333333333333333,2,object_04,5,3774,0,7,3,forest_5,2,memory-2step-stake-s,727,2843027,0.0-18.0-0.1-0.233,3964,4,3
234,4,object_07,object_01,980.0400002999999,7,1,502.115,1.0,1,object_10,5,3819,0,9,3,restaurant_7,2,memory-2step-stake-s,728,2851672,0.0-18.0-0.1-0.234,3964,7,8
235,4,object_01,object_07,641.1549997999999,7,2,281.11500010000003,0.7777777777777778,1,object_10,5,3854,0,7,3,restaurant_23,2,memory-2step-stake-s,729,2859891,0.0-18.0-0.1-0.235,3964,8,7
236,3,object_08,object_09,541.1299998,6,2,349.68,0.6666666666666666,2,object_04,1,3860,0,9,6,library_19,2,memory-2step-stake-s,730,2868078,0.0-18.0-0.1-0.236,3964,5,6
237,1,object_06,object_02,1295.93,1,2,1240.275,0.5555555555555556,1,object_10,1,3865,0,5,8,desert_23,2,memory-2step-stake-s,731,2877055,0.0-18.0-0.1-0.237,3964,2,1
238,2,object_05,object_03,711.9449996000001,4,1,369.1800004,0.5555555555555556,2,object_04,5,3890,0,3,5,forest_9,2,memory-2step-stake-s,732,2885163,0.0-18.0-0.1-0.238,3964,4,3
239,3,object_08,object_09,692.82,5,1,315.8800001,0.3333333333333333,1,object_10,5,3905,0,3,4,library_30,2,memory-2step-stake-s,733,2893013,0.0-18.0-0.1-0.239,3964,5,6
240,3,object_08,object_09,613.9400001,6,2,335.8999998,0.4444444444444444,2,object_04,1,3909,0,8,4,library_9,2,memory-2step-stake-s,734,2900981,0.0-18.0-0.1-0.240,3964,5,6
241,1,object_02,object_06,894.7149999,1,1,423.5999999,0.6666666666666666,1,object_10,5,3939,0,6,6,desert_28,2,memory-2step-stake-s,735,2909240,0.0-18.0-0.1-0.241,3964,1,2
242,3,object_08,object_09,557.4700002999999,5,1,318.2099997,0.2222222222222222,1,object_10,1,3941,0,2,3,library_21,2,memory-2step-stake-s,736,2916999,0.0-18.0-0.1-0.242,3964,5,6
243,1,object_06,object_02,990.16,2,1,370.8849996,0.3333333333333333,2,object_04,5,3956,0,1,3,desert_28,2,memory-2step-stake-s,737,2924908,0.0-18.0-0.1-0.243,3964,2,1
244,1,object_02,object_06,554.43,1,1,362.6550003,0.0,1,object_10,5,3956,0,0,3,desert_10,2,memory-2step-stake-s,738,2932503,0.0-18.0-0.1-0.244,3964,1,2
245,3,object_09,object_08,486.5999999,5,2,391.2900002,0.1111111111111111,1,object_10,1,3957,0,1,5,library_21,2,memory-2step-stake-s,739,2940225,0.0-18.0-0.1-0.245,3964,6,5
246,4,object_07,object_01,418.73,7,1,285.7050002,0.2222222222222222,1,object_10,1,3959,0,2,1,restaurant_6,2,memory-2step-stake-s,740,2947931,0.0-18.0-0.1-0.246,3964,7,8
247,4,object_01,object_07,515.8849997,7,2,251.9199997,0.1111111111111111,1,object_10,1,3960,0,1,4,restaurant_25,2,memory-2step-stake-s,741,2955516,0.0-18.0-0.1-0.247,3964,8,7
248,2,object_03,object_05,762.17,4,2,300.1099997,0.4444444444444444,2,object_04,5,3980,0,0,4,forest_17,2,memory-2step-stake-s,742,2963439,0.0-18.0-0.1-0.248,3964,3,4
249,4,object_07,object_01,927.8950002,8,2,391.8099999,0.2222222222222222,2,object_04,5,3990,0,1,2,restaurant_30,2,memory-2step-stake-s,743,2971255,0.0-18.0-0.1-0.249,3964,7,8
250,3,object_08,object_09,506.0700001,5,1,330.5550003,0.2222222222222222,1,object_10,5,4000,0,2,3,library_11,2,memory-2step-stake-s,744,2979019,0.0-18.0-0.1-0.250,3964,5,6
251,3,object_09,object_08,623.6650003,5,2,328.9100002,0.2222222222222222,1,object_10,5,4010,0,2,0,library_30,2,memory-2step-stake-s,745,2986792,0.0-18.0-0.1-0.251,3964,6,5
252,2,object_03,object_05,681.2550002,3,1,276.6200001,0.5555555555555556,1,object_10,1,4015,0,5,1,forest_20,2,memory-2step-stake-s,746,2994795,0.0-18.0-0.1-0.252,3964,3,4
253,3,object_09,object_08,642.945,6,1,411.8849998,0.3333333333333333,2,object_04,1,4018,0,6,3,library_20,2,memory-2step-stake-s,747,3002744,0.0-18.0-0.1-0.253,3964,6,5
254,1,object_02,object_06,945.3250002,2,2,457.9750001,0.4444444444444444,2,object_04,1,4022,0,8,4,desert_5,2,memory-2step-stake-s,748,3010835,0.0-18.0-0.1-0.254,3964,1,2
255,3,object_08,object_09,501.24999969999993,5,1,433.92999979999996,0.8888888888888888,1,object_10,1,4030,0,8,8,library_12,2,memory-2step-stake-s,749,3019313,0.0-18.0-0.1-0.255,3964,5,6
