,state1,stim_left,stim_right,rt_1,choice1,response1,rt_2,points,state2,stim_state2,stake,score,practice,rews1,rews2,background,high_arm,trial_type,trial_index,time_elapsed,internal_node_id,subid,stim_left_num,stim_right_num
0,4,object_05,object_10,-1.0,-1,-1,-1.0,0.0,-,,5,0,0,2,5,restaurant_11,1,memory-2step-stake-s,487,975747,0.0-18.0-0.0-0.0,1952,7,8
1,1,object_09,object_06,346.775,2,1,-1.0,0.0,2,object_04,1,0,0,1,4,desert_15,1,memory-2step-stake-s,488,984277,0.0-18.0-0.0-0.1,1952,2,1
2,3,object_02,object_03,905.62,6,1,448.96,1.0,2,object_04,5,45,0,4,9,library_20,1,memory-2step-stake-s,489,992884,0.0-18.0-0.0-0.2,1952,6,5
3,4,object_05,object_10,641.93,7,1,1313.1,0.1111111111111111,1,object_01,5,50,0,1,9,restaurant_12,1,memory-2step-stake-s,490,1001533,0.0-18.0-0.0-0.3,1952,7,8
4,1,object_09,object_06,604.35,2,1,786.635,0.7777777777777778,2,object_04,1,57,0,1,7,desert_11,1,memory-2step-stake-s,491,1010280,0.0-18.0-0.0-0.4,1952,2,1
5,2,object_07,object_08,826.635,4,1,1115.87,0.8888888888888888,2,object_04,5,97,0,3,8,forest_20,1,memory-2step-stake-s,492,1019462,0.0-18.0-0.0-0.5,1952,4,3
6,4,object_10,object_05,585.325,7,2,441.165,0.1111111111111111,1,object_01,5,102,0,1,4,restaurant_32,1,memory-2step-stake-s,493,1027231,0.0-18.0-0.0-0.6,1952,8,7
7,2,object_08,object_07,1447.915,4,2,486.14,0.3333333333333333,2,object_04,1,105,0,0,3,forest_14,1,memory-2step-stake-s,494,1035248,0.0-18.0-0.0-0.7,1952,3,4
8,1,object_06,object_09,502.415,1,1,355.79,0.3333333333333333,1,object_01,5,120,0,3,4,desert_19,1,memory-2step-stake-s,495,1043143,0.0-18.0-0.0-0.8,1952,1,2
9,1,object_06,object_09,426.96,1,1,328.985,0.1111111111111111,1,object_01,1,121,0,1,6,desert_14,1,memory-2step-stake-s,496,1050804,0.0-18.0-0.0-0.9,1952,1,2
10,3,object_03,object_02,566.655,5,1,453.62,0.0,1,object_01,5,121,0,0,4,library_28,1,memory-2step-stake-s,497,1058486,0.0-18.0-0.0-0.10,1952,5,6
11,3,object_03,object_02,644.66,5,1,329.14,0.1111111111111111,1,object_01,5,126,0,1,5,library_32,1,memory-2step-stake-s,498,1066142,0.0-18.0-0.0-0.11,1952,5,6
12,4,object_10,object_05,611.99,8,1,392.22,0.7777777777777778,2,object_04,5,161,0,1,7,restaurant_7,1,memory-2step-stake-s,499,1074474,0.0-18.0-0.0-0.12,1952,8,7
13,3,object_03,object_02,529.935,5,1,292.515,0.0,1,object_01,5,161,0,0,2,library_31,1,memory-2step-stake-s,500,1081996,0.0-18.0-0.0-0.13,1952,5,6
14,4,object_05,object_10,601.49,8,2,382.975,0.0,2,object_04,1,161,0,0,0,restaurant_9,1,memory-2step-stake-s,501,1089607,0.0-18.0-0.0-0.14,1952,7,8
15,4,object_05,object_10,712.62,8,2,410.435,0.3333333333333333,2,object_04,5,176,0,0,3,restaurant_12,1,memory-2step-stake-s,502,1097557,0.0-18.0-0.0-0.15,1952,7,8
16,1,object_06,object_09,606.58,1,1,405.785,0.1111111111111111,1,object_01,1,177,0,1,3,desert_10,1,memory-2step-stake-s,503,1105297,0.0-18.0-0.0-0.16,1952,1,2
17,2,object_08,object_07,571.39,4,2,418.42,0.2222222222222222,2,object_04,1,179,0,1,2,forest_5,1,memory-2step-stake-s,504,1113145,0.0-18.0-0.0-0.17,1952,3,4
18,1,object_09,object_06,709.92,1,2,335.165,0.3333333333333333,1,object_01,5,194,0,3,1,desert_17,1,memory-2step-stake-s,505,1121030,0.0-18.0-0.0-0.18,1952,2,1
19,2,object_08,object_07,604.82,4,2,360.94,0.0,2,object_04,1,194,0,2,0,forest_18,1,memory-2step-stake-s,506,1128621,0.0-18.0-0.0-0.19,1952,3,4
20,1,object_06,object_09,497.0100001,1,1,394.015,0.1111111111111111,1,object_01,5,199,0,1,1,desert_23,1,memory-2step-stake-s,507,1136346,0.0-18.0-0.0-0.20,1952,1,2
21,3,object_03,object_02,519.715,6,2,392.01,0.1111111111111111,2,object_04,5,204,0,4,1,library_6,1,memory-2step-stake-s,508,1144071,0.0-18.0-0.0-0.21,1952,5,6
22,2,object_07,object_08,614.59,3,2,298.005,0.1111111111111111,1,object_01,1,205,0,1,3,forest_14,1,memory-2step-stake-s,509,1151697,0.0-18.0-0.0-0.22,1952,4,3
23,1,object_06,object_09,344.315,1,1,361.575,0.1111111111111111,1,object_01,1,206,0,1,3,desert_21,1,memory-2step-stake-s,510,1159398,0.0-18.0-0.0-0.23,1952,1,2
24,4,object_05,object_10,398.62,8,2,363.305,0.4444444444444444,2,object_04,5,226,0,2,4,restaurant_14,1,memory-2step-stake-s,511,1167398,0.0-18.0-0.0-0.24,1952,7,8
25,3,object_02,object_03,474.845,5,2,423.125,0.1111111111111111,1,object_01,5,231,0,1,2,library_28,1,memory-2step-stake-s,512,1175159,0.0-18.0-0.0-0.25,1952,6,5
26,4,object_05,object_10,505.83,7,1,290.05,0.2222222222222222,1,object_01,5,241,0,2,1,restaurant_31,1,memory-2step-stake-s,513,1182875,0.0-18.0-0.0-0.26,1952,7,8
27,1,object_09,object_06,261.815,1,2,299.025,0.2222222222222222,1,object_01,1,243,0,2,1,desert_2,1,memory-2step-stake-s,514,1190609,0.0-18.0-0.0-0.27,1952,2,1
28,4,object_05,object_10,352.15,7,1,304.47,0.0,1,object_01,5,243,0,0,4,restaurant_19,1,memory-2step-stake-s,515,1198133,0.0-18.0-0.0-0.28,1952,7,8
29,2,object_07,object_08,337.51,3,2,346.84,0.4444444444444444,1,object_01,5,263,0,4,5,forest_18,1,memory-2step-stake-s,516,1206132,0.0-18.0-0.0-0.29,1952,4,3
30,3,object_02,object_03,356.48,5,2,466.065,0.1111111111111111,1,object_01,5,268,0,1,6,library_32,1,memory-2step-stake-s,517,1213917,0.0-18.0-0.0-0.30,1952,6,5
31,3,object_03,object_02,597.955,5,1,341.13,0.1111111111111111,1,object_01,5,273,0,1,1,library_14,1,memory-2step-stake-s,518,1221584,0.0-18.0-0.0-0.31,1952,5,6
32,2,object_07,object_08,307.065,4,1,399.765,0.2222222222222222,2,object_04,1,275,0,0,2,forest_20,1,memory-2step-stake-s,519,1229413,0.0-18.0-0.0-0.32,1952,4,3
33,4,object_05,object_10,276.175,7,1,358.655,0.3333333333333333,1,object_01,1,278,0,3,3,restaurant_23,1,memory-2step-stake-s,520,1237303,0.0-18.0-0.0-0.33,1952,7,8
34,3,object_02,object_03,1059.325,5,2,555.88,0.3333333333333333,1,object_01,5,293,0,3,1,library_23,1,memory-2step-stake-s,521,1245394,0.0-18.0-0.0-0.34,1952,6,5
35,2,object_07,object_08,255.545,4,1,427.025,0.3333333333333333,2,object_04,1,296,0,3,3,forest_9,1,memory-2step-stake-s,522,1253354,0.0-18.0-0.0-0.35,1952,4,3
36,4,object_05,object_10,0.180000032,7,1,434.18,0.4444444444444444,1,object_01,1,300,0,4,2,restaurant_18,1,memory-2step-stake-s,523,1261438,0.0-18.0-0.0-0.36,1952,7,8
37,4,object_05,object_10,447.97,8,2,336.69,0.4444444444444444,2,object_04,5,320,0,2,4,restaurant_20,1,memory-2step-stake-s,524,1269414,0.0-18.0-0.0-0.37,1952,7,8
38,1,object_06,object_09,436.75,2,2,420.56,0.1111111111111111,2,object_04,1,321,0,3,1,desert_15,1,memory-2step-stake-s,525,1277159,0.0-18.0-0.0-0.38,1952,1,2
39,4,object_10,object_05,405.05,8,1,440.265,0.5555555555555556,2,object_04,5,346,0,5,5,restaurant_32,1,memory-2step-stake-s,526,1285343,0.0-18.0-0.0-0.39,1952,8,7
40,1,object_06,object_09,298.805,2,2,423.675,0.4444444444444444,2,object_04,1,350,0,4,4,desert_11,1,memory-2step-stake-s,527,1293401,0.0-18.0-0.0-0.40,1952,1,2
41,4,object_05,object_10,297.795,8,2,360.38,0.4444444444444444,2,object_04,5,370,0,4,4,restaurant_23,1,memory-2step-stake-s,528,1301400,0.0-18.0-0.0-0.41,1952,7,8
42,4,object_05,object_10,280.695,7,1,305.09,0.3333333333333333,1,object_01,5,385,0,3,5,restaurant_14,1,memory-2step-stake-s,529,1309241,0.0-18.0-0.0-0.42,1952,7,8
43,4,object_10,object_05,405.96,7,2,350.035,0.6666666666666666,1,object_01,5,415,0,6,8,restaurant_19,1,memory-2step-stake-s,530,1317443,0.0-18.0-0.0-0.43,1952,8,7
44,3,object_02,object_03,350.18,6,1,391.95,0.8888888888888888,2,object_04,5,455,0,8,8,library_24,1,memory-2step-stake-s,531,1325911,0.0-18.0-0.0-0.44,1952,6,5
45,4,object_05,object_10,363.805,8,2,311.06,0.8888888888888888,2,object_04,5,495,0,8,8,restaurant_7,1,memory-2step-stake-s,532,1334280,0.0-18.0-0.0-0.45,1952,7,8
46,4,object_05,object_10,401.1,8,2,412.345,0.8888888888888888,2,object_04,5,535,0,3,8,restaurant_26,1,memory-2step-stake-s,533,1342752,0.0-18.0-0.0-0.46,1952,7,8
47,4,object_05,object_10,364.785,8,2,417.5949999,1.0,2,object_04,5,580,0,5,9,restaurant_23,1,memory-2step-stake-s,534,1351315,0.0-18.0-0.0-0.47,1952,7,8
48,1,object_09,object_06,1165.115,1,2,556.545,0.5555555555555556,1,object_01,1,585,0,5,7,desert_11,1,memory-2step-stake-s,535,1359600,0.0-18.0-0.0-0.48,1952,2,1
49,4,object_10,object_05,833.26,7,2,315.005,0.2222222222222222,1,object_01,5,595,0,2,6,restaurant_12,1,memory-2step-stake-s,536,1367335,0.0-18.0-0.0-0.49,1952,8,7
50,3,object_03,object_02,523.87,6,2,421.14,0.2222222222222222,2,object_04,5,605,0,1,2,library_6,1,memory-2step-stake-s,537,1375188,0.0-18.0-0.0-0.50,1952,5,6
51,3,object_02,object_03,849.64,6,1,422.885,0.5555555555555556,2,object_04,5,630,0,1,5,library_9,1,memory-2step-stake-s,538,1383366,0.0-18.0-0.0-0.51,1952,6,5
52,1,object_09,object_06,682.62,2,1,339.825,0.6666666666666666,2,object_04,5,660,0,1,6,desert_28,1,memory-2step-stake-s,539,1391564,0.0-18.0-0.0-0.52,1952,2,1
53,2,object_08,object_07,91.77499998,3,1,363.85,0.1111111111111111,1,object_01,1,661,0,1,7,forest_15,1,memory-2step-stake-s,540,1399255,0.0-18.0-0.0-0.53,1952,3,4
54,3,object_03,object_02,443.25,6,2,281.73,0.6666666666666666,2,object_04,5,691,0,1,6,library_23,1,memory-2step-stake-s,541,1407393,0.0-18.0-0.0-0.54,1952,5,6
55,1,object_06,object_09,377.105,1,1,279.765,0.2222222222222222,1,object_01,1,693,0,2,3,desert_15,1,memory-2step-stake-s,542,1415113,0.0-18.0-0.0-0.55,1952,1,2
56,3,object_02,object_03,1153.635,6,1,384.85,0.0,2,object_04,5,693,0,5,0,library_3,1,memory-2step-stake-s,543,1422731,0.0-18.0-0.0-0.56,1952,6,5
57,4,object_05,object_10,530.365,7,1,324.505,0.3333333333333333,1,object_01,5,708,0,3,3,restaurant_7,1,memory-2step-stake-s,544,1430597,0.0-18.0-0.0-0.57,1952,7,8
58,2,object_07,object_08,483.6250001,4,1,284.74,0.3333333333333333,2,object_04,1,711,0,6,3,forest_18,1,memory-2step-stake-s,545,1438425,0.0-18.0-0.0-0.58,1952,4,3
59,4,object_10,object_05,463.82,8,1,285.035,0.4444444444444444,2,object_04,5,731,0,7,4,restaurant_20,1,memory-2step-stake-s,546,1446351,0.0-18.0-0.0-0.59,1952,8,7
60,4,object_10,object_05,432.25,8,1,368.825,0.4444444444444444,2,object_04,5,751,0,5,4,restaurant_16,1,memory-2step-stake-s,547,1454372,0.0-18.0-0.0-0.60,1952,8,7
61,1,object_09,object_06,752.965,2,1,461.57,0.3333333333333333,2,object_04,1,754,0,7,3,desert_27,1,memory-2step-stake-s,548,1462371,0.0-18.0-0.0-0.61,1952,2,1
62,2,object_08,object_07,263.635,4,2,370.49,0.8888888888888888,2,object_04,1,762,0,7,8,forest_17,1,memory-2step-stake-s,549,1470794,0.0-18.0-0.0-0.62,1952,3,4
63,2,object_07,object_08,781.96,3,2,440.295,0.5555555555555556,1,object_01,1,767,0,5,5,forest_1,1,memory-2step-stake-s,550,1478976,0.0-18.0-0.0-0.63,1952,4,3
64,2,object_07,object_08,396.925,3,2,348.525,0.6666666666666666,1,object_01,1,773,0,6,6,forest_18,1,memory-2step-stake-s,551,1487167,0.0-18.0-0.0-0.64,1952,4,3
65,1,object_09,object_06,516.1,1,2,277.385,0.4444444444444444,1,object_01,1,777,0,4,5,desert_21,1,memory-2step-stake-s,552,1495095,0.0-18.0-0.0-0.65,1952,2,1
66,2,object_07,object_08,501.095,3,2,318.595,0.3333333333333333,1,object_01,1,780,0,3,5,forest_15,1,memory-2step-stake-s,553,1502953,0.0-18.0-0.0-0.66,1952,4,3
67,1,object_06,object_09,290.255,2,2,424.06,0.8888888888888888,2,object_04,1,788,0,5,8,desert_17,1,memory-2step-stake-s,554,1511435,0.0-18.0-0.0-0.67,1952,1,2
68,2,object_08,object_07,640.155,4,2,369.465,0.8888888888888888,2,object_04,1,796,0,7,8,forest_7,1,memory-2step-stake-s,555,1519860,0.0-18.0-0.0-0.68,1952,3,4
69,1,object_06,object_09,506.365,2,2,294.13,1.0,2,object_04,1,805,0,9,9,desert_27,1,memory-2step-stake-s,556,1528312,0.0-18.0-0.0-0.69,1952,1,2
70,1,object_09,object_06,512.475,2,1,349.245,1.0,2,object_04,5,850,0,9,9,desert_7,1,memory-2step-stake-s,557,1536830,0.0-18.0-0.0-0.70,1952,2,1
71,3,object_02,object_03,613.76,6,1,288.17,0.5555555555555556,2,object_04,5,875,0,9,5,library_4,1,memory-2step-stake-s,558,1544862,0.0-18.0-0.0-0.71,1952,6,5
72,2,object_08,object_07,471.01,4,2,324.02,0.6666666666666666,2,object_04,1,881,0,4,6,forest_14,1,memory-2step-stake-s,559,1553033,0.0-18.0-0.0-0.72,1952,3,4
73,2,object_07,object_08,504.01,3,2,416.44,0.5555555555555556,1,object_01,5,906,0,5,9,forest_1,1,memory-2step-stake-s,560,1561192,0.0-18.0-0.0-0.73,1952,4,3
74,4,object_05,object_10,388.785,8,2,286.885,0.8888888888888888,2,object_04,5,946,0,8,8,restaurant_31,1,memory-2step-stake-s,561,1569535,0.0-18.0-0.0-0.74,1952,7,8
75,2,object_08,object_07,278.125,3,1,498.825,0.8888888888888888,1,object_01,1,954,0,8,6,forest_14,1,memory-2step-stake-s,562,1578096,0.0-18.0-0.0-0.75,1952,3,4
76,4,object_10,object_05,504.11,8,1,310.535,0.3333333333333333,2,object_04,5,969,0,8,3,restaurant_19,1,memory-2step-stake-s,563,1585941,0.0-18.0-0.0-0.76,1952,8,7
77,3,object_02,object_03,410.26,5,2,513.275,0.7777777777777778,1,object_01,5,1004,0,7,3,library_4,1,memory-2step-stake-s,564,1594400,0.0-18.0-0.0-0.77,1952,6,5
78,4,object_10,object_05,648.915,8,1,379.67,0.1111111111111111,2,object_04,5,1009,0,9,1,restaurant_7,1,memory-2step-stake-s,565,1602120,0.0-18.0-0.0-0.78,1952,8,7
79,4,object_10,object_05,718.025,7,2,383.485,0.8888888888888888,1,object_01,5,1049,0,8,1,restaurant_14,1,memory-2step-stake-s,566,1610564,0.0-18.0-0.0-0.79,1952,8,7
80,2,object_08,object_07,754.02,3,1,281.07,0.7777777777777778,1,object_01,1,1056,0,7,2,forest_7,1,memory-2step-stake-s,567,1618790,0.0-18.0-0.0-0.80,1952,3,4
81,2,object_07,object_08,831.605,3,2,322.275,0.5555555555555556,1,object_01,5,1081,0,5,4,forest_10,1,memory-2step-stake-s,568,1626856,0.0-18.0-0.0-0.81,1952,4,3
82,1,object_06,object_09,681.5,2,2,481.425,0.7777777777777778,2,object_04,1,1088,0,3,7,desert_8,1,memory-2step-stake-s,569,1635286,0.0-18.0-0.0-0.82,1952,1,2
83,3,object_02,object_03,268.335,5,2,320.005,0.6666666666666666,1,object_01,5,1118,0,6,9,library_32,1,memory-2step-stake-s,570,1643463,0.0-18.0-0.0-0.83,1952,6,5
84,1,object_06,object_09,383.575,2,2,313.69,0.7777777777777778,2,object_04,5,1153,0,6,7,desert_16,1,memory-2step-stake-s,571,1651737,0.0-18.0-0.0-0.84,1952,1,2
85,1,object_06,object_09,333.775,1,1,292.105,0.2222222222222222,1,object_01,1,1155,0,2,8,desert_8,1,memory-2step-stake-s,572,1659469,0.0-18.0-0.0-0.85,1952,1,2
86,1,object_06,object_09,357.09,2,2,285.995,0.5555555555555556,2,object_04,5,1180,0,1,5,desert_4,1,memory-2step-stake-s,573,1667498,0.0-18.0-0.0-0.86,1952,1,2
87,2,object_07,object_08,273.98,3,2,300.035,0.2222222222222222,1,object_01,5,1190,0,2,5,forest_29,1,memory-2step-stake-s,574,1675236,0.0-18.0-0.0-0.87,1952,4,3
88,4,object_05,object_10,582.785,8,2,325.485,0.6666666666666666,2,object_04,5,1220,0,4,6,restaurant_18,1,memory-2step-stake-s,575,1683419,0.0-18.0-0.0-0.88,1952,7,8
89,2,object_07,object_08,279.08,4,1,417.735,0.4444444444444444,2,object_04,1,1224,0,7,4,forest_21,1,memory-2step-stake-s,576,1691487,0.0-18.0-0.0-0.89,1952,4,3
90,4,object_10,object_05,515.33,7,2,307.625,0.6666666666666666,1,object_01,5,1254,0,6,5,restaurant_9,1,memory-2step-stake-s,577,1699622,0.0-18.0-0.0-0.90,1952,8,7
91,2,object_07,object_08,359.96,3,2,402.495,0.7777777777777778,1,object_01,1,1261,0,7,5,forest_29,1,memory-2step-stake-s,578,1707957,0.0-18.0-0.0-0.91,1952,4,3
92,4,object_05,object_10,388.825,8,2,329.94,1.0,2,object_04,5,1306,0,4,9,restaurant_31,1,memory-2step-stake-s,579,1716442,0.0-18.0-0.0-0.92,1952,7,8
93,3,object_03,object_02,371.36,6,2,349.445,0.6666666666666666,2,object_04,5,1336,0,2,6,library_28,1,memory-2step-stake-s,580,1724637,0.0-18.0-0.0-0.93,1952,5,6
94,3,object_02,object_03,531.325,5,2,254.635,0.3333333333333333,1,object_01,1,1339,0,3,6,library_9,1,memory-2step-stake-s,581,1732417,0.0-18.0-0.0-0.94,1952,6,5
95,1,object_06,object_09,568.7999999,2,2,373.57,0.5555555555555556,2,object_04,1,1344,0,3,5,desert_7,1,memory-2step-stake-s,582,1740548,0.0-18.0-0.0-0.95,1952,1,2
96,2,object_08,object_07,597.55,4,2,346.555,0.5555555555555556,2,object_04,1,1349,0,2,5,forest_10,1,memory-2step-stake-s,583,1748648,0.0-18.0-0.0-0.96,1952,3,4
97,3,object_02,object_03,988.185,5,2,619.975,0.1111111111111111,1,object_01,1,1350,0,1,2,library_7,1,memory-2step-stake-s,584,1756601,0.0-18.0-0.0-0.97,1952,6,5
98,1,object_06,object_09,436.265,2,2,291.345,0.2222222222222222,2,object_04,1,1352,0,4,2,desert_21,1,memory-2step-stake-s,585,1764321,0.0-18.0-0.0-0.98,1952,1,2
99,4,object_05,object_10,547.58,7,1,307.005,0.4444444444444444,1,object_01,5,1372,0,4,2,restaurant_11,1,memory-2step-stake-s,586,1772270,0.0-18.0-0.0-0.99,1952,7,8
100,4,object_10,object_05,440.955,7,2,441.165,0.5555555555555556,1,object_01,5,1397,0,5,2,restaurant_8,1,memory-2step-stake-s,587,1780451,0.0-18.0-0.0-0.100,1952,8,7
101,3,object_02,object_03,307.215,5,2,304.035,0.6666666666666666,1,object_01,5,1427,0,6,0,library_15,1,memory-2step-stake-s,588,1788611,0.0-18.0-0.0-0.101,1952,6,5
102,3,object_02,object_03,321.26,5,2,350.495,0.5555555555555556,1,object_01,5,1452,0,5,1,library_15,1,memory-2step-stake-s,589,1796715,0.0-18.0-0.0-0.102,1952,6,5
103,1,object_09,object_06,265.825,1,2,381.985,0.6666666666666666,1,object_01,5,1482,0,6,1,desert_19,1,memory-2step-stake-s,590,1804939,0.0-18.0-0.0-0.103,1952,2,1
104,3,object_03,object_02,440.14,6,2,465.205,0.1111111111111111,2,object_04,5,1487,0,7,1,library_20,1,memory-2step-stake-s,591,1812736,0.0-18.0-0.0-0.104,1952,5,6
105,2,object_08,object_07,350.8,4,2,461.235,0.2222222222222222,2,object_04,5,1497,0,8,2,forest_17,1,memory-2step-stake-s,592,1820643,0.0-18.0-0.0-0.105,1952,3,4
106,4,object_05,object_10,649.555,8,2,243.915,0.0,2,object_04,5,1497,0,8,0,restaurant_14,1,memory-2step-stake-s,593,1828109,0.0-18.0-0.0-0.106,1952,7,8
107,1,object_09,object_06,587.62,2,1,313.06,0.2222222222222222,2,object_04,5,1507,0,7,2,desert_17,1,memory-2step-stake-s,594,1835900,0.0-18.0-0.0-0.107,1952,2,1
108,4,object_05,object_10,549.95,8,2,450.065,0.2222222222222222,2,object_04,5,1517,0,7,2,restaurant_32,1,memory-2step-stake-s,595,1843772,0.0-18.0-0.0-0.108,1952,7,8
109,4,object_10,object_05,269.355,7,2,318.615,0.5555555555555556,1,object_01,1,1522,0,5,3,restaurant_8,1,memory-2step-stake-s,596,1851826,0.0-18.0-0.0-0.109,1952,8,7
110,3,object_02,object_03,796.485,5,2,294.695,0.3333333333333333,1,object_01,5,1537,0,3,3,library_2,1,memory-2step-stake-s,597,1859664,0.0-18.0-0.0-0.110,1952,6,5
111,1,object_06,object_09,509.3799999,2,2,395.115,0.4444444444444444,2,object_04,5,1557,0,3,4,desert_24,1,memory-2step-stake-s,598,1867700,0.0-18.0-0.0-0.111,1952,1,2
112,3,object_02,object_03,232.865,5,2,317.355,0.0,1,object_01,5,1557,0,0,8,library_9,1,memory-2step-stake-s,599,1875237,0.0-18.0-0.0-0.112,1952,6,5
113,1,object_09,object_06,567.65,1,2,360.86500010000003,0.3333333333333333,1,object_01,1,1560,0,3,9,desert_10,1,memory-2step-stake-s,600,1883140,0.0-18.0-0.0-0.113,1952,2,1
114,3,object_02,object_03,451.475,6,1,374.225,0.8888888888888888,2,object_04,5,1600,0,1,8,library_7,1,memory-2step-stake-s,601,1891578,0.0-18.0-0.0-0.114,1952,6,5
115,2,object_07,object_08,440.845,3,2,256.7650001,0.1111111111111111,1,object_01,1,1601,0,1,9,forest_26,1,memory-2step-stake-s,602,1899164,0.0-18.0-0.0-0.115,1952,4,3
116,2,object_07,object_08,441.51,3,2,441.97,0.2222222222222222,1,object_01,1,1603,0,2,8,forest_32,1,memory-2step-stake-s,603,1907044,0.0-18.0-0.0-0.116,1952,4,3
117,1,object_09,object_06,598.66,1,2,292.025,0.0,1,object_01,1,1603,0,0,7,desert_4,1,memory-2step-stake-s,604,1914553,0.0-18.0-0.0-0.117,1952,2,1
118,4,object_10,object_05,655.4,7,2,297.595,0.1111111111111111,1,object_01,1,1604,0,1,8,restaurant_23,1,memory-2step-stake-s,605,1922184,0.0-18.0-0.0-0.118,1952,8,7
119,2,object_08,object_07,554.1,4,2,323.89,0.7777777777777778,2,object_04,1,1611,0,1,7,forest_17,1,memory-2step-stake-s,606,1930465,0.0-18.0-0.0-0.119,1952,3,4
120,4,object_10,object_05,626.93,7,2,336.005,0.1111111111111111,1,object_01,5,1616,0,1,6,restaurant_9,1,memory-2step-stake-s,607,1938137,0.0-18.0-0.0-0.120,1952,8,7
121,2,object_07,object_08,758.06,3,2,336.15,0.0,1,object_01,1,1616,0,0,7,forest_1,1,memory-2step-stake-s,608,1945688,0.0-18.0-0.0-0.121,1952,4,3
122,2,object_07,object_08,587.865,3,2,294.045,0.3333333333333333,1,object_01,1,1619,0,3,9,forest_29,1,memory-2step-stake-s,609,1953526,0.0-18.0-0.0-0.122,1952,4,3
123,2,object_08,object_07,779.815,3,1,326.205,0.3333333333333333,1,object_01,1,1622,0,3,7,forest_7,1,memory-2step-stake-s,610,1961386,0.0-18.0-0.0-0.123,1952,3,4
124,1,object_09,object_06,928.34,1,2,399.51,0.0,1,object_01,1,1622,0,0,7,desert_11,1,memory-2step-stake-s,611,1969016,0.0-18.0-0.0-0.124,1952,2,1
125,3,object_03,object_02,617.155,6,2,389.79,0.6666666666666666,2,object_04,5,1652,0,2,6,library_4,1,memory-2step-stake-s,612,1977256,0.0-18.0-0.0-0.125,1952,5,6
126,3,object_03,object_02,462.985,6,2,420.26,0.6666666666666666,2,object_04,5,1682,0,1,6,library_7,1,memory-2step-stake-s,613,1985519,0.0-18.0-0.0-0.126,1952,5,6
127,3,object_02,object_03,622.815,6,1,311.88,0.4444444444444444,2,object_04,1,1686,0,1,4,library_14,1,memory-2step-stake-s,614,1993479,0.0-18.0-0.0-0.127,1952,6,5
128,2,object_08,object_07,581.61,3,1,290.455,0.3333333333333333,1,object_01,1,1689,0,3,6,forest_20,1,memory-2step-stake-s,616,2118660,0.0-18.0-0.1-0.128,1952,3,4
129,2,object_08,object_07,528.65,3,1,266.15,0.4444444444444444,1,object_01,1,1693,0,4,7,forest_21,1,memory-2step-stake-s,617,2126570,0.0-18.0-0.1-0.129,1952,3,4
130,3,object_02,object_03,921.88,5,2,317.675,0.3333333333333333,1,object_01,5,1708,0,3,8,library_30,1,memory-2step-stake-s,618,2134440,0.0-18.0-0.1-0.130,1952,6,5
131,3,object_03,object_02,608.9549999,6,2,387.695,0.8888888888888888,2,object_04,5,1748,0,2,8,library_31,1,memory-2step-stake-s,619,2142891,0.0-18.0-0.1-0.131,1952,5,6
132,2,object_08,object_07,403.335,4,2,365.145,0.7777777777777778,2,object_04,1,1755,0,1,7,forest_31,1,memory-2step-stake-s,620,2151205,0.0-18.0-0.1-0.132,1952,3,4
133,4,object_10,object_05,653.725,8,1,320.935,0.8888888888888888,2,object_04,5,1795,0,1,8,restaurant_18,1,memory-2step-stake-s,621,2159584,0.0-18.0-0.1-0.133,1952,8,7
134,1,object_09,object_06,499.74,1,2,339.945,0.2222222222222222,1,object_01,1,1797,0,2,9,desert_10,1,memory-2step-stake-s,622,2167364,0.0-18.0-0.1-0.134,1952,2,1
135,1,object_06,object_09,759.99,1,1,285.985,0.0,1,object_01,1,1797,0,0,6,desert_23,1,memory-2step-stake-s,623,2174882,0.0-18.0-0.1-0.135,1952,1,2
136,2,object_08,object_07,437.035,4,2,560.335,0.6666666666666666,2,object_04,5,1827,0,2,6,forest_5,1,memory-2step-stake-s,624,2183306,0.0-18.0-0.1-0.136,1952,3,4
137,1,object_06,object_09,390.805,2,2,258.555,0.7777777777777778,2,object_04,1,1834,0,0,7,desert_15,1,memory-2step-stake-s,625,2191533,0.0-18.0-0.1-0.137,1952,1,2
138,2,object_08,object_07,713.19,3,1,388.815,0.4444444444444444,1,object_01,1,1838,0,4,6,forest_13,1,memory-2step-stake-s,626,2199577,0.0-18.0-0.1-0.138,1952,3,4
139,3,object_03,object_02,395.95,6,2,364.915,1.0,2,object_04,5,1883,0,4,9,library_23,1,memory-2step-stake-s,627,2208102,0.0-18.0-0.1-0.139,1952,5,6
140,1,object_09,object_06,308.1,2,1,353.77,0.8888888888888888,2,object_04,1,1891,0,5,8,desert_23,1,memory-2step-stake-s,628,2216520,0.0-18.0-0.1-0.140,1952,2,1
141,4,object_05,object_10,402.245,8,2,369.575,0.6666666666666666,2,object_04,5,1921,0,8,6,restaurant_27,1,memory-2step-stake-s,629,2224735,0.0-18.0-0.1-0.141,1952,7,8
142,3,object_02,object_03,362.005,6,1,313.345,0.7777777777777778,2,object_04,5,1956,0,6,7,library_2,1,memory-2step-stake-s,630,2232993,0.0-18.0-0.1-0.142,1952,6,5
143,2,object_08,object_07,857.88,4,2,358.085,0.7777777777777778,2,object_04,1,1963,0,5,7,forest_26,1,memory-2step-stake-s,631,2241306,0.0-18.0-0.1-0.143,1952,3,4
144,1,object_09,object_06,670.82,1,2,379.085,0.3333333333333333,1,object_01,1,1966,0,3,6,desert_14,1,memory-2step-stake-s,632,2249217,0.0-18.0-0.1-0.144,1952,2,1
145,2,object_08,object_07,1136.05,3,1,402.56,0.2222222222222222,1,object_01,1,1968,0,2,3,forest_29,1,memory-2step-stake-s,633,2257054,0.0-18.0-0.1-0.145,1952,3,4
146,4,object_05,object_10,404.255,8,2,475.145,0.6666666666666666,2,object_04,5,1998,0,1,6,restaurant_8,1,memory-2step-stake-s,634,2265375,0.0-18.0-0.1-0.146,1952,7,8
147,2,object_08,object_07,395.87,4,2,322.73500010000004,0.5555555555555556,2,object_04,1,2003,0,3,5,forest_32,1,memory-2step-stake-s,635,2273440,0.0-18.0-0.1-0.147,1952,3,4
148,1,object_09,object_06,550.26,1,2,316.3,0.4444444444444444,1,object_01,1,2007,0,4,1,desert_27,1,memory-2step-stake-s,636,2281406,0.0-18.0-0.1-0.148,1952,2,1
149,2,object_08,object_07,565.175,4,2,333.565,0.0,2,object_04,1,2007,0,4,0,forest_32,1,memory-2step-stake-s,637,2288968,0.0-18.0-0.1-0.149,1952,3,4
150,3,object_02,object_03,465.185,6,1,293.265,0.2222222222222222,2,object_04,5,2017,0,5,2,library_30,1,memory-2step-stake-s,638,2296700,0.0-18.0-0.1-0.150,1952,6,5
151,3,object_03,object_02,330.515,6,2,288.77,0.2222222222222222,2,object_04,5,2027,0,3,2,library_9,1,memory-2step-stake-s,639,2304424,0.0-18.0-0.1-0.151,1952,5,6
152,3,object_02,object_03,459.5150001,6,1,524.475,0.1111111111111111,2,object_04,5,2032,0,2,1,library_4,1,memory-2step-stake-s,640,2312282,0.0-18.0-0.1-0.152,1952,6,5
153,4,object_05,object_10,419.165,8,2,306.415,0.1111111111111111,2,object_04,1,2033,0,3,1,restaurant_15,1,memory-2step-stake-s,641,2319914,0.0-18.0-0.1-0.153,1952,7,8
154,3,object_02,object_03,569.675,6,1,295.25,0.1111111111111111,2,object_04,5,2038,0,2,1,library_23,1,memory-2step-stake-s,642,2327547,0.0-18.0-0.1-0.154,1952,6,5
155,2,object_07,object_08,413.91,3,2,280.22,0.3333333333333333,1,object_01,1,2041,0,3,3,forest_26,1,memory-2step-stake-s,643,2335369,0.0-18.0-0.1-0.155,1952,4,3
156,2,object_07,object_08,507.64,3,2,262.54,0.3333333333333333,1,object_01,1,2044,0,3,1,forest_21,1,memory-2step-stake-s,644,2343172,0.0-18.0-0.1-0.156,1952,4,3
157,1,object_06,object_09,1330.405,2,2,-1.0,0.0,2,object_04,5,2044,0,5,2,desert_21,1,memory-2step-stake-s,645,2351698,0.0-18.0-0.1-0.157,1952,1,2
158,3,object_02,object_03,441.06,6,1,338.755,0.4444444444444444,2,object_04,5,2064,0,5,4,library_3,1,memory-2step-stake-s,646,2359690,0.0-18.0-0.1-0.158,1952,6,5
159,4,object_10,object_05,444.875,8,1,344.625,0.5555555555555556,2,object_04,5,2089,0,9,5,restaurant_27,1,memory-2step-stake-s,647,2367783,0.0-18.0-0.1-0.159,1952,8,7
160,1,object_06,object_09,694.97,2,2,517.925,0.4444444444444444,2,object_04,1,2093,0,8,4,desert_2,1,memory-2step-stake-s,648,2375946,0.0-18.0-0.1-0.160,1952,1,2
161,1,object_09,object_06,393.4,1,2,369.205,0.7777777777777778,1,object_01,1,2100,0,7,4,desert_7,1,memory-2step-stake-s,649,2384282,0.0-18.0-0.1-0.161,1952,2,1
162,1,object_09,object_06,648.765,2,1,286.655,0.5555555555555556,2,object_04,1,2105,0,7,5,desert_24,1,memory-2step-stake-s,650,2392313,0.0-18.0-0.1-0.162,1952,2,1
163,2,object_07,object_08,667.445,3,2,246.47,0.3333333333333333,1,object_01,5,2120,0,3,2,forest_13,1,memory-2step-stake-s,651,2400103,0.0-18.0-0.1-0.163,1952,4,3
164,2,object_08,object_07,451.36,3,1,365.04,0.1111111111111111,1,object_01,1,2121,0,1,5,forest_5,1,memory-2step-stake-s,652,2407794,0.0-18.0-0.1-0.164,1952,3,4
165,2,object_07,object_08,597.31,3,2,341.62,0.1111111111111111,1,object_01,1,2122,0,1,5,forest_32,1,memory-2step-stake-s,653,2415466,0.0-18.0-0.1-0.165,1952,4,3
166,1,object_06,object_09,524.26,2,2,506.94,0.3333333333333333,2,object_04,1,2125,0,3,3,desert_28,1,memory-2step-stake-s,654,2423511,0.0-18.0-0.1-0.166,1952,1,2
167,4,object_10,object_05,348.65,7,2,385.585,0.0,1,object_01,5,2125,0,0,7,restaurant_15,1,memory-2step-stake-s,655,2431123,0.0-18.0-0.1-0.167,1952,8,7
168,1,object_09,object_06,438.02,1,2,390.36,0.0,1,object_01,1,2125,0,0,4,desert_24,1,memory-2step-stake-s,656,2438752,0.0-18.0-0.1-0.168,1952,2,1
169,2,object_08,object_07,786.88,3,1,336.115,0.1111111111111111,1,object_01,1,2126,0,1,3,forest_31,1,memory-2step-stake-s,657,2446428,0.0-18.0-0.1-0.169,1952,3,4
170,4,object_05,object_10,508.36,8,2,249.57,0.1111111111111111,2,object_04,5,2131,0,2,1,restaurant_20,1,memory-2step-stake-s,658,2454015,0.0-18.0-0.1-0.170,1952,7,8
171,2,object_08,object_07,330.28,3,1,304.24,0.1111111111111111,1,object_01,1,2132,0,1,1,forest_9,1,memory-2step-stake-s,659,2461652,0.0-18.0-0.1-0.171,1952,3,4
172,3,object_03,object_02,382.07,6,2,277.65,0.0,2,object_04,1,2132,0,3,0,library_24,1,memory-2step-stake-s,660,2469158,0.0-18.0-0.1-0.172,1952,5,6
173,4,object_10,object_05,384.845,8,1,274.83,0.4444444444444444,2,object_04,5,2152,0,1,4,restaurant_8,1,memory-2step-stake-s,661,2477073,0.0-18.0-0.1-0.173,1952,8,7
174,3,object_03,object_02,558.465,6,2,333.56,0.3333333333333333,2,object_04,5,2167,0,1,3,library_6,1,memory-2step-stake-s,662,2484940,0.0-18.0-0.1-0.174,1952,5,6
175,1,object_09,object_06,408.785,2,1,239.225,0.2222222222222222,2,object_04,1,2169,0,0,2,desert_10,1,memory-2step-stake-s,663,2492608,0.0-18.0-0.1-0.175,1952,2,1
176,3,object_03,object_02,509.775,5,1,294.995,0.2222222222222222,1,object_01,5,2179,0,2,3,library_2,1,memory-2step-stake-s,664,2500343,0.0-18.0-0.1-0.176,1952,5,6
177,2,object_07,object_08,406.21,3,2,265.435,0.4444444444444444,1,object_01,1,2183,0,4,4,forest_13,1,memory-2step-stake-s,665,2508248,0.0-18.0-0.1-0.177,1952,4,3
178,1,object_09,object_06,566.38,2,1,255.905,0.7777777777777778,2,object_04,1,2190,0,0,7,desert_19,1,memory-2step-stake-s,666,2516456,0.0-18.0-0.1-0.178,1952,2,1
179,3,object_03,object_02,430.205,6,2,392.81,0.8888888888888888,2,object_04,5,2230,0,1,8,library_31,1,memory-2step-stake-s,667,2524898,0.0-18.0-0.1-0.179,1952,5,6
180,1,object_09,object_06,507.75,1,2,228.1149999,0.1111111111111111,1,object_01,1,2231,0,1,7,desert_8,1,memory-2step-stake-s,668,2532457,0.0-18.0-0.1-0.180,1952,2,1
181,1,object_06,object_09,736.21,1,1,249.79,0.0,1,object_01,1,2231,0,0,5,desert_2,1,memory-2step-stake-s,669,2539941,0.0-18.0-0.1-0.181,1952,1,2
182,1,object_09,object_06,357.44,2,1,274.725,0.5555555555555556,2,object_04,1,2236,0,3,5,desert_24,1,memory-2step-stake-s,670,2547970,0.0-18.0-0.1-0.182,1952,2,1
183,1,object_09,object_06,530.68,1,2,334.625,0.1111111111111111,1,object_01,1,2237,0,1,9,desert_2,1,memory-2step-stake-s,671,2555641,0.0-18.0-0.1-0.183,1952,2,1
184,4,object_10,object_05,728.925,8,1,371.89,0.8888888888888888,2,object_04,5,2277,0,5,8,restaurant_26,1,memory-2step-stake-s,672,2564061,0.0-18.0-0.1-0.184,1952,8,7
185,1,object_09,object_06,574.43,1,2,406.74,0.6666666666666666,1,object_01,1,2283,0,6,9,desert_4,1,memory-2step-stake-s,673,2572328,0.0-18.0-0.1-0.185,1952,2,1
186,3,object_02,object_03,728.555,5,2,317.97,0.3333333333333333,1,object_01,1,2286,0,3,8,library_14,1,memory-2step-stake-s,674,2580190,0.0-18.0-0.1-0.186,1952,6,5
187,4,object_05,object_10,542.71,8,2,504.63,0.8888888888888888,2,object_04,5,2326,0,4,8,restaurant_15,1,memory-2step-stake-s,675,2588762,0.0-18.0-0.1-0.187,1952,7,8
188,3,object_03,object_02,476.48,6,2,332.435,0.6666666666666666,2,object_04,5,2356,0,3,6,library_6,1,memory-2step-stake-s,676,2596954,0.0-18.0-0.1-0.188,1952,5,6
189,2,object_08,object_07,1370.935,3,1,650.685,0.1111111111111111,1,object_01,1,2357,0,1,5,forest_21,1,memory-2step-stake-s,677,2604935,0.0-18.0-0.1-0.189,1952,3,4
190,3,object_03,object_02,830.17,6,2,228.765,0.8888888888888888,2,object_04,1,2365,0,6,8,library_24,1,memory-2step-stake-s,678,2613216,0.0-18.0-0.1-0.190,1952,5,6
191,3,object_03,object_02,395.725,6,2,280.415,0.7777777777777778,2,object_04,5,2400,0,8,7,library_24,1,memory-2step-stake-s,679,2621439,0.0-18.0-0.1-0.191,1952,5,6
192,1,object_09,object_06,560.15,2,1,350.905,0.6666666666666666,2,object_04,5,2430,0,7,6,desert_28,1,memory-2step-stake-s,680,2629638,0.0-18.0-0.1-0.192,1952,2,1
193,3,object_02,object_03,463.8049999,6,1,306.725,0.5555555555555556,2,object_04,5,2455,0,6,5,library_15,1,memory-2step-stake-s,681,2637702,0.0-18.0-0.1-0.193,1952,6,5
194,3,object_03,object_02,489.58,6,2,269.23,0.2222222222222222,2,object_04,5,2465,0,7,2,library_20,1,memory-2step-stake-s,682,2645412,0.0-18.0-0.1-0.194,1952,5,6
195,3,object_02,object_03,586.565,5,2,288.385,0.8888888888888888,1,object_01,5,2505,0,8,3,library_30,1,memory-2step-stake-s,683,2653759,0.0-18.0-0.1-0.195,1952,6,5
196,2,object_08,object_07,513.665,3,1,512.615,0.8888888888888888,1,object_01,1,2513,0,8,0,forest_15,1,memory-2step-stake-s,684,2662323,0.0-18.0-0.1-0.196,1952,3,4
197,4,object_05,object_10,509.345,8,2,260.71,0.2222222222222222,2,object_04,5,2523,0,7,2,restaurant_19,1,memory-2step-stake-s,685,2670014,0.0-18.0-0.1-0.197,1952,7,8
198,2,object_08,object_07,1120.915,3,1,294.545,0.6666666666666666,1,object_01,5,2553,0,6,1,forest_31,1,memory-2step-stake-s,686,2678159,0.0-18.0-0.1-0.198,1952,3,4
199,3,object_03,object_02,755.7,5,1,370.89,0.6666666666666666,1,object_01,5,2583,0,6,4,library_5,1,memory-2step-stake-s,687,2686377,0.0-18.0-0.1-0.199,1952,5,6
200,1,object_06,object_09,586.3,1,1,266.33,0.6666666666666666,1,object_01,1,2589,0,6,5,desert_19,1,memory-2step-stake-s,688,2694509,0.0-18.0-0.1-0.200,1952,1,2
201,3,object_03,object_02,405.7,5,1,225.525,0.3333333333333333,1,object_01,5,2604,0,3,1,library_20,1,memory-2step-stake-s,689,2702281,0.0-18.0-0.1-0.201,1952,5,6
202,1,object_09,object_06,625.245,2,1,275.805,0.1111111111111111,2,object_04,5,2609,0,1,1,desert_4,1,memory-2step-stake-s,690,2709895,0.0-18.0-0.1-0.202,1952,2,1
203,4,object_10,object_05,625.31,8,1,37.21500002,0.2222222222222222,2,object_04,1,2611,0,1,2,restaurant_16,1,memory-2step-stake-s,691,2717361,0.0-18.0-0.1-0.203,1952,8,7
204,2,object_08,object_07,769.6,3,1,261.995,0.4444444444444444,1,object_01,5,2631,0,4,2,forest_31,1,memory-2step-stake-s,692,2725270,0.0-18.0-0.1-0.204,1952,3,4
205,3,object_02,object_03,557.58,5,2,267.02,0.1111111111111111,1,object_01,5,2636,0,1,5,library_32,1,memory-2step-stake-s,693,2732874,0.0-18.0-0.1-0.205,1952,6,5
206,1,object_06,object_09,484.985,1,1,247.98,0.5555555555555556,1,object_01,1,2641,0,5,4,desert_16,1,memory-2step-stake-s,694,2740881,0.0-18.0-0.1-0.206,1952,1,2
207,1,object_09,object_06,671.585,1,2,297.72,0.4444444444444444,1,object_01,1,2645,0,4,2,desert_14,1,memory-2step-stake-s,695,2748826,0.0-18.0-0.1-0.207,1952,2,1
208,4,object_10,object_05,289.34,8,1,143.02,0.6666666666666666,2,object_04,5,2675,0,2,6,restaurant_27,1,memory-2step-stake-s,696,2756813,0.0-18.0-0.1-0.208,1952,8,7
209,3,object_03,object_02,495.785,6,2,354.965,0.7777777777777778,2,object_04,5,2710,0,1,7,library_7,1,memory-2step-stake-s,697,2765122,0.0-18.0-0.1-0.209,1952,5,6
210,4,object_05,object_10,447.455,8,2,303.69,0.8888888888888888,2,object_04,5,2750,0,1,8,restaurant_16,1,memory-2step-stake-s,698,2773495,0.0-18.0-0.1-0.210,1952,7,8
211,2,object_08,object_07,317.095,3,1,289.13,0.0,1,object_01,1,2750,0,0,7,forest_13,1,memory-2step-stake-s,699,2781015,0.0-18.0-0.1-0.211,1952,3,4
212,4,object_10,object_05,507.895,8,1,272.245,0.4444444444444444,2,object_04,5,2770,0,0,4,restaurant_26,1,memory-2step-stake-s,700,2788940,0.0-18.0-0.1-0.212,1952,8,7
213,4,object_05,object_10,426.38,8,2,281.125,0.2222222222222222,2,object_04,5,2780,0,0,2,restaurant_26,1,memory-2step-stake-s,701,2796652,0.0-18.0-0.1-0.213,1952,7,8
214,4,object_10,object_05,469.745,8,1,288.555,0.0,2,object_04,5,2780,0,3,0,restaurant_20,1,memory-2step-stake-s,702,2804175,0.0-18.0-0.1-0.214,1952,8,7
215,4,object_10,object_05,507.425,7,2,335.13,0.7777777777777778,1,object_01,5,2815,0,7,1,restaurant_15,1,memory-2step-stake-s,703,2812460,0.0-18.0-0.1-0.215,1952,8,7
216,1,object_09,object_06,442.275,2,1,131.085,0.2222222222222222,2,object_04,1,2817,0,8,2,desert_23,1,memory-2step-stake-s,704,2820022,0.0-18.0-0.1-0.216,1952,2,1
217,2,object_08,object_07,305.355,3,1,272.79,1.0,1,object_01,1,2826,0,9,4,forest_10,1,memory-2step-stake-s,705,2828459,0.0-18.0-0.1-0.217,1952,3,4
218,1,object_09,object_06,-1.0,-1,-1,-1.0,0.0,-,,1,2826,0,8,4,desert_16,1,memory-2step-stake-s,706,2834987,0.0-18.0-0.1-0.218,1952,2,1
219,3,object_03,object_02,-1.0,-1,-1,-1.0,0.0,-,,1,2826,0,7,3,library_5,1,memory-2step-stake-s,707,2841505,0.0-18.0-0.1-0.219,1952,5,6
220,2,object_08,object_07,359.895,3,1,352.225,0.8888888888888888,1,object_01,5,2866,0,8,2,forest_15,1,memory-2step-stake-s,708,2849903,0.0-18.0-0.1-0.220,1952,3,4
221,4,object_10,object_05,309.15,7,2,434.56,0.8888888888888888,1,object_01,5,2906,0,8,2,restaurant_12,1,memory-2step-stake-s,709,2858389,0.0-18.0-0.1-0.221,1952,8,7
222,2,object_08,object_07,328.495,4,2,302.62,0.3333333333333333,2,object_04,5,2921,0,7,3,forest_9,1,memory-2step-stake-s,710,2866227,0.0-18.0-0.1-0.222,1952,3,4
223,3,object_03,object_02,478.415,5,1,366.48,0.7777777777777778,1,object_01,5,2956,0,7,3,library_14,1,memory-2step-stake-s,711,2874539,0.0-18.0-0.1-0.223,1952,5,6
224,2,object_07,object_08,638.955,3,2,316.01,0.7777777777777778,1,object_01,1,2963,0,7,2,forest_10,1,memory-2step-stake-s,712,2882807,0.0-18.0-0.1-0.224,1952,4,3
225,2,object_07,object_08,-1.0,-1,-1,-1.0,0.0,-,,1,2963,0,9,3,forest_20,1,memory-2step-stake-s,713,2889328,0.0-18.0-0.1-0.225,1952,4,3
226,2,object_08,object_07,-1.0,-1,-1,-1.0,0.0,-,,1,2963,0,6,0,forest_9,1,memory-2step-stake-s,714,2895850,0.0-18.0-0.1-0.226,1952,3,4
227,3,object_02,object_03,-1.0,-1,-1,-1.0,0.0,-,,5,2963,0,6,2,library_3,1,memory-2step-stake-s,715,2902375,0.0-18.0-0.1-0.227,1952,6,5
228,1,object_09,object_06,-1.0,-1,-1,-1.0,0.0,-,,5,2963,0,6,1,desert_16,1,memory-2step-stake-s,716,2908894,0.0-18.0-0.1-0.228,1952,2,1
229,1,object_09,object_06,-1.0,-1,-1,-1.0,0.0,-,,5,2963,0,7,3,desert_7,1,memory-2step-stake-s,717,2915417,0.0-18.0-0.1-0.229,1952,2,1
230,3,object_03,object_02,-1.0,-1,-1,-1.0,0.0,-,,5,2963,0,7,6,library_3,1,memory-2step-stake-s,718,2921940,0.0-18.0-0.1-0.230,1952,5,6
231,3,object_02,object_03,-1.0,-1,-1,-1.0,0.0,-,,1,2963,0,4,7,library_30,1,memory-2step-stake-s,719,2928467,0.0-18.0-0.1-0.231,1952,6,5
232,2,object_08,object_07,-1.0,-1,-1,-1.0,0.0,-,,1,2963,0,4,5,forest_7,1,memory-2step-stake-s,720,2934989,0.0-18.0-0.1-0.232,1952,3,4
233,3,object_03,object_02,-1.0,-1,-1,-1.0,0.0,-,,5,2963,0,4,3,library_15,1,memory-2step-stake-s,721,2941507,0.0-18.0-0.1-0.233,1952,5,6
234,2,object_07,object_08,-1.0,-1,-1,-1.0,0.0,-,,5,2963,0,1,1,forest_5,1,memory-2step-stake-s,722,2948028,0.0-18.0-0.1-0.234,1952,4,3
235,4,object_10,object_05,-1.0,-1,-1,-1.0,0.0,-,,5,2963,0,0,0,restaurant_16,1,memory-2step-stake-s,723,2954549,0.0-18.0-0.1-0.235,1952,8,7
236,1,object_06,object_09,-1.0,-1,-1,-1.0,0.0,-,,1,2963,0,2,0,desert_27,1,memory-2step-stake-s,724,2961065,0.0-18.0-0.1-0.236,1952,1,2
237,3,object_03,object_02,-1.0,-1,-1,-1.0,0.0,-,,5,2963,0,1,2,library_5,1,memory-2step-stake-s,725,2967577,0.0-18.0-0.1-0.237,1952,5,6
238,4,object_05,object_10,-1.0,-1,-1,-1.0,0.0,-,,5,2963,0,2,0,restaurant_11,1,memory-2step-stake-s,726,2974092,0.0-18.0-0.1-0.238,1952,7,8
239,4,object_10,object_05,-1.0,-1,-1,-1.0,0.0,-,,5,2963,0,1,2,restaurant_32,1,memory-2step-stake-s,727,2980620,0.0-18.0-0.1-0.239,1952,8,7
240,2,object_07,object_08,-1.0,-1,-1,-1.0,0.0,-,,1,2963,0,1,0,forest_26,1,memory-2step-stake-s,728,2987141,0.0-18.0-0.1-0.240,1952,4,3
241,4,object_10,object_05,-1.0,-1,-1,-1.0,0.0,-,,5,2963,0,1,1,restaurant_18,1,memory-2step-stake-s,729,2993652,0.0-18.0-0.1-0.241,1952,8,7
242,3,object_02,object_03,-1.0,-1,-1,-1.0,0.0,-,,5,2963,0,1,4,library_5,1,memory-2step-stake-s,730,3000167,0.0-18.0-0.1-0.242,1952,6,5
243,3,object_03,object_02,-1.0,-1,-1,-1.0,0.0,-,,5,2963,0,1,7,library_28,1,memory-2step-stake-s,731,3006686,0.0-18.0-0.1-0.243,1952,5,6
244,4,object_05,object_10,-1.0,-1,-1,-1.0,0.0,-,,5,2963,0,0,4,restaurant_31,1,memory-2step-stake-s,732,3013207,0.0-18.0-0.1-0.244,1952,7,8
245,3,object_02,object_03,-1.0,-1,-1,-1.0,0.0,-,,5,2963,0,1,4,library_2,1,memory-2step-stake-s,733,3019721,0.0-18.0-0.1-0.245,1952,6,5
246,4,object_05,object_10,-1.0,-1,-1,-1.0,0.0,-,,5,2963,0,0,8,restaurant_11,1,memory-2step-stake-s,734,3026231,0.0-18.0-0.1-0.246,1952,7,8
247,4,object_05,object_10,-1.0,-1,-1,-1.0,0.0,-,,5,2963,0,1,3,restaurant_27,1,memory-2step-stake-s,735,3032759,0.0-18.0-0.1-0.247,1952,7,8
248,2,object_07,object_08,-1.0,-1,-1,-1.0,0.0,-,,1,2963,0,0,1,forest_1,1,memory-2step-stake-s,736,3039274,0.0-18.0-0.1-0.248,1952,4,3
249,4,object_05,object_10,-1.0,-1,-1,-1.0,0.0,-,,5,2963,0,6,4,restaurant_9,1,memory-2step-stake-s,737,3045800,0.0-18.0-0.1-0.249,1952,7,8
250,2,object_07,object_08,-1.0,-1,-1,-1.0,0.0,-,,1,2963,0,7,5,forest_17,1,memory-2step-stake-s,738,3052324,0.0-18.0-0.1-0.250,1952,4,3
251,1,object_09,object_06,-1.0,-1,-1,-1.0,0.0,-,,1,2963,0,7,6,desert_28,1,memory-2step-stake-s,739,3058846,0.0-18.0-0.1-0.251,1952,2,1
252,3,object_02,object_03,-1.0,-1,-1,-1.0,0.0,-,,5,2963,0,4,6,library_31,1,memory-2step-stake-s,740,3065376,0.0-18.0-0.1-0.252,1952,6,5
253,1,object_06,object_09,-1.0,-1,-1,-1.0,0.0,-,,1,2963,0,3,8,desert_8,1,memory-2step-stake-s,741,3071901,0.0-18.0-0.1-0.253,1952,1,2
254,1,object_06,object_09,-1.0,-1,-1,-1.0,0.0,-,,1,2963,0,2,7,desert_17,1,memory-2step-stake-s,742,3078425,0.0-18.0-0.1-0.254,1952,1,2
255,1,object_06,object_09,-1.0,-1,-1,-1.0,0.0,-,,5,2963,0,1,5,desert_14,1,memory-2step-stake-s,743,3084951,0.0-18.0-0.1-0.255,1952,1,2
