,state1,stim_left,stim_right,rt_1,choice1,response1,rt_2,points,state2,stim_state2,stake,score,practice,rews1,rews2,background,high_arm,trial_type,trial_index,time_elapsed,internal_node_id,subid,stim_left_num,stim_right_num
0,2,object_07,object_09,708.0,3,2,1253.0,0.2222222222222222,1,object_08,5,10,0,2,7,forest_9,2,memory-2step-stake-s,505,5136844,0.0-18.0-0.0-0.0,4480,4,3
1,1,object_10,object_05,873.0,2,2,578.0,0.6666666666666666,2,object_03,5,40,0,3,6,desert_8,2,memory-2step-stake-s,506,5145244,0.0-18.0-0.0-0.1,4480,1,2
2,4,object_01,object_02,907.0,8,1,415.0,1.0,2,object_03,1,49,0,3,9,restaurant_7,2,memory-2step-stake-s,507,5153784,0.0-18.0-0.0-0.2,4480,8,7
3,3,object_06,object_04,795.0,6,1,365.0,0.8888888888888888,2,object_03,1,57,0,0,8,library_16,2,memory-2step-stake-s,508,5162176,0.0-18.0-0.0-0.3,4480,6,5
4,2,object_09,object_07,717.0,4,2,302.0,0.7777777777777778,2,object_03,1,64,0,0,7,forest_13,2,memory-2step-stake-s,509,5170400,0.0-18.0-0.0-0.4,4480,3,4
5,1,object_05,object_10,785.0,2,1,465.0,1.0,2,object_03,5,109,0,3,9,desert_28,2,memory-2step-stake-s,510,5178989,0.0-18.0-0.0-0.5,4480,2,1
6,3,object_04,object_06,633.0,6,2,366.0,0.7777777777777778,2,object_03,1,116,0,2,7,library_20,2,memory-2step-stake-s,511,5187277,0.0-18.0-0.0-0.6,4480,5,6
7,4,object_02,object_01,557.0,8,2,359.0,1.0,2,object_03,5,161,0,1,9,restaurant_8,2,memory-2step-stake-s,512,5195761,0.0-18.0-0.0-0.7,4480,7,8
8,1,object_05,object_10,312.0,2,1,388.0,0.7777777777777778,2,object_03,5,196,0,0,7,desert_24,2,memory-2step-stake-s,513,5204077,0.0-18.0-0.0-0.8,4480,2,1
9,3,object_06,object_04,765.0,5,2,616.0,0.3333333333333333,1,object_08,5,211,0,3,7,library_20,2,memory-2step-stake-s,514,5212209,0.0-18.0-0.0-0.9,4480,6,5
10,4,object_02,object_01,836.0,7,1,448.0,0.5555555555555556,1,object_08,1,216,0,5,9,restaurant_24,2,memory-2step-stake-s,515,5220375,0.0-18.0-0.0-0.10,4480,7,8
11,1,object_10,object_05,676.0,2,2,492.0,0.5555555555555556,2,object_03,5,241,0,6,5,desert_21,2,memory-2step-stake-s,516,5228586,0.0-18.0-0.0-0.11,4480,1,2
12,4,object_02,object_01,562.0,7,1,548.0,1.0,1,object_08,1,250,0,9,3,restaurant_22,2,memory-2step-stake-s,517,5237260,0.0-18.0-0.0-0.12,4480,7,8
13,4,object_02,object_01,889.0,8,2,488.0,0.5555555555555556,2,object_03,1,255,0,5,5,restaurant_7,2,memory-2step-stake-s,518,5245467,0.0-18.0-0.0-0.13,4480,7,8
14,2,object_07,object_09,827.0,4,1,505.0,0.4444444444444444,2,object_03,5,275,0,6,4,forest_28,2,memory-2step-stake-s,519,5253591,0.0-18.0-0.0-0.14,4480,4,3
15,4,object_01,object_02,776.0,7,2,452.0,0.3333333333333333,1,object_08,1,278,0,3,0,restaurant_7,2,memory-2step-stake-s,520,5261565,0.0-18.0-0.0-0.15,4480,8,7
16,3,object_04,object_06,577.0,6,2,437.0,0.1111111111111111,2,object_03,1,279,0,4,1,library_19,2,memory-2step-stake-s,521,5269319,0.0-18.0-0.0-0.16,4480,5,6
17,1,object_10,object_05,804.0,2,2,489.0,0.1111111111111111,2,object_03,5,284,0,4,1,desert_21,2,memory-2step-stake-s,522,5277125,0.0-18.0-0.0-0.17,4480,1,2
18,4,object_01,object_02,709.0,7,2,521.0,0.6666666666666666,1,object_08,1,290,0,6,0,restaurant_31,2,memory-2step-stake-s,523,5285468,0.0-18.0-0.0-0.18,4480,8,7
19,1,object_05,object_10,774.0,1,2,539.0,0.6666666666666666,1,object_08,5,320,0,6,1,desert_26,2,memory-2step-stake-s,524,5293831,0.0-18.0-0.0-0.19,4480,2,1
20,3,object_04,object_06,232.0,5,1,446.0,0.8888888888888888,1,object_08,1,328,0,8,0,library_5,2,memory-2step-stake-s,525,5302305,0.0-18.0-0.0-0.20,4480,5,6
21,1,object_10,object_05,592.0,2,2,436.0,0.3333333333333333,2,object_03,1,331,0,8,3,desert_11,2,memory-2step-stake-s,526,5310260,0.0-18.0-0.0-0.21,4480,1,2
22,1,object_05,object_10,759.0,1,2,455.0,1.0,1,object_08,5,376,0,9,6,desert_31,2,memory-2step-stake-s,527,5318839,0.0-18.0-0.0-0.22,4480,2,1
23,3,object_06,object_04,1129.0,6,1,486.0,0.7777777777777778,2,object_03,1,383,0,7,7,library_10,2,memory-2step-stake-s,528,5327250,0.0-18.0-0.0-0.23,4480,6,5
24,3,object_06,object_04,776.0,6,1,371.0,0.6666666666666666,2,object_03,1,389,0,8,6,library_31,2,memory-2step-stake-s,529,5335443,0.0-18.0-0.0-0.24,4480,6,5
25,3,object_06,object_04,572.0,6,1,424.0,0.4444444444444444,2,object_03,5,409,0,6,4,library_10,2,memory-2step-stake-s,530,5343487,0.0-18.0-0.0-0.25,4480,6,5
26,2,object_09,object_07,873.0,4,2,474.0,0.8888888888888888,2,object_03,5,449,0,9,8,forest_9,2,memory-2step-stake-s,531,5351983,0.0-18.0-0.0-0.26,4480,3,4
27,3,object_06,object_04,811.0,6,1,469.0,0.7777777777777778,2,object_03,1,456,0,8,7,library_7,2,memory-2step-stake-s,532,5360376,0.0-18.0-0.0-0.27,4480,6,5
28,4,object_01,object_02,699.0,7,2,371.0,0.7777777777777778,1,object_08,1,463,0,7,8,restaurant_10,2,memory-2step-stake-s,533,5368672,0.0-18.0-0.0-0.28,4480,8,7
29,3,object_06,object_04,691.0,5,2,363.0,0.8888888888888888,1,object_08,1,471,0,8,6,library_24,2,memory-2step-stake-s,534,5377058,0.0-18.0-0.0-0.29,4480,6,5
30,3,object_04,object_06,977.0,5,1,380.0,0.7777777777777778,1,object_08,1,478,0,7,6,library_9,2,memory-2step-stake-s,535,5385359,0.0-18.0-0.0-0.30,4480,5,6
31,2,object_07,object_09,1245.0,3,2,589.0,0.6666666666666666,1,object_08,5,508,0,6,7,forest_24,2,memory-2step-stake-s,536,5393774,0.0-18.0-0.0-0.31,4480,4,3
32,2,object_09,object_07,1113.0,4,2,543.0,1.0,2,object_03,5,553,0,7,9,forest_9,2,memory-2step-stake-s,537,5402444,0.0-18.0-0.0-0.32,4480,3,4
33,3,object_06,object_04,1023.0,6,1,439.0,0.7777777777777778,2,object_03,5,588,0,3,7,library_30,2,memory-2step-stake-s,538,5410806,0.0-18.0-0.0-0.33,4480,6,5
34,2,object_09,object_07,842.0,3,1,377.0,0.3333333333333333,1,object_08,1,591,0,3,9,forest_32,2,memory-2step-stake-s,539,5418701,0.0-18.0-0.0-0.34,4480,3,4
35,2,object_09,object_07,940.0,4,2,372.0,0.8888888888888888,2,object_03,5,631,0,2,8,forest_12,2,memory-2step-stake-s,540,5427094,0.0-18.0-0.0-0.35,4480,3,4
36,3,object_04,object_06,756.0,6,2,411.0,1.0,2,object_03,1,640,0,1,9,library_19,2,memory-2step-stake-s,541,5435633,0.0-18.0-0.0-0.36,4480,5,6
37,4,object_01,object_02,1007.0,8,1,371.0,1.0,2,object_03,1,649,0,3,9,restaurant_18,2,memory-2step-stake-s,542,5444130,0.0-18.0-0.0-0.37,4480,8,7
38,3,object_06,object_04,976.0,6,1,495.0,0.8888888888888888,2,object_03,1,657,0,3,8,library_10,2,memory-2step-stake-s,543,5452648,0.0-18.0-0.0-0.38,4480,6,5
39,3,object_04,object_06,941.0,6,2,460.0,0.8888888888888888,2,object_03,1,665,0,2,8,library_9,2,memory-2step-stake-s,544,5461130,0.0-18.0-0.0-0.39,4480,5,6
40,2,object_07,object_09,613.0,4,1,444.0,0.8888888888888888,2,object_03,1,673,0,3,8,forest_30,2,memory-2step-stake-s,545,5469599,0.0-18.0-0.0-0.40,4480,4,3
41,4,object_02,object_01,631.0,8,2,635.0,0.7777777777777778,2,object_03,1,680,0,4,7,restaurant_26,2,memory-2step-stake-s,546,5478157,0.0-18.0-0.0-0.41,4480,7,8
42,3,object_04,object_06,961.0,6,2,398.0,0.7777777777777778,2,object_03,5,715,0,6,7,library_8,2,memory-2step-stake-s,547,5486473,0.0-18.0-0.0-0.42,4480,5,6
43,3,object_04,object_06,779.0,6,2,428.0,0.6666666666666666,2,object_03,1,721,0,9,6,library_7,2,memory-2step-stake-s,548,5494718,0.0-18.0-0.0-0.43,4480,5,6
44,2,object_09,object_07,906.0,4,2,345.0,0.5555555555555556,2,object_03,5,746,0,7,5,forest_3,2,memory-2step-stake-s,549,5502782,0.0-18.0-0.0-0.44,4480,3,4
45,3,object_04,object_06,866.0,5,1,445.0,0.7777777777777778,1,object_08,5,781,0,7,4,library_16,2,memory-2step-stake-s,550,5511147,0.0-18.0-0.0-0.45,4480,5,6
46,3,object_06,object_04,1024.0,5,2,323.0,0.6666666666666666,1,object_08,1,787,0,6,1,library_3,2,memory-2step-stake-s,551,5519286,0.0-18.0-0.0-0.46,4480,6,5
47,3,object_06,object_04,788.0,5,2,333.0,0.4444444444444444,1,object_08,1,791,0,4,4,library_29,2,memory-2step-stake-s,552,5527233,0.0-18.0-0.0-0.47,4480,6,5
48,2,object_07,object_09,1085.0,3,2,353.0,0.2222222222222222,1,object_08,5,801,0,2,5,forest_31,2,memory-2step-stake-s,553,5535005,0.0-18.0-0.0-0.48,4480,4,3
49,4,object_01,object_02,1065.0,8,1,413.0,0.3333333333333333,2,object_03,1,804,0,2,3,restaurant_26,2,memory-2step-stake-s,554,5542935,0.0-18.0-0.0-0.49,4480,8,7
50,1,object_05,object_10,1047.0,1,2,408.0,0.0,1,object_08,5,804,0,0,0,desert_24,2,memory-2step-stake-s,555,5550556,0.0-18.0-0.0-0.50,4480,2,1
51,2,object_07,object_09,759.0,3,2,383.0,0.2222222222222222,1,object_08,5,814,0,2,1,forest_31,2,memory-2step-stake-s,556,5558352,0.0-18.0-0.0-0.51,4480,4,3
52,3,object_06,object_04,628.0,5,2,651.0,0.1111111111111111,1,object_08,1,815,0,1,2,library_21,2,memory-2step-stake-s,557,5566320,0.0-18.0-0.0-0.52,4480,6,5
53,3,object_04,object_06,878.0,5,1,402.0,0.1111111111111111,1,object_08,1,816,0,1,4,library_7,2,memory-2step-stake-s,558,5574037,0.0-18.0-0.0-0.53,4480,5,6
54,3,object_04,object_06,632.0,6,2,378.0,0.4444444444444444,2,object_03,1,820,0,0,4,library_24,2,memory-2step-stake-s,559,5582030,0.0-18.0-0.0-0.54,4480,5,6
55,2,object_09,object_07,585.0,3,1,391.0,0.4444444444444444,1,object_08,5,840,0,4,2,forest_7,2,memory-2step-stake-s,560,5590033,0.0-18.0-0.0-0.55,4480,3,4
56,4,object_01,object_02,628.0,8,1,368.0,0.2222222222222222,2,object_03,5,850,0,1,2,restaurant_9,2,memory-2step-stake-s,561,5597819,0.0-18.0-0.0-0.56,4480,8,7
57,1,object_10,object_05,725.0,1,1,537.0,0.2222222222222222,1,object_08,5,860,0,2,0,desert_11,2,memory-2step-stake-s,562,5605775,0.0-18.0-0.0-0.57,4480,1,2
58,4,object_01,object_02,712.0,7,2,363.0,0.1111111111111111,1,object_08,1,861,0,1,1,restaurant_15,2,memory-2step-stake-s,563,5613451,0.0-18.0-0.0-0.58,4480,8,7
59,1,object_05,object_10,598.0,1,2,399.0,0.1111111111111111,1,object_08,5,866,0,1,0,desert_26,2,memory-2step-stake-s,564,5621164,0.0-18.0-0.0-0.59,4480,2,1
60,3,object_04,object_06,192.0,5,1,484.0,0.2222222222222222,1,object_08,1,868,0,2,1,library_31,2,memory-2step-stake-s,565,5629063,0.0-18.0-0.0-0.60,4480,5,6
61,2,object_07,object_09,1340.0,3,2,666.0,0.0,1,object_08,5,868,0,0,1,forest_27,2,memory-2step-stake-s,566,5636946,0.0-18.0-0.0-0.61,4480,4,3
62,2,object_09,object_07,1213.0,4,2,585.0,0.5555555555555556,2,object_03,1,873,0,1,5,forest_11,2,memory-2step-stake-s,567,5645251,0.0-18.0-0.0-0.62,4480,3,4
63,3,object_04,object_06,1145.0,5,1,596.0,0.3333333333333333,1,object_08,1,876,0,3,3,library_5,2,memory-2step-stake-s,568,5653364,0.0-18.0-0.0-0.63,4480,5,6
64,1,object_05,object_10,1125.0,2,1,565.0,0.4444444444444444,2,object_03,5,896,0,5,4,desert_22,2,memory-2step-stake-s,569,5661545,0.0-18.0-0.0-0.64,4480,2,1
65,4,object_02,object_01,-1.0,-1,-1,-1.0,0.0,-,,5,896,0,4,5,restaurant_4,2,memory-2step-stake-s,570,5668057,0.0-18.0-0.0-0.65,4480,7,8
66,2,object_09,object_07,1069.0,4,2,473.0,0.5555555555555556,2,object_03,5,921,0,7,5,forest_7,2,memory-2step-stake-s,571,5676251,0.0-18.0-0.0-0.66,4480,3,4
67,1,object_05,object_10,1395.0,1,2,732.0,0.8888888888888888,1,object_08,5,961,0,8,4,desert_8,2,memory-2step-stake-s,572,5685005,0.0-18.0-0.0-0.67,4480,2,1
68,1,object_10,object_05,1006.0,1,1,1029.0,0.8888888888888888,1,object_08,5,1001,0,8,1,desert_20,2,memory-2step-stake-s,573,5694057,0.0-18.0-0.0-0.68,4480,1,2
69,1,object_10,object_05,802.0,2,2,662.0,0.3333333333333333,2,object_03,5,1016,0,5,3,desert_24,2,memory-2step-stake-s,574,5702241,0.0-18.0-0.0-0.69,4480,1,2
70,1,object_05,object_10,649.0,2,1,389.0,0.0,2,object_03,5,1016,0,7,0,desert_27,2,memory-2step-stake-s,575,5709843,0.0-18.0-0.0-0.70,4480,2,1
71,3,object_06,object_04,538.0,5,2,539.0,0.8888888888888888,1,object_08,5,1056,0,8,6,library_7,2,memory-2step-stake-s,576,5718408,0.0-18.0-0.0-0.71,4480,6,5
72,4,object_01,object_02,588.0,8,1,530.0,0.5555555555555556,2,object_03,1,1061,0,4,5,restaurant_29,2,memory-2step-stake-s,577,5726657,0.0-18.0-0.0-0.72,4480,8,7
73,2,object_07,object_09,507.0,3,2,695.0,0.1111111111111111,1,object_08,5,1066,0,1,7,forest_12,2,memory-2step-stake-s,578,5734672,0.0-18.0-0.0-0.73,4480,4,3
74,3,object_04,object_06,384.0,5,1,466.0,0.2222222222222222,1,object_08,1,1068,0,2,9,library_21,2,memory-2step-stake-s,579,5742556,0.0-18.0-0.0-0.74,4480,5,6
75,4,object_01,object_02,420.0,8,1,508.0,0.8888888888888888,2,object_03,1,1076,0,3,8,restaurant_31,2,memory-2step-stake-s,580,5751085,0.0-18.0-0.0-0.75,4480,8,7
76,3,object_06,object_04,478.0,5,2,503.0,0.4444444444444444,1,object_08,1,1080,0,4,8,library_9,2,memory-2step-stake-s,581,5759205,0.0-18.0-0.0-0.76,4480,6,5
77,2,object_07,object_09,399.0,4,1,421.0,1.0,2,object_03,5,1125,0,7,9,forest_13,2,memory-2step-stake-s,582,5767751,0.0-18.0-0.0-0.77,4480,4,3
78,2,object_09,object_07,463.0,3,1,358.0,1.0,1,object_08,5,1170,0,9,9,forest_8,2,memory-2step-stake-s,583,5776237,0.0-18.0-0.0-0.78,4480,3,4
79,1,object_05,object_10,432.0,1,2,333.0,0.8888888888888888,1,object_08,5,1210,0,8,9,desert_32,2,memory-2step-stake-s,584,5784592,0.0-18.0-0.0-0.79,4480,2,1
80,1,object_05,object_10,1447.0,1,2,524.0,0.7777777777777778,1,object_08,5,1245,0,7,5,desert_28,2,memory-2step-stake-s,585,5793033,0.0-18.0-0.0-0.80,4480,2,1
81,4,object_01,object_02,1139.0,7,2,422.0,0.8888888888888888,1,object_08,1,1253,0,8,8,restaurant_8,2,memory-2step-stake-s,586,5801479,0.0-18.0-0.0-0.81,4480,8,7
82,2,object_07,object_09,1185.0,3,2,547.0,0.7777777777777778,1,object_08,5,1288,0,7,8,forest_11,2,memory-2step-stake-s,587,5809951,0.0-18.0-0.0-0.82,4480,4,3
83,3,object_06,object_04,995.0,5,2,453.0,0.5555555555555556,1,object_08,5,1313,0,5,6,library_8,2,memory-2step-stake-s,588,5818121,0.0-18.0-0.0-0.83,4480,6,5
84,3,object_04,object_06,561.0,5,1,399.0,0.3333333333333333,1,object_08,1,1316,0,3,5,library_31,2,memory-2step-stake-s,589,5826035,0.0-18.0-0.0-0.84,4480,5,6
85,1,object_05,object_10,521.0,2,1,386.0,0.6666666666666666,2,object_03,5,1346,0,3,6,desert_1,2,memory-2step-stake-s,590,5834237,0.0-18.0-0.0-0.85,4480,2,1
86,1,object_10,object_05,390.0,1,1,390.0,0.1111111111111111,1,object_08,5,1351,0,1,7,desert_20,2,memory-2step-stake-s,591,5841948,0.0-18.0-0.0-0.86,4480,1,2
87,4,object_02,object_01,398.0,8,2,414.0,0.8888888888888888,2,object_03,1,1359,0,3,8,restaurant_10,2,memory-2step-stake-s,592,5850384,0.0-18.0-0.0-0.87,4480,7,8
88,4,object_01,object_02,343.0,7,2,454.0,0.0,1,object_08,1,1359,0,0,9,restaurant_21,2,memory-2step-stake-s,593,5858051,0.0-18.0-0.0-0.88,4480,8,7
89,1,object_10,object_05,400.0,1,1,529.0,0.2222222222222222,1,object_08,5,1369,0,2,8,desert_26,2,memory-2step-stake-s,594,5865999,0.0-18.0-0.0-0.89,4480,1,2
90,3,object_04,object_06,828.0,6,2,544.0,0.7777777777777778,2,object_03,1,1376,0,1,7,library_31,2,memory-2step-stake-s,595,5874469,0.0-18.0-0.0-0.90,4480,5,6
91,2,object_09,object_07,738.0,4,2,571.0,0.8888888888888888,2,object_03,5,1416,0,2,8,forest_13,2,memory-2step-stake-s,596,5883062,0.0-18.0-0.0-0.91,4480,3,4
92,3,object_04,object_06,603.0,5,1,526.0,0.0,1,object_08,1,1416,0,0,8,library_25,2,memory-2step-stake-s,597,5890802,0.0-18.0-0.0-0.92,4480,5,6
93,4,object_02,object_01,1237.0,7,1,516.0,0.0,1,object_08,5,1416,0,0,9,restaurant_24,2,memory-2step-stake-s,598,5898529,0.0-18.0-0.0-0.93,4480,7,8
94,1,object_10,object_05,622.0,2,2,777.0,0.8888888888888888,2,object_03,5,1456,0,3,8,desert_11,2,memory-2step-stake-s,599,5907327,0.0-18.0-0.0-0.94,4480,1,2
95,3,object_06,object_04,649.0,6,1,368.0,0.6666666666666666,2,object_03,1,1462,0,0,6,library_3,2,memory-2step-stake-s,600,5915520,0.0-18.0-0.0-0.95,4480,6,5
96,4,object_01,object_02,501.0,7,2,690.0,0.1111111111111111,1,object_08,1,1463,0,1,8,restaurant_22,2,memory-2step-stake-s,601,5923526,0.0-18.0-0.0-0.96,4480,8,7
97,1,object_05,object_10,898.0,1,2,-1.0,0.0,1,object_08,5,1463,0,3,7,desert_2,2,memory-2step-stake-s,602,5932035,0.0-18.0-0.0-0.97,4480,2,1
98,2,object_07,object_09,463.0,3,2,403.0,0.5555555555555556,1,object_08,5,1488,0,5,8,forest_31,2,memory-2step-stake-s,603,5940154,0.0-18.0-0.0-0.98,4480,4,3
99,2,object_09,object_07,912.0,3,1,543.0,0.2222222222222222,1,object_08,5,1498,0,2,7,forest_3,2,memory-2step-stake-s,604,5948113,0.0-18.0-0.0-0.99,4480,3,4
100,2,object_07,object_09,596.0,4,1,531.0,0.5555555555555556,2,object_03,5,1523,0,2,5,forest_28,2,memory-2step-stake-s,605,5956366,0.0-18.0-0.0-0.100,4480,4,3
101,2,object_09,object_07,419.0,4,2,516.0,0.7777777777777778,2,object_03,5,1558,0,1,7,forest_8,2,memory-2step-stake-s,606,5964804,0.0-18.0-0.0-0.101,4480,3,4
102,3,object_06,object_04,551.0,5,2,344.0,0.1111111111111111,1,object_08,1,1559,0,1,6,library_25,2,memory-2step-stake-s,607,5972468,0.0-18.0-0.0-0.102,4480,6,5
103,3,object_04,object_06,593.0,5,1,409.0,0.3333333333333333,1,object_08,1,1562,0,3,5,library_16,2,memory-2step-stake-s,608,5980394,0.0-18.0-0.0-0.103,4480,5,6
104,1,object_10,object_05,634.0,2,2,412.0,0.4444444444444444,2,object_03,5,1582,0,3,4,desert_4,2,memory-2step-stake-s,609,5988426,0.0-18.0-0.0-0.104,4480,1,2
105,3,object_06,object_04,900.0,6,1,570.0,0.7777777777777778,2,object_03,1,1589,0,4,7,library_30,2,memory-2step-stake-s,610,5996920,0.0-18.0-0.0-0.105,4480,6,5
106,1,object_10,object_05,559.0,2,2,431.0,0.6666666666666666,2,object_03,5,1619,0,4,6,desert_1,2,memory-2step-stake-s,611,6005170,0.0-18.0-0.0-0.106,4480,1,2
107,1,object_10,object_05,571.0,2,2,565.0,1.0,2,object_03,1,1628,0,2,9,desert_4,2,memory-2step-stake-s,612,6013864,0.0-18.0-0.0-0.107,4480,1,2
108,2,object_09,object_07,631.0,3,1,852.0,0.2222222222222222,1,object_08,5,1638,0,2,8,forest_24,2,memory-2step-stake-s,613,6022133,0.0-18.0-0.0-0.108,4480,3,4
109,1,object_05,object_10,398.0,1,2,492.0,0.4444444444444444,1,object_08,5,1658,0,4,6,desert_2,2,memory-2step-stake-s,614,6030245,0.0-18.0-0.0-0.109,4480,2,1
110,4,object_01,object_02,733.0,8,1,582.0,0.5555555555555556,2,object_03,5,1683,0,3,5,restaurant_4,2,memory-2step-stake-s,615,6038545,0.0-18.0-0.0-0.110,4480,8,7
111,2,object_07,object_09,527.0,3,2,445.0,0.5555555555555556,1,object_08,5,1708,0,5,4,forest_27,2,memory-2step-stake-s,616,6046713,0.0-18.0-0.0-0.111,4480,4,3
112,1,object_05,object_10,508.0,2,1,481.0,0.2222222222222222,2,object_03,5,1718,0,4,2,desert_20,2,memory-2step-stake-s,617,6054615,0.0-18.0-0.0-0.112,4480,2,1
113,1,object_05,object_10,626.0,1,2,222.0,0.4444444444444444,1,object_08,5,1738,0,4,2,desert_26,2,memory-2step-stake-s,618,6062458,0.0-18.0-0.0-0.113,4480,2,1
114,3,object_06,object_04,645.0,6,1,449.0,0.1111111111111111,2,object_03,1,1739,0,5,1,library_29,2,memory-2step-stake-s,619,6070223,0.0-18.0-0.0-0.114,4480,6,5
115,3,object_06,object_04,491.0,5,2,648.0,0.2222222222222222,1,object_08,1,1741,0,2,1,library_20,2,memory-2step-stake-s,620,6078287,0.0-18.0-0.0-0.115,4480,6,5
116,2,object_07,object_09,579.0,3,2,388.0,0.4444444444444444,1,object_08,5,1761,0,4,3,forest_19,2,memory-2step-stake-s,621,6086296,0.0-18.0-0.0-0.116,4480,4,3
117,2,object_09,object_07,563.0,3,1,422.0,0.7777777777777778,1,object_08,1,1768,0,7,1,forest_7,2,memory-2step-stake-s,622,6094638,0.0-18.0-0.0-0.117,4480,3,4
118,4,object_02,object_01,967.0,8,2,539.0,0.2222222222222222,2,object_03,1,1770,0,3,2,restaurant_13,2,memory-2step-stake-s,623,6102594,0.0-18.0-0.0-0.118,4480,7,8
119,2,object_09,object_07,604.0,3,1,549.0,0.3333333333333333,1,object_08,5,1785,0,3,2,forest_11,2,memory-2step-stake-s,624,6110664,0.0-18.0-0.0-0.119,4480,3,4
120,2,object_09,object_07,617.0,4,2,532.0,0.4444444444444444,2,object_03,5,1805,0,2,4,forest_28,2,memory-2step-stake-s,625,6118815,0.0-18.0-0.0-0.120,4480,3,4
121,4,object_01,object_02,693.0,7,2,770.0,0.1111111111111111,1,object_08,1,1806,0,1,3,restaurant_29,2,memory-2step-stake-s,626,6126900,0.0-18.0-0.0-0.121,4480,8,7
122,4,object_02,object_01,344.0,7,1,545.0,0.2222222222222222,1,object_08,5,1816,0,2,0,restaurant_10,2,memory-2step-stake-s,627,6134863,0.0-18.0-0.0-0.122,4480,7,8
123,1,object_05,object_10,345.0,1,2,728.0,0.2222222222222222,1,object_08,5,1826,0,2,1,desert_6,2,memory-2step-stake-s,628,6143004,0.0-18.0-0.0-0.123,4480,2,1
124,4,object_02,object_01,387.0,7,1,443.0,0.2222222222222222,1,object_08,1,1828,0,2,2,restaurant_18,2,memory-2step-stake-s,629,6150865,0.0-18.0-0.0-0.124,4480,7,8
125,3,object_06,object_04,1225.0,5,2,596.0,1.0,1,object_08,1,1837,0,9,0,library_19,2,memory-2step-stake-s,630,6159585,0.0-18.0-0.0-0.125,4480,6,5
126,2,object_09,object_07,-1.0,-1,-1,-1.0,0.0,-,,1,1837,0,9,1,forest_32,2,memory-2step-stake-s,631,6166095,0.0-18.0-0.0-0.126,4480,3,4
127,1,object_10,object_05,453.0,2,2,665.0,0.2222222222222222,2,object_03,5,1847,0,9,2,desert_22,2,memory-2step-stake-s,632,6174176,0.0-18.0-0.0-0.127,4480,1,2
128,3,object_04,object_06,560.0,6,2,641.0,0.2222222222222222,2,object_03,1,1849,0,6,2,library_8,2,memory-2step-stake-s,634,6283822,0.0-18.0-0.1-0.128,4480,5,6
129,2,object_09,object_07,416.0,3,1,487.0,0.5555555555555556,1,object_08,5,1874,0,5,3,forest_3,2,memory-2step-stake-s,635,6292028,0.0-18.0-0.1-0.129,4480,3,4
130,3,object_06,object_04,432.0,5,2,475.0,0.8888888888888888,1,object_08,1,1882,0,8,2,library_24,2,memory-2step-stake-s,636,6300525,0.0-18.0-0.1-0.130,4480,6,5
131,1,object_10,object_05,433.0,1,1,650.0,0.8888888888888888,1,object_08,5,1922,0,8,1,desert_6,2,memory-2step-stake-s,637,6309194,0.0-18.0-0.1-0.131,4480,1,2
132,1,object_05,object_10,36.0,1,2,580.0,0.7777777777777778,1,object_08,5,1957,0,7,0,desert_32,2,memory-2step-stake-s,638,6317696,0.0-18.0-0.1-0.132,4480,2,1
133,4,object_01,object_02,382.0,8,1,842.0,0.1111111111111111,2,object_03,1,1958,0,5,1,restaurant_4,2,memory-2step-stake-s,639,6325854,0.0-18.0-0.1-0.133,4480,8,7
134,3,object_04,object_06,506.0,6,2,601.0,0.1111111111111111,2,object_03,1,1959,0,9,1,library_20,2,memory-2step-stake-s,640,6333767,0.0-18.0-0.1-0.134,4480,5,6
135,4,object_02,object_01,382.0,7,1,444.0,0.8888888888888888,1,object_08,5,1999,0,8,3,restaurant_31,2,memory-2step-stake-s,641,6342239,0.0-18.0-0.1-0.135,4480,7,8
136,1,object_10,object_05,449.0,2,2,501.0,0.4444444444444444,2,object_03,1,2003,0,9,4,desert_27,2,memory-2step-stake-s,642,6350357,0.0-18.0-0.1-0.136,4480,1,2
137,4,object_02,object_01,621.0,7,1,375.0,0.7777777777777778,1,object_08,1,2010,0,7,7,restaurant_4,2,memory-2step-stake-s,643,6358654,0.0-18.0-0.1-0.137,4480,7,8
138,2,object_09,object_07,418.0,4,2,733.0,0.8888888888888888,2,object_03,5,2050,0,4,8,forest_13,2,memory-2step-stake-s,644,6367408,0.0-18.0-0.1-0.138,4480,3,4
139,2,object_07,object_09,580.0,4,1,634.0,0.6666666666666666,2,object_03,1,2056,0,4,6,forest_30,2,memory-2step-stake-s,645,6375866,0.0-18.0-0.1-0.139,4480,4,3
140,1,object_05,object_10,678.0,1,2,661.0,0.4444444444444444,1,object_08,5,2076,0,4,6,desert_22,2,memory-2step-stake-s,646,6384143,0.0-18.0-0.1-0.140,4480,2,1
141,1,object_10,object_05,672.0,1,1,876.0,0.4444444444444444,1,object_08,1,2080,0,4,3,desert_28,2,memory-2step-stake-s,647,6392638,0.0-18.0-0.1-0.141,4480,1,2
142,1,object_05,object_10,608.0,1,2,469.0,0.2222222222222222,1,object_08,5,2090,0,2,2,desert_8,2,memory-2step-stake-s,648,6400524,0.0-18.0-0.1-0.142,4480,2,1
143,4,object_01,object_02,526.0,8,1,439.0,0.0,2,object_03,1,2090,0,2,0,restaurant_21,2,memory-2step-stake-s,649,6408173,0.0-18.0-0.1-0.143,4480,8,7
144,3,object_04,object_06,727.0,6,2,527.0,0.0,2,object_03,1,2090,0,6,0,library_3,2,memory-2step-stake-s,650,6415914,0.0-18.0-0.1-0.144,4480,5,6
145,4,object_01,object_02,384.0,7,2,1014.0,0.8888888888888888,1,object_08,1,2098,0,8,2,restaurant_31,2,memory-2step-stake-s,651,6424950,0.0-18.0-0.1-0.145,4480,8,7
146,1,object_10,object_05,474.0,1,1,542.0,1.0,1,object_08,5,2143,0,9,3,desert_24,2,memory-2step-stake-s,652,6433617,0.0-18.0-0.1-0.146,4480,1,2
147,4,object_02,object_01,574.0,8,2,579.0,0.3333333333333333,2,object_03,1,2146,0,9,3,restaurant_26,2,memory-2step-stake-s,653,6441713,0.0-18.0-0.1-0.147,4480,7,8
148,2,object_09,object_07,588.0,3,1,636.0,0.7777777777777778,1,object_08,1,2153,0,7,3,forest_24,2,memory-2step-stake-s,654,6450286,0.0-18.0-0.1-0.148,4480,3,4
149,3,object_06,object_04,500.0,5,2,397.0,0.6666666666666666,1,object_08,1,2159,0,6,1,library_5,2,memory-2step-stake-s,655,6458513,0.0-18.0-0.1-0.149,4480,6,5
150,2,object_09,object_07,788.0,4,2,675.0,0.0,2,object_03,5,2159,0,2,0,forest_8,2,memory-2step-stake-s,656,6466414,0.0-18.0-0.1-0.150,4480,3,4
151,4,object_02,object_01,430.0,7,1,712.0,0.0,1,object_08,1,2159,0,0,2,restaurant_3,2,memory-2step-stake-s,657,6474344,0.0-18.0-0.1-0.151,4480,7,8
152,4,object_02,object_01,394.0,8,2,533.0,0.0,2,object_03,1,2159,0,1,0,restaurant_3,2,memory-2step-stake-s,658,6482093,0.0-18.0-0.1-0.152,4480,7,8
153,1,object_10,object_05,674.0,1,1,1406.0,0.0,1,object_08,5,2159,0,0,2,desert_31,2,memory-2step-stake-s,659,6490713,0.0-18.0-0.1-0.153,4480,1,2
154,3,object_04,object_06,470.0,5,1,522.0,0.0,1,object_08,1,2159,0,0,1,library_4,2,memory-2step-stake-s,660,6498447,0.0-18.0-0.1-0.154,4480,5,6
155,3,object_04,object_06,432.0,5,1,540.0,0.2222222222222222,1,object_08,5,2169,0,2,3,library_29,2,memory-2step-stake-s,661,6506408,0.0-18.0-0.1-0.155,4480,5,6
156,2,object_07,object_09,631.0,4,1,511.0,0.1111111111111111,2,object_03,5,2174,0,3,1,forest_32,2,memory-2step-stake-s,662,6514234,0.0-18.0-0.1-0.156,4480,4,3
157,1,object_05,object_10,482.0,1,2,647.0,0.3333333333333333,1,object_08,1,2177,0,3,0,desert_4,2,memory-2step-stake-s,663,6522397,0.0-18.0-0.1-0.157,4480,2,1
158,4,object_01,object_02,373.0,8,1,509.0,0.0,2,object_03,1,2177,0,4,0,restaurant_29,2,memory-2step-stake-s,664,6530118,0.0-18.0-0.1-0.158,4480,8,7
159,1,object_10,object_05,602.0,2,2,347.0,0.4444444444444444,2,object_03,5,2197,0,3,4,desert_28,2,memory-2step-stake-s,665,6538085,0.0-18.0-0.1-0.159,4480,1,2
160,4,object_02,object_01,816.0,7,1,553.0,0.7777777777777778,1,object_08,1,2204,0,7,6,restaurant_15,2,memory-2step-stake-s,666,6546561,0.0-18.0-0.1-0.160,4480,7,8
161,1,object_05,object_10,904.0,1,2,494.0,0.6666666666666666,1,object_08,5,2234,0,6,6,desert_27,2,memory-2step-stake-s,667,6554874,0.0-18.0-0.1-0.161,4480,2,1
162,4,object_01,object_02,513.0,7,2,492.0,0.8888888888888888,1,object_08,1,2242,0,8,8,restaurant_18,2,memory-2step-stake-s,668,6563387,0.0-18.0-0.1-0.162,4480,8,7
163,1,object_05,object_10,618.0,1,2,1113.0,0.6666666666666666,1,object_08,1,2248,0,6,8,desert_32,2,memory-2step-stake-s,669,6572322,0.0-18.0-0.1-0.163,4480,2,1
164,4,object_02,object_01,894.0,7,1,849.0,0.5555555555555556,1,object_08,1,2253,0,5,8,restaurant_16,2,memory-2step-stake-s,670,6580888,0.0-18.0-0.1-0.164,4480,7,8
165,2,object_07,object_09,587.0,3,2,547.0,0.5555555555555556,1,object_08,5,2278,0,5,6,forest_17,2,memory-2step-stake-s,671,6589155,0.0-18.0-0.1-0.165,4480,4,3
166,3,object_04,object_06,584.0,5,1,550.0,0.5555555555555556,1,object_08,1,2283,0,5,5,library_24,2,memory-2step-stake-s,672,6597423,0.0-18.0-0.1-0.166,4480,5,6
167,4,object_02,object_01,426.0,8,2,382.0,0.1111111111111111,2,object_03,1,2284,0,5,1,restaurant_29,2,memory-2step-stake-s,673,6605123,0.0-18.0-0.1-0.167,4480,7,8
168,3,object_04,object_06,387.0,5,1,326.0,0.4444444444444444,1,object_08,5,2304,0,4,0,library_30,2,memory-2step-stake-s,674,6613067,0.0-18.0-0.1-0.168,4480,5,6
169,4,object_01,object_02,1020.0,7,2,530.0,0.3333333333333333,1,object_08,1,2307,0,3,2,restaurant_26,2,memory-2step-stake-s,675,6621109,0.0-18.0-0.1-0.169,4480,8,7
170,4,object_01,object_02,571.0,7,2,363.0,0.6666666666666666,1,object_08,1,2313,0,6,1,restaurant_13,2,memory-2step-stake-s,676,6629297,0.0-18.0-0.1-0.170,4480,8,7
171,4,object_02,object_01,654.0,8,2,524.0,0.1111111111111111,2,object_03,1,2314,0,5,1,restaurant_13,2,memory-2step-stake-s,677,6637136,0.0-18.0-0.1-0.171,4480,7,8
172,2,object_07,object_09,459.0,3,2,385.0,0.4444444444444444,1,object_08,5,2334,0,4,2,forest_19,2,memory-2step-stake-s,678,6645140,0.0-18.0-0.1-0.172,4480,4,3
173,4,object_02,object_01,493.0,7,1,447.0,0.5555555555555556,1,object_08,1,2339,0,5,1,restaurant_22,2,memory-2step-stake-s,679,6653306,0.0-18.0-0.1-0.173,4480,7,8
174,4,object_02,object_01,557.0,8,2,734.0,0.2222222222222222,2,object_03,1,2341,0,5,2,restaurant_16,2,memory-2step-stake-s,680,6661458,0.0-18.0-0.1-0.174,4480,7,8
175,2,object_07,object_09,449.0,4,1,572.0,0.0,2,object_03,5,2341,0,4,0,forest_32,2,memory-2step-stake-s,681,6669244,0.0-18.0-0.1-0.175,4480,4,3
176,4,object_02,object_01,767.0,8,2,712.0,0.0,2,object_03,5,2341,0,1,0,restaurant_16,2,memory-2step-stake-s,682,6677171,0.0-18.0-0.1-0.176,4480,7,8
177,1,object_10,object_05,757.0,1,1,443.0,0.2222222222222222,1,object_08,5,2351,0,2,1,desert_6,2,memory-2step-stake-s,683,6685026,0.0-18.0-0.1-0.177,4480,1,2
178,3,object_04,object_06,997.0,5,1,699.0,0.1111111111111111,1,object_08,1,2352,0,1,2,library_19,2,memory-2step-stake-s,684,6693042,0.0-18.0-0.1-0.178,4480,5,6
179,2,object_07,object_09,595.0,3,2,380.0,0.1111111111111111,1,object_08,5,2357,0,1,0,forest_7,2,memory-2step-stake-s,685,6700742,0.0-18.0-0.1-0.179,4480,4,3
180,2,object_07,object_09,582.0,3,2,610.0,0.4444444444444444,1,object_08,5,2377,0,4,2,forest_17,2,memory-2step-stake-s,686,6708973,0.0-18.0-0.1-0.180,4480,4,3
181,1,object_10,object_05,668.0,2,2,376.0,0.1111111111111111,2,object_03,5,2382,0,4,1,desert_7,2,memory-2step-stake-s,687,6716665,0.0-18.0-0.1-0.181,4480,1,2
182,1,object_05,object_10,596.0,2,1,588.0,0.3333333333333333,2,object_03,5,2397,0,1,3,desert_4,2,memory-2step-stake-s,688,6724772,0.0-18.0-0.1-0.182,4480,2,1
183,4,object_02,object_01,377.0,7,1,240.0,0.6666666666666666,1,object_08,5,2427,0,6,0,restaurant_24,2,memory-2step-stake-s,689,6732836,0.0-18.0-0.1-0.183,4480,7,8
184,1,object_05,object_10,44.0,2,1,135.0,0.2222222222222222,2,object_03,5,2437,0,2,2,desert_32,2,memory-2step-stake-s,690,6740385,0.0-18.0-0.1-0.184,4480,2,1
185,3,object_04,object_06,38.0,6,2,181.0,0.2222222222222222,2,object_03,1,2439,0,0,2,library_4,2,memory-2step-stake-s,691,6747988,0.0-18.0-0.1-0.185,4480,5,6
186,2,object_07,object_09,54.0,3,2,187.0,0.1111111111111111,1,object_08,5,2444,0,1,1,forest_30,2,memory-2step-stake-s,692,6755490,0.0-18.0-0.1-0.186,4480,4,3
187,1,object_10,object_05,715.0,2,2,58.0,0.3333333333333333,2,object_03,1,2447,0,2,3,desert_7,2,memory-2step-stake-s,693,6763066,0.0-18.0-0.1-0.187,4480,1,2
188,3,object_04,object_06,189.0,5,1,193.0,0.6666666666666666,1,object_08,1,2453,0,6,4,library_8,2,memory-2step-stake-s,694,6771074,0.0-18.0-0.1-0.188,4480,5,6
189,4,object_01,object_02,32.0,8,1,63.0,1.0,2,object_03,5,2498,0,5,9,restaurant_24,2,memory-2step-stake-s,695,6779264,0.0-18.0-0.1-0.189,4480,8,7
190,4,object_01,object_02,35.0,7,2,42.0,0.6666666666666666,1,object_08,1,2504,0,6,8,restaurant_9,2,memory-2step-stake-s,696,6787128,0.0-18.0-0.1-0.190,4480,8,7
191,4,object_02,object_01,1256.0,8,2,201.0,0.7777777777777778,2,object_03,1,2511,0,4,7,restaurant_3,2,memory-2step-stake-s,697,6795252,0.0-18.0-0.1-0.191,4480,7,8
192,3,object_04,object_06,23.0,5,1,17.0,0.3333333333333333,1,object_08,1,2514,0,3,9,library_21,2,memory-2step-stake-s,698,6802785,0.0-18.0-0.1-0.192,4480,5,6
193,4,object_02,object_01,72.0,7,1,20.0,0.2222222222222222,1,object_08,1,2516,0,2,9,restaurant_16,2,memory-2step-stake-s,699,6810222,0.0-18.0-0.1-0.193,4480,7,8
194,4,object_02,object_01,105.0,8,2,207.0,0.8888888888888888,2,object_03,5,2556,0,2,8,restaurant_21,2,memory-2step-stake-s,700,6818450,0.0-18.0-0.1-0.194,4480,7,8
195,2,object_07,object_09,7.0,3,2,11.0,0.2222222222222222,1,object_08,1,2558,0,2,5,forest_12,2,memory-2step-stake-s,701,6825879,0.0-18.0-0.1-0.195,4480,4,3
196,4,object_01,object_02,44.0,8,1,42.0,0.2222222222222222,2,object_03,1,2560,0,1,2,restaurant_8,2,memory-2step-stake-s,702,6833341,0.0-18.0-0.1-0.196,4480,8,7
197,4,object_02,object_01,63.0,7,1,66.0,0.3333333333333333,1,object_08,1,2563,0,3,1,restaurant_10,2,memory-2step-stake-s,703,6840924,0.0-18.0-0.1-0.197,4480,7,8
198,2,object_07,object_09,101.0,4,1,28.0,0.1111111111111111,2,object_03,5,2568,0,0,1,forest_20,2,memory-2step-stake-s,704,6848265,0.0-18.0-0.1-0.198,4480,4,3
199,3,object_04,object_06,85.0,6,2,78.0,0.1111111111111111,2,object_03,1,2569,0,1,1,library_16,2,memory-2step-stake-s,705,6855659,0.0-18.0-0.1-0.199,4480,5,6
200,4,object_02,object_01,82.0,8,2,31.0,0.0,2,object_03,1,2569,0,3,0,restaurant_3,2,memory-2step-stake-s,706,6862908,0.0-18.0-0.1-0.200,4480,7,8
201,2,object_07,object_09,58.0,3,2,158.0,0.2222222222222222,1,object_08,5,2579,0,2,1,forest_31,2,memory-2step-stake-s,707,6870481,0.0-18.0-0.1-0.201,4480,4,3
202,2,object_07,object_09,67.0,4,1,31.0,0.0,2,object_03,5,2579,0,4,0,forest_28,2,memory-2step-stake-s,708,6877726,0.0-18.0-0.1-0.202,4480,4,3
203,3,object_06,object_04,68.0,6,1,29.0,0.1111111111111111,2,object_03,5,2584,0,3,1,library_3,2,memory-2step-stake-s,709,6885068,0.0-18.0-0.1-0.203,4480,6,5
204,3,object_04,object_06,91.0,6,2,210.0,0.3333333333333333,2,object_03,1,2587,0,6,3,library_25,2,memory-2step-stake-s,710,6892792,0.0-18.0-0.1-0.204,4480,5,6
205,1,object_05,object_10,4.0,2,1,340.0,0.3333333333333333,2,object_03,5,2602,0,5,3,desert_20,2,memory-2step-stake-s,711,6900651,0.0-18.0-0.1-0.205,4480,2,1
206,3,object_06,object_04,48.0,5,2,78.0,0.8888888888888888,1,object_08,1,2610,0,8,3,library_21,2,memory-2step-stake-s,712,6908753,0.0-18.0-0.1-0.206,4480,6,5
207,3,object_04,object_06,106.0,6,2,59.0,0.4444444444444444,2,object_03,1,2614,0,4,4,library_5,2,memory-2step-stake-s,713,6916429,0.0-18.0-0.1-0.207,4480,5,6
208,3,object_04,object_06,52.0,6,2,131.0,0.5555555555555556,2,object_03,5,2639,0,5,5,library_10,2,memory-2step-stake-s,714,6924278,0.0-18.0-0.1-0.208,4480,5,6
209,1,object_10,object_05,36.0,2,2,45.0,0.4444444444444444,2,object_03,5,2659,0,7,4,desert_27,2,memory-2step-stake-s,715,6931941,0.0-18.0-0.1-0.209,4480,1,2
210,2,object_07,object_09,22.0,4,1,69.0,0.3333333333333333,2,object_03,5,2674,0,7,3,forest_20,2,memory-2step-stake-s,716,6939530,0.0-18.0-0.1-0.210,4480,4,3
211,1,object_05,object_10,109.0,2,1,11.0,0.2222222222222222,2,object_03,5,2684,0,8,2,desert_31,2,memory-2step-stake-s,717,6946956,0.0-18.0-0.1-0.211,4480,2,1
212,4,object_02,object_01,72.0,7,1,8.0,1.0,1,object_08,1,2693,0,9,0,restaurant_9,2,memory-2step-stake-s,718,6955089,0.0-18.0-0.1-0.212,4480,7,8
213,4,object_02,object_01,230.0,7,1,428.0,1.0,1,object_08,1,2702,0,9,0,restaurant_7,2,memory-2step-stake-s,719,6963641,0.0-18.0-0.1-0.213,4480,7,8
214,4,object_02,object_01,72.0,7,1,51.0,1.0,1,object_08,1,2711,0,9,2,restaurant_15,2,memory-2step-stake-s,720,6971814,0.0-18.0-0.1-0.214,4480,7,8
215,2,object_07,object_09,25.0,3,2,132.0,1.0,1,object_08,5,2756,0,9,6,forest_12,2,memory-2step-stake-s,721,6980070,0.0-18.0-0.1-0.215,4480,4,3
216,2,object_09,object_07,85.0,4,2,87.0,0.7777777777777778,2,object_03,5,2791,0,7,7,forest_20,2,memory-2step-stake-s,722,6988072,0.0-18.0-0.1-0.216,4480,3,4
217,1,object_10,object_05,64.0,1,1,156.0,0.8888888888888888,1,object_08,5,2831,0,8,6,desert_6,2,memory-2step-stake-s,723,6996248,0.0-18.0-0.1-0.217,4480,1,2
218,2,object_09,object_07,41.0,3,1,667.0,0.6666666666666666,1,object_08,5,2861,0,6,8,forest_19,2,memory-2step-stake-s,724,7004738,0.0-18.0-0.1-0.218,4480,3,4
219,1,object_10,object_05,35.0,2,2,56.0,0.8888888888888888,2,object_03,5,2901,0,7,8,desert_31,2,memory-2step-stake-s,725,7012814,0.0-18.0-0.1-0.219,4480,1,2
220,1,object_05,object_10,83.0,2,1,577.0,0.7777777777777778,2,object_03,1,2908,0,6,7,desert_21,2,memory-2step-stake-s,726,7021308,0.0-18.0-0.1-0.220,4480,2,1
221,2,object_07,object_09,9.0,3,2,47.0,0.6666666666666666,1,object_08,5,2938,0,6,5,forest_8,2,memory-2step-stake-s,727,7029174,0.0-18.0-0.1-0.221,4480,4,3
222,2,object_07,object_09,29.0,4,1,30.0,0.5555555555555556,2,object_03,5,2963,0,5,5,forest_27,2,memory-2step-stake-s,728,7036925,0.0-18.0-0.1-0.222,4480,4,3
223,1,object_05,object_10,49.0,1,2,112.0,0.4444444444444444,1,object_08,5,2983,0,4,4,desert_2,2,memory-2step-stake-s,729,7044656,0.0-18.0-0.1-0.223,4480,2,1
224,4,object_02,object_01,15.0,7,1,20.0,0.1111111111111111,1,object_08,1,2984,0,1,3,restaurant_22,2,memory-2step-stake-s,730,7051994,0.0-18.0-0.1-0.224,4480,7,8
225,1,object_05,object_10,27.0,1,2,235.0,0.0,1,object_08,5,2984,0,0,2,desert_1,2,memory-2step-stake-s,731,7059445,0.0-18.0-0.1-0.225,4480,2,1
226,3,object_06,object_04,195.0,5,2,33.0,0.2222222222222222,1,object_08,1,2986,0,2,3,library_29,2,memory-2step-stake-s,732,7066893,0.0-18.0-0.1-0.226,4480,6,5
227,2,object_07,object_09,43.0,4,1,146.0,0.7777777777777778,2,object_03,5,3021,0,1,7,forest_19,2,memory-2step-stake-s,733,7074962,0.0-18.0-0.1-0.227,4480,4,3
228,1,object_10,object_05,80.0,2,2,29.0,0.6666666666666666,2,object_03,5,3051,0,2,6,desert_21,2,memory-2step-stake-s,734,7082816,0.0-18.0-0.1-0.228,4480,1,2
229,3,object_04,object_06,24.0,5,1,100.0,0.1111111111111111,1,object_08,1,3052,0,1,6,library_4,2,memory-2step-stake-s,735,7090228,0.0-18.0-0.1-0.229,4480,5,6
230,3,object_04,object_06,71.0,5,1,164.0,0.4444444444444444,1,object_08,1,3056,0,4,7,library_9,2,memory-2step-stake-s,736,7098008,0.0-18.0-0.1-0.230,4480,5,6
231,3,object_04,object_06,85.0,6,2,69.0,0.3333333333333333,2,object_03,1,3059,0,5,3,library_25,2,memory-2step-stake-s,737,7105595,0.0-18.0-0.1-0.231,4480,5,6
232,1,object_05,object_10,26.0,2,1,41.0,0.1111111111111111,2,object_03,5,3064,0,5,1,desert_7,2,memory-2step-stake-s,738,7112950,0.0-18.0-0.1-0.232,4480,2,1
233,2,object_09,object_07,69.0,3,1,128.0,0.6666666666666666,1,object_08,5,3094,0,6,3,forest_24,2,memory-2step-stake-s,739,7120899,0.0-18.0-0.1-0.233,4480,3,4
234,2,object_09,object_07,88.0,3,1,85.0,0.4444444444444444,1,object_08,1,3098,0,4,3,forest_11,2,memory-2step-stake-s,740,7128602,0.0-18.0-0.1-0.234,4480,3,4
235,2,object_07,object_09,74.0,3,2,135.0,0.4444444444444444,1,object_08,5,3118,0,4,3,forest_17,2,memory-2step-stake-s,741,7136359,0.0-18.0-0.1-0.235,4480,4,3
236,2,object_07,object_09,43.0,3,2,77.0,0.4444444444444444,1,object_08,5,3138,0,4,6,forest_9,2,memory-2step-stake-s,742,7144055,0.0-18.0-0.1-0.236,4480,4,3
237,1,object_05,object_10,95.0,1,2,62.0,0.4444444444444444,1,object_08,5,3158,0,4,7,desert_7,2,memory-2step-stake-s,743,7151739,0.0-18.0-0.1-0.237,4480,2,1
238,4,object_01,object_02,87.0,7,2,86.0,0.7777777777777778,1,object_08,1,3165,0,7,8,restaurant_9,2,memory-2step-stake-s,744,7159747,0.0-18.0-0.1-0.238,4480,8,7
239,1,object_10,object_05,38.0,1,1,120.0,0.4444444444444444,1,object_08,1,3169,0,4,6,desert_22,2,memory-2step-stake-s,745,7167491,0.0-18.0-0.1-0.239,4480,1,2
240,4,object_02,object_01,64.0,7,1,31.0,0.2222222222222222,1,object_08,5,3179,0,2,5,restaurant_21,2,memory-2step-stake-s,746,7174938,0.0-18.0-0.1-0.240,4480,7,8
241,4,object_02,object_01,867.0,7,1,46.0,0.4444444444444444,1,object_08,1,3183,0,4,3,restaurant_15,2,memory-2step-stake-s,747,7182602,0.0-18.0-0.1-0.241,4480,7,8
242,2,object_09,object_07,4.0,4,2,91.0,0.8888888888888888,2,object_03,5,3223,0,6,8,forest_27,2,memory-2step-stake-s,748,7190716,0.0-18.0-0.1-0.242,4480,3,4
243,1,object_10,object_05,46.0,2,2,95.0,0.8888888888888888,2,object_03,1,3231,0,6,8,desert_1,2,memory-2step-stake-s,749,7198833,0.0-18.0-0.1-0.243,4480,1,2
244,2,object_09,object_07,26.0,3,1,70.0,1.0,1,object_08,5,3276,0,9,8,forest_30,2,memory-2step-stake-s,750,7207028,0.0-18.0-0.1-0.244,4480,3,4
245,1,object_05,object_10,22.0,2,1,62.0,0.7777777777777778,2,object_03,5,3311,0,7,7,desert_8,2,memory-2step-stake-s,751,7215015,0.0-18.0-0.1-0.245,4480,2,1
246,1,object_05,object_10,82.0,1,2,39.0,0.4444444444444444,1,object_08,5,3331,0,4,6,desert_11,2,memory-2step-stake-s,752,7222678,0.0-18.0-0.1-0.246,4480,2,1
247,4,object_02,object_01,41.0,7,1,162.0,0.3333333333333333,1,object_08,1,3334,0,3,8,restaurant_13,2,memory-2step-stake-s,753,7230359,0.0-18.0-0.1-0.247,4480,7,8
248,3,object_06,object_04,36.0,5,2,56.0,0.6666666666666666,1,object_08,1,3340,0,6,8,library_4,2,memory-2step-stake-s,754,7238237,0.0-18.0-0.1-0.248,4480,6,5
249,2,object_09,object_07,46.0,3,1,79.0,1.0,1,object_08,5,3385,0,9,7,forest_17,2,memory-2step-stake-s,755,7246442,0.0-18.0-0.1-0.249,4480,3,4
250,4,object_02,object_01,23.0,7,1,137.0,1.0,1,object_08,1,3394,0,9,7,restaurant_8,2,memory-2step-stake-s,756,7254707,0.0-18.0-0.1-0.250,4480,7,8
251,4,object_01,object_02,5.0,8,1,96.0,0.6666666666666666,2,object_03,1,3400,0,7,6,restaurant_18,2,memory-2step-stake-s,757,7262625,0.0-18.0-0.1-0.251,4480,8,7
252,1,object_10,object_05,75.0,1,1,135.0,1.0,1,object_08,1,3409,0,9,5,desert_2,2,memory-2step-stake-s,758,7270885,0.0-18.0-0.1-0.252,4480,1,2
253,2,object_09,object_07,67.0,4,2,82.0,0.7777777777777778,2,object_03,5,3444,0,9,7,forest_3,2,memory-2step-stake-s,759,7278893,0.0-18.0-0.1-0.253,4480,3,4
254,3,object_04,object_06,46.0,6,2,456.0,0.4444444444444444,2,object_03,5,3464,0,8,4,library_30,2,memory-2step-stake-s,760,7286967,0.0-18.0-0.1-0.254,4480,5,6
255,2,object_09,object_07,71.0,3,1,99.0,0.8888888888888888,1,object_08,1,3472,0,8,3,forest_20,2,memory-2step-stake-s,761,7295092,0.0-18.0-0.1-0.255,4480,3,4
