,state1,stim_left,stim_right,rt_1,choice1,response1,rt_2,points,state2,stim_state2,stake,score,practice,rews1,rews2,background,high_arm,trial_type,trial_index,time_elapsed,internal_node_id,subid,stim_left_num,stim_right_num
0,4,object_05,object_06,-1.0,-1,-1,-1.0,0.0,-,,1,0,0,3,4,restaurant_13,2,memory-2step-stake-s,489,20782844,0.0-18.0-0.0-0.0,3827,8,7
1,4,object_05,object_06,418.1899999,7,2,-1.0,0.0,1,object_10,1,0,0,5,0,restaurant_12,2,memory-2step-stake-s,490,20791363,0.0-18.0-0.0-0.1,3827,8,7
2,1,object_07,object_09,766.445,2,2,-1.0,0.0,2,object_08,1,0,0,4,3,desert_31,2,memory-2step-stake-s,491,20799879,0.0-18.0-0.0-0.2,3827,1,2
3,1,object_09,object_07,350.845,2,1,-1.0,0.0,2,object_08,5,0,0,1,4,desert_9,2,memory-2step-stake-s,492,20808399,0.0-18.0-0.0-0.3,3827,2,1
4,3,object_04,object_03,1352.695,5,2,-1.0,0.0,1,object_10,1,0,0,2,4,library_23,2,memory-2step-stake-s,493,20816913,0.0-18.0-0.0-0.4,3827,6,5
5,2,object_02,object_01,1044.795,3,2,673.4450001,0.5555555555555556,1,object_10,5,25,0,5,7,forest_2,2,memory-2step-stake-s,494,20825313,0.0-18.0-0.0-0.5,3827,4,3
6,2,object_02,object_01,534.4750001,4,1,514.2949999,1.0,2,object_08,5,70,0,5,9,forest_29,2,memory-2step-stake-s,495,20833992,0.0-18.0-0.0-0.6,3827,4,3
7,3,object_04,object_03,523.6750001,5,2,508.9050001,0.4444444444444444,1,object_10,1,74,0,4,7,library_4,2,memory-2step-stake-s,496,20842128,0.0-18.0-0.0-0.7,3827,6,5
8,2,object_01,object_02,555.0200001000001,3,1,678.4699999,0.6666666666666666,1,object_10,5,104,0,6,4,forest_3,2,memory-2step-stake-s,497,20850655,0.0-18.0-0.0-0.8,3827,3,4
9,3,object_03,object_04,681.9399998,6,2,678.205,0.4444444444444444,2,object_08,1,108,0,8,4,library_9,2,memory-2step-stake-s,498,20859170,0.0-18.0-0.0-0.9,3827,5,6
10,1,object_07,object_09,817.5049999,1,1,1391.085,0.7777777777777778,1,object_10,5,143,0,7,5,desert_18,2,memory-2step-stake-s,499,20868493,0.0-18.0-0.0-0.10,3827,1,2
11,2,object_01,object_02,684.9550002000001,4,2,533.6749998,0.1111111111111111,2,object_08,5,148,0,7,1,forest_4,2,memory-2step-stake-s,500,20876351,0.0-18.0-0.0-0.11,3827,3,4
12,2,object_01,object_02,663.6950001,3,1,784.1650001,0.5555555555555556,1,object_10,5,173,0,5,1,forest_6,2,memory-2step-stake-s,501,20884859,0.0-18.0-0.0-0.12,3827,3,4
13,1,object_07,object_09,678.7950001,2,2,-1.0,0.0,2,object_08,5,173,0,4,2,desert_9,2,memory-2step-stake-s,502,20893377,0.0-18.0-0.0-0.13,3827,1,2
14,1,object_07,object_09,478.47,1,1,560.4049999,0.3333333333333333,1,object_10,1,176,0,3,2,desert_19,2,memory-2step-stake-s,503,20901461,0.0-18.0-0.0-0.14,3827,1,2
15,4,object_06,object_05,602.9300001,8,2,1472.98,0.0,2,object_08,1,176,0,3,0,restaurant_31,2,memory-2step-stake-s,504,20910151,0.0-18.0-0.0-0.15,3827,7,8
16,3,object_04,object_03,270.95,6,1,427.78,0.1111111111111111,2,object_08,1,177,0,4,1,library_11,2,memory-2step-stake-s,505,20917893,0.0-18.0-0.0-0.16,3827,6,5
17,1,object_07,object_09,355.5599998,2,2,531.5200002,0.0,2,object_08,5,177,0,4,0,desert_9,2,memory-2step-stake-s,506,20925635,0.0-18.0-0.0-0.17,3827,1,2
18,2,object_02,object_01,393.87,3,2,615.4199999,0.5555555555555556,1,object_10,5,202,0,5,3,forest_11,2,memory-2step-stake-s,507,20933975,0.0-18.0-0.0-0.18,3827,4,3
19,1,object_07,object_09,579.3900001000001,1,1,578.3200001,0.4444444444444444,1,object_10,5,222,0,4,1,desert_10,2,memory-2step-stake-s,508,20942177,0.0-18.0-0.0-0.19,3827,1,2
20,2,object_02,object_01,407.11500010000003,3,2,624.08,0.4444444444444444,1,object_10,5,242,0,4,1,forest_9,2,memory-2step-stake-s,509,20950423,0.0-18.0-0.0-0.20,3827,4,3
21,3,object_03,object_04,24.26999994,6,2,478.6450001,0.2222222222222222,2,object_08,1,244,0,6,2,library_27,2,memory-2step-stake-s,510,20958323,0.0-18.0-0.0-0.21,3827,5,6
22,2,object_02,object_01,697.685,4,1,1453.155,0.0,2,object_08,5,244,0,9,0,forest_28,2,memory-2step-stake-s,511,20967000,0.0-18.0-0.0-0.22,3827,4,3
23,2,object_01,object_02,808.0199999,4,2,-1.0,0.0,2,object_08,5,244,0,7,1,forest_6,2,memory-2step-stake-s,512,20975510,0.0-18.0-0.0-0.23,3827,3,4
24,1,object_09,object_07,555.44,2,1,803.3349998,0.2222222222222222,2,object_08,1,246,0,7,2,desert_28,2,memory-2step-stake-s,513,20983738,0.0-18.0-0.0-0.24,3827,2,1
25,2,object_02,object_01,541.4500001,3,2,766.2849999,0.4444444444444444,1,object_10,5,266,0,4,4,forest_11,2,memory-2step-stake-s,514,20992136,0.0-18.0-0.0-0.25,3827,4,3
26,2,object_01,object_02,316.2750001,3,1,519.1949999,0.4444444444444444,1,object_10,5,286,0,4,6,forest_1,2,memory-2step-stake-s,515,21000275,0.0-18.0-0.0-0.26,3827,3,4
27,2,object_02,object_01,1415.68,3,2,635.3099998,0.7777777777777778,1,object_10,5,321,0,7,6,forest_4,2,memory-2step-stake-s,516,21009027,0.0-18.0-0.0-0.27,3827,4,3
28,4,object_06,object_05,773.1850001,7,1,528.35,0.8888888888888888,1,object_10,5,361,0,8,5,restaurant_14,2,memory-2step-stake-s,517,21017584,0.0-18.0-0.0-0.28,3827,7,8
29,3,object_04,object_03,611.67,5,2,767.3899999,0.8888888888888888,1,object_10,1,369,0,8,4,library_10,2,memory-2step-stake-s,518,21026381,0.0-18.0-0.0-0.29,3827,6,5
30,2,object_01,object_02,710.775,3,1,-1.0,0.0,1,object_10,5,369,0,7,3,forest_8,2,memory-2step-stake-s,519,21034905,0.0-18.0-0.0-0.30,3827,3,4
31,3,object_04,object_03,116.9999999,5,2,-1.0,0.0,1,object_10,1,369,0,7,2,library_29,2,memory-2step-stake-s,520,21043420,0.0-18.0-0.0-0.31,3827,6,5
32,4,object_06,object_05,889.64,7,1,-1.0,0.0,1,object_10,5,369,0,4,6,restaurant_26,2,memory-2step-stake-s,521,21051940,0.0-18.0-0.0-0.32,3827,7,8
33,2,object_01,object_02,1169.8,4,2,651.14,0.5555555555555556,2,object_08,5,394,0,5,5,forest_24,2,memory-2step-stake-s,522,21060323,0.0-18.0-0.0-0.33,3827,3,4
34,2,object_02,object_01,640.315,4,1,481.9099999,0.4444444444444444,2,object_08,5,414,0,5,4,forest_24,2,memory-2step-stake-s,523,21068427,0.0-18.0-0.0-0.34,3827,4,3
35,1,object_09,object_07,391.5000001,1,2,417.535,0.6666666666666666,1,object_10,5,444,0,6,1,desert_16,2,memory-2step-stake-s,524,21076672,0.0-18.0-0.0-0.35,3827,2,1
36,1,object_09,object_07,562.74,2,1,527.5649999,0.4444444444444444,2,object_08,5,464,0,5,4,desert_28,2,memory-2step-stake-s,525,21084826,0.0-18.0-0.0-0.36,3827,2,1
37,2,object_02,object_01,576.47,3,2,555.16,0.3333333333333333,1,object_10,5,479,0,3,2,forest_2,2,memory-2step-stake-s,526,21092906,0.0-18.0-0.0-0.37,3827,4,3
38,3,object_04,object_03,625.24,6,1,525.41,0.1111111111111111,2,object_08,1,480,0,4,1,library_22,2,memory-2step-stake-s,527,21100760,0.0-18.0-0.0-0.38,3827,6,5
39,3,object_04,object_03,563.445,5,2,608.1950001,0.3333333333333333,1,object_10,5,495,0,3,4,library_11,2,memory-2step-stake-s,528,21108897,0.0-18.0-0.0-0.39,3827,6,5
40,2,object_02,object_01,724.22,4,1,494.59,0.3333333333333333,2,object_08,1,498,0,1,3,forest_9,2,memory-2step-stake-s,529,21116924,0.0-18.0-0.0-0.40,3827,4,3
41,4,object_06,object_05,864.2099998,8,2,608.555,0.4444444444444444,2,object_08,1,502,0,1,4,restaurant_31,2,memory-2step-stake-s,530,21125157,0.0-18.0-0.0-0.41,3827,7,8
42,2,object_01,object_02,557.09,3,1,855.6050002000001,0.2222222222222222,1,object_10,5,512,0,2,3,forest_9,2,memory-2step-stake-s,531,21133434,0.0-18.0-0.0-0.42,3827,3,4
43,4,object_05,object_06,613.2099999,7,2,-1.0,0.0,1,object_10,5,512,0,4,5,restaurant_20,2,memory-2step-stake-s,532,21141953,0.0-18.0-0.0-0.43,3827,8,7
44,3,object_04,object_03,579.1699997999999,5,2,759.3099999,0.5555555555555556,1,object_10,1,517,0,5,6,library_29,2,memory-2step-stake-s,533,21150443,0.0-18.0-0.0-0.44,3827,6,5
45,2,object_02,object_01,817.9299999,4,1,-1.0,0.0,2,object_08,5,517,0,5,6,forest_17,2,memory-2step-stake-s,534,21159032,0.0-18.0-0.0-0.45,3827,4,3
46,2,object_01,object_02,581.52,4,2,880.7950001,0.7777777777777778,2,object_08,1,524,0,1,7,forest_29,2,memory-2step-stake-s,535,21167842,0.0-18.0-0.0-0.46,3827,3,4
47,1,object_09,object_07,618.635,2,1,-1.0,0.0,2,object_08,1,524,0,3,7,desert_6,2,memory-2step-stake-s,536,21176359,0.0-18.0-0.0-0.47,3827,2,1
48,1,object_09,object_07,651.72,2,1,-1.0,0.0,2,object_08,5,524,0,3,4,desert_29,2,memory-2step-stake-s,537,21184879,0.0-18.0-0.0-0.48,3827,2,1
49,3,object_03,object_04,641.2249999,5,1,832.8749998,0.1111111111111111,1,object_10,1,525,0,1,5,library_15,2,memory-2step-stake-s,538,21193038,0.0-18.0-0.0-0.49,3827,5,6
50,3,object_03,object_04,78.29499990000001,6,2,597.11,0.5555555555555556,2,object_08,1,530,0,1,5,library_27,2,memory-2step-stake-s,539,21201355,0.0-18.0-0.0-0.50,3827,5,6
51,1,object_07,object_09,464.69,1,1,860.3099999,0.1111111111111111,1,object_10,5,535,0,1,4,desert_7,2,memory-2step-stake-s,540,21209531,0.0-18.0-0.0-0.51,3827,1,2
52,3,object_04,object_03,502.63999979999994,5,2,404.96,0.5555555555555556,1,object_10,1,540,0,5,2,library_30,2,memory-2step-stake-s,541,21217666,0.0-18.0-0.0-0.52,3827,6,5
53,2,object_01,object_02,793.2550001,3,1,643.6399999,0.4444444444444444,1,object_10,5,560,0,4,1,forest_30,2,memory-2step-stake-s,542,21225931,0.0-18.0-0.0-0.53,3827,3,4
54,1,object_09,object_07,460.29500010000004,1,2,695.475,0.5555555555555556,1,object_10,1,565,0,5,3,desert_10,2,memory-2step-stake-s,543,21234361,0.0-18.0-0.0-0.54,3827,2,1
55,4,object_05,object_06,570.97,8,1,489.475,0.2222222222222222,2,object_08,1,567,0,5,2,restaurant_3,2,memory-2step-stake-s,544,21242273,0.0-18.0-0.0-0.55,3827,8,7
56,4,object_05,object_06,643.7349998999999,7,2,-1.0,0.0,1,object_10,1,567,0,6,3,restaurant_29,2,memory-2step-stake-s,545,21250791,0.0-18.0-0.0-0.56,3827,8,7
57,3,object_04,object_03,597.1300001,6,1,437.70499989999996,0.2222222222222222,2,object_08,1,569,0,8,2,library_10,2,memory-2step-stake-s,546,21258651,0.0-18.0-0.0-0.57,3827,6,5
58,2,object_02,object_01,659.1050001,3,2,713.245,0.5555555555555556,1,object_10,5,594,0,5,2,forest_28,2,memory-2step-stake-s,547,21267090,0.0-18.0-0.0-0.58,3827,4,3
59,4,object_05,object_06,588.155,8,1,1010.415,0.0,2,object_08,1,594,0,4,0,restaurant_20,2,memory-2step-stake-s,548,21275318,0.0-18.0-0.0-0.59,3827,8,7
60,3,object_04,object_03,602.4549999,5,2,655.48,0.4444444444444444,1,object_10,1,598,0,4,0,library_28,2,memory-2step-stake-s,549,21283866,0.0-18.0-0.0-0.60,3827,6,5
61,1,object_09,object_07,477.255,2,1,689.455,0.0,2,object_08,5,598,0,4,0,desert_18,2,memory-2step-stake-s,550,21291772,0.0-18.0-0.0-0.61,3827,2,1
62,2,object_01,object_02,614.2599999,4,2,1191.245,0.0,2,object_08,5,598,0,4,0,forest_29,2,memory-2step-stake-s,551,21300182,0.0-18.0-0.0-0.62,3827,3,4
63,3,object_04,object_03,1439.54,6,1,679.275,0.5555555555555556,2,object_08,1,603,0,6,5,library_22,2,memory-2step-stake-s,552,21308585,0.0-18.0-0.0-0.63,3827,6,5
64,4,object_05,object_06,1253.52,7,2,674.53,0.4444444444444444,1,object_10,5,623,0,4,8,restaurant_13,2,memory-2step-stake-s,553,21316886,0.0-18.0-0.0-0.64,3827,8,7
65,4,object_06,object_05,621.9949999,7,1,823.7650001000001,0.1111111111111111,1,object_10,1,624,0,1,8,restaurant_7,2,memory-2step-stake-s,554,21325029,0.0-18.0-0.0-0.65,3827,7,8
66,1,object_07,object_09,457.88500020000004,2,2,652.5349999,0.8888888888888888,2,object_08,5,664,0,2,8,desert_16,2,memory-2step-stake-s,555,21333714,0.0-18.0-0.0-0.66,3827,1,2
67,1,object_09,object_07,572.5449999,2,1,1081.245,0.8888888888888888,2,object_08,5,704,0,5,8,desert_18,2,memory-2step-stake-s,556,21342830,0.0-18.0-0.0-0.67,3827,2,1
68,1,object_07,object_09,719.7500002,2,2,-1.0,0.0,2,object_08,1,704,0,5,8,desert_3,2,memory-2step-stake-s,557,21351348,0.0-18.0-0.0-0.68,3827,1,2
69,3,object_03,object_04,462.445,6,2,875.25,1.0,2,object_08,1,713,0,6,9,library_11,2,memory-2step-stake-s,558,21360357,0.0-18.0-0.0-0.69,3827,5,6
70,2,object_02,object_01,635.2500001,4,1,554.3500001,0.7777777777777778,2,object_08,1,720,0,4,7,forest_9,2,memory-2step-stake-s,559,21369054,0.0-18.0-0.0-0.70,3827,4,3
71,4,object_06,object_05,462.2,8,2,449.82,0.5555555555555556,2,object_08,1,725,0,2,5,restaurant_3,2,memory-2step-stake-s,560,21377234,0.0-18.0-0.0-0.71,3827,7,8
72,2,object_01,object_02,859.895,3,1,681.08,0.1111111111111111,1,object_10,5,730,0,1,5,forest_17,2,memory-2step-stake-s,561,21385245,0.0-18.0-0.0-0.72,3827,3,4
73,3,object_04,object_03,597.235,5,2,419.56999989999997,0.2222222222222222,1,object_10,1,732,0,2,6,library_30,2,memory-2step-stake-s,562,21393085,0.0-18.0-0.0-0.73,3827,6,5
74,4,object_05,object_06,373.385,8,1,592.5299997999999,0.7777777777777778,2,object_08,1,739,0,1,7,restaurant_20,2,memory-2step-stake-s,563,21401608,0.0-18.0-0.0-0.74,3827,8,7
75,3,object_03,object_04,1338.82,6,2,-1.0,0.0,2,object_08,1,739,0,2,5,library_2,2,memory-2step-stake-s,564,21410123,0.0-18.0-0.0-0.75,3827,5,6
76,4,object_06,object_05,0.445000127,7,1,454.4749998,0.1111111111111111,1,object_10,5,744,0,1,3,restaurant_9,2,memory-2step-stake-s,565,21417898,0.0-18.0-0.0-0.76,3827,7,8
77,1,object_07,object_09,455.785,2,2,777.945,0.0,2,object_08,5,744,0,3,0,desert_21,2,memory-2step-stake-s,566,21425891,0.0-18.0-0.0-0.77,3827,1,2
78,1,object_07,object_09,591.3749998,1,1,567.755,0.2222222222222222,1,object_10,1,746,0,2,1,desert_12,2,memory-2step-stake-s,567,21434041,0.0-18.0-0.0-0.78,3827,1,2
79,4,object_05,object_06,480.2550001,7,2,780.8449999,0.2222222222222222,1,object_10,1,748,0,2,0,restaurant_13,2,memory-2step-stake-s,568,21442244,0.0-18.0-0.0-0.79,3827,8,7
80,3,object_03,object_04,606.3250001,5,1,564.545,0.0,1,object_10,1,748,0,0,0,library_12,2,memory-2step-stake-s,569,21450025,0.0-18.0-0.0-0.80,3827,5,6
81,4,object_05,object_06,437.195,7,2,557.5350001,0.0,1,object_10,5,748,0,0,3,restaurant_30,2,memory-2step-stake-s,570,21457976,0.0-18.0-0.0-0.81,3827,8,7
82,4,object_06,object_05,924.1250001,7,1,434.505,0.0,1,object_10,1,748,0,0,2,restaurant_26,2,memory-2step-stake-s,571,21465627,0.0-18.0-0.0-0.82,3827,7,8
83,3,object_04,object_03,1006.91,5,2,206.9699999,0.2222222222222222,1,object_10,1,750,0,2,5,library_12,2,memory-2step-stake-s,572,21473260,0.0-18.0-0.0-0.83,3827,6,5
84,3,object_04,object_03,453.945,6,1,554.5300001,0.7777777777777778,2,object_08,5,785,0,2,7,library_23,2,memory-2step-stake-s,573,21481749,0.0-18.0-0.0-0.84,3827,6,5
85,3,object_04,object_03,523.6599999,5,2,427.9099999,0.2222222222222222,1,object_10,1,787,0,2,5,library_2,2,memory-2step-stake-s,574,21489607,0.0-18.0-0.0-0.85,3827,6,5
86,3,object_03,object_04,494.7800001,5,1,514.5,0.3333333333333333,1,object_10,1,790,0,3,7,library_4,2,memory-2step-stake-s,575,21497640,0.0-18.0-0.0-0.86,3827,5,6
87,2,object_01,object_02,681.0049999,4,2,829.0249999,0.8888888888888888,2,object_08,5,830,0,4,8,forest_18,2,memory-2step-stake-s,576,21506495,0.0-18.0-0.0-0.87,3827,3,4
88,1,object_07,object_09,681.815,2,2,437.9100001,0.8888888888888888,2,object_08,5,870,0,3,8,desert_29,2,memory-2step-stake-s,577,21514963,0.0-18.0-0.0-0.88,3827,1,2
89,4,object_05,object_06,712.8600001,7,2,506.01499989999996,0.5555555555555556,1,object_10,1,875,0,5,7,restaurant_17,2,memory-2step-stake-s,578,21523195,0.0-18.0-0.0-0.89,3827,8,7
90,3,object_04,object_03,469.755,5,2,423.0299999,0.2222222222222222,1,object_10,1,877,0,2,8,library_28,2,memory-2step-stake-s,579,21531049,0.0-18.0-0.0-0.90,3827,6,5
91,1,object_07,object_09,477.50999989999997,1,1,511.58000020000003,0.3333333333333333,1,object_10,5,892,0,3,8,desert_9,2,memory-2step-stake-s,580,21539089,0.0-18.0-0.0-0.91,3827,1,2
92,3,object_03,object_04,689.9000001,6,2,1034.05,1.0,2,object_08,1,901,0,2,9,library_15,2,memory-2step-stake-s,581,21548262,0.0-18.0-0.0-0.92,3827,5,6
93,1,object_07,object_09,-1.0,-1,-1,-1.0,0.0,-,,5,901,0,3,7,desert_32,2,memory-2step-stake-s,582,21554774,0.0-18.0-0.0-0.93,3827,1,2
94,2,object_02,object_01,-1.0,-1,-1,-1.0,0.0,-,,5,901,0,3,4,forest_20,2,memory-2step-stake-s,583,21561285,0.0-18.0-0.0-0.94,3827,4,3
95,4,object_05,object_06,568.53,8,1,1098.8,0.2222222222222222,2,object_08,5,911,0,4,2,restaurant_17,2,memory-2step-stake-s,584,21569807,0.0-18.0-0.0-0.95,3827,8,7
96,2,object_02,object_01,1362.855,3,2,-1.0,0.0,1,object_10,1,911,0,5,4,forest_3,2,memory-2step-stake-s,585,21578324,0.0-18.0-0.0-0.96,3827,4,3
97,1,object_09,object_07,979.2750001,2,1,1004.405,0.3333333333333333,2,object_08,5,926,0,5,3,desert_24,2,memory-2step-stake-s,586,21586849,0.0-18.0-0.0-0.97,3827,2,1
98,1,object_09,object_07,42.11500008,1,2,143.0549999,0.3333333333333333,1,object_10,5,941,0,3,4,desert_12,2,memory-2step-stake-s,587,21594515,0.0-18.0-0.0-0.98,3827,2,1
99,3,object_04,object_03,491.38499979999995,6,1,481.0349999,0.7777777777777778,2,object_08,1,948,0,4,7,library_23,2,memory-2step-stake-s,588,21602927,0.0-18.0-0.0-0.99,3827,6,5
100,2,object_02,object_01,766.5550001,3,2,1012.185,0.5555555555555556,1,object_10,5,973,0,5,7,forest_18,2,memory-2step-stake-s,589,21611668,0.0-18.0-0.0-0.100,3827,4,3
101,2,object_01,object_02,482.26,3,1,326.2,0.2222222222222222,1,object_10,5,983,0,2,7,forest_10,2,memory-2step-stake-s,590,21619417,0.0-18.0-0.0-0.101,3827,3,4
102,4,object_06,object_05,477.39499989999996,8,2,781.4850002000001,0.6666666666666666,2,object_08,1,989,0,2,6,restaurant_9,2,memory-2step-stake-s,591,21628020,0.0-18.0-0.0-0.102,3827,7,8
103,4,object_06,object_05,137.0999999,7,1,735.42,0.4444444444444444,1,object_10,1,993,0,4,5,restaurant_17,2,memory-2step-stake-s,592,21636377,0.0-18.0-0.0-0.103,3827,7,8
104,2,object_02,object_01,449.27,3,2,774.2349998999999,0.7777777777777778,1,object_10,5,1028,0,7,7,forest_20,2,memory-2step-stake-s,593,21645079,0.0-18.0-0.0-0.104,3827,4,3
105,3,object_04,object_03,569.8849999,6,1,509.2249999,0.7777777777777778,2,object_08,5,1063,0,8,7,library_5,2,memory-2step-stake-s,594,21653524,0.0-18.0-0.0-0.105,3827,6,5
106,1,object_07,object_09,393.14499989999996,2,2,492.73000010000004,1.0,2,object_08,5,1108,0,9,9,desert_23,2,memory-2step-stake-s,595,21662149,0.0-18.0-0.0-0.106,3827,1,2
107,4,object_06,object_05,907.2449999,8,2,856.045,0.7777777777777778,2,object_08,1,1115,0,8,7,restaurant_26,2,memory-2step-stake-s,596,21670975,0.0-18.0-0.0-0.107,3827,7,8
108,3,object_04,object_03,587.15,6,1,559.0600001,0.5555555555555556,2,object_08,1,1120,0,6,5,library_5,2,memory-2step-stake-s,597,21679263,0.0-18.0-0.0-0.108,3827,6,5
109,4,object_05,object_06,646.2300001,7,2,705.5350002,0.3333333333333333,1,object_10,5,1135,0,3,2,restaurant_29,2,memory-2step-stake-s,598,21687494,0.0-18.0-0.0-0.109,3827,8,7
110,3,object_04,object_03,1036.765,6,1,-1.0,0.0,2,object_08,1,1135,0,4,0,library_2,2,memory-2step-stake-s,599,21696013,0.0-18.0-0.0-0.110,3827,6,5
111,1,object_09,object_07,729.7650001000001,1,2,391.09,0.4444444444444444,1,object_10,5,1155,0,4,1,desert_31,2,memory-2step-stake-s,600,21704091,0.0-18.0-0.0-0.111,3827,2,1
112,1,object_07,object_09,472.4950001,1,1,437.8450001,0.5555555555555556,1,object_10,1,1160,0,5,2,desert_10,2,memory-2step-stake-s,601,21712268,0.0-18.0-0.0-0.112,3827,1,2
113,2,object_02,object_01,588.68,3,2,644.4650001,0.3333333333333333,1,object_10,5,1175,0,3,2,forest_17,2,memory-2step-stake-s,602,21720433,0.0-18.0-0.0-0.113,3827,4,3
114,1,object_09,object_07,507.3499999,2,1,711.2099999,0.3333333333333333,2,object_08,5,1190,0,5,3,desert_23,2,memory-2step-stake-s,603,21728674,0.0-18.0-0.0-0.114,3827,2,1
115,3,object_04,object_03,505.95499989999996,5,2,1010.86,0.8888888888888888,1,object_10,5,1230,0,8,1,library_10,2,memory-2step-stake-s,604,21737723,0.0-18.0-0.0-0.115,3827,6,5
116,3,object_04,object_03,732.84,6,1,941.6199999,0.4444444444444444,2,object_08,1,1234,0,8,4,library_10,2,memory-2step-stake-s,605,21746289,0.0-18.0-0.0-0.116,3827,6,5
117,4,object_06,object_05,660.895,8,2,537.98,0.5555555555555556,2,object_08,1,1239,0,9,5,restaurant_29,2,memory-2step-stake-s,606,21754553,0.0-18.0-0.0-0.117,3827,7,8
118,3,object_03,object_04,511.3049999,5,1,365.44499989999997,0.8888888888888888,1,object_10,1,1247,0,8,1,library_12,2,memory-2step-stake-s,607,21762953,0.0-18.0-0.0-0.118,3827,5,6
119,1,object_09,object_07,68.14499991,1,2,823.1250001,0.7777777777777778,1,object_10,5,1282,0,7,1,desert_12,2,memory-2step-stake-s,608,21771710,0.0-18.0-0.0-0.119,3827,2,1
120,1,object_07,object_09,1451.51,1,1,1273.44,1.0,1,object_10,5,1327,0,9,5,desert_24,2,memory-2step-stake-s,609,21781119,0.0-18.0-0.0-0.120,3827,1,2
121,2,object_02,object_01,841.5250001,3,2,-1.0,0.0,1,object_10,5,1327,0,6,5,forest_30,2,memory-2step-stake-s,610,21789638,0.0-18.0-0.0-0.121,3827,4,3
122,2,object_02,object_01,90.86499992,4,1,431.83499989999996,0.8888888888888888,2,object_08,5,1367,0,4,8,forest_10,2,memory-2step-stake-s,611,21798102,0.0-18.0-0.0-0.122,3827,4,3
123,4,object_06,object_05,271.01,8,2,1220.605,0.8888888888888888,2,object_08,1,1375,0,3,8,restaurant_9,2,memory-2step-stake-s,612,21807352,0.0-18.0-0.0-0.123,3827,7,8
124,1,object_09,object_07,390.565,2,1,395.8449999,0.7777777777777778,2,object_08,5,1410,0,5,7,desert_24,2,memory-2step-stake-s,613,21815674,0.0-18.0-0.0-0.124,3827,2,1
125,1,object_07,object_09,440.13999979999994,2,2,381.8350001,0.6666666666666666,2,object_08,5,1440,0,3,6,desert_28,2,memory-2step-stake-s,614,21823895,0.0-18.0-0.0-0.125,3827,1,2
126,4,object_06,object_05,441.94,7,1,424.05,0.2222222222222222,1,object_10,1,1442,0,2,7,restaurant_31,2,memory-2step-stake-s,615,21831742,0.0-18.0-0.0-0.126,3827,7,8
127,4,object_05,object_06,608.335,7,2,395.4750001,0.0,1,object_10,1,1442,0,0,7,restaurant_14,2,memory-2step-stake-s,616,21839361,0.0-18.0-0.0-0.127,3827,8,7
128,3,object_03,object_04,456.27,5,1,378.45,0.3333333333333333,1,object_10,1,1445,0,3,8,library_28,2,memory-2step-stake-s,618,22413409,0.0-18.0-0.1-0.128,3827,5,6
129,4,object_06,object_05,366.525,8,2,520.0699999,1.0,2,object_08,5,1490,0,0,9,restaurant_18,2,memory-2step-stake-s,619,22422060,0.0-18.0-0.1-0.129,3827,7,8
130,2,object_01,object_02,485.47,3,1,610.14,0.3333333333333333,1,object_10,5,1505,0,3,9,forest_3,2,memory-2step-stake-s,620,22430191,0.0-18.0-0.1-0.130,3827,3,4
131,4,object_05,object_06,230.18,7,2,455.695,0.1111111111111111,1,object_10,1,1506,0,1,8,restaurant_30,2,memory-2step-stake-s,621,22437967,0.0-18.0-0.1-0.131,3827,8,7
132,2,object_01,object_02,685.05,4,2,727.3299999,0.8888888888888888,2,object_08,1,1514,0,1,8,forest_28,2,memory-2step-stake-s,622,22446769,0.0-18.0-0.1-0.132,3827,3,4
133,3,object_03,object_04,249.22000010000002,5,1,557.7799999,0.2222222222222222,1,object_10,1,1516,0,2,7,library_22,2,memory-2step-stake-s,623,22454781,0.0-18.0-0.1-0.133,3827,5,6
134,2,object_01,object_02,462.38000020000004,4,2,487.705,0.7777777777777778,2,object_08,5,1551,0,4,7,forest_10,2,memory-2step-stake-s,624,22463199,0.0-18.0-0.1-0.134,3827,3,4
135,1,object_09,object_07,641.6449999,2,1,518.1,0.8888888888888888,2,object_08,5,1591,0,4,8,desert_31,2,memory-2step-stake-s,625,22471746,0.0-18.0-0.1-0.135,3827,2,1
136,4,object_05,object_06,837.5049999,7,2,-1.0,0.0,1,object_10,1,1591,0,2,9,restaurant_12,2,memory-2step-stake-s,626,22480262,0.0-18.0-0.1-0.136,3827,8,7
137,1,object_07,object_09,738.4900001,1,1,390.865,0.3333333333333333,1,object_10,5,1606,0,3,7,desert_3,2,memory-2step-stake-s,627,22488180,0.0-18.0-0.1-0.137,3827,1,2
138,2,object_01,object_02,1264.07,4,2,-1.0,0.0,2,object_08,5,1606,0,1,7,forest_1,2,memory-2step-stake-s,628,22496696,0.0-18.0-0.1-0.138,3827,3,4
139,3,object_03,object_04,1375.225,6,2,-1.0,0.0,2,object_08,5,1606,0,1,7,library_5,2,memory-2step-stake-s,629,22505210,0.0-18.0-0.1-0.139,3827,5,6
140,3,object_03,object_04,337.485,5,1,767.4100001,0.5555555555555556,1,object_10,1,1611,0,5,8,library_3,2,memory-2step-stake-s,630,22513705,0.0-18.0-0.1-0.140,3827,5,6
141,3,object_04,object_03,541.4,5,2,-1.0,0.0,1,object_10,1,1611,0,6,6,library_27,2,memory-2step-stake-s,631,22522224,0.0-18.0-0.1-0.141,3827,6,5
142,2,object_02,object_01,209.61,4,1,585.7199999,0.4444444444444444,2,object_08,5,1631,0,5,4,forest_18,2,memory-2step-stake-s,632,22530429,0.0-18.0-0.1-0.142,3827,4,3
143,1,object_09,object_07,466.06999989999997,1,2,485.4899999,0.4444444444444444,1,object_10,5,1651,0,4,6,desert_6,2,memory-2step-stake-s,633,22538537,0.0-18.0-0.1-0.143,3827,2,1
144,3,object_04,object_03,526.2850001,6,1,365.69499989999997,0.2222222222222222,2,object_08,1,1653,0,5,2,library_21,2,memory-2step-stake-s,634,22546321,0.0-18.0-0.1-0.144,3827,6,5
145,4,object_05,object_06,471.29,7,2,381.055,0.6666666666666666,1,object_10,1,1659,0,6,0,restaurant_14,2,memory-2step-stake-s,635,22554528,0.0-18.0-0.1-0.145,3827,8,7
146,2,object_01,object_02,305.52000019999997,3,1,463.9700002,0.2222222222222222,1,object_10,5,1669,0,2,0,forest_1,2,memory-2step-stake-s,636,22562411,0.0-18.0-0.1-0.146,3827,3,4
147,4,object_05,object_06,323.4299999,7,2,635.49,0.1111111111111111,1,object_10,1,1670,0,1,2,restaurant_17,2,memory-2step-stake-s,637,22570368,0.0-18.0-0.1-0.147,3827,8,7
148,1,object_07,object_09,961.075,1,1,1326.505,0.1111111111111111,1,object_10,1,1671,0,1,2,desert_7,2,memory-2step-stake-s,638,22579015,0.0-18.0-0.1-0.148,3827,1,2
149,2,object_01,object_02,828.22,4,2,756.9899998999999,0.4444444444444444,2,object_08,5,1691,0,4,4,forest_3,2,memory-2step-stake-s,639,22587394,0.0-18.0-0.1-0.149,3827,3,4
150,4,object_05,object_06,841.7849999,8,1,968.93,0.5555555555555556,2,object_08,1,1696,0,6,5,restaurant_26,2,memory-2step-stake-s,640,22596089,0.0-18.0-0.1-0.150,3827,8,7
151,1,object_07,object_09,55.99000002,2,2,840.8949999,0.3333333333333333,2,object_08,5,1711,0,6,3,desert_23,2,memory-2step-stake-s,641,22604456,0.0-18.0-0.1-0.151,3827,1,2
152,2,object_02,object_01,1107.285,4,1,612.6549997999999,0.2222222222222222,2,object_08,1,1713,0,5,2,forest_2,2,memory-2step-stake-s,642,22612489,0.0-18.0-0.1-0.152,3827,4,3
153,4,object_06,object_05,566.1000002000001,8,2,764.675,0.2222222222222222,2,object_08,5,1723,0,6,2,restaurant_7,2,memory-2step-stake-s,643,22620673,0.0-18.0-0.1-0.153,3827,7,8
154,3,object_04,object_03,701.51,6,1,447.525,0.1111111111111111,2,object_08,5,1728,0,5,1,library_29,2,memory-2step-stake-s,644,22628437,0.0-18.0-0.1-0.154,3827,6,5
155,3,object_03,object_04,570.2599999,6,2,1285.875,0.0,2,object_08,1,1728,0,4,0,library_4,2,memory-2step-stake-s,645,22636939,0.0-18.0-0.1-0.155,3827,5,6
156,2,object_02,object_01,636.9,4,1,-1.0,0.0,2,object_08,5,1728,0,3,2,forest_8,2,memory-2step-stake-s,646,22645461,0.0-18.0-0.1-0.156,3827,4,3
157,4,object_06,object_05,-1.0,-1,-1,-1.0,0.0,-,,1,1728,0,5,4,restaurant_5,2,memory-2step-stake-s,647,22651972,0.0-18.0-0.1-0.157,3827,7,8
158,4,object_06,object_05,641.325,8,2,885.5899998,0.1111111111111111,2,object_08,1,1729,0,5,1,restaurant_21,2,memory-2step-stake-s,648,22660175,0.0-18.0-0.1-0.158,3827,7,8
159,4,object_05,object_06,667.6399999,8,1,605.7499999,0.1111111111111111,2,object_08,1,1730,0,6,1,restaurant_21,2,memory-2step-stake-s,649,22668102,0.0-18.0-0.1-0.159,3827,8,7
160,3,object_03,object_04,1030.26,6,2,1100.415,0.1111111111111111,2,object_08,1,1731,0,6,1,library_9,2,memory-2step-stake-s,650,22676518,0.0-18.0-0.1-0.160,3827,5,6
161,2,object_02,object_01,512.5,4,1,537.7700001000001,0.3333333333333333,2,object_08,5,1746,0,7,3,forest_30,2,memory-2step-stake-s,651,22684575,0.0-18.0-0.1-0.161,3827,4,3
162,1,object_09,object_07,713.0450001,1,2,618.1399999,0.7777777777777778,1,object_10,5,1781,0,7,4,desert_31,2,memory-2step-stake-s,652,22693127,0.0-18.0-0.1-0.162,3827,2,1
163,1,object_09,object_07,715.0350001,2,1,313.475,0.6666666666666666,2,object_08,5,1811,0,7,6,desert_23,2,memory-2step-stake-s,653,22701266,0.0-18.0-0.1-0.163,3827,2,1
164,4,object_05,object_06,381.82999989999996,7,2,680.9200002,0.8888888888888888,1,object_10,1,1819,0,8,3,restaurant_28,2,memory-2step-stake-s,654,22709974,0.0-18.0-0.1-0.164,3827,8,7
165,1,object_07,object_09,496.38500020000004,1,1,-1.0,0.0,1,object_10,5,1819,0,6,3,desert_12,2,memory-2step-stake-s,655,22718488,0.0-18.0-0.1-0.165,3827,1,2
166,1,object_07,object_09,325.8149999,2,2,722.0149999,0.5555555555555556,2,object_08,5,1844,0,5,5,desert_6,2,memory-2step-stake-s,656,22726933,0.0-18.0-0.1-0.166,3827,1,2
167,3,object_03,object_04,337.61500010000003,5,1,753.185,0.6666666666666666,1,object_10,1,1850,0,6,5,library_4,2,memory-2step-stake-s,657,22735508,0.0-18.0-0.1-0.167,3827,5,6
168,3,object_03,object_04,262.1550001,6,2,852.5899998,0.5555555555555556,2,object_08,1,1855,0,3,5,library_5,2,memory-2step-stake-s,658,22744096,0.0-18.0-0.1-0.168,3827,5,6
169,1,object_07,object_09,1406.935,1,1,960.16,0.5555555555555556,1,object_10,5,1880,0,5,3,desert_19,2,memory-2step-stake-s,659,22752780,0.0-18.0-0.1-0.169,3827,1,2
170,1,object_09,object_07,-1.0,-1,-1,-1.0,0.0,-,,5,1880,0,4,1,desert_21,2,memory-2step-stake-s,660,22759293,0.0-18.0-0.1-0.170,3827,2,1
171,2,object_01,object_02,207.285,3,1,-1.0,0.0,1,object_10,1,1880,0,4,1,forest_30,2,memory-2step-stake-s,661,22767813,0.0-18.0-0.1-0.171,3827,3,4
172,4,object_05,object_06,970.3800001,7,2,1066.675,0.8888888888888888,1,object_10,1,1888,0,8,1,restaurant_21,2,memory-2step-stake-s,662,22776910,0.0-18.0-0.1-0.172,3827,8,7
173,3,object_04,object_03,64.49500006,6,1,39.67499989,0.5555555555555556,2,object_08,5,1913,0,7,5,library_12,2,memory-2step-stake-s,663,22784670,0.0-18.0-0.1-0.173,3827,6,5
174,1,object_09,object_07,250.40500010000002,1,2,664.05,0.4444444444444444,1,object_10,5,1933,0,4,2,desert_19,2,memory-2step-stake-s,664,22792954,0.0-18.0-0.1-0.174,3827,2,1
175,3,object_04,object_03,1113.2,5,2,932.2600001000001,0.5555555555555556,1,object_10,1,1938,0,5,2,library_28,2,memory-2step-stake-s,665,22801608,0.0-18.0-0.1-0.175,3827,6,5
176,3,object_04,object_03,362.83,5,2,1321.415,0.4444444444444444,1,object_10,1,1942,0,4,3,library_9,2,memory-2step-stake-s,666,22810555,0.0-18.0-0.1-0.176,3827,6,5
177,3,object_03,object_04,370.43000010000003,5,1,401.025,0.3333333333333333,1,object_10,1,1945,0,3,4,library_30,2,memory-2step-stake-s,667,22818476,0.0-18.0-0.1-0.177,3827,5,6
178,2,object_01,object_02,276.385,4,2,156.6349999,0.0,2,object_08,1,1945,0,3,0,forest_17,2,memory-2step-stake-s,668,22825849,0.0-18.0-0.1-0.178,3827,3,4
179,3,object_04,object_03,263.4099999,6,1,353.8200001,0.0,2,object_08,5,1945,0,8,0,library_3,2,memory-2step-stake-s,669,22833417,0.0-18.0-0.1-0.179,3827,6,5
180,3,object_04,object_03,271.525,5,2,614.8999999,0.7777777777777778,1,object_10,1,1952,0,7,1,library_29,2,memory-2step-stake-s,670,22841954,0.0-18.0-0.1-0.180,3827,6,5
181,1,object_09,object_07,270.7549999,2,1,410.015,0.0,2,object_08,5,1952,0,4,0,desert_32,2,memory-2step-stake-s,671,22849588,0.0-18.0-0.1-0.181,3827,2,1
182,4,object_06,object_05,990.4850002000001,8,2,576.69,0.0,2,object_08,1,1952,0,3,0,restaurant_12,2,memory-2step-stake-s,672,22857386,0.0-18.0-0.1-0.182,3827,7,8
183,2,object_01,object_02,934.4050002,3,1,-1.0,0.0,1,object_10,5,1952,0,1,1,forest_20,2,memory-2step-stake-s,673,22865896,0.0-18.0-0.1-0.183,3827,3,4
184,1,object_07,object_09,845.4700001,2,2,511.59,0.2222222222222222,2,object_08,5,1962,0,2,2,desert_10,2,memory-2step-stake-s,674,22873821,0.0-18.0-0.1-0.184,3827,1,2
185,1,object_09,object_07,455.8950001,2,1,432.92500010000003,0.1111111111111111,2,object_08,5,1967,0,1,1,desert_3,2,memory-2step-stake-s,675,22881568,0.0-18.0-0.1-0.185,3827,2,1
186,2,object_01,object_02,410.255,4,2,378.235,0.1111111111111111,2,object_08,5,1972,0,2,1,forest_24,2,memory-2step-stake-s,676,22889265,0.0-18.0-0.1-0.186,3827,3,4
187,4,object_05,object_06,776.3450001,7,2,158.13500009999998,0.4444444444444444,1,object_10,1,1976,0,4,4,restaurant_9,2,memory-2step-stake-s,677,22897044,0.0-18.0-0.1-0.187,3827,8,7
188,2,object_02,object_01,665.8899997999999,4,1,534.4750001,0.4444444444444444,2,object_08,5,1996,0,4,4,forest_6,2,memory-2step-stake-s,678,22905200,0.0-18.0-0.1-0.188,3827,4,3
189,1,object_09,object_07,396.04,1,2,358.215,0.1111111111111111,1,object_10,5,2001,0,1,4,desert_24,2,memory-2step-stake-s,679,22912876,0.0-18.0-0.1-0.189,3827,2,1
190,4,object_06,object_05,332.31,7,1,517.0400001,0.0,1,object_10,1,2001,0,0,5,restaurant_28,2,memory-2step-stake-s,680,22920608,0.0-18.0-0.1-0.190,3827,7,8
191,3,object_03,object_04,676.73,6,2,72.91999995,0.4444444444444444,2,object_08,1,2005,0,3,4,library_22,2,memory-2step-stake-s,681,22928298,0.0-18.0-0.1-0.191,3827,5,6
192,2,object_02,object_01,-1.0,-1,-1,-1.0,0.0,-,,5,2005,0,4,2,forest_28,2,memory-2step-stake-s,682,22934806,0.0-18.0-0.1-0.192,3827,4,3
193,3,object_04,object_03,1003.34,5,2,-1.0,0.0,1,object_10,1,2005,0,2,4,library_23,2,memory-2step-stake-s,683,22943326,0.0-18.0-0.1-0.193,3827,6,5
194,2,object_01,object_02,1232.125,3,1,1093.235,0.2222222222222222,1,object_10,5,2015,0,2,5,forest_10,2,memory-2step-stake-s,684,22951841,0.0-18.0-0.1-0.194,3827,3,4
195,4,object_06,object_05,472.14,8,2,-1.0,0.0,2,object_08,1,2015,0,2,6,restaurant_14,2,memory-2step-stake-s,685,22960354,0.0-18.0-0.1-0.195,3827,7,8
196,1,object_09,object_07,807.885,1,2,884.785,0.4444444444444444,1,object_10,5,2035,0,4,7,desert_29,2,memory-2step-stake-s,686,22968857,0.0-18.0-0.1-0.196,3827,2,1
197,1,object_09,object_07,1077.13,2,1,1278.95,1.0,2,object_08,5,2080,0,4,9,desert_29,2,memory-2step-stake-s,687,22978265,0.0-18.0-0.1-0.197,3827,2,1
198,3,object_03,object_04,562.9500002,6,2,431.45,0.8888888888888888,2,object_08,1,2088,0,5,8,library_21,2,memory-2step-stake-s,688,22986719,0.0-18.0-0.1-0.198,3827,5,6
199,3,object_04,object_03,1212.985,6,1,571.1100001,0.8888888888888888,2,object_08,1,2096,0,6,8,library_11,2,memory-2step-stake-s,689,22995315,0.0-18.0-0.1-0.199,3827,6,5
200,4,object_06,object_05,1222.54,8,2,768.835,0.8888888888888888,2,object_08,1,2104,0,7,8,restaurant_28,2,memory-2step-stake-s,690,23004106,0.0-18.0-0.1-0.200,3827,7,8
201,3,object_03,object_04,1058.03,5,1,-1.0,0.0,1,object_10,1,2104,0,9,5,library_21,2,memory-2step-stake-s,691,23012621,0.0-18.0-0.1-0.201,3827,5,6
202,1,object_09,object_07,181.5549999,1,2,65.05500013,0.4444444444444444,1,object_10,5,2124,0,4,7,desert_16,2,memory-2step-stake-s,692,23020302,0.0-18.0-0.1-0.202,3827,2,1
203,2,object_01,object_02,919.365,3,1,628.42,0.5555555555555556,1,object_10,5,2149,0,5,7,forest_8,2,memory-2step-stake-s,693,23028651,0.0-18.0-0.1-0.203,3827,3,4
204,2,object_01,object_02,606.8549998999999,4,2,619.3949999,0.7777777777777778,2,object_08,1,2156,0,2,7,forest_24,2,memory-2step-stake-s,694,23037188,0.0-18.0-0.1-0.204,3827,3,4
205,4,object_05,object_06,1141.25,8,1,-1.0,0.0,2,object_08,5,2156,0,2,9,restaurant_5,2,memory-2step-stake-s,695,23045701,0.0-18.0-0.1-0.205,3827,8,7
206,4,object_05,object_06,1479.61,7,2,1377.88,0.1111111111111111,1,object_10,1,2157,0,1,5,restaurant_5,2,memory-2step-stake-s,696,23054397,0.0-18.0-0.1-0.206,3827,8,7
207,1,object_09,object_07,1005.87,2,1,911.85,0.7777777777777778,2,object_08,5,2192,0,2,7,desert_21,2,memory-2step-stake-s,697,23063230,0.0-18.0-0.1-0.207,3827,2,1
208,4,object_06,object_05,-1.0,-1,-1,-1.0,0.0,-,,5,2192,0,2,8,restaurant_12,2,memory-2step-stake-s,698,23069738,0.0-18.0-0.1-0.208,3827,7,8
209,3,object_03,object_04,1088.27,6,2,841.2899999,0.5555555555555556,2,object_08,5,2217,0,2,5,library_30,2,memory-2step-stake-s,699,23078302,0.0-18.0-0.1-0.209,3827,5,6
210,3,object_03,object_04,298.93,5,1,403.82499989999997,0.5555555555555556,1,object_10,1,2222,0,5,2,library_2,2,memory-2step-stake-s,700,23086423,0.0-18.0-0.1-0.210,3827,5,6
211,1,object_09,object_07,539.14,1,2,1021.43,0.8888888888888888,1,object_10,5,2262,0,8,1,desert_18,2,memory-2step-stake-s,701,23095464,0.0-18.0-0.1-0.211,3827,2,1
212,1,object_09,object_07,495.0300001,2,1,403.9399999,0.2222222222222222,2,object_08,5,2272,0,9,2,desert_32,2,memory-2step-stake-s,702,23103284,0.0-18.0-0.1-0.212,3827,2,1
213,4,object_05,object_06,554.3750001,7,2,285.0900001,0.7777777777777778,1,object_10,1,2279,0,7,5,restaurant_13,2,memory-2step-stake-s,703,23111491,0.0-18.0-0.1-0.213,3827,8,7
214,4,object_05,object_06,479.58,8,1,464.9049998,0.5555555555555556,2,object_08,1,2284,0,8,5,restaurant_30,2,memory-2step-stake-s,704,23119675,0.0-18.0-0.1-0.214,3827,8,7
215,4,object_06,object_05,590.08,8,2,436.2250001,0.3333333333333333,2,object_08,5,2299,0,8,3,restaurant_18,2,memory-2step-stake-s,705,23127634,0.0-18.0-0.1-0.215,3827,7,8
216,1,object_07,object_09,506.9550001,1,1,350.57,0.7777777777777778,1,object_10,5,2334,0,7,2,desert_3,2,memory-2step-stake-s,706,23135913,0.0-18.0-0.1-0.216,3827,1,2
217,4,object_06,object_05,515.845,8,2,856.65,0.0,2,object_08,1,2334,0,9,0,restaurant_29,2,memory-2step-stake-s,707,23143987,0.0-18.0-0.1-0.217,3827,7,8
218,4,object_05,object_06,861.245,8,1,402.855,0.2222222222222222,2,object_08,1,2336,0,9,2,restaurant_18,2,memory-2step-stake-s,708,23151809,0.0-18.0-0.1-0.218,3827,8,7
219,3,object_04,object_03,1074.245,5,2,-1.0,0.0,1,object_10,1,2336,0,8,2,library_15,2,memory-2step-stake-s,709,23160324,0.0-18.0-0.1-0.219,3827,6,5
220,3,object_04,object_03,734.465,6,1,412.9949999,0.1111111111111111,2,object_08,5,2341,0,8,1,library_3,2,memory-2step-stake-s,710,23168055,0.0-18.0-0.1-0.220,3827,6,5
221,2,object_02,object_01,-1.0,-1,-1,-1.0,0.0,-,,5,2341,0,9,2,forest_11,2,memory-2step-stake-s,711,23174569,0.0-18.0-0.1-0.221,3827,4,3
222,2,object_02,object_01,423.2650001,3,2,274.945,0.7777777777777778,1,object_10,5,2376,0,7,3,forest_4,2,memory-2step-stake-s,712,23182770,0.0-18.0-0.1-0.222,3827,4,3
223,1,object_07,object_09,302.85500010000004,1,1,120.6,0.7777777777777778,1,object_10,1,2383,0,7,0,desert_16,2,memory-2step-stake-s,713,23190819,0.0-18.0-0.1-0.223,3827,1,2
224,2,object_01,object_02,570.0049999,4,2,554.0100001000001,0.3333333333333333,2,object_08,5,2398,0,7,3,forest_8,2,memory-2step-stake-s,714,23198891,0.0-18.0-0.1-0.224,3827,3,4
225,1,object_09,object_07,1396.015,2,1,818.555,0.1111111111111111,2,object_08,5,2403,0,6,1,desert_21,2,memory-2step-stake-s,715,23207025,0.0-18.0-0.1-0.225,3827,2,1
226,3,object_03,object_04,280.36,5,1,950.005,0.7777777777777778,1,object_10,1,2410,0,7,0,library_3,2,memory-2step-stake-s,716,23215900,0.0-18.0-0.1-0.226,3827,5,6
227,4,object_06,object_05,407.88999989999996,8,2,526.2699997999999,0.3333333333333333,2,object_08,1,2413,0,3,3,restaurant_28,2,memory-2step-stake-s,717,23223953,0.0-18.0-0.1-0.227,3827,7,8
228,2,object_01,object_02,239.7,3,1,125.9999999,0.0,1,object_10,5,2413,0,0,2,forest_20,2,memory-2step-stake-s,718,23231297,0.0-18.0-0.1-0.228,3827,3,4
229,4,object_05,object_06,-1.0,-1,-1,-1.0,0.0,-,,5,2413,0,0,0,restaurant_5,2,memory-2step-stake-s,719,23237806,0.0-18.0-0.1-0.229,3827,8,7
230,4,object_05,object_06,761.465,7,2,485.3700001,0.2222222222222222,1,object_10,1,2415,0,2,3,restaurant_3,2,memory-2step-stake-s,720,23245709,0.0-18.0-0.1-0.230,3827,8,7
231,4,object_05,object_06,501.83000020000003,8,1,367.8100002,0.3333333333333333,2,object_08,5,2430,0,2,3,restaurant_18,2,memory-2step-stake-s,721,23253605,0.0-18.0-0.1-0.231,3827,8,7
232,1,object_09,object_07,245.3600001,1,2,-1.0,0.0,1,object_10,5,2430,0,2,0,desert_6,2,memory-2step-stake-s,722,23262126,0.0-18.0-0.1-0.232,3827,2,1
233,4,object_06,object_05,935.355,7,1,484.92,0.5555555555555556,1,object_10,5,2455,0,5,3,restaurant_20,2,memory-2step-stake-s,723,23270341,0.0-18.0-0.1-0.233,3827,7,8
234,1,object_07,object_09,338.6300001,2,2,502.2,0.0,2,object_08,5,2455,0,7,0,desert_7,2,memory-2step-stake-s,724,23278065,0.0-18.0-0.1-0.234,3827,1,2
235,2,object_02,object_01,362.675,4,1,628.5699999,0.2222222222222222,2,object_08,5,2465,0,9,2,forest_2,2,memory-2step-stake-s,725,23286114,0.0-18.0-0.1-0.235,3827,4,3
236,1,object_07,object_09,549.0049999,2,2,462.2450001,0.2222222222222222,2,object_08,5,2475,0,6,2,desert_7,2,memory-2step-stake-s,726,23293996,0.0-18.0-0.1-0.236,3827,1,2
237,4,object_06,object_05,365.9650001,7,1,358.2850001,0.6666666666666666,1,object_10,1,2481,0,6,3,restaurant_21,2,memory-2step-stake-s,727,23302178,0.0-18.0-0.1-0.237,3827,7,8
238,3,object_04,object_03,633.2449999,5,2,836.7650001000001,0.7777777777777778,1,object_10,1,2488,0,7,3,library_27,2,memory-2step-stake-s,728,23310945,0.0-18.0-0.1-0.238,3827,6,5
239,4,object_06,object_05,1388.88,8,2,584.4050001,0.3333333333333333,2,object_08,1,2491,0,7,3,restaurant_30,2,memory-2step-stake-s,729,23319048,0.0-18.0-0.1-0.239,3827,7,8
240,1,object_07,object_09,489.7100001,1,1,486.695,0.6666666666666666,1,object_10,5,2521,0,6,3,desert_32,2,memory-2step-stake-s,730,23327437,0.0-18.0-0.1-0.240,3827,1,2
241,2,object_02,object_01,657.7099999,3,2,366.7850001,0.7777777777777778,1,object_10,1,2528,0,7,2,forest_18,2,memory-2step-stake-s,731,23335729,0.0-18.0-0.1-0.241,3827,4,3
242,2,object_02,object_01,220.37,4,1,594.1550001,0.1111111111111111,2,object_08,5,2533,0,4,1,forest_11,2,memory-2step-stake-s,732,23343645,0.0-18.0-0.1-0.242,3827,4,3
243,3,object_04,object_03,929.8299998,5,2,791.7450001,0.6666666666666666,1,object_10,1,2539,0,6,6,library_9,2,memory-2step-stake-s,733,23352270,0.0-18.0-0.1-0.243,3827,6,5
244,1,object_07,object_09,619.165,1,1,792.65,0.5555555555555556,1,object_10,5,2564,0,5,6,desert_19,2,memory-2step-stake-s,734,23360785,0.0-18.0-0.1-0.244,3827,1,2
245,2,object_02,object_01,1000.525,3,2,673.2899997999999,0.6666666666666666,1,object_10,5,2594,0,6,7,forest_4,2,memory-2step-stake-s,735,23369284,0.0-18.0-0.1-0.245,3827,4,3
246,2,object_02,object_01,470.75999989999997,4,1,501.1149999,0.6666666666666666,2,object_08,5,2624,0,8,6,forest_6,2,memory-2step-stake-s,736,23377610,0.0-18.0-0.1-0.246,3827,4,3
247,4,object_06,object_05,800.4350001,8,2,584.915,0.7777777777777778,2,object_08,1,2631,0,9,7,restaurant_7,2,memory-2step-stake-s,737,23386128,0.0-18.0-0.1-0.247,3827,7,8
248,2,object_01,object_02,405.09499980000004,3,1,491.655,0.7777777777777778,1,object_10,5,2666,0,7,6,forest_1,2,memory-2step-stake-s,738,23394550,0.0-18.0-0.1-0.248,3827,3,4
249,4,object_06,object_05,1066.045,8,2,745.2149999,0.7777777777777778,2,object_08,1,2673,0,7,7,restaurant_7,2,memory-2step-stake-s,739,23403222,0.0-18.0-0.1-0.249,3827,7,8
250,3,object_03,object_04,595.8550002000001,5,1,485.015,0.4444444444444444,1,object_10,1,2677,0,4,9,library_21,2,memory-2step-stake-s,740,23411330,0.0-18.0-0.1-0.250,3827,5,6
251,3,object_03,object_04,1086.06,6,2,889.4150001,0.7777777777777778,2,object_08,1,2684,0,5,7,library_15,2,memory-2step-stake-s,741,23420154,0.0-18.0-0.1-0.251,3827,5,6
252,1,object_09,object_07,519.7699999,2,1,508.41,0.5555555555555556,2,object_08,5,2709,0,6,5,desert_28,2,memory-2step-stake-s,742,23428387,0.0-18.0-0.1-0.252,3827,2,1
253,4,object_06,object_05,442.64,8,2,455.2699998,0.6666666666666666,2,object_08,1,2715,0,5,6,restaurant_31,2,memory-2step-stake-s,743,23436666,0.0-18.0-0.1-0.253,3827,7,8
254,4,object_05,object_06,481.5549999,8,1,508.935,0.6666666666666666,2,object_08,5,2745,0,2,6,restaurant_3,2,memory-2step-stake-s,744,23445005,0.0-18.0-0.1-0.254,3827,8,7
255,2,object_01,object_02,622.6699999,4,2,1337.6,0.6666666666666666,2,object_08,5,2775,0,1,6,forest_29,2,memory-2step-stake-s,745,23454164,0.0-18.0-0.1-0.255,3827,3,4
