,state1,stim_left,stim_right,rt_1,choice1,response1,rt_2,points,state2,stim_state2,stake,score,practice,rews1,rews2,background,high_arm,trial_type,trial_index,time_elapsed,internal_node_id,subid,stim_left_num,stim_right_num
0,4,object_10,object_04,-1.0,-1,-1,-1.0,0.0,-,,5,0,0,6,2,restaurant_21,1,memory-2step-stake-s,499,1140987,0.0-18.0-0.0-0.0,4440,7,8
1,3,object_02,object_08,827.0,5,1,-1.0,0.0,1,object_01,5,0,0,3,0,library_20,1,memory-2step-stake-s,500,1149501,0.0-18.0-0.0-0.1,4440,5,6
2,4,object_04,object_10,-1.0,-1,-1,-1.0,0.0,-,,5,0,0,5,1,restaurant_2,1,memory-2step-stake-s,501,1156011,0.0-18.0-0.0-0.2,4440,8,7
3,2,object_05,object_03,522.0,4,2,1201.0,0.2222222222222222,2,object_09,1,2,0,5,2,forest_1,1,memory-2step-stake-s,502,1164633,0.0-18.0-0.0-0.3,4440,3,4
4,4,object_04,object_10,637.0,8,1,771.0,0.0,2,object_09,1,2,0,6,0,restaurant_21,1,memory-2step-stake-s,503,1172621,0.0-18.0-0.0-0.4,4440,8,7
5,3,object_08,object_02,878.0,6,1,-1.0,0.0,2,object_09,5,2,0,2,1,library_8,1,memory-2step-stake-s,504,1181135,0.0-18.0-0.0-0.5,4440,6,5
6,3,object_02,object_08,730.0,6,2,722.0,0.1111111111111111,2,object_09,5,7,0,2,1,library_20,1,memory-2step-stake-s,505,1189171,0.0-18.0-0.0-0.6,4440,5,6
7,2,object_05,object_03,920.0,3,1,855.0,0.2222222222222222,1,object_01,1,9,0,2,1,forest_32,1,memory-2step-stake-s,506,1197448,0.0-18.0-0.0-0.7,4440,3,4
8,3,object_02,object_08,771.0,5,1,666.0,0.1111111111111111,1,object_01,5,14,0,1,2,library_8,1,memory-2step-stake-s,507,1205430,0.0-18.0-0.0-0.8,4440,5,6
9,4,object_04,object_10,492.0,7,2,452.0,0.3333333333333333,1,object_01,5,29,0,3,0,restaurant_7,1,memory-2step-stake-s,508,1213403,0.0-18.0-0.0-0.9,4440,8,7
10,1,object_07,object_06,828.0,1,2,840.0,0.1111111111111111,1,object_01,1,30,0,1,2,desert_28,1,memory-2step-stake-s,509,1221559,0.0-18.0-0.0-0.10,4440,2,1
11,3,object_02,object_08,1305.0,5,1,535.0,0.2222222222222222,1,object_01,5,40,0,2,4,library_5,1,memory-2step-stake-s,510,1229511,0.0-18.0-0.0-0.11,4440,5,6
12,4,object_10,object_04,538.0,8,2,442.0,0.4444444444444444,2,object_09,1,44,0,6,4,restaurant_3,1,memory-2step-stake-s,511,1237578,0.0-18.0-0.0-0.12,4440,7,8
13,2,object_03,object_05,978.0,3,2,682.0,0.4444444444444444,1,object_01,1,48,0,4,6,forest_17,1,memory-2step-stake-s,512,1245881,0.0-18.0-0.0-0.13,4440,4,3
14,4,object_04,object_10,888.0,8,1,643.0,0.3333333333333333,2,object_09,5,63,0,7,3,restaurant_3,1,memory-2step-stake-s,513,1254043,0.0-18.0-0.0-0.14,4440,8,7
15,1,object_06,object_07,922.0,2,2,-1.0,0.0,2,object_09,1,63,0,8,1,desert_6,1,memory-2step-stake-s,514,1262561,0.0-18.0-0.0-0.15,4440,1,2
16,4,object_04,object_10,646.0,8,1,480.0,0.0,2,object_09,1,63,0,9,0,restaurant_19,1,memory-2step-stake-s,515,1270256,0.0-18.0-0.0-0.16,4440,8,7
17,4,object_10,object_04,791.0,8,2,544.0,0.5555555555555556,2,object_09,5,88,0,8,5,restaurant_24,1,memory-2step-stake-s,516,1278522,0.0-18.0-0.0-0.17,4440,7,8
18,3,object_02,object_08,511.0,5,1,655.0,0.6666666666666666,1,object_01,5,118,0,6,7,library_30,1,memory-2step-stake-s,517,1286999,0.0-18.0-0.0-0.18,4440,5,6
19,3,object_08,object_02,701.0,5,2,441.0,0.6666666666666666,1,object_01,1,124,0,6,9,library_28,1,memory-2step-stake-s,518,1295264,0.0-18.0-0.0-0.19,4440,6,5
20,4,object_10,object_04,-1.0,-1,-1,-1.0,0.0,-,,5,124,0,5,9,restaurant_8,1,memory-2step-stake-s,519,1301772,0.0-18.0-0.0-0.20,4440,7,8
21,3,object_08,object_02,614.0,6,1,467.0,0.5555555555555556,2,object_09,5,149,0,3,5,library_26,1,memory-2step-stake-s,520,1309963,0.0-18.0-0.0-0.21,4440,6,5
22,3,object_02,object_08,796.0,5,1,612.0,0.0,1,object_01,5,149,0,0,5,library_20,1,memory-2step-stake-s,521,1317790,0.0-18.0-0.0-0.22,4440,5,6
23,3,object_08,object_02,832.0,5,2,431.0,0.1111111111111111,1,object_01,5,154,0,1,4,library_16,1,memory-2step-stake-s,522,1325537,0.0-18.0-0.0-0.23,4440,6,5
24,1,object_06,object_07,853.0,2,2,938.0,0.4444444444444444,2,object_09,1,158,0,2,4,desert_11,1,memory-2step-stake-s,523,1334090,0.0-18.0-0.0-0.24,4440,1,2
25,3,object_08,object_02,858.0,5,2,716.0,0.5555555555555556,1,object_01,5,183,0,5,5,library_1,1,memory-2step-stake-s,524,1342531,0.0-18.0-0.0-0.25,4440,6,5
26,2,object_03,object_05,539.0,4,1,555.0,0.7777777777777778,2,object_09,1,190,0,7,7,forest_1,1,memory-2step-stake-s,525,1351009,0.0-18.0-0.0-0.26,4440,4,3
27,3,object_02,object_08,714.0,5,1,659.0,0.7777777777777778,1,object_01,5,225,0,7,6,library_17,1,memory-2step-stake-s,526,1359593,0.0-18.0-0.0-0.27,4440,5,6
28,4,object_10,object_04,875.0,8,2,536.0,0.4444444444444444,2,object_09,5,245,0,5,4,restaurant_29,1,memory-2step-stake-s,527,1367752,0.0-18.0-0.0-0.28,4440,7,8
29,1,object_06,object_07,710.0,2,2,597.0,0.7777777777777778,2,object_09,1,252,0,4,7,desert_7,1,memory-2step-stake-s,528,1376273,0.0-18.0-0.0-0.29,4440,1,2
30,4,object_10,object_04,447.0,7,1,603.0,0.0,1,object_01,5,252,0,0,6,restaurant_19,1,memory-2step-stake-s,529,1384092,0.0-18.0-0.0-0.30,4440,7,8
31,4,object_10,object_04,542.0,8,2,451.0,0.7777777777777778,2,object_09,5,287,0,1,7,restaurant_3,1,memory-2step-stake-s,530,1392466,0.0-18.0-0.0-0.31,4440,7,8
32,4,object_04,object_10,819.0,8,1,386.0,1.0,2,object_09,5,332,0,1,9,restaurant_14,1,memory-2step-stake-s,531,1400993,0.0-18.0-0.0-0.32,4440,8,7
33,3,object_08,object_02,807.0,5,2,687.0,0.1111111111111111,1,object_01,5,337,0,1,9,library_25,1,memory-2step-stake-s,532,1409002,0.0-18.0-0.0-0.33,4440,6,5
34,2,object_03,object_05,1104.0,4,1,691.0,0.8888888888888888,2,object_09,1,345,0,2,8,forest_12,1,memory-2step-stake-s,533,1417722,0.0-18.0-0.0-0.34,4440,4,3
35,1,object_06,object_07,585.0,1,1,626.0,0.1111111111111111,1,object_01,5,350,0,1,9,desert_3,1,memory-2step-stake-s,534,1425665,0.0-18.0-0.0-0.35,4440,1,2
36,4,object_10,object_04,397.0,8,2,394.0,0.7777777777777778,2,object_09,5,385,0,3,7,restaurant_26,1,memory-2step-stake-s,535,1433986,0.0-18.0-0.0-0.36,4440,7,8
37,1,object_07,object_06,663.0,2,1,594.0,0.6666666666666666,2,object_09,1,391,0,4,6,desert_24,1,memory-2step-stake-s,536,1442406,0.0-18.0-0.0-0.37,4440,2,1
38,2,object_03,object_05,749.0,3,2,650.0,0.8888888888888888,1,object_01,5,431,0,8,6,forest_14,1,memory-2step-stake-s,537,1451084,0.0-18.0-0.0-0.38,4440,4,3
39,1,object_06,object_07,662.0,1,1,619.0,0.4444444444444444,1,object_01,1,435,0,4,6,desert_18,1,memory-2step-stake-s,538,1459326,0.0-18.0-0.0-0.39,4440,1,2
40,4,object_04,object_10,615.0,8,1,603.0,0.5555555555555556,2,object_09,5,460,0,3,5,restaurant_1,1,memory-2step-stake-s,539,1467654,0.0-18.0-0.0-0.40,4440,8,7
41,2,object_03,object_05,635.0,3,2,401.0,0.1111111111111111,1,object_01,1,461,0,1,7,forest_14,1,memory-2step-stake-s,540,1475370,0.0-18.0-0.0-0.41,4440,4,3
42,3,object_08,object_02,1217.0,5,2,373.0,0.2222222222222222,1,object_01,5,471,0,2,7,library_26,1,memory-2step-stake-s,541,1483160,0.0-18.0-0.0-0.42,4440,6,5
43,4,object_10,object_04,1003.0,8,2,389.0,0.7777777777777778,2,object_09,1,478,0,3,7,restaurant_23,1,memory-2step-stake-s,542,1491472,0.0-18.0-0.0-0.43,4440,7,8
44,1,object_07,object_06,1232.0,1,2,507.0,0.4444444444444444,1,object_01,5,498,0,4,9,desert_2,1,memory-2step-stake-s,543,1499601,0.0-18.0-0.0-0.44,4440,2,1
45,3,object_08,object_02,548.0,6,1,516.0,0.5555555555555556,2,object_09,1,503,0,1,5,library_5,1,memory-2step-stake-s,544,1507842,0.0-18.0-0.0-0.45,4440,6,5
46,3,object_02,object_08,815.0,6,2,387.0,0.6666666666666666,2,object_09,5,533,0,0,6,library_8,1,memory-2step-stake-s,545,1516053,0.0-18.0-0.0-0.46,4440,5,6
47,3,object_02,object_08,463.0,6,2,616.0,0.4444444444444444,2,object_09,5,553,0,2,4,library_18,1,memory-2step-stake-s,546,1524291,0.0-18.0-0.0-0.47,4440,5,6
48,2,object_03,object_05,780.0,4,1,578.0,0.4444444444444444,2,object_09,1,557,0,1,4,forest_17,1,memory-2step-stake-s,547,1532488,0.0-18.0-0.0-0.48,4440,4,3
49,1,object_06,object_07,1183.0,2,2,535.0,0.5555555555555556,2,object_09,1,562,0,1,5,desert_23,1,memory-2step-stake-s,548,1540744,0.0-18.0-0.0-0.49,4440,1,2
50,1,object_06,object_07,1030.0,1,1,656.0,0.5555555555555556,1,object_01,1,567,0,5,5,desert_9,1,memory-2step-stake-s,549,1549124,0.0-18.0-0.0-0.50,4440,1,2
51,2,object_05,object_03,941.0,4,2,1147.0,1.0,2,object_09,1,576,0,4,9,forest_29,1,memory-2step-stake-s,550,1558399,0.0-18.0-0.0-0.51,4440,3,4
52,4,object_10,object_04,610.0,7,1,663.0,0.2222222222222222,1,object_01,5,586,0,2,8,restaurant_30,1,memory-2step-stake-s,551,1566479,0.0-18.0-0.0-0.52,4440,7,8
53,2,object_03,object_05,557.0,3,2,350.0,0.1111111111111111,1,object_01,1,587,0,1,6,forest_22,1,memory-2step-stake-s,552,1574148,0.0-18.0-0.0-0.53,4440,4,3
54,1,object_07,object_06,1250.0,1,2,421.0,0.1111111111111111,1,object_01,1,588,0,1,6,desert_17,1,memory-2step-stake-s,553,1581885,0.0-18.0-0.0-0.54,4440,2,1
55,3,object_02,object_08,966.0,6,2,383.0,0.8888888888888888,2,object_09,1,596,0,1,8,library_1,1,memory-2step-stake-s,554,1590292,0.0-18.0-0.0-0.55,4440,5,6
56,4,object_04,object_10,1028.0,8,1,464.0,0.8888888888888888,2,object_09,1,604,0,1,8,restaurant_8,1,memory-2step-stake-s,555,1598783,0.0-18.0-0.0-0.56,4440,8,7
57,2,object_05,object_03,899.0,4,2,477.0,0.8888888888888888,2,object_09,1,612,0,1,8,forest_29,1,memory-2step-stake-s,556,1607284,0.0-18.0-0.0-0.57,4440,3,4
58,1,object_06,object_07,1337.0,2,2,1112.0,0.2222222222222222,2,object_09,1,614,0,0,2,desert_18,1,memory-2step-stake-s,557,1615818,0.0-18.0-0.0-0.58,4440,1,2
59,2,object_03,object_05,738.0,4,1,475.0,0.0,2,object_09,1,614,0,2,0,forest_5,1,memory-2step-stake-s,558,1623509,0.0-18.0-0.0-0.59,4440,4,3
60,1,object_07,object_06,786.0,1,2,547.0,0.1111111111111111,1,object_01,5,619,0,1,2,desert_28,1,memory-2step-stake-s,559,1631373,0.0-18.0-0.0-0.60,4440,2,1
61,2,object_03,object_05,794.0,3,2,793.0,0.1111111111111111,1,object_01,1,620,0,1,1,forest_31,1,memory-2step-stake-s,560,1639482,0.0-18.0-0.0-0.61,4440,4,3
62,3,object_08,object_02,456.0,6,1,485.0,0.1111111111111111,2,object_09,5,625,0,1,1,library_17,1,memory-2step-stake-s,561,1647341,0.0-18.0-0.0-0.62,4440,6,5
63,4,object_04,object_10,625.0,7,2,420.0,0.1111111111111111,1,object_01,5,630,0,1,0,restaurant_22,1,memory-2step-stake-s,562,1655078,0.0-18.0-0.0-0.63,4440,8,7
64,4,object_04,object_10,962.0,8,1,354.0,0.1111111111111111,2,object_09,5,635,0,3,1,restaurant_8,1,memory-2step-stake-s,563,1662746,0.0-18.0-0.0-0.64,4440,8,7
65,3,object_02,object_08,555.0,6,2,369.0,0.4444444444444444,2,object_09,5,655,0,3,4,library_2,1,memory-2step-stake-s,564,1670734,0.0-18.0-0.0-0.65,4440,5,6
66,2,object_05,object_03,886.0,4,2,387.0,0.1111111111111111,2,object_09,1,656,0,4,1,forest_6,1,memory-2step-stake-s,565,1678438,0.0-18.0-0.0-0.66,4440,3,4
67,2,object_03,object_05,912.0,3,2,365.0,0.4444444444444444,1,object_01,1,660,0,4,2,forest_12,1,memory-2step-stake-s,566,1686423,0.0-18.0-0.0-0.67,4440,4,3
68,3,object_02,object_08,419.0,5,1,397.0,0.6666666666666666,1,object_01,5,690,0,6,2,library_25,1,memory-2step-stake-s,567,1694641,0.0-18.0-0.0-0.68,4440,5,6
69,3,object_08,object_02,469.0,5,2,-1.0,0.0,1,object_01,5,690,0,6,2,library_18,1,memory-2step-stake-s,568,1703156,0.0-18.0-0.0-0.69,4440,6,5
70,1,object_06,object_07,695.0,1,1,373.0,1.0,1,object_01,1,699,0,9,1,desert_3,1,memory-2step-stake-s,569,1711656,0.0-18.0-0.0-0.70,4440,1,2
71,4,object_04,object_10,798.0,7,2,354.0,0.8888888888888888,1,object_01,5,739,0,8,1,restaurant_2,1,memory-2step-stake-s,570,1720035,0.0-18.0-0.0-0.71,4440,8,7
72,3,object_08,object_02,864.0,5,2,319.0,1.0,1,object_01,5,784,0,9,0,library_19,1,memory-2step-stake-s,571,1728482,0.0-18.0-0.0-0.72,4440,6,5
73,2,object_03,object_05,817.0,3,2,419.0,0.8888888888888888,1,object_01,1,792,0,8,2,forest_11,1,memory-2step-stake-s,572,1736927,0.0-18.0-0.0-0.73,4440,4,3
74,2,object_03,object_05,575.0,3,2,218.0,0.8888888888888888,1,object_01,1,800,0,8,2,forest_9,1,memory-2step-stake-s,573,1745170,0.0-18.0-0.0-0.74,4440,4,3
75,3,object_08,object_02,902.0,5,2,638.0,0.8888888888888888,1,object_01,1,808,0,8,5,library_16,1,memory-2step-stake-s,574,1753835,0.0-18.0-0.0-0.75,4440,6,5
76,4,object_10,object_04,680.0,7,1,833.0,0.7777777777777778,1,object_01,5,843,0,7,4,restaurant_7,1,memory-2step-stake-s,575,1762591,0.0-18.0-0.0-0.76,4440,7,8
77,1,object_07,object_06,800.0,1,2,436.0,0.8888888888888888,1,object_01,1,851,0,8,4,desert_3,1,memory-2step-stake-s,576,1771049,0.0-18.0-0.0-0.77,4440,2,1
78,4,object_10,object_04,1361.0,8,2,471.0,0.2222222222222222,2,object_09,5,861,0,7,2,restaurant_2,1,memory-2step-stake-s,577,1778935,0.0-18.0-0.0-0.78,4440,7,8
79,4,object_04,object_10,884.0,7,2,476.0,0.3333333333333333,1,object_01,5,876,0,3,2,restaurant_14,1,memory-2step-stake-s,578,1786927,0.0-18.0-0.0-0.79,4440,8,7
80,2,object_05,object_03,841.0,3,1,408.0,0.4444444444444444,1,object_01,1,880,0,4,2,forest_27,1,memory-2step-stake-s,579,1794959,0.0-18.0-0.0-0.80,4440,3,4
81,1,object_06,object_07,1119.0,1,1,605.0,0.7777777777777778,1,object_01,1,887,0,7,3,desert_29,1,memory-2step-stake-s,580,1803491,0.0-18.0-0.0-0.81,4440,1,2
82,3,object_08,object_02,699.0,5,2,426.0,0.8888888888888888,1,object_01,5,927,0,8,0,library_17,1,memory-2step-stake-s,581,1811947,0.0-18.0-0.0-0.82,4440,6,5
83,1,object_06,object_07,786.0,1,1,583.0,0.8888888888888888,1,object_01,5,967,0,8,1,desert_32,1,memory-2step-stake-s,582,1820556,0.0-18.0-0.0-0.83,4440,1,2
84,1,object_07,object_06,614.0,1,2,416.0,0.5555555555555556,1,object_01,5,992,0,5,2,desert_21,1,memory-2step-stake-s,583,1828695,0.0-18.0-0.0-0.84,4440,2,1
85,3,object_02,object_08,1051.0,5,1,632.0,0.4444444444444444,1,object_01,5,1012,0,4,1,library_25,1,memory-2step-stake-s,584,1836946,0.0-18.0-0.0-0.85,4440,5,6
86,4,object_04,object_10,758.0,7,2,418.0,0.7777777777777778,1,object_01,5,1047,0,7,2,restaurant_30,1,memory-2step-stake-s,585,1845288,0.0-18.0-0.0-0.86,4440,8,7
87,1,object_07,object_06,663.0,1,2,563.0,0.2222222222222222,1,object_01,1,1049,0,2,1,desert_24,1,memory-2step-stake-s,586,1853270,0.0-18.0-0.0-0.87,4440,2,1
88,2,object_03,object_05,789.0,3,2,479.0,0.4444444444444444,1,object_01,1,1053,0,4,1,forest_5,1,memory-2step-stake-s,587,1861371,0.0-18.0-0.0-0.88,4440,4,3
89,2,object_05,object_03,584.0,3,1,387.0,0.6666666666666666,1,object_01,1,1059,0,6,1,forest_17,1,memory-2step-stake-s,588,1869581,0.0-18.0-0.0-0.89,4440,3,4
90,3,object_02,object_08,801.0,5,1,495.0,0.3333333333333333,1,object_01,5,1074,0,3,5,library_12,1,memory-2step-stake-s,589,1877597,0.0-18.0-0.0-0.90,4440,5,6
91,2,object_05,object_03,627.0,3,1,733.0,0.5555555555555556,1,object_01,1,1079,0,5,5,forest_27,1,memory-2step-stake-s,590,1886053,0.0-18.0-0.0-0.91,4440,3,4
92,2,object_05,object_03,612.0,3,1,1007.0,0.3333333333333333,1,object_01,1,1082,0,3,6,forest_1,1,memory-2step-stake-s,591,1894579,0.0-18.0-0.0-0.92,4440,3,4
93,3,object_08,object_02,1189.0,5,2,520.0,0.0,1,object_01,1,1082,0,0,4,library_27,1,memory-2step-stake-s,592,1902314,0.0-18.0-0.0-0.93,4440,6,5
94,2,object_03,object_05,743.0,4,1,468.0,0.4444444444444444,2,object_09,1,1086,0,2,4,forest_12,1,memory-2step-stake-s,593,1910404,0.0-18.0-0.0-0.94,4440,4,3
95,4,object_10,object_04,643.0,8,2,369.0,0.1111111111111111,2,object_09,5,1091,0,6,1,restaurant_3,1,memory-2step-stake-s,594,1918094,0.0-18.0-0.0-0.95,4440,7,8
96,4,object_10,object_04,455.0,8,2,373.0,0.0,2,object_09,5,1091,0,7,0,restaurant_30,1,memory-2step-stake-s,595,1925683,0.0-18.0-0.0-0.96,4440,7,8
97,3,object_08,object_02,432.0,6,1,360.0,0.0,2,object_09,5,1091,0,7,0,library_8,1,memory-2step-stake-s,596,1933256,0.0-18.0-0.0-0.97,4440,6,5
98,3,object_08,object_02,697.0,5,2,571.0,0.7777777777777778,1,object_01,5,1126,0,7,1,library_12,1,memory-2step-stake-s,597,1941749,0.0-18.0-0.0-0.98,4440,6,5
99,2,object_03,object_05,678.0,3,2,620.0,0.5555555555555556,1,object_01,1,1131,0,5,3,forest_27,1,memory-2step-stake-s,598,1950089,0.0-18.0-0.0-0.99,4440,4,3
100,2,object_05,object_03,731.0,3,1,556.0,0.5555555555555556,1,object_01,1,1136,0,5,2,forest_4,1,memory-2step-stake-s,599,1958371,0.0-18.0-0.0-0.100,4440,3,4
101,3,object_02,object_08,1216.0,5,1,867.0,0.5555555555555556,1,object_01,5,1161,0,5,3,library_12,1,memory-2step-stake-s,600,1966962,0.0-18.0-0.0-0.101,4440,5,6
102,1,object_07,object_06,546.0,1,2,433.0,0.2222222222222222,1,object_01,1,1163,0,2,3,desert_21,1,memory-2step-stake-s,601,1974810,0.0-18.0-0.0-0.102,4440,2,1
103,1,object_07,object_06,496.0,1,2,418.0,0.6666666666666666,1,object_01,1,1169,0,6,2,desert_9,1,memory-2step-stake-s,602,1983050,0.0-18.0-0.0-0.103,4440,2,1
104,4,object_04,object_10,742.0,7,2,419.0,0.7777777777777778,1,object_01,5,1204,0,7,6,restaurant_26,1,memory-2step-stake-s,603,1991397,0.0-18.0-0.0-0.104,4440,8,7
105,2,object_05,object_03,675.0,3,1,526.0,0.5555555555555556,1,object_01,1,1209,0,5,8,forest_27,1,memory-2step-stake-s,604,1999645,0.0-18.0-0.0-0.105,4440,3,4
106,1,object_07,object_06,660.0,1,2,941.0,0.7777777777777778,1,object_01,5,1244,0,7,7,desert_6,1,memory-2step-stake-s,605,2008511,0.0-18.0-0.0-0.106,4440,2,1
107,1,object_07,object_06,489.0,1,2,855.0,0.7777777777777778,1,object_01,1,1251,0,7,6,desert_28,1,memory-2step-stake-s,606,2017289,0.0-18.0-0.0-0.107,4440,2,1
108,2,object_05,object_03,660.0,3,1,644.0,0.4444444444444444,1,object_01,1,1255,0,4,8,forest_10,1,memory-2step-stake-s,607,2025558,0.0-18.0-0.0-0.108,4440,3,4
109,1,object_06,object_07,718.0,1,1,537.0,0.5555555555555556,1,object_01,5,1280,0,5,8,desert_10,1,memory-2step-stake-s,608,2033819,0.0-18.0-0.0-0.109,4440,1,2
110,1,object_07,object_06,569.0,1,2,401.0,0.6666666666666666,1,object_01,5,1310,0,6,8,desert_11,1,memory-2step-stake-s,609,2042044,0.0-18.0-0.0-0.110,4440,2,1
111,4,object_04,object_10,843.0,7,2,526.0,0.7777777777777778,1,object_01,5,1345,0,7,8,restaurant_19,1,memory-2step-stake-s,610,2050492,0.0-18.0-0.0-0.111,4440,8,7
112,3,object_02,object_08,801.0,5,1,501.0,0.7777777777777778,1,object_01,1,1352,0,7,8,library_16,1,memory-2step-stake-s,611,2058917,0.0-18.0-0.0-0.112,4440,5,6
113,3,object_02,object_08,790.0,5,1,469.0,1.0,1,object_01,5,1397,0,9,6,library_19,1,memory-2step-stake-s,612,2067519,0.0-18.0-0.0-0.113,4440,5,6
114,1,object_07,object_06,811.0,1,2,680.0,0.6666666666666666,1,object_01,1,1403,0,6,4,desert_6,1,memory-2step-stake-s,613,2076024,0.0-18.0-0.0-0.114,4440,2,1
115,1,object_06,object_07,650.0,1,1,958.0,0.6666666666666666,1,object_01,1,1409,0,6,2,desert_10,1,memory-2step-stake-s,614,2084805,0.0-18.0-0.0-0.115,4440,1,2
116,3,object_08,object_02,803.0,5,2,369.0,0.7777777777777778,1,object_01,1,1416,0,7,2,library_5,1,memory-2step-stake-s,615,2093098,0.0-18.0-0.0-0.116,4440,6,5
117,1,object_07,object_06,635.0,1,2,434.0,0.6666666666666666,1,object_01,5,1446,0,6,4,desert_17,1,memory-2step-stake-s,616,2101358,0.0-18.0-0.0-0.117,4440,2,1
118,1,object_07,object_06,584.0,1,2,366.0,0.5555555555555556,1,object_01,1,1451,0,5,4,desert_12,1,memory-2step-stake-s,617,2109447,0.0-18.0-0.0-0.118,4440,2,1
119,1,object_06,object_07,673.0,1,1,382.0,1.0,1,object_01,1,1460,0,9,3,desert_10,1,memory-2step-stake-s,618,2117956,0.0-18.0-0.0-0.119,4440,1,2
120,1,object_07,object_06,693.0,1,2,392.0,0.7777777777777778,1,object_01,1,1467,0,7,5,desert_18,1,memory-2step-stake-s,619,2126269,0.0-18.0-0.0-0.120,4440,2,1
121,3,object_02,object_08,487.0,5,1,392.0,0.8888888888888888,1,object_01,5,1507,0,8,7,library_16,1,memory-2step-stake-s,620,2134692,0.0-18.0-0.0-0.121,4440,5,6
122,2,object_03,object_05,743.0,3,2,489.0,0.3333333333333333,1,object_01,1,1510,0,3,7,forest_10,1,memory-2step-stake-s,621,2142700,0.0-18.0-0.0-0.122,4440,4,3
123,3,object_02,object_08,701.0,5,1,650.0,0.4444444444444444,1,object_01,5,1530,0,4,7,library_21,1,memory-2step-stake-s,622,2150969,0.0-18.0-0.0-0.123,4440,5,6
124,2,object_03,object_05,608.0,3,2,408.0,0.4444444444444444,1,object_01,1,1534,0,4,8,forest_32,1,memory-2step-stake-s,623,2158997,0.0-18.0-0.0-0.124,4440,4,3
125,3,object_08,object_02,779.0,5,2,464.0,0.4444444444444444,1,object_01,5,1554,0,4,7,library_27,1,memory-2step-stake-s,624,2167082,0.0-18.0-0.0-0.125,4440,6,5
126,4,object_10,object_04,739.0,7,1,380.0,0.3333333333333333,1,object_01,1,1557,0,3,6,restaurant_8,1,memory-2step-stake-s,625,2174981,0.0-18.0-0.0-0.126,4440,7,8
127,4,object_10,object_04,791.0,7,1,509.0,0.8888888888888888,1,object_01,5,1597,0,8,4,restaurant_29,1,memory-2step-stake-s,626,2183518,0.0-18.0-0.0-0.127,4440,7,8
128,3,object_08,object_02,963.0,5,2,391.0,0.8888888888888888,1,object_01,5,1637,0,8,5,library_26,1,memory-2step-stake-s,628,2443959,0.0-18.0-0.1-0.128,4440,6,5
129,3,object_08,object_02,554.0,5,2,427.0,0.6666666666666666,1,object_01,5,1667,0,6,4,library_28,1,memory-2step-stake-s,629,2452209,0.0-18.0-0.1-0.129,4440,6,5
130,1,object_07,object_06,669.0,1,2,448.0,0.8888888888888888,1,object_01,1,1675,0,8,6,desert_21,1,memory-2step-stake-s,630,2460678,0.0-18.0-0.1-0.130,4440,2,1
131,4,object_10,object_04,1037.0,7,1,414.0,0.8888888888888888,1,object_01,5,1715,0,8,7,restaurant_24,1,memory-2step-stake-s,631,2469118,0.0-18.0-0.1-0.131,4440,7,8
132,4,object_04,object_10,719.0,7,2,410.0,0.6666666666666666,1,object_01,1,1721,0,6,5,restaurant_22,1,memory-2step-stake-s,632,2477353,0.0-18.0-0.1-0.132,4440,8,7
133,1,object_06,object_07,618.0,1,1,425.0,0.5555555555555556,1,object_01,1,1726,0,5,4,desert_2,1,memory-2step-stake-s,633,2485500,0.0-18.0-0.1-0.133,4440,1,2
134,2,object_05,object_03,934.0,3,1,469.0,0.4444444444444444,1,object_01,1,1730,0,4,3,forest_1,1,memory-2step-stake-s,634,2493587,0.0-18.0-0.1-0.134,4440,3,4
135,4,object_04,object_10,725.0,7,2,455.0,0.1111111111111111,1,object_01,1,1731,0,1,7,restaurant_5,1,memory-2step-stake-s,635,2501358,0.0-18.0-0.1-0.135,4440,8,7
136,3,object_02,object_08,653.0,5,1,401.0,0.2222222222222222,1,object_01,5,1741,0,2,9,library_21,1,memory-2step-stake-s,636,2509176,0.0-18.0-0.1-0.136,4440,5,6
137,3,object_08,object_02,544.0,5,2,751.0,0.0,1,object_01,5,1741,0,0,8,library_2,1,memory-2step-stake-s,637,2517142,0.0-18.0-0.1-0.137,4440,6,5
138,2,object_03,object_05,550.0,4,1,501.0,0.8888888888888888,2,object_09,1,1749,0,3,8,forest_17,1,memory-2step-stake-s,638,2525667,0.0-18.0-0.1-0.138,4440,4,3
139,1,object_07,object_06,530.0,2,1,413.0,0.6666666666666666,2,object_09,1,1755,0,4,6,desert_17,1,memory-2step-stake-s,639,2533901,0.0-18.0-0.1-0.139,4440,2,1
140,2,object_05,object_03,955.0,3,1,673.0,0.4444444444444444,1,object_01,5,1775,0,4,7,forest_22,1,memory-2step-stake-s,640,2542193,0.0-18.0-0.1-0.140,4440,3,4
141,1,object_07,object_06,678.0,2,1,457.0,0.7777777777777778,2,object_09,1,1782,0,2,7,desert_6,1,memory-2step-stake-s,641,2550577,0.0-18.0-0.1-0.141,4440,2,1
142,4,object_10,object_04,564.0,8,2,427.0,0.6666666666666666,2,object_09,5,1812,0,0,6,restaurant_19,1,memory-2step-stake-s,642,2558829,0.0-18.0-0.1-0.142,4440,7,8
143,4,object_04,object_10,507.0,8,1,505.0,0.6666666666666666,2,object_09,5,1842,0,1,6,restaurant_5,1,memory-2step-stake-s,643,2567153,0.0-18.0-0.1-0.143,4440,8,7
144,1,object_06,object_07,1130.0,2,2,470.0,0.7777777777777778,2,object_09,5,1877,0,1,7,desert_10,1,memory-2step-stake-s,644,2575548,0.0-18.0-0.1-0.144,4440,1,2
145,1,object_06,object_07,634.0,2,2,355.0,0.8888888888888888,2,object_09,1,1885,0,1,8,desert_32,1,memory-2step-stake-s,645,2583927,0.0-18.0-0.1-0.145,4440,1,2
146,1,object_06,object_07,620.0,2,2,-1.0,0.0,2,object_09,1,1885,0,2,7,desert_2,1,memory-2step-stake-s,646,2592442,0.0-18.0-0.1-0.146,4440,1,2
147,4,object_10,object_04,524.0,8,2,557.0,0.4444444444444444,2,object_09,5,1905,0,3,4,restaurant_29,1,memory-2step-stake-s,647,2600617,0.0-18.0-0.1-0.147,4440,7,8
148,2,object_05,object_03,1059.0,4,2,350.0,0.1111111111111111,2,object_09,1,1906,0,5,1,forest_21,1,memory-2step-stake-s,648,2608282,0.0-18.0-0.1-0.148,4440,3,4
149,3,object_02,object_08,806.0,5,1,407.0,0.4444444444444444,1,object_01,5,1926,0,4,1,library_20,1,memory-2step-stake-s,649,2616311,0.0-18.0-0.1-0.149,4440,5,6
150,4,object_10,object_04,773.0,7,1,294.0,0.7777777777777778,1,object_01,5,1961,0,7,2,restaurant_24,1,memory-2step-stake-s,650,2624530,0.0-18.0-0.1-0.150,4440,7,8
151,1,object_06,object_07,522.0,1,1,490.0,0.8888888888888888,1,object_01,5,2001,0,8,1,desert_24,1,memory-2step-stake-s,651,2633045,0.0-18.0-0.1-0.151,4440,1,2
152,1,object_07,object_06,1085.0,1,2,375.0,0.8888888888888888,1,object_01,1,2009,0,8,1,desert_11,1,memory-2step-stake-s,652,2641446,0.0-18.0-0.1-0.152,4440,2,1
153,1,object_06,object_07,855.0,1,1,456.0,0.5555555555555556,1,object_01,1,2014,0,5,1,desert_29,1,memory-2step-stake-s,653,2649627,0.0-18.0-0.1-0.153,4440,1,2
154,2,object_05,object_03,1008.0,4,2,401.0,0.0,2,object_09,1,2014,0,4,0,forest_31,1,memory-2step-stake-s,654,2657244,0.0-18.0-0.1-0.154,4440,3,4
155,3,object_08,object_02,932.0,5,2,328.0,0.0,1,object_01,5,2014,0,0,0,library_30,1,memory-2step-stake-s,655,2664787,0.0-18.0-0.1-0.155,4440,6,5
156,1,object_06,object_07,698.0,1,1,362.0,0.1111111111111111,1,object_01,1,2015,0,1,2,desert_9,1,memory-2step-stake-s,656,2672465,0.0-18.0-0.1-0.156,4440,1,2
157,3,object_02,object_08,836.0,6,2,315.0,0.5555555555555556,2,object_09,5,2040,0,2,5,library_28,1,memory-2step-stake-s,657,2680499,0.0-18.0-0.1-0.157,4440,5,6
158,2,object_03,object_05,632.0,4,1,508.0,0.3333333333333333,2,object_09,1,2043,0,1,3,forest_4,1,memory-2step-stake-s,658,2688527,0.0-18.0-0.1-0.158,4440,4,3
159,3,object_08,object_02,711.0,5,2,489.0,0.0,1,object_01,5,2043,0,0,7,library_21,1,memory-2step-stake-s,659,2696230,0.0-18.0-0.1-0.159,4440,6,5
160,2,object_03,object_05,834.0,4,1,379.0,0.7777777777777778,2,object_09,1,2050,0,1,7,forest_10,1,memory-2step-stake-s,660,2704531,0.0-18.0-0.1-0.160,4440,4,3
161,4,object_10,object_04,837.0,8,2,439.0,0.7777777777777778,2,object_09,5,2085,0,0,7,restaurant_14,1,memory-2step-stake-s,661,2712892,0.0-18.0-0.1-0.161,4440,7,8
162,2,object_03,object_05,750.0,4,1,942.0,0.7777777777777778,2,object_09,1,2092,0,3,7,forest_21,1,memory-2step-stake-s,662,2721757,0.0-18.0-0.1-0.162,4440,4,3
163,4,object_04,object_10,600.0,8,1,405.0,0.5555555555555556,2,object_09,5,2117,0,3,5,restaurant_5,1,memory-2step-stake-s,663,2729884,0.0-18.0-0.1-0.163,4440,8,7
164,4,object_10,object_04,489.0,8,2,678.0,0.4444444444444444,2,object_09,5,2137,0,2,4,restaurant_7,1,memory-2step-stake-s,664,2738185,0.0-18.0-0.1-0.164,4440,7,8
165,3,object_08,object_02,1354.0,6,1,585.0,0.5555555555555556,2,object_09,5,2162,0,2,5,library_2,1,memory-2step-stake-s,665,2746493,0.0-18.0-0.1-0.165,4440,6,5
166,1,object_06,object_07,759.0,1,1,515.0,0.4444444444444444,1,object_01,1,2166,0,4,3,desert_7,1,memory-2step-stake-s,666,2754629,0.0-18.0-0.1-0.166,4440,1,2
167,3,object_02,object_08,935.0,6,2,398.0,0.4444444444444444,2,object_09,1,2170,0,5,4,library_18,1,memory-2step-stake-s,667,2762648,0.0-18.0-0.1-0.167,4440,5,6
168,3,object_08,object_02,1357.0,6,1,530.0,0.7777777777777778,2,object_09,5,2205,0,4,7,library_30,1,memory-2step-stake-s,668,2771104,0.0-18.0-0.1-0.168,4440,6,5
169,2,object_03,object_05,850.0,4,1,500.0,0.7777777777777778,2,object_09,1,2212,0,5,7,forest_14,1,memory-2step-stake-s,669,2779529,0.0-18.0-0.1-0.169,4440,4,3
170,1,object_06,object_07,817.0,2,2,448.0,0.8888888888888888,2,object_09,1,2220,0,5,8,desert_28,1,memory-2step-stake-s,670,2788002,0.0-18.0-0.1-0.170,4440,1,2
171,2,object_05,object_03,1073.0,4,2,416.0,0.7777777777777778,2,object_09,1,2227,0,7,7,forest_11,1,memory-2step-stake-s,671,2796347,0.0-18.0-0.1-0.171,4440,3,4
172,4,object_10,object_04,542.0,8,2,510.0,0.6666666666666666,2,object_09,5,2257,0,7,6,restaurant_4,1,memory-2step-stake-s,672,2804680,0.0-18.0-0.1-0.172,4440,7,8
173,3,object_08,object_02,1447.0,6,1,432.0,0.8888888888888888,2,object_09,5,2297,0,6,8,library_27,1,memory-2step-stake-s,673,2813138,0.0-18.0-0.1-0.173,4440,6,5
174,2,object_05,object_03,892.0,4,2,396.0,0.7777777777777778,2,object_09,1,2304,0,3,7,forest_9,1,memory-2step-stake-s,674,2821459,0.0-18.0-0.1-0.174,4440,3,4
175,4,object_04,object_10,619.0,8,1,397.0,0.6666666666666666,2,object_09,1,2310,0,1,6,restaurant_2,1,memory-2step-stake-s,675,2829683,0.0-18.0-0.1-0.175,4440,8,7
176,2,object_03,object_05,699.0,4,1,434.0,0.6666666666666666,2,object_09,1,2316,0,1,6,forest_21,1,memory-2step-stake-s,676,2837941,0.0-18.0-0.1-0.176,4440,4,3
177,1,object_07,object_06,1114.0,2,1,342.0,0.7777777777777778,2,object_09,1,2323,0,0,7,desert_21,1,memory-2step-stake-s,677,2846207,0.0-18.0-0.1-0.177,4440,2,1
178,2,object_03,object_05,756.0,4,1,454.0,0.5555555555555556,2,object_09,5,2348,0,4,5,forest_6,1,memory-2step-stake-s,678,2854382,0.0-18.0-0.1-0.178,4440,4,3
179,4,object_10,object_04,1426.0,8,2,534.0,0.5555555555555556,2,object_09,5,2373,0,3,5,restaurant_23,1,memory-2step-stake-s,679,2862640,0.0-18.0-0.1-0.179,4440,7,8
180,4,object_10,object_04,792.0,8,2,554.0,0.3333333333333333,2,object_09,5,2388,0,5,3,restaurant_4,1,memory-2step-stake-s,680,2870726,0.0-18.0-0.1-0.180,4440,7,8
181,4,object_10,object_04,1169.0,7,1,481.0,0.3333333333333333,1,object_01,5,2403,0,3,2,restaurant_22,1,memory-2step-stake-s,681,2878741,0.0-18.0-0.1-0.181,4440,7,8
182,3,object_02,object_08,1075.0,5,1,317.0,0.0,1,object_01,1,2403,0,0,1,library_18,1,memory-2step-stake-s,682,2886281,0.0-18.0-0.1-0.182,4440,5,6
183,4,object_04,object_10,583.0,8,1,419.0,0.0,2,object_09,5,2403,0,0,0,restaurant_7,1,memory-2step-stake-s,683,2893919,0.0-18.0-0.1-0.183,4440,8,7
184,2,object_05,object_03,888.0,4,2,470.0,0.0,2,object_09,1,2403,0,2,0,forest_31,1,memory-2step-stake-s,684,2901612,0.0-18.0-0.1-0.184,4440,3,4
185,1,object_06,object_07,885.0,1,1,602.0,0.0,1,object_01,1,2403,0,0,1,desert_12,1,memory-2step-stake-s,685,2909430,0.0-18.0-0.1-0.185,4440,1,2
186,3,object_02,object_08,714.0,5,1,432.0,0.3333333333333333,1,object_01,5,2418,0,3,0,library_30,1,memory-2step-stake-s,686,2917383,0.0-18.0-0.1-0.186,4440,5,6
187,4,object_10,object_04,629.0,8,2,230.0,0.3333333333333333,2,object_09,5,2433,0,3,3,restaurant_29,1,memory-2step-stake-s,687,2925133,0.0-18.0-0.1-0.187,4440,7,8
188,3,object_02,object_08,1325.0,6,2,413.0,0.5555555555555556,2,object_09,5,2458,0,1,5,library_2,1,memory-2step-stake-s,688,2933268,0.0-18.0-0.1-0.188,4440,5,6
189,3,object_02,object_08,1342.0,6,2,375.0,0.3333333333333333,2,object_09,1,2461,0,3,3,library_27,1,memory-2step-stake-s,689,2941164,0.0-18.0-0.1-0.189,4440,5,6
190,3,object_02,object_08,677.0,5,1,461.0,0.1111111111111111,1,object_01,5,2466,0,1,1,library_12,1,memory-2step-stake-s,690,2948941,0.0-18.0-0.1-0.190,4440,5,6
191,1,object_06,object_07,616.0,1,1,356.0,0.4444444444444444,1,object_01,1,2470,0,4,4,desert_17,1,memory-2step-stake-s,691,2956919,0.0-18.0-0.1-0.191,4440,1,2
192,1,object_06,object_07,642.0,1,1,459.0,0.3333333333333333,1,object_01,1,2473,0,3,6,desert_29,1,memory-2step-stake-s,692,2964901,0.0-18.0-0.1-0.192,4440,1,2
193,4,object_04,object_10,-1.0,-1,-1,-1.0,0.0,-,,5,2473,0,2,5,restaurant_21,1,memory-2step-stake-s,693,2971411,0.0-18.0-0.1-0.193,4440,8,7
194,1,object_07,object_06,418.0,2,1,427.0,0.3333333333333333,2,object_09,1,2476,0,1,3,desert_23,1,memory-2step-stake-s,694,2979356,0.0-18.0-0.1-0.194,4440,2,1
195,4,object_10,object_04,717.0,8,2,406.0,0.2222222222222222,2,object_09,1,2478,0,1,2,restaurant_1,1,memory-2step-stake-s,695,2987183,0.0-18.0-0.1-0.195,4440,7,8
196,1,object_06,object_07,1343.0,1,1,375.0,0.1111111111111111,1,object_01,1,2479,0,1,5,desert_7,1,memory-2step-stake-s,696,2994874,0.0-18.0-0.1-0.196,4440,1,2
197,4,object_04,object_10,681.0,7,2,426.0,0.2222222222222222,1,object_01,5,2489,0,2,5,restaurant_14,1,memory-2step-stake-s,697,3002717,0.0-18.0-0.1-0.197,4440,8,7
198,1,object_07,object_06,658.0,2,1,448.0,0.5555555555555556,2,object_09,1,2494,0,1,5,desert_2,1,memory-2step-stake-s,698,3010885,0.0-18.0-0.1-0.198,4440,2,1
199,2,object_03,object_05,688.0,3,2,422.0,0.2222222222222222,1,object_01,1,2496,0,2,7,forest_32,1,memory-2step-stake-s,699,3018723,0.0-18.0-0.1-0.199,4440,4,3
200,3,object_08,object_02,899.0,6,1,634.0,1.0,2,object_09,5,2541,0,1,9,library_17,1,memory-2step-stake-s,700,3027489,0.0-18.0-0.1-0.200,4440,6,5
201,2,object_03,object_05,1458.0,4,1,479.0,0.8888888888888888,2,object_09,1,2549,0,2,8,forest_4,1,memory-2step-stake-s,701,3035993,0.0-18.0-0.1-0.201,4440,4,3
202,3,object_08,object_02,-1.0,-1,-1,-1.0,0.0,-,,5,2549,0,2,5,library_19,1,memory-2step-stake-s,702,3042503,0.0-18.0-0.1-0.202,4440,6,5
203,2,object_03,object_05,557.0,4,1,491.0,0.7777777777777778,2,object_09,5,2584,0,1,7,forest_12,1,memory-2step-stake-s,703,3050917,0.0-18.0-0.1-0.203,4440,4,3
204,3,object_02,object_08,694.0,6,2,514.0,0.7777777777777778,2,object_09,5,2619,0,0,7,library_21,1,memory-2step-stake-s,704,3059355,0.0-18.0-0.1-0.204,4440,5,6
205,4,object_04,object_10,628.0,8,1,341.0,0.8888888888888888,2,object_09,1,2627,0,2,8,restaurant_23,1,memory-2step-stake-s,705,3067724,0.0-18.0-0.1-0.205,4440,8,7
206,2,object_03,object_05,603.0,4,1,529.0,0.7777777777777778,2,object_09,1,2634,0,1,7,forest_21,1,memory-2step-stake-s,706,3076176,0.0-18.0-0.1-0.206,4440,4,3
207,2,object_03,object_05,474.0,4,1,548.0,1.0,2,object_09,5,2679,0,0,9,forest_9,1,memory-2step-stake-s,707,3084850,0.0-18.0-0.1-0.207,4440,4,3
208,1,object_07,object_06,782.0,1,2,358.0,0.2222222222222222,1,object_01,5,2689,0,2,7,desert_12,1,memory-2step-stake-s,708,3092626,0.0-18.0-0.1-0.208,4440,2,1
209,3,object_02,object_08,644.0,6,2,381.0,0.8888888888888888,2,object_09,5,2729,0,4,8,library_5,1,memory-2step-stake-s,709,3101029,0.0-18.0-0.1-0.209,4440,5,6
210,1,object_06,object_07,657.0,1,1,-1.0,0.0,1,object_01,1,2729,0,5,9,desert_9,1,memory-2step-stake-s,710,3109544,0.0-18.0-0.1-0.210,4440,1,2
211,3,object_08,object_02,702.0,6,1,468.0,0.4444444444444444,2,object_09,5,2749,0,7,4,library_26,1,memory-2step-stake-s,711,3117631,0.0-18.0-0.1-0.211,4440,6,5
212,2,object_05,object_03,592.0,4,2,360.0,0.4444444444444444,2,object_09,1,2753,0,7,4,forest_29,1,memory-2step-stake-s,712,3125614,0.0-18.0-0.1-0.212,4440,3,4
213,1,object_07,object_06,-1.0,-1,-1,-1.0,0.0,-,,1,2753,0,7,4,desert_32,1,memory-2step-stake-s,713,3132125,0.0-18.0-0.1-0.213,4440,2,1
214,2,object_05,object_03,692.0,4,2,369.0,0.7777777777777778,2,object_09,1,2760,0,7,7,forest_9,1,memory-2step-stake-s,714,3140420,0.0-18.0-0.1-0.214,4440,3,4
215,1,object_07,object_06,857.0,2,1,341.0,0.6666666666666666,2,object_09,1,2766,0,7,6,desert_24,1,memory-2step-stake-s,715,3148581,0.0-18.0-0.1-0.215,4440,2,1
216,3,object_02,object_08,698.0,6,2,368.0,0.8888888888888888,2,object_09,1,2774,0,5,8,library_1,1,memory-2step-stake-s,716,3156980,0.0-18.0-0.1-0.216,4440,5,6
217,2,object_03,object_05,763.0,4,1,336.0,0.4444444444444444,2,object_09,1,2778,0,8,4,forest_11,1,memory-2step-stake-s,717,3164936,0.0-18.0-0.1-0.217,4440,4,3
218,1,object_07,object_06,580.0,2,1,420.0,0.1111111111111111,2,object_09,1,2779,0,6,1,desert_29,1,memory-2step-stake-s,718,3172672,0.0-18.0-0.1-0.218,4440,2,1
219,4,object_10,object_04,726.0,7,1,499.0,0.3333333333333333,1,object_01,5,2794,0,3,0,restaurant_26,1,memory-2step-stake-s,719,3180688,0.0-18.0-0.1-0.219,4440,7,8
220,4,object_10,object_04,546.0,7,1,405.0,0.4444444444444444,1,object_01,5,2814,0,4,4,restaurant_1,1,memory-2step-stake-s,720,3188716,0.0-18.0-0.1-0.220,4440,7,8
221,4,object_10,object_04,628.0,7,1,507.0,0.2222222222222222,1,object_01,5,2824,0,2,2,restaurant_1,1,memory-2step-stake-s,721,3196641,0.0-18.0-0.1-0.221,4440,7,8
222,2,object_03,object_05,1014.0,4,1,362.0,0.1111111111111111,2,object_09,1,2825,0,5,1,forest_31,1,memory-2step-stake-s,722,3204319,0.0-18.0-0.1-0.222,4440,4,3
223,3,object_08,object_02,852.0,6,1,552.0,0.2222222222222222,2,object_09,5,2835,0,7,2,library_1,1,memory-2step-stake-s,723,3212286,0.0-18.0-0.1-0.223,4440,6,5
224,3,object_08,object_02,989.0,5,2,432.0,0.7777777777777778,1,object_01,5,2870,0,7,4,library_25,1,memory-2step-stake-s,724,3220642,0.0-18.0-0.1-0.224,4440,6,5
225,2,object_03,object_05,1391.0,3,2,930.0,0.8888888888888888,1,object_01,1,2878,0,8,0,forest_22,1,memory-2step-stake-s,725,3229601,0.0-18.0-0.1-0.225,4440,4,3
226,4,object_04,object_10,797.0,7,2,388.0,0.8888888888888888,1,object_01,5,2918,0,8,2,restaurant_21,1,memory-2step-stake-s,726,3238015,0.0-18.0-0.1-0.226,4440,8,7
227,2,object_03,object_05,740.0,3,2,420.0,0.7777777777777778,1,object_01,1,2925,0,7,6,forest_32,1,memory-2step-stake-s,727,3246358,0.0-18.0-0.1-0.227,4440,4,3
228,3,object_02,object_08,974.0,5,1,369.0,0.8888888888888888,1,object_01,5,2965,0,8,5,library_19,1,memory-2step-stake-s,728,3254751,0.0-18.0-0.1-0.228,4440,5,6
229,2,object_03,object_05,757.0,3,2,523.0,0.8888888888888888,1,object_01,1,2973,0,8,6,forest_4,1,memory-2step-stake-s,729,3263299,0.0-18.0-0.1-0.229,4440,4,3
230,1,object_06,object_07,673.0,1,1,370.0,0.8888888888888888,1,object_01,1,2981,0,8,4,desert_23,1,memory-2step-stake-s,730,3271698,0.0-18.0-0.1-0.230,4440,1,2
231,1,object_07,object_06,600.0,1,2,567.0,0.7777777777777778,1,object_01,5,3016,0,7,6,desert_12,1,memory-2step-stake-s,731,3280188,0.0-18.0-0.1-0.231,4440,2,1
232,2,object_05,object_03,719.0,3,1,389.0,0.7777777777777778,1,object_01,1,3023,0,7,4,forest_14,1,memory-2step-stake-s,732,3288502,0.0-18.0-0.1-0.232,4440,3,4
233,1,object_07,object_06,648.0,1,2,548.0,0.8888888888888888,1,object_01,1,3031,0,8,3,desert_7,1,memory-2step-stake-s,733,3297076,0.0-18.0-0.1-0.233,4440,2,1
234,4,object_10,object_04,711.0,7,1,431.0,0.8888888888888888,1,object_01,1,3039,0,8,3,restaurant_5,1,memory-2step-stake-s,734,3305534,0.0-18.0-0.1-0.234,4440,7,8
235,1,object_07,object_06,522.0,1,2,570.0,0.4444444444444444,1,object_01,1,3043,0,4,1,desert_11,1,memory-2step-stake-s,735,3313727,0.0-18.0-0.1-0.235,4440,2,1
236,4,object_04,object_10,656.0,7,2,412.0,0.6666666666666666,1,object_01,5,3073,0,6,1,restaurant_4,1,memory-2step-stake-s,736,3321963,0.0-18.0-0.1-0.236,4440,8,7
237,2,object_03,object_05,582.0,3,2,549.0,0.6666666666666666,1,object_01,1,3079,0,6,1,forest_5,1,memory-2step-stake-s,737,3330335,0.0-18.0-0.1-0.237,4440,4,3
238,4,object_04,object_10,632.0,7,2,414.0,0.6666666666666666,1,object_01,5,3109,0,6,2,restaurant_24,1,memory-2step-stake-s,738,3338572,0.0-18.0-0.1-0.238,4440,8,7
239,1,object_07,object_06,600.0,1,2,382.0,0.7777777777777778,1,object_01,1,3116,0,7,1,desert_32,1,memory-2step-stake-s,739,3346876,0.0-18.0-0.1-0.239,4440,2,1
240,4,object_04,object_10,637.0,7,2,430.0,0.7777777777777778,1,object_01,1,3123,0,7,1,restaurant_23,1,memory-2step-stake-s,740,3355236,0.0-18.0-0.1-0.240,4440,8,7
241,4,object_04,object_10,624.0,7,2,428.0,0.7777777777777778,1,object_01,5,3158,0,7,1,restaurant_4,1,memory-2step-stake-s,741,3363591,0.0-18.0-0.1-0.241,4440,8,7
242,2,object_03,object_05,675.0,3,2,400.0,1.0,1,object_01,1,3167,0,9,2,forest_6,1,memory-2step-stake-s,742,3372118,0.0-18.0-0.1-0.242,4440,4,3
243,4,object_04,object_10,-1.0,-1,-1,-1.0,0.0,-,,5,3167,0,9,8,restaurant_30,1,memory-2step-stake-s,743,3378632,0.0-18.0-0.1-0.243,4440,8,7
244,2,object_03,object_05,657.0,3,2,555.0,0.7777777777777778,1,object_01,1,3174,0,7,6,forest_10,1,memory-2step-stake-s,744,3387114,0.0-18.0-0.1-0.244,4440,4,3
245,2,object_03,object_05,556.0,3,2,610.0,0.5555555555555556,1,object_01,1,3179,0,5,5,forest_29,1,memory-2step-stake-s,745,3395446,0.0-18.0-0.1-0.245,4440,4,3
246,1,object_06,object_07,559.0,1,1,967.0,0.1111111111111111,1,object_01,1,3180,0,1,5,desert_18,1,memory-2step-stake-s,746,3403730,0.0-18.0-0.1-0.246,4440,1,2
247,2,object_05,object_03,576.0,4,2,473.0,0.7777777777777778,2,object_09,5,3215,0,2,7,forest_5,1,memory-2step-stake-s,747,3412127,0.0-18.0-0.1-0.247,4440,3,4
248,4,object_10,object_04,674.0,8,2,606.0,0.8888888888888888,2,object_09,5,3255,0,0,8,restaurant_26,1,memory-2step-stake-s,748,3420765,0.0-18.0-0.1-0.248,4440,7,8
249,1,object_06,object_07,750.0,2,2,397.0,0.8888888888888888,2,object_09,1,3263,0,2,8,desert_23,1,memory-2step-stake-s,749,3429186,0.0-18.0-0.1-0.249,4440,1,2
250,1,object_07,object_06,850.0,2,1,526.0,0.6666666666666666,2,object_09,1,3269,0,1,6,desert_3,1,memory-2step-stake-s,750,3437530,0.0-18.0-0.1-0.250,4440,2,1
251,2,object_03,object_05,769.0,4,1,471.0,0.3333333333333333,2,object_09,1,3272,0,1,3,forest_22,1,memory-2step-stake-s,751,3445520,0.0-18.0-0.1-0.251,4440,4,3
252,2,object_03,object_05,1146.0,3,2,350.0,0.1111111111111111,1,object_01,1,3273,0,1,2,forest_6,1,memory-2step-stake-s,752,3453189,0.0-18.0-0.1-0.252,4440,4,3
253,4,object_04,object_10,605.0,8,1,296.0,0.4444444444444444,2,object_09,5,3293,0,3,4,restaurant_22,1,memory-2step-stake-s,753,3461107,0.0-18.0-0.1-0.253,4440,8,7
254,3,object_02,object_08,-1.0,-1,-1,-1.0,0.0,-,,5,3293,0,2,8,library_28,1,memory-2step-stake-s,754,3467617,0.0-18.0-0.1-0.254,4440,5,6
255,2,object_05,object_03,651.0,4,2,347.0,0.6666666666666666,2,object_09,1,3299,0,5,6,forest_11,1,memory-2step-stake-s,755,3475787,0.0-18.0-0.1-0.255,4440,3,4
