,state1,stim_left,stim_right,rt_1,choice1,response1,rt_2,points,state2,stim_state2,stake,score,practice,rews1,rews2,background,high_arm,trial_type,trial_index,time_elapsed,internal_node_id,subid,stim_left_num,stim_right_num
0,3,object_10,object_03,-1.0,-1,-1,-1.0,0.0,-,,5,0,0,4,2,library_30,1,memory-2step-stake-s,490,1157997,0.0-18.0-0.0-0.0,3645,6,5
1,3,object_03,object_10,813.0,5,1,835.0,0.6666666666666666,1,object_02,5,30,0,6,2,library_29,1,memory-2step-stake-s,491,1166662,0.0-18.0-0.0-0.1,3645,5,6
2,1,object_09,object_05,742.0,2,1,-1.0,0.0,2,object_06,1,30,0,5,2,desert_23,1,memory-2step-stake-s,492,1175177,0.0-18.0-0.0-0.2,3645,2,1
3,1,object_09,object_05,492.0,1,2,432.0,0.4444444444444444,1,object_02,1,34,0,4,4,desert_26,1,memory-2step-stake-s,493,1183232,0.0-18.0-0.0-0.3,3645,2,1
4,2,object_07,object_08,808.0,4,1,988.0,0.3333333333333333,2,object_06,1,37,0,5,3,forest_1,1,memory-2step-stake-s,494,1191736,0.0-18.0-0.0-0.4,3645,4,3
5,4,object_04,object_01,778.0,7,2,952.0,0.6666666666666666,1,object_02,5,67,0,6,3,restaurant_7,1,memory-2step-stake-s,495,1200505,0.0-18.0-0.0-0.5,3645,8,7
6,4,object_01,object_04,848.0,8,2,586.0,0.6666666666666666,2,object_06,5,97,0,4,6,restaurant_9,1,memory-2step-stake-s,496,1208899,0.0-18.0-0.0-0.6,3645,7,8
7,2,object_07,object_08,668.0,4,1,818.0,0.6666666666666666,2,object_06,1,103,0,3,6,forest_29,1,memory-2step-stake-s,497,1217530,0.0-18.0-0.0-0.7,3645,4,3
8,4,object_04,object_01,1077.0,7,2,549.0,1.0,1,object_02,5,148,0,9,4,restaurant_18,1,memory-2step-stake-s,498,1226199,0.0-18.0-0.0-0.8,3645,8,7
9,1,object_09,object_05,844.0,2,1,780.0,0.7777777777777778,2,object_06,1,155,0,6,7,desert_7,1,memory-2step-stake-s,499,1234907,0.0-18.0-0.0-0.9,3645,2,1
10,2,object_08,object_07,462.0,3,1,611.0,0.7777777777777778,1,object_02,1,162,0,7,8,forest_31,1,memory-2step-stake-s,500,1243441,0.0-18.0-0.0-0.10,3645,3,4
11,2,object_08,object_07,1160.0,4,2,620.0,1.0,2,object_06,1,171,0,8,9,forest_6,1,memory-2step-stake-s,501,1252185,0.0-18.0-0.0-0.11,3645,3,4
12,1,object_05,object_09,834.0,2,2,456.0,0.8888888888888888,2,object_06,1,179,0,7,8,desert_30,1,memory-2step-stake-s,502,1260664,0.0-18.0-0.0-0.12,3645,1,2
13,2,object_08,object_07,890.0,4,2,526.0,0.6666666666666666,2,object_06,1,185,0,6,6,forest_10,1,memory-2step-stake-s,503,1269014,0.0-18.0-0.0-0.13,3645,3,4
14,2,object_08,object_07,993.0,4,2,480.0,0.6666666666666666,2,object_06,1,191,0,7,6,forest_31,1,memory-2step-stake-s,504,1277319,0.0-18.0-0.0-0.14,3645,3,4
15,2,object_08,object_07,785.0,3,1,434.0,0.6666666666666666,1,object_02,1,197,0,6,5,forest_15,1,memory-2step-stake-s,505,1285578,0.0-18.0-0.0-0.15,3645,3,4
16,1,object_05,object_09,1011.0,2,2,454.0,0.4444444444444444,2,object_06,1,201,0,7,4,desert_19,1,memory-2step-stake-s,506,1293651,0.0-18.0-0.0-0.16,3645,1,2
17,4,object_01,object_04,1308.0,8,2,714.0,0.4444444444444444,2,object_06,5,221,0,7,4,restaurant_14,1,memory-2step-stake-s,507,1301987,0.0-18.0-0.0-0.17,3645,7,8
18,2,object_07,object_08,1009.0,3,2,388.0,0.5555555555555556,1,object_02,1,226,0,5,4,forest_14,1,memory-2step-stake-s,508,1310098,0.0-18.0-0.0-0.18,3645,4,3
19,2,object_07,object_08,863.0,3,2,556.0,0.5555555555555556,1,object_02,1,231,0,5,3,forest_8,1,memory-2step-stake-s,509,1318377,0.0-18.0-0.0-0.19,3645,4,3
20,4,object_01,object_04,1002.0,7,1,768.0,0.4444444444444444,1,object_02,5,251,0,4,4,restaurant_14,1,memory-2step-stake-s,510,1326766,0.0-18.0-0.0-0.20,3645,7,8
21,3,object_03,object_10,757.0,6,2,1006.0,0.5555555555555556,2,object_06,1,256,0,4,5,library_7,1,memory-2step-stake-s,511,1335494,0.0-18.0-0.0-0.21,3645,5,6
22,1,object_05,object_09,893.0,1,1,319.0,0.3333333333333333,1,object_02,1,259,0,3,8,desert_19,1,memory-2step-stake-s,512,1343329,0.0-18.0-0.0-0.22,3645,1,2
23,3,object_10,object_03,1199.0,5,2,739.0,0.5555555555555556,1,object_02,5,284,0,5,5,library_4,1,memory-2step-stake-s,513,1351787,0.0-18.0-0.0-0.23,3645,6,5
24,4,object_01,object_04,1238.0,7,1,847.0,0.4444444444444444,1,object_02,5,304,0,4,4,restaurant_6,1,memory-2step-stake-s,514,1360256,0.0-18.0-0.0-0.24,3645,7,8
25,3,object_03,object_10,1213.0,6,2,464.0,1.0,2,object_06,5,349,0,2,9,library_21,1,memory-2step-stake-s,515,1368847,0.0-18.0-0.0-0.25,3645,5,6
26,2,object_08,object_07,324.0,4,2,732.0,0.7777777777777778,2,object_06,1,356,0,0,7,forest_25,1,memory-2step-stake-s,516,1377498,0.0-18.0-0.0-0.26,3645,3,4
27,4,object_04,object_01,1065.0,7,2,450.0,0.2222222222222222,1,object_02,5,366,0,2,6,restaurant_9,1,memory-2step-stake-s,517,1385366,0.0-18.0-0.0-0.27,3645,8,7
28,4,object_04,object_01,875.0,7,2,599.0,0.7777777777777778,1,object_02,5,401,0,7,6,restaurant_15,1,memory-2step-stake-s,518,1393890,0.0-18.0-0.0-0.28,3645,8,7
29,4,object_01,object_04,927.0,7,1,389.0,0.8888888888888888,1,object_02,1,409,0,8,3,restaurant_23,1,memory-2step-stake-s,519,1402297,0.0-18.0-0.0-0.29,3645,7,8
30,4,object_01,object_04,587.0,7,1,480.0,1.0,1,object_02,5,454,0,9,5,restaurant_9,1,memory-2step-stake-s,520,1410910,0.0-18.0-0.0-0.30,3645,7,8
31,4,object_04,object_01,750.0,7,2,531.0,0.8888888888888888,1,object_02,5,494,0,8,6,restaurant_10,1,memory-2step-stake-s,521,1419468,0.0-18.0-0.0-0.31,3645,8,7
32,3,object_10,object_03,1210.0,6,1,555.0,0.5555555555555556,2,object_06,5,519,0,9,5,library_30,1,memory-2step-stake-s,522,1427742,0.0-18.0-0.0-0.32,3645,6,5
33,2,object_08,object_07,1374.0,3,1,694.0,1.0,1,object_02,1,528,0,9,2,forest_22,1,memory-2step-stake-s,523,1436564,0.0-18.0-0.0-0.33,3645,3,4
34,4,object_01,object_04,615.0,7,1,533.0,0.8888888888888888,1,object_02,5,568,0,8,3,restaurant_18,1,memory-2step-stake-s,524,1445122,0.0-18.0-0.0-0.34,3645,7,8
35,2,object_07,object_08,1344.0,4,1,511.0,0.2222222222222222,2,object_06,1,570,0,8,2,forest_8,1,memory-2step-stake-s,525,1453051,0.0-18.0-0.0-0.35,3645,4,3
36,1,object_05,object_09,1135.0,1,1,670.0,1.0,1,object_02,1,579,0,9,2,desert_1,1,memory-2step-stake-s,526,1461846,0.0-18.0-0.0-0.36,3645,1,2
37,2,object_07,object_08,769.0,3,2,708.0,0.7777777777777778,1,object_02,1,586,0,7,6,forest_22,1,memory-2step-stake-s,527,1470477,0.0-18.0-0.0-0.37,3645,4,3
38,2,object_08,object_07,663.0,3,1,452.0,0.8888888888888888,1,object_02,1,594,0,8,5,forest_22,1,memory-2step-stake-s,528,1478954,0.0-18.0-0.0-0.38,3645,3,4
39,3,object_10,object_03,-1.0,-1,-1,-1.0,0.0,-,,5,594,0,9,8,library_29,1,memory-2step-stake-s,529,1485462,0.0-18.0-0.0-0.39,3645,6,5
40,1,object_05,object_09,867.0,1,1,344.0,0.7777777777777778,1,object_02,5,629,0,7,8,desert_18,1,memory-2step-stake-s,530,1493736,0.0-18.0-0.0-0.40,3645,1,2
41,3,object_03,object_10,705.0,5,1,579.0,1.0,1,object_02,5,674,0,9,8,library_6,1,memory-2step-stake-s,531,1502439,0.0-18.0-0.0-0.41,3645,5,6
42,4,object_01,object_04,703.0,7,1,364.0,0.8888888888888888,1,object_02,5,714,0,8,8,restaurant_3,1,memory-2step-stake-s,532,1510824,0.0-18.0-0.0-0.42,3645,7,8
43,1,object_05,object_09,665.0,2,2,545.0,0.7777777777777778,2,object_06,1,721,0,7,7,desert_23,1,memory-2step-stake-s,533,1519296,0.0-18.0-0.0-0.43,3645,1,2
44,4,object_04,object_01,592.0,7,2,294.0,0.8888888888888888,1,object_02,5,761,0,8,5,restaurant_11,1,memory-2step-stake-s,534,1527622,0.0-18.0-0.0-0.44,3645,8,7
45,3,object_03,object_10,916.0,5,1,891.0,1.0,1,object_02,5,806,0,9,7,library_31,1,memory-2step-stake-s,535,1536636,0.0-18.0-0.0-0.45,3645,5,6
46,2,object_08,object_07,798.0,4,2,562.0,0.4444444444444444,2,object_06,1,810,0,9,4,forest_28,1,memory-2step-stake-s,536,1544816,0.0-18.0-0.0-0.46,3645,3,4
47,2,object_07,object_08,805.0,3,2,625.0,0.7777777777777778,1,object_02,5,845,0,7,6,forest_26,1,memory-2step-stake-s,537,1553366,0.0-18.0-0.0-0.47,3645,4,3
48,3,object_10,object_03,804.0,5,2,299.0,0.4444444444444444,1,object_02,5,865,0,4,3,library_31,1,memory-2step-stake-s,538,1561286,0.0-18.0-0.0-0.48,3645,6,5
49,1,object_09,object_05,666.0,2,1,274.0,0.5555555555555556,2,object_06,1,870,0,2,5,desert_22,1,memory-2step-stake-s,539,1569286,0.0-18.0-0.0-0.49,3645,2,1
50,4,object_04,object_01,1186.0,8,1,458.0,0.5555555555555556,2,object_06,5,895,0,0,5,restaurant_8,1,memory-2step-stake-s,540,1577463,0.0-18.0-0.0-0.50,3645,8,7
51,1,object_09,object_05,691.0,2,1,491.0,0.8888888888888888,2,object_06,1,903,0,4,8,desert_23,1,memory-2step-stake-s,541,1585977,0.0-18.0-0.0-0.51,3645,2,1
52,1,object_09,object_05,716.0,2,1,501.0,0.6666666666666666,2,object_06,1,909,0,1,6,desert_31,1,memory-2step-stake-s,542,1594301,0.0-18.0-0.0-0.52,3645,2,1
53,4,object_04,object_01,685.0,8,1,459.0,0.7777777777777778,2,object_06,5,944,0,0,7,restaurant_3,1,memory-2step-stake-s,543,1602682,0.0-18.0-0.0-0.53,3645,8,7
54,4,object_04,object_01,658.0,8,1,342.0,0.5555555555555556,2,object_06,5,969,0,3,5,restaurant_2,1,memory-2step-stake-s,544,1610745,0.0-18.0-0.0-0.54,3645,8,7
55,1,object_05,object_09,709.0,1,1,665.0,0.5555555555555556,1,object_02,1,974,0,5,7,desert_31,1,memory-2step-stake-s,545,1619129,0.0-18.0-0.0-0.55,3645,1,2
56,1,object_05,object_09,988.0,1,1,493.0,0.5555555555555556,1,object_02,1,979,0,5,6,desert_27,1,memory-2step-stake-s,546,1627339,0.0-18.0-0.0-0.56,3645,1,2
57,4,object_01,object_04,894.0,8,2,303.0,0.7777777777777778,2,object_06,5,1014,0,5,7,restaurant_21,1,memory-2step-stake-s,547,1635566,0.0-18.0-0.0-0.57,3645,7,8
58,2,object_08,object_07,737.0,3,1,297.0,0.5555555555555556,1,object_02,5,1039,0,5,8,forest_10,1,memory-2step-stake-s,548,1643582,0.0-18.0-0.0-0.58,3645,3,4
59,2,object_07,object_08,966.0,3,2,559.0,0.4444444444444444,1,object_02,1,1043,0,4,8,forest_9,1,memory-2step-stake-s,549,1651760,0.0-18.0-0.0-0.59,3645,4,3
60,1,object_05,object_09,816.0,2,2,632.0,0.8888888888888888,2,object_06,1,1051,0,0,8,desert_26,1,memory-2step-stake-s,550,1660419,0.0-18.0-0.0-0.60,3645,1,2
61,4,object_01,object_04,873.0,8,2,275.0,0.8888888888888888,2,object_06,5,1091,0,2,8,restaurant_31,1,memory-2step-stake-s,551,1668719,0.0-18.0-0.0-0.61,3645,7,8
62,1,object_05,object_09,803.0,1,1,299.0,0.5555555555555556,1,object_02,1,1096,0,5,8,desert_30,1,memory-2step-stake-s,552,1676735,0.0-18.0-0.0-0.62,3645,1,2
63,4,object_01,object_04,1188.0,8,2,469.0,1.0,2,object_06,1,1105,0,4,9,restaurant_3,1,memory-2step-stake-s,553,1685329,0.0-18.0-0.0-0.63,3645,7,8
64,3,object_10,object_03,1117.0,6,1,357.0,1.0,2,object_06,5,1150,0,2,9,library_24,1,memory-2step-stake-s,554,1693812,0.0-18.0-0.0-0.64,3645,6,5
65,3,object_10,object_03,1069.0,5,2,505.0,0.2222222222222222,1,object_02,5,1160,0,2,7,library_27,1,memory-2step-stake-s,555,1701734,0.0-18.0-0.0-0.65,3645,6,5
66,3,object_03,object_10,984.0,5,1,312.0,0.1111111111111111,1,object_02,5,1165,0,1,7,library_6,1,memory-2step-stake-s,556,1709364,0.0-18.0-0.0-0.66,3645,5,6
67,4,object_01,object_04,905.0,8,2,272.0,1.0,2,object_06,1,1174,0,1,9,restaurant_11,1,memory-2step-stake-s,557,1717762,0.0-18.0-0.0-0.67,3645,7,8
68,1,object_09,object_05,1338.0,2,1,433.0,0.8888888888888888,2,object_06,1,1182,0,2,8,desert_22,1,memory-2step-stake-s,558,1726218,0.0-18.0-0.0-0.68,3645,2,1
69,2,object_08,object_07,926.0,4,2,385.0,0.7777777777777778,2,object_06,1,1189,0,1,7,forest_8,1,memory-2step-stake-s,559,1734528,0.0-18.0-0.0-0.69,3645,3,4
70,2,object_08,object_07,554.0,4,2,455.0,0.8888888888888888,2,object_06,1,1197,0,2,8,forest_25,1,memory-2step-stake-s,560,1743008,0.0-18.0-0.0-0.70,3645,3,4
71,1,object_05,object_09,695.0,1,1,622.0,0.1111111111111111,1,object_02,1,1198,0,1,7,desert_10,1,memory-2step-stake-s,561,1750944,0.0-18.0-0.0-0.71,3645,1,2
72,3,object_03,object_10,818.0,6,2,392.0,0.7777777777777778,2,object_06,1,1205,0,4,7,library_11,1,memory-2step-stake-s,562,1759259,0.0-18.0-0.0-0.72,3645,5,6
73,3,object_03,object_10,650.0,6,2,334.0,0.8888888888888888,2,object_06,1,1213,0,3,8,library_8,1,memory-2step-stake-s,563,1767619,0.0-18.0-0.0-0.73,3645,5,6
74,2,object_07,object_08,1142.0,4,1,651.0,0.5555555555555556,2,object_06,1,1218,0,3,5,forest_18,1,memory-2step-stake-s,564,1775990,0.0-18.0-0.0-0.74,3645,4,3
75,2,object_08,object_07,674.0,4,2,480.0,0.7777777777777778,2,object_06,1,1225,0,4,7,forest_27,1,memory-2step-stake-s,565,1784393,0.0-18.0-0.0-0.75,3645,3,4
76,2,object_08,object_07,601.0,4,2,553.0,0.6666666666666666,2,object_06,1,1231,0,3,6,forest_10,1,memory-2step-stake-s,566,1792768,0.0-18.0-0.0-0.76,3645,3,4
77,2,object_08,object_07,752.0,3,1,423.0,0.3333333333333333,1,object_02,1,1234,0,3,6,forest_11,1,memory-2step-stake-s,567,1800706,0.0-18.0-0.0-0.77,3645,3,4
78,2,object_07,object_08,684.0,4,1,456.0,0.6666666666666666,2,object_06,1,1240,0,5,6,forest_18,1,memory-2step-stake-s,568,1808984,0.0-18.0-0.0-0.78,3645,4,3
79,1,object_09,object_05,820.0,2,1,437.0,0.7777777777777778,2,object_06,1,1247,0,4,7,desert_27,1,memory-2step-stake-s,569,1817345,0.0-18.0-0.0-0.79,3645,2,1
80,3,object_03,object_10,992.0,6,2,312.0,0.7777777777777778,2,object_06,5,1282,0,3,7,library_27,1,memory-2step-stake-s,570,1825582,0.0-18.0-0.0-0.80,3645,5,6
81,4,object_01,object_04,1197.0,8,2,473.0,0.8888888888888888,2,object_06,5,1322,0,7,8,restaurant_16,1,memory-2step-stake-s,571,1834077,0.0-18.0-0.0-0.81,3645,7,8
82,3,object_10,object_03,604.0,6,1,200.0,0.6666666666666666,2,object_06,5,1352,0,7,6,library_17,1,memory-2step-stake-s,572,1842101,0.0-18.0-0.0-0.82,3645,6,5
83,1,object_09,object_05,766.0,2,1,449.0,0.4444444444444444,2,object_06,1,1356,0,8,4,desert_19,1,memory-2step-stake-s,573,1850168,0.0-18.0-0.0-0.83,3645,2,1
84,4,object_01,object_04,668.0,7,1,287.0,0.7777777777777778,1,object_02,1,1363,0,7,3,restaurant_18,1,memory-2step-stake-s,574,1858376,0.0-18.0-0.0-0.84,3645,7,8
85,2,object_08,object_07,802.0,3,1,569.0,0.5555555555555556,1,object_02,1,1368,0,5,6,forest_10,1,memory-2step-stake-s,575,1866667,0.0-18.0-0.0-0.85,3645,3,4
86,2,object_08,object_07,632.0,4,2,347.0,0.6666666666666666,2,object_06,1,1374,0,8,6,forest_18,1,memory-2step-stake-s,576,1874837,0.0-18.0-0.0-0.86,3645,3,4
87,1,object_05,object_09,724.0,2,2,306.0,0.8888888888888888,2,object_06,1,1382,0,6,8,desert_26,1,memory-2step-stake-s,577,1883165,0.0-18.0-0.0-0.87,3645,1,2
88,4,object_01,object_04,988.0,8,2,332.0,0.8888888888888888,2,object_06,5,1422,0,7,8,restaurant_7,1,memory-2step-stake-s,578,1891521,0.0-18.0-0.0-0.88,3645,7,8
89,3,object_03,object_10,542.0,6,2,363.0,0.7777777777777778,2,object_06,5,1457,0,9,7,library_24,1,memory-2step-stake-s,579,1899809,0.0-18.0-0.0-0.89,3645,5,6
90,4,object_04,object_01,870.0,8,1,270.0,0.6666666666666666,2,object_06,5,1487,0,9,6,restaurant_15,1,memory-2step-stake-s,580,1907902,0.0-18.0-0.0-0.90,3645,8,7
91,2,object_08,object_07,856.0,4,2,489.0,0.8888888888888888,2,object_06,1,1495,0,7,8,forest_29,1,memory-2step-stake-s,581,1916414,0.0-18.0-0.0-0.91,3645,3,4
92,4,object_01,object_04,815.0,8,2,351.0,0.7777777777777778,2,object_06,5,1530,0,7,7,restaurant_11,1,memory-2step-stake-s,582,1924687,0.0-18.0-0.0-0.92,3645,7,8
93,2,object_08,object_07,745.0,4,2,343.0,0.7777777777777778,2,object_06,1,1537,0,3,7,forest_1,1,memory-2step-stake-s,583,1932953,0.0-18.0-0.0-0.93,3645,3,4
94,4,object_01,object_04,639.0,8,2,574.0,0.8888888888888888,2,object_06,5,1577,0,3,8,restaurant_20,1,memory-2step-stake-s,584,1941574,0.0-18.0-0.0-0.94,3645,7,8
95,3,object_03,object_10,726.0,6,2,-1.0,0.0,2,object_06,5,1577,0,1,9,library_2,1,memory-2step-stake-s,585,1950089,0.0-18.0-0.0-0.95,3645,5,6
96,2,object_08,object_07,873.0,4,2,419.0,0.8888888888888888,2,object_06,1,1585,0,0,8,forest_1,1,memory-2step-stake-s,586,1958535,0.0-18.0-0.0-0.96,3645,3,4
97,3,object_10,object_03,634.0,6,1,286.0,0.8888888888888888,2,object_06,5,1625,0,0,8,library_32,1,memory-2step-stake-s,587,1966845,0.0-18.0-0.0-0.97,3645,6,5
98,3,object_10,object_03,501.0,6,1,786.0,0.4444444444444444,2,object_06,5,1645,0,3,4,library_7,1,memory-2step-stake-s,588,1975250,0.0-18.0-0.0-0.98,3645,6,5
99,2,object_07,object_08,984.0,4,1,305.0,1.0,2,object_06,1,1654,0,3,9,forest_9,1,memory-2step-stake-s,589,1983688,0.0-18.0-0.0-0.99,3645,4,3
100,3,object_03,object_10,703.0,6,2,408.0,0.7777777777777778,2,object_06,5,1689,0,5,7,library_18,1,memory-2step-stake-s,590,1992020,0.0-18.0-0.0-0.100,3645,5,6
101,2,object_07,object_08,909.0,4,1,573.0,0.7777777777777778,2,object_06,1,1696,0,5,7,forest_6,1,memory-2step-stake-s,591,2000515,0.0-18.0-0.0-0.101,3645,4,3
102,1,object_09,object_05,749.0,2,1,411.0,0.7777777777777778,2,object_06,1,1703,0,6,7,desert_2,1,memory-2step-stake-s,592,2008848,0.0-18.0-0.0-0.102,3645,2,1
103,3,object_10,object_03,693.0,6,1,242.0,0.7777777777777778,2,object_06,5,1738,0,5,7,library_17,1,memory-2step-stake-s,593,2017015,0.0-18.0-0.0-0.103,3645,6,5
104,1,object_05,object_09,729.0,1,1,231.0,0.6666666666666666,1,object_02,1,1744,0,6,6,desert_24,1,memory-2step-stake-s,594,2025066,0.0-18.0-0.0-0.104,3645,1,2
105,1,object_05,object_09,621.0,1,1,72.0,0.3333333333333333,1,object_02,1,1747,0,3,6,desert_19,1,memory-2step-stake-s,595,2032657,0.0-18.0-0.0-0.105,3645,1,2
106,2,object_08,object_07,845.0,4,2,466.0,0.5555555555555556,2,object_06,1,1752,0,3,5,forest_26,1,memory-2step-stake-s,596,2040843,0.0-18.0-0.0-0.106,3645,3,4
107,1,object_09,object_05,621.0,2,1,314.0,0.4444444444444444,2,object_06,1,1756,0,1,4,desert_27,1,memory-2step-stake-s,597,2048774,0.0-18.0-0.0-0.107,3645,2,1
108,1,object_09,object_05,622.0,1,2,267.0,0.1111111111111111,1,object_02,1,1757,0,1,4,desert_25,1,memory-2step-stake-s,598,2056355,0.0-18.0-0.0-0.108,3645,2,1
109,1,object_09,object_05,480.0,2,1,353.0,0.4444444444444444,2,object_06,1,1761,0,0,4,desert_18,1,memory-2step-stake-s,599,2064326,0.0-18.0-0.0-0.109,3645,2,1
110,1,object_09,object_05,479.0,2,1,303.0,0.7777777777777778,2,object_06,1,1768,0,4,7,desert_18,1,memory-2step-stake-s,600,2072550,0.0-18.0-0.0-0.110,3645,2,1
111,1,object_09,object_05,514.0,2,1,962.0,0.7777777777777778,2,object_06,1,1775,0,7,7,desert_24,1,memory-2step-stake-s,601,2081437,0.0-18.0-0.0-0.111,3645,2,1
112,1,object_09,object_05,483.0,2,1,-1.0,0.0,2,object_06,1,1775,0,7,5,desert_25,1,memory-2step-stake-s,602,2089950,0.0-18.0-0.0-0.112,3645,2,1
113,4,object_04,object_01,1131.0,7,2,329.0,0.8888888888888888,1,object_02,5,1815,0,8,4,restaurant_20,1,memory-2step-stake-s,603,2098303,0.0-18.0-0.0-0.113,3645,8,7
114,3,object_03,object_10,815.0,5,1,406.0,0.6666666666666666,1,object_02,5,1845,0,6,1,library_18,1,memory-2step-stake-s,604,2106528,0.0-18.0-0.0-0.114,3645,5,6
115,3,object_10,object_03,786.0,5,2,347.0,0.4444444444444444,1,object_02,5,1865,0,4,2,library_7,1,memory-2step-stake-s,605,2114495,0.0-18.0-0.0-0.115,3645,6,5
116,3,object_10,object_03,696.0,6,1,317.0,0.5555555555555556,2,object_06,5,1890,0,4,5,library_18,1,memory-2step-stake-s,606,2122531,0.0-18.0-0.0-0.116,3645,6,5
117,1,object_09,object_05,587.0,2,1,474.0,0.6666666666666666,2,object_06,1,1896,0,4,6,desert_30,1,memory-2step-stake-s,607,2130828,0.0-18.0-0.0-0.117,3645,2,1
118,3,object_10,object_03,757.0,6,1,430.0,0.4444444444444444,2,object_06,5,1916,0,4,4,library_31,1,memory-2step-stake-s,608,2138877,0.0-18.0-0.0-0.118,3645,6,5
119,2,object_07,object_08,1221.0,3,2,436.0,0.6666666666666666,1,object_02,1,1922,0,6,3,forest_26,1,memory-2step-stake-s,609,2147132,0.0-18.0-0.0-0.119,3645,4,3
120,1,object_09,object_05,690.0,1,2,29.0,0.5555555555555556,1,object_02,1,1927,0,5,1,desert_7,1,memory-2step-stake-s,610,2154879,0.0-18.0-0.0-0.120,3645,2,1
121,1,object_05,object_09,599.0,2,2,276.0,0.2222222222222222,2,object_06,5,1937,0,4,2,desert_25,1,memory-2step-stake-s,611,2162574,0.0-18.0-0.0-0.121,3645,1,2
122,4,object_04,object_01,1364.0,7,2,401.0,0.2222222222222222,1,object_02,5,1947,0,2,4,restaurant_10,1,memory-2step-stake-s,612,2170391,0.0-18.0-0.0-0.122,3645,8,7
123,4,object_04,object_01,987.0,8,1,377.0,0.4444444444444444,2,object_06,5,1967,0,3,4,restaurant_16,1,memory-2step-stake-s,613,2178384,0.0-18.0-0.0-0.123,3645,8,7
124,4,object_04,object_01,652.0,8,1,277.0,0.4444444444444444,2,object_06,5,1987,0,1,4,restaurant_14,1,memory-2step-stake-s,614,2186279,0.0-18.0-0.0-0.124,3645,8,7
125,4,object_04,object_01,664.0,7,2,735.0,0.1111111111111111,1,object_02,5,1992,0,1,6,restaurant_14,1,memory-2step-stake-s,615,2194330,0.0-18.0-0.0-0.125,3645,8,7
126,1,object_05,object_09,813.0,2,2,302.0,0.4444444444444444,2,object_06,1,1996,0,3,4,desert_10,1,memory-2step-stake-s,616,2202251,0.0-18.0-0.0-0.126,3645,1,2
127,4,object_01,object_04,734.0,8,2,353.0,0.7777777777777778,2,object_06,5,2031,0,4,7,restaurant_31,1,memory-2step-stake-s,617,2210526,0.0-18.0-0.0-0.127,3645,7,8
128,4,object_01,object_04,1285.0,8,2,441.0,0.8888888888888888,2,object_06,5,2071,0,4,8,restaurant_20,1,memory-2step-stake-s,619,3060058,0.0-18.0-0.1-0.128,3645,7,8
129,4,object_01,object_04,625.0,8,2,294.0,0.5555555555555556,2,object_06,5,2096,0,4,5,restaurant_23,1,memory-2step-stake-s,620,3068074,0.0-18.0-0.1-0.129,3645,7,8
130,4,object_04,object_01,647.0,8,1,134.0,0.6666666666666666,2,object_06,1,2102,0,5,6,restaurant_18,1,memory-2step-stake-s,621,3076032,0.0-18.0-0.1-0.130,3645,8,7
131,1,object_05,object_09,597.0,2,2,1462.0,0.7777777777777778,2,object_06,1,2109,0,6,7,desert_10,1,memory-2step-stake-s,622,3085419,0.0-18.0-0.1-0.131,3645,1,2
132,3,object_03,object_10,1037.0,6,2,344.0,0.4444444444444444,2,object_06,5,2129,0,5,4,library_21,1,memory-2step-stake-s,623,3093382,0.0-18.0-0.1-0.132,3645,5,6
133,1,object_09,object_05,643.0,1,2,52.0,0.5555555555555556,1,object_02,5,2154,0,5,4,desert_10,1,memory-2step-stake-s,624,3101159,0.0-18.0-0.1-0.133,3645,2,1
134,4,object_01,object_04,729.0,7,1,166.0,0.6666666666666666,1,object_02,5,2184,0,6,5,restaurant_2,1,memory-2step-stake-s,625,3109145,0.0-18.0-0.1-0.134,3645,7,8
135,3,object_10,object_03,630.0,5,2,44.0,1.0,1,object_02,5,2229,0,9,7,library_12,1,memory-2step-stake-s,626,3117316,0.0-18.0-0.1-0.135,3645,6,5
136,3,object_03,object_10,530.0,5,1,329.0,0.7777777777777778,1,object_02,5,2264,0,7,7,library_29,1,memory-2step-stake-s,627,3125565,0.0-18.0-0.1-0.136,3645,5,6
137,4,object_04,object_01,564.0,7,2,410.0,0.4444444444444444,1,object_02,5,2284,0,4,6,restaurant_15,1,memory-2step-stake-s,628,3133592,0.0-18.0-0.1-0.137,3645,8,7
138,2,object_07,object_08,932.0,4,1,279.0,0.6666666666666666,2,object_06,1,2290,0,3,6,forest_28,1,memory-2step-stake-s,629,3141694,0.0-18.0-0.1-0.138,3645,4,3
139,1,object_09,object_05,645.0,2,1,242.0,0.8888888888888888,2,object_06,1,2298,0,6,8,desert_21,1,memory-2step-stake-s,630,3149960,0.0-18.0-0.1-0.139,3645,2,1
140,4,object_04,object_01,1247.0,7,2,689.0,0.7777777777777778,1,object_02,5,2333,0,7,9,restaurant_2,1,memory-2step-stake-s,631,3158573,0.0-18.0-0.1-0.140,3645,8,7
141,1,object_05,object_09,487.0,2,2,419.0,0.8888888888888888,2,object_06,1,2341,0,2,8,desert_27,1,memory-2step-stake-s,632,3167021,0.0-18.0-0.1-0.141,3645,1,2
142,1,object_05,object_09,501.0,2,2,468.0,0.8888888888888888,2,object_06,1,2349,0,5,8,desert_26,1,memory-2step-stake-s,633,3175513,0.0-18.0-0.1-0.142,3645,1,2
143,2,object_07,object_08,1155.0,4,1,344.0,0.7777777777777778,2,object_06,5,2384,0,4,7,forest_28,1,memory-2step-stake-s,634,3183779,0.0-18.0-0.1-0.143,3645,4,3
144,1,object_09,object_05,733.0,2,1,415.0,0.8888888888888888,2,object_06,1,2392,0,0,8,desert_25,1,memory-2step-stake-s,635,3192219,0.0-18.0-0.1-0.144,3645,2,1
145,3,object_10,object_03,734.0,5,2,243.0,0.2222222222222222,1,object_02,5,2402,0,2,9,library_2,1,memory-2step-stake-s,636,3199879,0.0-18.0-0.1-0.145,3645,6,5
146,2,object_08,object_07,1201.0,4,2,329.0,0.7777777777777778,2,object_06,1,2409,0,4,7,forest_25,1,memory-2step-stake-s,637,3208129,0.0-18.0-0.1-0.146,3645,3,4
147,2,object_08,object_07,600.0,4,2,374.0,0.8888888888888888,2,object_06,1,2417,0,3,8,forest_26,1,memory-2step-stake-s,638,3216526,0.0-18.0-0.1-0.147,3645,3,4
148,4,object_01,object_04,-1.0,-1,-1,-1.0,0.0,-,,5,2417,0,5,6,restaurant_15,1,memory-2step-stake-s,639,3223034,0.0-18.0-0.1-0.148,3645,7,8
149,4,object_01,object_04,575.0,8,2,286.0,0.7777777777777778,2,object_06,5,2452,0,4,7,restaurant_21,1,memory-2step-stake-s,640,3231241,0.0-18.0-0.1-0.149,3645,7,8
150,1,object_09,object_05,571.0,2,1,172.0,0.2222222222222222,2,object_06,1,2454,0,5,2,desert_21,1,memory-2step-stake-s,641,3238829,0.0-18.0-0.1-0.150,3645,2,1
151,3,object_03,object_10,709.0,5,1,230.0,0.7777777777777778,1,object_02,5,2489,0,7,3,library_21,1,memory-2step-stake-s,642,3246983,0.0-18.0-0.1-0.151,3645,5,6
152,4,object_04,object_01,819.0,7,2,281.0,0.6666666666666666,1,object_02,5,2519,0,6,3,restaurant_16,1,memory-2step-stake-s,643,3255084,0.0-18.0-0.1-0.152,3645,8,7
153,2,object_08,object_07,811.0,3,1,231.0,0.5555555555555556,1,object_02,1,2524,0,5,4,forest_14,1,memory-2step-stake-s,644,3263036,0.0-18.0-0.1-0.153,3645,3,4
154,1,object_05,object_09,492.0,2,2,418.0,0.3333333333333333,2,object_06,1,2527,0,4,3,desert_21,1,memory-2step-stake-s,645,3270971,0.0-18.0-0.1-0.154,3645,1,2
155,3,object_03,object_10,631.0,5,1,264.0,0.4444444444444444,1,object_02,5,2547,0,4,4,library_24,1,memory-2step-stake-s,646,3278855,0.0-18.0-0.1-0.155,3645,5,6
156,4,object_04,object_01,837.0,8,1,272.0,0.4444444444444444,2,object_06,5,2567,0,2,4,restaurant_23,1,memory-2step-stake-s,647,3286746,0.0-18.0-0.1-0.156,3645,8,7
157,1,object_09,object_05,794.0,1,2,304.0,0.3333333333333333,1,object_02,1,2570,0,3,0,desert_24,1,memory-2step-stake-s,648,3294569,0.0-18.0-0.1-0.157,3645,2,1
158,4,object_01,object_04,823.0,8,2,180.0,0.2222222222222222,2,object_06,5,2580,0,3,2,restaurant_10,1,memory-2step-stake-s,649,3302168,0.0-18.0-0.1-0.158,3645,7,8
159,3,object_03,object_10,825.0,5,1,323.0,0.1111111111111111,1,object_02,5,2585,0,1,1,library_8,1,memory-2step-stake-s,650,3309807,0.0-18.0-0.1-0.159,3645,5,6
160,3,object_03,object_10,759.0,5,1,97.0,0.2222222222222222,1,object_02,5,2595,0,2,3,library_30,1,memory-2step-stake-s,651,3317320,0.0-18.0-0.1-0.160,3645,5,6
161,2,object_07,object_08,716.0,4,1,272.0,0.4444444444444444,2,object_06,5,2615,0,4,4,forest_9,1,memory-2step-stake-s,652,3325213,0.0-18.0-0.1-0.161,3645,4,3
162,3,object_10,object_03,1040.0,6,1,319.0,0.2222222222222222,2,object_06,5,2625,0,2,2,library_17,1,memory-2step-stake-s,653,3332948,0.0-18.0-0.1-0.162,3645,6,5
163,3,object_10,object_03,764.0,5,2,268.0,0.2222222222222222,1,object_02,5,2635,0,2,4,library_30,1,memory-2step-stake-s,654,3340632,0.0-18.0-0.1-0.163,3645,6,5
164,2,object_08,object_07,749.0,3,1,230.0,0.2222222222222222,1,object_02,1,2637,0,2,4,forest_11,1,memory-2step-stake-s,655,3348278,0.0-18.0-0.1-0.164,3645,3,4
165,2,object_07,object_08,663.0,4,1,297.0,0.2222222222222222,2,object_06,1,2639,0,1,2,forest_29,1,memory-2step-stake-s,656,3355990,0.0-18.0-0.1-0.165,3645,4,3
166,1,object_05,object_09,620.0,2,2,106.0,0.3333333333333333,2,object_06,1,2642,0,0,3,desert_9,1,memory-2step-stake-s,657,3363615,0.0-18.0-0.1-0.166,3645,1,2
167,1,object_09,object_05,626.0,1,2,175.0,0.4444444444444444,1,object_02,1,2646,0,4,4,desert_22,1,memory-2step-stake-s,658,3371414,0.0-18.0-0.1-0.167,3645,2,1
168,1,object_05,object_09,497.0,1,1,87.0,0.4444444444444444,1,object_02,1,2650,0,4,5,desert_21,1,memory-2step-stake-s,659,3379122,0.0-18.0-0.1-0.168,3645,1,2
169,3,object_03,object_10,912.0,6,2,288.0,0.1111111111111111,2,object_06,1,2651,0,5,1,library_11,1,memory-2step-stake-s,660,3386726,0.0-18.0-0.1-0.169,3645,5,6
170,3,object_03,object_10,513.0,5,1,377.0,0.5555555555555556,1,object_02,5,2676,0,5,0,library_12,1,memory-2step-stake-s,661,3394824,0.0-18.0-0.1-0.170,3645,5,6
171,4,object_01,object_04,963.0,7,1,324.0,0.7777777777777778,1,object_02,5,2711,0,7,3,restaurant_11,1,memory-2step-stake-s,662,3403072,0.0-18.0-0.1-0.171,3645,7,8
172,2,object_07,object_08,893.0,3,2,382.0,0.8888888888888888,1,object_02,1,2719,0,8,3,forest_8,1,memory-2step-stake-s,663,3411480,0.0-18.0-0.1-0.172,3645,4,3
173,4,object_01,object_04,691.0,7,1,388.0,1.0,1,object_02,1,2728,0,9,8,restaurant_21,1,memory-2step-stake-s,664,3419992,0.0-18.0-0.1-0.173,3645,7,8
174,1,object_09,object_05,713.0,1,2,161.0,0.3333333333333333,1,object_02,1,2731,0,3,7,desert_9,1,memory-2step-stake-s,665,3427672,0.0-18.0-0.1-0.174,3645,2,1
175,4,object_04,object_01,694.0,8,1,301.0,0.6666666666666666,2,object_06,5,2761,0,2,6,restaurant_8,1,memory-2step-stake-s,666,3435795,0.0-18.0-0.1-0.175,3645,8,7
176,3,object_03,object_10,1027.0,6,2,274.0,0.8888888888888888,2,object_06,5,2801,0,0,8,library_18,1,memory-2step-stake-s,667,3444092,0.0-18.0-0.1-0.176,3645,5,6
177,4,object_01,object_04,758.0,7,1,153.0,0.2222222222222222,1,object_02,5,2811,0,2,8,restaurant_8,1,memory-2step-stake-s,668,3451663,0.0-18.0-0.1-0.177,3645,7,8
178,1,object_09,object_05,832.0,1,2,266.0,0.1111111111111111,1,object_02,1,2812,0,1,9,desert_23,1,memory-2step-stake-s,669,3459244,0.0-18.0-0.1-0.178,3645,2,1
179,1,object_09,object_05,621.0,2,1,318.0,0.8888888888888888,2,object_06,1,2820,0,1,8,desert_22,1,memory-2step-stake-s,670,3467589,0.0-18.0-0.1-0.179,3645,2,1
180,3,object_10,object_03,1190.0,6,1,316.0,1.0,2,object_06,5,2865,0,4,9,library_8,1,memory-2step-stake-s,671,3476034,0.0-18.0-0.1-0.180,3645,6,5
181,2,object_07,object_08,650.0,4,1,289.0,0.7777777777777778,2,object_06,1,2872,0,2,7,forest_6,1,memory-2step-stake-s,672,3484245,0.0-18.0-0.1-0.181,3645,4,3
182,4,object_01,object_04,858.0,8,2,183.0,1.0,2,object_06,5,2917,0,1,9,restaurant_7,1,memory-2step-stake-s,673,3492555,0.0-18.0-0.1-0.182,3645,7,8
183,3,object_03,object_10,785.0,6,2,360.0,0.8888888888888888,2,object_06,1,2925,0,3,8,library_4,1,memory-2step-stake-s,674,3500934,0.0-18.0-0.1-0.183,3645,5,6
184,2,object_07,object_08,682.0,4,1,250.0,0.7777777777777778,2,object_06,5,2960,0,1,7,forest_27,1,memory-2step-stake-s,675,3509108,0.0-18.0-0.1-0.184,3645,4,3
185,3,object_03,object_10,757.0,6,2,287.0,0.6666666666666666,2,object_06,5,2990,0,1,6,library_12,1,memory-2step-stake-s,676,3517218,0.0-18.0-0.1-0.185,3645,5,6
186,2,object_08,object_07,797.0,3,1,439.0,0.0,1,object_02,1,2990,0,0,6,forest_27,1,memory-2step-stake-s,677,3524877,0.0-18.0-0.1-0.186,3645,3,4
187,2,object_08,object_07,763.0,4,2,325.0,0.7777777777777778,2,object_06,1,2997,0,0,7,forest_14,1,memory-2step-stake-s,678,3533127,0.0-18.0-0.1-0.187,3645,3,4
188,2,object_08,object_07,697.0,4,2,288.0,0.8888888888888888,2,object_06,5,3037,0,1,8,forest_14,1,memory-2step-stake-s,679,3541436,0.0-18.0-0.1-0.188,3645,3,4
189,4,object_04,object_01,949.0,8,1,290.0,0.7777777777777778,2,object_06,5,3072,0,2,7,restaurant_2,1,memory-2step-stake-s,680,3549647,0.0-18.0-0.1-0.189,3645,8,7
190,3,object_03,object_10,687.0,6,2,236.0,0.6666666666666666,2,object_06,5,3102,0,4,6,library_2,1,memory-2step-stake-s,681,3557703,0.0-18.0-0.1-0.190,3645,5,6
191,4,object_01,object_04,714.0,7,1,374.0,0.2222222222222222,1,object_02,5,3112,0,2,5,restaurant_23,1,memory-2step-stake-s,682,3565492,0.0-18.0-0.1-0.191,3645,7,8
192,2,object_07,object_08,833.0,4,1,308.0,0.5555555555555556,2,object_06,1,3117,0,2,5,forest_31,1,memory-2step-stake-s,683,3573521,0.0-18.0-0.1-0.192,3645,4,3
193,1,object_09,object_05,541.0,2,1,333.0,0.7777777777777778,2,object_06,1,3124,0,3,7,desert_2,1,memory-2step-stake-s,684,3581778,0.0-18.0-0.1-0.193,3645,2,1
194,3,object_03,object_10,713.0,6,2,214.0,0.4444444444444444,2,object_06,5,3144,0,2,4,library_27,1,memory-2step-stake-s,685,3589614,0.0-18.0-0.1-0.194,3645,5,6
195,3,object_10,object_03,617.0,6,1,257.0,0.5555555555555556,2,object_06,5,3169,0,0,5,library_12,1,memory-2step-stake-s,686,3597595,0.0-18.0-0.1-0.195,3645,6,5
196,4,object_04,object_01,737.0,7,2,299.0,0.3333333333333333,1,object_02,5,3184,0,3,6,restaurant_9,1,memory-2step-stake-s,687,3605414,0.0-18.0-0.1-0.196,3645,8,7
197,1,object_09,object_05,609.0,2,1,115.0,0.6666666666666666,2,object_06,1,3190,0,4,6,desert_1,1,memory-2step-stake-s,688,3613351,0.0-18.0-0.1-0.197,3645,2,1
198,3,object_03,object_10,482.0,6,2,317.0,0.7777777777777778,2,object_06,5,3225,0,4,7,library_8,1,memory-2step-stake-s,689,3621591,0.0-18.0-0.1-0.198,3645,5,6
199,4,object_01,object_04,643.0,8,2,398.0,0.4444444444444444,2,object_06,5,3245,0,1,4,restaurant_10,1,memory-2step-stake-s,690,3629612,0.0-18.0-0.1-0.199,3645,7,8
200,2,object_07,object_08,576.0,3,2,7.0,0.1111111111111111,1,object_02,1,3246,0,1,6,forest_11,1,memory-2step-stake-s,691,3636939,0.0-18.0-0.1-0.200,3645,4,3
201,1,object_09,object_05,368.0,2,1,308.0,0.7777777777777778,2,object_06,1,3253,0,1,7,desert_7,1,memory-2step-stake-s,692,3645172,0.0-18.0-0.1-0.201,3645,2,1
202,3,object_10,object_03,465.0,6,1,244.0,0.6666666666666666,2,object_06,5,3283,0,2,6,library_24,1,memory-2step-stake-s,693,3653236,0.0-18.0-0.1-0.202,3645,6,5
203,2,object_08,object_07,468.0,4,2,294.0,0.6666666666666666,2,object_06,5,3313,0,1,6,forest_29,1,memory-2step-stake-s,694,3661353,0.0-18.0-0.1-0.203,3645,3,4
204,2,object_07,object_08,609.0,4,1,290.0,0.4444444444444444,2,object_06,1,3317,0,1,4,forest_31,1,memory-2step-stake-s,695,3669260,0.0-18.0-0.1-0.204,3645,4,3
205,4,object_01,object_04,781.0,8,2,284.0,0.6666666666666666,2,object_06,5,3347,0,1,6,restaurant_3,1,memory-2step-stake-s,696,3677366,0.0-18.0-0.1-0.205,3645,7,8
206,3,object_03,object_10,822.0,5,1,268.0,0.1111111111111111,1,object_02,5,3352,0,1,4,library_11,1,memory-2step-stake-s,697,3684948,0.0-18.0-0.1-0.206,3645,5,6
207,3,object_10,object_03,662.0,5,2,366.0,0.5555555555555556,1,object_02,5,3377,0,5,2,library_6,1,memory-2step-stake-s,698,3693035,0.0-18.0-0.1-0.207,3645,6,5
208,4,object_01,object_04,944.0,7,1,306.0,0.4444444444444444,1,object_02,5,3397,0,4,0,restaurant_21,1,memory-2step-stake-s,699,3700961,0.0-18.0-0.1-0.208,3645,7,8
209,4,object_01,object_04,649.0,8,2,322.0,0.2222222222222222,2,object_06,5,3407,0,7,2,restaurant_8,1,memory-2step-stake-s,700,3708699,0.0-18.0-0.1-0.209,3645,7,8
210,1,object_09,object_05,603.0,1,2,266.0,0.3333333333333333,1,object_02,1,3410,0,3,1,desert_2,1,memory-2step-stake-s,701,3716488,0.0-18.0-0.1-0.210,3645,2,1
211,2,object_07,object_08,707.0,4,1,54.0,0.2222222222222222,2,object_06,1,3412,0,4,2,forest_28,1,memory-2step-stake-s,702,3723959,0.0-18.0-0.1-0.211,3645,4,3
212,3,object_03,object_10,984.0,5,1,389.0,0.3333333333333333,1,object_02,5,3427,0,3,1,library_27,1,memory-2step-stake-s,703,3731867,0.0-18.0-0.1-0.212,3645,5,6
213,2,object_07,object_08,757.0,4,1,23.0,0.2222222222222222,2,object_06,5,3437,0,6,2,forest_15,1,memory-2step-stake-s,704,3739306,0.0-18.0-0.1-0.213,3645,4,3
214,3,object_03,object_10,622.0,5,1,247.0,0.5555555555555556,1,object_02,5,3462,0,5,1,library_6,1,memory-2step-stake-s,705,3747275,0.0-18.0-0.1-0.214,3645,5,6
215,2,object_08,object_07,1233.0,3,1,334.0,0.4444444444444444,1,object_02,1,3466,0,4,0,forest_9,1,memory-2step-stake-s,706,3755231,0.0-18.0-0.1-0.215,3645,3,4
216,3,object_03,object_10,733.0,5,1,322.0,0.3333333333333333,1,object_02,1,3469,0,3,5,library_2,1,memory-2step-stake-s,707,3763076,0.0-18.0-0.1-0.216,3645,5,6
217,1,object_05,object_09,717.0,2,2,506.0,0.8888888888888888,2,object_06,5,3509,0,5,8,desert_31,1,memory-2step-stake-s,708,3771606,0.0-18.0-0.1-0.217,3645,1,2
218,3,object_03,object_10,608.0,6,2,241.0,0.6666666666666666,2,object_06,5,3539,0,6,6,library_32,1,memory-2step-stake-s,709,3779669,0.0-18.0-0.1-0.218,3645,5,6
219,1,object_09,object_05,416.0,2,1,484.0,0.7777777777777778,2,object_06,1,3546,0,9,7,desert_30,1,memory-2step-stake-s,710,3788075,0.0-18.0-0.1-0.219,3645,2,1
220,2,object_07,object_08,967.0,4,1,402.0,0.6666666666666666,2,object_06,1,3552,0,9,6,forest_15,1,memory-2step-stake-s,711,3796301,0.0-18.0-0.1-0.220,3645,4,3
221,3,object_03,object_10,600.0,6,2,238.0,0.7777777777777778,2,object_06,5,3587,0,6,7,library_17,1,memory-2step-stake-s,712,3804465,0.0-18.0-0.1-0.221,3645,5,6
222,3,object_10,object_03,759.0,6,1,246.0,0.6666666666666666,2,object_06,1,3593,0,5,6,library_11,1,memory-2step-stake-s,713,3812531,0.0-18.0-0.1-0.222,3645,6,5
223,3,object_10,object_03,405.0,6,1,263.0,0.5555555555555556,2,object_06,5,3618,0,6,5,library_7,1,memory-2step-stake-s,714,3820518,0.0-18.0-0.1-0.223,3645,6,5
224,1,object_05,object_09,757.0,2,2,243.0,0.6666666666666666,2,object_06,5,3648,0,3,6,desert_31,1,memory-2step-stake-s,715,3828581,0.0-18.0-0.1-0.224,3645,1,2
225,2,object_07,object_08,621.0,4,1,418.0,0.2222222222222222,2,object_06,1,3650,0,1,2,forest_18,1,memory-2step-stake-s,716,3836415,0.0-18.0-0.1-0.225,3645,4,3
226,4,object_04,object_01,940.0,7,2,289.0,0.0,1,object_02,5,3650,0,0,0,restaurant_16,1,memory-2step-stake-s,717,3843918,0.0-18.0-0.1-0.226,3645,8,7
227,2,object_08,object_07,896.0,4,2,355.0,0.4444444444444444,2,object_06,1,3654,0,3,4,forest_6,1,memory-2step-stake-s,718,3851893,0.0-18.0-0.1-0.227,3645,3,4
228,1,object_09,object_05,443.0,2,1,167.0,0.4444444444444444,2,object_06,1,3658,0,6,4,desert_24,1,memory-2step-stake-s,719,3859678,0.0-18.0-0.1-0.228,3645,2,1
229,3,object_10,object_03,646.0,6,1,368.0,0.2222222222222222,2,object_06,5,3668,0,5,2,library_21,1,memory-2step-stake-s,720,3867461,0.0-18.0-0.1-0.229,3645,6,5
230,2,object_07,object_08,1168.0,3,2,289.0,0.4444444444444444,1,object_02,1,3672,0,4,2,forest_1,1,memory-2step-stake-s,721,3875371,0.0-18.0-0.1-0.230,3645,4,3
231,1,object_09,object_05,642.0,1,2,246.0,0.3333333333333333,1,object_02,5,3687,0,3,1,desert_1,1,memory-2step-stake-s,722,3883135,0.0-18.0-0.1-0.231,3645,2,1
232,3,object_03,object_10,713.0,6,2,418.0,0.3333333333333333,2,object_06,5,3702,0,1,3,library_29,1,memory-2step-stake-s,723,3891069,0.0-18.0-0.1-0.232,3645,5,6
233,1,object_05,object_09,672.0,1,1,242.0,0.0,1,object_02,1,3702,0,0,5,desert_1,1,memory-2step-stake-s,724,3898527,0.0-18.0-0.1-0.233,3645,1,2
234,1,object_05,object_09,692.0,2,2,290.0,0.4444444444444444,2,object_06,1,3706,0,1,4,desert_9,1,memory-2step-stake-s,725,3906438,0.0-18.0-0.1-0.234,3645,1,2
235,3,object_03,object_10,562.0,6,2,301.0,0.3333333333333333,2,object_06,5,3721,0,1,3,library_31,1,memory-2step-stake-s,726,3914257,0.0-18.0-0.1-0.235,3645,5,6
236,1,object_05,object_09,612.0,1,1,116.0,0.0,1,object_02,5,3721,0,0,5,desert_9,1,memory-2step-stake-s,727,3921587,0.0-18.0-0.1-0.236,3645,1,2
237,4,object_01,object_04,802.0,8,2,315.0,0.4444444444444444,2,object_06,5,3741,0,5,4,restaurant_31,1,memory-2step-stake-s,728,3929521,0.0-18.0-0.1-0.237,3645,7,8
238,4,object_01,object_04,527.0,8,2,272.0,0.5555555555555556,2,object_06,5,3766,0,3,5,restaurant_20,1,memory-2step-stake-s,729,3937513,0.0-18.0-0.1-0.238,3645,7,8
239,4,object_04,object_01,693.0,8,1,136.0,0.7777777777777778,2,object_06,5,3801,0,2,7,restaurant_6,1,memory-2step-stake-s,730,3945573,0.0-18.0-0.1-0.239,3645,8,7
240,2,object_07,object_08,809.0,4,1,348.0,0.8888888888888888,2,object_06,1,3809,0,3,8,forest_11,1,memory-2step-stake-s,731,3953944,0.0-18.0-0.1-0.240,3645,4,3
241,1,object_09,object_05,642.0,2,1,232.0,0.8888888888888888,2,object_06,5,3849,0,3,8,desert_7,1,memory-2step-stake-s,732,3962201,0.0-18.0-0.1-0.241,3645,2,1
242,2,object_08,object_07,659.0,4,2,271.0,0.8888888888888888,2,object_06,5,3889,0,3,8,forest_22,1,memory-2step-stake-s,733,3970496,0.0-18.0-0.1-0.242,3645,3,4
243,4,object_04,object_01,600.0,8,1,270.0,0.8888888888888888,2,object_06,5,3929,0,4,8,restaurant_31,1,memory-2step-stake-s,734,3978791,0.0-18.0-0.1-0.243,3645,8,7
244,1,object_09,object_05,450.0,2,1,243.0,0.7777777777777778,2,object_06,1,3936,0,1,7,desert_18,1,memory-2step-stake-s,735,3986956,0.0-18.0-0.1-0.244,3645,2,1
245,3,object_03,object_10,805.0,6,2,304.0,0.8888888888888888,2,object_06,5,3976,0,3,8,library_4,1,memory-2step-stake-s,736,3995284,0.0-18.0-0.1-0.245,3645,5,6
246,4,object_04,object_01,647.0,8,1,254.0,0.8888888888888888,2,object_06,5,4016,0,1,8,restaurant_6,1,memory-2step-stake-s,737,4003566,0.0-18.0-0.1-0.246,3645,8,7
247,1,object_05,object_09,556.0,2,2,112.0,0.7777777777777778,2,object_06,1,4023,0,0,7,desert_2,1,memory-2step-stake-s,738,4011599,0.0-18.0-0.1-0.247,3645,1,2
248,4,object_04,object_01,658.0,8,1,288.0,1.0,2,object_06,1,4032,0,1,9,restaurant_7,1,memory-2step-stake-s,739,4020012,0.0-18.0-0.1-0.248,3645,8,7
249,2,object_07,object_08,698.0,4,1,94.0,0.8888888888888888,2,object_06,1,4040,0,0,8,forest_15,1,memory-2step-stake-s,740,4028127,0.0-18.0-0.1-0.249,3645,4,3
250,3,object_10,object_03,567.0,6,1,40.0,0.7777777777777778,2,object_06,1,4047,0,0,7,library_4,1,memory-2step-stake-s,741,4036091,0.0-18.0-0.1-0.250,3645,6,5
251,3,object_03,object_10,613.0,6,2,131.0,0.7777777777777778,2,object_06,5,4082,0,1,7,library_32,1,memory-2step-stake-s,742,4044144,0.0-18.0-0.1-0.251,3645,5,6
252,2,object_08,object_07,552.0,4,2,109.0,0.8888888888888888,2,object_06,5,4122,0,2,8,forest_27,1,memory-2step-stake-s,743,4052276,0.0-18.0-0.1-0.252,3645,3,4
253,3,object_03,object_10,755.0,6,2,323.0,0.8888888888888888,2,object_06,5,4162,0,4,8,library_32,1,memory-2step-stake-s,744,4060623,0.0-18.0-0.1-0.253,3645,5,6
254,2,object_07,object_08,668.0,4,1,465.0,0.8888888888888888,2,object_06,1,4170,0,3,8,forest_25,1,memory-2step-stake-s,745,4069111,0.0-18.0-0.1-0.254,3645,4,3
255,4,object_01,object_04,853.0,8,2,310.0,0.6666666666666666,2,object_06,5,4200,0,2,6,restaurant_6,1,memory-2step-stake-s,746,4077242,0.0-18.0-0.1-0.255,3645,7,8
