,state1,stim_left,stim_right,rt_1,choice1,response1,rt_2,points,state2,stim_state2,stake,score,practice,rews1,rews2,background,high_arm,trial_type,trial_index,time_elapsed,internal_node_id,subid,stim_left_num,stim_right_num
0,1,object_01,object_04,644.17,2,2,-1.0,0.0,2,object_02,5,0,0,2,0,desert_28,2,memory-2step-stake-s,495,8448455,0.0-18.0-0.0-0.0,2188,1,2
1,3,object_09,object_03,566.325,5,1,429.095,0.1111111111111111,1,object_07,1,1,0,1,1,library_1,2,memory-2step-stake-s,496,8456205,0.0-18.0-0.0-0.1,2188,5,6
2,4,object_06,object_08,797.015,8,2,476.485,0.1111111111111111,2,object_02,1,2,0,0,1,restaurant_28,2,memory-2step-stake-s,497,8464000,0.0-18.0-0.0-0.2,2188,7,8
3,2,object_05,object_10,530.355,4,1,424.735,0.1111111111111111,2,object_02,1,3,0,1,1,forest_11,2,memory-2step-stake-s,498,8471741,0.0-18.0-0.0-0.3,2188,4,3
4,1,object_04,object_01,724.69,1,2,442.93,0.3333333333333333,1,object_07,5,18,0,3,2,desert_28,2,memory-2step-stake-s,499,8479701,0.0-18.0-0.0-0.4,2188,2,1
5,1,object_04,object_01,1419.87,1,2,437.475,0.3333333333333333,1,object_07,5,33,0,3,1,desert_30,2,memory-2step-stake-s,500,8487659,0.0-18.0-0.0-0.5,2188,2,1
6,3,object_09,object_03,695.055,5,1,484.06,0.3333333333333333,1,object_07,1,36,0,3,3,library_10,2,memory-2step-stake-s,501,8495663,0.0-18.0-0.0-0.6,2188,5,6
7,3,object_03,object_09,832.505,5,2,333.825,0.3333333333333333,1,object_07,1,39,0,3,5,library_1,2,memory-2step-stake-s,502,8503524,0.0-18.0-0.0-0.7,2188,6,5
8,3,object_09,object_03,1010.045,5,1,557.625,0.1111111111111111,1,object_07,1,40,0,1,3,library_6,2,memory-2step-stake-s,503,8511398,0.0-18.0-0.0-0.8,2188,5,6
9,4,object_08,object_06,1184.095,7,2,663.865,0.2222222222222222,1,object_07,5,50,0,2,1,restaurant_32,2,memory-2step-stake-s,504,8519480,0.0-18.0-0.0-0.9,2188,8,7
10,3,object_03,object_09,1196.38,6,1,466.585,0.0,2,object_02,1,50,0,2,0,library_28,2,memory-2step-stake-s,505,8527165,0.0-18.0-0.0-0.10,2188,6,5
11,4,object_08,object_06,924.065,7,2,506.63,0.1111111111111111,1,object_07,1,51,0,1,0,restaurant_27,2,memory-2step-stake-s,506,8534991,0.0-18.0-0.0-0.11,2188,8,7
12,4,object_06,object_08,-1.0,-1,-1,-1.0,0.0,-,,1,51,0,5,3,restaurant_31,2,memory-2step-stake-s,507,8541503,0.0-18.0-0.0-0.12,2188,7,8
13,2,object_05,object_10,600.845,4,1,387.29,0.6666666666666666,2,object_02,5,81,0,5,6,forest_5,2,memory-2step-stake-s,508,8549714,0.0-18.0-0.0-0.13,2188,4,3
14,2,object_10,object_05,924.45,4,2,469.035,0.4444444444444444,2,object_02,5,101,0,3,4,forest_25,2,memory-2step-stake-s,509,8557805,0.0-18.0-0.0-0.14,2188,3,4
15,2,object_05,object_10,472.095,4,1,422.845,0.4444444444444444,2,object_02,5,121,0,3,4,forest_3,2,memory-2step-stake-s,510,8565847,0.0-18.0-0.0-0.15,2188,4,3
16,2,object_10,object_05,462.03,4,2,336.53,0.4444444444444444,2,object_02,1,125,0,4,4,forest_27,2,memory-2step-stake-s,511,8573803,0.0-18.0-0.0-0.16,2188,3,4
17,2,object_05,object_10,538.345,4,1,418.615,0.2222222222222222,2,object_02,5,135,0,4,2,forest_26,2,memory-2step-stake-s,512,8581637,0.0-18.0-0.0-0.17,2188,4,3
18,4,object_06,object_08,889.14,8,2,384.275,0.2222222222222222,2,object_02,5,145,0,3,2,restaurant_20,2,memory-2step-stake-s,513,8589438,0.0-18.0-0.0-0.18,2188,7,8
19,3,object_03,object_09,857.985,6,1,583.34,0.3333333333333333,2,object_02,1,148,0,1,3,library_24,2,memory-2step-stake-s,514,8597546,0.0-18.0-0.0-0.19,2188,6,5
20,3,object_09,object_03,1188.94,5,1,441.935,0.4444444444444444,1,object_07,1,152,0,4,2,library_2,2,memory-2step-stake-s,515,8605610,0.0-18.0-0.0-0.20,2188,5,6
21,1,object_04,object_01,1067.78,2,1,382.465,0.0,2,object_02,5,152,0,5,0,desert_32,2,memory-2step-stake-s,516,8613208,0.0-18.0-0.0-0.21,2188,2,1
22,3,object_09,object_03,1190.31,6,2,441.23,0.2222222222222222,2,object_02,1,154,0,6,2,library_8,2,memory-2step-stake-s,517,8621069,0.0-18.0-0.0-0.22,2188,5,6
23,3,object_03,object_09,1229.835,6,1,461.59,0.2222222222222222,2,object_02,1,156,0,7,2,library_30,2,memory-2step-stake-s,518,8628950,0.0-18.0-0.0-0.23,2188,6,5
24,2,object_05,object_10,-1.0,-1,-1,-1.0,0.0,-,,5,156,0,8,0,forest_11,2,memory-2step-stake-s,519,8635462,0.0-18.0-0.0-0.24,2188,4,3
25,2,object_10,object_05,374.665,3,1,452.23,0.7777777777777778,1,object_07,5,191,0,7,2,forest_15,2,memory-2step-stake-s,520,8643837,0.0-18.0-0.0-0.25,2188,3,4
26,4,object_08,object_06,839.15,7,2,884.27,0.7777777777777778,1,object_07,1,198,0,7,2,restaurant_27,2,memory-2step-stake-s,521,8652644,0.0-18.0-0.0-0.26,2188,8,7
27,3,object_03,object_09,865.215,5,2,312.7,0.5555555555555556,1,object_07,1,203,0,5,3,library_2,2,memory-2step-stake-s,522,8660677,0.0-18.0-0.0-0.27,2188,6,5
28,3,object_03,object_09,830.41,5,2,277.25999989999997,0.4444444444444444,1,object_07,1,207,0,4,4,library_21,2,memory-2step-stake-s,523,8668573,0.0-18.0-0.0-0.28,2188,6,5
29,1,object_01,object_04,797.76,2,2,301.74,0.5555555555555556,2,object_02,5,232,0,5,5,desert_28,2,memory-2step-stake-s,524,8676599,0.0-18.0-0.0-0.29,2188,1,2
30,1,object_01,object_04,697.48,2,2,285.45,0.0,2,object_02,5,232,0,3,0,desert_15,2,memory-2step-stake-s,525,8684102,0.0-18.0-0.0-0.30,2188,1,2
31,2,object_05,object_10,1399.795,3,2,335.13,0.2222222222222222,1,object_07,1,234,0,2,0,forest_6,2,memory-2step-stake-s,526,8691857,0.0-18.0-0.0-0.31,2188,4,3
32,1,object_04,object_01,851.285,2,1,268.81,0.1111111111111111,2,object_02,5,239,0,0,1,desert_13,2,memory-2step-stake-s,527,8699442,0.0-18.0-0.0-0.32,2188,2,1
33,4,object_06,object_08,688.025,7,1,273.6200001,0.1111111111111111,1,object_07,1,240,0,1,0,restaurant_1,2,memory-2step-stake-s,528,8707035,0.0-18.0-0.0-0.33,2188,7,8
34,4,object_08,object_06,1111.21,7,2,357.83,0.2222222222222222,1,object_07,1,242,0,2,1,restaurant_10,2,memory-2step-stake-s,529,8714811,0.0-18.0-0.0-0.34,2188,8,7
35,1,object_04,object_01,717.745,1,2,292.05,0.0,1,object_07,5,242,0,0,5,desert_31,2,memory-2step-stake-s,530,8722320,0.0-18.0-0.0-0.35,2188,2,1
36,2,object_05,object_10,850.5,3,2,462.58,0.1111111111111111,1,object_07,5,247,0,1,3,forest_30,2,memory-2step-stake-s,531,8730101,0.0-18.0-0.0-0.36,2188,4,3
37,2,object_05,object_10,769.84,4,1,492.555,0.2222222222222222,2,object_02,5,257,0,1,2,forest_16,2,memory-2step-stake-s,532,8738013,0.0-18.0-0.0-0.37,2188,4,3
38,4,object_08,object_06,705.33,8,1,459.745,0.2222222222222222,2,object_02,1,259,0,3,2,restaurant_16,2,memory-2step-stake-s,533,8745893,0.0-18.0-0.0-0.38,2188,8,7
39,2,object_05,object_10,1250.205,3,2,401.6,0.8888888888888888,1,object_07,5,299,0,8,3,forest_1,2,memory-2step-stake-s,534,8754323,0.0-18.0-0.0-0.39,2188,4,3
40,3,object_09,object_03,1120.205,5,1,346.19,0.7777777777777778,1,object_07,1,306,0,7,5,library_2,2,memory-2step-stake-s,535,8762596,0.0-18.0-0.0-0.40,2188,5,6
41,4,object_06,object_08,1049.49,7,1,414.13,0.2222222222222222,1,object_07,5,316,0,2,2,restaurant_7,2,memory-2step-stake-s,536,8770430,0.0-18.0-0.0-0.41,2188,7,8
42,1,object_01,object_04,1011.955,2,2,417.875,0.4444444444444444,2,object_02,5,336,0,1,4,desert_16,2,memory-2step-stake-s,537,8778469,0.0-18.0-0.0-0.42,2188,1,2
43,1,object_01,object_04,689.655,2,2,364.125,0.3333333333333333,2,object_02,5,351,0,2,3,desert_14,2,memory-2step-stake-s,538,8786349,0.0-18.0-0.0-0.43,2188,1,2
44,4,object_06,object_08,948.35,8,2,419.55,0.4444444444444444,2,object_02,1,355,0,6,4,restaurant_13,2,memory-2step-stake-s,539,8794386,0.0-18.0-0.0-0.44,2188,7,8
45,2,object_05,object_10,521.96,4,1,319.375,0.2222222222222222,2,object_02,5,365,0,7,2,forest_7,2,memory-2step-stake-s,540,8802123,0.0-18.0-0.0-0.45,2188,4,3
46,2,object_05,object_10,882.015,3,2,363.79,0.7777777777777778,1,object_07,5,400,0,7,0,forest_27,2,memory-2step-stake-s,541,8810410,0.0-18.0-0.0-0.46,2188,4,3
47,4,object_06,object_08,679.805,7,1,376.925,0.8888888888888888,1,object_07,1,408,0,8,1,restaurant_10,2,memory-2step-stake-s,542,8818814,0.0-18.0-0.0-0.47,2188,7,8
48,4,object_08,object_06,695.905,7,2,279.06,0.7777777777777778,1,object_07,1,415,0,7,0,restaurant_15,2,memory-2step-stake-s,543,8827017,0.0-18.0-0.0-0.48,2188,8,7
49,4,object_08,object_06,876.665,7,2,333.725,0.8888888888888888,1,object_07,1,423,0,8,1,restaurant_32,2,memory-2step-stake-s,544,8835381,0.0-18.0-0.0-0.49,2188,8,7
50,3,object_09,object_03,1420.14,5,1,494.72,0.8888888888888888,1,object_07,1,431,0,8,3,library_8,2,memory-2step-stake-s,545,8843907,0.0-18.0-0.0-0.50,2188,5,6
51,3,object_09,object_03,857.5,5,1,278.475,1.0,1,object_07,1,440,0,9,6,library_5,2,memory-2step-stake-s,546,8852311,0.0-18.0-0.0-0.51,2188,5,6
52,4,object_06,object_08,663.4500001,7,1,219.01,0.7777777777777778,1,object_07,1,447,0,7,7,restaurant_14,2,memory-2step-stake-s,547,8860455,0.0-18.0-0.0-0.52,2188,7,8
53,1,object_01,object_04,793.08,2,2,275.74,0.4444444444444444,2,object_02,5,467,0,8,4,desert_32,2,memory-2step-stake-s,548,8868351,0.0-18.0-0.0-0.53,2188,1,2
54,1,object_01,object_04,1331.515,1,1,275.355,0.8888888888888888,1,object_07,1,475,0,8,5,desert_17,2,memory-2step-stake-s,549,8876651,0.0-18.0-0.0-0.54,2188,1,2
55,2,object_05,object_10,1080.985,3,2,256.08,0.7777777777777778,1,object_07,5,510,0,7,4,forest_7,2,memory-2step-stake-s,550,8884830,0.0-18.0-0.0-0.55,2188,4,3
56,1,object_01,object_04,1167.495,1,1,339.345,0.6666666666666666,1,object_07,5,540,0,6,6,desert_20,2,memory-2step-stake-s,551,8892992,0.0-18.0-0.0-0.56,2188,1,2
57,2,object_10,object_05,689.575,3,1,437.23,0.8888888888888888,1,object_07,5,580,0,8,6,forest_16,2,memory-2step-stake-s,552,8901459,0.0-18.0-0.0-0.57,2188,3,4
58,3,object_09,object_03,718.125,5,1,257.755,0.6666666666666666,1,object_07,1,586,0,6,7,library_27,2,memory-2step-stake-s,553,8909539,0.0-18.0-0.0-0.58,2188,5,6
59,2,object_05,object_10,555.29,3,2,449.19,0.8888888888888888,1,object_07,5,626,0,8,7,forest_28,2,memory-2step-stake-s,554,8918017,0.0-18.0-0.0-0.59,2188,4,3
60,2,object_10,object_05,394.225,3,1,295.15,0.8888888888888888,1,object_07,5,666,0,8,4,forest_17,2,memory-2step-stake-s,555,8926337,0.0-18.0-0.0-0.60,2188,3,4
61,2,object_05,object_10,428.22,3,2,283.385,1.0,1,object_07,5,711,0,9,4,forest_7,2,memory-2step-stake-s,556,8934746,0.0-18.0-0.0-0.61,2188,4,3
62,1,object_04,object_01,1349.615,1,2,333.935,0.8888888888888888,1,object_07,5,751,0,8,4,desert_15,2,memory-2step-stake-s,557,8943104,0.0-18.0-0.0-0.62,2188,2,1
63,2,object_05,object_10,534.125,3,2,358.215,0.8888888888888888,1,object_07,5,791,0,8,1,forest_1,2,memory-2step-stake-s,558,8951489,0.0-18.0-0.0-0.63,2188,4,3
64,3,object_09,object_03,609.02,5,1,591.485,0.8888888888888888,1,object_07,1,799,0,8,3,library_13,2,memory-2step-stake-s,559,8960105,0.0-18.0-0.0-0.64,2188,5,6
65,2,object_05,object_10,613.465,3,2,183.55,1.0,1,object_07,5,844,0,9,3,forest_28,2,memory-2step-stake-s,560,8968420,0.0-18.0-0.0-0.65,2188,4,3
66,2,object_10,object_05,822.855,3,1,306.7,1.0,1,object_07,5,889,0,9,0,forest_21,2,memory-2step-stake-s,561,8976855,0.0-18.0-0.0-0.66,2188,3,4
67,4,object_08,object_06,910.46,7,2,361.04,1.0,1,object_07,5,934,0,9,1,restaurant_16,2,memory-2step-stake-s,562,8985341,0.0-18.0-0.0-0.67,2188,8,7
68,1,object_04,object_01,765.185,2,1,314.65,0.2222222222222222,2,object_02,5,944,0,9,2,desert_8,2,memory-2step-stake-s,563,8993073,0.0-18.0-0.0-0.68,2188,2,1
69,4,object_06,object_08,730.215,7,1,624.5,0.7777777777777778,1,object_07,1,951,0,7,0,restaurant_20,2,memory-2step-stake-s,564,9001627,0.0-18.0-0.0-0.69,2188,7,8
70,1,object_04,object_01,1020.755,1,2,325.965,0.7777777777777778,1,object_07,5,986,0,7,1,desert_6,2,memory-2step-stake-s,565,9009876,0.0-18.0-0.0-0.70,2188,2,1
71,3,object_03,object_09,636.01,5,2,319.77,0.7777777777777778,1,object_07,5,1021,0,7,3,library_21,2,memory-2step-stake-s,566,9018121,0.0-18.0-0.0-0.71,2188,6,5
72,4,object_06,object_08,721.495,7,1,444.835,0.8888888888888888,1,object_07,1,1029,0,8,4,restaurant_25,2,memory-2step-stake-s,567,9026589,0.0-18.0-0.0-0.72,2188,7,8
73,2,object_05,object_10,637.09,3,2,441.36,0.7777777777777778,1,object_07,5,1064,0,7,1,forest_10,2,memory-2step-stake-s,568,9034953,0.0-18.0-0.0-0.73,2188,4,3
74,3,object_03,object_09,663.72,5,2,419.46,0.7777777777777778,1,object_07,1,1071,0,7,2,library_25,2,memory-2step-stake-s,569,9043299,0.0-18.0-0.0-0.74,2188,6,5
75,1,object_04,object_01,900.935,1,2,725.525,0.8888888888888888,1,object_07,5,1111,0,8,1,desert_19,2,memory-2step-stake-s,570,9052050,0.0-18.0-0.0-0.75,2188,2,1
76,2,object_10,object_05,575.35,3,1,611.48,0.7777777777777778,1,object_07,5,1146,0,7,1,forest_28,2,memory-2step-stake-s,571,9060588,0.0-18.0-0.0-0.76,2188,3,4
77,2,object_05,object_10,539.535,3,2,390.965,0.7777777777777778,1,object_07,5,1181,0,7,2,forest_10,2,memory-2step-stake-s,572,9068905,0.0-18.0-0.0-0.77,2188,4,3
78,1,object_04,object_01,763.365,1,2,365.07,0.5555555555555556,1,object_07,5,1206,0,5,4,desert_17,2,memory-2step-stake-s,573,9076992,0.0-18.0-0.0-0.78,2188,2,1
79,2,object_05,object_10,562.94,3,2,315.315,0.6666666666666666,1,object_07,5,1236,0,6,4,forest_21,2,memory-2step-stake-s,574,9085129,0.0-18.0-0.0-0.79,2188,4,3
80,4,object_06,object_08,896.27,7,1,358.945,0.6666666666666666,1,object_07,1,1242,0,6,0,restaurant_13,2,memory-2step-stake-s,575,9093308,0.0-18.0-0.0-0.80,2188,7,8
81,3,object_03,object_09,750.775,5,2,509.08,0.2222222222222222,1,object_07,5,1252,0,2,1,library_10,2,memory-2step-stake-s,576,9101234,0.0-18.0-0.0-0.81,2188,6,5
82,3,object_09,object_03,848.75,6,2,253.305,0.1111111111111111,2,object_02,1,1253,0,4,1,library_12,2,memory-2step-stake-s,577,9108805,0.0-18.0-0.0-0.82,2188,5,6
83,2,object_05,object_10,822.51,4,1,287.24,0.0,2,object_02,5,1253,0,4,0,forest_7,2,memory-2step-stake-s,578,9116307,0.0-18.0-0.0-0.83,2188,4,3
84,4,object_08,object_06,-1.0,-1,-1,-1.0,0.0,-,,1,1253,0,6,3,restaurant_30,2,memory-2step-stake-s,579,9122818,0.0-18.0-0.0-0.84,2188,8,7
85,2,object_10,object_05,755.29,4,2,298.56,0.5555555555555556,2,object_02,5,1278,0,5,5,forest_10,2,memory-2step-stake-s,580,9130839,0.0-18.0-0.0-0.85,2188,3,4
86,3,object_09,object_03,681.19,6,2,269.995,0.4444444444444444,2,object_02,1,1282,0,5,4,library_10,2,memory-2step-stake-s,581,9138728,0.0-18.0-0.0-0.86,2188,5,6
87,1,object_04,object_01,1120.195,2,1,511.07,0.5555555555555556,2,object_02,5,1307,0,4,5,desert_20,2,memory-2step-stake-s,582,9146960,0.0-18.0-0.0-0.87,2188,2,1
88,4,object_08,object_06,686.69,7,2,305.31,0.5555555555555556,1,object_07,1,1312,0,5,3,restaurant_32,2,memory-2step-stake-s,583,9154987,0.0-18.0-0.0-0.88,2188,8,7
89,2,object_05,object_10,733.43,4,1,342.755,0.1111111111111111,2,object_02,5,1317,0,3,1,forest_17,2,memory-2step-stake-s,584,9162650,0.0-18.0-0.0-0.89,2188,4,3
90,1,object_04,object_01,639.04,1,2,746.95,0.3333333333333333,1,object_07,5,1332,0,3,3,desert_6,2,memory-2step-stake-s,585,9170918,0.0-18.0-0.0-0.90,2188,2,1
91,4,object_08,object_06,610.915,8,1,453.49,0.5555555555555556,2,object_02,5,1357,0,4,5,restaurant_25,2,memory-2step-stake-s,586,9179094,0.0-18.0-0.0-0.91,2188,8,7
92,2,object_05,object_10,657.37,4,1,414.48,0.3333333333333333,2,object_02,1,1360,0,0,3,forest_5,2,memory-2step-stake-s,587,9187029,0.0-18.0-0.0-0.92,2188,4,3
93,1,object_01,object_04,799.645,2,2,305.73,0.1111111111111111,2,object_02,5,1365,0,1,1,desert_30,2,memory-2step-stake-s,588,9194653,0.0-18.0-0.0-0.93,2188,1,2
94,2,object_05,object_10,1141.995,3,2,285.955,0.3333333333333333,1,object_07,5,1380,0,3,1,forest_30,2,memory-2step-stake-s,589,9202458,0.0-18.0-0.0-0.94,2188,4,3
95,2,object_05,object_10,533.1,4,1,269.455,0.3333333333333333,2,object_02,5,1395,0,1,3,forest_3,2,memory-2step-stake-s,590,9210246,0.0-18.0-0.0-0.95,2188,4,3
96,3,object_09,object_03,646.205,6,2,296.535,0.4444444444444444,2,object_02,1,1399,0,2,4,library_26,2,memory-2step-stake-s,591,9218167,0.0-18.0-0.0-0.96,2188,5,6
97,4,object_08,object_06,802.01,7,2,393.06,0.2222222222222222,1,object_07,5,1409,0,2,7,restaurant_6,2,memory-2step-stake-s,592,9225978,0.0-18.0-0.0-0.97,2188,8,7
98,1,object_01,object_04,493.7,1,1,423.715,0.1111111111111111,1,object_07,5,1414,0,1,6,desert_1,2,memory-2step-stake-s,593,9233721,0.0-18.0-0.0-0.98,2188,1,2
99,3,object_03,object_09,731.81,5,2,350.48,0.0,1,object_07,1,1414,0,0,8,library_8,2,memory-2step-stake-s,594,9241288,0.0-18.0-0.0-0.99,2188,6,5
100,1,object_01,object_04,1130.085,2,2,329.795,0.5555555555555556,2,object_02,5,1439,0,0,5,desert_32,2,memory-2step-stake-s,595,9249337,0.0-18.0-0.0-0.100,2188,1,2
101,4,object_06,object_08,766.01,7,1,281.565,0.1111111111111111,1,object_07,1,1440,0,1,5,restaurant_28,2,memory-2step-stake-s,596,9256934,0.0-18.0-0.0-0.101,2188,7,8
102,1,object_01,object_04,975.825,2,2,420.465,0.7777777777777778,2,object_02,1,1447,0,3,7,desert_31,2,memory-2step-stake-s,597,9265281,0.0-18.0-0.0-0.102,2188,1,2
103,1,object_01,object_04,653.74,2,2,331.13,0.6666666666666666,2,object_02,1,1453,0,3,6,desert_19,2,memory-2step-stake-s,598,9273433,0.0-18.0-0.0-0.103,2188,1,2
104,1,object_01,object_04,615.72,2,2,394.335,0.7777777777777778,2,object_02,1,1460,0,6,7,desert_31,2,memory-2step-stake-s,599,9281754,0.0-18.0-0.0-0.104,2188,1,2
105,2,object_10,object_05,575.295,4,2,507.73,1.0,2,object_02,5,1505,0,8,9,forest_25,2,memory-2step-stake-s,600,9290390,0.0-18.0-0.0-0.105,2188,3,4
106,1,object_01,object_04,771.3,2,2,877.13,1.0,2,object_02,5,1550,0,8,9,desert_1,2,memory-2step-stake-s,601,9299394,0.0-18.0-0.0-0.106,2188,1,2
107,4,object_08,object_06,941.34,8,1,1029.605,0.6666666666666666,2,object_02,1,1556,0,7,6,restaurant_7,2,memory-2step-stake-s,602,9308248,0.0-18.0-0.0-0.107,2188,8,7
108,3,object_09,object_03,789.0,6,2,319.84,1.0,2,object_02,1,1565,0,4,9,library_12,2,memory-2step-stake-s,603,9316693,0.0-18.0-0.0-0.108,2188,5,6
109,3,object_03,object_09,853.055,6,1,590.55,0.6666666666666666,2,object_02,1,1571,0,6,6,library_5,2,memory-2step-stake-s,604,9325107,0.0-18.0-0.0-0.109,2188,6,5
110,4,object_08,object_06,761.775,8,1,1150.265,0.1111111111111111,2,object_02,1,1572,0,6,1,restaurant_15,2,memory-2step-stake-s,605,9333575,0.0-18.0-0.0-0.110,2188,8,7
111,1,object_04,object_01,773.5750001,2,1,348.015,0.0,2,object_02,5,1572,0,3,0,desert_16,2,memory-2step-stake-s,606,9341142,0.0-18.0-0.0-0.111,2188,2,1
112,2,object_05,object_10,645.05,3,2,407.355,0.5555555555555556,1,object_07,5,1597,0,5,0,forest_27,2,memory-2step-stake-s,607,9349275,0.0-18.0-0.0-0.112,2188,4,3
113,3,object_09,object_03,794.395,5,1,370.155,0.2222222222222222,1,object_07,1,1599,0,2,0,library_8,2,memory-2step-stake-s,608,9357061,0.0-18.0-0.0-0.113,2188,5,6
114,2,object_05,object_10,552.045,4,1,317.155,0.1111111111111111,2,object_02,1,1600,0,1,1,forest_6,2,memory-2step-stake-s,609,9364696,0.0-18.0-0.0-0.114,2188,4,3
115,4,object_08,object_06,760.415,7,2,559.915,0.2222222222222222,1,object_07,1,1602,0,2,0,restaurant_20,2,memory-2step-stake-s,610,9372673,0.0-18.0-0.0-0.115,2188,8,7
116,4,object_06,object_08,892.62,8,2,317.965,0.1111111111111111,2,object_02,1,1603,0,3,1,restaurant_20,2,memory-2step-stake-s,611,9380305,0.0-18.0-0.0-0.116,2188,7,8
117,3,object_09,object_03,853.755,6,2,287.985,0.2222222222222222,2,object_02,1,1605,0,7,2,library_26,2,memory-2step-stake-s,612,9388012,0.0-18.0-0.0-0.117,2188,5,6
118,4,object_06,object_08,725.185,7,1,295.78,0.8888888888888888,1,object_07,5,1645,0,8,2,restaurant_6,2,memory-2step-stake-s,613,9396335,0.0-18.0-0.0-0.118,2188,7,8
119,4,object_08,object_06,787.22,7,2,371.775,0.6666666666666666,1,object_07,1,1651,0,6,1,restaurant_6,2,memory-2step-stake-s,614,9404527,0.0-18.0-0.0-0.119,2188,8,7
120,4,object_06,object_08,641.76,7,1,400.365,0.2222222222222222,1,object_07,1,1653,0,2,1,restaurant_31,2,memory-2step-stake-s,615,9412343,0.0-18.0-0.0-0.120,2188,7,8
121,1,object_01,object_04,741.225,1,1,462.495,0.2222222222222222,1,object_07,5,1663,0,2,2,desert_15,2,memory-2step-stake-s,616,9420226,0.0-18.0-0.0-0.121,2188,1,2
122,4,object_06,object_08,798.04,8,2,324.685,0.1111111111111111,2,object_02,5,1668,0,3,1,restaurant_31,2,memory-2step-stake-s,617,9427870,0.0-18.0-0.0-0.122,2188,7,8
123,4,object_06,object_08,812.22,7,1,377.86,0.1111111111111111,1,object_07,5,1673,0,1,3,restaurant_31,2,memory-2step-stake-s,618,9435564,0.0-18.0-0.0-0.123,2188,7,8
124,1,object_01,object_04,552.525,2,2,483.5649999,0.5555555555555556,2,object_02,5,1698,0,1,5,desert_3,2,memory-2step-stake-s,619,9443770,0.0-18.0-0.0-0.124,2188,1,2
125,4,object_08,object_06,1138.11,8,1,275.145,0.6666666666666666,2,object_02,5,1728,0,1,6,restaurant_16,2,memory-2step-stake-s,620,9451868,0.0-18.0-0.0-0.125,2188,8,7
126,2,object_05,object_10,762.985,3,2,453.955,0.2222222222222222,1,object_07,1,1730,0,2,4,forest_25,2,memory-2step-stake-s,621,9459742,0.0-18.0-0.0-0.126,2188,4,3
127,1,object_01,object_04,886.815,2,2,378.505,0.1111111111111111,2,object_02,5,1735,0,3,1,desert_8,2,memory-2step-stake-s,622,9467436,0.0-18.0-0.0-0.127,2188,1,2
128,1,object_04,object_01,891.375,1,2,954.49,0.2222222222222222,1,object_07,1,1737,0,2,2,desert_14,2,memory-2step-stake-s,624,10251188,0.0-18.0-0.1-0.128,2188,2,1
129,4,object_08,object_06,986.3,8,1,564.8000001,0.1111111111111111,2,object_02,1,1738,0,3,1,restaurant_1,2,memory-2step-stake-s,625,10259068,0.0-18.0-0.1-0.129,2188,8,7
130,3,object_09,object_03,668.53,6,2,270.55,0.2222222222222222,2,object_02,5,1748,0,5,2,library_12,2,memory-2step-stake-s,626,10266760,0.0-18.0-0.1-0.130,2188,5,6
131,4,object_06,object_08,567.14,7,1,309.565,0.5555555555555556,1,object_07,5,1773,0,5,1,restaurant_14,2,memory-2step-stake-s,627,10274792,0.0-18.0-0.1-0.131,2188,7,8
132,4,object_06,object_08,784.4,7,1,338.285,0.4444444444444444,1,object_07,1,1777,0,4,1,restaurant_13,2,memory-2step-stake-s,628,10282750,0.0-18.0-0.1-0.132,2188,7,8
133,2,object_10,object_05,667.085,3,1,289.51,0.3333333333333333,1,object_07,5,1792,0,3,2,forest_1,2,memory-2step-stake-s,629,10290558,0.0-18.0-0.1-0.133,2188,3,4
134,2,object_10,object_05,662.4499999,4,2,383.26,0.3333333333333333,2,object_02,5,1807,0,2,3,forest_11,2,memory-2step-stake-s,630,10298461,0.0-18.0-0.1-0.134,2188,3,4
135,3,object_09,object_03,869.305,6,2,310.915,0.4444444444444444,2,object_02,1,1811,0,4,4,library_13,2,memory-2step-stake-s,631,10306397,0.0-18.0-0.1-0.135,2188,5,6
136,3,object_09,object_03,700.06,5,1,468.38,0.6666666666666666,1,object_07,1,1817,0,6,3,library_13,2,memory-2step-stake-s,632,10314692,0.0-18.0-0.1-0.136,2188,5,6
137,1,object_04,object_01,-1.0,-1,-1,-1.0,0.0,-,,1,1817,0,6,5,desert_3,2,memory-2step-stake-s,633,10321203,0.0-18.0-0.1-0.137,2188,2,1
138,2,object_10,object_05,652.035,3,1,471.705,0.7777777777777778,1,object_07,5,1852,0,7,6,forest_3,2,memory-2step-stake-s,634,10329598,0.0-18.0-0.1-0.138,2188,3,4
139,2,object_05,object_10,512.905,3,2,496.595,0.8888888888888888,1,object_07,5,1892,0,8,6,forest_5,2,memory-2step-stake-s,635,10338121,0.0-18.0-0.1-0.139,2188,4,3
140,4,object_06,object_08,861.985,7,1,749.07,0.6666666666666666,1,object_07,1,1898,0,6,8,restaurant_7,2,memory-2step-stake-s,636,10346692,0.0-18.0-0.1-0.140,2188,7,8
141,2,object_10,object_05,438.77,3,1,310.865,0.4444444444444444,1,object_07,5,1918,0,4,6,forest_26,2,memory-2step-stake-s,637,10354627,0.0-18.0-0.1-0.141,2188,3,4
142,4,object_08,object_06,531.435,8,1,343.65,0.7777777777777778,2,object_02,1,1925,0,3,7,restaurant_10,2,memory-2step-stake-s,638,10362893,0.0-18.0-0.1-0.142,2188,8,7
143,3,object_03,object_09,580.365,5,2,283.62,0.5555555555555556,1,object_07,1,1930,0,5,5,library_23,2,memory-2step-stake-s,639,10370901,0.0-18.0-0.1-0.143,2188,6,5
144,2,object_05,object_10,506.255,4,1,248.61,0.1111111111111111,2,object_02,5,1935,0,3,1,forest_21,2,memory-2step-stake-s,640,10378468,0.0-18.0-0.1-0.144,2188,4,3
145,3,object_03,object_09,1104.155,6,1,340.315,0.2222222222222222,2,object_02,1,1937,0,8,2,library_25,2,memory-2step-stake-s,641,10386228,0.0-18.0-0.1-0.145,2188,6,5
146,4,object_06,object_08,713.53,7,1,305.355,0.6666666666666666,1,object_07,5,1967,0,6,1,restaurant_18,2,memory-2step-stake-s,642,10394356,0.0-18.0-0.1-0.146,2188,7,8
147,3,object_09,object_03,953.825,5,1,530.765,1.0,1,object_07,1,1976,0,9,2,library_1,2,memory-2step-stake-s,643,10403012,0.0-18.0-0.1-0.147,2188,5,6
148,1,object_04,object_01,749.525,1,2,504.54,0.7777777777777778,1,object_07,5,2011,0,7,1,desert_1,2,memory-2step-stake-s,644,10411441,0.0-18.0-0.1-0.148,2188,2,1
149,3,object_09,object_03,778.185,5,1,-1.0,0.0,1,object_07,1,2011,0,9,2,library_6,2,memory-2step-stake-s,645,10419959,0.0-18.0-0.1-0.149,2188,5,6
150,3,object_03,object_09,725.615,5,2,574.45,1.0,1,object_07,1,2020,0,9,2,library_23,2,memory-2step-stake-s,646,10428660,0.0-18.0-0.1-0.150,2188,6,5
151,1,object_04,object_01,596.46,1,2,475.6,0.7777777777777778,1,object_07,1,2027,0,7,4,desert_3,2,memory-2step-stake-s,647,10437057,0.0-18.0-0.1-0.151,2188,2,1
152,1,object_04,object_01,600.765,1,2,989.27,0.8888888888888888,1,object_07,1,2035,0,8,7,desert_13,2,memory-2step-stake-s,648,10446074,0.0-18.0-0.1-0.152,2188,2,1
153,3,object_03,object_09,757.905,5,2,309.64,0.8888888888888888,1,object_07,1,2043,0,8,4,library_27,2,memory-2step-stake-s,649,10454412,0.0-18.0-0.1-0.153,2188,6,5
154,3,object_03,object_09,705.015,5,2,420.035,0.6666666666666666,1,object_07,5,2073,0,6,8,library_13,2,memory-2step-stake-s,650,10462660,0.0-18.0-0.1-0.154,2188,6,5
155,2,object_10,object_05,678.425,3,1,438.41,0.6666666666666666,1,object_07,5,2103,0,6,6,forest_26,2,memory-2step-stake-s,651,10470926,0.0-18.0-0.1-0.155,2188,3,4
156,3,object_09,object_03,1383.395,5,1,-1.0,0.0,1,object_07,1,2103,0,6,4,library_5,2,memory-2step-stake-s,652,10479440,0.0-18.0-0.1-0.156,2188,5,6
157,4,object_08,object_06,711.34,7,2,603.655,0.7777777777777778,1,object_07,1,2110,0,7,5,restaurant_30,2,memory-2step-stake-s,653,10487969,0.0-18.0-0.1-0.157,2188,8,7
158,3,object_03,object_09,941.585,6,1,343.9,0.7777777777777778,2,object_02,1,2117,0,6,7,library_28,2,memory-2step-stake-s,654,10496239,0.0-18.0-0.1-0.158,2188,6,5
159,2,object_10,object_05,671.6,4,2,277.35,0.4444444444444444,2,object_02,5,2137,0,5,4,forest_16,2,memory-2step-stake-s,655,10504139,0.0-18.0-0.1-0.159,2188,3,4
160,4,object_08,object_06,756.315,8,1,338.835,0.4444444444444444,2,object_02,1,2141,0,6,4,restaurant_15,2,memory-2step-stake-s,656,10512097,0.0-18.0-0.1-0.160,2188,8,7
161,3,object_09,object_03,966.615,5,1,449.565,0.4444444444444444,1,object_07,1,2145,0,4,6,library_1,2,memory-2step-stake-s,657,10520171,0.0-18.0-0.1-0.161,2188,5,6
162,3,object_03,object_09,1084.165,6,1,390.27,0.4444444444444444,2,object_02,5,2165,0,4,4,library_12,2,memory-2step-stake-s,658,10528179,0.0-18.0-0.1-0.162,2188,6,5
163,2,object_10,object_05,744.06,4,2,296.645,0.1111111111111111,2,object_02,5,2170,0,1,1,forest_21,2,memory-2step-stake-s,659,10535790,0.0-18.0-0.1-0.163,2188,3,4
164,1,object_01,object_04,516.985,1,1,355.495,0.2222222222222222,1,object_07,5,2180,0,2,0,desert_19,2,memory-2step-stake-s,660,10543565,0.0-18.0-0.1-0.164,2188,1,2
165,1,object_01,object_04,335.64,2,2,448.77,0.3333333333333333,2,object_02,5,2195,0,0,3,desert_13,2,memory-2step-stake-s,661,10551534,0.0-18.0-0.1-0.165,2188,1,2
166,3,object_03,object_09,437.27,6,1,276.815,0.7777777777777778,2,object_02,1,2202,0,2,7,library_27,2,memory-2step-stake-s,662,10559740,0.0-18.0-0.1-0.166,2188,6,5
167,1,object_01,object_04,1491.4,2,2,535.85,1.0,2,object_02,5,2247,0,1,9,desert_14,2,memory-2step-stake-s,663,10568401,0.0-18.0-0.1-0.167,2188,1,2
168,4,object_08,object_06,878.11,8,1,565.12,0.8888888888888888,2,object_02,1,2255,0,2,8,restaurant_1,2,memory-2step-stake-s,664,10576991,0.0-18.0-0.1-0.168,2188,8,7
169,1,object_01,object_04,942.155,2,2,-1.0,0.0,2,object_02,5,2255,0,4,5,desert_16,2,memory-2step-stake-s,665,10585504,0.0-18.0-0.1-0.169,2188,1,2
170,1,object_01,object_04,616.07,2,2,284.835,0.8888888888888888,2,object_02,5,2295,0,8,8,desert_20,2,memory-2step-stake-s,666,10593811,0.0-18.0-0.1-0.170,2188,1,2
171,4,object_08,object_06,539.77,8,1,307.435,1.0,2,object_02,1,2304,0,4,9,restaurant_25,2,memory-2step-stake-s,667,10602247,0.0-18.0-0.1-0.171,2188,8,7
172,1,object_04,object_01,562.74,1,2,343.385,0.7777777777777778,1,object_07,5,2339,0,7,9,desert_14,2,memory-2step-stake-s,668,10610513,0.0-18.0-0.1-0.172,2188,2,1
173,3,object_03,object_09,445.225,6,1,340.635,0.6666666666666666,2,object_02,1,2345,0,8,6,library_25,2,memory-2step-stake-s,669,10618671,0.0-18.0-0.1-0.173,2188,6,5
174,4,object_06,object_08,695.665,8,2,667.855,0.7777777777777778,2,object_02,1,2352,0,7,7,restaurant_16,2,memory-2step-stake-s,670,10627266,0.0-18.0-0.1-0.174,2188,7,8
175,1,object_01,object_04,718.995,1,1,306.945,0.7777777777777778,1,object_07,5,2387,0,7,6,desert_8,2,memory-2step-stake-s,671,10635503,0.0-18.0-0.1-0.175,2188,1,2
176,1,object_04,object_01,495.6500001,1,2,309.88,0.8888888888888888,1,object_07,5,2427,0,8,8,desert_30,2,memory-2step-stake-s,672,10643842,0.0-18.0-0.1-0.176,2188,2,1
177,2,object_10,object_05,750.86,3,1,300.67,0.7777777777777778,1,object_07,5,2462,0,7,5,forest_25,2,memory-2step-stake-s,673,10652066,0.0-18.0-0.1-0.177,2188,3,4
178,3,object_03,object_09,459.805,5,2,337.08,0.6666666666666666,1,object_07,1,2468,0,6,4,library_23,2,memory-2step-stake-s,674,10660226,0.0-18.0-0.1-0.178,2188,6,5
179,4,object_06,object_08,895.04,8,2,756.54,0.2222222222222222,2,object_02,1,2470,0,8,2,restaurant_18,2,memory-2step-stake-s,675,10668402,0.0-18.0-0.1-0.179,2188,7,8
180,3,object_03,object_09,700.685,5,2,275.895,0.7777777777777778,1,object_07,1,2477,0,7,1,library_25,2,memory-2step-stake-s,676,10676599,0.0-18.0-0.1-0.180,2188,6,5
181,4,object_08,object_06,621.825,8,1,756.71,0.1111111111111111,2,object_02,5,2482,0,8,1,restaurant_7,2,memory-2step-stake-s,677,10684675,0.0-18.0-0.1-0.181,2188,8,7
182,1,object_04,object_01,468.345,1,2,355.21,0.8888888888888888,1,object_07,5,2522,0,8,1,desert_9,2,memory-2step-stake-s,678,10693052,0.0-18.0-0.1-0.182,2188,2,1
183,1,object_04,object_01,630.51,1,2,739.625,0.7777777777777778,1,object_07,1,2529,0,7,0,desert_8,2,memory-2step-stake-s,679,10701717,0.0-18.0-0.1-0.183,2188,2,1
184,2,object_05,object_10,841.165,3,2,327.515,0.3333333333333333,1,object_07,5,2544,0,3,0,forest_17,2,memory-2step-stake-s,680,10709566,0.0-18.0-0.1-0.184,2188,4,3
185,3,object_09,object_03,713.43,6,2,245.535,0.0,2,object_02,1,2544,0,4,0,library_24,2,memory-2step-stake-s,681,10717028,0.0-18.0-0.1-0.185,2188,5,6
186,1,object_01,object_04,723.165,2,2,329.655,0.4444444444444444,2,object_02,1,2548,0,3,4,desert_3,2,memory-2step-stake-s,682,10724978,0.0-18.0-0.1-0.186,2188,1,2
187,3,object_09,object_03,801.51,6,2,1083.335,0.2222222222222222,2,object_02,5,2558,0,5,2,library_30,2,memory-2step-stake-s,683,10733480,0.0-18.0-0.1-0.187,2188,5,6
188,4,object_06,object_08,598.9,7,1,16.68,0.5555555555555556,1,object_07,5,2583,0,5,3,restaurant_30,2,memory-2step-stake-s,684,10741223,0.0-18.0-0.1-0.188,2188,7,8
189,4,object_06,object_08,816.29,7,1,279.77,0.3333333333333333,1,object_07,1,2586,0,3,1,restaurant_18,2,memory-2step-stake-s,685,10749023,0.0-18.0-0.1-0.189,2188,7,8
190,1,object_01,object_04,739.15,2,2,122.97,0.2222222222222222,2,object_02,5,2596,0,2,2,desert_20,2,memory-2step-stake-s,686,10756563,0.0-18.0-0.1-0.190,2188,1,2
191,4,object_06,object_08,609.04,7,1,339.165,0.2222222222222222,1,object_07,1,2598,0,2,0,restaurant_28,2,memory-2step-stake-s,687,10764319,0.0-18.0-0.1-0.191,2188,7,8
192,4,object_06,object_08,402.85,8,2,330.36,0.0,2,object_02,1,2598,0,2,0,restaurant_14,2,memory-2step-stake-s,688,10771862,0.0-18.0-0.1-0.192,2188,7,8
193,4,object_08,object_06,428.875,8,1,319.01,0.0,2,object_02,1,2598,0,3,0,restaurant_27,2,memory-2step-stake-s,689,10779396,0.0-18.0-0.1-0.193,2188,8,7
194,3,object_09,object_03,563.375,6,2,306.65,0.2222222222222222,2,object_02,5,2608,0,1,2,library_24,2,memory-2step-stake-s,690,10787120,0.0-18.0-0.1-0.194,2188,5,6
195,4,object_08,object_06,763.1,7,2,350.13,0.2222222222222222,1,object_07,1,2610,0,2,3,restaurant_27,2,memory-2step-stake-s,691,10794888,0.0-18.0-0.1-0.195,2188,8,7
196,2,object_05,object_10,1034.775,3,2,405.565,0.1111111111111111,1,object_07,5,2615,0,1,1,forest_30,2,memory-2step-stake-s,692,10802614,0.0-18.0-0.1-0.196,2188,4,3
197,2,object_10,object_05,702.865,4,2,403.585,0.2222222222222222,2,object_02,5,2625,0,3,2,forest_16,2,memory-2step-stake-s,693,10810435,0.0-18.0-0.1-0.197,2188,3,4
198,2,object_10,object_05,-1.0,-1,-1,-1.0,0.0,-,,5,2625,0,5,1,forest_28,2,memory-2step-stake-s,694,10816947,0.0-18.0-0.1-0.198,2188,3,4
199,2,object_10,object_05,319.9,3,1,304.205,0.4444444444444444,1,object_07,1,2629,0,4,2,forest_1,2,memory-2step-stake-s,695,10824876,0.0-18.0-0.1-0.199,2188,3,4
200,3,object_09,object_03,712.63,6,2,632.65,0.0,2,object_02,1,2629,0,5,0,library_6,2,memory-2step-stake-s,696,10832725,0.0-18.0-0.1-0.200,2188,5,6
201,3,object_03,object_09,737.67,5,2,511.28,0.6666666666666666,1,object_07,1,2635,0,6,1,library_28,2,memory-2step-stake-s,697,10841063,0.0-18.0-0.1-0.201,2188,6,5
202,1,object_01,object_04,720.3,1,1,556.595,0.2222222222222222,1,object_07,5,2645,0,2,2,desert_17,2,memory-2step-stake-s,698,10849040,0.0-18.0-0.1-0.202,2188,1,2
203,1,object_04,object_01,518.365,1,2,522.105,0.4444444444444444,1,object_07,5,2665,0,4,4,desert_19,2,memory-2step-stake-s,699,10857182,0.0-18.0-0.1-0.203,2188,2,1
204,3,object_03,object_09,724.0399999,5,2,609.21,0.4444444444444444,1,object_07,1,2669,0,4,5,library_23,2,memory-2step-stake-s,700,10865413,0.0-18.0-0.1-0.204,2188,6,5
205,1,object_04,object_01,617.375,2,1,604.065,0.1111111111111111,2,object_02,1,2670,0,6,1,desert_9,2,memory-2step-stake-s,701,10873340,0.0-18.0-0.1-0.205,2188,2,1
206,3,object_09,object_03,667.65,6,2,448.955,0.2222222222222222,2,object_02,1,2672,0,7,2,library_30,2,memory-2step-stake-s,702,10881206,0.0-18.0-0.1-0.206,2188,5,6
207,1,object_01,object_04,786.065,1,1,619.77,1.0,1,object_07,5,2717,0,9,1,desert_30,2,memory-2step-stake-s,703,10889956,0.0-18.0-0.1-0.207,2188,1,2
208,3,object_09,object_03,880.08,5,1,931.3849999,1.0,1,object_07,5,2762,0,9,3,library_30,2,memory-2step-stake-s,704,10899017,0.0-18.0-0.1-0.208,2188,5,6
209,2,object_10,object_05,613.845,3,1,611.37,0.5555555555555556,1,object_07,5,2787,0,5,3,forest_6,2,memory-2step-stake-s,705,10907350,0.0-18.0-0.1-0.209,2188,3,4
210,1,object_04,object_01,629.2,1,2,545.375,0.3333333333333333,1,object_07,5,2802,0,3,4,desert_6,2,memory-2step-stake-s,706,10915415,0.0-18.0-0.1-0.210,2188,2,1
211,4,object_08,object_06,795.4600001,8,1,785.48,0.6666666666666666,2,object_02,5,2832,0,2,6,restaurant_32,2,memory-2step-stake-s,707,10924022,0.0-18.0-0.1-0.211,2188,8,7
212,2,object_10,object_05,731.64,4,2,990.315,0.6666666666666666,2,object_02,5,2862,0,4,6,forest_27,2,memory-2step-stake-s,708,10932837,0.0-18.0-0.1-0.212,2188,3,4
213,3,object_03,object_09,698.24,5,2,504.99,0.3333333333333333,1,object_07,5,2877,0,3,6,library_21,2,memory-2step-stake-s,709,10940861,0.0-18.0-0.1-0.213,2188,6,5
214,2,object_05,object_10,706.13,4,1,425.43,1.0,2,object_02,5,2922,0,3,9,forest_10,2,memory-2step-stake-s,710,10949413,0.0-18.0-0.1-0.214,2188,4,3
215,4,object_08,object_06,932.51,8,1,466.03,1.0,2,object_02,1,2931,0,5,9,restaurant_13,2,memory-2step-stake-s,711,10958011,0.0-18.0-0.1-0.215,2188,8,7
216,1,object_01,object_04,636.475,2,2,575.87,0.6666666666666666,2,object_02,5,2961,0,7,6,desert_13,2,memory-2step-stake-s,712,10966410,0.0-18.0-0.1-0.216,2188,1,2
217,3,object_03,object_09,832.08,6,1,670.35,0.8888888888888888,2,object_02,1,2969,0,9,8,library_27,2,memory-2step-stake-s,713,10975107,0.0-18.0-0.1-0.217,2188,6,5
218,4,object_06,object_08,774.67,8,2,1328.38,0.6666666666666666,2,object_02,1,2975,0,8,6,restaurant_28,2,memory-2step-stake-s,714,10984262,0.0-18.0-0.1-0.218,2188,7,8
219,4,object_08,object_06,1278.315,8,1,716.36,0.3333333333333333,2,object_02,1,2978,0,9,3,restaurant_25,2,memory-2step-stake-s,715,10992499,0.0-18.0-0.1-0.219,2188,8,7
220,2,object_05,object_10,519.29,3,2,633.76,1.0,1,object_07,5,3023,0,9,4,forest_15,2,memory-2step-stake-s,716,11001259,0.0-18.0-0.1-0.220,2188,4,3
221,1,object_04,object_01,700.53,2,1,840.68,0.7777777777777778,2,object_02,5,3058,0,8,7,desert_9,2,memory-2step-stake-s,717,11010024,0.0-18.0-0.1-0.221,2188,2,1
222,1,object_01,object_04,649.625,2,2,280.095,1.0,2,object_02,5,3103,0,9,9,desert_31,2,memory-2step-stake-s,718,11018433,0.0-18.0-0.1-0.222,2188,1,2
223,1,object_01,object_04,771.36,2,2,1449.96,0.6666666666666666,2,object_02,1,3109,0,7,6,desert_9,2,memory-2step-stake-s,719,11027704,0.0-18.0-0.1-0.223,2188,1,2
224,1,object_01,object_04,591.405,2,2,-1.0,0.0,2,object_02,5,3109,0,5,3,desert_15,2,memory-2step-stake-s,720,11036221,0.0-18.0-0.1-0.224,2188,1,2
225,2,object_10,object_05,1091.505,4,2,737.37,0.5555555555555556,2,object_02,5,3134,0,6,5,forest_17,2,memory-2step-stake-s,721,11044680,0.0-18.0-0.1-0.225,2188,3,4
226,1,object_01,object_04,580.62,1,1,941.16,0.4444444444444444,1,object_07,5,3154,0,4,4,desert_1,2,memory-2step-stake-s,722,11053242,0.0-18.0-0.1-0.226,2188,1,2
227,3,object_09,object_03,943.43,5,1,463.505,0.5555555555555556,1,object_07,1,3159,0,5,8,library_24,2,memory-2step-stake-s,723,11061430,0.0-18.0-0.1-0.227,2188,5,6
228,2,object_05,object_10,1076.705,4,1,404.61,0.8888888888888888,2,object_02,5,3199,0,2,8,forest_6,2,memory-2step-stake-s,724,11069857,0.0-18.0-0.1-0.228,2188,4,3
229,2,object_05,object_10,619.765,4,1,519.405,0.7777777777777778,2,object_02,1,3206,0,1,7,forest_15,2,memory-2step-stake-s,725,11078301,0.0-18.0-0.1-0.229,2188,4,3
230,2,object_05,object_10,631.28,4,1,465.03,1.0,2,object_02,1,3215,0,2,9,forest_11,2,memory-2step-stake-s,726,11086891,0.0-18.0-0.1-0.230,2188,4,3
231,1,object_04,object_01,573.96,1,2,275.56,0.1111111111111111,1,object_07,1,3216,0,1,6,desert_32,2,memory-2step-stake-s,727,11094481,0.0-18.0-0.1-0.231,2188,2,1
232,3,object_03,object_09,765.535,6,1,410.63,0.4444444444444444,2,object_02,1,3220,0,3,4,library_21,2,memory-2step-stake-s,728,11102512,0.0-18.0-0.1-0.232,2188,6,5
233,4,object_06,object_08,783.115,8,2,662.685,0.5555555555555556,2,object_02,1,3225,0,3,5,restaurant_30,2,memory-2step-stake-s,729,11110897,0.0-18.0-0.1-0.233,2188,7,8
234,2,object_05,object_10,564.86,4,1,582.425,0.6666666666666666,2,object_02,5,3255,0,3,6,forest_15,2,memory-2step-stake-s,730,11119304,0.0-18.0-0.1-0.234,2188,4,3
235,3,object_09,object_03,420.8,6,2,323.11,0.3333333333333333,2,object_02,5,3270,0,3,3,library_5,2,memory-2step-stake-s,731,11127148,0.0-18.0-0.1-0.235,2188,5,6
236,4,object_06,object_08,682.43,7,1,393.0,0.3333333333333333,1,object_07,1,3273,0,3,2,restaurant_10,2,memory-2step-stake-s,732,11135061,0.0-18.0-0.1-0.236,2188,7,8
237,1,object_01,object_04,1065.19,2,2,472.43,0.3333333333333333,2,object_02,5,3288,0,5,3,desert_16,2,memory-2step-stake-s,733,11143053,0.0-18.0-0.1-0.237,2188,1,2
238,2,object_05,object_10,805.115,3,2,427.945,0.1111111111111111,1,object_07,5,3293,0,1,3,forest_5,2,memory-2step-stake-s,734,11150800,0.0-18.0-0.1-0.238,2188,4,3
239,3,object_09,object_03,777.28,5,1,345.51,0.1111111111111111,1,object_07,1,3294,0,1,4,library_26,2,memory-2step-stake-s,735,11158461,0.0-18.0-0.1-0.239,2188,5,6
240,4,object_06,object_08,1231.76,8,2,485.355,0.4444444444444444,2,object_02,1,3298,0,1,4,restaurant_14,2,memory-2step-stake-s,736,11166566,0.0-18.0-0.1-0.240,2188,7,8
241,2,object_05,object_10,-1.0,-1,-1,-1.0,0.0,-,,5,3298,0,0,5,forest_3,2,memory-2step-stake-s,737,11173079,0.0-18.0-0.1-0.241,2188,4,3
242,1,object_01,object_04,708.725,2,2,396.135,0.6666666666666666,2,object_02,1,3304,0,0,6,desert_28,2,memory-2step-stake-s,738,11181296,0.0-18.0-0.1-0.242,2188,1,2
243,4,object_06,object_08,786.14,8,2,493.045,0.6666666666666666,2,object_02,5,3334,0,0,6,restaurant_15,2,memory-2step-stake-s,739,11189610,0.0-18.0-0.1-0.243,2188,7,8
244,3,object_03,object_09,803.515,5,2,841.235,0.2222222222222222,1,object_07,1,3336,0,2,6,library_6,2,memory-2step-stake-s,740,11197872,0.0-18.0-0.1-0.244,2188,6,5
245,2,object_10,object_05,787.62,4,2,431.89,0.5555555555555556,2,object_02,5,3361,0,1,5,forest_30,2,memory-2step-stake-s,741,11206025,0.0-18.0-0.1-0.245,2188,3,4
246,1,object_01,object_04,836.54,1,1,393.615,0.1111111111111111,1,object_07,1,3362,0,1,7,desert_17,2,memory-2step-stake-s,742,11213736,0.0-18.0-0.1-0.246,2188,1,2
247,3,object_09,object_03,1155.675,5,1,406.04,0.0,1,object_07,1,3362,0,0,6,library_28,2,memory-2step-stake-s,743,11221357,0.0-18.0-0.1-0.247,2188,5,6
248,4,object_08,object_06,985.02,8,1,311.925,1.0,2,object_02,1,3371,0,4,9,restaurant_6,2,memory-2step-stake-s,744,11229799,0.0-18.0-0.1-0.248,2188,8,7
249,3,object_09,object_03,814.48,6,2,93.08000002,0.5555555555555556,2,object_02,5,3396,0,7,5,library_26,2,memory-2step-stake-s,745,11237615,0.0-18.0-0.1-0.249,2188,5,6
250,1,object_04,object_01,793.24,2,1,300.23,0.5555555555555556,2,object_02,5,3421,0,6,5,desert_6,2,memory-2step-stake-s,746,11245637,0.0-18.0-0.1-0.250,2188,2,1
251,2,object_10,object_05,859.375,4,2,1109.475,0.4444444444444444,2,object_02,1,3425,0,4,4,forest_26,2,memory-2step-stake-s,747,11254369,0.0-18.0-0.1-0.251,2188,3,4
252,4,object_08,object_06,349.535,8,1,346.09,0.6666666666666666,2,object_02,1,3431,0,5,6,restaurant_1,2,memory-2step-stake-s,748,11262539,0.0-18.0-0.1-0.252,2188,8,7
253,4,object_06,object_08,481.47,8,2,346.21,0.4444444444444444,2,object_02,5,3451,0,3,4,restaurant_18,2,memory-2step-stake-s,749,11270506,0.0-18.0-0.1-0.253,2188,7,8
254,3,object_09,object_03,819.41,5,1,378.59,0.4444444444444444,1,object_07,1,3455,0,4,0,library_10,2,memory-2step-stake-s,750,11278506,0.0-18.0-0.1-0.254,2188,5,6
255,3,object_09,object_03,639.445,5,1,346.56,0.5555555555555556,1,object_07,1,3460,0,5,1,library_2,2,memory-2step-stake-s,751,11286572,0.0-18.0-0.1-0.255,2188,5,6
