,state1,stim_left,stim_right,rt_1,choice1,response1,rt_2,points,state2,stim_state2,stake,score,practice,rews1,rews2,background,high_arm,trial_type,trial_index,time_elapsed,internal_node_id,subid,stim_left_num,stim_right_num
0,3,object_03,object_02,-1.0,-1,-1,-1.0,0.0,-,,1,0,0,5,4,library_32,1,memory-2step-stake-s,495,907422,0.0-18.0-0.0-0.0,4071,6,5
1,2,object_07,object_10,-1.0,-1,-1,-1.0,0.0,-,,1,0,0,7,6,forest_22,1,memory-2step-stake-s,496,913947,0.0-18.0-0.0-0.1,4071,3,4
2,4,object_08,object_06,1393.76,7,1,-1.0,0.0,1,object_09,5,0,0,5,8,restaurant_32,1,memory-2step-stake-s,497,922469,0.0-18.0-0.0-0.2,4071,7,8
3,3,object_03,object_02,1050.975,6,1,1162.845,0.5555555555555556,2,object_05,1,5,0,1,5,library_25,1,memory-2step-stake-s,498,931371,0.0-18.0-0.0-0.3,4071,6,5
4,4,object_06,object_08,562.875,7,2,871.58,0.2222222222222222,1,object_09,5,15,0,2,4,restaurant_32,1,memory-2step-stake-s,499,939679,0.0-18.0-0.0-0.4,4071,8,7
5,4,object_06,object_08,732.04,7,2,863.09,0.0,1,object_09,5,15,0,0,3,restaurant_7,1,memory-2step-stake-s,500,947766,0.0-18.0-0.0-0.5,4071,8,7
6,1,object_04,object_01,1082.08,2,2,887.65,0.3333333333333333,2,object_05,1,18,0,2,3,desert_15,1,memory-2step-stake-s,501,956183,0.0-18.0-0.0-0.6,4071,1,2
7,3,object_03,object_02,-1.0,-1,-1,-1.0,0.0,-,,5,18,0,4,0,library_5,1,memory-2step-stake-s,502,962709,0.0-18.0-0.0-0.7,4071,6,5
8,3,object_02,object_03,444.695,6,2,844.89,0.1111111111111111,2,object_05,1,19,0,2,1,library_5,1,memory-2step-stake-s,503,970882,0.0-18.0-0.0-0.8,4071,5,6
9,3,object_02,object_03,647.69,5,1,589.565,0.3333333333333333,1,object_09,5,34,0,3,1,library_30,1,memory-2step-stake-s,504,979005,0.0-18.0-0.0-0.9,4071,5,6
10,4,object_08,object_06,990.875,7,1,471.445,0.4444444444444444,1,object_09,5,54,0,4,2,restaurant_16,1,memory-2step-stake-s,505,987111,0.0-18.0-0.0-0.10,4071,7,8
11,4,object_08,object_06,1040.2,7,1,637.11,0.3333333333333333,1,object_09,5,69,0,3,1,restaurant_21,1,memory-2step-stake-s,506,995280,0.0-18.0-0.0-0.11,4071,7,8
12,2,object_07,object_10,1149.47,3,1,932.965,0.0,1,object_09,1,69,0,0,2,forest_9,1,memory-2step-stake-s,507,1003443,0.0-18.0-0.0-0.12,4071,3,4
13,3,object_02,object_03,-1.0,-1,-1,-1.0,0.0,-,,5,69,0,0,0,library_28,1,memory-2step-stake-s,508,1009964,0.0-18.0-0.0-0.13,4071,5,6
14,4,object_06,object_08,970.86,7,2,485.025,0.1111111111111111,1,object_09,1,70,0,1,2,restaurant_1,1,memory-2step-stake-s,509,1017781,0.0-18.0-0.0-0.14,4071,8,7
15,4,object_06,object_08,853.53,8,1,698.675,0.3333333333333333,2,object_05,1,73,0,2,3,restaurant_23,1,memory-2step-stake-s,510,1026014,0.0-18.0-0.0-0.15,4071,8,7
16,4,object_08,object_06,1301.87,7,1,1320.54,0.1111111111111111,1,object_09,5,78,0,1,1,restaurant_16,1,memory-2step-stake-s,511,1034669,0.0-18.0-0.0-0.16,4071,7,8
17,3,object_03,object_02,1053.195,5,2,1056.04,0.1111111111111111,1,object_09,5,83,0,1,2,library_24,1,memory-2step-stake-s,512,1043049,0.0-18.0-0.0-0.17,4071,6,5
18,4,object_08,object_06,922.98,8,2,541.23,0.4444444444444444,2,object_05,5,103,0,2,4,restaurant_24,1,memory-2step-stake-s,513,1051225,0.0-18.0-0.0-0.18,4071,7,8
19,1,object_01,object_04,-1.0,-1,-1,-1.0,0.0,-,,1,103,0,3,1,desert_25,1,memory-2step-stake-s,514,1057748,0.0-18.0-0.0-0.19,4071,2,1
20,2,object_07,object_10,1103.645,4,2,577.235,0.2222222222222222,2,object_05,1,105,0,3,2,forest_7,1,memory-2step-stake-s,515,1065748,0.0-18.0-0.0-0.20,4071,3,4
21,1,object_04,object_01,1213.24,2,2,600.48,0.2222222222222222,2,object_05,1,107,0,2,2,desert_3,1,memory-2step-stake-s,516,1073780,0.0-18.0-0.0-0.21,4071,1,2
22,4,object_06,object_08,1078.14,8,1,741.0,0.2222222222222222,2,object_05,5,117,0,3,2,restaurant_1,1,memory-2step-stake-s,517,1081957,0.0-18.0-0.0-0.22,4071,8,7
23,2,object_10,object_07,1224.725,4,1,504.63,0.2222222222222222,2,object_05,1,119,0,8,2,forest_25,1,memory-2step-stake-s,518,1089893,0.0-18.0-0.0-0.23,4071,4,3
24,2,object_10,object_07,1101.205,3,2,527.645,0.6666666666666666,1,object_09,1,125,0,6,1,forest_8,1,memory-2step-stake-s,519,1098256,0.0-18.0-0.0-0.24,4071,4,3
25,3,object_02,object_03,942.525,6,2,745.8,0.2222222222222222,2,object_05,5,135,0,3,2,library_2,1,memory-2step-stake-s,520,1106434,0.0-18.0-0.0-0.25,4071,5,6
26,1,object_04,object_01,1060.915,1,1,523.275,0.4444444444444444,1,object_09,1,139,0,4,4,desert_1,1,memory-2step-stake-s,521,1114593,0.0-18.0-0.0-0.26,4071,1,2
27,2,object_07,object_10,1247.185,3,1,724.055,0.1111111111111111,1,object_09,1,140,0,1,2,forest_7,1,memory-2step-stake-s,522,1122652,0.0-18.0-0.0-0.27,4071,3,4
28,1,object_01,object_04,1246.455,2,1,864.405,0.1111111111111111,2,object_05,1,141,0,0,1,desert_14,1,memory-2step-stake-s,523,1130844,0.0-18.0-0.0-0.28,4071,2,1
29,2,object_10,object_07,1088.235,4,1,626.12,0.4444444444444444,2,object_05,1,145,0,2,4,forest_20,1,memory-2step-stake-s,524,1139100,0.0-18.0-0.0-0.29,4071,4,3
30,2,object_10,object_07,883.425,4,1,520.29,0.4444444444444444,2,object_05,1,149,0,3,4,forest_14,1,memory-2step-stake-s,525,1147255,0.0-18.0-0.0-0.30,4071,4,3
31,2,object_10,object_07,1019.1,4,1,586.225,0.6666666666666666,2,object_05,5,179,0,3,6,forest_9,1,memory-2step-stake-s,526,1155685,0.0-18.0-0.0-0.31,4071,4,3
32,3,object_02,object_03,1081.935,5,1,701.29,0.2222222222222222,1,object_09,1,181,0,2,8,library_9,1,memory-2step-stake-s,527,1163816,0.0-18.0-0.0-0.32,4071,5,6
33,2,object_10,object_07,1298.72,3,2,689.315,0.4444444444444444,1,object_09,1,185,0,4,8,forest_11,1,memory-2step-stake-s,528,1172145,0.0-18.0-0.0-0.33,4071,4,3
34,4,object_06,object_08,1346.515,7,2,647.455,0.4444444444444444,1,object_09,1,189,0,4,8,restaurant_27,1,memory-2step-stake-s,529,1180432,0.0-18.0-0.0-0.34,4071,8,7
35,1,object_04,object_01,851.225,1,1,594.985,0.5555555555555556,1,object_09,5,214,0,5,9,desert_17,1,memory-2step-stake-s,530,1188766,0.0-18.0-0.0-0.35,4071,1,2
36,4,object_08,object_06,1171.79,8,2,655.735,0.6666666666666666,2,object_05,5,244,0,3,6,restaurant_8,1,memory-2step-stake-s,531,1197270,0.0-18.0-0.0-0.36,4071,7,8
37,2,object_10,object_07,1442.16,3,2,-1.0,0.0,1,object_09,1,244,0,5,6,forest_23,1,memory-2step-stake-s,532,1205799,0.0-18.0-0.0-0.37,4071,4,3
38,3,object_02,object_03,-1.0,-1,-1,-1.0,0.0,-,,1,244,0,5,3,library_30,1,memory-2step-stake-s,533,1212318,0.0-18.0-0.0-0.38,4071,5,6
39,3,object_03,object_02,929.485,5,2,708.29,0.6666666666666666,1,object_09,5,274,0,6,3,library_15,1,memory-2step-stake-s,534,1220861,0.0-18.0-0.0-0.39,4071,6,5
40,3,object_02,object_03,963.35,5,1,484.805,0.4444444444444444,1,object_09,5,294,0,4,0,library_9,1,memory-2step-stake-s,535,1228971,0.0-18.0-0.0-0.40,4071,5,6
41,3,object_03,object_02,1151.72,6,1,586.505,0.0,2,object_05,5,294,0,5,0,library_17,1,memory-2step-stake-s,536,1236786,0.0-18.0-0.0-0.41,4071,6,5
42,3,object_02,object_03,1036.85,6,2,896.385,0.0,2,object_05,5,294,0,4,0,library_22,1,memory-2step-stake-s,537,1244910,0.0-18.0-0.0-0.42,4071,5,6
43,4,object_08,object_06,1175.52,7,1,797.87,0.6666666666666666,1,object_09,5,324,0,6,5,restaurant_9,1,memory-2step-stake-s,538,1253545,0.0-18.0-0.0-0.43,4071,7,8
44,4,object_08,object_06,811.835,7,1,437.49,0.4444444444444444,1,object_09,5,344,0,4,3,restaurant_29,1,memory-2step-stake-s,539,1261620,0.0-18.0-0.0-0.44,4071,7,8
45,3,object_03,object_02,1415.575,5,2,717.685,0.6666666666666666,1,object_09,1,350,0,6,4,library_28,1,memory-2step-stake-s,540,1270179,0.0-18.0-0.0-0.45,4071,6,5
46,3,object_02,object_03,1001.385,5,1,584.17,0.7777777777777778,1,object_09,5,385,0,7,3,library_24,1,memory-2step-stake-s,541,1278704,0.0-18.0-0.0-0.46,4071,5,6
47,3,object_03,object_02,1046.36,5,2,522.22,0.7777777777777778,1,object_09,5,420,0,7,6,library_28,1,memory-2step-stake-s,542,1287171,0.0-18.0-0.0-0.47,4071,6,5
48,1,object_01,object_04,1326.775,2,1,632.595,0.4444444444444444,2,object_05,1,424,0,6,4,desert_20,1,memory-2step-stake-s,543,1295443,0.0-18.0-0.0-0.48,4071,2,1
49,2,object_07,object_10,1157.055,4,2,471.27,0.2222222222222222,2,object_05,5,434,0,6,2,forest_15,1,memory-2step-stake-s,544,1303342,0.0-18.0-0.0-0.49,4071,3,4
50,1,object_01,object_04,883.71,2,1,654.3,0.4444444444444444,2,object_05,1,438,0,5,4,desert_25,1,memory-2step-stake-s,545,1311630,0.0-18.0-0.0-0.50,4071,2,1
51,1,object_04,object_01,-1.0,-1,-1,-1.0,0.0,-,,5,438,0,2,2,desert_22,1,memory-2step-stake-s,546,1318147,0.0-18.0-0.0-0.51,4071,1,2
52,4,object_08,object_06,834.745,7,1,452.745,0.2222222222222222,1,object_09,1,440,0,2,2,restaurant_16,1,memory-2step-stake-s,547,1326033,0.0-18.0-0.0-0.52,4071,7,8
53,3,object_03,object_02,973.67,6,1,432.955,0.1111111111111111,2,object_05,5,445,0,2,1,library_10,1,memory-2step-stake-s,548,1333796,0.0-18.0-0.0-0.53,4071,6,5
54,3,object_02,object_03,1076.345,5,1,604.72,0.4444444444444444,1,object_09,5,465,0,4,1,library_14,1,memory-2step-stake-s,549,1342031,0.0-18.0-0.0-0.54,4071,5,6
55,4,object_06,object_08,1134.87,7,2,733.615,0.4444444444444444,1,object_09,5,485,0,4,2,restaurant_24,1,memory-2step-stake-s,550,1350405,0.0-18.0-0.0-0.55,4071,8,7
56,4,object_08,object_06,675.825,7,1,558.945,0.5555555555555556,1,object_09,5,510,0,5,2,restaurant_2,1,memory-2step-stake-s,551,1358709,0.0-18.0-0.0-0.56,4071,7,8
57,2,object_07,object_10,910.51,3,1,573.475,0.5555555555555556,1,object_09,1,515,0,5,3,forest_19,1,memory-2step-stake-s,552,1367022,0.0-18.0-0.0-0.57,4071,3,4
58,4,object_08,object_06,962.63,7,1,490.855,0.1111111111111111,1,object_09,5,520,0,1,2,restaurant_22,1,memory-2step-stake-s,553,1374844,0.0-18.0-0.0-0.58,4071,7,8
59,3,object_03,object_02,1190.58,5,2,937.75,0.2222222222222222,1,object_09,5,530,0,2,3,library_14,1,memory-2step-stake-s,554,1383225,0.0-18.0-0.0-0.59,4071,6,5
60,2,object_10,object_07,1105.985,3,2,822.9,0.0,1,object_09,5,530,0,0,6,forest_26,1,memory-2step-stake-s,555,1391273,0.0-18.0-0.0-0.60,4071,4,3
61,3,object_02,object_03,674.81,6,2,468.545,0.6666666666666666,2,object_05,5,560,0,3,6,library_25,1,memory-2step-stake-s,556,1399579,0.0-18.0-0.0-0.61,4071,5,6
62,1,object_04,object_01,999.695,2,2,1196.445,0.4444444444444444,2,object_05,1,564,0,4,4,desert_18,1,memory-2step-stake-s,557,1408409,0.0-18.0-0.0-0.62,4071,1,2
63,3,object_02,object_03,989.165,6,2,417.13,0.5555555555555556,2,object_05,5,589,0,4,5,library_9,1,memory-2step-stake-s,558,1416561,0.0-18.0-0.0-0.63,4071,5,6
64,1,object_01,object_04,-1.0,-1,-1,-1.0,0.0,-,,1,589,0,3,3,desert_15,1,memory-2step-stake-s,559,1423079,0.0-18.0-0.0-0.64,4071,2,1
65,2,object_07,object_10,1301.27,3,1,603.215,0.1111111111111111,1,object_09,1,590,0,1,4,forest_7,1,memory-2step-stake-s,560,1431004,0.0-18.0-0.0-0.65,4071,3,4
66,2,object_07,object_10,1143.5,4,2,478.11,0.2222222222222222,2,object_05,5,600,0,1,2,forest_20,1,memory-2step-stake-s,561,1438912,0.0-18.0-0.0-0.66,4071,3,4
67,1,object_04,object_01,1104.45,1,1,715.325,0.3333333333333333,1,object_09,1,603,0,3,1,desert_27,1,memory-2step-stake-s,562,1447165,0.0-18.0-0.0-0.67,4071,1,2
68,3,object_03,object_02,779.43,5,2,517.66,0.1111111111111111,1,object_09,1,604,0,1,0,library_5,1,memory-2step-stake-s,563,1455010,0.0-18.0-0.0-0.68,4071,6,5
69,4,object_06,object_08,1190.83,7,2,605.72,0.3333333333333333,1,object_09,5,619,0,3,4,restaurant_12,1,memory-2step-stake-s,564,1463151,0.0-18.0-0.0-0.69,4071,8,7
70,1,object_01,object_04,845.03,2,1,598.89,0.4444444444444444,2,object_05,5,639,0,6,4,desert_27,1,memory-2step-stake-s,565,1471384,0.0-18.0-0.0-0.70,4071,2,1
71,4,object_06,object_08,723.7,7,2,468.69,0.3333333333333333,1,object_09,5,654,0,3,2,restaurant_23,1,memory-2step-stake-s,566,1479379,0.0-18.0-0.0-0.71,4071,8,7
72,2,object_07,object_10,897.625,4,2,428.06,0.2222222222222222,2,object_05,1,656,0,3,2,forest_14,1,memory-2step-stake-s,567,1487240,0.0-18.0-0.0-0.72,4071,3,4
73,4,object_06,object_08,1215.94,7,2,656.345,0.5555555555555556,1,object_09,5,681,0,5,3,restaurant_29,1,memory-2step-stake-s,568,1495641,0.0-18.0-0.0-0.73,4071,8,7
74,2,object_10,object_07,-1.0,-1,-1,-1.0,0.0,-,,5,681,0,7,1,forest_20,1,memory-2step-stake-s,569,1502158,0.0-18.0-0.0-0.74,4071,4,3
75,2,object_07,object_10,1043.15,4,2,-1.0,0.0,2,object_05,5,681,0,6,2,forest_29,1,memory-2step-stake-s,570,1510687,0.0-18.0-0.0-0.75,4071,3,4
76,2,object_07,object_10,1188.375,4,2,664.225,0.3333333333333333,2,object_05,1,684,0,8,3,forest_23,1,memory-2step-stake-s,571,1518884,0.0-18.0-0.0-0.76,4071,3,4
77,2,object_10,object_07,975.98,3,2,577.28,0.7777777777777778,1,object_09,1,691,0,7,1,forest_23,1,memory-2step-stake-s,572,1527407,0.0-18.0-0.0-0.77,4071,4,3
78,4,object_06,object_08,1003.285,7,2,620.93,1.0,1,object_09,5,736,0,9,0,restaurant_9,1,memory-2step-stake-s,573,1536170,0.0-18.0-0.0-0.78,4071,8,7
79,3,object_03,object_02,1367.81,6,1,635.25,0.3333333333333333,2,object_05,5,751,0,8,3,library_28,1,memory-2step-stake-s,574,1544346,0.0-18.0-0.0-0.79,4071,6,5
80,3,object_03,object_02,955.775,5,2,620.465,0.6666666666666666,1,object_09,5,781,0,6,7,library_2,1,memory-2step-stake-s,575,1552805,0.0-18.0-0.0-0.80,4071,6,5
81,3,object_03,object_02,897.09,5,2,536.035,0.5555555555555556,1,object_09,5,806,0,5,4,library_17,1,memory-2step-stake-s,576,1561081,0.0-18.0-0.0-0.81,4071,6,5
82,1,object_01,object_04,856.7,2,1,572.48,0.4444444444444444,2,object_05,5,826,0,6,4,desert_3,1,memory-2step-stake-s,577,1569286,0.0-18.0-0.0-0.82,4071,2,1
83,1,object_01,object_04,812.125,2,1,414.285,0.6666666666666666,2,object_05,1,832,0,5,6,desert_12,1,memory-2step-stake-s,578,1577542,0.0-18.0-0.0-0.83,4071,2,1
84,3,object_03,object_02,922.09,5,2,1161.925,0.2222222222222222,1,object_09,5,842,0,2,2,library_32,1,memory-2step-stake-s,579,1586134,0.0-18.0-0.0-0.84,4071,6,5
85,2,object_10,object_07,1032.14,4,1,440.06,0.2222222222222222,2,object_05,1,844,0,1,2,forest_11,1,memory-2step-stake-s,580,1594001,0.0-18.0-0.0-0.85,4071,4,3
86,1,object_01,object_04,1197.75,2,1,560.97,0.2222222222222222,2,object_05,5,854,0,5,2,desert_25,1,memory-2step-stake-s,581,1601996,0.0-18.0-0.0-0.86,4071,2,1
87,2,object_10,object_07,856.39,4,1,679.67,0.2222222222222222,2,object_05,5,864,0,4,2,forest_27,1,memory-2step-stake-s,582,1610103,0.0-18.0-0.0-0.87,4071,4,3
88,1,object_01,object_04,713.255,2,1,426.335,0.1111111111111111,2,object_05,1,865,0,8,1,desert_17,1,memory-2step-stake-s,583,1617858,0.0-18.0-0.0-0.88,4071,2,1
89,2,object_10,object_07,882.18,4,1,531.605,0.2222222222222222,2,object_05,1,867,0,7,2,forest_25,1,memory-2step-stake-s,584,1625817,0.0-18.0-0.0-0.89,4071,4,3
90,2,object_10,object_07,1270.885,3,2,571.975,0.5555555555555556,1,object_09,1,872,0,5,2,forest_27,1,memory-2step-stake-s,585,1634130,0.0-18.0-0.0-0.90,4071,4,3
91,1,object_04,object_01,978.51,2,2,449.67,0.2222222222222222,2,object_05,1,874,0,5,2,desert_23,1,memory-2step-stake-s,586,1642002,0.0-18.0-0.0-0.91,4071,1,2
92,3,object_03,object_02,1098.755,5,2,666.775,0.5555555555555556,1,object_09,5,899,0,5,0,library_15,1,memory-2step-stake-s,587,1650408,0.0-18.0-0.0-0.92,4071,6,5
93,4,object_06,object_08,1306.055,7,2,551.645,0.6666666666666666,1,object_09,5,929,0,6,3,restaurant_30,1,memory-2step-stake-s,588,1658803,0.0-18.0-0.0-0.93,4071,8,7
94,3,object_03,object_02,806.85,5,2,681.325,0.6666666666666666,1,object_09,5,959,0,6,1,library_32,1,memory-2step-stake-s,589,1667325,0.0-18.0-0.0-0.94,4071,6,5
95,2,object_10,object_07,1046.365,4,1,394.32,0.2222222222222222,2,object_05,1,961,0,2,2,forest_7,1,memory-2step-stake-s,590,1675150,0.0-18.0-0.0-0.95,4071,4,3
96,4,object_06,object_08,910.135,7,2,411.14,0.1111111111111111,1,object_09,5,966,0,1,1,restaurant_22,1,memory-2step-stake-s,591,1682894,0.0-18.0-0.0-0.96,4071,8,7
97,1,object_04,object_01,921.54,2,2,150.735,0.4444444444444444,2,object_05,5,986,0,0,4,desert_4,1,memory-2step-stake-s,592,1690685,0.0-18.0-0.0-0.97,4071,1,2
98,2,object_10,object_07,1134.37,3,2,590.7,0.1111111111111111,1,object_09,1,987,0,1,4,forest_22,1,memory-2step-stake-s,593,1698603,0.0-18.0-0.0-0.98,4071,4,3
99,1,object_01,object_04,751.985,2,1,525.6,0.3333333333333333,2,object_05,1,990,0,1,3,desert_4,1,memory-2step-stake-s,594,1706660,0.0-18.0-0.0-0.99,4071,2,1
100,2,object_10,object_07,788.545,4,1,671.82,0.0,2,object_05,1,990,0,2,0,forest_27,1,memory-2step-stake-s,595,1714554,0.0-18.0-0.0-0.100,4071,4,3
101,2,object_07,object_10,945.585,3,1,534.76,0.4444444444444444,1,object_09,1,994,0,4,2,forest_8,1,memory-2step-stake-s,596,1722720,0.0-18.0-0.0-0.101,4071,3,4
102,1,object_01,object_04,1045.91,1,2,571.88,0.5555555555555556,1,object_09,5,1019,0,5,3,desert_9,1,memory-2step-stake-s,597,1731029,0.0-18.0-0.0-0.102,4071,2,1
103,3,object_02,object_03,524.865,5,1,475.715,0.4444444444444444,1,object_09,5,1039,0,4,5,library_22,1,memory-2step-stake-s,598,1739147,0.0-18.0-0.0-0.103,4071,5,6
104,1,object_04,object_01,857.99,1,1,581.55,0.7777777777777778,1,object_09,5,1074,0,7,4,desert_29,1,memory-2step-stake-s,599,1747684,0.0-18.0-0.0-0.104,4071,1,2
105,3,object_02,object_03,855.61,5,1,679.63,0.5555555555555556,1,object_09,5,1099,0,5,5,library_10,1,memory-2step-stake-s,600,1756102,0.0-18.0-0.0-0.105,4071,5,6
106,2,object_07,object_10,1036.955,3,1,489.77,0.3333333333333333,1,object_09,5,1114,0,3,6,forest_3,1,memory-2step-stake-s,601,1764122,0.0-18.0-0.0-0.106,4071,3,4
107,1,object_01,object_04,860.585,1,2,496.0,0.1111111111111111,1,object_09,5,1119,0,1,8,desert_15,1,memory-2step-stake-s,602,1771948,0.0-18.0-0.0-0.107,4071,2,1
108,1,object_01,object_04,863.685,2,1,546.96,0.8888888888888888,2,object_05,1,1127,0,2,8,desert_23,1,memory-2step-stake-s,603,1780540,0.0-18.0-0.0-0.108,4071,2,1
109,3,object_02,object_03,547.73,6,2,441.12,0.8888888888888888,2,object_05,5,1167,0,0,8,library_26,1,memory-2step-stake-s,604,1789021,0.0-18.0-0.0-0.109,4071,5,6
110,3,object_03,object_02,708.165,6,1,434.35,0.5555555555555556,2,object_05,5,1192,0,3,5,library_30,1,memory-2step-stake-s,605,1797197,0.0-18.0-0.0-0.110,4071,6,5
111,1,object_01,object_04,783.105,2,1,645.04,0.4444444444444444,2,object_05,5,1212,0,0,4,desert_8,1,memory-2step-stake-s,606,1805474,0.0-18.0-0.0-0.111,4071,2,1
112,3,object_03,object_02,1470.685,6,1,1167.355,0.4444444444444444,2,object_05,1,1216,0,1,4,library_2,1,memory-2step-stake-s,607,1814280,0.0-18.0-0.0-0.112,4071,6,5
113,2,object_07,object_10,1131.67,4,2,580.46,0.1111111111111111,2,object_05,1,1217,0,3,1,forest_19,1,memory-2step-stake-s,608,1822200,0.0-18.0-0.0-0.113,4071,3,4
114,3,object_02,object_03,1024.04,5,1,505.46,0.3333333333333333,1,object_09,1,1220,0,3,1,library_15,1,memory-2step-stake-s,609,1830232,0.0-18.0-0.0-0.114,4071,5,6
115,2,object_10,object_07,1109.085,3,2,702.49,0.5555555555555556,1,object_09,1,1225,0,5,1,forest_15,1,memory-2step-stake-s,610,1838675,0.0-18.0-0.0-0.115,4071,4,3
116,2,object_07,object_10,854.88,3,1,517.905,0.8888888888888888,1,object_09,1,1233,0,8,1,forest_9,1,memory-2step-stake-s,611,1847239,0.0-18.0-0.0-0.116,4071,3,4
117,4,object_06,object_08,1267.16,7,2,-1.0,0.0,1,object_09,5,1233,0,9,2,restaurant_14,1,memory-2step-stake-s,612,1855759,0.0-18.0-0.0-0.117,4071,8,7
118,4,object_08,object_06,820.125,7,1,465.515,0.8888888888888888,1,object_09,5,1273,0,8,3,restaurant_27,1,memory-2step-stake-s,613,1864266,0.0-18.0-0.0-0.118,4071,7,8
119,2,object_07,object_10,779.035,3,1,535.81,0.7777777777777778,1,object_09,1,1280,0,7,5,forest_9,1,memory-2step-stake-s,614,1872746,0.0-18.0-0.0-0.119,4071,3,4
120,2,object_10,object_07,612.615,3,2,492.91,0.6666666666666666,1,object_09,5,1310,0,6,6,forest_26,1,memory-2step-stake-s,615,1881082,0.0-18.0-0.0-0.120,4071,4,3
121,3,object_02,object_03,626.265,5,1,313.55,0.3333333333333333,1,object_09,5,1325,0,3,6,library_9,1,memory-2step-stake-s,616,1888932,0.0-18.0-0.0-0.121,4071,5,6
122,3,object_03,object_02,739.405,6,1,404.865,0.8888888888888888,2,object_05,5,1365,0,5,8,library_29,1,memory-2step-stake-s,617,1897399,0.0-18.0-0.0-0.122,4071,6,5
123,3,object_03,object_02,667.815,6,1,345.16,0.8888888888888888,2,object_05,5,1405,0,7,8,library_24,1,memory-2step-stake-s,618,1905798,0.0-18.0-0.0-0.123,4071,6,5
124,4,object_06,object_08,961.085,7,2,421.52,0.8888888888888888,1,object_09,5,1445,0,8,6,restaurant_14,1,memory-2step-stake-s,619,1914267,0.0-18.0-0.0-0.124,4071,8,7
125,4,object_08,object_06,964.62,7,1,465.7,0.5555555555555556,1,object_09,5,1470,0,5,7,restaurant_24,1,memory-2step-stake-s,620,1922465,0.0-18.0-0.0-0.125,4071,7,8
126,3,object_02,object_03,1146.875,6,2,532.32,0.4444444444444444,2,object_05,5,1490,0,6,4,library_26,1,memory-2step-stake-s,621,1930639,0.0-18.0-0.0-0.126,4071,5,6
127,2,object_10,object_07,1080.945,4,1,447.945,0.2222222222222222,2,object_05,5,1500,0,8,2,forest_19,1,memory-2step-stake-s,622,1938514,0.0-18.0-0.0-0.127,4071,4,3
128,4,object_06,object_08,1014.77,8,1,694.62,0.3333333333333333,2,object_05,1,1503,0,6,3,restaurant_8,1,memory-2step-stake-s,624,1954980,0.0-18.0-0.1-0.128,4071,8,7
129,3,object_03,object_02,945.525,6,1,394.82,0.0,2,object_05,1,1503,0,5,0,library_32,1,memory-2step-stake-s,625,1962605,0.0-18.0-0.1-0.129,4071,6,5
130,1,object_01,object_04,948.75,2,1,483.415,0.2222222222222222,2,object_05,1,1505,0,3,2,desert_29,1,memory-2step-stake-s,626,1970514,0.0-18.0-0.1-0.130,4071,2,1
131,4,object_08,object_06,931.53,8,2,585.915,0.4444444444444444,2,object_05,1,1509,0,1,4,restaurant_7,1,memory-2step-stake-s,627,1978744,0.0-18.0-0.1-0.131,4071,7,8
132,4,object_06,object_08,1064.005,7,2,489.395,0.1111111111111111,1,object_09,5,1514,0,1,7,restaurant_23,1,memory-2step-stake-s,628,1986558,0.0-18.0-0.1-0.132,4071,8,7
133,1,object_01,object_04,927.285,2,1,386.815,0.7777777777777778,2,object_05,1,1521,0,1,7,desert_20,1,memory-2step-stake-s,629,1994891,0.0-18.0-0.1-0.133,4071,2,1
134,4,object_08,object_06,906.1,8,2,821.375,0.6666666666666666,2,object_05,5,1551,0,0,6,restaurant_2,1,memory-2step-stake-s,630,2003549,0.0-18.0-0.1-0.134,4071,7,8
135,1,object_04,object_01,1323.89,2,2,853.59,0.6666666666666666,2,object_05,1,1557,0,1,6,desert_22,1,memory-2step-stake-s,631,2012242,0.0-18.0-0.1-0.135,4071,1,2
136,2,object_10,object_07,1196.925,4,1,621.925,0.7777777777777778,2,object_05,5,1592,0,1,7,forest_26,1,memory-2step-stake-s,632,2020815,0.0-18.0-0.1-0.136,4071,4,3
137,1,object_01,object_04,1129.325,2,1,574.035,0.6666666666666666,2,object_05,1,1598,0,1,6,desert_27,1,memory-2step-stake-s,633,2029236,0.0-18.0-0.1-0.137,4071,2,1
138,2,object_07,object_10,887.86,4,2,502.035,0.6666666666666666,2,object_05,1,1604,0,1,6,forest_8,1,memory-2step-stake-s,634,2037583,0.0-18.0-0.1-0.138,4071,3,4
139,1,object_04,object_01,1121.015,2,2,622.73,0.8888888888888888,2,object_05,1,1612,0,1,8,desert_1,1,memory-2step-stake-s,635,2046249,0.0-18.0-0.1-0.139,4071,1,2
140,3,object_03,object_02,1166.84,6,1,584.525,0.6666666666666666,2,object_05,5,1642,0,1,6,library_30,1,memory-2step-stake-s,636,2054672,0.0-18.0-0.1-0.140,4071,6,5
141,2,object_07,object_10,796.535,4,2,469.035,0.6666666666666666,2,object_05,5,1672,0,0,6,forest_27,1,memory-2step-stake-s,637,2062978,0.0-18.0-0.1-0.141,4071,3,4
142,2,object_10,object_07,1454.135,4,1,448.69,0.6666666666666666,2,object_05,5,1702,0,2,6,forest_20,1,memory-2step-stake-s,638,2071264,0.0-18.0-0.1-0.142,4071,4,3
143,4,object_06,object_08,868.37,8,1,552.905,0.8888888888888888,2,object_05,5,1742,0,1,8,restaurant_32,1,memory-2step-stake-s,639,2079862,0.0-18.0-0.1-0.143,4071,8,7
144,4,object_08,object_06,785.545,8,2,639.555,0.5555555555555556,2,object_05,5,1767,0,2,5,restaurant_21,1,memory-2step-stake-s,640,2088235,0.0-18.0-0.1-0.144,4071,7,8
145,1,object_01,object_04,735.15,2,1,430.595,0.2222222222222222,2,object_05,1,1769,0,3,2,desert_23,1,memory-2step-stake-s,641,2096092,0.0-18.0-0.1-0.145,4071,2,1
146,4,object_08,object_06,1134.935,7,1,520.965,0.5555555555555556,1,object_09,5,1794,0,5,0,restaurant_21,1,memory-2step-stake-s,642,2104358,0.0-18.0-0.1-0.146,4071,7,8
147,1,object_04,object_01,814.725,1,1,481.68,0.7777777777777778,1,object_09,1,1801,0,7,1,desert_9,1,memory-2step-stake-s,643,2112782,0.0-18.0-0.1-0.147,4071,1,2
148,1,object_04,object_01,936.335,1,1,694.84,0.7777777777777778,1,object_09,5,1836,0,7,6,desert_8,1,memory-2step-stake-s,644,2121420,0.0-18.0-0.1-0.148,4071,1,2
149,1,object_04,object_01,470.435,1,1,450.67,0.7777777777777778,1,object_09,1,1843,0,7,5,desert_18,1,memory-2step-stake-s,645,2129815,0.0-18.0-0.1-0.149,4071,1,2
150,1,object_04,object_01,694.405,1,1,462.455,0.6666666666666666,1,object_09,5,1873,0,6,2,desert_8,1,memory-2step-stake-s,646,2138114,0.0-18.0-0.1-0.150,4071,1,2
151,2,object_07,object_10,1365.105,3,1,589.225,0.5555555555555556,1,object_09,1,1878,0,5,3,forest_15,1,memory-2step-stake-s,647,2146449,0.0-18.0-0.1-0.151,4071,3,4
152,2,object_10,object_07,545.15,3,2,611.16,0.1111111111111111,1,object_09,1,1879,0,1,3,forest_19,1,memory-2step-stake-s,648,2154383,0.0-18.0-0.1-0.152,4071,4,3
153,2,object_10,object_07,648.12,4,1,458.92,0.3333333333333333,2,object_05,1,1882,0,3,3,forest_14,1,memory-2step-stake-s,649,2162382,0.0-18.0-0.1-0.153,4071,4,3
154,4,object_06,object_08,1184.585,8,1,581.56,0.5555555555555556,2,object_05,5,1907,0,1,5,restaurant_30,1,memory-2step-stake-s,650,2170699,0.0-18.0-0.1-0.154,4071,8,7
155,1,object_04,object_01,537.725,1,1,490.935,0.3333333333333333,1,object_09,5,1922,0,3,4,desert_14,1,memory-2step-stake-s,651,2178724,0.0-18.0-0.1-0.155,4071,1,2
156,3,object_03,object_02,927.495,5,2,522.125,0.7777777777777778,1,object_09,5,1957,0,7,2,library_22,1,memory-2step-stake-s,652,2187186,0.0-18.0-0.1-0.156,4071,6,5
157,4,object_08,object_06,1153.2,8,2,546.125,0.1111111111111111,2,object_05,1,1958,0,9,1,restaurant_21,1,memory-2step-stake-s,653,2195060,0.0-18.0-0.1-0.157,4071,7,8
158,4,object_08,object_06,652.55,7,1,473.46,0.8888888888888888,1,object_09,5,1998,0,8,0,restaurant_29,1,memory-2step-stake-s,654,2203586,0.0-18.0-0.1-0.158,4071,7,8
159,2,object_10,object_07,1454.305,3,2,561.73,0.7777777777777778,1,object_09,1,2005,0,7,4,forest_8,1,memory-2step-stake-s,655,2212089,0.0-18.0-0.1-0.159,4071,4,3
160,1,object_04,object_01,1223.73,2,2,506.185,0.0,2,object_05,1,2005,0,5,0,desert_14,1,memory-2step-stake-s,656,2219829,0.0-18.0-0.1-0.160,4071,1,2
161,2,object_07,object_10,862.13,3,1,472.75,0.6666666666666666,1,object_09,1,2011,0,6,1,forest_31,1,memory-2step-stake-s,657,2228154,0.0-18.0-0.1-0.161,4071,3,4
162,3,object_03,object_02,1143.535,5,2,545.26,0.4444444444444444,1,object_09,5,2031,0,4,1,library_22,1,memory-2step-stake-s,658,2236341,0.0-18.0-0.1-0.162,4071,6,5
163,1,object_04,object_01,1057.25,2,2,523.395,0.2222222222222222,2,object_05,5,2041,0,5,2,desert_25,1,memory-2step-stake-s,659,2244293,0.0-18.0-0.1-0.163,4071,1,2
164,2,object_07,object_10,856.98,3,1,493.585,0.5555555555555556,1,object_09,1,2046,0,5,2,forest_31,1,memory-2step-stake-s,660,2252523,0.0-18.0-0.1-0.164,4071,3,4
165,1,object_01,object_04,805.0,2,1,476.83,0.2222222222222222,2,object_05,1,2048,0,3,2,desert_4,1,memory-2step-stake-s,661,2260427,0.0-18.0-0.1-0.165,4071,2,1
166,2,object_07,object_10,1246.985,3,1,508.995,0.2222222222222222,1,object_09,1,2050,0,2,1,forest_22,1,memory-2step-stake-s,662,2268364,0.0-18.0-0.1-0.166,4071,3,4
167,3,object_02,object_03,900.53,5,1,500.42,0.0,1,object_09,5,2050,0,0,3,library_1,1,memory-2step-stake-s,663,2276099,0.0-18.0-0.1-0.167,4071,5,6
168,4,object_08,object_06,1152.81,7,1,93.605,0.3333333333333333,1,object_09,1,2053,0,3,2,restaurant_7,1,memory-2step-stake-s,664,2283724,0.0-18.0-0.1-0.168,4071,7,8
169,2,object_07,object_10,1065.725,4,2,523.085,0.3333333333333333,2,object_05,1,2056,0,2,3,forest_29,1,memory-2step-stake-s,665,2291769,0.0-18.0-0.1-0.169,4071,3,4
170,4,object_08,object_06,853.58,8,2,676.525,0.5555555555555556,2,object_05,5,2081,0,4,5,restaurant_2,1,memory-2step-stake-s,666,2300185,0.0-18.0-0.1-0.170,4071,7,8
171,1,object_04,object_01,683.01,1,1,454.555,0.4444444444444444,1,object_09,1,2085,0,4,6,desert_23,1,memory-2step-stake-s,667,2308258,0.0-18.0-0.1-0.171,4071,1,2
172,1,object_04,object_01,684.54,1,1,1058.4,0.3333333333333333,1,object_09,1,2088,0,3,6,desert_29,1,memory-2step-stake-s,668,2316861,0.0-18.0-0.1-0.172,4071,1,2
173,3,object_03,object_02,745.16,6,1,733.925,0.7777777777777778,2,object_05,5,2123,0,2,7,library_1,1,memory-2step-stake-s,669,2325542,0.0-18.0-0.1-0.173,4071,6,5
174,1,object_04,object_01,1272.29,2,2,559.545,0.5555555555555556,2,object_05,5,2148,0,4,5,desert_22,1,memory-2step-stake-s,670,2333835,0.0-18.0-0.1-0.174,4071,1,2
175,1,object_04,object_01,840.04,1,1,466.155,0.0,1,object_09,1,2148,0,0,6,desert_1,1,memory-2step-stake-s,671,2341527,0.0-18.0-0.1-0.175,4071,1,2
176,4,object_06,object_08,1287.55,7,2,581.775,0.0,1,object_09,5,2148,0,0,3,restaurant_8,1,memory-2step-stake-s,672,2349339,0.0-18.0-0.1-0.176,4071,8,7
177,4,object_08,object_06,1065.435,7,1,645.455,0.3333333333333333,1,object_09,1,2151,0,3,6,restaurant_2,1,memory-2step-stake-s,673,2357527,0.0-18.0-0.1-0.177,4071,7,8
178,4,object_08,object_06,604.035,7,1,390.545,0.8888888888888888,1,object_09,1,2159,0,8,5,restaurant_14,1,memory-2step-stake-s,674,2365965,0.0-18.0-0.1-0.178,4071,7,8
179,3,object_03,object_02,-1.0,-1,-1,-1.0,0.0,-,,5,2159,0,7,8,library_29,1,memory-2step-stake-s,675,2372490,0.0-18.0-0.1-0.179,4071,6,5
180,4,object_08,object_06,1439.2,8,2,754.52,0.6666666666666666,2,object_05,5,2189,0,3,6,restaurant_1,1,memory-2step-stake-s,676,2381083,0.0-18.0-0.1-0.180,4071,7,8
181,4,object_08,object_06,725.055,8,2,469.72,0.8888888888888888,2,object_05,1,2197,0,2,8,restaurant_30,1,memory-2step-stake-s,677,2389606,0.0-18.0-0.1-0.181,4071,7,8
182,1,object_04,object_01,876.275,2,2,496.77,0.8888888888888888,2,object_05,5,2237,0,2,8,desert_8,1,memory-2step-stake-s,678,2398150,0.0-18.0-0.1-0.182,4071,1,2
183,2,object_10,object_07,721.805,4,1,477.335,0.8888888888888888,2,object_05,5,2277,0,0,8,forest_31,1,memory-2step-stake-s,679,2406674,0.0-18.0-0.1-0.183,4071,4,3
184,4,object_08,object_06,1093.985,7,1,499.02,0.3333333333333333,1,object_09,5,2292,0,3,6,restaurant_12,1,memory-2step-stake-s,680,2414706,0.0-18.0-0.1-0.184,4071,7,8
185,1,object_01,object_04,905.79,2,1,484.035,0.8888888888888888,2,object_05,1,2300,0,5,8,desert_18,1,memory-2step-stake-s,681,2423229,0.0-18.0-0.1-0.185,4071,2,1
186,1,object_04,object_01,504.665,2,2,384.05,0.8888888888888888,2,object_05,5,2340,0,2,8,desert_4,1,memory-2step-stake-s,682,2431661,0.0-18.0-0.1-0.186,4071,1,2
187,2,object_07,object_10,1110.12,3,1,752.15,0.4444444444444444,1,object_09,1,2344,0,4,4,forest_22,1,memory-2step-stake-s,683,2440051,0.0-18.0-0.1-0.187,4071,3,4
188,4,object_08,object_06,1299.79,7,1,420.545,0.3333333333333333,1,object_09,5,2359,0,3,7,restaurant_30,1,memory-2step-stake-s,684,2448008,0.0-18.0-0.1-0.188,4071,7,8
189,3,object_02,object_03,1107.65,5,1,744.555,0.3333333333333333,1,object_09,1,2362,0,3,9,library_17,1,memory-2step-stake-s,685,2456286,0.0-18.0-0.1-0.189,4071,5,6
190,2,object_10,object_07,1205.575,4,1,719.53,0.8888888888888888,2,object_05,5,2402,0,5,8,forest_3,1,memory-2step-stake-s,686,2465049,0.0-18.0-0.1-0.190,4071,4,3
191,2,object_07,object_10,810.655,3,1,463.7,0.4444444444444444,1,object_09,1,2406,0,4,8,forest_26,1,memory-2step-stake-s,687,2473145,0.0-18.0-0.1-0.191,4071,3,4
192,3,object_02,object_03,1271.745,6,2,526.11,0.7777777777777778,2,object_05,1,2413,0,6,7,library_26,1,memory-2step-stake-s,688,2481617,0.0-18.0-0.1-0.192,4071,5,6
193,1,object_01,object_04,1015.435,1,2,597.295,0.8888888888888888,1,object_09,1,2421,0,8,7,desert_12,1,memory-2step-stake-s,689,2490269,0.0-18.0-0.1-0.193,4071,2,1
194,3,object_02,object_03,461.25,6,2,492.385,0.6666666666666666,2,object_05,5,2451,0,8,6,library_10,1,memory-2step-stake-s,690,2498602,0.0-18.0-0.1-0.194,4071,5,6
195,2,object_10,object_07,965.595,4,1,530.625,0.5555555555555556,2,object_05,1,2456,0,7,5,forest_25,1,memory-2step-stake-s,691,2506869,0.0-18.0-0.1-0.195,4071,4,3
196,3,object_03,object_02,939.245,6,1,519.745,0.7777777777777778,2,object_05,1,2463,0,8,7,library_25,1,memory-2step-stake-s,692,2515338,0.0-18.0-0.1-0.196,4071,6,5
197,4,object_06,object_08,954.945,7,2,512.84,0.8888888888888888,1,object_09,5,2503,0,8,7,restaurant_9,1,memory-2step-stake-s,693,2523893,0.0-18.0-0.1-0.197,4071,8,7
198,4,object_06,object_08,578.485,7,2,650.195,0.6666666666666666,1,object_09,5,2533,0,6,4,restaurant_24,1,memory-2step-stake-s,694,2532382,0.0-18.0-0.1-0.198,4071,8,7
199,3,object_03,object_02,524.14,6,1,477.715,1.0,2,object_05,5,2578,0,6,9,library_1,1,memory-2step-stake-s,695,2541014,0.0-18.0-0.1-0.199,4071,6,5
200,2,object_10,object_07,961.045,4,1,426.79,0.7777777777777778,2,object_05,1,2585,0,7,7,forest_29,1,memory-2step-stake-s,696,2549386,0.0-18.0-0.1-0.200,4071,4,3
201,4,object_06,object_08,735.68,7,2,433.19,0.5555555555555556,1,object_09,5,2610,0,5,8,restaurant_29,1,memory-2step-stake-s,697,2557544,0.0-18.0-0.1-0.201,4071,8,7
202,3,object_03,object_02,451.92,6,1,400.05,1.0,2,object_05,5,2655,0,7,9,library_26,1,memory-2step-stake-s,698,2566097,0.0-18.0-0.1-0.202,4071,6,5
203,3,object_02,object_03,444.08,6,2,627.95,0.7777777777777778,2,object_05,1,2662,0,6,7,library_24,1,memory-2step-stake-s,699,2574671,0.0-18.0-0.1-0.203,4071,5,6
204,1,object_04,object_01,878.85,1,1,642.47,0.8888888888888888,1,object_09,1,2670,0,8,8,desert_18,1,memory-2step-stake-s,700,2583356,0.0-18.0-0.1-0.204,4071,1,2
205,3,object_02,object_03,-1.0,-1,-1,-1.0,0.0,-,,5,2670,0,6,6,library_17,1,memory-2step-stake-s,701,2589879,0.0-18.0-0.1-0.205,4071,5,6
206,1,object_01,object_04,1296.6,2,1,602.425,0.3333333333333333,2,object_05,1,2673,0,7,3,desert_1,1,memory-2step-stake-s,702,2598013,0.0-18.0-0.1-0.206,4071,2,1
207,2,object_07,object_10,569.54,3,1,406.71,0.3333333333333333,1,object_09,1,2676,0,3,3,forest_31,1,memory-2step-stake-s,703,2605954,0.0-18.0-0.1-0.207,4071,3,4
208,3,object_02,object_03,822.115,6,2,523.505,0.0,2,object_05,5,2676,0,1,0,library_1,1,memory-2step-stake-s,704,2613698,0.0-18.0-0.1-0.208,4071,5,6
209,2,object_10,object_07,955.605,3,2,562.555,0.0,1,object_09,1,2676,0,0,3,forest_14,1,memory-2step-stake-s,705,2621490,0.0-18.0-0.1-0.209,4071,4,3
210,4,object_08,object_06,784.12,7,1,412.525,0.2222222222222222,1,object_09,5,2686,0,2,3,restaurant_12,1,memory-2step-stake-s,706,2629326,0.0-18.0-0.1-0.210,4071,7,8
211,1,object_04,object_01,864.645,2,2,489.205,0.5555555555555556,2,object_05,1,2691,0,3,5,desert_22,1,memory-2step-stake-s,707,2637548,0.0-18.0-0.1-0.211,4071,1,2
212,1,object_04,object_01,989.8,2,2,523.585,0.3333333333333333,2,object_05,1,2694,0,3,3,desert_27,1,memory-2step-stake-s,708,2645598,0.0-18.0-0.1-0.212,4071,1,2
213,1,object_04,object_01,923.535,2,2,434.015,0.4444444444444444,2,object_05,5,2714,0,5,4,desert_17,1,memory-2step-stake-s,709,2653668,0.0-18.0-0.1-0.213,4071,1,2
214,2,object_10,object_07,1013.2,3,2,501.74,0.6666666666666666,1,object_09,1,2720,0,6,2,forest_23,1,memory-2step-stake-s,710,2662014,0.0-18.0-0.1-0.214,4071,4,3
215,4,object_06,object_08,830.275,8,1,529.2,0.0,2,object_05,5,2720,0,4,0,restaurant_7,1,memory-2step-stake-s,711,2669769,0.0-18.0-0.1-0.215,4071,8,7
216,4,object_06,object_08,566.825,7,2,888.92,0.3333333333333333,1,object_09,5,2735,0,3,1,restaurant_14,1,memory-2step-stake-s,712,2678201,0.0-18.0-0.1-0.216,4071,8,7
217,4,object_06,object_08,629.135,7,2,616.59,0.0,1,object_09,5,2735,0,0,3,restaurant_27,1,memory-2step-stake-s,713,2686047,0.0-18.0-0.1-0.217,4071,8,7
218,2,object_10,object_07,1100.04,3,2,1448.795,0.3333333333333333,1,object_09,1,2738,0,3,8,forest_3,1,memory-2step-stake-s,714,2695029,0.0-18.0-0.1-0.218,4071,4,3
219,1,object_04,object_01,848.425,1,1,460.875,0.2222222222222222,1,object_09,1,2740,0,2,6,desert_9,1,memory-2step-stake-s,715,2702928,0.0-18.0-0.1-0.219,4071,1,2
220,3,object_02,object_03,867.84,5,1,445.365,0.1111111111111111,1,object_09,5,2745,0,1,7,library_5,1,memory-2step-stake-s,716,2710704,0.0-18.0-0.1-0.220,4071,5,6
221,3,object_02,object_03,446.375,6,2,1422.345,0.7777777777777778,2,object_05,5,2780,0,2,7,library_15,1,memory-2step-stake-s,717,2720059,0.0-18.0-0.1-0.221,4071,5,6
222,3,object_02,object_03,1043.58,6,2,840.22,0.8888888888888888,2,object_05,1,2788,0,4,8,library_29,1,memory-2step-stake-s,718,2728943,0.0-18.0-0.1-0.222,4071,5,6
223,2,object_10,object_07,1135.085,3,2,522.78,0.1111111111111111,1,object_09,1,2789,0,1,9,forest_3,1,memory-2step-stake-s,719,2736787,0.0-18.0-0.1-0.223,4071,4,3
224,1,object_01,object_04,1321.105,2,1,596.625,0.8888888888888888,2,object_05,1,2797,0,4,8,desert_9,1,memory-2step-stake-s,720,2745420,0.0-18.0-0.1-0.224,4071,2,1
225,1,object_01,object_04,678.24,2,1,500.77,0.7777777777777778,2,object_05,1,2804,0,7,7,desert_29,1,memory-2step-stake-s,721,2753867,0.0-18.0-0.1-0.225,4071,2,1
226,2,object_07,object_10,882.96,3,1,423.69,1.0,1,object_09,5,2849,0,9,7,forest_25,1,memory-2step-stake-s,722,2762434,0.0-18.0-0.1-0.226,4071,3,4
227,1,object_01,object_04,1233.28,2,1,516.89,0.7777777777777778,2,object_05,1,2856,0,8,7,desert_12,1,memory-2step-stake-s,723,2770898,0.0-18.0-0.1-0.227,4071,2,1
228,2,object_10,object_07,1414.495,3,2,655.225,0.8888888888888888,1,object_09,1,2864,0,8,7,forest_11,1,memory-2step-stake-s,724,2779613,0.0-18.0-0.1-0.228,4071,4,3
229,2,object_10,object_07,1211.49,3,2,680.535,0.5555555555555556,1,object_09,1,2869,0,5,8,forest_29,1,memory-2step-stake-s,725,2788036,0.0-18.0-0.1-0.229,4071,4,3
230,4,object_08,object_06,1234.59,7,1,537.5,0.4444444444444444,1,object_09,5,2889,0,4,7,restaurant_27,1,memory-2step-stake-s,726,2796216,0.0-18.0-0.1-0.230,4071,7,8
231,4,object_08,object_06,886.68,7,1,502.91,0.6666666666666666,1,object_09,5,2919,0,6,4,restaurant_22,1,memory-2step-stake-s,727,2804567,0.0-18.0-0.1-0.231,4071,7,8
232,3,object_03,object_02,1203.705,5,2,498.205,0.6666666666666666,1,object_09,5,2949,0,6,6,library_2,1,memory-2step-stake-s,728,2812904,0.0-18.0-0.1-0.232,4071,6,5
233,4,object_06,object_08,771.36,7,2,463.985,0.5555555555555556,1,object_09,5,2974,0,5,8,restaurant_9,1,memory-2step-stake-s,729,2821109,0.0-18.0-0.1-0.233,4071,8,7
234,1,object_01,object_04,665.02,2,1,460.39,1.0,2,object_05,1,2983,0,7,9,desert_17,1,memory-2step-stake-s,730,2829716,0.0-18.0-0.1-0.234,4071,2,1
235,1,object_01,object_04,796.26,2,1,665.98,1.0,2,object_05,1,2992,0,5,9,desert_3,1,memory-2step-stake-s,731,2838516,0.0-18.0-0.1-0.235,4071,2,1
236,3,object_03,object_02,932.755,6,1,438.92,1.0,2,object_05,5,3037,0,7,9,library_29,1,memory-2step-stake-s,732,2847108,0.0-18.0-0.1-0.236,4071,6,5
237,3,object_02,object_03,688.505,6,2,506.97,0.6666666666666666,2,object_05,5,3067,0,8,6,library_14,1,memory-2step-stake-s,733,2855449,0.0-18.0-0.1-0.237,4071,5,6
238,1,object_01,object_04,505.75,2,1,500.09,1.0,2,object_05,1,3076,0,7,9,desert_20,1,memory-2step-stake-s,734,2864100,0.0-18.0-0.1-0.238,4071,2,1
239,4,object_08,object_06,1260.7,7,1,670.7899999,0.6666666666666666,1,object_09,5,3106,0,6,8,restaurant_8,1,memory-2step-stake-s,735,2872608,0.0-18.0-0.1-0.239,4071,7,8
240,4,object_06,object_08,536.105,7,2,482.02,0.5555555555555556,1,object_09,5,3131,0,5,6,restaurant_16,1,memory-2step-stake-s,736,2880837,0.0-18.0-0.1-0.240,4071,8,7
241,4,object_06,object_08,760.885,7,2,544.075,0.3333333333333333,1,object_09,5,3146,0,3,9,restaurant_32,1,memory-2step-stake-s,737,2888912,0.0-18.0-0.1-0.241,4071,8,7
242,2,object_10,object_07,953.39,3,2,501.85,0.2222222222222222,1,object_09,1,3148,0,2,9,forest_15,1,memory-2step-stake-s,738,2896843,0.0-18.0-0.1-0.242,4071,4,3
243,3,object_03,object_02,1299.005,6,1,690.435,0.8888888888888888,2,object_05,5,3188,0,2,8,library_25,1,memory-2step-stake-s,739,2905585,0.0-18.0-0.1-0.243,4071,6,5
244,1,object_04,object_01,1114.925,1,1,461.56,0.2222222222222222,1,object_09,1,3190,0,2,7,desert_3,1,memory-2step-stake-s,740,2913485,0.0-18.0-0.1-0.244,4071,1,2
245,3,object_02,object_03,1130.45,5,1,458.015,0.3333333333333333,1,object_09,5,3205,0,3,4,library_10,1,memory-2step-stake-s,741,2921482,0.0-18.0-0.1-0.245,4071,5,6
246,1,object_01,object_04,805.745,1,2,373.69,0.2222222222222222,1,object_09,1,3207,0,2,7,desert_14,1,memory-2step-stake-s,742,2929282,0.0-18.0-0.1-0.246,4071,2,1
247,3,object_02,object_03,800.23,6,2,523.275,1.0,2,object_05,5,3252,0,2,9,library_14,1,memory-2step-stake-s,743,2937959,0.0-18.0-0.1-0.247,4071,5,6
248,2,object_10,object_07,1260.135,4,1,509.46,0.7777777777777778,2,object_05,1,3259,0,3,7,forest_11,1,memory-2step-stake-s,744,2946407,0.0-18.0-0.1-0.248,4071,4,3
249,4,object_06,object_08,-1.0,-1,-1,-1.0,0.0,-,,1,3259,0,3,8,restaurant_1,1,memory-2step-stake-s,745,2952920,0.0-18.0-0.1-0.249,4071,8,7
250,1,object_04,object_01,681.935,1,1,412.62,0.2222222222222222,1,object_09,5,3269,0,2,5,desert_20,1,memory-2step-stake-s,746,2960764,0.0-18.0-0.1-0.250,4071,1,2
251,4,object_06,object_08,929.895,8,1,515.175,0.4444444444444444,2,object_05,5,3289,0,1,4,restaurant_22,1,memory-2step-stake-s,747,2968928,0.0-18.0-0.1-0.251,4071,8,7
252,4,object_08,object_06,860.105,8,2,664.085,0.3333333333333333,2,object_05,5,3304,0,0,3,restaurant_23,1,memory-2step-stake-s,748,2977123,0.0-18.0-0.1-0.252,4071,7,8
253,1,object_04,object_01,727.66,2,2,665.23,0.0,2,object_05,5,3304,0,3,0,desert_12,1,memory-2step-stake-s,749,2985011,0.0-18.0-0.1-0.253,4071,1,2
254,4,object_06,object_08,925.985,7,2,543.505,0.3333333333333333,1,object_09,1,3307,0,3,2,restaurant_12,1,memory-2step-stake-s,750,2993086,0.0-18.0-0.1-0.254,4071,8,7
255,1,object_04,object_01,615.575,1,1,634.55,0.0,1,object_09,1,3307,0,0,1,desert_15,1,memory-2step-stake-s,751,3000947,0.0-18.0-0.1-0.255,4071,1,2
