,state1,stim_left,stim_right,rt_1,choice1,response1,rt_2,points,state2,stim_state2,stake,score,practice,rews1,rews2,background,high_arm,trial_type,trial_index,time_elapsed,internal_node_id,subid,stim_left_num,stim_right_num
0,4,object_08,object_05,1237.4,8,2,-1.0,0.0,2,object_06,5,0,0,1,6,restaurant_7,1,memory-2step-stake-s,495,2918724,0.0-18.0-0.0-0.0,3831,7,8
1,4,object_08,object_05,928.8399999,7,1,981.7899999,0.3333333333333333,1,object_07,1,3,0,3,4,restaurant_8,1,memory-2step-stake-s,496,2927245,0.0-18.0-0.0-0.1,3831,7,8
2,2,object_04,object_09,893.2950001,4,2,146.2900001,0.4444444444444444,2,object_06,5,23,0,3,4,forest_4,1,memory-2step-stake-s,497,2935033,0.0-18.0-0.0-0.2,3831,3,4
3,4,object_05,object_08,622.83,8,1,734.185,0.1111111111111111,2,object_06,5,28,0,4,1,restaurant_14,1,memory-2step-stake-s,498,2943108,0.0-18.0-0.0-0.3,3831,8,7
4,4,object_05,object_08,497.3900001,7,2,594.1300001,0.1111111111111111,1,object_07,5,33,0,1,5,restaurant_3,1,memory-2step-stake-s,499,2951038,0.0-18.0-0.0-0.4,3831,8,7
5,4,object_05,object_08,414.0899999,8,1,443.365,1.0,2,object_06,5,78,0,5,9,restaurant_17,1,memory-2step-stake-s,500,2959637,0.0-18.0-0.0-0.5,3831,8,7
6,1,object_10,object_02,-1.0,-1,-1,-1.0,0.0,-,,1,78,0,7,9,desert_21,1,memory-2step-stake-s,501,2966159,0.0-18.0-0.0-0.6,3831,2,1
7,1,object_02,object_10,-1.0,-1,-1,-1.0,0.0,-,,1,78,0,5,7,desert_9,1,memory-2step-stake-s,502,2972685,0.0-18.0-0.0-0.7,3831,1,2
8,2,object_09,object_04,997.9900001,3,2,876.065,0.2222222222222222,1,object_07,1,80,0,2,6,forest_4,1,memory-2step-stake-s,503,2980997,0.0-18.0-0.0-0.8,3831,4,3
9,1,object_10,object_02,592.5200002,2,1,975.7300001,0.7777777777777778,2,object_06,1,87,0,0,7,desert_28,1,memory-2step-stake-s,504,2989913,0.0-18.0-0.0-0.9,3831,2,1
10,2,object_09,object_04,661.905,3,2,908.7150001,0.1111111111111111,1,object_07,1,88,0,1,6,forest_31,1,memory-2step-stake-s,505,2998165,0.0-18.0-0.0-0.10,3831,4,3
11,3,object_03,object_01,549.7649999,5,1,881.5599999,0.1111111111111111,1,object_07,5,93,0,1,5,library_8,1,memory-2step-stake-s,506,3006379,0.0-18.0-0.0-0.11,3831,5,6
12,4,object_05,object_08,689.245,7,2,489.7749999,0.0,1,object_07,5,93,0,0,6,restaurant_15,1,memory-2step-stake-s,507,3014097,0.0-18.0-0.0-0.12,3831,8,7
13,1,object_10,object_02,1275.95,1,2,1084.875,0.2222222222222222,1,object_07,5,103,0,2,8,desert_9,1,memory-2step-stake-s,508,3022616,0.0-18.0-0.0-0.13,3831,2,1
14,4,object_08,object_05,854.03,7,1,561.83,0.2222222222222222,1,object_07,5,113,0,2,7,restaurant_6,1,memory-2step-stake-s,509,3030613,0.0-18.0-0.0-0.14,3831,7,8
15,2,object_09,object_04,1318.865,4,1,810.2199999,0.8888888888888888,2,object_06,1,121,0,2,8,forest_13,1,memory-2step-stake-s,510,3039477,0.0-18.0-0.0-0.15,3831,4,3
16,3,object_03,object_01,1034.645,6,2,1009.18,0.6666666666666666,2,object_06,5,151,0,2,6,library_10,1,memory-2step-stake-s,511,3048332,0.0-18.0-0.0-0.16,3831,5,6
17,4,object_08,object_05,994.8100001,8,2,648.1650001,0.5555555555555556,2,object_06,1,156,0,5,5,restaurant_8,1,memory-2step-stake-s,512,3056726,0.0-18.0-0.0-0.17,3831,7,8
18,3,object_01,object_03,-1.0,-1,-1,-1.0,0.0,-,,5,156,0,5,4,library_28,1,memory-2step-stake-s,513,3063247,0.0-18.0-0.0-0.18,3831,6,5
19,2,object_09,object_04,1248.195,4,1,610.8249999,0.3333333333333333,2,object_06,1,159,0,1,3,forest_13,1,memory-2step-stake-s,514,3071392,0.0-18.0-0.0-0.19,3831,4,3
20,4,object_05,object_08,567.0049998,7,2,1013.485,0.1111111111111111,1,object_07,5,164,0,1,1,restaurant_11,1,memory-2step-stake-s,515,3079734,0.0-18.0-0.0-0.20,3831,8,7
21,3,object_03,object_01,513.4099999,5,1,1451.34,0.1111111111111111,1,object_07,5,169,0,1,0,library_11,1,memory-2step-stake-s,516,3088516,0.0-18.0-0.0-0.21,3831,5,6
22,2,object_09,object_04,1423.96,4,1,569.3349999,0.3333333333333333,2,object_06,1,172,0,2,3,forest_29,1,memory-2step-stake-s,517,3096625,0.0-18.0-0.0-0.22,3831,4,3
23,2,object_04,object_09,1226.88,4,2,450.86,0.1111111111111111,2,object_06,5,177,0,1,1,forest_13,1,memory-2step-stake-s,518,3104400,0.0-18.0-0.0-0.23,3831,3,4
24,3,object_03,object_01,710.53,5,1,970.43,0.0,1,object_07,5,177,0,0,1,library_21,1,memory-2step-stake-s,519,3112603,0.0-18.0-0.0-0.24,3831,5,6
25,1,object_10,object_02,-1.0,-1,-1,-1.0,0.0,-,,1,177,0,2,0,desert_1,1,memory-2step-stake-s,520,3119131,0.0-18.0-0.0-0.25,3831,2,1
26,2,object_04,object_09,1297.935,4,2,463.23500010000004,0.2222222222222222,2,object_06,1,179,0,1,2,forest_4,1,memory-2step-stake-s,521,3127029,0.0-18.0-0.0-0.26,3831,3,4
27,3,object_03,object_01,614.575,5,1,1150.65,0.1111111111111111,1,object_07,5,184,0,1,2,library_11,1,memory-2step-stake-s,522,3135513,0.0-18.0-0.0-0.27,3831,5,6
28,3,object_01,object_03,611.3750001,5,2,669.4399999,0.0,1,object_07,5,184,0,0,1,library_23,1,memory-2step-stake-s,523,3143414,0.0-18.0-0.0-0.28,3831,6,5
29,1,object_10,object_02,538.7299998999999,2,1,820.1850001,0.1111111111111111,2,object_06,1,185,0,5,1,desert_22,1,memory-2step-stake-s,524,3151574,0.0-18.0-0.0-0.29,3831,2,1
30,1,object_10,object_02,909.6550001,2,1,870.165,0.0,2,object_06,1,185,0,5,0,desert_5,1,memory-2step-stake-s,525,3159672,0.0-18.0-0.0-0.30,3831,2,1
31,1,object_10,object_02,-1.0,-1,-1,-1.0,0.0,-,,1,185,0,6,1,desert_28,1,memory-2step-stake-s,526,3166200,0.0-18.0-0.0-0.31,3831,2,1
32,2,object_04,object_09,538.28,4,2,1321.61,0.0,2,object_06,1,185,0,8,0,forest_23,1,memory-2step-stake-s,527,3174755,0.0-18.0-0.0-0.32,3831,3,4
33,1,object_02,object_10,1130.39,2,2,496.7199999,0.4444444444444444,2,object_06,5,205,0,9,4,desert_5,1,memory-2step-stake-s,528,3182896,0.0-18.0-0.0-0.33,3831,1,2
34,2,object_04,object_09,475.5850001,3,1,724.96,0.7777777777777778,1,object_07,1,212,0,7,4,forest_3,1,memory-2step-stake-s,529,3191571,0.0-18.0-0.0-0.34,3831,3,4
35,3,object_01,object_03,633.535,5,2,-1.0,0.0,1,object_07,5,212,0,6,2,library_19,1,memory-2step-stake-s,530,3200105,0.0-18.0-0.0-0.35,3831,6,5
36,3,object_01,object_03,1306.45,6,1,523.1649999,0.1111111111111111,2,object_06,5,217,0,7,1,library_23,1,memory-2step-stake-s,531,3207958,0.0-18.0-0.0-0.36,3831,6,5
37,2,object_09,object_04,552.6149998999999,3,2,209.0850002,0.8888888888888888,1,object_07,1,225,0,8,4,forest_30,1,memory-2step-stake-s,532,3216220,0.0-18.0-0.0-0.37,3831,4,3
38,1,object_10,object_02,971.07,2,1,499.1049999,0.5555555555555556,2,object_06,1,230,0,6,5,desert_10,1,memory-2step-stake-s,533,3224460,0.0-18.0-0.0-0.38,3831,2,1
39,1,object_10,object_02,443.00999979999995,1,2,672.1350001000001,0.3333333333333333,1,object_07,1,233,0,3,5,desert_9,1,memory-2step-stake-s,534,3232673,0.0-18.0-0.0-0.39,3831,2,1
40,2,object_04,object_09,410.25,3,1,544.215,0.1111111111111111,1,object_07,1,234,0,1,6,forest_2,1,memory-2step-stake-s,535,3240551,0.0-18.0-0.0-0.40,3831,3,4
41,2,object_09,object_04,-1.0,-1,-1,-1.0,0.0,-,,1,234,0,2,6,forest_22,1,memory-2step-stake-s,536,3247077,0.0-18.0-0.0-0.41,3831,4,3
42,4,object_08,object_05,549.3650001,8,2,672.9049999,0.8888888888888888,2,object_06,5,274,0,1,8,restaurant_7,1,memory-2step-stake-s,537,3255805,0.0-18.0-0.0-0.42,3831,7,8
43,4,object_05,object_08,-1.0,-1,-1,-1.0,0.0,-,,1,274,0,2,5,restaurant_32,1,memory-2step-stake-s,538,3262331,0.0-18.0-0.0-0.43,3831,8,7
44,2,object_04,object_09,595.31,3,1,554.455,0.7777777777777778,1,object_07,1,281,0,7,7,forest_30,1,memory-2step-stake-s,539,3270841,0.0-18.0-0.0-0.44,3831,3,4
45,2,object_04,object_09,684.0550001,4,2,591.89,0.6666666666666666,2,object_06,1,287,0,6,6,forest_18,1,memory-2step-stake-s,540,3279281,0.0-18.0-0.0-0.45,3831,3,4
46,4,object_05,object_08,-1.0,-1,-1,-1.0,0.0,-,,1,287,0,2,8,restaurant_19,1,memory-2step-stake-s,541,3285802,0.0-18.0-0.0-0.46,3831,8,7
47,1,object_10,object_02,800.7699999,1,2,569.47,0.1111111111111111,1,object_07,1,288,0,1,8,desert_28,1,memory-2step-stake-s,542,3293713,0.0-18.0-0.0-0.47,3831,2,1
48,1,object_10,object_02,355.5949999,2,1,67.95000006,0.4444444444444444,2,object_06,1,292,0,1,4,desert_24,1,memory-2step-stake-s,543,3301424,0.0-18.0-0.0-0.48,3831,2,1
49,2,object_09,object_04,558.25,3,2,701.5,0.3333333333333333,1,object_07,1,295,0,3,6,forest_17,1,memory-2step-stake-s,544,3309666,0.0-18.0-0.0-0.49,3831,4,3
50,3,object_03,object_01,783.945,5,1,538.4849998999999,0.3333333333333333,1,object_07,5,310,0,3,8,library_1,1,memory-2step-stake-s,545,3317744,0.0-18.0-0.0-0.50,3831,5,6
51,3,object_01,object_03,843.995,5,2,654.3050001,0.3333333333333333,1,object_07,5,325,0,3,7,library_13,1,memory-2step-stake-s,546,3325933,0.0-18.0-0.0-0.51,3831,6,5
52,1,object_10,object_02,467.285,2,1,792.5499999,0.7777777777777778,2,object_06,1,332,0,2,7,desert_21,1,memory-2step-stake-s,547,3334692,0.0-18.0-0.0-0.52,3831,2,1
53,3,object_03,object_01,334.39,6,2,494.7749998,0.8888888888888888,2,object_06,1,340,0,1,8,library_11,1,memory-2step-stake-s,548,3343238,0.0-18.0-0.0-0.53,3831,5,6
54,4,object_05,object_08,424.3900001,8,1,482.575,0.8888888888888888,2,object_06,5,380,0,2,8,restaurant_32,1,memory-2step-stake-s,549,3351790,0.0-18.0-0.0-0.54,3831,8,7
55,3,object_03,object_01,493.2800001,5,1,462.175,0.1111111111111111,1,object_07,5,385,0,1,6,library_25,1,memory-2step-stake-s,550,3359585,0.0-18.0-0.0-0.55,3831,5,6
56,3,object_03,object_01,352.23000010000004,6,2,701.2850002,0.6666666666666666,2,object_06,1,391,0,2,6,library_21,1,memory-2step-stake-s,551,3368141,0.0-18.0-0.0-0.56,3831,5,6
57,2,object_04,object_09,764.19,3,1,714.5999998,0.1111111111111111,1,object_07,1,392,0,1,5,forest_3,1,memory-2step-stake-s,552,3376186,0.0-18.0-0.0-0.57,3831,3,4
58,4,object_08,object_05,626.0900002000001,8,2,547.3750001,0.5555555555555556,2,object_06,5,417,0,2,5,restaurant_8,1,memory-2step-stake-s,553,3384474,0.0-18.0-0.0-0.58,3831,7,8
59,3,object_03,object_01,339.84,5,1,1001.55,0.1111111111111111,1,object_07,1,418,0,1,4,library_24,1,memory-2step-stake-s,554,3392818,0.0-18.0-0.0-0.59,3831,5,6
60,4,object_08,object_05,301.3599999,8,2,478.6799999,0.4444444444444444,2,object_06,1,422,0,3,4,restaurant_13,1,memory-2step-stake-s,555,3400934,0.0-18.0-0.0-0.60,3831,7,8
61,1,object_02,object_10,744.5399999,1,1,773.82,0.4444444444444444,1,object_07,1,426,0,4,2,desert_10,1,memory-2step-stake-s,556,3409355,0.0-18.0-0.0-0.61,3831,1,2
62,2,object_04,object_09,514.7749997999999,4,2,640.7950001,0.1111111111111111,2,object_06,1,427,0,1,1,forest_17,1,memory-2step-stake-s,557,3417328,0.0-18.0-0.0-0.62,3831,3,4
63,1,object_10,object_02,547.9799998,2,1,602.95,0.0,2,object_06,1,427,0,1,0,desert_6,1,memory-2step-stake-s,558,3425160,0.0-18.0-0.0-0.63,3831,2,1
64,4,object_08,object_05,367.7999999,8,2,640.2199999,0.1111111111111111,2,object_06,5,432,0,1,1,restaurant_29,1,memory-2step-stake-s,559,3433137,0.0-18.0-0.0-0.64,3831,7,8
65,3,object_01,object_03,448.24000010000003,6,1,576.1450001000001,0.2222222222222222,2,object_06,5,442,0,2,2,library_24,1,memory-2step-stake-s,560,3441151,0.0-18.0-0.0-0.65,3831,6,5
66,2,object_09,object_04,52.03499994,3,2,560.5850001,0.1111111111111111,1,object_07,1,443,0,1,3,forest_26,1,memory-2step-stake-s,561,3449045,0.0-18.0-0.0-0.66,3831,4,3
67,3,object_01,object_03,1006.655,5,2,765.355,0.5555555555555556,1,object_07,5,468,0,5,2,library_23,1,memory-2step-stake-s,562,3457561,0.0-18.0-0.0-0.67,3831,6,5
68,1,object_10,object_02,569.0650002,2,1,631.7399998999999,0.0,2,object_06,1,468,0,5,0,desert_22,1,memory-2step-stake-s,563,3465422,0.0-18.0-0.0-0.68,3831,2,1
69,2,object_04,object_09,664.3449999,3,1,534.3150001,0.5555555555555556,1,object_07,1,473,0,5,2,forest_6,1,memory-2step-stake-s,564,3473699,0.0-18.0-0.0-0.69,3831,3,4
70,4,object_05,object_08,341.6950002,8,1,648.0999999,0.2222222222222222,2,object_06,5,483,0,9,2,restaurant_28,1,memory-2step-stake-s,565,3481778,0.0-18.0-0.0-0.70,3831,8,7
71,1,object_10,object_02,460.705,1,2,593.4849998,1.0,1,object_07,1,492,0,9,0,desert_20,1,memory-2step-stake-s,566,3490527,0.0-18.0-0.0-0.71,3831,2,1
72,2,object_09,object_04,536.2,4,1,457.4750001,0.0,2,object_06,1,492,0,6,0,forest_2,1,memory-2step-stake-s,567,3498215,0.0-18.0-0.0-0.72,3831,4,3
73,2,object_04,object_09,598.1050001,4,2,586.4249999,0.1111111111111111,2,object_06,1,493,0,6,1,forest_29,1,memory-2step-stake-s,568,3506130,0.0-18.0-0.0-0.73,3831,3,4
74,1,object_10,object_02,493.42,2,1,817.735,0.5555555555555556,2,object_06,1,498,0,7,5,desert_1,1,memory-2step-stake-s,569,3514689,0.0-18.0-0.0-0.74,3831,2,1
75,3,object_01,object_03,386.7949999,5,2,520.0599998,0.5555555555555556,1,object_07,1,503,0,5,4,library_28,1,memory-2step-stake-s,570,3522957,0.0-18.0-0.0-0.75,3831,6,5
76,2,object_09,object_04,420.44,3,2,576.0350002,0.5555555555555556,1,object_07,1,508,0,5,3,forest_8,1,memory-2step-stake-s,571,3531275,0.0-18.0-0.0-0.76,3831,4,3
77,4,object_08,object_05,703.61,7,1,565.525,0.8888888888888888,1,object_07,5,548,0,8,1,restaurant_29,1,memory-2step-stake-s,572,3539891,0.0-18.0-0.0-0.77,3831,7,8
78,4,object_08,object_05,486.665,8,2,530.6250001,0.2222222222222222,2,object_06,5,558,0,6,2,restaurant_25,1,memory-2step-stake-s,573,3547863,0.0-18.0-0.0-0.78,3831,7,8
79,3,object_03,object_01,615.335,5,1,684.04,0.7777777777777778,1,object_07,5,593,0,7,2,library_1,1,memory-2step-stake-s,574,3556495,0.0-18.0-0.0-0.79,3831,5,6
80,4,object_08,object_05,455.415,7,1,552.04,0.4444444444444444,1,object_07,5,613,0,4,4,restaurant_6,1,memory-2step-stake-s,575,3564684,0.0-18.0-0.0-0.80,3831,7,8
81,2,object_04,object_09,866.07,4,2,526.5300001,0.6666666666666666,2,object_06,1,619,0,6,6,forest_26,1,memory-2step-stake-s,576,3573060,0.0-18.0-0.0-0.81,3831,3,4
82,3,object_03,object_01,423.655,5,1,598.0,0.3333333333333333,1,object_07,5,634,0,3,4,library_14,1,memory-2step-stake-s,577,3581198,0.0-18.0-0.0-0.82,3831,5,6
83,3,object_01,object_03,423.3300001,5,2,981.13,0.4444444444444444,1,object_07,5,654,0,4,2,library_13,1,memory-2step-stake-s,578,3589830,0.0-18.0-0.0-0.83,3831,6,5
84,4,object_05,object_08,382.4399998,7,2,572.535,0.1111111111111111,1,object_07,5,659,0,1,2,restaurant_19,1,memory-2step-stake-s,579,3597741,0.0-18.0-0.0-0.84,3831,8,7
85,2,object_09,object_04,1176.795,4,1,614.7700001000001,0.2222222222222222,2,object_06,1,661,0,0,2,forest_30,1,memory-2step-stake-s,580,3605796,0.0-18.0-0.0-0.85,3831,4,3
86,2,object_09,object_04,1258.065,4,1,619.0899999,0.1111111111111111,2,object_06,1,662,0,3,1,forest_32,1,memory-2step-stake-s,581,3613752,0.0-18.0-0.0-0.86,3831,4,3
87,2,object_09,object_04,1357.67,3,2,467.54000010000004,0.2222222222222222,1,object_07,5,672,0,2,3,forest_23,1,memory-2step-stake-s,582,3621661,0.0-18.0-0.0-0.87,3831,4,3
88,4,object_05,object_08,1061.525,7,2,435.12,0.1111111111111111,1,object_07,5,677,0,1,1,restaurant_31,1,memory-2step-stake-s,583,3629436,0.0-18.0-0.0-0.88,3831,8,7
89,1,object_10,object_02,919.2649999,2,1,421.1200001,0.2222222222222222,2,object_06,1,679,0,0,2,desert_6,1,memory-2step-stake-s,584,3637293,0.0-18.0-0.0-0.89,3831,2,1
90,4,object_08,object_05,455.3400001,8,2,834.4099999,0.2222222222222222,2,object_06,5,689,0,0,2,restaurant_31,1,memory-2step-stake-s,585,3645569,0.0-18.0-0.0-0.90,3831,7,8
91,4,object_05,object_08,492.2,8,1,417.3300001,0.1111111111111111,2,object_06,5,694,0,1,1,restaurant_17,1,memory-2step-stake-s,586,3653326,0.0-18.0-0.0-0.91,3831,8,7
92,4,object_08,object_05,557.5050001,8,2,775.475,0.2222222222222222,2,object_06,5,704,0,1,2,restaurant_13,1,memory-2step-stake-s,587,3661537,0.0-18.0-0.0-0.92,3831,7,8
93,3,object_03,object_01,724.835,5,1,534.0549999,0.0,1,object_07,5,704,0,0,6,library_19,1,memory-2step-stake-s,588,3669302,0.0-18.0-0.0-0.93,3831,5,6
94,2,object_09,object_04,312.0300001,3,2,687.29,0.1111111111111111,1,object_07,1,705,0,1,8,forest_22,1,memory-2step-stake-s,589,3677322,0.0-18.0-0.0-0.94,3831,4,3
95,1,object_02,object_10,1167.57,1,1,421.63999979999994,0.3333333333333333,1,object_07,1,708,0,3,8,desert_21,1,memory-2step-stake-s,590,3685292,0.0-18.0-0.0-0.95,3831,1,2
96,3,object_03,object_01,712.8350001,6,2,555.2300001,0.6666666666666666,2,object_06,5,738,0,0,6,library_12,1,memory-2step-stake-s,591,3693689,0.0-18.0-0.0-0.96,3831,5,6
97,3,object_03,object_01,966.0150001000001,5,1,649.4,0.3333333333333333,1,object_07,5,753,0,3,5,library_23,1,memory-2step-stake-s,592,3701878,0.0-18.0-0.0-0.97,3831,5,6
98,2,object_04,object_09,433.38999989999996,3,1,524.795,0.4444444444444444,1,object_07,1,757,0,4,4,forest_32,1,memory-2step-stake-s,593,3710050,0.0-18.0-0.0-0.98,3831,3,4
99,2,object_04,object_09,355.57499989999997,4,2,450.32499989999997,0.2222222222222222,2,object_06,1,759,0,8,2,forest_26,1,memory-2step-stake-s,594,3717935,0.0-18.0-0.0-0.99,3831,3,4
100,1,object_10,object_02,321.4750001,2,1,480.975,0.2222222222222222,2,object_06,1,761,0,3,2,desert_22,1,memory-2step-stake-s,595,3725856,0.0-18.0-0.0-0.100,3831,2,1
101,2,object_09,object_04,-1.0,-1,-1,-1.0,0.0,-,,1,761,0,3,2,forest_31,1,memory-2step-stake-s,596,3732382,0.0-18.0-0.0-0.101,3831,4,3
102,4,object_05,object_08,397.775,7,2,498.1449998,0.3333333333333333,1,object_07,1,764,0,3,3,restaurant_11,1,memory-2step-stake-s,597,3740420,0.0-18.0-0.0-0.102,3831,8,7
103,2,object_04,object_09,773.7699999,4,2,1059.63,0.2222222222222222,2,object_06,5,774,0,2,2,forest_1,1,memory-2step-stake-s,598,3748915,0.0-18.0-0.0-0.103,3831,3,4
104,4,object_08,object_05,726.215,8,2,462.33,0.1111111111111111,2,object_06,5,779,0,4,1,restaurant_6,1,memory-2step-stake-s,599,3756711,0.0-18.0-0.0-0.104,3831,7,8
105,4,object_08,object_05,557.6249999,7,1,430.23000010000004,0.6666666666666666,1,object_07,1,785,0,6,2,restaurant_29,1,memory-2step-stake-s,600,3764991,0.0-18.0-0.0-0.105,3831,7,8
106,4,object_08,object_05,629.585,7,1,572.1150001,0.5555555555555556,1,object_07,5,810,0,5,3,restaurant_19,1,memory-2step-stake-s,601,3773312,0.0-18.0-0.0-0.106,3831,7,8
107,4,object_08,object_05,658.205,7,1,455.00999989999997,1.0,1,object_07,5,855,0,9,3,restaurant_29,1,memory-2step-stake-s,602,3781923,0.0-18.0-0.0-0.107,3831,7,8
108,3,object_01,object_03,1268.935,5,2,479.80500010000003,0.7777777777777778,1,object_07,1,862,0,7,3,library_32,1,memory-2step-stake-s,603,3790356,0.0-18.0-0.0-0.108,3831,6,5
109,2,object_09,object_04,1156.27,4,1,492.07000020000004,0.3333333333333333,2,object_06,1,865,0,6,3,forest_18,1,memory-2step-stake-s,604,3798388,0.0-18.0-0.0-0.109,3831,4,3
110,4,object_08,object_05,893.6349999,7,1,484.225,0.3333333333333333,1,object_07,5,880,0,3,4,restaurant_25,1,memory-2step-stake-s,605,3806410,0.0-18.0-0.0-0.110,3831,7,8
111,3,object_01,object_03,777.1350001000001,5,2,508.0549999,0.1111111111111111,1,object_07,5,885,0,1,4,library_10,1,memory-2step-stake-s,606,3814248,0.0-18.0-0.0-0.111,3831,6,5
112,4,object_08,object_05,743.635,8,2,499.3699999,0.3333333333333333,2,object_06,5,900,0,2,3,restaurant_14,1,memory-2step-stake-s,607,3822291,0.0-18.0-0.0-0.112,3831,7,8
113,4,object_08,object_05,474.7600001,7,1,1040.96,0.2222222222222222,1,object_07,1,902,0,2,2,restaurant_32,1,memory-2step-stake-s,608,3830774,0.0-18.0-0.0-0.113,3831,7,8
114,1,object_10,object_02,437.775,1,2,888.97,0.1111111111111111,1,object_07,1,903,0,1,3,desert_13,1,memory-2step-stake-s,609,3838996,0.0-18.0-0.0-0.114,3831,2,1
115,4,object_08,object_05,319.5099998,7,1,401.0249998,0.5555555555555556,1,object_07,1,908,0,5,5,restaurant_14,1,memory-2step-stake-s,610,3847146,0.0-18.0-0.0-0.115,3831,7,8
116,3,object_03,object_01,667.13,6,2,447.2650001,0.7777777777777778,2,object_06,5,943,0,4,7,library_21,1,memory-2step-stake-s,611,3855542,0.0-18.0-0.0-0.116,3831,5,6
117,2,object_04,object_09,393.105,3,1,524.0499999,0.5555555555555556,1,object_07,1,948,0,5,8,forest_26,1,memory-2step-stake-s,612,3863808,0.0-18.0-0.0-0.117,3831,3,4
118,1,object_10,object_02,666.16,2,1,552.7999999,0.7777777777777778,2,object_06,1,955,0,4,7,desert_27,1,memory-2step-stake-s,613,3872311,0.0-18.0-0.0-0.118,3831,2,1
119,3,object_03,object_01,646.2600001000001,5,1,1183.58,0.8888888888888888,1,object_07,5,995,0,8,9,library_14,1,memory-2step-stake-s,614,3881564,0.0-18.0-0.0-0.119,3831,5,6
120,1,object_10,object_02,644.9,1,2,477.1699999,0.8888888888888888,1,object_07,1,1003,0,8,7,desert_1,1,memory-2step-stake-s,615,3890091,0.0-18.0-0.0-0.120,3831,2,1
121,1,object_02,object_10,499.0350001,1,1,559.2399998999999,1.0,1,object_07,1,1012,0,9,9,desert_28,1,memory-2step-stake-s,616,3898804,0.0-18.0-0.0-0.121,3831,1,2
122,1,object_10,object_02,542.2,1,2,512.8549998999999,0.7777777777777778,1,object_07,1,1019,0,7,9,desert_24,1,memory-2step-stake-s,617,3907272,0.0-18.0-0.0-0.122,3831,2,1
123,4,object_05,object_08,515.925,8,1,483.36,1.0,2,object_06,5,1064,0,7,9,restaurant_19,1,memory-2step-stake-s,618,3915902,0.0-18.0-0.0-0.123,3831,8,7
124,3,object_01,object_03,321.2350002,5,2,661.295,0.3333333333333333,1,object_07,1,1067,0,3,8,library_22,1,memory-2step-stake-s,619,3924103,0.0-18.0-0.0-0.124,3831,6,5
125,2,object_09,object_04,468.29,4,1,557.7149999,0.8888888888888888,2,object_06,1,1075,0,0,8,forest_13,1,memory-2step-stake-s,620,3932708,0.0-18.0-0.0-0.125,3831,4,3
126,1,object_10,object_02,903.1499999,1,2,952.0950001,0.0,1,object_07,1,1075,0,0,5,desert_9,1,memory-2step-stake-s,621,3940889,0.0-18.0-0.0-0.126,3831,2,1
127,4,object_05,object_08,539.38,8,1,510.4050001,0.6666666666666666,2,object_06,5,1105,0,3,6,restaurant_15,1,memory-2step-stake-s,622,3949256,0.0-18.0-0.0-0.127,3831,8,7
128,3,object_01,object_03,891.64,5,2,412.7199999,0.2222222222222222,1,object_07,5,1115,0,2,5,library_29,1,memory-2step-stake-s,624,3964477,0.0-18.0-0.1-0.128,3831,6,5
129,2,object_04,object_09,440.525,3,1,474.77,0.2222222222222222,1,object_07,1,1117,0,2,7,forest_32,1,memory-2step-stake-s,625,3972382,0.0-18.0-0.1-0.129,3831,3,4
130,3,object_01,object_03,399.095,5,2,700.5750001,0.5555555555555556,1,object_07,5,1142,0,5,7,library_25,1,memory-2step-stake-s,626,3980826,0.0-18.0-0.1-0.130,3831,6,5
131,2,object_04,object_09,484.685,3,1,638.6300002,0.1111111111111111,1,object_07,1,1143,0,1,8,forest_1,1,memory-2step-stake-s,627,3988806,0.0-18.0-0.1-0.131,3831,3,4
132,1,object_10,object_02,575.225,1,2,446.92,0.1111111111111111,1,object_07,1,1144,0,1,8,desert_16,1,memory-2step-stake-s,628,3996587,0.0-18.0-0.1-0.132,3831,2,1
133,4,object_08,object_05,440.37,7,1,692.2550001,0.1111111111111111,1,object_07,5,1149,0,1,5,restaurant_28,1,memory-2step-stake-s,629,4004613,0.0-18.0-0.1-0.133,3831,7,8
134,1,object_02,object_10,421.635,2,2,472.5800001,0.6666666666666666,2,object_06,1,1155,0,1,6,desert_22,1,memory-2step-stake-s,630,4012939,0.0-18.0-0.1-0.134,3831,1,2
135,1,object_02,object_10,417.9149999,1,1,464.7550001,0.1111111111111111,1,object_07,1,1156,0,1,8,desert_24,1,memory-2step-stake-s,631,4020740,0.0-18.0-0.1-0.135,3831,1,2
136,2,object_09,object_04,375.795,3,2,431.845,0.2222222222222222,1,object_07,1,1158,0,2,6,forest_8,1,memory-2step-stake-s,632,4028602,0.0-18.0-0.1-0.136,3831,4,3
137,3,object_01,object_03,540.91,6,1,426.5000001,0.6666666666666666,2,object_06,1,1164,0,3,6,library_8,1,memory-2step-stake-s,633,4036873,0.0-18.0-0.1-0.137,3831,6,5
138,3,object_03,object_01,407.0650002,6,2,468.08,0.8888888888888888,2,object_06,5,1204,0,7,8,library_19,1,memory-2step-stake-s,634,4045390,0.0-18.0-0.1-0.138,3831,5,6
139,2,object_09,object_04,460.51500020000003,4,1,609.7800001,0.7777777777777778,2,object_06,5,1239,0,6,7,forest_23,1,memory-2step-stake-s,635,4053950,0.0-18.0-0.1-0.139,3831,4,3
140,3,object_03,object_01,508.17500010000003,6,2,419.28,0.8888888888888888,2,object_06,5,1279,0,8,8,library_25,1,memory-2step-stake-s,636,4062420,0.0-18.0-0.1-0.140,3831,5,6
141,1,object_10,object_02,399.5649999,2,1,716.185,0.7777777777777778,2,object_06,1,1286,0,6,7,desert_5,1,memory-2step-stake-s,637,4071086,0.0-18.0-0.1-0.141,3831,2,1
142,4,object_05,object_08,1232.53,7,2,577.9949999,0.5555555555555556,1,object_07,5,1311,0,5,4,restaurant_31,1,memory-2step-stake-s,638,4079408,0.0-18.0-0.1-0.142,3831,8,7
143,1,object_10,object_02,382.57499989999997,2,1,164.2200002,0.3333333333333333,2,object_06,1,1314,0,6,3,desert_20,1,memory-2step-stake-s,639,4087110,0.0-18.0-0.1-0.143,3831,2,1
144,1,object_10,object_02,362.315,1,2,441.415,0.3333333333333333,1,object_07,1,1317,0,3,2,desert_20,1,memory-2step-stake-s,640,4095100,0.0-18.0-0.1-0.144,3831,2,1
145,2,object_04,object_09,465.3350001,3,1,545.3249998,0.0,1,object_07,1,1317,0,0,2,forest_18,1,memory-2step-stake-s,641,4102878,0.0-18.0-0.1-0.145,3831,3,4
146,1,object_10,object_02,569.835,1,2,482.175,0.2222222222222222,1,object_07,1,1319,0,2,0,desert_30,1,memory-2step-stake-s,642,4110800,0.0-18.0-0.1-0.146,3831,2,1
147,3,object_03,object_01,234.33499989999999,5,1,573.535,0.1111111111111111,1,object_07,5,1324,0,1,4,library_21,1,memory-2step-stake-s,643,4118710,0.0-18.0-0.1-0.147,3831,5,6
148,2,object_04,object_09,500.2349999,4,2,713.3750001,0.3333333333333333,2,object_06,5,1339,0,3,3,forest_23,1,memory-2step-stake-s,644,4126970,0.0-18.0-0.1-0.148,3831,3,4
149,1,object_10,object_02,361.265,2,1,428.36,0.5555555555555556,2,object_06,1,1344,0,1,5,desert_29,1,memory-2step-stake-s,645,4135140,0.0-18.0-0.1-0.149,3831,2,1
150,4,object_05,object_08,385.12,7,2,432.5950001,0.5555555555555556,1,object_07,1,1349,0,5,7,restaurant_11,1,memory-2step-stake-s,646,4143320,0.0-18.0-0.1-0.150,3831,8,7
151,2,object_04,object_09,419.8350001,3,1,653.13,0.4444444444444444,1,object_07,1,1353,0,4,6,forest_18,1,memory-2step-stake-s,647,4151614,0.0-18.0-0.1-0.151,3831,3,4
152,3,object_03,object_01,720.3900001000001,6,2,505.6499999,0.6666666666666666,2,object_06,5,1383,0,6,6,library_13,1,memory-2step-stake-s,648,4159963,0.0-18.0-0.1-0.152,3831,5,6
153,4,object_08,object_05,358.9949999,7,1,493.025,0.8888888888888888,1,object_07,5,1423,0,8,5,restaurant_3,1,memory-2step-stake-s,649,4168509,0.0-18.0-0.1-0.153,3831,7,8
154,3,object_01,object_03,313.76,5,2,254.225,0.6666666666666666,1,object_07,5,1453,0,6,4,library_10,1,memory-2step-stake-s,650,4176610,0.0-18.0-0.1-0.154,3831,6,5
155,1,object_02,object_10,465.565,1,1,398.3799999,0.3333333333333333,1,object_07,1,1456,0,3,6,desert_13,1,memory-2step-stake-s,651,4184547,0.0-18.0-0.1-0.155,3831,1,2
156,2,object_09,object_04,439.05500020000005,3,2,566.6449999,0.7777777777777778,1,object_07,1,1463,0,7,9,forest_8,1,memory-2step-stake-s,652,4193061,0.0-18.0-0.1-0.156,3831,4,3
157,1,object_02,object_10,541.7499999,2,2,659.2349998999999,0.7777777777777778,2,object_06,1,1470,0,4,7,desert_13,1,memory-2step-stake-s,653,4201680,0.0-18.0-0.1-0.157,3831,1,2
158,1,object_10,object_02,524.645,2,1,560.9499998,0.5555555555555556,2,object_06,5,1495,0,1,5,desert_10,1,memory-2step-stake-s,654,4209987,0.0-18.0-0.1-0.158,3831,2,1
159,3,object_01,object_03,306.845,5,2,523.575,0.1111111111111111,1,object_07,1,1496,0,1,4,library_24,1,memory-2step-stake-s,655,4217851,0.0-18.0-0.1-0.159,3831,6,5
160,3,object_01,object_03,340.045,6,1,1350.585,0.8888888888888888,2,object_06,5,1536,0,2,8,library_12,1,memory-2step-stake-s,656,4227254,0.0-18.0-0.1-0.160,3831,6,5
161,1,object_10,object_02,505.7000001,1,2,608.4099999,0.0,1,object_07,1,1536,0,0,2,desert_6,1,memory-2step-stake-s,657,4235091,0.0-18.0-0.1-0.161,3831,2,1
162,4,object_08,object_05,405.5649999,7,1,476.3800001,0.1111111111111111,1,object_07,5,1541,0,1,4,restaurant_1,1,memory-2step-stake-s,658,4242896,0.0-18.0-0.1-0.162,3831,7,8
163,1,object_10,object_02,801.495,2,1,480.5650001,0.4444444444444444,2,object_06,1,1545,0,1,4,desert_21,1,memory-2step-stake-s,659,4251016,0.0-18.0-0.1-0.163,3831,2,1
164,1,object_10,object_02,659.64,2,1,475.99000020000005,0.6666666666666666,2,object_06,1,1551,0,1,6,desert_1,1,memory-2step-stake-s,660,4259348,0.0-18.0-0.1-0.164,3831,2,1
165,4,object_08,object_05,926.3050002,8,2,488.6049998,0.4444444444444444,2,object_06,5,1571,0,1,4,restaurant_11,1,memory-2step-stake-s,661,4267478,0.0-18.0-0.1-0.165,3831,7,8
166,1,object_10,object_02,425.17500020000006,2,1,597.97,0.5555555555555556,2,object_06,1,1576,0,3,5,desert_27,1,memory-2step-stake-s,662,4275817,0.0-18.0-0.1-0.166,3831,2,1
167,2,object_04,object_09,-1.0,-1,-1,-1.0,0.0,-,,1,1576,0,4,5,forest_1,1,memory-2step-stake-s,663,4282338,0.0-18.0-0.1-0.167,3831,3,4
168,1,object_02,object_10,969.0,1,1,508.9149999,0.4444444444444444,1,object_07,1,1580,0,4,5,desert_10,1,memory-2step-stake-s,664,4290490,0.0-18.0-0.1-0.168,3831,1,2
169,1,object_02,object_10,692.7400001,1,1,479.42,0.4444444444444444,1,object_07,1,1584,0,4,9,desert_30,1,memory-2step-stake-s,665,4298613,0.0-18.0-0.1-0.169,3831,1,2
170,4,object_05,object_08,527.2100002000001,7,2,492.0399999,0.1111111111111111,1,object_07,5,1589,0,1,5,restaurant_32,1,memory-2step-stake-s,666,4306438,0.0-18.0-0.1-0.170,3831,8,7
171,4,object_08,object_05,982.4950001,8,2,475.1600001,0.3333333333333333,2,object_06,1,1592,0,1,3,restaurant_7,1,memory-2step-stake-s,667,4314451,0.0-18.0-0.1-0.171,3831,7,8
172,2,object_09,object_04,520.6599999,4,1,491.70499989999996,0.0,2,object_06,1,1592,0,1,0,forest_1,1,memory-2step-stake-s,668,4322178,0.0-18.0-0.1-0.172,3831,4,3
173,3,object_01,object_03,1429.61,5,2,551.1699999,0.2222222222222222,1,object_07,5,1602,0,2,1,library_19,1,memory-2step-stake-s,669,4330163,0.0-18.0-0.1-0.173,3831,6,5
174,4,object_05,object_08,-1.0,-1,-1,-1.0,0.0,-,,5,1602,0,1,3,restaurant_31,1,memory-2step-stake-s,670,4336685,0.0-18.0-0.1-0.174,3831,8,7
175,3,object_03,object_01,596.7699999,6,2,465.57,0.4444444444444444,2,object_06,1,1606,0,1,4,library_29,1,memory-2step-stake-s,671,4344800,0.0-18.0-0.1-0.175,3831,5,6
176,1,object_10,object_02,412.5000001,2,1,520.3149999,0.5555555555555556,2,object_06,1,1611,0,0,5,desert_16,1,memory-2step-stake-s,672,4353066,0.0-18.0-0.1-0.176,3831,2,1
177,1,object_10,object_02,506.54,1,2,500.7850002,0.2222222222222222,1,object_07,5,1621,0,2,5,desert_30,1,memory-2step-stake-s,673,4361003,0.0-18.0-0.1-0.177,3831,2,1
178,4,object_05,object_08,426.425,8,1,622.8299998,0.3333333333333333,2,object_06,1,1624,0,2,3,restaurant_3,1,memory-2step-stake-s,674,4369171,0.0-18.0-0.1-0.178,3831,8,7
179,2,object_04,object_09,484.7549999,4,2,435.885,0.2222222222222222,2,object_06,1,1626,0,4,2,forest_17,1,memory-2step-stake-s,675,4377041,0.0-18.0-0.1-0.179,3831,3,4
180,4,object_05,object_08,574.485,8,1,676.9950001,0.4444444444444444,2,object_06,5,1646,0,4,4,restaurant_6,1,memory-2step-stake-s,676,4385359,0.0-18.0-0.1-0.180,3831,8,7
181,3,object_03,object_01,588.6049998999999,6,2,496.12,0.6666666666666666,2,object_06,5,1676,0,1,6,library_32,1,memory-2step-stake-s,677,4393707,0.0-18.0-0.1-0.181,3831,5,6
182,2,object_09,object_04,420.05500010000003,4,1,478.1550001,0.8888888888888888,2,object_06,1,1684,0,1,8,forest_31,1,memory-2step-stake-s,678,4402240,0.0-18.0-0.1-0.182,3831,4,3
183,1,object_10,object_02,617.3449999,1,2,478.56,0.2222222222222222,1,object_07,1,1686,0,2,7,desert_16,1,memory-2step-stake-s,679,4410156,0.0-18.0-0.1-0.183,3831,2,1
184,1,object_02,object_10,1079.53,1,1,607.2750001,0.1111111111111111,1,object_07,1,1687,0,1,7,desert_27,1,memory-2step-stake-s,680,4418100,0.0-18.0-0.1-0.184,3831,1,2
185,1,object_10,object_02,342.74,1,2,427.535,0.1111111111111111,1,object_07,1,1688,0,1,7,desert_16,1,memory-2step-stake-s,681,4425860,0.0-18.0-0.1-0.185,3831,2,1
186,4,object_08,object_05,380.36500010000003,7,1,386.19,0.3333333333333333,1,object_07,5,1703,0,3,4,restaurant_13,1,memory-2step-stake-s,682,4433788,0.0-18.0-0.1-0.186,3831,7,8
187,4,object_08,object_05,638.3150001,8,2,752.0700002,0.3333333333333333,2,object_06,1,1706,0,5,3,restaurant_17,1,memory-2step-stake-s,683,4442077,0.0-18.0-0.1-0.187,3831,7,8
188,1,object_10,object_02,519.3,2,1,664.7950001,0.5555555555555556,2,object_06,1,1711,0,6,5,desert_11,1,memory-2step-stake-s,684,4450490,0.0-18.0-0.1-0.188,3831,2,1
189,4,object_08,object_05,356.835,8,2,642.61,0.3333333333333333,2,object_06,5,1726,0,8,3,restaurant_1,1,memory-2step-stake-s,685,4458669,0.0-18.0-0.1-0.189,3831,7,8
190,3,object_03,object_01,418.4150002,5,1,500.8700001,0.7777777777777778,1,object_07,5,1761,0,7,2,library_22,1,memory-2step-stake-s,686,4467130,0.0-18.0-0.1-0.190,3831,5,6
191,2,object_04,object_09,324.19999989999997,4,2,468.0999999,0.1111111111111111,2,object_06,1,1762,0,4,1,forest_6,1,memory-2step-stake-s,687,4474929,0.0-18.0-0.1-0.191,3831,3,4
192,2,object_04,object_09,359.11000010000004,3,1,631.7450001,0.6666666666666666,1,object_07,1,1768,0,6,1,forest_22,1,memory-2step-stake-s,688,4483410,0.0-18.0-0.1-0.192,3831,3,4
193,4,object_08,object_05,876.5399999,7,1,580.6199999,0.4444444444444444,1,object_07,5,1788,0,4,1,restaurant_7,1,memory-2step-stake-s,689,4491633,0.0-18.0-0.1-0.193,3831,7,8
194,3,object_01,object_03,741.6600001,5,2,621.5250001,0.4444444444444444,1,object_07,5,1808,0,4,1,library_10,1,memory-2step-stake-s,690,4499902,0.0-18.0-0.1-0.194,3831,6,5
195,1,object_10,object_02,641.1050002000001,2,1,1239.285,0.1111111111111111,2,object_06,5,1813,0,5,1,desert_5,1,memory-2step-stake-s,691,4508477,0.0-18.0-0.1-0.195,3831,2,1
196,1,object_10,object_02,545.8449998,1,2,651.8850001000001,1.0,1,object_07,1,1822,0,9,4,desert_11,1,memory-2step-stake-s,692,4517287,0.0-18.0-0.1-0.196,3831,2,1
197,4,object_08,object_05,1049.92,8,2,962.0000001,0.6666666666666666,2,object_06,5,1852,0,6,6,restaurant_1,1,memory-2step-stake-s,693,4526098,0.0-18.0-0.1-0.197,3831,7,8
198,3,object_01,object_03,319.435,6,1,622.0450001,0.7777777777777778,2,object_06,1,1859,0,6,7,library_1,1,memory-2step-stake-s,694,4534670,0.0-18.0-0.1-0.198,3831,6,5
199,1,object_02,object_10,198.5549999,2,2,395.3850002,1.0,2,object_06,1,1868,0,5,9,desert_29,1,memory-2step-stake-s,695,4543230,0.0-18.0-0.1-0.199,3831,1,2
200,2,object_04,object_09,416.775,3,1,451.2149999,0.4444444444444444,1,object_07,1,1872,0,4,8,forest_6,1,memory-2step-stake-s,696,4551333,0.0-18.0-0.1-0.200,3831,3,4
201,3,object_03,object_01,328.62,6,2,429.8949998,1.0,2,object_06,1,1881,0,5,9,library_14,1,memory-2step-stake-s,697,4559918,0.0-18.0-0.1-0.201,3831,5,6
202,4,object_08,object_05,363.42500010000003,7,1,445.4099999,0.4444444444444444,1,object_07,5,1901,0,4,9,restaurant_28,1,memory-2step-stake-s,698,4568007,0.0-18.0-0.1-0.202,3831,7,8
203,2,object_04,object_09,517.7249999,3,1,549.7349998999999,0.5555555555555556,1,object_07,1,1906,0,5,9,forest_2,1,memory-2step-stake-s,699,4576299,0.0-18.0-0.1-0.203,3831,3,4
204,3,object_01,object_03,517.2350002000001,5,2,433.39499989999996,0.7777777777777778,1,object_07,5,1941,0,7,9,library_29,1,memory-2step-stake-s,700,4584678,0.0-18.0-0.1-0.204,3831,6,5
205,3,object_03,object_01,385.5599998,5,1,463.985,1.0,1,object_07,1,1950,0,9,6,library_28,1,memory-2step-stake-s,701,4593299,0.0-18.0-0.1-0.205,3831,5,6
206,4,object_05,object_08,387.1200001,7,2,736.1950001,1.0,1,object_07,1,1959,0,9,4,restaurant_14,1,memory-2step-stake-s,702,4602195,0.0-18.0-0.1-0.206,3831,8,7
207,3,object_01,object_03,443.19,6,1,766.1549997999999,0.3333333333333333,2,object_06,5,1974,0,5,3,library_12,1,memory-2step-stake-s,703,4610503,0.0-18.0-0.1-0.207,3831,6,5
208,2,object_04,object_09,793.5599999,4,2,263.55,0.5555555555555556,2,object_06,1,1979,0,3,5,forest_3,1,memory-2step-stake-s,704,4618509,0.0-18.0-0.1-0.208,3831,3,4
209,2,object_04,object_09,370.3149999,3,1,-1.0,0.0,1,object_07,1,1979,0,4,3,forest_3,1,memory-2step-stake-s,705,4627037,0.0-18.0-0.1-0.209,3831,3,4
210,1,object_10,object_02,610.325,1,2,431.875,0.3333333333333333,1,object_07,5,1994,0,3,1,desert_30,1,memory-2step-stake-s,706,4635012,0.0-18.0-0.1-0.210,3831,2,1
211,2,object_09,object_04,365.13,4,1,551.315,0.4444444444444444,2,object_06,1,1998,0,3,4,forest_30,1,memory-2step-stake-s,707,4643213,0.0-18.0-0.1-0.211,3831,4,3
212,3,object_01,object_03,408.235,5,2,394.82999989999996,0.1111111111111111,1,object_07,5,2003,0,1,2,library_32,1,memory-2step-stake-s,708,4650937,0.0-18.0-0.1-0.212,3831,6,5
213,3,object_03,object_01,499.14,5,1,701.7849997999999,0.1111111111111111,1,object_07,5,2008,0,1,1,library_11,1,memory-2step-stake-s,709,4658971,0.0-18.0-0.1-0.213,3831,5,6
214,3,object_01,object_03,910.7949999,5,2,536.7000001,0.2222222222222222,1,object_07,5,2018,0,2,1,library_24,1,memory-2step-stake-s,710,4666943,0.0-18.0-0.1-0.214,3831,6,5
215,2,object_04,object_09,433.12000020000005,3,1,425.1699999,0.1111111111111111,1,object_07,1,2019,0,1,1,forest_2,1,memory-2step-stake-s,711,4674698,0.0-18.0-0.1-0.215,3831,3,4
216,3,object_01,object_03,591.7549999,5,2,414.4400002,0.1111111111111111,1,object_07,5,2024,0,1,0,library_13,1,memory-2step-stake-s,712,4682453,0.0-18.0-0.1-0.216,3831,6,5
217,2,object_09,object_04,473.4799999,4,1,506.69,0.0,2,object_06,1,2024,0,2,0,forest_4,1,memory-2step-stake-s,713,4690192,0.0-18.0-0.1-0.217,3831,4,3
218,2,object_04,object_09,373.13,4,2,312.3350001,0.1111111111111111,2,object_06,1,2025,0,0,1,forest_8,1,memory-2step-stake-s,714,4697838,0.0-18.0-0.1-0.218,3831,3,4
219,1,object_02,object_10,400.8099998,1,1,533.3199999,0.2222222222222222,1,object_07,1,2027,0,2,1,desert_27,1,memory-2step-stake-s,715,4705808,0.0-18.0-0.1-0.219,3831,1,2
220,2,object_04,object_09,502.3099999,4,2,462.3099999,0.4444444444444444,2,object_06,1,2031,0,0,4,forest_29,1,memory-2step-stake-s,716,4713907,0.0-18.0-0.1-0.220,3831,3,4
221,3,object_03,object_01,791.7249999,5,1,692.515,0.0,1,object_07,5,2031,0,0,3,library_22,1,memory-2step-stake-s,717,4721828,0.0-18.0-0.1-0.221,3831,5,6
222,4,object_08,object_05,618.0200002,8,2,406.11000010000004,0.0,2,object_06,5,2031,0,1,0,restaurant_13,1,memory-2step-stake-s,718,4729462,0.0-18.0-0.1-0.222,3831,7,8
223,3,object_03,object_01,734.405,5,1,523.15,0.3333333333333333,1,object_07,5,2046,0,3,2,library_22,1,memory-2step-stake-s,719,4737527,0.0-18.0-0.1-0.223,3831,5,6
224,3,object_01,object_03,801.5399999,5,2,393.5449999,0.4444444444444444,1,object_07,5,2066,0,4,4,library_8,1,memory-2step-stake-s,720,4745560,0.0-18.0-0.1-0.224,3831,6,5
225,2,object_04,object_09,347.025,3,1,475.0350001,0.5555555555555556,1,object_07,1,2071,0,5,1,forest_17,1,memory-2step-stake-s,721,4753777,0.0-18.0-0.1-0.225,3831,3,4
226,4,object_05,object_08,765.2749999,7,2,140.13000019999998,0.2222222222222222,1,object_07,5,2081,0,2,1,restaurant_28,1,memory-2step-stake-s,722,4761352,0.0-18.0-0.1-0.226,3831,8,7
227,2,object_09,object_04,95.77500005,4,1,568.6349999,0.0,2,object_06,1,2081,0,3,0,forest_32,1,memory-2step-stake-s,723,4769155,0.0-18.0-0.1-0.227,3831,4,3
228,3,object_03,object_01,760.8,6,2,411.9299999,0.0,2,object_06,5,2081,0,5,0,library_29,1,memory-2step-stake-s,724,4776792,0.0-18.0-0.1-0.228,3831,5,6
229,1,object_02,object_10,1126.5,2,2,688.1799998,0.0,2,object_06,5,2081,0,7,0,desert_6,1,memory-2step-stake-s,725,4784718,0.0-18.0-0.1-0.229,3831,1,2
230,2,object_09,object_04,873.07,4,1,531.9600001,0.2222222222222222,2,object_06,1,2083,0,5,2,forest_6,1,memory-2step-stake-s,726,4792690,0.0-18.0-0.1-0.230,3831,4,3
231,4,object_08,object_05,1282.755,8,2,654.97,0.1111111111111111,2,object_06,5,2088,0,4,1,restaurant_8,1,memory-2step-stake-s,727,4800677,0.0-18.0-0.1-0.231,3831,7,8
232,4,object_08,object_05,1153.275,7,1,-1.0,0.0,1,object_07,1,2088,0,6,4,restaurant_1,1,memory-2step-stake-s,728,4809209,0.0-18.0-0.1-0.232,3831,7,8
233,3,object_03,object_01,339.1400001,6,2,574.5099999,0.6666666666666666,2,object_06,5,2118,0,5,6,library_12,1,memory-2step-stake-s,729,4817627,0.0-18.0-0.1-0.233,3831,5,6
234,1,object_10,object_02,706.855,2,1,748.4849998999999,0.6666666666666666,2,object_06,1,2124,0,4,6,desert_29,1,memory-2step-stake-s,730,4826218,0.0-18.0-0.1-0.234,3831,2,1
235,4,object_08,object_05,435.5000001,8,2,487.95000020000003,0.8888888888888888,2,object_06,5,2164,0,3,8,restaurant_15,1,memory-2step-stake-s,731,4834764,0.0-18.0-0.1-0.235,3831,7,8
236,1,object_02,object_10,363.595,1,1,831.98,0.4444444444444444,1,object_07,1,2168,0,4,8,desert_13,1,memory-2step-stake-s,732,4843234,0.0-18.0-0.1-0.236,3831,1,2
237,1,object_02,object_10,-1.0,-1,-1,-1.0,0.0,-,,1,2168,0,4,7,desert_24,1,memory-2step-stake-s,733,4849750,0.0-18.0-0.1-0.237,3831,1,2
238,2,object_04,object_09,323.92500010000003,3,1,478.01,0.5555555555555556,1,object_07,1,2173,0,5,6,forest_29,1,memory-2step-stake-s,734,4857980,0.0-18.0-0.1-0.238,3831,3,4
239,4,object_08,object_05,441.18000010000003,7,1,486.235,0.8888888888888888,1,object_07,5,2213,0,8,5,restaurant_17,1,memory-2step-stake-s,735,4866525,0.0-18.0-0.1-0.239,3831,7,8
240,1,object_02,object_10,433.04,2,2,416.98,0.5555555555555556,2,object_06,1,2218,0,8,5,desert_20,1,memory-2step-stake-s,736,4874692,0.0-18.0-0.1-0.240,3831,1,2
241,3,object_01,object_03,368.825,6,1,506.975,0.4444444444444444,2,object_06,5,2238,0,8,4,library_1,1,memory-2step-stake-s,737,4882848,0.0-18.0-0.1-0.241,3831,6,5
242,3,object_03,object_01,1206.135,6,2,521.1449999,0.3333333333333333,2,object_06,5,2253,0,7,3,library_14,1,memory-2step-stake-s,738,4890911,0.0-18.0-0.1-0.242,3831,5,6
243,4,object_05,object_08,295.48000010000004,8,1,591.095,0.1111111111111111,2,object_06,5,2258,0,8,1,restaurant_25,1,memory-2step-stake-s,739,4898835,0.0-18.0-0.1-0.243,3831,8,7
244,1,object_02,object_10,482.6149999,2,2,381.0950001,0.0,2,object_06,5,2258,0,9,0,desert_29,1,memory-2step-stake-s,740,4906449,0.0-18.0-0.1-0.244,3831,1,2
245,3,object_03,object_01,378.975,6,2,499.5200001,0.2222222222222222,2,object_06,5,2268,0,5,2,library_28,1,memory-2step-stake-s,741,4914376,0.0-18.0-0.1-0.245,3831,5,6
246,3,object_01,object_03,372.985,6,1,433.8450001,0.0,2,object_06,5,2268,0,5,0,library_25,1,memory-2step-stake-s,742,4922046,0.0-18.0-0.1-0.246,3831,6,5
247,4,object_05,object_08,730.5000001,7,2,162.855,0.6666666666666666,1,object_07,5,2298,0,6,2,restaurant_25,1,memory-2step-stake-s,743,4930053,0.0-18.0-0.1-0.247,3831,8,7
248,2,object_09,object_04,389.08499989999996,4,1,489.18,0.2222222222222222,2,object_06,1,2300,0,3,2,forest_22,1,memory-2step-stake-s,744,4937979,0.0-18.0-0.1-0.248,3831,4,3
249,1,object_10,object_02,468.255,1,2,410.8599999,0.5555555555555556,1,object_07,1,2305,0,5,0,desert_11,1,memory-2step-stake-s,745,4946133,0.0-18.0-0.1-0.249,3831,2,1
250,3,object_01,object_03,152.825,6,1,413.095,0.1111111111111111,2,object_06,5,2310,0,2,1,library_32,1,memory-2step-stake-s,746,4953883,0.0-18.0-0.1-0.250,3831,6,5
251,4,object_05,object_08,315.69999989999997,7,2,367.4999999,0.0,1,object_07,5,2310,0,0,2,restaurant_15,1,memory-2step-stake-s,747,4961481,0.0-18.0-0.1-0.251,3831,8,7
252,2,object_09,object_04,464.195,4,1,523.7,0.1111111111111111,2,object_06,5,2315,0,0,1,forest_31,1,memory-2step-stake-s,748,4969338,0.0-18.0-0.1-0.252,3831,4,3
253,4,object_08,object_05,904.2200001,8,2,558.4200001,0.2222222222222222,2,object_06,5,2325,0,3,2,restaurant_3,1,memory-2step-stake-s,749,4977339,0.0-18.0-0.1-0.253,3831,7,8
254,1,object_10,object_02,380.4349999,2,1,423.6250001,0.2222222222222222,2,object_06,5,2335,0,4,2,desert_11,1,memory-2step-stake-s,750,4985199,0.0-18.0-0.1-0.254,3831,2,1
255,3,object_01,object_03,354.7150001,5,2,596.0200001000001,0.2222222222222222,1,object_07,5,2345,0,2,3,library_8,1,memory-2step-stake-s,751,4993230,0.0-18.0-0.1-0.255,3831,6,5
