,state1,stim_left,stim_right,rt_1,choice1,response1,rt_2,points,state2,stim_state2,stake,score,practice,rews1,rews2,background,high_arm,trial_type,trial_index,time_elapsed,internal_node_id,subid,stim_left_num,stim_right_num
0,2,object_04,object_08,1273.87,4,1,631.375,0.0,2,object_07,1,0,0,5,0,forest_29,2,memory-2step-stake-s,494,2426854,0.0-18.0-0.0-0.0,4233,4,3
1,3,object_05,object_03,577.215,6,1,422.48,0.1111111111111111,2,object_07,5,5,0,2,1,library_28,2,memory-2step-stake-s,495,2434616,0.0-18.0-0.0-0.1,4233,6,5
2,1,object_09,object_02,683.85,1,2,1297.98,0.3333333333333333,1,object_06,5,20,0,3,1,desert_10,2,memory-2step-stake-s,496,2443463,0.0-18.0-0.0-0.2,4233,2,1
3,3,object_03,object_05,496.18,5,1,530.235,0.2222222222222222,1,object_06,5,30,0,2,1,library_31,2,memory-2step-stake-s,497,2451428,0.0-18.0-0.0-0.3,4233,5,6
4,1,object_09,object_02,1009.27,1,2,576.54,0.2222222222222222,1,object_06,5,40,0,2,1,desert_4,2,memory-2step-stake-s,498,2459438,0.0-18.0-0.0-0.4,4233,2,1
5,3,object_05,object_03,670.185,6,1,833.435,0.1111111111111111,2,object_07,5,45,0,0,1,library_32,2,memory-2step-stake-s,499,2467607,0.0-18.0-0.0-0.5,4233,6,5
6,3,object_05,object_03,891.9249999,5,2,334.83,0.3333333333333333,1,object_06,1,48,0,3,1,library_5,2,memory-2step-stake-s,500,2475490,0.0-18.0-0.0-0.6,4233,6,5
7,3,object_03,object_05,884.5,5,1,556.27,0.1111111111111111,1,object_06,5,53,0,1,3,library_30,2,memory-2step-stake-s,501,2483381,0.0-18.0-0.0-0.7,4233,5,6
8,1,object_02,object_09,538.125,2,2,521.565,0.2222222222222222,2,object_07,5,63,0,3,2,desert_6,2,memory-2step-stake-s,502,2491339,0.0-18.0-0.0-0.8,4233,1,2
9,2,object_08,object_04,380.31,3,1,611.61,0.6666666666666666,1,object_06,5,93,0,6,2,forest_27,2,memory-2step-stake-s,503,2499795,0.0-18.0-0.0-0.9,4233,3,4
10,3,object_03,object_05,346.855,5,1,437.685,0.8888888888888888,1,object_06,5,133,0,8,2,library_7,2,memory-2step-stake-s,504,2508301,0.0-18.0-0.0-0.10,4233,5,6
11,4,object_10,object_01,281.65,8,1,332.57,0.1111111111111111,2,object_07,5,138,0,7,1,restaurant_5,2,memory-2step-stake-s,505,2515969,0.0-18.0-0.0-0.11,4233,8,7
12,4,object_10,object_01,882.555,7,2,551.455,0.5555555555555556,1,object_06,1,143,0,5,3,restaurant_18,2,memory-2step-stake-s,506,2524271,0.0-18.0-0.0-0.12,4233,8,7
13,1,object_09,object_02,1213.385,2,1,761.28,0.7777777777777778,2,object_07,5,178,0,4,7,desert_27,2,memory-2step-stake-s,507,2532996,0.0-18.0-0.0-0.13,4233,2,1
14,2,object_08,object_04,980.985,4,2,729.97,0.4444444444444444,2,object_07,5,198,0,4,4,forest_18,2,memory-2step-stake-s,508,2541372,0.0-18.0-0.0-0.14,4233,3,4
15,1,object_02,object_09,993.425,2,2,-1.0,0.0,2,object_07,5,198,0,4,3,desert_2,2,memory-2step-stake-s,509,2549900,0.0-18.0-0.0-0.15,4233,1,2
16,4,object_01,object_10,855.405,7,1,589.75,0.4444444444444444,1,object_06,1,202,0,4,3,restaurant_6,2,memory-2step-stake-s,510,2558127,0.0-18.0-0.0-0.16,4233,7,8
17,3,object_05,object_03,1024.975,5,2,442.215,0.2222222222222222,1,object_06,1,204,0,2,3,library_32,2,memory-2step-stake-s,511,2566006,0.0-18.0-0.0-0.17,4233,6,5
18,3,object_05,object_03,739.18,6,1,338.86,0.5555555555555556,2,object_07,5,229,0,1,5,library_21,2,memory-2step-stake-s,512,2574097,0.0-18.0-0.0-0.18,4233,6,5
19,1,object_09,object_02,1282.2,2,1,505.845,0.7777777777777778,2,object_07,5,264,0,0,7,desert_11,2,memory-2step-stake-s,513,2582556,0.0-18.0-0.0-0.19,4233,2,1
20,1,object_02,object_09,-1.0,-1,-1,-1.0,0.0,-,,5,264,0,0,8,desert_18,2,memory-2step-stake-s,514,2589068,0.0-18.0-0.0-0.20,4233,1,2
21,1,object_09,object_02,621.75,2,1,514.82,0.7777777777777778,2,object_07,5,299,0,0,7,desert_9,2,memory-2step-stake-s,515,2597540,0.0-18.0-0.0-0.21,4233,2,1
22,3,object_03,object_05,680.465,6,2,400.7999999,0.8888888888888888,2,object_07,1,307,0,1,8,library_18,2,memory-2step-stake-s,516,2605996,0.0-18.0-0.0-0.22,4233,5,6
23,1,object_02,object_09,465.355,2,2,425.68,0.8888888888888888,2,object_07,5,347,0,3,8,desert_28,2,memory-2step-stake-s,517,2614490,0.0-18.0-0.0-0.23,4233,1,2
24,1,object_09,object_02,536.88,2,1,395.62,0.7777777777777778,2,object_07,5,382,0,0,7,desert_32,2,memory-2step-stake-s,518,2622837,0.0-18.0-0.0-0.24,4233,2,1
25,1,object_09,object_02,623.57,2,1,433.64,0.8888888888888888,2,object_07,5,422,0,1,8,desert_20,2,memory-2step-stake-s,519,2631336,0.0-18.0-0.0-0.25,4233,2,1
26,1,object_09,object_02,578.985,2,1,27.74499997,0.8888888888888888,2,object_07,1,430,0,0,8,desert_10,2,memory-2step-stake-s,520,2639419,0.0-18.0-0.0-0.26,4233,2,1
27,2,object_08,object_04,896.64,3,1,661.015,0.5555555555555556,1,object_06,5,455,0,5,7,forest_20,2,memory-2step-stake-s,521,2647829,0.0-18.0-0.0-0.27,4233,3,4
28,3,object_03,object_05,1024.89,6,2,991.76,0.8888888888888888,2,object_07,1,463,0,8,8,library_5,2,memory-2step-stake-s,522,2656879,0.0-18.0-0.0-0.28,4233,5,6
29,3,object_05,object_03,-1.0,-1,-1,-1.0,0.0,-,,1,463,0,6,8,library_16,2,memory-2step-stake-s,523,2663401,0.0-18.0-0.0-0.29,4233,6,5
30,1,object_09,object_02,516.235,2,1,757.54,0.7777777777777778,2,object_07,5,498,0,7,7,desert_2,2,memory-2step-stake-s,524,2672107,0.0-18.0-0.0-0.30,4233,2,1
31,4,object_10,object_01,1003.845,7,2,749.69,0.8888888888888888,1,object_06,5,538,0,8,6,restaurant_13,2,memory-2step-stake-s,525,2680914,0.0-18.0-0.0-0.31,4233,8,7
32,2,object_04,object_08,1145.915,3,2,559.945,0.8888888888888888,1,object_06,1,546,0,8,4,forest_27,2,memory-2step-stake-s,526,2689527,0.0-18.0-0.0-0.32,4233,4,3
33,1,object_09,object_02,675.415,2,1,453.85,0.3333333333333333,2,object_07,5,561,0,8,3,desert_27,2,memory-2step-stake-s,527,2697526,0.0-18.0-0.0-0.33,4233,2,1
34,4,object_01,object_10,1178.965,8,2,397.775,0.0,2,object_07,5,561,0,5,0,restaurant_14,2,memory-2step-stake-s,528,2705155,0.0-18.0-0.0-0.34,4233,7,8
35,4,object_10,object_01,542.65,8,1,318.005,0.1111111111111111,2,object_07,1,562,0,9,1,restaurant_12,2,memory-2step-stake-s,529,2712806,0.0-18.0-0.0-0.35,4233,8,7
36,4,object_10,object_01,589.625,8,1,377.1,0.1111111111111111,2,object_07,5,567,0,9,1,restaurant_8,2,memory-2step-stake-s,530,2720515,0.0-18.0-0.0-0.36,4233,8,7
37,4,object_01,object_10,723.66,8,2,492.735,0.0,2,object_07,5,567,0,8,0,restaurant_11,2,memory-2step-stake-s,531,2728241,0.0-18.0-0.0-0.37,4233,7,8
38,1,object_02,object_09,832.18,2,2,405.145,0.3333333333333333,2,object_07,5,582,0,6,3,desert_32,2,memory-2step-stake-s,532,2736195,0.0-18.0-0.0-0.38,4233,1,2
39,2,object_04,object_08,468.295,4,1,349.085,0.7777777777777778,2,object_07,5,617,0,7,7,forest_29,2,memory-2step-stake-s,533,2744501,0.0-18.0-0.0-0.39,4233,4,3
40,4,object_01,object_10,855.97,7,1,455.89,0.6666666666666666,1,object_06,1,623,0,6,7,restaurant_24,2,memory-2step-stake-s,534,2752809,0.0-18.0-0.0-0.40,4233,7,8
41,3,object_03,object_05,890.2,5,1,1002.86,0.3333333333333333,1,object_06,5,638,0,3,8,library_31,2,memory-2step-stake-s,535,2761354,0.0-18.0-0.0-0.41,4233,5,6
42,4,object_01,object_10,861.54,7,1,485.84,0.3333333333333333,1,object_06,5,653,0,3,8,restaurant_11,2,memory-2step-stake-s,536,2769379,0.0-18.0-0.0-0.42,4233,7,8
43,2,object_04,object_08,670.43,3,2,453.07,0.3333333333333333,1,object_06,5,668,0,3,6,forest_20,2,memory-2step-stake-s,537,2777375,0.0-18.0-0.0-0.43,4233,4,3
44,1,object_02,object_09,506.94,1,1,401.205,0.0,1,object_06,5,668,0,0,5,desert_9,2,memory-2step-stake-s,538,2785005,0.0-18.0-0.0-0.44,4233,1,2
45,4,object_01,object_10,-1.0,-1,-1,-1.0,0.0,-,,1,668,0,1,4,restaurant_6,2,memory-2step-stake-s,539,2791519,0.0-18.0-0.0-0.45,4233,7,8
46,4,object_01,object_10,514.455,7,1,414.85,0.2222222222222222,1,object_06,1,670,0,2,4,restaurant_9,2,memory-2step-stake-s,540,2799367,0.0-18.0-0.0-0.46,4233,7,8
47,4,object_10,object_01,649.49,7,2,525.42,0.3333333333333333,1,object_06,1,673,0,3,5,restaurant_13,2,memory-2step-stake-s,541,2807430,0.0-18.0-0.0-0.47,4233,8,7
48,2,object_04,object_08,455.64,4,1,443.365,0.5555555555555556,2,object_07,5,698,0,6,5,forest_7,2,memory-2step-stake-s,542,2815627,0.0-18.0-0.0-0.48,4233,4,3
49,4,object_10,object_01,472.015,7,2,448.015,0.5555555555555556,1,object_06,5,723,0,5,7,restaurant_12,2,memory-2step-stake-s,543,2823824,0.0-18.0-0.0-0.49,4233,8,7
50,2,object_04,object_08,653.965,4,1,482.365,0.5555555555555556,2,object_07,5,748,0,1,5,forest_4,2,memory-2step-stake-s,544,2832057,0.0-18.0-0.0-0.50,4233,4,3
51,2,object_04,object_08,1103.825,3,2,460.49,0.4444444444444444,1,object_06,5,768,0,4,1,forest_25,2,memory-2step-stake-s,545,2840154,0.0-18.0-0.0-0.51,4233,4,3
52,3,object_05,object_03,701.505,6,1,575.15,0.4444444444444444,2,object_07,5,788,0,6,4,library_6,2,memory-2step-stake-s,546,2848380,0.0-18.0-0.0-0.52,4233,6,5
53,2,object_04,object_08,783.255,4,1,440.39,0.4444444444444444,2,object_07,1,792,0,9,4,forest_32,2,memory-2step-stake-s,547,2856472,0.0-18.0-0.0-0.53,4233,4,3
54,1,object_02,object_09,447.71,2,2,368.255,0.3333333333333333,2,object_07,1,795,0,9,3,desert_9,2,memory-2step-stake-s,548,2864384,0.0-18.0-0.0-0.54,4233,1,2
55,4,object_01,object_10,747.56,7,1,416.46,0.8888888888888888,1,object_06,1,803,0,8,5,restaurant_27,2,memory-2step-stake-s,549,2872854,0.0-18.0-0.0-0.55,4233,7,8
56,2,object_04,object_08,660.445,4,1,545.145,0.3333333333333333,2,object_07,5,818,0,9,3,forest_32,2,memory-2step-stake-s,550,2880944,0.0-18.0-0.0-0.56,4233,4,3
57,1,object_02,object_09,672.29,2,2,478.955,0.1111111111111111,2,object_07,5,823,0,9,1,desert_29,2,memory-2step-stake-s,551,2888766,0.0-18.0-0.0-0.57,4233,1,2
58,1,object_02,object_09,521.575,2,2,642.99,0.6666666666666666,2,object_07,5,853,0,9,6,desert_24,2,memory-2step-stake-s,552,2897277,0.0-18.0-0.0-0.58,4233,1,2
59,3,object_05,object_03,1065.365,5,2,371.945,0.7777777777777778,1,object_06,5,888,0,7,7,library_28,2,memory-2step-stake-s,553,2905613,0.0-18.0-0.0-0.59,4233,6,5
60,3,object_03,object_05,613.57,6,2,449.075,0.8888888888888888,2,object_07,5,928,0,7,8,library_4,2,memory-2step-stake-s,554,2914117,0.0-18.0-0.0-0.60,4233,5,6
61,3,object_03,object_05,658.335,6,2,456.705,0.8888888888888888,2,object_07,5,968,0,8,8,library_5,2,memory-2step-stake-s,555,2922633,0.0-18.0-0.0-0.61,4233,5,6
62,2,object_04,object_08,886.785,3,2,588.6200001,0.6666666666666666,1,object_06,5,998,0,6,9,forest_27,2,memory-2step-stake-s,556,2931080,0.0-18.0-0.0-0.62,4233,4,3
63,4,object_10,object_01,730.895,7,2,342.71,0.8888888888888888,1,object_06,1,1006,0,8,8,restaurant_17,2,memory-2step-stake-s,557,2939477,0.0-18.0-0.0-0.63,4233,8,7
64,1,object_02,object_09,581.15,2,2,365.765,1.0,2,object_07,5,1051,0,8,9,desert_28,2,memory-2step-stake-s,558,2948002,0.0-18.0-0.0-0.64,4233,1,2
65,3,object_05,object_03,819.025,6,1,386.38,1.0,2,object_07,1,1060,0,8,9,library_24,2,memory-2step-stake-s,559,2956541,0.0-18.0-0.0-0.65,4233,6,5
66,1,object_09,object_02,585.415,2,1,400.275,0.8888888888888888,2,object_07,5,1100,0,8,8,desert_6,2,memory-2step-stake-s,560,2964992,0.0-18.0-0.0-0.66,4233,2,1
67,1,object_02,object_09,480.5,2,2,484.215,0.8888888888888888,2,object_07,5,1140,0,8,8,desert_6,2,memory-2step-stake-s,561,2973539,0.0-18.0-0.0-0.67,4233,1,2
68,2,object_08,object_04,694.635,4,2,323.09,0.7777777777777778,2,object_07,5,1175,0,6,7,forest_1,2,memory-2step-stake-s,562,2981816,0.0-18.0-0.0-0.68,4233,3,4
69,2,object_08,object_04,511.92,3,1,451.17,0.6666666666666666,1,object_06,5,1205,0,6,8,forest_1,2,memory-2step-stake-s,563,2990124,0.0-18.0-0.0-0.69,4233,3,4
70,2,object_04,object_08,807.415,3,2,574.965,0.6666666666666666,1,object_06,5,1235,0,6,7,forest_21,2,memory-2step-stake-s,564,2998548,0.0-18.0-0.0-0.70,4233,4,3
71,3,object_03,object_05,681.19,6,2,-1.0,0.0,2,object_07,1,1235,0,3,8,library_32,2,memory-2step-stake-s,565,3007081,0.0-18.0-0.0-0.71,4233,5,6
72,1,object_09,object_02,675.93,2,1,346.27,0.8888888888888888,2,object_07,1,1243,0,1,8,desert_6,2,memory-2step-stake-s,566,3015475,0.0-18.0-0.0-0.72,4233,2,1
73,2,object_08,object_04,710.635,3,1,433.53,0.2222222222222222,1,object_06,1,1245,0,2,8,forest_6,2,memory-2step-stake-s,567,3023344,0.0-18.0-0.0-0.73,4233,3,4
74,4,object_01,object_10,605.44,7,1,395.575,0.2222222222222222,1,object_06,1,1247,0,2,9,restaurant_20,2,memory-2step-stake-s,568,3031178,0.0-18.0-0.0-0.74,4233,7,8
75,4,object_10,object_01,753.735,7,2,495.315,0.2222222222222222,1,object_06,5,1257,0,2,8,restaurant_22,2,memory-2step-stake-s,569,3039107,0.0-18.0-0.0-0.75,4233,8,7
76,2,object_08,object_04,555.76,3,1,414.585,0.2222222222222222,1,object_06,5,1267,0,2,9,forest_18,2,memory-2step-stake-s,570,3046963,0.0-18.0-0.0-0.76,4233,3,4
77,3,object_03,object_05,703.635,6,2,429.145,1.0,2,object_07,1,1276,0,0,9,library_21,2,memory-2step-stake-s,571,3055543,0.0-18.0-0.0-0.77,4233,5,6
78,3,object_03,object_05,420.075,6,2,350.555,0.7777777777777778,2,object_07,5,1311,0,2,7,library_16,2,memory-2step-stake-s,572,3063845,0.0-18.0-0.0-0.78,4233,5,6
79,3,object_05,object_03,583.995,6,1,537.685,0.5555555555555556,2,object_07,1,1316,0,2,5,library_31,2,memory-2step-stake-s,573,3072130,0.0-18.0-0.0-0.79,4233,6,5
80,3,object_05,object_03,726.745,6,1,461.695,0.6666666666666666,2,object_07,1,1322,0,1,6,library_6,2,memory-2step-stake-s,574,3080425,0.0-18.0-0.0-0.80,4233,6,5
81,3,object_05,object_03,449.435,5,2,315.945,0.0,1,object_06,1,1322,0,0,7,library_32,2,memory-2step-stake-s,575,3087966,0.0-18.0-0.0-0.81,4233,6,5
82,2,object_08,object_04,437.93,3,1,447.455,0.2222222222222222,1,object_06,5,1332,0,2,9,forest_20,2,memory-2step-stake-s,576,3095851,0.0-18.0-0.0-0.82,4233,3,4
83,4,object_01,object_10,620.7199999,7,1,688.04,0.2222222222222222,1,object_06,1,1334,0,2,7,restaurant_23,2,memory-2step-stake-s,577,3103971,0.0-18.0-0.0-0.83,4233,7,8
84,4,object_01,object_10,515.125,7,1,375.755,0.6666666666666666,1,object_06,1,1340,0,6,8,restaurant_23,2,memory-2step-stake-s,578,3112198,0.0-18.0-0.0-0.84,4233,7,8
85,1,object_09,object_02,652.29,2,1,428.88,0.8888888888888888,2,object_07,5,1380,0,6,8,desert_24,2,memory-2step-stake-s,579,3120682,0.0-18.0-0.0-0.85,4233,2,1
86,3,object_05,object_03,605.09,6,1,675.77,0.6666666666666666,2,object_07,1,1386,0,8,6,library_10,2,memory-2step-stake-s,580,3129212,0.0-18.0-0.0-0.86,4233,6,5
87,2,object_04,object_08,625.66,3,2,714.975,0.5555555555555556,1,object_06,1,1391,0,5,5,forest_22,2,memory-2step-stake-s,581,3137674,0.0-18.0-0.0-0.87,4233,4,3
88,2,object_04,object_08,429.98,4,1,378.03,0.6666666666666666,2,object_07,1,1397,0,5,6,forest_3,2,memory-2step-stake-s,582,3145900,0.0-18.0-0.0-0.88,4233,4,3
89,4,object_10,object_01,442.725,7,2,444.325,0.5555555555555556,1,object_06,1,1402,0,5,6,restaurant_17,2,memory-2step-stake-s,583,3154091,0.0-18.0-0.0-0.89,4233,8,7
90,4,object_10,object_01,374.04,7,2,808.92,0.7777777777777778,1,object_06,5,1437,0,7,6,restaurant_14,2,memory-2step-stake-s,584,3162855,0.0-18.0-0.0-0.90,4233,8,7
91,2,object_08,object_04,680.31,3,1,551.75,0.7777777777777778,1,object_06,5,1472,0,7,3,forest_24,2,memory-2step-stake-s,585,3171373,0.0-18.0-0.0-0.91,4233,3,4
92,4,object_10,object_01,744.885,7,2,627.33,0.7777777777777778,1,object_06,1,1479,0,7,2,restaurant_5,2,memory-2step-stake-s,586,3179947,0.0-18.0-0.0-0.92,4233,8,7
93,1,object_09,object_02,996.945,2,1,444.96,0.2222222222222222,2,object_07,5,1489,0,7,2,desert_10,2,memory-2step-stake-s,587,3187837,0.0-18.0-0.0-0.93,4233,2,1
94,3,object_03,object_05,584.585,6,2,78.99999997,0.4444444444444444,2,object_07,1,1493,0,7,4,library_18,2,memory-2step-stake-s,588,3195562,0.0-18.0-0.0-0.94,4233,5,6
95,1,object_09,object_02,677.205,2,1,825.62,0.5555555555555556,2,object_07,5,1518,0,6,5,desert_20,2,memory-2step-stake-s,589,3204135,0.0-18.0-0.0-0.95,4233,2,1
96,2,object_08,object_04,788.225,3,1,470.51,0.6666666666666666,1,object_06,5,1548,0,6,6,forest_18,2,memory-2step-stake-s,590,3212453,0.0-18.0-0.0-0.96,4233,3,4
97,2,object_08,object_04,493.62,3,1,411.205,0.7777777777777778,1,object_06,5,1583,0,7,4,forest_22,2,memory-2step-stake-s,591,3220827,0.0-18.0-0.0-0.97,4233,3,4
98,2,object_04,object_08,708.45,4,1,508.665,0.2222222222222222,2,object_07,5,1593,0,5,2,forest_20,2,memory-2step-stake-s,592,3228767,0.0-18.0-0.0-0.98,4233,4,3
99,1,object_09,object_02,535.4399999,2,1,444.84,0.2222222222222222,2,object_07,5,1603,0,6,2,desert_25,2,memory-2step-stake-s,593,3236646,0.0-18.0-0.0-0.99,4233,2,1
100,4,object_01,object_10,560.7,7,1,513.915,1.0,1,object_06,5,1648,0,9,2,restaurant_27,2,memory-2step-stake-s,594,3245308,0.0-18.0-0.0-0.100,4233,7,8
101,1,object_09,object_02,602.66,2,1,834.315,0.2222222222222222,2,object_07,5,1658,0,7,2,desert_28,2,memory-2step-stake-s,595,3253580,0.0-18.0-0.0-0.101,4233,2,1
102,1,object_09,object_02,547.98,2,1,561.54,0.4444444444444444,2,object_07,5,1678,0,8,4,desert_24,2,memory-2step-stake-s,596,3261788,0.0-18.0-0.0-0.102,4233,2,1
103,1,object_02,object_09,495.97,1,1,412.1,0.7777777777777778,1,object_06,5,1713,0,7,2,desert_27,2,memory-2step-stake-s,597,3270143,0.0-18.0-0.0-0.103,4233,1,2
104,1,object_02,object_09,607.365,2,2,353.265,0.4444444444444444,2,object_07,1,1717,0,6,4,desert_32,2,memory-2step-stake-s,598,3278142,0.0-18.0-0.0-0.104,4233,1,2
105,1,object_09,object_02,623.78,2,1,349.085,0.4444444444444444,2,object_07,5,1737,0,5,4,desert_20,2,memory-2step-stake-s,599,3286130,0.0-18.0-0.0-0.105,4233,2,1
106,2,object_08,object_04,670.55,4,2,484.19,0.7777777777777778,2,object_07,5,1772,0,6,7,forest_11,2,memory-2step-stake-s,600,3294565,0.0-18.0-0.0-0.106,4233,3,4
107,4,object_01,object_10,560.295,7,1,366.495,0.6666666666666666,1,object_06,1,1778,0,6,4,restaurant_26,2,memory-2step-stake-s,601,3302776,0.0-18.0-0.0-0.107,4233,7,8
108,3,object_05,object_03,727.965,5,2,369.39,0.4444444444444444,1,object_06,1,1782,0,4,2,library_21,2,memory-2step-stake-s,602,3310789,0.0-18.0-0.0-0.108,4233,6,5
109,1,object_02,object_09,736.57,2,2,631.1,0.1111111111111111,2,object_07,5,1787,0,3,1,desert_12,2,memory-2step-stake-s,603,3318743,0.0-18.0-0.0-0.109,4233,1,2
110,2,object_08,object_04,688.76,3,1,578.685,0.4444444444444444,1,object_06,5,1807,0,4,0,forest_11,2,memory-2step-stake-s,604,3326975,0.0-18.0-0.0-0.110,4233,3,4
111,2,object_04,object_08,407.045,4,1,371.765,0.2222222222222222,2,object_07,5,1817,0,2,2,forest_12,2,memory-2step-stake-s,605,3334785,0.0-18.0-0.0-0.111,4233,4,3
112,1,object_02,object_09,1005.455,2,2,1117.06,0.2222222222222222,2,object_07,5,1827,0,2,2,desert_27,2,memory-2step-stake-s,606,3343339,0.0-18.0-0.0-0.112,4233,1,2
113,3,object_05,object_03,1006.86,6,1,369.25,0.2222222222222222,2,object_07,1,1829,0,4,2,library_18,2,memory-2step-stake-s,607,3351147,0.0-18.0-0.0-0.113,4233,6,5
114,4,object_10,object_01,582.655,7,2,454.325,0.5555555555555556,1,object_06,5,1854,0,5,2,restaurant_23,2,memory-2step-stake-s,608,3359346,0.0-18.0-0.0-0.114,4233,8,7
115,1,object_02,object_09,537.975,2,2,474.65,0.2222222222222222,2,object_07,5,1864,0,2,2,desert_25,2,memory-2step-stake-s,609,3367257,0.0-18.0-0.0-0.115,4233,1,2
116,2,object_08,object_04,565.515,3,1,299.25,0.4444444444444444,1,object_06,5,1884,0,4,4,forest_27,2,memory-2step-stake-s,610,3375190,0.0-18.0-0.0-0.116,4233,3,4
117,2,object_08,object_04,573.5,4,2,502.315,0.5555555555555556,2,object_07,1,1889,0,5,5,forest_12,2,memory-2step-stake-s,611,3383432,0.0-18.0-0.0-0.117,4233,3,4
118,3,object_05,object_03,955.005,6,1,-1.0,0.0,2,object_07,1,1889,0,7,5,library_15,2,memory-2step-stake-s,612,3391963,0.0-18.0-0.0-0.118,4233,6,5
119,3,object_03,object_05,618.925,6,2,861.765,0.4444444444444444,2,object_07,1,1893,0,7,4,library_13,2,memory-2step-stake-s,613,3400456,0.0-18.0-0.0-0.119,4233,5,6
120,3,object_05,object_03,456.7,6,1,1323.58,0.6666666666666666,2,object_07,1,1899,0,9,6,library_21,2,memory-2step-stake-s,614,3409636,0.0-18.0-0.0-0.120,4233,6,5
121,4,object_10,object_01,400.675,8,1,370.1,0.3333333333333333,2,object_07,1,1902,0,6,3,restaurant_12,2,memory-2step-stake-s,615,3417541,0.0-18.0-0.0-0.121,4233,8,7
122,3,object_05,object_03,937.375,6,1,377.665,0.1111111111111111,2,object_07,1,1903,0,7,1,library_6,2,memory-2step-stake-s,616,3425256,0.0-18.0-0.0-0.122,4233,6,5
123,2,object_04,object_08,608.06,3,2,406.855,0.7777777777777778,1,object_06,1,1910,0,7,0,forest_24,2,memory-2step-stake-s,617,3433617,0.0-18.0-0.0-0.123,4233,4,3
124,1,object_09,object_02,523.675,1,2,299.78,0.5555555555555556,1,object_06,5,1935,0,5,0,desert_12,2,memory-2step-stake-s,618,3441650,0.0-18.0-0.0-0.124,4233,2,1
125,2,object_08,object_04,644.965,3,1,-1.0,0.0,1,object_06,5,1935,0,9,0,forest_21,2,memory-2step-stake-s,619,3450178,0.0-18.0-0.0-0.125,4233,3,4
126,2,object_04,object_08,584.58,4,1,654.71,0.3333333333333333,2,object_07,5,1950,0,7,3,forest_32,2,memory-2step-stake-s,620,3458366,0.0-18.0-0.0-0.126,4233,4,3
127,1,object_09,object_02,1165.435,2,1,453.62,0.2222222222222222,2,object_07,5,1960,0,6,2,desert_13,2,memory-2step-stake-s,621,3466258,0.0-18.0-0.0-0.127,4233,2,1
128,3,object_03,object_05,579.985,6,2,311.87,0.4444444444444444,2,object_07,1,1964,0,6,4,library_10,2,memory-2step-stake-s,623,3701065,0.0-18.0-0.1-0.128,4233,5,6
129,1,object_09,object_02,305.865,2,1,263.58,0.2222222222222222,2,object_07,5,1974,0,4,2,desert_29,2,memory-2step-stake-s,624,3708767,0.0-18.0-0.1-0.129,4233,2,1
130,1,object_09,object_02,436.83,2,1,480.53,0.4444444444444444,2,object_07,5,1994,0,6,4,desert_29,2,memory-2step-stake-s,625,3716902,0.0-18.0-0.1-0.130,4233,2,1
131,4,object_01,object_10,672.18,7,1,459.765,0.5555555555555556,1,object_06,1,1999,0,5,6,restaurant_24,2,memory-2step-stake-s,626,3725115,0.0-18.0-0.1-0.131,4233,7,8
132,2,object_04,object_08,526.85,4,1,522.835,0.8888888888888888,2,object_07,5,2039,0,4,8,forest_6,2,memory-2step-stake-s,627,3733687,0.0-18.0-0.1-0.132,4233,4,3
133,1,object_02,object_09,1317.145,2,2,648.205,0.6666666666666666,2,object_07,5,2069,0,4,6,desert_9,2,memory-2step-stake-s,628,3742188,0.0-18.0-0.1-0.133,4233,1,2
134,3,object_05,object_03,-1.0,-1,-1,-1.0,0.0,-,,5,2069,0,3,9,library_13,2,memory-2step-stake-s,629,3748712,0.0-18.0-0.1-0.134,4233,6,5
135,4,object_01,object_10,563.68,7,1,425.445,0.6666666666666666,1,object_06,1,2075,0,6,8,restaurant_26,2,memory-2step-stake-s,630,3756992,0.0-18.0-0.1-0.135,4233,7,8
136,2,object_08,object_04,805.57,3,1,596.21,0.6666666666666666,1,object_06,1,2081,0,6,6,forest_7,2,memory-2step-stake-s,631,3765444,0.0-18.0-0.1-0.136,4233,3,4
137,3,object_05,object_03,902.8,5,2,505.985,0.5555555555555556,1,object_06,1,2086,0,5,8,library_4,2,memory-2step-stake-s,632,3773699,0.0-18.0-0.1-0.137,4233,6,5
138,4,object_10,object_01,374.0,8,1,505.985,0.8888888888888888,2,object_07,1,2094,0,8,8,restaurant_27,2,memory-2step-stake-s,633,3782264,0.0-18.0-0.1-0.138,4233,8,7
139,3,object_03,object_05,592.7,6,2,343.655,1.0,2,object_07,5,2139,0,6,9,library_6,2,memory-2step-stake-s,634,3790766,0.0-18.0-0.1-0.139,4233,5,6
140,1,object_02,object_09,928.925,2,2,1275.24,0.8888888888888888,2,object_07,1,2147,0,7,8,desert_18,2,memory-2step-stake-s,635,3800085,0.0-18.0-0.1-0.140,4233,1,2
141,1,object_02,object_09,815.91,2,2,1171.34,0.8888888888888888,2,object_07,5,2187,0,8,8,desert_32,2,memory-2step-stake-s,636,3809307,0.0-18.0-0.1-0.141,4233,1,2
142,4,object_01,object_10,620.75,7,1,382.635,0.5555555555555556,1,object_06,5,2212,0,5,8,restaurant_8,2,memory-2step-stake-s,637,3817441,0.0-18.0-0.1-0.142,4233,7,8
143,2,object_08,object_04,486.475,3,1,503.17,0.4444444444444444,1,object_06,1,2216,0,4,8,forest_24,2,memory-2step-stake-s,638,3825586,0.0-18.0-0.1-0.143,4233,3,4
144,3,object_05,object_03,680.765,6,1,413.205,0.5555555555555556,2,object_07,1,2221,0,5,5,library_24,2,memory-2step-stake-s,639,3833748,0.0-18.0-0.1-0.144,4233,6,5
145,3,object_03,object_05,663.2299998999999,6,2,1204.42,0.7777777777777778,2,object_07,1,2228,0,6,7,library_7,2,memory-2step-stake-s,640,3842914,0.0-18.0-0.1-0.145,4233,5,6
146,3,object_05,object_03,-1.0,-1,-1,-1.0,0.0,-,,1,2228,0,9,7,library_18,2,memory-2step-stake-s,641,3849439,0.0-18.0-0.1-0.146,4233,6,5
147,1,object_02,object_09,613.24,2,2,-1.0,0.0,2,object_07,5,2228,0,8,8,desert_20,2,memory-2step-stake-s,642,3857961,0.0-18.0-0.1-0.147,4233,1,2
148,1,object_02,object_09,550.57,2,2,781.63,0.7777777777777778,2,object_07,5,2263,0,7,7,desert_2,2,memory-2step-stake-s,643,3866697,0.0-18.0-0.1-0.148,4233,1,2
149,3,object_03,object_05,806.935,6,2,494.605,0.5555555555555556,2,object_07,1,2268,0,8,5,library_13,2,memory-2step-stake-s,644,3874938,0.0-18.0-0.1-0.149,4233,5,6
150,4,object_01,object_10,433.51,7,1,513.31,0.6666666666666666,1,object_06,1,2274,0,6,6,restaurant_8,2,memory-2step-stake-s,645,3883301,0.0-18.0-0.1-0.150,4233,7,8
151,3,object_05,object_03,572.2549999,6,1,612.95,0.6666666666666666,2,object_07,5,2304,0,8,6,library_30,2,memory-2step-stake-s,646,3891768,0.0-18.0-0.1-0.151,4233,6,5
152,1,object_09,object_02,586.575,2,1,531.915,0.6666666666666666,2,object_07,5,2334,0,8,6,desert_25,2,memory-2step-stake-s,647,3900155,0.0-18.0-0.1-0.152,4233,2,1
153,4,object_01,object_10,532.2749999,7,1,431.73,0.8888888888888888,1,object_06,5,2374,0,8,6,restaurant_9,2,memory-2step-stake-s,648,3908640,0.0-18.0-0.1-0.153,4233,7,8
154,4,object_01,object_10,511.785,7,1,917.64,0.7777777777777778,1,object_06,1,2381,0,7,2,restaurant_14,2,memory-2step-stake-s,649,3917498,0.0-18.0-0.1-0.154,4233,7,8
155,3,object_03,object_05,619.25,6,2,120.11,0.4444444444444444,2,object_07,1,2385,0,8,4,library_10,2,memory-2step-stake-s,650,3925261,0.0-18.0-0.1-0.155,4233,5,6
156,3,object_03,object_05,597.8,6,2,-1.0,0.0,2,object_07,1,2385,0,8,1,library_24,2,memory-2step-stake-s,651,3933788,0.0-18.0-0.1-0.156,4233,5,6
157,2,object_08,object_04,548.76,3,1,506.485,0.5555555555555556,1,object_06,1,2390,0,5,4,forest_6,2,memory-2step-stake-s,652,3942032,0.0-18.0-0.1-0.157,4233,3,4
158,3,object_03,object_05,584.94,6,2,-1.0,0.0,2,object_07,1,2390,0,5,3,library_16,2,memory-2step-stake-s,653,3950563,0.0-18.0-0.1-0.158,4233,5,6
159,4,object_01,object_10,556.28,7,1,552.845,1.0,1,object_06,5,2435,0,9,3,restaurant_18,2,memory-2step-stake-s,654,3959279,0.0-18.0-0.1-0.159,4233,7,8
160,4,object_10,object_01,465.155,8,1,343.46,0.1111111111111111,2,object_07,1,2436,0,9,1,restaurant_11,2,memory-2step-stake-s,655,3966952,0.0-18.0-0.1-0.160,4233,8,7
161,2,object_08,object_04,741.905,3,1,1416.78,0.8888888888888888,1,object_06,5,2476,0,8,2,forest_6,2,memory-2step-stake-s,656,3976425,0.0-18.0-0.1-0.161,4233,3,4
162,2,object_08,object_04,498.73,3,1,407.045,0.7777777777777778,1,object_06,5,2511,0,7,2,forest_3,2,memory-2step-stake-s,657,3984787,0.0-18.0-0.1-0.162,4233,3,4
163,1,object_02,object_09,497.275,1,1,495.485,0.6666666666666666,1,object_06,5,2541,0,6,1,desert_24,2,memory-2step-stake-s,658,3993140,0.0-18.0-0.1-0.163,4233,1,2
164,4,object_01,object_10,710.265,7,1,465.23,0.5555555555555556,1,object_06,1,2546,0,5,2,restaurant_20,2,memory-2step-stake-s,659,4001354,0.0-18.0-0.1-0.164,4233,7,8
165,4,object_10,object_01,712.785,7,2,352.695,0.3333333333333333,1,object_06,1,2549,0,3,1,restaurant_5,2,memory-2step-stake-s,660,4009245,0.0-18.0-0.1-0.165,4233,8,7
166,4,object_01,object_10,809.86,7,1,412.855,0.1111111111111111,1,object_06,1,2550,0,1,3,restaurant_5,2,memory-2step-stake-s,661,4016994,0.0-18.0-0.1-0.166,4233,7,8
167,4,object_10,object_01,661.785,7,2,-1.0,0.0,1,object_06,1,2550,0,2,3,restaurant_6,2,memory-2step-stake-s,662,4025521,0.0-18.0-0.1-0.167,4233,8,7
168,4,object_01,object_10,686.11,7,1,520.505,0.3333333333333333,1,object_06,5,2565,0,3,5,restaurant_9,2,memory-2step-stake-s,663,4033568,0.0-18.0-0.1-0.168,4233,7,8
169,3,object_05,object_03,764.725,6,1,486.395,0.7777777777777778,2,object_07,1,2572,0,2,7,library_7,2,memory-2step-stake-s,664,4041998,0.0-18.0-0.1-0.169,4233,6,5
170,1,object_02,object_09,611.525,2,2,302.45,0.7777777777777778,2,object_07,5,2607,0,1,7,desert_13,2,memory-2step-stake-s,665,4050234,0.0-18.0-0.1-0.170,4233,1,2
171,3,object_05,object_03,551.23,6,1,492.055,0.6666666666666666,2,object_07,1,2613,0,1,6,library_31,2,memory-2step-stake-s,666,4058570,0.0-18.0-0.1-0.171,4233,6,5
172,2,object_04,object_08,504.5,4,1,394.625,0.4444444444444444,2,object_07,5,2633,0,1,4,forest_21,2,memory-2step-stake-s,667,4066611,0.0-18.0-0.1-0.172,4233,4,3
173,3,object_05,object_03,1192.925,6,1,-1.0,0.0,2,object_07,1,2633,0,1,4,library_7,2,memory-2step-stake-s,668,4075144,0.0-18.0-0.1-0.173,4233,6,5
174,2,object_08,object_04,575.07,3,1,502.565,0.1111111111111111,1,object_06,5,2638,0,1,3,forest_3,2,memory-2step-stake-s,669,4082981,0.0-18.0-0.1-0.174,4233,3,4
175,2,object_04,object_08,629.605,4,1,441.6899999,0.4444444444444444,2,object_07,5,2658,0,2,4,forest_3,2,memory-2step-stake-s,670,4091067,0.0-18.0-0.1-0.175,4233,4,3
176,4,object_01,object_10,596.745,7,1,573.38,0.1111111111111111,1,object_06,1,2659,0,1,5,restaurant_17,2,memory-2step-stake-s,671,4098976,0.0-18.0-0.1-0.176,4233,7,8
177,3,object_03,object_05,602.92,6,2,574.3,0.7777777777777778,2,object_07,1,2666,0,5,7,library_24,2,memory-2step-stake-s,672,4107502,0.0-18.0-0.1-0.177,4233,5,6
178,2,object_08,object_04,709.585,3,1,-1.0,0.0,1,object_06,5,2666,0,6,6,forest_7,2,memory-2step-stake-s,673,4116036,0.0-18.0-0.1-0.178,4233,3,4
179,2,object_04,object_08,497.065,4,1,1207.315,0.5555555555555556,2,object_07,5,2691,0,6,5,forest_32,2,memory-2step-stake-s,674,4124977,0.0-18.0-0.1-0.179,4233,4,3
180,4,object_01,object_10,779.52,7,1,1435.05,0.8888888888888888,1,object_06,1,2699,0,8,6,restaurant_22,2,memory-2step-stake-s,675,4134463,0.0-18.0-0.1-0.180,4233,7,8
181,3,object_03,object_05,790.845,6,2,455.18,1.0,2,object_07,5,2744,0,7,9,library_5,2,memory-2step-stake-s,676,4143087,0.0-18.0-0.1-0.181,4233,5,6
182,3,object_05,object_03,486.965,6,1,516.415,0.8888888888888888,2,object_07,1,2752,0,8,8,library_28,2,memory-2step-stake-s,677,4151667,0.0-18.0-0.1-0.182,4233,6,5
183,3,object_03,object_05,386.8400001,5,1,433.07,1.0,1,object_06,1,2761,0,9,9,library_16,2,memory-2step-stake-s,678,4160265,0.0-18.0-0.1-0.183,4233,5,6
184,1,object_02,object_09,695.405,2,2,462.69,0.6666666666666666,2,object_07,5,2791,0,7,6,desert_11,2,memory-2step-stake-s,679,4168578,0.0-18.0-0.1-0.184,4233,1,2
185,4,object_01,object_10,506.86,7,1,1234.605,1.0,1,object_06,1,2800,0,9,4,restaurant_24,2,memory-2step-stake-s,680,4177977,0.0-18.0-0.1-0.185,4233,7,8
186,1,object_09,object_02,581.095,2,1,-1.0,0.0,2,object_07,5,2800,0,6,8,desert_13,2,memory-2step-stake-s,681,4186505,0.0-18.0-0.1-0.186,4233,2,1
187,2,object_08,object_04,1211.54,4,2,427.675,0.7777777777777778,2,object_07,5,2835,0,8,7,forest_22,2,memory-2step-stake-s,682,4194876,0.0-18.0-0.1-0.187,4233,3,4
188,4,object_10,object_01,1029.93,7,2,612.325,0.8888888888888888,1,object_06,5,2875,0,8,5,restaurant_24,2,memory-2step-stake-s,683,4203539,0.0-18.0-0.1-0.188,4233,8,7
189,4,object_01,object_10,504.955,7,1,418.665,0.6666666666666666,1,object_06,1,2881,0,6,6,restaurant_14,2,memory-2step-stake-s,684,4211804,0.0-18.0-0.1-0.189,4233,7,8
190,2,object_08,object_04,1172.135,4,2,1125.7,0.7777777777777778,2,object_07,1,2888,0,5,7,forest_25,2,memory-2step-stake-s,685,4220879,0.0-18.0-0.1-0.190,4233,3,4
191,3,object_03,object_05,767.685,6,2,584.81,0.7777777777777778,2,object_07,5,2923,0,7,7,library_28,2,memory-2step-stake-s,686,4229418,0.0-18.0-0.1-0.191,4233,5,6
192,1,object_02,object_09,380.19,1,1,453.91,0.7777777777777778,1,object_06,1,2930,0,7,8,desert_4,2,memory-2step-stake-s,687,4237823,0.0-18.0-0.1-0.192,4233,1,2
193,1,object_09,object_02,647.105,2,1,1070.225,1.0,2,object_07,5,2975,0,7,9,desert_25,2,memory-2step-stake-s,688,4247063,0.0-18.0-0.1-0.193,4233,2,1
194,1,object_02,object_09,566.685,1,1,642.94,0.3333333333333333,1,object_06,1,2978,0,3,9,desert_4,2,memory-2step-stake-s,689,4255243,0.0-18.0-0.1-0.194,4233,1,2
195,2,object_04,object_08,762.925,3,2,406.485,0.1111111111111111,1,object_06,5,2983,0,1,9,forest_21,2,memory-2step-stake-s,690,4262979,0.0-18.0-0.1-0.195,4233,4,3
196,2,object_08,object_04,-1.0,-1,-1,-1.0,0.0,-,,1,2983,0,1,7,forest_4,2,memory-2step-stake-s,691,4269500,0.0-18.0-0.1-0.196,4233,3,4
197,2,object_04,object_08,157.46,4,1,406.485,0.7777777777777778,2,object_07,5,3018,0,0,7,forest_4,2,memory-2step-stake-s,692,4277862,0.0-18.0-0.1-0.197,4233,4,3
198,1,object_09,object_02,364.19,1,2,1171.845,0.3333333333333333,1,object_06,5,3033,0,3,7,desert_12,2,memory-2step-stake-s,693,4286580,0.0-18.0-0.1-0.198,4233,2,1
199,3,object_05,object_03,775.08,6,1,486.33,0.6666666666666666,2,object_07,1,3039,0,5,6,library_14,2,memory-2step-stake-s,694,4294922,0.0-18.0-0.1-0.199,4233,6,5
200,3,object_05,object_03,660.7,6,1,607.88,0.8888888888888888,2,object_07,5,3079,0,2,8,library_15,2,memory-2step-stake-s,695,4303577,0.0-18.0-0.1-0.200,4233,6,5
201,4,object_10,object_01,1027.73,7,2,820.485,0.1111111111111111,1,object_06,1,3080,0,1,8,restaurant_26,2,memory-2step-stake-s,696,4311733,0.0-18.0-0.1-0.201,4233,8,7
202,4,object_10,object_01,499.055,8,1,806.915,0.7777777777777778,2,object_07,1,3087,0,1,7,restaurant_22,2,memory-2step-stake-s,697,4320493,0.0-18.0-0.1-0.202,4233,8,7
203,3,object_03,object_05,1196.25,6,2,1244.685,0.5555555555555556,2,object_07,1,3092,0,1,5,library_15,2,memory-2step-stake-s,698,4329478,0.0-18.0-0.1-0.203,4233,5,6
204,2,object_04,object_08,882.71,3,2,990.67,0.1111111111111111,1,object_06,5,3097,0,1,7,forest_12,2,memory-2step-stake-s,699,4337804,0.0-18.0-0.1-0.204,4233,4,3
205,3,object_05,object_03,772.53,5,2,1174.93,0.1111111111111111,1,object_06,5,3102,0,1,8,library_10,2,memory-2step-stake-s,700,4346314,0.0-18.0-0.1-0.205,4233,6,5
206,2,object_08,object_04,670.15,3,1,1138.615,0.3333333333333333,1,object_06,5,3117,0,3,9,forest_24,2,memory-2step-stake-s,701,4354999,0.0-18.0-0.1-0.206,4233,3,4
207,3,object_03,object_05,-1.0,-1,-1,-1.0,0.0,-,,1,3117,0,0,9,library_15,2,memory-2step-stake-s,702,4361523,0.0-18.0-0.1-0.207,4233,5,6
208,2,object_04,object_08,1333.25,4,1,1047.53,0.8888888888888888,2,object_07,5,3157,0,1,8,forest_22,2,memory-2step-stake-s,703,4370627,0.0-18.0-0.1-0.208,4233,4,3
209,4,object_01,object_10,965.365,7,1,712.91,0.1111111111111111,1,object_06,1,3158,0,1,8,restaurant_20,2,memory-2step-stake-s,704,4378668,0.0-18.0-0.1-0.209,4233,7,8
210,2,object_08,object_04,1255.735,3,1,829.065,0.2222222222222222,1,object_06,5,3168,0,2,7,forest_12,2,memory-2step-stake-s,705,4386928,0.0-18.0-0.1-0.210,4233,3,4
211,2,object_04,object_08,486.695,4,1,644.325,0.8888888888888888,2,object_07,1,3176,0,0,8,forest_11,2,memory-2step-stake-s,706,4395637,0.0-18.0-0.1-0.211,4233,4,3
212,1,object_02,object_09,954.2,1,1,703.575,0.1111111111111111,1,object_06,5,3181,0,1,7,desert_28,2,memory-2step-stake-s,707,4403670,0.0-18.0-0.1-0.212,4233,1,2
213,3,object_03,object_05,950.57,5,1,1357.89,0.3333333333333333,1,object_06,1,3184,0,3,9,library_14,2,memory-2step-stake-s,708,4412563,0.0-18.0-0.1-0.213,4233,5,6
214,1,object_02,object_09,1142.095,1,1,-1.0,0.0,1,object_06,5,3184,0,5,6,desert_11,2,memory-2step-stake-s,709,4421089,0.0-18.0-0.1-0.214,4233,1,2
215,4,object_10,object_01,-1.0,-1,-1,-1.0,0.0,-,,5,3184,0,3,7,restaurant_23,2,memory-2step-stake-s,710,4427610,0.0-18.0-0.1-0.215,4233,8,7
216,4,object_01,object_10,996.815,7,1,-1.0,0.0,1,object_06,1,3184,0,5,8,restaurant_9,2,memory-2step-stake-s,711,4436144,0.0-18.0-0.1-0.216,4233,7,8
217,4,object_10,object_01,758.4549999,8,1,1490.335,0.6666666666666666,2,object_07,1,3190,0,5,6,restaurant_18,2,memory-2step-stake-s,712,4445476,0.0-18.0-0.1-0.217,4233,8,7
218,4,object_01,object_10,-1.0,-1,-1,-1.0,0.0,-,,1,3190,0,4,3,restaurant_27,2,memory-2step-stake-s,713,4452001,0.0-18.0-0.1-0.218,4233,7,8
219,3,object_05,object_03,421.43,6,1,-1.0,0.0,2,object_07,1,3190,0,5,3,library_4,2,memory-2step-stake-s,714,4460526,0.0-18.0-0.1-0.219,4233,6,5
220,2,object_04,object_08,805.13,4,1,-1.0,0.0,2,object_07,5,3190,0,6,3,forest_1,2,memory-2step-stake-s,715,4469057,0.0-18.0-0.1-0.220,4233,4,3
221,2,object_04,object_08,436.11,4,1,806.585,0.2222222222222222,2,object_07,5,3200,0,9,2,forest_25,2,memory-2step-stake-s,716,4477297,0.0-18.0-0.1-0.221,4233,4,3
222,3,object_03,object_05,305.05,5,1,367.94,0.8888888888888888,1,object_06,5,3240,0,8,3,library_30,2,memory-2step-stake-s,717,4485730,0.0-18.0-0.1-0.222,4233,5,6
223,4,object_10,object_01,824.17,8,1,-1.0,0.0,2,object_07,1,3240,0,5,1,restaurant_11,2,memory-2step-stake-s,718,4494265,0.0-18.0-0.1-0.223,4233,8,7
224,1,object_02,object_09,548.33,1,1,847.89,0.5555555555555556,1,object_06,5,3265,0,5,4,desert_4,2,memory-2step-stake-s,719,4502857,0.0-18.0-0.1-0.224,4233,1,2
225,4,object_01,object_10,428.53,7,1,-1.0,0.0,1,object_06,1,3265,0,6,6,restaurant_13,2,memory-2step-stake-s,720,4511396,0.0-18.0-0.1-0.225,4233,7,8
226,3,object_05,object_03,-1.0,-1,-1,-1.0,0.0,-,,5,3265,0,7,8,library_14,2,memory-2step-stake-s,721,4517916,0.0-18.0-0.1-0.226,4233,6,5
227,2,object_08,object_04,-1.0,-1,-1,-1.0,0.0,-,,5,3265,0,9,7,forest_11,2,memory-2step-stake-s,722,4524440,0.0-18.0-0.1-0.227,4233,3,4
228,4,object_10,object_01,646.765,8,1,642.87,0.6666666666666666,2,object_07,1,3271,0,8,6,restaurant_26,2,memory-2step-stake-s,723,4532939,0.0-18.0-0.1-0.228,4233,8,7
229,2,object_08,object_04,532.76,3,1,989.13,0.6666666666666666,1,object_06,1,3277,0,6,5,forest_7,2,memory-2step-stake-s,724,4541770,0.0-18.0-0.1-0.229,4233,3,4
230,1,object_09,object_02,708.1,2,1,1245.555,0.3333333333333333,2,object_07,1,3280,0,7,3,desert_2,2,memory-2step-stake-s,725,4550544,0.0-18.0-0.1-0.230,4233,2,1
231,4,object_01,object_10,677.74,7,1,544.915,0.6666666666666666,1,object_06,5,3310,0,6,5,restaurant_6,2,memory-2step-stake-s,726,4558932,0.0-18.0-0.1-0.231,4233,7,8
232,1,object_09,object_02,1117.195,2,1,796.04,0.4444444444444444,2,object_07,5,3330,0,6,4,desert_11,2,memory-2step-stake-s,727,4567372,0.0-18.0-0.1-0.232,4233,2,1
233,1,object_02,object_09,598.24,1,1,-1.0,0.0,1,object_06,5,3330,0,6,3,desert_18,2,memory-2step-stake-s,728,4575901,0.0-18.0-0.1-0.233,4233,1,2
234,4,object_01,object_10,-1.0,-1,-1,-1.0,0.0,-,,1,3330,0,7,0,restaurant_13,2,memory-2step-stake-s,729,4582426,0.0-18.0-0.1-0.234,4233,7,8
235,1,object_09,object_02,525.945,2,1,450.1,0.3333333333333333,2,object_07,5,3345,0,6,3,desert_10,2,memory-2step-stake-s,730,4590403,0.0-18.0-0.1-0.235,4233,2,1
236,3,object_03,object_05,704.55,5,1,884.21,0.4444444444444444,1,object_06,1,3349,0,4,3,library_4,2,memory-2step-stake-s,731,4598926,0.0-18.0-0.1-0.236,4233,5,6
237,3,object_05,object_03,619.75,6,1,868.08,0.2222222222222222,2,object_07,1,3351,0,5,2,library_13,2,memory-2step-stake-s,732,4607232,0.0-18.0-0.1-0.237,4233,6,5
238,4,object_10,object_01,1314.665,8,1,-1.0,0.0,2,object_07,1,3351,0,2,1,restaurant_18,2,memory-2step-stake-s,733,4615765,0.0-18.0-0.1-0.238,4233,8,7
239,1,object_09,object_02,483.215,2,1,333.74,0.3333333333333333,2,object_07,5,3366,0,1,3,desert_13,2,memory-2step-stake-s,734,4623637,0.0-18.0-0.1-0.239,4233,2,1
240,3,object_05,object_03,562.71,6,1,1060.53,0.2222222222222222,2,object_07,1,3368,0,1,2,library_30,2,memory-2step-stake-s,735,4632133,0.0-18.0-0.1-0.240,4233,6,5
241,1,object_09,object_02,672.21,2,1,-1.0,0.0,2,object_07,5,3368,0,3,1,desert_18,2,memory-2step-stake-s,736,4640655,0.0-18.0-0.1-0.241,4233,2,1
242,1,object_09,object_02,401.02,2,1,760.39,0.2222222222222222,2,object_07,5,3378,0,4,2,desert_29,2,memory-2step-stake-s,737,4648855,0.0-18.0-0.1-0.242,4233,2,1
243,4,object_01,object_10,734.115,7,1,812.27,0.4444444444444444,1,object_06,1,3382,0,4,2,restaurant_20,2,memory-2step-stake-s,738,4657307,0.0-18.0-0.1-0.243,4233,7,8
244,2,object_08,object_04,-1.0,-1,-1,-1.0,0.0,-,,5,3382,0,5,5,forest_1,2,memory-2step-stake-s,739,4663826,0.0-18.0-0.1-0.244,4233,3,4
245,2,object_08,object_04,513.72,3,1,-1.0,0.0,1,object_06,5,3382,0,4,7,forest_18,2,memory-2step-stake-s,740,4672354,0.0-18.0-0.1-0.245,4233,3,4
246,4,object_01,object_10,-1.0,-1,-1,-1.0,0.0,-,,1,3382,0,6,7,restaurant_8,2,memory-2step-stake-s,741,4678879,0.0-18.0-0.1-0.246,4233,7,8
247,4,object_10,object_01,568.825,8,1,364.17,0.8888888888888888,2,object_07,1,3390,0,3,8,restaurant_17,2,memory-2step-stake-s,742,4687302,0.0-18.0-0.1-0.247,4233,8,7
248,4,object_01,object_10,353.99,7,1,365.34,0.3333333333333333,1,object_06,1,3393,0,3,7,restaurant_22,2,memory-2step-stake-s,743,4695209,0.0-18.0-0.1-0.248,4233,7,8
249,2,object_08,object_04,339.655,4,2,660.295,0.3333333333333333,2,object_07,5,3408,0,0,3,forest_25,2,memory-2step-stake-s,744,4703406,0.0-18.0-0.1-0.249,4233,3,4
250,4,object_10,object_01,475.095,8,1,-1.0,0.0,2,object_07,1,3408,0,2,6,restaurant_12,2,memory-2step-stake-s,745,4711929,0.0-18.0-0.1-0.250,4233,8,7
251,2,object_08,object_04,48.755,3,1,1426.865,0.3333333333333333,1,object_06,5,3423,0,3,5,forest_29,2,memory-2step-stake-s,746,4720886,0.0-18.0-0.1-0.251,4233,3,4
252,3,object_03,object_05,1334.89,5,1,888.13,0.3333333333333333,1,object_06,1,3426,0,3,4,library_14,2,memory-2step-stake-s,747,4729326,0.0-18.0-0.1-0.252,4233,5,6
253,1,object_02,object_09,309.22,1,1,740.205,0.3333333333333333,1,object_06,5,3441,0,3,5,desert_12,2,memory-2step-stake-s,748,4737598,0.0-18.0-0.1-0.253,4233,1,2
254,2,object_04,object_08,255.625,4,1,1398.38,0.5555555555555556,2,object_07,5,3466,0,2,5,forest_29,2,memory-2step-stake-s,749,4746740,0.0-18.0-0.1-0.254,4233,4,3
255,2,object_08,object_04,-1.0,-1,-1,-1.0,0.0,-,,5,3466,0,4,5,forest_4,2,memory-2step-stake-s,750,4753266,0.0-18.0-0.1-0.255,4233,3,4
