,state1,stim_left,stim_right,rt_1,choice1,response1,rt_2,points,state2,stim_state2,stake,score,practice,rews1,rews2,background,high_arm,trial_type,trial_index,time_elapsed,internal_node_id,subid,stim_left_num,stim_right_num
0,1,object_02,object_10,-1.0,-1,-1,-1.0,0.0,-,,1,0,0,8,3,desert_25,1,memory-2step-stake-s,491,958741,0.0-18.0-0.0-0.0,336,1,2
1,3,object_07,object_03,878.0,5,2,-1.0,0.0,1,object_09,5,0,0,7,4,library_2,1,memory-2step-stake-s,492,967251,0.0-18.0-0.0-0.1,336,6,5
2,1,object_02,object_10,637.0,2,2,549.0,0.3333333333333333,2,object_04,1,3,0,7,3,desert_6,1,memory-2step-stake-s,493,975309,0.0-18.0-0.0-0.2,336,1,2
3,1,object_02,object_10,510.0,1,1,570.0,0.7777777777777778,1,object_09,1,10,0,7,2,desert_22,1,memory-2step-stake-s,494,983790,0.0-18.0-0.0-0.3,336,1,2
4,2,object_05,object_08,872.0,3,1,392.0,0.6666666666666666,1,object_09,5,40,0,6,2,forest_13,1,memory-2step-stake-s,495,991993,0.0-18.0-0.0-0.4,336,3,4
5,2,object_05,object_08,746.0,3,1,327.0,0.6666666666666666,1,object_09,1,46,0,6,4,forest_20,1,memory-2step-stake-s,496,1000132,0.0-18.0-0.0-0.5,336,3,4
6,3,object_03,object_07,826.0,5,1,588.0,0.8888888888888888,1,object_09,5,86,0,8,5,library_22,1,memory-2step-stake-s,497,1008731,0.0-18.0-0.0-0.6,336,5,6
7,4,object_06,object_01,806.0,8,2,440.0,0.3333333333333333,2,object_04,5,101,0,9,3,restaurant_32,1,memory-2step-stake-s,498,1016677,0.0-18.0-0.0-0.7,336,7,8
8,4,object_01,object_06,787.0,7,2,583.0,0.8888888888888888,1,object_09,1,109,0,8,4,restaurant_22,1,memory-2step-stake-s,499,1025272,0.0-18.0-0.0-0.8,336,8,7
9,1,object_02,object_10,791.0,1,1,314.0,0.7777777777777778,1,object_09,1,116,0,7,7,desert_11,1,memory-2step-stake-s,500,1033496,0.0-18.0-0.0-0.9,336,1,2
10,3,object_07,object_03,924.0,6,1,520.0,0.8888888888888888,2,object_04,1,124,0,8,8,library_5,1,memory-2step-stake-s,501,1042027,0.0-18.0-0.0-0.10,336,6,5
11,1,object_10,object_02,609.0,2,1,243.0,0.8888888888888888,2,object_04,1,132,0,7,8,desert_8,1,memory-2step-stake-s,502,1050283,0.0-18.0-0.0-0.11,336,2,1
12,1,object_10,object_02,567.0,1,2,267.0,0.6666666666666666,1,object_09,5,162,0,6,8,desert_15,1,memory-2step-stake-s,503,1058359,0.0-18.0-0.0-0.12,336,2,1
13,3,object_03,object_07,702.0,6,2,239.0,0.6666666666666666,2,object_04,5,192,0,6,6,library_22,1,memory-2step-stake-s,504,1066408,0.0-18.0-0.0-0.13,336,5,6
14,4,object_01,object_06,711.0,7,2,431.0,0.5555555555555556,1,object_09,5,217,0,5,6,restaurant_32,1,memory-2step-stake-s,505,1074548,0.0-18.0-0.0-0.14,336,8,7
15,1,object_10,object_02,958.0,2,1,338.0,0.5555555555555556,2,object_04,1,222,0,6,5,desert_18,1,memory-2step-stake-s,506,1082596,0.0-18.0-0.0-0.15,336,2,1
16,4,object_06,object_01,768.0,8,2,326.0,0.4444444444444444,2,object_04,5,242,0,9,4,restaurant_2,1,memory-2step-stake-s,507,1090532,0.0-18.0-0.0-0.16,336,7,8
17,1,object_02,object_10,544.0,1,1,236.0,0.7777777777777778,1,object_09,1,249,0,7,0,desert_8,1,memory-2step-stake-s,508,1098679,0.0-18.0-0.0-0.17,336,1,2
18,1,object_10,object_02,676.0,1,2,229.0,0.6666666666666666,1,object_09,5,279,0,6,5,desert_6,1,memory-2step-stake-s,509,1106718,0.0-18.0-0.0-0.18,336,2,1
19,1,object_02,object_10,433.0,1,1,99.0,1.0,1,object_09,5,324,0,9,5,desert_1,1,memory-2step-stake-s,510,1114928,0.0-18.0-0.0-0.19,336,1,2
20,2,object_05,object_08,876.0,3,1,456.0,0.7777777777777778,1,object_09,1,331,0,7,1,forest_10,1,memory-2step-stake-s,511,1123294,0.0-18.0-0.0-0.20,336,3,4
21,1,object_02,object_10,594.0,1,1,220.0,0.7777777777777778,1,object_09,1,338,0,7,2,desert_13,1,memory-2step-stake-s,512,1131426,0.0-18.0-0.0-0.21,336,1,2
22,4,object_06,object_01,961.0,7,1,276.0,0.2222222222222222,1,object_09,5,348,0,2,5,restaurant_6,1,memory-2step-stake-s,513,1139108,0.0-18.0-0.0-0.22,336,7,8
23,3,object_07,object_03,748.0,5,2,268.0,0.1111111111111111,1,object_09,1,349,0,1,4,library_19,1,memory-2step-stake-s,514,1146685,0.0-18.0-0.0-0.23,336,6,5
24,2,object_05,object_08,994.0,4,2,331.0,0.2222222222222222,2,object_04,5,359,0,2,2,forest_28,1,memory-2step-stake-s,515,1154424,0.0-18.0-0.0-0.24,336,3,4
25,3,object_03,object_07,950.0,6,2,276.0,0.4444444444444444,2,object_04,5,379,0,1,4,library_19,1,memory-2step-stake-s,516,1162310,0.0-18.0-0.0-0.25,336,5,6
26,4,object_06,object_01,1077.0,7,1,361.0,0.2222222222222222,1,object_09,1,381,0,2,4,restaurant_10,1,memory-2step-stake-s,517,1170080,0.0-18.0-0.0-0.26,336,7,8
27,1,object_02,object_10,805.0,2,2,373.0,0.4444444444444444,2,object_04,5,401,0,1,4,desert_19,1,memory-2step-stake-s,518,1178062,0.0-18.0-0.0-0.27,336,1,2
28,2,object_05,object_08,871.0,4,2,290.0,0.6666666666666666,2,object_04,1,407,0,1,6,forest_6,1,memory-2step-stake-s,519,1186159,0.0-18.0-0.0-0.28,336,3,4
29,4,object_06,object_01,987.0,8,2,225.0,0.5555555555555556,2,object_04,5,432,0,0,5,restaurant_22,1,memory-2step-stake-s,520,1194093,0.0-18.0-0.0-0.29,336,7,8
30,2,object_08,object_05,743.0,4,1,240.0,0.5555555555555556,2,object_04,1,437,0,2,5,forest_15,1,memory-2step-stake-s,521,1202044,0.0-18.0-0.0-0.30,336,4,3
31,3,object_03,object_07,782.0,5,1,373.0,0.3333333333333333,1,object_09,5,452,0,3,5,library_3,1,memory-2step-stake-s,522,1209923,0.0-18.0-0.0-0.31,336,5,6
32,2,object_08,object_05,613.0,4,1,214.0,0.4444444444444444,2,object_04,5,472,0,1,4,forest_9,1,memory-2step-stake-s,523,1217748,0.0-18.0-0.0-0.32,336,4,3
33,1,object_10,object_02,665.0,1,2,269.0,0.1111111111111111,1,object_09,1,473,0,1,4,desert_1,1,memory-2step-stake-s,524,1225324,0.0-18.0-0.0-0.33,336,2,1
34,2,object_05,object_08,570.0,4,2,256.0,0.3333333333333333,2,object_04,1,476,0,0,3,forest_4,1,memory-2step-stake-s,525,1233086,0.0-18.0-0.0-0.34,336,3,4
35,4,object_06,object_01,1034.0,8,2,306.0,0.3333333333333333,2,object_04,5,491,0,4,3,restaurant_12,1,memory-2step-stake-s,526,1240900,0.0-18.0-0.0-0.35,336,7,8
36,2,object_05,object_08,619.0,4,2,270.0,0.1111111111111111,2,object_04,1,492,0,4,1,forest_13,1,memory-2step-stake-s,527,1248477,0.0-18.0-0.0-0.36,336,3,4
37,3,object_03,object_07,814.0,6,2,435.0,0.1111111111111111,2,object_04,5,497,0,5,1,library_14,1,memory-2step-stake-s,528,1256220,0.0-18.0-0.0-0.37,336,5,6
38,3,object_07,object_03,1233.0,6,1,433.0,0.0,2,object_04,5,497,0,4,0,library_9,1,memory-2step-stake-s,529,1263860,0.0-18.0-0.0-0.38,336,6,5
39,4,object_06,object_01,761.0,7,1,310.0,0.5555555555555556,1,object_09,5,522,0,5,1,restaurant_5,1,memory-2step-stake-s,530,1271879,0.0-18.0-0.0-0.39,336,7,8
40,4,object_06,object_01,869.0,7,1,259.0,0.3333333333333333,1,object_09,5,537,0,3,1,restaurant_2,1,memory-2step-stake-s,531,1279647,0.0-18.0-0.0-0.40,336,7,8
41,3,object_07,object_03,846.0,5,2,268.0,0.1111111111111111,1,object_09,5,542,0,1,1,library_14,1,memory-2step-stake-s,532,1287224,0.0-18.0-0.0-0.41,336,6,5
42,1,object_02,object_10,651.0,2,2,353.0,0.1111111111111111,2,object_04,1,543,0,1,1,desert_12,1,memory-2step-stake-s,533,1294883,0.0-18.0-0.0-0.42,336,1,2
43,4,object_01,object_06,848.0,7,2,244.0,0.1111111111111111,1,object_09,5,548,0,1,1,restaurant_12,1,memory-2step-stake-s,534,1302435,0.0-18.0-0.0-0.43,336,8,7
44,2,object_08,object_05,665.0,4,1,233.0,0.0,2,object_04,5,548,0,1,0,forest_9,1,memory-2step-stake-s,535,1309874,0.0-18.0-0.0-0.44,336,4,3
45,4,object_01,object_06,570.0,7,2,519.0,0.1111111111111111,1,object_09,5,553,0,1,3,restaurant_24,1,memory-2step-stake-s,536,1317698,0.0-18.0-0.0-0.45,336,8,7
46,1,object_02,object_10,832.0,2,2,1282.0,0.3333333333333333,2,object_04,1,556,0,1,3,desert_15,1,memory-2step-stake-s,537,1326488,0.0-18.0-0.0-0.46,336,1,2
47,2,object_05,object_08,940.0,4,2,573.0,0.4444444444444444,2,object_04,1,560,0,1,4,forest_11,1,memory-2step-stake-s,538,1334673,0.0-18.0-0.0-0.47,336,3,4
48,2,object_08,object_05,806.0,4,1,364.0,0.3333333333333333,2,object_04,1,563,0,0,3,forest_3,1,memory-2step-stake-s,539,1342546,0.0-18.0-0.0-0.48,336,4,3
49,4,object_01,object_06,896.0,7,2,593.0,0.4444444444444444,1,object_09,5,583,0,4,2,restaurant_32,1,memory-2step-stake-s,540,1350748,0.0-18.0-0.0-0.49,336,8,7
50,4,object_01,object_06,-1.0,-1,-1,-1.0,0.0,-,,1,583,0,4,2,restaurant_16,1,memory-2step-stake-s,541,1357253,0.0-18.0-0.0-0.50,336,8,7
51,2,object_08,object_05,1010.0,3,2,639.0,0.5555555555555556,1,object_09,1,588,0,5,1,forest_29,1,memory-2step-stake-s,542,1365604,0.0-18.0-0.0-0.51,336,4,3
52,3,object_03,object_07,887.0,5,1,326.0,0.7777777777777778,1,object_09,5,623,0,7,1,library_31,1,memory-2step-stake-s,543,1373845,0.0-18.0-0.0-0.52,336,5,6
53,1,object_10,object_02,553.0,1,2,300.0,0.7777777777777778,1,object_09,5,658,0,7,1,desert_11,1,memory-2step-stake-s,544,1382056,0.0-18.0-0.0-0.53,336,2,1
54,3,object_03,object_07,755.0,5,1,447.0,0.6666666666666666,1,object_09,1,664,0,6,1,library_4,1,memory-2step-stake-s,545,1390316,0.0-18.0-0.0-0.54,336,5,6
55,2,object_05,object_08,749.0,3,1,217.0,0.3333333333333333,1,object_09,1,667,0,3,0,forest_10,1,memory-2step-stake-s,546,1398043,0.0-18.0-0.0-0.55,336,3,4
56,4,object_01,object_06,1275.0,7,2,303.0,0.3333333333333333,1,object_09,5,682,0,3,3,restaurant_19,1,memory-2step-stake-s,547,1405855,0.0-18.0-0.0-0.56,336,8,7
57,1,object_10,object_02,602.0,2,1,217.0,0.3333333333333333,2,object_04,1,685,0,4,3,desert_25,1,memory-2step-stake-s,548,1413582,0.0-18.0-0.0-0.57,336,2,1
58,2,object_08,object_05,580.0,4,1,243.0,0.2222222222222222,2,object_04,1,687,0,1,2,forest_15,1,memory-2step-stake-s,549,1421235,0.0-18.0-0.0-0.58,336,4,3
59,4,object_01,object_06,642.0,7,2,213.0,0.1111111111111111,1,object_09,5,692,0,1,4,restaurant_19,1,memory-2step-stake-s,550,1428758,0.0-18.0-0.0-0.59,336,8,7
60,3,object_03,object_07,726.0,5,1,288.0,0.3333333333333333,1,object_09,1,695,0,3,5,library_26,1,memory-2step-stake-s,551,1436555,0.0-18.0-0.0-0.60,336,5,6
61,1,object_10,object_02,467.0,1,2,311.0,0.3333333333333333,1,object_09,1,698,0,3,2,desert_6,1,memory-2step-stake-s,552,1444377,0.0-18.0-0.0-0.61,336,2,1
62,3,object_03,object_07,831.0,5,1,-1.0,0.0,1,object_09,5,698,0,0,5,library_31,1,memory-2step-stake-s,553,1452886,0.0-18.0-0.0-0.62,336,5,6
63,4,object_06,object_01,795.0,7,1,322.0,0.5555555555555556,1,object_09,5,723,0,5,4,restaurant_2,1,memory-2step-stake-s,554,1460920,0.0-18.0-0.0-0.63,336,7,8
64,3,object_07,object_03,700.0,5,2,217.0,0.3333333333333333,1,object_09,5,738,0,3,3,library_6,1,memory-2step-stake-s,555,1468648,0.0-18.0-0.0-0.64,336,6,5
65,4,object_01,object_06,730.0,7,2,55.0,0.1111111111111111,1,object_09,5,743,0,1,1,restaurant_22,1,memory-2step-stake-s,556,1476012,0.0-18.0-0.0-0.65,336,8,7
66,4,object_01,object_06,629.0,8,1,303.0,0.3333333333333333,2,object_04,5,758,0,4,3,restaurant_24,1,memory-2step-stake-s,557,1483823,0.0-18.0-0.0-0.66,336,8,7
67,4,object_01,object_06,661.0,8,1,318.0,0.3333333333333333,2,object_04,5,773,0,6,3,restaurant_10,1,memory-2step-stake-s,558,1491651,0.0-18.0-0.0-0.67,336,8,7
68,1,object_10,object_02,856.0,1,2,220.0,0.8888888888888888,1,object_09,1,781,0,8,1,desert_19,1,memory-2step-stake-s,559,1499884,0.0-18.0-0.0-0.68,336,2,1
69,4,object_01,object_06,759.0,7,2,161.0,0.8888888888888888,1,object_09,5,821,0,8,1,restaurant_5,1,memory-2step-stake-s,560,1508058,0.0-18.0-0.0-0.69,336,8,7
70,1,object_02,object_10,516.0,1,1,7.0,1.0,1,object_09,5,866,0,9,1,desert_12,1,memory-2step-stake-s,561,1516179,0.0-18.0-0.0-0.70,336,1,2
71,3,object_07,object_03,342.0,5,2,49.0,0.8888888888888888,1,object_09,5,906,0,8,1,library_4,1,memory-2step-stake-s,562,1524243,0.0-18.0-0.0-0.71,336,6,5
72,3,object_03,object_07,404.0,5,1,221.0,1.0,1,object_09,5,951,0,9,1,library_24,1,memory-2step-stake-s,563,1532574,0.0-18.0-0.0-0.72,336,5,6
73,1,object_02,object_10,802.0,2,2,233.0,0.2222222222222222,2,object_04,1,953,0,8,2,desert_32,1,memory-2step-stake-s,564,1540216,0.0-18.0-0.0-0.73,336,1,2
74,1,object_10,object_02,597.0,1,2,190.0,0.6666666666666666,1,object_09,1,959,0,6,4,desert_22,1,memory-2step-stake-s,565,1548219,0.0-18.0-0.0-0.74,336,2,1
75,3,object_03,object_07,613.0,5,1,246.0,1.0,1,object_09,5,1004,0,9,4,library_3,1,memory-2step-stake-s,566,1556580,0.0-18.0-0.0-0.75,336,5,6
76,1,object_02,object_10,560.0,1,1,80.0,0.8888888888888888,1,object_09,1,1012,0,8,7,desert_12,1,memory-2step-stake-s,567,1564673,0.0-18.0-0.0-0.76,336,1,2
77,4,object_06,object_01,566.0,7,1,265.0,1.0,1,object_09,5,1057,0,9,8,restaurant_12,1,memory-2step-stake-s,568,1573051,0.0-18.0-0.0-0.77,336,7,8
78,3,object_03,object_07,548.0,5,1,58.0,0.8888888888888888,1,object_09,1,1065,0,8,5,library_31,1,memory-2step-stake-s,569,1581123,0.0-18.0-0.0-0.78,336,5,6
79,3,object_07,object_03,557.0,5,2,266.0,0.6666666666666666,1,object_09,5,1095,0,6,4,library_26,1,memory-2step-stake-s,570,1589198,0.0-18.0-0.0-0.79,336,6,5
80,1,object_02,object_10,569.0,1,1,199.0,0.8888888888888888,1,object_09,5,1135,0,8,3,desert_18,1,memory-2step-stake-s,571,1597411,0.0-18.0-0.0-0.80,336,1,2
81,4,object_06,object_01,654.0,7,1,249.0,0.8888888888888888,1,object_09,5,1175,0,8,3,restaurant_31,1,memory-2step-stake-s,572,1605672,0.0-18.0-0.0-0.81,336,7,8
82,4,object_06,object_01,609.0,7,1,390.0,0.8888888888888888,1,object_09,1,1183,0,8,3,restaurant_24,1,memory-2step-stake-s,573,1614077,0.0-18.0-0.0-0.82,336,7,8
83,3,object_07,object_03,602.0,5,2,216.0,0.4444444444444444,1,object_09,5,1203,0,4,3,library_28,1,memory-2step-stake-s,574,1621903,0.0-18.0-0.0-0.83,336,6,5
84,3,object_07,object_03,682.0,5,2,221.0,0.5555555555555556,1,object_09,5,1228,0,5,2,library_3,1,memory-2step-stake-s,575,1629836,0.0-18.0-0.0-0.84,336,6,5
85,3,object_07,object_03,749.0,6,1,253.0,0.1111111111111111,2,object_04,5,1233,0,1,1,library_28,1,memory-2step-stake-s,576,1637397,0.0-18.0-0.0-0.85,336,6,5
86,2,object_05,object_08,881.0,3,1,228.0,0.1111111111111111,1,object_09,1,1234,0,1,2,forest_11,1,memory-2step-stake-s,577,1644933,0.0-18.0-0.0-0.86,336,3,4
87,3,object_03,object_07,946.0,6,2,360.0,0.4444444444444444,2,object_04,1,1238,0,1,4,library_2,1,memory-2step-stake-s,578,1652905,0.0-18.0-0.0-0.87,336,5,6
88,1,object_10,object_02,707.0,2,1,335.0,0.6666666666666666,2,object_04,5,1268,0,1,6,desert_18,1,memory-2step-stake-s,579,1661051,0.0-18.0-0.0-0.88,336,2,1
89,1,object_02,object_10,758.0,2,2,214.0,0.7777777777777778,2,object_04,1,1275,0,3,7,desert_31,1,memory-2step-stake-s,580,1669176,0.0-18.0-0.0-0.89,336,1,2
90,2,object_08,object_05,588.0,4,1,222.0,0.6666666666666666,2,object_04,1,1281,0,3,6,forest_3,1,memory-2step-stake-s,581,1677209,0.0-18.0-0.0-0.90,336,4,3
91,1,object_10,object_02,608.0,2,1,231.0,0.5555555555555556,2,object_04,1,1286,0,5,5,desert_22,1,memory-2step-stake-s,582,1685152,0.0-18.0-0.0-0.91,336,2,1
92,3,object_03,object_07,748.0,5,1,212.0,0.8888888888888888,1,object_09,5,1326,0,8,8,library_1,1,memory-2step-stake-s,583,1693377,0.0-18.0-0.0-0.92,336,5,6
93,1,object_10,object_02,618.0,1,2,216.0,0.4444444444444444,1,object_09,1,1330,0,4,5,desert_17,1,memory-2step-stake-s,584,1701203,0.0-18.0-0.0-0.93,336,2,1
94,4,object_01,object_06,822.0,8,1,252.0,0.5555555555555556,2,object_04,1,1335,0,3,5,restaurant_15,1,memory-2step-stake-s,585,1709167,0.0-18.0-0.0-0.94,336,8,7
95,2,object_05,object_08,585.0,4,2,378.0,0.8888888888888888,2,object_04,1,1343,0,7,8,forest_7,1,memory-2step-stake-s,586,1717560,0.0-18.0-0.0-0.95,336,3,4
96,1,object_02,object_10,674.0,2,2,237.0,0.8888888888888888,2,object_04,1,1351,0,4,8,desert_13,1,memory-2step-stake-s,587,1725810,0.0-18.0-0.0-0.96,336,1,2
97,3,object_07,object_03,724.0,6,1,483.0,0.8888888888888888,2,object_04,5,1391,0,4,8,library_19,1,memory-2step-stake-s,588,1734306,0.0-18.0-0.0-0.97,336,6,5
98,2,object_08,object_05,518.0,4,1,340.0,0.5555555555555556,2,object_04,1,1396,0,6,5,forest_11,1,memory-2step-stake-s,589,1742357,0.0-18.0-0.0-0.98,336,4,3
99,3,object_03,object_07,692.0,6,2,239.0,0.2222222222222222,2,object_04,5,1406,0,5,2,library_7,1,memory-2step-stake-s,590,1750005,0.0-18.0-0.0-0.99,336,5,6
100,2,object_08,object_05,619.0,3,2,224.0,0.6666666666666666,1,object_09,5,1436,0,6,1,forest_10,1,memory-2step-stake-s,591,1758040,0.0-18.0-0.0-0.100,336,4,3
101,4,object_06,object_01,764.0,7,1,206.0,1.0,1,object_09,5,1481,0,9,2,restaurant_25,1,memory-2step-stake-s,592,1766359,0.0-18.0-0.0-0.101,336,7,8
102,4,object_06,object_01,498.0,7,1,230.0,0.8888888888888888,1,object_09,5,1521,0,8,4,restaurant_6,1,memory-2step-stake-s,593,1774602,0.0-18.0-0.0-0.102,336,7,8
103,3,object_07,object_03,757.0,5,2,282.0,0.8888888888888888,1,object_09,5,1561,0,8,5,library_1,1,memory-2step-stake-s,594,1782897,0.0-18.0-0.0-0.103,336,6,5
104,2,object_08,object_05,642.0,3,2,284.0,0.8888888888888888,1,object_09,1,1569,0,8,6,forest_17,1,memory-2step-stake-s,595,1791193,0.0-18.0-0.0-0.104,336,4,3
105,2,object_05,object_08,600.0,4,2,253.0,1.0,2,object_04,1,1578,0,9,9,forest_24,1,memory-2step-stake-s,596,1799560,0.0-18.0-0.0-0.105,336,3,4
106,2,object_05,object_08,829.0,3,1,421.0,0.8888888888888888,1,object_09,1,1586,0,8,8,forest_15,1,memory-2step-stake-s,597,1807994,0.0-18.0-0.0-0.106,336,3,4
107,1,object_10,object_02,780.0,2,1,211.0,0.6666666666666666,2,object_04,1,1592,0,8,6,desert_19,1,memory-2step-stake-s,598,1816017,0.0-18.0-0.0-0.107,336,2,1
108,1,object_02,object_10,464.0,1,1,482.0,0.7777777777777778,1,object_09,1,1599,0,7,7,desert_8,1,memory-2step-stake-s,599,1824410,0.0-18.0-0.0-0.108,336,1,2
109,3,object_07,object_03,684.0,5,2,366.0,0.8888888888888888,1,object_09,5,1639,0,8,8,library_24,1,memory-2step-stake-s,600,1832787,0.0-18.0-0.0-0.109,336,6,5
110,3,object_03,object_07,1060.0,5,1,472.0,0.8888888888888888,1,object_09,1,1647,0,8,8,library_10,1,memory-2step-stake-s,601,1841271,0.0-18.0-0.0-0.110,336,5,6
111,3,object_07,object_03,1233.0,6,1,477.0,0.7777777777777778,2,object_04,1,1654,0,8,7,library_26,1,memory-2step-stake-s,602,1849660,0.0-18.0-0.0-0.111,336,6,5
112,1,object_02,object_10,525.0,1,1,396.0,0.8888888888888888,1,object_09,5,1694,0,8,6,desert_28,1,memory-2step-stake-s,603,1858068,0.0-18.0-0.0-0.112,336,1,2
113,2,object_08,object_05,890.0,4,1,233.0,0.5555555555555556,2,object_04,1,1699,0,7,5,forest_28,1,memory-2step-stake-s,604,1866011,0.0-18.0-0.0-0.113,336,4,3
114,3,object_03,object_07,660.0,5,1,208.0,0.5555555555555556,1,object_09,5,1724,0,5,3,library_1,1,memory-2step-stake-s,605,1873931,0.0-18.0-0.0-0.114,336,5,6
115,3,object_07,object_03,748.0,5,2,201.0,0.6666666666666666,1,object_09,5,1754,0,6,3,library_6,1,memory-2step-stake-s,606,1881944,0.0-18.0-0.0-0.115,336,6,5
116,4,object_01,object_06,630.0,7,2,237.0,0.5555555555555556,1,object_09,5,1779,0,5,3,restaurant_25,1,memory-2step-stake-s,607,1889891,0.0-18.0-0.0-0.116,336,8,7
117,4,object_01,object_06,676.0,8,1,333.0,0.0,2,object_04,1,1779,0,3,0,restaurant_25,1,memory-2step-stake-s,608,1897431,0.0-18.0-0.0-0.117,336,8,7
118,2,object_05,object_08,580.0,3,1,125.0,0.0,1,object_09,1,1779,0,0,0,forest_29,1,memory-2step-stake-s,609,1904765,0.0-18.0-0.0-0.118,336,3,4
119,4,object_01,object_06,647.0,8,1,210.0,0.2222222222222222,2,object_04,5,1789,0,2,2,restaurant_6,1,memory-2step-stake-s,610,1912384,0.0-18.0-0.0-0.119,336,8,7
120,2,object_08,object_05,1006.0,3,2,284.0,0.0,1,object_09,1,1789,0,0,3,forest_20,1,memory-2step-stake-s,611,1919876,0.0-18.0-0.0-0.120,336,4,3
121,2,object_08,object_05,767.0,4,1,229.0,0.7777777777777778,2,object_04,1,1796,0,4,7,forest_31,1,memory-2step-stake-s,612,1928018,0.0-18.0-0.0-0.121,336,4,3
122,1,object_10,object_02,856.0,2,1,311.0,0.6666666666666666,2,object_04,1,1802,0,4,6,desert_31,1,memory-2step-stake-s,613,1936141,0.0-18.0-0.0-0.122,336,2,1
123,1,object_02,object_10,799.0,2,2,318.0,0.6666666666666666,2,object_04,1,1808,0,1,6,desert_15,1,memory-2step-stake-s,614,1944271,0.0-18.0-0.0-0.123,336,1,2
124,4,object_01,object_06,698.0,8,1,224.0,0.4444444444444444,2,object_04,5,1828,0,2,4,restaurant_25,1,memory-2step-stake-s,615,1952105,0.0-18.0-0.0-0.124,336,8,7
125,4,object_06,object_01,786.0,8,2,278.0,0.5555555555555556,2,object_04,5,1853,0,2,5,restaurant_32,1,memory-2step-stake-s,616,1960095,0.0-18.0-0.0-0.125,336,7,8
126,1,object_02,object_10,1109.0,1,1,309.0,0.2222222222222222,1,object_09,1,1855,0,2,3,desert_28,1,memory-2step-stake-s,617,1967813,0.0-18.0-0.0-0.126,336,1,2
127,4,object_01,object_06,558.0,8,1,279.0,0.0,2,object_04,5,1855,0,3,0,restaurant_16,1,memory-2step-stake-s,618,1975299,0.0-18.0-0.0-0.127,336,8,7
128,4,object_06,object_01,465.0,7,1,210.0,0.3333333333333333,1,object_09,5,1870,0,3,2,restaurant_16,1,memory-2step-stake-s,620,2126726,0.0-18.0-0.1-0.128,336,7,8
129,1,object_10,object_02,610.0,2,1,449.0,0.5555555555555556,2,object_04,1,1875,0,5,5,desert_17,1,memory-2step-stake-s,621,2134887,0.0-18.0-0.1-0.129,336,2,1
130,1,object_10,object_02,1250.0,2,1,318.0,0.2222222222222222,2,object_04,1,1877,0,6,2,desert_17,1,memory-2step-stake-s,622,2142616,0.0-18.0-0.1-0.130,336,2,1
131,3,object_07,object_03,753.0,5,2,244.0,0.4444444444444444,1,object_09,5,1897,0,4,2,library_7,1,memory-2step-stake-s,623,2150470,0.0-18.0-0.1-0.131,336,6,5
132,3,object_07,object_03,751.0,5,2,346.0,0.3333333333333333,1,object_09,5,1912,0,3,5,library_24,1,memory-2step-stake-s,624,2158327,0.0-18.0-0.1-0.132,336,6,5
133,2,object_08,object_05,634.0,4,1,258.0,0.4444444444444444,2,object_04,1,1916,0,3,4,forest_17,1,memory-2step-stake-s,625,2166195,0.0-18.0-0.1-0.133,336,4,3
134,2,object_08,object_05,589.0,4,1,291.0,0.7777777777777778,2,object_04,1,1923,0,2,7,forest_6,1,memory-2step-stake-s,626,2174400,0.0-18.0-0.1-0.134,336,4,3
135,3,object_03,object_07,998.0,6,2,248.0,0.6666666666666666,2,object_04,5,1953,0,4,6,library_4,1,memory-2step-stake-s,627,2182460,0.0-18.0-0.1-0.135,336,5,6
136,3,object_03,object_07,758.0,6,2,231.0,0.4444444444444444,2,object_04,5,1973,0,5,4,library_2,1,memory-2step-stake-s,628,2190301,0.0-18.0-0.1-0.136,336,5,6
137,3,object_03,object_07,625.0,6,2,147.0,0.1111111111111111,2,object_04,5,1978,0,8,1,library_5,1,memory-2step-stake-s,629,2197757,0.0-18.0-0.1-0.137,336,5,6
138,3,object_03,object_07,709.0,5,1,227.0,0.8888888888888888,1,object_09,5,2018,0,8,1,library_28,1,memory-2step-stake-s,630,2205997,0.0-18.0-0.1-0.138,336,5,6
139,2,object_05,object_08,728.0,3,1,244.0,0.8888888888888888,1,object_09,1,2026,0,8,6,forest_9,1,memory-2step-stake-s,631,2214255,0.0-18.0-0.1-0.139,336,3,4
140,2,object_05,object_08,975.0,4,2,266.0,0.4444444444444444,2,object_04,1,2030,0,8,4,forest_28,1,memory-2step-stake-s,632,2222134,0.0-18.0-0.1-0.140,336,3,4
141,2,object_08,object_05,544.0,3,2,235.0,0.7777777777777778,1,object_09,1,2037,0,7,2,forest_7,1,memory-2step-stake-s,633,2230283,0.0-18.0-0.1-0.141,336,4,3
142,2,object_05,object_08,703.0,3,1,204.0,0.5555555555555556,1,object_09,1,2042,0,5,2,forest_7,1,memory-2step-stake-s,634,2238197,0.0-18.0-0.1-0.142,336,3,4
143,3,object_07,object_03,646.0,5,2,250.0,0.8888888888888888,1,object_09,5,2082,0,8,3,library_10,1,memory-2step-stake-s,635,2246461,0.0-18.0-0.1-0.143,336,6,5
144,2,object_05,object_08,737.0,3,1,208.0,0.7777777777777778,1,object_09,1,2089,0,7,3,forest_24,1,memory-2step-stake-s,636,2254581,0.0-18.0-0.1-0.144,336,3,4
145,1,object_02,object_10,601.0,1,1,201.0,0.6666666666666666,1,object_09,5,2119,0,6,5,desert_15,1,memory-2step-stake-s,637,2262593,0.0-18.0-0.1-0.145,336,1,2
146,4,object_01,object_06,814.0,7,2,539.0,1.0,1,object_09,5,2164,0,9,3,restaurant_23,1,memory-2step-stake-s,638,2271246,0.0-18.0-0.1-0.146,336,8,7
147,2,object_08,object_05,672.0,3,2,588.0,0.7777777777777778,1,object_09,5,2199,0,7,5,forest_4,1,memory-2step-stake-s,639,2279746,0.0-18.0-0.1-0.147,336,4,3
148,4,object_01,object_06,653.0,7,2,330.0,0.8888888888888888,1,object_09,5,2239,0,8,6,restaurant_23,1,memory-2step-stake-s,640,2288090,0.0-18.0-0.1-0.148,336,8,7
149,1,object_02,object_10,741.0,1,1,243.0,0.7777777777777778,1,object_09,1,2246,0,7,8,desert_13,1,memory-2step-stake-s,641,2296243,0.0-18.0-0.1-0.149,336,1,2
150,3,object_07,object_03,763.0,5,2,337.0,0.6666666666666666,1,object_09,1,2252,0,6,8,library_7,1,memory-2step-stake-s,642,2304393,0.0-18.0-0.1-0.150,336,6,5
151,2,object_08,object_05,371.0,4,1,174.0,1.0,2,object_04,1,2261,0,5,9,forest_10,1,memory-2step-stake-s,643,2312681,0.0-18.0-0.1-0.151,336,4,3
152,4,object_06,object_01,658.0,8,2,247.0,0.8888888888888888,2,object_04,5,2301,0,4,8,restaurant_8,1,memory-2step-stake-s,644,2320941,0.0-18.0-0.1-0.152,336,7,8
153,2,object_08,object_05,606.0,3,2,249.0,0.2222222222222222,1,object_09,1,2303,0,2,4,forest_16,1,memory-2step-stake-s,645,2328598,0.0-18.0-0.1-0.153,336,4,3
154,1,object_10,object_02,768.0,2,1,254.0,0.5555555555555556,2,object_04,1,2308,0,1,5,desert_11,1,memory-2step-stake-s,646,2336561,0.0-18.0-0.1-0.154,336,2,1
155,4,object_06,object_01,642.0,8,2,119.0,0.6666666666666666,2,object_04,5,2338,0,2,6,restaurant_23,1,memory-2step-stake-s,647,2344492,0.0-18.0-0.1-0.155,336,7,8
156,3,object_03,object_07,779.0,6,2,239.0,0.7777777777777778,2,object_04,5,2373,0,1,7,library_6,1,memory-2step-stake-s,648,2352645,0.0-18.0-0.1-0.156,336,5,6
157,2,object_08,object_05,1025.0,4,1,658.0,0.4444444444444444,2,object_04,1,2377,0,1,4,forest_24,1,memory-2step-stake-s,649,2360914,0.0-18.0-0.1-0.157,336,4,3
158,3,object_07,object_03,1017.0,6,1,626.0,0.5555555555555556,2,object_04,5,2402,0,3,5,library_9,1,memory-2step-stake-s,650,2369250,0.0-18.0-0.1-0.158,336,6,5
159,2,object_08,object_05,960.0,3,2,311.0,0.1111111111111111,1,object_09,1,2403,0,1,4,forest_16,1,memory-2step-stake-s,651,2376868,0.0-18.0-0.1-0.159,336,4,3
160,4,object_06,object_01,1123.0,8,2,433.0,0.4444444444444444,2,object_04,1,2407,0,3,4,restaurant_8,1,memory-2step-stake-s,652,2384911,0.0-18.0-0.1-0.160,336,7,8
161,3,object_03,object_07,927.0,6,2,395.0,0.3333333333333333,2,object_04,5,2422,0,3,3,library_2,1,memory-2step-stake-s,653,2392817,0.0-18.0-0.1-0.161,336,5,6
162,4,object_06,object_01,678.0,8,2,355.0,0.0,2,object_04,5,2422,0,1,0,restaurant_8,1,memory-2step-stake-s,654,2400380,0.0-18.0-0.1-0.162,336,7,8
163,3,object_03,object_07,691.0,5,1,233.0,0.4444444444444444,1,object_09,5,2442,0,4,3,library_26,1,memory-2step-stake-s,655,2408222,0.0-18.0-0.1-0.163,336,5,6
164,2,object_05,object_08,483.0,4,2,233.0,0.1111111111111111,2,object_04,1,2443,0,4,1,forest_20,1,memory-2step-stake-s,656,2415764,0.0-18.0-0.1-0.164,336,3,4
165,1,object_02,object_10,715.0,1,1,235.0,0.1111111111111111,1,object_09,1,2444,0,1,2,desert_31,1,memory-2step-stake-s,657,2423309,0.0-18.0-0.1-0.165,336,1,2
166,2,object_05,object_08,383.0,4,2,227.0,0.7777777777777778,2,object_04,1,2451,0,3,7,forest_6,1,memory-2step-stake-s,658,2431447,0.0-18.0-0.1-0.166,336,3,4
167,3,object_03,object_07,667.0,5,1,380.0,0.5555555555555556,1,object_09,1,2456,0,5,6,library_14,1,memory-2step-stake-s,659,2439536,0.0-18.0-0.1-0.167,336,5,6
168,3,object_07,object_03,718.0,6,1,246.0,0.8888888888888888,2,object_04,5,2496,0,3,8,library_10,1,memory-2step-stake-s,660,2447795,0.0-18.0-0.1-0.168,336,6,5
169,2,object_05,object_08,816.0,4,2,226.0,0.5555555555555556,2,object_04,1,2501,0,5,5,forest_3,1,memory-2step-stake-s,661,2455734,0.0-18.0-0.1-0.169,336,3,4
170,2,object_08,object_05,539.0,3,2,229.0,0.2222222222222222,1,object_09,1,2503,0,2,3,forest_16,1,memory-2step-stake-s,662,2463373,0.0-18.0-0.1-0.170,336,4,3
171,1,object_10,object_02,825.0,2,1,286.0,0.6666666666666666,2,object_04,1,2509,0,2,6,desert_31,1,memory-2step-stake-s,663,2471471,0.0-18.0-0.1-0.171,336,2,1
172,1,object_02,object_10,638.0,1,1,472.0,0.5555555555555556,1,object_09,1,2514,0,5,8,desert_32,1,memory-2step-stake-s,664,2479653,0.0-18.0-0.1-0.172,336,1,2
173,1,object_10,object_02,789.0,2,1,248.0,0.8888888888888888,2,object_04,5,2554,0,1,8,desert_16,1,memory-2step-stake-s,665,2487914,0.0-18.0-0.1-0.173,336,2,1
174,4,object_01,object_06,705.0,8,1,272.0,0.8888888888888888,2,object_04,5,2594,0,1,8,restaurant_14,1,memory-2step-stake-s,666,2496198,0.0-18.0-0.1-0.174,336,8,7
175,1,object_02,object_10,994.0,2,2,503.0,0.7777777777777778,2,object_04,1,2601,0,4,7,desert_25,1,memory-2step-stake-s,667,2504612,0.0-18.0-0.1-0.175,336,1,2
176,4,object_01,object_06,636.0,8,1,261.0,1.0,2,object_04,5,2646,0,5,9,restaurant_15,1,memory-2step-stake-s,668,2512987,0.0-18.0-0.1-0.176,336,8,7
177,2,object_05,object_08,615.0,4,2,239.0,0.8888888888888888,2,object_04,5,2686,0,7,8,forest_4,1,memory-2step-stake-s,669,2521238,0.0-18.0-0.1-0.177,336,3,4
178,2,object_05,object_08,716.0,3,1,279.0,0.8888888888888888,1,object_09,1,2694,0,8,9,forest_13,1,memory-2step-stake-s,670,2529530,0.0-18.0-0.1-0.178,336,3,4
179,4,object_06,object_01,793.0,7,1,241.0,0.8888888888888888,1,object_09,5,2734,0,8,8,restaurant_6,1,memory-2step-stake-s,671,2537783,0.0-18.0-0.1-0.179,336,7,8
180,3,object_03,object_07,724.0,5,1,242.0,0.4444444444444444,1,object_09,5,2754,0,4,8,library_1,1,memory-2step-stake-s,672,2545634,0.0-18.0-0.1-0.180,336,5,6
181,3,object_07,object_03,1313.0,5,2,313.0,0.3333333333333333,1,object_09,5,2769,0,3,9,library_24,1,memory-2step-stake-s,673,2553457,0.0-18.0-0.1-0.181,336,6,5
182,2,object_08,object_05,351.0,4,1,268.0,0.6666666666666666,2,object_04,1,2775,0,1,6,forest_3,1,memory-2step-stake-s,674,2561537,0.0-18.0-0.1-0.182,336,4,3
183,2,object_08,object_05,807.0,3,2,285.0,0.4444444444444444,1,object_09,1,2779,0,4,4,forest_16,1,memory-2step-stake-s,675,2569433,0.0-18.0-0.1-0.183,336,4,3
184,1,object_02,object_10,844.0,2,2,227.0,0.6666666666666666,2,object_04,1,2785,0,5,6,desert_32,1,memory-2step-stake-s,676,2577469,0.0-18.0-0.1-0.184,336,1,2
185,4,object_01,object_06,806.0,8,1,599.0,0.5555555555555556,2,object_04,1,2790,0,7,5,restaurant_15,1,memory-2step-stake-s,677,2585778,0.0-18.0-0.1-0.185,336,8,7
186,2,object_05,object_08,714.0,3,1,260.0,0.7777777777777778,1,object_09,1,2797,0,7,4,forest_17,1,memory-2step-stake-s,678,2593949,0.0-18.0-0.1-0.186,336,3,4
187,4,object_01,object_06,572.0,7,2,1109.0,0.8888888888888888,1,object_09,5,2837,0,8,3,restaurant_10,1,memory-2step-stake-s,679,2603069,0.0-18.0-0.1-0.187,336,8,7
188,1,object_10,object_02,1073.0,2,1,344.0,0.4444444444444444,2,object_04,1,2841,0,8,4,desert_19,1,memory-2step-stake-s,680,2611026,0.0-18.0-0.1-0.188,336,2,1
189,4,object_06,object_01,597.0,7,1,263.0,1.0,1,object_09,5,2886,0,9,2,restaurant_31,1,memory-2step-stake-s,681,2619402,0.0-18.0-0.1-0.189,336,7,8
190,2,object_05,object_08,554.0,3,1,65.0,0.6666666666666666,1,object_09,5,2916,0,6,2,forest_20,1,memory-2step-stake-s,682,2627279,0.0-18.0-0.1-0.190,336,3,4
191,2,object_08,object_05,967.0,4,1,253.0,0.1111111111111111,2,object_04,1,2917,0,6,1,forest_31,1,memory-2step-stake-s,683,2634840,0.0-18.0-0.1-0.191,336,4,3
192,4,object_01,object_06,563.0,7,2,305.0,0.2222222222222222,1,object_09,5,2927,0,2,1,restaurant_22,1,memory-2step-stake-s,684,2642555,0.0-18.0-0.1-0.192,336,8,7
193,4,object_06,object_01,686.0,7,1,221.0,0.1111111111111111,1,object_09,5,2932,0,1,2,restaurant_16,1,memory-2step-stake-s,685,2650084,0.0-18.0-0.1-0.193,336,7,8
194,2,object_05,object_08,751.0,4,2,237.0,0.1111111111111111,2,object_04,5,2937,0,1,1,forest_31,1,memory-2step-stake-s,686,2657630,0.0-18.0-0.1-0.194,336,3,4
195,1,object_02,object_10,656.0,1,1,393.0,0.2222222222222222,1,object_09,1,2939,0,2,6,desert_12,1,memory-2step-stake-s,687,2665432,0.0-18.0-0.1-0.195,336,1,2
196,1,object_10,object_02,780.0,2,1,252.0,0.7777777777777778,2,object_04,1,2946,0,1,7,desert_18,1,memory-2step-stake-s,688,2673596,0.0-18.0-0.1-0.196,336,2,1
197,2,object_05,object_08,702.0,4,2,317.0,0.6666666666666666,2,object_04,5,2976,0,2,6,forest_29,1,memory-2step-stake-s,689,2681725,0.0-18.0-0.1-0.197,336,3,4
198,4,object_01,object_06,1155.0,8,1,313.0,0.4444444444444444,2,object_04,1,2980,0,2,4,restaurant_19,1,memory-2step-stake-s,690,2689646,0.0-18.0-0.1-0.198,336,8,7
199,1,object_02,object_10,1043.0,1,1,293.0,0.2222222222222222,1,object_09,1,2982,0,2,3,desert_22,1,memory-2step-stake-s,691,2697350,0.0-18.0-0.1-0.199,336,1,2
200,2,object_08,object_05,626.0,4,1,341.0,0.4444444444444444,2,object_04,5,3002,0,0,4,forest_11,1,memory-2step-stake-s,692,2705303,0.0-18.0-0.1-0.200,336,4,3
201,2,object_05,object_08,469.0,4,2,315.0,0.3333333333333333,2,object_04,5,3017,0,1,3,forest_28,1,memory-2step-stake-s,693,2713126,0.0-18.0-0.1-0.201,336,3,4
202,3,object_07,object_03,1016.0,6,1,297.0,0.1111111111111111,2,object_04,5,3022,0,1,1,library_5,1,memory-2step-stake-s,694,2720732,0.0-18.0-0.1-0.202,336,6,5
203,1,object_10,object_02,782.0,2,1,257.0,0.3333333333333333,2,object_04,5,3037,0,4,3,desert_8,1,memory-2step-stake-s,695,2728497,0.0-18.0-0.1-0.203,336,2,1
204,3,object_03,object_07,1096.0,5,1,607.0,0.3333333333333333,1,object_09,1,3040,0,3,6,library_19,1,memory-2step-stake-s,696,2736614,0.0-18.0-0.1-0.204,336,5,6
205,4,object_01,object_06,737.0,8,1,276.0,0.5555555555555556,2,object_04,1,3045,0,2,5,restaurant_2,1,memory-2step-stake-s,697,2744599,0.0-18.0-0.1-0.205,336,8,7
206,4,object_01,object_06,534.0,8,1,398.0,0.3333333333333333,2,object_04,5,3060,0,3,3,restaurant_15,1,memory-2step-stake-s,698,2752508,0.0-18.0-0.1-0.206,336,8,7
207,3,object_07,object_03,1074.0,6,1,614.0,0.5555555555555556,2,object_04,5,3085,0,9,5,library_28,1,memory-2step-stake-s,699,2760832,0.0-18.0-0.1-0.207,336,6,5
208,2,object_08,object_05,704.0,4,1,688.0,1.0,2,object_04,5,3130,0,7,9,forest_17,1,memory-2step-stake-s,700,2769633,0.0-18.0-0.1-0.208,336,4,3
209,3,object_07,object_03,1075.0,5,2,1379.0,0.8888888888888888,1,object_09,1,3138,0,8,9,library_31,1,memory-2step-stake-s,701,2779024,0.0-18.0-0.1-0.209,336,6,5
210,1,object_10,object_02,734.0,1,2,646.0,1.0,1,object_09,1,3147,0,9,6,desert_6,1,memory-2step-stake-s,702,2787783,0.0-18.0-0.1-0.210,336,2,1
211,1,object_02,object_10,882.0,1,1,436.0,0.7777777777777778,1,object_09,1,3154,0,7,5,desert_1,1,memory-2step-stake-s,703,2796130,0.0-18.0-0.1-0.211,336,1,2
212,4,object_06,object_01,622.0,7,1,310.0,0.6666666666666666,1,object_09,5,3184,0,6,5,restaurant_12,1,memory-2step-stake-s,704,2804252,0.0-18.0-0.1-0.212,336,7,8
213,2,object_05,object_08,709.0,3,1,281.0,0.6666666666666666,1,object_09,5,3214,0,6,5,forest_24,1,memory-2step-stake-s,705,2812342,0.0-18.0-0.1-0.213,336,3,4
214,3,object_07,object_03,806.0,5,2,222.0,0.3333333333333333,1,object_09,5,3229,0,3,6,library_4,1,memory-2step-stake-s,706,2820071,0.0-18.0-0.1-0.214,336,6,5
215,1,object_02,object_10,705.0,2,2,259.0,0.8888888888888888,2,object_04,5,3269,0,5,8,desert_25,1,memory-2step-stake-s,707,2828343,0.0-18.0-0.1-0.215,336,1,2
216,4,object_01,object_06,769.0,8,1,266.0,0.5555555555555556,2,object_04,5,3294,0,7,5,restaurant_23,1,memory-2step-stake-s,708,2836319,0.0-18.0-0.1-0.216,336,8,7
217,3,object_03,object_07,925.0,6,2,817.0,0.6666666666666666,2,object_04,5,3324,0,8,6,library_22,1,memory-2step-stake-s,709,2844950,0.0-18.0-0.1-0.217,336,5,6
218,1,object_02,object_10,1015.0,2,2,571.0,0.3333333333333333,2,object_04,1,3327,0,8,3,desert_11,1,memory-2step-stake-s,710,2853031,0.0-18.0-0.1-0.218,336,1,2
219,4,object_06,object_01,1154.0,7,1,707.0,0.7777777777777778,1,object_09,5,3362,0,7,5,restaurant_8,1,memory-2step-stake-s,711,2861650,0.0-18.0-0.1-0.219,336,7,8
220,3,object_07,object_03,1003.0,5,2,288.0,0.5555555555555556,1,object_09,5,3387,0,5,3,library_10,1,memory-2step-stake-s,712,2869649,0.0-18.0-0.1-0.220,336,6,5
221,1,object_02,object_10,856.0,2,2,361.0,0.2222222222222222,2,object_04,1,3389,0,3,2,desert_16,1,memory-2step-stake-s,713,2877420,0.0-18.0-0.1-0.221,336,1,2
222,1,object_02,object_10,556.0,1,1,218.0,0.1111111111111111,1,object_09,5,3394,0,1,2,desert_13,1,memory-2step-stake-s,714,2884949,0.0-18.0-0.1-0.222,336,1,2
223,4,object_01,object_06,1012.0,8,1,237.0,0.0,2,object_04,5,3394,0,1,0,restaurant_14,1,memory-2step-stake-s,715,2892394,0.0-18.0-0.1-0.223,336,8,7
224,1,object_02,object_10,811.0,2,2,225.0,0.1111111111111111,2,object_04,1,3395,0,1,1,desert_1,1,memory-2step-stake-s,716,2899929,0.0-18.0-0.1-0.224,336,1,2
225,4,object_01,object_06,1141.0,7,2,360.0,0.1111111111111111,1,object_09,1,3396,0,1,4,restaurant_19,1,memory-2step-stake-s,717,2907598,0.0-18.0-0.1-0.225,336,8,7
226,2,object_08,object_05,642.0,4,1,326.0,0.3333333333333333,2,object_04,1,3399,0,2,3,forest_9,1,memory-2step-stake-s,718,2915435,0.0-18.0-0.1-0.226,336,4,3
227,3,object_03,object_07,761.0,5,1,253.0,0.2222222222222222,1,object_09,1,3401,0,2,1,library_9,1,memory-2step-stake-s,719,2923099,0.0-18.0-0.1-0.227,336,5,6
228,3,object_03,object_07,790.0,6,2,238.0,0.2222222222222222,2,object_04,5,3411,0,3,2,library_9,1,memory-2step-stake-s,720,2930746,0.0-18.0-0.1-0.228,336,5,6
229,2,object_08,object_05,643.0,3,2,252.0,0.5555555555555556,1,object_09,1,3416,0,5,0,forest_4,1,memory-2step-stake-s,721,2938707,0.0-18.0-0.1-0.229,336,4,3
230,4,object_01,object_06,580.0,7,2,272.0,0.3333333333333333,1,object_09,5,3431,0,3,3,restaurant_5,1,memory-2step-stake-s,722,2946489,0.0-18.0-0.1-0.230,336,8,7
231,2,object_08,object_05,744.0,4,1,246.0,0.6666666666666666,2,object_04,1,3437,0,1,6,forest_29,1,memory-2step-stake-s,723,2954548,0.0-18.0-0.1-0.231,336,4,3
232,4,object_01,object_06,890.0,8,1,934.0,1.0,2,object_04,5,3482,0,0,9,restaurant_24,1,memory-2step-stake-s,724,2963595,0.0-18.0-0.1-0.232,336,8,7
233,3,object_07,object_03,652.0,5,2,242.0,0.5555555555555556,1,object_09,1,3487,0,5,8,library_22,1,memory-2step-stake-s,725,2971550,0.0-18.0-0.1-0.233,336,6,5
234,3,object_07,object_03,624.0,6,1,196.0,0.7777777777777778,2,object_04,5,3522,0,2,7,library_7,1,memory-2step-stake-s,726,2979659,0.0-18.0-0.1-0.234,336,6,5
235,2,object_08,object_05,768.0,4,1,231.0,0.6666666666666666,2,object_04,1,3528,0,2,6,forest_31,1,memory-2step-stake-s,727,2987701,0.0-18.0-0.1-0.235,336,4,3
236,1,object_10,object_02,1347.0,2,1,761.0,0.3333333333333333,2,object_04,1,3531,0,2,3,desert_28,1,memory-2step-stake-s,728,2995972,0.0-18.0-0.1-0.236,336,2,1
237,2,object_05,object_08,581.0,3,1,247.0,0.1111111111111111,1,object_09,1,3532,0,1,3,forest_15,1,memory-2step-stake-s,729,3003528,0.0-18.0-0.1-0.237,336,3,4
238,3,object_07,object_03,748.0,6,1,380.0,0.3333333333333333,2,object_04,5,3547,0,1,3,library_5,1,memory-2step-stake-s,730,3011418,0.0-18.0-0.1-0.238,336,6,5
239,1,object_02,object_10,912.0,2,2,268.0,0.2222222222222222,2,object_04,1,3549,0,6,2,desert_32,1,memory-2step-stake-s,731,3019095,0.0-18.0-0.1-0.239,336,1,2
240,4,object_06,object_01,591.0,7,1,285.0,0.4444444444444444,1,object_09,5,3569,0,4,4,restaurant_5,1,memory-2step-stake-s,732,3026990,0.0-18.0-0.1-0.240,336,7,8
241,2,object_05,object_08,538.0,4,2,260.0,0.5555555555555556,2,object_04,1,3574,0,4,5,forest_6,1,memory-2step-stake-s,733,3034962,0.0-18.0-0.1-0.241,336,3,4
242,4,object_01,object_06,894.0,7,2,278.0,0.3333333333333333,1,object_09,1,3577,0,3,7,restaurant_14,1,memory-2step-stake-s,734,3042751,0.0-18.0-0.1-0.242,336,8,7
243,3,object_03,object_07,660.0,6,2,233.0,0.5555555555555556,2,object_04,5,3602,0,2,5,library_6,1,memory-2step-stake-s,735,3050695,0.0-18.0-0.1-0.243,336,5,6
244,2,object_08,object_05,1067.0,4,1,328.0,0.6666666666666666,2,object_04,1,3608,0,3,6,forest_7,1,memory-2step-stake-s,736,3058832,0.0-18.0-0.1-0.244,336,4,3
245,4,object_06,object_01,1029.0,7,1,879.0,0.4444444444444444,1,object_09,5,3628,0,4,6,restaurant_14,1,memory-2step-stake-s,737,3067320,0.0-18.0-0.1-0.245,336,7,8
246,3,object_03,object_07,882.0,5,1,495.0,0.3333333333333333,1,object_09,5,3643,0,3,8,library_3,1,memory-2step-stake-s,738,3075324,0.0-18.0-0.1-0.246,336,5,6
247,1,object_10,object_02,977.0,2,1,383.0,0.6666666666666666,2,object_04,5,3673,0,4,6,desert_16,1,memory-2step-stake-s,739,3083520,0.0-18.0-0.1-0.247,336,2,1
248,1,object_02,object_10,798.0,2,2,271.0,0.5555555555555556,2,object_04,1,3678,0,3,5,desert_17,1,memory-2step-stake-s,740,3091503,0.0-18.0-0.1-0.248,336,1,2
249,3,object_03,object_07,1014.0,6,2,286.0,0.5555555555555556,2,object_04,5,3703,0,8,5,library_14,1,memory-2step-stake-s,741,3099503,0.0-18.0-0.1-0.249,336,5,6
250,2,object_05,object_08,580.0,3,1,235.0,0.6666666666666666,1,object_09,1,3709,0,6,4,forest_13,1,memory-2step-stake-s,742,3107548,0.0-18.0-0.1-0.250,336,3,4
251,4,object_01,object_06,1316.0,8,1,482.0,0.2222222222222222,2,object_04,1,3711,0,9,2,restaurant_31,1,memory-2step-stake-s,743,3115441,0.0-18.0-0.1-0.251,336,8,7
252,1,object_02,object_10,791.0,2,2,-1.0,0.0,2,object_04,1,3711,0,5,2,desert_16,1,memory-2step-stake-s,744,3123949,0.0-18.0-0.1-0.252,336,1,2
253,4,object_01,object_06,698.0,8,1,225.0,0.2222222222222222,2,object_04,5,3721,0,3,2,restaurant_31,1,memory-2step-stake-s,745,3131580,0.0-18.0-0.1-0.253,336,8,7
254,1,object_02,object_10,761.0,2,2,1048.0,0.1111111111111111,2,object_04,1,3722,0,5,1,desert_28,1,memory-2step-stake-s,746,3139935,0.0-18.0-0.1-0.254,336,1,2
255,4,object_01,object_06,-1.0,-1,-1,-1.0,0.0,-,,5,3722,0,2,1,restaurant_10,1,memory-2step-stake-s,747,3146440,0.0-18.0-0.1-0.255,336,8,7
