,state1,stim_left,stim_right,rt_1,choice1,response1,rt_2,points,state2,stim_state2,stake,score,practice,rews1,rews2,background,high_arm,trial_type,trial_index,time_elapsed,internal_node_id,subid,stim_left_num,stim_right_num
0,1,object_10,object_04,1408.0,2,1,1026.0,0.1111111111111111,2,object_09,1,1,0,6,1,desert_19,2,memory-2step-stake-s,487,1002656,0.0-18.0-0.0-0.0,4424,2,1
1,3,object_02,object_07,832.0,6,2,1062.0,0.1111111111111111,2,object_09,1,2,0,5,1,library_29,2,memory-2step-stake-s,488,1011036,0.0-18.0-0.0-0.1,4424,5,6
2,2,object_08,object_05,1340.0,3,1,820.0,0.4444444444444444,1,object_06,5,22,0,4,4,forest_7,2,memory-2step-stake-s,489,1019476,0.0-18.0-0.0-0.2,4424,3,4
3,2,object_05,object_08,935.0,4,1,717.0,0.8888888888888888,2,object_09,1,30,0,3,8,forest_17,2,memory-2step-stake-s,490,1028221,0.0-18.0-0.0-0.3,4424,4,3
4,1,object_10,object_04,1483.0,1,2,775.0,0.2222222222222222,1,object_06,5,40,0,2,4,desert_4,2,memory-2step-stake-s,491,1036423,0.0-18.0-0.0-0.4,4424,2,1
5,1,object_10,object_04,1196.0,2,1,687.0,0.3333333333333333,2,object_09,1,43,0,3,3,desert_19,2,memory-2step-stake-s,492,1044630,0.0-18.0-0.0-0.5,4424,2,1
6,2,object_08,object_05,1008.0,3,1,858.0,0.3333333333333333,1,object_06,5,58,0,3,2,forest_24,2,memory-2step-stake-s,493,1053011,0.0-18.0-0.0-0.6,4424,3,4
7,2,object_05,object_08,806.0,4,1,643.0,0.5555555555555556,2,object_09,5,83,0,5,5,forest_4,2,memory-2step-stake-s,494,1061382,0.0-18.0-0.0-0.7,4424,4,3
8,4,object_01,object_03,1114.0,8,2,633.0,0.7777777777777778,2,object_09,5,118,0,6,7,restaurant_4,2,memory-2step-stake-s,495,1069939,0.0-18.0-0.0-0.8,4424,7,8
9,2,object_05,object_08,607.0,4,1,929.0,0.7777777777777778,2,object_09,5,153,0,5,7,forest_20,2,memory-2step-stake-s,496,1078792,0.0-18.0-0.0-0.9,4424,4,3
10,4,object_03,object_01,-1.0,-1,-1,-1.0,0.0,-,,1,153,0,1,5,restaurant_19,2,memory-2step-stake-s,497,1085305,0.0-18.0-0.0-0.10,4424,8,7
11,4,object_03,object_01,634.0,8,1,524.0,0.8888888888888888,2,object_09,1,161,0,1,8,restaurant_5,2,memory-2step-stake-s,498,1093862,0.0-18.0-0.0-0.11,4424,8,7
12,2,object_08,object_05,1020.0,4,2,235.0,0.8888888888888888,2,object_09,5,201,0,1,8,forest_2,2,memory-2step-stake-s,499,1102131,0.0-18.0-0.0-0.12,4424,3,4
13,2,object_08,object_05,887.0,4,2,378.0,0.5555555555555556,2,object_09,5,226,0,2,5,forest_14,2,memory-2step-stake-s,500,1110236,0.0-18.0-0.0-0.13,4424,3,4
14,4,object_01,object_03,929.0,7,1,795.0,0.3333333333333333,1,object_06,1,229,0,3,6,restaurant_2,2,memory-2step-stake-s,501,1118547,0.0-18.0-0.0-0.14,4424,7,8
15,1,object_04,object_10,1464.0,2,2,837.0,0.6666666666666666,2,object_09,5,259,0,4,6,desert_9,2,memory-2step-stake-s,502,1127216,0.0-18.0-0.0-0.15,4424,1,2
16,1,object_10,object_04,1131.0,2,1,528.0,0.8888888888888888,2,object_09,5,299,0,4,8,desert_6,2,memory-2step-stake-s,503,1135774,0.0-18.0-0.0-0.16,4424,2,1
17,1,object_10,object_04,654.0,2,1,366.0,0.7777777777777778,2,object_09,1,306,0,6,7,desert_17,2,memory-2step-stake-s,504,1144070,0.0-18.0-0.0-0.17,4424,2,1
18,1,object_10,object_04,677.0,2,1,480.0,0.5555555555555556,2,object_09,5,331,0,2,5,desert_23,2,memory-2step-stake-s,505,1152278,0.0-18.0-0.0-0.18,4424,2,1
19,4,object_03,object_01,971.0,8,1,421.0,0.7777777777777778,2,object_09,1,338,0,7,7,restaurant_12,2,memory-2step-stake-s,506,1160627,0.0-18.0-0.0-0.19,4424,8,7
20,1,object_10,object_04,821.0,2,1,609.0,0.5555555555555556,2,object_09,5,363,0,6,5,desert_6,2,memory-2step-stake-s,507,1168963,0.0-18.0-0.0-0.20,4424,2,1
21,4,object_03,object_01,1212.0,8,1,553.0,0.7777777777777778,2,object_09,5,398,0,6,7,restaurant_23,2,memory-2step-stake-s,508,1177446,0.0-18.0-0.0-0.21,4424,8,7
22,4,object_01,object_03,702.0,7,1,1367.0,0.6666666666666666,1,object_06,1,404,0,6,9,restaurant_26,2,memory-2step-stake-s,509,1186640,0.0-18.0-0.0-0.22,4424,7,8
23,3,object_02,object_07,918.0,6,2,797.0,0.8888888888888888,2,object_09,1,412,0,7,8,library_23,2,memory-2step-stake-s,510,1195459,0.0-18.0-0.0-0.23,4424,5,6
24,4,object_01,object_03,877.0,7,1,554.0,0.8888888888888888,1,object_06,5,452,0,8,6,restaurant_30,2,memory-2step-stake-s,511,1204040,0.0-18.0-0.0-0.24,4424,7,8
25,1,object_04,object_10,744.0,1,1,613.0,0.8888888888888888,1,object_06,1,460,0,8,9,desert_9,2,memory-2step-stake-s,512,1212688,0.0-18.0-0.0-0.25,4424,1,2
26,1,object_04,object_10,658.0,2,2,694.0,0.6666666666666666,2,object_09,5,490,0,9,6,desert_31,2,memory-2step-stake-s,513,1221209,0.0-18.0-0.0-0.26,4424,1,2
27,3,object_07,object_02,912.0,6,1,781.0,0.6666666666666666,2,object_09,1,496,0,9,6,library_17,2,memory-2step-stake-s,514,1229811,0.0-18.0-0.0-0.27,4424,6,5
28,4,object_01,object_03,1275.0,7,1,622.0,1.0,1,object_06,1,505,0,9,3,restaurant_25,2,memory-2step-stake-s,515,1238563,0.0-18.0-0.0-0.28,4424,7,8
29,3,object_07,object_02,990.0,6,1,756.0,0.3333333333333333,2,object_09,5,520,0,8,3,library_19,2,memory-2step-stake-s,516,1246838,0.0-18.0-0.0-0.29,4424,6,5
30,2,object_08,object_05,928.0,3,1,660.0,1.0,1,object_06,5,565,0,9,7,forest_2,2,memory-2step-stake-s,517,1255622,0.0-18.0-0.0-0.30,4424,3,4
31,3,object_07,object_02,897.0,5,2,622.0,0.7777777777777778,1,object_06,1,572,0,7,5,library_29,2,memory-2step-stake-s,518,1264171,0.0-18.0-0.0-0.31,4424,6,5
32,3,object_02,object_07,989.0,5,1,491.0,0.5555555555555556,1,object_06,1,577,0,5,6,library_5,2,memory-2step-stake-s,519,1272380,0.0-18.0-0.0-0.32,4424,5,6
33,3,object_02,object_07,683.0,6,2,577.0,0.7777777777777778,2,object_09,1,584,0,6,7,library_5,2,memory-2step-stake-s,520,1280883,0.0-18.0-0.0-0.33,4424,5,6
34,1,object_04,object_10,1219.0,1,1,616.0,0.1111111111111111,1,object_06,5,589,0,1,7,desert_29,2,memory-2step-stake-s,521,1288814,0.0-18.0-0.0-0.34,4424,1,2
35,2,object_08,object_05,1381.0,4,2,145.0,0.7777777777777778,2,object_09,5,624,0,3,7,forest_14,2,memory-2step-stake-s,522,1296884,0.0-18.0-0.0-0.35,4424,3,4
36,2,object_05,object_08,1043.0,4,1,1327.0,0.7777777777777778,2,object_09,5,659,0,4,7,forest_3,2,memory-2step-stake-s,523,1306144,0.0-18.0-0.0-0.36,4424,4,3
37,2,object_05,object_08,716.0,4,1,549.0,0.3333333333333333,2,object_09,5,674,0,4,3,forest_25,2,memory-2step-stake-s,524,1314215,0.0-18.0-0.0-0.37,4424,4,3
38,4,object_03,object_01,1205.0,8,1,719.0,0.2222222222222222,2,object_09,1,676,0,3,2,restaurant_5,2,memory-2step-stake-s,525,1322353,0.0-18.0-0.0-0.38,4424,8,7
39,2,object_08,object_05,847.0,3,1,636.0,0.4444444444444444,1,object_06,5,696,0,4,4,forest_32,2,memory-2step-stake-s,526,1330608,0.0-18.0-0.0-0.39,4424,3,4
40,2,object_08,object_05,549.0,4,2,359.0,0.6666666666666666,2,object_09,5,726,0,6,6,forest_4,2,memory-2step-stake-s,527,1338794,0.0-18.0-0.0-0.40,4424,3,4
41,2,object_05,object_08,935.0,4,1,787.0,0.4444444444444444,2,object_09,5,746,0,5,4,forest_3,2,memory-2step-stake-s,528,1347206,0.0-18.0-0.0-0.41,4424,4,3
42,3,object_02,object_07,1015.0,6,2,538.0,0.4444444444444444,2,object_09,1,750,0,8,4,library_28,2,memory-2step-stake-s,529,1355365,0.0-18.0-0.0-0.42,4424,5,6
43,1,object_04,object_10,808.0,1,1,611.0,0.6666666666666666,1,object_06,5,780,0,6,3,desert_23,2,memory-2step-stake-s,530,1363803,0.0-18.0-0.0-0.43,4424,1,2
44,4,object_01,object_03,1006.0,8,2,586.0,0.5555555555555556,2,object_09,1,785,0,8,5,restaurant_13,2,memory-2step-stake-s,531,1372107,0.0-18.0-0.0-0.44,4424,7,8
45,2,object_08,object_05,499.0,3,1,411.0,1.0,1,object_06,5,830,0,9,1,forest_7,2,memory-2step-stake-s,532,1380648,0.0-18.0-0.0-0.45,4424,3,4
46,1,object_10,object_04,1373.0,1,2,580.0,0.7777777777777778,1,object_06,5,865,0,7,1,desert_16,2,memory-2step-stake-s,533,1389160,0.0-18.0-0.0-0.46,4424,2,1
47,2,object_05,object_08,1495.0,3,2,681.0,0.6666666666666666,1,object_06,5,895,0,6,1,forest_17,2,memory-2step-stake-s,534,1397664,0.0-18.0-0.0-0.47,4424,4,3
48,4,object_03,object_01,635.0,8,1,538.0,0.0,2,object_09,5,895,0,6,0,restaurant_30,2,memory-2step-stake-s,535,1405418,0.0-18.0-0.0-0.48,4424,8,7
49,4,object_03,object_01,643.0,7,2,838.0,0.4444444444444444,1,object_06,1,899,0,4,3,restaurant_15,2,memory-2step-stake-s,536,1413883,0.0-18.0-0.0-0.49,4424,8,7
50,1,object_04,object_10,874.0,2,2,550.0,0.2222222222222222,2,object_09,5,909,0,6,2,desert_29,2,memory-2step-stake-s,537,1421854,0.0-18.0-0.0-0.50,4424,1,2
51,2,object_08,object_05,879.0,3,1,497.0,0.8888888888888888,1,object_06,5,949,0,8,3,forest_19,2,memory-2step-stake-s,538,1430376,0.0-18.0-0.0-0.51,4424,3,4
52,3,object_07,object_02,732.0,6,1,573.0,0.4444444444444444,2,object_09,5,969,0,7,4,library_10,2,memory-2step-stake-s,539,1438579,0.0-18.0-0.0-0.52,4424,6,5
53,4,object_01,object_03,816.0,7,1,693.0,0.5555555555555556,1,object_06,1,974,0,5,7,restaurant_2,2,memory-2step-stake-s,540,1446999,0.0-18.0-0.0-0.53,4424,7,8
54,1,object_04,object_10,701.0,1,1,425.0,0.8888888888888888,1,object_06,1,982,0,8,3,desert_31,2,memory-2step-stake-s,541,1455448,0.0-18.0-0.0-0.54,4424,1,2
55,2,object_05,object_08,1285.0,4,1,584.0,0.1111111111111111,2,object_09,5,987,0,8,1,forest_25,2,memory-2step-stake-s,542,1463357,0.0-18.0-0.0-0.55,4424,4,3
56,2,object_05,object_08,513.0,3,2,546.0,0.7777777777777778,1,object_06,5,1022,0,7,4,forest_12,2,memory-2step-stake-s,543,1471837,0.0-18.0-0.0-0.56,4424,4,3
57,1,object_10,object_04,964.0,1,2,462.0,0.7777777777777778,1,object_06,5,1057,0,7,4,desert_9,2,memory-2step-stake-s,544,1480232,0.0-18.0-0.0-0.57,4424,2,1
58,4,object_01,object_03,881.0,7,1,527.0,1.0,1,object_06,1,1066,0,9,5,restaurant_22,2,memory-2step-stake-s,545,1488893,0.0-18.0-0.0-0.58,4424,7,8
59,2,object_08,object_05,748.0,3,1,490.0,0.8888888888888888,1,object_06,1,1074,0,8,7,forest_12,2,memory-2step-stake-s,546,1497416,0.0-18.0-0.0-0.59,4424,3,4
60,3,object_02,object_07,1214.0,5,1,618.0,0.7777777777777778,1,object_06,1,1081,0,7,7,library_23,2,memory-2step-stake-s,547,1505969,0.0-18.0-0.0-0.60,4424,5,6
61,1,object_04,object_10,1168.0,2,2,651.0,0.8888888888888888,2,object_09,1,1089,0,6,8,desert_6,2,memory-2step-stake-s,548,1514650,0.0-18.0-0.0-0.61,4424,1,2
62,2,object_05,object_08,681.0,4,1,541.0,0.7777777777777778,2,object_09,5,1124,0,9,7,forest_5,2,memory-2step-stake-s,549,1523117,0.0-18.0-0.0-0.62,4424,4,3
63,2,object_08,object_05,511.0,3,1,875.0,1.0,1,object_06,5,1169,0,9,9,forest_7,2,memory-2step-stake-s,550,1532135,0.0-18.0-0.0-0.63,4424,3,4
64,3,object_02,object_07,1363.0,5,1,706.0,0.8888888888888888,1,object_06,5,1209,0,8,9,library_13,2,memory-2step-stake-s,551,1540874,0.0-18.0-0.0-0.64,4424,5,6
65,2,object_08,object_05,1189.0,4,2,897.0,0.7777777777777778,2,object_09,1,1216,0,7,7,forest_32,2,memory-2step-stake-s,552,1549699,0.0-18.0-0.0-0.65,4424,3,4
66,3,object_07,object_02,931.0,5,2,500.0,0.6666666666666666,1,object_06,1,1222,0,6,4,library_3,2,memory-2step-stake-s,553,1558024,0.0-18.0-0.0-0.66,4424,6,5
67,2,object_08,object_05,737.0,4,2,466.0,0.2222222222222222,2,object_09,5,1232,0,6,2,forest_5,2,memory-2step-stake-s,554,1565913,0.0-18.0-0.0-0.67,4424,3,4
68,2,object_08,object_05,576.0,3,1,383.0,0.7777777777777778,1,object_06,5,1267,0,7,0,forest_19,2,memory-2step-stake-s,555,1574215,0.0-18.0-0.0-0.68,4424,3,4
69,3,object_02,object_07,1337.0,5,1,561.0,0.8888888888888888,1,object_06,1,1275,0,8,4,library_5,2,memory-2step-stake-s,556,1582798,0.0-18.0-0.0-0.69,4424,5,6
70,1,object_10,object_04,967.0,1,2,689.0,0.6666666666666666,1,object_06,5,1305,0,6,5,desert_29,2,memory-2step-stake-s,557,1591312,0.0-18.0-0.0-0.70,4424,2,1
71,4,object_03,object_01,1028.0,8,1,496.0,0.8888888888888888,2,object_09,1,1313,0,4,8,restaurant_8,2,memory-2step-stake-s,558,1599835,0.0-18.0-0.0-0.71,4424,8,7
72,1,object_10,object_04,1124.0,2,1,593.0,0.5555555555555556,2,object_09,5,1338,0,2,5,desert_18,2,memory-2step-stake-s,559,1608146,0.0-18.0-0.0-0.72,4424,2,1
73,3,object_02,object_07,-1.0,-1,-1,-1.0,0.0,-,,1,1338,0,4,5,library_19,2,memory-2step-stake-s,560,1614659,0.0-18.0-0.0-0.73,4424,5,6
74,2,object_08,object_05,505.0,4,2,536.0,0.3333333333333333,2,object_09,5,1353,0,6,3,forest_4,2,memory-2step-stake-s,561,1622714,0.0-18.0-0.0-0.74,4424,3,4
75,1,object_10,object_04,936.0,1,2,563.0,0.4444444444444444,1,object_06,5,1373,0,4,3,desert_18,2,memory-2step-stake-s,562,1630903,0.0-18.0-0.0-0.75,4424,2,1
76,2,object_05,object_08,668.0,4,1,907.0,0.1111111111111111,2,object_09,5,1378,0,0,1,forest_7,2,memory-2step-stake-s,563,1639133,0.0-18.0-0.0-0.76,4424,4,3
77,4,object_03,object_01,878.0,7,2,709.0,0.2222222222222222,1,object_06,1,1380,0,2,3,restaurant_4,2,memory-2step-stake-s,564,1647264,0.0-18.0-0.0-0.77,4424,8,7
78,2,object_08,object_05,656.0,4,2,943.0,0.0,2,object_09,5,1380,0,1,0,forest_24,2,memory-2step-stake-s,565,1655424,0.0-18.0-0.0-0.78,4424,3,4
79,1,object_10,object_04,958.0,1,2,502.0,0.3333333333333333,1,object_06,5,1395,0,3,1,desert_27,2,memory-2step-stake-s,566,1663445,0.0-18.0-0.0-0.79,4424,2,1
80,4,object_01,object_03,829.0,7,1,548.0,0.3333333333333333,1,object_06,1,1398,0,3,2,restaurant_12,2,memory-2step-stake-s,567,1671515,0.0-18.0-0.0-0.80,4424,7,8
81,1,object_04,object_10,822.0,2,2,640.0,0.6666666666666666,2,object_09,5,1428,0,1,6,desert_22,2,memory-2step-stake-s,568,1679984,0.0-18.0-0.0-0.81,4424,1,2
82,3,object_07,object_02,800.0,6,1,568.0,0.7777777777777778,2,object_09,1,1435,0,1,7,library_10,2,memory-2step-stake-s,569,1688477,0.0-18.0-0.0-0.82,4424,6,5
83,1,object_04,object_10,938.0,2,2,508.0,0.7777777777777778,2,object_09,1,1442,0,3,7,desert_17,2,memory-2step-stake-s,570,1696919,0.0-18.0-0.0-0.83,4424,1,2
84,2,object_05,object_08,930.0,4,1,719.0,0.4444444444444444,2,object_09,5,1462,0,2,4,forest_17,2,memory-2step-stake-s,571,1705267,0.0-18.0-0.0-0.84,4424,4,3
85,2,object_08,object_05,443.0,3,1,408.0,0.3333333333333333,1,object_06,5,1477,0,3,6,forest_2,2,memory-2step-stake-s,572,1713200,0.0-18.0-0.0-0.85,4424,3,4
86,1,object_10,object_04,580.0,1,2,549.0,0.5555555555555556,1,object_06,5,1502,0,5,9,desert_6,2,memory-2step-stake-s,573,1721474,0.0-18.0-0.0-0.86,4424,2,1
87,2,object_08,object_05,850.0,4,2,410.0,0.8888888888888888,2,object_09,5,1542,0,5,8,forest_10,2,memory-2step-stake-s,574,1729909,0.0-18.0-0.0-0.87,4424,3,4
88,4,object_01,object_03,924.0,8,2,513.0,0.8888888888888888,2,object_09,1,1550,0,9,8,restaurant_19,2,memory-2step-stake-s,575,1738453,0.0-18.0-0.0-0.88,4424,7,8
89,3,object_07,object_02,770.0,6,1,615.0,0.5555555555555556,2,object_09,1,1555,0,7,5,library_28,2,memory-2step-stake-s,576,1746786,0.0-18.0-0.0-0.89,4424,6,5
90,3,object_07,object_02,608.0,6,1,602.0,0.4444444444444444,2,object_09,1,1559,0,8,4,library_21,2,memory-2step-stake-s,577,1755016,0.0-18.0-0.0-0.90,4424,6,5
91,1,object_04,object_10,781.0,1,1,547.0,0.6666666666666666,1,object_06,5,1589,0,6,3,desert_25,2,memory-2step-stake-s,578,1763389,0.0-18.0-0.0-0.91,4424,1,2
92,4,object_01,object_03,968.0,7,1,636.0,1.0,1,object_06,5,1634,0,9,3,restaurant_19,2,memory-2step-stake-s,579,1772154,0.0-18.0-0.0-0.92,4424,7,8
93,1,object_10,object_04,806.0,1,2,502.0,0.5555555555555556,1,object_06,5,1659,0,5,5,desert_25,2,memory-2step-stake-s,580,1780379,0.0-18.0-0.0-0.93,4424,2,1
94,1,object_04,object_10,616.0,1,1,518.0,0.4444444444444444,1,object_06,1,1663,0,4,5,desert_12,2,memory-2step-stake-s,581,1788525,0.0-18.0-0.0-0.94,4424,1,2
95,1,object_10,object_04,755.0,2,1,993.0,0.7777777777777778,2,object_09,1,1670,0,4,7,desert_23,2,memory-2step-stake-s,582,1797448,0.0-18.0-0.0-0.95,4424,2,1
96,4,object_01,object_03,997.0,8,2,504.0,0.7777777777777778,2,object_09,1,1677,0,3,7,restaurant_5,2,memory-2step-stake-s,583,1805883,0.0-18.0-0.0-0.96,4424,7,8
97,1,object_04,object_10,798.0,2,2,593.0,0.6666666666666666,2,object_09,5,1707,0,4,6,desert_12,2,memory-2step-stake-s,584,1814303,0.0-18.0-0.0-0.97,4424,1,2
98,2,object_05,object_08,881.0,4,1,804.0,0.4444444444444444,2,object_09,5,1727,0,5,4,forest_20,2,memory-2step-stake-s,585,1822733,0.0-18.0-0.0-0.98,4424,4,3
99,3,object_02,object_07,910.0,5,1,434.0,0.5555555555555556,1,object_06,5,1752,0,5,6,library_10,2,memory-2step-stake-s,586,1830895,0.0-18.0-0.0-0.99,4424,5,6
100,2,object_08,object_05,625.0,3,1,733.0,0.7777777777777778,1,object_06,5,1787,0,7,9,forest_24,2,memory-2step-stake-s,587,1839551,0.0-18.0-0.0-0.100,4424,3,4
101,3,object_07,object_02,733.0,5,2,699.0,0.8888888888888888,1,object_06,1,1795,0,8,8,library_29,2,memory-2step-stake-s,588,1848287,0.0-18.0-0.0-0.101,4424,6,5
102,3,object_02,object_07,623.0,5,1,664.0,0.7777777777777778,1,object_06,1,1802,0,7,5,library_7,2,memory-2step-stake-s,589,1856877,0.0-18.0-0.0-0.102,4424,5,6
103,3,object_07,object_02,879.0,6,1,458.0,0.7777777777777778,2,object_09,1,1809,0,8,7,library_8,2,memory-2step-stake-s,590,1865258,0.0-18.0-0.0-0.103,4424,6,5
104,3,object_02,object_07,798.0,6,2,769.0,0.4444444444444444,2,object_09,1,1813,0,8,4,library_1,2,memory-2step-stake-s,591,1873653,0.0-18.0-0.0-0.104,4424,5,6
105,2,object_05,object_08,655.0,3,2,723.0,0.8888888888888888,1,object_06,5,1853,0,8,2,forest_10,2,memory-2step-stake-s,592,1882405,0.0-18.0-0.0-0.105,4424,4,3
106,1,object_04,object_10,782.0,1,1,451.0,0.7777777777777778,1,object_06,5,1888,0,7,4,desert_16,2,memory-2step-stake-s,593,1890794,0.0-18.0-0.0-0.106,4424,1,2
107,3,object_07,object_02,882.0,5,2,513.0,0.5555555555555556,1,object_06,1,1893,0,5,4,library_30,2,memory-2step-stake-s,594,1899029,0.0-18.0-0.0-0.107,4424,6,5
108,1,object_04,object_10,647.0,2,2,615.0,0.4444444444444444,2,object_09,5,1913,0,5,4,desert_13,2,memory-2step-stake-s,595,1907269,0.0-18.0-0.0-0.108,4424,1,2
109,2,object_08,object_05,680.0,4,2,506.0,0.1111111111111111,2,object_09,1,1914,0,6,1,forest_31,2,memory-2step-stake-s,596,1915101,0.0-18.0-0.0-0.109,4424,3,4
110,2,object_08,object_05,477.0,3,1,537.0,0.7777777777777778,1,object_06,5,1949,0,7,0,forest_23,2,memory-2step-stake-s,597,1923562,0.0-18.0-0.0-0.110,4424,3,4
111,2,object_08,object_05,486.0,3,1,348.0,0.3333333333333333,1,object_06,5,1964,0,3,1,forest_23,2,memory-2step-stake-s,598,1931428,0.0-18.0-0.0-0.111,4424,3,4
112,3,object_07,object_02,850.0,6,1,363.0,0.1111111111111111,2,object_09,1,1965,0,4,1,library_3,2,memory-2step-stake-s,599,1939107,0.0-18.0-0.0-0.112,4424,6,5
113,4,object_01,object_03,834.0,7,1,357.0,0.5555555555555556,1,object_06,1,1970,0,5,1,restaurant_15,2,memory-2step-stake-s,600,1947189,0.0-18.0-0.0-0.113,4424,7,8
114,1,object_04,object_10,435.0,1,1,609.0,0.8888888888888888,1,object_06,5,2010,0,8,1,desert_16,2,memory-2step-stake-s,601,1955829,0.0-18.0-0.0-0.114,4424,1,2
115,1,object_10,object_04,909.0,1,2,437.0,0.4444444444444444,1,object_06,5,2030,0,4,2,desert_7,2,memory-2step-stake-s,602,1963887,0.0-18.0-0.0-0.115,4424,2,1
116,1,object_04,object_10,650.0,2,2,396.0,0.4444444444444444,2,object_09,5,2050,0,4,4,desert_25,2,memory-2step-stake-s,603,1971904,0.0-18.0-0.0-0.116,4424,1,2
117,1,object_04,object_10,757.0,2,2,452.0,0.4444444444444444,2,object_09,5,2070,0,5,4,desert_4,2,memory-2step-stake-s,604,1979980,0.0-18.0-0.0-0.117,4424,1,2
118,1,object_04,object_10,573.0,1,1,462.0,0.6666666666666666,1,object_06,1,2076,0,6,2,desert_25,2,memory-2step-stake-s,605,1988263,0.0-18.0-0.0-0.118,4424,1,2
119,2,object_05,object_08,877.0,4,1,469.0,0.3333333333333333,2,object_09,5,2091,0,8,3,forest_17,2,memory-2step-stake-s,606,1996253,0.0-18.0-0.0-0.119,4424,4,3
120,2,object_08,object_05,588.0,3,1,423.0,0.8888888888888888,1,object_06,5,2131,0,8,4,forest_23,2,memory-2step-stake-s,607,2004709,0.0-18.0-0.0-0.120,4424,3,4
121,4,object_03,object_01,768.0,7,2,505.0,1.0,1,object_06,1,2140,0,9,3,restaurant_23,2,memory-2step-stake-s,608,2013348,0.0-18.0-0.0-0.121,4424,8,7
122,4,object_03,object_01,790.0,7,2,520.0,0.5555555555555556,1,object_06,1,2145,0,5,6,restaurant_27,2,memory-2step-stake-s,609,2021586,0.0-18.0-0.0-0.122,4424,8,7
123,3,object_07,object_02,1010.0,5,2,1095.0,0.6666666666666666,1,object_06,5,2175,0,6,6,library_17,2,memory-2step-stake-s,610,2030504,0.0-18.0-0.0-0.123,4424,6,5
124,4,object_01,object_03,569.0,8,2,557.0,0.6666666666666666,2,object_09,5,2205,0,5,6,restaurant_28,2,memory-2step-stake-s,611,2038881,0.0-18.0-0.0-0.124,4424,7,8
125,4,object_01,object_03,570.0,7,1,512.0,0.5555555555555556,1,object_06,1,2210,0,5,7,restaurant_27,2,memory-2step-stake-s,612,2047113,0.0-18.0-0.0-0.125,4424,7,8
126,1,object_04,object_10,853.0,2,2,531.0,0.7777777777777778,2,object_09,5,2245,0,7,7,desert_7,2,memory-2step-stake-s,613,2055577,0.0-18.0-0.0-0.126,4424,1,2
127,2,object_08,object_05,891.0,4,2,548.0,0.7777777777777778,2,object_09,5,2280,0,9,7,forest_19,2,memory-2step-stake-s,614,2064055,0.0-18.0-0.0-0.127,4424,3,4
128,4,object_03,object_01,758.0,8,1,473.0,0.5555555555555556,2,object_09,1,2285,0,9,5,restaurant_8,2,memory-2step-stake-s,616,2346754,0.0-18.0-0.1-0.128,4424,8,7
129,1,object_10,object_04,721.0,1,2,340.0,1.0,1,object_06,5,2330,0,9,7,desert_31,2,memory-2step-stake-s,617,2355226,0.0-18.0-0.1-0.129,4424,2,1
130,3,object_02,object_07,644.0,5,1,442.0,0.7777777777777778,1,object_06,1,2337,0,7,7,library_6,2,memory-2step-stake-s,618,2363599,0.0-18.0-0.1-0.130,4424,5,6
131,2,object_08,object_05,624.0,3,1,381.0,0.6666666666666666,1,object_06,5,2367,0,6,8,forest_14,2,memory-2step-stake-s,619,2371802,0.0-18.0-0.1-0.131,4424,3,4
132,2,object_08,object_05,479.0,3,1,436.0,0.3333333333333333,1,object_06,5,2382,0,3,9,forest_14,2,memory-2step-stake-s,620,2379760,0.0-18.0-0.1-0.132,4424,3,4
133,3,object_02,object_07,737.0,6,2,801.0,0.8888888888888888,2,object_09,5,2422,0,3,8,library_23,2,memory-2step-stake-s,621,2388591,0.0-18.0-0.1-0.133,4424,5,6
134,4,object_01,object_03,526.0,7,1,483.0,0.1111111111111111,1,object_06,1,2423,0,1,9,restaurant_28,2,memory-2step-stake-s,622,2396394,0.0-18.0-0.1-0.134,4424,7,8
135,4,object_01,object_03,546.0,8,2,312.0,0.8888888888888888,2,object_09,5,2463,0,1,8,restaurant_12,2,memory-2step-stake-s,623,2404735,0.0-18.0-0.1-0.135,4424,7,8
136,3,object_02,object_07,1002.0,6,2,413.0,1.0,2,object_09,1,2472,0,2,9,library_19,2,memory-2step-stake-s,624,2413282,0.0-18.0-0.1-0.136,4424,5,6
137,1,object_10,object_04,449.0,2,1,477.0,1.0,2,object_09,5,2517,0,5,9,desert_17,2,memory-2step-stake-s,625,2421887,0.0-18.0-0.1-0.137,4424,2,1
138,1,object_10,object_04,568.0,2,1,575.0,0.6666666666666666,2,object_09,5,2547,0,3,6,desert_17,2,memory-2step-stake-s,626,2430284,0.0-18.0-0.1-0.138,4424,2,1
139,1,object_04,object_10,750.0,1,1,447.0,0.4444444444444444,1,object_06,5,2567,0,4,4,desert_19,2,memory-2step-stake-s,627,2438350,0.0-18.0-0.1-0.139,4424,1,2
140,1,object_10,object_04,430.0,1,2,326.0,0.2222222222222222,1,object_06,5,2577,0,2,6,desert_27,2,memory-2step-stake-s,628,2446095,0.0-18.0-0.1-0.140,4424,2,1
141,3,object_07,object_02,704.0,6,1,504.0,0.7777777777777778,2,object_09,1,2584,0,3,7,library_1,2,memory-2step-stake-s,629,2454533,0.0-18.0-0.1-0.141,4424,6,5
142,3,object_07,object_02,550.0,6,1,631.0,1.0,2,object_09,5,2629,0,3,9,library_1,2,memory-2step-stake-s,630,2463296,0.0-18.0-0.1-0.142,4424,6,5
143,3,object_07,object_02,556.0,6,1,443.0,0.4444444444444444,2,object_09,1,2633,0,3,4,library_17,2,memory-2step-stake-s,631,2471359,0.0-18.0-0.1-0.143,4424,6,5
144,2,object_08,object_05,570.0,3,1,329.0,0.3333333333333333,1,object_06,5,2648,0,3,6,forest_4,2,memory-2step-stake-s,632,2479208,0.0-18.0-0.1-0.144,4424,3,4
145,4,object_01,object_03,628.0,8,2,458.0,1.0,2,object_09,1,2657,0,1,9,restaurant_4,2,memory-2step-stake-s,633,2487807,0.0-18.0-0.1-0.145,4424,7,8
146,1,object_04,object_10,739.0,2,2,411.0,0.8888888888888888,2,object_09,5,2697,0,2,8,desert_16,2,memory-2step-stake-s,634,2496261,0.0-18.0-0.1-0.146,4424,1,2
147,4,object_01,object_03,566.0,8,2,450.0,0.7777777777777778,2,object_09,1,2704,0,4,7,restaurant_19,2,memory-2step-stake-s,635,2504634,0.0-18.0-0.1-0.147,4424,7,8
148,2,object_08,object_05,523.0,4,2,609.0,0.6666666666666666,2,object_09,5,2734,0,4,6,forest_12,2,memory-2step-stake-s,636,2513069,0.0-18.0-0.1-0.148,4424,3,4
149,2,object_05,object_08,408.0,3,2,415.0,0.4444444444444444,1,object_06,5,2754,0,4,8,forest_12,2,memory-2step-stake-s,637,2521109,0.0-18.0-0.1-0.149,4424,4,3
150,4,object_01,object_03,530.0,8,2,558.0,0.7777777777777778,2,object_09,1,2761,0,2,7,restaurant_26,2,memory-2step-stake-s,638,2529592,0.0-18.0-0.1-0.150,4424,7,8
151,3,object_02,object_07,752.0,6,2,441.0,1.0,2,object_09,1,2770,0,1,9,library_7,2,memory-2step-stake-s,639,2538159,0.0-18.0-0.1-0.151,4424,5,6
152,2,object_05,object_08,690.0,4,1,389.0,1.0,2,object_09,5,2815,0,1,9,forest_32,2,memory-2step-stake-s,640,2546687,0.0-18.0-0.1-0.152,4424,4,3
153,3,object_02,object_07,641.0,6,2,413.0,0.8888888888888888,2,object_09,1,2823,0,4,8,library_30,2,memory-2step-stake-s,641,2555128,0.0-18.0-0.1-0.153,4424,5,6
154,3,object_02,object_07,644.0,6,2,419.0,1.0,2,object_09,1,2832,0,1,9,library_13,2,memory-2step-stake-s,642,2563669,0.0-18.0-0.1-0.154,4424,5,6
155,1,object_04,object_10,752.0,2,2,505.0,1.0,2,object_09,5,2877,0,1,9,desert_18,2,memory-2step-stake-s,643,2572311,0.0-18.0-0.1-0.155,4424,1,2
156,3,object_02,object_07,657.0,6,2,454.0,0.8888888888888888,2,object_09,1,2885,0,0,8,library_6,2,memory-2step-stake-s,644,2580792,0.0-18.0-0.1-0.156,4424,5,6
157,2,object_08,object_05,562.0,4,2,716.0,0.8888888888888888,2,object_09,5,2925,0,2,8,forest_19,2,memory-2step-stake-s,645,2589538,0.0-18.0-0.1-0.157,4424,3,4
158,3,object_07,object_02,695.0,6,1,443.0,0.7777777777777778,2,object_09,1,2932,0,0,7,library_19,2,memory-2step-stake-s,646,2597906,0.0-18.0-0.1-0.158,4424,6,5
159,1,object_04,object_10,1031.0,1,1,326.0,0.1111111111111111,1,object_06,5,2937,0,1,7,desert_29,2,memory-2step-stake-s,647,2605557,0.0-18.0-0.1-0.159,4424,1,2
160,3,object_02,object_07,523.0,6,2,521.0,0.6666666666666666,2,object_09,1,2943,0,1,6,library_5,2,memory-2step-stake-s,648,2613909,0.0-18.0-0.1-0.160,4424,5,6
161,2,object_05,object_08,737.0,4,1,300.0,0.3333333333333333,2,object_09,5,2958,0,1,3,forest_20,2,memory-2step-stake-s,649,2621735,0.0-18.0-0.1-0.161,4424,4,3
162,3,object_02,object_07,646.0,6,2,351.0,0.2222222222222222,2,object_09,1,2960,0,1,2,library_3,2,memory-2step-stake-s,650,2629506,0.0-18.0-0.1-0.162,4424,5,6
163,1,object_04,object_10,500.0,1,1,346.0,0.0,1,object_06,5,2960,0,0,3,desert_31,2,memory-2step-stake-s,651,2637066,0.0-18.0-0.1-0.163,4424,1,2
164,4,object_01,object_03,862.0,7,1,337.0,0.0,1,object_06,1,2960,0,0,3,restaurant_11,2,memory-2step-stake-s,652,2644624,0.0-18.0-0.1-0.164,4424,7,8
165,4,object_03,object_01,554.0,8,1,494.0,0.2222222222222222,2,object_09,1,2962,0,2,2,restaurant_23,2,memory-2step-stake-s,653,2652535,0.0-18.0-0.1-0.165,4424,8,7
166,1,object_04,object_10,599.0,2,2,521.0,0.3333333333333333,2,object_09,1,2965,0,0,3,desert_23,2,memory-2step-stake-s,654,2660576,0.0-18.0-0.1-0.166,4424,1,2
167,2,object_05,object_08,624.0,3,2,560.0,0.1111111111111111,1,object_06,1,2966,0,1,1,forest_31,2,memory-2step-stake-s,655,2668461,0.0-18.0-0.1-0.167,4424,4,3
168,3,object_02,object_07,977.0,5,1,486.0,0.0,1,object_06,1,2966,0,0,2,library_17,2,memory-2step-stake-s,656,2676165,0.0-18.0-0.1-0.168,4424,5,6
169,1,object_10,object_04,573.0,2,1,442.0,0.0,2,object_09,5,2966,0,1,0,desert_13,2,memory-2step-stake-s,657,2683821,0.0-18.0-0.1-0.169,4424,2,1
170,3,object_07,object_02,781.0,6,1,438.0,0.2222222222222222,2,object_09,1,2968,0,2,2,library_6,2,memory-2step-stake-s,658,2691684,0.0-18.0-0.1-0.170,4424,6,5
171,3,object_02,object_07,709.0,5,1,433.0,0.3333333333333333,1,object_06,1,2971,0,3,3,library_28,2,memory-2step-stake-s,659,2699641,0.0-18.0-0.1-0.171,4424,5,6
172,3,object_07,object_02,720.0,6,1,356.0,0.1111111111111111,2,object_09,5,2976,0,4,1,library_15,2,memory-2step-stake-s,660,2707323,0.0-18.0-0.1-0.172,4424,6,5
173,3,object_07,object_02,678.0,5,2,390.0,0.5555555555555556,1,object_06,1,2981,0,5,2,library_6,2,memory-2step-stake-s,661,2715433,0.0-18.0-0.1-0.173,4424,6,5
174,4,object_01,object_03,571.0,7,1,405.0,0.7777777777777778,1,object_06,1,2988,0,7,2,restaurant_13,2,memory-2step-stake-s,662,2723767,0.0-18.0-0.1-0.174,4424,7,8
175,3,object_07,object_02,747.0,5,2,309.0,0.8888888888888888,1,object_06,1,2996,0,8,3,library_21,2,memory-2step-stake-s,663,2732117,0.0-18.0-0.1-0.175,4424,6,5
176,3,object_07,object_02,823.0,5,2,403.0,0.7777777777777778,1,object_06,1,3003,0,7,2,library_10,2,memory-2step-stake-s,664,2740445,0.0-18.0-0.1-0.176,4424,6,5
177,4,object_01,object_03,652.0,8,2,323.0,0.5555555555555556,2,object_09,1,3008,0,7,5,restaurant_30,2,memory-2step-stake-s,665,2748488,0.0-18.0-0.1-0.177,4424,7,8
178,1,object_04,object_10,543.0,1,1,601.0,0.7777777777777778,1,object_06,5,3043,0,7,6,desert_27,2,memory-2step-stake-s,666,2757018,0.0-18.0-0.1-0.178,4424,1,2
179,2,object_08,object_05,668.0,3,1,840.0,0.8888888888888888,1,object_06,5,3083,0,8,8,forest_3,2,memory-2step-stake-s,667,2765885,0.0-18.0-0.1-0.179,4424,3,4
180,3,object_07,object_02,736.0,6,1,454.0,0.6666666666666666,2,object_09,1,3089,0,4,6,library_3,2,memory-2step-stake-s,668,2774165,0.0-18.0-0.1-0.180,4424,6,5
181,1,object_10,object_04,680.0,1,2,523.0,0.4444444444444444,1,object_06,1,3093,0,4,9,desert_19,2,memory-2step-stake-s,669,2782309,0.0-18.0-0.1-0.181,4424,2,1
182,3,object_02,object_07,643.0,6,2,387.0,1.0,2,object_09,1,3102,0,7,9,library_21,2,memory-2step-stake-s,670,2790834,0.0-18.0-0.1-0.182,4424,5,6
183,3,object_07,object_02,586.0,5,2,432.0,0.6666666666666666,1,object_06,1,3108,0,6,8,library_23,2,memory-2step-stake-s,671,2799095,0.0-18.0-0.1-0.183,4424,6,5
184,4,object_03,object_01,553.0,8,1,327.0,0.8888888888888888,2,object_09,1,3116,0,3,8,restaurant_25,2,memory-2step-stake-s,672,2807450,0.0-18.0-0.1-0.184,4424,8,7
185,1,object_10,object_04,749.0,2,1,425.0,0.5555555555555556,2,object_09,5,3141,0,2,5,desert_7,2,memory-2step-stake-s,673,2815610,0.0-18.0-0.1-0.185,4424,2,1
186,1,object_04,object_10,485.0,1,1,353.0,0.2222222222222222,1,object_06,5,3151,0,2,5,desert_4,2,memory-2step-stake-s,674,2823377,0.0-18.0-0.1-0.186,4424,1,2
187,2,object_08,object_05,631.0,4,2,388.0,1.0,2,object_09,5,3196,0,3,9,forest_32,2,memory-2step-stake-s,675,2831896,0.0-18.0-0.1-0.187,4424,3,4
188,2,object_08,object_05,440.0,4,2,301.0,0.7777777777777778,2,object_09,5,3231,0,2,7,forest_2,2,memory-2step-stake-s,676,2840128,0.0-18.0-0.1-0.188,4424,3,4
189,1,object_10,object_04,667.0,2,1,327.0,0.4444444444444444,2,object_09,5,3251,0,3,4,desert_22,2,memory-2step-stake-s,677,2848080,0.0-18.0-0.1-0.189,4424,2,1
190,4,object_03,object_01,745.0,7,2,735.0,0.2222222222222222,1,object_06,1,3253,0,2,3,restaurant_13,2,memory-2step-stake-s,678,2856237,0.0-18.0-0.1-0.190,4424,8,7
191,1,object_10,object_04,649.0,2,1,400.0,0.8888888888888888,2,object_09,5,3293,0,2,8,desert_12,2,memory-2step-stake-s,679,2864669,0.0-18.0-0.1-0.191,4424,2,1
192,4,object_03,object_01,537.0,7,2,303.0,0.2222222222222222,1,object_06,1,3295,0,2,6,restaurant_15,2,memory-2step-stake-s,680,2872392,0.0-18.0-0.1-0.192,4424,8,7
193,2,object_05,object_08,618.0,4,1,432.0,1.0,2,object_09,5,3340,0,1,9,forest_20,2,memory-2step-stake-s,681,2880951,0.0-18.0-0.1-0.193,4424,4,3
194,2,object_08,object_05,620.0,4,2,503.0,0.6666666666666666,2,object_09,5,3370,0,3,6,forest_10,2,memory-2step-stake-s,682,2889277,0.0-18.0-0.1-0.194,4424,3,4
195,4,object_03,object_01,642.0,7,2,428.0,0.0,1,object_06,1,3370,0,0,7,restaurant_8,2,memory-2step-stake-s,683,2896922,0.0-18.0-0.1-0.195,4424,8,7
196,1,object_04,object_10,831.0,2,2,94.0,0.7777777777777778,2,object_09,5,3405,0,1,7,desert_27,2,memory-2step-stake-s,684,2904941,0.0-18.0-0.1-0.196,4424,1,2
197,2,object_05,object_08,526.0,3,2,385.0,0.1111111111111111,1,object_06,1,3406,0,1,8,forest_24,2,memory-2step-stake-s,685,2912643,0.0-18.0-0.1-0.197,4424,4,3
198,4,object_03,object_01,821.0,7,2,313.0,0.2222222222222222,1,object_06,1,3408,0,2,7,restaurant_2,2,memory-2step-stake-s,686,2920373,0.0-18.0-0.1-0.198,4424,8,7
199,1,object_10,object_04,714.0,2,1,420.0,0.7777777777777778,2,object_09,1,3415,0,2,7,desert_22,2,memory-2step-stake-s,687,2928722,0.0-18.0-0.1-0.199,4424,2,1
200,1,object_04,object_10,617.0,2,2,407.0,0.6666666666666666,2,object_09,5,3445,0,4,6,desert_13,2,memory-2step-stake-s,688,2936960,0.0-18.0-0.1-0.200,4424,1,2
201,2,object_05,object_08,641.0,4,1,487.0,0.8888888888888888,2,object_09,5,3485,0,1,8,forest_23,2,memory-2step-stake-s,689,2945472,0.0-18.0-0.1-0.201,4424,4,3
202,4,object_03,object_01,544.0,7,2,704.0,0.0,1,object_06,1,3485,0,0,8,restaurant_30,2,memory-2step-stake-s,690,2953399,0.0-18.0-0.1-0.202,4424,8,7
203,4,object_03,object_01,511.0,7,2,-1.0,0.0,1,object_06,1,3485,0,2,7,restaurant_15,2,memory-2step-stake-s,691,2961915,0.0-18.0-0.1-0.203,4424,8,7
204,4,object_01,object_03,776.0,8,2,417.0,0.8888888888888888,2,object_09,1,3493,0,3,8,restaurant_13,2,memory-2step-stake-s,692,2970359,0.0-18.0-0.1-0.204,4424,7,8
205,3,object_02,object_07,754.0,6,2,770.0,0.8888888888888888,2,object_09,1,3501,0,3,8,library_8,2,memory-2step-stake-s,693,2979155,0.0-18.0-0.1-0.205,4424,5,6
206,2,object_08,object_05,468.0,4,2,590.0,0.7777777777777778,2,object_09,5,3536,0,5,7,forest_31,2,memory-2step-stake-s,694,2987669,0.0-18.0-0.1-0.206,4424,3,4
207,1,object_04,object_10,567.0,1,1,328.0,0.4444444444444444,1,object_06,1,3540,0,4,8,desert_7,2,memory-2step-stake-s,695,2995622,0.0-18.0-0.1-0.207,4424,1,2
208,4,object_01,object_03,407.0,8,2,235.0,0.5555555555555556,2,object_09,5,3565,0,4,5,restaurant_26,2,memory-2step-stake-s,696,3003583,0.0-18.0-0.1-0.208,4424,7,8
209,4,object_03,object_01,538.0,7,2,729.0,0.5555555555555556,1,object_06,1,3570,0,5,1,restaurant_4,2,memory-2step-stake-s,697,3012037,0.0-18.0-0.1-0.209,4424,8,7
210,3,object_02,object_07,722.0,6,2,300.0,0.1111111111111111,2,object_09,1,3571,0,4,1,library_7,2,memory-2step-stake-s,698,3019658,0.0-18.0-0.1-0.210,4424,5,6
211,4,object_01,object_03,613.0,7,1,344.0,0.4444444444444444,1,object_06,1,3575,0,4,4,restaurant_12,2,memory-2step-stake-s,699,3027629,0.0-18.0-0.1-0.211,4424,7,8
212,3,object_07,object_02,595.0,5,2,383.0,0.5555555555555556,1,object_06,5,3600,0,5,9,library_29,2,memory-2step-stake-s,700,3035744,0.0-18.0-0.1-0.212,4424,6,5
213,4,object_03,object_01,487.0,8,1,333.0,0.7777777777777778,2,object_09,1,3607,0,7,7,restaurant_28,2,memory-2step-stake-s,701,3043997,0.0-18.0-0.1-0.213,4424,8,7
214,3,object_07,object_02,856.0,6,1,347.0,1.0,2,object_09,5,3652,0,8,9,library_7,2,memory-2step-stake-s,702,3052472,0.0-18.0-0.1-0.214,4424,6,5
215,4,object_01,object_03,547.0,7,1,281.0,1.0,1,object_06,1,3661,0,9,9,restaurant_25,2,memory-2step-stake-s,703,3060880,0.0-18.0-0.1-0.215,4424,7,8
216,1,object_10,object_04,557.0,2,1,382.0,0.5555555555555556,2,object_09,5,3686,0,9,5,desert_4,2,memory-2step-stake-s,704,3068987,0.0-18.0-0.1-0.216,4424,2,1
217,4,object_01,object_03,669.0,7,1,357.0,0.8888888888888888,1,object_06,1,3694,0,8,6,restaurant_22,2,memory-2step-stake-s,705,3077379,0.0-18.0-0.1-0.217,4424,7,8
218,3,object_07,object_02,531.0,5,2,464.0,0.6666666666666666,1,object_06,5,3724,0,6,4,library_1,2,memory-2step-stake-s,706,3085669,0.0-18.0-0.1-0.218,4424,6,5
219,4,object_01,object_03,599.0,8,2,324.0,0.3333333333333333,2,object_09,1,3727,0,6,3,restaurant_25,2,memory-2step-stake-s,707,3093514,0.0-18.0-0.1-0.219,4424,7,8
220,2,object_08,object_05,523.0,3,1,286.0,0.5555555555555556,1,object_06,1,3732,0,5,2,forest_5,2,memory-2step-stake-s,708,3101519,0.0-18.0-0.1-0.220,4424,3,4
221,4,object_03,object_01,508.0,8,1,489.0,0.5555555555555556,2,object_09,1,3737,0,5,5,restaurant_11,2,memory-2step-stake-s,709,3109732,0.0-18.0-0.1-0.221,4424,8,7
222,4,object_01,object_03,474.0,7,1,23.0,0.5555555555555556,1,object_06,1,3742,0,5,8,restaurant_27,2,memory-2step-stake-s,710,3117472,0.0-18.0-0.1-0.222,4424,7,8
223,3,object_02,object_07,773.0,6,2,425.0,0.8888888888888888,2,object_09,1,3750,0,9,8,library_15,2,memory-2step-stake-s,711,3125917,0.0-18.0-0.1-0.223,4424,5,6
224,3,object_02,object_07,667.0,6,2,359.0,0.7777777777777778,2,object_09,1,3757,0,7,7,library_8,2,memory-2step-stake-s,712,3134200,0.0-18.0-0.1-0.224,4424,5,6
225,3,object_07,object_02,484.0,6,1,528.0,0.5555555555555556,2,object_09,1,3762,0,6,5,library_8,2,memory-2step-stake-s,713,3142457,0.0-18.0-0.1-0.225,4424,6,5
226,4,object_01,object_03,645.0,7,1,439.0,0.6666666666666666,1,object_06,1,3768,0,6,7,restaurant_26,2,memory-2step-stake-s,714,3150714,0.0-18.0-0.1-0.226,4424,7,8
227,3,object_07,object_02,794.0,6,1,507.0,0.8888888888888888,2,object_09,5,3808,0,9,8,library_15,2,memory-2step-stake-s,715,3159255,0.0-18.0-0.1-0.227,4424,6,5
228,3,object_07,object_02,645.0,5,2,329.0,0.8888888888888888,1,object_06,1,3816,0,8,9,library_30,2,memory-2step-stake-s,716,3167610,0.0-18.0-0.1-0.228,4424,6,5
229,4,object_01,object_03,466.0,8,2,336.0,0.8888888888888888,2,object_09,1,3824,0,7,8,restaurant_11,2,memory-2step-stake-s,717,3175983,0.0-18.0-0.1-0.229,4424,7,8
230,3,object_07,object_02,444.0,6,1,39.0,0.8888888888888888,2,object_09,1,3832,0,5,8,library_13,2,memory-2step-stake-s,718,3184049,0.0-18.0-0.1-0.230,4424,6,5
231,3,object_02,object_07,734.0,5,1,396.0,0.5555555555555556,1,object_06,1,3837,0,5,7,library_30,2,memory-2step-stake-s,719,3192170,0.0-18.0-0.1-0.231,4424,5,6
232,4,object_03,object_01,760.0,7,2,328.0,0.2222222222222222,1,object_06,1,3839,0,2,8,restaurant_8,2,memory-2step-stake-s,720,3199914,0.0-18.0-0.1-0.232,4424,8,7
233,4,object_03,object_01,493.0,8,1,503.0,0.7777777777777778,2,object_09,1,3846,0,1,7,restaurant_23,2,memory-2step-stake-s,721,3208348,0.0-18.0-0.1-0.233,4424,8,7
234,3,object_02,object_07,760.0,6,2,492.0,0.5555555555555556,2,object_09,1,3851,0,2,5,library_13,2,memory-2step-stake-s,722,3216565,0.0-18.0-0.1-0.234,4424,5,6
235,4,object_01,object_03,567.0,7,1,550.0,0.1111111111111111,1,object_06,1,3852,0,1,6,restaurant_28,2,memory-2step-stake-s,723,3224429,0.0-18.0-0.1-0.235,4424,7,8
236,3,object_02,object_07,764.0,5,1,368.0,0.3333333333333333,1,object_06,1,3855,0,3,7,library_21,2,memory-2step-stake-s,724,3232311,0.0-18.0-0.1-0.236,4424,5,6
237,1,object_10,object_04,820.0,2,1,329.0,0.7777777777777778,2,object_09,5,3890,0,3,7,desert_18,2,memory-2step-stake-s,725,3240568,0.0-18.0-0.1-0.237,4424,2,1
238,4,object_03,object_01,532.0,7,2,521.0,0.4444444444444444,1,object_06,1,3894,0,4,8,restaurant_22,2,memory-2step-stake-s,726,3248714,0.0-18.0-0.1-0.238,4424,8,7
239,3,object_02,object_07,570.0,5,1,432.0,0.2222222222222222,1,object_06,1,3896,0,2,6,library_15,2,memory-2step-stake-s,727,3256566,0.0-18.0-0.1-0.239,4424,5,6
240,4,object_01,object_03,650.0,8,2,331.0,0.5555555555555556,2,object_09,1,3901,0,2,5,restaurant_27,2,memory-2step-stake-s,728,3264621,0.0-18.0-0.1-0.240,4424,7,8
241,2,object_08,object_05,499.0,4,2,426.0,0.5555555555555556,2,object_09,5,3926,0,2,5,forest_10,2,memory-2step-stake-s,729,3272772,0.0-18.0-0.1-0.241,4424,3,4
242,2,object_08,object_05,416.0,3,1,320.0,0.4444444444444444,1,object_06,5,3946,0,4,7,forest_25,2,memory-2step-stake-s,730,3280712,0.0-18.0-0.1-0.242,4424,3,4
243,2,object_08,object_05,440.0,4,2,317.0,0.8888888888888888,2,object_09,5,3986,0,4,8,forest_31,2,memory-2step-stake-s,731,3289064,0.0-18.0-0.1-0.243,4424,3,4
244,4,object_01,object_03,429.0,8,2,456.0,0.6666666666666666,2,object_09,1,3992,0,2,6,restaurant_2,2,memory-2step-stake-s,732,3297346,0.0-18.0-0.1-0.244,4424,7,8
245,2,object_08,object_05,580.0,3,1,277.0,0.0,1,object_06,5,3992,0,0,6,forest_3,2,memory-2step-stake-s,733,3304840,0.0-18.0-0.1-0.245,4424,3,4
246,1,object_04,object_10,913.0,2,2,584.0,0.8888888888888888,2,object_09,5,4032,0,3,8,desert_13,2,memory-2step-stake-s,734,3313453,0.0-18.0-0.1-0.246,4424,1,2
247,2,object_08,object_05,755.0,4,2,501.0,0.7777777777777778,2,object_09,5,4067,0,1,7,forest_5,2,memory-2step-stake-s,735,3321884,0.0-18.0-0.1-0.247,4424,3,4
248,4,object_01,object_03,525.0,7,1,1143.0,0.4444444444444444,1,object_06,1,4071,0,4,5,restaurant_11,2,memory-2step-stake-s,736,3330648,0.0-18.0-0.1-0.248,4424,7,8
249,1,object_04,object_10,702.0,2,2,411.0,0.7777777777777778,2,object_09,5,4106,0,5,7,desert_12,2,memory-2step-stake-s,737,3338987,0.0-18.0-0.1-0.249,4424,1,2
250,1,object_04,object_10,633.0,2,2,180.0,0.8888888888888888,2,object_09,5,4146,0,2,8,desert_9,2,memory-2step-stake-s,738,3347205,0.0-18.0-0.1-0.250,4424,1,2
251,2,object_08,object_05,451.0,4,2,386.0,0.7777777777777778,2,object_09,5,4181,0,3,7,forest_25,2,memory-2step-stake-s,739,3355514,0.0-18.0-0.1-0.251,4424,3,4
252,4,object_03,object_01,670.0,7,2,417.0,0.4444444444444444,1,object_06,1,4185,0,4,7,restaurant_5,2,memory-2step-stake-s,740,3363555,0.0-18.0-0.1-0.252,4424,8,7
253,3,object_02,object_07,848.0,6,2,375.0,1.0,2,object_09,1,4194,0,1,9,library_28,2,memory-2step-stake-s,741,3372059,0.0-18.0-0.1-0.253,4424,5,6
254,1,object_04,object_10,812.0,2,2,300.0,0.7777777777777778,2,object_09,5,4229,0,3,7,desert_22,2,memory-2step-stake-s,742,3380290,0.0-18.0-0.1-0.254,4424,1,2
255,4,object_03,object_01,630.0,7,2,296.0,0.2222222222222222,1,object_06,1,4231,0,2,7,restaurant_22,2,memory-2step-stake-s,743,3388004,0.0-18.0-0.1-0.255,4424,8,7
