,state1,stim_left,stim_right,rt_1,choice1,response1,rt_2,points,state2,stim_state2,stake,score,practice,rews1,rews2,background,high_arm,trial_type,trial_index,time_elapsed,internal_node_id,subid,stim_left_num,stim_right_num
0,3,object_02,object_05,648.0,6,2,445.0,0.0,2,object_04,1,0,0,0,0,library_11,2,memory-2step-stake-s,487,845765,0.0-18.0-0.0-0.0,1333,5,6
1,3,object_05,object_02,623.0,6,1,395.0,0.2222222222222222,2,object_04,1,2,0,1,2,library_14,2,memory-2step-stake-s,488,853577,0.0-18.0-0.0-0.1,1333,6,5
2,1,object_10,object_08,698.0,1,1,398.0,0.2222222222222222,1,object_01,5,12,0,2,2,desert_14,2,memory-2step-stake-s,489,861395,0.0-18.0-0.0-0.2,1333,1,2
3,4,object_09,object_06,856.0,7,2,620.0,0.5555555555555556,1,object_01,5,37,0,5,2,restaurant_30,2,memory-2step-stake-s,490,869734,0.0-18.0-0.0-0.3,1333,8,7
4,4,object_06,object_09,562.0,7,1,558.0,0.1111111111111111,1,object_01,1,38,0,1,5,restaurant_14,2,memory-2step-stake-s,491,877607,0.0-18.0-0.0-0.4,1333,7,8
5,2,object_07,object_03,963.0,4,2,545.0,0.2222222222222222,2,object_04,5,48,0,3,2,forest_6,2,memory-2step-stake-s,492,885568,0.0-18.0-0.0-0.5,1333,3,4
6,4,object_06,object_09,714.0,7,1,383.0,0.5555555555555556,1,object_01,1,53,0,5,2,restaurant_12,2,memory-2step-stake-s,493,893672,0.0-18.0-0.0-0.6,1333,7,8
7,2,object_03,object_07,622.0,3,2,388.0,0.5555555555555556,1,object_01,5,78,0,5,2,forest_29,2,memory-2step-stake-s,494,901783,0.0-18.0-0.0-0.7,1333,4,3
8,3,object_02,object_05,627.0,5,1,316.0,0.6666666666666666,1,object_01,1,84,0,6,1,library_18,2,memory-2step-stake-s,495,909922,0.0-18.0-0.0-0.8,1333,5,6
9,3,object_05,object_02,578.0,5,2,323.0,0.4444444444444444,1,object_01,1,88,0,4,1,library_1,2,memory-2step-stake-s,496,917865,0.0-18.0-0.0-0.9,1333,6,5
10,3,object_05,object_02,536.0,5,2,567.0,0.4444444444444444,1,object_01,1,92,0,4,3,library_26,2,memory-2step-stake-s,497,926048,0.0-18.0-0.0-0.10,1333,6,5
11,4,object_06,object_09,544.0,7,1,410.0,0.5555555555555556,1,object_01,1,97,0,5,2,restaurant_16,2,memory-2step-stake-s,498,934183,0.0-18.0-0.0-0.11,1333,7,8
12,1,object_10,object_08,774.0,1,1,433.0,0.2222222222222222,1,object_01,1,99,0,2,1,desert_30,2,memory-2step-stake-s,499,942034,0.0-18.0-0.0-0.12,1333,1,2
13,3,object_02,object_05,621.0,5,1,655.0,0.5555555555555556,1,object_01,1,104,0,5,2,library_15,2,memory-2step-stake-s,500,950411,0.0-18.0-0.0-0.13,1333,5,6
14,2,object_07,object_03,547.0,3,1,428.0,0.5555555555555556,1,object_01,5,129,0,5,3,forest_15,2,memory-2step-stake-s,501,958560,0.0-18.0-0.0-0.14,1333,3,4
15,1,object_10,object_08,772.0,2,2,638.0,0.3333333333333333,2,object_04,5,144,0,5,3,desert_14,2,memory-2step-stake-s,502,966715,0.0-18.0-0.0-0.15,1333,1,2
16,4,object_09,object_06,661.0,7,2,440.0,0.7777777777777778,1,object_01,5,179,0,7,2,restaurant_15,2,memory-2step-stake-s,503,975078,0.0-18.0-0.0-0.16,1333,8,7
17,1,object_10,object_08,956.0,1,1,441.0,0.4444444444444444,1,object_01,5,199,0,4,4,desert_12,2,memory-2step-stake-s,504,983138,0.0-18.0-0.0-0.17,1333,1,2
18,1,object_08,object_10,1123.0,1,2,407.0,0.4444444444444444,1,object_01,5,219,0,4,6,desert_27,2,memory-2step-stake-s,505,991166,0.0-18.0-0.0-0.18,1333,2,1
19,4,object_06,object_09,553.0,7,1,390.0,0.5555555555555556,1,object_01,1,224,0,5,5,restaurant_32,2,memory-2step-stake-s,506,999279,0.0-18.0-0.0-0.19,1333,7,8
20,3,object_05,object_02,649.0,5,2,434.0,0.2222222222222222,1,object_01,1,226,0,2,5,library_15,2,memory-2step-stake-s,507,1007127,0.0-18.0-0.0-0.20,1333,6,5
21,2,object_03,object_07,596.0,3,2,385.0,0.0,1,object_01,5,226,0,0,5,forest_14,2,memory-2step-stake-s,508,1014727,0.0-18.0-0.0-0.21,1333,4,3
22,3,object_02,object_05,1084.0,6,2,346.0,0.2222222222222222,2,object_04,5,236,0,1,2,library_6,2,memory-2step-stake-s,509,1022488,0.0-18.0-0.0-0.22,1333,5,6
23,1,object_08,object_10,753.0,1,2,310.0,0.3333333333333333,1,object_01,5,251,0,3,3,desert_19,2,memory-2step-stake-s,510,1030316,0.0-18.0-0.0-0.23,1333,2,1
24,4,object_06,object_09,866.0,8,2,337.0,0.3333333333333333,2,object_04,1,254,0,3,3,restaurant_30,2,memory-2step-stake-s,511,1038172,0.0-18.0-0.0-0.24,1333,7,8
25,2,object_03,object_07,849.0,3,2,325.0,0.5555555555555556,1,object_01,5,279,0,5,1,forest_8,2,memory-2step-stake-s,512,1046218,0.0-18.0-0.0-0.25,1333,4,3
26,3,object_05,object_02,671.0,5,2,714.0,0.6666666666666666,1,object_01,1,285,0,6,4,library_21,2,memory-2step-stake-s,513,1054752,0.0-18.0-0.0-0.26,1333,6,5
27,1,object_10,object_08,767.0,1,1,374.0,0.6666666666666666,1,object_01,5,315,0,6,5,desert_13,2,memory-2step-stake-s,514,1062944,0.0-18.0-0.0-0.27,1333,1,2
28,3,object_02,object_05,529.0,5,1,818.0,0.6666666666666666,1,object_01,1,321,0,6,9,library_15,2,memory-2step-stake-s,515,1071582,0.0-18.0-0.0-0.28,1333,5,6
29,3,object_02,object_05,540.0,5,1,526.0,0.5555555555555556,1,object_01,1,326,0,5,8,library_11,2,memory-2step-stake-s,516,1079833,0.0-18.0-0.0-0.29,1333,5,6
30,1,object_10,object_08,809.0,1,1,522.0,0.3333333333333333,1,object_01,5,341,0,3,6,desert_22,2,memory-2step-stake-s,517,1087873,0.0-18.0-0.0-0.30,1333,1,2
31,3,object_05,object_02,670.0,5,2,325.0,0.3333333333333333,1,object_01,5,356,0,3,8,library_3,2,memory-2step-stake-s,518,1095714,0.0-18.0-0.0-0.31,1333,6,5
32,3,object_02,object_05,978.0,5,1,-1.0,0.0,1,object_01,1,356,0,4,7,library_18,2,memory-2step-stake-s,519,1104230,0.0-18.0-0.0-0.32,1333,5,6
33,2,object_03,object_07,763.0,3,2,579.0,0.2222222222222222,1,object_01,5,366,0,2,8,forest_15,2,memory-2step-stake-s,520,1112227,0.0-18.0-0.0-0.33,1333,4,3
34,2,object_03,object_07,580.0,3,2,381.0,0.2222222222222222,1,object_01,5,376,0,2,7,forest_28,2,memory-2step-stake-s,521,1120025,0.0-18.0-0.0-0.34,1333,4,3
35,1,object_08,object_10,597.0,1,2,558.0,0.0,1,object_01,5,376,0,0,7,desert_7,2,memory-2step-stake-s,522,1127797,0.0-18.0-0.0-0.35,1333,2,1
36,4,object_06,object_09,827.0,7,1,572.0,0.3333333333333333,1,object_01,1,379,0,3,7,restaurant_14,2,memory-2step-stake-s,523,1135887,0.0-18.0-0.0-0.36,1333,7,8
37,4,object_09,object_06,848.0,8,1,431.0,0.4444444444444444,2,object_04,1,383,0,1,4,restaurant_9,2,memory-2step-stake-s,524,1143942,0.0-18.0-0.0-0.37,1333,8,7
38,2,object_03,object_07,547.0,4,1,312.0,0.4444444444444444,2,object_04,5,403,0,2,4,forest_27,2,memory-2step-stake-s,525,1151872,0.0-18.0-0.0-0.38,1333,4,3
39,4,object_09,object_06,557.0,7,2,303.0,0.2222222222222222,1,object_01,5,413,0,2,4,restaurant_32,2,memory-2step-stake-s,526,1159592,0.0-18.0-0.0-0.39,1333,8,7
40,2,object_07,object_03,914.0,3,1,507.0,0.1111111111111111,1,object_01,5,418,0,1,7,forest_12,2,memory-2step-stake-s,527,1167412,0.0-18.0-0.0-0.40,1333,3,4
41,1,object_08,object_10,911.0,2,1,356.0,0.7777777777777778,2,object_04,5,453,0,2,7,desert_8,2,memory-2step-stake-s,528,1175693,0.0-18.0-0.0-0.41,1333,2,1
42,4,object_09,object_06,610.0,7,2,331.0,0.1111111111111111,1,object_01,1,454,0,1,5,restaurant_22,2,memory-2step-stake-s,529,1183338,0.0-18.0-0.0-0.42,1333,8,7
43,1,object_10,object_08,1205.0,2,2,385.0,0.5555555555555556,2,object_04,5,479,0,3,5,desert_9,2,memory-2step-stake-s,530,1191444,0.0-18.0-0.0-0.43,1333,1,2
44,4,object_06,object_09,844.0,7,1,321.0,0.5555555555555556,1,object_01,5,504,0,5,4,restaurant_2,2,memory-2step-stake-s,531,1199488,0.0-18.0-0.0-0.44,1333,7,8
45,1,object_10,object_08,961.0,2,2,346.0,0.2222222222222222,2,object_04,5,514,0,4,2,desert_29,2,memory-2step-stake-s,532,1207251,0.0-18.0-0.0-0.45,1333,1,2
46,1,object_10,object_08,510.0,2,2,324.0,0.4444444444444444,2,object_04,5,534,0,1,4,desert_14,2,memory-2step-stake-s,533,1215193,0.0-18.0-0.0-0.46,1333,1,2
47,1,object_10,object_08,498.0,2,2,313.0,0.6666666666666666,2,object_04,5,564,0,3,6,desert_13,2,memory-2step-stake-s,534,1223330,0.0-18.0-0.0-0.47,1333,1,2
48,2,object_07,object_03,993.0,4,2,403.0,0.8888888888888888,2,object_04,5,604,0,6,8,forest_18,2,memory-2step-stake-s,535,1231758,0.0-18.0-0.0-0.48,1333,3,4
49,4,object_06,object_09,842.0,7,1,332.0,0.8888888888888888,1,object_01,1,612,0,8,9,restaurant_26,2,memory-2step-stake-s,536,1240114,0.0-18.0-0.0-0.49,1333,7,8
50,1,object_10,object_08,448.0,2,2,370.0,0.6666666666666666,2,object_04,5,642,0,9,6,desert_20,2,memory-2step-stake-s,537,1248304,0.0-18.0-0.0-0.50,1333,1,2
51,2,object_07,object_03,766.0,3,1,310.0,0.8888888888888888,1,object_01,5,682,0,8,5,forest_12,2,memory-2step-stake-s,538,1256637,0.0-18.0-0.0-0.51,1333,3,4
52,2,object_03,object_07,759.0,3,2,290.0,0.8888888888888888,1,object_01,5,722,0,8,5,forest_27,2,memory-2step-stake-s,539,1264954,0.0-18.0-0.0-0.52,1333,4,3
53,3,object_05,object_02,716.0,6,1,338.0,0.5555555555555556,2,object_04,1,727,0,9,5,library_27,2,memory-2step-stake-s,540,1273013,0.0-18.0-0.0-0.53,1333,6,5
54,2,object_03,object_07,663.0,3,2,303.0,0.8888888888888888,1,object_01,5,767,0,8,1,forest_29,2,memory-2step-stake-s,541,1281341,0.0-18.0-0.0-0.54,1333,4,3
55,4,object_09,object_06,629.0,8,1,379.0,0.1111111111111111,2,object_04,1,768,0,6,1,restaurant_14,2,memory-2step-stake-s,542,1289034,0.0-18.0-0.0-0.55,1333,8,7
56,1,object_08,object_10,523.0,2,1,322.0,0.0,2,object_04,5,768,0,7,0,desert_20,2,memory-2step-stake-s,543,1296572,0.0-18.0-0.0-0.56,1333,2,1
57,1,object_10,object_08,757.0,2,2,292.0,0.0,2,object_04,1,768,0,7,0,desert_7,2,memory-2step-stake-s,544,1304078,0.0-18.0-0.0-0.57,1333,1,2
58,3,object_02,object_05,728.0,5,1,309.0,0.3333333333333333,1,object_01,5,783,0,3,2,library_11,2,memory-2step-stake-s,545,1311903,0.0-18.0-0.0-0.58,1333,5,6
59,4,object_06,object_09,635.0,7,1,472.0,0.4444444444444444,1,object_01,1,787,0,4,1,restaurant_22,2,memory-2step-stake-s,546,1319990,0.0-18.0-0.0-0.59,1333,7,8
60,2,object_07,object_03,767.0,4,2,302.0,0.1111111111111111,2,object_04,5,792,0,4,1,forest_19,2,memory-2step-stake-s,547,1327605,0.0-18.0-0.0-0.60,1333,3,4
61,1,object_10,object_08,483.0,2,2,396.0,0.0,2,object_04,5,792,0,5,0,desert_17,2,memory-2step-stake-s,548,1335213,0.0-18.0-0.0-0.61,1333,1,2
62,4,object_06,object_09,546.0,7,1,37.0,0.3333333333333333,1,object_01,1,795,0,3,0,restaurant_17,2,memory-2step-stake-s,549,1342765,0.0-18.0-0.0-0.62,1333,7,8
63,3,object_02,object_05,552.0,6,2,434.0,0.2222222222222222,2,object_04,1,797,0,1,2,library_14,2,memory-2step-stake-s,550,1350613,0.0-18.0-0.0-0.63,1333,5,6
64,4,object_09,object_06,694.0,7,2,374.0,0.1111111111111111,1,object_01,1,798,0,1,1,restaurant_31,2,memory-2step-stake-s,551,1358299,0.0-18.0-0.0-0.64,1333,8,7
65,4,object_06,object_09,409.0,7,1,297.0,0.4444444444444444,1,object_01,1,802,0,4,2,restaurant_17,2,memory-2step-stake-s,552,1366215,0.0-18.0-0.0-0.65,1333,7,8
66,3,object_02,object_05,719.0,6,2,282.0,0.3333333333333333,2,object_04,5,817,0,5,3,library_25,2,memory-2step-stake-s,553,1374016,0.0-18.0-0.0-0.66,1333,5,6
67,2,object_07,object_03,1214.0,4,2,372.0,0.5555555555555556,2,object_04,5,842,0,3,5,forest_20,2,memory-2step-stake-s,554,1382105,0.0-18.0-0.0-0.67,1333,3,4
68,2,object_03,object_07,1032.0,4,1,360.0,0.3333333333333333,2,object_04,1,845,0,4,3,forest_19,2,memory-2step-stake-s,555,1389980,0.0-18.0-0.0-0.68,1333,4,3
69,4,object_06,object_09,1086.0,7,1,366.0,0.6666666666666666,1,object_01,1,851,0,6,3,restaurant_12,2,memory-2step-stake-s,556,1398172,0.0-18.0-0.0-0.69,1333,7,8
70,1,object_08,object_10,845.0,2,1,305.0,0.4444444444444444,2,object_04,1,855,0,6,4,desert_13,2,memory-2step-stake-s,557,1406096,0.0-18.0-0.0-0.70,1333,2,1
71,1,object_10,object_08,498.0,2,2,308.0,0.4444444444444444,2,object_04,5,875,0,3,4,desert_25,2,memory-2step-stake-s,558,1414023,0.0-18.0-0.0-0.71,1333,1,2
72,3,object_02,object_05,758.0,5,1,376.0,0.2222222222222222,1,object_01,1,877,0,2,4,library_12,2,memory-2step-stake-s,559,1421814,0.0-18.0-0.0-0.72,1333,5,6
73,2,object_07,object_03,663.0,4,2,386.0,0.4444444444444444,2,object_04,5,897,0,2,4,forest_19,2,memory-2step-stake-s,560,1429820,0.0-18.0-0.0-0.73,1333,3,4
74,4,object_09,object_06,1128.0,8,1,387.0,0.1111111111111111,2,object_04,1,898,0,1,1,restaurant_14,2,memory-2step-stake-s,561,1437525,0.0-18.0-0.0-0.74,1333,8,7
75,2,object_07,object_03,875.0,3,1,349.0,0.1111111111111111,1,object_01,5,903,0,1,1,forest_14,2,memory-2step-stake-s,562,1445189,0.0-18.0-0.0-0.75,1333,3,4
76,2,object_03,object_07,506.0,3,2,479.0,0.2222222222222222,1,object_01,5,913,0,2,2,forest_29,2,memory-2step-stake-s,563,1453083,0.0-18.0-0.0-0.76,1333,4,3
77,2,object_07,object_03,577.0,3,1,507.0,0.0,1,object_01,1,913,0,0,3,forest_6,2,memory-2step-stake-s,564,1460803,0.0-18.0-0.0-0.77,1333,3,4
78,3,object_05,object_02,686.0,6,1,299.0,0.1111111111111111,2,object_04,1,914,0,3,1,library_22,2,memory-2step-stake-s,565,1468416,0.0-18.0-0.0-0.78,1333,6,5
79,3,object_02,object_05,799.0,6,2,413.0,0.0,2,object_04,5,914,0,4,0,library_21,2,memory-2step-stake-s,566,1476045,0.0-18.0-0.0-0.79,1333,5,6
80,4,object_09,object_06,620.0,7,2,473.0,0.8888888888888888,1,object_01,1,922,0,8,2,restaurant_1,2,memory-2step-stake-s,567,1484543,0.0-18.0-0.0-0.80,1333,8,7
81,1,object_08,object_10,686.0,2,1,301.0,0.0,2,object_04,5,922,0,8,0,desert_8,2,memory-2step-stake-s,568,1492057,0.0-18.0-0.0-0.81,1333,2,1
82,3,object_05,object_02,1136.0,5,2,579.0,1.0,1,object_01,5,967,0,9,0,library_15,2,memory-2step-stake-s,569,1500762,0.0-18.0-0.0-0.82,1333,6,5
83,2,object_07,object_03,944.0,3,1,380.0,0.7777777777777778,1,object_01,5,1002,0,7,0,forest_7,2,memory-2step-stake-s,570,1509066,0.0-18.0-0.0-0.83,1333,3,4
84,4,object_09,object_06,728.0,8,1,270.0,0.1111111111111111,2,object_04,1,1003,0,6,1,restaurant_31,2,memory-2step-stake-s,571,1516649,0.0-18.0-0.0-0.84,1333,8,7
85,1,object_10,object_08,901.0,2,2,339.0,0.0,2,object_04,5,1003,0,8,0,desert_29,2,memory-2step-stake-s,572,1524200,0.0-18.0-0.0-0.85,1333,1,2
86,4,object_09,object_06,536.0,7,2,281.0,1.0,1,object_01,1,1012,0,9,2,restaurant_1,2,memory-2step-stake-s,573,1532607,0.0-18.0-0.0-0.86,1333,8,7
87,1,object_10,object_08,1151.0,1,1,338.0,0.8888888888888888,1,object_01,1,1020,0,8,0,desert_7,2,memory-2step-stake-s,574,1540967,0.0-18.0-0.0-0.87,1333,1,2
88,2,object_03,object_07,578.0,3,2,337.0,0.6666666666666666,1,object_01,5,1050,0,6,1,forest_1,2,memory-2step-stake-s,575,1549131,0.0-18.0-0.0-0.88,1333,4,3
89,2,object_07,object_03,652.0,3,1,383.0,0.6666666666666666,1,object_01,5,1080,0,6,1,forest_1,2,memory-2step-stake-s,576,1557334,0.0-18.0-0.0-0.89,1333,3,4
90,2,object_07,object_03,-1.0,-1,-1,-1.0,0.0,-,,5,1080,0,4,1,forest_14,2,memory-2step-stake-s,577,1563843,0.0-18.0-0.0-0.90,1333,3,4
91,4,object_06,object_09,641.0,8,2,346.0,0.3333333333333333,2,object_04,5,1095,0,2,3,restaurant_12,2,memory-2step-stake-s,578,1571705,0.0-18.0-0.0-0.91,1333,7,8
92,4,object_06,object_09,427.0,7,1,689.0,0.3333333333333333,1,object_01,1,1098,0,3,4,restaurant_12,2,memory-2step-stake-s,579,1579912,0.0-18.0-0.0-0.92,1333,7,8
93,3,object_05,object_02,662.0,6,1,352.0,0.4444444444444444,2,object_04,1,1102,0,3,4,library_10,2,memory-2step-stake-s,580,1587883,0.0-18.0-0.0-0.93,1333,6,5
94,1,object_08,object_10,-1.0,-1,-1,-1.0,0.0,-,,5,1102,0,6,1,desert_9,2,memory-2step-stake-s,581,1594389,0.0-18.0-0.0-0.94,1333,2,1
95,4,object_09,object_06,591.0,7,2,531.0,0.6666666666666666,1,object_01,1,1108,0,6,1,restaurant_16,2,memory-2step-stake-s,582,1602741,0.0-18.0-0.0-0.95,1333,8,7
96,3,object_05,object_02,1113.0,6,1,614.0,0.5555555555555556,2,object_04,1,1113,0,6,5,library_29,2,memory-2step-stake-s,583,1611078,0.0-18.0-0.0-0.96,1333,6,5
97,2,object_03,object_07,429.0,3,2,292.0,0.8888888888888888,1,object_01,5,1153,0,8,4,forest_30,2,memory-2step-stake-s,584,1619395,0.0-18.0-0.0-0.97,1333,4,3
98,3,object_05,object_02,938.0,6,1,583.0,0.0,2,object_04,1,1153,0,8,0,library_6,2,memory-2step-stake-s,585,1627191,0.0-18.0-0.0-0.98,1333,6,5
99,2,object_03,object_07,614.0,4,1,374.0,0.1111111111111111,2,object_04,5,1158,0,6,1,forest_20,2,memory-2step-stake-s,586,1634880,0.0-18.0-0.0-0.99,1333,4,3
100,1,object_10,object_08,857.0,1,1,304.0,0.8888888888888888,1,object_01,5,1198,0,8,2,desert_27,2,memory-2step-stake-s,587,1643211,0.0-18.0-0.0-0.100,1333,1,2
101,4,object_09,object_06,766.0,8,1,235.0,0.3333333333333333,2,object_04,1,1201,0,8,3,restaurant_4,2,memory-2step-stake-s,588,1650965,0.0-18.0-0.0-0.101,1333,8,7
102,3,object_05,object_02,649.0,5,2,274.0,0.7777777777777778,1,object_01,1,1208,0,7,0,library_12,2,memory-2step-stake-s,589,1659160,0.0-18.0-0.0-0.102,1333,6,5
103,4,object_06,object_09,-1.0,-1,-1,-1.0,0.0,-,,1,1208,0,5,2,restaurant_22,2,memory-2step-stake-s,590,1665671,0.0-18.0-0.0-0.103,1333,7,8
104,2,object_07,object_03,643.0,4,2,248.0,0.3333333333333333,2,object_04,5,1223,0,5,3,forest_18,2,memory-2step-stake-s,591,1673436,0.0-18.0-0.0-0.104,1333,3,4
105,2,object_07,object_03,837.0,3,1,272.0,0.4444444444444444,1,object_01,5,1243,0,4,5,forest_15,2,memory-2step-stake-s,592,1681329,0.0-18.0-0.0-0.105,1333,3,4
106,1,object_10,object_08,659.0,1,1,304.0,0.2222222222222222,1,object_01,5,1253,0,2,2,desert_27,2,memory-2step-stake-s,593,1689049,0.0-18.0-0.0-0.106,1333,1,2
107,2,object_03,object_07,1224.0,3,2,568.0,0.5555555555555556,1,object_01,1,1258,0,5,1,forest_21,2,memory-2step-stake-s,594,1697337,0.0-18.0-0.0-0.107,1333,4,3
108,4,object_09,object_06,505.0,8,1,582.0,0.0,2,object_04,1,1258,0,6,0,restaurant_28,2,memory-2step-stake-s,595,1705135,0.0-18.0-0.0-0.108,1333,8,7
109,2,object_03,object_07,424.0,3,2,363.0,0.8888888888888888,1,object_01,5,1298,0,8,0,forest_28,2,memory-2step-stake-s,596,1713522,0.0-18.0-0.0-0.109,1333,4,3
110,4,object_06,object_09,1395.0,7,1,665.0,0.7777777777777778,1,object_01,1,1305,0,7,2,restaurant_15,2,memory-2step-stake-s,597,1722107,0.0-18.0-0.0-0.110,1333,7,8
111,4,object_09,object_06,629.0,8,1,477.0,0.3333333333333333,2,object_04,1,1308,0,6,3,restaurant_16,2,memory-2step-stake-s,598,1730103,0.0-18.0-0.0-0.111,1333,8,7
112,4,object_06,object_09,671.0,8,2,996.0,0.4444444444444444,2,object_04,1,1312,0,8,4,restaurant_29,2,memory-2step-stake-s,599,1738718,0.0-18.0-0.0-0.112,1333,7,8
113,1,object_08,object_10,588.0,2,1,558.0,0.4444444444444444,2,object_04,5,1332,0,7,4,desert_24,2,memory-2step-stake-s,600,1746895,0.0-18.0-0.0-0.113,1333,2,1
114,2,object_07,object_03,699.0,3,1,423.0,0.5555555555555556,1,object_01,1,1337,0,5,1,forest_27,2,memory-2step-stake-s,601,1755040,0.0-18.0-0.0-0.114,1333,3,4
115,1,object_08,object_10,974.0,2,1,459.0,0.3333333333333333,2,object_04,5,1352,0,3,3,desert_9,2,memory-2step-stake-s,602,1763016,0.0-18.0-0.0-0.115,1333,2,1
116,3,object_05,object_02,796.0,5,2,286.0,0.0,1,object_01,5,1352,0,0,0,library_10,2,memory-2step-stake-s,603,1770516,0.0-18.0-0.0-0.116,1333,6,5
117,3,object_02,object_05,526.0,5,1,305.0,0.2222222222222222,1,object_01,1,1354,0,2,3,library_27,2,memory-2step-stake-s,604,1778239,0.0-18.0-0.0-0.117,1333,5,6
118,1,object_08,object_10,653.0,2,1,677.0,0.3333333333333333,2,object_04,5,1369,0,1,3,desert_24,2,memory-2step-stake-s,605,1786434,0.0-18.0-0.0-0.118,1333,2,1
119,2,object_07,object_03,934.0,3,1,1031.0,0.1111111111111111,1,object_01,5,1374,0,1,3,forest_12,2,memory-2step-stake-s,606,1794778,0.0-18.0-0.0-0.119,1333,3,4
120,2,object_07,object_03,439.0,3,1,365.0,0.3333333333333333,1,object_01,5,1389,0,3,2,forest_1,2,memory-2step-stake-s,607,1802659,0.0-18.0-0.0-0.120,1333,3,4
121,4,object_09,object_06,1047.0,7,2,330.0,0.1111111111111111,1,object_01,1,1390,0,1,4,restaurant_29,2,memory-2step-stake-s,608,1810308,0.0-18.0-0.0-0.121,1333,8,7
122,1,object_08,object_10,1070.0,1,2,227.0,0.1111111111111111,1,object_01,5,1395,0,1,5,desert_29,2,memory-2step-stake-s,609,1817851,0.0-18.0-0.0-0.122,1333,2,1
123,2,object_03,object_07,957.0,3,2,418.0,0.2222222222222222,1,object_01,1,1397,0,2,6,forest_21,2,memory-2step-stake-s,610,1825685,0.0-18.0-0.0-0.123,1333,4,3
124,3,object_05,object_02,506.0,6,1,749.0,1.0,2,object_04,5,1442,0,2,9,library_13,2,memory-2step-stake-s,611,1834561,0.0-18.0-0.0-0.124,1333,6,5
125,1,object_08,object_10,612.0,2,1,324.0,0.8888888888888888,2,object_04,5,1482,0,0,8,desert_30,2,memory-2step-stake-s,612,1842904,0.0-18.0-0.0-0.125,1333,2,1
126,2,object_03,object_07,1062.0,3,2,320.0,0.2222222222222222,1,object_01,5,1492,0,2,8,forest_30,2,memory-2step-stake-s,613,1850643,0.0-18.0-0.0-0.126,1333,4,3
127,3,object_05,object_02,705.0,6,1,266.0,0.8888888888888888,2,object_04,1,1500,0,0,8,library_18,2,memory-2step-stake-s,614,1858934,0.0-18.0-0.0-0.127,1333,6,5
128,3,object_02,object_05,784.0,6,2,349.0,0.7777777777777778,2,object_04,1,1507,0,0,7,library_10,2,memory-2step-stake-s,616,2052693,0.0-18.0-0.1-0.128,1333,5,6
129,4,object_06,object_09,652.0,7,1,577.0,0.2222222222222222,1,object_01,1,1509,0,2,7,restaurant_9,2,memory-2step-stake-s,617,2060685,0.0-18.0-0.1-0.129,1333,7,8
130,1,object_10,object_08,1102.0,2,2,497.0,0.8888888888888888,2,object_04,5,1549,0,3,8,desert_22,2,memory-2step-stake-s,618,2069205,0.0-18.0-0.1-0.130,1333,1,2
131,1,object_08,object_10,581.0,2,1,-1.0,0.0,2,object_04,5,1549,0,3,7,desert_22,2,memory-2step-stake-s,619,2077723,0.0-18.0-0.1-0.131,1333,2,1
132,3,object_02,object_05,707.0,6,2,128.0,0.5555555555555556,2,object_04,1,1554,0,1,5,library_1,2,memory-2step-stake-s,620,2085573,0.0-18.0-0.1-0.132,1333,5,6
133,3,object_05,object_02,380.0,6,1,313.0,0.5555555555555556,2,object_04,1,1559,0,0,5,library_1,2,memory-2step-stake-s,621,2093608,0.0-18.0-0.1-0.133,1333,6,5
134,1,object_10,object_08,784.0,2,2,425.0,0.5555555555555556,2,object_04,5,1584,0,0,5,desert_12,2,memory-2step-stake-s,622,2101755,0.0-18.0-0.1-0.134,1333,1,2
135,2,object_07,object_03,722.0,3,1,842.0,0.1111111111111111,1,object_01,5,1589,0,1,4,forest_21,2,memory-2step-stake-s,623,2109912,0.0-18.0-0.1-0.135,1333,3,4
136,1,object_10,object_08,909.0,2,2,416.0,0.5555555555555556,2,object_04,5,1614,0,1,5,desert_12,2,memory-2step-stake-s,624,2118050,0.0-18.0-0.1-0.136,1333,1,2
137,3,object_05,object_02,1020.0,5,2,385.0,0.1111111111111111,1,object_01,1,1615,0,1,6,library_14,2,memory-2step-stake-s,625,2125748,0.0-18.0-0.1-0.137,1333,6,5
138,4,object_06,object_09,634.0,8,2,384.0,0.7777777777777778,2,object_04,1,1622,0,3,7,restaurant_29,2,memory-2step-stake-s,626,2134055,0.0-18.0-0.1-0.138,1333,7,8
139,4,object_06,object_09,909.0,7,1,290.0,0.4444444444444444,1,object_01,1,1626,0,4,5,restaurant_16,2,memory-2step-stake-s,627,2141966,0.0-18.0-0.1-0.139,1333,7,8
140,3,object_02,object_05,797.0,6,2,486.0,0.2222222222222222,2,object_04,1,1628,0,2,2,library_6,2,memory-2step-stake-s,628,2149870,0.0-18.0-0.1-0.140,1333,5,6
141,2,object_03,object_07,647.0,3,2,162.0,0.2222222222222222,1,object_01,5,1638,0,2,2,forest_7,2,memory-2step-stake-s,629,2157449,0.0-18.0-0.1-0.141,1333,4,3
142,3,object_02,object_05,366.0,6,2,356.0,0.0,2,object_04,1,1638,0,1,0,library_11,2,memory-2step-stake-s,630,2165022,0.0-18.0-0.1-0.142,1333,5,6
143,1,object_10,object_08,893.0,1,1,229.0,0.4444444444444444,1,object_01,5,1658,0,4,1,desert_19,2,memory-2step-stake-s,631,2172870,0.0-18.0-0.1-0.143,1333,1,2
144,2,object_03,object_07,999.0,3,2,179.0,0.5555555555555556,1,object_01,5,1683,0,5,1,forest_20,2,memory-2step-stake-s,632,2180769,0.0-18.0-0.1-0.144,1333,4,3
145,3,object_02,object_05,729.0,6,2,343.0,0.0,2,object_04,1,1683,0,4,0,library_29,2,memory-2step-stake-s,633,2188325,0.0-18.0-0.1-0.145,1333,5,6
146,3,object_05,object_02,759.0,6,1,230.0,0.0,2,object_04,1,1683,0,6,0,library_10,2,memory-2step-stake-s,634,2195772,0.0-18.0-0.1-0.146,1333,6,5
147,4,object_09,object_06,524.0,8,1,491.0,0.2222222222222222,2,object_04,1,1685,0,8,2,restaurant_26,2,memory-2step-stake-s,635,2203680,0.0-18.0-0.1-0.147,1333,8,7
148,1,object_10,object_08,649.0,1,1,324.0,0.5555555555555556,1,object_01,5,1710,0,5,2,desert_19,2,memory-2step-stake-s,636,2211720,0.0-18.0-0.1-0.148,1333,1,2
149,2,object_03,object_07,566.0,3,2,451.0,0.8888888888888888,1,object_01,5,1750,0,8,1,forest_8,2,memory-2step-stake-s,637,2220195,0.0-18.0-0.1-0.149,1333,4,3
150,1,object_10,object_08,991.0,2,2,309.0,0.1111111111111111,2,object_04,5,1755,0,6,1,desert_12,2,memory-2step-stake-s,638,2227817,0.0-18.0-0.1-0.150,1333,1,2
151,2,object_03,object_07,1155.0,4,1,335.0,0.3333333333333333,2,object_04,1,1758,0,4,3,forest_21,2,memory-2step-stake-s,639,2235669,0.0-18.0-0.1-0.151,1333,4,3
152,1,object_08,object_10,491.0,2,1,297.0,0.3333333333333333,2,object_04,1,1761,0,4,3,desert_28,2,memory-2step-stake-s,640,2243487,0.0-18.0-0.1-0.152,1333,2,1
153,2,object_07,object_03,613.0,3,1,327.0,0.2222222222222222,1,object_01,5,1771,0,2,4,forest_3,2,memory-2step-stake-s,641,2251230,0.0-18.0-0.1-0.153,1333,3,4
154,1,object_08,object_10,834.0,2,1,335.0,0.0,2,object_04,5,1771,0,1,0,desert_20,2,memory-2step-stake-s,642,2258778,0.0-18.0-0.1-0.154,1333,2,1
155,4,object_09,object_06,679.0,7,2,561.0,0.0,1,object_01,5,1771,0,0,1,restaurant_22,2,memory-2step-stake-s,643,2266553,0.0-18.0-0.1-0.155,1333,8,7
156,3,object_02,object_05,1124.0,6,2,520.0,0.2222222222222222,2,object_04,1,1773,0,0,2,library_13,2,memory-2step-stake-s,644,2274488,0.0-18.0-0.1-0.156,1333,5,6
157,2,object_03,object_07,978.0,3,2,506.0,0.1111111111111111,1,object_01,5,1778,0,1,6,forest_3,2,memory-2step-stake-s,645,2282310,0.0-18.0-0.1-0.157,1333,4,3
158,1,object_08,object_10,635.0,2,1,467.0,0.2222222222222222,2,object_04,5,1788,0,4,2,desert_17,2,memory-2step-stake-s,646,2290191,0.0-18.0-0.1-0.158,1333,2,1
159,1,object_10,object_08,716.0,2,2,470.0,0.1111111111111111,2,object_04,5,1793,0,2,1,desert_28,2,memory-2step-stake-s,647,2297975,0.0-18.0-0.1-0.159,1333,1,2
160,1,object_08,object_10,621.0,2,1,304.0,0.2222222222222222,2,object_04,1,1795,0,2,2,desert_25,2,memory-2step-stake-s,648,2305696,0.0-18.0-0.1-0.160,1333,2,1
161,4,object_06,object_09,250.0,8,2,323.0,0.0,2,object_04,1,1795,0,0,0,restaurant_32,2,memory-2step-stake-s,649,2313231,0.0-18.0-0.1-0.161,1333,7,8
162,3,object_05,object_02,817.0,5,2,244.0,0.5555555555555556,1,object_01,5,1820,0,5,4,library_26,2,memory-2step-stake-s,650,2321193,0.0-18.0-0.1-0.162,1333,6,5
163,1,object_08,object_10,616.0,1,2,322.0,0.6666666666666666,1,object_01,5,1850,0,6,4,desert_22,2,memory-2step-stake-s,651,2329340,0.0-18.0-0.1-0.163,1333,2,1
164,3,object_05,object_02,539.0,5,2,441.0,1.0,1,object_01,1,1859,0,9,4,library_21,2,memory-2step-stake-s,652,2337904,0.0-18.0-0.1-0.164,1333,6,5
165,3,object_05,object_02,439.0,5,2,198.0,1.0,1,object_01,1,1868,0,9,2,library_25,2,memory-2step-stake-s,653,2346228,0.0-18.0-0.1-0.165,1333,6,5
166,2,object_03,object_07,489.0,3,2,282.0,0.8888888888888888,1,object_01,5,1908,0,8,4,forest_18,2,memory-2step-stake-s,654,2354540,0.0-18.0-0.1-0.166,1333,4,3
167,1,object_08,object_10,446.0,1,2,332.0,0.5555555555555556,1,object_01,1,1913,0,5,5,desert_27,2,memory-2step-stake-s,655,2362594,0.0-18.0-0.1-0.167,1333,2,1
168,2,object_03,object_07,726.0,3,2,243.0,0.4444444444444444,1,object_01,1,1917,0,4,2,forest_7,2,memory-2step-stake-s,656,2370455,0.0-18.0-0.1-0.168,1333,4,3
169,1,object_10,object_08,1085.0,2,2,325.0,0.1111111111111111,2,object_04,5,1922,0,6,1,desert_13,2,memory-2step-stake-s,657,2378095,0.0-18.0-0.1-0.169,1333,1,2
170,4,object_06,object_09,658.0,7,1,451.0,0.8888888888888888,1,object_01,1,1930,0,8,3,restaurant_1,2,memory-2step-stake-s,658,2386570,0.0-18.0-0.1-0.170,1333,7,8
171,1,object_08,object_10,815.0,2,1,273.0,0.4444444444444444,2,object_04,5,1950,0,7,4,desert_8,2,memory-2step-stake-s,659,2394467,0.0-18.0-0.1-0.171,1333,2,1
172,3,object_02,object_05,778.0,5,1,11.0,1.0,1,object_01,5,1995,0,9,5,library_14,2,memory-2step-stake-s,660,2402605,0.0-18.0-0.1-0.172,1333,5,6
173,4,object_09,object_06,617.0,7,2,504.0,1.0,1,object_01,1,2004,0,9,5,restaurant_32,2,memory-2step-stake-s,661,2411234,0.0-18.0-0.1-0.173,1333,8,7
174,3,object_02,object_05,1086.0,5,1,287.0,0.6666666666666666,1,object_01,5,2034,0,6,5,library_22,2,memory-2step-stake-s,662,2419345,0.0-18.0-0.1-0.174,1333,5,6
175,3,object_02,object_05,507.0,5,1,181.0,0.8888888888888888,1,object_01,1,2042,0,8,5,library_25,2,memory-2step-stake-s,663,2427551,0.0-18.0-0.1-0.175,1333,5,6
176,4,object_06,object_09,538.0,7,1,303.0,0.8888888888888888,1,object_01,5,2082,0,8,4,restaurant_26,2,memory-2step-stake-s,664,2435875,0.0-18.0-0.1-0.176,1333,7,8
177,2,object_07,object_03,538.0,3,1,65.0,0.8888888888888888,1,object_01,1,2090,0,8,5,forest_8,2,memory-2step-stake-s,665,2443967,0.0-18.0-0.1-0.177,1333,3,4
178,4,object_06,object_09,527.0,7,1,366.0,0.8888888888888888,1,object_01,1,2098,0,8,5,restaurant_26,2,memory-2step-stake-s,666,2452361,0.0-18.0-0.1-0.178,1333,7,8
179,2,object_03,object_07,685.0,3,2,657.0,0.6666666666666666,1,object_01,5,2128,0,6,4,forest_18,2,memory-2step-stake-s,667,2460841,0.0-18.0-0.1-0.179,1333,4,3
180,1,object_08,object_10,594.0,1,2,407.0,0.3333333333333333,1,object_01,5,2143,0,3,1,desert_29,2,memory-2step-stake-s,668,2468763,0.0-18.0-0.1-0.180,1333,2,1
181,3,object_05,object_02,449.0,5,2,316.0,0.2222222222222222,1,object_01,5,2153,0,2,4,library_29,2,memory-2step-stake-s,669,2476497,0.0-18.0-0.1-0.181,1333,6,5
182,1,object_08,object_10,724.0,2,1,260.0,0.6666666666666666,2,object_04,5,2183,0,0,6,desert_30,2,memory-2step-stake-s,670,2484582,0.0-18.0-0.1-0.182,1333,2,1
183,1,object_08,object_10,662.0,2,1,390.0,1.0,2,object_04,5,2228,0,0,9,desert_25,2,memory-2step-stake-s,671,2493097,0.0-18.0-0.1-0.183,1333,2,1
184,2,object_03,object_07,718.0,4,1,289.0,1.0,2,object_04,5,2273,0,0,9,forest_7,2,memory-2step-stake-s,672,2501512,0.0-18.0-0.1-0.184,1333,4,3
185,1,object_08,object_10,1063.0,2,1,556.0,0.7777777777777778,2,object_04,5,2308,0,0,7,desert_24,2,memory-2step-stake-s,673,2509992,0.0-18.0-0.1-0.185,1333,2,1
186,3,object_05,object_02,759.0,6,1,323.0,0.6666666666666666,2,object_04,5,2338,0,1,6,library_6,2,memory-2step-stake-s,674,2518138,0.0-18.0-0.1-0.186,1333,6,5
187,3,object_05,object_02,707.0,6,1,337.0,1.0,2,object_04,1,2347,0,2,9,library_3,2,memory-2step-stake-s,675,2526605,0.0-18.0-0.1-0.187,1333,6,5
188,4,object_09,object_06,1416.0,8,1,740.0,0.8888888888888888,2,object_04,5,2387,0,4,8,restaurant_30,2,memory-2step-stake-s,676,2535368,0.0-18.0-0.1-0.188,1333,8,7
189,4,object_09,object_06,455.0,8,1,368.0,0.8888888888888888,2,object_04,1,2395,0,7,8,restaurant_2,2,memory-2step-stake-s,677,2543760,0.0-18.0-0.1-0.189,1333,8,7
190,3,object_02,object_05,914.0,5,1,321.0,0.8888888888888888,1,object_01,1,2403,0,8,8,library_21,2,memory-2step-stake-s,678,2552111,0.0-18.0-0.1-0.190,1333,5,6
191,3,object_05,object_02,422.0,5,2,1048.0,1.0,1,object_01,1,2412,0,9,6,library_26,2,memory-2step-stake-s,679,2561284,0.0-18.0-0.1-0.191,1333,6,5
192,1,object_08,object_10,692.0,1,2,256.0,0.6666666666666666,1,object_01,1,2418,0,6,4,desert_8,2,memory-2step-stake-s,680,2569361,0.0-18.0-0.1-0.192,1333,2,1
193,2,object_07,object_03,747.0,3,1,366.0,0.7777777777777778,1,object_01,5,2453,0,7,5,forest_27,2,memory-2step-stake-s,681,2577654,0.0-18.0-0.1-0.193,1333,3,4
194,2,object_03,object_07,502.0,3,2,371.0,0.8888888888888888,1,object_01,1,2461,0,8,4,forest_6,2,memory-2step-stake-s,682,2586052,0.0-18.0-0.1-0.194,1333,4,3
195,3,object_02,object_05,789.0,5,1,349.0,0.6666666666666666,1,object_01,1,2467,0,6,6,library_22,2,memory-2step-stake-s,683,2594226,0.0-18.0-0.1-0.195,1333,5,6
196,4,object_06,object_09,841.0,7,1,253.0,0.6666666666666666,1,object_01,5,2497,0,6,4,restaurant_4,2,memory-2step-stake-s,684,2602301,0.0-18.0-0.1-0.196,1333,7,8
197,3,object_02,object_05,633.0,5,1,90.0,0.5555555555555556,1,object_01,5,2522,0,5,2,library_13,2,memory-2step-stake-s,685,2610110,0.0-18.0-0.1-0.197,1333,5,6
198,1,object_10,object_08,963.0,1,1,319.0,0.6666666666666666,1,object_01,5,2552,0,6,2,desert_30,2,memory-2step-stake-s,686,2618250,0.0-18.0-0.1-0.198,1333,1,2
199,2,object_03,object_07,564.0,3,2,313.0,0.4444444444444444,1,object_01,5,2572,0,4,2,forest_14,2,memory-2step-stake-s,687,2626186,0.0-18.0-0.1-0.199,1333,4,3
200,4,object_09,object_06,566.0,7,2,308.0,0.5555555555555556,1,object_01,1,2577,0,5,1,restaurant_9,2,memory-2step-stake-s,688,2634215,0.0-18.0-0.1-0.200,1333,8,7
201,4,object_09,object_06,557.0,7,2,341.0,0.4444444444444444,1,object_01,1,2581,0,4,0,restaurant_31,2,memory-2step-stake-s,689,2642173,0.0-18.0-0.1-0.201,1333,8,7
202,3,object_05,object_02,540.0,5,2,566.0,1.0,1,object_01,1,2590,0,9,1,library_22,2,memory-2step-stake-s,690,2650870,0.0-18.0-0.1-0.202,1333,6,5
203,2,object_03,object_07,470.0,3,2,440.0,0.7777777777777778,1,object_01,5,2625,0,7,2,forest_30,2,memory-2step-stake-s,691,2659233,0.0-18.0-0.1-0.203,1333,4,3
204,3,object_05,object_02,631.0,5,2,586.0,0.7777777777777778,1,object_01,5,2660,0,7,2,library_3,2,memory-2step-stake-s,692,2667744,0.0-18.0-0.1-0.204,1333,6,5
205,4,object_06,object_09,715.0,7,1,600.0,0.8888888888888888,1,object_01,5,2700,0,8,2,restaurant_4,2,memory-2step-stake-s,693,2676366,0.0-18.0-0.1-0.205,1333,7,8
206,4,object_09,object_06,739.0,7,2,521.0,0.8888888888888888,1,object_01,1,2708,0,8,0,restaurant_15,2,memory-2step-stake-s,694,2684913,0.0-18.0-0.1-0.206,1333,8,7
207,1,object_08,object_10,1108.0,1,2,440.0,0.5555555555555556,1,object_01,5,2733,0,5,2,desert_14,2,memory-2step-stake-s,695,2693077,0.0-18.0-0.1-0.207,1333,2,1
208,1,object_08,object_10,669.0,1,2,491.0,0.6666666666666666,1,object_01,5,2763,0,6,2,desert_24,2,memory-2step-stake-s,696,2701392,0.0-18.0-0.1-0.208,1333,2,1
209,2,object_03,object_07,865.0,3,2,474.0,0.6666666666666666,1,object_01,1,2769,0,6,3,forest_1,2,memory-2step-stake-s,697,2709688,0.0-18.0-0.1-0.209,1333,4,3
210,3,object_05,object_02,494.0,5,2,317.0,0.6666666666666666,1,object_01,5,2799,0,6,1,library_27,2,memory-2step-stake-s,698,2717828,0.0-18.0-0.1-0.210,1333,6,5
211,2,object_07,object_03,528.0,3,1,88.0,0.5555555555555556,1,object_01,5,2824,0,5,1,forest_12,2,memory-2step-stake-s,699,2725635,0.0-18.0-0.1-0.211,1333,3,4
212,3,object_05,object_02,640.0,5,2,500.0,0.7777777777777778,1,object_01,1,2831,0,7,0,library_25,2,memory-2step-stake-s,700,2734059,0.0-18.0-0.1-0.212,1333,6,5
213,2,object_03,object_07,997.0,3,2,371.0,0.3333333333333333,1,object_01,5,2846,0,3,3,forest_28,2,memory-2step-stake-s,701,2741952,0.0-18.0-0.1-0.213,1333,4,3
214,2,object_03,object_07,326.0,4,1,296.0,0.2222222222222222,2,object_04,5,2856,0,4,2,forest_28,2,memory-2step-stake-s,702,2749666,0.0-18.0-0.1-0.214,1333,4,3
215,4,object_06,object_09,737.0,8,2,289.0,0.1111111111111111,2,object_04,5,2861,0,3,1,restaurant_31,2,memory-2step-stake-s,703,2757269,0.0-18.0-0.1-0.215,1333,7,8
216,2,object_07,object_03,675.0,3,1,454.0,0.3333333333333333,1,object_01,5,2876,0,3,0,forest_3,2,memory-2step-stake-s,704,2765243,0.0-18.0-0.1-0.216,1333,3,4
217,2,object_07,object_03,768.0,3,1,1074.0,0.6666666666666666,1,object_01,5,2906,0,6,2,forest_15,2,memory-2step-stake-s,705,2774141,0.0-18.0-0.1-0.217,1333,3,4
218,4,object_06,object_09,900.0,7,1,653.0,0.8888888888888888,1,object_01,1,2914,0,8,3,restaurant_15,2,memory-2step-stake-s,706,2782817,0.0-18.0-0.1-0.218,1333,7,8
219,1,object_10,object_08,778.0,1,1,443.0,0.6666666666666666,1,object_01,5,2944,0,6,4,desert_17,2,memory-2step-stake-s,707,2791086,0.0-18.0-0.1-0.219,1333,1,2
220,1,object_08,object_10,812.0,1,2,414.0,0.5555555555555556,1,object_01,5,2969,0,5,8,desert_19,2,memory-2step-stake-s,708,2799220,0.0-18.0-0.1-0.220,1333,2,1
221,1,object_08,object_10,846.0,1,2,713.0,0.8888888888888888,1,object_01,5,3009,0,8,9,desert_7,2,memory-2step-stake-s,709,2807958,0.0-18.0-0.1-0.221,1333,2,1
222,4,object_06,object_09,576.0,7,1,1208.0,0.7777777777777778,1,object_01,1,3016,0,7,8,restaurant_28,2,memory-2step-stake-s,710,2817091,0.0-18.0-0.1-0.222,1333,7,8
223,3,object_02,object_05,663.0,5,1,570.0,0.6666666666666666,1,object_01,1,3022,0,6,5,library_3,2,memory-2step-stake-s,711,2825486,0.0-18.0-0.1-0.223,1333,5,6
224,1,object_10,object_08,632.0,1,1,398.0,0.7777777777777778,1,object_01,1,3029,0,7,1,desert_28,2,memory-2step-stake-s,712,2833807,0.0-18.0-0.1-0.224,1333,1,2
225,2,object_07,object_03,666.0,3,1,611.0,0.7777777777777778,1,object_01,5,3064,0,7,1,forest_3,2,memory-2step-stake-s,713,2842342,0.0-18.0-0.1-0.225,1333,3,4
226,1,object_08,object_10,-1.0,-1,-1,-1.0,0.0,-,,5,3064,0,7,1,desert_17,2,memory-2step-stake-s,714,2848852,0.0-18.0-0.1-0.226,1333,2,1
227,1,object_10,object_08,694.0,1,1,517.0,0.5555555555555556,1,object_01,5,3089,0,5,0,desert_20,2,memory-2step-stake-s,715,2857093,0.0-18.0-0.1-0.227,1333,1,2
228,2,object_03,object_07,492.0,3,2,449.0,0.5555555555555556,1,object_01,5,3114,0,5,3,forest_29,2,memory-2step-stake-s,716,2865263,0.0-18.0-0.1-0.228,1333,4,3
229,4,object_09,object_06,574.0,7,2,504.0,0.4444444444444444,1,object_01,1,3118,0,4,3,restaurant_17,2,memory-2step-stake-s,717,2873386,0.0-18.0-0.1-0.229,1333,8,7
230,3,object_02,object_05,888.0,5,1,457.0,0.4444444444444444,1,object_01,1,3122,0,4,1,library_13,2,memory-2step-stake-s,718,2881465,0.0-18.0-0.1-0.230,1333,5,6
231,4,object_09,object_06,575.0,7,2,313.0,0.4444444444444444,1,object_01,1,3126,0,4,2,restaurant_9,2,memory-2step-stake-s,719,2889397,0.0-18.0-0.1-0.231,1333,8,7
232,4,object_06,object_09,669.0,7,1,279.0,0.3333333333333333,1,object_01,1,3129,0,3,1,restaurant_17,2,memory-2step-stake-s,720,2897195,0.0-18.0-0.1-0.232,1333,7,8
233,2,object_07,object_03,424.0,3,1,839.0,0.2222222222222222,1,object_01,1,3131,0,2,1,forest_8,2,memory-2step-stake-s,721,2905452,0.0-18.0-0.1-0.233,1333,3,4
234,2,object_07,object_03,462.0,4,2,262.0,0.3333333333333333,2,object_04,5,3146,0,2,3,forest_19,2,memory-2step-stake-s,722,2913232,0.0-18.0-0.1-0.234,1333,3,4
235,4,object_09,object_06,839.0,8,1,274.0,0.3333333333333333,2,object_04,1,3149,0,3,3,restaurant_2,2,memory-2step-stake-s,723,2921023,0.0-18.0-0.1-0.235,1333,8,7
236,3,object_05,object_02,432.0,5,2,425.0,0.3333333333333333,1,object_01,1,3152,0,3,4,library_1,2,memory-2step-stake-s,724,2928969,0.0-18.0-0.1-0.236,1333,6,5
237,3,object_02,object_05,731.0,6,2,451.0,0.5555555555555556,2,object_04,5,3177,0,2,5,library_18,2,memory-2step-stake-s,725,2937141,0.0-18.0-0.1-0.237,1333,5,6
238,4,object_09,object_06,623.0,8,1,625.0,0.5555555555555556,2,object_04,1,3182,0,4,5,restaurant_2,2,memory-2step-stake-s,726,2945488,0.0-18.0-0.1-0.238,1333,8,7
239,1,object_10,object_08,723.0,1,1,370.0,0.3333333333333333,1,object_01,5,3197,0,3,5,desert_9,2,memory-2step-stake-s,727,2953378,0.0-18.0-0.1-0.239,1333,1,2
240,4,object_09,object_06,462.0,8,1,287.0,0.5555555555555556,2,object_04,1,3202,0,0,5,restaurant_28,2,memory-2step-stake-s,728,2961384,0.0-18.0-0.1-0.240,1333,8,7
241,4,object_09,object_06,522.0,8,1,510.0,0.6666666666666666,2,object_04,5,3232,0,1,6,restaurant_1,2,memory-2step-stake-s,729,2969716,0.0-18.0-0.1-0.241,1333,8,7
242,4,object_06,object_09,773.0,8,2,384.0,0.6666666666666666,2,object_04,1,3238,0,4,6,restaurant_30,2,memory-2step-stake-s,730,2977923,0.0-18.0-0.1-0.242,1333,7,8
243,3,object_05,object_02,555.0,6,1,552.0,0.7777777777777778,2,object_04,1,3245,0,2,7,library_27,2,memory-2step-stake-s,731,2986399,0.0-18.0-0.1-0.243,1333,6,5
244,1,object_08,object_10,653.0,2,1,543.0,1.0,2,object_04,5,3290,0,4,9,desert_25,2,memory-2step-stake-s,732,2995073,0.0-18.0-0.1-0.244,1333,2,1
245,2,object_07,object_03,538.0,3,1,302.0,1.0,1,object_01,5,3335,0,9,9,forest_30,2,memory-2step-stake-s,733,3003502,0.0-18.0-0.1-0.245,1333,3,4
246,2,object_03,object_07,728.0,4,1,83.0,1.0,2,object_04,1,3344,0,6,9,forest_20,2,memory-2step-stake-s,734,3011713,0.0-18.0-0.1-0.246,1333,4,3
247,4,object_09,object_06,751.0,7,2,279.0,0.3333333333333333,1,object_01,1,3347,0,3,9,restaurant_29,2,memory-2step-stake-s,735,3019512,0.0-18.0-0.1-0.247,1333,8,7
248,2,object_07,object_03,470.0,4,2,101.0,0.8888888888888888,2,object_04,5,3387,0,2,8,forest_6,2,memory-2step-stake-s,736,3027640,0.0-18.0-0.1-0.248,1333,3,4
249,4,object_09,object_06,505.0,7,2,381.0,0.3333333333333333,1,object_01,1,3390,0,3,7,restaurant_28,2,memory-2step-stake-s,737,3035541,0.0-18.0-0.1-0.249,1333,8,7
250,3,object_05,object_02,449.0,6,1,81.0,0.8888888888888888,2,object_04,1,3398,0,1,8,library_12,2,memory-2step-stake-s,738,3043648,0.0-18.0-0.1-0.250,1333,6,5
251,3,object_05,object_02,547.0,6,1,658.0,0.4444444444444444,2,object_04,1,3402,0,2,4,library_26,2,memory-2step-stake-s,739,3051926,0.0-18.0-0.1-0.251,1333,6,5
252,3,object_05,object_02,753.0,6,1,237.0,0.2222222222222222,2,object_04,1,3404,0,2,2,library_12,2,memory-2step-stake-s,740,3059580,0.0-18.0-0.1-0.252,1333,6,5
253,1,object_08,object_10,453.0,1,2,578.0,0.2222222222222222,1,object_01,1,3406,0,2,5,desert_28,2,memory-2step-stake-s,741,3067578,0.0-18.0-0.1-0.253,1333,2,1
254,3,object_05,object_02,445.0,5,2,71.0,0.1111111111111111,1,object_01,5,3411,0,1,3,library_29,2,memory-2step-stake-s,742,3074965,0.0-18.0-0.1-0.254,1333,6,5
255,4,object_06,object_09,691.0,8,2,240.0,0.5555555555555556,2,object_04,1,3416,0,1,5,restaurant_4,2,memory-2step-stake-s,743,3082924,0.0-18.0-0.1-0.255,1333,7,8
