,state1,stim_left,stim_right,rt_1,choice1,response1,rt_2,points,state2,stim_state2,stake,score,practice,rews1,rews2,background,high_arm,trial_type,trial_index,time_elapsed,internal_node_id,subid,stim_left_num,stim_right_num
0,1,object_07,object_10,1205.2,1,1,-1.0,0.0,1,object_09,5,0,0,4,1,desert_31,2,memory-2step-stake-s,495,1066080,0.0-18.0-0.0-0.0,4390,1,2
1,4,object_04,object_02,761.4,8,1,1308.77,0.4444444444444444,2,object_03,1,4,0,6,4,restaurant_30,2,memory-2step-stake-s,496,1075044,0.0-18.0-0.0-0.1,4390,8,7
2,1,object_10,object_07,574.735,1,2,526.66,0.6666666666666666,1,object_09,1,10,0,6,6,desert_12,2,memory-2step-stake-s,497,1083423,0.0-18.0-0.0-0.2,4390,2,1
3,2,object_05,object_08,618.2200001,3,1,669.5300001,0.6666666666666666,1,object_09,5,40,0,6,7,forest_25,2,memory-2step-stake-s,498,1091942,0.0-18.0-0.0-0.3,4390,3,4
4,2,object_08,object_05,922.29,4,1,1142.07,1.0,2,object_03,5,85,0,6,9,forest_23,2,memory-2step-stake-s,499,1101251,0.0-18.0-0.0-0.4,4390,4,3
5,1,object_10,object_07,909.47,1,2,694.49,0.7777777777777778,1,object_09,5,120,0,7,5,desert_4,2,memory-2step-stake-s,500,1109891,0.0-18.0-0.0-0.5,4390,2,1
6,2,object_05,object_08,772.455,4,2,533.8099999,0.3333333333333333,2,object_03,5,135,0,8,3,forest_15,2,memory-2step-stake-s,501,1117967,0.0-18.0-0.0-0.6,4390,3,4
7,3,object_01,object_06,925.125,6,1,622.32,0.3333333333333333,2,object_03,1,138,0,8,3,library_21,2,memory-2step-stake-s,502,1126133,0.0-18.0-0.0-0.7,4390,6,5
8,3,object_06,object_01,932.665,6,2,771.8750001,0.3333333333333333,2,object_03,1,141,0,9,3,library_31,2,memory-2step-stake-s,503,1134444,0.0-18.0-0.0-0.8,4390,5,6
9,2,object_08,object_05,690.0650001,3,2,499.89,0.8888888888888888,1,object_09,1,149,0,8,3,forest_19,2,memory-2step-stake-s,504,1142993,0.0-18.0-0.0-0.9,4390,4,3
10,3,object_01,object_06,853.17,5,2,669.7,0.8888888888888888,1,object_09,1,157,0,8,3,library_4,2,memory-2step-stake-s,505,1151715,0.0-18.0-0.0-0.10,4390,6,5
11,1,object_07,object_10,1117.215,1,1,491.6600001,0.8888888888888888,1,object_09,5,197,0,8,3,desert_18,2,memory-2step-stake-s,506,1160267,0.0-18.0-0.0-0.11,4390,1,2
12,4,object_02,object_04,921.4849998999999,8,2,468.32499989999997,0.2222222222222222,2,object_03,1,199,0,8,2,restaurant_19,2,memory-2step-stake-s,507,1168167,0.0-18.0-0.0-0.12,4390,7,8
13,4,object_04,object_02,1169.17,7,2,684.945,0.4444444444444444,1,object_09,1,203,0,4,5,restaurant_16,2,memory-2step-stake-s,508,1176504,0.0-18.0-0.0-0.13,4390,8,7
14,3,object_01,object_06,958.4949999,5,2,668.1850001,0.4444444444444444,1,object_09,1,207,0,4,6,library_28,2,memory-2step-stake-s,509,1184821,0.0-18.0-0.0-0.14,4390,6,5
15,1,object_10,object_07,1414.595,2,1,480.995,0.7777777777777778,2,object_03,5,242,0,3,7,desert_9,2,memory-2step-stake-s,510,1193248,0.0-18.0-0.0-0.15,4390,2,1
16,2,object_08,object_05,836.1849999,3,2,500.125,0.3333333333333333,1,object_09,1,245,0,3,6,forest_23,2,memory-2step-stake-s,511,1201285,0.0-18.0-0.0-0.16,4390,4,3
17,4,object_02,object_04,-1.0,-1,-1,-1.0,0.0,-,,1,245,0,4,7,restaurant_2,2,memory-2step-stake-s,512,1207807,0.0-18.0-0.0-0.17,4390,7,8
18,2,object_08,object_05,753.215,3,2,465.85500010000004,0.4444444444444444,1,object_09,5,265,0,4,7,forest_3,2,memory-2step-stake-s,513,1215923,0.0-18.0-0.0-0.18,4390,4,3
19,4,object_04,object_02,602.6,8,1,565.815,0.7777777777777778,2,object_03,1,272,0,3,7,restaurant_21,2,memory-2step-stake-s,514,1224441,0.0-18.0-0.0-0.19,4390,8,7
20,4,object_04,object_02,581.515,7,2,484.875,0.1111111111111111,1,object_09,1,273,0,1,7,restaurant_7,2,memory-2step-stake-s,515,1232260,0.0-18.0-0.0-0.20,4390,8,7
21,3,object_01,object_06,1141.765,5,2,485.04000010000004,0.0,1,object_09,1,273,0,0,2,library_1,2,memory-2step-stake-s,516,1239979,0.0-18.0-0.0-0.21,4390,6,5
22,1,object_10,object_07,968.135,2,1,648.81,0.3333333333333333,2,object_03,5,288,0,0,3,desert_31,2,memory-2step-stake-s,517,1248176,0.0-18.0-0.0-0.22,4390,2,1
23,1,object_07,object_10,1059.315,1,1,570.945,0.1111111111111111,1,object_09,5,293,0,1,3,desert_18,2,memory-2step-stake-s,518,1256088,0.0-18.0-0.0-0.23,4390,1,2
24,2,object_08,object_05,960.055,4,1,501.695,0.3333333333333333,2,object_03,5,308,0,0,3,forest_1,2,memory-2step-stake-s,519,1264129,0.0-18.0-0.0-0.24,4390,4,3
25,4,object_04,object_02,742.23,7,2,533.885,0.2222222222222222,1,object_09,5,318,0,2,3,restaurant_32,2,memory-2step-stake-s,520,1272100,0.0-18.0-0.0-0.25,4390,8,7
26,1,object_10,object_07,1178.29,2,1,360.5299999,0.1111111111111111,2,object_03,5,323,0,3,1,desert_17,2,memory-2step-stake-s,521,1279786,0.0-18.0-0.0-0.26,4390,2,1
27,2,object_05,object_08,885.4949999,3,1,416.97,0.1111111111111111,1,object_09,5,328,0,1,4,forest_3,2,memory-2step-stake-s,522,1287548,0.0-18.0-0.0-0.27,4390,3,4
28,1,object_07,object_10,672.735,2,2,380.9400001,0.5555555555555556,2,object_03,1,333,0,0,5,desert_7,2,memory-2step-stake-s,523,1295683,0.0-18.0-0.0-0.28,4390,1,2
29,2,object_05,object_08,906.75,4,2,581.155,0.1111111111111111,2,object_03,1,334,0,3,1,forest_20,2,memory-2step-stake-s,524,1303604,0.0-18.0-0.0-0.29,4390,3,4
30,2,object_08,object_05,1334.23,3,2,603.72,0.2222222222222222,1,object_09,5,344,0,2,2,forest_20,2,memory-2step-stake-s,525,1311635,0.0-18.0-0.0-0.30,4390,4,3
31,3,object_01,object_06,1445.0,6,1,687.1049998999999,0.1111111111111111,2,object_03,1,345,0,2,1,library_7,2,memory-2step-stake-s,526,1319657,0.0-18.0-0.0-0.31,4390,6,5
32,2,object_08,object_05,878.545,3,2,363.305,0.2222222222222222,1,object_09,5,355,0,2,0,forest_4,2,memory-2step-stake-s,527,1327449,0.0-18.0-0.0-0.32,4390,4,3
33,2,object_05,object_08,981.175,4,2,375.29,0.2222222222222222,2,object_03,5,365,0,1,2,forest_1,2,memory-2step-stake-s,528,1335268,0.0-18.0-0.0-0.33,4390,3,4
34,3,object_01,object_06,523.1400001000001,5,2,482.07,0.2222222222222222,1,object_09,1,367,0,2,0,library_28,2,memory-2step-stake-s,529,1343190,0.0-18.0-0.0-0.34,4390,6,5
35,2,object_05,object_08,572.6749999,4,2,414.335,0.2222222222222222,2,object_03,5,377,0,0,2,forest_9,2,memory-2step-stake-s,530,1351051,0.0-18.0-0.0-0.35,4390,3,4
36,2,object_05,object_08,576.03,3,1,871.76,0.2222222222222222,1,object_09,5,387,0,2,5,forest_7,2,memory-2step-stake-s,531,1359370,0.0-18.0-0.0-0.36,4390,3,4
37,3,object_01,object_06,792.1750001,5,2,961.305,0.1111111111111111,1,object_09,1,388,0,1,3,library_11,2,memory-2step-stake-s,532,1367657,0.0-18.0-0.0-0.37,4390,6,5
38,2,object_08,object_05,970.54,4,1,753.67,0.2222222222222222,2,object_03,5,398,0,0,2,forest_22,2,memory-2step-stake-s,533,1375854,0.0-18.0-0.0-0.38,4390,4,3
39,4,object_04,object_02,759.85,7,2,1092.21,0.2222222222222222,1,object_09,5,408,0,2,6,restaurant_14,2,memory-2step-stake-s,534,1384393,0.0-18.0-0.0-0.39,4390,8,7
40,3,object_06,object_01,1071.54,5,1,788.42,0.2222222222222222,1,object_09,1,410,0,2,7,library_31,2,memory-2step-stake-s,535,1392626,0.0-18.0-0.0-0.40,4390,5,6
41,1,object_10,object_07,868.11,2,1,610.1149998999999,0.2222222222222222,2,object_03,5,420,0,4,2,desert_12,2,memory-2step-stake-s,536,1400668,0.0-18.0-0.0-0.41,4390,2,1
42,4,object_04,object_02,1012.375,7,2,456.94999989999997,0.5555555555555556,1,object_09,1,425,0,5,3,restaurant_8,2,memory-2step-stake-s,537,1408879,0.0-18.0-0.0-0.42,4390,8,7
43,3,object_01,object_06,1029.05,5,2,354.815,0.5555555555555556,1,object_09,1,430,0,5,2,library_21,2,memory-2step-stake-s,538,1416974,0.0-18.0-0.0-0.43,4390,6,5
44,1,object_10,object_07,876.645,1,2,955.34,0.5555555555555556,1,object_09,5,455,0,5,6,desert_26,2,memory-2step-stake-s,539,1425681,0.0-18.0-0.0-0.44,4390,2,1
45,3,object_06,object_01,777.2250001,5,1,585.81,0.4444444444444444,1,object_09,5,475,0,4,8,library_5,2,memory-2step-stake-s,540,1433915,0.0-18.0-0.0-0.45,4390,5,6
46,4,object_04,object_02,943.035,8,1,485.4049999,0.7777777777777778,2,object_03,1,482,0,1,7,restaurant_8,2,memory-2step-stake-s,541,1442350,0.0-18.0-0.0-0.46,4390,8,7
47,1,object_10,object_07,969.27,2,1,382.72,0.7777777777777778,2,object_03,5,517,0,0,7,desert_18,2,memory-2step-stake-s,542,1450685,0.0-18.0-0.0-0.47,4390,2,1
48,2,object_05,object_08,1233.725,3,1,816.0949999,0.3333333333333333,1,object_09,5,532,0,3,4,forest_17,2,memory-2step-stake-s,543,1459044,0.0-18.0-0.0-0.48,4390,3,4
49,2,object_05,object_08,1294.455,4,2,822.485,0.1111111111111111,2,object_03,1,533,0,3,1,forest_22,2,memory-2step-stake-s,544,1467205,0.0-18.0-0.0-0.49,4390,3,4
50,3,object_06,object_01,-1.0,-1,-1,-1.0,0.0,-,,1,533,0,5,1,library_10,2,memory-2step-stake-s,545,1473730,0.0-18.0-0.0-0.50,4390,5,6
51,2,object_08,object_05,1412.285,3,2,1126.7,0.5555555555555556,1,object_09,5,558,0,5,1,forest_19,2,memory-2step-stake-s,546,1482604,0.0-18.0-0.0-0.51,4390,4,3
52,3,object_01,object_06,1060.885,5,2,571.8950001000001,0.3333333333333333,1,object_09,1,561,0,3,2,library_13,2,memory-2step-stake-s,547,1490719,0.0-18.0-0.0-0.52,4390,6,5
53,3,object_01,object_06,793.145,6,1,409.05,0.2222222222222222,2,object_03,5,571,0,0,2,library_31,2,memory-2step-stake-s,548,1498574,0.0-18.0-0.0-0.53,4390,6,5
54,1,object_10,object_07,708.87,1,2,284.8,0.2222222222222222,1,object_09,5,581,0,2,3,desert_9,2,memory-2step-stake-s,549,1506292,0.0-18.0-0.0-0.54,4390,2,1
55,4,object_04,object_02,1085.2,8,1,1005.425,0.8888888888888888,2,object_03,1,589,0,1,8,restaurant_24,2,memory-2step-stake-s,550,1515367,0.0-18.0-0.0-0.55,4390,8,7
56,3,object_01,object_06,800.56,6,1,411.025,0.8888888888888888,2,object_03,1,597,0,3,8,library_5,2,memory-2step-stake-s,551,1523844,0.0-18.0-0.0-0.56,4390,6,5
57,1,object_07,object_10,1061.13,2,2,516.19,1.0,2,object_03,5,642,0,5,9,desert_27,2,memory-2step-stake-s,552,1532528,0.0-18.0-0.0-0.57,4390,1,2
58,2,object_08,object_05,-1.0,-1,-1,-1.0,0.0,-,,5,642,0,6,5,forest_11,2,memory-2step-stake-s,553,1539052,0.0-18.0-0.0-0.58,4390,4,3
59,2,object_08,object_05,812.1300001,3,2,747.305,0.6666666666666666,1,object_09,5,672,0,6,5,forest_16,2,memory-2step-stake-s,554,1547651,0.0-18.0-0.0-0.59,4390,4,3
60,4,object_02,object_04,1212.195,7,1,783.285,0.8888888888888888,1,object_09,1,680,0,8,9,restaurant_11,2,memory-2step-stake-s,555,1556478,0.0-18.0-0.0-0.60,4390,7,8
61,4,object_02,object_04,-1.0,-1,-1,-1.0,0.0,-,,5,680,0,8,8,restaurant_19,2,memory-2step-stake-s,556,1563008,0.0-18.0-0.0-0.61,4390,7,8
62,2,object_05,object_08,697.29,3,1,776.5899999,0.8888888888888888,1,object_09,5,720,0,8,9,forest_13,2,memory-2step-stake-s,557,1571854,0.0-18.0-0.0-0.62,4390,3,4
63,1,object_07,object_10,570.095,1,1,350.525,0.3333333333333333,1,object_09,5,735,0,3,8,desert_31,2,memory-2step-stake-s,558,1579744,0.0-18.0-0.0-0.63,4390,1,2
64,2,object_08,object_05,1083.33,4,1,317.835,0.8888888888888888,2,object_03,1,743,0,4,8,forest_4,2,memory-2step-stake-s,559,1588119,0.0-18.0-0.0-0.64,4390,4,3
65,1,object_07,object_10,1275.34,2,2,482.785,0.7777777777777778,2,object_03,5,778,0,2,7,desert_21,2,memory-2step-stake-s,560,1596568,0.0-18.0-0.0-0.65,4390,1,2
66,1,object_10,object_07,561.845,1,2,484.7349999,0.1111111111111111,1,object_09,5,783,0,1,9,desert_16,2,memory-2step-stake-s,561,1604382,0.0-18.0-0.0-0.66,4390,2,1
67,1,object_10,object_07,1005.165,2,1,559.885,0.7777777777777778,2,object_03,5,818,0,2,7,desert_17,2,memory-2step-stake-s,562,1612895,0.0-18.0-0.0-0.67,4390,2,1
68,1,object_10,object_07,771.02,2,1,415.2650001,1.0,2,object_03,5,863,0,2,9,desert_23,2,memory-2step-stake-s,563,1621474,0.0-18.0-0.0-0.68,4390,2,1
69,4,object_04,object_02,979.0650001,8,1,707.92,0.6666666666666666,2,object_03,5,893,0,1,6,restaurant_2,2,memory-2step-stake-s,564,1630027,0.0-18.0-0.0-0.69,4390,8,7
70,4,object_02,object_04,605.7099999,8,2,752.355,0.5555555555555556,2,object_03,1,898,0,1,5,restaurant_30,2,memory-2step-stake-s,565,1638533,0.0-18.0-0.0-0.70,4390,7,8
71,4,object_04,object_02,687.3249999,7,2,464.915,0.2222222222222222,1,object_09,5,908,0,2,7,restaurant_26,2,memory-2step-stake-s,566,1646432,0.0-18.0-0.0-0.71,4390,8,7
72,2,object_05,object_08,738.425,3,1,603.295,0.1111111111111111,1,object_09,5,913,0,1,7,forest_7,2,memory-2step-stake-s,567,1654369,0.0-18.0-0.0-0.72,4390,3,4
73,3,object_01,object_06,1351.115,6,1,495.3599999,0.8888888888888888,2,object_03,1,921,0,4,8,library_5,2,memory-2step-stake-s,568,1662921,0.0-18.0-0.0-0.73,4390,6,5
74,1,object_10,object_07,1302.835,2,1,575.05,0.6666666666666666,2,object_03,5,951,0,6,6,desert_9,2,memory-2step-stake-s,569,1671343,0.0-18.0-0.0-0.74,4390,2,1
75,1,object_10,object_07,675.9050001,2,1,399.8,0.6666666666666666,2,object_03,5,981,0,4,6,desert_4,2,memory-2step-stake-s,570,1679598,0.0-18.0-0.0-0.75,4390,2,1
76,1,object_10,object_07,778.1250001,2,1,1278.38,0.6666666666666666,2,object_03,5,1011,0,2,6,desert_23,2,memory-2step-stake-s,571,1688716,0.0-18.0-0.0-0.76,4390,2,1
77,2,object_08,object_05,1420.91,3,2,907.6649999,0.3333333333333333,1,object_09,1,1014,0,3,6,forest_1,2,memory-2step-stake-s,572,1697161,0.0-18.0-0.0-0.77,4390,4,3
78,2,object_08,object_05,1289.735,4,1,443.865,0.6666666666666666,2,object_03,5,1044,0,2,6,forest_15,2,memory-2step-stake-s,573,1705458,0.0-18.0-0.0-0.78,4390,4,3
79,1,object_07,object_10,1039.94,1,1,396.385,0.1111111111111111,1,object_09,5,1049,0,1,6,desert_24,2,memory-2step-stake-s,574,1713190,0.0-18.0-0.0-0.79,4390,1,2
80,1,object_07,object_10,989.235,2,2,512.17,0.6666666666666666,2,object_03,1,1055,0,1,6,desert_29,2,memory-2step-stake-s,575,1721553,0.0-18.0-0.0-0.80,4390,1,2
81,2,object_08,object_05,1052.53,4,1,693.97,0.8888888888888888,2,object_03,5,1095,0,1,8,forest_20,2,memory-2step-stake-s,576,1730310,0.0-18.0-0.0-0.81,4390,4,3
82,3,object_06,object_01,1136.375,5,1,624.26,0.1111111111111111,1,object_09,1,1096,0,1,7,library_4,2,memory-2step-stake-s,577,1738270,0.0-18.0-0.0-0.82,4390,5,6
83,3,object_01,object_06,1432.6,6,1,562.3,0.7777777777777778,2,object_03,1,1103,0,4,7,library_1,2,memory-2step-stake-s,578,1746790,0.0-18.0-0.0-0.83,4390,6,5
84,2,object_05,object_08,-1.0,-1,-1,-1.0,0.0,-,,5,1103,0,5,6,forest_15,2,memory-2step-stake-s,579,1753311,0.0-18.0-0.0-0.84,4390,3,4
85,4,object_04,object_02,739.1850001,7,2,749.0450001,0.7777777777777778,1,object_09,1,1110,0,7,2,restaurant_16,2,memory-2step-stake-s,580,1762006,0.0-18.0-0.0-0.85,4390,8,7
86,1,object_10,object_07,857.8999999,1,2,1033.22,1.0,1,object_09,1,1119,0,9,1,desert_9,2,memory-2step-stake-s,581,1771200,0.0-18.0-0.0-0.86,4390,2,1
87,3,object_01,object_06,835.8,5,2,699.7699999,0.7777777777777778,1,object_09,1,1126,0,7,2,library_27,2,memory-2step-stake-s,582,1779860,0.0-18.0-0.0-0.87,4390,6,5
88,4,object_02,object_04,1058.51,7,1,526.435,0.6666666666666666,1,object_09,5,1156,0,6,5,restaurant_21,2,memory-2step-stake-s,583,1788237,0.0-18.0-0.0-0.88,4390,7,8
89,4,object_02,object_04,864.175,7,1,1094.76,0.7777777777777778,1,object_09,5,1191,0,7,3,restaurant_30,2,memory-2step-stake-s,584,1797303,0.0-18.0-0.0-0.89,4390,7,8
90,3,object_01,object_06,781.805,5,2,494.5949999,0.8888888888888888,1,object_09,1,1199,0,8,1,library_32,2,memory-2step-stake-s,585,1805863,0.0-18.0-0.0-0.90,4390,6,5
91,1,object_07,object_10,821.455,1,1,570.3349999,0.8888888888888888,1,object_09,5,1239,0,8,4,desert_16,2,memory-2step-stake-s,586,1814501,0.0-18.0-0.0-0.91,4390,1,2
92,2,object_08,object_05,607.84,4,1,454.675,0.1111111111111111,2,object_03,5,1244,0,5,1,forest_1,2,memory-2step-stake-s,587,1822287,0.0-18.0-0.0-0.92,4390,4,3
93,3,object_01,object_06,766.955,5,2,456.345,0.2222222222222222,1,object_09,1,1246,0,2,0,library_7,2,memory-2step-stake-s,588,1830182,0.0-18.0-0.0-0.93,4390,6,5
94,1,object_10,object_07,963.5599999,2,1,595.645,0.4444444444444444,2,object_03,5,1266,0,0,4,desert_21,2,memory-2step-stake-s,589,1838425,0.0-18.0-0.0-0.94,4390,2,1
95,1,object_07,object_10,1401.775,2,2,466.91,0.6666666666666666,2,object_03,5,1296,0,1,6,desert_24,2,memory-2step-stake-s,590,1846759,0.0-18.0-0.0-0.95,4390,1,2
96,1,object_10,object_07,893.055,2,1,695.745,0.6666666666666666,2,object_03,5,1326,0,3,6,desert_27,2,memory-2step-stake-s,591,1855315,0.0-18.0-0.0-0.96,4390,2,1
97,3,object_06,object_01,1000.295,6,2,481.77,0.5555555555555556,2,object_03,1,1331,0,2,5,library_11,2,memory-2step-stake-s,592,1863544,0.0-18.0-0.0-0.97,4390,5,6
98,4,object_02,object_04,1186.525,8,2,428.4849999,0.6666666666666666,2,object_03,5,1361,0,3,6,restaurant_11,2,memory-2step-stake-s,593,1871820,0.0-18.0-0.0-0.98,4390,7,8
99,2,object_05,object_08,-1.0,-1,-1,-1.0,0.0,-,,5,1361,0,2,6,forest_15,2,memory-2step-stake-s,594,1878341,0.0-18.0-0.0-0.99,4390,3,4
100,3,object_01,object_06,998.3,6,1,761.7749999,0.6666666666666666,2,object_03,1,1367,0,4,6,library_1,2,memory-2step-stake-s,595,1886966,0.0-18.0-0.0-0.100,4390,6,5
101,4,object_04,object_02,916.71,8,1,474.8300001,0.3333333333333333,2,object_03,1,1370,0,6,3,restaurant_2,2,memory-2step-stake-s,596,1894983,0.0-18.0-0.0-0.101,4390,8,7
102,4,object_04,object_02,692.7799999,7,2,847.7749999,0.4444444444444444,1,object_09,1,1374,0,4,3,restaurant_7,2,memory-2step-stake-s,597,1903477,0.0-18.0-0.0-0.102,4390,8,7
103,2,object_08,object_05,587.705,3,2,447.245,0.7777777777777778,1,object_09,5,1409,0,7,4,forest_7,2,memory-2step-stake-s,598,1911877,0.0-18.0-0.0-0.103,4390,4,3
104,4,object_04,object_02,858.44,7,2,704.395,0.8888888888888888,1,object_09,1,1417,0,8,0,restaurant_12,2,memory-2step-stake-s,599,1920644,0.0-18.0-0.0-0.104,4390,8,7
105,1,object_07,object_10,884.71,1,1,906.22,1.0,1,object_09,5,1462,0,9,1,desert_21,2,memory-2step-stake-s,600,1929712,0.0-18.0-0.0-0.105,4390,1,2
106,4,object_02,object_04,744.14,7,1,412.715,0.7777777777777778,1,object_09,1,1469,0,7,4,restaurant_19,2,memory-2step-stake-s,601,1938083,0.0-18.0-0.0-0.106,4390,7,8
107,4,object_04,object_02,858.325,8,1,440.4000001,0.5555555555555556,2,object_03,1,1474,0,8,5,restaurant_4,2,memory-2step-stake-s,602,1946269,0.0-18.0-0.0-0.107,4390,8,7
108,3,object_01,object_06,1097.28,6,1,449.47,0.5555555555555556,2,object_03,1,1479,0,9,5,library_30,2,memory-2step-stake-s,603,1954471,0.0-18.0-0.0-0.108,4390,6,5
109,2,object_08,object_05,822.745,4,1,436.4799999,0.7777777777777778,2,object_03,5,1514,0,6,7,forest_11,2,memory-2step-stake-s,604,1962868,0.0-18.0-0.0-0.109,4390,4,3
110,4,object_04,object_02,827.8,8,1,822.9499999,0.6666666666666666,2,object_03,1,1520,0,7,6,restaurant_16,2,memory-2step-stake-s,605,1971548,0.0-18.0-0.0-0.110,4390,8,7
111,3,object_06,object_01,868.21,6,2,585.355,0.6666666666666666,2,object_03,1,1526,0,6,6,library_5,2,memory-2step-stake-s,606,1979980,0.0-18.0-0.0-0.111,4390,5,6
112,1,object_10,object_07,821.2349998999999,2,1,448.2700001,0.6666666666666666,2,object_03,5,1556,0,9,6,desert_29,2,memory-2step-stake-s,607,1988287,0.0-18.0-0.0-0.112,4390,2,1
113,3,object_06,object_01,1002.62,6,2,315.98,0.5555555555555556,2,object_03,1,1561,0,6,5,library_27,2,memory-2step-stake-s,608,1996357,0.0-18.0-0.0-0.113,4390,5,6
114,1,object_10,object_07,850.19,1,2,338.755,0.6666666666666666,1,object_09,5,1591,0,6,2,desert_32,2,memory-2step-stake-s,609,2004549,0.0-18.0-0.0-0.114,4390,2,1
115,2,object_05,object_08,1119.68,3,1,525.4149999,0.5555555555555556,1,object_09,5,1616,0,5,1,forest_29,2,memory-2step-stake-s,610,2012820,0.0-18.0-0.0-0.115,4390,3,4
116,1,object_07,object_10,557.505,1,1,434.44999989999997,0.7777777777777778,1,object_09,5,1651,0,7,2,desert_24,2,memory-2step-stake-s,611,2021211,0.0-18.0-0.0-0.116,4390,1,2
117,4,object_02,object_04,592.44,7,1,569.39,0.7777777777777778,1,object_09,1,1658,0,7,5,restaurant_4,2,memory-2step-stake-s,612,2029732,0.0-18.0-0.0-0.117,4390,7,8
118,3,object_06,object_01,1082.0,5,1,1233.025,1.0,1,object_09,5,1703,0,9,5,library_3,2,memory-2step-stake-s,613,2039128,0.0-18.0-0.0-0.118,4390,5,6
119,4,object_04,object_02,616.8099999,7,2,736.47,0.4444444444444444,1,object_09,1,1707,0,4,2,restaurant_24,2,memory-2step-stake-s,614,2047521,0.0-18.0-0.0-0.119,4390,8,7
120,3,object_01,object_06,578.625,5,2,1426.16,0.7777777777777778,1,object_09,1,1714,0,7,1,library_27,2,memory-2step-stake-s,615,2056904,0.0-18.0-0.0-0.120,4390,6,5
121,4,object_04,object_02,642.425,7,2,420.715,0.8888888888888888,1,object_09,1,1722,0,8,0,restaurant_18,2,memory-2step-stake-s,616,2065381,0.0-18.0-0.0-0.121,4390,8,7
122,1,object_10,object_07,698.07,1,2,1463.94,0.5555555555555556,1,object_09,5,1747,0,5,0,desert_18,2,memory-2step-stake-s,617,2074597,0.0-18.0-0.0-0.122,4390,2,1
123,1,object_07,object_10,856.335,2,2,459.02,0.2222222222222222,2,object_03,5,1757,0,4,2,desert_7,2,memory-2step-stake-s,618,2082502,0.0-18.0-0.0-0.123,4390,1,2
124,3,object_01,object_06,716.5049999,5,2,389.845,0.5555555555555556,1,object_09,5,1782,0,5,2,library_3,2,memory-2step-stake-s,619,2090652,0.0-18.0-0.0-0.124,4390,6,5
125,1,object_10,object_07,554.7450001,1,2,382.595,0.8888888888888888,1,object_09,1,1790,0,8,4,desert_16,2,memory-2step-stake-s,620,2099090,0.0-18.0-0.0-0.125,4390,2,1
126,3,object_01,object_06,558.025,5,2,459.7100001,0.4444444444444444,1,object_09,5,1810,0,4,8,library_1,2,memory-2step-stake-s,621,2107195,0.0-18.0-0.0-0.126,4390,6,5
127,3,object_01,object_06,728.3699999,6,1,512.165,1.0,2,object_03,1,1819,0,1,9,library_3,2,memory-2step-stake-s,622,2115879,0.0-18.0-0.0-0.127,4390,6,5
128,4,object_04,object_02,-1.0,-1,-1,-1.0,0.0,-,,1,1819,0,2,6,restaurant_8,2,memory-2step-stake-s,624,2439795,0.0-18.0-0.1-0.128,4390,8,7
129,2,object_05,object_08,951.0400001,3,1,498.24,0.5555555555555556,1,object_09,5,1844,0,5,4,forest_19,2,memory-2step-stake-s,625,2448041,0.0-18.0-0.1-0.129,4390,3,4
130,1,object_10,object_07,719.065,1,2,627.4,1.0,1,object_09,5,1889,0,9,3,desert_31,2,memory-2step-stake-s,626,2456838,0.0-18.0-0.1-0.130,4390,2,1
131,1,object_07,object_10,523.615,1,1,365.6350001,0.7777777777777778,1,object_09,5,1924,0,7,5,desert_29,2,memory-2step-stake-s,627,2465165,0.0-18.0-0.1-0.131,4390,1,2
132,2,object_05,object_08,826.4199999,3,1,411.5800001,1.0,1,object_09,5,1969,0,9,5,forest_9,2,memory-2step-stake-s,628,2473735,0.0-18.0-0.1-0.132,4390,3,4
133,3,object_06,object_01,764.145,5,1,394.4249999,0.8888888888888888,1,object_09,1,1977,0,8,7,library_4,2,memory-2step-stake-s,629,2482198,0.0-18.0-0.1-0.133,4390,5,6
134,3,object_06,object_01,603.275,5,1,383.49,1.0,1,object_09,1,1986,0,9,6,library_29,2,memory-2step-stake-s,630,2490744,0.0-18.0-0.1-0.134,4390,5,6
135,3,object_01,object_06,517.37,5,2,415.295,0.6666666666666666,1,object_09,1,1992,0,6,7,library_32,2,memory-2step-stake-s,631,2499012,0.0-18.0-0.1-0.135,4390,6,5
136,2,object_08,object_05,1001.3,3,2,396.385,0.7777777777777778,1,object_09,5,2027,0,7,8,forest_17,2,memory-2step-stake-s,632,2507369,0.0-18.0-0.1-0.136,4390,4,3
137,3,object_01,object_06,579.0349999,5,2,336.87,1.0,1,object_09,1,2036,0,9,8,library_29,2,memory-2step-stake-s,633,2515867,0.0-18.0-0.1-0.137,4390,6,5
138,3,object_01,object_06,573.4999999,5,2,463.0750001,0.8888888888888888,1,object_09,5,2076,0,8,6,library_10,2,memory-2step-stake-s,634,2524382,0.0-18.0-0.1-0.138,4390,6,5
139,1,object_07,object_10,569.215,1,1,461.28,1.0,1,object_09,5,2121,0,9,5,desert_29,2,memory-2step-stake-s,635,2532997,0.0-18.0-0.1-0.139,4390,1,2
140,4,object_02,object_04,991.845,7,1,436.705,0.8888888888888888,1,object_09,1,2129,0,8,7,restaurant_9,2,memory-2step-stake-s,636,2541494,0.0-18.0-0.1-0.140,4390,7,8
141,1,object_10,object_07,1193.395,1,2,413.985,0.7777777777777778,1,object_09,5,2164,0,7,8,desert_4,2,memory-2step-stake-s,637,2549867,0.0-18.0-0.1-0.141,4390,2,1
142,3,object_01,object_06,685.725,5,2,288.8400001,0.7777777777777778,1,object_09,5,2199,0,7,6,library_31,2,memory-2step-stake-s,638,2558127,0.0-18.0-0.1-0.142,4390,6,5
143,1,object_07,object_10,495.8800001,1,1,467.61000010000004,0.6666666666666666,1,object_09,5,2229,0,6,5,desert_4,2,memory-2step-stake-s,639,2566444,0.0-18.0-0.1-0.143,4390,1,2
144,4,object_02,object_04,540.7799999,7,1,408.5350001,0.5555555555555556,1,object_09,1,2234,0,5,5,restaurant_18,2,memory-2step-stake-s,640,2574604,0.0-18.0-0.1-0.144,4390,7,8
145,4,object_04,object_02,870.195,8,1,395.085,0.5555555555555556,2,object_03,1,2239,0,4,5,restaurant_12,2,memory-2step-stake-s,641,2582755,0.0-18.0-0.1-0.145,4390,8,7
146,2,object_05,object_08,863.7199999,4,2,300.955,0.6666666666666666,2,object_03,5,2269,0,3,6,forest_3,2,memory-2step-stake-s,642,2590916,0.0-18.0-0.1-0.146,4390,3,4
147,3,object_06,object_01,780.0049999,6,2,494.485,0.4444444444444444,2,object_03,1,2273,0,3,4,library_29,2,memory-2step-stake-s,643,2599059,0.0-18.0-0.1-0.147,4390,5,6
148,3,object_06,object_01,616.27,5,1,316.48,0.3333333333333333,1,object_09,5,2288,0,3,3,library_7,2,memory-2step-stake-s,644,2606928,0.0-18.0-0.1-0.148,4390,5,6
149,4,object_02,object_04,754.51,8,2,481.55,0.3333333333333333,2,object_03,1,2291,0,6,3,restaurant_21,2,memory-2step-stake-s,645,2614950,0.0-18.0-0.1-0.149,4390,7,8
150,4,object_04,object_02,805.775,7,2,411.46,0.7777777777777778,1,object_09,1,2298,0,7,5,restaurant_14,2,memory-2step-stake-s,646,2623310,0.0-18.0-0.1-0.150,4390,8,7
151,3,object_01,object_06,665.4449999,5,2,109.77000009999999,0.8888888888888888,1,object_09,5,2338,0,8,8,library_7,2,memory-2step-stake-s,647,2631476,0.0-18.0-0.1-0.151,4390,6,5
152,3,object_01,object_06,884.095,5,2,853.78,0.8888888888888888,1,object_09,1,2346,0,8,9,library_29,2,memory-2step-stake-s,648,2640385,0.0-18.0-0.1-0.152,4390,6,5
153,3,object_06,object_01,628.12,5,1,113.79,0.7777777777777778,1,object_09,1,2353,0,7,8,library_17,2,memory-2step-stake-s,649,2648455,0.0-18.0-0.1-0.153,4390,5,6
154,2,object_08,object_05,1005.92,4,1,344.02,0.3333333333333333,2,object_03,5,2368,0,4,3,forest_7,2,memory-2step-stake-s,650,2656332,0.0-18.0-0.1-0.154,4390,4,3
155,4,object_04,object_02,815.5,7,2,447.89,0.5555555555555556,1,object_09,1,2373,0,5,1,restaurant_7,2,memory-2step-stake-s,651,2664525,0.0-18.0-0.1-0.155,4390,8,7
156,2,object_05,object_08,769.5299999,3,1,433.88,0.1111111111111111,1,object_09,5,2378,0,1,1,forest_23,2,memory-2step-stake-s,652,2672295,0.0-18.0-0.1-0.156,4390,3,4
157,3,object_01,object_06,953.345,6,1,357.8100001,0.2222222222222222,2,object_03,1,2380,0,1,2,library_3,2,memory-2step-stake-s,653,2680097,0.0-18.0-0.1-0.157,4390,6,5
158,4,object_04,object_02,542.08,8,1,422.3399999,0.3333333333333333,2,object_03,5,2395,0,1,3,restaurant_4,2,memory-2step-stake-s,654,2688059,0.0-18.0-0.1-0.158,4390,8,7
159,2,object_05,object_08,1054.575,4,2,546.4400001,0.3333333333333333,2,object_03,1,2398,0,1,3,forest_25,2,memory-2step-stake-s,655,2696156,0.0-18.0-0.1-0.159,4390,3,4
160,2,object_08,object_05,903.205,3,2,497.0100001,0.1111111111111111,1,object_09,5,2403,0,1,0,forest_16,2,memory-2step-stake-s,656,2703998,0.0-18.0-0.1-0.160,4390,4,3
161,2,object_05,object_08,1470.705,4,2,441.245,0.0,2,object_03,5,2403,0,3,0,forest_4,2,memory-2step-stake-s,657,2711682,0.0-18.0-0.1-0.161,4390,3,4
162,4,object_02,object_04,778.27,7,1,391.1400001,0.1111111111111111,1,object_09,1,2404,0,1,1,restaurant_9,2,memory-2step-stake-s,658,2719408,0.0-18.0-0.1-0.162,4390,7,8
163,4,object_02,object_04,655.965,8,2,424.545,0.2222222222222222,2,object_03,1,2406,0,1,2,restaurant_24,2,memory-2step-stake-s,659,2727275,0.0-18.0-0.1-0.163,4390,7,8
164,3,object_06,object_01,786.895,6,2,451.835,0.2222222222222222,2,object_03,5,2416,0,4,2,library_28,2,memory-2step-stake-s,660,2735172,0.0-18.0-0.1-0.164,4390,5,6
165,2,object_08,object_05,870.065,3,2,422.485,0.3333333333333333,1,object_09,1,2419,0,3,1,forest_9,2,memory-2step-stake-s,661,2743142,0.0-18.0-0.1-0.165,4390,4,3
166,4,object_02,object_04,472.73,7,1,475.535,0.3333333333333333,1,object_09,1,2422,0,3,0,restaurant_11,2,memory-2step-stake-s,662,2751156,0.0-18.0-0.1-0.166,4390,7,8
167,2,object_08,object_05,755.445,4,1,508.29500010000004,0.0,2,object_03,1,2422,0,4,0,forest_11,2,memory-2step-stake-s,663,2758896,0.0-18.0-0.1-0.167,4390,4,3
168,2,object_08,object_05,852.525,3,2,438.1649999,0.6666666666666666,1,object_09,5,2452,0,6,2,forest_13,2,memory-2step-stake-s,664,2767188,0.0-18.0-0.1-0.168,4390,4,3
169,1,object_10,object_07,637.5749999,1,2,646.88,0.3333333333333333,1,object_09,5,2467,0,3,4,desert_22,2,memory-2step-stake-s,665,2775373,0.0-18.0-0.1-0.169,4390,2,1
170,3,object_06,object_01,707.97,6,2,289.16,0.6666666666666666,2,object_03,1,2473,0,6,6,library_10,2,memory-2step-stake-s,666,2783513,0.0-18.0-0.1-0.170,4390,5,6
171,4,object_04,object_02,650.92,8,1,322.8699999,0.3333333333333333,2,object_03,1,2476,0,5,3,restaurant_14,2,memory-2step-stake-s,667,2791378,0.0-18.0-0.1-0.171,4390,8,7
172,2,object_08,object_05,955.9299999,3,2,292.455,0.8888888888888888,1,object_09,5,2516,0,8,3,forest_3,2,memory-2step-stake-s,668,2799720,0.0-18.0-0.1-0.172,4390,4,3
173,4,object_04,object_02,854.6099998999999,7,2,383.805,0.8888888888888888,1,object_09,5,2556,0,8,5,restaurant_24,2,memory-2step-stake-s,669,2808155,0.0-18.0-0.1-0.173,4390,8,7
174,4,object_02,object_04,595.6,7,1,956.85,0.6666666666666666,1,object_09,1,2562,0,6,8,restaurant_18,2,memory-2step-stake-s,670,2816977,0.0-18.0-0.1-0.174,4390,7,8
175,4,object_04,object_02,671.5399999,7,2,312.205,0.6666666666666666,1,object_09,1,2568,0,6,8,restaurant_21,2,memory-2step-stake-s,671,2825142,0.0-18.0-0.1-0.175,4390,8,7
176,1,object_10,object_07,499.485,1,2,474.44499989999997,0.7777777777777778,1,object_09,5,2603,0,7,8,desert_22,2,memory-2step-stake-s,672,2833569,0.0-18.0-0.1-0.176,4390,2,1
177,2,object_05,object_08,438.88,4,2,287.41,0.6666666666666666,2,object_03,5,2633,0,8,6,forest_16,2,memory-2step-stake-s,673,2841713,0.0-18.0-0.1-0.177,4390,3,4
178,2,object_05,object_08,861.7049999,4,2,344.145,0.7777777777777778,2,object_03,5,2668,0,6,7,forest_13,2,memory-2step-stake-s,674,2850017,0.0-18.0-0.1-0.178,4390,3,4
179,4,object_02,object_04,878.9049999,8,2,378.18,0.8888888888888888,2,object_03,5,2708,0,4,8,restaurant_26,2,memory-2step-stake-s,675,2858461,0.0-18.0-0.1-0.179,4390,7,8
180,1,object_07,object_10,1099.405,2,2,368.195,0.7777777777777778,2,object_03,5,2743,0,9,7,desert_26,2,memory-2step-stake-s,676,2866779,0.0-18.0-0.1-0.180,4390,1,2
181,3,object_01,object_06,838.5399999,6,1,369.295,0.4444444444444444,2,object_03,1,2747,0,7,4,library_27,2,memory-2step-stake-s,677,2874789,0.0-18.0-0.1-0.181,4390,6,5
182,1,object_10,object_07,483.065,1,2,321.5899999,0.8888888888888888,1,object_09,5,2787,0,8,2,desert_17,2,memory-2step-stake-s,678,2883162,0.0-18.0-0.1-0.182,4390,2,1
183,3,object_06,object_01,859.665,5,1,422.165,0.7777777777777778,1,object_09,1,2794,0,7,4,library_30,2,memory-2step-stake-s,679,2891527,0.0-18.0-0.1-0.183,4390,5,6
184,4,object_02,object_04,570.45,7,1,788.1649999,0.8888888888888888,1,object_09,1,2802,0,8,4,restaurant_7,2,memory-2step-stake-s,680,2900377,0.0-18.0-0.1-0.184,4390,7,8
185,3,object_01,object_06,1115.39,6,1,368.72,0.5555555555555556,2,object_03,5,2827,0,7,5,library_13,2,memory-2step-stake-s,681,2908497,0.0-18.0-0.1-0.185,4390,6,5
186,3,object_01,object_06,551.075,5,2,469.63999989999996,0.6666666666666666,1,object_09,1,2833,0,6,3,library_21,2,memory-2step-stake-s,682,2916830,0.0-18.0-0.1-0.186,4390,6,5
187,1,object_07,object_10,915.76,1,1,333.455,0.7777777777777778,1,object_09,5,2868,0,7,5,desert_26,2,memory-2step-stake-s,683,2925134,0.0-18.0-0.1-0.187,4390,1,2
188,2,object_05,object_08,818.1,4,2,451.5600001,0.7777777777777778,2,object_03,5,2903,0,8,7,forest_20,2,memory-2step-stake-s,684,2933550,0.0-18.0-0.1-0.188,4390,3,4
189,3,object_01,object_06,679.555,5,2,312.395,1.0,1,object_09,1,2912,0,9,8,library_17,2,memory-2step-stake-s,685,2942031,0.0-18.0-0.1-0.189,4390,6,5
190,4,object_04,object_02,1171.41,7,2,411.4199999,0.7777777777777778,1,object_09,1,2919,0,7,7,restaurant_16,2,memory-2step-stake-s,686,2950399,0.0-18.0-0.1-0.190,4390,8,7
191,1,object_10,object_07,949.075,2,1,485.23,0.8888888888888888,2,object_03,1,2927,0,9,8,desert_23,2,memory-2step-stake-s,687,2958948,0.0-18.0-0.1-0.191,4390,2,1
192,4,object_02,object_04,772.9049999,8,2,840.7749999,0.8888888888888888,2,object_03,1,2935,0,8,8,restaurant_30,2,memory-2step-stake-s,688,2967863,0.0-18.0-0.1-0.192,4390,7,8
193,1,object_07,object_10,693.4700001,2,2,435.5349999,1.0,2,object_03,5,2980,0,7,9,desert_27,2,memory-2step-stake-s,689,2976457,0.0-18.0-0.1-0.193,4390,1,2
194,1,object_10,object_07,1124.425,2,1,395.9,0.7777777777777778,2,object_03,5,3015,0,5,7,desert_27,2,memory-2step-stake-s,690,2984796,0.0-18.0-0.1-0.194,4390,2,1
195,3,object_06,object_01,757.235,6,2,408.985,0.6666666666666666,2,object_03,1,3021,0,4,6,library_28,2,memory-2step-stake-s,691,2993049,0.0-18.0-0.1-0.195,4390,5,6
196,3,object_01,object_06,724.3250001,6,1,530.24,0.7777777777777778,2,object_03,5,3056,0,5,7,library_30,2,memory-2step-stake-s,692,3001530,0.0-18.0-0.1-0.196,4390,6,5
197,3,object_06,object_01,611.1849999,6,2,460.3950001,1.0,2,object_03,1,3065,0,7,9,library_13,2,memory-2step-stake-s,693,3010150,0.0-18.0-0.1-0.197,4390,5,6
198,1,object_07,object_10,641.0999999,2,2,351.58499989999996,0.7777777777777778,2,object_03,1,3072,0,5,7,desert_7,2,memory-2step-stake-s,694,3018453,0.0-18.0-0.1-0.198,4390,1,2
199,1,object_07,object_10,576.6499999,2,2,360.87,0.6666666666666666,2,object_03,5,3102,0,7,6,desert_17,2,memory-2step-stake-s,695,3026658,0.0-18.0-0.1-0.199,4390,1,2
200,4,object_02,object_04,553.9350001,7,1,364.485,0.5555555555555556,1,object_09,1,3107,0,5,6,restaurant_19,2,memory-2step-stake-s,696,3034771,0.0-18.0-0.1-0.200,4390,7,8
201,1,object_07,object_10,573.7650001000001,1,1,312.185,0.5555555555555556,1,object_09,5,3132,0,5,3,desert_22,2,memory-2step-stake-s,697,3042836,0.0-18.0-0.1-0.201,4390,1,2
202,3,object_06,object_01,785.55,5,1,413.425,0.4444444444444444,1,object_09,5,3152,0,4,8,library_11,2,memory-2step-stake-s,698,3050896,0.0-18.0-0.1-0.202,4390,5,6
203,1,object_07,object_10,648.7499999,2,2,352.85500010000004,0.6666666666666666,2,object_03,5,3182,0,3,6,desert_32,2,memory-2step-stake-s,699,3059098,0.0-18.0-0.1-0.203,4390,1,2
204,3,object_01,object_06,1085.275,6,1,610.34,0.7777777777777778,2,object_03,1,3189,0,5,7,library_10,2,memory-2step-stake-s,700,3067661,0.0-18.0-0.1-0.204,4390,6,5
205,3,object_06,object_01,1015.535,5,1,784.195,0.4444444444444444,1,object_09,1,3193,0,4,9,library_32,2,memory-2step-stake-s,701,3076081,0.0-18.0-0.1-0.205,4390,5,6
206,4,object_04,object_02,711.7049999,8,1,475.755,0.7777777777777778,2,object_03,1,3200,0,5,7,restaurant_12,2,memory-2step-stake-s,702,3084521,0.0-18.0-0.1-0.206,4390,8,7
207,1,object_10,object_07,812.02,2,1,426.9450001,0.6666666666666666,2,object_03,1,3206,0,7,6,desert_7,2,memory-2step-stake-s,703,3092802,0.0-18.0-0.1-0.207,4390,2,1
208,1,object_07,object_10,666.025,2,2,849.6249999,0.6666666666666666,2,object_03,5,3236,0,9,6,desert_26,2,memory-2step-stake-s,704,3101505,0.0-18.0-0.1-0.208,4390,1,2
209,2,object_08,object_05,424.0700001,4,1,333.455,0.6666666666666666,2,object_03,1,3242,0,8,6,forest_13,2,memory-2step-stake-s,705,3109695,0.0-18.0-0.1-0.209,4390,4,3
210,1,object_07,object_10,764.4100001,2,2,564.6350001000001,0.5555555555555556,2,object_03,5,3267,0,8,5,desert_32,2,memory-2step-stake-s,706,3118003,0.0-18.0-0.1-0.210,4390,1,2
211,2,object_08,object_05,923.0000001,3,2,761.8199999,0.5555555555555556,1,object_09,5,3292,0,5,3,forest_4,2,memory-2step-stake-s,707,3126514,0.0-18.0-0.1-0.211,4390,4,3
212,2,object_05,object_08,866.26,3,1,369.14,0.5555555555555556,1,object_09,5,3317,0,5,5,forest_19,2,memory-2step-stake-s,708,3134630,0.0-18.0-0.1-0.212,4390,3,4
213,3,object_06,object_01,693.215,5,1,667.365,0.0,1,object_09,1,3317,0,0,3,library_4,2,memory-2step-stake-s,709,3142524,0.0-18.0-0.1-0.213,4390,5,6
214,4,object_04,object_02,683.125,7,2,424.79,0.3333333333333333,1,object_09,1,3320,0,3,5,restaurant_2,2,memory-2step-stake-s,710,3150491,0.0-18.0-0.1-0.214,4390,8,7
215,4,object_02,object_04,828.6550001,8,2,396.215,0.4444444444444444,2,object_03,1,3324,0,4,4,restaurant_32,2,memory-2step-stake-s,711,3158531,0.0-18.0-0.1-0.215,4390,7,8
216,1,object_07,object_10,659.4100001,2,2,552.935,0.3333333333333333,2,object_03,5,3339,0,5,3,desert_12,2,memory-2step-stake-s,712,3166632,0.0-18.0-0.1-0.216,4390,1,2
217,1,object_07,object_10,597.9000001,1,1,356.225,0.6666666666666666,1,object_09,5,3369,0,6,6,desert_21,2,memory-2step-stake-s,713,3174844,0.0-18.0-0.1-0.217,4390,1,2
218,2,object_08,object_05,775.1999999,3,2,404.215,0.8888888888888888,1,object_09,5,3409,0,8,6,forest_16,2,memory-2step-stake-s,714,3183321,0.0-18.0-0.1-0.218,4390,4,3
219,4,object_04,object_02,721.145,7,2,470.92,0.7777777777777778,1,object_09,1,3416,0,7,5,restaurant_32,2,memory-2step-stake-s,715,3191771,0.0-18.0-0.1-0.219,4390,8,7
220,2,object_08,object_05,784.155,3,2,456.38,0.7777777777777778,1,object_09,5,3451,0,7,2,forest_17,2,memory-2step-stake-s,716,3200187,0.0-18.0-0.1-0.220,4390,4,3
221,1,object_07,object_10,985.715,1,1,415.02,0.7777777777777778,1,object_09,1,3458,0,7,1,desert_23,2,memory-2step-stake-s,717,3208561,0.0-18.0-0.1-0.221,4390,1,2
222,2,object_08,object_05,928.0249999,3,2,396.785,0.7777777777777778,1,object_09,5,3493,0,7,2,forest_11,2,memory-2step-stake-s,718,3216904,0.0-18.0-0.1-0.222,4390,4,3
223,2,object_05,object_08,570.1550001,4,2,349.805,0.4444444444444444,2,object_03,1,3497,0,6,4,forest_22,2,memory-2step-stake-s,719,3224905,0.0-18.0-0.1-0.223,4390,3,4
224,2,object_08,object_05,715.59,3,2,596.155,0.3333333333333333,1,object_09,5,3512,0,3,5,forest_25,2,memory-2step-stake-s,720,3233038,0.0-18.0-0.1-0.224,4390,4,3
225,1,object_07,object_10,657.825,2,2,404.84,0.6666666666666666,2,object_03,5,3542,0,4,6,desert_24,2,memory-2step-stake-s,721,3241288,0.0-18.0-0.1-0.225,4390,1,2
226,1,object_10,object_07,764.4999999,2,1,414.415,0.8888888888888888,2,object_03,5,3582,0,6,8,desert_12,2,memory-2step-stake-s,722,3249763,0.0-18.0-0.1-0.226,4390,2,1
227,4,object_02,object_04,760.055,8,2,506.715,0.6666666666666666,2,object_03,1,3588,0,5,6,restaurant_9,2,memory-2step-stake-s,723,3258122,0.0-18.0-0.1-0.227,4390,7,8
228,4,object_02,object_04,714.82,8,2,464.13999989999996,0.8888888888888888,2,object_03,1,3596,0,4,8,restaurant_14,2,memory-2step-stake-s,724,3266647,0.0-18.0-0.1-0.228,4390,7,8
229,2,object_08,object_05,798.285,3,2,360.08499989999996,0.5555555555555556,1,object_09,1,3601,0,5,7,forest_29,2,memory-2step-stake-s,725,3274743,0.0-18.0-0.1-0.229,4390,4,3
230,4,object_04,object_02,1307.74,8,1,489.095,0.8888888888888888,2,object_03,1,3609,0,9,8,restaurant_9,2,memory-2step-stake-s,726,3283293,0.0-18.0-0.1-0.230,4390,8,7
231,3,object_06,object_01,540.845,6,2,357.4,1.0,2,object_03,1,3618,0,8,9,library_21,2,memory-2step-stake-s,727,3291808,0.0-18.0-0.1-0.231,4390,5,6
232,4,object_04,object_02,649.19,8,1,98.77499996,1.0,2,object_03,1,3627,0,8,9,restaurant_18,2,memory-2step-stake-s,728,3300069,0.0-18.0-0.1-0.232,4390,8,7
233,4,object_04,object_02,669.6049998999999,8,1,504.265,0.7777777777777778,2,object_03,1,3634,0,8,7,restaurant_12,2,memory-2step-stake-s,729,3308532,0.0-18.0-0.1-0.233,4390,8,7
234,1,object_07,object_10,887.7300001,2,2,1358.855,0.6666666666666666,2,object_03,5,3664,0,8,6,desert_32,2,memory-2step-stake-s,730,3317729,0.0-18.0-0.1-0.234,4390,1,2
235,4,object_02,object_04,606.8900001000001,8,2,-1.0,0.0,2,object_03,1,3664,0,9,4,restaurant_4,2,memory-2step-stake-s,731,3326261,0.0-18.0-0.1-0.235,4390,7,8
236,3,object_06,object_01,547.29,5,1,430.68,1.0,1,object_09,1,3673,0,9,2,library_32,2,memory-2step-stake-s,732,3334857,0.0-18.0-0.1-0.236,4390,5,6
237,1,object_10,object_07,865.6500001,1,2,378.545,0.8888888888888888,1,object_09,5,3713,0,8,0,desert_16,2,memory-2step-stake-s,733,3343308,0.0-18.0-0.1-0.237,4390,2,1
238,2,object_05,object_08,897.6500001,4,2,375.595,0.0,2,object_03,5,3713,0,5,0,forest_25,2,memory-2step-stake-s,734,3350915,0.0-18.0-0.1-0.238,4390,3,4
239,1,object_07,object_10,818.02,1,1,241.855,0.3333333333333333,1,object_09,5,3728,0,3,3,desert_22,2,memory-2step-stake-s,735,3358690,0.0-18.0-0.1-0.239,4390,1,2
240,2,object_05,object_08,742.01,4,2,324.835,0.4444444444444444,2,object_03,5,3748,0,4,4,forest_29,2,memory-2step-stake-s,736,3366657,0.0-18.0-0.1-0.240,4390,3,4
241,3,object_01,object_06,705.4399999,5,2,397.625,0.2222222222222222,1,object_09,1,3750,0,2,4,library_11,2,memory-2step-stake-s,737,3374489,0.0-18.0-0.1-0.241,4390,6,5
242,4,object_04,object_02,565.605,8,1,330.1200001,0.5555555555555556,2,object_03,1,3755,0,3,5,restaurant_8,2,memory-2step-stake-s,738,3382577,0.0-18.0-0.1-0.242,4390,8,7
243,2,object_05,object_08,892.8350001,4,2,432.9550001,0.8888888888888888,2,object_03,5,3795,0,1,8,forest_17,2,memory-2step-stake-s,739,3391077,0.0-18.0-0.1-0.243,4390,3,4
244,2,object_05,object_08,822.3199999,4,2,714.005,0.8888888888888888,2,object_03,5,3835,0,1,8,forest_9,2,memory-2step-stake-s,740,3399855,0.0-18.0-0.1-0.244,4390,3,4
245,4,object_02,object_04,580.74,8,2,438.9350001,1.0,2,object_03,1,3844,0,2,9,restaurant_26,2,memory-2step-stake-s,741,3408451,0.0-18.0-0.1-0.245,4390,7,8
246,4,object_02,object_04,632.705,8,2,600.7750001,0.5555555555555556,2,object_03,5,3869,0,0,5,restaurant_11,2,memory-2step-stake-s,742,3416807,0.0-18.0-0.1-0.246,4390,7,8
247,2,object_08,object_05,637.29,3,2,480.0949999,0.2222222222222222,1,object_09,1,3871,0,2,3,forest_23,2,memory-2step-stake-s,743,3424739,0.0-18.0-0.1-0.247,4390,4,3
248,2,object_05,object_08,855.335,4,2,407.135,0.5555555555555556,2,object_03,5,3896,0,1,5,forest_29,2,memory-2step-stake-s,744,3432896,0.0-18.0-0.1-0.248,4390,3,4
249,4,object_02,object_04,1116.865,8,2,491.9700001,0.4444444444444444,2,object_03,1,3900,0,0,4,restaurant_32,2,memory-2step-stake-s,745,3441038,0.0-18.0-0.1-0.249,4390,7,8
250,3,object_06,object_01,907.9049999,6,2,642.755,0.4444444444444444,2,object_03,1,3904,0,0,4,library_17,2,memory-2step-stake-s,746,3449335,0.0-18.0-0.1-0.250,4390,5,6
251,3,object_01,object_06,1004.42,6,1,453.3749999,0.2222222222222222,2,object_03,1,3906,0,2,2,library_13,2,memory-2step-stake-s,747,3457215,0.0-18.0-0.1-0.251,4390,6,5
252,3,object_01,object_06,638.565,5,2,363.56999989999997,0.2222222222222222,1,object_09,1,3908,0,2,5,library_17,2,memory-2step-stake-s,748,3465020,0.0-18.0-0.1-0.252,4390,6,5
253,4,object_04,object_02,663.195,7,2,523.33,0.1111111111111111,1,object_09,1,3909,0,1,4,restaurant_26,2,memory-2step-stake-s,749,3472885,0.0-18.0-0.1-0.253,4390,8,7
254,2,object_05,object_08,880.62,4,2,374.025,0.1111111111111111,2,object_03,5,3914,0,0,1,forest_22,2,memory-2step-stake-s,750,3480598,0.0-18.0-0.1-0.254,4390,3,4
255,3,object_01,object_06,609.4399999,5,2,318.08499989999996,0.1111111111111111,1,object_09,1,3915,0,1,2,library_30,2,memory-2step-stake-s,751,3488249,0.0-18.0-0.1-0.255,4390,6,5
