,state1,stim_left,stim_right,rt_1,choice1,response1,rt_2,points,state2,stim_state2,stake,score,practice,rews1,rews2,background,high_arm,trial_type,trial_index,time_elapsed,internal_node_id,subid,stim_left_num,stim_right_num
0,2,object_10,object_09,750.9700001,3,2,1485.56,0.7777777777777778,1,object_07,1,7,0,7,3,forest_3,1,memory-2step-stake-s,495,871936,0.0-18.0-0.0-0.0,2099,4,3
1,3,object_02,object_05,689.4799998999999,6,1,-1.0,0.0,2,object_01,5,7,0,8,4,library_21,1,memory-2step-stake-s,496,880469,0.0-18.0-0.0-0.1,2099,6,5
2,3,object_02,object_05,885.5249999,5,2,989.0699999,1.0,1,object_07,1,16,0,9,4,library_24,1,memory-2step-stake-s,497,889602,0.0-18.0-0.0-0.2,2099,6,5
3,3,object_02,object_05,911.71,5,2,343.66,0.7777777777777778,1,object_07,5,51,0,7,4,library_23,1,memory-2step-stake-s,498,897893,0.0-18.0-0.0-0.3,2099,6,5
4,1,object_03,object_06,672.3450001,2,1,672.685,0.1111111111111111,2,object_01,1,52,0,9,1,desert_24,1,memory-2step-stake-s,499,905894,0.0-18.0-0.0-0.4,2099,2,1
5,1,object_03,object_06,1053.205,1,2,369.0950001,0.8888888888888888,1,object_07,5,92,0,8,2,desert_18,1,memory-2step-stake-s,500,914294,0.0-18.0-0.0-0.5,2099,2,1
6,2,object_09,object_10,821.32,3,1,375.08,0.7777777777777778,1,object_07,1,99,0,7,5,forest_25,1,memory-2step-stake-s,501,922604,0.0-18.0-0.0-0.6,2099,3,4
7,4,object_04,object_08,924.935,7,1,444.39,0.6666666666666666,1,object_07,5,129,0,6,4,restaurant_18,1,memory-2step-stake-s,502,930892,0.0-18.0-0.0-0.7,2099,7,8
8,2,object_09,object_10,853.3300001,3,1,353.17500010000003,0.4444444444444444,1,object_07,1,133,0,4,5,forest_5,1,memory-2step-stake-s,503,938876,0.0-18.0-0.0-0.8,2099,3,4
9,1,object_06,object_03,1481.44,1,1,418.705,0.6666666666666666,1,object_07,1,139,0,6,5,desert_31,1,memory-2step-stake-s,504,947132,0.0-18.0-0.0-0.9,2099,1,2
10,4,object_04,object_08,1357.115,8,2,553.425,0.2222222222222222,2,object_01,5,149,0,5,2,restaurant_21,1,memory-2step-stake-s,505,955122,0.0-18.0-0.0-0.10,2099,7,8
11,1,object_03,object_06,-1.0,-1,-1,-1.0,0.0,-,,1,149,0,5,2,desert_7,1,memory-2step-stake-s,506,961645,0.0-18.0-0.0-0.11,2099,2,1
12,2,object_10,object_09,761.1,3,2,327.99,0.8888888888888888,1,object_07,1,157,0,8,1,forest_20,1,memory-2step-stake-s,507,970024,0.0-18.0-0.0-0.12,2099,4,3
13,4,object_08,object_04,1093.98,7,2,502.175,0.6666666666666666,1,object_07,5,187,0,6,1,restaurant_23,1,memory-2step-stake-s,508,978365,0.0-18.0-0.0-0.13,2099,8,7
14,3,object_05,object_02,709.115,5,1,690.165,0.2222222222222222,1,object_07,5,197,0,2,3,library_12,1,memory-2step-stake-s,509,986487,0.0-18.0-0.0-0.14,2099,5,6
15,2,object_10,object_09,879.5949999,4,1,347.8100001,0.2222222222222222,2,object_01,5,207,0,3,2,forest_21,1,memory-2step-stake-s,510,994264,0.0-18.0-0.0-0.15,2099,4,3
16,2,object_09,object_10,744.6000001,3,1,365.485,0.8888888888888888,1,object_07,1,215,0,8,5,forest_18,1,memory-2step-stake-s,511,1002670,0.0-18.0-0.0-0.16,2099,3,4
17,2,object_09,object_10,503.36000010000004,3,1,365.36000010000004,0.7777777777777778,1,object_07,1,222,0,7,3,forest_29,1,memory-2step-stake-s,512,1010974,0.0-18.0-0.0-0.17,2099,3,4
18,1,object_03,object_06,1139.29,2,1,335.91500010000004,0.6666666666666666,2,object_01,5,252,0,8,6,desert_22,1,memory-2step-stake-s,513,1019158,0.0-18.0-0.0-0.18,2099,2,1
19,3,object_05,object_02,617.445,5,1,331.595,0.8888888888888888,1,object_07,5,292,0,8,7,library_24,1,memory-2step-stake-s,514,1027529,0.0-18.0-0.0-0.19,2099,5,6
20,2,object_10,object_09,869.935,3,2,424.1149999,0.8888888888888888,1,object_07,1,300,0,8,7,forest_18,1,memory-2step-stake-s,515,1035994,0.0-18.0-0.0-0.20,2099,4,3
21,3,object_02,object_05,1018.34,5,2,439.26,0.7777777777777778,1,object_07,1,307,0,7,6,library_19,1,memory-2step-stake-s,516,1044367,0.0-18.0-0.0-0.21,2099,6,5
22,1,object_06,object_03,667.5049999,2,2,356.335,0.4444444444444444,2,object_01,1,311,0,7,4,desert_22,1,memory-2step-stake-s,517,1052352,0.0-18.0-0.0-0.22,2099,1,2
23,3,object_05,object_02,479.65,5,1,430.63999989999996,0.7777777777777778,1,object_07,1,318,0,7,5,library_31,1,memory-2step-stake-s,518,1060725,0.0-18.0-0.0-0.23,2099,5,6
24,1,object_06,object_03,1060.67,1,1,370.3300001,0.5555555555555556,1,object_07,1,323,0,5,6,desert_23,1,memory-2step-stake-s,519,1068832,0.0-18.0-0.0-0.24,2099,1,2
25,2,object_10,object_09,932.16,3,2,289.815,0.8888888888888888,1,object_07,1,331,0,8,1,forest_24,1,memory-2step-stake-s,520,1077174,0.0-18.0-0.0-0.25,2099,4,3
26,2,object_09,object_10,729.2650001000001,3,1,305.355,0.5555555555555556,1,object_07,1,336,0,5,4,forest_10,1,memory-2step-stake-s,521,1085211,0.0-18.0-0.0-0.26,2099,3,4
27,3,object_05,object_02,707.32,5,1,343.70999989999996,0.2222222222222222,1,object_07,5,346,0,2,4,library_23,1,memory-2step-stake-s,522,1092987,0.0-18.0-0.0-0.27,2099,5,6
28,3,object_02,object_05,641.185,5,2,569.0499999,0.1111111111111111,1,object_07,5,351,0,1,2,library_1,1,memory-2step-stake-s,523,1100886,0.0-18.0-0.0-0.28,2099,6,5
29,4,object_08,object_04,750.335,7,2,251.285,0.1111111111111111,1,object_07,5,356,0,1,2,restaurant_28,1,memory-2step-stake-s,524,1108470,0.0-18.0-0.0-0.29,2099,8,7
30,2,object_10,object_09,1479.44,4,1,377.385,0.0,2,object_01,5,356,0,2,0,forest_18,1,memory-2step-stake-s,525,1116083,0.0-18.0-0.0-0.30,2099,4,3
31,1,object_03,object_06,1340.345,1,2,339.495,0.4444444444444444,1,object_07,1,360,0,4,1,desert_24,1,memory-2step-stake-s,526,1124055,0.0-18.0-0.0-0.31,2099,2,1
32,1,object_06,object_03,744.5650001,1,1,285.12,0.1111111111111111,1,object_07,1,361,0,1,1,desert_27,1,memory-2step-stake-s,527,1131671,0.0-18.0-0.0-0.32,2099,1,2
33,3,object_05,object_02,682.07,6,2,333.41,0.4444444444444444,2,object_01,5,381,0,0,4,library_22,1,memory-2step-stake-s,528,1139650,0.0-18.0-0.0-0.33,2099,5,6
34,4,object_04,object_08,817.375,8,2,374.475,0.4444444444444444,2,object_01,5,401,0,4,4,restaurant_3,1,memory-2step-stake-s,529,1147666,0.0-18.0-0.0-0.34,2099,7,8
35,4,object_04,object_08,1143.455,8,2,311.54500010000004,0.0,2,object_01,5,401,0,4,0,restaurant_2,1,memory-2step-stake-s,530,1155203,0.0-18.0-0.0-0.35,2099,7,8
36,2,object_09,object_10,766.28,3,1,345.02,0.2222222222222222,1,object_07,1,403,0,2,1,forest_32,1,memory-2step-stake-s,531,1162973,0.0-18.0-0.0-0.36,2099,3,4
37,1,object_03,object_06,826.75,1,2,414.5050001,0.1111111111111111,1,object_07,1,404,0,1,2,desert_10,1,memory-2step-stake-s,532,1170712,0.0-18.0-0.0-0.37,2099,2,1
38,3,object_02,object_05,797.36,6,1,326.3300001,0.3333333333333333,2,object_01,5,419,0,1,3,library_20,1,memory-2step-stake-s,533,1178568,0.0-18.0-0.0-0.38,2099,6,5
39,4,object_04,object_08,723.7699999,8,2,358.445,0.3333333333333333,2,object_01,1,422,0,1,3,restaurant_7,1,memory-2step-stake-s,534,1186457,0.0-18.0-0.0-0.39,2099,7,8
40,4,object_04,object_08,745.4799998999999,7,1,294.4550001,0.2222222222222222,1,object_07,5,432,0,2,7,restaurant_31,1,memory-2step-stake-s,535,1194185,0.0-18.0-0.0-0.40,2099,7,8
41,3,object_05,object_02,637.1800001,6,2,364.07,0.8888888888888888,2,object_01,5,472,0,5,8,library_18,1,memory-2step-stake-s,536,1202591,0.0-18.0-0.0-0.41,2099,5,6
42,3,object_02,object_05,970.98,6,1,458.9,0.8888888888888888,2,object_01,5,512,0,5,8,library_12,1,memory-2step-stake-s,537,1211092,0.0-18.0-0.0-0.42,2099,6,5
43,2,object_10,object_09,780.985,4,1,310.0950001,1.0,2,object_01,1,521,0,5,9,forest_25,1,memory-2step-stake-s,538,1219546,0.0-18.0-0.0-0.43,2099,4,3
44,4,object_08,object_04,708.3150001,8,1,329.085,0.8888888888888888,2,object_01,5,561,0,5,8,restaurant_19,1,memory-2step-stake-s,539,1227914,0.0-18.0-0.0-0.44,2099,8,7
45,4,object_04,object_08,1016.52,7,1,232.0749999,0.5555555555555556,1,object_07,5,586,0,5,5,restaurant_26,1,memory-2step-stake-s,540,1235889,0.0-18.0-0.0-0.45,2099,7,8
46,2,object_09,object_10,985.17,4,2,253.2950001,0.5555555555555556,2,object_01,5,611,0,5,5,forest_31,1,memory-2step-stake-s,541,1243877,0.0-18.0-0.0-0.46,2099,3,4
47,1,object_06,object_03,1292.04,1,1,595.75,0.3333333333333333,1,object_07,1,614,0,3,3,desert_7,1,memory-2step-stake-s,542,1252015,0.0-18.0-0.0-0.47,2099,1,2
48,4,object_08,object_04,802.7400001,8,1,342.65,0.4444444444444444,2,object_01,5,634,0,7,4,restaurant_6,1,memory-2step-stake-s,543,1260000,0.0-18.0-0.0-0.48,2099,8,7
49,4,object_04,object_08,1002.05,8,2,343.83499989999996,1.0,2,object_01,5,679,0,8,9,restaurant_26,1,memory-2step-stake-s,544,1268486,0.0-18.0-0.0-0.49,2099,7,8
50,1,object_03,object_06,812.53,2,1,319.4950001,0.7777777777777778,2,object_01,1,686,0,8,7,desert_25,1,memory-2step-stake-s,545,1276737,0.0-18.0-0.0-0.50,2099,2,1
51,1,object_06,object_03,1197.395,1,1,559.4,0.6666666666666666,1,object_07,1,692,0,6,6,desert_22,1,memory-2step-stake-s,546,1285126,0.0-18.0-0.0-0.51,2099,1,2
52,2,object_10,object_09,918.63,4,1,500.19,0.8888888888888888,2,object_01,1,700,0,7,8,forest_10,1,memory-2step-stake-s,547,1293671,0.0-18.0-0.0-0.52,2099,4,3
53,1,object_03,object_06,1052.48,2,1,456.62,0.7777777777777778,2,object_01,1,707,0,7,7,desert_5,1,memory-2step-stake-s,548,1302076,0.0-18.0-0.0-0.53,2099,2,1
54,3,object_05,object_02,965.125,6,2,510.395,0.7777777777777778,2,object_01,5,742,0,5,7,library_20,1,memory-2step-stake-s,549,1310525,0.0-18.0-0.0-0.54,2099,5,6
55,1,object_03,object_06,1203.945,2,1,365.17,0.8888888888888888,2,object_01,5,782,0,1,8,desert_7,1,memory-2step-stake-s,550,1318919,0.0-18.0-0.0-0.55,2099,2,1
56,3,object_05,object_02,657.4650001,6,2,308.55,1.0,2,object_01,1,791,0,2,9,library_21,1,memory-2step-stake-s,551,1327368,0.0-18.0-0.0-0.56,2099,5,6
57,4,object_04,object_08,1120.92,7,1,294.31,0.3333333333333333,1,object_07,5,806,0,3,6,restaurant_11,1,memory-2step-stake-s,552,1335191,0.0-18.0-0.0-0.57,2099,7,8
58,1,object_06,object_03,1064.595,2,2,499.9350001,0.5555555555555556,2,object_01,1,811,0,3,5,desert_11,1,memory-2step-stake-s,553,1343427,0.0-18.0-0.0-0.58,2099,1,2
59,4,object_04,object_08,913.8549998999999,8,2,416.65,0.3333333333333333,2,object_01,5,826,0,3,3,restaurant_6,1,memory-2step-stake-s,554,1351382,0.0-18.0-0.0-0.59,2099,7,8
60,3,object_05,object_02,681.36,5,1,295.83,0.3333333333333333,1,object_07,5,841,0,3,7,library_6,1,memory-2step-stake-s,555,1359213,0.0-18.0-0.0-0.60,2099,5,6
61,2,object_10,object_09,801.395,4,1,273.535,0.6666666666666666,2,object_01,1,847,0,0,6,forest_3,1,memory-2step-stake-s,556,1367333,0.0-18.0-0.0-0.61,2099,4,3
62,4,object_04,object_08,843.5,8,2,280.85,0.6666666666666666,2,object_01,5,877,0,0,6,restaurant_19,1,memory-2step-stake-s,557,1375449,0.0-18.0-0.0-0.62,2099,7,8
63,4,object_04,object_08,912.34,7,1,604.665,0.0,1,object_07,5,877,0,0,9,restaurant_2,1,memory-2step-stake-s,558,1383279,0.0-18.0-0.0-0.63,2099,7,8
64,4,object_04,object_08,774.35,8,2,477.9500001,1.0,2,object_01,1,886,0,0,9,restaurant_23,1,memory-2step-stake-s,559,1391903,0.0-18.0-0.0-0.64,2099,7,8
65,2,object_09,object_10,662.905,3,1,346.03,0.1111111111111111,1,object_07,1,887,0,1,8,forest_10,1,memory-2step-stake-s,560,1399578,0.0-18.0-0.0-0.65,2099,3,4
66,4,object_04,object_08,724.105,8,2,275.8150001,0.8888888888888888,2,object_01,5,927,0,1,8,restaurant_15,1,memory-2step-stake-s,561,1407893,0.0-18.0-0.0-0.66,2099,7,8
67,3,object_05,object_02,619.5149999,5,1,332.365,0.0,1,object_07,5,927,0,0,8,library_24,1,memory-2step-stake-s,562,1415453,0.0-18.0-0.0-0.67,2099,5,6
68,4,object_08,object_04,1007.41,8,1,389.49,0.7777777777777778,2,object_01,5,962,0,1,7,restaurant_20,1,memory-2step-stake-s,563,1423792,0.0-18.0-0.0-0.68,2099,8,7
69,1,object_03,object_06,1243.575,2,1,435.865,0.8888888888888888,2,object_01,5,1002,0,1,8,desert_10,1,memory-2step-stake-s,564,1432283,0.0-18.0-0.0-0.69,2099,2,1
70,1,object_06,object_03,805.82,2,2,401.15,0.7777777777777778,2,object_01,5,1037,0,3,7,desert_23,1,memory-2step-stake-s,565,1440635,0.0-18.0-0.0-0.70,2099,1,2
71,1,object_03,object_06,780.9050001,2,1,321.035,0.7777777777777778,2,object_01,1,1044,0,0,7,desert_1,1,memory-2step-stake-s,566,1448886,0.0-18.0-0.0-0.71,2099,2,1
72,1,object_03,object_06,808.9599999,2,1,274.045,0.8888888888888888,2,object_01,1,1052,0,2,8,desert_3,1,memory-2step-stake-s,567,1457196,0.0-18.0-0.0-0.72,2099,2,1
73,4,object_08,object_04,810.57,8,1,248.41,0.6666666666666666,2,object_01,5,1082,0,1,6,restaurant_26,1,memory-2step-stake-s,568,1465281,0.0-18.0-0.0-0.73,2099,8,7
74,1,object_06,object_03,792.73,2,2,324.4,0.6666666666666666,2,object_01,5,1112,0,0,6,desert_5,1,memory-2step-stake-s,569,1473445,0.0-18.0-0.0-0.74,2099,1,2
75,2,object_10,object_09,1029.26,4,1,248.24499989999998,0.8888888888888888,2,object_01,5,1152,0,2,8,forest_1,1,memory-2step-stake-s,570,1481740,0.0-18.0-0.0-0.75,2099,4,3
76,1,object_06,object_03,916.435,2,2,270.61,0.7777777777777778,2,object_01,5,1187,0,0,7,desert_31,1,memory-2step-stake-s,571,1489949,0.0-18.0-0.0-0.76,2099,1,2
77,3,object_05,object_02,1144.68,5,1,270.9999999,0.1111111111111111,1,object_07,1,1188,0,1,2,library_2,1,memory-2step-stake-s,572,1497544,0.0-18.0-0.0-0.77,2099,5,6
78,4,object_04,object_08,777.37,8,2,306.94,0.3333333333333333,2,object_01,5,1203,0,2,3,restaurant_3,1,memory-2step-stake-s,573,1505384,0.0-18.0-0.0-0.78,2099,7,8
79,4,object_08,object_04,756.21,8,1,398.85,0.3333333333333333,2,object_01,1,1206,0,2,3,restaurant_28,1,memory-2step-stake-s,574,1513312,0.0-18.0-0.0-0.79,2099,8,7
80,2,object_10,object_09,714.1550001,4,1,223.25500010000002,0.4444444444444444,2,object_01,1,1210,0,3,4,forest_2,1,memory-2step-stake-s,575,1521173,0.0-18.0-0.0-0.80,2099,4,3
81,2,object_09,object_10,997.85,4,2,326.92,0.3333333333333333,2,object_01,1,1213,0,4,3,forest_17,1,memory-2step-stake-s,576,1529029,0.0-18.0-0.0-0.81,2099,3,4
82,1,object_03,object_06,814.2499999,1,2,290.865,0.7777777777777778,1,object_07,1,1220,0,7,3,desert_10,1,memory-2step-stake-s,577,1537262,0.0-18.0-0.0-0.82,2099,2,1
83,3,object_02,object_05,605.3449999,5,2,417.29,0.6666666666666666,1,object_07,5,1250,0,6,1,library_1,1,memory-2step-stake-s,578,1545524,0.0-18.0-0.0-0.83,2099,6,5
84,1,object_06,object_03,825.9050001,2,2,333.245,0.4444444444444444,2,object_01,1,1254,0,3,4,desert_25,1,memory-2step-stake-s,579,1553497,0.0-18.0-0.0-0.84,2099,1,2
85,4,object_08,object_04,708.51,7,2,323.29,0.0,1,object_07,5,1254,0,0,6,restaurant_26,1,memory-2step-stake-s,580,1561044,0.0-18.0-0.0-0.85,2099,8,7
86,2,object_09,object_10,903.545,3,1,264.05,0.1111111111111111,1,object_07,1,1255,0,1,7,forest_20,1,memory-2step-stake-s,581,1568638,0.0-18.0-0.0-0.86,2099,3,4
87,4,object_08,object_04,751.07,7,2,572.975,0.1111111111111111,1,object_07,5,1260,0,1,6,restaurant_22,1,memory-2step-stake-s,582,1576538,0.0-18.0-0.0-0.87,2099,8,7
88,4,object_04,object_08,609.14,7,1,1070.73,0.0,1,object_07,5,1260,0,0,4,restaurant_23,1,memory-2step-stake-s,583,1584837,0.0-18.0-0.0-0.88,2099,7,8
89,3,object_05,object_02,711.1150001,6,2,334.96,0.8888888888888888,2,object_01,5,1300,0,0,8,library_31,1,memory-2step-stake-s,584,1593205,0.0-18.0-0.0-0.89,2099,5,6
90,2,object_10,object_09,1027.69,4,1,656.33,1.0,2,object_01,1,1309,0,0,9,forest_29,1,memory-2step-stake-s,585,1601995,0.0-18.0-0.0-0.90,2099,4,3
91,3,object_05,object_02,637.0499999,6,2,297.3150001,0.7777777777777778,2,object_01,5,1344,0,1,7,library_23,1,memory-2step-stake-s,586,1610224,0.0-18.0-0.0-0.91,2099,5,6
92,3,object_02,object_05,831.7999999,6,1,350.43,0.7777777777777778,2,object_01,5,1379,0,0,7,library_12,1,memory-2step-stake-s,587,1618520,0.0-18.0-0.0-0.92,2099,6,5
93,2,object_09,object_10,830.27,4,2,504.28,0.8888888888888888,2,object_01,5,1419,0,3,8,forest_2,1,memory-2step-stake-s,588,1627076,0.0-18.0-0.0-0.93,2099,3,4
94,4,object_08,object_04,720.62,8,1,374.215,1.0,2,object_01,5,1464,0,5,9,restaurant_20,1,memory-2step-stake-s,589,1635602,0.0-18.0-0.0-0.94,2099,8,7
95,2,object_10,object_09,655.42,3,2,331.5900001,0.4444444444444444,1,object_07,1,1468,0,4,9,forest_25,1,memory-2step-stake-s,590,1643569,0.0-18.0-0.0-0.95,2099,4,3
96,3,object_05,object_02,691.225,6,2,278.36,0.7777777777777778,2,object_01,5,1503,0,2,7,library_20,1,memory-2step-stake-s,591,1651798,0.0-18.0-0.0-0.96,2099,5,6
97,1,object_03,object_06,1047.95,2,1,345.405,0.6666666666666666,2,object_01,5,1533,0,1,6,desert_23,1,memory-2step-stake-s,592,1659984,0.0-18.0-0.0-0.97,2099,2,1
98,1,object_03,object_06,695.785,2,1,333.09,0.8888888888888888,2,object_01,1,1541,0,1,8,desert_18,1,memory-2step-stake-s,593,1668363,0.0-18.0-0.0-0.98,2099,2,1
99,4,object_08,object_04,878.5850001,8,1,541.895,1.0,2,object_01,5,1586,0,1,9,restaurant_20,1,memory-2step-stake-s,594,1677042,0.0-18.0-0.0-0.99,2099,8,7
100,4,object_08,object_04,687.215,8,1,366.51,0.6666666666666666,2,object_01,1,1592,0,0,6,restaurant_21,1,memory-2step-stake-s,595,1685245,0.0-18.0-0.0-0.100,2099,8,7
101,4,object_04,object_08,774.8250001,8,2,448.3350001,0.7777777777777778,2,object_01,5,1627,0,0,7,restaurant_15,1,memory-2step-stake-s,596,1693636,0.0-18.0-0.0-0.101,2099,7,8
102,1,object_06,object_03,1209.905,2,2,371.305,0.8888888888888888,2,object_01,1,1635,0,4,8,desert_18,1,memory-2step-stake-s,597,1702045,0.0-18.0-0.0-0.102,2099,1,2
103,3,object_05,object_02,494.47,6,2,341.56,0.6666666666666666,2,object_01,5,1665,0,7,6,library_13,1,memory-2step-stake-s,598,1710226,0.0-18.0-0.0-0.103,2099,5,6
104,2,object_09,object_10,951.0999999,4,2,434.95499989999996,0.7777777777777778,2,object_01,1,1672,0,8,7,forest_23,1,memory-2step-stake-s,599,1718595,0.0-18.0-0.0-0.104,2099,3,4
105,4,object_04,object_08,739.5049999,8,2,273.71,0.7777777777777778,2,object_01,5,1707,0,8,7,restaurant_22,1,memory-2step-stake-s,600,1726815,0.0-18.0-0.0-0.105,2099,7,8
106,1,object_06,object_03,893.115,2,2,373.86500010000003,0.1111111111111111,2,object_01,1,1708,0,6,1,desert_25,1,memory-2step-stake-s,601,1734519,0.0-18.0-0.0-0.106,2099,1,2
107,1,object_06,object_03,797.0349999,1,1,358.6649999,0.7777777777777778,1,object_07,1,1715,0,7,1,desert_1,1,memory-2step-stake-s,602,1742812,0.0-18.0-0.0-0.107,2099,1,2
108,2,object_10,object_09,627.22,3,2,251.4900001,0.8888888888888888,1,object_07,1,1723,0,8,1,forest_15,1,memory-2step-stake-s,603,1751106,0.0-18.0-0.0-0.108,2099,4,3
109,3,object_05,object_02,676.1449999,5,1,485.555,0.8888888888888888,1,object_07,5,1763,0,8,0,library_21,1,memory-2step-stake-s,604,1759629,0.0-18.0-0.0-0.109,2099,5,6
110,2,object_09,object_10,681.1950001,3,1,425.45,0.8888888888888888,1,object_07,1,1771,0,8,2,forest_3,1,memory-2step-stake-s,605,1768104,0.0-18.0-0.0-0.110,2099,3,4
111,3,object_05,object_02,596.42,5,1,369.72,0.8888888888888888,1,object_07,1,1779,0,8,4,library_2,1,memory-2step-stake-s,606,1776514,0.0-18.0-0.0-0.111,2099,5,6
112,3,object_02,object_05,615.1800001,5,2,305.86000010000004,0.6666666666666666,1,object_07,5,1809,0,6,8,library_9,1,memory-2step-stake-s,607,1784664,0.0-18.0-0.0-0.112,2099,6,5
113,3,object_02,object_05,525.0200001000001,5,2,330.325,0.5555555555555556,1,object_07,5,1834,0,5,9,library_6,1,memory-2step-stake-s,608,1792728,0.0-18.0-0.0-0.113,2099,6,5
114,4,object_04,object_08,848.825,8,2,273.0599999,0.8888888888888888,2,object_01,1,1842,0,7,8,restaurant_20,1,memory-2step-stake-s,609,1801054,0.0-18.0-0.0-0.114,2099,7,8
115,2,object_09,object_10,843.64,3,1,317.0299999,0.8888888888888888,1,object_07,5,1882,0,8,9,forest_3,1,memory-2step-stake-s,610,1809417,0.0-18.0-0.0-0.115,2099,3,4
116,4,object_04,object_08,699.97,7,1,404.75999989999997,0.8888888888888888,1,object_07,5,1922,0,8,8,restaurant_15,1,memory-2step-stake-s,611,1817870,0.0-18.0-0.0-0.116,2099,7,8
117,3,object_02,object_05,647.565,5,2,260.015,0.8888888888888888,1,object_07,5,1962,0,8,9,library_10,1,memory-2step-stake-s,612,1826174,0.0-18.0-0.0-0.117,2099,6,5
118,4,object_08,object_04,577.91,7,2,1215.965,0.8888888888888888,1,object_07,5,2002,0,8,5,restaurant_6,1,memory-2step-stake-s,613,1835443,0.0-18.0-0.0-0.118,2099,8,7
119,3,object_05,object_02,567.4050001,5,1,247.16,0.6666666666666666,1,object_07,1,2008,0,6,5,library_10,1,memory-2step-stake-s,614,1843530,0.0-18.0-0.0-0.119,2099,5,6
120,4,object_04,object_08,651.37,7,1,628.1900001,0.8888888888888888,1,object_07,5,2048,0,8,8,restaurant_25,1,memory-2step-stake-s,615,1852202,0.0-18.0-0.0-0.120,2099,7,8
121,1,object_06,object_03,1034.06,2,2,337.6,0.5555555555555556,2,object_01,1,2053,0,8,5,desert_7,1,memory-2step-stake-s,616,1860269,0.0-18.0-0.0-0.121,2099,1,2
122,4,object_04,object_08,475.57,7,1,331.155,1.0,1,object_07,5,2098,0,9,3,restaurant_25,1,memory-2step-stake-s,617,1868747,0.0-18.0-0.0-0.122,2099,7,8
123,3,object_05,object_02,652.595,5,1,285.18,1.0,1,object_07,5,2143,0,9,3,library_13,1,memory-2step-stake-s,618,1877179,0.0-18.0-0.0-0.123,2099,5,6
124,3,object_02,object_05,586.12,5,2,317.45499989999996,1.0,1,object_07,1,2152,0,9,5,library_9,1,memory-2step-stake-s,619,1885643,0.0-18.0-0.0-0.124,2099,6,5
125,1,object_03,object_06,777.915,2,1,368.9,0.2222222222222222,2,object_01,1,2154,0,8,2,desert_26,1,memory-2step-stake-s,620,1893446,0.0-18.0-0.0-0.125,2099,2,1
126,1,object_06,object_03,743.675,1,1,679.3000001,0.8888888888888888,1,object_07,1,2162,0,8,5,desert_31,1,memory-2step-stake-s,621,1902171,0.0-18.0-0.0-0.126,2099,1,2
127,3,object_05,object_02,621.3100001,5,1,324.42000010000004,0.7777777777777778,1,object_07,1,2169,0,7,1,library_10,1,memory-2step-stake-s,622,1910438,0.0-18.0-0.0-0.127,2099,5,6
128,2,object_09,object_10,896.31,3,1,328.995,0.7777777777777778,1,object_07,1,2176,0,7,3,forest_20,1,memory-2step-stake-s,624,2308757,0.0-18.0-0.1-0.128,2099,3,4
129,4,object_08,object_04,625.49,7,2,306.31,0.6666666666666666,1,object_07,5,2206,0,6,3,restaurant_28,1,memory-2step-stake-s,625,2316902,0.0-18.0-0.1-0.129,2099,8,7
130,2,object_10,object_09,823.8850001000001,3,2,313.4349999,0.6666666666666666,1,object_07,1,2212,0,6,4,forest_23,1,memory-2step-stake-s,626,2325067,0.0-18.0-0.1-0.130,2099,4,3
131,4,object_08,object_04,1232.035,7,2,517.28,0.5555555555555556,1,object_07,5,2237,0,5,7,restaurant_19,1,memory-2step-stake-s,627,2333323,0.0-18.0-0.1-0.131,2099,8,7
132,4,object_04,object_08,573.845,7,1,310.94499989999997,0.5555555555555556,1,object_07,5,2262,0,5,7,restaurant_19,1,memory-2step-stake-s,628,2341371,0.0-18.0-0.1-0.132,2099,7,8
133,2,object_09,object_10,535.39,4,2,668.9449999,0.6666666666666666,2,object_01,1,2268,0,4,6,forest_1,1,memory-2step-stake-s,629,2349879,0.0-18.0-0.1-0.133,2099,3,4
134,4,object_08,object_04,847.21,7,2,278.8300001,0.6666666666666666,1,object_07,5,2298,0,6,6,restaurant_22,1,memory-2step-stake-s,630,2358002,0.0-18.0-0.1-0.134,2099,8,7
135,1,object_03,object_06,1005.815,2,1,313.7449999,0.8888888888888888,2,object_01,1,2306,0,4,8,desert_12,1,memory-2step-stake-s,631,2366359,0.0-18.0-0.1-0.135,2099,2,1
136,1,object_03,object_06,721.43,2,1,855.5300001,0.7777777777777778,2,object_01,1,2313,0,3,7,desert_11,1,memory-2step-stake-s,632,2375170,0.0-18.0-0.1-0.136,2099,2,1
137,2,object_09,object_10,838.005,4,2,264.71,0.6666666666666666,2,object_01,5,2343,0,6,6,forest_17,1,memory-2step-stake-s,633,2383277,0.0-18.0-0.1-0.137,2099,3,4
138,1,object_06,object_03,1104.805,1,1,382.47,0.8888888888888888,1,object_07,1,2351,0,8,6,desert_11,1,memory-2step-stake-s,634,2391714,0.0-18.0-0.1-0.138,2099,1,2
139,1,object_06,object_03,1056.68,1,1,269.32,0.7777777777777778,1,object_07,1,2358,0,7,7,desert_31,1,memory-2step-stake-s,635,2399923,0.0-18.0-0.1-0.139,2099,1,2
140,3,object_05,object_02,1104.005,6,2,411.015,0.5555555555555556,2,object_01,5,2383,0,5,5,library_22,1,memory-2step-stake-s,636,2408067,0.0-18.0-0.1-0.140,2099,5,6
141,4,object_04,object_08,743.185,7,1,349.4450001,0.3333333333333333,1,object_07,1,2386,0,3,3,restaurant_22,1,memory-2step-stake-s,637,2415950,0.0-18.0-0.1-0.141,2099,7,8
142,2,object_10,object_09,1092.065,3,2,259.8250001,0.3333333333333333,1,object_07,1,2389,0,3,6,forest_18,1,memory-2step-stake-s,638,2423743,0.0-18.0-0.1-0.142,2099,4,3
143,1,object_03,object_06,619.8,2,1,285.01,0.7777777777777778,2,object_01,1,2396,0,3,7,desert_1,1,memory-2step-stake-s,639,2431972,0.0-18.0-0.1-0.143,2099,2,1
144,2,object_09,object_10,1123.725,4,2,253.04,0.7777777777777778,2,object_01,1,2403,0,2,7,forest_2,1,memory-2step-stake-s,640,2440164,0.0-18.0-0.1-0.144,2099,3,4
145,3,object_05,object_02,1036.845,6,2,284.705,1.0,2,object_01,5,2448,0,1,9,library_1,1,memory-2step-stake-s,641,2448602,0.0-18.0-0.1-0.145,2099,5,6
146,2,object_10,object_09,927.0500001,4,1,255.99,0.8888888888888888,2,object_01,1,2456,0,1,8,forest_5,1,memory-2step-stake-s,642,2456906,0.0-18.0-0.1-0.146,2099,4,3
147,1,object_06,object_03,667.9849998999999,2,2,283.0350001,1.0,2,object_01,1,2465,0,3,9,desert_26,1,memory-2step-stake-s,643,2465338,0.0-18.0-0.1-0.147,2099,1,2
148,1,object_03,object_06,651.0599999,2,1,241.945,0.6666666666666666,2,object_01,1,2471,0,4,6,desert_23,1,memory-2step-stake-s,644,2473429,0.0-18.0-0.1-0.148,2099,2,1
149,2,object_09,object_10,963.485,4,2,436.505,0.7777777777777778,2,object_01,1,2478,0,2,7,forest_10,1,memory-2step-stake-s,645,2481797,0.0-18.0-0.1-0.149,2099,3,4
150,3,object_02,object_05,686.29,6,1,809.8149999,0.7777777777777778,2,object_01,5,2513,0,1,7,library_1,1,memory-2step-stake-s,646,2490549,0.0-18.0-0.1-0.150,2099,6,5
151,1,object_03,object_06,633.04,2,1,437.5049999,0.4444444444444444,2,object_01,1,2517,0,0,4,desert_5,1,memory-2step-stake-s,647,2498619,0.0-18.0-0.1-0.151,2099,2,1
152,1,object_03,object_06,804.565,1,2,309.93,0.0,1,object_07,1,2517,0,0,2,desert_25,1,memory-2step-stake-s,648,2506150,0.0-18.0-0.1-0.152,2099,2,1
153,3,object_05,object_02,1054.46,6,2,485.69,0.5555555555555556,2,object_01,1,2522,0,0,5,library_13,1,memory-2step-stake-s,649,2514369,0.0-18.0-0.1-0.153,2099,5,6
154,3,object_05,object_02,743.4050001,6,2,298.5650001,0.3333333333333333,2,object_01,5,2537,0,1,3,library_12,1,memory-2step-stake-s,650,2522204,0.0-18.0-0.1-0.154,2099,5,6
155,2,object_10,object_09,1112.78,3,2,346.84,0.1111111111111111,1,object_07,1,2538,0,1,1,forest_21,1,memory-2step-stake-s,651,2529879,0.0-18.0-0.1-0.155,2099,4,3
156,4,object_04,object_08,690.835,8,2,450.8,0.2222222222222222,2,object_01,5,2548,0,2,2,restaurant_31,1,memory-2step-stake-s,652,2537756,0.0-18.0-0.1-0.156,2099,7,8
157,3,object_05,object_02,645.995,5,1,291.77,0.2222222222222222,1,object_07,5,2558,0,2,2,library_6,1,memory-2step-stake-s,653,2545474,0.0-18.0-0.1-0.157,2099,5,6
158,2,object_09,object_10,725.9750001,4,2,604.84,0.4444444444444444,2,object_01,1,2562,0,3,4,forest_21,1,memory-2step-stake-s,654,2553709,0.0-18.0-0.1-0.158,2099,3,4
159,2,object_10,object_09,1132.65,4,1,327.785,0.4444444444444444,2,object_01,1,2566,0,2,4,forest_17,1,memory-2step-stake-s,655,2561671,0.0-18.0-0.1-0.159,2099,4,3
160,2,object_09,object_10,748.65,4,2,-1.0,0.0,2,object_01,1,2566,0,2,4,forest_23,1,memory-2step-stake-s,656,2570202,0.0-18.0-0.1-0.160,2099,3,4
161,2,object_10,object_09,601.41,4,1,299.545,0.5555555555555556,2,object_01,1,2571,0,4,5,forest_32,1,memory-2step-stake-s,657,2578243,0.0-18.0-0.1-0.161,2099,4,3
162,4,object_08,object_04,638.0650001,8,1,236.405,0.5555555555555556,2,object_01,5,2596,0,5,5,restaurant_7,1,memory-2step-stake-s,658,2586211,0.0-18.0-0.1-0.162,2099,8,7
163,4,object_04,object_08,639.615,8,2,1225.855,0.1111111111111111,2,object_01,5,2601,0,4,1,restaurant_11,1,memory-2step-stake-s,659,2594771,0.0-18.0-0.1-0.163,2099,7,8
164,2,object_09,object_10,440.265,3,1,279.70999989999996,0.6666666666666666,1,object_07,1,2607,0,6,1,forest_31,1,memory-2step-stake-s,660,2602883,0.0-18.0-0.1-0.164,2099,3,4
165,3,object_05,object_02,663.5650001,5,1,297.3450001,0.8888888888888888,1,object_07,5,2647,0,8,1,library_20,1,memory-2step-stake-s,661,2611230,0.0-18.0-0.1-0.165,2099,5,6
166,3,object_05,object_02,565.18,5,1,445.5599999,0.7777777777777778,1,object_07,5,2682,0,7,2,library_2,1,memory-2step-stake-s,662,2619609,0.0-18.0-0.1-0.166,2099,5,6
167,2,object_09,object_10,699.685,3,1,476.0499999,0.7777777777777778,1,object_07,1,2689,0,7,1,forest_32,1,memory-2step-stake-s,663,2628034,0.0-18.0-0.1-0.167,2099,3,4
168,1,object_06,object_03,1018.385,1,1,298.255,1.0,1,object_07,1,2698,0,9,1,desert_24,1,memory-2step-stake-s,664,2636479,0.0-18.0-0.1-0.168,2099,1,2
169,4,object_08,object_04,866.8900001000001,7,2,-1.0,0.0,1,object_07,5,2698,0,9,2,restaurant_15,1,memory-2step-stake-s,665,2645007,0.0-18.0-0.1-0.169,2099,8,7
170,2,object_09,object_10,630.765,3,1,323.57,0.7777777777777778,1,object_07,1,2705,0,7,1,forest_15,1,memory-2step-stake-s,666,2653274,0.0-18.0-0.1-0.170,2099,3,4
171,2,object_10,object_09,1328.77,3,2,389.065,0.7777777777777778,1,object_07,1,2712,0,7,0,forest_32,1,memory-2step-stake-s,667,2661616,0.0-18.0-0.1-0.171,2099,4,3
172,2,object_10,object_09,678.96,3,2,1025.95,0.5555555555555556,1,object_07,1,2717,0,5,1,forest_5,1,memory-2step-stake-s,668,2670384,0.0-18.0-0.1-0.172,2099,4,3
173,1,object_06,object_03,944.8800001,2,2,339.8750001,0.3333333333333333,2,object_01,5,2732,0,6,3,desert_27,1,memory-2step-stake-s,669,2678254,0.0-18.0-0.1-0.173,2099,1,2
174,2,object_10,object_09,1050.905,3,2,202.52,0.8888888888888888,1,object_07,1,2740,0,8,2,forest_1,1,memory-2step-stake-s,670,2686507,0.0-18.0-0.1-0.174,2099,4,3
175,1,object_06,object_03,826.615,1,1,291.19499989999997,0.6666666666666666,1,object_07,1,2746,0,6,2,desert_12,1,memory-2step-stake-s,671,2694641,0.0-18.0-0.1-0.175,2099,1,2
176,1,object_06,object_03,636.8900001000001,1,1,382.265,0.8888888888888888,1,object_07,5,2786,0,8,1,desert_11,1,memory-2step-stake-s,672,2703067,0.0-18.0-0.1-0.176,2099,1,2
177,2,object_10,object_09,787.385,3,2,392.3750001,0.5555555555555556,1,object_07,1,2791,0,5,1,forest_5,1,memory-2step-stake-s,673,2711201,0.0-18.0-0.1-0.177,2099,4,3
178,3,object_05,object_02,566.515,5,1,285.35500010000004,0.5555555555555556,1,object_07,1,2796,0,5,2,library_19,1,memory-2step-stake-s,674,2719223,0.0-18.0-0.1-0.178,2099,5,6
179,4,object_08,object_04,617.625,7,2,391.285,0.7777777777777778,1,object_07,5,2831,0,7,7,restaurant_21,1,memory-2step-stake-s,675,2727564,0.0-18.0-0.1-0.179,2099,8,7
180,1,object_06,object_03,629.98,1,1,306.865,0.6666666666666666,1,object_07,1,2837,0,6,4,desert_10,1,memory-2step-stake-s,676,2735709,0.0-18.0-0.1-0.180,2099,1,2
181,3,object_05,object_02,570.4450001,5,1,276.755,0.4444444444444444,1,object_07,1,2841,0,4,0,library_22,1,memory-2step-stake-s,677,2743624,0.0-18.0-0.1-0.181,2099,5,6
182,2,object_09,object_10,946.295,3,1,276.56,0.4444444444444444,1,object_07,1,2845,0,4,3,forest_23,1,memory-2step-stake-s,678,2751538,0.0-18.0-0.1-0.182,2099,3,4
183,2,object_10,object_09,653.21,4,1,346.33,0.4444444444444444,2,object_01,1,2849,0,1,4,forest_21,1,memory-2step-stake-s,679,2759523,0.0-18.0-0.1-0.183,2099,4,3
184,1,object_06,object_03,859.59,2,2,326.7750001,0.1111111111111111,2,object_01,1,2850,0,2,1,desert_18,1,memory-2step-stake-s,680,2767171,0.0-18.0-0.1-0.184,2099,1,2
185,1,object_03,object_06,1060.95,1,2,386.82,0.2222222222222222,1,object_07,1,2852,0,2,0,desert_3,1,memory-2step-stake-s,681,2774990,0.0-18.0-0.1-0.185,2099,2,1
186,1,object_03,object_06,719.365,2,1,336.93,0.1111111111111111,2,object_01,1,2853,0,3,1,desert_32,1,memory-2step-stake-s,682,2782654,0.0-18.0-0.1-0.186,2099,2,1
187,4,object_08,object_04,945.37,7,2,445.21,0.2222222222222222,1,object_07,5,2863,0,2,3,restaurant_31,1,memory-2step-stake-s,683,2790532,0.0-18.0-0.1-0.187,2099,8,7
188,3,object_05,object_02,686.51,6,2,305.835,0.5555555555555556,2,object_01,5,2888,0,1,5,library_18,1,memory-2step-stake-s,684,2798569,0.0-18.0-0.1-0.188,2099,5,6
189,1,object_06,object_03,1026.33,2,2,383.32,0.8888888888888888,2,object_01,1,2896,0,0,8,desert_24,1,memory-2step-stake-s,685,2807007,0.0-18.0-0.1-0.189,2099,1,2
190,4,object_08,object_04,1124.05,7,2,355.5599999,0.1111111111111111,1,object_07,1,2897,0,1,7,restaurant_23,1,memory-2step-stake-s,686,2814692,0.0-18.0-0.1-0.190,2099,8,7
191,4,object_08,object_04,712.065,8,1,292.14,0.7777777777777778,2,object_01,5,2932,0,1,7,restaurant_25,1,memory-2step-stake-s,687,2822923,0.0-18.0-0.1-0.191,2099,8,7
192,2,object_10,object_09,777.92,4,1,320.315,0.7777777777777778,2,object_01,5,2967,0,2,7,forest_15,1,memory-2step-stake-s,688,2831189,0.0-18.0-0.1-0.192,2099,4,3
193,4,object_08,object_04,823.135,8,1,276.28,0.7777777777777778,2,object_01,5,3002,0,2,7,restaurant_31,1,memory-2step-stake-s,689,2839397,0.0-18.0-0.1-0.193,2099,8,7
194,2,object_09,object_10,-1.0,-1,-1,-1.0,0.0,-,,5,3002,0,4,5,forest_29,1,memory-2step-stake-s,690,2845915,0.0-18.0-0.1-0.194,2099,3,4
195,3,object_02,object_05,684.24,6,1,435.93,0.6666666666666666,2,object_01,5,3032,0,3,6,library_2,1,memory-2step-stake-s,691,2854192,0.0-18.0-0.1-0.195,2099,6,5
196,2,object_10,object_09,497.93,4,1,284.035,0.4444444444444444,2,object_01,5,3052,0,6,4,forest_24,1,memory-2step-stake-s,692,2862112,0.0-18.0-0.1-0.196,2099,4,3
197,1,object_03,object_06,718.0,2,1,318.85,0.2222222222222222,2,object_01,5,3062,0,6,2,desert_32,1,memory-2step-stake-s,693,2869862,0.0-18.0-0.1-0.197,2099,2,1
198,2,object_09,object_10,904.61,4,2,378.205,0.3333333333333333,2,object_01,1,3065,0,5,3,forest_20,1,memory-2step-stake-s,694,2877772,0.0-18.0-0.1-0.198,2099,3,4
199,4,object_08,object_04,639.565,7,2,318.13,0.6666666666666666,1,object_07,5,3095,0,6,4,restaurant_18,1,memory-2step-stake-s,695,2885921,0.0-18.0-0.1-0.199,2099,8,7
200,3,object_05,object_02,1104.205,5,1,673.195,0.4444444444444444,1,object_07,5,3115,0,4,5,library_6,1,memory-2step-stake-s,696,2894231,0.0-18.0-0.1-0.200,2099,5,6
201,3,object_02,object_05,789.915,5,2,356.025,0.1111111111111111,1,object_07,5,3120,0,1,7,library_9,1,memory-2step-stake-s,697,2901915,0.0-18.0-0.1-0.201,2099,6,5
202,4,object_04,object_08,1131.805,8,2,324.2650001,0.6666666666666666,2,object_01,1,3126,0,1,6,restaurant_11,1,memory-2step-stake-s,698,2910087,0.0-18.0-0.1-0.202,2099,7,8
203,1,object_03,object_06,1129.28,2,1,354.68,0.6666666666666666,2,object_01,1,3132,0,2,6,desert_26,1,memory-2step-stake-s,699,2918290,0.0-18.0-0.1-0.203,2099,2,1
204,1,object_06,object_03,785.1250001,2,2,179.60500009999998,0.1111111111111111,2,object_01,1,3133,0,7,1,desert_27,1,memory-2step-stake-s,700,2925807,0.0-18.0-0.1-0.204,2099,1,2
205,2,object_10,object_09,934.18,3,2,380.3750001,0.5555555555555556,1,object_07,1,3138,0,5,4,forest_31,1,memory-2step-stake-s,701,2933933,0.0-18.0-0.1-0.205,2099,4,3
206,3,object_05,object_02,1016.07,6,2,286.79,0.3333333333333333,2,object_01,5,3153,0,5,3,library_31,1,memory-2step-stake-s,702,2941754,0.0-18.0-0.1-0.206,2099,5,6
207,1,object_03,object_06,685.075,1,2,257.645,0.6666666666666666,1,object_07,1,3159,0,6,2,desert_22,1,memory-2step-stake-s,703,2949848,0.0-18.0-0.1-0.207,2099,2,1
208,4,object_04,object_08,770.87,8,2,399.675,0.2222222222222222,2,object_01,1,3161,0,5,2,restaurant_18,1,memory-2step-stake-s,704,2957689,0.0-18.0-0.1-0.208,2099,7,8
209,1,object_03,object_06,617.04,1,2,243.895,0.3333333333333333,1,object_07,1,3164,0,3,2,desert_12,1,memory-2step-stake-s,705,2965465,0.0-18.0-0.1-0.209,2099,2,1
210,4,object_04,object_08,740.5,8,2,310.865,0.0,2,object_01,5,3164,0,0,0,restaurant_3,1,memory-2step-stake-s,706,2973001,0.0-18.0-0.1-0.210,2099,7,8
211,4,object_08,object_04,860.66,7,2,302.685,0.4444444444444444,1,object_07,5,3184,0,4,1,restaurant_6,1,memory-2step-stake-s,707,2980943,0.0-18.0-0.1-0.211,2099,8,7
212,3,object_02,object_05,791.4850001,6,1,300.485,0.2222222222222222,2,object_01,5,3194,0,1,2,library_10,1,memory-2step-stake-s,708,2988665,0.0-18.0-0.1-0.212,2099,6,5
213,3,object_05,object_02,661.175,5,1,281.26,0.1111111111111111,1,object_07,1,3195,0,1,4,library_14,1,memory-2step-stake-s,709,2996282,0.0-18.0-0.1-0.213,2099,5,6
214,3,object_05,object_02,531.7599999,5,1,306.615,0.1111111111111111,1,object_07,5,3200,0,1,9,library_18,1,memory-2step-stake-s,710,3003914,0.0-18.0-0.1-0.214,2099,5,6
215,3,object_05,object_02,573.89,6,2,268.1550001,1.0,2,object_01,5,3245,0,5,9,library_21,1,memory-2step-stake-s,711,3012330,0.0-18.0-0.1-0.215,2099,5,6
216,4,object_08,object_04,600.29,7,2,262.015,0.2222222222222222,1,object_07,5,3255,0,2,5,restaurant_7,1,memory-2step-stake-s,712,3020026,0.0-18.0-0.1-0.216,2099,8,7
217,1,object_06,object_03,1052.335,2,2,313.805,0.4444444444444444,2,object_01,1,3259,0,1,4,desert_27,1,memory-2step-stake-s,713,3027977,0.0-18.0-0.1-0.217,2099,1,2
218,3,object_05,object_02,884.2,6,2,542.9999999,0.3333333333333333,2,object_01,5,3274,0,0,3,library_24,1,memory-2step-stake-s,714,3036054,0.0-18.0-0.1-0.218,2099,5,6
219,3,object_02,object_05,899.5449999,6,1,1048.925,0.2222222222222222,2,object_01,5,3284,0,1,2,library_18,1,memory-2step-stake-s,715,3044534,0.0-18.0-0.1-0.219,2099,6,5
220,4,object_08,object_04,983.52,8,1,1476.695,0.0,2,object_01,5,3284,0,0,0,restaurant_18,1,memory-2step-stake-s,716,3053231,0.0-18.0-0.1-0.220,2099,8,7
221,1,object_06,object_03,1336.8,1,1,402.3749999,0.1111111111111111,1,object_07,1,3285,0,1,3,desert_12,1,memory-2step-stake-s,717,3060961,0.0-18.0-0.1-0.221,2099,1,2
222,1,object_03,object_06,1374.015,2,1,915.0899999,0.4444444444444444,2,object_01,1,3289,0,0,4,desert_32,1,memory-2step-stake-s,718,3069520,0.0-18.0-0.1-0.222,2099,2,1
223,4,object_04,object_08,1246.34,8,2,409.205,0.1111111111111111,2,object_01,5,3294,0,1,1,restaurant_2,1,memory-2step-stake-s,719,3077255,0.0-18.0-0.1-0.223,2099,7,8
224,2,object_09,object_10,684.3,3,1,302.8750001,0.0,1,object_07,1,3294,0,0,0,forest_24,1,memory-2step-stake-s,720,3084780,0.0-18.0-0.1-0.224,2099,3,4
225,2,object_09,object_10,917.185,4,2,303.835,0.1111111111111111,2,object_01,5,3299,0,1,1,forest_31,1,memory-2step-stake-s,721,3092417,0.0-18.0-0.1-0.225,2099,3,4
226,2,object_09,object_10,673.925,4,2,430.035,0.0,2,object_01,1,3299,0,0,0,forest_15,1,memory-2step-stake-s,722,3100071,0.0-18.0-0.1-0.226,2099,3,4
227,3,object_05,object_02,623.0400001,5,1,275.69,0.1111111111111111,1,object_07,5,3304,0,1,4,library_31,1,memory-2step-stake-s,723,3107677,0.0-18.0-0.1-0.227,2099,5,6
228,4,object_04,object_08,964.3849999,7,1,352.95999989999996,0.1111111111111111,1,object_07,5,3309,0,1,4,restaurant_25,1,memory-2step-stake-s,724,3115357,0.0-18.0-0.1-0.228,2099,7,8
229,2,object_09,object_10,718.9,4,2,310.61,0.3333333333333333,2,object_01,1,3312,0,2,3,forest_17,1,memory-2step-stake-s,725,3123197,0.0-18.0-0.1-0.229,2099,3,4
230,3,object_02,object_05,548.185,6,1,295.555,0.2222222222222222,2,object_01,5,3322,0,1,2,library_13,1,memory-2step-stake-s,726,3130912,0.0-18.0-0.1-0.230,2099,6,5
231,3,object_02,object_05,510.58499989999996,5,2,283.35500010000004,0.2222222222222222,1,object_07,5,3332,0,2,2,library_22,1,memory-2step-stake-s,727,3138633,0.0-18.0-0.1-0.231,2099,6,5
232,3,object_05,object_02,927.89,5,1,536.8999999,0.2222222222222222,1,object_07,5,3342,0,2,4,library_14,1,memory-2step-stake-s,728,3146595,0.0-18.0-0.1-0.232,2099,5,6
233,4,object_08,object_04,1119.215,8,1,325.23,0.7777777777777778,2,object_01,5,3377,0,0,7,restaurant_28,1,memory-2step-stake-s,729,3154868,0.0-18.0-0.1-0.233,2099,8,7
234,4,object_04,object_08,906.5950001,8,2,533.45,0.6666666666666666,2,object_01,1,3383,0,1,6,restaurant_21,1,memory-2step-stake-s,730,3163236,0.0-18.0-0.1-0.234,2099,7,8
235,2,object_09,object_10,-1.0,-1,-1,-1.0,0.0,-,,1,3383,0,2,5,forest_2,1,memory-2step-stake-s,731,3169754,0.0-18.0-0.1-0.235,2099,3,4
236,3,object_02,object_05,909.145,6,1,337.22,0.7777777777777778,2,object_01,5,3418,0,1,7,library_19,1,memory-2step-stake-s,732,3178026,0.0-18.0-0.1-0.236,2099,6,5
237,4,object_08,object_04,589.7199999,8,1,304.545,1.0,2,object_01,5,3463,0,3,9,restaurant_7,1,memory-2step-stake-s,733,3186468,0.0-18.0-0.1-0.237,2099,8,7
238,1,object_06,object_03,725.43,2,2,433.6550001,0.6666666666666666,2,object_01,1,3469,0,0,6,desert_3,1,memory-2step-stake-s,734,3194739,0.0-18.0-0.1-0.238,2099,1,2
239,3,object_02,object_05,725.95,6,1,336.67,0.7777777777777778,2,object_01,5,3504,0,0,7,library_23,1,memory-2step-stake-s,735,3203019,0.0-18.0-0.1-0.239,2099,6,5
240,1,object_03,object_06,621.04,2,1,267.21,0.6666666666666666,2,object_01,1,3510,0,0,6,desert_32,1,memory-2step-stake-s,736,3211115,0.0-18.0-0.1-0.240,2099,2,1
241,3,object_05,object_02,625.87,6,2,313.32999989999996,0.5555555555555556,2,object_01,1,3515,0,2,5,library_19,1,memory-2step-stake-s,737,3219168,0.0-18.0-0.1-0.241,2099,5,6
242,1,object_03,object_06,603.22,2,1,315.0350001,0.6666666666666666,2,object_01,1,3521,0,2,6,desert_26,1,memory-2step-stake-s,738,3227318,0.0-18.0-0.1-0.242,2099,2,1
243,2,object_09,object_10,721.085,4,2,322.9650001,0.3333333333333333,2,object_01,1,3524,0,3,3,forest_24,1,memory-2step-stake-s,739,3235174,0.0-18.0-0.1-0.243,2099,3,4
244,3,object_02,object_05,552.535,5,2,276.95,0.2222222222222222,1,object_07,5,3534,0,2,3,library_14,1,memory-2step-stake-s,740,3242886,0.0-18.0-0.1-0.244,2099,6,5
245,1,object_03,object_06,754.8550001,2,1,271.55000010000003,0.2222222222222222,2,object_01,1,3536,0,2,2,desert_1,1,memory-2step-stake-s,741,3250593,0.0-18.0-0.1-0.245,2099,2,1
246,2,object_09,object_10,1033.95,3,1,244.845,0.1111111111111111,1,object_07,1,3537,0,1,2,forest_1,1,memory-2step-stake-s,742,3258167,0.0-18.0-0.1-0.246,2099,3,4
247,3,object_02,object_05,613.59,5,2,239.18500010000002,0.6666666666666666,1,object_07,5,3567,0,6,1,library_14,1,memory-2step-stake-s,743,3266242,0.0-18.0-0.1-0.247,2099,6,5
248,4,object_04,object_08,890.5400001,8,2,267.025,0.2222222222222222,2,object_01,5,3577,0,5,2,restaurant_11,1,memory-2step-stake-s,744,3273938,0.0-18.0-0.1-0.248,2099,7,8
249,1,object_06,object_03,1108.72,1,1,513.27,0.3333333333333333,1,object_07,5,3592,0,3,1,desert_5,1,memory-2step-stake-s,745,3281981,0.0-18.0-0.1-0.249,2099,1,2
250,2,object_09,object_10,787.2949999,4,2,346.19,0.2222222222222222,2,object_01,1,3594,0,4,2,forest_29,1,memory-2step-stake-s,746,3289757,0.0-18.0-0.1-0.250,2099,3,4
251,4,object_08,object_04,610.93,7,2,287.51999989999996,0.6666666666666666,1,object_07,5,3624,0,6,1,restaurant_2,1,memory-2step-stake-s,747,3297877,0.0-18.0-0.1-0.251,2099,8,7
252,3,object_02,object_05,518.6599999,5,2,258.64499989999996,0.4444444444444444,1,object_07,5,3644,0,4,1,library_9,1,memory-2step-stake-s,748,3305773,0.0-18.0-0.1-0.252,2099,6,5
253,1,object_03,object_06,913.7850001,1,2,347.74,0.3333333333333333,1,object_07,1,3647,0,3,1,desert_3,1,memory-2step-stake-s,749,3313651,0.0-18.0-0.1-0.253,2099,2,1
254,2,object_09,object_10,726.885,3,1,271.4450001,0.1111111111111111,1,object_07,1,3648,0,1,4,forest_25,1,memory-2step-stake-s,750,3321251,0.0-18.0-0.1-0.254,2099,3,4
255,4,object_04,object_08,668.51,7,1,356.915,0.1111111111111111,1,object_07,1,3649,0,1,1,restaurant_3,1,memory-2step-stake-s,751,3328932,0.0-18.0-0.1-0.255,2099,7,8
