,state1,stim_left,stim_right,rt_1,choice1,response1,rt_2,points,state2,stim_state2,stake,score,practice,rews1,rews2,background,high_arm,trial_type,trial_index,time_elapsed,internal_node_id,subid,stim_left_num,stim_right_num
0,2,object_05,object_02,957.8,3,2,-1.0,0.0,1,object_01,1,0,0,3,2,forest_21,1,memory-2step-stake-s,490,829703,0.0-18.0-0.0-0.0,2912,4,3
1,3,object_08,object_07,1337.85,5,1,-1.0,0.0,1,object_01,5,0,0,2,5,library_30,1,memory-2step-stake-s,491,838308,0.0-18.0-0.0-0.1,2912,5,6
2,2,object_05,object_02,1244.46,4,1,567.455,0.7777777777777778,2,object_09,1,7,0,4,7,forest_17,1,memory-2step-stake-s,492,846943,0.0-18.0-0.0-0.2,2912,4,3
3,3,object_08,object_07,1049.195,6,2,482.7,0.8888888888888888,2,object_09,5,47,0,8,8,library_30,1,memory-2step-stake-s,493,855602,0.0-18.0-0.0-0.3,2912,5,6
4,1,object_10,object_03,1046.98,1,2,920.095,0.8888888888888888,1,object_01,5,87,0,8,7,desert_25,1,memory-2step-stake-s,494,864659,0.0-18.0-0.0-0.4,2912,2,1
5,1,object_03,object_10,724.87,2,2,565.92,0.7777777777777778,2,object_09,1,94,0,7,7,desert_32,1,memory-2step-stake-s,495,873275,0.0-18.0-0.0-0.5,2912,1,2
6,4,object_06,object_04,1134.16,7,1,560.74,0.6666666666666666,1,object_01,5,124,0,6,8,restaurant_31,1,memory-2step-stake-s,496,881792,0.0-18.0-0.0-0.6,2912,7,8
7,4,object_04,object_06,832.34,7,2,326.185,1.0,1,object_01,5,169,0,9,7,restaurant_25,1,memory-2step-stake-s,497,890410,0.0-18.0-0.0-0.7,2912,8,7
8,2,object_05,object_02,671.76,4,1,424.98,0.5555555555555556,2,object_09,1,174,0,9,5,forest_9,1,memory-2step-stake-s,498,898708,0.0-18.0-0.0-0.8,2912,4,3
9,3,object_07,object_08,562.93,5,2,621.755,0.8888888888888888,1,object_01,5,214,0,8,3,library_17,1,memory-2step-stake-s,499,907510,0.0-18.0-0.0-0.9,2912,6,5
10,4,object_06,object_04,654.935,7,1,824.915,0.8888888888888888,1,object_01,1,222,0,8,4,restaurant_26,1,memory-2step-stake-s,500,916497,0.0-18.0-0.0-0.10,2912,7,8
11,4,object_04,object_06,797.4400001,7,2,359.8250001,0.8888888888888888,1,object_01,5,262,0,8,3,restaurant_4,1,memory-2step-stake-s,501,925019,0.0-18.0-0.0-0.11,2912,8,7
12,3,object_07,object_08,840.8149999,6,1,651.42,0.0,2,object_09,5,262,0,8,0,library_19,1,memory-2step-stake-s,502,932951,0.0-18.0-0.0-0.12,2912,6,5
13,2,object_05,object_02,826.12,3,2,392.785,1.0,1,object_01,5,307,0,9,3,forest_24,1,memory-2step-stake-s,503,941594,0.0-18.0-0.0-0.13,2912,4,3
14,4,object_06,object_04,599.77,7,1,420.7,0.5555555555555556,1,object_01,1,312,0,5,1,restaurant_6,1,memory-2step-stake-s,504,949857,0.0-18.0-0.0-0.14,2912,7,8
15,3,object_07,object_08,-1.0,-1,-1,-1.0,0.0,-,,5,312,0,5,3,library_4,1,memory-2step-stake-s,505,956422,0.0-18.0-0.0-0.15,2912,6,5
16,3,object_07,object_08,663.91,5,2,548.985,0.3333333333333333,1,object_01,5,327,0,3,8,library_31,1,memory-2step-stake-s,506,964585,0.0-18.0-0.0-0.16,2912,6,5
17,3,object_08,object_07,955.015,6,2,526.27,1.0,2,object_09,5,372,0,5,9,library_12,1,memory-2step-stake-s,507,973394,0.0-18.0-0.0-0.17,2912,5,6
18,2,object_02,object_05,1117.17,4,2,355.815,1.0,2,object_09,1,381,0,2,9,forest_8,1,memory-2step-stake-s,508,982030,0.0-18.0-0.0-0.18,2912,3,4
19,3,object_08,object_07,863.625,6,2,302.19,1.0,2,object_09,5,426,0,1,9,library_12,1,memory-2step-stake-s,509,990569,0.0-18.0-0.0-0.19,2912,5,6
20,2,object_05,object_02,602.48,4,1,-1.0,0.0,2,object_09,1,426,0,1,9,forest_6,1,memory-2step-stake-s,510,999129,0.0-18.0-0.0-0.20,2912,4,3
21,3,object_08,object_07,774.275,5,1,346.865,0.3333333333333333,1,object_01,5,441,0,3,7,library_8,1,memory-2step-stake-s,511,1007060,0.0-18.0-0.0-0.21,2912,5,6
22,2,object_05,object_02,888.295,3,2,312.305,0.5555555555555556,1,object_01,5,466,0,5,5,forest_31,1,memory-2step-stake-s,512,1015243,0.0-18.0-0.0-0.22,2912,4,3
23,2,object_05,object_02,761.99,3,2,309.285,0.3333333333333333,1,object_01,5,481,0,3,6,forest_17,1,memory-2step-stake-s,513,1023176,0.0-18.0-0.0-0.23,2912,4,3
24,3,object_07,object_08,1247.115,6,1,377.83,0.8888888888888888,2,object_09,5,521,0,1,8,library_19,1,memory-2step-stake-s,514,1031719,0.0-18.0-0.0-0.24,2912,6,5
25,3,object_08,object_07,894.18,6,2,443.105,0.8888888888888888,2,object_09,5,561,0,4,8,library_1,1,memory-2step-stake-s,515,1040314,0.0-18.0-0.0-0.25,2912,5,6
26,3,object_07,object_08,840.04,6,1,256.785,0.6666666666666666,2,object_09,1,567,0,6,6,library_1,1,memory-2step-stake-s,516,1048484,0.0-18.0-0.0-0.26,2912,6,5
27,1,object_03,object_10,907.235,2,2,526.46,0.5555555555555556,2,object_09,1,572,0,8,5,desert_20,1,memory-2step-stake-s,517,1056810,0.0-18.0-0.0-0.27,2912,1,2
28,3,object_08,object_07,1125.065,5,1,520.525,0.4444444444444444,1,object_01,5,592,0,4,3,library_19,1,memory-2step-stake-s,518,1065027,0.0-18.0-0.0-0.28,2912,5,6
29,1,object_10,object_03,616.285,2,1,416.725,0.6666666666666666,2,object_09,1,598,0,3,6,desert_20,1,memory-2step-stake-s,519,1073455,0.0-18.0-0.0-0.29,2912,2,1
30,1,object_10,object_03,948.66,2,1,639.175,0.7777777777777778,2,object_09,5,633,0,3,7,desert_11,1,memory-2step-stake-s,520,1082088,0.0-18.0-0.0-0.30,2912,2,1
31,2,object_05,object_02,811.165,4,1,1196.845,1.0,2,object_09,1,642,0,5,9,forest_2,1,memory-2step-stake-s,521,1091559,0.0-18.0-0.0-0.31,2912,4,3
32,4,object_06,object_04,1003.75,8,2,487.85,0.7777777777777778,2,object_09,5,677,0,0,7,restaurant_15,1,memory-2step-stake-s,522,1100093,0.0-18.0-0.0-0.32,2912,7,8
33,1,object_03,object_10,867.9050001,1,1,320.82,0.2222222222222222,1,object_01,1,679,0,2,7,desert_8,1,memory-2step-stake-s,523,1107907,0.0-18.0-0.0-0.33,2912,1,2
34,2,object_02,object_05,808.19,4,2,334.29,0.8888888888888888,2,object_09,1,687,0,2,8,forest_13,1,memory-2step-stake-s,524,1116354,0.0-18.0-0.0-0.34,2912,3,4
35,1,object_03,object_10,1168.3,2,2,353.125,1.0,2,object_09,1,696,0,3,9,desert_25,1,memory-2step-stake-s,525,1124936,0.0-18.0-0.0-0.35,2912,1,2
36,3,object_08,object_07,761.145,5,1,300.2,0.5555555555555556,1,object_01,1,701,0,5,5,library_16,1,memory-2step-stake-s,526,1133097,0.0-18.0-0.0-0.36,2912,5,6
37,1,object_10,object_03,944.095,1,2,317.7,0.6666666666666666,1,object_01,1,707,0,6,2,desert_31,1,memory-2step-stake-s,527,1141339,0.0-18.0-0.0-0.37,2912,2,1
38,1,object_10,object_03,750.47,1,2,325.115,0.6666666666666666,1,object_01,1,713,0,6,4,desert_10,1,memory-2step-stake-s,528,1149617,0.0-18.0-0.0-0.38,2912,2,1
39,3,object_08,object_07,695.66,5,1,322.405,0.7777777777777778,1,object_01,5,748,0,7,2,library_2,1,memory-2step-stake-s,529,1157989,0.0-18.0-0.0-0.39,2912,5,6
40,3,object_08,object_07,873.68,6,2,311.35,0.0,2,object_09,1,748,0,7,0,library_16,1,memory-2step-stake-s,530,1165592,0.0-18.0-0.0-0.40,2912,5,6
41,1,object_10,object_03,1260.775,1,2,363.6,0.5555555555555556,1,object_01,1,753,0,5,1,desert_2,1,memory-2step-stake-s,531,1173795,0.0-18.0-0.0-0.41,2912,2,1
42,2,object_05,object_02,958.99,4,1,319.395,0.1111111111111111,2,object_09,1,754,0,5,1,forest_2,1,memory-2step-stake-s,532,1181491,0.0-18.0-0.0-0.42,2912,4,3
43,4,object_04,object_06,686.06,7,2,354.855,0.6666666666666666,1,object_01,1,760,0,6,0,restaurant_4,1,memory-2step-stake-s,533,1189779,0.0-18.0-0.0-0.43,2912,8,7
44,4,object_04,object_06,750.965,7,2,310.66,0.3333333333333333,1,object_01,5,775,0,3,2,restaurant_17,1,memory-2step-stake-s,534,1197717,0.0-18.0-0.0-0.44,2912,8,7
45,4,object_06,object_04,786.24,8,2,333.51,0.2222222222222222,2,object_09,5,785,0,4,2,restaurant_20,1,memory-2step-stake-s,535,1205558,0.0-18.0-0.0-0.45,2912,7,8
46,1,object_03,object_10,923.805,1,1,446.81,0.3333333333333333,1,object_01,1,788,0,3,2,desert_24,1,memory-2step-stake-s,536,1213591,0.0-18.0-0.0-0.46,2912,1,2
47,3,object_08,object_07,1066.18,6,2,516.925,0.5555555555555556,2,object_09,5,813,0,2,5,library_11,1,memory-2step-stake-s,537,1221952,0.0-18.0-0.0-0.47,2912,5,6
48,4,object_04,object_06,944.95,7,2,402.335,0.3333333333333333,1,object_01,1,816,0,3,2,restaurant_32,1,memory-2step-stake-s,538,1229937,0.0-18.0-0.0-0.48,2912,8,7
49,4,object_04,object_06,773.925,8,1,323.19,0.4444444444444444,2,object_09,5,836,0,2,4,restaurant_14,1,memory-2step-stake-s,539,1238003,0.0-18.0-0.0-0.49,2912,8,7
50,2,object_02,object_05,1162.22,3,1,391.6,0.1111111111111111,1,object_01,1,837,0,1,4,forest_11,1,memory-2step-stake-s,540,1245785,0.0-18.0-0.0-0.50,2912,3,4
51,2,object_05,object_02,915.425,4,1,342.715,0.2222222222222222,2,object_09,1,839,0,1,2,forest_15,1,memory-2step-stake-s,541,1253629,0.0-18.0-0.0-0.51,2912,4,3
52,3,object_08,object_07,1192.155,5,1,407.8,0.0,1,object_01,5,839,0,0,1,library_31,1,memory-2step-stake-s,542,1261289,0.0-18.0-0.0-0.52,2912,5,6
53,2,object_05,object_02,1048.695,4,1,845.33,0.0,2,object_09,1,839,0,2,0,forest_17,1,memory-2step-stake-s,543,1269408,0.0-18.0-0.0-0.53,2912,4,3
54,1,object_10,object_03,584.14,1,2,336.105,0.1111111111111111,1,object_01,1,840,0,1,1,desert_31,1,memory-2step-stake-s,544,1277116,0.0-18.0-0.0-0.54,2912,2,1
55,2,object_02,object_05,867.145,4,2,367.46,0.1111111111111111,2,object_09,5,845,0,2,1,forest_11,1,memory-2step-stake-s,545,1284893,0.0-18.0-0.0-0.55,2912,3,4
56,3,object_08,object_07,666.105,5,1,356.615,0.6666666666666666,1,object_01,5,875,0,6,3,library_7,1,memory-2step-stake-s,546,1293208,0.0-18.0-0.0-0.56,2912,5,6
57,4,object_06,object_04,-1.0,-1,-1,-1.0,0.0,-,,1,875,0,5,5,restaurant_2,1,memory-2step-stake-s,547,1299781,0.0-18.0-0.0-0.57,2912,7,8
58,4,object_06,object_04,804.705,8,2,467.14,0.3333333333333333,2,object_09,5,890,0,7,3,restaurant_20,1,memory-2step-stake-s,548,1307865,0.0-18.0-0.0-0.58,2912,7,8
59,2,object_05,object_02,639.595,3,2,320.95,0.5555555555555556,1,object_01,1,895,0,5,3,forest_15,1,memory-2step-stake-s,549,1316045,0.0-18.0-0.0-0.59,2912,4,3
60,4,object_06,object_04,889.325,8,2,371.855,0.4444444444444444,2,object_09,5,915,0,4,4,restaurant_32,1,memory-2step-stake-s,550,1324141,0.0-18.0-0.0-0.60,2912,7,8
61,2,object_05,object_02,717.745,3,2,327.335,0.7777777777777778,1,object_01,1,922,0,7,1,forest_4,1,memory-2step-stake-s,551,1332497,0.0-18.0-0.0-0.61,2912,4,3
62,1,object_03,object_10,695.57,1,1,440.135,0.8888888888888888,1,object_01,1,930,0,8,1,desert_14,1,memory-2step-stake-s,552,1341126,0.0-18.0-0.0-0.62,2912,1,2
63,4,object_06,object_04,1326.985,7,1,603.085,0.6666666666666666,1,object_01,5,960,0,6,4,restaurant_28,1,memory-2step-stake-s,553,1349663,0.0-18.0-0.0-0.63,2912,7,8
64,4,object_04,object_06,710.115,8,1,363.685,0.4444444444444444,2,object_09,5,980,0,7,4,restaurant_11,1,memory-2step-stake-s,554,1357733,0.0-18.0-0.0-0.64,2912,8,7
65,4,object_04,object_06,733.37,7,2,374.93,1.0,1,object_01,5,1025,0,9,1,restaurant_31,1,memory-2step-stake-s,555,1366403,0.0-18.0-0.0-0.65,2912,8,7
66,1,object_10,object_03,609.79,2,1,440.625,0.2222222222222222,2,object_09,1,1027,0,9,2,desert_14,1,memory-2step-stake-s,556,1374340,0.0-18.0-0.0-0.66,2912,2,1
67,3,object_08,object_07,1169.3,5,1,488.32,0.7777777777777778,1,object_01,5,1062,0,7,1,library_30,1,memory-2step-stake-s,557,1382897,0.0-18.0-0.0-0.67,2912,5,6
68,4,object_06,object_04,909.99,7,1,389.115,0.6666666666666666,1,object_01,1,1068,0,6,1,restaurant_22,1,memory-2step-stake-s,558,1391261,0.0-18.0-0.0-0.68,2912,7,8
69,4,object_04,object_06,1334.045,7,2,504.99,0.7777777777777778,1,object_01,5,1103,0,7,1,restaurant_22,1,memory-2step-stake-s,559,1399798,0.0-18.0-0.0-0.69,2912,8,7
70,3,object_07,object_08,888.435,5,2,472.35,0.8888888888888888,1,object_01,5,1143,0,8,2,library_7,1,memory-2step-stake-s,560,1408439,0.0-18.0-0.0-0.70,2912,6,5
71,4,object_04,object_06,1209.65,7,2,405.275,0.8888888888888888,1,object_01,5,1183,0,8,1,restaurant_27,1,memory-2step-stake-s,561,1417009,0.0-18.0-0.0-0.71,2912,8,7
72,4,object_06,object_04,908.065,7,1,387.0,0.5555555555555556,1,object_01,5,1208,0,5,2,restaurant_31,1,memory-2step-stake-s,562,1425224,0.0-18.0-0.0-0.72,2912,7,8
73,3,object_08,object_07,817.46,6,2,608.92,0.4444444444444444,2,object_09,5,1228,0,6,4,library_2,1,memory-2step-stake-s,563,1433526,0.0-18.0-0.0-0.73,2912,5,6
74,2,object_05,object_02,657.92,3,2,445.455,0.3333333333333333,1,object_01,1,1231,0,3,6,forest_24,1,memory-2step-stake-s,564,1441565,0.0-18.0-0.0-0.74,2912,4,3
75,1,object_03,object_10,996.415,2,2,618.01,0.5555555555555556,2,object_09,5,1256,0,5,5,desert_24,1,memory-2step-stake-s,565,1450022,0.0-18.0-0.0-0.75,2912,1,2
76,2,object_02,object_05,747.565,4,2,336.345,0.2222222222222222,2,object_09,5,1266,0,0,2,forest_31,1,memory-2step-stake-s,566,1457873,0.0-18.0-0.0-0.76,2912,3,4
77,3,object_08,object_07,1178.99,5,1,544.435,0.1111111111111111,1,object_01,5,1271,0,1,0,library_28,1,memory-2step-stake-s,567,1465820,0.0-18.0-0.0-0.77,2912,5,6
78,3,object_08,object_07,692.05,6,2,343.815,0.1111111111111111,2,object_09,5,1276,0,0,1,library_24,1,memory-2step-stake-s,568,1473533,0.0-18.0-0.0-0.78,2912,5,6
79,3,object_08,object_07,504.855,5,1,492.775,0.0,1,object_01,1,1276,0,0,0,library_11,1,memory-2step-stake-s,569,1481282,0.0-18.0-0.0-0.79,2912,5,6
80,1,object_10,object_03,535.94,1,2,311.885,0.3333333333333333,1,object_01,1,1279,0,3,2,desert_1,1,memory-2step-stake-s,570,1489186,0.0-18.0-0.0-0.80,2912,2,1
81,1,object_03,object_10,700.3,2,2,378.055,0.0,2,object_09,1,1279,0,4,0,desert_19,1,memory-2step-stake-s,571,1496839,0.0-18.0-0.0-0.81,2912,1,2
82,4,object_04,object_06,776.39,7,2,435.535,0.4444444444444444,1,object_01,5,1299,0,4,3,restaurant_17,1,memory-2step-stake-s,572,1505011,0.0-18.0-0.0-0.82,2912,8,7
83,4,object_04,object_06,657.47,7,2,684.625,0.3333333333333333,1,object_01,5,1314,0,3,5,restaurant_22,1,memory-2step-stake-s,573,1513296,0.0-18.0-0.0-0.83,2912,8,7
84,3,object_08,object_07,781.215,5,1,424.135,0.2222222222222222,1,object_01,5,1324,0,2,1,library_12,1,memory-2step-stake-s,574,1521202,0.0-18.0-0.0-0.84,2912,5,6
85,2,object_05,object_02,949.41,4,1,348.855,0.0,2,object_09,1,1324,0,2,0,forest_15,1,memory-2step-stake-s,575,1528838,0.0-18.0-0.0-0.85,2912,4,3
86,2,object_02,object_05,1237.73,3,1,388.24,0.2222222222222222,1,object_01,1,1326,0,2,2,forest_24,1,memory-2step-stake-s,576,1536750,0.0-18.0-0.0-0.86,2912,3,4
87,4,object_04,object_06,730.41,8,1,502.26,0.4444444444444444,2,object_09,1,1330,0,3,4,restaurant_20,1,memory-2step-stake-s,577,1544997,0.0-18.0-0.0-0.87,2912,8,7
88,3,object_08,object_07,764.655,6,2,433.975,0.5555555555555556,2,object_09,1,1335,0,5,5,library_2,1,memory-2step-stake-s,578,1553238,0.0-18.0-0.0-0.88,2912,5,6
89,1,object_03,object_10,1080.54,2,2,415.925,0.5555555555555556,2,object_09,5,1360,0,6,5,desert_24,1,memory-2step-stake-s,579,1561486,0.0-18.0-0.0-0.89,2912,1,2
90,3,object_08,object_07,898.02,5,1,352.1899999,0.7777777777777778,1,object_01,1,1367,0,7,1,library_15,1,memory-2step-stake-s,580,1569897,0.0-18.0-0.0-0.90,2912,5,6
91,3,object_07,object_08,790.59,5,2,347.15,0.6666666666666666,1,object_01,5,1397,0,6,2,library_17,1,memory-2step-stake-s,581,1578163,0.0-18.0-0.0-0.91,2912,6,5
92,1,object_03,object_10,867.66,2,2,798.63,0.0,2,object_09,1,1397,0,6,0,desert_2,1,memory-2step-stake-s,582,1586255,0.0-18.0-0.0-0.92,2912,1,2
93,1,object_10,object_03,1257.615,1,2,737.145,0.5555555555555556,1,object_01,1,1402,0,5,3,desert_8,1,memory-2step-stake-s,583,1594806,0.0-18.0-0.0-0.93,2912,2,1
94,3,object_07,object_08,848.375,5,2,663.31,1.0,1,object_01,5,1447,0,9,3,library_17,1,memory-2step-stake-s,584,1603760,0.0-18.0-0.0-0.94,2912,6,5
95,4,object_06,object_04,767.795,7,1,383.205,0.7777777777777778,1,object_01,5,1482,0,7,2,restaurant_20,1,memory-2step-stake-s,585,1612191,0.0-18.0-0.0-0.95,2912,7,8
96,3,object_08,object_07,599.95,5,1,330.815,0.8888888888888888,1,object_01,5,1522,0,8,4,library_30,1,memory-2step-stake-s,586,1620694,0.0-18.0-0.0-0.96,2912,5,6
97,3,object_08,object_07,632.095,5,1,490.6,0.7777777777777778,1,object_01,5,1557,0,7,2,library_1,1,memory-2step-stake-s,587,1629231,0.0-18.0-0.0-0.97,2912,5,6
98,2,object_02,object_05,627.825,3,1,385.46,0.8888888888888888,1,object_01,5,1597,0,8,1,forest_31,1,memory-2step-stake-s,588,1637782,0.0-18.0-0.0-0.98,2912,3,4
99,1,object_10,object_03,893.995,1,2,426.505,0.7777777777777778,1,object_01,5,1632,0,7,1,desert_14,1,memory-2step-stake-s,589,1646247,0.0-18.0-0.0-0.99,2912,2,1
100,1,object_03,object_10,508.31,1,1,302.7849999,1.0,1,object_01,1,1641,0,9,2,desert_16,1,memory-2step-stake-s,590,1654823,0.0-18.0-0.0-0.100,2912,1,2
101,2,object_02,object_05,860.295,4,2,370.44,0.1111111111111111,2,object_09,1,1642,0,8,1,forest_11,1,memory-2step-stake-s,591,1662584,0.0-18.0-0.0-0.101,2912,3,4
102,1,object_03,object_10,-1.0,-1,-1,-1.0,0.0,-,,1,1642,0,8,1,desert_24,1,memory-2step-stake-s,592,1669156,0.0-18.0-0.0-0.102,2912,1,2
103,1,object_10,object_03,652.135,1,2,1004.855,0.8888888888888888,1,object_01,5,1682,0,8,4,desert_12,1,memory-2step-stake-s,593,1678344,0.0-18.0-0.0-0.103,2912,2,1
104,2,object_02,object_05,492.425,4,2,284.805,0.4444444444444444,2,object_09,1,1686,0,9,4,forest_21,1,memory-2step-stake-s,594,1686345,0.0-18.0-0.0-0.104,2912,3,4
105,3,object_07,object_08,716.795,5,2,377.32,0.8888888888888888,1,object_01,5,1726,0,8,6,library_2,1,memory-2step-stake-s,595,1694877,0.0-18.0-0.0-0.105,2912,6,5
106,2,object_02,object_05,570.485,4,2,491.565,0.4444444444444444,2,object_09,1,1730,0,6,4,forest_8,1,memory-2step-stake-s,596,1703097,0.0-18.0-0.0-0.106,2912,3,4
107,1,object_10,object_03,1047.71,1,2,570.94,0.7777777777777778,1,object_01,1,1737,0,7,0,desert_25,1,memory-2step-stake-s,597,1711728,0.0-18.0-0.0-0.107,2912,2,1
108,4,object_04,object_06,619.46,7,2,331.655,0.5555555555555556,1,object_01,5,1762,0,5,3,restaurant_1,1,memory-2step-stake-s,598,1719898,0.0-18.0-0.0-0.108,2912,8,7
109,3,object_08,object_07,665.72,6,2,421.205,0.6666666666666666,2,object_09,5,1792,0,9,6,library_28,1,memory-2step-stake-s,599,1728245,0.0-18.0-0.0-0.109,2912,5,6
110,1,object_10,object_03,767.19,2,1,361.045,0.4444444444444444,2,object_09,1,1796,0,7,4,desert_8,1,memory-2step-stake-s,600,1736321,0.0-18.0-0.0-0.110,2912,2,1
111,2,object_02,object_05,796.16,4,2,362.665,0.1111111111111111,2,object_09,1,1797,0,9,1,forest_21,1,memory-2step-stake-s,601,1744097,0.0-18.0-0.0-0.111,2912,3,4
112,4,object_04,object_06,1125.04,7,2,357.74,0.6666666666666666,1,object_01,5,1827,0,6,3,restaurant_32,1,memory-2step-stake-s,602,1752387,0.0-18.0-0.0-0.112,2912,8,7
113,2,object_02,object_05,699.815,3,1,344.96,0.7777777777777778,1,object_01,1,1834,0,7,5,forest_28,1,memory-2step-stake-s,603,1760800,0.0-18.0-0.0-0.113,2912,3,4
114,2,object_02,object_05,585.875,3,1,296.245,0.7777777777777778,1,object_01,1,1841,0,7,5,forest_15,1,memory-2step-stake-s,604,1769139,0.0-18.0-0.0-0.114,2912,3,4
115,4,object_04,object_06,559.32,7,2,285.925,0.6666666666666666,1,object_01,5,1871,0,6,2,restaurant_15,1,memory-2step-stake-s,605,1777368,0.0-18.0-0.0-0.115,2912,8,7
116,4,object_06,object_04,591.01,7,1,382.54,0.4444444444444444,1,object_01,5,1891,0,4,0,restaurant_26,1,memory-2step-stake-s,606,1785450,0.0-18.0-0.0-0.116,2912,7,8
117,4,object_04,object_06,713.93,8,1,305.69,0.1111111111111111,2,object_09,5,1896,0,2,1,restaurant_17,1,memory-2step-stake-s,607,1793133,0.0-18.0-0.0-0.117,2912,8,7
118,2,object_02,object_05,618.685,3,1,261.16,0.5555555555555556,1,object_01,1,1901,0,5,1,forest_22,1,memory-2step-stake-s,608,1801210,0.0-18.0-0.0-0.118,2912,3,4
119,1,object_03,object_10,879.585,1,1,351.9,0.5555555555555556,1,object_01,5,1926,0,5,4,desert_16,1,memory-2step-stake-s,609,1809394,0.0-18.0-0.0-0.119,2912,1,2
120,1,object_10,object_03,658.145,1,2,474.205,0.4444444444444444,1,object_01,1,1930,0,4,4,desert_16,1,memory-2step-stake-s,610,1817592,0.0-18.0-0.0-0.120,2912,2,1
121,4,object_06,object_04,880.735,7,1,366.32,0.2222222222222222,1,object_01,5,1940,0,2,2,restaurant_6,1,memory-2step-stake-s,611,1825445,0.0-18.0-0.0-0.121,2912,7,8
122,1,object_10,object_03,962.56,2,1,445.99,0.4444444444444444,2,object_09,1,1944,0,1,4,desert_29,1,memory-2step-stake-s,612,1833566,0.0-18.0-0.0-0.122,2912,2,1
123,4,object_06,object_04,595.335,8,2,292.055,0.4444444444444444,2,object_09,1,1948,0,1,4,restaurant_6,1,memory-2step-stake-s,613,1841582,0.0-18.0-0.0-0.123,2912,7,8
124,2,object_02,object_05,752.13,4,2,301.88,0.1111111111111111,2,object_09,1,1949,0,3,1,forest_28,1,memory-2step-stake-s,614,1849276,0.0-18.0-0.0-0.124,2912,3,4
125,2,object_05,object_02,577.825,3,2,475.54,0.1111111111111111,1,object_01,1,1950,0,1,0,forest_25,1,memory-2step-stake-s,615,1857150,0.0-18.0-0.0-0.125,2912,4,3
126,1,object_03,object_10,640.865,2,2,407.13,0.1111111111111111,2,object_09,1,1951,0,2,1,desert_23,1,memory-2step-stake-s,616,1864944,0.0-18.0-0.0-0.126,2912,1,2
127,1,object_10,object_03,810.075,2,1,505.185,0.0,2,object_09,1,1951,0,2,0,desert_14,1,memory-2step-stake-s,617,1872704,0.0-18.0-0.0-0.127,2912,2,1
128,4,object_04,object_06,-1.0,-1,-1,-1.0,0.0,-,,1,1951,0,1,4,restaurant_32,1,memory-2step-stake-s,619,3934808,0.0-18.0-0.1-0.128,2912,8,7
129,4,object_06,object_04,1011.675,7,1,337.915,0.4444444444444444,1,object_01,5,1971,0,4,6,restaurant_4,1,memory-2step-stake-s,620,3942895,0.0-18.0-0.1-0.129,2912,7,8
130,3,object_08,object_07,1135.37,5,1,394.75,1.0,1,object_01,5,2016,0,9,4,library_9,1,memory-2step-stake-s,621,3951548,0.0-18.0-0.1-0.130,2912,5,6
131,3,object_07,object_08,1107.12,5,2,392.37,1.0,1,object_01,5,2061,0,9,2,library_12,1,memory-2step-stake-s,622,3960200,0.0-18.0-0.1-0.131,2912,6,5
132,3,object_07,object_08,966.465,5,2,672.39,0.6666666666666666,1,object_01,5,2091,0,6,6,library_24,1,memory-2step-stake-s,623,3968832,0.0-18.0-0.1-0.132,2912,6,5
133,1,object_03,object_10,1334.615,2,2,414.27,0.8888888888888888,2,object_09,1,2099,0,7,8,desert_12,1,memory-2step-stake-s,624,3977344,0.0-18.0-0.1-0.133,2912,1,2
134,1,object_03,object_10,1055.15,2,2,348.44,0.7777777777777778,2,object_09,5,2134,0,5,7,desert_23,1,memory-2step-stake-s,625,3985782,0.0-18.0-0.1-0.134,2912,1,2
135,3,object_07,object_08,1186.915,6,1,575.99,0.7777777777777778,2,object_09,5,2169,0,8,7,library_8,1,memory-2step-stake-s,626,3994400,0.0-18.0-0.1-0.135,2912,6,5
136,1,object_10,object_03,851.375,1,2,320.315,0.7777777777777778,1,object_01,1,2176,0,7,5,desert_10,1,memory-2step-stake-s,627,4002777,0.0-18.0-0.1-0.136,2912,2,1
137,4,object_06,object_04,706.46,7,1,303.875,0.5555555555555556,1,object_01,5,2201,0,5,8,restaurant_1,1,memory-2step-stake-s,628,4010902,0.0-18.0-0.1-0.137,2912,7,8
138,1,object_10,object_03,1070.74,2,1,695.935,0.4444444444444444,2,object_09,1,2205,0,6,4,desert_8,1,memory-2step-stake-s,629,4019305,0.0-18.0-0.1-0.138,2912,2,1
139,2,object_02,object_05,1373.445,4,2,342.8,0.5555555555555556,2,object_09,1,2210,0,9,5,forest_21,1,memory-2step-stake-s,630,4027426,0.0-18.0-0.1-0.139,2912,3,4
140,3,object_08,object_07,814.555,6,2,307.41,0.4444444444444444,2,object_09,1,2214,0,5,4,library_17,1,memory-2step-stake-s,631,4035450,0.0-18.0-0.1-0.140,2912,5,6
141,3,object_07,object_08,788.525,5,2,297.025,0.5555555555555556,1,object_01,5,2239,0,5,2,library_15,1,memory-2step-stake-s,632,4043558,0.0-18.0-0.1-0.141,2912,6,5
142,3,object_07,object_08,787.825,5,2,318.505,0.3333333333333333,1,object_01,5,2254,0,3,2,library_24,1,memory-2step-stake-s,633,4051477,0.0-18.0-0.1-0.142,2912,6,5
143,4,object_06,object_04,776.28,8,2,307.945,0.3333333333333333,2,object_09,5,2269,0,2,3,restaurant_31,1,memory-2step-stake-s,634,4059404,0.0-18.0-0.1-0.143,2912,7,8
144,3,object_07,object_08,878.75,5,2,321.31,0.6666666666666666,1,object_01,5,2299,0,6,9,library_31,1,memory-2step-stake-s,635,4067662,0.0-18.0-0.1-0.144,2912,6,5
145,4,object_04,object_06,777.625,7,2,332.115,0.8888888888888888,1,object_01,5,2339,0,8,9,restaurant_22,1,memory-2step-stake-s,636,4076190,0.0-18.0-0.1-0.145,2912,8,7
146,3,object_07,object_08,1059.87,5,2,851.47,0.6666666666666666,1,object_01,5,2369,0,6,7,library_11,1,memory-2step-stake-s,637,4085004,0.0-18.0-0.1-0.146,2912,6,5
147,4,object_06,object_04,1129.645,7,1,365.3,1.0,1,object_01,5,2414,0,9,7,restaurant_11,1,memory-2step-stake-s,638,4093632,0.0-18.0-0.1-0.147,2912,7,8
148,4,object_04,object_06,914.955,7,2,388.515,0.4444444444444444,1,object_01,5,2434,0,4,9,restaurant_25,1,memory-2step-stake-s,639,4101702,0.0-18.0-0.1-0.148,2912,8,7
149,2,object_05,object_02,676.1949999,4,1,305.515,0.7777777777777778,2,object_09,1,2441,0,4,7,forest_4,1,memory-2step-stake-s,640,4110065,0.0-18.0-0.1-0.149,2912,4,3
150,2,object_02,object_05,647.34,4,2,268.555,0.6666666666666666,2,object_09,1,2447,0,7,6,forest_20,1,memory-2step-stake-s,641,4118296,0.0-18.0-0.1-0.150,2912,3,4
151,1,object_03,object_10,773.255,1,1,593.205,0.6666666666666666,1,object_01,1,2453,0,6,3,desert_12,1,memory-2step-stake-s,642,4126822,0.0-18.0-0.1-0.151,2912,1,2
152,2,object_05,object_02,917.47,4,1,433.695,0.3333333333333333,2,object_09,1,2456,0,6,3,forest_8,1,memory-2step-stake-s,643,4134871,0.0-18.0-0.1-0.152,2912,4,3
153,2,object_05,object_02,988.79,3,2,399.075,0.6666666666666666,1,object_01,1,2462,0,6,1,forest_13,1,memory-2step-stake-s,644,4143199,0.0-18.0-0.1-0.153,2912,4,3
154,4,object_06,object_04,870.53,7,1,289.22,0.7777777777777778,1,object_01,5,2497,0,7,3,restaurant_27,1,memory-2step-stake-s,645,4151566,0.0-18.0-0.1-0.154,2912,7,8
155,3,object_07,object_08,899.85,5,2,328.885,0.8888888888888888,1,object_01,5,2537,0,8,6,library_7,1,memory-2step-stake-s,646,4160031,0.0-18.0-0.1-0.155,2912,6,5
156,1,object_10,object_03,1059.16,1,2,402.68,0.7777777777777778,1,object_01,1,2544,0,7,5,desert_19,1,memory-2step-stake-s,647,4168489,0.0-18.0-0.1-0.156,2912,2,1
157,1,object_03,object_10,1036.395,1,1,374.32,0.7777777777777778,1,object_01,1,2551,0,7,3,desert_11,1,memory-2step-stake-s,648,4176937,0.0-18.0-0.1-0.157,2912,1,2
158,4,object_04,object_06,917.52,7,2,358.455,0.8888888888888888,1,object_01,5,2591,0,8,3,restaurant_11,1,memory-2step-stake-s,649,4185461,0.0-18.0-0.1-0.158,2912,8,7
159,2,object_02,object_05,1213.435,3,1,507.215,0.7777777777777778,1,object_01,5,2626,0,7,5,forest_20,1,memory-2step-stake-s,650,4194020,0.0-18.0-0.1-0.159,2912,3,4
160,4,object_04,object_06,822.675,7,2,385.575,0.6666666666666666,1,object_01,5,2656,0,6,5,restaurant_25,1,memory-2step-stake-s,651,4202311,0.0-18.0-0.1-0.160,2912,8,7
161,1,object_10,object_03,1087.485,2,1,367.975,0.5555555555555556,2,object_09,1,2661,0,7,5,desert_2,1,memory-2step-stake-s,652,4210502,0.0-18.0-0.1-0.161,2912,2,1
162,2,object_02,object_05,1264.79,4,2,383.06,0.8888888888888888,2,object_09,1,2669,0,7,8,forest_9,1,memory-2step-stake-s,653,4219027,0.0-18.0-0.1-0.162,2912,3,4
163,2,object_02,object_05,897.8649998999999,3,1,467.8,0.7777777777777778,1,object_01,1,2676,0,7,6,forest_20,1,memory-2step-stake-s,654,4227510,0.0-18.0-0.1-0.163,2912,3,4
164,3,object_08,object_07,1217.6,5,1,327.31,1.0,1,object_01,5,2721,0,9,8,library_11,1,memory-2step-stake-s,655,4236102,0.0-18.0-0.1-0.164,2912,5,6
165,2,object_05,object_02,800.185,3,2,253.72,0.7777777777777778,1,object_01,1,2728,0,7,9,forest_9,1,memory-2step-stake-s,656,4244429,0.0-18.0-0.1-0.165,2912,4,3
166,4,object_04,object_06,540.425,7,2,259.6,0.5555555555555556,1,object_01,5,2753,0,5,7,restaurant_28,1,memory-2step-stake-s,657,4252512,0.0-18.0-0.1-0.166,2912,8,7
167,2,object_05,object_02,466.21,4,1,285.555,0.6666666666666666,2,object_09,1,2759,0,4,6,forest_6,1,memory-2step-stake-s,658,4260711,0.0-18.0-0.1-0.167,2912,4,3
168,3,object_07,object_08,935.93,6,1,338.1,0.6666666666666666,2,object_09,1,2765,0,7,6,library_4,1,memory-2step-stake-s,659,4268973,0.0-18.0-0.1-0.168,2912,6,5
169,3,object_08,object_07,863.555,5,1,269.08,0.7777777777777778,1,object_01,1,2772,0,7,4,library_24,1,memory-2step-stake-s,660,4277265,0.0-18.0-0.1-0.169,2912,5,6
170,4,object_04,object_06,865.2,7,2,282.725,0.5555555555555556,1,object_01,5,2797,0,5,3,restaurant_14,1,memory-2step-stake-s,661,4285401,0.0-18.0-0.1-0.170,2912,8,7
171,1,object_10,object_03,654.685,1,2,280.375,0.3333333333333333,1,object_01,1,2800,0,3,2,desert_29,1,memory-2step-stake-s,662,4293302,0.0-18.0-0.1-0.171,2912,2,1
172,4,object_06,object_04,851.295,8,2,292.39,0.1111111111111111,2,object_09,5,2805,0,2,1,restaurant_4,1,memory-2step-stake-s,663,4300960,0.0-18.0-0.1-0.172,2912,7,8
173,4,object_04,object_06,662.73,7,2,257.4,0.3333333333333333,1,object_01,5,2820,0,3,1,restaurant_27,1,memory-2step-stake-s,664,4308841,0.0-18.0-0.1-0.173,2912,8,7
174,4,object_04,object_06,657.405,7,2,430.475,0.4444444444444444,1,object_01,5,2840,0,4,1,restaurant_25,1,memory-2step-stake-s,665,4316990,0.0-18.0-0.1-0.174,2912,8,7
175,1,object_03,object_10,525.215,1,1,271.51,0.7777777777777778,1,object_01,1,2847,0,7,1,desert_16,1,memory-2step-stake-s,666,4325312,0.0-18.0-0.1-0.175,2912,1,2
176,4,object_06,object_04,714.635,7,1,286.265,0.7777777777777778,1,object_01,5,2882,0,7,2,restaurant_1,1,memory-2step-stake-s,667,4333652,0.0-18.0-0.1-0.176,2912,7,8
177,1,object_10,object_03,872.485,2,1,351.255,0.0,2,object_09,1,2882,0,8,0,desert_32,1,memory-2step-stake-s,668,4341259,0.0-18.0-0.1-0.177,2912,2,1
178,4,object_04,object_06,622.52,7,2,304.84,0.8888888888888888,1,object_01,5,2922,0,8,2,restaurant_6,1,memory-2step-stake-s,669,4349722,0.0-18.0-0.1-0.178,2912,8,7
179,2,object_05,object_02,829.38,3,2,333.39,0.7777777777777778,1,object_01,5,2957,0,7,3,forest_24,1,memory-2step-stake-s,670,4358114,0.0-18.0-0.1-0.179,2912,4,3
180,3,object_07,object_08,842.67,6,1,426.145,0.3333333333333333,2,object_09,1,2960,0,6,3,library_9,1,memory-2step-stake-s,671,4366157,0.0-18.0-0.1-0.180,2912,6,5
181,3,object_08,object_07,715.555,5,1,259.755,1.0,1,object_01,5,3005,0,9,1,library_7,1,memory-2step-stake-s,672,4374685,0.0-18.0-0.1-0.181,2912,5,6
182,3,object_08,object_07,476.17,5,1,339.23,0.7777777777777778,1,object_01,5,3040,0,7,1,library_16,1,memory-2step-stake-s,673,4383078,0.0-18.0-0.1-0.182,2912,5,6
183,1,object_10,object_03,718.1,2,1,304.915,0.4444444444444444,2,object_09,1,3044,0,9,4,desert_29,1,memory-2step-stake-s,674,4391107,0.0-18.0-0.1-0.183,2912,2,1
184,4,object_06,object_04,607.655,7,1,291.47,0.6666666666666666,1,object_01,5,3074,0,6,4,restaurant_1,1,memory-2step-stake-s,675,4399334,0.0-18.0-0.1-0.184,2912,7,8
185,1,object_03,object_10,952.435,2,2,293.25,0.5555555555555556,2,object_09,1,3079,0,6,5,desert_23,1,memory-2step-stake-s,676,4407457,0.0-18.0-0.1-0.185,2912,1,2
186,1,object_10,object_03,941.505,1,2,317.315,0.5555555555555556,1,object_01,1,3084,0,5,4,desert_2,1,memory-2step-stake-s,677,4415567,0.0-18.0-0.1-0.186,2912,2,1
187,1,object_10,object_03,781.295,2,1,385.655,0.6666666666666666,2,object_09,1,3090,0,5,6,desert_19,1,memory-2step-stake-s,678,4423895,0.0-18.0-0.1-0.187,2912,2,1
188,3,object_07,object_08,743.97,6,1,285.405,0.7777777777777778,2,object_09,5,3125,0,5,7,library_8,1,memory-2step-stake-s,679,4432258,0.0-18.0-0.1-0.188,2912,6,5
189,3,object_08,object_07,802.605,6,2,321.24,0.7777777777777778,2,object_09,5,3160,0,5,7,library_8,1,memory-2step-stake-s,680,4440636,0.0-18.0-0.1-0.189,2912,5,6
190,2,object_02,object_05,453.275,3,1,282.715,1.0,1,object_01,1,3169,0,9,6,forest_25,1,memory-2step-stake-s,681,4449195,0.0-18.0-0.1-0.190,2912,3,4
191,3,object_07,object_08,749.13,5,2,285.575,0.7777777777777778,1,object_01,5,3204,0,7,7,library_31,1,memory-2step-stake-s,682,4457515,0.0-18.0-0.1-0.191,2912,6,5
192,1,object_10,object_03,613.85,1,2,308.115,0.7777777777777778,1,object_01,1,3211,0,7,5,desert_32,1,memory-2step-stake-s,683,4465860,0.0-18.0-0.1-0.192,2912,2,1
193,3,object_07,object_08,782.71,6,1,330.915,1.0,2,object_09,1,3220,0,7,9,library_28,1,memory-2step-stake-s,684,4474450,0.0-18.0-0.1-0.193,2912,6,5
194,1,object_10,object_03,891.46,2,1,381.225,0.5555555555555556,2,object_09,5,3245,0,7,5,desert_11,1,memory-2step-stake-s,685,4482682,0.0-18.0-0.1-0.194,2912,2,1
195,2,object_05,object_02,1173.73,3,2,498.885,1.0,1,object_01,1,3254,0,9,6,forest_13,1,memory-2step-stake-s,686,4491484,0.0-18.0-0.1-0.195,2912,4,3
196,4,object_06,object_04,693.655,8,2,270.305,0.5555555555555556,2,object_09,1,3259,0,9,5,restaurant_26,1,memory-2step-stake-s,687,4499582,0.0-18.0-0.1-0.196,2912,7,8
197,1,object_03,object_10,1041.725,1,1,427.295,0.6666666666666666,1,object_01,5,3289,0,6,3,desert_1,1,memory-2step-stake-s,688,4507911,0.0-18.0-0.1-0.197,2912,1,2
198,2,object_05,object_02,663.215,3,2,385.62,0.5555555555555556,1,object_01,1,3294,0,5,4,forest_25,1,memory-2step-stake-s,689,4516146,0.0-18.0-0.1-0.198,2912,4,3
199,4,object_04,object_06,764.625,8,1,297.505,0.3333333333333333,2,object_09,5,3309,0,3,3,restaurant_2,1,memory-2step-stake-s,690,4524071,0.0-18.0-0.1-0.199,2912,8,7
200,4,object_04,object_06,665.06,7,2,288.25,0.4444444444444444,1,object_01,1,3313,0,4,4,restaurant_28,1,memory-2step-stake-s,691,4532033,0.0-18.0-0.1-0.200,2912,8,7
201,3,object_07,object_08,975.505,5,2,338.875,0.7777777777777778,1,object_01,5,3348,0,7,4,library_4,1,memory-2step-stake-s,692,4540435,0.0-18.0-0.1-0.201,2912,6,5
202,1,object_03,object_10,1500.03,2,2,782.36,0.5555555555555556,2,object_09,1,3353,0,8,5,desert_1,1,memory-2step-stake-s,693,4549073,0.0-18.0-0.1-0.202,2912,1,2
203,4,object_06,object_04,1073.0,7,1,367.145,0.5555555555555556,1,object_01,5,3378,0,5,3,restaurant_15,1,memory-2step-stake-s,694,4557269,0.0-18.0-0.1-0.203,2912,7,8
204,4,object_06,object_04,889.935,8,2,303.735,0.2222222222222222,2,object_09,5,3388,0,6,2,restaurant_27,1,memory-2step-stake-s,695,4565061,0.0-18.0-0.1-0.204,2912,7,8
205,2,object_02,object_05,792.07,3,1,280.23,1.0,1,object_01,1,3397,0,9,1,forest_31,1,memory-2step-stake-s,696,4573594,0.0-18.0-0.1-0.205,2912,3,4
206,2,object_02,object_05,496.9,3,1,286.315,0.8888888888888888,1,object_01,1,3405,0,8,1,forest_6,1,memory-2step-stake-s,697,4582033,0.0-18.0-0.1-0.206,2912,3,4
207,3,object_07,object_08,1025.57,5,2,265.2,0.7777777777777778,1,object_01,1,3412,0,7,4,library_1,1,memory-2step-stake-s,698,4590375,0.0-18.0-0.1-0.207,2912,6,5
208,2,object_02,object_05,1171.34,3,1,758.8,0.7777777777777778,1,object_01,1,3419,0,7,7,forest_22,1,memory-2step-stake-s,699,4599207,0.0-18.0-0.1-0.208,2912,3,4
209,1,object_03,object_10,1419.91,1,1,779.115,0.4444444444444444,1,object_01,1,3423,0,4,5,desert_20,1,memory-2step-stake-s,700,4607733,0.0-18.0-0.1-0.209,2912,1,2
210,1,object_10,object_03,-1.0,-1,-1,-1.0,0.0,-,,1,3423,0,4,8,desert_29,1,memory-2step-stake-s,701,4614321,0.0-18.0-0.1-0.210,2912,2,1
211,3,object_08,object_07,1268.73,6,2,412.755,0.8888888888888888,2,object_09,5,3463,0,2,8,library_19,1,memory-2step-stake-s,702,4622895,0.0-18.0-0.1-0.211,2912,5,6
212,4,object_04,object_06,750.115,7,2,359.045,0.3333333333333333,1,object_01,1,3466,0,3,5,restaurant_2,1,memory-2step-stake-s,703,4630872,0.0-18.0-0.1-0.212,2912,8,7
213,2,object_05,object_02,667.005,4,1,370.94,0.6666666666666666,2,object_09,1,3472,0,2,6,forest_8,1,memory-2step-stake-s,704,4639200,0.0-18.0-0.1-0.213,2912,4,3
214,1,object_03,object_10,1454.79,2,2,402.57,0.6666666666666666,2,object_09,5,3502,0,0,6,desert_12,1,memory-2step-stake-s,705,4647525,0.0-18.0-0.1-0.214,2912,1,2
215,3,object_07,object_08,1127.08,6,1,432.38,0.3333333333333333,2,object_09,5,3517,0,2,3,library_9,1,memory-2step-stake-s,706,4655559,0.0-18.0-0.1-0.215,2912,6,5
216,3,object_08,object_07,771.85,5,1,289.945,0.3333333333333333,1,object_01,1,3520,0,3,5,library_15,1,memory-2step-stake-s,707,4663462,0.0-18.0-0.1-0.216,2912,5,6
217,2,object_05,object_02,805.58,3,2,417.405,0.2222222222222222,1,object_01,5,3530,0,2,7,forest_17,1,memory-2step-stake-s,708,4671345,0.0-18.0-0.1-0.217,2912,4,3
218,2,object_02,object_05,650.1,4,2,274.465,0.8888888888888888,2,object_09,1,3538,0,1,8,forest_28,1,memory-2step-stake-s,709,4679780,0.0-18.0-0.1-0.218,2912,3,4
219,4,object_04,object_06,891.365,8,1,386.095,1.0,2,object_09,5,3583,0,1,9,restaurant_15,1,memory-2step-stake-s,710,4688419,0.0-18.0-0.1-0.219,2912,8,7
220,2,object_02,object_05,677.995,4,2,464.315,0.7777777777777778,2,object_09,1,3590,0,2,7,forest_22,1,memory-2step-stake-s,711,4696920,0.0-18.0-0.1-0.220,2912,3,4
221,1,object_10,object_03,849.21,2,1,265.075,0.7777777777777778,2,object_09,1,3597,0,2,7,desert_31,1,memory-2step-stake-s,712,4705243,0.0-18.0-0.1-0.221,2912,2,1
222,1,object_03,object_10,977.635,2,2,331.83,0.7777777777777778,2,object_09,5,3632,0,4,7,desert_20,1,memory-2step-stake-s,713,4713614,0.0-18.0-0.1-0.222,2912,1,2
223,1,object_10,object_03,930.18,2,1,369.45,0.8888888888888888,2,object_09,1,3640,0,3,8,desert_31,1,memory-2step-stake-s,714,4722155,0.0-18.0-0.1-0.223,2912,2,1
224,4,object_06,object_04,747.365,8,2,323.315,0.7777777777777778,2,object_09,5,3675,0,2,7,restaurant_14,1,memory-2step-stake-s,715,4730556,0.0-18.0-0.1-0.224,2912,7,8
225,2,object_02,object_05,668.95,4,2,300.0,0.8888888888888888,2,object_09,1,3683,0,3,8,forest_2,1,memory-2step-stake-s,716,4739037,0.0-18.0-0.1-0.225,2912,3,4
226,3,object_08,object_07,645.895,6,2,264.45,0.8888888888888888,2,object_09,5,3723,0,6,8,library_9,1,memory-2step-stake-s,717,4747438,0.0-18.0-0.1-0.226,2912,5,6
227,4,object_06,object_04,734.905,8,2,300.325,0.8888888888888888,2,object_09,5,3763,0,8,8,restaurant_28,1,memory-2step-stake-s,718,4755898,0.0-18.0-0.1-0.227,2912,7,8
228,3,object_07,object_08,549.77,6,1,301.48,1.0,2,object_09,5,3808,0,8,9,library_4,1,memory-2step-stake-s,719,4764419,0.0-18.0-0.1-0.228,2912,6,5
229,4,object_06,object_04,695.545,8,2,582.17,0.5555555555555556,2,object_09,5,3833,0,9,5,restaurant_26,1,memory-2step-stake-s,720,4772808,0.0-18.0-0.1-0.229,2912,7,8
230,1,object_10,object_03,761.84,1,2,298.05,0.7777777777777778,1,object_01,1,3840,0,7,2,desert_1,1,memory-2step-stake-s,721,4781126,0.0-18.0-0.1-0.230,2912,2,1
231,1,object_03,object_10,765.7,1,1,295.97,0.8888888888888888,1,object_01,1,3848,0,8,2,desert_10,1,memory-2step-stake-s,722,4789613,0.0-18.0-0.1-0.231,2912,1,2
232,2,object_05,object_02,789.98,3,2,261.64,1.0,1,object_01,1,3857,0,9,0,forest_28,1,memory-2step-stake-s,723,4798173,0.0-18.0-0.1-0.232,2912,4,3
233,3,object_07,object_08,640.26,5,2,260.0,0.7777777777777778,1,object_01,5,3892,0,7,3,library_16,1,memory-2step-stake-s,724,4806466,0.0-18.0-0.1-0.233,2912,6,5
234,2,object_02,object_05,736.03,4,2,1010.345,0.5555555555555556,2,object_09,1,3897,0,8,5,forest_9,1,memory-2step-stake-s,725,4815283,0.0-18.0-0.1-0.234,2912,3,4
235,1,object_10,object_03,791.075,1,2,321.795,1.0,1,object_01,5,3942,0,9,3,desert_19,1,memory-2step-stake-s,726,4823916,0.0-18.0-0.1-0.235,2912,2,1
236,3,object_08,object_07,602.095,5,1,338.895,0.8888888888888888,1,object_01,5,3982,0,8,2,library_15,1,memory-2step-stake-s,727,4832409,0.0-18.0-0.1-0.236,2912,5,6
237,2,object_05,object_02,916.74,3,2,936.43,0.4444444444444444,1,object_01,1,3986,0,4,4,forest_4,1,memory-2step-stake-s,728,4841098,0.0-18.0-0.1-0.237,2912,4,3
238,4,object_06,object_04,763.32,8,2,299.445,0.3333333333333333,2,object_09,1,3989,0,6,3,restaurant_17,1,memory-2step-stake-s,729,4848994,0.0-18.0-0.1-0.238,2912,7,8
239,2,object_02,object_05,553.89,3,1,266.91,1.0,1,object_01,1,3998,0,9,4,forest_13,1,memory-2step-stake-s,730,4857502,0.0-18.0-0.1-0.239,2912,3,4
240,1,object_10,object_03,861.975,1,2,353.425,0.7777777777777778,1,object_01,5,4033,0,7,6,desert_32,1,memory-2step-stake-s,731,4865962,0.0-18.0-0.1-0.240,2912,2,1
241,4,object_04,object_06,797.07,7,2,381.1699999,0.6666666666666666,1,object_01,1,4039,0,6,8,restaurant_11,1,memory-2step-stake-s,732,4874283,0.0-18.0-0.1-0.241,2912,8,7
242,3,object_07,object_08,773.2,5,2,291.18,0.8888888888888888,1,object_01,5,4079,0,8,8,library_28,1,memory-2step-stake-s,733,4882757,0.0-18.0-0.1-0.242,2912,6,5
243,1,object_10,object_03,717.32,1,2,340.51,1.0,1,object_01,1,4088,0,9,8,desert_11,1,memory-2step-stake-s,734,4891368,0.0-18.0-0.1-0.243,2912,2,1
244,4,object_06,object_04,725.7449999,7,1,484.35,0.8888888888888888,1,object_01,5,4128,0,8,7,restaurant_2,1,memory-2step-stake-s,735,4900020,0.0-18.0-0.1-0.244,2912,7,8
245,1,object_03,object_10,811.0,1,1,313.655,0.8888888888888888,1,object_01,1,4136,0,8,6,desert_25,1,memory-2step-stake-s,736,4908448,0.0-18.0-0.1-0.245,2912,1,2
246,2,object_05,object_02,645.05,3,2,267.555,0.7777777777777778,1,object_01,1,4143,0,7,7,forest_4,1,memory-2step-stake-s,737,4916793,0.0-18.0-0.1-0.246,2912,4,3
247,2,object_05,object_02,515.365,3,2,249.19,0.6666666666666666,1,object_01,1,4149,0,6,8,forest_2,1,memory-2step-stake-s,738,4924989,0.0-18.0-0.1-0.247,2912,4,3
248,1,object_10,object_03,962.505,2,1,514.125,0.7777777777777778,2,object_09,1,4156,0,5,7,desert_10,1,memory-2step-stake-s,739,4933523,0.0-18.0-0.1-0.248,2912,2,1
249,1,object_10,object_03,657.26,2,1,380.055,1.0,2,object_09,1,4165,0,5,9,desert_23,1,memory-2step-stake-s,740,4942175,0.0-18.0-0.1-0.249,2912,2,1
250,2,object_05,object_02,639.3,3,2,245.385,0.5555555555555556,1,object_01,1,4170,0,5,9,forest_25,1,memory-2step-stake-s,741,4950248,0.0-18.0-0.1-0.250,2912,4,3
251,2,object_05,object_02,627.28,4,1,334.33,1.0,2,object_09,5,4215,0,7,9,forest_11,1,memory-2step-stake-s,742,4958812,0.0-18.0-0.1-0.251,2912,4,3
252,4,object_06,object_04,803.3,8,2,310.8,0.8888888888888888,2,object_09,1,4223,0,7,8,restaurant_14,1,memory-2step-stake-s,743,4967219,0.0-18.0-0.1-0.252,2912,7,8
253,2,object_05,object_02,539.505,4,1,304.645,0.8888888888888888,2,object_09,5,4263,0,8,8,forest_6,1,memory-2step-stake-s,744,4975666,0.0-18.0-0.1-0.253,2912,4,3
254,2,object_05,object_02,707.58,4,1,297.74,0.8888888888888888,2,object_09,1,4271,0,9,8,forest_20,1,memory-2step-stake-s,745,4984127,0.0-18.0-0.1-0.254,2912,4,3
255,2,object_02,object_05,547.005,4,2,330.86,0.7777777777777778,2,object_09,1,4278,0,9,7,forest_22,1,memory-2step-stake-s,746,4992487,0.0-18.0-0.1-0.255,2912,3,4
