,state1,stim_left,stim_right,rt_1,choice1,response1,rt_2,points,state2,stim_state2,stake,score,practice,rews1,rews2,background,high_arm,trial_type,trial_index,time_elapsed,internal_node_id,subid,stim_left_num,stim_right_num
0,4,object_01,object_10,915.585,8,2,731.98,0.7777777777777778,2,object_02,1,7,0,0,7,restaurant_8,1,memory-2step-stake-s,492,1809424,0.0-18.0-0.0-0.0,2815,7,8
1,1,object_04,object_07,942.87,2,1,868.29,0.8888888888888888,2,object_02,1,15,0,2,8,desert_2,1,memory-2step-stake-s,493,1818416,0.0-18.0-0.0-0.1,2815,2,1
2,3,object_08,object_05,1210.015,5,2,816.345,0.1111111111111111,1,object_06,5,20,0,1,9,library_20,1,memory-2step-stake-s,494,1826594,0.0-18.0-0.0-0.2,2815,6,5
3,1,object_04,object_07,987.13,1,2,865.21,0.0,1,object_06,1,20,0,0,7,desert_30,1,memory-2step-stake-s,495,1834706,0.0-18.0-0.0-0.3,2815,2,1
4,3,object_05,object_08,1183.875,5,1,778.015,0.4444444444444444,1,object_06,5,40,0,4,4,library_18,1,memory-2step-stake-s,496,1843167,0.0-18.0-0.0-0.4,2815,5,6
5,3,object_08,object_05,-1.0,-1,-1,-1.0,0.0,-,,5,40,0,3,2,library_5,1,memory-2step-stake-s,497,1849706,0.0-18.0-0.0-0.5,2815,6,5
6,3,object_08,object_05,438.075,5,2,457.195,0.5555555555555556,1,object_06,1,45,0,5,2,library_30,1,memory-2step-stake-s,498,1857949,0.0-18.0-0.0-0.6,2815,6,5
7,2,object_03,object_09,705.36,4,1,605.65,0.2222222222222222,2,object_02,1,47,0,3,2,forest_25,1,memory-2step-stake-s,499,1866016,0.0-18.0-0.0-0.7,2815,4,3
8,2,object_03,object_09,637.88,4,1,590.115,0.3333333333333333,2,object_02,1,50,0,4,3,forest_1,1,memory-2step-stake-s,500,1874214,0.0-18.0-0.0-0.8,2815,4,3
9,1,object_07,object_04,836.85,2,2,481.2,0.1111111111111111,2,object_02,1,51,0,4,1,desert_13,1,memory-2step-stake-s,501,1882072,0.0-18.0-0.0-0.9,2815,1,2
10,2,object_03,object_09,774.685,4,1,417.165,0.2222222222222222,2,object_02,1,53,0,5,2,forest_13,1,memory-2step-stake-s,502,1889959,0.0-18.0-0.0-0.10,2815,4,3
11,1,object_04,object_07,713.24,2,1,640.575,0.1111111111111111,2,object_02,1,54,0,7,1,desert_23,1,memory-2step-stake-s,503,1897972,0.0-18.0-0.0-0.11,2815,2,1
12,3,object_08,object_05,920.68,6,1,431.335,0.1111111111111111,2,object_02,5,59,0,8,1,library_9,1,memory-2step-stake-s,504,1905769,0.0-18.0-0.0-0.12,2815,6,5
13,1,object_04,object_07,938.495,1,2,609.1,0.8888888888888888,1,object_06,5,99,0,8,1,desert_6,1,memory-2step-stake-s,505,1914455,0.0-18.0-0.0-0.13,2815,2,1
14,4,object_01,object_10,800.35,7,1,490.25,0.8888888888888888,1,object_06,5,139,0,8,3,restaurant_15,1,memory-2step-stake-s,506,1923065,0.0-18.0-0.0-0.14,2815,7,8
15,3,object_05,object_08,-1.0,-1,-1,-1.0,0.0,-,,1,139,0,8,4,library_21,1,memory-2step-stake-s,507,1929611,0.0-18.0-0.0-0.15,2815,5,6
16,1,object_04,object_07,585.125,1,2,417.32,0.3333333333333333,1,object_06,5,154,0,3,4,desert_10,1,memory-2step-stake-s,508,1937618,0.0-18.0-0.0-0.16,2815,2,1
17,2,object_09,object_03,672.455,3,1,434.255,0.6666666666666666,1,object_06,1,160,0,6,7,forest_6,1,memory-2step-stake-s,509,1945962,0.0-18.0-0.0-0.17,2815,3,4
18,2,object_03,object_09,940.05,3,2,931.665,1.0,1,object_06,1,169,0,9,8,forest_28,1,memory-2step-stake-s,510,1955079,0.0-18.0-0.0-0.18,2815,4,3
19,2,object_09,object_03,789.24,3,1,624.24,0.8888888888888888,1,object_06,1,177,0,8,9,forest_10,1,memory-2step-stake-s,511,1963792,0.0-18.0-0.0-0.19,2815,3,4
20,2,object_03,object_09,767.53,4,1,769.775,0.8888888888888888,2,object_02,1,185,0,5,8,forest_13,1,memory-2step-stake-s,512,1972652,0.0-18.0-0.0-0.20,2815,4,3
21,3,object_05,object_08,605.835,6,2,388.375,0.8888888888888888,2,object_02,5,225,0,2,8,library_30,1,memory-2step-stake-s,513,1981093,0.0-18.0-0.0-0.21,2815,5,6
22,3,object_08,object_05,798.045,5,2,376.84,0.3333333333333333,1,object_06,5,240,0,3,6,library_29,1,memory-2step-stake-s,514,1989027,0.0-18.0-0.0-0.22,2815,6,5
23,1,object_04,object_07,905.08,2,1,427.12,0.4444444444444444,2,object_02,1,244,0,3,4,desert_22,1,memory-2step-stake-s,515,1997110,0.0-18.0-0.0-0.23,2815,2,1
24,2,object_09,object_03,287.8,4,2,408.84,0.5555555555555556,2,object_02,1,249,0,0,5,forest_16,1,memory-2step-stake-s,516,2005280,0.0-18.0-0.0-0.24,2815,3,4
25,1,object_04,object_07,352.065,2,1,362.425,1.0,2,object_02,1,258,0,1,9,desert_5,1,memory-2step-stake-s,517,2013856,0.0-18.0-0.0-0.25,2815,2,1
26,1,object_04,object_07,439.615,1,2,474.04,0.4444444444444444,1,object_06,1,262,0,4,9,desert_6,1,memory-2step-stake-s,518,2021992,0.0-18.0-0.0-0.26,2815,2,1
27,3,object_05,object_08,820.695,6,2,785.055,0.8888888888888888,2,object_02,1,270,0,5,8,library_5,1,memory-2step-stake-s,519,2030872,0.0-18.0-0.0-0.27,2815,5,6
28,2,object_03,object_09,740.035,4,1,656.14,0.8888888888888888,2,object_02,5,310,0,5,8,forest_19,1,memory-2step-stake-s,520,2039641,0.0-18.0-0.0-0.28,2815,4,3
29,2,object_03,object_09,903.975,3,2,382.175,0.6666666666666666,1,object_06,5,340,0,6,7,forest_2,1,memory-2step-stake-s,521,2047931,0.0-18.0-0.0-0.29,2815,4,3
30,3,object_08,object_05,610.025,5,2,1091.99,0.7777777777777778,1,object_06,5,375,0,7,6,library_21,1,memory-2step-stake-s,522,2057018,0.0-18.0-0.0-0.30,2815,6,5
31,3,object_05,object_08,383.305,6,2,420.32,0.5555555555555556,2,object_02,5,400,0,7,5,library_4,1,memory-2step-stake-s,523,2065220,0.0-18.0-0.0-0.31,2815,5,6
32,4,object_01,object_10,785.305,7,1,682.735,0.5555555555555556,1,object_06,5,425,0,5,7,restaurant_15,1,memory-2step-stake-s,524,2073697,0.0-18.0-0.0-0.32,2815,7,8
33,1,object_04,object_07,342.185,1,2,1097.535,0.6666666666666666,1,object_06,1,431,0,6,5,desert_29,1,memory-2step-stake-s,525,2082707,0.0-18.0-0.0-0.33,2815,2,1
34,2,object_03,object_09,109.68,4,1,365.235,0.4444444444444444,2,object_02,1,435,0,6,4,forest_11,1,memory-2step-stake-s,526,2090765,0.0-18.0-0.0-0.34,2815,4,3
35,4,object_10,object_01,556.485,7,2,498.055,0.8888888888888888,1,object_06,5,475,0,8,3,restaurant_4,1,memory-2step-stake-s,527,2099364,0.0-18.0-0.0-0.35,2815,8,7
36,1,object_07,object_04,645.055,1,1,377.94,1.0,1,object_06,1,484,0,9,4,desert_22,1,memory-2step-stake-s,528,2107929,0.0-18.0-0.0-0.36,2815,1,2
37,1,object_04,object_07,630.47,1,2,660.33,0.8888888888888888,1,object_06,1,492,0,8,7,desert_17,1,memory-2step-stake-s,529,2116661,0.0-18.0-0.0-0.37,2815,2,1
38,2,object_03,object_09,804.0,3,2,484.035,0.6666666666666666,1,object_06,1,498,0,6,6,forest_4,1,memory-2step-stake-s,530,2125044,0.0-18.0-0.0-0.38,2815,4,3
39,3,object_08,object_05,-1.0,-1,-1,-1.0,0.0,-,,5,498,0,7,5,library_4,1,memory-2step-stake-s,531,2131582,0.0-18.0-0.0-0.39,2815,6,5
40,4,object_01,object_10,573.86,8,2,503.15,0.2222222222222222,2,object_02,5,508,0,7,2,restaurant_32,1,memory-2step-stake-s,532,2139539,0.0-18.0-0.0-0.40,2815,7,8
41,2,object_09,object_03,373.33,3,1,-1.0,0.0,1,object_06,1,508,0,8,4,forest_25,1,memory-2step-stake-s,533,2148103,0.0-18.0-0.0-0.41,2815,3,4
42,1,object_07,object_04,635.755,1,1,281.94,0.8888888888888888,1,object_06,1,516,0,8,6,desert_2,1,memory-2step-stake-s,534,2156486,0.0-18.0-0.0-0.42,2815,1,2
43,1,object_04,object_07,462.185,1,2,311.02,0.7777777777777778,1,object_06,1,523,0,7,7,desert_13,1,memory-2step-stake-s,535,2164806,0.0-18.0-0.0-0.43,2815,2,1
44,2,object_03,object_09,768.78,4,1,335.51,0.8888888888888888,2,object_02,5,563,0,9,8,forest_16,1,memory-2step-stake-s,536,2173269,0.0-18.0-0.0-0.44,2815,4,3
45,4,object_10,object_01,725.985,7,2,313.19,0.8888888888888888,1,object_06,5,603,0,8,8,restaurant_5,1,memory-2step-stake-s,537,2181678,0.0-18.0-0.0-0.45,2815,8,7
46,2,object_09,object_03,396.155,3,1,404.98,0.8888888888888888,1,object_06,1,611,0,8,6,forest_1,1,memory-2step-stake-s,538,2190158,0.0-18.0-0.0-0.46,2815,3,4
47,4,object_01,object_10,381.99,7,1,328.36,0.8888888888888888,1,object_06,5,651,0,8,6,restaurant_10,1,memory-2step-stake-s,539,2198602,0.0-18.0-0.0-0.47,2815,7,8
48,1,object_07,object_04,640.77,2,2,297.72,0.3333333333333333,2,object_02,5,666,0,4,3,desert_29,1,memory-2step-stake-s,540,2206473,0.0-18.0-0.0-0.48,2815,1,2
49,4,object_01,object_10,582.96,7,1,278.635,0.3333333333333333,1,object_06,5,681,0,3,1,restaurant_16,1,memory-2step-stake-s,541,2214312,0.0-18.0-0.0-0.49,2815,7,8
50,3,object_05,object_08,421.44,5,1,323.96,0.5555555555555556,1,object_06,1,686,0,5,1,library_17,1,memory-2step-stake-s,542,2222406,0.0-18.0-0.0-0.50,2815,5,6
51,2,object_09,object_03,478.75,3,1,375.52,0.7777777777777778,1,object_06,1,693,0,7,1,forest_28,1,memory-2step-stake-s,543,2230771,0.0-18.0-0.0-0.51,2815,3,4
52,4,object_01,object_10,570.045,8,2,381.69,0.1111111111111111,2,object_02,5,698,0,8,1,restaurant_29,1,memory-2step-stake-s,544,2238520,0.0-18.0-0.0-0.52,2815,7,8
53,1,object_07,object_04,739.59,1,1,250.05,0.8888888888888888,1,object_06,1,706,0,8,1,desert_20,1,memory-2step-stake-s,545,2246846,0.0-18.0-0.0-0.53,2815,1,2
54,1,object_04,object_07,651.98,2,1,307.835,0.3333333333333333,2,object_02,1,709,0,3,3,desert_30,1,memory-2step-stake-s,546,2254733,0.0-18.0-0.0-0.54,2815,2,1
55,3,object_05,object_08,684.115,6,2,463.695,0.2222222222222222,2,object_02,5,719,0,1,2,library_15,1,memory-2step-stake-s,547,2262680,0.0-18.0-0.0-0.55,2815,5,6
56,1,object_07,object_04,773.935,1,1,119.8,0.1111111111111111,1,object_06,1,720,0,1,5,desert_31,1,memory-2step-stake-s,548,2270163,0.0-18.0-0.0-0.56,2815,1,2
57,3,object_08,object_05,691.38,5,2,303.525,0.2222222222222222,1,object_06,5,730,0,2,5,library_32,1,memory-2step-stake-s,549,2277940,0.0-18.0-0.0-0.57,2815,6,5
58,3,object_05,object_08,456.695,6,2,364.65,0.3333333333333333,2,object_02,1,733,0,2,3,library_9,1,memory-2step-stake-s,550,2285871,0.0-18.0-0.0-0.58,2815,5,6
59,3,object_08,object_05,636.765,5,2,454.38,0.0,1,object_06,5,733,0,0,2,library_29,1,memory-2step-stake-s,551,2293576,0.0-18.0-0.0-0.59,2815,6,5
60,4,object_01,object_10,718.265,7,1,366.23,0.1111111111111111,1,object_06,5,738,0,1,1,restaurant_32,1,memory-2step-stake-s,552,2301323,0.0-18.0-0.0-0.60,2815,7,8
61,4,object_01,object_10,749.305,7,1,286.99,0.4444444444444444,1,object_06,5,758,0,4,1,restaurant_5,1,memory-2step-stake-s,553,2309302,0.0-18.0-0.0-0.61,2815,7,8
62,1,object_04,object_07,717.13,1,2,157.77,0.6666666666666666,1,object_06,1,764,0,6,4,desert_30,1,memory-2step-stake-s,554,2317339,0.0-18.0-0.0-0.62,2815,2,1
63,1,object_04,object_07,638.69,2,1,98.99500001,0.3333333333333333,2,object_02,1,767,0,6,3,desert_4,1,memory-2step-stake-s,555,2325033,0.0-18.0-0.0-0.63,2815,2,1
64,2,object_03,object_09,641.37,3,2,197.525,0.6666666666666666,1,object_06,1,773,0,6,3,forest_30,1,memory-2step-stake-s,556,2333111,0.0-18.0-0.0-0.64,2815,4,3
65,2,object_03,object_09,682.44,4,1,367.265,0.1111111111111111,2,object_02,1,774,0,5,1,forest_3,1,memory-2step-stake-s,557,2340854,0.0-18.0-0.0-0.65,2815,4,3
66,4,object_01,object_10,680.195,7,1,328.26,0.5555555555555556,1,object_06,5,799,0,5,0,restaurant_16,1,memory-2step-stake-s,558,2348958,0.0-18.0-0.0-0.66,2815,7,8
67,1,object_04,object_07,660.89,2,1,279.69,0.2222222222222222,2,object_02,1,801,0,9,2,desert_19,1,memory-2step-stake-s,559,2356705,0.0-18.0-0.0-0.67,2815,2,1
68,4,object_01,object_10,734.83,7,1,311.785,0.5555555555555556,1,object_06,5,826,0,5,6,restaurant_11,1,memory-2step-stake-s,560,2364822,0.0-18.0-0.0-0.68,2815,7,8
69,2,object_09,object_03,712.45,4,2,287.72,0.4444444444444444,2,object_02,1,830,0,8,4,forest_4,1,memory-2step-stake-s,561,2372790,0.0-18.0-0.0-0.69,2815,3,4
70,3,object_08,object_05,713.88,6,1,387.035,0.2222222222222222,2,object_02,5,840,0,8,2,library_18,1,memory-2step-stake-s,562,2380654,0.0-18.0-0.0-0.70,2815,6,5
71,4,object_01,object_10,516.14,7,1,278.165,0.8888888888888888,1,object_06,5,880,0,8,4,restaurant_29,1,memory-2step-stake-s,563,2389019,0.0-18.0-0.0-0.71,2815,7,8
72,4,object_01,object_10,559.73,7,1,281.68,1.0,1,object_06,5,925,0,9,0,restaurant_13,1,memory-2step-stake-s,564,2397490,0.0-18.0-0.0-0.72,2815,7,8
73,1,object_07,object_04,599.835,2,2,260.75,0.0,2,object_02,1,925,0,7,0,desert_14,1,memory-2step-stake-s,565,2405013,0.0-18.0-0.0-0.73,2815,1,2
74,2,object_03,object_09,766.2,4,1,437.745,0.0,2,object_02,5,925,0,7,0,forest_10,1,memory-2step-stake-s,566,2412719,0.0-18.0-0.0-0.74,2815,4,3
75,1,object_07,object_04,594.845,2,2,246.785,0.1111111111111111,2,object_02,1,926,0,4,1,desert_30,1,memory-2step-stake-s,567,2420333,0.0-18.0-0.0-0.75,2815,1,2
76,4,object_01,object_10,626.07,7,1,246.35,0.4444444444444444,1,object_06,5,946,0,4,2,restaurant_30,1,memory-2step-stake-s,568,2428269,0.0-18.0-0.0-0.76,2815,7,8
77,4,object_01,object_10,600.055,8,2,336.58,0.2222222222222222,2,object_02,1,948,0,4,2,restaurant_6,1,memory-2step-stake-s,569,2436077,0.0-18.0-0.0-0.77,2815,7,8
78,1,object_07,object_04,563.515,1,1,279.475,0.2222222222222222,1,object_06,5,958,0,2,4,desert_14,1,memory-2step-stake-s,570,2443830,0.0-18.0-0.0-0.78,2815,1,2
79,2,object_03,object_09,807.865,4,1,361.985,0.4444444444444444,2,object_02,5,978,0,4,4,forest_20,1,memory-2step-stake-s,571,2451866,0.0-18.0-0.0-0.79,2815,4,3
80,4,object_01,object_10,587.24,7,1,265.46,0.3333333333333333,1,object_06,5,993,0,3,2,restaurant_11,1,memory-2step-stake-s,572,2459700,0.0-18.0-0.0-0.80,2815,7,8
81,4,object_10,object_01,620.835,8,1,272.0,0.1111111111111111,2,object_02,5,998,0,2,1,restaurant_27,1,memory-2step-stake-s,573,2467345,0.0-18.0-0.0-0.81,2815,8,7
82,2,object_03,object_09,643.425,3,2,239.65,0.5555555555555556,1,object_06,1,1003,0,5,3,forest_6,1,memory-2step-stake-s,574,2475356,0.0-18.0-0.0-0.82,2815,4,3
83,2,object_09,object_03,511.865,3,1,287.12,0.2222222222222222,1,object_06,1,1005,0,2,2,forest_11,1,memory-2step-stake-s,575,2483097,0.0-18.0-0.0-0.83,2815,3,4
84,1,object_04,object_07,606.1,2,1,274.08,0.2222222222222222,2,object_02,1,1007,0,3,2,desert_5,1,memory-2step-stake-s,576,2490846,0.0-18.0-0.0-0.84,2815,2,1
85,3,object_08,object_05,788.675,5,2,314.53,0.2222222222222222,1,object_06,5,1017,0,2,3,library_15,1,memory-2step-stake-s,577,2498616,0.0-18.0-0.0-0.85,2815,6,5
86,3,object_05,object_08,381.86,5,1,348.515,0.1111111111111111,1,object_06,5,1022,0,1,1,library_15,1,memory-2step-stake-s,578,2506319,0.0-18.0-0.0-0.86,2815,5,6
87,1,object_07,object_04,895.94,1,1,217.685,0.3333333333333333,1,object_06,1,1025,0,3,1,desert_19,1,memory-2step-stake-s,579,2514130,0.0-18.0-0.0-0.87,2815,1,2
88,3,object_08,object_05,679.835,5,2,240.785,0.6666666666666666,1,object_06,1,1031,0,6,5,library_32,1,memory-2step-stake-s,580,2522280,0.0-18.0-0.0-0.88,2815,6,5
89,2,object_09,object_03,801.92,4,2,375.155,0.2222222222222222,2,object_02,1,1033,0,2,2,forest_6,1,memory-2step-stake-s,581,2530118,0.0-18.0-0.0-0.89,2815,3,4
90,3,object_05,object_08,732.565,5,1,309.955,0.6666666666666666,1,object_06,5,1063,0,6,3,library_16,1,memory-2step-stake-s,582,2538314,0.0-18.0-0.0-0.90,2815,5,6
91,2,object_03,object_09,792.82,4,1,294.74,0.5555555555555556,2,object_02,1,1068,0,7,5,forest_10,1,memory-2step-stake-s,583,2546371,0.0-18.0-0.0-0.91,2815,4,3
92,4,object_10,object_01,616.04,7,2,489.77,0.5555555555555556,1,object_06,5,1093,0,5,4,restaurant_4,1,memory-2step-stake-s,584,2554674,0.0-18.0-0.0-0.92,2815,8,7
93,1,object_04,object_07,620.035,2,1,345.41,0.8888888888888888,2,object_02,1,1101,0,3,8,desert_4,1,memory-2step-stake-s,585,2563104,0.0-18.0-0.0-0.93,2815,2,1
94,3,object_08,object_05,675.985,5,2,465.535,0.6666666666666666,1,object_06,5,1131,0,6,7,library_21,1,memory-2step-stake-s,586,2571445,0.0-18.0-0.0-0.94,2815,6,5
95,1,object_04,object_07,488.745,2,1,281.06,0.6666666666666666,2,object_02,1,1137,0,6,6,desert_2,1,memory-2step-stake-s,587,2579642,0.0-18.0-0.0-0.95,2815,2,1
96,2,object_03,object_09,736.18,4,1,286.945,0.5555555555555556,2,object_02,1,1142,0,6,5,forest_3,1,memory-2step-stake-s,588,2587695,0.0-18.0-0.0-0.96,2815,4,3
97,2,object_03,object_09,580.585,4,1,315.765,0.5555555555555556,2,object_02,1,1147,0,9,5,forest_20,1,memory-2step-stake-s,589,2595815,0.0-18.0-0.0-0.97,2815,4,3
98,2,object_09,object_03,706.555,4,2,441.89,0.3333333333333333,2,object_02,1,1150,0,8,3,forest_24,1,memory-2step-stake-s,590,2603849,0.0-18.0-0.0-0.98,2815,3,4
99,4,object_10,object_01,828.515,7,2,440.62,0.8888888888888888,1,object_06,1,1158,0,8,2,restaurant_27,1,memory-2step-stake-s,591,2612401,0.0-18.0-0.0-0.99,2815,8,7
100,3,object_08,object_05,576.29,5,2,343.845,0.2222222222222222,1,object_06,5,1168,0,2,2,library_30,1,memory-2step-stake-s,592,2620214,0.0-18.0-0.0-0.100,2815,6,5
101,3,object_05,object_08,736.97,5,1,285.415,0.2222222222222222,1,object_06,5,1178,0,2,5,library_9,1,memory-2step-stake-s,593,2627964,0.0-18.0-0.0-0.101,2815,5,6
102,4,object_01,object_10,738.845,7,1,264.08,0.1111111111111111,1,object_06,1,1179,0,1,6,restaurant_7,1,memory-2step-stake-s,594,2635591,0.0-18.0-0.0-0.102,2815,7,8
103,2,object_03,object_09,809.535,3,2,413.09,0.2222222222222222,1,object_06,1,1181,0,2,6,forest_2,1,memory-2step-stake-s,595,2643471,0.0-18.0-0.0-0.103,2815,4,3
104,2,object_03,object_09,774.325,4,1,325.14,0.6666666666666666,2,object_02,1,1187,0,0,6,forest_14,1,memory-2step-stake-s,596,2651691,0.0-18.0-0.0-0.104,2815,4,3
105,1,object_07,object_04,736.65,1,1,301.27,0.2222222222222222,1,object_06,1,1189,0,2,5,desert_23,1,memory-2step-stake-s,597,2659471,0.0-18.0-0.0-0.105,2815,1,2
106,2,object_03,object_09,645.995,4,1,1157.225,0.6666666666666666,2,object_02,1,1195,0,3,6,forest_2,1,memory-2step-stake-s,598,2668503,0.0-18.0-0.0-0.106,2815,4,3
107,3,object_05,object_08,548.935,6,2,448.28,0.6666666666666666,2,object_02,5,1225,0,4,6,library_17,1,memory-2step-stake-s,599,2676824,0.0-18.0-0.0-0.107,2815,5,6
108,3,object_08,object_05,744.09,5,2,315.26,0.3333333333333333,1,object_06,5,1240,0,3,5,library_9,1,memory-2step-stake-s,600,2684715,0.0-18.0-0.0-0.108,2815,6,5
109,4,object_10,object_01,662.45,8,1,297.5,0.7777777777777778,2,object_02,5,1275,0,3,7,restaurant_30,1,memory-2step-stake-s,601,2692988,0.0-18.0-0.0-0.109,2815,8,7
110,1,object_07,object_04,772.67,2,2,266.255,0.6666666666666666,2,object_02,5,1305,0,2,6,desert_22,1,memory-2step-stake-s,602,2701107,0.0-18.0-0.0-0.110,2815,1,2
111,2,object_03,object_09,936.08,3,2,313.94,0.4444444444444444,1,object_06,5,1325,0,4,5,forest_24,1,memory-2step-stake-s,603,2709099,0.0-18.0-0.0-0.111,2815,4,3
112,3,object_05,object_08,763.63,5,1,205.83,0.3333333333333333,1,object_06,5,1340,0,3,6,library_32,1,memory-2step-stake-s,604,2716882,0.0-18.0-0.0-0.112,2815,5,6
113,1,object_07,object_04,838.27,1,1,298.795,0.6666666666666666,1,object_06,1,1346,0,6,7,desert_31,1,memory-2step-stake-s,605,2725095,0.0-18.0-0.0-0.113,2815,1,2
114,3,object_08,object_05,743.99,5,2,178.835,0.8888888888888888,1,object_06,5,1386,0,8,6,library_13,1,memory-2step-stake-s,606,2733385,0.0-18.0-0.0-0.114,2815,6,5
115,1,object_04,object_07,545.115,2,1,239.88,0.6666666666666666,2,object_02,1,1392,0,8,6,desert_28,1,memory-2step-stake-s,607,2741508,0.0-18.0-0.0-0.115,2815,2,1
116,4,object_10,object_01,594.83,7,2,401.33,0.7777777777777778,1,object_06,5,1427,0,7,6,restaurant_31,1,memory-2step-stake-s,608,2749891,0.0-18.0-0.0-0.116,2815,8,7
117,4,object_10,object_01,381.97,8,1,317.255,0.4444444444444444,2,object_02,5,1447,0,9,4,restaurant_30,1,memory-2step-stake-s,609,2757898,0.0-18.0-0.0-0.117,2815,8,7
118,4,object_10,object_01,597.29,7,2,247.03,0.8888888888888888,1,object_06,5,1487,0,8,1,restaurant_4,1,memory-2step-stake-s,610,2766241,0.0-18.0-0.0-0.118,2815,8,7
119,1,object_07,object_04,697.615,1,1,65.97,0.7777777777777778,1,object_06,1,1494,0,7,1,desert_5,1,memory-2step-stake-s,611,2774288,0.0-18.0-0.0-0.119,2815,1,2
120,3,object_08,object_05,722.11,5,2,84.95000002,1.0,1,object_06,5,1539,0,9,3,library_3,1,memory-2step-stake-s,612,2782561,0.0-18.0-0.0-0.120,2815,6,5
121,2,object_09,object_03,901.535,4,2,312.815,0.3333333333333333,2,object_02,1,1542,0,8,3,forest_10,1,memory-2step-stake-s,613,2790441,0.0-18.0-0.0-0.121,2815,3,4
122,4,object_10,object_01,727.17,7,2,287.145,0.7777777777777778,1,object_06,5,1577,0,7,3,restaurant_16,1,memory-2step-stake-s,614,2798712,0.0-18.0-0.0-0.122,2815,8,7
123,3,object_08,object_05,698.285,5,2,289.005,0.5555555555555556,1,object_06,5,1602,0,5,3,library_21,1,memory-2step-stake-s,615,2806781,0.0-18.0-0.0-0.123,2815,6,5
124,4,object_10,object_01,540.75,7,2,287.6,0.8888888888888888,1,object_06,5,1642,0,8,3,restaurant_16,1,memory-2step-stake-s,616,2815174,0.0-18.0-0.0-0.124,2815,8,7
125,1,object_07,object_04,372.985,1,1,244.725,0.6666666666666666,1,object_06,1,1648,0,6,0,desert_20,1,memory-2step-stake-s,617,2823302,0.0-18.0-0.0-0.125,2815,1,2
126,3,object_08,object_05,637.695,5,2,239.87,0.6666666666666666,1,object_06,5,1678,0,6,1,library_20,1,memory-2step-stake-s,618,2831443,0.0-18.0-0.0-0.126,2815,6,5
127,1,object_07,object_04,629.78,2,2,331.725,0.1111111111111111,2,object_02,1,1679,0,6,1,desert_19,1,memory-2step-stake-s,619,2839148,0.0-18.0-0.0-0.127,2815,1,2
128,4,object_01,object_10,540.78,7,1,273.01,0.6666666666666666,1,object_06,5,1709,0,6,1,restaurant_15,1,memory-2step-stake-s,621,3158213,0.0-18.0-0.1-0.128,2815,7,8
129,4,object_01,object_10,604.54,7,1,278.09,1.0,1,object_06,5,1754,0,9,0,restaurant_29,1,memory-2step-stake-s,622,3166713,0.0-18.0-0.1-0.129,2815,7,8
130,3,object_08,object_05,655.985,5,2,238.75,0.8888888888888888,1,object_06,5,1794,0,8,0,library_13,1,memory-2step-stake-s,623,3175037,0.0-18.0-0.1-0.130,2815,6,5
131,4,object_10,object_01,728.88,8,1,300.625,0.3333333333333333,2,object_02,1,1797,0,7,3,restaurant_13,1,memory-2step-stake-s,624,3182907,0.0-18.0-0.1-0.131,2815,8,7
132,2,object_03,object_09,787.735,3,2,382.705,0.6666666666666666,1,object_06,1,1803,0,6,0,forest_11,1,memory-2step-stake-s,625,3191181,0.0-18.0-0.1-0.132,2815,4,3
133,4,object_01,object_10,736.43,7,1,276.96,0.6666666666666666,1,object_06,1,1809,0,6,1,restaurant_5,1,memory-2step-stake-s,626,3199348,0.0-18.0-0.1-0.133,2815,7,8
134,3,object_08,object_05,868.355,6,1,264.92,0.6666666666666666,2,object_02,1,1815,0,8,6,library_28,1,memory-2step-stake-s,627,3207543,0.0-18.0-0.1-0.134,2815,6,5
135,4,object_10,object_01,556.49,7,2,215.8,0.5555555555555556,1,object_06,5,1840,0,5,8,restaurant_30,1,memory-2step-stake-s,628,3215542,0.0-18.0-0.1-0.135,2815,8,7
136,1,object_04,object_07,874.245,1,2,224.28,0.2222222222222222,1,object_06,5,1850,0,2,6,desert_17,1,memory-2step-stake-s,629,3223211,0.0-18.0-0.1-0.136,2815,2,1
137,3,object_05,object_08,719.505,5,1,310.12,0.2222222222222222,1,object_06,5,1860,0,2,6,library_17,1,memory-2step-stake-s,630,3230976,0.0-18.0-0.1-0.137,2815,5,6
138,2,object_03,object_09,463.965,4,1,292.325,0.6666666666666666,2,object_02,1,1866,0,4,6,forest_30,1,memory-2step-stake-s,631,3239168,0.0-18.0-0.1-0.138,2815,4,3
139,4,object_10,object_01,577.26,7,2,9.300000005,0.2222222222222222,1,object_06,5,1876,0,2,4,restaurant_31,1,memory-2step-stake-s,632,3246654,0.0-18.0-0.1-0.139,2815,8,7
140,2,object_03,object_09,308.12,3,2,399.315,0.3333333333333333,1,object_06,1,1879,0,3,3,forest_11,1,memory-2step-stake-s,633,3254645,0.0-18.0-0.1-0.140,2815,4,3
141,4,object_01,object_10,945.89,7,1,348.35,0.2222222222222222,1,object_06,1,1881,0,2,2,restaurant_25,1,memory-2step-stake-s,634,3262472,0.0-18.0-0.1-0.141,2815,7,8
142,1,object_07,object_04,288.765,2,2,924.61,0.2222222222222222,2,object_02,1,1883,0,0,2,desert_22,1,memory-2step-stake-s,635,3270862,0.0-18.0-0.1-0.142,2815,1,2
143,4,object_10,object_01,574.215,8,1,568.44,0.4444444444444444,2,object_02,5,1903,0,4,4,restaurant_6,1,memory-2step-stake-s,636,3279121,0.0-18.0-0.1-0.143,2815,8,7
144,2,object_09,object_03,98.59500002,3,1,464.25,0.2222222222222222,1,object_06,1,1905,0,2,1,forest_4,1,memory-2step-stake-s,637,3287092,0.0-18.0-0.1-0.144,2815,3,4
145,4,object_10,object_01,624.41,7,2,416.33,0.3333333333333333,1,object_06,1,1908,0,3,1,restaurant_13,1,memory-2step-stake-s,638,3295087,0.0-18.0-0.1-0.145,2815,8,7
146,1,object_07,object_04,465.195,1,1,338.62,0.4444444444444444,1,object_06,1,1912,0,4,1,desert_13,1,memory-2step-stake-s,639,3303085,0.0-18.0-0.1-0.146,2815,1,2
147,1,object_04,object_07,752.875,1,2,641.755,0.5555555555555556,1,object_06,1,1917,0,5,2,desert_17,1,memory-2step-stake-s,640,3311536,0.0-18.0-0.1-0.147,2815,2,1
148,3,object_05,object_08,1230.54,5,1,244.76,0.2222222222222222,1,object_06,5,1927,0,2,3,library_28,1,memory-2step-stake-s,641,3319277,0.0-18.0-0.1-0.148,2815,5,6
149,2,object_03,object_09,606.765,4,1,328.555,0.5555555555555556,2,object_02,1,1932,0,1,5,forest_19,1,memory-2step-stake-s,642,3327405,0.0-18.0-0.1-0.149,2815,4,3
150,3,object_08,object_05,188.49,6,1,787.585,0.4444444444444444,2,object_02,5,1952,0,2,4,library_13,1,memory-2step-stake-s,643,3335876,0.0-18.0-0.1-0.150,2815,6,5
151,4,object_10,object_01,-1.0,-1,-1,-1.0,0.0,-,,5,1952,0,2,2,restaurant_6,1,memory-2step-stake-s,644,3342417,0.0-18.0-0.1-0.151,2815,8,7
152,4,object_01,object_10,317.215,7,1,78.13499999,0.2222222222222222,1,object_06,1,1954,0,2,5,restaurant_29,1,memory-2step-stake-s,645,3349968,0.0-18.0-0.1-0.152,2815,7,8
153,4,object_01,object_10,580.27,8,2,665.94,0.1111111111111111,2,object_02,5,1959,0,2,1,restaurant_25,1,memory-2step-stake-s,646,3357995,0.0-18.0-0.1-0.153,2815,7,8
154,1,object_04,object_07,552.91,1,2,14.48000001,0.0,1,object_06,1,1959,0,0,2,desert_4,1,memory-2step-stake-s,647,3365274,0.0-18.0-0.1-0.154,2815,2,1
155,4,object_01,object_10,593.41,7,1,-1.0,0.0,1,object_06,5,1959,0,5,4,restaurant_13,1,memory-2step-stake-s,648,3373831,0.0-18.0-0.1-0.155,2815,7,8
156,1,object_04,object_07,53.785,2,1,39.525,0.4444444444444444,2,object_02,1,1963,0,3,4,desert_14,1,memory-2step-stake-s,649,3381571,0.0-18.0-0.1-0.156,2815,2,1
157,1,object_04,object_07,542.635,1,2,186.02,0.1111111111111111,1,object_06,5,1968,0,1,2,desert_17,1,memory-2step-stake-s,650,3389128,0.0-18.0-0.1-0.157,2815,2,1
158,1,object_04,object_07,656.45,1,2,84.715,0.2222222222222222,1,object_06,5,1978,0,2,3,desert_6,1,memory-2step-stake-s,651,3396688,0.0-18.0-0.1-0.158,2815,2,1
159,4,object_10,object_01,1061.25,7,2,616.26,0.0,1,object_06,5,1978,0,0,4,restaurant_10,1,memory-2step-stake-s,652,3404552,0.0-18.0-0.1-0.159,2815,8,7
160,1,object_07,object_04,338.225,1,1,158.75,0.0,1,object_06,1,1978,0,0,7,desert_28,1,memory-2step-stake-s,653,3411996,0.0-18.0-0.1-0.160,2815,1,2
161,2,object_03,object_09,798.635,3,2,54.26,0.3333333333333333,1,object_06,1,1981,0,3,9,forest_3,1,memory-2step-stake-s,654,3419627,0.0-18.0-0.1-0.161,2815,4,3
162,4,object_10,object_01,602.975,8,1,134.815,1.0,2,object_02,5,2026,0,7,9,restaurant_25,1,memory-2step-stake-s,655,3427984,0.0-18.0-0.1-0.162,2815,8,7
163,4,object_01,object_10,547.255,8,2,-1.0,0.0,2,object_02,5,2026,0,4,9,restaurant_32,1,memory-2step-stake-s,656,3436540,0.0-18.0-0.1-0.163,2815,7,8
164,1,object_04,object_07,1007.64,2,1,-1.0,0.0,2,object_02,5,2026,0,1,9,desert_23,1,memory-2step-stake-s,657,3445087,0.0-18.0-0.1-0.164,2815,2,1
165,3,object_05,object_08,751.68,6,2,507.41,0.7777777777777778,2,object_02,5,2061,0,2,7,library_28,1,memory-2step-stake-s,658,3453584,0.0-18.0-0.1-0.165,2815,5,6
166,4,object_10,object_01,858.18,8,1,523.38,0.8888888888888888,2,object_02,1,2069,0,0,8,restaurant_25,1,memory-2step-stake-s,659,3462218,0.0-18.0-0.1-0.166,2815,8,7
167,1,object_07,object_04,926.365,1,1,310.3,0.4444444444444444,1,object_06,5,2089,0,4,6,desert_20,1,memory-2step-stake-s,660,3470212,0.0-18.0-0.1-0.167,2815,1,2
168,3,object_05,object_08,737.9,6,2,346.445,0.8888888888888888,2,object_02,5,2129,0,2,8,library_18,1,memory-2step-stake-s,661,3478666,0.0-18.0-0.1-0.168,2815,5,6
169,4,object_01,object_10,716.66,7,1,535.72,0.0,1,object_06,1,2129,0,0,5,restaurant_7,1,memory-2step-stake-s,662,3486455,0.0-18.0-0.1-0.169,2815,7,8
170,2,object_03,object_09,888.655,3,2,404.25,0.2222222222222222,1,object_06,5,2139,0,2,8,forest_19,1,memory-2step-stake-s,663,3494321,0.0-18.0-0.1-0.170,2815,4,3
171,1,object_07,object_04,91.01999999,1,1,44.945,0.4444444444444444,1,object_06,1,2143,0,4,5,desert_20,1,memory-2step-stake-s,664,3502019,0.0-18.0-0.1-0.171,2815,1,2
172,2,object_03,object_09,520.005,3,2,251.64,0.5555555555555556,1,object_06,1,2148,0,5,6,forest_28,1,memory-2step-stake-s,665,3510060,0.0-18.0-0.1-0.172,2815,4,3
173,4,object_01,object_10,53.35499998,7,1,244.295,0.4444444444444444,1,object_06,5,2168,0,4,6,restaurant_4,1,memory-2step-stake-s,666,3517970,0.0-18.0-0.1-0.173,2815,7,8
174,1,object_07,object_04,612.93,1,1,347.505,0.4444444444444444,1,object_06,1,2172,0,4,5,desert_28,1,memory-2step-stake-s,667,3525988,0.0-18.0-0.1-0.174,2815,1,2
175,1,object_04,object_07,129.97,2,1,487.15,0.4444444444444444,2,object_02,1,2176,0,4,4,desert_13,1,memory-2step-stake-s,668,3534134,0.0-18.0-0.1-0.175,2815,2,1
176,3,object_08,object_05,870.685,6,1,315.0,0.4444444444444444,2,object_02,1,2180,0,8,4,library_4,1,memory-2step-stake-s,669,3542118,0.0-18.0-0.1-0.176,2815,6,5
177,4,object_10,object_01,494.845,7,2,243.56,0.8888888888888888,1,object_06,5,2220,0,8,4,restaurant_7,1,memory-2step-stake-s,670,3550449,0.0-18.0-0.1-0.177,2815,8,7
178,3,object_05,object_08,498.045,5,1,119.05,0.7777777777777778,1,object_06,1,2227,0,7,4,library_16,1,memory-2step-stake-s,671,3558580,0.0-18.0-0.1-0.178,2815,5,6
179,3,object_05,object_08,649.94,5,1,20.215,0.6666666666666666,1,object_06,5,2257,0,6,3,library_30,1,memory-2step-stake-s,672,3566504,0.0-18.0-0.1-0.179,2815,5,6
180,1,object_04,object_07,646.435,2,1,90.83999999,0.4444444444444444,2,object_02,1,2261,0,4,4,desert_31,1,memory-2step-stake-s,673,3574262,0.0-18.0-0.1-0.180,2815,2,1
181,2,object_03,object_09,507.685,3,2,296.505,0.6666666666666666,1,object_06,5,2291,0,6,6,forest_4,1,memory-2step-stake-s,674,3582454,0.0-18.0-0.1-0.181,2815,4,3
182,1,object_07,object_04,620.44,1,1,259.945,0.6666666666666666,1,object_06,5,2321,0,6,7,desert_19,1,memory-2step-stake-s,675,3590590,0.0-18.0-0.1-0.182,2815,1,2
183,1,object_07,object_04,509.9,1,1,185.02,0.7777777777777778,1,object_06,5,2356,0,7,8,desert_10,1,memory-2step-stake-s,676,3598773,0.0-18.0-0.1-0.183,2815,1,2
184,4,object_10,object_01,579.635,7,2,581.14,0.6666666666666666,1,object_06,5,2386,0,6,7,restaurant_6,1,memory-2step-stake-s,677,3607233,0.0-18.0-0.1-0.184,2815,8,7
185,4,object_01,object_10,592.03,7,1,276.495,1.0,1,object_06,5,2431,0,9,5,restaurant_27,1,memory-2step-stake-s,678,3615711,0.0-18.0-0.1-0.185,2815,7,8
186,3,object_08,object_05,699.725,5,2,195.405,0.6666666666666666,1,object_06,5,2461,0,6,8,library_29,1,memory-2step-stake-s,679,3623823,0.0-18.0-0.1-0.186,2815,6,5
187,4,object_10,object_01,529.27,7,2,194.09,0.5555555555555556,1,object_06,5,2486,0,5,8,restaurant_15,1,memory-2step-stake-s,680,3631799,0.0-18.0-0.1-0.187,2815,8,7
188,4,object_10,object_01,543.2,7,2,191.66,0.3333333333333333,1,object_06,5,2501,0,3,7,restaurant_11,1,memory-2step-stake-s,681,3639554,0.0-18.0-0.1-0.188,2815,8,7
189,3,object_08,object_05,580.445,5,2,181.68,0.2222222222222222,1,object_06,5,2511,0,2,8,library_16,1,memory-2step-stake-s,682,3647205,0.0-18.0-0.1-0.189,2815,6,5
190,3,object_08,object_05,552.33,5,2,200.815,0.2222222222222222,1,object_06,5,2521,0,2,7,library_19,1,memory-2step-stake-s,683,3654882,0.0-18.0-0.1-0.190,2815,6,5
191,4,object_01,object_10,705.24,8,2,128.94,0.7777777777777778,2,object_02,1,2528,0,5,7,restaurant_31,1,memory-2step-stake-s,684,3662980,0.0-18.0-0.1-0.191,2815,7,8
192,1,object_07,object_04,728.67,2,2,117.065,0.6666666666666666,2,object_02,1,2534,0,3,6,desert_10,1,memory-2step-stake-s,685,3670977,0.0-18.0-0.1-0.192,2815,1,2
193,3,object_05,object_08,459.16,5,1,118.585,0.4444444444444444,1,object_06,5,2554,0,4,5,library_19,1,memory-2step-stake-s,686,3678742,0.0-18.0-0.1-0.193,2815,5,6
194,3,object_08,object_05,587.045,5,2,44.23,0.7777777777777778,1,object_06,5,2589,0,7,7,library_20,1,memory-2step-stake-s,687,3686752,0.0-18.0-0.1-0.194,2815,6,5
195,4,object_01,object_10,629.53,8,2,231.64,1.0,2,object_02,5,2634,0,5,9,restaurant_27,1,memory-2step-stake-s,688,3695201,0.0-18.0-0.1-0.195,2815,7,8
196,1,object_07,object_04,571.915,2,2,229.655,1.0,2,object_02,1,2643,0,5,9,desert_10,1,memory-2step-stake-s,689,3703603,0.0-18.0-0.1-0.196,2815,1,2
197,2,object_03,object_09,764.18,4,1,112.41,0.7777777777777778,2,object_02,1,2650,0,7,7,forest_28,1,memory-2step-stake-s,690,3711738,0.0-18.0-0.1-0.197,2815,4,3
198,1,object_07,object_04,693.625,2,2,37.83999998,0.8888888888888888,2,object_02,1,2658,0,5,8,desert_28,1,memory-2step-stake-s,691,3719853,0.0-18.0-0.1-0.198,2815,1,2
199,2,object_03,object_09,714.92,3,2,182.21,0.7777777777777778,1,object_06,1,2665,0,7,8,forest_24,1,memory-2step-stake-s,692,3728013,0.0-18.0-0.1-0.199,2815,4,3
200,3,object_05,object_08,749.73,5,1,143.7,0.6666666666666666,1,object_06,5,2695,0,6,7,library_15,1,memory-2step-stake-s,693,3736028,0.0-18.0-0.1-0.200,2815,5,6
201,3,object_08,object_05,679.15,5,2,40.645,0.3333333333333333,1,object_06,5,2710,0,3,6,library_3,1,memory-2step-stake-s,694,3743653,0.0-18.0-0.1-0.201,2815,6,5
202,1,object_04,object_07,600.905,1,2,8.764999976,0.2222222222222222,1,object_06,1,2712,0,2,8,desert_2,1,memory-2step-stake-s,695,3751109,0.0-18.0-0.1-0.202,2815,2,1
203,4,object_01,object_10,737.265,7,1,67.74,0.2222222222222222,1,object_06,5,2722,0,2,9,restaurant_7,1,memory-2step-stake-s,696,3758650,0.0-18.0-0.1-0.203,2815,7,8
204,3,object_08,object_05,747.835,6,1,67.01,0.7777777777777778,2,object_02,5,2757,0,0,7,library_4,1,memory-2step-stake-s,697,3766717,0.0-18.0-0.1-0.204,2815,6,5
205,4,object_01,object_10,885.98,8,2,314.655,1.0,2,object_02,5,2802,0,1,9,restaurant_31,1,memory-2step-stake-s,698,3775212,0.0-18.0-0.1-0.205,2815,7,8
206,2,object_09,object_03,692.5,4,2,282.355,0.7777777777777778,2,object_02,1,2809,0,1,7,forest_14,1,memory-2step-stake-s,699,3783496,0.0-18.0-0.1-0.206,2815,3,4
207,2,object_09,object_03,730.095,4,2,153.47,0.6666666666666666,2,object_02,1,2815,0,3,6,forest_14,1,memory-2step-stake-s,700,3791550,0.0-18.0-0.1-0.207,2815,3,4
208,1,object_04,object_07,875.59,1,2,80.29000001,0.4444444444444444,1,object_06,1,2819,0,4,6,desert_29,1,memory-2step-stake-s,701,3799306,0.0-18.0-0.1-0.208,2815,2,1
209,1,object_04,object_07,685.945,2,1,152.36,0.8888888888888888,2,object_02,5,2859,0,4,8,desert_4,1,memory-2step-stake-s,702,3807560,0.0-18.0-0.1-0.209,2815,2,1
210,4,object_10,object_01,740.385,7,2,149.85,0.5555555555555556,1,object_06,5,2884,0,5,8,restaurant_10,1,memory-2step-stake-s,703,3815477,0.0-18.0-0.1-0.210,2815,8,7
211,4,object_01,object_10,1260.2,8,2,177.935,1.0,2,object_02,5,2929,0,5,9,restaurant_5,1,memory-2step-stake-s,704,3823881,0.0-18.0-0.1-0.211,2815,7,8
212,2,object_09,object_03,783.4,3,1,118.395,0.7777777777777778,1,object_06,1,2936,0,7,8,forest_24,1,memory-2step-stake-s,705,3832023,0.0-18.0-0.1-0.212,2815,3,4
213,4,object_10,object_01,624.475,7,2,235.605,0.8888888888888888,1,object_06,5,2976,0,8,3,restaurant_32,1,memory-2step-stake-s,706,3840342,0.0-18.0-0.1-0.213,2815,8,7
214,2,object_09,object_03,894.5,3,1,306.975,0.5555555555555556,1,object_06,1,2981,0,5,2,forest_14,1,memory-2step-stake-s,707,3848425,0.0-18.0-0.1-0.214,2815,3,4
215,2,object_09,object_03,450.955,4,2,37.335,0.3333333333333333,2,object_02,1,2984,0,0,3,forest_25,1,memory-2step-stake-s,708,3856051,0.0-18.0-0.1-0.215,2815,3,4
216,2,object_03,object_09,691.89,3,2,271.69,0.1111111111111111,1,object_06,1,2985,0,1,5,forest_20,1,memory-2step-stake-s,709,3863690,0.0-18.0-0.1-0.216,2815,4,3
217,3,object_05,object_08,734.965,6,2,112.835,0.6666666666666666,2,object_02,5,3015,0,1,6,library_18,1,memory-2step-stake-s,710,3871684,0.0-18.0-0.1-0.217,2815,5,6
218,1,object_04,object_07,731.375,2,1,483.8,0.7777777777777778,2,object_02,1,3022,0,1,7,desert_29,1,memory-2step-stake-s,711,3880168,0.0-18.0-0.1-0.218,2815,2,1
219,2,object_09,object_03,732.98,4,2,3.129999997,0.8888888888888888,2,object_02,1,3030,0,1,8,forest_20,1,memory-2step-stake-s,712,3888259,0.0-18.0-0.1-0.219,2815,3,4
220,2,object_09,object_03,588.85,3,1,25.92000001,0.3333333333333333,1,object_06,1,3033,0,3,6,forest_16,1,memory-2step-stake-s,713,3895853,0.0-18.0-0.1-0.220,2815,3,4
221,3,object_05,object_08,503.155,6,2,48.74500001,0.4444444444444444,2,object_02,5,3053,0,8,4,library_5,1,memory-2step-stake-s,714,3903573,0.0-18.0-0.1-0.221,2815,5,6
222,3,object_08,object_05,667.895,5,2,131.325,0.8888888888888888,1,object_06,5,3093,0,8,6,library_28,1,memory-2step-stake-s,715,3911811,0.0-18.0-0.1-0.222,2815,6,5
223,3,object_08,object_05,587.23,6,1,76.19000002,0.7777777777777778,2,object_02,5,3128,0,8,7,library_29,1,memory-2step-stake-s,716,3919863,0.0-18.0-0.1-0.223,2815,6,5
224,2,object_03,object_09,437.82,4,1,287.37,0.5555555555555556,2,object_02,1,3133,0,7,5,forest_1,1,memory-2step-stake-s,717,3927922,0.0-18.0-0.1-0.224,2815,4,3
225,3,object_05,object_08,720.315,5,1,276.56,0.5555555555555556,1,object_06,5,3158,0,5,4,library_19,1,memory-2step-stake-s,718,3935964,0.0-18.0-0.1-0.225,2815,5,6
226,3,object_05,object_08,721.555,5,1,37.935,0.5555555555555556,1,object_06,5,3183,0,5,7,library_17,1,memory-2step-stake-s,719,3943782,0.0-18.0-0.1-0.226,2815,5,6
227,2,object_09,object_03,487.925,4,2,193.61,0.5555555555555556,2,object_02,1,3188,0,5,5,forest_19,1,memory-2step-stake-s,720,3951775,0.0-18.0-0.1-0.227,2815,3,4
228,1,object_04,object_07,532.415,2,1,229.77,0.1111111111111111,2,object_02,1,3189,0,3,1,desert_6,1,memory-2step-stake-s,721,3959374,0.0-18.0-0.1-0.228,2815,2,1
229,2,object_03,object_09,285.01,3,2,136.61,0.1111111111111111,1,object_06,1,3190,0,1,0,forest_25,1,memory-2step-stake-s,722,3966867,0.0-18.0-0.1-0.229,2815,4,3
230,2,object_09,object_03,228.63,3,1,318.85,0.1111111111111111,1,object_06,1,3191,0,1,0,forest_30,1,memory-2step-stake-s,723,3974560,0.0-18.0-0.1-0.230,2815,3,4
231,2,object_09,object_03,222.14,3,1,253.59,0.0,1,object_06,1,3191,0,0,1,forest_1,1,memory-2step-stake-s,724,3982085,0.0-18.0-0.1-0.231,2815,3,4
232,2,object_03,object_09,728.43,3,2,363.385,0.3333333333333333,1,object_06,1,3194,0,3,2,forest_6,1,memory-2step-stake-s,725,3990008,0.0-18.0-0.1-0.232,2815,4,3
233,2,object_09,object_03,524.305,3,1,350.29,0.2222222222222222,1,object_06,1,3196,0,2,1,forest_30,1,memory-2step-stake-s,726,3997833,0.0-18.0-0.1-0.233,2815,3,4
234,1,object_04,object_07,498.135,1,2,187.715,0.1111111111111111,1,object_06,5,3201,0,1,1,desert_14,1,memory-2step-stake-s,727,4005399,0.0-18.0-0.1-0.234,2815,2,1
235,4,object_10,object_01,629.645,7,2,63.68999998,0.1111111111111111,1,object_06,5,3206,0,1,3,restaurant_8,1,memory-2step-stake-s,728,4012849,0.0-18.0-0.1-0.235,2815,8,7
236,3,object_05,object_08,858.675,6,2,39.34000002,0.4444444444444444,2,object_02,5,3226,0,1,4,library_16,1,memory-2step-stake-s,729,4020577,0.0-18.0-0.1-0.236,2815,5,6
237,1,object_07,object_04,548.66,1,1,164.16,0.1111111111111111,1,object_06,1,3227,0,1,5,desert_5,1,memory-2step-stake-s,730,4028132,0.0-18.0-0.1-0.237,2815,1,2
238,3,object_08,object_05,633.58,5,2,319.09,0.1111111111111111,1,object_06,1,3228,0,1,7,library_3,1,memory-2step-stake-s,731,4035845,0.0-18.0-0.1-0.238,2815,6,5
239,3,object_08,object_05,628.055,5,2,123.425,0.1111111111111111,1,object_06,5,3233,0,1,8,library_3,1,memory-2step-stake-s,732,4043344,0.0-18.0-0.1-0.239,2815,6,5
240,2,object_09,object_03,647.035,4,2,148.12,0.7777777777777778,2,object_02,5,3268,0,0,7,forest_2,1,memory-2step-stake-s,733,4051492,0.0-18.0-0.1-0.240,2815,3,4
241,4,object_10,object_01,668.17,7,2,224.145,0.1111111111111111,1,object_06,5,3273,0,1,9,restaurant_8,1,memory-2step-stake-s,734,4059108,0.0-18.0-0.1-0.241,2815,8,7
242,3,object_08,object_05,890.975,6,1,193.51,0.4444444444444444,2,object_02,5,3293,0,3,4,library_19,1,memory-2step-stake-s,735,4066990,0.0-18.0-0.1-0.242,2815,6,5
243,4,object_10,object_01,735.17,8,1,84.93499999,0.5555555555555556,2,object_02,5,3318,0,2,5,restaurant_8,1,memory-2step-stake-s,736,4074869,0.0-18.0-0.1-0.243,2815,8,7
244,3,object_08,object_05,645.83,6,1,203.245,0.5555555555555556,2,object_02,5,3343,0,1,5,library_32,1,memory-2step-stake-s,737,4082825,0.0-18.0-0.1-0.244,2815,6,5
245,2,object_09,object_03,566.35,4,2,174.145,0.3333333333333333,2,object_02,1,3346,0,0,3,forest_3,1,memory-2step-stake-s,738,4090583,0.0-18.0-0.1-0.245,2815,3,4
246,2,object_09,object_03,543.155,4,2,247.565,0.7777777777777778,2,object_02,1,3353,0,0,7,forest_13,1,memory-2step-stake-s,739,4098873,0.0-18.0-0.1-0.246,2815,3,4
247,3,object_08,object_05,726.005,6,1,3.6250000119999997,0.7777777777777778,2,object_02,5,3388,0,0,7,library_13,1,memory-2step-stake-s,740,4106846,0.0-18.0-0.1-0.247,2815,6,5
248,2,object_03,object_09,710.905,3,2,47.425,0.2222222222222222,1,object_06,1,3390,0,2,6,forest_16,1,memory-2step-stake-s,741,4114367,0.0-18.0-0.1-0.248,2815,4,3
249,2,object_09,object_03,621.45,3,1,224.025,0.6666666666666666,1,object_06,1,3396,0,6,7,forest_13,1,memory-2step-stake-s,742,4122473,0.0-18.0-0.1-0.249,2815,3,4
250,1,object_04,object_07,614.42,2,1,259.485,1.0,2,object_02,1,3405,0,6,9,desert_23,1,memory-2step-stake-s,743,4130945,0.0-18.0-0.1-0.250,2815,2,1
251,3,object_08,object_05,528.765,6,1,249.85,0.8888888888888888,2,object_02,5,3445,0,8,8,library_5,1,memory-2step-stake-s,744,4139274,0.0-18.0-0.1-0.251,2815,6,5
252,3,object_05,object_08,1048.77,6,2,239.44,0.8888888888888888,2,object_02,5,3485,0,7,8,library_20,1,memory-2step-stake-s,745,4147587,0.0-18.0-0.1-0.252,2815,5,6
253,1,object_04,object_07,873.345,1,2,400.46,0.4444444444444444,1,object_06,1,3489,0,4,7,desert_31,1,memory-2step-stake-s,746,4155667,0.0-18.0-0.1-0.253,2815,2,1
254,4,object_10,object_01,660.97,7,2,282.65,0.3333333333333333,1,object_06,5,3504,0,3,8,restaurant_10,1,memory-2step-stake-s,747,4163500,0.0-18.0-0.1-0.254,2815,8,7
255,4,object_01,object_10,676.6,8,2,203.325,0.5555555555555556,2,object_02,5,3529,0,2,5,restaurant_11,1,memory-2step-stake-s,748,4171482,0.0-18.0-0.1-0.255,2815,7,8
