,state1,stim_left,stim_right,rt_1,choice1,response1,rt_2,points,state2,stim_state2,stake,score,practice,rews1,rews2,background,high_arm,trial_type,trial_index,time_elapsed,internal_node_id,subid,stim_left_num,stim_right_num
0,2,object_01,object_02,-1.0,-1,-1,-1.0,0.0,-,,5,0,0,2,0,forest_19,2,memory-2step-stake-s,492,1237692,0.0-18.0-0.0-0.0,4080,3,4
1,4,object_07,object_10,-1.0,-1,-1,-1.0,0.0,-,,1,0,0,4,0,restaurant_15,2,memory-2step-stake-s,493,1244205,0.0-18.0-0.0-0.1,4080,8,7
2,2,object_02,object_01,321.0,4,1,-1.0,0.0,2,object_08,5,0,0,1,2,forest_8,2,memory-2step-stake-s,494,1252719,0.0-18.0-0.0-0.2,4080,4,3
3,2,object_01,object_02,704.0,4,2,418.0,0.2222222222222222,2,object_08,5,10,0,1,2,forest_4,2,memory-2step-stake-s,495,1260554,0.0-18.0-0.0-0.3,4080,3,4
4,2,object_02,object_01,414.0,4,1,420.0,0.2222222222222222,2,object_08,5,20,0,1,2,forest_14,2,memory-2step-stake-s,496,1268388,0.0-18.0-0.0-0.4,4080,4,3
5,3,object_03,object_04,327.0,5,2,484.0,0.3333333333333333,1,object_06,1,23,0,3,1,library_28,2,memory-2step-stake-s,497,1276394,0.0-18.0-0.0-0.5,4080,6,5
6,4,object_07,object_10,162.0,8,1,758.0,0.1111111111111111,2,object_08,1,24,0,3,1,restaurant_2,2,memory-2step-stake-s,498,1284468,0.0-18.0-0.0-0.6,4080,8,7
7,3,object_03,object_04,422.0,5,2,617.0,0.0,1,object_06,5,24,0,0,0,library_7,2,memory-2step-stake-s,499,1292299,0.0-18.0-0.0-0.7,4080,6,5
8,3,object_04,object_03,494.0,5,1,-1.0,0.0,1,object_06,5,24,0,4,2,library_7,2,memory-2step-stake-s,500,1300814,0.0-18.0-0.0-0.8,4080,5,6
9,2,object_01,object_02,327.0,3,1,849.0,0.7777777777777778,1,object_06,5,59,0,7,3,forest_30,2,memory-2step-stake-s,501,1309591,0.0-18.0-0.0-0.9,4080,3,4
10,3,object_04,object_03,789.0,5,1,705.0,0.5555555555555556,1,object_06,1,64,0,5,5,library_30,2,memory-2step-stake-s,502,1318019,0.0-18.0-0.0-0.10,4080,5,6
11,4,object_07,object_10,501.0,8,1,888.0,0.6666666666666666,2,object_08,5,94,0,7,6,restaurant_9,2,memory-2step-stake-s,503,1326726,0.0-18.0-0.0-0.11,4080,8,7
12,3,object_04,object_03,445.0,5,1,789.0,0.7777777777777778,1,object_06,1,101,0,7,7,library_17,2,memory-2step-stake-s,504,1335439,0.0-18.0-0.0-0.12,4080,5,6
13,4,object_10,object_07,414.0,7,1,707.0,0.7777777777777778,1,object_06,1,108,0,7,4,restaurant_23,2,memory-2step-stake-s,505,1344071,0.0-18.0-0.0-0.13,4080,7,8
14,3,object_03,object_04,401.0,6,1,1035.0,0.5555555555555556,2,object_08,1,113,0,7,5,library_13,2,memory-2step-stake-s,506,1352826,0.0-18.0-0.0-0.14,4080,6,5
15,4,object_10,object_07,335.0,7,1,779.0,0.8888888888888888,1,object_06,1,121,0,8,1,restaurant_3,2,memory-2step-stake-s,507,1361628,0.0-18.0-0.0-0.15,4080,7,8
16,2,object_02,object_01,40.0,4,1,459.0,0.6666666666666666,2,object_08,5,151,0,7,6,forest_29,2,memory-2step-stake-s,508,1369910,0.0-18.0-0.0-0.16,4080,4,3
17,4,object_07,object_10,404.0,8,1,684.0,0.4444444444444444,2,object_08,1,155,0,4,4,restaurant_24,2,memory-2step-stake-s,509,1378214,0.0-18.0-0.0-0.17,4080,8,7
18,2,object_02,object_01,400.0,4,1,421.0,0.2222222222222222,2,object_08,5,165,0,6,2,forest_9,2,memory-2step-stake-s,510,1386051,0.0-18.0-0.0-0.18,4080,4,3
19,4,object_10,object_07,427.0,8,2,679.0,0.2222222222222222,2,object_08,1,167,0,4,2,restaurant_31,2,memory-2step-stake-s,511,1394148,0.0-18.0-0.0-0.19,4080,7,8
20,4,object_10,object_07,347.0,8,2,790.0,0.3333333333333333,2,object_08,5,182,0,4,3,restaurant_25,2,memory-2step-stake-s,512,1402456,0.0-18.0-0.0-0.20,4080,7,8
21,2,object_01,object_02,510.0,3,1,697.0,0.3333333333333333,1,object_06,5,197,0,3,3,forest_5,2,memory-2step-stake-s,513,1410675,0.0-18.0-0.0-0.21,4080,3,4
22,1,object_09,object_05,584.0,2,1,1057.0,0.1111111111111111,2,object_08,5,202,0,3,1,desert_25,2,memory-2step-stake-s,514,1419049,0.0-18.0-0.0-0.22,4080,2,1
23,2,object_02,object_01,375.0,3,2,809.0,0.1111111111111111,1,object_06,5,207,0,1,0,forest_15,2,memory-2step-stake-s,515,1427175,0.0-18.0-0.0-0.23,4080,4,3
24,2,object_02,object_01,284.0,3,2,631.0,0.1111111111111111,1,object_06,5,212,0,1,6,forest_8,2,memory-2step-stake-s,516,1435120,0.0-18.0-0.0-0.24,4080,4,3
25,2,object_02,object_01,-1.0,-1,-1,-1.0,0.0,-,,5,212,0,1,6,forest_3,2,memory-2step-stake-s,517,1441634,0.0-18.0-0.0-0.25,4080,4,3
26,2,object_01,object_02,525.0,4,2,707.0,0.4444444444444444,2,object_08,5,232,0,0,4,forest_3,2,memory-2step-stake-s,518,1449961,0.0-18.0-0.0-0.26,4080,3,4
27,2,object_01,object_02,671.0,4,2,644.0,0.4444444444444444,2,object_08,5,252,0,1,4,forest_15,2,memory-2step-stake-s,519,1458225,0.0-18.0-0.0-0.27,4080,3,4
28,1,object_05,object_09,642.0,2,2,1046.0,0.4444444444444444,2,object_08,5,272,0,0,4,desert_14,2,memory-2step-stake-s,520,1466890,0.0-18.0-0.0-0.28,4080,1,2
29,3,object_04,object_03,297.0,6,2,655.0,0.4444444444444444,2,object_08,1,276,0,2,4,library_20,2,memory-2step-stake-s,521,1475165,0.0-18.0-0.0-0.29,4080,5,6
30,3,object_03,object_04,287.0,5,2,667.0,0.4444444444444444,1,object_06,1,280,0,4,3,library_16,2,memory-2step-stake-s,522,1483450,0.0-18.0-0.0-0.30,4080,6,5
31,3,object_04,object_03,426.0,6,2,674.0,0.2222222222222222,2,object_08,1,282,0,1,2,library_24,2,memory-2step-stake-s,523,1491541,0.0-18.0-0.0-0.31,4080,5,6
32,3,object_04,object_03,25.0,6,2,221.0,0.0,2,object_08,1,282,0,3,0,library_8,2,memory-2step-stake-s,524,1498976,0.0-18.0-0.0-0.32,4080,5,6
33,4,object_10,object_07,54.0,8,2,130.0,0.6666666666666666,2,object_08,5,312,0,3,6,restaurant_26,2,memory-2step-stake-s,525,1506927,0.0-18.0-0.0-0.33,4080,7,8
34,4,object_07,object_10,120.0,7,2,132.0,0.3333333333333333,1,object_06,1,315,0,3,7,restaurant_21,2,memory-2step-stake-s,526,1514575,0.0-18.0-0.0-0.34,4080,8,7
35,2,object_01,object_02,174.0,4,2,158.0,0.8888888888888888,2,object_08,5,355,0,7,8,forest_10,2,memory-2step-stake-s,527,1522758,0.0-18.0-0.0-0.35,4080,3,4
36,2,object_01,object_02,50.0,4,2,91.0,0.8888888888888888,2,object_08,5,395,0,5,8,forest_5,2,memory-2step-stake-s,528,1530871,0.0-18.0-0.0-0.36,4080,3,4
37,2,object_02,object_01,153.0,3,2,48.0,0.7777777777777778,1,object_06,1,402,0,7,7,forest_4,2,memory-2step-stake-s,529,1538842,0.0-18.0-0.0-0.37,4080,4,3
38,3,object_04,object_03,136.0,6,2,65.0,0.6666666666666666,2,object_08,1,408,0,5,6,library_14,2,memory-2step-stake-s,530,1546730,0.0-18.0-0.0-0.38,4080,5,6
39,3,object_03,object_04,141.0,5,2,256.0,0.6666666666666666,1,object_06,5,438,0,6,6,library_23,2,memory-2step-stake-s,531,1554808,0.0-18.0-0.0-0.39,4080,6,5
40,1,object_09,object_05,431.0,1,2,137.0,0.3333333333333333,1,object_06,5,453,0,3,2,desert_24,2,memory-2step-stake-s,532,1562462,0.0-18.0-0.0-0.40,4080,2,1
41,4,object_10,object_07,69.0,8,2,184.0,0.2222222222222222,2,object_08,1,455,0,2,2,restaurant_15,2,memory-2step-stake-s,533,1570061,0.0-18.0-0.0-0.41,4080,7,8
42,3,object_03,object_04,89.0,5,2,331.0,0.1111111111111111,1,object_06,1,456,0,1,2,library_17,2,memory-2step-stake-s,534,1577711,0.0-18.0-0.0-0.42,4080,6,5
43,3,object_03,object_04,179.0,5,2,126.0,0.0,1,object_06,1,456,0,0,4,library_17,2,memory-2step-stake-s,535,1585051,0.0-18.0-0.0-0.43,4080,6,5
44,4,object_10,object_07,16.0,8,2,94.0,0.5555555555555556,2,object_08,1,461,0,1,5,restaurant_24,2,memory-2step-stake-s,536,1592866,0.0-18.0-0.0-0.44,4080,7,8
45,2,object_01,object_02,105.0,4,2,200.0,0.5555555555555556,2,object_08,5,486,0,2,5,forest_26,2,memory-2step-stake-s,537,1600788,0.0-18.0-0.0-0.45,4080,3,4
46,3,object_04,object_03,43.0,6,2,529.0,0.4444444444444444,2,object_08,1,490,0,0,4,library_23,2,memory-2step-stake-s,538,1608936,0.0-18.0-0.0-0.46,4080,5,6
47,4,object_07,object_10,102.0,7,2,62.0,0.0,1,object_06,1,490,0,0,5,restaurant_32,2,memory-2step-stake-s,539,1616209,0.0-18.0-0.0-0.47,4080,8,7
48,3,object_04,object_03,59.0,6,2,61.0,0.7777777777777778,2,object_08,1,497,0,3,7,library_28,2,memory-2step-stake-s,540,1624197,0.0-18.0-0.0-0.48,4080,5,6
49,4,object_07,object_10,148.0,7,2,93.0,0.3333333333333333,1,object_06,5,512,0,3,7,restaurant_23,2,memory-2step-stake-s,541,1631810,0.0-18.0-0.0-0.49,4080,8,7
50,1,object_09,object_05,101.0,1,2,139.0,0.5555555555555556,1,object_06,5,537,0,5,6,desert_14,2,memory-2step-stake-s,542,1639670,0.0-18.0-0.0-0.50,4080,2,1
51,3,object_03,object_04,413.0,5,2,135.0,0.7777777777777778,1,object_06,1,544,0,7,5,library_14,2,memory-2step-stake-s,543,1647727,0.0-18.0-0.0-0.51,4080,6,5
52,1,object_05,object_09,169.0,2,2,268.0,0.4444444444444444,2,object_08,5,564,0,8,4,desert_9,2,memory-2step-stake-s,544,1655617,0.0-18.0-0.0-0.52,4080,1,2
53,1,object_05,object_09,2.0,2,2,304.0,0.0,2,object_08,5,564,0,8,0,desert_18,2,memory-2step-stake-s,545,1663136,0.0-18.0-0.0-0.53,4080,1,2
54,2,object_02,object_01,164.0,3,2,29.0,0.7777777777777778,1,object_06,5,599,0,7,0,forest_2,2,memory-2step-stake-s,546,1671088,0.0-18.0-0.0-0.54,4080,4,3
55,1,object_05,object_09,6.0,2,2,374.0,0.1111111111111111,2,object_08,5,604,0,8,1,desert_8,2,memory-2step-stake-s,547,1678772,0.0-18.0-0.0-0.55,4080,1,2
56,2,object_02,object_01,80.0,3,2,125.0,0.8888888888888888,1,object_06,1,612,0,8,2,forest_15,2,memory-2step-stake-s,548,1686927,0.0-18.0-0.0-0.56,4080,4,3
57,2,object_02,object_01,97.0,3,2,202.0,0.6666666666666666,1,object_06,5,642,0,6,4,forest_10,2,memory-2step-stake-s,549,1694952,0.0-18.0-0.0-0.57,4080,4,3
58,3,object_03,object_04,101.0,5,2,82.0,0.6666666666666666,1,object_06,1,648,0,6,2,library_24,2,memory-2step-stake-s,550,1702855,0.0-18.0-0.0-0.58,4080,6,5
59,2,object_01,object_02,196.0,4,2,135.0,0.4444444444444444,2,object_08,5,668,0,6,4,forest_26,2,memory-2step-stake-s,551,1710608,0.0-18.0-0.0-0.59,4080,3,4
60,4,object_10,object_07,24.0,8,2,137.0,0.2222222222222222,2,object_08,1,670,0,7,2,restaurant_21,2,memory-2step-stake-s,552,1718161,0.0-18.0-0.0-0.60,4080,7,8
61,1,object_09,object_05,123.0,1,2,142.0,0.7777777777777778,1,object_06,5,705,0,7,0,desert_22,2,memory-2step-stake-s,553,1726231,0.0-18.0-0.0-0.61,4080,2,1
62,4,object_10,object_07,25.0,8,2,49.0,0.0,2,object_08,5,705,0,7,0,restaurant_31,2,memory-2step-stake-s,554,1733494,0.0-18.0-0.0-0.62,4080,7,8
63,2,object_02,object_01,73.0,3,2,249.0,0.5555555555555556,1,object_06,5,730,0,5,2,forest_3,2,memory-2step-stake-s,555,1741462,0.0-18.0-0.0-0.63,4080,4,3
64,1,object_09,object_05,67.0,1,2,408.0,0.3333333333333333,1,object_06,5,745,0,3,5,desert_8,2,memory-2step-stake-s,556,1749387,0.0-18.0-0.0-0.64,4080,2,1
65,3,object_04,object_03,615.0,6,2,-1.0,0.0,2,object_08,1,745,0,1,3,library_26,2,memory-2step-stake-s,557,1757901,0.0-18.0-0.0-0.65,4080,5,6
66,4,object_10,object_07,-1.0,-1,-1,-1.0,0.0,-,,1,745,0,3,2,restaurant_25,2,memory-2step-stake-s,558,1764413,0.0-18.0-0.0-0.66,4080,7,8
67,4,object_07,object_10,594.0,7,2,229.0,0.4444444444444444,1,object_06,5,765,0,4,0,restaurant_17,2,memory-2step-stake-s,559,1772260,0.0-18.0-0.0-0.67,4080,8,7
68,1,object_09,object_05,246.0,1,2,69.0,0.3333333333333333,1,object_06,1,768,0,3,1,desert_9,2,memory-2step-stake-s,560,1779847,0.0-18.0-0.0-0.68,4080,2,1
69,4,object_10,object_07,1.0,8,2,310.0,0.1111111111111111,2,object_08,1,769,0,4,1,restaurant_11,2,memory-2step-stake-s,561,1787472,0.0-18.0-0.0-0.69,4080,7,8
70,2,object_01,object_02,1353.0,4,2,80.0,0.3333333333333333,2,object_08,5,784,0,2,3,forest_14,2,memory-2step-stake-s,562,1795069,0.0-18.0-0.0-0.70,4080,3,4
71,4,object_10,object_07,366.0,8,2,157.0,0.2222222222222222,2,object_08,1,786,0,3,2,restaurant_23,2,memory-2step-stake-s,563,1802645,0.0-18.0-0.0-0.71,4080,7,8
72,2,object_02,object_01,466.0,3,2,1066.0,0.3333333333333333,1,object_06,5,801,0,3,2,forest_4,2,memory-2step-stake-s,564,1811229,0.0-18.0-0.0-0.72,4080,4,3
73,4,object_07,object_10,751.0,7,2,-1.0,0.0,1,object_06,1,801,0,3,1,restaurant_26,2,memory-2step-stake-s,565,1819742,0.0-18.0-0.0-0.73,4080,8,7
74,1,object_05,object_09,1420.0,2,2,1477.0,0.0,2,object_08,1,801,0,6,0,desert_11,2,memory-2step-stake-s,566,1828435,0.0-18.0-0.0-0.74,4080,1,2
75,4,object_10,object_07,93.0,8,2,84.0,0.3333333333333333,2,object_08,5,816,0,7,3,restaurant_9,2,memory-2step-stake-s,567,1836037,0.0-18.0-0.0-0.75,4080,7,8
76,2,object_02,object_01,381.0,3,2,-1.0,0.0,1,object_06,5,816,0,6,4,forest_9,2,memory-2step-stake-s,568,1844553,0.0-18.0-0.0-0.76,4080,4,3
77,3,object_04,object_03,92.0,6,2,782.0,0.3333333333333333,2,object_08,1,819,0,7,3,library_10,2,memory-2step-stake-s,569,1852848,0.0-18.0-0.0-0.77,4080,5,6
78,2,object_02,object_01,159.0,3,2,-1.0,0.0,1,object_06,5,819,0,6,0,forest_18,2,memory-2step-stake-s,570,1861362,0.0-18.0-0.0-0.78,4080,4,3
79,1,object_05,object_09,163.0,2,2,80.0,0.3333333333333333,2,object_08,5,834,0,9,3,desert_25,2,memory-2step-stake-s,571,1868961,0.0-18.0-0.0-0.79,4080,1,2
80,2,object_02,object_01,239.0,3,2,609.0,0.7777777777777778,1,object_06,5,869,0,7,0,forest_5,2,memory-2step-stake-s,572,1877492,0.0-18.0-0.0-0.80,4080,4,3
81,3,object_03,object_04,143.0,5,2,88.0,0.6666666666666666,1,object_06,1,875,0,6,1,library_26,2,memory-2step-stake-s,573,1885404,0.0-18.0-0.0-0.81,4080,6,5
82,2,object_02,object_01,519.0,3,2,754.0,0.5555555555555556,1,object_06,5,900,0,5,2,forest_19,2,memory-2step-stake-s,574,1893879,0.0-18.0-0.0-0.82,4080,4,3
83,2,object_02,object_01,123.0,3,2,40.0,0.6666666666666666,1,object_06,5,930,0,6,5,forest_30,2,memory-2step-stake-s,575,1901740,0.0-18.0-0.0-0.83,4080,4,3
84,4,object_07,object_10,306.0,7,2,763.0,0.6666666666666666,1,object_06,1,936,0,6,6,restaurant_17,2,memory-2step-stake-s,576,1910328,0.0-18.0-0.0-0.84,4080,8,7
85,3,object_04,object_03,15.0,6,2,979.0,0.6666666666666666,2,object_08,1,942,0,8,6,library_20,2,memory-2step-stake-s,577,1919130,0.0-18.0-0.0-0.85,4080,5,6
86,3,object_03,object_04,31.0,5,2,1413.0,0.8888888888888888,1,object_06,1,950,0,8,7,library_30,2,memory-2step-stake-s,578,1928568,0.0-18.0-0.0-0.86,4080,6,5
87,3,object_04,object_03,96.0,6,2,298.0,0.8888888888888888,2,object_08,1,958,0,9,8,library_17,2,memory-2step-stake-s,579,1936892,0.0-18.0-0.0-0.87,4080,5,6
88,4,object_10,object_07,23.0,8,2,7.0,0.4444444444444444,2,object_08,1,962,0,7,4,restaurant_22,2,memory-2step-stake-s,580,1944519,0.0-18.0-0.0-0.88,4080,7,8
89,1,object_09,object_05,280.0,1,2,649.0,0.6666666666666666,1,object_06,5,992,0,6,5,desert_10,2,memory-2step-stake-s,581,1952990,0.0-18.0-0.0-0.89,4080,2,1
90,1,object_05,object_09,326.0,2,2,681.0,0.4444444444444444,2,object_08,5,1012,0,5,4,desert_7,2,memory-2step-stake-s,582,1961289,0.0-18.0-0.0-0.90,4080,1,2
91,1,object_09,object_05,425.0,1,2,-1.0,0.0,1,object_06,5,1012,0,4,3,desert_7,2,memory-2step-stake-s,583,1969802,0.0-18.0-0.0-0.91,4080,2,1
92,1,object_09,object_05,511.0,1,2,1115.0,0.5555555555555556,1,object_06,5,1037,0,5,4,desert_30,2,memory-2step-stake-s,584,1978640,0.0-18.0-0.0-0.92,4080,2,1
93,1,object_05,object_09,68.0,2,2,136.0,0.3333333333333333,2,object_08,5,1052,0,6,3,desert_12,2,memory-2step-stake-s,585,1986294,0.0-18.0-0.0-0.93,4080,1,2
94,2,object_02,object_01,7.0,3,2,1376.0,0.8888888888888888,1,object_06,5,1092,0,8,6,forest_8,2,memory-2step-stake-s,586,1995695,0.0-18.0-0.0-0.94,4080,4,3
95,2,object_02,object_01,683.0,3,2,654.0,0.8888888888888888,1,object_06,5,1132,0,8,9,forest_2,2,memory-2step-stake-s,587,2004373,0.0-18.0-0.0-0.95,4080,4,3
96,2,object_01,object_02,190.0,4,2,331.0,0.8888888888888888,2,object_08,5,1172,0,7,8,forest_29,2,memory-2step-stake-s,588,2012731,0.0-18.0-0.0-0.96,4080,3,4
97,2,object_02,object_01,476.0,3,2,582.0,0.8888888888888888,1,object_06,5,1212,0,8,9,forest_29,2,memory-2step-stake-s,589,2021337,0.0-18.0-0.0-0.97,4080,4,3
98,2,object_01,object_02,248.0,4,2,626.0,0.8888888888888888,2,object_08,5,1252,0,8,8,forest_14,2,memory-2step-stake-s,590,2029988,0.0-18.0-0.0-0.98,4080,3,4
99,1,object_09,object_05,422.0,1,2,733.0,0.6666666666666666,1,object_06,5,1282,0,6,7,desert_18,2,memory-2step-stake-s,591,2038540,0.0-18.0-0.0-0.99,4080,2,1
100,2,object_01,object_02,1217.0,4,2,-1.0,0.0,2,object_08,5,1282,0,4,6,forest_18,2,memory-2step-stake-s,592,2047058,0.0-18.0-0.0-0.100,4080,3,4
101,1,object_09,object_05,102.0,1,2,874.0,0.4444444444444444,1,object_06,5,1302,0,4,5,desert_24,2,memory-2step-stake-s,593,2055550,0.0-18.0-0.0-0.101,4080,2,1
102,3,object_03,object_04,857.0,5,2,-1.0,0.0,1,object_06,5,1302,0,3,5,library_11,2,memory-2step-stake-s,594,2064063,0.0-18.0-0.0-0.102,4080,6,5
103,1,object_09,object_05,508.0,1,2,53.0,0.2222222222222222,1,object_06,5,1312,0,2,8,desert_29,2,memory-2step-stake-s,595,2071533,0.0-18.0-0.0-0.103,4080,2,1
104,4,object_07,object_10,23.0,7,2,257.0,0.4444444444444444,1,object_06,5,1332,0,4,7,restaurant_13,2,memory-2step-stake-s,596,2079411,0.0-18.0-0.0-0.104,4080,8,7
105,3,object_04,object_03,-1.0,-1,-1,-1.0,0.0,-,,5,1332,0,4,6,library_22,2,memory-2step-stake-s,597,2085922,0.0-18.0-0.0-0.105,4080,5,6
106,4,object_10,object_07,613.0,8,2,-1.0,0.0,2,object_08,1,1332,0,3,7,restaurant_24,2,memory-2step-stake-s,598,2094437,0.0-18.0-0.0-0.106,4080,7,8
107,4,object_07,object_10,216.0,7,2,141.0,0.4444444444444444,1,object_06,1,1336,0,4,6,restaurant_25,2,memory-2step-stake-s,599,2102197,0.0-18.0-0.0-0.107,4080,8,7
108,3,object_03,object_04,261.0,5,2,83.0,0.4444444444444444,1,object_06,1,1340,0,4,6,library_20,2,memory-2step-stake-s,600,2109900,0.0-18.0-0.0-0.108,4080,6,5
109,3,object_04,object_03,674.0,6,2,626.0,0.7777777777777778,2,object_08,1,1347,0,4,7,library_7,2,memory-2step-stake-s,601,2118453,0.0-18.0-0.0-0.109,4080,5,6
110,3,object_03,object_04,199.0,5,2,180.0,0.5555555555555556,1,object_06,1,1352,0,5,9,library_14,2,memory-2step-stake-s,602,2126352,0.0-18.0-0.0-0.110,4080,6,5
111,4,object_10,object_07,372.0,8,2,366.0,1.0,2,object_08,5,1397,0,5,9,restaurant_2,2,memory-2step-stake-s,603,2134842,0.0-18.0-0.0-0.111,4080,7,8
112,2,object_02,object_01,195.0,3,2,370.0,0.4444444444444444,1,object_06,5,1417,0,4,7,forest_5,2,memory-2step-stake-s,604,2142834,0.0-18.0-0.0-0.112,4080,4,3
113,1,object_05,object_09,43.0,2,2,136.0,0.7777777777777778,2,object_08,5,1452,0,6,7,desert_14,2,memory-2step-stake-s,605,2150894,0.0-18.0-0.0-0.113,4080,1,2
114,1,object_09,object_05,132.0,1,2,212.0,1.0,1,object_06,5,1497,0,9,5,desert_9,2,memory-2step-stake-s,606,2159232,0.0-18.0-0.0-0.114,4080,2,1
115,1,object_09,object_05,29.0,1,2,974.0,0.8888888888888888,1,object_06,5,1537,0,8,8,desert_10,2,memory-2step-stake-s,607,2168228,0.0-18.0-0.0-0.115,4080,2,1
116,3,object_04,object_03,-1.0,-1,-1,-1.0,0.0,-,,5,1537,0,6,8,library_27,2,memory-2step-stake-s,608,2174740,0.0-18.0-0.0-0.116,4080,5,6
117,3,object_04,object_03,174.0,5,1,491.0,0.8888888888888888,1,object_06,1,1545,0,8,8,library_8,2,memory-2step-stake-s,609,2183255,0.0-18.0-0.0-0.117,4080,5,6
118,3,object_04,object_03,645.0,5,1,-1.0,0.0,1,object_06,1,1545,0,8,4,library_16,2,memory-2step-stake-s,610,2191767,0.0-18.0-0.0-0.118,4080,5,6
119,1,object_05,object_09,669.0,1,1,-1.0,0.0,1,object_06,5,1545,0,6,4,desert_9,2,memory-2step-stake-s,611,2200282,0.0-18.0-0.0-0.119,4080,1,2
120,3,object_03,object_04,329.0,6,1,-1.0,0.0,2,object_08,1,1545,0,4,5,library_27,2,memory-2step-stake-s,612,2208797,0.0-18.0-0.0-0.120,4080,6,5
121,4,object_10,object_07,-1.0,-1,-1,-1.0,0.0,-,,1,1545,0,5,5,restaurant_11,2,memory-2step-stake-s,613,2215308,0.0-18.0-0.0-0.121,4080,7,8
122,1,object_05,object_09,297.0,1,1,779.0,0.5555555555555556,1,object_06,5,1570,0,5,3,desert_18,2,memory-2step-stake-s,614,2223809,0.0-18.0-0.0-0.122,4080,1,2
123,2,object_02,object_01,-1.0,-1,-1,-1.0,0.0,-,,1,1570,0,4,0,forest_25,2,memory-2step-stake-s,615,2230319,0.0-18.0-0.0-0.123,4080,4,3
124,3,object_03,object_04,265.0,6,1,46.0,0.0,2,object_08,1,1570,0,3,0,library_8,2,memory-2step-stake-s,616,2237580,0.0-18.0-0.0-0.124,4080,6,5
125,1,object_05,object_09,-1.0,-1,-1,-1.0,0.0,-,,5,1570,0,1,1,desert_27,2,memory-2step-stake-s,617,2244089,0.0-18.0-0.0-0.125,4080,1,2
126,4,object_07,object_10,405.0,8,1,204.0,0.0,2,object_08,1,1570,0,0,0,restaurant_9,2,memory-2step-stake-s,618,2251509,0.0-18.0-0.0-0.126,4080,8,7
127,4,object_10,object_07,430.0,8,2,-1.0,0.0,2,object_08,1,1570,0,1,1,restaurant_21,2,memory-2step-stake-s,619,2260025,0.0-18.0-0.0-0.127,4080,7,8
128,4,object_10,object_07,788.0,8,2,596.0,0.1111111111111111,2,object_08,5,1575,0,1,1,restaurant_14,2,memory-2step-stake-s,621,2268746,0.0-18.0-0.1-0.128,4080,7,8
129,2,object_01,object_02,370.0,4,2,673.0,0.1111111111111111,2,object_08,5,1580,0,1,1,forest_21,2,memory-2step-stake-s,622,2276736,0.0-18.0-0.1-0.129,4080,3,4
130,2,object_01,object_02,349.0,4,2,1001.0,0.1111111111111111,2,object_08,5,1585,0,6,1,forest_10,2,memory-2step-stake-s,623,2285051,0.0-18.0-0.1-0.130,4080,3,4
131,1,object_05,object_09,175.0,2,2,475.0,0.2222222222222222,2,object_08,5,1595,0,9,2,desert_25,2,memory-2step-stake-s,624,2292947,0.0-18.0-0.1-0.131,4080,1,2
132,1,object_05,object_09,441.0,2,2,711.0,0.5555555555555556,2,object_08,5,1620,0,8,5,desert_22,2,memory-2step-stake-s,625,2301381,0.0-18.0-0.1-0.132,4080,1,2
133,4,object_10,object_07,472.0,8,2,667.0,0.3333333333333333,2,object_08,5,1635,0,8,3,restaurant_13,2,memory-2step-stake-s,626,2309565,0.0-18.0-0.1-0.133,4080,7,8
134,3,object_03,object_04,394.0,5,2,-1.0,0.0,1,object_06,1,1635,0,7,2,library_22,2,memory-2step-stake-s,627,2318079,0.0-18.0-0.1-0.134,4080,6,5
135,3,object_03,object_04,94.0,5,2,153.0,0.7777777777777778,1,object_06,1,1642,0,7,3,library_10,2,memory-2step-stake-s,628,2326154,0.0-18.0-0.1-0.135,4080,6,5
136,4,object_07,object_10,115.0,7,2,149.0,1.0,1,object_06,1,1651,0,9,4,restaurant_3,2,memory-2step-stake-s,629,2334429,0.0-18.0-0.1-0.136,4080,8,7
137,2,object_02,object_01,177.0,3,2,134.0,1.0,1,object_06,5,1696,0,9,4,forest_25,2,memory-2step-stake-s,630,2342688,0.0-18.0-0.1-0.137,4080,4,3
138,1,object_05,object_09,78.0,2,2,106.0,0.5555555555555556,2,object_08,5,1721,0,5,5,desert_24,2,memory-2step-stake-s,631,2350515,0.0-18.0-0.1-0.138,4080,1,2
139,4,object_10,object_07,101.0,8,2,81.0,0.4444444444444444,2,object_08,1,1725,0,6,4,restaurant_15,2,memory-2step-stake-s,632,2358215,0.0-18.0-0.1-0.139,4080,7,8
140,1,object_09,object_05,94.0,1,2,30.0,0.1111111111111111,1,object_06,5,1730,0,1,3,desert_11,2,memory-2step-stake-s,633,2365561,0.0-18.0-0.1-0.140,4080,2,1
141,1,object_05,object_09,159.0,2,2,278.0,0.7777777777777778,2,object_08,5,1765,0,0,7,desert_10,2,memory-2step-stake-s,634,2373760,0.0-18.0-0.1-0.141,4080,1,2
142,1,object_09,object_05,333.0,1,2,876.0,0.1111111111111111,1,object_06,5,1770,0,1,4,desert_31,2,memory-2step-stake-s,635,2381953,0.0-18.0-0.1-0.142,4080,2,1
143,2,object_02,object_01,389.0,3,2,354.0,0.3333333333333333,1,object_06,5,1785,0,3,5,forest_29,2,memory-2step-stake-s,636,2389825,0.0-18.0-0.1-0.143,4080,4,3
144,3,object_03,object_04,562.0,5,2,925.0,0.2222222222222222,1,object_06,1,1787,0,2,7,library_22,2,memory-2step-stake-s,637,2398166,0.0-18.0-0.1-0.144,4080,6,5
145,4,object_10,object_07,743.0,8,2,620.0,0.6666666666666666,2,object_08,5,1817,0,5,6,restaurant_3,2,memory-2step-stake-s,638,2406609,0.0-18.0-0.1-0.145,4080,7,8
146,2,object_02,object_01,358.0,3,2,598.0,0.7777777777777778,1,object_06,5,1852,0,7,5,forest_3,2,memory-2step-stake-s,639,2415132,0.0-18.0-0.1-0.146,4080,4,3
147,4,object_07,object_10,354.0,7,2,653.0,1.0,1,object_06,5,1897,0,9,9,restaurant_17,2,memory-2step-stake-s,640,2423912,0.0-18.0-0.1-0.147,4080,8,7
148,4,object_10,object_07,591.0,8,2,767.0,1.0,2,object_08,5,1942,0,7,9,restaurant_23,2,memory-2step-stake-s,641,2432805,0.0-18.0-0.1-0.148,4080,7,8
149,3,object_03,object_04,419.0,5,2,-1.0,0.0,1,object_06,1,1942,0,5,8,library_20,2,memory-2step-stake-s,642,2441318,0.0-18.0-0.1-0.149,4080,6,5
150,4,object_07,object_10,246.0,7,2,52.0,0.4444444444444444,1,object_06,5,1962,0,4,7,restaurant_32,2,memory-2step-stake-s,643,2448993,0.0-18.0-0.1-0.150,4080,8,7
151,3,object_04,object_03,189.0,6,2,210.0,0.5555555555555556,2,object_08,1,1967,0,5,5,library_28,2,memory-2step-stake-s,644,2456925,0.0-18.0-0.1-0.151,4080,5,6
152,2,object_01,object_02,163.0,4,2,9.0,0.6666666666666666,2,object_08,5,1997,0,2,6,forest_19,2,memory-2step-stake-s,645,2464753,0.0-18.0-0.1-0.152,4080,3,4
153,3,object_04,object_03,221.0,6,2,55.0,0.1111111111111111,2,object_08,5,2002,0,2,1,library_10,2,memory-2step-stake-s,646,2472122,0.0-18.0-0.1-0.153,4080,5,6
154,4,object_10,object_07,115.0,8,2,292.0,0.3333333333333333,2,object_08,1,2005,0,5,3,restaurant_11,2,memory-2step-stake-s,647,2479936,0.0-18.0-0.1-0.154,4080,7,8
155,1,object_09,object_05,408.0,1,2,1260.0,0.3333333333333333,1,object_06,5,2020,0,3,1,desert_5,2,memory-2step-stake-s,648,2488716,0.0-18.0-0.1-0.155,4080,2,1
156,1,object_05,object_09,609.0,2,2,134.0,0.0,2,object_08,1,2020,0,5,0,desert_27,2,memory-2step-stake-s,649,2496064,0.0-18.0-0.1-0.156,4080,1,2
157,3,object_03,object_04,354.0,5,2,1049.0,0.4444444444444444,1,object_06,1,2024,0,4,2,library_23,2,memory-2step-stake-s,650,2504732,0.0-18.0-0.1-0.157,4080,6,5
158,1,object_05,object_09,385.0,2,2,105.0,0.2222222222222222,2,object_08,5,2034,0,2,2,desert_27,2,memory-2step-stake-s,651,2512257,0.0-18.0-0.1-0.158,4080,1,2
159,3,object_03,object_04,349.0,5,2,628.0,0.2222222222222222,1,object_06,1,2036,0,2,2,library_11,2,memory-2step-stake-s,652,2520304,0.0-18.0-0.1-0.159,4080,6,5
160,4,object_10,object_07,134.0,8,2,102.0,0.0,2,object_08,5,2036,0,2,0,restaurant_13,2,memory-2step-stake-s,653,2527617,0.0-18.0-0.1-0.160,4080,7,8
161,4,object_10,object_07,272.0,8,2,140.0,0.0,2,object_08,1,2036,0,0,0,restaurant_32,2,memory-2step-stake-s,654,2534970,0.0-18.0-0.1-0.161,4080,7,8
162,3,object_04,object_03,252.0,6,2,1158.0,0.3333333333333333,2,object_08,1,2039,0,1,3,library_16,2,memory-2step-stake-s,655,2543652,0.0-18.0-0.1-0.162,4080,5,6
163,1,object_09,object_05,78.0,1,2,48.0,0.2222222222222222,1,object_06,5,2049,0,2,3,desert_8,2,memory-2step-stake-s,656,2551117,0.0-18.0-0.1-0.163,4080,2,1
164,1,object_09,object_05,285.0,1,2,659.0,0.1111111111111111,1,object_06,1,2050,0,1,3,desert_12,2,memory-2step-stake-s,657,2559091,0.0-18.0-0.1-0.164,4080,2,1
165,3,object_03,object_04,113.0,5,2,31.0,0.2222222222222222,1,object_06,5,2060,0,2,3,library_22,2,memory-2step-stake-s,658,2566538,0.0-18.0-0.1-0.165,4080,6,5
166,2,object_01,object_02,54.0,4,2,25.0,0.2222222222222222,2,object_08,1,2062,0,1,2,forest_14,2,memory-2step-stake-s,659,2573980,0.0-18.0-0.1-0.166,4080,3,4
167,1,object_09,object_05,413.0,1,2,80.0,0.3333333333333333,1,object_06,5,2077,0,3,1,desert_5,2,memory-2step-stake-s,660,2581582,0.0-18.0-0.1-0.167,4080,2,1
168,4,object_07,object_10,187.0,7,2,1395.0,0.1111111111111111,1,object_06,1,2078,0,1,1,restaurant_31,2,memory-2step-stake-s,661,2590291,0.0-18.0-0.1-0.168,4080,8,7
169,1,object_09,object_05,289.0,1,2,442.0,0.0,1,object_06,5,2078,0,0,0,desert_25,2,memory-2step-stake-s,662,2597949,0.0-18.0-0.1-0.169,4080,2,1
170,3,object_04,object_03,411.0,6,2,322.0,0.2222222222222222,2,object_08,1,2080,0,0,2,library_30,2,memory-2step-stake-s,663,2605686,0.0-18.0-0.1-0.170,4080,5,6
171,2,object_01,object_02,93.0,4,2,215.0,0.4444444444444444,2,object_08,5,2100,0,1,4,forest_8,2,memory-2step-stake-s,664,2613522,0.0-18.0-0.1-0.171,4080,3,4
172,4,object_10,object_07,161.0,8,2,362.0,0.3333333333333333,2,object_08,1,2103,0,0,3,restaurant_24,2,memory-2step-stake-s,665,2621401,0.0-18.0-0.1-0.172,4080,7,8
173,1,object_05,object_09,35.0,2,2,99.0,0.3333333333333333,2,object_08,5,2118,0,0,3,desert_30,2,memory-2step-stake-s,666,2629019,0.0-18.0-0.1-0.173,4080,1,2
174,3,object_04,object_03,50.0,6,2,294.0,0.6666666666666666,2,object_08,1,2124,0,1,6,library_14,2,memory-2step-stake-s,667,2637133,0.0-18.0-0.1-0.174,4080,5,6
175,4,object_07,object_10,471.0,7,2,367.0,0.2222222222222222,1,object_06,1,2126,0,2,6,restaurant_3,2,memory-2step-stake-s,668,2644914,0.0-18.0-0.1-0.175,4080,8,7
176,2,object_02,object_01,186.0,3,2,342.0,0.5555555555555556,1,object_06,5,2151,0,5,7,forest_25,2,memory-2step-stake-s,669,2652976,0.0-18.0-0.1-0.176,4080,4,3
177,4,object_07,object_10,244.0,7,2,50.0,0.5555555555555556,1,object_06,1,2156,0,5,5,restaurant_26,2,memory-2step-stake-s,670,2660746,0.0-18.0-0.1-0.177,4080,8,7
178,3,object_04,object_03,144.0,6,2,264.0,0.5555555555555556,2,object_08,1,2161,0,8,5,library_26,2,memory-2step-stake-s,671,2668732,0.0-18.0-0.1-0.178,4080,5,6
179,4,object_07,object_10,399.0,7,2,5.0,0.7777777777777778,1,object_06,1,2168,0,7,5,restaurant_15,2,memory-2step-stake-s,672,2676659,0.0-18.0-0.1-0.179,4080,8,7
180,1,object_05,object_09,168.0,2,2,482.0,0.2222222222222222,2,object_08,5,2178,0,7,2,desert_30,2,memory-2step-stake-s,673,2684557,0.0-18.0-0.1-0.180,4080,1,2
181,4,object_10,object_07,307.0,8,2,389.0,0.1111111111111111,2,object_08,1,2179,0,6,1,restaurant_13,2,memory-2step-stake-s,674,2692261,0.0-18.0-0.1-0.181,4080,7,8
182,4,object_07,object_10,258.0,7,2,1.0,0.6666666666666666,1,object_06,1,2185,0,6,2,restaurant_14,2,memory-2step-stake-s,675,2700084,0.0-18.0-0.1-0.182,4080,8,7
183,1,object_05,object_09,27.0,2,2,56.0,0.2222222222222222,2,object_08,5,2195,0,6,2,desert_29,2,memory-2step-stake-s,676,2707557,0.0-18.0-0.1-0.183,4080,1,2
184,4,object_10,object_07,255.0,8,2,172.0,0.4444444444444444,2,object_08,1,2199,0,9,4,restaurant_9,2,memory-2step-stake-s,677,2715348,0.0-18.0-0.1-0.184,4080,7,8
185,3,object_03,object_04,222.0,5,2,94.0,0.8888888888888888,1,object_06,1,2207,0,8,6,library_11,2,memory-2step-stake-s,678,2723467,0.0-18.0-0.1-0.185,4080,6,5
186,2,object_01,object_02,210.0,4,2,163.0,0.8888888888888888,2,object_08,5,2247,0,6,8,forest_10,2,memory-2step-stake-s,679,2731656,0.0-18.0-0.1-0.186,4080,3,4
187,1,object_05,object_09,125.0,2,2,23.0,0.6666666666666666,2,object_08,5,2277,0,7,6,desert_22,2,memory-2step-stake-s,680,2739502,0.0-18.0-0.1-0.187,4080,1,2
188,2,object_01,object_02,142.0,4,2,199.0,0.8888888888888888,2,object_08,1,2285,0,6,8,forest_2,2,memory-2step-stake-s,681,2747724,0.0-18.0-0.1-0.188,4080,3,4
189,1,object_09,object_05,276.0,1,2,171.0,0.3333333333333333,1,object_06,5,2300,0,3,8,desert_24,2,memory-2step-stake-s,682,2755414,0.0-18.0-0.1-0.189,4080,2,1
190,1,object_05,object_09,29.0,2,2,40.0,0.7777777777777778,2,object_08,5,2335,0,5,7,desert_29,2,memory-2step-stake-s,683,2763376,0.0-18.0-0.1-0.190,4080,1,2
191,3,object_04,object_03,101.0,6,2,235.0,0.6666666666666666,2,object_08,1,2341,0,6,6,library_8,2,memory-2step-stake-s,684,2771435,0.0-18.0-0.1-0.191,4080,5,6
192,3,object_04,object_03,217.0,6,2,248.0,0.5555555555555556,2,object_08,1,2346,0,5,5,library_28,2,memory-2step-stake-s,685,2779404,0.0-18.0-0.1-0.192,4080,5,6
193,2,object_01,object_02,170.0,4,2,91.0,0.6666666666666666,2,object_08,5,2376,0,8,6,forest_21,2,memory-2step-stake-s,686,2787316,0.0-18.0-0.1-0.193,4080,3,4
194,1,object_05,object_09,299.0,2,2,150.0,0.5555555555555556,2,object_08,1,2381,0,9,5,desert_29,2,memory-2step-stake-s,687,2795187,0.0-18.0-0.1-0.194,4080,1,2
195,2,object_02,object_01,52.0,3,2,254.0,0.8888888888888888,1,object_06,1,2389,0,8,4,forest_30,2,memory-2step-stake-s,688,2803465,0.0-18.0-0.1-0.195,4080,4,3
196,3,object_03,object_04,77.0,5,2,179.0,0.6666666666666666,1,object_06,5,2419,0,6,8,library_7,2,memory-2step-stake-s,689,2811462,0.0-18.0-0.1-0.196,4080,6,5
197,1,object_09,object_05,63.0,1,2,124.0,0.6666666666666666,1,object_06,5,2449,0,6,7,desert_31,2,memory-2step-stake-s,690,2819408,0.0-18.0-0.1-0.197,4080,2,1
198,4,object_07,object_10,127.0,7,2,39.0,0.6666666666666666,1,object_06,1,2455,0,6,7,restaurant_32,2,memory-2step-stake-s,691,2827271,0.0-18.0-0.1-0.198,4080,8,7
199,1,object_05,object_09,25.0,2,2,209.0,0.6666666666666666,2,object_08,1,2461,0,8,6,desert_18,2,memory-2step-stake-s,692,2835301,0.0-18.0-0.1-0.199,4080,1,2
200,2,object_01,object_02,69.0,4,2,146.0,0.8888888888888888,2,object_08,5,2501,0,6,8,forest_30,2,memory-2step-stake-s,693,2843473,0.0-18.0-0.1-0.200,4080,3,4
201,2,object_01,object_02,292.0,4,2,9.0,0.7777777777777778,2,object_08,1,2508,0,1,7,forest_4,2,memory-2step-stake-s,694,2851407,0.0-18.0-0.1-0.201,4080,3,4
202,1,object_09,object_05,228.0,1,2,3.0,0.2222222222222222,1,object_06,5,2518,0,2,6,desert_5,2,memory-2step-stake-s,695,2858827,0.0-18.0-0.1-0.202,4080,2,1
203,1,object_09,object_05,184.0,1,2,192.0,0.1111111111111111,1,object_06,5,2523,0,1,8,desert_7,2,memory-2step-stake-s,696,2866333,0.0-18.0-0.1-0.203,4080,2,1
204,1,object_05,object_09,122.0,2,2,158.0,0.5555555555555556,2,object_08,5,2548,0,2,5,desert_14,2,memory-2step-stake-s,697,2874215,0.0-18.0-0.1-0.204,4080,1,2
205,3,object_04,object_03,181.0,6,2,137.0,0.5555555555555556,2,object_08,1,2553,0,2,5,library_23,2,memory-2step-stake-s,698,2882069,0.0-18.0-0.1-0.205,4080,5,6
206,4,object_10,object_07,134.0,8,2,114.0,0.6666666666666666,2,object_08,1,2559,0,2,6,restaurant_25,2,memory-2step-stake-s,699,2890003,0.0-18.0-0.1-0.206,4080,7,8
207,3,object_03,object_04,88.0,5,2,65.0,0.0,1,object_06,1,2559,0,0,7,library_13,2,memory-2step-stake-s,700,2897283,0.0-18.0-0.1-0.207,4080,6,5
208,1,object_09,object_05,183.0,1,2,10.0,0.1111111111111111,1,object_06,5,2564,0,1,6,desert_27,2,memory-2step-stake-s,701,2904608,0.0-18.0-0.1-0.208,4080,2,1
209,1,object_05,object_09,213.0,2,2,49.0,0.6666666666666666,2,object_08,5,2594,0,0,6,desert_5,2,memory-2step-stake-s,702,2912472,0.0-18.0-0.1-0.209,4080,1,2
210,4,object_07,object_10,785.0,7,2,179.0,0.0,1,object_06,1,2594,0,0,5,restaurant_11,2,memory-2step-stake-s,703,2919867,0.0-18.0-0.1-0.210,4080,8,7
211,4,object_07,object_10,32.0,7,2,211.0,0.1111111111111111,1,object_06,1,2595,0,1,5,restaurant_22,2,memory-2step-stake-s,704,2927394,0.0-18.0-0.1-0.211,4080,8,7
212,2,object_02,object_01,155.0,3,2,-1.0,0.0,1,object_06,5,2595,0,3,3,forest_18,2,memory-2step-stake-s,705,2935905,0.0-18.0-0.1-0.212,4080,4,3
213,3,object_04,object_03,366.0,6,2,207.0,0.4444444444444444,2,object_08,1,2599,0,4,4,library_10,2,memory-2step-stake-s,706,2943729,0.0-18.0-0.1-0.213,4080,5,6
214,1,object_09,object_05,14.0,1,2,-1.0,0.0,1,object_06,5,2599,0,1,4,desert_31,2,memory-2step-stake-s,707,2952244,0.0-18.0-0.1-0.214,4080,2,1
215,3,object_03,object_04,33.0,5,2,141.0,0.1111111111111111,1,object_06,1,2600,0,1,6,library_30,2,memory-2step-stake-s,708,2959704,0.0-18.0-0.1-0.215,4080,6,5
216,2,object_01,object_02,112.0,4,2,154.0,0.6666666666666666,2,object_08,5,2630,0,2,6,forest_9,2,memory-2step-stake-s,709,2967677,0.0-18.0-0.1-0.216,4080,3,4
217,1,object_05,object_09,250.0,2,2,275.0,0.5555555555555556,2,object_08,5,2655,0,3,5,desert_30,2,memory-2step-stake-s,710,2975670,0.0-18.0-0.1-0.217,4080,1,2
218,3,object_04,object_03,266.0,6,2,184.0,0.7777777777777778,2,object_08,1,2662,0,7,7,library_24,2,memory-2step-stake-s,711,2983776,0.0-18.0-0.1-0.218,4080,5,6
219,4,object_07,object_10,193.0,7,2,3.0,0.8888888888888888,1,object_06,1,2670,0,8,7,restaurant_2,2,memory-2step-stake-s,712,2991801,0.0-18.0-0.1-0.219,4080,8,7
220,4,object_07,object_10,170.0,7,2,88.0,0.7777777777777778,1,object_06,1,2677,0,7,7,restaurant_21,2,memory-2step-stake-s,713,2999816,0.0-18.0-0.1-0.220,4080,8,7
221,4,object_10,object_07,193.0,8,2,1493.0,0.5555555555555556,2,object_08,1,2682,0,5,5,restaurant_26,2,memory-2step-stake-s,714,3009031,0.0-18.0-0.1-0.221,4080,7,8
222,3,object_04,object_03,450.0,6,2,690.0,0.1111111111111111,2,object_08,1,2683,0,6,1,library_11,2,memory-2step-stake-s,715,3017037,0.0-18.0-0.1-0.222,4080,5,6
223,2,object_02,object_01,58.0,3,2,55.0,0.6666666666666666,1,object_06,5,2713,0,6,2,forest_15,2,memory-2step-stake-s,716,3024912,0.0-18.0-0.1-0.223,4080,4,3
224,2,object_02,object_01,153.0,3,2,564.0,1.0,1,object_06,5,2758,0,9,3,forest_9,2,memory-2step-stake-s,717,3033600,0.0-18.0-0.1-0.224,4080,4,3
225,4,object_10,object_07,4.0,8,2,176.0,0.3333333333333333,2,object_08,1,2761,0,8,3,restaurant_17,2,memory-2step-stake-s,718,3041294,0.0-18.0-0.1-0.225,4080,7,8
226,3,object_03,object_04,111.0,5,2,229.0,0.8888888888888888,1,object_06,1,2769,0,8,3,library_13,2,memory-2step-stake-s,719,3049543,0.0-18.0-0.1-0.226,4080,6,5
227,2,object_01,object_02,223.0,4,2,23.0,0.0,2,object_08,1,2769,0,8,0,forest_21,2,memory-2step-stake-s,720,3056781,0.0-18.0-0.1-0.227,4080,3,4
228,2,object_02,object_01,9.0,3,2,178.0,1.0,1,object_06,5,2814,0,9,2,forest_21,2,memory-2step-stake-s,721,3065082,0.0-18.0-0.1-0.228,4080,4,3
229,1,object_05,object_09,205.0,2,2,74.0,0.0,2,object_08,5,2814,0,8,0,desert_12,2,memory-2step-stake-s,722,3072370,0.0-18.0-0.1-0.229,4080,1,2
230,4,object_10,object_07,211.0,8,2,58.0,0.2222222222222222,2,object_08,5,2824,0,9,2,restaurant_2,2,memory-2step-stake-s,723,3079843,0.0-18.0-0.1-0.230,4080,7,8
231,4,object_10,object_07,164.0,8,2,11.0,0.2222222222222222,2,object_08,1,2826,0,7,2,restaurant_22,2,memory-2step-stake-s,724,3087275,0.0-18.0-0.1-0.231,4080,7,8
232,3,object_03,object_04,122.0,5,2,202.0,0.8888888888888888,1,object_06,1,2834,0,8,2,library_27,2,memory-2step-stake-s,725,3095500,0.0-18.0-0.1-0.232,4080,6,5
233,1,object_09,object_05,236.0,1,2,30.0,0.7777777777777778,1,object_06,5,2869,0,7,2,desert_7,2,memory-2step-stake-s,726,3103453,0.0-18.0-0.1-0.233,4080,2,1
234,2,object_01,object_02,38.0,4,2,125.0,0.0,2,object_08,5,2869,0,8,0,forest_26,2,memory-2step-stake-s,727,3110793,0.0-18.0-0.1-0.234,4080,3,4
235,4,object_10,object_07,181.0,8,2,8.0,0.0,2,object_08,1,2869,0,8,0,restaurant_14,2,memory-2step-stake-s,728,3118016,0.0-18.0-0.1-0.235,4080,7,8
236,1,object_09,object_05,646.0,1,2,105.0,0.6666666666666666,1,object_06,5,2899,0,6,2,desert_10,2,memory-2step-stake-s,729,3125943,0.0-18.0-0.1-0.236,4080,2,1
237,2,object_02,object_01,174.0,3,2,496.0,0.6666666666666666,1,object_06,5,2929,0,6,1,forest_2,2,memory-2step-stake-s,730,3134260,0.0-18.0-0.1-0.237,4080,4,3
238,1,object_05,object_09,206.0,2,2,263.0,0.7777777777777778,2,object_08,1,2936,0,3,7,desert_11,2,memory-2step-stake-s,731,3142444,0.0-18.0-0.1-0.238,4080,1,2
239,4,object_07,object_10,183.0,7,2,155.0,0.3333333333333333,1,object_06,1,2939,0,3,9,restaurant_22,2,memory-2step-stake-s,732,3150107,0.0-18.0-0.1-0.239,4080,8,7
240,3,object_03,object_04,130.0,5,2,1048.0,0.5555555555555556,1,object_06,1,2944,0,5,7,library_24,2,memory-2step-stake-s,733,3158865,0.0-18.0-0.1-0.240,4080,6,5
241,2,object_01,object_02,293.0,4,2,121.0,0.3333333333333333,2,object_08,1,2947,0,1,3,forest_25,2,memory-2step-stake-s,734,3166502,0.0-18.0-0.1-0.241,4080,3,4
242,3,object_03,object_04,394.0,5,2,136.0,0.1111111111111111,1,object_06,1,2948,0,1,3,library_26,2,memory-2step-stake-s,735,3173950,0.0-18.0-0.1-0.242,4080,6,5
243,2,object_01,object_02,243.0,4,2,844.0,0.1111111111111111,2,object_08,5,2953,0,2,1,forest_19,2,memory-2step-stake-s,736,3182107,0.0-18.0-0.1-0.243,4080,3,4
244,3,object_03,object_04,409.0,5,2,1346.0,0.3333333333333333,1,object_06,1,2956,0,3,1,library_16,2,memory-2step-stake-s,737,3190969,0.0-18.0-0.1-0.244,4080,6,5
245,1,object_05,object_09,915.0,2,2,782.0,0.2222222222222222,2,object_08,5,2966,0,1,2,desert_22,2,memory-2step-stake-s,738,3199167,0.0-18.0-0.1-0.245,4080,1,2
246,2,object_01,object_02,153.0,4,2,101.0,0.1111111111111111,2,object_08,5,2971,0,3,1,forest_26,2,memory-2step-stake-s,739,3206585,0.0-18.0-0.1-0.246,4080,3,4
247,4,object_07,object_10,34.0,7,2,38.0,0.2222222222222222,1,object_06,5,2981,0,2,3,restaurant_14,2,memory-2step-stake-s,740,3214040,0.0-18.0-0.1-0.247,4080,8,7
248,3,object_04,object_03,106.0,6,2,100.0,0.2222222222222222,2,object_08,1,2983,0,4,2,library_27,2,memory-2step-stake-s,741,3221553,0.0-18.0-0.1-0.248,4080,5,6
249,1,object_09,object_05,5.0,1,2,361.0,0.2222222222222222,1,object_06,5,2993,0,2,0,desert_11,2,memory-2step-stake-s,742,3229330,0.0-18.0-0.1-0.249,4080,2,1
250,1,object_09,object_05,116.0,1,2,905.0,0.3333333333333333,1,object_06,5,3008,0,3,2,desert_31,2,memory-2step-stake-s,743,3237753,0.0-18.0-0.1-0.250,4080,2,1
251,2,object_02,object_01,63.0,3,2,183.0,0.3333333333333333,1,object_06,5,3023,0,3,5,forest_18,2,memory-2step-stake-s,744,3245455,0.0-18.0-0.1-0.251,4080,4,3
252,3,object_03,object_04,5.0,5,2,116.0,0.1111111111111111,1,object_06,1,3024,0,1,1,library_13,2,memory-2step-stake-s,745,3252886,0.0-18.0-0.1-0.252,4080,6,5
253,4,object_10,object_07,25.0,8,2,-1.0,0.0,2,object_08,5,3024,0,4,3,restaurant_31,2,memory-2step-stake-s,746,3261400,0.0-18.0-0.1-0.253,4080,7,8
254,1,object_05,object_09,-1.0,-1,-1,-1.0,0.0,-,,5,3024,0,4,3,desert_12,2,memory-2step-stake-s,747,3267910,0.0-18.0-0.1-0.254,4080,1,2
255,1,object_09,object_05,101.0,1,2,26.0,0.0,1,object_06,1,3024,0,0,0,desert_8,2,memory-2step-stake-s,748,3275149,0.0-18.0-0.1-0.255,4080,2,1
