,state1,stim_left,stim_right,rt_1,choice1,response1,rt_2,points,state2,stim_state2,stake,score,practice,rews1,rews2,background,high_arm,trial_type,trial_index,time_elapsed,internal_node_id,subid,stim_left_num,stim_right_num
0,3,object_06,object_03,1469.275,6,2,-1.0,0.0,2,object_09,5,0,0,2,4,library_17,2,memory-2step-stake-s,489,838794,0.0-18.0-0.0-0.0,4360,5,6
1,2,object_05,object_01,982.075,3,2,759.66,0.0,1,object_07,1,0,0,0,3,forest_16,2,memory-2step-stake-s,490,846778,0.0-18.0-0.0-0.1,4360,4,3
2,4,object_10,object_02,769.09,8,1,927.855,0.2222222222222222,2,object_09,1,2,0,1,2,restaurant_10,2,memory-2step-stake-s,491,855141,0.0-18.0-0.0-0.2,4360,8,7
3,1,object_04,object_08,1213.135,1,2,-1.0,0.0,1,object_07,5,2,0,0,1,desert_21,2,memory-2step-stake-s,492,863674,0.0-18.0-0.0-0.3,4360,2,1
4,4,object_02,object_10,1086.455,8,2,574.25,0.1111111111111111,2,object_09,1,3,0,2,1,restaurant_21,2,memory-2step-stake-s,493,871578,0.0-18.0-0.0-0.4,4360,7,8
5,1,object_04,object_08,968.82,2,1,556.16,0.1111111111111111,2,object_09,5,8,0,2,1,desert_1,2,memory-2step-stake-s,494,879461,0.0-18.0-0.0-0.5,4360,2,1
6,1,object_08,object_04,987.42,2,2,562.21,0.0,2,object_09,5,8,0,3,0,desert_8,2,memory-2step-stake-s,495,887253,0.0-18.0-0.0-0.6,4360,1,2
7,2,object_05,object_01,985.39,4,1,385.19,0.0,2,object_09,5,8,0,4,0,forest_24,2,memory-2step-stake-s,496,894875,0.0-18.0-0.0-0.7,4360,4,3
8,3,object_06,object_03,1192.81,5,1,541.215,0.0,1,object_07,1,8,0,0,2,library_20,2,memory-2step-stake-s,497,902647,0.0-18.0-0.0-0.8,4360,5,6
9,3,object_06,object_03,669.345,5,1,393.285,0.0,1,object_07,1,8,0,0,2,library_31,2,memory-2step-stake-s,498,910272,0.0-18.0-0.0-0.9,4360,5,6
10,1,object_08,object_04,958.765,1,1,405.22,0.1111111111111111,1,object_07,5,13,0,1,1,desert_13,2,memory-2step-stake-s,499,918004,0.0-18.0-0.0-0.10,4360,1,2
11,4,object_10,object_02,1267.41,8,1,606.4,0.1111111111111111,2,object_09,1,14,0,1,1,restaurant_10,2,memory-2step-stake-s,500,925945,0.0-18.0-0.0-0.11,4360,8,7
12,4,object_10,object_02,1388.575,7,2,648.885,0.0,1,object_07,1,14,0,0,1,restaurant_14,2,memory-2step-stake-s,501,933824,0.0-18.0-0.0-0.12,4360,8,7
13,1,object_04,object_08,797.685,2,1,423.59,0.2222222222222222,2,object_09,5,24,0,1,2,desert_12,2,memory-2step-stake-s,502,941690,0.0-18.0-0.0-0.13,4360,2,1
14,1,object_08,object_04,1029.76,2,2,470.515,0.0,2,object_09,1,24,0,0,0,desert_13,2,memory-2step-stake-s,503,949386,0.0-18.0-0.0-0.14,4360,1,2
15,1,object_04,object_08,888.99,2,1,426.89,0.2222222222222222,2,object_09,1,26,0,1,2,desert_18,2,memory-2step-stake-s,504,957248,0.0-18.0-0.0-0.15,4360,2,1
16,3,object_06,object_03,960.775,6,2,578.355,0.0,2,object_09,5,26,0,4,0,library_15,2,memory-2step-stake-s,505,965050,0.0-18.0-0.0-0.16,4360,5,6
17,1,object_08,object_04,1239.36,1,1,409.925,0.5555555555555556,1,object_07,5,51,0,5,2,desert_3,2,memory-2step-stake-s,506,973205,0.0-18.0-0.0-0.17,4360,1,2
18,2,object_01,object_05,1000.6,4,2,438.195,0.6666666666666666,2,object_09,5,81,0,6,6,forest_29,2,memory-2step-stake-s,507,981482,0.0-18.0-0.0-0.18,4360,3,4
19,4,object_10,object_02,1112.95,7,2,415.33,0.5555555555555556,1,object_07,1,86,0,5,4,restaurant_32,2,memory-2step-stake-s,508,989637,0.0-18.0-0.0-0.19,4360,8,7
20,2,object_05,object_01,877.73,4,1,472.695,0.4444444444444444,2,object_09,5,106,0,2,4,forest_1,2,memory-2step-stake-s,509,997764,0.0-18.0-0.0-0.20,4360,4,3
21,1,object_04,object_08,633.4,1,2,496.825,0.2222222222222222,1,object_07,1,108,0,2,3,desert_21,2,memory-2step-stake-s,510,1005690,0.0-18.0-0.0-0.21,4360,2,1
22,3,object_06,object_03,1010.915,6,2,562.97,0.5555555555555556,2,object_09,1,113,0,1,5,library_7,2,memory-2step-stake-s,511,1013999,0.0-18.0-0.0-0.22,4360,5,6
23,2,object_01,object_05,721.1,3,1,481.84,0.1111111111111111,1,object_07,1,114,0,1,6,forest_28,2,memory-2step-stake-s,512,1021812,0.0-18.0-0.0-0.23,4360,3,4
24,4,object_10,object_02,1245.14,8,1,510.57,1.0,2,object_09,1,123,0,1,9,restaurant_20,2,memory-2step-stake-s,513,1030458,0.0-18.0-0.0-0.24,4360,8,7
25,4,object_02,object_10,879.76,7,1,406.135,0.2222222222222222,1,object_07,1,125,0,2,9,restaurant_18,2,memory-2step-stake-s,514,1038293,0.0-18.0-0.0-0.25,4360,7,8
26,2,object_01,object_05,698.455,4,2,450.22,1.0,2,object_09,1,134,0,2,9,forest_20,2,memory-2step-stake-s,515,1046896,0.0-18.0-0.0-0.26,4360,3,4
27,4,object_10,object_02,453.915,8,1,431.985,0.8888888888888888,2,object_09,1,142,0,2,8,restaurant_21,2,memory-2step-stake-s,516,1055376,0.0-18.0-0.0-0.27,4360,8,7
28,3,object_03,object_06,1007.605,5,2,434.365,0.2222222222222222,1,object_07,1,144,0,2,7,library_29,2,memory-2step-stake-s,517,1063242,0.0-18.0-0.0-0.28,4360,6,5
29,1,object_08,object_04,686.14,1,1,470.94,0.0,1,object_07,5,144,0,0,9,desert_3,2,memory-2step-stake-s,518,1070944,0.0-18.0-0.0-0.29,4360,1,2
30,4,object_10,object_02,731.53,7,2,488.485,0.2222222222222222,1,object_07,5,154,0,2,9,restaurant_28,2,memory-2step-stake-s,519,1078863,0.0-18.0-0.0-0.30,4360,8,7
31,4,object_10,object_02,719.585,8,1,426.58,0.8888888888888888,2,object_09,1,162,0,5,8,restaurant_4,2,memory-2step-stake-s,520,1087343,0.0-18.0-0.0-0.31,4360,8,7
32,4,object_02,object_10,663.94,8,2,343.52,0.7777777777777778,2,object_09,1,169,0,5,7,restaurant_28,2,memory-2step-stake-s,521,1095634,0.0-18.0-0.0-0.32,4360,7,8
33,2,object_05,object_01,866.135,3,2,394.625,0.4444444444444444,1,object_07,5,189,0,4,8,forest_11,2,memory-2step-stake-s,522,1103674,0.0-18.0-0.0-0.33,4360,4,3
34,2,object_05,object_01,1068.01,4,1,334.065,0.7777777777777778,2,object_09,5,224,0,5,7,forest_23,2,memory-2step-stake-s,523,1111962,0.0-18.0-0.0-0.34,4360,4,3
35,2,object_01,object_05,940.115,4,2,410.905,0.4444444444444444,2,object_09,5,244,0,4,4,forest_3,2,memory-2step-stake-s,524,1120015,0.0-18.0-0.0-0.35,4360,3,4
36,2,object_01,object_05,810.315,4,2,422.125,0.4444444444444444,2,object_09,5,264,0,4,4,forest_4,2,memory-2step-stake-s,525,1128074,0.0-18.0-0.0-0.36,4360,3,4
37,4,object_02,object_10,884.98,8,2,386.785,0.3333333333333333,2,object_09,1,267,0,8,3,restaurant_25,2,memory-2step-stake-s,526,1135994,0.0-18.0-0.0-0.37,4360,7,8
38,2,object_05,object_01,657.75,4,1,371.36,0.1111111111111111,2,object_09,1,268,0,8,1,forest_3,2,memory-2step-stake-s,527,1143695,0.0-18.0-0.0-0.38,4360,4,3
39,4,object_10,object_02,1209.005,8,1,511.68,0.3333333333333333,2,object_09,1,271,0,8,3,restaurant_23,2,memory-2step-stake-s,528,1151742,0.0-18.0-0.0-0.39,4360,8,7
40,4,object_10,object_02,1006.08,7,2,536.4,1.0,1,object_07,1,280,0,9,2,restaurant_18,2,memory-2step-stake-s,529,1160426,0.0-18.0-0.0-0.40,4360,8,7
41,1,object_08,object_04,1003.76,1,1,511.67,0.8888888888888888,1,object_07,5,320,0,8,4,desert_15,2,memory-2step-stake-s,530,1168992,0.0-18.0-0.0-0.41,4360,1,2
42,1,object_08,object_04,698.605,1,1,358.405,0.4444444444444444,1,object_07,5,340,0,4,3,desert_27,2,memory-2step-stake-s,531,1176995,0.0-18.0-0.0-0.42,4360,1,2
43,3,object_03,object_06,-1.0,-1,-1,-1.0,0.0,-,,5,340,0,2,3,library_15,2,memory-2step-stake-s,532,1183508,0.0-18.0-0.0-0.43,4360,6,5
44,1,object_08,object_04,1466.185,2,2,506.37,0.2222222222222222,2,object_09,5,350,0,0,2,desert_10,2,memory-2step-stake-s,533,1191443,0.0-18.0-0.0-0.44,4360,1,2
45,3,object_06,object_03,905.655,5,1,403.38,0.3333333333333333,1,object_07,5,365,0,3,1,library_12,2,memory-2step-stake-s,534,1199385,0.0-18.0-0.0-0.45,4360,5,6
46,2,object_05,object_01,758.56,3,2,382.175,0.3333333333333333,1,object_07,1,368,0,3,3,forest_12,2,memory-2step-stake-s,535,1207296,0.0-18.0-0.0-0.46,4360,4,3
47,1,object_08,object_04,398.475,1,1,309.33,0.3333333333333333,1,object_07,1,371,0,3,1,desert_8,2,memory-2step-stake-s,536,1215141,0.0-18.0-0.0-0.47,4360,1,2
48,3,object_06,object_03,524.455,6,2,377.32,0.3333333333333333,2,object_09,1,374,0,3,3,library_10,2,memory-2step-stake-s,537,1223056,0.0-18.0-0.0-0.48,4360,5,6
49,2,object_05,object_01,685.83,3,2,382.71,0.2222222222222222,1,object_07,5,384,0,2,2,forest_19,2,memory-2step-stake-s,538,1230864,0.0-18.0-0.0-0.49,4360,4,3
50,4,object_02,object_10,722.64,8,2,451.695,0.6666666666666666,2,object_09,1,390,0,3,6,restaurant_13,2,memory-2step-stake-s,539,1239152,0.0-18.0-0.0-0.50,4360,7,8
51,2,object_01,object_05,585.385,3,1,276.375,0.4444444444444444,1,object_07,5,410,0,4,7,forest_29,2,memory-2step-stake-s,540,1247072,0.0-18.0-0.0-0.51,4360,3,4
52,4,object_10,object_02,565.805,8,1,458.19,0.6666666666666666,2,object_09,1,416,0,2,6,restaurant_28,2,memory-2step-stake-s,541,1255374,0.0-18.0-0.0-0.52,4360,8,7
53,2,object_05,object_01,444.41,3,2,506.61,0.2222222222222222,1,object_07,5,426,0,2,6,forest_12,2,memory-2step-stake-s,542,1263317,0.0-18.0-0.0-0.53,4360,4,3
54,4,object_10,object_02,434.495,8,1,514.065,0.8888888888888888,2,object_09,1,434,0,2,8,restaurant_20,2,memory-2step-stake-s,543,1271882,0.0-18.0-0.0-0.54,4360,8,7
55,4,object_10,object_02,785.93,7,2,363.65,0.0,1,object_07,1,434,0,0,5,restaurant_2,2,memory-2step-stake-s,544,1279466,0.0-18.0-0.0-0.55,4360,8,7
56,1,object_04,object_08,802.63,2,1,402.275,0.7777777777777778,2,object_09,5,469,0,3,7,desert_15,2,memory-2step-stake-s,545,1287808,0.0-18.0-0.0-0.56,4360,2,1
57,4,object_10,object_02,699.49,7,2,373.6,0.1111111111111111,1,object_07,1,470,0,1,3,restaurant_13,2,memory-2step-stake-s,546,1295510,0.0-18.0-0.0-0.57,4360,8,7
58,2,object_01,object_05,770.815,4,2,387.705,0.6666666666666666,2,object_09,5,500,0,2,6,forest_3,2,memory-2step-stake-s,547,1303747,0.0-18.0-0.0-0.58,4360,3,4
59,4,object_02,object_10,655.22,7,1,324.355,0.1111111111111111,1,object_07,1,501,0,1,6,restaurant_4,2,memory-2step-stake-s,548,1311413,0.0-18.0-0.0-0.59,4360,7,8
60,4,object_10,object_02,414.37,7,2,650.895,0.2222222222222222,1,object_07,1,503,0,2,8,restaurant_11,2,memory-2step-stake-s,549,1319493,0.0-18.0-0.0-0.60,4360,8,7
61,2,object_05,object_01,831.59,3,2,431.745,0.2222222222222222,1,object_07,5,513,0,2,6,forest_7,2,memory-2step-stake-s,550,1327365,0.0-18.0-0.0-0.61,4360,4,3
62,3,object_06,object_03,494.08,5,1,597.885,0.2222222222222222,1,object_07,1,515,0,2,8,library_17,2,memory-2step-stake-s,551,1335401,0.0-18.0-0.0-0.62,4360,5,6
63,1,object_08,object_04,342.66,2,2,344.955,0.3333333333333333,2,object_09,5,530,0,1,3,desert_27,2,memory-2step-stake-s,552,1343284,0.0-18.0-0.0-0.63,4360,1,2
64,2,object_01,object_05,1047.52,3,1,354.505,0.2222222222222222,1,object_07,5,540,0,2,2,forest_19,2,memory-2step-stake-s,553,1351066,0.0-18.0-0.0-0.64,4360,3,4
65,3,object_06,object_03,800.22,6,2,437.85,0.3333333333333333,2,object_09,5,555,0,3,3,library_5,2,memory-2step-stake-s,554,1359045,0.0-18.0-0.0-0.65,4360,5,6
66,3,object_06,object_03,490.445,5,1,424.995,0.1111111111111111,1,object_07,5,560,0,1,4,library_10,2,memory-2step-stake-s,555,1366794,0.0-18.0-0.0-0.66,4360,5,6
67,3,object_06,object_03,433.76,6,2,485.755,0.4444444444444444,2,object_09,1,564,0,1,4,library_13,2,memory-2step-stake-s,556,1374917,0.0-18.0-0.0-0.67,4360,5,6
68,4,object_10,object_02,135.92,7,2,405.645,0.3333333333333333,1,object_07,1,567,0,3,9,restaurant_5,2,memory-2step-stake-s,557,1382853,0.0-18.0-0.0-0.68,4360,8,7
69,1,object_04,object_08,706.43,2,1,445.02,0.7777777777777778,2,object_09,5,602,0,5,7,desert_3,2,memory-2step-stake-s,558,1391237,0.0-18.0-0.0-0.69,4360,2,1
70,1,object_08,object_04,467.025,2,2,367.31,0.6666666666666666,2,object_09,1,608,0,6,6,desert_23,2,memory-2step-stake-s,559,1399445,0.0-18.0-0.0-0.70,4360,1,2
71,2,object_05,object_01,775.98,3,2,401.815,0.8888888888888888,1,object_07,5,648,0,8,8,forest_29,2,memory-2step-stake-s,560,1407894,0.0-18.0-0.0-0.71,4360,4,3
72,3,object_03,object_06,833.12,5,2,346.71,1.0,1,object_07,5,693,0,9,9,library_12,2,memory-2step-stake-s,561,1416394,0.0-18.0-0.0-0.72,4360,6,5
73,2,object_01,object_05,442.73,3,1,320.52,0.8888888888888888,1,object_07,5,733,0,8,8,forest_24,2,memory-2step-stake-s,562,1424752,0.0-18.0-0.0-0.73,4360,3,4
74,3,object_06,object_03,675.77,6,2,346.745,0.7777777777777778,2,object_09,1,740,0,9,7,library_30,2,memory-2step-stake-s,563,1433039,0.0-18.0-0.0-0.74,4360,5,6
75,2,object_05,object_01,487.725,4,1,323.19,0.5555555555555556,2,object_09,5,765,0,6,5,forest_28,2,memory-2step-stake-s,564,1441109,0.0-18.0-0.0-0.75,4360,4,3
76,4,object_02,object_10,849.575,8,2,370.92,0.4444444444444444,2,object_09,1,769,0,6,4,restaurant_20,2,memory-2step-stake-s,565,1449114,0.0-18.0-0.0-0.76,4360,7,8
77,3,object_03,object_06,883.1,6,1,357.195,0.3333333333333333,2,object_09,1,772,0,2,3,library_15,2,memory-2step-stake-s,566,1457002,0.0-18.0-0.0-0.77,4360,6,5
78,3,object_03,object_06,621.145,5,2,339.385,0.2222222222222222,1,object_07,1,774,0,2,1,library_31,2,memory-2step-stake-s,567,1464762,0.0-18.0-0.0-0.78,4360,6,5
79,1,object_04,object_08,558.05,2,1,486.025,0.4444444444444444,2,object_09,5,794,0,6,4,desert_19,2,memory-2step-stake-s,568,1472885,0.0-18.0-0.0-0.79,4360,2,1
80,2,object_01,object_05,47.62499999,3,1,848.615,0.6666666666666666,1,object_07,5,824,0,6,0,forest_4,2,memory-2step-stake-s,569,1481575,0.0-18.0-0.0-0.80,4360,3,4
81,3,object_03,object_06,558.485,5,2,352.92,0.4444444444444444,1,object_07,5,844,0,4,2,library_10,2,memory-2step-stake-s,570,1489568,0.0-18.0-0.0-0.81,4360,6,5
82,1,object_08,object_04,500.845,1,1,396.945,0.0,1,object_07,5,844,0,0,1,desert_24,2,memory-2step-stake-s,571,1497187,0.0-18.0-0.0-0.82,4360,1,2
83,3,object_03,object_06,285.49,5,2,328.34,0.1111111111111111,1,object_07,1,845,0,1,1,library_17,2,memory-2step-stake-s,572,1504848,0.0-18.0-0.0-0.83,4360,6,5
84,2,object_05,object_01,1008.32,4,1,293.645,0.2222222222222222,2,object_09,1,847,0,0,2,forest_16,2,memory-2step-stake-s,573,1512576,0.0-18.0-0.0-0.84,4360,4,3
85,1,object_08,object_04,569.6,2,2,388.965,0.3333333333333333,2,object_09,5,862,0,2,3,desert_24,2,memory-2step-stake-s,574,1520496,0.0-18.0-0.0-0.85,4360,1,2
86,1,object_08,object_04,602.86,1,1,393.925,0.1111111111111111,1,object_07,5,867,0,1,7,desert_10,2,memory-2step-stake-s,575,1528222,0.0-18.0-0.0-0.86,4360,1,2
87,4,object_02,object_10,453.445,8,2,381.315,0.4444444444444444,2,object_09,1,871,0,1,4,restaurant_14,2,memory-2step-stake-s,576,1536234,0.0-18.0-0.0-0.87,4360,7,8
88,1,object_08,object_04,329.215,1,1,347.465,0.1111111111111111,1,object_07,1,872,0,1,6,desert_12,2,memory-2step-stake-s,577,1543912,0.0-18.0-0.0-0.88,4360,1,2
89,3,object_03,object_06,732.55,5,2,333.86,0.1111111111111111,1,object_07,1,873,0,1,6,library_28,2,memory-2step-stake-s,578,1551573,0.0-18.0-0.0-0.89,4360,6,5
90,1,object_04,object_08,1099.57,2,1,849.24,0.6666666666666666,2,object_09,5,903,0,2,6,desert_18,2,memory-2step-stake-s,579,1560261,0.0-18.0-0.0-0.90,4360,2,1
91,4,object_10,object_02,299.66,8,1,315.47,0.8888888888888888,2,object_09,1,911,0,0,8,restaurant_10,2,memory-2step-stake-s,580,1568629,0.0-18.0-0.0-0.91,4360,8,7
92,2,object_01,object_05,445.64,4,2,369.77,0.8888888888888888,2,object_09,5,951,0,1,8,forest_12,2,memory-2step-stake-s,581,1577061,0.0-18.0-0.0-0.92,4360,3,4
93,3,object_03,object_06,686.96,6,1,1051.055,0.8888888888888888,2,object_09,1,959,0,3,8,library_13,2,memory-2step-stake-s,582,1586158,0.0-18.0-0.0-0.93,4360,6,5
94,4,object_02,object_10,572.015,8,2,380.595,1.0,2,object_09,1,968,0,2,9,restaurant_25,2,memory-2step-stake-s,583,1594685,0.0-18.0-0.0-0.94,4360,7,8
95,2,object_05,object_01,395.695,4,1,453.99,0.6666666666666666,2,object_09,1,974,0,5,6,forest_7,2,memory-2step-stake-s,584,1602976,0.0-18.0-0.0-0.95,4360,4,3
96,2,object_05,object_01,397.27,3,2,475.835,0.6666666666666666,1,object_07,5,1004,0,6,6,forest_4,2,memory-2step-stake-s,585,1611300,0.0-18.0-0.0-0.96,4360,4,3
97,2,object_05,object_01,670.045,3,2,342.82,0.6666666666666666,1,object_07,5,1034,0,6,6,forest_1,2,memory-2step-stake-s,586,1619476,0.0-18.0-0.0-0.97,4360,4,3
98,2,object_01,object_05,924.53,4,2,327.48,0.5555555555555556,2,object_09,5,1059,0,2,5,forest_11,2,memory-2step-stake-s,587,1627546,0.0-18.0-0.0-0.98,4360,3,4
99,1,object_04,object_08,397.72,2,1,548.245,0.5555555555555556,2,object_09,5,1084,0,2,5,desert_9,2,memory-2step-stake-s,588,1635829,0.0-18.0-0.0-0.99,4360,2,1
100,1,object_04,object_08,631.62,1,2,330.845,0.0,1,object_07,5,1084,0,0,4,desert_16,2,memory-2step-stake-s,589,1643390,0.0-18.0-0.0-0.100,4360,2,1
101,4,object_10,object_02,345.345,8,1,410.815,0.6666666666666666,2,object_09,1,1090,0,2,6,restaurant_21,2,memory-2step-stake-s,590,1651648,0.0-18.0-0.0-0.101,4360,8,7
102,3,object_06,object_03,286.385,6,2,344.125,0.8888888888888888,2,object_09,1,1098,0,2,8,library_28,2,memory-2step-stake-s,591,1660026,0.0-18.0-0.0-0.102,4360,5,6
103,4,object_10,object_02,-1.0,-1,-1,-1.0,0.0,-,,1,1098,0,2,6,restaurant_5,2,memory-2step-stake-s,592,1666549,0.0-18.0-0.0-0.103,4360,8,7
104,1,object_08,object_04,273.72,1,1,439.285,0.1111111111111111,1,object_07,5,1103,0,1,7,desert_9,2,memory-2step-stake-s,593,1674309,0.0-18.0-0.0-0.104,4360,1,2
105,1,object_08,object_04,927.0,2,2,381.06,0.7777777777777778,2,object_09,5,1138,0,1,7,desert_23,2,memory-2step-stake-s,594,1682623,0.0-18.0-0.0-0.105,4360,1,2
106,4,object_10,object_02,1002.735,7,2,448.54,0.2222222222222222,1,object_07,5,1148,0,2,9,restaurant_22,2,memory-2step-stake-s,595,1690506,0.0-18.0-0.0-0.106,4360,8,7
107,1,object_04,object_08,471.325,2,1,401.215,0.6666666666666666,2,object_09,5,1178,0,1,6,desert_19,2,memory-2step-stake-s,596,1698747,0.0-18.0-0.0-0.107,4360,2,1
108,3,object_03,object_06,514.56,5,2,345.67,0.4444444444444444,1,object_07,1,1182,0,4,5,library_20,2,memory-2step-stake-s,597,1706734,0.0-18.0-0.0-0.108,4360,6,5
109,4,object_10,object_02,651.29,8,1,361.79,0.4444444444444444,2,object_09,1,1186,0,5,4,restaurant_32,2,memory-2step-stake-s,598,1714730,0.0-18.0-0.0-0.109,4360,8,7
110,2,object_01,object_05,470.77,4,2,387.33,0.8888888888888888,2,object_09,5,1226,0,4,8,forest_11,2,memory-2step-stake-s,599,1723168,0.0-18.0-0.0-0.110,4360,3,4
111,1,object_04,object_08,438.395,2,1,422.49,0.7777777777777778,2,object_09,1,1233,0,3,7,desert_22,2,memory-2step-stake-s,600,1731536,0.0-18.0-0.0-0.111,4360,2,1
112,4,object_02,object_10,558.375,8,2,426.435,0.5555555555555556,2,object_09,1,1238,0,3,5,restaurant_11,2,memory-2step-stake-s,601,1739706,0.0-18.0-0.0-0.112,4360,7,8
113,3,object_03,object_06,550.61,6,1,524.43,0.8888888888888888,2,object_09,1,1246,0,2,8,library_22,2,memory-2step-stake-s,602,1748279,0.0-18.0-0.0-0.113,4360,6,5
114,1,object_04,object_08,459.65,1,2,388.07,0.1111111111111111,1,object_07,1,1247,0,1,8,desert_13,2,memory-2step-stake-s,603,1755994,0.0-18.0-0.0-0.114,4360,2,1
115,4,object_02,object_10,184.55,7,1,546.0,0.2222222222222222,1,object_07,1,1249,0,2,8,restaurant_11,2,memory-2step-stake-s,604,1763968,0.0-18.0-0.0-0.115,4360,7,8
116,2,object_01,object_05,147.945,3,1,1275.605,0.3333333333333333,1,object_07,5,1264,0,3,8,forest_16,2,memory-2step-stake-s,605,1772773,0.0-18.0-0.0-0.116,4360,3,4
117,3,object_06,object_03,644.97,5,1,522.985,0.3333333333333333,1,object_07,1,1267,0,3,8,library_18,2,memory-2step-stake-s,606,1780837,0.0-18.0-0.0-0.117,4360,5,6
118,1,object_08,object_04,403.09,1,1,576.955,0.4444444444444444,1,object_07,5,1287,0,4,7,desert_23,2,memory-2step-stake-s,607,1789050,0.0-18.0-0.0-0.118,4360,1,2
119,2,object_05,object_01,728.28,4,1,-1.0,0.0,2,object_09,5,1287,0,3,4,forest_20,2,memory-2step-stake-s,608,1797573,0.0-18.0-0.0-0.119,4360,4,3
120,1,object_04,object_08,723.655,2,1,890.035,0.3333333333333333,2,object_09,5,1302,0,4,3,desert_27,2,memory-2step-stake-s,609,1805996,0.0-18.0-0.0-0.120,4360,2,1
121,1,object_04,object_08,398.07,1,2,509.535,0.2222222222222222,1,object_07,5,1312,0,2,3,desert_16,2,memory-2step-stake-s,610,1813952,0.0-18.0-0.0-0.121,4360,2,1
122,1,object_08,object_04,425.16,2,2,321.68,0.4444444444444444,2,object_09,1,1316,0,6,4,desert_23,2,memory-2step-stake-s,611,1821908,0.0-18.0-0.0-0.122,4360,1,2
123,4,object_02,object_10,396.27,7,1,695.25,0.6666666666666666,1,object_07,1,1322,0,6,4,restaurant_29,2,memory-2step-stake-s,612,1830458,0.0-18.0-0.0-0.123,4360,7,8
124,1,object_04,object_08,563.915,1,2,430.685,0.6666666666666666,1,object_07,5,1352,0,6,6,desert_1,2,memory-2step-stake-s,613,1838731,0.0-18.0-0.0-0.124,4360,2,1
125,4,object_10,object_02,483.15,8,1,431.465,0.5555555555555556,2,object_09,1,1357,0,9,5,restaurant_23,2,memory-2step-stake-s,614,1846897,0.0-18.0-0.0-0.125,4360,8,7
126,2,object_01,object_05,302.295,3,1,422.315,0.8888888888888888,1,object_07,5,1397,0,8,3,forest_10,2,memory-2step-stake-s,615,1855376,0.0-18.0-0.0-0.126,4360,3,4
127,1,object_04,object_08,563.695,1,2,578.33,0.6666666666666666,1,object_07,5,1427,0,6,5,desert_18,2,memory-2step-stake-s,616,1863800,0.0-18.0-0.0-0.127,4360,2,1
128,2,object_01,object_05,411.16,3,1,582.27,0.8888888888888888,1,object_07,5,1467,0,8,3,forest_17,2,memory-2step-stake-s,618,1903498,0.0-18.0-0.1-0.128,4360,3,4
129,3,object_06,object_03,486.13,6,2,479.65,0.5555555555555556,2,object_09,1,1472,0,7,5,library_32,2,memory-2step-stake-s,619,1911728,0.0-18.0-0.1-0.129,4360,5,6
130,4,object_10,object_02,15.64,8,1,360.145,0.5555555555555556,2,object_09,1,1477,0,8,5,restaurant_4,2,memory-2step-stake-s,620,1919834,0.0-18.0-0.1-0.130,4360,8,7
131,1,object_04,object_08,459.875,2,1,420.615,0.5555555555555556,2,object_09,5,1502,0,8,5,desert_10,2,memory-2step-stake-s,621,1927994,0.0-18.0-0.1-0.131,4360,2,1
132,4,object_10,object_02,497.415,8,1,496.155,0.2222222222222222,2,object_09,1,1504,0,8,2,restaurant_2,2,memory-2step-stake-s,622,1935925,0.0-18.0-0.1-0.132,4360,8,7
133,3,object_03,object_06,702.865,6,1,289.9,0.2222222222222222,2,object_09,1,1506,0,7,2,library_32,2,memory-2step-stake-s,623,1943648,0.0-18.0-0.1-0.133,4360,6,5
134,3,object_03,object_06,459.39,6,1,721.26,0.4444444444444444,2,object_09,1,1510,0,8,4,library_5,2,memory-2step-stake-s,624,1952010,0.0-18.0-0.1-0.134,4360,6,5
135,1,object_08,object_04,525.815,2,2,466.235,0.3333333333333333,2,object_09,5,1525,0,5,3,desert_12,2,memory-2step-stake-s,625,1960008,0.0-18.0-0.1-0.135,4360,1,2
136,3,object_06,object_03,217.235,5,1,761.125,0.8888888888888888,1,object_07,1,1533,0,8,0,library_10,2,memory-2step-stake-s,626,1968821,0.0-18.0-0.1-0.136,4360,5,6
137,3,object_06,object_03,161.59,6,2,431.34,0.1111111111111111,2,object_09,1,1534,0,7,1,library_17,2,memory-2step-stake-s,627,1976585,0.0-18.0-0.1-0.137,4360,5,6
138,1,object_08,object_04,343.23,1,1,399.86,0.7777777777777778,1,object_07,5,1569,0,7,1,desert_15,2,memory-2step-stake-s,628,1984935,0.0-18.0-0.1-0.138,4360,1,2
139,3,object_06,object_03,488.96,6,2,449.34,0.2222222222222222,2,object_09,1,1571,0,8,2,library_30,2,memory-2step-stake-s,629,1992825,0.0-18.0-0.1-0.139,4360,5,6
140,2,object_05,object_01,366.735,4,1,811.585,0.2222222222222222,2,object_09,5,1581,0,7,2,forest_19,2,memory-2step-stake-s,630,2001072,0.0-18.0-0.1-0.140,4360,4,3
141,2,object_05,object_01,677.585,4,1,1457.325,0.3333333333333333,2,object_09,5,1596,0,8,3,forest_28,2,memory-2step-stake-s,631,2010069,0.0-18.0-0.1-0.141,4360,4,3
142,4,object_02,object_10,1017.95,7,1,1476.06,1.0,1,object_07,1,1605,0,9,1,restaurant_5,2,memory-2step-stake-s,632,2019701,0.0-18.0-0.1-0.142,4360,7,8
143,3,object_03,object_06,261.6,6,1,536.36,0.1111111111111111,2,object_09,1,1606,0,8,1,library_18,2,memory-2step-stake-s,633,2027567,0.0-18.0-0.1-0.143,4360,6,5
144,2,object_05,object_01,1154.83,4,1,-1.0,0.0,2,object_09,5,1606,0,9,0,forest_16,2,memory-2step-stake-s,634,2036090,0.0-18.0-0.1-0.144,4360,4,3
145,2,object_05,object_01,378.98,4,1,579.02,0.1111111111111111,2,object_09,5,1611,0,6,1,forest_4,2,memory-2step-stake-s,635,2044005,0.0-18.0-0.1-0.145,4360,4,3
146,3,object_06,object_03,110.4,6,2,586.045,0.2222222222222222,2,object_09,1,1613,0,4,2,library_12,2,memory-2step-stake-s,636,2052027,0.0-18.0-0.1-0.146,4360,5,6
147,3,object_03,object_06,571.655,5,2,386.34,0.7777777777777778,1,object_07,5,1648,0,7,3,library_30,2,memory-2step-stake-s,637,2060357,0.0-18.0-0.1-0.147,4360,6,5
148,1,object_04,object_08,317.575,1,2,1115.205,0.8888888888888888,1,object_07,1,1656,0,8,4,desert_15,2,memory-2step-stake-s,638,2069524,0.0-18.0-0.1-0.148,4360,2,1
149,2,object_05,object_01,945.32,3,2,361.34,0.7777777777777778,1,object_07,5,1691,0,7,1,forest_12,2,memory-2step-stake-s,639,2077835,0.0-18.0-0.1-0.149,4360,4,3
150,4,object_10,object_02,407.38,7,2,726.73,0.3333333333333333,1,object_07,1,1694,0,3,1,restaurant_32,2,memory-2step-stake-s,640,2086087,0.0-18.0-0.1-0.150,4360,8,7
151,2,object_01,object_05,334.565,3,1,418.28,0.5555555555555556,1,object_07,5,1719,0,5,3,forest_24,2,memory-2step-stake-s,641,2094254,0.0-18.0-0.1-0.151,4360,3,4
152,1,object_04,object_08,550.275,2,1,287.185,0.2222222222222222,2,object_09,5,1729,0,8,2,desert_16,2,memory-2step-stake-s,642,2101967,0.0-18.0-0.1-0.152,4360,2,1
153,2,object_05,object_01,360.55,4,1,426.095,0.1111111111111111,2,object_09,5,1734,0,9,1,forest_8,2,memory-2step-stake-s,643,2109727,0.0-18.0-0.1-0.153,4360,4,3
154,1,object_04,object_08,530.82,2,1,330.26,0.2222222222222222,2,object_09,5,1744,0,8,2,desert_10,2,memory-2step-stake-s,644,2117493,0.0-18.0-0.1-0.154,4360,2,1
155,1,object_04,object_08,480.685,1,2,313.315,0.8888888888888888,1,object_07,5,1784,0,8,2,desert_19,2,memory-2step-stake-s,645,2125861,0.0-18.0-0.1-0.155,4360,2,1
156,4,object_02,object_10,-1.0,-1,-1,-1.0,0.0,-,,1,1784,0,8,0,restaurant_29,2,memory-2step-stake-s,646,2132378,0.0-18.0-0.1-0.156,4360,7,8
157,4,object_10,object_02,433.18,7,2,393.3,0.7777777777777778,1,object_07,1,1791,0,7,0,restaurant_13,2,memory-2step-stake-s,647,2140710,0.0-18.0-0.1-0.157,4360,8,7
158,2,object_05,object_01,1121.055,3,2,559.485,1.0,1,object_07,5,1836,0,9,1,forest_7,2,memory-2step-stake-s,648,2149418,0.0-18.0-0.1-0.158,4360,4,3
159,2,object_01,object_05,-1.0,-1,-1,-1.0,0.0,-,,5,1836,0,6,1,forest_19,2,memory-2step-stake-s,649,2155931,0.0-18.0-0.1-0.159,4360,3,4
160,3,object_06,object_03,383.86,5,1,410.26,0.5555555555555556,1,object_07,1,1841,0,5,1,library_5,2,memory-2step-stake-s,650,2164085,0.0-18.0-0.1-0.160,4360,5,6
161,2,object_01,object_05,532.3,4,2,417.71,0.3333333333333333,2,object_09,5,1856,0,4,3,forest_20,2,memory-2step-stake-s,651,2172037,0.0-18.0-0.1-0.161,4360,3,4
162,1,object_04,object_08,262.26,2,1,525.995,0.2222222222222222,2,object_09,5,1866,0,5,2,desert_24,2,memory-2step-stake-s,652,2179995,0.0-18.0-0.1-0.162,4360,2,1
163,4,object_02,object_10,511.6,8,2,399.05,0.2222222222222222,2,object_09,1,1868,0,4,2,restaurant_4,2,memory-2step-stake-s,653,2187826,0.0-18.0-0.1-0.163,4360,7,8
164,2,object_01,object_05,402.09,3,1,339.465,0.2222222222222222,1,object_07,1,1870,0,2,2,forest_3,2,memory-2step-stake-s,654,2195595,0.0-18.0-0.1-0.164,4360,3,4
165,4,object_02,object_10,538.04,8,2,432.42,0.4444444444444444,2,object_09,5,1890,0,3,4,restaurant_10,2,memory-2step-stake-s,655,2203664,0.0-18.0-0.1-0.165,4360,7,8
166,3,object_03,object_06,480.95,6,1,480.11,0.5555555555555556,2,object_09,1,1895,0,5,5,library_28,2,memory-2step-stake-s,656,2211877,0.0-18.0-0.1-0.166,4360,6,5
167,1,object_04,object_08,419.145,1,2,422.805,0.5555555555555556,1,object_07,5,1920,0,5,5,desert_21,2,memory-2step-stake-s,657,2220038,0.0-18.0-0.1-0.167,4360,2,1
168,1,object_08,object_04,530.325,1,1,340.855,0.6666666666666666,1,object_07,5,1950,0,6,4,desert_9,2,memory-2step-stake-s,658,2228226,0.0-18.0-0.1-0.168,4360,1,2
169,4,object_10,object_02,590.945,8,1,543.96,0.3333333333333333,2,object_09,1,1953,0,2,3,restaurant_18,2,memory-2step-stake-s,659,2236310,0.0-18.0-0.1-0.169,4360,8,7
170,3,object_06,object_03,365.925,6,2,539.185,0.6666666666666666,2,object_09,1,1959,0,1,6,library_32,2,memory-2step-stake-s,660,2244694,0.0-18.0-0.1-0.170,4360,5,6
171,4,object_10,object_02,354.01,8,1,457.2,0.6666666666666666,2,object_09,1,1965,0,1,6,restaurant_22,2,memory-2step-stake-s,661,2252987,0.0-18.0-0.1-0.171,4360,8,7
172,4,object_10,object_02,461.175,7,2,609.47,0.3333333333333333,1,object_07,1,1968,0,3,4,restaurant_2,2,memory-2step-stake-s,662,2261131,0.0-18.0-0.1-0.172,4360,8,7
173,2,object_01,object_05,411.08,3,1,447.73,0.3333333333333333,1,object_07,5,1983,0,3,9,forest_23,2,memory-2step-stake-s,663,2269120,0.0-18.0-0.1-0.173,4360,3,4
174,2,object_01,object_05,355.78,4,2,299.05,1.0,2,object_09,5,2028,0,1,9,forest_8,2,memory-2step-stake-s,664,2277579,0.0-18.0-0.1-0.174,4360,3,4
175,2,object_05,object_01,411.675,4,1,617.93,1.0,2,object_09,5,2073,0,0,9,forest_11,2,memory-2step-stake-s,665,2286359,0.0-18.0-0.1-0.175,4360,4,3
176,4,object_02,object_10,480.205,8,2,650.38,0.5555555555555556,2,object_09,1,2078,0,3,5,restaurant_5,2,memory-2step-stake-s,666,2294752,0.0-18.0-0.1-0.176,4360,7,8
177,1,object_08,object_04,418.685,1,1,421.435,0.3333333333333333,1,object_07,5,2093,0,3,6,desert_24,2,memory-2step-stake-s,667,2302710,0.0-18.0-0.1-0.177,4360,1,2
178,1,object_08,object_04,360.865,2,2,519.71,0.4444444444444444,2,object_09,1,2097,0,2,4,desert_1,2,memory-2step-stake-s,668,2310859,0.0-18.0-0.1-0.178,4360,1,2
179,1,object_08,object_04,436.265,1,1,442.945,0.1111111111111111,1,object_07,5,2102,0,1,6,desert_13,2,memory-2step-stake-s,669,2318629,0.0-18.0-0.1-0.179,4360,1,2
180,3,object_03,object_06,535.61,5,2,805.66,0.3333333333333333,1,object_07,1,2105,0,3,9,library_13,2,memory-2step-stake-s,670,2326971,0.0-18.0-0.1-0.180,4360,6,5
181,1,object_08,object_04,548.21,2,2,484.305,0.7777777777777778,2,object_09,1,2112,0,3,7,desert_19,2,memory-2step-stake-s,671,2335402,0.0-18.0-0.1-0.181,4360,1,2
182,3,object_03,object_06,513.79,6,1,339.055,0.7777777777777778,2,object_09,1,2119,0,3,7,library_7,2,memory-2step-stake-s,672,2343680,0.0-18.0-0.1-0.182,4360,6,5
183,4,object_10,object_02,414.675,7,2,420.29,0.5555555555555556,1,object_07,1,2124,0,5,6,restaurant_25,2,memory-2step-stake-s,673,2351846,0.0-18.0-0.1-0.183,4360,8,7
184,3,object_06,object_03,459.65,5,1,450.945,0.0,1,object_07,1,2124,0,0,8,library_5,2,memory-2step-stake-s,674,2359531,0.0-18.0-0.1-0.184,4360,5,6
185,4,object_02,object_10,606.615,7,1,1221.605,0.1111111111111111,1,object_07,1,2125,0,1,8,restaurant_14,2,memory-2step-stake-s,675,2368080,0.0-18.0-0.1-0.185,4360,7,8
186,2,object_01,object_05,538.55,4,2,382.96,0.8888888888888888,2,object_09,5,2165,0,0,8,forest_7,2,memory-2step-stake-s,676,2376511,0.0-18.0-0.1-0.186,4360,3,4
187,3,object_06,object_03,649.415,6,2,421.63,0.4444444444444444,2,object_09,1,2169,0,2,4,library_29,2,memory-2step-stake-s,677,2384571,0.0-18.0-0.1-0.187,4360,5,6
188,4,object_10,object_02,510.32,7,2,334.275,0.1111111111111111,1,object_07,1,2170,0,1,4,restaurant_2,2,memory-2step-stake-s,678,2392235,0.0-18.0-0.1-0.188,4360,8,7
189,2,object_05,object_01,358.375,3,2,749.165,0.1111111111111111,1,object_07,5,2175,0,1,4,forest_8,2,memory-2step-stake-s,679,2400309,0.0-18.0-0.1-0.189,4360,4,3
190,4,object_10,object_02,468.295,7,2,314.525,0.2222222222222222,1,object_07,1,2177,0,2,2,restaurant_13,2,memory-2step-stake-s,680,2408059,0.0-18.0-0.1-0.190,4360,8,7
191,2,object_01,object_05,400.935,4,2,483.98,0.2222222222222222,2,object_09,5,2187,0,2,2,forest_10,2,memory-2step-stake-s,681,2415979,0.0-18.0-0.1-0.191,4360,3,4
192,1,object_04,object_08,861.96,1,2,499.615,0.3333333333333333,1,object_07,5,2202,0,3,2,desert_21,2,memory-2step-stake-s,682,2424021,0.0-18.0-0.1-0.192,4360,2,1
193,3,object_03,object_06,365.65,5,2,505.295,0.4444444444444444,1,object_07,5,2222,0,4,5,library_22,2,memory-2step-stake-s,683,2432160,0.0-18.0-0.1-0.193,4360,6,5
194,4,object_02,object_10,393.505,8,2,467.645,0.7777777777777778,2,object_09,5,2257,0,5,7,restaurant_23,2,memory-2step-stake-s,684,2440571,0.0-18.0-0.1-0.194,4360,7,8
195,1,object_08,object_04,401.655,2,2,519.81,0.5555555555555556,2,object_09,5,2282,0,9,5,desert_1,2,memory-2step-stake-s,685,2448835,0.0-18.0-0.1-0.195,4360,1,2
196,3,object_06,object_03,339.94,6,2,406.155,0.4444444444444444,2,object_09,1,2286,0,7,4,library_13,2,memory-2step-stake-s,686,2456891,0.0-18.0-0.1-0.196,4360,5,6
197,3,object_03,object_06,432.995,5,2,473.11,0.7777777777777778,1,object_07,1,2293,0,7,3,library_29,2,memory-2step-stake-s,687,2465311,0.0-18.0-0.1-0.197,4360,6,5
198,3,object_03,object_06,368.665,5,2,921.225,0.6666666666666666,1,object_07,1,2299,0,6,2,library_7,2,memory-2step-stake-s,688,2474075,0.0-18.0-0.1-0.198,4360,6,5
199,4,object_10,object_02,377.98,7,2,434.52,0.4444444444444444,1,object_07,1,2303,0,4,0,restaurant_29,2,memory-2step-stake-s,689,2482144,0.0-18.0-0.1-0.199,4360,8,7
200,2,object_05,object_01,256.955,3,2,307.375,0.5555555555555556,1,object_07,5,2328,0,5,0,forest_28,2,memory-2step-stake-s,690,2490183,0.0-18.0-0.1-0.200,4360,4,3
201,3,object_06,object_03,701.85,5,1,122.885,0.3333333333333333,1,object_07,1,2331,0,3,2,library_20,2,memory-2step-stake-s,691,2497845,0.0-18.0-0.1-0.201,4360,5,6
202,3,object_06,object_03,395.92,6,2,528.87,0.0,2,object_09,1,2331,0,1,0,library_22,2,memory-2step-stake-s,692,2505600,0.0-18.0-0.1-0.202,4360,5,6
203,1,object_04,object_08,316.065,2,1,769.435,0.1111111111111111,2,object_09,1,2332,0,3,1,desert_9,2,memory-2step-stake-s,693,2513694,0.0-18.0-0.1-0.203,4360,2,1
204,2,object_05,object_01,441.955,3,2,518.645,0.3333333333333333,1,object_07,5,2347,0,3,1,forest_23,2,memory-2step-stake-s,694,2521749,0.0-18.0-0.1-0.204,4360,4,3
205,4,object_02,object_10,380.615,7,1,314.01,0.5555555555555556,1,object_07,5,2372,0,5,2,restaurant_22,2,memory-2step-stake-s,695,2529803,0.0-18.0-0.1-0.205,4360,7,8
206,2,object_01,object_05,681.77,3,1,534.985,0.2222222222222222,1,object_07,5,2382,0,2,7,forest_23,2,memory-2step-stake-s,696,2537765,0.0-18.0-0.1-0.206,4360,3,4
207,3,object_03,object_06,447.905,5,2,436.07,0.3333333333333333,1,object_07,1,2385,0,3,9,library_30,2,memory-2step-stake-s,697,2545737,0.0-18.0-0.1-0.207,4360,6,5
208,2,object_01,object_05,518.775,3,1,340.065,0.6666666666666666,1,object_07,5,2415,0,6,8,forest_1,2,memory-2step-stake-s,698,2553915,0.0-18.0-0.1-0.208,4360,3,4
209,3,object_03,object_06,493.115,5,2,366.405,1.0,1,object_07,1,2424,0,9,6,library_8,2,memory-2step-stake-s,699,2562437,0.0-18.0-0.1-0.209,4360,6,5
210,3,object_06,object_03,371.615,5,1,777.38,0.8888888888888888,1,object_07,1,2432,0,8,6,library_31,2,memory-2step-stake-s,700,2571259,0.0-18.0-0.1-0.210,4360,5,6
211,2,object_05,object_01,582.205,3,2,427.665,0.8888888888888888,1,object_07,5,2472,0,8,7,forest_17,2,memory-2step-stake-s,701,2579739,0.0-18.0-0.1-0.211,4360,4,3
212,1,object_04,object_08,616.975,2,1,707.475,1.0,2,object_09,1,2481,0,6,9,desert_8,2,memory-2step-stake-s,702,2588597,0.0-18.0-0.1-0.212,4360,2,1
213,4,object_10,object_02,674.75,8,1,535.57,0.8888888888888888,2,object_09,5,2521,0,6,8,restaurant_20,2,memory-2step-stake-s,703,2597173,0.0-18.0-0.1-0.213,4360,8,7
214,4,object_02,object_10,418.94,8,2,457.62,1.0,2,object_09,1,2530,0,8,9,restaurant_28,2,memory-2step-stake-s,704,2605765,0.0-18.0-0.1-0.214,4360,7,8
215,2,object_01,object_05,841.65,3,1,783.09,0.7777777777777778,1,object_07,5,2565,0,7,8,forest_8,2,memory-2step-stake-s,705,2614501,0.0-18.0-0.1-0.215,4360,3,4
216,3,object_06,object_03,610.7,6,2,880.155,1.0,2,object_09,1,2574,0,7,9,library_8,2,memory-2step-stake-s,706,2623531,0.0-18.0-0.1-0.216,4360,5,6
217,2,object_01,object_05,387.96,4,2,1076.095,0.8888888888888888,2,object_09,5,2614,0,6,8,forest_24,2,memory-2step-stake-s,707,2632656,0.0-18.0-0.1-0.217,4360,3,4
218,4,object_10,object_02,654.545,7,2,-1.0,0.0,1,object_07,1,2614,0,8,6,restaurant_14,2,memory-2step-stake-s,708,2641179,0.0-18.0-0.1-0.218,4360,8,7
219,3,object_06,object_03,861.425,6,2,577.63,0.3333333333333333,2,object_09,1,2617,0,6,3,library_18,2,memory-2step-stake-s,709,2649296,0.0-18.0-0.1-0.219,4360,5,6
220,4,object_02,object_10,465.515,8,2,714.52,0.1111111111111111,2,object_09,5,2622,0,4,1,restaurant_23,2,memory-2step-stake-s,710,2657347,0.0-18.0-0.1-0.220,4360,7,8
221,3,object_06,object_03,952.67,6,2,1107.345,0.1111111111111111,2,object_09,1,2623,0,5,1,library_12,2,memory-2step-stake-s,711,2665792,0.0-18.0-0.1-0.221,4360,5,6
222,1,object_08,object_04,522.945,2,2,938.125,0.1111111111111111,2,object_09,5,2628,0,7,1,desert_27,2,memory-2step-stake-s,712,2674064,0.0-18.0-0.1-0.222,4360,1,2
223,4,object_10,object_02,323.18,7,2,378.88,0.8888888888888888,1,object_07,1,2636,0,8,1,restaurant_11,2,memory-2step-stake-s,713,2682491,0.0-18.0-0.1-0.223,4360,8,7
224,3,object_06,object_03,491.825,6,2,526.99,0.3333333333333333,2,object_09,1,2639,0,7,3,library_22,2,memory-2step-stake-s,714,2690558,0.0-18.0-0.1-0.224,4360,5,6
225,2,object_01,object_05,693.145,4,2,380.825,0.2222222222222222,2,object_09,5,2649,0,8,2,forest_10,2,memory-2step-stake-s,715,2698371,0.0-18.0-0.1-0.225,4360,3,4
226,2,object_01,object_05,424.36,3,1,289.31,0.5555555555555556,1,object_07,5,2674,0,5,2,forest_1,2,memory-2step-stake-s,716,2706405,0.0-18.0-0.1-0.226,4360,3,4
227,2,object_01,object_05,804.05,4,2,482.565,0.4444444444444444,2,object_09,1,2678,0,7,4,forest_29,2,memory-2step-stake-s,717,2714528,0.0-18.0-0.1-0.227,4360,3,4
228,3,object_06,object_03,451.42,6,2,494.82,0.1111111111111111,2,object_09,1,2679,0,4,1,library_32,2,memory-2step-stake-s,718,2722352,0.0-18.0-0.1-0.228,4360,5,6
229,2,object_01,object_05,468.13,4,2,656.67,0.2222222222222222,2,object_09,5,2689,0,6,2,forest_10,2,memory-2step-stake-s,719,2730437,0.0-18.0-0.1-0.229,4360,3,4
230,1,object_08,object_04,814.01,1,1,391.165,0.5555555555555556,1,object_07,5,2714,0,5,1,desert_22,2,memory-2step-stake-s,720,2738566,0.0-18.0-0.1-0.230,4360,1,2
231,1,object_04,object_08,494.315,1,2,478.44,0.5555555555555556,1,object_07,5,2739,0,5,1,desert_16,2,memory-2step-stake-s,721,2746794,0.0-18.0-0.1-0.231,4360,2,1
232,2,object_01,object_05,379.14,3,1,475.83,0.6666666666666666,1,object_07,5,2769,0,6,1,forest_17,2,memory-2step-stake-s,722,2755115,0.0-18.0-0.1-0.232,4360,3,4
233,3,object_06,object_03,454.665,6,2,446.945,0.0,2,object_09,1,2769,0,2,0,library_7,2,memory-2step-stake-s,723,2762789,0.0-18.0-0.1-0.233,4360,5,6
234,3,object_06,object_03,253.73,6,2,399.665,0.0,2,object_09,1,2769,0,4,0,library_8,2,memory-2step-stake-s,724,2770411,0.0-18.0-0.1-0.234,4360,5,6
235,4,object_02,object_10,1312.395,7,1,578.115,0.3333333333333333,1,object_07,5,2784,0,3,1,restaurant_21,2,memory-2step-stake-s,725,2778528,0.0-18.0-0.1-0.235,4360,7,8
236,4,object_10,object_02,715.7,7,2,649.935,0.6666666666666666,1,object_07,1,2790,0,6,1,restaurant_25,2,memory-2step-stake-s,726,2787024,0.0-18.0-0.1-0.236,4360,8,7
237,3,object_06,object_03,805.665,5,1,484.8,0.3333333333333333,1,object_07,1,2793,0,3,2,library_31,2,memory-2step-stake-s,727,2795040,0.0-18.0-0.1-0.237,4360,5,6
238,1,object_04,object_08,454.355,1,2,-1.0,0.0,1,object_07,5,2793,0,3,3,desert_18,2,memory-2step-stake-s,728,2803568,0.0-18.0-0.1-0.238,4360,2,1
239,1,object_08,object_04,467.46,1,1,487.215,0.4444444444444444,1,object_07,5,2813,0,4,1,desert_22,2,memory-2step-stake-s,729,2811689,0.0-18.0-0.1-0.239,4360,1,2
240,3,object_06,object_03,825.23,5,1,389.585,0.3333333333333333,1,object_07,1,2816,0,3,1,library_29,2,memory-2step-stake-s,730,2819616,0.0-18.0-0.1-0.240,4360,5,6
241,3,object_06,object_03,530.48,5,1,505.94,0.3333333333333333,1,object_07,1,2819,0,3,2,library_18,2,memory-2step-stake-s,731,2827663,0.0-18.0-0.1-0.241,4360,5,6
242,4,object_10,object_02,492.24,8,1,544.59,0.5555555555555556,2,object_09,1,2824,0,4,5,restaurant_18,2,memory-2step-stake-s,732,2835946,0.0-18.0-0.1-0.242,4360,8,7
243,1,object_04,object_08,491.51,2,1,375.795,0.5555555555555556,2,object_09,5,2849,0,7,5,desert_8,2,memory-2step-stake-s,733,2844058,0.0-18.0-0.1-0.243,4360,2,1
244,1,object_04,object_08,373.815,1,2,540.76,0.7777777777777778,1,object_07,5,2884,0,7,4,desert_12,2,memory-2step-stake-s,734,2852548,0.0-18.0-0.1-0.244,4360,2,1
245,1,object_08,object_04,508.275,2,2,666.125,0.6666666666666666,2,object_09,1,2890,0,8,6,desert_22,2,memory-2step-stake-s,735,2861054,0.0-18.0-0.1-0.245,4360,1,2
246,4,object_10,object_02,499.14,7,2,468.615,0.6666666666666666,1,object_07,5,2920,0,6,4,restaurant_29,2,memory-2step-stake-s,736,2869370,0.0-18.0-0.1-0.246,4360,8,7
247,4,object_10,object_02,1293.655,8,1,577.795,0.5555555555555556,2,object_09,5,2945,0,8,5,restaurant_22,2,memory-2step-stake-s,737,2877691,0.0-18.0-0.1-0.247,4360,8,7
248,3,object_03,object_06,394.625,6,1,438.49,0.4444444444444444,2,object_09,1,2949,0,7,4,library_20,2,memory-2step-stake-s,738,2885768,0.0-18.0-0.1-0.248,4360,6,5
249,2,object_01,object_05,336.985,4,2,314.72,0.1111111111111111,2,object_09,1,2950,0,7,1,forest_17,2,memory-2step-stake-s,739,2893418,0.0-18.0-0.1-0.249,4360,3,4
250,1,object_08,object_04,416.275,2,2,455.655,0.5555555555555556,2,object_09,1,2955,0,7,5,desert_3,2,memory-2step-stake-s,740,2901626,0.0-18.0-0.1-0.250,4360,1,2
251,3,object_06,object_03,303.855,5,1,502.595,0.8888888888888888,1,object_07,5,2995,0,8,4,library_15,2,memory-2step-stake-s,741,2910170,0.0-18.0-0.1-0.251,4360,5,6
252,2,object_05,object_01,657.695,4,1,533.765,0.3333333333333333,2,object_09,5,3010,0,8,3,forest_20,2,memory-2step-stake-s,742,2918240,0.0-18.0-0.1-0.252,4360,4,3
253,3,object_03,object_06,329.105,6,1,408.045,0.6666666666666666,2,object_09,5,3040,0,7,6,library_8,2,memory-2step-stake-s,743,2926480,0.0-18.0-0.1-0.253,4360,6,5
254,4,object_10,object_02,773.575,8,1,750.73,0.6666666666666666,2,object_09,5,3070,0,7,6,restaurant_32,2,memory-2step-stake-s,744,2935072,0.0-18.0-0.1-0.254,4360,8,7
255,3,object_03,object_06,553.615,6,1,343.075,0.2222222222222222,2,object_09,1,3072,0,8,2,library_28,2,memory-2step-stake-s,745,2942842,0.0-18.0-0.1-0.255,4360,6,5
