,state1,stim_left,stim_right,rt_1,choice1,response1,rt_2,points,state2,stim_state2,stake,score,practice,rews1,rews2,background,high_arm,trial_type,trial_index,time_elapsed,internal_node_id,subid,stim_left_num,stim_right_num,high or low arm
0,3,object_02,object_05,648.0,6,2,445.0,0.0,2,object_04,1,0,0,0,0,library_11,2,memory-2step-stake-s,487,845765,0.0-18.0-0.0-0.0,1333,5,6,low
1,3,object_05,object_02,623.0,6,1,395.0,0.2222222222222222,2,object_04,1,2,0,1,2,library_14,2,memory-2step-stake-s,488,853577,0.0-18.0-0.0-0.1,1333,6,5,low
2,1,object_10,object_08,698.0,1,1,398.0,0.2222222222222222,1,object_01,5,12,0,2,2,desert_14,2,memory-2step-stake-s,489,861395,0.0-18.0-0.0-0.2,1333,1,2,high
3,4,object_09,object_06,856.0,7,2,620.0,0.5555555555555556,1,object_01,5,37,0,5,2,restaurant_30,2,memory-2step-stake-s,490,869734,0.0-18.0-0.0-0.3,1333,8,7,low
4,4,object_06,object_09,562.0,7,1,558.0,0.1111111111111111,1,object_01,1,38,0,1,5,restaurant_14,2,memory-2step-stake-s,491,877607,0.0-18.0-0.0-0.4,1333,7,8,low
5,2,object_07,object_03,963.0,4,2,545.0,0.2222222222222222,2,object_04,5,48,0,3,2,forest_6,2,memory-2step-stake-s,492,885568,0.0-18.0-0.0-0.5,1333,3,4,high
6,4,object_06,object_09,714.0,7,1,383.0,0.5555555555555556,1,object_01,1,53,0,5,2,restaurant_12,2,memory-2step-stake-s,493,893672,0.0-18.0-0.0-0.6,1333,7,8,low
7,2,object_03,object_07,622.0,3,2,388.0,0.5555555555555556,1,object_01,5,78,0,5,2,forest_29,2,memory-2step-stake-s,494,901783,0.0-18.0-0.0-0.7,1333,4,3,high
8,3,object_02,object_05,627.0,5,1,316.0,0.6666666666666666,1,object_01,1,84,0,6,1,library_18,2,memory-2step-stake-s,495,909922,0.0-18.0-0.0-0.8,1333,5,6,low
9,3,object_05,object_02,578.0,5,2,323.0,0.4444444444444444,1,object_01,1,88,0,4,1,library_1,2,memory-2step-stake-s,496,917865,0.0-18.0-0.0-0.9,1333,6,5,low
10,3,object_05,object_02,536.0,5,2,567.0,0.4444444444444444,1,object_01,1,92,0,4,3,library_26,2,memory-2step-stake-s,497,926048,0.0-18.0-0.0-0.10,1333,6,5,low
11,4,object_06,object_09,544.0,7,1,410.0,0.5555555555555556,1,object_01,1,97,0,5,2,restaurant_16,2,memory-2step-stake-s,498,934183,0.0-18.0-0.0-0.11,1333,7,8,low
12,1,object_10,object_08,774.0,1,1,433.0,0.2222222222222222,1,object_01,1,99,0,2,1,desert_30,2,memory-2step-stake-s,499,942034,0.0-18.0-0.0-0.12,1333,1,2,high
13,3,object_02,object_05,621.0,5,1,655.0,0.5555555555555556,1,object_01,1,104,0,5,2,library_15,2,memory-2step-stake-s,500,950411,0.0-18.0-0.0-0.13,1333,5,6,low
14,2,object_07,object_03,547.0,3,1,428.0,0.5555555555555556,1,object_01,5,129,0,5,3,forest_15,2,memory-2step-stake-s,501,958560,0.0-18.0-0.0-0.14,1333,3,4,high
15,1,object_10,object_08,772.0,2,2,638.0,0.3333333333333333,2,object_04,5,144,0,5,3,desert_14,2,memory-2step-stake-s,502,966715,0.0-18.0-0.0-0.15,1333,1,2,high
16,4,object_09,object_06,661.0,7,2,440.0,0.7777777777777778,1,object_01,5,179,0,7,2,restaurant_15,2,memory-2step-stake-s,503,975078,0.0-18.0-0.0-0.16,1333,8,7,low
17,1,object_10,object_08,956.0,1,1,441.0,0.4444444444444444,1,object_01,5,199,0,4,4,desert_12,2,memory-2step-stake-s,504,983138,0.0-18.0-0.0-0.17,1333,1,2,high
18,1,object_08,object_10,1123.0,1,2,407.0,0.4444444444444444,1,object_01,5,219,0,4,6,desert_27,2,memory-2step-stake-s,505,991166,0.0-18.0-0.0-0.18,1333,2,1,high
19,4,object_06,object_09,553.0,7,1,390.0,0.5555555555555556,1,object_01,1,224,0,5,5,restaurant_32,2,memory-2step-stake-s,506,999279,0.0-18.0-0.0-0.19,1333,7,8,low
20,3,object_05,object_02,649.0,5,2,434.0,0.2222222222222222,1,object_01,1,226,0,2,5,library_15,2,memory-2step-stake-s,507,1007127,0.0-18.0-0.0-0.20,1333,6,5,low
21,2,object_03,object_07,596.0,3,2,385.0,0.0,1,object_01,5,226,0,0,5,forest_14,2,memory-2step-stake-s,508,1014727,0.0-18.0-0.0-0.21,1333,4,3,high
22,3,object_02,object_05,1084.0,6,2,346.0,0.2222222222222222,2,object_04,5,236,0,1,2,library_6,2,memory-2step-stake-s,509,1022488,0.0-18.0-0.0-0.22,1333,5,6,low
23,1,object_08,object_10,753.0,1,2,310.0,0.3333333333333333,1,object_01,5,251,0,3,3,desert_19,2,memory-2step-stake-s,510,1030316,0.0-18.0-0.0-0.23,1333,2,1,high
24,4,object_06,object_09,866.0,8,2,337.0,0.3333333333333333,2,object_04,1,254,0,3,3,restaurant_30,2,memory-2step-stake-s,511,1038172,0.0-18.0-0.0-0.24,1333,7,8,low
25,2,object_03,object_07,849.0,3,2,325.0,0.5555555555555556,1,object_01,5,279,0,5,1,forest_8,2,memory-2step-stake-s,512,1046218,0.0-18.0-0.0-0.25,1333,4,3,high
26,3,object_05,object_02,671.0,5,2,714.0,0.6666666666666666,1,object_01,1,285,0,6,4,library_21,2,memory-2step-stake-s,513,1054752,0.0-18.0-0.0-0.26,1333,6,5,low
27,1,object_10,object_08,767.0,1,1,374.0,0.6666666666666666,1,object_01,5,315,0,6,5,desert_13,2,memory-2step-stake-s,514,1062944,0.0-18.0-0.0-0.27,1333,1,2,high
28,3,object_02,object_05,529.0,5,1,818.0,0.6666666666666666,1,object_01,1,321,0,6,9,library_15,2,memory-2step-stake-s,515,1071582,0.0-18.0-0.0-0.28,1333,5,6,low
29,3,object_02,object_05,540.0,5,1,526.0,0.5555555555555556,1,object_01,1,326,0,5,8,library_11,2,memory-2step-stake-s,516,1079833,0.0-18.0-0.0-0.29,1333,5,6,low
30,1,object_10,object_08,809.0,1,1,522.0,0.3333333333333333,1,object_01,5,341,0,3,6,desert_22,2,memory-2step-stake-s,517,1087873,0.0-18.0-0.0-0.30,1333,1,2,high
31,3,object_05,object_02,670.0,5,2,325.0,0.3333333333333333,1,object_01,5,356,0,3,8,library_3,2,memory-2step-stake-s,518,1095714,0.0-18.0-0.0-0.31,1333,6,5,low
32,3,object_02,object_05,978.0,5,1,-1.0,0.0,1,object_01,1,356,0,4,7,library_18,2,memory-2step-stake-s,519,1104230,0.0-18.0-0.0-0.32,1333,5,6,low
33,2,object_03,object_07,763.0,3,2,579.0,0.2222222222222222,1,object_01,5,366,0,2,8,forest_15,2,memory-2step-stake-s,520,1112227,0.0-18.0-0.0-0.33,1333,4,3,high
34,2,object_03,object_07,580.0,3,2,381.0,0.2222222222222222,1,object_01,5,376,0,2,7,forest_28,2,memory-2step-stake-s,521,1120025,0.0-18.0-0.0-0.34,1333,4,3,high
35,1,object_08,object_10,597.0,1,2,558.0,0.0,1,object_01,5,376,0,0,7,desert_7,2,memory-2step-stake-s,522,1127797,0.0-18.0-0.0-0.35,1333,2,1,high
36,4,object_06,object_09,827.0,7,1,572.0,0.3333333333333333,1,object_01,1,379,0,3,7,restaurant_14,2,memory-2step-stake-s,523,1135887,0.0-18.0-0.0-0.36,1333,7,8,low
37,4,object_09,object_06,848.0,8,1,431.0,0.4444444444444444,2,object_04,1,383,0,1,4,restaurant_9,2,memory-2step-stake-s,524,1143942,0.0-18.0-0.0-0.37,1333,8,7,low
38,2,object_03,object_07,547.0,4,1,312.0,0.4444444444444444,2,object_04,5,403,0,2,4,forest_27,2,memory-2step-stake-s,525,1151872,0.0-18.0-0.0-0.38,1333,4,3,high
39,4,object_09,object_06,557.0,7,2,303.0,0.2222222222222222,1,object_01,5,413,0,2,4,restaurant_32,2,memory-2step-stake-s,526,1159592,0.0-18.0-0.0-0.39,1333,8,7,low
40,2,object_07,object_03,914.0,3,1,507.0,0.1111111111111111,1,object_01,5,418,0,1,7,forest_12,2,memory-2step-stake-s,527,1167412,0.0-18.0-0.0-0.40,1333,3,4,high
41,1,object_08,object_10,911.0,2,1,356.0,0.7777777777777778,2,object_04,5,453,0,2,7,desert_8,2,memory-2step-stake-s,528,1175693,0.0-18.0-0.0-0.41,1333,2,1,high
42,4,object_09,object_06,610.0,7,2,331.0,0.1111111111111111,1,object_01,1,454,0,1,5,restaurant_22,2,memory-2step-stake-s,529,1183338,0.0-18.0-0.0-0.42,1333,8,7,low
43,1,object_10,object_08,1205.0,2,2,385.0,0.5555555555555556,2,object_04,5,479,0,3,5,desert_9,2,memory-2step-stake-s,530,1191444,0.0-18.0-0.0-0.43,1333,1,2,high
44,4,object_06,object_09,844.0,7,1,321.0,0.5555555555555556,1,object_01,5,504,0,5,4,restaurant_2,2,memory-2step-stake-s,531,1199488,0.0-18.0-0.0-0.44,1333,7,8,low
45,1,object_10,object_08,961.0,2,2,346.0,0.2222222222222222,2,object_04,5,514,0,4,2,desert_29,2,memory-2step-stake-s,532,1207251,0.0-18.0-0.0-0.45,1333,1,2,high
46,1,object_10,object_08,510.0,2,2,324.0,0.4444444444444444,2,object_04,5,534,0,1,4,desert_14,2,memory-2step-stake-s,533,1215193,0.0-18.0-0.0-0.46,1333,1,2,high
47,1,object_10,object_08,498.0,2,2,313.0,0.6666666666666666,2,object_04,5,564,0,3,6,desert_13,2,memory-2step-stake-s,534,1223330,0.0-18.0-0.0-0.47,1333,1,2,high
48,2,object_07,object_03,993.0,4,2,403.0,0.8888888888888888,2,object_04,5,604,0,6,8,forest_18,2,memory-2step-stake-s,535,1231758,0.0-18.0-0.0-0.48,1333,3,4,high
49,4,object_06,object_09,842.0,7,1,332.0,0.8888888888888888,1,object_01,1,612,0,8,9,restaurant_26,2,memory-2step-stake-s,536,1240114,0.0-18.0-0.0-0.49,1333,7,8,low
50,1,object_10,object_08,448.0,2,2,370.0,0.6666666666666666,2,object_04,5,642,0,9,6,desert_20,2,memory-2step-stake-s,537,1248304,0.0-18.0-0.0-0.50,1333,1,2,high
51,2,object_07,object_03,766.0,3,1,310.0,0.8888888888888888,1,object_01,5,682,0,8,5,forest_12,2,memory-2step-stake-s,538,1256637,0.0-18.0-0.0-0.51,1333,3,4,high
52,2,object_03,object_07,759.0,3,2,290.0,0.8888888888888888,1,object_01,5,722,0,8,5,forest_27,2,memory-2step-stake-s,539,1264954,0.0-18.0-0.0-0.52,1333,4,3,high
53,3,object_05,object_02,716.0,6,1,338.0,0.5555555555555556,2,object_04,1,727,0,9,5,library_27,2,memory-2step-stake-s,540,1273013,0.0-18.0-0.0-0.53,1333,6,5,low
54,2,object_03,object_07,663.0,3,2,303.0,0.8888888888888888,1,object_01,5,767,0,8,1,forest_29,2,memory-2step-stake-s,541,1281341,0.0-18.0-0.0-0.54,1333,4,3,high
55,4,object_09,object_06,629.0,8,1,379.0,0.1111111111111111,2,object_04,1,768,0,6,1,restaurant_14,2,memory-2step-stake-s,542,1289034,0.0-18.0-0.0-0.55,1333,8,7,low
56,1,object_08,object_10,523.0,2,1,322.0,0.0,2,object_04,5,768,0,7,0,desert_20,2,memory-2step-stake-s,543,1296572,0.0-18.0-0.0-0.56,1333,2,1,high
57,1,object_10,object_08,757.0,2,2,292.0,0.0,2,object_04,1,768,0,7,0,desert_7,2,memory-2step-stake-s,544,1304078,0.0-18.0-0.0-0.57,1333,1,2,high
58,3,object_02,object_05,728.0,5,1,309.0,0.3333333333333333,1,object_01,5,783,0,3,2,library_11,2,memory-2step-stake-s,545,1311903,0.0-18.0-0.0-0.58,1333,5,6,low
59,4,object_06,object_09,635.0,7,1,472.0,0.4444444444444444,1,object_01,1,787,0,4,1,restaurant_22,2,memory-2step-stake-s,546,1319990,0.0-18.0-0.0-0.59,1333,7,8,low
60,2,object_07,object_03,767.0,4,2,302.0,0.1111111111111111,2,object_04,5,792,0,4,1,forest_19,2,memory-2step-stake-s,547,1327605,0.0-18.0-0.0-0.60,1333,3,4,high
61,1,object_10,object_08,483.0,2,2,396.0,0.0,2,object_04,5,792,0,5,0,desert_17,2,memory-2step-stake-s,548,1335213,0.0-18.0-0.0-0.61,1333,1,2,high
62,4,object_06,object_09,546.0,7,1,37.0,0.3333333333333333,1,object_01,1,795,0,3,0,restaurant_17,2,memory-2step-stake-s,549,1342765,0.0-18.0-0.0-0.62,1333,7,8,low
63,3,object_02,object_05,552.0,6,2,434.0,0.2222222222222222,2,object_04,1,797,0,1,2,library_14,2,memory-2step-stake-s,550,1350613,0.0-18.0-0.0-0.63,1333,5,6,low
64,4,object_09,object_06,694.0,7,2,374.0,0.1111111111111111,1,object_01,1,798,0,1,1,restaurant_31,2,memory-2step-stake-s,551,1358299,0.0-18.0-0.0-0.64,1333,8,7,low
65,4,object_06,object_09,409.0,7,1,297.0,0.4444444444444444,1,object_01,1,802,0,4,2,restaurant_17,2,memory-2step-stake-s,552,1366215,0.0-18.0-0.0-0.65,1333,7,8,low
66,3,object_02,object_05,719.0,6,2,282.0,0.3333333333333333,2,object_04,5,817,0,5,3,library_25,2,memory-2step-stake-s,553,1374016,0.0-18.0-0.0-0.66,1333,5,6,low
67,2,object_07,object_03,1214.0,4,2,372.0,0.5555555555555556,2,object_04,5,842,0,3,5,forest_20,2,memory-2step-stake-s,554,1382105,0.0-18.0-0.0-0.67,1333,3,4,high
68,2,object_03,object_07,1032.0,4,1,360.0,0.3333333333333333,2,object_04,1,845,0,4,3,forest_19,2,memory-2step-stake-s,555,1389980,0.0-18.0-0.0-0.68,1333,4,3,high
69,4,object_06,object_09,1086.0,7,1,366.0,0.6666666666666666,1,object_01,1,851,0,6,3,restaurant_12,2,memory-2step-stake-s,556,1398172,0.0-18.0-0.0-0.69,1333,7,8,low
70,1,object_08,object_10,845.0,2,1,305.0,0.4444444444444444,2,object_04,1,855,0,6,4,desert_13,2,memory-2step-stake-s,557,1406096,0.0-18.0-0.0-0.70,1333,2,1,high
71,1,object_10,object_08,498.0,2,2,308.0,0.4444444444444444,2,object_04,5,875,0,3,4,desert_25,2,memory-2step-stake-s,558,1414023,0.0-18.0-0.0-0.71,1333,1,2,high
72,3,object_02,object_05,758.0,5,1,376.0,0.2222222222222222,1,object_01,1,877,0,2,4,library_12,2,memory-2step-stake-s,559,1421814,0.0-18.0-0.0-0.72,1333,5,6,low
73,2,object_07,object_03,663.0,4,2,386.0,0.4444444444444444,2,object_04,5,897,0,2,4,forest_19,2,memory-2step-stake-s,560,1429820,0.0-18.0-0.0-0.73,1333,3,4,high
74,4,object_09,object_06,1128.0,8,1,387.0,0.1111111111111111,2,object_04,1,898,0,1,1,restaurant_14,2,memory-2step-stake-s,561,1437525,0.0-18.0-0.0-0.74,1333,8,7,low
75,2,object_07,object_03,875.0,3,1,349.0,0.1111111111111111,1,object_01,5,903,0,1,1,forest_14,2,memory-2step-stake-s,562,1445189,0.0-18.0-0.0-0.75,1333,3,4,high
76,2,object_03,object_07,506.0,3,2,479.0,0.2222222222222222,1,object_01,5,913,0,2,2,forest_29,2,memory-2step-stake-s,563,1453083,0.0-18.0-0.0-0.76,1333,4,3,high
77,2,object_07,object_03,577.0,3,1,507.0,0.0,1,object_01,1,913,0,0,3,forest_6,2,memory-2step-stake-s,564,1460803,0.0-18.0-0.0-0.77,1333,3,4,high
78,3,object_05,object_02,686.0,6,1,299.0,0.1111111111111111,2,object_04,1,914,0,3,1,library_22,2,memory-2step-stake-s,565,1468416,0.0-18.0-0.0-0.78,1333,6,5,low
79,3,object_02,object_05,799.0,6,2,413.0,0.0,2,object_04,5,914,0,4,0,library_21,2,memory-2step-stake-s,566,1476045,0.0-18.0-0.0-0.79,1333,5,6,low
80,4,object_09,object_06,620.0,7,2,473.0,0.8888888888888888,1,object_01,1,922,0,8,2,restaurant_1,2,memory-2step-stake-s,567,1484543,0.0-18.0-0.0-0.80,1333,8,7,low
81,1,object_08,object_10,686.0,2,1,301.0,0.0,2,object_04,5,922,0,8,0,desert_8,2,memory-2step-stake-s,568,1492057,0.0-18.0-0.0-0.81,1333,2,1,high
82,3,object_05,object_02,1136.0,5,2,579.0,1.0,1,object_01,5,967,0,9,0,library_15,2,memory-2step-stake-s,569,1500762,0.0-18.0-0.0-0.82,1333,6,5,low
83,2,object_07,object_03,944.0,3,1,380.0,0.7777777777777778,1,object_01,5,1002,0,7,0,forest_7,2,memory-2step-stake-s,570,1509066,0.0-18.0-0.0-0.83,1333,3,4,high
84,4,object_09,object_06,728.0,8,1,270.0,0.1111111111111111,2,object_04,1,1003,0,6,1,restaurant_31,2,memory-2step-stake-s,571,1516649,0.0-18.0-0.0-0.84,1333,8,7,low
85,1,object_10,object_08,901.0,2,2,339.0,0.0,2,object_04,5,1003,0,8,0,desert_29,2,memory-2step-stake-s,572,1524200,0.0-18.0-0.0-0.85,1333,1,2,high
86,4,object_09,object_06,536.0,7,2,281.0,1.0,1,object_01,1,1012,0,9,2,restaurant_1,2,memory-2step-stake-s,573,1532607,0.0-18.0-0.0-0.86,1333,8,7,low
87,1,object_10,object_08,1151.0,1,1,338.0,0.8888888888888888,1,object_01,1,1020,0,8,0,desert_7,2,memory-2step-stake-s,574,1540967,0.0-18.0-0.0-0.87,1333,1,2,high
88,2,object_03,object_07,578.0,3,2,337.0,0.6666666666666666,1,object_01,5,1050,0,6,1,forest_1,2,memory-2step-stake-s,575,1549131,0.0-18.0-0.0-0.88,1333,4,3,high
89,2,object_07,object_03,652.0,3,1,383.0,0.6666666666666666,1,object_01,5,1080,0,6,1,forest_1,2,memory-2step-stake-s,576,1557334,0.0-18.0-0.0-0.89,1333,3,4,high
90,2,object_07,object_03,-1.0,-1,-1,-1.0,0.0,-,,5,1080,0,4,1,forest_14,2,memory-2step-stake-s,577,1563843,0.0-18.0-0.0-0.90,1333,3,4,high
91,4,object_06,object_09,641.0,8,2,346.0,0.3333333333333333,2,object_04,5,1095,0,2,3,restaurant_12,2,memory-2step-stake-s,578,1571705,0.0-18.0-0.0-0.91,1333,7,8,low
92,4,object_06,object_09,427.0,7,1,689.0,0.3333333333333333,1,object_01,1,1098,0,3,4,restaurant_12,2,memory-2step-stake-s,579,1579912,0.0-18.0-0.0-0.92,1333,7,8,low
93,3,object_05,object_02,662.0,6,1,352.0,0.4444444444444444,2,object_04,1,1102,0,3,4,library_10,2,memory-2step-stake-s,580,1587883,0.0-18.0-0.0-0.93,1333,6,5,low
94,1,object_08,object_10,-1.0,-1,-1,-1.0,0.0,-,,5,1102,0,6,1,desert_9,2,memory-2step-stake-s,581,1594389,0.0-18.0-0.0-0.94,1333,2,1,high
95,4,object_09,object_06,591.0,7,2,531.0,0.6666666666666666,1,object_01,1,1108,0,6,1,restaurant_16,2,memory-2step-stake-s,582,1602741,0.0-18.0-0.0-0.95,1333,8,7,low
96,3,object_05,object_02,1113.0,6,1,614.0,0.5555555555555556,2,object_04,1,1113,0,6,5,library_29,2,memory-2step-stake-s,583,1611078,0.0-18.0-0.0-0.96,1333,6,5,low
97,2,object_03,object_07,429.0,3,2,292.0,0.8888888888888888,1,object_01,5,1153,0,8,4,forest_30,2,memory-2step-stake-s,584,1619395,0.0-18.0-0.0-0.97,1333,4,3,high
98,3,object_05,object_02,938.0,6,1,583.0,0.0,2,object_04,1,1153,0,8,0,library_6,2,memory-2step-stake-s,585,1627191,0.0-18.0-0.0-0.98,1333,6,5,low
99,2,object_03,object_07,614.0,4,1,374.0,0.1111111111111111,2,object_04,5,1158,0,6,1,forest_20,2,memory-2step-stake-s,586,1634880,0.0-18.0-0.0-0.99,1333,4,3,high
100,1,object_10,object_08,857.0,1,1,304.0,0.8888888888888888,1,object_01,5,1198,0,8,2,desert_27,2,memory-2step-stake-s,587,1643211,0.0-18.0-0.0-0.100,1333,1,2,high
101,4,object_09,object_06,766.0,8,1,235.0,0.3333333333333333,2,object_04,1,1201,0,8,3,restaurant_4,2,memory-2step-stake-s,588,1650965,0.0-18.0-0.0-0.101,1333,8,7,low
102,3,object_05,object_02,649.0,5,2,274.0,0.7777777777777778,1,object_01,1,1208,0,7,0,library_12,2,memory-2step-stake-s,589,1659160,0.0-18.0-0.0-0.102,1333,6,5,low
103,4,object_06,object_09,-1.0,-1,-1,-1.0,0.0,-,,1,1208,0,5,2,restaurant_22,2,memory-2step-stake-s,590,1665671,0.0-18.0-0.0-0.103,1333,7,8,low
104,2,object_07,object_03,643.0,4,2,248.0,0.3333333333333333,2,object_04,5,1223,0,5,3,forest_18,2,memory-2step-stake-s,591,1673436,0.0-18.0-0.0-0.104,1333,3,4,high
105,2,object_07,object_03,837.0,3,1,272.0,0.4444444444444444,1,object_01,5,1243,0,4,5,forest_15,2,memory-2step-stake-s,592,1681329,0.0-18.0-0.0-0.105,1333,3,4,high
106,1,object_10,object_08,659.0,1,1,304.0,0.2222222222222222,1,object_01,5,1253,0,2,2,desert_27,2,memory-2step-stake-s,593,1689049,0.0-18.0-0.0-0.106,1333,1,2,high
107,2,object_03,object_07,1224.0,3,2,568.0,0.5555555555555556,1,object_01,1,1258,0,5,1,forest_21,2,memory-2step-stake-s,594,1697337,0.0-18.0-0.0-0.107,1333,4,3,high
108,4,object_09,object_06,505.0,8,1,582.0,0.0,2,object_04,1,1258,0,6,0,restaurant_28,2,memory-2step-stake-s,595,1705135,0.0-18.0-0.0-0.108,1333,8,7,low
109,2,object_03,object_07,424.0,3,2,363.0,0.8888888888888888,1,object_01,5,1298,0,8,0,forest_28,2,memory-2step-stake-s,596,1713522,0.0-18.0-0.0-0.109,1333,4,3,high
110,4,object_06,object_09,1395.0,7,1,665.0,0.7777777777777778,1,object_01,1,1305,0,7,2,restaurant_15,2,memory-2step-stake-s,597,1722107,0.0-18.0-0.0-0.110,1333,7,8,low
111,4,object_09,object_06,629.0,8,1,477.0,0.3333333333333333,2,object_04,1,1308,0,6,3,restaurant_16,2,memory-2step-stake-s,598,1730103,0.0-18.0-0.0-0.111,1333,8,7,low
112,4,object_06,object_09,671.0,8,2,996.0,0.4444444444444444,2,object_04,1,1312,0,8,4,restaurant_29,2,memory-2step-stake-s,599,1738718,0.0-18.0-0.0-0.112,1333,7,8,low
113,1,object_08,object_10,588.0,2,1,558.0,0.4444444444444444,2,object_04,5,1332,0,7,4,desert_24,2,memory-2step-stake-s,600,1746895,0.0-18.0-0.0-0.113,1333,2,1,high
114,2,object_07,object_03,699.0,3,1,423.0,0.5555555555555556,1,object_01,1,1337,0,5,1,forest_27,2,memory-2step-stake-s,601,1755040,0.0-18.0-0.0-0.114,1333,3,4,high
115,1,object_08,object_10,974.0,2,1,459.0,0.3333333333333333,2,object_04,5,1352,0,3,3,desert_9,2,memory-2step-stake-s,602,1763016,0.0-18.0-0.0-0.115,1333,2,1,high
116,3,object_05,object_02,796.0,5,2,286.0,0.0,1,object_01,5,1352,0,0,0,library_10,2,memory-2step-stake-s,603,1770516,0.0-18.0-0.0-0.116,1333,6,5,low
117,3,object_02,object_05,526.0,5,1,305.0,0.2222222222222222,1,object_01,1,1354,0,2,3,library_27,2,memory-2step-stake-s,604,1778239,0.0-18.0-0.0-0.117,1333,5,6,low
118,1,object_08,object_10,653.0,2,1,677.0,0.3333333333333333,2,object_04,5,1369,0,1,3,desert_24,2,memory-2step-stake-s,605,1786434,0.0-18.0-0.0-0.118,1333,2,1,high
119,2,object_07,object_03,934.0,3,1,1031.0,0.1111111111111111,1,object_01,5,1374,0,1,3,forest_12,2,memory-2step-stake-s,606,1794778,0.0-18.0-0.0-0.119,1333,3,4,high
120,2,object_07,object_03,439.0,3,1,365.0,0.3333333333333333,1,object_01,5,1389,0,3,2,forest_1,2,memory-2step-stake-s,607,1802659,0.0-18.0-0.0-0.120,1333,3,4,high
121,4,object_09,object_06,1047.0,7,2,330.0,0.1111111111111111,1,object_01,1,1390,0,1,4,restaurant_29,2,memory-2step-stake-s,608,1810308,0.0-18.0-0.0-0.121,1333,8,7,low
122,1,object_08,object_10,1070.0,1,2,227.0,0.1111111111111111,1,object_01,5,1395,0,1,5,desert_29,2,memory-2step-stake-s,609,1817851,0.0-18.0-0.0-0.122,1333,2,1,high
123,2,object_03,object_07,957.0,3,2,418.0,0.2222222222222222,1,object_01,1,1397,0,2,6,forest_21,2,memory-2step-stake-s,610,1825685,0.0-18.0-0.0-0.123,1333,4,3,high
124,3,object_05,object_02,506.0,6,1,749.0,1.0,2,object_04,5,1442,0,2,9,library_13,2,memory-2step-stake-s,611,1834561,0.0-18.0-0.0-0.124,1333,6,5,low
125,1,object_08,object_10,612.0,2,1,324.0,0.8888888888888888,2,object_04,5,1482,0,0,8,desert_30,2,memory-2step-stake-s,612,1842904,0.0-18.0-0.0-0.125,1333,2,1,high
126,2,object_03,object_07,1062.0,3,2,320.0,0.2222222222222222,1,object_01,5,1492,0,2,8,forest_30,2,memory-2step-stake-s,613,1850643,0.0-18.0-0.0-0.126,1333,4,3,high
127,3,object_05,object_02,705.0,6,1,266.0,0.8888888888888888,2,object_04,1,1500,0,0,8,library_18,2,memory-2step-stake-s,614,1858934,0.0-18.0-0.0-0.127,1333,6,5,low
128,3,object_02,object_05,784.0,6,2,349.0,0.7777777777777778,2,object_04,1,1507,0,0,7,library_10,2,memory-2step-stake-s,616,2052693,0.0-18.0-0.1-0.128,1333,5,6,low
129,4,object_06,object_09,652.0,7,1,577.0,0.2222222222222222,1,object_01,1,1509,0,2,7,restaurant_9,2,memory-2step-stake-s,617,2060685,0.0-18.0-0.1-0.129,1333,7,8,low
130,1,object_10,object_08,1102.0,2,2,497.0,0.8888888888888888,2,object_04,5,1549,0,3,8,desert_22,2,memory-2step-stake-s,618,2069205,0.0-18.0-0.1-0.130,1333,1,2,high
131,1,object_08,object_10,581.0,2,1,-1.0,0.0,2,object_04,5,1549,0,3,7,desert_22,2,memory-2step-stake-s,619,2077723,0.0-18.0-0.1-0.131,1333,2,1,high
132,3,object_02,object_05,707.0,6,2,128.0,0.5555555555555556,2,object_04,1,1554,0,1,5,library_1,2,memory-2step-stake-s,620,2085573,0.0-18.0-0.1-0.132,1333,5,6,low
133,3,object_05,object_02,380.0,6,1,313.0,0.5555555555555556,2,object_04,1,1559,0,0,5,library_1,2,memory-2step-stake-s,621,2093608,0.0-18.0-0.1-0.133,1333,6,5,low
134,1,object_10,object_08,784.0,2,2,425.0,0.5555555555555556,2,object_04,5,1584,0,0,5,desert_12,2,memory-2step-stake-s,622,2101755,0.0-18.0-0.1-0.134,1333,1,2,high
135,2,object_07,object_03,722.0,3,1,842.0,0.1111111111111111,1,object_01,5,1589,0,1,4,forest_21,2,memory-2step-stake-s,623,2109912,0.0-18.0-0.1-0.135,1333,3,4,high
136,1,object_10,object_08,909.0,2,2,416.0,0.5555555555555556,2,object_04,5,1614,0,1,5,desert_12,2,memory-2step-stake-s,624,2118050,0.0-18.0-0.1-0.136,1333,1,2,high
137,3,object_05,object_02,1020.0,5,2,385.0,0.1111111111111111,1,object_01,1,1615,0,1,6,library_14,2,memory-2step-stake-s,625,2125748,0.0-18.0-0.1-0.137,1333,6,5,low
138,4,object_06,object_09,634.0,8,2,384.0,0.7777777777777778,2,object_04,1,1622,0,3,7,restaurant_29,2,memory-2step-stake-s,626,2134055,0.0-18.0-0.1-0.138,1333,7,8,low
139,4,object_06,object_09,909.0,7,1,290.0,0.4444444444444444,1,object_01,1,1626,0,4,5,restaurant_16,2,memory-2step-stake-s,627,2141966,0.0-18.0-0.1-0.139,1333,7,8,low
140,3,object_02,object_05,797.0,6,2,486.0,0.2222222222222222,2,object_04,1,1628,0,2,2,library_6,2,memory-2step-stake-s,628,2149870,0.0-18.0-0.1-0.140,1333,5,6,low
141,2,object_03,object_07,647.0,3,2,162.0,0.2222222222222222,1,object_01,5,1638,0,2,2,forest_7,2,memory-2step-stake-s,629,2157449,0.0-18.0-0.1-0.141,1333,4,3,high
142,3,object_02,object_05,366.0,6,2,356.0,0.0,2,object_04,1,1638,0,1,0,library_11,2,memory-2step-stake-s,630,2165022,0.0-18.0-0.1-0.142,1333,5,6,low
143,1,object_10,object_08,893.0,1,1,229.0,0.4444444444444444,1,object_01,5,1658,0,4,1,desert_19,2,memory-2step-stake-s,631,2172870,0.0-18.0-0.1-0.143,1333,1,2,high
144,2,object_03,object_07,999.0,3,2,179.0,0.5555555555555556,1,object_01,5,1683,0,5,1,forest_20,2,memory-2step-stake-s,632,2180769,0.0-18.0-0.1-0.144,1333,4,3,high
145,3,object_02,object_05,729.0,6,2,343.0,0.0,2,object_04,1,1683,0,4,0,library_29,2,memory-2step-stake-s,633,2188325,0.0-18.0-0.1-0.145,1333,5,6,low
146,3,object_05,object_02,759.0,6,1,230.0,0.0,2,object_04,1,1683,0,6,0,library_10,2,memory-2step-stake-s,634,2195772,0.0-18.0-0.1-0.146,1333,6,5,low
147,4,object_09,object_06,524.0,8,1,491.0,0.2222222222222222,2,object_04,1,1685,0,8,2,restaurant_26,2,memory-2step-stake-s,635,2203680,0.0-18.0-0.1-0.147,1333,8,7,low
148,1,object_10,object_08,649.0,1,1,324.0,0.5555555555555556,1,object_01,5,1710,0,5,2,desert_19,2,memory-2step-stake-s,636,2211720,0.0-18.0-0.1-0.148,1333,1,2,high
149,2,object_03,object_07,566.0,3,2,451.0,0.8888888888888888,1,object_01,5,1750,0,8,1,forest_8,2,memory-2step-stake-s,637,2220195,0.0-18.0-0.1-0.149,1333,4,3,high
150,1,object_10,object_08,991.0,2,2,309.0,0.1111111111111111,2,object_04,5,1755,0,6,1,desert_12,2,memory-2step-stake-s,638,2227817,0.0-18.0-0.1-0.150,1333,1,2,high
151,2,object_03,object_07,1155.0,4,1,335.0,0.3333333333333333,2,object_04,1,1758,0,4,3,forest_21,2,memory-2step-stake-s,639,2235669,0.0-18.0-0.1-0.151,1333,4,3,high
152,1,object_08,object_10,491.0,2,1,297.0,0.3333333333333333,2,object_04,1,1761,0,4,3,desert_28,2,memory-2step-stake-s,640,2243487,0.0-18.0-0.1-0.152,1333,2,1,high
153,2,object_07,object_03,613.0,3,1,327.0,0.2222222222222222,1,object_01,5,1771,0,2,4,forest_3,2,memory-2step-stake-s,641,2251230,0.0-18.0-0.1-0.153,1333,3,4,high
154,1,object_08,object_10,834.0,2,1,335.0,0.0,2,object_04,5,1771,0,1,0,desert_20,2,memory-2step-stake-s,642,2258778,0.0-18.0-0.1-0.154,1333,2,1,high
155,4,object_09,object_06,679.0,7,2,561.0,0.0,1,object_01,5,1771,0,0,1,restaurant_22,2,memory-2step-stake-s,643,2266553,0.0-18.0-0.1-0.155,1333,8,7,low
156,3,object_02,object_05,1124.0,6,2,520.0,0.2222222222222222,2,object_04,1,1773,0,0,2,library_13,2,memory-2step-stake-s,644,2274488,0.0-18.0-0.1-0.156,1333,5,6,low
157,2,object_03,object_07,978.0,3,2,506.0,0.1111111111111111,1,object_01,5,1778,0,1,6,forest_3,2,memory-2step-stake-s,645,2282310,0.0-18.0-0.1-0.157,1333,4,3,high
158,1,object_08,object_10,635.0,2,1,467.0,0.2222222222222222,2,object_04,5,1788,0,4,2,desert_17,2,memory-2step-stake-s,646,2290191,0.0-18.0-0.1-0.158,1333,2,1,high
159,1,object_10,object_08,716.0,2,2,470.0,0.1111111111111111,2,object_04,5,1793,0,2,1,desert_28,2,memory-2step-stake-s,647,2297975,0.0-18.0-0.1-0.159,1333,1,2,high
160,1,object_08,object_10,621.0,2,1,304.0,0.2222222222222222,2,object_04,1,1795,0,2,2,desert_25,2,memory-2step-stake-s,648,2305696,0.0-18.0-0.1-0.160,1333,2,1,high
161,4,object_06,object_09,250.0,8,2,323.0,0.0,2,object_04,1,1795,0,0,0,restaurant_32,2,memory-2step-stake-s,649,2313231,0.0-18.0-0.1-0.161,1333,7,8,low
162,3,object_05,object_02,817.0,5,2,244.0,0.5555555555555556,1,object_01,5,1820,0,5,4,library_26,2,memory-2step-stake-s,650,2321193,0.0-18.0-0.1-0.162,1333,6,5,low
163,1,object_08,object_10,616.0,1,2,322.0,0.6666666666666666,1,object_01,5,1850,0,6,4,desert_22,2,memory-2step-stake-s,651,2329340,0.0-18.0-0.1-0.163,1333,2,1,high
164,3,object_05,object_02,539.0,5,2,441.0,1.0,1,object_01,1,1859,0,9,4,library_21,2,memory-2step-stake-s,652,2337904,0.0-18.0-0.1-0.164,1333,6,5,low
165,3,object_05,object_02,439.0,5,2,198.0,1.0,1,object_01,1,1868,0,9,2,library_25,2,memory-2step-stake-s,653,2346228,0.0-18.0-0.1-0.165,1333,6,5,low
166,2,object_03,object_07,489.0,3,2,282.0,0.8888888888888888,1,object_01,5,1908,0,8,4,forest_18,2,memory-2step-stake-s,654,2354540,0.0-18.0-0.1-0.166,1333,4,3,high
167,1,object_08,object_10,446.0,1,2,332.0,0.5555555555555556,1,object_01,1,1913,0,5,5,desert_27,2,memory-2step-stake-s,655,2362594,0.0-18.0-0.1-0.167,1333,2,1,high
168,2,object_03,object_07,726.0,3,2,243.0,0.4444444444444444,1,object_01,1,1917,0,4,2,forest_7,2,memory-2step-stake-s,656,2370455,0.0-18.0-0.1-0.168,1333,4,3,high
169,1,object_10,object_08,1085.0,2,2,325.0,0.1111111111111111,2,object_04,5,1922,0,6,1,desert_13,2,memory-2step-stake-s,657,2378095,0.0-18.0-0.1-0.169,1333,1,2,high
170,4,object_06,object_09,658.0,7,1,451.0,0.8888888888888888,1,object_01,1,1930,0,8,3,restaurant_1,2,memory-2step-stake-s,658,2386570,0.0-18.0-0.1-0.170,1333,7,8,low
171,1,object_08,object_10,815.0,2,1,273.0,0.4444444444444444,2,object_04,5,1950,0,7,4,desert_8,2,memory-2step-stake-s,659,2394467,0.0-18.0-0.1-0.171,1333,2,1,high
172,3,object_02,object_05,778.0,5,1,11.0,1.0,1,object_01,5,1995,0,9,5,library_14,2,memory-2step-stake-s,660,2402605,0.0-18.0-0.1-0.172,1333,5,6,low
173,4,object_09,object_06,617.0,7,2,504.0,1.0,1,object_01,1,2004,0,9,5,restaurant_32,2,memory-2step-stake-s,661,2411234,0.0-18.0-0.1-0.173,1333,8,7,low
174,3,object_02,object_05,1086.0,5,1,287.0,0.6666666666666666,1,object_01,5,2034,0,6,5,library_22,2,memory-2step-stake-s,662,2419345,0.0-18.0-0.1-0.174,1333,5,6,low
175,3,object_02,object_05,507.0,5,1,181.0,0.8888888888888888,1,object_01,1,2042,0,8,5,library_25,2,memory-2step-stake-s,663,2427551,0.0-18.0-0.1-0.175,1333,5,6,low
176,4,object_06,object_09,538.0,7,1,303.0,0.8888888888888888,1,object_01,5,2082,0,8,4,restaurant_26,2,memory-2step-stake-s,664,2435875,0.0-18.0-0.1-0.176,1333,7,8,low
177,2,object_07,object_03,538.0,3,1,65.0,0.8888888888888888,1,object_01,1,2090,0,8,5,forest_8,2,memory-2step-stake-s,665,2443967,0.0-18.0-0.1-0.177,1333,3,4,high
178,4,object_06,object_09,527.0,7,1,366.0,0.8888888888888888,1,object_01,1,2098,0,8,5,restaurant_26,2,memory-2step-stake-s,666,2452361,0.0-18.0-0.1-0.178,1333,7,8,low
179,2,object_03,object_07,685.0,3,2,657.0,0.6666666666666666,1,object_01,5,2128,0,6,4,forest_18,2,memory-2step-stake-s,667,2460841,0.0-18.0-0.1-0.179,1333,4,3,high
180,1,object_08,object_10,594.0,1,2,407.0,0.3333333333333333,1,object_01,5,2143,0,3,1,desert_29,2,memory-2step-stake-s,668,2468763,0.0-18.0-0.1-0.180,1333,2,1,high
181,3,object_05,object_02,449.0,5,2,316.0,0.2222222222222222,1,object_01,5,2153,0,2,4,library_29,2,memory-2step-stake-s,669,2476497,0.0-18.0-0.1-0.181,1333,6,5,low
182,1,object_08,object_10,724.0,2,1,260.0,0.6666666666666666,2,object_04,5,2183,0,0,6,desert_30,2,memory-2step-stake-s,670,2484582,0.0-18.0-0.1-0.182,1333,2,1,high
183,1,object_08,object_10,662.0,2,1,390.0,1.0,2,object_04,5,2228,0,0,9,desert_25,2,memory-2step-stake-s,671,2493097,0.0-18.0-0.1-0.183,1333,2,1,high
184,2,object_03,object_07,718.0,4,1,289.0,1.0,2,object_04,5,2273,0,0,9,forest_7,2,memory-2step-stake-s,672,2501512,0.0-18.0-0.1-0.184,1333,4,3,high
185,1,object_08,object_10,1063.0,2,1,556.0,0.7777777777777778,2,object_04,5,2308,0,0,7,desert_24,2,memory-2step-stake-s,673,2509992,0.0-18.0-0.1-0.185,1333,2,1,high
186,3,object_05,object_02,759.0,6,1,323.0,0.6666666666666666,2,object_04,5,2338,0,1,6,library_6,2,memory-2step-stake-s,674,2518138,0.0-18.0-0.1-0.186,1333,6,5,low
187,3,object_05,object_02,707.0,6,1,337.0,1.0,2,object_04,1,2347,0,2,9,library_3,2,memory-2step-stake-s,675,2526605,0.0-18.0-0.1-0.187,1333,6,5,low
188,4,object_09,object_06,1416.0,8,1,740.0,0.8888888888888888,2,object_04,5,2387,0,4,8,restaurant_30,2,memory-2step-stake-s,676,2535368,0.0-18.0-0.1-0.188,1333,8,7,low
189,4,object_09,object_06,455.0,8,1,368.0,0.8888888888888888,2,object_04,1,2395,0,7,8,restaurant_2,2,memory-2step-stake-s,677,2543760,0.0-18.0-0.1-0.189,1333,8,7,low
190,3,object_02,object_05,914.0,5,1,321.0,0.8888888888888888,1,object_01,1,2403,0,8,8,library_21,2,memory-2step-stake-s,678,2552111,0.0-18.0-0.1-0.190,1333,5,6,low
191,3,object_05,object_02,422.0,5,2,1048.0,1.0,1,object_01,1,2412,0,9,6,library_26,2,memory-2step-stake-s,679,2561284,0.0-18.0-0.1-0.191,1333,6,5,low
192,1,object_08,object_10,692.0,1,2,256.0,0.6666666666666666,1,object_01,1,2418,0,6,4,desert_8,2,memory-2step-stake-s,680,2569361,0.0-18.0-0.1-0.192,1333,2,1,high
193,2,object_07,object_03,747.0,3,1,366.0,0.7777777777777778,1,object_01,5,2453,0,7,5,forest_27,2,memory-2step-stake-s,681,2577654,0.0-18.0-0.1-0.193,1333,3,4,high
194,2,object_03,object_07,502.0,3,2,371.0,0.8888888888888888,1,object_01,1,2461,0,8,4,forest_6,2,memory-2step-stake-s,682,2586052,0.0-18.0-0.1-0.194,1333,4,3,high
195,3,object_02,object_05,789.0,5,1,349.0,0.6666666666666666,1,object_01,1,2467,0,6,6,library_22,2,memory-2step-stake-s,683,2594226,0.0-18.0-0.1-0.195,1333,5,6,low
196,4,object_06,object_09,841.0,7,1,253.0,0.6666666666666666,1,object_01,5,2497,0,6,4,restaurant_4,2,memory-2step-stake-s,684,2602301,0.0-18.0-0.1-0.196,1333,7,8,low
197,3,object_02,object_05,633.0,5,1,90.0,0.5555555555555556,1,object_01,5,2522,0,5,2,library_13,2,memory-2step-stake-s,685,2610110,0.0-18.0-0.1-0.197,1333,5,6,low
198,1,object_10,object_08,963.0,1,1,319.0,0.6666666666666666,1,object_01,5,2552,0,6,2,desert_30,2,memory-2step-stake-s,686,2618250,0.0-18.0-0.1-0.198,1333,1,2,high
199,2,object_03,object_07,564.0,3,2,313.0,0.4444444444444444,1,object_01,5,2572,0,4,2,forest_14,2,memory-2step-stake-s,687,2626186,0.0-18.0-0.1-0.199,1333,4,3,high
200,4,object_09,object_06,566.0,7,2,308.0,0.5555555555555556,1,object_01,1,2577,0,5,1,restaurant_9,2,memory-2step-stake-s,688,2634215,0.0-18.0-0.1-0.200,1333,8,7,low
201,4,object_09,object_06,557.0,7,2,341.0,0.4444444444444444,1,object_01,1,2581,0,4,0,restaurant_31,2,memory-2step-stake-s,689,2642173,0.0-18.0-0.1-0.201,1333,8,7,low
202,3,object_05,object_02,540.0,5,2,566.0,1.0,1,object_01,1,2590,0,9,1,library_22,2,memory-2step-stake-s,690,2650870,0.0-18.0-0.1-0.202,1333,6,5,low
203,2,object_03,object_07,470.0,3,2,440.0,0.7777777777777778,1,object_01,5,2625,0,7,2,forest_30,2,memory-2step-stake-s,691,2659233,0.0-18.0-0.1-0.203,1333,4,3,high
204,3,object_05,object_02,631.0,5,2,586.0,0.7777777777777778,1,object_01,5,2660,0,7,2,library_3,2,memory-2step-stake-s,692,2667744,0.0-18.0-0.1-0.204,1333,6,5,low
205,4,object_06,object_09,715.0,7,1,600.0,0.8888888888888888,1,object_01,5,2700,0,8,2,restaurant_4,2,memory-2step-stake-s,693,2676366,0.0-18.0-0.1-0.205,1333,7,8,low
206,4,object_09,object_06,739.0,7,2,521.0,0.8888888888888888,1,object_01,1,2708,0,8,0,restaurant_15,2,memory-2step-stake-s,694,2684913,0.0-18.0-0.1-0.206,1333,8,7,low
207,1,object_08,object_10,1108.0,1,2,440.0,0.5555555555555556,1,object_01,5,2733,0,5,2,desert_14,2,memory-2step-stake-s,695,2693077,0.0-18.0-0.1-0.207,1333,2,1,high
208,1,object_08,object_10,669.0,1,2,491.0,0.6666666666666666,1,object_01,5,2763,0,6,2,desert_24,2,memory-2step-stake-s,696,2701392,0.0-18.0-0.1-0.208,1333,2,1,high
209,2,object_03,object_07,865.0,3,2,474.0,0.6666666666666666,1,object_01,1,2769,0,6,3,forest_1,2,memory-2step-stake-s,697,2709688,0.0-18.0-0.1-0.209,1333,4,3,high
210,3,object_05,object_02,494.0,5,2,317.0,0.6666666666666666,1,object_01,5,2799,0,6,1,library_27,2,memory-2step-stake-s,698,2717828,0.0-18.0-0.1-0.210,1333,6,5,low
211,2,object_07,object_03,528.0,3,1,88.0,0.5555555555555556,1,object_01,5,2824,0,5,1,forest_12,2,memory-2step-stake-s,699,2725635,0.0-18.0-0.1-0.211,1333,3,4,high
212,3,object_05,object_02,640.0,5,2,500.0,0.7777777777777778,1,object_01,1,2831,0,7,0,library_25,2,memory-2step-stake-s,700,2734059,0.0-18.0-0.1-0.212,1333,6,5,low
213,2,object_03,object_07,997.0,3,2,371.0,0.3333333333333333,1,object_01,5,2846,0,3,3,forest_28,2,memory-2step-stake-s,701,2741952,0.0-18.0-0.1-0.213,1333,4,3,high
214,2,object_03,object_07,326.0,4,1,296.0,0.2222222222222222,2,object_04,5,2856,0,4,2,forest_28,2,memory-2step-stake-s,702,2749666,0.0-18.0-0.1-0.214,1333,4,3,high
215,4,object_06,object_09,737.0,8,2,289.0,0.1111111111111111,2,object_04,5,2861,0,3,1,restaurant_31,2,memory-2step-stake-s,703,2757269,0.0-18.0-0.1-0.215,1333,7,8,low
216,2,object_07,object_03,675.0,3,1,454.0,0.3333333333333333,1,object_01,5,2876,0,3,0,forest_3,2,memory-2step-stake-s,704,2765243,0.0-18.0-0.1-0.216,1333,3,4,high
217,2,object_07,object_03,768.0,3,1,1074.0,0.6666666666666666,1,object_01,5,2906,0,6,2,forest_15,2,memory-2step-stake-s,705,2774141,0.0-18.0-0.1-0.217,1333,3,4,high
218,4,object_06,object_09,900.0,7,1,653.0,0.8888888888888888,1,object_01,1,2914,0,8,3,restaurant_15,2,memory-2step-stake-s,706,2782817,0.0-18.0-0.1-0.218,1333,7,8,low
219,1,object_10,object_08,778.0,1,1,443.0,0.6666666666666666,1,object_01,5,2944,0,6,4,desert_17,2,memory-2step-stake-s,707,2791086,0.0-18.0-0.1-0.219,1333,1,2,high
220,1,object_08,object_10,812.0,1,2,414.0,0.5555555555555556,1,object_01,5,2969,0,5,8,desert_19,2,memory-2step-stake-s,708,2799220,0.0-18.0-0.1-0.220,1333,2,1,high
221,1,object_08,object_10,846.0,1,2,713.0,0.8888888888888888,1,object_01,5,3009,0,8,9,desert_7,2,memory-2step-stake-s,709,2807958,0.0-18.0-0.1-0.221,1333,2,1,high
222,4,object_06,object_09,576.0,7,1,1208.0,0.7777777777777778,1,object_01,1,3016,0,7,8,restaurant_28,2,memory-2step-stake-s,710,2817091,0.0-18.0-0.1-0.222,1333,7,8,low
223,3,object_02,object_05,663.0,5,1,570.0,0.6666666666666666,1,object_01,1,3022,0,6,5,library_3,2,memory-2step-stake-s,711,2825486,0.0-18.0-0.1-0.223,1333,5,6,low
224,1,object_10,object_08,632.0,1,1,398.0,0.7777777777777778,1,object_01,1,3029,0,7,1,desert_28,2,memory-2step-stake-s,712,2833807,0.0-18.0-0.1-0.224,1333,1,2,high
225,2,object_07,object_03,666.0,3,1,611.0,0.7777777777777778,1,object_01,5,3064,0,7,1,forest_3,2,memory-2step-stake-s,713,2842342,0.0-18.0-0.1-0.225,1333,3,4,high
226,1,object_08,object_10,-1.0,-1,-1,-1.0,0.0,-,,5,3064,0,7,1,desert_17,2,memory-2step-stake-s,714,2848852,0.0-18.0-0.1-0.226,1333,2,1,high
227,1,object_10,object_08,694.0,1,1,517.0,0.5555555555555556,1,object_01,5,3089,0,5,0,desert_20,2,memory-2step-stake-s,715,2857093,0.0-18.0-0.1-0.227,1333,1,2,high
228,2,object_03,object_07,492.0,3,2,449.0,0.5555555555555556,1,object_01,5,3114,0,5,3,forest_29,2,memory-2step-stake-s,716,2865263,0.0-18.0-0.1-0.228,1333,4,3,high
229,4,object_09,object_06,574.0,7,2,504.0,0.4444444444444444,1,object_01,1,3118,0,4,3,restaurant_17,2,memory-2step-stake-s,717,2873386,0.0-18.0-0.1-0.229,1333,8,7,low
230,3,object_02,object_05,888.0,5,1,457.0,0.4444444444444444,1,object_01,1,3122,0,4,1,library_13,2,memory-2step-stake-s,718,2881465,0.0-18.0-0.1-0.230,1333,5,6,low
231,4,object_09,object_06,575.0,7,2,313.0,0.4444444444444444,1,object_01,1,3126,0,4,2,restaurant_9,2,memory-2step-stake-s,719,2889397,0.0-18.0-0.1-0.231,1333,8,7,low
232,4,object_06,object_09,669.0,7,1,279.0,0.3333333333333333,1,object_01,1,3129,0,3,1,restaurant_17,2,memory-2step-stake-s,720,2897195,0.0-18.0-0.1-0.232,1333,7,8,low
233,2,object_07,object_03,424.0,3,1,839.0,0.2222222222222222,1,object_01,1,3131,0,2,1,forest_8,2,memory-2step-stake-s,721,2905452,0.0-18.0-0.1-0.233,1333,3,4,high
234,2,object_07,object_03,462.0,4,2,262.0,0.3333333333333333,2,object_04,5,3146,0,2,3,forest_19,2,memory-2step-stake-s,722,2913232,0.0-18.0-0.1-0.234,1333,3,4,high
235,4,object_09,object_06,839.0,8,1,274.0,0.3333333333333333,2,object_04,1,3149,0,3,3,restaurant_2,2,memory-2step-stake-s,723,2921023,0.0-18.0-0.1-0.235,1333,8,7,low
236,3,object_05,object_02,432.0,5,2,425.0,0.3333333333333333,1,object_01,1,3152,0,3,4,library_1,2,memory-2step-stake-s,724,2928969,0.0-18.0-0.1-0.236,1333,6,5,low
237,3,object_02,object_05,731.0,6,2,451.0,0.5555555555555556,2,object_04,5,3177,0,2,5,library_18,2,memory-2step-stake-s,725,2937141,0.0-18.0-0.1-0.237,1333,5,6,low
238,4,object_09,object_06,623.0,8,1,625.0,0.5555555555555556,2,object_04,1,3182,0,4,5,restaurant_2,2,memory-2step-stake-s,726,2945488,0.0-18.0-0.1-0.238,1333,8,7,low
239,1,object_10,object_08,723.0,1,1,370.0,0.3333333333333333,1,object_01,5,3197,0,3,5,desert_9,2,memory-2step-stake-s,727,2953378,0.0-18.0-0.1-0.239,1333,1,2,high
240,4,object_09,object_06,462.0,8,1,287.0,0.5555555555555556,2,object_04,1,3202,0,0,5,restaurant_28,2,memory-2step-stake-s,728,2961384,0.0-18.0-0.1-0.240,1333,8,7,low
241,4,object_09,object_06,522.0,8,1,510.0,0.6666666666666666,2,object_04,5,3232,0,1,6,restaurant_1,2,memory-2step-stake-s,729,2969716,0.0-18.0-0.1-0.241,1333,8,7,low
242,4,object_06,object_09,773.0,8,2,384.0,0.6666666666666666,2,object_04,1,3238,0,4,6,restaurant_30,2,memory-2step-stake-s,730,2977923,0.0-18.0-0.1-0.242,1333,7,8,low
243,3,object_05,object_02,555.0,6,1,552.0,0.7777777777777778,2,object_04,1,3245,0,2,7,library_27,2,memory-2step-stake-s,731,2986399,0.0-18.0-0.1-0.243,1333,6,5,low
244,1,object_08,object_10,653.0,2,1,543.0,1.0,2,object_04,5,3290,0,4,9,desert_25,2,memory-2step-stake-s,732,2995073,0.0-18.0-0.1-0.244,1333,2,1,high
245,2,object_07,object_03,538.0,3,1,302.0,1.0,1,object_01,5,3335,0,9,9,forest_30,2,memory-2step-stake-s,733,3003502,0.0-18.0-0.1-0.245,1333,3,4,high
246,2,object_03,object_07,728.0,4,1,83.0,1.0,2,object_04,1,3344,0,6,9,forest_20,2,memory-2step-stake-s,734,3011713,0.0-18.0-0.1-0.246,1333,4,3,high
247,4,object_09,object_06,751.0,7,2,279.0,0.3333333333333333,1,object_01,1,3347,0,3,9,restaurant_29,2,memory-2step-stake-s,735,3019512,0.0-18.0-0.1-0.247,1333,8,7,low
248,2,object_07,object_03,470.0,4,2,101.0,0.8888888888888888,2,object_04,5,3387,0,2,8,forest_6,2,memory-2step-stake-s,736,3027640,0.0-18.0-0.1-0.248,1333,3,4,high
249,4,object_09,object_06,505.0,7,2,381.0,0.3333333333333333,1,object_01,1,3390,0,3,7,restaurant_28,2,memory-2step-stake-s,737,3035541,0.0-18.0-0.1-0.249,1333,8,7,low
250,3,object_05,object_02,449.0,6,1,81.0,0.8888888888888888,2,object_04,1,3398,0,1,8,library_12,2,memory-2step-stake-s,738,3043648,0.0-18.0-0.1-0.250,1333,6,5,low
251,3,object_05,object_02,547.0,6,1,658.0,0.4444444444444444,2,object_04,1,3402,0,2,4,library_26,2,memory-2step-stake-s,739,3051926,0.0-18.0-0.1-0.251,1333,6,5,low
252,3,object_05,object_02,753.0,6,1,237.0,0.2222222222222222,2,object_04,1,3404,0,2,2,library_12,2,memory-2step-stake-s,740,3059580,0.0-18.0-0.1-0.252,1333,6,5,low
253,1,object_08,object_10,453.0,1,2,578.0,0.2222222222222222,1,object_01,1,3406,0,2,5,desert_28,2,memory-2step-stake-s,741,3067578,0.0-18.0-0.1-0.253,1333,2,1,high
254,3,object_05,object_02,445.0,5,2,71.0,0.1111111111111111,1,object_01,5,3411,0,1,3,library_29,2,memory-2step-stake-s,742,3074965,0.0-18.0-0.1-0.254,1333,6,5,low
255,4,object_06,object_09,691.0,8,2,240.0,0.5555555555555556,2,object_04,1,3416,0,1,5,restaurant_4,2,memory-2step-stake-s,743,3082924,0.0-18.0-0.1-0.255,1333,7,8,low
256,4,object_05,object_01,-1.0,-1,-1,-1.0,0.0,-,,5,0,0,0,2,restaurant_1,1,memory-2step-stake-s,498,1100974,0.0-18.0-0.0-0.0,2225,8,7,high
257,3,object_03,object_02,634.085,6,1,1146.715,0.1111111111111111,2,object_08,5,5,0,1,1,library_30,1,memory-2step-stake-s,499,1109456,0.0-18.0-0.0-0.1,2225,6,5,high
258,1,object_07,object_10,911.21,1,2,927.165,0.1111111111111111,1,object_06,5,10,0,1,1,desert_1,1,memory-2step-stake-s,500,1117723,0.0-18.0-0.0-0.2,2225,2,1,low
259,4,object_05,object_01,1136.15,8,1,895.025,0.1111111111111111,2,object_08,5,15,0,1,1,restaurant_1,1,memory-2step-stake-s,501,1125955,0.0-18.0-0.0-0.3,2225,8,7,high
260,3,object_02,object_03,1275.695,6,2,1198.46,0.0,2,object_08,1,15,0,1,0,library_23,1,memory-2step-stake-s,502,1134386,0.0-18.0-0.0-0.4,2225,5,6,high
261,4,object_05,object_01,1185.705,7,2,1000.91,0.5555555555555556,1,object_06,5,40,0,5,1,restaurant_4,1,memory-2step-stake-s,503,1143132,0.0-18.0-0.0-0.5,2225,8,7,high
262,1,object_07,object_10,1031.105,2,1,1001.85,0.4444444444444444,2,object_08,1,44,0,5,4,desert_26,1,memory-2step-stake-s,504,1151776,0.0-18.0-0.0-0.6,2225,2,1,low
263,1,object_10,object_07,1293.735,1,1,605.89,0.4444444444444444,1,object_06,1,48,0,4,5,desert_26,1,memory-2step-stake-s,505,1160036,0.0-18.0-0.0-0.7,2225,1,2,low
264,2,object_09,object_04,1156.99,3,2,791.6,0.3333333333333333,1,object_06,1,51,0,3,7,forest_16,1,memory-2step-stake-s,506,1168359,0.0-18.0-0.0-0.8,2225,4,3,low
265,3,object_02,object_03,1357.16,6,2,669.875,0.2222222222222222,2,object_08,5,61,0,5,2,library_8,1,memory-2step-stake-s,507,1176467,0.0-18.0-0.0-0.9,2225,5,6,high
266,4,object_01,object_05,925.155,8,2,828.76,0.0,2,object_08,1,61,0,8,0,restaurant_29,1,memory-2step-stake-s,508,1184531,0.0-18.0-0.0-0.10,2225,7,8,high
267,1,object_10,object_07,1177.22,2,2,644.86,0.1111111111111111,2,object_08,1,62,0,7,1,desert_29,1,memory-2step-stake-s,509,1192513,0.0-18.0-0.0-0.11,2225,1,2,low
268,1,object_07,object_10,1356.635,1,2,639.09,0.2222222222222222,1,object_06,1,64,0,2,1,desert_28,1,memory-2step-stake-s,510,1200597,0.0-18.0-0.0-0.12,2225,2,1,low
269,3,object_02,object_03,1180.56,5,1,619.53,0.2222222222222222,1,object_06,5,74,0,2,3,library_17,1,memory-2step-stake-s,511,1208664,0.0-18.0-0.0-0.13,2225,5,6,high
270,4,object_05,object_01,-1.0,-1,-1,-1.0,0.0,-,,5,74,0,2,2,restaurant_29,1,memory-2step-stake-s,512,1215189,0.0-18.0-0.0-0.14,2225,8,7,high
271,4,object_05,object_01,857.46,7,2,512.155,0.1111111111111111,1,object_06,5,79,0,1,3,restaurant_25,1,memory-2step-stake-s,513,1223038,0.0-18.0-0.0-0.15,2225,8,7,high
272,3,object_03,object_02,1052.635,5,2,404.655,0.2222222222222222,1,object_06,5,89,0,2,3,library_22,1,memory-2step-stake-s,514,1230891,0.0-18.0-0.0-0.16,2225,6,5,high
273,3,object_03,object_02,673.915,5,2,426.005,0.5555555555555556,1,object_06,5,114,0,5,5,library_7,1,memory-2step-stake-s,515,1239080,0.0-18.0-0.0-0.17,2225,6,5,high
274,1,object_07,object_10,1142.805,1,2,578.71,0.8888888888888888,1,object_06,1,122,0,8,6,desert_13,1,memory-2step-stake-s,516,1247720,0.0-18.0-0.0-0.18,2225,2,1,low
275,4,object_05,object_01,963.15,8,1,457.58,0.8888888888888888,2,object_08,5,162,0,8,8,restaurant_21,1,memory-2step-stake-s,517,1256256,0.0-18.0-0.0-0.19,2225,8,7,high
276,4,object_05,object_01,959.44,8,1,440.91,0.7777777777777778,2,object_08,1,169,0,8,7,restaurant_4,1,memory-2step-stake-s,518,1264665,0.0-18.0-0.0-0.20,2225,8,7,high
277,1,object_07,object_10,1330.46,2,1,667.105,0.7777777777777778,2,object_08,1,176,0,8,7,desert_13,1,memory-2step-stake-s,519,1273286,0.0-18.0-0.0-0.21,2225,2,1,low
278,4,object_01,object_05,-1.0,-1,-1,-1.0,0.0,-,,5,176,0,6,5,restaurant_13,1,memory-2step-stake-s,520,1279805,0.0-18.0-0.0-0.22,2225,7,8,high
279,4,object_01,object_05,514.94,8,2,359.695,0.3333333333333333,2,object_08,5,191,0,6,3,restaurant_32,1,memory-2step-stake-s,521,1287715,0.0-18.0-0.0-0.23,2225,7,8,high
280,2,object_09,object_04,925.29,4,1,593.485,0.0,2,object_08,1,191,0,3,0,forest_8,1,memory-2step-stake-s,522,1295547,0.0-18.0-0.0-0.24,2225,4,3,low
281,4,object_01,object_05,1204.02,7,1,490.475,0.3333333333333333,1,object_06,1,194,0,3,3,restaurant_7,1,memory-2step-stake-s,523,1303582,0.0-18.0-0.0-0.25,2225,7,8,high
282,4,object_01,object_05,888.79,7,1,421.965,0.3333333333333333,1,object_06,1,197,0,3,1,restaurant_7,1,memory-2step-stake-s,524,1311555,0.0-18.0-0.0-0.26,2225,7,8,high
283,3,object_02,object_03,1029.57,6,2,633.46,0.2222222222222222,2,object_08,5,207,0,2,2,library_17,1,memory-2step-stake-s,525,1319624,0.0-18.0-0.0-0.27,2225,5,6,high
284,1,object_07,object_10,1280.05,2,1,705.035,0.1111111111111111,2,object_08,5,212,0,4,1,desert_32,1,memory-2step-stake-s,526,1327659,0.0-18.0-0.0-0.28,2225,2,1,low
285,3,object_02,object_03,1279.835,5,1,681.89,0.6666666666666666,1,object_06,1,218,0,6,0,library_17,1,memory-2step-stake-s,527,1336198,0.0-18.0-0.0-0.29,2225,5,6,high
286,3,object_02,object_03,1319.505,6,2,673.7,0.1111111111111111,2,object_08,1,219,0,2,1,library_8,1,memory-2step-stake-s,528,1344211,0.0-18.0-0.0-0.30,2225,5,6,high
287,3,object_02,object_03,750.97,5,1,439.355,0.4444444444444444,1,object_06,5,239,0,4,2,library_14,1,memory-2step-stake-s,529,1352308,0.0-18.0-0.0-0.31,2225,5,6,high
288,2,object_04,object_09,1245.105,4,2,638.54,0.4444444444444444,2,object_08,1,243,0,4,4,forest_4,1,memory-2step-stake-s,530,1360598,0.0-18.0-0.0-0.32,2225,3,4,low
289,3,object_03,object_02,830.245,5,2,402.46,0.5555555555555556,1,object_06,1,248,0,5,2,library_13,1,memory-2step-stake-s,531,1368762,0.0-18.0-0.0-0.33,2225,6,5,high
290,1,object_07,object_10,901.345,1,2,742.175,0.3333333333333333,1,object_06,5,263,0,3,0,desert_25,1,memory-2step-stake-s,532,1377055,0.0-18.0-0.0-0.34,2225,2,1,low
291,4,object_01,object_05,910.53,8,2,397.615,0.0,2,object_08,5,263,0,4,0,restaurant_19,1,memory-2step-stake-s,533,1384685,0.0-18.0-0.0-0.35,2225,7,8,high
292,1,object_10,object_07,894.595,2,2,668.38,0.0,2,object_08,1,263,0,4,0,desert_27,1,memory-2step-stake-s,534,1392588,0.0-18.0-0.0-0.36,2225,1,2,low
293,3,object_03,object_02,759.98,6,1,619.59,0.1111111111111111,2,object_08,5,268,0,3,1,library_28,1,memory-2step-stake-s,535,1400544,0.0-18.0-0.0-0.37,2225,6,5,high
294,2,object_09,object_04,1221.07,4,1,605.01,0.0,2,object_08,1,268,0,6,0,forest_26,1,memory-2step-stake-s,536,1408387,0.0-18.0-0.0-0.38,2225,4,3,low
295,1,object_07,object_10,1483.655,1,2,548.12,0.4444444444444444,1,object_06,1,272,0,4,1,desert_8,1,memory-2step-stake-s,537,1416579,0.0-18.0-0.0-0.39,2225,2,1,low
296,3,object_03,object_02,687.645,5,2,611.42,0.4444444444444444,1,object_06,5,292,0,4,3,library_5,1,memory-2step-stake-s,538,1424841,0.0-18.0-0.0-0.40,2225,6,5,high
297,2,object_04,object_09,614.53,3,1,511.175,0.2222222222222222,1,object_06,5,302,0,2,2,forest_4,1,memory-2step-stake-s,539,1432789,0.0-18.0-0.0-0.41,2225,3,4,low
298,4,object_01,object_05,824.235,8,2,424.78,0.4444444444444444,2,object_08,5,322,0,1,4,restaurant_29,1,memory-2step-stake-s,540,1440867,0.0-18.0-0.0-0.42,2225,7,8,high
299,3,object_03,object_02,993.885,5,2,580.53,0.2222222222222222,1,object_06,5,332,0,2,3,library_22,1,memory-2step-stake-s,541,1448880,0.0-18.0-0.0-0.43,2225,6,5,high
300,1,object_10,object_07,843.185,2,2,432.17,0.0,2,object_08,1,332,0,3,0,desert_27,1,memory-2step-stake-s,542,1456550,0.0-18.0-0.0-0.44,2225,1,2,low
301,1,object_07,object_10,1351.4,2,1,562.125,0.0,2,object_08,5,332,0,5,0,desert_25,1,memory-2step-stake-s,543,1464350,0.0-18.0-0.0-0.45,2225,2,1,low
302,3,object_02,object_03,1142.61,5,1,533.8,0.1111111111111111,1,object_06,5,337,0,1,1,library_5,1,memory-2step-stake-s,544,1472219,0.0-18.0-0.0-0.46,2225,5,6,high
303,1,object_10,object_07,1116.97,2,2,594.555,0.1111111111111111,2,object_08,5,342,0,2,1,desert_32,1,memory-2step-stake-s,545,1480140,0.0-18.0-0.0-0.47,2225,1,2,low
304,4,object_05,object_01,834.855,8,1,361.64,0.0,2,object_08,1,342,0,5,0,restaurant_4,1,memory-2step-stake-s,546,1487730,0.0-18.0-0.0-0.48,2225,8,7,high
305,4,object_05,object_01,858.83,7,2,879.155,0.6666666666666666,1,object_06,5,372,0,6,4,restaurant_29,1,memory-2step-stake-s,547,1496457,0.0-18.0-0.0-0.49,2225,8,7,high
306,1,object_07,object_10,1256.64,2,1,570.88,0.1111111111111111,2,object_08,5,377,0,6,1,desert_15,1,memory-2step-stake-s,548,1504365,0.0-18.0-0.0-0.50,2225,2,1,low
307,3,object_02,object_03,1131.02,6,2,474.145,0.5555555555555556,2,object_08,1,382,0,7,5,library_14,1,memory-2step-stake-s,549,1512601,0.0-18.0-0.0-0.51,2225,5,6,high
308,3,object_02,object_03,835.98,6,2,458.9,0.5555555555555556,2,object_08,5,407,0,8,5,library_30,1,memory-2step-stake-s,550,1520820,0.0-18.0-0.0-0.52,2225,5,6,high
309,3,object_02,object_03,1046.59,6,2,630.125,0.3333333333333333,2,object_08,5,422,0,8,3,library_23,1,memory-2step-stake-s,551,1528991,0.0-18.0-0.0-0.53,2225,5,6,high
310,4,object_05,object_01,1063.415,7,2,436.75,0.5555555555555556,1,object_06,5,447,0,5,3,restaurant_32,1,memory-2step-stake-s,552,1537185,0.0-18.0-0.0-0.54,2225,8,7,high
311,4,object_05,object_01,803.27,7,2,488.045,0.4444444444444444,1,object_06,5,467,0,4,2,restaurant_16,1,memory-2step-stake-s,553,1545319,0.0-18.0-0.0-0.55,2225,8,7,high
312,2,object_09,object_04,1088.385,4,1,808.375,0.5555555555555556,2,object_08,1,472,0,0,5,forest_23,1,memory-2step-stake-s,554,1553889,0.0-18.0-0.0-0.56,2225,4,3,low
313,2,object_04,object_09,749.87,4,2,393.185,0.7777777777777778,2,object_08,5,507,0,2,7,forest_23,1,memory-2step-stake-s,555,1562234,0.0-18.0-0.0-0.57,2225,3,4,low
314,4,object_01,object_05,1039.015,8,2,456.105,0.8888888888888888,2,object_08,5,547,0,1,8,restaurant_15,1,memory-2step-stake-s,556,1570768,0.0-18.0-0.0-0.58,2225,7,8,high
315,3,object_02,object_03,739.815,6,2,467.385,0.6666666666666666,2,object_08,5,577,0,3,6,library_1,1,memory-2step-stake-s,557,1579089,0.0-18.0-0.0-0.59,2225,5,6,high
316,4,object_01,object_05,821.075,8,2,521.0,0.6666666666666666,2,object_08,1,583,0,1,6,restaurant_25,1,memory-2step-stake-s,558,1587462,0.0-18.0-0.0-0.60,2225,7,8,high
317,1,object_07,object_10,899.97,2,1,461.16,0.4444444444444444,2,object_08,1,587,0,2,4,desert_13,1,memory-2step-stake-s,559,1595579,0.0-18.0-0.0-0.61,2225,2,1,low
318,2,object_09,object_04,1013.55,3,2,565.095,0.2222222222222222,1,object_06,5,597,0,2,8,forest_8,1,memory-2step-stake-s,560,1603578,0.0-18.0-0.0-0.62,2225,4,3,low
319,4,object_05,object_01,774.875,8,1,527.055,0.8888888888888888,2,object_08,5,637,0,1,8,restaurant_32,1,memory-2step-stake-s,561,1612164,0.0-18.0-0.0-0.63,2225,8,7,high
320,3,object_02,object_03,583.39,6,2,438.84,1.0,2,object_08,5,682,0,2,9,library_23,1,memory-2step-stake-s,562,1620765,0.0-18.0-0.0-0.64,2225,5,6,high
321,1,object_10,object_07,815.565,2,2,438.865,0.6666666666666666,2,object_08,1,688,0,1,6,desert_6,1,memory-2step-stake-s,563,1629056,0.0-18.0-0.0-0.65,2225,1,2,low
322,1,object_10,object_07,983.155,2,2,480.18,0.4444444444444444,2,object_08,1,692,0,0,4,desert_28,1,memory-2step-stake-s,564,1637185,0.0-18.0-0.0-0.66,2225,1,2,low
323,4,object_01,object_05,900.11,7,1,497.055,0.0,1,object_06,1,692,0,0,4,restaurant_15,1,memory-2step-stake-s,565,1644914,0.0-18.0-0.0-0.67,2225,7,8,high
324,3,object_02,object_03,631.99,6,2,600.375,0.6666666666666666,2,object_08,5,722,0,2,6,library_14,1,memory-2step-stake-s,566,1653370,0.0-18.0-0.0-0.68,2225,5,6,high
325,4,object_05,object_01,791.7,8,1,488.61,0.3333333333333333,2,object_08,5,737,0,1,3,restaurant_11,1,memory-2step-stake-s,567,1661413,0.0-18.0-0.0-0.69,2225,8,7,high
326,1,object_07,object_10,1060.435,2,1,436.82,0.1111111111111111,2,object_08,5,742,0,6,1,desert_10,1,memory-2step-stake-s,568,1669181,0.0-18.0-0.0-0.70,2225,2,1,low
327,1,object_10,object_07,743.225,1,1,607.725,1.0,1,object_06,1,751,0,9,0,desert_1,1,memory-2step-stake-s,569,1677956,0.0-18.0-0.0-0.71,2225,1,2,low
328,2,object_09,object_04,841.04,3,2,505.215,1.0,1,object_06,1,760,0,9,3,forest_4,1,memory-2step-stake-s,570,1686636,0.0-18.0-0.0-0.72,2225,4,3,low
329,3,object_03,object_02,796.87,5,2,606.38,0.8888888888888888,1,object_06,5,800,0,8,1,library_5,1,memory-2step-stake-s,571,1695315,0.0-18.0-0.0-0.73,2225,6,5,high
330,1,object_07,object_10,849.105,1,2,522.81,0.7777777777777778,1,object_06,5,835,0,7,2,desert_6,1,memory-2step-stake-s,572,1703791,0.0-18.0-0.0-0.74,2225,2,1,low
331,2,object_09,object_04,812.32,3,2,512.95,1.0,1,object_06,1,844,0,9,3,forest_25,1,memory-2step-stake-s,573,1712471,0.0-18.0-0.0-0.75,2225,4,3,low
332,3,object_03,object_02,557.0,5,2,478.935,1.0,1,object_06,5,889,0,9,5,library_27,1,memory-2step-stake-s,574,1721111,0.0-18.0-0.0-0.76,2225,6,5,high
333,4,object_01,object_05,700.465,7,1,463.78,0.5555555555555556,1,object_06,5,914,0,5,6,restaurant_10,1,memory-2step-stake-s,575,1729323,0.0-18.0-0.0-0.77,2225,7,8,high
334,4,object_05,object_01,861.955,7,2,771.62,0.4444444444444444,1,object_06,5,934,0,4,6,restaurant_16,1,memory-2step-stake-s,576,1737742,0.0-18.0-0.0-0.78,2225,8,7,high
335,4,object_01,object_05,640.58,8,2,535.88,0.8888888888888888,2,object_08,1,942,0,3,8,restaurant_19,1,memory-2step-stake-s,577,1746343,0.0-18.0-0.0-0.79,2225,7,8,high
336,3,object_03,object_02,740.315,5,2,464.17,0.3333333333333333,1,object_06,5,957,0,3,7,library_15,1,memory-2step-stake-s,578,1754361,0.0-18.0-0.0-0.80,2225,6,5,high
337,1,object_07,object_10,797.84,2,1,350.415,0.7777777777777778,2,object_08,1,964,0,1,7,desert_15,1,memory-2step-stake-s,579,1762662,0.0-18.0-0.0-0.81,2225,2,1,low
338,4,object_05,object_01,677.385,7,2,877.79,0.0,1,object_06,5,964,0,0,8,restaurant_1,1,memory-2step-stake-s,580,1770768,0.0-18.0-0.0-0.82,2225,8,7,high
339,4,object_05,object_01,895.2,8,1,654.28,0.6666666666666666,2,object_08,5,994,0,2,6,restaurant_7,1,memory-2step-stake-s,581,1779266,0.0-18.0-0.0-0.83,2225,8,7,high
340,2,object_04,object_09,1143.29,4,2,644.155,0.3333333333333333,2,object_08,1,997,0,4,3,forest_16,1,memory-2step-stake-s,582,1787454,0.0-18.0-0.0-0.84,2225,3,4,low
341,1,object_07,object_10,807.99,2,1,528.96,0.2222222222222222,2,object_08,1,999,0,8,2,desert_24,1,memory-2step-stake-s,583,1795424,0.0-18.0-0.0-0.85,2225,2,1,low
342,1,object_10,object_07,953.655,1,1,574.06,1.0,1,object_06,1,1008,0,9,1,desert_29,1,memory-2step-stake-s,584,1804152,0.0-18.0-0.0-0.86,2225,1,2,low
343,2,object_04,object_09,864.4,3,1,516.67,1.0,1,object_06,1,1017,0,9,0,forest_2,1,memory-2step-stake-s,585,1812843,0.0-18.0-0.0-0.87,2225,3,4,low
344,1,object_10,object_07,1051.885,1,1,452.7,0.7777777777777778,1,object_06,1,1024,0,7,1,desert_8,1,memory-2step-stake-s,586,1821266,0.0-18.0-0.0-0.88,2225,1,2,low
345,2,object_09,object_04,1116.575,3,2,415.27,0.6666666666666666,1,object_06,1,1030,0,6,1,forest_23,1,memory-2step-stake-s,587,1829537,0.0-18.0-0.0-0.89,2225,4,3,low
346,1,object_10,object_07,746.46,1,1,565.145,0.7777777777777778,1,object_06,5,1065,0,7,1,desert_8,1,memory-2step-stake-s,588,1838051,0.0-18.0-0.0-0.90,2225,1,2,low
347,2,object_09,object_04,687.62,3,2,627.085,0.8888888888888888,1,object_06,1,1073,0,8,3,forest_15,1,memory-2step-stake-s,589,1846747,0.0-18.0-0.0-0.91,2225,4,3,low
348,3,object_02,object_03,742.815,5,1,535.16,0.7777777777777778,1,object_06,5,1108,0,7,5,library_13,1,memory-2step-stake-s,590,1855252,0.0-18.0-0.0-0.92,2225,5,6,high
349,2,object_09,object_04,727.115,3,2,511.56,1.0,1,object_06,5,1153,0,9,7,forest_24,1,memory-2step-stake-s,591,1863938,0.0-18.0-0.0-0.93,2225,4,3,low
350,4,object_01,object_05,824.745,7,1,479.46,1.0,1,object_06,5,1198,0,9,5,restaurant_12,1,memory-2step-stake-s,592,1872594,0.0-18.0-0.0-0.94,2225,7,8,high
351,4,object_05,object_01,786.805,7,2,527.025,0.6666666666666666,1,object_06,5,1228,0,6,7,restaurant_18,1,memory-2step-stake-s,593,1880989,0.0-18.0-0.0-0.95,2225,8,7,high
352,3,object_02,object_03,742.82,5,1,622.67,0.6666666666666666,1,object_06,5,1258,0,6,6,library_14,1,memory-2step-stake-s,594,1889457,0.0-18.0-0.0-0.96,2225,5,6,high
353,1,object_10,object_07,1005.74,1,1,579.925,0.5555555555555556,1,object_06,1,1263,0,5,7,desert_10,1,memory-2step-stake-s,595,1897769,0.0-18.0-0.0-0.97,2225,1,2,low
354,3,object_02,object_03,774.68,6,2,586.395,0.7777777777777778,2,object_08,1,1270,0,3,7,library_1,1,memory-2step-stake-s,596,1906319,0.0-18.0-0.0-0.98,2225,5,6,high
355,2,object_09,object_04,928.845,4,1,620.36,0.8888888888888888,2,object_08,1,1278,0,3,8,forest_23,1,memory-2step-stake-s,597,1915009,0.0-18.0-0.0-0.99,2225,4,3,low
356,3,object_02,object_03,1319.205,5,1,507.535,0.3333333333333333,1,object_06,1,1281,0,3,6,library_27,1,memory-2step-stake-s,598,1923053,0.0-18.0-0.0-0.100,2225,5,6,high
357,4,object_01,object_05,613.47,8,2,427.735,0.6666666666666666,2,object_08,5,1311,0,0,6,restaurant_13,1,memory-2step-stake-s,599,1931340,0.0-18.0-0.0-0.101,2225,7,8,high
358,1,object_10,object_07,953.65,2,2,441.905,1.0,2,object_08,1,1320,0,1,9,desert_3,1,memory-2step-stake-s,600,1939941,0.0-18.0-0.0-0.102,2225,1,2,low
359,1,object_10,object_07,985.065,2,2,548.945,0.7777777777777778,2,object_08,1,1327,0,1,7,desert_30,1,memory-2step-stake-s,601,1948442,0.0-18.0-0.0-0.103,2225,1,2,low
360,4,object_05,object_01,512.025,8,1,672.475,0.8888888888888888,2,object_08,5,1367,0,0,8,restaurant_4,1,memory-2step-stake-s,602,1957170,0.0-18.0-0.0-0.104,2225,8,7,high
361,2,object_04,object_09,795.02,4,2,543.92,0.7777777777777778,2,object_08,5,1402,0,3,7,forest_26,1,memory-2step-stake-s,603,1965667,0.0-18.0-0.0-0.105,2225,3,4,low
362,4,object_01,object_05,581.86,8,2,476.795,0.6666666666666666,2,object_08,5,1432,0,2,6,restaurant_15,1,memory-2step-stake-s,604,1973998,0.0-18.0-0.0-0.106,2225,7,8,high
363,1,object_10,object_07,897.225,2,2,532.07,0.6666666666666666,2,object_08,1,1438,0,5,6,desert_1,1,memory-2step-stake-s,605,1982374,0.0-18.0-0.0-0.107,2225,1,2,low
364,1,object_07,object_10,863.745,2,1,528.17,0.8888888888888888,2,object_08,1,1446,0,6,8,desert_8,1,memory-2step-stake-s,606,1990974,0.0-18.0-0.0-0.108,2225,2,1,low
365,3,object_02,object_03,553.445,6,2,521.705,0.7777777777777778,2,object_08,1,1453,0,5,7,library_13,1,memory-2step-stake-s,607,1999450,0.0-18.0-0.0-0.109,2225,5,6,high
366,2,object_04,object_09,1008.855,3,1,594.53,0.6666666666666666,1,object_06,1,1459,0,6,7,forest_18,1,memory-2step-stake-s,608,2007888,0.0-18.0-0.0-0.110,2225,3,4,low
367,4,object_01,object_05,632.14,8,2,424.05,0.4444444444444444,2,object_08,5,1479,0,5,4,restaurant_12,1,memory-2step-stake-s,609,2015970,0.0-18.0-0.0-0.111,2225,7,8,high
368,3,object_03,object_02,711.23,5,2,598.01,0.4444444444444444,1,object_06,5,1499,0,4,5,library_30,1,memory-2step-stake-s,610,2024211,0.0-18.0-0.0-0.112,2225,6,5,high
369,3,object_03,object_02,1009.035,5,2,634.485,0.5555555555555556,1,object_06,5,1524,0,5,6,library_10,1,memory-2step-stake-s,611,2032600,0.0-18.0-0.0-0.113,2225,6,5,high
370,4,object_05,object_01,1149.25,7,2,688.25,0.3333333333333333,1,object_06,5,1539,0,3,4,restaurant_10,1,memory-2step-stake-s,612,2040830,0.0-18.0-0.0-0.114,2225,8,7,high
371,2,object_04,object_09,982.51,4,2,734.305,0.3333333333333333,2,object_08,1,1542,0,3,3,forest_12,1,memory-2step-stake-s,613,2049108,0.0-18.0-0.0-0.115,2225,3,4,low
372,1,object_10,object_07,946.81,1,1,450.52,0.5555555555555556,1,object_06,1,1547,0,5,3,desert_10,1,memory-2step-stake-s,614,2057302,0.0-18.0-0.0-0.116,2225,1,2,low
373,3,object_02,object_03,1038.51,5,1,466.3,0.6666666666666666,1,object_06,1,1553,0,6,6,library_10,1,memory-2step-stake-s,615,2065617,0.0-18.0-0.0-0.117,2225,5,6,high
374,2,object_09,object_04,929.785,3,2,380.15,0.7777777777777778,1,object_06,1,1560,0,7,7,forest_10,1,memory-2step-stake-s,616,2073974,0.0-18.0-0.0-0.118,2225,4,3,low
375,2,object_09,object_04,1299.43,3,2,500.825,0.7777777777777778,1,object_06,1,1567,0,7,8,forest_16,1,memory-2step-stake-s,617,2082421,0.0-18.0-0.0-0.119,2225,4,3,low
376,2,object_09,object_04,922.665,3,2,807.0,1.0,1,object_06,1,1576,0,9,5,forest_2,1,memory-2step-stake-s,618,2091395,0.0-18.0-0.0-0.120,2225,4,3,low
377,4,object_01,object_05,870.145,7,1,615.97,0.6666666666666666,1,object_06,5,1606,0,6,5,restaurant_7,1,memory-2step-stake-s,619,2099865,0.0-18.0-0.0-0.121,2225,7,8,high
378,3,object_03,object_02,764.185,5,2,460.01,0.7777777777777778,1,object_06,5,1641,0,7,4,library_27,1,memory-2step-stake-s,620,2108290,0.0-18.0-0.0-0.122,2225,6,5,high
379,1,object_10,object_07,1178.72,1,1,595.2,0.6666666666666666,1,object_06,1,1647,0,6,2,desert_26,1,memory-2step-stake-s,621,2116747,0.0-18.0-0.0-0.123,2225,1,2,low
380,4,object_05,object_01,717.785,7,2,474.195,0.3333333333333333,1,object_06,5,1662,0,3,5,restaurant_10,1,memory-2step-stake-s,622,2124759,0.0-18.0-0.0-0.124,2225,8,7,high
381,3,object_03,object_02,719.59,6,1,632.07,0.3333333333333333,2,object_08,1,1665,0,6,3,library_8,1,memory-2step-stake-s,623,2132924,0.0-18.0-0.0-0.125,2225,6,5,high
382,1,object_07,object_10,706.625,1,2,593.425,0.8888888888888888,1,object_06,1,1673,0,8,2,desert_27,1,memory-2step-stake-s,624,2141567,0.0-18.0-0.0-0.126,2225,2,1,low
383,2,object_09,object_04,636.775,3,2,470.095,0.5555555555555556,1,object_06,1,1678,0,5,5,forest_24,1,memory-2step-stake-s,625,2149791,0.0-18.0-0.0-0.127,2225,4,3,low
384,3,object_02,object_03,1053.005,5,1,548.265,0.5555555555555556,1,object_06,5,1703,0,5,3,library_27,1,memory-2step-stake-s,627,2196546,0.0-18.0-0.1-0.128,2225,5,6,high
385,4,object_01,object_05,804.96,7,1,500.52,1.0,1,object_06,5,1748,0,9,5,restaurant_11,1,memory-2step-stake-s,628,2205209,0.0-18.0-0.1-0.129,2225,7,8,high
386,3,object_02,object_03,694.17,6,2,469.43,0.5555555555555556,2,object_08,1,1753,0,6,5,library_23,1,memory-2step-stake-s,629,2213417,0.0-18.0-0.1-0.130,2225,5,6,high
387,3,object_02,object_03,640.57,5,1,491.785,0.6666666666666666,1,object_06,5,1783,0,6,6,library_30,1,memory-2step-stake-s,630,2221765,0.0-18.0-0.1-0.131,2225,5,6,high
388,2,object_04,object_09,690.755,3,1,526.79,0.4444444444444444,1,object_06,1,1787,0,4,9,forest_18,1,memory-2step-stake-s,631,2229933,0.0-18.0-0.1-0.132,2225,3,4,low
389,2,object_09,object_04,824.52,3,2,464.29,0.2222222222222222,1,object_06,5,1797,0,2,9,forest_11,1,memory-2step-stake-s,632,2237834,0.0-18.0-0.1-0.133,2225,4,3,low
390,3,object_02,object_03,573.085,6,2,775.17,0.8888888888888888,2,object_08,1,1805,0,3,8,library_28,1,memory-2step-stake-s,633,2246658,0.0-18.0-0.1-0.134,2225,5,6,high
391,2,object_04,object_09,971.83,4,2,536.44,0.6666666666666666,2,object_08,1,1811,0,4,6,forest_26,1,memory-2step-stake-s,634,2255052,0.0-18.0-0.1-0.135,2225,3,4,low
392,3,object_03,object_02,646.32,6,1,557.045,0.6666666666666666,2,object_08,5,1841,0,3,6,library_17,1,memory-2step-stake-s,635,2263457,0.0-18.0-0.1-0.136,2225,6,5,high
393,2,object_04,object_09,703.0,4,2,577.875,0.7777777777777778,2,object_08,5,1876,0,4,7,forest_26,1,memory-2step-stake-s,636,2271987,0.0-18.0-0.1-0.137,2225,3,4,low
394,4,object_05,object_01,586.45,8,1,593.965,0.8888888888888888,2,object_08,5,1916,0,4,8,restaurant_16,1,memory-2step-stake-s,637,2280647,0.0-18.0-0.1-0.138,2225,8,7,high
395,2,object_04,object_09,753.245,4,2,521.315,0.8888888888888888,2,object_08,5,1956,0,3,8,forest_10,1,memory-2step-stake-s,638,2289232,0.0-18.0-0.1-0.139,2225,3,4,low
396,4,object_01,object_05,530.65,8,2,673.6,0.8888888888888888,2,object_08,5,1996,0,5,8,restaurant_10,1,memory-2step-stake-s,639,2297969,0.0-18.0-0.1-0.140,2225,7,8,high
397,1,object_07,object_10,1022.105,2,1,562.475,0.8888888888888888,2,object_08,1,2004,0,8,8,desert_24,1,memory-2step-stake-s,640,2306590,0.0-18.0-0.1-0.141,2225,2,1,low
398,2,object_09,object_04,637.37,4,1,422.27,0.8888888888888888,2,object_08,1,2012,0,6,8,forest_31,1,memory-2step-stake-s,641,2315076,0.0-18.0-0.1-0.142,2225,4,3,low
399,2,object_04,object_09,888.615,4,2,573.04,0.7777777777777778,2,object_08,1,2019,0,6,7,forest_24,1,memory-2step-stake-s,642,2323608,0.0-18.0-0.1-0.143,2225,3,4,low
400,2,object_04,object_09,625.785,4,2,563.115,0.6666666666666666,2,object_08,5,2049,0,4,6,forest_16,1,memory-2step-stake-s,643,2332021,0.0-18.0-0.1-0.144,2225,3,4,low
401,3,object_02,object_03,816.69,6,2,357.25,0.6666666666666666,2,object_08,5,2079,0,2,6,library_28,1,memory-2step-stake-s,644,2340235,0.0-18.0-0.1-0.145,2225,5,6,high
402,4,object_01,object_05,653.805,8,2,426.9,0.8888888888888888,2,object_08,5,2119,0,1,8,restaurant_13,1,memory-2step-stake-s,645,2348723,0.0-18.0-0.1-0.146,2225,7,8,high
403,1,object_10,object_07,900.865,2,2,464.57,0.4444444444444444,2,object_08,1,2123,0,2,4,desert_25,1,memory-2step-stake-s,646,2356825,0.0-18.0-0.1-0.147,2225,1,2,low
404,3,object_03,object_02,889.37,5,2,399.3,0.6666666666666666,1,object_06,5,2153,0,6,5,library_25,1,memory-2step-stake-s,647,2365076,0.0-18.0-0.1-0.148,2225,6,5,high
405,2,object_09,object_04,830.14,3,2,447.94,0.6666666666666666,1,object_06,1,2159,0,6,4,forest_10,1,memory-2step-stake-s,648,2373377,0.0-18.0-0.1-0.149,2225,4,3,low
406,3,object_03,object_02,628.535,5,2,437.63,0.5555555555555556,1,object_06,5,2184,0,5,2,library_28,1,memory-2step-stake-s,649,2381567,0.0-18.0-0.1-0.150,2225,6,5,high
407,2,object_09,object_04,906.095,4,1,446.925,0.3333333333333333,2,object_08,1,2187,0,5,3,forest_31,1,memory-2step-stake-s,650,2389550,0.0-18.0-0.1-0.151,2225,4,3,low
408,2,object_09,object_04,608.17,3,2,379.855,0.6666666666666666,1,object_06,5,2217,0,6,4,forest_5,1,memory-2step-stake-s,651,2397776,0.0-18.0-0.1-0.152,2225,4,3,low
409,2,object_04,object_09,949.54,3,1,438.315,0.8888888888888888,1,object_06,1,2225,0,8,1,forest_25,1,memory-2step-stake-s,652,2406268,0.0-18.0-0.1-0.153,2225,3,4,low
410,2,object_09,object_04,868.55,3,2,553.785,0.7777777777777778,1,object_06,5,2260,0,7,1,forest_5,1,memory-2step-stake-s,653,2414773,0.0-18.0-0.1-0.154,2225,4,3,low
411,2,object_09,object_04,570.425,3,2,713.77,0.8888888888888888,1,object_06,1,2268,0,8,0,forest_31,1,memory-2step-stake-s,654,2423552,0.0-18.0-0.1-0.155,2225,4,3,low
412,2,object_04,object_09,695.035,3,1,541.71,0.8888888888888888,1,object_06,1,2276,0,8,1,forest_31,1,memory-2step-stake-s,655,2432152,0.0-18.0-0.1-0.156,2225,3,4,low
413,1,object_07,object_10,905.44,1,2,419.73,1.0,1,object_06,1,2285,0,9,0,desert_13,1,memory-2step-stake-s,656,2440733,0.0-18.0-0.1-0.157,2225,2,1,low
414,1,object_10,object_07,567.1,1,1,505.815,0.7777777777777778,1,object_06,5,2320,0,7,1,desert_15,1,memory-2step-stake-s,657,2449179,0.0-18.0-0.1-0.158,2225,1,2,low
415,3,object_03,object_02,732.475,5,2,379.155,0.6666666666666666,1,object_06,5,2350,0,6,4,library_22,1,memory-2step-stake-s,658,2457412,0.0-18.0-0.1-0.159,2225,6,5,high
416,3,object_02,object_03,786.54,5,1,493.025,1.0,1,object_06,5,2395,0,9,4,library_25,1,memory-2step-stake-s,659,2466079,0.0-18.0-0.1-0.160,2225,5,6,high
417,1,object_10,object_07,824.705,1,1,527.87,0.7777777777777778,1,object_06,1,2402,0,7,7,desert_6,1,memory-2step-stake-s,660,2474572,0.0-18.0-0.1-0.161,2225,1,2,low
418,3,object_02,object_03,585.56,5,1,572.765,0.8888888888888888,1,object_06,5,2442,0,8,8,library_10,1,memory-2step-stake-s,661,2483214,0.0-18.0-0.1-0.162,2225,5,6,high
419,2,object_04,object_09,689.575,3,1,647.005,0.7777777777777778,1,object_06,1,2449,0,7,6,forest_25,1,memory-2step-stake-s,662,2491806,0.0-18.0-0.1-0.163,2225,3,4,low
420,3,object_03,object_02,731.845,5,2,467.52,0.4444444444444444,1,object_06,1,2453,0,4,4,library_5,1,memory-2step-stake-s,663,2499922,0.0-18.0-0.1-0.164,2225,6,5,high
421,4,object_05,object_01,718.34,8,1,435.63,0.2222222222222222,2,object_08,5,2463,0,7,2,restaurant_16,1,memory-2step-stake-s,664,2507791,0.0-18.0-0.1-0.165,2225,8,7,high
422,3,object_03,object_02,611.325,5,2,422.285,0.6666666666666666,1,object_06,5,2493,0,6,5,library_10,1,memory-2step-stake-s,665,2516055,0.0-18.0-0.1-0.166,2225,6,5,high
423,2,object_09,object_04,916.345,3,2,467.965,0.5555555555555556,1,object_06,1,2498,0,5,6,forest_30,1,memory-2step-stake-s,666,2524269,0.0-18.0-0.1-0.167,2225,4,3,low
424,1,object_07,object_10,805.275,1,2,607.225,0.4444444444444444,1,object_06,1,2502,0,4,7,desert_32,1,memory-2step-stake-s,667,2532518,0.0-18.0-0.1-0.168,2225,2,1,low
425,1,object_10,object_07,739.295,2,2,614.655,0.6666666666666666,2,object_08,1,2508,0,2,6,desert_28,1,memory-2step-stake-s,668,2540988,0.0-18.0-0.1-0.169,2225,1,2,low
426,1,object_07,object_10,715.94,2,1,432.875,0.4444444444444444,2,object_08,1,2512,0,1,4,desert_20,1,memory-2step-stake-s,669,2549061,0.0-18.0-0.1-0.170,2225,2,1,low
427,4,object_05,object_01,528.74,8,1,475.085,0.4444444444444444,2,object_08,5,2532,0,0,4,restaurant_18,1,memory-2step-stake-s,670,2557183,0.0-18.0-0.1-0.171,2225,8,7,high
428,2,object_09,object_04,674.2,3,2,527.31,0.0,1,object_06,1,2532,0,0,2,forest_12,1,memory-2step-stake-s,671,2564946,0.0-18.0-0.1-0.172,2225,4,3,low
429,3,object_02,object_03,663.27,6,2,366.955,0.2222222222222222,2,object_08,5,2542,0,2,2,library_15,1,memory-2step-stake-s,672,2572741,0.0-18.0-0.1-0.173,2225,5,6,high
430,1,object_07,object_10,1006.215,2,1,656.675,0.1111111111111111,2,object_08,1,2543,0,1,1,desert_20,1,memory-2step-stake-s,673,2580727,0.0-18.0-0.1-0.174,2225,2,1,low
431,4,object_01,object_05,630.01,7,1,610.555,0.3333333333333333,1,object_06,1,2546,0,3,2,restaurant_1,1,memory-2step-stake-s,674,2588880,0.0-18.0-0.1-0.175,2225,7,8,high
432,4,object_05,object_01,628.65,7,2,483.145,0.5555555555555556,1,object_06,5,2571,0,5,5,restaurant_32,1,memory-2step-stake-s,675,2597112,0.0-18.0-0.1-0.176,2225,8,7,high
433,1,object_10,object_07,587.31,1,1,571.68,0.7777777777777778,1,object_06,1,2578,0,7,4,desert_20,1,memory-2step-stake-s,676,2605636,0.0-18.0-0.1-0.177,2225,1,2,low
434,2,object_09,object_04,801.17,3,2,487.235,0.5555555555555556,1,object_06,1,2583,0,5,1,forest_2,1,memory-2step-stake-s,677,2613862,0.0-18.0-0.1-0.178,2225,4,3,low
435,4,object_05,object_01,592.08,7,2,452.77,0.4444444444444444,1,object_06,5,2603,0,4,1,restaurant_9,1,memory-2step-stake-s,678,2621961,0.0-18.0-0.1-0.179,2225,8,7,high
436,1,object_10,object_07,1008.835,2,2,657.79,0.3333333333333333,2,object_08,1,2606,0,3,3,desert_26,1,memory-2step-stake-s,679,2630157,0.0-18.0-0.1-0.180,2225,1,2,low
437,1,object_10,object_07,839.13,1,1,544.99,0.1111111111111111,1,object_06,1,2607,0,1,4,desert_3,1,memory-2step-stake-s,680,2638037,0.0-18.0-0.1-0.181,2225,1,2,low
438,1,object_10,object_07,699.34,2,2,668.29,0.5555555555555556,2,object_08,1,2612,0,0,5,desert_24,1,memory-2step-stake-s,681,2646455,0.0-18.0-0.1-0.182,2225,1,2,low
439,4,object_05,object_01,678.74,8,1,1081.045,0.6666666666666666,2,object_08,5,2642,0,1,6,restaurant_9,1,memory-2step-stake-s,682,2655390,0.0-18.0-0.1-0.183,2225,8,7,high
440,4,object_05,object_01,654.635,8,1,653.565,0.7777777777777778,2,object_08,5,2677,0,0,7,restaurant_12,1,memory-2step-stake-s,683,2664009,0.0-18.0-0.1-0.184,2225,8,7,high
441,1,object_10,object_07,687.6,2,2,428.11,0.8888888888888888,2,object_08,1,2685,0,0,8,desert_30,1,memory-2step-stake-s,684,2672507,0.0-18.0-0.1-0.185,2225,1,2,low
442,2,object_09,object_04,664.285,4,1,531.15,1.0,2,object_08,1,2694,0,4,9,forest_30,1,memory-2step-stake-s,685,2681214,0.0-18.0-0.1-0.186,2225,4,3,low
443,3,object_02,object_03,501.68,6,2,474.47,0.8888888888888888,2,object_08,1,2702,0,3,8,library_15,1,memory-2step-stake-s,686,2689761,0.0-18.0-0.1-0.187,2225,5,6,high
444,1,object_07,object_10,982.405,2,1,580.6,1.0,2,object_08,1,2711,0,3,9,desert_30,1,memory-2step-stake-s,687,2698509,0.0-18.0-0.1-0.188,2225,2,1,low
445,1,object_10,object_07,1293.905,1,1,840.065,0.2222222222222222,1,object_06,1,2713,0,2,7,desert_3,1,memory-2step-stake-s,688,2706788,0.0-18.0-0.1-0.189,2225,1,2,low
446,3,object_03,object_02,646.68,6,1,425.99,0.5555555555555556,2,object_08,1,2718,0,3,5,library_20,1,memory-2step-stake-s,689,2714966,0.0-18.0-0.1-0.190,2225,6,5,high
447,3,object_02,object_03,719.32,6,2,507.88,0.5555555555555556,2,object_08,5,2743,0,0,5,library_20,1,memory-2step-stake-s,690,2723223,0.0-18.0-0.1-0.191,2225,5,6,high
448,1,object_07,object_10,828.085,2,1,496.59,0.8888888888888888,2,object_08,1,2751,0,1,8,desert_6,1,memory-2step-stake-s,691,2731777,0.0-18.0-0.1-0.192,2225,2,1,low
449,3,object_03,object_02,670.16,6,1,486.95,0.6666666666666666,2,object_08,5,2781,0,1,6,library_20,1,memory-2step-stake-s,692,2740114,0.0-18.0-0.1-0.193,2225,6,5,high
450,2,object_09,object_04,740.41,4,1,407.36,0.8888888888888888,2,object_08,1,2789,0,6,8,forest_5,1,memory-2step-stake-s,693,2748578,0.0-18.0-0.1-0.194,2225,4,3,low
451,3,object_02,object_03,489.71,6,2,498.145,0.8888888888888888,2,object_08,5,2829,0,7,8,library_7,1,memory-2step-stake-s,694,2757141,0.0-18.0-0.1-0.195,2225,5,6,high
452,4,object_05,object_01,499.87,8,1,610.48,1.0,2,object_08,1,2838,0,9,9,restaurant_25,1,memory-2step-stake-s,695,2765924,0.0-18.0-0.1-0.196,2225,8,7,high
453,1,object_07,object_10,605.385,2,1,503.43,0.6666666666666666,2,object_08,5,2868,0,6,6,desert_29,1,memory-2step-stake-s,696,2774283,0.0-18.0-0.1-0.197,2225,2,1,low
454,4,object_01,object_05,702.54,8,2,433.28,0.4444444444444444,2,object_08,5,2888,0,8,4,restaurant_25,1,memory-2step-stake-s,697,2782364,0.0-18.0-0.1-0.198,2225,7,8,high
455,1,object_07,object_10,692.595,1,2,509.815,0.7777777777777778,1,object_06,1,2895,0,7,5,desert_32,1,memory-2step-stake-s,698,2790837,0.0-18.0-0.1-0.199,2225,2,1,low
456,2,object_04,object_09,995.7,4,2,557.495,0.5555555555555556,2,object_08,1,2900,0,9,5,forest_8,1,memory-2step-stake-s,699,2799140,0.0-18.0-0.1-0.200,2225,3,4,low
457,1,object_07,object_10,617.86,2,1,680.43,0.6666666666666666,2,object_08,1,2906,0,8,6,desert_30,1,memory-2step-stake-s,700,2807672,0.0-18.0-0.1-0.201,2225,2,1,low
458,2,object_04,object_09,1164.6,3,1,597.065,0.6666666666666666,1,object_06,1,2912,0,6,7,forest_12,1,memory-2step-stake-s,701,2816133,0.0-18.0-0.1-0.202,2225,3,4,low
459,1,object_10,object_07,1126.275,1,1,401.68,0.6666666666666666,1,object_06,1,2918,0,6,8,desert_20,1,memory-2step-stake-s,702,2824378,0.0-18.0-0.1-0.203,2225,1,2,low
460,4,object_01,object_05,749.605,7,1,428.33,0.7777777777777778,1,object_06,5,2953,0,7,9,restaurant_11,1,memory-2step-stake-s,703,2832764,0.0-18.0-0.1-0.204,2225,7,8,high
461,4,object_01,object_05,741.095,7,1,647.685,0.7777777777777778,1,object_06,5,2988,0,7,7,restaurant_18,1,memory-2step-stake-s,704,2841376,0.0-18.0-0.1-0.205,2225,7,8,high
462,2,object_09,object_04,1160.515,3,2,618.33,1.0,1,object_06,1,2997,0,9,5,forest_11,1,memory-2step-stake-s,705,2850168,0.0-18.0-0.1-0.206,2225,4,3,low
463,1,object_07,object_10,763.035,1,2,668.01,1.0,1,object_06,1,3006,0,9,4,desert_29,1,memory-2step-stake-s,706,2858991,0.0-18.0-0.1-0.207,2225,2,1,low
464,3,object_03,object_02,537.415,5,2,566.015,0.8888888888888888,1,object_06,5,3046,0,8,6,library_25,1,memory-2step-stake-s,707,2867624,0.0-18.0-0.1-0.208,2225,6,5,high
465,2,object_09,object_04,704.355,3,2,478.19,0.8888888888888888,1,object_06,1,3054,0,8,2,forest_5,1,memory-2step-stake-s,708,2876158,0.0-18.0-0.1-0.209,2225,4,3,low
466,2,object_04,object_09,744.99,4,2,579.87,0.1111111111111111,2,object_08,1,3055,0,8,1,forest_25,1,memory-2step-stake-s,709,2884069,0.0-18.0-0.1-0.210,2225,3,4,low
467,3,object_02,object_03,1263.065,5,1,532.455,0.7777777777777778,1,object_06,5,3090,0,7,5,library_8,1,memory-2step-stake-s,710,2892556,0.0-18.0-0.1-0.211,2225,5,6,high
468,4,object_01,object_05,543.25,7,1,520.935,0.8888888888888888,1,object_06,5,3130,0,8,5,restaurant_19,1,memory-2step-stake-s,711,2901136,0.0-18.0-0.1-0.212,2225,7,8,high
469,2,object_09,object_04,594.73,3,2,579.09,0.7777777777777778,1,object_06,1,3137,0,7,9,forest_15,1,memory-2step-stake-s,712,2909679,0.0-18.0-0.1-0.213,2225,4,3,low
470,4,object_01,object_05,457.25,7,1,538.005,0.8888888888888888,1,object_06,1,3145,0,8,8,restaurant_11,1,memory-2step-stake-s,713,2918284,0.0-18.0-0.1-0.214,2225,7,8,high
471,4,object_01,object_05,517.26,7,1,637.4,0.7777777777777778,1,object_06,5,3180,0,7,6,restaurant_19,1,memory-2step-stake-s,714,2926888,0.0-18.0-0.1-0.215,2225,7,8,high
472,2,object_04,object_09,744.36,3,1,559.965,1.0,1,object_06,1,3189,0,9,7,forest_10,1,memory-2step-stake-s,715,2935618,0.0-18.0-0.1-0.216,2225,3,4,low
473,3,object_02,object_03,698.34,5,1,451.82,0.6666666666666666,1,object_06,1,3195,0,6,3,library_13,1,memory-2step-stake-s,716,2943931,0.0-18.0-0.1-0.217,2225,5,6,high
474,1,object_07,object_10,913.015,2,1,432.17,0.3333333333333333,2,object_08,1,3198,0,8,3,desert_27,1,memory-2step-stake-s,717,2951908,0.0-18.0-0.1-0.218,2225,2,1,low
475,3,object_03,object_02,547.92,5,2,426.125,1.0,1,object_06,5,3243,0,9,6,library_7,1,memory-2step-stake-s,718,2960505,0.0-18.0-0.1-0.219,2225,6,5,high
476,2,object_09,object_04,762.705,3,2,519.405,0.7777777777777778,1,object_06,1,3250,0,7,4,forest_2,1,memory-2step-stake-s,719,2968986,0.0-18.0-0.1-0.220,2225,4,3,low
477,1,object_07,object_10,689.555,1,2,559.945,0.8888888888888888,1,object_06,5,3290,0,8,3,desert_28,1,memory-2step-stake-s,720,2977604,0.0-18.0-0.1-0.221,2225,2,1,low
478,3,object_02,object_03,631.635,5,1,524.825,0.8888888888888888,1,object_06,5,3330,0,8,4,library_1,1,memory-2step-stake-s,721,2986199,0.0-18.0-0.1-0.222,2225,5,6,high
479,3,object_03,object_02,550.115,5,2,538.61,0.8888888888888888,1,object_06,5,3370,0,8,5,library_20,1,memory-2step-stake-s,722,2994807,0.0-18.0-0.1-0.223,2225,6,5,high
480,4,object_01,object_05,602.76,7,1,461.525,1.0,1,object_06,5,3415,0,9,7,restaurant_21,1,memory-2step-stake-s,723,3003434,0.0-18.0-0.1-0.224,2225,7,8,high
481,1,object_07,object_10,1230.13,1,2,533.765,0.7777777777777778,1,object_06,1,3422,0,7,7,desert_10,1,memory-2step-stake-s,724,3011932,0.0-18.0-0.1-0.225,2225,2,1,low
482,1,object_10,object_07,936.875,2,2,471.73,0.7777777777777778,2,object_08,1,3429,0,7,7,desert_24,1,memory-2step-stake-s,725,3020360,0.0-18.0-0.1-0.226,2225,1,2,low
483,2,object_04,object_09,660.595,3,1,507.19,1.0,1,object_06,1,3438,0,9,6,forest_11,1,memory-2step-stake-s,726,3029010,0.0-18.0-0.1-0.227,2225,3,4,low
484,3,object_02,object_03,510.69,5,1,706.385,0.7777777777777778,1,object_06,5,3473,0,7,7,library_25,1,memory-2step-stake-s,727,3037661,0.0-18.0-0.1-0.228,2225,5,6,high
485,2,object_04,object_09,574.91,4,2,448.34,0.7777777777777778,2,object_08,1,3480,0,5,7,forest_18,1,memory-2step-stake-s,728,3046064,0.0-18.0-0.1-0.229,2225,3,4,low
486,4,object_01,object_05,921.365,8,2,683.435,0.7777777777777778,2,object_08,5,3515,0,9,7,restaurant_15,1,memory-2step-stake-s,729,3054694,0.0-18.0-0.1-0.230,2225,7,8,high
487,4,object_05,object_01,760.63,7,2,409.645,0.7777777777777778,1,object_06,5,3550,0,7,7,restaurant_12,1,memory-2step-stake-s,730,3063070,0.0-18.0-0.1-0.231,2225,8,7,high
488,2,object_04,object_09,564.36,4,2,477.975,0.8888888888888888,2,object_08,1,3558,0,6,8,forest_4,1,memory-2step-stake-s,731,3071603,0.0-18.0-0.1-0.232,2225,3,4,low
489,2,object_09,object_04,758.415,3,2,391.96,0.8888888888888888,1,object_06,1,3566,0,8,7,forest_30,1,memory-2step-stake-s,732,3080049,0.0-18.0-0.1-0.233,2225,4,3,low
490,4,object_05,object_01,673.795,8,1,423.425,0.6666666666666666,2,object_08,1,3572,0,8,6,restaurant_13,1,memory-2step-stake-s,733,3088334,0.0-18.0-0.1-0.234,2225,8,7,high
491,2,object_09,object_04,544.815,3,2,497.085,0.7777777777777778,1,object_06,5,3607,0,7,3,forest_11,1,memory-2step-stake-s,734,3096782,0.0-18.0-0.1-0.235,2225,4,3,low
492,2,object_04,object_09,692.26,4,2,433.71,0.0,2,object_08,1,3607,0,8,0,forest_18,1,memory-2step-stake-s,735,3104442,0.0-18.0-0.1-0.236,2225,3,4,low
493,1,object_10,object_07,1008.115,1,1,502.195,0.8888888888888888,1,object_06,1,3615,0,8,2,desert_25,1,memory-2step-stake-s,736,3113005,0.0-18.0-0.1-0.237,2225,1,2,low
494,1,object_10,object_07,623.645,1,1,562.89,0.8888888888888888,1,object_06,1,3623,0,8,3,desert_15,1,memory-2step-stake-s,737,3121632,0.0-18.0-0.1-0.238,2225,1,2,low
495,3,object_02,object_03,693.93,5,1,649.915,0.7777777777777778,1,object_06,5,3658,0,7,3,library_15,1,memory-2step-stake-s,738,3130240,0.0-18.0-0.1-0.239,2225,5,6,high
496,4,object_01,object_05,704.67,7,1,490.68,0.4444444444444444,1,object_06,5,3678,0,4,3,restaurant_18,1,memory-2step-stake-s,739,3138367,0.0-18.0-0.1-0.240,2225,7,8,high
497,1,object_07,object_10,610.17,2,1,437.265,0.4444444444444444,2,object_08,1,3682,0,7,4,desert_1,1,memory-2step-stake-s,740,3146460,0.0-18.0-0.1-0.241,2225,2,1,low
498,3,object_03,object_02,554.96,5,2,483.25,1.0,1,object_06,1,3691,0,9,2,library_1,1,memory-2step-stake-s,741,3155110,0.0-18.0-0.1-0.242,2225,6,5,high
499,2,object_09,object_04,918.185,3,2,465.735,1.0,1,object_06,1,3700,0,9,0,forest_8,1,memory-2step-stake-s,742,3163729,0.0-18.0-0.1-0.243,2225,4,3,low
500,4,object_05,object_01,744.815,7,2,419.985,0.6666666666666666,1,object_06,5,3730,0,6,1,restaurant_21,1,memory-2step-stake-s,743,3172008,0.0-18.0-0.1-0.244,2225,8,7,high
501,2,object_04,object_09,982.48,3,1,490.265,0.5555555555555556,1,object_06,5,3755,0,5,2,forest_30,1,memory-2step-stake-s,744,3180245,0.0-18.0-0.1-0.245,2225,3,4,low
502,2,object_04,object_09,528.34,4,2,425.415,0.0,2,object_08,1,3755,0,6,0,forest_12,1,memory-2step-stake-s,745,3187901,0.0-18.0-0.1-0.246,2225,3,4,low
503,3,object_03,object_02,655.175,5,2,400.82,0.6666666666666666,1,object_06,1,3761,0,6,1,library_22,1,memory-2step-stake-s,746,3196151,0.0-18.0-0.1-0.247,2225,6,5,high
504,4,object_05,object_01,661.455,7,2,472.695,0.6666666666666666,1,object_06,5,3791,0,6,3,restaurant_21,1,memory-2step-stake-s,747,3204471,0.0-18.0-0.1-0.248,2225,8,7,high
505,3,object_03,object_02,917.295,5,2,474.905,0.5555555555555556,1,object_06,5,3816,0,5,1,library_7,1,memory-2step-stake-s,748,3212684,0.0-18.0-0.1-0.249,2225,6,5,high
506,2,object_09,object_04,720.39,4,1,567.44,0.1111111111111111,2,object_08,1,3817,0,2,1,forest_24,1,memory-2step-stake-s,749,3220586,0.0-18.0-0.1-0.250,2225,4,3,low
507,1,object_07,object_10,754.6,1,2,374.915,0.5555555555555556,1,object_06,1,3822,0,5,1,desert_3,1,memory-2step-stake-s,750,3228713,0.0-18.0-0.1-0.251,2225,2,1,low
508,2,object_04,object_09,747.77,3,1,-1.0,0.0,1,object_06,1,3822,0,7,5,forest_15,1,memory-2step-stake-s,751,3237243,0.0-18.0-0.1-0.252,2225,3,4,low
509,2,object_09,object_04,625.035,3,2,481.655,1.0,1,object_06,1,3831,0,9,5,forest_15,1,memory-2step-stake-s,752,3245887,0.0-18.0-0.1-0.253,2225,4,3,low
510,4,object_01,object_05,523.08,7,1,540.53,0.7777777777777778,1,object_06,5,3866,0,7,3,restaurant_9,1,memory-2step-stake-s,753,3254390,0.0-18.0-0.1-0.254,2225,7,8,high
511,4,object_01,object_05,570.665,7,1,525.2,1.0,1,object_06,1,3875,0,9,3,restaurant_9,1,memory-2step-stake-s,754,3263082,0.0-18.0-0.1-0.255,2225,7,8,high
512,4,object_05,object_10,937.715,8,1,679.3,0.8888888888888888,2,object_06,1,8,0,1,8,restaurant_18,2,memory-2step-stake-s,497,1230228,0.0-18.0-0.0-0.0,4192,8,7,low
513,2,object_08,object_04,860.095,4,2,641.59,0.7777777777777778,2,object_06,5,43,0,2,7,forest_7,2,memory-2step-stake-s,498,1238832,0.0-18.0-0.0-0.1,4192,3,4,high
514,2,object_04,object_08,912.425,4,1,740.975,0.7777777777777778,2,object_06,5,78,0,4,7,forest_14,2,memory-2step-stake-s,499,1247530,0.0-18.0-0.0-0.2,4192,4,3,high
515,4,object_05,object_10,725.525,7,2,696.89,0.3333333333333333,1,object_01,1,81,0,3,7,restaurant_21,2,memory-2step-stake-s,500,1255769,0.0-18.0-0.0-0.3,4192,8,7,low
516,4,object_05,object_10,1087.19,8,1,687.905,0.7777777777777778,2,object_06,1,88,0,0,7,restaurant_3,2,memory-2step-stake-s,501,1264410,0.0-18.0-0.0-0.4,4192,8,7,low
517,3,object_09,object_07,1172.685,6,2,1282.385,1.0,2,object_06,1,97,0,1,9,library_6,2,memory-2step-stake-s,502,1273859,0.0-18.0-0.0-0.5,4192,5,6,low
518,4,object_05,object_10,1329.885,8,1,596.615,1.0,2,object_06,1,106,0,3,9,restaurant_7,2,memory-2step-stake-s,503,1282613,0.0-18.0-0.0-0.6,4192,8,7,low
519,2,object_04,object_08,1118.285,4,1,605.25,0.7777777777777778,2,object_06,1,113,0,5,7,forest_5,2,memory-2step-stake-s,504,1291184,0.0-18.0-0.0-0.7,4192,4,3,high
520,2,object_08,object_04,919.32,4,2,593.485,0.6666666666666666,2,object_06,5,143,0,2,6,forest_24,2,memory-2step-stake-s,505,1299631,0.0-18.0-0.0-0.8,4192,3,4,high
521,1,object_02,object_03,1268.05,1,1,634.22,0.4444444444444444,1,object_01,5,163,0,4,7,desert_14,2,memory-2step-stake-s,506,1307913,0.0-18.0-0.0-0.9,4192,1,2,high
522,3,object_09,object_07,1273.19,5,1,491.395,0.4444444444444444,1,object_01,1,167,0,4,9,library_29,2,memory-2step-stake-s,507,1316052,0.0-18.0-0.0-0.10,4192,5,6,low
523,4,object_10,object_05,1344.13,7,1,103.995,0.8888888888888888,1,object_01,1,175,0,8,8,restaurant_9,2,memory-2step-stake-s,508,1324212,0.0-18.0-0.0-0.11,4192,7,8,low
524,3,object_09,object_07,555.965,5,1,225.825,0.8888888888888888,1,object_01,1,183,0,8,6,library_11,2,memory-2step-stake-s,509,1332507,0.0-18.0-0.0-0.12,4192,5,6,low
525,4,object_05,object_10,966.89,8,1,747.145,0.6666666666666666,2,object_06,1,189,0,8,6,restaurant_8,2,memory-2step-stake-s,510,1341097,0.0-18.0-0.0-0.13,4192,8,7,low
526,3,object_09,object_07,957.49,6,2,757.01,0.8888888888888888,2,object_06,5,229,0,8,8,library_9,2,memory-2step-stake-s,511,1349915,0.0-18.0-0.0-0.14,4192,5,6,low
527,3,object_09,object_07,1154.41,5,1,959.55,0.8888888888888888,1,object_01,5,269,0,8,6,library_2,2,memory-2step-stake-s,512,1358936,0.0-18.0-0.0-0.15,4192,5,6,low
528,1,object_02,object_03,1132.375,2,2,749.93,0.6666666666666666,2,object_06,5,299,0,8,6,desert_12,2,memory-2step-stake-s,513,1367539,0.0-18.0-0.0-0.16,4192,1,2,high
529,3,object_09,object_07,798.555,5,1,540.98,0.7777777777777778,1,object_01,1,306,0,7,6,library_29,2,memory-2step-stake-s,514,1376030,0.0-18.0-0.0-0.17,4192,5,6,low
530,3,object_07,object_09,795.845,5,2,464.24,0.7777777777777778,1,object_01,5,341,0,7,5,library_14,2,memory-2step-stake-s,515,1384439,0.0-18.0-0.0-0.18,4192,6,5,low
531,1,object_02,object_03,1064.64,1,1,650.375,0.6666666666666666,1,object_01,5,371,0,6,7,desert_5,2,memory-2step-stake-s,516,1392934,0.0-18.0-0.0-0.19,4192,1,2,high
532,2,object_04,object_08,1102.835,4,1,865.5,0.4444444444444444,2,object_06,5,391,0,6,4,forest_12,2,memory-2step-stake-s,517,1401447,0.0-18.0-0.0-0.20,4192,4,3,high
533,3,object_09,object_07,-1.0,-1,-1,-1.0,0.0,-,,1,391,0,9,3,library_2,2,memory-2step-stake-s,518,1407973,0.0-18.0-0.0-0.21,4192,5,6,low
534,3,object_09,object_07,557.885,5,1,673.64,0.7777777777777778,1,object_01,1,398,0,7,3,library_14,2,memory-2step-stake-s,519,1416603,0.0-18.0-0.0-0.22,4192,5,6,low
535,2,object_08,object_04,1022.985,3,1,229.12,0.6666666666666666,1,object_01,1,404,0,6,6,forest_6,2,memory-2step-stake-s,520,1424680,0.0-18.0-0.0-0.23,4192,3,4,high
536,4,object_05,object_10,694.86,7,2,72.11499999,0.7777777777777778,1,object_01,1,411,0,7,5,restaurant_18,2,memory-2step-stake-s,521,1432715,0.0-18.0-0.0-0.24,4192,8,7,low
537,3,object_09,object_07,664.725,5,1,877.68,0.8888888888888888,1,object_01,1,419,0,8,7,library_11,2,memory-2step-stake-s,522,1441657,0.0-18.0-0.0-0.25,4192,5,6,low
538,2,object_08,object_04,1302.29,4,2,778.72,0.8888888888888888,2,object_06,5,459,0,9,8,forest_15,2,memory-2step-stake-s,523,1450500,0.0-18.0-0.0-0.26,4192,3,4,high
539,2,object_04,object_08,1397.47,4,1,16.45499998,0.6666666666666666,2,object_06,5,489,0,6,6,forest_7,2,memory-2step-stake-s,524,1458370,0.0-18.0-0.0-0.27,4192,4,3,high
540,4,object_10,object_05,1409.36,8,2,46.23500002,0.4444444444444444,2,object_06,1,493,0,6,4,restaurant_2,2,memory-2step-stake-s,525,1466059,0.0-18.0-0.0-0.28,4192,7,8,low
541,3,object_09,object_07,675.175,5,1,882.525,0.4444444444444444,1,object_01,1,497,0,4,6,library_13,2,memory-2step-stake-s,526,1474586,0.0-18.0-0.0-0.29,4192,5,6,low
542,4,object_05,object_10,-1.0,-1,-1,-1.0,0.0,-,,1,497,0,6,1,restaurant_32,2,memory-2step-stake-s,527,1481108,0.0-18.0-0.0-0.30,4192,8,7,low
543,1,object_03,object_02,623.6,2,1,1191.29,0.0,2,object_06,5,497,0,3,0,desert_5,2,memory-2step-stake-s,528,1489530,0.0-18.0-0.0-0.31,4192,2,1,high
544,3,object_07,object_09,927.615,5,2,752.88,0.3333333333333333,1,object_01,5,512,0,3,2,library_14,2,memory-2step-stake-s,529,1497823,0.0-18.0-0.0-0.32,4192,6,5,low
545,3,object_07,object_09,629.91,5,2,635.6799999,0.2222222222222222,1,object_01,5,522,0,2,3,library_5,2,memory-2step-stake-s,530,1505898,0.0-18.0-0.0-0.33,4192,6,5,low
546,1,object_03,object_02,1492.365,1,2,646.945,0.2222222222222222,1,object_01,5,532,0,2,5,desert_29,2,memory-2step-stake-s,531,1513981,0.0-18.0-0.0-0.34,4192,2,1,high
547,2,object_08,object_04,1264.065,4,2,841.71,0.6666666666666666,2,object_06,5,562,0,4,6,forest_3,2,memory-2step-stake-s,532,1522673,0.0-18.0-0.0-0.35,4192,3,4,high
548,1,object_02,object_03,1307.63,2,2,199.515,0.5555555555555556,2,object_06,5,587,0,8,5,desert_22,2,memory-2step-stake-s,533,1530615,0.0-18.0-0.0-0.36,4192,1,2,high
549,1,object_03,object_02,850.87,1,2,269.525,0.5555555555555556,1,object_01,5,612,0,5,2,desert_29,2,memory-2step-stake-s,534,1538634,0.0-18.0-0.0-0.37,4192,2,1,high
550,3,object_07,object_09,697.405,6,1,1235.81,0.1111111111111111,2,object_06,1,613,0,4,1,library_5,2,memory-2step-stake-s,535,1547212,0.0-18.0-0.0-0.38,4192,6,5,low
551,4,object_05,object_10,740.33,7,2,923.905,0.4444444444444444,1,object_01,1,617,0,4,2,restaurant_16,2,memory-2step-stake-s,536,1555778,0.0-18.0-0.0-0.39,4192,8,7,low
552,3,object_07,object_09,391.65,6,1,336.375,0.1111111111111111,2,object_06,1,618,0,0,1,library_22,2,memory-2step-stake-s,537,1563449,0.0-18.0-0.0-0.40,4192,6,5,low
553,1,object_03,object_02,969.93,1,2,10.69000002,0.2222222222222222,1,object_01,5,628,0,2,2,desert_8,2,memory-2step-stake-s,538,1570904,0.0-18.0-0.0-0.41,4192,2,1,high
554,2,object_04,object_08,976.675,4,1,699.7,0.1111111111111111,2,object_06,5,633,0,5,1,forest_25,2,memory-2step-stake-s,539,1578942,0.0-18.0-0.0-0.42,4192,4,3,high
555,1,object_03,object_02,-1.0,-1,-1,-1.0,0.0,-,,5,633,0,8,0,desert_16,2,memory-2step-stake-s,540,1585466,0.0-18.0-0.0-0.43,4192,2,1,high
556,2,object_08,object_04,1157.815,3,1,99.01000001,0.7777777777777778,1,object_01,5,668,0,7,1,forest_2,2,memory-2step-stake-s,541,1593522,0.0-18.0-0.0-0.44,4192,3,4,high
557,1,object_03,object_02,1317.175,2,1,538.275,0.4444444444444444,2,object_06,5,688,0,7,4,desert_6,2,memory-2step-stake-s,542,1601706,0.0-18.0-0.0-0.45,4192,2,1,high
558,1,object_02,object_03,1037.375,1,1,93.21000002,0.4444444444444444,1,object_01,5,708,0,4,1,desert_6,2,memory-2step-stake-s,543,1609441,0.0-18.0-0.0-0.46,4192,1,2,high
559,3,object_07,object_09,961.63,5,2,815.235,0.3333333333333333,1,object_01,1,711,0,3,1,library_25,2,memory-2step-stake-s,544,1617802,0.0-18.0-0.0-0.47,4192,6,5,low
560,4,object_10,object_05,1208.175,7,1,180.415,0.2222222222222222,1,object_01,5,721,0,2,1,restaurant_22,2,memory-2step-stake-s,545,1625429,0.0-18.0-0.0-0.48,4192,7,8,low
561,4,object_05,object_10,1051.015,7,2,628.905,0.6666666666666666,1,object_01,1,727,0,6,3,restaurant_23,2,memory-2step-stake-s,546,1633906,0.0-18.0-0.0-0.49,4192,8,7,low
562,1,object_03,object_02,855.755,1,2,600.36,0.8888888888888888,1,object_01,5,767,0,8,8,desert_5,2,memory-2step-stake-s,547,1642561,0.0-18.0-0.0-0.50,4192,2,1,high
563,3,object_07,object_09,608.83,6,1,6.730000023,0.7777777777777778,2,object_06,1,774,0,5,7,library_11,2,memory-2step-stake-s,548,1650519,0.0-18.0-0.0-0.51,4192,6,5,low
564,2,object_08,object_04,746.445,3,1,870.98,0.4444444444444444,1,object_01,5,794,0,4,5,forest_20,2,memory-2step-stake-s,549,1659036,0.0-18.0-0.0-0.52,4192,3,4,high
565,4,object_05,object_10,846.46,7,2,179.12,0.7777777777777778,1,object_01,1,801,0,7,8,restaurant_16,2,memory-2step-stake-s,550,1667170,0.0-18.0-0.0-0.53,4192,8,7,low
566,4,object_05,object_10,618.67,7,2,696.28,0.8888888888888888,1,object_01,1,809,0,8,8,restaurant_14,2,memory-2step-stake-s,551,1675929,0.0-18.0-0.0-0.54,4192,8,7,low
567,4,object_10,object_05,564.845,7,1,-1.0,0.0,1,object_01,1,809,0,8,8,restaurant_4,2,memory-2step-stake-s,552,1684462,0.0-18.0-0.0-0.55,4192,7,8,low
568,2,object_08,object_04,694.34,3,1,307.465,0.8888888888888888,1,object_01,5,849,0,8,8,forest_13,2,memory-2step-stake-s,553,1692819,0.0-18.0-0.0-0.56,4192,3,4,high
569,3,object_09,object_07,636.16,6,2,289.3,0.7777777777777778,2,object_06,1,856,0,8,7,library_4,2,memory-2step-stake-s,554,1701062,0.0-18.0-0.0-0.57,4192,5,6,low
570,1,object_02,object_03,604.835,1,1,1149.785,0.8888888888888888,1,object_01,5,896,0,8,7,desert_8,2,memory-2step-stake-s,555,1710270,0.0-18.0-0.0-0.58,4192,1,2,high
571,1,object_03,object_02,991.105,1,2,506.69,1.0,1,object_01,5,941,0,9,6,desert_4,2,memory-2step-stake-s,556,1718937,0.0-18.0-0.0-0.59,4192,2,1,high
572,2,object_04,object_08,638.86,3,2,659.75,1.0,1,object_01,5,986,0,9,6,forest_3,2,memory-2step-stake-s,557,1727760,0.0-18.0-0.0-0.60,4192,4,3,high
573,3,object_09,object_07,533.77,6,2,251.205,0.4444444444444444,2,object_06,1,990,0,9,4,library_5,2,memory-2step-stake-s,558,1735654,0.0-18.0-0.0-0.61,4192,5,6,low
574,3,object_07,object_09,680.01,5,2,818.37,0.7777777777777778,1,object_01,1,997,0,7,3,library_15,2,memory-2step-stake-s,559,1744435,0.0-18.0-0.0-0.62,4192,6,5,low
575,2,object_04,object_08,720.24,3,2,240.445,0.7777777777777778,1,object_01,5,1032,0,7,7,forest_7,2,memory-2step-stake-s,560,1752635,0.0-18.0-0.0-0.63,4192,4,3,high
576,2,object_04,object_08,1084.545,4,1,581.71,0.4444444444444444,2,object_06,5,1052,0,5,4,forest_11,2,memory-2step-stake-s,561,1760859,0.0-18.0-0.0-0.64,4192,4,3,high
577,2,object_08,object_04,1248.725,3,1,477.06,0.6666666666666666,1,object_01,5,1082,0,6,8,forest_6,2,memory-2step-stake-s,562,1769184,0.0-18.0-0.0-0.65,4192,3,4,high
578,4,object_05,object_10,1392.03,7,2,-1.0,0.0,1,object_01,1,1082,0,8,7,restaurant_18,2,memory-2step-stake-s,563,1777714,0.0-18.0-0.0-0.66,4192,8,7,low
579,1,object_02,object_03,854.85,1,1,69.86500003,0.8888888888888888,1,object_01,5,1122,0,8,8,desert_9,2,memory-2step-stake-s,564,1785839,0.0-18.0-0.0-0.67,4192,1,2,high
580,1,object_03,object_02,690.17,1,2,253.34,0.8888888888888888,1,object_01,1,1130,0,8,6,desert_16,2,memory-2step-stake-s,565,1794142,0.0-18.0-0.0-0.68,4192,2,1,high
581,4,object_05,object_10,775.925,7,2,404.835,0.7777777777777778,1,object_01,5,1165,0,7,3,restaurant_23,2,memory-2step-stake-s,566,1802486,0.0-18.0-0.0-0.69,4192,8,7,low
582,3,object_07,object_09,891.58,5,2,179.8,0.0,1,object_01,1,1165,0,0,1,library_5,2,memory-2step-stake-s,567,1809900,0.0-18.0-0.0-0.70,4192,6,5,low
583,3,object_07,object_09,899.385,6,1,257.655,0.2222222222222222,2,object_06,1,1167,0,0,2,library_27,2,memory-2step-stake-s,568,1817593,0.0-18.0-0.0-0.71,4192,6,5,low
584,1,object_02,object_03,826.46,2,2,368.5,0.4444444444444444,2,object_06,5,1187,0,4,4,desert_22,2,memory-2step-stake-s,569,1825607,0.0-18.0-0.0-0.72,4192,1,2,high
585,4,object_10,object_05,768.375,8,2,352.79,0.5555555555555556,2,object_06,5,1212,0,5,5,restaurant_32,2,memory-2step-stake-s,570,1833699,0.0-18.0-0.0-0.73,4192,7,8,low
586,4,object_10,object_05,957.32,8,2,815.585,0.8888888888888888,2,object_06,1,1220,0,6,8,restaurant_22,2,memory-2step-stake-s,571,1842568,0.0-18.0-0.0-0.74,4192,7,8,low
587,4,object_10,object_05,1094.52,8,2,565.44,1.0,2,object_06,1,1229,0,6,9,restaurant_14,2,memory-2step-stake-s,572,1851284,0.0-18.0-0.0-0.75,4192,7,8,low
588,4,object_10,object_05,880.175,8,2,177.585,0.4444444444444444,2,object_06,1,1233,0,3,4,restaurant_3,2,memory-2step-stake-s,573,1859101,0.0-18.0-0.0-0.76,4192,7,8,low
589,1,object_02,object_03,1010.85,2,2,126.06,0.3333333333333333,2,object_06,5,1248,0,2,3,desert_19,2,memory-2step-stake-s,574,1866778,0.0-18.0-0.0-0.77,4192,1,2,high
590,1,object_03,object_02,944.91,1,2,831.05,0.3333333333333333,1,object_01,5,1263,0,3,7,desert_29,2,memory-2step-stake-s,575,1875152,0.0-18.0-0.0-0.78,4192,2,1,high
591,1,object_03,object_02,1044.91,1,2,245.185,0.4444444444444444,1,object_01,1,1267,0,4,8,desert_12,2,memory-2step-stake-s,576,1883039,0.0-18.0-0.0-0.79,4192,2,1,high
592,1,object_03,object_02,750.56,1,2,104.67,0.5555555555555556,1,object_01,5,1292,0,5,9,desert_10,2,memory-2step-stake-s,577,1890896,0.0-18.0-0.0-0.80,4192,2,1,high
593,1,object_03,object_02,732.465,1,2,718.355,0.7777777777777778,1,object_01,5,1327,0,7,6,desert_12,2,memory-2step-stake-s,578,1899566,0.0-18.0-0.0-0.81,4192,2,1,high
594,3,object_07,object_09,1027.39,5,2,640.55,0.4444444444444444,1,object_01,1,1331,0,4,6,library_1,2,memory-2step-stake-s,579,1907856,0.0-18.0-0.0-0.82,4192,6,5,low
595,3,object_07,object_09,970.94,6,1,195.38,0.6666666666666666,2,object_06,5,1361,0,4,6,library_21,2,memory-2step-stake-s,580,1915907,0.0-18.0-0.0-0.83,4192,6,5,low
596,3,object_07,object_09,1137.79,6,1,539.205,0.5555555555555556,2,object_06,1,1366,0,7,5,library_22,2,memory-2step-stake-s,581,1924201,0.0-18.0-0.0-0.84,4192,6,5,low
597,3,object_07,object_09,808.02,5,2,602.54,0.7777777777777778,1,object_01,5,1401,0,7,4,library_13,2,memory-2step-stake-s,582,1932770,0.0-18.0-0.0-0.85,4192,6,5,low
598,1,object_03,object_02,930.64,1,2,688.96,0.7777777777777778,1,object_01,5,1436,0,7,5,desert_10,2,memory-2step-stake-s,583,1941410,0.0-18.0-0.0-0.86,4192,2,1,high
599,1,object_02,object_03,662.09,1,1,-1.0,0.0,1,object_01,5,1436,0,7,8,desert_31,2,memory-2step-stake-s,584,1949937,0.0-18.0-0.0-0.87,4192,1,2,high
600,3,object_07,object_09,723.58,5,2,635.46,0.7777777777777778,1,object_01,5,1471,0,7,8,library_9,2,memory-2step-stake-s,585,1958530,0.0-18.0-0.0-0.88,4192,6,5,low
601,3,object_07,object_09,547.48,5,2,40.42999999,0.7777777777777778,1,object_01,1,1478,0,7,9,library_32,2,memory-2step-stake-s,586,1966519,0.0-18.0-0.0-0.89,4192,6,5,low
602,3,object_07,object_09,653.25,5,2,157.505,0.8888888888888888,1,object_01,1,1486,0,8,7,library_6,2,memory-2step-stake-s,587,1974736,0.0-18.0-0.0-0.90,4192,6,5,low
603,3,object_07,object_09,696.835,5,2,-1.0,0.0,1,object_01,1,1486,0,8,9,library_2,2,memory-2step-stake-s,588,1983269,0.0-18.0-0.0-0.91,4192,6,5,low
604,3,object_07,object_09,812.985,5,2,444.285,0.7777777777777778,1,object_01,1,1493,0,7,8,library_9,2,memory-2step-stake-s,589,1991669,0.0-18.0-0.0-0.92,4192,6,5,low
605,4,object_05,object_10,653.81,7,2,441.58,1.0,1,object_01,1,1502,0,9,7,restaurant_9,2,memory-2step-stake-s,590,2000257,0.0-18.0-0.0-0.93,4192,8,7,low
606,4,object_10,object_05,465.88,8,2,213.975,1.0,2,object_06,1,1511,0,9,9,restaurant_22,2,memory-2step-stake-s,591,2008623,0.0-18.0-0.0-0.94,4192,7,8,low
607,1,object_03,object_02,741.53,2,1,280.455,0.8888888888888888,2,object_06,5,1551,0,9,8,desert_4,2,memory-2step-stake-s,592,2016962,0.0-18.0-0.0-0.95,4192,2,1,high
608,3,object_07,object_09,828.185,5,2,701.58,0.8888888888888888,1,object_01,1,1559,0,8,8,library_27,2,memory-2step-stake-s,593,2025717,0.0-18.0-0.0-0.96,4192,6,5,low
609,1,object_03,object_02,802.705,2,1,344.13,1.0,2,object_06,5,1604,0,8,9,desert_5,2,memory-2step-stake-s,594,2034216,0.0-18.0-0.0-0.97,4192,2,1,high
610,2,object_08,object_04,697.09,4,2,440.915,0.7777777777777778,2,object_06,5,1639,0,7,7,forest_5,2,memory-2step-stake-s,595,2042603,0.0-18.0-0.0-0.98,4192,3,4,high
611,4,object_10,object_05,594.68,7,1,1177.01,0.7777777777777778,1,object_01,1,1646,0,7,6,restaurant_23,2,memory-2step-stake-s,596,2051750,0.0-18.0-0.0-0.99,4192,7,8,low
612,1,object_03,object_02,751.215,2,1,358.735,0.6666666666666666,2,object_06,1,1652,0,4,6,desert_21,2,memory-2step-stake-s,597,2059961,0.0-18.0-0.0-0.100,4192,2,1,high
