,rt,response,task,backgroundImg,left_obj,right_obj,lure_or_no,trial_type,trial_index,time_elapsed,internal_node_id,subid,hitid,assignmentid,accuracy,background_stim,left_stim,right_stim,inside_or_outside,subject_high_arm,is_high_arm
0,1804.9000000358,2.0,memory_backgrounds,stimuli/forest/forest_2.jpg,stimuli/object_01.png,stimuli/object_06.png,lure,html-button-response,1207,3370545,0.0-26.0-1.0,AYDILOZLKOAS8,39O6Z4JLY5DL2UNJ70JKB6RMCJRXVU,3IRIK4HM3E0F6PVH5YKRALM0ND2C6O,1,forest_2,object_01,object_06,outside,inside,False
1,1576.4000000358,2.0,memory_backgrounds,stimuli/desert/desert_1.jpg,stimuli/object_04.png,stimuli/object_07.png,target,html-button-response,1209,3372624,0.0-26.0-1.1,AYDILOZLKOAS8,39O6Z4JLY5DL2UNJ70JKB6RMCJRXVU,3IRIK4HM3E0F6PVH5YKRALM0ND2C6O,0,desert_1,object_04,object_07,outside,inside,False
2,1445.0,0.0,memory_backgrounds,stimuli/forest/forest_3.jpg,stimuli/object_01.png,stimuli/object_06.png,target,html-button-response,1211,3374572,0.0-26.0-1.2,AYDILOZLKOAS8,39O6Z4JLY5DL2UNJ70JKB6RMCJRXVU,3IRIK4HM3E0F6PVH5YKRALM0ND2C6O,1,forest_3,object_01,object_06,outside,inside,False
3,1221.1999999881,0.0,memory_backgrounds,stimuli/library/library_2.jpg,stimuli/object_05.png,stimuli/object_02.png,target,html-button-response,1213,3376296,0.0-26.0-1.3,AYDILOZLKOAS8,39O6Z4JLY5DL2UNJ70JKB6RMCJRXVU,3IRIK4HM3E0F6PVH5YKRALM0ND2C6O,1,library_2,object_05,object_02,inside,inside,True
4,1617.6999999881,3.0,memory_backgrounds,stimuli/desert/desert_8.jpg,stimuli/object_04.png,stimuli/object_07.png,lure,html-button-response,1215,3378416,0.0-26.0-1.4,AYDILOZLKOAS8,39O6Z4JLY5DL2UNJ70JKB6RMCJRXVU,3IRIK4HM3E0F6PVH5YKRALM0ND2C6O,1,desert_8,object_04,object_07,outside,inside,False
5,1383.3000000119,1.0,memory_backgrounds,stimuli/restaurant/restaurant_7.jpg,stimuli/object_03.png,stimuli/object_10.png,lure,html-button-response,1217,3380301,0.0-26.0-1.5,AYDILOZLKOAS8,39O6Z4JLY5DL2UNJ70JKB6RMCJRXVU,3IRIK4HM3E0F6PVH5YKRALM0ND2C6O,0,restaurant_7,object_03,object_10,inside,inside,True
6,1553.5,1.0,memory_backgrounds,stimuli/library/library_5.jpg,stimuli/object_02.png,stimuli/object_05.png,target,html-button-response,1219,3382358,0.0-26.0-1.6,AYDILOZLKOAS8,39O6Z4JLY5DL2UNJ70JKB6RMCJRXVU,3IRIK4HM3E0F6PVH5YKRALM0ND2C6O,1,library_5,object_02,object_05,inside,inside,True
7,1230.3999999762,1.0,memory_backgrounds,stimuli/library/library_1.jpg,stimuli/object_05.png,stimuli/object_02.png,target,html-button-response,1221,3384089,0.0-26.0-1.7,AYDILOZLKOAS8,39O6Z4JLY5DL2UNJ70JKB6RMCJRXVU,3IRIK4HM3E0F6PVH5YKRALM0ND2C6O,1,library_1,object_05,object_02,inside,inside,True
8,1375.8999999762,2.0,memory_backgrounds,stimuli/desert/desert_1.jpg,stimuli/object_02.png,stimuli/object_05.png,lure_but_seen,html-button-response,1223,3385968,0.0-26.0-1.8,AYDILOZLKOAS8,39O6Z4JLY5DL2UNJ70JKB6RMCJRXVU,3IRIK4HM3E0F6PVH5YKRALM0ND2C6O,1,desert_1,object_02,object_05,outside,inside,False
9,1431.1000000238,3.0,memory_backgrounds,stimuli/desert/desert_6.jpg,stimuli/object_07.png,stimuli/object_04.png,lure,html-button-response,1225,3387902,0.0-26.0-1.9,AYDILOZLKOAS8,39O6Z4JLY5DL2UNJ70JKB6RMCJRXVU,3IRIK4HM3E0F6PVH5YKRALM0ND2C6O,1,desert_6,object_07,object_04,outside,inside,False
10,1104.3999999762,1.0,memory_backgrounds,stimuli/desert/desert_3.jpg,stimuli/object_10.png,stimuli/object_03.png,lure_but_seen,html-button-response,1227,3389508,0.0-26.0-1.10,AYDILOZLKOAS8,39O6Z4JLY5DL2UNJ70JKB6RMCJRXVU,3IRIK4HM3E0F6PVH5YKRALM0ND2C6O,0,desert_3,object_10,object_03,outside,inside,False
11,1391.6000000238,0.0,memory_backgrounds,stimuli/restaurant/restaurant_5.jpg,stimuli/object_03.png,stimuli/object_10.png,target,html-button-response,1229,3391402,0.0-26.0-1.11,AYDILOZLKOAS8,39O6Z4JLY5DL2UNJ70JKB6RMCJRXVU,3IRIK4HM3E0F6PVH5YKRALM0ND2C6O,1,restaurant_5,object_03,object_10,inside,inside,True
12,1113.6999999881,1.0,memory_backgrounds,stimuli/forest/forest_1.jpg,stimuli/object_01.png,stimuli/object_06.png,target,html-button-response,1231,3393017,0.0-26.0-1.12,AYDILOZLKOAS8,39O6Z4JLY5DL2UNJ70JKB6RMCJRXVU,3IRIK4HM3E0F6PVH5YKRALM0ND2C6O,1,forest_1,object_01,object_06,outside,inside,False
13,919.89999997616,1.0,memory_backgrounds,stimuli/library/library_1.jpg,stimuli/object_04.png,stimuli/object_07.png,lure_but_seen,html-button-response,1233,3394438,0.0-26.0-1.13,AYDILOZLKOAS8,39O6Z4JLY5DL2UNJ70JKB6RMCJRXVU,3IRIK4HM3E0F6PVH5YKRALM0ND2C6O,0,library_1,object_04,object_07,inside,inside,True
14,1135.8000000119,2.0,memory_backgrounds,stimuli/desert/desert_5.jpg,stimuli/object_07.png,stimuli/object_04.png,target,html-button-response,1235,3396076,0.0-26.0-1.14,AYDILOZLKOAS8,39O6Z4JLY5DL2UNJ70JKB6RMCJRXVU,3IRIK4HM3E0F6PVH5YKRALM0ND2C6O,0,desert_5,object_07,object_04,outside,inside,False
15,1181.6999999881,1.0,memory_backgrounds,stimuli/restaurant/restaurant_2.jpg,stimuli/object_10.png,stimuli/object_03.png,lure,html-button-response,1237,3397760,0.0-26.0-1.15,AYDILOZLKOAS8,39O6Z4JLY5DL2UNJ70JKB6RMCJRXVU,3IRIK4HM3E0F6PVH5YKRALM0ND2C6O,0,restaurant_2,object_10,object_03,inside,inside,True
16,2043.5,2.0,memory_backgrounds,stimuli/forest/forest_6.jpg,stimuli/object_01.png,stimuli/object_06.png,lure,html-button-response,1239,3400306,0.0-26.0-1.16,AYDILOZLKOAS8,39O6Z4JLY5DL2UNJ70JKB6RMCJRXVU,3IRIK4HM3E0F6PVH5YKRALM0ND2C6O,1,forest_6,object_01,object_06,outside,inside,False
17,1531.3999999762,2.0,memory_backgrounds,stimuli/forest/forest_7.jpg,stimuli/object_06.png,stimuli/object_01.png,lure,html-button-response,1241,3402340,0.0-26.0-1.17,AYDILOZLKOAS8,39O6Z4JLY5DL2UNJ70JKB6RMCJRXVU,3IRIK4HM3E0F6PVH5YKRALM0ND2C6O,1,forest_7,object_06,object_01,outside,inside,False
18,1297.2999999523,0.0,memory_backgrounds,stimuli/restaurant/restaurant_4.jpg,stimuli/object_01.png,stimuli/object_06.png,lure_but_seen,html-button-response,1243,3404139,0.0-26.0-1.18,AYDILOZLKOAS8,39O6Z4JLY5DL2UNJ70JKB6RMCJRXVU,3IRIK4HM3E0F6PVH5YKRALM0ND2C6O,0,restaurant_4,object_01,object_06,inside,inside,True
19,1073.3999999762,1.0,memory_backgrounds,stimuli/desert/desert_5.jpg,stimuli/object_01.png,stimuli/object_06.png,lure_but_seen,html-button-response,1245,3405715,0.0-26.0-1.19,AYDILOZLKOAS8,39O6Z4JLY5DL2UNJ70JKB6RMCJRXVU,3IRIK4HM3E0F6PVH5YKRALM0ND2C6O,0,desert_5,object_01,object_06,outside,inside,False
20,1656.9000000358,2.0,memory_backgrounds,stimuli/forest/forest_5.jpg,stimuli/object_06.png,stimuli/object_01.png,target,html-button-response,1247,3407874,0.0-26.0-1.20,AYDILOZLKOAS8,39O6Z4JLY5DL2UNJ70JKB6RMCJRXVU,3IRIK4HM3E0F6PVH5YKRALM0ND2C6O,0,forest_5,object_06,object_01,outside,inside,False
21,1036.0999999642,2.0,memory_backgrounds,stimuli/library/library_6.jpg,stimuli/object_05.png,stimuli/object_02.png,lure,html-button-response,1249,3409412,0.0-26.0-1.21,AYDILOZLKOAS8,39O6Z4JLY5DL2UNJ70JKB6RMCJRXVU,3IRIK4HM3E0F6PVH5YKRALM0ND2C6O,1,library_6,object_05,object_02,inside,inside,True
22,2391.5,2.0,memory_backgrounds,stimuli/library/library_2.jpg,stimuli/object_10.png,stimuli/object_03.png,lure_but_seen,html-button-response,1251,3412306,0.0-26.0-1.22,AYDILOZLKOAS8,39O6Z4JLY5DL2UNJ70JKB6RMCJRXVU,3IRIK4HM3E0F6PVH5YKRALM0ND2C6O,1,library_2,object_10,object_03,inside,inside,True
23,1638.8999999762,1.0,memory_backgrounds,stimuli/forest/forest_5.jpg,stimuli/object_03.png,stimuli/object_10.png,lure_but_seen,html-button-response,1253,3414447,0.0-26.0-1.23,AYDILOZLKOAS8,39O6Z4JLY5DL2UNJ70JKB6RMCJRXVU,3IRIK4HM3E0F6PVH5YKRALM0ND2C6O,0,forest_5,object_03,object_10,outside,inside,False
24,1733.7000000477,1.0,memory_backgrounds,stimuli/forest/forest_1.jpg,stimuli/object_05.png,stimuli/object_02.png,lure_but_seen,html-button-response,1255,3416684,0.0-26.0-1.24,AYDILOZLKOAS8,39O6Z4JLY5DL2UNJ70JKB6RMCJRXVU,3IRIK4HM3E0F6PVH5YKRALM0ND2C6O,0,forest_1,object_05,object_02,outside,inside,False
25,1478.1999999881,1.0,memory_backgrounds,stimuli/forest/forest_4.jpg,stimuli/object_07.png,stimuli/object_04.png,lure_but_seen,html-button-response,1257,3418663,0.0-26.0-1.25,AYDILOZLKOAS8,39O6Z4JLY5DL2UNJ70JKB6RMCJRXVU,3IRIK4HM3E0F6PVH5YKRALM0ND2C6O,0,forest_4,object_07,object_04,outside,inside,False
26,1445.5999999642,2.0,memory_backgrounds,stimuli/restaurant/restaurant_1.jpg,stimuli/object_07.png,stimuli/object_04.png,lure_but_seen,html-button-response,1259,3420611,0.0-26.0-1.26,AYDILOZLKOAS8,39O6Z4JLY5DL2UNJ70JKB6RMCJRXVU,3IRIK4HM3E0F6PVH5YKRALM0ND2C6O,1,restaurant_1,object_07,object_04,inside,inside,True
27,2023.7999999523,2.0,memory_backgrounds,stimuli/forest/forest_4.jpg,stimuli/object_06.png,stimuli/object_01.png,target,html-button-response,1261,3423137,0.0-26.0-1.27,AYDILOZLKOAS8,39O6Z4JLY5DL2UNJ70JKB6RMCJRXVU,3IRIK4HM3E0F6PVH5YKRALM0ND2C6O,0,forest_4,object_06,object_01,outside,inside,False
28,1746.7000000477,0.0,memory_backgrounds,stimuli/desert/desert_3.jpg,stimuli/object_07.png,stimuli/object_04.png,target,html-button-response,1263,3425386,0.0-26.0-1.28,AYDILOZLKOAS8,39O6Z4JLY5DL2UNJ70JKB6RMCJRXVU,3IRIK4HM3E0F6PVH5YKRALM0ND2C6O,1,desert_3,object_07,object_04,outside,inside,False
29,1259.5,2.0,memory_backgrounds,stimuli/desert/desert_2.jpg,stimuli/object_04.png,stimuli/object_07.png,lure,html-button-response,1265,3427147,0.0-26.0-1.29,AYDILOZLKOAS8,39O6Z4JLY5DL2UNJ70JKB6RMCJRXVU,3IRIK4HM3E0F6PVH5YKRALM0ND2C6O,1,desert_2,object_04,object_07,outside,inside,False
30,1114.0999999642,1.0,memory_backgrounds,stimuli/library/library_8.jpg,stimuli/object_02.png,stimuli/object_05.png,target,html-button-response,1267,3428763,0.0-26.0-1.30,AYDILOZLKOAS8,39O6Z4JLY5DL2UNJ70JKB6RMCJRXVU,3IRIK4HM3E0F6PVH5YKRALM0ND2C6O,1,library_8,object_02,object_05,inside,inside,True
31,1470.3000000119,1.0,memory_backgrounds,stimuli/restaurant/restaurant_4.jpg,stimuli/object_10.png,stimuli/object_03.png,target,html-button-response,1269,3430736,0.0-26.0-1.31,AYDILOZLKOAS8,39O6Z4JLY5DL2UNJ70JKB6RMCJRXVU,3IRIK4HM3E0F6PVH5YKRALM0ND2C6O,1,restaurant_4,object_10,object_03,inside,inside,True
32,1569.5,2.0,memory_backgrounds,stimuli/library/library_3.jpg,stimuli/object_02.png,stimuli/object_05.png,lure,html-button-response,1271,3432808,0.0-26.0-1.32,AYDILOZLKOAS8,39O6Z4JLY5DL2UNJ70JKB6RMCJRXVU,3IRIK4HM3E0F6PVH5YKRALM0ND2C6O,1,library_3,object_02,object_05,inside,inside,True
33,1188.8999999762,2.0,memory_backgrounds,stimuli/restaurant/restaurant_3.jpg,stimuli/object_10.png,stimuli/object_03.png,target,html-button-response,1273,3434500,0.0-26.0-1.33,AYDILOZLKOAS8,39O6Z4JLY5DL2UNJ70JKB6RMCJRXVU,3IRIK4HM3E0F6PVH5YKRALM0ND2C6O,0,restaurant_3,object_10,object_03,inside,inside,True
34,957.19999998808,1.0,memory_backgrounds,stimuli/restaurant/restaurant_6.jpg,stimuli/object_03.png,stimuli/object_10.png,lure,html-button-response,1275,3435960,0.0-26.0-1.34,AYDILOZLKOAS8,39O6Z4JLY5DL2UNJ70JKB6RMCJRXVU,3IRIK4HM3E0F6PVH5YKRALM0ND2C6O,0,restaurant_6,object_03,object_10,inside,inside,True
35,1437.7000000477,2.0,memory_backgrounds,stimuli/library/library_4.jpg,stimuli/object_02.png,stimuli/object_05.png,lure,html-button-response,1277,3437900,0.0-26.0-1.35,AYDILOZLKOAS8,39O6Z4JLY5DL2UNJ70JKB6RMCJRXVU,3IRIK4HM3E0F6PVH5YKRALM0ND2C6O,1,library_4,object_02,object_05,inside,inside,True
36,847.39999997616,1.0,memory_backgrounds,stimuli/restaurant/restaurant_8.jpg,stimuli/object_10.png,stimuli/object_03.png,lure,html-button-response,1279,3439249,0.0-26.0-1.36,AYDILOZLKOAS8,39O6Z4JLY5DL2UNJ70JKB6RMCJRXVU,3IRIK4HM3E0F6PVH5YKRALM0ND2C6O,0,restaurant_8,object_10,object_03,inside,inside,True
37,1399.3999999762,2.0,memory_backgrounds,stimuli/library/library_7.jpg,stimuli/object_05.png,stimuli/object_02.png,lure,html-button-response,1281,3441152,0.0-26.0-1.37,AYDILOZLKOAS8,39O6Z4JLY5DL2UNJ70JKB6RMCJRXVU,3IRIK4HM3E0F6PVH5YKRALM0ND2C6O,1,library_7,object_05,object_02,inside,inside,True
38,933.0,1.0,memory_backgrounds,stimuli/library/library_5.jpg,stimuli/object_06.png,stimuli/object_01.png,lure_but_seen,html-button-response,1283,3442587,0.0-26.0-1.38,AYDILOZLKOAS8,39O6Z4JLY5DL2UNJ70JKB6RMCJRXVU,3IRIK4HM3E0F6PVH5YKRALM0ND2C6O,0,library_5,object_06,object_01,inside,inside,True
39,1206.1000000238,2.0,memory_backgrounds,stimuli/desert/desert_4.jpg,stimuli/object_07.png,stimuli/object_04.png,lure,html-button-response,1285,3444296,0.0-26.0-1.39,AYDILOZLKOAS8,39O6Z4JLY5DL2UNJ70JKB6RMCJRXVU,3IRIK4HM3E0F6PVH5YKRALM0ND2C6O,1,desert_4,object_07,object_04,outside,inside,False
40,1345.0,1.0,memory_backgrounds,stimuli/desert/desert_7.jpg,stimuli/object_04.png,stimuli/object_07.png,target,html-button-response,1287,3446144,0.0-26.0-1.40,AYDILOZLKOAS8,39O6Z4JLY5DL2UNJ70JKB6RMCJRXVU,3IRIK4HM3E0F6PVH5YKRALM0ND2C6O,1,desert_7,object_04,object_07,outside,inside,False
41,1074.5,2.0,memory_backgrounds,stimuli/forest/forest_8.jpg,stimuli/object_06.png,stimuli/object_01.png,lure,html-button-response,1289,3447720,0.0-26.0-1.41,AYDILOZLKOAS8,39O6Z4JLY5DL2UNJ70JKB6RMCJRXVU,3IRIK4HM3E0F6PVH5YKRALM0ND2C6O,1,forest_8,object_06,object_01,outside,inside,False
42,879.19999998808,1.0,memory_backgrounds,stimuli/restaurant/restaurant_1.jpg,stimuli/object_03.png,stimuli/object_10.png,target,html-button-response,1291,3449101,0.0-26.0-1.42,AYDILOZLKOAS8,39O6Z4JLY5DL2UNJ70JKB6RMCJRXVU,3IRIK4HM3E0F6PVH5YKRALM0ND2C6O,1,restaurant_1,object_03,object_10,inside,inside,True
43,1190.5999999642,0.0,memory_backgrounds,stimuli/restaurant/restaurant_5.jpg,stimuli/object_02.png,stimuli/object_05.png,lure_but_seen,html-button-response,1293,3450794,0.0-26.0-1.43,AYDILOZLKOAS8,39O6Z4JLY5DL2UNJ70JKB6RMCJRXVU,3IRIK4HM3E0F6PVH5YKRALM0ND2C6O,0,restaurant_5,object_02,object_05,inside,inside,True
44,4357.8650000272,2.0,memory_backgrounds,stimuli/library/library_5.jpg,stimuli/object_05.png,stimuli/object_10.png,lure,html-button-response,1202,3889294,0.0-26.0-1.0,A3EA4SHCLJ1UZQ,39O6Z4JLY5DL2UNJ70JKB6RMCJRXVU,3Q8GYXHFETIJNLV30FAMIF80RIRC58,1,library_5,object_05,object_10,inside,outside,False
45,2101.3000000385,2.0,memory_backgrounds,stimuli/desert/desert_6.jpg,stimuli/object_08.png,stimuli/object_09.png,target,html-button-response,1204,3891902,0.0-26.0-1.1,A3EA4SHCLJ1UZQ,39O6Z4JLY5DL2UNJ70JKB6RMCJRXVU,3Q8GYXHFETIJNLV30FAMIF80RIRC58,0,desert_6,object_08,object_09,outside,outside,True
46,1521.6499999515,1.0,memory_backgrounds,stimuli/library/library_6.jpg,stimuli/object_05.png,stimuli/object_10.png,target,html-button-response,1206,3893930,0.0-26.0-1.2,A3EA4SHCLJ1UZQ,39O6Z4JLY5DL2UNJ70JKB6RMCJRXVU,3Q8GYXHFETIJNLV30FAMIF80RIRC58,1,library_6,object_05,object_10,inside,outside,False
47,2245.1700000092,1.0,memory_backgrounds,stimuli/forest/forest_7.jpg,stimuli/object_06.png,stimuli/object_02.png,target,html-button-response,1208,3896680,0.0-26.0-1.3,A3EA4SHCLJ1UZQ,39O6Z4JLY5DL2UNJ70JKB6RMCJRXVU,3Q8GYXHFETIJNLV30FAMIF80RIRC58,1,forest_7,object_06,object_02,outside,outside,True
48,1756.5700000268,2.0,memory_backgrounds,stimuli/library/library_2.jpg,stimuli/object_10.png,stimuli/object_05.png,lure,html-button-response,1210,3898943,0.0-26.0-1.4,A3EA4SHCLJ1UZQ,39O6Z4JLY5DL2UNJ70JKB6RMCJRXVU,3Q8GYXHFETIJNLV30FAMIF80RIRC58,1,library_2,object_10,object_05,inside,outside,False
49,1420.7349999924,3.0,memory_backgrounds,stimuli/desert/desert_1.jpg,stimuli/object_04.png,stimuli/object_01.png,lure_but_seen,html-button-response,1212,3900870,0.0-26.0-1.5,A3EA4SHCLJ1UZQ,39O6Z4JLY5DL2UNJ70JKB6RMCJRXVU,3Q8GYXHFETIJNLV30FAMIF80RIRC58,1,desert_1,object_04,object_01,outside,outside,True
50,4445.6099999952,2.0,memory_backgrounds,stimuli/restaurant/restaurant_8.jpg,stimuli/object_09.png,stimuli/object_08.png,lure_but_seen,html-button-response,1214,3905820,0.0-26.0-1.6,A3EA4SHCLJ1UZQ,39O6Z4JLY5DL2UNJ70JKB6RMCJRXVU,3Q8GYXHFETIJNLV30FAMIF80RIRC58,1,restaurant_8,object_09,object_08,inside,outside,False
51,1400.1400000416,1.0,memory_backgrounds,stimuli/forest/forest_3.jpg,stimuli/object_06.png,stimuli/object_02.png,lure,html-button-response,1216,3907724,0.0-26.0-1.7,A3EA4SHCLJ1UZQ,39O6Z4JLY5DL2UNJ70JKB6RMCJRXVU,3Q8GYXHFETIJNLV30FAMIF80RIRC58,0,forest_3,object_06,object_02,outside,outside,True
52,1386.5249999799,2.0,memory_backgrounds,stimuli/restaurant/restaurant_5.jpg,stimuli/object_01.png,stimuli/object_04.png,lure,html-button-response,1218,3909615,0.0-26.0-1.8,A3EA4SHCLJ1UZQ,39O6Z4JLY5DL2UNJ70JKB6RMCJRXVU,3Q8GYXHFETIJNLV30FAMIF80RIRC58,1,restaurant_5,object_01,object_04,inside,outside,False
53,1933.8049999787,0.0,memory_backgrounds,stimuli/restaurant/restaurant_4.jpg,stimuli/object_01.png,stimuli/object_04.png,target,html-button-response,1220,3912053,0.0-26.0-1.9,A3EA4SHCLJ1UZQ,39O6Z4JLY5DL2UNJ70JKB6RMCJRXVU,3Q8GYXHFETIJNLV30FAMIF80RIRC58,1,restaurant_4,object_01,object_04,inside,outside,False
54,1078.0800000066,1.0,memory_backgrounds,stimuli/library/library_4.jpg,stimuli/object_10.png,stimuli/object_05.png,target,html-button-response,1222,3913638,0.0-26.0-1.10,A3EA4SHCLJ1UZQ,39O6Z4JLY5DL2UNJ70JKB6RMCJRXVU,3Q8GYXHFETIJNLV30FAMIF80RIRC58,1,library_4,object_10,object_05,inside,outside,False
55,1476.1500000022,0.0,memory_backgrounds,stimuli/library/library_7.jpg,stimuli/object_02.png,stimuli/object_06.png,lure_but_seen,html-button-response,1224,3915620,0.0-26.0-1.11,A3EA4SHCLJ1UZQ,39O6Z4JLY5DL2UNJ70JKB6RMCJRXVU,3Q8GYXHFETIJNLV30FAMIF80RIRC58,0,library_7,object_02,object_06,inside,outside,False
56,1211.7750000325,1.0,memory_backgrounds,stimuli/forest/forest_6.jpg,stimuli/object_02.png,stimuli/object_06.png,lure,html-button-response,1226,3917336,0.0-26.0-1.12,A3EA4SHCLJ1UZQ,39O6Z4JLY5DL2UNJ70JKB6RMCJRXVU,3Q8GYXHFETIJNLV30FAMIF80RIRC58,0,forest_6,object_02,object_06,outside,outside,True
57,1641.8599999743,3.0,memory_backgrounds,stimuli/forest/forest_1.jpg,stimuli/object_02.png,stimuli/object_06.png,lure,html-button-response,1228,3919484,0.0-26.0-1.13,A3EA4SHCLJ1UZQ,39O6Z4JLY5DL2UNJ70JKB6RMCJRXVU,3Q8GYXHFETIJNLV30FAMIF80RIRC58,1,forest_1,object_02,object_06,outside,outside,True
58,1236.2799999537,3.0,memory_backgrounds,stimuli/restaurant/restaurant_6.jpg,stimuli/object_01.png,stimuli/object_04.png,lure,html-button-response,1230,3921226,0.0-26.0-1.14,A3EA4SHCLJ1UZQ,39O6Z4JLY5DL2UNJ70JKB6RMCJRXVU,3Q8GYXHFETIJNLV30FAMIF80RIRC58,1,restaurant_6,object_01,object_04,inside,outside,False
59,1057.4699999997,3.0,memory_backgrounds,stimuli/desert/desert_3.jpg,stimuli/object_08.png,stimuli/object_09.png,lure,html-button-response,1232,3922790,0.0-26.0-1.15,A3EA4SHCLJ1UZQ,39O6Z4JLY5DL2UNJ70JKB6RMCJRXVU,3Q8GYXHFETIJNLV30FAMIF80RIRC58,1,desert_3,object_08,object_09,outside,outside,True
60,1397.5300000166,0.0,memory_backgrounds,stimuli/library/library_7.jpg,stimuli/object_05.png,stimuli/object_10.png,target,html-button-response,1234,3924692,0.0-26.0-1.16,A3EA4SHCLJ1UZQ,39O6Z4JLY5DL2UNJ70JKB6RMCJRXVU,3Q8GYXHFETIJNLV30FAMIF80RIRC58,1,library_7,object_05,object_10,inside,outside,False
61,1863.2950000465,0.0,memory_backgrounds,stimuli/restaurant/restaurant_1.jpg,stimuli/object_04.png,stimuli/object_01.png,target,html-button-response,1236,3927062,0.0-26.0-1.17,A3EA4SHCLJ1UZQ,39O6Z4JLY5DL2UNJ70JKB6RMCJRXVU,3Q8GYXHFETIJNLV30FAMIF80RIRC58,1,restaurant_1,object_04,object_01,inside,outside,False
62,1313.5950000142,0.0,memory_backgrounds,stimuli/desert/desert_7.jpg,stimuli/object_06.png,stimuli/object_02.png,lure_but_seen,html-button-response,1238,3928882,0.0-26.0-1.18,A3EA4SHCLJ1UZQ,39O6Z4JLY5DL2UNJ70JKB6RMCJRXVU,3Q8GYXHFETIJNLV30FAMIF80RIRC58,0,desert_7,object_06,object_02,outside,outside,True
63,1926.0099999956,2.0,memory_backgrounds,stimuli/library/library_3.jpg,stimuli/object_10.png,stimuli/object_05.png,target,html-button-response,1240,3931311,0.0-26.0-1.19,A3EA4SHCLJ1UZQ,39O6Z4JLY5DL2UNJ70JKB6RMCJRXVU,3Q8GYXHFETIJNLV30FAMIF80RIRC58,0,library_3,object_10,object_05,inside,outside,False
64,1422.8550000116,0.0,memory_backgrounds,stimuli/restaurant/restaurant_3.jpg,stimuli/object_04.png,stimuli/object_01.png,target,html-button-response,1242,3933237,0.0-26.0-1.20,A3EA4SHCLJ1UZQ,39O6Z4JLY5DL2UNJ70JKB6RMCJRXVU,3Q8GYXHFETIJNLV30FAMIF80RIRC58,1,restaurant_3,object_04,object_01,inside,outside,False
65,1115.449999983,2.0,memory_backgrounds,stimuli/library/library_3.jpg,stimuli/object_08.png,stimuli/object_09.png,lure_but_seen,html-button-response,1244,3934855,0.0-26.0-1.21,A3EA4SHCLJ1UZQ,39O6Z4JLY5DL2UNJ70JKB6RMCJRXVU,3Q8GYXHFETIJNLV30FAMIF80RIRC58,1,library_3,object_08,object_09,inside,outside,False
66,1428.3549999818,3.0,memory_backgrounds,stimuli/desert/desert_5.jpg,stimuli/object_09.png,stimuli/object_08.png,lure,html-button-response,1246,3936788,0.0-26.0-1.22,A3EA4SHCLJ1UZQ,39O6Z4JLY5DL2UNJ70JKB6RMCJRXVU,3Q8GYXHFETIJNLV30FAMIF80RIRC58,1,desert_5,object_09,object_08,outside,outside,True
67,1066.7249999824,3.0,memory_backgrounds,stimuli/forest/forest_2.jpg,stimuli/object_06.png,stimuli/object_02.png,target,html-button-response,1248,3938359,0.0-26.0-1.23,A3EA4SHCLJ1UZQ,39O6Z4JLY5DL2UNJ70JKB6RMCJRXVU,3Q8GYXHFETIJNLV30FAMIF80RIRC58,0,forest_2,object_06,object_02,outside,outside,True
68,1398.9799999981,3.0,memory_backgrounds,stimuli/desert/desert_1.jpg,stimuli/object_09.png,stimuli/object_08.png,target,html-button-response,1250,3940262,0.0-26.0-1.24,A3EA4SHCLJ1UZQ,39O6Z4JLY5DL2UNJ70JKB6RMCJRXVU,3Q8GYXHFETIJNLV30FAMIF80RIRC58,0,desert_1,object_09,object_08,outside,outside,True
69,1834.530000051,1.0,memory_backgrounds,stimuli/restaurant/restaurant_7.jpg,stimuli/object_04.png,stimuli/object_01.png,lure,html-button-response,1252,3942604,0.0-26.0-1.25,A3EA4SHCLJ1UZQ,39O6Z4JLY5DL2UNJ70JKB6RMCJRXVU,3Q8GYXHFETIJNLV30FAMIF80RIRC58,0,restaurant_7,object_04,object_01,inside,outside,False
70,2187.4149999931,1.0,memory_backgrounds,stimuli/forest/forest_4.jpg,stimuli/object_02.png,stimuli/object_06.png,target,html-button-response,1254,3945294,0.0-26.0-1.26,A3EA4SHCLJ1UZQ,39O6Z4JLY5DL2UNJ70JKB6RMCJRXVU,3Q8GYXHFETIJNLV30FAMIF80RIRC58,1,forest_4,object_02,object_06,outside,outside,True
71,1154.3250000104,1.0,memory_backgrounds,stimuli/restaurant/restaurant_8.jpg,stimuli/object_01.png,stimuli/object_04.png,target,html-button-response,1256,3946954,0.0-26.0-1.27,A3EA4SHCLJ1UZQ,39O6Z4JLY5DL2UNJ70JKB6RMCJRXVU,3Q8GYXHFETIJNLV30FAMIF80RIRC58,1,restaurant_8,object_01,object_04,inside,outside,False
72,946.72499998705,1.0,memory_backgrounds,stimuli/restaurant/restaurant_2.jpg,stimuli/object_04.png,stimuli/object_01.png,lure,html-button-response,1258,3948405,0.0-26.0-1.28,A3EA4SHCLJ1UZQ,39O6Z4JLY5DL2UNJ70JKB6RMCJRXVU,3Q8GYXHFETIJNLV30FAMIF80RIRC58,0,restaurant_2,object_04,object_01,inside,outside,False
73,1404.3800000218,2.0,memory_backgrounds,stimuli/library/library_8.jpg,stimuli/object_10.png,stimuli/object_05.png,lure,html-button-response,1260,3950314,0.0-26.0-1.29,A3EA4SHCLJ1UZQ,39O6Z4JLY5DL2UNJ70JKB6RMCJRXVU,3Q8GYXHFETIJNLV30FAMIF80RIRC58,1,library_8,object_10,object_05,inside,outside,False
74,1386.4250000333,2.0,memory_backgrounds,stimuli/desert/desert_6.jpg,stimuli/object_05.png,stimuli/object_10.png,lure_but_seen,html-button-response,1262,3952206,0.0-26.0-1.30,A3EA4SHCLJ1UZQ,39O6Z4JLY5DL2UNJ70JKB6RMCJRXVU,3Q8GYXHFETIJNLV30FAMIF80RIRC58,1,desert_6,object_05,object_10,outside,outside,True
75,1060.9800000093,1.0,memory_backgrounds,stimuli/desert/desert_8.jpg,stimuli/object_09.png,stimuli/object_08.png,lure,html-button-response,1264,3953770,0.0-26.0-1.31,A3EA4SHCLJ1UZQ,39O6Z4JLY5DL2UNJ70JKB6RMCJRXVU,3Q8GYXHFETIJNLV30FAMIF80RIRC58,0,desert_8,object_09,object_08,outside,outside,True
76,1835.4349999572,3.0,memory_backgrounds,stimuli/forest/forest_8.jpg,stimuli/object_09.png,stimuli/object_08.png,lure_but_seen,html-button-response,1266,3956110,0.0-26.0-1.32,A3EA4SHCLJ1UZQ,39O6Z4JLY5DL2UNJ70JKB6RMCJRXVU,3Q8GYXHFETIJNLV30FAMIF80RIRC58,1,forest_8,object_09,object_08,outside,outside,True
77,1537.7800000133,3.0,memory_backgrounds,stimuli/library/library_1.jpg,stimuli/object_05.png,stimuli/object_10.png,lure,html-button-response,1268,3958155,0.0-26.0-1.33,A3EA4SHCLJ1UZQ,39O6Z4JLY5DL2UNJ70JKB6RMCJRXVU,3Q8GYXHFETIJNLV30FAMIF80RIRC58,1,library_1,object_05,object_10,inside,outside,False
78,2880.0150000025,1.0,memory_backgrounds,stimuli/library/library_4.jpg,stimuli/object_04.png,stimuli/object_01.png,lure_but_seen,html-button-response,1270,3961538,0.0-26.0-1.34,A3EA4SHCLJ1UZQ,39O6Z4JLY5DL2UNJ70JKB6RMCJRXVU,3Q8GYXHFETIJNLV30FAMIF80RIRC58,0,library_4,object_04,object_01,inside,outside,False
79,1367.4149999861,2.0,memory_backgrounds,stimuli/desert/desert_7.jpg,stimuli/object_09.png,stimuli/object_08.png,target,html-button-response,1272,3963408,0.0-26.0-1.35,A3EA4SHCLJ1UZQ,39O6Z4JLY5DL2UNJ70JKB6RMCJRXVU,3Q8GYXHFETIJNLV30FAMIF80RIRC58,0,desert_7,object_09,object_08,outside,outside,True
80,1315.4849999701,1.0,memory_backgrounds,stimuli/forest/forest_8.jpg,stimuli/object_02.png,stimuli/object_06.png,target,html-button-response,1274,3965227,0.0-26.0-1.36,A3EA4SHCLJ1UZQ,39O6Z4JLY5DL2UNJ70JKB6RMCJRXVU,3Q8GYXHFETIJNLV30FAMIF80RIRC58,1,forest_8,object_02,object_06,outside,outside,True
81,899.21000000322,2.0,memory_backgrounds,stimuli/desert/desert_4.jpg,stimuli/object_08.png,stimuli/object_09.png,target,html-button-response,1276,3966632,0.0-26.0-1.37,A3EA4SHCLJ1UZQ,39O6Z4JLY5DL2UNJ70JKB6RMCJRXVU,3Q8GYXHFETIJNLV30FAMIF80RIRC58,0,desert_4,object_08,object_09,outside,outside,True
82,1148.9149999688,2.0,memory_backgrounds,stimuli/restaurant/restaurant_4.jpg,stimuli/object_05.png,stimuli/object_10.png,lure_but_seen,html-button-response,1278,3968284,0.0-26.0-1.38,A3EA4SHCLJ1UZQ,39O6Z4JLY5DL2UNJ70JKB6RMCJRXVU,3Q8GYXHFETIJNLV30FAMIF80RIRC58,1,restaurant_4,object_05,object_10,inside,outside,False
83,465.96000000136,2.0,memory_backgrounds,stimuli/restaurant/restaurant_1.jpg,stimuli/object_06.png,stimuli/object_02.png,lure_but_seen,html-button-response,1280,3969254,0.0-26.0-1.39,A3EA4SHCLJ1UZQ,39O6Z4JLY5DL2UNJ70JKB6RMCJRXVU,3Q8GYXHFETIJNLV30FAMIF80RIRC58,1,restaurant_1,object_06,object_02,inside,outside,False
84,922.84500005189,2.0,memory_backgrounds,stimuli/desert/desert_2.jpg,stimuli/object_08.png,stimuli/object_09.png,lure,html-button-response,1282,3970682,0.0-26.0-1.40,A3EA4SHCLJ1UZQ,39O6Z4JLY5DL2UNJ70JKB6RMCJRXVU,3Q8GYXHFETIJNLV30FAMIF80RIRC58,1,desert_2,object_08,object_09,outside,outside,True
85,979.80999998981,2.0,memory_backgrounds,stimuli/forest/forest_7.jpg,stimuli/object_10.png,stimuli/object_05.png,lure_but_seen,html-button-response,1284,3972165,0.0-26.0-1.41,A3EA4SHCLJ1UZQ,39O6Z4JLY5DL2UNJ70JKB6RMCJRXVU,3Q8GYXHFETIJNLV30FAMIF80RIRC58,1,forest_7,object_10,object_05,outside,outside,True
86,1006.2050000415,1.0,memory_backgrounds,stimuli/forest/forest_5.jpg,stimuli/object_06.png,stimuli/object_02.png,lure,html-button-response,1286,3973676,0.0-26.0-1.42,A3EA4SHCLJ1UZQ,39O6Z4JLY5DL2UNJ70JKB6RMCJRXVU,3Q8GYXHFETIJNLV30FAMIF80RIRC58,0,forest_5,object_06,object_02,outside,outside,True
87,908.92499999609,1.0,memory_backgrounds,stimuli/forest/forest_4.jpg,stimuli/object_01.png,stimuli/object_04.png,lure_but_seen,html-button-response,1288,3975088,0.0-26.0-1.43,A3EA4SHCLJ1UZQ,39O6Z4JLY5DL2UNJ70JKB6RMCJRXVU,3Q8GYXHFETIJNLV30FAMIF80RIRC58,0,forest_4,object_01,object_04,outside,outside,True
88,3402.0,1.0,memory_backgrounds,stimuli/forest/forest_1.jpg,stimuli/object_09.png,stimuli/object_01.png,lure_but_seen,html-button-response,1220,3215464,0.0-26.0-1.0,A28T38MOUG43YD,3HRWUH63RXIZS6U0Z3EY966PXK25N4,3WI0P0II658IX0ZFXII05MVE5ANDR3,0,forest_1,object_09,object_01,outside,inside,False
89,1338.3999999985,3.0,memory_backgrounds,stimuli/restaurant/restaurant_5.jpg,stimuli/object_01.png,stimuli/object_09.png,lure,html-button-response,1222,3217306,0.0-26.0-1.1,A28T38MOUG43YD,3HRWUH63RXIZS6U0Z3EY966PXK25N4,3WI0P0II658IX0ZFXII05MVE5ANDR3,1,restaurant_5,object_01,object_09,inside,inside,True
90,1016.0999999996,0.0,memory_backgrounds,stimuli/restaurant/restaurant_1.jpg,stimuli/object_09.png,stimuli/object_01.png,target,html-button-response,1224,3218823,0.0-26.0-1.2,A28T38MOUG43YD,3HRWUH63RXIZS6U0Z3EY966PXK25N4,3WI0P0II658IX0ZFXII05MVE5ANDR3,1,restaurant_1,object_09,object_01,inside,inside,True
91,858.0,0.0,memory_backgrounds,stimuli/forest/forest_6.jpg,stimuli/object_05.png,stimuli/object_04.png,lure_but_seen,html-button-response,1226,3220183,0.0-26.0-1.3,A28T38MOUG43YD,3HRWUH63RXIZS6U0Z3EY966PXK25N4,3WI0P0II658IX0ZFXII05MVE5ANDR3,0,forest_6,object_05,object_04,outside,inside,False
92,865.80000000075,2.0,memory_backgrounds,stimuli/restaurant/restaurant_4.jpg,stimuli/object_01.png,stimuli/object_09.png,target,html-button-response,1228,3221550,0.0-26.0-1.4,A28T38MOUG43YD,3HRWUH63RXIZS6U0Z3EY966PXK25N4,3WI0P0II658IX0ZFXII05MVE5ANDR3,0,restaurant_4,object_01,object_09,inside,inside,True
93,941.40000000037,3.0,memory_backgrounds,stimuli/restaurant/restaurant_6.jpg,stimuli/object_01.png,stimuli/object_09.png,target,html-button-response,1230,3222994,0.0-26.0-1.5,A28T38MOUG43YD,3HRWUH63RXIZS6U0Z3EY966PXK25N4,3WI0P0II658IX0ZFXII05MVE5ANDR3,0,restaurant_6,object_01,object_09,inside,inside,True
94,1688.0999999996,2.0,memory_backgrounds,stimuli/library/library_6.jpg,stimuli/object_05.png,stimuli/object_04.png,target,html-button-response,1232,3225184,0.0-26.0-1.6,A28T38MOUG43YD,3HRWUH63RXIZS6U0Z3EY966PXK25N4,3WI0P0II658IX0ZFXII05MVE5ANDR3,0,library_6,object_05,object_04,inside,inside,True
95,551.19999999925,0.0,memory_backgrounds,stimuli/forest/forest_8.jpg,stimuli/object_08.png,stimuli/object_10.png,lure,html-button-response,1234,3226238,0.0-26.0-1.7,A28T38MOUG43YD,3HRWUH63RXIZS6U0Z3EY966PXK25N4,3WI0P0II658IX0ZFXII05MVE5ANDR3,0,forest_8,object_08,object_10,outside,inside,False
96,482.30000000075,1.0,memory_backgrounds,stimuli/library/library_1.jpg,stimuli/object_05.png,stimuli/object_04.png,target,html-button-response,1236,3227223,0.0-26.0-1.8,A28T38MOUG43YD,3HRWUH63RXIZS6U0Z3EY966PXK25N4,3WI0P0II658IX0ZFXII05MVE5ANDR3,1,library_1,object_05,object_04,inside,inside,True
97,1882.5,2.0,memory_backgrounds,stimuli/desert/desert_7.jpg,stimuli/object_03.png,stimuli/object_07.png,lure,html-button-response,1238,3229608,0.0-26.0-1.9,A28T38MOUG43YD,3HRWUH63RXIZS6U0Z3EY966PXK25N4,3WI0P0II658IX0ZFXII05MVE5ANDR3,1,desert_7,object_03,object_07,outside,inside,False
98,1347.3999999985,0.0,memory_backgrounds,stimuli/library/library_8.jpg,stimuli/object_04.png,stimuli/object_05.png,target,html-button-response,1240,3231459,0.0-26.0-1.10,A28T38MOUG43YD,3HRWUH63RXIZS6U0Z3EY966PXK25N4,3WI0P0II658IX0ZFXII05MVE5ANDR3,1,library_8,object_04,object_05,inside,inside,True
99,704.29999999888,1.0,memory_backgrounds,stimuli/desert/desert_1.jpg,stimuli/object_01.png,stimuli/object_09.png,lure_but_seen,html-button-response,1242,3232665,0.0-26.0-1.11,A28T38MOUG43YD,3HRWUH63RXIZS6U0Z3EY966PXK25N4,3WI0P0II658IX0ZFXII05MVE5ANDR3,0,desert_1,object_01,object_09,outside,inside,False
100,669.09999999963,3.0,memory_backgrounds,stimuli/restaurant/restaurant_3.jpg,stimuli/object_01.png,stimuli/object_09.png,lure,html-button-response,1244,3233836,0.0-26.0-1.12,A28T38MOUG43YD,3HRWUH63RXIZS6U0Z3EY966PXK25N4,3WI0P0II658IX0ZFXII05MVE5ANDR3,1,restaurant_3,object_01,object_09,inside,inside,True
101,745.09999999963,3.0,memory_backgrounds,stimuli/restaurant/restaurant_2.jpg,stimuli/object_09.png,stimuli/object_01.png,target,html-button-response,1246,3235084,0.0-26.0-1.13,A28T38MOUG43YD,3HRWUH63RXIZS6U0Z3EY966PXK25N4,3WI0P0II658IX0ZFXII05MVE5ANDR3,0,restaurant_2,object_09,object_01,inside,inside,True
102,637.90000000037,0.0,memory_backgrounds,stimuli/desert/desert_1.jpg,stimuli/object_07.png,stimuli/object_03.png,target,html-button-response,1248,3236224,0.0-26.0-1.14,A28T38MOUG43YD,3HRWUH63RXIZS6U0Z3EY966PXK25N4,3WI0P0II658IX0ZFXII05MVE5ANDR3,1,desert_1,object_07,object_03,outside,inside,False
103,1193.1999999993,2.0,memory_backgrounds,stimuli/forest/forest_7.jpg,stimuli/object_10.png,stimuli/object_08.png,lure,html-button-response,1250,3237920,0.0-26.0-1.15,A28T38MOUG43YD,3HRWUH63RXIZS6U0Z3EY966PXK25N4,3WI0P0II658IX0ZFXII05MVE5ANDR3,1,forest_7,object_10,object_08,outside,inside,False
104,893.30000000075,1.0,memory_backgrounds,stimuli/restaurant/restaurant_4.jpg,stimuli/object_08.png,stimuli/object_10.png,lure_but_seen,html-button-response,1252,3239315,0.0-26.0-1.16,A28T38MOUG43YD,3HRWUH63RXIZS6U0Z3EY966PXK25N4,3WI0P0II658IX0ZFXII05MVE5ANDR3,0,restaurant_4,object_08,object_10,inside,inside,True
105,796.30000000075,0.0,memory_backgrounds,stimuli/forest/forest_5.jpg,stimuli/object_08.png,stimuli/object_10.png,target,html-button-response,1254,3240613,0.0-26.0-1.17,A28T38MOUG43YD,3HRWUH63RXIZS6U0Z3EY966PXK25N4,3WI0P0II658IX0ZFXII05MVE5ANDR3,1,forest_5,object_08,object_10,outside,inside,False
106,930.70000000112,2.0,memory_backgrounds,stimuli/desert/desert_5.jpg,stimuli/object_08.png,stimuli/object_10.png,lure_but_seen,html-button-response,1256,3242046,0.0-26.0-1.18,A28T38MOUG43YD,3HRWUH63RXIZS6U0Z3EY966PXK25N4,3WI0P0II658IX0ZFXII05MVE5ANDR3,1,desert_5,object_08,object_10,outside,inside,False
107,1016.0999999996,0.0,memory_backgrounds,stimuli/library/library_3.jpg,stimuli/object_04.png,stimuli/object_05.png,lure,html-button-response,1258,3243565,0.0-26.0-1.19,A28T38MOUG43YD,3HRWUH63RXIZS6U0Z3EY966PXK25N4,3WI0P0II658IX0ZFXII05MVE5ANDR3,0,library_3,object_04,object_05,inside,inside,True
108,990.60000000149,3.0,memory_backgrounds,stimuli/desert/desert_3.jpg,stimuli/object_07.png,stimuli/object_03.png,lure,html-button-response,1260,3245057,0.0-26.0-1.20,A28T38MOUG43YD,3HRWUH63RXIZS6U0Z3EY966PXK25N4,3WI0P0II658IX0ZFXII05MVE5ANDR3,1,desert_3,object_07,object_03,outside,inside,False
109,1332.7000000011,1.0,memory_backgrounds,stimuli/desert/desert_6.jpg,stimuli/object_07.png,stimuli/object_03.png,lure,html-button-response,1262,3246904,0.0-26.0-1.21,A28T38MOUG43YD,3HRWUH63RXIZS6U0Z3EY966PXK25N4,3WI0P0II658IX0ZFXII05MVE5ANDR3,0,desert_6,object_07,object_03,outside,inside,False
110,918.20000000112,0.0,memory_backgrounds,stimuli/library/library_4.jpg,stimuli/object_04.png,stimuli/object_05.png,target,html-button-response,1264,3248324,0.0-26.0-1.22,A28T38MOUG43YD,3HRWUH63RXIZS6U0Z3EY966PXK25N4,3WI0P0II658IX0ZFXII05MVE5ANDR3,1,library_4,object_04,object_05,inside,inside,True
111,1317.2000000011,3.0,memory_backgrounds,stimuli/restaurant/restaurant_7.jpg,stimuli/object_09.png,stimuli/object_01.png,lure,html-button-response,1266,3250143,0.0-26.0-1.23,A28T38MOUG43YD,3HRWUH63RXIZS6U0Z3EY966PXK25N4,3WI0P0II658IX0ZFXII05MVE5ANDR3,1,restaurant_7,object_09,object_01,inside,inside,True
112,727.79999999888,3.0,memory_backgrounds,stimuli/forest/forest_2.jpg,stimuli/object_08.png,stimuli/object_10.png,lure,html-button-response,1268,3251373,0.0-26.0-1.24,A28T38MOUG43YD,3HRWUH63RXIZS6U0Z3EY966PXK25N4,3WI0P0II658IX0ZFXII05MVE5ANDR3,1,forest_2,object_08,object_10,outside,inside,False
113,996.29999999888,1.0,memory_backgrounds,stimuli/library/library_6.jpg,stimuli/object_01.png,stimuli/object_09.png,lure_but_seen,html-button-response,1270,3252871,0.0-26.0-1.25,A28T38MOUG43YD,3HRWUH63RXIZS6U0Z3EY966PXK25N4,3WI0P0II658IX0ZFXII05MVE5ANDR3,0,library_6,object_01,object_09,inside,inside,True
114,801.29999999888,0.0,memory_backgrounds,stimuli/library/library_2.jpg,stimuli/object_04.png,stimuli/object_05.png,lure,html-button-response,1272,3254175,0.0-26.0-1.26,A28T38MOUG43YD,3HRWUH63RXIZS6U0Z3EY966PXK25N4,3WI0P0II658IX0ZFXII05MVE5ANDR3,0,library_2,object_04,object_05,inside,inside,True
115,701.20000000112,2.0,memory_backgrounds,stimuli/library/library_5.jpg,stimuli/object_05.png,stimuli/object_04.png,lure,html-button-response,1274,3255379,0.0-26.0-1.27,A28T38MOUG43YD,3HRWUH63RXIZS6U0Z3EY966PXK25N4,3WI0P0II658IX0ZFXII05MVE5ANDR3,1,library_5,object_05,object_04,inside,inside,True
116,1265.1999999993,2.0,memory_backgrounds,stimuli/forest/forest_4.jpg,stimuli/object_07.png,stimuli/object_03.png,lure_but_seen,html-button-response,1276,3257147,0.0-26.0-1.28,A28T38MOUG43YD,3HRWUH63RXIZS6U0Z3EY966PXK25N4,3WI0P0II658IX0ZFXII05MVE5ANDR3,1,forest_4,object_07,object_03,outside,inside,False
117,1275.7999999989,0.0,memory_backgrounds,stimuli/library/library_1.jpg,stimuli/object_03.png,stimuli/object_07.png,lure_but_seen,html-button-response,1278,3258925,0.0-26.0-1.29,A28T38MOUG43YD,3HRWUH63RXIZS6U0Z3EY966PXK25N4,3WI0P0II658IX0ZFXII05MVE5ANDR3,0,library_1,object_03,object_07,inside,inside,True
118,1137.7000000011,0.0,memory_backgrounds,stimuli/desert/desert_8.jpg,stimuli/object_03.png,stimuli/object_07.png,lure,html-button-response,1280,3260566,0.0-26.0-1.30,A28T38MOUG43YD,3HRWUH63RXIZS6U0Z3EY966PXK25N4,3WI0P0II658IX0ZFXII05MVE5ANDR3,0,desert_8,object_03,object_07,outside,inside,False
119,1285.3000000007,1.0,memory_backgrounds,stimuli/forest/forest_6.jpg,stimuli/object_08.png,stimuli/object_10.png,target,html-button-response,1282,3262354,0.0-26.0-1.31,A28T38MOUG43YD,3HRWUH63RXIZS6U0Z3EY966PXK25N4,3WI0P0II658IX0ZFXII05MVE5ANDR3,1,forest_6,object_08,object_10,outside,inside,False
120,1456.2000000011,0.0,memory_backgrounds,stimuli/desert/desert_2.jpg,stimuli/object_03.png,stimuli/object_07.png,target,html-button-response,1284,3264313,0.0-26.0-1.32,A28T38MOUG43YD,3HRWUH63RXIZS6U0Z3EY966PXK25N4,3WI0P0II658IX0ZFXII05MVE5ANDR3,1,desert_2,object_03,object_07,outside,inside,False
121,775.0,2.0,memory_backgrounds,stimuli/library/library_7.jpg,stimuli/object_05.png,stimuli/object_04.png,lure,html-button-response,1286,3265590,0.0-26.0-1.33,A28T38MOUG43YD,3HRWUH63RXIZS6U0Z3EY966PXK25N4,3WI0P0II658IX0ZFXII05MVE5ANDR3,1,library_7,object_05,object_04,inside,inside,True
122,750.19999999925,3.0,memory_backgrounds,stimuli/forest/forest_4.jpg,stimuli/object_10.png,stimuli/object_08.png,target,html-button-response,1288,3266842,0.0-26.0-1.34,A28T38MOUG43YD,3HRWUH63RXIZS6U0Z3EY966PXK25N4,3WI0P0II658IX0ZFXII05MVE5ANDR3,0,forest_4,object_10,object_08,outside,inside,False
123,1453.5,3.0,memory_backgrounds,stimuli/forest/forest_1.jpg,stimuli/object_10.png,stimuli/object_08.png,target,html-button-response,1290,3268798,0.0-26.0-1.35,A28T38MOUG43YD,3HRWUH63RXIZS6U0Z3EY966PXK25N4,3WI0P0II658IX0ZFXII05MVE5ANDR3,0,forest_1,object_10,object_08,outside,inside,False
124,906.30000000075,0.0,memory_backgrounds,stimuli/restaurant/restaurant_8.jpg,stimuli/object_09.png,stimuli/object_01.png,lure,html-button-response,1292,3270207,0.0-26.0-1.36,A28T38MOUG43YD,3HRWUH63RXIZS6U0Z3EY966PXK25N4,3WI0P0II658IX0ZFXII05MVE5ANDR3,0,restaurant_8,object_09,object_01,inside,inside,True
125,825.40000000037,1.0,memory_backgrounds,stimuli/library/library_4.jpg,stimuli/object_10.png,stimuli/object_08.png,lure_but_seen,html-button-response,1294,3271534,0.0-26.0-1.37,A28T38MOUG43YD,3HRWUH63RXIZS6U0Z3EY966PXK25N4,3WI0P0II658IX0ZFXII05MVE5ANDR3,0,library_4,object_10,object_08,inside,inside,True
126,749.5,2.0,memory_backgrounds,stimuli/desert/desert_4.jpg,stimuli/object_04.png,stimuli/object_05.png,lure_but_seen,html-button-response,1296,3272785,0.0-26.0-1.38,A28T38MOUG43YD,3HRWUH63RXIZS6U0Z3EY966PXK25N4,3WI0P0II658IX0ZFXII05MVE5ANDR3,1,desert_4,object_04,object_05,outside,inside,False
127,1126.7000000011,0.0,memory_backgrounds,stimuli/restaurant/restaurant_1.jpg,stimuli/object_07.png,stimuli/object_03.png,lure_but_seen,html-button-response,1298,3274414,0.0-26.0-1.39,A28T38MOUG43YD,3HRWUH63RXIZS6U0Z3EY966PXK25N4,3WI0P0II658IX0ZFXII05MVE5ANDR3,0,restaurant_1,object_07,object_03,inside,inside,True
128,1076.1999999993,0.0,memory_backgrounds,stimuli/restaurant/restaurant_2.jpg,stimuli/object_04.png,stimuli/object_05.png,lure_but_seen,html-button-response,1300,3275993,0.0-26.0-1.40,A28T38MOUG43YD,3HRWUH63RXIZS6U0Z3EY966PXK25N4,3WI0P0II658IX0ZFXII05MVE5ANDR3,0,restaurant_2,object_04,object_05,inside,inside,True
129,635.20000000112,3.0,memory_backgrounds,stimuli/desert/desert_5.jpg,stimuli/object_07.png,stimuli/object_03.png,target,html-button-response,1302,3277131,0.0-26.0-1.41,A28T38MOUG43YD,3HRWUH63RXIZS6U0Z3EY966PXK25N4,3WI0P0II658IX0ZFXII05MVE5ANDR3,0,desert_5,object_07,object_03,outside,inside,False
130,855.0,2.0,memory_backgrounds,stimuli/forest/forest_3.jpg,stimuli/object_10.png,stimuli/object_08.png,lure,html-button-response,1304,3278497,0.0-26.0-1.42,A28T38MOUG43YD,3HRWUH63RXIZS6U0Z3EY966PXK25N4,3WI0P0II658IX0ZFXII05MVE5ANDR3,1,forest_3,object_10,object_08,outside,inside,False
131,874.90000000037,1.0,memory_backgrounds,stimuli/desert/desert_4.jpg,stimuli/object_03.png,stimuli/object_07.png,target,html-button-response,1306,3279873,0.0-26.0-1.43,A28T38MOUG43YD,3HRWUH63RXIZS6U0Z3EY966PXK25N4,3WI0P0II658IX0ZFXII05MVE5ANDR3,1,desert_4,object_03,object_07,outside,inside,False
132,4742.3999999985,1.0,memory_backgrounds,stimuli/library/library_2.jpg,stimuli/object_07.png,stimuli/object_04.png,lure,html-button-response,1219,3267664,0.0-26.0-1.0,A159MC0L7J302O,3HRWUH63RXIZS6U0Z3EY966PXK25N4,3NOKK93PR5OYG28A779KCXEGQXYEEK,0,library_2,object_07,object_04,inside,inside,True
133,1793.5999999978,0.0,memory_backgrounds,stimuli/desert/desert_4.jpg,stimuli/object_10.png,stimuli/object_01.png,lure_but_seen,html-button-response,1221,3269974,0.0-26.0-1.1,A159MC0L7J302O,3HRWUH63RXIZS6U0Z3EY966PXK25N4,3NOKK93PR5OYG28A779KCXEGQXYEEK,0,desert_4,object_10,object_01,outside,inside,False
134,2304.3000000007,3.0,memory_backgrounds,stimuli/restaurant/restaurant_6.jpg,stimuli/object_06.png,stimuli/object_03.png,lure,html-button-response,1223,3272784,0.0-26.0-1.2,A159MC0L7J302O,3HRWUH63RXIZS6U0Z3EY966PXK25N4,3NOKK93PR5OYG28A779KCXEGQXYEEK,1,restaurant_6,object_06,object_03,inside,inside,True
135,1495.6000000015,0.0,memory_backgrounds,stimuli/restaurant/restaurant_8.jpg,stimuli/object_06.png,stimuli/object_03.png,target,html-button-response,1225,3274785,0.0-26.0-1.3,A159MC0L7J302O,3HRWUH63RXIZS6U0Z3EY966PXK25N4,3NOKK93PR5OYG28A779KCXEGQXYEEK,1,restaurant_8,object_06,object_03,inside,inside,True
136,2207.0999999978,1.0,memory_backgrounds,stimuli/forest/forest_5.jpg,stimuli/object_08.png,stimuli/object_09.png,lure_but_seen,html-button-response,1227,3277508,0.0-26.0-1.4,A159MC0L7J302O,3HRWUH63RXIZS6U0Z3EY966PXK25N4,3NOKK93PR5OYG28A779KCXEGQXYEEK,0,forest_5,object_08,object_09,outside,inside,False
137,1176.3000000007,1.0,memory_backgrounds,stimuli/forest/forest_3.jpg,stimuli/object_01.png,stimuli/object_10.png,lure,html-button-response,1229,3279202,0.0-26.0-1.5,A159MC0L7J302O,3HRWUH63RXIZS6U0Z3EY966PXK25N4,3NOKK93PR5OYG28A779KCXEGQXYEEK,0,forest_3,object_01,object_10,outside,inside,False
138,220.19999999925,1.0,memory_backgrounds,stimuli/forest/forest_8.jpg,stimuli/object_03.png,stimuli/object_06.png,lure_but_seen,html-button-response,1231,3279934,0.0-26.0-1.6,A159MC0L7J302O,3HRWUH63RXIZS6U0Z3EY966PXK25N4,3NOKK93PR5OYG28A779KCXEGQXYEEK,0,forest_8,object_03,object_06,outside,inside,False
139,225.0,1.0,memory_backgrounds,stimuli/library/library_1.jpg,stimuli/object_04.png,stimuli/object_07.png,lure,html-button-response,1233,3280676,0.0-26.0-1.7,A159MC0L7J302O,3HRWUH63RXIZS6U0Z3EY966PXK25N4,3NOKK93PR5OYG28A779KCXEGQXYEEK,0,library_1,object_04,object_07,inside,inside,True
140,1429.8000000007,2.0,memory_backgrounds,stimuli/desert/desert_7.jpg,stimuli/object_09.png,stimuli/object_08.png,target,html-button-response,1235,3282608,0.0-26.0-1.8,A159MC0L7J302O,3HRWUH63RXIZS6U0Z3EY966PXK25N4,3NOKK93PR5OYG28A779KCXEGQXYEEK,0,desert_7,object_09,object_08,outside,inside,False
141,248.0,2.0,memory_backgrounds,stimuli/desert/desert_8.jpg,stimuli/object_08.png,stimuli/object_09.png,lure,html-button-response,1237,3283360,0.0-26.0-1.9,A159MC0L7J302O,3HRWUH63RXIZS6U0Z3EY966PXK25N4,3NOKK93PR5OYG28A779KCXEGQXYEEK,1,desert_8,object_08,object_09,outside,inside,False
142,278.19999999925,2.0,memory_backgrounds,stimuli/library/library_4.jpg,stimuli/object_04.png,stimuli/object_07.png,target,html-button-response,1239,3284142,0.0-26.0-1.10,A159MC0L7J302O,3HRWUH63RXIZS6U0Z3EY966PXK25N4,3NOKK93PR5OYG28A779KCXEGQXYEEK,0,library_4,object_04,object_07,inside,inside,True
143,127.5,1.0,memory_backgrounds,stimuli/forest/forest_6.jpg,stimuli/object_10.png,stimuli/object_01.png,target,html-button-response,1241,3284772,0.0-26.0-1.11,A159MC0L7J302O,3HRWUH63RXIZS6U0Z3EY966PXK25N4,3NOKK93PR5OYG28A779KCXEGQXYEEK,1,forest_6,object_10,object_01,outside,inside,False
144,2320.799999997,0.0,memory_backgrounds,stimuli/library/library_5.jpg,stimuli/object_09.png,stimuli/object_08.png,lure_but_seen,html-button-response,1243,3287596,0.0-26.0-1.12,A159MC0L7J302O,3HRWUH63RXIZS6U0Z3EY966PXK25N4,3NOKK93PR5OYG28A779KCXEGQXYEEK,0,library_5,object_09,object_08,inside,inside,True
145,268.10000000149,1.0,memory_backgrounds,stimuli/desert/desert_1.jpg,stimuli/object_08.png,stimuli/object_09.png,target,html-button-response,1245,3288367,0.0-26.0-1.13,A159MC0L7J302O,3HRWUH63RXIZS6U0Z3EY966PXK25N4,3NOKK93PR5OYG28A779KCXEGQXYEEK,1,desert_1,object_08,object_09,outside,inside,False
146,1209.0,1.0,memory_backgrounds,stimuli/restaurant/restaurant_2.jpg,stimuli/object_10.png,stimuli/object_01.png,lure_but_seen,html-button-response,1247,3290080,0.0-26.0-1.14,A159MC0L7J302O,3HRWUH63RXIZS6U0Z3EY966PXK25N4,3NOKK93PR5OYG28A779KCXEGQXYEEK,0,restaurant_2,object_10,object_01,inside,inside,True
147,140.5,2.0,memory_backgrounds,stimuli/forest/forest_7.jpg,stimuli/object_10.png,stimuli/object_01.png,target,html-button-response,1249,3290738,0.0-26.0-1.15,A159MC0L7J302O,3HRWUH63RXIZS6U0Z3EY966PXK25N4,3NOKK93PR5OYG28A779KCXEGQXYEEK,0,forest_7,object_10,object_01,outside,inside,False
148,319.89999999851,1.0,memory_backgrounds,stimuli/desert/desert_2.jpg,stimuli/object_09.png,stimuli/object_08.png,target,html-button-response,1251,3291567,0.0-26.0-1.16,A159MC0L7J302O,3HRWUH63RXIZS6U0Z3EY966PXK25N4,3NOKK93PR5OYG28A779KCXEGQXYEEK,1,desert_2,object_09,object_08,outside,inside,False
149,423.79999999702,2.0,memory_backgrounds,stimuli/library/library_3.jpg,stimuli/object_07.png,stimuli/object_04.png,target,html-button-response,1253,3292498,0.0-26.0-1.17,A159MC0L7J302O,3HRWUH63RXIZS6U0Z3EY966PXK25N4,3NOKK93PR5OYG28A779KCXEGQXYEEK,0,library_3,object_07,object_04,inside,inside,True
150,229.0,1.0,memory_backgrounds,stimuli/library/library_6.jpg,stimuli/object_07.png,stimuli/object_04.png,target,html-button-response,1255,3293230,0.0-26.0-1.18,A159MC0L7J302O,3HRWUH63RXIZS6U0Z3EY966PXK25N4,3NOKK93PR5OYG28A779KCXEGQXYEEK,1,library_6,object_07,object_04,inside,inside,True
151,86.0,1.0,memory_backgrounds,stimuli/library/library_4.jpg,stimuli/object_06.png,stimuli/object_03.png,lure_but_seen,html-button-response,1257,3293833,0.0-26.0-1.19,A159MC0L7J302O,3HRWUH63RXIZS6U0Z3EY966PXK25N4,3NOKK93PR5OYG28A779KCXEGQXYEEK,0,library_4,object_06,object_03,inside,inside,True
152,193.10000000149,1.0,memory_backgrounds,stimuli/desert/desert_6.jpg,stimuli/object_09.png,stimuli/object_08.png,lure,html-button-response,1259,3294536,0.0-26.0-1.20,A159MC0L7J302O,3HRWUH63RXIZS6U0Z3EY966PXK25N4,3NOKK93PR5OYG28A779KCXEGQXYEEK,0,desert_6,object_09,object_08,outside,inside,False
153,456.0,2.0,memory_backgrounds,stimuli/desert/desert_3.jpg,stimuli/object_09.png,stimuli/object_08.png,lure,html-button-response,1261,3295506,0.0-26.0-1.21,A159MC0L7J302O,3HRWUH63RXIZS6U0Z3EY966PXK25N4,3NOKK93PR5OYG28A779KCXEGQXYEEK,1,desert_3,object_09,object_08,outside,inside,False
154,158.19999999925,1.0,memory_backgrounds,stimuli/forest/forest_1.jpg,stimuli/object_01.png,stimuli/object_10.png,lure,html-button-response,1263,3296168,0.0-26.0-1.22,A159MC0L7J302O,3HRWUH63RXIZS6U0Z3EY966PXK25N4,3NOKK93PR5OYG28A779KCXEGQXYEEK,0,forest_1,object_01,object_10,outside,inside,False
155,426.40000000224,0.0,memory_backgrounds,stimuli/desert/desert_4.jpg,stimuli/object_08.png,stimuli/object_09.png,target,html-button-response,1265,3297097,0.0-26.0-1.23,A159MC0L7J302O,3HRWUH63RXIZS6U0Z3EY966PXK25N4,3NOKK93PR5OYG28A779KCXEGQXYEEK,1,desert_4,object_08,object_09,outside,inside,False
156,189.19999999925,1.0,memory_backgrounds,stimuli/forest/forest_2.jpg,stimuli/object_10.png,stimuli/object_01.png,lure,html-button-response,1267,3297804,0.0-26.0-1.24,A159MC0L7J302O,3HRWUH63RXIZS6U0Z3EY966PXK25N4,3NOKK93PR5OYG28A779KCXEGQXYEEK,0,forest_2,object_10,object_01,outside,inside,False
157,240.5,2.0,memory_backgrounds,stimuli/library/library_5.jpg,stimuli/object_04.png,stimuli/object_07.png,target,html-button-response,1269,3298547,0.0-26.0-1.25,A159MC0L7J302O,3HRWUH63RXIZS6U0Z3EY966PXK25N4,3NOKK93PR5OYG28A779KCXEGQXYEEK,0,library_5,object_04,object_07,inside,inside,True
158,266.80000000075,3.0,memory_backgrounds,stimuli/forest/forest_4.jpg,stimuli/object_10.png,stimuli/object_01.png,lure,html-button-response,1271,3299318,0.0-26.0-1.26,A159MC0L7J302O,3HRWUH63RXIZS6U0Z3EY966PXK25N4,3NOKK93PR5OYG28A779KCXEGQXYEEK,1,forest_4,object_10,object_01,outside,inside,False
159,241.90000000224,2.0,memory_backgrounds,stimuli/restaurant/restaurant_4.jpg,stimuli/object_03.png,stimuli/object_06.png,lure,html-button-response,1273,3300064,0.0-26.0-1.27,A159MC0L7J302O,3HRWUH63RXIZS6U0Z3EY966PXK25N4,3NOKK93PR5OYG28A779KCXEGQXYEEK,1,restaurant_4,object_03,object_06,inside,inside,True
160,155.10000000149,1.0,memory_backgrounds,stimuli/library/library_3.jpg,stimuli/object_01.png,stimuli/object_10.png,lure_but_seen,html-button-response,1275,3300722,0.0-26.0-1.28,A159MC0L7J302O,3HRWUH63RXIZS6U0Z3EY966PXK25N4,3NOKK93PR5OYG28A779KCXEGQXYEEK,0,library_3,object_01,object_10,inside,inside,True
161,251.0,0.0,memory_backgrounds,stimuli/library/library_8.jpg,stimuli/object_04.png,stimuli/object_07.png,lure,html-button-response,1277,3301475,0.0-26.0-1.29,A159MC0L7J302O,3HRWUH63RXIZS6U0Z3EY966PXK25N4,3NOKK93PR5OYG28A779KCXEGQXYEEK,0,library_8,object_04,object_07,inside,inside,True
162,126.40000000224,1.0,memory_backgrounds,stimuli/restaurant/restaurant_7.jpg,stimuli/object_03.png,stimuli/object_06.png,lure,html-button-response,1279,3302105,0.0-26.0-1.30,A159MC0L7J302O,3HRWUH63RXIZS6U0Z3EY966PXK25N4,3NOKK93PR5OYG28A779KCXEGQXYEEK,0,restaurant_7,object_03,object_06,inside,inside,True
163,142.69999999925,0.0,memory_backgrounds,stimuli/restaurant/restaurant_3.jpg,stimuli/object_03.png,stimuli/object_06.png,target,html-button-response,1281,3302751,0.0-26.0-1.31,A159MC0L7J302O,3HRWUH63RXIZS6U0Z3EY966PXK25N4,3NOKK93PR5OYG28A779KCXEGQXYEEK,1,restaurant_3,object_03,object_06,inside,inside,True
164,158.40000000224,1.0,memory_backgrounds,stimuli/restaurant/restaurant_5.jpg,stimuli/object_03.png,stimuli/object_06.png,target,html-button-response,1283,3303416,0.0-26.0-1.32,A159MC0L7J302O,3HRWUH63RXIZS6U0Z3EY966PXK25N4,3NOKK93PR5OYG28A779KCXEGQXYEEK,1,restaurant_5,object_03,object_06,inside,inside,True
165,242.70000000298,2.0,memory_backgrounds,stimuli/restaurant/restaurant_5.jpg,stimuli/object_08.png,stimuli/object_09.png,lure_but_seen,html-button-response,1285,3304161,0.0-26.0-1.33,A159MC0L7J302O,3HRWUH63RXIZS6U0Z3EY966PXK25N4,3NOKK93PR5OYG28A779KCXEGQXYEEK,1,restaurant_5,object_08,object_09,inside,inside,True
166,190.0,1.0,memory_backgrounds,stimuli/forest/forest_8.jpg,stimuli/object_01.png,stimuli/object_10.png,target,html-button-response,1287,3304855,0.0-26.0-1.34,A159MC0L7J302O,3HRWUH63RXIZS6U0Z3EY966PXK25N4,3NOKK93PR5OYG28A779KCXEGQXYEEK,1,forest_8,object_01,object_10,outside,inside,False
167,1768.1999999993,1.0,memory_backgrounds,stimuli/desert/desert_5.jpg,stimuli/object_08.png,stimuli/object_09.png,lure,html-button-response,1289,3307134,0.0-26.0-1.35,A159MC0L7J302O,3HRWUH63RXIZS6U0Z3EY966PXK25N4,3NOKK93PR5OYG28A779KCXEGQXYEEK,0,desert_5,object_08,object_09,outside,inside,False
168,1288.6999999993,1.0,memory_backgrounds,stimuli/desert/desert_1.jpg,stimuli/object_06.png,stimuli/object_03.png,lure_but_seen,html-button-response,1291,3308937,0.0-26.0-1.36,A159MC0L7J302O,3HRWUH63RXIZS6U0Z3EY966PXK25N4,3NOKK93PR5OYG28A779KCXEGQXYEEK,0,desert_1,object_06,object_03,outside,inside,False
169,404.09999999776,1.0,memory_backgrounds,stimuli/restaurant/restaurant_2.jpg,stimuli/object_06.png,stimuli/object_03.png,target,html-button-response,1293,3309857,0.0-26.0-1.37,A159MC0L7J302O,3HRWUH63RXIZS6U0Z3EY966PXK25N4,3NOKK93PR5OYG28A779KCXEGQXYEEK,1,restaurant_2,object_06,object_03,inside,inside,True
170,1553.0,2.0,memory_backgrounds,stimuli/library/library_7.jpg,stimuli/object_07.png,stimuli/object_04.png,lure,html-button-response,1295,3311930,0.0-26.0-1.38,A159MC0L7J302O,3HRWUH63RXIZS6U0Z3EY966PXK25N4,3NOKK93PR5OYG28A779KCXEGQXYEEK,1,library_7,object_07,object_04,inside,inside,True
171,1192.0,2.0,memory_backgrounds,stimuli/forest/forest_5.jpg,stimuli/object_01.png,stimuli/object_10.png,target,html-button-response,1297,3313627,0.0-26.0-1.39,A159MC0L7J302O,3HRWUH63RXIZS6U0Z3EY966PXK25N4,3NOKK93PR5OYG28A779KCXEGQXYEEK,0,forest_5,object_01,object_10,outside,inside,False
172,1982.0,2.0,memory_backgrounds,stimuli/forest/forest_6.jpg,stimuli/object_04.png,stimuli/object_07.png,lure_but_seen,html-button-response,1299,3316121,0.0-26.0-1.40,A159MC0L7J302O,3HRWUH63RXIZS6U0Z3EY966PXK25N4,3NOKK93PR5OYG28A779KCXEGQXYEEK,1,forest_6,object_04,object_07,outside,inside,False
173,2237.700000003,1.0,memory_backgrounds,stimuli/restaurant/restaurant_3.jpg,stimuli/object_07.png,stimuli/object_04.png,lure_but_seen,html-button-response,1301,3318871,0.0-26.0-1.41,A159MC0L7J302O,3HRWUH63RXIZS6U0Z3EY966PXK25N4,3NOKK93PR5OYG28A779KCXEGQXYEEK,0,restaurant_3,object_07,object_04,inside,inside,True
174,664.0,1.0,memory_backgrounds,stimuli/desert/desert_2.jpg,stimuli/object_07.png,stimuli/object_04.png,lure_but_seen,html-button-response,1303,3320053,0.0-26.0-1.42,A159MC0L7J302O,3HRWUH63RXIZS6U0Z3EY966PXK25N4,3NOKK93PR5OYG28A779KCXEGQXYEEK,0,desert_2,object_07,object_04,outside,inside,False
175,392.0,2.0,memory_backgrounds,stimuli/restaurant/restaurant_1.jpg,stimuli/object_06.png,stimuli/object_03.png,lure,html-button-response,1305,3320949,0.0-26.0-1.43,A159MC0L7J302O,3HRWUH63RXIZS6U0Z3EY966PXK25N4,3NOKK93PR5OYG28A779KCXEGQXYEEK,1,restaurant_1,object_06,object_03,inside,inside,True
176,,,memory_backgrounds,stimuli/library/library_3.jpg,stimuli/object_02.png,stimuli/object_04.png,target,html-button-response,1207,3348684,0.0-26.0-1.0,A2G7N0X0PNX0EE,3DW3BNF1HKYVNTMBZS7SV7ATLD58VQ,37C0GNLMHJJPBH1V5UF2UR4I9N96DY,0,library_3,object_02,object_04,inside,inside,True
177,2646.0,3.0,memory_backgrounds,stimuli/forest/forest_8.jpg,stimuli/object_05.png,stimuli/object_10.png,lure,html-button-response,1209,3351849,0.0-26.0-1.1,A2G7N0X0PNX0EE,3DW3BNF1HKYVNTMBZS7SV7ATLD58VQ,37C0GNLMHJJPBH1V5UF2UR4I9N96DY,1,forest_8,object_05,object_10,outside,inside,False
178,1612.3999999985,3.0,memory_backgrounds,stimuli/desert/desert_7.jpg,stimuli/object_07.png,stimuli/object_03.png,lure,html-button-response,1211,3353965,0.0-26.0-1.2,A2G7N0X0PNX0EE,3DW3BNF1HKYVNTMBZS7SV7ATLD58VQ,37C0GNLMHJJPBH1V5UF2UR4I9N96DY,1,desert_7,object_07,object_03,outside,inside,False
179,2655.5999999978,2.0,memory_backgrounds,stimuli/library/library_4.jpg,stimuli/object_03.png,stimuli/object_07.png,lure_but_seen,html-button-response,1213,3357133,0.0-26.0-1.3,A2G7N0X0PNX0EE,3DW3BNF1HKYVNTMBZS7SV7ATLD58VQ,37C0GNLMHJJPBH1V5UF2UR4I9N96DY,1,library_4,object_03,object_07,inside,inside,True
180,1751.299999997,3.0,memory_backgrounds,stimuli/forest/forest_6.jpg,stimuli/object_10.png,stimuli/object_05.png,lure,html-button-response,1215,3359401,0.0-26.0-1.4,A2G7N0X0PNX0EE,3DW3BNF1HKYVNTMBZS7SV7ATLD58VQ,37C0GNLMHJJPBH1V5UF2UR4I9N96DY,1,forest_6,object_10,object_05,outside,inside,False
181,2246.0,2.0,memory_backgrounds,stimuli/restaurant/restaurant_2.jpg,stimuli/object_07.png,stimuli/object_03.png,lure_but_seen,html-button-response,1217,3362153,0.0-26.0-1.5,A2G7N0X0PNX0EE,3DW3BNF1HKYVNTMBZS7SV7ATLD58VQ,37C0GNLMHJJPBH1V5UF2UR4I9N96DY,1,restaurant_2,object_07,object_03,inside,inside,True
182,1679.200000003,3.0,memory_backgrounds,stimuli/restaurant/restaurant_5.jpg,stimuli/object_01.png,stimuli/object_06.png,lure,html-button-response,1219,3364351,0.0-26.0-1.6,A2G7N0X0PNX0EE,3DW3BNF1HKYVNTMBZS7SV7ATLD58VQ,37C0GNLMHJJPBH1V5UF2UR4I9N96DY,1,restaurant_5,object_01,object_06,inside,inside,True
183,1524.1999999993,0.0,memory_backgrounds,stimuli/library/library_2.jpg,stimuli/object_04.png,stimuli/object_02.png,target,html-button-response,1221,3366379,0.0-26.0-1.7,A2G7N0X0PNX0EE,3DW3BNF1HKYVNTMBZS7SV7ATLD58VQ,37C0GNLMHJJPBH1V5UF2UR4I9N96DY,1,library_2,object_04,object_02,inside,inside,True
184,2466.5999999978,2.0,memory_backgrounds,stimuli/forest/forest_4.jpg,stimuli/object_05.png,stimuli/object_10.png,target,html-button-response,1223,3369349,0.0-26.0-1.8,A2G7N0X0PNX0EE,3DW3BNF1HKYVNTMBZS7SV7ATLD58VQ,37C0GNLMHJJPBH1V5UF2UR4I9N96DY,0,forest_4,object_05,object_10,outside,inside,False
185,2230.6000000015,1.0,memory_backgrounds,stimuli/forest/forest_2.jpg,stimuli/object_07.png,stimuli/object_03.png,lure_but_seen,html-button-response,1225,3372093,0.0-26.0-1.9,A2G7N0X0PNX0EE,3DW3BNF1HKYVNTMBZS7SV7ATLD58VQ,37C0GNLMHJJPBH1V5UF2UR4I9N96DY,0,forest_2,object_07,object_03,outside,inside,False
186,1972.8999999985,0.0,memory_backgrounds,stimuli/forest/forest_1.jpg,stimuli/object_05.png,stimuli/object_10.png,target,html-button-response,1227,3374572,0.0-26.0-1.10,A2G7N0X0PNX0EE,3DW3BNF1HKYVNTMBZS7SV7ATLD58VQ,37C0GNLMHJJPBH1V5UF2UR4I9N96DY,1,forest_1,object_05,object_10,outside,inside,False
187,2064.0,1.0,memory_backgrounds,stimuli/forest/forest_2.jpg,stimuli/object_10.png,stimuli/object_05.png,target,html-button-response,1229,3377141,0.0-26.0-1.11,A2G7N0X0PNX0EE,3DW3BNF1HKYVNTMBZS7SV7ATLD58VQ,37C0GNLMHJJPBH1V5UF2UR4I9N96DY,1,forest_2,object_10,object_05,outside,inside,False
188,1587.6000000015,0.0,memory_backgrounds,stimuli/desert/desert_8.jpg,stimuli/object_05.png,stimuli/object_10.png,lure_but_seen,html-button-response,1231,3379234,0.0-26.0-1.12,A2G7N0X0PNX0EE,3DW3BNF1HKYVNTMBZS7SV7ATLD58VQ,37C0GNLMHJJPBH1V5UF2UR4I9N96DY,0,desert_8,object_05,object_10,outside,inside,False
189,1612.0,0.0,memory_backgrounds,stimuli/library/library_2.jpg,stimuli/object_01.png,stimuli/object_06.png,lure_but_seen,html-button-response,1233,3381357,0.0-26.0-1.13,A2G7N0X0PNX0EE,3DW3BNF1HKYVNTMBZS7SV7ATLD58VQ,37C0GNLMHJJPBH1V5UF2UR4I9N96DY,0,library_2,object_01,object_06,inside,inside,True
190,2110.5999999978,3.0,memory_backgrounds,stimuli/restaurant/restaurant_6.jpg,stimuli/object_01.png,stimuli/object_06.png,lure,html-button-response,1235,3383971,0.0-26.0-1.14,A2G7N0X0PNX0EE,3DW3BNF1HKYVNTMBZS7SV7ATLD58VQ,37C0GNLMHJJPBH1V5UF2UR4I9N96DY,1,restaurant_6,object_01,object_06,inside,inside,True
191,1878.6000000015,2.0,memory_backgrounds,stimuli/desert/desert_1.jpg,stimuli/object_01.png,stimuli/object_06.png,lure_but_seen,html-button-response,1237,3386353,0.0-26.0-1.15,A2G7N0X0PNX0EE,3DW3BNF1HKYVNTMBZS7SV7ATLD58VQ,37C0GNLMHJJPBH1V5UF2UR4I9N96DY,1,desert_1,object_01,object_06,outside,inside,False
192,1877.6000000015,2.0,memory_backgrounds,stimuli/desert/desert_1.jpg,stimuli/object_07.png,stimuli/object_03.png,target,html-button-response,1239,3388739,0.0-26.0-1.16,A2G7N0X0PNX0EE,3DW3BNF1HKYVNTMBZS7SV7ATLD58VQ,37C0GNLMHJJPBH1V5UF2UR4I9N96DY,0,desert_1,object_07,object_03,outside,inside,False
193,1887.3000000007,1.0,memory_backgrounds,stimuli/restaurant/restaurant_2.jpg,stimuli/object_06.png,stimuli/object_01.png,target,html-button-response,1241,3391137,0.0-26.0-1.17,A2G7N0X0PNX0EE,3DW3BNF1HKYVNTMBZS7SV7ATLD58VQ,37C0GNLMHJJPBH1V5UF2UR4I9N96DY,1,restaurant_2,object_06,object_01,inside,inside,True
194,1773.3999999985,3.0,memory_backgrounds,stimuli/desert/desert_2.jpg,stimuli/object_07.png,stimuli/object_03.png,lure,html-button-response,1243,3393421,0.0-26.0-1.18,A2G7N0X0PNX0EE,3DW3BNF1HKYVNTMBZS7SV7ATLD58VQ,37C0GNLMHJJPBH1V5UF2UR4I9N96DY,1,desert_2,object_07,object_03,outside,inside,False
195,2254.8000000007,0.0,memory_backgrounds,stimuli/library/library_7.jpg,stimuli/object_02.png,stimuli/object_04.png,target,html-button-response,1245,3396181,0.0-26.0-1.19,A2G7N0X0PNX0EE,3DW3BNF1HKYVNTMBZS7SV7ATLD58VQ,37C0GNLMHJJPBH1V5UF2UR4I9N96DY,1,library_7,object_02,object_04,inside,inside,True
196,1275.0,0.0,memory_backgrounds,stimuli/restaurant/restaurant_1.jpg,stimuli/object_06.png,stimuli/object_01.png,target,html-button-response,1247,3397967,0.0-26.0-1.20,A2G7N0X0PNX0EE,3DW3BNF1HKYVNTMBZS7SV7ATLD58VQ,37C0GNLMHJJPBH1V5UF2UR4I9N96DY,1,restaurant_1,object_06,object_01,inside,inside,True
197,2370.3000000007,3.0,memory_backgrounds,stimuli/desert/desert_3.jpg,stimuli/object_03.png,stimuli/object_07.png,lure,html-button-response,1249,3400841,0.0-26.0-1.21,A2G7N0X0PNX0EE,3DW3BNF1HKYVNTMBZS7SV7ATLD58VQ,37C0GNLMHJJPBH1V5UF2UR4I9N96DY,1,desert_3,object_03,object_07,outside,inside,False
198,2052.5,2.0,memory_backgrounds,stimuli/library/library_5.jpg,stimuli/object_04.png,stimuli/object_02.png,lure,html-button-response,1251,3403399,0.0-26.0-1.22,A2G7N0X0PNX0EE,3DW3BNF1HKYVNTMBZS7SV7ATLD58VQ,37C0GNLMHJJPBH1V5UF2UR4I9N96DY,1,library_5,object_04,object_02,inside,inside,True
199,1620.1999999993,2.0,memory_backgrounds,stimuli/desert/desert_5.jpg,stimuli/object_03.png,stimuli/object_07.png,lure,html-button-response,1253,3405523,0.0-26.0-1.23,A2G7N0X0PNX0EE,3DW3BNF1HKYVNTMBZS7SV7ATLD58VQ,37C0GNLMHJJPBH1V5UF2UR4I9N96DY,1,desert_5,object_03,object_07,outside,inside,False
200,1980.8999999985,1.0,memory_backgrounds,stimuli/library/library_4.jpg,stimuli/object_04.png,stimuli/object_02.png,target,html-button-response,1255,3408021,0.0-26.0-1.24,A2G7N0X0PNX0EE,3DW3BNF1HKYVNTMBZS7SV7ATLD58VQ,37C0GNLMHJJPBH1V5UF2UR4I9N96DY,1,library_4,object_04,object_02,inside,inside,True
201,1530.8000000007,2.0,memory_backgrounds,stimuli/forest/forest_4.jpg,stimuli/object_04.png,stimuli/object_02.png,lure_but_seen,html-button-response,1257,3410065,0.0-26.0-1.25,A2G7N0X0PNX0EE,3DW3BNF1HKYVNTMBZS7SV7ATLD58VQ,37C0GNLMHJJPBH1V5UF2UR4I9N96DY,1,forest_4,object_04,object_02,outside,inside,False
202,1622.1999999993,3.0,memory_backgrounds,stimuli/forest/forest_5.jpg,stimuli/object_05.png,stimuli/object_10.png,lure,html-button-response,1259,3412193,0.0-26.0-1.26,A2G7N0X0PNX0EE,3DW3BNF1HKYVNTMBZS7SV7ATLD58VQ,37C0GNLMHJJPBH1V5UF2UR4I9N96DY,1,forest_5,object_05,object_10,outside,inside,False
203,1415.0,3.0,memory_backgrounds,stimuli/restaurant/restaurant_3.jpg,stimuli/object_06.png,stimuli/object_01.png,lure,html-button-response,1261,3414113,0.0-26.0-1.27,A2G7N0X0PNX0EE,3DW3BNF1HKYVNTMBZS7SV7ATLD58VQ,37C0GNLMHJJPBH1V5UF2UR4I9N96DY,1,restaurant_3,object_06,object_01,inside,inside,True
204,2493.6000000015,2.0,memory_backgrounds,stimuli/restaurant/restaurant_4.jpg,stimuli/object_01.png,stimuli/object_06.png,target,html-button-response,1263,3417119,0.0-26.0-1.28,A2G7N0X0PNX0EE,3DW3BNF1HKYVNTMBZS7SV7ATLD58VQ,37C0GNLMHJJPBH1V5UF2UR4I9N96DY,0,restaurant_4,object_01,object_06,inside,inside,True
205,2242.5,2.0,memory_backgrounds,stimuli/desert/desert_6.jpg,stimuli/object_03.png,stimuli/object_07.png,target,html-button-response,1265,3419881,0.0-26.0-1.29,A2G7N0X0PNX0EE,3DW3BNF1HKYVNTMBZS7SV7ATLD58VQ,37C0GNLMHJJPBH1V5UF2UR4I9N96DY,0,desert_6,object_03,object_07,outside,inside,False
206,1802.5999999978,1.0,memory_backgrounds,stimuli/forest/forest_7.jpg,stimuli/object_06.png,stimuli/object_01.png,lure_but_seen,html-button-response,1267,3422199,0.0-26.0-1.30,A2G7N0X0PNX0EE,3DW3BNF1HKYVNTMBZS7SV7ATLD58VQ,37C0GNLMHJJPBH1V5UF2UR4I9N96DY,0,forest_7,object_06,object_01,outside,inside,False
207,2136.3000000007,1.0,memory_backgrounds,stimuli/library/library_1.jpg,stimuli/object_04.png,stimuli/object_02.png,lure,html-button-response,1269,3424851,0.0-26.0-1.31,A2G7N0X0PNX0EE,3DW3BNF1HKYVNTMBZS7SV7ATLD58VQ,37C0GNLMHJJPBH1V5UF2UR4I9N96DY,0,library_1,object_04,object_02,inside,inside,True
208,2332.700000003,1.0,memory_backgrounds,stimuli/forest/forest_7.jpg,stimuli/object_10.png,stimuli/object_05.png,target,html-button-response,1271,3427697,0.0-26.0-1.32,A2G7N0X0PNX0EE,3DW3BNF1HKYVNTMBZS7SV7ATLD58VQ,37C0GNLMHJJPBH1V5UF2UR4I9N96DY,1,forest_7,object_10,object_05,outside,inside,False
209,2415.3999999985,2.0,memory_backgrounds,stimuli/restaurant/restaurant_7.jpg,stimuli/object_05.png,stimuli/object_10.png,lure_but_seen,html-button-response,1273,3430623,0.0-26.0-1.33,A2G7N0X0PNX0EE,3DW3BNF1HKYVNTMBZS7SV7ATLD58VQ,37C0GNLMHJJPBH1V5UF2UR4I9N96DY,1,restaurant_7,object_05,object_10,inside,inside,True
210,1656.5,0.0,memory_backgrounds,stimuli/library/library_3.jpg,stimuli/object_10.png,stimuli/object_05.png,lure_but_seen,html-button-response,1275,3432783,0.0-26.0-1.34,A2G7N0X0PNX0EE,3DW3BNF1HKYVNTMBZS7SV7ATLD58VQ,37C0GNLMHJJPBH1V5UF2UR4I9N96DY,0,library_3,object_10,object_05,inside,inside,True
211,1810.1999999993,2.0,memory_backgrounds,stimuli/restaurant/restaurant_7.jpg,stimuli/object_01.png,stimuli/object_06.png,target,html-button-response,1277,3435097,0.0-26.0-1.35,A2G7N0X0PNX0EE,3DW3BNF1HKYVNTMBZS7SV7ATLD58VQ,37C0GNLMHJJPBH1V5UF2UR4I9N96DY,0,restaurant_7,object_01,object_06,inside,inside,True
212,1355.0,3.0,memory_backgrounds,stimuli/library/library_8.jpg,stimuli/object_02.png,stimuli/object_04.png,lure,html-button-response,1279,3436967,0.0-26.0-1.36,A2G7N0X0PNX0EE,3DW3BNF1HKYVNTMBZS7SV7ATLD58VQ,37C0GNLMHJJPBH1V5UF2UR4I9N96DY,1,library_8,object_02,object_04,inside,inside,True
213,1483.8999999985,3.0,memory_backgrounds,stimuli/restaurant/restaurant_8.jpg,stimuli/object_06.png,stimuli/object_01.png,lure,html-button-response,1281,3438959,0.0-26.0-1.37,A2G7N0X0PNX0EE,3DW3BNF1HKYVNTMBZS7SV7ATLD58VQ,37C0GNLMHJJPBH1V5UF2UR4I9N96DY,1,restaurant_8,object_06,object_01,inside,inside,True
214,1680.3999999985,1.0,memory_backgrounds,stimuli/desert/desert_6.jpg,stimuli/object_02.png,stimuli/object_04.png,lure_but_seen,html-button-response,1283,3441151,0.0-26.0-1.38,A2G7N0X0PNX0EE,3DW3BNF1HKYVNTMBZS7SV7ATLD58VQ,37C0GNLMHJJPBH1V5UF2UR4I9N96DY,0,desert_6,object_02,object_04,outside,inside,False
215,2017.1999999993,3.0,memory_backgrounds,stimuli/library/library_6.jpg,stimuli/object_02.png,stimuli/object_04.png,lure,html-button-response,1285,3443687,0.0-26.0-1.39,A2G7N0X0PNX0EE,3DW3BNF1HKYVNTMBZS7SV7ATLD58VQ,37C0GNLMHJJPBH1V5UF2UR4I9N96DY,1,library_6,object_02,object_04,inside,inside,True
216,1666.5999999978,3.0,memory_backgrounds,stimuli/forest/forest_3.jpg,stimuli/object_10.png,stimuli/object_05.png,lure,html-button-response,1287,3445857,0.0-26.0-1.40,A2G7N0X0PNX0EE,3DW3BNF1HKYVNTMBZS7SV7ATLD58VQ,37C0GNLMHJJPBH1V5UF2UR4I9N96DY,1,forest_3,object_10,object_05,outside,inside,False
217,1712.3999999985,1.0,memory_backgrounds,stimuli/restaurant/restaurant_1.jpg,stimuli/object_02.png,stimuli/object_04.png,lure_but_seen,html-button-response,1289,3448073,0.0-26.0-1.41,A2G7N0X0PNX0EE,3DW3BNF1HKYVNTMBZS7SV7ATLD58VQ,37C0GNLMHJJPBH1V5UF2UR4I9N96DY,0,restaurant_1,object_02,object_04,inside,inside,True
218,1506.1000000015,2.0,memory_backgrounds,stimuli/desert/desert_4.jpg,stimuli/object_03.png,stimuli/object_07.png,target,html-button-response,1291,3450089,0.0-26.0-1.42,A2G7N0X0PNX0EE,3DW3BNF1HKYVNTMBZS7SV7ATLD58VQ,37C0GNLMHJJPBH1V5UF2UR4I9N96DY,0,desert_4,object_03,object_07,outside,inside,False
219,1316.0999999978,0.0,memory_backgrounds,stimuli/desert/desert_8.jpg,stimuli/object_07.png,stimuli/object_03.png,target,html-button-response,1293,3451921,0.0-26.0-1.43,A2G7N0X0PNX0EE,3DW3BNF1HKYVNTMBZS7SV7ATLD58VQ,37C0GNLMHJJPBH1V5UF2UR4I9N96DY,1,desert_8,object_07,object_03,outside,inside,False
220,4319.5,3.0,memory_backgrounds,stimuli/library/library_6.jpg,stimuli/object_06.png,stimuli/object_05.png,lure,html-button-response,1204,3406104,0.0-26.0-1.0,A1G5EPLJEGL381,3SD15I2WE5AO7614M34OSYMJOYM362,3YDGXNSEO3AZFZ1Q5YB7B163256485,1,library_6,object_06,object_05,inside,outside,False
221,1686.8000000119,2.0,memory_backgrounds,stimuli/restaurant/restaurant_4.jpg,stimuli/object_03.png,stimuli/object_07.png,lure,html-button-response,1206,3408296,0.0-26.0-1.1,A1G5EPLJEGL381,3SD15I2WE5AO7614M34OSYMJOYM362,3YDGXNSEO3AZFZ1Q5YB7B163256485,1,restaurant_4,object_03,object_07,inside,outside,False
222,1304.1000000238,2.0,memory_backgrounds,stimuli/desert/desert_7.jpg,stimuli/object_02.png,stimuli/object_09.png,target,html-button-response,1208,3410104,0.0-26.0-1.2,A1G5EPLJEGL381,3SD15I2WE5AO7614M34OSYMJOYM362,3YDGXNSEO3AZFZ1Q5YB7B163256485,0,desert_7,object_02,object_09,outside,outside,True
223,1519.6999999881,1.0,memory_backgrounds,stimuli/library/library_4.jpg,stimuli/object_05.png,stimuli/object_06.png,lure,html-button-response,1210,3412128,0.0-26.0-1.3,A1G5EPLJEGL381,3SD15I2WE5AO7614M34OSYMJOYM362,3YDGXNSEO3AZFZ1Q5YB7B163256485,0,library_4,object_05,object_06,inside,outside,False
224,2560.400000006,1.0,memory_backgrounds,stimuli/desert/desert_3.jpg,stimuli/object_09.png,stimuli/object_02.png,lure,html-button-response,1212,3415192,0.0-26.0-1.4,A1G5EPLJEGL381,3SD15I2WE5AO7614M34OSYMJOYM362,3YDGXNSEO3AZFZ1Q5YB7B163256485,0,desert_3,object_09,object_02,outside,outside,True
225,2087.2999999821,2.0,memory_backgrounds,stimuli/desert/desert_6.jpg,stimuli/object_02.png,stimuli/object_09.png,target,html-button-response,1214,3417784,0.0-26.0-1.5,A1G5EPLJEGL381,3SD15I2WE5AO7614M34OSYMJOYM362,3YDGXNSEO3AZFZ1Q5YB7B163256485,0,desert_6,object_02,object_09,outside,outside,True
226,1846.2999999821,1.0,memory_backgrounds,stimuli/desert/desert_2.jpg,stimuli/object_03.png,stimuli/object_07.png,lure_but_seen,html-button-response,1216,3420136,0.0-26.0-1.6,A1G5EPLJEGL381,3SD15I2WE5AO7614M34OSYMJOYM362,3YDGXNSEO3AZFZ1Q5YB7B163256485,0,desert_2,object_03,object_07,outside,outside,True
227,2495.900000006,1.0,memory_backgrounds,stimuli/library/library_3.jpg,stimuli/object_02.png,stimuli/object_09.png,lure_but_seen,html-button-response,1218,3423136,0.0-26.0-1.7,A1G5EPLJEGL381,3SD15I2WE5AO7614M34OSYMJOYM362,3YDGXNSEO3AZFZ1Q5YB7B163256485,0,library_3,object_02,object_09,inside,outside,False
228,1191.599999994,0.0,memory_backgrounds,stimuli/restaurant/restaurant_7.jpg,stimuli/object_07.png,stimuli/object_03.png,target,html-button-response,1220,3424832,0.0-26.0-1.8,A1G5EPLJEGL381,3SD15I2WE5AO7614M34OSYMJOYM362,3YDGXNSEO3AZFZ1Q5YB7B163256485,1,restaurant_7,object_07,object_03,inside,outside,False
229,1248.0,2.0,memory_backgrounds,stimuli/restaurant/restaurant_6.jpg,stimuli/object_10.png,stimuli/object_08.png,lure_but_seen,html-button-response,1222,3426584,0.0-26.0-1.9,A1G5EPLJEGL381,3SD15I2WE5AO7614M34OSYMJOYM362,3YDGXNSEO3AZFZ1Q5YB7B163256485,1,restaurant_6,object_10,object_08,inside,outside,False
230,1799.599999994,2.0,memory_backgrounds,stimuli/forest/forest_2.jpg,stimuli/object_10.png,stimuli/object_08.png,target,html-button-response,1224,3428888,0.0-26.0-1.10,A1G5EPLJEGL381,3SD15I2WE5AO7614M34OSYMJOYM362,3YDGXNSEO3AZFZ1Q5YB7B163256485,0,forest_2,object_10,object_08,outside,outside,True
231,1582.8000000119,1.0,memory_backgrounds,stimuli/desert/desert_8.jpg,stimuli/object_02.png,stimuli/object_09.png,lure,html-button-response,1226,3430976,0.0-26.0-1.11,A1G5EPLJEGL381,3SD15I2WE5AO7614M34OSYMJOYM362,3YDGXNSEO3AZFZ1Q5YB7B163256485,0,desert_8,object_02,object_09,outside,outside,True
232,1519.5,2.0,memory_backgrounds,stimuli/library/library_7.jpg,stimuli/object_05.png,stimuli/object_06.png,target,html-button-response,1228,3433000,0.0-26.0-1.12,A1G5EPLJEGL381,3SD15I2WE5AO7614M34OSYMJOYM362,3YDGXNSEO3AZFZ1Q5YB7B163256485,0,library_7,object_05,object_06,inside,outside,False
233,735.90000000596,1.0,memory_backgrounds,stimuli/library/library_8.jpg,stimuli/object_06.png,stimuli/object_05.png,lure,html-button-response,1230,3434239,0.0-26.0-1.13,A1G5EPLJEGL381,3SD15I2WE5AO7614M34OSYMJOYM362,3YDGXNSEO3AZFZ1Q5YB7B163256485,0,library_8,object_06,object_05,inside,outside,False
234,1311.400000006,2.0,memory_backgrounds,stimuli/forest/forest_4.jpg,stimuli/object_07.png,stimuli/object_03.png,lure_but_seen,html-button-response,1232,3436056,0.0-26.0-1.14,A1G5EPLJEGL381,3SD15I2WE5AO7614M34OSYMJOYM362,3YDGXNSEO3AZFZ1Q5YB7B163256485,1,forest_4,object_07,object_03,outside,outside,True
235,1099.0,2.0,memory_backgrounds,stimuli/forest/forest_5.jpg,stimuli/object_08.png,stimuli/object_10.png,target,html-button-response,1234,3437658,0.0-26.0-1.15,A1G5EPLJEGL381,3SD15I2WE5AO7614M34OSYMJOYM362,3YDGXNSEO3AZFZ1Q5YB7B163256485,0,forest_5,object_08,object_10,outside,outside,True
236,789.09999999404,1.0,memory_backgrounds,stimuli/library/library_2.jpg,stimuli/object_05.png,stimuli/object_06.png,lure,html-button-response,1236,3438951,0.0-26.0-1.16,A1G5EPLJEGL381,3SD15I2WE5AO7614M34OSYMJOYM362,3YDGXNSEO3AZFZ1Q5YB7B163256485,0,library_2,object_05,object_06,inside,outside,False
237,976.70000001788,2.0,memory_backgrounds,stimuli/forest/forest_8.jpg,stimuli/object_10.png,stimuli/object_08.png,target,html-button-response,1238,3440431,0.0-26.0-1.17,A1G5EPLJEGL381,3SD15I2WE5AO7614M34OSYMJOYM362,3YDGXNSEO3AZFZ1Q5YB7B163256485,0,forest_8,object_10,object_08,outside,outside,True
238,1000.1000000238,1.0,memory_backgrounds,stimuli/restaurant/restaurant_5.jpg,stimuli/object_05.png,stimuli/object_06.png,lure_but_seen,html-button-response,1240,3441935,0.0-26.0-1.18,A1G5EPLJEGL381,3SD15I2WE5AO7614M34OSYMJOYM362,3YDGXNSEO3AZFZ1Q5YB7B163256485,0,restaurant_5,object_05,object_06,inside,outside,False
239,711.20000001788,2.0,memory_backgrounds,stimuli/forest/forest_3.jpg,stimuli/object_08.png,stimuli/object_10.png,lure,html-button-response,1242,3443151,0.0-26.0-1.19,A1G5EPLJEGL381,3SD15I2WE5AO7614M34OSYMJOYM362,3YDGXNSEO3AZFZ1Q5YB7B163256485,1,forest_3,object_08,object_10,outside,outside,True
240,751.20000001788,1.0,memory_backgrounds,stimuli/forest/forest_5.jpg,stimuli/object_09.png,stimuli/object_02.png,lure_but_seen,html-button-response,1244,3444407,0.0-26.0-1.20,A1G5EPLJEGL381,3SD15I2WE5AO7614M34OSYMJOYM362,3YDGXNSEO3AZFZ1Q5YB7B163256485,0,forest_5,object_09,object_02,outside,outside,True
241,1104.1999999881,2.0,memory_backgrounds,stimuli/library/library_3.jpg,stimuli/object_06.png,stimuli/object_05.png,target,html-button-response,1246,3446016,0.0-26.0-1.21,A1G5EPLJEGL381,3SD15I2WE5AO7614M34OSYMJOYM362,3YDGXNSEO3AZFZ1Q5YB7B163256485,0,library_3,object_06,object_05,inside,outside,False
242,1399.900000006,0.0,memory_backgrounds,stimuli/forest/forest_6.jpg,stimuli/object_10.png,stimuli/object_08.png,lure,html-button-response,1248,3447920,0.0-26.0-1.22,A1G5EPLJEGL381,3SD15I2WE5AO7614M34OSYMJOYM362,3YDGXNSEO3AZFZ1Q5YB7B163256485,0,forest_6,object_10,object_08,outside,outside,True
243,751.5,2.0,memory_backgrounds,stimuli/desert/desert_5.jpg,stimuli/object_09.png,stimuli/object_02.png,target,html-button-response,1250,3449176,0.0-26.0-1.23,A1G5EPLJEGL381,3SD15I2WE5AO7614M34OSYMJOYM362,3YDGXNSEO3AZFZ1Q5YB7B163256485,0,desert_5,object_09,object_02,outside,outside,True
244,696.29999998212,1.0,memory_backgrounds,stimuli/library/library_5.jpg,stimuli/object_06.png,stimuli/object_05.png,target,html-button-response,1252,3450376,0.0-26.0-1.24,A1G5EPLJEGL381,3SD15I2WE5AO7614M34OSYMJOYM362,3YDGXNSEO3AZFZ1Q5YB7B163256485,1,library_5,object_06,object_05,inside,outside,False
245,616.39999997616,3.0,memory_backgrounds,stimuli/forest/forest_8.jpg,stimuli/object_06.png,stimuli/object_05.png,lure_but_seen,html-button-response,1254,3451496,0.0-26.0-1.25,A1G5EPLJEGL381,3SD15I2WE5AO7614M34OSYMJOYM362,3YDGXNSEO3AZFZ1Q5YB7B163256485,1,forest_8,object_06,object_05,outside,outside,True
246,2670.7999999821,1.0,memory_backgrounds,stimuli/restaurant/restaurant_3.jpg,stimuli/object_03.png,stimuli/object_07.png,target,html-button-response,1256,3454672,0.0-26.0-1.26,A1G5EPLJEGL381,3SD15I2WE5AO7614M34OSYMJOYM362,3YDGXNSEO3AZFZ1Q5YB7B163256485,1,restaurant_3,object_03,object_07,inside,outside,False
247,887.40000000596,2.0,memory_backgrounds,stimuli/restaurant/restaurant_5.jpg,stimuli/object_07.png,stimuli/object_03.png,target,html-button-response,1258,3456064,0.0-26.0-1.27,A1G5EPLJEGL381,3SD15I2WE5AO7614M34OSYMJOYM362,3YDGXNSEO3AZFZ1Q5YB7B163256485,0,restaurant_5,object_07,object_03,inside,outside,False
248,647.5,1.0,memory_backgrounds,stimuli/forest/forest_1.jpg,stimuli/object_08.png,stimuli/object_10.png,lure,html-button-response,1260,3457216,0.0-26.0-1.28,A1G5EPLJEGL381,3SD15I2WE5AO7614M34OSYMJOYM362,3YDGXNSEO3AZFZ1Q5YB7B163256485,0,forest_1,object_08,object_10,outside,outside,True
249,1232.5,0.0,memory_backgrounds,stimuli/forest/forest_4.jpg,stimuli/object_08.png,stimuli/object_10.png,target,html-button-response,1262,3458951,0.0-26.0-1.29,A1G5EPLJEGL381,3SD15I2WE5AO7614M34OSYMJOYM362,3YDGXNSEO3AZFZ1Q5YB7B163256485,1,forest_4,object_08,object_10,outside,outside,True
250,368.29999998212,2.0,memory_backgrounds,stimuli/desert/desert_4.jpg,stimuli/object_09.png,stimuli/object_02.png,lure,html-button-response,1264,3459824,0.0-26.0-1.30,A1G5EPLJEGL381,3SD15I2WE5AO7614M34OSYMJOYM362,3YDGXNSEO3AZFZ1Q5YB7B163256485,1,desert_4,object_09,object_02,outside,outside,True
251,375.40000000596,1.0,memory_backgrounds,stimuli/restaurant/restaurant_1.jpg,stimuli/object_07.png,stimuli/object_03.png,lure,html-button-response,1266,3460704,0.0-26.0-1.31,A1G5EPLJEGL381,3SD15I2WE5AO7614M34OSYMJOYM362,3YDGXNSEO3AZFZ1Q5YB7B163256485,0,restaurant_1,object_07,object_03,inside,outside,False
252,1448.099999994,0.0,memory_backgrounds,stimuli/restaurant/restaurant_6.jpg,stimuli/object_03.png,stimuli/object_07.png,target,html-button-response,1268,3462655,0.0-26.0-1.32,A1G5EPLJEGL381,3SD15I2WE5AO7614M34OSYMJOYM362,3YDGXNSEO3AZFZ1Q5YB7B163256485,1,restaurant_6,object_03,object_07,inside,outside,False
253,632.09999999404,1.0,memory_backgrounds,stimuli/restaurant/restaurant_2.jpg,stimuli/object_03.png,stimuli/object_07.png,lure,html-button-response,1270,3463808,0.0-26.0-1.33,A1G5EPLJEGL381,3SD15I2WE5AO7614M34OSYMJOYM362,3YDGXNSEO3AZFZ1Q5YB7B163256485,0,restaurant_2,object_03,object_07,inside,outside,False
254,439.29999998212,2.0,memory_backgrounds,stimuli/library/library_1.jpg,stimuli/object_05.png,stimuli/object_06.png,target,html-button-response,1272,3464752,0.0-26.0-1.34,A1G5EPLJEGL381,3SD15I2WE5AO7614M34OSYMJOYM362,3YDGXNSEO3AZFZ1Q5YB7B163256485,0,library_1,object_05,object_06,inside,outside,False
255,520.90000000596,2.0,memory_backgrounds,stimuli/library/library_5.jpg,stimuli/object_03.png,stimuli/object_07.png,lure_but_seen,html-button-response,1274,3465776,0.0-26.0-1.35,A1G5EPLJEGL381,3SD15I2WE5AO7614M34OSYMJOYM362,3YDGXNSEO3AZFZ1Q5YB7B163256485,1,library_5,object_03,object_07,inside,outside,False
256,535.69999998808,1.0,memory_backgrounds,stimuli/desert/desert_1.jpg,stimuli/object_02.png,stimuli/object_09.png,lure,html-button-response,1276,3466815,0.0-26.0-1.36,A1G5EPLJEGL381,3SD15I2WE5AO7614M34OSYMJOYM362,3YDGXNSEO3AZFZ1Q5YB7B163256485,0,desert_1,object_02,object_09,outside,outside,True
257,664.30000001192,2.0,memory_backgrounds,stimuli/restaurant/restaurant_7.jpg,stimuli/object_09.png,stimuli/object_02.png,lure_but_seen,html-button-response,1278,3467983,0.0-26.0-1.37,A1G5EPLJEGL381,3SD15I2WE5AO7614M34OSYMJOYM362,3YDGXNSEO3AZFZ1Q5YB7B163256485,1,restaurant_7,object_09,object_02,inside,outside,False
258,392.20000001788,0.0,memory_backgrounds,stimuli/library/library_7.jpg,stimuli/object_08.png,stimuli/object_10.png,lure_but_seen,html-button-response,1280,3468879,0.0-26.0-1.38,A1G5EPLJEGL381,3SD15I2WE5AO7614M34OSYMJOYM362,3YDGXNSEO3AZFZ1Q5YB7B163256485,0,library_7,object_08,object_10,inside,outside,False
259,440.5,1.0,memory_backgrounds,stimuli/desert/desert_5.jpg,stimuli/object_10.png,stimuli/object_08.png,lure_but_seen,html-button-response,1282,3469823,0.0-26.0-1.39,A1G5EPLJEGL381,3SD15I2WE5AO7614M34OSYMJOYM362,3YDGXNSEO3AZFZ1Q5YB7B163256485,0,desert_5,object_10,object_08,outside,outside,True
260,479.69999998808,2.0,memory_backgrounds,stimuli/desert/desert_2.jpg,stimuli/object_09.png,stimuli/object_02.png,target,html-button-response,1284,3470808,0.0-26.0-1.40,A1G5EPLJEGL381,3SD15I2WE5AO7614M34OSYMJOYM362,3YDGXNSEO3AZFZ1Q5YB7B163256485,0,desert_2,object_09,object_02,outside,outside,True
261,598.90000000596,2.0,memory_backgrounds,stimuli/desert/desert_6.jpg,stimuli/object_05.png,stimuli/object_06.png,lure_but_seen,html-button-response,1286,3471911,0.0-26.0-1.41,A1G5EPLJEGL381,3SD15I2WE5AO7614M34OSYMJOYM362,3YDGXNSEO3AZFZ1Q5YB7B163256485,1,desert_6,object_05,object_06,outside,outside,True
262,400.30000001192,1.0,memory_backgrounds,stimuli/forest/forest_7.jpg,stimuli/object_10.png,stimuli/object_08.png,lure,html-button-response,1288,3472815,0.0-26.0-1.42,A1G5EPLJEGL381,3SD15I2WE5AO7614M34OSYMJOYM362,3YDGXNSEO3AZFZ1Q5YB7B163256485,0,forest_7,object_10,object_08,outside,outside,True
263,728.30000001192,0.0,memory_backgrounds,stimuli/restaurant/restaurant_8.jpg,stimuli/object_07.png,stimuli/object_03.png,lure,html-button-response,1290,3474047,0.0-26.0-1.43,A1G5EPLJEGL381,3SD15I2WE5AO7614M34OSYMJOYM362,3YDGXNSEO3AZFZ1Q5YB7B163256485,0,restaurant_8,object_07,object_03,inside,outside,False
264,2526.0,2.0,memory_backgrounds,stimuli/forest/forest_5.jpg,stimuli/object_03.png,stimuli/object_04.png,lure_but_seen,html-button-response,1214,3703929,0.0-26.0-1.0,A38I0E8UK53ME5,3HRWUH63RXIZS6U0Z3EY966PXK25N4,3OLF68YTNDHNW3RUMDR4YW9PHJEAF2,1,forest_5,object_03,object_04,outside,outside,True
265,3254.0,0.0,memory_backgrounds,stimuli/restaurant/restaurant_8.jpg,stimuli/object_03.png,stimuli/object_04.png,lure_but_seen,html-button-response,1216,3707697,0.0-26.0-1.1,A38I0E8UK53ME5,3HRWUH63RXIZS6U0Z3EY966PXK25N4,3OLF68YTNDHNW3RUMDR4YW9PHJEAF2,0,restaurant_8,object_03,object_04,inside,outside,False
266,1483.0,0.0,memory_backgrounds,stimuli/restaurant/restaurant_3.jpg,stimuli/object_07.png,stimuli/object_05.png,target,html-button-response,1218,3709696,0.0-26.0-1.2,A38I0E8UK53ME5,3HRWUH63RXIZS6U0Z3EY966PXK25N4,3OLF68YTNDHNW3RUMDR4YW9PHJEAF2,1,restaurant_3,object_07,object_05,inside,outside,False
267,2611.0,0.0,memory_backgrounds,stimuli/library/library_7.jpg,stimuli/object_09.png,stimuli/object_08.png,target,html-button-response,1220,3712824,0.0-26.0-1.3,A38I0E8UK53ME5,3HRWUH63RXIZS6U0Z3EY966PXK25N4,3OLF68YTNDHNW3RUMDR4YW9PHJEAF2,1,library_7,object_09,object_08,inside,outside,False
268,2274.0,0.0,memory_backgrounds,stimuli/library/library_6.jpg,stimuli/object_09.png,stimuli/object_08.png,target,html-button-response,1222,3715616,0.0-26.0-1.4,A38I0E8UK53ME5,3HRWUH63RXIZS6U0Z3EY966PXK25N4,3OLF68YTNDHNW3RUMDR4YW9PHJEAF2,1,library_6,object_09,object_08,inside,outside,False
269,1999.0,2.0,memory_backgrounds,stimuli/desert/desert_7.jpg,stimuli/object_07.png,stimuli/object_05.png,lure_but_seen,html-button-response,1224,3718121,0.0-26.0-1.5,A38I0E8UK53ME5,3HRWUH63RXIZS6U0Z3EY966PXK25N4,3OLF68YTNDHNW3RUMDR4YW9PHJEAF2,1,desert_7,object_07,object_05,outside,outside,True
270,2232.0,2.0,memory_backgrounds,stimuli/desert/desert_6.jpg,stimuli/object_04.png,stimuli/object_03.png,lure,html-button-response,1226,3720864,0.0-26.0-1.6,A38I0E8UK53ME5,3HRWUH63RXIZS6U0Z3EY966PXK25N4,3OLF68YTNDHNW3RUMDR4YW9PHJEAF2,1,desert_6,object_04,object_03,outside,outside,True
271,1781.0,3.0,memory_backgrounds,stimuli/restaurant/restaurant_3.jpg,stimuli/object_06.png,stimuli/object_02.png,lure_but_seen,html-button-response,1228,3723153,0.0-26.0-1.7,A38I0E8UK53ME5,3HRWUH63RXIZS6U0Z3EY966PXK25N4,3OLF68YTNDHNW3RUMDR4YW9PHJEAF2,1,restaurant_3,object_06,object_02,inside,outside,False
272,1327.0,3.0,memory_backgrounds,stimuli/forest/forest_4.jpg,stimuli/object_06.png,stimuli/object_02.png,lure,html-button-response,1230,3725000,0.0-26.0-1.8,A38I0E8UK53ME5,3HRWUH63RXIZS6U0Z3EY966PXK25N4,3OLF68YTNDHNW3RUMDR4YW9PHJEAF2,1,forest_4,object_06,object_02,outside,outside,True
273,1465.0,0.0,memory_backgrounds,stimuli/forest/forest_5.jpg,stimuli/object_02.png,stimuli/object_06.png,target,html-button-response,1232,3726976,0.0-26.0-1.9,A38I0E8UK53ME5,3HRWUH63RXIZS6U0Z3EY966PXK25N4,3OLF68YTNDHNW3RUMDR4YW9PHJEAF2,1,forest_5,object_02,object_06,outside,outside,True
274,1005.0,0.0,memory_backgrounds,stimuli/forest/forest_3.jpg,stimuli/object_02.png,stimuli/object_06.png,lure,html-button-response,1234,3728497,0.0-26.0-1.10,A38I0E8UK53ME5,3HRWUH63RXIZS6U0Z3EY966PXK25N4,3OLF68YTNDHNW3RUMDR4YW9PHJEAF2,0,forest_3,object_02,object_06,outside,outside,True
275,2061.0,1.0,memory_backgrounds,stimuli/forest/forest_7.jpg,stimuli/object_02.png,stimuli/object_06.png,lure,html-button-response,1236,3731072,0.0-26.0-1.11,A38I0E8UK53ME5,3HRWUH63RXIZS6U0Z3EY966PXK25N4,3OLF68YTNDHNW3RUMDR4YW9PHJEAF2,0,forest_7,object_02,object_06,outside,outside,True
276,1969.0,2.0,memory_backgrounds,stimuli/restaurant/restaurant_7.jpg,stimuli/object_09.png,stimuli/object_08.png,lure_but_seen,html-button-response,1238,3733561,0.0-26.0-1.12,A38I0E8UK53ME5,3HRWUH63RXIZS6U0Z3EY966PXK25N4,3OLF68YTNDHNW3RUMDR4YW9PHJEAF2,1,restaurant_7,object_09,object_08,inside,outside,False
277,2384.0,1.0,memory_backgrounds,stimuli/restaurant/restaurant_7.jpg,stimuli/object_05.png,stimuli/object_07.png,target,html-button-response,1240,3736456,0.0-26.0-1.13,A38I0E8UK53ME5,3HRWUH63RXIZS6U0Z3EY966PXK25N4,3OLF68YTNDHNW3RUMDR4YW9PHJEAF2,1,restaurant_7,object_05,object_07,inside,outside,False
278,1396.0,3.0,memory_backgrounds,stimuli/forest/forest_2.jpg,stimuli/object_05.png,stimuli/object_07.png,lure_but_seen,html-button-response,1242,3738368,0.0-26.0-1.14,A38I0E8UK53ME5,3HRWUH63RXIZS6U0Z3EY966PXK25N4,3OLF68YTNDHNW3RUMDR4YW9PHJEAF2,1,forest_2,object_05,object_07,outside,outside,True
279,2057.0,3.0,memory_backgrounds,stimuli/desert/desert_8.jpg,stimuli/object_04.png,stimuli/object_03.png,lure,html-button-response,1244,3740929,0.0-26.0-1.15,A38I0E8UK53ME5,3HRWUH63RXIZS6U0Z3EY966PXK25N4,3OLF68YTNDHNW3RUMDR4YW9PHJEAF2,1,desert_8,object_04,object_03,outside,outside,True
280,1665.0,3.0,memory_backgrounds,stimuli/library/library_6.jpg,stimuli/object_02.png,stimuli/object_06.png,lure_but_seen,html-button-response,1246,3743096,0.0-26.0-1.16,A38I0E8UK53ME5,3HRWUH63RXIZS6U0Z3EY966PXK25N4,3OLF68YTNDHNW3RUMDR4YW9PHJEAF2,1,library_6,object_02,object_06,inside,outside,False
281,2405.0,1.0,memory_backgrounds,stimuli/forest/forest_1.jpg,stimuli/object_06.png,stimuli/object_02.png,target,html-button-response,1248,3746016,0.0-26.0-1.17,A38I0E8UK53ME5,3HRWUH63RXIZS6U0Z3EY966PXK25N4,3OLF68YTNDHNW3RUMDR4YW9PHJEAF2,1,forest_1,object_06,object_02,outside,outside,True
282,1877.0,1.0,memory_backgrounds,stimuli/forest/forest_6.jpg,stimuli/object_08.png,stimuli/object_09.png,lure_but_seen,html-button-response,1250,3748408,0.0-26.0-1.18,A38I0E8UK53ME5,3HRWUH63RXIZS6U0Z3EY966PXK25N4,3OLF68YTNDHNW3RUMDR4YW9PHJEAF2,0,forest_6,object_08,object_09,outside,outside,True
283,1439.0,1.0,memory_backgrounds,stimuli/desert/desert_5.jpg,stimuli/object_09.png,stimuli/object_08.png,lure_but_seen,html-button-response,1252,3750353,0.0-26.0-1.19,A38I0E8UK53ME5,3HRWUH63RXIZS6U0Z3EY966PXK25N4,3OLF68YTNDHNW3RUMDR4YW9PHJEAF2,0,desert_5,object_09,object_08,outside,outside,True
284,1513.0,0.0,memory_backgrounds,stimuli/forest/forest_6.jpg,stimuli/object_06.png,stimuli/object_02.png,target,html-button-response,1254,3752384,0.0-26.0-1.20,A38I0E8UK53ME5,3HRWUH63RXIZS6U0Z3EY966PXK25N4,3OLF68YTNDHNW3RUMDR4YW9PHJEAF2,1,forest_6,object_06,object_02,outside,outside,True
285,1733.0,2.0,memory_backgrounds,stimuli/library/library_3.jpg,stimuli/object_09.png,stimuli/object_08.png,lure,html-button-response,1256,3754625,0.0-26.0-1.21,A38I0E8UK53ME5,3HRWUH63RXIZS6U0Z3EY966PXK25N4,3OLF68YTNDHNW3RUMDR4YW9PHJEAF2,1,library_3,object_09,object_08,inside,outside,False
286,1420.0,2.0,memory_backgrounds,stimuli/forest/forest_8.jpg,stimuli/object_06.png,stimuli/object_02.png,lure,html-button-response,1258,3756552,0.0-26.0-1.22,A38I0E8UK53ME5,3HRWUH63RXIZS6U0Z3EY966PXK25N4,3OLF68YTNDHNW3RUMDR4YW9PHJEAF2,1,forest_8,object_06,object_02,outside,outside,True
287,1673.0,3.0,memory_backgrounds,stimuli/library/library_8.jpg,stimuli/object_09.png,stimuli/object_08.png,lure,html-button-response,1260,3758745,0.0-26.0-1.23,A38I0E8UK53ME5,3HRWUH63RXIZS6U0Z3EY966PXK25N4,3OLF68YTNDHNW3RUMDR4YW9PHJEAF2,1,library_8,object_09,object_08,inside,outside,False
288,1763.0,0.0,memory_backgrounds,stimuli/desert/desert_3.jpg,stimuli/object_06.png,stimuli/object_02.png,lure_but_seen,html-button-response,1262,3761025,0.0-26.0-1.24,A38I0E8UK53ME5,3HRWUH63RXIZS6U0Z3EY966PXK25N4,3OLF68YTNDHNW3RUMDR4YW9PHJEAF2,0,desert_3,object_06,object_02,outside,outside,True
289,1626.0,3.0,memory_backgrounds,stimuli/library/library_2.jpg,stimuli/object_08.png,stimuli/object_09.png,lure,html-button-response,1264,3763168,0.0-26.0-1.25,A38I0E8UK53ME5,3HRWUH63RXIZS6U0Z3EY966PXK25N4,3OLF68YTNDHNW3RUMDR4YW9PHJEAF2,1,library_2,object_08,object_09,inside,outside,False
290,961.0,3.0,memory_backgrounds,stimuli/library/library_4.jpg,stimuli/object_08.png,stimuli/object_09.png,lure,html-button-response,1266,3764632,0.0-26.0-1.26,A38I0E8UK53ME5,3HRWUH63RXIZS6U0Z3EY966PXK25N4,3OLF68YTNDHNW3RUMDR4YW9PHJEAF2,1,library_4,object_08,object_09,inside,outside,False
291,1634.0,0.0,memory_backgrounds,stimuli/restaurant/restaurant_4.jpg,stimuli/object_07.png,stimuli/object_05.png,target,html-button-response,1268,3766786,0.0-26.0-1.27,A38I0E8UK53ME5,3HRWUH63RXIZS6U0Z3EY966PXK25N4,3OLF68YTNDHNW3RUMDR4YW9PHJEAF2,1,restaurant_4,object_07,object_05,inside,outside,False
292,1051.0,0.0,memory_backgrounds,stimuli/restaurant/restaurant_8.jpg,stimuli/object_05.png,stimuli/object_07.png,target,html-button-response,1270,3768344,0.0-26.0-1.28,A38I0E8UK53ME5,3HRWUH63RXIZS6U0Z3EY966PXK25N4,3OLF68YTNDHNW3RUMDR4YW9PHJEAF2,1,restaurant_8,object_05,object_07,inside,outside,False
293,2517.0,2.0,memory_backgrounds,stimuli/desert/desert_2.jpg,stimuli/object_04.png,stimuli/object_03.png,target,html-button-response,1272,3771369,0.0-26.0-1.29,A38I0E8UK53ME5,3HRWUH63RXIZS6U0Z3EY966PXK25N4,3OLF68YTNDHNW3RUMDR4YW9PHJEAF2,0,desert_2,object_04,object_03,outside,outside,True
294,1334.0,0.0,memory_backgrounds,stimuli/library/library_5.jpg,stimuli/object_07.png,stimuli/object_05.png,lure_but_seen,html-button-response,1274,3773209,0.0-26.0-1.30,A38I0E8UK53ME5,3HRWUH63RXIZS6U0Z3EY966PXK25N4,3OLF68YTNDHNW3RUMDR4YW9PHJEAF2,0,library_5,object_07,object_05,inside,outside,False
295,1400.0,3.0,memory_backgrounds,stimuli/desert/desert_1.jpg,stimuli/object_03.png,stimuli/object_04.png,lure,html-button-response,1276,3775112,0.0-26.0-1.31,A38I0E8UK53ME5,3HRWUH63RXIZS6U0Z3EY966PXK25N4,3OLF68YTNDHNW3RUMDR4YW9PHJEAF2,1,desert_1,object_03,object_04,outside,outside,True
296,945.0,3.0,memory_backgrounds,stimuli/restaurant/restaurant_6.jpg,stimuli/object_07.png,stimuli/object_05.png,lure,html-button-response,1278,3776576,0.0-26.0-1.32,A38I0E8UK53ME5,3HRWUH63RXIZS6U0Z3EY966PXK25N4,3OLF68YTNDHNW3RUMDR4YW9PHJEAF2,1,restaurant_6,object_07,object_05,inside,outside,False
297,1076.0,3.0,memory_backgrounds,stimuli/restaurant/restaurant_5.jpg,stimuli/object_05.png,stimuli/object_07.png,lure,html-button-response,1280,3778169,0.0-26.0-1.33,A38I0E8UK53ME5,3HRWUH63RXIZS6U0Z3EY966PXK25N4,3OLF68YTNDHNW3RUMDR4YW9PHJEAF2,1,restaurant_5,object_05,object_07,inside,outside,False
298,1393.0,0.0,memory_backgrounds,stimuli/library/library_1.jpg,stimuli/object_08.png,stimuli/object_09.png,target,html-button-response,1282,3780064,0.0-26.0-1.34,A38I0E8UK53ME5,3HRWUH63RXIZS6U0Z3EY966PXK25N4,3OLF68YTNDHNW3RUMDR4YW9PHJEAF2,1,library_1,object_08,object_09,inside,outside,False
299,1139.0,0.0,memory_backgrounds,stimuli/forest/forest_2.jpg,stimuli/object_02.png,stimuli/object_06.png,target,html-button-response,1284,3781720,0.0-26.0-1.35,A38I0E8UK53ME5,3HRWUH63RXIZS6U0Z3EY966PXK25N4,3OLF68YTNDHNW3RUMDR4YW9PHJEAF2,1,forest_2,object_02,object_06,outside,outside,True
300,1490.0,1.0,memory_backgrounds,stimuli/desert/desert_7.jpg,stimuli/object_03.png,stimuli/object_04.png,target,html-button-response,1286,3783712,0.0-26.0-1.36,A38I0E8UK53ME5,3HRWUH63RXIZS6U0Z3EY966PXK25N4,3OLF68YTNDHNW3RUMDR4YW9PHJEAF2,1,desert_7,object_03,object_04,outside,outside,True
301,1283.0,0.0,memory_backgrounds,stimuli/desert/desert_3.jpg,stimuli/object_03.png,stimuli/object_04.png,target,html-button-response,1288,3785505,0.0-26.0-1.37,A38I0E8UK53ME5,3HRWUH63RXIZS6U0Z3EY966PXK25N4,3OLF68YTNDHNW3RUMDR4YW9PHJEAF2,1,desert_3,object_03,object_04,outside,outside,True
302,1716.0,1.0,memory_backgrounds,stimuli/desert/desert_5.jpg,stimuli/object_04.png,stimuli/object_03.png,target,html-button-response,1290,3787737,0.0-26.0-1.38,A38I0E8UK53ME5,3HRWUH63RXIZS6U0Z3EY966PXK25N4,3OLF68YTNDHNW3RUMDR4YW9PHJEAF2,1,desert_5,object_04,object_03,outside,outside,True
303,1342.0,2.0,memory_backgrounds,stimuli/desert/desert_4.jpg,stimuli/object_03.png,stimuli/object_04.png,lure,html-button-response,1292,3789584,0.0-26.0-1.39,A38I0E8UK53ME5,3HRWUH63RXIZS6U0Z3EY966PXK25N4,3OLF68YTNDHNW3RUMDR4YW9PHJEAF2,1,desert_4,object_03,object_04,outside,outside,True
304,1347.0,3.0,memory_backgrounds,stimuli/restaurant/restaurant_1.jpg,stimuli/object_05.png,stimuli/object_07.png,lure,html-button-response,1294,3791448,0.0-26.0-1.40,A38I0E8UK53ME5,3HRWUH63RXIZS6U0Z3EY966PXK25N4,3OLF68YTNDHNW3RUMDR4YW9PHJEAF2,1,restaurant_1,object_05,object_07,inside,outside,False
305,1247.0,0.0,memory_backgrounds,stimuli/library/library_1.jpg,stimuli/object_04.png,stimuli/object_03.png,lure_but_seen,html-button-response,1296,3793209,0.0-26.0-1.41,A38I0E8UK53ME5,3HRWUH63RXIZS6U0Z3EY966PXK25N4,3OLF68YTNDHNW3RUMDR4YW9PHJEAF2,0,library_1,object_04,object_03,inside,outside,False
306,895.0,0.0,memory_backgrounds,stimuli/library/library_5.jpg,stimuli/object_08.png,stimuli/object_09.png,target,html-button-response,1298,3794616,0.0-26.0-1.42,A38I0E8UK53ME5,3HRWUH63RXIZS6U0Z3EY966PXK25N4,3OLF68YTNDHNW3RUMDR4YW9PHJEAF2,1,library_5,object_08,object_09,inside,outside,False
307,2470.0,1.0,memory_backgrounds,stimuli/restaurant/restaurant_2.jpg,stimuli/object_07.png,stimuli/object_05.png,lure,html-button-response,1300,3797593,0.0-26.0-1.43,A38I0E8UK53ME5,3HRWUH63RXIZS6U0Z3EY966PXK25N4,3OLF68YTNDHNW3RUMDR4YW9PHJEAF2,0,restaurant_2,object_07,object_05,inside,outside,False
308,2515.0,3.0,memory_backgrounds,stimuli/desert/desert_7.jpg,stimuli/object_01.png,stimuli/object_10.png,target,html-button-response,1202,3548799,0.0-26.0-1.0,A1P47Q6LZPLQ6P,3VGZ74AYUJWEHZMTR9OBXS32OP2GCF,33IZTU6J85H8WL4937JHP3327UHSX7,0,desert_7,object_01,object_10,outside,outside,True
309,1571.0,0.0,memory_backgrounds,stimuli/library/library_5.jpg,stimuli/object_07.png,stimuli/object_09.png,target,html-button-response,1204,3550873,0.0-26.0-1.1,A1P47Q6LZPLQ6P,3VGZ74AYUJWEHZMTR9OBXS32OP2GCF,33IZTU6J85H8WL4937JHP3327UHSX7,1,library_5,object_07,object_09,inside,outside,False
310,2669.0,3.0,memory_backgrounds,stimuli/forest/forest_3.jpg,stimuli/object_05.png,stimuli/object_02.png,lure,html-button-response,1206,3554045,0.0-26.0-1.2,A1P47Q6LZPLQ6P,3VGZ74AYUJWEHZMTR9OBXS32OP2GCF,33IZTU6J85H8WL4937JHP3327UHSX7,1,forest_3,object_05,object_02,outside,outside,True
311,2149.0,2.0,memory_backgrounds,stimuli/restaurant/restaurant_8.jpg,stimuli/object_03.png,stimuli/object_04.png,lure,html-button-response,1208,3556698,0.0-26.0-1.3,A1P47Q6LZPLQ6P,3VGZ74AYUJWEHZMTR9OBXS32OP2GCF,33IZTU6J85H8WL4937JHP3327UHSX7,1,restaurant_8,object_03,object_04,inside,outside,False
312,2123.0,2.0,memory_backgrounds,stimuli/forest/forest_8.jpg,stimuli/object_04.png,stimuli/object_03.png,lure_but_seen,html-button-response,1210,3559323,0.0-26.0-1.4,A1P47Q6LZPLQ6P,3VGZ74AYUJWEHZMTR9OBXS32OP2GCF,33IZTU6J85H8WL4937JHP3327UHSX7,1,forest_8,object_04,object_03,outside,outside,True
313,1762.0,3.0,memory_backgrounds,stimuli/desert/desert_3.jpg,stimuli/object_10.png,stimuli/object_01.png,lure,html-button-response,1212,3561588,0.0-26.0-1.5,A1P47Q6LZPLQ6P,3VGZ74AYUJWEHZMTR9OBXS32OP2GCF,33IZTU6J85H8WL4937JHP3327UHSX7,1,desert_3,object_10,object_01,outside,outside,True
314,1653.0,3.0,memory_backgrounds,stimuli/restaurant/restaurant_3.jpg,stimuli/object_04.png,stimuli/object_03.png,lure,html-button-response,1214,3563745,0.0-26.0-1.6,A1P47Q6LZPLQ6P,3VGZ74AYUJWEHZMTR9OBXS32OP2GCF,33IZTU6J85H8WL4937JHP3327UHSX7,1,restaurant_3,object_04,object_03,inside,outside,False
315,1554.0,2.0,memory_backgrounds,stimuli/restaurant/restaurant_7.jpg,stimuli/object_04.png,stimuli/object_03.png,lure,html-button-response,1216,3565800,0.0-26.0-1.7,A1P47Q6LZPLQ6P,3VGZ74AYUJWEHZMTR9OBXS32OP2GCF,33IZTU6J85H8WL4937JHP3327UHSX7,1,restaurant_7,object_04,object_03,inside,outside,False
316,2079.0,0.0,memory_backgrounds,stimuli/desert/desert_1.jpg,stimuli/object_03.png,stimuli/object_04.png,lure_but_seen,html-button-response,1218,3568383,0.0-26.0-1.8,A1P47Q6LZPLQ6P,3VGZ74AYUJWEHZMTR9OBXS32OP2GCF,33IZTU6J85H8WL4937JHP3327UHSX7,0,desert_1,object_03,object_04,outside,outside,True
317,1949.0,1.0,memory_backgrounds,stimuli/forest/forest_4.jpg,stimuli/object_02.png,stimuli/object_05.png,target,html-button-response,1220,3570836,0.0-26.0-1.9,A1P47Q6LZPLQ6P,3VGZ74AYUJWEHZMTR9OBXS32OP2GCF,33IZTU6J85H8WL4937JHP3327UHSX7,1,forest_4,object_02,object_05,outside,outside,True
318,1623.0,0.0,memory_backgrounds,stimuli/restaurant/restaurant_5.jpg,stimuli/object_02.png,stimuli/object_05.png,lure_but_seen,html-button-response,1222,3572962,0.0-26.0-1.10,A1P47Q6LZPLQ6P,3VGZ74AYUJWEHZMTR9OBXS32OP2GCF,33IZTU6J85H8WL4937JHP3327UHSX7,0,restaurant_5,object_02,object_05,inside,outside,False
319,1747.0,2.0,memory_backgrounds,stimuli/desert/desert_2.jpg,stimuli/object_01.png,stimuli/object_10.png,lure,html-button-response,1224,3575212,0.0-26.0-1.11,A1P47Q6LZPLQ6P,3VGZ74AYUJWEHZMTR9OBXS32OP2GCF,33IZTU6J85H8WL4937JHP3327UHSX7,1,desert_2,object_01,object_10,outside,outside,True
320,1233.0,0.0,memory_backgrounds,stimuli/restaurant/restaurant_4.jpg,stimuli/object_10.png,stimuli/object_01.png,lure_but_seen,html-button-response,1226,3576948,0.0-26.0-1.12,A1P47Q6LZPLQ6P,3VGZ74AYUJWEHZMTR9OBXS32OP2GCF,33IZTU6J85H8WL4937JHP3327UHSX7,0,restaurant_4,object_10,object_01,inside,outside,False
321,1244.0,0.0,memory_backgrounds,stimuli/restaurant/restaurant_6.jpg,stimuli/object_04.png,stimuli/object_03.png,target,html-button-response,1228,3578695,0.0-26.0-1.13,A1P47Q6LZPLQ6P,3VGZ74AYUJWEHZMTR9OBXS32OP2GCF,33IZTU6J85H8WL4937JHP3327UHSX7,1,restaurant_6,object_04,object_03,inside,outside,False
322,768.0,0.0,memory_backgrounds,stimuli/restaurant/restaurant_5.jpg,stimuli/object_03.png,stimuli/object_04.png,target,html-button-response,1230,3579964,0.0-26.0-1.14,A1P47Q6LZPLQ6P,3VGZ74AYUJWEHZMTR9OBXS32OP2GCF,33IZTU6J85H8WL4937JHP3327UHSX7,1,restaurant_5,object_03,object_04,inside,outside,False
323,1323.0,0.0,memory_backgrounds,stimuli/library/library_7.jpg,stimuli/object_01.png,stimuli/object_10.png,lure_but_seen,html-button-response,1232,3581790,0.0-26.0-1.15,A1P47Q6LZPLQ6P,3VGZ74AYUJWEHZMTR9OBXS32OP2GCF,33IZTU6J85H8WL4937JHP3327UHSX7,0,library_7,object_01,object_10,inside,outside,False
324,1546.0,2.0,memory_backgrounds,stimuli/desert/desert_4.jpg,stimuli/object_10.png,stimuli/object_01.png,lure,html-button-response,1234,3583838,0.0-26.0-1.16,A1P47Q6LZPLQ6P,3VGZ74AYUJWEHZMTR9OBXS32OP2GCF,33IZTU6J85H8WL4937JHP3327UHSX7,1,desert_4,object_10,object_01,outside,outside,True
325,1908.0,0.0,memory_backgrounds,stimuli/library/library_1.jpg,stimuli/object_05.png,stimuli/object_02.png,lure_but_seen,html-button-response,1236,3586248,0.0-26.0-1.17,A1P47Q6LZPLQ6P,3VGZ74AYUJWEHZMTR9OBXS32OP2GCF,33IZTU6J85H8WL4937JHP3327UHSX7,0,library_1,object_05,object_02,inside,outside,False
326,858.0,0.0,memory_backgrounds,stimuli/restaurant/restaurant_2.jpg,stimuli/object_03.png,stimuli/object_04.png,target,html-button-response,1238,3587608,0.0-26.0-1.18,A1P47Q6LZPLQ6P,3VGZ74AYUJWEHZMTR9OBXS32OP2GCF,33IZTU6J85H8WL4937JHP3327UHSX7,1,restaurant_2,object_03,object_04,inside,outside,False
327,1262.0,0.0,memory_backgrounds,stimuli/forest/forest_8.jpg,stimuli/object_05.png,stimuli/object_02.png,target,html-button-response,1240,3589372,0.0-26.0-1.19,A1P47Q6LZPLQ6P,3VGZ74AYUJWEHZMTR9OBXS32OP2GCF,33IZTU6J85H8WL4937JHP3327UHSX7,1,forest_8,object_05,object_02,outside,outside,True
328,1539.0,1.0,memory_backgrounds,stimuli/desert/desert_5.jpg,stimuli/object_01.png,stimuli/object_10.png,target,html-button-response,1242,3591416,0.0-26.0-1.20,A1P47Q6LZPLQ6P,3VGZ74AYUJWEHZMTR9OBXS32OP2GCF,33IZTU6J85H8WL4937JHP3327UHSX7,1,desert_5,object_01,object_10,outside,outside,True
329,1173.0,0.0,memory_backgrounds,stimuli/desert/desert_1.jpg,stimuli/object_10.png,stimuli/object_01.png,target,html-button-response,1244,3593093,0.0-26.0-1.21,A1P47Q6LZPLQ6P,3VGZ74AYUJWEHZMTR9OBXS32OP2GCF,33IZTU6J85H8WL4937JHP3327UHSX7,1,desert_1,object_10,object_01,outside,outside,True
330,1794.0,2.0,memory_backgrounds,stimuli/restaurant/restaurant_1.jpg,stimuli/object_03.png,stimuli/object_04.png,lure,html-button-response,1246,3595390,0.0-26.0-1.22,A1P47Q6LZPLQ6P,3VGZ74AYUJWEHZMTR9OBXS32OP2GCF,33IZTU6J85H8WL4937JHP3327UHSX7,1,restaurant_1,object_03,object_04,inside,outside,False
331,1518.0,0.0,memory_backgrounds,stimuli/forest/forest_7.jpg,stimuli/object_02.png,stimuli/object_05.png,target,html-button-response,1248,3597412,0.0-26.0-1.23,A1P47Q6LZPLQ6P,3VGZ74AYUJWEHZMTR9OBXS32OP2GCF,33IZTU6J85H8WL4937JHP3327UHSX7,1,forest_7,object_02,object_05,outside,outside,True
332,830.0,0.0,memory_backgrounds,stimuli/restaurant/restaurant_6.jpg,stimuli/object_09.png,stimuli/object_07.png,lure_but_seen,html-button-response,1250,3598746,0.0-26.0-1.24,A1P47Q6LZPLQ6P,3VGZ74AYUJWEHZMTR9OBXS32OP2GCF,33IZTU6J85H8WL4937JHP3327UHSX7,0,restaurant_6,object_09,object_07,inside,outside,False
