rt,stimulus,key_press,task,trial_type,trial_index,time_elapsed,internal_node_id,subid
NULL, ,NULL,memory_backgrounds,html-keyboard-response,1200,3549256,0.0-25.0-0.0,1333
NULL,stimuli/desert/desert_11.jpg,NULL,memory_backgrounds,image-keyboard-response,1201,3551759,0.0-25.0-1.0,1333
NULL, ,NULL,memory_backgrounds,html-keyboard-response,1202,3552261,0.0-25.0-0.1,1333
319,stimuli/forest/forest_9.jpg,74,memory_backgrounds,image-keyboard-response,1203,3552581,0.0-25.0-1.1,1333
NULL, ,NULL,memory_backgrounds,html-keyboard-response,1204,3553082,0.0-25.0-0.2,1333
279,stimuli/desert/desert_32.jpg,70,memory_backgrounds,image-keyboard-response,1205,3553363,0.0-25.0-1.2,1333
NULL, ,NULL,memory_backgrounds,html-keyboard-response,1206,3553864,0.0-25.0-0.3,1333
99,stimuli/forest/forest_28.jpg,74,memory_backgrounds,image-keyboard-response,1207,3553964,0.0-25.0-1.3,1333
NULL, ,NULL,memory_backgrounds,html-keyboard-response,1208,3554465,0.0-25.0-0.4,1333
44,stimuli/desert/desert_31.jpg,70,memory_backgrounds,image-keyboard-response,1209,3554510,0.0-25.0-1.4,1333
NULL, ,NULL,memory_backgrounds,html-keyboard-response,1210,3555012,0.0-25.0-0.5,1333
308,stimuli/forest/forest_22.jpg,70,memory_backgrounds,image-keyboard-response,1211,3555321,0.0-25.0-1.5,1333
NULL, ,NULL,memory_backgrounds,html-keyboard-response,1212,3555823,0.0-25.0-0.6,1333
476,stimuli/forest/forest_16.jpg,70,memory_backgrounds,image-keyboard-response,1213,3556301,0.0-25.0-1.6,1333
NULL, ,NULL,memory_backgrounds,html-keyboard-response,1214,3556803,0.0-25.0-0.7,1333
231,stimuli/restaurant/restaurant_29.jpg,70,memory_backgrounds,image-keyboard-response,1215,3557036,0.0-25.0-1.7,1333
NULL, ,NULL,memory_backgrounds,html-keyboard-response,1216,3557538,0.0-25.0-0.8,1333
274,stimuli/desert/desert_4.jpg,74,memory_backgrounds,image-keyboard-response,1217,3557815,0.0-25.0-1.8,1333
NULL, ,NULL,memory_backgrounds,html-keyboard-response,1218,3558316,0.0-25.0-0.9,1333
701,stimuli/restaurant/restaurant_15.jpg,74,memory_backgrounds,image-keyboard-response,1219,3559018,0.0-25.0-1.9,1333
NULL, ,NULL,memory_backgrounds,html-keyboard-response,1220,3559520,0.0-25.0-0.10,1333
1318,stimuli/desert/desert_25.jpg,74,memory_backgrounds,image-keyboard-response,1221,3560840,0.0-25.0-1.10,1333
NULL, ,NULL,memory_backgrounds,html-keyboard-response,1222,3561342,0.0-25.0-0.11,1333
508,stimuli/forest/forest_11.jpg,70,memory_backgrounds,image-keyboard-response,1223,3561851,0.0-25.0-1.11,1333
NULL, ,NULL,memory_backgrounds,html-keyboard-response,1224,3562353,0.0-25.0-0.12,1333
1041,stimuli/restaurant/restaurant_20.jpg,70,memory_backgrounds,image-keyboard-response,1225,3563395,0.0-25.0-1.12,1333
NULL, ,NULL,memory_backgrounds,html-keyboard-response,1226,3563898,0.0-25.0-0.13,1333
338,stimuli/library/library_3.jpg,74,memory_backgrounds,image-keyboard-response,1227,3564240,0.0-25.0-1.13,1333
NULL, ,NULL,memory_backgrounds,html-keyboard-response,1228,3564741,0.0-25.0-0.14,1333
326,stimuli/library/library_10.jpg,70,memory_backgrounds,image-keyboard-response,1229,3565068,0.0-25.0-1.14,1333
NULL, ,NULL,memory_backgrounds,html-keyboard-response,1230,3565570,0.0-25.0-0.15,1333
234,stimuli/desert/desert_6.jpg,70,memory_backgrounds,image-keyboard-response,1231,3565805,0.0-25.0-1.15,1333
NULL, ,NULL,memory_backgrounds,html-keyboard-response,1232,3566308,0.0-25.0-0.16,1333
233,stimuli/restaurant/restaurant_2.jpg,70,memory_backgrounds,image-keyboard-response,1233,3566541,0.0-25.0-1.16,1333
NULL, ,NULL,memory_backgrounds,html-keyboard-response,1234,3567044,0.0-25.0-0.17,1333
209,stimuli/forest/forest_29.jpg,70,memory_backgrounds,image-keyboard-response,1235,3567253,0.0-25.0-1.17,1333
NULL, ,NULL,memory_backgrounds,html-keyboard-response,1236,3567755,0.0-25.0-0.18,1333
738,stimuli/forest/forest_27.jpg,70,memory_backgrounds,image-keyboard-response,1237,3568494,0.0-25.0-1.18,1333
NULL, ,NULL,memory_backgrounds,html-keyboard-response,1238,3568996,0.0-25.0-0.19,1333
951,stimuli/desert/desert_9.jpg,74,memory_backgrounds,image-keyboard-response,1239,3569948,0.0-25.0-1.19,1333
NULL, ,NULL,memory_backgrounds,html-keyboard-response,1240,3570450,0.0-25.0-0.20,1333
329,stimuli/desert/desert_18.jpg,70,memory_backgrounds,image-keyboard-response,1241,3570780,0.0-25.0-1.20,1333
NULL, ,NULL,memory_backgrounds,html-keyboard-response,1242,3571282,0.0-25.0-0.21,1333
315,stimuli/forest/forest_13.jpg,70,memory_backgrounds,image-keyboard-response,1243,3571598,0.0-25.0-1.21,1333
NULL, ,NULL,memory_backgrounds,html-keyboard-response,1244,3572100,0.0-25.0-0.22,1333
974,stimuli/restaurant/restaurant_5.jpg,70,memory_backgrounds,image-keyboard-response,1245,3573075,0.0-25.0-1.22,1333
NULL, ,NULL,memory_backgrounds,html-keyboard-response,1246,3573579,0.0-25.0-0.23,1333
995,stimuli/desert/desert_8.jpg,70,memory_backgrounds,image-keyboard-response,1247,3574575,0.0-25.0-1.23,1333
NULL, ,NULL,memory_backgrounds,html-keyboard-response,1248,3575077,0.0-25.0-0.24,1333
1093,stimuli/restaurant/restaurant_9.jpg,70,memory_backgrounds,image-keyboard-response,1249,3576172,0.0-25.0-1.24,1333
NULL, ,NULL,memory_backgrounds,html-keyboard-response,1250,3576673,0.0-25.0-0.25,1333
905,stimuli/library/library_22.jpg,74,memory_backgrounds,image-keyboard-response,1251,3577579,0.0-25.0-1.25,1333
NULL, ,NULL,memory_backgrounds,html-keyboard-response,1252,3578081,0.0-25.0-0.26,1333
470,stimuli/library/library_19.jpg,70,memory_backgrounds,image-keyboard-response,1253,3578552,0.0-25.0-1.26,1333
NULL, ,NULL,memory_backgrounds,html-keyboard-response,1254,3579054,0.0-25.0-0.27,1333
314,stimuli/restaurant/restaurant_31.jpg,70,memory_backgrounds,image-keyboard-response,1255,3579371,0.0-25.0-1.27,1333
NULL, ,NULL,memory_backgrounds,html-keyboard-response,1256,3579872,0.0-25.0-0.28,1333
259,stimuli/desert/desert_10.jpg,74,memory_backgrounds,image-keyboard-response,1257,3580132,0.0-25.0-1.28,1333
NULL, ,NULL,memory_backgrounds,html-keyboard-response,1258,3580635,0.0-25.0-0.29,1333
85,stimuli/restaurant/restaurant_4.jpg,70,memory_backgrounds,image-keyboard-response,1259,3580722,0.0-25.0-1.29,1333
NULL, ,NULL,memory_backgrounds,html-keyboard-response,1260,3581224,0.0-25.0-0.30,1333
116,stimuli/desert/desert_26.jpg,74,memory_backgrounds,image-keyboard-response,1261,3581342,0.0-25.0-1.30,1333
NULL, ,NULL,memory_backgrounds,html-keyboard-response,1262,3581843,0.0-25.0-0.31,1333
67,stimuli/library/library_18.jpg,70,memory_backgrounds,image-keyboard-response,1263,3581911,0.0-25.0-1.31,1333
NULL, ,NULL,memory_backgrounds,html-keyboard-response,1264,3582414,0.0-25.0-0.32,1333
32,stimuli/restaurant/restaurant_30.jpg,74,memory_backgrounds,image-keyboard-response,1265,3582447,0.0-25.0-1.32,1333
NULL, ,NULL,memory_backgrounds,html-keyboard-response,1266,3582948,0.0-25.0-0.33,1333
167,stimuli/forest/forest_31.jpg,74,memory_backgrounds,image-keyboard-response,1267,3583117,0.0-25.0-1.33,1333
NULL, ,NULL,memory_backgrounds,html-keyboard-response,1268,3583619,0.0-25.0-0.34,1333
132,stimuli/restaurant/restaurant_14.jpg,70,memory_backgrounds,image-keyboard-response,1269,3583752,0.0-25.0-1.34,1333
NULL, ,NULL,memory_backgrounds,html-keyboard-response,1270,3584254,0.0-25.0-0.35,1333
288,stimuli/forest/forest_4.jpg,74,memory_backgrounds,image-keyboard-response,1271,3584544,0.0-25.0-1.35,1333
NULL, ,NULL,memory_backgrounds,html-keyboard-response,1272,3585046,0.0-25.0-0.36,1333
149,stimuli/restaurant/restaurant_27.jpg,74,memory_backgrounds,image-keyboard-response,1273,3585198,0.0-25.0-1.36,1333
NULL, ,NULL,memory_backgrounds,html-keyboard-response,1274,3585699,0.0-25.0-0.37,1333
360,stimuli/forest/forest_1.jpg,70,memory_backgrounds,image-keyboard-response,1275,3586060,0.0-25.0-1.37,1333
NULL, ,NULL,memory_backgrounds,html-keyboard-response,1276,3586561,0.0-25.0-0.38,1333
728,stimuli/forest/forest_7.jpg,70,memory_backgrounds,image-keyboard-response,1277,3587291,0.0-25.0-1.38,1333
NULL, ,NULL,memory_backgrounds,html-keyboard-response,1278,3587793,0.0-25.0-0.39,1333
125,stimuli/forest/forest_26.jpg,74,memory_backgrounds,image-keyboard-response,1279,3587919,0.0-25.0-1.39,1333
NULL, ,NULL,memory_backgrounds,html-keyboard-response,1280,3588421,0.0-25.0-0.40,1333
307,stimuli/desert/desert_16.jpg,74,memory_backgrounds,image-keyboard-response,1281,3588729,0.0-25.0-1.40,1333
NULL, ,NULL,memory_backgrounds,html-keyboard-response,1282,3589231,0.0-25.0-0.41,1333
284,stimuli/restaurant/restaurant_26.jpg,74,memory_backgrounds,image-keyboard-response,1283,3589517,0.0-25.0-1.41,1333
NULL, ,NULL,memory_backgrounds,html-keyboard-response,1284,3590019,0.0-25.0-0.42,1333
854,stimuli/library/library_27.jpg,70,memory_backgrounds,image-keyboard-response,1285,3590874,0.0-25.0-1.42,1333
NULL, ,NULL,memory_backgrounds,html-keyboard-response,1286,3591375,0.0-25.0-0.43,1333
422,stimuli/library/library_32.jpg,70,memory_backgrounds,image-keyboard-response,1287,3591799,0.0-25.0-1.43,1333
NULL, ,NULL,memory_backgrounds,html-keyboard-response,1288,3592301,0.0-25.0-0.44,1333
777,stimuli/library/library_25.jpg,70,memory_backgrounds,image-keyboard-response,1289,3593081,0.0-25.0-1.44,1333
NULL, ,NULL,memory_backgrounds,html-keyboard-response,1290,3593583,0.0-25.0-0.45,1333
742,stimuli/restaurant/restaurant_18.jpg,70,memory_backgrounds,image-keyboard-response,1291,3594326,0.0-25.0-1.45,1333
NULL, ,NULL,memory_backgrounds,html-keyboard-response,1292,3594828,0.0-25.0-0.46,1333
675,stimuli/library/library_24.jpg,70,memory_backgrounds,image-keyboard-response,1293,3595503,0.0-25.0-1.46,1333
NULL, ,NULL,memory_backgrounds,html-keyboard-response,1294,3596006,0.0-25.0-0.47,1333
630,stimuli/library/library_15.jpg,70,memory_backgrounds,image-keyboard-response,1295,3596636,0.0-25.0-1.47,1333
NULL, ,NULL,memory_backgrounds,html-keyboard-response,1296,3597139,0.0-25.0-0.48,1333
368,stimuli/library/library_1.jpg,74,memory_backgrounds,image-keyboard-response,1297,3597508,0.0-25.0-1.48,1333
NULL, ,NULL,memory_backgrounds,html-keyboard-response,1298,3598012,0.0-25.0-0.49,1333
133,stimuli/forest/forest_6.jpg,74,memory_backgrounds,image-keyboard-response,1299,3598146,0.0-25.0-1.49,1333
NULL, ,NULL,memory_backgrounds,html-keyboard-response,1300,3598649,0.0-25.0-0.50,1333
145,stimuli/desert/desert_14.jpg,74,memory_backgrounds,image-keyboard-response,1301,3598794,0.0-25.0-1.50,1333
NULL, ,NULL,memory_backgrounds,html-keyboard-response,1302,3599296,0.0-25.0-0.51,1333
294,stimuli/restaurant/restaurant_11.jpg,74,memory_backgrounds,image-keyboard-response,1303,3599591,0.0-25.0-1.51,1333
NULL, ,NULL,memory_backgrounds,html-keyboard-response,1304,3600094,0.0-25.0-0.52,1333
142,stimuli/forest/forest_32.jpg,70,memory_backgrounds,image-keyboard-response,1305,3600237,0.0-25.0-1.52,1333
NULL, ,NULL,memory_backgrounds,html-keyboard-response,1306,3600738,0.0-25.0-0.53,1333
0,stimuli/forest/forest_15.jpg,70,memory_backgrounds,image-keyboard-response,1307,3600739,0.0-25.0-1.53,1333
NULL, ,NULL,memory_backgrounds,html-keyboard-response,1308,3601241,0.0-25.0-0.54,1333
387,stimuli/forest/forest_8.jpg,70,memory_backgrounds,image-keyboard-response,1309,3601628,0.0-25.0-1.54,1333
NULL, ,NULL,memory_backgrounds,html-keyboard-response,1310,3602130,0.0-25.0-0.55,1333
185,stimuli/library/library_14.jpg,70,memory_backgrounds,image-keyboard-response,1311,3602318,0.0-25.0-1.55,1333
NULL, ,NULL,memory_backgrounds,html-keyboard-response,1312,3602820,0.0-25.0-0.56,1333
308,stimuli/restaurant/restaurant_28.jpg,70,memory_backgrounds,image-keyboard-response,1313,3603129,0.0-25.0-1.56,1333
NULL, ,NULL,memory_backgrounds,html-keyboard-response,1314,3603631,0.0-25.0-0.57,1333
272,stimuli/forest/forest_12.jpg,70,memory_backgrounds,image-keyboard-response,1315,3603903,0.0-25.0-1.57,1333
NULL, ,NULL,memory_backgrounds,html-keyboard-response,1316,3604405,0.0-25.0-0.58,1333
216,stimuli/forest/forest_5.jpg,70,memory_backgrounds,image-keyboard-response,1317,3604623,0.0-25.0-1.58,1333
NULL, ,NULL,memory_backgrounds,html-keyboard-response,1318,3605125,0.0-25.0-0.59,1333
223,stimuli/forest/forest_23.jpg,70,memory_backgrounds,image-keyboard-response,1319,3605350,0.0-25.0-1.59,1333
NULL, ,NULL,memory_backgrounds,html-keyboard-response,1320,3605852,0.0-25.0-0.60,1333
183,stimuli/restaurant/restaurant_19.jpg,70,memory_backgrounds,image-keyboard-response,1321,3606036,0.0-25.0-1.60,1333
NULL, ,NULL,memory_backgrounds,html-keyboard-response,1322,3606538,0.0-25.0-0.61,1333
196,stimuli/forest/forest_2.jpg,70,memory_backgrounds,image-keyboard-response,1323,3606735,0.0-25.0-1.61,1333
NULL, ,NULL,memory_backgrounds,html-keyboard-response,1324,3607236,0.0-25.0-0.62,1333
214,stimuli/library/library_13.jpg,74,memory_backgrounds,image-keyboard-response,1325,3607452,0.0-25.0-1.62,1333
NULL, ,NULL,memory_backgrounds,html-keyboard-response,1326,3607954,0.0-25.0-0.63,1333
164,stimuli/desert/desert_23.jpg,74,memory_backgrounds,image-keyboard-response,1327,3608120,0.0-25.0-1.63,1333
NULL, ,NULL,memory_backgrounds,html-keyboard-response,1328,3608621,0.0-25.0-0.64,1333
325,stimuli/library/library_20.jpg,74,memory_backgrounds,image-keyboard-response,1329,3608947,0.0-25.0-1.64,1333
NULL, ,NULL,memory_backgrounds,html-keyboard-response,1330,3609449,0.0-25.0-0.65,1333
161,stimuli/forest/forest_24.jpg,74,memory_backgrounds,image-keyboard-response,1331,3609612,0.0-25.0-1.65,1333
NULL, ,NULL,memory_backgrounds,html-keyboard-response,1332,3610113,0.0-25.0-0.66,1333
153,stimuli/forest/forest_30.jpg,74,memory_backgrounds,image-keyboard-response,1333,3610268,0.0-25.0-1.66,1333
NULL, ,NULL,memory_backgrounds,html-keyboard-response,1334,3610770,0.0-25.0-0.67,1333
710,stimuli/restaurant/restaurant_16.jpg,74,memory_backgrounds,image-keyboard-response,1335,3611482,0.0-25.0-1.67,1333
NULL, ,NULL,memory_backgrounds,html-keyboard-response,1336,3611984,0.0-25.0-0.68,1333
1031,stimuli/restaurant/restaurant_32.jpg,70,memory_backgrounds,image-keyboard-response,1337,3613016,0.0-25.0-1.68,1333
NULL, ,NULL,memory_backgrounds,html-keyboard-response,1338,3613518,0.0-25.0-0.69,1333
188,stimuli/library/library_5.jpg,70,memory_backgrounds,image-keyboard-response,1339,3613709,0.0-25.0-1.69,1333
NULL, ,NULL,memory_backgrounds,html-keyboard-response,1340,3614211,0.0-25.0-0.70,1333
155,stimuli/library/library_31.jpg,70,memory_backgrounds,image-keyboard-response,1341,3614368,0.0-25.0-1.70,1333
NULL, ,NULL,memory_backgrounds,html-keyboard-response,1342,3614870,0.0-25.0-0.71,1333
135,stimuli/desert/desert_21.jpg,70,memory_backgrounds,image-keyboard-response,1343,3615006,0.0-25.0-1.71,1333
NULL, ,NULL,memory_backgrounds,html-keyboard-response,1344,3615508,0.0-25.0-0.72,1333
221,stimuli/restaurant/restaurant_17.jpg,70,memory_backgrounds,image-keyboard-response,1345,3615729,0.0-25.0-1.72,1333
NULL, ,NULL,memory_backgrounds,html-keyboard-response,1346,3616231,0.0-25.0-0.73,1333
133,stimuli/restaurant/restaurant_13.jpg,70,memory_backgrounds,image-keyboard-response,1347,3616366,0.0-25.0-1.73,1333
NULL, ,NULL,memory_backgrounds,html-keyboard-response,1348,3616868,0.0-25.0-0.74,1333
67,stimuli/restaurant/restaurant_6.jpg,74,memory_backgrounds,image-keyboard-response,1349,3616936,0.0-25.0-1.74,1333
NULL, ,NULL,memory_backgrounds,html-keyboard-response,1350,3617438,0.0-25.0-0.75,1333
164,stimuli/desert/desert_28.jpg,70,memory_backgrounds,image-keyboard-response,1351,3617604,0.0-25.0-1.75,1333
NULL, ,NULL,memory_backgrounds,html-keyboard-response,1352,3618106,0.0-25.0-0.76,1333
144,stimuli/forest/forest_17.jpg,74,memory_backgrounds,image-keyboard-response,1353,3618251,0.0-25.0-1.76,1333
NULL, ,NULL,memory_backgrounds,html-keyboard-response,1354,3618753,0.0-25.0-0.77,1333
44,stimuli/library/library_29.jpg,70,memory_backgrounds,image-keyboard-response,1355,3618799,0.0-25.0-1.77,1333
NULL, ,NULL,memory_backgrounds,html-keyboard-response,1356,3619301,0.0-25.0-0.78,1333
74,stimuli/desert/desert_1.jpg,70,memory_backgrounds,image-keyboard-response,1357,3619377,0.0-25.0-1.78,1333
NULL, ,NULL,memory_backgrounds,html-keyboard-response,1358,3619879,0.0-25.0-0.79,1333
88,stimuli/desert/desert_22.jpg,70,memory_backgrounds,image-keyboard-response,1359,3619968,0.0-25.0-1.79,1333
NULL, ,NULL,memory_backgrounds,html-keyboard-response,1360,3620470,0.0-25.0-0.80,1333
98,stimuli/library/library_26.jpg,70,memory_backgrounds,image-keyboard-response,1361,3620569,0.0-25.0-1.80,1333
NULL, ,NULL,memory_backgrounds,html-keyboard-response,1362,3621071,0.0-25.0-0.81,1333
90,stimuli/desert/desert_20.jpg,74,memory_backgrounds,image-keyboard-response,1363,3621162,0.0-25.0-1.81,1333
NULL, ,NULL,memory_backgrounds,html-keyboard-response,1364,3621664,0.0-25.0-0.82,1333
114,stimuli/restaurant/restaurant_24.jpg,74,memory_backgrounds,image-keyboard-response,1365,3621779,0.0-25.0-1.82,1333
NULL, ,NULL,memory_backgrounds,html-keyboard-response,1366,3622281,0.0-25.0-0.83,1333
518,stimuli/library/library_23.jpg,74,memory_backgrounds,image-keyboard-response,1367,3622800,0.0-25.0-1.83,1333
NULL, ,NULL,memory_backgrounds,html-keyboard-response,1368,3623303,0.0-25.0-0.84,1333
292,stimuli/library/library_7.jpg,74,memory_backgrounds,image-keyboard-response,1369,3623596,0.0-25.0-1.84,1333
NULL, ,NULL,memory_backgrounds,html-keyboard-response,1370,3624097,0.0-25.0-0.85,1333
101,stimuli/forest/forest_19.jpg,70,memory_backgrounds,image-keyboard-response,1371,3624200,0.0-25.0-1.85,1333
NULL, ,NULL,memory_backgrounds,html-keyboard-response,1372,3624702,0.0-25.0-0.86,1333
120,stimuli/library/library_11.jpg,70,memory_backgrounds,image-keyboard-response,1373,3624822,0.0-25.0-1.86,1333
NULL, ,NULL,memory_backgrounds,html-keyboard-response,1374,3625325,0.0-25.0-0.87,1333
96,stimuli/restaurant/restaurant_7.jpg,70,memory_backgrounds,image-keyboard-response,1375,3625421,0.0-25.0-1.87,1333
NULL, ,NULL,memory_backgrounds,html-keyboard-response,1376,3625923,0.0-25.0-0.88,1333
109,stimuli/desert/desert_29.jpg,70,memory_backgrounds,image-keyboard-response,1377,3626034,0.0-25.0-1.88,1333
NULL, ,NULL,memory_backgrounds,html-keyboard-response,1378,3626536,0.0-25.0-0.89,1333
43,stimuli/forest/forest_20.jpg,74,memory_backgrounds,image-keyboard-response,1379,3626579,0.0-25.0-1.89,1333
NULL, ,NULL,memory_backgrounds,html-keyboard-response,1380,3627081,0.0-25.0-0.90,1333
162,stimuli/desert/desert_5.jpg,74,memory_backgrounds,image-keyboard-response,1381,3627244,0.0-25.0-1.90,1333
NULL, ,NULL,memory_backgrounds,html-keyboard-response,1382,3627747,0.0-25.0-0.91,1333
323,stimuli/desert/desert_17.jpg,74,memory_backgrounds,image-keyboard-response,1383,3628072,0.0-25.0-1.91,1333
NULL, ,NULL,memory_backgrounds,html-keyboard-response,1384,3628574,0.0-25.0-0.92,1333
84,stimuli/restaurant/restaurant_10.jpg,70,memory_backgrounds,image-keyboard-response,1385,3628658,0.0-25.0-1.92,1333
NULL, ,NULL,memory_backgrounds,html-keyboard-response,1386,3629160,0.0-25.0-0.93,1333
70,stimuli/forest/forest_18.jpg,70,memory_backgrounds,image-keyboard-response,1387,3629231,0.0-25.0-1.93,1333
NULL, ,NULL,memory_backgrounds,html-keyboard-response,1388,3629733,0.0-25.0-0.94,1333
512,stimuli/desert/desert_30.jpg,70,memory_backgrounds,image-keyboard-response,1389,3630245,0.0-25.0-1.94,1333
NULL, ,NULL,memory_backgrounds,html-keyboard-response,1390,3630747,0.0-25.0-0.95,1333
557,stimuli/library/library_17.jpg,74,memory_backgrounds,image-keyboard-response,1391,3631305,0.0-25.0-1.95,1333
NULL, ,NULL,memory_backgrounds,html-keyboard-response,1392,3631807,0.0-25.0-0.96,1333
409,stimuli/library/library_30.jpg,74,memory_backgrounds,image-keyboard-response,1393,3632217,0.0-25.0-1.96,1333
NULL, ,NULL,memory_backgrounds,html-keyboard-response,1394,3632719,0.0-25.0-0.97,1333
492,stimuli/desert/desert_3.jpg,70,memory_backgrounds,image-keyboard-response,1395,3633212,0.0-25.0-1.97,1333
NULL, ,NULL,memory_backgrounds,html-keyboard-response,1396,3633714,0.0-25.0-0.98,1333
1270,stimuli/library/library_8.jpg,74,memory_backgrounds,image-keyboard-response,1397,3634986,0.0-25.0-1.98,1333
NULL, ,NULL,memory_backgrounds,html-keyboard-response,1398,3635489,0.0-25.0-0.99,1333
254,stimuli/restaurant/restaurant_23.jpg,74,memory_backgrounds,image-keyboard-response,1399,3635745,0.0-25.0-1.99,1333
NULL, ,NULL,memory_backgrounds,html-keyboard-response,1400,3636247,0.0-25.0-0.100,1333
234,stimuli/restaurant/restaurant_21.jpg,74,memory_backgrounds,image-keyboard-response,1401,3636482,0.0-25.0-1.100,1333
NULL, ,NULL,memory_backgrounds,html-keyboard-response,1402,3636984,0.0-25.0-0.101,1333
124,stimuli/desert/desert_19.jpg,74,memory_backgrounds,image-keyboard-response,1403,3637111,0.0-25.0-1.101,1333
NULL, ,NULL,memory_backgrounds,html-keyboard-response,1404,3637613,0.0-25.0-0.102,1333
167,stimuli/library/library_6.jpg,74,memory_backgrounds,image-keyboard-response,1405,3637781,0.0-25.0-1.102,1333
NULL, ,NULL,memory_backgrounds,html-keyboard-response,1406,3638282,0.0-25.0-0.103,1333
155,stimuli/forest/forest_14.jpg,70,memory_backgrounds,image-keyboard-response,1407,3638438,0.0-25.0-1.103,1333
NULL, ,NULL,memory_backgrounds,html-keyboard-response,1408,3638940,0.0-25.0-0.104,1333
134,stimuli/desert/desert_7.jpg,70,memory_backgrounds,image-keyboard-response,1409,3639075,0.0-25.0-1.104,1333
NULL, ,NULL,memory_backgrounds,html-keyboard-response,1410,3639577,0.0-25.0-0.105,1333
290,stimuli/library/library_12.jpg,70,memory_backgrounds,image-keyboard-response,1411,3639868,0.0-25.0-1.105,1333
NULL, ,NULL,memory_backgrounds,html-keyboard-response,1412,3640369,0.0-25.0-0.106,1333
175,stimuli/desert/desert_27.jpg,70,memory_backgrounds,image-keyboard-response,1413,3640544,0.0-25.0-1.106,1333
NULL, ,NULL,memory_backgrounds,html-keyboard-response,1414,3641046,0.0-25.0-0.107,1333
156,stimuli/desert/desert_2.jpg,70,memory_backgrounds,image-keyboard-response,1415,3641203,0.0-25.0-1.107,1333
NULL, ,NULL,memory_backgrounds,html-keyboard-response,1416,3641704,0.0-25.0-0.108,1333
187,stimuli/restaurant/restaurant_3.jpg,70,memory_backgrounds,image-keyboard-response,1417,3641893,0.0-25.0-1.108,1333
NULL, ,NULL,memory_backgrounds,html-keyboard-response,1418,3642396,0.0-25.0-0.109,1333
309,stimuli/library/library_16.jpg,70,memory_backgrounds,image-keyboard-response,1419,3642707,0.0-25.0-1.109,1333
NULL, ,NULL,memory_backgrounds,html-keyboard-response,1420,3643208,0.0-25.0-0.110,1333
88,stimuli/library/library_21.jpg,70,memory_backgrounds,image-keyboard-response,1421,3643297,0.0-25.0-1.110,1333
NULL, ,NULL,memory_backgrounds,html-keyboard-response,1422,3643799,0.0-25.0-0.111,1333
176,stimuli/library/library_2.jpg,70,memory_backgrounds,image-keyboard-response,1423,3643977,0.0-25.0-1.111,1333
NULL, ,NULL,memory_backgrounds,html-keyboard-response,1424,3644479,0.0-25.0-0.112,1333
151,stimuli/restaurant/restaurant_25.jpg,70,memory_backgrounds,image-keyboard-response,1425,3644632,0.0-25.0-1.112,1333
NULL, ,NULL,memory_backgrounds,html-keyboard-response,1426,3645134,0.0-25.0-0.113,1333
117,stimuli/desert/desert_12.jpg,70,memory_backgrounds,image-keyboard-response,1427,3645253,0.0-25.0-1.113,1333
NULL, ,NULL,memory_backgrounds,html-keyboard-response,1428,3645755,0.0-25.0-0.114,1333
267,stimuli/forest/forest_21.jpg,70,memory_backgrounds,image-keyboard-response,1429,3646022,0.0-25.0-1.114,1333
NULL, ,NULL,memory_backgrounds,html-keyboard-response,1430,3646524,0.0-25.0-0.115,1333
154,stimuli/desert/desert_24.jpg,70,memory_backgrounds,image-keyboard-response,1431,3646680,0.0-25.0-1.115,1333
NULL, ,NULL,memory_backgrounds,html-keyboard-response,1432,3647182,0.0-25.0-0.116,1333
213,stimuli/restaurant/restaurant_12.jpg,70,memory_backgrounds,image-keyboard-response,1433,3647398,0.0-25.0-1.116,1333
NULL, ,NULL,memory_backgrounds,html-keyboard-response,1434,3647899,0.0-25.0-0.117,1333
136,stimuli/library/library_4.jpg,70,memory_backgrounds,image-keyboard-response,1435,3648037,0.0-25.0-1.117,1333
NULL, ,NULL,memory_backgrounds,html-keyboard-response,1436,3648538,0.0-25.0-0.118,1333
118,stimuli/restaurant/restaurant_22.jpg,70,memory_backgrounds,image-keyboard-response,1437,3648656,0.0-25.0-1.118,1333
NULL, ,NULL,memory_backgrounds,html-keyboard-response,1438,3649158,0.0-25.0-0.119,1333
165,stimuli/library/library_28.jpg,70,memory_backgrounds,image-keyboard-response,1439,3649325,0.0-25.0-1.119,1333
NULL, ,NULL,memory_backgrounds,html-keyboard-response,1440,3649827,0.0-25.0-0.120,1333
565,stimuli/library/library_9.jpg,74,memory_backgrounds,image-keyboard-response,1441,3650394,0.0-25.0-1.120,1333
NULL, ,NULL,memory_backgrounds,html-keyboard-response,1442,3650896,0.0-25.0-0.121,1333
248,stimuli/forest/forest_10.jpg,74,memory_backgrounds,image-keyboard-response,1443,3651146,0.0-25.0-1.121,1333
NULL, ,NULL,memory_backgrounds,html-keyboard-response,1444,3651648,0.0-25.0-0.122,1333
291,stimuli/desert/desert_13.jpg,74,memory_backgrounds,image-keyboard-response,1445,3651940,0.0-25.0-1.122,1333
NULL, ,NULL,memory_backgrounds,html-keyboard-response,1446,3652442,0.0-25.0-0.123,1333
264,stimuli/restaurant/restaurant_1.jpg,74,memory_backgrounds,image-keyboard-response,1447,3652707,0.0-25.0-1.123,1333
NULL, ,NULL,memory_backgrounds,html-keyboard-response,1448,3653209,0.0-25.0-0.124,1333
882,stimuli/forest/forest_25.jpg,74,memory_backgrounds,image-keyboard-response,1449,3654092,0.0-25.0-1.124,1333
NULL, ,NULL,memory_backgrounds,html-keyboard-response,1450,3654594,0.0-25.0-0.125,1333
637,stimuli/forest/forest_3.jpg,74,memory_backgrounds,image-keyboard-response,1451,3655234,0.0-25.0-1.125,1333
NULL, ,NULL,memory_backgrounds,html-keyboard-response,1452,3655736,0.0-25.0-0.126,1333
853,stimuli/desert/desert_15.jpg,74,memory_backgrounds,image-keyboard-response,1453,3656591,0.0-25.0-1.126,1333
NULL, ,NULL,memory_backgrounds,html-keyboard-response,1454,3657093,0.0-25.0-0.127,1333
842,stimuli/restaurant/restaurant_8.jpg,74,memory_backgrounds,image-keyboard-response,1455,3657936,0.0-25.0-1.127,1333
NULL, ,NULL,memory_backgrounds,html-keyboard-response,1211,3855039,0.0-25.0-0.0,2225
1467.555,stimuli/library/library_5.jpg,74,memory_backgrounds,image-keyboard-response,1212,3856508,0.0-25.0-1.0,2225
NULL, ,NULL,memory_backgrounds,html-keyboard-response,1213,3857013,0.0-25.0-0.1,2225
992.265,stimuli/library/library_29.jpg,74,memory_backgrounds,image-keyboard-response,1214,3858006,0.0-25.0-1.1,2225
NULL, ,NULL,memory_backgrounds,html-keyboard-response,1215,3858511,0.0-25.0-0.2,2225
1499.055,stimuli/library/library_23.jpg,70,memory_backgrounds,image-keyboard-response,1216,3860011,0.0-25.0-1.2,2225
NULL, ,NULL,memory_backgrounds,html-keyboard-response,1217,3860516,0.0-25.0-0.3,2225
886.96,stimuli/forest/forest_14.jpg,74,memory_backgrounds,image-keyboard-response,1218,3861405,0.0-25.0-1.3,2225
NULL, ,NULL,memory_backgrounds,html-keyboard-response,1219,3861906,0.0-25.0-0.4,2225
1129.205,stimuli/forest/forest_6.jpg,74,memory_backgrounds,image-keyboard-response,1220,3863036,0.0-25.0-1.4,2225
NULL, ,NULL,memory_backgrounds,html-keyboard-response,1221,3863539,0.0-25.0-0.5,2225
767.125,stimuli/restaurant/restaurant_6.jpg,74,memory_backgrounds,image-keyboard-response,1222,3864307,0.0-25.0-1.5,2225
NULL, ,NULL,memory_backgrounds,html-keyboard-response,1223,3864812,0.0-25.0-0.6,2225
1094.37,stimuli/library/library_17.jpg,70,memory_backgrounds,image-keyboard-response,1224,3865908,0.0-25.0-1.6,2225
NULL, ,NULL,memory_backgrounds,html-keyboard-response,1225,3866409,0.0-25.0-0.7,2225
1036.27,stimuli/restaurant/restaurant_32.jpg,70,memory_backgrounds,image-keyboard-response,1226,3867446,0.0-25.0-1.7,2225
NULL, ,NULL,memory_backgrounds,html-keyboard-response,1227,3867950,0.0-25.0-0.8,2225
1595.71,stimuli/library/library_15.jpg,74,memory_backgrounds,image-keyboard-response,1228,3869547,0.0-25.0-1.8,2225
NULL, ,NULL,memory_backgrounds,html-keyboard-response,1229,3870048,0.0-25.0-0.9,2225
1050.375,stimuli/forest/forest_5.jpg,70,memory_backgrounds,image-keyboard-response,1230,3871100,0.0-25.0-1.9,2225
NULL, ,NULL,memory_backgrounds,html-keyboard-response,1231,3871600,0.0-25.0-0.10,2225
1273.8,stimuli/library/library_24.jpg,74,memory_backgrounds,image-keyboard-response,1232,3872875,0.0-25.0-1.10,2225
NULL, ,NULL,memory_backgrounds,html-keyboard-response,1233,3873381,0.0-25.0-0.11,2225
920.415,stimuli/restaurant/restaurant_5.jpg,74,memory_backgrounds,image-keyboard-response,1234,3874302,0.0-25.0-1.11,2225
NULL, ,NULL,memory_backgrounds,html-keyboard-response,1235,3874806,0.0-25.0-0.12,2225
1132.705,stimuli/desert/desert_17.jpg,74,memory_backgrounds,image-keyboard-response,1236,3875940,0.0-25.0-1.12,2225
NULL, ,NULL,memory_backgrounds,html-keyboard-response,1237,3876444,0.0-25.0-0.13,2225
1312.52,stimuli/desert/desert_4.jpg,74,memory_backgrounds,image-keyboard-response,1238,3877758,0.0-25.0-1.13,2225
NULL, ,NULL,memory_backgrounds,html-keyboard-response,1239,3878259,0.0-25.0-0.14,2225
839.445,stimuli/desert/desert_20.jpg,70,memory_backgrounds,image-keyboard-response,1240,3879099,0.0-25.0-1.14,2225
NULL, ,NULL,memory_backgrounds,html-keyboard-response,1241,3879605,0.0-25.0-0.15,2225
1197.445,stimuli/restaurant/restaurant_17.jpg,74,memory_backgrounds,image-keyboard-response,1242,3880804,0.0-25.0-1.15,2225
NULL, ,NULL,memory_backgrounds,html-keyboard-response,1243,3881304,0.0-25.0-0.16,2225
1116.16,stimuli/restaurant/restaurant_21.jpg,70,memory_backgrounds,image-keyboard-response,1244,3882422,0.0-25.0-1.16,2225
NULL, ,NULL,memory_backgrounds,html-keyboard-response,1245,3882923,0.0-25.0-0.17,2225
1230.97,stimuli/forest/forest_1.jpg,74,memory_backgrounds,image-keyboard-response,1246,3884155,0.0-25.0-1.17,2225
NULL, ,NULL,memory_backgrounds,html-keyboard-response,1247,3884658,0.0-25.0-0.18,2225
1090.375,stimuli/desert/desert_31.jpg,74,memory_backgrounds,image-keyboard-response,1248,3885750,0.0-25.0-1.18,2225
NULL, ,NULL,memory_backgrounds,html-keyboard-response,1249,3886255,0.0-25.0-0.19,2225
1205.03,stimuli/restaurant/restaurant_27.jpg,74,memory_backgrounds,image-keyboard-response,1250,3887462,0.0-25.0-1.19,2225
NULL, ,NULL,memory_backgrounds,html-keyboard-response,1251,3887965,0.0-25.0-0.20,2225
1567.08,stimuli/library/library_4.jpg,74,memory_backgrounds,image-keyboard-response,1252,3889534,0.0-25.0-1.20,2225
NULL, ,NULL,memory_backgrounds,html-keyboard-response,1253,3890035,0.0-25.0-0.21,2225
1007.845,stimuli/restaurant/restaurant_1.jpg,70,memory_backgrounds,image-keyboard-response,1254,3891044,0.0-25.0-1.21,2225
NULL, ,NULL,memory_backgrounds,html-keyboard-response,1255,3891544,0.0-25.0-0.22,2225
941.48,stimuli/library/library_2.jpg,70,memory_backgrounds,image-keyboard-response,1256,3892488,0.0-25.0-1.22,2225
NULL, ,NULL,memory_backgrounds,html-keyboard-response,1257,3892993,0.0-25.0-0.23,2225
1137.64,stimuli/library/library_22.jpg,70,memory_backgrounds,image-keyboard-response,1258,3894132,0.0-25.0-1.23,2225
NULL, ,NULL,memory_backgrounds,html-keyboard-response,1259,3894633,0.0-25.0-0.24,2225
1401.66,stimuli/restaurant/restaurant_14.jpg,74,memory_backgrounds,image-keyboard-response,1260,3896036,0.0-25.0-1.24,2225
NULL, ,NULL,memory_backgrounds,html-keyboard-response,1261,3896537,0.0-25.0-0.25,2225
987.615,stimuli/restaurant/restaurant_11.jpg,70,memory_backgrounds,image-keyboard-response,1262,3897525,0.0-25.0-1.25,2225
NULL, ,NULL,memory_backgrounds,html-keyboard-response,1263,3898030,0.0-25.0-0.26,2225
988.04,stimuli/library/library_32.jpg,74,memory_backgrounds,image-keyboard-response,1264,3899020,0.0-25.0-1.26,2225
NULL, ,NULL,memory_backgrounds,html-keyboard-response,1265,3899521,0.0-25.0-0.27,2225
1180.575,stimuli/desert/desert_3.jpg,74,memory_backgrounds,image-keyboard-response,1266,3900703,0.0-25.0-1.27,2225
NULL, ,NULL,memory_backgrounds,html-keyboard-response,1267,3901204,0.0-25.0-0.28,2225
1360.03,stimuli/restaurant/restaurant_3.jpg,74,memory_backgrounds,image-keyboard-response,1268,3902565,0.0-25.0-1.28,2225
NULL, ,NULL,memory_backgrounds,html-keyboard-response,1269,3903067,0.0-25.0-0.29,2225
1198.62,stimuli/restaurant/restaurant_2.jpg,74,memory_backgrounds,image-keyboard-response,1270,3904267,0.0-25.0-1.29,2225
NULL, ,NULL,memory_backgrounds,html-keyboard-response,1271,3904768,0.0-25.0-0.30,2225
861.76,stimuli/restaurant/restaurant_25.jpg,70,memory_backgrounds,image-keyboard-response,1272,3905631,0.0-25.0-1.30,2225
NULL, ,NULL,memory_backgrounds,html-keyboard-response,1273,3906137,0.0-25.0-0.31,2225
1284.365,stimuli/desert/desert_25.jpg,74,memory_backgrounds,image-keyboard-response,1274,3907422,0.0-25.0-1.31,2225
NULL, ,NULL,memory_backgrounds,html-keyboard-response,1275,3907926,0.0-25.0-0.32,2225
1236.7,stimuli/forest/forest_19.jpg,70,memory_backgrounds,image-keyboard-response,1276,3909164,0.0-25.0-1.32,2225
NULL, ,NULL,memory_backgrounds,html-keyboard-response,1277,3909668,0.0-25.0-0.33,2225
1623.96,stimuli/forest/forest_29.jpg,70,memory_backgrounds,image-keyboard-response,1278,3911296,0.0-25.0-1.33,2225
NULL, ,NULL,memory_backgrounds,html-keyboard-response,1279,3911801,0.0-25.0-0.34,2225
1041.9,stimuli/library/library_7.jpg,70,memory_backgrounds,image-keyboard-response,1280,3912844,0.0-25.0-1.34,2225
NULL, ,NULL,memory_backgrounds,html-keyboard-response,1281,3913348,0.0-25.0-0.35,2225
1577.57,stimuli/library/library_31.jpg,70,memory_backgrounds,image-keyboard-response,1282,3914927,0.0-25.0-1.35,2225
NULL, ,NULL,memory_backgrounds,html-keyboard-response,1283,3915432,0.0-25.0-0.36,2225
1098.86,stimuli/restaurant/restaurant_8.jpg,74,memory_backgrounds,image-keyboard-response,1284,3916532,0.0-25.0-1.36,2225
NULL, ,NULL,memory_backgrounds,html-keyboard-response,1285,3917037,0.0-25.0-0.37,2225
943.75,stimuli/restaurant/restaurant_31.jpg,74,memory_backgrounds,image-keyboard-response,1286,3917983,0.0-25.0-1.37,2225
NULL, ,NULL,memory_backgrounds,html-keyboard-response,1287,3918487,0.0-25.0-0.38,2225
1149.615,stimuli/desert/desert_16.jpg,70,memory_backgrounds,image-keyboard-response,1288,3919638,0.0-25.0-1.38,2225
NULL, ,NULL,memory_backgrounds,html-keyboard-response,1289,3920140,0.0-25.0-0.39,2225
1328.07,stimuli/library/library_12.jpg,74,memory_backgrounds,image-keyboard-response,1290,3921469,0.0-25.0-1.39,2225
NULL, ,NULL,memory_backgrounds,html-keyboard-response,1291,3921974,0.0-25.0-0.40,2225
1548.44,stimuli/desert/desert_7.jpg,70,memory_backgrounds,image-keyboard-response,1292,3923524,0.0-25.0-1.40,2225
NULL, ,NULL,memory_backgrounds,html-keyboard-response,1293,3924029,0.0-25.0-0.41,2225
1093.26,stimuli/forest/forest_20.jpg,74,memory_backgrounds,image-keyboard-response,1294,3925124,0.0-25.0-1.41,2225
NULL, ,NULL,memory_backgrounds,html-keyboard-response,1295,3925629,0.0-25.0-0.42,2225
864.23,stimuli/forest/forest_4.jpg,70,memory_backgrounds,image-keyboard-response,1296,3926495,0.0-25.0-1.42,2225
NULL, ,NULL,memory_backgrounds,html-keyboard-response,1297,3926999,0.0-25.0-0.43,2225
1228.73,stimuli/forest/forest_21.jpg,74,memory_backgrounds,image-keyboard-response,1298,3928229,0.0-25.0-1.43,2225
NULL, ,NULL,memory_backgrounds,html-keyboard-response,1299,3928732,0.0-25.0-0.44,2225
873.26,stimuli/library/library_8.jpg,70,memory_backgrounds,image-keyboard-response,1300,3929606,0.0-25.0-1.44,2225
NULL, ,NULL,memory_backgrounds,html-keyboard-response,1301,3930109,0.0-25.0-0.45,2225
952.78,stimuli/desert/desert_15.jpg,70,memory_backgrounds,image-keyboard-response,1302,3931063,0.0-25.0-1.45,2225
NULL, ,NULL,memory_backgrounds,html-keyboard-response,1303,3931564,0.0-25.0-0.46,2225
1081.51,stimuli/library/library_21.jpg,74,memory_backgrounds,image-keyboard-response,1304,3932647,0.0-25.0-1.46,2225
NULL, ,NULL,memory_backgrounds,html-keyboard-response,1305,3933150,0.0-25.0-0.47,2225
887.82,stimuli/desert/desert_22.jpg,74,memory_backgrounds,image-keyboard-response,1306,3934039,0.0-25.0-1.47,2225
NULL, ,NULL,memory_backgrounds,html-keyboard-response,1307,3934540,0.0-25.0-0.48,2225
792.82,stimuli/forest/forest_26.jpg,70,memory_backgrounds,image-keyboard-response,1308,3935334,0.0-25.0-1.48,2225
NULL, ,NULL,memory_backgrounds,html-keyboard-response,1309,3935837,0.0-25.0-0.49,2225
1144.63,stimuli/forest/forest_15.jpg,70,memory_backgrounds,image-keyboard-response,1310,3936983,0.0-25.0-1.49,2225
NULL, ,NULL,memory_backgrounds,html-keyboard-response,1311,3937484,0.0-25.0-0.50,2225
1049.25,stimuli/library/library_10.jpg,74,memory_backgrounds,image-keyboard-response,1312,3938535,0.0-25.0-1.50,2225
NULL, ,NULL,memory_backgrounds,html-keyboard-response,1313,3939039,0.0-25.0-0.51,2225
1670.6,stimuli/library/library_25.jpg,74,memory_backgrounds,image-keyboard-response,1314,3940711,0.0-25.0-1.51,2225
NULL, ,NULL,memory_backgrounds,html-keyboard-response,1315,3941212,0.0-25.0-0.52,2225
1345.615,stimuli/forest/forest_22.jpg,74,memory_backgrounds,image-keyboard-response,1316,3942559,0.0-25.0-1.52,2225
NULL, ,NULL,memory_backgrounds,html-keyboard-response,1317,3943064,0.0-25.0-0.53,2225
1126.955,stimuli/forest/forest_2.jpg,70,memory_backgrounds,image-keyboard-response,1318,3944192,0.0-25.0-1.53,2225
NULL, ,NULL,memory_backgrounds,html-keyboard-response,1319,3944696,0.0-25.0-0.54,2225
1170.275,stimuli/desert/desert_14.jpg,74,memory_backgrounds,image-keyboard-response,1320,3945867,0.0-25.0-1.54,2225
NULL, ,NULL,memory_backgrounds,html-keyboard-response,1321,3946369,0.0-25.0-0.55,2225
852.965,stimuli/desert/desert_28.jpg,70,memory_backgrounds,image-keyboard-response,1322,3947223,0.0-25.0-1.55,2225
NULL, ,NULL,memory_backgrounds,html-keyboard-response,1323,3947726,0.0-25.0-0.56,2225
1005.62,stimuli/desert/desert_21.jpg,74,memory_backgrounds,image-keyboard-response,1324,3948733,0.0-25.0-1.56,2225
NULL, ,NULL,memory_backgrounds,html-keyboard-response,1325,3949235,0.0-25.0-0.57,2225
1370.99,stimuli/restaurant/restaurant_30.jpg,74,memory_backgrounds,image-keyboard-response,1326,3950608,0.0-25.0-1.57,2225
NULL, ,NULL,memory_backgrounds,html-keyboard-response,1327,3951113,0.0-25.0-0.58,2225
994.69,stimuli/restaurant/restaurant_19.jpg,70,memory_backgrounds,image-keyboard-response,1328,3952109,0.0-25.0-1.58,2225
NULL, ,NULL,memory_backgrounds,html-keyboard-response,1329,3952614,0.0-25.0-0.59,2225
871.845,stimuli/restaurant/restaurant_29.jpg,70,memory_backgrounds,image-keyboard-response,1330,3953487,0.0-25.0-1.59,2225
NULL, ,NULL,memory_backgrounds,html-keyboard-response,1331,3953987,0.0-25.0-0.60,2225
767.83,stimuli/library/library_30.jpg,70,memory_backgrounds,image-keyboard-response,1332,3954756,0.0-25.0-1.60,2225
NULL, ,NULL,memory_backgrounds,html-keyboard-response,1333,3955260,0.0-25.0-0.61,2225
940.125,stimuli/library/library_13.jpg,70,memory_backgrounds,image-keyboard-response,1334,3956201,0.0-25.0-1.61,2225
NULL, ,NULL,memory_backgrounds,html-keyboard-response,1335,3956706,0.0-25.0-0.62,2225
1185.02,stimuli/library/library_11.jpg,74,memory_backgrounds,image-keyboard-response,1336,3957893,0.0-25.0-1.62,2225
NULL, ,NULL,memory_backgrounds,html-keyboard-response,1337,3958395,0.0-25.0-0.63,2225
883.955,stimuli/restaurant/restaurant_24.jpg,70,memory_backgrounds,image-keyboard-response,1338,3959280,0.0-25.0-1.63,2225
NULL, ,NULL,memory_backgrounds,html-keyboard-response,1339,3959785,0.0-25.0-0.64,2225
1635.14,stimuli/library/library_26.jpg,74,memory_backgrounds,image-keyboard-response,1340,3961422,0.0-25.0-1.64,2225
NULL, ,NULL,memory_backgrounds,html-keyboard-response,1341,3961925,0.0-25.0-0.65,2225
1409.28,stimuli/library/library_28.jpg,74,memory_backgrounds,image-keyboard-response,1342,3963336,0.0-25.0-1.65,2225
NULL, ,NULL,memory_backgrounds,html-keyboard-response,1343,3963841,0.0-25.0-0.66,2225
1508.305,stimuli/forest/forest_30.jpg,70,memory_backgrounds,image-keyboard-response,1344,3965350,0.0-25.0-1.66,2225
NULL, ,NULL,memory_backgrounds,html-keyboard-response,1345,3965855,0.0-25.0-0.67,2225
1338.04,stimuli/restaurant/restaurant_15.jpg,74,memory_backgrounds,image-keyboard-response,1346,3967195,0.0-25.0-1.67,2225
NULL, ,NULL,memory_backgrounds,html-keyboard-response,1347,3967695,0.0-25.0-0.68,2225
1126.53,stimuli/desert/desert_23.jpg,74,memory_backgrounds,image-keyboard-response,1348,3968824,0.0-25.0-1.68,2225
NULL, ,NULL,memory_backgrounds,html-keyboard-response,1349,3969329,0.0-25.0-0.69,2225
1124.6,stimuli/desert/desert_24.jpg,70,memory_backgrounds,image-keyboard-response,1350,3970455,0.0-25.0-1.69,2225
NULL, ,NULL,memory_backgrounds,html-keyboard-response,1351,3970958,0.0-25.0-0.70,2225
910.015,stimuli/library/library_18.jpg,74,memory_backgrounds,image-keyboard-response,1352,3971869,0.0-25.0-1.70,2225
NULL, ,NULL,memory_backgrounds,html-keyboard-response,1353,3972374,0.0-25.0-0.71,2225
1127.02,stimuli/restaurant/restaurant_12.jpg,70,memory_backgrounds,image-keyboard-response,1354,3973502,0.0-25.0-1.71,2225
NULL, ,NULL,memory_backgrounds,html-keyboard-response,1355,3974007,0.0-25.0-0.72,2225
1495.835,stimuli/forest/forest_18.jpg,70,memory_backgrounds,image-keyboard-response,1356,3975504,0.0-25.0-1.72,2225
NULL, ,NULL,memory_backgrounds,html-keyboard-response,1357,3976008,0.0-25.0-0.73,2225
923.975,stimuli/restaurant/restaurant_26.jpg,74,memory_backgrounds,image-keyboard-response,1358,3976934,0.0-25.0-1.73,2225
NULL, ,NULL,memory_backgrounds,html-keyboard-response,1359,3977436,0.0-25.0-0.74,2225
1091.685,stimuli/forest/forest_16.jpg,74,memory_backgrounds,image-keyboard-response,1360,3978529,0.0-25.0-1.74,2225
NULL, ,NULL,memory_backgrounds,html-keyboard-response,1361,3979034,0.0-25.0-0.75,2225
1049.945,stimuli/desert/desert_30.jpg,70,memory_backgrounds,image-keyboard-response,1362,3980085,0.0-25.0-1.75,2225
NULL, ,NULL,memory_backgrounds,html-keyboard-response,1363,3980591,0.0-25.0-0.76,2225
958.065,stimuli/library/library_6.jpg,74,memory_backgrounds,image-keyboard-response,1364,3981551,0.0-25.0-1.76,2225
NULL, ,NULL,memory_backgrounds,html-keyboard-response,1365,3982056,0.0-25.0-0.77,2225
970.375,stimuli/forest/forest_31.jpg,70,memory_backgrounds,image-keyboard-response,1366,3983029,0.0-25.0-1.77,2225
NULL, ,NULL,memory_backgrounds,html-keyboard-response,1367,3983532,0.0-25.0-0.78,2225
1336.545,stimuli/library/library_19.jpg,74,memory_backgrounds,image-keyboard-response,1368,3984870,0.0-25.0-1.78,2225
NULL, ,NULL,memory_backgrounds,html-keyboard-response,1369,3985375,0.0-25.0-0.79,2225
911.55,stimuli/forest/forest_12.jpg,70,memory_backgrounds,image-keyboard-response,1370,3986288,0.0-25.0-1.79,2225
NULL, ,NULL,memory_backgrounds,html-keyboard-response,1371,3986793,0.0-25.0-0.80,2225
1345.76,stimuli/desert/desert_13.jpg,74,memory_backgrounds,image-keyboard-response,1372,3988140,0.0-25.0-1.80,2225
NULL, ,NULL,memory_backgrounds,html-keyboard-response,1373,3988640,0.0-25.0-0.81,2225
1343.105,stimuli/restaurant/restaurant_18.jpg,74,memory_backgrounds,image-keyboard-response,1374,3989984,0.0-25.0-1.81,2225
NULL, ,NULL,memory_backgrounds,html-keyboard-response,1375,3990486,0.0-25.0-0.82,2225
1454.36,stimuli/restaurant/restaurant_7.jpg,70,memory_backgrounds,image-keyboard-response,1376,3991942,0.0-25.0-1.82,2225
NULL, ,NULL,memory_backgrounds,html-keyboard-response,1377,3992445,0.0-25.0-0.83,2225
1238.95,stimuli/forest/forest_3.jpg,74,memory_backgrounds,image-keyboard-response,1378,3993685,0.0-25.0-1.83,2225
NULL, ,NULL,memory_backgrounds,html-keyboard-response,1379,3994190,0.0-25.0-0.84,2225
1401.97,stimuli/desert/desert_26.jpg,74,memory_backgrounds,image-keyboard-response,1380,3995593,0.0-25.0-1.84,2225
NULL, ,NULL,memory_backgrounds,html-keyboard-response,1381,3996094,0.0-25.0-0.85,2225
926.795,stimuli/library/library_1.jpg,70,memory_backgrounds,image-keyboard-response,1382,3997022,0.0-25.0-1.85,2225
NULL, ,NULL,memory_backgrounds,html-keyboard-response,1383,3997523,0.0-25.0-0.86,2225
1053.13,stimuli/restaurant/restaurant_13.jpg,70,memory_backgrounds,image-keyboard-response,1384,3998577,0.0-25.0-1.86,2225
NULL, ,NULL,memory_backgrounds,html-keyboard-response,1385,3999078,0.0-25.0-0.87,2225
1433.24,stimuli/forest/forest_11.jpg,70,memory_backgrounds,image-keyboard-response,1386,4000512,0.0-25.0-1.87,2225
NULL, ,NULL,memory_backgrounds,html-keyboard-response,1387,4001017,0.0-25.0-0.88,2225
1532.32,stimuli/desert/desert_10.jpg,74,memory_backgrounds,image-keyboard-response,1388,4002550,0.0-25.0-1.88,2225
NULL, ,NULL,memory_backgrounds,html-keyboard-response,1389,4003051,0.0-25.0-0.89,2225
1389.045,stimuli/desert/desert_19.jpg,74,memory_backgrounds,image-keyboard-response,1390,4004441,0.0-25.0-1.89,2225
NULL, ,NULL,memory_backgrounds,html-keyboard-response,1391,4004942,0.0-25.0-0.90,2225
1344.21,stimuli/library/library_16.jpg,74,memory_backgrounds,image-keyboard-response,1392,4006287,0.0-25.0-1.90,2225
NULL, ,NULL,memory_backgrounds,html-keyboard-response,1393,4006788,0.0-25.0-0.91,2225
875.035,stimuli/forest/forest_13.jpg,74,memory_backgrounds,image-keyboard-response,1394,4007664,0.0-25.0-1.91,2225
NULL, ,NULL,memory_backgrounds,html-keyboard-response,1395,4008169,0.0-25.0-0.92,2225
1666.96,stimuli/forest/forest_27.jpg,74,memory_backgrounds,image-keyboard-response,1396,4009838,0.0-25.0-1.92,2225
NULL, ,NULL,memory_backgrounds,html-keyboard-response,1397,4010340,0.0-25.0-0.93,2225
1100.425,stimuli/desert/desert_5.jpg,74,memory_backgrounds,image-keyboard-response,1398,4011441,0.0-25.0-1.93,2225
NULL, ,NULL,memory_backgrounds,html-keyboard-response,1399,4011943,0.0-25.0-0.94,2225
1093.875,stimuli/forest/forest_10.jpg,70,memory_backgrounds,image-keyboard-response,1400,4013038,0.0-25.0-1.94,2225
NULL, ,NULL,memory_backgrounds,html-keyboard-response,1401,4013543,0.0-25.0-0.95,2225
1104.47,stimuli/library/library_14.jpg,70,memory_backgrounds,image-keyboard-response,1402,4014648,0.0-25.0-1.95,2225
NULL, ,NULL,memory_backgrounds,html-keyboard-response,1403,4015154,0.0-25.0-0.96,2225
1370.96,stimuli/desert/desert_11.jpg,74,memory_backgrounds,image-keyboard-response,1404,4016526,0.0-25.0-1.96,2225
NULL, ,NULL,memory_backgrounds,html-keyboard-response,1405,4017027,0.0-25.0-0.97,2225
884.365,stimuli/library/library_3.jpg,74,memory_backgrounds,image-keyboard-response,1406,4017913,0.0-25.0-1.97,2225
NULL, ,NULL,memory_backgrounds,html-keyboard-response,1407,4018418,0.0-25.0-0.98,2225
1754.92,stimuli/library/library_27.jpg,74,memory_backgrounds,image-keyboard-response,1408,4020174,0.0-25.0-1.98,2225
NULL, ,NULL,memory_backgrounds,html-keyboard-response,1409,4020679,0.0-25.0-0.99,2225
1280.135,stimuli/restaurant/restaurant_23.jpg,74,memory_backgrounds,image-keyboard-response,1410,4021960,0.0-25.0-1.99,2225
NULL, ,NULL,memory_backgrounds,html-keyboard-response,1411,4022461,0.0-25.0-0.100,2225
1960.15,stimuli/forest/forest_17.jpg,74,memory_backgrounds,image-keyboard-response,1412,4024423,0.0-25.0-1.100,2225
NULL, ,NULL,memory_backgrounds,html-keyboard-response,1413,4024923,0.0-25.0-0.101,2225
864.705,stimuli/restaurant/restaurant_9.jpg,70,memory_backgrounds,image-keyboard-response,1414,4025790,0.0-25.0-1.101,2225
NULL, ,NULL,memory_backgrounds,html-keyboard-response,1415,4026292,0.0-25.0-0.102,2225
1466.75,stimuli/restaurant/restaurant_10.jpg,70,memory_backgrounds,image-keyboard-response,1416,4027760,0.0-25.0-1.102,2225
NULL, ,NULL,memory_backgrounds,html-keyboard-response,1417,4028262,0.0-25.0-0.103,2225
1807.325,stimuli/desert/desert_29.jpg,70,memory_backgrounds,image-keyboard-response,1418,4030070,0.0-25.0-1.103,2225
NULL, ,NULL,memory_backgrounds,html-keyboard-response,1419,4030576,0.0-25.0-0.104,2225
1255.91,stimuli/forest/forest_25.jpg,70,memory_backgrounds,image-keyboard-response,1420,4031833,0.0-25.0-1.104,2225
NULL, ,NULL,memory_backgrounds,html-keyboard-response,1421,4032338,0.0-25.0-0.105,2225
976.895,stimuli/forest/forest_32.jpg,70,memory_backgrounds,image-keyboard-response,1422,4033320,0.0-25.0-1.105,2225
NULL, ,NULL,memory_backgrounds,html-keyboard-response,1423,4033825,0.0-25.0-0.106,2225
851.915,stimuli/desert/desert_2.jpg,74,memory_backgrounds,image-keyboard-response,1424,4034678,0.0-25.0-1.106,2225
NULL, ,NULL,memory_backgrounds,html-keyboard-response,1425,4035183,0.0-25.0-0.107,2225
1718.955,stimuli/desert/desert_27.jpg,70,memory_backgrounds,image-keyboard-response,1426,4036903,0.0-25.0-1.107,2225
NULL, ,NULL,memory_backgrounds,html-keyboard-response,1427,4037404,0.0-25.0-0.108,2225
1379.995,stimuli/desert/desert_1.jpg,70,memory_backgrounds,image-keyboard-response,1428,4038785,0.0-25.0-1.108,2225
NULL, ,NULL,memory_backgrounds,html-keyboard-response,1429,4039287,0.0-25.0-0.109,2225
1814.505,stimuli/restaurant/restaurant_4.jpg,70,memory_backgrounds,image-keyboard-response,1430,4041103,0.0-25.0-1.109,2225
NULL, ,NULL,memory_backgrounds,html-keyboard-response,1431,4041606,0.0-25.0-0.110,2225
960.675,stimuli/desert/desert_8.jpg,74,memory_backgrounds,image-keyboard-response,1432,4042568,0.0-25.0-1.110,2225
NULL, ,NULL,memory_backgrounds,html-keyboard-response,1433,4043069,0.0-25.0-0.111,2225
721.82,stimuli/desert/desert_9.jpg,74,memory_backgrounds,image-keyboard-response,1434,4043792,0.0-25.0-1.111,2225
NULL, ,NULL,memory_backgrounds,html-keyboard-response,1435,4044297,0.0-25.0-0.112,2225
1507.945,stimuli/library/library_20.jpg,74,memory_backgrounds,image-keyboard-response,1436,4045807,0.0-25.0-1.112,2225
NULL, ,NULL,memory_backgrounds,html-keyboard-response,1437,4046308,0.0-25.0-0.113,2225
1827.92,stimuli/desert/desert_18.jpg,74,memory_backgrounds,image-keyboard-response,1438,4048137,0.0-25.0-1.113,2225
NULL, ,NULL,memory_backgrounds,html-keyboard-response,1439,4048642,0.0-25.0-0.114,2225
1107.5,stimuli/restaurant/restaurant_28.jpg,74,memory_backgrounds,image-keyboard-response,1440,4049751,0.0-25.0-1.114,2225
NULL, ,NULL,memory_backgrounds,html-keyboard-response,1441,4050256,0.0-25.0-0.115,2225
2232.555,stimuli/forest/forest_9.jpg,74,memory_backgrounds,image-keyboard-response,1442,4052490,0.0-25.0-1.115,2225
NULL, ,NULL,memory_backgrounds,html-keyboard-response,1443,4052994,0.0-25.0-0.116,2225
1588.81,stimuli/library/library_9.jpg,74,memory_backgrounds,image-keyboard-response,1444,4054584,0.0-25.0-1.116,2225
NULL, ,NULL,memory_backgrounds,html-keyboard-response,1445,4055085,0.0-25.0-0.117,2225
2387.83,stimuli/restaurant/restaurant_16.jpg,74,memory_backgrounds,image-keyboard-response,1446,4057474,0.0-25.0-1.117,2225
NULL, ,NULL,memory_backgrounds,html-keyboard-response,1447,4057975,0.0-25.0-0.118,2225
1059.955,stimuli/forest/forest_28.jpg,70,memory_backgrounds,image-keyboard-response,1448,4059039,0.0-25.0-1.118,2225
NULL, ,NULL,memory_backgrounds,html-keyboard-response,1449,4059544,0.0-25.0-0.119,2225
1216.28,stimuli/desert/desert_12.jpg,70,memory_backgrounds,image-keyboard-response,1450,4060761,0.0-25.0-1.119,2225
NULL, ,NULL,memory_backgrounds,html-keyboard-response,1451,4061262,0.0-25.0-0.120,2225
952.8,stimuli/desert/desert_32.jpg,74,memory_backgrounds,image-keyboard-response,1452,4062216,0.0-25.0-1.120,2225
NULL, ,NULL,memory_backgrounds,html-keyboard-response,1453,4062721,0.0-25.0-0.121,2225
1350.11,stimuli/forest/forest_7.jpg,74,memory_backgrounds,image-keyboard-response,1454,4064073,0.0-25.0-1.121,2225
NULL, ,NULL,memory_backgrounds,html-keyboard-response,1455,4064578,0.0-25.0-0.122,2225
1115.47,stimuli/forest/forest_23.jpg,70,memory_backgrounds,image-keyboard-response,1456,4065695,0.0-25.0-1.122,2225
NULL, ,NULL,memory_backgrounds,html-keyboard-response,1457,4066196,0.0-25.0-0.123,2225
1405.035,stimuli/forest/forest_24.jpg,70,memory_backgrounds,image-keyboard-response,1458,4067603,0.0-25.0-1.123,2225
NULL, ,NULL,memory_backgrounds,html-keyboard-response,1459,4068108,0.0-25.0-0.124,2225
1323.655,stimuli/desert/desert_6.jpg,70,memory_backgrounds,image-keyboard-response,1460,4069433,0.0-25.0-1.124,2225
NULL, ,NULL,memory_backgrounds,html-keyboard-response,1461,4069933,0.0-25.0-0.125,2225
1410.895,stimuli/restaurant/restaurant_22.jpg,70,memory_backgrounds,image-keyboard-response,1462,4071346,0.0-25.0-1.125,2225
NULL, ,NULL,memory_backgrounds,html-keyboard-response,1463,4071850,0.0-25.0-0.126,2225
1714.4,stimuli/restaurant/restaurant_20.jpg,74,memory_backgrounds,image-keyboard-response,1464,4073566,0.0-25.0-1.126,2225
NULL, ,NULL,memory_backgrounds,html-keyboard-response,1465,4074069,0.0-25.0-0.127,2225
1251.78,stimuli/forest/forest_8.jpg,70,memory_backgrounds,image-keyboard-response,1466,4075322,0.0-25.0-1.127,2225
NULL, ,NULL,memory_backgrounds,html-keyboard-response,1210,4529117,0.0-25.0-0.0,4192
NULL,stimuli/desert/desert_18.jpg,NULL,memory_backgrounds,image-keyboard-response,1211,4531625,0.0-25.0-1.0,4192
NULL, ,NULL,memory_backgrounds,html-keyboard-response,1212,4532129,0.0-25.0-0.1,4192
2450.745,stimuli/forest/forest_14.jpg,70,memory_backgrounds,image-keyboard-response,1213,4534582,0.0-25.0-1.1,4192
NULL, ,NULL,memory_backgrounds,html-keyboard-response,1214,4535086,0.0-25.0-0.2,4192
1427.115,stimuli/desert/desert_3.jpg,74,memory_backgrounds,image-keyboard-response,1215,4536516,0.0-25.0-1.2,4192
NULL, ,NULL,memory_backgrounds,html-keyboard-response,1216,4537021,0.0-25.0-0.3,4192
NULL,stimuli/restaurant/restaurant_22.jpg,NULL,memory_backgrounds,image-keyboard-response,1217,4539525,0.0-25.0-1.3,4192
NULL, ,NULL,memory_backgrounds,html-keyboard-response,1218,4540030,0.0-25.0-0.4,4192
NULL,stimuli/library/library_22.jpg,NULL,memory_backgrounds,image-keyboard-response,1219,4542538,0.0-25.0-1.4,4192
NULL, ,NULL,memory_backgrounds,html-keyboard-response,1220,4543043,0.0-25.0-0.5,4192
NULL,stimuli/library/library_3.jpg,NULL,memory_backgrounds,image-keyboard-response,1221,4545548,0.0-25.0-1.5,4192
NULL, ,NULL,memory_backgrounds,html-keyboard-response,1222,4546054,0.0-25.0-0.6,4192
NULL,stimuli/desert/desert_24.jpg,NULL,memory_backgrounds,image-keyboard-response,1223,4548559,0.0-25.0-1.6,4192
NULL, ,NULL,memory_backgrounds,html-keyboard-response,1224,4549062,0.0-25.0-0.7,4192
1159.33,stimuli/forest/forest_16.jpg,70,memory_backgrounds,image-keyboard-response,1225,4550224,0.0-25.0-1.7,4192
NULL, ,NULL,memory_backgrounds,html-keyboard-response,1226,4550729,0.0-25.0-0.8,4192
829.565,stimuli/restaurant/restaurant_4.jpg,74,memory_backgrounds,image-keyboard-response,1227,4551560,0.0-25.0-1.8,4192
NULL, ,NULL,memory_backgrounds,html-keyboard-response,1228,4552061,0.0-25.0-0.9,4192
711.455,stimuli/library/library_21.jpg,70,memory_backgrounds,image-keyboard-response,1229,4552774,0.0-25.0-1.9,4192
NULL, ,NULL,memory_backgrounds,html-keyboard-response,1230,4553277,0.0-25.0-0.10,4192
1546.895,stimuli/desert/desert_19.jpg,70,memory_backgrounds,image-keyboard-response,1231,4554826,0.0-25.0-1.10,4192
NULL, ,NULL,memory_backgrounds,html-keyboard-response,1232,4555330,0.0-25.0-0.11,4192
1508.8,stimuli/desert/desert_16.jpg,70,memory_backgrounds,image-keyboard-response,1233,4556841,0.0-25.0-1.11,4192
NULL, ,NULL,memory_backgrounds,html-keyboard-response,1234,4557345,0.0-25.0-0.12,4192
1397.66,stimuli/restaurant/restaurant_20.jpg,74,memory_backgrounds,image-keyboard-response,1235,4558745,0.0-25.0-1.12,4192
NULL, ,NULL,memory_backgrounds,html-keyboard-response,1236,4559246,0.0-25.0-0.13,4192
890.495,stimuli/forest/forest_30.jpg,74,memory_backgrounds,image-keyboard-response,1237,4560138,0.0-25.0-1.13,4192
NULL, ,NULL,memory_backgrounds,html-keyboard-response,1238,4560642,0.0-25.0-0.14,4192
953.885,stimuli/restaurant/restaurant_28.jpg,74,memory_backgrounds,image-keyboard-response,1239,4561598,0.0-25.0-1.14,4192
NULL, ,NULL,memory_backgrounds,html-keyboard-response,1240,4562103,0.0-25.0-0.15,4192
1141.93,stimuli/forest/forest_20.jpg,70,memory_backgrounds,image-keyboard-response,1241,4563246,0.0-25.0-1.15,4192
NULL, ,NULL,memory_backgrounds,html-keyboard-response,1242,4563748,0.0-25.0-0.16,4192
1017.92,stimuli/desert/desert_26.jpg,74,memory_backgrounds,image-keyboard-response,1243,4564767,0.0-25.0-1.16,4192
NULL, ,NULL,memory_backgrounds,html-keyboard-response,1244,4565270,0.0-25.0-0.17,4192
1186.635,stimuli/restaurant/restaurant_9.jpg,70,memory_backgrounds,image-keyboard-response,1245,4566459,0.0-25.0-1.17,4192
NULL, ,NULL,memory_backgrounds,html-keyboard-response,1246,4566961,0.0-25.0-0.18,4192
762.025,stimuli/restaurant/restaurant_8.jpg,70,memory_backgrounds,image-keyboard-response,1247,4567725,0.0-25.0-1.18,4192
NULL, ,NULL,memory_backgrounds,html-keyboard-response,1248,4568226,0.0-25.0-0.19,4192
1129.805,stimuli/desert/desert_6.jpg,74,memory_backgrounds,image-keyboard-response,1249,4569358,0.0-25.0-1.19,4192
NULL, ,NULL,memory_backgrounds,html-keyboard-response,1250,4569861,0.0-25.0-0.20,4192
1014.455,stimuli/forest/forest_1.jpg,74,memory_backgrounds,image-keyboard-response,1251,4570877,0.0-25.0-1.20,4192
NULL, ,NULL,memory_backgrounds,html-keyboard-response,1252,4571380,0.0-25.0-0.21,4192
940.61,stimuli/forest/forest_11.jpg,74,memory_backgrounds,image-keyboard-response,1253,4572322,0.0-25.0-1.21,4192
NULL, ,NULL,memory_backgrounds,html-keyboard-response,1254,4572827,0.0-25.0-0.22,4192
1090.1,stimuli/restaurant/restaurant_26.jpg,70,memory_backgrounds,image-keyboard-response,1255,4573919,0.0-25.0-1.22,4192
NULL, ,NULL,memory_backgrounds,html-keyboard-response,1256,4574424,0.0-25.0-0.23,4192
1050.005,stimuli/forest/forest_9.jpg,74,memory_backgrounds,image-keyboard-response,1257,4575476,0.0-25.0-1.23,4192
NULL, ,NULL,memory_backgrounds,html-keyboard-response,1258,4575978,0.0-25.0-0.24,4192
916.655,stimuli/desert/desert_10.jpg,70,memory_backgrounds,image-keyboard-response,1259,4576896,0.0-25.0-1.24,4192
NULL, ,NULL,memory_backgrounds,html-keyboard-response,1260,4577398,0.0-25.0-0.25,4192
940.23,stimuli/library/library_28.jpg,70,memory_backgrounds,image-keyboard-response,1261,4578340,0.0-25.0-1.25,4192
NULL, ,NULL,memory_backgrounds,html-keyboard-response,1262,4578844,0.0-25.0-0.26,4192
811.375,stimuli/forest/forest_25.jpg,70,memory_backgrounds,image-keyboard-response,1263,4579657,0.0-25.0-1.26,4192
NULL, ,NULL,memory_backgrounds,html-keyboard-response,1264,4580161,0.0-25.0-0.27,4192
888.865,stimuli/library/library_2.jpg,70,memory_backgrounds,image-keyboard-response,1265,4581052,0.0-25.0-1.27,4192
NULL, ,NULL,memory_backgrounds,html-keyboard-response,1266,4581557,0.0-25.0-0.28,4192
1011.09,stimuli/library/library_8.jpg,70,memory_backgrounds,image-keyboard-response,1267,4582570,0.0-25.0-1.28,4192
NULL, ,NULL,memory_backgrounds,html-keyboard-response,1268,4583071,0.0-25.0-0.29,4192
809.69,stimuli/restaurant/restaurant_11.jpg,70,memory_backgrounds,image-keyboard-response,1269,4583883,0.0-25.0-1.29,4192
NULL, ,NULL,memory_backgrounds,html-keyboard-response,1270,4584384,0.0-25.0-0.30,4192
993.805,stimuli/forest/forest_32.jpg,70,memory_backgrounds,image-keyboard-response,1271,4585386,0.0-25.0-1.30,4192
NULL, ,NULL,memory_backgrounds,html-keyboard-response,1272,4585887,0.0-25.0-0.31,4192
1186.87,stimuli/forest/forest_24.jpg,70,memory_backgrounds,image-keyboard-response,1273,4587076,0.0-25.0-1.31,4192
NULL, ,NULL,memory_backgrounds,html-keyboard-response,1274,4587581,0.0-25.0-0.32,4192
1332.235,stimuli/desert/desert_23.jpg,74,memory_backgrounds,image-keyboard-response,1275,4588916,0.0-25.0-1.32,4192
NULL, ,NULL,memory_backgrounds,html-keyboard-response,1276,4589420,0.0-25.0-0.33,4192
1035.08,stimuli/forest/forest_22.jpg,74,memory_backgrounds,image-keyboard-response,1277,4590457,0.0-25.0-1.33,4192
NULL, ,NULL,memory_backgrounds,html-keyboard-response,1278,4590961,0.0-25.0-0.34,4192
1295.27,stimuli/forest/forest_12.jpg,74,memory_backgrounds,image-keyboard-response,1279,4592258,0.0-25.0-1.34,4192
NULL, ,NULL,memory_backgrounds,html-keyboard-response,1280,4592761,0.0-25.0-0.35,4192
1123.36,stimuli/forest/forest_3.jpg,74,memory_backgrounds,image-keyboard-response,1281,4593886,0.0-25.0-1.35,4192
NULL, ,NULL,memory_backgrounds,html-keyboard-response,1282,4594391,0.0-25.0-0.36,4192
749.845,stimuli/library/library_13.jpg,70,memory_backgrounds,image-keyboard-response,1283,4595142,0.0-25.0-1.36,4192
NULL, ,NULL,memory_backgrounds,html-keyboard-response,1284,4595647,0.0-25.0-0.37,4192
814.365,stimuli/desert/desert_12.jpg,70,memory_backgrounds,image-keyboard-response,1285,4596463,0.0-25.0-1.37,4192
NULL, ,NULL,memory_backgrounds,html-keyboard-response,1286,4596967,0.0-25.0-0.38,4192
975.595,stimuli/restaurant/restaurant_18.jpg,70,memory_backgrounds,image-keyboard-response,1287,4597944,0.0-25.0-1.38,4192
NULL, ,NULL,memory_backgrounds,html-keyboard-response,1288,4598445,0.0-25.0-0.39,4192
1156.3,stimuli/library/library_11.jpg,70,memory_backgrounds,image-keyboard-response,1289,4599603,0.0-25.0-1.39,4192
NULL, ,NULL,memory_backgrounds,html-keyboard-response,1290,4600108,0.0-25.0-0.40,4192
908.09,stimuli/forest/forest_27.jpg,70,memory_backgrounds,image-keyboard-response,1291,4601020,0.0-25.0-1.40,4192
NULL, ,NULL,memory_backgrounds,html-keyboard-response,1292,4601525,0.0-25.0-0.41,4192
1139.765,stimuli/library/library_14.jpg,74,memory_backgrounds,image-keyboard-response,1293,4602666,0.0-25.0-1.41,4192
NULL, ,NULL,memory_backgrounds,html-keyboard-response,1294,4603171,0.0-25.0-0.42,4192
1271.98,stimuli/restaurant/restaurant_17.jpg,70,memory_backgrounds,image-keyboard-response,1295,4604445,0.0-25.0-1.42,4192
NULL, ,NULL,memory_backgrounds,html-keyboard-response,1296,4604947,0.0-25.0-0.43,4192
1025.25,stimuli/library/library_7.jpg,70,memory_backgrounds,image-keyboard-response,1297,4605974,0.0-25.0-1.43,4192
NULL, ,NULL,memory_backgrounds,html-keyboard-response,1298,4606476,0.0-25.0-0.44,4192
1239.22,stimuli/desert/desert_21.jpg,74,memory_backgrounds,image-keyboard-response,1299,4607717,0.0-25.0-1.44,4192
NULL, ,NULL,memory_backgrounds,html-keyboard-response,1300,4608222,0.0-25.0-0.45,4192
964.49,stimuli/desert/desert_7.jpg,74,memory_backgrounds,image-keyboard-response,1301,4609189,0.0-25.0-1.45,4192
NULL, ,NULL,memory_backgrounds,html-keyboard-response,1302,4609693,0.0-25.0-0.46,4192
925.545,stimuli/desert/desert_32.jpg,70,memory_backgrounds,image-keyboard-response,1303,4610621,0.0-25.0-1.46,4192
NULL, ,NULL,memory_backgrounds,html-keyboard-response,1304,4611125,0.0-25.0-0.47,4192
1171.7,stimuli/library/library_24.jpg,70,memory_backgrounds,image-keyboard-response,1305,4612299,0.0-25.0-1.47,4192
NULL, ,NULL,memory_backgrounds,html-keyboard-response,1306,4612800,0.0-25.0-0.48,4192
1190.18,stimuli/restaurant/restaurant_32.jpg,74,memory_backgrounds,image-keyboard-response,1307,4613992,0.0-25.0-1.48,4192
NULL, ,NULL,memory_backgrounds,html-keyboard-response,1308,4614493,0.0-25.0-0.49,4192
1140.64,stimuli/desert/desert_20.jpg,70,memory_backgrounds,image-keyboard-response,1309,4615636,0.0-25.0-1.49,4192
NULL, ,NULL,memory_backgrounds,html-keyboard-response,1310,4616137,0.0-25.0-0.50,4192
1437.875,stimuli/library/library_4.jpg,70,memory_backgrounds,image-keyboard-response,1311,4617577,0.0-25.0-1.50,4192
NULL, ,NULL,memory_backgrounds,html-keyboard-response,1312,4618081,0.0-25.0-0.51,4192
1450.96,stimuli/restaurant/restaurant_19.jpg,70,memory_backgrounds,image-keyboard-response,1313,4619534,0.0-25.0-1.51,4192
NULL, ,NULL,memory_backgrounds,html-keyboard-response,1314,4620039,0.0-25.0-0.52,4192
1186.06,stimuli/restaurant/restaurant_21.jpg,70,memory_backgrounds,image-keyboard-response,1315,4621227,0.0-25.0-1.52,4192
NULL, ,NULL,memory_backgrounds,html-keyboard-response,1316,4621731,0.0-25.0-0.53,4192
1194.14,stimuli/desert/desert_17.jpg,70,memory_backgrounds,image-keyboard-response,1317,4622927,0.0-25.0-1.53,4192
NULL, ,NULL,memory_backgrounds,html-keyboard-response,1318,4623431,0.0-25.0-0.54,4192
1146.735,stimuli/forest/forest_8.jpg,74,memory_backgrounds,image-keyboard-response,1319,4624581,0.0-25.0-1.54,4192
NULL, ,NULL,memory_backgrounds,html-keyboard-response,1320,4625082,0.0-25.0-0.55,4192
1242.35,stimuli/desert/desert_1.jpg,74,memory_backgrounds,image-keyboard-response,1321,4626326,0.0-25.0-1.55,4192
NULL, ,NULL,memory_backgrounds,html-keyboard-response,1322,4626831,0.0-25.0-0.56,4192
1047.58,stimuli/restaurant/restaurant_5.jpg,70,memory_backgrounds,image-keyboard-response,1323,4627880,0.0-25.0-1.56,4192
NULL, ,NULL,memory_backgrounds,html-keyboard-response,1324,4628382,0.0-25.0-0.57,4192
1066.495,stimuli/library/library_12.jpg,70,memory_backgrounds,image-keyboard-response,1325,4629450,0.0-25.0-1.57,4192
NULL, ,NULL,memory_backgrounds,html-keyboard-response,1326,4629952,0.0-25.0-0.58,4192
1638.27,stimuli/forest/forest_28.jpg,70,memory_backgrounds,image-keyboard-response,1327,4631596,0.0-25.0-1.58,4192
NULL, ,NULL,memory_backgrounds,html-keyboard-response,1328,4632097,0.0-25.0-0.59,4192
1049.26,stimuli/forest/forest_17.jpg,74,memory_backgrounds,image-keyboard-response,1329,4633148,0.0-25.0-1.59,4192
NULL, ,NULL,memory_backgrounds,html-keyboard-response,1330,4633653,0.0-25.0-0.60,4192
991.825,stimuli/desert/desert_25.jpg,74,memory_backgrounds,image-keyboard-response,1331,4634647,0.0-25.0-1.60,4192
NULL, ,NULL,memory_backgrounds,html-keyboard-response,1332,4635152,0.0-25.0-0.61,4192
972.375,stimuli/library/library_9.jpg,74,memory_backgrounds,image-keyboard-response,1333,4636126,0.0-25.0-1.61,4192
NULL, ,NULL,memory_backgrounds,html-keyboard-response,1334,4636627,0.0-25.0-0.62,4192
1078.705,stimuli/restaurant/restaurant_10.jpg,74,memory_backgrounds,image-keyboard-response,1335,4637708,0.0-25.0-1.62,4192
NULL, ,NULL,memory_backgrounds,html-keyboard-response,1336,4638209,0.0-25.0-0.63,4192
997.735,stimuli/forest/forest_13.jpg,74,memory_backgrounds,image-keyboard-response,1337,4639209,0.0-25.0-1.63,4192
NULL, ,NULL,memory_backgrounds,html-keyboard-response,1338,4639710,0.0-25.0-0.64,4192
774.075,stimuli/forest/forest_15.jpg,74,memory_backgrounds,image-keyboard-response,1339,4640486,0.0-25.0-1.64,4192
NULL, ,NULL,memory_backgrounds,html-keyboard-response,1340,4640991,0.0-25.0-0.65,4192
1401.125,stimuli/restaurant/restaurant_27.jpg,74,memory_backgrounds,image-keyboard-response,1341,4642394,0.0-25.0-1.65,4192
NULL, ,NULL,memory_backgrounds,html-keyboard-response,1342,4642895,0.0-25.0-0.66,4192
812.845,stimuli/desert/desert_4.jpg,74,memory_backgrounds,image-keyboard-response,1343,4643709,0.0-25.0-1.66,4192
NULL, ,NULL,memory_backgrounds,html-keyboard-response,1344,4644213,0.0-25.0-0.67,4192
1350.255,stimuli/library/library_26.jpg,74,memory_backgrounds,image-keyboard-response,1345,4645565,0.0-25.0-1.67,4192
NULL, ,NULL,memory_backgrounds,html-keyboard-response,1346,4646070,0.0-25.0-0.68,4192
1619.245,stimuli/library/library_23.jpg,74,memory_backgrounds,image-keyboard-response,1347,4647691,0.0-25.0-1.68,4192
NULL, ,NULL,memory_backgrounds,html-keyboard-response,1348,4648192,0.0-25.0-0.69,4192
1288.045,stimuli/forest/forest_29.jpg,74,memory_backgrounds,image-keyboard-response,1349,4649484,0.0-25.0-1.69,4192
NULL, ,NULL,memory_backgrounds,html-keyboard-response,1350,4649987,0.0-25.0-0.70,4192
783.78,stimuli/forest/forest_26.jpg,70,memory_backgrounds,image-keyboard-response,1351,4650772,0.0-25.0-1.70,4192
NULL, ,NULL,memory_backgrounds,html-keyboard-response,1352,4651276,0.0-25.0-0.71,4192
927.43,stimuli/library/library_29.jpg,74,memory_backgrounds,image-keyboard-response,1353,4652205,0.0-25.0-1.71,4192
NULL, ,NULL,memory_backgrounds,html-keyboard-response,1354,4652709,0.0-25.0-0.72,4192
1460.485,stimuli/library/library_10.jpg,74,memory_backgrounds,image-keyboard-response,1355,4654172,0.0-25.0-1.72,4192
NULL, ,NULL,memory_backgrounds,html-keyboard-response,1356,4654675,0.0-25.0-0.73,4192
1258.145,stimuli/restaurant/restaurant_15.jpg,70,memory_backgrounds,image-keyboard-response,1357,4655935,0.0-25.0-1.73,4192
NULL, ,NULL,memory_backgrounds,html-keyboard-response,1358,4656440,0.0-25.0-0.74,4192
886.26,stimuli/desert/desert_8.jpg,74,memory_backgrounds,image-keyboard-response,1359,4657328,0.0-25.0-1.74,4192
NULL, ,NULL,memory_backgrounds,html-keyboard-response,1360,4657831,0.0-25.0-0.75,4192
990.885,stimuli/library/library_19.jpg,70,memory_backgrounds,image-keyboard-response,1361,4658824,0.0-25.0-1.75,4192
NULL, ,NULL,memory_backgrounds,html-keyboard-response,1362,4659325,0.0-25.0-0.76,4192
1184.515,stimuli/library/library_27.jpg,74,memory_backgrounds,image-keyboard-response,1363,4660511,0.0-25.0-1.76,4192
NULL, ,NULL,memory_backgrounds,html-keyboard-response,1364,4661016,0.0-25.0-0.77,4192
922.44,stimuli/library/library_32.jpg,74,memory_backgrounds,image-keyboard-response,1365,4661940,0.0-25.0-1.77,4192
NULL, ,NULL,memory_backgrounds,html-keyboard-response,1366,4662442,0.0-25.0-0.78,4192
1559.08,stimuli/library/library_15.jpg,74,memory_backgrounds,image-keyboard-response,1367,4664003,0.0-25.0-1.78,4192
NULL, ,NULL,memory_backgrounds,html-keyboard-response,1368,4664507,0.0-25.0-0.79,4192
2418.095,stimuli/restaurant/restaurant_3.jpg,70,memory_backgrounds,image-keyboard-response,1369,4666927,0.0-25.0-1.79,4192
NULL, ,NULL,memory_backgrounds,html-keyboard-response,1370,4667431,0.0-25.0-0.80,4192
971.5,stimuli/library/library_6.jpg,74,memory_backgrounds,image-keyboard-response,1371,4668406,0.0-25.0-1.80,4192
NULL, ,NULL,memory_backgrounds,html-keyboard-response,1372,4668908,0.0-25.0-0.81,4192
1082.38,stimuli/desert/desert_2.jpg,74,memory_backgrounds,image-keyboard-response,1373,4669992,0.0-25.0-1.81,4192
NULL, ,NULL,memory_backgrounds,html-keyboard-response,1374,4670495,0.0-25.0-0.82,4192
1016.095,stimuli/forest/forest_7.jpg,70,memory_backgrounds,image-keyboard-response,1375,4671512,0.0-25.0-1.82,4192
NULL, ,NULL,memory_backgrounds,html-keyboard-response,1376,4672014,0.0-25.0-0.83,4192
775.995,stimuli/library/library_18.jpg,74,memory_backgrounds,image-keyboard-response,1377,4672792,0.0-25.0-1.83,4192
NULL, ,NULL,memory_backgrounds,html-keyboard-response,1378,4673294,0.0-25.0-0.84,4192
525.945,stimuli/restaurant/restaurant_7.jpg,74,memory_backgrounds,image-keyboard-response,1379,4673822,0.0-25.0-1.84,4192
NULL, ,NULL,memory_backgrounds,html-keyboard-response,1380,4674324,0.0-25.0-0.85,4192
63.58000002,stimuli/library/library_17.jpg,74,memory_backgrounds,image-keyboard-response,1381,4674390,0.0-25.0-1.85,4192
NULL, ,NULL,memory_backgrounds,html-keyboard-response,1382,4674891,0.0-25.0-0.86,4192
32.86000003,stimuli/restaurant/restaurant_2.jpg,74,memory_backgrounds,image-keyboard-response,1383,4674926,0.0-25.0-1.86,4192
NULL, ,NULL,memory_backgrounds,html-keyboard-response,1384,4675431,0.0-25.0-0.87,4192
31.81499999,stimuli/restaurant/restaurant_12.jpg,74,memory_backgrounds,image-keyboard-response,1385,4675465,0.0-25.0-1.87,4192
NULL, ,NULL,memory_backgrounds,html-keyboard-response,1386,4675968,0.0-25.0-0.88,4192
57.745,stimuli/forest/forest_2.jpg,74,memory_backgrounds,image-keyboard-response,1387,4676027,0.0-25.0-1.88,4192
NULL, ,NULL,memory_backgrounds,html-keyboard-response,1388,4676532,0.0-25.0-0.89,4192
81.11500001,stimuli/forest/forest_4.jpg,74,memory_backgrounds,image-keyboard-response,1389,4676615,0.0-25.0-1.89,4192
NULL, ,NULL,memory_backgrounds,html-keyboard-response,1390,4677121,0.0-25.0-0.90,4192
78.03500001,stimuli/forest/forest_10.jpg,74,memory_backgrounds,image-keyboard-response,1391,4677201,0.0-25.0-1.90,4192
NULL, ,NULL,memory_backgrounds,html-keyboard-response,1392,4677706,0.0-25.0-0.91,4192
71.37999998,stimuli/desert/desert_5.jpg,74,memory_backgrounds,image-keyboard-response,1393,4677779,0.0-25.0-1.91,4192
NULL, ,NULL,memory_backgrounds,html-keyboard-response,1394,4678280,0.0-25.0-0.92,4192
86.18000004,stimuli/desert/desert_28.jpg,74,memory_backgrounds,image-keyboard-response,1395,4678368,0.0-25.0-1.92,4192
NULL, ,NULL,memory_backgrounds,html-keyboard-response,1396,4678871,0.0-25.0-0.93,4192
91.08500002,stimuli/forest/forest_31.jpg,74,memory_backgrounds,image-keyboard-response,1397,4678968,0.0-25.0-1.93,4192
NULL, ,NULL,memory_backgrounds,html-keyboard-response,1398,4679469,0.0-25.0-0.94,4192
89.71499995,stimuli/library/library_20.jpg,74,memory_backgrounds,image-keyboard-response,1399,4679561,0.0-25.0-1.94,4192
NULL, ,NULL,memory_backgrounds,html-keyboard-response,1400,4680063,0.0-25.0-0.95,4192
18.13500002,stimuli/forest/forest_21.jpg,70,memory_backgrounds,image-keyboard-response,1401,4680083,0.0-25.0-1.95,4192
NULL, ,NULL,memory_backgrounds,html-keyboard-response,1402,4680585,0.0-25.0-0.96,4192
31.38,stimuli/restaurant/restaurant_29.jpg,74,memory_backgrounds,image-keyboard-response,1403,4680619,0.0-25.0-1.96,4192
NULL, ,NULL,memory_backgrounds,html-keyboard-response,1404,4681121,0.0-25.0-0.97,4192
123.625,stimuli/restaurant/restaurant_25.jpg,74,memory_backgrounds,image-keyboard-response,1405,4681247,0.0-25.0-1.97,4192
NULL, ,NULL,memory_backgrounds,html-keyboard-response,1406,4681750,0.0-25.0-0.98,4192
64.915,stimuli/desert/desert_30.jpg,70,memory_backgrounds,image-keyboard-response,1407,4681816,0.0-25.0-1.98,4192
NULL, ,NULL,memory_backgrounds,html-keyboard-response,1408,4682321,0.0-25.0-0.99,4192
7.924999983,stimuli/forest/forest_5.jpg,70,memory_backgrounds,image-keyboard-response,1409,4682330,0.0-25.0-1.99,4192
NULL, ,NULL,memory_backgrounds,html-keyboard-response,1410,4682832,0.0-25.0-0.100,4192
78.58999999,stimuli/library/library_1.jpg,74,memory_backgrounds,image-keyboard-response,1411,4682912,0.0-25.0-1.100,4192
NULL, ,NULL,memory_backgrounds,html-keyboard-response,1412,4683415,0.0-25.0-0.101,4192
33.74500002,stimuli/library/library_25.jpg,74,memory_backgrounds,image-keyboard-response,1413,4683451,0.0-25.0-1.101,4192
NULL, ,NULL,memory_backgrounds,html-keyboard-response,1414,4683953,0.0-25.0-0.102,4192
29.48999999,stimuli/desert/desert_22.jpg,74,memory_backgrounds,image-keyboard-response,1415,4683985,0.0-25.0-1.102,4192
NULL, ,NULL,memory_backgrounds,html-keyboard-response,1416,4684491,0.0-25.0-0.103,4192
13.13000004,stimuli/desert/desert_9.jpg,74,memory_backgrounds,image-keyboard-response,1417,4684506,0.0-25.0-1.103,4192
NULL, ,NULL,memory_backgrounds,html-keyboard-response,1418,4685011,0.0-25.0-0.104,4192
1.935000008,stimuli/desert/desert_15.jpg,74,memory_backgrounds,image-keyboard-response,1419,4685014,0.0-25.0-1.104,4192
NULL, ,NULL,memory_backgrounds,html-keyboard-response,1420,4685516,0.0-25.0-0.105,4192
165.04,stimuli/desert/desert_14.jpg,70,memory_backgrounds,image-keyboard-response,1421,4685683,0.0-25.0-1.105,4192
NULL, ,NULL,memory_backgrounds,html-keyboard-response,1422,4686185,0.0-25.0-0.106,4192
9.170000033,stimuli/forest/forest_18.jpg,70,memory_backgrounds,image-keyboard-response,1423,4686196,0.0-25.0-1.106,4192
NULL, ,NULL,memory_backgrounds,html-keyboard-response,1424,4686702,0.0-25.0-0.107,4192
35.37,stimuli/library/library_31.jpg,70,memory_backgrounds,image-keyboard-response,1425,4686740,0.0-25.0-1.107,4192
NULL, ,NULL,memory_backgrounds,html-keyboard-response,1426,4687246,0.0-25.0-0.108,4192
27.795,stimuli/restaurant/restaurant_24.jpg,74,memory_backgrounds,image-keyboard-response,1427,4687275,0.0-25.0-1.108,4192
NULL, ,NULL,memory_backgrounds,html-keyboard-response,1428,4687779,0.0-25.0-0.109,4192
177.98,stimuli/desert/desert_27.jpg,74,memory_backgrounds,image-keyboard-response,1429,4687959,0.0-25.0-1.109,4192
NULL, ,NULL,memory_backgrounds,html-keyboard-response,1430,4688465,0.0-25.0-0.110,4192
84.5,stimuli/restaurant/restaurant_6.jpg,74,memory_backgrounds,image-keyboard-response,1431,4688552,0.0-25.0-1.110,4192
NULL, ,NULL,memory_backgrounds,html-keyboard-response,1432,4689053,0.0-25.0-0.111,4192
42.25,stimuli/restaurant/restaurant_16.jpg,74,memory_backgrounds,image-keyboard-response,1433,4689098,0.0-25.0-1.111,4192
NULL, ,NULL,memory_backgrounds,html-keyboard-response,1434,4689604,0.0-25.0-0.112,4192
19.10500001,stimuli/forest/forest_19.jpg,74,memory_backgrounds,image-keyboard-response,1435,4689625,0.0-25.0-1.112,4192
NULL, ,NULL,memory_backgrounds,html-keyboard-response,1436,4690131,0.0-25.0-0.113,4192
54.84,stimuli/desert/desert_29.jpg,74,memory_backgrounds,image-keyboard-response,1437,4690188,0.0-25.0-1.113,4192
NULL, ,NULL,memory_backgrounds,html-keyboard-response,1438,4690689,0.0-25.0-0.114,4192
38.35499997,stimuli/library/library_5.jpg,74,memory_backgrounds,image-keyboard-response,1439,4690730,0.0-25.0-1.114,4192
NULL, ,NULL,memory_backgrounds,html-keyboard-response,1440,4691232,0.0-25.0-0.115,4192
327.095,stimuli/restaurant/restaurant_31.jpg,74,memory_backgrounds,image-keyboard-response,1441,4691562,0.0-25.0-1.115,4192
NULL, ,NULL,memory_backgrounds,html-keyboard-response,1442,4692063,0.0-25.0-0.116,4192
153.72,stimuli/restaurant/restaurant_30.jpg,74,memory_backgrounds,image-keyboard-response,1443,4692219,0.0-25.0-1.116,4192
NULL, ,NULL,memory_backgrounds,html-keyboard-response,1444,4692724,0.0-25.0-0.117,4192
38.01999998,stimuli/desert/desert_13.jpg,74,memory_backgrounds,image-keyboard-response,1445,4692764,0.0-25.0-1.117,4192
NULL, ,NULL,memory_backgrounds,html-keyboard-response,1446,4693269,0.0-25.0-0.118,4192
169.665,stimuli/forest/forest_23.jpg,74,memory_backgrounds,image-keyboard-response,1447,4693442,0.0-25.0-1.118,4192
NULL, ,NULL,memory_backgrounds,html-keyboard-response,1448,4693944,0.0-25.0-0.119,4192
100.365,stimuli/library/library_16.jpg,74,memory_backgrounds,image-keyboard-response,1449,4694046,0.0-25.0-1.119,4192
NULL, ,NULL,memory_backgrounds,html-keyboard-response,1450,4694550,0.0-25.0-0.120,4192
78.63500004,stimuli/restaurant/restaurant_13.jpg,74,memory_backgrounds,image-keyboard-response,1451,4694630,0.0-25.0-1.120,4192
NULL, ,NULL,memory_backgrounds,html-keyboard-response,1452,4695132,0.0-25.0-0.121,4192
60.69499999,stimuli/restaurant/restaurant_14.jpg,74,memory_backgrounds,image-keyboard-response,1453,4695195,0.0-25.0-1.121,4192
NULL, ,NULL,memory_backgrounds,html-keyboard-response,1454,4695699,0.0-25.0-0.122,4192
82.1,stimuli/restaurant/restaurant_23.jpg,70,memory_backgrounds,image-keyboard-response,1455,4695783,0.0-25.0-1.122,4192
NULL, ,NULL,memory_backgrounds,html-keyboard-response,1456,4696284,0.0-25.0-0.123,4192
83.75500003,stimuli/restaurant/restaurant_1.jpg,70,memory_backgrounds,image-keyboard-response,1457,4696369,0.0-25.0-1.123,4192
NULL, ,NULL,memory_backgrounds,html-keyboard-response,1458,4696873,0.0-25.0-0.124,4192
135.315,stimuli/desert/desert_11.jpg,70,memory_backgrounds,image-keyboard-response,1459,4697011,0.0-25.0-1.124,4192
NULL, ,NULL,memory_backgrounds,html-keyboard-response,1460,4697512,0.0-25.0-0.125,4192
215.525,stimuli/library/library_30.jpg,70,memory_backgrounds,image-keyboard-response,1461,4697729,0.0-25.0-1.125,4192
NULL, ,NULL,memory_backgrounds,html-keyboard-response,1462,4698231,0.0-25.0-0.126,4192
163.895,stimuli/forest/forest_6.jpg,74,memory_backgrounds,image-keyboard-response,1463,4698397,0.0-25.0-1.126,4192
NULL, ,NULL,memory_backgrounds,html-keyboard-response,1464,4698902,0.0-25.0-0.127,4192
114.795,stimuli/desert/desert_31.jpg,74,memory_backgrounds,image-keyboard-response,1465,4699018,0.0-25.0-1.127,4192
NULL, ,NULL,memory_backgrounds,html-keyboard-response,1210,18786291,0.0-25.0-0.0,4281
2439.68,stimuli/library/library_31.jpg,74,memory_backgrounds,image-keyboard-response,1211,18788733,0.0-25.0-1.0,4281
NULL, ,NULL,memory_backgrounds,html-keyboard-response,1212,18789242,0.0-25.0-0.1,4281
1273.005,stimuli/forest/forest_23.jpg,74,memory_backgrounds,image-keyboard-response,1213,18790517,0.0-25.0-1.1,4281
NULL, ,NULL,memory_backgrounds,html-keyboard-response,1214,18791024,0.0-25.0-0.2,4281
1608.11,stimuli/library/library_18.jpg,70,memory_backgrounds,image-keyboard-response,1215,18792634,0.0-25.0-1.2,4281
NULL, ,NULL,memory_backgrounds,html-keyboard-response,1216,18793144,0.0-25.0-0.3,4281
837.73,stimuli/desert/desert_27.jpg,70,memory_backgrounds,image-keyboard-response,1217,18793983,0.0-25.0-1.3,4281
NULL, ,NULL,memory_backgrounds,html-keyboard-response,1218,18794494,0.0-25.0-0.4,4281
1684.685,stimuli/desert/desert_5.jpg,74,memory_backgrounds,image-keyboard-response,1219,18796181,0.0-25.0-1.4,4281
NULL, ,NULL,memory_backgrounds,html-keyboard-response,1220,18796691,0.0-25.0-0.5,4281
1208.76,stimuli/desert/desert_24.jpg,70,memory_backgrounds,image-keyboard-response,1221,18797901,0.0-25.0-1.5,4281
NULL, ,NULL,memory_backgrounds,html-keyboard-response,1222,18798409,0.0-25.0-0.6,4281
1717.325,stimuli/desert/desert_31.jpg,70,memory_backgrounds,image-keyboard-response,1223,18800128,0.0-25.0-1.6,4281
NULL, ,NULL,memory_backgrounds,html-keyboard-response,1224,18800639,0.0-25.0-0.7,4281
1527.505,stimuli/library/library_7.jpg,70,memory_backgrounds,image-keyboard-response,1225,18802168,0.0-25.0-1.7,4281
NULL, ,NULL,memory_backgrounds,html-keyboard-response,1226,18802673,0.0-25.0-0.8,4281
1071.53,stimuli/forest/forest_2.jpg,74,memory_backgrounds,image-keyboard-response,1227,18803746,0.0-25.0-1.8,4281
NULL, ,NULL,memory_backgrounds,html-keyboard-response,1228,18804263,0.0-25.0-0.9,4281
1661.81,stimuli/forest/forest_13.jpg,70,memory_backgrounds,image-keyboard-response,1229,18805926,0.0-25.0-1.9,4281
NULL, ,NULL,memory_backgrounds,html-keyboard-response,1230,18806430,0.0-25.0-0.10,4281
1160.27,stimuli/library/library_14.jpg,74,memory_backgrounds,image-keyboard-response,1231,18807592,0.0-25.0-1.10,4281
NULL, ,NULL,memory_backgrounds,html-keyboard-response,1232,18808112,0.0-25.0-0.11,4281
929.225,stimuli/library/library_6.jpg,70,memory_backgrounds,image-keyboard-response,1233,18809044,0.0-25.0-1.11,4281
NULL, ,NULL,memory_backgrounds,html-keyboard-response,1234,18809554,0.0-25.0-0.12,4281
966.735,stimuli/desert/desert_6.jpg,74,memory_backgrounds,image-keyboard-response,1235,18810524,0.0-25.0-1.12,4281
NULL, ,NULL,memory_backgrounds,html-keyboard-response,1236,18811030,0.0-25.0-0.13,4281
1053.815,stimuli/forest/forest_16.jpg,74,memory_backgrounds,image-keyboard-response,1237,18812086,0.0-25.0-1.13,4281
NULL, ,NULL,memory_backgrounds,html-keyboard-response,1238,18812596,0.0-25.0-0.14,4281
1283.045,stimuli/restaurant/restaurant_6.jpg,74,memory_backgrounds,image-keyboard-response,1239,18813881,0.0-25.0-1.14,4281
NULL, ,NULL,memory_backgrounds,html-keyboard-response,1240,18814389,0.0-25.0-0.15,4281
932.74,stimuli/restaurant/restaurant_32.jpg,70,memory_backgrounds,image-keyboard-response,1241,18815325,0.0-25.0-1.15,4281
NULL, ,NULL,memory_backgrounds,html-keyboard-response,1242,18815854,0.0-25.0-0.16,4281
1178.18,stimuli/restaurant/restaurant_16.jpg,74,memory_backgrounds,image-keyboard-response,1243,18817034,0.0-25.0-1.16,4281
NULL, ,NULL,memory_backgrounds,html-keyboard-response,1244,18817550,0.0-25.0-0.17,4281
1576.675,stimuli/restaurant/restaurant_27.jpg,70,memory_backgrounds,image-keyboard-response,1245,18819128,0.0-25.0-1.17,4281
NULL, ,NULL,memory_backgrounds,html-keyboard-response,1246,18819633,0.0-25.0-0.18,4281
2085.895,stimuli/forest/forest_21.jpg,70,memory_backgrounds,image-keyboard-response,1247,18821721,0.0-25.0-1.18,4281
NULL, ,NULL,memory_backgrounds,html-keyboard-response,1248,18822237,0.0-25.0-0.19,4281
679.975,stimuli/forest/forest_5.jpg,74,memory_backgrounds,image-keyboard-response,1249,18822920,0.0-25.0-1.19,4281
NULL, ,NULL,memory_backgrounds,html-keyboard-response,1250,18823434,0.0-25.0-0.20,4281
1694.605,stimuli/library/library_26.jpg,74,memory_backgrounds,image-keyboard-response,1251,18825131,0.0-25.0-1.20,4281
NULL, ,NULL,memory_backgrounds,html-keyboard-response,1252,18825642,0.0-25.0-0.21,4281
767.78,stimuli/restaurant/restaurant_18.jpg,70,memory_backgrounds,image-keyboard-response,1253,18826412,0.0-25.0-1.21,4281
NULL, ,NULL,memory_backgrounds,html-keyboard-response,1254,18826918,0.0-25.0-0.22,4281
847.645,stimuli/library/library_16.jpg,70,memory_backgrounds,image-keyboard-response,1255,18827768,0.0-25.0-1.22,4281
NULL, ,NULL,memory_backgrounds,html-keyboard-response,1256,18828278,0.0-25.0-0.23,4281
1181.92,stimuli/forest/forest_3.jpg,74,memory_backgrounds,image-keyboard-response,1257,18829462,0.0-25.0-1.23,4281
NULL, ,NULL,memory_backgrounds,html-keyboard-response,1258,18829973,0.0-25.0-0.24,4281
1471.73,stimuli/restaurant/restaurant_5.jpg,74,memory_backgrounds,image-keyboard-response,1259,18831446,0.0-25.0-1.24,4281
NULL, ,NULL,memory_backgrounds,html-keyboard-response,1260,18831963,0.0-25.0-0.25,4281
939.965,stimuli/restaurant/restaurant_10.jpg,70,memory_backgrounds,image-keyboard-response,1261,18832905,0.0-25.0-1.25,4281
NULL, ,NULL,memory_backgrounds,html-keyboard-response,1262,18833411,0.0-25.0-0.26,4281
784.83,stimuli/library/library_22.jpg,70,memory_backgrounds,image-keyboard-response,1263,18834197,0.0-25.0-1.26,4281
NULL, ,NULL,memory_backgrounds,html-keyboard-response,1264,18834700,0.0-25.0-0.27,4281
1574.655,stimuli/forest/forest_20.jpg,70,memory_backgrounds,image-keyboard-response,1265,18836276,0.0-25.0-1.27,4281
NULL, ,NULL,memory_backgrounds,html-keyboard-response,1266,18836794,0.0-25.0-0.28,4281
1052.225,stimuli/restaurant/restaurant_21.jpg,74,memory_backgrounds,image-keyboard-response,1267,18837849,0.0-25.0-1.28,4281
NULL, ,NULL,memory_backgrounds,html-keyboard-response,1268,18838354,0.0-25.0-0.29,4281
1937.48,stimuli/desert/desert_19.jpg,70,memory_backgrounds,image-keyboard-response,1269,18840293,0.0-25.0-1.29,4281
NULL, ,NULL,memory_backgrounds,html-keyboard-response,1270,18840811,0.0-25.0-0.30,4281
903.55,stimuli/library/library_5.jpg,70,memory_backgrounds,image-keyboard-response,1271,18841717,0.0-25.0-1.30,4281
NULL, ,NULL,memory_backgrounds,html-keyboard-response,1272,18842231,0.0-25.0-0.31,4281
882.07,stimuli/library/library_23.jpg,70,memory_backgrounds,image-keyboard-response,1273,18843115,0.0-25.0-1.31,4281
NULL, ,NULL,memory_backgrounds,html-keyboard-response,1274,18843618,0.0-25.0-0.32,4281
836.125,stimuli/library/library_10.jpg,74,memory_backgrounds,image-keyboard-response,1275,18844456,0.0-25.0-1.32,4281
NULL, ,NULL,memory_backgrounds,html-keyboard-response,1276,18844959,0.0-25.0-0.33,4281
658.58,stimuli/restaurant/restaurant_29.jpg,74,memory_backgrounds,image-keyboard-response,1277,18845620,0.0-25.0-1.33,4281
NULL, ,NULL,memory_backgrounds,html-keyboard-response,1278,18846129,0.0-25.0-0.34,4281
748.56,stimuli/forest/forest_11.jpg,74,memory_backgrounds,image-keyboard-response,1279,18846879,0.0-25.0-1.34,4281
NULL, ,NULL,memory_backgrounds,html-keyboard-response,1280,18847392,0.0-25.0-0.35,4281
886.325,stimuli/restaurant/restaurant_3.jpg,74,memory_backgrounds,image-keyboard-response,1281,18848280,0.0-25.0-1.35,4281
NULL, ,NULL,memory_backgrounds,html-keyboard-response,1282,18848794,0.0-25.0-0.36,4281
669.235,stimuli/desert/desert_32.jpg,70,memory_backgrounds,image-keyboard-response,1283,18849466,0.0-25.0-1.36,4281
NULL, ,NULL,memory_backgrounds,html-keyboard-response,1284,18849975,0.0-25.0-0.37,4281
1262.31,stimuli/desert/desert_9.jpg,74,memory_backgrounds,image-keyboard-response,1285,18851239,0.0-25.0-1.37,4281
NULL, ,NULL,memory_backgrounds,html-keyboard-response,1286,18851751,0.0-25.0-0.38,4281
813.85,stimuli/restaurant/restaurant_31.jpg,74,memory_backgrounds,image-keyboard-response,1287,18852567,0.0-25.0-1.38,4281
NULL, ,NULL,memory_backgrounds,html-keyboard-response,1288,18853084,0.0-25.0-0.39,4281
2019.18,stimuli/library/library_2.jpg,74,memory_backgrounds,image-keyboard-response,1289,18855106,0.0-25.0-1.39,4281
NULL, ,NULL,memory_backgrounds,html-keyboard-response,1290,18855609,0.0-25.0-0.40,4281
1090.155,stimuli/forest/forest_18.jpg,70,memory_backgrounds,image-keyboard-response,1291,18856701,0.0-25.0-1.40,4281
NULL, ,NULL,memory_backgrounds,html-keyboard-response,1292,18857206,0.0-25.0-0.41,4281
1750.56,stimuli/restaurant/restaurant_26.jpg,70,memory_backgrounds,image-keyboard-response,1293,18858959,0.0-25.0-1.41,4281
NULL, ,NULL,memory_backgrounds,html-keyboard-response,1294,18859462,0.0-25.0-0.42,4281
849.48,stimuli/restaurant/restaurant_19.jpg,70,memory_backgrounds,image-keyboard-response,1295,18860314,0.0-25.0-1.42,4281
NULL, ,NULL,memory_backgrounds,html-keyboard-response,1296,18860819,0.0-25.0-0.43,4281
1521.015,stimuli/forest/forest_22.jpg,74,memory_backgrounds,image-keyboard-response,1297,18862342,0.0-25.0-1.43,4281
NULL, ,NULL,memory_backgrounds,html-keyboard-response,1298,18862869,0.0-25.0-0.44,4281
906.89,stimuli/forest/forest_24.jpg,74,memory_backgrounds,image-keyboard-response,1299,18863778,0.0-25.0-1.44,4281
NULL, ,NULL,memory_backgrounds,html-keyboard-response,1300,18864290,0.0-25.0-0.45,4281
870,stimuli/desert/desert_10.jpg,74,memory_backgrounds,image-keyboard-response,1301,18865163,0.0-25.0-1.45,4281
NULL, ,NULL,memory_backgrounds,html-keyboard-response,1302,18865679,0.0-25.0-0.46,4281
939.27,stimuli/restaurant/restaurant_2.jpg,70,memory_backgrounds,image-keyboard-response,1303,18866620,0.0-25.0-1.46,4281
NULL, ,NULL,memory_backgrounds,html-keyboard-response,1304,18867128,0.0-25.0-0.47,4281
1517.72,stimuli/library/library_9.jpg,70,memory_backgrounds,image-keyboard-response,1305,18868647,0.0-25.0-1.47,4281
NULL, ,NULL,memory_backgrounds,html-keyboard-response,1306,18869153,0.0-25.0-0.48,4281
930.415,stimuli/forest/forest_31.jpg,74,memory_backgrounds,image-keyboard-response,1307,18870090,0.0-25.0-1.48,4281
NULL, ,NULL,memory_backgrounds,html-keyboard-response,1308,18870605,0.0-25.0-0.49,4281
982.675,stimuli/library/library_20.jpg,74,memory_backgrounds,image-keyboard-response,1309,18871590,0.0-25.0-1.49,4281
NULL, ,NULL,memory_backgrounds,html-keyboard-response,1310,18872106,0.0-25.0-0.50,4281
875.185,stimuli/forest/forest_32.jpg,70,memory_backgrounds,image-keyboard-response,1311,18872987,0.0-25.0-1.50,4281
NULL, ,NULL,memory_backgrounds,html-keyboard-response,1312,18873502,0.0-25.0-0.51,4281
2390.38,stimuli/library/library_24.jpg,74,memory_backgrounds,image-keyboard-response,1313,18875894,0.0-25.0-1.51,4281
NULL, ,NULL,memory_backgrounds,html-keyboard-response,1314,18876401,0.0-25.0-0.52,4281
697.375,stimuli/library/library_3.jpg,70,memory_backgrounds,image-keyboard-response,1315,18877101,0.0-25.0-1.52,4281
NULL, ,NULL,memory_backgrounds,html-keyboard-response,1316,18877614,0.0-25.0-0.53,4281
1531.695,stimuli/forest/forest_15.jpg,74,memory_backgrounds,image-keyboard-response,1317,18879148,0.0-25.0-1.53,4281
NULL, ,NULL,memory_backgrounds,html-keyboard-response,1318,18879653,0.0-25.0-0.54,4281
819.445,stimuli/library/library_17.jpg,74,memory_backgrounds,image-keyboard-response,1319,18880474,0.0-25.0-1.54,4281
NULL, ,NULL,memory_backgrounds,html-keyboard-response,1320,18880990,0.0-25.0-0.55,4281
1082.48,stimuli/library/library_21.jpg,74,memory_backgrounds,image-keyboard-response,1321,18882075,0.0-25.0-1.55,4281
NULL, ,NULL,memory_backgrounds,html-keyboard-response,1322,18882580,0.0-25.0-0.56,4281
776.765,stimuli/restaurant/restaurant_11.jpg,74,memory_backgrounds,image-keyboard-response,1323,18883359,0.0-25.0-1.56,4281
NULL, ,NULL,memory_backgrounds,html-keyboard-response,1324,18883867,0.0-25.0-0.57,4281
776.19,stimuli/desert/desert_1.jpg,70,memory_backgrounds,image-keyboard-response,1325,18884645,0.0-25.0-1.57,4281
NULL, ,NULL,memory_backgrounds,html-keyboard-response,1326,18885156,0.0-25.0-0.58,4281
1514.815,stimuli/desert/desert_11.jpg,70,memory_backgrounds,image-keyboard-response,1327,18886673,0.0-25.0-1.58,4281
NULL, ,NULL,memory_backgrounds,html-keyboard-response,1328,18887176,0.0-25.0-0.59,4281
1430.685,stimuli/forest/forest_29.jpg,70,memory_backgrounds,image-keyboard-response,1329,18888611,0.0-25.0-1.59,4281
NULL, ,NULL,memory_backgrounds,html-keyboard-response,1330,18889120,0.0-25.0-0.60,4281
1031.08,stimuli/library/library_28.jpg,74,memory_backgrounds,image-keyboard-response,1331,18890153,0.0-25.0-1.60,4281
NULL, ,NULL,memory_backgrounds,html-keyboard-response,1332,18890657,0.0-25.0-0.61,4281
784.605,stimuli/desert/desert_25.jpg,74,memory_backgrounds,image-keyboard-response,1333,18891444,0.0-25.0-1.61,4281
NULL, ,NULL,memory_backgrounds,html-keyboard-response,1334,18891955,0.0-25.0-0.62,4281
932.34,stimuli/forest/forest_7.jpg,74,memory_backgrounds,image-keyboard-response,1335,18892890,0.0-25.0-1.62,4281
NULL, ,NULL,memory_backgrounds,html-keyboard-response,1336,18893392,0.0-25.0-0.63,4281
1539.42,stimuli/library/library_15.jpg,70,memory_backgrounds,image-keyboard-response,1337,18894933,0.0-25.0-1.63,4281
NULL, ,NULL,memory_backgrounds,html-keyboard-response,1338,18895440,0.0-25.0-0.64,4281
999.045,stimuli/desert/desert_7.jpg,74,memory_backgrounds,image-keyboard-response,1339,18896441,0.0-25.0-1.64,4281
NULL, ,NULL,memory_backgrounds,html-keyboard-response,1340,18896954,0.0-25.0-0.65,4281
850.85,stimuli/restaurant/restaurant_20.jpg,70,memory_backgrounds,image-keyboard-response,1341,18897807,0.0-25.0-1.65,4281
NULL, ,NULL,memory_backgrounds,html-keyboard-response,1342,18898324,0.0-25.0-0.66,4281
1303.915,stimuli/library/library_4.jpg,70,memory_backgrounds,image-keyboard-response,1343,18899630,0.0-25.0-1.66,4281
NULL, ,NULL,memory_backgrounds,html-keyboard-response,1344,18900144,0.0-25.0-0.67,4281
1585.81,stimuli/desert/desert_26.jpg,74,memory_backgrounds,image-keyboard-response,1345,18901732,0.0-25.0-1.67,4281
NULL, ,NULL,memory_backgrounds,html-keyboard-response,1346,18902251,0.0-25.0-0.68,4281
1170.14,stimuli/restaurant/restaurant_9.jpg,74,memory_backgrounds,image-keyboard-response,1347,18903423,0.0-25.0-1.68,4281
NULL, ,NULL,memory_backgrounds,html-keyboard-response,1348,18903952,0.0-25.0-0.69,4281
1930.305,stimuli/restaurant/restaurant_8.jpg,70,memory_backgrounds,image-keyboard-response,1349,18905885,0.0-25.0-1.69,4281
NULL, ,NULL,memory_backgrounds,html-keyboard-response,1350,18906395,0.0-25.0-0.70,4281
1822.77,stimuli/desert/desert_17.jpg,70,memory_backgrounds,image-keyboard-response,1351,18908220,0.0-25.0-1.70,4281
NULL, ,NULL,memory_backgrounds,html-keyboard-response,1352,18908731,0.0-25.0-0.71,4281
1034.87,stimuli/library/library_11.jpg,70,memory_backgrounds,image-keyboard-response,1353,18909768,0.0-25.0-1.71,4281
NULL, ,NULL,memory_backgrounds,html-keyboard-response,1354,18910280,0.0-25.0-0.72,4281
1465.815,stimuli/forest/forest_25.jpg,70,memory_backgrounds,image-keyboard-response,1355,18911748,0.0-25.0-1.72,4281
NULL, ,NULL,memory_backgrounds,html-keyboard-response,1356,18912251,0.0-25.0-0.73,4281
624.61,stimuli/forest/forest_9.jpg,74,memory_backgrounds,image-keyboard-response,1357,18912878,0.0-25.0-1.73,4281
NULL, ,NULL,memory_backgrounds,html-keyboard-response,1358,18913394,0.0-25.0-0.74,4281
810.95,stimuli/library/library_30.jpg,70,memory_backgrounds,image-keyboard-response,1359,18914207,0.0-25.0-1.74,4281
NULL, ,NULL,memory_backgrounds,html-keyboard-response,1360,18914718,0.0-25.0-0.75,4281
1381.47,stimuli/restaurant/restaurant_12.jpg,70,memory_backgrounds,image-keyboard-response,1361,18916102,0.0-25.0-1.75,4281
NULL, ,NULL,memory_backgrounds,html-keyboard-response,1362,18916606,0.0-25.0-0.76,4281
829.875,stimuli/forest/forest_14.jpg,70,memory_backgrounds,image-keyboard-response,1363,18917438,0.0-25.0-1.76,4281
NULL, ,NULL,memory_backgrounds,html-keyboard-response,1364,18917941,0.0-25.0-0.77,4281
804.905,stimuli/library/library_27.jpg,74,memory_backgrounds,image-keyboard-response,1365,18918748,0.0-25.0-1.77,4281
NULL, ,NULL,memory_backgrounds,html-keyboard-response,1366,18919260,0.0-25.0-0.78,4281
1009.895,stimuli/library/library_12.jpg,74,memory_backgrounds,image-keyboard-response,1367,18920272,0.0-25.0-1.78,4281
NULL, ,NULL,memory_backgrounds,html-keyboard-response,1368,18920775,0.0-25.0-0.79,4281
1438.03,stimuli/forest/forest_12.jpg,74,memory_backgrounds,image-keyboard-response,1369,18922215,0.0-25.0-1.79,4281
NULL, ,NULL,memory_backgrounds,html-keyboard-response,1370,18922718,0.0-25.0-0.80,4281
808.31,stimuli/desert/desert_20.jpg,74,memory_backgrounds,image-keyboard-response,1371,18923528,0.0-25.0-1.80,4281
NULL, ,NULL,memory_backgrounds,html-keyboard-response,1372,18924034,0.0-25.0-0.81,4281
1630.56,stimuli/restaurant/restaurant_14.jpg,74,memory_backgrounds,image-keyboard-response,1373,18925667,0.0-25.0-1.81,4281
NULL, ,NULL,memory_backgrounds,html-keyboard-response,1374,18926177,0.0-25.0-0.82,4281
983.94,stimuli/desert/desert_14.jpg,74,memory_backgrounds,image-keyboard-response,1375,18927163,0.0-25.0-1.82,4281
NULL, ,NULL,memory_backgrounds,html-keyboard-response,1376,18927666,0.0-25.0-0.83,4281
849.28,stimuli/restaurant/restaurant_1.jpg,70,memory_backgrounds,image-keyboard-response,1377,18928517,0.0-25.0-1.83,4281
NULL, ,NULL,memory_backgrounds,html-keyboard-response,1378,18929024,0.0-25.0-0.84,4281
1553.71,stimuli/desert/desert_4.jpg,74,memory_backgrounds,image-keyboard-response,1379,18930581,0.0-25.0-1.84,4281
NULL, ,NULL,memory_backgrounds,html-keyboard-response,1380,18931090,0.0-25.0-0.85,4281
1082.13,stimuli/restaurant/restaurant_15.jpg,70,memory_backgrounds,image-keyboard-response,1381,18932174,0.0-25.0-1.85,4281
NULL, ,NULL,memory_backgrounds,html-keyboard-response,1382,18932689,0.0-25.0-0.86,4281
880.335,stimuli/restaurant/restaurant_13.jpg,74,memory_backgrounds,image-keyboard-response,1383,18933571,0.0-25.0-1.86,4281
NULL, ,NULL,memory_backgrounds,html-keyboard-response,1384,18934076,0.0-25.0-0.87,4281
1587.265,stimuli/desert/desert_13.jpg,70,memory_backgrounds,image-keyboard-response,1385,18935665,0.0-25.0-1.87,4281
NULL, ,NULL,memory_backgrounds,html-keyboard-response,1386,18936172,0.0-25.0-0.88,4281
756.56,stimuli/restaurant/restaurant_25.jpg,74,memory_backgrounds,image-keyboard-response,1387,18936931,0.0-25.0-1.88,4281
NULL, ,NULL,memory_backgrounds,html-keyboard-response,1388,18937455,0.0-25.0-0.89,4281
1398.615,stimuli/forest/forest_4.jpg,74,memory_backgrounds,image-keyboard-response,1389,18938855,0.0-25.0-1.89,4281
NULL, ,NULL,memory_backgrounds,html-keyboard-response,1390,18939360,0.0-25.0-0.90,4281
1238.925,stimuli/forest/forest_6.jpg,70,memory_backgrounds,image-keyboard-response,1391,18940601,0.0-25.0-1.90,4281
NULL, ,NULL,memory_backgrounds,html-keyboard-response,1392,18941120,0.0-25.0-0.91,4281
1182.85,stimuli/desert/desert_12.jpg,70,memory_backgrounds,image-keyboard-response,1393,18942305,0.0-25.0-1.91,4281
NULL, ,NULL,memory_backgrounds,html-keyboard-response,1394,18942810,0.0-25.0-0.92,4281
989.445,stimuli/restaurant/restaurant_24.jpg,74,memory_backgrounds,image-keyboard-response,1395,18943802,0.0-25.0-1.92,4281
NULL, ,NULL,memory_backgrounds,html-keyboard-response,1396,18944316,0.0-25.0-0.93,4281
817.94,stimuli/forest/forest_30.jpg,74,memory_backgrounds,image-keyboard-response,1397,18945136,0.0-25.0-1.93,4281
NULL, ,NULL,memory_backgrounds,html-keyboard-response,1398,18945646,0.0-25.0-0.94,4281
867.915,stimuli/forest/forest_8.jpg,70,memory_backgrounds,image-keyboard-response,1399,18946517,0.0-25.0-1.94,4281
NULL, ,NULL,memory_backgrounds,html-keyboard-response,1400,18947025,0.0-25.0-0.95,4281
850.89,stimuli/restaurant/restaurant_23.jpg,74,memory_backgrounds,image-keyboard-response,1401,18947878,0.0-25.0-1.95,4281
NULL, ,NULL,memory_backgrounds,html-keyboard-response,1402,18948384,0.0-25.0-0.96,4281
1077.515,stimuli/library/library_29.jpg,70,memory_backgrounds,image-keyboard-response,1403,18949463,0.0-25.0-1.96,4281
NULL, ,NULL,memory_backgrounds,html-keyboard-response,1404,18949981,0.0-25.0-0.97,4281
789.725,stimuli/restaurant/restaurant_22.jpg,70,memory_backgrounds,image-keyboard-response,1405,18950773,0.0-25.0-1.97,4281
NULL, ,NULL,memory_backgrounds,html-keyboard-response,1406,18951274,0.0-25.0-0.98,4281
821.08,stimuli/library/library_13.jpg,70,memory_backgrounds,image-keyboard-response,1407,18952097,0.0-25.0-1.98,4281
NULL, ,NULL,memory_backgrounds,html-keyboard-response,1408,18952601,0.0-25.0-0.99,4281
1505.265,stimuli/library/library_25.jpg,74,memory_backgrounds,image-keyboard-response,1409,18954109,0.0-25.0-1.99,4281
NULL, ,NULL,memory_backgrounds,html-keyboard-response,1410,18954622,0.0-25.0-0.100,4281
NULL,stimuli/desert/desert_28.jpg,NULL,memory_backgrounds,image-keyboard-response,1411,18957133,0.0-25.0-1.100,4281
NULL, ,NULL,memory_backgrounds,html-keyboard-response,1412,18957640,0.0-25.0-0.101,4281
2056.765,stimuli/desert/desert_8.jpg,74,memory_backgrounds,image-keyboard-response,1413,18959699,0.0-25.0-1.101,4281
NULL, ,NULL,memory_backgrounds,html-keyboard-response,1414,18960208,0.0-25.0-0.102,4281
760.9,stimuli/restaurant/restaurant_7.jpg,74,memory_backgrounds,image-keyboard-response,1415,18960972,0.0-25.0-1.102,4281
NULL, ,NULL,memory_backgrounds,html-keyboard-response,1416,18961482,0.0-25.0-0.103,4281
793.515,stimuli/desert/desert_23.jpg,70,memory_backgrounds,image-keyboard-response,1417,18962278,0.0-25.0-1.103,4281
NULL, ,NULL,memory_backgrounds,html-keyboard-response,1418,18962804,0.0-25.0-0.104,4281
1545.945,stimuli/library/library_1.jpg,70,memory_backgrounds,image-keyboard-response,1419,18964352,0.0-25.0-1.104,4281
NULL, ,NULL,memory_backgrounds,html-keyboard-response,1420,18964854,0.0-25.0-0.105,4281
1282.265,stimuli/restaurant/restaurant_30.jpg,70,memory_backgrounds,image-keyboard-response,1421,18966138,0.0-25.0-1.105,4281
NULL, ,NULL,memory_backgrounds,html-keyboard-response,1422,18966652,0.0-25.0-0.106,4281
961.73,stimuli/library/library_8.jpg,70,memory_backgrounds,image-keyboard-response,1423,18967616,0.0-25.0-1.106,4281
NULL, ,NULL,memory_backgrounds,html-keyboard-response,1424,18968129,0.0-25.0-0.107,4281
1484.56,stimuli/library/library_19.jpg,70,memory_backgrounds,image-keyboard-response,1425,18969616,0.0-25.0-1.107,4281
