,rt,stimulus,key_press,task,trial_type,trial_index,time_elapsed,internal_node_id,subid,stripped_stims,environ,old_or_new,accuracy,high_arm
0,,stimuli/desert/desert_11.jpg,,memory_backgrounds,image-keyboard-response,1201.0,3551759.0,0.0-25.0-1.0,1333,desert_11,desert,new,0,outside
1,319.0,stimuli/forest/forest_9.jpg,74.0,memory_backgrounds,image-keyboard-response,1203.0,3552581.0,0.0-25.0-1.1,1333,forest_9,forest,new,1,outside
2,279.0,stimuli/desert/desert_32.jpg,70.0,memory_backgrounds,image-keyboard-response,1205.0,3553363.0,0.0-25.0-1.2,1333,desert_32,desert,new,0,outside
3,99.0,stimuli/forest/forest_28.jpg,74.0,memory_backgrounds,image-keyboard-response,1207.0,3553964.0,0.0-25.0-1.3,1333,forest_28,forest,old,0,outside
4,44.0,stimuli/desert/desert_31.jpg,70.0,memory_backgrounds,image-keyboard-response,1209.0,3554510.0,0.0-25.0-1.4,1333,desert_31,desert,new,0,outside
5,308.0,stimuli/forest/forest_22.jpg,70.0,memory_backgrounds,image-keyboard-response,1211.0,3555321.0,0.0-25.0-1.5,1333,forest_22,forest,new,0,outside
6,476.0,stimuli/forest/forest_16.jpg,70.0,memory_backgrounds,image-keyboard-response,1213.0,3556301.0,0.0-25.0-1.6,1333,forest_16,forest,new,0,outside
7,231.0,stimuli/restaurant/restaurant_29.jpg,70.0,memory_backgrounds,image-keyboard-response,1215.0,3557036.0,0.0-25.0-1.7,1333,restaurant_29,restaurant,old,1,outside
8,274.0,stimuli/desert/desert_4.jpg,74.0,memory_backgrounds,image-keyboard-response,1217.0,3557815.0,0.0-25.0-1.8,1333,desert_4,desert,new,1,outside
9,701.0,stimuli/restaurant/restaurant_15.jpg,74.0,memory_backgrounds,image-keyboard-response,1219.0,3559018.0,0.0-25.0-1.9,1333,restaurant_15,restaurant,old,0,outside
10,1318.0,stimuli/desert/desert_25.jpg,74.0,memory_backgrounds,image-keyboard-response,1221.0,3560840.0,0.0-25.0-1.10,1333,desert_25,desert,old,0,outside
11,508.0,stimuli/forest/forest_11.jpg,70.0,memory_backgrounds,image-keyboard-response,1223.0,3561851.0,0.0-25.0-1.11,1333,forest_11,forest,new,0,outside
12,1041.0,stimuli/restaurant/restaurant_20.jpg,70.0,memory_backgrounds,image-keyboard-response,1225.0,3563395.0,0.0-25.0-1.12,1333,restaurant_20,restaurant,new,0,outside
13,338.0,stimuli/library/library_3.jpg,74.0,memory_backgrounds,image-keyboard-response,1227.0,3564240.0,0.0-25.0-1.13,1333,library_3,library,old,0,outside
14,326.0,stimuli/library/library_10.jpg,70.0,memory_backgrounds,image-keyboard-response,1229.0,3565068.0,0.0-25.0-1.14,1333,library_10,library,old,1,outside
15,234.0,stimuli/desert/desert_6.jpg,70.0,memory_backgrounds,image-keyboard-response,1231.0,3565805.0,0.0-25.0-1.15,1333,desert_6,desert,new,0,outside
16,233.0,stimuli/restaurant/restaurant_2.jpg,70.0,memory_backgrounds,image-keyboard-response,1233.0,3566541.0,0.0-25.0-1.16,1333,restaurant_2,restaurant,old,1,outside
17,209.0,stimuli/forest/forest_29.jpg,70.0,memory_backgrounds,image-keyboard-response,1235.0,3567253.0,0.0-25.0-1.17,1333,forest_29,forest,old,1,outside
18,738.0,stimuli/forest/forest_27.jpg,70.0,memory_backgrounds,image-keyboard-response,1237.0,3568494.0,0.0-25.0-1.18,1333,forest_27,forest,old,1,outside
19,951.0,stimuli/desert/desert_9.jpg,74.0,memory_backgrounds,image-keyboard-response,1239.0,3569948.0,0.0-25.0-1.19,1333,desert_9,desert,old,0,outside
20,329.0,stimuli/desert/desert_18.jpg,70.0,memory_backgrounds,image-keyboard-response,1241.0,3570780.0,0.0-25.0-1.20,1333,desert_18,desert,new,0,outside
21,315.0,stimuli/forest/forest_13.jpg,70.0,memory_backgrounds,image-keyboard-response,1243.0,3571598.0,0.0-25.0-1.21,1333,forest_13,forest,new,0,outside
22,974.0,stimuli/restaurant/restaurant_5.jpg,70.0,memory_backgrounds,image-keyboard-response,1245.0,3573075.0,0.0-25.0-1.22,1333,restaurant_5,restaurant,new,0,outside
23,995.0,stimuli/desert/desert_8.jpg,70.0,memory_backgrounds,image-keyboard-response,1247.0,3574575.0,0.0-25.0-1.23,1333,desert_8,desert,old,1,outside
24,1093.0,stimuli/restaurant/restaurant_9.jpg,70.0,memory_backgrounds,image-keyboard-response,1249.0,3576172.0,0.0-25.0-1.24,1333,restaurant_9,restaurant,old,1,outside
25,905.0,stimuli/library/library_22.jpg,74.0,memory_backgrounds,image-keyboard-response,1251.0,3577579.0,0.0-25.0-1.25,1333,library_22,library,old,0,outside
26,470.0,stimuli/library/library_19.jpg,70.0,memory_backgrounds,image-keyboard-response,1253.0,3578552.0,0.0-25.0-1.26,1333,library_19,library,new,0,outside
27,314.0,stimuli/restaurant/restaurant_31.jpg,70.0,memory_backgrounds,image-keyboard-response,1255.0,3579371.0,0.0-25.0-1.27,1333,restaurant_31,restaurant,old,1,outside
28,259.0,stimuli/desert/desert_10.jpg,74.0,memory_backgrounds,image-keyboard-response,1257.0,3580132.0,0.0-25.0-1.28,1333,desert_10,desert,new,1,outside
29,85.0,stimuli/restaurant/restaurant_4.jpg,70.0,memory_backgrounds,image-keyboard-response,1259.0,3580722.0,0.0-25.0-1.29,1333,restaurant_4,restaurant,old,1,outside
30,116.0,stimuli/desert/desert_26.jpg,74.0,memory_backgrounds,image-keyboard-response,1261.0,3581342.0,0.0-25.0-1.30,1333,desert_26,desert,new,1,outside
31,67.0,stimuli/library/library_18.jpg,70.0,memory_backgrounds,image-keyboard-response,1263.0,3581911.0,0.0-25.0-1.31,1333,library_18,library,old,1,outside
32,32.0,stimuli/restaurant/restaurant_30.jpg,74.0,memory_backgrounds,image-keyboard-response,1265.0,3582447.0,0.0-25.0-1.32,1333,restaurant_30,restaurant,old,0,outside
33,167.0,stimuli/forest/forest_31.jpg,74.0,memory_backgrounds,image-keyboard-response,1267.0,3583117.0,0.0-25.0-1.33,1333,forest_31,forest,new,1,outside
34,132.0,stimuli/restaurant/restaurant_14.jpg,70.0,memory_backgrounds,image-keyboard-response,1269.0,3583752.0,0.0-25.0-1.34,1333,restaurant_14,restaurant,old,1,outside
35,288.0,stimuli/forest/forest_4.jpg,74.0,memory_backgrounds,image-keyboard-response,1271.0,3584544.0,0.0-25.0-1.35,1333,forest_4,forest,new,1,outside
36,149.0,stimuli/restaurant/restaurant_27.jpg,74.0,memory_backgrounds,image-keyboard-response,1273.0,3585198.0,0.0-25.0-1.36,1333,restaurant_27,restaurant,new,1,outside
37,360.0,stimuli/forest/forest_1.jpg,70.0,memory_backgrounds,image-keyboard-response,1275.0,3586060.0,0.0-25.0-1.37,1333,forest_1,forest,old,1,outside
38,728.0,stimuli/forest/forest_7.jpg,70.0,memory_backgrounds,image-keyboard-response,1277.0,3587291.0,0.0-25.0-1.38,1333,forest_7,forest,old,1,outside
39,125.0,stimuli/forest/forest_26.jpg,74.0,memory_backgrounds,image-keyboard-response,1279.0,3587919.0,0.0-25.0-1.39,1333,forest_26,forest,new,1,outside
40,307.0,stimuli/desert/desert_16.jpg,74.0,memory_backgrounds,image-keyboard-response,1281.0,3588729.0,0.0-25.0-1.40,1333,desert_16,desert,new,1,outside
41,284.0,stimuli/restaurant/restaurant_26.jpg,74.0,memory_backgrounds,image-keyboard-response,1283.0,3589517.0,0.0-25.0-1.41,1333,restaurant_26,restaurant,old,0,outside
42,854.0,stimuli/library/library_27.jpg,70.0,memory_backgrounds,image-keyboard-response,1285.0,3590874.0,0.0-25.0-1.42,1333,library_27,library,old,1,outside
43,422.0,stimuli/library/library_32.jpg,70.0,memory_backgrounds,image-keyboard-response,1287.0,3591799.0,0.0-25.0-1.43,1333,library_32,library,new,0,outside
44,777.0,stimuli/library/library_25.jpg,70.0,memory_backgrounds,image-keyboard-response,1289.0,3593081.0,0.0-25.0-1.44,1333,library_25,library,old,1,outside
45,742.0,stimuli/restaurant/restaurant_18.jpg,70.0,memory_backgrounds,image-keyboard-response,1291.0,3594326.0,0.0-25.0-1.45,1333,restaurant_18,restaurant,new,0,outside
46,675.0,stimuli/library/library_24.jpg,70.0,memory_backgrounds,image-keyboard-response,1293.0,3595503.0,0.0-25.0-1.46,1333,library_24,library,new,0,outside
47,630.0,stimuli/library/library_15.jpg,70.0,memory_backgrounds,image-keyboard-response,1295.0,3596636.0,0.0-25.0-1.47,1333,library_15,library,old,1,outside
48,368.0,stimuli/library/library_1.jpg,74.0,memory_backgrounds,image-keyboard-response,1297.0,3597508.0,0.0-25.0-1.48,1333,library_1,library,old,0,outside
49,133.0,stimuli/forest/forest_6.jpg,74.0,memory_backgrounds,image-keyboard-response,1299.0,3598146.0,0.0-25.0-1.49,1333,forest_6,forest,old,0,outside
50,145.0,stimuli/desert/desert_14.jpg,74.0,memory_backgrounds,image-keyboard-response,1301.0,3598794.0,0.0-25.0-1.50,1333,desert_14,desert,old,0,outside
51,294.0,stimuli/restaurant/restaurant_11.jpg,74.0,memory_backgrounds,image-keyboard-response,1303.0,3599591.0,0.0-25.0-1.51,1333,restaurant_11,restaurant,new,1,outside
52,142.0,stimuli/forest/forest_32.jpg,70.0,memory_backgrounds,image-keyboard-response,1305.0,3600237.0,0.0-25.0-1.52,1333,forest_32,forest,new,0,outside
53,0.0,stimuli/forest/forest_15.jpg,70.0,memory_backgrounds,image-keyboard-response,1307.0,3600739.0,0.0-25.0-1.53,1333,forest_15,forest,old,1,outside
54,387.0,stimuli/forest/forest_8.jpg,70.0,memory_backgrounds,image-keyboard-response,1309.0,3601628.0,0.0-25.0-1.54,1333,forest_8,forest,old,1,outside
55,185.0,stimuli/library/library_14.jpg,70.0,memory_backgrounds,image-keyboard-response,1311.0,3602318.0,0.0-25.0-1.55,1333,library_14,library,old,1,outside
56,308.0,stimuli/restaurant/restaurant_28.jpg,70.0,memory_backgrounds,image-keyboard-response,1313.0,3603129.0,0.0-25.0-1.56,1333,restaurant_28,restaurant,old,1,outside
57,272.0,stimuli/forest/forest_12.jpg,70.0,memory_backgrounds,image-keyboard-response,1315.0,3603903.0,0.0-25.0-1.57,1333,forest_12,forest,old,1,outside
58,216.0,stimuli/forest/forest_5.jpg,70.0,memory_backgrounds,image-keyboard-response,1317.0,3604623.0,0.0-25.0-1.58,1333,forest_5,forest,new,0,outside
59,223.0,stimuli/forest/forest_23.jpg,70.0,memory_backgrounds,image-keyboard-response,1319.0,3605350.0,0.0-25.0-1.59,1333,forest_23,forest,new,0,outside
60,183.0,stimuli/restaurant/restaurant_19.jpg,70.0,memory_backgrounds,image-keyboard-response,1321.0,3606036.0,0.0-25.0-1.60,1333,restaurant_19,restaurant,new,0,outside
61,196.0,stimuli/forest/forest_2.jpg,70.0,memory_backgrounds,image-keyboard-response,1323.0,3606735.0,0.0-25.0-1.61,1333,forest_2,forest,new,0,outside
62,214.0,stimuli/library/library_13.jpg,74.0,memory_backgrounds,image-keyboard-response,1325.0,3607452.0,0.0-25.0-1.62,1333,library_13,library,old,0,outside
63,164.0,stimuli/desert/desert_23.jpg,74.0,memory_backgrounds,image-keyboard-response,1327.0,3608120.0,0.0-25.0-1.63,1333,desert_23,desert,new,1,outside
64,325.0,stimuli/library/library_20.jpg,74.0,memory_backgrounds,image-keyboard-response,1329.0,3608947.0,0.0-25.0-1.64,1333,library_20,library,new,1,outside
65,161.0,stimuli/forest/forest_24.jpg,74.0,memory_backgrounds,image-keyboard-response,1331.0,3609612.0,0.0-25.0-1.65,1333,forest_24,forest,new,1,outside
66,153.0,stimuli/forest/forest_30.jpg,74.0,memory_backgrounds,image-keyboard-response,1333.0,3610268.0,0.0-25.0-1.66,1333,forest_30,forest,old,0,outside
67,710.0,stimuli/restaurant/restaurant_16.jpg,74.0,memory_backgrounds,image-keyboard-response,1335.0,3611482.0,0.0-25.0-1.67,1333,restaurant_16,restaurant,old,0,outside
68,1031.0,stimuli/restaurant/restaurant_32.jpg,70.0,memory_backgrounds,image-keyboard-response,1337.0,3613016.0,0.0-25.0-1.68,1333,restaurant_32,restaurant,old,1,outside
69,188.0,stimuli/library/library_5.jpg,70.0,memory_backgrounds,image-keyboard-response,1339.0,3613709.0,0.0-25.0-1.69,1333,library_5,library,new,0,outside
70,155.0,stimuli/library/library_31.jpg,70.0,memory_backgrounds,image-keyboard-response,1341.0,3614368.0,0.0-25.0-1.70,1333,library_31,library,new,0,outside
71,135.0,stimuli/desert/desert_21.jpg,70.0,memory_backgrounds,image-keyboard-response,1343.0,3615006.0,0.0-25.0-1.71,1333,desert_21,desert,new,0,outside
72,221.0,stimuli/restaurant/restaurant_17.jpg,70.0,memory_backgrounds,image-keyboard-response,1345.0,3615729.0,0.0-25.0-1.72,1333,restaurant_17,restaurant,old,1,outside
73,133.0,stimuli/restaurant/restaurant_13.jpg,70.0,memory_backgrounds,image-keyboard-response,1347.0,3616366.0,0.0-25.0-1.73,1333,restaurant_13,restaurant,new,0,outside
74,67.0,stimuli/restaurant/restaurant_6.jpg,74.0,memory_backgrounds,image-keyboard-response,1349.0,3616936.0,0.0-25.0-1.74,1333,restaurant_6,restaurant,new,1,outside
75,164.0,stimuli/desert/desert_28.jpg,70.0,memory_backgrounds,image-keyboard-response,1351.0,3617604.0,0.0-25.0-1.75,1333,desert_28,desert,old,1,outside
76,144.0,stimuli/forest/forest_17.jpg,74.0,memory_backgrounds,image-keyboard-response,1353.0,3618251.0,0.0-25.0-1.76,1333,forest_17,forest,new,1,outside
77,44.0,stimuli/library/library_29.jpg,70.0,memory_backgrounds,image-keyboard-response,1355.0,3618799.0,0.0-25.0-1.77,1333,library_29,library,old,1,outside
78,74.0,stimuli/desert/desert_1.jpg,70.0,memory_backgrounds,image-keyboard-response,1357.0,3619377.0,0.0-25.0-1.78,1333,desert_1,desert,new,0,outside
79,88.0,stimuli/desert/desert_22.jpg,70.0,memory_backgrounds,image-keyboard-response,1359.0,3619968.0,0.0-25.0-1.79,1333,desert_22,desert,old,1,outside
80,98.0,stimuli/library/library_26.jpg,70.0,memory_backgrounds,image-keyboard-response,1361.0,3620569.0,0.0-25.0-1.80,1333,library_26,library,old,1,outside
81,90.0,stimuli/desert/desert_20.jpg,74.0,memory_backgrounds,image-keyboard-response,1363.0,3621162.0,0.0-25.0-1.81,1333,desert_20,desert,old,0,outside
82,114.0,stimuli/restaurant/restaurant_24.jpg,74.0,memory_backgrounds,image-keyboard-response,1365.0,3621779.0,0.0-25.0-1.82,1333,restaurant_24,restaurant,new,1,outside
83,518.0,stimuli/library/library_23.jpg,74.0,memory_backgrounds,image-keyboard-response,1367.0,3622800.0,0.0-25.0-1.83,1333,library_23,library,new,1,outside
84,292.0,stimuli/library/library_7.jpg,74.0,memory_backgrounds,image-keyboard-response,1369.0,3623596.0,0.0-25.0-1.84,1333,library_7,library,new,1,outside
85,101.0,stimuli/forest/forest_19.jpg,70.0,memory_backgrounds,image-keyboard-response,1371.0,3624200.0,0.0-25.0-1.85,1333,forest_19,forest,old,1,outside
86,120.0,stimuli/library/library_11.jpg,70.0,memory_backgrounds,image-keyboard-response,1373.0,3624822.0,0.0-25.0-1.86,1333,library_11,library,old,1,outside
87,96.0,stimuli/restaurant/restaurant_7.jpg,70.0,memory_backgrounds,image-keyboard-response,1375.0,3625421.0,0.0-25.0-1.87,1333,restaurant_7,restaurant,new,0,outside
88,109.0,stimuli/desert/desert_29.jpg,70.0,memory_backgrounds,image-keyboard-response,1377.0,3626034.0,0.0-25.0-1.88,1333,desert_29,desert,old,1,outside
89,43.0,stimuli/forest/forest_20.jpg,74.0,memory_backgrounds,image-keyboard-response,1379.0,3626579.0,0.0-25.0-1.89,1333,forest_20,forest,old,0,outside
90,162.0,stimuli/desert/desert_5.jpg,74.0,memory_backgrounds,image-keyboard-response,1381.0,3627244.0,0.0-25.0-1.90,1333,desert_5,desert,new,1,outside
91,323.0,stimuli/desert/desert_17.jpg,74.0,memory_backgrounds,image-keyboard-response,1383.0,3628072.0,0.0-25.0-1.91,1333,desert_17,desert,old,0,outside
92,84.0,stimuli/restaurant/restaurant_10.jpg,70.0,memory_backgrounds,image-keyboard-response,1385.0,3628658.0,0.0-25.0-1.92,1333,restaurant_10,restaurant,new,0,outside
93,70.0,stimuli/forest/forest_18.jpg,70.0,memory_backgrounds,image-keyboard-response,1387.0,3629231.0,0.0-25.0-1.93,1333,forest_18,forest,old,1,outside
94,512.0,stimuli/desert/desert_30.jpg,70.0,memory_backgrounds,image-keyboard-response,1389.0,3630245.0,0.0-25.0-1.94,1333,desert_30,desert,old,1,outside
95,557.0,stimuli/library/library_17.jpg,74.0,memory_backgrounds,image-keyboard-response,1391.0,3631305.0,0.0-25.0-1.95,1333,library_17,library,new,1,outside
96,409.0,stimuli/library/library_30.jpg,74.0,memory_backgrounds,image-keyboard-response,1393.0,3632217.0,0.0-25.0-1.96,1333,library_30,library,new,1,outside
97,492.0,stimuli/desert/desert_3.jpg,70.0,memory_backgrounds,image-keyboard-response,1395.0,3633212.0,0.0-25.0-1.97,1333,desert_3,desert,new,0,outside
98,1270.0,stimuli/library/library_8.jpg,74.0,memory_backgrounds,image-keyboard-response,1397.0,3634986.0,0.0-25.0-1.98,1333,library_8,library,new,1,outside
99,254.0,stimuli/restaurant/restaurant_23.jpg,74.0,memory_backgrounds,image-keyboard-response,1399.0,3635745.0,0.0-25.0-1.99,1333,restaurant_23,restaurant,new,1,outside
100,234.0,stimuli/restaurant/restaurant_21.jpg,74.0,memory_backgrounds,image-keyboard-response,1401.0,3636482.0,0.0-25.0-1.100,1333,restaurant_21,restaurant,new,1,outside
101,124.0,stimuli/desert/desert_19.jpg,74.0,memory_backgrounds,image-keyboard-response,1403.0,3637111.0,0.0-25.0-1.101,1333,desert_19,desert,old,0,outside
102,167.0,stimuli/library/library_6.jpg,74.0,memory_backgrounds,image-keyboard-response,1405.0,3637781.0,0.0-25.0-1.102,1333,library_6,library,old,0,outside
103,155.0,stimuli/forest/forest_14.jpg,70.0,memory_backgrounds,image-keyboard-response,1407.0,3638438.0,0.0-25.0-1.103,1333,forest_14,forest,old,1,outside
104,134.0,stimuli/desert/desert_7.jpg,70.0,memory_backgrounds,image-keyboard-response,1409.0,3639075.0,0.0-25.0-1.104,1333,desert_7,desert,old,1,outside
105,290.0,stimuli/library/library_12.jpg,70.0,memory_backgrounds,image-keyboard-response,1411.0,3639868.0,0.0-25.0-1.105,1333,library_12,library,old,1,outside
106,175.0,stimuli/desert/desert_27.jpg,70.0,memory_backgrounds,image-keyboard-response,1413.0,3640544.0,0.0-25.0-1.106,1333,desert_27,desert,old,1,outside
107,156.0,stimuli/desert/desert_2.jpg,70.0,memory_backgrounds,image-keyboard-response,1415.0,3641203.0,0.0-25.0-1.107,1333,desert_2,desert,new,0,outside
108,187.0,stimuli/restaurant/restaurant_3.jpg,70.0,memory_backgrounds,image-keyboard-response,1417.0,3641893.0,0.0-25.0-1.108,1333,restaurant_3,restaurant,new,0,outside
109,309.0,stimuli/library/library_16.jpg,70.0,memory_backgrounds,image-keyboard-response,1419.0,3642707.0,0.0-25.0-1.109,1333,library_16,library,new,0,outside
110,88.0,stimuli/library/library_21.jpg,70.0,memory_backgrounds,image-keyboard-response,1421.0,3643297.0,0.0-25.0-1.110,1333,library_21,library,old,1,outside
111,176.0,stimuli/library/library_2.jpg,70.0,memory_backgrounds,image-keyboard-response,1423.0,3643977.0,0.0-25.0-1.111,1333,library_2,library,new,0,outside
112,151.0,stimuli/restaurant/restaurant_25.jpg,70.0,memory_backgrounds,image-keyboard-response,1425.0,3644632.0,0.0-25.0-1.112,1333,restaurant_25,restaurant,new,0,outside
113,117.0,stimuli/desert/desert_12.jpg,70.0,memory_backgrounds,image-keyboard-response,1427.0,3645253.0,0.0-25.0-1.113,1333,desert_12,desert,old,1,outside
114,267.0,stimuli/forest/forest_21.jpg,70.0,memory_backgrounds,image-keyboard-response,1429.0,3646022.0,0.0-25.0-1.114,1333,forest_21,forest,old,1,outside
115,154.0,stimuli/desert/desert_24.jpg,70.0,memory_backgrounds,image-keyboard-response,1431.0,3646680.0,0.0-25.0-1.115,1333,desert_24,desert,old,1,outside
116,213.0,stimuli/restaurant/restaurant_12.jpg,70.0,memory_backgrounds,image-keyboard-response,1433.0,3647398.0,0.0-25.0-1.116,1333,restaurant_12,restaurant,old,1,outside
117,136.0,stimuli/library/library_4.jpg,70.0,memory_backgrounds,image-keyboard-response,1435.0,3648037.0,0.0-25.0-1.117,1333,library_4,library,new,0,outside
118,118.0,stimuli/restaurant/restaurant_22.jpg,70.0,memory_backgrounds,image-keyboard-response,1437.0,3648656.0,0.0-25.0-1.118,1333,restaurant_22,restaurant,old,1,outside
119,165.0,stimuli/library/library_28.jpg,70.0,memory_backgrounds,image-keyboard-response,1439.0,3649325.0,0.0-25.0-1.119,1333,library_28,library,new,0,outside
120,565.0,stimuli/library/library_9.jpg,74.0,memory_backgrounds,image-keyboard-response,1441.0,3650394.0,0.0-25.0-1.120,1333,library_9,library,new,1,outside
121,248.0,stimuli/forest/forest_10.jpg,74.0,memory_backgrounds,image-keyboard-response,1443.0,3651146.0,0.0-25.0-1.121,1333,forest_10,forest,new,1,outside
122,291.0,stimuli/desert/desert_13.jpg,74.0,memory_backgrounds,image-keyboard-response,1445.0,3651940.0,0.0-25.0-1.122,1333,desert_13,desert,old,0,outside
123,264.0,stimuli/restaurant/restaurant_1.jpg,74.0,memory_backgrounds,image-keyboard-response,1447.0,3652707.0,0.0-25.0-1.123,1333,restaurant_1,restaurant,old,0,outside
124,882.0,stimuli/forest/forest_25.jpg,74.0,memory_backgrounds,image-keyboard-response,1449.0,3654092.0,0.0-25.0-1.124,1333,forest_25,forest,new,1,outside
125,637.0,stimuli/forest/forest_3.jpg,74.0,memory_backgrounds,image-keyboard-response,1451.0,3655234.0,0.0-25.0-1.125,1333,forest_3,forest,old,0,outside
126,853.0,stimuli/desert/desert_15.jpg,74.0,memory_backgrounds,image-keyboard-response,1453.0,3656591.0,0.0-25.0-1.126,1333,desert_15,desert,new,1,outside
127,842.0,stimuli/restaurant/restaurant_8.jpg,74.0,memory_backgrounds,image-keyboard-response,1455.0,3657936.0,0.0-25.0-1.127,1333,restaurant_8,restaurant,new,1,outside
0,1467.555,stimuli/library/library_5.jpg,74.0,memory_backgrounds,image-keyboard-response,1212.0,3856508.0,0.0-25.0-1.0,2225,library_5,library,old,0,inside
1,992.265,stimuli/library/library_29.jpg,74.0,memory_backgrounds,image-keyboard-response,1214.0,3858006.0,0.0-25.0-1.1,2225,library_29,library,new,1,inside
2,1499.055,stimuli/library/library_23.jpg,70.0,memory_backgrounds,image-keyboard-response,1216.0,3860011.0,0.0-25.0-1.2,2225,library_23,library,old,1,inside
3,886.96,stimuli/forest/forest_14.jpg,74.0,memory_backgrounds,image-keyboard-response,1218.0,3861405.0,0.0-25.0-1.3,2225,forest_14,forest,new,1,inside
4,1129.205,stimuli/forest/forest_6.jpg,74.0,memory_backgrounds,image-keyboard-response,1220.0,3863036.0,0.0-25.0-1.4,2225,forest_6,forest,new,1,inside
5,767.125,stimuli/restaurant/restaurant_6.jpg,74.0,memory_backgrounds,image-keyboard-response,1222.0,3864307.0,0.0-25.0-1.5,2225,restaurant_6,restaurant,new,1,inside
6,1094.37,stimuli/library/library_17.jpg,70.0,memory_backgrounds,image-keyboard-response,1224.0,3865908.0,0.0-25.0-1.6,2225,library_17,library,old,1,inside
7,1036.27,stimuli/restaurant/restaurant_32.jpg,70.0,memory_backgrounds,image-keyboard-response,1226.0,3867446.0,0.0-25.0-1.7,2225,restaurant_32,restaurant,old,1,inside
8,1595.71,stimuli/library/library_15.jpg,74.0,memory_backgrounds,image-keyboard-response,1228.0,3869547.0,0.0-25.0-1.8,2225,library_15,library,old,0,inside
9,1050.375,stimuli/forest/forest_5.jpg,70.0,memory_backgrounds,image-keyboard-response,1230.0,3871100.0,0.0-25.0-1.9,2225,forest_5,forest,old,1,inside
10,1273.8,stimuli/library/library_24.jpg,74.0,memory_backgrounds,image-keyboard-response,1232.0,3872875.0,0.0-25.0-1.10,2225,library_24,library,new,1,inside
11,920.415,stimuli/restaurant/restaurant_5.jpg,74.0,memory_backgrounds,image-keyboard-response,1234.0,3874302.0,0.0-25.0-1.11,2225,restaurant_5,restaurant,new,1,inside
12,1132.705,stimuli/desert/desert_17.jpg,74.0,memory_backgrounds,image-keyboard-response,1236.0,3875940.0,0.0-25.0-1.12,2225,desert_17,desert,new,1,inside
13,1312.52,stimuli/desert/desert_4.jpg,74.0,memory_backgrounds,image-keyboard-response,1238.0,3877758.0,0.0-25.0-1.13,2225,desert_4,desert,new,1,inside
14,839.445,stimuli/desert/desert_20.jpg,70.0,memory_backgrounds,image-keyboard-response,1240.0,3879099.0,0.0-25.0-1.14,2225,desert_20,desert,old,1,inside
15,1197.445,stimuli/restaurant/restaurant_17.jpg,74.0,memory_backgrounds,image-keyboard-response,1242.0,3880804.0,0.0-25.0-1.15,2225,restaurant_17,restaurant,new,1,inside
16,1116.16,stimuli/restaurant/restaurant_21.jpg,70.0,memory_backgrounds,image-keyboard-response,1244.0,3882422.0,0.0-25.0-1.16,2225,restaurant_21,restaurant,old,1,inside
17,1230.97,stimuli/forest/forest_1.jpg,74.0,memory_backgrounds,image-keyboard-response,1246.0,3884155.0,0.0-25.0-1.17,2225,forest_1,forest,new,1,inside
18,1090.375,stimuli/desert/desert_31.jpg,74.0,memory_backgrounds,image-keyboard-response,1248.0,3885750.0,0.0-25.0-1.18,2225,desert_31,desert,new,1,inside
19,1205.03,stimuli/restaurant/restaurant_27.jpg,74.0,memory_backgrounds,image-keyboard-response,1250.0,3887462.0,0.0-25.0-1.19,2225,restaurant_27,restaurant,new,1,inside
20,1567.08,stimuli/library/library_4.jpg,74.0,memory_backgrounds,image-keyboard-response,1252.0,3889534.0,0.0-25.0-1.20,2225,library_4,library,new,1,inside
21,1007.845,stimuli/restaurant/restaurant_1.jpg,70.0,memory_backgrounds,image-keyboard-response,1254.0,3891044.0,0.0-25.0-1.21,2225,restaurant_1,restaurant,old,1,inside
22,941.48,stimuli/library/library_2.jpg,70.0,memory_backgrounds,image-keyboard-response,1256.0,3892488.0,0.0-25.0-1.22,2225,library_2,library,new,0,inside
23,1137.64,stimuli/library/library_22.jpg,70.0,memory_backgrounds,image-keyboard-response,1258.0,3894132.0,0.0-25.0-1.23,2225,library_22,library,old,1,inside
24,1401.66,stimuli/restaurant/restaurant_14.jpg,74.0,memory_backgrounds,image-keyboard-response,1260.0,3896036.0,0.0-25.0-1.24,2225,restaurant_14,restaurant,new,1,inside
25,987.615,stimuli/restaurant/restaurant_11.jpg,70.0,memory_backgrounds,image-keyboard-response,1262.0,3897525.0,0.0-25.0-1.25,2225,restaurant_11,restaurant,old,1,inside
26,988.04,stimuli/library/library_32.jpg,74.0,memory_backgrounds,image-keyboard-response,1264.0,3899020.0,0.0-25.0-1.26,2225,library_32,library,new,1,inside
27,1180.575,stimuli/desert/desert_3.jpg,74.0,memory_backgrounds,image-keyboard-response,1266.0,3900703.0,0.0-25.0-1.27,2225,desert_3,desert,old,0,inside
28,1360.03,stimuli/restaurant/restaurant_3.jpg,74.0,memory_backgrounds,image-keyboard-response,1268.0,3902565.0,0.0-25.0-1.28,2225,restaurant_3,restaurant,new,1,inside
29,1198.62,stimuli/restaurant/restaurant_2.jpg,74.0,memory_backgrounds,image-keyboard-response,1270.0,3904267.0,0.0-25.0-1.29,2225,restaurant_2,restaurant,new,1,inside
30,861.76,stimuli/restaurant/restaurant_25.jpg,70.0,memory_backgrounds,image-keyboard-response,1272.0,3905631.0,0.0-25.0-1.30,2225,restaurant_25,restaurant,old,1,inside
31,1284.365,stimuli/desert/desert_25.jpg,74.0,memory_backgrounds,image-keyboard-response,1274.0,3907422.0,0.0-25.0-1.31,2225,desert_25,desert,old,0,inside
32,1236.7,stimuli/forest/forest_19.jpg,70.0,memory_backgrounds,image-keyboard-response,1276.0,3909164.0,0.0-25.0-1.32,2225,forest_19,forest,new,0,inside
33,1623.96,stimuli/forest/forest_29.jpg,70.0,memory_backgrounds,image-keyboard-response,1278.0,3911296.0,0.0-25.0-1.33,2225,forest_29,forest,new,0,inside
34,1041.9,stimuli/library/library_7.jpg,70.0,memory_backgrounds,image-keyboard-response,1280.0,3912844.0,0.0-25.0-1.34,2225,library_7,library,old,1,inside
35,1577.57,stimuli/library/library_31.jpg,70.0,memory_backgrounds,image-keyboard-response,1282.0,3914927.0,0.0-25.0-1.35,2225,library_31,library,new,0,inside
36,1098.86,stimuli/restaurant/restaurant_8.jpg,74.0,memory_backgrounds,image-keyboard-response,1284.0,3916532.0,0.0-25.0-1.36,2225,restaurant_8,restaurant,new,1,inside
37,943.75,stimuli/restaurant/restaurant_31.jpg,74.0,memory_backgrounds,image-keyboard-response,1286.0,3917983.0,0.0-25.0-1.37,2225,restaurant_31,restaurant,new,1,inside
38,1149.615,stimuli/desert/desert_16.jpg,70.0,memory_backgrounds,image-keyboard-response,1288.0,3919638.0,0.0-25.0-1.38,2225,desert_16,desert,new,0,inside
39,1328.07,stimuli/library/library_12.jpg,74.0,memory_backgrounds,image-keyboard-response,1290.0,3921469.0,0.0-25.0-1.39,2225,library_12,library,new,1,inside
40,1548.44,stimuli/desert/desert_7.jpg,70.0,memory_backgrounds,image-keyboard-response,1292.0,3923524.0,0.0-25.0-1.40,2225,desert_7,desert,new,0,inside
41,1093.26,stimuli/forest/forest_20.jpg,74.0,memory_backgrounds,image-keyboard-response,1294.0,3925124.0,0.0-25.0-1.41,2225,forest_20,forest,new,1,inside
42,864.23,stimuli/forest/forest_4.jpg,70.0,memory_backgrounds,image-keyboard-response,1296.0,3926495.0,0.0-25.0-1.42,2225,forest_4,forest,old,1,inside
43,1228.73,stimuli/forest/forest_21.jpg,74.0,memory_backgrounds,image-keyboard-response,1298.0,3928229.0,0.0-25.0-1.43,2225,forest_21,forest,new,1,inside
44,873.26,stimuli/library/library_8.jpg,70.0,memory_backgrounds,image-keyboard-response,1300.0,3929606.0,0.0-25.0-1.44,2225,library_8,library,old,1,inside
45,952.78,stimuli/desert/desert_15.jpg,70.0,memory_backgrounds,image-keyboard-response,1302.0,3931063.0,0.0-25.0-1.45,2225,desert_15,desert,old,1,inside
46,1081.51,stimuli/library/library_21.jpg,74.0,memory_backgrounds,image-keyboard-response,1304.0,3932647.0,0.0-25.0-1.46,2225,library_21,library,new,1,inside
47,887.82,stimuli/desert/desert_22.jpg,74.0,memory_backgrounds,image-keyboard-response,1306.0,3934039.0,0.0-25.0-1.47,2225,desert_22,desert,new,1,inside
48,792.82,stimuli/forest/forest_26.jpg,70.0,memory_backgrounds,image-keyboard-response,1308.0,3935334.0,0.0-25.0-1.48,2225,forest_26,forest,old,1,inside
49,1144.63,stimuli/forest/forest_15.jpg,70.0,memory_backgrounds,image-keyboard-response,1310.0,3936983.0,0.0-25.0-1.49,2225,forest_15,forest,old,1,inside
50,1049.25,stimuli/library/library_10.jpg,74.0,memory_backgrounds,image-keyboard-response,1312.0,3938535.0,0.0-25.0-1.50,2225,library_10,library,old,0,inside
51,1670.6,stimuli/library/library_25.jpg,74.0,memory_backgrounds,image-keyboard-response,1314.0,3940711.0,0.0-25.0-1.51,2225,library_25,library,old,0,inside
52,1345.615,stimuli/forest/forest_22.jpg,74.0,memory_backgrounds,image-keyboard-response,1316.0,3942559.0,0.0-25.0-1.52,2225,forest_22,forest,new,1,inside
53,1126.955,stimuli/forest/forest_2.jpg,70.0,memory_backgrounds,image-keyboard-response,1318.0,3944192.0,0.0-25.0-1.53,2225,forest_2,forest,old,1,inside
54,1170.275,stimuli/desert/desert_14.jpg,74.0,memory_backgrounds,image-keyboard-response,1320.0,3945867.0,0.0-25.0-1.54,2225,desert_14,desert,new,1,inside
55,852.965,stimuli/desert/desert_28.jpg,70.0,memory_backgrounds,image-keyboard-response,1322.0,3947223.0,0.0-25.0-1.55,2225,desert_28,desert,old,1,inside
56,1005.62,stimuli/desert/desert_21.jpg,74.0,memory_backgrounds,image-keyboard-response,1324.0,3948733.0,0.0-25.0-1.56,2225,desert_21,desert,new,1,inside
57,1370.99,stimuli/restaurant/restaurant_30.jpg,74.0,memory_backgrounds,image-keyboard-response,1326.0,3950608.0,0.0-25.0-1.57,2225,restaurant_30,restaurant,new,1,inside
58,994.69,stimuli/restaurant/restaurant_19.jpg,70.0,memory_backgrounds,image-keyboard-response,1328.0,3952109.0,0.0-25.0-1.58,2225,restaurant_19,restaurant,old,1,inside
59,871.845,stimuli/restaurant/restaurant_29.jpg,70.0,memory_backgrounds,image-keyboard-response,1330.0,3953487.0,0.0-25.0-1.59,2225,restaurant_29,restaurant,old,1,inside
60,767.83,stimuli/library/library_30.jpg,70.0,memory_backgrounds,image-keyboard-response,1332.0,3954756.0,0.0-25.0-1.60,2225,library_30,library,old,1,inside
61,940.125,stimuli/library/library_13.jpg,70.0,memory_backgrounds,image-keyboard-response,1334.0,3956201.0,0.0-25.0-1.61,2225,library_13,library,old,1,inside
62,1185.02,stimuli/library/library_11.jpg,74.0,memory_backgrounds,image-keyboard-response,1336.0,3957893.0,0.0-25.0-1.62,2225,library_11,library,new,1,inside
63,883.955,stimuli/restaurant/restaurant_24.jpg,70.0,memory_backgrounds,image-keyboard-response,1338.0,3959280.0,0.0-25.0-1.63,2225,restaurant_24,restaurant,new,0,inside
64,1635.14,stimuli/library/library_26.jpg,74.0,memory_backgrounds,image-keyboard-response,1340.0,3961422.0,0.0-25.0-1.64,2225,library_26,library,new,1,inside
65,1409.28,stimuli/library/library_28.jpg,74.0,memory_backgrounds,image-keyboard-response,1342.0,3963336.0,0.0-25.0-1.65,2225,library_28,library,old,0,inside
66,1508.305,stimuli/forest/forest_30.jpg,70.0,memory_backgrounds,image-keyboard-response,1344.0,3965350.0,0.0-25.0-1.66,2225,forest_30,forest,old,1,inside
67,1338.04,stimuli/restaurant/restaurant_15.jpg,74.0,memory_backgrounds,image-keyboard-response,1346.0,3967195.0,0.0-25.0-1.67,2225,restaurant_15,restaurant,old,0,inside
68,1126.53,stimuli/desert/desert_23.jpg,74.0,memory_backgrounds,image-keyboard-response,1348.0,3968824.0,0.0-25.0-1.68,2225,desert_23,desert,new,1,inside
69,1124.6,stimuli/desert/desert_24.jpg,70.0,memory_backgrounds,image-keyboard-response,1350.0,3970455.0,0.0-25.0-1.69,2225,desert_24,desert,old,1,inside
70,910.015,stimuli/library/library_18.jpg,74.0,memory_backgrounds,image-keyboard-response,1352.0,3971869.0,0.0-25.0-1.70,2225,library_18,library,new,1,inside
71,1127.02,stimuli/restaurant/restaurant_12.jpg,70.0,memory_backgrounds,image-keyboard-response,1354.0,3973502.0,0.0-25.0-1.71,2225,restaurant_12,restaurant,old,1,inside
72,1495.835,stimuli/forest/forest_18.jpg,70.0,memory_backgrounds,image-keyboard-response,1356.0,3975504.0,0.0-25.0-1.72,2225,forest_18,forest,old,1,inside
73,923.975,stimuli/restaurant/restaurant_26.jpg,74.0,memory_backgrounds,image-keyboard-response,1358.0,3976934.0,0.0-25.0-1.73,2225,restaurant_26,restaurant,new,1,inside
74,1091.685,stimuli/forest/forest_16.jpg,74.0,memory_backgrounds,image-keyboard-response,1360.0,3978529.0,0.0-25.0-1.74,2225,forest_16,forest,old,0,inside
75,1049.945,stimuli/desert/desert_30.jpg,70.0,memory_backgrounds,image-keyboard-response,1362.0,3980085.0,0.0-25.0-1.75,2225,desert_30,desert,old,1,inside
76,958.065,stimuli/library/library_6.jpg,74.0,memory_backgrounds,image-keyboard-response,1364.0,3981551.0,0.0-25.0-1.76,2225,library_6,library,new,1,inside
77,970.375,stimuli/forest/forest_31.jpg,70.0,memory_backgrounds,image-keyboard-response,1366.0,3983029.0,0.0-25.0-1.77,2225,forest_31,forest,old,1,inside
78,1336.545,stimuli/library/library_19.jpg,74.0,memory_backgrounds,image-keyboard-response,1368.0,3984870.0,0.0-25.0-1.78,2225,library_19,library,new,1,inside
79,911.55,stimuli/forest/forest_12.jpg,70.0,memory_backgrounds,image-keyboard-response,1370.0,3986288.0,0.0-25.0-1.79,2225,forest_12,forest,old,1,inside
80,1345.76,stimuli/desert/desert_13.jpg,74.0,memory_backgrounds,image-keyboard-response,1372.0,3988140.0,0.0-25.0-1.80,2225,desert_13,desert,old,0,inside
81,1343.105,stimuli/restaurant/restaurant_18.jpg,74.0,memory_backgrounds,image-keyboard-response,1374.0,3989984.0,0.0-25.0-1.81,2225,restaurant_18,restaurant,old,0,inside
82,1454.36,stimuli/restaurant/restaurant_7.jpg,70.0,memory_backgrounds,image-keyboard-response,1376.0,3991942.0,0.0-25.0-1.82,2225,restaurant_7,restaurant,old,1,inside
83,1238.95,stimuli/forest/forest_3.jpg,74.0,memory_backgrounds,image-keyboard-response,1378.0,3993685.0,0.0-25.0-1.83,2225,forest_3,forest,new,1,inside
84,1401.97,stimuli/desert/desert_26.jpg,74.0,memory_backgrounds,image-keyboard-response,1380.0,3995593.0,0.0-25.0-1.84,2225,desert_26,desert,old,0,inside
85,926.795,stimuli/library/library_1.jpg,70.0,memory_backgrounds,image-keyboard-response,1382.0,3997022.0,0.0-25.0-1.85,2225,library_1,library,old,1,inside
86,1053.13,stimuli/restaurant/restaurant_13.jpg,70.0,memory_backgrounds,image-keyboard-response,1384.0,3998577.0,0.0-25.0-1.86,2225,restaurant_13,restaurant,old,1,inside
87,1433.24,stimuli/forest/forest_11.jpg,70.0,memory_backgrounds,image-keyboard-response,1386.0,4000512.0,0.0-25.0-1.87,2225,forest_11,forest,old,1,inside
88,1532.32,stimuli/desert/desert_10.jpg,74.0,memory_backgrounds,image-keyboard-response,1388.0,4002550.0,0.0-25.0-1.88,2225,desert_10,desert,old,0,inside
89,1389.045,stimuli/desert/desert_19.jpg,74.0,memory_backgrounds,image-keyboard-response,1390.0,4004441.0,0.0-25.0-1.89,2225,desert_19,desert,new,1,inside
90,1344.21,stimuli/library/library_16.jpg,74.0,memory_backgrounds,image-keyboard-response,1392.0,4006287.0,0.0-25.0-1.90,2225,library_16,library,new,1,inside
91,875.035,stimuli/forest/forest_13.jpg,74.0,memory_backgrounds,image-keyboard-response,1394.0,4007664.0,0.0-25.0-1.91,2225,forest_13,forest,new,1,inside
92,1666.96,stimuli/forest/forest_27.jpg,74.0,memory_backgrounds,image-keyboard-response,1396.0,4009838.0,0.0-25.0-1.92,2225,forest_27,forest,new,1,inside
93,1100.425,stimuli/desert/desert_5.jpg,74.0,memory_backgrounds,image-keyboard-response,1398.0,4011441.0,0.0-25.0-1.93,2225,desert_5,desert,new,1,inside
94,1093.875,stimuli/forest/forest_10.jpg,70.0,memory_backgrounds,image-keyboard-response,1400.0,4013038.0,0.0-25.0-1.94,2225,forest_10,forest,old,1,inside
95,1104.47,stimuli/library/library_14.jpg,70.0,memory_backgrounds,image-keyboard-response,1402.0,4014648.0,0.0-25.0-1.95,2225,library_14,library,old,1,inside
96,1370.96,stimuli/desert/desert_11.jpg,74.0,memory_backgrounds,image-keyboard-response,1404.0,4016526.0,0.0-25.0-1.96,2225,desert_11,desert,new,1,inside
97,884.365,stimuli/library/library_3.jpg,74.0,memory_backgrounds,image-keyboard-response,1406.0,4017913.0,0.0-25.0-1.97,2225,library_3,library,new,1,inside
98,1754.92,stimuli/library/library_27.jpg,74.0,memory_backgrounds,image-keyboard-response,1408.0,4020174.0,0.0-25.0-1.98,2225,library_27,library,old,0,inside
99,1280.135,stimuli/restaurant/restaurant_23.jpg,74.0,memory_backgrounds,image-keyboard-response,1410.0,4021960.0,0.0-25.0-1.99,2225,restaurant_23,restaurant,new,1,inside
100,1960.15,stimuli/forest/forest_17.jpg,74.0,memory_backgrounds,image-keyboard-response,1412.0,4024423.0,0.0-25.0-1.100,2225,forest_17,forest,new,1,inside
101,864.705,stimuli/restaurant/restaurant_9.jpg,70.0,memory_backgrounds,image-keyboard-response,1414.0,4025790.0,0.0-25.0-1.101,2225,restaurant_9,restaurant,old,1,inside
102,1466.75,stimuli/restaurant/restaurant_10.jpg,70.0,memory_backgrounds,image-keyboard-response,1416.0,4027760.0,0.0-25.0-1.102,2225,restaurant_10,restaurant,old,1,inside
103,1807.325,stimuli/desert/desert_29.jpg,70.0,memory_backgrounds,image-keyboard-response,1418.0,4030070.0,0.0-25.0-1.103,2225,desert_29,desert,old,1,inside
104,1255.91,stimuli/forest/forest_25.jpg,70.0,memory_backgrounds,image-keyboard-response,1420.0,4031833.0,0.0-25.0-1.104,2225,forest_25,forest,old,1,inside
105,976.895,stimuli/forest/forest_32.jpg,70.0,memory_backgrounds,image-keyboard-response,1422.0,4033320.0,0.0-25.0-1.105,2225,forest_32,forest,new,0,inside
106,851.915,stimuli/desert/desert_2.jpg,74.0,memory_backgrounds,image-keyboard-response,1424.0,4034678.0,0.0-25.0-1.106,2225,desert_2,desert,new,1,inside
107,1718.955,stimuli/desert/desert_27.jpg,70.0,memory_backgrounds,image-keyboard-response,1426.0,4036903.0,0.0-25.0-1.107,2225,desert_27,desert,old,1,inside
108,1379.995,stimuli/desert/desert_1.jpg,70.0,memory_backgrounds,image-keyboard-response,1428.0,4038785.0,0.0-25.0-1.108,2225,desert_1,desert,old,1,inside
109,1814.505,stimuli/restaurant/restaurant_4.jpg,70.0,memory_backgrounds,image-keyboard-response,1430.0,4041103.0,0.0-25.0-1.109,2225,restaurant_4,restaurant,old,1,inside
110,960.675,stimuli/desert/desert_8.jpg,74.0,memory_backgrounds,image-keyboard-response,1432.0,4042568.0,0.0-25.0-1.110,2225,desert_8,desert,old,0,inside
111,721.82,stimuli/desert/desert_9.jpg,74.0,memory_backgrounds,image-keyboard-response,1434.0,4043792.0,0.0-25.0-1.111,2225,desert_9,desert,new,1,inside
112,1507.945,stimuli/library/library_20.jpg,74.0,memory_backgrounds,image-keyboard-response,1436.0,4045807.0,0.0-25.0-1.112,2225,library_20,library,old,0,inside
113,1827.92,stimuli/desert/desert_18.jpg,74.0,memory_backgrounds,image-keyboard-response,1438.0,4048137.0,0.0-25.0-1.113,2225,desert_18,desert,new,1,inside
114,1107.5,stimuli/restaurant/restaurant_28.jpg,74.0,memory_backgrounds,image-keyboard-response,1440.0,4049751.0,0.0-25.0-1.114,2225,restaurant_28,restaurant,new,1,inside
115,2232.555,stimuli/forest/forest_9.jpg,74.0,memory_backgrounds,image-keyboard-response,1442.0,4052490.0,0.0-25.0-1.115,2225,forest_9,forest,new,1,inside
116,1588.81,stimuli/library/library_9.jpg,74.0,memory_backgrounds,image-keyboard-response,1444.0,4054584.0,0.0-25.0-1.116,2225,library_9,library,new,1,inside
117,2387.83,stimuli/restaurant/restaurant_16.jpg,74.0,memory_backgrounds,image-keyboard-response,1446.0,4057474.0,0.0-25.0-1.117,2225,restaurant_16,restaurant,old,0,inside
118,1059.955,stimuli/forest/forest_28.jpg,70.0,memory_backgrounds,image-keyboard-response,1448.0,4059039.0,0.0-25.0-1.118,2225,forest_28,forest,new,0,inside
119,1216.28,stimuli/desert/desert_12.jpg,70.0,memory_backgrounds,image-keyboard-response,1450.0,4060761.0,0.0-25.0-1.119,2225,desert_12,desert,new,0,inside
120,952.8,stimuli/desert/desert_32.jpg,74.0,memory_backgrounds,image-keyboard-response,1452.0,4062216.0,0.0-25.0-1.120,2225,desert_32,desert,old,0,inside
121,1350.11,stimuli/forest/forest_7.jpg,74.0,memory_backgrounds,image-keyboard-response,1454.0,4064073.0,0.0-25.0-1.121,2225,forest_7,forest,new,1,inside
122,1115.47,stimuli/forest/forest_23.jpg,70.0,memory_backgrounds,image-keyboard-response,1456.0,4065695.0,0.0-25.0-1.122,2225,forest_23,forest,old,1,inside
123,1405.035,stimuli/forest/forest_24.jpg,70.0,memory_backgrounds,image-keyboard-response,1458.0,4067603.0,0.0-25.0-1.123,2225,forest_24,forest,old,1,inside
124,1323.655,stimuli/desert/desert_6.jpg,70.0,memory_backgrounds,image-keyboard-response,1460.0,4069433.0,0.0-25.0-1.124,2225,desert_6,desert,old,1,inside
125,1410.895,stimuli/restaurant/restaurant_22.jpg,70.0,memory_backgrounds,image-keyboard-response,1462.0,4071346.0,0.0-25.0-1.125,2225,restaurant_22,restaurant,new,0,inside
126,1714.4,stimuli/restaurant/restaurant_20.jpg,74.0,memory_backgrounds,image-keyboard-response,1464.0,4073566.0,0.0-25.0-1.126,2225,restaurant_20,restaurant,new,1,inside
127,1251.78,stimuli/forest/forest_8.jpg,70.0,memory_backgrounds,image-keyboard-response,1466.0,4075322.0,0.0-25.0-1.127,2225,forest_8,forest,old,1,inside
0,,stimuli/desert/desert_18.jpg,,memory_backgrounds,image-keyboard-response,1211.0,4531625.0,0.0-25.0-1.0,4192,desert_18,desert,new,0,outside
1,2450.745,stimuli/forest/forest_14.jpg,70.0,memory_backgrounds,image-keyboard-response,1213.0,4534582.0,0.0-25.0-1.1,4192,forest_14,forest,old,1,outside
2,1427.115,stimuli/desert/desert_3.jpg,74.0,memory_backgrounds,image-keyboard-response,1215.0,4536516.0,0.0-25.0-1.2,4192,desert_3,desert,new,1,outside
3,,stimuli/restaurant/restaurant_22.jpg,,memory_backgrounds,image-keyboard-response,1217.0,4539525.0,0.0-25.0-1.3,4192,restaurant_22,restaurant,old,0,outside
4,,stimuli/library/library_22.jpg,,memory_backgrounds,image-keyboard-response,1219.0,4542538.0,0.0-25.0-1.4,4192,library_22,library,old,0,outside
5,,stimuli/library/library_3.jpg,,memory_backgrounds,image-keyboard-response,1221.0,4545548.0,0.0-25.0-1.5,4192,library_3,library,new,0,outside
6,,stimuli/desert/desert_24.jpg,,memory_backgrounds,image-keyboard-response,1223.0,4548559.0,0.0-25.0-1.6,4192,desert_24,desert,new,0,outside
7,1159.33,stimuli/forest/forest_16.jpg,70.0,memory_backgrounds,image-keyboard-response,1225.0,4550224.0,0.0-25.0-1.7,4192,forest_16,forest,new,0,outside
8,829.565,stimuli/restaurant/restaurant_4.jpg,74.0,memory_backgrounds,image-keyboard-response,1227.0,4551560.0,0.0-25.0-1.8,4192,restaurant_4,restaurant,old,0,outside
9,711.455,stimuli/library/library_21.jpg,70.0,memory_backgrounds,image-keyboard-response,1229.0,4552774.0,0.0-25.0-1.9,4192,library_21,library,old,1,outside
10,1546.895,stimuli/desert/desert_19.jpg,70.0,memory_backgrounds,image-keyboard-response,1231.0,4554826.0,0.0-25.0-1.10,4192,desert_19,desert,old,1,outside
11,1508.8,stimuli/desert/desert_16.jpg,70.0,memory_backgrounds,image-keyboard-response,1233.0,4556841.0,0.0-25.0-1.11,4192,desert_16,desert,old,1,outside
12,1397.66,stimuli/restaurant/restaurant_20.jpg,74.0,memory_backgrounds,image-keyboard-response,1235.0,4558745.0,0.0-25.0-1.12,4192,restaurant_20,restaurant,new,1,outside
13,890.495,stimuli/forest/forest_30.jpg,74.0,memory_backgrounds,image-keyboard-response,1237.0,4560138.0,0.0-25.0-1.13,4192,forest_30,forest,new,1,outside
14,953.885,stimuli/restaurant/restaurant_28.jpg,74.0,memory_backgrounds,image-keyboard-response,1239.0,4561598.0,0.0-25.0-1.14,4192,restaurant_28,restaurant,new,1,outside
15,1141.93,stimuli/forest/forest_20.jpg,70.0,memory_backgrounds,image-keyboard-response,1241.0,4563246.0,0.0-25.0-1.15,4192,forest_20,forest,old,1,outside
16,1017.92,stimuli/desert/desert_26.jpg,74.0,memory_backgrounds,image-keyboard-response,1243.0,4564767.0,0.0-25.0-1.16,4192,desert_26,desert,new,1,outside
17,1186.635,stimuli/restaurant/restaurant_9.jpg,70.0,memory_backgrounds,image-keyboard-response,1245.0,4566459.0,0.0-25.0-1.17,4192,restaurant_9,restaurant,old,1,outside
18,762.025,stimuli/restaurant/restaurant_8.jpg,70.0,memory_backgrounds,image-keyboard-response,1247.0,4567725.0,0.0-25.0-1.18,4192,restaurant_8,restaurant,old,1,outside
19,1129.805,stimuli/desert/desert_6.jpg,74.0,memory_backgrounds,image-keyboard-response,1249.0,4569358.0,0.0-25.0-1.19,4192,desert_6,desert,old,0,outside
20,1014.455,stimuli/forest/forest_1.jpg,74.0,memory_backgrounds,image-keyboard-response,1251.0,4570877.0,0.0-25.0-1.20,4192,forest_1,forest,new,1,outside
21,940.61,stimuli/forest/forest_11.jpg,74.0,memory_backgrounds,image-keyboard-response,1253.0,4572322.0,0.0-25.0-1.21,4192,forest_11,forest,old,0,outside
22,1090.1,stimuli/restaurant/restaurant_26.jpg,70.0,memory_backgrounds,image-keyboard-response,1255.0,4573919.0,0.0-25.0-1.22,4192,restaurant_26,restaurant,new,0,outside
23,1050.005,stimuli/forest/forest_9.jpg,74.0,memory_backgrounds,image-keyboard-response,1257.0,4575476.0,0.0-25.0-1.23,4192,forest_9,forest,new,1,outside
24,916.655,stimuli/desert/desert_10.jpg,70.0,memory_backgrounds,image-keyboard-response,1259.0,4576896.0,0.0-25.0-1.24,4192,desert_10,desert,old,1,outside
25,940.23,stimuli/library/library_28.jpg,70.0,memory_backgrounds,image-keyboard-response,1261.0,4578340.0,0.0-25.0-1.25,4192,library_28,library,new,0,outside
26,811.375,stimuli/forest/forest_25.jpg,70.0,memory_backgrounds,image-keyboard-response,1263.0,4579657.0,0.0-25.0-1.26,4192,forest_25,forest,old,1,outside
27,888.865,stimuli/library/library_2.jpg,70.0,memory_backgrounds,image-keyboard-response,1265.0,4581052.0,0.0-25.0-1.27,4192,library_2,library,old,1,outside
28,1011.09,stimuli/library/library_8.jpg,70.0,memory_backgrounds,image-keyboard-response,1267.0,4582570.0,0.0-25.0-1.28,4192,library_8,library,new,0,outside
29,809.69,stimuli/restaurant/restaurant_11.jpg,70.0,memory_backgrounds,image-keyboard-response,1269.0,4583883.0,0.0-25.0-1.29,4192,restaurant_11,restaurant,new,0,outside
30,993.805,stimuli/forest/forest_32.jpg,70.0,memory_backgrounds,image-keyboard-response,1271.0,4585386.0,0.0-25.0-1.30,4192,forest_32,forest,new,0,outside
31,1186.87,stimuli/forest/forest_24.jpg,70.0,memory_backgrounds,image-keyboard-response,1273.0,4587076.0,0.0-25.0-1.31,4192,forest_24,forest,old,1,outside
32,1332.235,stimuli/desert/desert_23.jpg,74.0,memory_backgrounds,image-keyboard-response,1275.0,4588916.0,0.0-25.0-1.32,4192,desert_23,desert,new,1,outside
33,1035.08,stimuli/forest/forest_22.jpg,74.0,memory_backgrounds,image-keyboard-response,1277.0,4590457.0,0.0-25.0-1.33,4192,forest_22,forest,new,1,outside
34,1295.27,stimuli/forest/forest_12.jpg,74.0,memory_backgrounds,image-keyboard-response,1279.0,4592258.0,0.0-25.0-1.34,4192,forest_12,forest,old,0,outside
35,1123.36,stimuli/forest/forest_3.jpg,74.0,memory_backgrounds,image-keyboard-response,1281.0,4593886.0,0.0-25.0-1.35,4192,forest_3,forest,old,0,outside
36,749.845,stimuli/library/library_13.jpg,70.0,memory_backgrounds,image-keyboard-response,1283.0,4595142.0,0.0-25.0-1.36,4192,library_13,library,old,1,outside
37,814.365,stimuli/desert/desert_12.jpg,70.0,memory_backgrounds,image-keyboard-response,1285.0,4596463.0,0.0-25.0-1.37,4192,desert_12,desert,old,1,outside
38,975.595,stimuli/restaurant/restaurant_18.jpg,70.0,memory_backgrounds,image-keyboard-response,1287.0,4597944.0,0.0-25.0-1.38,4192,restaurant_18,restaurant,old,1,outside
39,1156.3,stimuli/library/library_11.jpg,70.0,memory_backgrounds,image-keyboard-response,1289.0,4599603.0,0.0-25.0-1.39,4192,library_11,library,old,1,outside
40,908.09,stimuli/forest/forest_27.jpg,70.0,memory_backgrounds,image-keyboard-response,1291.0,4601020.0,0.0-25.0-1.40,4192,forest_27,forest,new,0,outside
41,1139.765,stimuli/library/library_14.jpg,74.0,memory_backgrounds,image-keyboard-response,1293.0,4602666.0,0.0-25.0-1.41,4192,library_14,library,old,0,outside
42,1271.98,stimuli/restaurant/restaurant_17.jpg,70.0,memory_backgrounds,image-keyboard-response,1295.0,4604445.0,0.0-25.0-1.42,4192,restaurant_17,restaurant,new,0,outside
43,1025.25,stimuli/library/library_7.jpg,70.0,memory_backgrounds,image-keyboard-response,1297.0,4605974.0,0.0-25.0-1.43,4192,library_7,library,new,0,outside
44,1239.22,stimuli/desert/desert_21.jpg,74.0,memory_backgrounds,image-keyboard-response,1299.0,4607717.0,0.0-25.0-1.44,4192,desert_21,desert,old,0,outside
45,964.49,stimuli/desert/desert_7.jpg,74.0,memory_backgrounds,image-keyboard-response,1301.0,4609189.0,0.0-25.0-1.45,4192,desert_7,desert,new,1,outside
46,925.545,stimuli/desert/desert_32.jpg,70.0,memory_backgrounds,image-keyboard-response,1303.0,4610621.0,0.0-25.0-1.46,4192,desert_32,desert,new,0,outside
47,1171.7,stimuli/library/library_24.jpg,70.0,memory_backgrounds,image-keyboard-response,1305.0,4612299.0,0.0-25.0-1.47,4192,library_24,library,new,0,outside
48,1190.18,stimuli/restaurant/restaurant_32.jpg,74.0,memory_backgrounds,image-keyboard-response,1307.0,4613992.0,0.0-25.0-1.48,4192,restaurant_32,restaurant,old,0,outside
49,1140.64,stimuli/desert/desert_20.jpg,70.0,memory_backgrounds,image-keyboard-response,1309.0,4615636.0,0.0-25.0-1.49,4192,desert_20,desert,old,1,outside
50,1437.875,stimuli/library/library_4.jpg,70.0,memory_backgrounds,image-keyboard-response,1311.0,4617577.0,0.0-25.0-1.50,4192,library_4,library,old,1,outside
51,1450.96,stimuli/restaurant/restaurant_19.jpg,70.0,memory_backgrounds,image-keyboard-response,1313.0,4619534.0,0.0-25.0-1.51,4192,restaurant_19,restaurant,old,1,outside
52,1186.06,stimuli/restaurant/restaurant_21.jpg,70.0,memory_backgrounds,image-keyboard-response,1315.0,4621227.0,0.0-25.0-1.52,4192,restaurant_21,restaurant,old,1,outside
53,1194.14,stimuli/desert/desert_17.jpg,70.0,memory_backgrounds,image-keyboard-response,1317.0,4622927.0,0.0-25.0-1.53,4192,desert_17,desert,new,0,outside
54,1146.735,stimuli/forest/forest_8.jpg,74.0,memory_backgrounds,image-keyboard-response,1319.0,4624581.0,0.0-25.0-1.54,4192,forest_8,forest,new,1,outside
55,1242.35,stimuli/desert/desert_1.jpg,74.0,memory_backgrounds,image-keyboard-response,1321.0,4626326.0,0.0-25.0-1.55,4192,desert_1,desert,new,1,outside
56,1047.58,stimuli/restaurant/restaurant_5.jpg,70.0,memory_backgrounds,image-keyboard-response,1323.0,4627880.0,0.0-25.0-1.56,4192,restaurant_5,restaurant,new,0,outside
57,1066.495,stimuli/library/library_12.jpg,70.0,memory_backgrounds,image-keyboard-response,1325.0,4629450.0,0.0-25.0-1.57,4192,library_12,library,new,0,outside
58,1638.27,stimuli/forest/forest_28.jpg,70.0,memory_backgrounds,image-keyboard-response,1327.0,4631596.0,0.0-25.0-1.58,4192,forest_28,forest,new,0,outside
59,1049.26,stimuli/forest/forest_17.jpg,74.0,memory_backgrounds,image-keyboard-response,1329.0,4633148.0,0.0-25.0-1.59,4192,forest_17,forest,old,0,outside
60,991.825,stimuli/desert/desert_25.jpg,74.0,memory_backgrounds,image-keyboard-response,1331.0,4634647.0,0.0-25.0-1.60,4192,desert_25,desert,new,1,outside
61,972.375,stimuli/library/library_9.jpg,74.0,memory_backgrounds,image-keyboard-response,1333.0,4636126.0,0.0-25.0-1.61,4192,library_9,library,old,0,outside
62,1078.705,stimuli/restaurant/restaurant_10.jpg,74.0,memory_backgrounds,image-keyboard-response,1335.0,4637708.0,0.0-25.0-1.62,4192,restaurant_10,restaurant,old,0,outside
63,997.735,stimuli/forest/forest_13.jpg,74.0,memory_backgrounds,image-keyboard-response,1337.0,4639209.0,0.0-25.0-1.63,4192,forest_13,forest,old,0,outside
64,774.075,stimuli/forest/forest_15.jpg,74.0,memory_backgrounds,image-keyboard-response,1339.0,4640486.0,0.0-25.0-1.64,4192,forest_15,forest,old,0,outside
65,1401.125,stimuli/restaurant/restaurant_27.jpg,74.0,memory_backgrounds,image-keyboard-response,1341.0,4642394.0,0.0-25.0-1.65,4192,restaurant_27,restaurant,new,1,outside
66,812.845,stimuli/desert/desert_4.jpg,74.0,memory_backgrounds,image-keyboard-response,1343.0,4643709.0,0.0-25.0-1.66,4192,desert_4,desert,old,0,outside
67,1350.255,stimuli/library/library_26.jpg,74.0,memory_backgrounds,image-keyboard-response,1345.0,4645565.0,0.0-25.0-1.67,4192,library_26,library,new,1,outside
68,1619.245,stimuli/library/library_23.jpg,74.0,memory_backgrounds,image-keyboard-response,1347.0,4647691.0,0.0-25.0-1.68,4192,library_23,library,new,1,outside
69,1288.045,stimuli/forest/forest_29.jpg,74.0,memory_backgrounds,image-keyboard-response,1349.0,4649484.0,0.0-25.0-1.69,4192,forest_29,forest,old,0,outside
70,783.78,stimuli/forest/forest_26.jpg,70.0,memory_backgrounds,image-keyboard-response,1351.0,4650772.0,0.0-25.0-1.70,4192,forest_26,forest,old,1,outside
71,927.43,stimuli/library/library_29.jpg,74.0,memory_backgrounds,image-keyboard-response,1353.0,4652205.0,0.0-25.0-1.71,4192,library_29,library,old,0,outside
72,1460.485,stimuli/library/library_10.jpg,74.0,memory_backgrounds,image-keyboard-response,1355.0,4654172.0,0.0-25.0-1.72,4192,library_10,library,new,1,outside
73,1258.145,stimuli/restaurant/restaurant_15.jpg,70.0,memory_backgrounds,image-keyboard-response,1357.0,4655935.0,0.0-25.0-1.73,4192,restaurant_15,restaurant,old,1,outside
74,886.26,stimuli/desert/desert_8.jpg,74.0,memory_backgrounds,image-keyboard-response,1359.0,4657328.0,0.0-25.0-1.74,4192,desert_8,desert,old,0,outside
75,990.885,stimuli/library/library_19.jpg,70.0,memory_backgrounds,image-keyboard-response,1361.0,4658824.0,0.0-25.0-1.75,4192,library_19,library,new,0,outside
76,1184.515,stimuli/library/library_27.jpg,74.0,memory_backgrounds,image-keyboard-response,1363.0,4660511.0,0.0-25.0-1.76,4192,library_27,library,old,0,outside
77,922.44,stimuli/library/library_32.jpg,74.0,memory_backgrounds,image-keyboard-response,1365.0,4661940.0,0.0-25.0-1.77,4192,library_32,library,old,0,outside
78,1559.08,stimuli/library/library_15.jpg,74.0,memory_backgrounds,image-keyboard-response,1367.0,4664003.0,0.0-25.0-1.78,4192,library_15,library,old,0,outside
79,2418.095,stimuli/restaurant/restaurant_3.jpg,70.0,memory_backgrounds,image-keyboard-response,1369.0,4666927.0,0.0-25.0-1.79,4192,restaurant_3,restaurant,old,1,outside
80,971.5,stimuli/library/library_6.jpg,74.0,memory_backgrounds,image-keyboard-response,1371.0,4668406.0,0.0-25.0-1.80,4192,library_6,library,old,0,outside
81,1082.38,stimuli/desert/desert_2.jpg,74.0,memory_backgrounds,image-keyboard-response,1373.0,4669992.0,0.0-25.0-1.81,4192,desert_2,desert,new,1,outside
82,1016.095,stimuli/forest/forest_7.jpg,70.0,memory_backgrounds,image-keyboard-response,1375.0,4671512.0,0.0-25.0-1.82,4192,forest_7,forest,old,1,outside
83,775.995,stimuli/library/library_18.jpg,74.0,memory_backgrounds,image-keyboard-response,1377.0,4672792.0,0.0-25.0-1.83,4192,library_18,library,new,1,outside
84,525.945,stimuli/restaurant/restaurant_7.jpg,74.0,memory_backgrounds,image-keyboard-response,1379.0,4673822.0,0.0-25.0-1.84,4192,restaurant_7,restaurant,old,0,outside
85,63.58000002,stimuli/library/library_17.jpg,74.0,memory_backgrounds,image-keyboard-response,1381.0,4674390.0,0.0-25.0-1.85,4192,library_17,library,new,1,outside
86,32.86000003,stimuli/restaurant/restaurant_2.jpg,74.0,memory_backgrounds,image-keyboard-response,1383.0,4674926.0,0.0-25.0-1.86,4192,restaurant_2,restaurant,old,0,outside
87,31.81499999,stimuli/restaurant/restaurant_12.jpg,74.0,memory_backgrounds,image-keyboard-response,1385.0,4675465.0,0.0-25.0-1.87,4192,restaurant_12,restaurant,new,1,outside
88,57.745,stimuli/forest/forest_2.jpg,74.0,memory_backgrounds,image-keyboard-response,1387.0,4676027.0,0.0-25.0-1.88,4192,forest_2,forest,old,0,outside
89,81.11500001,stimuli/forest/forest_4.jpg,74.0,memory_backgrounds,image-keyboard-response,1389.0,4676615.0,0.0-25.0-1.89,4192,forest_4,forest,new,1,outside
90,78.03500001,stimuli/forest/forest_10.jpg,74.0,memory_backgrounds,image-keyboard-response,1391.0,4677201.0,0.0-25.0-1.90,4192,forest_10,forest,new,1,outside
91,71.37999998,stimuli/desert/desert_5.jpg,74.0,memory_backgrounds,image-keyboard-response,1393.0,4677779.0,0.0-25.0-1.91,4192,desert_5,desert,old,0,outside
92,86.18000004,stimuli/desert/desert_28.jpg,74.0,memory_backgrounds,image-keyboard-response,1395.0,4678368.0,0.0-25.0-1.92,4192,desert_28,desert,new,1,outside
93,91.08500002,stimuli/forest/forest_31.jpg,74.0,memory_backgrounds,image-keyboard-response,1397.0,4678968.0,0.0-25.0-1.93,4192,forest_31,forest,new,1,outside
94,89.71499995,stimuli/library/library_20.jpg,74.0,memory_backgrounds,image-keyboard-response,1399.0,4679561.0,0.0-25.0-1.94,4192,library_20,library,new,1,outside
95,18.13500002,stimuli/forest/forest_21.jpg,70.0,memory_backgrounds,image-keyboard-response,1401.0,4680083.0,0.0-25.0-1.95,4192,forest_21,forest,new,0,outside
96,31.38,stimuli/restaurant/restaurant_29.jpg,74.0,memory_backgrounds,image-keyboard-response,1403.0,4680619.0,0.0-25.0-1.96,4192,restaurant_29,restaurant,new,1,outside
97,123.625,stimuli/restaurant/restaurant_25.jpg,74.0,memory_backgrounds,image-keyboard-response,1405.0,4681247.0,0.0-25.0-1.97,4192,restaurant_25,restaurant,new,1,outside
98,64.915,stimuli/desert/desert_30.jpg,70.0,memory_backgrounds,image-keyboard-response,1407.0,4681816.0,0.0-25.0-1.98,4192,desert_30,desert,old,1,outside
99,7.924999982999999,stimuli/forest/forest_5.jpg,70.0,memory_backgrounds,image-keyboard-response,1409.0,4682330.0,0.0-25.0-1.99,4192,forest_5,forest,old,1,outside
100,78.58999999,stimuli/library/library_1.jpg,74.0,memory_backgrounds,image-keyboard-response,1411.0,4682912.0,0.0-25.0-1.100,4192,library_1,library,old,0,outside
101,33.74500002,stimuli/library/library_25.jpg,74.0,memory_backgrounds,image-keyboard-response,1413.0,4683451.0,0.0-25.0-1.101,4192,library_25,library,old,0,outside
102,29.48999999,stimuli/desert/desert_22.jpg,74.0,memory_backgrounds,image-keyboard-response,1415.0,4683985.0,0.0-25.0-1.102,4192,desert_22,desert,old,0,outside
103,13.13000004,stimuli/desert/desert_9.jpg,74.0,memory_backgrounds,image-keyboard-response,1417.0,4684506.0,0.0-25.0-1.103,4192,desert_9,desert,old,0,outside
104,1.935000008,stimuli/desert/desert_15.jpg,74.0,memory_backgrounds,image-keyboard-response,1419.0,4685014.0,0.0-25.0-1.104,4192,desert_15,desert,new,1,outside
105,165.04,stimuli/desert/desert_14.jpg,70.0,memory_backgrounds,image-keyboard-response,1421.0,4685683.0,0.0-25.0-1.105,4192,desert_14,desert,old,1,outside
106,9.170000032999999,stimuli/forest/forest_18.jpg,70.0,memory_backgrounds,image-keyboard-response,1423.0,4686196.0,0.0-25.0-1.106,4192,forest_18,forest,new,0,outside
107,35.37,stimuli/library/library_31.jpg,70.0,memory_backgrounds,image-keyboard-response,1425.0,4686740.0,0.0-25.0-1.107,4192,library_31,library,new,0,outside
108,27.795,stimuli/restaurant/restaurant_24.jpg,74.0,memory_backgrounds,image-keyboard-response,1427.0,4687275.0,0.0-25.0-1.108,4192,restaurant_24,restaurant,new,1,outside
109,177.98,stimuli/desert/desert_27.jpg,74.0,memory_backgrounds,image-keyboard-response,1429.0,4687959.0,0.0-25.0-1.109,4192,desert_27,desert,new,1,outside
110,84.5,stimuli/restaurant/restaurant_6.jpg,74.0,memory_backgrounds,image-keyboard-response,1431.0,4688552.0,0.0-25.0-1.110,4192,restaurant_6,restaurant,new,1,outside
111,42.25,stimuli/restaurant/restaurant_16.jpg,74.0,memory_backgrounds,image-keyboard-response,1433.0,4689098.0,0.0-25.0-1.111,4192,restaurant_16,restaurant,old,0,outside
112,19.10500001,stimuli/forest/forest_19.jpg,74.0,memory_backgrounds,image-keyboard-response,1435.0,4689625.0,0.0-25.0-1.112,4192,forest_19,forest,new,1,outside
113,54.84,stimuli/desert/desert_29.jpg,74.0,memory_backgrounds,image-keyboard-response,1437.0,4690188.0,0.0-25.0-1.113,4192,desert_29,desert,old,0,outside
114,38.35499997,stimuli/library/library_5.jpg,74.0,memory_backgrounds,image-keyboard-response,1439.0,4690730.0,0.0-25.0-1.114,4192,library_5,library,old,0,outside
115,327.095,stimuli/restaurant/restaurant_31.jpg,74.0,memory_backgrounds,image-keyboard-response,1441.0,4691562.0,0.0-25.0-1.115,4192,restaurant_31,restaurant,new,1,outside
116,153.72,stimuli/restaurant/restaurant_30.jpg,74.0,memory_backgrounds,image-keyboard-response,1443.0,4692219.0,0.0-25.0-1.116,4192,restaurant_30,restaurant,new,1,outside
117,38.01999998,stimuli/desert/desert_13.jpg,74.0,memory_backgrounds,image-keyboard-response,1445.0,4692764.0,0.0-25.0-1.117,4192,desert_13,desert,new,1,outside
118,169.665,stimuli/forest/forest_23.jpg,74.0,memory_backgrounds,image-keyboard-response,1447.0,4693442.0,0.0-25.0-1.118,4192,forest_23,forest,new,1,outside
119,100.365,stimuli/library/library_16.jpg,74.0,memory_backgrounds,image-keyboard-response,1449.0,4694046.0,0.0-25.0-1.119,4192,library_16,library,new,1,outside
120,78.63500004,stimuli/restaurant/restaurant_13.jpg,74.0,memory_backgrounds,image-keyboard-response,1451.0,4694630.0,0.0-25.0-1.120,4192,restaurant_13,restaurant,new,1,outside
121,60.69499999,stimuli/restaurant/restaurant_14.jpg,74.0,memory_backgrounds,image-keyboard-response,1453.0,4695195.0,0.0-25.0-1.121,4192,restaurant_14,restaurant,old,0,outside
122,82.1,stimuli/restaurant/restaurant_23.jpg,70.0,memory_backgrounds,image-keyboard-response,1455.0,4695783.0,0.0-25.0-1.122,4192,restaurant_23,restaurant,old,1,outside
123,83.75500003,stimuli/restaurant/restaurant_1.jpg,70.0,memory_backgrounds,image-keyboard-response,1457.0,4696369.0,0.0-25.0-1.123,4192,restaurant_1,restaurant,new,0,outside
124,135.315,stimuli/desert/desert_11.jpg,70.0,memory_backgrounds,image-keyboard-response,1459.0,4697011.0,0.0-25.0-1.124,4192,desert_11,desert,new,0,outside
125,215.525,stimuli/library/library_30.jpg,70.0,memory_backgrounds,image-keyboard-response,1461.0,4697729.0,0.0-25.0-1.125,4192,library_30,library,new,0,outside
126,163.895,stimuli/forest/forest_6.jpg,74.0,memory_backgrounds,image-keyboard-response,1463.0,4698397.0,0.0-25.0-1.126,4192,forest_6,forest,old,0,outside
127,114.795,stimuli/desert/desert_31.jpg,74.0,memory_backgrounds,image-keyboard-response,1465.0,4699018.0,0.0-25.0-1.127,4192,desert_31,desert,old,0,outside
0,2439.68,stimuli/library/library_31.jpg,74.0,memory_backgrounds,image-keyboard-response,1211.0,18788733.0,0.0-25.0-1.0,4281,library_31,library,new,1,inside
1,1273.005,stimuli/forest/forest_23.jpg,74.0,memory_backgrounds,image-keyboard-response,1213.0,18790517.0,0.0-25.0-1.1,4281,forest_23,forest,new,1,inside
2,1608.11,stimuli/library/library_18.jpg,70.0,memory_backgrounds,image-keyboard-response,1215.0,18792634.0,0.0-25.0-1.2,4281,library_18,library,old,1,inside
3,837.73,stimuli/desert/desert_27.jpg,70.0,memory_backgrounds,image-keyboard-response,1217.0,18793983.0,0.0-25.0-1.3,4281,desert_27,desert,old,1,inside
4,1684.685,stimuli/desert/desert_5.jpg,74.0,memory_backgrounds,image-keyboard-response,1219.0,18796181.0,0.0-25.0-1.4,4281,desert_5,desert,old,0,inside
5,1208.76,stimuli/desert/desert_24.jpg,70.0,memory_backgrounds,image-keyboard-response,1221.0,18797901.0,0.0-25.0-1.5,4281,desert_24,desert,new,0,inside
6,1717.325,stimuli/desert/desert_31.jpg,70.0,memory_backgrounds,image-keyboard-response,1223.0,18800128.0,0.0-25.0-1.6,4281,desert_31,desert,old,1,inside
7,1527.505,stimuli/library/library_7.jpg,70.0,memory_backgrounds,image-keyboard-response,1225.0,18802168.0,0.0-25.0-1.7,4281,library_7,library,old,1,inside
8,1071.53,stimuli/forest/forest_2.jpg,74.0,memory_backgrounds,image-keyboard-response,1227.0,18803746.0,0.0-25.0-1.8,4281,forest_2,forest,old,0,inside
9,1661.81,stimuli/forest/forest_13.jpg,70.0,memory_backgrounds,image-keyboard-response,1229.0,18805926.0,0.0-25.0-1.9,4281,forest_13,forest,new,0,inside
10,1160.27,stimuli/library/library_14.jpg,74.0,memory_backgrounds,image-keyboard-response,1231.0,18807592.0,0.0-25.0-1.10,4281,library_14,library,old,0,inside
11,929.225,stimuli/library/library_6.jpg,70.0,memory_backgrounds,image-keyboard-response,1233.0,18809044.0,0.0-25.0-1.11,4281,library_6,library,new,0,inside
12,966.735,stimuli/desert/desert_6.jpg,74.0,memory_backgrounds,image-keyboard-response,1235.0,18810524.0,0.0-25.0-1.12,4281,desert_6,desert,new,1,inside
13,1053.815,stimuli/forest/forest_16.jpg,74.0,memory_backgrounds,image-keyboard-response,1237.0,18812086.0,0.0-25.0-1.13,4281,forest_16,forest,new,1,inside
14,1283.045,stimuli/restaurant/restaurant_6.jpg,74.0,memory_backgrounds,image-keyboard-response,1239.0,18813881.0,0.0-25.0-1.14,4281,restaurant_6,restaurant,new,1,inside
15,932.74,stimuli/restaurant/restaurant_32.jpg,70.0,memory_backgrounds,image-keyboard-response,1241.0,18815325.0,0.0-25.0-1.15,4281,restaurant_32,restaurant,new,0,inside
16,1178.18,stimuli/restaurant/restaurant_16.jpg,74.0,memory_backgrounds,image-keyboard-response,1243.0,18817034.0,0.0-25.0-1.16,4281,restaurant_16,restaurant,old,0,inside
17,1576.675,stimuli/restaurant/restaurant_27.jpg,70.0,memory_backgrounds,image-keyboard-response,1245.0,18819128.0,0.0-25.0-1.17,4281,restaurant_27,restaurant,old,1,inside
18,2085.895,stimuli/forest/forest_21.jpg,70.0,memory_backgrounds,image-keyboard-response,1247.0,18821721.0,0.0-25.0-1.18,4281,forest_21,forest,new,0,inside
19,679.975,stimuli/forest/forest_5.jpg,74.0,memory_backgrounds,image-keyboard-response,1249.0,18822920.0,0.0-25.0-1.19,4281,forest_5,forest,new,1,inside
20,1694.605,stimuli/library/library_26.jpg,74.0,memory_backgrounds,image-keyboard-response,1251.0,18825131.0,0.0-25.0-1.20,4281,library_26,library,new,1,inside
21,767.78,stimuli/restaurant/restaurant_18.jpg,70.0,memory_backgrounds,image-keyboard-response,1253.0,18826412.0,0.0-25.0-1.21,4281,restaurant_18,restaurant,old,1,inside
22,847.645,stimuli/library/library_16.jpg,70.0,memory_backgrounds,image-keyboard-response,1255.0,18827768.0,0.0-25.0-1.22,4281,library_16,library,new,0,inside
23,1181.92,stimuli/forest/forest_3.jpg,74.0,memory_backgrounds,image-keyboard-response,1257.0,18829462.0,0.0-25.0-1.23,4281,forest_3,forest,new,1,inside
24,1471.73,stimuli/restaurant/restaurant_5.jpg,74.0,memory_backgrounds,image-keyboard-response,1259.0,18831446.0,0.0-25.0-1.24,4281,restaurant_5,restaurant,old,0,inside
25,939.965,stimuli/restaurant/restaurant_10.jpg,70.0,memory_backgrounds,image-keyboard-response,1261.0,18832905.0,0.0-25.0-1.25,4281,restaurant_10,restaurant,old,1,inside
26,784.83,stimuli/library/library_22.jpg,70.0,memory_backgrounds,image-keyboard-response,1263.0,18834197.0,0.0-25.0-1.26,4281,library_22,library,old,1,inside
27,1574.655,stimuli/forest/forest_20.jpg,70.0,memory_backgrounds,image-keyboard-response,1265.0,18836276.0,0.0-25.0-1.27,4281,forest_20,forest,old,1,inside
28,1052.225,stimuli/restaurant/restaurant_21.jpg,74.0,memory_backgrounds,image-keyboard-response,1267.0,18837849.0,0.0-25.0-1.28,4281,restaurant_21,restaurant,old,0,inside
29,1937.48,stimuli/desert/desert_19.jpg,70.0,memory_backgrounds,image-keyboard-response,1269.0,18840293.0,0.0-25.0-1.29,4281,desert_19,desert,old,1,inside
30,903.55,stimuli/library/library_5.jpg,70.0,memory_backgrounds,image-keyboard-response,1271.0,18841717.0,0.0-25.0-1.30,4281,library_5,library,new,0,inside
31,882.07,stimuli/library/library_23.jpg,70.0,memory_backgrounds,image-keyboard-response,1273.0,18843115.0,0.0-25.0-1.31,4281,library_23,library,old,1,inside
32,836.125,stimuli/library/library_10.jpg,74.0,memory_backgrounds,image-keyboard-response,1275.0,18844456.0,0.0-25.0-1.32,4281,library_10,library,new,1,inside
33,658.58,stimuli/restaurant/restaurant_29.jpg,74.0,memory_backgrounds,image-keyboard-response,1277.0,18845620.0,0.0-25.0-1.33,4281,restaurant_29,restaurant,new,1,inside
34,748.56,stimuli/forest/forest_11.jpg,74.0,memory_backgrounds,image-keyboard-response,1279.0,18846879.0,0.0-25.0-1.34,4281,forest_11,forest,old,0,inside
35,886.325,stimuli/restaurant/restaurant_3.jpg,74.0,memory_backgrounds,image-keyboard-response,1281.0,18848280.0,0.0-25.0-1.35,4281,restaurant_3,restaurant,old,0,inside
36,669.235,stimuli/desert/desert_32.jpg,70.0,memory_backgrounds,image-keyboard-response,1283.0,18849466.0,0.0-25.0-1.36,4281,desert_32,desert,new,0,inside
37,1262.31,stimuli/desert/desert_9.jpg,74.0,memory_backgrounds,image-keyboard-response,1285.0,18851239.0,0.0-25.0-1.37,4281,desert_9,desert,old,0,inside
38,813.85,stimuli/restaurant/restaurant_31.jpg,74.0,memory_backgrounds,image-keyboard-response,1287.0,18852567.0,0.0-25.0-1.38,4281,restaurant_31,restaurant,old,0,inside
39,2019.18,stimuli/library/library_2.jpg,74.0,memory_backgrounds,image-keyboard-response,1289.0,18855106.0,0.0-25.0-1.39,4281,library_2,library,new,1,inside
40,1090.155,stimuli/forest/forest_18.jpg,70.0,memory_backgrounds,image-keyboard-response,1291.0,18856701.0,0.0-25.0-1.40,4281,forest_18,forest,old,1,inside
41,1750.56,stimuli/restaurant/restaurant_26.jpg,70.0,memory_backgrounds,image-keyboard-response,1293.0,18858959.0,0.0-25.0-1.41,4281,restaurant_26,restaurant,new,0,inside
42,849.48,stimuli/restaurant/restaurant_19.jpg,70.0,memory_backgrounds,image-keyboard-response,1295.0,18860314.0,0.0-25.0-1.42,4281,restaurant_19,restaurant,new,0,inside
43,1521.015,stimuli/forest/forest_22.jpg,74.0,memory_backgrounds,image-keyboard-response,1297.0,18862342.0,0.0-25.0-1.43,4281,forest_22,forest,old,0,inside
44,906.89,stimuli/forest/forest_24.jpg,74.0,memory_backgrounds,image-keyboard-response,1299.0,18863778.0,0.0-25.0-1.44,4281,forest_24,forest,new,1,inside
45,870.0,stimuli/desert/desert_10.jpg,74.0,memory_backgrounds,image-keyboard-response,1301.0,18865163.0,0.0-25.0-1.45,4281,desert_10,desert,new,1,inside
46,939.27,stimuli/restaurant/restaurant_2.jpg,70.0,memory_backgrounds,image-keyboard-response,1303.0,18866620.0,0.0-25.0-1.46,4281,restaurant_2,restaurant,old,1,inside
47,1517.72,stimuli/library/library_9.jpg,70.0,memory_backgrounds,image-keyboard-response,1305.0,18868647.0,0.0-25.0-1.47,4281,library_9,library,old,1,inside
48,930.415,stimuli/forest/forest_31.jpg,74.0,memory_backgrounds,image-keyboard-response,1307.0,18870090.0,0.0-25.0-1.48,4281,forest_31,forest,new,1,inside
49,982.675,stimuli/library/library_20.jpg,74.0,memory_backgrounds,image-keyboard-response,1309.0,18871590.0,0.0-25.0-1.49,4281,library_20,library,old,0,inside
50,875.185,stimuli/forest/forest_32.jpg,70.0,memory_backgrounds,image-keyboard-response,1311.0,18872987.0,0.0-25.0-1.50,4281,forest_32,forest,new,0,inside
51,2390.38,stimuli/library/library_24.jpg,74.0,memory_backgrounds,image-keyboard-response,1313.0,18875894.0,0.0-25.0-1.51,4281,library_24,library,old,0,inside
52,697.375,stimuli/library/library_3.jpg,70.0,memory_backgrounds,image-keyboard-response,1315.0,18877101.0,0.0-25.0-1.52,4281,library_3,library,new,0,inside
53,1531.695,stimuli/forest/forest_15.jpg,74.0,memory_backgrounds,image-keyboard-response,1317.0,18879148.0,0.0-25.0-1.53,4281,forest_15,forest,old,0,inside
54,819.445,stimuli/library/library_17.jpg,74.0,memory_backgrounds,image-keyboard-response,1319.0,18880474.0,0.0-25.0-1.54,4281,library_17,library,new,1,inside
55,1082.48,stimuli/library/library_21.jpg,74.0,memory_backgrounds,image-keyboard-response,1321.0,18882075.0,0.0-25.0-1.55,4281,library_21,library,old,0,inside
56,776.765,stimuli/restaurant/restaurant_11.jpg,74.0,memory_backgrounds,image-keyboard-response,1323.0,18883359.0,0.0-25.0-1.56,4281,restaurant_11,restaurant,new,1,inside
57,776.19,stimuli/desert/desert_1.jpg,70.0,memory_backgrounds,image-keyboard-response,1325.0,18884645.0,0.0-25.0-1.57,4281,desert_1,desert,old,1,inside
58,1514.815,stimuli/desert/desert_11.jpg,70.0,memory_backgrounds,image-keyboard-response,1327.0,18886673.0,0.0-25.0-1.58,4281,desert_11,desert,old,1,inside
59,1430.685,stimuli/forest/forest_29.jpg,70.0,memory_backgrounds,image-keyboard-response,1329.0,18888611.0,0.0-25.0-1.59,4281,forest_29,forest,old,1,inside
60,1031.08,stimuli/library/library_28.jpg,74.0,memory_backgrounds,image-keyboard-response,1331.0,18890153.0,0.0-25.0-1.60,4281,library_28,library,new,1,inside
61,784.605,stimuli/desert/desert_25.jpg,74.0,memory_backgrounds,image-keyboard-response,1333.0,18891444.0,0.0-25.0-1.61,4281,desert_25,desert,new,1,inside
62,932.34,stimuli/forest/forest_7.jpg,74.0,memory_backgrounds,image-keyboard-response,1335.0,18892890.0,0.0-25.0-1.62,4281,forest_7,forest,new,1,inside
63,1539.42,stimuli/library/library_15.jpg,70.0,memory_backgrounds,image-keyboard-response,1337.0,18894933.0,0.0-25.0-1.63,4281,library_15,library,old,1,inside
64,999.045,stimuli/desert/desert_7.jpg,74.0,memory_backgrounds,image-keyboard-response,1339.0,18896441.0,0.0-25.0-1.64,4281,desert_7,desert,new,1,inside
65,850.85,stimuli/restaurant/restaurant_20.jpg,70.0,memory_backgrounds,image-keyboard-response,1341.0,18897807.0,0.0-25.0-1.65,4281,restaurant_20,restaurant,new,0,inside
66,1303.915,stimuli/library/library_4.jpg,70.0,memory_backgrounds,image-keyboard-response,1343.0,18899630.0,0.0-25.0-1.66,4281,library_4,library,old,1,inside
67,1585.81,stimuli/desert/desert_26.jpg,74.0,memory_backgrounds,image-keyboard-response,1345.0,18901732.0,0.0-25.0-1.67,4281,desert_26,desert,old,0,inside
68,1170.14,stimuli/restaurant/restaurant_9.jpg,74.0,memory_backgrounds,image-keyboard-response,1347.0,18903423.0,0.0-25.0-1.68,4281,restaurant_9,restaurant,new,1,inside
69,1930.305,stimuli/restaurant/restaurant_8.jpg,70.0,memory_backgrounds,image-keyboard-response,1349.0,18905885.0,0.0-25.0-1.69,4281,restaurant_8,restaurant,old,1,inside
70,1822.77,stimuli/desert/desert_17.jpg,70.0,memory_backgrounds,image-keyboard-response,1351.0,18908220.0,0.0-25.0-1.70,4281,desert_17,desert,old,1,inside
71,1034.87,stimuli/library/library_11.jpg,70.0,memory_backgrounds,image-keyboard-response,1353.0,18909768.0,0.0-25.0-1.71,4281,library_11,library,new,0,inside
72,1465.815,stimuli/forest/forest_25.jpg,70.0,memory_backgrounds,image-keyboard-response,1355.0,18911748.0,0.0-25.0-1.72,4281,forest_25,forest,old,1,inside
73,624.61,stimuli/forest/forest_9.jpg,74.0,memory_backgrounds,image-keyboard-response,1357.0,18912878.0,0.0-25.0-1.73,4281,forest_9,forest,old,0,inside
74,810.95,stimuli/library/library_30.jpg,70.0,memory_backgrounds,image-keyboard-response,1359.0,18914207.0,0.0-25.0-1.74,4281,library_30,library,old,1,inside
75,1381.47,stimuli/restaurant/restaurant_12.jpg,70.0,memory_backgrounds,image-keyboard-response,1361.0,18916102.0,0.0-25.0-1.75,4281,restaurant_12,restaurant,new,0,inside
76,829.875,stimuli/forest/forest_14.jpg,70.0,memory_backgrounds,image-keyboard-response,1363.0,18917438.0,0.0-25.0-1.76,4281,forest_14,forest,old,1,inside
77,804.905,stimuli/library/library_27.jpg,74.0,memory_backgrounds,image-keyboard-response,1365.0,18918748.0,0.0-25.0-1.77,4281,library_27,library,new,1,inside
78,1009.895,stimuli/library/library_12.jpg,74.0,memory_backgrounds,image-keyboard-response,1367.0,18920272.0,0.0-25.0-1.78,4281,library_12,library,new,1,inside
79,1438.03,stimuli/forest/forest_12.jpg,74.0,memory_backgrounds,image-keyboard-response,1369.0,18922215.0,0.0-25.0-1.79,4281,forest_12,forest,old,0,inside
80,808.31,stimuli/desert/desert_20.jpg,74.0,memory_backgrounds,image-keyboard-response,1371.0,18923528.0,0.0-25.0-1.80,4281,desert_20,desert,new,1,inside
81,1630.56,stimuli/restaurant/restaurant_14.jpg,74.0,memory_backgrounds,image-keyboard-response,1373.0,18925667.0,0.0-25.0-1.81,4281,restaurant_14,restaurant,new,1,inside
82,983.94,stimuli/desert/desert_14.jpg,74.0,memory_backgrounds,image-keyboard-response,1375.0,18927163.0,0.0-25.0-1.82,4281,desert_14,desert,new,1,inside
83,849.28,stimuli/restaurant/restaurant_1.jpg,70.0,memory_backgrounds,image-keyboard-response,1377.0,18928517.0,0.0-25.0-1.83,4281,restaurant_1,restaurant,old,1,inside
84,1553.71,stimuli/desert/desert_4.jpg,74.0,memory_backgrounds,image-keyboard-response,1379.0,18930581.0,0.0-25.0-1.84,4281,desert_4,desert,old,0,inside
85,1082.13,stimuli/restaurant/restaurant_15.jpg,70.0,memory_backgrounds,image-keyboard-response,1381.0,18932174.0,0.0-25.0-1.85,4281,restaurant_15,restaurant,new,0,inside
86,880.335,stimuli/restaurant/restaurant_13.jpg,74.0,memory_backgrounds,image-keyboard-response,1383.0,18933571.0,0.0-25.0-1.86,4281,restaurant_13,restaurant,new,1,inside
87,1587.265,stimuli/desert/desert_13.jpg,70.0,memory_backgrounds,image-keyboard-response,1385.0,18935665.0,0.0-25.0-1.87,4281,desert_13,desert,new,0,inside
88,756.56,stimuli/restaurant/restaurant_25.jpg,74.0,memory_backgrounds,image-keyboard-response,1387.0,18936931.0,0.0-25.0-1.88,4281,restaurant_25,restaurant,old,0,inside
89,1398.615,stimuli/forest/forest_4.jpg,74.0,memory_backgrounds,image-keyboard-response,1389.0,18938855.0,0.0-25.0-1.89,4281,forest_4,forest,old,0,inside
90,1238.925,stimuli/forest/forest_6.jpg,70.0,memory_backgrounds,image-keyboard-response,1391.0,18940601.0,0.0-25.0-1.90,4281,forest_6,forest,new,0,inside
91,1182.85,stimuli/desert/desert_12.jpg,70.0,memory_backgrounds,image-keyboard-response,1393.0,18942305.0,0.0-25.0-1.91,4281,desert_12,desert,new,0,inside
92,989.445,stimuli/restaurant/restaurant_24.jpg,74.0,memory_backgrounds,image-keyboard-response,1395.0,18943802.0,0.0-25.0-1.92,4281,restaurant_24,restaurant,new,1,inside
93,817.94,stimuli/forest/forest_30.jpg,74.0,memory_backgrounds,image-keyboard-response,1397.0,18945136.0,0.0-25.0-1.93,4281,forest_30,forest,new,1,inside
94,867.915,stimuli/forest/forest_8.jpg,70.0,memory_backgrounds,image-keyboard-response,1399.0,18946517.0,0.0-25.0-1.94,4281,forest_8,forest,old,1,inside
95,850.89,stimuli/restaurant/restaurant_23.jpg,74.0,memory_backgrounds,image-keyboard-response,1401.0,18947878.0,0.0-25.0-1.95,4281,restaurant_23,restaurant,new,1,inside
96,1077.515,stimuli/library/library_29.jpg,70.0,memory_backgrounds,image-keyboard-response,1403.0,18949463.0,0.0-25.0-1.96,4281,library_29,library,old,1,inside
97,789.725,stimuli/restaurant/restaurant_22.jpg,70.0,memory_backgrounds,image-keyboard-response,1405.0,18950773.0,0.0-25.0-1.97,4281,restaurant_22,restaurant,old,1,inside
98,821.08,stimuli/library/library_13.jpg,70.0,memory_backgrounds,image-keyboard-response,1407.0,18952097.0,0.0-25.0-1.98,4281,library_13,library,old,1,inside
99,1505.265,stimuli/library/library_25.jpg,74.0,memory_backgrounds,image-keyboard-response,1409.0,18954109.0,0.0-25.0-1.99,4281,library_25,library,new,1,inside
100,,stimuli/desert/desert_28.jpg,,memory_backgrounds,image-keyboard-response,1411.0,18957133.0,0.0-25.0-1.100,4281,desert_28,desert,old,0,inside
101,2056.765,stimuli/desert/desert_8.jpg,74.0,memory_backgrounds,image-keyboard-response,1413.0,18959699.0,0.0-25.0-1.101,4281,desert_8,desert,old,0,inside
102,760.9,stimuli/restaurant/restaurant_7.jpg,74.0,memory_backgrounds,image-keyboard-response,1415.0,18960972.0,0.0-25.0-1.102,4281,restaurant_7,restaurant,new,1,inside
103,793.515,stimuli/desert/desert_23.jpg,70.0,memory_backgrounds,image-keyboard-response,1417.0,18962278.0,0.0-25.0-1.103,4281,desert_23,desert,old,1,inside
104,1545.945,stimuli/library/library_1.jpg,70.0,memory_backgrounds,image-keyboard-response,1419.0,18964352.0,0.0-25.0-1.104,4281,library_1,library,old,1,inside
105,1282.265,stimuli/restaurant/restaurant_30.jpg,70.0,memory_backgrounds,image-keyboard-response,1421.0,18966138.0,0.0-25.0-1.105,4281,restaurant_30,restaurant,new,0,inside
106,961.73,stimuli/library/library_8.jpg,70.0,memory_backgrounds,image-keyboard-response,1423.0,18967616.0,0.0-25.0-1.106,4281,library_8,library,new,0,inside
107,1484.56,stimuli/library/library_19.jpg,70.0,memory_backgrounds,image-keyboard-response,1425.0,18969616.0,0.0-25.0-1.107,4281,library_19,library,new,0,inside
108,600.21,stimuli/desert/desert_18.jpg,74.0,memory_backgrounds,image-keyboard-response,1427.0,18970724.0,0.0-25.0-1.108,4281,desert_18,desert,new,1,inside
109,1473.8,stimuli/forest/forest_10.jpg,74.0,memory_backgrounds,image-keyboard-response,1429.0,18972717.0,0.0-25.0-1.109,4281,forest_10,forest,new,1,inside
110,1099.945,stimuli/restaurant/restaurant_28.jpg,74.0,memory_backgrounds,image-keyboard-response,1431.0,18974337.0,0.0-25.0-1.110,4281,restaurant_28,restaurant,old,0,inside
111,877.86,stimuli/library/library_32.jpg,74.0,memory_backgrounds,image-keyboard-response,1433.0,18975731.0,0.0-25.0-1.111,4281,library_32,library,old,0,inside
112,1019.79,stimuli/desert/desert_22.jpg,74.0,memory_backgrounds,image-keyboard-response,1435.0,18977276.0,0.0-25.0-1.112,4281,desert_22,desert,new,1,inside
113,929.97,stimuli/desert/desert_2.jpg,70.0,memory_backgrounds,image-keyboard-response,1437.0,18978710.0,0.0-25.0-1.113,4281,desert_2,desert,old,1,inside
114,671.92,stimuli/forest/forest_28.jpg,70.0,memory_backgrounds,image-keyboard-response,1439.0,18979889.0,0.0-25.0-1.114,4281,forest_28,forest,old,1,inside
115,1855.915,stimuli/desert/desert_21.jpg,70.0,memory_backgrounds,image-keyboard-response,1441.0,18982257.0,0.0-25.0-1.115,4281,desert_21,desert,old,1,inside
116,769.905,stimuli/desert/desert_3.jpg,74.0,memory_backgrounds,image-keyboard-response,1443.0,18983545.0,0.0-25.0-1.116,4281,desert_3,desert,new,1,inside
117,1112.655,stimuli/forest/forest_26.jpg,74.0,memory_backgrounds,image-keyboard-response,1445.0,18985175.0,0.0-25.0-1.117,4281,forest_26,forest,new,1,inside
118,1366.325,stimuli/forest/forest_27.jpg,70.0,memory_backgrounds,image-keyboard-response,1447.0,18987051.0,0.0-25.0-1.118,4281,forest_27,forest,new,0,inside
119,1726.475,stimuli/forest/forest_1.jpg,74.0,memory_backgrounds,image-keyboard-response,1449.0,18989293.0,0.0-25.0-1.119,4281,forest_1,forest,old,0,inside
120,711.895,stimuli/forest/forest_17.jpg,74.0,memory_backgrounds,image-keyboard-response,1451.0,18990508.0,0.0-25.0-1.120,4281,forest_17,forest,old,0,inside
121,811.615,stimuli/desert/desert_16.jpg,74.0,memory_backgrounds,image-keyboard-response,1453.0,18991832.0,0.0-25.0-1.121,4281,desert_16,desert,new,1,inside
122,941.115,stimuli/restaurant/restaurant_17.jpg,74.0,memory_backgrounds,image-keyboard-response,1455.0,18993278.0,0.0-25.0-1.122,4281,restaurant_17,restaurant,old,0,inside
123,523.66,stimuli/restaurant/restaurant_4.jpg,74.0,memory_backgrounds,image-keyboard-response,1457.0,18994322.0,0.0-25.0-1.123,4281,restaurant_4,restaurant,old,0,inside
124,704.935,stimuli/desert/desert_15.jpg,74.0,memory_backgrounds,image-keyboard-response,1459.0,18995535.0,0.0-25.0-1.124,4281,desert_15,desert,new,1,inside
125,575.59,stimuli/forest/forest_19.jpg,70.0,memory_backgrounds,image-keyboard-response,1461.0,18996621.0,0.0-25.0-1.125,4281,forest_19,forest,new,0,inside
126,526.395,stimuli/desert/desert_30.jpg,70.0,memory_backgrounds,image-keyboard-response,1463.0,18997661.0,0.0-25.0-1.126,4281,desert_30,desert,old,1,inside
127,1232.435,stimuli/desert/desert_29.jpg,74.0,memory_backgrounds,image-keyboard-response,1465.0,18999405.0,0.0-25.0-1.127,4281,desert_29,desert,new,1,inside
0,935.1,stimuli/library/library_31.jpg,70.0,memory_backgrounds,image-keyboard-response,1209.0,3858118.0,0.0-25.0-1.0,2099,library_31,library,old,1,inside
1,667.695,stimuli/library/library_5.jpg,74.0,memory_backgrounds,image-keyboard-response,1211.0,3859290.0,0.0-25.0-1.1,2099,library_5,library,new,1,inside
2,817.82,stimuli/forest/forest_22.jpg,70.0,memory_backgrounds,image-keyboard-response,1213.0,3860611.0,0.0-25.0-1.2,2099,forest_22,forest,new,0,inside
3,794.9000001,stimuli/desert/desert_2.jpg,74.0,memory_backgrounds,image-keyboard-response,1215.0,3861912.0,0.0-25.0-1.3,2099,desert_2,desert,new,1,inside
4,744.9449999,stimuli/desert/desert_18.jpg,70.0,memory_backgrounds,image-keyboard-response,1217.0,3863161.0,0.0-25.0-1.4,2099,desert_18,desert,old,1,inside
5,689.915,stimuli/desert/desert_30.jpg,74.0,memory_backgrounds,image-keyboard-response,1219.0,3864354.0,0.0-25.0-1.5,2099,desert_30,desert,new,1,inside
6,1107.355,stimuli/library/library_15.jpg,74.0,memory_backgrounds,image-keyboard-response,1221.0,3865966.0,0.0-25.0-1.6,2099,library_15,library,new,1,inside
7,924.3950001000001,stimuli/library/library_23.jpg,70.0,memory_backgrounds,image-keyboard-response,1223.0,3867394.0,0.0-25.0-1.7,2099,library_23,library,old,1,inside
8,788.395,stimuli/restaurant/restaurant_11.jpg,70.0,memory_backgrounds,image-keyboard-response,1225.0,3868687.0,0.0-25.0-1.8,2099,restaurant_11,restaurant,old,1,inside
9,658.485,stimuli/forest/forest_23.jpg,74.0,memory_backgrounds,image-keyboard-response,1227.0,3869852.0,0.0-25.0-1.9,2099,forest_23,forest,old,0,inside
10,894.965,stimuli/forest/forest_12.jpg,74.0,memory_backgrounds,image-keyboard-response,1229.0,3871253.0,0.0-25.0-1.10,2099,forest_12,forest,new,1,inside
11,836.67,stimuli/restaurant/restaurant_17.jpg,74.0,memory_backgrounds,image-keyboard-response,1231.0,3872593.0,0.0-25.0-1.11,2099,restaurant_17,restaurant,new,1,inside
12,834.09,stimuli/forest/forest_14.jpg,70.0,memory_backgrounds,image-keyboard-response,1233.0,3873933.0,0.0-25.0-1.12,2099,forest_14,forest,new,0,inside
13,802.38,stimuli/restaurant/restaurant_22.jpg,74.0,memory_backgrounds,image-keyboard-response,1235.0,3875240.0,0.0-25.0-1.13,2099,restaurant_22,restaurant,old,0,inside
14,1073.255,stimuli/forest/forest_25.jpg,70.0,memory_backgrounds,image-keyboard-response,1237.0,3876817.0,0.0-25.0-1.14,2099,forest_25,forest,old,1,inside
15,692.005,stimuli/restaurant/restaurant_23.jpg,74.0,memory_backgrounds,image-keyboard-response,1239.0,3878015.0,0.0-25.0-1.15,2099,restaurant_23,restaurant,old,0,inside
16,714.5649999,stimuli/library/library_30.jpg,70.0,memory_backgrounds,image-keyboard-response,1241.0,3879232.0,0.0-25.0-1.16,2099,library_30,library,new,0,inside
17,755.9550001,stimuli/forest/forest_1.jpg,74.0,memory_backgrounds,image-keyboard-response,1243.0,3880495.0,0.0-25.0-1.17,2099,forest_1,forest,old,0,inside
18,1014.015,stimuli/library/library_3.jpg,70.0,memory_backgrounds,image-keyboard-response,1245.0,3882013.0,0.0-25.0-1.18,2099,library_3,library,new,0,inside
19,797.475,stimuli/forest/forest_10.jpg,70.0,memory_backgrounds,image-keyboard-response,1247.0,3883315.0,0.0-25.0-1.19,2099,forest_10,forest,old,1,inside
20,775.7699999,stimuli/forest/forest_4.jpg,74.0,memory_backgrounds,image-keyboard-response,1249.0,3884595.0,0.0-25.0-1.20,2099,forest_4,forest,new,1,inside
21,872.25,stimuli/library/library_9.jpg,70.0,memory_backgrounds,image-keyboard-response,1251.0,3885971.0,0.0-25.0-1.21,2099,library_9,library,old,1,inside
22,889.39,stimuli/library/library_28.jpg,74.0,memory_backgrounds,image-keyboard-response,1253.0,3887364.0,0.0-25.0-1.22,2099,library_28,library,new,1,inside
23,656.705,stimuli/library/library_18.jpg,70.0,memory_backgrounds,image-keyboard-response,1255.0,3888524.0,0.0-25.0-1.23,2099,library_18,library,old,1,inside
24,646.615,stimuli/library/library_7.jpg,70.0,memory_backgrounds,image-keyboard-response,1257.0,3889674.0,0.0-25.0-1.24,2099,library_7,library,new,0,inside
25,447.665,stimuli/library/library_4.jpg,70.0,memory_backgrounds,image-keyboard-response,1259.0,3890624.0,0.0-25.0-1.25,2099,library_4,library,new,0,inside
26,957.64,stimuli/restaurant/restaurant_26.jpg,70.0,memory_backgrounds,image-keyboard-response,1261.0,3892087.0,0.0-25.0-1.26,2099,restaurant_26,restaurant,old,1,inside
27,754.605,stimuli/forest/forest_20.jpg,70.0,memory_backgrounds,image-keyboard-response,1263.0,3893345.0,0.0-25.0-1.27,2099,forest_20,forest,old,1,inside
28,725.77,stimuli/desert/desert_21.jpg,74.0,memory_backgrounds,image-keyboard-response,1265.0,3894578.0,0.0-25.0-1.28,2099,desert_21,desert,new,1,inside
29,688.585,stimuli/forest/forest_32.jpg,74.0,memory_backgrounds,image-keyboard-response,1267.0,3895777.0,0.0-25.0-1.29,2099,forest_32,forest,old,0,inside
30,857.3799999,stimuli/library/library_17.jpg,74.0,memory_backgrounds,image-keyboard-response,1269.0,3897141.0,0.0-25.0-1.30,2099,library_17,library,new,1,inside
31,920.835,stimuli/library/library_6.jpg,70.0,memory_backgrounds,image-keyboard-response,1271.0,3898568.0,0.0-25.0-1.31,2099,library_6,library,old,1,inside
32,644.55,stimuli/desert/desert_9.jpg,74.0,memory_backgrounds,image-keyboard-response,1273.0,3899717.0,0.0-25.0-1.32,2099,desert_9,desert,new,1,inside
33,711.4,stimuli/desert/desert_17.jpg,74.0,memory_backgrounds,image-keyboard-response,1275.0,3900936.0,0.0-25.0-1.33,2099,desert_17,desert,new,1,inside
34,981.235,stimuli/desert/desert_28.jpg,74.0,memory_backgrounds,image-keyboard-response,1277.0,3902421.0,0.0-25.0-1.34,2099,desert_28,desert,new,1,inside
35,997.245,stimuli/library/library_21.jpg,70.0,memory_backgrounds,image-keyboard-response,1279.0,3903923.0,0.0-25.0-1.35,2099,library_21,library,old,1,inside
36,731.24,stimuli/desert/desert_29.jpg,70.0,memory_backgrounds,image-keyboard-response,1281.0,3905159.0,0.0-25.0-1.36,2099,desert_29,desert,new,0,inside
37,817.45,stimuli/library/library_20.jpg,74.0,memory_backgrounds,image-keyboard-response,1283.0,3906482.0,0.0-25.0-1.37,2099,library_20,library,old,0,inside
38,785.835,stimuli/desert/desert_8.jpg,74.0,memory_backgrounds,image-keyboard-response,1285.0,3907774.0,0.0-25.0-1.38,2099,desert_8,desert,new,1,inside
39,713.3299999,stimuli/restaurant/restaurant_16.jpg,70.0,memory_backgrounds,image-keyboard-response,1287.0,3908992.0,0.0-25.0-1.39,2099,restaurant_16,restaurant,new,0,inside
40,1040.22,stimuli/desert/desert_7.jpg,74.0,memory_backgrounds,image-keyboard-response,1289.0,3910536.0,0.0-25.0-1.40,2099,desert_7,desert,old,0,inside
41,842.85,stimuli/restaurant/restaurant_32.jpg,74.0,memory_backgrounds,image-keyboard-response,1291.0,3911883.0,0.0-25.0-1.41,2099,restaurant_32,restaurant,new,1,inside
42,859.2900001,stimuli/library/library_11.jpg,70.0,memory_backgrounds,image-keyboard-response,1293.0,3913244.0,0.0-25.0-1.42,2099,library_11,library,new,0,inside
43,697.7149999,stimuli/restaurant/restaurant_20.jpg,74.0,memory_backgrounds,image-keyboard-response,1295.0,3914448.0,0.0-25.0-1.43,2099,restaurant_20,restaurant,old,0,inside
44,1254.78,stimuli/forest/forest_28.jpg,74.0,memory_backgrounds,image-keyboard-response,1297.0,3916209.0,0.0-25.0-1.44,2099,forest_28,forest,new,1,inside
45,1732.26,stimuli/forest/forest_5.jpg,74.0,memory_backgrounds,image-keyboard-response,1299.0,3918448.0,0.0-25.0-1.45,2099,forest_5,forest,old,0,inside
46,881.645,stimuli/forest/forest_26.jpg,74.0,memory_backgrounds,image-keyboard-response,1301.0,3919835.0,0.0-25.0-1.46,2099,forest_26,forest,new,1,inside
47,1158.12,stimuli/desert/desert_13.jpg,70.0,memory_backgrounds,image-keyboard-response,1303.0,3921497.0,0.0-25.0-1.47,2099,desert_13,desert,new,0,inside
48,854.56,stimuli/restaurant/restaurant_3.jpg,74.0,memory_backgrounds,image-keyboard-response,1305.0,3922856.0,0.0-25.0-1.48,2099,restaurant_3,restaurant,old,0,inside
49,859.74,stimuli/desert/desert_26.jpg,70.0,memory_backgrounds,image-keyboard-response,1307.0,3924223.0,0.0-25.0-1.49,2099,desert_26,desert,old,1,inside
50,710.8,stimuli/restaurant/restaurant_5.jpg,70.0,memory_backgrounds,image-keyboard-response,1309.0,3925437.0,0.0-25.0-1.50,2099,restaurant_5,restaurant,new,0,inside
51,860.365,stimuli/restaurant/restaurant_19.jpg,74.0,memory_backgrounds,image-keyboard-response,1311.0,3926803.0,0.0-25.0-1.51,2099,restaurant_19,restaurant,old,0,inside
52,782.6650001,stimuli/desert/desert_24.jpg,70.0,memory_backgrounds,image-keyboard-response,1313.0,3928090.0,0.0-25.0-1.52,2099,desert_24,desert,old,1,inside
53,806.015,stimuli/forest/forest_21.jpg,70.0,memory_backgrounds,image-keyboard-response,1315.0,3929400.0,0.0-25.0-1.53,2099,forest_21,forest,old,1,inside
54,1318.77,stimuli/restaurant/restaurant_28.jpg,70.0,memory_backgrounds,image-keyboard-response,1317.0,3931224.0,0.0-25.0-1.54,2099,restaurant_28,restaurant,old,1,inside
55,1215.495,stimuli/forest/forest_29.jpg,70.0,memory_backgrounds,image-keyboard-response,1319.0,3932945.0,0.0-25.0-1.55,2099,forest_29,forest,old,1,inside
56,1078.09,stimuli/desert/desert_15.jpg,74.0,memory_backgrounds,image-keyboard-response,1321.0,3934526.0,0.0-25.0-1.56,2099,desert_15,desert,new,1,inside
57,714.02,stimuli/desert/desert_10.jpg,70.0,memory_backgrounds,image-keyboard-response,1323.0,3935744.0,0.0-25.0-1.57,2099,desert_10,desert,old,1,inside
58,678.55,stimuli/forest/forest_9.jpg,70.0,memory_backgrounds,image-keyboard-response,1325.0,3936926.0,0.0-25.0-1.58,2099,forest_9,forest,new,0,inside
59,825.81,stimuli/restaurant/restaurant_10.jpg,70.0,memory_backgrounds,image-keyboard-response,1327.0,3938257.0,0.0-25.0-1.59,2099,restaurant_10,restaurant,new,0,inside
60,698.695,stimuli/restaurant/restaurant_13.jpg,74.0,memory_backgrounds,image-keyboard-response,1329.0,3939459.0,0.0-25.0-1.60,2099,restaurant_13,restaurant,new,1,inside
61,749.995,stimuli/forest/forest_3.jpg,70.0,memory_backgrounds,image-keyboard-response,1331.0,3940715.0,0.0-25.0-1.61,2099,forest_3,forest,old,1,inside
62,749.935,stimuli/library/library_13.jpg,70.0,memory_backgrounds,image-keyboard-response,1333.0,3941968.0,0.0-25.0-1.62,2099,library_13,library,old,1,inside
63,756.405,stimuli/desert/desert_1.jpg,74.0,memory_backgrounds,image-keyboard-response,1335.0,3943228.0,0.0-25.0-1.63,2099,desert_1,desert,old,0,inside
64,735.3599998999999,stimuli/restaurant/restaurant_25.jpg,74.0,memory_backgrounds,image-keyboard-response,1337.0,3944466.0,0.0-25.0-1.64,2099,restaurant_25,restaurant,old,0,inside
65,730.275,stimuli/desert/desert_14.jpg,74.0,memory_backgrounds,image-keyboard-response,1339.0,3945703.0,0.0-25.0-1.65,2099,desert_14,desert,new,1,inside
66,1065.17,stimuli/desert/desert_22.jpg,74.0,memory_backgrounds,image-keyboard-response,1341.0,3947271.0,0.0-25.0-1.66,2099,desert_22,desert,old,0,inside
67,981.9250001,stimuli/forest/forest_11.jpg,74.0,memory_backgrounds,image-keyboard-response,1343.0,3948757.0,0.0-25.0-1.67,2099,forest_11,forest,new,1,inside
68,798.6799999,stimuli/forest/forest_17.jpg,74.0,memory_backgrounds,image-keyboard-response,1345.0,3950062.0,0.0-25.0-1.68,2099,forest_17,forest,old,0,inside
69,1086.095,stimuli/forest/forest_8.jpg,74.0,memory_backgrounds,image-keyboard-response,1347.0,3951655.0,0.0-25.0-1.69,2099,forest_8,forest,new,1,inside
70,923.15,stimuli/forest/forest_27.jpg,74.0,memory_backgrounds,image-keyboard-response,1349.0,3953082.0,0.0-25.0-1.70,2099,forest_27,forest,new,1,inside
71,873.1399999,stimuli/library/library_32.jpg,74.0,memory_backgrounds,image-keyboard-response,1351.0,3954459.0,0.0-25.0-1.71,2099,library_32,library,new,1,inside
72,991.2050001,stimuli/library/library_16.jpg,70.0,memory_backgrounds,image-keyboard-response,1353.0,3955954.0,0.0-25.0-1.72,2099,library_16,library,new,0,inside
73,791.8,stimuli/forest/forest_16.jpg,70.0,memory_backgrounds,image-keyboard-response,1355.0,3957249.0,0.0-25.0-1.73,2099,forest_16,forest,new,0,inside
74,1053.59,stimuli/restaurant/restaurant_9.jpg,70.0,memory_backgrounds,image-keyboard-response,1357.0,3958806.0,0.0-25.0-1.74,2099,restaurant_9,restaurant,new,0,inside
75,883.78,stimuli/forest/forest_13.jpg,70.0,memory_backgrounds,image-keyboard-response,1359.0,3960194.0,0.0-25.0-1.75,2099,forest_13,forest,new,0,inside
76,807.8900001000001,stimuli/restaurant/restaurant_1.jpg,74.0,memory_backgrounds,image-keyboard-response,1361.0,3961506.0,0.0-25.0-1.76,2099,restaurant_1,restaurant,new,1,inside
77,962.4549999,stimuli/library/library_27.jpg,74.0,memory_backgrounds,image-keyboard-response,1363.0,3962971.0,0.0-25.0-1.77,2099,library_27,library,new,1,inside
78,1007.91,stimuli/library/library_22.jpg,70.0,memory_backgrounds,image-keyboard-response,1365.0,3964483.0,0.0-25.0-1.78,2099,library_22,library,old,1,inside
79,748.38,stimuli/desert/desert_4.jpg,74.0,memory_backgrounds,image-keyboard-response,1367.0,3965736.0,0.0-25.0-1.79,2099,desert_4,desert,new,1,inside
80,1127.71,stimuli/library/library_1.jpg,70.0,memory_backgrounds,image-keyboard-response,1369.0,3967371.0,0.0-25.0-1.80,2099,library_1,library,old,1,inside
81,956.3950001000001,stimuli/desert/desert_25.jpg,74.0,memory_backgrounds,image-keyboard-response,1371.0,3968831.0,0.0-25.0-1.81,2099,desert_25,desert,old,0,inside
82,858.245,stimuli/forest/forest_30.jpg,74.0,memory_backgrounds,image-keyboard-response,1373.0,3970195.0,0.0-25.0-1.82,2099,forest_30,forest,new,1,inside
83,800.525,stimuli/desert/desert_23.jpg,70.0,memory_backgrounds,image-keyboard-response,1375.0,3971499.0,0.0-25.0-1.83,2099,desert_23,desert,old,1,inside
84,571.78,stimuli/forest/forest_31.jpg,70.0,memory_backgrounds,image-keyboard-response,1377.0,3972579.0,0.0-25.0-1.84,2099,forest_31,forest,old,1,inside
85,649.58,stimuli/desert/desert_16.jpg,70.0,memory_backgrounds,image-keyboard-response,1379.0,3973734.0,0.0-25.0-1.85,2099,desert_16,desert,new,0,inside
86,893.09,stimuli/restaurant/restaurant_18.jpg,70.0,memory_backgrounds,image-keyboard-response,1381.0,3975131.0,0.0-25.0-1.86,2099,restaurant_18,restaurant,old,1,inside
87,752.095,stimuli/forest/forest_19.jpg,74.0,memory_backgrounds,image-keyboard-response,1383.0,3976388.0,0.0-25.0-1.87,2099,forest_19,forest,new,1,inside
88,752.9249999,stimuli/restaurant/restaurant_2.jpg,74.0,memory_backgrounds,image-keyboard-response,1385.0,3977647.0,0.0-25.0-1.88,2099,restaurant_2,restaurant,old,0,inside
89,827.99,stimuli/restaurant/restaurant_4.jpg,70.0,memory_backgrounds,image-keyboard-response,1387.0,3978981.0,0.0-25.0-1.89,2099,restaurant_4,restaurant,new,0,inside
90,650.3600001,stimuli/desert/desert_6.jpg,74.0,memory_backgrounds,image-keyboard-response,1389.0,3980135.0,0.0-25.0-1.90,2099,desert_6,desert,new,1,inside
91,837.54,stimuli/restaurant/restaurant_21.jpg,74.0,memory_backgrounds,image-keyboard-response,1391.0,3981477.0,0.0-25.0-1.91,2099,restaurant_21,restaurant,old,0,inside
92,834.545,stimuli/restaurant/restaurant_12.jpg,70.0,memory_backgrounds,image-keyboard-response,1393.0,3982815.0,0.0-25.0-1.92,2099,restaurant_12,restaurant,new,0,inside
93,783.24,stimuli/library/library_19.jpg,70.0,memory_backgrounds,image-keyboard-response,1395.0,3984105.0,0.0-25.0-1.93,2099,library_19,library,old,1,inside
94,600.33,stimuli/desert/desert_11.jpg,74.0,memory_backgrounds,image-keyboard-response,1397.0,3985212.0,0.0-25.0-1.94,2099,desert_11,desert,old,0,inside
95,705.515,stimuli/desert/desert_3.jpg,70.0,memory_backgrounds,image-keyboard-response,1399.0,3986421.0,0.0-25.0-1.95,2099,desert_3,desert,old,1,inside
96,571.125,stimuli/desert/desert_19.jpg,70.0,memory_backgrounds,image-keyboard-response,1401.0,3987498.0,0.0-25.0-1.96,2099,desert_19,desert,new,0,inside
97,646.925,stimuli/library/library_26.jpg,70.0,memory_backgrounds,image-keyboard-response,1403.0,3988651.0,0.0-25.0-1.97,2099,library_26,library,new,0,inside
98,875.3450001,stimuli/library/library_8.jpg,70.0,memory_backgrounds,image-keyboard-response,1405.0,3990031.0,0.0-25.0-1.98,2099,library_8,library,new,0,inside
99,630.255,stimuli/desert/desert_27.jpg,74.0,memory_backgrounds,image-keyboard-response,1407.0,3991167.0,0.0-25.0-1.99,2099,desert_27,desert,old,0,inside
100,534.58,stimuli/restaurant/restaurant_6.jpg,70.0,memory_backgrounds,image-keyboard-response,1409.0,3992204.0,0.0-25.0-1.100,2099,restaurant_6,restaurant,old,1,inside
101,1058.495,stimuli/forest/forest_7.jpg,70.0,memory_backgrounds,image-keyboard-response,1411.0,3993766.0,0.0-25.0-1.101,2099,forest_7,forest,new,0,inside
102,1398.48,stimuli/desert/desert_20.jpg,74.0,memory_backgrounds,image-keyboard-response,1413.0,3995669.0,0.0-25.0-1.102,2099,desert_20,desert,new,1,inside
103,1038.735,stimuli/restaurant/restaurant_7.jpg,70.0,memory_backgrounds,image-keyboard-response,1415.0,3997213.0,0.0-25.0-1.103,2099,restaurant_7,restaurant,old,1,inside
104,643.5949999,stimuli/library/library_14.jpg,70.0,memory_backgrounds,image-keyboard-response,1417.0,3998361.0,0.0-25.0-1.104,2099,library_14,library,old,1,inside
105,1609.465,stimuli/forest/forest_6.jpg,70.0,memory_backgrounds,image-keyboard-response,1419.0,4000475.0,0.0-25.0-1.105,2099,forest_6,forest,new,0,inside
106,922.2649999,stimuli/library/library_29.jpg,70.0,memory_backgrounds,image-keyboard-response,1421.0,4001903.0,0.0-25.0-1.106,2099,library_29,library,new,0,inside
107,752.05,stimuli/forest/forest_24.jpg,70.0,memory_backgrounds,image-keyboard-response,1423.0,4003158.0,0.0-25.0-1.107,2099,forest_24,forest,old,1,inside
108,1644.32,stimuli/forest/forest_15.jpg,74.0,memory_backgrounds,image-keyboard-response,1425.0,4005307.0,0.0-25.0-1.108,2099,forest_15,forest,old,0,inside
109,1207.655,stimuli/library/library_10.jpg,70.0,memory_backgrounds,image-keyboard-response,1427.0,4007018.0,0.0-25.0-1.109,2099,library_10,library,old,1,inside
110,511.755,stimuli/forest/forest_18.jpg,70.0,memory_backgrounds,image-keyboard-response,1429.0,4008036.0,0.0-25.0-1.110,2099,forest_18,forest,old,1,inside
111,908.7500001,stimuli/restaurant/restaurant_31.jpg,74.0,memory_backgrounds,image-keyboard-response,1431.0,4009448.0,0.0-25.0-1.111,2099,restaurant_31,restaurant,old,0,inside
112,1218.635,stimuli/restaurant/restaurant_24.jpg,74.0,memory_backgrounds,image-keyboard-response,1433.0,4011172.0,0.0-25.0-1.112,2099,restaurant_24,restaurant,new,1,inside
113,742.0099999,stimuli/restaurant/restaurant_29.jpg,70.0,memory_backgrounds,image-keyboard-response,1435.0,4012417.0,0.0-25.0-1.113,2099,restaurant_29,restaurant,new,0,inside
114,631.11,stimuli/library/library_2.jpg,70.0,memory_backgrounds,image-keyboard-response,1437.0,4013553.0,0.0-25.0-1.114,2099,library_2,library,old,1,inside
