,state1,stim_left,stim_right,rt_1,choice1,response1,rt_2,points,state2,stim_state2,stake,score,practice,rews1,rews2,background,high_arm,trial_type,trial_index,time_elapsed,internal_node_id,subid,hitid,assignmentid,stim_left_num,stim_right_num
0,4,object_10,object_08,-1.0,-1,-1,-1.0,0.0,-,0,5,0,0,2,2,restaurant_4,1,memory-2step-stake-s,492,1006306,0.0-19.0-0.0-0.0,ATKNH6OR2G11O,3Q9SPIIRXM2ML6FVM0W2D0Z2IA6WAR,3DI28L7YXEUZW1EYVJE55DVM1OWE13,8,7
1,1,object_06,object_05,986.39999997616,1,1,-1.0,0.0,1,object_09,1,0,0,2,4,desert_1,1,memory-2step-stake-s,493,1014884,0.0-19.0-0.0-0.1,ATKNH6OR2G11O,3Q9SPIIRXM2ML6FVM0W2D0Z2IA6WAR,3DI28L7YXEUZW1EYVJE55DVM1OWE13,1,2
2,2,object_07,object_04,822.70000004768,4,1,774.89999997616,0.1111111111111111,2,object_02,1,1,0,4,1,forest_8,1,memory-2step-stake-s,494,1023057,0.0-19.0-0.0-0.2,ATKNH6OR2G11O,3Q9SPIIRXM2ML6FVM0W2D0Z2IA6WAR,3DI28L7YXEUZW1EYVJE55DVM1OWE13,4,3
3,4,object_08,object_10,441.79999995232,8,2,932.39999997616,0.0,2,object_02,5,1,0,4,0,restaurant_4,1,memory-2step-stake-s,495,1031253,0.0-19.0-0.0-0.3,ATKNH6OR2G11O,3Q9SPIIRXM2ML6FVM0W2D0Z2IA6WAR,3DI28L7YXEUZW1EYVJE55DVM1OWE13,7,8
4,4,object_08,object_10,458.39999997616,7,1,642.69999998808,0.4444444444444444,1,object_09,5,21,0,4,1,restaurant_7,1,memory-2step-stake-s,496,1039614,0.0-19.0-0.0-0.4,ATKNH6OR2G11O,3Q9SPIIRXM2ML6FVM0W2D0Z2IA6WAR,3DI28L7YXEUZW1EYVJE55DVM1OWE13,7,8
5,1,object_06,object_05,383.69999998808,1,1,791.89999997616,0.3333333333333333,1,object_09,1,24,0,3,1,desert_8,1,memory-2step-stake-s,497,1048002,0.0-19.0-0.0-0.5,ATKNH6OR2G11O,3Q9SPIIRXM2ML6FVM0W2D0Z2IA6WAR,3DI28L7YXEUZW1EYVJE55DVM1OWE13,1,2
6,1,object_06,object_05,481.80000001192,2,2,495.39999997616,0.1111111111111111,2,object_02,5,29,0,3,1,desert_6,1,memory-2step-stake-s,498,1055861,0.0-19.0-0.0-0.6,ATKNH6OR2G11O,3Q9SPIIRXM2ML6FVM0W2D0Z2IA6WAR,3DI28L7YXEUZW1EYVJE55DVM1OWE13,1,2
7,1,object_05,object_06,319.09999996424,2,1,674.60000002384,0.4444444444444444,2,object_02,1,33,0,5,4,desert_1,1,memory-2step-stake-s,499,1064280,0.0-19.0-0.0-0.7,ATKNH6OR2G11O,3Q9SPIIRXM2ML6FVM0W2D0Z2IA6WAR,3DI28L7YXEUZW1EYVJE55DVM1OWE13,2,1
8,3,object_01,object_03,423.20000004768,5,2,445.19999998808,0.2222222222222222,1,object_09,5,43,0,2,2,library_6,1,memory-2step-stake-s,500,1072218,0.0-19.0-0.0-0.8,ATKNH6OR2G11O,3Q9SPIIRXM2ML6FVM0W2D0Z2IA6WAR,3DI28L7YXEUZW1EYVJE55DVM1OWE13,6,5
9,2,object_07,object_04,470.0,4,1,592.30000001192,0.2222222222222222,2,object_02,5,53,0,4,2,forest_1,1,memory-2step-stake-s,501,1080291,0.0-19.0-0.0-0.9,ATKNH6OR2G11O,3Q9SPIIRXM2ML6FVM0W2D0Z2IA6WAR,3DI28L7YXEUZW1EYVJE55DVM1OWE13,4,3
10,1,object_06,object_05,306.80000001192,2,2,525.80000001192,0.1111111111111111,2,object_02,5,58,0,3,1,desert_6,1,memory-2step-stake-s,502,1088198,0.0-19.0-0.0-0.10,ATKNH6OR2G11O,3Q9SPIIRXM2ML6FVM0W2D0Z2IA6WAR,3DI28L7YXEUZW1EYVJE55DVM1OWE13,1,2
11,2,object_07,object_04,408.69999998808,4,1,447.19999998808,0.1111111111111111,2,object_02,1,59,0,2,1,forest_6,1,memory-2step-stake-s,503,1096032,0.0-19.0-0.0-0.11,ATKNH6OR2G11O,3Q9SPIIRXM2ML6FVM0W2D0Z2IA6WAR,3DI28L7YXEUZW1EYVJE55DVM1OWE13,4,3
12,1,object_05,object_06,478.39999997616,1,2,465.69999998808,0.1111111111111111,1,object_09,5,64,0,1,2,desert_6,1,memory-2step-stake-s,504,1103910,0.0-19.0-0.0-0.12,ATKNH6OR2G11O,3Q9SPIIRXM2ML6FVM0W2D0Z2IA6WAR,3DI28L7YXEUZW1EYVJE55DVM1OWE13,2,1
13,1,object_06,object_05,700.29999995232,1,1,482.59999996424,0.1111111111111111,1,object_09,5,69,0,1,1,desert_7,1,memory-2step-stake-s,505,1111797,0.0-19.0-0.0-0.13,ATKNH6OR2G11O,3Q9SPIIRXM2ML6FVM0W2D0Z2IA6WAR,3DI28L7YXEUZW1EYVJE55DVM1OWE13,1,2
14,4,object_10,object_08,460.80000001192,7,2,482.40000003576,0.3333333333333333,1,object_09,5,84,0,3,1,restaurant_5,1,memory-2step-stake-s,506,1119920,0.0-19.0-0.0-0.14,ATKNH6OR2G11O,3Q9SPIIRXM2ML6FVM0W2D0Z2IA6WAR,3DI28L7YXEUZW1EYVJE55DVM1OWE13,8,7
15,3,object_03,object_01,372.40000003576,5,1,495.89999997616,0.7777777777777778,1,object_09,5,119,0,7,1,library_6,1,memory-2step-stake-s,507,1128454,0.0-19.0-0.0-0.15,ATKNH6OR2G11O,3Q9SPIIRXM2ML6FVM0W2D0Z2IA6WAR,3DI28L7YXEUZW1EYVJE55DVM1OWE13,5,6
16,3,object_03,object_01,451.0,5,1,373.0,1.0,1,object_09,5,164,0,9,5,library_1,1,memory-2step-stake-s,508,1137096,0.0-19.0-0.0-0.16,ATKNH6OR2G11O,3Q9SPIIRXM2ML6FVM0W2D0Z2IA6WAR,3DI28L7YXEUZW1EYVJE55DVM1OWE13,5,6
17,4,object_08,object_10,738.5,8,2,382.0,0.6666666666666666,2,object_02,1,170,0,8,6,restaurant_7,1,memory-2step-stake-s,509,1145422,0.0-19.0-0.0-0.17,ATKNH6OR2G11O,3Q9SPIIRXM2ML6FVM0W2D0Z2IA6WAR,3DI28L7YXEUZW1EYVJE55DVM1OWE13,7,8
18,3,object_03,object_01,344.60000002384,5,1,472.89999997616,0.8888888888888888,1,object_09,5,210,0,8,4,library_3,1,memory-2step-stake-s,510,1154029,0.0-19.0-0.0-0.18,ATKNH6OR2G11O,3Q9SPIIRXM2ML6FVM0W2D0Z2IA6WAR,3DI28L7YXEUZW1EYVJE55DVM1OWE13,5,6
19,3,object_03,object_01,730.80000001192,5,1,463.69999998808,0.8888888888888888,1,object_09,5,250,0,8,4,library_4,1,memory-2step-stake-s,511,1162640,0.0-19.0-0.0-0.19,ATKNH6OR2G11O,3Q9SPIIRXM2ML6FVM0W2D0Z2IA6WAR,3DI28L7YXEUZW1EYVJE55DVM1OWE13,5,6
20,2,object_04,object_07,904.79999995232,4,2,547.5,0.5555555555555556,2,object_02,5,275,0,6,5,forest_4,1,memory-2step-stake-s,512,1171032,0.0-19.0-0.0-0.20,ATKNH6OR2G11O,3Q9SPIIRXM2ML6FVM0W2D0Z2IA6WAR,3DI28L7YXEUZW1EYVJE55DVM1OWE13,3,4
21,1,object_05,object_06,429.60000002384,2,1,337.70000004768,0.7777777777777778,2,object_02,1,282,0,6,7,desert_7,1,memory-2step-stake-s,513,1179422,0.0-19.0-0.0-0.21,ATKNH6OR2G11O,3Q9SPIIRXM2ML6FVM0W2D0Z2IA6WAR,3DI28L7YXEUZW1EYVJE55DVM1OWE13,2,1
22,3,object_03,object_01,682.5,5,1,598.5,1.0,1,object_09,5,327,0,9,6,library_1,1,memory-2step-stake-s,514,1188294,0.0-19.0-0.0-0.22,ATKNH6OR2G11O,3Q9SPIIRXM2ML6FVM0W2D0Z2IA6WAR,3DI28L7YXEUZW1EYVJE55DVM1OWE13,5,6
23,3,object_01,object_03,679.69999998808,5,2,405.60000002384,0.8888888888888888,1,object_09,5,367,0,8,6,library_3,1,memory-2step-stake-s,515,1196891,0.0-19.0-0.0-0.23,ATKNH6OR2G11O,3Q9SPIIRXM2ML6FVM0W2D0Z2IA6WAR,3DI28L7YXEUZW1EYVJE55DVM1OWE13,6,5
24,1,object_06,object_05,1003.5999999642,2,2,375.40000003576,0.5555555555555556,2,object_02,1,372,0,7,5,desert_6,1,memory-2step-stake-s,516,1205090,0.0-19.0-0.0-0.24,ATKNH6OR2G11O,3Q9SPIIRXM2ML6FVM0W2D0Z2IA6WAR,3DI28L7YXEUZW1EYVJE55DVM1OWE13,1,2
25,1,object_05,object_06,331.90000003576,2,1,337.39999997616,0.6666666666666666,2,object_02,1,378,0,4,6,desert_7,1,memory-2step-stake-s,517,1213417,0.0-19.0-0.0-0.25,ATKNH6OR2G11O,3Q9SPIIRXM2ML6FVM0W2D0Z2IA6WAR,3DI28L7YXEUZW1EYVJE55DVM1OWE13,2,1
26,3,object_03,object_01,595.40000003576,5,1,562.30000001192,0.1111111111111111,1,object_09,1,379,0,1,7,library_4,1,memory-2step-stake-s,518,1221353,0.0-19.0-0.0-0.26,ATKNH6OR2G11O,3Q9SPIIRXM2ML6FVM0W2D0Z2IA6WAR,3DI28L7YXEUZW1EYVJE55DVM1OWE13,5,6
27,1,object_05,object_06,302.0,1,2,538.70000004768,0.2222222222222222,1,object_09,1,381,0,2,8,desert_6,1,memory-2step-stake-s,519,1229365,0.0-19.0-0.0-0.27,ATKNH6OR2G11O,3Q9SPIIRXM2ML6FVM0W2D0Z2IA6WAR,3DI28L7YXEUZW1EYVJE55DVM1OWE13,2,1
28,4,object_08,object_10,546.69999998808,7,1,374.80000001192,0.0,1,object_09,5,381,0,0,7,restaurant_4,1,memory-2step-stake-s,520,1237012,0.0-19.0-0.0-0.28,ATKNH6OR2G11O,3Q9SPIIRXM2ML6FVM0W2D0Z2IA6WAR,3DI28L7YXEUZW1EYVJE55DVM1OWE13,7,8
29,4,object_10,object_08,473.19999998808,7,2,445.59999996424,0.1111111111111111,1,object_09,5,386,0,1,9,restaurant_7,1,memory-2step-stake-s,521,1244831,0.0-19.0-0.0-0.29,ATKNH6OR2G11O,3Q9SPIIRXM2ML6FVM0W2D0Z2IA6WAR,3DI28L7YXEUZW1EYVJE55DVM1OWE13,8,7
30,2,object_07,object_04,821.79999995232,4,1,522.89999997616,0.8888888888888888,2,object_02,1,394,0,2,8,forest_1,1,memory-2step-stake-s,522,1253472,0.0-19.0-0.0-0.30,ATKNH6OR2G11O,3Q9SPIIRXM2ML6FVM0W2D0Z2IA6WAR,3DI28L7YXEUZW1EYVJE55DVM1OWE13,4,3
31,4,object_08,object_10,455.89999997616,8,2,416.80000001192,0.6666666666666666,2,object_02,5,424,0,0,6,restaurant_7,1,memory-2step-stake-s,523,1261828,0.0-19.0-0.0-0.31,ATKNH6OR2G11O,3Q9SPIIRXM2ML6FVM0W2D0Z2IA6WAR,3DI28L7YXEUZW1EYVJE55DVM1OWE13,7,8
32,2,object_04,object_07,556.60000002384,3,1,448.20000004768,0.1111111111111111,1,object_09,1,425,0,1,4,forest_1,1,memory-2step-stake-s,524,1269681,0.0-19.0-0.0-0.32,ATKNH6OR2G11O,3Q9SPIIRXM2ML6FVM0W2D0Z2IA6WAR,3DI28L7YXEUZW1EYVJE55DVM1OWE13,3,4
33,2,object_07,object_04,527.5,3,2,-1.0,0.0,1,object_09,1,425,0,4,2,forest_6,1,memory-2step-stake-s,525,1278231,0.0-19.0-0.0-0.33,ATKNH6OR2G11O,3Q9SPIIRXM2ML6FVM0W2D0Z2IA6WAR,3DI28L7YXEUZW1EYVJE55DVM1OWE13,4,3
34,3,object_03,object_01,352.5,5,1,492.30000001192,0.5555555555555556,1,object_09,5,450,0,5,2,library_4,1,memory-2step-stake-s,526,1286527,0.0-19.0-0.0-0.34,ATKNH6OR2G11O,3Q9SPIIRXM2ML6FVM0W2D0Z2IA6WAR,3DI28L7YXEUZW1EYVJE55DVM1OWE13,5,6
35,4,object_10,object_08,689.30000001192,7,2,396.0,0.8888888888888888,1,object_09,5,490,0,8,4,restaurant_4,1,memory-2step-stake-s,527,1295060,0.0-19.0-0.0-0.35,ATKNH6OR2G11O,3Q9SPIIRXM2ML6FVM0W2D0Z2IA6WAR,3DI28L7YXEUZW1EYVJE55DVM1OWE13,8,7
36,2,object_07,object_04,775.10000002384,3,2,685.60000002384,0.4444444444444444,1,object_09,1,494,0,4,6,forest_4,1,memory-2step-stake-s,528,1303445,0.0-19.0-0.0-0.36,ATKNH6OR2G11O,3Q9SPIIRXM2ML6FVM0W2D0Z2IA6WAR,3DI28L7YXEUZW1EYVJE55DVM1OWE13,4,3
37,4,object_10,object_08,1058.4000000358,7,2,357.5,0.3333333333333333,1,object_09,5,509,0,3,7,restaurant_8,1,memory-2step-stake-s,529,1311383,0.0-19.0-0.0-0.37,ATKNH6OR2G11O,3Q9SPIIRXM2ML6FVM0W2D0Z2IA6WAR,3DI28L7YXEUZW1EYVJE55DVM1OWE13,8,7
38,2,object_04,object_07,593.70000004768,3,1,432.59999996424,0.3333333333333333,1,object_09,1,512,0,3,8,forest_8,1,memory-2step-stake-s,530,1319410,0.0-19.0-0.0-0.38,ATKNH6OR2G11O,3Q9SPIIRXM2ML6FVM0W2D0Z2IA6WAR,3DI28L7YXEUZW1EYVJE55DVM1OWE13,3,4
39,2,object_04,object_07,734.69999998808,3,1,635.80000001192,0.5555555555555556,1,object_09,5,537,0,5,5,forest_8,1,memory-2step-stake-s,531,1327830,0.0-19.0-0.0-0.39,ATKNH6OR2G11O,3Q9SPIIRXM2ML6FVM0W2D0Z2IA6WAR,3DI28L7YXEUZW1EYVJE55DVM1OWE13,3,4
40,2,object_04,object_07,667.39999997616,3,1,951.5,0.7777777777777778,1,object_09,1,544,0,7,4,forest_8,1,memory-2step-stake-s,532,1336770,0.0-19.0-0.0-0.40,ATKNH6OR2G11O,3Q9SPIIRXM2ML6FVM0W2D0Z2IA6WAR,3DI28L7YXEUZW1EYVJE55DVM1OWE13,3,4
41,2,object_04,object_07,561.30000001192,3,1,572.30000001192,1.0,1,object_09,1,553,0,9,2,forest_8,1,memory-2step-stake-s,533,1345583,0.0-19.0-0.0-0.41,ATKNH6OR2G11O,3Q9SPIIRXM2ML6FVM0W2D0Z2IA6WAR,3DI28L7YXEUZW1EYVJE55DVM1OWE13,3,4
42,4,object_08,object_10,691.30000001192,7,1,508.30000001192,1.0,1,object_09,1,562,0,9,1,restaurant_5,1,memory-2step-stake-s,534,1354332,0.0-19.0-0.0-0.42,ATKNH6OR2G11O,3Q9SPIIRXM2ML6FVM0W2D0Z2IA6WAR,3DI28L7YXEUZW1EYVJE55DVM1OWE13,7,8
43,4,object_10,object_08,563.09999996424,7,2,442.5,0.7777777777777778,1,object_09,5,597,0,7,1,restaurant_4,1,memory-2step-stake-s,535,1362816,0.0-19.0-0.0-0.43,ATKNH6OR2G11O,3Q9SPIIRXM2ML6FVM0W2D0Z2IA6WAR,3DI28L7YXEUZW1EYVJE55DVM1OWE13,8,7
44,2,object_04,object_07,631.40000003576,3,1,440.39999997616,0.3333333333333333,1,object_09,1,600,0,3,1,forest_6,1,memory-2step-stake-s,536,1370846,0.0-19.0-0.0-0.44,ATKNH6OR2G11O,3Q9SPIIRXM2ML6FVM0W2D0Z2IA6WAR,3DI28L7YXEUZW1EYVJE55DVM1OWE13,3,4
45,3,object_03,object_01,576.30000001192,5,1,392.40000003576,0.5555555555555556,1,object_09,5,625,0,5,0,library_3,1,memory-2step-stake-s,537,1379031,0.0-19.0-0.0-0.45,ATKNH6OR2G11O,3Q9SPIIRXM2ML6FVM0W2D0Z2IA6WAR,3DI28L7YXEUZW1EYVJE55DVM1OWE13,5,6
46,3,object_03,object_01,395.0,5,1,444.10000002384,0.8888888888888888,1,object_09,5,665,0,8,0,library_6,1,memory-2step-stake-s,538,1387592,0.0-19.0-0.0-0.46,ATKNH6OR2G11O,3Q9SPIIRXM2ML6FVM0W2D0Z2IA6WAR,3DI28L7YXEUZW1EYVJE55DVM1OWE13,5,6
47,3,object_03,object_01,439.29999995232,5,1,406.0,0.5555555555555556,1,object_09,5,690,0,5,1,library_6,1,memory-2step-stake-s,539,1395824,0.0-19.0-0.0-0.47,ATKNH6OR2G11O,3Q9SPIIRXM2ML6FVM0W2D0Z2IA6WAR,3DI28L7YXEUZW1EYVJE55DVM1OWE13,5,6
48,2,object_04,object_07,785.70000004768,3,1,417.39999997616,0.5555555555555556,1,object_09,1,695,0,5,1,forest_1,1,memory-2step-stake-s,540,1404059,0.0-19.0-0.0-0.48,ATKNH6OR2G11O,3Q9SPIIRXM2ML6FVM0W2D0Z2IA6WAR,3DI28L7YXEUZW1EYVJE55DVM1OWE13,3,4
49,1,object_06,object_05,845.69999998808,1,1,465.60000002384,0.8888888888888888,1,object_09,1,703,0,8,3,desert_1,1,memory-2step-stake-s,541,1412717,0.0-19.0-0.0-0.49,ATKNH6OR2G11O,3Q9SPIIRXM2ML6FVM0W2D0Z2IA6WAR,3DI28L7YXEUZW1EYVJE55DVM1OWE13,1,2
50,3,object_01,object_03,656.30000001192,5,2,460.10000002384,0.7777777777777778,1,object_09,5,738,0,7,1,library_6,1,memory-2step-stake-s,542,1421216,0.0-19.0-0.0-0.50,ATKNH6OR2G11O,3Q9SPIIRXM2ML6FVM0W2D0Z2IA6WAR,3DI28L7YXEUZW1EYVJE55DVM1OWE13,6,5
51,4,object_08,object_10,735.10000002384,7,1,540.70000004768,0.8888888888888888,1,object_09,5,778,0,8,0,restaurant_5,1,memory-2step-stake-s,543,1429902,0.0-19.0-0.0-0.51,ATKNH6OR2G11O,3Q9SPIIRXM2ML6FVM0W2D0Z2IA6WAR,3DI28L7YXEUZW1EYVJE55DVM1OWE13,7,8
52,2,object_04,object_07,647.69999998808,3,1,435.5,0.7777777777777778,1,object_09,1,785,0,7,0,forest_8,1,memory-2step-stake-s,544,1438369,0.0-19.0-0.0-0.52,ATKNH6OR2G11O,3Q9SPIIRXM2ML6FVM0W2D0Z2IA6WAR,3DI28L7YXEUZW1EYVJE55DVM1OWE13,3,4
53,1,object_05,object_06,808.40000003576,1,2,545.80000001192,1.0,1,object_09,1,794,0,9,0,desert_7,1,memory-2step-stake-s,545,1447184,0.0-19.0-0.0-0.53,ATKNH6OR2G11O,3Q9SPIIRXM2ML6FVM0W2D0Z2IA6WAR,3DI28L7YXEUZW1EYVJE55DVM1OWE13,2,1
54,3,object_01,object_03,592.59999996424,5,2,392.60000002384,1.0,1,object_09,5,839,0,9,4,library_4,1,memory-2step-stake-s,546,1455840,0.0-19.0-0.0-0.54,ATKNH6OR2G11O,3Q9SPIIRXM2ML6FVM0W2D0Z2IA6WAR,3DI28L7YXEUZW1EYVJE55DVM1OWE13,6,5
55,2,object_07,object_04,693.19999998808,3,2,440.80000001192,1.0,1,object_09,1,848,0,9,1,forest_6,1,memory-2step-stake-s,547,1464547,0.0-19.0-0.0-0.55,ATKNH6OR2G11O,3Q9SPIIRXM2ML6FVM0W2D0Z2IA6WAR,3DI28L7YXEUZW1EYVJE55DVM1OWE13,4,3
56,2,object_04,object_07,563.80000001192,3,1,400.0,0.8888888888888888,1,object_09,1,856,0,8,0,forest_8,1,memory-2step-stake-s,548,1473078,0.0-19.0-0.0-0.56,ATKNH6OR2G11O,3Q9SPIIRXM2ML6FVM0W2D0Z2IA6WAR,3DI28L7YXEUZW1EYVJE55DVM1OWE13,3,4
57,2,object_04,object_07,838.30000001192,3,1,380.80000001192,0.6666666666666666,1,object_09,1,862,0,6,2,forest_1,1,memory-2step-stake-s,549,1481420,0.0-19.0-0.0-0.57,ATKNH6OR2G11O,3Q9SPIIRXM2ML6FVM0W2D0Z2IA6WAR,3DI28L7YXEUZW1EYVJE55DVM1OWE13,3,4
58,2,object_07,object_04,747.90000003576,3,2,370.19999998808,0.7777777777777778,1,object_09,5,897,0,7,5,forest_1,1,memory-2step-stake-s,550,1489811,0.0-19.0-0.0-0.58,ATKNH6OR2G11O,3Q9SPIIRXM2ML6FVM0W2D0Z2IA6WAR,3DI28L7YXEUZW1EYVJE55DVM1OWE13,4,3
59,4,object_08,object_10,611.40000003576,7,1,382.80000001192,0.8888888888888888,1,object_09,5,937,0,8,2,restaurant_8,1,memory-2step-stake-s,551,1498309,0.0-19.0-0.0-0.59,ATKNH6OR2G11O,3Q9SPIIRXM2ML6FVM0W2D0Z2IA6WAR,3DI28L7YXEUZW1EYVJE55DVM1OWE13,7,8
60,4,object_10,object_08,584.0,7,2,498.90000003576,0.6666666666666666,1,object_09,5,967,0,6,0,restaurant_4,1,memory-2step-stake-s,552,1506747,0.0-19.0-0.0-0.60,ATKNH6OR2G11O,3Q9SPIIRXM2ML6FVM0W2D0Z2IA6WAR,3DI28L7YXEUZW1EYVJE55DVM1OWE13,8,7
61,3,object_03,object_01,690.10000002384,5,1,617.29999995232,0.3333333333333333,1,object_09,5,982,0,3,1,library_6,1,memory-2step-stake-s,553,1514963,0.0-19.0-0.0-0.61,ATKNH6OR2G11O,3Q9SPIIRXM2ML6FVM0W2D0Z2IA6WAR,3DI28L7YXEUZW1EYVJE55DVM1OWE13,5,6
62,4,object_10,object_08,593.80000001192,7,2,451.30000001192,0.5555555555555556,1,object_09,1,987,0,5,0,restaurant_8,1,memory-2step-stake-s,554,1523259,0.0-19.0-0.0-0.62,ATKNH6OR2G11O,3Q9SPIIRXM2ML6FVM0W2D0Z2IA6WAR,3DI28L7YXEUZW1EYVJE55DVM1OWE13,8,7
63,1,object_05,object_06,750.59999996424,1,2,922.5,0.5555555555555556,1,object_09,1,992,0,5,1,desert_7,1,memory-2step-stake-s,555,1531978,0.0-19.0-0.0-0.63,ATKNH6OR2G11O,3Q9SPIIRXM2ML6FVM0W2D0Z2IA6WAR,3DI28L7YXEUZW1EYVJE55DVM1OWE13,2,1
64,1,object_06,object_05,590.39999997616,1,1,621.60000002384,0.3333333333333333,1,object_09,1,995,0,3,4,desert_1,1,memory-2step-stake-s,556,1540166,0.0-19.0-0.0-0.64,ATKNH6OR2G11O,3Q9SPIIRXM2ML6FVM0W2D0Z2IA6WAR,3DI28L7YXEUZW1EYVJE55DVM1OWE13,1,2
65,2,object_04,object_07,545.60000002384,3,1,528.30000001192,0.2222222222222222,1,object_09,1,997,0,2,3,forest_8,1,memory-2step-stake-s,557,1548177,0.0-19.0-0.0-0.65,ATKNH6OR2G11O,3Q9SPIIRXM2ML6FVM0W2D0Z2IA6WAR,3DI28L7YXEUZW1EYVJE55DVM1OWE13,3,4
66,2,object_07,object_04,503.69999998808,3,2,545.80000001192,0.0,1,object_09,5,997,0,0,5,forest_1,1,memory-2step-stake-s,558,1556001,0.0-19.0-0.0-0.66,ATKNH6OR2G11O,3Q9SPIIRXM2ML6FVM0W2D0Z2IA6WAR,3DI28L7YXEUZW1EYVJE55DVM1OWE13,4,3
67,1,object_06,object_05,773.19999998808,1,1,285.5,0.1111111111111111,1,object_09,1,998,0,1,9,desert_7,1,memory-2step-stake-s,559,1563670,0.0-19.0-0.0-0.67,ATKNH6OR2G11O,3Q9SPIIRXM2ML6FVM0W2D0Z2IA6WAR,3DI28L7YXEUZW1EYVJE55DVM1OWE13,1,2
68,1,object_06,object_05,674.69999998808,1,1,287.19999998808,0.2222222222222222,1,object_09,5,1008,0,2,7,desert_1,1,memory-2step-stake-s,560,1571434,0.0-19.0-0.0-0.68,ATKNH6OR2G11O,3Q9SPIIRXM2ML6FVM0W2D0Z2IA6WAR,3DI28L7YXEUZW1EYVJE55DVM1OWE13,1,2
69,4,object_10,object_08,772.60000002384,8,1,900.80000001192,0.8888888888888888,2,object_02,5,1048,0,2,8,restaurant_5,1,memory-2step-stake-s,561,1580496,0.0-19.0-0.0-0.69,ATKNH6OR2G11O,3Q9SPIIRXM2ML6FVM0W2D0Z2IA6WAR,3DI28L7YXEUZW1EYVJE55DVM1OWE13,8,7
70,4,object_10,object_08,734.59999996424,8,1,420.69999998808,0.8888888888888888,2,object_02,5,1088,0,4,8,restaurant_4,1,memory-2step-stake-s,562,1589045,0.0-19.0-0.0-0.70,ATKNH6OR2G11O,3Q9SPIIRXM2ML6FVM0W2D0Z2IA6WAR,3DI28L7YXEUZW1EYVJE55DVM1OWE13,8,7
71,3,object_01,object_03,953.90000003576,6,1,340.30000001192,0.8888888888888888,2,object_02,5,1128,0,4,8,library_1,1,memory-2step-stake-s,563,1597515,0.0-19.0-0.0-0.71,ATKNH6OR2G11O,3Q9SPIIRXM2ML6FVM0W2D0Z2IA6WAR,3DI28L7YXEUZW1EYVJE55DVM1OWE13,6,5
72,3,object_01,object_03,591.19999998808,6,1,395.60000002384,0.8888888888888888,2,object_02,5,1168,0,4,8,library_6,1,memory-2step-stake-s,564,1606042,0.0-19.0-0.0-0.72,ATKNH6OR2G11O,3Q9SPIIRXM2ML6FVM0W2D0Z2IA6WAR,3DI28L7YXEUZW1EYVJE55DVM1OWE13,6,5
73,1,object_05,object_06,1093.5999999642,2,1,382.79999995232,1.0,2,object_02,5,1213,0,5,9,desert_6,1,memory-2step-stake-s,565,1614653,0.0-19.0-0.0-0.73,ATKNH6OR2G11O,3Q9SPIIRXM2ML6FVM0W2D0Z2IA6WAR,3DI28L7YXEUZW1EYVJE55DVM1OWE13,2,1
74,2,object_07,object_04,936.89999997616,4,1,416.89999997616,0.8888888888888888,2,object_02,1,1221,0,3,8,forest_4,1,memory-2step-stake-s,566,1623197,0.0-19.0-0.0-0.74,ATKNH6OR2G11O,3Q9SPIIRXM2ML6FVM0W2D0Z2IA6WAR,3DI28L7YXEUZW1EYVJE55DVM1OWE13,4,3
75,1,object_06,object_05,673.19999998808,2,2,489.5,0.7777777777777778,2,object_02,5,1256,0,0,7,desert_7,1,memory-2step-stake-s,567,1631728,0.0-19.0-0.0-0.75,ATKNH6OR2G11O,3Q9SPIIRXM2ML6FVM0W2D0Z2IA6WAR,3DI28L7YXEUZW1EYVJE55DVM1OWE13,1,2
76,2,object_04,object_07,1025.8000000119,4,2,358.30000001192,0.7777777777777778,2,object_02,1,1263,0,4,7,forest_4,1,memory-2step-stake-s,568,1640087,0.0-19.0-0.0-0.76,ATKNH6OR2G11O,3Q9SPIIRXM2ML6FVM0W2D0Z2IA6WAR,3DI28L7YXEUZW1EYVJE55DVM1OWE13,3,4
77,1,object_05,object_06,1019.0,2,1,363.70000004768,0.7777777777777778,2,object_02,1,1270,0,7,7,desert_1,1,memory-2step-stake-s,569,1648511,0.0-19.0-0.0-0.77,ATKNH6OR2G11O,3Q9SPIIRXM2ML6FVM0W2D0Z2IA6WAR,3DI28L7YXEUZW1EYVJE55DVM1OWE13,2,1
78,1,object_05,object_06,1345.0,2,1,365.40000003576,0.4444444444444444,2,object_02,1,1274,0,5,4,desert_6,1,memory-2step-stake-s,570,1656616,0.0-19.0-0.0-0.78,ATKNH6OR2G11O,3Q9SPIIRXM2ML6FVM0W2D0Z2IA6WAR,3DI28L7YXEUZW1EYVJE55DVM1OWE13,2,1
79,4,object_10,object_08,760.30000001192,8,1,354.0,0.4444444444444444,2,object_02,5,1294,0,4,4,restaurant_8,1,memory-2step-stake-s,571,1664723,0.0-19.0-0.0-0.79,ATKNH6OR2G11O,3Q9SPIIRXM2ML6FVM0W2D0Z2IA6WAR,3DI28L7YXEUZW1EYVJE55DVM1OWE13,8,7
80,3,object_03,object_01,709.5,6,2,459.40000003576,0.4444444444444444,2,object_02,5,1314,0,4,4,library_6,1,memory-2step-stake-s,572,1672878,0.0-19.0-0.0-0.80,ATKNH6OR2G11O,3Q9SPIIRXM2ML6FVM0W2D0Z2IA6WAR,3DI28L7YXEUZW1EYVJE55DVM1OWE13,5,6
81,1,object_06,object_05,1039.8999999762,2,2,448.89999997616,0.4444444444444444,2,object_02,1,1318,0,5,4,desert_7,1,memory-2step-stake-s,573,1681035,0.0-19.0-0.0-0.81,ATKNH6OR2G11O,3Q9SPIIRXM2ML6FVM0W2D0Z2IA6WAR,3DI28L7YXEUZW1EYVJE55DVM1OWE13,1,2
82,4,object_10,object_08,879.69999998808,8,1,424.90000003576,0.7777777777777778,2,object_02,1,1325,0,8,7,restaurant_5,1,memory-2step-stake-s,574,1689498,0.0-19.0-0.0-0.82,ATKNH6OR2G11O,3Q9SPIIRXM2ML6FVM0W2D0Z2IA6WAR,3DI28L7YXEUZW1EYVJE55DVM1OWE13,8,7
83,2,object_07,object_04,846.5,4,1,694.30000001192,0.4444444444444444,2,object_02,1,1329,0,8,4,forest_6,1,memory-2step-stake-s,575,1697877,0.0-19.0-0.0-0.83,ATKNH6OR2G11O,3Q9SPIIRXM2ML6FVM0W2D0Z2IA6WAR,3DI28L7YXEUZW1EYVJE55DVM1OWE13,4,3
84,3,object_03,object_01,997.80000001192,6,2,594.89999997616,0.4444444444444444,2,object_02,5,1349,0,7,4,library_1,1,memory-2step-stake-s,576,1706216,0.0-19.0-0.0-0.84,ATKNH6OR2G11O,3Q9SPIIRXM2ML6FVM0W2D0Z2IA6WAR,3DI28L7YXEUZW1EYVJE55DVM1OWE13,5,6
85,2,object_07,object_04,663.40000003576,4,1,458.80000001192,0.1111111111111111,2,object_02,1,1350,0,5,1,forest_4,1,memory-2step-stake-s,577,1714045,0.0-19.0-0.0-0.85,ATKNH6OR2G11O,3Q9SPIIRXM2ML6FVM0W2D0Z2IA6WAR,3DI28L7YXEUZW1EYVJE55DVM1OWE13,4,3
86,3,object_01,object_03,441.09999996424,5,2,416.89999997616,0.2222222222222222,1,object_09,5,1360,0,2,1,library_4,1,memory-2step-stake-s,578,1721913,0.0-19.0-0.0-0.86,ATKNH6OR2G11O,3Q9SPIIRXM2ML6FVM0W2D0Z2IA6WAR,3DI28L7YXEUZW1EYVJE55DVM1OWE13,6,5
87,2,object_04,object_07,1078.3000000119,3,1,363.80000001192,0.1111111111111111,1,object_09,5,1365,0,1,1,forest_4,1,memory-2step-stake-s,579,1729659,0.0-19.0-0.0-0.87,ATKNH6OR2G11O,3Q9SPIIRXM2ML6FVM0W2D0Z2IA6WAR,3DI28L7YXEUZW1EYVJE55DVM1OWE13,3,4
88,1,object_05,object_06,790.80000001192,2,1,557.69999998808,0.6666666666666666,2,object_02,1,1371,0,5,6,desert_8,1,memory-2step-stake-s,580,1738158,0.0-19.0-0.0-0.88,ATKNH6OR2G11O,3Q9SPIIRXM2ML6FVM0W2D0Z2IA6WAR,3DI28L7YXEUZW1EYVJE55DVM1OWE13,2,1
89,1,object_05,object_06,808.10000002384,2,1,383.69999998808,0.5555555555555556,2,object_02,1,1376,0,6,5,desert_1,1,memory-2step-stake-s,581,1746371,0.0-19.0-0.0-0.89,ATKNH6OR2G11O,3Q9SPIIRXM2ML6FVM0W2D0Z2IA6WAR,3DI28L7YXEUZW1EYVJE55DVM1OWE13,2,1
90,1,object_05,object_06,590.40000003576,2,1,430.5,0.6666666666666666,2,object_02,1,1382,0,5,6,desert_6,1,memory-2step-stake-s,582,1754691,0.0-19.0-0.0-0.90,ATKNH6OR2G11O,3Q9SPIIRXM2ML6FVM0W2D0Z2IA6WAR,3DI28L7YXEUZW1EYVJE55DVM1OWE13,2,1
91,2,object_07,object_04,868.89999997616,4,1,338.89999997616,1.0,2,object_02,1,1391,0,4,9,forest_8,1,memory-2step-stake-s,583,1763281,0.0-19.0-0.0-0.91,ATKNH6OR2G11O,3Q9SPIIRXM2ML6FVM0W2D0Z2IA6WAR,3DI28L7YXEUZW1EYVJE55DVM1OWE13,4,3
92,1,object_06,object_05,902.30000001192,2,2,746.0,0.8888888888888888,2,object_02,1,1399,0,1,8,desert_1,1,memory-2step-stake-s,584,1772172,0.0-19.0-0.0-0.92,ATKNH6OR2G11O,3Q9SPIIRXM2ML6FVM0W2D0Z2IA6WAR,3DI28L7YXEUZW1EYVJE55DVM1OWE13,1,2
93,1,object_06,object_05,957.80000001192,2,2,534.39999997616,0.8888888888888888,2,object_02,1,1407,0,3,8,desert_1,1,memory-2step-stake-s,585,1780891,0.0-19.0-0.0-0.93,ATKNH6OR2G11O,3Q9SPIIRXM2ML6FVM0W2D0Z2IA6WAR,3DI28L7YXEUZW1EYVJE55DVM1OWE13,1,2
94,4,object_08,object_10,862.70000004768,8,2,456.60000002384,0.7777777777777778,2,object_02,5,1442,0,3,7,restaurant_7,1,memory-2step-stake-s,586,1789375,0.0-19.0-0.0-0.94,ATKNH6OR2G11O,3Q9SPIIRXM2ML6FVM0W2D0Z2IA6WAR,3DI28L7YXEUZW1EYVJE55DVM1OWE13,7,8
95,1,object_05,object_06,853.59999996424,2,1,402.0,0.7777777777777778,2,object_02,1,1449,0,4,7,desert_8,1,memory-2step-stake-s,587,1797798,0.0-19.0-0.0-0.95,ATKNH6OR2G11O,3Q9SPIIRXM2ML6FVM0W2D0Z2IA6WAR,3DI28L7YXEUZW1EYVJE55DVM1OWE13,2,1
96,3,object_01,object_03,1377.3000000119,5,2,412.80000001192,0.7777777777777778,1,object_09,5,1484,0,7,9,library_6,1,memory-2step-stake-s,588,1806262,0.0-19.0-0.0-0.96,ATKNH6OR2G11O,3Q9SPIIRXM2ML6FVM0W2D0Z2IA6WAR,3DI28L7YXEUZW1EYVJE55DVM1OWE13,6,5
97,1,object_05,object_06,496.30000001192,1,2,409.19999998808,0.8888888888888888,1,object_09,1,1492,0,8,4,desert_7,1,memory-2step-stake-s,589,1814814,0.0-19.0-0.0-0.97,ATKNH6OR2G11O,3Q9SPIIRXM2ML6FVM0W2D0Z2IA6WAR,3DI28L7YXEUZW1EYVJE55DVM1OWE13,2,1
98,4,object_08,object_10,890.90000003576,7,1,414.10000002384,0.8888888888888888,1,object_09,5,1532,0,8,6,restaurant_7,1,memory-2step-stake-s,590,1823375,0.0-19.0-0.0-0.98,ATKNH6OR2G11O,3Q9SPIIRXM2ML6FVM0W2D0Z2IA6WAR,3DI28L7YXEUZW1EYVJE55DVM1OWE13,7,8
99,3,object_03,object_01,661.30000001192,5,1,403.60000002384,0.7777777777777778,1,object_09,5,1567,0,7,7,library_1,1,memory-2step-stake-s,591,1831813,0.0-19.0-0.0-0.99,ATKNH6OR2G11O,3Q9SPIIRXM2ML6FVM0W2D0Z2IA6WAR,3DI28L7YXEUZW1EYVJE55DVM1OWE13,5,6
100,3,object_03,object_01,600.60000002384,5,1,419.20000004768,0.8888888888888888,1,object_09,5,1607,0,8,7,library_4,1,memory-2step-stake-s,592,1840423,0.0-19.0-0.0-0.100,ATKNH6OR2G11O,3Q9SPIIRXM2ML6FVM0W2D0Z2IA6WAR,3DI28L7YXEUZW1EYVJE55DVM1OWE13,5,6
101,4,object_10,object_08,805.0,7,2,376.30000001192,0.6666666666666666,1,object_09,5,1637,0,6,9,restaurant_5,1,memory-2step-stake-s,593,1848737,0.0-19.0-0.0-0.101,ATKNH6OR2G11O,3Q9SPIIRXM2ML6FVM0W2D0Z2IA6WAR,3DI28L7YXEUZW1EYVJE55DVM1OWE13,8,7
102,4,object_08,object_10,757.79999995232,7,1,-1.0,0.0,1,object_09,1,1637,0,8,8,restaurant_4,1,memory-2step-stake-s,594,1857326,0.0-19.0-0.0-0.102,ATKNH6OR2G11O,3Q9SPIIRXM2ML6FVM0W2D0Z2IA6WAR,3DI28L7YXEUZW1EYVJE55DVM1OWE13,7,8
103,3,object_03,object_01,666.19999998808,5,1,283.30000001192,0.7777777777777778,1,object_09,5,1672,0,7,8,library_6,1,memory-2step-stake-s,595,1865638,0.0-19.0-0.0-0.103,ATKNH6OR2G11O,3Q9SPIIRXM2ML6FVM0W2D0Z2IA6WAR,3DI28L7YXEUZW1EYVJE55DVM1OWE13,5,6
104,1,object_05,object_06,905.89999997616,1,2,309.5,0.5555555555555556,1,object_09,1,1677,0,5,8,desert_1,1,memory-2step-stake-s,596,1873748,0.0-19.0-0.0-0.104,ATKNH6OR2G11O,3Q9SPIIRXM2ML6FVM0W2D0Z2IA6WAR,3DI28L7YXEUZW1EYVJE55DVM1OWE13,2,1
105,3,object_03,object_01,665.39999997616,5,1,610.5,0.8888888888888888,1,object_09,5,1717,0,8,7,library_1,1,memory-2step-stake-s,597,1882527,0.0-19.0-0.0-0.105,ATKNH6OR2G11O,3Q9SPIIRXM2ML6FVM0W2D0Z2IA6WAR,3DI28L7YXEUZW1EYVJE55DVM1OWE13,5,6
106,2,object_04,object_07,1192.3999999762,3,1,438.80000001192,0.5555555555555556,1,object_09,1,1722,0,5,5,forest_6,1,memory-2step-stake-s,598,1890791,0.0-19.0-0.0-0.106,ATKNH6OR2G11O,3Q9SPIIRXM2ML6FVM0W2D0Z2IA6WAR,3DI28L7YXEUZW1EYVJE55DVM1OWE13,3,4
107,4,object_10,object_08,665.0,7,2,469.30000001192,0.5555555555555556,1,object_09,5,1747,0,5,3,restaurant_8,1,memory-2step-stake-s,599,1899074,0.0-19.0-0.0-0.107,ATKNH6OR2G11O,3Q9SPIIRXM2ML6FVM0W2D0Z2IA6WAR,3DI28L7YXEUZW1EYVJE55DVM1OWE13,8,7
108,3,object_03,object_01,597.39999997616,5,1,440.5,0.4444444444444444,1,object_09,1,1751,0,4,4,library_3,1,memory-2step-stake-s,600,1907246,0.0-19.0-0.0-0.108,ATKNH6OR2G11O,3Q9SPIIRXM2ML6FVM0W2D0Z2IA6WAR,3DI28L7YXEUZW1EYVJE55DVM1OWE13,5,6
109,3,object_01,object_03,695.5,5,2,420.59999996424,0.3333333333333333,1,object_09,1,1754,0,3,6,library_4,1,memory-2step-stake-s,601,1915286,0.0-19.0-0.0-0.109,ATKNH6OR2G11O,3Q9SPIIRXM2ML6FVM0W2D0Z2IA6WAR,3DI28L7YXEUZW1EYVJE55DVM1OWE13,6,5
110,4,object_08,object_10,842.5,7,1,545.10000002384,0.5555555555555556,1,object_09,5,1779,0,5,4,restaurant_7,1,memory-2step-stake-s,602,1923663,0.0-19.0-0.0-0.110,ATKNH6OR2G11O,3Q9SPIIRXM2ML6FVM0W2D0Z2IA6WAR,3DI28L7YXEUZW1EYVJE55DVM1OWE13,7,8
111,4,object_10,object_08,551.30000001192,7,2,436.90000003576,0.8888888888888888,1,object_09,5,1819,0,8,4,restaurant_4,1,memory-2step-stake-s,603,1932241,0.0-19.0-0.0-0.111,ATKNH6OR2G11O,3Q9SPIIRXM2ML6FVM0W2D0Z2IA6WAR,3DI28L7YXEUZW1EYVJE55DVM1OWE13,8,7
112,4,object_08,object_10,700.39999997616,7,1,351.0,0.6666666666666666,1,object_09,5,1849,0,6,1,restaurant_8,1,memory-2step-stake-s,604,1940503,0.0-19.0-0.0-0.112,ATKNH6OR2G11O,3Q9SPIIRXM2ML6FVM0W2D0Z2IA6WAR,3DI28L7YXEUZW1EYVJE55DVM1OWE13,7,8
113,2,object_04,object_07,630.5,3,1,494.80000001192,0.5555555555555556,1,object_09,1,1854,0,5,1,forest_4,1,memory-2step-stake-s,605,1948845,0.0-19.0-0.0-0.113,ATKNH6OR2G11O,3Q9SPIIRXM2ML6FVM0W2D0Z2IA6WAR,3DI28L7YXEUZW1EYVJE55DVM1OWE13,3,4
114,1,object_06,object_05,724.80000001192,1,1,356.29999995232,0.3333333333333333,1,object_09,1,1857,0,3,2,desert_6,1,memory-2step-stake-s,606,1956811,0.0-19.0-0.0-0.114,ATKNH6OR2G11O,3Q9SPIIRXM2ML6FVM0W2D0Z2IA6WAR,3DI28L7YXEUZW1EYVJE55DVM1OWE13,1,2
115,4,object_10,object_08,665.40000003576,7,2,463.09999996424,0.5555555555555556,1,object_09,1,1862,0,5,3,restaurant_8,1,memory-2step-stake-s,607,1965107,0.0-19.0-0.0-0.115,ATKNH6OR2G11O,3Q9SPIIRXM2ML6FVM0W2D0Z2IA6WAR,3DI28L7YXEUZW1EYVJE55DVM1OWE13,8,7
116,4,object_10,object_08,524.09999996424,7,2,591.60000002384,1.0,1,object_09,5,1907,0,9,3,restaurant_7,1,memory-2step-stake-s,608,1974000,0.0-19.0-0.0-0.116,ATKNH6OR2G11O,3Q9SPIIRXM2ML6FVM0W2D0Z2IA6WAR,3DI28L7YXEUZW1EYVJE55DVM1OWE13,8,7
117,3,object_01,object_03,660.19999998808,5,2,495.09999996424,0.8888888888888888,1,object_09,1,1915,0,8,6,library_6,1,memory-2step-stake-s,609,1982668,0.0-19.0-0.0-0.117,ATKNH6OR2G11O,3Q9SPIIRXM2ML6FVM0W2D0Z2IA6WAR,3DI28L7YXEUZW1EYVJE55DVM1OWE13,6,5
118,3,object_03,object_01,601.19999998808,5,1,418.0,0.7777777777777778,1,object_09,5,1950,0,7,6,library_6,1,memory-2step-stake-s,610,1991154,0.0-19.0-0.0-0.118,ATKNH6OR2G11O,3Q9SPIIRXM2ML6FVM0W2D0Z2IA6WAR,3DI28L7YXEUZW1EYVJE55DVM1OWE13,5,6
119,3,object_01,object_03,566.0,5,2,597.60000002384,1.0,1,object_09,5,1995,0,9,6,library_3,1,memory-2step-stake-s,611,2000030,0.0-19.0-0.0-0.119,ATKNH6OR2G11O,3Q9SPIIRXM2ML6FVM0W2D0Z2IA6WAR,3DI28L7YXEUZW1EYVJE55DVM1OWE13,6,5
120,1,object_05,object_06,613.69999998808,2,1,299.89999997616,0.4444444444444444,2,object_02,1,1999,0,6,4,desert_1,1,memory-2step-stake-s,612,2008060,0.0-19.0-0.0-0.120,ATKNH6OR2G11O,3Q9SPIIRXM2ML6FVM0W2D0Z2IA6WAR,3DI28L7YXEUZW1EYVJE55DVM1OWE13,2,1
121,3,object_01,object_03,480.70000004768,5,2,639.40000003576,0.7777777777777778,1,object_09,5,2034,0,7,4,library_1,1,memory-2step-stake-s,613,2016749,0.0-19.0-0.0-0.121,ATKNH6OR2G11O,3Q9SPIIRXM2ML6FVM0W2D0Z2IA6WAR,3DI28L7YXEUZW1EYVJE55DVM1OWE13,6,5
122,3,object_03,object_01,589.39999997616,5,1,384.10000002384,0.6666666666666666,1,object_09,1,2040,0,6,4,library_3,1,memory-2step-stake-s,614,2025046,0.0-19.0-0.0-0.122,ATKNH6OR2G11O,3Q9SPIIRXM2ML6FVM0W2D0Z2IA6WAR,3DI28L7YXEUZW1EYVJE55DVM1OWE13,5,6
123,4,object_08,object_10,999.69999998808,8,2,450.09999996424,0.1111111111111111,2,object_02,5,2045,0,8,1,restaurant_7,1,memory-2step-stake-s,615,2032884,0.0-19.0-0.0-0.123,ATKNH6OR2G11O,3Q9SPIIRXM2ML6FVM0W2D0Z2IA6WAR,3DI28L7YXEUZW1EYVJE55DVM1OWE13,7,8
124,4,object_10,object_08,619.59999996424,7,2,345.09999996424,0.7777777777777778,1,object_09,5,2080,0,7,0,restaurant_8,1,memory-2step-stake-s,616,2041244,0.0-19.0-0.0-0.124,ATKNH6OR2G11O,3Q9SPIIRXM2ML6FVM0W2D0Z2IA6WAR,3DI28L7YXEUZW1EYVJE55DVM1OWE13,8,7
125,4,object_08,object_10,574.39999997616,7,1,360.0,0.8888888888888888,1,object_09,5,2120,0,8,1,restaurant_8,1,memory-2step-stake-s,617,2049742,0.0-19.0-0.0-0.125,ATKNH6OR2G11O,3Q9SPIIRXM2ML6FVM0W2D0Z2IA6WAR,3DI28L7YXEUZW1EYVJE55DVM1OWE13,7,8
126,4,object_08,object_10,820.5,7,1,508.90000003576,0.5555555555555556,1,object_09,5,2145,0,5,2,restaurant_8,1,memory-2step-stake-s,618,2058085,0.0-19.0-0.0-0.126,ATKNH6OR2G11O,3Q9SPIIRXM2ML6FVM0W2D0Z2IA6WAR,3DI28L7YXEUZW1EYVJE55DVM1OWE13,7,8
127,4,object_08,object_10,586.59999996424,7,1,365.60000002384,0.6666666666666666,1,object_09,5,2175,0,6,5,restaurant_5,1,memory-2step-stake-s,619,2066366,0.0-19.0-0.0-0.127,ATKNH6OR2G11O,3Q9SPIIRXM2ML6FVM0W2D0Z2IA6WAR,3DI28L7YXEUZW1EYVJE55DVM1OWE13,7,8
128,2,object_04,object_07,842.30000001192,3,1,481.59999996424,0.7777777777777778,1,object_09,5,2210,0,7,2,forest_6,1,memory-2step-stake-s,621,2344665,0.0-19.0-0.1-0.128,ATKNH6OR2G11O,3Q9SPIIRXM2ML6FVM0W2D0Z2IA6WAR,3DI28L7YXEUZW1EYVJE55DVM1OWE13,3,4
129,4,object_08,object_10,777.19999998808,7,1,483.09999996424,1.0,1,object_09,5,2255,0,9,5,restaurant_5,1,memory-2step-stake-s,622,2353370,0.0-19.0-0.1-0.129,ATKNH6OR2G11O,3Q9SPIIRXM2ML6FVM0W2D0Z2IA6WAR,3DI28L7YXEUZW1EYVJE55DVM1OWE13,7,8
130,4,object_08,object_10,655.5,7,1,543.19999998808,0.8888888888888888,1,object_09,5,2295,0,8,3,restaurant_7,1,memory-2step-stake-s,623,2362045,0.0-19.0-0.1-0.130,ATKNH6OR2G11O,3Q9SPIIRXM2ML6FVM0W2D0Z2IA6WAR,3DI28L7YXEUZW1EYVJE55DVM1OWE13,7,8
131,2,object_07,object_04,578.89999997616,3,2,427.09999996424,1.0,1,object_09,5,2340,0,9,4,forest_8,1,memory-2step-stake-s,624,2370747,0.0-19.0-0.1-0.131,ATKNH6OR2G11O,3Q9SPIIRXM2ML6FVM0W2D0Z2IA6WAR,3DI28L7YXEUZW1EYVJE55DVM1OWE13,4,3
132,1,object_05,object_06,1272.0999999642,1,2,398.10000002384,1.0,1,object_09,1,2349,0,9,3,desert_7,1,memory-2step-stake-s,625,2379402,0.0-19.0-0.1-0.132,ATKNH6OR2G11O,3Q9SPIIRXM2ML6FVM0W2D0Z2IA6WAR,3DI28L7YXEUZW1EYVJE55DVM1OWE13,2,1
133,4,object_10,object_08,670.69999998808,7,2,435.39999997616,1.0,1,object_09,1,2358,0,9,5,restaurant_4,1,memory-2step-stake-s,626,2388074,0.0-19.0-0.1-0.133,ATKNH6OR2G11O,3Q9SPIIRXM2ML6FVM0W2D0Z2IA6WAR,3DI28L7YXEUZW1EYVJE55DVM1OWE13,8,7
134,4,object_10,object_08,538.60000002384,7,2,318.19999998808,0.8888888888888888,1,object_09,5,2398,0,8,7,restaurant_7,1,memory-2step-stake-s,627,2396529,0.0-19.0-0.1-0.134,ATKNH6OR2G11O,3Q9SPIIRXM2ML6FVM0W2D0Z2IA6WAR,3DI28L7YXEUZW1EYVJE55DVM1OWE13,8,7
135,1,object_05,object_06,813.80000001192,1,2,324.60000002384,0.6666666666666666,1,object_09,1,2404,0,6,6,desert_8,1,memory-2step-stake-s,628,2404765,0.0-19.0-0.1-0.135,ATKNH6OR2G11O,3Q9SPIIRXM2ML6FVM0W2D0Z2IA6WAR,3DI28L7YXEUZW1EYVJE55DVM1OWE13,2,1
136,4,object_10,object_08,556.80000001192,7,2,448.69999998808,0.6666666666666666,1,object_09,5,2434,0,6,2,restaurant_8,1,memory-2step-stake-s,629,2413186,0.0-19.0-0.1-0.136,ATKNH6OR2G11O,3Q9SPIIRXM2ML6FVM0W2D0Z2IA6WAR,3DI28L7YXEUZW1EYVJE55DVM1OWE13,8,7
137,2,object_07,object_04,567.19999998808,3,2,485.39999997616,0.6666666666666666,1,object_09,5,2464,0,6,2,forest_1,1,memory-2step-stake-s,630,2421600,0.0-19.0-0.1-0.137,ATKNH6OR2G11O,3Q9SPIIRXM2ML6FVM0W2D0Z2IA6WAR,3DI28L7YXEUZW1EYVJE55DVM1OWE13,4,3
138,3,object_03,object_01,735.10000002384,5,1,351.0,0.6666666666666666,1,object_09,5,2494,0,6,2,library_4,1,memory-2step-stake-s,631,2429852,0.0-19.0-0.1-0.138,ATKNH6OR2G11O,3Q9SPIIRXM2ML6FVM0W2D0Z2IA6WAR,3DI28L7YXEUZW1EYVJE55DVM1OWE13,5,6
139,3,object_03,object_01,707.89999997616,5,1,421.90000003576,0.7777777777777778,1,object_09,5,2529,0,7,6,library_1,1,memory-2step-stake-s,632,2438307,0.0-19.0-0.1-0.139,ATKNH6OR2G11O,3Q9SPIIRXM2ML6FVM0W2D0Z2IA6WAR,3DI28L7YXEUZW1EYVJE55DVM1OWE13,5,6
140,2,object_07,object_04,548.30000001192,3,2,519.0,1.0,1,object_09,1,2538,0,9,7,forest_6,1,memory-2step-stake-s,633,2447026,0.0-19.0-0.1-0.140,ATKNH6OR2G11O,3Q9SPIIRXM2ML6FVM0W2D0Z2IA6WAR,3DI28L7YXEUZW1EYVJE55DVM1OWE13,4,3
141,1,object_05,object_06,820.30000001192,1,2,444.5,0.8888888888888888,1,object_09,5,2578,0,8,7,desert_8,1,memory-2step-stake-s,634,2455572,0.0-19.0-0.1-0.141,ATKNH6OR2G11O,3Q9SPIIRXM2ML6FVM0W2D0Z2IA6WAR,3DI28L7YXEUZW1EYVJE55DVM1OWE13,2,1
142,1,object_06,object_05,965.09999996424,1,1,436.30000001192,0.7777777777777778,1,object_09,1,2585,0,7,7,desert_1,1,memory-2step-stake-s,635,2464056,0.0-19.0-0.1-0.142,ATKNH6OR2G11O,3Q9SPIIRXM2ML6FVM0W2D0Z2IA6WAR,3DI28L7YXEUZW1EYVJE55DVM1OWE13,1,2
143,3,object_01,object_03,628.0,5,2,453.39999997616,1.0,1,object_09,5,2630,0,9,2,library_1,1,memory-2step-stake-s,636,2472758,0.0-19.0-0.1-0.143,ATKNH6OR2G11O,3Q9SPIIRXM2ML6FVM0W2D0Z2IA6WAR,3DI28L7YXEUZW1EYVJE55DVM1OWE13,6,5
144,2,object_04,object_07,796.69999998808,3,1,389.69999998808,0.7777777777777778,1,object_09,1,2637,0,7,1,forest_1,1,memory-2step-stake-s,637,2481179,0.0-19.0-0.1-0.144,ATKNH6OR2G11O,3Q9SPIIRXM2ML6FVM0W2D0Z2IA6WAR,3DI28L7YXEUZW1EYVJE55DVM1OWE13,3,4
145,2,object_04,object_07,771.89999997616,3,1,399.5,0.8888888888888888,1,object_09,1,2645,0,8,3,forest_4,1,memory-2step-stake-s,638,2489695,0.0-19.0-0.1-0.145,ATKNH6OR2G11O,3Q9SPIIRXM2ML6FVM0W2D0Z2IA6WAR,3DI28L7YXEUZW1EYVJE55DVM1OWE13,3,4
146,1,object_06,object_05,804.10000002384,1,1,469.20000004768,0.8888888888888888,1,object_09,5,2685,0,8,3,desert_7,1,memory-2step-stake-s,639,2498259,0.0-19.0-0.1-0.146,ATKNH6OR2G11O,3Q9SPIIRXM2ML6FVM0W2D0Z2IA6WAR,3DI28L7YXEUZW1EYVJE55DVM1OWE13,1,2
147,2,object_07,object_04,634.5,3,2,440.80000001192,0.4444444444444444,1,object_09,1,2689,0,4,4,forest_6,1,memory-2step-stake-s,640,2506383,0.0-19.0-0.1-0.147,ATKNH6OR2G11O,3Q9SPIIRXM2ML6FVM0W2D0Z2IA6WAR,3DI28L7YXEUZW1EYVJE55DVM1OWE13,4,3
148,4,object_10,object_08,524.60000002384,7,2,462.89999997616,0.5555555555555556,1,object_09,5,2714,0,5,5,restaurant_5,1,memory-2step-stake-s,641,2514673,0.0-19.0-0.1-0.148,ATKNH6OR2G11O,3Q9SPIIRXM2ML6FVM0W2D0Z2IA6WAR,3DI28L7YXEUZW1EYVJE55DVM1OWE13,8,7
149,4,object_08,object_10,654.0,7,1,344.80000001192,0.3333333333333333,1,object_09,1,2717,0,3,3,restaurant_5,1,memory-2step-stake-s,642,2522627,0.0-19.0-0.1-0.149,ATKNH6OR2G11O,3Q9SPIIRXM2ML6FVM0W2D0Z2IA6WAR,3DI28L7YXEUZW1EYVJE55DVM1OWE13,7,8
150,4,object_08,object_10,559.5,7,1,360.69999998808,0.3333333333333333,1,object_09,5,2732,0,3,4,restaurant_8,1,memory-2step-stake-s,643,2530563,0.0-19.0-0.1-0.150,ATKNH6OR2G11O,3Q9SPIIRXM2ML6FVM0W2D0Z2IA6WAR,3DI28L7YXEUZW1EYVJE55DVM1OWE13,7,8
151,1,object_05,object_06,840.89999997616,1,2,426.5,0.4444444444444444,1,object_09,1,2736,0,4,4,desert_1,1,memory-2step-stake-s,644,2538687,0.0-19.0-0.1-0.151,ATKNH6OR2G11O,3Q9SPIIRXM2ML6FVM0W2D0Z2IA6WAR,3DI28L7YXEUZW1EYVJE55DVM1OWE13,2,1
152,1,object_05,object_06,609.39999997616,1,2,-1.0,0.0,1,object_09,1,2736,0,3,6,desert_1,1,memory-2step-stake-s,645,2547231,0.0-19.0-0.1-0.152,ATKNH6OR2G11O,3Q9SPIIRXM2ML6FVM0W2D0Z2IA6WAR,3DI28L7YXEUZW1EYVJE55DVM1OWE13,2,1
153,1,object_06,object_05,624.69999998808,1,1,658.40000003576,0.3333333333333333,1,object_09,5,2751,0,3,8,desert_8,1,memory-2step-stake-s,646,2555482,0.0-19.0-0.1-0.153,ATKNH6OR2G11O,3Q9SPIIRXM2ML6FVM0W2D0Z2IA6WAR,3DI28L7YXEUZW1EYVJE55DVM1OWE13,1,2
154,1,object_06,object_05,896.80000001192,1,1,490.0,0.1111111111111111,1,object_09,1,2752,0,1,9,desert_7,1,memory-2step-stake-s,647,2563340,0.0-19.0-0.1-0.154,ATKNH6OR2G11O,3Q9SPIIRXM2ML6FVM0W2D0Z2IA6WAR,3DI28L7YXEUZW1EYVJE55DVM1OWE13,1,2
155,3,object_03,object_01,907.69999998808,5,1,1093.8999999762,0.1111111111111111,1,object_09,5,2757,0,1,9,library_3,1,memory-2step-stake-s,648,2571824,0.0-19.0-0.1-0.155,ATKNH6OR2G11O,3Q9SPIIRXM2ML6FVM0W2D0Z2IA6WAR,3DI28L7YXEUZW1EYVJE55DVM1OWE13,5,6
156,4,object_10,object_08,542.30000001192,7,2,479.39999997616,0.2222222222222222,1,object_09,5,2767,0,2,9,restaurant_8,1,memory-2step-stake-s,649,2579790,0.0-19.0-0.1-0.156,ATKNH6OR2G11O,3Q9SPIIRXM2ML6FVM0W2D0Z2IA6WAR,3DI28L7YXEUZW1EYVJE55DVM1OWE13,8,7
157,4,object_08,object_10,650.90000003576,7,1,353.39999997616,0.1111111111111111,1,object_09,5,2772,0,1,7,restaurant_5,1,memory-2step-stake-s,650,2587521,0.0-19.0-0.1-0.157,ATKNH6OR2G11O,3Q9SPIIRXM2ML6FVM0W2D0Z2IA6WAR,3DI28L7YXEUZW1EYVJE55DVM1OWE13,7,8
158,2,object_04,object_07,1045.0,3,1,469.10000002384,0.0,1,object_09,5,2772,0,0,6,forest_4,1,memory-2step-stake-s,651,2595248,0.0-19.0-0.1-0.158,ATKNH6OR2G11O,3Q9SPIIRXM2ML6FVM0W2D0Z2IA6WAR,3DI28L7YXEUZW1EYVJE55DVM1OWE13,3,4
159,3,object_03,object_01,727.5,5,1,698.0,0.0,1,object_09,5,2772,0,0,4,library_1,1,memory-2step-stake-s,652,2603199,0.0-19.0-0.1-0.159,ATKNH6OR2G11O,3Q9SPIIRXM2ML6FVM0W2D0Z2IA6WAR,3DI28L7YXEUZW1EYVJE55DVM1OWE13,5,6
160,3,object_03,object_01,597.0,5,1,836.20000004768,0.4444444444444444,1,object_09,5,2792,0,4,3,library_1,1,memory-2step-stake-s,653,2611729,0.0-19.0-0.1-0.160,ATKNH6OR2G11O,3Q9SPIIRXM2ML6FVM0W2D0Z2IA6WAR,3DI28L7YXEUZW1EYVJE55DVM1OWE13,5,6
161,1,object_05,object_06,954.40000003576,1,2,467.0,0.3333333333333333,1,object_09,1,2795,0,3,2,desert_8,1,memory-2step-stake-s,654,2619775,0.0-19.0-0.1-0.161,ATKNH6OR2G11O,3Q9SPIIRXM2ML6FVM0W2D0Z2IA6WAR,3DI28L7YXEUZW1EYVJE55DVM1OWE13,2,1
162,1,object_06,object_05,692.5,1,1,403.0,0.1111111111111111,1,object_09,1,2796,0,1,4,desert_1,1,memory-2step-stake-s,655,2627525,0.0-19.0-0.1-0.162,ATKNH6OR2G11O,3Q9SPIIRXM2ML6FVM0W2D0Z2IA6WAR,3DI28L7YXEUZW1EYVJE55DVM1OWE13,1,2
163,1,object_05,object_06,1129.8999999762,1,2,456.10000002384,0.1111111111111111,1,object_09,1,2797,0,1,4,desert_8,1,memory-2step-stake-s,656,2635363,0.0-19.0-0.1-0.163,ATKNH6OR2G11O,3Q9SPIIRXM2ML6FVM0W2D0Z2IA6WAR,3DI28L7YXEUZW1EYVJE55DVM1OWE13,2,1
164,2,object_07,object_04,836.30000001192,3,2,440.80000001192,0.2222222222222222,1,object_09,1,2799,0,2,4,forest_4,1,memory-2step-stake-s,657,2643282,0.0-19.0-0.1-0.164,ATKNH6OR2G11O,3Q9SPIIRXM2ML6FVM0W2D0Z2IA6WAR,3DI28L7YXEUZW1EYVJE55DVM1OWE13,4,3
165,4,object_10,object_08,629.60000002384,7,2,449.19999998808,0.0,1,object_09,5,2799,0,0,4,restaurant_5,1,memory-2step-stake-s,658,2650966,0.0-19.0-0.1-0.165,ATKNH6OR2G11O,3Q9SPIIRXM2ML6FVM0W2D0Z2IA6WAR,3DI28L7YXEUZW1EYVJE55DVM1OWE13,8,7
166,1,object_05,object_06,900.89999997616,2,1,375.40000003576,0.6666666666666666,2,object_02,1,2805,0,3,6,desert_7,1,memory-2step-stake-s,659,2659248,0.0-19.0-0.1-0.166,ATKNH6OR2G11O,3Q9SPIIRXM2ML6FVM0W2D0Z2IA6WAR,3DI28L7YXEUZW1EYVJE55DVM1OWE13,2,1
167,1,object_05,object_06,964.29999995232,2,1,398.30000001192,0.4444444444444444,2,object_02,1,2809,0,4,4,desert_8,1,memory-2step-stake-s,660,2667354,0.0-19.0-0.1-0.167,ATKNH6OR2G11O,3Q9SPIIRXM2ML6FVM0W2D0Z2IA6WAR,3DI28L7YXEUZW1EYVJE55DVM1OWE13,2,1
168,3,object_01,object_03,748.20000004768,6,1,449.80000001192,0.6666666666666666,2,object_02,1,2815,0,4,6,library_1,1,memory-2step-stake-s,661,2675727,0.0-19.0-0.1-0.168,ATKNH6OR2G11O,3Q9SPIIRXM2ML6FVM0W2D0Z2IA6WAR,3DI28L7YXEUZW1EYVJE55DVM1OWE13,6,5
169,2,object_07,object_04,1019.3000000119,4,1,409.80000001192,0.5555555555555556,2,object_02,1,2820,0,6,5,forest_1,1,memory-2step-stake-s,662,2683934,0.0-19.0-0.1-0.169,ATKNH6OR2G11O,3Q9SPIIRXM2ML6FVM0W2D0Z2IA6WAR,3DI28L7YXEUZW1EYVJE55DVM1OWE13,4,3
170,3,object_03,object_01,757.90000003576,6,2,426.80000001192,0.2222222222222222,2,object_02,1,2822,0,6,2,library_4,1,memory-2step-stake-s,663,2691849,0.0-19.0-0.1-0.170,ATKNH6OR2G11O,3Q9SPIIRXM2ML6FVM0W2D0Z2IA6WAR,3DI28L7YXEUZW1EYVJE55DVM1OWE13,5,6
171,4,object_08,object_10,929.30000001192,8,2,385.0,0.4444444444444444,2,object_02,1,2826,0,5,4,restaurant_4,1,memory-2step-stake-s,664,2699928,0.0-19.0-0.1-0.171,ATKNH6OR2G11O,3Q9SPIIRXM2ML6FVM0W2D0Z2IA6WAR,3DI28L7YXEUZW1EYVJE55DVM1OWE13,7,8
172,4,object_08,object_10,626.69999998808,8,2,403.29999995232,0.3333333333333333,2,object_02,5,2841,0,7,3,restaurant_7,1,memory-2step-stake-s,665,2707909,0.0-19.0-0.1-0.172,ATKNH6OR2G11O,3Q9SPIIRXM2ML6FVM0W2D0Z2IA6WAR,3DI28L7YXEUZW1EYVJE55DVM1OWE13,7,8
173,3,object_01,object_03,684.39999997616,6,1,511.80000001192,0.1111111111111111,2,object_02,5,2846,0,9,1,library_1,1,memory-2step-stake-s,666,2715796,0.0-19.0-0.1-0.173,ATKNH6OR2G11O,3Q9SPIIRXM2ML6FVM0W2D0Z2IA6WAR,3DI28L7YXEUZW1EYVJE55DVM1OWE13,6,5
174,3,object_03,object_01,488.20000004768,5,1,545.0,0.8888888888888888,1,object_09,5,2886,0,8,1,library_6,1,memory-2step-stake-s,667,2724529,0.0-19.0-0.1-0.174,ATKNH6OR2G11O,3Q9SPIIRXM2ML6FVM0W2D0Z2IA6WAR,3DI28L7YXEUZW1EYVJE55DVM1OWE13,5,6
175,1,object_06,object_05,1281.3999999762,2,2,291.80000001192,0.1111111111111111,2,object_02,1,2887,0,8,1,desert_6,1,memory-2step-stake-s,668,2732182,0.0-19.0-0.1-0.175,ATKNH6OR2G11O,3Q9SPIIRXM2ML6FVM0W2D0Z2IA6WAR,3DI28L7YXEUZW1EYVJE55DVM1OWE13,1,2
176,3,object_03,object_01,849.20000004768,6,2,306.80000001192,0.0,2,object_02,5,2887,0,9,0,library_3,1,memory-2step-stake-s,669,2739757,0.0-19.0-0.1-0.176,ATKNH6OR2G11O,3Q9SPIIRXM2ML6FVM0W2D0Z2IA6WAR,3DI28L7YXEUZW1EYVJE55DVM1OWE13,5,6
177,1,object_06,object_05,754.69999998808,1,1,269.80000001192,0.7777777777777778,1,object_09,1,2894,0,7,2,desert_8,1,memory-2step-stake-s,670,2748041,0.0-19.0-0.1-0.177,ATKNH6OR2G11O,3Q9SPIIRXM2ML6FVM0W2D0Z2IA6WAR,3DI28L7YXEUZW1EYVJE55DVM1OWE13,1,2
178,1,object_05,object_06,-1.0,-1,-1,-1.0,0.0,-,0,5,2894,0,9,1,desert_6,1,memory-2step-stake-s,671,2754592,0.0-19.0-0.1-0.178,ATKNH6OR2G11O,3Q9SPIIRXM2ML6FVM0W2D0Z2IA6WAR,3DI28L7YXEUZW1EYVJE55DVM1OWE13,2,1
179,1,object_06,object_05,675.30000001192,1,1,274.5,0.7777777777777778,1,object_09,1,2901,0,7,2,desert_8,1,memory-2step-stake-s,672,2762906,0.0-19.0-0.1-0.179,ATKNH6OR2G11O,3Q9SPIIRXM2ML6FVM0W2D0Z2IA6WAR,3DI28L7YXEUZW1EYVJE55DVM1OWE13,1,2
180,1,object_05,object_06,769.19999998808,1,2,339.39999997616,0.6666666666666666,1,object_09,1,2907,0,6,1,desert_8,1,memory-2step-stake-s,673,2771216,0.0-19.0-0.1-0.180,ATKNH6OR2G11O,3Q9SPIIRXM2ML6FVM0W2D0Z2IA6WAR,3DI28L7YXEUZW1EYVJE55DVM1OWE13,2,1
181,3,object_03,object_01,1111.5,5,1,419.19999998808,0.5555555555555556,1,object_09,5,2932,0,5,2,library_3,1,memory-2step-stake-s,674,2779467,0.0-19.0-0.1-0.181,ATKNH6OR2G11O,3Q9SPIIRXM2ML6FVM0W2D0Z2IA6WAR,3DI28L7YXEUZW1EYVJE55DVM1OWE13,5,6
182,3,object_03,object_01,926.70000004768,5,1,306.30000001192,0.4444444444444444,1,object_09,5,2952,0,4,3,library_1,1,memory-2step-stake-s,675,2787461,0.0-19.0-0.1-0.182,ATKNH6OR2G11O,3Q9SPIIRXM2ML6FVM0W2D0Z2IA6WAR,3DI28L7YXEUZW1EYVJE55DVM1OWE13,5,6
183,1,object_05,object_06,844.0,1,2,314.09999996424,0.2222222222222222,1,object_09,1,2954,0,2,2,desert_8,1,memory-2step-stake-s,676,2795243,0.0-19.0-0.1-0.183,ATKNH6OR2G11O,3Q9SPIIRXM2ML6FVM0W2D0Z2IA6WAR,3DI28L7YXEUZW1EYVJE55DVM1OWE13,2,1
184,2,object_07,object_04,1124.3000000119,4,1,234.90000003576,0.5555555555555556,2,object_02,5,2979,0,2,5,forest_4,1,memory-2step-stake-s,677,2803318,0.0-19.0-0.1-0.184,ATKNH6OR2G11O,3Q9SPIIRXM2ML6FVM0W2D0Z2IA6WAR,3DI28L7YXEUZW1EYVJE55DVM1OWE13,4,3
185,4,object_08,object_10,-1.0,-1,-1,-1.0,0.0,-,0,1,2979,0,1,2,restaurant_8,1,memory-2step-stake-s,678,2809873,0.0-19.0-0.1-0.185,ATKNH6OR2G11O,3Q9SPIIRXM2ML6FVM0W2D0Z2IA6WAR,3DI28L7YXEUZW1EYVJE55DVM1OWE13,7,8
186,4,object_10,object_08,786.5,8,1,333.5,0.3333333333333333,2,object_02,5,2994,0,2,3,restaurant_7,1,memory-2step-stake-s,679,2817822,0.0-19.0-0.1-0.186,ATKNH6OR2G11O,3Q9SPIIRXM2ML6FVM0W2D0Z2IA6WAR,3DI28L7YXEUZW1EYVJE55DVM1OWE13,8,7
187,4,object_10,object_08,809.30000001192,8,1,238.70000004768,0.1111111111111111,2,object_02,5,2999,0,4,1,restaurant_8,1,memory-2step-stake-s,680,2825433,0.0-19.0-0.1-0.187,ATKNH6OR2G11O,3Q9SPIIRXM2ML6FVM0W2D0Z2IA6WAR,3DI28L7YXEUZW1EYVJE55DVM1OWE13,8,7
188,2,object_07,object_04,465.5,3,2,378.5,0.3333333333333333,1,object_09,1,3002,0,3,1,forest_8,1,memory-2step-stake-s,681,2833424,0.0-19.0-0.1-0.188,ATKNH6OR2G11O,3Q9SPIIRXM2ML6FVM0W2D0Z2IA6WAR,3DI28L7YXEUZW1EYVJE55DVM1OWE13,4,3
189,1,object_06,object_05,1250.2000000477,1,1,254.59999996424,0.2222222222222222,1,object_09,1,3004,0,2,1,desert_7,1,memory-2step-stake-s,682,2841169,0.0-19.0-0.1-0.189,ATKNH6OR2G11O,3Q9SPIIRXM2ML6FVM0W2D0Z2IA6WAR,3DI28L7YXEUZW1EYVJE55DVM1OWE13,1,2
190,4,object_08,object_10,650.59999996424,8,2,316.0,0.2222222222222222,2,object_02,5,3014,0,1,2,restaurant_5,1,memory-2step-stake-s,683,2848964,0.0-19.0-0.1-0.190,ATKNH6OR2G11O,3Q9SPIIRXM2ML6FVM0W2D0Z2IA6WAR,3DI28L7YXEUZW1EYVJE55DVM1OWE13,7,8
191,2,object_07,object_04,1217.6000000238,3,2,231.5,0.1111111111111111,1,object_09,1,3015,0,1,2,forest_6,1,memory-2step-stake-s,684,2856587,0.0-19.0-0.1-0.191,ATKNH6OR2G11O,3Q9SPIIRXM2ML6FVM0W2D0Z2IA6WAR,3DI28L7YXEUZW1EYVJE55DVM1OWE13,4,3
192,2,object_07,object_04,977.5,4,1,342.19999998808,0.2222222222222222,2,object_02,5,3025,0,1,2,forest_1,1,memory-2step-stake-s,685,2864410,0.0-19.0-0.1-0.192,ATKNH6OR2G11O,3Q9SPIIRXM2ML6FVM0W2D0Z2IA6WAR,3DI28L7YXEUZW1EYVJE55DVM1OWE13,4,3
193,4,object_08,object_10,731.59999996424,8,2,295.89999997616,0.2222222222222222,2,object_02,5,3035,0,3,2,restaurant_4,1,memory-2step-stake-s,686,2872192,0.0-19.0-0.1-0.193,ATKNH6OR2G11O,3Q9SPIIRXM2ML6FVM0W2D0Z2IA6WAR,3DI28L7YXEUZW1EYVJE55DVM1OWE13,7,8
194,3,object_03,object_01,414.09999996424,5,1,383.39999997616,0.1111111111111111,1,object_09,5,3040,0,1,0,library_3,1,memory-2step-stake-s,687,2879970,0.0-19.0-0.1-0.194,ATKNH6OR2G11O,3Q9SPIIRXM2ML6FVM0W2D0Z2IA6WAR,3DI28L7YXEUZW1EYVJE55DVM1OWE13,5,6
195,1,object_06,object_05,997.69999998808,2,2,285.09999996424,0.1111111111111111,2,object_02,1,3041,0,1,1,desert_8,1,memory-2step-stake-s,688,2887640,0.0-19.0-0.1-0.195,ATKNH6OR2G11O,3Q9SPIIRXM2ML6FVM0W2D0Z2IA6WAR,3DI28L7YXEUZW1EYVJE55DVM1OWE13,1,2
196,3,object_01,object_03,526.09999996424,5,2,528.60000002384,0.3333333333333333,1,object_09,5,3056,0,3,0,library_3,1,memory-2step-stake-s,689,2895806,0.0-19.0-0.1-0.196,ATKNH6OR2G11O,3Q9SPIIRXM2ML6FVM0W2D0Z2IA6WAR,3DI28L7YXEUZW1EYVJE55DVM1OWE13,6,5
197,2,object_04,object_07,885.89999997616,3,1,331.19999998808,0.5555555555555556,1,object_09,1,3061,0,5,2,forest_1,1,memory-2step-stake-s,690,2903978,0.0-19.0-0.1-0.197,ATKNH6OR2G11O,3Q9SPIIRXM2ML6FVM0W2D0Z2IA6WAR,3DI28L7YXEUZW1EYVJE55DVM1OWE13,3,4
198,2,object_07,object_04,599.90000003576,3,2,293.5,0.8888888888888888,1,object_09,1,3069,0,8,1,forest_6,1,memory-2step-stake-s,691,2912399,0.0-19.0-0.1-0.198,ATKNH6OR2G11O,3Q9SPIIRXM2ML6FVM0W2D0Z2IA6WAR,3DI28L7YXEUZW1EYVJE55DVM1OWE13,4,3
199,4,object_08,object_10,824.0,7,1,291.5,1.0,1,object_09,5,3114,0,9,0,restaurant_7,1,memory-2step-stake-s,692,2920945,0.0-19.0-0.1-0.199,ATKNH6OR2G11O,3Q9SPIIRXM2ML6FVM0W2D0Z2IA6WAR,3DI28L7YXEUZW1EYVJE55DVM1OWE13,7,8
200,3,object_01,object_03,823.5,5,2,321.5,0.8888888888888888,1,object_09,5,3154,0,8,2,library_4,1,memory-2step-stake-s,693,2929398,0.0-19.0-0.1-0.200,ATKNH6OR2G11O,3Q9SPIIRXM2ML6FVM0W2D0Z2IA6WAR,3DI28L7YXEUZW1EYVJE55DVM1OWE13,6,5
201,2,object_07,object_04,585.69999998808,3,2,238.40000003576,0.8888888888888888,1,object_09,5,3194,0,8,4,forest_6,1,memory-2step-stake-s,694,2937803,0.0-19.0-0.1-0.201,ATKNH6OR2G11O,3Q9SPIIRXM2ML6FVM0W2D0Z2IA6WAR,3DI28L7YXEUZW1EYVJE55DVM1OWE13,4,3
202,4,object_10,object_08,566.90000003576,7,2,582.30000001192,1.0,1,object_09,5,3239,0,9,3,restaurant_7,1,memory-2step-stake-s,695,2946662,0.0-19.0-0.1-0.202,ATKNH6OR2G11O,3Q9SPIIRXM2ML6FVM0W2D0Z2IA6WAR,3DI28L7YXEUZW1EYVJE55DVM1OWE13,8,7
203,3,object_01,object_03,529.39999997616,5,2,311.60000002384,1.0,1,object_09,5,3284,0,9,1,library_1,1,memory-2step-stake-s,696,2955227,0.0-19.0-0.1-0.203,ATKNH6OR2G11O,3Q9SPIIRXM2ML6FVM0W2D0Z2IA6WAR,3DI28L7YXEUZW1EYVJE55DVM1OWE13,6,5
204,2,object_07,object_04,504.5,3,2,382.70000004768,0.6666666666666666,1,object_09,1,3290,0,6,1,forest_4,1,memory-2step-stake-s,697,2963551,0.0-19.0-0.1-0.204,ATKNH6OR2G11O,3Q9SPIIRXM2ML6FVM0W2D0Z2IA6WAR,3DI28L7YXEUZW1EYVJE55DVM1OWE13,4,3
205,1,object_05,object_06,715.69999998808,1,2,316.0,0.6666666666666666,1,object_09,1,3296,0,6,1,desert_6,1,memory-2step-stake-s,698,2971800,0.0-19.0-0.1-0.205,ATKNH6OR2G11O,3Q9SPIIRXM2ML6FVM0W2D0Z2IA6WAR,3DI28L7YXEUZW1EYVJE55DVM1OWE13,2,1
206,2,object_04,object_07,745.80000001192,3,1,329.5,1.0,1,object_09,5,3341,0,9,3,forest_6,1,memory-2step-stake-s,699,2980381,0.0-19.0-0.1-0.206,ATKNH6OR2G11O,3Q9SPIIRXM2ML6FVM0W2D0Z2IA6WAR,3DI28L7YXEUZW1EYVJE55DVM1OWE13,3,4
207,3,object_01,object_03,561.19999998808,5,2,352.40000003576,1.0,1,object_09,5,3386,0,9,4,library_4,1,memory-2step-stake-s,700,2989017,0.0-19.0-0.1-0.207,ATKNH6OR2G11O,3Q9SPIIRXM2ML6FVM0W2D0Z2IA6WAR,3DI28L7YXEUZW1EYVJE55DVM1OWE13,6,5
208,4,object_08,object_10,713.5,8,2,54.399999976158,0.4444444444444444,2,object_02,5,3406,0,9,4,restaurant_8,1,memory-2step-stake-s,701,2996780,0.0-19.0-0.1-0.208,ATKNH6OR2G11O,3Q9SPIIRXM2ML6FVM0W2D0Z2IA6WAR,3DI28L7YXEUZW1EYVJE55DVM1OWE13,7,8
209,3,object_03,object_01,515.39999997616,5,1,459.90000003576,0.8888888888888888,1,object_09,5,3446,0,8,2,library_6,1,memory-2step-stake-s,702,3005438,0.0-19.0-0.1-0.209,ATKNH6OR2G11O,3Q9SPIIRXM2ML6FVM0W2D0Z2IA6WAR,3DI28L7YXEUZW1EYVJE55DVM1OWE13,5,6
210,3,object_03,object_01,832.80000001192,5,1,372.60000002384,0.8888888888888888,1,object_09,5,3486,0,8,4,library_6,1,memory-2step-stake-s,703,3013972,0.0-19.0-0.1-0.210,ATKNH6OR2G11O,3Q9SPIIRXM2ML6FVM0W2D0Z2IA6WAR,3DI28L7YXEUZW1EYVJE55DVM1OWE13,5,6
211,2,object_04,object_07,602.69999998808,3,1,413.80000001192,0.8888888888888888,1,object_09,1,3494,0,8,5,forest_4,1,memory-2step-stake-s,704,3022530,0.0-19.0-0.1-0.211,ATKNH6OR2G11O,3Q9SPIIRXM2ML6FVM0W2D0Z2IA6WAR,3DI28L7YXEUZW1EYVJE55DVM1OWE13,3,4
212,1,object_06,object_05,779.80000001192,1,1,407.0,0.7777777777777778,1,object_09,1,3501,0,7,4,desert_1,1,memory-2step-stake-s,705,3030970,0.0-19.0-0.1-0.212,ATKNH6OR2G11O,3Q9SPIIRXM2ML6FVM0W2D0Z2IA6WAR,3DI28L7YXEUZW1EYVJE55DVM1OWE13,1,2
213,2,object_07,object_04,624.5,3,2,402.30000001192,0.7777777777777778,1,object_09,5,3536,0,7,4,forest_4,1,memory-2step-stake-s,706,3039435,0.0-19.0-0.1-0.213,ATKNH6OR2G11O,3Q9SPIIRXM2ML6FVM0W2D0Z2IA6WAR,3DI28L7YXEUZW1EYVJE55DVM1OWE13,4,3
214,3,object_01,object_03,829.80000001192,5,2,409.19999998808,1.0,1,object_09,5,3581,0,9,7,library_6,1,memory-2step-stake-s,707,3048093,0.0-19.0-0.1-0.214,ATKNH6OR2G11O,3Q9SPIIRXM2ML6FVM0W2D0Z2IA6WAR,3DI28L7YXEUZW1EYVJE55DVM1OWE13,6,5
215,1,object_06,object_05,872.60000002384,1,1,399.60000002384,0.7777777777777778,1,object_09,1,3588,0,7,8,desert_7,1,memory-2step-stake-s,708,3056564,0.0-19.0-0.1-0.215,ATKNH6OR2G11O,3Q9SPIIRXM2ML6FVM0W2D0Z2IA6WAR,3DI28L7YXEUZW1EYVJE55DVM1OWE13,1,2
216,2,object_04,object_07,605.80000001192,3,1,737.30000001192,0.7777777777777778,1,object_09,1,3595,0,7,8,forest_6,1,memory-2step-stake-s,709,3065361,0.0-19.0-0.1-0.216,ATKNH6OR2G11O,3Q9SPIIRXM2ML6FVM0W2D0Z2IA6WAR,3DI28L7YXEUZW1EYVJE55DVM1OWE13,3,4
217,1,object_05,object_06,935.09999996424,1,2,662.0,0.6666666666666666,1,object_09,1,3601,0,6,4,desert_7,1,memory-2step-stake-s,710,3073987,0.0-19.0-0.1-0.217,ATKNH6OR2G11O,3Q9SPIIRXM2ML6FVM0W2D0Z2IA6WAR,3DI28L7YXEUZW1EYVJE55DVM1OWE13,2,1
218,2,object_07,object_04,862.0,3,2,694.09999996424,0.7777777777777778,1,object_09,5,3636,0,7,2,forest_1,1,memory-2step-stake-s,711,3082703,0.0-19.0-0.1-0.218,ATKNH6OR2G11O,3Q9SPIIRXM2ML6FVM0W2D0Z2IA6WAR,3DI28L7YXEUZW1EYVJE55DVM1OWE13,4,3
219,2,object_04,object_07,618.59999996424,3,1,472.60000002384,0.7777777777777778,1,object_09,1,3643,0,7,3,forest_4,1,memory-2step-stake-s,712,3091203,0.0-19.0-0.1-0.219,ATKNH6OR2G11O,3Q9SPIIRXM2ML6FVM0W2D0Z2IA6WAR,3DI28L7YXEUZW1EYVJE55DVM1OWE13,3,4
220,3,object_01,object_03,496.40000003576,5,2,368.0,0.3333333333333333,1,object_09,5,3658,0,3,7,library_3,1,memory-2step-stake-s,713,3099171,0.0-19.0-0.1-0.220,ATKNH6OR2G11O,3Q9SPIIRXM2ML6FVM0W2D0Z2IA6WAR,3DI28L7YXEUZW1EYVJE55DVM1OWE13,6,5
221,2,object_07,object_04,481.90000003576,3,2,566.10000002384,0.4444444444444444,1,object_09,1,3662,0,4,7,forest_8,1,memory-2step-stake-s,714,3107451,0.0-19.0-0.1-0.221,ATKNH6OR2G11O,3Q9SPIIRXM2ML6FVM0W2D0Z2IA6WAR,3DI28L7YXEUZW1EYVJE55DVM1OWE13,4,3
222,2,object_07,object_04,504.39999997616,3,2,476.0,0.6666666666666666,1,object_09,1,3668,0,6,7,forest_4,1,memory-2step-stake-s,715,3115841,0.0-19.0-0.1-0.222,ATKNH6OR2G11O,3Q9SPIIRXM2ML6FVM0W2D0Z2IA6WAR,3DI28L7YXEUZW1EYVJE55DVM1OWE13,4,3
223,2,object_04,object_07,621.59999996424,3,1,639.80000001192,0.8888888888888888,1,object_09,1,3676,0,8,6,forest_6,1,memory-2step-stake-s,716,3124652,0.0-19.0-0.1-0.223,ATKNH6OR2G11O,3Q9SPIIRXM2ML6FVM0W2D0Z2IA6WAR,3DI28L7YXEUZW1EYVJE55DVM1OWE13,3,4
224,1,object_06,object_05,735.39999997616,1,1,377.40000003576,1.0,1,object_09,1,3685,0,9,3,desert_8,1,memory-2step-stake-s,717,3133245,0.0-19.0-0.1-0.224,ATKNH6OR2G11O,3Q9SPIIRXM2ML6FVM0W2D0Z2IA6WAR,3DI28L7YXEUZW1EYVJE55DVM1OWE13,1,2
225,3,object_01,object_03,714.60000002384,5,2,498.89999997616,0.8888888888888888,1,object_09,5,3725,0,8,2,library_1,1,memory-2step-stake-s,718,3141869,0.0-19.0-0.1-0.225,ATKNH6OR2G11O,3Q9SPIIRXM2ML6FVM0W2D0Z2IA6WAR,3DI28L7YXEUZW1EYVJE55DVM1OWE13,6,5
226,3,object_03,object_01,570.69999998808,5,1,391.0,1.0,1,object_09,5,3770,0,9,3,library_3,1,memory-2step-stake-s,719,3150494,0.0-19.0-0.1-0.226,ATKNH6OR2G11O,3Q9SPIIRXM2ML6FVM0W2D0Z2IA6WAR,3DI28L7YXEUZW1EYVJE55DVM1OWE13,5,6
227,2,object_07,object_04,563.40000003576,3,2,436.89999997616,0.4444444444444444,1,object_09,1,3774,0,4,1,forest_8,1,memory-2step-stake-s,720,3158621,0.0-19.0-0.1-0.227,ATKNH6OR2G11O,3Q9SPIIRXM2ML6FVM0W2D0Z2IA6WAR,3DI28L7YXEUZW1EYVJE55DVM1OWE13,4,3
228,3,object_03,object_01,605.80000001192,5,1,626.89999997616,0.5555555555555556,1,object_09,5,3799,0,5,2,library_3,1,memory-2step-stake-s,721,3167103,0.0-19.0-0.1-0.228,ATKNH6OR2G11O,3Q9SPIIRXM2ML6FVM0W2D0Z2IA6WAR,3DI28L7YXEUZW1EYVJE55DVM1OWE13,5,6
229,1,object_05,object_06,710.80000001192,1,2,434.5,0.5555555555555556,1,object_09,5,3824,0,5,2,desert_6,1,memory-2step-stake-s,722,3175351,0.0-19.0-0.1-0.229,ATKNH6OR2G11O,3Q9SPIIRXM2ML6FVM0W2D0Z2IA6WAR,3DI28L7YXEUZW1EYVJE55DVM1OWE13,2,1
230,4,object_08,object_10,652.19999998808,7,1,399.40000003576,0.5555555555555556,1,object_09,5,3849,0,5,2,restaurant_4,1,memory-2step-stake-s,723,3183568,0.0-19.0-0.1-0.230,ATKNH6OR2G11O,3Q9SPIIRXM2ML6FVM0W2D0Z2IA6WAR,3DI28L7YXEUZW1EYVJE55DVM1OWE13,7,8
231,2,object_04,object_07,696.80000001192,3,1,481.70000004768,0.6666666666666666,1,object_09,5,3879,0,6,2,forest_1,1,memory-2step-stake-s,724,3191973,0.0-19.0-0.1-0.231,ATKNH6OR2G11O,3Q9SPIIRXM2ML6FVM0W2D0Z2IA6WAR,3DI28L7YXEUZW1EYVJE55DVM1OWE13,3,4
232,2,object_07,object_04,532.89999997616,3,2,357.90000003576,0.7777777777777778,1,object_09,1,3886,0,7,2,forest_1,1,memory-2step-stake-s,725,3200347,0.0-19.0-0.1-0.232,ATKNH6OR2G11O,3Q9SPIIRXM2ML6FVM0W2D0Z2IA6WAR,3DI28L7YXEUZW1EYVJE55DVM1OWE13,4,3
233,4,object_10,object_08,761.5,7,2,499.19999998808,1.0,1,object_09,1,3895,0,9,5,restaurant_4,1,memory-2step-stake-s,726,3209082,0.0-19.0-0.1-0.233,ATKNH6OR2G11O,3Q9SPIIRXM2ML6FVM0W2D0Z2IA6WAR,3DI28L7YXEUZW1EYVJE55DVM1OWE13,8,7
234,1,object_06,object_05,860.5,1,1,463.59999996424,0.7777777777777778,1,object_09,1,3902,0,7,8,desert_6,1,memory-2step-stake-s,727,3217585,0.0-19.0-0.1-0.234,ATKNH6OR2G11O,3Q9SPIIRXM2ML6FVM0W2D0Z2IA6WAR,3DI28L7YXEUZW1EYVJE55DVM1OWE13,1,2
235,4,object_10,object_08,1049.3000000119,7,2,504.5,0.7777777777777778,1,object_09,1,3909,0,7,9,restaurant_4,1,memory-2step-stake-s,728,3226144,0.0-19.0-0.1-0.235,ATKNH6OR2G11O,3Q9SPIIRXM2ML6FVM0W2D0Z2IA6WAR,3DI28L7YXEUZW1EYVJE55DVM1OWE13,8,7
236,2,object_07,object_04,781.0,3,2,325.69999998808,0.8888888888888888,1,object_09,1,3917,0,8,7,forest_8,1,memory-2step-stake-s,729,3234645,0.0-19.0-0.1-0.236,ATKNH6OR2G11O,3Q9SPIIRXM2ML6FVM0W2D0Z2IA6WAR,3DI28L7YXEUZW1EYVJE55DVM1OWE13,4,3
237,3,object_01,object_03,595.10000002384,5,2,410.19999998808,1.0,1,object_09,1,3926,0,9,5,library_4,1,memory-2step-stake-s,730,3243317,0.0-19.0-0.1-0.237,ATKNH6OR2G11O,3Q9SPIIRXM2ML6FVM0W2D0Z2IA6WAR,3DI28L7YXEUZW1EYVJE55DVM1OWE13,6,5
238,3,object_01,object_03,526.90000003576,5,2,392.09999996424,1.0,1,object_09,5,3971,0,9,4,library_4,1,memory-2step-stake-s,731,3251988,0.0-19.0-0.1-0.238,ATKNH6OR2G11O,3Q9SPIIRXM2ML6FVM0W2D0Z2IA6WAR,3DI28L7YXEUZW1EYVJE55DVM1OWE13,6,5
239,4,object_08,object_10,1089.8000000119,7,1,383.5,1.0,1,object_09,5,4016,0,9,3,restaurant_7,1,memory-2step-stake-s,732,3260614,0.0-19.0-0.1-0.239,ATKNH6OR2G11O,3Q9SPIIRXM2ML6FVM0W2D0Z2IA6WAR,3DI28L7YXEUZW1EYVJE55DVM1OWE13,7,8
240,4,object_08,object_10,1333.6999999881,7,1,468.0,0.5555555555555556,1,object_09,5,4041,0,5,6,restaurant_5,1,memory-2step-stake-s,733,3268895,0.0-19.0-0.1-0.240,ATKNH6OR2G11O,3Q9SPIIRXM2ML6FVM0W2D0Z2IA6WAR,3DI28L7YXEUZW1EYVJE55DVM1OWE13,7,8
241,4,object_10,object_08,914.0,7,2,731.20000004768,1.0,1,object_09,1,4050,0,9,6,restaurant_4,1,memory-2step-stake-s,734,3277897,0.0-19.0-0.1-0.241,ATKNH6OR2G11O,3Q9SPIIRXM2ML6FVM0W2D0Z2IA6WAR,3DI28L7YXEUZW1EYVJE55DVM1OWE13,8,7
242,3,object_01,object_03,620.19999998808,5,2,408.5,0.6666666666666666,1,object_09,5,4080,0,6,2,library_4,1,memory-2step-stake-s,735,3286238,0.0-19.0-0.1-0.242,ATKNH6OR2G11O,3Q9SPIIRXM2ML6FVM0W2D0Z2IA6WAR,3DI28L7YXEUZW1EYVJE55DVM1OWE13,6,5
243,2,object_07,object_04,995.39999997616,3,2,755.89999997616,0.4444444444444444,1,object_09,1,4084,0,4,0,forest_8,1,memory-2step-stake-s,736,3294705,0.0-19.0-0.1-0.243,ATKNH6OR2G11O,3Q9SPIIRXM2ML6FVM0W2D0Z2IA6WAR,3DI28L7YXEUZW1EYVJE55DVM1OWE13,4,3
244,3,object_01,object_03,627.60000002384,5,2,718.40000003576,0.4444444444444444,1,object_09,1,4088,0,4,1,library_4,1,memory-2step-stake-s,737,3303113,0.0-19.0-0.1-0.244,ATKNH6OR2G11O,3Q9SPIIRXM2ML6FVM0W2D0Z2IA6WAR,3DI28L7YXEUZW1EYVJE55DVM1OWE13,6,5
245,4,object_10,object_08,720.80000001192,7,2,402.10000002384,0.2222222222222222,1,object_09,5,4098,0,2,1,restaurant_5,1,memory-2step-stake-s,738,3310982,0.0-19.0-0.1-0.245,ATKNH6OR2G11O,3Q9SPIIRXM2ML6FVM0W2D0Z2IA6WAR,3DI28L7YXEUZW1EYVJE55DVM1OWE13,8,7
246,4,object_10,object_08,526.5,7,2,412.5,0.1111111111111111,1,object_09,1,4099,0,1,1,restaurant_5,1,memory-2step-stake-s,739,3318777,0.0-19.0-0.1-0.246,ATKNH6OR2G11O,3Q9SPIIRXM2ML6FVM0W2D0Z2IA6WAR,3DI28L7YXEUZW1EYVJE55DVM1OWE13,8,7
247,1,object_05,object_06,808.89999997616,1,2,596.59999996424,0.2222222222222222,1,object_09,1,4101,0,2,3,desert_8,1,memory-2step-stake-s,740,3326838,0.0-19.0-0.1-0.247,ATKNH6OR2G11O,3Q9SPIIRXM2ML6FVM0W2D0Z2IA6WAR,3DI28L7YXEUZW1EYVJE55DVM1OWE13,2,1
248,3,object_01,object_03,585.80000001192,5,2,-1.0,0.0,1,object_09,5,4101,0,3,5,library_3,1,memory-2step-stake-s,741,3335399,0.0-19.0-0.1-0.248,ATKNH6OR2G11O,3Q9SPIIRXM2ML6FVM0W2D0Z2IA6WAR,3DI28L7YXEUZW1EYVJE55DVM1OWE13,6,5
249,2,object_04,object_07,-1.0,-1,-1,-1.0,0.0,-,0,1,4101,0,7,5,forest_6,1,memory-2step-stake-s,742,3341953,0.0-19.0-0.1-0.249,ATKNH6OR2G11O,3Q9SPIIRXM2ML6FVM0W2D0Z2IA6WAR,3DI28L7YXEUZW1EYVJE55DVM1OWE13,3,4
250,2,object_07,object_04,475.89999997616,3,2,332.19999998808,0.6666666666666666,1,object_09,1,4107,0,6,7,forest_8,1,memory-2step-stake-s,743,3350234,0.0-19.0-0.1-0.250,ATKNH6OR2G11O,3Q9SPIIRXM2ML6FVM0W2D0Z2IA6WAR,3DI28L7YXEUZW1EYVJE55DVM1OWE13,4,3
251,2,object_04,object_07,601.40000003576,3,1,539.0,1.0,1,object_09,5,4152,0,9,4,forest_1,1,memory-2step-stake-s,744,3359017,0.0-19.0-0.1-0.251,ATKNH6OR2G11O,3Q9SPIIRXM2ML6FVM0W2D0Z2IA6WAR,3DI28L7YXEUZW1EYVJE55DVM1OWE13,3,4
252,1,object_05,object_06,711.80000001192,1,2,486.10000002384,0.8888888888888888,1,object_09,1,4160,0,8,5,desert_6,1,memory-2step-stake-s,745,3367625,0.0-19.0-0.1-0.252,ATKNH6OR2G11O,3Q9SPIIRXM2ML6FVM0W2D0Z2IA6WAR,3DI28L7YXEUZW1EYVJE55DVM1OWE13,2,1
253,1,object_05,object_06,727.30000001192,1,2,423.10000002384,0.8888888888888888,1,object_09,1,4168,0,8,7,desert_6,1,memory-2step-stake-s,746,3376190,0.0-19.0-0.1-0.253,ATKNH6OR2G11O,3Q9SPIIRXM2ML6FVM0W2D0Z2IA6WAR,3DI28L7YXEUZW1EYVJE55DVM1OWE13,2,1
254,3,object_01,object_03,577.89999997616,5,2,556.20000004768,0.7777777777777778,1,object_09,5,4203,0,7,8,library_4,1,memory-2step-stake-s,747,3384783,0.0-19.0-0.1-0.254,ATKNH6OR2G11O,3Q9SPIIRXM2ML6FVM0W2D0Z2IA6WAR,3DI28L7YXEUZW1EYVJE55DVM1OWE13,6,5
255,3,object_03,object_01,465.89999997616,5,1,509.59999996424,0.6666666666666666,1,object_09,5,4233,0,6,9,library_3,1,memory-2step-stake-s,748,3393249,0.0-19.0-0.1-0.255,ATKNH6OR2G11O,3Q9SPIIRXM2ML6FVM0W2D0Z2IA6WAR,3DI28L7YXEUZW1EYVJE55DVM1OWE13,5,6
