,state1,stim_left,stim_right,rt_1,choice1,response1,rt_2,points,state2,stim_state2,stake,score,practice,rews1,rews2,background,high_arm,trial_type,trial_index,time_elapsed,internal_node_id,subid,hitid,assignmentid,stim_left_num,stim_right_num
0,2,object_03,object_08,865.19999998808,3,2,1436.299999997,0.1111111111111111,1,object_01,1,1,0,1,8,forest_2,1,memory-2step-stake-s,505,1243451,0.0-19.0-0.0-0.0,A6WYBPPG8Y2Q4,3DW3BNF1HKYVNTMBZS7SV7ATLD58VQ,30IQTZXKAOM8VCKXU50XFXXJC320XY,4,3
1,1,object_02,object_04,866.40000000596,2,1,927.59999999404,0.7777777777777778,2,object_09,1,8,0,6,7,desert_5,1,memory-2step-stake-s,506,1252297,0.0-19.0-0.0-0.1,A6WYBPPG8Y2Q4,3DW3BNF1HKYVNTMBZS7SV7ATLD58VQ,30IQTZXKAOM8VCKXU50XFXXJC320XY,2,1
2,4,object_07,object_05,855.29999999702,8,2,793.89999999106,1.0,2,object_09,5,53,0,6,9,restaurant_7,1,memory-2step-stake-s,507,1261217,0.0-19.0-0.0-0.2,A6WYBPPG8Y2Q4,3DW3BNF1HKYVNTMBZS7SV7ATLD58VQ,30IQTZXKAOM8VCKXU50XFXXJC320XY,7,8
3,2,object_08,object_03,889.79999999702,4,2,742.0,0.7777777777777778,2,object_09,1,60,0,9,7,forest_6,1,memory-2step-stake-s,508,1269892,0.0-19.0-0.0-0.3,A6WYBPPG8Y2Q4,3DW3BNF1HKYVNTMBZS7SV7ATLD58VQ,30IQTZXKAOM8VCKXU50XFXXJC320XY,3,4
4,2,object_03,object_08,766.90000000596,3,2,481.0,0.8888888888888888,1,object_01,1,68,0,8,6,forest_2,1,memory-2step-stake-s,509,1278396,0.0-19.0-0.0-0.4,A6WYBPPG8Y2Q4,3DW3BNF1HKYVNTMBZS7SV7ATLD58VQ,30IQTZXKAOM8VCKXU50XFXXJC320XY,4,3
5,4,object_07,object_05,984.20000000298,8,2,364.40000000596,0.5555555555555556,2,object_09,5,93,0,7,5,restaurant_7,1,memory-2step-stake-s,510,1286476,0.0-19.0-0.0-0.5,A6WYBPPG8Y2Q4,3DW3BNF1HKYVNTMBZS7SV7ATLD58VQ,30IQTZXKAOM8VCKXU50XFXXJC320XY,7,8
6,1,object_04,object_02,776.10000000894,2,2,363.5,0.7777777777777778,2,object_09,1,100,0,4,7,desert_5,1,memory-2step-stake-s,511,1294769,0.0-19.0-0.0-0.6,A6WYBPPG8Y2Q4,3DW3BNF1HKYVNTMBZS7SV7ATLD58VQ,30IQTZXKAOM8VCKXU50XFXXJC320XY,1,2
7,1,object_02,object_04,739.10000000894,1,2,375.59999999404,0.3333333333333333,1,object_01,1,103,0,3,5,desert_5,1,memory-2step-stake-s,512,1302658,0.0-19.0-0.0-0.7,A6WYBPPG8Y2Q4,3DW3BNF1HKYVNTMBZS7SV7ATLD58VQ,30IQTZXKAOM8VCKXU50XFXXJC320XY,2,1
8,4,object_05,object_07,796.79999999702,8,1,463.19999998808,0.4444444444444444,2,object_09,1,107,0,2,4,restaurant_6,1,memory-2step-stake-s,513,1310742,0.0-19.0-0.0-0.8,A6WYBPPG8Y2Q4,3DW3BNF1HKYVNTMBZS7SV7ATLD58VQ,30IQTZXKAOM8VCKXU50XFXXJC320XY,8,7
9,3,object_10,object_06,794.0,5,1,595.09999999404,0.0,1,object_01,1,107,0,0,5,library_2,1,memory-2step-stake-s,514,1318553,0.0-19.0-0.0-0.9,A6WYBPPG8Y2Q4,3DW3BNF1HKYVNTMBZS7SV7ATLD58VQ,30IQTZXKAOM8VCKXU50XFXXJC320XY,5,6
10,2,object_03,object_08,1152.599999994,3,2,386.70000000298,0.1111111111111111,1,object_01,1,108,0,1,5,forest_8,1,memory-2step-stake-s,515,1326258,0.0-19.0-0.0-0.10,A6WYBPPG8Y2Q4,3DW3BNF1HKYVNTMBZS7SV7ATLD58VQ,30IQTZXKAOM8VCKXU50XFXXJC320XY,4,3
11,3,object_06,object_10,933.5,6,1,529.10000000894,0.4444444444444444,2,object_09,5,128,0,2,4,library_3,1,memory-2step-stake-s,516,1334405,0.0-19.0-0.0-0.11,A6WYBPPG8Y2Q4,3DW3BNF1HKYVNTMBZS7SV7ATLD58VQ,30IQTZXKAOM8VCKXU50XFXXJC320XY,6,5
12,4,object_07,object_05,1093.8999999911,7,1,477.40000000596,0.5555555555555556,1,object_01,1,133,0,5,6,restaurant_8,1,memory-2step-stake-s,517,1342609,0.0-19.0-0.0-0.12,A6WYBPPG8Y2Q4,3DW3BNF1HKYVNTMBZS7SV7ATLD58VQ,30IQTZXKAOM8VCKXU50XFXXJC320XY,7,8
13,4,object_07,object_05,688.90000000596,8,2,500.39999999106,0.4444444444444444,2,object_09,5,153,0,5,4,restaurant_8,1,memory-2step-stake-s,518,1350740,0.0-19.0-0.0-0.13,A6WYBPPG8Y2Q4,3DW3BNF1HKYVNTMBZS7SV7ATLD58VQ,30IQTZXKAOM8VCKXU50XFXXJC320XY,7,8
14,1,object_04,object_02,863.59999999404,2,2,698.59999999404,0.2222222222222222,2,object_09,1,155,0,8,2,desert_2,1,memory-2step-stake-s,519,1358857,0.0-19.0-0.0-0.14,A6WYBPPG8Y2Q4,3DW3BNF1HKYVNTMBZS7SV7ATLD58VQ,30IQTZXKAOM8VCKXU50XFXXJC320XY,1,2
15,3,object_06,object_10,1044.299999997,5,2,400.69999998808,0.5555555555555556,1,object_01,5,180,0,5,2,library_8,1,memory-2step-stake-s,520,1366975,0.0-19.0-0.0-0.15,A6WYBPPG8Y2Q4,3DW3BNF1HKYVNTMBZS7SV7ATLD58VQ,30IQTZXKAOM8VCKXU50XFXXJC320XY,6,5
16,2,object_08,object_03,854.79999999702,4,2,370.89999999106,0.2222222222222222,2,object_09,1,182,0,6,2,forest_4,1,memory-2step-stake-s,521,1374759,0.0-19.0-0.0-0.16,A6WYBPPG8Y2Q4,3DW3BNF1HKYVNTMBZS7SV7ATLD58VQ,30IQTZXKAOM8VCKXU50XFXXJC320XY,3,4
17,4,object_07,object_05,742.80000001192,8,2,483.0,0.1111111111111111,2,object_09,5,187,0,8,1,restaurant_4,1,memory-2step-stake-s,522,1382556,0.0-19.0-0.0-0.17,A6WYBPPG8Y2Q4,3DW3BNF1HKYVNTMBZS7SV7ATLD58VQ,30IQTZXKAOM8VCKXU50XFXXJC320XY,7,8
18,3,object_10,object_06,1194.799999997,6,2,549.10000000894,0.1111111111111111,2,object_09,5,192,0,7,1,library_3,1,memory-2step-stake-s,523,1390420,0.0-19.0-0.0-0.18,A6WYBPPG8Y2Q4,3DW3BNF1HKYVNTMBZS7SV7ATLD58VQ,30IQTZXKAOM8VCKXU50XFXXJC320XY,5,6
19,3,object_06,object_10,1205.200000003,6,1,576.29999999702,0.1111111111111111,2,object_09,5,197,0,5,1,library_7,1,memory-2step-stake-s,524,1398313,0.0-19.0-0.0-0.19,A6WYBPPG8Y2Q4,3DW3BNF1HKYVNTMBZS7SV7ATLD58VQ,30IQTZXKAOM8VCKXU50XFXXJC320XY,6,5
20,1,object_02,object_04,842.29999999702,1,2,564.40000000596,0.7777777777777778,1,object_01,1,204,0,7,0,desert_2,1,memory-2step-stake-s,525,1406798,0.0-19.0-0.0-0.20,A6WYBPPG8Y2Q4,3DW3BNF1HKYVNTMBZS7SV7ATLD58VQ,30IQTZXKAOM8VCKXU50XFXXJC320XY,2,1
21,2,object_08,object_03,950.09999999404,4,2,465.60000000894,0.2222222222222222,2,object_09,5,214,0,8,2,forest_4,1,memory-2step-stake-s,526,1414682,0.0-19.0-0.0-0.21,A6WYBPPG8Y2Q4,3DW3BNF1HKYVNTMBZS7SV7ATLD58VQ,30IQTZXKAOM8VCKXU50XFXXJC320XY,3,4
22,3,object_10,object_06,-1.0,-1,-1,-1.0,0.0,-,0,5,214,0,9,4,library_7,1,memory-2step-stake-s,527,1421190,0.0-19.0-0.0-0.22,A6WYBPPG8Y2Q4,3DW3BNF1HKYVNTMBZS7SV7ATLD58VQ,30IQTZXKAOM8VCKXU50XFXXJC320XY,5,6
23,1,object_04,object_02,869.59999999404,2,2,280.79999999702,0.5555555555555556,2,object_09,1,219,0,9,5,desert_5,1,memory-2step-stake-s,528,1429193,0.0-19.0-0.0-0.23,A6WYBPPG8Y2Q4,3DW3BNF1HKYVNTMBZS7SV7ATLD58VQ,30IQTZXKAOM8VCKXU50XFXXJC320XY,1,2
24,3,object_06,object_10,789.10000000894,5,2,489.70000000298,1.0,1,object_01,5,264,0,9,7,library_8,1,memory-2step-stake-s,529,1437803,0.0-19.0-0.0-0.24,A6WYBPPG8Y2Q4,3DW3BNF1HKYVNTMBZS7SV7ATLD58VQ,30IQTZXKAOM8VCKXU50XFXXJC320XY,6,5
25,2,object_08,object_03,818.40000000596,4,2,381.79999999702,0.8888888888888888,2,object_09,1,272,0,7,8,forest_8,1,memory-2step-stake-s,530,1446204,0.0-19.0-0.0-0.25,A6WYBPPG8Y2Q4,3DW3BNF1HKYVNTMBZS7SV7ATLD58VQ,30IQTZXKAOM8VCKXU50XFXXJC320XY,3,4
26,4,object_05,object_07,970.59999999404,8,1,411.20000000298,0.8888888888888888,2,object_09,5,312,0,6,8,restaurant_7,1,memory-2step-stake-s,531,1454654,0.0-19.0-0.0-0.26,A6WYBPPG8Y2Q4,3DW3BNF1HKYVNTMBZS7SV7ATLD58VQ,30IQTZXKAOM8VCKXU50XFXXJC320XY,8,7
27,1,object_02,object_04,1082.1000000089,1,2,388.90000000596,0.5555555555555556,1,object_01,1,317,0,5,8,desert_4,1,memory-2step-stake-s,532,1462767,0.0-19.0-0.0-0.27,A6WYBPPG8Y2Q4,3DW3BNF1HKYVNTMBZS7SV7ATLD58VQ,30IQTZXKAOM8VCKXU50XFXXJC320XY,2,1
28,1,object_04,object_02,857.70000000298,2,2,299.89999999106,0.7777777777777778,2,object_09,1,324,0,3,7,desert_2,1,memory-2step-stake-s,533,1470991,0.0-19.0-0.0-0.28,A6WYBPPG8Y2Q4,3DW3BNF1HKYVNTMBZS7SV7ATLD58VQ,30IQTZXKAOM8VCKXU50XFXXJC320XY,1,2
29,1,object_02,object_04,755.09999999404,1,2,455.20000000298,0.5555555555555556,1,object_01,1,329,0,5,8,desert_4,1,memory-2step-stake-s,534,1479164,0.0-19.0-0.0-0.29,A6WYBPPG8Y2Q4,3DW3BNF1HKYVNTMBZS7SV7ATLD58VQ,30IQTZXKAOM8VCKXU50XFXXJC320XY,2,1
30,2,object_03,object_08,765.5,4,1,353.89999999106,0.6666666666666666,2,object_09,1,335,0,4,6,forest_6,1,memory-2step-stake-s,535,1487346,0.0-19.0-0.0-0.30,A6WYBPPG8Y2Q4,3DW3BNF1HKYVNTMBZS7SV7ATLD58VQ,30IQTZXKAOM8VCKXU50XFXXJC320XY,4,3
31,2,object_08,object_03,697.10000000894,4,2,284.59999999404,0.3333333333333333,2,object_09,1,338,0,3,3,forest_6,1,memory-2step-stake-s,536,1495145,0.0-19.0-0.0-0.31,A6WYBPPG8Y2Q4,3DW3BNF1HKYVNTMBZS7SV7ATLD58VQ,30IQTZXKAOM8VCKXU50XFXXJC320XY,3,4
32,2,object_03,object_08,1090.400000006,4,1,532.79999999702,0.4444444444444444,2,object_09,1,342,0,1,4,forest_2,1,memory-2step-stake-s,537,1503306,0.0-19.0-0.0-0.32,A6WYBPPG8Y2Q4,3DW3BNF1HKYVNTMBZS7SV7ATLD58VQ,30IQTZXKAOM8VCKXU50XFXXJC320XY,4,3
33,3,object_06,object_10,787.5,6,1,435.79999999702,0.3333333333333333,2,object_09,5,357,0,2,3,library_2,1,memory-2step-stake-s,538,1511270,0.0-19.0-0.0-0.33,A6WYBPPG8Y2Q4,3DW3BNF1HKYVNTMBZS7SV7ATLD58VQ,30IQTZXKAOM8VCKXU50XFXXJC320XY,6,5
34,1,object_04,object_02,766.70000000298,2,2,330.79999999702,0.5555555555555556,2,object_09,1,362,0,1,5,desert_5,1,memory-2step-stake-s,539,1519321,0.0-19.0-0.0-0.34,A6WYBPPG8Y2Q4,3DW3BNF1HKYVNTMBZS7SV7ATLD58VQ,30IQTZXKAOM8VCKXU50XFXXJC320XY,1,2
35,2,object_08,object_03,1087.5,3,1,353.70000000298,0.2222222222222222,1,object_01,1,364,0,2,6,forest_4,1,memory-2step-stake-s,540,1527091,0.0-19.0-0.0-0.35,A6WYBPPG8Y2Q4,3DW3BNF1HKYVNTMBZS7SV7ATLD58VQ,30IQTZXKAOM8VCKXU50XFXXJC320XY,3,4
36,2,object_03,object_08,1350.6999999881,4,1,401.40000000596,0.7777777777777778,2,object_09,1,371,0,0,7,forest_2,1,memory-2step-stake-s,541,1535429,0.0-19.0-0.0-0.36,A6WYBPPG8Y2Q4,3DW3BNF1HKYVNTMBZS7SV7ATLD58VQ,30IQTZXKAOM8VCKXU50XFXXJC320XY,4,3
37,4,object_05,object_07,892.79999999702,8,1,382.59999999404,0.2222222222222222,2,object_09,5,381,0,0,2,restaurant_7,1,memory-2step-stake-s,542,1543227,0.0-19.0-0.0-0.37,A6WYBPPG8Y2Q4,3DW3BNF1HKYVNTMBZS7SV7ATLD58VQ,30IQTZXKAOM8VCKXU50XFXXJC320XY,8,7
38,3,object_06,object_10,863.90000000596,5,2,426.20000000298,0.0,1,object_01,1,381,0,0,4,library_2,1,memory-2step-stake-s,543,1550868,0.0-19.0-0.0-0.38,A6WYBPPG8Y2Q4,3DW3BNF1HKYVNTMBZS7SV7ATLD58VQ,30IQTZXKAOM8VCKXU50XFXXJC320XY,6,5
39,4,object_05,object_07,958.70000000298,8,1,384.79999999702,0.6666666666666666,2,object_09,1,387,0,2,6,restaurant_7,1,memory-2step-stake-s,544,1559076,0.0-19.0-0.0-0.39,A6WYBPPG8Y2Q4,3DW3BNF1HKYVNTMBZS7SV7ATLD58VQ,30IQTZXKAOM8VCKXU50XFXXJC320XY,8,7
40,1,object_04,object_02,824.30000001192,2,2,500.0,0.8888888888888888,2,object_09,1,395,0,2,8,desert_3,1,memory-2step-stake-s,545,1567602,0.0-19.0-0.0-0.40,A6WYBPPG8Y2Q4,3DW3BNF1HKYVNTMBZS7SV7ATLD58VQ,30IQTZXKAOM8VCKXU50XFXXJC320XY,1,2
41,4,object_05,object_07,763.70000000298,8,1,446.90000000596,1.0,2,object_09,5,440,0,1,9,restaurant_8,1,memory-2step-stake-s,546,1576174,0.0-19.0-0.0-0.41,A6WYBPPG8Y2Q4,3DW3BNF1HKYVNTMBZS7SV7ATLD58VQ,30IQTZXKAOM8VCKXU50XFXXJC320XY,8,7
42,3,object_10,object_06,936.5,5,1,315.90000000596,0.2222222222222222,1,object_01,5,450,0,2,8,library_2,1,memory-2step-stake-s,547,1583905,0.0-19.0-0.0-0.42,A6WYBPPG8Y2Q4,3DW3BNF1HKYVNTMBZS7SV7ATLD58VQ,30IQTZXKAOM8VCKXU50XFXXJC320XY,5,6
43,4,object_07,object_05,625.60000000894,8,2,332.69999998808,0.7777777777777778,2,object_09,5,485,0,0,7,restaurant_6,1,memory-2step-stake-s,548,1592180,0.0-19.0-0.0-0.43,A6WYBPPG8Y2Q4,3DW3BNF1HKYVNTMBZS7SV7ATLD58VQ,30IQTZXKAOM8VCKXU50XFXXJC320XY,7,8
44,3,object_06,object_10,1118.299999997,5,2,457.09999999404,0.2222222222222222,1,object_01,1,487,0,2,7,library_2,1,memory-2step-stake-s,549,1600049,0.0-19.0-0.0-0.44,A6WYBPPG8Y2Q4,3DW3BNF1HKYVNTMBZS7SV7ATLD58VQ,30IQTZXKAOM8VCKXU50XFXXJC320XY,6,5
45,1,object_02,object_04,690.70000000298,2,1,413.70000000298,0.8888888888888888,2,object_09,1,495,0,1,8,desert_3,1,memory-2step-stake-s,550,1608493,0.0-19.0-0.0-0.45,A6WYBPPG8Y2Q4,3DW3BNF1HKYVNTMBZS7SV7ATLD58VQ,30IQTZXKAOM8VCKXU50XFXXJC320XY,2,1
46,1,object_04,object_02,847.30000001192,2,2,388.10000000894,0.7777777777777778,2,object_09,1,502,0,0,7,desert_2,1,memory-2step-stake-s,551,1616795,0.0-19.0-0.0-0.46,A6WYBPPG8Y2Q4,3DW3BNF1HKYVNTMBZS7SV7ATLD58VQ,30IQTZXKAOM8VCKXU50XFXXJC320XY,1,2
47,3,object_06,object_10,849.89999999106,6,1,429.20000000298,0.3333333333333333,2,object_09,5,517,0,1,3,library_7,1,memory-2step-stake-s,552,1624740,0.0-19.0-0.0-0.47,A6WYBPPG8Y2Q4,3DW3BNF1HKYVNTMBZS7SV7ATLD58VQ,30IQTZXKAOM8VCKXU50XFXXJC320XY,6,5
48,1,object_02,object_04,649.89999999106,2,1,334.29999999702,0.5555555555555556,2,object_09,1,522,0,2,5,desert_2,1,memory-2step-stake-s,553,1632791,0.0-19.0-0.0-0.48,A6WYBPPG8Y2Q4,3DW3BNF1HKYVNTMBZS7SV7ATLD58VQ,30IQTZXKAOM8VCKXU50XFXXJC320XY,2,1
49,2,object_03,object_08,719.79999999702,3,2,410.59999999404,0.3333333333333333,1,object_01,1,525,0,3,5,forest_2,1,memory-2step-stake-s,554,1640716,0.0-19.0-0.0-0.49,A6WYBPPG8Y2Q4,3DW3BNF1HKYVNTMBZS7SV7ATLD58VQ,30IQTZXKAOM8VCKXU50XFXXJC320XY,4,3
50,3,object_10,object_06,787.0,6,2,430.29999999702,0.4444444444444444,2,object_09,1,529,0,3,4,library_3,1,memory-2step-stake-s,555,1648761,0.0-19.0-0.0-0.50,A6WYBPPG8Y2Q4,3DW3BNF1HKYVNTMBZS7SV7ATLD58VQ,30IQTZXKAOM8VCKXU50XFXXJC320XY,5,6
51,3,object_10,object_06,680.70000000298,5,1,259.19999998808,0.1111111111111111,1,object_01,1,530,0,1,6,library_3,1,memory-2step-stake-s,556,1656334,0.0-19.0-0.0-0.51,A6WYBPPG8Y2Q4,3DW3BNF1HKYVNTMBZS7SV7ATLD58VQ,30IQTZXKAOM8VCKXU50XFXXJC320XY,5,6
52,1,object_02,object_04,1061.0,2,1,341.90000000596,0.5555555555555556,2,object_09,1,535,0,3,5,desert_5,1,memory-2step-stake-s,557,1664394,0.0-19.0-0.0-0.52,A6WYBPPG8Y2Q4,3DW3BNF1HKYVNTMBZS7SV7ATLD58VQ,30IQTZXKAOM8VCKXU50XFXXJC320XY,2,1
53,2,object_08,object_03,801.09999999404,4,2,357.19999998808,0.6666666666666666,2,object_09,5,565,0,0,6,forest_2,1,memory-2step-stake-s,558,1672569,0.0-19.0-0.0-0.53,A6WYBPPG8Y2Q4,3DW3BNF1HKYVNTMBZS7SV7ATLD58VQ,30IQTZXKAOM8VCKXU50XFXXJC320XY,3,4
54,3,object_10,object_06,682.10000000894,5,1,371.79999999702,0.1111111111111111,1,object_01,1,566,0,1,5,library_3,1,memory-2step-stake-s,559,1680256,0.0-19.0-0.0-0.54,A6WYBPPG8Y2Q4,3DW3BNF1HKYVNTMBZS7SV7ATLD58VQ,30IQTZXKAOM8VCKXU50XFXXJC320XY,5,6
55,3,object_06,object_10,763.29999999702,6,1,463.80000001192,0.7777777777777778,2,object_09,5,601,0,2,7,library_3,1,memory-2step-stake-s,560,1688636,0.0-19.0-0.0-0.55,A6WYBPPG8Y2Q4,3DW3BNF1HKYVNTMBZS7SV7ATLD58VQ,30IQTZXKAOM8VCKXU50XFXXJC320XY,6,5
56,2,object_08,object_03,712.79999999702,3,1,356.29999999702,0.1111111111111111,1,object_01,1,602,0,1,7,forest_6,1,memory-2step-stake-s,561,1696306,0.0-19.0-0.0-0.56,A6WYBPPG8Y2Q4,3DW3BNF1HKYVNTMBZS7SV7ATLD58VQ,30IQTZXKAOM8VCKXU50XFXXJC320XY,3,4
57,3,object_10,object_06,674.40000000596,6,2,534.5,0.7777777777777778,2,object_09,5,637,0,7,7,library_7,1,memory-2step-stake-s,562,1704764,0.0-19.0-0.0-0.57,A6WYBPPG8Y2Q4,3DW3BNF1HKYVNTMBZS7SV7ATLD58VQ,30IQTZXKAOM8VCKXU50XFXXJC320XY,5,6
58,2,object_03,object_08,451.59999999404,4,1,325.40000000596,0.7777777777777778,2,object_09,1,644,0,5,7,forest_4,1,memory-2step-stake-s,563,1713006,0.0-19.0-0.0-0.58,A6WYBPPG8Y2Q4,3DW3BNF1HKYVNTMBZS7SV7ATLD58VQ,30IQTZXKAOM8VCKXU50XFXXJC320XY,4,3
59,4,object_05,object_07,619.09999999404,8,1,319.89999999106,0.5555555555555556,2,object_09,1,649,0,5,5,restaurant_6,1,memory-2step-stake-s,564,1721040,0.0-19.0-0.0-0.59,A6WYBPPG8Y2Q4,3DW3BNF1HKYVNTMBZS7SV7ATLD58VQ,30IQTZXKAOM8VCKXU50XFXXJC320XY,8,7
60,3,object_10,object_06,599.70000000298,6,2,586.79999999702,0.5555555555555556,2,object_09,5,674,0,9,5,library_3,1,memory-2step-stake-s,565,1729347,0.0-19.0-0.0-0.60,A6WYBPPG8Y2Q4,3DW3BNF1HKYVNTMBZS7SV7ATLD58VQ,30IQTZXKAOM8VCKXU50XFXXJC320XY,5,6
61,1,object_02,object_04,639.20000000298,2,1,388.39999999106,0.6666666666666666,2,object_09,1,680,0,9,6,desert_3,1,memory-2step-stake-s,566,1737569,0.0-19.0-0.0-0.61,A6WYBPPG8Y2Q4,3DW3BNF1HKYVNTMBZS7SV7ATLD58VQ,30IQTZXKAOM8VCKXU50XFXXJC320XY,2,1
62,1,object_02,object_04,489.69999998808,1,2,437.5,0.6666666666666666,1,object_01,1,686,0,6,1,desert_5,1,memory-2step-stake-s,567,1745822,0.0-19.0-0.0-0.62,A6WYBPPG8Y2Q4,3DW3BNF1HKYVNTMBZS7SV7ATLD58VQ,30IQTZXKAOM8VCKXU50XFXXJC320XY,2,1
63,3,object_10,object_06,573.89999999106,6,2,417.90000000596,0.2222222222222222,2,object_09,5,696,0,7,2,library_2,1,memory-2step-stake-s,568,1753652,0.0-19.0-0.0-0.63,A6WYBPPG8Y2Q4,3DW3BNF1HKYVNTMBZS7SV7ATLD58VQ,30IQTZXKAOM8VCKXU50XFXXJC320XY,5,6
64,3,object_06,object_10,695.09999999404,5,2,490.09999999404,0.7777777777777778,1,object_01,5,731,0,7,5,library_7,1,memory-2step-stake-s,569,1762065,0.0-19.0-0.0-0.64,A6WYBPPG8Y2Q4,3DW3BNF1HKYVNTMBZS7SV7ATLD58VQ,30IQTZXKAOM8VCKXU50XFXXJC320XY,6,5
65,1,object_04,object_02,332.90000000596,2,2,351.90000000596,0.4444444444444444,2,object_09,1,735,0,8,4,desert_3,1,memory-2step-stake-s,570,1770035,0.0-19.0-0.0-0.65,A6WYBPPG8Y2Q4,3DW3BNF1HKYVNTMBZS7SV7ATLD58VQ,30IQTZXKAOM8VCKXU50XFXXJC320XY,1,2
66,4,object_05,object_07,916.29999999702,7,2,270.39999999106,0.8888888888888888,1,object_01,1,743,0,8,6,restaurant_7,1,memory-2step-stake-s,571,1778326,0.0-19.0-0.0-0.66,A6WYBPPG8Y2Q4,3DW3BNF1HKYVNTMBZS7SV7ATLD58VQ,30IQTZXKAOM8VCKXU50XFXXJC320XY,8,7
67,2,object_08,object_03,553.20000000298,4,2,461.90000000596,0.3333333333333333,2,object_09,1,746,0,6,3,forest_6,1,memory-2step-stake-s,572,1786301,0.0-19.0-0.0-0.67,A6WYBPPG8Y2Q4,3DW3BNF1HKYVNTMBZS7SV7ATLD58VQ,30IQTZXKAOM8VCKXU50XFXXJC320XY,3,4
68,4,object_05,object_07,716.19999998808,8,1,384.70000000298,0.1111111111111111,2,object_09,5,751,0,9,1,restaurant_8,1,memory-2step-stake-s,573,1793997,0.0-19.0-0.0-0.68,A6WYBPPG8Y2Q4,3DW3BNF1HKYVNTMBZS7SV7ATLD58VQ,30IQTZXKAOM8VCKXU50XFXXJC320XY,8,7
69,1,object_02,object_04,638.0,1,2,345.79999999702,0.8888888888888888,1,object_01,1,759,0,8,2,desert_4,1,memory-2step-stake-s,574,1802361,0.0-19.0-0.0-0.69,A6WYBPPG8Y2Q4,3DW3BNF1HKYVNTMBZS7SV7ATLD58VQ,30IQTZXKAOM8VCKXU50XFXXJC320XY,2,1
70,3,object_06,object_10,897.09999999404,5,2,349.80000001192,0.8888888888888888,1,object_01,5,799,0,8,6,library_3,1,memory-2step-stake-s,575,1810731,0.0-19.0-0.0-0.70,A6WYBPPG8Y2Q4,3DW3BNF1HKYVNTMBZS7SV7ATLD58VQ,30IQTZXKAOM8VCKXU50XFXXJC320XY,6,5
71,3,object_06,object_10,857.59999999404,5,2,332.5,0.7777777777777778,1,object_01,5,834,0,7,3,library_3,1,memory-2step-stake-s,576,1818983,0.0-19.0-0.0-0.71,A6WYBPPG8Y2Q4,3DW3BNF1HKYVNTMBZS7SV7ATLD58VQ,30IQTZXKAOM8VCKXU50XFXXJC320XY,6,5
72,2,object_08,object_03,609.0,4,2,284.0,0.4444444444444444,2,object_09,1,838,0,4,4,forest_4,1,memory-2step-stake-s,577,1826898,0.0-19.0-0.0-0.72,A6WYBPPG8Y2Q4,3DW3BNF1HKYVNTMBZS7SV7ATLD58VQ,30IQTZXKAOM8VCKXU50XFXXJC320XY,3,4
73,1,object_02,object_04,883.09999999404,1,2,414.79999999702,0.3333333333333333,1,object_01,1,841,0,3,9,desert_4,1,memory-2step-stake-s,578,1834828,0.0-19.0-0.0-0.73,A6WYBPPG8Y2Q4,3DW3BNF1HKYVNTMBZS7SV7ATLD58VQ,30IQTZXKAOM8VCKXU50XFXXJC320XY,2,1
74,1,object_04,object_02,898.29999999702,2,2,388.5,0.7777777777777778,2,object_09,1,848,0,3,7,desert_2,1,memory-2step-stake-s,579,1843150,0.0-19.0-0.0-0.74,A6WYBPPG8Y2Q4,3DW3BNF1HKYVNTMBZS7SV7ATLD58VQ,30IQTZXKAOM8VCKXU50XFXXJC320XY,1,2
75,1,object_02,object_04,1040.599999994,1,2,356.0,0.2222222222222222,1,object_01,5,858,0,2,7,desert_3,1,memory-2step-stake-s,580,1850922,0.0-19.0-0.0-0.75,A6WYBPPG8Y2Q4,3DW3BNF1HKYVNTMBZS7SV7ATLD58VQ,30IQTZXKAOM8VCKXU50XFXXJC320XY,2,1
76,3,object_10,object_06,656.79999999702,5,1,292.30000001192,0.0,1,object_01,1,858,0,0,5,library_3,1,memory-2step-stake-s,581,1858431,0.0-19.0-0.0-0.76,A6WYBPPG8Y2Q4,3DW3BNF1HKYVNTMBZS7SV7ATLD58VQ,30IQTZXKAOM8VCKXU50XFXXJC320XY,5,6
77,2,object_03,object_08,817.79999999702,3,2,268.79999999702,0.1111111111111111,1,object_01,5,863,0,1,5,forest_8,1,memory-2step-stake-s,582,1866016,0.0-19.0-0.0-0.77,A6WYBPPG8Y2Q4,3DW3BNF1HKYVNTMBZS7SV7ATLD58VQ,30IQTZXKAOM8VCKXU50XFXXJC320XY,4,3
78,3,object_06,object_10,1017.5,6,1,395.79999999702,0.8888888888888888,2,object_09,5,903,0,2,8,library_2,1,memory-2step-stake-s,583,1874435,0.0-19.0-0.0-0.78,A6WYBPPG8Y2Q4,3DW3BNF1HKYVNTMBZS7SV7ATLD58VQ,30IQTZXKAOM8VCKXU50XFXXJC320XY,6,5
79,4,object_05,object_07,743.79999999702,8,1,570.60000000894,0.8888888888888888,2,object_09,1,911,0,4,8,restaurant_7,1,memory-2step-stake-s,584,1883029,0.0-19.0-0.0-0.79,A6WYBPPG8Y2Q4,3DW3BNF1HKYVNTMBZS7SV7ATLD58VQ,30IQTZXKAOM8VCKXU50XFXXJC320XY,8,7
80,3,object_10,object_06,831.20000000298,6,2,387.5,0.8888888888888888,2,object_09,5,951,0,2,8,library_8,1,memory-2step-stake-s,585,1891435,0.0-19.0-0.0-0.80,A6WYBPPG8Y2Q4,3DW3BNF1HKYVNTMBZS7SV7ATLD58VQ,30IQTZXKAOM8VCKXU50XFXXJC320XY,5,6
81,1,object_04,object_02,624.10000000894,1,1,379.5,0.3333333333333333,1,object_01,1,954,0,3,7,desert_4,1,memory-2step-stake-s,586,1899333,0.0-19.0-0.0-0.81,A6WYBPPG8Y2Q4,3DW3BNF1HKYVNTMBZS7SV7ATLD58VQ,30IQTZXKAOM8VCKXU50XFXXJC320XY,1,2
82,2,object_03,object_08,834.0,4,1,331.89999999106,0.8888888888888888,2,object_09,5,994,0,5,8,forest_4,1,memory-2step-stake-s,587,1907688,0.0-19.0-0.0-0.82,A6WYBPPG8Y2Q4,3DW3BNF1HKYVNTMBZS7SV7ATLD58VQ,30IQTZXKAOM8VCKXU50XFXXJC320XY,4,3
83,3,object_06,object_10,783.59999999404,6,1,362.70000000298,1.0,2,object_09,5,1039,0,5,9,library_7,1,memory-2step-stake-s,588,1916195,0.0-19.0-0.0-0.83,A6WYBPPG8Y2Q4,3DW3BNF1HKYVNTMBZS7SV7ATLD58VQ,30IQTZXKAOM8VCKXU50XFXXJC320XY,6,5
84,4,object_07,object_05,717.70000000298,8,2,289.09999999404,0.2222222222222222,2,object_09,5,1049,0,6,2,restaurant_6,1,memory-2step-stake-s,589,1923899,0.0-19.0-0.0-0.84,A6WYBPPG8Y2Q4,3DW3BNF1HKYVNTMBZS7SV7ATLD58VQ,30IQTZXKAOM8VCKXU50XFXXJC320XY,7,8
85,4,object_07,object_05,926.20000000298,7,1,473.89999999106,0.5555555555555556,1,object_01,5,1074,0,5,1,restaurant_8,1,memory-2step-stake-s,590,1932090,0.0-19.0-0.0-0.85,A6WYBPPG8Y2Q4,3DW3BNF1HKYVNTMBZS7SV7ATLD58VQ,30IQTZXKAOM8VCKXU50XFXXJC320XY,7,8
86,4,object_07,object_05,1103.8999999911,7,1,393.40000000596,0.6666666666666666,1,object_01,5,1104,0,6,1,restaurant_7,1,memory-2step-stake-s,591,1940303,0.0-19.0-0.0-0.86,A6WYBPPG8Y2Q4,3DW3BNF1HKYVNTMBZS7SV7ATLD58VQ,30IQTZXKAOM8VCKXU50XFXXJC320XY,7,8
87,3,object_06,object_10,833.79999999702,6,1,253.59999999404,0.2222222222222222,2,object_09,5,1114,0,6,2,library_8,1,memory-2step-stake-s,592,1947975,0.0-19.0-0.0-0.87,A6WYBPPG8Y2Q4,3DW3BNF1HKYVNTMBZS7SV7ATLD58VQ,30IQTZXKAOM8VCKXU50XFXXJC320XY,6,5
88,2,object_03,object_08,684.60000000894,4,1,265.0,0.1111111111111111,2,object_09,1,1115,0,9,1,forest_2,1,memory-2step-stake-s,593,1955552,0.0-19.0-0.0-0.88,A6WYBPPG8Y2Q4,3DW3BNF1HKYVNTMBZS7SV7ATLD58VQ,30IQTZXKAOM8VCKXU50XFXXJC320XY,4,3
89,4,object_05,object_07,772.59999999404,7,2,446.0,0.8888888888888888,1,object_01,5,1155,0,8,0,restaurant_7,1,memory-2step-stake-s,594,1964020,0.0-19.0-0.0-0.89,A6WYBPPG8Y2Q4,3DW3BNF1HKYVNTMBZS7SV7ATLD58VQ,30IQTZXKAOM8VCKXU50XFXXJC320XY,8,7
90,1,object_02,object_04,681.5,1,2,397.0,0.8888888888888888,1,object_01,1,1163,0,8,1,desert_4,1,memory-2step-stake-s,595,1972449,0.0-19.0-0.0-0.90,A6WYBPPG8Y2Q4,3DW3BNF1HKYVNTMBZS7SV7ATLD58VQ,30IQTZXKAOM8VCKXU50XFXXJC320XY,2,1
91,1,object_02,object_04,939.40000000596,1,2,415.20000000298,0.8888888888888888,1,object_01,1,1171,0,8,1,desert_4,1,memory-2step-stake-s,596,1980887,0.0-19.0-0.0-0.91,A6WYBPPG8Y2Q4,3DW3BNF1HKYVNTMBZS7SV7ATLD58VQ,30IQTZXKAOM8VCKXU50XFXXJC320XY,2,1
92,2,object_08,object_03,833.80000001192,3,1,277.79999999702,0.7777777777777778,1,object_01,5,1206,0,7,1,forest_2,1,memory-2step-stake-s,597,1989080,0.0-19.0-0.0-0.92,A6WYBPPG8Y2Q4,3DW3BNF1HKYVNTMBZS7SV7ATLD58VQ,30IQTZXKAOM8VCKXU50XFXXJC320XY,3,4
93,4,object_05,object_07,1208.700000003,7,2,347.60000000894,0.7777777777777778,1,object_01,5,1241,0,7,0,restaurant_4,1,memory-2step-stake-s,598,1997363,0.0-19.0-0.0-0.93,A6WYBPPG8Y2Q4,3DW3BNF1HKYVNTMBZS7SV7ATLD58VQ,30IQTZXKAOM8VCKXU50XFXXJC320XY,8,7
94,1,object_02,object_04,705.60000000894,2,1,253.09999999404,0.4444444444444444,2,object_09,1,1245,0,7,4,desert_2,1,memory-2step-stake-s,599,2005230,0.0-19.0-0.0-0.94,A6WYBPPG8Y2Q4,3DW3BNF1HKYVNTMBZS7SV7ATLD58VQ,30IQTZXKAOM8VCKXU50XFXXJC320XY,2,1
95,1,object_04,object_02,310.39999999106,2,2,297.59999999404,0.6666666666666666,2,object_09,1,1251,0,5,6,desert_5,1,memory-2step-stake-s,600,2013359,0.0-19.0-0.0-0.95,A6WYBPPG8Y2Q4,3DW3BNF1HKYVNTMBZS7SV7ATLD58VQ,30IQTZXKAOM8VCKXU50XFXXJC320XY,1,2
96,2,object_08,object_03,766.19999998808,4,2,383.59999999404,0.4444444444444444,2,object_09,5,1271,0,6,4,forest_2,1,memory-2step-stake-s,601,2021373,0.0-19.0-0.0-0.96,A6WYBPPG8Y2Q4,3DW3BNF1HKYVNTMBZS7SV7ATLD58VQ,30IQTZXKAOM8VCKXU50XFXXJC320XY,3,4
97,2,object_08,object_03,641.09999999404,3,1,444.80000001192,0.7777777777777778,1,object_01,1,1278,0,7,5,forest_4,1,memory-2step-stake-s,602,2029739,0.0-19.0-0.0-0.97,A6WYBPPG8Y2Q4,3DW3BNF1HKYVNTMBZS7SV7ATLD58VQ,30IQTZXKAOM8VCKXU50XFXXJC320XY,3,4
98,1,object_02,object_04,596.09999999404,1,2,432.90000000596,0.6666666666666666,1,object_01,1,1284,0,6,3,desert_4,1,memory-2step-stake-s,603,2037989,0.0-19.0-0.0-0.98,A6WYBPPG8Y2Q4,3DW3BNF1HKYVNTMBZS7SV7ATLD58VQ,30IQTZXKAOM8VCKXU50XFXXJC320XY,2,1
99,4,object_05,object_07,872.79999999702,7,2,323.30000001192,1.0,1,object_01,5,1329,0,9,2,restaurant_8,1,memory-2step-stake-s,604,2046436,0.0-19.0-0.0-0.99,A6WYBPPG8Y2Q4,3DW3BNF1HKYVNTMBZS7SV7ATLD58VQ,30IQTZXKAOM8VCKXU50XFXXJC320XY,8,7
100,4,object_07,object_05,694.5,7,1,306.10000000894,0.7777777777777778,1,object_01,5,1364,0,7,5,restaurant_4,1,memory-2step-stake-s,605,2054676,0.0-19.0-0.0-0.100,A6WYBPPG8Y2Q4,3DW3BNF1HKYVNTMBZS7SV7ATLD58VQ,30IQTZXKAOM8VCKXU50XFXXJC320XY,7,8
101,1,object_02,object_04,629.59999999404,2,1,552.40000000596,0.2222222222222222,2,object_09,1,1366,0,3,2,desert_4,1,memory-2step-stake-s,606,2062642,0.0-19.0-0.0-0.101,A6WYBPPG8Y2Q4,3DW3BNF1HKYVNTMBZS7SV7ATLD58VQ,30IQTZXKAOM8VCKXU50XFXXJC320XY,2,1
102,4,object_07,object_05,753.0,7,1,291.5,0.2222222222222222,1,object_01,5,1376,0,2,2,restaurant_8,1,memory-2step-stake-s,607,2070346,0.0-19.0-0.0-0.102,A6WYBPPG8Y2Q4,3DW3BNF1HKYVNTMBZS7SV7ATLD58VQ,30IQTZXKAOM8VCKXU50XFXXJC320XY,7,8
103,3,object_10,object_06,609.89999999106,6,2,348.5,0.3333333333333333,2,object_09,5,1391,0,1,3,library_7,1,memory-2step-stake-s,608,2078211,0.0-19.0-0.0-0.103,A6WYBPPG8Y2Q4,3DW3BNF1HKYVNTMBZS7SV7ATLD58VQ,30IQTZXKAOM8VCKXU50XFXXJC320XY,5,6
104,3,object_10,object_06,961.0,5,1,380.70000000298,0.3333333333333333,1,object_01,5,1406,0,3,4,library_7,1,memory-2step-stake-s,609,2086108,0.0-19.0-0.0-0.104,A6WYBPPG8Y2Q4,3DW3BNF1HKYVNTMBZS7SV7ATLD58VQ,30IQTZXKAOM8VCKXU50XFXXJC320XY,5,6
105,1,object_02,object_04,290.40000000596,1,2,324.79999999702,0.2222222222222222,1,object_01,1,1408,0,2,4,desert_3,1,memory-2step-stake-s,610,2093859,0.0-19.0-0.0-0.105,A6WYBPPG8Y2Q4,3DW3BNF1HKYVNTMBZS7SV7ATLD58VQ,30IQTZXKAOM8VCKXU50XFXXJC320XY,2,1
106,1,object_02,object_04,722.29999999702,2,1,438.89999999106,0.3333333333333333,2,object_09,1,1411,0,1,3,desert_3,1,memory-2step-stake-s,611,2101812,0.0-19.0-0.0-0.106,A6WYBPPG8Y2Q4,3DW3BNF1HKYVNTMBZS7SV7ATLD58VQ,30IQTZXKAOM8VCKXU50XFXXJC320XY,2,1
107,2,object_03,object_08,951.09999999404,3,2,251.59999999404,0.5555555555555556,1,object_01,5,1436,0,5,3,forest_2,1,memory-2step-stake-s,612,2109790,0.0-19.0-0.0-0.107,A6WYBPPG8Y2Q4,3DW3BNF1HKYVNTMBZS7SV7ATLD58VQ,30IQTZXKAOM8VCKXU50XFXXJC320XY,4,3
108,3,object_06,object_10,721.09999999404,6,1,365.5,0.3333333333333333,2,object_09,1,1439,0,6,3,library_7,1,memory-2step-stake-s,613,2117671,0.0-19.0-0.0-0.108,A6WYBPPG8Y2Q4,3DW3BNF1HKYVNTMBZS7SV7ATLD58VQ,30IQTZXKAOM8VCKXU50XFXXJC320XY,6,5
109,1,object_02,object_04,114.79999999702,2,1,414.09999999404,0.3333333333333333,2,object_09,1,1442,0,3,3,desert_2,1,memory-2step-stake-s,614,2125599,0.0-19.0-0.0-0.109,A6WYBPPG8Y2Q4,3DW3BNF1HKYVNTMBZS7SV7ATLD58VQ,30IQTZXKAOM8VCKXU50XFXXJC320XY,2,1
110,3,object_10,object_06,1211.0,6,2,318.89999999106,0.3333333333333333,2,object_09,5,1457,0,1,3,library_7,1,memory-2step-stake-s,615,2133433,0.0-19.0-0.0-0.110,A6WYBPPG8Y2Q4,3DW3BNF1HKYVNTMBZS7SV7ATLD58VQ,30IQTZXKAOM8VCKXU50XFXXJC320XY,5,6
111,1,object_02,object_04,887.5,2,1,281.79999999702,0.3333333333333333,2,object_09,5,1472,0,1,3,desert_5,1,memory-2step-stake-s,616,2141243,0.0-19.0-0.0-0.111,A6WYBPPG8Y2Q4,3DW3BNF1HKYVNTMBZS7SV7ATLD58VQ,30IQTZXKAOM8VCKXU50XFXXJC320XY,2,1
112,3,object_06,object_10,1193.799999997,5,2,397.39999999106,0.1111111111111111,1,object_01,5,1477,0,1,5,library_8,1,memory-2step-stake-s,617,2148953,0.0-19.0-0.0-0.112,A6WYBPPG8Y2Q4,3DW3BNF1HKYVNTMBZS7SV7ATLD58VQ,30IQTZXKAOM8VCKXU50XFXXJC320XY,6,5
113,2,object_03,object_08,723.69999998808,4,1,383.70000000298,0.5555555555555556,2,object_09,5,1502,0,0,5,forest_6,1,memory-2step-stake-s,618,2157057,0.0-19.0-0.0-0.113,A6WYBPPG8Y2Q4,3DW3BNF1HKYVNTMBZS7SV7ATLD58VQ,30IQTZXKAOM8VCKXU50XFXXJC320XY,4,3
114,4,object_05,object_07,620.5,8,1,342.89999999106,0.7777777777777778,2,object_09,5,1537,0,1,7,restaurant_6,1,memory-2step-stake-s,619,2165333,0.0-19.0-0.0-0.114,A6WYBPPG8Y2Q4,3DW3BNF1HKYVNTMBZS7SV7ATLD58VQ,30IQTZXKAOM8VCKXU50XFXXJC320XY,8,7
115,3,object_10,object_06,962.70000000298,6,2,366.70000000298,1.0,2,object_09,5,1582,0,3,9,library_8,1,memory-2step-stake-s,620,2173823,0.0-19.0-0.0-0.115,A6WYBPPG8Y2Q4,3DW3BNF1HKYVNTMBZS7SV7ATLD58VQ,30IQTZXKAOM8VCKXU50XFXXJC320XY,5,6
116,2,object_03,object_08,615.59999999404,4,1,402.0,0.6666666666666666,2,object_09,1,1588,0,4,6,forest_8,1,memory-2step-stake-s,621,2182047,0.0-19.0-0.0-0.116,A6WYBPPG8Y2Q4,3DW3BNF1HKYVNTMBZS7SV7ATLD58VQ,30IQTZXKAOM8VCKXU50XFXXJC320XY,4,3
117,4,object_05,object_07,1002.299999997,7,2,295.29999999702,0.4444444444444444,1,object_01,5,1608,0,4,4,restaurant_6,1,memory-2step-stake-s,622,2189957,0.0-19.0-0.0-0.117,A6WYBPPG8Y2Q4,3DW3BNF1HKYVNTMBZS7SV7ATLD58VQ,30IQTZXKAOM8VCKXU50XFXXJC320XY,8,7
118,2,object_08,object_03,708.90000000596,4,2,334.29999999702,0.7777777777777778,2,object_09,1,1615,0,5,7,forest_4,1,memory-2step-stake-s,623,2198214,0.0-19.0-0.0-0.118,A6WYBPPG8Y2Q4,3DW3BNF1HKYVNTMBZS7SV7ATLD58VQ,30IQTZXKAOM8VCKXU50XFXXJC320XY,3,4
119,3,object_10,object_06,845.10000000894,6,2,343.20000000298,0.8888888888888888,2,object_09,5,1655,0,5,8,library_8,1,memory-2step-stake-s,624,2206580,0.0-19.0-0.0-0.119,A6WYBPPG8Y2Q4,3DW3BNF1HKYVNTMBZS7SV7ATLD58VQ,30IQTZXKAOM8VCKXU50XFXXJC320XY,5,6
120,1,object_02,object_04,623.29999999702,1,2,641.70000000298,0.4444444444444444,1,object_01,1,1659,0,4,7,desert_4,1,memory-2step-stake-s,625,2214839,0.0-19.0-0.0-0.120,A6WYBPPG8Y2Q4,3DW3BNF1HKYVNTMBZS7SV7ATLD58VQ,30IQTZXKAOM8VCKXU50XFXXJC320XY,2,1
121,3,object_10,object_06,677.59999999404,5,1,354.70000000298,1.0,1,object_01,5,1704,0,9,7,library_7,1,memory-2step-stake-s,626,2223312,0.0-19.0-0.0-0.121,A6WYBPPG8Y2Q4,3DW3BNF1HKYVNTMBZS7SV7ATLD58VQ,30IQTZXKAOM8VCKXU50XFXXJC320XY,5,6
122,1,object_04,object_02,901.90000000596,1,1,249.79999999702,1.0,1,object_01,1,1713,0,9,6,desert_3,1,memory-2step-stake-s,627,2231694,0.0-19.0-0.0-0.122,A6WYBPPG8Y2Q4,3DW3BNF1HKYVNTMBZS7SV7ATLD58VQ,30IQTZXKAOM8VCKXU50XFXXJC320XY,1,2
123,1,object_04,object_02,769.40000000596,2,2,299.59999999404,0.5555555555555556,2,object_09,1,1718,0,8,5,desert_4,1,memory-2step-stake-s,628,2239710,0.0-19.0-0.0-0.123,A6WYBPPG8Y2Q4,3DW3BNF1HKYVNTMBZS7SV7ATLD58VQ,30IQTZXKAOM8VCKXU50XFXXJC320XY,1,2
124,1,object_02,object_04,993.5,1,2,309.5,0.7777777777777778,1,object_01,5,1753,0,7,7,desert_2,1,memory-2step-stake-s,629,2247948,0.0-19.0-0.0-0.124,A6WYBPPG8Y2Q4,3DW3BNF1HKYVNTMBZS7SV7ATLD58VQ,30IQTZXKAOM8VCKXU50XFXXJC320XY,2,1
125,2,object_03,object_08,508.09999999404,4,1,384.0,0.5555555555555556,2,object_09,1,1758,0,6,5,forest_4,1,memory-2step-stake-s,630,2256051,0.0-19.0-0.0-0.125,A6WYBPPG8Y2Q4,3DW3BNF1HKYVNTMBZS7SV7ATLD58VQ,30IQTZXKAOM8VCKXU50XFXXJC320XY,4,3
126,4,object_05,object_07,871.0,7,2,306.10000000894,0.3333333333333333,1,object_01,5,1773,0,3,5,restaurant_6,1,memory-2step-stake-s,631,2263872,0.0-19.0-0.0-0.126,A6WYBPPG8Y2Q4,3DW3BNF1HKYVNTMBZS7SV7ATLD58VQ,30IQTZXKAOM8VCKXU50XFXXJC320XY,8,7
127,4,object_07,object_05,659.09999999404,8,2,365.0,0.5555555555555556,2,object_09,5,1798,0,5,5,restaurant_7,1,memory-2step-stake-s,632,2271955,0.0-19.0-0.0-0.127,A6WYBPPG8Y2Q4,3DW3BNF1HKYVNTMBZS7SV7ATLD58VQ,30IQTZXKAOM8VCKXU50XFXXJC320XY,7,8
128,1,object_02,object_04,596.39999999106,1,2,270.70000000298,0.4444444444444444,1,object_01,5,1818,0,4,3,desert_3,1,memory-2step-stake-s,634,2324892,0.0-19.0-0.1-0.128,A6WYBPPG8Y2Q4,3DW3BNF1HKYVNTMBZS7SV7ATLD58VQ,30IQTZXKAOM8VCKXU50XFXXJC320XY,2,1
129,1,object_02,object_04,654.90000000596,2,1,321.5,0.1111111111111111,2,object_09,1,1819,0,5,1,desert_2,1,memory-2step-stake-s,635,2332528,0.0-19.0-0.1-0.129,A6WYBPPG8Y2Q4,3DW3BNF1HKYVNTMBZS7SV7ATLD58VQ,30IQTZXKAOM8VCKXU50XFXXJC320XY,2,1
130,2,object_03,object_08,835.10000000894,4,1,750.0,0.0,2,object_09,1,1819,0,4,0,forest_2,1,memory-2step-stake-s,636,2340492,0.0-19.0-0.1-0.130,A6WYBPPG8Y2Q4,3DW3BNF1HKYVNTMBZS7SV7ATLD58VQ,30IQTZXKAOM8VCKXU50XFXXJC320XY,4,3
131,3,object_10,object_06,966.39999999106,6,2,409.5,0.2222222222222222,2,object_09,5,1829,0,5,2,library_7,1,memory-2step-stake-s,637,2348319,0.0-19.0-0.1-0.131,A6WYBPPG8Y2Q4,3DW3BNF1HKYVNTMBZS7SV7ATLD58VQ,30IQTZXKAOM8VCKXU50XFXXJC320XY,5,6
132,2,object_03,object_08,844.09999999404,3,2,471.60000000894,0.4444444444444444,1,object_01,5,1849,0,4,1,forest_8,1,memory-2step-stake-s,638,2356420,0.0-19.0-0.1-0.132,A6WYBPPG8Y2Q4,3DW3BNF1HKYVNTMBZS7SV7ATLD58VQ,30IQTZXKAOM8VCKXU50XFXXJC320XY,4,3
133,3,object_06,object_10,1409.299999997,6,1,453.5,0.4444444444444444,2,object_09,5,1869,0,6,4,library_2,1,memory-2step-stake-s,639,2364491,0.0-19.0-0.1-0.133,A6WYBPPG8Y2Q4,3DW3BNF1HKYVNTMBZS7SV7ATLD58VQ,30IQTZXKAOM8VCKXU50XFXXJC320XY,6,5
134,3,object_06,object_10,828.29999999702,5,2,366.60000000894,0.7777777777777778,1,object_01,5,1904,0,7,3,library_8,1,memory-2step-stake-s,640,2372779,0.0-19.0-0.1-0.134,A6WYBPPG8Y2Q4,3DW3BNF1HKYVNTMBZS7SV7ATLD58VQ,30IQTZXKAOM8VCKXU50XFXXJC320XY,6,5
135,1,object_02,object_04,554.90000000596,1,2,591.29999999702,0.4444444444444444,1,object_01,1,1908,0,4,0,desert_5,1,memory-2step-stake-s,641,2380990,0.0-19.0-0.1-0.135,A6WYBPPG8Y2Q4,3DW3BNF1HKYVNTMBZS7SV7ATLD58VQ,30IQTZXKAOM8VCKXU50XFXXJC320XY,2,1
136,2,object_08,object_03,665.0,3,1,292.79999999702,0.6666666666666666,1,object_01,1,1914,0,6,0,forest_4,1,memory-2step-stake-s,642,2389103,0.0-19.0-0.1-0.136,A6WYBPPG8Y2Q4,3DW3BNF1HKYVNTMBZS7SV7ATLD58VQ,30IQTZXKAOM8VCKXU50XFXXJC320XY,3,4
137,1,object_02,object_04,578.0,1,2,453.60000000894,0.7777777777777778,1,object_01,5,1949,0,7,2,desert_2,1,memory-2step-stake-s,643,2397476,0.0-19.0-0.1-0.137,A6WYBPPG8Y2Q4,3DW3BNF1HKYVNTMBZS7SV7ATLD58VQ,30IQTZXKAOM8VCKXU50XFXXJC320XY,2,1
138,2,object_03,object_08,647.79999999702,4,1,450.70000000298,0.5555555555555556,2,object_09,1,1954,0,7,5,forest_2,1,memory-2step-stake-s,644,2405643,0.0-19.0-0.1-0.138,A6WYBPPG8Y2Q4,3DW3BNF1HKYVNTMBZS7SV7ATLD58VQ,30IQTZXKAOM8VCKXU50XFXXJC320XY,4,3
139,2,object_03,object_08,889.80000001192,4,1,332.59999999404,0.2222222222222222,2,object_09,1,1956,0,7,2,forest_4,1,memory-2step-stake-s,645,2413389,0.0-19.0-0.1-0.139,A6WYBPPG8Y2Q4,3DW3BNF1HKYVNTMBZS7SV7ATLD58VQ,30IQTZXKAOM8VCKXU50XFXXJC320XY,4,3
140,3,object_06,object_10,898.0,5,2,444.79999999702,0.6666666666666666,1,object_01,5,1986,0,6,3,library_2,1,memory-2step-stake-s,646,2421649,0.0-19.0-0.1-0.140,A6WYBPPG8Y2Q4,3DW3BNF1HKYVNTMBZS7SV7ATLD58VQ,30IQTZXKAOM8VCKXU50XFXXJC320XY,6,5
141,3,object_06,object_10,1021.8000000119,5,2,408.40000000596,0.6666666666666666,1,object_01,1,1992,0,6,1,library_8,1,memory-2step-stake-s,647,2429892,0.0-19.0-0.1-0.141,A6WYBPPG8Y2Q4,3DW3BNF1HKYVNTMBZS7SV7ATLD58VQ,30IQTZXKAOM8VCKXU50XFXXJC320XY,6,5
142,4,object_07,object_05,676.69999998808,7,1,286.0,0.6666666666666666,1,object_01,5,2022,0,6,3,restaurant_7,1,memory-2step-stake-s,648,2437997,0.0-19.0-0.1-0.142,A6WYBPPG8Y2Q4,3DW3BNF1HKYVNTMBZS7SV7ATLD58VQ,30IQTZXKAOM8VCKXU50XFXXJC320XY,7,8
143,4,object_05,object_07,684.0,7,2,293.5,0.8888888888888888,1,object_01,5,2062,0,8,5,restaurant_4,1,memory-2step-stake-s,649,2446331,0.0-19.0-0.1-0.143,A6WYBPPG8Y2Q4,3DW3BNF1HKYVNTMBZS7SV7ATLD58VQ,30IQTZXKAOM8VCKXU50XFXXJC320XY,8,7
144,1,object_04,object_02,958.09999999404,1,1,314.5,0.8888888888888888,1,object_01,5,2102,0,8,6,desert_4,1,memory-2step-stake-s,650,2454670,0.0-19.0-0.1-0.144,A6WYBPPG8Y2Q4,3DW3BNF1HKYVNTMBZS7SV7ATLD58VQ,30IQTZXKAOM8VCKXU50XFXXJC320XY,1,2
145,3,object_06,object_10,958.0,5,2,489.20000000298,1.0,1,object_01,5,2147,0,9,6,library_8,1,memory-2step-stake-s,651,2463279,0.0-19.0-0.1-0.145,A6WYBPPG8Y2Q4,3DW3BNF1HKYVNTMBZS7SV7ATLD58VQ,30IQTZXKAOM8VCKXU50XFXXJC320XY,6,5
146,1,object_02,object_04,981.20000000298,1,2,338.40000000596,0.8888888888888888,1,object_01,1,2155,0,8,2,desert_5,1,memory-2step-stake-s,652,2471635,0.0-19.0-0.1-0.146,A6WYBPPG8Y2Q4,3DW3BNF1HKYVNTMBZS7SV7ATLD58VQ,30IQTZXKAOM8VCKXU50XFXXJC320XY,2,1
147,1,object_04,object_02,624.59999999404,1,1,395.29999999702,1.0,1,object_01,1,2164,0,9,6,desert_2,1,memory-2step-stake-s,653,2480151,0.0-19.0-0.1-0.147,A6WYBPPG8Y2Q4,3DW3BNF1HKYVNTMBZS7SV7ATLD58VQ,30IQTZXKAOM8VCKXU50XFXXJC320XY,1,2
148,3,object_06,object_10,821.70000000298,5,2,400.40000000596,0.7777777777777778,1,object_01,5,2199,0,7,8,library_7,1,memory-2step-stake-s,654,2488475,0.0-19.0-0.1-0.148,A6WYBPPG8Y2Q4,3DW3BNF1HKYVNTMBZS7SV7ATLD58VQ,30IQTZXKAOM8VCKXU50XFXXJC320XY,6,5
149,4,object_07,object_05,692.79999999702,7,1,335.29999999702,0.8888888888888888,1,object_01,5,2239,0,8,7,restaurant_8,1,memory-2step-stake-s,655,2496834,0.0-19.0-0.1-0.149,A6WYBPPG8Y2Q4,3DW3BNF1HKYVNTMBZS7SV7ATLD58VQ,30IQTZXKAOM8VCKXU50XFXXJC320XY,7,8
150,2,object_08,object_03,783.29999999702,4,2,371.0,0.5555555555555556,2,object_09,1,2244,0,8,5,forest_6,1,memory-2step-stake-s,656,2504920,0.0-19.0-0.1-0.150,A6WYBPPG8Y2Q4,3DW3BNF1HKYVNTMBZS7SV7ATLD58VQ,30IQTZXKAOM8VCKXU50XFXXJC320XY,3,4
151,4,object_05,object_07,577.59999999404,7,2,412.0,1.0,1,object_01,5,2289,0,9,2,restaurant_4,1,memory-2step-stake-s,657,2513474,0.0-19.0-0.1-0.151,A6WYBPPG8Y2Q4,3DW3BNF1HKYVNTMBZS7SV7ATLD58VQ,30IQTZXKAOM8VCKXU50XFXXJC320XY,8,7
152,4,object_07,object_05,695.5,7,1,323.20000000298,0.6666666666666666,1,object_01,5,2319,0,6,2,restaurant_4,1,memory-2step-stake-s,658,2521623,0.0-19.0-0.1-0.152,A6WYBPPG8Y2Q4,3DW3BNF1HKYVNTMBZS7SV7ATLD58VQ,30IQTZXKAOM8VCKXU50XFXXJC320XY,7,8
153,4,object_07,object_05,683.89999999106,8,2,302.0,0.5555555555555556,2,object_09,5,2344,0,5,5,restaurant_7,1,memory-2step-stake-s,659,2529646,0.0-19.0-0.1-0.153,A6WYBPPG8Y2Q4,3DW3BNF1HKYVNTMBZS7SV7ATLD58VQ,30IQTZXKAOM8VCKXU50XFXXJC320XY,7,8
154,4,object_07,object_05,677.69999998808,8,2,439.5,1.0,2,object_09,5,2389,0,3,9,restaurant_4,1,memory-2step-stake-s,660,2538206,0.0-19.0-0.1-0.154,A6WYBPPG8Y2Q4,3DW3BNF1HKYVNTMBZS7SV7ATLD58VQ,30IQTZXKAOM8VCKXU50XFXXJC320XY,7,8
155,4,object_07,object_05,751.29999999702,8,2,411.0,1.0,2,object_09,5,2434,0,4,9,restaurant_4,1,memory-2step-stake-s,661,2546735,0.0-19.0-0.1-0.155,A6WYBPPG8Y2Q4,3DW3BNF1HKYVNTMBZS7SV7ATLD58VQ,30IQTZXKAOM8VCKXU50XFXXJC320XY,7,8
156,4,object_05,object_07,742.60000000894,8,1,352.90000000596,0.7777777777777778,2,object_09,5,2469,0,2,7,restaurant_6,1,memory-2step-stake-s,662,2555009,0.0-19.0-0.1-0.156,A6WYBPPG8Y2Q4,3DW3BNF1HKYVNTMBZS7SV7ATLD58VQ,30IQTZXKAOM8VCKXU50XFXXJC320XY,8,7
157,4,object_07,object_05,629.29999999702,8,2,336.40000000596,0.8888888888888888,2,object_09,5,2509,0,1,8,restaurant_4,1,memory-2step-stake-s,663,2563366,0.0-19.0-0.1-0.157,A6WYBPPG8Y2Q4,3DW3BNF1HKYVNTMBZS7SV7ATLD58VQ,30IQTZXKAOM8VCKXU50XFXXJC320XY,7,8
158,3,object_06,object_10,616.70000000298,5,2,283.60000000894,0.4444444444444444,1,object_01,5,2529,0,4,7,library_7,1,memory-2step-stake-s,664,2571265,0.0-19.0-0.1-0.158,A6WYBPPG8Y2Q4,3DW3BNF1HKYVNTMBZS7SV7ATLD58VQ,30IQTZXKAOM8VCKXU50XFXXJC320XY,6,5
159,1,object_02,object_04,671.20000000298,2,1,258.29999999702,0.5555555555555556,2,object_09,1,2534,0,6,5,desert_4,1,memory-2step-stake-s,665,2579239,0.0-19.0-0.1-0.159,A6WYBPPG8Y2Q4,3DW3BNF1HKYVNTMBZS7SV7ATLD58VQ,30IQTZXKAOM8VCKXU50XFXXJC320XY,2,1
160,4,object_05,object_07,618.29999999702,8,1,301.89999999106,0.6666666666666666,2,object_09,5,2564,0,5,6,restaurant_4,1,memory-2step-stake-s,666,2587370,0.0-19.0-0.1-0.160,A6WYBPPG8Y2Q4,3DW3BNF1HKYVNTMBZS7SV7ATLD58VQ,30IQTZXKAOM8VCKXU50XFXXJC320XY,8,7
161,1,object_02,object_04,966.5,2,1,325.0,0.7777777777777778,2,object_09,5,2599,0,2,7,desert_3,1,memory-2step-stake-s,667,2595622,0.0-19.0-0.1-0.161,A6WYBPPG8Y2Q4,3DW3BNF1HKYVNTMBZS7SV7ATLD58VQ,30IQTZXKAOM8VCKXU50XFXXJC320XY,2,1
162,3,object_10,object_06,708.89999999106,5,1,310.89999999106,0.4444444444444444,1,object_01,5,2619,0,4,7,library_2,1,memory-2step-stake-s,668,2603550,0.0-19.0-0.1-0.162,A6WYBPPG8Y2Q4,3DW3BNF1HKYVNTMBZS7SV7ATLD58VQ,30IQTZXKAOM8VCKXU50XFXXJC320XY,5,6
163,2,object_08,object_03,910.29999999702,3,1,281.59999999404,0.3333333333333333,1,object_01,1,2622,0,3,8,forest_4,1,memory-2step-stake-s,669,2611347,0.0-19.0-0.1-0.163,A6WYBPPG8Y2Q4,3DW3BNF1HKYVNTMBZS7SV7ATLD58VQ,30IQTZXKAOM8VCKXU50XFXXJC320XY,3,4
164,2,object_03,object_08,738.5,4,1,725.70000000298,1.0,2,object_09,5,2667,0,1,9,forest_2,1,memory-2step-stake-s,670,2620208,0.0-19.0-0.1-0.164,A6WYBPPG8Y2Q4,3DW3BNF1HKYVNTMBZS7SV7ATLD58VQ,30IQTZXKAOM8VCKXU50XFXXJC320XY,4,3
165,2,object_08,object_03,437.70000000298,4,2,288.29999999702,0.7777777777777778,2,object_09,1,2674,0,4,7,forest_8,1,memory-2step-stake-s,671,2628416,0.0-19.0-0.1-0.165,A6WYBPPG8Y2Q4,3DW3BNF1HKYVNTMBZS7SV7ATLD58VQ,30IQTZXKAOM8VCKXU50XFXXJC320XY,3,4
166,4,object_07,object_05,518.59999999404,8,2,313.39999999106,0.5555555555555556,2,object_09,5,2699,0,1,5,restaurant_4,1,memory-2step-stake-s,672,2636449,0.0-19.0-0.1-0.166,A6WYBPPG8Y2Q4,3DW3BNF1HKYVNTMBZS7SV7ATLD58VQ,30IQTZXKAOM8VCKXU50XFXXJC320XY,7,8
167,3,object_10,object_06,550.89999999106,5,1,458.90000000596,0.0,1,object_01,1,2699,0,0,3,library_8,1,memory-2step-stake-s,673,2644119,0.0-19.0-0.1-0.167,A6WYBPPG8Y2Q4,3DW3BNF1HKYVNTMBZS7SV7ATLD58VQ,30IQTZXKAOM8VCKXU50XFXXJC320XY,5,6
168,4,object_07,object_05,760.0,8,2,385.40000000596,0.1111111111111111,2,object_09,5,2704,0,2,1,restaurant_6,1,memory-2step-stake-s,674,2651821,0.0-19.0-0.1-0.168,A6WYBPPG8Y2Q4,3DW3BNF1HKYVNTMBZS7SV7ATLD58VQ,30IQTZXKAOM8VCKXU50XFXXJC320XY,7,8
169,3,object_06,object_10,788.20000000298,6,1,559.40000000596,0.4444444444444444,2,object_09,5,2724,0,5,4,library_2,1,memory-2step-stake-s,675,2660005,0.0-19.0-0.1-0.169,A6WYBPPG8Y2Q4,3DW3BNF1HKYVNTMBZS7SV7ATLD58VQ,30IQTZXKAOM8VCKXU50XFXXJC320XY,6,5
170,1,object_02,object_04,1014.400000006,2,1,321.5,0.3333333333333333,2,object_09,5,2739,0,3,3,desert_3,1,memory-2step-stake-s,676,2667842,0.0-19.0-0.1-0.170,A6WYBPPG8Y2Q4,3DW3BNF1HKYVNTMBZS7SV7ATLD58VQ,30IQTZXKAOM8VCKXU50XFXXJC320XY,2,1
171,2,object_03,object_08,712.60000000894,3,2,401.89999999106,0.4444444444444444,1,object_01,1,2743,0,4,6,forest_6,1,memory-2step-stake-s,677,2675865,0.0-19.0-0.1-0.171,A6WYBPPG8Y2Q4,3DW3BNF1HKYVNTMBZS7SV7ATLD58VQ,30IQTZXKAOM8VCKXU50XFXXJC320XY,4,3
172,3,object_10,object_06,916.0,5,1,454.29999999702,0.5555555555555556,1,object_01,5,2768,0,5,4,library_2,1,memory-2step-stake-s,678,2684038,0.0-19.0-0.1-0.172,A6WYBPPG8Y2Q4,3DW3BNF1HKYVNTMBZS7SV7ATLD58VQ,30IQTZXKAOM8VCKXU50XFXXJC320XY,5,6
173,3,object_10,object_06,1254.8999999911,6,2,338.39999999106,0.4444444444444444,2,object_09,5,2788,0,8,4,library_3,1,memory-2step-stake-s,679,2692009,0.0-19.0-0.1-0.173,A6WYBPPG8Y2Q4,3DW3BNF1HKYVNTMBZS7SV7ATLD58VQ,30IQTZXKAOM8VCKXU50XFXXJC320XY,5,6
174,2,object_08,object_03,405.80000001192,3,1,288.70000000298,0.6666666666666666,1,object_01,1,2794,0,6,6,forest_4,1,memory-2step-stake-s,680,2700118,0.0-19.0-0.1-0.174,A6WYBPPG8Y2Q4,3DW3BNF1HKYVNTMBZS7SV7ATLD58VQ,30IQTZXKAOM8VCKXU50XFXXJC320XY,3,4
175,2,object_08,object_03,457.09999999404,4,2,412.20000000298,0.3333333333333333,2,object_09,1,2797,0,8,3,forest_8,1,memory-2step-stake-s,681,2708048,0.0-19.0-0.1-0.175,A6WYBPPG8Y2Q4,3DW3BNF1HKYVNTMBZS7SV7ATLD58VQ,30IQTZXKAOM8VCKXU50XFXXJC320XY,3,4
176,2,object_08,object_03,814.89999999106,4,2,305.29999999702,0.7777777777777778,2,object_09,1,2804,0,9,7,forest_8,1,memory-2step-stake-s,682,2716275,0.0-19.0-0.1-0.176,A6WYBPPG8Y2Q4,3DW3BNF1HKYVNTMBZS7SV7ATLD58VQ,30IQTZXKAOM8VCKXU50XFXXJC320XY,3,4
177,4,object_05,object_07,734.70000000298,8,1,401.29999999702,0.4444444444444444,2,object_09,5,2824,0,6,4,restaurant_4,1,memory-2step-stake-s,683,2724301,0.0-19.0-0.1-0.177,A6WYBPPG8Y2Q4,3DW3BNF1HKYVNTMBZS7SV7ATLD58VQ,30IQTZXKAOM8VCKXU50XFXXJC320XY,8,7
178,4,object_05,object_07,1108.0,7,2,375.5,0.7777777777777778,1,object_01,5,2859,0,7,0,restaurant_8,1,memory-2step-stake-s,684,2732600,0.0-19.0-0.1-0.178,A6WYBPPG8Y2Q4,3DW3BNF1HKYVNTMBZS7SV7ATLD58VQ,30IQTZXKAOM8VCKXU50XFXXJC320XY,8,7
179,2,object_08,object_03,1339.400000006,3,1,334.30000001192,0.7777777777777778,1,object_01,5,2894,0,7,3,forest_8,1,memory-2step-stake-s,685,2740854,0.0-19.0-0.1-0.179,A6WYBPPG8Y2Q4,3DW3BNF1HKYVNTMBZS7SV7ATLD58VQ,30IQTZXKAOM8VCKXU50XFXXJC320XY,3,4
180,3,object_10,object_06,1375.3000000119,5,1,426.70000000298,1.0,1,object_01,5,2939,0,9,4,library_7,1,memory-2step-stake-s,686,2749410,0.0-19.0-0.1-0.180,A6WYBPPG8Y2Q4,3DW3BNF1HKYVNTMBZS7SV7ATLD58VQ,30IQTZXKAOM8VCKXU50XFXXJC320XY,5,6
181,2,object_08,object_03,1053.3999999911,3,1,289.19999998808,0.5555555555555556,1,object_01,5,2964,0,5,5,forest_4,1,memory-2step-stake-s,687,2757422,0.0-19.0-0.1-0.181,A6WYBPPG8Y2Q4,3DW3BNF1HKYVNTMBZS7SV7ATLD58VQ,30IQTZXKAOM8VCKXU50XFXXJC320XY,3,4
182,4,object_07,object_05,496.30000001192,8,2,348.70000000298,0.7777777777777778,2,object_09,1,2971,0,2,7,restaurant_4,1,memory-2step-stake-s,688,2765690,0.0-19.0-0.1-0.182,A6WYBPPG8Y2Q4,3DW3BNF1HKYVNTMBZS7SV7ATLD58VQ,30IQTZXKAOM8VCKXU50XFXXJC320XY,7,8
183,4,object_07,object_05,717.79999999702,8,2,300.20000000298,0.7777777777777778,2,object_09,5,3006,0,3,7,restaurant_8,1,memory-2step-stake-s,689,2773917,0.0-19.0-0.1-0.183,A6WYBPPG8Y2Q4,3DW3BNF1HKYVNTMBZS7SV7ATLD58VQ,30IQTZXKAOM8VCKXU50XFXXJC320XY,7,8
184,4,object_07,object_05,652.0,8,2,296.40000000596,0.6666666666666666,2,object_09,1,3012,0,6,6,restaurant_7,1,memory-2step-stake-s,690,2782029,0.0-19.0-0.1-0.184,A6WYBPPG8Y2Q4,3DW3BNF1HKYVNTMBZS7SV7ATLD58VQ,30IQTZXKAOM8VCKXU50XFXXJC320XY,7,8
185,4,object_07,object_05,837.29999999702,8,2,288.29999999702,0.7777777777777778,2,object_09,5,3047,0,6,7,restaurant_7,1,memory-2step-stake-s,691,2790247,0.0-19.0-0.1-0.185,A6WYBPPG8Y2Q4,3DW3BNF1HKYVNTMBZS7SV7ATLD58VQ,30IQTZXKAOM8VCKXU50XFXXJC320XY,7,8
186,1,object_02,object_04,725.40000000596,2,1,360.5,0.6666666666666666,2,object_09,1,3053,0,8,6,desert_4,1,memory-2step-stake-s,692,2798424,0.0-19.0-0.1-0.186,A6WYBPPG8Y2Q4,3DW3BNF1HKYVNTMBZS7SV7ATLD58VQ,30IQTZXKAOM8VCKXU50XFXXJC320XY,2,1
187,1,object_04,object_02,604.79999999702,2,2,446.90000000596,1.0,2,object_09,1,3062,0,5,9,desert_5,1,memory-2step-stake-s,693,2806993,0.0-19.0-0.1-0.187,A6WYBPPG8Y2Q4,3DW3BNF1HKYVNTMBZS7SV7ATLD58VQ,30IQTZXKAOM8VCKXU50XFXXJC320XY,1,2
188,1,object_02,object_04,596.5,2,1,283.40000000596,0.8888888888888888,2,object_09,1,3070,0,4,8,desert_2,1,memory-2step-stake-s,694,2815299,0.0-19.0-0.1-0.188,A6WYBPPG8Y2Q4,3DW3BNF1HKYVNTMBZS7SV7ATLD58VQ,30IQTZXKAOM8VCKXU50XFXXJC320XY,2,1
189,3,object_10,object_06,850.70000000298,6,2,462.5,0.8888888888888888,2,object_09,5,3110,0,6,8,library_8,1,memory-2step-stake-s,695,2823785,0.0-19.0-0.1-0.189,A6WYBPPG8Y2Q4,3DW3BNF1HKYVNTMBZS7SV7ATLD58VQ,30IQTZXKAOM8VCKXU50XFXXJC320XY,5,6
190,1,object_02,object_04,580.70000000298,2,1,333.19999998808,0.8888888888888888,2,object_09,1,3118,0,8,8,desert_5,1,memory-2step-stake-s,696,2832151,0.0-19.0-0.1-0.190,A6WYBPPG8Y2Q4,3DW3BNF1HKYVNTMBZS7SV7ATLD58VQ,30IQTZXKAOM8VCKXU50XFXXJC320XY,2,1
191,2,object_08,object_03,560.10000000894,4,2,283.69999998808,0.7777777777777778,2,object_09,1,3125,0,9,7,forest_8,1,memory-2step-stake-s,697,2840356,0.0-19.0-0.1-0.191,A6WYBPPG8Y2Q4,3DW3BNF1HKYVNTMBZS7SV7ATLD58VQ,30IQTZXKAOM8VCKXU50XFXXJC320XY,3,4
192,4,object_07,object_05,550.29999999702,8,2,336.59999999404,0.5555555555555556,2,object_09,1,3130,0,9,5,restaurant_8,1,memory-2step-stake-s,698,2848411,0.0-19.0-0.1-0.192,A6WYBPPG8Y2Q4,3DW3BNF1HKYVNTMBZS7SV7ATLD58VQ,30IQTZXKAOM8VCKXU50XFXXJC320XY,7,8
193,4,object_07,object_05,576.09999999404,8,2,292.20000000298,0.8888888888888888,2,object_09,5,3170,0,7,8,restaurant_4,1,memory-2step-stake-s,699,2856725,0.0-19.0-0.1-0.193,A6WYBPPG8Y2Q4,3DW3BNF1HKYVNTMBZS7SV7ATLD58VQ,30IQTZXKAOM8VCKXU50XFXXJC320XY,7,8
194,2,object_08,object_03,798.5,4,2,322.0,0.8888888888888888,2,object_09,5,3210,0,8,8,forest_6,1,memory-2step-stake-s,700,2865067,0.0-19.0-0.1-0.194,A6WYBPPG8Y2Q4,3DW3BNF1HKYVNTMBZS7SV7ATLD58VQ,30IQTZXKAOM8VCKXU50XFXXJC320XY,3,4
195,1,object_04,object_02,673.80000001192,2,2,597.39999999106,0.6666666666666666,2,object_09,1,3216,0,7,6,desert_3,1,memory-2step-stake-s,701,2873481,0.0-19.0-0.1-0.195,A6WYBPPG8Y2Q4,3DW3BNF1HKYVNTMBZS7SV7ATLD58VQ,30IQTZXKAOM8VCKXU50XFXXJC320XY,1,2
196,4,object_07,object_05,619.20000000298,8,2,366.69999998808,0.7777777777777778,2,object_09,5,3251,0,6,7,restaurant_4,1,memory-2step-stake-s,702,2881769,0.0-19.0-0.1-0.196,A6WYBPPG8Y2Q4,3DW3BNF1HKYVNTMBZS7SV7ATLD58VQ,30IQTZXKAOM8VCKXU50XFXXJC320XY,7,8
197,2,object_03,object_08,1204.099999994,4,1,464.5,0.7777777777777778,2,object_09,1,3258,0,5,7,forest_4,1,memory-2step-stake-s,703,2890153,0.0-19.0-0.1-0.197,A6WYBPPG8Y2Q4,3DW3BNF1HKYVNTMBZS7SV7ATLD58VQ,30IQTZXKAOM8VCKXU50XFXXJC320XY,4,3
198,4,object_07,object_05,717.40000000596,7,1,256.90000000596,0.5555555555555556,1,object_01,1,3263,0,5,4,restaurant_8,1,memory-2step-stake-s,704,2898125,0.0-19.0-0.1-0.198,A6WYBPPG8Y2Q4,3DW3BNF1HKYVNTMBZS7SV7ATLD58VQ,30IQTZXKAOM8VCKXU50XFXXJC320XY,7,8
199,1,object_04,object_02,778.19999998808,2,2,278.29999999702,0.3333333333333333,2,object_09,1,3266,0,5,3,desert_4,1,memory-2step-stake-s,705,2905919,0.0-19.0-0.1-0.199,A6WYBPPG8Y2Q4,3DW3BNF1HKYVNTMBZS7SV7ATLD58VQ,30IQTZXKAOM8VCKXU50XFXXJC320XY,1,2
200,2,object_03,object_08,635.09999999404,3,2,270.19999998808,0.8888888888888888,1,object_01,1,3274,0,8,5,forest_8,1,memory-2step-stake-s,706,2914209,0.0-19.0-0.1-0.200,A6WYBPPG8Y2Q4,3DW3BNF1HKYVNTMBZS7SV7ATLD58VQ,30IQTZXKAOM8VCKXU50XFXXJC320XY,4,3
201,4,object_05,object_07,593.20000000298,7,2,316.29999999702,0.5555555555555556,1,object_01,5,3299,0,5,4,restaurant_8,1,memory-2step-stake-s,707,2922242,0.0-19.0-0.1-0.201,A6WYBPPG8Y2Q4,3DW3BNF1HKYVNTMBZS7SV7ATLD58VQ,30IQTZXKAOM8VCKXU50XFXXJC320XY,8,7
202,1,object_02,object_04,792.5,1,2,308.89999999106,0.5555555555555556,1,object_01,5,3324,0,5,5,desert_3,1,memory-2step-stake-s,708,2930270,0.0-19.0-0.1-0.202,A6WYBPPG8Y2Q4,3DW3BNF1HKYVNTMBZS7SV7ATLD58VQ,30IQTZXKAOM8VCKXU50XFXXJC320XY,2,1
203,3,object_10,object_06,1078.8000000119,6,2,336.20000000298,0.2222222222222222,2,object_09,5,3334,0,4,2,library_3,1,memory-2step-stake-s,709,2938025,0.0-19.0-0.1-0.203,A6WYBPPG8Y2Q4,3DW3BNF1HKYVNTMBZS7SV7ATLD58VQ,30IQTZXKAOM8VCKXU50XFXXJC320XY,5,6
204,4,object_05,object_07,618.70000000298,7,2,614.10000000894,0.5555555555555556,1,object_01,5,3359,0,5,5,restaurant_8,1,memory-2step-stake-s,710,2946373,0.0-19.0-0.1-0.204,A6WYBPPG8Y2Q4,3DW3BNF1HKYVNTMBZS7SV7ATLD58VQ,30IQTZXKAOM8VCKXU50XFXXJC320XY,8,7
205,2,object_03,object_08,1009.8999999911,3,2,204.89999999106,0.8888888888888888,1,object_01,1,3367,0,8,4,forest_8,1,memory-2step-stake-s,711,2954605,0.0-19.0-0.1-0.205,A6WYBPPG8Y2Q4,3DW3BNF1HKYVNTMBZS7SV7ATLD58VQ,30IQTZXKAOM8VCKXU50XFXXJC320XY,4,3
206,1,object_04,object_02,922.60000000894,1,1,381.79999999702,0.6666666666666666,1,object_01,5,3397,0,6,7,desert_2,1,memory-2step-stake-s,712,2962807,0.0-19.0-0.1-0.206,A6WYBPPG8Y2Q4,3DW3BNF1HKYVNTMBZS7SV7ATLD58VQ,30IQTZXKAOM8VCKXU50XFXXJC320XY,1,2
207,1,object_02,object_04,689.19999998808,1,2,316.60000000894,0.4444444444444444,1,object_01,1,3401,0,4,7,desert_2,1,memory-2step-stake-s,713,2970749,0.0-19.0-0.1-0.207,A6WYBPPG8Y2Q4,3DW3BNF1HKYVNTMBZS7SV7ATLD58VQ,30IQTZXKAOM8VCKXU50XFXXJC320XY,2,1
208,3,object_10,object_06,772.29999999702,5,1,280.59999999404,0.5555555555555556,1,object_01,5,3426,0,5,6,library_2,1,memory-2step-stake-s,714,2978745,0.0-19.0-0.1-0.208,A6WYBPPG8Y2Q4,3DW3BNF1HKYVNTMBZS7SV7ATLD58VQ,30IQTZXKAOM8VCKXU50XFXXJC320XY,5,6
209,3,object_10,object_06,776.90000000596,5,1,292.0,0.7777777777777778,1,object_01,5,3461,0,7,5,library_3,1,memory-2step-stake-s,715,2986957,0.0-19.0-0.1-0.209,A6WYBPPG8Y2Q4,3DW3BNF1HKYVNTMBZS7SV7ATLD58VQ,30IQTZXKAOM8VCKXU50XFXXJC320XY,5,6
210,2,object_03,object_08,557.79999999702,3,2,96.100000008941,0.7777777777777778,1,object_01,5,3496,0,7,3,forest_2,1,memory-2step-stake-s,716,2994974,0.0-19.0-0.1-0.210,A6WYBPPG8Y2Q4,3DW3BNF1HKYVNTMBZS7SV7ATLD58VQ,30IQTZXKAOM8VCKXU50XFXXJC320XY,4,3
211,1,object_04,object_02,708.0,1,1,367.0,0.6666666666666666,1,object_01,5,3526,0,6,1,desert_5,1,memory-2step-stake-s,717,3003164,0.0-19.0-0.1-0.211,A6WYBPPG8Y2Q4,3DW3BNF1HKYVNTMBZS7SV7ATLD58VQ,30IQTZXKAOM8VCKXU50XFXXJC320XY,1,2
212,1,object_02,object_04,599.60000000894,1,2,243.20000000298,0.7777777777777778,1,object_01,1,3533,0,7,1,desert_5,1,memory-2step-stake-s,718,3011328,0.0-19.0-0.1-0.212,A6WYBPPG8Y2Q4,3DW3BNF1HKYVNTMBZS7SV7ATLD58VQ,30IQTZXKAOM8VCKXU50XFXXJC320XY,2,1
213,1,object_02,object_04,708.89999999106,1,2,371.80000001192,0.7777777777777778,1,object_01,1,3540,0,7,1,desert_5,1,memory-2step-stake-s,719,3019634,0.0-19.0-0.1-0.213,A6WYBPPG8Y2Q4,3DW3BNF1HKYVNTMBZS7SV7ATLD58VQ,30IQTZXKAOM8VCKXU50XFXXJC320XY,2,1
214,2,object_08,object_03,484.59999999404,3,1,351.70000000298,0.6666666666666666,1,object_01,5,3570,0,6,4,forest_6,1,memory-2step-stake-s,720,3027805,0.0-19.0-0.1-0.214,A6WYBPPG8Y2Q4,3DW3BNF1HKYVNTMBZS7SV7ATLD58VQ,30IQTZXKAOM8VCKXU50XFXXJC320XY,3,4
215,2,object_08,object_03,459.29999999702,3,1,286.69999998808,0.5555555555555556,1,object_01,1,3575,0,5,1,forest_6,1,memory-2step-stake-s,721,3035811,0.0-19.0-0.1-0.215,A6WYBPPG8Y2Q4,3DW3BNF1HKYVNTMBZS7SV7ATLD58VQ,30IQTZXKAOM8VCKXU50XFXXJC320XY,3,4
216,1,object_02,object_04,742.39999999106,2,1,305.20000000298,0.1111111111111111,2,object_09,1,3576,0,7,1,desert_3,1,memory-2step-stake-s,722,3043428,0.0-19.0-0.1-0.216,A6WYBPPG8Y2Q4,3DW3BNF1HKYVNTMBZS7SV7ATLD58VQ,30IQTZXKAOM8VCKXU50XFXXJC320XY,2,1
217,4,object_07,object_05,764.90000000596,7,1,559.39999999106,1.0,1,object_01,1,3585,0,9,3,restaurant_7,1,memory-2step-stake-s,723,3052113,0.0-19.0-0.1-0.217,A6WYBPPG8Y2Q4,3DW3BNF1HKYVNTMBZS7SV7ATLD58VQ,30IQTZXKAOM8VCKXU50XFXXJC320XY,7,8
218,3,object_10,object_06,1001.6000000089,5,1,388.90000000596,0.7777777777777778,1,object_01,5,3620,0,7,9,library_3,1,memory-2step-stake-s,724,3060419,0.0-19.0-0.1-0.218,A6WYBPPG8Y2Q4,3DW3BNF1HKYVNTMBZS7SV7ATLD58VQ,30IQTZXKAOM8VCKXU50XFXXJC320XY,5,6
219,4,object_07,object_05,496.60000000894,7,1,341.5,0.6666666666666666,1,object_01,5,3650,0,6,8,restaurant_6,1,memory-2step-stake-s,725,3068577,0.0-19.0-0.1-0.219,A6WYBPPG8Y2Q4,3DW3BNF1HKYVNTMBZS7SV7ATLD58VQ,30IQTZXKAOM8VCKXU50XFXXJC320XY,7,8
220,3,object_06,object_10,670.0,5,2,424.20000000298,0.5555555555555556,1,object_01,5,3675,0,5,7,library_2,1,memory-2step-stake-s,726,3076742,0.0-19.0-0.1-0.220,A6WYBPPG8Y2Q4,3DW3BNF1HKYVNTMBZS7SV7ATLD58VQ,30IQTZXKAOM8VCKXU50XFXXJC320XY,6,5
221,2,object_08,object_03,1094.8000000119,3,1,298.39999999106,0.2222222222222222,1,object_01,5,3685,0,2,8,forest_8,1,memory-2step-stake-s,727,3084471,0.0-19.0-0.1-0.221,A6WYBPPG8Y2Q4,3DW3BNF1HKYVNTMBZS7SV7ATLD58VQ,30IQTZXKAOM8VCKXU50XFXXJC320XY,3,4
222,2,object_08,object_03,367.60000000894,4,2,267.19999998808,0.7777777777777778,2,object_09,1,3692,0,1,7,forest_6,1,memory-2step-stake-s,728,3092656,0.0-19.0-0.1-0.222,A6WYBPPG8Y2Q4,3DW3BNF1HKYVNTMBZS7SV7ATLD58VQ,30IQTZXKAOM8VCKXU50XFXXJC320XY,3,4
223,2,object_08,object_03,464.29999999702,4,2,322.59999999404,0.5555555555555556,2,object_09,1,3697,0,4,5,forest_8,1,memory-2step-stake-s,729,3100695,0.0-19.0-0.1-0.223,A6WYBPPG8Y2Q4,3DW3BNF1HKYVNTMBZS7SV7ATLD58VQ,30IQTZXKAOM8VCKXU50XFXXJC320XY,3,4
224,2,object_08,object_03,817.5,3,1,252.70000000298,0.6666666666666666,1,object_01,1,3703,0,6,5,forest_2,1,memory-2step-stake-s,730,3108766,0.0-19.0-0.1-0.224,A6WYBPPG8Y2Q4,3DW3BNF1HKYVNTMBZS7SV7ATLD58VQ,30IQTZXKAOM8VCKXU50XFXXJC320XY,3,4
225,2,object_03,object_08,572.59999999404,3,2,418.20000000298,0.6666666666666666,1,object_01,1,3709,0,6,3,forest_8,1,memory-2step-stake-s,731,3117019,0.0-19.0-0.1-0.225,A6WYBPPG8Y2Q4,3DW3BNF1HKYVNTMBZS7SV7ATLD58VQ,30IQTZXKAOM8VCKXU50XFXXJC320XY,4,3
226,1,object_02,object_04,640.59999999404,2,1,340.79999999702,0.5555555555555556,2,object_09,1,3714,0,3,5,desert_2,1,memory-2step-stake-s,732,3125076,0.0-19.0-0.1-0.226,A6WYBPPG8Y2Q4,3DW3BNF1HKYVNTMBZS7SV7ATLD58VQ,30IQTZXKAOM8VCKXU50XFXXJC320XY,2,1
227,4,object_07,object_05,751.70000000298,7,1,296.89999999106,0.4444444444444444,1,object_01,5,3734,0,4,4,restaurant_6,1,memory-2step-stake-s,733,3132994,0.0-19.0-0.1-0.227,A6WYBPPG8Y2Q4,3DW3BNF1HKYVNTMBZS7SV7ATLD58VQ,30IQTZXKAOM8VCKXU50XFXXJC320XY,7,8
228,4,object_07,object_05,451.90000000596,8,2,366.0,0.3333333333333333,2,object_09,5,3749,0,2,3,restaurant_6,1,memory-2step-stake-s,734,3140874,0.0-19.0-0.1-0.228,A6WYBPPG8Y2Q4,3DW3BNF1HKYVNTMBZS7SV7ATLD58VQ,30IQTZXKAOM8VCKXU50XFXXJC320XY,7,8
229,2,object_08,object_03,539.79999999702,3,1,351.60000000894,0.4444444444444444,1,object_01,5,3769,0,4,5,forest_6,1,memory-2step-stake-s,735,3148841,0.0-19.0-0.1-0.229,A6WYBPPG8Y2Q4,3DW3BNF1HKYVNTMBZS7SV7ATLD58VQ,30IQTZXKAOM8VCKXU50XFXXJC320XY,3,4
230,3,object_10,object_06,782.79999999702,5,1,745.5,0.0,1,object_01,5,3769,0,0,8,library_8,1,memory-2step-stake-s,736,3156798,0.0-19.0-0.1-0.230,A6WYBPPG8Y2Q4,3DW3BNF1HKYVNTMBZS7SV7ATLD58VQ,30IQTZXKAOM8VCKXU50XFXXJC320XY,5,6
231,3,object_10,object_06,769.79999999702,6,2,476.90000000596,0.8888888888888888,2,object_09,5,3809,0,0,8,library_2,1,memory-2step-stake-s,737,3165293,0.0-19.0-0.1-0.231,A6WYBPPG8Y2Q4,3DW3BNF1HKYVNTMBZS7SV7ATLD58VQ,30IQTZXKAOM8VCKXU50XFXXJC320XY,5,6
232,4,object_05,object_07,844.29999999702,8,1,567.79999999702,0.6666666666666666,2,object_09,1,3815,0,1,6,restaurant_4,1,memory-2step-stake-s,738,3173676,0.0-19.0-0.1-0.232,A6WYBPPG8Y2Q4,3DW3BNF1HKYVNTMBZS7SV7ATLD58VQ,30IQTZXKAOM8VCKXU50XFXXJC320XY,8,7
233,3,object_06,object_10,694.0,6,1,305.20000000298,0.8888888888888888,2,object_09,5,3855,0,2,8,library_7,1,memory-2step-stake-s,739,3182004,0.0-19.0-0.1-0.233,A6WYBPPG8Y2Q4,3DW3BNF1HKYVNTMBZS7SV7ATLD58VQ,30IQTZXKAOM8VCKXU50XFXXJC320XY,6,5
234,3,object_06,object_10,934.89999999106,6,1,432.70000000298,0.6666666666666666,2,object_09,5,3885,0,1,6,library_3,1,memory-2step-stake-s,740,3190255,0.0-19.0-0.1-0.234,A6WYBPPG8Y2Q4,3DW3BNF1HKYVNTMBZS7SV7ATLD58VQ,30IQTZXKAOM8VCKXU50XFXXJC320XY,6,5
235,1,object_02,object_04,618.69999998808,2,1,285.89999999106,0.7777777777777778,2,object_09,1,3892,0,2,7,desert_3,1,memory-2step-stake-s,741,3198463,0.0-19.0-0.1-0.235,A6WYBPPG8Y2Q4,3DW3BNF1HKYVNTMBZS7SV7ATLD58VQ,30IQTZXKAOM8VCKXU50XFXXJC320XY,2,1
236,2,object_08,object_03,575.70000000298,4,2,337.70000000298,0.6666666666666666,2,object_09,1,3898,0,1,6,forest_4,1,memory-2step-stake-s,742,3206618,0.0-19.0-0.1-0.236,A6WYBPPG8Y2Q4,3DW3BNF1HKYVNTMBZS7SV7ATLD58VQ,30IQTZXKAOM8VCKXU50XFXXJC320XY,3,4
237,4,object_05,object_07,713.90000000596,8,1,293.5,0.4444444444444444,2,object_09,5,3918,0,0,4,restaurant_6,1,memory-2step-stake-s,743,3214530,0.0-19.0-0.1-0.237,A6WYBPPG8Y2Q4,3DW3BNF1HKYVNTMBZS7SV7ATLD58VQ,30IQTZXKAOM8VCKXU50XFXXJC320XY,8,7
238,3,object_10,object_06,708.0,5,1,336.20000000298,0.1111111111111111,1,object_01,5,3923,0,1,5,library_2,1,memory-2step-stake-s,744,3222179,0.0-19.0-0.1-0.238,A6WYBPPG8Y2Q4,3DW3BNF1HKYVNTMBZS7SV7ATLD58VQ,30IQTZXKAOM8VCKXU50XFXXJC320XY,5,6
239,2,object_08,object_03,602.40000000596,3,1,373.79999999702,0.3333333333333333,1,object_01,5,3938,0,3,8,forest_6,1,memory-2step-stake-s,745,3230073,0.0-19.0-0.1-0.239,A6WYBPPG8Y2Q4,3DW3BNF1HKYVNTMBZS7SV7ATLD58VQ,30IQTZXKAOM8VCKXU50XFXXJC320XY,3,4
240,4,object_07,object_05,670.79999999702,7,1,280.40000000596,0.2222222222222222,1,object_01,5,3948,0,2,9,restaurant_6,1,memory-2step-stake-s,746,3237785,0.0-19.0-0.1-0.240,A6WYBPPG8Y2Q4,3DW3BNF1HKYVNTMBZS7SV7ATLD58VQ,30IQTZXKAOM8VCKXU50XFXXJC320XY,7,8
241,3,object_06,object_10,882.19999998808,6,1,373.20000000298,0.8888888888888888,2,object_09,5,3988,0,3,8,library_3,1,memory-2step-stake-s,747,3246178,0.0-19.0-0.1-0.241,A6WYBPPG8Y2Q4,3DW3BNF1HKYVNTMBZS7SV7ATLD58VQ,30IQTZXKAOM8VCKXU50XFXXJC320XY,6,5
242,2,object_08,object_03,697.70000000298,4,2,268.5,0.8888888888888888,2,object_09,5,4028,0,2,8,forest_2,1,memory-2step-stake-s,748,3254468,0.0-19.0-0.1-0.242,A6WYBPPG8Y2Q4,3DW3BNF1HKYVNTMBZS7SV7ATLD58VQ,30IQTZXKAOM8VCKXU50XFXXJC320XY,3,4
243,4,object_05,object_07,592.0,8,1,243.0,0.8888888888888888,2,object_09,5,4068,0,4,8,restaurant_6,1,memory-2step-stake-s,749,3262734,0.0-19.0-0.1-0.243,A6WYBPPG8Y2Q4,3DW3BNF1HKYVNTMBZS7SV7ATLD58VQ,30IQTZXKAOM8VCKXU50XFXXJC320XY,8,7
244,4,object_07,object_05,678.5,8,2,297.79999999702,0.8888888888888888,2,object_09,5,4108,0,5,8,restaurant_8,1,memory-2step-stake-s,750,3271055,0.0-19.0-0.1-0.244,A6WYBPPG8Y2Q4,3DW3BNF1HKYVNTMBZS7SV7ATLD58VQ,30IQTZXKAOM8VCKXU50XFXXJC320XY,7,8
245,1,object_02,object_04,623.0,2,1,272.79999999702,0.8888888888888888,2,object_09,1,4116,0,4,8,desert_4,1,memory-2step-stake-s,751,3279351,0.0-19.0-0.1-0.245,A6WYBPPG8Y2Q4,3DW3BNF1HKYVNTMBZS7SV7ATLD58VQ,30IQTZXKAOM8VCKXU50XFXXJC320XY,2,1
246,3,object_10,object_06,983.90000000596,6,2,315.39999999106,0.4444444444444444,2,object_09,5,4136,0,8,4,library_8,1,memory-2step-stake-s,752,3287280,0.0-19.0-0.1-0.246,A6WYBPPG8Y2Q4,3DW3BNF1HKYVNTMBZS7SV7ATLD58VQ,30IQTZXKAOM8VCKXU50XFXXJC320XY,5,6
247,4,object_07,object_05,597.90000000596,7,1,336.89999999106,0.5555555555555556,1,object_01,5,4161,0,5,1,restaurant_8,1,memory-2step-stake-s,753,3295337,0.0-19.0-0.1-0.247,A6WYBPPG8Y2Q4,3DW3BNF1HKYVNTMBZS7SV7ATLD58VQ,30IQTZXKAOM8VCKXU50XFXXJC320XY,7,8
248,2,object_03,object_08,735.39999999106,3,2,298.19999998808,0.7777777777777778,1,object_01,1,4168,0,7,1,forest_8,1,memory-2step-stake-s,754,3303557,0.0-19.0-0.1-0.248,A6WYBPPG8Y2Q4,3DW3BNF1HKYVNTMBZS7SV7ATLD58VQ,30IQTZXKAOM8VCKXU50XFXXJC320XY,4,3
249,2,object_08,object_03,954.20000000298,3,1,301.69999998808,0.3333333333333333,1,object_01,5,4183,0,3,1,forest_6,1,memory-2step-stake-s,755,3311375,0.0-19.0-0.1-0.249,A6WYBPPG8Y2Q4,3DW3BNF1HKYVNTMBZS7SV7ATLD58VQ,30IQTZXKAOM8VCKXU50XFXXJC320XY,3,4
250,1,object_02,object_04,770.39999999106,1,2,269.5,0.5555555555555556,1,object_01,1,4188,0,5,2,desert_3,1,memory-2step-stake-s,756,3319365,0.0-19.0-0.1-0.250,A6WYBPPG8Y2Q4,3DW3BNF1HKYVNTMBZS7SV7ATLD58VQ,30IQTZXKAOM8VCKXU50XFXXJC320XY,2,1
251,4,object_05,object_07,974.5,8,1,258.20000000298,0.1111111111111111,2,object_09,5,4193,0,5,1,restaurant_7,1,memory-2step-stake-s,757,3326937,0.0-19.0-0.1-0.251,A6WYBPPG8Y2Q4,3DW3BNF1HKYVNTMBZS7SV7ATLD58VQ,30IQTZXKAOM8VCKXU50XFXXJC320XY,8,7
252,2,object_08,object_03,1195.400000006,4,2,319.59999999404,0.7777777777777778,2,object_09,5,4228,0,8,7,forest_6,1,memory-2step-stake-s,758,3335189,0.0-19.0-0.1-0.252,A6WYBPPG8Y2Q4,3DW3BNF1HKYVNTMBZS7SV7ATLD58VQ,30IQTZXKAOM8VCKXU50XFXXJC320XY,3,4
253,4,object_07,object_05,848.20000000298,8,2,284.39999999106,1.0,2,object_09,1,4237,0,6,9,restaurant_6,1,memory-2step-stake-s,759,3343595,0.0-19.0-0.1-0.253,A6WYBPPG8Y2Q4,3DW3BNF1HKYVNTMBZS7SV7ATLD58VQ,30IQTZXKAOM8VCKXU50XFXXJC320XY,7,8
254,3,object_10,object_06,1018.200000003,5,1,279.20000000298,0.6666666666666666,1,object_01,5,4267,0,6,7,library_8,1,memory-2step-stake-s,760,3351699,0.0-19.0-0.1-0.254,A6WYBPPG8Y2Q4,3DW3BNF1HKYVNTMBZS7SV7ATLD58VQ,30IQTZXKAOM8VCKXU50XFXXJC320XY,5,6
255,3,object_06,object_10,938.40000000596,6,1,270.30000001192,1.0,2,object_09,5,4312,0,8,9,library_8,1,memory-2step-stake-s,761,3360093,0.0-19.0-0.1-0.255,A6WYBPPG8Y2Q4,3DW3BNF1HKYVNTMBZS7SV7ATLD58VQ,30IQTZXKAOM8VCKXU50XFXXJC320XY,6,5
