,state1,stim_left,stim_right,rt_1,choice1,response1,rt_2,points,state2,stim_state2,stake,score,practice,rews1,rews2,background,high_arm,trial_type,trial_index,time_elapsed,internal_node_id,subid,hitid,assignmentid,stim_left_num,stim_right_num
0,1,object_07,object_01,-1.0,-1,-1,-1.0,0.0,-,0,5,0,0,4,2,desert_6,2,memory-2step-stake-s,490,835283,0.0-19.0-0.0-0.0,A5D0231X0XJNV,3Q9SPIIRXM2ML6FVM0W2D0Z2IA6WAR,3NS0A6KXC8OUBBVX9PDLXA0ARJQZGW,2,1
1,1,object_07,object_01,298.70000000298,2,1,-1.0,0.0,2,object_05,5,0,0,8,4,desert_6,2,memory-2step-stake-s,491,843818,0.0-19.0-0.0-0.1,A5D0231X0XJNV,3Q9SPIIRXM2ML6FVM0W2D0Z2IA6WAR,3NS0A6KXC8OUBBVX9PDLXA0ARJQZGW,2,1
2,3,object_08,object_10,629.59999999404,6,2,-1.0,0.0,2,object_05,1,0,0,7,4,library_5,2,memory-2step-stake-s,492,852353,0.0-19.0-0.0-0.2,A5D0231X0XJNV,3Q9SPIIRXM2ML6FVM0W2D0Z2IA6WAR,3NS0A6KXC8OUBBVX9PDLXA0ARJQZGW,5,6
3,1,object_07,object_01,578.10000000894,2,1,-1.0,0.0,2,object_05,1,0,0,8,7,desert_2,2,memory-2step-stake-s,493,860893,0.0-19.0-0.0-0.3,A5D0231X0XJNV,3Q9SPIIRXM2ML6FVM0W2D0Z2IA6WAR,3NS0A6KXC8OUBBVX9PDLXA0ARJQZGW,2,1
4,4,object_04,object_06,642.40000000596,7,2,-1.0,0.0,1,object_03,1,0,0,8,3,restaurant_2,2,memory-2step-stake-s,494,869438,0.0-19.0-0.0-0.4,A5D0231X0XJNV,3Q9SPIIRXM2ML6FVM0W2D0Z2IA6WAR,3NS0A6KXC8OUBBVX9PDLXA0ARJQZGW,8,7
5,1,object_07,object_01,1108.5,1,2,852.70000000298,0.7777777777777778,1,object_03,5,35,0,7,2,desert_3,2,memory-2step-stake-s,495,878261,0.0-19.0-0.0-0.5,A5D0231X0XJNV,3Q9SPIIRXM2ML6FVM0W2D0Z2IA6WAR,3NS0A6KXC8OUBBVX9PDLXA0ARJQZGW,2,1
6,4,object_06,object_04,686.59999999404,7,1,543.5,0.8888888888888888,1,object_03,1,43,0,8,1,restaurant_5,2,memory-2step-stake-s,496,886892,0.0-19.0-0.0-0.6,A5D0231X0XJNV,3Q9SPIIRXM2ML6FVM0W2D0Z2IA6WAR,3NS0A6KXC8OUBBVX9PDLXA0ARJQZGW,7,8
7,1,object_01,object_07,249.29999999702,2,2,765.5,0.1111111111111111,2,object_05,5,48,0,8,1,desert_3,2,memory-2step-stake-s,497,894998,0.0-19.0-0.0-0.7,A5D0231X0XJNV,3Q9SPIIRXM2ML6FVM0W2D0Z2IA6WAR,3NS0A6KXC8OUBBVX9PDLXA0ARJQZGW,1,2
8,1,object_01,object_07,469.30000001192,2,2,503.40000000596,0.0,2,object_05,5,48,0,8,0,desert_5,2,memory-2step-stake-s,498,902744,0.0-19.0-0.0-0.8,A5D0231X0XJNV,3Q9SPIIRXM2ML6FVM0W2D0Z2IA6WAR,3NS0A6KXC8OUBBVX9PDLXA0ARJQZGW,1,2
9,3,object_08,object_10,891.40000000596,5,1,575.69999998808,0.8888888888888888,1,object_03,1,56,0,8,2,library_8,2,memory-2step-stake-s,499,911384,0.0-19.0-0.0-0.9,A5D0231X0XJNV,3Q9SPIIRXM2ML6FVM0W2D0Z2IA6WAR,3NS0A6KXC8OUBBVX9PDLXA0ARJQZGW,5,6
10,4,object_06,object_04,991.59999999404,8,2,814.59999999404,0.2222222222222222,2,object_05,1,58,0,7,2,restaurant_2,2,memory-2step-stake-s,500,919640,0.0-19.0-0.0-0.10,A5D0231X0XJNV,3Q9SPIIRXM2ML6FVM0W2D0Z2IA6WAR,3NS0A6KXC8OUBBVX9PDLXA0ARJQZGW,7,8
11,2,object_02,object_09,535.70000000298,3,1,659.89999999106,0.6666666666666666,1,object_03,1,64,0,6,2,forest_1,2,memory-2step-stake-s,501,928170,0.0-19.0-0.0-0.11,A5D0231X0XJNV,3Q9SPIIRXM2ML6FVM0W2D0Z2IA6WAR,3NS0A6KXC8OUBBVX9PDLXA0ARJQZGW,3,4
12,3,object_10,object_08,874.09999999404,5,2,-1.0,0.0,1,object_03,1,64,0,6,4,library_8,2,memory-2step-stake-s,502,936700,0.0-19.0-0.0-0.12,A5D0231X0XJNV,3Q9SPIIRXM2ML6FVM0W2D0Z2IA6WAR,3NS0A6KXC8OUBBVX9PDLXA0ARJQZGW,6,5
13,3,object_08,object_10,367.30000001192,5,1,561.90000000596,0.4444444444444444,1,object_03,1,68,0,4,4,library_8,2,memory-2step-stake-s,503,944915,0.0-19.0-0.0-0.13,A5D0231X0XJNV,3Q9SPIIRXM2ML6FVM0W2D0Z2IA6WAR,3NS0A6KXC8OUBBVX9PDLXA0ARJQZGW,5,6
14,3,object_08,object_10,118.89999999106,6,2,508.59999999404,0.6666666666666666,2,object_05,1,74,0,5,6,library_6,2,memory-2step-stake-s,504,953282,0.0-19.0-0.0-0.14,A5D0231X0XJNV,3Q9SPIIRXM2ML6FVM0W2D0Z2IA6WAR,3NS0A6KXC8OUBBVX9PDLXA0ARJQZGW,5,6
15,3,object_10,object_08,331.0,5,2,549.20000000298,0.4444444444444444,1,object_03,1,78,0,4,8,library_6,2,memory-2step-stake-s,505,961494,0.0-19.0-0.0-0.15,A5D0231X0XJNV,3Q9SPIIRXM2ML6FVM0W2D0Z2IA6WAR,3NS0A6KXC8OUBBVX9PDLXA0ARJQZGW,6,5
16,1,object_07,object_01,352.70000000298,1,2,493.20000000298,0.2222222222222222,1,object_03,5,88,0,2,7,desert_5,2,memory-2step-stake-s,506,969419,0.0-19.0-0.0-0.16,A5D0231X0XJNV,3Q9SPIIRXM2ML6FVM0W2D0Z2IA6WAR,3NS0A6KXC8OUBBVX9PDLXA0ARJQZGW,2,1
17,1,object_07,object_01,352.40000000596,2,1,338.20000000298,0.7777777777777778,2,object_05,5,123,0,2,7,desert_6,2,memory-2step-stake-s,507,977716,0.0-19.0-0.0-0.17,A5D0231X0XJNV,3Q9SPIIRXM2ML6FVM0W2D0Z2IA6WAR,3NS0A6KXC8OUBBVX9PDLXA0ARJQZGW,2,1
18,2,object_09,object_02,615.90000000596,4,1,708.20000000298,0.7777777777777778,2,object_05,5,158,0,1,7,forest_6,2,memory-2step-stake-s,508,986385,0.0-19.0-0.0-0.18,A5D0231X0XJNV,3Q9SPIIRXM2ML6FVM0W2D0Z2IA6WAR,3NS0A6KXC8OUBBVX9PDLXA0ARJQZGW,4,3
19,1,object_01,object_07,288.79999999702,2,2,423.40000000596,0.6666666666666666,2,object_05,5,188,0,2,6,desert_6,2,memory-2step-stake-s,509,994673,0.0-19.0-0.0-0.19,A5D0231X0XJNV,3Q9SPIIRXM2ML6FVM0W2D0Z2IA6WAR,3NS0A6KXC8OUBBVX9PDLXA0ARJQZGW,1,2
20,1,object_07,object_01,99.20000000298,2,1,311.89999999106,0.6666666666666666,2,object_05,5,218,0,2,6,desert_6,2,memory-2step-stake-s,510,1002851,0.0-19.0-0.0-0.20,A5D0231X0XJNV,3Q9SPIIRXM2ML6FVM0W2D0Z2IA6WAR,3NS0A6KXC8OUBBVX9PDLXA0ARJQZGW,2,1
21,2,object_02,object_09,291.29999999702,4,2,460.5,0.6666666666666666,2,object_05,5,248,0,3,6,forest_5,2,memory-2step-stake-s,511,1011169,0.0-19.0-0.0-0.21,A5D0231X0XJNV,3Q9SPIIRXM2ML6FVM0W2D0Z2IA6WAR,3NS0A6KXC8OUBBVX9PDLXA0ARJQZGW,3,4
22,1,object_07,object_01,334.0,2,1,411.70000000298,0.7777777777777778,2,object_05,5,283,0,3,7,desert_2,2,memory-2step-stake-s,512,1019550,0.0-19.0-0.0-0.22,A5D0231X0XJNV,3Q9SPIIRXM2ML6FVM0W2D0Z2IA6WAR,3NS0A6KXC8OUBBVX9PDLXA0ARJQZGW,2,1
23,3,object_10,object_08,525.09999999404,5,2,675.39999999106,0.7777777777777778,1,object_03,1,290,0,7,8,library_3,2,memory-2step-stake-s,513,1028188,0.0-19.0-0.0-0.23,A5D0231X0XJNV,3Q9SPIIRXM2ML6FVM0W2D0Z2IA6WAR,3NS0A6KXC8OUBBVX9PDLXA0ARJQZGW,6,5
24,4,object_06,object_04,115.5,8,2,449.89999999106,1.0,2,object_05,1,299,0,7,9,restaurant_1,2,memory-2step-stake-s,514,1036811,0.0-19.0-0.0-0.24,A5D0231X0XJNV,3Q9SPIIRXM2ML6FVM0W2D0Z2IA6WAR,3NS0A6KXC8OUBBVX9PDLXA0ARJQZGW,7,8
25,1,object_07,object_01,1205.5,2,1,-1.0,0.0,2,object_05,1,299,0,6,8,desert_3,2,memory-2step-stake-s,515,1045339,0.0-19.0-0.0-0.25,A5D0231X0XJNV,3Q9SPIIRXM2ML6FVM0W2D0Z2IA6WAR,3NS0A6KXC8OUBBVX9PDLXA0ARJQZGW,2,1
26,3,object_08,object_10,271.29999999702,6,2,504.09999999404,0.7777777777777778,2,object_05,1,306,0,6,7,library_5,2,memory-2step-stake-s,516,1053796,0.0-19.0-0.0-0.26,A5D0231X0XJNV,3Q9SPIIRXM2ML6FVM0W2D0Z2IA6WAR,3NS0A6KXC8OUBBVX9PDLXA0ARJQZGW,5,6
27,1,object_07,object_01,375.29999999702,2,1,414.20000000298,0.8888888888888888,2,object_05,1,314,0,5,8,desert_5,2,memory-2step-stake-s,517,1062268,0.0-19.0-0.0-0.27,A5D0231X0XJNV,3Q9SPIIRXM2ML6FVM0W2D0Z2IA6WAR,3NS0A6KXC8OUBBVX9PDLXA0ARJQZGW,2,1
28,1,object_07,object_01,330.59999999404,2,1,445.70000000298,0.7777777777777778,2,object_05,5,349,0,6,7,desert_6,2,memory-2step-stake-s,518,1070679,0.0-19.0-0.0-0.28,A5D0231X0XJNV,3Q9SPIIRXM2ML6FVM0W2D0Z2IA6WAR,3NS0A6KXC8OUBBVX9PDLXA0ARJQZGW,2,1
29,4,object_04,object_06,435.90000000596,7,2,424.10000000894,0.7777777777777778,1,object_03,1,356,0,7,8,restaurant_5,2,memory-2step-stake-s,519,1079071,0.0-19.0-0.0-0.29,A5D0231X0XJNV,3Q9SPIIRXM2ML6FVM0W2D0Z2IA6WAR,3NS0A6KXC8OUBBVX9PDLXA0ARJQZGW,8,7
30,4,object_04,object_06,463.40000000596,7,2,775.0,0.7777777777777778,1,object_03,5,391,0,7,7,restaurant_2,2,memory-2step-stake-s,520,1087810,0.0-19.0-0.0-0.30,A5D0231X0XJNV,3Q9SPIIRXM2ML6FVM0W2D0Z2IA6WAR,3NS0A6KXC8OUBBVX9PDLXA0ARJQZGW,8,7
31,3,object_08,object_10,489.10000000894,6,2,501.69999998808,0.7777777777777778,2,object_05,5,426,0,6,7,library_8,2,memory-2step-stake-s,521,1096277,0.0-19.0-0.0-0.31,A5D0231X0XJNV,3Q9SPIIRXM2ML6FVM0W2D0Z2IA6WAR,3NS0A6KXC8OUBBVX9PDLXA0ARJQZGW,5,6
32,3,object_08,object_10,343.29999999702,6,2,357.10000000894,0.6666666666666666,2,object_05,1,432,0,4,6,library_5,2,memory-2step-stake-s,522,1104484,0.0-19.0-0.0-0.32,A5D0231X0XJNV,3Q9SPIIRXM2ML6FVM0W2D0Z2IA6WAR,3NS0A6KXC8OUBBVX9PDLXA0ARJQZGW,5,6
33,2,object_09,object_02,279.29999999702,4,1,898.29999999702,1.0,2,object_05,5,477,0,4,9,forest_6,2,memory-2step-stake-s,523,1113559,0.0-19.0-0.0-0.33,A5D0231X0XJNV,3Q9SPIIRXM2ML6FVM0W2D0Z2IA6WAR,3NS0A6KXC8OUBBVX9PDLXA0ARJQZGW,4,3
34,2,object_02,object_09,754.89999999106,3,1,850.79999999702,0.1111111111111111,1,object_03,5,482,0,1,9,forest_5,2,memory-2step-stake-s,524,1121746,0.0-19.0-0.0-0.34,A5D0231X0XJNV,3Q9SPIIRXM2ML6FVM0W2D0Z2IA6WAR,3NS0A6KXC8OUBBVX9PDLXA0ARJQZGW,3,4
35,4,object_06,object_04,869.69999998808,8,2,498.39999999106,0.8888888888888888,2,object_05,1,490,0,3,8,restaurant_7,2,memory-2step-stake-s,525,1130302,0.0-19.0-0.0-0.35,A5D0231X0XJNV,3Q9SPIIRXM2ML6FVM0W2D0Z2IA6WAR,3NS0A6KXC8OUBBVX9PDLXA0ARJQZGW,7,8
36,4,object_04,object_06,29.40000000596,7,2,587.70000000298,0.2222222222222222,1,object_03,1,492,0,2,7,restaurant_1,2,memory-2step-stake-s,526,1138316,0.0-19.0-0.0-0.36,A5D0231X0XJNV,3Q9SPIIRXM2ML6FVM0W2D0Z2IA6WAR,3NS0A6KXC8OUBBVX9PDLXA0ARJQZGW,8,7
37,1,object_01,object_07,555.59999999404,1,1,479.59999999404,0.1111111111111111,1,object_03,5,497,0,1,6,desert_3,2,memory-2step-stake-s,527,1146129,0.0-19.0-0.0-0.37,A5D0231X0XJNV,3Q9SPIIRXM2ML6FVM0W2D0Z2IA6WAR,3NS0A6KXC8OUBBVX9PDLXA0ARJQZGW,1,2
38,2,object_02,object_09,68.699999988079,3,1,395.79999999702,0.0,1,object_03,1,497,0,0,5,forest_1,2,memory-2step-stake-s,528,1153753,0.0-19.0-0.0-0.38,A5D0231X0XJNV,3Q9SPIIRXM2ML6FVM0W2D0Z2IA6WAR,3NS0A6KXC8OUBBVX9PDLXA0ARJQZGW,3,4
39,3,object_10,object_08,216.09999999404,6,1,365.79999999702,0.6666666666666666,2,object_05,1,503,0,1,6,library_8,2,memory-2step-stake-s,529,1161973,0.0-19.0-0.0-0.39,A5D0231X0XJNV,3Q9SPIIRXM2ML6FVM0W2D0Z2IA6WAR,3NS0A6KXC8OUBBVX9PDLXA0ARJQZGW,6,5
40,3,object_08,object_10,173.59999999404,5,1,537.10000000894,0.2222222222222222,1,object_03,1,505,0,2,3,library_5,2,memory-2step-stake-s,530,1169951,0.0-19.0-0.0-0.40,A5D0231X0XJNV,3Q9SPIIRXM2ML6FVM0W2D0Z2IA6WAR,3NS0A6KXC8OUBBVX9PDLXA0ARJQZGW,5,6
41,3,object_10,object_08,277.90000000596,6,1,425.70000000298,0.0,2,object_05,5,505,0,6,0,library_5,2,memory-2step-stake-s,531,1177609,0.0-19.0-0.0-0.41,A5D0231X0XJNV,3Q9SPIIRXM2ML6FVM0W2D0Z2IA6WAR,3NS0A6KXC8OUBBVX9PDLXA0ARJQZGW,6,5
42,4,object_06,object_04,278.20000000298,8,2,531.29999999702,0.0,2,object_05,1,505,0,9,0,restaurant_2,2,memory-2step-stake-s,532,1185372,0.0-19.0-0.0-0.42,A5D0231X0XJNV,3Q9SPIIRXM2ML6FVM0W2D0Z2IA6WAR,3NS0A6KXC8OUBBVX9PDLXA0ARJQZGW,7,8
43,2,object_09,object_02,884.79999999702,4,1,-1.0,0.0,2,object_05,5,505,0,6,3,forest_5,2,memory-2step-stake-s,533,1193905,0.0-19.0-0.0-0.43,A5D0231X0XJNV,3Q9SPIIRXM2ML6FVM0W2D0Z2IA6WAR,3NS0A6KXC8OUBBVX9PDLXA0ARJQZGW,4,3
44,4,object_06,object_04,343.5,8,2,730.39999999106,0.4444444444444444,2,object_05,1,509,0,5,4,restaurant_7,2,memory-2step-stake-s,534,1202288,0.0-19.0-0.0-0.44,A5D0231X0XJNV,3Q9SPIIRXM2ML6FVM0W2D0Z2IA6WAR,3NS0A6KXC8OUBBVX9PDLXA0ARJQZGW,7,8
45,3,object_10,object_08,62.40000000596,5,2,836.09999999404,0.6666666666666666,1,object_03,1,515,0,6,4,library_3,2,memory-2step-stake-s,535,1210963,0.0-19.0-0.0-0.45,A5D0231X0XJNV,3Q9SPIIRXM2ML6FVM0W2D0Z2IA6WAR,3NS0A6KXC8OUBBVX9PDLXA0ARJQZGW,6,5
46,3,object_10,object_08,443.0,6,1,369.60000000894,0.3333333333333333,2,object_05,1,518,0,2,3,library_8,2,memory-2step-stake-s,536,1218875,0.0-19.0-0.0-0.46,A5D0231X0XJNV,3Q9SPIIRXM2ML6FVM0W2D0Z2IA6WAR,3NS0A6KXC8OUBBVX9PDLXA0ARJQZGW,6,5
47,4,object_06,object_04,351.70000000298,7,1,437.90000000596,0.2222222222222222,1,object_03,1,520,0,2,3,restaurant_2,2,memory-2step-stake-s,537,1226754,0.0-19.0-0.0-0.47,A5D0231X0XJNV,3Q9SPIIRXM2ML6FVM0W2D0Z2IA6WAR,3NS0A6KXC8OUBBVX9PDLXA0ARJQZGW,7,8
48,2,object_02,object_09,490.39999999106,3,1,443.70000000298,0.0,1,object_03,5,520,0,0,4,forest_1,2,memory-2step-stake-s,538,1234430,0.0-19.0-0.0-0.48,A5D0231X0XJNV,3Q9SPIIRXM2ML6FVM0W2D0Z2IA6WAR,3NS0A6KXC8OUBBVX9PDLXA0ARJQZGW,3,4
49,1,object_07,object_01,469.10000000894,2,1,445.80000001192,0.6666666666666666,2,object_05,5,550,0,1,6,desert_5,2,memory-2step-stake-s,539,1242732,0.0-19.0-0.0-0.49,A5D0231X0XJNV,3Q9SPIIRXM2ML6FVM0W2D0Z2IA6WAR,3NS0A6KXC8OUBBVX9PDLXA0ARJQZGW,2,1
50,2,object_02,object_09,327.70000000298,4,2,512.70000000298,0.8888888888888888,2,object_05,5,590,0,1,8,forest_3,2,memory-2step-stake-s,540,1251308,0.0-19.0-0.0-0.50,A5D0231X0XJNV,3Q9SPIIRXM2ML6FVM0W2D0Z2IA6WAR,3NS0A6KXC8OUBBVX9PDLXA0ARJQZGW,3,4
51,3,object_08,object_10,777.90000000596,6,2,943.40000000596,0.7777777777777778,2,object_05,1,597,0,2,7,library_3,2,memory-2step-stake-s,541,1260204,0.0-19.0-0.0-0.51,A5D0231X0XJNV,3Q9SPIIRXM2ML6FVM0W2D0Z2IA6WAR,3NS0A6KXC8OUBBVX9PDLXA0ARJQZGW,5,6
52,3,object_10,object_08,368.0,6,1,403.79999999702,0.8888888888888888,2,object_05,1,605,0,2,8,library_8,2,memory-2step-stake-s,542,1268658,0.0-19.0-0.0-0.52,A5D0231X0XJNV,3Q9SPIIRXM2ML6FVM0W2D0Z2IA6WAR,3NS0A6KXC8OUBBVX9PDLXA0ARJQZGW,6,5
53,2,object_09,object_02,463.5,4,1,1361.799999997,0.6666666666666666,2,object_05,5,635,0,1,6,forest_6,2,memory-2step-stake-s,543,1277876,0.0-19.0-0.0-0.53,A5D0231X0XJNV,3Q9SPIIRXM2ML6FVM0W2D0Z2IA6WAR,3NS0A6KXC8OUBBVX9PDLXA0ARJQZGW,4,3
54,2,object_09,object_02,56.5,3,2,415.20000000298,0.2222222222222222,1,object_03,1,637,0,2,4,forest_1,2,memory-2step-stake-s,544,1285729,0.0-19.0-0.0-0.54,A5D0231X0XJNV,3Q9SPIIRXM2ML6FVM0W2D0Z2IA6WAR,3NS0A6KXC8OUBBVX9PDLXA0ARJQZGW,4,3
55,4,object_06,object_04,323.29999999702,8,2,502.70000000298,0.4444444444444444,2,object_05,5,657,0,6,4,restaurant_1,2,memory-2step-stake-s,545,1293887,0.0-19.0-0.0-0.55,A5D0231X0XJNV,3Q9SPIIRXM2ML6FVM0W2D0Z2IA6WAR,3NS0A6KXC8OUBBVX9PDLXA0ARJQZGW,7,8
56,3,object_10,object_08,370.09999999404,5,2,463.10000000894,0.3333333333333333,1,object_03,1,660,0,3,3,library_6,2,memory-2step-stake-s,546,1301885,0.0-19.0-0.0-0.56,A5D0231X0XJNV,3Q9SPIIRXM2ML6FVM0W2D0Z2IA6WAR,3NS0A6KXC8OUBBVX9PDLXA0ARJQZGW,6,5
57,4,object_04,object_06,254.0,8,1,535.79999999702,0.3333333333333333,2,object_05,5,675,0,3,3,restaurant_1,2,memory-2step-stake-s,547,1309965,0.0-19.0-0.0-0.57,A5D0231X0XJNV,3Q9SPIIRXM2ML6FVM0W2D0Z2IA6WAR,3NS0A6KXC8OUBBVX9PDLXA0ARJQZGW,8,7
58,4,object_06,object_04,365.70000000298,7,1,300.80000001192,0.2222222222222222,1,object_03,1,677,0,2,0,restaurant_7,2,memory-2step-stake-s,548,1317713,0.0-19.0-0.0-0.58,A5D0231X0XJNV,3Q9SPIIRXM2ML6FVM0W2D0Z2IA6WAR,3NS0A6KXC8OUBBVX9PDLXA0ARJQZGW,7,8
59,3,object_10,object_08,485.19999998808,6,1,457.90000000596,0.2222222222222222,2,object_05,1,679,0,5,2,library_3,2,memory-2step-stake-s,549,1325616,0.0-19.0-0.0-0.59,A5D0231X0XJNV,3Q9SPIIRXM2ML6FVM0W2D0Z2IA6WAR,3NS0A6KXC8OUBBVX9PDLXA0ARJQZGW,6,5
60,3,object_08,object_10,372.79999999702,6,2,955.09999999404,0.3333333333333333,2,object_05,1,682,0,6,3,library_6,2,memory-2step-stake-s,550,1334111,0.0-19.0-0.0-0.60,A5D0231X0XJNV,3Q9SPIIRXM2ML6FVM0W2D0Z2IA6WAR,3NS0A6KXC8OUBBVX9PDLXA0ARJQZGW,5,6
61,4,object_06,object_04,358.39999999106,7,1,378.60000000894,0.7777777777777778,1,object_03,5,717,0,7,2,restaurant_1,2,memory-2step-stake-s,551,1342459,0.0-19.0-0.0-0.61,A5D0231X0XJNV,3Q9SPIIRXM2ML6FVM0W2D0Z2IA6WAR,3NS0A6KXC8OUBBVX9PDLXA0ARJQZGW,7,8
62,2,object_09,object_02,344.90000000596,4,1,775.5,0.2222222222222222,2,object_05,5,727,0,3,2,forest_3,2,memory-2step-stake-s,552,1350668,0.0-19.0-0.0-0.62,A5D0231X0XJNV,3Q9SPIIRXM2ML6FVM0W2D0Z2IA6WAR,3NS0A6KXC8OUBBVX9PDLXA0ARJQZGW,4,3
63,1,object_07,object_01,324.70000000298,1,2,697.20000000298,0.1111111111111111,1,object_03,1,728,0,1,7,desert_2,2,memory-2step-stake-s,553,1358701,0.0-19.0-0.0-0.63,A5D0231X0XJNV,3Q9SPIIRXM2ML6FVM0W2D0Z2IA6WAR,3NS0A6KXC8OUBBVX9PDLXA0ARJQZGW,2,1
64,3,object_10,object_08,746.40000000596,5,2,1202.700000003,0.1111111111111111,1,object_03,1,729,0,1,7,library_8,2,memory-2step-stake-s,554,1367232,0.0-19.0-0.0-0.64,A5D0231X0XJNV,3Q9SPIIRXM2ML6FVM0W2D0Z2IA6WAR,3NS0A6KXC8OUBBVX9PDLXA0ARJQZGW,6,5
65,1,object_07,object_01,1478.8999999911,2,1,478.90000000596,0.7777777777777778,2,object_05,5,764,0,1,7,desert_2,2,memory-2step-stake-s,555,1375667,0.0-19.0-0.0-0.65,A5D0231X0XJNV,3Q9SPIIRXM2ML6FVM0W2D0Z2IA6WAR,3NS0A6KXC8OUBBVX9PDLXA0ARJQZGW,2,1
66,2,object_09,object_02,1164.900000006,4,1,-1.0,0.0,2,object_05,5,764,0,1,6,forest_5,2,memory-2step-stake-s,556,1384199,0.0-19.0-0.0-0.66,A5D0231X0XJNV,3Q9SPIIRXM2ML6FVM0W2D0Z2IA6WAR,3NS0A6KXC8OUBBVX9PDLXA0ARJQZGW,4,3
67,3,object_08,object_10,476.09999999404,6,2,273.89999999106,0.8888888888888888,2,object_05,1,772,0,4,8,library_6,2,memory-2step-stake-s,557,1392527,0.0-19.0-0.0-0.67,A5D0231X0XJNV,3Q9SPIIRXM2ML6FVM0W2D0Z2IA6WAR,3NS0A6KXC8OUBBVX9PDLXA0ARJQZGW,5,6
68,3,object_10,object_08,306.0,6,1,235.90000000596,0.8888888888888888,2,object_05,1,780,0,6,8,library_3,2,memory-2step-stake-s,558,1400815,0.0-19.0-0.0-0.68,A5D0231X0XJNV,3Q9SPIIRXM2ML6FVM0W2D0Z2IA6WAR,3NS0A6KXC8OUBBVX9PDLXA0ARJQZGW,6,5
69,1,object_01,object_07,1049.5,2,2,465.20000000298,1.0,2,object_05,5,825,0,7,9,desert_3,2,memory-2step-stake-s,559,1409439,0.0-19.0-0.0-0.69,A5D0231X0XJNV,3Q9SPIIRXM2ML6FVM0W2D0Z2IA6WAR,3NS0A6KXC8OUBBVX9PDLXA0ARJQZGW,1,2
70,4,object_06,object_04,1172.099999994,7,1,408.59999999404,0.7777777777777778,1,object_03,1,832,0,7,9,restaurant_5,2,memory-2step-stake-s,560,1417811,0.0-19.0-0.0-0.70,A5D0231X0XJNV,3Q9SPIIRXM2ML6FVM0W2D0Z2IA6WAR,3NS0A6KXC8OUBBVX9PDLXA0ARJQZGW,7,8
71,4,object_04,object_06,549.30000001192,8,1,537.90000000596,0.8888888888888888,2,object_05,1,840,0,8,8,restaurant_2,2,memory-2step-stake-s,561,1426425,0.0-19.0-0.0-0.71,A5D0231X0XJNV,3Q9SPIIRXM2ML6FVM0W2D0Z2IA6WAR,3NS0A6KXC8OUBBVX9PDLXA0ARJQZGW,8,7
72,4,object_04,object_06,358.09999999404,7,2,318.69999998808,0.6666666666666666,1,object_03,1,846,0,6,9,restaurant_5,2,memory-2step-stake-s,562,1434606,0.0-19.0-0.0-0.72,A5D0231X0XJNV,3Q9SPIIRXM2ML6FVM0W2D0Z2IA6WAR,3NS0A6KXC8OUBBVX9PDLXA0ARJQZGW,8,7
73,3,object_10,object_08,189.79999999702,6,1,1238.3999999911,1.0,2,object_05,1,855,0,5,9,library_6,2,memory-2step-stake-s,563,1444017,0.0-19.0-0.0-0.73,A5D0231X0XJNV,3Q9SPIIRXM2ML6FVM0W2D0Z2IA6WAR,3NS0A6KXC8OUBBVX9PDLXA0ARJQZGW,6,5
74,3,object_08,object_10,637.29999999702,5,1,550.0,0.6666666666666666,1,object_03,1,861,0,6,8,library_8,2,memory-2step-stake-s,564,1452440,0.0-19.0-0.0-0.74,A5D0231X0XJNV,3Q9SPIIRXM2ML6FVM0W2D0Z2IA6WAR,3NS0A6KXC8OUBBVX9PDLXA0ARJQZGW,5,6
75,3,object_08,object_10,148.09999999404,5,1,1147.599999994,0.3333333333333333,1,object_03,5,876,0,3,6,library_6,2,memory-2step-stake-s,565,1461133,0.0-19.0-0.0-0.75,A5D0231X0XJNV,3Q9SPIIRXM2ML6FVM0W2D0Z2IA6WAR,3NS0A6KXC8OUBBVX9PDLXA0ARJQZGW,5,6
76,2,object_02,object_09,321.09999999404,4,2,314.39999999106,0.6666666666666666,2,object_05,5,906,0,2,6,forest_5,2,memory-2step-stake-s,566,1469308,0.0-19.0-0.0-0.76,A5D0231X0XJNV,3Q9SPIIRXM2ML6FVM0W2D0Z2IA6WAR,3NS0A6KXC8OUBBVX9PDLXA0ARJQZGW,3,4
77,4,object_06,object_04,285.59999999404,8,2,379.29999999702,0.8888888888888888,2,object_05,1,914,0,1,8,restaurant_7,2,memory-2step-stake-s,567,1477750,0.0-19.0-0.0-0.77,A5D0231X0XJNV,3Q9SPIIRXM2ML6FVM0W2D0Z2IA6WAR,3NS0A6KXC8OUBBVX9PDLXA0ARJQZGW,7,8
78,1,object_07,object_01,297.70000000298,1,2,431.70000000298,0.1111111111111111,1,object_03,5,919,0,1,7,desert_2,2,memory-2step-stake-s,568,1485522,0.0-19.0-0.0-0.78,A5D0231X0XJNV,3Q9SPIIRXM2ML6FVM0W2D0Z2IA6WAR,3NS0A6KXC8OUBBVX9PDLXA0ARJQZGW,2,1
79,3,object_08,object_10,395.59999999404,6,2,812.90000000596,0.7777777777777778,2,object_05,1,926,0,0,7,library_3,2,memory-2step-stake-s,569,1494303,0.0-19.0-0.0-0.79,A5D0231X0XJNV,3Q9SPIIRXM2ML6FVM0W2D0Z2IA6WAR,3NS0A6KXC8OUBBVX9PDLXA0ARJQZGW,5,6
80,1,object_07,object_01,453.0,1,2,801.29999999702,0.2222222222222222,1,object_03,5,936,0,2,6,desert_5,2,memory-2step-stake-s,570,1502555,0.0-19.0-0.0-0.80,A5D0231X0XJNV,3Q9SPIIRXM2ML6FVM0W2D0Z2IA6WAR,3NS0A6KXC8OUBBVX9PDLXA0ARJQZGW,2,1
81,4,object_06,object_04,390.30000001192,7,1,323.5,0.6666666666666666,1,object_03,1,942,0,6,3,restaurant_5,2,memory-2step-stake-s,571,1510736,0.0-19.0-0.0-0.81,A5D0231X0XJNV,3Q9SPIIRXM2ML6FVM0W2D0Z2IA6WAR,3NS0A6KXC8OUBBVX9PDLXA0ARJQZGW,7,8
82,3,object_08,object_10,435.40000000596,5,1,218.79999999702,0.4444444444444444,1,object_03,1,946,0,4,4,library_6,2,memory-2step-stake-s,572,1518612,0.0-19.0-0.0-0.82,A5D0231X0XJNV,3Q9SPIIRXM2ML6FVM0W2D0Z2IA6WAR,3NS0A6KXC8OUBBVX9PDLXA0ARJQZGW,5,6
83,2,object_02,object_09,707.79999999702,3,1,543.90000000596,0.5555555555555556,1,object_03,5,971,0,5,6,forest_5,2,memory-2step-stake-s,573,1526917,0.0-19.0-0.0-0.83,A5D0231X0XJNV,3Q9SPIIRXM2ML6FVM0W2D0Z2IA6WAR,3NS0A6KXC8OUBBVX9PDLXA0ARJQZGW,3,4
84,3,object_10,object_08,542.09999999404,6,1,879.90000000596,0.2222222222222222,2,object_05,5,981,0,6,2,library_6,2,memory-2step-stake-s,574,1535242,0.0-19.0-0.0-0.84,A5D0231X0XJNV,3Q9SPIIRXM2ML6FVM0W2D0Z2IA6WAR,3NS0A6KXC8OUBBVX9PDLXA0ARJQZGW,6,5
85,3,object_08,object_10,272.79999999702,5,1,-1.0,0.0,1,object_03,1,981,0,5,3,library_6,2,memory-2step-stake-s,575,1543774,0.0-19.0-0.0-0.85,A5D0231X0XJNV,3Q9SPIIRXM2ML6FVM0W2D0Z2IA6WAR,3NS0A6KXC8OUBBVX9PDLXA0ARJQZGW,5,6
86,4,object_04,object_06,446.10000000894,7,2,438.09999999404,0.4444444444444444,1,object_03,1,985,0,4,2,restaurant_1,2,memory-2step-stake-s,576,1551871,0.0-19.0-0.0-0.86,A5D0231X0XJNV,3Q9SPIIRXM2ML6FVM0W2D0Z2IA6WAR,3NS0A6KXC8OUBBVX9PDLXA0ARJQZGW,8,7
87,1,object_01,object_07,380.5,2,2,408.5,0.2222222222222222,2,object_05,5,995,0,4,2,desert_5,2,memory-2step-stake-s,577,1559728,0.0-19.0-0.0-0.87,A5D0231X0XJNV,3Q9SPIIRXM2ML6FVM0W2D0Z2IA6WAR,3NS0A6KXC8OUBBVX9PDLXA0ARJQZGW,1,2
88,3,object_08,object_10,14.29999999702,5,1,408.70000000298,0.0,1,object_03,1,995,0,0,0,library_6,2,memory-2step-stake-s,578,1567368,0.0-19.0-0.0-0.88,A5D0231X0XJNV,3Q9SPIIRXM2ML6FVM0W2D0Z2IA6WAR,3NS0A6KXC8OUBBVX9PDLXA0ARJQZGW,5,6
89,4,object_04,object_06,1003.3999999911,8,1,909.59999999404,0.0,2,object_05,1,995,0,2,0,restaurant_7,2,memory-2step-stake-s,579,1575519,0.0-19.0-0.0-0.89,A5D0231X0XJNV,3Q9SPIIRXM2ML6FVM0W2D0Z2IA6WAR,3NS0A6KXC8OUBBVX9PDLXA0ARJQZGW,8,7
90,3,object_10,object_08,63.100000008941,5,2,343.70000000298,0.2222222222222222,1,object_03,1,997,0,2,2,library_3,2,memory-2step-stake-s,580,1583307,0.0-19.0-0.0-0.90,A5D0231X0XJNV,3Q9SPIIRXM2ML6FVM0W2D0Z2IA6WAR,3NS0A6KXC8OUBBVX9PDLXA0ARJQZGW,6,5
91,2,object_02,object_09,272.69999998808,3,1,413.70000000298,1.0,1,object_03,5,1042,0,9,3,forest_5,2,memory-2step-stake-s,581,1591887,0.0-19.0-0.0-0.91,A5D0231X0XJNV,3Q9SPIIRXM2ML6FVM0W2D0Z2IA6WAR,3NS0A6KXC8OUBBVX9PDLXA0ARJQZGW,3,4
92,3,object_10,object_08,415.70000000298,6,1,480.70000000298,0.2222222222222222,2,object_05,5,1052,0,9,2,library_6,2,memory-2step-stake-s,582,1599814,0.0-19.0-0.0-0.92,A5D0231X0XJNV,3Q9SPIIRXM2ML6FVM0W2D0Z2IA6WAR,3NS0A6KXC8OUBBVX9PDLXA0ARJQZGW,6,5
93,2,object_09,object_02,120.10000000894,3,2,467.79999999702,0.8888888888888888,1,object_03,5,1092,0,8,3,forest_6,2,memory-2step-stake-s,583,1608341,0.0-19.0-0.0-0.93,A5D0231X0XJNV,3Q9SPIIRXM2ML6FVM0W2D0Z2IA6WAR,3NS0A6KXC8OUBBVX9PDLXA0ARJQZGW,4,3
94,1,object_01,object_07,288.90000000596,2,2,380.70000000298,0.5555555555555556,2,object_05,5,1117,0,8,5,desert_2,2,memory-2step-stake-s,584,1616473,0.0-19.0-0.0-0.94,A5D0231X0XJNV,3Q9SPIIRXM2ML6FVM0W2D0Z2IA6WAR,3NS0A6KXC8OUBBVX9PDLXA0ARJQZGW,1,2
95,2,object_02,object_09,189.40000000596,3,1,540.20000000298,0.4444444444444444,1,object_03,5,1137,0,4,5,forest_3,2,memory-2step-stake-s,585,1624649,0.0-19.0-0.0-0.95,A5D0231X0XJNV,3Q9SPIIRXM2ML6FVM0W2D0Z2IA6WAR,3NS0A6KXC8OUBBVX9PDLXA0ARJQZGW,3,4
96,1,object_01,object_07,11.100000008941,2,2,328.40000000596,0.4444444444444444,2,object_05,5,1157,0,6,4,desert_3,2,memory-2step-stake-s,586,1632610,0.0-19.0-0.0-0.96,A5D0231X0XJNV,3Q9SPIIRXM2ML6FVM0W2D0Z2IA6WAR,3NS0A6KXC8OUBBVX9PDLXA0ARJQZGW,1,2
97,2,object_02,object_09,384.20000000298,3,1,469.70000000298,0.8888888888888888,1,object_03,5,1197,0,8,3,forest_1,2,memory-2step-stake-s,587,1641142,0.0-19.0-0.0-0.97,A5D0231X0XJNV,3Q9SPIIRXM2ML6FVM0W2D0Z2IA6WAR,3NS0A6KXC8OUBBVX9PDLXA0ARJQZGW,3,4
98,3,object_08,object_10,599.70000000298,5,1,851.5,0.5555555555555556,1,object_03,1,1202,0,5,4,library_6,2,memory-2step-stake-s,588,1649756,0.0-19.0-0.0-0.98,A5D0231X0XJNV,3Q9SPIIRXM2ML6FVM0W2D0Z2IA6WAR,3NS0A6KXC8OUBBVX9PDLXA0ARJQZGW,5,6
99,1,object_07,object_01,329.0,1,2,348.69999998808,0.4444444444444444,1,object_03,1,1206,0,4,3,desert_2,2,memory-2step-stake-s,589,1657747,0.0-19.0-0.0-0.99,A5D0231X0XJNV,3Q9SPIIRXM2ML6FVM0W2D0Z2IA6WAR,3NS0A6KXC8OUBBVX9PDLXA0ARJQZGW,2,1
100,3,object_10,object_08,1108.400000006,5,2,938.59999999404,0.4444444444444444,1,object_03,1,1210,0,4,3,library_3,2,memory-2step-stake-s,590,1666324,0.0-19.0-0.0-0.100,A5D0231X0XJNV,3Q9SPIIRXM2ML6FVM0W2D0Z2IA6WAR,3NS0A6KXC8OUBBVX9PDLXA0ARJQZGW,6,5
101,2,object_02,object_09,1122.3000000119,3,1,564.90000000596,0.4444444444444444,1,object_03,5,1230,0,4,2,forest_1,2,memory-2step-stake-s,591,1674527,0.0-19.0-0.0-0.101,A5D0231X0XJNV,3Q9SPIIRXM2ML6FVM0W2D0Z2IA6WAR,3NS0A6KXC8OUBBVX9PDLXA0ARJQZGW,3,4
102,2,object_02,object_09,671.0,3,1,392.29999999702,0.4444444444444444,1,object_03,5,1250,0,4,5,forest_6,2,memory-2step-stake-s,592,1682558,0.0-19.0-0.0-0.102,A5D0231X0XJNV,3Q9SPIIRXM2ML6FVM0W2D0Z2IA6WAR,3NS0A6KXC8OUBBVX9PDLXA0ARJQZGW,3,4
103,1,object_01,object_07,620.59999999404,1,1,374.5,0.2222222222222222,1,object_03,5,1260,0,2,3,desert_2,2,memory-2step-stake-s,593,1690368,0.0-19.0-0.0-0.103,A5D0231X0XJNV,3Q9SPIIRXM2ML6FVM0W2D0Z2IA6WAR,3NS0A6KXC8OUBBVX9PDLXA0ARJQZGW,1,2
104,2,object_09,object_02,902.10000000894,4,1,843.39999999106,0.2222222222222222,2,object_05,5,1270,0,6,2,forest_3,2,memory-2step-stake-s,594,1698652,0.0-19.0-0.0-0.104,A5D0231X0XJNV,3Q9SPIIRXM2ML6FVM0W2D0Z2IA6WAR,3NS0A6KXC8OUBBVX9PDLXA0ARJQZGW,4,3
105,2,object_02,object_09,688.59999999404,3,1,45.20000000298,0.6666666666666666,1,object_03,5,1300,0,6,1,forest_6,2,memory-2step-stake-s,595,1706554,0.0-19.0-0.0-0.105,A5D0231X0XJNV,3Q9SPIIRXM2ML6FVM0W2D0Z2IA6WAR,3NS0A6KXC8OUBBVX9PDLXA0ARJQZGW,3,4
106,1,object_01,object_07,1204.5,2,2,944.20000000298,0.2222222222222222,2,object_05,1,1302,0,5,2,desert_3,2,memory-2step-stake-s,596,1714943,0.0-19.0-0.0-0.106,A5D0231X0XJNV,3Q9SPIIRXM2ML6FVM0W2D0Z2IA6WAR,3NS0A6KXC8OUBBVX9PDLXA0ARJQZGW,1,2
107,2,object_09,object_02,1176.200000003,3,2,84.90000000596,0.6666666666666666,1,object_03,5,1332,0,6,2,forest_3,2,memory-2step-stake-s,597,1722879,0.0-19.0-0.0-0.107,A5D0231X0XJNV,3Q9SPIIRXM2ML6FVM0W2D0Z2IA6WAR,3NS0A6KXC8OUBBVX9PDLXA0ARJQZGW,4,3
108,4,object_06,object_04,420.20000000298,7,1,72.09999999404,0.6666666666666666,1,object_03,1,1338,0,6,3,restaurant_2,2,memory-2step-stake-s,598,1730801,0.0-19.0-0.0-0.108,A5D0231X0XJNV,3Q9SPIIRXM2ML6FVM0W2D0Z2IA6WAR,3NS0A6KXC8OUBBVX9PDLXA0ARJQZGW,7,8
109,1,object_01,object_07,424.40000000596,2,2,47.59999999404,0.4444444444444444,2,object_05,5,1358,0,6,4,desert_6,2,memory-2step-stake-s,599,1738505,0.0-19.0-0.0-0.109,A5D0231X0XJNV,3Q9SPIIRXM2ML6FVM0W2D0Z2IA6WAR,3NS0A6KXC8OUBBVX9PDLXA0ARJQZGW,1,2
110,2,object_09,object_02,406.59999999404,3,2,275.40000000596,0.2222222222222222,1,object_03,1,1360,0,2,8,forest_6,2,memory-2step-stake-s,600,1746213,0.0-19.0-0.0-0.110,A5D0231X0XJNV,3Q9SPIIRXM2ML6FVM0W2D0Z2IA6WAR,3NS0A6KXC8OUBBVX9PDLXA0ARJQZGW,4,3
111,4,object_06,object_04,75.79999999702,7,1,278.5,0.6666666666666666,1,object_03,1,1366,0,6,7,restaurant_5,2,memory-2step-stake-s,601,1754346,0.0-19.0-0.0-0.111,A5D0231X0XJNV,3Q9SPIIRXM2ML6FVM0W2D0Z2IA6WAR,3NS0A6KXC8OUBBVX9PDLXA0ARJQZGW,7,8
112,4,object_06,object_04,2.5999999940395,8,2,150.70000000298,0.5555555555555556,2,object_05,1,1371,0,8,5,restaurant_5,2,memory-2step-stake-s,602,1762253,0.0-19.0-0.0-0.112,A5D0231X0XJNV,3Q9SPIIRXM2ML6FVM0W2D0Z2IA6WAR,3NS0A6KXC8OUBBVX9PDLXA0ARJQZGW,7,8
113,1,object_07,object_01,362.5,2,1,278.70000000298,0.1111111111111111,2,object_05,1,1372,0,8,1,desert_3,2,memory-2step-stake-s,603,1769865,0.0-19.0-0.0-0.113,A5D0231X0XJNV,3Q9SPIIRXM2ML6FVM0W2D0Z2IA6WAR,3NS0A6KXC8OUBBVX9PDLXA0ARJQZGW,2,1
114,2,object_09,object_02,337.20000000298,3,2,325.90000000596,1.0,1,object_03,1,1381,0,9,4,forest_6,2,memory-2step-stake-s,604,1778358,0.0-19.0-0.0-0.114,A5D0231X0XJNV,3Q9SPIIRXM2ML6FVM0W2D0Z2IA6WAR,3NS0A6KXC8OUBBVX9PDLXA0ARJQZGW,4,3
115,2,object_02,object_09,734.59999999404,4,2,125.60000000894,0.4444444444444444,2,object_05,5,1401,0,9,4,forest_6,2,memory-2step-stake-s,605,1786135,0.0-19.0-0.0-0.115,A5D0231X0XJNV,3Q9SPIIRXM2ML6FVM0W2D0Z2IA6WAR,3NS0A6KXC8OUBBVX9PDLXA0ARJQZGW,3,4
116,1,object_07,object_01,338.90000000596,2,1,590.30000001192,0.6666666666666666,2,object_05,5,1431,0,7,6,desert_6,2,memory-2step-stake-s,606,1794586,0.0-19.0-0.0-0.116,A5D0231X0XJNV,3Q9SPIIRXM2ML6FVM0W2D0Z2IA6WAR,3NS0A6KXC8OUBBVX9PDLXA0ARJQZGW,2,1
117,3,object_10,object_08,309.0,6,1,415.29999999702,0.5555555555555556,2,object_05,1,1436,0,7,5,library_6,2,memory-2step-stake-s,607,1802749,0.0-19.0-0.0-0.117,A5D0231X0XJNV,3Q9SPIIRXM2ML6FVM0W2D0Z2IA6WAR,3NS0A6KXC8OUBBVX9PDLXA0ARJQZGW,6,5
118,1,object_07,object_01,368.70000000298,2,1,426.09999999404,0.6666666666666666,2,object_05,5,1466,0,7,6,desert_2,2,memory-2step-stake-s,608,1811036,0.0-19.0-0.0-0.118,A5D0231X0XJNV,3Q9SPIIRXM2ML6FVM0W2D0Z2IA6WAR,3NS0A6KXC8OUBBVX9PDLXA0ARJQZGW,2,1
119,1,object_07,object_01,240.5,2,1,865.59999999404,0.7777777777777778,2,object_05,5,1501,0,5,7,desert_6,2,memory-2step-stake-s,609,1819866,0.0-19.0-0.0-0.119,A5D0231X0XJNV,3Q9SPIIRXM2ML6FVM0W2D0Z2IA6WAR,3NS0A6KXC8OUBBVX9PDLXA0ARJQZGW,2,1
120,4,object_04,object_06,53.199999988079,8,1,248.80000001192,0.7777777777777778,2,object_05,1,1508,0,6,7,restaurant_7,2,memory-2step-stake-s,610,1828063,0.0-19.0-0.0-0.120,A5D0231X0XJNV,3Q9SPIIRXM2ML6FVM0W2D0Z2IA6WAR,3NS0A6KXC8OUBBVX9PDLXA0ARJQZGW,8,7
121,2,object_02,object_09,361.59999999404,4,2,375.79999999702,0.8888888888888888,2,object_05,5,1548,0,9,8,forest_1,2,memory-2step-stake-s,611,1836509,0.0-19.0-0.0-0.121,A5D0231X0XJNV,3Q9SPIIRXM2ML6FVM0W2D0Z2IA6WAR,3NS0A6KXC8OUBBVX9PDLXA0ARJQZGW,3,4
122,4,object_04,object_06,195.70000000298,8,1,496.09999999404,0.7777777777777778,2,object_05,1,1555,0,9,7,restaurant_5,2,memory-2step-stake-s,612,1844969,0.0-19.0-0.0-0.122,A5D0231X0XJNV,3Q9SPIIRXM2ML6FVM0W2D0Z2IA6WAR,3NS0A6KXC8OUBBVX9PDLXA0ARJQZGW,8,7
123,4,object_04,object_06,917.70000000298,7,2,136.0,0.7777777777777778,1,object_03,5,1590,0,7,4,restaurant_2,2,memory-2step-stake-s,613,1853083,0.0-19.0-0.0-0.123,A5D0231X0XJNV,3Q9SPIIRXM2ML6FVM0W2D0Z2IA6WAR,3NS0A6KXC8OUBBVX9PDLXA0ARJQZGW,8,7
124,1,object_07,object_01,520.79999999702,2,1,383.90000000596,0.6666666666666666,2,object_05,5,1620,0,5,6,desert_5,2,memory-2step-stake-s,614,1861316,0.0-19.0-0.0-0.124,A5D0231X0XJNV,3Q9SPIIRXM2ML6FVM0W2D0Z2IA6WAR,3NS0A6KXC8OUBBVX9PDLXA0ARJQZGW,2,1
125,3,object_10,object_08,2.7000000029802,6,1,259.90000000596,0.7777777777777778,2,object_05,1,1627,0,7,7,library_8,2,memory-2step-stake-s,615,1869544,0.0-19.0-0.0-0.125,A5D0231X0XJNV,3Q9SPIIRXM2ML6FVM0W2D0Z2IA6WAR,3NS0A6KXC8OUBBVX9PDLXA0ARJQZGW,6,5
126,4,object_06,object_04,61.699999988079,8,2,1136.400000006,0.7777777777777778,2,object_05,1,1634,0,9,7,restaurant_1,2,memory-2step-stake-s,616,1878644,0.0-19.0-0.0-0.126,A5D0231X0XJNV,3Q9SPIIRXM2ML6FVM0W2D0Z2IA6WAR,3NS0A6KXC8OUBBVX9PDLXA0ARJQZGW,7,8
127,3,object_10,object_08,614.79999999702,6,1,1026.299999997,0.7777777777777778,2,object_05,1,1641,0,8,7,library_5,2,memory-2step-stake-s,617,1887633,0.0-19.0-0.0-0.127,A5D0231X0XJNV,3Q9SPIIRXM2ML6FVM0W2D0Z2IA6WAR,3NS0A6KXC8OUBBVX9PDLXA0ARJQZGW,6,5
128,4,object_06,object_04,238.70000000298,7,1,438.09999999404,0.7777777777777778,1,object_03,1,1648,0,7,7,restaurant_7,2,memory-2step-stake-s,619,2004135,0.0-19.0-0.1-0.128,A5D0231X0XJNV,3Q9SPIIRXM2ML6FVM0W2D0Z2IA6WAR,3NS0A6KXC8OUBBVX9PDLXA0ARJQZGW,7,8
129,2,object_09,object_02,305.0,3,2,405.20000000298,0.7777777777777778,1,object_03,1,1655,0,7,9,forest_3,2,memory-2step-stake-s,620,2012490,0.0-19.0-0.1-0.129,A5D0231X0XJNV,3Q9SPIIRXM2ML6FVM0W2D0Z2IA6WAR,3NS0A6KXC8OUBBVX9PDLXA0ARJQZGW,4,3
130,4,object_06,object_04,237.0,8,2,397.59999999404,0.8888888888888888,2,object_05,1,1663,0,6,8,restaurant_1,2,memory-2step-stake-s,621,2020962,0.0-19.0-0.1-0.130,A5D0231X0XJNV,3Q9SPIIRXM2ML6FVM0W2D0Z2IA6WAR,3NS0A6KXC8OUBBVX9PDLXA0ARJQZGW,7,8
131,2,object_02,object_09,502.10000000894,4,2,406.90000000596,1.0,2,object_05,5,1708,0,7,9,forest_5,2,memory-2step-stake-s,622,2029543,0.0-19.0-0.1-0.131,A5D0231X0XJNV,3Q9SPIIRXM2ML6FVM0W2D0Z2IA6WAR,3NS0A6KXC8OUBBVX9PDLXA0ARJQZGW,3,4
132,3,object_10,object_08,172.90000000596,5,2,434.30000001192,0.6666666666666666,1,object_03,1,1714,0,6,9,library_5,2,memory-2step-stake-s,623,2037857,0.0-19.0-0.1-0.132,A5D0231X0XJNV,3Q9SPIIRXM2ML6FVM0W2D0Z2IA6WAR,3NS0A6KXC8OUBBVX9PDLXA0ARJQZGW,6,5
133,4,object_04,object_06,471.5,8,1,439.09999999404,1.0,2,object_05,5,1759,0,1,9,restaurant_5,2,memory-2step-stake-s,624,2046480,0.0-19.0-0.1-0.133,A5D0231X0XJNV,3Q9SPIIRXM2ML6FVM0W2D0Z2IA6WAR,3NS0A6KXC8OUBBVX9PDLXA0ARJQZGW,8,7
134,1,object_07,object_01,470.40000000596,1,2,375.30000001192,0.1111111111111111,1,object_03,5,1764,0,1,8,desert_5,2,memory-2step-stake-s,625,2054191,0.0-19.0-0.1-0.134,A5D0231X0XJNV,3Q9SPIIRXM2ML6FVM0W2D0Z2IA6WAR,3NS0A6KXC8OUBBVX9PDLXA0ARJQZGW,2,1
135,4,object_06,object_04,40.20000000298,8,2,476.5,0.7777777777777778,2,object_05,1,1771,0,1,7,restaurant_1,2,memory-2step-stake-s,626,2062627,0.0-19.0-0.1-0.135,A5D0231X0XJNV,3Q9SPIIRXM2ML6FVM0W2D0Z2IA6WAR,3NS0A6KXC8OUBBVX9PDLXA0ARJQZGW,7,8
136,4,object_06,object_04,411.0,7,1,456.5,0.2222222222222222,1,object_03,1,1773,0,2,8,restaurant_1,2,memory-2step-stake-s,627,2070528,0.0-19.0-0.1-0.136,A5D0231X0XJNV,3Q9SPIIRXM2ML6FVM0W2D0Z2IA6WAR,3NS0A6KXC8OUBBVX9PDLXA0ARJQZGW,7,8
137,2,object_02,object_09,498.79999999702,4,2,457.5,0.6666666666666666,2,object_05,5,1803,0,1,6,forest_5,2,memory-2step-stake-s,628,2078834,0.0-19.0-0.1-0.137,A5D0231X0XJNV,3Q9SPIIRXM2ML6FVM0W2D0Z2IA6WAR,3NS0A6KXC8OUBBVX9PDLXA0ARJQZGW,3,4
138,4,object_04,object_06,243.79999999702,7,2,377.59999999404,0.1111111111111111,1,object_03,5,1808,0,1,9,restaurant_1,2,memory-2step-stake-s,629,2086538,0.0-19.0-0.1-0.138,A5D0231X0XJNV,3Q9SPIIRXM2ML6FVM0W2D0Z2IA6WAR,3NS0A6KXC8OUBBVX9PDLXA0ARJQZGW,8,7
139,4,object_06,object_04,188.70000000298,8,2,437.5,0.8888888888888888,2,object_05,1,1816,0,1,8,restaurant_2,2,memory-2step-stake-s,630,2095025,0.0-19.0-0.1-0.139,A5D0231X0XJNV,3Q9SPIIRXM2ML6FVM0W2D0Z2IA6WAR,3NS0A6KXC8OUBBVX9PDLXA0ARJQZGW,7,8
140,1,object_01,object_07,343.5,2,2,476.79999999702,0.8888888888888888,2,object_05,5,1856,0,1,8,desert_2,2,memory-2step-stake-s,631,2103562,0.0-19.0-0.1-0.140,A5D0231X0XJNV,3Q9SPIIRXM2ML6FVM0W2D0Z2IA6WAR,3NS0A6KXC8OUBBVX9PDLXA0ARJQZGW,1,2
141,3,object_10,object_08,250.69999998808,5,2,154.5,0.1111111111111111,1,object_03,1,1857,0,1,8,library_5,2,memory-2step-stake-s,632,2111047,0.0-19.0-0.1-0.141,A5D0231X0XJNV,3Q9SPIIRXM2ML6FVM0W2D0Z2IA6WAR,3NS0A6KXC8OUBBVX9PDLXA0ARJQZGW,6,5
142,1,object_01,object_07,354.79999999702,1,1,260.90000000596,0.1111111111111111,1,object_03,1,1858,0,1,8,desert_5,2,memory-2step-stake-s,633,2118647,0.0-19.0-0.1-0.142,A5D0231X0XJNV,3Q9SPIIRXM2ML6FVM0W2D0Z2IA6WAR,3NS0A6KXC8OUBBVX9PDLXA0ARJQZGW,1,2
143,1,object_07,object_01,372.30000001192,1,2,360.5,0.1111111111111111,1,object_03,5,1863,0,1,9,desert_6,2,memory-2step-stake-s,634,2126333,0.0-19.0-0.1-0.143,A5D0231X0XJNV,3Q9SPIIRXM2ML6FVM0W2D0Z2IA6WAR,3NS0A6KXC8OUBBVX9PDLXA0ARJQZGW,2,1
144,1,object_01,object_07,669.79999999702,2,2,405.90000000596,1.0,2,object_05,1,1872,0,4,9,desert_6,2,memory-2step-stake-s,635,2134897,0.0-19.0-0.1-0.144,A5D0231X0XJNV,3Q9SPIIRXM2ML6FVM0W2D0Z2IA6WAR,3NS0A6KXC8OUBBVX9PDLXA0ARJQZGW,1,2
145,3,object_10,object_08,419.5,5,2,316.90000000596,0.3333333333333333,1,object_03,5,1887,0,3,9,library_5,2,memory-2step-stake-s,636,2142747,0.0-19.0-0.1-0.145,A5D0231X0XJNV,3Q9SPIIRXM2ML6FVM0W2D0Z2IA6WAR,3NS0A6KXC8OUBBVX9PDLXA0ARJQZGW,6,5
146,4,object_04,object_06,402.10000000894,8,1,273.59999999404,0.7777777777777778,2,object_05,1,1894,0,4,7,restaurant_1,2,memory-2step-stake-s,637,2150969,0.0-19.0-0.1-0.146,A5D0231X0XJNV,3Q9SPIIRXM2ML6FVM0W2D0Z2IA6WAR,3NS0A6KXC8OUBBVX9PDLXA0ARJQZGW,8,7
147,4,object_04,object_06,122.09999999404,7,2,278.70000000298,0.6666666666666666,1,object_03,1,1900,0,6,7,restaurant_1,2,memory-2step-stake-s,638,2159103,0.0-19.0-0.1-0.147,A5D0231X0XJNV,3Q9SPIIRXM2ML6FVM0W2D0Z2IA6WAR,3NS0A6KXC8OUBBVX9PDLXA0ARJQZGW,8,7
148,3,object_10,object_08,529.09999999404,5,2,477.0,0.4444444444444444,1,object_03,1,1904,0,4,7,library_5,2,memory-2step-stake-s,639,2167222,0.0-19.0-0.1-0.148,A5D0231X0XJNV,3Q9SPIIRXM2ML6FVM0W2D0Z2IA6WAR,3NS0A6KXC8OUBBVX9PDLXA0ARJQZGW,6,5
149,4,object_04,object_06,102.59999999404,7,2,413.59999999404,0.2222222222222222,1,object_03,1,1906,0,2,6,restaurant_2,2,memory-2step-stake-s,640,2175070,0.0-19.0-0.1-0.149,A5D0231X0XJNV,3Q9SPIIRXM2ML6FVM0W2D0Z2IA6WAR,3NS0A6KXC8OUBBVX9PDLXA0ARJQZGW,8,7
150,2,object_02,object_09,280.5,3,1,426.90000000596,0.0,1,object_03,5,1906,0,0,3,forest_3,2,memory-2step-stake-s,641,2182720,0.0-19.0-0.1-0.150,A5D0231X0XJNV,3Q9SPIIRXM2ML6FVM0W2D0Z2IA6WAR,3NS0A6KXC8OUBBVX9PDLXA0ARJQZGW,3,4
151,2,object_02,object_09,393.5,4,2,266.90000000596,0.1111111111111111,2,object_05,5,1911,0,1,1,forest_3,2,memory-2step-stake-s,642,2190321,0.0-19.0-0.1-0.151,A5D0231X0XJNV,3Q9SPIIRXM2ML6FVM0W2D0Z2IA6WAR,3NS0A6KXC8OUBBVX9PDLXA0ARJQZGW,3,4
152,4,object_06,object_04,330.90000000596,7,1,313.69999998808,0.2222222222222222,1,object_03,5,1921,0,2,1,restaurant_2,2,memory-2step-stake-s,643,2198063,0.0-19.0-0.1-0.152,A5D0231X0XJNV,3Q9SPIIRXM2ML6FVM0W2D0Z2IA6WAR,3NS0A6KXC8OUBBVX9PDLXA0ARJQZGW,7,8
153,1,object_01,object_07,341.79999999702,2,2,125.90000000596,0.0,2,object_05,5,1921,0,4,0,desert_5,2,memory-2step-stake-s,644,2205418,0.0-19.0-0.1-0.153,A5D0231X0XJNV,3Q9SPIIRXM2ML6FVM0W2D0Z2IA6WAR,3NS0A6KXC8OUBBVX9PDLXA0ARJQZGW,1,2
154,1,object_01,object_07,587.39999999106,1,1,201.5,0.3333333333333333,1,object_03,5,1936,0,3,1,desert_2,2,memory-2step-stake-s,645,2213159,0.0-19.0-0.1-0.154,A5D0231X0XJNV,3Q9SPIIRXM2ML6FVM0W2D0Z2IA6WAR,3NS0A6KXC8OUBBVX9PDLXA0ARJQZGW,1,2
155,4,object_04,object_06,540.70000000298,8,1,307.59999999404,0.2222222222222222,2,object_05,1,1938,0,2,2,restaurant_7,2,memory-2step-stake-s,646,2220898,0.0-19.0-0.1-0.155,A5D0231X0XJNV,3Q9SPIIRXM2ML6FVM0W2D0Z2IA6WAR,3NS0A6KXC8OUBBVX9PDLXA0ARJQZGW,8,7
156,4,object_06,object_04,421.5,8,2,199.0,0.7777777777777778,2,object_05,1,1945,0,1,7,restaurant_5,2,memory-2step-stake-s,647,2229059,0.0-19.0-0.1-0.156,A5D0231X0XJNV,3Q9SPIIRXM2ML6FVM0W2D0Z2IA6WAR,3NS0A6KXC8OUBBVX9PDLXA0ARJQZGW,7,8
157,2,object_02,object_09,251.09999999404,3,1,324.29999999702,0.2222222222222222,1,object_03,5,1955,0,2,7,forest_3,2,memory-2step-stake-s,648,2236820,0.0-19.0-0.1-0.157,A5D0231X0XJNV,3Q9SPIIRXM2ML6FVM0W2D0Z2IA6WAR,3NS0A6KXC8OUBBVX9PDLXA0ARJQZGW,3,4
158,4,object_06,object_04,296.5,8,2,259.69999998808,0.5555555555555556,2,object_05,1,1960,0,3,5,restaurant_7,2,memory-2step-stake-s,649,2244828,0.0-19.0-0.1-0.158,A5D0231X0XJNV,3Q9SPIIRXM2ML6FVM0W2D0Z2IA6WAR,3NS0A6KXC8OUBBVX9PDLXA0ARJQZGW,7,8
159,4,object_06,object_04,264.59999999404,7,1,463.0,0.2222222222222222,1,object_03,1,1962,0,2,6,restaurant_7,2,memory-2step-stake-s,650,2252730,0.0-19.0-0.1-0.159,A5D0231X0XJNV,3Q9SPIIRXM2ML6FVM0W2D0Z2IA6WAR,3NS0A6KXC8OUBBVX9PDLXA0ARJQZGW,7,8
160,4,object_06,object_04,309.10000000894,8,2,277.0,0.6666666666666666,2,object_05,1,1968,0,0,6,restaurant_7,2,memory-2step-stake-s,651,2260857,0.0-19.0-0.1-0.160,A5D0231X0XJNV,3Q9SPIIRXM2ML6FVM0W2D0Z2IA6WAR,3NS0A6KXC8OUBBVX9PDLXA0ARJQZGW,7,8
161,2,object_02,object_09,304.10000000894,3,1,248.70000000298,0.2222222222222222,1,object_03,5,1978,0,2,6,forest_1,2,memory-2step-stake-s,652,2268540,0.0-19.0-0.1-0.161,A5D0231X0XJNV,3Q9SPIIRXM2ML6FVM0W2D0Z2IA6WAR,3NS0A6KXC8OUBBVX9PDLXA0ARJQZGW,3,4
162,2,object_09,object_02,477.20000000298,3,2,512.29999999702,0.2222222222222222,1,object_03,1,1980,0,2,5,forest_3,2,memory-2step-stake-s,653,2276488,0.0-19.0-0.1-0.162,A5D0231X0XJNV,3Q9SPIIRXM2ML6FVM0W2D0Z2IA6WAR,3NS0A6KXC8OUBBVX9PDLXA0ARJQZGW,4,3
163,4,object_06,object_04,351.5,7,1,284.40000000596,0.1111111111111111,1,object_03,1,1981,0,1,3,restaurant_2,2,memory-2step-stake-s,654,2284109,0.0-19.0-0.1-0.163,A5D0231X0XJNV,3Q9SPIIRXM2ML6FVM0W2D0Z2IA6WAR,3NS0A6KXC8OUBBVX9PDLXA0ARJQZGW,7,8
164,2,object_02,object_09,599.5,4,2,267.59999999404,0.4444444444444444,2,object_05,5,2001,0,0,4,forest_3,2,memory-2step-stake-s,655,2292019,0.0-19.0-0.1-0.164,A5D0231X0XJNV,3Q9SPIIRXM2ML6FVM0W2D0Z2IA6WAR,3NS0A6KXC8OUBBVX9PDLXA0ARJQZGW,3,4
165,1,object_07,object_01,285.70000000298,2,1,354.80000001192,1.0,2,object_05,5,2046,0,1,9,desert_3,2,memory-2step-stake-s,656,2300543,0.0-19.0-0.1-0.165,A5D0231X0XJNV,3Q9SPIIRXM2ML6FVM0W2D0Z2IA6WAR,3NS0A6KXC8OUBBVX9PDLXA0ARJQZGW,2,1
166,3,object_08,object_10,326.60000000894,6,2,408.89999999106,0.5555555555555556,2,object_05,1,2051,0,1,5,library_5,2,memory-2step-stake-s,657,2308706,0.0-19.0-0.1-0.166,A5D0231X0XJNV,3Q9SPIIRXM2ML6FVM0W2D0Z2IA6WAR,3NS0A6KXC8OUBBVX9PDLXA0ARJQZGW,5,6
167,2,object_02,object_09,300.10000000894,3,1,276.89999999106,0.2222222222222222,1,object_03,5,2061,0,2,3,forest_6,2,memory-2step-stake-s,658,2316427,0.0-19.0-0.1-0.167,A5D0231X0XJNV,3Q9SPIIRXM2ML6FVM0W2D0Z2IA6WAR,3NS0A6KXC8OUBBVX9PDLXA0ARJQZGW,3,4
168,1,object_01,object_07,492.10000000894,1,1,373.5,0.3333333333333333,1,object_03,1,2064,0,3,4,desert_5,2,memory-2step-stake-s,659,2324336,0.0-19.0-0.1-0.168,A5D0231X0XJNV,3Q9SPIIRXM2ML6FVM0W2D0Z2IA6WAR,3NS0A6KXC8OUBBVX9PDLXA0ARJQZGW,1,2
169,1,object_07,object_01,416.20000000298,1,2,319.30000001192,0.3333333333333333,1,object_03,5,2079,0,3,3,desert_3,2,memory-2step-stake-s,660,2332197,0.0-19.0-0.1-0.169,A5D0231X0XJNV,3Q9SPIIRXM2ML6FVM0W2D0Z2IA6WAR,3NS0A6KXC8OUBBVX9PDLXA0ARJQZGW,2,1
170,3,object_10,object_08,384.30000001192,6,1,265.20000000298,0.5555555555555556,2,object_05,1,2084,0,1,5,library_3,2,memory-2step-stake-s,661,2340213,0.0-19.0-0.1-0.170,A5D0231X0XJNV,3Q9SPIIRXM2ML6FVM0W2D0Z2IA6WAR,3NS0A6KXC8OUBBVX9PDLXA0ARJQZGW,6,5
171,1,object_01,object_07,312.0,2,2,266.30000001192,0.3333333333333333,2,object_05,5,2099,0,0,3,desert_2,2,memory-2step-stake-s,662,2348013,0.0-19.0-0.1-0.171,A5D0231X0XJNV,3Q9SPIIRXM2ML6FVM0W2D0Z2IA6WAR,3NS0A6KXC8OUBBVX9PDLXA0ARJQZGW,1,2
172,1,object_07,object_01,1202.799999997,2,1,454.60000000894,0.3333333333333333,2,object_05,1,2102,0,2,3,desert_3,2,memory-2step-stake-s,663,2356000,0.0-19.0-0.1-0.172,A5D0231X0XJNV,3Q9SPIIRXM2ML6FVM0W2D0Z2IA6WAR,3NS0A6KXC8OUBBVX9PDLXA0ARJQZGW,2,1
173,4,object_04,object_06,366.0,8,1,415.09999999404,0.5555555555555556,2,object_05,1,2107,0,2,5,restaurant_7,2,memory-2step-stake-s,664,2364168,0.0-19.0-0.1-0.173,A5D0231X0XJNV,3Q9SPIIRXM2ML6FVM0W2D0Z2IA6WAR,3NS0A6KXC8OUBBVX9PDLXA0ARJQZGW,8,7
174,1,object_01,object_07,371.70000000298,2,2,369.69999998808,0.5555555555555556,2,object_05,5,2132,0,1,5,desert_3,2,memory-2step-stake-s,665,2372285,0.0-19.0-0.1-0.174,A5D0231X0XJNV,3Q9SPIIRXM2ML6FVM0W2D0Z2IA6WAR,3NS0A6KXC8OUBBVX9PDLXA0ARJQZGW,1,2
175,1,object_07,object_01,288.09999999404,1,2,253.0,0.2222222222222222,1,object_03,5,2142,0,2,3,desert_3,2,memory-2step-stake-s,666,2379974,0.0-19.0-0.1-0.175,A5D0231X0XJNV,3Q9SPIIRXM2ML6FVM0W2D0Z2IA6WAR,3NS0A6KXC8OUBBVX9PDLXA0ARJQZGW,2,1
176,3,object_08,object_10,307.40000000596,5,1,488.90000000596,0.1111111111111111,1,object_03,1,2143,0,1,3,library_5,2,memory-2step-stake-s,667,2387804,0.0-19.0-0.1-0.176,A5D0231X0XJNV,3Q9SPIIRXM2ML6FVM0W2D0Z2IA6WAR,3NS0A6KXC8OUBBVX9PDLXA0ARJQZGW,5,6
177,1,object_01,object_07,256.79999999702,1,1,1173.1999999881,0.2222222222222222,1,object_03,1,2145,0,2,4,desert_3,2,memory-2step-stake-s,668,2396421,0.0-19.0-0.1-0.177,A5D0231X0XJNV,3Q9SPIIRXM2ML6FVM0W2D0Z2IA6WAR,3NS0A6KXC8OUBBVX9PDLXA0ARJQZGW,1,2
178,3,object_10,object_08,311.5,5,2,412.0,0.1111111111111111,1,object_03,1,2146,0,1,1,library_3,2,memory-2step-stake-s,669,2404168,0.0-19.0-0.1-0.178,A5D0231X0XJNV,3Q9SPIIRXM2ML6FVM0W2D0Z2IA6WAR,3NS0A6KXC8OUBBVX9PDLXA0ARJQZGW,6,5
179,2,object_09,object_02,502.70000000298,4,1,916.19999998808,0.1111111111111111,2,object_05,5,2151,0,0,1,forest_3,2,memory-2step-stake-s,670,2412426,0.0-19.0-0.1-0.179,A5D0231X0XJNV,3Q9SPIIRXM2ML6FVM0W2D0Z2IA6WAR,3NS0A6KXC8OUBBVX9PDLXA0ARJQZGW,4,3
180,3,object_10,object_08,424.89999999106,5,2,123.59999999404,0.2222222222222222,1,object_03,1,2153,0,2,2,library_3,2,memory-2step-stake-s,671,2419997,0.0-19.0-0.1-0.180,A5D0231X0XJNV,3Q9SPIIRXM2ML6FVM0W2D0Z2IA6WAR,3NS0A6KXC8OUBBVX9PDLXA0ARJQZGW,6,5
181,4,object_06,object_04,373.20000000298,7,1,1371.3000000119,0.1111111111111111,1,object_03,1,2154,0,1,4,restaurant_2,2,memory-2step-stake-s,672,2428702,0.0-19.0-0.1-0.181,A5D0231X0XJNV,3Q9SPIIRXM2ML6FVM0W2D0Z2IA6WAR,3NS0A6KXC8OUBBVX9PDLXA0ARJQZGW,7,8
182,2,object_09,object_02,419.0,3,2,957.90000000596,0.3333333333333333,1,object_03,1,2157,0,3,4,forest_6,2,memory-2step-stake-s,673,2437213,0.0-19.0-0.1-0.182,A5D0231X0XJNV,3Q9SPIIRXM2ML6FVM0W2D0Z2IA6WAR,3NS0A6KXC8OUBBVX9PDLXA0ARJQZGW,4,3
183,1,object_01,object_07,437.70000000298,1,1,744.10000000894,0.5555555555555556,1,object_03,1,2162,0,5,1,desert_6,2,memory-2step-stake-s,674,2445715,0.0-19.0-0.1-0.183,A5D0231X0XJNV,3Q9SPIIRXM2ML6FVM0W2D0Z2IA6WAR,3NS0A6KXC8OUBBVX9PDLXA0ARJQZGW,1,2
184,3,object_08,object_10,71.20000000298,6,2,475.0,0.0,2,object_05,1,2162,0,4,0,library_3,2,memory-2step-stake-s,675,2453428,0.0-19.0-0.1-0.184,A5D0231X0XJNV,3Q9SPIIRXM2ML6FVM0W2D0Z2IA6WAR,3NS0A6KXC8OUBBVX9PDLXA0ARJQZGW,5,6
185,4,object_06,object_04,795.70000000298,8,2,353.89999999106,0.3333333333333333,2,object_05,1,2165,0,3,3,restaurant_7,2,memory-2step-stake-s,676,2461313,0.0-19.0-0.1-0.185,A5D0231X0XJNV,3Q9SPIIRXM2ML6FVM0W2D0Z2IA6WAR,3NS0A6KXC8OUBBVX9PDLXA0ARJQZGW,7,8
186,2,object_02,object_09,486.59999999404,4,2,215.20000000298,0.4444444444444444,2,object_05,1,2169,0,2,4,forest_5,2,memory-2step-stake-s,677,2469174,0.0-19.0-0.1-0.186,A5D0231X0XJNV,3Q9SPIIRXM2ML6FVM0W2D0Z2IA6WAR,3NS0A6KXC8OUBBVX9PDLXA0ARJQZGW,3,4
187,1,object_01,object_07,299.0,2,2,637.5,0.5555555555555556,2,object_05,5,2194,0,2,5,desert_5,2,memory-2step-stake-s,678,2477566,0.0-19.0-0.1-0.187,A5D0231X0XJNV,3Q9SPIIRXM2ML6FVM0W2D0Z2IA6WAR,3NS0A6KXC8OUBBVX9PDLXA0ARJQZGW,1,2
188,2,object_02,object_09,2.7000000029802,3,1,404.69999998808,0.2222222222222222,1,object_03,5,2204,0,2,3,forest_5,2,memory-2step-stake-s,679,2485418,0.0-19.0-0.1-0.188,A5D0231X0XJNV,3Q9SPIIRXM2ML6FVM0W2D0Z2IA6WAR,3NS0A6KXC8OUBBVX9PDLXA0ARJQZGW,3,4
189,3,object_10,object_08,350.79999999702,6,1,587.0,0.4444444444444444,2,object_05,1,2208,0,0,4,library_3,2,memory-2step-stake-s,680,2493657,0.0-19.0-0.1-0.189,A5D0231X0XJNV,3Q9SPIIRXM2ML6FVM0W2D0Z2IA6WAR,3NS0A6KXC8OUBBVX9PDLXA0ARJQZGW,6,5
190,1,object_07,object_01,531.39999999106,1,2,397.0,0.5555555555555556,1,object_03,5,2233,0,5,2,desert_2,2,memory-2step-stake-s,681,2501809,0.0-19.0-0.1-0.190,A5D0231X0XJNV,3Q9SPIIRXM2ML6FVM0W2D0Z2IA6WAR,3NS0A6KXC8OUBBVX9PDLXA0ARJQZGW,2,1
191,3,object_10,object_08,615.20000000298,5,2,370.59999999404,1.0,1,object_03,5,2278,0,9,1,library_8,2,memory-2step-stake-s,682,2510325,0.0-19.0-0.1-0.191,A5D0231X0XJNV,3Q9SPIIRXM2ML6FVM0W2D0Z2IA6WAR,3NS0A6KXC8OUBBVX9PDLXA0ARJQZGW,6,5
192,4,object_06,object_04,379.60000000894,7,1,344.20000000298,1.0,1,object_03,1,2287,0,9,1,restaurant_5,2,memory-2step-stake-s,683,2518837,0.0-19.0-0.1-0.192,A5D0231X0XJNV,3Q9SPIIRXM2ML6FVM0W2D0Z2IA6WAR,3NS0A6KXC8OUBBVX9PDLXA0ARJQZGW,7,8
193,1,object_07,object_01,424.29999999702,1,2,480.5,0.7777777777777778,1,object_03,5,2322,0,7,2,desert_5,2,memory-2step-stake-s,684,2527268,0.0-19.0-0.1-0.193,A5D0231X0XJNV,3Q9SPIIRXM2ML6FVM0W2D0Z2IA6WAR,3NS0A6KXC8OUBBVX9PDLXA0ARJQZGW,2,1
194,3,object_08,object_10,478.90000000596,5,1,329.10000000894,0.6666666666666666,1,object_03,1,2328,0,6,3,library_6,2,memory-2step-stake-s,685,2535437,0.0-19.0-0.1-0.194,A5D0231X0XJNV,3Q9SPIIRXM2ML6FVM0W2D0Z2IA6WAR,3NS0A6KXC8OUBBVX9PDLXA0ARJQZGW,5,6
195,4,object_04,object_06,305.79999999702,7,2,310.79999999702,0.7777777777777778,1,object_03,1,2335,0,7,4,restaurant_2,2,memory-2step-stake-s,686,2543703,0.0-19.0-0.1-0.195,A5D0231X0XJNV,3Q9SPIIRXM2ML6FVM0W2D0Z2IA6WAR,3NS0A6KXC8OUBBVX9PDLXA0ARJQZGW,8,7
196,3,object_10,object_08,556.19999998808,6,1,311.40000000596,0.4444444444444444,2,object_05,1,2339,0,8,4,library_8,2,memory-2step-stake-s,687,2551650,0.0-19.0-0.1-0.196,A5D0231X0XJNV,3Q9SPIIRXM2ML6FVM0W2D0Z2IA6WAR,3NS0A6KXC8OUBBVX9PDLXA0ARJQZGW,6,5
197,2,object_09,object_02,985.90000000596,3,2,679.0,0.7777777777777778,1,object_03,5,2374,0,7,3,forest_5,2,memory-2step-stake-s,688,2560283,0.0-19.0-0.1-0.197,A5D0231X0XJNV,3Q9SPIIRXM2ML6FVM0W2D0Z2IA6WAR,3NS0A6KXC8OUBBVX9PDLXA0ARJQZGW,4,3
198,4,object_06,object_04,573.70000000298,8,2,372.5,0.3333333333333333,2,object_05,1,2377,0,9,3,restaurant_5,2,memory-2step-stake-s,689,2568193,0.0-19.0-0.1-0.198,A5D0231X0XJNV,3Q9SPIIRXM2ML6FVM0W2D0Z2IA6WAR,3NS0A6KXC8OUBBVX9PDLXA0ARJQZGW,7,8
199,4,object_06,object_04,1218.900000006,7,1,520.19999998808,0.7777777777777778,1,object_03,5,2412,0,7,6,restaurant_7,2,memory-2step-stake-s,690,2576650,0.0-19.0-0.1-0.199,A5D0231X0XJNV,3Q9SPIIRXM2ML6FVM0W2D0Z2IA6WAR,3NS0A6KXC8OUBBVX9PDLXA0ARJQZGW,7,8
200,2,object_02,object_09,1210.0,3,1,657.59999999404,0.4444444444444444,1,object_03,5,2432,0,4,3,forest_5,2,memory-2step-stake-s,691,2584956,0.0-19.0-0.1-0.200,A5D0231X0XJNV,3Q9SPIIRXM2ML6FVM0W2D0Z2IA6WAR,3NS0A6KXC8OUBBVX9PDLXA0ARJQZGW,3,4
201,2,object_09,object_02,-1.0,-1,-1,-1.0,0.0,-,0,5,2432,0,5,3,forest_6,2,memory-2step-stake-s,692,2591471,0.0-19.0-0.1-0.201,A5D0231X0XJNV,3Q9SPIIRXM2ML6FVM0W2D0Z2IA6WAR,3NS0A6KXC8OUBBVX9PDLXA0ARJQZGW,4,3
202,1,object_07,object_01,419.10000000894,2,1,286.0,0.2222222222222222,2,object_05,5,2442,0,5,2,desert_6,2,memory-2step-stake-s,693,2599180,0.0-19.0-0.1-0.202,A5D0231X0XJNV,3Q9SPIIRXM2ML6FVM0W2D0Z2IA6WAR,3NS0A6KXC8OUBBVX9PDLXA0ARJQZGW,2,1
203,3,object_08,object_10,549.0,6,2,39.600000008941,0.1111111111111111,2,object_05,1,2443,0,8,1,library_5,2,memory-2step-stake-s,694,2606542,0.0-19.0-0.1-0.203,A5D0231X0XJNV,3Q9SPIIRXM2ML6FVM0W2D0Z2IA6WAR,3NS0A6KXC8OUBBVX9PDLXA0ARJQZGW,5,6
204,3,object_08,object_10,623.20000000298,6,2,398.5,0.1111111111111111,2,object_05,1,2444,0,9,1,library_5,2,memory-2step-stake-s,695,2614265,0.0-19.0-0.1-0.204,A5D0231X0XJNV,3Q9SPIIRXM2ML6FVM0W2D0Z2IA6WAR,3NS0A6KXC8OUBBVX9PDLXA0ARJQZGW,5,6
205,4,object_04,object_06,623.79999999702,8,1,385.20000000298,0.3333333333333333,2,object_05,1,2447,0,9,3,restaurant_1,2,memory-2step-stake-s,696,2622182,0.0-19.0-0.1-0.205,A5D0231X0XJNV,3Q9SPIIRXM2ML6FVM0W2D0Z2IA6WAR,3NS0A6KXC8OUBBVX9PDLXA0ARJQZGW,8,7
206,2,object_09,object_02,1046.3999999911,3,2,371.29999999702,0.8888888888888888,1,object_03,5,2487,0,8,3,forest_3,2,memory-2step-stake-s,697,2630616,0.0-19.0-0.1-0.206,A5D0231X0XJNV,3Q9SPIIRXM2ML6FVM0W2D0Z2IA6WAR,3NS0A6KXC8OUBBVX9PDLXA0ARJQZGW,4,3
207,2,object_09,object_02,481.20000000298,4,1,297.90000000596,0.0,2,object_05,5,2487,0,8,0,forest_6,2,memory-2step-stake-s,698,2638148,0.0-19.0-0.1-0.207,A5D0231X0XJNV,3Q9SPIIRXM2ML6FVM0W2D0Z2IA6WAR,3NS0A6KXC8OUBBVX9PDLXA0ARJQZGW,4,3
208,2,object_02,object_09,808.79999999702,4,2,921.0,0.1111111111111111,2,object_05,1,2488,0,6,1,forest_3,2,memory-2step-stake-s,699,2646402,0.0-19.0-0.1-0.208,A5D0231X0XJNV,3Q9SPIIRXM2ML6FVM0W2D0Z2IA6WAR,3NS0A6KXC8OUBBVX9PDLXA0ARJQZGW,3,4
209,2,object_02,object_09,707.39999999106,3,1,686.09999999404,1.0,1,object_03,5,2533,0,9,2,forest_1,2,memory-2step-stake-s,700,2655264,0.0-19.0-0.1-0.209,A5D0231X0XJNV,3Q9SPIIRXM2ML6FVM0W2D0Z2IA6WAR,3NS0A6KXC8OUBBVX9PDLXA0ARJQZGW,3,4
210,4,object_04,object_06,1164.700000003,7,2,776.5,1.0,1,object_03,1,2542,0,9,4,restaurant_5,2,memory-2step-stake-s,701,2664220,0.0-19.0-0.1-0.210,A5D0231X0XJNV,3Q9SPIIRXM2ML6FVM0W2D0Z2IA6WAR,3NS0A6KXC8OUBBVX9PDLXA0ARJQZGW,8,7
211,2,object_02,object_09,919.90000000596,3,1,295.20000000298,0.8888888888888888,1,object_03,5,2582,0,8,5,forest_5,2,memory-2step-stake-s,702,2672567,0.0-19.0-0.1-0.211,A5D0231X0XJNV,3Q9SPIIRXM2ML6FVM0W2D0Z2IA6WAR,3NS0A6KXC8OUBBVX9PDLXA0ARJQZGW,3,4
212,4,object_06,object_04,820.20000000298,7,1,330.79999999702,0.8888888888888888,1,object_03,1,2590,0,8,4,restaurant_7,2,memory-2step-stake-s,703,2680967,0.0-19.0-0.1-0.212,A5D0231X0XJNV,3Q9SPIIRXM2ML6FVM0W2D0Z2IA6WAR,3NS0A6KXC8OUBBVX9PDLXA0ARJQZGW,7,8
213,4,object_04,object_06,853.90000000596,8,1,446.0,0.4444444444444444,2,object_05,1,2594,0,8,4,restaurant_2,2,memory-2step-stake-s,704,2689068,0.0-19.0-0.1-0.213,A5D0231X0XJNV,3Q9SPIIRXM2ML6FVM0W2D0Z2IA6WAR,3NS0A6KXC8OUBBVX9PDLXA0ARJQZGW,8,7
214,3,object_08,object_10,563.29999999702,5,1,362.10000000894,0.7777777777777778,1,object_03,5,2629,0,7,5,library_8,2,memory-2step-stake-s,705,2697393,0.0-19.0-0.1-0.214,A5D0231X0XJNV,3Q9SPIIRXM2ML6FVM0W2D0Z2IA6WAR,3NS0A6KXC8OUBBVX9PDLXA0ARJQZGW,5,6
215,4,object_06,object_04,410.59999999404,7,1,288.40000000596,0.6666666666666666,1,object_03,1,2635,0,6,3,restaurant_5,2,memory-2step-stake-s,706,2705541,0.0-19.0-0.1-0.215,A5D0231X0XJNV,3Q9SPIIRXM2ML6FVM0W2D0Z2IA6WAR,3NS0A6KXC8OUBBVX9PDLXA0ARJQZGW,7,8
216,4,object_06,object_04,467.40000000596,7,1,18.399999991059,0.5555555555555556,1,object_03,1,2640,0,5,0,restaurant_7,2,memory-2step-stake-s,707,2713326,0.0-19.0-0.1-0.216,A5D0231X0XJNV,3Q9SPIIRXM2ML6FVM0W2D0Z2IA6WAR,3NS0A6KXC8OUBBVX9PDLXA0ARJQZGW,7,8
217,1,object_07,object_01,743.70000000298,2,1,-1.0,0.0,2,object_05,5,2640,0,4,1,desert_3,2,memory-2step-stake-s,708,2721870,0.0-19.0-0.1-0.217,A5D0231X0XJNV,3Q9SPIIRXM2ML6FVM0W2D0Z2IA6WAR,3NS0A6KXC8OUBBVX9PDLXA0ARJQZGW,2,1
218,2,object_09,object_02,499.59999999404,4,1,296.10000000894,0.1111111111111111,2,object_05,5,2645,0,4,1,forest_1,2,memory-2step-stake-s,709,2729501,0.0-19.0-0.1-0.218,A5D0231X0XJNV,3Q9SPIIRXM2ML6FVM0W2D0Z2IA6WAR,3NS0A6KXC8OUBBVX9PDLXA0ARJQZGW,4,3
219,2,object_09,object_02,722.20000000298,4,1,128.39999999106,0.1111111111111111,2,object_05,5,2650,0,5,1,forest_6,2,memory-2step-stake-s,710,2736968,0.0-19.0-0.1-0.219,A5D0231X0XJNV,3Q9SPIIRXM2ML6FVM0W2D0Z2IA6WAR,3NS0A6KXC8OUBBVX9PDLXA0ARJQZGW,4,3
220,3,object_08,object_10,790.10000000894,6,2,318.5,0.1111111111111111,2,object_05,5,2655,0,7,1,library_8,2,memory-2step-stake-s,711,2744624,0.0-19.0-0.1-0.220,A5D0231X0XJNV,3Q9SPIIRXM2ML6FVM0W2D0Z2IA6WAR,3NS0A6KXC8OUBBVX9PDLXA0ARJQZGW,5,6
221,2,object_09,object_02,692.59999999404,3,2,286.60000000894,0.8888888888888888,1,object_03,5,2695,0,8,3,forest_3,2,memory-2step-stake-s,712,2752972,0.0-19.0-0.1-0.221,A5D0231X0XJNV,3Q9SPIIRXM2ML6FVM0W2D0Z2IA6WAR,3NS0A6KXC8OUBBVX9PDLXA0ARJQZGW,4,3
222,1,object_07,object_01,512.59999999404,1,2,337.80000001192,0.6666666666666666,1,object_03,5,2725,0,6,1,desert_2,2,memory-2step-stake-s,713,2761167,0.0-19.0-0.1-0.222,A5D0231X0XJNV,3Q9SPIIRXM2ML6FVM0W2D0Z2IA6WAR,3NS0A6KXC8OUBBVX9PDLXA0ARJQZGW,2,1
223,3,object_10,object_08,669.90000000596,5,2,157.0,0.5555555555555556,1,object_03,5,2750,0,5,0,library_5,2,memory-2step-stake-s,714,2769072,0.0-19.0-0.1-0.223,A5D0231X0XJNV,3Q9SPIIRXM2ML6FVM0W2D0Z2IA6WAR,3NS0A6KXC8OUBBVX9PDLXA0ARJQZGW,6,5
224,1,object_07,object_01,584.40000000596,1,2,386.5,0.3333333333333333,1,object_03,1,2753,0,3,0,desert_5,2,memory-2step-stake-s,715,2776996,0.0-19.0-0.1-0.224,A5D0231X0XJNV,3Q9SPIIRXM2ML6FVM0W2D0Z2IA6WAR,3NS0A6KXC8OUBBVX9PDLXA0ARJQZGW,2,1
225,1,object_01,object_07,604.5,1,1,456.79999999702,0.2222222222222222,1,object_03,1,2755,0,2,0,desert_6,2,memory-2step-stake-s,716,2784903,0.0-19.0-0.1-0.225,A5D0231X0XJNV,3Q9SPIIRXM2ML6FVM0W2D0Z2IA6WAR,3NS0A6KXC8OUBBVX9PDLXA0ARJQZGW,1,2
226,1,object_01,object_07,662.40000000596,2,2,483.39999999106,0.1111111111111111,2,object_05,1,2756,0,2,1,desert_5,2,memory-2step-stake-s,717,2792724,0.0-19.0-0.1-0.226,A5D0231X0XJNV,3Q9SPIIRXM2ML6FVM0W2D0Z2IA6WAR,3NS0A6KXC8OUBBVX9PDLXA0ARJQZGW,1,2
227,3,object_10,object_08,964.89999999106,5,2,117.59999999404,0.1111111111111111,1,object_03,1,2757,0,1,1,library_8,2,memory-2step-stake-s,718,2800176,0.0-19.0-0.1-0.227,A5D0231X0XJNV,3Q9SPIIRXM2ML6FVM0W2D0Z2IA6WAR,3NS0A6KXC8OUBBVX9PDLXA0ARJQZGW,6,5
228,3,object_08,object_10,1055.900000006,6,2,596.70000000298,0.1111111111111111,2,object_05,5,2762,0,2,1,library_3,2,memory-2step-stake-s,719,2808121,0.0-19.0-0.1-0.228,A5D0231X0XJNV,3Q9SPIIRXM2ML6FVM0W2D0Z2IA6WAR,3NS0A6KXC8OUBBVX9PDLXA0ARJQZGW,5,6
229,4,object_06,object_04,686.5,7,1,395.70000000298,0.2222222222222222,1,object_03,1,2764,0,2,1,restaurant_1,2,memory-2step-stake-s,720,2815958,0.0-19.0-0.1-0.229,A5D0231X0XJNV,3Q9SPIIRXM2ML6FVM0W2D0Z2IA6WAR,3NS0A6KXC8OUBBVX9PDLXA0ARJQZGW,7,8
230,3,object_10,object_08,500.60000000894,5,2,106.70000000298,0.2222222222222222,1,object_03,1,2766,0,2,1,library_8,2,memory-2step-stake-s,721,2823506,0.0-19.0-0.1-0.230,A5D0231X0XJNV,3Q9SPIIRXM2ML6FVM0W2D0Z2IA6WAR,3NS0A6KXC8OUBBVX9PDLXA0ARJQZGW,6,5
231,4,object_06,object_04,478.90000000596,7,1,346.40000000596,0.2222222222222222,1,object_03,1,2768,0,2,3,restaurant_1,2,memory-2step-stake-s,722,2831292,0.0-19.0-0.1-0.231,A5D0231X0XJNV,3Q9SPIIRXM2ML6FVM0W2D0Z2IA6WAR,3NS0A6KXC8OUBBVX9PDLXA0ARJQZGW,7,8
232,1,object_01,object_07,514.39999999106,1,1,326.40000000596,0.0,1,object_03,5,2768,0,0,2,desert_2,2,memory-2step-stake-s,723,2838845,0.0-19.0-0.1-0.232,A5D0231X0XJNV,3Q9SPIIRXM2ML6FVM0W2D0Z2IA6WAR,3NS0A6KXC8OUBBVX9PDLXA0ARJQZGW,1,2
233,3,object_08,object_10,667.0,6,2,339.20000000298,0.1111111111111111,2,object_05,1,2769,0,1,1,library_6,2,memory-2step-stake-s,724,2846520,0.0-19.0-0.1-0.233,A5D0231X0XJNV,3Q9SPIIRXM2ML6FVM0W2D0Z2IA6WAR,3NS0A6KXC8OUBBVX9PDLXA0ARJQZGW,5,6
234,3,object_08,object_10,497.89999999106,6,2,563.0,0.2222222222222222,2,object_05,1,2771,0,3,2,library_3,2,memory-2step-stake-s,725,2854526,0.0-19.0-0.1-0.234,A5D0231X0XJNV,3Q9SPIIRXM2ML6FVM0W2D0Z2IA6WAR,3NS0A6KXC8OUBBVX9PDLXA0ARJQZGW,5,6
235,2,object_02,object_09,758.60000000894,4,2,292.39999999106,0.2222222222222222,2,object_05,5,2781,0,1,2,forest_1,2,memory-2step-stake-s,726,2862265,0.0-19.0-0.1-0.235,A5D0231X0XJNV,3Q9SPIIRXM2ML6FVM0W2D0Z2IA6WAR,3NS0A6KXC8OUBBVX9PDLXA0ARJQZGW,3,4
236,2,object_09,object_02,739.20000000298,3,2,264.29999999702,0.1111111111111111,1,object_03,5,2786,0,1,1,forest_5,2,memory-2step-stake-s,727,2869869,0.0-19.0-0.1-0.236,A5D0231X0XJNV,3Q9SPIIRXM2ML6FVM0W2D0Z2IA6WAR,3NS0A6KXC8OUBBVX9PDLXA0ARJQZGW,4,3
237,3,object_10,object_08,488.59999999404,5,2,281.0,0.1111111111111111,1,object_03,1,2787,0,1,0,library_5,2,memory-2step-stake-s,728,2877482,0.0-19.0-0.1-0.237,A5D0231X0XJNV,3Q9SPIIRXM2ML6FVM0W2D0Z2IA6WAR,3NS0A6KXC8OUBBVX9PDLXA0ARJQZGW,6,5
238,2,object_09,object_02,835.29999999702,4,1,197.79999999702,0.3333333333333333,2,object_05,5,2802,0,0,3,forest_1,2,memory-2step-stake-s,729,2885224,0.0-19.0-0.1-0.238,A5D0231X0XJNV,3Q9SPIIRXM2ML6FVM0W2D0Z2IA6WAR,3NS0A6KXC8OUBBVX9PDLXA0ARJQZGW,4,3
239,2,object_02,object_09,926.40000000596,4,2,430.0,0.3333333333333333,2,object_05,5,2817,0,0,3,forest_1,2,memory-2step-stake-s,730,2893197,0.0-19.0-0.1-0.239,A5D0231X0XJNV,3Q9SPIIRXM2ML6FVM0W2D0Z2IA6WAR,3NS0A6KXC8OUBBVX9PDLXA0ARJQZGW,3,4
240,4,object_04,object_06,671.79999999702,7,2,442.70000000298,0.1111111111111111,1,object_03,5,2822,0,1,1,restaurant_2,2,memory-2step-stake-s,731,2900968,0.0-19.0-0.1-0.240,A5D0231X0XJNV,3Q9SPIIRXM2ML6FVM0W2D0Z2IA6WAR,3NS0A6KXC8OUBBVX9PDLXA0ARJQZGW,8,7
241,2,object_09,object_02,702.59999999404,4,1,279.09999999404,0.1111111111111111,2,object_05,5,2827,0,4,1,forest_6,2,memory-2step-stake-s,732,2908578,0.0-19.0-0.1-0.241,A5D0231X0XJNV,3Q9SPIIRXM2ML6FVM0W2D0Z2IA6WAR,3NS0A6KXC8OUBBVX9PDLXA0ARJQZGW,4,3
242,2,object_02,object_09,426.89999999106,3,1,290.90000000596,0.6666666666666666,1,object_03,1,2833,0,6,2,forest_1,2,memory-2step-stake-s,733,2916721,0.0-19.0-0.1-0.242,A5D0231X0XJNV,3Q9SPIIRXM2ML6FVM0W2D0Z2IA6WAR,3NS0A6KXC8OUBBVX9PDLXA0ARJQZGW,3,4
243,2,object_09,object_02,636.5,4,1,303.09999999404,0.5555555555555556,2,object_05,1,2838,0,5,5,forest_3,2,memory-2step-stake-s,734,2924772,0.0-19.0-0.1-0.243,A5D0231X0XJNV,3Q9SPIIRXM2ML6FVM0W2D0Z2IA6WAR,3NS0A6KXC8OUBBVX9PDLXA0ARJQZGW,4,3
244,1,object_01,object_07,535.5,2,2,383.59999999404,0.2222222222222222,2,object_05,5,2848,0,5,2,desert_5,2,memory-2step-stake-s,735,2932607,0.0-19.0-0.1-0.244,A5D0231X0XJNV,3Q9SPIIRXM2ML6FVM0W2D0Z2IA6WAR,3NS0A6KXC8OUBBVX9PDLXA0ARJQZGW,1,2
245,1,object_07,object_01,653.0,2,1,303.70000000298,0.1111111111111111,2,object_05,5,2853,0,8,1,desert_6,2,memory-2step-stake-s,736,2940240,0.0-19.0-0.1-0.245,A5D0231X0XJNV,3Q9SPIIRXM2ML6FVM0W2D0Z2IA6WAR,3NS0A6KXC8OUBBVX9PDLXA0ARJQZGW,2,1
246,4,object_06,object_04,499.79999999702,8,2,414.80000001192,0.2222222222222222,2,object_05,1,2855,0,7,2,restaurant_5,2,memory-2step-stake-s,737,2948086,0.0-19.0-0.1-0.246,A5D0231X0XJNV,3Q9SPIIRXM2ML6FVM0W2D0Z2IA6WAR,3NS0A6KXC8OUBBVX9PDLXA0ARJQZGW,7,8
247,2,object_02,object_09,706.80000001192,3,1,411.60000000894,0.8888888888888888,1,object_03,5,2895,0,8,0,forest_6,2,memory-2step-stake-s,738,2956553,0.0-19.0-0.1-0.247,A5D0231X0XJNV,3Q9SPIIRXM2ML6FVM0W2D0Z2IA6WAR,3NS0A6KXC8OUBBVX9PDLXA0ARJQZGW,3,4
248,1,object_07,object_01,645.40000000596,2,1,482.0,0.1111111111111111,2,object_05,5,2900,0,5,1,desert_6,2,memory-2step-stake-s,739,2964364,0.0-19.0-0.1-0.248,A5D0231X0XJNV,3Q9SPIIRXM2ML6FVM0W2D0Z2IA6WAR,3NS0A6KXC8OUBBVX9PDLXA0ARJQZGW,2,1
249,2,object_09,object_02,617.40000000596,3,2,386.80000001192,0.3333333333333333,1,object_03,1,2903,0,3,1,forest_1,2,memory-2step-stake-s,740,2972289,0.0-19.0-0.1-0.249,A5D0231X0XJNV,3Q9SPIIRXM2ML6FVM0W2D0Z2IA6WAR,3NS0A6KXC8OUBBVX9PDLXA0ARJQZGW,4,3
250,2,object_02,object_09,502.70000000298,3,1,363.0,0.3333333333333333,1,object_03,5,2918,0,3,3,forest_1,2,memory-2step-stake-s,741,2980186,0.0-19.0-0.1-0.250,A5D0231X0XJNV,3Q9SPIIRXM2ML6FVM0W2D0Z2IA6WAR,3NS0A6KXC8OUBBVX9PDLXA0ARJQZGW,3,4
251,2,object_02,object_09,710.70000000298,3,1,507.70000000298,0.1111111111111111,1,object_03,5,2923,0,1,6,forest_5,2,memory-2step-stake-s,742,2988022,0.0-19.0-0.1-0.251,A5D0231X0XJNV,3Q9SPIIRXM2ML6FVM0W2D0Z2IA6WAR,3NS0A6KXC8OUBBVX9PDLXA0ARJQZGW,3,4
252,4,object_06,object_04,372.90000000596,8,2,458.89999999106,0.7777777777777778,2,object_05,1,2930,0,0,7,restaurant_5,2,memory-2step-stake-s,743,2996434,0.0-19.0-0.1-0.252,A5D0231X0XJNV,3Q9SPIIRXM2ML6FVM0W2D0Z2IA6WAR,3NS0A6KXC8OUBBVX9PDLXA0ARJQZGW,7,8
253,1,object_01,object_07,695.0,2,2,370.5,0.7777777777777778,2,object_05,5,2965,0,4,7,desert_2,2,memory-2step-stake-s,744,3004753,0.0-19.0-0.1-0.253,A5D0231X0XJNV,3Q9SPIIRXM2ML6FVM0W2D0Z2IA6WAR,3NS0A6KXC8OUBBVX9PDLXA0ARJQZGW,1,2
254,1,object_01,object_07,737.59999999404,2,2,464.20000000298,0.6666666666666666,2,object_05,1,2971,0,4,6,desert_3,2,memory-2step-stake-s,745,3013074,0.0-19.0-0.1-0.254,A5D0231X0XJNV,3Q9SPIIRXM2ML6FVM0W2D0Z2IA6WAR,3NS0A6KXC8OUBBVX9PDLXA0ARJQZGW,1,2
255,3,object_08,object_10,799.0,5,1,351.79999999702,0.8888888888888888,1,object_03,1,2979,0,8,6,library_3,2,memory-2step-stake-s,746,3021495,0.0-19.0-0.1-0.255,A5D0231X0XJNV,3Q9SPIIRXM2ML6FVM0W2D0Z2IA6WAR,3NS0A6KXC8OUBBVX9PDLXA0ARJQZGW,5,6
