,state1,stim_left,stim_right,rt_1,choice1,response1,rt_2,points,state2,stim_state2,stake,score,practice,rews1,rews2,background,high_arm,trial_type,trial_index,time_elapsed,internal_node_id,subid,hitid,assignmentid,stim_left_num,stim_right_num
0,2,object_10,object_04,-1.0,-1,-1,-1.0,0.0,-,0,1,0,0,1,1,forest_4,1,memory-2step-stake-s,495,971014,0.0-19.0-0.0-0.0,A2FCQ5K0T1PYHS,3X4Q1O9UCK2WXV8VOBT8MFKQE0B7O9,37UEWGM5HXOO55J3HPY54KU5GF0R1B,4,3
1,4,object_02,object_07,546.59999999404,7,2,-1.0,0.0,1,object_08,5,0,0,1,1,restaurant_1,1,memory-2step-stake-s,496,979534,0.0-19.0-0.0-0.1,A2FCQ5K0T1PYHS,3X4Q1O9UCK2WXV8VOBT8MFKQE0B7O9,37UEWGM5HXOO55J3HPY54KU5GF0R1B,8,7
2,1,object_06,object_03,798.09999999404,1,1,-1.0,0.0,1,object_08,5,0,0,1,0,desert_4,1,memory-2step-stake-s,497,988057,0.0-19.0-0.0-0.2,A2FCQ5K0T1PYHS,3X4Q1O9UCK2WXV8VOBT8MFKQE0B7O9,37UEWGM5HXOO55J3HPY54KU5GF0R1B,1,2
3,3,object_09,object_05,682.90000000596,6,2,-1.0,0.0,2,object_01,5,0,0,1,2,library_1,1,memory-2step-stake-s,498,996588,0.0-19.0-0.0-0.3,A2FCQ5K0T1PYHS,3X4Q1O9UCK2WXV8VOBT8MFKQE0B7O9,37UEWGM5HXOO55J3HPY54KU5GF0R1B,5,6
4,4,object_02,object_07,542.69999998808,8,1,-1.0,0.0,2,object_01,1,0,0,5,1,restaurant_1,1,memory-2step-stake-s,499,1005104,0.0-19.0-0.0-0.4,A2FCQ5K0T1PYHS,3X4Q1O9UCK2WXV8VOBT8MFKQE0B7O9,37UEWGM5HXOO55J3HPY54KU5GF0R1B,8,7
5,3,object_09,object_05,693.80000001192,6,2,-1.0,0.0,2,object_01,1,0,0,7,1,library_1,1,memory-2step-stake-s,500,1013649,0.0-19.0-0.0-0.5,A2FCQ5K0T1PYHS,3X4Q1O9UCK2WXV8VOBT8MFKQE0B7O9,37UEWGM5HXOO55J3HPY54KU5GF0R1B,5,6
6,3,object_09,object_05,930.59999999404,5,1,-1.0,0.0,1,object_08,5,0,0,6,1,library_1,1,memory-2step-stake-s,501,1022165,0.0-19.0-0.0-0.6,A2FCQ5K0T1PYHS,3X4Q1O9UCK2WXV8VOBT8MFKQE0B7O9,37UEWGM5HXOO55J3HPY54KU5GF0R1B,5,6
7,2,object_10,object_04,1017.1999999881,3,2,-1.0,0.0,1,object_08,1,0,0,8,0,forest_4,1,memory-2step-stake-s,502,1030696,0.0-19.0-0.0-0.7,A2FCQ5K0T1PYHS,3X4Q1O9UCK2WXV8VOBT8MFKQE0B7O9,37UEWGM5HXOO55J3HPY54KU5GF0R1B,4,3
8,2,object_04,object_10,985.59999999404,3,1,-1.0,0.0,1,object_08,1,0,0,9,0,forest_2,1,memory-2step-stake-s,503,1039216,0.0-19.0-0.0-0.8,A2FCQ5K0T1PYHS,3X4Q1O9UCK2WXV8VOBT8MFKQE0B7O9,37UEWGM5HXOO55J3HPY54KU5GF0R1B,3,4
9,3,object_09,object_05,897.70000001788,6,2,-1.0,0.0,2,object_01,1,0,0,7,1,library_7,1,memory-2step-stake-s,504,1047736,0.0-19.0-0.0-0.9,A2FCQ5K0T1PYHS,3X4Q1O9UCK2WXV8VOBT8MFKQE0B7O9,37UEWGM5HXOO55J3HPY54KU5GF0R1B,5,6
10,3,object_09,object_05,797.5,5,1,-1.0,0.0,1,object_08,5,0,0,8,4,library_3,1,memory-2step-stake-s,505,1056261,0.0-19.0-0.0-0.10,A2FCQ5K0T1PYHS,3X4Q1O9UCK2WXV8VOBT8MFKQE0B7O9,37UEWGM5HXOO55J3HPY54KU5GF0R1B,5,6
11,4,object_02,object_07,643.40000000596,7,2,-1.0,0.0,1,object_08,1,0,0,9,3,restaurant_1,1,memory-2step-stake-s,506,1064778,0.0-19.0-0.0-0.11,A2FCQ5K0T1PYHS,3X4Q1O9UCK2WXV8VOBT8MFKQE0B7O9,37UEWGM5HXOO55J3HPY54KU5GF0R1B,8,7
12,4,object_02,object_07,423.0,8,1,464.29999998212,0.2222222222222222,2,object_01,5,10,0,7,2,restaurant_3,1,memory-2step-stake-s,507,1072677,0.0-19.0-0.0-0.12,A2FCQ5K0T1PYHS,3X4Q1O9UCK2WXV8VOBT8MFKQE0B7O9,37UEWGM5HXOO55J3HPY54KU5GF0R1B,8,7
13,4,object_02,object_07,565.70000001788,7,2,405.59999999404,0.3333333333333333,1,object_08,5,25,0,3,3,restaurant_7,1,memory-2step-stake-s,508,1080609,0.0-19.0-0.0-0.13,A2FCQ5K0T1PYHS,3X4Q1O9UCK2WXV8VOBT8MFKQE0B7O9,37UEWGM5HXOO55J3HPY54KU5GF0R1B,8,7
14,1,object_06,object_03,308.10000002384,1,1,543.59999999404,0.3333333333333333,1,object_08,1,28,0,3,5,desert_2,1,memory-2step-stake-s,509,1088681,0.0-19.0-0.0-0.14,A2FCQ5K0T1PYHS,3X4Q1O9UCK2WXV8VOBT8MFKQE0B7O9,37UEWGM5HXOO55J3HPY54KU5GF0R1B,1,2
15,1,object_03,object_06,516.89999997616,1,2,537.79999998212,0.5555555555555556,1,object_08,1,33,0,5,4,desert_3,1,memory-2step-stake-s,510,1096967,0.0-19.0-0.0-0.15,A2FCQ5K0T1PYHS,3X4Q1O9UCK2WXV8VOBT8MFKQE0B7O9,37UEWGM5HXOO55J3HPY54KU5GF0R1B,2,1
16,2,object_10,object_04,579.70000001788,3,2,409.20000001788,0.4444444444444444,1,object_08,1,37,0,4,3,forest_2,1,memory-2step-stake-s,511,1105009,0.0-19.0-0.0-0.16,A2FCQ5K0T1PYHS,3X4Q1O9UCK2WXV8VOBT8MFKQE0B7O9,37UEWGM5HXOO55J3HPY54KU5GF0R1B,4,3
17,3,object_05,object_09,477.69999998808,6,1,484.29999998212,0.7777777777777778,2,object_01,5,72,0,1,7,library_3,1,memory-2step-stake-s,512,1113424,0.0-19.0-0.0-0.17,A2FCQ5K0T1PYHS,3X4Q1O9UCK2WXV8VOBT8MFKQE0B7O9,37UEWGM5HXOO55J3HPY54KU5GF0R1B,6,5
18,3,object_09,object_05,571.30000001192,6,2,546.90000000596,0.6666666666666666,2,object_01,1,78,0,2,6,library_3,1,memory-2step-stake-s,513,1121795,0.0-19.0-0.0-0.18,A2FCQ5K0T1PYHS,3X4Q1O9UCK2WXV8VOBT8MFKQE0B7O9,37UEWGM5HXOO55J3HPY54KU5GF0R1B,5,6
19,2,object_10,object_04,575.30000001192,4,1,503.0,0.7777777777777778,2,object_01,1,85,0,6,7,forest_7,1,memory-2step-stake-s,514,1130234,0.0-19.0-0.0-0.19,A2FCQ5K0T1PYHS,3X4Q1O9UCK2WXV8VOBT8MFKQE0B7O9,37UEWGM5HXOO55J3HPY54KU5GF0R1B,4,3
20,4,object_07,object_02,759.5,7,1,459.79999998212,0.2222222222222222,1,object_08,5,95,0,2,8,restaurant_4,1,memory-2step-stake-s,515,1138114,0.0-19.0-0.0-0.20,A2FCQ5K0T1PYHS,3X4Q1O9UCK2WXV8VOBT8MFKQE0B7O9,37UEWGM5HXOO55J3HPY54KU5GF0R1B,7,8
21,4,object_02,object_07,362.5,8,1,868.5,0.8888888888888888,2,object_01,5,135,0,3,8,restaurant_1,1,memory-2step-stake-s,516,1147018,0.0-19.0-0.0-0.21,A2FCQ5K0T1PYHS,3X4Q1O9UCK2WXV8VOBT8MFKQE0B7O9,37UEWGM5HXOO55J3HPY54KU5GF0R1B,8,7
22,2,object_10,object_04,1304.2000000179,3,2,536.19999998808,0.6666666666666666,1,object_08,1,141,0,6,8,forest_2,1,memory-2step-stake-s,517,1155377,0.0-19.0-0.0-0.22,A2FCQ5K0T1PYHS,3X4Q1O9UCK2WXV8VOBT8MFKQE0B7O9,37UEWGM5HXOO55J3HPY54KU5GF0R1B,4,3
23,3,object_05,object_09,631.59999999404,6,1,372.20000001788,1.0,2,object_01,5,186,0,8,9,library_7,1,memory-2step-stake-s,518,1163887,0.0-19.0-0.0-0.23,A2FCQ5K0T1PYHS,3X4Q1O9UCK2WXV8VOBT8MFKQE0B7O9,37UEWGM5HXOO55J3HPY54KU5GF0R1B,6,5
24,3,object_05,object_09,639.30000001192,5,2,410.79999998212,0.6666666666666666,1,object_08,5,216,0,6,6,library_3,1,memory-2step-stake-s,519,1172125,0.0-19.0-0.0-0.24,A2FCQ5K0T1PYHS,3X4Q1O9UCK2WXV8VOBT8MFKQE0B7O9,37UEWGM5HXOO55J3HPY54KU5GF0R1B,6,5
25,1,object_03,object_06,392.59999999404,2,1,387.89999997616,0.5555555555555556,2,object_01,1,221,0,2,5,desert_2,1,memory-2step-stake-s,520,1180239,0.0-19.0-0.0-0.25,A2FCQ5K0T1PYHS,3X4Q1O9UCK2WXV8VOBT8MFKQE0B7O9,37UEWGM5HXOO55J3HPY54KU5GF0R1B,2,1
26,1,object_03,object_06,553.09999999404,1,2,779.69999998808,0.4444444444444444,1,object_08,5,241,0,4,7,desert_2,1,memory-2step-stake-s,521,1188659,0.0-19.0-0.0-0.26,A2FCQ5K0T1PYHS,3X4Q1O9UCK2WXV8VOBT8MFKQE0B7O9,37UEWGM5HXOO55J3HPY54KU5GF0R1B,2,1
27,1,object_03,object_06,530.09999999404,2,1,410.69999998808,0.6666666666666666,2,object_01,1,247,0,5,6,desert_2,1,memory-2step-stake-s,522,1196917,0.0-19.0-0.0-0.27,A2FCQ5K0T1PYHS,3X4Q1O9UCK2WXV8VOBT8MFKQE0B7O9,37UEWGM5HXOO55J3HPY54KU5GF0R1B,2,1
28,1,object_06,object_03,640.69999998808,2,2,384.80000001192,0.7777777777777778,2,object_01,1,254,0,5,7,desert_5,1,memory-2step-stake-s,523,1205232,0.0-19.0-0.0-0.28,A2FCQ5K0T1PYHS,3X4Q1O9UCK2WXV8VOBT8MFKQE0B7O9,37UEWGM5HXOO55J3HPY54KU5GF0R1B,1,2
29,2,object_04,object_10,440.60000002384,3,1,314.59999999404,0.3333333333333333,1,object_08,1,257,0,3,5,forest_7,1,memory-2step-stake-s,524,1213068,0.0-19.0-0.0-0.29,A2FCQ5K0T1PYHS,3X4Q1O9UCK2WXV8VOBT8MFKQE0B7O9,37UEWGM5HXOO55J3HPY54KU5GF0R1B,3,4
30,4,object_07,object_02,648.5,8,2,376.20000001788,0.6666666666666666,2,object_01,1,263,0,4,6,restaurant_7,1,memory-2step-stake-s,525,1221278,0.0-19.0-0.0-0.30,A2FCQ5K0T1PYHS,3X4Q1O9UCK2WXV8VOBT8MFKQE0B7O9,37UEWGM5HXOO55J3HPY54KU5GF0R1B,7,8
31,2,object_04,object_10,1006.3000000119,4,2,286.0,0.7777777777777778,2,object_01,5,298,0,5,7,forest_4,1,memory-2step-stake-s,526,1229494,0.0-19.0-0.0-0.31,A2FCQ5K0T1PYHS,3X4Q1O9UCK2WXV8VOBT8MFKQE0B7O9,37UEWGM5HXOO55J3HPY54KU5GF0R1B,3,4
32,3,object_05,object_09,629.19999998808,6,1,433.79999998212,1.0,2,object_01,1,307,0,6,9,library_3,1,memory-2step-stake-s,527,1238060,0.0-19.0-0.0-0.32,A2FCQ5K0T1PYHS,3X4Q1O9UCK2WXV8VOBT8MFKQE0B7O9,37UEWGM5HXOO55J3HPY54KU5GF0R1B,6,5
33,3,object_09,object_05,779.0,6,2,508.09999999404,0.7777777777777778,2,object_01,5,342,0,2,7,library_3,1,memory-2step-stake-s,528,1246496,0.0-19.0-0.0-0.33,A2FCQ5K0T1PYHS,3X4Q1O9UCK2WXV8VOBT8MFKQE0B7O9,37UEWGM5HXOO55J3HPY54KU5GF0R1B,5,6
34,1,object_06,object_03,527.09999999404,1,1,463.59999999404,0.1111111111111111,1,object_08,1,343,0,1,7,desert_4,1,memory-2step-stake-s,529,1254274,0.0-19.0-0.0-0.34,A2FCQ5K0T1PYHS,3X4Q1O9UCK2WXV8VOBT8MFKQE0B7O9,37UEWGM5HXOO55J3HPY54KU5GF0R1B,1,2
35,4,object_02,object_07,842.40000000596,7,2,530.80000001192,0.0,1,object_08,5,343,0,0,6,restaurant_4,1,memory-2step-stake-s,530,1262020,0.0-19.0-0.0-0.35,A2FCQ5K0T1PYHS,3X4Q1O9UCK2WXV8VOBT8MFKQE0B7O9,37UEWGM5HXOO55J3HPY54KU5GF0R1B,8,7
36,2,object_04,object_10,379.79999998212,3,1,276.90000000596,0.0,1,object_08,1,343,0,0,1,forest_7,1,memory-2step-stake-s,531,1269516,0.0-19.0-0.0-0.36,A2FCQ5K0T1PYHS,3X4Q1O9UCK2WXV8VOBT8MFKQE0B7O9,37UEWGM5HXOO55J3HPY54KU5GF0R1B,3,4
37,3,object_09,object_05,798.09999999404,5,1,312.40000000596,0.2222222222222222,1,object_08,5,353,0,2,2,library_8,1,memory-2step-stake-s,532,1277243,0.0-19.0-0.0-0.37,A2FCQ5K0T1PYHS,3X4Q1O9UCK2WXV8VOBT8MFKQE0B7O9,37UEWGM5HXOO55J3HPY54KU5GF0R1B,5,6
38,4,object_07,object_02,457.89999997616,8,2,307.90000000596,0.2222222222222222,2,object_01,1,355,0,2,2,restaurant_1,1,memory-2step-stake-s,533,1284970,0.0-19.0-0.0-0.38,A2FCQ5K0T1PYHS,3X4Q1O9UCK2WXV8VOBT8MFKQE0B7O9,37UEWGM5HXOO55J3HPY54KU5GF0R1B,7,8
39,2,object_04,object_10,863.0,3,1,266.30000001192,0.1111111111111111,1,object_08,1,356,0,1,5,forest_4,1,memory-2step-stake-s,534,1292550,0.0-19.0-0.0-0.39,A2FCQ5K0T1PYHS,3X4Q1O9UCK2WXV8VOBT8MFKQE0B7O9,37UEWGM5HXOO55J3HPY54KU5GF0R1B,3,4
40,3,object_05,object_09,397.80000001192,5,2,376.19999998808,0.2222222222222222,1,object_08,5,366,0,2,6,library_8,1,memory-2step-stake-s,535,1300353,0.0-19.0-0.0-0.40,A2FCQ5K0T1PYHS,3X4Q1O9UCK2WXV8VOBT8MFKQE0B7O9,37UEWGM5HXOO55J3HPY54KU5GF0R1B,6,5
41,2,object_04,object_10,517.70000001788,4,2,329.5,0.5555555555555556,2,object_01,1,371,0,0,5,forest_7,1,memory-2step-stake-s,536,1308402,0.0-19.0-0.0-0.41,A2FCQ5K0T1PYHS,3X4Q1O9UCK2WXV8VOBT8MFKQE0B7O9,37UEWGM5HXOO55J3HPY54KU5GF0R1B,3,4
42,4,object_07,object_02,499.90000000596,7,1,405.29999998212,0.0,1,object_08,1,371,0,0,6,restaurant_1,1,memory-2step-stake-s,537,1316018,0.0-19.0-0.0-0.42,A2FCQ5K0T1PYHS,3X4Q1O9UCK2WXV8VOBT8MFKQE0B7O9,37UEWGM5HXOO55J3HPY54KU5GF0R1B,7,8
43,4,object_02,object_07,1268.0,7,2,594.39999997616,0.0,1,object_08,5,371,0,0,7,restaurant_3,1,memory-2step-stake-s,538,1323826,0.0-19.0-0.0-0.43,A2FCQ5K0T1PYHS,3X4Q1O9UCK2WXV8VOBT8MFKQE0B7O9,37UEWGM5HXOO55J3HPY54KU5GF0R1B,8,7
44,4,object_02,object_07,473.80000001192,8,1,307.59999999404,0.3333333333333333,2,object_01,5,386,0,1,3,restaurant_4,1,memory-2step-stake-s,539,1331650,0.0-19.0-0.0-0.44,A2FCQ5K0T1PYHS,3X4Q1O9UCK2WXV8VOBT8MFKQE0B7O9,37UEWGM5HXOO55J3HPY54KU5GF0R1B,8,7
45,2,object_10,object_04,569.5,4,1,305.40000000596,0.4444444444444444,2,object_01,1,390,0,2,4,forest_2,1,memory-2step-stake-s,540,1339575,0.0-19.0-0.0-0.45,A2FCQ5K0T1PYHS,3X4Q1O9UCK2WXV8VOBT8MFKQE0B7O9,37UEWGM5HXOO55J3HPY54KU5GF0R1B,4,3
46,1,object_03,object_06,920.09999999404,2,1,441.0,0.3333333333333333,2,object_01,1,393,0,2,3,desert_4,1,memory-2step-stake-s,541,1347541,0.0-19.0-0.0-0.46,A2FCQ5K0T1PYHS,3X4Q1O9UCK2WXV8VOBT8MFKQE0B7O9,37UEWGM5HXOO55J3HPY54KU5GF0R1B,2,1
47,1,object_06,object_03,839.30000001192,2,2,334.40000000596,0.1111111111111111,2,object_01,5,398,0,2,1,desert_5,1,memory-2step-stake-s,542,1355222,0.0-19.0-0.0-0.47,A2FCQ5K0T1PYHS,3X4Q1O9UCK2WXV8VOBT8MFKQE0B7O9,37UEWGM5HXOO55J3HPY54KU5GF0R1B,1,2
48,4,object_07,object_02,473.30000001192,8,2,347.79999998212,0.3333333333333333,2,object_01,5,413,0,2,3,restaurant_3,1,memory-2step-stake-s,543,1363092,0.0-19.0-0.0-0.48,A2FCQ5K0T1PYHS,3X4Q1O9UCK2WXV8VOBT8MFKQE0B7O9,37UEWGM5HXOO55J3HPY54KU5GF0R1B,7,8
49,4,object_07,object_02,577.69999998808,7,1,310.5,0.2222222222222222,1,object_08,5,423,0,2,0,restaurant_7,1,memory-2step-stake-s,544,1370820,0.0-19.0-0.0-0.49,A2FCQ5K0T1PYHS,3X4Q1O9UCK2WXV8VOBT8MFKQE0B7O9,37UEWGM5HXOO55J3HPY54KU5GF0R1B,7,8
50,4,object_07,object_02,463.70000001788,8,2,357.19999998808,0.4444444444444444,2,object_01,5,443,0,2,4,restaurant_1,1,memory-2step-stake-s,545,1378796,0.0-19.0-0.0-0.50,A2FCQ5K0T1PYHS,3X4Q1O9UCK2WXV8VOBT8MFKQE0B7O9,37UEWGM5HXOO55J3HPY54KU5GF0R1B,7,8
51,3,object_09,object_05,983.79999998212,5,1,540.90000000596,0.0,1,object_08,5,443,0,0,5,library_3,1,memory-2step-stake-s,546,1386551,0.0-19.0-0.0-0.51,A2FCQ5K0T1PYHS,3X4Q1O9UCK2WXV8VOBT8MFKQE0B7O9,37UEWGM5HXOO55J3HPY54KU5GF0R1B,5,6
52,4,object_02,object_07,577.69999998808,7,2,309.70000001788,0.0,1,object_08,5,443,0,0,8,restaurant_4,1,memory-2step-stake-s,547,1394076,0.0-19.0-0.0-0.52,A2FCQ5K0T1PYHS,3X4Q1O9UCK2WXV8VOBT8MFKQE0B7O9,37UEWGM5HXOO55J3HPY54KU5GF0R1B,8,7
53,3,object_09,object_05,983.89999997616,6,2,370.5,1.0,2,object_01,5,488,0,5,9,library_8,1,memory-2step-stake-s,548,1402575,0.0-19.0-0.0-0.53,A2FCQ5K0T1PYHS,3X4Q1O9UCK2WXV8VOBT8MFKQE0B7O9,37UEWGM5HXOO55J3HPY54KU5GF0R1B,5,6
54,4,object_07,object_02,432.70000001788,8,2,445.19999998808,0.7777777777777778,2,object_01,5,523,0,8,7,restaurant_1,1,memory-2step-stake-s,549,1410944,0.0-19.0-0.0-0.54,A2FCQ5K0T1PYHS,3X4Q1O9UCK2WXV8VOBT8MFKQE0B7O9,37UEWGM5HXOO55J3HPY54KU5GF0R1B,7,8
55,4,object_02,object_07,442.79999998212,8,1,323.90000000596,0.8888888888888888,2,object_01,5,563,0,7,8,restaurant_3,1,memory-2step-stake-s,550,1419293,0.0-19.0-0.0-0.55,A2FCQ5K0T1PYHS,3X4Q1O9UCK2WXV8VOBT8MFKQE0B7O9,37UEWGM5HXOO55J3HPY54KU5GF0R1B,8,7
56,2,object_04,object_10,873.59999999404,4,2,292.09999999404,0.8888888888888888,2,object_01,1,571,0,8,8,forest_4,1,memory-2step-stake-s,551,1427627,0.0-19.0-0.0-0.56,A2FCQ5K0T1PYHS,3X4Q1O9UCK2WXV8VOBT8MFKQE0B7O9,37UEWGM5HXOO55J3HPY54KU5GF0R1B,3,4
57,4,object_02,object_07,1081.2999999821,8,1,310.19999998808,0.6666666666666666,2,object_01,5,601,0,7,6,restaurant_4,1,memory-2step-stake-s,552,1435762,0.0-19.0-0.0-0.57,A2FCQ5K0T1PYHS,3X4Q1O9UCK2WXV8VOBT8MFKQE0B7O9,37UEWGM5HXOO55J3HPY54KU5GF0R1B,8,7
58,3,object_09,object_05,979.09999999404,6,2,536.79999998212,0.5555555555555556,2,object_01,5,626,0,8,5,library_3,1,memory-2step-stake-s,553,1444020,0.0-19.0-0.0-0.58,A2FCQ5K0T1PYHS,3X4Q1O9UCK2WXV8VOBT8MFKQE0B7O9,37UEWGM5HXOO55J3HPY54KU5GF0R1B,5,6
59,3,object_09,object_05,1013.1999999881,5,1,548.69999998808,1.0,1,object_08,5,671,0,9,5,library_7,1,memory-2step-stake-s,554,1452695,0.0-19.0-0.0-0.59,A2FCQ5K0T1PYHS,3X4Q1O9UCK2WXV8VOBT8MFKQE0B7O9,37UEWGM5HXOO55J3HPY54KU5GF0R1B,5,6
60,2,object_10,object_04,440.30000001192,3,2,287.09999999404,0.8888888888888888,1,object_08,1,679,0,8,3,forest_2,1,memory-2step-stake-s,555,1461004,0.0-19.0-0.0-0.60,A2FCQ5K0T1PYHS,3X4Q1O9UCK2WXV8VOBT8MFKQE0B7O9,37UEWGM5HXOO55J3HPY54KU5GF0R1B,4,3
61,1,object_06,object_03,563.60000002384,1,1,299.89999997616,0.6666666666666666,1,object_08,1,685,0,6,4,desert_3,1,memory-2step-stake-s,556,1469124,0.0-19.0-0.0-0.61,A2FCQ5K0T1PYHS,3X4Q1O9UCK2WXV8VOBT8MFKQE0B7O9,37UEWGM5HXOO55J3HPY54KU5GF0R1B,1,2
62,4,object_02,object_07,466.30000001192,8,1,358.0,0.4444444444444444,2,object_01,5,705,0,6,4,restaurant_1,1,memory-2step-stake-s,557,1477102,0.0-19.0-0.0-0.62,A2FCQ5K0T1PYHS,3X4Q1O9UCK2WXV8VOBT8MFKQE0B7O9,37UEWGM5HXOO55J3HPY54KU5GF0R1B,8,7
63,1,object_03,object_06,885.90000000596,1,2,406.29999998212,0.5555555555555556,1,object_08,5,730,0,5,6,desert_5,1,memory-2step-stake-s,558,1485228,0.0-19.0-0.0-0.63,A2FCQ5K0T1PYHS,3X4Q1O9UCK2WXV8VOBT8MFKQE0B7O9,37UEWGM5HXOO55J3HPY54KU5GF0R1B,2,1
64,2,object_04,object_10,550.0,3,1,424.09999999404,0.4444444444444444,1,object_08,1,734,0,4,7,forest_7,1,memory-2step-stake-s,559,1493272,0.0-19.0-0.0-0.64,A2FCQ5K0T1PYHS,3X4Q1O9UCK2WXV8VOBT8MFKQE0B7O9,37UEWGM5HXOO55J3HPY54KU5GF0R1B,3,4
65,3,object_09,object_05,532.5,5,1,411.39999997616,0.2222222222222222,1,object_08,5,744,0,2,7,library_8,1,memory-2step-stake-s,560,1501103,0.0-19.0-0.0-0.65,A2FCQ5K0T1PYHS,3X4Q1O9UCK2WXV8VOBT8MFKQE0B7O9,37UEWGM5HXOO55J3HPY54KU5GF0R1B,5,6
66,2,object_10,object_04,772.80000001192,3,2,303.5,0.0,1,object_08,1,744,0,0,6,forest_2,1,memory-2step-stake-s,561,1508628,0.0-19.0-0.0-0.66,A2FCQ5K0T1PYHS,3X4Q1O9UCK2WXV8VOBT8MFKQE0B7O9,37UEWGM5HXOO55J3HPY54KU5GF0R1B,4,3
67,1,object_06,object_03,606.20000001788,1,1,464.29999998212,0.3333333333333333,1,object_08,1,747,0,3,5,desert_3,1,memory-2step-stake-s,562,1516626,0.0-19.0-0.0-0.67,A2FCQ5K0T1PYHS,3X4Q1O9UCK2WXV8VOBT8MFKQE0B7O9,37UEWGM5HXOO55J3HPY54KU5GF0R1B,1,2
68,3,object_05,object_09,733.5,6,1,700.40000000596,0.6666666666666666,2,object_01,5,777,0,2,6,library_7,1,memory-2step-stake-s,563,1525149,0.0-19.0-0.0-0.68,A2FCQ5K0T1PYHS,3X4Q1O9UCK2WXV8VOBT8MFKQE0B7O9,37UEWGM5HXOO55J3HPY54KU5GF0R1B,6,5
69,1,object_03,object_06,513.30000001192,1,2,566.0,0.4444444444444444,1,object_08,1,781,0,4,4,desert_4,1,memory-2step-stake-s,564,1533339,0.0-19.0-0.0-0.69,A2FCQ5K0T1PYHS,3X4Q1O9UCK2WXV8VOBT8MFKQE0B7O9,37UEWGM5HXOO55J3HPY54KU5GF0R1B,2,1
70,1,object_06,object_03,585.0,1,1,283.0,0.3333333333333333,1,object_08,1,784,0,3,6,desert_3,1,memory-2step-stake-s,565,1541143,0.0-19.0-0.0-0.70,A2FCQ5K0T1PYHS,3X4Q1O9UCK2WXV8VOBT8MFKQE0B7O9,37UEWGM5HXOO55J3HPY54KU5GF0R1B,1,2
71,3,object_09,object_05,572.09999999404,6,2,425.5,0.5555555555555556,2,object_01,5,809,0,4,5,library_3,1,memory-2step-stake-s,566,1549307,0.0-19.0-0.0-0.71,A2FCQ5K0T1PYHS,3X4Q1O9UCK2WXV8VOBT8MFKQE0B7O9,37UEWGM5HXOO55J3HPY54KU5GF0R1B,5,6
72,4,object_02,object_07,492.90000000596,8,1,314.0,0.7777777777777778,2,object_01,5,844,0,5,7,restaurant_7,1,memory-2step-stake-s,567,1557547,0.0-19.0-0.0-0.72,A2FCQ5K0T1PYHS,3X4Q1O9UCK2WXV8VOBT8MFKQE0B7O9,37UEWGM5HXOO55J3HPY54KU5GF0R1B,8,7
73,2,object_04,object_10,690.70000001788,3,1,382.80000001192,0.5555555555555556,1,object_08,5,869,0,5,4,forest_2,1,memory-2step-stake-s,568,1565656,0.0-19.0-0.0-0.73,A2FCQ5K0T1PYHS,3X4Q1O9UCK2WXV8VOBT8MFKQE0B7O9,37UEWGM5HXOO55J3HPY54KU5GF0R1B,3,4
74,3,object_05,object_09,751.5,5,2,307.09999999404,0.5555555555555556,1,object_08,1,874,0,5,9,library_3,1,memory-2step-stake-s,569,1573693,0.0-19.0-0.0-0.74,A2FCQ5K0T1PYHS,3X4Q1O9UCK2WXV8VOBT8MFKQE0B7O9,37UEWGM5HXOO55J3HPY54KU5GF0R1B,6,5
75,2,object_10,object_04,417.09999999404,3,2,458.79999998212,0.4444444444444444,1,object_08,1,878,0,4,8,forest_2,1,memory-2step-stake-s,570,1581779,0.0-19.0-0.0-0.75,A2FCQ5K0T1PYHS,3X4Q1O9UCK2WXV8VOBT8MFKQE0B7O9,37UEWGM5HXOO55J3HPY54KU5GF0R1B,4,3
76,4,object_07,object_02,428.10000002384,8,2,555.70000001788,0.7777777777777778,2,object_01,5,913,0,4,7,restaurant_1,1,memory-2step-stake-s,571,1590257,0.0-19.0-0.0-0.76,A2FCQ5K0T1PYHS,3X4Q1O9UCK2WXV8VOBT8MFKQE0B7O9,37UEWGM5HXOO55J3HPY54KU5GF0R1B,7,8
77,1,object_03,object_06,848.59999999404,2,1,243.40000000596,1.0,2,object_01,5,958,0,4,9,desert_3,1,memory-2step-stake-s,572,1598635,0.0-19.0-0.0-0.77,A2FCQ5K0T1PYHS,3X4Q1O9UCK2WXV8VOBT8MFKQE0B7O9,37UEWGM5HXOO55J3HPY54KU5GF0R1B,2,1
78,3,object_05,object_09,549.40000000596,5,2,274.79999998212,0.5555555555555556,1,object_08,1,963,0,5,9,library_1,1,memory-2step-stake-s,573,1606638,0.0-19.0-0.0-0.78,A2FCQ5K0T1PYHS,3X4Q1O9UCK2WXV8VOBT8MFKQE0B7O9,37UEWGM5HXOO55J3HPY54KU5GF0R1B,6,5
79,1,object_06,object_03,609.5,1,1,347.30000001192,0.4444444444444444,1,object_08,5,983,0,4,2,desert_4,1,memory-2step-stake-s,574,1614608,0.0-19.0-0.0-0.79,A2FCQ5K0T1PYHS,3X4Q1O9UCK2WXV8VOBT8MFKQE0B7O9,37UEWGM5HXOO55J3HPY54KU5GF0R1B,1,2
80,1,object_06,object_03,680.09999999404,2,2,259.40000000596,0.5555555555555556,2,object_01,1,988,0,7,5,desert_3,1,memory-2step-stake-s,575,1622607,0.0-19.0-0.0-0.80,A2FCQ5K0T1PYHS,3X4Q1O9UCK2WXV8VOBT8MFKQE0B7O9,37UEWGM5HXOO55J3HPY54KU5GF0R1B,1,2
81,1,object_03,object_06,447.40000000596,2,1,381.0,0.6666666666666666,2,object_01,1,994,0,5,6,desert_5,1,memory-2step-stake-s,576,1630820,0.0-19.0-0.0-0.81,A2FCQ5K0T1PYHS,3X4Q1O9UCK2WXV8VOBT8MFKQE0B7O9,37UEWGM5HXOO55J3HPY54KU5GF0R1B,2,1
82,2,object_10,object_04,1065.3000000119,3,2,436.30000001192,0.2222222222222222,1,object_08,5,1004,0,2,5,forest_2,1,memory-2step-stake-s,577,1638673,0.0-19.0-0.0-0.82,A2FCQ5K0T1PYHS,3X4Q1O9UCK2WXV8VOBT8MFKQE0B7O9,37UEWGM5HXOO55J3HPY54KU5GF0R1B,4,3
83,4,object_02,object_07,423.70000001788,8,1,332.20000001788,0.6666666666666666,2,object_01,5,1034,0,1,6,restaurant_7,1,memory-2step-stake-s,578,1646841,0.0-19.0-0.0-0.83,A2FCQ5K0T1PYHS,3X4Q1O9UCK2WXV8VOBT8MFKQE0B7O9,37UEWGM5HXOO55J3HPY54KU5GF0R1B,8,7
84,2,object_10,object_04,559.5,3,2,388.30000001192,0.1111111111111111,1,object_08,1,1035,0,1,8,forest_7,1,memory-2step-stake-s,579,1654550,0.0-19.0-0.0-0.84,A2FCQ5K0T1PYHS,3X4Q1O9UCK2WXV8VOBT8MFKQE0B7O9,37UEWGM5HXOO55J3HPY54KU5GF0R1B,4,3
85,1,object_03,object_06,489.69999998808,2,1,367.59999999404,1.0,2,object_01,1,1044,0,0,9,desert_2,1,memory-2step-stake-s,580,1663060,0.0-19.0-0.0-0.85,A2FCQ5K0T1PYHS,3X4Q1O9UCK2WXV8VOBT8MFKQE0B7O9,37UEWGM5HXOO55J3HPY54KU5GF0R1B,2,1
86,2,object_10,object_04,370.0,3,2,346.40000000596,0.1111111111111111,1,object_08,1,1045,0,1,7,forest_2,1,memory-2step-stake-s,581,1670726,0.0-19.0-0.0-0.86,A2FCQ5K0T1PYHS,3X4Q1O9UCK2WXV8VOBT8MFKQE0B7O9,37UEWGM5HXOO55J3HPY54KU5GF0R1B,4,3
87,3,object_09,object_05,643.40000000596,5,1,450.0,0.1111111111111111,1,object_08,5,1050,0,1,7,library_8,1,memory-2step-stake-s,582,1678498,0.0-19.0-0.0-0.87,A2FCQ5K0T1PYHS,3X4Q1O9UCK2WXV8VOBT8MFKQE0B7O9,37UEWGM5HXOO55J3HPY54KU5GF0R1B,5,6
88,4,object_02,object_07,428.39999997616,8,1,308.19999998808,0.5555555555555556,2,object_01,5,1075,0,1,5,restaurant_4,1,memory-2step-stake-s,583,1686529,0.0-19.0-0.0-0.88,A2FCQ5K0T1PYHS,3X4Q1O9UCK2WXV8VOBT8MFKQE0B7O9,37UEWGM5HXOO55J3HPY54KU5GF0R1B,8,7
89,1,object_06,object_03,762.69999998808,2,2,278.70000001788,0.7777777777777778,2,object_01,5,1110,0,0,7,desert_2,1,memory-2step-stake-s,584,1694737,0.0-19.0-0.0-0.89,A2FCQ5K0T1PYHS,3X4Q1O9UCK2WXV8VOBT8MFKQE0B7O9,37UEWGM5HXOO55J3HPY54KU5GF0R1B,1,2
90,2,object_04,object_10,532.90000000596,3,1,406.09999999404,0.3333333333333333,1,object_08,1,1113,0,3,6,forest_7,1,memory-2step-stake-s,585,1702670,0.0-19.0-0.0-0.90,A2FCQ5K0T1PYHS,3X4Q1O9UCK2WXV8VOBT8MFKQE0B7O9,37UEWGM5HXOO55J3HPY54KU5GF0R1B,3,4
91,2,object_10,object_04,680.90000000596,3,2,274.40000000596,0.3333333333333333,1,object_08,1,1116,0,3,4,forest_4,1,memory-2step-stake-s,586,1710463,0.0-19.0-0.0-0.91,A2FCQ5K0T1PYHS,3X4Q1O9UCK2WXV8VOBT8MFKQE0B7O9,37UEWGM5HXOO55J3HPY54KU5GF0R1B,4,3
92,2,object_04,object_10,1035.8999999762,3,1,331.90000000596,0.1111111111111111,1,object_08,5,1121,0,1,3,forest_4,1,memory-2step-stake-s,587,1718113,0.0-19.0-0.0-0.92,A2FCQ5K0T1PYHS,3X4Q1O9UCK2WXV8VOBT8MFKQE0B7O9,37UEWGM5HXOO55J3HPY54KU5GF0R1B,3,4
93,1,object_03,object_06,1116.0,2,1,276.0,0.1111111111111111,2,object_01,5,1126,0,1,1,desert_2,1,memory-2step-stake-s,588,1725707,0.0-19.0-0.0-0.93,A2FCQ5K0T1PYHS,3X4Q1O9UCK2WXV8VOBT8MFKQE0B7O9,37UEWGM5HXOO55J3HPY54KU5GF0R1B,2,1
94,2,object_10,object_04,-1.0,-1,-1,-1.0,0.0,-,0,1,1126,0,5,0,forest_1,1,memory-2step-stake-s,589,1732219,0.0-19.0-0.0-0.94,A2FCQ5K0T1PYHS,3X4Q1O9UCK2WXV8VOBT8MFKQE0B7O9,37UEWGM5HXOO55J3HPY54KU5GF0R1B,4,3
95,3,object_05,object_09,769.10000002384,6,1,376.0,0.1111111111111111,2,object_01,5,1131,0,7,1,library_8,1,memory-2step-stake-s,590,1739919,0.0-19.0-0.0-0.95,A2FCQ5K0T1PYHS,3X4Q1O9UCK2WXV8VOBT8MFKQE0B7O9,37UEWGM5HXOO55J3HPY54KU5GF0R1B,6,5
96,4,object_07,object_02,469.09999999404,8,2,323.40000000596,0.1111111111111111,2,object_01,5,1136,0,9,1,restaurant_7,1,memory-2step-stake-s,591,1747568,0.0-19.0-0.0-0.96,A2FCQ5K0T1PYHS,3X4Q1O9UCK2WXV8VOBT8MFKQE0B7O9,37UEWGM5HXOO55J3HPY54KU5GF0R1B,7,8
97,4,object_02,object_07,619.5,7,2,260.0,0.8888888888888888,1,object_08,5,1176,0,8,3,restaurant_7,1,memory-2step-stake-s,592,1755858,0.0-19.0-0.0-0.97,A2FCQ5K0T1PYHS,3X4Q1O9UCK2WXV8VOBT8MFKQE0B7O9,37UEWGM5HXOO55J3HPY54KU5GF0R1B,8,7
98,1,object_06,object_03,636.5,1,1,267.19999998808,0.7777777777777778,1,object_08,1,1183,0,7,2,desert_4,1,memory-2step-stake-s,593,1764052,0.0-19.0-0.0-0.98,A2FCQ5K0T1PYHS,3X4Q1O9UCK2WXV8VOBT8MFKQE0B7O9,37UEWGM5HXOO55J3HPY54KU5GF0R1B,1,2
99,4,object_02,object_07,523.89999997616,7,2,314.29999998212,0.8888888888888888,1,object_08,5,1223,0,8,4,restaurant_3,1,memory-2step-stake-s,594,1772393,0.0-19.0-0.0-0.99,A2FCQ5K0T1PYHS,3X4Q1O9UCK2WXV8VOBT8MFKQE0B7O9,37UEWGM5HXOO55J3HPY54KU5GF0R1B,8,7
100,4,object_07,object_02,396.09999999404,7,1,438.0,0.3333333333333333,1,object_08,5,1238,0,3,3,restaurant_3,1,memory-2step-stake-s,595,1780348,0.0-19.0-0.0-0.100,A2FCQ5K0T1PYHS,3X4Q1O9UCK2WXV8VOBT8MFKQE0B7O9,37UEWGM5HXOO55J3HPY54KU5GF0R1B,7,8
101,2,object_04,object_10,673.19999998808,4,2,311.29999998212,0.1111111111111111,2,object_01,1,1239,0,5,1,forest_4,1,memory-2step-stake-s,596,1787975,0.0-19.0-0.0-0.101,A2FCQ5K0T1PYHS,3X4Q1O9UCK2WXV8VOBT8MFKQE0B7O9,37UEWGM5HXOO55J3HPY54KU5GF0R1B,3,4
102,3,object_09,object_05,663.59999999404,5,1,336.0,0.7777777777777778,1,object_08,1,1246,0,7,1,library_1,1,memory-2step-stake-s,597,1796242,0.0-19.0-0.0-0.102,A2FCQ5K0T1PYHS,3X4Q1O9UCK2WXV8VOBT8MFKQE0B7O9,37UEWGM5HXOO55J3HPY54KU5GF0R1B,5,6
103,2,object_04,object_10,832.0,3,1,545.79999998212,0.7777777777777778,1,object_08,1,1253,0,7,2,forest_2,1,memory-2step-stake-s,598,1804716,0.0-19.0-0.0-0.103,A2FCQ5K0T1PYHS,3X4Q1O9UCK2WXV8VOBT8MFKQE0B7O9,37UEWGM5HXOO55J3HPY54KU5GF0R1B,3,4
104,1,object_03,object_06,911.40000000596,1,2,240.90000000596,0.5555555555555556,1,object_08,1,1258,0,5,2,desert_3,1,memory-2step-stake-s,599,1812680,0.0-19.0-0.0-0.104,A2FCQ5K0T1PYHS,3X4Q1O9UCK2WXV8VOBT8MFKQE0B7O9,37UEWGM5HXOO55J3HPY54KU5GF0R1B,2,1
105,1,object_03,object_06,534.79999998212,2,1,308.59999999404,0.3333333333333333,2,object_01,1,1261,0,4,3,desert_3,1,memory-2step-stake-s,600,1820520,0.0-19.0-0.0-0.105,A2FCQ5K0T1PYHS,3X4Q1O9UCK2WXV8VOBT8MFKQE0B7O9,37UEWGM5HXOO55J3HPY54KU5GF0R1B,2,1
106,4,object_02,object_07,458.80000001192,7,2,380.90000000596,0.4444444444444444,1,object_08,5,1281,0,4,3,restaurant_4,1,memory-2step-stake-s,601,1828527,0.0-19.0-0.0-0.106,A2FCQ5K0T1PYHS,3X4Q1O9UCK2WXV8VOBT8MFKQE0B7O9,37UEWGM5HXOO55J3HPY54KU5GF0R1B,8,7
107,4,object_02,object_07,602.40000000596,8,1,290.30000001192,0.3333333333333333,2,object_01,5,1296,0,4,3,restaurant_4,1,memory-2step-stake-s,602,1836338,0.0-19.0-0.0-0.107,A2FCQ5K0T1PYHS,3X4Q1O9UCK2WXV8VOBT8MFKQE0B7O9,37UEWGM5HXOO55J3HPY54KU5GF0R1B,8,7
108,2,object_04,object_10,786.80000001192,4,2,318.59999999404,0.5555555555555556,2,object_01,5,1321,0,7,5,forest_4,1,memory-2step-stake-s,603,1844394,0.0-19.0-0.0-0.108,A2FCQ5K0T1PYHS,3X4Q1O9UCK2WXV8VOBT8MFKQE0B7O9,37UEWGM5HXOO55J3HPY54KU5GF0R1B,3,4
109,3,object_05,object_09,555.59999999404,6,1,393.70000001788,0.4444444444444444,2,object_01,1,1325,0,4,4,library_1,1,memory-2step-stake-s,604,1852413,0.0-19.0-0.0-0.109,A2FCQ5K0T1PYHS,3X4Q1O9UCK2WXV8VOBT8MFKQE0B7O9,37UEWGM5HXOO55J3HPY54KU5GF0R1B,6,5
110,2,object_10,object_04,252.59999999404,3,2,284.20000001788,0.3333333333333333,1,object_08,1,1328,0,3,6,forest_2,1,memory-2step-stake-s,605,1860220,0.0-19.0-0.0-0.110,A2FCQ5K0T1PYHS,3X4Q1O9UCK2WXV8VOBT8MFKQE0B7O9,37UEWGM5HXOO55J3HPY54KU5GF0R1B,4,3
111,2,object_10,object_04,556.70000001788,4,1,254.80000001192,0.6666666666666666,2,object_01,1,1334,0,2,6,forest_1,1,memory-2step-stake-s,606,1868295,0.0-19.0-0.0-0.111,A2FCQ5K0T1PYHS,3X4Q1O9UCK2WXV8VOBT8MFKQE0B7O9,37UEWGM5HXOO55J3HPY54KU5GF0R1B,4,3
112,1,object_03,object_06,572.0,1,2,235.29999998212,0.1111111111111111,1,object_08,5,1339,0,1,4,desert_4,1,memory-2step-stake-s,607,1875846,0.0-19.0-0.0-0.112,A2FCQ5K0T1PYHS,3X4Q1O9UCK2WXV8VOBT8MFKQE0B7O9,37UEWGM5HXOO55J3HPY54KU5GF0R1B,2,1
113,3,object_09,object_05,806.5,5,1,400.90000000596,0.0,1,object_08,5,1339,0,0,3,library_7,1,memory-2step-stake-s,608,1883462,0.0-19.0-0.0-0.113,A2FCQ5K0T1PYHS,3X4Q1O9UCK2WXV8VOBT8MFKQE0B7O9,37UEWGM5HXOO55J3HPY54KU5GF0R1B,5,6
114,1,object_06,object_03,512.69999998808,2,2,327.09999999404,0.1111111111111111,2,object_01,1,1340,0,1,1,desert_4,1,memory-2step-stake-s,609,1891111,0.0-19.0-0.0-0.114,A2FCQ5K0T1PYHS,3X4Q1O9UCK2WXV8VOBT8MFKQE0B7O9,37UEWGM5HXOO55J3HPY54KU5GF0R1B,1,2
115,4,object_02,object_07,855.40000000596,8,1,413.19999998808,0.2222222222222222,2,object_01,5,1350,0,2,2,restaurant_3,1,memory-2step-stake-s,610,1898952,0.0-19.0-0.0-0.115,A2FCQ5K0T1PYHS,3X4Q1O9UCK2WXV8VOBT8MFKQE0B7O9,37UEWGM5HXOO55J3HPY54KU5GF0R1B,8,7
116,4,object_02,object_07,574.09999999404,7,2,285.69999998808,0.1111111111111111,1,object_08,5,1355,0,1,2,restaurant_7,1,memory-2step-stake-s,611,1906558,0.0-19.0-0.0-0.116,A2FCQ5K0T1PYHS,3X4Q1O9UCK2WXV8VOBT8MFKQE0B7O9,37UEWGM5HXOO55J3HPY54KU5GF0R1B,8,7
117,4,object_02,object_07,431.30000001192,8,1,306.19999998808,0.3333333333333333,2,object_01,5,1370,0,4,3,restaurant_4,1,memory-2step-stake-s,612,1914386,0.0-19.0-0.0-0.117,A2FCQ5K0T1PYHS,3X4Q1O9UCK2WXV8VOBT8MFKQE0B7O9,37UEWGM5HXOO55J3HPY54KU5GF0R1B,8,7
118,3,object_09,object_05,284.70000001788,6,2,242.59999999404,0.2222222222222222,2,object_01,1,1372,0,5,2,library_7,1,memory-2step-stake-s,613,1922049,0.0-19.0-0.0-0.118,A2FCQ5K0T1PYHS,3X4Q1O9UCK2WXV8VOBT8MFKQE0B7O9,37UEWGM5HXOO55J3HPY54KU5GF0R1B,5,6
119,4,object_07,object_02,926.19999998808,8,2,364.69999998808,0.4444444444444444,2,object_01,5,1392,0,5,4,restaurant_4,1,memory-2step-stake-s,614,1930047,0.0-19.0-0.0-0.119,A2FCQ5K0T1PYHS,3X4Q1O9UCK2WXV8VOBT8MFKQE0B7O9,37UEWGM5HXOO55J3HPY54KU5GF0R1B,7,8
120,2,object_10,object_04,595.79999998212,4,1,416.40000000596,0.6666666666666666,2,object_01,5,1422,0,3,6,forest_7,1,memory-2step-stake-s,615,1938283,0.0-19.0-0.0-0.120,A2FCQ5K0T1PYHS,3X4Q1O9UCK2WXV8VOBT8MFKQE0B7O9,37UEWGM5HXOO55J3HPY54KU5GF0R1B,4,3
121,3,object_09,object_05,454.40000000596,6,2,283.69999998808,0.6666666666666666,2,object_01,5,1452,0,1,6,library_7,1,memory-2step-stake-s,616,1946391,0.0-19.0-0.0-0.121,A2FCQ5K0T1PYHS,3X4Q1O9UCK2WXV8VOBT8MFKQE0B7O9,37UEWGM5HXOO55J3HPY54KU5GF0R1B,5,6
122,3,object_09,object_05,1477.900000006,6,2,468.19999998808,0.5555555555555556,2,object_01,5,1477,0,0,5,library_3,1,memory-2step-stake-s,617,1954588,0.0-19.0-0.0-0.122,A2FCQ5K0T1PYHS,3X4Q1O9UCK2WXV8VOBT8MFKQE0B7O9,37UEWGM5HXOO55J3HPY54KU5GF0R1B,5,6
123,2,object_04,object_10,855.29999998212,3,1,369.0,0.1111111111111111,1,object_08,5,1482,0,1,6,forest_1,1,memory-2step-stake-s,618,1962272,0.0-19.0-0.0-0.123,A2FCQ5K0T1PYHS,3X4Q1O9UCK2WXV8VOBT8MFKQE0B7O9,37UEWGM5HXOO55J3HPY54KU5GF0R1B,3,4
124,3,object_09,object_05,1130.6999999881,5,1,491.60000002384,0.1111111111111111,1,object_08,5,1487,0,1,4,library_7,1,memory-2step-stake-s,619,1970080,0.0-19.0-0.0-0.124,A2FCQ5K0T1PYHS,3X4Q1O9UCK2WXV8VOBT8MFKQE0B7O9,37UEWGM5HXOO55J3HPY54KU5GF0R1B,5,6
125,4,object_07,object_02,765.69999998808,7,1,289.09999999404,0.0,1,object_08,5,1487,0,0,4,restaurant_3,1,memory-2step-stake-s,620,1977599,0.0-19.0-0.0-0.125,A2FCQ5K0T1PYHS,3X4Q1O9UCK2WXV8VOBT8MFKQE0B7O9,37UEWGM5HXOO55J3HPY54KU5GF0R1B,7,8
126,2,object_04,object_10,559.5,3,1,327.89999997616,0.3333333333333333,1,object_08,1,1490,0,3,4,forest_7,1,memory-2step-stake-s,621,1985462,0.0-19.0-0.0-0.126,A2FCQ5K0T1PYHS,3X4Q1O9UCK2WXV8VOBT8MFKQE0B7O9,37UEWGM5HXOO55J3HPY54KU5GF0R1B,3,4
127,4,object_02,object_07,866.30000001192,7,2,630.40000000596,0.0,1,object_08,5,1490,0,0,3,restaurant_1,1,memory-2step-stake-s,622,1993321,0.0-19.0-0.0-0.127,A2FCQ5K0T1PYHS,3X4Q1O9UCK2WXV8VOBT8MFKQE0B7O9,37UEWGM5HXOO55J3HPY54KU5GF0R1B,8,7
128,2,object_10,object_04,999.59999999404,4,1,549.79999998212,0.3333333333333333,2,object_01,5,1505,0,4,3,forest_4,1,memory-2step-stake-s,624,2060525,0.0-19.0-0.1-0.128,A2FCQ5K0T1PYHS,3X4Q1O9UCK2WXV8VOBT8MFKQE0B7O9,37UEWGM5HXOO55J3HPY54KU5GF0R1B,4,3
129,1,object_03,object_06,231.59999999404,1,2,235.29999998212,0.4444444444444444,1,object_08,1,1509,0,4,0,desert_5,1,memory-2step-stake-s,625,2068396,0.0-19.0-0.1-0.129,A2FCQ5K0T1PYHS,3X4Q1O9UCK2WXV8VOBT8MFKQE0B7O9,37UEWGM5HXOO55J3HPY54KU5GF0R1B,2,1
130,3,object_05,object_09,1134.099999994,5,2,320.09999999404,0.4444444444444444,1,object_08,5,1529,0,4,1,library_7,1,memory-2step-stake-s,626,2076336,0.0-19.0-0.1-0.130,A2FCQ5K0T1PYHS,3X4Q1O9UCK2WXV8VOBT8MFKQE0B7O9,37UEWGM5HXOO55J3HPY54KU5GF0R1B,6,5
131,1,object_03,object_06,345.39999997616,2,1,590.19999998808,0.2222222222222222,2,object_01,1,1531,0,4,2,desert_3,1,memory-2step-stake-s,627,2084347,0.0-19.0-0.1-0.131,A2FCQ5K0T1PYHS,3X4Q1O9UCK2WXV8VOBT8MFKQE0B7O9,37UEWGM5HXOO55J3HPY54KU5GF0R1B,2,1
132,1,object_06,object_03,498.30000001192,2,2,434.60000002384,0.0,2,object_01,1,1531,0,3,0,desert_5,1,memory-2step-stake-s,628,2092000,0.0-19.0-0.1-0.132,A2FCQ5K0T1PYHS,3X4Q1O9UCK2WXV8VOBT8MFKQE0B7O9,37UEWGM5HXOO55J3HPY54KU5GF0R1B,1,2
133,3,object_09,object_05,596.5,5,1,400.0,0.4444444444444444,1,object_08,5,1551,0,4,1,library_3,1,memory-2step-stake-s,629,2100032,0.0-19.0-0.1-0.133,A2FCQ5K0T1PYHS,3X4Q1O9UCK2WXV8VOBT8MFKQE0B7O9,37UEWGM5HXOO55J3HPY54KU5GF0R1B,5,6
134,3,object_05,object_09,665.29999998212,6,1,308.80000001192,0.2222222222222222,2,object_01,1,1553,0,5,2,library_8,1,memory-2step-stake-s,630,2107758,0.0-19.0-0.1-0.134,A2FCQ5K0T1PYHS,3X4Q1O9UCK2WXV8VOBT8MFKQE0B7O9,37UEWGM5HXOO55J3HPY54KU5GF0R1B,6,5
135,4,object_02,object_07,442.90000000596,7,2,642.89999997616,0.6666666666666666,1,object_08,5,1583,0,6,1,restaurant_3,1,memory-2step-stake-s,631,2116238,0.0-19.0-0.1-0.135,A2FCQ5K0T1PYHS,3X4Q1O9UCK2WXV8VOBT8MFKQE0B7O9,37UEWGM5HXOO55J3HPY54KU5GF0R1B,8,7
136,4,object_07,object_02,410.29999998212,7,1,348.0,0.8888888888888888,1,object_08,5,1623,0,8,3,restaurant_7,1,memory-2step-stake-s,632,2124615,0.0-19.0-0.1-0.136,A2FCQ5K0T1PYHS,3X4Q1O9UCK2WXV8VOBT8MFKQE0B7O9,37UEWGM5HXOO55J3HPY54KU5GF0R1B,7,8
137,2,object_10,object_04,471.90000000596,3,2,290.30000001192,1.0,1,object_08,5,1668,0,9,2,forest_7,1,memory-2step-stake-s,633,2133036,0.0-19.0-0.1-0.137,A2FCQ5K0T1PYHS,3X4Q1O9UCK2WXV8VOBT8MFKQE0B7O9,37UEWGM5HXOO55J3HPY54KU5GF0R1B,4,3
138,2,object_04,object_10,627.30000001192,3,1,441.19999998808,1.0,1,object_08,5,1713,0,9,3,forest_4,1,memory-2step-stake-s,634,2141609,0.0-19.0-0.1-0.138,A2FCQ5K0T1PYHS,3X4Q1O9UCK2WXV8VOBT8MFKQE0B7O9,37UEWGM5HXOO55J3HPY54KU5GF0R1B,3,4
139,2,object_10,object_04,218.69999998808,4,1,226.30000001192,0.4444444444444444,2,object_01,1,1717,0,7,4,forest_2,1,memory-2step-stake-s,635,2149460,0.0-19.0-0.1-0.139,A2FCQ5K0T1PYHS,3X4Q1O9UCK2WXV8VOBT8MFKQE0B7O9,37UEWGM5HXOO55J3HPY54KU5GF0R1B,4,3
140,3,object_09,object_05,836.69999998808,5,1,354.10000002384,0.8888888888888888,1,object_08,5,1757,0,8,2,library_7,1,memory-2step-stake-s,636,2157865,0.0-19.0-0.1-0.140,A2FCQ5K0T1PYHS,3X4Q1O9UCK2WXV8VOBT8MFKQE0B7O9,37UEWGM5HXOO55J3HPY54KU5GF0R1B,5,6
141,1,object_06,object_03,557.70000001788,1,1,477.70000001788,0.7777777777777778,1,object_08,1,1764,0,7,2,desert_2,1,memory-2step-stake-s,637,2166281,0.0-19.0-0.1-0.141,A2FCQ5K0T1PYHS,3X4Q1O9UCK2WXV8VOBT8MFKQE0B7O9,37UEWGM5HXOO55J3HPY54KU5GF0R1B,1,2
142,1,object_03,object_06,740.10000002384,1,2,311.90000000596,0.8888888888888888,1,object_08,5,1804,0,8,1,desert_3,1,memory-2step-stake-s,638,2174649,0.0-19.0-0.1-0.142,A2FCQ5K0T1PYHS,3X4Q1O9UCK2WXV8VOBT8MFKQE0B7O9,37UEWGM5HXOO55J3HPY54KU5GF0R1B,2,1
143,4,object_02,object_07,500.39999997616,8,1,239.5,0.3333333333333333,2,object_01,1,1807,0,8,3,restaurant_4,1,memory-2step-stake-s,639,2182406,0.0-19.0-0.1-0.143,A2FCQ5K0T1PYHS,3X4Q1O9UCK2WXV8VOBT8MFKQE0B7O9,37UEWGM5HXOO55J3HPY54KU5GF0R1B,8,7
144,2,object_04,object_10,424.5,3,1,380.70000001788,0.6666666666666666,1,object_08,1,1813,0,6,3,forest_4,1,memory-2step-stake-s,640,2190608,0.0-19.0-0.1-0.144,A2FCQ5K0T1PYHS,3X4Q1O9UCK2WXV8VOBT8MFKQE0B7O9,37UEWGM5HXOO55J3HPY54KU5GF0R1B,3,4
145,3,object_05,object_09,631.90000000596,5,2,332.5,0.3333333333333333,1,object_08,5,1828,0,3,1,library_1,1,memory-2step-stake-s,641,2198463,0.0-19.0-0.1-0.145,A2FCQ5K0T1PYHS,3X4Q1O9UCK2WXV8VOBT8MFKQE0B7O9,37UEWGM5HXOO55J3HPY54KU5GF0R1B,6,5
146,2,object_04,object_10,501.5,4,2,477.40000000596,0.3333333333333333,2,object_01,1,1831,0,3,3,forest_1,1,memory-2step-stake-s,642,2206467,0.0-19.0-0.1-0.146,A2FCQ5K0T1PYHS,3X4Q1O9UCK2WXV8VOBT8MFKQE0B7O9,37UEWGM5HXOO55J3HPY54KU5GF0R1B,3,4
147,3,object_05,object_09,677.5,5,2,301.79999998212,0.0,1,object_08,5,1831,0,0,2,library_1,1,memory-2step-stake-s,643,2213999,0.0-19.0-0.1-0.147,A2FCQ5K0T1PYHS,3X4Q1O9UCK2WXV8VOBT8MFKQE0B7O9,37UEWGM5HXOO55J3HPY54KU5GF0R1B,6,5
148,2,object_04,object_10,576.39999997616,3,1,359.80000001192,0.4444444444444444,1,object_08,1,1835,0,4,0,forest_1,1,memory-2step-stake-s,644,2221999,0.0-19.0-0.1-0.148,A2FCQ5K0T1PYHS,3X4Q1O9UCK2WXV8VOBT8MFKQE0B7O9,37UEWGM5HXOO55J3HPY54KU5GF0R1B,3,4
149,2,object_04,object_10,518.59999999404,4,2,269.69999998808,0.1111111111111111,2,object_01,1,1836,0,3,1,forest_1,1,memory-2step-stake-s,645,2229589,0.0-19.0-0.1-0.149,A2FCQ5K0T1PYHS,3X4Q1O9UCK2WXV8VOBT8MFKQE0B7O9,37UEWGM5HXOO55J3HPY54KU5GF0R1B,3,4
150,3,object_09,object_05,961.69999998808,6,2,610.19999998808,0.4444444444444444,2,object_01,5,1856,0,3,4,library_7,1,memory-2step-stake-s,646,2237828,0.0-19.0-0.1-0.150,A2FCQ5K0T1PYHS,3X4Q1O9UCK2WXV8VOBT8MFKQE0B7O9,37UEWGM5HXOO55J3HPY54KU5GF0R1B,5,6
151,4,object_07,object_02,582.19999998808,7,1,282.29999998212,0.1111111111111111,1,object_08,5,1861,0,1,1,restaurant_7,1,memory-2step-stake-s,647,2245440,0.0-19.0-0.1-0.151,A2FCQ5K0T1PYHS,3X4Q1O9UCK2WXV8VOBT8MFKQE0B7O9,37UEWGM5HXOO55J3HPY54KU5GF0R1B,7,8
152,1,object_06,object_03,732.10000002384,2,2,414.40000000596,0.2222222222222222,2,object_01,1,1863,0,1,2,desert_4,1,memory-2step-stake-s,648,2253285,0.0-19.0-0.1-0.152,A2FCQ5K0T1PYHS,3X4Q1O9UCK2WXV8VOBT8MFKQE0B7O9,37UEWGM5HXOO55J3HPY54KU5GF0R1B,1,2
153,1,object_06,object_03,384.80000001192,1,1,257.70000001788,0.4444444444444444,1,object_08,1,1867,0,4,2,desert_4,1,memory-2step-stake-s,649,2261179,0.0-19.0-0.1-0.153,A2FCQ5K0T1PYHS,3X4Q1O9UCK2WXV8VOBT8MFKQE0B7O9,37UEWGM5HXOO55J3HPY54KU5GF0R1B,1,2
154,2,object_04,object_10,838.10000002384,3,1,283.0,0.3333333333333333,1,object_08,5,1882,0,3,0,forest_1,1,memory-2step-stake-s,650,2268983,0.0-19.0-0.1-0.154,A2FCQ5K0T1PYHS,3X4Q1O9UCK2WXV8VOBT8MFKQE0B7O9,37UEWGM5HXOO55J3HPY54KU5GF0R1B,3,4
155,1,object_03,object_06,273.69999998808,1,2,268.09999999404,0.1111111111111111,1,object_08,1,1883,0,1,1,desert_2,1,memory-2step-stake-s,651,2276570,0.0-19.0-0.1-0.155,A2FCQ5K0T1PYHS,3X4Q1O9UCK2WXV8VOBT8MFKQE0B7O9,37UEWGM5HXOO55J3HPY54KU5GF0R1B,2,1
156,1,object_03,object_06,447.39999997616,2,1,272.79999998212,0.2222222222222222,2,object_01,1,1885,0,1,2,desert_4,1,memory-2step-stake-s,652,2284261,0.0-19.0-0.1-0.156,A2FCQ5K0T1PYHS,3X4Q1O9UCK2WXV8VOBT8MFKQE0B7O9,37UEWGM5HXOO55J3HPY54KU5GF0R1B,2,1
157,4,object_02,object_07,671.0,7,2,266.09999999404,0.0,1,object_08,1,1885,0,0,3,restaurant_4,1,memory-2step-stake-s,653,2291755,0.0-19.0-0.1-0.157,A2FCQ5K0T1PYHS,3X4Q1O9UCK2WXV8VOBT8MFKQE0B7O9,37UEWGM5HXOO55J3HPY54KU5GF0R1B,8,7
158,2,object_04,object_10,574.09999999404,4,2,307.10000002384,0.1111111111111111,2,object_01,5,1890,0,1,1,forest_1,1,memory-2step-stake-s,654,2299382,0.0-19.0-0.1-0.158,A2FCQ5K0T1PYHS,3X4Q1O9UCK2WXV8VOBT8MFKQE0B7O9,37UEWGM5HXOO55J3HPY54KU5GF0R1B,3,4
159,3,object_09,object_05,684.0,5,1,390.30000001192,0.1111111111111111,1,object_08,5,1895,0,1,3,library_8,1,memory-2step-stake-s,655,2307117,0.0-19.0-0.1-0.159,A2FCQ5K0T1PYHS,3X4Q1O9UCK2WXV8VOBT8MFKQE0B7O9,37UEWGM5HXOO55J3HPY54KU5GF0R1B,5,6
160,1,object_03,object_06,528.40000000596,1,2,336.29999998212,0.1111111111111111,1,object_08,1,1896,0,1,2,desert_5,1,memory-2step-stake-s,656,2314775,0.0-19.0-0.1-0.160,A2FCQ5K0T1PYHS,3X4Q1O9UCK2WXV8VOBT8MFKQE0B7O9,37UEWGM5HXOO55J3HPY54KU5GF0R1B,2,1
161,2,object_04,object_10,495.80000001192,4,2,235.0,0.1111111111111111,2,object_01,1,1897,0,2,1,forest_7,1,memory-2step-stake-s,657,2322344,0.0-19.0-0.1-0.161,A2FCQ5K0T1PYHS,3X4Q1O9UCK2WXV8VOBT8MFKQE0B7O9,37UEWGM5HXOO55J3HPY54KU5GF0R1B,3,4
162,3,object_05,object_09,740.0,6,1,335.09999999404,0.4444444444444444,2,object_01,5,1917,0,2,4,library_3,1,memory-2step-stake-s,658,2330303,0.0-19.0-0.1-0.162,A2FCQ5K0T1PYHS,3X4Q1O9UCK2WXV8VOBT8MFKQE0B7O9,37UEWGM5HXOO55J3HPY54KU5GF0R1B,6,5
163,4,object_02,object_07,569.5,8,1,367.79999998212,0.4444444444444444,2,object_01,1,1921,0,3,4,restaurant_3,1,memory-2step-stake-s,659,2338303,0.0-19.0-0.1-0.163,A2FCQ5K0T1PYHS,3X4Q1O9UCK2WXV8VOBT8MFKQE0B7O9,37UEWGM5HXOO55J3HPY54KU5GF0R1B,8,7
164,4,object_07,object_02,553.0,8,2,334.5,0.4444444444444444,2,object_01,5,1941,0,1,4,restaurant_7,1,memory-2step-stake-s,660,2346262,0.0-19.0-0.1-0.164,A2FCQ5K0T1PYHS,3X4Q1O9UCK2WXV8VOBT8MFKQE0B7O9,37UEWGM5HXOO55J3HPY54KU5GF0R1B,7,8
165,2,object_04,object_10,906.20000001788,3,1,685.0,0.1111111111111111,1,object_08,5,1946,0,1,0,forest_1,1,memory-2step-stake-s,661,2354268,0.0-19.0-0.1-0.165,A2FCQ5K0T1PYHS,3X4Q1O9UCK2WXV8VOBT8MFKQE0B7O9,37UEWGM5HXOO55J3HPY54KU5GF0R1B,3,4
166,1,object_03,object_06,716.20000001788,1,2,446.80000001192,0.1111111111111111,1,object_08,5,1951,0,1,3,desert_4,1,memory-2step-stake-s,662,2362029,0.0-19.0-0.1-0.166,A2FCQ5K0T1PYHS,3X4Q1O9UCK2WXV8VOBT8MFKQE0B7O9,37UEWGM5HXOO55J3HPY54KU5GF0R1B,2,1
167,1,object_06,object_03,246.20000001788,1,1,828.80000001192,0.1111111111111111,1,object_08,1,1952,0,1,4,desert_3,1,memory-2step-stake-s,663,2370173,0.0-19.0-0.1-0.167,A2FCQ5K0T1PYHS,3X4Q1O9UCK2WXV8VOBT8MFKQE0B7O9,37UEWGM5HXOO55J3HPY54KU5GF0R1B,1,2
168,3,object_09,object_05,1104.5,6,2,737.30000001192,0.1111111111111111,2,object_01,5,1957,0,2,1,library_7,1,memory-2step-stake-s,664,2378226,0.0-19.0-0.1-0.168,A2FCQ5K0T1PYHS,3X4Q1O9UCK2WXV8VOBT8MFKQE0B7O9,37UEWGM5HXOO55J3HPY54KU5GF0R1B,5,6
169,4,object_02,object_07,667.90000000596,8,1,503.90000000596,0.0,2,object_01,5,1957,0,3,0,restaurant_4,1,memory-2step-stake-s,665,2385944,0.0-19.0-0.1-0.169,A2FCQ5K0T1PYHS,3X4Q1O9UCK2WXV8VOBT8MFKQE0B7O9,37UEWGM5HXOO55J3HPY54KU5GF0R1B,8,7
170,1,object_03,object_06,547.10000002384,1,2,625.19999998808,0.5555555555555556,1,object_08,5,1982,0,5,3,desert_4,1,memory-2step-stake-s,666,2394298,0.0-19.0-0.1-0.170,A2FCQ5K0T1PYHS,3X4Q1O9UCK2WXV8VOBT8MFKQE0B7O9,37UEWGM5HXOO55J3HPY54KU5GF0R1B,2,1
171,4,object_02,object_07,457.90000000596,7,2,330.59999999404,0.3333333333333333,1,object_08,5,1997,0,3,3,restaurant_7,1,memory-2step-stake-s,667,2402144,0.0-19.0-0.1-0.171,A2FCQ5K0T1PYHS,3X4Q1O9UCK2WXV8VOBT8MFKQE0B7O9,37UEWGM5HXOO55J3HPY54KU5GF0R1B,8,7
172,3,object_09,object_05,615.19999998808,5,1,407.20000001788,0.2222222222222222,1,object_08,5,2007,0,2,6,library_8,1,memory-2step-stake-s,668,2409968,0.0-19.0-0.1-0.172,A2FCQ5K0T1PYHS,3X4Q1O9UCK2WXV8VOBT8MFKQE0B7O9,37UEWGM5HXOO55J3HPY54KU5GF0R1B,5,6
173,4,object_07,object_02,541.80000001192,8,2,295.09999999404,0.7777777777777778,2,object_01,5,2042,0,1,7,restaurant_3,1,memory-2step-stake-s,669,2418188,0.0-19.0-0.1-0.173,A2FCQ5K0T1PYHS,3X4Q1O9UCK2WXV8VOBT8MFKQE0B7O9,37UEWGM5HXOO55J3HPY54KU5GF0R1B,7,8
174,3,object_05,object_09,889.59999999404,5,2,703.20000001788,0.1111111111111111,1,object_08,5,2047,0,1,4,library_1,1,memory-2step-stake-s,670,2426209,0.0-19.0-0.1-0.174,A2FCQ5K0T1PYHS,3X4Q1O9UCK2WXV8VOBT8MFKQE0B7O9,37UEWGM5HXOO55J3HPY54KU5GF0R1B,6,5
175,4,object_07,object_02,392.59999999404,8,2,361.69999998808,0.6666666666666666,2,object_01,5,2077,0,4,6,restaurant_7,1,memory-2step-stake-s,671,2434394,0.0-19.0-0.1-0.175,A2FCQ5K0T1PYHS,3X4Q1O9UCK2WXV8VOBT8MFKQE0B7O9,37UEWGM5HXOO55J3HPY54KU5GF0R1B,7,8
176,1,object_06,object_03,485.70000001788,1,1,343.90000000596,0.3333333333333333,1,object_08,1,2080,0,3,6,desert_3,1,memory-2step-stake-s,672,2442256,0.0-19.0-0.1-0.176,A2FCQ5K0T1PYHS,3X4Q1O9UCK2WXV8VOBT8MFKQE0B7O9,37UEWGM5HXOO55J3HPY54KU5GF0R1B,1,2
177,1,object_03,object_06,383.0,1,2,323.90000000596,0.2222222222222222,1,object_08,1,2082,0,2,3,desert_3,1,memory-2step-stake-s,673,2449998,0.0-19.0-0.1-0.177,A2FCQ5K0T1PYHS,3X4Q1O9UCK2WXV8VOBT8MFKQE0B7O9,37UEWGM5HXOO55J3HPY54KU5GF0R1B,2,1
178,2,object_10,object_04,323.5,4,1,336.19999998808,0.6666666666666666,2,object_01,5,2112,0,0,6,forest_1,1,memory-2step-stake-s,674,2458156,0.0-19.0-0.1-0.178,A2FCQ5K0T1PYHS,3X4Q1O9UCK2WXV8VOBT8MFKQE0B7O9,37UEWGM5HXOO55J3HPY54KU5GF0R1B,4,3
179,4,object_07,object_02,588.20000001788,8,2,391.80000001192,0.4444444444444444,2,object_01,5,2132,0,1,4,restaurant_3,1,memory-2step-stake-s,675,2466180,0.0-19.0-0.1-0.179,A2FCQ5K0T1PYHS,3X4Q1O9UCK2WXV8VOBT8MFKQE0B7O9,37UEWGM5HXOO55J3HPY54KU5GF0R1B,7,8
180,4,object_07,object_02,986.90000000596,7,1,321.09999999404,0.0,1,object_08,5,2132,0,0,3,restaurant_7,1,memory-2step-stake-s,676,2473717,0.0-19.0-0.1-0.180,A2FCQ5K0T1PYHS,3X4Q1O9UCK2WXV8VOBT8MFKQE0B7O9,37UEWGM5HXOO55J3HPY54KU5GF0R1B,7,8
181,2,object_10,object_04,508.29999998212,3,2,269.59999999404,0.0,1,object_08,1,2132,0,0,1,forest_1,1,memory-2step-stake-s,677,2481202,0.0-19.0-0.1-0.181,A2FCQ5K0T1PYHS,3X4Q1O9UCK2WXV8VOBT8MFKQE0B7O9,37UEWGM5HXOO55J3HPY54KU5GF0R1B,4,3
182,3,object_09,object_05,274.60000002384,5,1,345.80000001192,0.4444444444444444,1,object_08,1,2136,0,4,3,library_8,1,memory-2step-stake-s,678,2489165,0.0-19.0-0.1-0.182,A2FCQ5K0T1PYHS,3X4Q1O9UCK2WXV8VOBT8MFKQE0B7O9,37UEWGM5HXOO55J3HPY54KU5GF0R1B,5,6
183,4,object_07,object_02,636.59999999404,8,2,337.5,0.2222222222222222,2,object_01,5,2146,0,4,2,restaurant_3,1,memory-2step-stake-s,679,2496920,0.0-19.0-0.1-0.183,A2FCQ5K0T1PYHS,3X4Q1O9UCK2WXV8VOBT8MFKQE0B7O9,37UEWGM5HXOO55J3HPY54KU5GF0R1B,7,8
184,4,object_07,object_02,337.89999997616,7,1,309.79999998212,0.3333333333333333,1,object_08,1,2149,0,3,1,restaurant_1,1,memory-2step-stake-s,680,2504760,0.0-19.0-0.1-0.184,A2FCQ5K0T1PYHS,3X4Q1O9UCK2WXV8VOBT8MFKQE0B7O9,37UEWGM5HXOO55J3HPY54KU5GF0R1B,7,8
185,3,object_05,object_09,461.0,5,2,441.80000001192,0.0,1,object_08,5,2149,0,0,0,library_1,1,memory-2step-stake-s,681,2512433,0.0-19.0-0.1-0.185,A2FCQ5K0T1PYHS,3X4Q1O9UCK2WXV8VOBT8MFKQE0B7O9,37UEWGM5HXOO55J3HPY54KU5GF0R1B,6,5
186,3,object_05,object_09,448.80000001192,6,1,330.30000001192,0.5555555555555556,2,object_01,5,2174,0,4,5,library_1,1,memory-2step-stake-s,682,2520495,0.0-19.0-0.1-0.186,A2FCQ5K0T1PYHS,3X4Q1O9UCK2WXV8VOBT8MFKQE0B7O9,37UEWGM5HXOO55J3HPY54KU5GF0R1B,6,5
187,4,object_02,object_07,601.09999999404,8,1,586.0,0.6666666666666666,2,object_01,5,2204,0,4,6,restaurant_1,1,memory-2step-stake-s,683,2528917,0.0-19.0-0.1-0.187,A2FCQ5K0T1PYHS,3X4Q1O9UCK2WXV8VOBT8MFKQE0B7O9,37UEWGM5HXOO55J3HPY54KU5GF0R1B,8,7
188,4,object_07,object_02,725.5,8,2,345.09999999404,0.4444444444444444,2,object_01,5,2224,0,3,4,restaurant_4,1,memory-2step-stake-s,684,2536883,0.0-19.0-0.1-0.188,A2FCQ5K0T1PYHS,3X4Q1O9UCK2WXV8VOBT8MFKQE0B7O9,37UEWGM5HXOO55J3HPY54KU5GF0R1B,7,8
189,4,object_07,object_02,416.80000001192,8,2,351.09999999404,0.2222222222222222,2,object_01,5,2234,0,6,2,restaurant_4,1,memory-2step-stake-s,685,2544652,0.0-19.0-0.1-0.189,A2FCQ5K0T1PYHS,3X4Q1O9UCK2WXV8VOBT8MFKQE0B7O9,37UEWGM5HXOO55J3HPY54KU5GF0R1B,7,8
190,1,object_03,object_06,433.39999997616,2,1,375.30000001192,0.2222222222222222,2,object_01,1,2236,0,8,2,desert_3,1,memory-2step-stake-s,686,2552447,0.0-19.0-0.1-0.190,A2FCQ5K0T1PYHS,3X4Q1O9UCK2WXV8VOBT8MFKQE0B7O9,37UEWGM5HXOO55J3HPY54KU5GF0R1B,2,1
191,1,object_03,object_06,769.90000000596,1,2,466.90000000596,1.0,1,object_08,5,2281,0,9,3,desert_5,1,memory-2step-stake-s,687,2561049,0.0-19.0-0.1-0.191,A2FCQ5K0T1PYHS,3X4Q1O9UCK2WXV8VOBT8MFKQE0B7O9,37UEWGM5HXOO55J3HPY54KU5GF0R1B,2,1
192,3,object_09,object_05,317.5,5,1,286.30000001192,0.8888888888888888,1,object_08,1,2289,0,8,2,library_8,1,memory-2step-stake-s,688,2569364,0.0-19.0-0.1-0.192,A2FCQ5K0T1PYHS,3X4Q1O9UCK2WXV8VOBT8MFKQE0B7O9,37UEWGM5HXOO55J3HPY54KU5GF0R1B,5,6
193,2,object_04,object_10,430.39999997616,4,2,274.19999998808,0.3333333333333333,2,object_01,1,2292,0,9,3,forest_2,1,memory-2step-stake-s,689,2577165,0.0-19.0-0.1-0.193,A2FCQ5K0T1PYHS,3X4Q1O9UCK2WXV8VOBT8MFKQE0B7O9,37UEWGM5HXOO55J3HPY54KU5GF0R1B,3,4
194,2,object_04,object_10,379.0,3,1,1240.400000006,0.7777777777777778,1,object_08,1,2299,0,7,4,forest_4,1,memory-2step-stake-s,690,2586342,0.0-19.0-0.1-0.194,A2FCQ5K0T1PYHS,3X4Q1O9UCK2WXV8VOBT8MFKQE0B7O9,37UEWGM5HXOO55J3HPY54KU5GF0R1B,3,4
195,3,object_09,object_05,496.79999998212,6,2,392.40000000596,0.6666666666666666,2,object_01,1,2305,0,3,6,library_8,1,memory-2step-stake-s,691,2594557,0.0-19.0-0.1-0.195,A2FCQ5K0T1PYHS,3X4Q1O9UCK2WXV8VOBT8MFKQE0B7O9,37UEWGM5HXOO55J3HPY54KU5GF0R1B,5,6
196,2,object_10,object_04,219.90000000596,4,1,435.40000000596,1.0,2,object_01,1,2314,0,5,9,forest_4,1,memory-2step-stake-s,692,2603119,0.0-19.0-0.1-0.196,A2FCQ5K0T1PYHS,3X4Q1O9UCK2WXV8VOBT8MFKQE0B7O9,37UEWGM5HXOO55J3HPY54KU5GF0R1B,4,3
197,3,object_09,object_05,530.09999999404,6,2,402.10000002384,1.0,2,object_01,5,2359,0,2,9,library_7,1,memory-2step-stake-s,693,2611654,0.0-19.0-0.1-0.197,A2FCQ5K0T1PYHS,3X4Q1O9UCK2WXV8VOBT8MFKQE0B7O9,37UEWGM5HXOO55J3HPY54KU5GF0R1B,5,6
198,4,object_02,object_07,584.0,7,2,304.0,0.0,1,object_08,5,2359,0,0,9,restaurant_1,1,memory-2step-stake-s,694,2619174,0.0-19.0-0.1-0.198,A2FCQ5K0T1PYHS,3X4Q1O9UCK2WXV8VOBT8MFKQE0B7O9,37UEWGM5HXOO55J3HPY54KU5GF0R1B,8,7
199,2,object_10,object_04,504.20000001788,4,1,242.0,0.7777777777777778,2,object_01,5,2394,0,2,7,forest_7,1,memory-2step-stake-s,695,2627352,0.0-19.0-0.1-0.199,A2FCQ5K0T1PYHS,3X4Q1O9UCK2WXV8VOBT8MFKQE0B7O9,37UEWGM5HXOO55J3HPY54KU5GF0R1B,4,3
200,3,object_09,object_05,548.0,6,2,338.80000001192,0.8888888888888888,2,object_01,5,2434,0,1,8,library_8,1,memory-2step-stake-s,696,2635717,0.0-19.0-0.1-0.200,A2FCQ5K0T1PYHS,3X4Q1O9UCK2WXV8VOBT8MFKQE0B7O9,37UEWGM5HXOO55J3HPY54KU5GF0R1B,5,6
201,4,object_07,object_02,611.30000001192,7,1,361.10000002384,0.3333333333333333,1,object_08,5,2449,0,3,5,restaurant_7,1,memory-2step-stake-s,697,2643594,0.0-19.0-0.1-0.201,A2FCQ5K0T1PYHS,3X4Q1O9UCK2WXV8VOBT8MFKQE0B7O9,37UEWGM5HXOO55J3HPY54KU5GF0R1B,7,8
202,1,object_06,object_03,552.69999998808,2,2,481.30000001192,0.4444444444444444,2,object_01,1,2453,0,3,4,desert_4,1,memory-2step-stake-s,698,2651696,0.0-19.0-0.1-0.202,A2FCQ5K0T1PYHS,3X4Q1O9UCK2WXV8VOBT8MFKQE0B7O9,37UEWGM5HXOO55J3HPY54KU5GF0R1B,1,2
203,2,object_10,object_04,461.09999999404,3,2,330.80000001192,0.2222222222222222,1,object_08,1,2455,0,2,5,forest_1,1,memory-2step-stake-s,699,2659445,0.0-19.0-0.1-0.203,A2FCQ5K0T1PYHS,3X4Q1O9UCK2WXV8VOBT8MFKQE0B7O9,37UEWGM5HXOO55J3HPY54KU5GF0R1B,4,3
204,3,object_05,object_09,327.90000000596,6,1,235.5,1.0,2,object_01,5,2500,0,4,9,library_1,1,memory-2step-stake-s,700,2667812,0.0-19.0-0.1-0.204,A2FCQ5K0T1PYHS,3X4Q1O9UCK2WXV8VOBT8MFKQE0B7O9,37UEWGM5HXOO55J3HPY54KU5GF0R1B,6,5
205,1,object_03,object_06,350.80000001192,1,2,313.0,0.5555555555555556,1,object_08,1,2505,0,5,9,desert_4,1,memory-2step-stake-s,701,2675847,0.0-19.0-0.1-0.205,A2FCQ5K0T1PYHS,3X4Q1O9UCK2WXV8VOBT8MFKQE0B7O9,37UEWGM5HXOO55J3HPY54KU5GF0R1B,2,1
206,3,object_09,object_05,601.40000000596,6,2,496.59999999404,0.7777777777777778,2,object_01,5,2540,0,4,7,library_3,1,memory-2step-stake-s,702,2684287,0.0-19.0-0.1-0.206,A2FCQ5K0T1PYHS,3X4Q1O9UCK2WXV8VOBT8MFKQE0B7O9,37UEWGM5HXOO55J3HPY54KU5GF0R1B,5,6
207,1,object_06,object_03,685.29999998212,1,1,303.89999997616,0.0,1,object_08,1,2540,0,0,7,desert_5,1,memory-2step-stake-s,703,2691808,0.0-19.0-0.1-0.207,A2FCQ5K0T1PYHS,3X4Q1O9UCK2WXV8VOBT8MFKQE0B7O9,37UEWGM5HXOO55J3HPY54KU5GF0R1B,1,2
208,4,object_02,object_07,274.59999999404,7,2,343.40000000596,0.0,1,object_08,5,2540,0,0,5,restaurant_7,1,memory-2step-stake-s,704,2699374,0.0-19.0-0.1-0.208,A2FCQ5K0T1PYHS,3X4Q1O9UCK2WXV8VOBT8MFKQE0B7O9,37UEWGM5HXOO55J3HPY54KU5GF0R1B,8,7
209,1,object_03,object_06,646.29999998212,2,1,226.5,0.8888888888888888,2,object_01,1,2548,0,2,8,desert_4,1,memory-2step-stake-s,705,2707630,0.0-19.0-0.1-0.209,A2FCQ5K0T1PYHS,3X4Q1O9UCK2WXV8VOBT8MFKQE0B7O9,37UEWGM5HXOO55J3HPY54KU5GF0R1B,2,1
210,3,object_09,object_05,357.69999998808,6,2,305.59999999404,0.8888888888888888,2,object_01,5,2588,0,3,8,library_1,1,memory-2step-stake-s,706,2715966,0.0-19.0-0.1-0.210,A2FCQ5K0T1PYHS,3X4Q1O9UCK2WXV8VOBT8MFKQE0B7O9,37UEWGM5HXOO55J3HPY54KU5GF0R1B,5,6
211,4,object_07,object_02,772.5,8,2,318.20000001788,0.6666666666666666,2,object_01,5,2618,0,0,6,restaurant_3,1,memory-2step-stake-s,707,2724113,0.0-19.0-0.1-0.211,A2FCQ5K0T1PYHS,3X4Q1O9UCK2WXV8VOBT8MFKQE0B7O9,37UEWGM5HXOO55J3HPY54KU5GF0R1B,7,8
212,1,object_03,object_06,588.69999998808,2,1,576.40000000596,0.7777777777777778,2,object_01,1,2625,0,1,7,desert_2,1,memory-2step-stake-s,708,2732619,0.0-19.0-0.1-0.212,A2FCQ5K0T1PYHS,3X4Q1O9UCK2WXV8VOBT8MFKQE0B7O9,37UEWGM5HXOO55J3HPY54KU5GF0R1B,2,1
213,2,object_10,object_04,349.39999997616,3,2,357.59999999404,0.5555555555555556,1,object_08,1,2630,0,5,8,forest_7,1,memory-2step-stake-s,709,2740706,0.0-19.0-0.1-0.213,A2FCQ5K0T1PYHS,3X4Q1O9UCK2WXV8VOBT8MFKQE0B7O9,37UEWGM5HXOO55J3HPY54KU5GF0R1B,4,3
214,1,object_06,object_03,980.30000001192,1,1,444.5,0.4444444444444444,1,object_08,5,2650,0,4,9,desert_2,1,memory-2step-stake-s,710,2748768,0.0-19.0-0.1-0.214,A2FCQ5K0T1PYHS,3X4Q1O9UCK2WXV8VOBT8MFKQE0B7O9,37UEWGM5HXOO55J3HPY54KU5GF0R1B,1,2
215,3,object_05,object_09,523.80000001192,6,1,285.09999999404,1.0,2,object_01,5,2695,0,3,9,library_7,1,memory-2step-stake-s,711,2757190,0.0-19.0-0.1-0.215,A2FCQ5K0T1PYHS,3X4Q1O9UCK2WXV8VOBT8MFKQE0B7O9,37UEWGM5HXOO55J3HPY54KU5GF0R1B,6,5
216,2,object_10,object_04,357.40000000596,3,2,283.09999999404,0.2222222222222222,1,object_08,1,2697,0,2,5,forest_7,1,memory-2step-stake-s,712,2764896,0.0-19.0-0.1-0.216,A2FCQ5K0T1PYHS,3X4Q1O9UCK2WXV8VOBT8MFKQE0B7O9,37UEWGM5HXOO55J3HPY54KU5GF0R1B,4,3
217,1,object_06,object_03,396.59999999404,1,1,259.60000002384,0.2222222222222222,1,object_08,5,2707,0,2,6,desert_2,1,memory-2step-stake-s,713,2772588,0.0-19.0-0.1-0.217,A2FCQ5K0T1PYHS,3X4Q1O9UCK2WXV8VOBT8MFKQE0B7O9,37UEWGM5HXOO55J3HPY54KU5GF0R1B,1,2
218,3,object_09,object_05,725.90000000596,6,2,355.30000001192,1.0,2,object_01,5,2752,0,3,9,library_8,1,memory-2step-stake-s,714,2781074,0.0-19.0-0.1-0.218,A2FCQ5K0T1PYHS,3X4Q1O9UCK2WXV8VOBT8MFKQE0B7O9,37UEWGM5HXOO55J3HPY54KU5GF0R1B,5,6
219,2,object_10,object_04,569.59999999404,3,2,441.70000001788,0.6666666666666666,1,object_08,5,2782,0,6,8,forest_4,1,memory-2step-stake-s,715,2789362,0.0-19.0-0.1-0.219,A2FCQ5K0T1PYHS,3X4Q1O9UCK2WXV8VOBT8MFKQE0B7O9,37UEWGM5HXOO55J3HPY54KU5GF0R1B,4,3
220,2,object_10,object_04,328.10000002384,4,1,196.69999998808,0.7777777777777778,2,object_01,1,2789,0,5,7,forest_2,1,memory-2step-stake-s,716,2797486,0.0-19.0-0.1-0.220,A2FCQ5K0T1PYHS,3X4Q1O9UCK2WXV8VOBT8MFKQE0B7O9,37UEWGM5HXOO55J3HPY54KU5GF0R1B,4,3
221,3,object_09,object_05,331.90000000596,6,2,263.20000001788,0.3333333333333333,2,object_01,5,2804,0,8,3,library_3,1,memory-2step-stake-s,717,2805270,0.0-19.0-0.1-0.221,A2FCQ5K0T1PYHS,3X4Q1O9UCK2WXV8VOBT8MFKQE0B7O9,37UEWGM5HXOO55J3HPY54KU5GF0R1B,5,6
222,2,object_10,object_04,586.89999997616,4,1,327.0,0.3333333333333333,2,object_01,5,2819,0,8,3,forest_4,1,memory-2step-stake-s,718,2813132,0.0-19.0-0.1-0.222,A2FCQ5K0T1PYHS,3X4Q1O9UCK2WXV8VOBT8MFKQE0B7O9,37UEWGM5HXOO55J3HPY54KU5GF0R1B,4,3
223,2,object_10,object_04,438.69999998808,3,2,348.29999998212,0.7777777777777778,1,object_08,1,2826,0,7,2,forest_1,1,memory-2step-stake-s,719,2821409,0.0-19.0-0.1-0.223,A2FCQ5K0T1PYHS,3X4Q1O9UCK2WXV8VOBT8MFKQE0B7O9,37UEWGM5HXOO55J3HPY54KU5GF0R1B,4,3
224,1,object_03,object_06,430.19999998808,2,1,782.0,0.5555555555555556,2,object_01,1,2831,0,8,5,desert_2,1,memory-2step-stake-s,720,2829928,0.0-19.0-0.1-0.224,A2FCQ5K0T1PYHS,3X4Q1O9UCK2WXV8VOBT8MFKQE0B7O9,37UEWGM5HXOO55J3HPY54KU5GF0R1B,2,1
225,3,object_09,object_05,390.59999999404,6,2,304.0,0.6666666666666666,2,object_01,5,2861,0,6,6,library_1,1,memory-2step-stake-s,721,2838071,0.0-19.0-0.1-0.225,A2FCQ5K0T1PYHS,3X4Q1O9UCK2WXV8VOBT8MFKQE0B7O9,37UEWGM5HXOO55J3HPY54KU5GF0R1B,5,6
226,1,object_03,object_06,296.29999998212,2,1,329.0,0.6666666666666666,2,object_01,1,2867,0,6,6,desert_2,1,memory-2step-stake-s,722,2846226,0.0-19.0-0.1-0.226,A2FCQ5K0T1PYHS,3X4Q1O9UCK2WXV8VOBT8MFKQE0B7O9,37UEWGM5HXOO55J3HPY54KU5GF0R1B,2,1
227,2,object_10,object_04,822.90000000596,3,2,558.59999999404,0.7777777777777778,1,object_08,1,2874,0,7,5,forest_2,1,memory-2step-stake-s,723,2854717,0.0-19.0-0.1-0.227,A2FCQ5K0T1PYHS,3X4Q1O9UCK2WXV8VOBT8MFKQE0B7O9,37UEWGM5HXOO55J3HPY54KU5GF0R1B,4,3
228,1,object_03,object_06,313.90000000596,1,2,251.59999999404,0.8888888888888888,1,object_08,1,2882,0,8,5,desert_5,1,memory-2step-stake-s,724,2863000,0.0-19.0-0.1-0.228,A2FCQ5K0T1PYHS,3X4Q1O9UCK2WXV8VOBT8MFKQE0B7O9,37UEWGM5HXOO55J3HPY54KU5GF0R1B,2,1
229,2,object_10,object_04,502.09999999404,4,1,340.69999998808,0.2222222222222222,2,object_01,1,2884,0,9,2,forest_1,1,memory-2step-stake-s,725,2870755,0.0-19.0-0.1-0.229,A2FCQ5K0T1PYHS,3X4Q1O9UCK2WXV8VOBT8MFKQE0B7O9,37UEWGM5HXOO55J3HPY54KU5GF0R1B,4,3
230,1,object_06,object_03,426.20000001788,2,2,532.09999999404,0.3333333333333333,2,object_01,1,2887,0,9,3,desert_5,1,memory-2step-stake-s,726,2878804,0.0-19.0-0.1-0.230,A2FCQ5K0T1PYHS,3X4Q1O9UCK2WXV8VOBT8MFKQE0B7O9,37UEWGM5HXOO55J3HPY54KU5GF0R1B,1,2
231,3,object_09,object_05,348.30000001192,6,2,339.5,0.4444444444444444,2,object_01,5,2907,0,9,4,library_3,1,memory-2step-stake-s,727,2886761,0.0-19.0-0.1-0.231,A2FCQ5K0T1PYHS,3X4Q1O9UCK2WXV8VOBT8MFKQE0B7O9,37UEWGM5HXOO55J3HPY54KU5GF0R1B,5,6
232,1,object_06,object_03,690.90000000596,1,1,420.09999999404,0.8888888888888888,1,object_08,5,2947,0,8,5,desert_3,1,memory-2step-stake-s,728,2895205,0.0-19.0-0.1-0.232,A2FCQ5K0T1PYHS,3X4Q1O9UCK2WXV8VOBT8MFKQE0B7O9,37UEWGM5HXOO55J3HPY54KU5GF0R1B,1,2
233,1,object_06,object_03,456.09999999404,2,2,300.0,0.4444444444444444,2,object_01,1,2951,0,6,4,desert_2,1,memory-2step-stake-s,729,2903123,0.0-19.0-0.1-0.233,A2FCQ5K0T1PYHS,3X4Q1O9UCK2WXV8VOBT8MFKQE0B7O9,37UEWGM5HXOO55J3HPY54KU5GF0R1B,1,2
234,3,object_05,object_09,292.59999999404,6,1,289.40000000596,0.4444444444444444,2,object_01,1,2955,0,8,4,library_1,1,memory-2step-stake-s,730,2911029,0.0-19.0-0.1-0.234,A2FCQ5K0T1PYHS,3X4Q1O9UCK2WXV8VOBT8MFKQE0B7O9,37UEWGM5HXOO55J3HPY54KU5GF0R1B,6,5
235,1,object_06,object_03,333.10000002384,2,2,367.80000001192,0.6666666666666666,2,object_01,1,2961,0,5,6,desert_5,1,memory-2step-stake-s,731,2919230,0.0-19.0-0.1-0.235,A2FCQ5K0T1PYHS,3X4Q1O9UCK2WXV8VOBT8MFKQE0B7O9,37UEWGM5HXOO55J3HPY54KU5GF0R1B,1,2
236,3,object_09,object_05,722.19999998808,6,2,396.0,0.6666666666666666,2,object_01,5,2991,0,8,6,library_8,1,memory-2step-stake-s,732,2927461,0.0-19.0-0.1-0.236,A2FCQ5K0T1PYHS,3X4Q1O9UCK2WXV8VOBT8MFKQE0B7O9,37UEWGM5HXOO55J3HPY54KU5GF0R1B,5,6
237,1,object_03,object_06,413.10000002384,2,1,294.59999999404,0.8888888888888888,2,object_01,5,3031,0,8,8,desert_5,1,memory-2step-stake-s,733,2935777,0.0-19.0-0.1-0.237,A2FCQ5K0T1PYHS,3X4Q1O9UCK2WXV8VOBT8MFKQE0B7O9,37UEWGM5HXOO55J3HPY54KU5GF0R1B,2,1
238,1,object_06,object_03,334.5,2,2,239.09999999404,0.8888888888888888,2,object_01,1,3039,0,7,8,desert_2,1,memory-2step-stake-s,734,2944042,0.0-19.0-0.1-0.238,A2FCQ5K0T1PYHS,3X4Q1O9UCK2WXV8VOBT8MFKQE0B7O9,37UEWGM5HXOO55J3HPY54KU5GF0R1B,1,2
239,2,object_04,object_10,526.89999997616,3,1,425.39999997616,0.7777777777777778,1,object_08,1,3046,0,7,8,forest_1,1,memory-2step-stake-s,735,2952387,0.0-19.0-0.1-0.239,A2FCQ5K0T1PYHS,3X4Q1O9UCK2WXV8VOBT8MFKQE0B7O9,37UEWGM5HXOO55J3HPY54KU5GF0R1B,3,4
240,4,object_02,object_07,472.59999999404,8,1,305.20000001788,0.6666666666666666,2,object_01,5,3076,0,8,6,restaurant_1,1,memory-2step-stake-s,736,2960510,0.0-19.0-0.1-0.240,A2FCQ5K0T1PYHS,3X4Q1O9UCK2WXV8VOBT8MFKQE0B7O9,37UEWGM5HXOO55J3HPY54KU5GF0R1B,8,7
241,4,object_02,object_07,464.0,8,1,345.59999999404,0.5555555555555556,2,object_01,5,3101,0,8,5,restaurant_3,1,memory-2step-stake-s,737,2968576,0.0-19.0-0.1-0.241,A2FCQ5K0T1PYHS,3X4Q1O9UCK2WXV8VOBT8MFKQE0B7O9,37UEWGM5HXOO55J3HPY54KU5GF0R1B,8,7
242,3,object_09,object_05,740.19999998808,6,2,633.30000001192,0.5555555555555556,2,object_01,5,3126,0,8,5,library_7,1,memory-2step-stake-s,738,2976934,0.0-19.0-0.1-0.242,A2FCQ5K0T1PYHS,3X4Q1O9UCK2WXV8VOBT8MFKQE0B7O9,37UEWGM5HXOO55J3HPY54KU5GF0R1B,5,6
243,2,object_04,object_10,863.40000000596,3,1,385.10000002384,0.8888888888888888,1,object_08,1,3134,0,8,4,forest_7,1,memory-2step-stake-s,739,2985348,0.0-19.0-0.1-0.243,A2FCQ5K0T1PYHS,3X4Q1O9UCK2WXV8VOBT8MFKQE0B7O9,37UEWGM5HXOO55J3HPY54KU5GF0R1B,3,4
244,3,object_09,object_05,489.79999998212,6,2,326.10000002384,0.6666666666666666,2,object_01,5,3164,0,8,6,library_8,1,memory-2step-stake-s,740,2993499,0.0-19.0-0.1-0.244,A2FCQ5K0T1PYHS,3X4Q1O9UCK2WXV8VOBT8MFKQE0B7O9,37UEWGM5HXOO55J3HPY54KU5GF0R1B,5,6
245,2,object_04,object_10,778.60000002384,4,2,346.59999999404,0.8888888888888888,2,object_01,5,3204,0,4,8,forest_1,1,memory-2step-stake-s,741,3001873,0.0-19.0-0.1-0.245,A2FCQ5K0T1PYHS,3X4Q1O9UCK2WXV8VOBT8MFKQE0B7O9,37UEWGM5HXOO55J3HPY54KU5GF0R1B,3,4
246,1,object_06,object_03,303.69999998808,1,1,324.79999998212,0.6666666666666666,1,object_08,1,3210,0,6,7,desert_5,1,memory-2step-stake-s,742,3010025,0.0-19.0-0.1-0.246,A2FCQ5K0T1PYHS,3X4Q1O9UCK2WXV8VOBT8MFKQE0B7O9,37UEWGM5HXOO55J3HPY54KU5GF0R1B,1,2
247,1,object_06,object_03,367.09999999404,1,1,441.79999998212,0.5555555555555556,1,object_08,1,3215,0,5,6,desert_3,1,memory-2step-stake-s,743,3018186,0.0-19.0-0.1-0.247,A2FCQ5K0T1PYHS,3X4Q1O9UCK2WXV8VOBT8MFKQE0B7O9,37UEWGM5HXOO55J3HPY54KU5GF0R1B,1,2
248,3,object_05,object_09,686.59999999404,6,1,439.09999999404,0.6666666666666666,2,object_01,5,3245,0,3,6,library_7,1,memory-2step-stake-s,744,3026463,0.0-19.0-0.1-0.248,A2FCQ5K0T1PYHS,3X4Q1O9UCK2WXV8VOBT8MFKQE0B7O9,37UEWGM5HXOO55J3HPY54KU5GF0R1B,6,5
249,4,object_02,object_07,651.40000000596,8,1,520.40000000596,0.6666666666666666,2,object_01,1,3251,0,3,6,restaurant_1,1,memory-2step-stake-s,745,3034805,0.0-19.0-0.1-0.249,A2FCQ5K0T1PYHS,3X4Q1O9UCK2WXV8VOBT8MFKQE0B7O9,37UEWGM5HXOO55J3HPY54KU5GF0R1B,8,7
250,4,object_02,object_07,449.80000001192,8,1,294.90000000596,0.7777777777777778,2,object_01,5,3286,0,1,7,restaurant_4,1,memory-2step-stake-s,746,3043024,0.0-19.0-0.1-0.250,A2FCQ5K0T1PYHS,3X4Q1O9UCK2WXV8VOBT8MFKQE0B7O9,37UEWGM5HXOO55J3HPY54KU5GF0R1B,8,7
251,4,object_02,object_07,446.80000001192,8,1,453.59999999404,0.6666666666666666,2,object_01,5,3316,0,0,6,restaurant_3,1,memory-2step-stake-s,747,3051313,0.0-19.0-0.1-0.251,A2FCQ5K0T1PYHS,3X4Q1O9UCK2WXV8VOBT8MFKQE0B7O9,37UEWGM5HXOO55J3HPY54KU5GF0R1B,8,7
252,1,object_06,object_03,343.40000000596,2,2,313.59999999404,0.7777777777777778,2,object_01,1,3323,0,2,7,desert_5,1,memory-2step-stake-s,748,3059566,0.0-19.0-0.1-0.252,A2FCQ5K0T1PYHS,3X4Q1O9UCK2WXV8VOBT8MFKQE0B7O9,37UEWGM5HXOO55J3HPY54KU5GF0R1B,1,2
253,2,object_04,object_10,405.19999998808,3,1,439.5,0.1111111111111111,1,object_08,1,3324,0,1,8,forest_7,1,memory-2step-stake-s,749,3067320,0.0-19.0-0.1-0.253,A2FCQ5K0T1PYHS,3X4Q1O9UCK2WXV8VOBT8MFKQE0B7O9,37UEWGM5HXOO55J3HPY54KU5GF0R1B,3,4
254,1,object_06,object_03,292.29999998212,2,2,299.09999999404,0.7777777777777778,2,object_01,1,3331,0,3,7,desert_5,1,memory-2step-stake-s,750,3075546,0.0-19.0-0.1-0.254,A2FCQ5K0T1PYHS,3X4Q1O9UCK2WXV8VOBT8MFKQE0B7O9,37UEWGM5HXOO55J3HPY54KU5GF0R1B,1,2
255,3,object_05,object_09,517.90000000596,6,1,320.69999998808,0.7777777777777778,2,object_01,1,3338,0,5,7,library_1,1,memory-2step-stake-s,751,3083801,0.0-19.0-0.1-0.255,A2FCQ5K0T1PYHS,3X4Q1O9UCK2WXV8VOBT8MFKQE0B7O9,37UEWGM5HXOO55J3HPY54KU5GF0R1B,6,5
