,state1,stim_left,stim_right,rt_1,choice1,response1,rt_2,points,state2,stim_state2,stake,score,practice,rews1,rews2,background,high_arm,trial_type,trial_index,time_elapsed,internal_node_id,subid,hitid,assignmentid,stim_left_num,stim_right_num
0,4,object_04,object_09,908.10499992222,8,1,-1.0,0.0,2,object_08,1,0,0,6,1,restaurant_5,2,memory-2step-stake-s,492,1918118,0.0-19.0-0.0-0.0,A2D6VL5XE0O4D3,3HRWUH63RXIZS6U0Z3EY966PXK25N4,3AZHRG4CU80WFEDJAGT98H8F57003V,8,7
1,3,object_10,object_03,1009.9450000562,5,1,-1.0,0.0,1,object_01,1,0,0,4,3,library_4,2,memory-2step-stake-s,493,1926675,0.0-19.0-0.0-0.1,A2D6VL5XE0O4D3,3HRWUH63RXIZS6U0Z3EY966PXK25N4,3AZHRG4CU80WFEDJAGT98H8F57003V,5,6
2,2,object_05,object_06,1472.5249998737,4,2,-1.0,0.0,2,object_08,5,0,0,1,6,forest_7,2,memory-2step-stake-s,494,1935232,0.0-19.0-0.0-0.2,A2D6VL5XE0O4D3,3HRWUH63RXIZS6U0Z3EY966PXK25N4,3AZHRG4CU80WFEDJAGT98H8F57003V,3,4
3,1,object_02,object_07,-1.0,-1,-1,-1.0,0.0,-,0,1,0,0,1,6,desert_4,2,memory-2step-stake-s,495,1941778,0.0-19.0-0.0-0.3,A2D6VL5XE0O4D3,3HRWUH63RXIZS6U0Z3EY966PXK25N4,3AZHRG4CU80WFEDJAGT98H8F57003V,2,1
4,3,object_10,object_03,830.39500005543,6,2,-1.0,0.0,2,object_08,5,0,0,3,6,library_6,2,memory-2step-stake-s,496,1950349,0.0-19.0-0.0-0.4,A2D6VL5XE0O4D3,3HRWUH63RXIZS6U0Z3EY966PXK25N4,3AZHRG4CU80WFEDJAGT98H8F57003V,5,6
5,3,object_10,object_03,477.32999990694,6,2,327.59499992244,0.7777777777777778,2,object_08,5,35,0,5,7,library_1,2,memory-2step-stake-s,497,1958704,0.0-19.0-0.0-0.5,A2D6VL5XE0O4D3,3HRWUH63RXIZS6U0Z3EY966PXK25N4,3AZHRG4CU80WFEDJAGT98H8F57003V,5,6
6,2,object_05,object_06,512.43999996223,4,2,362.96999990009,0.8888888888888888,2,object_08,5,75,0,2,8,forest_7,2,memory-2step-stake-s,498,1967205,0.0-19.0-0.0-0.6,A2D6VL5XE0O4D3,3HRWUH63RXIZS6U0Z3EY966PXK25N4,3AZHRG4CU80WFEDJAGT98H8F57003V,3,4
7,2,object_05,object_06,420.07500003092,4,2,464.04500002973,1.0,2,object_08,5,120,0,2,9,forest_5,2,memory-2step-stake-s,499,1975931,0.0-19.0-0.0-0.7,A2D6VL5XE0O4D3,3HRWUH63RXIZS6U0Z3EY966PXK25N4,3AZHRG4CU80WFEDJAGT98H8F57003V,3,4
8,3,object_10,object_03,841.65000007488,6,2,515.76000009663,0.6666666666666666,2,object_08,1,126,0,1,6,library_1,2,memory-2step-stake-s,500,1984393,0.0-19.0-0.0-0.8,A2D6VL5XE0O4D3,3HRWUH63RXIZS6U0Z3EY966PXK25N4,3AZHRG4CU80WFEDJAGT98H8F57003V,5,6
9,3,object_10,object_03,576.00499992259,6,2,322.85000011325,0.7777777777777778,2,object_08,1,133,0,1,7,library_1,2,memory-2step-stake-s,501,1992748,0.0-19.0-0.0-0.9,A2D6VL5XE0O4D3,3HRWUH63RXIZS6U0Z3EY966PXK25N4,3AZHRG4CU80WFEDJAGT98H8F57003V,5,6
10,4,object_04,object_09,699.73999983631,7,2,545.66500009969,0.2222222222222222,1,object_01,1,135,0,2,8,restaurant_1,2,memory-2step-stake-s,502,2000785,0.0-19.0-0.0-0.10,A2D6VL5XE0O4D3,3HRWUH63RXIZS6U0Z3EY966PXK25N4,3AZHRG4CU80WFEDJAGT98H8F57003V,8,7
11,2,object_05,object_06,544.69000012614,4,2,448.18000006489,0.7777777777777778,2,object_08,5,170,0,2,7,forest_8,2,memory-2step-stake-s,503,2009262,0.0-19.0-0.0-0.11,A2D6VL5XE0O4D3,3HRWUH63RXIZS6U0Z3EY966PXK25N4,3AZHRG4CU80WFEDJAGT98H8F57003V,3,4
12,3,object_10,object_03,617.58500011638,6,2,527.87499991246,0.8888888888888888,2,object_08,1,178,0,0,8,library_6,2,memory-2step-stake-s,504,2017923,0.0-19.0-0.0-0.12,A2D6VL5XE0O4D3,3HRWUH63RXIZS6U0Z3EY966PXK25N4,3AZHRG4CU80WFEDJAGT98H8F57003V,5,6
13,4,object_09,object_04,736.76999984309,8,2,336.45499986596,0.8888888888888888,2,object_08,1,186,0,0,8,restaurant_5,2,memory-2step-stake-s,505,2026428,0.0-19.0-0.0-0.13,A2D6VL5XE0O4D3,3HRWUH63RXIZS6U0Z3EY966PXK25N4,3AZHRG4CU80WFEDJAGT98H8F57003V,7,8
14,3,object_03,object_10,632.75000010617,6,1,442.90999998339,0.8888888888888888,2,object_08,1,194,0,2,8,library_3,2,memory-2step-stake-s,506,2034981,0.0-19.0-0.0-0.14,A2D6VL5XE0O4D3,3HRWUH63RXIZS6U0Z3EY966PXK25N4,3AZHRG4CU80WFEDJAGT98H8F57003V,6,5
15,4,object_04,object_09,993.58500004746,7,2,583.48000003025,0.2222222222222222,1,object_01,1,196,0,2,8,restaurant_5,2,memory-2step-stake-s,507,2043063,0.0-19.0-0.0-0.15,A2D6VL5XE0O4D3,3HRWUH63RXIZS6U0Z3EY966PXK25N4,3AZHRG4CU80WFEDJAGT98H8F57003V,8,7
16,1,object_07,object_02,1146.8849999364,2,2,559.20500005595,0.7777777777777778,2,object_08,5,231,0,0,7,desert_3,2,memory-2step-stake-s,508,2051648,0.0-19.0-0.0-0.16,A2D6VL5XE0O4D3,3HRWUH63RXIZS6U0Z3EY966PXK25N4,3AZHRG4CU80WFEDJAGT98H8F57003V,1,2
17,2,object_05,object_06,624.97500004247,4,2,259.25999996252,0.5555555555555556,2,object_08,5,256,0,2,5,forest_8,2,memory-2step-stake-s,509,2059673,0.0-19.0-0.0-0.17,A2D6VL5XE0O4D3,3HRWUH63RXIZS6U0Z3EY966PXK25N4,3AZHRG4CU80WFEDJAGT98H8F57003V,3,4
18,2,object_06,object_05,656.74999984913,4,1,314.46500006132,0.6666666666666666,2,object_08,5,286,0,1,6,forest_3,2,memory-2step-stake-s,510,2067879,0.0-19.0-0.0-0.18,A2D6VL5XE0O4D3,3HRWUH63RXIZS6U0Z3EY966PXK25N4,3AZHRG4CU80WFEDJAGT98H8F57003V,4,3
19,4,object_04,object_09,637.8450000193,8,1,466.61000000313,0.7777777777777778,2,object_08,1,293,0,3,7,restaurant_1,2,memory-2step-stake-s,511,2076393,0.0-19.0-0.0-0.19,A2D6VL5XE0O4D3,3HRWUH63RXIZS6U0Z3EY966PXK25N4,3AZHRG4CU80WFEDJAGT98H8F57003V,8,7
20,4,object_09,object_04,909.55000021495,8,2,383.48999992013,0.7777777777777778,2,object_08,5,328,0,0,7,restaurant_2,2,memory-2step-stake-s,512,2084835,0.0-19.0-0.0-0.20,A2D6VL5XE0O4D3,3HRWUH63RXIZS6U0Z3EY966PXK25N4,3AZHRG4CU80WFEDJAGT98H8F57003V,7,8
21,3,object_03,object_10,747.51499993727,6,1,353.28999999911,0.6666666666666666,2,object_08,1,334,0,0,6,library_6,2,memory-2step-stake-s,513,2093092,0.0-19.0-0.0-0.21,A2D6VL5XE0O4D3,3HRWUH63RXIZS6U0Z3EY966PXK25N4,3AZHRG4CU80WFEDJAGT98H8F57003V,6,5
22,2,object_06,object_05,1052.3500000127,4,1,325.17499988899,0.6666666666666666,2,object_08,5,364,0,3,6,forest_5,2,memory-2step-stake-s,514,2101330,0.0-19.0-0.0-0.22,A2D6VL5XE0O4D3,3HRWUH63RXIZS6U0Z3EY966PXK25N4,3AZHRG4CU80WFEDJAGT98H8F57003V,4,3
23,4,object_04,object_09,724.31499999948,7,2,260.83000004292,0.3333333333333333,1,object_01,1,367,0,3,5,restaurant_1,2,memory-2step-stake-s,515,2109156,0.0-19.0-0.0-0.23,A2D6VL5XE0O4D3,3HRWUH63RXIZS6U0Z3EY966PXK25N4,3AZHRG4CU80WFEDJAGT98H8F57003V,8,7
24,2,object_05,object_06,795.38999986835,4,2,301.87999992631,0.4444444444444444,2,object_08,5,387,0,8,4,forest_3,2,memory-2step-stake-s,516,2117145,0.0-19.0-0.0-0.24,A2D6VL5XE0O4D3,3HRWUH63RXIZS6U0Z3EY966PXK25N4,3AZHRG4CU80WFEDJAGT98H8F57003V,3,4
25,4,object_04,object_09,1143.825000152,7,2,307.24500003271,1.0,1,object_01,1,396,0,9,3,restaurant_3,2,memory-2step-stake-s,517,2125733,0.0-19.0-0.0-0.25,A2D6VL5XE0O4D3,3HRWUH63RXIZS6U0Z3EY966PXK25N4,3AZHRG4CU80WFEDJAGT98H8F57003V,8,7
26,2,object_05,object_06,824.98000003397,3,1,264.93000006303,0.5555555555555556,1,object_01,5,421,0,5,2,forest_3,2,memory-2step-stake-s,518,2133800,0.0-19.0-0.0-0.26,A2D6VL5XE0O4D3,3HRWUH63RXIZS6U0Z3EY966PXK25N4,3AZHRG4CU80WFEDJAGT98H8F57003V,3,4
27,3,object_10,object_03,815.39000011981,5,1,326.72000001185,0.5555555555555556,1,object_01,1,426,0,5,5,library_6,2,memory-2step-stake-s,519,2141945,0.0-19.0-0.0-0.27,A2D6VL5XE0O4D3,3HRWUH63RXIZS6U0Z3EY966PXK25N4,3AZHRG4CU80WFEDJAGT98H8F57003V,5,6
28,4,object_04,object_09,1393.7999999616,8,1,270.5099999439,0.1111111111111111,2,object_08,5,431,0,6,1,restaurant_3,2,memory-2step-stake-s,520,2149580,0.0-19.0-0.0-0.28,A2D6VL5XE0O4D3,3HRWUH63RXIZS6U0Z3EY966PXK25N4,3AZHRG4CU80WFEDJAGT98H8F57003V,8,7
29,4,object_09,object_04,1396.5450001415,7,1,288.11999992467,0.4444444444444444,1,object_01,5,451,0,4,0,restaurant_1,2,memory-2step-stake-s,521,2157578,0.0-19.0-0.0-0.29,A2D6VL5XE0O4D3,3HRWUH63RXIZS6U0Z3EY966PXK25N4,3AZHRG4CU80WFEDJAGT98H8F57003V,7,8
30,3,object_10,object_03,1151.8199997954,5,1,337.17000018805,0.6666666666666666,1,object_01,1,457,0,6,2,library_1,2,memory-2step-stake-s,522,2165826,0.0-19.0-0.0-0.30,A2D6VL5XE0O4D3,3HRWUH63RXIZS6U0Z3EY966PXK25N4,3AZHRG4CU80WFEDJAGT98H8F57003V,5,6
31,3,object_03,object_10,827.13500014506,5,2,489.64000004344,1.0,1,object_01,1,466,0,9,1,library_4,2,memory-2step-stake-s,523,2174548,0.0-19.0-0.0-0.31,A2D6VL5XE0O4D3,3HRWUH63RXIZS6U0Z3EY966PXK25N4,3AZHRG4CU80WFEDJAGT98H8F57003V,6,5
32,2,object_05,object_06,663.65500004031,3,1,352.82499995083,1.0,1,object_01,5,511,0,9,3,forest_7,2,memory-2step-stake-s,524,2183120,0.0-19.0-0.0-0.32,A2D6VL5XE0O4D3,3HRWUH63RXIZS6U0Z3EY966PXK25N4,3AZHRG4CU80WFEDJAGT98H8F57003V,3,4
33,1,object_02,object_07,1127.9700000305,2,1,286.79000004195,0.4444444444444444,2,object_08,5,531,0,8,4,desert_3,2,memory-2step-stake-s,525,2191087,0.0-19.0-0.0-0.33,A2D6VL5XE0O4D3,3HRWUH63RXIZS6U0Z3EY966PXK25N4,3AZHRG4CU80WFEDJAGT98H8F57003V,2,1
34,2,object_05,object_06,805.50000001676,3,1,289.41500000656,0.7777777777777778,1,object_01,5,566,0,7,3,forest_8,2,memory-2step-stake-s,526,2199360,0.0-19.0-0.0-0.34,A2D6VL5XE0O4D3,3HRWUH63RXIZS6U0Z3EY966PXK25N4,3AZHRG4CU80WFEDJAGT98H8F57003V,3,4
35,4,object_09,object_04,943.60999995843,7,1,294.01999991387,0.7777777777777778,1,object_01,5,601,0,7,3,restaurant_3,2,memory-2step-stake-s,527,2207726,0.0-19.0-0.0-0.35,A2D6VL5XE0O4D3,3HRWUH63RXIZS6U0Z3EY966PXK25N4,3AZHRG4CU80WFEDJAGT98H8F57003V,7,8
36,4,object_04,object_09,882.2100001853,7,2,262.9799998831,0.8888888888888888,1,object_01,1,609,0,8,1,restaurant_3,2,memory-2step-stake-s,528,2216081,0.0-19.0-0.0-0.36,A2D6VL5XE0O4D3,3HRWUH63RXIZS6U0Z3EY966PXK25N4,3AZHRG4CU80WFEDJAGT98H8F57003V,8,7
37,3,object_03,object_10,1028.5250002053,5,2,270.82500001416,0.7777777777777778,1,object_01,1,616,0,7,2,library_3,2,memory-2step-stake-s,529,2224393,0.0-19.0-0.0-0.37,A2D6VL5XE0O4D3,3HRWUH63RXIZS6U0Z3EY966PXK25N4,3AZHRG4CU80WFEDJAGT98H8F57003V,6,5
38,4,object_04,object_09,788.09499996714,7,2,296.27999989316,0.8888888888888888,1,object_01,5,656,0,8,1,restaurant_1,2,memory-2step-stake-s,530,2232844,0.0-19.0-0.0-0.38,A2D6VL5XE0O4D3,3HRWUH63RXIZS6U0Z3EY966PXK25N4,3AZHRG4CU80WFEDJAGT98H8F57003V,8,7
39,4,object_04,object_09,732.91500005871,7,2,1502.0850000437,0.7777777777777778,1,object_01,1,663,0,7,0,restaurant_2,2,memory-2step-stake-s,531,2242344,0.0-19.0-0.0-0.39,A2D6VL5XE0O4D3,3HRWUH63RXIZS6U0Z3EY966PXK25N4,3AZHRG4CU80WFEDJAGT98H8F57003V,8,7
40,3,object_03,object_10,871.83499988168,5,2,422.40000003949,1.0,1,object_01,1,672,0,9,4,library_3,2,memory-2step-stake-s,532,2251012,0.0-19.0-0.0-0.40,A2D6VL5XE0O4D3,3HRWUH63RXIZS6U0Z3EY966PXK25N4,3AZHRG4CU80WFEDJAGT98H8F57003V,6,5
41,3,object_10,object_03,654.59499997087,5,1,399.45000014268,0.8888888888888888,1,object_01,1,680,0,8,4,library_1,2,memory-2step-stake-s,533,2259520,0.0-19.0-0.0-0.41,A2D6VL5XE0O4D3,3HRWUH63RXIZS6U0Z3EY966PXK25N4,3AZHRG4CU80WFEDJAGT98H8F57003V,5,6
42,1,object_02,object_07,902.31000003405,1,2,252.92999995872,0.8888888888888888,1,object_01,5,720,0,8,3,desert_2,2,memory-2step-stake-s,534,2267925,0.0-19.0-0.0-0.42,A2D6VL5XE0O4D3,3HRWUH63RXIZS6U0Z3EY966PXK25N4,3AZHRG4CU80WFEDJAGT98H8F57003V,2,1
43,4,object_09,object_04,744.26000006497,7,1,303.07999998331,0.7777777777777778,1,object_01,1,727,0,7,0,restaurant_3,2,memory-2step-stake-s,535,2276260,0.0-19.0-0.0-0.43,A2D6VL5XE0O4D3,3HRWUH63RXIZS6U0Z3EY966PXK25N4,3AZHRG4CU80WFEDJAGT98H8F57003V,7,8
44,2,object_05,object_06,720.36999999546,3,1,453.98500002921,0.8888888888888888,1,object_01,5,767,0,8,2,forest_5,2,memory-2step-stake-s,536,2284823,0.0-19.0-0.0-0.44,A2D6VL5XE0O4D3,3HRWUH63RXIZS6U0Z3EY966PXK25N4,3AZHRG4CU80WFEDJAGT98H8F57003V,3,4
45,2,object_06,object_05,1119.5799999405,3,2,313.98999993689,0.8888888888888888,1,object_01,5,807,0,8,2,forest_7,2,memory-2step-stake-s,537,2293289,0.0-19.0-0.0-0.45,A2D6VL5XE0O4D3,3HRWUH63RXIZS6U0Z3EY966PXK25N4,3AZHRG4CU80WFEDJAGT98H8F57003V,4,3
46,1,object_02,object_07,1092.8199999034,1,2,360.52000010386,0.7777777777777778,1,object_01,5,842,0,7,2,desert_2,2,memory-2step-stake-s,538,2301677,0.0-19.0-0.0-0.46,A2D6VL5XE0O4D3,3HRWUH63RXIZS6U0Z3EY966PXK25N4,3AZHRG4CU80WFEDJAGT98H8F57003V,2,1
47,2,object_06,object_05,909.5850000158,4,1,260.60999999754,0.2222222222222222,2,object_08,1,844,0,9,2,forest_7,2,memory-2step-stake-s,539,2309425,0.0-19.0-0.0-0.47,A2D6VL5XE0O4D3,3HRWUH63RXIZS6U0Z3EY966PXK25N4,3AZHRG4CU80WFEDJAGT98H8F57003V,4,3
48,4,object_04,object_09,854.94999983348,7,2,278.92999979667,0.7777777777777778,1,object_01,1,851,0,7,0,restaurant_1,2,memory-2step-stake-s,540,2317730,0.0-19.0-0.0-0.48,A2D6VL5XE0O4D3,3HRWUH63RXIZS6U0Z3EY966PXK25N4,3AZHRG4CU80WFEDJAGT98H8F57003V,8,7
49,3,object_10,object_03,974.31499999948,5,1,364.04500016943,0.3333333333333333,1,object_01,1,854,0,3,2,library_6,2,memory-2step-stake-s,541,2325679,0.0-19.0-0.0-0.49,A2D6VL5XE0O4D3,3HRWUH63RXIZS6U0Z3EY966PXK25N4,3AZHRG4CU80WFEDJAGT98H8F57003V,5,6
50,3,object_10,object_03,953.99000006728,6,2,300.26999977417,0.1111111111111111,2,object_08,1,855,0,1,1,library_4,2,memory-2step-stake-s,542,2333342,0.0-19.0-0.0-0.50,A2D6VL5XE0O4D3,3HRWUH63RXIZS6U0Z3EY966PXK25N4,3AZHRG4CU80WFEDJAGT98H8F57003V,5,6
51,1,object_07,object_02,1172.3700000439,1,1,343.82000006735,0.2222222222222222,1,object_01,5,865,0,2,3,desert_2,2,memory-2step-stake-s,543,2341178,0.0-19.0-0.0-0.51,A2D6VL5XE0O4D3,3HRWUH63RXIZS6U0Z3EY966PXK25N4,3AZHRG4CU80WFEDJAGT98H8F57003V,1,2
52,4,object_04,object_09,1040.4250000138,8,1,243.0549999699,0.3333333333333333,2,object_08,1,868,0,3,3,restaurant_3,2,memory-2step-stake-s,544,2349005,0.0-19.0-0.0-0.52,A2D6VL5XE0O4D3,3HRWUH63RXIZS6U0Z3EY966PXK25N4,3AZHRG4CU80WFEDJAGT98H8F57003V,8,7
53,4,object_04,object_09,999.65500016697,8,1,312.24499992095,0.4444444444444444,2,object_08,1,872,0,7,4,restaurant_2,2,memory-2step-stake-s,545,2357025,0.0-19.0-0.0-0.53,A2D6VL5XE0O4D3,3HRWUH63RXIZS6U0Z3EY966PXK25N4,3AZHRG4CU80WFEDJAGT98H8F57003V,8,7
54,3,object_03,object_10,632.1600000374,6,1,493.83000005037,0.4444444444444444,2,object_08,1,876,0,9,4,library_6,2,memory-2step-stake-s,546,2365200,0.0-19.0-0.0-0.54,A2D6VL5XE0O4D3,3HRWUH63RXIZS6U0Z3EY966PXK25N4,3AZHRG4CU80WFEDJAGT98H8F57003V,6,5
55,1,object_02,object_07,862.85999999382,2,1,316.61500013433,0.6666666666666666,2,object_08,5,906,0,7,6,desert_3,2,memory-2step-stake-s,547,2373440,0.0-19.0-0.0-0.55,A2D6VL5XE0O4D3,3HRWUH63RXIZS6U0Z3EY966PXK25N4,3AZHRG4CU80WFEDJAGT98H8F57003V,2,1
56,4,object_04,object_09,925.18500005826,8,1,269.69500002451,0.8888888888888888,2,object_08,1,914,0,8,8,restaurant_5,2,memory-2step-stake-s,548,2381874,0.0-19.0-0.0-0.56,A2D6VL5XE0O4D3,3HRWUH63RXIZS6U0Z3EY966PXK25N4,3AZHRG4CU80WFEDJAGT98H8F57003V,8,7
57,3,object_03,object_10,598.49000000395,6,1,241.11999990419,0.8888888888888888,2,object_08,1,922,0,5,8,library_3,2,memory-2step-stake-s,549,2390242,0.0-19.0-0.0-0.57,A2D6VL5XE0O4D3,3HRWUH63RXIZS6U0Z3EY966PXK25N4,3AZHRG4CU80WFEDJAGT98H8F57003V,6,5
58,3,object_10,object_03,681.91500008106,6,2,284.31499982253,1.0,2,object_08,1,931,0,5,9,library_1,2,memory-2step-stake-s,550,2398773,0.0-19.0-0.0-0.58,A2D6VL5XE0O4D3,3HRWUH63RXIZS6U0Z3EY966PXK25N4,3AZHRG4CU80WFEDJAGT98H8F57003V,5,6
59,1,object_02,object_07,909.12500000559,2,1,390.46999998391,0.8888888888888888,2,object_08,5,971,0,7,8,desert_8,2,memory-2step-stake-s,551,2407301,0.0-19.0-0.0-0.59,A2D6VL5XE0O4D3,3HRWUH63RXIZS6U0Z3EY966PXK25N4,3AZHRG4CU80WFEDJAGT98H8F57003V,2,1
60,4,object_09,object_04,670.61499995179,8,2,299.46500016376,0.4444444444444444,2,object_08,1,975,0,7,4,restaurant_5,2,memory-2step-stake-s,552,2415307,0.0-19.0-0.0-0.60,A2D6VL5XE0O4D3,3HRWUH63RXIZS6U0Z3EY966PXK25N4,3AZHRG4CU80WFEDJAGT98H8F57003V,7,8
61,1,object_02,object_07,801.58500000834,2,1,426.39499995857,0.4444444444444444,2,object_08,5,995,0,6,4,desert_3,2,memory-2step-stake-s,553,2423435,0.0-19.0-0.0-0.61,A2D6VL5XE0O4D3,3HRWUH63RXIZS6U0Z3EY966PXK25N4,3AZHRG4CU80WFEDJAGT98H8F57003V,2,1
62,2,object_05,object_06,884.6950000152,4,2,310.38999999873,0.2222222222222222,2,object_08,5,1005,0,5,2,forest_8,2,memory-2step-stake-s,554,2431251,0.0-19.0-0.0-0.62,A2D6VL5XE0O4D3,3HRWUH63RXIZS6U0Z3EY966PXK25N4,3AZHRG4CU80WFEDJAGT98H8F57003V,3,4
63,4,object_04,object_09,1022.4750000052,7,2,310.79000001773,0.5555555555555556,1,object_01,5,1030,0,5,1,restaurant_1,2,memory-2step-stake-s,555,2439407,0.0-19.0-0.0-0.63,A2D6VL5XE0O4D3,3HRWUH63RXIZS6U0Z3EY966PXK25N4,3AZHRG4CU80WFEDJAGT98H8F57003V,8,7
64,4,object_09,object_04,681.18999991566,7,1,470.69499990903,0.7777777777777778,1,object_01,1,1037,0,7,0,restaurant_2,2,memory-2step-stake-s,556,2447867,0.0-19.0-0.0-0.64,A2D6VL5XE0O4D3,3HRWUH63RXIZS6U0Z3EY966PXK25N4,3AZHRG4CU80WFEDJAGT98H8F57003V,7,8
65,4,object_09,object_04,606.36999993585,7,1,275.37499996834,0.5555555555555556,1,object_01,1,1042,0,5,0,restaurant_5,2,memory-2step-stake-s,557,2455935,0.0-19.0-0.0-0.65,A2D6VL5XE0O4D3,3HRWUH63RXIZS6U0Z3EY966PXK25N4,3AZHRG4CU80WFEDJAGT98H8F57003V,7,8
66,1,object_07,object_02,968.06499990635,1,1,321.28500007093,0.1111111111111111,1,object_01,5,1047,0,1,0,desert_4,2,memory-2step-stake-s,558,2463619,0.0-19.0-0.0-0.66,A2D6VL5XE0O4D3,3HRWUH63RXIZS6U0Z3EY966PXK25N4,3AZHRG4CU80WFEDJAGT98H8F57003V,1,2
67,3,object_10,object_03,727.74500004016,6,2,292.36999992281,0.2222222222222222,2,object_08,1,1049,0,5,2,library_1,2,memory-2step-stake-s,559,2471382,0.0-19.0-0.0-0.67,A2D6VL5XE0O4D3,3HRWUH63RXIZS6U0Z3EY966PXK25N4,3AZHRG4CU80WFEDJAGT98H8F57003V,5,6
68,1,object_07,object_02,595.90000007302,2,2,283.48500002176,0.4444444444444444,2,object_08,5,1069,0,4,4,desert_8,2,memory-2step-stake-s,560,2479389,0.0-19.0-0.0-0.68,A2D6VL5XE0O4D3,3HRWUH63RXIZS6U0Z3EY966PXK25N4,3AZHRG4CU80WFEDJAGT98H8F57003V,1,2
69,3,object_03,object_10,490.4899999965,6,1,631.77999993786,0.2222222222222222,2,object_08,5,1079,0,7,2,library_6,2,memory-2step-stake-s,561,2487534,0.0-19.0-0.0-0.69,A2D6VL5XE0O4D3,3HRWUH63RXIZS6U0Z3EY966PXK25N4,3AZHRG4CU80WFEDJAGT98H8F57003V,6,5
70,3,object_10,object_03,655.05499998108,6,2,340.84499999881,0.4444444444444444,2,object_08,5,1099,0,6,4,library_3,2,memory-2step-stake-s,562,2495554,0.0-19.0-0.0-0.70,A2D6VL5XE0O4D3,3HRWUH63RXIZS6U0Z3EY966PXK25N4,3AZHRG4CU80WFEDJAGT98H8F57003V,5,6
71,3,object_10,object_03,438.82500007749,6,2,282.3450001888,0.2222222222222222,2,object_08,1,1101,0,4,2,library_3,2,memory-2step-stake-s,563,2503339,0.0-19.0-0.0-0.71,A2D6VL5XE0O4D3,3HRWUH63RXIZS6U0Z3EY966PXK25N4,3AZHRG4CU80WFEDJAGT98H8F57003V,5,6
72,1,object_07,object_02,638.90999997966,2,2,266.17499999702,0.3333333333333333,2,object_08,5,1116,0,5,3,desert_4,2,memory-2step-stake-s,564,2511188,0.0-19.0-0.0-0.72,A2D6VL5XE0O4D3,3HRWUH63RXIZS6U0Z3EY966PXK25N4,3AZHRG4CU80WFEDJAGT98H8F57003V,1,2
73,1,object_02,object_07,806.49499990977,1,2,294.00500003248,0.8888888888888888,1,object_01,5,1156,0,8,5,desert_3,2,memory-2step-stake-s,565,2519628,0.0-19.0-0.0-0.73,A2D6VL5XE0O4D3,3HRWUH63RXIZS6U0Z3EY966PXK25N4,3AZHRG4CU80WFEDJAGT98H8F57003V,2,1
74,2,object_06,object_05,922.89999988861,3,2,336.93500002846,0.7777777777777778,1,object_01,5,1191,0,7,5,forest_3,2,memory-2step-stake-s,566,2528004,0.0-19.0-0.0-0.74,A2D6VL5XE0O4D3,3HRWUH63RXIZS6U0Z3EY966PXK25N4,3AZHRG4CU80WFEDJAGT98H8F57003V,4,3
75,2,object_05,object_06,1131.6599999554,3,1,310.47999998555,0.7777777777777778,1,object_01,5,1226,0,7,6,forest_3,2,memory-2step-stake-s,567,2536362,0.0-19.0-0.0-0.75,A2D6VL5XE0O4D3,3HRWUH63RXIZS6U0Z3EY966PXK25N4,3AZHRG4CU80WFEDJAGT98H8F57003V,3,4
76,2,object_06,object_05,808.10999986716,3,2,324.72000014968,0.6666666666666666,1,object_01,5,1256,0,6,5,forest_3,2,memory-2step-stake-s,568,2544629,0.0-19.0-0.0-0.76,A2D6VL5XE0O4D3,3HRWUH63RXIZS6U0Z3EY966PXK25N4,3AZHRG4CU80WFEDJAGT98H8F57003V,4,3
77,1,object_07,object_02,789.40499993041,2,2,281.21000016108,0.4444444444444444,2,object_08,1,1260,0,6,4,desert_4,2,memory-2step-stake-s,569,2552614,0.0-19.0-0.0-0.77,A2D6VL5XE0O4D3,3HRWUH63RXIZS6U0Z3EY966PXK25N4,3AZHRG4CU80WFEDJAGT98H8F57003V,1,2
78,2,object_06,object_05,749.48500003666,4,1,282.57500007749,0.5555555555555556,2,object_08,5,1285,0,8,5,forest_5,2,memory-2step-stake-s,570,2560762,0.0-19.0-0.0-0.78,A2D6VL5XE0O4D3,3HRWUH63RXIZS6U0Z3EY966PXK25N4,3AZHRG4CU80WFEDJAGT98H8F57003V,4,3
79,1,object_07,object_02,920.02000007778,2,2,400.57500009425,0.5555555555555556,2,object_08,5,1310,0,9,5,desert_3,2,memory-2step-stake-s,571,2568980,0.0-19.0-0.0-0.79,A2D6VL5XE0O4D3,3HRWUH63RXIZS6U0Z3EY966PXK25N4,3AZHRG4CU80WFEDJAGT98H8F57003V,1,2
80,1,object_07,object_02,1105.2200000267,2,2,599.30500015616,0.3333333333333333,2,object_08,1,1313,0,9,3,desert_8,2,memory-2step-stake-s,572,2577177,0.0-19.0-0.0-0.80,A2D6VL5XE0O4D3,3HRWUH63RXIZS6U0Z3EY966PXK25N4,3AZHRG4CU80WFEDJAGT98H8F57003V,1,2
81,2,object_06,object_05,743.16000007093,4,1,294.96499989182,0.3333333333333333,2,object_08,5,1328,0,8,3,forest_8,2,memory-2step-stake-s,573,2585032,0.0-19.0-0.0-0.81,A2D6VL5XE0O4D3,3HRWUH63RXIZS6U0Z3EY966PXK25N4,3AZHRG4CU80WFEDJAGT98H8F57003V,4,3
82,4,object_09,object_04,961.20500005782,7,1,475.61999992467,1.0,1,object_01,1,1337,0,9,0,restaurant_1,2,memory-2step-stake-s,574,2593771,0.0-19.0-0.0-0.82,A2D6VL5XE0O4D3,3HRWUH63RXIZS6U0Z3EY966PXK25N4,3AZHRG4CU80WFEDJAGT98H8F57003V,7,8
83,3,object_03,object_10,871.00499984808,5,2,315.31500001438,0.7777777777777778,1,object_01,5,1372,0,7,3,library_6,2,memory-2step-stake-s,575,2602131,0.0-19.0-0.0-0.83,A2D6VL5XE0O4D3,3HRWUH63RXIZS6U0Z3EY966PXK25N4,3AZHRG4CU80WFEDJAGT98H8F57003V,6,5
84,1,object_07,object_02,855.46500002965,1,1,254.4849999249,0.5555555555555556,1,object_01,5,1397,0,5,3,desert_4,2,memory-2step-stake-s,576,2610202,0.0-19.0-0.0-0.84,A2D6VL5XE0O4D3,3HRWUH63RXIZS6U0Z3EY966PXK25N4,3AZHRG4CU80WFEDJAGT98H8F57003V,1,2
85,2,object_06,object_05,757.5300000608,3,2,267.02499995008,0.5555555555555556,1,object_01,5,1422,0,5,1,forest_8,2,memory-2step-stake-s,577,2618283,0.0-19.0-0.0-0.85,A2D6VL5XE0O4D3,3HRWUH63RXIZS6U0Z3EY966PXK25N4,3AZHRG4CU80WFEDJAGT98H8F57003V,4,3
86,4,object_09,object_04,725.23500001989,7,1,331.87999995425,0.8888888888888888,1,object_01,1,1430,0,8,2,restaurant_3,2,memory-2step-stake-s,578,2626740,0.0-19.0-0.0-0.86,A2D6VL5XE0O4D3,3HRWUH63RXIZS6U0Z3EY966PXK25N4,3AZHRG4CU80WFEDJAGT98H8F57003V,7,8
87,1,object_07,object_02,776.25000011176,1,1,211.12499991432,1.0,1,object_01,5,1475,0,9,1,desert_4,2,memory-2step-stake-s,579,2635169,0.0-19.0-0.0-0.87,A2D6VL5XE0O4D3,3HRWUH63RXIZS6U0Z3EY966PXK25N4,3AZHRG4CU80WFEDJAGT98H8F57003V,1,2
88,4,object_09,object_04,1132.0499998983,7,1,301.59500008449,0.6666666666666666,1,object_01,1,1481,0,6,1,restaurant_2,2,memory-2step-stake-s,580,2643347,0.0-19.0-0.0-0.88,A2D6VL5XE0O4D3,3HRWUH63RXIZS6U0Z3EY966PXK25N4,3AZHRG4CU80WFEDJAGT98H8F57003V,7,8
89,1,object_02,object_07,936.05999997817,1,2,317.54499999806,1.0,1,object_01,5,1526,0,9,1,desert_3,2,memory-2step-stake-s,581,2651888,0.0-19.0-0.0-0.89,A2D6VL5XE0O4D3,3HRWUH63RXIZS6U0Z3EY966PXK25N4,3AZHRG4CU80WFEDJAGT98H8F57003V,2,1
90,2,object_05,object_06,-1.0,-1,-1,-1.0,0.0,-,0,5,1526,0,8,2,forest_5,2,memory-2step-stake-s,582,2658453,0.0-19.0-0.0-0.90,A2D6VL5XE0O4D3,3HRWUH63RXIZS6U0Z3EY966PXK25N4,3AZHRG4CU80WFEDJAGT98H8F57003V,3,4
91,1,object_02,object_07,852.82499995083,1,2,388.0600000266,0.7777777777777778,1,object_01,5,1561,0,7,0,desert_4,2,memory-2step-stake-s,583,2666826,0.0-19.0-0.0-0.91,A2D6VL5XE0O4D3,3HRWUH63RXIZS6U0Z3EY966PXK25N4,3AZHRG4CU80WFEDJAGT98H8F57003V,2,1
92,1,object_02,object_07,648.25000008568,1,2,235.60000001453,0.6666666666666666,1,object_01,5,1591,0,6,1,desert_2,2,memory-2step-stake-s,584,2674989,0.0-19.0-0.0-0.92,A2D6VL5XE0O4D3,3HRWUH63RXIZS6U0Z3EY966PXK25N4,3AZHRG4CU80WFEDJAGT98H8F57003V,2,1
93,1,object_07,object_02,555.63999991864,1,1,241.84499983676,0.7777777777777778,1,object_01,5,1626,0,7,1,desert_3,2,memory-2step-stake-s,585,2683219,0.0-19.0-0.0-0.93,A2D6VL5XE0O4D3,3HRWUH63RXIZS6U0Z3EY966PXK25N4,3AZHRG4CU80WFEDJAGT98H8F57003V,1,2
94,1,object_02,object_07,915.50499992445,1,2,304.77999988943,0.3333333333333333,1,object_01,5,1641,0,3,2,desert_2,2,memory-2step-stake-s,586,2691121,0.0-19.0-0.0-0.94,A2D6VL5XE0O4D3,3HRWUH63RXIZS6U0Z3EY966PXK25N4,3AZHRG4CU80WFEDJAGT98H8F57003V,2,1
95,2,object_05,object_06,415.34499987029,4,2,316.54999987222,0.3333333333333333,2,object_08,1,1644,0,0,3,forest_5,2,memory-2step-stake-s,587,2699026,0.0-19.0-0.0-0.95,A2D6VL5XE0O4D3,3HRWUH63RXIZS6U0Z3EY966PXK25N4,3AZHRG4CU80WFEDJAGT98H8F57003V,3,4
96,1,object_02,object_07,1016.4400001522,2,1,93.545000068843,0.4444444444444444,2,object_08,1,1648,0,2,4,desert_8,2,memory-2step-stake-s,588,2706842,0.0-19.0-0.0-0.96,A2D6VL5XE0O4D3,3HRWUH63RXIZS6U0Z3EY966PXK25N4,3AZHRG4CU80WFEDJAGT98H8F57003V,2,1
97,1,object_02,object_07,611.04999994859,2,1,346.30499989726,0.2222222222222222,2,object_08,5,1658,0,2,2,desert_4,2,memory-2step-stake-s,589,2714684,0.0-19.0-0.0-0.97,A2D6VL5XE0O4D3,3HRWUH63RXIZS6U0Z3EY966PXK25N4,3AZHRG4CU80WFEDJAGT98H8F57003V,2,1
98,2,object_05,object_06,923.11499989592,4,2,46.825000084937,0.0,2,object_08,5,1658,0,5,0,forest_3,2,memory-2step-stake-s,590,2722011,0.0-19.0-0.0-0.98,A2D6VL5XE0O4D3,3HRWUH63RXIZS6U0Z3EY966PXK25N4,3AZHRG4CU80WFEDJAGT98H8F57003V,3,4
99,1,object_02,object_07,687.83499998972,1,2,260.46000001952,0.3333333333333333,1,object_01,5,1673,0,3,2,desert_4,2,memory-2step-stake-s,591,2729888,0.0-19.0-0.0-0.99,A2D6VL5XE0O4D3,3HRWUH63RXIZS6U0Z3EY966PXK25N4,3AZHRG4CU80WFEDJAGT98H8F57003V,2,1
100,2,object_05,object_06,719.75499996915,3,1,300.9299999103,0.1111111111111111,1,object_01,5,1678,0,1,4,forest_5,2,memory-2step-stake-s,592,2737592,0.0-19.0-0.0-0.100,A2D6VL5XE0O4D3,3HRWUH63RXIZS6U0Z3EY966PXK25N4,3AZHRG4CU80WFEDJAGT98H8F57003V,3,4
101,3,object_10,object_03,702.71000009961,6,2,293.22499991395,0.2222222222222222,2,object_08,1,1680,0,1,2,library_4,2,memory-2step-stake-s,593,2745372,0.0-19.0-0.0-0.101,A2D6VL5XE0O4D3,3HRWUH63RXIZS6U0Z3EY966PXK25N4,3AZHRG4CU80WFEDJAGT98H8F57003V,5,6
102,4,object_09,object_04,899.96499987319,8,2,291.1300000269,0.1111111111111111,2,object_08,1,1681,0,0,1,restaurant_5,2,memory-2step-stake-s,594,2753019,0.0-19.0-0.0-0.102,A2D6VL5XE0O4D3,3HRWUH63RXIZS6U0Z3EY966PXK25N4,3AZHRG4CU80WFEDJAGT98H8F57003V,7,8
103,3,object_10,object_03,773.95000006072,5,1,324.02500021271,0.4444444444444444,1,object_01,1,1685,0,4,1,library_1,2,memory-2step-stake-s,595,2761024,0.0-19.0-0.0-0.103,A2D6VL5XE0O4D3,3HRWUH63RXIZS6U0Z3EY966PXK25N4,3AZHRG4CU80WFEDJAGT98H8F57003V,5,6
104,4,object_09,object_04,1182.2450000327,7,1,356.18999996223,0.5555555555555556,1,object_01,1,1690,0,5,4,restaurant_5,2,memory-2step-stake-s,596,2769184,0.0-19.0-0.0-0.104,A2D6VL5XE0O4D3,3HRWUH63RXIZS6U0Z3EY966PXK25N4,3AZHRG4CU80WFEDJAGT98H8F57003V,7,8
105,4,object_04,object_09,748.57000005431,7,2,330.27999987826,0.3333333333333333,1,object_01,1,1693,0,3,4,restaurant_5,2,memory-2step-stake-s,597,2777102,0.0-19.0-0.0-0.105,A2D6VL5XE0O4D3,3HRWUH63RXIZS6U0Z3EY966PXK25N4,3AZHRG4CU80WFEDJAGT98H8F57003V,8,7
106,3,object_03,object_10,659.55500002019,5,2,341.13000007346,0.2222222222222222,1,object_01,5,1703,0,2,1,library_3,2,memory-2step-stake-s,598,2784936,0.0-19.0-0.0-0.106,A2D6VL5XE0O4D3,3HRWUH63RXIZS6U0Z3EY966PXK25N4,3AZHRG4CU80WFEDJAGT98H8F57003V,6,5
107,3,object_10,object_03,707.86999980919,5,1,262.72500003688,0.0,1,object_01,1,1703,0,0,2,library_1,2,memory-2step-stake-s,599,2792468,0.0-19.0-0.0-0.107,A2D6VL5XE0O4D3,3HRWUH63RXIZS6U0Z3EY966PXK25N4,3AZHRG4CU80WFEDJAGT98H8F57003V,5,6
108,2,object_06,object_05,817.58500006981,4,1,284.75500014611,0.4444444444444444,2,object_08,5,1723,0,2,4,forest_7,2,memory-2step-stake-s,600,2800466,0.0-19.0-0.0-0.108,A2D6VL5XE0O4D3,3HRWUH63RXIZS6U0Z3EY966PXK25N4,3AZHRG4CU80WFEDJAGT98H8F57003V,4,3
109,2,object_06,object_05,1056.7749999464,4,1,366.30499991588,0.1111111111111111,2,object_08,5,1728,0,6,1,forest_8,2,memory-2step-stake-s,601,2808184,0.0-19.0-0.0-0.109,A2D6VL5XE0O4D3,3HRWUH63RXIZS6U0Z3EY966PXK25N4,3AZHRG4CU80WFEDJAGT98H8F57003V,4,3
110,1,object_02,object_07,679.18999982066,2,1,263.15999985673,0.1111111111111111,2,object_08,5,1733,0,6,1,desert_8,2,memory-2step-stake-s,602,2815818,0.0-19.0-0.0-0.110,A2D6VL5XE0O4D3,3HRWUH63RXIZS6U0Z3EY966PXK25N4,3AZHRG4CU80WFEDJAGT98H8F57003V,2,1
111,1,object_02,object_07,953.35999992676,1,2,258.85500013828,0.7777777777777778,1,object_01,1,1740,0,7,2,desert_4,2,memory-2step-stake-s,603,2824146,0.0-19.0-0.0-0.111,A2D6VL5XE0O4D3,3HRWUH63RXIZS6U0Z3EY966PXK25N4,3AZHRG4CU80WFEDJAGT98H8F57003V,2,1
112,3,object_10,object_03,619.57999994047,5,1,286.55500011519,1.0,1,object_01,1,1749,0,9,1,library_1,2,memory-2step-stake-s,604,2832683,0.0-19.0-0.0-0.112,A2D6VL5XE0O4D3,3HRWUH63RXIZS6U0Z3EY966PXK25N4,3AZHRG4CU80WFEDJAGT98H8F57003V,5,6
113,1,object_02,object_07,717.07000001334,1,2,278.06000015698,0.8888888888888888,1,object_01,5,1789,0,8,1,desert_4,2,memory-2step-stake-s,605,2841083,0.0-19.0-0.0-0.113,A2D6VL5XE0O4D3,3HRWUH63RXIZS6U0Z3EY966PXK25N4,3AZHRG4CU80WFEDJAGT98H8F57003V,2,1
114,1,object_02,object_07,814.51499997638,1,2,308.08500014246,0.8888888888888888,1,object_01,5,1829,0,8,5,desert_2,2,memory-2step-stake-s,606,2849491,0.0-19.0-0.0-0.114,A2D6VL5XE0O4D3,3HRWUH63RXIZS6U0Z3EY966PXK25N4,3AZHRG4CU80WFEDJAGT98H8F57003V,2,1
115,3,object_03,object_10,806.30500009283,5,2,231.44500004128,0.8888888888888888,1,object_01,1,1837,0,8,4,library_4,2,memory-2step-stake-s,607,2857822,0.0-19.0-0.0-0.115,A2D6VL5XE0O4D3,3HRWUH63RXIZS6U0Z3EY966PXK25N4,3AZHRG4CU80WFEDJAGT98H8F57003V,6,5
116,1,object_07,object_02,695.90000016615,1,1,303.00500011072,0.7777777777777778,1,object_01,5,1872,0,7,2,desert_4,2,memory-2step-stake-s,608,2866124,0.0-19.0-0.0-0.116,A2D6VL5XE0O4D3,3HRWUH63RXIZS6U0Z3EY966PXK25N4,3AZHRG4CU80WFEDJAGT98H8F57003V,1,2
117,3,object_10,object_03,656.53000003658,6,2,445.82500006072,0.4444444444444444,2,object_08,1,1876,0,3,4,library_4,2,memory-2step-stake-s,609,2874279,0.0-19.0-0.0-0.117,A2D6VL5XE0O4D3,3HRWUH63RXIZS6U0Z3EY966PXK25N4,3AZHRG4CU80WFEDJAGT98H8F57003V,5,6
118,3,object_10,object_03,702.80499989167,6,2,354.41499995068,0.4444444444444444,2,object_08,1,1880,0,2,4,library_6,2,memory-2step-stake-s,610,2882348,0.0-19.0-0.0-0.118,A2D6VL5XE0O4D3,3HRWUH63RXIZS6U0Z3EY966PXK25N4,3AZHRG4CU80WFEDJAGT98H8F57003V,5,6
119,2,object_05,object_06,630.82999992184,4,2,293.18500007503,0.6666666666666666,2,object_08,5,1910,0,1,6,forest_5,2,memory-2step-stake-s,611,2890514,0.0-19.0-0.0-0.119,A2D6VL5XE0O4D3,3HRWUH63RXIZS6U0Z3EY966PXK25N4,3AZHRG4CU80WFEDJAGT98H8F57003V,3,4
120,3,object_03,object_10,917.91500011459,6,1,398.27000000514,0.5555555555555556,2,object_08,1,1915,0,3,5,library_3,2,memory-2step-stake-s,612,2898697,0.0-19.0-0.0-0.120,A2D6VL5XE0O4D3,3HRWUH63RXIZS6U0Z3EY966PXK25N4,3AZHRG4CU80WFEDJAGT98H8F57003V,6,5
121,4,object_09,object_04,610.33000005409,8,2,264.94499994442,0.6666666666666666,2,object_08,1,1921,0,2,6,restaurant_5,2,memory-2step-stake-s,613,2906872,0.0-19.0-0.0-0.121,A2D6VL5XE0O4D3,3HRWUH63RXIZS6U0Z3EY966PXK25N4,3AZHRG4CU80WFEDJAGT98H8F57003V,7,8
122,3,object_10,object_03,623.44500003383,6,2,319.1499998793,0.4444444444444444,2,object_08,1,1925,0,1,4,library_1,2,memory-2step-stake-s,614,2914899,0.0-19.0-0.0-0.122,A2D6VL5XE0O4D3,3HRWUH63RXIZS6U0Z3EY966PXK25N4,3AZHRG4CU80WFEDJAGT98H8F57003V,5,6
123,2,object_06,object_05,728.19499997422,3,2,390.49999997951,0.1111111111111111,1,object_01,5,1930,0,1,1,forest_5,2,memory-2step-stake-s,615,2922662,0.0-19.0-0.0-0.123,A2D6VL5XE0O4D3,3HRWUH63RXIZS6U0Z3EY966PXK25N4,3AZHRG4CU80WFEDJAGT98H8F57003V,4,3
124,4,object_04,object_09,855.13499984518,8,1,293.96999999881,0.3333333333333333,2,object_08,1,1933,0,2,3,restaurant_2,2,memory-2step-stake-s,616,2930553,0.0-19.0-0.0-0.124,A2D6VL5XE0O4D3,3HRWUH63RXIZS6U0Z3EY966PXK25N4,3AZHRG4CU80WFEDJAGT98H8F57003V,8,7
125,4,object_04,object_09,817.75499996729,7,2,221.06000012718,0.1111111111111111,1,object_01,1,1934,0,1,5,restaurant_3,2,memory-2step-stake-s,617,2938162,0.0-19.0-0.0-0.125,A2D6VL5XE0O4D3,3HRWUH63RXIZS6U0Z3EY966PXK25N4,3AZHRG4CU80WFEDJAGT98H8F57003V,8,7
126,3,object_10,object_03,801.05499993078,6,2,320.87500020862,0.4444444444444444,2,object_08,1,1938,0,5,4,library_1,2,memory-2step-stake-s,618,2946192,0.0-19.0-0.0-0.126,A2D6VL5XE0O4D3,3HRWUH63RXIZS6U0Z3EY966PXK25N4,3AZHRG4CU80WFEDJAGT98H8F57003V,5,6
127,2,object_06,object_05,818.52500000969,4,1,398.57000019401,0.6666666666666666,2,object_08,1,1944,0,6,6,forest_3,2,memory-2step-stake-s,619,2954512,0.0-19.0-0.0-0.127,A2D6VL5XE0O4D3,3HRWUH63RXIZS6U0Z3EY966PXK25N4,3AZHRG4CU80WFEDJAGT98H8F57003V,4,3
128,2,object_06,object_05,574.46000003256,3,2,508.91999993473,0.6666666666666666,1,object_01,5,1974,0,6,6,forest_3,2,memory-2step-stake-s,621,3056330,0.0-19.0-0.1-0.128,A2D6VL5XE0O4D3,3HRWUH63RXIZS6U0Z3EY966PXK25N4,3AZHRG4CU80WFEDJAGT98H8F57003V,4,3
129,3,object_10,object_03,872.80500004999,5,1,289.91500008851,0.8888888888888888,1,object_01,5,2014,0,8,9,library_1,2,memory-2step-stake-s,622,3064716,0.0-19.0-0.1-0.129,A2D6VL5XE0O4D3,3HRWUH63RXIZS6U0Z3EY966PXK25N4,3AZHRG4CU80WFEDJAGT98H8F57003V,5,6
130,4,object_04,object_09,912.28999989107,7,2,245.30500010587,0.8888888888888888,1,object_01,1,2022,0,8,7,restaurant_2,2,memory-2step-stake-s,623,3073086,0.0-19.0-0.1-0.130,A2D6VL5XE0O4D3,3HRWUH63RXIZS6U0Z3EY966PXK25N4,3AZHRG4CU80WFEDJAGT98H8F57003V,8,7
131,2,object_06,object_05,888.05499998853,4,1,332.4549999088,0.4444444444444444,2,object_08,5,2042,0,7,4,forest_5,2,memory-2step-stake-s,624,3081144,0.0-19.0-0.1-0.131,A2D6VL5XE0O4D3,3HRWUH63RXIZS6U0Z3EY966PXK25N4,3AZHRG4CU80WFEDJAGT98H8F57003V,4,3
132,1,object_07,object_02,652.11999998428,1,1,299.68999978155,0.7777777777777778,1,object_01,1,2049,0,7,4,desert_8,2,memory-2step-stake-s,625,3089464,0.0-19.0-0.1-0.132,A2D6VL5XE0O4D3,3HRWUH63RXIZS6U0Z3EY966PXK25N4,3AZHRG4CU80WFEDJAGT98H8F57003V,1,2
133,1,object_07,object_02,626.24999997206,2,2,232.55500011146,0.5555555555555556,2,object_08,5,2074,0,9,5,desert_8,2,memory-2step-stake-s,626,3097493,0.0-19.0-0.1-0.133,A2D6VL5XE0O4D3,3HRWUH63RXIZS6U0Z3EY966PXK25N4,3AZHRG4CU80WFEDJAGT98H8F57003V,1,2
134,1,object_07,object_02,899.57500016317,1,1,263.41999997385,0.7777777777777778,1,object_01,5,2109,0,7,6,desert_4,2,memory-2step-stake-s,627,3105809,0.0-19.0-0.1-0.134,A2D6VL5XE0O4D3,3HRWUH63RXIZS6U0Z3EY966PXK25N4,3AZHRG4CU80WFEDJAGT98H8F57003V,1,2
135,4,object_04,object_09,1041.1549999844,7,2,247.53500008956,0.8888888888888888,1,object_01,1,2117,0,8,7,restaurant_1,2,memory-2step-stake-s,628,3114187,0.0-19.0-0.1-0.135,A2D6VL5XE0O4D3,3HRWUH63RXIZS6U0Z3EY966PXK25N4,3AZHRG4CU80WFEDJAGT98H8F57003V,8,7
136,1,object_07,object_02,837.83999993466,1,1,289.48000003584,0.6666666666666666,1,object_01,5,2147,0,6,6,desert_8,2,memory-2step-stake-s,629,3122371,0.0-19.0-0.1-0.136,A2D6VL5XE0O4D3,3HRWUH63RXIZS6U0Z3EY966PXK25N4,3AZHRG4CU80WFEDJAGT98H8F57003V,1,2
137,4,object_09,object_04,699.90000012331,8,2,238.96999983117,0.6666666666666666,2,object_08,1,2153,0,6,6,restaurant_5,2,memory-2step-stake-s,630,3130507,0.0-19.0-0.1-0.137,A2D6VL5XE0O4D3,3HRWUH63RXIZS6U0Z3EY966PXK25N4,3AZHRG4CU80WFEDJAGT98H8F57003V,7,8
138,2,object_06,object_05,927.08000005223,3,2,266.79500006139,0.6666666666666666,1,object_01,1,2159,0,6,5,forest_7,2,memory-2step-stake-s,631,3138667,0.0-19.0-0.1-0.138,A2D6VL5XE0O4D3,3HRWUH63RXIZS6U0Z3EY966PXK25N4,3AZHRG4CU80WFEDJAGT98H8F57003V,4,3
139,3,object_03,object_10,595.54999996908,6,1,307.81499994919,0.4444444444444444,2,object_08,1,2163,0,4,4,library_4,2,memory-2step-stake-s,632,3146645,0.0-19.0-0.1-0.139,A2D6VL5XE0O4D3,3HRWUH63RXIZS6U0Z3EY966PXK25N4,3AZHRG4CU80WFEDJAGT98H8F57003V,6,5
140,2,object_05,object_06,886.9100001175,3,1,238.02500008605,0.0,1,object_01,5,2163,0,0,4,forest_3,2,memory-2step-stake-s,633,3154164,0.0-19.0-0.1-0.140,A2D6VL5XE0O4D3,3HRWUH63RXIZS6U0Z3EY966PXK25N4,3AZHRG4CU80WFEDJAGT98H8F57003V,3,4
141,4,object_09,object_04,812.88999994285,7,1,348.57999999076,0.3333333333333333,1,object_01,1,2166,0,3,3,restaurant_1,2,memory-2step-stake-s,634,3162111,0.0-19.0-0.1-0.141,A2D6VL5XE0O4D3,3HRWUH63RXIZS6U0Z3EY966PXK25N4,3AZHRG4CU80WFEDJAGT98H8F57003V,7,8
142,2,object_05,object_06,956.83000003919,3,1,273.4500002116,0.1111111111111111,1,object_01,5,2171,0,1,5,forest_8,2,memory-2step-stake-s,635,3169786,0.0-19.0-0.1-0.142,A2D6VL5XE0O4D3,3HRWUH63RXIZS6U0Z3EY966PXK25N4,3AZHRG4CU80WFEDJAGT98H8F57003V,3,4
143,4,object_04,object_09,1091.0799999256,8,1,351.02499998175,0.3333333333333333,2,object_08,1,2174,0,3,3,restaurant_3,2,memory-2step-stake-s,636,3177727,0.0-19.0-0.1-0.143,A2D6VL5XE0O4D3,3HRWUH63RXIZS6U0Z3EY966PXK25N4,3AZHRG4CU80WFEDJAGT98H8F57003V,8,7
144,1,object_07,object_02,761.76499994472,2,2,276.42000000924,0.5555555555555556,2,object_08,5,2199,0,1,5,desert_3,2,memory-2step-stake-s,637,3185796,0.0-19.0-0.1-0.144,A2D6VL5XE0O4D3,3HRWUH63RXIZS6U0Z3EY966PXK25N4,3AZHRG4CU80WFEDJAGT98H8F57003V,1,2
145,3,object_03,object_10,736.98000004515,6,1,264.54499992542,0.8888888888888888,2,object_08,1,2207,0,1,8,library_3,2,memory-2step-stake-s,638,3194192,0.0-19.0-0.1-0.145,A2D6VL5XE0O4D3,3HRWUH63RXIZS6U0Z3EY966PXK25N4,3AZHRG4CU80WFEDJAGT98H8F57003V,6,5
146,3,object_10,object_03,615.80000002868,6,2,328.925000038,0.7777777777777778,2,object_08,1,2214,0,0,7,library_4,2,memory-2step-stake-s,639,3202511,0.0-19.0-0.1-0.146,A2D6VL5XE0O4D3,3HRWUH63RXIZS6U0Z3EY966PXK25N4,3AZHRG4CU80WFEDJAGT98H8F57003V,5,6
147,2,object_06,object_05,609.83999981545,4,1,343.21999992244,0.7777777777777778,2,object_08,1,2221,0,3,7,forest_5,2,memory-2step-stake-s,640,3210875,0.0-19.0-0.1-0.147,A2D6VL5XE0O4D3,3HRWUH63RXIZS6U0Z3EY966PXK25N4,3AZHRG4CU80WFEDJAGT98H8F57003V,4,3
148,2,object_06,object_05,671.31000012159,4,1,262.74999999441,0.8888888888888888,2,object_08,5,2261,0,5,8,forest_8,2,memory-2step-stake-s,641,3219244,0.0-19.0-0.1-0.148,A2D6VL5XE0O4D3,3HRWUH63RXIZS6U0Z3EY966PXK25N4,3AZHRG4CU80WFEDJAGT98H8F57003V,4,3
149,4,object_04,object_09,828.76499998383,8,1,269.5750000421,0.6666666666666666,2,object_08,5,2291,0,5,6,restaurant_2,2,memory-2step-stake-s,642,3227444,0.0-19.0-0.1-0.149,A2D6VL5XE0O4D3,3HRWUH63RXIZS6U0Z3EY966PXK25N4,3AZHRG4CU80WFEDJAGT98H8F57003V,8,7
150,3,object_10,object_03,622.75000009686,6,2,270.16999991611,0.6666666666666666,2,object_08,1,2297,0,5,6,library_6,2,memory-2step-stake-s,643,3235630,0.0-19.0-0.1-0.150,A2D6VL5XE0O4D3,3HRWUH63RXIZS6U0Z3EY966PXK25N4,3AZHRG4CU80WFEDJAGT98H8F57003V,5,6
151,4,object_04,object_09,591.14999999292,8,1,261.66000007652,0.5555555555555556,2,object_08,5,2322,0,6,5,restaurant_2,2,memory-2step-stake-s,644,3243717,0.0-19.0-0.1-0.151,A2D6VL5XE0O4D3,3HRWUH63RXIZS6U0Z3EY966PXK25N4,3AZHRG4CU80WFEDJAGT98H8F57003V,8,7
152,3,object_10,object_03,578.26499990188,5,1,296.46999994293,0.3333333333333333,1,object_01,1,2325,0,3,4,library_6,2,memory-2step-stake-s,645,3251590,0.0-19.0-0.1-0.152,A2D6VL5XE0O4D3,3HRWUH63RXIZS6U0Z3EY966PXK25N4,3AZHRG4CU80WFEDJAGT98H8F57003V,5,6
153,4,object_09,object_04,688.62499995157,8,2,278.88499991968,0.3333333333333333,2,object_08,1,2328,0,1,3,restaurant_1,2,memory-2step-stake-s,646,3259448,0.0-19.0-0.1-0.153,A2D6VL5XE0O4D3,3HRWUH63RXIZS6U0Z3EY966PXK25N4,3AZHRG4CU80WFEDJAGT98H8F57003V,7,8
154,1,object_02,object_07,629.83999983408,1,2,291.55500000343,0.1111111111111111,1,object_01,5,2333,0,1,0,desert_4,2,memory-2step-stake-s,647,3267110,0.0-19.0-0.1-0.154,A2D6VL5XE0O4D3,3HRWUH63RXIZS6U0Z3EY966PXK25N4,3AZHRG4CU80WFEDJAGT98H8F57003V,2,1
155,4,object_09,object_04,795.17500009388,8,2,411.47499997169,0.2222222222222222,2,object_08,1,2335,0,1,2,restaurant_5,2,memory-2step-stake-s,648,3275012,0.0-19.0-0.1-0.155,A2D6VL5XE0O4D3,3HRWUH63RXIZS6U0Z3EY966PXK25N4,3AZHRG4CU80WFEDJAGT98H8F57003V,7,8
156,3,object_03,object_10,818.1849999819,6,1,291.33500019088,0.1111111111111111,2,object_08,1,2336,0,1,1,library_3,2,memory-2step-stake-s,649,3282688,0.0-19.0-0.1-0.156,A2D6VL5XE0O4D3,3HRWUH63RXIZS6U0Z3EY966PXK25N4,3AZHRG4CU80WFEDJAGT98H8F57003V,6,5
157,2,object_05,object_06,673.26000006869,3,1,304.55500003882,0.3333333333333333,1,object_01,5,2351,0,3,1,forest_3,2,memory-2step-stake-s,650,3290566,0.0-19.0-0.1-0.157,A2D6VL5XE0O4D3,3HRWUH63RXIZS6U0Z3EY966PXK25N4,3AZHRG4CU80WFEDJAGT98H8F57003V,3,4
158,2,object_05,object_06,615.76499999501,3,1,273.95500009879,0.4444444444444444,1,object_01,5,2371,0,4,1,forest_5,2,memory-2step-stake-s,651,3298523,0.0-19.0-0.1-0.158,A2D6VL5XE0O4D3,3HRWUH63RXIZS6U0Z3EY966PXK25N4,3AZHRG4CU80WFEDJAGT98H8F57003V,3,4
159,1,object_02,object_07,655.16999992542,1,2,288.69500011206,0.2222222222222222,1,object_01,1,2373,0,2,5,desert_3,2,memory-2step-stake-s,652,3306290,0.0-19.0-0.1-0.159,A2D6VL5XE0O4D3,3HRWUH63RXIZS6U0Z3EY966PXK25N4,3AZHRG4CU80WFEDJAGT98H8F57003V,2,1
160,3,object_10,object_03,914.91500008851,6,2,254.0100000333,0.7777777777777778,2,object_08,1,2380,0,0,7,library_3,2,memory-2step-stake-s,653,3314585,0.0-19.0-0.1-0.160,A2D6VL5XE0O4D3,3HRWUH63RXIZS6U0Z3EY966PXK25N4,3AZHRG4CU80WFEDJAGT98H8F57003V,5,6
161,3,object_10,object_03,544.40499981865,6,2,277.28499984369,0.8888888888888888,2,object_08,1,2388,0,0,8,library_4,2,memory-2step-stake-s,654,3323019,0.0-19.0-0.1-0.161,A2D6VL5XE0O4D3,3HRWUH63RXIZS6U0Z3EY966PXK25N4,3AZHRG4CU80WFEDJAGT98H8F57003V,5,6
162,1,object_02,object_07,784.6150000114,2,1,260.95999986865,1.0,2,object_08,5,2433,0,2,9,desert_8,2,memory-2step-stake-s,655,3331526,0.0-19.0-0.1-0.162,A2D6VL5XE0O4D3,3HRWUH63RXIZS6U0Z3EY966PXK25N4,3AZHRG4CU80WFEDJAGT98H8F57003V,2,1
163,2,object_06,object_05,677.52499994822,4,1,229.89999991842,0.8888888888888888,2,object_08,1,2441,0,1,8,forest_3,2,memory-2step-stake-s,656,3339836,0.0-19.0-0.1-0.163,A2D6VL5XE0O4D3,3HRWUH63RXIZS6U0Z3EY966PXK25N4,3AZHRG4CU80WFEDJAGT98H8F57003V,4,3
164,4,object_09,object_04,772.83499995247,8,2,240.78999995254,0.8888888888888888,2,object_08,1,2449,0,0,8,restaurant_3,2,memory-2step-stake-s,657,3348184,0.0-19.0-0.1-0.164,A2D6VL5XE0O4D3,3HRWUH63RXIZS6U0Z3EY966PXK25N4,3AZHRG4CU80WFEDJAGT98H8F57003V,7,8
165,2,object_05,object_06,560.37499988452,4,2,257.28000001982,1.0,2,object_08,5,2494,0,1,9,forest_8,2,memory-2step-stake-s,658,3356668,0.0-19.0-0.1-0.165,A2D6VL5XE0O4D3,3HRWUH63RXIZS6U0Z3EY966PXK25N4,3AZHRG4CU80WFEDJAGT98H8F57003V,3,4
166,1,object_07,object_02,720.10999987833,2,2,406.07500006445,0.6666666666666666,2,object_08,1,2500,0,2,6,desert_2,2,memory-2step-stake-s,659,3364974,0.0-19.0-0.1-0.166,A2D6VL5XE0O4D3,3HRWUH63RXIZS6U0Z3EY966PXK25N4,3AZHRG4CU80WFEDJAGT98H8F57003V,1,2
167,1,object_02,object_07,541.9099999126,2,1,362.50000004657,0.8888888888888888,2,object_08,5,2540,0,3,8,desert_2,2,memory-2step-stake-s,660,3373485,0.0-19.0-0.1-0.167,A2D6VL5XE0O4D3,3HRWUH63RXIZS6U0Z3EY966PXK25N4,3AZHRG4CU80WFEDJAGT98H8F57003V,2,1
168,4,object_04,object_09,707.67999999225,8,1,247.41500010714,0.4444444444444444,2,object_08,1,2544,0,2,4,restaurant_1,2,memory-2step-stake-s,661,3381435,0.0-19.0-0.1-0.168,A2D6VL5XE0O4D3,3HRWUH63RXIZS6U0Z3EY966PXK25N4,3AZHRG4CU80WFEDJAGT98H8F57003V,8,7
169,1,object_07,object_02,667.7600000985,1,1,318.33499995992,0.2222222222222222,1,object_01,1,2546,0,2,6,desert_2,2,memory-2step-stake-s,662,3389238,0.0-19.0-0.1-0.169,A2D6VL5XE0O4D3,3HRWUH63RXIZS6U0Z3EY966PXK25N4,3AZHRG4CU80WFEDJAGT98H8F57003V,1,2
170,3,object_03,object_10,653.86500000022,6,1,275.66000004299,0.4444444444444444,2,object_08,1,2550,0,1,4,library_3,2,memory-2step-stake-s,663,3397210,0.0-19.0-0.1-0.170,A2D6VL5XE0O4D3,3HRWUH63RXIZS6U0Z3EY966PXK25N4,3AZHRG4CU80WFEDJAGT98H8F57003V,6,5
171,4,object_09,object_04,673.50999987684,8,2,376.56000000425,0.6666666666666666,2,object_08,1,2556,0,2,6,restaurant_1,2,memory-2step-stake-s,664,3405487,0.0-19.0-0.1-0.171,A2D6VL5XE0O4D3,3HRWUH63RXIZS6U0Z3EY966PXK25N4,3AZHRG4CU80WFEDJAGT98H8F57003V,7,8
172,2,object_06,object_05,863.29000000842,4,1,285.15999997035,0.4444444444444444,2,object_08,5,2576,0,2,4,forest_7,2,memory-2step-stake-s,665,3413475,0.0-19.0-0.1-0.172,A2D6VL5XE0O4D3,3HRWUH63RXIZS6U0Z3EY966PXK25N4,3AZHRG4CU80WFEDJAGT98H8F57003V,4,3
173,3,object_10,object_03,680.17500010319,5,1,263.55000003241,0.2222222222222222,1,object_01,1,2578,0,2,4,library_6,2,memory-2step-stake-s,666,3421239,0.0-19.0-0.1-0.173,A2D6VL5XE0O4D3,3HRWUH63RXIZS6U0Z3EY966PXK25N4,3AZHRG4CU80WFEDJAGT98H8F57003V,5,6
174,1,object_02,object_07,651.47499996237,2,1,329.47500003502,0.3333333333333333,2,object_08,5,2593,0,1,3,desert_3,2,memory-2step-stake-s,667,3429162,0.0-19.0-0.1-0.174,A2D6VL5XE0O4D3,3HRWUH63RXIZS6U0Z3EY966PXK25N4,3AZHRG4CU80WFEDJAGT98H8F57003V,2,1
175,2,object_05,object_06,870.03000010736,4,2,308.79999999888,0.3333333333333333,2,object_08,5,2608,0,1,3,forest_8,2,memory-2step-stake-s,668,3437077,0.0-19.0-0.1-0.175,A2D6VL5XE0O4D3,3HRWUH63RXIZS6U0Z3EY966PXK25N4,3AZHRG4CU80WFEDJAGT98H8F57003V,3,4
176,2,object_06,object_05,764.79000016116,3,2,300.75499997474,0.1111111111111111,1,object_01,1,2609,0,1,1,forest_7,2,memory-2step-stake-s,669,3444743,0.0-19.0-0.1-0.176,A2D6VL5XE0O4D3,3HRWUH63RXIZS6U0Z3EY966PXK25N4,3AZHRG4CU80WFEDJAGT98H8F57003V,4,3
177,1,object_02,object_07,517.93000008911,2,1,327.24000001326,0.2222222222222222,2,object_08,1,2611,0,0,2,desert_2,2,memory-2step-stake-s,670,3452538,0.0-19.0-0.1-0.177,A2D6VL5XE0O4D3,3HRWUH63RXIZS6U0Z3EY966PXK25N4,3AZHRG4CU80WFEDJAGT98H8F57003V,2,1
178,1,object_07,object_02,760.22000005469,2,2,268.21499993093,0.3333333333333333,2,object_08,5,2626,0,2,3,desert_8,2,memory-2step-stake-s,671,3460370,0.0-19.0-0.1-0.178,A2D6VL5XE0O4D3,3HRWUH63RXIZS6U0Z3EY966PXK25N4,3AZHRG4CU80WFEDJAGT98H8F57003V,1,2
179,4,object_09,object_04,804.67500002123,8,2,285.86000017822,0.1111111111111111,2,object_08,5,2631,0,1,1,restaurant_3,2,memory-2step-stake-s,672,3468028,0.0-19.0-0.1-0.179,A2D6VL5XE0O4D3,3HRWUH63RXIZS6U0Z3EY966PXK25N4,3AZHRG4CU80WFEDJAGT98H8F57003V,7,8
180,2,object_06,object_05,920.31499999575,3,2,244.91999996826,0.1111111111111111,1,object_01,5,2636,0,1,1,forest_7,2,memory-2step-stake-s,673,3475652,0.0-19.0-0.1-0.180,A2D6VL5XE0O4D3,3HRWUH63RXIZS6U0Z3EY966PXK25N4,3AZHRG4CU80WFEDJAGT98H8F57003V,4,3
181,2,object_06,object_05,905.31999990344,4,1,283.6800001096,0.2222222222222222,2,object_08,5,2646,0,1,2,forest_3,2,memory-2step-stake-s,674,3483439,0.0-19.0-0.1-0.181,A2D6VL5XE0O4D3,3HRWUH63RXIZS6U0Z3EY966PXK25N4,3AZHRG4CU80WFEDJAGT98H8F57003V,4,3
182,3,object_03,object_10,637.53499998711,6,1,330.99499996752,0.2222222222222222,2,object_08,1,2648,0,1,2,library_4,2,memory-2step-stake-s,675,3491276,0.0-19.0-0.1-0.182,A2D6VL5XE0O4D3,3HRWUH63RXIZS6U0Z3EY966PXK25N4,3AZHRG4CU80WFEDJAGT98H8F57003V,6,5
183,2,object_06,object_05,619.5800001733,3,2,252.98000010662,0.1111111111111111,1,object_01,5,2653,0,1,4,forest_3,2,memory-2step-stake-s,676,3498911,0.0-19.0-0.1-0.183,A2D6VL5XE0O4D3,3HRWUH63RXIZS6U0Z3EY966PXK25N4,3AZHRG4CU80WFEDJAGT98H8F57003V,4,3
184,3,object_03,object_10,517.26000010967,6,1,245.23500003852,0.4444444444444444,2,object_08,5,2673,0,0,4,library_3,2,memory-2step-stake-s,677,3506863,0.0-19.0-0.1-0.184,A2D6VL5XE0O4D3,3HRWUH63RXIZS6U0Z3EY966PXK25N4,3AZHRG4CU80WFEDJAGT98H8F57003V,6,5
185,4,object_04,object_09,629.93500009179,8,1,279.61500012316,0.2222222222222222,2,object_08,1,2675,0,0,2,restaurant_5,2,memory-2step-stake-s,678,3514634,0.0-19.0-0.1-0.185,A2D6VL5XE0O4D3,3HRWUH63RXIZS6U0Z3EY966PXK25N4,3AZHRG4CU80WFEDJAGT98H8F57003V,8,7
186,1,object_07,object_02,1178.9899999276,1,1,400.24999994785,0.3333333333333333,1,object_01,5,2690,0,3,2,desert_2,2,memory-2step-stake-s,679,3522599,0.0-19.0-0.1-0.186,A2D6VL5XE0O4D3,3HRWUH63RXIZS6U0Z3EY966PXK25N4,3AZHRG4CU80WFEDJAGT98H8F57003V,1,2
187,2,object_06,object_05,583.08999985456,3,2,282.17000002041,0.3333333333333333,1,object_01,5,2705,0,3,4,forest_7,2,memory-2step-stake-s,680,3530455,0.0-19.0-0.1-0.187,A2D6VL5XE0O4D3,3HRWUH63RXIZS6U0Z3EY966PXK25N4,3AZHRG4CU80WFEDJAGT98H8F57003V,4,3
188,2,object_06,object_05,1243.3450000826,3,2,927.15499992482,0.1111111111111111,1,object_01,1,2706,0,1,4,forest_7,2,memory-2step-stake-s,681,3538774,0.0-19.0-0.1-0.188,A2D6VL5XE0O4D3,3HRWUH63RXIZS6U0Z3EY966PXK25N4,3AZHRG4CU80WFEDJAGT98H8F57003V,4,3
189,4,object_04,object_09,614.83499989845,8,1,268.619999988,0.1111111111111111,2,object_08,5,2711,0,2,1,restaurant_1,2,memory-2step-stake-s,682,3546410,0.0-19.0-0.1-0.189,A2D6VL5XE0O4D3,3HRWUH63RXIZS6U0Z3EY966PXK25N4,3AZHRG4CU80WFEDJAGT98H8F57003V,8,7
190,1,object_07,object_02,836.13000018522,2,2,262.67499988899,0.3333333333333333,2,object_08,5,2726,0,6,3,desert_4,2,memory-2step-stake-s,683,3554248,0.0-19.0-0.1-0.190,A2D6VL5XE0O4D3,3HRWUH63RXIZS6U0Z3EY966PXK25N4,3AZHRG4CU80WFEDJAGT98H8F57003V,1,2
191,1,object_02,object_07,770.57000016794,2,1,351.10500012524,0.1111111111111111,2,object_08,5,2731,0,4,1,desert_3,2,memory-2step-stake-s,684,3561972,0.0-19.0-0.1-0.191,A2D6VL5XE0O4D3,3HRWUH63RXIZS6U0Z3EY966PXK25N4,3AZHRG4CU80WFEDJAGT98H8F57003V,2,1
192,2,object_06,object_05,575.130000012,3,2,342.35500008799,0.5555555555555556,1,object_01,1,2736,0,5,4,forest_7,2,memory-2step-stake-s,685,3570139,0.0-19.0-0.1-0.192,A2D6VL5XE0O4D3,3HRWUH63RXIZS6U0Z3EY966PXK25N4,3AZHRG4CU80WFEDJAGT98H8F57003V,4,3
193,2,object_05,object_06,553.96499997005,3,1,272.14500005357,0.5555555555555556,1,object_01,5,2761,0,5,3,forest_8,2,memory-2step-stake-s,686,3578218,0.0-19.0-0.1-0.193,A2D6VL5XE0O4D3,3HRWUH63RXIZS6U0Z3EY966PXK25N4,3AZHRG4CU80WFEDJAGT98H8F57003V,3,4
194,2,object_05,object_06,685.06500008516,3,1,261.6149999667,1.0,1,object_01,5,2806,0,9,2,forest_8,2,memory-2step-stake-s,687,3586711,0.0-19.0-0.1-0.194,A2D6VL5XE0O4D3,3HRWUH63RXIZS6U0Z3EY966PXK25N4,3AZHRG4CU80WFEDJAGT98H8F57003V,3,4
195,4,object_04,object_09,1034.4250001945,7,2,275.54999990389,0.6666666666666666,1,object_01,1,2812,0,6,5,restaurant_2,2,memory-2step-stake-s,688,3594942,0.0-19.0-0.1-0.195,A2D6VL5XE0O4D3,3HRWUH63RXIZS6U0Z3EY966PXK25N4,3AZHRG4CU80WFEDJAGT98H8F57003V,8,7
196,3,object_10,object_03,609.26000005566,5,1,285.48999992199,0.6666666666666666,1,object_01,1,2818,0,6,2,library_6,2,memory-2step-stake-s,689,3603146,0.0-19.0-0.1-0.196,A2D6VL5XE0O4D3,3HRWUH63RXIZS6U0Z3EY966PXK25N4,3AZHRG4CU80WFEDJAGT98H8F57003V,5,6
197,3,object_03,object_10,552.98000015318,5,2,266.15500007756,0.4444444444444444,1,object_01,5,2838,0,4,0,library_1,2,memory-2step-stake-s,690,3611100,0.0-19.0-0.1-0.197,A2D6VL5XE0O4D3,3HRWUH63RXIZS6U0Z3EY966PXK25N4,3AZHRG4CU80WFEDJAGT98H8F57003V,6,5
198,3,object_03,object_10,499.2800001055,6,1,271.18499996141,0.0,2,object_08,5,2838,0,6,0,library_3,2,memory-2step-stake-s,691,3618637,0.0-19.0-0.1-0.198,A2D6VL5XE0O4D3,3HRWUH63RXIZS6U0Z3EY966PXK25N4,3AZHRG4CU80WFEDJAGT98H8F57003V,6,5
199,2,object_06,object_05,693.81999992765,3,2,241.58999999054,0.5555555555555556,1,object_01,5,2863,0,5,1,forest_8,2,memory-2step-stake-s,692,3626659,0.0-19.0-0.1-0.199,A2D6VL5XE0O4D3,3HRWUH63RXIZS6U0Z3EY966PXK25N4,3AZHRG4CU80WFEDJAGT98H8F57003V,4,3
200,4,object_04,object_09,1053.5950001795,8,1,281.45999996923,0.1111111111111111,2,object_08,1,2864,0,4,1,restaurant_2,2,memory-2step-stake-s,693,3634314,0.0-19.0-0.1-0.200,A2D6VL5XE0O4D3,3HRWUH63RXIZS6U0Z3EY966PXK25N4,3AZHRG4CU80WFEDJAGT98H8F57003V,8,7
201,3,object_10,object_03,601.15500004031,5,1,273.74999993481,0.3333333333333333,1,object_01,1,2867,0,3,1,library_3,2,memory-2step-stake-s,694,3642180,0.0-19.0-0.1-0.201,A2D6VL5XE0O4D3,3HRWUH63RXIZS6U0Z3EY966PXK25N4,3AZHRG4CU80WFEDJAGT98H8F57003V,5,6
202,4,object_09,object_04,1107.6350000221,7,1,289.30000006221,0.4444444444444444,1,object_01,1,2871,0,4,1,restaurant_2,2,memory-2step-stake-s,695,3650203,0.0-19.0-0.1-0.202,A2D6VL5XE0O4D3,3HRWUH63RXIZS6U0Z3EY966PXK25N4,3AZHRG4CU80WFEDJAGT98H8F57003V,7,8
203,3,object_03,object_10,544.42499997094,5,2,315.59000001289,1.0,1,object_01,5,2916,0,9,1,library_4,2,memory-2step-stake-s,696,3658753,0.0-19.0-0.1-0.203,A2D6VL5XE0O4D3,3HRWUH63RXIZS6U0Z3EY966PXK25N4,3AZHRG4CU80WFEDJAGT98H8F57003V,6,5
204,3,object_10,object_03,548.97999996319,5,1,283.18999987096,1.0,1,object_01,5,2961,0,9,3,library_1,2,memory-2step-stake-s,697,3667245,0.0-19.0-0.1-0.204,A2D6VL5XE0O4D3,3HRWUH63RXIZS6U0Z3EY966PXK25N4,3AZHRG4CU80WFEDJAGT98H8F57003V,5,6
205,1,object_02,object_07,715.15000006184,1,2,259.0050001163,0.7777777777777778,1,object_01,5,2996,0,7,4,desert_8,2,memory-2step-stake-s,698,3675499,0.0-19.0-0.1-0.205,A2D6VL5XE0O4D3,3HRWUH63RXIZS6U0Z3EY966PXK25N4,3AZHRG4CU80WFEDJAGT98H8F57003V,2,1
206,1,object_02,object_07,603.97000005469,1,2,269.51000001281,0.5555555555555556,1,object_01,5,3021,0,5,4,desert_3,2,memory-2step-stake-s,699,3683586,0.0-19.0-0.1-0.206,A2D6VL5XE0O4D3,3HRWUH63RXIZS6U0Z3EY966PXK25N4,3AZHRG4CU80WFEDJAGT98H8F57003V,2,1
207,2,object_05,object_06,681.86999997124,4,2,287.10500011221,0.4444444444444444,2,object_08,5,3041,0,6,4,forest_7,2,memory-2step-stake-s,700,3691589,0.0-19.0-0.1-0.207,A2D6VL5XE0O4D3,3HRWUH63RXIZS6U0Z3EY966PXK25N4,3AZHRG4CU80WFEDJAGT98H8F57003V,3,4
208,1,object_02,object_07,745.99999981001,2,1,250.2150000073,0.7777777777777778,2,object_08,5,3076,0,7,7,desert_2,2,memory-2step-stake-s,701,3699806,0.0-19.0-0.1-0.208,A2D6VL5XE0O4D3,3HRWUH63RXIZS6U0Z3EY966PXK25N4,3AZHRG4CU80WFEDJAGT98H8F57003V,2,1
209,4,object_09,object_04,906.17000008933,8,2,259.79500007816,0.8888888888888888,2,object_08,1,3084,0,9,8,restaurant_3,2,memory-2step-stake-s,702,3708200,0.0-19.0-0.1-0.209,A2D6VL5XE0O4D3,3HRWUH63RXIZS6U0Z3EY966PXK25N4,3AZHRG4CU80WFEDJAGT98H8F57003V,7,8
210,4,object_04,object_09,1101.484999992,7,2,236.18999985047,0.5555555555555556,1,object_01,1,3089,0,5,8,restaurant_2,2,memory-2step-stake-s,703,3716254,0.0-19.0-0.1-0.210,A2D6VL5XE0O4D3,3HRWUH63RXIZS6U0Z3EY966PXK25N4,3AZHRG4CU80WFEDJAGT98H8F57003V,8,7
211,4,object_09,object_04,540.1950001251,7,1,297.83999989741,0.6666666666666666,1,object_01,1,3095,0,6,8,restaurant_2,2,memory-2step-stake-s,704,3724470,0.0-19.0-0.1-0.211,A2D6VL5XE0O4D3,3HRWUH63RXIZS6U0Z3EY966PXK25N4,3AZHRG4CU80WFEDJAGT98H8F57003V,7,8
212,4,object_09,object_04,1045.1350000221,7,1,366.23499984853,0.5555555555555556,1,object_01,1,3100,0,5,6,restaurant_5,2,memory-2step-stake-s,705,3732673,0.0-19.0-0.1-0.212,A2D6VL5XE0O4D3,3HRWUH63RXIZS6U0Z3EY966PXK25N4,3AZHRG4CU80WFEDJAGT98H8F57003V,7,8
213,4,object_04,object_09,779.19999998994,7,2,293.14500000328,0.7777777777777778,1,object_01,1,3107,0,7,7,restaurant_1,2,memory-2step-stake-s,706,3740969,0.0-19.0-0.1-0.213,A2D6VL5XE0O4D3,3HRWUH63RXIZS6U0Z3EY966PXK25N4,3AZHRG4CU80WFEDJAGT98H8F57003V,8,7
214,1,object_07,object_02,743.96000010893,1,1,242.50000016764,0.5555555555555556,1,object_01,5,3132,0,5,6,desert_3,2,memory-2step-stake-s,707,3748985,0.0-19.0-0.1-0.214,A2D6VL5XE0O4D3,3HRWUH63RXIZS6U0Z3EY966PXK25N4,3AZHRG4CU80WFEDJAGT98H8F57003V,1,2
215,3,object_10,object_03,523.63000018522,6,2,295.84000003524,1.0,2,object_08,1,3141,0,4,9,library_3,2,memory-2step-stake-s,708,3757519,0.0-19.0-0.1-0.215,A2D6VL5XE0O4D3,3HRWUH63RXIZS6U0Z3EY966PXK25N4,3AZHRG4CU80WFEDJAGT98H8F57003V,5,6
216,4,object_04,object_09,641.87000016682,8,1,284.45000015199,0.7777777777777778,2,object_08,5,3176,0,7,7,restaurant_3,2,memory-2step-stake-s,709,3765804,0.0-19.0-0.1-0.216,A2D6VL5XE0O4D3,3HRWUH63RXIZS6U0Z3EY966PXK25N4,3AZHRG4CU80WFEDJAGT98H8F57003V,8,7
217,1,object_07,object_02,783.53000013158,2,2,320.22499991581,0.8888888888888888,2,object_08,5,3216,0,6,8,desert_2,2,memory-2step-stake-s,710,3774251,0.0-19.0-0.1-0.217,A2D6VL5XE0O4D3,3HRWUH63RXIZS6U0Z3EY966PXK25N4,3AZHRG4CU80WFEDJAGT98H8F57003V,1,2
218,2,object_05,object_06,698.40499991551,4,2,253.38500016369,0.6666666666666666,2,object_08,5,3246,0,8,6,forest_5,2,memory-2step-stake-s,711,3782393,0.0-19.0-0.1-0.218,A2D6VL5XE0O4D3,3HRWUH63RXIZS6U0Z3EY966PXK25N4,3AZHRG4CU80WFEDJAGT98H8F57003V,3,4
219,1,object_02,object_07,648.53999996558,2,1,293.37000008672,0.6666666666666666,2,object_08,5,3276,0,8,6,desert_3,2,memory-2step-stake-s,712,3790595,0.0-19.0-0.1-0.219,A2D6VL5XE0O4D3,3HRWUH63RXIZS6U0Z3EY966PXK25N4,3AZHRG4CU80WFEDJAGT98H8F57003V,2,1
220,1,object_02,object_07,668.88500005007,1,2,310.93499995768,0.6666666666666666,1,object_01,1,3282,0,6,5,desert_8,2,memory-2step-stake-s,713,3798836,0.0-19.0-0.1-0.220,A2D6VL5XE0O4D3,3HRWUH63RXIZS6U0Z3EY966PXK25N4,3AZHRG4CU80WFEDJAGT98H8F57003V,2,1
221,3,object_10,object_03,624.75499999709,5,1,400.78000002541,0.7777777777777778,1,object_01,1,3289,0,7,7,library_4,2,memory-2step-stake-s,714,3807262,0.0-19.0-0.1-0.221,A2D6VL5XE0O4D3,3HRWUH63RXIZS6U0Z3EY966PXK25N4,3AZHRG4CU80WFEDJAGT98H8F57003V,5,6
222,2,object_05,object_06,716.84000012465,3,1,251.29000004381,0.8888888888888888,1,object_01,5,3329,0,8,9,forest_3,2,memory-2step-stake-s,715,3815634,0.0-19.0-0.1-0.222,A2D6VL5XE0O4D3,3HRWUH63RXIZS6U0Z3EY966PXK25N4,3AZHRG4CU80WFEDJAGT98H8F57003V,3,4
223,2,object_05,object_06,565.60500012711,3,1,258.61499994062,0.5555555555555556,1,object_01,1,3334,0,5,7,forest_8,2,memory-2step-stake-s,716,3823689,0.0-19.0-0.1-0.223,A2D6VL5XE0O4D3,3HRWUH63RXIZS6U0Z3EY966PXK25N4,3AZHRG4CU80WFEDJAGT98H8F57003V,3,4
224,4,object_09,object_04,628.65000008605,8,2,315.35500008613,0.7777777777777778,2,object_08,1,3341,0,0,7,restaurant_3,2,memory-2step-stake-s,717,3832015,0.0-19.0-0.1-0.224,A2D6VL5XE0O4D3,3HRWUH63RXIZS6U0Z3EY966PXK25N4,3AZHRG4CU80WFEDJAGT98H8F57003V,7,8
225,1,object_07,object_02,758.58499994501,2,2,285.29500006698,0.7777777777777778,2,object_08,5,3376,0,4,7,desert_2,2,memory-2step-stake-s,718,3840322,0.0-19.0-0.1-0.225,A2D6VL5XE0O4D3,3HRWUH63RXIZS6U0Z3EY966PXK25N4,3AZHRG4CU80WFEDJAGT98H8F57003V,1,2
226,2,object_05,object_06,485.34999997355,4,2,288.1650000345,0.7777777777777778,2,object_08,5,3411,0,3,7,forest_7,2,memory-2step-stake-s,719,3848639,0.0-19.0-0.1-0.226,A2D6VL5XE0O4D3,3HRWUH63RXIZS6U0Z3EY966PXK25N4,3AZHRG4CU80WFEDJAGT98H8F57003V,3,4
227,3,object_03,object_10,621.74000008963,6,1,386.54499989934,0.8888888888888888,2,object_08,1,3419,0,3,8,library_6,2,memory-2step-stake-s,720,3857195,0.0-19.0-0.1-0.227,A2D6VL5XE0O4D3,3HRWUH63RXIZS6U0Z3EY966PXK25N4,3AZHRG4CU80WFEDJAGT98H8F57003V,6,5
228,3,object_10,object_03,506.59000012092,6,2,294.95000001043,0.6666666666666666,2,object_08,1,3425,0,0,6,library_4,2,memory-2step-stake-s,721,3865415,0.0-19.0-0.1-0.228,A2D6VL5XE0O4D3,3HRWUH63RXIZS6U0Z3EY966PXK25N4,3AZHRG4CU80WFEDJAGT98H8F57003V,5,6
229,2,object_05,object_06,662.22499986179,3,1,232.10000013933,0.0,1,object_01,1,3425,0,0,9,forest_3,2,memory-2step-stake-s,722,3872904,0.0-19.0-0.1-0.229,A2D6VL5XE0O4D3,3HRWUH63RXIZS6U0Z3EY966PXK25N4,3AZHRG4CU80WFEDJAGT98H8F57003V,3,4
230,3,object_10,object_03,499.55000006594,6,2,350.3699998837,0.8888888888888888,2,object_08,1,3433,0,6,8,library_6,2,memory-2step-stake-s,723,3881327,0.0-19.0-0.1-0.230,A2D6VL5XE0O4D3,3HRWUH63RXIZS6U0Z3EY966PXK25N4,3AZHRG4CU80WFEDJAGT98H8F57003V,5,6
231,1,object_07,object_02,636.89500000328,2,2,340.30999988317,0.7777777777777778,2,object_08,5,3468,0,4,7,desert_8,2,memory-2step-stake-s,724,3889698,0.0-19.0-0.1-0.231,A2D6VL5XE0O4D3,3HRWUH63RXIZS6U0Z3EY966PXK25N4,3AZHRG4CU80WFEDJAGT98H8F57003V,1,2
232,4,object_09,object_04,665.98999989219,8,2,265.24999993853,0.7777777777777778,2,object_08,1,3475,0,4,7,restaurant_2,2,memory-2step-stake-s,725,3897934,0.0-19.0-0.1-0.232,A2D6VL5XE0O4D3,3HRWUH63RXIZS6U0Z3EY966PXK25N4,3AZHRG4CU80WFEDJAGT98H8F57003V,7,8
233,2,object_06,object_05,796.25500016846,4,1,319.5499998983,0.8888888888888888,2,object_08,5,3515,0,5,8,forest_8,2,memory-2step-stake-s,726,3906344,0.0-19.0-0.1-0.233,A2D6VL5XE0O4D3,3HRWUH63RXIZS6U0Z3EY966PXK25N4,3AZHRG4CU80WFEDJAGT98H8F57003V,4,3
234,1,object_07,object_02,618.28500009142,2,2,254.14999993518,0.7777777777777778,2,object_08,5,3550,0,7,7,desert_2,2,memory-2step-stake-s,727,3914567,0.0-19.0-0.1-0.234,A2D6VL5XE0O4D3,3HRWUH63RXIZS6U0Z3EY966PXK25N4,3AZHRG4CU80WFEDJAGT98H8F57003V,1,2
235,2,object_06,object_05,1184.2650000472,4,1,379.85999998637,0.7777777777777778,2,object_08,5,3585,0,6,7,forest_5,2,memory-2step-stake-s,728,3922968,0.0-19.0-0.1-0.235,A2D6VL5XE0O4D3,3HRWUH63RXIZS6U0Z3EY966PXK25N4,3AZHRG4CU80WFEDJAGT98H8F57003V,4,3
236,1,object_07,object_02,583.02500005811,2,2,255.52000012249,0.8888888888888888,2,object_08,5,3625,0,8,8,desert_3,2,memory-2step-stake-s,729,3931368,0.0-19.0-0.1-0.236,A2D6VL5XE0O4D3,3HRWUH63RXIZS6U0Z3EY966PXK25N4,3AZHRG4CU80WFEDJAGT98H8F57003V,1,2
237,2,object_06,object_05,964.9849999696,4,1,293.20499999449,0.8888888888888888,2,object_08,1,3633,0,8,8,forest_5,2,memory-2step-stake-s,730,3939783,0.0-19.0-0.1-0.237,A2D6VL5XE0O4D3,3HRWUH63RXIZS6U0Z3EY966PXK25N4,3AZHRG4CU80WFEDJAGT98H8F57003V,4,3
238,2,object_05,object_06,819.56500001252,4,2,248.66000004113,0.8888888888888888,2,object_08,5,3673,0,8,8,forest_5,2,memory-2step-stake-s,731,3948184,0.0-19.0-0.1-0.238,A2D6VL5XE0O4D3,3HRWUH63RXIZS6U0Z3EY966PXK25N4,3AZHRG4CU80WFEDJAGT98H8F57003V,3,4
239,1,object_02,object_07,556.18999991566,2,1,263.87999998406,0.8888888888888888,2,object_08,5,3713,0,8,8,desert_8,2,memory-2step-stake-s,732,3956583,0.0-19.0-0.1-0.239,A2D6VL5XE0O4D3,3HRWUH63RXIZS6U0Z3EY966PXK25N4,3AZHRG4CU80WFEDJAGT98H8F57003V,2,1
240,1,object_07,object_02,537.25999989547,2,2,351.76500002854,0.7777777777777778,2,object_08,5,3748,0,8,7,desert_8,2,memory-2step-stake-s,733,3964955,0.0-19.0-0.1-0.240,A2D6VL5XE0O4D3,3HRWUH63RXIZS6U0Z3EY966PXK25N4,3AZHRG4CU80WFEDJAGT98H8F57003V,1,2
241,3,object_03,object_10,563.42000002041,6,1,317.65999994241,0.5555555555555556,2,object_08,5,3773,0,5,5,library_4,2,memory-2step-stake-s,734,3973067,0.0-19.0-0.1-0.241,A2D6VL5XE0O4D3,3HRWUH63RXIZS6U0Z3EY966PXK25N4,3AZHRG4CU80WFEDJAGT98H8F57003V,6,5
242,1,object_07,object_02,804.71000005491,2,2,252.57500004955,0.1111111111111111,2,object_08,5,3778,0,6,1,desert_4,2,memory-2step-stake-s,735,3980698,0.0-19.0-0.1-0.242,A2D6VL5XE0O4D3,3HRWUH63RXIZS6U0Z3EY966PXK25N4,3AZHRG4CU80WFEDJAGT98H8F57003V,1,2
243,4,object_09,object_04,968.18999992684,7,1,238.7049999088,0.3333333333333333,1,object_01,1,3781,0,3,1,restaurant_2,2,memory-2step-stake-s,736,3988515,0.0-19.0-0.1-0.243,A2D6VL5XE0O4D3,3HRWUH63RXIZS6U0Z3EY966PXK25N4,3AZHRG4CU80WFEDJAGT98H8F57003V,7,8
244,3,object_10,object_03,760.03000000492,5,1,541.25500004739,0.0,1,object_01,1,3781,0,0,3,library_6,2,memory-2step-stake-s,737,3996315,0.0-19.0-0.1-0.244,A2D6VL5XE0O4D3,3HRWUH63RXIZS6U0Z3EY966PXK25N4,3AZHRG4CU80WFEDJAGT98H8F57003V,5,6
245,3,object_03,object_10,594.96999997646,6,1,237.6599998679,0.5555555555555556,2,object_08,1,3786,0,0,5,library_1,2,memory-2step-stake-s,738,4004383,0.0-19.0-0.1-0.245,A2D6VL5XE0O4D3,3HRWUH63RXIZS6U0Z3EY966PXK25N4,3AZHRG4CU80WFEDJAGT98H8F57003V,6,5
246,1,object_02,object_07,912.47000009753,2,1,227.84499987029,0.1111111111111111,2,object_08,1,3787,0,1,1,desert_8,2,memory-2step-stake-s,739,4011996,0.0-19.0-0.1-0.246,A2D6VL5XE0O4D3,3HRWUH63RXIZS6U0Z3EY966PXK25N4,3AZHRG4CU80WFEDJAGT98H8F57003V,2,1
247,1,object_02,object_07,584.01499991305,2,1,246.94500002079,0.2222222222222222,2,object_08,5,3797,0,2,2,desert_2,2,memory-2step-stake-s,740,4019745,0.0-19.0-0.1-0.247,A2D6VL5XE0O4D3,3HRWUH63RXIZS6U0Z3EY966PXK25N4,3AZHRG4CU80WFEDJAGT98H8F57003V,2,1
248,2,object_05,object_06,738.37500018999,3,1,264.81499988586,0.4444444444444444,1,object_01,5,3817,0,4,3,forest_7,2,memory-2step-stake-s,741,4027715,0.0-19.0-0.1-0.248,A2D6VL5XE0O4D3,3HRWUH63RXIZS6U0Z3EY966PXK25N4,3AZHRG4CU80WFEDJAGT98H8F57003V,3,4
249,4,object_04,object_09,737.42999997921,7,2,261.1400000751,0.3333333333333333,1,object_01,1,3820,0,3,3,restaurant_5,2,memory-2step-stake-s,742,4035581,0.0-19.0-0.1-0.249,A2D6VL5XE0O4D3,3HRWUH63RXIZS6U0Z3EY966PXK25N4,3AZHRG4CU80WFEDJAGT98H8F57003V,8,7
250,3,object_10,object_03,601.6299999319,5,1,257.81500013545,0.1111111111111111,1,object_01,1,3821,0,1,3,library_4,2,memory-2step-stake-s,743,4043216,0.0-19.0-0.1-0.250,A2D6VL5XE0O4D3,3HRWUH63RXIZS6U0Z3EY966PXK25N4,3AZHRG4CU80WFEDJAGT98H8F57003V,5,6
251,4,object_09,object_04,869.19500003569,7,1,411.16999997757,0.2222222222222222,1,object_01,1,3823,0,2,4,restaurant_3,2,memory-2step-stake-s,744,4051097,0.0-19.0-0.1-0.251,A2D6VL5XE0O4D3,3HRWUH63RXIZS6U0Z3EY966PXK25N4,3AZHRG4CU80WFEDJAGT98H8F57003V,7,8
252,3,object_03,object_10,576.69500005431,5,2,232.7449999284,0.3333333333333333,1,object_01,5,3838,0,3,3,library_4,2,memory-2step-stake-s,745,4058913,0.0-19.0-0.1-0.252,A2D6VL5XE0O4D3,3HRWUH63RXIZS6U0Z3EY966PXK25N4,3AZHRG4CU80WFEDJAGT98H8F57003V,6,5
253,4,object_09,object_04,1320.4449999612,8,2,294.75999996066,0.3333333333333333,2,object_08,1,3841,0,3,3,restaurant_1,2,memory-2step-stake-s,746,4066777,0.0-19.0-0.1-0.253,A2D6VL5XE0O4D3,3HRWUH63RXIZS6U0Z3EY966PXK25N4,3AZHRG4CU80WFEDJAGT98H8F57003V,7,8
254,4,object_09,object_04,688.06000007316,8,2,284.07000005245,0.3333333333333333,2,object_08,1,3844,0,5,3,restaurant_5,2,memory-2step-stake-s,747,4074658,0.0-19.0-0.1-0.254,A2D6VL5XE0O4D3,3HRWUH63RXIZS6U0Z3EY966PXK25N4,3AZHRG4CU80WFEDJAGT98H8F57003V,7,8
255,4,object_04,object_09,634.76499984972,8,1,245.41999981739,0.5555555555555556,2,object_08,1,3849,0,6,5,restaurant_3,2,memory-2step-stake-s,748,4082689,0.0-19.0-0.1-0.255,A2D6VL5XE0O4D3,3HRWUH63RXIZS6U0Z3EY966PXK25N4,3AZHRG4CU80WFEDJAGT98H8F57003V,8,7
