,state1,stim_left,stim_right,rt_1,choice1,response1,rt_2,points,state2,stim_state2,stake,score,practice,rews1,rews2,background,high_arm,trial_type,trial_index,time_elapsed,internal_node_id,subid,hitid,assignmentid,stim_left_num,stim_right_num
0,3,object_04,object_07,1032.1000000089,5,1,-1.0,0.0,1,object_05,1,0,0,2,5,library_4,2,memory-2step-stake-s,488,1005887,0.0-19.0-0.0-0.0,A26ULCPI7UC9R0,3SD15I2WE5AO7614M34OSYMJOYM362,3QJOXOW4XN7WSQ0NO5X3P5JPZZPEM9,5,6
1,3,object_04,object_07,623.59999999404,5,1,309.89999999106,0.0,1,object_05,5,0,0,0,5,library_4,2,memory-2step-stake-s,489,1013422,0.0-19.0-0.0-0.1,A26ULCPI7UC9R0,3SD15I2WE5AO7614M34OSYMJOYM362,3QJOXOW4XN7WSQ0NO5X3P5JPZZPEM9,5,6
2,4,object_09,object_08,815.09999999404,8,2,742.40000000596,0.6666666666666666,2,object_03,1,6,0,1,6,restaurant_2,2,memory-2step-stake-s,490,1022025,0.0-19.0-0.0-0.2,A26ULCPI7UC9R0,3SD15I2WE5AO7614M34OSYMJOYM362,3QJOXOW4XN7WSQ0NO5X3P5JPZZPEM9,7,8
3,3,object_04,object_07,790.29999999702,6,2,608.5,0.3333333333333333,2,object_03,1,9,0,0,3,library_4,2,memory-2step-stake-s,491,1030175,0.0-19.0-0.0-0.3,A26ULCPI7UC9R0,3SD15I2WE5AO7614M34OSYMJOYM362,3QJOXOW4XN7WSQ0NO5X3P5JPZZPEM9,5,6
4,4,object_08,object_09,919.0,7,2,586.59999999404,0.1111111111111111,1,object_05,1,10,0,1,4,restaurant_5,2,memory-2step-stake-s,492,1038096,0.0-19.0-0.0-0.4,A26ULCPI7UC9R0,3SD15I2WE5AO7614M34OSYMJOYM362,3QJOXOW4XN7WSQ0NO5X3P5JPZZPEM9,8,7
5,4,object_09,object_08,758.60000000894,7,1,576.39999999106,0.1111111111111111,1,object_05,1,11,0,1,4,restaurant_2,2,memory-2step-stake-s,493,1046001,0.0-19.0-0.0-0.5,A26ULCPI7UC9R0,3SD15I2WE5AO7614M34OSYMJOYM362,3QJOXOW4XN7WSQ0NO5X3P5JPZZPEM9,7,8
6,3,object_07,object_04,1118.5,5,2,533.20000000298,0.1111111111111111,1,object_05,1,12,0,1,8,library_1,2,memory-2step-stake-s,494,1053872,0.0-19.0-0.0-0.6,A26ULCPI7UC9R0,3SD15I2WE5AO7614M34OSYMJOYM362,3QJOXOW4XN7WSQ0NO5X3P5JPZZPEM9,6,5
7,1,object_10,object_06,926.79999999702,2,2,649.40000000596,0.7777777777777778,2,object_03,5,47,0,4,7,desert_3,2,memory-2step-stake-s,495,1062466,0.0-19.0-0.0-0.7,A26ULCPI7UC9R0,3SD15I2WE5AO7614M34OSYMJOYM362,3QJOXOW4XN7WSQ0NO5X3P5JPZZPEM9,1,2
8,4,object_09,object_08,938.20000000298,8,2,510.5,0.5555555555555556,2,object_03,1,52,0,2,5,restaurant_6,2,memory-2step-stake-s,496,1070712,0.0-19.0-0.0-0.8,A26ULCPI7UC9R0,3SD15I2WE5AO7614M34OSYMJOYM362,3QJOXOW4XN7WSQ0NO5X3P5JPZZPEM9,7,8
9,1,object_06,object_10,1093.5,1,2,462.5,0.2222222222222222,1,object_05,1,54,0,2,0,desert_4,2,memory-2step-stake-s,497,1078590,0.0-19.0-0.0-0.9,A26ULCPI7UC9R0,3SD15I2WE5AO7614M34OSYMJOYM362,3QJOXOW4XN7WSQ0NO5X3P5JPZZPEM9,2,1
10,1,object_10,object_06,926.29999999702,1,1,588.29999999702,0.3333333333333333,1,object_05,5,69,0,3,2,desert_4,2,memory-2step-stake-s,498,1086698,0.0-19.0-0.0-0.10,A26ULCPI7UC9R0,3SD15I2WE5AO7614M34OSYMJOYM362,3QJOXOW4XN7WSQ0NO5X3P5JPZZPEM9,1,2
11,1,object_06,object_10,920.59999999404,2,1,672.59999999404,0.1111111111111111,2,object_03,5,74,0,3,1,desert_4,2,memory-2step-stake-s,499,1094703,0.0-19.0-0.0-0.11,A26ULCPI7UC9R0,3SD15I2WE5AO7614M34OSYMJOYM362,3QJOXOW4XN7WSQ0NO5X3P5JPZZPEM9,2,1
12,1,object_10,object_06,1274.700000003,2,2,404.40000000596,0.2222222222222222,2,object_03,5,84,0,2,2,desert_3,2,memory-2step-stake-s,500,1102522,0.0-19.0-0.0-0.12,A26ULCPI7UC9R0,3SD15I2WE5AO7614M34OSYMJOYM362,3QJOXOW4XN7WSQ0NO5X3P5JPZZPEM9,1,2
13,2,object_02,object_01,814.40000000596,4,1,481.59999999404,0.2222222222222222,2,object_03,1,86,0,6,2,forest_8,2,memory-2step-stake-s,501,1110420,0.0-19.0-0.0-0.13,A26ULCPI7UC9R0,3SD15I2WE5AO7614M34OSYMJOYM362,3QJOXOW4XN7WSQ0NO5X3P5JPZZPEM9,4,3
14,3,object_07,object_04,862.59999999404,6,1,563.60000000894,0.2222222222222222,2,object_03,5,96,0,7,2,library_2,2,memory-2step-stake-s,502,1118401,0.0-19.0-0.0-0.14,A26ULCPI7UC9R0,3SD15I2WE5AO7614M34OSYMJOYM362,3QJOXOW4XN7WSQ0NO5X3P5JPZZPEM9,6,5
15,2,object_02,object_01,794.60000000894,4,1,332.59999999404,0.1111111111111111,2,object_03,1,97,0,8,1,forest_2,2,memory-2step-stake-s,503,1126050,0.0-19.0-0.0-0.15,A26ULCPI7UC9R0,3SD15I2WE5AO7614M34OSYMJOYM362,3QJOXOW4XN7WSQ0NO5X3P5JPZZPEM9,4,3
16,4,object_09,object_08,730.20000000298,8,2,443.29999999702,0.2222222222222222,2,object_03,1,99,0,6,2,restaurant_2,2,memory-2step-stake-s,504,1133907,0.0-19.0-0.0-0.16,A26ULCPI7UC9R0,3SD15I2WE5AO7614M34OSYMJOYM362,3QJOXOW4XN7WSQ0NO5X3P5JPZZPEM9,7,8
17,1,object_10,object_06,870.09999999404,2,2,327.40000000596,0.1111111111111111,2,object_03,5,104,0,6,1,desert_4,2,memory-2step-stake-s,505,1141548,0.0-19.0-0.0-0.17,A26ULCPI7UC9R0,3SD15I2WE5AO7614M34OSYMJOYM362,3QJOXOW4XN7WSQ0NO5X3P5JPZZPEM9,1,2
18,1,object_10,object_06,1064.700000003,1,1,397.5,0.7777777777777778,1,object_05,5,139,0,7,5,desert_3,2,memory-2step-stake-s,506,1149882,0.0-19.0-0.0-0.18,A26ULCPI7UC9R0,3SD15I2WE5AO7614M34OSYMJOYM362,3QJOXOW4XN7WSQ0NO5X3P5JPZZPEM9,1,2
19,3,object_04,object_07,957.20000000298,6,2,402.09999999404,0.7777777777777778,2,object_03,5,174,0,9,7,library_1,2,memory-2step-stake-s,507,1158208,0.0-19.0-0.0-0.19,A26ULCPI7UC9R0,3SD15I2WE5AO7614M34OSYMJOYM362,3QJOXOW4XN7WSQ0NO5X3P5JPZZPEM9,5,6
20,1,object_06,object_10,818.0,2,1,345.79999999702,1.0,2,object_03,5,219,0,7,9,desert_2,2,memory-2step-stake-s,508,1166698,0.0-19.0-0.0-0.20,A26ULCPI7UC9R0,3SD15I2WE5AO7614M34OSYMJOYM362,3QJOXOW4XN7WSQ0NO5X3P5JPZZPEM9,2,1
21,1,object_10,object_06,940.70000000298,1,1,320.89999999106,0.6666666666666666,1,object_05,5,249,0,6,9,desert_4,2,memory-2step-stake-s,509,1174862,0.0-19.0-0.0-0.21,A26ULCPI7UC9R0,3SD15I2WE5AO7614M34OSYMJOYM362,3QJOXOW4XN7WSQ0NO5X3P5JPZZPEM9,1,2
22,2,object_01,object_02,832.40000000596,4,2,469.20000000298,0.7777777777777778,2,object_03,5,284,0,6,7,forest_5,2,memory-2step-stake-s,510,1183253,0.0-19.0-0.0-0.22,A26ULCPI7UC9R0,3SD15I2WE5AO7614M34OSYMJOYM362,3QJOXOW4XN7WSQ0NO5X3P5JPZZPEM9,3,4
23,1,object_06,object_10,860.79999999702,2,1,569.5,0.7777777777777778,2,object_03,5,319,0,5,7,desert_3,2,memory-2step-stake-s,511,1191746,0.0-19.0-0.0-0.23,A26ULCPI7UC9R0,3SD15I2WE5AO7614M34OSYMJOYM362,3QJOXOW4XN7WSQ0NO5X3P5JPZZPEM9,2,1
24,3,object_04,object_07,765.0,5,1,442.09999999404,0.5555555555555556,1,object_05,1,324,0,5,8,library_5,2,memory-2step-stake-s,512,1199939,0.0-19.0-0.0-0.24,A26ULCPI7UC9R0,3SD15I2WE5AO7614M34OSYMJOYM362,3QJOXOW4XN7WSQ0NO5X3P5JPZZPEM9,5,6
25,2,object_02,object_01,786.5,4,1,338.5,0.8888888888888888,2,object_03,5,364,0,6,8,forest_2,2,memory-2step-stake-s,513,1208314,0.0-19.0-0.0-0.25,A26ULCPI7UC9R0,3SD15I2WE5AO7614M34OSYMJOYM362,3QJOXOW4XN7WSQ0NO5X3P5JPZZPEM9,4,3
26,1,object_10,object_06,812.79999999702,1,1,389.40000000596,0.8888888888888888,1,object_05,5,404,0,8,8,desert_2,2,memory-2step-stake-s,514,1216766,0.0-19.0-0.0-0.26,A26ULCPI7UC9R0,3SD15I2WE5AO7614M34OSYMJOYM362,3QJOXOW4XN7WSQ0NO5X3P5JPZZPEM9,1,2
27,1,object_06,object_10,686.0,2,1,403.09999999404,0.5555555555555556,2,object_03,1,409,0,6,5,desert_2,2,memory-2step-stake-s,515,1224920,0.0-19.0-0.0-0.27,A26ULCPI7UC9R0,3SD15I2WE5AO7614M34OSYMJOYM362,3QJOXOW4XN7WSQ0NO5X3P5JPZZPEM9,2,1
28,4,object_08,object_09,886.29999999702,7,2,428.70000000298,0.8888888888888888,1,object_05,1,417,0,8,3,restaurant_6,2,memory-2step-stake-s,516,1233372,0.0-19.0-0.0-0.28,A26ULCPI7UC9R0,3SD15I2WE5AO7614M34OSYMJOYM362,3QJOXOW4XN7WSQ0NO5X3P5JPZZPEM9,8,7
29,4,object_09,object_08,921.90000000596,8,2,520.09999999404,0.3333333333333333,2,object_03,1,420,0,7,3,restaurant_8,2,memory-2step-stake-s,517,1241422,0.0-19.0-0.0-0.29,A26ULCPI7UC9R0,3SD15I2WE5AO7614M34OSYMJOYM362,3QJOXOW4XN7WSQ0NO5X3P5JPZZPEM9,7,8
30,2,object_02,object_01,719.59999999404,4,1,227.89999999106,0.3333333333333333,2,object_03,5,435,0,4,3,forest_3,2,memory-2step-stake-s,518,1249171,0.0-19.0-0.0-0.30,A26ULCPI7UC9R0,3SD15I2WE5AO7614M34OSYMJOYM362,3QJOXOW4XN7WSQ0NO5X3P5JPZZPEM9,4,3
31,4,object_09,object_08,871.90000000596,8,2,245.90000000596,0.1111111111111111,2,object_03,1,436,0,5,1,restaurant_8,2,memory-2step-stake-s,519,1256749,0.0-19.0-0.0-0.31,A26ULCPI7UC9R0,3SD15I2WE5AO7614M34OSYMJOYM362,3QJOXOW4XN7WSQ0NO5X3P5JPZZPEM9,7,8
32,1,object_06,object_10,734.39999999106,2,1,304.0,0.1111111111111111,2,object_03,5,441,0,4,1,desert_4,2,memory-2step-stake-s,520,1264371,0.0-19.0-0.0-0.32,A26ULCPI7UC9R0,3SD15I2WE5AO7614M34OSYMJOYM362,3QJOXOW4XN7WSQ0NO5X3P5JPZZPEM9,2,1
33,4,object_08,object_09,728.0,7,2,282.79999999702,0.6666666666666666,1,object_05,1,447,0,6,3,restaurant_6,2,memory-2step-stake-s,521,1272477,0.0-19.0-0.0-0.33,A26ULCPI7UC9R0,3SD15I2WE5AO7614M34OSYMJOYM362,3QJOXOW4XN7WSQ0NO5X3P5JPZZPEM9,8,7
34,1,object_06,object_10,892.29999999702,1,2,359.40000000596,0.8888888888888888,1,object_05,1,455,0,8,1,desert_5,2,memory-2step-stake-s,522,1280888,0.0-19.0-0.0-0.34,A26ULCPI7UC9R0,3SD15I2WE5AO7614M34OSYMJOYM362,3QJOXOW4XN7WSQ0NO5X3P5JPZZPEM9,2,1
35,3,object_04,object_07,746.90000000596,5,1,364.80000001192,0.8888888888888888,1,object_05,5,495,0,8,2,library_5,2,memory-2step-stake-s,523,1289280,0.0-19.0-0.0-0.35,A26ULCPI7UC9R0,3SD15I2WE5AO7614M34OSYMJOYM362,3QJOXOW4XN7WSQ0NO5X3P5JPZZPEM9,5,6
36,4,object_08,object_09,849.29999999702,7,2,917.5,0.7777777777777778,1,object_05,5,530,0,7,2,restaurant_5,2,memory-2step-stake-s,524,1298126,0.0-19.0-0.0-0.36,A26ULCPI7UC9R0,3SD15I2WE5AO7614M34OSYMJOYM362,3QJOXOW4XN7WSQ0NO5X3P5JPZZPEM9,8,7
37,2,object_01,object_02,814.20000000298,3,1,545.70000000298,0.6666666666666666,1,object_05,1,536,0,6,3,forest_5,2,memory-2step-stake-s,525,1306495,0.0-19.0-0.0-0.37,A26ULCPI7UC9R0,3SD15I2WE5AO7614M34OSYMJOYM362,3QJOXOW4XN7WSQ0NO5X3P5JPZZPEM9,3,4
38,4,object_08,object_09,957.20000000298,7,2,306.5,0.6666666666666666,1,object_05,5,566,0,6,4,restaurant_6,2,memory-2step-stake-s,526,1314632,0.0-19.0-0.0-0.38,A26ULCPI7UC9R0,3SD15I2WE5AO7614M34OSYMJOYM362,3QJOXOW4XN7WSQ0NO5X3P5JPZZPEM9,8,7
39,1,object_10,object_06,966.79999999702,1,1,396.89999999106,0.5555555555555556,1,object_05,5,591,0,5,2,desert_5,2,memory-2step-stake-s,527,1322752,0.0-19.0-0.0-0.39,A26ULCPI7UC9R0,3SD15I2WE5AO7614M34OSYMJOYM362,3QJOXOW4XN7WSQ0NO5X3P5JPZZPEM9,1,2
40,1,object_10,object_06,904.40000000596,1,1,306.40000000596,0.7777777777777778,1,object_05,1,598,0,7,1,desert_2,2,memory-2step-stake-s,528,1330990,0.0-19.0-0.0-0.40,A26ULCPI7UC9R0,3SD15I2WE5AO7614M34OSYMJOYM362,3QJOXOW4XN7WSQ0NO5X3P5JPZZPEM9,1,2
41,4,object_08,object_09,947.60000000894,7,2,247.40000000596,0.8888888888888888,1,object_05,1,606,0,8,3,restaurant_2,2,memory-2step-stake-s,529,1339272,0.0-19.0-0.0-0.41,A26ULCPI7UC9R0,3SD15I2WE5AO7614M34OSYMJOYM362,3QJOXOW4XN7WSQ0NO5X3P5JPZZPEM9,8,7
42,3,object_07,object_04,805.39999999106,5,2,330.70000000298,1.0,1,object_05,1,615,0,9,2,library_2,2,memory-2step-stake-s,530,1347729,0.0-19.0-0.0-0.42,A26ULCPI7UC9R0,3SD15I2WE5AO7614M34OSYMJOYM362,3QJOXOW4XN7WSQ0NO5X3P5JPZZPEM9,6,5
43,1,object_10,object_06,1003.3999999911,1,1,339.5,0.8888888888888888,1,object_05,5,655,0,8,2,desert_2,2,memory-2step-stake-s,531,1356133,0.0-19.0-0.0-0.43,A26ULCPI7UC9R0,3SD15I2WE5AO7614M34OSYMJOYM362,3QJOXOW4XN7WSQ0NO5X3P5JPZZPEM9,1,2
44,2,object_02,object_01,1015.200000003,3,2,278.60000000894,1.0,1,object_05,5,700,0,9,4,forest_5,2,memory-2step-stake-s,532,1364546,0.0-19.0-0.0-0.44,A26ULCPI7UC9R0,3SD15I2WE5AO7614M34OSYMJOYM362,3QJOXOW4XN7WSQ0NO5X3P5JPZZPEM9,4,3
45,4,object_09,object_08,755.79999999702,7,1,294.39999999106,0.6666666666666666,1,object_05,5,730,0,6,4,restaurant_2,2,memory-2step-stake-s,533,1372693,0.0-19.0-0.0-0.45,A26ULCPI7UC9R0,3SD15I2WE5AO7614M34OSYMJOYM362,3QJOXOW4XN7WSQ0NO5X3P5JPZZPEM9,7,8
46,3,object_07,object_04,796.70000000298,5,2,533.79999999702,0.5555555555555556,1,object_05,5,755,0,5,3,library_4,2,memory-2step-stake-s,534,1380976,0.0-19.0-0.0-0.46,A26ULCPI7UC9R0,3SD15I2WE5AO7614M34OSYMJOYM362,3QJOXOW4XN7WSQ0NO5X3P5JPZZPEM9,6,5
47,4,object_08,object_09,734.70000000298,8,1,329.20000000298,0.3333333333333333,2,object_03,1,758,0,4,3,restaurant_2,2,memory-2step-stake-s,535,1388836,0.0-19.0-0.0-0.47,A26ULCPI7UC9R0,3SD15I2WE5AO7614M34OSYMJOYM362,3QJOXOW4XN7WSQ0NO5X3P5JPZZPEM9,8,7
48,1,object_10,object_06,811.60000000894,1,1,337.29999999702,0.8888888888888888,1,object_05,1,766,0,8,1,desert_2,2,memory-2step-stake-s,536,1397224,0.0-19.0-0.0-0.48,A26ULCPI7UC9R0,3SD15I2WE5AO7614M34OSYMJOYM362,3QJOXOW4XN7WSQ0NO5X3P5JPZZPEM9,1,2
49,2,object_01,object_02,1001.0,3,1,581.29999999702,0.5555555555555556,1,object_05,1,771,0,5,1,forest_2,2,memory-2step-stake-s,537,1405531,0.0-19.0-0.0-0.49,A26ULCPI7UC9R0,3SD15I2WE5AO7614M34OSYMJOYM362,3QJOXOW4XN7WSQ0NO5X3P5JPZZPEM9,3,4
50,1,object_10,object_06,1133.799999997,1,1,284.69999998808,0.4444444444444444,1,object_05,5,791,0,4,1,desert_3,2,memory-2step-stake-s,538,1413449,0.0-19.0-0.0-0.50,A26ULCPI7UC9R0,3SD15I2WE5AO7614M34OSYMJOYM362,3QJOXOW4XN7WSQ0NO5X3P5JPZZPEM9,1,2
51,4,object_08,object_09,822.89999999106,7,2,309.29999999702,0.4444444444444444,1,object_05,1,795,0,4,3,restaurant_8,2,memory-2step-stake-s,539,1421393,0.0-19.0-0.0-0.51,A26ULCPI7UC9R0,3SD15I2WE5AO7614M34OSYMJOYM362,3QJOXOW4XN7WSQ0NO5X3P5JPZZPEM9,8,7
52,2,object_02,object_01,856.09999999404,3,2,232.70000000298,0.3333333333333333,1,object_05,1,798,0,3,2,forest_5,2,memory-2step-stake-s,540,1429161,0.0-19.0-0.0-0.52,A26ULCPI7UC9R0,3SD15I2WE5AO7614M34OSYMJOYM362,3QJOXOW4XN7WSQ0NO5X3P5JPZZPEM9,4,3
53,2,object_02,object_01,792.0,3,2,122.80000001192,0.5555555555555556,1,object_05,5,823,0,5,4,forest_2,2,memory-2step-stake-s,541,1437010,0.0-19.0-0.0-0.53,A26ULCPI7UC9R0,3SD15I2WE5AO7614M34OSYMJOYM362,3QJOXOW4XN7WSQ0NO5X3P5JPZZPEM9,4,3
54,1,object_10,object_06,838.89999999106,1,1,249.29999999702,0.5555555555555556,1,object_05,5,848,0,5,1,desert_5,2,memory-2step-stake-s,542,1444985,0.0-19.0-0.0-0.54,A26ULCPI7UC9R0,3SD15I2WE5AO7614M34OSYMJOYM362,3QJOXOW4XN7WSQ0NO5X3P5JPZZPEM9,1,2
55,3,object_07,object_04,739.79999999702,5,2,250.79999999702,0.3333333333333333,1,object_05,5,863,0,3,0,library_2,2,memory-2step-stake-s,543,1452759,0.0-19.0-0.0-0.55,A26ULCPI7UC9R0,3SD15I2WE5AO7614M34OSYMJOYM362,3QJOXOW4XN7WSQ0NO5X3P5JPZZPEM9,6,5
56,3,object_07,object_04,768.20000000298,5,2,572.79999999702,0.4444444444444444,1,object_05,1,867,0,4,2,library_4,2,memory-2step-stake-s,544,1460958,0.0-19.0-0.0-0.56,A26ULCPI7UC9R0,3SD15I2WE5AO7614M34OSYMJOYM362,3QJOXOW4XN7WSQ0NO5X3P5JPZZPEM9,6,5
57,4,object_08,object_09,1158.5,8,1,493.60000000894,0.1111111111111111,2,object_03,1,868,0,6,1,restaurant_2,2,memory-2step-stake-s,545,1468771,0.0-19.0-0.0-0.57,A26ULCPI7UC9R0,3SD15I2WE5AO7614M34OSYMJOYM362,3QJOXOW4XN7WSQ0NO5X3P5JPZZPEM9,8,7
58,4,object_09,object_08,1057.799999997,8,2,262.20000000298,0.1111111111111111,2,object_03,1,869,0,4,1,restaurant_6,2,memory-2step-stake-s,546,1476355,0.0-19.0-0.0-0.58,A26ULCPI7UC9R0,3SD15I2WE5AO7614M34OSYMJOYM362,3QJOXOW4XN7WSQ0NO5X3P5JPZZPEM9,7,8
59,2,object_01,object_02,1255.5,3,1,310.0,0.6666666666666666,1,object_05,5,899,0,6,0,forest_8,2,memory-2step-stake-s,547,1484502,0.0-19.0-0.0-0.59,A26ULCPI7UC9R0,3SD15I2WE5AO7614M34OSYMJOYM362,3QJOXOW4XN7WSQ0NO5X3P5JPZZPEM9,3,4
60,3,object_07,object_04,773.60000000894,5,2,286.89999999106,0.6666666666666666,1,object_05,5,929,0,6,1,library_1,2,memory-2step-stake-s,548,1492630,0.0-19.0-0.0-0.60,A26ULCPI7UC9R0,3SD15I2WE5AO7614M34OSYMJOYM362,3QJOXOW4XN7WSQ0NO5X3P5JPZZPEM9,6,5
61,4,object_09,object_08,1068.900000006,7,1,361.5,0.5555555555555556,1,object_05,1,934,0,5,3,restaurant_6,2,memory-2step-stake-s,549,1500718,0.0-19.0-0.0-0.61,A26ULCPI7UC9R0,3SD15I2WE5AO7614M34OSYMJOYM362,3QJOXOW4XN7WSQ0NO5X3P5JPZZPEM9,7,8
62,4,object_09,object_08,986.89999999106,7,1,44.399999991059,0.7777777777777778,1,object_05,1,941,0,7,1,restaurant_2,2,memory-2step-stake-s,550,1508689,0.0-19.0-0.0-0.62,A26ULCPI7UC9R0,3SD15I2WE5AO7614M34OSYMJOYM362,3QJOXOW4XN7WSQ0NO5X3P5JPZZPEM9,7,8
63,3,object_04,object_07,646.70000000298,5,1,89.5,0.8888888888888888,1,object_05,1,949,0,8,0,library_1,2,memory-2step-stake-s,551,1516809,0.0-19.0-0.0-0.63,A26ULCPI7UC9R0,3SD15I2WE5AO7614M34OSYMJOYM362,3QJOXOW4XN7WSQ0NO5X3P5JPZZPEM9,5,6
64,3,object_04,object_07,586.20000000298,5,1,108.20000000298,0.6666666666666666,1,object_05,1,955,0,6,1,library_5,2,memory-2step-stake-s,552,1524745,0.0-19.0-0.0-0.64,A26ULCPI7UC9R0,3SD15I2WE5AO7614M34OSYMJOYM362,3QJOXOW4XN7WSQ0NO5X3P5JPZZPEM9,5,6
65,1,object_06,object_10,1034.299999997,1,2,597.59999999404,0.3333333333333333,1,object_05,1,958,0,3,2,desert_2,2,memory-2step-stake-s,553,1532867,0.0-19.0-0.0-0.65,A26ULCPI7UC9R0,3SD15I2WE5AO7614M34OSYMJOYM362,3QJOXOW4XN7WSQ0NO5X3P5JPZZPEM9,2,1
66,2,object_01,object_02,852.70000000298,3,1,237.40000000596,0.2222222222222222,1,object_05,1,960,0,2,2,forest_8,2,memory-2step-stake-s,554,1540525,0.0-19.0-0.0-0.66,A26ULCPI7UC9R0,3SD15I2WE5AO7614M34OSYMJOYM362,3QJOXOW4XN7WSQ0NO5X3P5JPZZPEM9,3,4
67,1,object_06,object_10,1041.200000003,1,2,255.20000000298,0.1111111111111111,1,object_05,5,965,0,1,2,desert_4,2,memory-2step-stake-s,555,1548102,0.0-19.0-0.0-0.67,A26ULCPI7UC9R0,3SD15I2WE5AO7614M34OSYMJOYM362,3QJOXOW4XN7WSQ0NO5X3P5JPZZPEM9,2,1
68,3,object_04,object_07,706.20000000298,6,2,217.19999998808,0.6666666666666666,2,object_03,5,995,0,1,6,library_1,2,memory-2step-stake-s,556,1556149,0.0-19.0-0.0-0.68,A26ULCPI7UC9R0,3SD15I2WE5AO7614M34OSYMJOYM362,3QJOXOW4XN7WSQ0NO5X3P5JPZZPEM9,5,6
69,2,object_01,object_02,925.39999999106,4,2,28.5,0.5555555555555556,2,object_03,5,1020,0,2,5,forest_2,2,memory-2step-stake-s,557,1563904,0.0-19.0-0.0-0.69,A26ULCPI7UC9R0,3SD15I2WE5AO7614M34OSYMJOYM362,3QJOXOW4XN7WSQ0NO5X3P5JPZZPEM9,3,4
70,1,object_10,object_06,1091.1000000089,2,2,287.0,0.5555555555555556,2,object_03,5,1045,0,1,5,desert_5,2,memory-2step-stake-s,558,1571924,0.0-19.0-0.0-0.70,A26ULCPI7UC9R0,3SD15I2WE5AO7614M34OSYMJOYM362,3QJOXOW4XN7WSQ0NO5X3P5JPZZPEM9,1,2
71,2,object_02,object_01,969.29999999702,4,1,270.79999999702,0.7777777777777778,2,object_03,5,1080,0,2,7,forest_2,2,memory-2step-stake-s,559,1580133,0.0-19.0-0.0-0.71,A26ULCPI7UC9R0,3SD15I2WE5AO7614M34OSYMJOYM362,3QJOXOW4XN7WSQ0NO5X3P5JPZZPEM9,4,3
72,3,object_07,object_04,908.0,6,1,614.60000000894,0.4444444444444444,2,object_03,1,1084,0,4,4,library_4,2,memory-2step-stake-s,560,1588383,0.0-19.0-0.0-0.72,A26ULCPI7UC9R0,3SD15I2WE5AO7614M34OSYMJOYM362,3QJOXOW4XN7WSQ0NO5X3P5JPZZPEM9,6,5
73,2,object_01,object_02,894.09999999404,4,2,321.29999999702,0.2222222222222222,2,object_03,1,1086,0,1,2,forest_3,2,memory-2step-stake-s,561,1596128,0.0-19.0-0.0-0.73,A26ULCPI7UC9R0,3SD15I2WE5AO7614M34OSYMJOYM362,3QJOXOW4XN7WSQ0NO5X3P5JPZZPEM9,3,4
74,2,object_01,object_02,862.89999999106,4,2,280.29999999702,0.5555555555555556,2,object_03,5,1111,0,4,5,forest_3,2,memory-2step-stake-s,562,1604137,0.0-19.0-0.0-0.74,A26ULCPI7UC9R0,3SD15I2WE5AO7614M34OSYMJOYM362,3QJOXOW4XN7WSQ0NO5X3P5JPZZPEM9,3,4
75,4,object_09,object_08,1090.1000000089,7,1,293.79999999702,0.2222222222222222,1,object_05,1,1113,0,2,6,restaurant_6,2,memory-2step-stake-s,563,1611867,0.0-19.0-0.0-0.75,A26ULCPI7UC9R0,3SD15I2WE5AO7614M34OSYMJOYM362,3QJOXOW4XN7WSQ0NO5X3P5JPZZPEM9,7,8
76,1,object_06,object_10,885.80000001192,2,1,239.19999998808,0.3333333333333333,2,object_03,5,1128,0,2,3,desert_5,2,memory-2step-stake-s,564,1619630,0.0-19.0-0.0-0.76,A26ULCPI7UC9R0,3SD15I2WE5AO7614M34OSYMJOYM362,3QJOXOW4XN7WSQ0NO5X3P5JPZZPEM9,2,1
77,1,object_10,object_06,788.20000000298,2,2,122.0,0.6666666666666666,2,object_03,5,1158,0,2,6,desert_3,2,memory-2step-stake-s,565,1627578,0.0-19.0-0.0-0.77,A26ULCPI7UC9R0,3SD15I2WE5AO7614M34OSYMJOYM362,3QJOXOW4XN7WSQ0NO5X3P5JPZZPEM9,1,2
78,4,object_09,object_08,959.10000000894,8,2,255.60000000894,0.7777777777777778,2,object_03,1,1165,0,0,7,restaurant_2,2,memory-2step-stake-s,566,1635792,0.0-19.0-0.0-0.78,A26ULCPI7UC9R0,3SD15I2WE5AO7614M34OSYMJOYM362,3QJOXOW4XN7WSQ0NO5X3P5JPZZPEM9,7,8
79,1,object_06,object_10,720.90000000596,1,2,59.40000000596,0.2222222222222222,1,object_05,5,1175,0,2,8,desert_3,2,memory-2step-stake-s,567,1643274,0.0-19.0-0.0-0.79,A26ULCPI7UC9R0,3SD15I2WE5AO7614M34OSYMJOYM362,3QJOXOW4XN7WSQ0NO5X3P5JPZZPEM9,2,1
80,3,object_04,object_07,872.5,6,2,159.5,0.7777777777777778,2,object_03,1,1182,0,2,7,library_4,2,memory-2step-stake-s,568,1651390,0.0-19.0-0.0-0.80,A26ULCPI7UC9R0,3SD15I2WE5AO7614M34OSYMJOYM362,3QJOXOW4XN7WSQ0NO5X3P5JPZZPEM9,5,6
81,2,object_02,object_01,1408.0,4,1,309.09999999404,0.6666666666666666,2,object_03,5,1212,0,4,6,forest_2,2,memory-2step-stake-s,569,1659528,0.0-19.0-0.0-0.81,A26ULCPI7UC9R0,3SD15I2WE5AO7614M34OSYMJOYM362,3QJOXOW4XN7WSQ0NO5X3P5JPZZPEM9,4,3
82,2,object_01,object_02,1024.5,4,2,337.5,0.3333333333333333,2,object_03,5,1227,0,4,3,forest_5,2,memory-2step-stake-s,570,1667396,0.0-19.0-0.0-0.82,A26ULCPI7UC9R0,3SD15I2WE5AO7614M34OSYMJOYM362,3QJOXOW4XN7WSQ0NO5X3P5JPZZPEM9,3,4
83,3,object_04,object_07,1011.5,6,2,258.69999998808,0.3333333333333333,2,object_03,1,1230,0,4,3,library_5,2,memory-2step-stake-s,571,1675180,0.0-19.0-0.0-0.83,A26ULCPI7UC9R0,3SD15I2WE5AO7614M34OSYMJOYM362,3QJOXOW4XN7WSQ0NO5X3P5JPZZPEM9,5,6
84,2,object_02,object_01,950.70000000298,4,1,456.90000000596,0.2222222222222222,2,object_03,5,1240,0,3,2,forest_3,2,memory-2step-stake-s,572,1683069,0.0-19.0-0.0-0.84,A26ULCPI7UC9R0,3SD15I2WE5AO7614M34OSYMJOYM362,3QJOXOW4XN7WSQ0NO5X3P5JPZZPEM9,4,3
85,1,object_10,object_06,1150.900000006,1,1,327.20000000298,0.4444444444444444,1,object_05,5,1260,0,4,3,desert_4,2,memory-2step-stake-s,573,1691025,0.0-19.0-0.0-0.85,A26ULCPI7UC9R0,3SD15I2WE5AO7614M34OSYMJOYM362,3QJOXOW4XN7WSQ0NO5X3P5JPZZPEM9,1,2
86,4,object_08,object_09,1173.200000003,7,2,296.60000000894,0.5555555555555556,1,object_05,1,1265,0,5,0,restaurant_6,2,memory-2step-stake-s,574,1699069,0.0-19.0-0.0-0.86,A26ULCPI7UC9R0,3SD15I2WE5AO7614M34OSYMJOYM362,3QJOXOW4XN7WSQ0NO5X3P5JPZZPEM9,8,7
87,3,object_04,object_07,815.39999999106,5,1,148.09999999404,0.8888888888888888,1,object_05,1,1273,0,8,2,library_5,2,memory-2step-stake-s,575,1707262,0.0-19.0-0.0-0.87,A26ULCPI7UC9R0,3SD15I2WE5AO7614M34OSYMJOYM362,3QJOXOW4XN7WSQ0NO5X3P5JPZZPEM9,5,6
88,1,object_06,object_10,1060.5,1,2,304.70000000298,0.7777777777777778,1,object_05,5,1308,0,7,7,desert_2,2,memory-2step-stake-s,576,1715502,0.0-19.0-0.0-0.88,A26ULCPI7UC9R0,3SD15I2WE5AO7614M34OSYMJOYM362,3QJOXOW4XN7WSQ0NO5X3P5JPZZPEM9,2,1
89,4,object_08,object_09,729.20000000298,7,2,268.69999998808,0.7777777777777778,1,object_05,5,1343,0,7,8,restaurant_8,2,memory-2step-stake-s,577,1723702,0.0-19.0-0.0-0.89,A26ULCPI7UC9R0,3SD15I2WE5AO7614M34OSYMJOYM362,3QJOXOW4XN7WSQ0NO5X3P5JPZZPEM9,8,7
90,3,object_04,object_07,904.20000000298,5,1,229.40000000596,0.5555555555555556,1,object_05,1,1348,0,5,6,library_4,2,memory-2step-stake-s,578,1731660,0.0-19.0-0.0-0.90,A26ULCPI7UC9R0,3SD15I2WE5AO7614M34OSYMJOYM362,3QJOXOW4XN7WSQ0NO5X3P5JPZZPEM9,5,6
91,3,object_07,object_04,816.0,5,2,259.0,0.7777777777777778,1,object_05,1,1355,0,7,8,library_2,2,memory-2step-stake-s,579,1739883,0.0-19.0-0.0-0.91,A26ULCPI7UC9R0,3SD15I2WE5AO7614M34OSYMJOYM362,3QJOXOW4XN7WSQ0NO5X3P5JPZZPEM9,6,5
92,4,object_08,object_09,786.10000000894,7,2,272.39999999106,0.7777777777777778,1,object_05,1,1362,0,7,8,restaurant_2,2,memory-2step-stake-s,580,1748111,0.0-19.0-0.0-0.92,A26ULCPI7UC9R0,3SD15I2WE5AO7614M34OSYMJOYM362,3QJOXOW4XN7WSQ0NO5X3P5JPZZPEM9,8,7
93,2,object_01,object_02,996.90000000596,3,1,215.5,0.7777777777777778,1,object_05,5,1397,0,7,7,forest_8,2,memory-2step-stake-s,581,1756318,0.0-19.0-0.0-0.93,A26ULCPI7UC9R0,3SD15I2WE5AO7614M34OSYMJOYM362,3QJOXOW4XN7WSQ0NO5X3P5JPZZPEM9,3,4
94,3,object_07,object_04,1078.599999994,5,2,105.90000000596,0.5555555555555556,1,object_05,5,1422,0,5,7,library_2,2,memory-2step-stake-s,582,1764153,0.0-19.0-0.0-0.94,A26ULCPI7UC9R0,3SD15I2WE5AO7614M34OSYMJOYM362,3QJOXOW4XN7WSQ0NO5X3P5JPZZPEM9,6,5
95,2,object_01,object_02,930.20000000298,3,1,289.29999999702,0.6666666666666666,1,object_05,5,1452,0,6,5,forest_8,2,memory-2step-stake-s,583,1772275,0.0-19.0-0.0-0.95,A26ULCPI7UC9R0,3SD15I2WE5AO7614M34OSYMJOYM362,3QJOXOW4XN7WSQ0NO5X3P5JPZZPEM9,3,4
96,1,object_10,object_06,1177.400000006,1,1,301.70000000298,0.4444444444444444,1,object_05,5,1472,0,4,6,desert_3,2,memory-2step-stake-s,584,1780208,0.0-19.0-0.0-0.96,A26ULCPI7UC9R0,3SD15I2WE5AO7614M34OSYMJOYM362,3QJOXOW4XN7WSQ0NO5X3P5JPZZPEM9,1,2
97,3,object_07,object_04,631.59999999404,5,2,263.29999999702,0.1111111111111111,1,object_05,5,1477,0,1,8,library_5,2,memory-2step-stake-s,585,1787797,0.0-19.0-0.0-0.97,A26ULCPI7UC9R0,3SD15I2WE5AO7614M34OSYMJOYM362,3QJOXOW4XN7WSQ0NO5X3P5JPZZPEM9,6,5
98,4,object_09,object_08,885.70000000298,7,1,92.70000000298,0.0,1,object_05,1,1477,0,0,8,restaurant_6,2,memory-2step-stake-s,586,1795113,0.0-19.0-0.0-0.98,A26ULCPI7UC9R0,3SD15I2WE5AO7614M34OSYMJOYM362,3QJOXOW4XN7WSQ0NO5X3P5JPZZPEM9,7,8
99,3,object_07,object_04,717.29999999702,6,1,244.59999999404,0.8888888888888888,2,object_03,1,1485,0,3,8,library_5,2,memory-2step-stake-s,587,1803398,0.0-19.0-0.0-0.99,A26ULCPI7UC9R0,3SD15I2WE5AO7614M34OSYMJOYM362,3QJOXOW4XN7WSQ0NO5X3P5JPZZPEM9,6,5
100,4,object_09,object_08,854.5,8,2,203.30000001192,0.7777777777777778,2,object_03,1,1492,0,0,7,restaurant_6,2,memory-2step-stake-s,588,1811550,0.0-19.0-0.0-0.100,A26ULCPI7UC9R0,3SD15I2WE5AO7614M34OSYMJOYM362,3QJOXOW4XN7WSQ0NO5X3P5JPZZPEM9,7,8
101,2,object_02,object_01,772.90000000596,4,1,381.79999999702,0.6666666666666666,2,object_03,5,1522,0,1,6,forest_5,2,memory-2step-stake-s,589,1819774,0.0-19.0-0.0-0.101,A26ULCPI7UC9R0,3SD15I2WE5AO7614M34OSYMJOYM362,3QJOXOW4XN7WSQ0NO5X3P5JPZZPEM9,4,3
102,1,object_06,object_10,949.5,2,1,265.0,0.5555555555555556,2,object_03,5,1547,0,0,5,desert_5,2,memory-2step-stake-s,590,1827772,0.0-19.0-0.0-0.102,A26ULCPI7UC9R0,3SD15I2WE5AO7614M34OSYMJOYM362,3QJOXOW4XN7WSQ0NO5X3P5JPZZPEM9,2,1
103,3,object_04,object_07,944.5,6,2,299.5,0.5555555555555556,2,object_03,1,1552,0,0,5,library_2,2,memory-2step-stake-s,591,1835815,0.0-19.0-0.0-0.103,A26ULCPI7UC9R0,3SD15I2WE5AO7614M34OSYMJOYM362,3QJOXOW4XN7WSQ0NO5X3P5JPZZPEM9,5,6
104,2,object_01,object_02,1009.299999997,4,2,276.5,0.5555555555555556,2,object_03,5,1577,0,3,5,forest_3,2,memory-2step-stake-s,592,1843821,0.0-19.0-0.0-0.104,A26ULCPI7UC9R0,3SD15I2WE5AO7614M34OSYMJOYM362,3QJOXOW4XN7WSQ0NO5X3P5JPZZPEM9,3,4
105,1,object_10,object_06,954.10000000894,2,2,274.10000000894,0.6666666666666666,2,object_03,5,1607,0,1,6,desert_5,2,memory-2step-stake-s,593,1851936,0.0-19.0-0.0-0.105,A26ULCPI7UC9R0,3SD15I2WE5AO7614M34OSYMJOYM362,3QJOXOW4XN7WSQ0NO5X3P5JPZZPEM9,1,2
106,2,object_02,object_01,661.0,4,1,218.60000000894,0.6666666666666666,2,object_03,5,1637,0,1,6,forest_3,2,memory-2step-stake-s,594,1859989,0.0-19.0-0.0-0.106,A26ULCPI7UC9R0,3SD15I2WE5AO7614M34OSYMJOYM362,3QJOXOW4XN7WSQ0NO5X3P5JPZZPEM9,4,3
107,3,object_04,object_07,879.29999999702,6,2,296.79999999702,0.3333333333333333,2,object_03,1,1640,0,1,3,library_1,2,memory-2step-stake-s,595,1867824,0.0-19.0-0.0-0.107,A26ULCPI7UC9R0,3SD15I2WE5AO7614M34OSYMJOYM362,3QJOXOW4XN7WSQ0NO5X3P5JPZZPEM9,5,6
108,3,object_04,object_07,766.60000000894,6,2,413.80000001192,0.0,2,object_03,1,1640,0,1,0,library_1,2,memory-2step-stake-s,596,1875464,0.0-19.0-0.0-0.108,A26ULCPI7UC9R0,3SD15I2WE5AO7614M34OSYMJOYM362,3QJOXOW4XN7WSQ0NO5X3P5JPZZPEM9,5,6
109,3,object_04,object_07,865.0,5,1,271.20000000298,0.5555555555555556,1,object_05,1,1645,0,5,2,library_4,2,memory-2step-stake-s,597,1883454,0.0-19.0-0.0-0.109,A26ULCPI7UC9R0,3SD15I2WE5AO7614M34OSYMJOYM362,3QJOXOW4XN7WSQ0NO5X3P5JPZZPEM9,5,6
110,3,object_04,object_07,851.0,5,1,180.5,0.3333333333333333,1,object_05,1,1648,0,3,0,library_1,2,memory-2step-stake-s,598,1891161,0.0-19.0-0.0-0.110,A26ULCPI7UC9R0,3SD15I2WE5AO7614M34OSYMJOYM362,3QJOXOW4XN7WSQ0NO5X3P5JPZZPEM9,5,6
111,2,object_02,object_01,847.70000000298,3,2,256.90000000596,0.6666666666666666,1,object_05,5,1678,0,6,1,forest_3,2,memory-2step-stake-s,599,1899249,0.0-19.0-0.0-0.111,A26ULCPI7UC9R0,3SD15I2WE5AO7614M34OSYMJOYM362,3QJOXOW4XN7WSQ0NO5X3P5JPZZPEM9,4,3
112,4,object_09,object_08,825.0,7,1,258.39999999106,0.6666666666666666,1,object_05,1,1684,0,6,2,restaurant_2,2,memory-2step-stake-s,600,1907341,0.0-19.0-0.0-0.112,A26ULCPI7UC9R0,3SD15I2WE5AO7614M34OSYMJOYM362,3QJOXOW4XN7WSQ0NO5X3P5JPZZPEM9,7,8
113,2,object_01,object_02,849.0,3,1,1245.5,0.8888888888888888,1,object_05,5,1724,0,8,0,forest_5,2,memory-2step-stake-s,601,1916627,0.0-19.0-0.0-0.113,A26ULCPI7UC9R0,3SD15I2WE5AO7614M34OSYMJOYM362,3QJOXOW4XN7WSQ0NO5X3P5JPZZPEM9,3,4
114,4,object_09,object_08,764.70000000298,7,1,360.90000000596,0.5555555555555556,1,object_05,5,1749,0,5,3,restaurant_6,2,memory-2step-stake-s,602,1924710,0.0-19.0-0.0-0.114,A26ULCPI7UC9R0,3SD15I2WE5AO7614M34OSYMJOYM362,3QJOXOW4XN7WSQ0NO5X3P5JPZZPEM9,7,8
115,1,object_06,object_10,1068.700000003,1,2,251.79999999702,0.4444444444444444,1,object_05,5,1769,0,4,2,desert_4,2,memory-2step-stake-s,603,1932596,0.0-19.0-0.0-0.115,A26ULCPI7UC9R0,3SD15I2WE5AO7614M34OSYMJOYM362,3QJOXOW4XN7WSQ0NO5X3P5JPZZPEM9,2,1
116,1,object_06,object_10,895.19999998808,1,2,27.600000008941,0.6666666666666666,1,object_05,5,1799,0,6,4,desert_4,2,memory-2step-stake-s,604,1940469,0.0-19.0-0.0-0.116,A26ULCPI7UC9R0,3SD15I2WE5AO7614M34OSYMJOYM362,3QJOXOW4XN7WSQ0NO5X3P5JPZZPEM9,2,1
117,4,object_08,object_09,742.5,7,2,80.79999999702,0.7777777777777778,1,object_05,1,1806,0,7,3,restaurant_8,2,memory-2step-stake-s,605,1948475,0.0-19.0-0.0-0.117,A26ULCPI7UC9R0,3SD15I2WE5AO7614M34OSYMJOYM362,3QJOXOW4XN7WSQ0NO5X3P5JPZZPEM9,8,7
118,4,object_08,object_09,704.5,7,2,352.20000000298,0.3333333333333333,1,object_05,1,1809,0,3,5,restaurant_8,2,memory-2step-stake-s,606,1956356,0.0-19.0-0.0-0.118,A26ULCPI7UC9R0,3SD15I2WE5AO7614M34OSYMJOYM362,3QJOXOW4XN7WSQ0NO5X3P5JPZZPEM9,8,7
119,4,object_08,object_09,581.90000000596,7,2,327.90000000596,0.2222222222222222,1,object_05,5,1819,0,2,7,restaurant_5,2,memory-2step-stake-s,607,1964103,0.0-19.0-0.0-0.119,A26ULCPI7UC9R0,3SD15I2WE5AO7614M34OSYMJOYM362,3QJOXOW4XN7WSQ0NO5X3P5JPZZPEM9,8,7
120,2,object_01,object_02,1258.599999994,3,1,339.20000000298,0.4444444444444444,1,object_05,5,1839,0,4,6,forest_8,2,memory-2step-stake-s,608,1972062,0.0-19.0-0.0-0.120,A26ULCPI7UC9R0,3SD15I2WE5AO7614M34OSYMJOYM362,3QJOXOW4XN7WSQ0NO5X3P5JPZZPEM9,3,4
121,2,object_02,object_01,794.29999999702,3,2,286.39999999106,0.2222222222222222,1,object_05,5,1849,0,2,7,forest_3,2,memory-2step-stake-s,609,1979767,0.0-19.0-0.0-0.121,A26ULCPI7UC9R0,3SD15I2WE5AO7614M34OSYMJOYM362,3QJOXOW4XN7WSQ0NO5X3P5JPZZPEM9,4,3
122,4,object_09,object_08,923.0,8,2,334.10000000894,0.7777777777777778,2,object_03,1,1856,0,3,7,restaurant_6,2,memory-2step-stake-s,610,1988030,0.0-19.0-0.0-0.122,A26ULCPI7UC9R0,3SD15I2WE5AO7614M34OSYMJOYM362,3QJOXOW4XN7WSQ0NO5X3P5JPZZPEM9,7,8
123,1,object_10,object_06,927.29999999702,2,2,198.5,1.0,2,object_03,5,1901,0,1,9,desert_5,2,memory-2step-stake-s,611,1996364,0.0-19.0-0.0-0.123,A26ULCPI7UC9R0,3SD15I2WE5AO7614M34OSYMJOYM362,3QJOXOW4XN7WSQ0NO5X3P5JPZZPEM9,1,2
124,2,object_02,object_01,791.39999999106,4,1,452.30000001192,0.7777777777777778,2,object_03,5,1936,0,1,7,forest_8,2,memory-2step-stake-s,612,2004757,0.0-19.0-0.0-0.124,A26ULCPI7UC9R0,3SD15I2WE5AO7614M34OSYMJOYM362,3QJOXOW4XN7WSQ0NO5X3P5JPZZPEM9,4,3
125,1,object_10,object_06,981.70000000298,2,2,301.29999999702,0.8888888888888888,2,object_03,1,1944,0,5,8,desert_4,2,memory-2step-stake-s,613,2013097,0.0-19.0-0.0-0.125,A26ULCPI7UC9R0,3SD15I2WE5AO7614M34OSYMJOYM362,3QJOXOW4XN7WSQ0NO5X3P5JPZZPEM9,1,2
126,3,object_07,object_04,820.70000000298,6,1,234.39999999106,1.0,2,object_03,5,1989,0,6,9,library_2,2,memory-2step-stake-s,614,2021496,0.0-19.0-0.0-0.126,A26ULCPI7UC9R0,3SD15I2WE5AO7614M34OSYMJOYM362,3QJOXOW4XN7WSQ0NO5X3P5JPZZPEM9,6,5
127,3,object_04,object_07,782.59999999404,6,2,321.0,1.0,2,object_03,1,1998,0,7,9,library_2,2,memory-2step-stake-s,615,2029947,0.0-19.0-0.0-0.127,A26ULCPI7UC9R0,3SD15I2WE5AO7614M34OSYMJOYM362,3QJOXOW4XN7WSQ0NO5X3P5JPZZPEM9,5,6
128,2,object_01,object_02,1241.1000000089,4,2,555.5,0.4444444444444444,2,object_03,5,2018,0,4,4,forest_5,2,memory-2step-stake-s,617,2041951,0.0-19.0-0.1-0.128,A26ULCPI7UC9R0,3SD15I2WE5AO7614M34OSYMJOYM362,3QJOXOW4XN7WSQ0NO5X3P5JPZZPEM9,3,4
129,1,object_06,object_10,1061.8000000119,2,1,794.39999999106,0.4444444444444444,2,object_03,1,2022,0,7,4,desert_5,2,memory-2step-stake-s,618,2050366,0.0-19.0-0.1-0.129,A26ULCPI7UC9R0,3SD15I2WE5AO7614M34OSYMJOYM362,3QJOXOW4XN7WSQ0NO5X3P5JPZZPEM9,2,1
130,1,object_10,object_06,801.60000000894,2,2,244.70000000298,0.3333333333333333,2,object_03,5,2037,0,4,3,desert_4,2,memory-2step-stake-s,619,2058131,0.0-19.0-0.1-0.130,A26ULCPI7UC9R0,3SD15I2WE5AO7614M34OSYMJOYM362,3QJOXOW4XN7WSQ0NO5X3P5JPZZPEM9,1,2
131,1,object_10,object_06,911.70000000298,2,2,363.0,0.6666666666666666,2,object_03,1,2043,0,6,6,desert_4,2,memory-2step-stake-s,620,2066329,0.0-19.0-0.1-0.131,A26ULCPI7UC9R0,3SD15I2WE5AO7614M34OSYMJOYM362,3QJOXOW4XN7WSQ0NO5X3P5JPZZPEM9,1,2
132,2,object_01,object_02,913.5,4,2,253.19999998808,0.4444444444444444,2,object_03,5,2063,0,4,4,forest_3,2,memory-2step-stake-s,621,2074217,0.0-19.0-0.1-0.132,A26ULCPI7UC9R0,3SD15I2WE5AO7614M34OSYMJOYM362,3QJOXOW4XN7WSQ0NO5X3P5JPZZPEM9,3,4
133,2,object_02,object_01,761.10000000894,4,1,384.40000000596,1.0,2,object_03,1,2072,0,4,9,forest_2,2,memory-2step-stake-s,622,2082750,0.0-19.0-0.1-0.133,A26ULCPI7UC9R0,3SD15I2WE5AO7614M34OSYMJOYM362,3QJOXOW4XN7WSQ0NO5X3P5JPZZPEM9,4,3
134,3,object_04,object_07,696.59999999404,6,2,412.20000000298,0.6666666666666666,2,object_03,1,2078,0,7,6,library_2,2,memory-2step-stake-s,623,2091005,0.0-19.0-0.1-0.134,A26ULCPI7UC9R0,3SD15I2WE5AO7614M34OSYMJOYM362,3QJOXOW4XN7WSQ0NO5X3P5JPZZPEM9,5,6
135,3,object_04,object_07,759.29999999702,6,2,319.29999999702,0.6666666666666666,2,object_03,1,2084,0,7,6,library_4,2,memory-2step-stake-s,624,2099161,0.0-19.0-0.1-0.135,A26ULCPI7UC9R0,3SD15I2WE5AO7614M34OSYMJOYM362,3QJOXOW4XN7WSQ0NO5X3P5JPZZPEM9,5,6
136,4,object_08,object_09,749.29999999702,8,1,261.0,0.8888888888888888,2,object_03,5,2124,0,7,8,restaurant_5,2,memory-2step-stake-s,625,2107461,0.0-19.0-0.1-0.136,A26ULCPI7UC9R0,3SD15I2WE5AO7614M34OSYMJOYM362,3QJOXOW4XN7WSQ0NO5X3P5JPZZPEM9,8,7
137,2,object_01,object_02,919.60000000894,4,2,306.79999999702,0.7777777777777778,2,object_03,1,2131,0,9,7,forest_5,2,memory-2step-stake-s,626,2115715,0.0-19.0-0.1-0.137,A26ULCPI7UC9R0,3SD15I2WE5AO7614M34OSYMJOYM362,3QJOXOW4XN7WSQ0NO5X3P5JPZZPEM9,3,4
138,1,object_10,object_06,808.20000000298,2,2,230.5,0.4444444444444444,2,object_03,5,2151,0,6,4,desert_2,2,memory-2step-stake-s,627,2123565,0.0-19.0-0.1-0.138,A26ULCPI7UC9R0,3SD15I2WE5AO7614M34OSYMJOYM362,3QJOXOW4XN7WSQ0NO5X3P5JPZZPEM9,1,2
139,4,object_09,object_08,879.29999999702,8,2,43.899999991059,0.6666666666666666,2,object_03,1,2157,0,7,6,restaurant_2,2,memory-2step-stake-s,628,2131455,0.0-19.0-0.1-0.139,A26ULCPI7UC9R0,3SD15I2WE5AO7614M34OSYMJOYM362,3QJOXOW4XN7WSQ0NO5X3P5JPZZPEM9,7,8
140,3,object_04,object_07,644.5,6,2,379.39999999106,0.3333333333333333,2,object_03,1,2160,0,6,3,library_2,2,memory-2step-stake-s,629,2139371,0.0-19.0-0.1-0.140,A26ULCPI7UC9R0,3SD15I2WE5AO7614M34OSYMJOYM362,3QJOXOW4XN7WSQ0NO5X3P5JPZZPEM9,5,6
141,4,object_09,object_08,794.39999999106,8,2,315.60000000894,0.5555555555555556,2,object_03,1,2165,0,9,5,restaurant_2,2,memory-2step-stake-s,630,2147461,0.0-19.0-0.1-0.141,A26ULCPI7UC9R0,3SD15I2WE5AO7614M34OSYMJOYM362,3QJOXOW4XN7WSQ0NO5X3P5JPZZPEM9,7,8
142,1,object_10,object_06,752.39999999106,2,2,234.29999999702,0.5555555555555556,2,object_03,1,2170,0,9,5,desert_2,2,memory-2step-stake-s,631,2155432,0.0-19.0-0.1-0.142,A26ULCPI7UC9R0,3SD15I2WE5AO7614M34OSYMJOYM362,3QJOXOW4XN7WSQ0NO5X3P5JPZZPEM9,1,2
143,3,object_04,object_07,754.29999999702,6,2,278.79999999702,0.7777777777777778,2,object_03,1,2177,0,8,7,library_4,2,memory-2step-stake-s,632,2163651,0.0-19.0-0.1-0.143,A26ULCPI7UC9R0,3SD15I2WE5AO7614M34OSYMJOYM362,3QJOXOW4XN7WSQ0NO5X3P5JPZZPEM9,5,6
144,2,object_02,object_01,824.40000000596,4,1,450.40000000596,0.7777777777777778,2,object_03,5,2212,0,6,7,forest_5,2,memory-2step-stake-s,633,2172038,0.0-19.0-0.1-0.144,A26ULCPI7UC9R0,3SD15I2WE5AO7614M34OSYMJOYM362,3QJOXOW4XN7WSQ0NO5X3P5JPZZPEM9,4,3
145,4,object_08,object_09,847.69999998808,8,1,257.90000000596,0.4444444444444444,2,object_03,1,2216,0,3,4,restaurant_5,2,memory-2step-stake-s,634,2179921,0.0-19.0-0.1-0.145,A26ULCPI7UC9R0,3SD15I2WE5AO7614M34OSYMJOYM362,3QJOXOW4XN7WSQ0NO5X3P5JPZZPEM9,8,7
146,3,object_04,object_07,593.90000000596,6,2,291.5,0.5555555555555556,2,object_03,1,2221,0,1,5,library_4,2,memory-2step-stake-s,635,2187935,0.0-19.0-0.1-0.146,A26ULCPI7UC9R0,3SD15I2WE5AO7614M34OSYMJOYM362,3QJOXOW4XN7WSQ0NO5X3P5JPZZPEM9,5,6
147,4,object_09,object_08,844.20000000298,8,2,179.20000000298,0.5555555555555556,2,object_03,5,2246,0,1,5,restaurant_8,2,memory-2step-stake-s,636,2195839,0.0-19.0-0.1-0.147,A26ULCPI7UC9R0,3SD15I2WE5AO7614M34OSYMJOYM362,3QJOXOW4XN7WSQ0NO5X3P5JPZZPEM9,7,8
148,2,object_02,object_01,742.59999999404,4,1,348.5,0.6666666666666666,2,object_03,5,2276,0,3,6,forest_8,2,memory-2step-stake-s,637,2204015,0.0-19.0-0.1-0.148,A26ULCPI7UC9R0,3SD15I2WE5AO7614M34OSYMJOYM362,3QJOXOW4XN7WSQ0NO5X3P5JPZZPEM9,4,3
149,2,object_01,object_02,653.5,4,2,392.70000000298,0.7777777777777778,2,object_03,5,2311,0,5,7,forest_2,2,memory-2step-stake-s,638,2212336,0.0-19.0-0.1-0.149,A26ULCPI7UC9R0,3SD15I2WE5AO7614M34OSYMJOYM362,3QJOXOW4XN7WSQ0NO5X3P5JPZZPEM9,3,4
150,1,object_06,object_10,895.5,2,1,262.10000000894,0.3333333333333333,2,object_03,5,2326,0,3,3,desert_5,2,memory-2step-stake-s,639,2220120,0.0-19.0-0.1-0.150,A26ULCPI7UC9R0,3SD15I2WE5AO7614M34OSYMJOYM362,3QJOXOW4XN7WSQ0NO5X3P5JPZZPEM9,2,1
151,3,object_07,object_04,855.39999999106,6,1,351.69999998808,0.3333333333333333,2,object_03,5,2341,0,6,3,library_4,2,memory-2step-stake-s,640,2228009,0.0-19.0-0.1-0.151,A26ULCPI7UC9R0,3SD15I2WE5AO7614M34OSYMJOYM362,3QJOXOW4XN7WSQ0NO5X3P5JPZZPEM9,6,5
152,2,object_02,object_01,790.70000000298,3,2,590.69999998808,0.7777777777777778,1,object_05,5,2376,0,7,2,forest_3,2,memory-2step-stake-s,641,2236527,0.0-19.0-0.1-0.152,A26ULCPI7UC9R0,3SD15I2WE5AO7614M34OSYMJOYM362,3QJOXOW4XN7WSQ0NO5X3P5JPZZPEM9,4,3
153,2,object_01,object_02,846.0,3,1,250.79999999702,0.5555555555555556,1,object_05,5,2401,0,5,1,forest_5,2,memory-2step-stake-s,642,2244507,0.0-19.0-0.1-0.153,A26ULCPI7UC9R0,3SD15I2WE5AO7614M34OSYMJOYM362,3QJOXOW4XN7WSQ0NO5X3P5JPZZPEM9,3,4
154,1,object_10,object_06,950.29999999702,1,1,262.20000000298,0.7777777777777778,1,object_05,5,2436,0,7,4,desert_2,2,memory-2step-stake-s,643,2252699,0.0-19.0-0.1-0.154,A26ULCPI7UC9R0,3SD15I2WE5AO7614M34OSYMJOYM362,3QJOXOW4XN7WSQ0NO5X3P5JPZZPEM9,1,2
155,1,object_06,object_10,772.39999999106,1,2,411.0,1.0,1,object_05,5,2481,0,9,4,desert_5,2,memory-2step-stake-s,644,2261268,0.0-19.0-0.1-0.155,A26ULCPI7UC9R0,3SD15I2WE5AO7614M34OSYMJOYM362,3QJOXOW4XN7WSQ0NO5X3P5JPZZPEM9,2,1
156,1,object_10,object_06,842.10000000894,1,1,246.20000000298,0.8888888888888888,1,object_05,5,2521,0,8,0,desert_2,2,memory-2step-stake-s,645,2269560,0.0-19.0-0.1-0.156,A26ULCPI7UC9R0,3SD15I2WE5AO7614M34OSYMJOYM362,3QJOXOW4XN7WSQ0NO5X3P5JPZZPEM9,1,2
157,4,object_08,object_09,674.79999999702,7,2,220.0,0.8888888888888888,1,object_05,1,2529,0,8,1,restaurant_5,2,memory-2step-stake-s,646,2277811,0.0-19.0-0.1-0.157,A26ULCPI7UC9R0,3SD15I2WE5AO7614M34OSYMJOYM362,3QJOXOW4XN7WSQ0NO5X3P5JPZZPEM9,8,7
158,1,object_10,object_06,783.60000000894,1,1,313.29999999702,0.8888888888888888,1,object_05,1,2537,0,8,1,desert_3,2,memory-2step-stake-s,647,2286165,0.0-19.0-0.1-0.158,A26ULCPI7UC9R0,3SD15I2WE5AO7614M34OSYMJOYM362,3QJOXOW4XN7WSQ0NO5X3P5JPZZPEM9,1,2
159,3,object_04,object_07,742.40000000596,5,1,306.90000000596,0.6666666666666666,1,object_05,1,2543,0,6,2,library_2,2,memory-2step-stake-s,648,2294320,0.0-19.0-0.1-0.159,A26ULCPI7UC9R0,3SD15I2WE5AO7614M34OSYMJOYM362,3QJOXOW4XN7WSQ0NO5X3P5JPZZPEM9,5,6
160,3,object_04,object_07,613.89999999106,5,1,432.80000001192,0.5555555555555556,1,object_05,1,2548,0,5,0,library_5,2,memory-2step-stake-s,649,2302478,0.0-19.0-0.1-0.160,A26ULCPI7UC9R0,3SD15I2WE5AO7614M34OSYMJOYM362,3QJOXOW4XN7WSQ0NO5X3P5JPZZPEM9,5,6
161,3,object_04,object_07,544.80000001192,5,1,288.39999999106,0.3333333333333333,1,object_05,1,2551,0,3,1,library_1,2,memory-2step-stake-s,650,2310302,0.0-19.0-0.1-0.161,A26ULCPI7UC9R0,3SD15I2WE5AO7614M34OSYMJOYM362,3QJOXOW4XN7WSQ0NO5X3P5JPZZPEM9,5,6
162,2,object_01,object_02,1026.6000000089,3,1,323.30000001192,0.2222222222222222,1,object_05,5,2561,0,2,6,forest_2,2,memory-2step-stake-s,651,2318053,0.0-19.0-0.1-0.162,A26ULCPI7UC9R0,3SD15I2WE5AO7614M34OSYMJOYM362,3QJOXOW4XN7WSQ0NO5X3P5JPZZPEM9,3,4
163,4,object_09,object_08,927.0,8,2,254.90000000596,1.0,2,object_03,1,2570,0,1,9,restaurant_5,2,memory-2step-stake-s,652,2326447,0.0-19.0-0.1-0.163,A26ULCPI7UC9R0,3SD15I2WE5AO7614M34OSYMJOYM362,3QJOXOW4XN7WSQ0NO5X3P5JPZZPEM9,7,8
164,4,object_09,object_08,797.40000000596,8,2,375.59999999404,1.0,2,object_03,1,2579,0,1,9,restaurant_6,2,memory-2step-stake-s,653,2334998,0.0-19.0-0.1-0.164,A26ULCPI7UC9R0,3SD15I2WE5AO7614M34OSYMJOYM362,3QJOXOW4XN7WSQ0NO5X3P5JPZZPEM9,7,8
165,3,object_04,object_07,920.5,6,2,418.79999999702,1.0,2,object_03,1,2588,0,0,9,library_1,2,memory-2step-stake-s,654,2343636,0.0-19.0-0.1-0.165,A26ULCPI7UC9R0,3SD15I2WE5AO7614M34OSYMJOYM362,3QJOXOW4XN7WSQ0NO5X3P5JPZZPEM9,5,6
166,1,object_06,object_10,913.79999999702,2,1,327.5,0.8888888888888888,2,object_03,5,2628,0,1,8,desert_2,2,memory-2step-stake-s,655,2352080,0.0-19.0-0.1-0.166,A26ULCPI7UC9R0,3SD15I2WE5AO7614M34OSYMJOYM362,3QJOXOW4XN7WSQ0NO5X3P5JPZZPEM9,2,1
167,2,object_02,object_01,905.60000000894,4,1,288.79999999702,0.8888888888888888,2,object_03,5,2668,0,1,8,forest_3,2,memory-2step-stake-s,656,2360490,0.0-19.0-0.1-0.167,A26ULCPI7UC9R0,3SD15I2WE5AO7614M34OSYMJOYM362,3QJOXOW4XN7WSQ0NO5X3P5JPZZPEM9,4,3
168,3,object_04,object_07,833.0,6,2,300.10000000894,0.7777777777777778,2,object_03,1,2675,0,0,7,library_4,2,memory-2step-stake-s,657,2368819,0.0-19.0-0.1-0.168,A26ULCPI7UC9R0,3SD15I2WE5AO7614M34OSYMJOYM362,3QJOXOW4XN7WSQ0NO5X3P5JPZZPEM9,5,6
169,3,object_07,object_04,1016.900000006,6,1,344.69999998808,1.0,2,object_03,1,2684,0,2,9,library_1,2,memory-2step-stake-s,658,2377390,0.0-19.0-0.1-0.169,A26ULCPI7UC9R0,3SD15I2WE5AO7614M34OSYMJOYM362,3QJOXOW4XN7WSQ0NO5X3P5JPZZPEM9,6,5
170,2,object_02,object_01,831.0,4,1,264.89999999106,0.8888888888888888,2,object_03,1,2692,0,2,8,forest_3,2,memory-2step-stake-s,659,2385795,0.0-19.0-0.1-0.170,A26ULCPI7UC9R0,3SD15I2WE5AO7614M34OSYMJOYM362,3QJOXOW4XN7WSQ0NO5X3P5JPZZPEM9,4,3
171,3,object_07,object_04,769.69999998808,6,1,288.30000001192,0.8888888888888888,2,object_03,1,2700,0,1,8,library_5,2,memory-2step-stake-s,660,2394204,0.0-19.0-0.1-0.171,A26ULCPI7UC9R0,3SD15I2WE5AO7614M34OSYMJOYM362,3QJOXOW4XN7WSQ0NO5X3P5JPZZPEM9,6,5
172,1,object_10,object_06,935.79999999702,2,2,318.59999999404,0.8888888888888888,2,object_03,5,2740,0,2,8,desert_4,2,memory-2step-stake-s,661,2402627,0.0-19.0-0.1-0.172,A26ULCPI7UC9R0,3SD15I2WE5AO7614M34OSYMJOYM362,3QJOXOW4XN7WSQ0NO5X3P5JPZZPEM9,1,2
173,2,object_02,object_01,1271.1000000089,4,1,284.39999999106,0.8888888888888888,2,object_03,1,2748,0,1,8,forest_2,2,memory-2step-stake-s,662,2411001,0.0-19.0-0.1-0.173,A26ULCPI7UC9R0,3SD15I2WE5AO7614M34OSYMJOYM362,3QJOXOW4XN7WSQ0NO5X3P5JPZZPEM9,4,3
174,4,object_08,object_09,1174.3999999911,8,1,310.60000000894,0.7777777777777778,2,object_03,1,2755,0,0,7,restaurant_8,2,memory-2step-stake-s,663,2419310,0.0-19.0-0.1-0.174,A26ULCPI7UC9R0,3SD15I2WE5AO7614M34OSYMJOYM362,3QJOXOW4XN7WSQ0NO5X3P5JPZZPEM9,8,7
175,3,object_07,object_04,919.20000000298,6,1,333.5,1.0,2,object_03,1,2764,0,2,9,library_1,2,memory-2step-stake-s,664,2427876,0.0-19.0-0.1-0.175,A26ULCPI7UC9R0,3SD15I2WE5AO7614M34OSYMJOYM362,3QJOXOW4XN7WSQ0NO5X3P5JPZZPEM9,6,5
176,3,object_07,object_04,719.80000001192,6,1,203.0,0.7777777777777778,2,object_03,1,2771,0,3,7,library_1,2,memory-2step-stake-s,665,2436107,0.0-19.0-0.1-0.176,A26ULCPI7UC9R0,3SD15I2WE5AO7614M34OSYMJOYM362,3QJOXOW4XN7WSQ0NO5X3P5JPZZPEM9,6,5
177,2,object_02,object_01,932.5,4,1,250.10000000894,0.8888888888888888,2,object_03,5,2811,0,4,8,forest_3,2,memory-2step-stake-s,666,2444466,0.0-19.0-0.1-0.177,A26ULCPI7UC9R0,3SD15I2WE5AO7614M34OSYMJOYM362,3QJOXOW4XN7WSQ0NO5X3P5JPZZPEM9,4,3
178,1,object_06,object_10,859.70000000298,2,1,225.29999999702,0.8888888888888888,2,object_03,5,2851,0,6,8,desert_5,2,memory-2step-stake-s,667,2452826,0.0-19.0-0.1-0.178,A26ULCPI7UC9R0,3SD15I2WE5AO7614M34OSYMJOYM362,3QJOXOW4XN7WSQ0NO5X3P5JPZZPEM9,2,1
179,1,object_06,object_10,782.5,2,1,255.40000000596,0.7777777777777778,2,object_03,5,2886,0,4,7,desert_2,2,memory-2step-stake-s,668,2461108,0.0-19.0-0.1-0.179,A26ULCPI7UC9R0,3SD15I2WE5AO7614M34OSYMJOYM362,3QJOXOW4XN7WSQ0NO5X3P5JPZZPEM9,2,1
180,4,object_09,object_08,1058.299999997,8,2,222.59999999404,0.7777777777777778,2,object_03,1,2893,0,0,7,restaurant_5,2,memory-2step-stake-s,669,2469327,0.0-19.0-0.1-0.180,A26ULCPI7UC9R0,3SD15I2WE5AO7614M34OSYMJOYM362,3QJOXOW4XN7WSQ0NO5X3P5JPZZPEM9,7,8
181,2,object_02,object_01,621.59999999404,4,1,248.5,0.6666666666666666,2,object_03,5,2923,0,2,6,forest_8,2,memory-2step-stake-s,670,2477509,0.0-19.0-0.1-0.181,A26ULCPI7UC9R0,3SD15I2WE5AO7614M34OSYMJOYM362,3QJOXOW4XN7WSQ0NO5X3P5JPZZPEM9,4,3
182,2,object_01,object_02,624.40000000596,4,2,181.20000000298,0.5555555555555556,2,object_03,5,2948,0,2,5,forest_8,2,memory-2step-stake-s,671,2485475,0.0-19.0-0.1-0.182,A26ULCPI7UC9R0,3SD15I2WE5AO7614M34OSYMJOYM362,3QJOXOW4XN7WSQ0NO5X3P5JPZZPEM9,3,4
183,1,object_06,object_10,782.39999999106,2,1,220.20000000298,0.8888888888888888,2,object_03,5,2988,0,2,8,desert_3,2,memory-2step-stake-s,672,2493821,0.0-19.0-0.1-0.183,A26ULCPI7UC9R0,3SD15I2WE5AO7614M34OSYMJOYM362,3QJOXOW4XN7WSQ0NO5X3P5JPZZPEM9,2,1
184,1,object_10,object_06,665.5,2,2,254.5,0.8888888888888888,2,object_03,1,2996,0,1,8,desert_3,2,memory-2step-stake-s,673,2502199,0.0-19.0-0.1-0.184,A26ULCPI7UC9R0,3SD15I2WE5AO7614M34OSYMJOYM362,3QJOXOW4XN7WSQ0NO5X3P5JPZZPEM9,1,2
185,2,object_02,object_01,655.29999999702,4,1,222.09999999404,0.8888888888888888,2,object_03,5,3036,0,0,8,forest_8,2,memory-2step-stake-s,674,2510552,0.0-19.0-0.1-0.185,A26ULCPI7UC9R0,3SD15I2WE5AO7614M34OSYMJOYM362,3QJOXOW4XN7WSQ0NO5X3P5JPZZPEM9,4,3
186,4,object_08,object_09,922.10000000894,8,1,400.0,1.0,2,object_03,1,3045,0,1,9,restaurant_5,2,memory-2step-stake-s,675,2519200,0.0-19.0-0.1-0.186,A26ULCPI7UC9R0,3SD15I2WE5AO7614M34OSYMJOYM362,3QJOXOW4XN7WSQ0NO5X3P5JPZZPEM9,8,7
187,1,object_10,object_06,1299.299999997,2,2,439.80000001192,0.6666666666666666,2,object_03,5,3075,0,3,6,desert_5,2,memory-2step-stake-s,676,2527567,0.0-19.0-0.1-0.187,A26ULCPI7UC9R0,3SD15I2WE5AO7614M34OSYMJOYM362,3QJOXOW4XN7WSQ0NO5X3P5JPZZPEM9,1,2
188,4,object_09,object_08,953.20000000298,8,2,296.79999999702,0.4444444444444444,2,object_03,5,3095,0,3,4,restaurant_5,2,memory-2step-stake-s,677,2535542,0.0-19.0-0.1-0.188,A26ULCPI7UC9R0,3SD15I2WE5AO7614M34OSYMJOYM362,3QJOXOW4XN7WSQ0NO5X3P5JPZZPEM9,7,8
189,4,object_08,object_09,714.20000000298,8,1,273.5,0.2222222222222222,2,object_03,1,3097,0,6,2,restaurant_8,2,memory-2step-stake-s,678,2543294,0.0-19.0-0.1-0.189,A26ULCPI7UC9R0,3SD15I2WE5AO7614M34OSYMJOYM362,3QJOXOW4XN7WSQ0NO5X3P5JPZZPEM9,8,7
190,4,object_09,object_08,967.20000000298,7,1,212.70000000298,0.4444444444444444,1,object_05,1,3101,0,4,4,restaurant_5,2,memory-2step-stake-s,679,2551173,0.0-19.0-0.1-0.190,A26ULCPI7UC9R0,3SD15I2WE5AO7614M34OSYMJOYM362,3QJOXOW4XN7WSQ0NO5X3P5JPZZPEM9,7,8
191,2,object_01,object_02,809.79999999702,3,1,345.89999999106,0.3333333333333333,1,object_05,5,3116,0,3,3,forest_5,2,memory-2step-stake-s,680,2559097,0.0-19.0-0.1-0.191,A26ULCPI7UC9R0,3SD15I2WE5AO7614M34OSYMJOYM362,3QJOXOW4XN7WSQ0NO5X3P5JPZZPEM9,3,4
192,3,object_04,object_07,688.10000000894,5,1,232.90000000596,0.1111111111111111,1,object_05,5,3121,0,1,2,library_2,2,memory-2step-stake-s,681,2566678,0.0-19.0-0.1-0.192,A26ULCPI7UC9R0,3SD15I2WE5AO7614M34OSYMJOYM362,3QJOXOW4XN7WSQ0NO5X3P5JPZZPEM9,5,6
193,1,object_06,object_10,781.0,2,1,252.20000000298,0.1111111111111111,2,object_03,1,3122,0,0,1,desert_5,2,memory-2step-stake-s,682,2574298,0.0-19.0-0.1-0.193,A26ULCPI7UC9R0,3SD15I2WE5AO7614M34OSYMJOYM362,3QJOXOW4XN7WSQ0NO5X3P5JPZZPEM9,2,1
194,3,object_07,object_04,705.5,6,1,274.10000000894,0.2222222222222222,2,object_03,1,3124,0,4,2,library_5,2,memory-2step-stake-s,683,2582034,0.0-19.0-0.1-0.194,A26ULCPI7UC9R0,3SD15I2WE5AO7614M34OSYMJOYM362,3QJOXOW4XN7WSQ0NO5X3P5JPZZPEM9,6,5
195,3,object_04,object_07,768.29999999702,6,2,288.70000000298,0.4444444444444444,2,object_03,1,3128,0,5,4,library_1,2,memory-2step-stake-s,684,2590014,0.0-19.0-0.1-0.195,A26ULCPI7UC9R0,3SD15I2WE5AO7614M34OSYMJOYM362,3QJOXOW4XN7WSQ0NO5X3P5JPZZPEM9,5,6
196,2,object_02,object_01,688.20000000298,4,1,295.39999999106,0.5555555555555556,2,object_03,5,3153,0,3,5,forest_5,2,memory-2step-stake-s,685,2598141,0.0-19.0-0.1-0.196,A26ULCPI7UC9R0,3SD15I2WE5AO7614M34OSYMJOYM362,3QJOXOW4XN7WSQ0NO5X3P5JPZZPEM9,4,3
197,4,object_08,object_09,838.39999999106,8,1,362.29999999702,0.4444444444444444,2,object_03,1,3157,0,3,4,restaurant_2,2,memory-2step-stake-s,686,2606195,0.0-19.0-0.1-0.197,A26ULCPI7UC9R0,3SD15I2WE5AO7614M34OSYMJOYM362,3QJOXOW4XN7WSQ0NO5X3P5JPZZPEM9,8,7
198,3,object_07,object_04,696.69999998808,6,1,286.0,0.3333333333333333,2,object_03,1,3160,0,4,3,library_5,2,memory-2step-stake-s,687,2614050,0.0-19.0-0.1-0.198,A26ULCPI7UC9R0,3SD15I2WE5AO7614M34OSYMJOYM362,3QJOXOW4XN7WSQ0NO5X3P5JPZZPEM9,6,5
199,2,object_02,object_01,651.59999999404,4,1,278.20000000298,0.6666666666666666,2,object_03,5,3190,0,2,6,forest_3,2,memory-2step-stake-s,688,2622231,0.0-19.0-0.1-0.199,A26ULCPI7UC9R0,3SD15I2WE5AO7614M34OSYMJOYM362,3QJOXOW4XN7WSQ0NO5X3P5JPZZPEM9,4,3
200,3,object_07,object_04,508.59999999404,6,1,261.09999999404,0.3333333333333333,2,object_03,1,3193,0,2,3,library_4,2,memory-2step-stake-s,689,2630072,0.0-19.0-0.1-0.200,A26ULCPI7UC9R0,3SD15I2WE5AO7614M34OSYMJOYM362,3QJOXOW4XN7WSQ0NO5X3P5JPZZPEM9,6,5
201,4,object_09,object_08,616.90000000596,7,1,323.39999999106,0.2222222222222222,1,object_05,5,3203,0,2,0,restaurant_8,2,memory-2step-stake-s,690,2637869,0.0-19.0-0.1-0.201,A26ULCPI7UC9R0,3SD15I2WE5AO7614M34OSYMJOYM362,3QJOXOW4XN7WSQ0NO5X3P5JPZZPEM9,7,8
202,4,object_08,object_09,836.29999999702,8,1,271.0,0.3333333333333333,2,object_03,5,3218,0,3,3,restaurant_6,2,memory-2step-stake-s,691,2645712,0.0-19.0-0.1-0.202,A26ULCPI7UC9R0,3SD15I2WE5AO7614M34OSYMJOYM362,3QJOXOW4XN7WSQ0NO5X3P5JPZZPEM9,8,7
203,4,object_09,object_08,874.09999999404,8,2,195.70000000298,0.2222222222222222,2,object_03,1,3220,0,6,2,restaurant_6,2,memory-2step-stake-s,692,2653380,0.0-19.0-0.1-0.203,A26ULCPI7UC9R0,3SD15I2WE5AO7614M34OSYMJOYM362,3QJOXOW4XN7WSQ0NO5X3P5JPZZPEM9,7,8
204,1,object_10,object_06,742.40000000596,2,2,232.70000000298,0.7777777777777778,2,object_03,1,3227,0,3,7,desert_3,2,memory-2step-stake-s,693,2661612,0.0-19.0-0.1-0.204,A26ULCPI7UC9R0,3SD15I2WE5AO7614M34OSYMJOYM362,3QJOXOW4XN7WSQ0NO5X3P5JPZZPEM9,1,2
205,4,object_09,object_08,882.5,8,2,84.399999991059,0.7777777777777778,2,object_03,1,3234,0,5,7,restaurant_2,2,memory-2step-stake-s,694,2669711,0.0-19.0-0.1-0.205,A26ULCPI7UC9R0,3SD15I2WE5AO7614M34OSYMJOYM362,3QJOXOW4XN7WSQ0NO5X3P5JPZZPEM9,7,8
206,1,object_10,object_06,603.60000000894,2,2,226.5,0.6666666666666666,2,object_03,5,3264,0,5,6,desert_5,2,memory-2step-stake-s,695,2677822,0.0-19.0-0.1-0.206,A26ULCPI7UC9R0,3SD15I2WE5AO7614M34OSYMJOYM362,3QJOXOW4XN7WSQ0NO5X3P5JPZZPEM9,1,2
207,1,object_06,object_10,582.5,2,1,240.29999999702,0.7777777777777778,2,object_03,1,3271,0,4,7,desert_3,2,memory-2step-stake-s,696,2686075,0.0-19.0-0.1-0.207,A26ULCPI7UC9R0,3SD15I2WE5AO7614M34OSYMJOYM362,3QJOXOW4XN7WSQ0NO5X3P5JPZZPEM9,2,1
208,2,object_01,object_02,1127.5,4,2,303.59999999404,0.8888888888888888,2,object_03,5,3311,0,3,8,forest_2,2,memory-2step-stake-s,697,2694491,0.0-19.0-0.1-0.208,A26ULCPI7UC9R0,3SD15I2WE5AO7614M34OSYMJOYM362,3QJOXOW4XN7WSQ0NO5X3P5JPZZPEM9,3,4
209,2,object_01,object_02,1218.599999994,3,1,266.60000000894,0.4444444444444444,1,object_05,5,3331,0,4,8,forest_5,2,memory-2step-stake-s,698,2702443,0.0-19.0-0.1-0.209,A26ULCPI7UC9R0,3SD15I2WE5AO7614M34OSYMJOYM362,3QJOXOW4XN7WSQ0NO5X3P5JPZZPEM9,3,4
210,3,object_04,object_07,759.80000001192,6,2,247.90000000596,0.8888888888888888,2,object_03,1,3339,0,6,8,library_5,2,memory-2step-stake-s,699,2710827,0.0-19.0-0.1-0.210,A26ULCPI7UC9R0,3SD15I2WE5AO7614M34OSYMJOYM362,3QJOXOW4XN7WSQ0NO5X3P5JPZZPEM9,5,6
211,2,object_02,object_01,701.40000000596,4,1,138.70000000298,0.7777777777777778,2,object_03,1,3346,0,7,7,forest_2,2,memory-2step-stake-s,700,2718949,0.0-19.0-0.1-0.211,A26ULCPI7UC9R0,3SD15I2WE5AO7614M34OSYMJOYM362,3QJOXOW4XN7WSQ0NO5X3P5JPZZPEM9,4,3
212,2,object_01,object_02,966.69999998808,4,2,241.90000000596,0.8888888888888888,2,object_03,5,3386,0,4,8,forest_8,2,memory-2step-stake-s,701,2727281,0.0-19.0-0.1-0.212,A26ULCPI7UC9R0,3SD15I2WE5AO7614M34OSYMJOYM362,3QJOXOW4XN7WSQ0NO5X3P5JPZZPEM9,3,4
213,2,object_02,object_01,664.79999999702,4,1,290.40000000596,1.0,2,object_03,5,3431,0,4,9,forest_5,2,memory-2step-stake-s,702,2735785,0.0-19.0-0.1-0.213,A26ULCPI7UC9R0,3SD15I2WE5AO7614M34OSYMJOYM362,3QJOXOW4XN7WSQ0NO5X3P5JPZZPEM9,4,3
214,3,object_07,object_04,857.90000000596,6,1,343.59999999404,0.6666666666666666,2,object_03,1,3437,0,2,6,library_1,2,memory-2step-stake-s,703,2744003,0.0-19.0-0.1-0.214,A26ULCPI7UC9R0,3SD15I2WE5AO7614M34OSYMJOYM362,3QJOXOW4XN7WSQ0NO5X3P5JPZZPEM9,6,5
215,3,object_04,object_07,931.79999999702,6,2,254.60000000894,0.5555555555555556,2,object_03,1,3442,0,2,5,library_2,2,memory-2step-stake-s,704,2752051,0.0-19.0-0.1-0.215,A26ULCPI7UC9R0,3SD15I2WE5AO7614M34OSYMJOYM362,3QJOXOW4XN7WSQ0NO5X3P5JPZZPEM9,5,6
216,2,object_02,object_01,697.79999999702,4,1,234.39999999106,0.4444444444444444,2,object_03,5,3462,0,1,4,forest_8,2,memory-2step-stake-s,705,2759971,0.0-19.0-0.1-0.216,A26ULCPI7UC9R0,3SD15I2WE5AO7614M34OSYMJOYM362,3QJOXOW4XN7WSQ0NO5X3P5JPZZPEM9,4,3
217,2,object_02,object_01,616.90000000596,4,1,208.09999999404,0.3333333333333333,2,object_03,5,3477,0,1,3,forest_8,2,memory-2step-stake-s,706,2767758,0.0-19.0-0.1-0.217,A26ULCPI7UC9R0,3SD15I2WE5AO7614M34OSYMJOYM362,3QJOXOW4XN7WSQ0NO5X3P5JPZZPEM9,4,3
218,3,object_04,object_07,623.89999999106,6,2,252.19999998808,0.3333333333333333,2,object_03,1,3480,0,2,3,library_2,2,memory-2step-stake-s,707,2775595,0.0-19.0-0.1-0.218,A26ULCPI7UC9R0,3SD15I2WE5AO7614M34OSYMJOYM362,3QJOXOW4XN7WSQ0NO5X3P5JPZZPEM9,5,6
219,3,object_07,object_04,625.10000000894,5,2,231.20000000298,0.2222222222222222,1,object_05,5,3490,0,2,6,library_5,2,memory-2step-stake-s,708,2783277,0.0-19.0-0.1-0.219,A26ULCPI7UC9R0,3SD15I2WE5AO7614M34OSYMJOYM362,3QJOXOW4XN7WSQ0NO5X3P5JPZZPEM9,6,5
220,4,object_08,object_09,811.70000000298,7,2,288.70000000298,0.0,1,object_05,1,3490,0,0,4,restaurant_5,2,memory-2step-stake-s,709,2790813,0.0-19.0-0.1-0.220,A26ULCPI7UC9R0,3SD15I2WE5AO7614M34OSYMJOYM362,3QJOXOW4XN7WSQ0NO5X3P5JPZZPEM9,8,7
221,1,object_06,object_10,699.79999999702,2,1,255.60000000894,0.0,2,object_03,1,3490,0,0,0,desert_5,2,memory-2step-stake-s,710,2798333,0.0-19.0-0.1-0.221,A26ULCPI7UC9R0,3SD15I2WE5AO7614M34OSYMJOYM362,3QJOXOW4XN7WSQ0NO5X3P5JPZZPEM9,2,1
222,4,object_08,object_09,815.09999999404,7,2,289.60000000894,0.1111111111111111,1,object_05,1,3491,0,1,1,restaurant_8,2,memory-2step-stake-s,711,2805977,0.0-19.0-0.1-0.222,A26ULCPI7UC9R0,3SD15I2WE5AO7614M34OSYMJOYM362,3QJOXOW4XN7WSQ0NO5X3P5JPZZPEM9,8,7
223,4,object_09,object_08,704.59999999404,8,2,198.79999999702,0.1111111111111111,2,object_03,5,3496,0,1,1,restaurant_5,2,memory-2step-stake-s,712,2813551,0.0-19.0-0.1-0.223,A26ULCPI7UC9R0,3SD15I2WE5AO7614M34OSYMJOYM362,3QJOXOW4XN7WSQ0NO5X3P5JPZZPEM9,7,8
224,2,object_02,object_01,720.40000000596,3,2,277.0,0.3333333333333333,1,object_05,5,3511,0,3,0,forest_5,2,memory-2step-stake-s,713,2821392,0.0-19.0-0.1-0.224,A26ULCPI7UC9R0,3SD15I2WE5AO7614M34OSYMJOYM362,3QJOXOW4XN7WSQ0NO5X3P5JPZZPEM9,4,3
225,3,object_04,object_07,796.0,5,1,281.60000000894,0.1111111111111111,1,object_05,1,3512,0,1,3,library_5,2,memory-2step-stake-s,714,2829028,0.0-19.0-0.1-0.225,A26ULCPI7UC9R0,3SD15I2WE5AO7614M34OSYMJOYM362,3QJOXOW4XN7WSQ0NO5X3P5JPZZPEM9,5,6
226,4,object_09,object_08,901.19999998808,7,1,258.70000000298,0.0,1,object_05,1,3512,0,0,2,restaurant_5,2,memory-2step-stake-s,715,2836535,0.0-19.0-0.1-0.226,A26ULCPI7UC9R0,3SD15I2WE5AO7614M34OSYMJOYM362,3QJOXOW4XN7WSQ0NO5X3P5JPZZPEM9,7,8
227,2,object_02,object_01,677.70000000298,4,1,354.79999999702,0.4444444444444444,2,object_03,5,3532,0,2,4,forest_3,2,memory-2step-stake-s,716,2844582,0.0-19.0-0.1-0.227,A26ULCPI7UC9R0,3SD15I2WE5AO7614M34OSYMJOYM362,3QJOXOW4XN7WSQ0NO5X3P5JPZZPEM9,4,3
228,4,object_08,object_09,780.29999999702,8,1,248.5,0.5555555555555556,2,object_03,1,3537,0,2,5,restaurant_6,2,memory-2step-stake-s,717,2852627,0.0-19.0-0.1-0.228,A26ULCPI7UC9R0,3SD15I2WE5AO7614M34OSYMJOYM362,3QJOXOW4XN7WSQ0NO5X3P5JPZZPEM9,8,7
229,4,object_09,object_08,968.40000000596,8,2,197.29999999702,0.6666666666666666,2,object_03,5,3567,0,0,6,restaurant_8,2,memory-2step-stake-s,718,2860726,0.0-19.0-0.1-0.229,A26ULCPI7UC9R0,3SD15I2WE5AO7614M34OSYMJOYM362,3QJOXOW4XN7WSQ0NO5X3P5JPZZPEM9,7,8
230,3,object_07,object_04,682.20000000298,6,1,227.90000000596,0.5555555555555556,2,object_03,1,3572,0,1,5,library_2,2,memory-2step-stake-s,719,2868749,0.0-19.0-0.1-0.230,A26ULCPI7UC9R0,3SD15I2WE5AO7614M34OSYMJOYM362,3QJOXOW4XN7WSQ0NO5X3P5JPZZPEM9,6,5
231,1,object_10,object_06,602.20000000298,2,2,167.80000001192,0.6666666666666666,2,object_03,1,3578,0,4,6,desert_2,2,memory-2step-stake-s,720,2876792,0.0-19.0-0.1-0.231,A26ULCPI7UC9R0,3SD15I2WE5AO7614M34OSYMJOYM362,3QJOXOW4XN7WSQ0NO5X3P5JPZZPEM9,1,2
232,3,object_07,object_04,686.29999999702,6,1,237.89999999106,1.0,2,object_03,1,3587,0,4,9,library_5,2,memory-2step-stake-s,721,2885261,0.0-19.0-0.1-0.232,A26ULCPI7UC9R0,3SD15I2WE5AO7614M34OSYMJOYM362,3QJOXOW4XN7WSQ0NO5X3P5JPZZPEM9,6,5
233,4,object_08,object_09,722.5,8,1,58.90000000596,0.8888888888888888,2,object_03,1,3595,0,2,8,restaurant_8,2,memory-2step-stake-s,722,2893421,0.0-19.0-0.1-0.233,A26ULCPI7UC9R0,3SD15I2WE5AO7614M34OSYMJOYM362,3QJOXOW4XN7WSQ0NO5X3P5JPZZPEM9,8,7
234,2,object_01,object_02,742.5,4,2,87.90000000596,0.7777777777777778,2,object_03,5,3630,0,1,7,forest_2,2,memory-2step-stake-s,723,2901507,0.0-19.0-0.1-0.234,A26ULCPI7UC9R0,3SD15I2WE5AO7614M34OSYMJOYM362,3QJOXOW4XN7WSQ0NO5X3P5JPZZPEM9,3,4
235,4,object_08,object_09,846.80000001192,8,1,203.09999999404,0.8888888888888888,2,object_03,1,3638,0,1,8,restaurant_5,2,memory-2step-stake-s,724,2909837,0.0-19.0-0.1-0.235,A26ULCPI7UC9R0,3SD15I2WE5AO7614M34OSYMJOYM362,3QJOXOW4XN7WSQ0NO5X3P5JPZZPEM9,8,7
236,4,object_09,object_08,729.70000000298,8,2,285.59999999404,0.4444444444444444,2,object_03,5,3658,0,2,4,restaurant_8,2,memory-2step-stake-s,725,2917805,0.0-19.0-0.1-0.236,A26ULCPI7UC9R0,3SD15I2WE5AO7614M34OSYMJOYM362,3QJOXOW4XN7WSQ0NO5X3P5JPZZPEM9,7,8
237,4,object_09,object_08,688.89999999106,8,2,397.59999999404,0.2222222222222222,2,object_03,1,3660,0,3,2,restaurant_8,2,memory-2step-stake-s,726,2925658,0.0-19.0-0.1-0.237,A26ULCPI7UC9R0,3SD15I2WE5AO7614M34OSYMJOYM362,3QJOXOW4XN7WSQ0NO5X3P5JPZZPEM9,7,8
238,4,object_09,object_08,647.19999998808,8,2,486.40000000596,0.0,2,object_03,1,3660,0,6,0,restaurant_5,2,memory-2step-stake-s,727,2933390,0.0-19.0-0.1-0.238,A26ULCPI7UC9R0,3SD15I2WE5AO7614M34OSYMJOYM362,3QJOXOW4XN7WSQ0NO5X3P5JPZZPEM9,7,8
239,1,object_10,object_06,1090.200000003,1,1,339.59999999404,0.8888888888888888,1,object_05,1,3668,0,8,0,desert_4,2,memory-2step-stake-s,728,2941833,0.0-19.0-0.1-0.239,A26ULCPI7UC9R0,3SD15I2WE5AO7614M34OSYMJOYM362,3QJOXOW4XN7WSQ0NO5X3P5JPZZPEM9,1,2
240,3,object_04,object_07,687.5,5,1,236.0,0.8888888888888888,1,object_05,1,3676,0,8,0,library_2,2,memory-2step-stake-s,729,2950182,0.0-19.0-0.1-0.240,A26ULCPI7UC9R0,3SD15I2WE5AO7614M34OSYMJOYM362,3QJOXOW4XN7WSQ0NO5X3P5JPZZPEM9,5,6
241,1,object_10,object_06,832.40000000596,1,1,218.79999999702,0.8888888888888888,1,object_05,5,3716,0,8,3,desert_2,2,memory-2step-stake-s,730,2958565,0.0-19.0-0.1-0.241,A26ULCPI7UC9R0,3SD15I2WE5AO7614M34OSYMJOYM362,3QJOXOW4XN7WSQ0NO5X3P5JPZZPEM9,1,2
242,1,object_06,object_10,966.69999998808,1,2,182.80000001192,1.0,1,object_05,5,3761,0,9,3,desert_4,2,memory-2step-stake-s,731,2966996,0.0-19.0-0.1-0.242,A26ULCPI7UC9R0,3SD15I2WE5AO7614M34OSYMJOYM362,3QJOXOW4XN7WSQ0NO5X3P5JPZZPEM9,2,1
243,1,object_10,object_06,698.79999999702,2,2,255.39999999106,0.1111111111111111,2,object_03,5,3766,0,7,1,desert_3,2,memory-2step-stake-s,732,2974614,0.0-19.0-0.1-0.243,A26ULCPI7UC9R0,3SD15I2WE5AO7614M34OSYMJOYM362,3QJOXOW4XN7WSQ0NO5X3P5JPZZPEM9,1,2
244,4,object_09,object_08,989.60000000894,7,1,217.90000000596,0.8888888888888888,1,object_05,1,3774,0,8,6,restaurant_8,2,memory-2step-stake-s,733,2982957,0.0-19.0-0.1-0.244,A26ULCPI7UC9R0,3SD15I2WE5AO7614M34OSYMJOYM362,3QJOXOW4XN7WSQ0NO5X3P5JPZZPEM9,7,8
245,2,object_02,object_01,810.29999999702,3,2,246.89999999106,0.6666666666666666,1,object_05,5,3804,0,6,4,forest_8,2,memory-2step-stake-s,734,2991104,0.0-19.0-0.1-0.245,A26ULCPI7UC9R0,3SD15I2WE5AO7614M34OSYMJOYM362,3QJOXOW4XN7WSQ0NO5X3P5JPZZPEM9,4,3
246,2,object_02,object_01,741.0,3,2,278.59999999404,0.5555555555555556,1,object_05,5,3829,0,5,3,forest_8,2,memory-2step-stake-s,735,2999179,0.0-19.0-0.1-0.246,A26ULCPI7UC9R0,3SD15I2WE5AO7614M34OSYMJOYM362,3QJOXOW4XN7WSQ0NO5X3P5JPZZPEM9,4,3
247,3,object_07,object_04,1013.1000000089,5,2,265.19999998808,0.6666666666666666,1,object_05,1,3835,0,6,4,library_5,2,memory-2step-stake-s,736,3007341,0.0-19.0-0.1-0.247,A26ULCPI7UC9R0,3SD15I2WE5AO7614M34OSYMJOYM362,3QJOXOW4XN7WSQ0NO5X3P5JPZZPEM9,6,5
248,2,object_01,object_02,763.5,3,1,273.70000000298,0.4444444444444444,1,object_05,5,3855,0,4,4,forest_2,2,memory-2step-stake-s,737,3015285,0.0-19.0-0.1-0.248,A26ULCPI7UC9R0,3SD15I2WE5AO7614M34OSYMJOYM362,3QJOXOW4XN7WSQ0NO5X3P5JPZZPEM9,3,4
249,3,object_07,object_04,-1.0,-1,-1,-1.0,0.0,-,0,1,3855,0,4,4,library_4,2,memory-2step-stake-s,738,3021829,0.0-19.0-0.1-0.249,A26ULCPI7UC9R0,3SD15I2WE5AO7614M34OSYMJOYM362,3QJOXOW4XN7WSQ0NO5X3P5JPZZPEM9,6,5
250,4,object_08,object_09,949.59999999404,7,2,294.5,0.6666666666666666,1,object_05,1,3861,0,6,6,restaurant_2,2,memory-2step-stake-s,739,3030018,0.0-19.0-0.1-0.250,A26ULCPI7UC9R0,3SD15I2WE5AO7614M34OSYMJOYM362,3QJOXOW4XN7WSQ0NO5X3P5JPZZPEM9,8,7
251,2,object_01,object_02,845.60000000894,3,1,259.60000000894,0.5555555555555556,1,object_05,1,3866,0,5,5,forest_3,2,memory-2step-stake-s,740,3038093,0.0-19.0-0.1-0.251,A26ULCPI7UC9R0,3SD15I2WE5AO7614M34OSYMJOYM362,3QJOXOW4XN7WSQ0NO5X3P5JPZZPEM9,3,4
252,2,object_02,object_01,745.70000000298,3,2,284.5,0.7777777777777778,1,object_05,5,3901,0,7,6,forest_2,2,memory-2step-stake-s,741,3046379,0.0-19.0-0.1-0.252,A26ULCPI7UC9R0,3SD15I2WE5AO7614M34OSYMJOYM362,3QJOXOW4XN7WSQ0NO5X3P5JPZZPEM9,4,3
253,3,object_04,object_07,773.90000000596,5,1,309.90000000596,0.8888888888888888,1,object_05,1,3909,0,8,4,library_1,2,memory-2step-stake-s,742,3054803,0.0-19.0-0.1-0.253,A26ULCPI7UC9R0,3SD15I2WE5AO7614M34OSYMJOYM362,3QJOXOW4XN7WSQ0NO5X3P5JPZZPEM9,5,6
254,1,object_06,object_10,988.79999999702,1,2,220.5,0.8888888888888888,1,object_05,5,3949,0,8,4,desert_3,2,memory-2step-stake-s,743,3063132,0.0-19.0-0.1-0.254,A26ULCPI7UC9R0,3SD15I2WE5AO7614M34OSYMJOYM362,3QJOXOW4XN7WSQ0NO5X3P5JPZZPEM9,2,1
255,1,object_10,object_06,832.79999999702,1,1,1238.200000003,0.6666666666666666,1,object_05,5,3979,0,6,3,desert_3,2,memory-2step-stake-s,744,3072292,0.0-19.0-0.1-0.255,A26ULCPI7UC9R0,3SD15I2WE5AO7614M34OSYMJOYM362,3QJOXOW4XN7WSQ0NO5X3P5JPZZPEM9,1,2
