,state1,stim_left,stim_right,rt_1,choice1,response1,rt_2,points,state2,stim_state2,stake,score,practice,rews1,rews2,background,high_arm,trial_type,trial_index,time_elapsed,internal_node_id,subid,hitid,assignmentid,stim_left_num,stim_right_num
0,3,object_08,object_01,751.10000002384,5,2,519.10000002384,0.2222222222222222,1,object_03,1,2,0,2,1,library_2,2,memory-2step-stake-s,496,1084139,0.0-19.0-0.0-0.0,AZ2P6DGG5M6SH,3SNR5F7RA597AOC2DOU98SGLOEGIEB,3R6P78PK7ORYPZMY3XO3BMZT6P0TGA,6,5
1,1,object_07,object_10,429.80000007153,1,1,500.80000007153,0.1111111111111111,1,object_03,5,7,0,1,0,desert_1,2,memory-2step-stake-s,497,1091954,0.0-19.0-0.0-0.1,AZ2P6DGG5M6SH,3SNR5F7RA597AOC2DOU98SGLOEGIEB,3R6P78PK7ORYPZMY3XO3BMZT6P0TGA,1,2
2,4,object_04,object_09,684.10000002384,7,2,578.0,0.3333333333333333,1,object_03,5,22,0,3,1,restaurant_7,2,memory-2step-stake-s,498,1100045,0.0-19.0-0.0-0.2,AZ2P6DGG5M6SH,3SNR5F7RA597AOC2DOU98SGLOEGIEB,3R6P78PK7ORYPZMY3XO3BMZT6P0TGA,8,7
3,4,object_04,object_09,514.29999995232,8,1,591.5,0.4444444444444444,2,object_02,1,26,0,2,4,restaurant_7,2,memory-2step-stake-s,499,1108264,0.0-19.0-0.0-0.3,AZ2P6DGG5M6SH,3SNR5F7RA597AOC2DOU98SGLOEGIEB,3R6P78PK7ORYPZMY3XO3BMZT6P0TGA,8,7
4,4,object_09,object_04,385.60000002384,7,1,407.20000004768,0.3333333333333333,1,object_03,1,29,0,3,1,restaurant_7,2,memory-2step-stake-s,500,1116185,0.0-19.0-0.0-0.4,AZ2P6DGG5M6SH,3SNR5F7RA597AOC2DOU98SGLOEGIEB,3R6P78PK7ORYPZMY3XO3BMZT6P0TGA,7,8
5,1,object_07,object_10,597.79999995232,2,2,522.19999992847,0.5555555555555556,2,object_02,5,54,0,3,5,desert_6,2,memory-2step-stake-s,501,1124453,0.0-19.0-0.0-0.5,AZ2P6DGG5M6SH,3SNR5F7RA597AOC2DOU98SGLOEGIEB,3R6P78PK7ORYPZMY3XO3BMZT6P0TGA,1,2
6,4,object_04,object_09,641.39999997616,7,2,309.5,0.6666666666666666,1,object_03,1,60,0,6,4,restaurant_7,2,memory-2step-stake-s,502,1132590,0.0-19.0-0.0-0.6,AZ2P6DGG5M6SH,3SNR5F7RA597AOC2DOU98SGLOEGIEB,3R6P78PK7ORYPZMY3XO3BMZT6P0TGA,8,7
7,2,object_06,object_05,559.10000002384,4,2,534.10000002384,0.4444444444444444,2,object_02,5,80,0,8,4,forest_3,2,memory-2step-stake-s,503,1140747,0.0-19.0-0.0-0.7,AZ2P6DGG5M6SH,3SNR5F7RA597AOC2DOU98SGLOEGIEB,3R6P78PK7ORYPZMY3XO3BMZT6P0TGA,3,4
8,4,object_04,object_09,785.60000002384,8,1,483.69999992847,0.2222222222222222,2,object_02,1,82,0,8,2,restaurant_7,2,memory-2step-stake-s,504,1148643,0.0-19.0-0.0-0.8,AZ2P6DGG5M6SH,3SNR5F7RA597AOC2DOU98SGLOEGIEB,3R6P78PK7ORYPZMY3XO3BMZT6P0TGA,8,7
9,4,object_09,object_04,959.79999995232,7,1,427.29999995232,0.8888888888888888,1,object_03,1,90,0,8,5,restaurant_6,2,memory-2step-stake-s,505,1157088,0.0-19.0-0.0-0.9,AZ2P6DGG5M6SH,3SNR5F7RA597AOC2DOU98SGLOEGIEB,3R6P78PK7ORYPZMY3XO3BMZT6P0TGA,7,8
10,4,object_09,object_04,846.5,7,1,575.79999995232,0.8888888888888888,1,object_03,1,98,0,8,5,restaurant_3,2,memory-2step-stake-s,506,1165686,0.0-19.0-0.0-0.10,AZ2P6DGG5M6SH,3SNR5F7RA597AOC2DOU98SGLOEGIEB,3R6P78PK7ORYPZMY3XO3BMZT6P0TGA,7,8
11,3,object_01,object_08,972.39999997616,5,1,551.89999997616,0.8888888888888888,1,object_03,1,106,0,8,2,library_8,2,memory-2step-stake-s,507,1174257,0.0-19.0-0.0-0.11,AZ2P6DGG5M6SH,3SNR5F7RA597AOC2DOU98SGLOEGIEB,3R6P78PK7ORYPZMY3XO3BMZT6P0TGA,5,6
12,1,object_07,object_10,687.60000002384,1,1,490.5,0.8888888888888888,1,object_03,5,146,0,8,3,desert_7,2,memory-2step-stake-s,508,1182764,0.0-19.0-0.0-0.12,AZ2P6DGG5M6SH,3SNR5F7RA597AOC2DOU98SGLOEGIEB,3R6P78PK7ORYPZMY3XO3BMZT6P0TGA,1,2
13,4,object_09,object_04,609.79999995232,8,2,289.39999997616,0.2222222222222222,2,object_02,1,148,0,7,2,restaurant_3,2,memory-2step-stake-s,509,1190466,0.0-19.0-0.0-0.13,AZ2P6DGG5M6SH,3SNR5F7RA597AOC2DOU98SGLOEGIEB,3R6P78PK7ORYPZMY3XO3BMZT6P0TGA,7,8
14,3,object_01,object_08,1081.3999999762,6,2,499.5,0.5555555555555556,2,object_02,1,153,0,4,5,library_8,2,memory-2step-stake-s,510,1198681,0.0-19.0-0.0-0.14,AZ2P6DGG5M6SH,3SNR5F7RA597AOC2DOU98SGLOEGIEB,3R6P78PK7ORYPZMY3XO3BMZT6P0TGA,5,6
15,4,object_04,object_09,753.39999997616,7,2,342.69999992847,0.4444444444444444,1,object_03,5,173,0,4,7,restaurant_3,2,memory-2step-stake-s,511,1206635,0.0-19.0-0.0-0.15,AZ2P6DGG5M6SH,3SNR5F7RA597AOC2DOU98SGLOEGIEB,3R6P78PK7ORYPZMY3XO3BMZT6P0TGA,8,7
16,4,object_09,object_04,691.70000004768,7,1,309.60000002384,0.2222222222222222,1,object_03,1,175,0,2,9,restaurant_6,2,memory-2step-stake-s,512,1214358,0.0-19.0-0.0-0.16,AZ2P6DGG5M6SH,3SNR5F7RA597AOC2DOU98SGLOEGIEB,3R6P78PK7ORYPZMY3XO3BMZT6P0TGA,7,8
17,1,object_07,object_10,1039.2000000477,2,2,446.39999997616,0.7777777777777778,2,object_02,5,210,0,1,7,desert_8,2,memory-2step-stake-s,513,1222718,0.0-19.0-0.0-0.17,AZ2P6DGG5M6SH,3SNR5F7RA597AOC2DOU98SGLOEGIEB,3R6P78PK7ORYPZMY3XO3BMZT6P0TGA,1,2
18,2,object_05,object_06,1155.1000000238,3,2,437.60000002384,0.2222222222222222,1,object_03,1,212,0,2,8,forest_1,2,memory-2step-stake-s,514,1230567,0.0-19.0-0.0-0.18,AZ2P6DGG5M6SH,3SNR5F7RA597AOC2DOU98SGLOEGIEB,3R6P78PK7ORYPZMY3XO3BMZT6P0TGA,4,3
19,1,object_07,object_10,796.79999995232,2,2,319.0,0.7777777777777778,2,object_02,5,247,0,1,7,desert_1,2,memory-2step-stake-s,515,1238818,0.0-19.0-0.0-0.19,AZ2P6DGG5M6SH,3SNR5F7RA597AOC2DOU98SGLOEGIEB,3R6P78PK7ORYPZMY3XO3BMZT6P0TGA,1,2
20,2,object_05,object_06,790.10000002384,4,1,370.29999995232,0.1111111111111111,2,object_02,1,248,0,1,1,forest_6,2,memory-2step-stake-s,516,1246499,0.0-19.0-0.0-0.20,AZ2P6DGG5M6SH,3SNR5F7RA597AOC2DOU98SGLOEGIEB,3R6P78PK7ORYPZMY3XO3BMZT6P0TGA,4,3
21,3,object_01,object_08,987.69999992847,5,1,411.59999990463,0.2222222222222222,1,object_03,1,250,0,2,0,library_8,2,memory-2step-stake-s,517,1254322,0.0-19.0-0.0-0.21,AZ2P6DGG5M6SH,3SNR5F7RA597AOC2DOU98SGLOEGIEB,3R6P78PK7ORYPZMY3XO3BMZT6P0TGA,5,6
22,3,object_08,object_01,1078.7000000477,6,1,328.89999997616,0.2222222222222222,2,object_02,5,260,0,2,2,library_7,2,memory-2step-stake-s,518,1262066,0.0-19.0-0.0-0.22,AZ2P6DGG5M6SH,3SNR5F7RA597AOC2DOU98SGLOEGIEB,3R6P78PK7ORYPZMY3XO3BMZT6P0TGA,6,5
23,1,object_07,object_10,812.60000002384,1,1,303.89999997616,0.3333333333333333,1,object_03,1,263,0,3,1,desert_7,2,memory-2step-stake-s,519,1269881,0.0-19.0-0.0-0.23,AZ2P6DGG5M6SH,3SNR5F7RA597AOC2DOU98SGLOEGIEB,3R6P78PK7ORYPZMY3XO3BMZT6P0TGA,1,2
24,4,object_09,object_04,806.10000002384,7,1,466.79999995232,0.0,1,object_03,1,263,0,0,1,restaurant_6,2,memory-2step-stake-s,520,1277558,0.0-19.0-0.0-0.24,AZ2P6DGG5M6SH,3SNR5F7RA597AOC2DOU98SGLOEGIEB,3R6P78PK7ORYPZMY3XO3BMZT6P0TGA,7,8
25,4,object_09,object_04,1010.2999999523,8,2,562.0,0.4444444444444444,2,object_02,1,267,0,0,4,restaurant_6,2,memory-2step-stake-s,521,1285733,0.0-19.0-0.0-0.25,AZ2P6DGG5M6SH,3SNR5F7RA597AOC2DOU98SGLOEGIEB,3R6P78PK7ORYPZMY3XO3BMZT6P0TGA,7,8
26,3,object_08,object_01,603.29999995232,6,1,554.70000004768,0.7777777777777778,2,object_02,1,274,0,2,7,library_8,2,memory-2step-stake-s,522,1294202,0.0-19.0-0.0-0.26,AZ2P6DGG5M6SH,3SNR5F7RA597AOC2DOU98SGLOEGIEB,3R6P78PK7ORYPZMY3XO3BMZT6P0TGA,6,5
27,1,object_10,object_07,863.79999995232,1,2,387.29999995232,0.4444444444444444,1,object_03,5,294,0,4,9,desert_8,2,memory-2step-stake-s,523,1302207,0.0-19.0-0.0-0.27,AZ2P6DGG5M6SH,3SNR5F7RA597AOC2DOU98SGLOEGIEB,3R6P78PK7ORYPZMY3XO3BMZT6P0TGA,2,1
28,2,object_05,object_06,673.10000002384,3,2,484.0,0.2222222222222222,1,object_03,1,296,0,2,7,forest_6,2,memory-2step-stake-s,524,1310102,0.0-19.0-0.0-0.28,AZ2P6DGG5M6SH,3SNR5F7RA597AOC2DOU98SGLOEGIEB,3R6P78PK7ORYPZMY3XO3BMZT6P0TGA,4,3
29,3,object_01,object_08,927.20000004768,6,2,577.89999997616,1.0,2,object_02,1,305,0,2,9,library_2,2,memory-2step-stake-s,525,1318800,0.0-19.0-0.0-0.29,AZ2P6DGG5M6SH,3SNR5F7RA597AOC2DOU98SGLOEGIEB,3R6P78PK7ORYPZMY3XO3BMZT6P0TGA,5,6
30,1,object_07,object_10,1182.5,1,1,496.10000002384,0.4444444444444444,1,object_03,5,325,0,4,9,desert_7,2,memory-2step-stake-s,526,1326911,0.0-19.0-0.0-0.30,AZ2P6DGG5M6SH,3SNR5F7RA597AOC2DOU98SGLOEGIEB,3R6P78PK7ORYPZMY3XO3BMZT6P0TGA,1,2
31,1,object_10,object_07,606.10000002384,1,2,332.79999995232,0.2222222222222222,1,object_03,5,335,0,2,8,desert_1,2,memory-2step-stake-s,527,1334654,0.0-19.0-0.0-0.31,AZ2P6DGG5M6SH,3SNR5F7RA597AOC2DOU98SGLOEGIEB,3R6P78PK7ORYPZMY3XO3BMZT6P0TGA,2,1
32,1,object_07,object_10,824.59999990463,2,2,669.20000004768,0.6666666666666666,2,object_02,1,341,0,4,6,desert_6,2,memory-2step-stake-s,528,1343140,0.0-19.0-0.0-0.32,AZ2P6DGG5M6SH,3SNR5F7RA597AOC2DOU98SGLOEGIEB,3R6P78PK7ORYPZMY3XO3BMZT6P0TGA,1,2
33,1,object_07,object_10,791.10000002384,2,2,383.40000009537,0.8888888888888888,2,object_02,5,381,0,3,8,desert_1,2,memory-2step-stake-s,529,1351538,0.0-19.0-0.0-0.33,AZ2P6DGG5M6SH,3SNR5F7RA597AOC2DOU98SGLOEGIEB,3R6P78PK7ORYPZMY3XO3BMZT6P0TGA,1,2
34,3,object_01,object_08,726.10000002384,6,2,325.30000007153,0.7777777777777778,2,object_02,1,388,0,5,7,library_8,2,memory-2step-stake-s,530,1359787,0.0-19.0-0.0-0.34,AZ2P6DGG5M6SH,3SNR5F7RA597AOC2DOU98SGLOEGIEB,3R6P78PK7ORYPZMY3XO3BMZT6P0TGA,5,6
35,3,object_08,object_01,783.70000004768,6,1,658.0,1.0,2,object_02,1,397,0,6,9,library_2,2,memory-2step-stake-s,531,1368576,0.0-19.0-0.0-0.35,AZ2P6DGG5M6SH,3SNR5F7RA597AOC2DOU98SGLOEGIEB,3R6P78PK7ORYPZMY3XO3BMZT6P0TGA,6,5
36,2,object_06,object_05,946.79999995232,3,1,500.89999997616,0.7777777777777778,1,object_03,5,432,0,7,8,forest_1,2,memory-2step-stake-s,532,1376996,0.0-19.0-0.0-0.36,AZ2P6DGG5M6SH,3SNR5F7RA597AOC2DOU98SGLOEGIEB,3R6P78PK7ORYPZMY3XO3BMZT6P0TGA,3,4
37,2,object_06,object_05,631.20000004768,4,2,226.89999997616,0.8888888888888888,2,object_02,5,472,0,7,8,forest_8,2,memory-2step-stake-s,533,1385240,0.0-19.0-0.0-0.37,AZ2P6DGG5M6SH,3SNR5F7RA597AOC2DOU98SGLOEGIEB,3R6P78PK7ORYPZMY3XO3BMZT6P0TGA,3,4
38,3,object_01,object_08,700.10000002384,6,2,420.20000004768,0.6666666666666666,2,object_02,1,478,0,5,6,library_5,2,memory-2step-stake-s,534,1393475,0.0-19.0-0.0-0.38,AZ2P6DGG5M6SH,3SNR5F7RA597AOC2DOU98SGLOEGIEB,3R6P78PK7ORYPZMY3XO3BMZT6P0TGA,5,6
39,2,object_05,object_06,848.79999995232,3,2,767.20000004768,0.7777777777777778,1,object_03,1,485,0,7,1,forest_6,2,memory-2step-stake-s,535,1402159,0.0-19.0-0.0-0.39,AZ2P6DGG5M6SH,3SNR5F7RA597AOC2DOU98SGLOEGIEB,3R6P78PK7ORYPZMY3XO3BMZT6P0TGA,4,3
40,1,object_07,object_10,1259.1999999285,1,1,442.90000009537,0.3333333333333333,1,object_03,5,500,0,3,1,desert_1,2,memory-2step-stake-s,536,1410116,0.0-19.0-0.0-0.40,AZ2P6DGG5M6SH,3SNR5F7RA597AOC2DOU98SGLOEGIEB,3R6P78PK7ORYPZMY3XO3BMZT6P0TGA,1,2
41,4,object_04,object_09,901.19999992847,7,2,850.5,0.1111111111111111,1,object_03,1,501,0,1,3,restaurant_4,2,memory-2step-stake-s,537,1418278,0.0-19.0-0.0-0.41,AZ2P6DGG5M6SH,3SNR5F7RA597AOC2DOU98SGLOEGIEB,3R6P78PK7ORYPZMY3XO3BMZT6P0TGA,8,7
42,1,object_10,object_07,946.5,1,2,482.39999997616,0.2222222222222222,1,object_03,5,511,0,2,4,desert_6,2,memory-2step-stake-s,538,1426182,0.0-19.0-0.0-0.42,AZ2P6DGG5M6SH,3SNR5F7RA597AOC2DOU98SGLOEGIEB,3R6P78PK7ORYPZMY3XO3BMZT6P0TGA,2,1
43,4,object_09,object_04,752.79999995232,7,1,274.5,0.1111111111111111,1,object_03,1,512,0,1,1,restaurant_4,2,memory-2step-stake-s,539,1433768,0.0-19.0-0.0-0.43,AZ2P6DGG5M6SH,3SNR5F7RA597AOC2DOU98SGLOEGIEB,3R6P78PK7ORYPZMY3XO3BMZT6P0TGA,7,8
44,3,object_08,object_01,931.29999995232,6,1,576.40000009537,0.5555555555555556,2,object_02,1,517,0,4,5,library_8,2,memory-2step-stake-s,540,1442057,0.0-19.0-0.0-0.44,AZ2P6DGG5M6SH,3SNR5F7RA597AOC2DOU98SGLOEGIEB,3R6P78PK7ORYPZMY3XO3BMZT6P0TGA,6,5
45,2,object_06,object_05,977.10000002384,3,1,547.69999992847,0.3333333333333333,1,object_03,5,532,0,3,6,forest_3,2,memory-2step-stake-s,541,1450117,0.0-19.0-0.0-0.45,AZ2P6DGG5M6SH,3SNR5F7RA597AOC2DOU98SGLOEGIEB,3R6P78PK7ORYPZMY3XO3BMZT6P0TGA,3,4
46,2,object_05,object_06,1162.6000000238,3,2,562.60000002384,0.5555555555555556,1,object_03,5,557,0,5,7,forest_6,2,memory-2step-stake-s,542,1458406,0.0-19.0-0.0-0.46,AZ2P6DGG5M6SH,3SNR5F7RA597AOC2DOU98SGLOEGIEB,3R6P78PK7ORYPZMY3XO3BMZT6P0TGA,4,3
47,3,object_08,object_01,787.90000009537,6,1,719.5,1.0,2,object_02,1,566,0,7,9,library_5,2,memory-2step-stake-s,543,1467243,0.0-19.0-0.0-0.47,AZ2P6DGG5M6SH,3SNR5F7RA597AOC2DOU98SGLOEGIEB,3R6P78PK7ORYPZMY3XO3BMZT6P0TGA,6,5
48,2,object_06,object_05,773.70000004768,3,1,395.5,0.6666666666666666,1,object_03,5,596,0,6,4,forest_8,2,memory-2step-stake-s,544,1475469,0.0-19.0-0.0-0.48,AZ2P6DGG5M6SH,3SNR5F7RA597AOC2DOU98SGLOEGIEB,3R6P78PK7ORYPZMY3XO3BMZT6P0TGA,3,4
49,1,object_07,object_10,788.69999992847,2,2,395.69999992847,0.4444444444444444,2,object_02,5,616,0,7,4,desert_7,2,memory-2step-stake-s,545,1483486,0.0-19.0-0.0-0.49,AZ2P6DGG5M6SH,3SNR5F7RA597AOC2DOU98SGLOEGIEB,3R6P78PK7ORYPZMY3XO3BMZT6P0TGA,1,2
50,4,object_04,object_09,801.60000002384,7,2,564.70000004768,0.8888888888888888,1,object_03,1,624,0,8,1,restaurant_4,2,memory-2step-stake-s,546,1492076,0.0-19.0-0.0-0.50,AZ2P6DGG5M6SH,3SNR5F7RA597AOC2DOU98SGLOEGIEB,3R6P78PK7ORYPZMY3XO3BMZT6P0TGA,8,7
51,2,object_06,object_05,1040.2999999523,3,1,317.0,0.8888888888888888,1,object_03,5,664,0,8,3,forest_8,2,memory-2step-stake-s,547,1500407,0.0-19.0-0.0-0.51,AZ2P6DGG5M6SH,3SNR5F7RA597AOC2DOU98SGLOEGIEB,3R6P78PK7ORYPZMY3XO3BMZT6P0TGA,3,4
52,2,object_05,object_06,595.69999992847,3,2,380.39999997616,0.7777777777777778,1,object_03,5,699,0,7,3,forest_8,2,memory-2step-stake-s,548,1508704,0.0-19.0-0.0-0.52,AZ2P6DGG5M6SH,3SNR5F7RA597AOC2DOU98SGLOEGIEB,3R6P78PK7ORYPZMY3XO3BMZT6P0TGA,4,3
53,1,object_10,object_07,1191.3999999762,2,1,410.70000004768,0.0,2,object_02,5,699,0,5,0,desert_6,2,memory-2step-stake-s,549,1516324,0.0-19.0-0.0-0.53,AZ2P6DGG5M6SH,3SNR5F7RA597AOC2DOU98SGLOEGIEB,3R6P78PK7ORYPZMY3XO3BMZT6P0TGA,2,1
54,1,object_07,object_10,942.89999997616,1,1,387.19999992847,0.4444444444444444,1,object_03,5,719,0,4,0,desert_6,2,memory-2step-stake-s,550,1524334,0.0-19.0-0.0-0.54,AZ2P6DGG5M6SH,3SNR5F7RA597AOC2DOU98SGLOEGIEB,3R6P78PK7ORYPZMY3XO3BMZT6P0TGA,1,2
55,4,object_09,object_04,865.5,8,2,473.0,0.1111111111111111,2,object_02,1,720,0,3,1,restaurant_4,2,memory-2step-stake-s,551,1532119,0.0-19.0-0.0-0.55,AZ2P6DGG5M6SH,3SNR5F7RA597AOC2DOU98SGLOEGIEB,3R6P78PK7ORYPZMY3XO3BMZT6P0TGA,7,8
56,2,object_06,object_05,656.69999992847,3,1,578.80000007153,0.5555555555555556,1,object_03,5,745,0,5,4,forest_6,2,memory-2step-stake-s,552,1540415,0.0-19.0-0.0-0.56,AZ2P6DGG5M6SH,3SNR5F7RA597AOC2DOU98SGLOEGIEB,3R6P78PK7ORYPZMY3XO3BMZT6P0TGA,3,4
57,3,object_01,object_08,615.60000002384,6,2,627.0,0.3333333333333333,2,object_02,1,748,0,7,3,library_7,2,memory-2step-stake-s,553,1548564,0.0-19.0-0.0-0.57,AZ2P6DGG5M6SH,3SNR5F7RA597AOC2DOU98SGLOEGIEB,3R6P78PK7ORYPZMY3XO3BMZT6P0TGA,5,6
58,2,object_06,object_05,600.39999997616,3,1,493.0,0.6666666666666666,1,object_03,5,778,0,6,1,forest_6,2,memory-2step-stake-s,554,1556885,0.0-19.0-0.0-0.58,AZ2P6DGG5M6SH,3SNR5F7RA597AOC2DOU98SGLOEGIEB,3R6P78PK7ORYPZMY3XO3BMZT6P0TGA,3,4
59,2,object_05,object_06,920.80000007153,3,2,767.69999992847,0.8888888888888888,1,object_03,5,818,0,8,7,forest_3,2,memory-2step-stake-s,555,1565685,0.0-19.0-0.0-0.59,AZ2P6DGG5M6SH,3SNR5F7RA597AOC2DOU98SGLOEGIEB,3R6P78PK7ORYPZMY3XO3BMZT6P0TGA,4,3
60,2,object_05,object_06,539.30000007153,3,2,478.5,0.7777777777777778,1,object_03,1,825,0,7,6,forest_1,2,memory-2step-stake-s,556,1574082,0.0-19.0-0.0-0.60,AZ2P6DGG5M6SH,3SNR5F7RA597AOC2DOU98SGLOEGIEB,3R6P78PK7ORYPZMY3XO3BMZT6P0TGA,4,3
61,3,object_01,object_08,709.59999990463,6,2,780.89999997616,0.5555555555555556,2,object_02,1,830,0,7,5,library_7,2,memory-2step-stake-s,557,1582595,0.0-19.0-0.0-0.61,AZ2P6DGG5M6SH,3SNR5F7RA597AOC2DOU98SGLOEGIEB,3R6P78PK7ORYPZMY3XO3BMZT6P0TGA,5,6
62,4,object_04,object_09,932.70000004768,8,1,400.0,0.4444444444444444,2,object_02,1,834,0,8,4,restaurant_4,2,memory-2step-stake-s,558,1590607,0.0-19.0-0.0-0.62,AZ2P6DGG5M6SH,3SNR5F7RA597AOC2DOU98SGLOEGIEB,3R6P78PK7ORYPZMY3XO3BMZT6P0TGA,8,7
63,1,object_07,object_10,937.70000004768,1,1,410.0,1.0,1,object_03,5,879,0,9,7,desert_8,2,memory-2step-stake-s,559,1599136,0.0-19.0-0.0-0.63,AZ2P6DGG5M6SH,3SNR5F7RA597AOC2DOU98SGLOEGIEB,3R6P78PK7ORYPZMY3XO3BMZT6P0TGA,1,2
64,2,object_05,object_06,626.5,3,2,312.10000002384,0.7777777777777778,1,object_03,5,914,0,7,9,forest_1,2,memory-2step-stake-s,560,1607365,0.0-19.0-0.0-0.64,AZ2P6DGG5M6SH,3SNR5F7RA597AOC2DOU98SGLOEGIEB,3R6P78PK7ORYPZMY3XO3BMZT6P0TGA,4,3
65,2,object_06,object_05,614.19999992847,3,1,589.69999992847,1.0,1,object_03,5,959,0,9,8,forest_3,2,memory-2step-stake-s,561,1616084,0.0-19.0-0.0-0.65,AZ2P6DGG5M6SH,3SNR5F7RA597AOC2DOU98SGLOEGIEB,3R6P78PK7ORYPZMY3XO3BMZT6P0TGA,3,4
66,3,object_01,object_08,1013.7000000477,6,2,868.60000002384,0.5555555555555556,2,object_02,1,964,0,7,5,library_7,2,memory-2step-stake-s,562,1624669,0.0-19.0-0.0-0.66,AZ2P6DGG5M6SH,3SNR5F7RA597AOC2DOU98SGLOEGIEB,3R6P78PK7ORYPZMY3XO3BMZT6P0TGA,5,6
67,3,object_01,object_08,641.10000002384,6,2,321.20000004768,0.3333333333333333,2,object_02,1,967,0,6,3,library_8,2,memory-2step-stake-s,563,1632503,0.0-19.0-0.0-0.67,AZ2P6DGG5M6SH,3SNR5F7RA597AOC2DOU98SGLOEGIEB,3R6P78PK7ORYPZMY3XO3BMZT6P0TGA,5,6
68,4,object_09,object_04,820.89999997616,7,1,392.29999995232,0.7777777777777778,1,object_03,1,974,0,7,6,restaurant_6,2,memory-2step-stake-s,564,1640825,0.0-19.0-0.0-0.68,AZ2P6DGG5M6SH,3SNR5F7RA597AOC2DOU98SGLOEGIEB,3R6P78PK7ORYPZMY3XO3BMZT6P0TGA,7,8
69,2,object_06,object_05,613.70000004768,3,1,384.20000004768,0.7777777777777778,1,object_03,5,1009,0,7,4,forest_6,2,memory-2step-stake-s,565,1649127,0.0-19.0-0.0-0.69,AZ2P6DGG5M6SH,3SNR5F7RA597AOC2DOU98SGLOEGIEB,3R6P78PK7ORYPZMY3XO3BMZT6P0TGA,3,4
70,1,object_10,object_07,707.89999997616,1,2,-1.0,0.0,1,object_03,5,1009,0,4,4,desert_1,2,memory-2step-stake-s,566,1657638,0.0-19.0-0.0-0.70,AZ2P6DGG5M6SH,3SNR5F7RA597AOC2DOU98SGLOEGIEB,3R6P78PK7ORYPZMY3XO3BMZT6P0TGA,2,1
71,1,object_07,object_10,1108.1000000238,2,2,756.89999997616,0.3333333333333333,2,object_02,5,1024,0,4,3,desert_1,2,memory-2step-stake-s,567,1665906,0.0-19.0-0.0-0.71,AZ2P6DGG5M6SH,3SNR5F7RA597AOC2DOU98SGLOEGIEB,3R6P78PK7ORYPZMY3XO3BMZT6P0TGA,1,2
72,2,object_05,object_06,574.29999995232,3,2,680.30000007153,0.7777777777777778,1,object_03,5,1059,0,7,4,forest_1,2,memory-2step-stake-s,568,1674507,0.0-19.0-0.0-0.72,AZ2P6DGG5M6SH,3SNR5F7RA597AOC2DOU98SGLOEGIEB,3R6P78PK7ORYPZMY3XO3BMZT6P0TGA,4,3
73,2,object_05,object_06,523.30000007153,3,2,536.69999992847,0.6666666666666666,1,object_03,1,1065,0,6,0,forest_8,2,memory-2step-stake-s,569,1682857,0.0-19.0-0.0-0.73,AZ2P6DGG5M6SH,3SNR5F7RA597AOC2DOU98SGLOEGIEB,3R6P78PK7ORYPZMY3XO3BMZT6P0TGA,4,3
74,3,object_01,object_08,597.89999997616,6,2,439.79999995232,0.0,2,object_02,1,1065,0,9,0,library_2,2,memory-2step-stake-s,570,1690510,0.0-19.0-0.0-0.74,AZ2P6DGG5M6SH,3SNR5F7RA597AOC2DOU98SGLOEGIEB,3R6P78PK7ORYPZMY3XO3BMZT6P0TGA,5,6
75,1,object_10,object_07,865.79999995232,2,1,356.20000004768,0.1111111111111111,2,object_02,5,1070,0,6,1,desert_7,2,memory-2step-stake-s,571,1698178,0.0-19.0-0.0-0.75,AZ2P6DGG5M6SH,3SNR5F7RA597AOC2DOU98SGLOEGIEB,3R6P78PK7ORYPZMY3XO3BMZT6P0TGA,2,1
76,2,object_05,object_06,535.80000007153,3,2,719.60000002384,0.8888888888888888,1,object_03,5,1110,0,8,4,forest_3,2,memory-2step-stake-s,572,1706913,0.0-19.0-0.0-0.76,AZ2P6DGG5M6SH,3SNR5F7RA597AOC2DOU98SGLOEGIEB,3R6P78PK7ORYPZMY3XO3BMZT6P0TGA,4,3
77,3,object_01,object_08,545.69999992847,6,2,347.89999997616,0.2222222222222222,2,object_02,1,1112,0,6,2,library_8,2,memory-2step-stake-s,573,1714675,0.0-19.0-0.0-0.77,AZ2P6DGG5M6SH,3SNR5F7RA597AOC2DOU98SGLOEGIEB,3R6P78PK7ORYPZMY3XO3BMZT6P0TGA,5,6
78,4,object_09,object_04,682.0,7,1,333.60000002384,0.5555555555555556,1,object_03,5,1137,0,5,4,restaurant_4,2,memory-2step-stake-s,574,1722723,0.0-19.0-0.0-0.78,AZ2P6DGG5M6SH,3SNR5F7RA597AOC2DOU98SGLOEGIEB,3R6P78PK7ORYPZMY3XO3BMZT6P0TGA,7,8
79,1,object_10,object_07,543.60000002384,1,2,398.60000002384,0.4444444444444444,1,object_03,1,1141,0,4,9,desert_1,2,memory-2step-stake-s,575,1730749,0.0-19.0-0.0-0.79,AZ2P6DGG5M6SH,3SNR5F7RA597AOC2DOU98SGLOEGIEB,3R6P78PK7ORYPZMY3XO3BMZT6P0TGA,2,1
80,2,object_06,object_05,558.40000009537,3,1,558.10000002384,0.5555555555555556,1,object_03,5,1166,0,5,8,forest_3,2,memory-2step-stake-s,576,1739023,0.0-19.0-0.0-0.80,AZ2P6DGG5M6SH,3SNR5F7RA597AOC2DOU98SGLOEGIEB,3R6P78PK7ORYPZMY3XO3BMZT6P0TGA,3,4
81,2,object_06,object_05,599.10000002384,3,1,1291.2000000477,0.3333333333333333,1,object_03,1,1169,0,3,9,forest_1,2,memory-2step-stake-s,577,1747829,0.0-19.0-0.0-0.81,AZ2P6DGG5M6SH,3SNR5F7RA597AOC2DOU98SGLOEGIEB,3R6P78PK7ORYPZMY3XO3BMZT6P0TGA,3,4
82,3,object_01,object_08,623.39999997616,6,2,671.70000004768,0.6666666666666666,2,object_02,1,1175,0,3,6,library_2,2,memory-2step-stake-s,578,1756315,0.0-19.0-0.0-0.82,AZ2P6DGG5M6SH,3SNR5F7RA597AOC2DOU98SGLOEGIEB,3R6P78PK7ORYPZMY3XO3BMZT6P0TGA,5,6
83,3,object_08,object_01,611.79999995232,6,1,459.19999992847,0.2222222222222222,2,object_02,1,1177,0,5,2,library_8,2,memory-2step-stake-s,579,1764185,0.0-19.0-0.0-0.83,AZ2P6DGG5M6SH,3SNR5F7RA597AOC2DOU98SGLOEGIEB,3R6P78PK7ORYPZMY3XO3BMZT6P0TGA,6,5
84,4,object_09,object_04,603.10000002384,7,1,887.89999997616,0.4444444444444444,1,object_03,1,1181,0,4,1,restaurant_6,2,memory-2step-stake-s,580,1772685,0.0-19.0-0.0-0.84,AZ2P6DGG5M6SH,3SNR5F7RA597AOC2DOU98SGLOEGIEB,3R6P78PK7ORYPZMY3XO3BMZT6P0TGA,7,8
85,1,object_07,object_10,968.29999995232,2,2,330.29999995232,0.3333333333333333,2,object_02,5,1196,0,5,3,desert_1,2,memory-2step-stake-s,581,1780527,0.0-19.0-0.0-0.85,AZ2P6DGG5M6SH,3SNR5F7RA597AOC2DOU98SGLOEGIEB,3R6P78PK7ORYPZMY3XO3BMZT6P0TGA,1,2
86,1,object_07,object_10,567.90000009537,1,1,286.0,0.8888888888888888,1,object_03,5,1236,0,8,4,desert_6,2,memory-2step-stake-s,582,1788836,0.0-19.0-0.0-0.86,AZ2P6DGG5M6SH,3SNR5F7RA597AOC2DOU98SGLOEGIEB,3R6P78PK7ORYPZMY3XO3BMZT6P0TGA,1,2
87,3,object_01,object_08,575.90000009537,6,2,346.70000004768,0.6666666666666666,2,object_02,1,1242,0,8,6,library_2,2,memory-2step-stake-s,583,1796999,0.0-19.0-0.0-0.87,AZ2P6DGG5M6SH,3SNR5F7RA597AOC2DOU98SGLOEGIEB,3R6P78PK7ORYPZMY3XO3BMZT6P0TGA,5,6
88,3,object_08,object_01,573.70000004768,6,1,617.30000007153,0.5555555555555556,2,object_02,1,1247,0,6,5,library_5,2,memory-2step-stake-s,584,1805341,0.0-19.0-0.0-0.88,AZ2P6DGG5M6SH,3SNR5F7RA597AOC2DOU98SGLOEGIEB,3R6P78PK7ORYPZMY3XO3BMZT6P0TGA,6,5
89,1,object_10,object_07,657.60000002384,1,2,313.69999992847,0.4444444444444444,1,object_03,5,1267,0,4,6,desert_7,2,memory-2step-stake-s,585,1813270,0.0-19.0-0.0-0.89,AZ2P6DGG5M6SH,3SNR5F7RA597AOC2DOU98SGLOEGIEB,3R6P78PK7ORYPZMY3XO3BMZT6P0TGA,2,1
90,3,object_08,object_01,618.89999997616,6,1,525.0,0.7777777777777778,2,object_02,1,1274,0,3,7,library_7,2,memory-2step-stake-s,586,1821723,0.0-19.0-0.0-0.90,AZ2P6DGG5M6SH,3SNR5F7RA597AOC2DOU98SGLOEGIEB,3R6P78PK7ORYPZMY3XO3BMZT6P0TGA,6,5
91,4,object_09,object_04,802.60000002384,7,1,894.70000004768,0.5555555555555556,1,object_03,5,1299,0,5,8,restaurant_6,2,memory-2step-stake-s,587,1830337,0.0-19.0-0.0-0.91,AZ2P6DGG5M6SH,3SNR5F7RA597AOC2DOU98SGLOEGIEB,3R6P78PK7ORYPZMY3XO3BMZT6P0TGA,7,8
92,4,object_04,object_09,708.80000007153,7,2,376.70000004768,0.4444444444444444,1,object_03,1,1303,0,4,8,restaurant_4,2,memory-2step-stake-s,588,1838327,0.0-19.0-0.0-0.92,AZ2P6DGG5M6SH,3SNR5F7RA597AOC2DOU98SGLOEGIEB,3R6P78PK7ORYPZMY3XO3BMZT6P0TGA,8,7
93,4,object_04,object_09,820.5,7,2,383.70000004768,0.6666666666666666,1,object_03,1,1309,0,6,5,restaurant_4,2,memory-2step-stake-s,589,1846525,0.0-19.0-0.0-0.93,AZ2P6DGG5M6SH,3SNR5F7RA597AOC2DOU98SGLOEGIEB,3R6P78PK7ORYPZMY3XO3BMZT6P0TGA,8,7
94,3,object_01,object_08,636.5,6,2,339.59999990463,0.5555555555555556,2,object_02,1,1314,0,6,5,library_2,2,memory-2step-stake-s,590,1854579,0.0-19.0-0.0-0.94,AZ2P6DGG5M6SH,3SNR5F7RA597AOC2DOU98SGLOEGIEB,3R6P78PK7ORYPZMY3XO3BMZT6P0TGA,5,6
95,1,object_07,object_10,651.89999997616,1,1,358.29999995232,0.4444444444444444,1,object_03,5,1334,0,4,2,desert_8,2,memory-2step-stake-s,591,1862553,0.0-19.0-0.0-0.95,AZ2P6DGG5M6SH,3SNR5F7RA597AOC2DOU98SGLOEGIEB,3R6P78PK7ORYPZMY3XO3BMZT6P0TGA,1,2
96,3,object_01,object_08,582.90000009537,6,2,1468.3000000715,0.6666666666666666,2,object_02,1,1340,0,1,6,library_2,2,memory-2step-stake-s,592,1871837,0.0-19.0-0.0-0.96,AZ2P6DGG5M6SH,3SNR5F7RA597AOC2DOU98SGLOEGIEB,3R6P78PK7ORYPZMY3XO3BMZT6P0TGA,5,6
97,3,object_01,object_08,566.60000002384,6,2,1250.2999999523,0.4444444444444444,2,object_02,1,1344,0,1,4,library_7,2,memory-2step-stake-s,593,1880701,0.0-19.0-0.0-0.97,AZ2P6DGG5M6SH,3SNR5F7RA597AOC2DOU98SGLOEGIEB,3R6P78PK7ORYPZMY3XO3BMZT6P0TGA,5,6
98,3,object_01,object_08,577.79999995232,6,2,640.60000002384,0.6666666666666666,2,object_02,1,1350,0,1,6,library_5,2,memory-2step-stake-s,594,1889156,0.0-19.0-0.0-0.98,AZ2P6DGG5M6SH,3SNR5F7RA597AOC2DOU98SGLOEGIEB,3R6P78PK7ORYPZMY3XO3BMZT6P0TGA,5,6
99,1,object_07,object_10,562.0,1,1,1205.7999999523,0.2222222222222222,1,object_03,5,1360,0,2,7,desert_8,2,memory-2step-stake-s,595,1897774,0.0-19.0-0.0-0.99,AZ2P6DGG5M6SH,3SNR5F7RA597AOC2DOU98SGLOEGIEB,3R6P78PK7ORYPZMY3XO3BMZT6P0TGA,1,2
100,4,object_09,object_04,715.10000002384,7,1,787.19999992847,0.2222222222222222,1,object_03,1,1362,0,2,6,restaurant_4,2,memory-2step-stake-s,596,1905973,0.0-19.0-0.0-0.100,AZ2P6DGG5M6SH,3SNR5F7RA597AOC2DOU98SGLOEGIEB,3R6P78PK7ORYPZMY3XO3BMZT6P0TGA,7,8
101,3,object_01,object_08,572.19999992847,6,2,476.90000009537,0.6666666666666666,2,object_02,1,1368,0,0,6,library_8,2,memory-2step-stake-s,597,1914291,0.0-19.0-0.0-0.101,AZ2P6DGG5M6SH,3SNR5F7RA597AOC2DOU98SGLOEGIEB,3R6P78PK7ORYPZMY3XO3BMZT6P0TGA,5,6
102,4,object_09,object_04,674.0,7,1,893.30000007153,0.5555555555555556,1,object_03,1,1373,0,5,2,restaurant_7,2,memory-2step-stake-s,598,1922900,0.0-19.0-0.0-0.102,AZ2P6DGG5M6SH,3SNR5F7RA597AOC2DOU98SGLOEGIEB,3R6P78PK7ORYPZMY3XO3BMZT6P0TGA,7,8
103,3,object_08,object_01,618.5,6,1,839.89999997616,0.1111111111111111,2,object_02,1,1374,0,9,1,library_2,2,memory-2step-stake-s,599,1931050,0.0-19.0-0.0-0.103,AZ2P6DGG5M6SH,3SNR5F7RA597AOC2DOU98SGLOEGIEB,3R6P78PK7ORYPZMY3XO3BMZT6P0TGA,6,5
104,3,object_01,object_08,503.60000002384,6,2,308.90000009537,0.0,2,object_02,1,1374,0,5,0,library_7,2,memory-2step-stake-s,600,1938596,0.0-19.0-0.0-0.104,AZ2P6DGG5M6SH,3SNR5F7RA597AOC2DOU98SGLOEGIEB,3R6P78PK7ORYPZMY3XO3BMZT6P0TGA,5,6
105,3,object_08,object_01,749.90000009537,5,2,418.60000002384,0.3333333333333333,1,object_03,1,1377,0,3,1,library_2,2,memory-2step-stake-s,601,1946528,0.0-19.0-0.0-0.105,AZ2P6DGG5M6SH,3SNR5F7RA597AOC2DOU98SGLOEGIEB,3R6P78PK7ORYPZMY3XO3BMZT6P0TGA,6,5
106,2,object_05,object_06,1068.7000000477,4,1,329.70000004768,0.4444444444444444,2,object_02,5,1397,0,4,4,forest_8,2,memory-2step-stake-s,602,1954471,0.0-19.0-0.0-0.106,AZ2P6DGG5M6SH,3SNR5F7RA597AOC2DOU98SGLOEGIEB,3R6P78PK7ORYPZMY3XO3BMZT6P0TGA,4,3
107,4,object_04,object_09,610.29999995232,8,1,491.70000004768,0.5555555555555556,2,object_02,1,1402,0,3,5,restaurant_3,2,memory-2step-stake-s,603,1962679,0.0-19.0-0.0-0.107,AZ2P6DGG5M6SH,3SNR5F7RA597AOC2DOU98SGLOEGIEB,3R6P78PK7ORYPZMY3XO3BMZT6P0TGA,8,7
108,2,object_05,object_06,627.10000002384,3,2,654.30000007153,0.5555555555555556,1,object_03,1,1407,0,5,8,forest_8,2,memory-2step-stake-s,604,1971063,0.0-19.0-0.0-0.108,AZ2P6DGG5M6SH,3SNR5F7RA597AOC2DOU98SGLOEGIEB,3R6P78PK7ORYPZMY3XO3BMZT6P0TGA,4,3
109,4,object_04,object_09,741.39999997616,7,2,889.90000009537,0.7777777777777778,1,object_03,1,1414,0,7,7,restaurant_6,2,memory-2step-stake-s,605,1979868,0.0-19.0-0.0-0.109,AZ2P6DGG5M6SH,3SNR5F7RA597AOC2DOU98SGLOEGIEB,3R6P78PK7ORYPZMY3XO3BMZT6P0TGA,8,7
110,1,object_10,object_07,593.69999992847,1,2,433.0,0.5555555555555556,1,object_03,1,1419,0,5,7,desert_6,2,memory-2step-stake-s,606,1988016,0.0-19.0-0.0-0.110,AZ2P6DGG5M6SH,3SNR5F7RA597AOC2DOU98SGLOEGIEB,3R6P78PK7ORYPZMY3XO3BMZT6P0TGA,2,1
111,2,object_06,object_05,623.0,3,1,665.70000004768,0.3333333333333333,1,object_03,5,1434,0,3,5,forest_3,2,memory-2step-stake-s,607,1996196,0.0-19.0-0.0-0.111,AZ2P6DGG5M6SH,3SNR5F7RA597AOC2DOU98SGLOEGIEB,3R6P78PK7ORYPZMY3XO3BMZT6P0TGA,3,4
112,4,object_09,object_04,708.5,8,2,531.70000004768,0.2222222222222222,2,object_02,1,1436,0,6,2,restaurant_7,2,memory-2step-stake-s,608,2004145,0.0-19.0-0.0-0.112,AZ2P6DGG5M6SH,3SNR5F7RA597AOC2DOU98SGLOEGIEB,3R6P78PK7ORYPZMY3XO3BMZT6P0TGA,7,8
113,4,object_09,object_04,501.80000007153,7,1,881.29999995232,0.8888888888888888,1,object_03,1,1444,0,8,3,restaurant_4,2,memory-2step-stake-s,609,2013045,0.0-19.0-0.0-0.113,AZ2P6DGG5M6SH,3SNR5F7RA597AOC2DOU98SGLOEGIEB,3R6P78PK7ORYPZMY3XO3BMZT6P0TGA,7,8
114,4,object_09,object_04,1147.2999999523,7,1,952.40000009537,0.7777777777777778,1,object_03,1,1451,0,7,3,restaurant_3,2,memory-2step-stake-s,610,2021913,0.0-19.0-0.0-0.114,AZ2P6DGG5M6SH,3SNR5F7RA597AOC2DOU98SGLOEGIEB,3R6P78PK7ORYPZMY3XO3BMZT6P0TGA,7,8
115,1,object_10,object_07,671.0,1,2,948.5,0.8888888888888888,1,object_03,5,1491,0,8,3,desert_7,2,memory-2step-stake-s,611,2030891,0.0-19.0-0.0-0.115,AZ2P6DGG5M6SH,3SNR5F7RA597AOC2DOU98SGLOEGIEB,3R6P78PK7ORYPZMY3XO3BMZT6P0TGA,2,1
116,2,object_05,object_06,457.70000004768,3,2,385.60000002384,0.7777777777777778,1,object_03,1,1498,0,7,1,forest_8,2,memory-2step-stake-s,612,2039227,0.0-19.0-0.0-0.116,AZ2P6DGG5M6SH,3SNR5F7RA597AOC2DOU98SGLOEGIEB,3R6P78PK7ORYPZMY3XO3BMZT6P0TGA,4,3
117,4,object_04,object_09,615.89999997616,7,2,693.70000004768,1.0,1,object_03,1,1507,0,9,1,restaurant_6,2,memory-2step-stake-s,613,2048042,0.0-19.0-0.0-0.117,AZ2P6DGG5M6SH,3SNR5F7RA597AOC2DOU98SGLOEGIEB,3R6P78PK7ORYPZMY3XO3BMZT6P0TGA,8,7
118,1,object_07,object_10,687.60000002384,1,1,314.10000002384,0.8888888888888888,1,object_03,5,1547,0,8,1,desert_7,2,memory-2step-stake-s,614,2056375,0.0-19.0-0.0-0.118,AZ2P6DGG5M6SH,3SNR5F7RA597AOC2DOU98SGLOEGIEB,3R6P78PK7ORYPZMY3XO3BMZT6P0TGA,1,2
119,1,object_10,object_07,797.29999995232,1,2,424.60000002384,0.7777777777777778,1,object_03,5,1582,0,7,4,desert_6,2,memory-2step-stake-s,615,2064715,0.0-19.0-0.0-0.119,AZ2P6DGG5M6SH,3SNR5F7RA597AOC2DOU98SGLOEGIEB,3R6P78PK7ORYPZMY3XO3BMZT6P0TGA,2,1
120,1,object_07,object_10,507.19999992847,1,1,531.29999995232,1.0,1,object_03,5,1627,0,9,1,desert_1,2,memory-2step-stake-s,616,2073376,0.0-19.0-0.0-0.120,AZ2P6DGG5M6SH,3SNR5F7RA597AOC2DOU98SGLOEGIEB,3R6P78PK7ORYPZMY3XO3BMZT6P0TGA,1,2
121,3,object_08,object_01,561.20000004768,6,1,297.70000004768,0.2222222222222222,2,object_02,1,1629,0,7,2,library_5,2,memory-2step-stake-s,617,2081082,0.0-19.0-0.0-0.121,AZ2P6DGG5M6SH,3SNR5F7RA597AOC2DOU98SGLOEGIEB,3R6P78PK7ORYPZMY3XO3BMZT6P0TGA,6,5
122,4,object_04,object_09,921.70000004768,7,2,356.60000002384,0.7777777777777778,1,object_03,1,1636,0,7,3,restaurant_4,2,memory-2step-stake-s,618,2089355,0.0-19.0-0.0-0.122,AZ2P6DGG5M6SH,3SNR5F7RA597AOC2DOU98SGLOEGIEB,3R6P78PK7ORYPZMY3XO3BMZT6P0TGA,8,7
123,2,object_06,object_05,491.79999995232,3,1,340.10000002384,0.7777777777777778,1,object_03,1,1643,0,7,3,forest_6,2,memory-2step-stake-s,619,2097618,0.0-19.0-0.0-0.123,AZ2P6DGG5M6SH,3SNR5F7RA597AOC2DOU98SGLOEGIEB,3R6P78PK7ORYPZMY3XO3BMZT6P0TGA,3,4
124,4,object_09,object_04,603.29999995232,8,2,472.5,0.2222222222222222,2,object_02,5,1653,0,7,2,restaurant_4,2,memory-2step-stake-s,620,2105502,0.0-19.0-0.0-0.124,AZ2P6DGG5M6SH,3SNR5F7RA597AOC2DOU98SGLOEGIEB,3R6P78PK7ORYPZMY3XO3BMZT6P0TGA,7,8
125,1,object_10,object_07,706.40000009537,1,2,1144.2000000477,0.5555555555555556,1,object_03,5,1678,0,5,1,desert_7,2,memory-2step-stake-s,621,2114361,0.0-19.0-0.0-0.125,AZ2P6DGG5M6SH,3SNR5F7RA597AOC2DOU98SGLOEGIEB,3R6P78PK7ORYPZMY3XO3BMZT6P0TGA,2,1
126,1,object_07,object_10,575.60000002384,1,1,475.70000004768,0.2222222222222222,1,object_03,1,1680,0,2,3,desert_7,2,memory-2step-stake-s,622,2122248,0.0-19.0-0.0-0.126,AZ2P6DGG5M6SH,3SNR5F7RA597AOC2DOU98SGLOEGIEB,3R6P78PK7ORYPZMY3XO3BMZT6P0TGA,1,2
127,1,object_07,object_10,673.29999995232,1,1,833.60000002384,0.2222222222222222,1,object_03,1,1682,0,2,1,desert_6,2,memory-2step-stake-s,623,2130491,0.0-19.0-0.0-0.127,AZ2P6DGG5M6SH,3SNR5F7RA597AOC2DOU98SGLOEGIEB,3R6P78PK7ORYPZMY3XO3BMZT6P0TGA,1,2
128,3,object_01,object_08,585.19999992847,6,2,653.30000007153,0.2222222222222222,2,object_02,1,1684,0,0,2,library_2,2,memory-2step-stake-s,625,2412820,0.0-19.0-0.1-0.128,AZ2P6DGG5M6SH,3SNR5F7RA597AOC2DOU98SGLOEGIEB,3R6P78PK7ORYPZMY3XO3BMZT6P0TGA,5,6
129,2,object_06,object_05,474.0,3,1,373.30000007153,0.0,1,object_03,1,1684,0,0,5,forest_3,2,memory-2step-stake-s,626,2420405,0.0-19.0-0.1-0.129,AZ2P6DGG5M6SH,3SNR5F7RA597AOC2DOU98SGLOEGIEB,3R6P78PK7ORYPZMY3XO3BMZT6P0TGA,3,4
130,3,object_08,object_01,767.79999995232,6,1,311.30000007153,0.6666666666666666,2,object_02,5,1714,0,0,6,library_2,2,memory-2step-stake-s,627,2428536,0.0-19.0-0.1-0.130,AZ2P6DGG5M6SH,3SNR5F7RA597AOC2DOU98SGLOEGIEB,3R6P78PK7ORYPZMY3XO3BMZT6P0TGA,6,5
131,3,object_01,object_08,497.60000002384,6,2,280.89999997616,0.6666666666666666,2,object_02,1,1720,0,1,6,library_7,2,memory-2step-stake-s,628,2436635,0.0-19.0-0.1-0.131,AZ2P6DGG5M6SH,3SNR5F7RA597AOC2DOU98SGLOEGIEB,3R6P78PK7ORYPZMY3XO3BMZT6P0TGA,5,6
132,4,object_04,object_09,612.5,7,2,434.5,0.2222222222222222,1,object_03,1,1722,0,2,5,restaurant_6,2,memory-2step-stake-s,629,2444481,0.0-19.0-0.1-0.132,AZ2P6DGG5M6SH,3SNR5F7RA597AOC2DOU98SGLOEGIEB,3R6P78PK7ORYPZMY3XO3BMZT6P0TGA,8,7
133,3,object_08,object_01,601.39999997616,6,1,530.80000007153,0.4444444444444444,2,object_02,1,1726,0,4,4,library_8,2,memory-2step-stake-s,630,2452626,0.0-19.0-0.1-0.133,AZ2P6DGG5M6SH,3SNR5F7RA597AOC2DOU98SGLOEGIEB,3R6P78PK7ORYPZMY3XO3BMZT6P0TGA,6,5
134,3,object_01,object_08,970.5,6,2,1066.3000000715,0.2222222222222222,2,object_02,1,1728,0,5,2,library_5,2,memory-2step-stake-s,631,2461105,0.0-19.0-0.1-0.134,AZ2P6DGG5M6SH,3SNR5F7RA597AOC2DOU98SGLOEGIEB,3R6P78PK7ORYPZMY3XO3BMZT6P0TGA,5,6
135,1,object_10,object_07,910.20000004768,2,1,522.5,0.6666666666666666,2,object_02,5,1758,0,3,6,desert_6,2,memory-2step-stake-s,632,2469457,0.0-19.0-0.1-0.135,AZ2P6DGG5M6SH,3SNR5F7RA597AOC2DOU98SGLOEGIEB,3R6P78PK7ORYPZMY3XO3BMZT6P0TGA,2,1
136,1,object_07,object_10,649.20000004768,1,1,580.60000002384,0.1111111111111111,1,object_03,5,1763,0,1,8,desert_1,2,memory-2step-stake-s,633,2477348,0.0-19.0-0.1-0.136,AZ2P6DGG5M6SH,3SNR5F7RA597AOC2DOU98SGLOEGIEB,3R6P78PK7ORYPZMY3XO3BMZT6P0TGA,1,2
137,4,object_09,object_04,599.70000004768,8,2,526.79999995232,0.6666666666666666,2,object_02,1,1769,0,3,6,restaurant_7,2,memory-2step-stake-s,634,2485693,0.0-19.0-0.1-0.137,AZ2P6DGG5M6SH,3SNR5F7RA597AOC2DOU98SGLOEGIEB,3R6P78PK7ORYPZMY3XO3BMZT6P0TGA,7,8
138,3,object_01,object_08,592.79999995232,6,2,426.79999995232,0.7777777777777778,2,object_02,5,1804,0,4,7,library_7,2,memory-2step-stake-s,635,2494043,0.0-19.0-0.1-0.138,AZ2P6DGG5M6SH,3SNR5F7RA597AOC2DOU98SGLOEGIEB,3R6P78PK7ORYPZMY3XO3BMZT6P0TGA,5,6
139,4,object_09,object_04,551.5,7,1,395.90000009537,0.6666666666666666,1,object_03,1,1810,0,6,5,restaurant_7,2,memory-2step-stake-s,636,2502252,0.0-19.0-0.1-0.139,AZ2P6DGG5M6SH,3SNR5F7RA597AOC2DOU98SGLOEGIEB,3R6P78PK7ORYPZMY3XO3BMZT6P0TGA,7,8
140,4,object_09,object_04,521.70000004768,8,2,469.10000002384,0.5555555555555556,2,object_02,1,1815,0,7,5,restaurant_6,2,memory-2step-stake-s,637,2510437,0.0-19.0-0.1-0.140,AZ2P6DGG5M6SH,3SNR5F7RA597AOC2DOU98SGLOEGIEB,3R6P78PK7ORYPZMY3XO3BMZT6P0TGA,7,8
141,1,object_07,object_10,538.70000004768,1,1,441.30000007153,0.7777777777777778,1,object_03,5,1850,0,7,3,desert_8,2,memory-2step-stake-s,638,2518792,0.0-19.0-0.1-0.141,AZ2P6DGG5M6SH,3SNR5F7RA597AOC2DOU98SGLOEGIEB,3R6P78PK7ORYPZMY3XO3BMZT6P0TGA,1,2
142,2,object_05,object_06,493.10000002384,3,2,717.29999995232,0.7777777777777778,1,object_03,1,1857,0,7,6,forest_8,2,memory-2step-stake-s,639,2527429,0.0-19.0-0.1-0.142,AZ2P6DGG5M6SH,3SNR5F7RA597AOC2DOU98SGLOEGIEB,3R6P78PK7ORYPZMY3XO3BMZT6P0TGA,4,3
143,4,object_09,object_04,621.90000009537,8,2,597.90000009537,0.6666666666666666,2,object_02,1,1863,0,7,6,restaurant_7,2,memory-2step-stake-s,640,2535844,0.0-19.0-0.1-0.143,AZ2P6DGG5M6SH,3SNR5F7RA597AOC2DOU98SGLOEGIEB,3R6P78PK7ORYPZMY3XO3BMZT6P0TGA,7,8
144,3,object_01,object_08,743.89999997616,5,1,256.29999995232,0.7777777777777778,1,object_03,5,1898,0,7,9,library_8,2,memory-2step-stake-s,641,2544020,0.0-19.0-0.1-0.144,AZ2P6DGG5M6SH,3SNR5F7RA597AOC2DOU98SGLOEGIEB,3R6P78PK7ORYPZMY3XO3BMZT6P0TGA,5,6
145,3,object_08,object_01,697.10000002384,6,1,675.89999997616,0.7777777777777778,2,object_02,1,1905,0,5,7,library_7,2,memory-2step-stake-s,642,2552612,0.0-19.0-0.1-0.145,AZ2P6DGG5M6SH,3SNR5F7RA597AOC2DOU98SGLOEGIEB,3R6P78PK7ORYPZMY3XO3BMZT6P0TGA,6,5
146,4,object_04,object_09,814.60000002384,7,2,526.20000004768,0.5555555555555556,1,object_03,1,1910,0,5,6,restaurant_3,2,memory-2step-stake-s,643,2560858,0.0-19.0-0.1-0.146,AZ2P6DGG5M6SH,3SNR5F7RA597AOC2DOU98SGLOEGIEB,3R6P78PK7ORYPZMY3XO3BMZT6P0TGA,8,7
147,1,object_10,object_07,955.10000002384,1,2,403.89999997616,0.5555555555555556,1,object_03,1,1915,0,5,9,desert_6,2,memory-2step-stake-s,644,2568974,0.0-19.0-0.1-0.147,AZ2P6DGG5M6SH,3SNR5F7RA597AOC2DOU98SGLOEGIEB,3R6P78PK7ORYPZMY3XO3BMZT6P0TGA,2,1
148,4,object_04,object_09,544.39999997616,8,1,656.10000002384,0.8888888888888888,2,object_02,1,1923,0,6,8,restaurant_3,2,memory-2step-stake-s,645,2577647,0.0-19.0-0.1-0.148,AZ2P6DGG5M6SH,3SNR5F7RA597AOC2DOU98SGLOEGIEB,3R6P78PK7ORYPZMY3XO3BMZT6P0TGA,8,7
149,1,object_07,object_10,616.89999997616,1,1,608.60000002384,0.3333333333333333,1,object_03,5,1938,0,3,9,desert_6,2,memory-2step-stake-s,646,2585769,0.0-19.0-0.1-0.149,AZ2P6DGG5M6SH,3SNR5F7RA597AOC2DOU98SGLOEGIEB,3R6P78PK7ORYPZMY3XO3BMZT6P0TGA,1,2
150,2,object_05,object_06,724.90000009537,3,2,983.80000007153,0.2222222222222222,1,object_03,5,1948,0,2,9,forest_6,2,memory-2step-stake-s,647,2594191,0.0-19.0-0.1-0.150,AZ2P6DGG5M6SH,3SNR5F7RA597AOC2DOU98SGLOEGIEB,3R6P78PK7ORYPZMY3XO3BMZT6P0TGA,4,3
151,2,object_05,object_06,499.60000002384,3,2,422.0,0.1111111111111111,1,object_03,5,1953,0,1,8,forest_8,2,memory-2step-stake-s,648,2601932,0.0-19.0-0.1-0.151,AZ2P6DGG5M6SH,3SNR5F7RA597AOC2DOU98SGLOEGIEB,3R6P78PK7ORYPZMY3XO3BMZT6P0TGA,4,3
152,4,object_04,object_09,604.10000002384,8,1,477.20000004768,0.4444444444444444,2,object_02,5,1973,0,2,4,restaurant_7,2,memory-2step-stake-s,649,2610023,0.0-19.0-0.1-0.152,AZ2P6DGG5M6SH,3SNR5F7RA597AOC2DOU98SGLOEGIEB,3R6P78PK7ORYPZMY3XO3BMZT6P0TGA,8,7
153,4,object_04,object_09,536.29999995232,7,2,289.59999990463,0.1111111111111111,1,object_03,1,1974,0,1,4,restaurant_6,2,memory-2step-stake-s,650,2617625,0.0-19.0-0.1-0.153,AZ2P6DGG5M6SH,3SNR5F7RA597AOC2DOU98SGLOEGIEB,3R6P78PK7ORYPZMY3XO3BMZT6P0TGA,8,7
154,4,object_04,object_09,708.20000004768,8,1,294.10000002384,0.8888888888888888,2,object_02,1,1982,0,3,8,restaurant_3,2,memory-2step-stake-s,651,2625937,0.0-19.0-0.1-0.154,AZ2P6DGG5M6SH,3SNR5F7RA597AOC2DOU98SGLOEGIEB,3R6P78PK7ORYPZMY3XO3BMZT6P0TGA,8,7
155,2,object_06,object_05,543.19999992847,3,1,345.29999995232,0.1111111111111111,1,object_03,5,1987,0,1,7,forest_8,2,memory-2step-stake-s,652,2633590,0.0-19.0-0.1-0.155,AZ2P6DGG5M6SH,3SNR5F7RA597AOC2DOU98SGLOEGIEB,3R6P78PK7ORYPZMY3XO3BMZT6P0TGA,3,4
156,3,object_01,object_08,511.30000007153,6,2,-1.0,0.0,2,object_02,1,1987,0,2,5,library_2,2,memory-2step-stake-s,653,2642098,0.0-19.0-0.1-0.156,AZ2P6DGG5M6SH,3SNR5F7RA597AOC2DOU98SGLOEGIEB,3R6P78PK7ORYPZMY3XO3BMZT6P0TGA,5,6
157,3,object_01,object_08,578.0,6,2,448.80000007153,1.0,2,object_02,5,2032,0,5,9,library_5,2,memory-2step-stake-s,654,2650664,0.0-19.0-0.1-0.157,AZ2P6DGG5M6SH,3SNR5F7RA597AOC2DOU98SGLOEGIEB,3R6P78PK7ORYPZMY3XO3BMZT6P0TGA,5,6
158,3,object_08,object_01,503.80000007153,6,1,349.89999997616,1.0,2,object_02,1,2041,0,9,9,library_8,2,memory-2step-stake-s,655,2659138,0.0-19.0-0.1-0.158,AZ2P6DGG5M6SH,3SNR5F7RA597AOC2DOU98SGLOEGIEB,3R6P78PK7ORYPZMY3XO3BMZT6P0TGA,6,5
159,2,object_05,object_06,450.10000002384,3,2,526.20000004768,0.8888888888888888,1,object_03,1,2049,0,8,8,forest_6,2,memory-2step-stake-s,656,2667677,0.0-19.0-0.1-0.159,AZ2P6DGG5M6SH,3SNR5F7RA597AOC2DOU98SGLOEGIEB,3R6P78PK7ORYPZMY3XO3BMZT6P0TGA,4,3
160,2,object_05,object_06,496.5,3,2,345.20000004768,0.4444444444444444,1,object_03,5,2069,0,4,7,forest_8,2,memory-2step-stake-s,657,2675639,0.0-19.0-0.1-0.160,AZ2P6DGG5M6SH,3SNR5F7RA597AOC2DOU98SGLOEGIEB,3R6P78PK7ORYPZMY3XO3BMZT6P0TGA,4,3
161,1,object_07,object_10,574.0,1,1,428.09999990463,0.3333333333333333,1,object_03,5,2084,0,3,8,desert_7,2,memory-2step-stake-s,658,2683578,0.0-19.0-0.1-0.161,AZ2P6DGG5M6SH,3SNR5F7RA597AOC2DOU98SGLOEGIEB,3R6P78PK7ORYPZMY3XO3BMZT6P0TGA,1,2
162,2,object_05,object_06,523.80000007153,3,2,480.10000002384,0.5555555555555556,1,object_03,1,2089,0,5,8,forest_6,2,memory-2step-stake-s,659,2691773,0.0-19.0-0.1-0.162,AZ2P6DGG5M6SH,3SNR5F7RA597AOC2DOU98SGLOEGIEB,3R6P78PK7ORYPZMY3XO3BMZT6P0TGA,4,3
163,4,object_04,object_09,754.10000002384,7,2,337.80000007153,0.7777777777777778,1,object_03,1,2096,0,7,3,restaurant_4,2,memory-2step-stake-s,660,2700029,0.0-19.0-0.1-0.163,AZ2P6DGG5M6SH,3SNR5F7RA597AOC2DOU98SGLOEGIEB,3R6P78PK7ORYPZMY3XO3BMZT6P0TGA,8,7
164,1,object_10,object_07,600.09999990463,1,2,368.20000004768,0.3333333333333333,1,object_03,1,2099,0,3,1,desert_6,2,memory-2step-stake-s,661,2707908,0.0-19.0-0.1-0.164,AZ2P6DGG5M6SH,3SNR5F7RA597AOC2DOU98SGLOEGIEB,3R6P78PK7ORYPZMY3XO3BMZT6P0TGA,2,1
165,1,object_10,object_07,416.0,1,2,565.39999997616,0.0,1,object_03,5,2099,0,0,1,desert_7,2,memory-2step-stake-s,662,2715687,0.0-19.0-0.1-0.165,AZ2P6DGG5M6SH,3SNR5F7RA597AOC2DOU98SGLOEGIEB,3R6P78PK7ORYPZMY3XO3BMZT6P0TGA,2,1
166,4,object_04,object_09,497.30000007153,8,1,443.70000004768,0.1111111111111111,2,object_02,1,2100,0,1,1,restaurant_7,2,memory-2step-stake-s,663,2723442,0.0-19.0-0.1-0.166,AZ2P6DGG5M6SH,3SNR5F7RA597AOC2DOU98SGLOEGIEB,3R6P78PK7ORYPZMY3XO3BMZT6P0TGA,8,7
167,2,object_06,object_05,428.0,4,2,373.20000004768,0.1111111111111111,2,object_02,5,2105,0,7,1,forest_1,2,memory-2step-stake-s,664,2731127,0.0-19.0-0.1-0.167,AZ2P6DGG5M6SH,3SNR5F7RA597AOC2DOU98SGLOEGIEB,3R6P78PK7ORYPZMY3XO3BMZT6P0TGA,3,4
168,2,object_06,object_05,529.29999995232,3,1,586.60000002384,0.4444444444444444,1,object_03,1,2109,0,4,1,forest_6,2,memory-2step-stake-s,665,2739328,0.0-19.0-0.1-0.168,AZ2P6DGG5M6SH,3SNR5F7RA597AOC2DOU98SGLOEGIEB,3R6P78PK7ORYPZMY3XO3BMZT6P0TGA,3,4
169,1,object_07,object_10,513.89999997616,1,1,474.0,0.2222222222222222,1,object_03,5,2119,0,2,0,desert_1,2,memory-2step-stake-s,666,2747216,0.0-19.0-0.1-0.169,AZ2P6DGG5M6SH,3SNR5F7RA597AOC2DOU98SGLOEGIEB,3R6P78PK7ORYPZMY3XO3BMZT6P0TGA,1,2
170,3,object_08,object_01,592.0,6,1,657.29999995232,0.2222222222222222,2,object_02,1,2121,0,4,2,library_2,2,memory-2step-stake-s,667,2755287,0.0-19.0-0.1-0.170,AZ2P6DGG5M6SH,3SNR5F7RA597AOC2DOU98SGLOEGIEB,3R6P78PK7ORYPZMY3XO3BMZT6P0TGA,6,5
171,2,object_05,object_06,554.59999990463,3,2,424.10000002384,0.4444444444444444,1,object_03,5,2141,0,4,3,forest_1,2,memory-2step-stake-s,668,2763331,0.0-19.0-0.1-0.171,AZ2P6DGG5M6SH,3SNR5F7RA597AOC2DOU98SGLOEGIEB,3R6P78PK7ORYPZMY3XO3BMZT6P0TGA,4,3
172,4,object_09,object_04,294.19999992847,7,1,638.0,0.3333333333333333,1,object_03,1,2144,0,3,2,restaurant_7,2,memory-2step-stake-s,669,2771483,0.0-19.0-0.1-0.172,AZ2P6DGG5M6SH,3SNR5F7RA597AOC2DOU98SGLOEGIEB,3R6P78PK7ORYPZMY3XO3BMZT6P0TGA,7,8
173,2,object_06,object_05,396.5,4,2,312.80000007153,0.0,2,object_02,5,2144,0,0,0,forest_1,2,memory-2step-stake-s,670,2779005,0.0-19.0-0.1-0.173,AZ2P6DGG5M6SH,3SNR5F7RA597AOC2DOU98SGLOEGIEB,3R6P78PK7ORYPZMY3XO3BMZT6P0TGA,3,4
174,4,object_04,object_09,305.0,8,1,380.59999990463,0.0,2,object_02,1,2144,0,3,0,restaurant_6,2,memory-2step-stake-s,671,2786594,0.0-19.0-0.1-0.174,AZ2P6DGG5M6SH,3SNR5F7RA597AOC2DOU98SGLOEGIEB,3R6P78PK7ORYPZMY3XO3BMZT6P0TGA,8,7
175,1,object_07,object_10,526.29999995232,1,1,381.70000004768,0.2222222222222222,1,object_03,5,2154,0,2,1,desert_6,2,memory-2step-stake-s,672,2794386,0.0-19.0-0.1-0.175,AZ2P6DGG5M6SH,3SNR5F7RA597AOC2DOU98SGLOEGIEB,3R6P78PK7ORYPZMY3XO3BMZT6P0TGA,1,2
176,4,object_09,object_04,429.0,8,2,448.10000002384,0.3333333333333333,2,object_02,1,2157,0,1,3,restaurant_6,2,memory-2step-stake-s,673,2802347,0.0-19.0-0.1-0.176,AZ2P6DGG5M6SH,3SNR5F7RA597AOC2DOU98SGLOEGIEB,3R6P78PK7ORYPZMY3XO3BMZT6P0TGA,7,8
177,3,object_08,object_01,565.20000004768,6,1,482.10000002384,0.3333333333333333,2,object_02,1,2160,0,1,3,library_2,2,memory-2step-stake-s,674,2810341,0.0-19.0-0.1-0.177,AZ2P6DGG5M6SH,3SNR5F7RA597AOC2DOU98SGLOEGIEB,3R6P78PK7ORYPZMY3XO3BMZT6P0TGA,6,5
178,4,object_04,object_09,544.10000002384,7,2,352.0,0.1111111111111111,1,object_03,1,2161,0,1,3,restaurant_4,2,memory-2step-stake-s,675,2818004,0.0-19.0-0.1-0.178,AZ2P6DGG5M6SH,3SNR5F7RA597AOC2DOU98SGLOEGIEB,3R6P78PK7ORYPZMY3XO3BMZT6P0TGA,8,7
179,1,object_10,object_07,543.80000007153,2,1,507.70000004768,0.2222222222222222,2,object_02,5,2171,0,0,2,desert_8,2,memory-2step-stake-s,676,2825923,0.0-19.0-0.1-0.179,AZ2P6DGG5M6SH,3SNR5F7RA597AOC2DOU98SGLOEGIEB,3R6P78PK7ORYPZMY3XO3BMZT6P0TGA,2,1
180,3,object_01,object_08,523.60000002384,6,2,478.89999997616,0.5555555555555556,2,object_02,1,2176,0,4,5,library_5,2,memory-2step-stake-s,677,2834122,0.0-19.0-0.1-0.180,AZ2P6DGG5M6SH,3SNR5F7RA597AOC2DOU98SGLOEGIEB,3R6P78PK7ORYPZMY3XO3BMZT6P0TGA,5,6
181,2,object_05,object_06,539.39999997616,3,2,615.09999990463,0.2222222222222222,1,object_03,1,2178,0,2,5,forest_1,2,memory-2step-stake-s,678,2842150,0.0-19.0-0.1-0.181,AZ2P6DGG5M6SH,3SNR5F7RA597AOC2DOU98SGLOEGIEB,3R6P78PK7ORYPZMY3XO3BMZT6P0TGA,4,3
182,2,object_06,object_05,599.10000002384,3,1,406.70000004768,0.5555555555555556,1,object_03,5,2203,0,5,3,forest_1,2,memory-2step-stake-s,679,2850272,0.0-19.0-0.1-0.182,AZ2P6DGG5M6SH,3SNR5F7RA597AOC2DOU98SGLOEGIEB,3R6P78PK7ORYPZMY3XO3BMZT6P0TGA,3,4
183,2,object_05,object_06,453.70000004768,3,2,365.20000004768,0.5555555555555556,1,object_03,5,2228,0,5,2,forest_6,2,memory-2step-stake-s,680,2858352,0.0-19.0-0.1-0.183,AZ2P6DGG5M6SH,3SNR5F7RA597AOC2DOU98SGLOEGIEB,3R6P78PK7ORYPZMY3XO3BMZT6P0TGA,4,3
184,1,object_10,object_07,487.10000002384,1,2,403.5,0.3333333333333333,1,object_03,1,2231,0,3,0,desert_6,2,memory-2step-stake-s,681,2866270,0.0-19.0-0.1-0.184,AZ2P6DGG5M6SH,3SNR5F7RA597AOC2DOU98SGLOEGIEB,3R6P78PK7ORYPZMY3XO3BMZT6P0TGA,2,1
185,2,object_06,object_05,483.90000009537,3,1,510.60000002384,0.2222222222222222,1,object_03,5,2241,0,2,1,forest_6,2,memory-2step-stake-s,682,2874193,0.0-19.0-0.1-0.185,AZ2P6DGG5M6SH,3SNR5F7RA597AOC2DOU98SGLOEGIEB,3R6P78PK7ORYPZMY3XO3BMZT6P0TGA,3,4
186,2,object_05,object_06,434.29999995232,3,2,428.29999995232,0.2222222222222222,1,object_03,5,2251,0,2,1,forest_3,2,memory-2step-stake-s,683,2882031,0.0-19.0-0.1-0.186,AZ2P6DGG5M6SH,3SNR5F7RA597AOC2DOU98SGLOEGIEB,3R6P78PK7ORYPZMY3XO3BMZT6P0TGA,4,3
187,4,object_09,object_04,617.5,7,1,489.89999997616,0.1111111111111111,1,object_03,1,2252,0,1,1,restaurant_3,2,memory-2step-stake-s,684,2889833,0.0-19.0-0.1-0.187,AZ2P6DGG5M6SH,3SNR5F7RA597AOC2DOU98SGLOEGIEB,3R6P78PK7ORYPZMY3XO3BMZT6P0TGA,7,8
188,1,object_10,object_07,522.20000004768,1,2,772.20000004768,0.1111111111111111,1,object_03,1,2253,0,1,3,desert_1,2,memory-2step-stake-s,685,2897916,0.0-19.0-0.1-0.188,AZ2P6DGG5M6SH,3SNR5F7RA597AOC2DOU98SGLOEGIEB,3R6P78PK7ORYPZMY3XO3BMZT6P0TGA,2,1
189,4,object_09,object_04,585.5,7,1,283.39999997616,0.1111111111111111,1,object_03,1,2254,0,1,2,restaurant_3,2,memory-2step-stake-s,686,2905510,0.0-19.0-0.1-0.189,AZ2P6DGG5M6SH,3SNR5F7RA597AOC2DOU98SGLOEGIEB,3R6P78PK7ORYPZMY3XO3BMZT6P0TGA,7,8
190,3,object_08,object_01,596.80000007153,6,1,342.5,0.8888888888888888,2,object_02,1,2262,0,1,8,library_7,2,memory-2step-stake-s,687,2913873,0.0-19.0-0.1-0.190,AZ2P6DGG5M6SH,3SNR5F7RA597AOC2DOU98SGLOEGIEB,3R6P78PK7ORYPZMY3XO3BMZT6P0TGA,6,5
191,1,object_07,object_10,589.70000004768,1,1,265.89999997616,0.1111111111111111,1,object_03,5,2267,0,1,5,desert_6,2,memory-2step-stake-s,688,2921450,0.0-19.0-0.1-0.191,AZ2P6DGG5M6SH,3SNR5F7RA597AOC2DOU98SGLOEGIEB,3R6P78PK7ORYPZMY3XO3BMZT6P0TGA,1,2
192,1,object_10,object_07,677.90000009537,2,1,320.70000004768,0.5555555555555556,2,object_02,5,2292,0,1,5,desert_8,2,memory-2step-stake-s,689,2929492,0.0-19.0-0.1-0.192,AZ2P6DGG5M6SH,3SNR5F7RA597AOC2DOU98SGLOEGIEB,3R6P78PK7ORYPZMY3XO3BMZT6P0TGA,2,1
193,4,object_09,object_04,649.29999995232,8,2,376.60000002384,0.5555555555555556,2,object_02,1,2297,0,0,5,restaurant_7,2,memory-2step-stake-s,690,2937587,0.0-19.0-0.1-0.193,AZ2P6DGG5M6SH,3SNR5F7RA597AOC2DOU98SGLOEGIEB,3R6P78PK7ORYPZMY3XO3BMZT6P0TGA,7,8
194,1,object_10,object_07,1137.7999999523,2,1,401.20000004768,0.4444444444444444,2,object_02,5,2317,0,1,4,desert_8,2,memory-2step-stake-s,691,2945602,0.0-19.0-0.1-0.194,AZ2P6DGG5M6SH,3SNR5F7RA597AOC2DOU98SGLOEGIEB,3R6P78PK7ORYPZMY3XO3BMZT6P0TGA,2,1
195,3,object_08,object_01,488.39999997616,6,1,260.0,0.4444444444444444,2,object_02,5,2337,0,1,4,library_8,2,memory-2step-stake-s,692,2953476,0.0-19.0-0.1-0.195,AZ2P6DGG5M6SH,3SNR5F7RA597AOC2DOU98SGLOEGIEB,3R6P78PK7ORYPZMY3XO3BMZT6P0TGA,6,5
196,2,object_05,object_06,613.10000002384,4,1,374.10000002384,0.3333333333333333,2,object_02,1,2340,0,1,3,forest_6,2,memory-2step-stake-s,693,2961368,0.0-19.0-0.1-0.196,AZ2P6DGG5M6SH,3SNR5F7RA597AOC2DOU98SGLOEGIEB,3R6P78PK7ORYPZMY3XO3BMZT6P0TGA,4,3
197,3,object_01,object_08,625.60000002384,5,1,368.5,0.1111111111111111,1,object_03,1,2341,0,1,7,library_7,2,memory-2step-stake-s,694,2969049,0.0-19.0-0.1-0.197,AZ2P6DGG5M6SH,3SNR5F7RA597AOC2DOU98SGLOEGIEB,3R6P78PK7ORYPZMY3XO3BMZT6P0TGA,5,6
198,2,object_05,object_06,526.10000002384,3,2,558.5,0.1111111111111111,1,object_03,1,2342,0,1,8,forest_3,2,memory-2step-stake-s,695,2976918,0.0-19.0-0.1-0.198,AZ2P6DGG5M6SH,3SNR5F7RA597AOC2DOU98SGLOEGIEB,3R6P78PK7ORYPZMY3XO3BMZT6P0TGA,4,3
199,1,object_07,object_10,520.10000002384,1,1,264.20000004768,0.2222222222222222,1,object_03,5,2352,0,2,9,desert_1,2,memory-2step-stake-s,696,2984594,0.0-19.0-0.1-0.199,AZ2P6DGG5M6SH,3SNR5F7RA597AOC2DOU98SGLOEGIEB,3R6P78PK7ORYPZMY3XO3BMZT6P0TGA,1,2
200,2,object_06,object_05,596.69999992847,3,1,368.5,0.1111111111111111,1,object_03,5,2357,0,1,6,forest_1,2,memory-2step-stake-s,697,2992273,0.0-19.0-0.1-0.200,AZ2P6DGG5M6SH,3SNR5F7RA597AOC2DOU98SGLOEGIEB,3R6P78PK7ORYPZMY3XO3BMZT6P0TGA,3,4
201,3,object_08,object_01,588.89999997616,6,1,247.80000007153,0.4444444444444444,2,object_02,1,2361,0,4,4,library_7,2,memory-2step-stake-s,698,3000135,0.0-19.0-0.1-0.201,AZ2P6DGG5M6SH,3SNR5F7RA597AOC2DOU98SGLOEGIEB,3R6P78PK7ORYPZMY3XO3BMZT6P0TGA,6,5
202,2,object_06,object_05,577.20000004768,3,1,217.10000002384,0.3333333333333333,1,object_03,5,2376,0,3,3,forest_8,2,memory-2step-stake-s,699,3007862,0.0-19.0-0.1-0.202,AZ2P6DGG5M6SH,3SNR5F7RA597AOC2DOU98SGLOEGIEB,3R6P78PK7ORYPZMY3XO3BMZT6P0TGA,3,4
203,2,object_05,object_06,534.60000002384,3,2,370.60000002384,0.5555555555555556,1,object_03,1,2381,0,5,7,forest_3,2,memory-2step-stake-s,700,3015948,0.0-19.0-0.1-0.203,AZ2P6DGG5M6SH,3SNR5F7RA597AOC2DOU98SGLOEGIEB,3R6P78PK7ORYPZMY3XO3BMZT6P0TGA,4,3
204,4,object_09,object_04,895.0,8,2,276.90000009537,0.7777777777777778,2,object_02,1,2388,0,1,7,restaurant_3,2,memory-2step-stake-s,701,3024143,0.0-19.0-0.1-0.204,AZ2P6DGG5M6SH,3SNR5F7RA597AOC2DOU98SGLOEGIEB,3R6P78PK7ORYPZMY3XO3BMZT6P0TGA,7,8
205,3,object_01,object_08,741.39999997616,6,2,256.39999997616,0.6666666666666666,2,object_02,1,2394,0,2,6,library_5,2,memory-2step-stake-s,702,3032214,0.0-19.0-0.1-0.205,AZ2P6DGG5M6SH,3SNR5F7RA597AOC2DOU98SGLOEGIEB,3R6P78PK7ORYPZMY3XO3BMZT6P0TGA,5,6
206,1,object_10,object_07,816.10000002384,2,1,287.19999992847,1.0,2,object_02,5,2439,0,1,9,desert_8,2,memory-2step-stake-s,703,3040616,0.0-19.0-0.1-0.206,AZ2P6DGG5M6SH,3SNR5F7RA597AOC2DOU98SGLOEGIEB,3R6P78PK7ORYPZMY3XO3BMZT6P0TGA,2,1
207,2,object_06,object_05,848.10000002384,3,1,285.10000002384,0.5555555555555556,1,object_03,5,2464,0,5,9,forest_3,2,memory-2step-stake-s,704,3048616,0.0-19.0-0.1-0.207,AZ2P6DGG5M6SH,3SNR5F7RA597AOC2DOU98SGLOEGIEB,3R6P78PK7ORYPZMY3XO3BMZT6P0TGA,3,4
208,1,object_10,object_07,588.39999997616,2,1,262.0,0.7777777777777778,2,object_02,5,2499,0,4,7,desert_8,2,memory-2step-stake-s,705,3056807,0.0-19.0-0.1-0.208,AZ2P6DGG5M6SH,3SNR5F7RA597AOC2DOU98SGLOEGIEB,3R6P78PK7ORYPZMY3XO3BMZT6P0TGA,2,1
209,4,object_09,object_04,731.89999997616,7,1,292.79999995232,0.0,1,object_03,1,2499,0,0,7,restaurant_3,2,memory-2step-stake-s,706,3064311,0.0-19.0-0.1-0.209,AZ2P6DGG5M6SH,3SNR5F7RA597AOC2DOU98SGLOEGIEB,3R6P78PK7ORYPZMY3XO3BMZT6P0TGA,7,8
210,1,object_07,object_10,922.20000004768,2,2,299.89999997616,0.4444444444444444,2,object_02,5,2519,0,1,4,desert_7,2,memory-2step-stake-s,707,3072226,0.0-19.0-0.1-0.210,AZ2P6DGG5M6SH,3SNR5F7RA597AOC2DOU98SGLOEGIEB,3R6P78PK7ORYPZMY3XO3BMZT6P0TGA,1,2
211,3,object_01,object_08,876.09999990463,5,1,336.0,0.3333333333333333,1,object_03,1,2522,0,3,2,library_7,2,memory-2step-stake-s,708,3080074,0.0-19.0-0.1-0.211,AZ2P6DGG5M6SH,3SNR5F7RA597AOC2DOU98SGLOEGIEB,3R6P78PK7ORYPZMY3XO3BMZT6P0TGA,5,6
212,4,object_04,object_09,950.10000002384,8,1,270.19999992847,0.0,2,object_02,1,2522,0,1,0,restaurant_7,2,memory-2step-stake-s,709,3087553,0.0-19.0-0.1-0.212,AZ2P6DGG5M6SH,3SNR5F7RA597AOC2DOU98SGLOEGIEB,3R6P78PK7ORYPZMY3XO3BMZT6P0TGA,8,7
213,3,object_08,object_01,895.69999992847,6,1,347.39999997616,0.5555555555555556,2,object_02,1,2527,0,1,5,library_5,2,memory-2step-stake-s,710,3095616,0.0-19.0-0.1-0.213,AZ2P6DGG5M6SH,3SNR5F7RA597AOC2DOU98SGLOEGIEB,3R6P78PK7ORYPZMY3XO3BMZT6P0TGA,6,5
214,1,object_07,object_10,788.10000002384,2,2,344.20000004768,0.5555555555555556,2,object_02,5,2552,0,1,5,desert_8,2,memory-2step-stake-s,711,3103675,0.0-19.0-0.1-0.214,AZ2P6DGG5M6SH,3SNR5F7RA597AOC2DOU98SGLOEGIEB,3R6P78PK7ORYPZMY3XO3BMZT6P0TGA,1,2
215,2,object_05,object_06,830.5,3,2,262.60000002384,0.1111111111111111,1,object_03,5,2557,0,1,4,forest_8,2,memory-2step-stake-s,712,3111248,0.0-19.0-0.1-0.215,AZ2P6DGG5M6SH,3SNR5F7RA597AOC2DOU98SGLOEGIEB,3R6P78PK7ORYPZMY3XO3BMZT6P0TGA,4,3
216,3,object_08,object_01,807.29999995232,5,2,374.70000004768,0.0,1,object_03,1,2557,0,0,3,library_7,2,memory-2step-stake-s,713,3118834,0.0-19.0-0.1-0.216,AZ2P6DGG5M6SH,3SNR5F7RA597AOC2DOU98SGLOEGIEB,3R6P78PK7ORYPZMY3XO3BMZT6P0TGA,6,5
217,3,object_08,object_01,579.40000009537,6,1,286.70000004768,0.7777777777777778,2,object_02,1,2564,0,2,7,library_8,2,memory-2step-stake-s,714,3127049,0.0-19.0-0.1-0.217,AZ2P6DGG5M6SH,3SNR5F7RA597AOC2DOU98SGLOEGIEB,3R6P78PK7ORYPZMY3XO3BMZT6P0TGA,6,5
218,3,object_08,object_01,537.0,6,1,167.5,0.7777777777777778,2,object_02,1,2571,0,2,7,library_5,2,memory-2step-stake-s,715,3135142,0.0-19.0-0.1-0.218,AZ2P6DGG5M6SH,3SNR5F7RA597AOC2DOU98SGLOEGIEB,3R6P78PK7ORYPZMY3XO3BMZT6P0TGA,6,5
219,1,object_10,object_07,811.19999992847,2,1,257.10000002384,0.8888888888888888,2,object_02,5,2611,0,4,8,desert_8,2,memory-2step-stake-s,716,3143417,0.0-19.0-0.1-0.219,AZ2P6DGG5M6SH,3SNR5F7RA597AOC2DOU98SGLOEGIEB,3R6P78PK7ORYPZMY3XO3BMZT6P0TGA,2,1
220,4,object_09,object_04,778.0,8,2,272.60000002384,0.6666666666666666,2,object_02,1,2617,0,4,6,restaurant_3,2,memory-2step-stake-s,717,3151504,0.0-19.0-0.1-0.220,AZ2P6DGG5M6SH,3SNR5F7RA597AOC2DOU98SGLOEGIEB,3R6P78PK7ORYPZMY3XO3BMZT6P0TGA,7,8
221,4,object_04,object_09,608.30000007153,8,1,280.40000009537,0.5555555555555556,2,object_02,1,2622,0,2,5,restaurant_3,2,memory-2step-stake-s,718,3159496,0.0-19.0-0.1-0.221,AZ2P6DGG5M6SH,3SNR5F7RA597AOC2DOU98SGLOEGIEB,3R6P78PK7ORYPZMY3XO3BMZT6P0TGA,8,7
222,3,object_08,object_01,685.89999997616,6,1,317.59999990463,0.6666666666666666,2,object_02,1,2628,0,4,6,library_2,2,memory-2step-stake-s,719,3167630,0.0-19.0-0.1-0.222,AZ2P6DGG5M6SH,3SNR5F7RA597AOC2DOU98SGLOEGIEB,3R6P78PK7ORYPZMY3XO3BMZT6P0TGA,6,5
223,2,object_05,object_06,602.79999995232,3,2,341.60000002384,0.3333333333333333,1,object_03,5,2643,0,3,6,forest_1,2,memory-2step-stake-s,720,3175484,0.0-19.0-0.1-0.223,AZ2P6DGG5M6SH,3SNR5F7RA597AOC2DOU98SGLOEGIEB,3R6P78PK7ORYPZMY3XO3BMZT6P0TGA,4,3
224,1,object_07,object_10,1157.8999999762,2,2,337.10000002384,0.4444444444444444,2,object_02,5,2663,0,0,4,desert_7,2,memory-2step-stake-s,721,3183436,0.0-19.0-0.1-0.224,AZ2P6DGG5M6SH,3SNR5F7RA597AOC2DOU98SGLOEGIEB,3R6P78PK7ORYPZMY3XO3BMZT6P0TGA,1,2
225,2,object_06,object_05,1037.1000000238,3,1,248.79999995232,0.2222222222222222,1,object_03,5,2673,0,2,1,forest_3,2,memory-2step-stake-s,722,3191096,0.0-19.0-0.1-0.225,AZ2P6DGG5M6SH,3SNR5F7RA597AOC2DOU98SGLOEGIEB,3R6P78PK7ORYPZMY3XO3BMZT6P0TGA,3,4
226,1,object_10,object_07,981.60000002384,1,2,286.90000009537,0.1111111111111111,1,object_03,5,2678,0,1,3,desert_1,2,memory-2step-stake-s,723,3198705,0.0-19.0-0.1-0.226,AZ2P6DGG5M6SH,3SNR5F7RA597AOC2DOU98SGLOEGIEB,3R6P78PK7ORYPZMY3XO3BMZT6P0TGA,2,1
227,3,object_01,object_08,841.29999995232,5,1,277.39999997616,0.1111111111111111,1,object_03,1,2679,0,1,2,library_5,2,memory-2step-stake-s,724,3206316,0.0-19.0-0.1-0.227,AZ2P6DGG5M6SH,3SNR5F7RA597AOC2DOU98SGLOEGIEB,3R6P78PK7ORYPZMY3XO3BMZT6P0TGA,5,6
228,3,object_01,object_08,713.79999995232,6,2,485.59999990463,0.4444444444444444,2,object_02,1,2683,0,2,4,library_5,2,memory-2step-stake-s,725,3214417,0.0-19.0-0.1-0.228,AZ2P6DGG5M6SH,3SNR5F7RA597AOC2DOU98SGLOEGIEB,3R6P78PK7ORYPZMY3XO3BMZT6P0TGA,5,6
229,2,object_06,object_05,705.19999992847,3,1,642.39999997616,0.1111111111111111,1,object_03,5,2688,0,1,0,forest_1,2,memory-2step-stake-s,726,3222373,0.0-19.0-0.1-0.229,AZ2P6DGG5M6SH,3SNR5F7RA597AOC2DOU98SGLOEGIEB,3R6P78PK7ORYPZMY3XO3BMZT6P0TGA,3,4
230,4,object_04,object_09,683.60000002384,8,1,333.10000002384,0.5555555555555556,2,object_02,1,2693,0,2,5,restaurant_3,2,memory-2step-stake-s,727,3230429,0.0-19.0-0.1-0.230,AZ2P6DGG5M6SH,3SNR5F7RA597AOC2DOU98SGLOEGIEB,3R6P78PK7ORYPZMY3XO3BMZT6P0TGA,8,7
231,1,object_07,object_10,916.79999995232,2,2,314.69999992847,0.8888888888888888,2,object_02,5,2733,0,4,8,desert_8,2,memory-2step-stake-s,728,3238758,0.0-19.0-0.1-0.231,AZ2P6DGG5M6SH,3SNR5F7RA597AOC2DOU98SGLOEGIEB,3R6P78PK7ORYPZMY3XO3BMZT6P0TGA,1,2
232,3,object_01,object_08,875.90000009537,6,2,376.10000002384,0.7777777777777778,2,object_02,1,2740,0,6,7,library_8,2,memory-2step-stake-s,729,3247051,0.0-19.0-0.1-0.232,AZ2P6DGG5M6SH,3SNR5F7RA597AOC2DOU98SGLOEGIEB,3R6P78PK7ORYPZMY3XO3BMZT6P0TGA,5,6
233,1,object_10,object_07,605.60000002384,2,1,265.89999997616,0.7777777777777778,2,object_02,5,2775,0,4,7,desert_8,2,memory-2step-stake-s,730,3255236,0.0-19.0-0.1-0.233,AZ2P6DGG5M6SH,3SNR5F7RA597AOC2DOU98SGLOEGIEB,3R6P78PK7ORYPZMY3XO3BMZT6P0TGA,2,1
234,2,object_06,object_05,651.0,3,1,358.29999995232,0.4444444444444444,1,object_03,5,2795,0,4,9,forest_3,2,memory-2step-stake-s,731,3263209,0.0-19.0-0.1-0.234,AZ2P6DGG5M6SH,3SNR5F7RA597AOC2DOU98SGLOEGIEB,3R6P78PK7ORYPZMY3XO3BMZT6P0TGA,3,4
235,3,object_01,object_08,610.89999997616,6,2,582.0,1.0,2,object_02,1,2804,0,5,9,library_5,2,memory-2step-stake-s,732,3271909,0.0-19.0-0.1-0.235,AZ2P6DGG5M6SH,3SNR5F7RA597AOC2DOU98SGLOEGIEB,3R6P78PK7ORYPZMY3XO3BMZT6P0TGA,5,6
236,2,object_06,object_05,564.30000007153,3,1,592.20000004768,0.8888888888888888,1,object_03,5,2844,0,8,6,forest_6,2,memory-2step-stake-s,733,3280519,0.0-19.0-0.1-0.236,AZ2P6DGG5M6SH,3SNR5F7RA597AOC2DOU98SGLOEGIEB,3R6P78PK7ORYPZMY3XO3BMZT6P0TGA,3,4
237,4,object_09,object_04,881.39999997616,7,1,280.39999997616,0.6666666666666666,1,object_03,5,2874,0,6,5,restaurant_6,2,memory-2step-stake-s,734,3288615,0.0-19.0-0.1-0.237,AZ2P6DGG5M6SH,3SNR5F7RA597AOC2DOU98SGLOEGIEB,3R6P78PK7ORYPZMY3XO3BMZT6P0TGA,7,8
238,3,object_08,object_01,618.89999997616,6,1,1053.8000000715,0.3333333333333333,2,object_02,1,2877,0,9,3,library_5,2,memory-2step-stake-s,735,3297182,0.0-19.0-0.1-0.238,AZ2P6DGG5M6SH,3SNR5F7RA597AOC2DOU98SGLOEGIEB,3R6P78PK7ORYPZMY3XO3BMZT6P0TGA,6,5
239,1,object_10,object_07,658.10000002384,2,1,336.70000004768,0.0,2,object_02,5,2877,0,7,0,desert_7,2,memory-2step-stake-s,736,3304728,0.0-19.0-0.1-0.239,AZ2P6DGG5M6SH,3SNR5F7RA597AOC2DOU98SGLOEGIEB,3R6P78PK7ORYPZMY3XO3BMZT6P0TGA,2,1
240,4,object_04,object_09,569.89999997616,8,1,298.5,0.1111111111111111,2,object_02,1,2878,0,9,1,restaurant_6,2,memory-2step-stake-s,737,3312348,0.0-19.0-0.1-0.240,AZ2P6DGG5M6SH,3SNR5F7RA597AOC2DOU98SGLOEGIEB,3R6P78PK7ORYPZMY3XO3BMZT6P0TGA,8,7
241,2,object_05,object_06,623.79999995232,3,2,477.39999997616,0.8888888888888888,1,object_03,5,2918,0,8,1,forest_8,2,memory-2step-stake-s,738,3320838,0.0-19.0-0.1-0.241,AZ2P6DGG5M6SH,3SNR5F7RA597AOC2DOU98SGLOEGIEB,3R6P78PK7ORYPZMY3XO3BMZT6P0TGA,4,3
242,2,object_06,object_05,473.90000009537,3,1,499.10000002384,1.0,1,object_03,5,2963,0,9,7,forest_3,2,memory-2step-stake-s,739,3329456,0.0-19.0-0.1-0.242,AZ2P6DGG5M6SH,3SNR5F7RA597AOC2DOU98SGLOEGIEB,3R6P78PK7ORYPZMY3XO3BMZT6P0TGA,3,4
243,3,object_08,object_01,411.70000004768,6,1,566.79999995232,0.6666666666666666,2,object_02,1,2969,0,8,6,library_5,2,memory-2step-stake-s,740,3337842,0.0-19.0-0.1-0.243,AZ2P6DGG5M6SH,3SNR5F7RA597AOC2DOU98SGLOEGIEB,3R6P78PK7ORYPZMY3XO3BMZT6P0TGA,6,5
244,2,object_05,object_06,479.70000004768,3,2,383.10000002384,0.5555555555555556,1,object_03,5,2994,0,5,9,forest_3,2,memory-2step-stake-s,741,3345951,0.0-19.0-0.1-0.244,AZ2P6DGG5M6SH,3SNR5F7RA597AOC2DOU98SGLOEGIEB,3R6P78PK7ORYPZMY3XO3BMZT6P0TGA,4,3
245,4,object_04,object_09,529.10000002384,8,1,445.40000009537,0.8888888888888888,2,object_02,1,3002,0,5,8,restaurant_3,2,memory-2step-stake-s,742,3354412,0.0-19.0-0.1-0.245,AZ2P6DGG5M6SH,3SNR5F7RA597AOC2DOU98SGLOEGIEB,3R6P78PK7ORYPZMY3XO3BMZT6P0TGA,8,7
246,2,object_05,object_06,434.10000002384,3,2,358.0,0.7777777777777778,1,object_03,5,3037,0,7,8,forest_8,2,memory-2step-stake-s,743,3362687,0.0-19.0-0.1-0.246,AZ2P6DGG5M6SH,3SNR5F7RA597AOC2DOU98SGLOEGIEB,3R6P78PK7ORYPZMY3XO3BMZT6P0TGA,4,3
247,2,object_06,object_05,501.30000007153,3,1,548.5,0.5555555555555556,1,object_03,5,3062,0,5,9,forest_1,2,memory-2step-stake-s,744,3370951,0.0-19.0-0.1-0.247,AZ2P6DGG5M6SH,3SNR5F7RA597AOC2DOU98SGLOEGIEB,3R6P78PK7ORYPZMY3XO3BMZT6P0TGA,3,4
248,2,object_05,object_06,378.40000009537,3,2,274.40000009537,1.0,1,object_03,5,3107,0,9,8,forest_1,2,memory-2step-stake-s,745,3379342,0.0-19.0-0.1-0.248,AZ2P6DGG5M6SH,3SNR5F7RA597AOC2DOU98SGLOEGIEB,3R6P78PK7ORYPZMY3XO3BMZT6P0TGA,4,3
249,1,object_10,object_07,665.79999995232,2,1,259.60000002384,0.7777777777777778,2,object_02,1,3114,0,8,7,desert_7,2,memory-2step-stake-s,746,3387525,0.0-19.0-0.1-0.249,AZ2P6DGG5M6SH,3SNR5F7RA597AOC2DOU98SGLOEGIEB,3R6P78PK7ORYPZMY3XO3BMZT6P0TGA,2,1
250,4,object_09,object_04,704.5,8,2,730.60000002384,0.6666666666666666,2,object_02,1,3120,0,5,6,restaurant_4,2,memory-2step-stake-s,747,3396085,0.0-19.0-0.1-0.250,AZ2P6DGG5M6SH,3SNR5F7RA597AOC2DOU98SGLOEGIEB,3R6P78PK7ORYPZMY3XO3BMZT6P0TGA,7,8
251,3,object_01,object_08,608.10000002384,6,2,678.30000007153,0.6666666666666666,2,object_02,1,3126,0,6,6,library_7,2,memory-2step-stake-s,748,3404583,0.0-19.0-0.1-0.251,AZ2P6DGG5M6SH,3SNR5F7RA597AOC2DOU98SGLOEGIEB,3R6P78PK7ORYPZMY3XO3BMZT6P0TGA,5,6
252,4,object_09,object_04,783.29999995232,8,2,723.79999995232,1.0,2,object_02,1,3135,0,8,9,restaurant_4,2,memory-2step-stake-s,749,3413436,0.0-19.0-0.1-0.252,AZ2P6DGG5M6SH,3SNR5F7RA597AOC2DOU98SGLOEGIEB,3R6P78PK7ORYPZMY3XO3BMZT6P0TGA,7,8
253,1,object_10,object_07,812.89999997616,1,2,264.5,0.8888888888888888,1,object_03,5,3175,0,8,8,desert_1,2,memory-2step-stake-s,750,3421720,0.0-19.0-0.1-0.253,AZ2P6DGG5M6SH,3SNR5F7RA597AOC2DOU98SGLOEGIEB,3R6P78PK7ORYPZMY3XO3BMZT6P0TGA,2,1
254,4,object_04,object_09,581.60000002384,8,1,457.30000007153,0.5555555555555556,2,object_02,1,3180,0,7,5,restaurant_7,2,memory-2step-stake-s,751,3429891,0.0-19.0-0.1-0.254,AZ2P6DGG5M6SH,3SNR5F7RA597AOC2DOU98SGLOEGIEB,3R6P78PK7ORYPZMY3XO3BMZT6P0TGA,8,7
255,1,object_10,object_07,642.0,2,1,285.69999992847,0.5555555555555556,2,object_02,5,3205,0,6,5,desert_8,2,memory-2step-stake-s,752,3437889,0.0-19.0-0.1-0.255,AZ2P6DGG5M6SH,3SNR5F7RA597AOC2DOU98SGLOEGIEB,3R6P78PK7ORYPZMY3XO3BMZT6P0TGA,2,1
