,state1,stim_left,stim_right,rt_1,choice1,response1,rt_2,points,state2,stim_state2,stake,score,practice,rews1,rews2,background,high_arm,trial_type,trial_index,time_elapsed,internal_node_id,subid,hitid,assignmentid,stim_left_num,stim_right_num
0,4,object_05,object_08,1345.7000000477,8,2,-1.0,0.0,2,object_06,5,0,0,0,3,restaurant_7,2,memory-2step-stake-s,506,925175,0.0-19.0-0.0-0.0,A39C22RIL0YJ4D,3X4Q1O9UCK2WXV8VOBT8MFKQE0B7O9,3AWETUDC9688721SZDDOIMDQ6YUIZN,7,8
1,3,object_10,object_03,1188.8000000119,5,2,-1.0,0.0,1,object_07,1,0,0,1,5,library_8,2,memory-2step-stake-s,507,933730,0.0-19.0-0.0-0.1,A39C22RIL0YJ4D,3X4Q1O9UCK2WXV8VOBT8MFKQE0B7O9,3AWETUDC9688721SZDDOIMDQ6YUIZN,6,5
2,1,object_09,object_04,403.30000001192,2,2,-1.0,0.0,2,object_06,5,0,0,1,5,desert_7,2,memory-2step-stake-s,508,942304,0.0-19.0-0.0-0.2,A39C22RIL0YJ4D,3X4Q1O9UCK2WXV8VOBT8MFKQE0B7O9,3AWETUDC9688721SZDDOIMDQ6YUIZN,1,2
3,4,object_08,object_05,727.69999998808,8,1,-1.0,0.0,2,object_06,1,0,0,0,3,restaurant_3,2,memory-2step-stake-s,509,950874,0.0-19.0-0.0-0.3,A39C22RIL0YJ4D,3X4Q1O9UCK2WXV8VOBT8MFKQE0B7O9,3AWETUDC9688721SZDDOIMDQ6YUIZN,8,7
4,1,object_04,object_09,25.399999976158,1,2,702.80000001192,0.4444444444444444,1,object_07,1,4,0,4,1,desert_2,2,memory-2step-stake-s,510,959280,0.0-19.0-0.0-0.4,A39C22RIL0YJ4D,3X4Q1O9UCK2WXV8VOBT8MFKQE0B7O9,3AWETUDC9688721SZDDOIMDQ6YUIZN,2,1
5,1,object_09,object_04,57.0,1,1,591.5,0.4444444444444444,1,object_07,5,24,0,4,1,desert_1,2,memory-2step-stake-s,511,967577,0.0-19.0-0.0-0.5,A39C22RIL0YJ4D,3X4Q1O9UCK2WXV8VOBT8MFKQE0B7O9,3AWETUDC9688721SZDDOIMDQ6YUIZN,1,2
6,2,object_01,object_02,8.3999999761581,3,1,554.80000001192,0.5555555555555556,1,object_07,1,29,0,5,1,forest_1,2,memory-2step-stake-s,512,975921,0.0-19.0-0.0-0.6,A39C22RIL0YJ4D,3X4Q1O9UCK2WXV8VOBT8MFKQE0B7O9,3AWETUDC9688721SZDDOIMDQ6YUIZN,3,4
7,2,object_02,object_01,390.69999998808,3,2,279.5,0.7777777777777778,1,object_07,5,64,0,7,0,forest_7,2,memory-2step-stake-s,513,984184,0.0-19.0-0.0-0.7,A39C22RIL0YJ4D,3X4Q1O9UCK2WXV8VOBT8MFKQE0B7O9,3AWETUDC9688721SZDDOIMDQ6YUIZN,4,3
8,3,object_10,object_03,660.69999998808,6,1,353.70000004768,0.0,2,object_06,1,64,0,5,0,library_6,2,memory-2step-stake-s,514,991796,0.0-19.0-0.0-0.8,A39C22RIL0YJ4D,3X4Q1O9UCK2WXV8VOBT8MFKQE0B7O9,3AWETUDC9688721SZDDOIMDQ6YUIZN,6,5
9,4,object_08,object_05,792.69999998808,8,1,523.20000004768,0.1111111111111111,2,object_06,1,65,0,6,1,restaurant_7,2,memory-2step-stake-s,515,999687,0.0-19.0-0.0-0.9,A39C22RIL0YJ4D,3X4Q1O9UCK2WXV8VOBT8MFKQE0B7O9,3AWETUDC9688721SZDDOIMDQ6YUIZN,8,7
10,1,object_04,object_09,657.19999998808,1,2,193.90000003576,0.8888888888888888,1,object_07,1,73,0,8,0,desert_5,2,memory-2step-stake-s,516,1007975,0.0-19.0-0.0-0.10,A39C22RIL0YJ4D,3X4Q1O9UCK2WXV8VOBT8MFKQE0B7O9,3AWETUDC9688721SZDDOIMDQ6YUIZN,2,1
11,3,object_10,object_03,547.70000004768,5,2,312.30000001192,1.0,1,object_07,1,82,0,9,2,library_6,2,memory-2step-stake-s,517,1016494,0.0-19.0-0.0-0.11,A39C22RIL0YJ4D,3X4Q1O9UCK2WXV8VOBT8MFKQE0B7O9,3AWETUDC9688721SZDDOIMDQ6YUIZN,6,5
12,1,object_09,object_04,897.5,1,1,534.5,1.0,1,object_07,5,127,0,9,2,desert_1,2,memory-2step-stake-s,518,1025220,0.0-19.0-0.0-0.12,A39C22RIL0YJ4D,3X4Q1O9UCK2WXV8VOBT8MFKQE0B7O9,3AWETUDC9688721SZDDOIMDQ6YUIZN,1,2
13,3,object_03,object_10,505.0,5,1,532.69999998808,1.0,1,object_07,1,136,0,9,6,library_2,2,memory-2step-stake-s,519,1033955,0.0-19.0-0.0-0.13,A39C22RIL0YJ4D,3X4Q1O9UCK2WXV8VOBT8MFKQE0B7O9,3AWETUDC9688721SZDDOIMDQ6YUIZN,5,6
14,3,object_10,object_03,479.5,5,2,91.400000035763,0.8888888888888888,1,object_07,1,144,0,8,7,library_8,2,memory-2step-stake-s,520,1042182,0.0-19.0-0.0-0.14,A39C22RIL0YJ4D,3X4Q1O9UCK2WXV8VOBT8MFKQE0B7O9,3AWETUDC9688721SZDDOIMDQ6YUIZN,6,5
15,1,object_04,object_09,743.89999997616,1,2,132.90000003576,0.7777777777777778,1,object_07,1,151,0,7,7,desert_2,2,memory-2step-stake-s,521,1050314,0.0-19.0-0.0-0.15,A39C22RIL0YJ4D,3X4Q1O9UCK2WXV8VOBT8MFKQE0B7O9,3AWETUDC9688721SZDDOIMDQ6YUIZN,2,1
16,3,object_03,object_10,458.90000003576,5,1,69.800000011921,1.0,1,object_07,1,160,0,9,5,library_8,2,memory-2step-stake-s,522,1058615,0.0-19.0-0.0-0.16,A39C22RIL0YJ4D,3X4Q1O9UCK2WXV8VOBT8MFKQE0B7O9,3AWETUDC9688721SZDDOIMDQ6YUIZN,5,6
17,3,object_03,object_10,401.80000001192,5,1,48.0,0.7777777777777778,1,object_07,1,167,0,7,6,library_2,2,memory-2step-stake-s,523,1066654,0.0-19.0-0.0-0.17,A39C22RIL0YJ4D,3X4Q1O9UCK2WXV8VOBT8MFKQE0B7O9,3AWETUDC9688721SZDDOIMDQ6YUIZN,5,6
18,4,object_08,object_05,1256.1999999881,8,1,335.80000001192,0.6666666666666666,2,object_06,5,197,0,8,6,restaurant_2,2,memory-2step-stake-s,524,1074867,0.0-19.0-0.0-0.18,A39C22RIL0YJ4D,3X4Q1O9UCK2WXV8VOBT8MFKQE0B7O9,3AWETUDC9688721SZDDOIMDQ6YUIZN,8,7
19,1,object_04,object_09,702.20000004768,1,2,70.0,0.8888888888888888,1,object_07,1,205,0,8,5,desert_7,2,memory-2step-stake-s,525,1083017,0.0-19.0-0.0-0.19,A39C22RIL0YJ4D,3X4Q1O9UCK2WXV8VOBT8MFKQE0B7O9,3AWETUDC9688721SZDDOIMDQ6YUIZN,2,1
20,4,object_05,object_08,894.80000001192,7,1,487.0,0.8888888888888888,1,object_07,1,213,0,8,3,restaurant_7,2,memory-2step-stake-s,526,1091597,0.0-19.0-0.0-0.20,A39C22RIL0YJ4D,3X4Q1O9UCK2WXV8VOBT8MFKQE0B7O9,3AWETUDC9688721SZDDOIMDQ6YUIZN,7,8
21,1,object_09,object_04,644.10000002384,1,1,66.199999988079,0.4444444444444444,1,object_07,5,233,0,4,3,desert_1,2,memory-2step-stake-s,527,1099321,0.0-19.0-0.0-0.21,A39C22RIL0YJ4D,3X4Q1O9UCK2WXV8VOBT8MFKQE0B7O9,3AWETUDC9688721SZDDOIMDQ6YUIZN,1,2
22,1,object_09,object_04,518.10000002384,1,1,246.40000003576,0.4444444444444444,1,object_07,5,253,0,4,5,desert_7,2,memory-2step-stake-s,528,1107271,0.0-19.0-0.0-0.22,A39C22RIL0YJ4D,3X4Q1O9UCK2WXV8VOBT8MFKQE0B7O9,3AWETUDC9688721SZDDOIMDQ6YUIZN,1,2
23,2,object_01,object_02,715.0,3,1,487.09999996424,0.7777777777777778,1,object_07,5,288,0,7,9,forest_1,2,memory-2step-stake-s,529,1115760,0.0-19.0-0.0-0.23,A39C22RIL0YJ4D,3X4Q1O9UCK2WXV8VOBT8MFKQE0B7O9,3AWETUDC9688721SZDDOIMDQ6YUIZN,3,4
24,3,object_03,object_10,941.19999998808,5,1,146.80000001192,0.7777777777777778,1,object_07,1,295,0,7,8,library_5,2,memory-2step-stake-s,530,1123912,0.0-19.0-0.0-0.24,A39C22RIL0YJ4D,3X4Q1O9UCK2WXV8VOBT8MFKQE0B7O9,3AWETUDC9688721SZDDOIMDQ6YUIZN,5,6
25,2,object_02,object_01,639.90000003576,3,2,73.400000035763,0.8888888888888888,1,object_07,1,303,0,8,3,forest_8,2,memory-2step-stake-s,531,1132101,0.0-19.0-0.0-0.25,A39C22RIL0YJ4D,3X4Q1O9UCK2WXV8VOBT8MFKQE0B7O9,3AWETUDC9688721SZDDOIMDQ6YUIZN,4,3
26,4,object_05,object_08,1055.8000000119,7,1,120.40000003576,0.6666666666666666,1,object_07,5,333,0,6,3,restaurant_7,2,memory-2step-stake-s,532,1140111,0.0-19.0-0.0-0.26,A39C22RIL0YJ4D,3X4Q1O9UCK2WXV8VOBT8MFKQE0B7O9,3AWETUDC9688721SZDDOIMDQ6YUIZN,7,8
27,2,object_02,object_01,665.0,3,2,781.20000004768,0.5555555555555556,1,object_07,5,358,0,5,6,forest_1,2,memory-2step-stake-s,533,1148661,0.0-19.0-0.0-0.27,A39C22RIL0YJ4D,3X4Q1O9UCK2WXV8VOBT8MFKQE0B7O9,3AWETUDC9688721SZDDOIMDQ6YUIZN,4,3
28,2,object_02,object_01,563.5,3,2,206.80000001192,0.5555555555555556,1,object_07,5,383,0,5,4,forest_1,2,memory-2step-stake-s,534,1156687,0.0-19.0-0.0-0.28,A39C22RIL0YJ4D,3X4Q1O9UCK2WXV8VOBT8MFKQE0B7O9,3AWETUDC9688721SZDDOIMDQ6YUIZN,4,3
29,1,object_09,object_04,714.19999998808,1,1,89.699999988079,0.2222222222222222,1,object_07,5,393,0,2,3,desert_1,2,memory-2step-stake-s,535,1164245,0.0-19.0-0.0-0.29,A39C22RIL0YJ4D,3X4Q1O9UCK2WXV8VOBT8MFKQE0B7O9,3AWETUDC9688721SZDDOIMDQ6YUIZN,1,2
30,1,object_04,object_09,509.19999998808,1,2,30.599999964237,0.0,1,object_07,5,393,0,0,2,desert_5,2,memory-2step-stake-s,536,1171549,0.0-19.0-0.0-0.30,A39C22RIL0YJ4D,3X4Q1O9UCK2WXV8VOBT8MFKQE0B7O9,3AWETUDC9688721SZDDOIMDQ6YUIZN,2,1
31,3,object_10,object_03,653.39999997616,5,2,706.69999998808,0.2222222222222222,1,object_07,1,395,0,2,4,library_2,2,memory-2step-stake-s,537,1179715,0.0-19.0-0.0-0.31,A39C22RIL0YJ4D,3X4Q1O9UCK2WXV8VOBT8MFKQE0B7O9,3AWETUDC9688721SZDDOIMDQ6YUIZN,6,5
32,2,object_01,object_02,618.70000004768,3,1,73.5,0.0,1,object_07,1,395,0,0,2,forest_7,2,memory-2step-stake-s,538,1187050,0.0-19.0-0.0-0.32,A39C22RIL0YJ4D,3X4Q1O9UCK2WXV8VOBT8MFKQE0B7O9,3AWETUDC9688721SZDDOIMDQ6YUIZN,3,4
33,1,object_09,object_04,710.80000001192,1,1,120.0,0.0,1,object_07,5,395,0,0,2,desert_7,2,memory-2step-stake-s,539,1194446,0.0-19.0-0.0-0.33,A39C22RIL0YJ4D,3X4Q1O9UCK2WXV8VOBT8MFKQE0B7O9,3AWETUDC9688721SZDDOIMDQ6YUIZN,1,2
34,2,object_01,object_02,602.59999996424,3,1,585.80000001192,0.2222222222222222,1,object_07,5,405,0,2,0,forest_8,2,memory-2step-stake-s,540,1202515,0.0-19.0-0.0-0.34,A39C22RIL0YJ4D,3X4Q1O9UCK2WXV8VOBT8MFKQE0B7O9,3AWETUDC9688721SZDDOIMDQ6YUIZN,3,4
35,3,object_03,object_10,570.0,5,1,70.5,0.1111111111111111,1,object_07,1,406,0,1,1,library_5,2,memory-2step-stake-s,541,1209938,0.0-19.0-0.0-0.35,A39C22RIL0YJ4D,3X4Q1O9UCK2WXV8VOBT8MFKQE0B7O9,3AWETUDC9688721SZDDOIMDQ6YUIZN,5,6
36,3,object_10,object_03,671.30000001192,5,2,100.19999998808,0.1111111111111111,1,object_07,5,411,0,1,4,library_6,2,memory-2step-stake-s,542,1217409,0.0-19.0-0.0-0.36,A39C22RIL0YJ4D,3X4Q1O9UCK2WXV8VOBT8MFKQE0B7O9,3AWETUDC9688721SZDDOIMDQ6YUIZN,6,5
37,2,object_01,object_02,645.89999997616,3,1,160.79999995232,0.2222222222222222,1,object_07,5,421,0,2,6,forest_2,2,memory-2step-stake-s,543,1225045,0.0-19.0-0.0-0.37,A39C22RIL0YJ4D,3X4Q1O9UCK2WXV8VOBT8MFKQE0B7O9,3AWETUDC9688721SZDDOIMDQ6YUIZN,3,4
38,4,object_08,object_05,1258.4000000358,7,2,69.700000047684,0.4444444444444444,1,object_07,1,425,0,4,6,restaurant_2,2,memory-2step-stake-s,544,1232812,0.0-19.0-0.0-0.38,A39C22RIL0YJ4D,3X4Q1O9UCK2WXV8VOBT8MFKQE0B7O9,3AWETUDC9688721SZDDOIMDQ6YUIZN,8,7
39,4,object_05,object_08,650.60000002384,7,1,83.800000011921,0.4444444444444444,1,object_07,1,429,0,4,7,restaurant_7,2,memory-2step-stake-s,545,1240595,0.0-19.0-0.0-0.39,A39C22RIL0YJ4D,3X4Q1O9UCK2WXV8VOBT8MFKQE0B7O9,3AWETUDC9688721SZDDOIMDQ6YUIZN,7,8
40,4,object_05,object_08,507.19999998808,7,1,88.700000047684,0.5555555555555556,1,object_07,1,434,0,5,5,restaurant_3,2,memory-2step-stake-s,546,1248492,0.0-19.0-0.0-0.40,A39C22RIL0YJ4D,3X4Q1O9UCK2WXV8VOBT8MFKQE0B7O9,3AWETUDC9688721SZDDOIMDQ6YUIZN,7,8
41,2,object_01,object_02,539.59999996424,3,1,36.399999976158,0.4444444444444444,1,object_07,1,438,0,4,6,forest_2,2,memory-2step-stake-s,547,1256199,0.0-19.0-0.0-0.41,A39C22RIL0YJ4D,3X4Q1O9UCK2WXV8VOBT8MFKQE0B7O9,3AWETUDC9688721SZDDOIMDQ6YUIZN,3,4
42,1,object_04,object_09,568.60000002384,1,2,79.699999988079,0.5555555555555556,1,object_07,5,463,0,5,3,desert_1,2,memory-2step-stake-s,548,1264076,0.0-19.0-0.0-0.42,A39C22RIL0YJ4D,3X4Q1O9UCK2WXV8VOBT8MFKQE0B7O9,3AWETUDC9688721SZDDOIMDQ6YUIZN,2,1
43,1,object_09,object_04,607.0,1,1,32.399999976158,0.7777777777777778,1,object_07,5,498,0,7,4,desert_5,2,memory-2step-stake-s,549,1272114,0.0-19.0-0.0-0.43,A39C22RIL0YJ4D,3X4Q1O9UCK2WXV8VOBT8MFKQE0B7O9,3AWETUDC9688721SZDDOIMDQ6YUIZN,1,2
44,2,object_01,object_02,567.40000003576,3,1,37.0,0.4444444444444444,1,object_07,5,518,0,4,1,forest_8,2,memory-2step-stake-s,550,1279847,0.0-19.0-0.0-0.44,A39C22RIL0YJ4D,3X4Q1O9UCK2WXV8VOBT8MFKQE0B7O9,3AWETUDC9688721SZDDOIMDQ6YUIZN,3,4
45,2,object_02,object_01,534.40000003576,3,2,361.40000003576,0.4444444444444444,1,object_07,5,538,0,4,3,forest_1,2,memory-2step-stake-s,551,1287904,0.0-19.0-0.0-0.45,A39C22RIL0YJ4D,3X4Q1O9UCK2WXV8VOBT8MFKQE0B7O9,3AWETUDC9688721SZDDOIMDQ6YUIZN,4,3
46,1,object_09,object_04,601.0,1,1,277.30000001192,0.6666666666666666,1,object_07,5,568,0,6,4,desert_7,2,memory-2step-stake-s,552,1296081,0.0-19.0-0.0-0.46,A39C22RIL0YJ4D,3X4Q1O9UCK2WXV8VOBT8MFKQE0B7O9,3AWETUDC9688721SZDDOIMDQ6YUIZN,1,2
47,4,object_05,object_08,710.10000002384,7,1,158.40000003576,0.7777777777777778,1,object_07,1,575,0,7,2,restaurant_7,2,memory-2step-stake-s,553,1304224,0.0-19.0-0.0-0.47,A39C22RIL0YJ4D,3X4Q1O9UCK2WXV8VOBT8MFKQE0B7O9,3AWETUDC9688721SZDDOIMDQ6YUIZN,7,8
48,3,object_03,object_10,588.89999997616,5,1,-1.0,0.0,1,object_07,1,575,0,6,6,library_2,2,memory-2step-stake-s,554,1312782,0.0-19.0-0.0-0.48,A39C22RIL0YJ4D,3X4Q1O9UCK2WXV8VOBT8MFKQE0B7O9,3AWETUDC9688721SZDDOIMDQ6YUIZN,5,6
49,2,object_02,object_01,490.0,3,2,382.10000002384,0.4444444444444444,1,object_07,1,579,0,4,2,forest_7,2,memory-2step-stake-s,555,1320840,0.0-19.0-0.0-0.49,A39C22RIL0YJ4D,3X4Q1O9UCK2WXV8VOBT8MFKQE0B7O9,3AWETUDC9688721SZDDOIMDQ6YUIZN,4,3
50,2,object_02,object_01,359.90000003576,3,2,140.10000002384,0.2222222222222222,1,object_07,5,589,0,2,0,forest_2,2,memory-2step-stake-s,556,1328464,0.0-19.0-0.0-0.50,A39C22RIL0YJ4D,3X4Q1O9UCK2WXV8VOBT8MFKQE0B7O9,3AWETUDC9688721SZDDOIMDQ6YUIZN,4,3
51,4,object_05,object_08,606.5,7,1,139.60000002384,0.4444444444444444,1,object_07,1,593,0,4,0,restaurant_3,2,memory-2step-stake-s,557,1336288,0.0-19.0-0.0-0.51,A39C22RIL0YJ4D,3X4Q1O9UCK2WXV8VOBT8MFKQE0B7O9,3AWETUDC9688721SZDDOIMDQ6YUIZN,7,8
52,4,object_08,object_05,570.90000003576,7,2,513.5,0.6666666666666666,1,object_07,1,599,0,6,3,restaurant_2,2,memory-2step-stake-s,558,1344718,0.0-19.0-0.0-0.52,A39C22RIL0YJ4D,3X4Q1O9UCK2WXV8VOBT8MFKQE0B7O9,3AWETUDC9688721SZDDOIMDQ6YUIZN,8,7
53,2,object_02,object_01,575.60000002384,3,2,151.30000001192,0.4444444444444444,1,object_07,5,619,0,4,5,forest_7,2,memory-2step-stake-s,559,1352581,0.0-19.0-0.0-0.53,A39C22RIL0YJ4D,3X4Q1O9UCK2WXV8VOBT8MFKQE0B7O9,3AWETUDC9688721SZDDOIMDQ6YUIZN,4,3
54,3,object_10,object_03,605.5,5,2,329.5,0.4444444444444444,1,object_07,1,623,0,4,3,library_6,2,memory-2step-stake-s,560,1360627,0.0-19.0-0.0-0.54,A39C22RIL0YJ4D,3X4Q1O9UCK2WXV8VOBT8MFKQE0B7O9,3AWETUDC9688721SZDDOIMDQ6YUIZN,6,5
55,4,object_08,object_05,624.90000003576,7,2,117.70000004768,0.2222222222222222,1,object_07,5,633,0,2,3,restaurant_4,2,memory-2step-stake-s,561,1368230,0.0-19.0-0.0-0.55,A39C22RIL0YJ4D,3X4Q1O9UCK2WXV8VOBT8MFKQE0B7O9,3AWETUDC9688721SZDDOIMDQ6YUIZN,8,7
56,2,object_01,object_02,566.69999998808,3,1,96.800000011921,0.3333333333333333,1,object_07,5,648,0,3,4,forest_2,2,memory-2step-stake-s,562,1375919,0.0-19.0-0.0-0.56,A39C22RIL0YJ4D,3X4Q1O9UCK2WXV8VOBT8MFKQE0B7O9,3AWETUDC9688721SZDDOIMDQ6YUIZN,3,4
57,3,object_10,object_03,466.10000002384,5,2,77.399999976158,0.4444444444444444,1,object_07,1,652,0,4,5,library_8,2,memory-2step-stake-s,563,1383680,0.0-19.0-0.0-0.57,A39C22RIL0YJ4D,3X4Q1O9UCK2WXV8VOBT8MFKQE0B7O9,3AWETUDC9688721SZDDOIMDQ6YUIZN,6,5
58,4,object_08,object_05,573.80000001192,7,2,148.59999996424,0.5555555555555556,1,object_07,1,657,0,5,6,restaurant_3,2,memory-2step-stake-s,564,1391622,0.0-19.0-0.0-0.58,A39C22RIL0YJ4D,3X4Q1O9UCK2WXV8VOBT8MFKQE0B7O9,3AWETUDC9688721SZDDOIMDQ6YUIZN,8,7
59,4,object_05,object_08,543.59999996424,7,1,3.1000000238419,0.6666666666666666,1,object_07,1,663,0,6,8,restaurant_3,2,memory-2step-stake-s,565,1399522,0.0-19.0-0.0-0.59,A39C22RIL0YJ4D,3X4Q1O9UCK2WXV8VOBT8MFKQE0B7O9,3AWETUDC9688721SZDDOIMDQ6YUIZN,7,8
60,3,object_03,object_10,564.60000002384,5,1,370.89999997616,0.5555555555555556,1,object_07,1,668,0,5,7,library_2,2,memory-2step-stake-s,566,1407699,0.0-19.0-0.0-0.60,A39C22RIL0YJ4D,3X4Q1O9UCK2WXV8VOBT8MFKQE0B7O9,3AWETUDC9688721SZDDOIMDQ6YUIZN,5,6
61,1,object_04,object_09,537.59999996424,1,2,132.79999995232,0.6666666666666666,1,object_07,1,674,0,6,7,desert_2,2,memory-2step-stake-s,567,1415694,0.0-19.0-0.0-0.61,A39C22RIL0YJ4D,3X4Q1O9UCK2WXV8VOBT8MFKQE0B7O9,3AWETUDC9688721SZDDOIMDQ6YUIZN,2,1
62,2,object_02,object_01,511.0,3,2,545.90000003576,0.3333333333333333,1,object_07,5,689,0,3,4,forest_2,2,memory-2step-stake-s,568,1423838,0.0-19.0-0.0-0.62,A39C22RIL0YJ4D,3X4Q1O9UCK2WXV8VOBT8MFKQE0B7O9,3AWETUDC9688721SZDDOIMDQ6YUIZN,4,3
63,1,object_04,object_09,475.29999995232,1,2,7.5,0.4444444444444444,1,object_07,1,693,0,4,5,desert_7,2,memory-2step-stake-s,569,1431543,0.0-19.0-0.0-0.63,A39C22RIL0YJ4D,3X4Q1O9UCK2WXV8VOBT8MFKQE0B7O9,3AWETUDC9688721SZDDOIMDQ6YUIZN,2,1
64,4,object_08,object_05,486.59999996424,7,2,335.30000001192,0.4444444444444444,1,object_07,1,697,0,4,5,restaurant_3,2,memory-2step-stake-s,570,1439547,0.0-19.0-0.0-0.64,A39C22RIL0YJ4D,3X4Q1O9UCK2WXV8VOBT8MFKQE0B7O9,3AWETUDC9688721SZDDOIMDQ6YUIZN,8,7
65,1,object_04,object_09,494.0,1,2,8.8999999761581,0.5555555555555556,1,object_07,1,702,0,5,5,desert_2,2,memory-2step-stake-s,571,1447372,0.0-19.0-0.0-0.65,A39C22RIL0YJ4D,3X4Q1O9UCK2WXV8VOBT8MFKQE0B7O9,3AWETUDC9688721SZDDOIMDQ6YUIZN,2,1
66,1,object_04,object_09,520.90000003576,1,2,6.4000000357628,0.6666666666666666,1,object_07,5,732,0,6,6,desert_7,2,memory-2step-stake-s,572,1455284,0.0-19.0-0.0-0.66,A39C22RIL0YJ4D,3X4Q1O9UCK2WXV8VOBT8MFKQE0B7O9,3AWETUDC9688721SZDDOIMDQ6YUIZN,2,1
67,2,object_01,object_02,581.5,3,1,62.600000023842,0.7777777777777778,1,object_07,5,767,0,7,8,forest_1,2,memory-2step-stake-s,573,1463384,0.0-19.0-0.0-0.67,A39C22RIL0YJ4D,3X4Q1O9UCK2WXV8VOBT8MFKQE0B7O9,3AWETUDC9688721SZDDOIMDQ6YUIZN,3,4
68,2,object_01,object_02,574.60000002384,3,1,32.5,0.5555555555555556,1,object_07,5,792,0,5,9,forest_8,2,memory-2step-stake-s,574,1471211,0.0-19.0-0.0-0.68,A39C22RIL0YJ4D,3X4Q1O9UCK2WXV8VOBT8MFKQE0B7O9,3AWETUDC9688721SZDDOIMDQ6YUIZN,3,4
69,3,object_03,object_10,528.89999997616,5,1,196.69999998808,0.4444444444444444,1,object_07,1,796,0,4,8,library_8,2,memory-2step-stake-s,575,1479081,0.0-19.0-0.0-0.69,A39C22RIL0YJ4D,3X4Q1O9UCK2WXV8VOBT8MFKQE0B7O9,3AWETUDC9688721SZDDOIMDQ6YUIZN,5,6
70,3,object_03,object_10,479.19999998808,5,1,309.80000001192,0.4444444444444444,1,object_07,1,800,0,4,9,library_8,2,memory-2step-stake-s,576,1487099,0.0-19.0-0.0-0.70,A39C22RIL0YJ4D,3X4Q1O9UCK2WXV8VOBT8MFKQE0B7O9,3AWETUDC9688721SZDDOIMDQ6YUIZN,5,6
71,1,object_09,object_04,533.69999998808,1,1,324.30000001192,0.4444444444444444,1,object_07,5,820,0,4,6,desert_5,2,memory-2step-stake-s,577,1495153,0.0-19.0-0.0-0.71,A39C22RIL0YJ4D,3X4Q1O9UCK2WXV8VOBT8MFKQE0B7O9,3AWETUDC9688721SZDDOIMDQ6YUIZN,1,2
72,1,object_09,object_04,642.0,1,1,18.099999964237,0.4444444444444444,1,object_07,5,840,0,4,4,desert_2,2,memory-2step-stake-s,578,1502870,0.0-19.0-0.0-0.72,A39C22RIL0YJ4D,3X4Q1O9UCK2WXV8VOBT8MFKQE0B7O9,3AWETUDC9688721SZDDOIMDQ6YUIZN,1,2
73,2,object_02,object_01,517.90000003576,3,2,88.0,0.5555555555555556,1,object_07,5,865,0,5,3,forest_1,2,memory-2step-stake-s,579,1510773,0.0-19.0-0.0-0.73,A39C22RIL0YJ4D,3X4Q1O9UCK2WXV8VOBT8MFKQE0B7O9,3AWETUDC9688721SZDDOIMDQ6YUIZN,4,3
74,4,object_08,object_05,438.69999998808,7,2,101.69999998808,0.3333333333333333,1,object_07,1,868,0,3,5,restaurant_7,2,memory-2step-stake-s,580,1518460,0.0-19.0-0.0-0.74,A39C22RIL0YJ4D,3X4Q1O9UCK2WXV8VOBT8MFKQE0B7O9,3AWETUDC9688721SZDDOIMDQ6YUIZN,8,7
75,1,object_09,object_04,629.20000004768,1,1,102.80000001192,0.4444444444444444,1,object_07,1,872,0,4,5,desert_7,2,memory-2step-stake-s,581,1526248,0.0-19.0-0.0-0.75,A39C22RIL0YJ4D,3X4Q1O9UCK2WXV8VOBT8MFKQE0B7O9,3AWETUDC9688721SZDDOIMDQ6YUIZN,1,2
76,1,object_04,object_09,537.30000001192,1,2,534.80000001192,0.4444444444444444,1,object_07,5,892,0,4,8,desert_5,2,memory-2step-stake-s,582,1534466,0.0-19.0-0.0-0.76,A39C22RIL0YJ4D,3X4Q1O9UCK2WXV8VOBT8MFKQE0B7O9,3AWETUDC9688721SZDDOIMDQ6YUIZN,2,1
77,3,object_03,object_10,626.10000002384,5,1,84.099999964237,0.3333333333333333,1,object_07,1,895,0,3,7,library_5,2,memory-2step-stake-s,583,1542120,0.0-19.0-0.0-0.77,A39C22RIL0YJ4D,3X4Q1O9UCK2WXV8VOBT8MFKQE0B7O9,3AWETUDC9688721SZDDOIMDQ6YUIZN,5,6
78,4,object_08,object_05,473.5,7,2,166.39999997616,0.4444444444444444,1,object_07,1,899,0,4,3,restaurant_4,2,memory-2step-stake-s,584,1549974,0.0-19.0-0.0-0.78,A39C22RIL0YJ4D,3X4Q1O9UCK2WXV8VOBT8MFKQE0B7O9,3AWETUDC9688721SZDDOIMDQ6YUIZN,8,7
79,2,object_01,object_02,569.90000003576,3,1,2.5,0.4444444444444444,1,object_07,1,903,0,4,7,forest_7,2,memory-2step-stake-s,585,1557678,0.0-19.0-0.0-0.79,A39C22RIL0YJ4D,3X4Q1O9UCK2WXV8VOBT8MFKQE0B7O9,3AWETUDC9688721SZDDOIMDQ6YUIZN,3,4
80,4,object_08,object_05,502.30000001192,7,2,1060.2000000477,0.4444444444444444,1,object_07,1,907,0,4,7,restaurant_3,2,memory-2step-stake-s,586,1566438,0.0-19.0-0.0-0.80,A39C22RIL0YJ4D,3X4Q1O9UCK2WXV8VOBT8MFKQE0B7O9,3AWETUDC9688721SZDDOIMDQ6YUIZN,8,7
81,1,object_04,object_09,558.40000003576,1,2,139.10000002384,0.5555555555555556,1,object_07,5,932,0,5,7,desert_1,2,memory-2step-stake-s,587,1574411,0.0-19.0-0.0-0.81,A39C22RIL0YJ4D,3X4Q1O9UCK2WXV8VOBT8MFKQE0B7O9,3AWETUDC9688721SZDDOIMDQ6YUIZN,2,1
82,2,object_02,object_01,511.5,3,2,195.20000004768,0.1111111111111111,1,object_07,5,937,0,1,8,forest_7,2,memory-2step-stake-s,588,1581990,0.0-19.0-0.0-0.82,A39C22RIL0YJ4D,3X4Q1O9UCK2WXV8VOBT8MFKQE0B7O9,3AWETUDC9688721SZDDOIMDQ6YUIZN,4,3
83,1,object_04,object_09,521.5,1,2,47.200000047684,0.2222222222222222,1,object_07,5,947,0,2,5,desert_2,2,memory-2step-stake-s,589,1589521,0.0-19.0-0.0-0.83,A39C22RIL0YJ4D,3X4Q1O9UCK2WXV8VOBT8MFKQE0B7O9,3AWETUDC9688721SZDDOIMDQ6YUIZN,2,1
84,4,object_05,object_08,611.89999997616,7,1,158.60000002384,0.1111111111111111,1,object_07,1,948,0,1,8,restaurant_7,2,memory-2step-stake-s,590,1597045,0.0-19.0-0.0-0.84,A39C22RIL0YJ4D,3X4Q1O9UCK2WXV8VOBT8MFKQE0B7O9,3AWETUDC9688721SZDDOIMDQ6YUIZN,7,8
85,4,object_05,object_08,460.59999996424,7,1,3.4000000357628,0.1111111111111111,1,object_07,1,949,0,1,9,restaurant_3,2,memory-2step-stake-s,591,1604409,0.0-19.0-0.0-0.85,A39C22RIL0YJ4D,3X4Q1O9UCK2WXV8VOBT8MFKQE0B7O9,3AWETUDC9688721SZDDOIMDQ6YUIZN,7,8
86,2,object_02,object_01,463.90000003576,3,2,136.5,0.3333333333333333,1,object_07,5,964,0,3,8,forest_2,2,memory-2step-stake-s,592,1612140,0.0-19.0-0.0-0.86,A39C22RIL0YJ4D,3X4Q1O9UCK2WXV8VOBT8MFKQE0B7O9,3AWETUDC9688721SZDDOIMDQ6YUIZN,4,3
87,1,object_09,object_04,493.5,1,1,51.900000035763,0.2222222222222222,1,object_07,1,966,0,2,8,desert_5,2,memory-2step-stake-s,593,1619652,0.0-19.0-0.0-0.87,A39C22RIL0YJ4D,3X4Q1O9UCK2WXV8VOBT8MFKQE0B7O9,3AWETUDC9688721SZDDOIMDQ6YUIZN,1,2
88,3,object_10,object_03,953.0,5,2,76.0,0.3333333333333333,1,object_07,1,969,0,3,9,library_6,2,memory-2step-stake-s,594,1627322,0.0-19.0-0.0-0.88,A39C22RIL0YJ4D,3X4Q1O9UCK2WXV8VOBT8MFKQE0B7O9,3AWETUDC9688721SZDDOIMDQ6YUIZN,6,5
89,4,object_05,object_08,651.19999998808,7,1,38.0,0.3333333333333333,1,object_07,1,972,0,3,8,restaurant_2,2,memory-2step-stake-s,595,1634958,0.0-19.0-0.0-0.89,A39C22RIL0YJ4D,3X4Q1O9UCK2WXV8VOBT8MFKQE0B7O9,3AWETUDC9688721SZDDOIMDQ6YUIZN,7,8
90,1,object_09,object_04,617.5,1,1,16.699999988079,0.6666666666666666,1,object_07,5,1002,0,6,7,desert_2,2,memory-2step-stake-s,596,1642861,0.0-19.0-0.0-0.90,A39C22RIL0YJ4D,3X4Q1O9UCK2WXV8VOBT8MFKQE0B7O9,3AWETUDC9688721SZDDOIMDQ6YUIZN,1,2
91,3,object_03,object_10,718.5,5,1,152.30000001192,0.5555555555555556,1,object_07,1,1007,0,5,5,library_2,2,memory-2step-stake-s,597,1650819,0.0-19.0-0.0-0.91,A39C22RIL0YJ4D,3X4Q1O9UCK2WXV8VOBT8MFKQE0B7O9,3AWETUDC9688721SZDDOIMDQ6YUIZN,5,6
92,2,object_01,object_02,697.0,3,1,88.300000011921,0.1111111111111111,1,object_07,5,1012,0,1,2,forest_2,2,memory-2step-stake-s,598,1658294,0.0-19.0-0.0-0.92,A39C22RIL0YJ4D,3X4Q1O9UCK2WXV8VOBT8MFKQE0B7O9,3AWETUDC9688721SZDDOIMDQ6YUIZN,3,4
93,3,object_10,object_03,515.19999998808,5,2,103.5,0.0,1,object_07,1,1012,0,0,2,library_6,2,memory-2step-stake-s,599,1665683,0.0-19.0-0.0-0.93,A39C22RIL0YJ4D,3X4Q1O9UCK2WXV8VOBT8MFKQE0B7O9,3AWETUDC9688721SZDDOIMDQ6YUIZN,6,5
94,2,object_02,object_01,690.30000001192,3,2,364.29999995232,0.2222222222222222,1,object_07,1,1014,0,2,5,forest_2,2,memory-2step-stake-s,600,1673532,0.0-19.0-0.0-0.94,A39C22RIL0YJ4D,3X4Q1O9UCK2WXV8VOBT8MFKQE0B7O9,3AWETUDC9688721SZDDOIMDQ6YUIZN,4,3
95,3,object_10,object_03,584.29999995232,5,2,26.899999976158,0.5555555555555556,1,object_07,1,1019,0,5,8,library_5,2,memory-2step-stake-s,601,1681377,0.0-19.0-0.0-0.95,A39C22RIL0YJ4D,3X4Q1O9UCK2WXV8VOBT8MFKQE0B7O9,3AWETUDC9688721SZDDOIMDQ6YUIZN,6,5
96,1,object_09,object_04,532.39999997616,1,1,18.699999988079,0.3333333333333333,1,object_07,5,1034,0,3,7,desert_7,2,memory-2step-stake-s,602,1688967,0.0-19.0-0.0-0.96,A39C22RIL0YJ4D,3X4Q1O9UCK2WXV8VOBT8MFKQE0B7O9,3AWETUDC9688721SZDDOIMDQ6YUIZN,1,2
97,3,object_10,object_03,610.0,5,2,137.69999998808,0.4444444444444444,1,object_07,1,1038,0,4,5,library_8,2,memory-2step-stake-s,603,1696773,0.0-19.0-0.0-0.97,A39C22RIL0YJ4D,3X4Q1O9UCK2WXV8VOBT8MFKQE0B7O9,3AWETUDC9688721SZDDOIMDQ6YUIZN,6,5
98,4,object_08,object_05,824.80000001192,7,2,110.30000001192,0.3333333333333333,1,object_07,1,1041,0,3,6,restaurant_4,2,memory-2step-stake-s,604,1704473,0.0-19.0-0.0-0.98,A39C22RIL0YJ4D,3X4Q1O9UCK2WXV8VOBT8MFKQE0B7O9,3AWETUDC9688721SZDDOIMDQ6YUIZN,8,7
99,1,object_04,object_09,498.39999997616,1,2,173.69999998808,0.4444444444444444,1,object_07,5,1061,0,4,4,desert_1,2,memory-2step-stake-s,605,1712359,0.0-19.0-0.0-0.99,A39C22RIL0YJ4D,3X4Q1O9UCK2WXV8VOBT8MFKQE0B7O9,3AWETUDC9688721SZDDOIMDQ6YUIZN,2,1
100,1,object_04,object_09,573.19999998808,1,2,63.399999976158,0.3333333333333333,1,object_07,5,1076,0,3,4,desert_2,2,memory-2step-stake-s,606,1719995,0.0-19.0-0.0-0.100,A39C22RIL0YJ4D,3X4Q1O9UCK2WXV8VOBT8MFKQE0B7O9,3AWETUDC9688721SZDDOIMDQ6YUIZN,2,1
101,4,object_05,object_08,714.80000001192,7,1,159.0,0.4444444444444444,1,object_07,1,1080,0,4,5,restaurant_4,2,memory-2step-stake-s,607,1727835,0.0-19.0-0.0-0.101,A39C22RIL0YJ4D,3X4Q1O9UCK2WXV8VOBT8MFKQE0B7O9,3AWETUDC9688721SZDDOIMDQ6YUIZN,7,8
102,2,object_02,object_01,718.30000001192,3,2,209.79999995232,0.6666666666666666,1,object_07,5,1110,0,6,6,forest_8,2,memory-2step-stake-s,608,1735928,0.0-19.0-0.0-0.102,A39C22RIL0YJ4D,3X4Q1O9UCK2WXV8VOBT8MFKQE0B7O9,3AWETUDC9688721SZDDOIMDQ6YUIZN,4,3
103,4,object_05,object_08,545.19999998808,7,1,469.5,0.5555555555555556,1,object_07,1,1115,0,5,9,restaurant_4,2,memory-2step-stake-s,609,1744192,0.0-19.0-0.0-0.103,A39C22RIL0YJ4D,3X4Q1O9UCK2WXV8VOBT8MFKQE0B7O9,3AWETUDC9688721SZDDOIMDQ6YUIZN,7,8
104,4,object_05,object_08,555.5,7,1,117.20000004768,0.6666666666666666,1,object_07,1,1121,0,6,7,restaurant_3,2,memory-2step-stake-s,610,1752214,0.0-19.0-0.0-0.104,A39C22RIL0YJ4D,3X4Q1O9UCK2WXV8VOBT8MFKQE0B7O9,3AWETUDC9688721SZDDOIMDQ6YUIZN,7,8
105,2,object_01,object_02,558.10000002384,3,1,-1.0,0.0,1,object_07,5,1121,0,7,4,forest_7,2,memory-2step-stake-s,611,1760782,0.0-19.0-0.0-0.105,A39C22RIL0YJ4D,3X4Q1O9UCK2WXV8VOBT8MFKQE0B7O9,3AWETUDC9688721SZDDOIMDQ6YUIZN,3,4
106,1,object_04,object_09,559.09999996424,1,2,864.19999998808,0.5555555555555556,1,object_07,5,1146,0,5,8,desert_2,2,memory-2step-stake-s,612,1769471,0.0-19.0-0.0-0.106,A39C22RIL0YJ4D,3X4Q1O9UCK2WXV8VOBT8MFKQE0B7O9,3AWETUDC9688721SZDDOIMDQ6YUIZN,2,1
107,3,object_03,object_10,551.59999996424,5,1,183.60000002384,0.3333333333333333,1,object_07,1,1149,0,3,6,library_8,2,memory-2step-stake-s,613,1777228,0.0-19.0-0.0-0.107,A39C22RIL0YJ4D,3X4Q1O9UCK2WXV8VOBT8MFKQE0B7O9,3AWETUDC9688721SZDDOIMDQ6YUIZN,5,6
108,2,object_01,object_02,873.0,3,1,17.199999988079,0.5555555555555556,1,object_07,5,1174,0,5,9,forest_8,2,memory-2step-stake-s,614,1785039,0.0-19.0-0.0-0.108,A39C22RIL0YJ4D,3X4Q1O9UCK2WXV8VOBT8MFKQE0B7O9,3AWETUDC9688721SZDDOIMDQ6YUIZN,3,4
109,4,object_05,object_08,515.89999997616,7,1,8.6000000238419,0.3333333333333333,1,object_07,1,1177,0,3,8,restaurant_4,2,memory-2step-stake-s,615,1792632,0.0-19.0-0.0-0.109,A39C22RIL0YJ4D,3X4Q1O9UCK2WXV8VOBT8MFKQE0B7O9,3AWETUDC9688721SZDDOIMDQ6YUIZN,7,8
110,4,object_05,object_08,433.60000002384,7,1,59.299999952316,0.3333333333333333,1,object_07,1,1180,0,3,7,restaurant_3,2,memory-2step-stake-s,616,1800276,0.0-19.0-0.0-0.110,A39C22RIL0YJ4D,3X4Q1O9UCK2WXV8VOBT8MFKQE0B7O9,3AWETUDC9688721SZDDOIMDQ6YUIZN,7,8
111,2,object_01,object_02,464.80000001192,3,1,49.800000011921,0.1111111111111111,1,object_07,5,1185,0,1,6,forest_2,2,memory-2step-stake-s,617,1807687,0.0-19.0-0.0-0.111,A39C22RIL0YJ4D,3X4Q1O9UCK2WXV8VOBT8MFKQE0B7O9,3AWETUDC9688721SZDDOIMDQ6YUIZN,3,4
112,2,object_01,object_02,490.19999998808,3,1,26.400000035763,0.2222222222222222,1,object_07,5,1195,0,2,8,forest_8,2,memory-2step-stake-s,618,1815182,0.0-19.0-0.0-0.112,A39C22RIL0YJ4D,3X4Q1O9UCK2WXV8VOBT8MFKQE0B7O9,3AWETUDC9688721SZDDOIMDQ6YUIZN,3,4
113,3,object_10,object_03,449.5,5,2,475.60000002384,0.4444444444444444,1,object_07,1,1199,0,4,5,library_2,2,memory-2step-stake-s,619,1823342,0.0-19.0-0.0-0.113,A39C22RIL0YJ4D,3X4Q1O9UCK2WXV8VOBT8MFKQE0B7O9,3AWETUDC9688721SZDDOIMDQ6YUIZN,6,5
114,1,object_04,object_09,636.09999996424,1,2,237.19999998808,0.3333333333333333,1,object_07,5,1214,0,3,5,desert_1,2,memory-2step-stake-s,620,1831192,0.0-19.0-0.0-0.114,A39C22RIL0YJ4D,3X4Q1O9UCK2WXV8VOBT8MFKQE0B7O9,3AWETUDC9688721SZDDOIMDQ6YUIZN,2,1
115,2,object_01,object_02,618.19999998808,3,1,70.899999976158,0.3333333333333333,1,object_07,5,1229,0,3,6,forest_1,2,memory-2step-stake-s,621,1838832,0.0-19.0-0.0-0.115,A39C22RIL0YJ4D,3X4Q1O9UCK2WXV8VOBT8MFKQE0B7O9,3AWETUDC9688721SZDDOIMDQ6YUIZN,3,4
116,3,object_03,object_10,535.70000004768,5,1,1229.8000000119,0.5555555555555556,1,object_07,1,1234,0,5,4,library_5,2,memory-2step-stake-s,622,1847865,0.0-19.0-0.0-0.116,A39C22RIL0YJ4D,3X4Q1O9UCK2WXV8VOBT8MFKQE0B7O9,3AWETUDC9688721SZDDOIMDQ6YUIZN,5,6
117,4,object_05,object_08,510.30000001192,7,1,1215.1999999881,0.4444444444444444,1,object_07,5,1254,0,4,3,restaurant_3,2,memory-2step-stake-s,623,1856765,0.0-19.0-0.0-0.117,A39C22RIL0YJ4D,3X4Q1O9UCK2WXV8VOBT8MFKQE0B7O9,3AWETUDC9688721SZDDOIMDQ6YUIZN,7,8
118,3,object_03,object_10,523.69999998808,5,1,8.0999999642372,0.0,1,object_07,5,1254,0,0,4,library_6,2,memory-2step-stake-s,624,1864046,0.0-19.0-0.0-0.118,A39C22RIL0YJ4D,3X4Q1O9UCK2WXV8VOBT8MFKQE0B7O9,3AWETUDC9688721SZDDOIMDQ6YUIZN,5,6
119,3,object_03,object_10,551.10000002384,5,1,37.600000023842,0.1111111111111111,1,object_07,1,1255,0,1,4,library_5,2,memory-2step-stake-s,625,1871457,0.0-19.0-0.0-0.119,A39C22RIL0YJ4D,3X4Q1O9UCK2WXV8VOBT8MFKQE0B7O9,3AWETUDC9688721SZDDOIMDQ6YUIZN,5,6
120,3,object_03,object_10,574.30000001192,5,1,70.0,0.3333333333333333,1,object_07,1,1258,0,3,2,library_6,2,memory-2step-stake-s,626,1879120,0.0-19.0-0.0-0.120,A39C22RIL0YJ4D,3X4Q1O9UCK2WXV8VOBT8MFKQE0B7O9,3AWETUDC9688721SZDDOIMDQ6YUIZN,5,6
121,3,object_10,object_03,545.0,5,2,134.10000002384,0.3333333333333333,1,object_07,5,1273,0,3,3,library_6,2,memory-2step-stake-s,627,1886843,0.0-19.0-0.0-0.121,A39C22RIL0YJ4D,3X4Q1O9UCK2WXV8VOBT8MFKQE0B7O9,3AWETUDC9688721SZDDOIMDQ6YUIZN,6,5
122,2,object_01,object_02,540.89999997616,3,1,58.300000011921,0.6666666666666666,1,object_07,5,1303,0,6,2,forest_2,2,memory-2step-stake-s,628,1894809,0.0-19.0-0.0-0.122,A39C22RIL0YJ4D,3X4Q1O9UCK2WXV8VOBT8MFKQE0B7O9,3AWETUDC9688721SZDDOIMDQ6YUIZN,3,4
123,3,object_10,object_03,670.0,5,2,134.09999996424,0.3333333333333333,1,object_07,1,1306,0,3,2,library_2,2,memory-2step-stake-s,629,1902535,0.0-19.0-0.0-0.123,A39C22RIL0YJ4D,3X4Q1O9UCK2WXV8VOBT8MFKQE0B7O9,3AWETUDC9688721SZDDOIMDQ6YUIZN,6,5
124,1,object_04,object_09,500.5,1,2,429.09999996424,0.3333333333333333,1,object_07,1,1309,0,3,2,desert_1,2,memory-2step-stake-s,630,1910537,0.0-19.0-0.0-0.124,A39C22RIL0YJ4D,3X4Q1O9UCK2WXV8VOBT8MFKQE0B7O9,3AWETUDC9688721SZDDOIMDQ6YUIZN,2,1
125,2,object_01,object_02,572.70000004768,3,1,876.5,0.2222222222222222,1,object_07,5,1319,0,2,3,forest_2,2,memory-2step-stake-s,631,1918884,0.0-19.0-0.0-0.125,A39C22RIL0YJ4D,3X4Q1O9UCK2WXV8VOBT8MFKQE0B7O9,3AWETUDC9688721SZDDOIMDQ6YUIZN,3,4
126,1,object_09,object_04,860.60000002384,1,1,120.59999996424,0.1111111111111111,1,object_07,1,1320,0,1,3,desert_7,2,memory-2step-stake-s,632,1926364,0.0-19.0-0.0-0.126,A39C22RIL0YJ4D,3X4Q1O9UCK2WXV8VOBT8MFKQE0B7O9,3AWETUDC9688721SZDDOIMDQ6YUIZN,1,2
127,2,object_02,object_01,572.80000001192,3,2,390.89999997616,0.4444444444444444,1,object_07,5,1340,0,4,5,forest_1,2,memory-2step-stake-s,633,1934467,0.0-19.0-0.0-0.127,A39C22RIL0YJ4D,3X4Q1O9UCK2WXV8VOBT8MFKQE0B7O9,3AWETUDC9688721SZDDOIMDQ6YUIZN,4,3
128,1,object_04,object_09,575.69999998808,1,2,-1.0,0.0,1,object_07,5,1340,0,5,9,desert_7,2,memory-2step-stake-s,635,1943147,0.0-19.0-0.1-0.128,A39C22RIL0YJ4D,3X4Q1O9UCK2WXV8VOBT8MFKQE0B7O9,3AWETUDC9688721SZDDOIMDQ6YUIZN,2,1
129,2,object_01,object_02,531.40000003576,3,1,97.400000035763,0.5555555555555556,1,object_07,1,1345,0,5,7,forest_2,2,memory-2step-stake-s,636,1951048,0.0-19.0-0.1-0.129,A39C22RIL0YJ4D,3X4Q1O9UCK2WXV8VOBT8MFKQE0B7O9,3AWETUDC9688721SZDDOIMDQ6YUIZN,3,4
130,3,object_10,object_03,587.69999998808,5,2,175.30000001192,0.4444444444444444,1,object_07,1,1349,0,4,9,library_5,2,memory-2step-stake-s,637,1958898,0.0-19.0-0.1-0.130,A39C22RIL0YJ4D,3X4Q1O9UCK2WXV8VOBT8MFKQE0B7O9,3AWETUDC9688721SZDDOIMDQ6YUIZN,6,5
131,3,object_10,object_03,396.60000002384,5,2,-1.0,0.0,1,object_07,1,1349,0,2,9,library_2,2,memory-2step-stake-s,638,1967484,0.0-19.0-0.1-0.131,A39C22RIL0YJ4D,3X4Q1O9UCK2WXV8VOBT8MFKQE0B7O9,3AWETUDC9688721SZDDOIMDQ6YUIZN,6,5
132,2,object_01,object_02,483.19999998808,3,1,67.599999964237,0.4444444444444444,1,object_07,5,1369,0,4,7,forest_2,2,memory-2step-stake-s,639,1975277,0.0-19.0-0.1-0.132,A39C22RIL0YJ4D,3X4Q1O9UCK2WXV8VOBT8MFKQE0B7O9,3AWETUDC9688721SZDDOIMDQ6YUIZN,3,4
133,4,object_05,object_08,733.0,7,1,82.899999976158,0.3333333333333333,1,object_07,1,1372,0,3,7,restaurant_2,2,memory-2step-stake-s,640,1982934,0.0-19.0-0.1-0.133,A39C22RIL0YJ4D,3X4Q1O9UCK2WXV8VOBT8MFKQE0B7O9,3AWETUDC9688721SZDDOIMDQ6YUIZN,7,8
134,1,object_09,object_04,525.30000001192,1,1,30.300000011921,0.5555555555555556,1,object_07,5,1397,0,5,6,desert_2,2,memory-2step-stake-s,641,1990771,0.0-19.0-0.1-0.134,A39C22RIL0YJ4D,3X4Q1O9UCK2WXV8VOBT8MFKQE0B7O9,3AWETUDC9688721SZDDOIMDQ6YUIZN,1,2
135,2,object_02,object_01,517.39999997616,3,2,226.60000002384,0.2222222222222222,1,object_07,5,1407,0,2,2,forest_8,2,memory-2step-stake-s,642,1998482,0.0-19.0-0.1-0.135,A39C22RIL0YJ4D,3X4Q1O9UCK2WXV8VOBT8MFKQE0B7O9,3AWETUDC9688721SZDDOIMDQ6YUIZN,4,3
136,1,object_09,object_04,674.30000001192,1,1,369.89999997616,0.2222222222222222,1,object_07,1,1409,0,2,2,desert_5,2,memory-2step-stake-s,643,2006345,0.0-19.0-0.1-0.136,A39C22RIL0YJ4D,3X4Q1O9UCK2WXV8VOBT8MFKQE0B7O9,3AWETUDC9688721SZDDOIMDQ6YUIZN,1,2
137,4,object_08,object_05,920.30000001192,7,2,108.0,0.4444444444444444,1,object_07,1,1413,0,4,4,restaurant_4,2,memory-2step-stake-s,644,2014176,0.0-19.0-0.1-0.137,A39C22RIL0YJ4D,3X4Q1O9UCK2WXV8VOBT8MFKQE0B7O9,3AWETUDC9688721SZDDOIMDQ6YUIZN,8,7
138,4,object_08,object_05,480.89999997616,7,2,288.30000001192,0.2222222222222222,1,object_07,1,1415,0,2,2,restaurant_4,2,memory-2step-stake-s,645,2021919,0.0-19.0-0.1-0.138,A39C22RIL0YJ4D,3X4Q1O9UCK2WXV8VOBT8MFKQE0B7O9,3AWETUDC9688721SZDDOIMDQ6YUIZN,8,7
139,4,object_05,object_08,519.80000001192,7,1,188.89999997616,0.1111111111111111,1,object_07,1,1416,0,1,2,restaurant_4,2,memory-2step-stake-s,646,2029487,0.0-19.0-0.1-0.139,A39C22RIL0YJ4D,3X4Q1O9UCK2WXV8VOBT8MFKQE0B7O9,3AWETUDC9688721SZDDOIMDQ6YUIZN,7,8
140,3,object_03,object_10,503.39999997616,5,1,438.39999997616,0.0,1,object_07,1,1416,0,0,4,library_6,2,memory-2step-stake-s,647,2037196,0.0-19.0-0.1-0.140,A39C22RIL0YJ4D,3X4Q1O9UCK2WXV8VOBT8MFKQE0B7O9,3AWETUDC9688721SZDDOIMDQ6YUIZN,5,6
141,4,object_05,object_08,451.60000002384,7,1,760.10000002384,0.0,1,object_07,1,1416,0,0,5,restaurant_3,2,memory-2step-stake-s,648,2045254,0.0-19.0-0.1-0.141,A39C22RIL0YJ4D,3X4Q1O9UCK2WXV8VOBT8MFKQE0B7O9,3AWETUDC9688721SZDDOIMDQ6YUIZN,7,8
142,1,object_09,object_04,559.19999998808,1,1,756.5,0.2222222222222222,1,object_07,5,1426,0,2,5,desert_5,2,memory-2step-stake-s,649,2053486,0.0-19.0-0.1-0.142,A39C22RIL0YJ4D,3X4Q1O9UCK2WXV8VOBT8MFKQE0B7O9,3AWETUDC9688721SZDDOIMDQ6YUIZN,1,2
143,3,object_03,object_10,484.09999996424,5,1,1189.1000000238,0.1111111111111111,1,object_07,1,1427,0,1,4,library_2,2,memory-2step-stake-s,650,2062035,0.0-19.0-0.1-0.143,A39C22RIL0YJ4D,3X4Q1O9UCK2WXV8VOBT8MFKQE0B7O9,3AWETUDC9688721SZDDOIMDQ6YUIZN,5,6
144,1,object_04,object_09,674.60000002384,1,2,1293.7999999523,0.2222222222222222,1,object_07,5,1437,0,2,5,desert_7,2,memory-2step-stake-s,651,2070802,0.0-19.0-0.1-0.144,A39C22RIL0YJ4D,3X4Q1O9UCK2WXV8VOBT8MFKQE0B7O9,3AWETUDC9688721SZDDOIMDQ6YUIZN,2,1
145,3,object_10,object_03,472.69999998808,5,2,36.599999964237,0.2222222222222222,1,object_07,1,1439,0,2,3,library_6,2,memory-2step-stake-s,652,2078311,0.0-19.0-0.1-0.145,A39C22RIL0YJ4D,3X4Q1O9UCK2WXV8VOBT8MFKQE0B7O9,3AWETUDC9688721SZDDOIMDQ6YUIZN,6,5
146,1,object_04,object_09,574.60000002384,1,2,90.600000023842,0.1111111111111111,1,object_07,5,1444,0,1,1,desert_1,2,memory-2step-stake-s,653,2085756,0.0-19.0-0.1-0.146,A39C22RIL0YJ4D,3X4Q1O9UCK2WXV8VOBT8MFKQE0B7O9,3AWETUDC9688721SZDDOIMDQ6YUIZN,2,1
147,3,object_10,object_03,610.80000001192,5,2,87.299999952316,0.1111111111111111,1,object_07,1,1445,0,1,1,library_8,2,memory-2step-stake-s,654,2093213,0.0-19.0-0.1-0.147,A39C22RIL0YJ4D,3X4Q1O9UCK2WXV8VOBT8MFKQE0B7O9,3AWETUDC9688721SZDDOIMDQ6YUIZN,6,5
148,2,object_02,object_01,546.30000001192,3,2,400.10000002384,0.4444444444444444,1,object_07,5,1465,0,4,3,forest_8,2,memory-2step-stake-s,655,2101300,0.0-19.0-0.1-0.148,A39C22RIL0YJ4D,3X4Q1O9UCK2WXV8VOBT8MFKQE0B7O9,3AWETUDC9688721SZDDOIMDQ6YUIZN,4,3
149,1,object_09,object_04,1502.1999999881,2,2,459.09999996424,0.0,2,object_06,1,1465,0,5,0,desert_7,2,memory-2step-stake-s,656,2109013,0.0-19.0-0.1-0.149,A39C22RIL0YJ4D,3X4Q1O9UCK2WXV8VOBT8MFKQE0B7O9,3AWETUDC9688721SZDDOIMDQ6YUIZN,1,2
150,3,object_03,object_10,647.40000003576,5,1,223.69999998808,0.7777777777777778,1,object_07,1,1472,0,7,2,library_8,2,memory-2step-stake-s,657,2117223,0.0-19.0-0.1-0.150,A39C22RIL0YJ4D,3X4Q1O9UCK2WXV8VOBT8MFKQE0B7O9,3AWETUDC9688721SZDDOIMDQ6YUIZN,5,6
151,2,object_02,object_01,628.80000001192,3,2,92.100000023842,0.7777777777777778,1,object_07,5,1507,0,7,1,forest_2,2,memory-2step-stake-s,658,2125350,0.0-19.0-0.1-0.151,A39C22RIL0YJ4D,3X4Q1O9UCK2WXV8VOBT8MFKQE0B7O9,3AWETUDC9688721SZDDOIMDQ6YUIZN,4,3
152,4,object_08,object_05,759.69999998808,7,2,11.100000023842,0.8888888888888888,1,object_07,1,1515,0,8,1,restaurant_7,2,memory-2step-stake-s,659,2133465,0.0-19.0-0.1-0.152,A39C22RIL0YJ4D,3X4Q1O9UCK2WXV8VOBT8MFKQE0B7O9,3AWETUDC9688721SZDDOIMDQ6YUIZN,8,7
153,4,object_08,object_05,224.30000001192,7,2,27.699999988079,0.8888888888888888,1,object_07,1,1523,0,8,1,restaurant_2,2,memory-2step-stake-s,660,2141602,0.0-19.0-0.1-0.153,A39C22RIL0YJ4D,3X4Q1O9UCK2WXV8VOBT8MFKQE0B7O9,3AWETUDC9688721SZDDOIMDQ6YUIZN,8,7
154,1,object_09,object_04,684.79999995232,1,1,86.5,0.7777777777777778,1,object_07,5,1558,0,7,2,desert_5,2,memory-2step-stake-s,661,2149678,0.0-19.0-0.1-0.154,A39C22RIL0YJ4D,3X4Q1O9UCK2WXV8VOBT8MFKQE0B7O9,3AWETUDC9688721SZDDOIMDQ6YUIZN,1,2
155,2,object_01,object_02,613.19999998808,3,1,22.899999976158,0.6666666666666666,1,object_07,5,1588,0,6,1,forest_2,2,memory-2step-stake-s,662,2157609,0.0-19.0-0.1-0.155,A39C22RIL0YJ4D,3X4Q1O9UCK2WXV8VOBT8MFKQE0B7O9,3AWETUDC9688721SZDDOIMDQ6YUIZN,3,4
156,1,object_09,object_04,570.0,1,1,42.699999988079,0.4444444444444444,1,object_07,5,1608,0,4,0,desert_7,2,memory-2step-stake-s,663,2165363,0.0-19.0-0.1-0.156,A39C22RIL0YJ4D,3X4Q1O9UCK2WXV8VOBT8MFKQE0B7O9,3AWETUDC9688721SZDDOIMDQ6YUIZN,1,2
157,1,object_04,object_09,495.59999996424,1,2,391.20000004768,0.3333333333333333,1,object_07,5,1623,0,3,1,desert_5,2,memory-2step-stake-s,664,2173340,0.0-19.0-0.1-0.157,A39C22RIL0YJ4D,3X4Q1O9UCK2WXV8VOBT8MFKQE0B7O9,3AWETUDC9688721SZDDOIMDQ6YUIZN,2,1
158,1,object_09,object_04,552.09999996424,1,1,559.5,0.3333333333333333,1,object_07,5,1638,0,3,0,desert_1,2,memory-2step-stake-s,665,2181474,0.0-19.0-0.1-0.158,A39C22RIL0YJ4D,3X4Q1O9UCK2WXV8VOBT8MFKQE0B7O9,3AWETUDC9688721SZDDOIMDQ6YUIZN,1,2
159,3,object_03,object_10,498.79999995232,5,1,116.79999995232,0.3333333333333333,1,object_07,1,1641,0,3,1,library_5,2,memory-2step-stake-s,666,2189166,0.0-19.0-0.1-0.159,A39C22RIL0YJ4D,3X4Q1O9UCK2WXV8VOBT8MFKQE0B7O9,3AWETUDC9688721SZDDOIMDQ6YUIZN,5,6
160,3,object_10,object_03,735.60000002384,5,2,21.599999964237,0.5555555555555556,1,object_07,1,1646,0,5,0,library_2,2,memory-2step-stake-s,667,2196994,0.0-19.0-0.1-0.160,A39C22RIL0YJ4D,3X4Q1O9UCK2WXV8VOBT8MFKQE0B7O9,3AWETUDC9688721SZDDOIMDQ6YUIZN,6,5
161,1,object_09,object_04,541.40000003576,1,1,125.59999996424,0.2222222222222222,1,object_07,5,1656,0,2,3,desert_7,2,memory-2step-stake-s,668,2204588,0.0-19.0-0.1-0.161,A39C22RIL0YJ4D,3X4Q1O9UCK2WXV8VOBT8MFKQE0B7O9,3AWETUDC9688721SZDDOIMDQ6YUIZN,1,2
162,2,object_01,object_02,543.19999998808,3,1,173.90000003576,0.0,1,object_07,5,1656,0,0,4,forest_7,2,memory-2step-stake-s,669,2212034,0.0-19.0-0.1-0.162,A39C22RIL0YJ4D,3X4Q1O9UCK2WXV8VOBT8MFKQE0B7O9,3AWETUDC9688721SZDDOIMDQ6YUIZN,3,4
163,1,object_09,object_04,577.69999998808,1,1,858.59999996424,0.1111111111111111,1,object_07,5,1661,0,1,4,desert_1,2,memory-2step-stake-s,670,2220249,0.0-19.0-0.1-0.163,A39C22RIL0YJ4D,3X4Q1O9UCK2WXV8VOBT8MFKQE0B7O9,3AWETUDC9688721SZDDOIMDQ6YUIZN,1,2
164,3,object_10,object_03,1118.1999999881,5,2,450.69999998808,0.0,1,object_07,1,1661,0,0,6,library_2,2,memory-2step-stake-s,671,2227944,0.0-19.0-0.1-0.164,A39C22RIL0YJ4D,3X4Q1O9UCK2WXV8VOBT8MFKQE0B7O9,3AWETUDC9688721SZDDOIMDQ6YUIZN,6,5
165,4,object_08,object_05,618.30000001192,7,2,166.39999997616,0.0,1,object_07,1,1661,0,0,1,restaurant_2,2,memory-2step-stake-s,672,2235387,0.0-19.0-0.1-0.165,A39C22RIL0YJ4D,3X4Q1O9UCK2WXV8VOBT8MFKQE0B7O9,3AWETUDC9688721SZDDOIMDQ6YUIZN,8,7
166,4,object_05,object_08,545.09999996424,7,1,710.5,0.3333333333333333,1,object_07,1,1664,0,3,0,restaurant_2,2,memory-2step-stake-s,673,2243710,0.0-19.0-0.1-0.166,A39C22RIL0YJ4D,3X4Q1O9UCK2WXV8VOBT8MFKQE0B7O9,3AWETUDC9688721SZDDOIMDQ6YUIZN,7,8
167,4,object_08,object_05,605.79999995232,7,2,392.80000001192,0.0,1,object_07,1,1664,0,0,1,restaurant_7,2,memory-2step-stake-s,674,2251368,0.0-19.0-0.1-0.167,A39C22RIL0YJ4D,3X4Q1O9UCK2WXV8VOBT8MFKQE0B7O9,3AWETUDC9688721SZDDOIMDQ6YUIZN,8,7
168,2,object_02,object_01,726.90000003576,3,2,3.5,0.1111111111111111,1,object_07,5,1669,0,1,1,forest_8,2,memory-2step-stake-s,675,2258747,0.0-19.0-0.1-0.168,A39C22RIL0YJ4D,3X4Q1O9UCK2WXV8VOBT8MFKQE0B7O9,3AWETUDC9688721SZDDOIMDQ6YUIZN,4,3
169,4,object_08,object_05,477.89999997616,7,2,120.80000001192,0.0,1,object_07,1,1669,0,0,2,restaurant_2,2,memory-2step-stake-s,676,2266136,0.0-19.0-0.1-0.169,A39C22RIL0YJ4D,3X4Q1O9UCK2WXV8VOBT8MFKQE0B7O9,3AWETUDC9688721SZDDOIMDQ6YUIZN,8,7
170,4,object_08,object_05,439.0,7,2,815.20000004768,0.2222222222222222,1,object_07,1,1671,0,2,0,restaurant_3,2,memory-2step-stake-s,677,2274440,0.0-19.0-0.1-0.170,A39C22RIL0YJ4D,3X4Q1O9UCK2WXV8VOBT8MFKQE0B7O9,3AWETUDC9688721SZDDOIMDQ6YUIZN,8,7
171,1,object_09,object_04,833.60000002384,1,1,215.69999998808,0.1111111111111111,1,object_07,5,1676,0,1,1,desert_2,2,memory-2step-stake-s,678,2282041,0.0-19.0-0.1-0.171,A39C22RIL0YJ4D,3X4Q1O9UCK2WXV8VOBT8MFKQE0B7O9,3AWETUDC9688721SZDDOIMDQ6YUIZN,1,2
172,4,object_08,object_05,627.69999998808,7,2,162.59999996424,0.0,1,object_07,5,1676,0,0,2,restaurant_7,2,memory-2step-stake-s,679,2289480,0.0-19.0-0.1-0.172,A39C22RIL0YJ4D,3X4Q1O9UCK2WXV8VOBT8MFKQE0B7O9,3AWETUDC9688721SZDDOIMDQ6YUIZN,8,7
173,2,object_01,object_02,549.19999998808,3,1,97.199999988079,0.2222222222222222,1,object_07,5,1686,0,2,3,forest_8,2,memory-2step-stake-s,680,2297069,0.0-19.0-0.1-0.173,A39C22RIL0YJ4D,3X4Q1O9UCK2WXV8VOBT8MFKQE0B7O9,3AWETUDC9688721SZDDOIMDQ6YUIZN,3,4
174,1,object_09,object_04,455.69999998808,1,1,273.0,0.4444444444444444,1,object_07,5,1706,0,4,3,desert_2,2,memory-2step-stake-s,681,2305008,0.0-19.0-0.1-0.174,A39C22RIL0YJ4D,3X4Q1O9UCK2WXV8VOBT8MFKQE0B7O9,3AWETUDC9688721SZDDOIMDQ6YUIZN,1,2
175,3,object_10,object_03,667.69999998808,6,1,282.59999996424,0.4444444444444444,2,object_06,1,1710,0,6,4,library_8,2,memory-2step-stake-s,682,2312957,0.0-19.0-0.1-0.175,A39C22RIL0YJ4D,3X4Q1O9UCK2WXV8VOBT8MFKQE0B7O9,3AWETUDC9688721SZDDOIMDQ6YUIZN,6,5
176,2,object_02,object_01,892.69999998808,3,2,183.5,0.5555555555555556,1,object_07,5,1735,0,5,4,forest_1,2,memory-2step-stake-s,683,2320920,0.0-19.0-0.1-0.176,A39C22RIL0YJ4D,3X4Q1O9UCK2WXV8VOBT8MFKQE0B7O9,3AWETUDC9688721SZDDOIMDQ6YUIZN,4,3
177,1,object_04,object_09,856.09999996424,2,1,141.10000002384,0.5555555555555556,2,object_06,5,1760,0,6,5,desert_5,2,memory-2step-stake-s,684,2328852,0.0-19.0-0.1-0.177,A39C22RIL0YJ4D,3X4Q1O9UCK2WXV8VOBT8MFKQE0B7O9,3AWETUDC9688721SZDDOIMDQ6YUIZN,2,1
178,3,object_10,object_03,558.10000002384,5,2,10.400000035763,0.6666666666666666,1,object_07,1,1766,0,6,4,library_6,2,memory-2step-stake-s,685,2336749,0.0-19.0-0.1-0.178,A39C22RIL0YJ4D,3X4Q1O9UCK2WXV8VOBT8MFKQE0B7O9,3AWETUDC9688721SZDDOIMDQ6YUIZN,6,5
179,4,object_08,object_05,1010.4000000358,7,2,265.0,0.5555555555555556,1,object_07,5,1791,0,5,6,restaurant_2,2,memory-2step-stake-s,686,2344806,0.0-19.0-0.1-0.179,A39C22RIL0YJ4D,3X4Q1O9UCK2WXV8VOBT8MFKQE0B7O9,3AWETUDC9688721SZDDOIMDQ6YUIZN,8,7
180,1,object_09,object_04,577.10000002384,2,2,89.900000035763,0.7777777777777778,2,object_06,5,1826,0,2,7,desert_2,2,memory-2step-stake-s,687,2352916,0.0-19.0-0.1-0.180,A39C22RIL0YJ4D,3X4Q1O9UCK2WXV8VOBT8MFKQE0B7O9,3AWETUDC9688721SZDDOIMDQ6YUIZN,1,2
181,1,object_04,object_09,111.80000001192,1,2,95.300000011921,0.2222222222222222,1,object_07,1,1828,0,2,5,desert_5,2,memory-2step-stake-s,688,2360480,0.0-19.0-0.1-0.181,A39C22RIL0YJ4D,3X4Q1O9UCK2WXV8VOBT8MFKQE0B7O9,3AWETUDC9688721SZDDOIMDQ6YUIZN,2,1
182,3,object_10,object_03,171.89999997616,5,2,98.600000023842,0.2222222222222222,1,object_07,1,1830,0,2,5,library_5,2,memory-2step-stake-s,689,2368039,0.0-19.0-0.1-0.182,A39C22RIL0YJ4D,3X4Q1O9UCK2WXV8VOBT8MFKQE0B7O9,3AWETUDC9688721SZDDOIMDQ6YUIZN,6,5
183,2,object_01,object_02,22.300000011921,3,1,178.40000003576,0.5555555555555556,1,object_07,5,1855,0,5,6,forest_7,2,memory-2step-stake-s,690,2375999,0.0-19.0-0.1-0.183,A39C22RIL0YJ4D,3X4Q1O9UCK2WXV8VOBT8MFKQE0B7O9,3AWETUDC9688721SZDDOIMDQ6YUIZN,3,4
184,2,object_01,object_02,31.0,4,2,360.10000002384,0.7777777777777778,2,object_06,5,1890,0,8,7,forest_1,2,memory-2step-stake-s,691,2384355,0.0-19.0-0.1-0.184,A39C22RIL0YJ4D,3X4Q1O9UCK2WXV8VOBT8MFKQE0B7O9,3AWETUDC9688721SZDDOIMDQ6YUIZN,3,4
185,4,object_08,object_05,61.900000035763,7,2,143.19999998808,1.0,1,object_07,1,1899,0,9,8,restaurant_7,2,memory-2step-stake-s,692,2392732,0.0-19.0-0.1-0.185,A39C22RIL0YJ4D,3X4Q1O9UCK2WXV8VOBT8MFKQE0B7O9,3AWETUDC9688721SZDDOIMDQ6YUIZN,8,7
186,2,object_02,object_01,129.0,4,1,103.70000004768,0.7777777777777778,2,object_06,5,1934,0,8,7,forest_8,2,memory-2step-stake-s,693,2400829,0.0-19.0-0.1-0.186,A39C22RIL0YJ4D,3X4Q1O9UCK2WXV8VOBT8MFKQE0B7O9,3AWETUDC9688721SZDDOIMDQ6YUIZN,4,3
187,3,object_10,object_03,69.599999964237,6,1,16.600000023842,0.8888888888888888,2,object_06,1,1942,0,9,8,library_5,2,memory-2step-stake-s,694,2408945,0.0-19.0-0.1-0.187,A39C22RIL0YJ4D,3X4Q1O9UCK2WXV8VOBT8MFKQE0B7O9,3AWETUDC9688721SZDDOIMDQ6YUIZN,6,5
188,4,object_08,object_05,262.39999997616,7,2,45.699999988079,0.8888888888888888,1,object_07,5,1982,0,8,7,restaurant_4,2,memory-2step-stake-s,695,2417097,0.0-19.0-0.1-0.188,A39C22RIL0YJ4D,3X4Q1O9UCK2WXV8VOBT8MFKQE0B7O9,3AWETUDC9688721SZDDOIMDQ6YUIZN,8,7
189,4,object_05,object_08,82.899999976158,7,1,118.20000004768,0.8888888888888888,1,object_07,1,1990,0,8,7,restaurant_7,2,memory-2step-stake-s,696,2425314,0.0-19.0-0.1-0.189,A39C22RIL0YJ4D,3X4Q1O9UCK2WXV8VOBT8MFKQE0B7O9,3AWETUDC9688721SZDDOIMDQ6YUIZN,7,8
190,4,object_08,object_05,161.39999997616,7,2,160.19999998808,0.7777777777777778,1,object_07,1,1997,0,7,7,restaurant_4,2,memory-2step-stake-s,697,2433477,0.0-19.0-0.1-0.190,A39C22RIL0YJ4D,3X4Q1O9UCK2WXV8VOBT8MFKQE0B7O9,3AWETUDC9688721SZDDOIMDQ6YUIZN,8,7
191,2,object_02,object_01,58.5,4,1,213.30000001192,0.7777777777777778,2,object_06,1,2004,0,9,7,forest_7,2,memory-2step-stake-s,698,2441735,0.0-19.0-0.1-0.191,A39C22RIL0YJ4D,3X4Q1O9UCK2WXV8VOBT8MFKQE0B7O9,3AWETUDC9688721SZDDOIMDQ6YUIZN,4,3
192,3,object_03,object_10,136.19999998808,6,2,105.0,1.0,2,object_06,5,2049,0,6,9,library_6,2,memory-2step-stake-s,699,2450080,0.0-19.0-0.1-0.192,A39C22RIL0YJ4D,3X4Q1O9UCK2WXV8VOBT8MFKQE0B7O9,3AWETUDC9688721SZDDOIMDQ6YUIZN,5,6
193,1,object_09,object_04,111.39999997616,2,2,243.39999997616,0.8888888888888888,2,object_06,5,2089,0,8,8,desert_1,2,memory-2step-stake-s,700,2458424,0.0-19.0-0.1-0.193,A39C22RIL0YJ4D,3X4Q1O9UCK2WXV8VOBT8MFKQE0B7O9,3AWETUDC9688721SZDDOIMDQ6YUIZN,1,2
194,1,object_09,object_04,-1.0,-1,-1,-1.0,0.0,-,0,5,2089,0,8,4,desert_2,2,memory-2step-stake-s,701,2464975,0.0-19.0-0.1-0.194,A39C22RIL0YJ4D,3X4Q1O9UCK2WXV8VOBT8MFKQE0B7O9,3AWETUDC9688721SZDDOIMDQ6YUIZN,1,2
195,2,object_02,object_01,482.69999998808,4,1,125.5,0.1111111111111111,2,object_06,5,2094,0,9,1,forest_1,2,memory-2step-stake-s,702,2472464,0.0-19.0-0.1-0.195,A39C22RIL0YJ4D,3X4Q1O9UCK2WXV8VOBT8MFKQE0B7O9,3AWETUDC9688721SZDDOIMDQ6YUIZN,4,3
196,1,object_04,object_09,34.300000011921,1,2,107.90000003576,0.7777777777777778,1,object_07,5,2129,0,7,1,desert_1,2,memory-2step-stake-s,703,2480575,0.0-19.0-0.1-0.196,A39C22RIL0YJ4D,3X4Q1O9UCK2WXV8VOBT8MFKQE0B7O9,3AWETUDC9688721SZDDOIMDQ6YUIZN,2,1
197,1,object_09,object_04,714.19999998808,2,2,350.19999998808,0.0,2,object_06,1,2129,0,4,0,desert_5,2,memory-2step-stake-s,704,2488420,0.0-19.0-0.1-0.197,A39C22RIL0YJ4D,3X4Q1O9UCK2WXV8VOBT8MFKQE0B7O9,3AWETUDC9688721SZDDOIMDQ6YUIZN,1,2
198,2,object_01,object_02,80.699999988079,4,2,138.80000001192,0.4444444444444444,2,object_06,1,2133,0,5,4,forest_1,2,memory-2step-stake-s,705,2496227,0.0-19.0-0.1-0.198,A39C22RIL0YJ4D,3X4Q1O9UCK2WXV8VOBT8MFKQE0B7O9,3AWETUDC9688721SZDDOIMDQ6YUIZN,3,4
199,2,object_01,object_02,62.199999988079,4,2,33.900000035763,0.4444444444444444,2,object_06,5,2153,0,7,4,forest_1,2,memory-2step-stake-s,706,2503949,0.0-19.0-0.1-0.199,A39C22RIL0YJ4D,3X4Q1O9UCK2WXV8VOBT8MFKQE0B7O9,3AWETUDC9688721SZDDOIMDQ6YUIZN,3,4
200,4,object_05,object_08,139.80000001192,7,1,216.40000003576,0.6666666666666666,1,object_07,1,2159,0,6,4,restaurant_2,2,memory-2step-stake-s,707,2512059,0.0-19.0-0.1-0.200,A39C22RIL0YJ4D,3X4Q1O9UCK2WXV8VOBT8MFKQE0B7O9,3AWETUDC9688721SZDDOIMDQ6YUIZN,7,8
201,3,object_10,object_03,245.80000001192,6,1,23.400000035763,0.0,2,object_06,1,2159,0,6,0,library_6,2,memory-2step-stake-s,708,2519349,0.0-19.0-0.1-0.201,A39C22RIL0YJ4D,3X4Q1O9UCK2WXV8VOBT8MFKQE0B7O9,3AWETUDC9688721SZDDOIMDQ6YUIZN,6,5
202,2,object_02,object_01,441.19999998808,4,1,244.80000001192,0.1111111111111111,2,object_06,5,2164,0,7,1,forest_7,2,memory-2step-stake-s,709,2526940,0.0-19.0-0.1-0.202,A39C22RIL0YJ4D,3X4Q1O9UCK2WXV8VOBT8MFKQE0B7O9,3AWETUDC9688721SZDDOIMDQ6YUIZN,4,3
203,2,object_01,object_02,293.69999998808,3,1,145.70000004768,0.6666666666666666,1,object_07,5,2194,0,6,2,forest_7,2,memory-2step-stake-s,710,2534990,0.0-19.0-0.1-0.203,A39C22RIL0YJ4D,3X4Q1O9UCK2WXV8VOBT8MFKQE0B7O9,3AWETUDC9688721SZDDOIMDQ6YUIZN,3,4
204,1,object_04,object_09,21.5,1,2,848.5,0.4444444444444444,1,object_07,5,2214,0,4,4,desert_5,2,memory-2step-stake-s,711,2543505,0.0-19.0-0.1-0.204,A39C22RIL0YJ4D,3X4Q1O9UCK2WXV8VOBT8MFKQE0B7O9,3AWETUDC9688721SZDDOIMDQ6YUIZN,2,1
205,4,object_08,object_05,109.0,7,2,7.1000000238419,0.7777777777777778,1,object_07,1,2221,0,7,5,restaurant_3,2,memory-2step-stake-s,712,2551500,0.0-19.0-0.1-0.205,A39C22RIL0YJ4D,3X4Q1O9UCK2WXV8VOBT8MFKQE0B7O9,3AWETUDC9688721SZDDOIMDQ6YUIZN,8,7
206,3,object_10,object_03,575.09999996424,5,2,398.19999998808,0.8888888888888888,1,object_07,1,2229,0,8,6,library_5,2,memory-2step-stake-s,713,2560035,0.0-19.0-0.1-0.206,A39C22RIL0YJ4D,3X4Q1O9UCK2WXV8VOBT8MFKQE0B7O9,3AWETUDC9688721SZDDOIMDQ6YUIZN,6,5
207,3,object_03,object_10,446.20000004768,6,2,189.0,0.5555555555555556,2,object_06,5,2254,0,7,5,library_8,2,memory-2step-stake-s,714,2568036,0.0-19.0-0.1-0.207,A39C22RIL0YJ4D,3X4Q1O9UCK2WXV8VOBT8MFKQE0B7O9,3AWETUDC9688721SZDDOIMDQ6YUIZN,5,6
208,2,object_01,object_02,13.599999964237,4,2,636.19999998808,0.2222222222222222,2,object_06,1,2256,0,7,2,forest_8,2,memory-2step-stake-s,715,2576144,0.0-19.0-0.1-0.208,A39C22RIL0YJ4D,3X4Q1O9UCK2WXV8VOBT8MFKQE0B7O9,3AWETUDC9688721SZDDOIMDQ6YUIZN,3,4
209,3,object_03,object_10,353.89999997616,5,1,256.10000002384,0.4444444444444444,1,object_07,1,2260,0,4,4,library_8,2,memory-2step-stake-s,716,2584115,0.0-19.0-0.1-0.209,A39C22RIL0YJ4D,3X4Q1O9UCK2WXV8VOBT8MFKQE0B7O9,3AWETUDC9688721SZDDOIMDQ6YUIZN,5,6
210,2,object_02,object_01,666.30000001192,4,1,373.69999998808,0.5555555555555556,2,object_06,5,2285,0,8,5,forest_7,2,memory-2step-stake-s,717,2592308,0.0-19.0-0.1-0.210,A39C22RIL0YJ4D,3X4Q1O9UCK2WXV8VOBT8MFKQE0B7O9,3AWETUDC9688721SZDDOIMDQ6YUIZN,4,3
211,4,object_05,object_08,224.30000001192,7,1,640.89999997616,0.7777777777777778,1,object_07,1,2292,0,7,2,restaurant_4,2,memory-2step-stake-s,718,2600955,0.0-19.0-0.1-0.211,A39C22RIL0YJ4D,3X4Q1O9UCK2WXV8VOBT8MFKQE0B7O9,3AWETUDC9688721SZDDOIMDQ6YUIZN,7,8
212,3,object_10,object_03,70.700000047684,5,2,151.89999997616,0.8888888888888888,1,object_07,1,2300,0,8,1,library_8,2,memory-2step-stake-s,719,2609227,0.0-19.0-0.1-0.212,A39C22RIL0YJ4D,3X4Q1O9UCK2WXV8VOBT8MFKQE0B7O9,3AWETUDC9688721SZDDOIMDQ6YUIZN,6,5
213,3,object_03,object_10,937.0,6,2,-1.0,0.0,2,object_06,5,2300,0,7,2,library_2,2,memory-2step-stake-s,720,2617794,0.0-19.0-0.1-0.213,A39C22RIL0YJ4D,3X4Q1O9UCK2WXV8VOBT8MFKQE0B7O9,3AWETUDC9688721SZDDOIMDQ6YUIZN,5,6
214,3,object_03,object_10,199.19999998808,5,1,549.30000001192,0.8888888888888888,1,object_07,1,2308,0,8,1,library_2,2,memory-2step-stake-s,721,2626425,0.0-19.0-0.1-0.214,A39C22RIL0YJ4D,3X4Q1O9UCK2WXV8VOBT8MFKQE0B7O9,3AWETUDC9688721SZDDOIMDQ6YUIZN,5,6
215,4,object_08,object_05,97.800000011921,7,2,1225.4000000358,0.7777777777777778,1,object_07,1,2315,0,7,1,restaurant_7,2,memory-2step-stake-s,722,2635668,0.0-19.0-0.1-0.215,A39C22RIL0YJ4D,3X4Q1O9UCK2WXV8VOBT8MFKQE0B7O9,3AWETUDC9688721SZDDOIMDQ6YUIZN,8,7
216,4,object_05,object_08,275.09999996424,7,1,-1.0,0.0,1,object_07,5,2315,0,7,0,restaurant_2,2,memory-2step-stake-s,723,2644248,0.0-19.0-0.1-0.216,A39C22RIL0YJ4D,3X4Q1O9UCK2WXV8VOBT8MFKQE0B7O9,3AWETUDC9688721SZDDOIMDQ6YUIZN,7,8
217,4,object_08,object_05,-1.0,-1,-1,-1.0,0.0,-,0,1,2315,0,4,1,restaurant_4,2,memory-2step-stake-s,724,2650787,0.0-19.0-0.1-0.217,A39C22RIL0YJ4D,3X4Q1O9UCK2WXV8VOBT8MFKQE0B7O9,3AWETUDC9688721SZDDOIMDQ6YUIZN,8,7
218,4,object_08,object_05,216.90000003576,7,2,67.200000047684,0.4444444444444444,1,object_07,1,2319,0,4,0,restaurant_4,2,memory-2step-stake-s,725,2658535,0.0-19.0-0.1-0.218,A39C22RIL0YJ4D,3X4Q1O9UCK2WXV8VOBT8MFKQE0B7O9,3AWETUDC9688721SZDDOIMDQ6YUIZN,8,7
219,2,object_01,object_02,121.69999998808,3,1,156.5,0.1111111111111111,1,object_07,1,2320,0,1,3,forest_7,2,memory-2step-stake-s,726,2666069,0.0-19.0-0.1-0.219,A39C22RIL0YJ4D,3X4Q1O9UCK2WXV8VOBT8MFKQE0B7O9,3AWETUDC9688721SZDDOIMDQ6YUIZN,3,4
220,1,object_04,object_09,236.90000003576,1,2,1290.6999999881,0.1111111111111111,1,object_07,1,2321,0,1,1,desert_5,2,memory-2step-stake-s,727,2674726,0.0-19.0-0.1-0.220,A39C22RIL0YJ4D,3X4Q1O9UCK2WXV8VOBT8MFKQE0B7O9,3AWETUDC9688721SZDDOIMDQ6YUIZN,2,1
221,3,object_10,object_03,403.89999997616,6,1,1278.5,0.1111111111111111,2,object_06,1,2322,0,4,1,library_8,2,memory-2step-stake-s,728,2683377,0.0-19.0-0.1-0.221,A39C22RIL0YJ4D,3X4Q1O9UCK2WXV8VOBT8MFKQE0B7O9,3AWETUDC9688721SZDDOIMDQ6YUIZN,6,5
222,2,object_02,object_01,602.19999998808,3,2,64.300000011921,0.4444444444444444,1,object_07,5,2342,0,4,2,forest_7,2,memory-2step-stake-s,729,2691094,0.0-19.0-0.1-0.222,A39C22RIL0YJ4D,3X4Q1O9UCK2WXV8VOBT8MFKQE0B7O9,3AWETUDC9688721SZDDOIMDQ6YUIZN,4,3
223,4,object_08,object_05,10.5,7,2,226.19999998808,0.3333333333333333,1,object_07,1,2345,0,3,0,restaurant_3,2,memory-2step-stake-s,730,2698907,0.0-19.0-0.1-0.223,A39C22RIL0YJ4D,3X4Q1O9UCK2WXV8VOBT8MFKQE0B7O9,3AWETUDC9688721SZDDOIMDQ6YUIZN,8,7
224,4,object_05,object_08,176.19999998808,7,1,-1.0,0.0,1,object_07,1,2345,0,7,0,restaurant_2,2,memory-2step-stake-s,731,2707454,0.0-19.0-0.1-0.224,A39C22RIL0YJ4D,3X4Q1O9UCK2WXV8VOBT8MFKQE0B7O9,3AWETUDC9688721SZDDOIMDQ6YUIZN,7,8
225,1,object_09,object_04,765.19999998808,2,2,136.09999996424,0.2222222222222222,2,object_06,5,2355,0,8,2,desert_5,2,memory-2step-stake-s,732,2715079,0.0-19.0-0.1-0.225,A39C22RIL0YJ4D,3X4Q1O9UCK2WXV8VOBT8MFKQE0B7O9,3AWETUDC9688721SZDDOIMDQ6YUIZN,1,2
226,2,object_02,object_01,0.30000001192093,4,1,121.39999997616,0.0,2,object_06,5,2355,0,8,0,forest_2,2,memory-2step-stake-s,733,2722467,0.0-19.0-0.1-0.226,A39C22RIL0YJ4D,3X4Q1O9UCK2WXV8VOBT8MFKQE0B7O9,3AWETUDC9688721SZDDOIMDQ6YUIZN,4,3
227,3,object_10,object_03,138.0,5,2,310.20000004768,0.6666666666666666,1,object_07,1,2361,0,6,0,library_5,2,memory-2step-stake-s,734,2730683,0.0-19.0-0.1-0.227,A39C22RIL0YJ4D,3X4Q1O9UCK2WXV8VOBT8MFKQE0B7O9,3AWETUDC9688721SZDDOIMDQ6YUIZN,6,5
228,4,object_05,object_08,165.80000001192,7,1,1458.7999999523,0.6666666666666666,1,object_07,1,2367,0,6,2,restaurant_4,2,memory-2step-stake-s,735,2740033,0.0-19.0-0.1-0.228,A39C22RIL0YJ4D,3X4Q1O9UCK2WXV8VOBT8MFKQE0B7O9,3AWETUDC9688721SZDDOIMDQ6YUIZN,7,8
229,4,object_05,object_08,231.10000002384,8,2,530.20000004768,0.1111111111111111,2,object_06,1,2368,0,8,1,restaurant_2,2,memory-2step-stake-s,736,2747940,0.0-19.0-0.1-0.229,A39C22RIL0YJ4D,3X4Q1O9UCK2WXV8VOBT8MFKQE0B7O9,3AWETUDC9688721SZDDOIMDQ6YUIZN,7,8
230,3,object_10,object_03,293.80000001192,6,1,850.69999998808,0.1111111111111111,2,object_06,5,2373,0,7,1,library_5,2,memory-2step-stake-s,737,2756157,0.0-19.0-0.1-0.230,A39C22RIL0YJ4D,3X4Q1O9UCK2WXV8VOBT8MFKQE0B7O9,3AWETUDC9688721SZDDOIMDQ6YUIZN,6,5
231,2,object_02,object_01,1.5999999642372,3,2,992.60000002384,0.8888888888888888,1,object_07,1,2381,0,8,2,forest_8,2,memory-2step-stake-s,738,2765254,0.0-19.0-0.1-0.231,A39C22RIL0YJ4D,3X4Q1O9UCK2WXV8VOBT8MFKQE0B7O9,3AWETUDC9688721SZDDOIMDQ6YUIZN,4,3
232,2,object_02,object_01,1480.4000000358,3,2,211.0,0.6666666666666666,1,object_07,5,2411,0,6,0,forest_7,2,memory-2step-stake-s,739,2773337,0.0-19.0-0.1-0.232,A39C22RIL0YJ4D,3X4Q1O9UCK2WXV8VOBT8MFKQE0B7O9,3AWETUDC9688721SZDDOIMDQ6YUIZN,4,3
233,4,object_08,object_05,126.0,8,1,12.0,0.2222222222222222,2,object_06,1,2413,0,5,2,restaurant_4,2,memory-2step-stake-s,740,2780829,0.0-19.0-0.1-0.233,A39C22RIL0YJ4D,3X4Q1O9UCK2WXV8VOBT8MFKQE0B7O9,3AWETUDC9688721SZDDOIMDQ6YUIZN,8,7
234,3,object_10,object_03,28.0,6,1,500.60000002384,0.3333333333333333,2,object_06,1,2416,0,8,3,library_6,2,memory-2step-stake-s,741,2788903,0.0-19.0-0.1-0.234,A39C22RIL0YJ4D,3X4Q1O9UCK2WXV8VOBT8MFKQE0B7O9,3AWETUDC9688721SZDDOIMDQ6YUIZN,6,5
235,1,object_09,object_04,695.59999996424,1,1,159.40000003576,1.0,1,object_07,5,2461,0,9,7,desert_7,2,memory-2step-stake-s,742,2797268,0.0-19.0-0.1-0.235,A39C22RIL0YJ4D,3X4Q1O9UCK2WXV8VOBT8MFKQE0B7O9,3AWETUDC9688721SZDDOIMDQ6YUIZN,1,2
236,4,object_08,object_05,119.0,7,2,396.10000002384,0.6666666666666666,1,object_07,1,2467,0,6,8,restaurant_7,2,memory-2step-stake-s,743,2805554,0.0-19.0-0.1-0.236,A39C22RIL0YJ4D,3X4Q1O9UCK2WXV8VOBT8MFKQE0B7O9,3AWETUDC9688721SZDDOIMDQ6YUIZN,8,7
237,2,object_01,object_02,859.60000002384,3,1,-1.0,0.0,1,object_07,5,2467,0,7,6,forest_1,2,memory-2step-stake-s,744,2814100,0.0-19.0-0.1-0.237,A39C22RIL0YJ4D,3X4Q1O9UCK2WXV8VOBT8MFKQE0B7O9,3AWETUDC9688721SZDDOIMDQ6YUIZN,3,4
238,3,object_03,object_10,290.70000004768,6,2,875.10000002384,0.4444444444444444,2,object_06,1,2471,0,8,4,library_5,2,memory-2step-stake-s,745,2822664,0.0-19.0-0.1-0.238,A39C22RIL0YJ4D,3X4Q1O9UCK2WXV8VOBT8MFKQE0B7O9,3AWETUDC9688721SZDDOIMDQ6YUIZN,5,6
239,2,object_02,object_01,419.60000002384,3,2,409.09999996424,0.5555555555555556,1,object_07,1,2476,0,5,5,forest_8,2,memory-2step-stake-s,746,2830867,0.0-19.0-0.1-0.239,A39C22RIL0YJ4D,3X4Q1O9UCK2WXV8VOBT8MFKQE0B7O9,3AWETUDC9688721SZDDOIMDQ6YUIZN,4,3
240,4,object_08,object_05,167.39999997616,8,1,225.5,0.7777777777777778,2,object_06,5,2511,0,6,7,restaurant_7,2,memory-2step-stake-s,747,2839100,0.0-19.0-0.1-0.240,A39C22RIL0YJ4D,3X4Q1O9UCK2WXV8VOBT8MFKQE0B7O9,3AWETUDC9688721SZDDOIMDQ6YUIZN,8,7
241,3,object_03,object_10,142.89999997616,6,2,281.59999996424,0.8888888888888888,2,object_06,1,2519,0,5,8,library_5,2,memory-2step-stake-s,748,2847505,0.0-19.0-0.1-0.241,A39C22RIL0YJ4D,3X4Q1O9UCK2WXV8VOBT8MFKQE0B7O9,3AWETUDC9688721SZDDOIMDQ6YUIZN,5,6
242,1,object_09,object_04,-1.0,-1,-1,-1.0,0.0,-,0,5,2519,0,6,8,desert_1,2,memory-2step-stake-s,749,2854046,0.0-19.0-0.1-0.242,A39C22RIL0YJ4D,3X4Q1O9UCK2WXV8VOBT8MFKQE0B7O9,3AWETUDC9688721SZDDOIMDQ6YUIZN,1,2
243,2,object_01,object_02,156.80000001192,4,2,779.5,0.8888888888888888,2,object_06,5,2559,0,4,8,forest_8,2,memory-2step-stake-s,750,2862949,0.0-19.0-0.1-0.243,A39C22RIL0YJ4D,3X4Q1O9UCK2WXV8VOBT8MFKQE0B7O9,3AWETUDC9688721SZDDOIMDQ6YUIZN,3,4
244,3,object_03,object_10,175.59999996424,5,1,230.40000003576,0.5555555555555556,1,object_07,1,2564,0,5,7,library_5,2,memory-2step-stake-s,751,2870999,0.0-19.0-0.1-0.244,A39C22RIL0YJ4D,3X4Q1O9UCK2WXV8VOBT8MFKQE0B7O9,3AWETUDC9688721SZDDOIMDQ6YUIZN,5,6
245,3,object_03,object_10,945.19999998808,5,1,79.600000023842,0.4444444444444444,1,object_07,1,2568,0,4,8,library_2,2,memory-2step-stake-s,752,2878780,0.0-19.0-0.1-0.245,A39C22RIL0YJ4D,3X4Q1O9UCK2WXV8VOBT8MFKQE0B7O9,3AWETUDC9688721SZDDOIMDQ6YUIZN,5,6
246,1,object_04,object_09,-1.0,-1,-1,-1.0,0.0,-,0,5,2568,0,0,9,desert_2,2,memory-2step-stake-s,753,2885348,0.0-19.0-0.1-0.246,A39C22RIL0YJ4D,3X4Q1O9UCK2WXV8VOBT8MFKQE0B7O9,3AWETUDC9688721SZDDOIMDQ6YUIZN,2,1
247,4,object_08,object_05,210.60000002384,7,2,200.0,0.1111111111111111,1,object_07,1,2569,0,1,8,restaurant_2,2,memory-2step-stake-s,754,2892931,0.0-19.0-0.1-0.247,A39C22RIL0YJ4D,3X4Q1O9UCK2WXV8VOBT8MFKQE0B7O9,3AWETUDC9688721SZDDOIMDQ6YUIZN,8,7
248,4,object_05,object_08,563.20000004768,7,1,1050.3000000119,0.2222222222222222,1,object_07,1,2571,0,2,9,restaurant_2,2,memory-2step-stake-s,755,2901455,0.0-19.0-0.1-0.248,A39C22RIL0YJ4D,3X4Q1O9UCK2WXV8VOBT8MFKQE0B7O9,3AWETUDC9688721SZDDOIMDQ6YUIZN,7,8
249,4,object_08,object_05,96.600000023842,8,1,-1.0,0.0,2,object_06,1,2571,0,3,8,restaurant_3,2,memory-2step-stake-s,756,2910027,0.0-19.0-0.1-0.249,A39C22RIL0YJ4D,3X4Q1O9UCK2WXV8VOBT8MFKQE0B7O9,3AWETUDC9688721SZDDOIMDQ6YUIZN,8,7
250,1,object_04,object_09,508.0,2,1,554.0,0.8888888888888888,2,object_06,5,2611,0,3,8,desert_1,2,memory-2step-stake-s,757,2918674,0.0-19.0-0.1-0.250,A39C22RIL0YJ4D,3X4Q1O9UCK2WXV8VOBT8MFKQE0B7O9,3AWETUDC9688721SZDDOIMDQ6YUIZN,2,1
251,1,object_09,object_04,-1.0,-1,-1,-1.0,0.0,-,0,5,2611,0,1,9,desert_2,2,memory-2step-stake-s,758,2925227,0.0-19.0-0.1-0.251,A39C22RIL0YJ4D,3X4Q1O9UCK2WXV8VOBT8MFKQE0B7O9,3AWETUDC9688721SZDDOIMDQ6YUIZN,1,2
252,3,object_03,object_10,314.19999998808,6,2,426.70000004768,0.7777777777777778,2,object_06,1,2618,0,2,7,library_8,2,memory-2step-stake-s,759,2933677,0.0-19.0-0.1-0.252,A39C22RIL0YJ4D,3X4Q1O9UCK2WXV8VOBT8MFKQE0B7O9,3AWETUDC9688721SZDDOIMDQ6YUIZN,5,6
253,3,object_03,object_10,1296.6000000238,6,2,377.10000002384,0.7777777777777778,2,object_06,5,2653,0,1,7,library_6,2,memory-2step-stake-s,760,2942064,0.0-19.0-0.1-0.253,A39C22RIL0YJ4D,3X4Q1O9UCK2WXV8VOBT8MFKQE0B7O9,3AWETUDC9688721SZDDOIMDQ6YUIZN,5,6
254,2,object_01,object_02,875.0,4,2,877.0,0.8888888888888888,2,object_06,5,2693,0,0,8,forest_1,2,memory-2step-stake-s,761,2951058,0.0-19.0-0.1-0.254,A39C22RIL0YJ4D,3X4Q1O9UCK2WXV8VOBT8MFKQE0B7O9,3AWETUDC9688721SZDDOIMDQ6YUIZN,3,4
255,3,object_10,object_03,450.39999997616,5,2,154.10000002384,0.0,1,object_07,1,2693,0,0,8,library_2,2,memory-2step-stake-s,762,2958462,0.0-19.0-0.1-0.255,A39C22RIL0YJ4D,3X4Q1O9UCK2WXV8VOBT8MFKQE0B7O9,3AWETUDC9688721SZDDOIMDQ6YUIZN,6,5
