,state1,stim_left,stim_right,rt_1,choice1,response1,rt_2,points,state2,stim_state2,stake,score,practice,rews1,rews2,background,high_arm,trial_type,trial_index,time_elapsed,internal_node_id,subid,hitid,assignmentid,stim_left_num,stim_right_num
0,1,object_08,object_04,896.10000038147,1,2,937.5,0.5555555555555556,1,object_09,5,25,0,5,2,desert_5,2,memory-2step-stake-s,489,1512702,0.0-19.0-0.0-0.0,A3USP1ZP069KCK,3VGZ74AYUJWEHZMTR9OBXS32OP2GCF,33TIN5LC08QFRBYKZX5SRM5LHCO9YL,2,1
1,1,object_04,object_08,977.0,1,1,604.0,0.6666666666666666,1,object_09,5,55,0,6,3,desert_5,2,memory-2step-stake-s,490,1521131,0.0-19.0-0.0-0.1,A3USP1ZP069KCK,3VGZ74AYUJWEHZMTR9OBXS32OP2GCF,33TIN5LC08QFRBYKZX5SRM5LHCO9YL,1,2
2,3,object_01,object_02,868.79999923706,6,2,-1.0,0.0,2,object_05,1,55,0,6,1,library_6,2,memory-2step-stake-s,491,1529646,0.0-19.0-0.0-0.2,A3USP1ZP069KCK,3VGZ74AYUJWEHZMTR9OBXS32OP2GCF,33TIN5LC08QFRBYKZX5SRM5LHCO9YL,5,6
3,3,object_01,object_02,1142.1999988556,5,1,1169.0,0.6666666666666666,1,object_09,1,61,0,6,2,library_1,2,memory-2step-stake-s,492,1538634,0.0-19.0-0.0-0.3,A3USP1ZP069KCK,3VGZ74AYUJWEHZMTR9OBXS32OP2GCF,33TIN5LC08QFRBYKZX5SRM5LHCO9YL,5,6
4,2,object_07,object_06,1183.9000015259,3,1,756.39999961853,0.5555555555555556,1,object_09,5,86,0,5,1,forest_6,2,memory-2step-stake-s,493,1547106,0.0-19.0-0.0-0.4,A3USP1ZP069KCK,3VGZ74AYUJWEHZMTR9OBXS32OP2GCF,33TIN5LC08QFRBYKZX5SRM5LHCO9YL,3,4
5,3,object_01,object_02,983.89999961853,5,1,539.20000076294,0.3333333333333333,1,object_09,1,89,0,3,2,library_8,2,memory-2step-stake-s,494,1555161,0.0-19.0-0.0-0.5,A3USP1ZP069KCK,3VGZ74AYUJWEHZMTR9OBXS32OP2GCF,33TIN5LC08QFRBYKZX5SRM5LHCO9YL,5,6
6,4,object_10,object_03,936.79999923706,7,1,1170.6999988556,0.1111111111111111,1,object_09,1,90,0,1,4,restaurant_4,2,memory-2step-stake-s,495,1563641,0.0-19.0-0.0-0.6,A3USP1ZP069KCK,3VGZ74AYUJWEHZMTR9OBXS32OP2GCF,33TIN5LC08QFRBYKZX5SRM5LHCO9YL,7,8
7,4,object_10,object_03,781.10000038147,7,1,526.79999923706,0.2222222222222222,1,object_09,1,92,0,2,5,restaurant_4,2,memory-2step-stake-s,496,1571582,0.0-19.0-0.0-0.7,A3USP1ZP069KCK,3VGZ74AYUJWEHZMTR9OBXS32OP2GCF,33TIN5LC08QFRBYKZX5SRM5LHCO9YL,7,8
8,2,object_06,object_07,879.89999961853,3,2,395.89999961853,0.4444444444444444,1,object_09,1,96,0,4,6,forest_7,2,memory-2step-stake-s,497,1579596,0.0-19.0-0.0-0.8,A3USP1ZP069KCK,3VGZ74AYUJWEHZMTR9OBXS32OP2GCF,33TIN5LC08QFRBYKZX5SRM5LHCO9YL,4,3
9,2,object_06,object_07,730.69999885559,3,2,507.0,0.3333333333333333,1,object_09,5,111,0,3,6,forest_4,2,memory-2step-stake-s,498,1587623,0.0-19.0-0.0-0.9,A3USP1ZP069KCK,3VGZ74AYUJWEHZMTR9OBXS32OP2GCF,33TIN5LC08QFRBYKZX5SRM5LHCO9YL,4,3
10,3,object_01,object_02,1188.1000003815,5,1,433.30000114441,0.7777777777777778,1,object_09,1,118,0,7,7,library_2,2,memory-2step-stake-s,499,1595976,0.0-19.0-0.0-0.10,A3USP1ZP069KCK,3VGZ74AYUJWEHZMTR9OBXS32OP2GCF,33TIN5LC08QFRBYKZX5SRM5LHCO9YL,5,6
11,1,object_04,object_08,1052.1000003815,2,2,464.0,0.6666666666666666,2,object_05,5,148,0,7,6,desert_2,2,memory-2step-stake-s,500,1604259,0.0-19.0-0.0-0.11,A3USP1ZP069KCK,3VGZ74AYUJWEHZMTR9OBXS32OP2GCF,33TIN5LC08QFRBYKZX5SRM5LHCO9YL,1,2
12,2,object_07,object_06,762.29999923706,3,1,532.5,1.0,1,object_09,5,193,0,9,8,forest_7,2,memory-2step-stake-s,501,1612914,0.0-19.0-0.0-0.12,A3USP1ZP069KCK,3VGZ74AYUJWEHZMTR9OBXS32OP2GCF,33TIN5LC08QFRBYKZX5SRM5LHCO9YL,3,4
13,3,object_02,object_01,962.5,5,2,574.19999885559,0.7777777777777778,1,object_09,1,200,0,7,6,library_8,2,memory-2step-stake-s,502,1621408,0.0-19.0-0.0-0.13,A3USP1ZP069KCK,3VGZ74AYUJWEHZMTR9OBXS32OP2GCF,33TIN5LC08QFRBYKZX5SRM5LHCO9YL,6,5
14,2,object_06,object_07,886.89999961853,4,1,505.10000038147,0.5555555555555556,2,object_05,5,225,0,6,5,forest_5,2,memory-2step-stake-s,503,1629628,0.0-19.0-0.0-0.14,A3USP1ZP069KCK,3VGZ74AYUJWEHZMTR9OBXS32OP2GCF,33TIN5LC08QFRBYKZX5SRM5LHCO9YL,4,3
15,2,object_06,object_07,1315.6000003815,3,2,681.39999961853,0.6666666666666666,1,object_09,5,255,0,6,4,forest_7,2,memory-2step-stake-s,504,1638144,0.0-19.0-0.0-0.15,A3USP1ZP069KCK,3VGZ74AYUJWEHZMTR9OBXS32OP2GCF,33TIN5LC08QFRBYKZX5SRM5LHCO9YL,4,3
16,4,object_10,object_03,1171.4000015259,8,2,580.29999923706,0.0,2,object_05,1,255,0,6,0,restaurant_5,2,memory-2step-stake-s,505,1645936,0.0-19.0-0.0-0.16,A3USP1ZP069KCK,3VGZ74AYUJWEHZMTR9OBXS32OP2GCF,33TIN5LC08QFRBYKZX5SRM5LHCO9YL,7,8
17,3,object_01,object_02,912.90000152588,5,1,988.10000038147,0.5555555555555556,1,object_09,1,260,0,5,1,library_6,2,memory-2step-stake-s,506,1654650,0.0-19.0-0.0-0.17,A3USP1ZP069KCK,3VGZ74AYUJWEHZMTR9OBXS32OP2GCF,33TIN5LC08QFRBYKZX5SRM5LHCO9YL,5,6
18,2,object_06,object_07,1270.6999988556,3,2,535.0,0.6666666666666666,1,object_09,5,290,0,6,0,forest_6,2,memory-2step-stake-s,507,1663026,0.0-19.0-0.0-0.18,A3USP1ZP069KCK,3VGZ74AYUJWEHZMTR9OBXS32OP2GCF,33TIN5LC08QFRBYKZX5SRM5LHCO9YL,4,3
19,1,object_08,object_04,1030.6999988556,1,2,608.70000076294,0.8888888888888888,1,object_09,5,330,0,8,1,desert_5,2,memory-2step-stake-s,508,1671659,0.0-19.0-0.0-0.19,A3USP1ZP069KCK,3VGZ74AYUJWEHZMTR9OBXS32OP2GCF,33TIN5LC08QFRBYKZX5SRM5LHCO9YL,2,1
20,1,object_08,object_04,759.20000076294,1,2,481.39999961853,0.8888888888888888,1,object_09,5,370,0,8,1,desert_1,2,memory-2step-stake-s,509,1680163,0.0-19.0-0.0-0.20,A3USP1ZP069KCK,3VGZ74AYUJWEHZMTR9OBXS32OP2GCF,33TIN5LC08QFRBYKZX5SRM5LHCO9YL,2,1
21,2,object_07,object_06,1387.2999992371,3,1,702.20000076294,0.6666666666666666,1,object_09,5,400,0,6,1,forest_7,2,memory-2step-stake-s,510,1688693,0.0-19.0-0.0-0.21,A3USP1ZP069KCK,3VGZ74AYUJWEHZMTR9OBXS32OP2GCF,33TIN5LC08QFRBYKZX5SRM5LHCO9YL,3,4
22,3,object_02,object_01,940.39999961853,5,2,197.20000076294,0.4444444444444444,1,object_09,1,404,0,4,0,library_6,2,memory-2step-stake-s,511,1696513,0.0-19.0-0.0-0.22,A3USP1ZP069KCK,3VGZ74AYUJWEHZMTR9OBXS32OP2GCF,33TIN5LC08QFRBYKZX5SRM5LHCO9YL,6,5
23,3,object_02,object_01,-1.0,-1,-1,-1.0,0.0,-,0,5,404,0,5,0,library_6,2,memory-2step-stake-s,512,1703022,0.0-19.0-0.0-0.23,A3USP1ZP069KCK,3VGZ74AYUJWEHZMTR9OBXS32OP2GCF,33TIN5LC08QFRBYKZX5SRM5LHCO9YL,6,5
24,4,object_03,object_10,541.0,7,2,414.89999961853,0.6666666666666666,1,object_09,1,410,0,6,2,restaurant_5,2,memory-2step-stake-s,513,1711258,0.0-19.0-0.0-0.24,A3USP1ZP069KCK,3VGZ74AYUJWEHZMTR9OBXS32OP2GCF,33TIN5LC08QFRBYKZX5SRM5LHCO9YL,8,7
25,4,object_10,object_03,-1.0,-1,-1,-1.0,0.0,-,0,1,410,0,6,1,restaurant_6,2,memory-2step-stake-s,514,1717770,0.0-19.0-0.0-0.25,A3USP1ZP069KCK,3VGZ74AYUJWEHZMTR9OBXS32OP2GCF,33TIN5LC08QFRBYKZX5SRM5LHCO9YL,7,8
26,4,object_03,object_10,1137.5,7,2,-1.0,0.0,1,object_09,1,410,0,5,4,restaurant_4,2,memory-2step-stake-s,515,1726285,0.0-19.0-0.0-0.26,A3USP1ZP069KCK,3VGZ74AYUJWEHZMTR9OBXS32OP2GCF,33TIN5LC08QFRBYKZX5SRM5LHCO9YL,8,7
27,4,object_10,object_03,461.70000076294,8,2,-1.0,0.0,2,object_05,1,410,0,4,6,restaurant_1,2,memory-2step-stake-s,516,1734810,0.0-19.0-0.0-0.27,A3USP1ZP069KCK,3VGZ74AYUJWEHZMTR9OBXS32OP2GCF,33TIN5LC08QFRBYKZX5SRM5LHCO9YL,7,8
28,1,object_08,object_04,583.89999961853,2,1,522.20000076294,0.6666666666666666,2,object_05,5,440,0,6,6,desert_2,2,memory-2step-stake-s,517,1743154,0.0-19.0-0.0-0.28,A3USP1ZP069KCK,3VGZ74AYUJWEHZMTR9OBXS32OP2GCF,33TIN5LC08QFRBYKZX5SRM5LHCO9YL,2,1
29,1,object_08,object_04,518.30000114441,1,2,354.0,0.7777777777777778,1,object_09,5,475,0,7,3,desert_1,2,memory-2step-stake-s,518,1751425,0.0-19.0-0.0-0.29,A3USP1ZP069KCK,3VGZ74AYUJWEHZMTR9OBXS32OP2GCF,33TIN5LC08QFRBYKZX5SRM5LHCO9YL,2,1
30,3,object_01,object_02,524.29999923706,6,2,607.89999961853,0.3333333333333333,2,object_05,5,490,0,6,3,library_8,2,memory-2step-stake-s,519,1759549,0.0-19.0-0.0-0.30,A3USP1ZP069KCK,3VGZ74AYUJWEHZMTR9OBXS32OP2GCF,33TIN5LC08QFRBYKZX5SRM5LHCO9YL,5,6
31,4,object_03,object_10,599.60000038147,8,1,508.0,0.3333333333333333,2,object_05,1,493,0,7,3,restaurant_4,2,memory-2step-stake-s,520,1767573,0.0-19.0-0.0-0.31,A3USP1ZP069KCK,3VGZ74AYUJWEHZMTR9OBXS32OP2GCF,33TIN5LC08QFRBYKZX5SRM5LHCO9YL,8,7
32,2,object_07,object_06,673.79999923706,4,2,542.89999961853,0.5555555555555556,2,object_05,5,518,0,8,5,forest_7,2,memory-2step-stake-s,521,1775833,0.0-19.0-0.0-0.32,A3USP1ZP069KCK,3VGZ74AYUJWEHZMTR9OBXS32OP2GCF,33TIN5LC08QFRBYKZX5SRM5LHCO9YL,3,4
33,2,object_07,object_06,671.60000038147,3,1,426.29999923706,0.8888888888888888,1,object_09,5,558,0,8,3,forest_7,2,memory-2step-stake-s,522,1784278,0.0-19.0-0.0-0.33,A3USP1ZP069KCK,3VGZ74AYUJWEHZMTR9OBXS32OP2GCF,33TIN5LC08QFRBYKZX5SRM5LHCO9YL,3,4
34,4,object_10,object_03,625.20000076294,7,1,439.39999961853,1.0,1,object_09,1,567,0,9,3,restaurant_4,2,memory-2step-stake-s,523,1792836,0.0-19.0-0.0-0.34,A3USP1ZP069KCK,3VGZ74AYUJWEHZMTR9OBXS32OP2GCF,33TIN5LC08QFRBYKZX5SRM5LHCO9YL,7,8
35,1,object_08,object_04,491.80000114441,2,1,629.5,0.4444444444444444,2,object_05,5,587,0,5,4,desert_1,2,memory-2step-stake-s,524,1801081,0.0-19.0-0.0-0.35,A3USP1ZP069KCK,3VGZ74AYUJWEHZMTR9OBXS32OP2GCF,33TIN5LC08QFRBYKZX5SRM5LHCO9YL,2,1
36,4,object_03,object_10,733.69999885559,7,2,489.0,0.3333333333333333,1,object_09,1,590,0,3,4,restaurant_1,2,memory-2step-stake-s,525,1809079,0.0-19.0-0.0-0.36,A3USP1ZP069KCK,3VGZ74AYUJWEHZMTR9OBXS32OP2GCF,33TIN5LC08QFRBYKZX5SRM5LHCO9YL,8,7
37,2,object_07,object_06,650.20000076294,3,1,574.0,0.5555555555555556,1,object_09,1,595,0,5,2,forest_5,2,memory-2step-stake-s,526,1817369,0.0-19.0-0.0-0.37,A3USP1ZP069KCK,3VGZ74AYUJWEHZMTR9OBXS32OP2GCF,33TIN5LC08QFRBYKZX5SRM5LHCO9YL,3,4
38,4,object_03,object_10,1058.9000015259,7,2,468.10000038147,0.2222222222222222,1,object_09,1,597,0,2,0,restaurant_5,2,memory-2step-stake-s,527,1825258,0.0-19.0-0.0-0.38,A3USP1ZP069KCK,3VGZ74AYUJWEHZMTR9OBXS32OP2GCF,33TIN5LC08QFRBYKZX5SRM5LHCO9YL,8,7
39,4,object_03,object_10,655.89999961853,7,2,475.79999923706,0.2222222222222222,1,object_09,1,599,0,2,0,restaurant_1,2,memory-2step-stake-s,528,1833146,0.0-19.0-0.0-0.39,A3USP1ZP069KCK,3VGZ74AYUJWEHZMTR9OBXS32OP2GCF,33TIN5LC08QFRBYKZX5SRM5LHCO9YL,8,7
40,4,object_10,object_03,680.60000038147,8,2,459.79999923706,0.3333333333333333,2,object_05,1,602,0,0,3,restaurant_5,2,memory-2step-stake-s,529,1841119,0.0-19.0-0.0-0.40,A3USP1ZP069KCK,3VGZ74AYUJWEHZMTR9OBXS32OP2GCF,33TIN5LC08QFRBYKZX5SRM5LHCO9YL,7,8
41,3,object_02,object_01,540.29999923706,6,1,368.30000114441,0.6666666666666666,2,object_05,1,608,0,0,6,library_2,2,memory-2step-stake-s,530,1849302,0.0-19.0-0.0-0.41,A3USP1ZP069KCK,3VGZ74AYUJWEHZMTR9OBXS32OP2GCF,33TIN5LC08QFRBYKZX5SRM5LHCO9YL,6,5
42,3,object_01,object_02,747.5,6,2,565.10000038147,0.6666666666666666,2,object_05,5,638,0,1,6,library_6,2,memory-2step-stake-s,531,1857687,0.0-19.0-0.0-0.42,A3USP1ZP069KCK,3VGZ74AYUJWEHZMTR9OBXS32OP2GCF,33TIN5LC08QFRBYKZX5SRM5LHCO9YL,5,6
43,1,object_08,object_04,715.30000114441,1,2,544.39999961853,0.1111111111111111,1,object_09,5,643,0,1,6,desert_5,2,memory-2step-stake-s,532,1865545,0.0-19.0-0.0-0.43,A3USP1ZP069KCK,3VGZ74AYUJWEHZMTR9OBXS32OP2GCF,33TIN5LC08QFRBYKZX5SRM5LHCO9YL,2,1
44,2,object_07,object_06,1116.5,4,2,344.69999885559,0.5555555555555556,2,object_05,5,668,0,1,5,forest_4,2,memory-2step-stake-s,533,1873605,0.0-19.0-0.0-0.44,A3USP1ZP069KCK,3VGZ74AYUJWEHZMTR9OBXS32OP2GCF,33TIN5LC08QFRBYKZX5SRM5LHCO9YL,3,4
45,2,object_06,object_07,1247.8000011444,4,1,523.39999961853,0.3333333333333333,2,object_05,1,671,0,3,3,forest_5,2,memory-2step-stake-s,534,1881644,0.0-19.0-0.0-0.45,A3USP1ZP069KCK,3VGZ74AYUJWEHZMTR9OBXS32OP2GCF,33TIN5LC08QFRBYKZX5SRM5LHCO9YL,4,3
46,2,object_06,object_07,728.70000076294,3,2,300.10000038147,0.4444444444444444,1,object_09,5,691,0,4,4,forest_4,2,memory-2step-stake-s,535,1889559,0.0-19.0-0.0-0.46,A3USP1ZP069KCK,3VGZ74AYUJWEHZMTR9OBXS32OP2GCF,33TIN5LC08QFRBYKZX5SRM5LHCO9YL,4,3
47,3,object_01,object_02,862.60000038147,6,2,559.89999961853,0.1111111111111111,2,object_05,1,692,0,5,1,library_8,2,memory-2step-stake-s,536,1897431,0.0-19.0-0.0-0.47,A3USP1ZP069KCK,3VGZ74AYUJWEHZMTR9OBXS32OP2GCF,33TIN5LC08QFRBYKZX5SRM5LHCO9YL,5,6
48,3,object_02,object_01,669.0,6,1,369.19999885559,0.1111111111111111,2,object_05,1,693,0,4,1,library_2,2,memory-2step-stake-s,537,1905115,0.0-19.0-0.0-0.48,A3USP1ZP069KCK,3VGZ74AYUJWEHZMTR9OBXS32OP2GCF,33TIN5LC08QFRBYKZX5SRM5LHCO9YL,6,5
49,4,object_10,object_03,714.79999923706,8,2,526.69999885559,0.1111111111111111,2,object_05,1,694,0,7,1,restaurant_6,2,memory-2step-stake-s,538,1912951,0.0-19.0-0.0-0.49,A3USP1ZP069KCK,3VGZ74AYUJWEHZMTR9OBXS32OP2GCF,33TIN5LC08QFRBYKZX5SRM5LHCO9YL,7,8
50,4,object_10,object_03,646.0,7,1,448.69999885559,0.5555555555555556,1,object_09,1,699,0,5,0,restaurant_1,2,memory-2step-stake-s,539,1921115,0.0-19.0-0.0-0.50,A3USP1ZP069KCK,3VGZ74AYUJWEHZMTR9OBXS32OP2GCF,33TIN5LC08QFRBYKZX5SRM5LHCO9YL,7,8
51,2,object_06,object_07,905.80000114441,4,1,349.29999923706,0.4444444444444444,2,object_05,5,719,0,5,4,forest_4,2,memory-2step-stake-s,540,1929074,0.0-19.0-0.0-0.51,A3USP1ZP069KCK,3VGZ74AYUJWEHZMTR9OBXS32OP2GCF,33TIN5LC08QFRBYKZX5SRM5LHCO9YL,4,3
52,3,object_01,object_02,767.10000038147,6,2,586.09999847412,0.5555555555555556,2,object_05,1,724,0,1,5,library_6,2,memory-2step-stake-s,541,1937377,0.0-19.0-0.0-0.52,A3USP1ZP069KCK,3VGZ74AYUJWEHZMTR9OBXS32OP2GCF,33TIN5LC08QFRBYKZX5SRM5LHCO9YL,5,6
53,4,object_03,object_10,1062.3999996185,8,1,466.39999961853,0.6666666666666666,2,object_05,1,730,0,2,6,restaurant_5,2,memory-2step-stake-s,542,1945661,0.0-19.0-0.0-0.53,A3USP1ZP069KCK,3VGZ74AYUJWEHZMTR9OBXS32OP2GCF,33TIN5LC08QFRBYKZX5SRM5LHCO9YL,8,7
54,4,object_03,object_10,875.39999961853,8,1,358.30000114441,0.2222222222222222,2,object_05,1,732,0,1,2,restaurant_4,2,memory-2step-stake-s,543,1953455,0.0-19.0-0.0-0.54,A3USP1ZP069KCK,3VGZ74AYUJWEHZMTR9OBXS32OP2GCF,33TIN5LC08QFRBYKZX5SRM5LHCO9YL,8,7
55,4,object_03,object_10,528.10000038147,7,2,361.70000076294,0.4444444444444444,1,object_09,1,736,0,4,5,restaurant_4,2,memory-2step-stake-s,544,1961434,0.0-19.0-0.0-0.55,A3USP1ZP069KCK,3VGZ74AYUJWEHZMTR9OBXS32OP2GCF,33TIN5LC08QFRBYKZX5SRM5LHCO9YL,8,7
56,3,object_02,object_01,854.70000076294,6,1,457.39999961853,0.4444444444444444,2,object_05,1,740,0,4,4,library_2,2,memory-2step-stake-s,545,1969510,0.0-19.0-0.0-0.56,A3USP1ZP069KCK,3VGZ74AYUJWEHZMTR9OBXS32OP2GCF,33TIN5LC08QFRBYKZX5SRM5LHCO9YL,6,5
57,4,object_03,object_10,720.10000038147,8,1,395.19999885559,0.3333333333333333,2,object_05,1,743,0,6,3,restaurant_4,2,memory-2step-stake-s,546,1977422,0.0-19.0-0.0-0.57,A3USP1ZP069KCK,3VGZ74AYUJWEHZMTR9OBXS32OP2GCF,33TIN5LC08QFRBYKZX5SRM5LHCO9YL,8,7
58,2,object_06,object_07,775.29999923706,3,2,386.90000152588,0.6666666666666666,1,object_09,5,773,0,6,1,forest_4,2,memory-2step-stake-s,547,1985627,0.0-19.0-0.0-0.58,A3USP1ZP069KCK,3VGZ74AYUJWEHZMTR9OBXS32OP2GCF,33TIN5LC08QFRBYKZX5SRM5LHCO9YL,4,3
59,1,object_04,object_08,844.39999961853,2,2,472.20000076294,0.3333333333333333,2,object_05,5,788,0,6,3,desert_2,2,memory-2step-stake-s,548,1993608,0.0-19.0-0.0-0.59,A3USP1ZP069KCK,3VGZ74AYUJWEHZMTR9OBXS32OP2GCF,33TIN5LC08QFRBYKZX5SRM5LHCO9YL,1,2
60,3,object_02,object_01,851.79999923706,6,1,472.0,0.0,2,object_05,1,788,0,6,0,library_1,2,memory-2step-stake-s,549,2001291,0.0-19.0-0.0-0.60,A3USP1ZP069KCK,3VGZ74AYUJWEHZMTR9OBXS32OP2GCF,33TIN5LC08QFRBYKZX5SRM5LHCO9YL,6,5
61,2,object_07,object_06,1016.1999988556,3,1,364.60000038147,0.5555555555555556,1,object_09,1,793,0,5,4,forest_5,2,memory-2step-stake-s,550,2009372,0.0-19.0-0.0-0.61,A3USP1ZP069KCK,3VGZ74AYUJWEHZMTR9OBXS32OP2GCF,33TIN5LC08QFRBYKZX5SRM5LHCO9YL,3,4
62,2,object_07,object_06,1020.8999996185,3,1,512.5,0.6666666666666666,1,object_09,5,823,0,6,3,forest_4,2,memory-2step-stake-s,551,2017703,0.0-19.0-0.0-0.62,A3USP1ZP069KCK,3VGZ74AYUJWEHZMTR9OBXS32OP2GCF,33TIN5LC08QFRBYKZX5SRM5LHCO9YL,3,4
63,1,object_04,object_08,1320.6000003815,2,2,563.89999961853,0.1111111111111111,2,object_05,5,828,0,4,1,desert_4,2,memory-2step-stake-s,552,2025582,0.0-19.0-0.0-0.63,A3USP1ZP069KCK,3VGZ74AYUJWEHZMTR9OBXS32OP2GCF,33TIN5LC08QFRBYKZX5SRM5LHCO9YL,1,2
64,3,object_02,object_01,876.70000076294,5,2,549.5,0.2222222222222222,1,object_09,5,838,0,2,2,library_6,2,memory-2step-stake-s,553,2033547,0.0-19.0-0.0-0.64,A3USP1ZP069KCK,3VGZ74AYUJWEHZMTR9OBXS32OP2GCF,33TIN5LC08QFRBYKZX5SRM5LHCO9YL,6,5
65,4,object_03,object_10,1029.7999992371,7,2,527.10000038147,0.5555555555555556,1,object_09,1,843,0,5,3,restaurant_4,2,memory-2step-stake-s,554,2041792,0.0-19.0-0.0-0.65,A3USP1ZP069KCK,3VGZ74AYUJWEHZMTR9OBXS32OP2GCF,33TIN5LC08QFRBYKZX5SRM5LHCO9YL,8,7
66,3,object_02,object_01,914.39999961853,5,2,510.10000038147,0.5555555555555556,1,object_09,1,848,0,5,3,library_2,2,memory-2step-stake-s,555,2050030,0.0-19.0-0.0-0.66,A3USP1ZP069KCK,3VGZ74AYUJWEHZMTR9OBXS32OP2GCF,33TIN5LC08QFRBYKZX5SRM5LHCO9YL,6,5
67,2,object_07,object_06,871.10000038147,3,1,385.89999961853,0.5555555555555556,1,object_09,5,873,0,5,4,forest_5,2,memory-2step-stake-s,556,2058131,0.0-19.0-0.0-0.67,A3USP1ZP069KCK,3VGZ74AYUJWEHZMTR9OBXS32OP2GCF,33TIN5LC08QFRBYKZX5SRM5LHCO9YL,3,4
68,1,object_04,object_08,751.89999961853,1,1,377.60000038147,0.4444444444444444,1,object_09,5,893,0,4,3,desert_1,2,memory-2step-stake-s,557,2066127,0.0-19.0-0.0-0.68,A3USP1ZP069KCK,3VGZ74AYUJWEHZMTR9OBXS32OP2GCF,33TIN5LC08QFRBYKZX5SRM5LHCO9YL,1,2
69,2,object_06,object_07,1301.8999996185,3,2,696.89999961853,0.6666666666666666,1,object_09,1,899,0,6,5,forest_5,2,memory-2step-stake-s,558,2074644,0.0-19.0-0.0-0.69,A3USP1ZP069KCK,3VGZ74AYUJWEHZMTR9OBXS32OP2GCF,33TIN5LC08QFRBYKZX5SRM5LHCO9YL,4,3
70,2,object_06,object_07,721.10000038147,3,2,317.19999885559,0.4444444444444444,1,object_09,1,903,0,4,8,forest_4,2,memory-2step-stake-s,559,2082580,0.0-19.0-0.0-0.70,A3USP1ZP069KCK,3VGZ74AYUJWEHZMTR9OBXS32OP2GCF,33TIN5LC08QFRBYKZX5SRM5LHCO9YL,4,3
71,4,object_10,object_03,962.10000038147,8,2,510.29999923706,0.4444444444444444,2,object_05,1,907,0,7,4,restaurant_6,2,memory-2step-stake-s,560,2090705,0.0-19.0-0.0-0.71,A3USP1ZP069KCK,3VGZ74AYUJWEHZMTR9OBXS32OP2GCF,33TIN5LC08QFRBYKZX5SRM5LHCO9YL,7,8
72,1,object_04,object_08,644.70000076294,1,1,570.10000038147,0.5555555555555556,1,object_09,1,912,0,5,9,desert_1,2,memory-2step-stake-s,561,2098990,0.0-19.0-0.0-0.72,A3USP1ZP069KCK,3VGZ74AYUJWEHZMTR9OBXS32OP2GCF,33TIN5LC08QFRBYKZX5SRM5LHCO9YL,1,2
73,3,object_02,object_01,607.0,6,1,346.0,0.7777777777777778,2,object_05,1,919,0,5,7,library_2,2,memory-2step-stake-s,562,2107254,0.0-19.0-0.0-0.73,A3USP1ZP069KCK,3VGZ74AYUJWEHZMTR9OBXS32OP2GCF,33TIN5LC08QFRBYKZX5SRM5LHCO9YL,6,5
74,2,object_07,object_06,750.39999961853,4,2,394.80000114441,0.8888888888888888,2,object_05,5,959,0,2,8,forest_7,2,memory-2step-stake-s,563,2115670,0.0-19.0-0.0-0.74,A3USP1ZP069KCK,3VGZ74AYUJWEHZMTR9OBXS32OP2GCF,33TIN5LC08QFRBYKZX5SRM5LHCO9YL,3,4
75,1,object_04,object_08,690.69999885559,1,1,453.39999961853,0.2222222222222222,1,object_09,5,969,0,2,7,desert_4,2,memory-2step-stake-s,564,2123537,0.0-19.0-0.0-0.75,A3USP1ZP069KCK,3VGZ74AYUJWEHZMTR9OBXS32OP2GCF,33TIN5LC08QFRBYKZX5SRM5LHCO9YL,1,2
76,2,object_06,object_07,879.89999961853,4,1,697.39999961853,0.3333333333333333,2,object_05,1,972,0,2,3,forest_5,2,memory-2step-stake-s,565,2131752,0.0-19.0-0.0-0.76,A3USP1ZP069KCK,3VGZ74AYUJWEHZMTR9OBXS32OP2GCF,33TIN5LC08QFRBYKZX5SRM5LHCO9YL,4,3
77,2,object_07,object_06,576.39999961853,4,2,436.5,0.1111111111111111,2,object_05,5,977,0,0,1,forest_4,2,memory-2step-stake-s,566,2139497,0.0-19.0-0.0-0.77,A3USP1ZP069KCK,3VGZ74AYUJWEHZMTR9OBXS32OP2GCF,33TIN5LC08QFRBYKZX5SRM5LHCO9YL,3,4
78,4,object_10,object_03,552.29999923706,7,1,380.5,0.2222222222222222,1,object_09,1,979,0,2,2,restaurant_4,2,memory-2step-stake-s,567,2147289,0.0-19.0-0.0-0.78,A3USP1ZP069KCK,3VGZ74AYUJWEHZMTR9OBXS32OP2GCF,33TIN5LC08QFRBYKZX5SRM5LHCO9YL,7,8
79,4,object_10,object_03,935.79999923706,7,1,475.10000038147,0.0,1,object_09,5,979,0,0,2,restaurant_1,2,memory-2step-stake-s,568,2154975,0.0-19.0-0.0-0.79,A3USP1ZP069KCK,3VGZ74AYUJWEHZMTR9OBXS32OP2GCF,33TIN5LC08QFRBYKZX5SRM5LHCO9YL,7,8
80,3,object_02,object_01,912.60000038147,6,1,452.10000038147,0.0,2,object_05,1,979,0,2,0,library_6,2,memory-2step-stake-s,569,2162639,0.0-19.0-0.0-0.80,A3USP1ZP069KCK,3VGZ74AYUJWEHZMTR9OBXS32OP2GCF,33TIN5LC08QFRBYKZX5SRM5LHCO9YL,6,5
81,3,object_02,object_01,681.20000076294,6,1,357.5,0.2222222222222222,2,object_05,5,989,0,0,2,library_8,2,memory-2step-stake-s,570,2170406,0.0-19.0-0.0-0.81,A3USP1ZP069KCK,3VGZ74AYUJWEHZMTR9OBXS32OP2GCF,33TIN5LC08QFRBYKZX5SRM5LHCO9YL,6,5
82,1,object_04,object_08,564.5,1,1,431.5,0.1111111111111111,1,object_09,5,994,0,1,1,desert_5,2,memory-2step-stake-s,571,2178175,0.0-19.0-0.0-0.82,A3USP1ZP069KCK,3VGZ74AYUJWEHZMTR9OBXS32OP2GCF,33TIN5LC08QFRBYKZX5SRM5LHCO9YL,1,2
83,2,object_07,object_06,1011.3999996185,3,1,335.89999961853,0.3333333333333333,1,object_09,1,997,0,3,3,forest_4,2,memory-2step-stake-s,572,2186026,0.0-19.0-0.0-0.83,A3USP1ZP069KCK,3VGZ74AYUJWEHZMTR9OBXS32OP2GCF,33TIN5LC08QFRBYKZX5SRM5LHCO9YL,3,4
84,2,object_07,object_06,666.5,3,1,339.60000038147,0.4444444444444444,1,object_09,5,1017,0,4,3,forest_5,2,memory-2step-stake-s,573,2193982,0.0-19.0-0.0-0.84,A3USP1ZP069KCK,3VGZ74AYUJWEHZMTR9OBXS32OP2GCF,33TIN5LC08QFRBYKZX5SRM5LHCO9YL,3,4
85,4,object_10,object_03,660.10000038147,7,1,464.70000076294,0.2222222222222222,1,object_09,1,1019,0,2,2,restaurant_5,2,memory-2step-stake-s,574,2201861,0.0-19.0-0.0-0.85,A3USP1ZP069KCK,3VGZ74AYUJWEHZMTR9OBXS32OP2GCF,33TIN5LC08QFRBYKZX5SRM5LHCO9YL,7,8
86,3,object_02,object_01,775.20000076294,5,2,354.89999961853,0.2222222222222222,1,object_09,1,1021,0,2,2,library_8,2,memory-2step-stake-s,575,2209637,0.0-19.0-0.0-0.86,A3USP1ZP069KCK,3VGZ74AYUJWEHZMTR9OBXS32OP2GCF,33TIN5LC08QFRBYKZX5SRM5LHCO9YL,6,5
87,3,object_02,object_01,662.19999885559,5,2,315.0,0.3333333333333333,1,object_09,1,1024,0,3,1,library_2,2,memory-2step-stake-s,576,2217467,0.0-19.0-0.0-0.87,A3USP1ZP069KCK,3VGZ74AYUJWEHZMTR9OBXS32OP2GCF,33TIN5LC08QFRBYKZX5SRM5LHCO9YL,6,5
88,3,object_02,object_01,656.89999961853,5,2,474.60000038147,0.4444444444444444,1,object_09,1,1028,0,4,4,library_2,2,memory-2step-stake-s,577,2225558,0.0-19.0-0.0-0.88,A3USP1ZP069KCK,3VGZ74AYUJWEHZMTR9OBXS32OP2GCF,33TIN5LC08QFRBYKZX5SRM5LHCO9YL,6,5
89,1,object_08,object_04,876.10000038147,2,1,505.0,0.7777777777777778,2,object_05,1,1035,0,5,7,desert_5,2,memory-2step-stake-s,578,2233978,0.0-19.0-0.0-0.89,A3USP1ZP069KCK,3VGZ74AYUJWEHZMTR9OBXS32OP2GCF,33TIN5LC08QFRBYKZX5SRM5LHCO9YL,2,1
90,1,object_04,object_08,1283.3000011444,1,1,512.79999923706,0.4444444444444444,1,object_09,5,1055,0,4,6,desert_2,2,memory-2step-stake-s,579,2242106,0.0-19.0-0.0-0.90,A3USP1ZP069KCK,3VGZ74AYUJWEHZMTR9OBXS32OP2GCF,33TIN5LC08QFRBYKZX5SRM5LHCO9YL,1,2
91,1,object_04,object_08,674.0,1,1,-1.0,0.0,1,object_09,1,1055,0,4,9,desert_4,2,memory-2step-stake-s,580,2250620,0.0-19.0-0.0-0.91,A3USP1ZP069KCK,3VGZ74AYUJWEHZMTR9OBXS32OP2GCF,33TIN5LC08QFRBYKZX5SRM5LHCO9YL,1,2
92,4,object_03,object_10,553.5,7,2,-1.0,0.0,1,object_09,1,1055,0,4,8,restaurant_1,2,memory-2step-stake-s,581,2259133,0.0-19.0-0.0-0.92,A3USP1ZP069KCK,3VGZ74AYUJWEHZMTR9OBXS32OP2GCF,33TIN5LC08QFRBYKZX5SRM5LHCO9YL,8,7
93,1,object_08,object_04,515.90000152588,2,1,519.60000038147,0.5555555555555556,2,object_05,5,1080,0,5,5,desert_4,2,memory-2step-stake-s,582,2267371,0.0-19.0-0.0-0.93,A3USP1ZP069KCK,3VGZ74AYUJWEHZMTR9OBXS32OP2GCF,33TIN5LC08QFRBYKZX5SRM5LHCO9YL,2,1
94,4,object_03,object_10,278.0,7,2,414.89999961853,0.7777777777777778,1,object_09,1,1087,0,7,0,restaurant_4,2,memory-2step-stake-s,583,2275703,0.0-19.0-0.0-0.94,A3USP1ZP069KCK,3VGZ74AYUJWEHZMTR9OBXS32OP2GCF,33TIN5LC08QFRBYKZX5SRM5LHCO9YL,8,7
95,4,object_03,object_10,512.0,8,1,763.39999961853,0.1111111111111111,2,object_05,5,1092,0,7,1,restaurant_1,2,memory-2step-stake-s,584,2283778,0.0-19.0-0.0-0.95,A3USP1ZP069KCK,3VGZ74AYUJWEHZMTR9OBXS32OP2GCF,33TIN5LC08QFRBYKZX5SRM5LHCO9YL,8,7
96,3,object_01,object_02,381.5,6,2,432.69999885559,0.3333333333333333,2,object_05,1,1095,0,9,3,library_1,2,memory-2step-stake-s,585,2291719,0.0-19.0-0.0-0.96,A3USP1ZP069KCK,3VGZ74AYUJWEHZMTR9OBXS32OP2GCF,33TIN5LC08QFRBYKZX5SRM5LHCO9YL,5,6
97,1,object_04,object_08,306.89999961853,1,1,479.29999923706,0.7777777777777778,1,object_09,1,1102,0,7,2,desert_4,2,memory-2step-stake-s,586,2300115,0.0-19.0-0.0-0.97,A3USP1ZP069KCK,3VGZ74AYUJWEHZMTR9OBXS32OP2GCF,33TIN5LC08QFRBYKZX5SRM5LHCO9YL,1,2
98,1,object_04,object_08,411.80000114441,2,2,400.10000038147,0.4444444444444444,2,object_05,5,1122,0,9,4,desert_1,2,memory-2step-stake-s,587,2308133,0.0-19.0-0.0-0.98,A3USP1ZP069KCK,3VGZ74AYUJWEHZMTR9OBXS32OP2GCF,33TIN5LC08QFRBYKZX5SRM5LHCO9YL,1,2
99,3,object_02,object_01,787.20000076294,5,2,221.0,0.8888888888888888,1,object_09,5,1162,0,8,7,library_8,2,memory-2step-stake-s,588,2316379,0.0-19.0-0.0-0.99,A3USP1ZP069KCK,3VGZ74AYUJWEHZMTR9OBXS32OP2GCF,33TIN5LC08QFRBYKZX5SRM5LHCO9YL,6,5
100,3,object_01,object_02,461.79999923706,5,1,482.39999961853,0.7777777777777778,1,object_09,1,1169,0,7,8,library_1,2,memory-2step-stake-s,589,2324783,0.0-19.0-0.0-0.100,A3USP1ZP069KCK,3VGZ74AYUJWEHZMTR9OBXS32OP2GCF,33TIN5LC08QFRBYKZX5SRM5LHCO9YL,5,6
101,1,object_04,object_08,569.09999847412,2,2,362.39999961853,0.7777777777777778,2,object_05,5,1204,0,8,7,desert_2,2,memory-2step-stake-s,590,2333072,0.0-19.0-0.0-0.101,A3USP1ZP069KCK,3VGZ74AYUJWEHZMTR9OBXS32OP2GCF,33TIN5LC08QFRBYKZX5SRM5LHCO9YL,1,2
102,3,object_02,object_01,575.89999961853,5,2,418.39999961853,0.7777777777777778,1,object_09,1,1211,0,7,6,library_8,2,memory-2step-stake-s,591,2341414,0.0-19.0-0.0-0.102,A3USP1ZP069KCK,3VGZ74AYUJWEHZMTR9OBXS32OP2GCF,33TIN5LC08QFRBYKZX5SRM5LHCO9YL,6,5
103,3,object_01,object_02,824.0,6,2,298.79999923706,0.3333333333333333,2,object_05,1,1214,0,8,3,library_6,2,memory-2step-stake-s,592,2349232,0.0-19.0-0.0-0.103,A3USP1ZP069KCK,3VGZ74AYUJWEHZMTR9OBXS32OP2GCF,33TIN5LC08QFRBYKZX5SRM5LHCO9YL,5,6
104,3,object_01,object_02,897.0,6,2,395.70000076294,0.2222222222222222,2,object_05,1,1216,0,9,2,library_6,2,memory-2step-stake-s,593,2357037,0.0-19.0-0.0-0.104,A3USP1ZP069KCK,3VGZ74AYUJWEHZMTR9OBXS32OP2GCF,33TIN5LC08QFRBYKZX5SRM5LHCO9YL,5,6
105,4,object_10,object_03,793.29999923706,7,1,452.5,1.0,1,object_09,5,1261,0,9,3,restaurant_6,2,memory-2step-stake-s,594,2365608,0.0-19.0-0.0-0.105,A3USP1ZP069KCK,3VGZ74AYUJWEHZMTR9OBXS32OP2GCF,33TIN5LC08QFRBYKZX5SRM5LHCO9YL,7,8
106,4,object_10,object_03,548.59999847412,7,1,454.89999961853,0.5555555555555556,1,object_09,5,1286,0,5,3,restaurant_5,2,memory-2step-stake-s,595,2373785,0.0-19.0-0.0-0.106,A3USP1ZP069KCK,3VGZ74AYUJWEHZMTR9OBXS32OP2GCF,33TIN5LC08QFRBYKZX5SRM5LHCO9YL,7,8
107,3,object_01,object_02,794.29999923706,6,2,395.89999961853,0.3333333333333333,2,object_05,5,1301,0,6,3,library_2,2,memory-2step-stake-s,596,2381699,0.0-19.0-0.0-0.107,A3USP1ZP069KCK,3VGZ74AYUJWEHZMTR9OBXS32OP2GCF,33TIN5LC08QFRBYKZX5SRM5LHCO9YL,5,6
108,1,object_08,object_04,782.69999885559,1,2,427.5,0.7777777777777778,1,object_09,1,1308,0,7,6,desert_4,2,memory-2step-stake-s,597,2390052,0.0-19.0-0.0-0.108,A3USP1ZP069KCK,3VGZ74AYUJWEHZMTR9OBXS32OP2GCF,33TIN5LC08QFRBYKZX5SRM5LHCO9YL,2,1
109,2,object_06,object_07,672.10000038147,3,2,491.5,0.8888888888888888,1,object_09,5,1348,0,8,6,forest_7,2,memory-2step-stake-s,598,2398564,0.0-19.0-0.0-0.109,A3USP1ZP069KCK,3VGZ74AYUJWEHZMTR9OBXS32OP2GCF,33TIN5LC08QFRBYKZX5SRM5LHCO9YL,4,3
110,3,object_01,object_02,600.5,6,2,483.60000038147,0.4444444444444444,2,object_05,5,1368,0,6,4,library_1,2,memory-2step-stake-s,599,2406663,0.0-19.0-0.0-0.110,A3USP1ZP069KCK,3VGZ74AYUJWEHZMTR9OBXS32OP2GCF,33TIN5LC08QFRBYKZX5SRM5LHCO9YL,5,6
111,1,object_04,object_08,573.5,1,1,448.60000038147,0.6666666666666666,1,object_09,5,1398,0,6,4,desert_1,2,memory-2step-stake-s,600,2414928,0.0-19.0-0.0-0.111,A3USP1ZP069KCK,3VGZ74AYUJWEHZMTR9OBXS32OP2GCF,33TIN5LC08QFRBYKZX5SRM5LHCO9YL,1,2
112,2,object_06,object_07,512.59999847412,4,1,627.5,0.4444444444444444,2,object_05,5,1418,0,4,4,forest_6,2,memory-2step-stake-s,601,2423171,0.0-19.0-0.0-0.112,A3USP1ZP069KCK,3VGZ74AYUJWEHZMTR9OBXS32OP2GCF,33TIN5LC08QFRBYKZX5SRM5LHCO9YL,4,3
113,4,object_03,object_10,886.09999847412,7,2,440.5,0.5555555555555556,1,object_09,5,1443,0,5,5,restaurant_6,2,memory-2step-stake-s,602,2431327,0.0-19.0-0.0-0.113,A3USP1ZP069KCK,3VGZ74AYUJWEHZMTR9OBXS32OP2GCF,33TIN5LC08QFRBYKZX5SRM5LHCO9YL,8,7
114,4,object_10,object_03,648.39999961853,7,1,1490.8000011444,0.7777777777777778,1,object_09,1,1450,0,7,4,restaurant_5,2,memory-2step-stake-s,603,2440740,0.0-19.0-0.0-0.114,A3USP1ZP069KCK,3VGZ74AYUJWEHZMTR9OBXS32OP2GCF,33TIN5LC08QFRBYKZX5SRM5LHCO9YL,7,8
115,3,object_02,object_01,635.10000038147,5,2,493.40000152588,0.4444444444444444,1,object_09,5,1470,0,4,2,library_2,2,memory-2step-stake-s,604,2448851,0.0-19.0-0.0-0.115,A3USP1ZP069KCK,3VGZ74AYUJWEHZMTR9OBXS32OP2GCF,33TIN5LC08QFRBYKZX5SRM5LHCO9YL,6,5
116,4,object_03,object_10,995.79999923706,7,2,471.09999847412,0.7777777777777778,1,object_09,1,1477,0,7,2,restaurant_4,2,memory-2step-stake-s,605,2457243,0.0-19.0-0.0-0.116,A3USP1ZP069KCK,3VGZ74AYUJWEHZMTR9OBXS32OP2GCF,33TIN5LC08QFRBYKZX5SRM5LHCO9YL,8,7
117,1,object_04,object_08,667.39999961853,1,1,421.89999961853,0.6666666666666666,1,object_09,1,1483,0,6,3,desert_1,2,memory-2step-stake-s,606,2465483,0.0-19.0-0.0-0.117,A3USP1ZP069KCK,3VGZ74AYUJWEHZMTR9OBXS32OP2GCF,33TIN5LC08QFRBYKZX5SRM5LHCO9YL,1,2
118,3,object_02,object_01,699.60000038147,5,2,463.20000076294,0.8888888888888888,1,object_09,1,1491,0,8,3,library_1,2,memory-2step-stake-s,607,2473961,0.0-19.0-0.0-0.118,A3USP1ZP069KCK,3VGZ74AYUJWEHZMTR9OBXS32OP2GCF,33TIN5LC08QFRBYKZX5SRM5LHCO9YL,6,5
119,1,object_08,object_04,689.79999923706,1,2,490.60000038147,0.7777777777777778,1,object_09,5,1526,0,7,2,desert_2,2,memory-2step-stake-s,608,2482376,0.0-19.0-0.0-0.119,A3USP1ZP069KCK,3VGZ74AYUJWEHZMTR9OBXS32OP2GCF,33TIN5LC08QFRBYKZX5SRM5LHCO9YL,2,1
120,4,object_10,object_03,863.90000152588,7,1,451.19999885559,0.7777777777777778,1,object_09,1,1533,0,7,1,restaurant_4,2,memory-2step-stake-s,609,2490767,0.0-19.0-0.0-0.120,A3USP1ZP069KCK,3VGZ74AYUJWEHZMTR9OBXS32OP2GCF,33TIN5LC08QFRBYKZX5SRM5LHCO9YL,7,8
121,3,object_01,object_02,762.39999961853,5,1,422.10000038147,0.8888888888888888,1,object_09,5,1573,0,8,1,library_8,2,memory-2step-stake-s,610,2499214,0.0-19.0-0.0-0.121,A3USP1ZP069KCK,3VGZ74AYUJWEHZMTR9OBXS32OP2GCF,33TIN5LC08QFRBYKZX5SRM5LHCO9YL,5,6
122,2,object_07,object_06,674.10000038147,3,1,430.39999961853,0.6666666666666666,1,object_09,5,1603,0,6,2,forest_7,2,memory-2step-stake-s,611,2507464,0.0-19.0-0.0-0.122,A3USP1ZP069KCK,3VGZ74AYUJWEHZMTR9OBXS32OP2GCF,33TIN5LC08QFRBYKZX5SRM5LHCO9YL,3,4
123,1,object_04,object_08,666.5,1,1,807.19999885559,0.7777777777777778,1,object_09,5,1638,0,7,2,desert_2,2,memory-2step-stake-s,612,2516185,0.0-19.0-0.0-0.123,A3USP1ZP069KCK,3VGZ74AYUJWEHZMTR9OBXS32OP2GCF,33TIN5LC08QFRBYKZX5SRM5LHCO9YL,1,2
124,1,object_08,object_04,785.30000114441,1,2,405.40000152588,0.5555555555555556,1,object_09,5,1663,0,5,4,desert_4,2,memory-2step-stake-s,613,2524305,0.0-19.0-0.0-0.124,A3USP1ZP069KCK,3VGZ74AYUJWEHZMTR9OBXS32OP2GCF,33TIN5LC08QFRBYKZX5SRM5LHCO9YL,2,1
125,3,object_01,object_02,646.0,5,1,554.0,0.8888888888888888,1,object_09,1,1671,0,8,7,library_1,2,memory-2step-stake-s,614,2532879,0.0-19.0-0.0-0.125,A3USP1ZP069KCK,3VGZ74AYUJWEHZMTR9OBXS32OP2GCF,33TIN5LC08QFRBYKZX5SRM5LHCO9YL,5,6
126,1,object_08,object_04,709.19999885559,1,2,568.5,0.6666666666666666,1,object_09,5,1701,0,6,6,desert_4,2,memory-2step-stake-s,615,2541264,0.0-19.0-0.0-0.126,A3USP1ZP069KCK,3VGZ74AYUJWEHZMTR9OBXS32OP2GCF,33TIN5LC08QFRBYKZX5SRM5LHCO9YL,2,1
127,4,object_10,object_03,1062.3999996185,7,1,440.5,0.4444444444444444,1,object_09,5,1721,0,4,8,restaurant_5,2,memory-2step-stake-s,616,2551765,0.0-19.0-0.0-0.127,A3USP1ZP069KCK,3VGZ74AYUJWEHZMTR9OBXS32OP2GCF,33TIN5LC08QFRBYKZX5SRM5LHCO9YL,7,8
128,2,object_07,object_06,984.60000038147,3,1,656.79999923706,0.4444444444444444,1,object_09,5,1741,0,4,8,forest_7,2,memory-2step-stake-s,618,2622816,0.0-19.0-0.1-0.128,A3USP1ZP069KCK,3VGZ74AYUJWEHZMTR9OBXS32OP2GCF,33TIN5LC08QFRBYKZX5SRM5LHCO9YL,3,4
129,1,object_08,object_04,702.80000114441,1,2,393.69999885559,0.5555555555555556,1,object_09,5,1766,0,5,8,desert_4,2,memory-2step-stake-s,619,2630926,0.0-19.0-0.1-0.129,A3USP1ZP069KCK,3VGZ74AYUJWEHZMTR9OBXS32OP2GCF,33TIN5LC08QFRBYKZX5SRM5LHCO9YL,2,1
130,4,object_10,object_03,678.40000152588,7,1,473.39999961853,1.0,1,object_09,5,1811,0,9,8,restaurant_5,2,memory-2step-stake-s,620,2639521,0.0-19.0-0.1-0.130,A3USP1ZP069KCK,3VGZ74AYUJWEHZMTR9OBXS32OP2GCF,33TIN5LC08QFRBYKZX5SRM5LHCO9YL,7,8
131,3,object_01,object_02,811.79999923706,5,1,455.0,0.7777777777777778,1,object_09,1,1818,0,7,9,library_1,2,memory-2step-stake-s,621,2647898,0.0-19.0-0.1-0.131,A3USP1ZP069KCK,3VGZ74AYUJWEHZMTR9OBXS32OP2GCF,33TIN5LC08QFRBYKZX5SRM5LHCO9YL,5,6
132,2,object_07,object_06,767.39999961853,3,1,468.40000152588,0.3333333333333333,1,object_09,5,1833,0,3,4,forest_6,2,memory-2step-stake-s,622,2655886,0.0-19.0-0.1-0.132,A3USP1ZP069KCK,3VGZ74AYUJWEHZMTR9OBXS32OP2GCF,33TIN5LC08QFRBYKZX5SRM5LHCO9YL,3,4
133,2,object_07,object_06,632.0,3,1,370.39999961853,0.3333333333333333,1,object_09,5,1848,0,3,2,forest_4,2,memory-2step-stake-s,623,2663773,0.0-19.0-0.1-0.133,A3USP1ZP069KCK,3VGZ74AYUJWEHZMTR9OBXS32OP2GCF,33TIN5LC08QFRBYKZX5SRM5LHCO9YL,3,4
134,1,object_04,object_08,751.10000038147,1,1,602.39999961853,0.5555555555555556,1,object_09,5,1873,0,5,1,desert_4,2,memory-2step-stake-s,624,2672091,0.0-19.0-0.1-0.134,A3USP1ZP069KCK,3VGZ74AYUJWEHZMTR9OBXS32OP2GCF,33TIN5LC08QFRBYKZX5SRM5LHCO9YL,1,2
135,4,object_03,object_10,569.20000076294,7,2,330.10000038147,0.5555555555555556,1,object_09,5,1898,0,5,1,restaurant_6,2,memory-2step-stake-s,625,2680136,0.0-19.0-0.1-0.135,A3USP1ZP069KCK,3VGZ74AYUJWEHZMTR9OBXS32OP2GCF,33TIN5LC08QFRBYKZX5SRM5LHCO9YL,8,7
136,3,object_01,object_02,688.0,5,1,476.5,0.1111111111111111,1,object_09,5,1903,0,1,2,library_6,2,memory-2step-stake-s,626,2687930,0.0-19.0-0.1-0.136,A3USP1ZP069KCK,3VGZ74AYUJWEHZMTR9OBXS32OP2GCF,33TIN5LC08QFRBYKZX5SRM5LHCO9YL,5,6
137,3,object_02,object_01,542.29999923706,6,1,280.60000038147,0.1111111111111111,2,object_05,1,1904,0,0,1,library_6,2,memory-2step-stake-s,627,2695525,0.0-19.0-0.1-0.137,A3USP1ZP069KCK,3VGZ74AYUJWEHZMTR9OBXS32OP2GCF,33TIN5LC08QFRBYKZX5SRM5LHCO9YL,6,5
138,4,object_03,object_10,644.0,7,2,783.19999885559,0.0,1,object_09,1,1904,0,0,1,restaurant_6,2,memory-2step-stake-s,628,2703520,0.0-19.0-0.1-0.138,A3USP1ZP069KCK,3VGZ74AYUJWEHZMTR9OBXS32OP2GCF,33TIN5LC08QFRBYKZX5SRM5LHCO9YL,8,7
139,4,object_03,object_10,594.80000114441,7,2,325.89999961853,0.3333333333333333,1,object_09,1,1907,0,3,2,restaurant_4,2,memory-2step-stake-s,629,2711359,0.0-19.0-0.1-0.139,A3USP1ZP069KCK,3VGZ74AYUJWEHZMTR9OBXS32OP2GCF,33TIN5LC08QFRBYKZX5SRM5LHCO9YL,8,7
140,4,object_03,object_10,507.29999923706,7,2,279.70000076294,0.0,1,object_09,1,1907,0,0,3,restaurant_1,2,memory-2step-stake-s,630,2718848,0.0-19.0-0.1-0.140,A3USP1ZP069KCK,3VGZ74AYUJWEHZMTR9OBXS32OP2GCF,33TIN5LC08QFRBYKZX5SRM5LHCO9YL,8,7
141,2,object_07,object_06,792.39999961853,4,2,404.29999923706,0.5555555555555556,2,object_05,5,1932,0,3,5,forest_6,2,memory-2step-stake-s,631,2726971,0.0-19.0-0.1-0.141,A3USP1ZP069KCK,3VGZ74AYUJWEHZMTR9OBXS32OP2GCF,33TIN5LC08QFRBYKZX5SRM5LHCO9YL,3,4
142,3,object_01,object_02,807.79999923706,6,2,515.89999961853,0.3333333333333333,2,object_05,1,1935,0,5,3,library_1,2,memory-2step-stake-s,632,2735005,0.0-19.0-0.1-0.142,A3USP1ZP069KCK,3VGZ74AYUJWEHZMTR9OBXS32OP2GCF,33TIN5LC08QFRBYKZX5SRM5LHCO9YL,5,6
143,3,object_02,object_01,616.39999961853,5,2,332.5,0.5555555555555556,1,object_09,1,1940,0,5,3,library_2,2,memory-2step-stake-s,633,2743051,0.0-19.0-0.1-0.143,A3USP1ZP069KCK,3VGZ74AYUJWEHZMTR9OBXS32OP2GCF,33TIN5LC08QFRBYKZX5SRM5LHCO9YL,6,5
144,1,object_04,object_08,897.60000038147,1,1,710.60000038147,0.7777777777777778,1,object_09,5,1975,0,7,3,desert_5,2,memory-2step-stake-s,634,2751679,0.0-19.0-0.1-0.144,A3USP1ZP069KCK,3VGZ74AYUJWEHZMTR9OBXS32OP2GCF,33TIN5LC08QFRBYKZX5SRM5LHCO9YL,1,2
145,1,object_04,object_08,660.60000038147,1,1,334.19999885559,1.0,1,object_09,5,2020,0,9,4,desert_2,2,memory-2step-stake-s,635,2760132,0.0-19.0-0.1-0.145,A3USP1ZP069KCK,3VGZ74AYUJWEHZMTR9OBXS32OP2GCF,33TIN5LC08QFRBYKZX5SRM5LHCO9YL,1,2
146,4,object_03,object_10,968.0,8,1,531.39999961853,0.2222222222222222,2,object_05,1,2022,0,8,2,restaurant_6,2,memory-2step-stake-s,636,2768077,0.0-19.0-0.1-0.146,A3USP1ZP069KCK,3VGZ74AYUJWEHZMTR9OBXS32OP2GCF,33TIN5LC08QFRBYKZX5SRM5LHCO9YL,8,7
147,4,object_10,object_03,798.09999847412,8,2,386.70000076294,0.3333333333333333,2,object_05,1,2025,0,5,3,restaurant_6,2,memory-2step-stake-s,637,2775981,0.0-19.0-0.1-0.147,A3USP1ZP069KCK,3VGZ74AYUJWEHZMTR9OBXS32OP2GCF,33TIN5LC08QFRBYKZX5SRM5LHCO9YL,7,8
148,1,object_08,object_04,877.39999961853,2,1,328.69999885559,0.3333333333333333,2,object_05,5,2040,0,5,3,desert_5,2,memory-2step-stake-s,638,2783826,0.0-19.0-0.1-0.148,A3USP1ZP069KCK,3VGZ74AYUJWEHZMTR9OBXS32OP2GCF,33TIN5LC08QFRBYKZX5SRM5LHCO9YL,2,1
149,4,object_03,object_10,664.5,8,1,405.30000114441,0.2222222222222222,2,object_05,1,2042,0,9,2,restaurant_5,2,memory-2step-stake-s,639,2791644,0.0-19.0-0.1-0.149,A3USP1ZP069KCK,3VGZ74AYUJWEHZMTR9OBXS32OP2GCF,33TIN5LC08QFRBYKZX5SRM5LHCO9YL,8,7
150,3,object_01,object_02,836.29999923706,6,2,344.10000038147,0.3333333333333333,2,object_05,1,2045,0,7,3,library_2,2,memory-2step-stake-s,640,2799501,0.0-19.0-0.1-0.150,A3USP1ZP069KCK,3VGZ74AYUJWEHZMTR9OBXS32OP2GCF,33TIN5LC08QFRBYKZX5SRM5LHCO9YL,5,6
151,4,object_10,object_03,726.79999923706,8,2,386.20000076294,0.7777777777777778,2,object_05,5,2080,0,7,7,restaurant_6,2,memory-2step-stake-s,641,2807808,0.0-19.0-0.1-0.151,A3USP1ZP069KCK,3VGZ74AYUJWEHZMTR9OBXS32OP2GCF,33TIN5LC08QFRBYKZX5SRM5LHCO9YL,7,8
152,4,object_10,object_03,621.60000038147,8,2,425.29999923706,1.0,2,object_05,1,2089,0,8,9,restaurant_6,2,memory-2step-stake-s,642,2816356,0.0-19.0-0.1-0.152,A3USP1ZP069KCK,3VGZ74AYUJWEHZMTR9OBXS32OP2GCF,33TIN5LC08QFRBYKZX5SRM5LHCO9YL,7,8
153,1,object_08,object_04,676.30000114441,2,1,368.90000152588,0.8888888888888888,2,object_05,5,2129,0,9,8,desert_1,2,memory-2step-stake-s,643,2824744,0.0-19.0-0.1-0.153,A3USP1ZP069KCK,3VGZ74AYUJWEHZMTR9OBXS32OP2GCF,33TIN5LC08QFRBYKZX5SRM5LHCO9YL,2,1
154,1,object_08,object_04,711.70000076294,2,1,91.10000038147,0.7777777777777778,2,object_05,5,2164,0,7,7,desert_5,2,memory-2step-stake-s,644,2832751,0.0-19.0-0.1-0.154,A3USP1ZP069KCK,3VGZ74AYUJWEHZMTR9OBXS32OP2GCF,33TIN5LC08QFRBYKZX5SRM5LHCO9YL,2,1
155,2,object_07,object_06,727.70000076294,4,2,514.5,0.7777777777777778,2,object_05,5,2199,0,8,7,forest_6,2,memory-2step-stake-s,645,2841184,0.0-19.0-0.1-0.155,A3USP1ZP069KCK,3VGZ74AYUJWEHZMTR9OBXS32OP2GCF,33TIN5LC08QFRBYKZX5SRM5LHCO9YL,3,4
156,1,object_04,object_08,487.5,2,2,395.10000038147,0.6666666666666666,2,object_05,1,2205,0,6,6,desert_1,2,memory-2step-stake-s,646,2849395,0.0-19.0-0.1-0.156,A3USP1ZP069KCK,3VGZ74AYUJWEHZMTR9OBXS32OP2GCF,33TIN5LC08QFRBYKZX5SRM5LHCO9YL,1,2
157,3,object_01,object_02,690.5,6,2,438.60000038147,0.8888888888888888,2,object_05,1,2213,0,5,8,library_8,2,memory-2step-stake-s,647,2861408,0.0-19.0-0.1-0.157,A3USP1ZP069KCK,3VGZ74AYUJWEHZMTR9OBXS32OP2GCF,33TIN5LC08QFRBYKZX5SRM5LHCO9YL,5,6
158,2,object_07,object_06,714.5,4,2,325.79999923706,0.8888888888888888,2,object_05,5,2253,0,3,8,forest_5,2,memory-2step-stake-s,648,2869759,0.0-19.0-0.1-0.158,A3USP1ZP069KCK,3VGZ74AYUJWEHZMTR9OBXS32OP2GCF,33TIN5LC08QFRBYKZX5SRM5LHCO9YL,3,4
159,3,object_01,object_02,687.70000076294,6,2,386.20000076294,0.5555555555555556,2,object_05,1,2258,0,3,5,library_1,2,memory-2step-stake-s,649,2878016,0.0-19.0-0.1-0.159,A3USP1ZP069KCK,3VGZ74AYUJWEHZMTR9OBXS32OP2GCF,33TIN5LC08QFRBYKZX5SRM5LHCO9YL,5,6
160,4,object_03,object_10,808.10000038147,7,2,445.79999923706,0.2222222222222222,1,object_09,1,2260,0,2,8,restaurant_4,2,memory-2step-stake-s,650,2885877,0.0-19.0-0.1-0.160,A3USP1ZP069KCK,3VGZ74AYUJWEHZMTR9OBXS32OP2GCF,33TIN5LC08QFRBYKZX5SRM5LHCO9YL,8,7
161,1,object_04,object_08,799.69999885559,2,2,283.20000076294,1.0,2,object_05,5,2305,0,0,9,desert_4,2,memory-2step-stake-s,651,2894280,0.0-19.0-0.1-0.161,A3USP1ZP069KCK,3VGZ74AYUJWEHZMTR9OBXS32OP2GCF,33TIN5LC08QFRBYKZX5SRM5LHCO9YL,1,2
162,2,object_06,object_07,1012.6000003815,4,1,533.10000038147,0.8888888888888888,2,object_05,5,2345,0,2,8,forest_7,2,memory-2step-stake-s,652,2902834,0.0-19.0-0.1-0.162,A3USP1ZP069KCK,3VGZ74AYUJWEHZMTR9OBXS32OP2GCF,33TIN5LC08QFRBYKZX5SRM5LHCO9YL,4,3
163,1,object_08,object_04,761.60000038147,2,1,437.89999961853,0.8888888888888888,2,object_05,5,2385,0,2,8,desert_4,2,memory-2step-stake-s,653,2911293,0.0-19.0-0.1-0.163,A3USP1ZP069KCK,3VGZ74AYUJWEHZMTR9OBXS32OP2GCF,33TIN5LC08QFRBYKZX5SRM5LHCO9YL,2,1
164,1,object_08,object_04,575.69999885559,2,1,436.29999923706,0.6666666666666666,2,object_05,5,2415,0,2,6,desert_5,2,memory-2step-stake-s,654,2919551,0.0-19.0-0.1-0.164,A3USP1ZP069KCK,3VGZ74AYUJWEHZMTR9OBXS32OP2GCF,33TIN5LC08QFRBYKZX5SRM5LHCO9YL,2,1
165,4,object_10,object_03,983.10000038147,8,2,418.5,1.0,2,object_05,1,2424,0,1,9,restaurant_5,2,memory-2step-stake-s,655,2928092,0.0-19.0-0.1-0.165,A3USP1ZP069KCK,3VGZ74AYUJWEHZMTR9OBXS32OP2GCF,33TIN5LC08QFRBYKZX5SRM5LHCO9YL,7,8
166,1,object_08,object_04,675.39999961853,2,1,847.5,0.7777777777777778,2,object_05,1,2431,0,5,7,desert_1,2,memory-2step-stake-s,656,2936856,0.0-19.0-0.1-0.166,A3USP1ZP069KCK,3VGZ74AYUJWEHZMTR9OBXS32OP2GCF,33TIN5LC08QFRBYKZX5SRM5LHCO9YL,2,1
167,2,object_06,object_07,703.70000076294,4,1,834.70000076294,1.0,2,object_05,5,2476,0,4,9,forest_7,2,memory-2step-stake-s,657,2945811,0.0-19.0-0.1-0.167,A3USP1ZP069KCK,3VGZ74AYUJWEHZMTR9OBXS32OP2GCF,33TIN5LC08QFRBYKZX5SRM5LHCO9YL,4,3
168,3,object_01,object_02,675.19999885559,6,2,439.19999885559,0.7777777777777778,2,object_05,1,2483,0,1,7,library_2,2,memory-2step-stake-s,658,2954168,0.0-19.0-0.1-0.168,A3USP1ZP069KCK,3VGZ74AYUJWEHZMTR9OBXS32OP2GCF,33TIN5LC08QFRBYKZX5SRM5LHCO9YL,5,6
169,2,object_06,object_07,903.69999885559,4,1,368.89999961853,0.4444444444444444,2,object_05,5,2503,0,1,4,forest_7,2,memory-2step-stake-s,659,2962152,0.0-19.0-0.1-0.169,A3USP1ZP069KCK,3VGZ74AYUJWEHZMTR9OBXS32OP2GCF,33TIN5LC08QFRBYKZX5SRM5LHCO9YL,4,3
170,1,object_04,object_08,733.39999961853,2,2,447.10000038147,0.2222222222222222,2,object_05,5,2513,0,1,2,desert_5,2,memory-2step-stake-s,660,2970015,0.0-19.0-0.1-0.170,A3USP1ZP069KCK,3VGZ74AYUJWEHZMTR9OBXS32OP2GCF,33TIN5LC08QFRBYKZX5SRM5LHCO9YL,1,2
171,4,object_10,object_03,950.30000114441,7,1,529.10000038147,0.1111111111111111,1,object_09,5,2518,0,1,1,restaurant_1,2,memory-2step-stake-s,661,2977855,0.0-19.0-0.1-0.171,A3USP1ZP069KCK,3VGZ74AYUJWEHZMTR9OBXS32OP2GCF,33TIN5LC08QFRBYKZX5SRM5LHCO9YL,7,8
172,1,object_08,object_04,691.79999923706,2,1,855.69999885559,0.1111111111111111,2,object_05,1,2519,0,1,1,desert_1,2,memory-2step-stake-s,662,2986023,0.0-19.0-0.1-0.172,A3USP1ZP069KCK,3VGZ74AYUJWEHZMTR9OBXS32OP2GCF,33TIN5LC08QFRBYKZX5SRM5LHCO9YL,2,1
173,1,object_08,object_04,596.0,2,1,438.69999885559,0.6666666666666666,2,object_05,5,2549,0,0,6,desert_5,2,memory-2step-stake-s,663,2994281,0.0-19.0-0.1-0.173,A3USP1ZP069KCK,3VGZ74AYUJWEHZMTR9OBXS32OP2GCF,33TIN5LC08QFRBYKZX5SRM5LHCO9YL,2,1
174,4,object_03,object_10,810.20000076294,8,1,438.30000114441,0.6666666666666666,2,object_05,1,2555,0,1,6,restaurant_5,2,memory-2step-stake-s,664,3002536,0.0-19.0-0.1-0.174,A3USP1ZP069KCK,3VGZ74AYUJWEHZMTR9OBXS32OP2GCF,33TIN5LC08QFRBYKZX5SRM5LHCO9YL,8,7
175,4,object_10,object_03,713.60000038147,8,2,446.29999923706,0.3333333333333333,2,object_05,1,2558,0,2,3,restaurant_5,2,memory-2step-stake-s,665,3010496,0.0-19.0-0.1-0.175,A3USP1ZP069KCK,3VGZ74AYUJWEHZMTR9OBXS32OP2GCF,33TIN5LC08QFRBYKZX5SRM5LHCO9YL,7,8
176,1,object_04,object_08,676.39999961853,2,2,430.29999923706,0.4444444444444444,2,object_05,5,2578,0,1,4,desert_4,2,memory-2step-stake-s,666,3018540,0.0-19.0-0.1-0.176,A3USP1ZP069KCK,3VGZ74AYUJWEHZMTR9OBXS32OP2GCF,33TIN5LC08QFRBYKZX5SRM5LHCO9YL,1,2
177,1,object_08,object_04,669.5,2,1,576.69999885559,0.3333333333333333,2,object_05,5,2593,0,3,3,desert_2,2,memory-2step-stake-s,667,3026632,0.0-19.0-0.1-0.177,A3USP1ZP069KCK,3VGZ74AYUJWEHZMTR9OBXS32OP2GCF,33TIN5LC08QFRBYKZX5SRM5LHCO9YL,2,1
178,3,object_02,object_01,722.10000038147,6,1,430.5,0.3333333333333333,2,object_05,1,2596,0,2,3,library_1,2,memory-2step-stake-s,668,3034571,0.0-19.0-0.1-0.178,A3USP1ZP069KCK,3VGZ74AYUJWEHZMTR9OBXS32OP2GCF,33TIN5LC08QFRBYKZX5SRM5LHCO9YL,6,5
179,1,object_04,object_08,722.29999923706,2,2,421.0,0.3333333333333333,2,object_05,5,2611,0,0,3,desert_2,2,memory-2step-stake-s,669,3042507,0.0-19.0-0.1-0.179,A3USP1ZP069KCK,3VGZ74AYUJWEHZMTR9OBXS32OP2GCF,33TIN5LC08QFRBYKZX5SRM5LHCO9YL,1,2
180,2,object_06,object_07,731.5,4,1,502.0,0.4444444444444444,2,object_05,5,2631,0,2,4,forest_4,2,memory-2step-stake-s,670,3050625,0.0-19.0-0.1-0.180,A3USP1ZP069KCK,3VGZ74AYUJWEHZMTR9OBXS32OP2GCF,33TIN5LC08QFRBYKZX5SRM5LHCO9YL,4,3
181,2,object_06,object_07,677.39999961853,4,1,8.7999992370605,0.5555555555555556,2,object_05,5,2656,0,4,5,forest_4,2,memory-2step-stake-s,671,3058346,0.0-19.0-0.1-0.181,A3USP1ZP069KCK,3VGZ74AYUJWEHZMTR9OBXS32OP2GCF,33TIN5LC08QFRBYKZX5SRM5LHCO9YL,4,3
182,1,object_04,object_08,780.79999923706,2,2,534.60000038147,0.2222222222222222,2,object_05,5,2666,0,4,2,desert_2,2,memory-2step-stake-s,672,3066295,0.0-19.0-0.1-0.182,A3USP1ZP069KCK,3VGZ74AYUJWEHZMTR9OBXS32OP2GCF,33TIN5LC08QFRBYKZX5SRM5LHCO9YL,1,2
183,4,object_10,object_03,720.40000152588,8,2,523.60000038147,0.0,2,object_05,5,2666,0,3,0,restaurant_1,2,memory-2step-stake-s,673,3074031,0.0-19.0-0.1-0.183,A3USP1ZP069KCK,3VGZ74AYUJWEHZMTR9OBXS32OP2GCF,33TIN5LC08QFRBYKZX5SRM5LHCO9YL,7,8
184,1,object_08,object_04,535.09999847412,2,1,441.89999961853,0.2222222222222222,2,object_05,5,2676,0,5,2,desert_1,2,memory-2step-stake-s,674,3081887,0.0-19.0-0.1-0.184,A3USP1ZP069KCK,3VGZ74AYUJWEHZMTR9OBXS32OP2GCF,33TIN5LC08QFRBYKZX5SRM5LHCO9YL,2,1
185,4,object_10,object_03,774.0,8,2,464.79999923706,0.2222222222222222,2,object_05,1,2678,0,5,2,restaurant_4,2,memory-2step-stake-s,675,3089766,0.0-19.0-0.1-0.185,A3USP1ZP069KCK,3VGZ74AYUJWEHZMTR9OBXS32OP2GCF,33TIN5LC08QFRBYKZX5SRM5LHCO9YL,7,8
186,1,object_04,object_08,648.89999961853,2,2,467.60000038147,0.0,2,object_05,5,2678,0,1,0,desert_5,2,memory-2step-stake-s,676,3097440,0.0-19.0-0.1-0.186,A3USP1ZP069KCK,3VGZ74AYUJWEHZMTR9OBXS32OP2GCF,33TIN5LC08QFRBYKZX5SRM5LHCO9YL,1,2
187,2,object_06,object_07,654.40000152588,3,2,370.90000152588,0.4444444444444444,1,object_09,5,2698,0,4,0,forest_6,2,memory-2step-stake-s,677,3105429,0.0-19.0-0.1-0.187,A3USP1ZP069KCK,3VGZ74AYUJWEHZMTR9OBXS32OP2GCF,33TIN5LC08QFRBYKZX5SRM5LHCO9YL,4,3
188,1,object_08,object_04,548.70000076294,2,1,351.39999961853,0.1111111111111111,2,object_05,5,2703,0,3,1,desert_2,2,memory-2step-stake-s,678,3113091,0.0-19.0-0.1-0.188,A3USP1ZP069KCK,3VGZ74AYUJWEHZMTR9OBXS32OP2GCF,33TIN5LC08QFRBYKZX5SRM5LHCO9YL,2,1
189,3,object_02,object_01,742.10000038147,5,2,578.89999961853,0.4444444444444444,1,object_09,1,2707,0,4,1,library_1,2,memory-2step-stake-s,679,3121284,0.0-19.0-0.1-0.189,A3USP1ZP069KCK,3VGZ74AYUJWEHZMTR9OBXS32OP2GCF,33TIN5LC08QFRBYKZX5SRM5LHCO9YL,6,5
190,1,object_08,object_04,645.29999923706,1,2,361.10000038147,0.6666666666666666,1,object_09,5,2737,0,6,3,desert_2,2,memory-2step-stake-s,680,3129458,0.0-19.0-0.1-0.190,A3USP1ZP069KCK,3VGZ74AYUJWEHZMTR9OBXS32OP2GCF,33TIN5LC08QFRBYKZX5SRM5LHCO9YL,2,1
191,2,object_07,object_06,815.0,3,1,515.10000038147,0.8888888888888888,1,object_09,5,2777,0,8,1,forest_4,2,memory-2step-stake-s,681,3137992,0.0-19.0-0.1-0.191,A3USP1ZP069KCK,3VGZ74AYUJWEHZMTR9OBXS32OP2GCF,33TIN5LC08QFRBYKZX5SRM5LHCO9YL,3,4
192,3,object_01,object_02,656.29999923706,5,1,379.10000038147,0.8888888888888888,1,object_09,1,2785,0,8,1,library_2,2,memory-2step-stake-s,682,3146402,0.0-19.0-0.1-0.192,A3USP1ZP069KCK,3VGZ74AYUJWEHZMTR9OBXS32OP2GCF,33TIN5LC08QFRBYKZX5SRM5LHCO9YL,5,6
193,4,object_10,object_03,884.80000114441,8,2,368.0,0.2222222222222222,2,object_05,1,2787,0,7,2,restaurant_6,2,memory-2step-stake-s,683,3154182,0.0-19.0-0.1-0.193,A3USP1ZP069KCK,3VGZ74AYUJWEHZMTR9OBXS32OP2GCF,33TIN5LC08QFRBYKZX5SRM5LHCO9YL,7,8
194,2,object_07,object_06,886.19999885559,3,1,505.0,0.8888888888888888,1,object_09,1,2795,0,8,1,forest_6,2,memory-2step-stake-s,684,3162708,0.0-19.0-0.1-0.194,A3USP1ZP069KCK,3VGZ74AYUJWEHZMTR9OBXS32OP2GCF,33TIN5LC08QFRBYKZX5SRM5LHCO9YL,3,4
195,3,object_01,object_02,863.39999961853,5,1,330.5,0.6666666666666666,1,object_09,1,2801,0,6,0,library_2,2,memory-2step-stake-s,685,3170855,0.0-19.0-0.1-0.195,A3USP1ZP069KCK,3VGZ74AYUJWEHZMTR9OBXS32OP2GCF,33TIN5LC08QFRBYKZX5SRM5LHCO9YL,5,6
196,2,object_06,object_07,706.80000114441,3,2,391.0,0.6666666666666666,1,object_09,5,2831,0,6,2,forest_7,2,memory-2step-stake-s,686,3179993,0.0-19.0-0.1-0.196,A3USP1ZP069KCK,3VGZ74AYUJWEHZMTR9OBXS32OP2GCF,33TIN5LC08QFRBYKZX5SRM5LHCO9YL,4,3
197,3,object_02,object_01,1347.6000003815,5,2,495.29999923706,0.3333333333333333,1,object_09,1,2834,0,3,3,library_8,2,memory-2step-stake-s,687,3188005,0.0-19.0-0.1-0.197,A3USP1ZP069KCK,3VGZ74AYUJWEHZMTR9OBXS32OP2GCF,33TIN5LC08QFRBYKZX5SRM5LHCO9YL,6,5
198,2,object_06,object_07,687.39999961853,3,2,386.10000038147,0.2222222222222222,1,object_09,1,2836,0,2,3,forest_5,2,memory-2step-stake-s,688,3195806,0.0-19.0-0.1-0.198,A3USP1ZP069KCK,3VGZ74AYUJWEHZMTR9OBXS32OP2GCF,33TIN5LC08QFRBYKZX5SRM5LHCO9YL,4,3
199,1,object_08,object_04,-1.0,-1,-1,-1.0,0.0,-,0,5,2836,0,2,4,desert_5,2,memory-2step-stake-s,689,3202312,0.0-19.0-0.1-0.199,A3USP1ZP069KCK,3VGZ74AYUJWEHZMTR9OBXS32OP2GCF,33TIN5LC08QFRBYKZX5SRM5LHCO9YL,2,1
200,1,object_08,object_04,620.29999923706,1,2,302.90000152588,0.6666666666666666,1,object_09,5,2866,0,6,2,desert_2,2,memory-2step-stake-s,690,3210442,0.0-19.0-0.1-0.200,A3USP1ZP069KCK,3VGZ74AYUJWEHZMTR9OBXS32OP2GCF,33TIN5LC08QFRBYKZX5SRM5LHCO9YL,2,1
201,3,object_02,object_01,632.10000038147,5,2,323.39999961853,0.5555555555555556,1,object_09,1,2871,0,5,3,library_8,2,memory-2step-stake-s,691,3218481,0.0-19.0-0.1-0.201,A3USP1ZP069KCK,3VGZ74AYUJWEHZMTR9OBXS32OP2GCF,33TIN5LC08QFRBYKZX5SRM5LHCO9YL,6,5
202,2,object_07,object_06,766.89999961853,3,1,438.79999923706,0.3333333333333333,1,object_09,5,2886,0,3,1,forest_6,2,memory-2step-stake-s,692,3226437,0.0-19.0-0.1-0.202,A3USP1ZP069KCK,3VGZ74AYUJWEHZMTR9OBXS32OP2GCF,33TIN5LC08QFRBYKZX5SRM5LHCO9YL,3,4
203,2,object_07,object_06,638.89999961853,3,1,488.80000114441,0.0,1,object_09,5,2886,0,0,2,forest_6,2,memory-2step-stake-s,693,3234142,0.0-19.0-0.1-0.203,A3USP1ZP069KCK,3VGZ74AYUJWEHZMTR9OBXS32OP2GCF,33TIN5LC08QFRBYKZX5SRM5LHCO9YL,3,4
204,4,object_03,object_10,642.5,8,1,453.79999923706,0.2222222222222222,2,object_05,5,2896,0,0,2,restaurant_5,2,memory-2step-stake-s,694,3242007,0.0-19.0-0.1-0.204,A3USP1ZP069KCK,3VGZ74AYUJWEHZMTR9OBXS32OP2GCF,33TIN5LC08QFRBYKZX5SRM5LHCO9YL,8,7
205,3,object_01,object_02,751.79999923706,5,1,393.39999961853,0.2222222222222222,1,object_09,5,2906,0,2,6,library_8,2,memory-2step-stake-s,695,3249816,0.0-19.0-0.1-0.205,A3USP1ZP069KCK,3VGZ74AYUJWEHZMTR9OBXS32OP2GCF,33TIN5LC08QFRBYKZX5SRM5LHCO9YL,5,6
206,3,object_01,object_02,710.20000076294,5,1,766.80000114441,0.3333333333333333,1,object_09,1,2909,0,3,9,library_1,2,memory-2step-stake-s,696,3258102,0.0-19.0-0.1-0.206,A3USP1ZP069KCK,3VGZ74AYUJWEHZMTR9OBXS32OP2GCF,33TIN5LC08QFRBYKZX5SRM5LHCO9YL,5,6
207,1,object_08,object_04,888.30000114441,1,2,429.0,0.4444444444444444,1,object_09,5,2929,0,4,9,desert_1,2,memory-2step-stake-s,697,3266146,0.0-19.0-0.1-0.207,A3USP1ZP069KCK,3VGZ74AYUJWEHZMTR9OBXS32OP2GCF,33TIN5LC08QFRBYKZX5SRM5LHCO9YL,2,1
208,1,object_04,object_08,765.5,1,1,377.5,0.5555555555555556,1,object_09,5,2954,0,5,9,desert_2,2,memory-2step-stake-s,698,3274254,0.0-19.0-0.1-0.208,A3USP1ZP069KCK,3VGZ74AYUJWEHZMTR9OBXS32OP2GCF,33TIN5LC08QFRBYKZX5SRM5LHCO9YL,1,2
209,2,object_07,object_06,779.79999923706,3,1,294.0,0.6666666666666666,1,object_09,5,2984,0,6,9,forest_6,2,memory-2step-stake-s,699,3282372,0.0-19.0-0.1-0.209,A3USP1ZP069KCK,3VGZ74AYUJWEHZMTR9OBXS32OP2GCF,33TIN5LC08QFRBYKZX5SRM5LHCO9YL,3,4
210,3,object_01,object_02,645.30000114441,5,1,440.89999961853,0.6666666666666666,1,object_09,1,2990,0,6,6,library_6,2,memory-2step-stake-s,700,3290632,0.0-19.0-0.1-0.210,A3USP1ZP069KCK,3VGZ74AYUJWEHZMTR9OBXS32OP2GCF,33TIN5LC08QFRBYKZX5SRM5LHCO9YL,5,6
211,2,object_07,object_06,553.19999885559,3,1,354.39999961853,0.6666666666666666,1,object_09,1,2996,0,6,6,forest_5,2,memory-2step-stake-s,701,3298813,0.0-19.0-0.1-0.211,A3USP1ZP069KCK,3VGZ74AYUJWEHZMTR9OBXS32OP2GCF,33TIN5LC08QFRBYKZX5SRM5LHCO9YL,3,4
212,2,object_06,object_07,989.39999961853,3,2,596.20000076294,0.7777777777777778,1,object_09,5,3031,0,7,5,forest_6,2,memory-2step-stake-s,702,3307328,0.0-19.0-0.1-0.212,A3USP1ZP069KCK,3VGZ74AYUJWEHZMTR9OBXS32OP2GCF,33TIN5LC08QFRBYKZX5SRM5LHCO9YL,4,3
213,4,object_03,object_10,978.29999923706,8,1,405.40000152588,0.4444444444444444,2,object_05,1,3035,0,8,4,restaurant_1,2,memory-2step-stake-s,703,3315350,0.0-19.0-0.1-0.213,A3USP1ZP069KCK,3VGZ74AYUJWEHZMTR9OBXS32OP2GCF,33TIN5LC08QFRBYKZX5SRM5LHCO9YL,8,7
214,4,object_03,object_10,705.89999961853,7,2,1228.8000011444,0.8888888888888888,1,object_09,1,3043,0,8,5,restaurant_1,2,memory-2step-stake-s,704,3324599,0.0-19.0-0.1-0.214,A3USP1ZP069KCK,3VGZ74AYUJWEHZMTR9OBXS32OP2GCF,33TIN5LC08QFRBYKZX5SRM5LHCO9YL,8,7
215,3,object_02,object_01,675.10000038147,6,1,534.0,0.4444444444444444,2,object_05,1,3047,0,6,4,library_6,2,memory-2step-stake-s,705,3332754,0.0-19.0-0.1-0.215,A3USP1ZP069KCK,3VGZ74AYUJWEHZMTR9OBXS32OP2GCF,33TIN5LC08QFRBYKZX5SRM5LHCO9YL,6,5
216,3,object_02,object_01,473.0,5,2,739.19999885559,0.5555555555555556,1,object_09,1,3052,0,5,4,library_1,2,memory-2step-stake-s,706,3341209,0.0-19.0-0.1-0.216,A3USP1ZP069KCK,3VGZ74AYUJWEHZMTR9OBXS32OP2GCF,33TIN5LC08QFRBYKZX5SRM5LHCO9YL,6,5
217,4,object_10,object_03,678.09999847412,7,1,880.59999847412,0.5555555555555556,1,object_09,1,3057,0,5,2,restaurant_6,2,memory-2step-stake-s,707,3349808,0.0-19.0-0.1-0.217,A3USP1ZP069KCK,3VGZ74AYUJWEHZMTR9OBXS32OP2GCF,33TIN5LC08QFRBYKZX5SRM5LHCO9YL,7,8
218,1,object_04,object_08,893.79999923706,1,1,330.60000038147,0.4444444444444444,1,object_09,1,3061,0,4,1,desert_4,2,memory-2step-stake-s,708,3357757,0.0-19.0-0.1-0.218,A3USP1ZP069KCK,3VGZ74AYUJWEHZMTR9OBXS32OP2GCF,33TIN5LC08QFRBYKZX5SRM5LHCO9YL,1,2
219,4,object_10,object_03,505.69999885559,7,1,924.80000114441,0.6666666666666666,1,object_09,1,3067,0,6,4,restaurant_1,2,memory-2step-stake-s,709,3366501,0.0-19.0-0.1-0.219,A3USP1ZP069KCK,3VGZ74AYUJWEHZMTR9OBXS32OP2GCF,33TIN5LC08QFRBYKZX5SRM5LHCO9YL,7,8
220,4,object_10,object_03,562.79999923706,7,1,558.29999923706,0.8888888888888888,1,object_09,1,3075,0,8,6,restaurant_1,2,memory-2step-stake-s,710,3375082,0.0-19.0-0.1-0.220,A3USP1ZP069KCK,3VGZ74AYUJWEHZMTR9OBXS32OP2GCF,33TIN5LC08QFRBYKZX5SRM5LHCO9YL,7,8
221,1,object_08,object_04,674.5,1,2,629.60000038147,0.5555555555555556,1,object_09,5,3100,0,5,6,desert_1,2,memory-2step-stake-s,711,3383434,0.0-19.0-0.1-0.221,A3USP1ZP069KCK,3VGZ74AYUJWEHZMTR9OBXS32OP2GCF,33TIN5LC08QFRBYKZX5SRM5LHCO9YL,2,1
222,3,object_02,object_01,718.79999923706,5,2,385.20000076294,0.8888888888888888,1,object_09,1,3108,0,8,5,library_8,2,memory-2step-stake-s,712,3391838,0.0-19.0-0.1-0.222,A3USP1ZP069KCK,3VGZ74AYUJWEHZMTR9OBXS32OP2GCF,33TIN5LC08QFRBYKZX5SRM5LHCO9YL,6,5
223,3,object_01,object_02,603.39999961853,5,1,821.10000038147,0.7777777777777778,1,object_09,1,3115,0,7,4,library_8,2,memory-2step-stake-s,713,3400572,0.0-19.0-0.1-0.223,A3USP1ZP069KCK,3VGZ74AYUJWEHZMTR9OBXS32OP2GCF,33TIN5LC08QFRBYKZX5SRM5LHCO9YL,5,6
224,2,object_07,object_06,684.5,3,1,463.60000038147,0.6666666666666666,1,object_09,5,3145,0,6,4,forest_6,2,memory-2step-stake-s,714,3408856,0.0-19.0-0.1-0.224,A3USP1ZP069KCK,3VGZ74AYUJWEHZMTR9OBXS32OP2GCF,33TIN5LC08QFRBYKZX5SRM5LHCO9YL,3,4
225,2,object_06,object_07,959.0,3,2,387.89999961853,0.7777777777777778,1,object_09,5,3180,0,7,5,forest_6,2,memory-2step-stake-s,715,3417163,0.0-19.0-0.1-0.225,A3USP1ZP069KCK,3VGZ74AYUJWEHZMTR9OBXS32OP2GCF,33TIN5LC08QFRBYKZX5SRM5LHCO9YL,4,3
226,3,object_02,object_01,693.59999847412,5,2,432.79999923706,0.6666666666666666,1,object_09,5,3210,0,6,5,library_1,2,memory-2step-stake-s,716,3425413,0.0-19.0-0.1-0.226,A3USP1ZP069KCK,3VGZ74AYUJWEHZMTR9OBXS32OP2GCF,33TIN5LC08QFRBYKZX5SRM5LHCO9YL,6,5
227,1,object_04,object_08,-1.0,-1,-1,-1.0,0.0,-,0,5,3210,0,7,4,desert_4,2,memory-2step-stake-s,717,3434472,0.0-19.0-0.1-0.227,A3USP1ZP069KCK,3VGZ74AYUJWEHZMTR9OBXS32OP2GCF,33TIN5LC08QFRBYKZX5SRM5LHCO9YL,1,2
228,2,object_07,object_06,-1.0,-1,-1,-1.0,0.0,-,0,1,3210,0,6,5,forest_5,2,memory-2step-stake-s,718,3444474,0.0-19.0-0.1-0.228,A3USP1ZP069KCK,3VGZ74AYUJWEHZMTR9OBXS32OP2GCF,33TIN5LC08QFRBYKZX5SRM5LHCO9YL,3,4
229,1,object_08,object_04,-1.0,-1,-1,-1.0,0.0,-,0,5,3210,0,5,6,desert_1,2,memory-2step-stake-s,719,3454473,0.0-19.0-0.1-0.229,A3USP1ZP069KCK,3VGZ74AYUJWEHZMTR9OBXS32OP2GCF,33TIN5LC08QFRBYKZX5SRM5LHCO9YL,2,1
230,2,object_07,object_06,-1.0,-1,-1,-1.0,0.0,-,0,5,3210,0,5,6,forest_5,2,memory-2step-stake-s,720,3464469,0.0-19.0-0.1-0.230,A3USP1ZP069KCK,3VGZ74AYUJWEHZMTR9OBXS32OP2GCF,33TIN5LC08QFRBYKZX5SRM5LHCO9YL,3,4
231,2,object_06,object_07,-1.0,-1,-1,-1.0,0.0,-,0,5,3210,0,5,7,forest_4,2,memory-2step-stake-s,721,3474468,0.0-19.0-0.1-0.231,A3USP1ZP069KCK,3VGZ74AYUJWEHZMTR9OBXS32OP2GCF,33TIN5LC08QFRBYKZX5SRM5LHCO9YL,4,3
232,1,object_08,object_04,-1.0,-1,-1,-1.0,0.0,-,0,1,3210,0,5,5,desert_5,2,memory-2step-stake-s,722,3484469,0.0-19.0-0.1-0.232,A3USP1ZP069KCK,3VGZ74AYUJWEHZMTR9OBXS32OP2GCF,33TIN5LC08QFRBYKZX5SRM5LHCO9YL,2,1
233,4,object_03,object_10,-1.0,-1,-1,-1.0,0.0,-,0,1,3210,0,4,4,restaurant_5,2,memory-2step-stake-s,723,3494469,0.0-19.0-0.1-0.233,A3USP1ZP069KCK,3VGZ74AYUJWEHZMTR9OBXS32OP2GCF,33TIN5LC08QFRBYKZX5SRM5LHCO9YL,8,7
234,3,object_02,object_01,1315.8999996185,5,2,378.69999885559,0.2222222222222222,1,object_09,5,3220,0,2,3,library_6,2,memory-2step-stake-s,724,3505033,0.0-19.0-0.1-0.234,A3USP1ZP069KCK,3VGZ74AYUJWEHZMTR9OBXS32OP2GCF,33TIN5LC08QFRBYKZX5SRM5LHCO9YL,6,5
235,2,object_06,object_07,428.39999961853,4,1,367.0,0.3333333333333333,2,object_05,5,3235,0,1,3,forest_6,2,memory-2step-stake-s,725,3515863,0.0-19.0-0.1-0.235,A3USP1ZP069KCK,3VGZ74AYUJWEHZMTR9OBXS32OP2GCF,33TIN5LC08QFRBYKZX5SRM5LHCO9YL,4,3
236,4,object_10,object_03,1146.8999996185,8,2,459.60000038147,0.5555555555555556,2,object_05,1,3240,0,5,5,restaurant_1,2,memory-2step-stake-s,726,3526464,0.0-19.0-0.1-0.236,A3USP1ZP069KCK,3VGZ74AYUJWEHZMTR9OBXS32OP2GCF,33TIN5LC08QFRBYKZX5SRM5LHCO9YL,7,8
237,3,object_01,object_02,1014.6000003815,5,1,337.29999923706,0.3333333333333333,1,object_09,1,3243,0,3,4,library_2,2,memory-2step-stake-s,727,3535368,0.0-19.0-0.1-0.237,A3USP1ZP069KCK,3VGZ74AYUJWEHZMTR9OBXS32OP2GCF,33TIN5LC08QFRBYKZX5SRM5LHCO9YL,5,6
238,2,object_06,object_07,1454.1000003815,3,2,-1.0,0.0,1,object_09,5,3243,0,3,4,forest_5,2,memory-2step-stake-s,728,3543882,0.0-19.0-0.1-0.238,A3USP1ZP069KCK,3VGZ74AYUJWEHZMTR9OBXS32OP2GCF,33TIN5LC08QFRBYKZX5SRM5LHCO9YL,4,3
239,3,object_02,object_01,-1.0,-1,-1,-1.0,0.0,-,0,5,3243,0,2,4,library_8,2,memory-2step-stake-s,729,3550388,0.0-19.0-0.1-0.239,A3USP1ZP069KCK,3VGZ74AYUJWEHZMTR9OBXS32OP2GCF,33TIN5LC08QFRBYKZX5SRM5LHCO9YL,6,5
240,3,object_02,object_01,548.10000038147,5,2,326.29999923706,0.1111111111111111,1,object_09,1,3244,0,1,6,library_6,2,memory-2step-stake-s,730,3558027,0.0-19.0-0.1-0.240,A3USP1ZP069KCK,3VGZ74AYUJWEHZMTR9OBXS32OP2GCF,33TIN5LC08QFRBYKZX5SRM5LHCO9YL,6,5
241,4,object_03,object_10,787.5,8,1,470.39999961853,0.8888888888888888,2,object_05,1,3252,0,0,8,restaurant_6,2,memory-2step-stake-s,731,3566522,0.0-19.0-0.1-0.241,A3USP1ZP069KCK,3VGZ74AYUJWEHZMTR9OBXS32OP2GCF,33TIN5LC08QFRBYKZX5SRM5LHCO9YL,8,7
242,1,object_08,object_04,628.39999961853,1,2,855.5,0.2222222222222222,1,object_09,5,3262,0,2,7,desert_4,2,memory-2step-stake-s,732,3574792,0.0-19.0-0.1-0.242,A3USP1ZP069KCK,3VGZ74AYUJWEHZMTR9OBXS32OP2GCF,33TIN5LC08QFRBYKZX5SRM5LHCO9YL,2,1
243,2,object_07,object_06,591.20000076294,4,2,298.39999961853,0.5555555555555556,2,object_05,5,3287,0,3,5,forest_6,2,memory-2step-stake-s,733,3582805,0.0-19.0-0.1-0.243,A3USP1ZP069KCK,3VGZ74AYUJWEHZMTR9OBXS32OP2GCF,33TIN5LC08QFRBYKZX5SRM5LHCO9YL,3,4
244,2,object_06,object_07,793.69999885559,3,2,473.29999923706,0.3333333333333333,1,object_09,5,3302,0,3,4,forest_4,2,memory-2step-stake-s,734,3590793,0.0-19.0-0.1-0.244,A3USP1ZP069KCK,3VGZ74AYUJWEHZMTR9OBXS32OP2GCF,33TIN5LC08QFRBYKZX5SRM5LHCO9YL,4,3
245,2,object_06,object_07,569.39999961853,3,2,356.10000038147,0.4444444444444444,1,object_09,5,3322,0,4,1,forest_4,2,memory-2step-stake-s,735,3598765,0.0-19.0-0.1-0.245,A3USP1ZP069KCK,3VGZ74AYUJWEHZMTR9OBXS32OP2GCF,33TIN5LC08QFRBYKZX5SRM5LHCO9YL,4,3
246,2,object_06,object_07,526.39999961853,3,2,289.5,0.4444444444444444,1,object_09,5,3342,0,4,0,forest_7,2,memory-2step-stake-s,736,3606671,0.0-19.0-0.1-0.246,A3USP1ZP069KCK,3VGZ74AYUJWEHZMTR9OBXS32OP2GCF,33TIN5LC08QFRBYKZX5SRM5LHCO9YL,4,3
247,2,object_07,object_06,779.5,3,1,661.90000152588,0.0,1,object_09,5,3342,0,0,0,forest_7,2,memory-2step-stake-s,737,3614545,0.0-19.0-0.1-0.247,A3USP1ZP069KCK,3VGZ74AYUJWEHZMTR9OBXS32OP2GCF,33TIN5LC08QFRBYKZX5SRM5LHCO9YL,3,4
248,4,object_03,object_10,792.29999923706,8,1,212.0,0.3333333333333333,2,object_05,1,3345,0,0,3,restaurant_1,2,memory-2step-stake-s,738,3622273,0.0-19.0-0.1-0.248,A3USP1ZP069KCK,3VGZ74AYUJWEHZMTR9OBXS32OP2GCF,33TIN5LC08QFRBYKZX5SRM5LHCO9YL,8,7
249,4,object_10,object_03,698.39999961853,7,1,357.20000076294,0.1111111111111111,1,object_09,5,3350,0,1,3,restaurant_6,2,memory-2step-stake-s,739,3629943,0.0-19.0-0.1-0.249,A3USP1ZP069KCK,3VGZ74AYUJWEHZMTR9OBXS32OP2GCF,33TIN5LC08QFRBYKZX5SRM5LHCO9YL,7,8
250,2,object_07,object_06,635.60000038147,4,2,480.0,0.1111111111111111,2,object_05,5,3355,0,1,1,forest_5,2,memory-2step-stake-s,740,3637736,0.0-19.0-0.1-0.250,A3USP1ZP069KCK,3VGZ74AYUJWEHZMTR9OBXS32OP2GCF,33TIN5LC08QFRBYKZX5SRM5LHCO9YL,3,4
251,4,object_03,object_10,787.39999961853,7,2,440.5,0.0,1,object_09,1,3355,0,0,1,restaurant_6,2,memory-2step-stake-s,741,3645384,0.0-19.0-0.1-0.251,A3USP1ZP069KCK,3VGZ74AYUJWEHZMTR9OBXS32OP2GCF,33TIN5LC08QFRBYKZX5SRM5LHCO9YL,8,7
252,2,object_06,object_07,623.5,3,2,260.39999961853,0.0,1,object_09,5,3355,0,0,1,forest_5,2,memory-2step-stake-s,742,3652854,0.0-19.0-0.1-0.252,A3USP1ZP069KCK,3VGZ74AYUJWEHZMTR9OBXS32OP2GCF,33TIN5LC08QFRBYKZX5SRM5LHCO9YL,4,3
253,3,object_01,object_02,960.39999961853,6,2,523.20000076294,0.1111111111111111,2,object_05,5,3360,0,1,1,library_1,2,memory-2step-stake-s,743,3660693,0.0-19.0-0.1-0.253,A3USP1ZP069KCK,3VGZ74AYUJWEHZMTR9OBXS32OP2GCF,33TIN5LC08QFRBYKZX5SRM5LHCO9YL,5,6
254,1,object_08,object_04,817.0,1,2,450.0,0.4444444444444444,1,object_09,5,3380,0,4,1,desert_5,2,memory-2step-stake-s,744,3668763,0.0-19.0-0.1-0.254,A3USP1ZP069KCK,3VGZ74AYUJWEHZMTR9OBXS32OP2GCF,33TIN5LC08QFRBYKZX5SRM5LHCO9YL,2,1
255,1,object_04,object_08,732.29999923706,1,1,407.79999923706,0.0,1,object_09,5,3380,0,0,2,desert_2,2,memory-2step-stake-s,745,3676383,0.0-19.0-0.1-0.255,A3USP1ZP069KCK,3VGZ74AYUJWEHZMTR9OBXS32OP2GCF,33TIN5LC08QFRBYKZX5SRM5LHCO9YL,1,2
