,state1,stim_left,stim_right,rt_1,choice1,response1,rt_2,points,state2,stim_state2,stake,score,practice,rews1,rews2,background,high_arm,trial_type,trial_index,time_elapsed,internal_node_id,subid,hitid,assignmentid,stim_left_num,stim_right_num
0,4,object_10,object_08,1017.2000000179,8,2,-1.0,0.0,2,object_03,1,0,0,0,2,restaurant_1,2,memory-2step-stake-s,502,1055730,0.0-19.0-0.0-0.0,A2EH7IQCDH2Q5D,32CXT5U15JJVAEXBU2XNZL8A76W8U1,3NG53N1RLZZL4SN93I3VEZHYT128P0,7,8
1,1,object_01,object_09,868.5,2,1,645.5,0.3333333333333333,2,object_03,1,3,0,1,3,desert_3,2,memory-2step-stake-s,503,1063893,0.0-19.0-0.0-0.1,A2EH7IQCDH2Q5D,32CXT5U15JJVAEXBU2XNZL8A76W8U1,3NG53N1RLZZL4SN93I3VEZHYT128P0,2,1
2,3,object_05,object_02,915.5,6,2,1279.5,0.4444444444444444,2,object_03,1,7,0,2,4,library_6,2,memory-2step-stake-s,504,1072812,0.0-19.0-0.0-0.2,A2EH7IQCDH2Q5D,32CXT5U15JJVAEXBU2XNZL8A76W8U1,3NG53N1RLZZL4SN93I3VEZHYT128P0,5,6
3,1,object_09,object_01,811.5,1,1,-1.0,0.0,1,object_04,5,7,0,3,3,desert_1,2,memory-2step-stake-s,505,1081325,0.0-19.0-0.0-0.3,A2EH7IQCDH2Q5D,32CXT5U15JJVAEXBU2XNZL8A76W8U1,3NG53N1RLZZL4SN93I3VEZHYT128P0,1,2
4,1,object_09,object_01,954.60000002384,1,1,-1.0,0.0,1,object_04,1,7,0,1,1,desert_6,2,memory-2step-stake-s,506,1089839,0.0-19.0-0.0-0.4,A2EH7IQCDH2Q5D,32CXT5U15JJVAEXBU2XNZL8A76W8U1,3NG53N1RLZZL4SN93I3VEZHYT128P0,1,2
5,4,object_10,object_08,996.90000000596,8,2,-1.0,0.0,2,object_03,1,7,0,0,1,restaurant_4,2,memory-2step-stake-s,507,1098351,0.0-19.0-0.0-0.5,A2EH7IQCDH2Q5D,32CXT5U15JJVAEXBU2XNZL8A76W8U1,3NG53N1RLZZL4SN93I3VEZHYT128P0,7,8
6,3,object_02,object_05,890.5,5,2,-1.0,0.0,1,object_04,5,7,0,1,2,library_8,2,memory-2step-stake-s,508,1106871,0.0-19.0-0.0-0.6,A2EH7IQCDH2Q5D,32CXT5U15JJVAEXBU2XNZL8A76W8U1,3NG53N1RLZZL4SN93I3VEZHYT128P0,6,5
7,3,object_05,object_02,359.10000002384,5,1,-1.0,0.0,1,object_04,1,7,0,1,3,library_6,2,memory-2step-stake-s,509,1115384,0.0-19.0-0.0-0.7,A2EH7IQCDH2Q5D,32CXT5U15JJVAEXBU2XNZL8A76W8U1,3NG53N1RLZZL4SN93I3VEZHYT128P0,5,6
8,4,object_08,object_10,846.0,7,2,-1.0,0.0,1,object_04,1,7,0,2,2,restaurant_7,2,memory-2step-stake-s,510,1123898,0.0-19.0-0.0-0.8,A2EH7IQCDH2Q5D,32CXT5U15JJVAEXBU2XNZL8A76W8U1,3NG53N1RLZZL4SN93I3VEZHYT128P0,8,7
9,1,object_09,object_01,794.09999999404,2,2,-1.0,0.0,2,object_03,1,7,0,4,4,desert_5,2,memory-2step-stake-s,511,1132412,0.0-19.0-0.0-0.9,A2EH7IQCDH2Q5D,32CXT5U15JJVAEXBU2XNZL8A76W8U1,3NG53N1RLZZL4SN93I3VEZHYT128P0,1,2
10,4,object_10,object_08,222.5,8,2,-1.0,0.0,2,object_03,5,7,0,4,5,restaurant_6,2,memory-2step-stake-s,512,1140926,0.0-19.0-0.0-0.10,A2EH7IQCDH2Q5D,32CXT5U15JJVAEXBU2XNZL8A76W8U1,3NG53N1RLZZL4SN93I3VEZHYT128P0,7,8
11,4,object_08,object_10,252.19999998808,8,1,-1.0,0.0,2,object_03,1,7,0,7,6,restaurant_1,2,memory-2step-stake-s,513,1149445,0.0-19.0-0.0-0.11,A2EH7IQCDH2Q5D,32CXT5U15JJVAEXBU2XNZL8A76W8U1,3NG53N1RLZZL4SN93I3VEZHYT128P0,8,7
12,2,object_07,object_06,1162.7999999821,4,2,-1.0,0.0,2,object_03,1,7,0,7,3,forest_7,2,memory-2step-stake-s,514,1157965,0.0-19.0-0.0-0.12,A2EH7IQCDH2Q5D,32CXT5U15JJVAEXBU2XNZL8A76W8U1,3NG53N1RLZZL4SN93I3VEZHYT128P0,3,4
13,2,object_07,object_06,822.5,4,2,-1.0,0.0,2,object_03,5,7,0,8,3,forest_6,2,memory-2step-stake-s,515,1166478,0.0-19.0-0.0-0.13,A2EH7IQCDH2Q5D,32CXT5U15JJVAEXBU2XNZL8A76W8U1,3NG53N1RLZZL4SN93I3VEZHYT128P0,3,4
14,4,object_08,object_10,794.90000000596,7,2,-1.0,0.0,1,object_04,1,7,0,6,1,restaurant_1,2,memory-2step-stake-s,516,1174992,0.0-19.0-0.0-0.14,A2EH7IQCDH2Q5D,32CXT5U15JJVAEXBU2XNZL8A76W8U1,3NG53N1RLZZL4SN93I3VEZHYT128P0,8,7
15,2,object_07,object_06,805.40000000596,3,1,-1.0,0.0,1,object_04,1,7,0,7,2,forest_7,2,memory-2step-stake-s,517,1183504,0.0-19.0-0.0-0.15,A2EH7IQCDH2Q5D,32CXT5U15JJVAEXBU2XNZL8A76W8U1,3NG53N1RLZZL4SN93I3VEZHYT128P0,3,4
16,3,object_02,object_05,553.80000001192,5,2,-1.0,0.0,1,object_04,1,7,0,6,2,library_4,2,memory-2step-stake-s,518,1192019,0.0-19.0-0.0-0.16,A2EH7IQCDH2Q5D,32CXT5U15JJVAEXBU2XNZL8A76W8U1,3NG53N1RLZZL4SN93I3VEZHYT128P0,6,5
17,1,object_01,object_09,697.70000001788,1,2,-1.0,0.0,1,object_04,5,7,0,6,0,desert_5,2,memory-2step-stake-s,519,1200533,0.0-19.0-0.0-0.17,A2EH7IQCDH2Q5D,32CXT5U15JJVAEXBU2XNZL8A76W8U1,3NG53N1RLZZL4SN93I3VEZHYT128P0,2,1
18,2,object_06,object_07,936.0,3,2,-1.0,0.0,1,object_04,5,7,0,8,1,forest_8,2,memory-2step-stake-s,520,1209060,0.0-19.0-0.0-0.18,A2EH7IQCDH2Q5D,32CXT5U15JJVAEXBU2XNZL8A76W8U1,3NG53N1RLZZL4SN93I3VEZHYT128P0,4,3
19,2,object_06,object_07,746.40000000596,4,1,-1.0,0.0,2,object_03,5,7,0,9,0,forest_8,2,memory-2step-stake-s,521,1217584,0.0-19.0-0.0-0.19,A2EH7IQCDH2Q5D,32CXT5U15JJVAEXBU2XNZL8A76W8U1,3NG53N1RLZZL4SN93I3VEZHYT128P0,4,3
20,1,object_01,object_09,712.59999999404,2,1,-1.0,0.0,2,object_03,5,7,0,8,2,desert_3,2,memory-2step-stake-s,522,1226098,0.0-19.0-0.0-0.20,A2EH7IQCDH2Q5D,32CXT5U15JJVAEXBU2XNZL8A76W8U1,3NG53N1RLZZL4SN93I3VEZHYT128P0,2,1
21,1,object_09,object_01,459.90000000596,1,1,-1.0,0.0,1,object_04,1,7,0,6,3,desert_3,2,memory-2step-stake-s,523,1234612,0.0-19.0-0.0-0.21,A2EH7IQCDH2Q5D,32CXT5U15JJVAEXBU2XNZL8A76W8U1,3NG53N1RLZZL4SN93I3VEZHYT128P0,1,2
22,4,object_10,object_08,639.10000002384,8,2,-1.0,0.0,2,object_03,1,7,0,8,3,restaurant_7,2,memory-2step-stake-s,524,1243125,0.0-19.0-0.0-0.22,A2EH7IQCDH2Q5D,32CXT5U15JJVAEXBU2XNZL8A76W8U1,3NG53N1RLZZL4SN93I3VEZHYT128P0,7,8
23,3,object_05,object_02,780.79999998212,6,2,-1.0,0.0,2,object_03,1,7,0,8,1,library_3,2,memory-2step-stake-s,525,1251643,0.0-19.0-0.0-0.23,A2EH7IQCDH2Q5D,32CXT5U15JJVAEXBU2XNZL8A76W8U1,3NG53N1RLZZL4SN93I3VEZHYT128P0,5,6
24,4,object_10,object_08,500.90000000596,7,1,-1.0,0.0,1,object_04,5,7,0,8,1,restaurant_7,2,memory-2step-stake-s,526,1260157,0.0-19.0-0.0-0.24,A2EH7IQCDH2Q5D,32CXT5U15JJVAEXBU2XNZL8A76W8U1,3NG53N1RLZZL4SN93I3VEZHYT128P0,7,8
25,4,object_08,object_10,226.40000000596,7,2,-1.0,0.0,1,object_04,1,7,0,9,0,restaurant_7,2,memory-2step-stake-s,527,1268685,0.0-19.0-0.0-0.25,A2EH7IQCDH2Q5D,32CXT5U15JJVAEXBU2XNZL8A76W8U1,3NG53N1RLZZL4SN93I3VEZHYT128P0,8,7
26,4,object_08,object_10,532.40000000596,8,1,-1.0,0.0,2,object_03,5,7,0,7,0,restaurant_4,2,memory-2step-stake-s,528,1277207,0.0-19.0-0.0-0.26,A2EH7IQCDH2Q5D,32CXT5U15JJVAEXBU2XNZL8A76W8U1,3NG53N1RLZZL4SN93I3VEZHYT128P0,8,7
27,2,object_07,object_06,645.80000001192,4,2,-1.0,0.0,2,object_03,5,7,0,4,0,forest_8,2,memory-2step-stake-s,529,1285723,0.0-19.0-0.0-0.27,A2EH7IQCDH2Q5D,32CXT5U15JJVAEXBU2XNZL8A76W8U1,3NG53N1RLZZL4SN93I3VEZHYT128P0,3,4
28,4,object_08,object_10,810.0,8,1,-1.0,0.0,2,object_03,1,7,0,3,3,restaurant_1,2,memory-2step-stake-s,530,1294237,0.0-19.0-0.0-0.28,A2EH7IQCDH2Q5D,32CXT5U15JJVAEXBU2XNZL8A76W8U1,3NG53N1RLZZL4SN93I3VEZHYT128P0,8,7
29,3,object_05,object_02,685.29999998212,6,2,-1.0,0.0,2,object_03,5,7,0,1,1,library_4,2,memory-2step-stake-s,531,1302750,0.0-19.0-0.0-0.29,A2EH7IQCDH2Q5D,32CXT5U15JJVAEXBU2XNZL8A76W8U1,3NG53N1RLZZL4SN93I3VEZHYT128P0,5,6
30,3,object_02,object_05,744.70000001788,6,1,295.69999998808,0.2222222222222222,2,object_03,1,9,0,1,2,library_6,2,memory-2step-stake-s,532,1310464,0.0-19.0-0.0-0.30,A2EH7IQCDH2Q5D,32CXT5U15JJVAEXBU2XNZL8A76W8U1,3NG53N1RLZZL4SN93I3VEZHYT128P0,6,5
31,3,object_05,object_02,605.40000000596,6,2,269.29999998212,0.2222222222222222,2,object_03,5,19,0,2,2,library_6,2,memory-2step-stake-s,533,1318148,0.0-19.0-0.0-0.31,A2EH7IQCDH2Q5D,32CXT5U15JJVAEXBU2XNZL8A76W8U1,3NG53N1RLZZL4SN93I3VEZHYT128P0,5,6
32,2,object_06,object_07,574.09999999404,3,2,305.90000000596,0.1111111111111111,1,object_04,5,24,0,1,1,forest_6,2,memory-2step-stake-s,534,1325769,0.0-19.0-0.0-0.32,A2EH7IQCDH2Q5D,32CXT5U15JJVAEXBU2XNZL8A76W8U1,3NG53N1RLZZL4SN93I3VEZHYT128P0,4,3
33,1,object_09,object_01,356.90000000596,1,1,341.90000000596,0.2222222222222222,1,object_04,5,34,0,2,1,desert_1,2,memory-2step-stake-s,535,1333533,0.0-19.0-0.0-0.33,A2EH7IQCDH2Q5D,32CXT5U15JJVAEXBU2XNZL8A76W8U1,3NG53N1RLZZL4SN93I3VEZHYT128P0,1,2
34,2,object_07,object_06,471.80000001192,4,2,437.19999998808,0.1111111111111111,2,object_03,5,39,0,6,1,forest_6,2,memory-2step-stake-s,536,1341282,0.0-19.0-0.0-0.34,A2EH7IQCDH2Q5D,32CXT5U15JJVAEXBU2XNZL8A76W8U1,3NG53N1RLZZL4SN93I3VEZHYT128P0,3,4
35,4,object_08,object_10,232.40000000596,7,2,425.70000001788,0.3333333333333333,1,object_04,5,54,0,3,2,restaurant_4,2,memory-2step-stake-s,537,1349228,0.0-19.0-0.0-0.35,A2EH7IQCDH2Q5D,32CXT5U15JJVAEXBU2XNZL8A76W8U1,3NG53N1RLZZL4SN93I3VEZHYT128P0,8,7
36,2,object_07,object_06,266.69999998808,4,2,481.0,0.3333333333333333,2,object_03,5,69,0,0,3,forest_8,2,memory-2step-stake-s,538,1357230,0.0-19.0-0.0-0.36,A2EH7IQCDH2Q5D,32CXT5U15JJVAEXBU2XNZL8A76W8U1,3NG53N1RLZZL4SN93I3VEZHYT128P0,3,4
37,3,object_05,object_02,749.90000000596,6,2,546.5,0.1111111111111111,2,object_03,5,74,0,1,1,library_8,2,memory-2step-stake-s,539,1365129,0.0-19.0-0.0-0.37,A2EH7IQCDH2Q5D,32CXT5U15JJVAEXBU2XNZL8A76W8U1,3NG53N1RLZZL4SN93I3VEZHYT128P0,5,6
38,1,object_01,object_09,408.59999999404,2,1,259.69999998808,0.0,2,object_03,5,74,0,1,0,desert_3,2,memory-2step-stake-s,540,1372604,0.0-19.0-0.0-0.38,A2EH7IQCDH2Q5D,32CXT5U15JJVAEXBU2XNZL8A76W8U1,3NG53N1RLZZL4SN93I3VEZHYT128P0,2,1
39,2,object_07,object_06,547.90000000596,3,1,403.30000001192,0.2222222222222222,1,object_04,5,84,0,2,0,forest_8,2,memory-2step-stake-s,541,1380425,0.0-19.0-0.0-0.39,A2EH7IQCDH2Q5D,32CXT5U15JJVAEXBU2XNZL8A76W8U1,3NG53N1RLZZL4SN93I3VEZHYT128P0,3,4
40,4,object_10,object_08,345.39999997616,8,2,646.69999998808,0.1111111111111111,2,object_03,5,89,0,2,1,restaurant_6,2,memory-2step-stake-s,542,1388387,0.0-19.0-0.0-0.40,A2EH7IQCDH2Q5D,32CXT5U15JJVAEXBU2XNZL8A76W8U1,3NG53N1RLZZL4SN93I3VEZHYT128P0,7,8
41,1,object_01,object_09,473.29999998212,1,2,359.90000000596,0.2222222222222222,1,object_04,5,99,0,2,1,desert_6,2,memory-2step-stake-s,543,1396162,0.0-19.0-0.0-0.41,A2EH7IQCDH2Q5D,32CXT5U15JJVAEXBU2XNZL8A76W8U1,3NG53N1RLZZL4SN93I3VEZHYT128P0,2,1
42,2,object_07,object_06,690.79999998212,3,1,194.30000001192,0.1111111111111111,1,object_04,1,100,0,1,4,forest_7,2,memory-2step-stake-s,544,1403681,0.0-19.0-0.0-0.42,A2EH7IQCDH2Q5D,32CXT5U15JJVAEXBU2XNZL8A76W8U1,3NG53N1RLZZL4SN93I3VEZHYT128P0,3,4
43,3,object_05,object_02,550.30000001192,6,2,453.59999999404,0.5555555555555556,2,object_03,5,125,0,2,5,library_3,2,memory-2step-stake-s,545,1411856,0.0-19.0-0.0-0.43,A2EH7IQCDH2Q5D,32CXT5U15JJVAEXBU2XNZL8A76W8U1,3NG53N1RLZZL4SN93I3VEZHYT128P0,5,6
44,4,object_10,object_08,591.40000000596,7,1,446.29999998212,0.1111111111111111,1,object_04,1,126,0,1,1,restaurant_4,2,memory-2step-stake-s,546,1419634,0.0-19.0-0.0-0.44,A2EH7IQCDH2Q5D,32CXT5U15JJVAEXBU2XNZL8A76W8U1,3NG53N1RLZZL4SN93I3VEZHYT128P0,7,8
45,4,object_10,object_08,750.59999999404,8,2,367.19999998808,0.0,2,object_03,1,126,0,2,0,restaurant_4,2,memory-2step-stake-s,547,1427217,0.0-19.0-0.0-0.45,A2EH7IQCDH2Q5D,32CXT5U15JJVAEXBU2XNZL8A76W8U1,3NG53N1RLZZL4SN93I3VEZHYT128P0,7,8
46,3,object_02,object_05,368.90000000596,5,2,358.30000001192,0.2222222222222222,1,object_04,1,128,0,2,2,library_3,2,memory-2step-stake-s,548,1434991,0.0-19.0-0.0-0.46,A2EH7IQCDH2Q5D,32CXT5U15JJVAEXBU2XNZL8A76W8U1,3NG53N1RLZZL4SN93I3VEZHYT128P0,6,5
47,4,object_08,object_10,338.0,7,2,1154.2000000179,0.5555555555555556,1,object_04,1,133,0,5,3,restaurant_7,2,memory-2step-stake-s,549,1443868,0.0-19.0-0.0-0.47,A2EH7IQCDH2Q5D,32CXT5U15JJVAEXBU2XNZL8A76W8U1,3NG53N1RLZZL4SN93I3VEZHYT128P0,8,7
48,3,object_02,object_05,777.90000000596,6,1,680.30000001192,0.4444444444444444,2,object_03,5,153,0,5,4,library_3,2,memory-2step-stake-s,550,1452174,0.0-19.0-0.0-0.48,A2EH7IQCDH2Q5D,32CXT5U15JJVAEXBU2XNZL8A76W8U1,3NG53N1RLZZL4SN93I3VEZHYT128P0,6,5
49,2,object_06,object_07,482.09999999404,3,2,475.79999998212,0.7777777777777778,1,object_04,5,188,0,7,5,forest_7,2,memory-2step-stake-s,551,1460577,0.0-19.0-0.0-0.49,A2EH7IQCDH2Q5D,32CXT5U15JJVAEXBU2XNZL8A76W8U1,3NG53N1RLZZL4SN93I3VEZHYT128P0,4,3
50,1,object_09,object_01,523.79999998212,2,2,464.10000002384,0.5555555555555556,2,object_03,5,213,0,7,5,desert_5,2,memory-2step-stake-s,552,1468776,0.0-19.0-0.0-0.50,A2EH7IQCDH2Q5D,32CXT5U15JJVAEXBU2XNZL8A76W8U1,3NG53N1RLZZL4SN93I3VEZHYT128P0,1,2
51,1,object_09,object_01,442.29999998212,2,2,289.79999998212,0.6666666666666666,2,object_03,5,243,0,8,6,desert_1,2,memory-2step-stake-s,553,1476885,0.0-19.0-0.0-0.51,A2EH7IQCDH2Q5D,32CXT5U15JJVAEXBU2XNZL8A76W8U1,3NG53N1RLZZL4SN93I3VEZHYT128P0,1,2
52,2,object_07,object_06,446.70000001788,3,1,370.59999999404,0.8888888888888888,1,object_04,5,283,0,8,3,forest_6,2,memory-2step-stake-s,554,1485276,0.0-19.0-0.0-0.52,A2EH7IQCDH2Q5D,32CXT5U15JJVAEXBU2XNZL8A76W8U1,3NG53N1RLZZL4SN93I3VEZHYT128P0,3,4
53,4,object_10,object_08,85.800000011921,8,2,299.5,0.2222222222222222,2,object_03,1,285,0,7,2,restaurant_1,2,memory-2step-stake-s,555,1492992,0.0-19.0-0.0-0.53,A2EH7IQCDH2Q5D,32CXT5U15JJVAEXBU2XNZL8A76W8U1,3NG53N1RLZZL4SN93I3VEZHYT128P0,7,8
54,3,object_05,object_02,985.5,6,2,450.79999998212,0.1111111111111111,2,object_03,5,290,0,5,1,library_6,2,memory-2step-stake-s,556,1500769,0.0-19.0-0.0-0.54,A2EH7IQCDH2Q5D,32CXT5U15JJVAEXBU2XNZL8A76W8U1,3NG53N1RLZZL4SN93I3VEZHYT128P0,5,6
55,4,object_10,object_08,500.79999998212,8,2,419.40000000596,0.0,2,object_03,1,290,0,5,0,restaurant_7,2,memory-2step-stake-s,557,1508402,0.0-19.0-0.0-0.55,A2EH7IQCDH2Q5D,32CXT5U15JJVAEXBU2XNZL8A76W8U1,3NG53N1RLZZL4SN93I3VEZHYT128P0,7,8
56,1,object_01,object_09,-1.0,-1,-1,-1.0,0.0,-,0,5,290,0,2,2,desert_5,2,memory-2step-stake-s,558,1514910,0.0-19.0-0.0-0.56,A2EH7IQCDH2Q5D,32CXT5U15JJVAEXBU2XNZL8A76W8U1,3NG53N1RLZZL4SN93I3VEZHYT128P0,2,1
57,2,object_07,object_06,553.39999997616,4,2,322.5,0.1111111111111111,2,object_03,5,295,0,2,1,forest_6,2,memory-2step-stake-s,559,1522545,0.0-19.0-0.0-0.57,A2EH7IQCDH2Q5D,32CXT5U15JJVAEXBU2XNZL8A76W8U1,3NG53N1RLZZL4SN93I3VEZHYT128P0,3,4
58,1,object_01,object_09,616.10000002384,1,2,291.19999998808,0.5555555555555556,1,object_04,5,320,0,5,3,desert_1,2,memory-2step-stake-s,560,1530555,0.0-19.0-0.0-0.58,A2EH7IQCDH2Q5D,32CXT5U15JJVAEXBU2XNZL8A76W8U1,3NG53N1RLZZL4SN93I3VEZHYT128P0,2,1
59,1,object_01,object_09,308.0,2,1,358.30000001192,0.4444444444444444,2,object_03,5,340,0,5,4,desert_6,2,memory-2step-stake-s,561,1538531,0.0-19.0-0.0-0.59,A2EH7IQCDH2Q5D,32CXT5U15JJVAEXBU2XNZL8A76W8U1,3NG53N1RLZZL4SN93I3VEZHYT128P0,2,1
60,1,object_09,object_01,521.40000000596,2,2,535.40000000596,0.3333333333333333,2,object_03,5,355,0,3,3,desert_5,2,memory-2step-stake-s,562,1546588,0.0-19.0-0.0-0.60,A2EH7IQCDH2Q5D,32CXT5U15JJVAEXBU2XNZL8A76W8U1,3NG53N1RLZZL4SN93I3VEZHYT128P0,1,2
61,4,object_10,object_08,568.5,8,2,273.69999998808,0.1111111111111111,2,object_03,1,356,0,4,1,restaurant_1,2,memory-2step-stake-s,563,1554173,0.0-19.0-0.0-0.61,A2EH7IQCDH2Q5D,32CXT5U15JJVAEXBU2XNZL8A76W8U1,3NG53N1RLZZL4SN93I3VEZHYT128P0,7,8
62,4,object_08,object_10,602.30000001192,8,1,920.59999999404,0.2222222222222222,2,object_03,5,366,0,1,2,restaurant_7,2,memory-2step-stake-s,564,1562509,0.0-19.0-0.0-0.62,A2EH7IQCDH2Q5D,32CXT5U15JJVAEXBU2XNZL8A76W8U1,3NG53N1RLZZL4SN93I3VEZHYT128P0,8,7
63,3,object_02,object_05,1311.5,6,1,871.5,0.1111111111111111,2,object_03,1,367,0,4,1,library_8,2,memory-2step-stake-s,565,1570699,0.0-19.0-0.0-0.63,A2EH7IQCDH2Q5D,32CXT5U15JJVAEXBU2XNZL8A76W8U1,3NG53N1RLZZL4SN93I3VEZHYT128P0,6,5
64,1,object_01,object_09,639.19999998808,1,2,523.59999999404,0.5555555555555556,1,object_04,5,392,0,5,2,desert_6,2,memory-2step-stake-s,566,1578949,0.0-19.0-0.0-0.64,A2EH7IQCDH2Q5D,32CXT5U15JJVAEXBU2XNZL8A76W8U1,3NG53N1RLZZL4SN93I3VEZHYT128P0,2,1
65,1,object_09,object_01,583.5,1,1,270.0,0.4444444444444444,1,object_04,5,412,0,4,2,desert_6,2,memory-2step-stake-s,567,1586836,0.0-19.0-0.0-0.65,A2EH7IQCDH2Q5D,32CXT5U15JJVAEXBU2XNZL8A76W8U1,3NG53N1RLZZL4SN93I3VEZHYT128P0,1,2
66,1,object_01,object_09,205.10000002384,2,1,482.0,0.3333333333333333,2,object_03,5,427,0,3,3,desert_1,2,memory-2step-stake-s,568,1594832,0.0-19.0-0.0-0.66,A2EH7IQCDH2Q5D,32CXT5U15JJVAEXBU2XNZL8A76W8U1,3NG53N1RLZZL4SN93I3VEZHYT128P0,2,1
67,4,object_10,object_08,439.5,7,1,484.09999999404,0.2222222222222222,1,object_04,1,429,0,2,5,restaurant_6,2,memory-2step-stake-s,569,1602744,0.0-19.0-0.0-0.67,A2EH7IQCDH2Q5D,32CXT5U15JJVAEXBU2XNZL8A76W8U1,3NG53N1RLZZL4SN93I3VEZHYT128P0,7,8
68,3,object_02,object_05,551.40000000596,5,2,604.5,0.5555555555555556,1,object_04,1,434,0,5,1,library_6,2,memory-2step-stake-s,570,1611069,0.0-19.0-0.0-0.68,A2EH7IQCDH2Q5D,32CXT5U15JJVAEXBU2XNZL8A76W8U1,3NG53N1RLZZL4SN93I3VEZHYT128P0,6,5
69,2,object_06,object_07,399.90000000596,3,2,403.19999998808,0.4444444444444444,1,object_04,1,438,0,4,2,forest_7,2,memory-2step-stake-s,571,1619093,0.0-19.0-0.0-0.69,A2EH7IQCDH2Q5D,32CXT5U15JJVAEXBU2XNZL8A76W8U1,3NG53N1RLZZL4SN93I3VEZHYT128P0,4,3
70,2,object_06,object_07,568.30000001192,3,2,555.5,0.5555555555555556,1,object_04,5,463,0,5,0,forest_2,2,memory-2step-stake-s,572,1627366,0.0-19.0-0.0-0.70,A2EH7IQCDH2Q5D,32CXT5U15JJVAEXBU2XNZL8A76W8U1,3NG53N1RLZZL4SN93I3VEZHYT128P0,4,3
71,3,object_02,object_05,734.5,6,1,571.80000001192,0.1111111111111111,2,object_03,1,464,0,4,1,library_3,2,memory-2step-stake-s,573,1635250,0.0-19.0-0.0-0.71,A2EH7IQCDH2Q5D,32CXT5U15JJVAEXBU2XNZL8A76W8U1,3NG53N1RLZZL4SN93I3VEZHYT128P0,6,5
72,2,object_06,object_07,637.09999999404,3,2,423.5,0.5555555555555556,1,object_04,5,489,0,5,2,forest_8,2,memory-2step-stake-s,574,1643408,0.0-19.0-0.0-0.72,A2EH7IQCDH2Q5D,32CXT5U15JJVAEXBU2XNZL8A76W8U1,3NG53N1RLZZL4SN93I3VEZHYT128P0,4,3
73,4,object_08,object_10,632.40000000596,8,1,340.0,0.3333333333333333,2,object_03,1,492,0,7,3,restaurant_4,2,memory-2step-stake-s,575,1651264,0.0-19.0-0.0-0.73,A2EH7IQCDH2Q5D,32CXT5U15JJVAEXBU2XNZL8A76W8U1,3NG53N1RLZZL4SN93I3VEZHYT128P0,8,7
74,3,object_02,object_05,485.0,5,2,394.80000001192,0.4444444444444444,1,object_04,1,496,0,4,2,library_3,2,memory-2step-stake-s,576,1659278,0.0-19.0-0.0-0.74,A2EH7IQCDH2Q5D,32CXT5U15JJVAEXBU2XNZL8A76W8U1,3NG53N1RLZZL4SN93I3VEZHYT128P0,6,5
75,3,object_05,object_02,472.19999998808,5,1,1098.2000000179,0.3333333333333333,1,object_04,5,511,0,3,1,library_8,2,memory-2step-stake-s,577,1667908,0.0-19.0-0.0-0.75,A2EH7IQCDH2Q5D,32CXT5U15JJVAEXBU2XNZL8A76W8U1,3NG53N1RLZZL4SN93I3VEZHYT128P0,5,6
76,2,object_06,object_07,834.60000002384,3,2,551.79999998212,0.3333333333333333,1,object_04,5,526,0,3,3,forest_8,2,memory-2step-stake-s,578,1675994,0.0-19.0-0.0-0.76,A2EH7IQCDH2Q5D,32CXT5U15JJVAEXBU2XNZL8A76W8U1,3NG53N1RLZZL4SN93I3VEZHYT128P0,4,3
77,1,object_09,object_01,596.69999998808,2,2,-1.0,0.0,2,object_03,5,526,0,2,3,desert_1,2,memory-2step-stake-s,579,1684509,0.0-19.0-0.0-0.77,A2EH7IQCDH2Q5D,32CXT5U15JJVAEXBU2XNZL8A76W8U1,3NG53N1RLZZL4SN93I3VEZHYT128P0,1,2
78,3,object_02,object_05,583.19999998808,5,2,902.09999999404,0.3333333333333333,1,object_04,5,541,0,3,2,library_8,2,memory-2step-stake-s,580,1692929,0.0-19.0-0.0-0.78,A2EH7IQCDH2Q5D,32CXT5U15JJVAEXBU2XNZL8A76W8U1,3NG53N1RLZZL4SN93I3VEZHYT128P0,6,5
79,2,object_07,object_06,580.09999999404,3,1,538.0,0.4444444444444444,1,object_04,5,561,0,4,6,forest_7,2,memory-2step-stake-s,581,1701094,0.0-19.0-0.0-0.79,A2EH7IQCDH2Q5D,32CXT5U15JJVAEXBU2XNZL8A76W8U1,3NG53N1RLZZL4SN93I3VEZHYT128P0,3,4
80,4,object_10,object_08,696.5,7,1,1130.6000000238,0.2222222222222222,1,object_04,5,571,0,2,5,restaurant_7,2,memory-2step-stake-s,582,1709644,0.0-19.0-0.0-0.80,A2EH7IQCDH2Q5D,32CXT5U15JJVAEXBU2XNZL8A76W8U1,3NG53N1RLZZL4SN93I3VEZHYT128P0,7,8
81,2,object_06,object_07,351.79999998212,3,2,1090.0,0.6666666666666666,1,object_04,5,601,0,6,7,forest_2,2,memory-2step-stake-s,583,1718580,0.0-19.0-0.0-0.81,A2EH7IQCDH2Q5D,32CXT5U15JJVAEXBU2XNZL8A76W8U1,3NG53N1RLZZL4SN93I3VEZHYT128P0,4,3
82,2,object_06,object_07,457.39999997616,4,1,416.39999997616,1.0,2,object_03,1,610,0,8,9,forest_7,2,memory-2step-stake-s,584,1727137,0.0-19.0-0.0-0.82,A2EH7IQCDH2Q5D,32CXT5U15JJVAEXBU2XNZL8A76W8U1,3NG53N1RLZZL4SN93I3VEZHYT128P0,4,3
83,1,object_01,object_09,589.40000000596,1,2,533.30000001192,0.8888888888888888,1,object_04,5,650,0,8,8,desert_6,2,memory-2step-stake-s,585,1735700,0.0-19.0-0.0-0.83,A2EH7IQCDH2Q5D,32CXT5U15JJVAEXBU2XNZL8A76W8U1,3NG53N1RLZZL4SN93I3VEZHYT128P0,2,1
84,1,object_01,object_09,1053.900000006,2,1,666.0,0.8888888888888888,2,object_03,5,690,0,7,8,desert_5,2,memory-2step-stake-s,586,1744394,0.0-19.0-0.0-0.84,A2EH7IQCDH2Q5D,32CXT5U15JJVAEXBU2XNZL8A76W8U1,3NG53N1RLZZL4SN93I3VEZHYT128P0,2,1
85,3,object_02,object_05,572.19999998808,5,2,628.20000001788,1.0,1,object_04,5,735,0,9,7,library_8,2,memory-2step-stake-s,587,1753165,0.0-19.0-0.0-0.85,A2EH7IQCDH2Q5D,32CXT5U15JJVAEXBU2XNZL8A76W8U1,3NG53N1RLZZL4SN93I3VEZHYT128P0,6,5
86,3,object_02,object_05,549.30000001192,6,1,517.30000001192,0.5555555555555556,2,object_03,1,740,0,8,5,library_6,2,memory-2step-stake-s,588,1761417,0.0-19.0-0.0-0.86,A2EH7IQCDH2Q5D,32CXT5U15JJVAEXBU2XNZL8A76W8U1,3NG53N1RLZZL4SN93I3VEZHYT128P0,6,5
87,3,object_02,object_05,504.40000000596,5,2,630.79999998212,0.6666666666666666,1,object_04,1,746,0,6,3,library_8,2,memory-2step-stake-s,589,1769880,0.0-19.0-0.0-0.87,A2EH7IQCDH2Q5D,32CXT5U15JJVAEXBU2XNZL8A76W8U1,3NG53N1RLZZL4SN93I3VEZHYT128P0,6,5
88,3,object_05,object_02,991.69999998808,5,1,-1.0,0.0,1,object_04,1,746,0,8,6,library_4,2,memory-2step-stake-s,590,1778405,0.0-19.0-0.0-0.88,A2EH7IQCDH2Q5D,32CXT5U15JJVAEXBU2XNZL8A76W8U1,3NG53N1RLZZL4SN93I3VEZHYT128P0,5,6
89,1,object_01,object_09,252.19999998808,1,2,460.69999998808,0.8888888888888888,1,object_04,5,786,0,8,5,desert_5,2,memory-2step-stake-s,591,1786890,0.0-19.0-0.0-0.89,A2EH7IQCDH2Q5D,32CXT5U15JJVAEXBU2XNZL8A76W8U1,3NG53N1RLZZL4SN93I3VEZHYT128P0,2,1
90,3,object_05,object_02,603.5,6,2,17.800000011921,0.4444444444444444,2,object_03,1,790,0,6,4,library_8,2,memory-2step-stake-s,592,1794534,0.0-19.0-0.0-0.90,A2EH7IQCDH2Q5D,32CXT5U15JJVAEXBU2XNZL8A76W8U1,3NG53N1RLZZL4SN93I3VEZHYT128P0,5,6
91,4,object_08,object_10,283.0,7,2,-1.0,0.0,1,object_04,5,790,0,7,4,restaurant_6,2,memory-2step-stake-s,593,1803051,0.0-19.0-0.0-0.91,A2EH7IQCDH2Q5D,32CXT5U15JJVAEXBU2XNZL8A76W8U1,3NG53N1RLZZL4SN93I3VEZHYT128P0,8,7
92,3,object_05,object_02,612.40000000596,6,2,722.5,0.5555555555555556,2,object_03,5,815,0,7,5,library_4,2,memory-2step-stake-s,594,1811501,0.0-19.0-0.0-0.92,A2EH7IQCDH2Q5D,32CXT5U15JJVAEXBU2XNZL8A76W8U1,3NG53N1RLZZL4SN93I3VEZHYT128P0,5,6
93,3,object_02,object_05,307.89999997616,6,1,255.0,0.8888888888888888,2,object_03,1,823,0,5,8,library_8,2,memory-2step-stake-s,595,1819785,0.0-19.0-0.0-0.93,A2EH7IQCDH2Q5D,32CXT5U15JJVAEXBU2XNZL8A76W8U1,3NG53N1RLZZL4SN93I3VEZHYT128P0,6,5
94,3,object_05,object_02,344.90000000596,6,2,539.90000000596,1.0,2,object_03,1,832,0,1,9,library_3,2,memory-2step-stake-s,596,1828469,0.0-19.0-0.0-0.94,A2EH7IQCDH2Q5D,32CXT5U15JJVAEXBU2XNZL8A76W8U1,3NG53N1RLZZL4SN93I3VEZHYT128P0,5,6
95,4,object_08,object_10,310.59999999404,7,2,355.09999999404,0.1111111111111111,1,object_04,1,833,0,1,8,restaurant_4,2,memory-2step-stake-s,597,1836141,0.0-19.0-0.0-0.95,A2EH7IQCDH2Q5D,32CXT5U15JJVAEXBU2XNZL8A76W8U1,3NG53N1RLZZL4SN93I3VEZHYT128P0,8,7
96,1,object_01,object_09,449.5,2,1,430.09999999404,0.6666666666666666,2,object_03,5,863,0,0,6,desert_5,2,memory-2step-stake-s,598,1844394,0.0-19.0-0.0-0.96,A2EH7IQCDH2Q5D,32CXT5U15JJVAEXBU2XNZL8A76W8U1,3NG53N1RLZZL4SN93I3VEZHYT128P0,2,1
97,1,object_09,object_01,266.0,2,2,195.0,0.5555555555555556,2,object_03,1,868,0,2,5,desert_1,2,memory-2step-stake-s,599,1852315,0.0-19.0-0.0-0.97,A2EH7IQCDH2Q5D,32CXT5U15JJVAEXBU2XNZL8A76W8U1,3NG53N1RLZZL4SN93I3VEZHYT128P0,1,2
98,4,object_10,object_08,535.0,8,2,512.59999999404,0.4444444444444444,2,object_03,1,872,0,3,4,restaurant_7,2,memory-2step-stake-s,600,1860469,0.0-19.0-0.0-0.98,A2EH7IQCDH2Q5D,32CXT5U15JJVAEXBU2XNZL8A76W8U1,3NG53N1RLZZL4SN93I3VEZHYT128P0,7,8
99,2,object_07,object_06,350.80000001192,3,1,376.09999999404,0.5555555555555556,1,object_04,5,897,0,5,4,forest_2,2,memory-2step-stake-s,601,1868569,0.0-19.0-0.0-0.99,A2EH7IQCDH2Q5D,32CXT5U15JJVAEXBU2XNZL8A76W8U1,3NG53N1RLZZL4SN93I3VEZHYT128P0,3,4
100,2,object_07,object_06,495.09999999404,4,2,546.69999998808,0.3333333333333333,2,object_03,1,900,0,6,3,forest_2,2,memory-2step-stake-s,602,1876657,0.0-19.0-0.0-0.100,A2EH7IQCDH2Q5D,32CXT5U15JJVAEXBU2XNZL8A76W8U1,3NG53N1RLZZL4SN93I3VEZHYT128P0,3,4
101,3,object_05,object_02,431.40000000596,5,1,409.0,0.5555555555555556,1,object_04,1,905,0,5,4,library_4,2,memory-2step-stake-s,603,1884803,0.0-19.0-0.0-0.101,A2EH7IQCDH2Q5D,32CXT5U15JJVAEXBU2XNZL8A76W8U1,3NG53N1RLZZL4SN93I3VEZHYT128P0,5,6
102,3,object_02,object_05,252.90000000596,5,2,396.5,0.7777777777777778,1,object_04,1,912,0,7,2,library_8,2,memory-2step-stake-s,604,1893138,0.0-19.0-0.0-0.102,A2EH7IQCDH2Q5D,32CXT5U15JJVAEXBU2XNZL8A76W8U1,3NG53N1RLZZL4SN93I3VEZHYT128P0,6,5
103,3,object_05,object_02,345.80000001192,6,2,1318.900000006,0.3333333333333333,2,object_03,1,915,0,4,3,library_4,2,memory-2step-stake-s,605,1901974,0.0-19.0-0.0-0.103,A2EH7IQCDH2Q5D,32CXT5U15JJVAEXBU2XNZL8A76W8U1,3NG53N1RLZZL4SN93I3VEZHYT128P0,5,6
104,2,object_06,object_07,256.29999998212,3,2,389.80000001192,0.1111111111111111,1,object_04,5,920,0,1,0,forest_6,2,memory-2step-stake-s,606,1909679,0.0-19.0-0.0-0.104,A2EH7IQCDH2Q5D,32CXT5U15JJVAEXBU2XNZL8A76W8U1,3NG53N1RLZZL4SN93I3VEZHYT128P0,4,3
105,1,object_01,object_09,379.70000001788,2,1,649.89999997616,0.3333333333333333,2,object_03,5,935,0,1,3,desert_6,2,memory-2step-stake-s,607,1917856,0.0-19.0-0.0-0.105,A2EH7IQCDH2Q5D,32CXT5U15JJVAEXBU2XNZL8A76W8U1,3NG53N1RLZZL4SN93I3VEZHYT128P0,2,1
106,3,object_05,object_02,463.39999997616,6,2,545.90000000596,0.1111111111111111,2,object_03,1,936,0,2,1,library_4,2,memory-2step-stake-s,608,1925720,0.0-19.0-0.0-0.106,A2EH7IQCDH2Q5D,32CXT5U15JJVAEXBU2XNZL8A76W8U1,3NG53N1RLZZL4SN93I3VEZHYT128P0,5,6
107,2,object_06,object_07,639.20000001788,3,2,330.5,0.3333333333333333,1,object_04,5,951,0,3,2,forest_2,2,memory-2step-stake-s,609,1933581,0.0-19.0-0.0-0.107,A2EH7IQCDH2Q5D,32CXT5U15JJVAEXBU2XNZL8A76W8U1,3NG53N1RLZZL4SN93I3VEZHYT128P0,4,3
108,3,object_05,object_02,509.59999999404,5,1,684.69999998808,0.2222222222222222,1,object_04,1,953,0,2,4,library_3,2,memory-2step-stake-s,610,1941683,0.0-19.0-0.0-0.108,A2EH7IQCDH2Q5D,32CXT5U15JJVAEXBU2XNZL8A76W8U1,3NG53N1RLZZL4SN93I3VEZHYT128P0,5,6
109,2,object_06,object_07,628.59999999404,3,2,551.39999997616,0.1111111111111111,1,object_04,5,958,0,1,3,forest_7,2,memory-2step-stake-s,611,1949551,0.0-19.0-0.0-0.109,A2EH7IQCDH2Q5D,32CXT5U15JJVAEXBU2XNZL8A76W8U1,3NG53N1RLZZL4SN93I3VEZHYT128P0,4,3
110,2,object_07,object_06,574.30000001192,4,2,418.40000000596,0.6666666666666666,2,object_03,5,988,0,6,6,forest_2,2,memory-2step-stake-s,612,1957801,0.0-19.0-0.0-0.110,A2EH7IQCDH2Q5D,32CXT5U15JJVAEXBU2XNZL8A76W8U1,3NG53N1RLZZL4SN93I3VEZHYT128P0,3,4
111,1,object_01,object_09,680.30000001192,1,2,562.60000002384,0.8888888888888888,1,object_04,1,996,0,8,5,desert_3,2,memory-2step-stake-s,613,1966386,0.0-19.0-0.0-0.111,A2EH7IQCDH2Q5D,32CXT5U15JJVAEXBU2XNZL8A76W8U1,3NG53N1RLZZL4SN93I3VEZHYT128P0,2,1
112,4,object_10,object_08,344.40000000596,8,2,430.19999998808,0.6666666666666666,2,object_03,1,1002,0,8,6,restaurant_4,2,memory-2step-stake-s,614,1974636,0.0-19.0-0.0-0.112,A2EH7IQCDH2Q5D,32CXT5U15JJVAEXBU2XNZL8A76W8U1,3NG53N1RLZZL4SN93I3VEZHYT128P0,7,8
113,1,object_01,object_09,454.30000001192,1,2,448.90000000596,0.7777777777777778,1,object_04,5,1037,0,7,5,desert_6,2,memory-2step-stake-s,615,1983003,0.0-19.0-0.0-0.113,A2EH7IQCDH2Q5D,32CXT5U15JJVAEXBU2XNZL8A76W8U1,3NG53N1RLZZL4SN93I3VEZHYT128P0,2,1
114,1,object_09,object_01,337.0,2,2,189.40000000596,0.6666666666666666,2,object_03,5,1067,0,8,6,desert_1,2,memory-2step-stake-s,616,1991015,0.0-19.0-0.0-0.114,A2EH7IQCDH2Q5D,32CXT5U15JJVAEXBU2XNZL8A76W8U1,3NG53N1RLZZL4SN93I3VEZHYT128P0,1,2
115,3,object_02,object_05,442.59999999404,5,2,670.89999997616,0.8888888888888888,1,object_04,1,1075,0,8,8,library_6,2,memory-2step-stake-s,617,1999722,0.0-19.0-0.0-0.115,A2EH7IQCDH2Q5D,32CXT5U15JJVAEXBU2XNZL8A76W8U1,3NG53N1RLZZL4SN93I3VEZHYT128P0,6,5
116,1,object_01,object_09,559.39999997616,1,2,115.90000000596,0.7777777777777778,1,object_04,5,1110,0,7,7,desert_5,2,memory-2step-stake-s,618,2007763,0.0-19.0-0.0-0.116,A2EH7IQCDH2Q5D,32CXT5U15JJVAEXBU2XNZL8A76W8U1,3NG53N1RLZZL4SN93I3VEZHYT128P0,2,1
117,1,object_01,object_09,623.5,1,2,578.59999999404,0.8888888888888888,1,object_04,5,1150,0,8,8,desert_6,2,memory-2step-stake-s,619,2016360,0.0-19.0-0.0-0.117,A2EH7IQCDH2Q5D,32CXT5U15JJVAEXBU2XNZL8A76W8U1,3NG53N1RLZZL4SN93I3VEZHYT128P0,2,1
118,3,object_05,object_02,388.09999999404,5,1,281.5,0.2222222222222222,1,object_04,1,1152,0,2,8,library_6,2,memory-2step-stake-s,620,2024056,0.0-19.0-0.0-0.118,A2EH7IQCDH2Q5D,32CXT5U15JJVAEXBU2XNZL8A76W8U1,3NG53N1RLZZL4SN93I3VEZHYT128P0,5,6
119,3,object_02,object_05,456.30000001192,5,2,256.19999998808,0.7777777777777778,1,object_04,1,1159,0,7,7,library_4,2,memory-2step-stake-s,621,2032234,0.0-19.0-0.0-0.119,A2EH7IQCDH2Q5D,32CXT5U15JJVAEXBU2XNZL8A76W8U1,3NG53N1RLZZL4SN93I3VEZHYT128P0,6,5
120,4,object_10,object_08,385.90000000596,7,1,352.59999999404,0.4444444444444444,1,object_04,1,1163,0,4,9,restaurant_6,2,memory-2step-stake-s,622,2040208,0.0-19.0-0.0-0.120,A2EH7IQCDH2Q5D,32CXT5U15JJVAEXBU2XNZL8A76W8U1,3NG53N1RLZZL4SN93I3VEZHYT128P0,7,8
121,2,object_06,object_07,441.59999999404,3,2,584.70000001788,0.7777777777777778,1,object_04,5,1198,0,7,9,forest_2,2,memory-2step-stake-s,623,2048713,0.0-19.0-0.0-0.121,A2EH7IQCDH2Q5D,32CXT5U15JJVAEXBU2XNZL8A76W8U1,3NG53N1RLZZL4SN93I3VEZHYT128P0,4,3
122,4,object_10,object_08,804.89999997616,8,2,515.60000002384,1.0,2,object_03,5,1243,0,4,9,restaurant_1,2,memory-2step-stake-s,624,2057353,0.0-19.0-0.0-0.122,A2EH7IQCDH2Q5D,32CXT5U15JJVAEXBU2XNZL8A76W8U1,3NG53N1RLZZL4SN93I3VEZHYT128P0,7,8
123,1,object_01,object_09,404.0,1,2,482.5,0.5555555555555556,1,object_04,5,1268,0,5,8,desert_3,2,memory-2step-stake-s,625,2065553,0.0-19.0-0.0-0.123,A2EH7IQCDH2Q5D,32CXT5U15JJVAEXBU2XNZL8A76W8U1,3NG53N1RLZZL4SN93I3VEZHYT128P0,2,1
124,4,object_10,object_08,426.40000000596,7,1,832.09999999404,0.4444444444444444,1,object_04,5,1288,0,4,6,restaurant_1,2,memory-2step-stake-s,626,2074028,0.0-19.0-0.0-0.124,A2EH7IQCDH2Q5D,32CXT5U15JJVAEXBU2XNZL8A76W8U1,3NG53N1RLZZL4SN93I3VEZHYT128P0,7,8
125,4,object_10,object_08,315.30000001192,8,2,412.90000000596,0.8888888888888888,2,object_03,1,1296,0,3,8,restaurant_6,2,memory-2step-stake-s,627,2082464,0.0-19.0-0.0-0.125,A2EH7IQCDH2Q5D,32CXT5U15JJVAEXBU2XNZL8A76W8U1,3NG53N1RLZZL4SN93I3VEZHYT128P0,7,8
126,1,object_09,object_01,550.5,2,2,452.59999999404,0.8888888888888888,2,object_03,1,1304,0,0,8,desert_6,2,memory-2step-stake-s,628,2090937,0.0-19.0-0.0-0.126,A2EH7IQCDH2Q5D,32CXT5U15JJVAEXBU2XNZL8A76W8U1,3NG53N1RLZZL4SN93I3VEZHYT128P0,1,2
127,1,object_01,object_09,439.90000000596,1,2,324.29999998212,0.0,1,object_04,1,1304,0,0,7,desert_1,2,memory-2step-stake-s,629,2098475,0.0-19.0-0.0-0.127,A2EH7IQCDH2Q5D,32CXT5U15JJVAEXBU2XNZL8A76W8U1,3NG53N1RLZZL4SN93I3VEZHYT128P0,2,1
128,4,object_08,object_10,504.90000000596,7,2,925.40000000596,0.0,1,object_04,5,1304,0,0,5,restaurant_1,2,memory-2step-stake-s,631,2111489,0.0-19.0-0.1-0.128,A2EH7IQCDH2Q5D,32CXT5U15JJVAEXBU2XNZL8A76W8U1,3NG53N1RLZZL4SN93I3VEZHYT128P0,8,7
129,4,object_10,object_08,435.0,7,1,418.80000001192,0.2222222222222222,1,object_04,5,1314,0,2,5,restaurant_4,2,memory-2step-stake-s,632,2119324,0.0-19.0-0.1-0.129,A2EH7IQCDH2Q5D,32CXT5U15JJVAEXBU2XNZL8A76W8U1,3NG53N1RLZZL4SN93I3VEZHYT128P0,7,8
130,4,object_08,object_10,364.5,7,2,65.799999982119,0.1111111111111111,1,object_04,1,1315,0,1,4,restaurant_6,2,memory-2step-stake-s,633,2126706,0.0-19.0-0.1-0.130,A2EH7IQCDH2Q5D,32CXT5U15JJVAEXBU2XNZL8A76W8U1,3NG53N1RLZZL4SN93I3VEZHYT128P0,8,7
131,1,object_09,object_01,506.90000000596,1,1,272.5,0.3333333333333333,1,object_04,5,1330,0,3,6,desert_3,2,memory-2step-stake-s,634,2134496,0.0-19.0-0.1-0.131,A2EH7IQCDH2Q5D,32CXT5U15JJVAEXBU2XNZL8A76W8U1,3NG53N1RLZZL4SN93I3VEZHYT128P0,1,2
132,1,object_01,object_09,764.5,2,1,310.5,0.4444444444444444,2,object_03,5,1350,0,2,4,desert_1,2,memory-2step-stake-s,635,2142427,0.0-19.0-0.1-0.132,A2EH7IQCDH2Q5D,32CXT5U15JJVAEXBU2XNZL8A76W8U1,3NG53N1RLZZL4SN93I3VEZHYT128P0,2,1
133,2,object_06,object_07,821.80000001192,3,2,280.80000001192,0.7777777777777778,1,object_04,5,1385,0,7,5,forest_6,2,memory-2step-stake-s,636,2150629,0.0-19.0-0.1-0.133,A2EH7IQCDH2Q5D,32CXT5U15JJVAEXBU2XNZL8A76W8U1,3NG53N1RLZZL4SN93I3VEZHYT128P0,4,3
134,4,object_10,object_08,652.59999999404,8,2,406.60000002384,0.3333333333333333,2,object_03,5,1400,0,6,3,restaurant_1,2,memory-2step-stake-s,637,2158555,0.0-19.0-0.1-0.134,A2EH7IQCDH2Q5D,32CXT5U15JJVAEXBU2XNZL8A76W8U1,3NG53N1RLZZL4SN93I3VEZHYT128P0,7,8
135,3,object_05,object_02,620.69999998808,6,2,504.09999999404,0.6666666666666666,2,object_03,1,1406,0,7,6,library_8,2,memory-2step-stake-s,638,2166883,0.0-19.0-0.1-0.135,A2EH7IQCDH2Q5D,32CXT5U15JJVAEXBU2XNZL8A76W8U1,3NG53N1RLZZL4SN93I3VEZHYT128P0,5,6
136,1,object_01,object_09,537.90000000596,1,2,547.69999998808,0.6666666666666666,1,object_04,5,1436,0,6,5,desert_5,2,memory-2step-stake-s,639,2175253,0.0-19.0-0.1-0.136,A2EH7IQCDH2Q5D,32CXT5U15JJVAEXBU2XNZL8A76W8U1,3NG53N1RLZZL4SN93I3VEZHYT128P0,2,1
137,3,object_05,object_02,537.89999997616,6,2,304.89999997616,0.6666666666666666,2,object_03,1,1442,0,4,6,library_3,2,memory-2step-stake-s,640,2183382,0.0-19.0-0.1-0.137,A2EH7IQCDH2Q5D,32CXT5U15JJVAEXBU2XNZL8A76W8U1,3NG53N1RLZZL4SN93I3VEZHYT128P0,5,6
138,4,object_10,object_08,402.5,8,2,211.29999998212,0.2222222222222222,2,object_03,1,1444,0,3,2,restaurant_1,2,memory-2step-stake-s,641,2191017,0.0-19.0-0.1-0.138,A2EH7IQCDH2Q5D,32CXT5U15JJVAEXBU2XNZL8A76W8U1,3NG53N1RLZZL4SN93I3VEZHYT128P0,7,8
139,1,object_01,object_09,249.10000002384,2,1,459.19999998808,0.1111111111111111,2,object_03,5,1449,0,2,1,desert_5,2,memory-2step-stake-s,642,2198798,0.0-19.0-0.1-0.139,A2EH7IQCDH2Q5D,32CXT5U15JJVAEXBU2XNZL8A76W8U1,3NG53N1RLZZL4SN93I3VEZHYT128P0,2,1
140,3,object_05,object_02,489.30000001192,6,2,257.40000000596,0.1111111111111111,2,object_03,5,1454,0,2,1,library_3,2,memory-2step-stake-s,643,2206386,0.0-19.0-0.1-0.140,A2EH7IQCDH2Q5D,32CXT5U15JJVAEXBU2XNZL8A76W8U1,3NG53N1RLZZL4SN93I3VEZHYT128P0,5,6
141,3,object_05,object_02,458.0,5,1,354.0,0.0,1,object_04,1,1454,0,0,2,library_4,2,memory-2step-stake-s,644,2213956,0.0-19.0-0.1-0.141,A2EH7IQCDH2Q5D,32CXT5U15JJVAEXBU2XNZL8A76W8U1,3NG53N1RLZZL4SN93I3VEZHYT128P0,5,6
142,3,object_02,object_05,899.30000001192,5,2,65.5,0.3333333333333333,1,object_04,5,1469,0,3,3,library_6,2,memory-2step-stake-s,645,2221541,0.0-19.0-0.1-0.142,A2EH7IQCDH2Q5D,32CXT5U15JJVAEXBU2XNZL8A76W8U1,3NG53N1RLZZL4SN93I3VEZHYT128P0,6,5
143,2,object_07,object_06,333.09999999404,4,2,146.20000001788,0.5555555555555556,2,object_03,5,1494,0,1,5,forest_7,2,memory-2step-stake-s,646,2229422,0.0-19.0-0.1-0.143,A2EH7IQCDH2Q5D,32CXT5U15JJVAEXBU2XNZL8A76W8U1,3NG53N1RLZZL4SN93I3VEZHYT128P0,3,4
144,2,object_06,object_07,415.40000000596,3,2,216.80000001192,0.3333333333333333,1,object_04,5,1509,0,3,6,forest_7,2,memory-2step-stake-s,647,2237158,0.0-19.0-0.1-0.144,A2EH7IQCDH2Q5D,32CXT5U15JJVAEXBU2XNZL8A76W8U1,3NG53N1RLZZL4SN93I3VEZHYT128P0,4,3
145,2,object_06,object_07,538.90000000596,4,1,270.80000001192,0.6666666666666666,2,object_03,1,1515,0,4,6,forest_2,2,memory-2step-stake-s,648,2245258,0.0-19.0-0.1-0.145,A2EH7IQCDH2Q5D,32CXT5U15JJVAEXBU2XNZL8A76W8U1,3NG53N1RLZZL4SN93I3VEZHYT128P0,4,3
146,4,object_08,object_10,460.39999997616,7,2,816.80000001192,0.1111111111111111,1,object_04,5,1520,0,1,3,restaurant_1,2,memory-2step-stake-s,649,2253407,0.0-19.0-0.1-0.146,A2EH7IQCDH2Q5D,32CXT5U15JJVAEXBU2XNZL8A76W8U1,3NG53N1RLZZL4SN93I3VEZHYT128P0,8,7
147,3,object_05,object_02,419.10000002384,5,1,462.69999998808,0.1111111111111111,1,object_04,1,1521,0,1,4,library_4,2,memory-2step-stake-s,650,2261185,0.0-19.0-0.1-0.147,A2EH7IQCDH2Q5D,32CXT5U15JJVAEXBU2XNZL8A76W8U1,3NG53N1RLZZL4SN93I3VEZHYT128P0,5,6
148,1,object_09,object_01,330.79999998212,2,2,580.09999999404,0.3333333333333333,2,object_03,5,1536,0,2,3,desert_6,2,memory-2step-stake-s,651,2269282,0.0-19.0-0.1-0.148,A2EH7IQCDH2Q5D,32CXT5U15JJVAEXBU2XNZL8A76W8U1,3NG53N1RLZZL4SN93I3VEZHYT128P0,1,2
149,1,object_01,object_09,476.80000001192,1,2,433.40000000596,0.4444444444444444,1,object_04,1,1540,0,4,3,desert_1,2,memory-2step-stake-s,652,2277334,0.0-19.0-0.1-0.149,A2EH7IQCDH2Q5D,32CXT5U15JJVAEXBU2XNZL8A76W8U1,3NG53N1RLZZL4SN93I3VEZHYT128P0,2,1
150,4,object_08,object_10,340.20000001788,7,2,635.79999998212,0.3333333333333333,1,object_04,1,1543,0,3,2,restaurant_6,2,memory-2step-stake-s,653,2285494,0.0-19.0-0.1-0.150,A2EH7IQCDH2Q5D,32CXT5U15JJVAEXBU2XNZL8A76W8U1,3NG53N1RLZZL4SN93I3VEZHYT128P0,8,7
151,1,object_01,object_09,474.59999999404,2,1,260.0,0.3333333333333333,2,object_03,5,1558,0,2,3,desert_6,2,memory-2step-stake-s,654,2293271,0.0-19.0-0.1-0.151,A2EH7IQCDH2Q5D,32CXT5U15JJVAEXBU2XNZL8A76W8U1,3NG53N1RLZZL4SN93I3VEZHYT128P0,2,1
152,1,object_01,object_09,455.19999998808,1,2,540.19999998808,0.0,1,object_04,1,1558,0,0,5,desert_3,2,memory-2step-stake-s,655,2301026,0.0-19.0-0.1-0.152,A2EH7IQCDH2Q5D,32CXT5U15JJVAEXBU2XNZL8A76W8U1,3NG53N1RLZZL4SN93I3VEZHYT128P0,2,1
153,4,object_10,object_08,417.80000001192,7,1,344.20000001788,0.4444444444444444,1,object_04,1,1562,0,4,6,restaurant_4,2,memory-2step-stake-s,656,2308991,0.0-19.0-0.1-0.153,A2EH7IQCDH2Q5D,32CXT5U15JJVAEXBU2XNZL8A76W8U1,3NG53N1RLZZL4SN93I3VEZHYT128P0,7,8
154,2,object_07,object_06,268.70000001788,3,1,441.20000001788,0.4444444444444444,1,object_04,5,1582,0,4,9,forest_6,2,memory-2step-stake-s,657,2317057,0.0-19.0-0.1-0.154,A2EH7IQCDH2Q5D,32CXT5U15JJVAEXBU2XNZL8A76W8U1,3NG53N1RLZZL4SN93I3VEZHYT128P0,3,4
155,3,object_05,object_02,226.40000000596,6,2,542.40000000596,0.7777777777777778,2,object_03,1,1589,0,5,7,library_6,2,memory-2step-stake-s,658,2325535,0.0-19.0-0.1-0.155,A2EH7IQCDH2Q5D,32CXT5U15JJVAEXBU2XNZL8A76W8U1,3NG53N1RLZZL4SN93I3VEZHYT128P0,5,6
156,2,object_06,object_07,640.5,3,2,448.79999998212,0.4444444444444444,1,object_04,5,1609,0,4,8,forest_8,2,memory-2step-stake-s,659,2333606,0.0-19.0-0.1-0.156,A2EH7IQCDH2Q5D,32CXT5U15JJVAEXBU2XNZL8A76W8U1,3NG53N1RLZZL4SN93I3VEZHYT128P0,4,3
157,4,object_08,object_10,515.59999999404,7,2,648.90000000596,0.2222222222222222,1,object_04,1,1611,0,2,7,restaurant_6,2,memory-2step-stake-s,660,2341672,0.0-19.0-0.1-0.157,A2EH7IQCDH2Q5D,32CXT5U15JJVAEXBU2XNZL8A76W8U1,3NG53N1RLZZL4SN93I3VEZHYT128P0,8,7
158,1,object_01,object_09,423.60000002384,2,1,462.40000000596,0.6666666666666666,2,object_03,5,1641,0,6,6,desert_6,2,memory-2step-stake-s,661,2349955,0.0-19.0-0.1-0.158,A2EH7IQCDH2Q5D,32CXT5U15JJVAEXBU2XNZL8A76W8U1,3NG53N1RLZZL4SN93I3VEZHYT128P0,2,1
159,1,object_01,object_09,586.5,1,2,621.59999999404,0.4444444444444444,1,object_04,5,1661,0,4,4,desert_3,2,memory-2step-stake-s,662,2358230,0.0-19.0-0.1-0.159,A2EH7IQCDH2Q5D,32CXT5U15JJVAEXBU2XNZL8A76W8U1,3NG53N1RLZZL4SN93I3VEZHYT128P0,2,1
160,2,object_07,object_06,246.5,4,2,44.100000023842,0.2222222222222222,2,object_03,5,1671,0,7,2,forest_6,2,memory-2step-stake-s,663,2365696,0.0-19.0-0.1-0.160,A2EH7IQCDH2Q5D,32CXT5U15JJVAEXBU2XNZL8A76W8U1,3NG53N1RLZZL4SN93I3VEZHYT128P0,3,4
161,1,object_01,object_09,459.19999998808,2,1,380.59999999404,0.1111111111111111,2,object_03,5,1676,0,2,1,desert_5,2,memory-2step-stake-s,664,2373393,0.0-19.0-0.1-0.161,A2EH7IQCDH2Q5D,32CXT5U15JJVAEXBU2XNZL8A76W8U1,3NG53N1RLZZL4SN93I3VEZHYT128P0,2,1
162,4,object_10,object_08,537.69999998808,7,1,309.09999999404,0.1111111111111111,1,object_04,1,1677,0,1,0,restaurant_6,2,memory-2step-stake-s,665,2381028,0.0-19.0-0.1-0.162,A2EH7IQCDH2Q5D,32CXT5U15JJVAEXBU2XNZL8A76W8U1,3NG53N1RLZZL4SN93I3VEZHYT128P0,7,8
163,1,object_01,object_09,500.09999999404,1,2,414.09999999404,0.1111111111111111,1,object_04,5,1682,0,1,1,desert_5,2,memory-2step-stake-s,666,2388760,0.0-19.0-0.1-0.163,A2EH7IQCDH2Q5D,32CXT5U15JJVAEXBU2XNZL8A76W8U1,3NG53N1RLZZL4SN93I3VEZHYT128P0,2,1
164,4,object_10,object_08,681.39999997616,8,2,298.90000000596,0.5555555555555556,2,object_03,1,1687,0,1,5,restaurant_6,2,memory-2step-stake-s,667,2396801,0.0-19.0-0.1-0.164,A2EH7IQCDH2Q5D,32CXT5U15JJVAEXBU2XNZL8A76W8U1,3NG53N1RLZZL4SN93I3VEZHYT128P0,7,8
165,3,object_02,object_05,585.09999999404,5,2,340.30000001192,0.1111111111111111,1,object_04,1,1688,0,1,5,library_8,2,memory-2step-stake-s,668,2404460,0.0-19.0-0.1-0.165,A2EH7IQCDH2Q5D,32CXT5U15JJVAEXBU2XNZL8A76W8U1,3NG53N1RLZZL4SN93I3VEZHYT128P0,6,5
166,3,object_05,object_02,673.0,6,2,153.90000000596,0.5555555555555556,2,object_03,1,1693,0,0,5,library_6,2,memory-2step-stake-s,669,2412336,0.0-19.0-0.1-0.166,A2EH7IQCDH2Q5D,32CXT5U15JJVAEXBU2XNZL8A76W8U1,3NG53N1RLZZL4SN93I3VEZHYT128P0,5,6
167,1,object_01,object_09,730.59999999404,1,2,743.79999998212,0.1111111111111111,1,object_04,5,1698,0,1,2,desert_6,2,memory-2step-stake-s,670,2420408,0.0-19.0-0.1-0.167,A2EH7IQCDH2Q5D,32CXT5U15JJVAEXBU2XNZL8A76W8U1,3NG53N1RLZZL4SN93I3VEZHYT128P0,2,1
168,4,object_08,object_10,624.40000000596,7,2,461.0,0.3333333333333333,1,object_04,1,1701,0,3,3,restaurant_7,2,memory-2step-stake-s,671,2428389,0.0-19.0-0.1-0.168,A2EH7IQCDH2Q5D,32CXT5U15JJVAEXBU2XNZL8A76W8U1,3NG53N1RLZZL4SN93I3VEZHYT128P0,8,7
169,4,object_10,object_08,573.40000000596,7,1,675.19999998808,0.1111111111111111,1,object_04,1,1702,0,1,5,restaurant_7,2,memory-2step-stake-s,672,2436377,0.0-19.0-0.1-0.169,A2EH7IQCDH2Q5D,32CXT5U15JJVAEXBU2XNZL8A76W8U1,3NG53N1RLZZL4SN93I3VEZHYT128P0,7,8
170,1,object_01,object_09,616.30000001192,1,2,-1.0,0.0,1,object_04,5,1702,0,1,8,desert_3,2,memory-2step-stake-s,673,2444902,0.0-19.0-0.1-0.170,A2EH7IQCDH2Q5D,32CXT5U15JJVAEXBU2XNZL8A76W8U1,3NG53N1RLZZL4SN93I3VEZHYT128P0,2,1
171,1,object_09,object_01,89.300000011921,2,2,583.0,0.5555555555555556,2,object_03,5,1727,0,2,5,desert_1,2,memory-2step-stake-s,674,2453207,0.0-19.0-0.1-0.171,A2EH7IQCDH2Q5D,32CXT5U15JJVAEXBU2XNZL8A76W8U1,3NG53N1RLZZL4SN93I3VEZHYT128P0,1,2
172,4,object_10,object_08,332.20000001788,8,2,392.59999999404,0.4444444444444444,2,object_03,1,1731,0,3,4,restaurant_4,2,memory-2step-stake-s,675,2461222,0.0-19.0-0.1-0.172,A2EH7IQCDH2Q5D,32CXT5U15JJVAEXBU2XNZL8A76W8U1,3NG53N1RLZZL4SN93I3VEZHYT128P0,7,8
173,2,object_07,object_06,189.5,3,1,568.5,0.4444444444444444,1,object_04,5,1751,0,4,3,forest_6,2,memory-2step-stake-s,676,2469420,0.0-19.0-0.1-0.173,A2EH7IQCDH2Q5D,32CXT5U15JJVAEXBU2XNZL8A76W8U1,3NG53N1RLZZL4SN93I3VEZHYT128P0,3,4
174,2,object_06,object_07,593.0,3,2,419.40000000596,0.3333333333333333,1,object_04,5,1766,0,3,3,forest_2,2,memory-2step-stake-s,677,2477370,0.0-19.0-0.1-0.174,A2EH7IQCDH2Q5D,32CXT5U15JJVAEXBU2XNZL8A76W8U1,3NG53N1RLZZL4SN93I3VEZHYT128P0,4,3
175,4,object_10,object_08,717.59999999404,8,2,379.09999999404,0.3333333333333333,2,object_03,1,1769,0,5,3,restaurant_6,2,memory-2step-stake-s,678,2485263,0.0-19.0-0.1-0.175,A2EH7IQCDH2Q5D,32CXT5U15JJVAEXBU2XNZL8A76W8U1,3NG53N1RLZZL4SN93I3VEZHYT128P0,7,8
176,2,object_06,object_07,505.80000001192,3,2,466.90000000596,0.5555555555555556,1,object_04,1,1774,0,5,3,forest_2,2,memory-2step-stake-s,679,2493449,0.0-19.0-0.1-0.176,A2EH7IQCDH2Q5D,32CXT5U15JJVAEXBU2XNZL8A76W8U1,3NG53N1RLZZL4SN93I3VEZHYT128P0,4,3
177,3,object_02,object_05,592.29999998212,5,2,157.70000001788,0.4444444444444444,1,object_04,5,1794,0,4,1,library_3,2,memory-2step-stake-s,680,2501223,0.0-19.0-0.1-0.177,A2EH7IQCDH2Q5D,32CXT5U15JJVAEXBU2XNZL8A76W8U1,3NG53N1RLZZL4SN93I3VEZHYT128P0,6,5
178,2,object_06,object_07,558.59999999404,3,2,860.40000000596,0.2222222222222222,1,object_04,5,1804,0,2,4,forest_8,2,memory-2step-stake-s,681,2509502,0.0-19.0-0.1-0.178,A2EH7IQCDH2Q5D,32CXT5U15JJVAEXBU2XNZL8A76W8U1,3NG53N1RLZZL4SN93I3VEZHYT128P0,4,3
179,2,object_07,object_06,713.09999999404,4,2,460.69999998808,0.3333333333333333,2,object_03,1,1807,0,1,3,forest_7,2,memory-2step-stake-s,682,2517483,0.0-19.0-0.1-0.179,A2EH7IQCDH2Q5D,32CXT5U15JJVAEXBU2XNZL8A76W8U1,3NG53N1RLZZL4SN93I3VEZHYT128P0,3,4
180,2,object_07,object_06,345.59999999404,3,1,301.40000000596,0.1111111111111111,1,object_04,1,1808,0,1,7,forest_8,2,memory-2step-stake-s,683,2525099,0.0-19.0-0.1-0.180,A2EH7IQCDH2Q5D,32CXT5U15JJVAEXBU2XNZL8A76W8U1,3NG53N1RLZZL4SN93I3VEZHYT128P0,3,4
181,2,object_07,object_06,547.20000001788,4,2,382.10000002384,0.4444444444444444,2,object_03,5,1828,0,2,4,forest_6,2,memory-2step-stake-s,684,2533099,0.0-19.0-0.1-0.181,A2EH7IQCDH2Q5D,32CXT5U15JJVAEXBU2XNZL8A76W8U1,3NG53N1RLZZL4SN93I3VEZHYT128P0,3,4
182,3,object_02,object_05,429.10000002384,5,2,407.29999998212,0.0,1,object_04,1,1828,0,0,5,library_6,2,memory-2step-stake-s,685,2540716,0.0-19.0-0.1-0.182,A2EH7IQCDH2Q5D,32CXT5U15JJVAEXBU2XNZL8A76W8U1,3NG53N1RLZZL4SN93I3VEZHYT128P0,6,5
183,4,object_10,object_08,488.90000000596,8,2,322.0,0.6666666666666666,2,object_03,1,1834,0,1,6,restaurant_1,2,memory-2step-stake-s,686,2548858,0.0-19.0-0.1-0.183,A2EH7IQCDH2Q5D,32CXT5U15JJVAEXBU2XNZL8A76W8U1,3NG53N1RLZZL4SN93I3VEZHYT128P0,7,8
184,3,object_02,object_05,217.0,5,2,247.09999999404,0.1111111111111111,1,object_04,1,1835,0,1,7,library_8,2,memory-2step-stake-s,687,2556430,0.0-19.0-0.1-0.184,A2EH7IQCDH2Q5D,32CXT5U15JJVAEXBU2XNZL8A76W8U1,3NG53N1RLZZL4SN93I3VEZHYT128P0,6,5
185,2,object_07,object_06,544.20000001788,3,1,338.5,0.0,1,object_04,1,1835,0,0,7,forest_7,2,memory-2step-stake-s,688,2563986,0.0-19.0-0.1-0.185,A2EH7IQCDH2Q5D,32CXT5U15JJVAEXBU2XNZL8A76W8U1,3NG53N1RLZZL4SN93I3VEZHYT128P0,3,4
186,1,object_01,object_09,362.5,1,2,451.59999999404,0.0,1,object_04,5,1835,0,0,5,desert_3,2,memory-2step-stake-s,689,2571658,0.0-19.0-0.1-0.186,A2EH7IQCDH2Q5D,32CXT5U15JJVAEXBU2XNZL8A76W8U1,3NG53N1RLZZL4SN93I3VEZHYT128P0,2,1
187,1,object_01,object_09,536.40000000596,1,2,607.59999999404,0.2222222222222222,1,object_04,5,1845,0,2,5,desert_3,2,memory-2step-stake-s,690,2579681,0.0-19.0-0.1-0.187,A2EH7IQCDH2Q5D,32CXT5U15JJVAEXBU2XNZL8A76W8U1,3NG53N1RLZZL4SN93I3VEZHYT128P0,2,1
188,2,object_07,object_06,449.79999998212,3,1,1010.5,0.3333333333333333,1,object_04,5,1860,0,3,5,forest_7,2,memory-2step-stake-s,691,2588209,0.0-19.0-0.1-0.188,A2EH7IQCDH2Q5D,32CXT5U15JJVAEXBU2XNZL8A76W8U1,3NG53N1RLZZL4SN93I3VEZHYT128P0,3,4
189,4,object_10,object_08,501.79999998212,8,2,378.5,0.5555555555555556,2,object_03,1,1865,0,3,5,restaurant_6,2,memory-2step-stake-s,692,2596322,0.0-19.0-0.1-0.189,A2EH7IQCDH2Q5D,32CXT5U15JJVAEXBU2XNZL8A76W8U1,3NG53N1RLZZL4SN93I3VEZHYT128P0,7,8
190,3,object_02,object_05,1023.599999994,5,2,552.29999998212,0.0,1,object_04,1,1865,0,0,6,library_4,2,memory-2step-stake-s,693,2604098,0.0-19.0-0.1-0.190,A2EH7IQCDH2Q5D,32CXT5U15JJVAEXBU2XNZL8A76W8U1,3NG53N1RLZZL4SN93I3VEZHYT128P0,6,5
191,1,object_09,object_01,571.09999999404,1,1,-1.0,0.0,1,object_04,5,1865,0,2,5,desert_1,2,memory-2step-stake-s,694,2612609,0.0-19.0-0.1-0.191,A2EH7IQCDH2Q5D,32CXT5U15JJVAEXBU2XNZL8A76W8U1,3NG53N1RLZZL4SN93I3VEZHYT128P0,1,2
192,3,object_05,object_02,232.19999998808,6,2,48.0,0.7777777777777778,2,object_03,1,1872,0,4,7,library_8,2,memory-2step-stake-s,695,2620579,0.0-19.0-0.1-0.192,A2EH7IQCDH2Q5D,32CXT5U15JJVAEXBU2XNZL8A76W8U1,3NG53N1RLZZL4SN93I3VEZHYT128P0,5,6
193,2,object_07,object_06,403.40000000596,4,2,523.69999998808,0.4444444444444444,2,object_03,1,1876,0,5,4,forest_6,2,memory-2step-stake-s,696,2628722,0.0-19.0-0.1-0.193,A2EH7IQCDH2Q5D,32CXT5U15JJVAEXBU2XNZL8A76W8U1,3NG53N1RLZZL4SN93I3VEZHYT128P0,3,4
194,2,object_06,object_07,581.30000001192,4,1,350.09999999404,0.5555555555555556,2,object_03,5,1901,0,4,5,forest_8,2,memory-2step-stake-s,697,2636792,0.0-19.0-0.1-0.194,A2EH7IQCDH2Q5D,32CXT5U15JJVAEXBU2XNZL8A76W8U1,3NG53N1RLZZL4SN93I3VEZHYT128P0,4,3
195,4,object_08,object_10,268.80000001192,8,1,418.79999998212,0.6666666666666666,2,object_03,1,1907,0,3,6,restaurant_4,2,memory-2step-stake-s,698,2645037,0.0-19.0-0.1-0.195,A2EH7IQCDH2Q5D,32CXT5U15JJVAEXBU2XNZL8A76W8U1,3NG53N1RLZZL4SN93I3VEZHYT128P0,8,7
196,3,object_02,object_05,551.30000001192,5,2,512.70000001788,0.4444444444444444,1,object_04,1,1911,0,4,5,library_6,2,memory-2step-stake-s,699,2653169,0.0-19.0-0.1-0.196,A2EH7IQCDH2Q5D,32CXT5U15JJVAEXBU2XNZL8A76W8U1,3NG53N1RLZZL4SN93I3VEZHYT128P0,6,5
197,3,object_02,object_05,640.70000001788,6,1,-1.0,0.0,2,object_03,1,1911,0,4,9,library_4,2,memory-2step-stake-s,700,2661701,0.0-19.0-0.1-0.197,A2EH7IQCDH2Q5D,32CXT5U15JJVAEXBU2XNZL8A76W8U1,3NG53N1RLZZL4SN93I3VEZHYT128P0,6,5
198,4,object_08,object_10,543.19999998808,7,2,319.90000000596,0.0,1,object_04,1,1911,0,0,8,restaurant_7,2,memory-2step-stake-s,701,2669233,0.0-19.0-0.1-0.198,A2EH7IQCDH2Q5D,32CXT5U15JJVAEXBU2XNZL8A76W8U1,3NG53N1RLZZL4SN93I3VEZHYT128P0,8,7
199,2,object_06,object_07,524.40000000596,3,2,399.09999999404,0.0,1,object_04,5,1911,0,0,4,forest_6,2,memory-2step-stake-s,702,2676852,0.0-19.0-0.1-0.199,A2EH7IQCDH2Q5D,32CXT5U15JJVAEXBU2XNZL8A76W8U1,3NG53N1RLZZL4SN93I3VEZHYT128P0,4,3
200,3,object_05,object_02,314.70000001788,5,1,288.09999999404,0.4444444444444444,1,object_04,5,1931,0,4,1,library_4,2,memory-2step-stake-s,703,2684777,0.0-19.0-0.1-0.200,A2EH7IQCDH2Q5D,32CXT5U15JJVAEXBU2XNZL8A76W8U1,3NG53N1RLZZL4SN93I3VEZHYT128P0,5,6
201,3,object_02,object_05,253.0,5,2,423.19999998808,0.3333333333333333,1,object_04,1,1934,0,3,0,library_3,2,memory-2step-stake-s,704,2692725,0.0-19.0-0.1-0.201,A2EH7IQCDH2Q5D,32CXT5U15JJVAEXBU2XNZL8A76W8U1,3NG53N1RLZZL4SN93I3VEZHYT128P0,6,5
202,1,object_01,object_09,334.09999999404,2,1,424.5,0.0,2,object_03,5,1934,0,2,0,desert_1,2,memory-2step-stake-s,705,2700365,0.0-19.0-0.1-0.202,A2EH7IQCDH2Q5D,32CXT5U15JJVAEXBU2XNZL8A76W8U1,3NG53N1RLZZL4SN93I3VEZHYT128P0,2,1
203,4,object_08,object_10,254.29999998212,7,2,458.69999998808,0.5555555555555556,1,object_04,1,1939,0,5,4,restaurant_6,2,memory-2step-stake-s,706,2708545,0.0-19.0-0.1-0.203,A2EH7IQCDH2Q5D,32CXT5U15JJVAEXBU2XNZL8A76W8U1,3NG53N1RLZZL4SN93I3VEZHYT128P0,8,7
204,2,object_07,object_06,482.40000000596,4,2,501.5,0.3333333333333333,2,object_03,5,1954,0,5,3,forest_2,2,memory-2step-stake-s,707,2716572,0.0-19.0-0.1-0.204,A2EH7IQCDH2Q5D,32CXT5U15JJVAEXBU2XNZL8A76W8U1,3NG53N1RLZZL4SN93I3VEZHYT128P0,3,4
205,1,object_01,object_09,432.40000000596,1,2,348.0,0.5555555555555556,1,object_04,5,1979,0,5,5,desert_5,2,memory-2step-stake-s,708,2724656,0.0-19.0-0.1-0.205,A2EH7IQCDH2Q5D,32CXT5U15JJVAEXBU2XNZL8A76W8U1,3NG53N1RLZZL4SN93I3VEZHYT128P0,2,1
206,2,object_07,object_06,539.20000001788,3,1,601.19999998808,0.6666666666666666,1,object_04,1,1985,0,6,1,forest_6,2,memory-2step-stake-s,709,2733083,0.0-19.0-0.1-0.206,A2EH7IQCDH2Q5D,32CXT5U15JJVAEXBU2XNZL8A76W8U1,3NG53N1RLZZL4SN93I3VEZHYT128P0,3,4
207,4,object_10,object_08,357.40000000596,8,2,126.69999998808,0.3333333333333333,2,object_03,1,1988,0,5,3,restaurant_7,2,memory-2step-stake-s,710,2740737,0.0-19.0-0.1-0.207,A2EH7IQCDH2Q5D,32CXT5U15JJVAEXBU2XNZL8A76W8U1,3NG53N1RLZZL4SN93I3VEZHYT128P0,7,8
208,4,object_10,object_08,388.09999999404,7,1,303.19999998808,0.5555555555555556,1,object_04,1,1993,0,5,6,restaurant_6,2,memory-2step-stake-s,711,2748759,0.0-19.0-0.1-0.208,A2EH7IQCDH2Q5D,32CXT5U15JJVAEXBU2XNZL8A76W8U1,3NG53N1RLZZL4SN93I3VEZHYT128P0,7,8
209,3,object_05,object_02,478.39999997616,6,2,856.19999998808,0.8888888888888888,2,object_03,1,2001,0,8,8,library_8,2,memory-2step-stake-s,712,2757691,0.0-19.0-0.1-0.209,A2EH7IQCDH2Q5D,32CXT5U15JJVAEXBU2XNZL8A76W8U1,3NG53N1RLZZL4SN93I3VEZHYT128P0,5,6
210,4,object_08,object_10,384.30000001192,7,2,339.89999997616,0.7777777777777778,1,object_04,1,2008,0,7,5,restaurant_4,2,memory-2step-stake-s,713,2765955,0.0-19.0-0.1-0.210,A2EH7IQCDH2Q5D,32CXT5U15JJVAEXBU2XNZL8A76W8U1,3NG53N1RLZZL4SN93I3VEZHYT128P0,8,7
211,1,object_01,object_09,492.69999998808,2,1,747.59999999404,0.3333333333333333,2,object_03,5,2023,0,7,3,desert_6,2,memory-2step-stake-s,714,2774224,0.0-19.0-0.1-0.211,A2EH7IQCDH2Q5D,32CXT5U15JJVAEXBU2XNZL8A76W8U1,3NG53N1RLZZL4SN93I3VEZHYT128P0,2,1
212,4,object_10,object_08,377.09999999404,8,2,422.89999997616,0.4444444444444444,2,object_03,1,2027,0,8,4,restaurant_4,2,memory-2step-stake-s,715,2782282,0.0-19.0-0.1-0.212,A2EH7IQCDH2Q5D,32CXT5U15JJVAEXBU2XNZL8A76W8U1,3NG53N1RLZZL4SN93I3VEZHYT128P0,7,8
213,4,object_10,object_08,407.0,7,1,470.0,0.6666666666666666,1,object_04,1,2033,0,6,6,restaurant_1,2,memory-2step-stake-s,716,2790575,0.0-19.0-0.1-0.213,A2EH7IQCDH2Q5D,32CXT5U15JJVAEXBU2XNZL8A76W8U1,3NG53N1RLZZL4SN93I3VEZHYT128P0,7,8
214,2,object_06,object_07,411.90000000596,3,2,415.19999998808,0.5555555555555556,1,object_04,5,2058,0,5,3,forest_2,2,memory-2step-stake-s,717,2798746,0.0-19.0-0.1-0.214,A2EH7IQCDH2Q5D,32CXT5U15JJVAEXBU2XNZL8A76W8U1,3NG53N1RLZZL4SN93I3VEZHYT128P0,4,3
215,3,object_02,object_05,527.59999999404,5,2,445.70000001788,0.7777777777777778,1,object_04,5,2093,0,7,1,library_8,2,memory-2step-stake-s,718,2807119,0.0-19.0-0.1-0.215,A2EH7IQCDH2Q5D,32CXT5U15JJVAEXBU2XNZL8A76W8U1,3NG53N1RLZZL4SN93I3VEZHYT128P0,6,5
216,2,object_06,object_07,449.40000000596,3,2,510.0,1.0,1,object_04,5,2138,0,9,2,forest_7,2,memory-2step-stake-s,719,2815772,0.0-19.0-0.1-0.216,A2EH7IQCDH2Q5D,32CXT5U15JJVAEXBU2XNZL8A76W8U1,3NG53N1RLZZL4SN93I3VEZHYT128P0,4,3
217,1,object_09,object_01,474.30000001192,2,2,1094.6000000238,0.1111111111111111,2,object_03,5,2143,0,7,1,desert_3,2,memory-2step-stake-s,720,2824183,0.0-19.0-0.1-0.217,A2EH7IQCDH2Q5D,32CXT5U15JJVAEXBU2XNZL8A76W8U1,3NG53N1RLZZL4SN93I3VEZHYT128P0,1,2
218,1,object_09,object_01,241.70000001788,1,1,543.5,1.0,1,object_04,5,2188,0,9,2,desert_3,2,memory-2step-stake-s,721,2832855,0.0-19.0-0.1-0.218,A2EH7IQCDH2Q5D,32CXT5U15JJVAEXBU2XNZL8A76W8U1,3NG53N1RLZZL4SN93I3VEZHYT128P0,1,2
219,2,object_07,object_06,263.69999998808,4,2,471.5,0.6666666666666666,2,object_03,5,2218,0,9,6,forest_6,2,memory-2step-stake-s,722,2841154,0.0-19.0-0.1-0.219,A2EH7IQCDH2Q5D,32CXT5U15JJVAEXBU2XNZL8A76W8U1,3NG53N1RLZZL4SN93I3VEZHYT128P0,3,4
220,3,object_02,object_05,486.69999998808,5,2,351.20000001788,1.0,1,object_04,1,2227,0,9,5,library_3,2,memory-2step-stake-s,723,2849631,0.0-19.0-0.1-0.220,A2EH7IQCDH2Q5D,32CXT5U15JJVAEXBU2XNZL8A76W8U1,3NG53N1RLZZL4SN93I3VEZHYT128P0,6,5
221,2,object_07,object_06,588.19999998808,3,1,544.0,0.8888888888888888,1,object_04,5,2267,0,8,4,forest_8,2,memory-2step-stake-s,724,2858216,0.0-19.0-0.1-0.221,A2EH7IQCDH2Q5D,32CXT5U15JJVAEXBU2XNZL8A76W8U1,3NG53N1RLZZL4SN93I3VEZHYT128P0,3,4
222,3,object_05,object_02,214.40000000596,6,2,681.30000001192,0.5555555555555556,2,object_03,1,2272,0,5,5,library_6,2,memory-2step-stake-s,725,2866632,0.0-19.0-0.1-0.222,A2EH7IQCDH2Q5D,32CXT5U15JJVAEXBU2XNZL8A76W8U1,3NG53N1RLZZL4SN93I3VEZHYT128P0,5,6
223,2,object_07,object_06,696.29999998212,4,2,227.70000001788,0.1111111111111111,2,object_03,5,2277,0,4,1,forest_2,2,memory-2step-stake-s,726,2874173,0.0-19.0-0.1-0.223,A2EH7IQCDH2Q5D,32CXT5U15JJVAEXBU2XNZL8A76W8U1,3NG53N1RLZZL4SN93I3VEZHYT128P0,3,4
224,3,object_02,object_05,466.90000000596,6,1,442.09999999404,0.2222222222222222,2,object_03,1,2279,0,2,2,library_4,2,memory-2step-stake-s,727,2882033,0.0-19.0-0.1-0.224,A2EH7IQCDH2Q5D,32CXT5U15JJVAEXBU2XNZL8A76W8U1,3NG53N1RLZZL4SN93I3VEZHYT128P0,6,5
225,1,object_09,object_01,400.5,2,2,674.39999997616,0.1111111111111111,2,object_03,5,2284,0,4,1,desert_5,2,memory-2step-stake-s,728,2890026,0.0-19.0-0.1-0.225,A2EH7IQCDH2Q5D,32CXT5U15JJVAEXBU2XNZL8A76W8U1,3NG53N1RLZZL4SN93I3VEZHYT128P0,1,2
226,3,object_05,object_02,436.0,5,1,542.09999999404,0.6666666666666666,1,object_04,1,2290,0,6,0,library_3,2,memory-2step-stake-s,729,2898391,0.0-19.0-0.1-0.226,A2EH7IQCDH2Q5D,32CXT5U15JJVAEXBU2XNZL8A76W8U1,3NG53N1RLZZL4SN93I3VEZHYT128P0,5,6
227,1,object_01,object_09,420.0,1,2,258.29999998212,0.6666666666666666,1,object_04,5,2320,0,6,2,desert_1,2,memory-2step-stake-s,730,2906472,0.0-19.0-0.1-0.227,A2EH7IQCDH2Q5D,32CXT5U15JJVAEXBU2XNZL8A76W8U1,3NG53N1RLZZL4SN93I3VEZHYT128P0,2,1
228,2,object_06,object_07,736.5,3,2,503.59999999404,0.8888888888888888,1,object_04,5,2360,0,8,6,forest_2,2,memory-2step-stake-s,731,2915017,0.0-19.0-0.1-0.228,A2EH7IQCDH2Q5D,32CXT5U15JJVAEXBU2XNZL8A76W8U1,3NG53N1RLZZL4SN93I3VEZHYT128P0,4,3
229,2,object_06,object_07,464.69999998808,3,2,274.29999998212,0.8888888888888888,1,object_04,5,2400,0,8,5,forest_8,2,memory-2step-stake-s,732,2923319,0.0-19.0-0.1-0.229,A2EH7IQCDH2Q5D,32CXT5U15JJVAEXBU2XNZL8A76W8U1,3NG53N1RLZZL4SN93I3VEZHYT128P0,4,3
230,1,object_09,object_01,453.69999998808,2,2,510.40000000596,0.8888888888888888,2,object_03,5,2440,0,7,8,desert_3,2,memory-2step-stake-s,733,2931859,0.0-19.0-0.1-0.230,A2EH7IQCDH2Q5D,32CXT5U15JJVAEXBU2XNZL8A76W8U1,3NG53N1RLZZL4SN93I3VEZHYT128P0,1,2
231,3,object_05,object_02,510.90000000596,6,2,299.30000001192,0.8888888888888888,2,object_03,1,2448,0,9,8,library_6,2,memory-2step-stake-s,734,2940193,0.0-19.0-0.1-0.231,A2EH7IQCDH2Q5D,32CXT5U15JJVAEXBU2XNZL8A76W8U1,3NG53N1RLZZL4SN93I3VEZHYT128P0,5,6
232,2,object_07,object_06,250.30000001192,3,1,353.39999997616,0.8888888888888888,1,object_04,5,2488,0,8,4,forest_8,2,memory-2step-stake-s,735,2948575,0.0-19.0-0.1-0.232,A2EH7IQCDH2Q5D,32CXT5U15JJVAEXBU2XNZL8A76W8U1,3NG53N1RLZZL4SN93I3VEZHYT128P0,3,4
233,2,object_06,object_07,500.59999999404,3,2,158.40000000596,0.7777777777777778,1,object_04,5,2523,0,7,3,forest_2,2,memory-2step-stake-s,736,2956662,0.0-19.0-0.1-0.233,A2EH7IQCDH2Q5D,32CXT5U15JJVAEXBU2XNZL8A76W8U1,3NG53N1RLZZL4SN93I3VEZHYT128P0,4,3
234,4,object_08,object_10,409.20000001788,7,2,425.79999998212,0.7777777777777778,1,object_04,1,2530,0,7,1,restaurant_6,2,memory-2step-stake-s,737,2965008,0.0-19.0-0.1-0.234,A2EH7IQCDH2Q5D,32CXT5U15JJVAEXBU2XNZL8A76W8U1,3NG53N1RLZZL4SN93I3VEZHYT128P0,8,7
235,1,object_01,object_09,489.39999997616,1,2,449.29999998212,0.7777777777777778,1,object_04,5,2565,0,7,3,desert_6,2,memory-2step-stake-s,738,2973395,0.0-19.0-0.1-0.235,A2EH7IQCDH2Q5D,32CXT5U15JJVAEXBU2XNZL8A76W8U1,3NG53N1RLZZL4SN93I3VEZHYT128P0,2,1
236,2,object_07,object_06,554.90000000596,4,2,453.79999998212,0.5555555555555556,2,object_03,5,2590,0,7,5,forest_7,2,memory-2step-stake-s,739,2981572,0.0-19.0-0.1-0.236,A2EH7IQCDH2Q5D,32CXT5U15JJVAEXBU2XNZL8A76W8U1,3NG53N1RLZZL4SN93I3VEZHYT128P0,3,4
237,4,object_08,object_10,460.0,7,2,169.19999998808,0.7777777777777778,1,object_04,5,2625,0,7,1,restaurant_1,2,memory-2step-stake-s,740,2989672,0.0-19.0-0.1-0.237,A2EH7IQCDH2Q5D,32CXT5U15JJVAEXBU2XNZL8A76W8U1,3NG53N1RLZZL4SN93I3VEZHYT128P0,8,7
238,2,object_06,object_07,590.0,4,1,237.20000001788,0.2222222222222222,2,object_03,1,2627,0,8,2,forest_8,2,memory-2step-stake-s,741,2997328,0.0-19.0-0.1-0.238,A2EH7IQCDH2Q5D,32CXT5U15JJVAEXBU2XNZL8A76W8U1,3NG53N1RLZZL4SN93I3VEZHYT128P0,4,3
239,4,object_10,object_08,396.90000000596,8,2,532.69999998808,0.3333333333333333,2,object_03,5,2642,0,6,3,restaurant_1,2,memory-2step-stake-s,742,3005382,0.0-19.0-0.1-0.239,A2EH7IQCDH2Q5D,32CXT5U15JJVAEXBU2XNZL8A76W8U1,3NG53N1RLZZL4SN93I3VEZHYT128P0,7,8
240,2,object_07,object_06,441.09999999404,4,2,394.90000000596,0.2222222222222222,2,object_03,5,2652,0,3,2,forest_7,2,memory-2step-stake-s,743,3013210,0.0-19.0-0.1-0.240,A2EH7IQCDH2Q5D,32CXT5U15JJVAEXBU2XNZL8A76W8U1,3NG53N1RLZZL4SN93I3VEZHYT128P0,3,4
241,2,object_07,object_06,562.0,3,1,377.09999999404,0.2222222222222222,1,object_04,5,2662,0,2,3,forest_2,2,memory-2step-stake-s,744,3021009,0.0-19.0-0.1-0.241,A2EH7IQCDH2Q5D,32CXT5U15JJVAEXBU2XNZL8A76W8U1,3NG53N1RLZZL4SN93I3VEZHYT128P0,3,4
242,2,object_07,object_06,414.5,4,2,443.5,0.1111111111111111,2,object_03,5,2667,0,7,1,forest_6,2,memory-2step-stake-s,745,3028772,0.0-19.0-0.1-0.242,A2EH7IQCDH2Q5D,32CXT5U15JJVAEXBU2XNZL8A76W8U1,3NG53N1RLZZL4SN93I3VEZHYT128P0,3,4
243,1,object_01,object_09,388.59999999404,1,2,376.59999999404,0.6666666666666666,1,object_04,1,2673,0,6,1,desert_1,2,memory-2step-stake-s,746,3036972,0.0-19.0-0.1-0.243,A2EH7IQCDH2Q5D,32CXT5U15JJVAEXBU2XNZL8A76W8U1,3NG53N1RLZZL4SN93I3VEZHYT128P0,2,1
244,2,object_06,object_07,556.5,3,2,517.19999998808,0.6666666666666666,1,object_04,5,2703,0,6,1,forest_8,2,memory-2step-stake-s,747,3045310,0.0-19.0-0.1-0.244,A2EH7IQCDH2Q5D,32CXT5U15JJVAEXBU2XNZL8A76W8U1,3NG53N1RLZZL4SN93I3VEZHYT128P0,4,3
245,4,object_08,object_10,423.0,8,1,698.79999998212,0.3333333333333333,2,object_03,1,2706,0,8,3,restaurant_7,2,memory-2step-stake-s,748,3053533,0.0-19.0-0.1-0.245,A2EH7IQCDH2Q5D,32CXT5U15JJVAEXBU2XNZL8A76W8U1,3NG53N1RLZZL4SN93I3VEZHYT128P0,8,7
246,1,object_09,object_01,646.70000001788,2,2,448.0,0.4444444444444444,2,object_03,5,2726,0,6,4,desert_5,2,memory-2step-stake-s,749,3061605,0.0-19.0-0.1-0.246,A2EH7IQCDH2Q5D,32CXT5U15JJVAEXBU2XNZL8A76W8U1,3NG53N1RLZZL4SN93I3VEZHYT128P0,1,2
247,3,object_05,object_02,580.09999999404,6,2,401.69999998808,0.5555555555555556,2,object_03,1,2731,0,4,5,library_4,2,memory-2step-stake-s,750,3069722,0.0-19.0-0.1-0.247,A2EH7IQCDH2Q5D,32CXT5U15JJVAEXBU2XNZL8A76W8U1,3NG53N1RLZZL4SN93I3VEZHYT128P0,5,6
248,1,object_01,object_09,725.5,2,1,343.30000001192,0.6666666666666666,2,object_03,1,2737,0,1,6,desert_3,2,memory-2step-stake-s,751,3077894,0.0-19.0-0.1-0.248,A2EH7IQCDH2Q5D,32CXT5U15JJVAEXBU2XNZL8A76W8U1,3NG53N1RLZZL4SN93I3VEZHYT128P0,2,1
249,3,object_02,object_05,370.59999999404,5,2,475.79999998212,0.1111111111111111,1,object_04,1,2738,0,1,6,library_4,2,memory-2step-stake-s,752,3085691,0.0-19.0-0.1-0.249,A2EH7IQCDH2Q5D,32CXT5U15JJVAEXBU2XNZL8A76W8U1,3NG53N1RLZZL4SN93I3VEZHYT128P0,6,5
250,4,object_10,object_08,259.79999998212,7,1,369.79999998212,0.0,1,object_04,1,2738,0,0,5,restaurant_7,2,memory-2step-stake-s,753,3093297,0.0-19.0-0.1-0.250,A2EH7IQCDH2Q5D,32CXT5U15JJVAEXBU2XNZL8A76W8U1,3NG53N1RLZZL4SN93I3VEZHYT128P0,7,8
251,3,object_05,object_02,440.5,6,2,352.90000000596,0.7777777777777778,2,object_03,1,2745,0,1,7,library_3,2,memory-2step-stake-s,754,3101588,0.0-19.0-0.1-0.251,A2EH7IQCDH2Q5D,32CXT5U15JJVAEXBU2XNZL8A76W8U1,3NG53N1RLZZL4SN93I3VEZHYT128P0,5,6
252,4,object_08,object_10,350.0,7,2,880.89999997616,0.3333333333333333,1,object_04,1,2748,0,3,4,restaurant_7,2,memory-2step-stake-s,755,3109986,0.0-19.0-0.1-0.252,A2EH7IQCDH2Q5D,32CXT5U15JJVAEXBU2XNZL8A76W8U1,3NG53N1RLZZL4SN93I3VEZHYT128P0,8,7
253,3,object_02,object_05,513.0,6,1,443.0,0.6666666666666666,2,object_03,1,2754,0,5,6,library_3,2,memory-2step-stake-s,756,3118253,0.0-19.0-0.1-0.253,A2EH7IQCDH2Q5D,32CXT5U15JJVAEXBU2XNZL8A76W8U1,3NG53N1RLZZL4SN93I3VEZHYT128P0,6,5
254,4,object_08,object_10,410.40000000596,7,2,306.59999999404,0.8888888888888888,1,object_04,1,2762,0,8,5,restaurant_4,2,memory-2step-stake-s,757,3126578,0.0-19.0-0.1-0.254,A2EH7IQCDH2Q5D,32CXT5U15JJVAEXBU2XNZL8A76W8U1,3NG53N1RLZZL4SN93I3VEZHYT128P0,8,7
255,4,object_08,object_10,563.20000001788,8,1,605.90000000596,0.2222222222222222,2,object_03,1,2764,0,9,2,restaurant_4,2,memory-2step-stake-s,758,3134608,0.0-19.0-0.1-0.255,A2EH7IQCDH2Q5D,32CXT5U15JJVAEXBU2XNZL8A76W8U1,3NG53N1RLZZL4SN93I3VEZHYT128P0,8,7
