,state1,stim_left,stim_right,rt_1,choice1,response1,rt_2,points,state2,stim_state2,stake,score,practice,rews1,rews2,background,high_arm,trial_type,trial_index,time_elapsed,internal_node_id,subid,hitid,assignmentid,stim_left_num,stim_right_num
0,4,object_08,object_03,992.20000000298,7,1,655.0,0.8888888888888888,1,object_05,5,40,0,8,0,restaurant_6,1,memory-2step-stake-s,490,1100710,0.0-19.0-0.0-0.0,A16E38HXNQBLCU,3YO4AH2FQG0L0WLRIP03W553LNE0Q1,34HJIJKLP9CXQBX3DRMH3FQBD374VA,7,8
1,4,object_03,object_08,875.09999999404,7,2,611.0,1.0,1,object_05,5,85,0,9,0,restaurant_5,1,memory-2step-stake-s,491,1109529,0.0-19.0-0.0-0.1,A16E38HXNQBLCU,3YO4AH2FQG0L0WLRIP03W553LNE0Q1,34HJIJKLP9CXQBX3DRMH3FQBD374VA,8,7
2,4,object_03,object_08,1041.799999997,7,2,546.0,0.8888888888888888,1,object_05,5,125,0,8,3,restaurant_4,1,memory-2step-stake-s,492,1118193,0.0-19.0-0.0-0.2,A16E38HXNQBLCU,3YO4AH2FQG0L0WLRIP03W553LNE0Q1,34HJIJKLP9CXQBX3DRMH3FQBD374VA,8,7
3,2,object_06,object_04,1340.200000003,4,2,894.79999999702,0.1111111111111111,2,object_01,5,130,0,8,1,forest_2,1,memory-2step-stake-s,493,1126454,0.0-19.0-0.0-0.3,A16E38HXNQBLCU,3YO4AH2FQG0L0WLRIP03W553LNE0Q1,34HJIJKLP9CXQBX3DRMH3FQBD374VA,3,4
4,4,object_08,object_03,921.5,7,1,424.79999999702,0.6666666666666666,1,object_05,5,160,0,6,2,restaurant_2,1,memory-2step-stake-s,494,1134763,0.0-19.0-0.0-0.4,A16E38HXNQBLCU,3YO4AH2FQG0L0WLRIP03W553LNE0Q1,34HJIJKLP9CXQBX3DRMH3FQBD374VA,7,8
5,1,object_07,object_09,1180.299999997,2,2,616.09999999404,0.1111111111111111,2,object_01,1,161,0,8,1,desert_1,1,memory-2step-stake-s,495,1142775,0.0-19.0-0.0-0.5,A16E38HXNQBLCU,3YO4AH2FQG0L0WLRIP03W553LNE0Q1,34HJIJKLP9CXQBX3DRMH3FQBD374VA,1,2
6,4,object_03,object_08,695.10000000894,7,2,464.60000000894,0.6666666666666666,1,object_05,5,191,0,6,2,restaurant_4,1,memory-2step-stake-s,496,1151137,0.0-19.0-0.0-0.6,A16E38HXNQBLCU,3YO4AH2FQG0L0WLRIP03W553LNE0Q1,34HJIJKLP9CXQBX3DRMH3FQBD374VA,8,7
7,2,object_06,object_04,926.29999999702,3,1,655.29999999702,0.7777777777777778,1,object_05,5,226,0,7,1,forest_3,1,memory-2step-stake-s,497,1159784,0.0-19.0-0.0-0.7,A16E38HXNQBLCU,3YO4AH2FQG0L0WLRIP03W553LNE0Q1,34HJIJKLP9CXQBX3DRMH3FQBD374VA,3,4
8,4,object_03,object_08,996.0,8,1,564.09999999404,0.3333333333333333,2,object_01,5,241,0,7,3,restaurant_6,1,memory-2step-stake-s,498,1167906,0.0-19.0-0.0-0.8,A16E38HXNQBLCU,3YO4AH2FQG0L0WLRIP03W553LNE0Q1,34HJIJKLP9CXQBX3DRMH3FQBD374VA,8,7
9,1,object_09,object_07,1103.0,1,2,595.10000000894,1.0,1,object_05,1,250,0,9,4,desert_1,1,memory-2step-stake-s,499,1176693,0.0-19.0-0.0-0.9,A16E38HXNQBLCU,3YO4AH2FQG0L0WLRIP03W553LNE0Q1,34HJIJKLP9CXQBX3DRMH3FQBD374VA,2,1
10,1,object_07,object_09,1106.299999997,1,1,930.89999999106,0.7777777777777778,1,object_05,1,257,0,7,3,desert_8,1,memory-2step-stake-s,500,1185609,0.0-19.0-0.0-0.10,A16E38HXNQBLCU,3YO4AH2FQG0L0WLRIP03W553LNE0Q1,34HJIJKLP9CXQBX3DRMH3FQBD374VA,1,2
11,4,object_03,object_08,685.09999999404,7,2,435.5,1.0,1,object_05,5,302,0,9,1,restaurant_6,1,memory-2step-stake-s,501,1194254,0.0-19.0-0.0-0.11,A16E38HXNQBLCU,3YO4AH2FQG0L0WLRIP03W553LNE0Q1,34HJIJKLP9CXQBX3DRMH3FQBD374VA,8,7
12,2,object_04,object_06,1255.3999999911,3,2,541.90000000596,0.6666666666666666,1,object_05,1,308,0,6,1,forest_6,1,memory-2step-stake-s,502,1202694,0.0-19.0-0.0-0.12,A16E38HXNQBLCU,3YO4AH2FQG0L0WLRIP03W553LNE0Q1,34HJIJKLP9CXQBX3DRMH3FQBD374VA,4,3
13,4,object_08,object_03,998.09999999404,7,1,670.40000000596,0.7777777777777778,1,object_05,5,343,0,7,2,restaurant_5,1,memory-2step-stake-s,503,1211355,0.0-19.0-0.0-0.13,A16E38HXNQBLCU,3YO4AH2FQG0L0WLRIP03W553LNE0Q1,34HJIJKLP9CXQBX3DRMH3FQBD374VA,7,8
14,2,object_06,object_04,956.0,3,1,393.60000000894,0.6666666666666666,1,object_05,5,373,0,6,3,forest_6,1,memory-2step-stake-s,504,1219660,0.0-19.0-0.0-0.14,A16E38HXNQBLCU,3YO4AH2FQG0L0WLRIP03W553LNE0Q1,34HJIJKLP9CXQBX3DRMH3FQBD374VA,3,4
15,1,object_07,object_09,745.30000001192,1,1,376.80000001192,0.5555555555555556,1,object_05,1,378,0,5,3,desert_1,1,memory-2step-stake-s,505,1227835,0.0-19.0-0.0-0.15,A16E38HXNQBLCU,3YO4AH2FQG0L0WLRIP03W553LNE0Q1,34HJIJKLP9CXQBX3DRMH3FQBD374VA,1,2
16,1,object_09,object_07,699.19999998808,1,2,438.30000001192,0.3333333333333333,1,object_05,1,381,0,3,3,desert_1,1,memory-2step-stake-s,506,1235848,0.0-19.0-0.0-0.16,A16E38HXNQBLCU,3YO4AH2FQG0L0WLRIP03W553LNE0Q1,34HJIJKLP9CXQBX3DRMH3FQBD374VA,2,1
17,4,object_03,object_08,698.5,7,2,425.20000000298,0.8888888888888888,1,object_05,5,421,0,8,1,restaurant_5,1,memory-2step-stake-s,507,1244378,0.0-19.0-0.0-0.17,A16E38HXNQBLCU,3YO4AH2FQG0L0WLRIP03W553LNE0Q1,34HJIJKLP9CXQBX3DRMH3FQBD374VA,8,7
18,4,object_03,object_08,1310.0,7,2,1025.799999997,0.6666666666666666,1,object_05,5,451,0,6,3,restaurant_2,1,memory-2step-stake-s,508,1253291,0.0-19.0-0.0-0.18,A16E38HXNQBLCU,3YO4AH2FQG0L0WLRIP03W553LNE0Q1,34HJIJKLP9CXQBX3DRMH3FQBD374VA,8,7
19,2,object_04,object_06,1066.299999997,3,2,431.90000000596,0.7777777777777778,1,object_05,1,458,0,7,2,forest_8,1,memory-2step-stake-s,509,1261723,0.0-19.0-0.0-0.19,A16E38HXNQBLCU,3YO4AH2FQG0L0WLRIP03W553LNE0Q1,34HJIJKLP9CXQBX3DRMH3FQBD374VA,4,3
20,2,object_04,object_06,857.89999999106,3,2,453.39999999106,1.0,1,object_05,5,503,0,9,0,forest_2,1,memory-2step-stake-s,510,1270388,0.0-19.0-0.0-0.20,A16E38HXNQBLCU,3YO4AH2FQG0L0WLRIP03W553LNE0Q1,34HJIJKLP9CXQBX3DRMH3FQBD374VA,4,3
21,3,object_02,object_10,1353.700000003,6,1,485.70000000298,0.1111111111111111,2,object_01,5,508,0,7,1,library_2,1,memory-2step-stake-s,511,1278238,0.0-19.0-0.0-0.21,A16E38HXNQBLCU,3YO4AH2FQG0L0WLRIP03W553LNE0Q1,34HJIJKLP9CXQBX3DRMH3FQBD374VA,6,5
22,4,object_03,object_08,677.70000000298,7,2,439.70000000298,0.6666666666666666,1,object_05,5,538,0,6,1,restaurant_4,1,memory-2step-stake-s,512,1286583,0.0-19.0-0.0-0.22,A16E38HXNQBLCU,3YO4AH2FQG0L0WLRIP03W553LNE0Q1,34HJIJKLP9CXQBX3DRMH3FQBD374VA,8,7
23,3,object_10,object_02,651.10000000894,5,1,635.90000000596,0.6666666666666666,1,object_05,5,568,0,6,0,library_7,1,memory-2step-stake-s,513,1295151,0.0-19.0-0.0-0.23,A16E38HXNQBLCU,3YO4AH2FQG0L0WLRIP03W553LNE0Q1,34HJIJKLP9CXQBX3DRMH3FQBD374VA,5,6
24,1,object_07,object_09,1091.1999999881,1,1,617.09999999404,0.7777777777777778,1,object_05,5,603,0,7,2,desert_3,1,memory-2step-stake-s,514,1303818,0.0-19.0-0.0-0.24,A16E38HXNQBLCU,3YO4AH2FQG0L0WLRIP03W553LNE0Q1,34HJIJKLP9CXQBX3DRMH3FQBD374VA,1,2
25,4,object_03,object_08,814.70000000298,7,2,298.20000000298,0.6666666666666666,1,object_05,1,609,0,6,3,restaurant_5,1,memory-2step-stake-s,515,1312050,0.0-19.0-0.0-0.25,A16E38HXNQBLCU,3YO4AH2FQG0L0WLRIP03W553LNE0Q1,34HJIJKLP9CXQBX3DRMH3FQBD374VA,8,7
26,4,object_03,object_08,678.0,7,2,593.10000000894,0.8888888888888888,1,object_05,1,617,0,8,4,restaurant_5,1,memory-2step-stake-s,516,1320791,0.0-19.0-0.0-0.26,A16E38HXNQBLCU,3YO4AH2FQG0L0WLRIP03W553LNE0Q1,34HJIJKLP9CXQBX3DRMH3FQBD374VA,8,7
27,3,object_10,object_02,1249.0,5,1,414.59999999404,0.8888888888888888,1,object_05,5,657,0,8,2,library_4,1,memory-2step-stake-s,517,1329309,0.0-19.0-0.0-0.27,A16E38HXNQBLCU,3YO4AH2FQG0L0WLRIP03W553LNE0Q1,34HJIJKLP9CXQBX3DRMH3FQBD374VA,5,6
28,3,object_10,object_02,637.39999999106,5,1,335.39999999106,0.7777777777777778,1,object_05,5,692,0,7,3,library_2,1,memory-2step-stake-s,518,1337659,0.0-19.0-0.0-0.28,A16E38HXNQBLCU,3YO4AH2FQG0L0WLRIP03W553LNE0Q1,34HJIJKLP9CXQBX3DRMH3FQBD374VA,5,6
29,4,object_08,object_03,766.29999999702,7,1,354.60000000894,0.8888888888888888,1,object_05,5,732,0,8,3,restaurant_2,1,memory-2step-stake-s,519,1346102,0.0-19.0-0.0-0.29,A16E38HXNQBLCU,3YO4AH2FQG0L0WLRIP03W553LNE0Q1,34HJIJKLP9CXQBX3DRMH3FQBD374VA,7,8
30,1,object_07,object_09,739.0,1,1,548.60000000894,0.6666666666666666,1,object_05,1,738,0,6,3,desert_8,1,memory-2step-stake-s,520,1354567,0.0-19.0-0.0-0.30,A16E38HXNQBLCU,3YO4AH2FQG0L0WLRIP03W553LNE0Q1,34HJIJKLP9CXQBX3DRMH3FQBD374VA,1,2
31,4,object_03,object_08,730.0,7,2,762.59999999404,0.8888888888888888,1,object_05,5,778,0,8,4,restaurant_6,1,memory-2step-stake-s,521,1363451,0.0-19.0-0.0-0.31,A16E38HXNQBLCU,3YO4AH2FQG0L0WLRIP03W553LNE0Q1,34HJIJKLP9CXQBX3DRMH3FQBD374VA,8,7
32,2,object_04,object_06,782.0,3,2,631.20000000298,0.4444444444444444,1,object_05,1,782,0,4,3,forest_2,1,memory-2step-stake-s,522,1371781,0.0-19.0-0.0-0.32,A16E38HXNQBLCU,3YO4AH2FQG0L0WLRIP03W553LNE0Q1,34HJIJKLP9CXQBX3DRMH3FQBD374VA,4,3
33,2,object_06,object_04,836.0,3,1,957.09999999404,0.3333333333333333,1,object_05,1,785,0,3,2,forest_6,1,memory-2step-stake-s,523,1380354,0.0-19.0-0.0-0.33,A16E38HXNQBLCU,3YO4AH2FQG0L0WLRIP03W553LNE0Q1,34HJIJKLP9CXQBX3DRMH3FQBD374VA,3,4
34,2,object_06,object_04,758.0,3,1,547.90000000596,0.6666666666666666,1,object_05,1,791,0,6,2,forest_6,1,memory-2step-stake-s,524,1388782,0.0-19.0-0.0-0.34,A16E38HXNQBLCU,3YO4AH2FQG0L0WLRIP03W553LNE0Q1,34HJIJKLP9CXQBX3DRMH3FQBD374VA,3,4
35,3,object_02,object_10,733.29999999702,5,2,843.5,0.7777777777777778,1,object_05,5,826,0,7,0,library_4,1,memory-2step-stake-s,525,1397691,0.0-19.0-0.0-0.35,A16E38HXNQBLCU,3YO4AH2FQG0L0WLRIP03W553LNE0Q1,34HJIJKLP9CXQBX3DRMH3FQBD374VA,6,5
36,2,object_06,object_04,766.30000001192,3,1,421.0,1.0,1,object_05,1,835,0,9,1,forest_3,1,memory-2step-stake-s,526,1406407,0.0-19.0-0.0-0.36,A16E38HXNQBLCU,3YO4AH2FQG0L0WLRIP03W553LNE0Q1,34HJIJKLP9CXQBX3DRMH3FQBD374VA,3,4
37,3,object_02,object_10,846.70000000298,5,2,971.09999999404,0.8888888888888888,1,object_05,5,875,0,8,1,library_2,1,memory-2step-stake-s,527,1415518,0.0-19.0-0.0-0.37,A16E38HXNQBLCU,3YO4AH2FQG0L0WLRIP03W553LNE0Q1,34HJIJKLP9CXQBX3DRMH3FQBD374VA,6,5
38,3,object_02,object_10,771.79999999702,5,2,999.5,1.0,1,object_05,5,920,0,9,2,library_6,1,memory-2step-stake-s,528,1424766,0.0-19.0-0.0-0.38,A16E38HXNQBLCU,3YO4AH2FQG0L0WLRIP03W553LNE0Q1,34HJIJKLP9CXQBX3DRMH3FQBD374VA,6,5
39,4,object_08,object_03,1112.5,7,1,686.09999999404,1.0,1,object_05,5,965,0,9,2,restaurant_6,1,memory-2step-stake-s,529,1433668,0.0-19.0-0.0-0.39,A16E38HXNQBLCU,3YO4AH2FQG0L0WLRIP03W553LNE0Q1,34HJIJKLP9CXQBX3DRMH3FQBD374VA,7,8
40,3,object_02,object_10,795.39999999106,5,2,793.09999999404,0.8888888888888888,1,object_05,5,1005,0,8,0,library_2,1,memory-2step-stake-s,530,1442558,0.0-19.0-0.0-0.40,A16E38HXNQBLCU,3YO4AH2FQG0L0WLRIP03W553LNE0Q1,34HJIJKLP9CXQBX3DRMH3FQBD374VA,6,5
41,4,object_03,object_08,631.09999999404,7,2,372.89999999106,1.0,1,object_05,5,1050,0,9,4,restaurant_2,1,memory-2step-stake-s,531,1451120,0.0-19.0-0.0-0.41,A16E38HXNQBLCU,3YO4AH2FQG0L0WLRIP03W553LNE0Q1,34HJIJKLP9CXQBX3DRMH3FQBD374VA,8,7
42,2,object_06,object_04,595.5,3,1,651.0,1.0,1,object_05,1,1059,0,9,7,forest_2,1,memory-2step-stake-s,532,1460035,0.0-19.0-0.0-0.42,A16E38HXNQBLCU,3YO4AH2FQG0L0WLRIP03W553LNE0Q1,34HJIJKLP9CXQBX3DRMH3FQBD374VA,3,4
43,4,object_08,object_03,772.90000000596,7,1,626.79999999702,0.6666666666666666,1,object_05,1,1065,0,6,6,restaurant_6,1,memory-2step-stake-s,533,1468581,0.0-19.0-0.0-0.43,A16E38HXNQBLCU,3YO4AH2FQG0L0WLRIP03W553LNE0Q1,34HJIJKLP9CXQBX3DRMH3FQBD374VA,7,8
44,2,object_04,object_06,761.29999999702,3,2,312.0,0.5555555555555556,1,object_05,1,1070,0,5,8,forest_3,1,memory-2step-stake-s,534,1476701,0.0-19.0-0.0-0.44,A16E38HXNQBLCU,3YO4AH2FQG0L0WLRIP03W553LNE0Q1,34HJIJKLP9CXQBX3DRMH3FQBD374VA,4,3
45,4,object_03,object_08,629.09999999404,7,2,617.89999999106,0.6666666666666666,1,object_05,5,1100,0,6,8,restaurant_5,1,memory-2step-stake-s,535,1485223,0.0-19.0-0.0-0.45,A16E38HXNQBLCU,3YO4AH2FQG0L0WLRIP03W553LNE0Q1,34HJIJKLP9CXQBX3DRMH3FQBD374VA,8,7
46,3,object_10,object_02,816.30000001192,5,1,619.90000000596,0.5555555555555556,1,object_05,5,1125,0,5,8,library_4,1,memory-2step-stake-s,536,1493617,0.0-19.0-0.0-0.46,A16E38HXNQBLCU,3YO4AH2FQG0L0WLRIP03W553LNE0Q1,34HJIJKLP9CXQBX3DRMH3FQBD374VA,5,6
47,2,object_06,object_04,704.40000000596,3,1,809.89999999106,0.8888888888888888,1,object_05,5,1165,0,8,7,forest_3,1,memory-2step-stake-s,537,1502529,0.0-19.0-0.0-0.47,A16E38HXNQBLCU,3YO4AH2FQG0L0WLRIP03W553LNE0Q1,34HJIJKLP9CXQBX3DRMH3FQBD374VA,3,4
48,1,object_09,object_07,1462.099999994,1,2,648.20000000298,0.8888888888888888,1,object_05,5,1205,0,8,8,desert_8,1,memory-2step-stake-s,538,1511285,0.0-19.0-0.0-0.48,A16E38HXNQBLCU,3YO4AH2FQG0L0WLRIP03W553LNE0Q1,34HJIJKLP9CXQBX3DRMH3FQBD374VA,2,1
49,1,object_09,object_07,1131.5,1,2,526.29999999702,0.6666666666666666,1,object_05,5,1235,0,6,5,desert_8,1,memory-2step-stake-s,539,1519736,0.0-19.0-0.0-0.49,A16E38HXNQBLCU,3YO4AH2FQG0L0WLRIP03W553LNE0Q1,34HJIJKLP9CXQBX3DRMH3FQBD374VA,2,1
50,3,object_02,object_10,864.39999999106,5,2,454.89999999106,0.6666666666666666,1,object_05,5,1265,0,6,5,library_7,1,memory-2step-stake-s,540,1528133,0.0-19.0-0.0-0.50,A16E38HXNQBLCU,3YO4AH2FQG0L0WLRIP03W553LNE0Q1,34HJIJKLP9CXQBX3DRMH3FQBD374VA,6,5
51,3,object_02,object_10,683.60000000894,5,2,353.0,0.4444444444444444,1,object_05,5,1285,0,4,5,library_6,1,memory-2step-stake-s,541,1536201,0.0-19.0-0.0-0.51,A16E38HXNQBLCU,3YO4AH2FQG0L0WLRIP03W553LNE0Q1,34HJIJKLP9CXQBX3DRMH3FQBD374VA,6,5
52,3,object_02,object_10,1005.5,5,2,641.10000000894,0.4444444444444444,1,object_05,1,1289,0,4,5,library_4,1,memory-2step-stake-s,542,1544551,0.0-19.0-0.0-0.52,A16E38HXNQBLCU,3YO4AH2FQG0L0WLRIP03W553LNE0Q1,34HJIJKLP9CXQBX3DRMH3FQBD374VA,6,5
53,3,object_10,object_02,711.80000001192,5,1,388.10000000894,0.1111111111111111,1,object_05,5,1294,0,1,2,library_4,1,memory-2step-stake-s,543,1552334,0.0-19.0-0.0-0.53,A16E38HXNQBLCU,3YO4AH2FQG0L0WLRIP03W553LNE0Q1,34HJIJKLP9CXQBX3DRMH3FQBD374VA,5,6
54,4,object_08,object_03,825.70000000298,7,1,372.20000000298,0.1111111111111111,1,object_05,5,1299,0,1,2,restaurant_5,1,memory-2step-stake-s,544,1560106,0.0-19.0-0.0-0.54,A16E38HXNQBLCU,3YO4AH2FQG0L0WLRIP03W553LNE0Q1,34HJIJKLP9CXQBX3DRMH3FQBD374VA,7,8
55,4,object_08,object_03,1251.799999997,8,2,918.09999999404,0.2222222222222222,2,object_01,5,1309,0,2,2,restaurant_6,1,memory-2step-stake-s,545,1568494,0.0-19.0-0.0-0.55,A16E38HXNQBLCU,3YO4AH2FQG0L0WLRIP03W553LNE0Q1,34HJIJKLP9CXQBX3DRMH3FQBD374VA,7,8
56,1,object_09,object_07,855.40000000596,1,2,384.90000000596,0.1111111111111111,1,object_05,1,1310,0,1,4,desert_3,1,memory-2step-stake-s,546,1576238,0.0-19.0-0.0-0.56,A16E38HXNQBLCU,3YO4AH2FQG0L0WLRIP03W553LNE0Q1,34HJIJKLP9CXQBX3DRMH3FQBD374VA,2,1
57,1,object_09,object_07,677.59999999404,2,1,341.90000000596,0.6666666666666666,2,object_01,5,1340,0,1,6,desert_3,1,memory-2step-stake-s,547,1584519,0.0-19.0-0.0-0.57,A16E38HXNQBLCU,3YO4AH2FQG0L0WLRIP03W553LNE0Q1,34HJIJKLP9CXQBX3DRMH3FQBD374VA,2,1
58,3,object_02,object_10,676.0,6,1,345.29999999702,0.8888888888888888,2,object_01,5,1380,0,3,8,library_4,1,memory-2step-stake-s,548,1593003,0.0-19.0-0.0-0.58,A16E38HXNQBLCU,3YO4AH2FQG0L0WLRIP03W553LNE0Q1,34HJIJKLP9CXQBX3DRMH3FQBD374VA,6,5
59,4,object_08,object_03,875.10000000894,8,2,406.5,0.8888888888888888,2,object_01,5,1420,0,5,8,restaurant_2,1,memory-2step-stake-s,549,1601583,0.0-19.0-0.0-0.59,A16E38HXNQBLCU,3YO4AH2FQG0L0WLRIP03W553LNE0Q1,34HJIJKLP9CXQBX3DRMH3FQBD374VA,7,8
60,4,object_03,object_08,846.09999999404,8,1,418.0,0.8888888888888888,2,object_01,5,1460,0,4,8,restaurant_4,1,memory-2step-stake-s,550,1610117,0.0-19.0-0.0-0.60,A16E38HXNQBLCU,3YO4AH2FQG0L0WLRIP03W553LNE0Q1,34HJIJKLP9CXQBX3DRMH3FQBD374VA,8,7
61,1,object_09,object_07,941.79999999702,2,1,666.70000000298,0.7777777777777778,2,object_01,1,1467,0,3,7,desert_3,1,memory-2step-stake-s,551,1618803,0.0-19.0-0.0-0.61,A16E38HXNQBLCU,3YO4AH2FQG0L0WLRIP03W553LNE0Q1,34HJIJKLP9CXQBX3DRMH3FQBD374VA,2,1
62,2,object_04,object_06,870.70000000298,4,1,284.10000000894,0.4444444444444444,2,object_01,5,1487,0,6,4,forest_3,1,memory-2step-stake-s,552,1626788,0.0-19.0-0.0-0.62,A16E38HXNQBLCU,3YO4AH2FQG0L0WLRIP03W553LNE0Q1,34HJIJKLP9CXQBX3DRMH3FQBD374VA,4,3
63,3,object_02,object_10,755.90000000596,6,1,705.60000000894,0.4444444444444444,2,object_01,5,1507,0,8,4,library_4,1,memory-2step-stake-s,553,1635203,0.0-19.0-0.0-0.63,A16E38HXNQBLCU,3YO4AH2FQG0L0WLRIP03W553LNE0Q1,34HJIJKLP9CXQBX3DRMH3FQBD374VA,6,5
64,4,object_08,object_03,977.79999999702,8,2,400.0,0.2222222222222222,2,object_01,5,1517,0,5,2,restaurant_2,1,memory-2step-stake-s,554,1643090,0.0-19.0-0.0-0.64,A16E38HXNQBLCU,3YO4AH2FQG0L0WLRIP03W553LNE0Q1,34HJIJKLP9CXQBX3DRMH3FQBD374VA,7,8
65,2,object_06,object_04,1348.900000006,4,2,283.09999999404,0.6666666666666666,2,object_01,1,1523,0,7,6,forest_3,1,memory-2step-stake-s,555,1651237,0.0-19.0-0.0-0.65,A16E38HXNQBLCU,3YO4AH2FQG0L0WLRIP03W553LNE0Q1,34HJIJKLP9CXQBX3DRMH3FQBD374VA,3,4
66,1,object_09,object_07,915.39999999106,2,1,446.5,0.7777777777777778,2,object_01,1,1530,0,4,7,desert_3,1,memory-2step-stake-s,556,1659750,0.0-19.0-0.0-0.66,A16E38HXNQBLCU,3YO4AH2FQG0L0WLRIP03W553LNE0Q1,34HJIJKLP9CXQBX3DRMH3FQBD374VA,2,1
67,2,object_04,object_06,760.79999999702,4,1,741.59999999404,0.8888888888888888,2,object_01,1,1538,0,3,8,forest_8,1,memory-2step-stake-s,557,1668616,0.0-19.0-0.0-0.67,A16E38HXNQBLCU,3YO4AH2FQG0L0WLRIP03W553LNE0Q1,34HJIJKLP9CXQBX3DRMH3FQBD374VA,4,3
68,4,object_08,object_03,845.30000001192,8,2,160.20000000298,0.8888888888888888,2,object_01,1,1546,0,3,8,restaurant_6,1,memory-2step-stake-s,558,1676953,0.0-19.0-0.0-0.68,A16E38HXNQBLCU,3YO4AH2FQG0L0WLRIP03W553LNE0Q1,34HJIJKLP9CXQBX3DRMH3FQBD374VA,7,8
69,3,object_10,object_02,1288.400000006,6,2,635.79999999702,1.0,2,object_01,5,1591,0,5,9,library_6,1,memory-2step-stake-s,559,1685791,0.0-19.0-0.0-0.69,A16E38HXNQBLCU,3YO4AH2FQG0L0WLRIP03W553LNE0Q1,34HJIJKLP9CXQBX3DRMH3FQBD374VA,5,6
70,1,object_07,object_09,809.70000000298,2,2,632.30000001192,0.8888888888888888,2,object_01,1,1599,0,5,8,desert_8,1,memory-2step-stake-s,560,1694581,0.0-19.0-0.0-0.70,A16E38HXNQBLCU,3YO4AH2FQG0L0WLRIP03W553LNE0Q1,34HJIJKLP9CXQBX3DRMH3FQBD374VA,1,2
71,4,object_08,object_03,743.80000001192,8,2,386.29999999702,0.8888888888888888,2,object_01,5,1639,0,6,8,restaurant_2,1,memory-2step-stake-s,561,1703125,0.0-19.0-0.0-0.71,A16E38HXNQBLCU,3YO4AH2FQG0L0WLRIP03W553LNE0Q1,34HJIJKLP9CXQBX3DRMH3FQBD374VA,7,8
72,1,object_07,object_09,1107.3000000119,2,2,504.80000001192,1.0,2,object_01,5,1684,0,7,9,desert_8,1,memory-2step-stake-s,562,1711875,0.0-19.0-0.0-0.72,A16E38HXNQBLCU,3YO4AH2FQG0L0WLRIP03W553LNE0Q1,34HJIJKLP9CXQBX3DRMH3FQBD374VA,1,2
73,1,object_07,object_09,741.09999999404,2,2,76.5,0.7777777777777778,2,object_01,1,1691,0,8,7,desert_8,1,memory-2step-stake-s,563,1719966,0.0-19.0-0.0-0.73,A16E38HXNQBLCU,3YO4AH2FQG0L0WLRIP03W553LNE0Q1,34HJIJKLP9CXQBX3DRMH3FQBD374VA,1,2
74,1,object_07,object_09,626.09999999404,2,2,264.20000000298,0.5555555555555556,2,object_01,5,1716,0,6,5,desert_3,1,memory-2step-stake-s,564,1727999,0.0-19.0-0.0-0.74,A16E38HXNQBLCU,3YO4AH2FQG0L0WLRIP03W553LNE0Q1,34HJIJKLP9CXQBX3DRMH3FQBD374VA,1,2
75,1,object_07,object_09,639.90000000596,2,2,545.5,0.3333333333333333,2,object_01,1,1719,0,7,3,desert_8,1,memory-2step-stake-s,565,1736124,0.0-19.0-0.0-0.75,A16E38HXNQBLCU,3YO4AH2FQG0L0WLRIP03W553LNE0Q1,34HJIJKLP9CXQBX3DRMH3FQBD374VA,1,2
76,1,object_07,object_09,681.10000000894,2,2,637.20000000298,0.1111111111111111,2,object_01,1,1720,0,5,1,desert_8,1,memory-2step-stake-s,566,1744129,0.0-19.0-0.0-0.76,A16E38HXNQBLCU,3YO4AH2FQG0L0WLRIP03W553LNE0Q1,34HJIJKLP9CXQBX3DRMH3FQBD374VA,1,2
77,2,object_06,object_04,791.5,3,1,327.5,0.5555555555555556,1,object_05,5,1745,0,5,0,forest_8,1,memory-2step-stake-s,567,1752242,0.0-19.0-0.0-0.77,A16E38HXNQBLCU,3YO4AH2FQG0L0WLRIP03W553LNE0Q1,34HJIJKLP9CXQBX3DRMH3FQBD374VA,3,4
78,3,object_10,object_02,907.29999999702,5,1,262.20000000298,0.4444444444444444,1,object_05,5,1765,0,4,4,library_6,1,memory-2step-stake-s,568,1760187,0.0-19.0-0.0-0.78,A16E38HXNQBLCU,3YO4AH2FQG0L0WLRIP03W553LNE0Q1,34HJIJKLP9CXQBX3DRMH3FQBD374VA,5,6
79,4,object_03,object_08,1016.1000000089,7,2,228.5,0.0,1,object_05,5,1765,0,0,1,restaurant_4,1,memory-2step-stake-s,569,1767686,0.0-19.0-0.0-0.79,A16E38HXNQBLCU,3YO4AH2FQG0L0WLRIP03W553LNE0Q1,34HJIJKLP9CXQBX3DRMH3FQBD374VA,8,7
80,2,object_04,object_06,1021.599999994,3,2,376.39999999106,0.2222222222222222,1,object_05,1,1767,0,2,1,forest_6,1,memory-2step-stake-s,570,1775552,0.0-19.0-0.0-0.80,A16E38HXNQBLCU,3YO4AH2FQG0L0WLRIP03W553LNE0Q1,34HJIJKLP9CXQBX3DRMH3FQBD374VA,4,3
81,1,object_09,object_07,979.79999999702,2,1,422.0,0.1111111111111111,2,object_01,1,1768,0,0,1,desert_1,1,memory-2step-stake-s,571,1783352,0.0-19.0-0.0-0.81,A16E38HXNQBLCU,3YO4AH2FQG0L0WLRIP03W553LNE0Q1,34HJIJKLP9CXQBX3DRMH3FQBD374VA,2,1
82,3,object_02,object_10,986.89999999106,5,2,360.89999999106,0.1111111111111111,1,object_05,5,1773,0,1,2,library_6,1,memory-2step-stake-s,572,1791085,0.0-19.0-0.0-0.82,A16E38HXNQBLCU,3YO4AH2FQG0L0WLRIP03W553LNE0Q1,34HJIJKLP9CXQBX3DRMH3FQBD374VA,6,5
83,2,object_06,object_04,740.29999999702,3,1,443.40000000596,0.3333333333333333,1,object_05,1,1776,0,3,3,forest_2,1,memory-2step-stake-s,573,1799168,0.0-19.0-0.0-0.83,A16E38HXNQBLCU,3YO4AH2FQG0L0WLRIP03W553LNE0Q1,34HJIJKLP9CXQBX3DRMH3FQBD374VA,3,4
84,4,object_03,object_08,861.09999999404,7,2,504.79999999702,0.1111111111111111,1,object_05,5,1781,0,1,5,restaurant_5,1,memory-2step-stake-s,574,1807043,0.0-19.0-0.0-0.84,A16E38HXNQBLCU,3YO4AH2FQG0L0WLRIP03W553LNE0Q1,34HJIJKLP9CXQBX3DRMH3FQBD374VA,8,7
85,2,object_04,object_06,939.29999999702,4,1,460.90000000596,0.2222222222222222,2,object_01,1,1783,0,1,2,forest_8,1,memory-2step-stake-s,575,1815001,0.0-19.0-0.0-0.85,A16E38HXNQBLCU,3YO4AH2FQG0L0WLRIP03W553LNE0Q1,34HJIJKLP9CXQBX3DRMH3FQBD374VA,4,3
86,4,object_03,object_08,713.5,8,1,310.10000000894,0.2222222222222222,2,object_01,5,1793,0,1,2,restaurant_4,1,memory-2step-stake-s,576,1822781,0.0-19.0-0.0-0.86,A16E38HXNQBLCU,3YO4AH2FQG0L0WLRIP03W553LNE0Q1,34HJIJKLP9CXQBX3DRMH3FQBD374VA,8,7
87,1,object_07,object_09,913.5,2,2,357.90000000596,0.2222222222222222,2,object_01,1,1795,0,3,2,desert_1,1,memory-2step-stake-s,577,1830634,0.0-19.0-0.0-0.87,A16E38HXNQBLCU,3YO4AH2FQG0L0WLRIP03W553LNE0Q1,34HJIJKLP9CXQBX3DRMH3FQBD374VA,1,2
88,4,object_08,object_03,888.19999998808,7,1,314.89999999106,0.5555555555555556,1,object_05,5,1820,0,5,2,restaurant_6,1,memory-2step-stake-s,578,1838767,0.0-19.0-0.0-0.88,A16E38HXNQBLCU,3YO4AH2FQG0L0WLRIP03W553LNE0Q1,34HJIJKLP9CXQBX3DRMH3FQBD374VA,7,8
89,1,object_07,object_09,800.10000000894,1,1,266.89999999106,1.0,1,object_05,1,1829,0,9,2,desert_7,1,memory-2step-stake-s,579,1847269,0.0-19.0-0.0-0.89,A16E38HXNQBLCU,3YO4AH2FQG0L0WLRIP03W553LNE0Q1,34HJIJKLP9CXQBX3DRMH3FQBD374VA,1,2
90,4,object_03,object_08,1009.200000003,7,2,561.0,0.5555555555555556,1,object_05,5,1854,0,5,5,restaurant_5,1,memory-2step-stake-s,580,1855656,0.0-19.0-0.0-0.90,A16E38HXNQBLCU,3YO4AH2FQG0L0WLRIP03W553LNE0Q1,34HJIJKLP9CXQBX3DRMH3FQBD374VA,8,7
91,3,object_02,object_10,795.30000001192,5,2,328.90000000596,0.2222222222222222,1,object_05,5,1864,0,2,1,library_7,1,memory-2step-stake-s,581,1863452,0.0-19.0-0.0-0.91,A16E38HXNQBLCU,3YO4AH2FQG0L0WLRIP03W553LNE0Q1,34HJIJKLP9CXQBX3DRMH3FQBD374VA,6,5
92,1,object_09,object_07,834.40000000596,1,2,602.60000000894,0.5555555555555556,1,object_05,1,1869,0,5,2,desert_3,1,memory-2step-stake-s,582,1871827,0.0-19.0-0.0-0.92,A16E38HXNQBLCU,3YO4AH2FQG0L0WLRIP03W553LNE0Q1,34HJIJKLP9CXQBX3DRMH3FQBD374VA,2,1
93,3,object_10,object_02,779.0,5,1,654.0,0.4444444444444444,1,object_05,5,1889,0,4,0,library_4,1,memory-2step-stake-s,583,1880241,0.0-19.0-0.0-0.93,A16E38HXNQBLCU,3YO4AH2FQG0L0WLRIP03W553LNE0Q1,34HJIJKLP9CXQBX3DRMH3FQBD374VA,5,6
94,4,object_03,object_08,1235.3999999911,7,2,582.29999999702,0.7777777777777778,1,object_05,5,1924,0,7,1,restaurant_2,1,memory-2step-stake-s,584,1888893,0.0-19.0-0.0-0.94,A16E38HXNQBLCU,3YO4AH2FQG0L0WLRIP03W553LNE0Q1,34HJIJKLP9CXQBX3DRMH3FQBD374VA,8,7
95,1,object_07,object_09,783.70000000298,1,1,535.70000000298,0.5555555555555556,1,object_05,1,1929,0,5,1,desert_7,1,memory-2step-stake-s,585,1897221,0.0-19.0-0.0-0.95,A16E38HXNQBLCU,3YO4AH2FQG0L0WLRIP03W553LNE0Q1,34HJIJKLP9CXQBX3DRMH3FQBD374VA,1,2
96,3,object_10,object_02,777.79999999702,5,1,173.70000000298,0.8888888888888888,1,object_05,5,1969,0,8,3,library_6,1,memory-2step-stake-s,586,1905505,0.0-19.0-0.0-0.96,A16E38HXNQBLCU,3YO4AH2FQG0L0WLRIP03W553LNE0Q1,34HJIJKLP9CXQBX3DRMH3FQBD374VA,5,6
97,1,object_07,object_09,675.70000000298,1,1,492.0,0.6666666666666666,1,object_05,1,1975,0,6,5,desert_1,1,memory-2step-stake-s,587,1913890,0.0-19.0-0.0-0.97,A16E38HXNQBLCU,3YO4AH2FQG0L0WLRIP03W553LNE0Q1,34HJIJKLP9CXQBX3DRMH3FQBD374VA,1,2
98,2,object_06,object_04,1093.200000003,3,1,692.0,0.6666666666666666,1,object_05,1,1981,0,6,5,forest_8,1,memory-2step-stake-s,588,1922435,0.0-19.0-0.0-0.98,A16E38HXNQBLCU,3YO4AH2FQG0L0WLRIP03W553LNE0Q1,34HJIJKLP9CXQBX3DRMH3FQBD374VA,3,4
99,1,object_09,object_07,729.19999998808,1,2,209.40000000596,0.2222222222222222,1,object_05,1,1983,0,2,6,desert_8,1,memory-2step-stake-s,589,1930099,0.0-19.0-0.0-0.99,A16E38HXNQBLCU,3YO4AH2FQG0L0WLRIP03W553LNE0Q1,34HJIJKLP9CXQBX3DRMH3FQBD374VA,2,1
100,2,object_06,object_04,711.79999999702,3,1,428.90000000596,0.5555555555555556,1,object_05,5,2008,0,5,5,forest_8,1,memory-2step-stake-s,590,1938314,0.0-19.0-0.0-0.100,A16E38HXNQBLCU,3YO4AH2FQG0L0WLRIP03W553LNE0Q1,34HJIJKLP9CXQBX3DRMH3FQBD374VA,3,4
101,2,object_04,object_06,1162.799999997,3,2,791.89999999106,0.3333333333333333,1,object_05,1,2011,0,3,6,forest_8,1,memory-2step-stake-s,591,1946711,0.0-19.0-0.0-0.101,A16E38HXNQBLCU,3YO4AH2FQG0L0WLRIP03W553LNE0Q1,34HJIJKLP9CXQBX3DRMH3FQBD374VA,4,3
102,3,object_02,object_10,738.59999999404,5,2,507.0,0.4444444444444444,1,object_05,5,2031,0,4,6,library_2,1,memory-2step-stake-s,592,1954903,0.0-19.0-0.0-0.102,A16E38HXNQBLCU,3YO4AH2FQG0L0WLRIP03W553LNE0Q1,34HJIJKLP9CXQBX3DRMH3FQBD374VA,6,5
103,3,object_10,object_02,661.79999999702,5,1,744.29999999702,0.1111111111111111,1,object_05,1,2032,0,1,7,library_4,1,memory-2step-stake-s,593,1963037,0.0-19.0-0.0-0.103,A16E38HXNQBLCU,3YO4AH2FQG0L0WLRIP03W553LNE0Q1,34HJIJKLP9CXQBX3DRMH3FQBD374VA,5,6
104,3,object_10,object_02,513.69999998808,5,1,293.5,0.1111111111111111,1,object_05,5,2037,0,1,5,library_4,1,memory-2step-stake-s,594,1970693,0.0-19.0-0.0-0.104,A16E38HXNQBLCU,3YO4AH2FQG0L0WLRIP03W553LNE0Q1,34HJIJKLP9CXQBX3DRMH3FQBD374VA,5,6
105,3,object_10,object_02,888.39999999106,6,2,440.90000000596,0.5555555555555556,2,object_01,1,2042,0,3,5,library_7,1,memory-2step-stake-s,595,1978907,0.0-19.0-0.0-0.105,A16E38HXNQBLCU,3YO4AH2FQG0L0WLRIP03W553LNE0Q1,34HJIJKLP9CXQBX3DRMH3FQBD374VA,5,6
106,1,object_09,object_07,731.0,2,1,292.89999999106,0.6666666666666666,2,object_01,1,2048,0,5,6,desert_1,1,memory-2step-stake-s,596,1987084,0.0-19.0-0.0-0.106,A16E38HXNQBLCU,3YO4AH2FQG0L0WLRIP03W553LNE0Q1,34HJIJKLP9CXQBX3DRMH3FQBD374VA,2,1
107,2,object_06,object_04,1111.900000006,4,2,145.29999999702,0.5555555555555556,2,object_01,1,2053,0,5,5,forest_6,1,memory-2step-stake-s,597,1995024,0.0-19.0-0.0-0.107,A16E38HXNQBLCU,3YO4AH2FQG0L0WLRIP03W553LNE0Q1,34HJIJKLP9CXQBX3DRMH3FQBD374VA,3,4
108,3,object_10,object_02,980.40000000596,6,2,180.0,0.1111111111111111,2,object_01,5,2058,0,5,1,library_2,1,memory-2step-stake-s,598,2002566,0.0-19.0-0.0-0.108,A16E38HXNQBLCU,3YO4AH2FQG0L0WLRIP03W553LNE0Q1,34HJIJKLP9CXQBX3DRMH3FQBD374VA,5,6
109,2,object_04,object_06,759.59999999404,4,1,268.79999999702,0.1111111111111111,2,object_01,1,2059,0,5,1,forest_2,1,memory-2step-stake-s,599,2010209,0.0-19.0-0.0-0.109,A16E38HXNQBLCU,3YO4AH2FQG0L0WLRIP03W553LNE0Q1,34HJIJKLP9CXQBX3DRMH3FQBD374VA,4,3
110,3,object_02,object_10,817.90000000596,5,2,208.10000000894,0.3333333333333333,1,object_05,5,2074,0,3,1,library_2,1,memory-2step-stake-s,600,2018000,0.0-19.0-0.0-0.110,A16E38HXNQBLCU,3YO4AH2FQG0L0WLRIP03W553LNE0Q1,34HJIJKLP9CXQBX3DRMH3FQBD374VA,6,5
111,4,object_03,object_08,787.5,7,2,284.0,0.5555555555555556,1,object_05,5,2099,0,5,1,restaurant_2,1,memory-2step-stake-s,601,2026051,0.0-19.0-0.0-0.111,A16E38HXNQBLCU,3YO4AH2FQG0L0WLRIP03W553LNE0Q1,34HJIJKLP9CXQBX3DRMH3FQBD374VA,8,7
112,1,object_07,object_09,927.5,1,1,218.20000000298,0.3333333333333333,1,object_05,1,2102,0,3,0,desert_7,1,memory-2step-stake-s,602,2033832,0.0-19.0-0.0-0.112,A16E38HXNQBLCU,3YO4AH2FQG0L0WLRIP03W553LNE0Q1,34HJIJKLP9CXQBX3DRMH3FQBD374VA,1,2
113,4,object_08,object_03,738.20000000298,7,1,519.79999999702,0.1111111111111111,1,object_05,5,2107,0,1,2,restaurant_6,1,memory-2step-stake-s,603,2041731,0.0-19.0-0.0-0.113,A16E38HXNQBLCU,3YO4AH2FQG0L0WLRIP03W553LNE0Q1,34HJIJKLP9CXQBX3DRMH3FQBD374VA,7,8
114,2,object_06,object_04,804.89999999106,4,2,316.29999999702,0.2222222222222222,2,object_01,1,2109,0,1,2,forest_8,1,memory-2step-stake-s,604,2049521,0.0-19.0-0.0-0.114,A16E38HXNQBLCU,3YO4AH2FQG0L0WLRIP03W553LNE0Q1,34HJIJKLP9CXQBX3DRMH3FQBD374VA,3,4
115,2,object_06,object_04,882.20000000298,3,1,812.30000001192,0.1111111111111111,1,object_05,1,2110,0,1,4,forest_6,1,memory-2step-stake-s,605,2057690,0.0-19.0-0.0-0.115,A16E38HXNQBLCU,3YO4AH2FQG0L0WLRIP03W553LNE0Q1,34HJIJKLP9CXQBX3DRMH3FQBD374VA,3,4
116,3,object_10,object_02,886.29999999702,5,1,431.59999999404,0.1111111111111111,1,object_05,5,2115,0,1,5,library_7,1,memory-2step-stake-s,606,2065503,0.0-19.0-0.0-0.116,A16E38HXNQBLCU,3YO4AH2FQG0L0WLRIP03W553LNE0Q1,34HJIJKLP9CXQBX3DRMH3FQBD374VA,5,6
117,4,object_08,object_03,733.79999999702,8,2,513.20000000298,0.5555555555555556,2,object_01,5,2140,0,3,5,restaurant_2,1,memory-2step-stake-s,607,2073822,0.0-19.0-0.0-0.117,A16E38HXNQBLCU,3YO4AH2FQG0L0WLRIP03W553LNE0Q1,34HJIJKLP9CXQBX3DRMH3FQBD374VA,7,8
118,1,object_07,object_09,847.0,1,1,455.90000000596,0.7777777777777778,1,object_05,1,2147,0,7,9,desert_7,1,memory-2step-stake-s,608,2082291,0.0-19.0-0.0-0.118,A16E38HXNQBLCU,3YO4AH2FQG0L0WLRIP03W553LNE0Q1,34HJIJKLP9CXQBX3DRMH3FQBD374VA,1,2
119,2,object_06,object_04,1013.0,3,1,1228.0,0.7777777777777778,1,object_05,1,2154,0,7,8,forest_8,1,memory-2step-stake-s,609,2091504,0.0-19.0-0.0-0.119,A16E38HXNQBLCU,3YO4AH2FQG0L0WLRIP03W553LNE0Q1,34HJIJKLP9CXQBX3DRMH3FQBD374VA,3,4
120,4,object_03,object_08,1397.8000000119,7,2,689.5,0.6666666666666666,1,object_05,5,2184,0,6,7,restaurant_2,1,memory-2step-stake-s,610,2100082,0.0-19.0-0.0-0.120,A16E38HXNQBLCU,3YO4AH2FQG0L0WLRIP03W553LNE0Q1,34HJIJKLP9CXQBX3DRMH3FQBD374VA,8,7
121,2,object_06,object_04,861.20000000298,3,1,611.60000000894,0.3333333333333333,1,object_05,1,2187,0,3,9,forest_8,1,memory-2step-stake-s,611,2108289,0.0-19.0-0.0-0.121,A16E38HXNQBLCU,3YO4AH2FQG0L0WLRIP03W553LNE0Q1,34HJIJKLP9CXQBX3DRMH3FQBD374VA,3,4
122,1,object_09,object_07,1130.6000000089,1,2,528.30000001192,0.6666666666666666,1,object_05,1,2193,0,6,6,desert_7,1,memory-2step-stake-s,612,2116719,0.0-19.0-0.0-0.122,A16E38HXNQBLCU,3YO4AH2FQG0L0WLRIP03W553LNE0Q1,34HJIJKLP9CXQBX3DRMH3FQBD374VA,2,1
123,1,object_07,object_09,1354.400000006,1,1,621.0,0.6666666666666666,1,object_05,1,2199,0,6,7,desert_8,1,memory-2step-stake-s,613,2125262,0.0-19.0-0.0-0.123,A16E38HXNQBLCU,3YO4AH2FQG0L0WLRIP03W553LNE0Q1,34HJIJKLP9CXQBX3DRMH3FQBD374VA,1,2
124,4,object_03,object_08,870.29999999702,7,2,399.59999999404,0.8888888888888888,1,object_05,5,2239,0,8,6,restaurant_4,1,memory-2step-stake-s,614,2133770,0.0-19.0-0.0-0.124,A16E38HXNQBLCU,3YO4AH2FQG0L0WLRIP03W553LNE0Q1,34HJIJKLP9CXQBX3DRMH3FQBD374VA,8,7
125,3,object_10,object_02,928.5,5,1,438.70000000298,0.8888888888888888,1,object_05,5,2279,0,8,3,library_7,1,memory-2step-stake-s,615,2142306,0.0-19.0-0.0-0.125,A16E38HXNQBLCU,3YO4AH2FQG0L0WLRIP03W553LNE0Q1,34HJIJKLP9CXQBX3DRMH3FQBD374VA,5,6
126,4,object_08,object_03,1204.200000003,8,2,815.5,0.5555555555555556,2,object_01,1,2284,0,9,5,restaurant_6,1,memory-2step-stake-s,616,2150893,0.0-19.0-0.0-0.126,A16E38HXNQBLCU,3YO4AH2FQG0L0WLRIP03W553LNE0Q1,34HJIJKLP9CXQBX3DRMH3FQBD374VA,7,8
127,2,object_06,object_04,838.79999999702,4,2,286.20000000298,0.3333333333333333,2,object_01,1,2287,0,8,3,forest_3,1,memory-2step-stake-s,617,2158745,0.0-19.0-0.0-0.127,A16E38HXNQBLCU,3YO4AH2FQG0L0WLRIP03W553LNE0Q1,34HJIJKLP9CXQBX3DRMH3FQBD374VA,3,4
128,2,object_06,object_04,972.79999999702,3,1,400.20000000298,0.6666666666666666,1,object_05,1,2293,0,6,4,forest_6,1,memory-2step-stake-s,619,2295544,0.0-19.0-0.1-0.128,A16E38HXNQBLCU,3YO4AH2FQG0L0WLRIP03W553LNE0Q1,34HJIJKLP9CXQBX3DRMH3FQBD374VA,3,4
129,3,object_02,object_10,700.29999999702,5,2,566.0,0.3333333333333333,1,object_05,5,2308,0,3,6,library_2,1,memory-2step-stake-s,620,2303684,0.0-19.0-0.1-0.129,A16E38HXNQBLCU,3YO4AH2FQG0L0WLRIP03W553LNE0Q1,34HJIJKLP9CXQBX3DRMH3FQBD374VA,6,5
130,3,object_10,object_02,665.90000000596,5,1,255.59999999404,0.2222222222222222,1,object_05,5,2318,0,2,6,library_4,1,memory-2step-stake-s,621,2311405,0.0-19.0-0.1-0.130,A16E38HXNQBLCU,3YO4AH2FQG0L0WLRIP03W553LNE0Q1,34HJIJKLP9CXQBX3DRMH3FQBD374VA,5,6
131,4,object_08,object_03,657.20000000298,7,1,24.0,0.0,1,object_05,5,2318,0,0,7,restaurant_4,1,memory-2step-stake-s,622,2318697,0.0-19.0-0.1-0.131,A16E38HXNQBLCU,3YO4AH2FQG0L0WLRIP03W553LNE0Q1,34HJIJKLP9CXQBX3DRMH3FQBD374VA,7,8
132,1,object_07,object_09,709.40000000596,2,2,285.10000000894,0.6666666666666666,2,object_01,1,2324,0,2,6,desert_3,1,memory-2step-stake-s,623,2326861,0.0-19.0-0.1-0.132,A16E38HXNQBLCU,3YO4AH2FQG0L0WLRIP03W553LNE0Q1,34HJIJKLP9CXQBX3DRMH3FQBD374VA,1,2
133,3,object_02,object_10,951.10000000894,6,1,1357.599999994,0.8888888888888888,2,object_01,5,2364,0,3,8,library_7,1,memory-2step-stake-s,624,2336313,0.0-19.0-0.1-0.133,A16E38HXNQBLCU,3YO4AH2FQG0L0WLRIP03W553LNE0Q1,34HJIJKLP9CXQBX3DRMH3FQBD374VA,6,5
134,1,object_07,object_09,671.19999998808,2,2,1500.0,0.7777777777777778,2,object_01,1,2371,0,4,7,desert_8,1,memory-2step-stake-s,625,2345829,0.0-19.0-0.1-0.134,A16E38HXNQBLCU,3YO4AH2FQG0L0WLRIP03W553LNE0Q1,34HJIJKLP9CXQBX3DRMH3FQBD374VA,1,2
135,3,object_02,object_10,754.69999998808,6,1,468.90000000596,0.6666666666666666,2,object_01,1,2377,0,4,6,library_6,1,memory-2step-stake-s,626,2354212,0.0-19.0-0.1-0.135,A16E38HXNQBLCU,3YO4AH2FQG0L0WLRIP03W553LNE0Q1,34HJIJKLP9CXQBX3DRMH3FQBD374VA,6,5
136,1,object_07,object_09,693.09999999404,2,2,755.5,0.6666666666666666,2,object_01,1,2383,0,5,6,desert_3,1,memory-2step-stake-s,627,2362849,0.0-19.0-0.1-0.136,A16E38HXNQBLCU,3YO4AH2FQG0L0WLRIP03W553LNE0Q1,34HJIJKLP9CXQBX3DRMH3FQBD374VA,1,2
137,4,object_08,object_03,820.09999999404,8,2,516.39999999106,0.6666666666666666,2,object_01,5,2413,0,3,6,restaurant_5,1,memory-2step-stake-s,628,2371295,0.0-19.0-0.1-0.137,A16E38HXNQBLCU,3YO4AH2FQG0L0WLRIP03W553LNE0Q1,34HJIJKLP9CXQBX3DRMH3FQBD374VA,7,8
138,1,object_07,object_09,635.70000000298,2,2,780.40000000596,1.0,2,object_01,5,2458,0,2,9,desert_8,1,memory-2step-stake-s,629,2380290,0.0-19.0-0.1-0.138,A16E38HXNQBLCU,3YO4AH2FQG0L0WLRIP03W553LNE0Q1,34HJIJKLP9CXQBX3DRMH3FQBD374VA,1,2
139,2,object_06,object_04,1326.299999997,3,1,376.59999999404,0.0,1,object_05,1,2458,0,0,7,forest_6,1,memory-2step-stake-s,630,2387966,0.0-19.0-0.1-0.139,A16E38HXNQBLCU,3YO4AH2FQG0L0WLRIP03W553LNE0Q1,34HJIJKLP9CXQBX3DRMH3FQBD374VA,3,4
140,1,object_07,object_09,607.70000000298,2,2,392.69999998808,0.6666666666666666,2,object_01,1,2464,0,1,6,desert_8,1,memory-2step-stake-s,631,2396269,0.0-19.0-0.1-0.140,A16E38HXNQBLCU,3YO4AH2FQG0L0WLRIP03W553LNE0Q1,34HJIJKLP9CXQBX3DRMH3FQBD374VA,1,2
141,3,object_10,object_02,746.10000000894,6,2,215.90000000596,0.5555555555555556,2,object_01,1,2469,0,0,5,library_2,1,memory-2step-stake-s,632,2404289,0.0-19.0-0.1-0.141,A16E38HXNQBLCU,3YO4AH2FQG0L0WLRIP03W553LNE0Q1,34HJIJKLP9CXQBX3DRMH3FQBD374VA,5,6
142,1,object_07,object_09,887.90000000596,2,2,475.29999999702,0.4444444444444444,2,object_01,1,2473,0,0,4,desert_7,1,memory-2step-stake-s,633,2412442,0.0-19.0-0.1-0.142,A16E38HXNQBLCU,3YO4AH2FQG0L0WLRIP03W553LNE0Q1,34HJIJKLP9CXQBX3DRMH3FQBD374VA,1,2
143,4,object_03,object_08,1022.6999999881,8,1,411.20000000298,0.3333333333333333,2,object_01,1,2476,0,3,3,restaurant_6,1,memory-2step-stake-s,634,2420442,0.0-19.0-0.1-0.143,A16E38HXNQBLCU,3YO4AH2FQG0L0WLRIP03W553LNE0Q1,34HJIJKLP9CXQBX3DRMH3FQBD374VA,8,7
144,3,object_10,object_02,851.79999999702,6,2,270.29999999702,0.2222222222222222,2,object_01,5,2486,0,5,2,library_7,1,memory-2step-stake-s,635,2428193,0.0-19.0-0.1-0.144,A16E38HXNQBLCU,3YO4AH2FQG0L0WLRIP03W553LNE0Q1,34HJIJKLP9CXQBX3DRMH3FQBD374VA,5,6
145,2,object_04,object_06,829.59999999404,4,1,334.29999999702,0.1111111111111111,2,object_01,1,2487,0,1,1,forest_2,1,memory-2step-stake-s,636,2435887,0.0-19.0-0.1-0.145,A16E38HXNQBLCU,3YO4AH2FQG0L0WLRIP03W553LNE0Q1,34HJIJKLP9CXQBX3DRMH3FQBD374VA,4,3
146,3,object_10,object_02,1005.299999997,5,1,36.29999999702,0.1111111111111111,1,object_05,5,2492,0,1,1,library_7,1,memory-2step-stake-s,637,2443292,0.0-19.0-0.1-0.146,A16E38HXNQBLCU,3YO4AH2FQG0L0WLRIP03W553LNE0Q1,34HJIJKLP9CXQBX3DRMH3FQBD374VA,5,6
147,1,object_09,object_07,646.0,2,1,349.20000000298,0.0,2,object_01,1,2492,0,0,0,desert_7,1,memory-2step-stake-s,638,2450900,0.0-19.0-0.1-0.147,A16E38HXNQBLCU,3YO4AH2FQG0L0WLRIP03W553LNE0Q1,34HJIJKLP9CXQBX3DRMH3FQBD374VA,2,1
148,2,object_06,object_04,1038.700000003,3,1,339.29999999702,0.0,1,object_05,1,2492,0,0,2,forest_2,1,memory-2step-stake-s,639,2458502,0.0-19.0-0.1-0.148,A16E38HXNQBLCU,3YO4AH2FQG0L0WLRIP03W553LNE0Q1,34HJIJKLP9CXQBX3DRMH3FQBD374VA,3,4
149,3,object_10,object_02,755.39999999106,6,2,288.10000000894,0.2222222222222222,2,object_01,5,2502,0,1,2,library_2,1,memory-2step-stake-s,640,2466271,0.0-19.0-0.1-0.149,A16E38HXNQBLCU,3YO4AH2FQG0L0WLRIP03W553LNE0Q1,34HJIJKLP9CXQBX3DRMH3FQBD374VA,5,6
150,2,object_06,object_04,933.20000000298,4,2,220.0,0.2222222222222222,2,object_01,1,2504,0,3,2,forest_6,1,memory-2step-stake-s,641,2473971,0.0-19.0-0.1-0.150,A16E38HXNQBLCU,3YO4AH2FQG0L0WLRIP03W553LNE0Q1,34HJIJKLP9CXQBX3DRMH3FQBD374VA,3,4
151,1,object_07,object_09,637.29999999702,2,2,962.69999998808,0.1111111111111111,2,object_01,1,2505,0,2,1,desert_3,1,memory-2step-stake-s,642,2482295,0.0-19.0-0.1-0.151,A16E38HXNQBLCU,3YO4AH2FQG0L0WLRIP03W553LNE0Q1,34HJIJKLP9CXQBX3DRMH3FQBD374VA,1,2
152,1,object_07,object_09,511.70000000298,2,2,696.60000000894,0.2222222222222222,2,object_01,1,2507,0,1,2,desert_3,1,memory-2step-stake-s,643,2490470,0.0-19.0-0.1-0.152,A16E38HXNQBLCU,3YO4AH2FQG0L0WLRIP03W553LNE0Q1,34HJIJKLP9CXQBX3DRMH3FQBD374VA,1,2
153,4,object_08,object_03,819.30000001192,8,2,757.20000000298,0.5555555555555556,2,object_01,5,2532,0,3,5,restaurant_5,1,memory-2step-stake-s,644,2499042,0.0-19.0-0.1-0.153,A16E38HXNQBLCU,3YO4AH2FQG0L0WLRIP03W553LNE0Q1,34HJIJKLP9CXQBX3DRMH3FQBD374VA,7,8
154,1,object_09,object_07,636.39999999106,2,1,312.60000000894,0.1111111111111111,2,object_01,1,2533,0,5,1,desert_7,1,memory-2step-stake-s,645,2506724,0.0-19.0-0.1-0.154,A16E38HXNQBLCU,3YO4AH2FQG0L0WLRIP03W553LNE0Q1,34HJIJKLP9CXQBX3DRMH3FQBD374VA,2,1
155,4,object_08,object_03,609.09999999404,8,2,302.20000000298,0.2222222222222222,2,object_01,1,2535,0,2,2,restaurant_2,1,memory-2step-stake-s,646,2514516,0.0-19.0-0.1-0.155,A16E38HXNQBLCU,3YO4AH2FQG0L0WLRIP03W553LNE0Q1,34HJIJKLP9CXQBX3DRMH3FQBD374VA,7,8
156,3,object_02,object_10,894.5,6,1,386.29999999702,0.5555555555555556,2,object_01,1,2540,0,3,5,library_2,1,memory-2step-stake-s,647,2522705,0.0-19.0-0.1-0.156,A16E38HXNQBLCU,3YO4AH2FQG0L0WLRIP03W553LNE0Q1,34HJIJKLP9CXQBX3DRMH3FQBD374VA,6,5
157,3,object_10,object_02,701.20000000298,6,2,1145.0,0.5555555555555556,2,object_01,1,2545,0,1,5,library_2,1,memory-2step-stake-s,648,2531622,0.0-19.0-0.1-0.157,A16E38HXNQBLCU,3YO4AH2FQG0L0WLRIP03W553LNE0Q1,34HJIJKLP9CXQBX3DRMH3FQBD374VA,5,6
158,2,object_04,object_06,964.69999998808,4,1,325.5,0.6666666666666666,2,object_01,1,2551,0,2,6,forest_8,1,memory-2step-stake-s,649,2539851,0.0-19.0-0.1-0.158,A16E38HXNQBLCU,3YO4AH2FQG0L0WLRIP03W553LNE0Q1,34HJIJKLP9CXQBX3DRMH3FQBD374VA,4,3
159,2,object_06,object_04,751.69999998808,3,1,1145.299999997,0.3333333333333333,1,object_05,1,2554,0,3,6,forest_6,1,memory-2step-stake-s,650,2548549,0.0-19.0-0.1-0.159,A16E38HXNQBLCU,3YO4AH2FQG0L0WLRIP03W553LNE0Q1,34HJIJKLP9CXQBX3DRMH3FQBD374VA,3,4
160,2,object_06,object_04,-1.0,-1,-1,-1.0,0.0,-,0,1,2554,0,6,6,forest_2,1,memory-2step-stake-s,651,2555097,0.0-19.0-0.1-0.160,A16E38HXNQBLCU,3YO4AH2FQG0L0WLRIP03W553LNE0Q1,34HJIJKLP9CXQBX3DRMH3FQBD374VA,3,4
161,2,object_04,object_06,452.60000000894,3,2,628.19999998808,0.4444444444444444,1,object_05,1,2558,0,4,4,forest_6,1,memory-2step-stake-s,652,2563421,0.0-19.0-0.1-0.161,A16E38HXNQBLCU,3YO4AH2FQG0L0WLRIP03W553LNE0Q1,34HJIJKLP9CXQBX3DRMH3FQBD374VA,4,3
162,1,object_09,object_07,694.29999999702,1,2,384.29999999702,0.3333333333333333,1,object_05,1,2561,0,3,1,desert_7,1,memory-2step-stake-s,653,2571405,0.0-19.0-0.1-0.162,A16E38HXNQBLCU,3YO4AH2FQG0L0WLRIP03W553LNE0Q1,34HJIJKLP9CXQBX3DRMH3FQBD374VA,2,1
163,2,object_04,object_06,915.20000000298,3,2,295.79999999702,0.6666666666666666,1,object_05,1,2567,0,6,0,forest_6,1,memory-2step-stake-s,654,2579587,0.0-19.0-0.1-0.163,A16E38HXNQBLCU,3YO4AH2FQG0L0WLRIP03W553LNE0Q1,34HJIJKLP9CXQBX3DRMH3FQBD374VA,4,3
164,2,object_04,object_06,922.0,3,2,293.29999999702,0.5555555555555556,1,object_05,1,2572,0,5,2,forest_3,1,memory-2step-stake-s,655,2587687,0.0-19.0-0.1-0.164,A16E38HXNQBLCU,3YO4AH2FQG0L0WLRIP03W553LNE0Q1,34HJIJKLP9CXQBX3DRMH3FQBD374VA,4,3
165,3,object_10,object_02,715.40000000596,6,2,154.79999999702,0.2222222222222222,2,object_01,5,2582,0,1,2,library_2,1,memory-2step-stake-s,656,2595336,0.0-19.0-0.1-0.165,A16E38HXNQBLCU,3YO4AH2FQG0L0WLRIP03W553LNE0Q1,34HJIJKLP9CXQBX3DRMH3FQBD374VA,5,6
166,3,object_10,object_02,841.20000000298,5,1,362.29999999702,0.0,1,object_05,5,2582,0,0,2,library_2,1,memory-2step-stake-s,657,2602972,0.0-19.0-0.1-0.166,A16E38HXNQBLCU,3YO4AH2FQG0L0WLRIP03W553LNE0Q1,34HJIJKLP9CXQBX3DRMH3FQBD374VA,5,6
167,3,object_02,object_10,632.70000000298,6,1,692.0,0.1111111111111111,2,object_01,1,2583,0,2,1,library_6,1,memory-2step-stake-s,658,2611045,0.0-19.0-0.1-0.167,A16E38HXNQBLCU,3YO4AH2FQG0L0WLRIP03W553LNE0Q1,34HJIJKLP9CXQBX3DRMH3FQBD374VA,6,5
168,3,object_02,object_10,660.0,6,1,438.79999999702,0.5555555555555556,2,object_01,5,2608,0,2,5,library_7,1,memory-2step-stake-s,659,2619286,0.0-19.0-0.1-0.168,A16E38HXNQBLCU,3YO4AH2FQG0L0WLRIP03W553LNE0Q1,34HJIJKLP9CXQBX3DRMH3FQBD374VA,6,5
169,3,object_10,object_02,687.20000000298,6,2,285.40000000596,0.1111111111111111,2,object_01,5,2613,0,6,1,library_2,1,memory-2step-stake-s,660,2626939,0.0-19.0-0.1-0.169,A16E38HXNQBLCU,3YO4AH2FQG0L0WLRIP03W553LNE0Q1,34HJIJKLP9CXQBX3DRMH3FQBD374VA,5,6
170,2,object_06,object_04,648.40000000596,3,1,419.89999999106,0.8888888888888888,1,object_05,1,2621,0,8,3,forest_2,1,memory-2step-stake-s,661,2635552,0.0-19.0-0.1-0.170,A16E38HXNQBLCU,3YO4AH2FQG0L0WLRIP03W553LNE0Q1,34HJIJKLP9CXQBX3DRMH3FQBD374VA,3,4
171,3,object_02,object_10,639.70000000298,5,2,290.0,0.8888888888888888,1,object_05,1,2629,0,8,1,library_2,1,memory-2step-stake-s,662,2643970,0.0-19.0-0.1-0.171,A16E38HXNQBLCU,3YO4AH2FQG0L0WLRIP03W553LNE0Q1,34HJIJKLP9CXQBX3DRMH3FQBD374VA,6,5
172,4,object_03,object_08,628.70000000298,7,2,545.0,0.8888888888888888,1,object_05,5,2669,0,8,1,restaurant_2,1,memory-2step-stake-s,663,2652639,0.0-19.0-0.1-0.172,A16E38HXNQBLCU,3YO4AH2FQG0L0WLRIP03W553LNE0Q1,34HJIJKLP9CXQBX3DRMH3FQBD374VA,8,7
173,2,object_06,object_04,1106.5,3,1,253.5,0.6666666666666666,1,object_05,1,2675,0,6,1,forest_2,1,memory-2step-stake-s,664,2660819,0.0-19.0-0.1-0.173,A16E38HXNQBLCU,3YO4AH2FQG0L0WLRIP03W553LNE0Q1,34HJIJKLP9CXQBX3DRMH3FQBD374VA,3,4
174,2,object_06,object_04,1132.5,3,1,516.40000000596,0.6666666666666666,1,object_05,5,2705,0,6,0,forest_6,1,memory-2step-stake-s,665,2669254,0.0-19.0-0.1-0.174,A16E38HXNQBLCU,3YO4AH2FQG0L0WLRIP03W553LNE0Q1,34HJIJKLP9CXQBX3DRMH3FQBD374VA,3,4
175,4,object_03,object_08,683.60000000894,7,2,554.0,0.7777777777777778,1,object_05,5,2740,0,7,2,restaurant_4,1,memory-2step-stake-s,666,2677842,0.0-19.0-0.1-0.175,A16E38HXNQBLCU,3YO4AH2FQG0L0WLRIP03W553LNE0Q1,34HJIJKLP9CXQBX3DRMH3FQBD374VA,8,7
176,4,object_03,object_08,674.20000000298,7,2,617.5,0.8888888888888888,1,object_05,5,2780,0,8,5,restaurant_4,1,memory-2step-stake-s,667,2686590,0.0-19.0-0.1-0.176,A16E38HXNQBLCU,3YO4AH2FQG0L0WLRIP03W553LNE0Q1,34HJIJKLP9CXQBX3DRMH3FQBD374VA,8,7
177,2,object_04,object_06,782.79999999702,3,2,284.70000000298,0.6666666666666666,1,object_05,1,2786,0,6,7,forest_3,1,memory-2step-stake-s,668,2694768,0.0-19.0-0.1-0.177,A16E38HXNQBLCU,3YO4AH2FQG0L0WLRIP03W553LNE0Q1,34HJIJKLP9CXQBX3DRMH3FQBD374VA,4,3
178,3,object_02,object_10,669.5,5,2,465.59999999404,1.0,1,object_05,5,2831,0,9,8,library_4,1,memory-2step-stake-s,669,2703449,0.0-19.0-0.1-0.178,A16E38HXNQBLCU,3YO4AH2FQG0L0WLRIP03W553LNE0Q1,34HJIJKLP9CXQBX3DRMH3FQBD374VA,6,5
179,4,object_03,object_08,631.10000000894,7,2,249.59999999404,0.4444444444444444,1,object_05,5,2851,0,4,9,restaurant_5,1,memory-2step-stake-s,670,2711401,0.0-19.0-0.1-0.179,A16E38HXNQBLCU,3YO4AH2FQG0L0WLRIP03W553LNE0Q1,34HJIJKLP9CXQBX3DRMH3FQBD374VA,8,7
180,3,object_10,object_02,595.19999998808,5,1,345.89999999106,0.3333333333333333,1,object_05,5,2866,0,3,4,library_6,1,memory-2step-stake-s,671,2719324,0.0-19.0-0.1-0.180,A16E38HXNQBLCU,3YO4AH2FQG0L0WLRIP03W553LNE0Q1,34HJIJKLP9CXQBX3DRMH3FQBD374VA,5,6
181,4,object_08,object_03,690.59999999404,7,1,649.0,0.1111111111111111,1,object_05,5,2871,0,1,2,restaurant_6,1,memory-2step-stake-s,672,2727336,0.0-19.0-0.1-0.181,A16E38HXNQBLCU,3YO4AH2FQG0L0WLRIP03W553LNE0Q1,34HJIJKLP9CXQBX3DRMH3FQBD374VA,7,8
182,1,object_07,object_09,808.69999998808,1,1,300.0,0.1111111111111111,1,object_05,1,2872,0,1,3,desert_1,1,memory-2step-stake-s,673,2734988,0.0-19.0-0.1-0.182,A16E38HXNQBLCU,3YO4AH2FQG0L0WLRIP03W553LNE0Q1,34HJIJKLP9CXQBX3DRMH3FQBD374VA,1,2
183,4,object_03,object_08,536.29999999702,8,1,324.89999999106,0.4444444444444444,2,object_01,5,2892,0,1,4,restaurant_6,1,memory-2step-stake-s,674,2743036,0.0-19.0-0.1-0.183,A16E38HXNQBLCU,3YO4AH2FQG0L0WLRIP03W553LNE0Q1,34HJIJKLP9CXQBX3DRMH3FQBD374VA,8,7
184,3,object_10,object_02,793.0,6,2,342.09999999404,0.1111111111111111,2,object_01,5,2897,0,1,1,library_6,1,memory-2step-stake-s,675,2750761,0.0-19.0-0.1-0.184,A16E38HXNQBLCU,3YO4AH2FQG0L0WLRIP03W553LNE0Q1,34HJIJKLP9CXQBX3DRMH3FQBD374VA,5,6
185,3,object_02,object_10,786.40000000596,6,1,398.70000000298,0.1111111111111111,2,object_01,1,2898,0,4,1,library_7,1,memory-2step-stake-s,676,2758537,0.0-19.0-0.1-0.185,A16E38HXNQBLCU,3YO4AH2FQG0L0WLRIP03W553LNE0Q1,34HJIJKLP9CXQBX3DRMH3FQBD374VA,6,5
186,2,object_06,object_04,879.09999999404,4,2,319.29999999702,0.1111111111111111,2,object_01,1,2899,0,3,1,forest_8,1,memory-2step-stake-s,677,2766237,0.0-19.0-0.1-0.186,A16E38HXNQBLCU,3YO4AH2FQG0L0WLRIP03W553LNE0Q1,34HJIJKLP9CXQBX3DRMH3FQBD374VA,3,4
187,4,object_08,object_03,701.0,7,1,412.0,0.0,1,object_05,5,2899,0,0,1,restaurant_6,1,memory-2step-stake-s,678,2773938,0.0-19.0-0.1-0.187,A16E38HXNQBLCU,3YO4AH2FQG0L0WLRIP03W553LNE0Q1,34HJIJKLP9CXQBX3DRMH3FQBD374VA,7,8
188,4,object_03,object_08,704.79999999702,8,1,366.40000000596,0.3333333333333333,2,object_01,5,2914,0,2,3,restaurant_2,1,memory-2step-stake-s,679,2781877,0.0-19.0-0.1-0.188,A16E38HXNQBLCU,3YO4AH2FQG0L0WLRIP03W553LNE0Q1,34HJIJKLP9CXQBX3DRMH3FQBD374VA,8,7
189,1,object_09,object_07,1066.1000000089,2,1,314.0,0.4444444444444444,2,object_01,1,2918,0,5,4,desert_7,1,memory-2step-stake-s,680,2789879,0.0-19.0-0.1-0.189,A16E38HXNQBLCU,3YO4AH2FQG0L0WLRIP03W553LNE0Q1,34HJIJKLP9CXQBX3DRMH3FQBD374VA,2,1
190,1,object_09,object_07,593.69999998808,2,1,483.79999999702,0.4444444444444444,2,object_01,1,2922,0,4,4,desert_1,1,memory-2step-stake-s,681,2798059,0.0-19.0-0.1-0.190,A16E38HXNQBLCU,3YO4AH2FQG0L0WLRIP03W553LNE0Q1,34HJIJKLP9CXQBX3DRMH3FQBD374VA,2,1
191,3,object_02,object_10,666.60000000894,6,1,456.5,0.5555555555555556,2,object_01,5,2947,0,8,5,library_4,1,memory-2step-stake-s,682,2806303,0.0-19.0-0.1-0.191,A16E38HXNQBLCU,3YO4AH2FQG0L0WLRIP03W553LNE0Q1,34HJIJKLP9CXQBX3DRMH3FQBD374VA,6,5
192,1,object_07,object_09,824.60000000894,2,2,452.59999999404,0.7777777777777778,2,object_01,1,2954,0,8,7,desert_7,1,memory-2step-stake-s,683,2814799,0.0-19.0-0.1-0.192,A16E38HXNQBLCU,3YO4AH2FQG0L0WLRIP03W553LNE0Q1,34HJIJKLP9CXQBX3DRMH3FQBD374VA,1,2
193,3,object_10,object_02,1036.5,6,2,719.40000000596,0.8888888888888888,2,object_01,1,2962,0,6,8,library_7,1,memory-2step-stake-s,684,2823626,0.0-19.0-0.1-0.193,A16E38HXNQBLCU,3YO4AH2FQG0L0WLRIP03W553LNE0Q1,34HJIJKLP9CXQBX3DRMH3FQBD374VA,5,6
194,2,object_04,object_06,661.40000000596,4,1,1180.299999997,0.7777777777777778,2,object_01,1,2969,0,6,7,forest_2,1,memory-2step-stake-s,685,2832798,0.0-19.0-0.1-0.194,A16E38HXNQBLCU,3YO4AH2FQG0L0WLRIP03W553LNE0Q1,34HJIJKLP9CXQBX3DRMH3FQBD374VA,4,3
195,3,object_10,object_02,701.0,6,2,239.5,0.6666666666666666,2,object_01,5,2999,0,1,6,library_6,1,memory-2step-stake-s,686,2840974,0.0-19.0-0.1-0.195,A16E38HXNQBLCU,3YO4AH2FQG0L0WLRIP03W553LNE0Q1,34HJIJKLP9CXQBX3DRMH3FQBD374VA,5,6
196,1,object_09,object_07,744.0,2,1,1110.700000003,0.7777777777777778,2,object_01,1,3006,0,0,7,desert_7,1,memory-2step-stake-s,687,2850170,0.0-19.0-0.1-0.196,A16E38HXNQBLCU,3YO4AH2FQG0L0WLRIP03W553LNE0Q1,34HJIJKLP9CXQBX3DRMH3FQBD374VA,2,1
197,2,object_04,object_06,599.5,4,1,416.10000000894,0.1111111111111111,2,object_01,1,3007,0,3,1,forest_8,1,memory-2step-stake-s,688,2857969,0.0-19.0-0.1-0.197,A16E38HXNQBLCU,3YO4AH2FQG0L0WLRIP03W553LNE0Q1,34HJIJKLP9CXQBX3DRMH3FQBD374VA,4,3
198,1,object_07,object_09,847.79999999702,2,2,325.5,0.1111111111111111,2,object_01,5,3012,0,3,1,desert_8,1,memory-2step-stake-s,689,2865685,0.0-19.0-0.1-0.198,A16E38HXNQBLCU,3YO4AH2FQG0L0WLRIP03W553LNE0Q1,34HJIJKLP9CXQBX3DRMH3FQBD374VA,1,2
199,1,object_09,object_07,607.40000000596,2,1,355.09999999404,0.1111111111111111,2,object_01,1,3013,0,4,1,desert_1,1,memory-2step-stake-s,690,2873419,0.0-19.0-0.1-0.199,A16E38HXNQBLCU,3YO4AH2FQG0L0WLRIP03W553LNE0Q1,34HJIJKLP9CXQBX3DRMH3FQBD374VA,2,1
200,2,object_06,object_04,995.0,3,1,338.59999999404,0.6666666666666666,1,object_05,1,3019,0,6,3,forest_3,1,memory-2step-stake-s,691,2881700,0.0-19.0-0.1-0.200,A16E38HXNQBLCU,3YO4AH2FQG0L0WLRIP03W553LNE0Q1,34HJIJKLP9CXQBX3DRMH3FQBD374VA,3,4
201,3,object_10,object_02,956.09999999404,5,1,580.59999999404,0.5555555555555556,1,object_05,5,3044,0,5,5,library_7,1,memory-2step-stake-s,692,2890042,0.0-19.0-0.1-0.201,A16E38HXNQBLCU,3YO4AH2FQG0L0WLRIP03W553LNE0Q1,34HJIJKLP9CXQBX3DRMH3FQBD374VA,5,6
202,2,object_06,object_04,682.80000001192,3,1,637.5,0.6666666666666666,1,object_05,5,3074,0,6,3,forest_2,1,memory-2step-stake-s,693,2898586,0.0-19.0-0.1-0.202,A16E38HXNQBLCU,3YO4AH2FQG0L0WLRIP03W553LNE0Q1,34HJIJKLP9CXQBX3DRMH3FQBD374VA,3,4
203,1,object_09,object_07,1215.0,1,2,412.20000000298,0.7777777777777778,1,object_05,1,3081,0,7,0,desert_3,1,memory-2step-stake-s,694,2907047,0.0-19.0-0.1-0.203,A16E38HXNQBLCU,3YO4AH2FQG0L0WLRIP03W553LNE0Q1,34HJIJKLP9CXQBX3DRMH3FQBD374VA,2,1
204,2,object_04,object_06,848.5,3,2,262.80000001192,0.5555555555555556,1,object_05,1,3086,0,5,1,forest_2,1,memory-2step-stake-s,695,2915126,0.0-19.0-0.1-0.204,A16E38HXNQBLCU,3YO4AH2FQG0L0WLRIP03W553LNE0Q1,34HJIJKLP9CXQBX3DRMH3FQBD374VA,4,3
205,1,object_09,object_07,833.90000000596,1,2,247.70000000298,0.4444444444444444,1,object_05,1,3090,0,4,3,desert_7,1,memory-2step-stake-s,696,2923064,0.0-19.0-0.1-0.205,A16E38HXNQBLCU,3YO4AH2FQG0L0WLRIP03W553LNE0Q1,34HJIJKLP9CXQBX3DRMH3FQBD374VA,2,1
206,1,object_07,object_09,784.90000000596,1,1,375.89999999106,0.1111111111111111,1,object_05,1,3091,0,1,3,desert_1,1,memory-2step-stake-s,697,2930786,0.0-19.0-0.1-0.206,A16E38HXNQBLCU,3YO4AH2FQG0L0WLRIP03W553LNE0Q1,34HJIJKLP9CXQBX3DRMH3FQBD374VA,1,2
207,2,object_06,object_04,750.5,3,1,384.5,0.4444444444444444,1,object_05,1,3095,0,4,2,forest_3,1,memory-2step-stake-s,698,2938877,0.0-19.0-0.1-0.207,A16E38HXNQBLCU,3YO4AH2FQG0L0WLRIP03W553LNE0Q1,34HJIJKLP9CXQBX3DRMH3FQBD374VA,3,4
208,1,object_09,object_07,1085.799999997,1,2,378.5,0.4444444444444444,1,object_05,1,3099,0,4,3,desert_1,1,memory-2step-stake-s,699,2946906,0.0-19.0-0.1-0.208,A16E38HXNQBLCU,3YO4AH2FQG0L0WLRIP03W553LNE0Q1,34HJIJKLP9CXQBX3DRMH3FQBD374VA,2,1
209,3,object_02,object_10,722.70000000298,5,2,811.20000000298,0.0,1,object_05,5,3099,0,0,1,library_6,1,memory-2step-stake-s,700,2954970,0.0-19.0-0.1-0.209,A16E38HXNQBLCU,3YO4AH2FQG0L0WLRIP03W553LNE0Q1,34HJIJKLP9CXQBX3DRMH3FQBD374VA,6,5
210,2,object_06,object_04,867.90000000596,4,2,1140.799999997,0.1111111111111111,2,object_01,1,3100,0,2,1,forest_6,1,memory-2step-stake-s,701,2963487,0.0-19.0-0.1-0.210,A16E38HXNQBLCU,3YO4AH2FQG0L0WLRIP03W553LNE0Q1,34HJIJKLP9CXQBX3DRMH3FQBD374VA,3,4
211,1,object_09,object_07,896.70000000298,2,1,271.80000001192,0.2222222222222222,2,object_01,1,3102,0,3,2,desert_1,1,memory-2step-stake-s,702,2971250,0.0-19.0-0.1-0.211,A16E38HXNQBLCU,3YO4AH2FQG0L0WLRIP03W553LNE0Q1,34HJIJKLP9CXQBX3DRMH3FQBD374VA,2,1
212,2,object_04,object_06,800.89999999106,3,2,171.5,0.6666666666666666,1,object_05,1,3108,0,6,2,forest_3,1,memory-2step-stake-s,703,2979360,0.0-19.0-0.1-0.212,A16E38HXNQBLCU,3YO4AH2FQG0L0WLRIP03W553LNE0Q1,34HJIJKLP9CXQBX3DRMH3FQBD374VA,4,3
213,3,object_02,object_10,821.69999998808,5,2,255.19999998808,0.2222222222222222,1,object_05,5,3118,0,2,2,library_4,1,memory-2step-stake-s,704,2987075,0.0-19.0-0.1-0.213,A16E38HXNQBLCU,3YO4AH2FQG0L0WLRIP03W553LNE0Q1,34HJIJKLP9CXQBX3DRMH3FQBD374VA,6,5
214,3,object_02,object_10,822.80000001192,5,2,859.40000000596,0.2222222222222222,1,object_05,5,3128,0,2,0,library_6,1,memory-2step-stake-s,705,2995384,0.0-19.0-0.1-0.214,A16E38HXNQBLCU,3YO4AH2FQG0L0WLRIP03W553LNE0Q1,34HJIJKLP9CXQBX3DRMH3FQBD374VA,6,5
215,1,object_09,object_07,817.29999999702,1,2,288.79999999702,0.1111111111111111,1,object_05,1,3129,0,1,2,desert_7,1,memory-2step-stake-s,706,3003056,0.0-19.0-0.1-0.215,A16E38HXNQBLCU,3YO4AH2FQG0L0WLRIP03W553LNE0Q1,34HJIJKLP9CXQBX3DRMH3FQBD374VA,2,1
216,2,object_04,object_06,838.39999999106,3,2,231.70000000298,0.0,1,object_05,1,3129,0,0,0,forest_2,1,memory-2step-stake-s,707,3010545,0.0-19.0-0.1-0.216,A16E38HXNQBLCU,3YO4AH2FQG0L0WLRIP03W553LNE0Q1,34HJIJKLP9CXQBX3DRMH3FQBD374VA,4,3
217,1,object_09,object_07,638.20000000298,2,1,236.89999999106,0.2222222222222222,2,object_01,1,3131,0,1,2,desert_3,1,memory-2step-stake-s,708,3018291,0.0-19.0-0.1-0.217,A16E38HXNQBLCU,3YO4AH2FQG0L0WLRIP03W553LNE0Q1,34HJIJKLP9CXQBX3DRMH3FQBD374VA,2,1
218,4,object_03,object_08,758.60000000894,8,1,484.29999999702,0.4444444444444444,2,object_01,5,3151,0,3,4,restaurant_2,1,memory-2step-stake-s,709,3026479,0.0-19.0-0.1-0.218,A16E38HXNQBLCU,3YO4AH2FQG0L0WLRIP03W553LNE0Q1,34HJIJKLP9CXQBX3DRMH3FQBD374VA,8,7
219,2,object_04,object_06,813.09999999404,4,1,279.10000000894,0.4444444444444444,2,object_01,1,3155,0,4,4,forest_3,1,memory-2step-stake-s,710,3034453,0.0-19.0-0.1-0.219,A16E38HXNQBLCU,3YO4AH2FQG0L0WLRIP03W553LNE0Q1,34HJIJKLP9CXQBX3DRMH3FQBD374VA,4,3
220,3,object_10,object_02,782.39999999106,6,2,250.10000000894,0.5555555555555556,2,object_01,1,3160,0,8,5,library_6,1,memory-2step-stake-s,711,3042469,0.0-19.0-0.1-0.220,A16E38HXNQBLCU,3YO4AH2FQG0L0WLRIP03W553LNE0Q1,34HJIJKLP9CXQBX3DRMH3FQBD374VA,5,6
221,1,object_07,object_09,920.09999999404,2,2,504.70000000298,0.6666666666666666,2,object_01,5,3190,0,7,6,desert_7,1,memory-2step-stake-s,712,3050871,0.0-19.0-0.1-0.221,A16E38HXNQBLCU,3YO4AH2FQG0L0WLRIP03W553LNE0Q1,34HJIJKLP9CXQBX3DRMH3FQBD374VA,1,2
222,1,object_07,object_09,667.39999999106,2,2,315.30000001192,0.6666666666666666,2,object_01,1,3196,0,6,6,desert_1,1,memory-2step-stake-s,713,3059094,0.0-19.0-0.1-0.222,A16E38HXNQBLCU,3YO4AH2FQG0L0WLRIP03W553LNE0Q1,34HJIJKLP9CXQBX3DRMH3FQBD374VA,1,2
223,4,object_03,object_08,1056.299999997,8,1,279.20000000298,0.5555555555555556,2,object_01,1,3201,0,5,5,restaurant_5,1,memory-2step-stake-s,714,3067174,0.0-19.0-0.1-0.223,A16E38HXNQBLCU,3YO4AH2FQG0L0WLRIP03W553LNE0Q1,34HJIJKLP9CXQBX3DRMH3FQBD374VA,8,7
224,2,object_04,object_06,837.0,4,1,748.90000000596,0.4444444444444444,2,object_01,1,3205,0,5,4,forest_8,1,memory-2step-stake-s,715,3075636,0.0-19.0-0.1-0.224,A16E38HXNQBLCU,3YO4AH2FQG0L0WLRIP03W553LNE0Q1,34HJIJKLP9CXQBX3DRMH3FQBD374VA,4,3
225,4,object_03,object_08,712.79999999702,8,1,542.70000000298,0.5555555555555556,2,object_01,1,3210,0,4,5,restaurant_4,1,memory-2step-stake-s,716,3083985,0.0-19.0-0.1-0.225,A16E38HXNQBLCU,3YO4AH2FQG0L0WLRIP03W553LNE0Q1,34HJIJKLP9CXQBX3DRMH3FQBD374VA,8,7
226,2,object_04,object_06,995.10000000894,4,1,566.59999999404,0.6666666666666666,2,object_01,1,3216,0,4,6,forest_3,1,memory-2step-stake-s,717,3092524,0.0-19.0-0.1-0.226,A16E38HXNQBLCU,3YO4AH2FQG0L0WLRIP03W553LNE0Q1,34HJIJKLP9CXQBX3DRMH3FQBD374VA,4,3
227,4,object_03,object_08,776.0,8,1,729.29999999702,0.4444444444444444,2,object_01,1,3220,0,5,4,restaurant_5,1,memory-2step-stake-s,718,3100950,0.0-19.0-0.1-0.227,A16E38HXNQBLCU,3YO4AH2FQG0L0WLRIP03W553LNE0Q1,34HJIJKLP9CXQBX3DRMH3FQBD374VA,8,7
228,3,object_02,object_10,1077.5,5,2,294.39999999106,0.2222222222222222,1,object_05,5,3230,0,2,7,library_6,1,memory-2step-stake-s,719,3108723,0.0-19.0-0.1-0.228,A16E38HXNQBLCU,3YO4AH2FQG0L0WLRIP03W553LNE0Q1,34HJIJKLP9CXQBX3DRMH3FQBD374VA,6,5
229,3,object_10,object_02,710.89999999106,5,1,247.0,0.4444444444444444,1,object_05,5,3250,0,4,3,library_6,1,memory-2step-stake-s,720,3116657,0.0-19.0-0.1-0.229,A16E38HXNQBLCU,3YO4AH2FQG0L0WLRIP03W553LNE0Q1,34HJIJKLP9CXQBX3DRMH3FQBD374VA,5,6
230,1,object_07,object_09,868.19999998808,1,1,347.29999999702,0.7777777777777778,1,object_05,1,3257,0,7,1,desert_3,1,memory-2step-stake-s,721,3125008,0.0-19.0-0.1-0.230,A16E38HXNQBLCU,3YO4AH2FQG0L0WLRIP03W553LNE0Q1,34HJIJKLP9CXQBX3DRMH3FQBD374VA,1,2
231,1,object_07,object_09,648.70000000298,1,1,686.29999999702,0.5555555555555556,1,object_05,1,3262,0,5,0,desert_1,1,memory-2step-stake-s,722,3133485,0.0-19.0-0.1-0.231,A16E38HXNQBLCU,3YO4AH2FQG0L0WLRIP03W553LNE0Q1,34HJIJKLP9CXQBX3DRMH3FQBD374VA,1,2
232,4,object_03,object_08,940.90000000596,7,2,962.80000001192,0.5555555555555556,1,object_05,5,3287,0,5,0,restaurant_4,1,memory-2step-stake-s,723,3142246,0.0-19.0-0.1-0.232,A16E38HXNQBLCU,3YO4AH2FQG0L0WLRIP03W553LNE0Q1,34HJIJKLP9CXQBX3DRMH3FQBD374VA,8,7
233,4,object_03,object_08,642.90000000596,7,2,699.10000000894,0.7777777777777778,1,object_05,5,3322,0,7,3,restaurant_2,1,memory-2step-stake-s,724,3150950,0.0-19.0-0.1-0.233,A16E38HXNQBLCU,3YO4AH2FQG0L0WLRIP03W553LNE0Q1,34HJIJKLP9CXQBX3DRMH3FQBD374VA,8,7
234,2,object_04,object_06,1005.299999997,3,2,438.69999998808,0.8888888888888888,1,object_05,1,3330,0,8,4,forest_8,1,memory-2step-stake-s,725,3159486,0.0-19.0-0.1-0.234,A16E38HXNQBLCU,3YO4AH2FQG0L0WLRIP03W553LNE0Q1,34HJIJKLP9CXQBX3DRMH3FQBD374VA,4,3
235,4,object_03,object_08,698.30000001192,7,2,290.0,0.6666666666666666,1,object_05,5,3360,0,6,3,restaurant_5,1,memory-2step-stake-s,726,3167649,0.0-19.0-0.1-0.235,A16E38HXNQBLCU,3YO4AH2FQG0L0WLRIP03W553LNE0Q1,34HJIJKLP9CXQBX3DRMH3FQBD374VA,8,7
236,4,object_03,object_08,582.10000000894,7,2,419.30000001192,0.7777777777777778,1,object_05,5,3395,0,7,3,restaurant_4,1,memory-2step-stake-s,727,3176067,0.0-19.0-0.1-0.236,A16E38HXNQBLCU,3YO4AH2FQG0L0WLRIP03W553LNE0Q1,34HJIJKLP9CXQBX3DRMH3FQBD374VA,8,7
237,3,object_10,object_02,803.0,5,1,399.29999999702,0.8888888888888888,1,object_05,1,3403,0,8,2,library_7,1,memory-2step-stake-s,728,3184579,0.0-19.0-0.1-0.237,A16E38HXNQBLCU,3YO4AH2FQG0L0WLRIP03W553LNE0Q1,34HJIJKLP9CXQBX3DRMH3FQBD374VA,5,6
238,2,object_06,object_04,884.60000000894,3,1,306.5,0.8888888888888888,1,object_05,1,3411,0,8,2,forest_8,1,memory-2step-stake-s,729,3192997,0.0-19.0-0.1-0.238,A16E38HXNQBLCU,3YO4AH2FQG0L0WLRIP03W553LNE0Q1,34HJIJKLP9CXQBX3DRMH3FQBD374VA,3,4
239,1,object_09,object_07,887.89999999106,1,2,736.5,0.7777777777777778,1,object_05,5,3446,0,7,1,desert_8,1,memory-2step-stake-s,730,3201742,0.0-19.0-0.1-0.239,A16E38HXNQBLCU,3YO4AH2FQG0L0WLRIP03W553LNE0Q1,34HJIJKLP9CXQBX3DRMH3FQBD374VA,2,1
240,4,object_08,object_03,965.39999999106,7,1,690.10000000894,0.5555555555555556,1,object_05,1,3451,0,5,0,restaurant_4,1,memory-2step-stake-s,731,3210233,0.0-19.0-0.1-0.240,A16E38HXNQBLCU,3YO4AH2FQG0L0WLRIP03W553LNE0Q1,34HJIJKLP9CXQBX3DRMH3FQBD374VA,7,8
241,2,object_06,object_04,997.0,3,1,754.59999999404,0.6666666666666666,1,object_05,1,3457,0,6,5,forest_2,1,memory-2step-stake-s,732,3218870,0.0-19.0-0.1-0.241,A16E38HXNQBLCU,3YO4AH2FQG0L0WLRIP03W553LNE0Q1,34HJIJKLP9CXQBX3DRMH3FQBD374VA,3,4
242,2,object_06,object_04,725.79999999702,3,1,285.90000000596,0.6666666666666666,1,object_05,5,3487,0,6,4,forest_3,1,memory-2step-stake-s,733,3227038,0.0-19.0-0.1-0.242,A16E38HXNQBLCU,3YO4AH2FQG0L0WLRIP03W553LNE0Q1,34HJIJKLP9CXQBX3DRMH3FQBD374VA,3,4
243,3,object_02,object_10,740.29999999702,5,2,479.0,0.7777777777777778,1,object_05,5,3522,0,7,3,library_7,1,memory-2step-stake-s,734,3235561,0.0-19.0-0.1-0.243,A16E38HXNQBLCU,3YO4AH2FQG0L0WLRIP03W553LNE0Q1,34HJIJKLP9CXQBX3DRMH3FQBD374VA,6,5
244,3,object_02,object_10,624.09999999404,5,2,646.10000000894,0.8888888888888888,1,object_05,5,3562,0,8,1,library_4,1,memory-2step-stake-s,735,3244291,0.0-19.0-0.1-0.244,A16E38HXNQBLCU,3YO4AH2FQG0L0WLRIP03W553LNE0Q1,34HJIJKLP9CXQBX3DRMH3FQBD374VA,6,5
245,1,object_09,object_07,740.29999999702,1,2,621.29999999702,0.4444444444444444,1,object_05,1,3566,0,4,1,desert_3,1,memory-2step-stake-s,736,3252579,0.0-19.0-0.1-0.245,A16E38HXNQBLCU,3YO4AH2FQG0L0WLRIP03W553LNE0Q1,34HJIJKLP9CXQBX3DRMH3FQBD374VA,2,1
246,1,object_07,object_09,738.40000000596,1,1,270.29999999702,0.6666666666666666,1,object_05,5,3596,0,6,2,desert_3,1,memory-2step-stake-s,737,3260726,0.0-19.0-0.1-0.246,A16E38HXNQBLCU,3YO4AH2FQG0L0WLRIP03W553LNE0Q1,34HJIJKLP9CXQBX3DRMH3FQBD374VA,1,2
247,3,object_10,object_02,692.0,5,1,763.80000001192,0.7777777777777778,1,object_05,1,3603,0,7,1,library_7,1,memory-2step-stake-s,738,3269492,0.0-19.0-0.1-0.247,A16E38HXNQBLCU,3YO4AH2FQG0L0WLRIP03W553LNE0Q1,34HJIJKLP9CXQBX3DRMH3FQBD374VA,5,6
248,4,object_03,object_08,751.70000000298,7,2,502.09999999404,0.8888888888888888,1,object_05,1,3611,0,8,0,restaurant_4,1,memory-2step-stake-s,739,3278085,0.0-19.0-0.1-0.248,A16E38HXNQBLCU,3YO4AH2FQG0L0WLRIP03W553LNE0Q1,34HJIJKLP9CXQBX3DRMH3FQBD374VA,8,7
249,3,object_02,object_10,630.0,5,2,916.20000000298,0.4444444444444444,1,object_05,5,3631,0,4,0,library_4,1,memory-2step-stake-s,740,3286698,0.0-19.0-0.1-0.249,A16E38HXNQBLCU,3YO4AH2FQG0L0WLRIP03W553LNE0Q1,34HJIJKLP9CXQBX3DRMH3FQBD374VA,6,5
250,4,object_03,object_08,654.59999999404,7,2,706.60000000894,0.6666666666666666,1,object_05,5,3661,0,6,2,restaurant_6,1,memory-2step-stake-s,741,3295271,0.0-19.0-0.1-0.250,A16E38HXNQBLCU,3YO4AH2FQG0L0WLRIP03W553LNE0Q1,34HJIJKLP9CXQBX3DRMH3FQBD374VA,8,7
251,2,object_04,object_06,-1.0,-1,-1,-1.0,0.0,-,0,1,3661,0,8,1,forest_6,1,memory-2step-stake-s,742,3301829,0.0-19.0-0.1-0.251,A16E38HXNQBLCU,3YO4AH2FQG0L0WLRIP03W553LNE0Q1,34HJIJKLP9CXQBX3DRMH3FQBD374VA,4,3
252,4,object_03,object_08,562.20000000298,7,2,538.59999999404,0.7777777777777778,1,object_05,5,3696,0,7,4,restaurant_4,1,memory-2step-stake-s,743,3310357,0.0-19.0-0.1-0.252,A16E38HXNQBLCU,3YO4AH2FQG0L0WLRIP03W553LNE0Q1,34HJIJKLP9CXQBX3DRMH3FQBD374VA,8,7
253,4,object_08,object_03,689.0,7,1,428.70000000298,0.5555555555555556,1,object_05,1,3701,0,5,5,restaurant_5,1,memory-2step-stake-s,744,3318583,0.0-19.0-0.1-0.253,A16E38HXNQBLCU,3YO4AH2FQG0L0WLRIP03W553LNE0Q1,34HJIJKLP9CXQBX3DRMH3FQBD374VA,7,8
254,1,object_07,object_09,1118.0,2,2,1079.700000003,0.4444444444444444,2,object_01,5,3721,0,4,4,desert_7,1,memory-2step-stake-s,745,3327358,0.0-19.0-0.1-0.254,A16E38HXNQBLCU,3YO4AH2FQG0L0WLRIP03W553LNE0Q1,34HJIJKLP9CXQBX3DRMH3FQBD374VA,1,2
255,2,object_04,object_06,908.40000000596,4,1,319.59999999404,0.6666666666666666,2,object_01,1,3727,0,6,6,forest_3,1,memory-2step-stake-s,746,3335582,0.0-19.0-0.1-0.255,A16E38HXNQBLCU,3YO4AH2FQG0L0WLRIP03W553LNE0Q1,34HJIJKLP9CXQBX3DRMH3FQBD374VA,4,3
