,state1,stim_left,stim_right,rt_1,choice1,response1,rt_2,points,state2,stim_state2,stake,score,practice,rews1,rews2,background,high_arm,trial_type,trial_index,time_elapsed,internal_node_id,subid,hitid,assignmentid,stim_left_num,stim_right_num
0,4,object_10,object_06,63.600000023842,7,2,550.0,0.2222222222222222,1,object_08,5,10,0,2,8,restaurant_5,1,memory-2step-stake-s,519,2057883,0.0-19.0-0.0-0.0,A2OO4PG3LBLP5I,3Q9SPIIRXM2ML6FVM0W2D0Z2IA6WAR,3JJVG1YBEFD0DG3XMFER7V2IA7PB5J,8,7
1,1,object_03,object_07,709.29999998212,1,1,-1.0,0.0,1,object_08,1,10,0,2,6,desert_1,1,memory-2step-stake-s,520,2066412,0.0-19.0-0.0-0.1,A2OO4PG3LBLP5I,3Q9SPIIRXM2ML6FVM0W2D0Z2IA6WAR,3JJVG1YBEFD0DG3XMFER7V2IA7PB5J,1,2
2,4,object_06,object_10,741.69999998808,7,1,739.90000000596,0.4444444444444444,1,object_08,5,30,0,4,7,restaurant_6,1,memory-2step-stake-s,521,2075553,0.0-19.0-0.0-0.2,A2OO4PG3LBLP5I,3Q9SPIIRXM2ML6FVM0W2D0Z2IA6WAR,3JJVG1YBEFD0DG3XMFER7V2IA7PB5J,7,8
3,3,object_05,object_09,757.90000000596,6,2,505.59999999404,0.8888888888888888,2,object_04,5,70,0,3,8,library_6,1,memory-2step-stake-s,522,2084088,0.0-19.0-0.0-0.3,A2OO4PG3LBLP5I,3Q9SPIIRXM2ML6FVM0W2D0Z2IA6WAR,3JJVG1YBEFD0DG3XMFER7V2IA7PB5J,5,6
4,2,object_01,object_02,837.80000001192,4,1,990.70000001788,0.5555555555555556,2,object_04,1,75,0,5,5,forest_5,1,memory-2step-stake-s,523,2092805,0.0-19.0-0.0-0.4,A2OO4PG3LBLP5I,3Q9SPIIRXM2ML6FVM0W2D0Z2IA6WAR,3JJVG1YBEFD0DG3XMFER7V2IA7PB5J,4,3
5,4,object_06,object_10,737.79999998212,7,1,440.09999999404,0.4444444444444444,1,object_08,5,95,0,4,9,restaurant_1,1,memory-2step-stake-s,524,2100871,0.0-19.0-0.0-0.5,A2OO4PG3LBLP5I,3Q9SPIIRXM2ML6FVM0W2D0Z2IA6WAR,3JJVG1YBEFD0DG3XMFER7V2IA7PB5J,7,8
6,1,object_07,object_03,635.90000000596,2,1,970.09999999404,1.0,2,object_04,5,140,0,3,9,desert_3,1,memory-2step-stake-s,525,2109984,0.0-19.0-0.0-0.6,A2OO4PG3LBLP5I,3Q9SPIIRXM2ML6FVM0W2D0Z2IA6WAR,3JJVG1YBEFD0DG3XMFER7V2IA7PB5J,2,1
7,3,object_09,object_05,943.0,5,2,578.90000000596,0.4444444444444444,1,object_08,5,160,0,4,8,library_1,1,memory-2step-stake-s,526,2118205,0.0-19.0-0.0-0.7,A2OO4PG3LBLP5I,3Q9SPIIRXM2ML6FVM0W2D0Z2IA6WAR,3JJVG1YBEFD0DG3XMFER7V2IA7PB5J,6,5
8,3,object_05,object_09,1017.6000000238,5,1,900.09999999404,0.5555555555555556,1,object_08,5,185,0,5,7,library_6,1,memory-2step-stake-s,527,2126824,0.0-19.0-0.0-0.8,A2OO4PG3LBLP5I,3Q9SPIIRXM2ML6FVM0W2D0Z2IA6WAR,3JJVG1YBEFD0DG3XMFER7V2IA7PB5J,5,6
9,4,object_10,object_06,572.60000002384,8,1,-1.0,0.0,2,object_04,5,185,0,0,8,restaurant_2,1,memory-2step-stake-s,528,2135353,0.0-19.0-0.0-0.9,A2OO4PG3LBLP5I,3Q9SPIIRXM2ML6FVM0W2D0Z2IA6WAR,3JJVG1YBEFD0DG3XMFER7V2IA7PB5J,8,7
10,2,object_01,object_02,787.39999997616,3,2,716.19999998808,0.1111111111111111,1,object_08,1,186,0,1,8,forest_5,1,memory-2step-stake-s,529,2143384,0.0-19.0-0.0-0.10,A2OO4PG3LBLP5I,3Q9SPIIRXM2ML6FVM0W2D0Z2IA6WAR,3JJVG1YBEFD0DG3XMFER7V2IA7PB5J,4,3
11,3,object_09,object_05,1240.6999999881,6,1,1054.2000000179,0.8888888888888888,2,object_04,1,194,0,3,8,library_7,1,memory-2step-stake-s,530,2152464,0.0-19.0-0.0-0.11,A2OO4PG3LBLP5I,3Q9SPIIRXM2ML6FVM0W2D0Z2IA6WAR,3JJVG1YBEFD0DG3XMFER7V2IA7PB5J,6,5
12,3,object_09,object_05,709.09999999404,6,1,503.5,0.7777777777777778,2,object_04,1,201,0,2,7,library_1,1,memory-2step-stake-s,531,2160895,0.0-19.0-0.0-0.12,A2OO4PG3LBLP5I,3Q9SPIIRXM2ML6FVM0W2D0Z2IA6WAR,3JJVG1YBEFD0DG3XMFER7V2IA7PB5J,6,5
13,1,object_03,object_07,1187.6000000238,2,2,1006.1999999881,1.0,2,object_04,1,210,0,6,9,desert_3,1,memory-2step-stake-s,532,2170037,0.0-19.0-0.0-0.13,A2OO4PG3LBLP5I,3Q9SPIIRXM2ML6FVM0W2D0Z2IA6WAR,3JJVG1YBEFD0DG3XMFER7V2IA7PB5J,1,2
14,1,object_03,object_07,957.0,1,1,840.29999998212,0.4444444444444444,1,object_08,5,230,0,4,7,desert_1,1,memory-2step-stake-s,533,2178497,0.0-19.0-0.0-0.14,A2OO4PG3LBLP5I,3Q9SPIIRXM2ML6FVM0W2D0Z2IA6WAR,3JJVG1YBEFD0DG3XMFER7V2IA7PB5J,1,2
15,1,object_07,object_03,1067.0,2,1,1175.7000000179,0.8888888888888888,2,object_04,1,238,0,4,8,desert_1,1,memory-2step-stake-s,534,2187706,0.0-19.0-0.0-0.15,A2OO4PG3LBLP5I,3Q9SPIIRXM2ML6FVM0W2D0Z2IA6WAR,3JJVG1YBEFD0DG3XMFER7V2IA7PB5J,2,1
16,1,object_03,object_07,949.60000002384,2,2,609.69999998808,0.8888888888888888,2,object_04,5,278,0,4,8,desert_3,1,memory-2step-stake-s,535,2196341,0.0-19.0-0.0-0.16,A2OO4PG3LBLP5I,3Q9SPIIRXM2ML6FVM0W2D0Z2IA6WAR,3JJVG1YBEFD0DG3XMFER7V2IA7PB5J,1,2
17,3,object_05,object_09,1090.3000000119,5,1,792.69999998808,0.4444444444444444,1,object_08,5,298,0,4,8,library_5,1,memory-2step-stake-s,536,2204754,0.0-19.0-0.0-0.17,A2OO4PG3LBLP5I,3Q9SPIIRXM2ML6FVM0W2D0Z2IA6WAR,3JJVG1YBEFD0DG3XMFER7V2IA7PB5J,5,6
18,1,object_07,object_03,888.5,2,1,908.69999998808,0.8888888888888888,2,object_04,1,306,0,7,8,desert_3,1,memory-2step-stake-s,537,2213691,0.0-19.0-0.0-0.18,A2OO4PG3LBLP5I,3Q9SPIIRXM2ML6FVM0W2D0Z2IA6WAR,3JJVG1YBEFD0DG3XMFER7V2IA7PB5J,2,1
19,3,object_09,object_05,795.59999999404,5,2,500.29999998212,0.7777777777777778,1,object_08,5,341,0,7,8,library_7,1,memory-2step-stake-s,538,2222126,0.0-19.0-0.0-0.19,A2OO4PG3LBLP5I,3Q9SPIIRXM2ML6FVM0W2D0Z2IA6WAR,3JJVG1YBEFD0DG3XMFER7V2IA7PB5J,6,5
20,1,object_03,object_07,641.20000001788,1,1,952.80000001192,0.8888888888888888,1,object_08,5,381,0,8,7,desert_3,1,memory-2step-stake-s,539,2231104,0.0-19.0-0.0-0.20,A2OO4PG3LBLP5I,3Q9SPIIRXM2ML6FVM0W2D0Z2IA6WAR,3JJVG1YBEFD0DG3XMFER7V2IA7PB5J,1,2
21,4,object_10,object_06,978.09999999404,7,2,998.90000000596,1.0,1,object_08,5,426,0,9,8,restaurant_6,1,memory-2step-stake-s,540,2240241,0.0-19.0-0.0-0.21,A2OO4PG3LBLP5I,3Q9SPIIRXM2ML6FVM0W2D0Z2IA6WAR,3JJVG1YBEFD0DG3XMFER7V2IA7PB5J,8,7
22,3,object_05,object_09,901.69999998808,6,2,734.90000000596,0.8888888888888888,2,object_04,5,466,0,7,8,library_5,1,memory-2step-stake-s,541,2249013,0.0-19.0-0.0-0.22,A2OO4PG3LBLP5I,3Q9SPIIRXM2ML6FVM0W2D0Z2IA6WAR,3JJVG1YBEFD0DG3XMFER7V2IA7PB5J,5,6
23,1,object_03,object_07,732.5,1,1,-1.0,0.0,1,object_08,1,466,0,9,2,desert_3,1,memory-2step-stake-s,542,2257529,0.0-19.0-0.0-0.23,A2OO4PG3LBLP5I,3Q9SPIIRXM2ML6FVM0W2D0Z2IA6WAR,3JJVG1YBEFD0DG3XMFER7V2IA7PB5J,1,2
24,3,object_09,object_05,856.19999998808,6,1,494.59999999404,0.1111111111111111,2,object_04,5,471,0,7,1,library_7,1,memory-2step-stake-s,543,2265340,0.0-19.0-0.0-0.24,A2OO4PG3LBLP5I,3Q9SPIIRXM2ML6FVM0W2D0Z2IA6WAR,3JJVG1YBEFD0DG3XMFER7V2IA7PB5J,6,5
25,1,object_07,object_03,673.0,2,1,667.59999999404,0.1111111111111111,2,object_04,1,472,0,7,1,desert_3,1,memory-2step-stake-s,544,2273326,0.0-19.0-0.0-0.25,A2OO4PG3LBLP5I,3Q9SPIIRXM2ML6FVM0W2D0Z2IA6WAR,3JJVG1YBEFD0DG3XMFER7V2IA7PB5J,2,1
26,4,object_06,object_10,717.5,8,2,1117.900000006,0.4444444444444444,2,object_04,5,492,0,8,4,restaurant_6,1,memory-2step-stake-s,545,2282069,0.0-19.0-0.0-0.26,A2OO4PG3LBLP5I,3Q9SPIIRXM2ML6FVM0W2D0Z2IA6WAR,3JJVG1YBEFD0DG3XMFER7V2IA7PB5J,7,8
27,4,object_10,object_06,637.30000001192,7,2,434.0,0.6666666666666666,1,object_08,5,522,0,6,4,restaurant_6,1,memory-2step-stake-s,546,2290401,0.0-19.0-0.0-0.27,A2OO4PG3LBLP5I,3Q9SPIIRXM2ML6FVM0W2D0Z2IA6WAR,3JJVG1YBEFD0DG3XMFER7V2IA7PB5J,8,7
28,1,object_03,object_07,652.80000001192,2,2,604.90000000596,0.5555555555555556,2,object_04,1,527,0,9,5,desert_5,1,memory-2step-stake-s,547,2298726,0.0-19.0-0.0-0.28,A2OO4PG3LBLP5I,3Q9SPIIRXM2ML6FVM0W2D0Z2IA6WAR,3JJVG1YBEFD0DG3XMFER7V2IA7PB5J,1,2
29,1,object_03,object_07,722.0,2,2,447.19999998808,0.2222222222222222,2,object_04,1,529,0,6,2,desert_5,1,memory-2step-stake-s,548,2306593,0.0-19.0-0.0-0.29,A2OO4PG3LBLP5I,3Q9SPIIRXM2ML6FVM0W2D0Z2IA6WAR,3JJVG1YBEFD0DG3XMFER7V2IA7PB5J,1,2
30,4,object_06,object_10,526.69999998808,7,1,500.89999997616,0.7777777777777778,1,object_08,1,536,0,7,0,restaurant_2,1,memory-2step-stake-s,549,2315023,0.0-19.0-0.0-0.30,A2OO4PG3LBLP5I,3Q9SPIIRXM2ML6FVM0W2D0Z2IA6WAR,3JJVG1YBEFD0DG3XMFER7V2IA7PB5J,7,8
31,3,object_09,object_05,826.59999999404,6,1,730.59999999404,0.0,2,object_04,5,536,0,9,0,library_5,1,memory-2step-stake-s,550,2322971,0.0-19.0-0.0-0.31,A2OO4PG3LBLP5I,3Q9SPIIRXM2ML6FVM0W2D0Z2IA6WAR,3JJVG1YBEFD0DG3XMFER7V2IA7PB5J,6,5
32,4,object_06,object_10,932.60000002384,7,1,748.5,0.8888888888888888,1,object_08,5,576,0,8,2,restaurant_5,1,memory-2step-stake-s,551,2331745,0.0-19.0-0.0-0.32,A2OO4PG3LBLP5I,3Q9SPIIRXM2ML6FVM0W2D0Z2IA6WAR,3JJVG1YBEFD0DG3XMFER7V2IA7PB5J,7,8
33,2,object_01,object_02,934.40000000596,4,1,750.09999999404,0.2222222222222222,2,object_04,1,578,0,7,2,forest_5,1,memory-2step-stake-s,552,2339915,0.0-19.0-0.0-0.33,A2OO4PG3LBLP5I,3Q9SPIIRXM2ML6FVM0W2D0Z2IA6WAR,3JJVG1YBEFD0DG3XMFER7V2IA7PB5J,4,3
34,4,object_10,object_06,841.0,7,2,500.0,1.0,1,object_08,1,587,0,9,2,restaurant_6,1,memory-2step-stake-s,553,2348546,0.0-19.0-0.0-0.34,A2OO4PG3LBLP5I,3Q9SPIIRXM2ML6FVM0W2D0Z2IA6WAR,3JJVG1YBEFD0DG3XMFER7V2IA7PB5J,8,7
35,4,object_10,object_06,445.89999997616,8,1,869.5,0.4444444444444444,2,object_04,5,607,0,8,4,restaurant_5,1,memory-2step-stake-s,554,2357037,0.0-19.0-0.0-0.35,A2OO4PG3LBLP5I,3Q9SPIIRXM2ML6FVM0W2D0Z2IA6WAR,3JJVG1YBEFD0DG3XMFER7V2IA7PB5J,8,7
36,3,object_09,object_05,863.90000000596,5,2,680.90000000596,0.5555555555555556,1,object_08,5,632,0,5,5,library_6,1,memory-2step-stake-s,555,2365443,0.0-19.0-0.0-0.36,A2OO4PG3LBLP5I,3Q9SPIIRXM2ML6FVM0W2D0Z2IA6WAR,3JJVG1YBEFD0DG3XMFER7V2IA7PB5J,6,5
37,4,object_06,object_10,693.79999998212,7,1,1197.5,0.6666666666666666,1,object_08,5,662,0,6,3,restaurant_6,1,memory-2step-stake-s,556,2374481,0.0-19.0-0.0-0.37,A2OO4PG3LBLP5I,3Q9SPIIRXM2ML6FVM0W2D0Z2IA6WAR,3JJVG1YBEFD0DG3XMFER7V2IA7PB5J,7,8
38,4,object_10,object_06,996.30000001192,7,2,677.5,0.6666666666666666,1,object_08,5,692,0,6,3,restaurant_1,1,memory-2step-stake-s,557,2382979,0.0-19.0-0.0-0.38,A2OO4PG3LBLP5I,3Q9SPIIRXM2ML6FVM0W2D0Z2IA6WAR,3JJVG1YBEFD0DG3XMFER7V2IA7PB5J,8,7
39,2,object_01,object_02,793.5,4,1,-1.0,0.0,2,object_04,1,692,0,9,0,forest_2,1,memory-2step-stake-s,558,2391499,0.0-19.0-0.0-0.39,A2OO4PG3LBLP5I,3Q9SPIIRXM2ML6FVM0W2D0Z2IA6WAR,3JJVG1YBEFD0DG3XMFER7V2IA7PB5J,4,3
40,2,object_01,object_02,622.09999999404,4,1,552.29999998212,0.1111111111111111,2,object_04,1,693,0,9,1,forest_1,1,memory-2step-stake-s,559,2399369,0.0-19.0-0.0-0.40,A2OO4PG3LBLP5I,3Q9SPIIRXM2ML6FVM0W2D0Z2IA6WAR,3JJVG1YBEFD0DG3XMFER7V2IA7PB5J,4,3
41,2,object_01,object_02,632.40000000596,4,1,538.40000000596,0.1111111111111111,2,object_04,1,694,0,8,1,forest_1,1,memory-2step-stake-s,560,2407224,0.0-19.0-0.0-0.41,A2OO4PG3LBLP5I,3Q9SPIIRXM2ML6FVM0W2D0Z2IA6WAR,3JJVG1YBEFD0DG3XMFER7V2IA7PB5J,4,3
42,1,object_03,object_07,1029.400000006,1,1,-1.0,0.0,1,object_08,1,694,0,7,1,desert_6,1,memory-2step-stake-s,561,2415749,0.0-19.0-0.0-0.42,A2OO4PG3LBLP5I,3Q9SPIIRXM2ML6FVM0W2D0Z2IA6WAR,3JJVG1YBEFD0DG3XMFER7V2IA7PB5J,1,2
43,2,object_01,object_02,650.59999999404,3,2,623.80000001192,0.7777777777777778,1,object_08,1,701,0,7,1,forest_1,1,memory-2step-stake-s,562,2424302,0.0-19.0-0.0-0.43,A2OO4PG3LBLP5I,3Q9SPIIRXM2ML6FVM0W2D0Z2IA6WAR,3JJVG1YBEFD0DG3XMFER7V2IA7PB5J,4,3
44,1,object_07,object_03,808.39999997616,1,2,737.80000001192,0.6666666666666666,1,object_08,1,707,0,6,3,desert_1,1,memory-2step-stake-s,563,2432867,0.0-19.0-0.0-0.44,A2OO4PG3LBLP5I,3Q9SPIIRXM2ML6FVM0W2D0Z2IA6WAR,3JJVG1YBEFD0DG3XMFER7V2IA7PB5J,2,1
45,1,object_03,object_07,947.80000001192,2,2,1214.5,0.3333333333333333,2,object_04,1,710,0,5,3,desert_3,1,memory-2step-stake-s,564,2441606,0.0-19.0-0.0-0.45,A2OO4PG3LBLP5I,3Q9SPIIRXM2ML6FVM0W2D0Z2IA6WAR,3JJVG1YBEFD0DG3XMFER7V2IA7PB5J,1,2
46,2,object_01,object_02,668.09999999404,3,2,505.5,0.6666666666666666,1,object_08,1,716,0,6,1,forest_4,1,memory-2step-stake-s,565,2449943,0.0-19.0-0.0-0.46,A2OO4PG3LBLP5I,3Q9SPIIRXM2ML6FVM0W2D0Z2IA6WAR,3JJVG1YBEFD0DG3XMFER7V2IA7PB5J,4,3
47,4,object_10,object_06,841.5,8,1,571.40000000596,0.3333333333333333,2,object_04,1,719,0,8,3,restaurant_6,1,memory-2step-stake-s,566,2458041,0.0-19.0-0.0-0.47,A2OO4PG3LBLP5I,3Q9SPIIRXM2ML6FVM0W2D0Z2IA6WAR,3JJVG1YBEFD0DG3XMFER7V2IA7PB5J,8,7
48,2,object_01,object_02,638.5,3,2,590.30000001192,0.8888888888888888,1,object_08,1,727,0,8,1,forest_2,1,memory-2step-stake-s,567,2466672,0.0-19.0-0.0-0.48,A2OO4PG3LBLP5I,3Q9SPIIRXM2ML6FVM0W2D0Z2IA6WAR,3JJVG1YBEFD0DG3XMFER7V2IA7PB5J,4,3
49,4,object_06,object_10,1033.2999999821,7,1,1004.900000006,0.8888888888888888,1,object_08,5,767,0,8,1,restaurant_1,1,memory-2step-stake-s,568,2475709,0.0-19.0-0.0-0.49,A2OO4PG3LBLP5I,3Q9SPIIRXM2ML6FVM0W2D0Z2IA6WAR,3JJVG1YBEFD0DG3XMFER7V2IA7PB5J,7,8
50,1,object_07,object_03,611.0,1,2,475.19999998808,0.8888888888888888,1,object_08,1,775,0,8,1,desert_5,1,memory-2step-stake-s,569,2484221,0.0-19.0-0.0-0.50,A2OO4PG3LBLP5I,3Q9SPIIRXM2ML6FVM0W2D0Z2IA6WAR,3JJVG1YBEFD0DG3XMFER7V2IA7PB5J,2,1
51,2,object_02,object_01,873.60000002384,3,1,802.19999998808,0.7777777777777778,1,object_08,5,810,0,7,2,forest_1,1,memory-2step-stake-s,570,2492952,0.0-19.0-0.0-0.51,A2OO4PG3LBLP5I,3Q9SPIIRXM2ML6FVM0W2D0Z2IA6WAR,3JJVG1YBEFD0DG3XMFER7V2IA7PB5J,3,4
52,2,object_02,object_01,761.40000000596,3,1,778.59999999404,0.7777777777777778,1,object_08,1,817,0,7,2,forest_5,1,memory-2step-stake-s,571,2501669,0.0-19.0-0.0-0.52,A2OO4PG3LBLP5I,3Q9SPIIRXM2ML6FVM0W2D0Z2IA6WAR,3JJVG1YBEFD0DG3XMFER7V2IA7PB5J,3,4
53,3,object_09,object_05,707.5,6,1,1469.8000000119,0.0,2,object_04,5,817,0,8,0,library_5,1,memory-2step-stake-s,572,2510354,0.0-19.0-0.0-0.53,A2OO4PG3LBLP5I,3Q9SPIIRXM2ML6FVM0W2D0Z2IA6WAR,3JJVG1YBEFD0DG3XMFER7V2IA7PB5J,6,5
54,3,object_09,object_05,589.40000000596,5,2,492.20000001788,1.0,1,object_08,5,862,0,9,1,library_6,1,memory-2step-stake-s,573,2518987,0.0-19.0-0.0-0.54,A2OO4PG3LBLP5I,3Q9SPIIRXM2ML6FVM0W2D0Z2IA6WAR,3JJVG1YBEFD0DG3XMFER7V2IA7PB5J,6,5
55,2,object_01,object_02,687.69999998808,4,1,819.20000001788,0.3333333333333333,2,object_04,1,865,0,9,3,forest_2,1,memory-2step-stake-s,574,2527329,0.0-19.0-0.0-0.55,A2OO4PG3LBLP5I,3Q9SPIIRXM2ML6FVM0W2D0Z2IA6WAR,3JJVG1YBEFD0DG3XMFER7V2IA7PB5J,4,3
56,2,object_02,object_01,673.40000000596,3,1,782.5,0.7777777777777778,1,object_08,5,900,0,7,4,forest_4,1,memory-2step-stake-s,575,2536041,0.0-19.0-0.0-0.56,A2OO4PG3LBLP5I,3Q9SPIIRXM2ML6FVM0W2D0Z2IA6WAR,3JJVG1YBEFD0DG3XMFER7V2IA7PB5J,3,4
57,3,object_05,object_09,670.10000002384,6,2,1433.099999994,0.1111111111111111,2,object_04,5,905,0,5,1,library_5,1,memory-2step-stake-s,576,2544792,0.0-19.0-0.0-0.57,A2OO4PG3LBLP5I,3Q9SPIIRXM2ML6FVM0W2D0Z2IA6WAR,3JJVG1YBEFD0DG3XMFER7V2IA7PB5J,5,6
58,2,object_01,object_02,875.59999999404,3,2,1116.7000000179,0.7777777777777778,1,object_08,1,912,0,7,1,forest_4,1,memory-2step-stake-s,577,2553853,0.0-19.0-0.0-0.58,A2OO4PG3LBLP5I,3Q9SPIIRXM2ML6FVM0W2D0Z2IA6WAR,3JJVG1YBEFD0DG3XMFER7V2IA7PB5J,4,3
59,2,object_02,object_01,901.10000002384,3,1,-1.0,0.0,1,object_08,1,912,0,8,3,forest_4,1,memory-2step-stake-s,578,2562371,0.0-19.0-0.0-0.59,A2OO4PG3LBLP5I,3Q9SPIIRXM2ML6FVM0W2D0Z2IA6WAR,3JJVG1YBEFD0DG3XMFER7V2IA7PB5J,3,4
60,1,object_07,object_03,596.90000000596,1,2,593.5,0.8888888888888888,1,object_08,1,920,0,8,4,desert_1,1,memory-2step-stake-s,579,2570993,0.0-19.0-0.0-0.60,A2OO4PG3LBLP5I,3Q9SPIIRXM2ML6FVM0W2D0Z2IA6WAR,3JJVG1YBEFD0DG3XMFER7V2IA7PB5J,2,1
61,4,object_10,object_06,930.70000001788,7,2,1310.3000000119,0.7777777777777778,1,object_08,1,927,0,7,0,restaurant_2,1,memory-2step-stake-s,580,2580235,0.0-19.0-0.0-0.61,A2OO4PG3LBLP5I,3Q9SPIIRXM2ML6FVM0W2D0Z2IA6WAR,3JJVG1YBEFD0DG3XMFER7V2IA7PB5J,8,7
62,1,object_07,object_03,1072.099999994,1,2,868.40000000596,0.8888888888888888,1,object_08,1,935,0,8,2,desert_6,1,memory-2step-stake-s,581,2589141,0.0-19.0-0.0-0.62,A2OO4PG3LBLP5I,3Q9SPIIRXM2ML6FVM0W2D0Z2IA6WAR,3JJVG1YBEFD0DG3XMFER7V2IA7PB5J,2,1
63,3,object_09,object_05,671.69999998808,6,1,-1.0,0.0,2,object_04,5,935,0,8,6,library_6,1,memory-2step-stake-s,582,2597656,0.0-19.0-0.0-0.63,A2OO4PG3LBLP5I,3Q9SPIIRXM2ML6FVM0W2D0Z2IA6WAR,3JJVG1YBEFD0DG3XMFER7V2IA7PB5J,6,5
64,3,object_05,object_09,709.39999997616,6,2,820.59999999404,0.5555555555555556,2,object_04,1,940,0,8,5,library_5,1,memory-2step-stake-s,583,2606193,0.0-19.0-0.0-0.64,A2OO4PG3LBLP5I,3Q9SPIIRXM2ML6FVM0W2D0Z2IA6WAR,3JJVG1YBEFD0DG3XMFER7V2IA7PB5J,5,6
65,3,object_09,object_05,585.69999998808,6,1,651.30000001192,0.6666666666666666,2,object_04,1,946,0,7,6,library_5,1,memory-2step-stake-s,584,2614704,0.0-19.0-0.0-0.65,A2OO4PG3LBLP5I,3Q9SPIIRXM2ML6FVM0W2D0Z2IA6WAR,3JJVG1YBEFD0DG3XMFER7V2IA7PB5J,6,5
66,2,object_02,object_01,1073.900000006,3,1,-1.0,0.0,1,object_08,1,946,0,9,7,forest_5,1,memory-2step-stake-s,585,2623232,0.0-19.0-0.0-0.66,A2OO4PG3LBLP5I,3Q9SPIIRXM2ML6FVM0W2D0Z2IA6WAR,3JJVG1YBEFD0DG3XMFER7V2IA7PB5J,3,4
67,2,object_01,object_02,892.70000001788,4,1,777.69999998808,0.8888888888888888,2,object_04,1,954,0,9,8,forest_5,1,memory-2step-stake-s,586,2632038,0.0-19.0-0.0-0.67,A2OO4PG3LBLP5I,3Q9SPIIRXM2ML6FVM0W2D0Z2IA6WAR,3JJVG1YBEFD0DG3XMFER7V2IA7PB5J,4,3
68,1,object_07,object_03,684.59999999404,1,2,838.19999998808,0.6666666666666666,1,object_08,1,960,0,6,7,desert_6,1,memory-2step-stake-s,587,2640696,0.0-19.0-0.0-0.68,A2OO4PG3LBLP5I,3Q9SPIIRXM2ML6FVM0W2D0Z2IA6WAR,3JJVG1YBEFD0DG3XMFER7V2IA7PB5J,2,1
69,3,object_09,object_05,665.09999999404,6,1,908.69999998808,0.7777777777777778,2,object_04,1,967,0,8,7,library_7,1,memory-2step-stake-s,588,2649530,0.0-19.0-0.0-0.69,A2OO4PG3LBLP5I,3Q9SPIIRXM2ML6FVM0W2D0Z2IA6WAR,3JJVG1YBEFD0DG3XMFER7V2IA7PB5J,6,5
70,2,object_02,object_01,-1.0,-1,-1,-1.0,0.0,-,0,5,967,0,8,6,forest_4,1,memory-2step-stake-s,589,2656050,0.0-19.0-0.0-0.70,A2OO4PG3LBLP5I,3Q9SPIIRXM2ML6FVM0W2D0Z2IA6WAR,3JJVG1YBEFD0DG3XMFER7V2IA7PB5J,3,4
71,3,object_09,object_05,767.0,5,2,427.0,0.8888888888888888,1,object_08,5,1007,0,8,6,library_6,1,memory-2step-stake-s,590,2664502,0.0-19.0-0.0-0.71,A2OO4PG3LBLP5I,3Q9SPIIRXM2ML6FVM0W2D0Z2IA6WAR,3JJVG1YBEFD0DG3XMFER7V2IA7PB5J,6,5
72,1,object_07,object_03,932.70000001788,2,1,473.40000000596,0.7777777777777778,2,object_04,1,1014,0,7,7,desert_5,1,memory-2step-stake-s,591,2672905,0.0-19.0-0.0-0.72,A2OO4PG3LBLP5I,3Q9SPIIRXM2ML6FVM0W2D0Z2IA6WAR,3JJVG1YBEFD0DG3XMFER7V2IA7PB5J,2,1
73,1,object_03,object_07,720.20000001788,2,2,606.90000000596,0.4444444444444444,2,object_04,1,1018,0,8,4,desert_5,1,memory-2step-stake-s,592,2681130,0.0-19.0-0.0-0.73,A2OO4PG3LBLP5I,3Q9SPIIRXM2ML6FVM0W2D0Z2IA6WAR,3JJVG1YBEFD0DG3XMFER7V2IA7PB5J,1,2
74,1,object_07,object_03,888.80000001192,1,2,511.79999998212,1.0,1,object_08,1,1027,0,9,2,desert_5,1,memory-2step-stake-s,593,2689790,0.0-19.0-0.0-0.74,A2OO4PG3LBLP5I,3Q9SPIIRXM2ML6FVM0W2D0Z2IA6WAR,3JJVG1YBEFD0DG3XMFER7V2IA7PB5J,2,1
75,1,object_03,object_07,936.60000002384,2,2,459.5,0.4444444444444444,2,object_04,1,1031,0,6,4,desert_6,1,memory-2step-stake-s,594,2697869,0.0-19.0-0.0-0.75,A2OO4PG3LBLP5I,3Q9SPIIRXM2ML6FVM0W2D0Z2IA6WAR,3JJVG1YBEFD0DG3XMFER7V2IA7PB5J,1,2
76,2,object_01,object_02,822.40000000596,4,1,504.40000000596,0.6666666666666666,2,object_04,1,1037,0,4,6,forest_4,1,memory-2step-stake-s,595,2706196,0.0-19.0-0.0-0.76,A2OO4PG3LBLP5I,3Q9SPIIRXM2ML6FVM0W2D0Z2IA6WAR,3JJVG1YBEFD0DG3XMFER7V2IA7PB5J,4,3
77,4,object_10,object_06,932.0,7,2,477.09999999404,0.5555555555555556,1,object_08,5,1062,0,5,8,restaurant_6,1,memory-2step-stake-s,596,2714407,0.0-19.0-0.0-0.77,A2OO4PG3LBLP5I,3Q9SPIIRXM2ML6FVM0W2D0Z2IA6WAR,3JJVG1YBEFD0DG3XMFER7V2IA7PB5J,8,7
78,1,object_03,object_07,867.20000001788,2,2,731.09999999404,0.6666666666666666,2,object_04,1,1068,0,3,6,desert_5,1,memory-2step-stake-s,597,2722961,0.0-19.0-0.0-0.78,A2OO4PG3LBLP5I,3Q9SPIIRXM2ML6FVM0W2D0Z2IA6WAR,3JJVG1YBEFD0DG3XMFER7V2IA7PB5J,1,2
79,3,object_09,object_05,884.80000001192,6,1,744.0,0.5555555555555556,2,object_04,5,1093,0,3,5,library_7,1,memory-2step-stake-s,598,2731431,0.0-19.0-0.0-0.79,A2OO4PG3LBLP5I,3Q9SPIIRXM2ML6FVM0W2D0Z2IA6WAR,3JJVG1YBEFD0DG3XMFER7V2IA7PB5J,6,5
80,3,object_05,object_09,741.0,6,2,735.10000002384,0.4444444444444444,2,object_04,5,1113,0,3,4,library_6,1,memory-2step-stake-s,599,2739790,0.0-19.0-0.0-0.80,A2OO4PG3LBLP5I,3Q9SPIIRXM2ML6FVM0W2D0Z2IA6WAR,3JJVG1YBEFD0DG3XMFER7V2IA7PB5J,5,6
81,1,object_07,object_03,840.70000001788,2,1,683.09999999404,0.4444444444444444,2,object_04,1,1117,0,3,4,desert_5,1,memory-2step-stake-s,600,2748108,0.0-19.0-0.0-0.81,A2OO4PG3LBLP5I,3Q9SPIIRXM2ML6FVM0W2D0Z2IA6WAR,3JJVG1YBEFD0DG3XMFER7V2IA7PB5J,2,1
82,4,object_10,object_06,824.70000001788,8,1,529.0,0.5555555555555556,2,object_04,5,1142,0,1,5,restaurant_2,1,memory-2step-stake-s,601,2756362,0.0-19.0-0.0-0.82,A2OO4PG3LBLP5I,3Q9SPIIRXM2ML6FVM0W2D0Z2IA6WAR,3JJVG1YBEFD0DG3XMFER7V2IA7PB5J,8,7
83,1,object_07,object_03,761.90000000596,1,2,1208.900000006,0.0,1,object_08,5,1142,0,0,5,desert_6,1,memory-2step-stake-s,602,2764793,0.0-19.0-0.0-0.83,A2OO4PG3LBLP5I,3Q9SPIIRXM2ML6FVM0W2D0Z2IA6WAR,3JJVG1YBEFD0DG3XMFER7V2IA7PB5J,2,1
84,4,object_10,object_06,787.0,8,1,961.0,0.6666666666666666,2,object_04,5,1172,0,3,6,restaurant_5,1,memory-2step-stake-s,603,2773583,0.0-19.0-0.0-0.84,A2OO4PG3LBLP5I,3Q9SPIIRXM2ML6FVM0W2D0Z2IA6WAR,3JJVG1YBEFD0DG3XMFER7V2IA7PB5J,8,7
85,4,object_10,object_06,843.70000001788,8,1,773.90000000596,0.4444444444444444,2,object_04,5,1192,0,3,4,restaurant_1,1,memory-2step-stake-s,604,2781976,0.0-19.0-0.0-0.85,A2OO4PG3LBLP5I,3Q9SPIIRXM2ML6FVM0W2D0Z2IA6WAR,3JJVG1YBEFD0DG3XMFER7V2IA7PB5J,8,7
86,2,object_02,object_01,933.90000000596,3,1,614.59999999404,0.2222222222222222,1,object_08,1,1194,0,2,3,forest_5,1,memory-2step-stake-s,605,2790010,0.0-19.0-0.0-0.86,A2OO4PG3LBLP5I,3Q9SPIIRXM2ML6FVM0W2D0Z2IA6WAR,3JJVG1YBEFD0DG3XMFER7V2IA7PB5J,3,4
87,3,object_05,object_09,641.59999999404,6,2,457.90000000596,0.1111111111111111,2,object_04,5,1199,0,0,1,library_7,1,memory-2step-stake-s,606,2797786,0.0-19.0-0.0-0.87,A2OO4PG3LBLP5I,3Q9SPIIRXM2ML6FVM0W2D0Z2IA6WAR,3JJVG1YBEFD0DG3XMFER7V2IA7PB5J,5,6
88,3,object_05,object_09,716.40000000596,5,1,486.0,0.2222222222222222,1,object_08,5,1209,0,2,3,library_5,1,memory-2step-stake-s,607,2805699,0.0-19.0-0.0-0.88,A2OO4PG3LBLP5I,3Q9SPIIRXM2ML6FVM0W2D0Z2IA6WAR,3JJVG1YBEFD0DG3XMFER7V2IA7PB5J,5,6
89,2,object_02,object_01,926.40000000596,4,2,428.0,0.5555555555555556,2,object_04,5,1234,0,4,5,forest_1,1,memory-2step-stake-s,608,2813856,0.0-19.0-0.0-0.89,A2OO4PG3LBLP5I,3Q9SPIIRXM2ML6FVM0W2D0Z2IA6WAR,3JJVG1YBEFD0DG3XMFER7V2IA7PB5J,3,4
90,2,object_01,object_02,735.0,4,1,595.40000000596,0.2222222222222222,2,object_04,1,1236,0,3,2,forest_2,1,memory-2step-stake-s,609,2821872,0.0-19.0-0.0-0.90,A2OO4PG3LBLP5I,3Q9SPIIRXM2ML6FVM0W2D0Z2IA6WAR,3JJVG1YBEFD0DG3XMFER7V2IA7PB5J,4,3
91,3,object_09,object_05,571.30000001192,6,1,412.0,0.2222222222222222,2,object_04,1,1238,0,2,2,library_5,1,memory-2step-stake-s,610,2829701,0.0-19.0-0.0-0.91,A2OO4PG3LBLP5I,3Q9SPIIRXM2ML6FVM0W2D0Z2IA6WAR,3JJVG1YBEFD0DG3XMFER7V2IA7PB5J,6,5
92,2,object_01,object_02,753.39999997616,4,1,456.19999998808,0.4444444444444444,2,object_04,1,1242,0,4,4,forest_5,1,memory-2step-stake-s,611,2837777,0.0-19.0-0.0-0.92,A2OO4PG3LBLP5I,3Q9SPIIRXM2ML6FVM0W2D0Z2IA6WAR,3JJVG1YBEFD0DG3XMFER7V2IA7PB5J,4,3
93,2,object_02,object_01,864.80000001192,3,1,885.5,0.6666666666666666,1,object_08,1,1248,0,6,4,forest_1,1,memory-2step-stake-s,612,2846484,0.0-19.0-0.0-0.93,A2OO4PG3LBLP5I,3Q9SPIIRXM2ML6FVM0W2D0Z2IA6WAR,3JJVG1YBEFD0DG3XMFER7V2IA7PB5J,3,4
94,1,object_03,object_07,978.19999998808,1,1,682.70000001788,0.5555555555555556,1,object_08,1,1253,0,5,6,desert_1,1,memory-2step-stake-s,613,2854896,0.0-19.0-0.0-0.94,A2OO4PG3LBLP5I,3Q9SPIIRXM2ML6FVM0W2D0Z2IA6WAR,3JJVG1YBEFD0DG3XMFER7V2IA7PB5J,1,2
95,4,object_06,object_10,690.19999998808,8,2,393.5,0.5555555555555556,2,object_04,5,1278,0,3,5,restaurant_6,1,memory-2step-stake-s,614,2863012,0.0-19.0-0.0-0.95,A2OO4PG3LBLP5I,3Q9SPIIRXM2ML6FVM0W2D0Z2IA6WAR,3JJVG1YBEFD0DG3XMFER7V2IA7PB5J,7,8
96,1,object_03,object_07,651.29999998212,2,2,1213.2999999821,0.4444444444444444,2,object_04,1,1282,0,2,4,desert_1,1,memory-2step-stake-s,615,2871845,0.0-19.0-0.0-0.96,A2OO4PG3LBLP5I,3Q9SPIIRXM2ML6FVM0W2D0Z2IA6WAR,3JJVG1YBEFD0DG3XMFER7V2IA7PB5J,1,2
97,3,object_05,object_09,772.09999999404,5,1,546.20000001788,0.4444444444444444,1,object_08,5,1302,0,4,5,library_6,1,memory-2step-stake-s,616,2880011,0.0-19.0-0.0-0.97,A2OO4PG3LBLP5I,3Q9SPIIRXM2ML6FVM0W2D0Z2IA6WAR,3JJVG1YBEFD0DG3XMFER7V2IA7PB5J,5,6
98,2,object_01,object_02,867.69999998808,4,1,564.09999999404,0.6666666666666666,2,object_04,5,1332,0,7,6,forest_5,1,memory-2step-stake-s,617,2888406,0.0-19.0-0.0-0.98,A2OO4PG3LBLP5I,3Q9SPIIRXM2ML6FVM0W2D0Z2IA6WAR,3JJVG1YBEFD0DG3XMFER7V2IA7PB5J,4,3
99,1,object_07,object_03,682.29999998212,1,2,523.69999998808,0.5555555555555556,1,object_08,1,1337,0,5,6,desert_1,1,memory-2step-stake-s,618,2896652,0.0-19.0-0.0-0.99,A2OO4PG3LBLP5I,3Q9SPIIRXM2ML6FVM0W2D0Z2IA6WAR,3JJVG1YBEFD0DG3XMFER7V2IA7PB5J,2,1
100,3,object_09,object_05,580.29999998212,6,1,-1.0,0.0,2,object_04,5,1337,0,3,5,library_7,1,memory-2step-stake-s,619,2905167,0.0-19.0-0.0-0.100,A2OO4PG3LBLP5I,3Q9SPIIRXM2ML6FVM0W2D0Z2IA6WAR,3JJVG1YBEFD0DG3XMFER7V2IA7PB5J,6,5
101,2,object_01,object_02,731.70000001788,3,2,408.79999998212,0.3333333333333333,1,object_08,1,1340,0,3,7,forest_2,1,memory-2step-stake-s,620,2913098,0.0-19.0-0.0-0.101,A2OO4PG3LBLP5I,3Q9SPIIRXM2ML6FVM0W2D0Z2IA6WAR,3JJVG1YBEFD0DG3XMFER7V2IA7PB5J,4,3
102,4,object_06,object_10,556.79999998212,7,1,571.09999999404,0.5555555555555556,1,object_08,5,1365,0,5,9,restaurant_5,1,memory-2step-stake-s,621,2921405,0.0-19.0-0.0-0.102,A2OO4PG3LBLP5I,3Q9SPIIRXM2ML6FVM0W2D0Z2IA6WAR,3JJVG1YBEFD0DG3XMFER7V2IA7PB5J,7,8
103,4,object_10,object_06,756.09999999404,7,2,459.29999998212,0.7777777777777778,1,object_08,5,1400,0,7,7,restaurant_1,1,memory-2step-stake-s,622,2929819,0.0-19.0-0.0-0.103,A2OO4PG3LBLP5I,3Q9SPIIRXM2ML6FVM0W2D0Z2IA6WAR,3JJVG1YBEFD0DG3XMFER7V2IA7PB5J,8,7
104,4,object_10,object_06,646.59999999404,8,1,487.5,1.0,2,object_04,5,1445,0,7,9,restaurant_1,1,memory-2step-stake-s,623,2938452,0.0-19.0-0.0-0.104,A2OO4PG3LBLP5I,3Q9SPIIRXM2ML6FVM0W2D0Z2IA6WAR,3JJVG1YBEFD0DG3XMFER7V2IA7PB5J,8,7
105,2,object_01,object_02,653.5,4,1,398.59999999404,0.7777777777777778,2,object_04,5,1480,0,8,7,forest_2,1,memory-2step-stake-s,624,2946780,0.0-19.0-0.0-0.105,A2OO4PG3LBLP5I,3Q9SPIIRXM2ML6FVM0W2D0Z2IA6WAR,3JJVG1YBEFD0DG3XMFER7V2IA7PB5J,4,3
106,4,object_10,object_06,719.30000001192,8,1,1323.1000000238,0.4444444444444444,2,object_04,5,1500,0,8,4,restaurant_2,1,memory-2step-stake-s,625,2955723,0.0-19.0-0.0-0.106,A2OO4PG3LBLP5I,3Q9SPIIRXM2ML6FVM0W2D0Z2IA6WAR,3JJVG1YBEFD0DG3XMFER7V2IA7PB5J,8,7
107,1,object_07,object_03,565.79999998212,1,2,405.30000001192,0.8888888888888888,1,object_08,1,1508,0,8,6,desert_5,1,memory-2step-stake-s,626,2964217,0.0-19.0-0.0-0.107,A2OO4PG3LBLP5I,3Q9SPIIRXM2ML6FVM0W2D0Z2IA6WAR,3JJVG1YBEFD0DG3XMFER7V2IA7PB5J,2,1
108,2,object_01,object_02,514.80000001192,4,1,-1.0,0.0,2,object_04,1,1508,0,9,4,forest_2,1,memory-2step-stake-s,627,2972748,0.0-19.0-0.0-0.108,A2OO4PG3LBLP5I,3Q9SPIIRXM2ML6FVM0W2D0Z2IA6WAR,3JJVG1YBEFD0DG3XMFER7V2IA7PB5J,4,3
109,2,object_02,object_01,735.19999998808,4,2,-1.0,0.0,2,object_04,5,1508,0,8,6,forest_1,1,memory-2step-stake-s,628,2981268,0.0-19.0-0.0-0.109,A2OO4PG3LBLP5I,3Q9SPIIRXM2ML6FVM0W2D0Z2IA6WAR,3JJVG1YBEFD0DG3XMFER7V2IA7PB5J,3,4
110,2,object_02,object_01,336.5,3,1,-1.0,0.0,1,object_08,1,1508,0,8,6,forest_2,1,memory-2step-stake-s,629,2989794,0.0-19.0-0.0-0.110,A2OO4PG3LBLP5I,3Q9SPIIRXM2ML6FVM0W2D0Z2IA6WAR,3JJVG1YBEFD0DG3XMFER7V2IA7PB5J,3,4
111,1,object_07,object_03,721.29999998212,2,1,-1.0,0.0,2,object_04,1,1508,0,8,8,desert_1,1,memory-2step-stake-s,630,2998357,0.0-19.0-0.0-0.111,A2OO4PG3LBLP5I,3Q9SPIIRXM2ML6FVM0W2D0Z2IA6WAR,3JJVG1YBEFD0DG3XMFER7V2IA7PB5J,2,1
112,4,object_10,object_06,485.69999998808,7,2,393.80000001192,0.8888888888888888,1,object_08,5,1548,0,8,8,restaurant_1,1,memory-2step-stake-s,631,3006798,0.0-19.0-0.0-0.112,A2OO4PG3LBLP5I,3Q9SPIIRXM2ML6FVM0W2D0Z2IA6WAR,3JJVG1YBEFD0DG3XMFER7V2IA7PB5J,8,7
113,3,object_09,object_05,501.09999999404,6,1,583.80000001192,0.8888888888888888,2,object_04,5,1588,0,7,8,library_6,1,memory-2step-stake-s,632,3015437,0.0-19.0-0.0-0.113,A2OO4PG3LBLP5I,3Q9SPIIRXM2ML6FVM0W2D0Z2IA6WAR,3JJVG1YBEFD0DG3XMFER7V2IA7PB5J,6,5
114,3,object_09,object_05,607.5,6,1,939.69999998808,0.8888888888888888,2,object_04,1,1596,0,6,8,library_6,1,memory-2step-stake-s,633,3024422,0.0-19.0-0.0-0.114,A2OO4PG3LBLP5I,3Q9SPIIRXM2ML6FVM0W2D0Z2IA6WAR,3JJVG1YBEFD0DG3XMFER7V2IA7PB5J,6,5
115,3,object_05,object_09,635.5,6,2,477.10000002384,0.6666666666666666,2,object_04,5,1626,0,5,6,library_1,1,memory-2step-stake-s,634,3032746,0.0-19.0-0.0-0.115,A2OO4PG3LBLP5I,3Q9SPIIRXM2ML6FVM0W2D0Z2IA6WAR,3JJVG1YBEFD0DG3XMFER7V2IA7PB5J,5,6
116,1,object_07,object_03,636.5,2,1,989.90000000596,0.7777777777777778,2,object_04,1,1633,0,5,7,desert_6,1,memory-2step-stake-s,635,3041662,0.0-19.0-0.0-0.116,A2OO4PG3LBLP5I,3Q9SPIIRXM2ML6FVM0W2D0Z2IA6WAR,3JJVG1YBEFD0DG3XMFER7V2IA7PB5J,2,1
117,2,object_01,object_02,740.79999998212,4,1,529.60000002384,1.0,2,object_04,1,1642,0,5,9,forest_1,1,memory-2step-stake-s,636,3050377,0.0-19.0-0.0-0.117,A2OO4PG3LBLP5I,3Q9SPIIRXM2ML6FVM0W2D0Z2IA6WAR,3JJVG1YBEFD0DG3XMFER7V2IA7PB5J,4,3
118,4,object_06,object_10,576.70000001788,7,1,459.09999999404,0.5555555555555556,1,object_08,5,1667,0,5,8,restaurant_1,1,memory-2step-stake-s,637,3058589,0.0-19.0-0.0-0.118,A2OO4PG3LBLP5I,3Q9SPIIRXM2ML6FVM0W2D0Z2IA6WAR,3JJVG1YBEFD0DG3XMFER7V2IA7PB5J,7,8
119,4,object_10,object_06,571.19999998808,8,1,879.69999998808,0.4444444444444444,2,object_04,5,1687,0,7,4,restaurant_1,1,memory-2step-stake-s,638,3067098,0.0-19.0-0.0-0.119,A2OO4PG3LBLP5I,3Q9SPIIRXM2ML6FVM0W2D0Z2IA6WAR,3JJVG1YBEFD0DG3XMFER7V2IA7PB5J,8,7
120,1,object_07,object_03,771.39999997616,2,1,1033.6999999881,0.4444444444444444,2,object_04,1,1691,0,8,4,desert_6,1,memory-2step-stake-s,639,3075768,0.0-19.0-0.0-0.120,A2OO4PG3LBLP5I,3Q9SPIIRXM2ML6FVM0W2D0Z2IA6WAR,3JJVG1YBEFD0DG3XMFER7V2IA7PB5J,2,1
121,4,object_10,object_06,653.20000001788,7,2,562.09999999404,0.8888888888888888,1,object_08,5,1731,0,8,3,restaurant_5,1,memory-2step-stake-s,640,3084410,0.0-19.0-0.0-0.121,A2OO4PG3LBLP5I,3Q9SPIIRXM2ML6FVM0W2D0Z2IA6WAR,3JJVG1YBEFD0DG3XMFER7V2IA7PB5J,8,7
122,2,object_01,object_02,655.40000000596,4,1,607.5,0.0,2,object_04,1,1731,0,8,0,forest_1,1,memory-2step-stake-s,641,3092232,0.0-19.0-0.0-0.122,A2OO4PG3LBLP5I,3Q9SPIIRXM2ML6FVM0W2D0Z2IA6WAR,3JJVG1YBEFD0DG3XMFER7V2IA7PB5J,4,3
123,1,object_07,object_03,549.09999999404,1,2,571.80000001192,0.8888888888888888,1,object_08,1,1739,0,8,2,desert_1,1,memory-2step-stake-s,642,3100854,0.0-19.0-0.0-0.123,A2OO4PG3LBLP5I,3Q9SPIIRXM2ML6FVM0W2D0Z2IA6WAR,3JJVG1YBEFD0DG3XMFER7V2IA7PB5J,2,1
124,1,object_07,object_03,747.09999999404,2,1,767.40000000596,0.5555555555555556,2,object_04,1,1744,0,8,5,desert_5,1,memory-2step-stake-s,643,3109358,0.0-19.0-0.0-0.124,A2OO4PG3LBLP5I,3Q9SPIIRXM2ML6FVM0W2D0Z2IA6WAR,3JJVG1YBEFD0DG3XMFER7V2IA7PB5J,2,1
125,3,object_05,object_09,457.20000001788,6,2,1354.1999999881,0.7777777777777778,2,object_04,5,1779,0,7,7,library_6,1,memory-2step-stake-s,644,3118636,0.0-19.0-0.0-0.125,A2OO4PG3LBLP5I,3Q9SPIIRXM2ML6FVM0W2D0Z2IA6WAR,3JJVG1YBEFD0DG3XMFER7V2IA7PB5J,5,6
126,1,object_03,object_07,519.40000000596,1,1,695.59999999404,1.0,1,object_08,1,1788,0,9,7,desert_3,1,memory-2step-stake-s,645,3127458,0.0-19.0-0.0-0.126,A2OO4PG3LBLP5I,3Q9SPIIRXM2ML6FVM0W2D0Z2IA6WAR,3JJVG1YBEFD0DG3XMFER7V2IA7PB5J,1,2
127,4,object_06,object_10,694.59999999404,8,2,557.79999998212,0.5555555555555556,2,object_04,1,1793,0,8,5,restaurant_2,1,memory-2step-stake-s,646,3135739,0.0-19.0-0.0-0.127,A2OO4PG3LBLP5I,3Q9SPIIRXM2ML6FVM0W2D0Z2IA6WAR,3JJVG1YBEFD0DG3XMFER7V2IA7PB5J,7,8
128,1,object_03,object_07,439.79999998212,2,2,550.20000001788,0.5555555555555556,2,object_04,1,1798,0,6,5,desert_6,1,memory-2step-stake-s,648,3242108,0.0-19.0-0.1-0.128,A2OO4PG3LBLP5I,3Q9SPIIRXM2ML6FVM0W2D0Z2IA6WAR,3JJVG1YBEFD0DG3XMFER7V2IA7PB5J,1,2
129,3,object_09,object_05,676.80000001192,6,1,537.60000002384,0.6666666666666666,2,object_04,5,1828,0,6,6,library_1,1,memory-2step-stake-s,649,3250479,0.0-19.0-0.1-0.129,A2OO4PG3LBLP5I,3Q9SPIIRXM2ML6FVM0W2D0Z2IA6WAR,3JJVG1YBEFD0DG3XMFER7V2IA7PB5J,6,5
130,4,object_06,object_10,701.90000000596,7,1,828.40000000596,0.3333333333333333,1,object_08,1,1831,0,3,7,restaurant_2,1,memory-2step-stake-s,650,3258837,0.0-19.0-0.1-0.130,A2OO4PG3LBLP5I,3Q9SPIIRXM2ML6FVM0W2D0Z2IA6WAR,3JJVG1YBEFD0DG3XMFER7V2IA7PB5J,7,8
131,3,object_09,object_05,379.59999999404,5,2,355.30000001192,0.5555555555555556,1,object_08,1,1836,0,5,8,library_6,1,memory-2step-stake-s,651,3266933,0.0-19.0-0.1-0.131,A2OO4PG3LBLP5I,3Q9SPIIRXM2ML6FVM0W2D0Z2IA6WAR,3JJVG1YBEFD0DG3XMFER7V2IA7PB5J,6,5
132,1,object_07,object_03,608.19999998808,2,1,245.09999999404,1.0,2,object_04,5,1881,0,6,9,desert_6,1,memory-2step-stake-s,652,3275323,0.0-19.0-0.1-0.132,A2OO4PG3LBLP5I,3Q9SPIIRXM2ML6FVM0W2D0Z2IA6WAR,3JJVG1YBEFD0DG3XMFER7V2IA7PB5J,2,1
133,2,object_01,object_02,724.59999999404,4,1,471.10000002384,1.0,2,object_04,1,1890,0,3,9,forest_4,1,memory-2step-stake-s,653,3283954,0.0-19.0-0.1-0.133,A2OO4PG3LBLP5I,3Q9SPIIRXM2ML6FVM0W2D0Z2IA6WAR,3JJVG1YBEFD0DG3XMFER7V2IA7PB5J,4,3
134,1,object_03,object_07,670.19999998808,2,2,647.0,0.5555555555555556,2,object_04,1,1895,0,3,5,desert_1,1,memory-2step-stake-s,654,3292339,0.0-19.0-0.1-0.134,A2OO4PG3LBLP5I,3Q9SPIIRXM2ML6FVM0W2D0Z2IA6WAR,3JJVG1YBEFD0DG3XMFER7V2IA7PB5J,1,2
135,4,object_06,object_10,512.30000001192,7,1,487.69999998808,0.3333333333333333,1,object_08,1,1898,0,3,4,restaurant_1,1,memory-2step-stake-s,655,3300356,0.0-19.0-0.1-0.135,A2OO4PG3LBLP5I,3Q9SPIIRXM2ML6FVM0W2D0Z2IA6WAR,3JJVG1YBEFD0DG3XMFER7V2IA7PB5J,7,8
136,4,object_06,object_10,593.09999999404,7,1,432.09999999404,0.0,1,object_08,5,1898,0,0,6,restaurant_6,1,memory-2step-stake-s,656,3308009,0.0-19.0-0.1-0.136,A2OO4PG3LBLP5I,3Q9SPIIRXM2ML6FVM0W2D0Z2IA6WAR,3JJVG1YBEFD0DG3XMFER7V2IA7PB5J,7,8
137,3,object_05,object_09,576.90000000596,5,1,479.0,0.2222222222222222,1,object_08,5,1908,0,2,8,library_7,1,memory-2step-stake-s,657,3315907,0.0-19.0-0.1-0.137,A2OO4PG3LBLP5I,3Q9SPIIRXM2ML6FVM0W2D0Z2IA6WAR,3JJVG1YBEFD0DG3XMFER7V2IA7PB5J,5,6
138,1,object_03,object_07,549.09999999404,2,2,323.09999999404,0.6666666666666666,2,object_04,1,1914,0,0,6,desert_1,1,memory-2step-stake-s,658,3324085,0.0-19.0-0.1-0.138,A2OO4PG3LBLP5I,3Q9SPIIRXM2ML6FVM0W2D0Z2IA6WAR,3JJVG1YBEFD0DG3XMFER7V2IA7PB5J,1,2
139,4,object_06,object_10,605.90000000596,7,1,402.0,0.3333333333333333,1,object_08,5,1929,0,3,4,restaurant_1,1,memory-2step-stake-s,659,3332008,0.0-19.0-0.1-0.139,A2OO4PG3LBLP5I,3Q9SPIIRXM2ML6FVM0W2D0Z2IA6WAR,3JJVG1YBEFD0DG3XMFER7V2IA7PB5J,7,8
140,4,object_06,object_10,604.10000002384,8,2,502.29999998212,0.7777777777777778,2,object_04,5,1964,0,7,7,restaurant_6,1,memory-2step-stake-s,660,3340449,0.0-19.0-0.1-0.140,A2OO4PG3LBLP5I,3Q9SPIIRXM2ML6FVM0W2D0Z2IA6WAR,3JJVG1YBEFD0DG3XMFER7V2IA7PB5J,7,8
141,4,object_10,object_06,465.0,8,1,817.69999998808,1.0,2,object_04,1,1973,0,6,9,restaurant_5,1,memory-2step-stake-s,661,3349419,0.0-19.0-0.1-0.141,A2OO4PG3LBLP5I,3Q9SPIIRXM2ML6FVM0W2D0Z2IA6WAR,3JJVG1YBEFD0DG3XMFER7V2IA7PB5J,8,7
142,3,object_09,object_05,625.09999999404,5,2,-1.0,0.0,1,object_08,1,1973,0,5,9,library_7,1,memory-2step-stake-s,662,3357940,0.0-19.0-0.1-0.142,A2OO4PG3LBLP5I,3Q9SPIIRXM2ML6FVM0W2D0Z2IA6WAR,3JJVG1YBEFD0DG3XMFER7V2IA7PB5J,6,5
143,2,object_01,object_02,614.79999998212,4,1,453.90000000596,0.7777777777777778,2,object_04,5,2008,0,8,7,forest_2,1,memory-2step-stake-s,663,3366318,0.0-19.0-0.1-0.143,A2OO4PG3LBLP5I,3Q9SPIIRXM2ML6FVM0W2D0Z2IA6WAR,3JJVG1YBEFD0DG3XMFER7V2IA7PB5J,4,3
144,2,object_01,object_02,562.19999998808,4,1,1031.0,0.8888888888888888,2,object_04,1,2016,0,8,8,forest_1,1,memory-2step-stake-s,664,3375377,0.0-19.0-0.1-0.144,A2OO4PG3LBLP5I,3Q9SPIIRXM2ML6FVM0W2D0Z2IA6WAR,3JJVG1YBEFD0DG3XMFER7V2IA7PB5J,4,3
145,2,object_02,object_01,836.5,4,2,567.30000001192,0.8888888888888888,2,object_04,1,2024,0,6,8,forest_2,1,memory-2step-stake-s,665,3384004,0.0-19.0-0.1-0.145,A2OO4PG3LBLP5I,3Q9SPIIRXM2ML6FVM0W2D0Z2IA6WAR,3JJVG1YBEFD0DG3XMFER7V2IA7PB5J,3,4
146,4,object_06,object_10,585.19999998808,7,1,642.19999998808,0.6666666666666666,1,object_08,5,2054,0,6,9,restaurant_2,1,memory-2step-stake-s,666,3392480,0.0-19.0-0.1-0.146,A2OO4PG3LBLP5I,3Q9SPIIRXM2ML6FVM0W2D0Z2IA6WAR,3JJVG1YBEFD0DG3XMFER7V2IA7PB5J,7,8
147,3,object_05,object_09,590.90000000596,5,1,1148.5,0.3333333333333333,1,object_08,5,2069,0,3,9,library_5,1,memory-2step-stake-s,667,3401167,0.0-19.0-0.1-0.147,A2OO4PG3LBLP5I,3Q9SPIIRXM2ML6FVM0W2D0Z2IA6WAR,3JJVG1YBEFD0DG3XMFER7V2IA7PB5J,5,6
148,1,object_07,object_03,742.59999999404,2,1,921.20000001788,0.8888888888888888,2,object_04,1,2077,0,0,8,desert_1,1,memory-2step-stake-s,668,3410116,0.0-19.0-0.1-0.148,A2OO4PG3LBLP5I,3Q9SPIIRXM2ML6FVM0W2D0Z2IA6WAR,3JJVG1YBEFD0DG3XMFER7V2IA7PB5J,2,1
149,4,object_06,object_10,628.19999998808,8,2,198.30000001192,0.8888888888888888,2,object_04,1,2085,0,2,8,restaurant_6,1,memory-2step-stake-s,669,3418352,0.0-19.0-0.1-0.149,A2OO4PG3LBLP5I,3Q9SPIIRXM2ML6FVM0W2D0Z2IA6WAR,3JJVG1YBEFD0DG3XMFER7V2IA7PB5J,7,8
150,4,object_06,object_10,591.09999999404,7,1,561.09999999404,0.3333333333333333,1,object_08,5,2100,0,3,2,restaurant_1,1,memory-2step-stake-s,670,3426440,0.0-19.0-0.1-0.150,A2OO4PG3LBLP5I,3Q9SPIIRXM2ML6FVM0W2D0Z2IA6WAR,3JJVG1YBEFD0DG3XMFER7V2IA7PB5J,7,8
151,4,object_06,object_10,426.0,7,1,395.30000001192,0.0,1,object_08,5,2100,0,0,2,restaurant_5,1,memory-2step-stake-s,671,3434634,0.0-19.0-0.1-0.151,A2OO4PG3LBLP5I,3Q9SPIIRXM2ML6FVM0W2D0Z2IA6WAR,3JJVG1YBEFD0DG3XMFER7V2IA7PB5J,7,8
152,2,object_02,object_01,553.30000001192,3,1,616.19999998808,0.2222222222222222,1,object_08,1,2102,0,2,2,forest_5,1,memory-2step-stake-s,672,3444307,0.0-19.0-0.1-0.152,A2OO4PG3LBLP5I,3Q9SPIIRXM2ML6FVM0W2D0Z2IA6WAR,3JJVG1YBEFD0DG3XMFER7V2IA7PB5J,3,4
153,3,object_05,object_09,580.70000001788,5,1,1005.599999994,0.2222222222222222,1,object_08,5,2112,0,2,1,library_6,1,memory-2step-stake-s,673,3452734,0.0-19.0-0.1-0.153,A2OO4PG3LBLP5I,3Q9SPIIRXM2ML6FVM0W2D0Z2IA6WAR,3JJVG1YBEFD0DG3XMFER7V2IA7PB5J,5,6
154,2,object_01,object_02,613.09999999404,3,2,901.80000001192,0.1111111111111111,1,object_08,1,2113,0,1,0,forest_5,1,memory-2step-stake-s,674,3460958,0.0-19.0-0.1-0.154,A2OO4PG3LBLP5I,3Q9SPIIRXM2ML6FVM0W2D0Z2IA6WAR,3JJVG1YBEFD0DG3XMFER7V2IA7PB5J,4,3
155,3,object_05,object_09,798.90000000596,5,1,1268.900000006,0.3333333333333333,1,object_08,5,2128,0,3,1,library_7,1,memory-2step-stake-s,675,3469758,0.0-19.0-0.1-0.155,A2OO4PG3LBLP5I,3Q9SPIIRXM2ML6FVM0W2D0Z2IA6WAR,3JJVG1YBEFD0DG3XMFER7V2IA7PB5J,5,6
156,2,object_01,object_02,847.20000001788,4,1,441.80000001192,0.2222222222222222,2,object_04,1,2130,0,0,2,forest_5,1,memory-2step-stake-s,676,3477623,0.0-19.0-0.1-0.156,A2OO4PG3LBLP5I,3Q9SPIIRXM2ML6FVM0W2D0Z2IA6WAR,3JJVG1YBEFD0DG3XMFER7V2IA7PB5J,4,3
157,2,object_02,object_01,565.69999998808,4,2,472.10000002384,0.2222222222222222,2,object_04,1,2132,0,3,2,forest_4,1,memory-2step-stake-s,677,3485538,0.0-19.0-0.1-0.157,A2OO4PG3LBLP5I,3Q9SPIIRXM2ML6FVM0W2D0Z2IA6WAR,3JJVG1YBEFD0DG3XMFER7V2IA7PB5J,3,4
158,3,object_05,object_09,1128.099999994,6,2,380.59999999404,0.3333333333333333,2,object_04,5,2147,0,4,3,library_1,1,memory-2step-stake-s,678,3493446,0.0-19.0-0.1-0.158,A2OO4PG3LBLP5I,3Q9SPIIRXM2ML6FVM0W2D0Z2IA6WAR,3JJVG1YBEFD0DG3XMFER7V2IA7PB5J,5,6
159,4,object_06,object_10,892.30000001192,7,1,460.19999998808,0.4444444444444444,1,object_08,5,2167,0,4,4,restaurant_2,1,memory-2step-stake-s,679,3501534,0.0-19.0-0.1-0.159,A2OO4PG3LBLP5I,3Q9SPIIRXM2ML6FVM0W2D0Z2IA6WAR,3JJVG1YBEFD0DG3XMFER7V2IA7PB5J,7,8
160,3,object_09,object_05,862.09999999404,6,1,475.80000001192,0.4444444444444444,2,object_04,5,2187,0,5,4,library_1,1,memory-2step-stake-s,680,3509640,0.0-19.0-0.1-0.160,A2OO4PG3LBLP5I,3Q9SPIIRXM2ML6FVM0W2D0Z2IA6WAR,3JJVG1YBEFD0DG3XMFER7V2IA7PB5J,6,5
161,2,object_02,object_01,785.40000000596,3,1,824.89999997616,0.4444444444444444,1,object_08,1,2191,0,4,6,forest_4,1,memory-2step-stake-s,681,3518110,0.0-19.0-0.1-0.161,A2OO4PG3LBLP5I,3Q9SPIIRXM2ML6FVM0W2D0Z2IA6WAR,3JJVG1YBEFD0DG3XMFER7V2IA7PB5J,3,4
162,4,object_10,object_06,959.80000001192,8,1,502.30000001192,0.7777777777777778,2,object_04,5,2226,0,6,7,restaurant_5,1,memory-2step-stake-s,682,3526554,0.0-19.0-0.1-0.162,A2OO4PG3LBLP5I,3Q9SPIIRXM2ML6FVM0W2D0Z2IA6WAR,3JJVG1YBEFD0DG3XMFER7V2IA7PB5J,8,7
163,2,object_02,object_01,1137.3000000119,3,1,365.30000001192,0.3333333333333333,1,object_08,5,2241,0,3,7,forest_1,1,memory-2step-stake-s,683,3534441,0.0-19.0-0.1-0.163,A2OO4PG3LBLP5I,3Q9SPIIRXM2ML6FVM0W2D0Z2IA6WAR,3JJVG1YBEFD0DG3XMFER7V2IA7PB5J,3,4
164,4,object_10,object_06,759.69999998808,8,1,483.0,0.7777777777777778,2,object_04,5,2276,0,4,7,restaurant_1,1,memory-2step-stake-s,684,3542857,0.0-19.0-0.1-0.164,A2OO4PG3LBLP5I,3Q9SPIIRXM2ML6FVM0W2D0Z2IA6WAR,3JJVG1YBEFD0DG3XMFER7V2IA7PB5J,8,7
165,4,object_06,object_10,579.30000001192,7,1,434.5,0.4444444444444444,1,object_08,1,2280,0,4,7,restaurant_2,1,memory-2step-stake-s,685,3550924,0.0-19.0-0.1-0.165,A2OO4PG3LBLP5I,3Q9SPIIRXM2ML6FVM0W2D0Z2IA6WAR,3JJVG1YBEFD0DG3XMFER7V2IA7PB5J,7,8
166,1,object_07,object_03,631.89999997616,1,2,437.80000001192,0.4444444444444444,1,object_08,5,2300,0,4,6,desert_3,1,memory-2step-stake-s,686,3559001,0.0-19.0-0.1-0.166,A2OO4PG3LBLP5I,3Q9SPIIRXM2ML6FVM0W2D0Z2IA6WAR,3JJVG1YBEFD0DG3XMFER7V2IA7PB5J,2,1
167,2,object_01,object_02,836.79999998212,4,1,401.60000002384,0.6666666666666666,2,object_04,1,2306,0,6,6,forest_2,1,memory-2step-stake-s,687,3567238,0.0-19.0-0.1-0.167,A2OO4PG3LBLP5I,3Q9SPIIRXM2ML6FVM0W2D0Z2IA6WAR,3JJVG1YBEFD0DG3XMFER7V2IA7PB5J,4,3
168,1,object_07,object_03,834.90000000596,1,2,1074.5,0.7777777777777778,1,object_08,1,2313,0,7,6,desert_5,1,memory-2step-stake-s,688,3576252,0.0-19.0-0.1-0.168,A2OO4PG3LBLP5I,3Q9SPIIRXM2ML6FVM0W2D0Z2IA6WAR,3JJVG1YBEFD0DG3XMFER7V2IA7PB5J,2,1
169,1,object_07,object_03,664.0,2,1,412.90000000596,0.4444444444444444,2,object_04,1,2317,0,6,4,desert_6,1,memory-2step-stake-s,689,3584318,0.0-19.0-0.1-0.169,A2OO4PG3LBLP5I,3Q9SPIIRXM2ML6FVM0W2D0Z2IA6WAR,3JJVG1YBEFD0DG3XMFER7V2IA7PB5J,2,1
170,2,object_01,object_02,656.19999998808,3,2,829.60000002384,0.6666666666666666,1,object_08,1,2323,0,6,2,forest_1,1,memory-2step-stake-s,690,3592978,0.0-19.0-0.1-0.170,A2OO4PG3LBLP5I,3Q9SPIIRXM2ML6FVM0W2D0Z2IA6WAR,3JJVG1YBEFD0DG3XMFER7V2IA7PB5J,4,3
171,1,object_07,object_03,546.59999999404,1,2,364.19999998808,0.7777777777777778,1,object_08,1,2330,0,7,1,desert_5,1,memory-2step-stake-s,691,3601268,0.0-19.0-0.1-0.171,A2OO4PG3LBLP5I,3Q9SPIIRXM2ML6FVM0W2D0Z2IA6WAR,3JJVG1YBEFD0DG3XMFER7V2IA7PB5J,2,1
172,4,object_10,object_06,920.29999998212,8,1,557.5,0.2222222222222222,2,object_04,5,2340,0,6,2,restaurant_6,1,memory-2step-stake-s,692,3609243,0.0-19.0-0.1-0.172,A2OO4PG3LBLP5I,3Q9SPIIRXM2ML6FVM0W2D0Z2IA6WAR,3JJVG1YBEFD0DG3XMFER7V2IA7PB5J,8,7
173,1,object_03,object_07,730.5,1,1,794.30000001192,0.6666666666666666,1,object_08,1,2346,0,6,3,desert_1,1,memory-2step-stake-s,693,3617858,0.0-19.0-0.1-0.173,A2OO4PG3LBLP5I,3Q9SPIIRXM2ML6FVM0W2D0Z2IA6WAR,3JJVG1YBEFD0DG3XMFER7V2IA7PB5J,1,2
174,3,object_05,object_09,822.80000001192,6,2,396.40000000596,0.4444444444444444,2,object_04,5,2366,0,7,4,library_7,1,memory-2step-stake-s,694,3625870,0.0-19.0-0.1-0.174,A2OO4PG3LBLP5I,3Q9SPIIRXM2ML6FVM0W2D0Z2IA6WAR,3JJVG1YBEFD0DG3XMFER7V2IA7PB5J,5,6
175,1,object_03,object_07,550.40000000596,1,1,592.39999997616,0.8888888888888888,1,object_08,1,2374,0,8,6,desert_3,1,memory-2step-stake-s,695,3634487,0.0-19.0-0.1-0.175,A2OO4PG3LBLP5I,3Q9SPIIRXM2ML6FVM0W2D0Z2IA6WAR,3JJVG1YBEFD0DG3XMFER7V2IA7PB5J,1,2
176,3,object_05,object_09,597.80000001192,6,2,479.40000000596,0.5555555555555556,2,object_04,5,2399,0,8,5,library_1,1,memory-2step-stake-s,696,3642689,0.0-19.0-0.1-0.176,A2OO4PG3LBLP5I,3Q9SPIIRXM2ML6FVM0W2D0Z2IA6WAR,3JJVG1YBEFD0DG3XMFER7V2IA7PB5J,5,6
177,4,object_10,object_06,584.09999999404,8,1,606.59999999404,0.5555555555555556,2,object_04,5,2424,0,3,5,restaurant_1,1,memory-2step-stake-s,697,3651015,0.0-19.0-0.1-0.177,A2OO4PG3LBLP5I,3Q9SPIIRXM2ML6FVM0W2D0Z2IA6WAR,3JJVG1YBEFD0DG3XMFER7V2IA7PB5J,8,7
178,4,object_10,object_06,607.09999999404,8,1,380.19999998808,0.6666666666666666,2,object_04,1,2430,0,3,6,restaurant_5,1,memory-2step-stake-s,698,3659221,0.0-19.0-0.1-0.178,A2OO4PG3LBLP5I,3Q9SPIIRXM2ML6FVM0W2D0Z2IA6WAR,3JJVG1YBEFD0DG3XMFER7V2IA7PB5J,8,7
179,4,object_10,object_06,457.5,7,2,1190.400000006,0.5555555555555556,1,object_08,5,2455,0,5,8,restaurant_6,1,memory-2step-stake-s,699,3668132,0.0-19.0-0.1-0.179,A2OO4PG3LBLP5I,3Q9SPIIRXM2ML6FVM0W2D0Z2IA6WAR,3JJVG1YBEFD0DG3XMFER7V2IA7PB5J,8,7
180,4,object_06,object_10,613.19999998808,7,1,522.40000000596,0.4444444444444444,1,object_08,5,2475,0,4,5,restaurant_2,1,memory-2step-stake-s,700,3676271,0.0-19.0-0.1-0.180,A2OO4PG3LBLP5I,3Q9SPIIRXM2ML6FVM0W2D0Z2IA6WAR,3JJVG1YBEFD0DG3XMFER7V2IA7PB5J,7,8
181,1,object_07,object_03,685.5,1,2,480.59999999404,0.3333333333333333,1,object_08,1,2478,0,3,2,desert_6,1,memory-2step-stake-s,701,3684267,0.0-19.0-0.1-0.181,A2OO4PG3LBLP5I,3Q9SPIIRXM2ML6FVM0W2D0Z2IA6WAR,3JJVG1YBEFD0DG3XMFER7V2IA7PB5J,2,1
182,3,object_05,object_09,587.09999999404,5,1,308.0,0.1111111111111111,1,object_08,5,2483,0,1,2,library_1,1,memory-2step-stake-s,702,3691920,0.0-19.0-0.1-0.182,A2OO4PG3LBLP5I,3Q9SPIIRXM2ML6FVM0W2D0Z2IA6WAR,3JJVG1YBEFD0DG3XMFER7V2IA7PB5J,5,6
183,1,object_07,object_03,516.0,1,2,401.09999999404,0.0,1,object_08,5,2483,0,0,4,desert_6,1,memory-2step-stake-s,703,3699536,0.0-19.0-0.1-0.183,A2OO4PG3LBLP5I,3Q9SPIIRXM2ML6FVM0W2D0Z2IA6WAR,3JJVG1YBEFD0DG3XMFER7V2IA7PB5J,2,1
184,1,object_03,object_07,440.0,1,1,480.70000001788,0.1111111111111111,1,object_08,1,2484,0,1,4,desert_5,1,memory-2step-stake-s,704,3707333,0.0-19.0-0.1-0.184,A2OO4PG3LBLP5I,3Q9SPIIRXM2ML6FVM0W2D0Z2IA6WAR,3JJVG1YBEFD0DG3XMFER7V2IA7PB5J,1,2
185,4,object_06,object_10,583.0,8,2,466.10000002384,0.8888888888888888,2,object_04,5,2524,0,1,8,restaurant_5,1,memory-2step-stake-s,705,3715824,0.0-19.0-0.1-0.185,A2OO4PG3LBLP5I,3Q9SPIIRXM2ML6FVM0W2D0Z2IA6WAR,3JJVG1YBEFD0DG3XMFER7V2IA7PB5J,7,8
186,4,object_06,object_10,308.09999999404,7,1,614.79999998212,0.7777777777777778,1,object_08,5,2559,0,7,7,restaurant_2,1,memory-2step-stake-s,706,3726584,0.0-19.0-0.1-0.186,A2OO4PG3LBLP5I,3Q9SPIIRXM2ML6FVM0W2D0Z2IA6WAR,3JJVG1YBEFD0DG3XMFER7V2IA7PB5J,7,8
187,4,object_10,object_06,1044.400000006,8,1,-1.0,0.0,2,object_04,5,2559,0,9,7,restaurant_1,1,memory-2step-stake-s,707,3735099,0.0-19.0-0.1-0.187,A2OO4PG3LBLP5I,3Q9SPIIRXM2ML6FVM0W2D0Z2IA6WAR,3JJVG1YBEFD0DG3XMFER7V2IA7PB5J,8,7
188,3,object_09,object_05,516.09999999404,5,2,63.59999999404,0.6666666666666666,1,object_08,5,2589,0,6,7,library_1,1,memory-2step-stake-s,708,3742986,0.0-19.0-0.1-0.188,A2OO4PG3LBLP5I,3Q9SPIIRXM2ML6FVM0W2D0Z2IA6WAR,3JJVG1YBEFD0DG3XMFER7V2IA7PB5J,6,5
189,3,object_09,object_05,659.90000000596,5,2,792.19999998808,0.4444444444444444,1,object_08,5,2609,0,4,5,library_1,1,memory-2step-stake-s,709,3751403,0.0-19.0-0.1-0.189,A2OO4PG3LBLP5I,3Q9SPIIRXM2ML6FVM0W2D0Z2IA6WAR,3JJVG1YBEFD0DG3XMFER7V2IA7PB5J,6,5
190,2,object_02,object_01,1200.5,3,1,431.59999999404,0.4444444444444444,1,object_08,1,2613,0,4,4,forest_4,1,memory-2step-stake-s,710,3759453,0.0-19.0-0.1-0.190,A2OO4PG3LBLP5I,3Q9SPIIRXM2ML6FVM0W2D0Z2IA6WAR,3JJVG1YBEFD0DG3XMFER7V2IA7PB5J,3,4
191,4,object_10,object_06,958.20000001788,8,1,551.20000001788,0.4444444444444444,2,object_04,5,2633,0,5,4,restaurant_5,1,memory-2step-stake-s,711,3767620,0.0-19.0-0.1-0.191,A2OO4PG3LBLP5I,3Q9SPIIRXM2ML6FVM0W2D0Z2IA6WAR,3JJVG1YBEFD0DG3XMFER7V2IA7PB5J,8,7
192,1,object_03,object_07,642.90000000596,1,1,457.89999997616,0.2222222222222222,1,object_08,1,2635,0,2,5,desert_6,1,memory-2step-stake-s,712,3775497,0.0-19.0-0.1-0.192,A2OO4PG3LBLP5I,3Q9SPIIRXM2ML6FVM0W2D0Z2IA6WAR,3JJVG1YBEFD0DG3XMFER7V2IA7PB5J,1,2
193,3,object_05,object_09,841.39999997616,5,1,659.20000001788,0.3333333333333333,1,object_08,5,2650,0,3,6,library_7,1,memory-2step-stake-s,713,3783675,0.0-19.0-0.1-0.193,A2OO4PG3LBLP5I,3Q9SPIIRXM2ML6FVM0W2D0Z2IA6WAR,3JJVG1YBEFD0DG3XMFER7V2IA7PB5J,5,6
194,3,object_09,object_05,608.0,5,2,446.09999999404,0.3333333333333333,1,object_08,5,2665,0,3,6,library_6,1,memory-2step-stake-s,714,3791642,0.0-19.0-0.1-0.194,A2OO4PG3LBLP5I,3Q9SPIIRXM2ML6FVM0W2D0Z2IA6WAR,3JJVG1YBEFD0DG3XMFER7V2IA7PB5J,6,5
195,4,object_06,object_10,466.30000001192,7,1,282.30000001192,0.4444444444444444,1,object_08,5,2685,0,4,9,restaurant_2,1,memory-2step-stake-s,715,3799550,0.0-19.0-0.1-0.195,A2OO4PG3LBLP5I,3Q9SPIIRXM2ML6FVM0W2D0Z2IA6WAR,3JJVG1YBEFD0DG3XMFER7V2IA7PB5J,7,8
196,2,object_01,object_02,686.30000001192,4,1,410.90000000596,0.8888888888888888,2,object_04,1,2693,0,1,8,forest_4,1,memory-2step-stake-s,716,3807986,0.0-19.0-0.1-0.196,A2OO4PG3LBLP5I,3Q9SPIIRXM2ML6FVM0W2D0Z2IA6WAR,3JJVG1YBEFD0DG3XMFER7V2IA7PB5J,4,3
197,2,object_02,object_01,932.69999998808,3,1,458.39999997616,0.2222222222222222,1,object_08,5,2703,0,2,5,forest_5,1,memory-2step-stake-s,717,3815864,0.0-19.0-0.1-0.197,A2OO4PG3LBLP5I,3Q9SPIIRXM2ML6FVM0W2D0Z2IA6WAR,3JJVG1YBEFD0DG3XMFER7V2IA7PB5J,3,4
198,3,object_05,object_09,593.19999998808,6,2,546.29999998212,0.2222222222222222,2,object_04,5,2713,0,4,2,library_1,1,memory-2step-stake-s,718,3823829,0.0-19.0-0.1-0.198,A2OO4PG3LBLP5I,3Q9SPIIRXM2ML6FVM0W2D0Z2IA6WAR,3JJVG1YBEFD0DG3XMFER7V2IA7PB5J,5,6
199,3,object_09,object_05,638.20000001788,6,1,386.5,0.6666666666666666,2,object_04,1,2719,0,5,6,library_7,1,memory-2step-stake-s,719,3832039,0.0-19.0-0.1-0.199,A2OO4PG3LBLP5I,3Q9SPIIRXM2ML6FVM0W2D0Z2IA6WAR,3JJVG1YBEFD0DG3XMFER7V2IA7PB5J,6,5
200,2,object_01,object_02,639.80000001192,4,1,459.0,0.6666666666666666,2,object_04,1,2725,0,5,6,forest_2,1,memory-2step-stake-s,720,3840325,0.0-19.0-0.1-0.200,A2OO4PG3LBLP5I,3Q9SPIIRXM2ML6FVM0W2D0Z2IA6WAR,3JJVG1YBEFD0DG3XMFER7V2IA7PB5J,4,3
201,2,object_02,object_01,387.70000001788,3,1,362.09999999404,0.6666666666666666,1,object_08,1,2731,0,6,6,forest_2,1,memory-2step-stake-s,721,3848512,0.0-19.0-0.1-0.201,A2OO4PG3LBLP5I,3Q9SPIIRXM2ML6FVM0W2D0Z2IA6WAR,3JJVG1YBEFD0DG3XMFER7V2IA7PB5J,3,4
202,2,object_01,object_02,593.69999998808,4,1,567.30000001192,0.6666666666666666,2,object_04,1,2737,0,4,6,forest_4,1,memory-2step-stake-s,722,3856906,0.0-19.0-0.1-0.202,A2OO4PG3LBLP5I,3Q9SPIIRXM2ML6FVM0W2D0Z2IA6WAR,3JJVG1YBEFD0DG3XMFER7V2IA7PB5J,4,3
203,3,object_09,object_05,545.5,6,1,-1.0,0.0,2,object_04,1,2737,0,4,6,library_5,1,memory-2step-stake-s,723,3865423,0.0-19.0-0.1-0.203,A2OO4PG3LBLP5I,3Q9SPIIRXM2ML6FVM0W2D0Z2IA6WAR,3JJVG1YBEFD0DG3XMFER7V2IA7PB5J,6,5
204,4,object_10,object_06,670.30000001192,8,1,305.5,0.6666666666666666,2,object_04,1,2743,0,8,6,restaurant_2,1,memory-2step-stake-s,724,3873555,0.0-19.0-0.1-0.204,A2OO4PG3LBLP5I,3Q9SPIIRXM2ML6FVM0W2D0Z2IA6WAR,3JJVG1YBEFD0DG3XMFER7V2IA7PB5J,8,7
205,2,object_01,object_02,640.5,4,1,611.20000001788,0.8888888888888888,2,object_04,5,2783,0,8,8,forest_4,1,memory-2step-stake-s,725,3882194,0.0-19.0-0.1-0.205,A2OO4PG3LBLP5I,3Q9SPIIRXM2ML6FVM0W2D0Z2IA6WAR,3JJVG1YBEFD0DG3XMFER7V2IA7PB5J,4,3
206,3,object_05,object_09,1044.5,5,1,-1.0,0.0,1,object_08,1,2783,0,6,9,library_1,1,memory-2step-stake-s,726,3890710,0.0-19.0-0.1-0.206,A2OO4PG3LBLP5I,3Q9SPIIRXM2ML6FVM0W2D0Z2IA6WAR,3JJVG1YBEFD0DG3XMFER7V2IA7PB5J,5,6
207,1,object_03,object_07,784.29999998212,1,1,1367.099999994,0.7777777777777778,1,object_08,1,2790,0,7,7,desert_5,1,memory-2step-stake-s,727,3900005,0.0-19.0-0.1-0.207,A2OO4PG3LBLP5I,3Q9SPIIRXM2ML6FVM0W2D0Z2IA6WAR,3JJVG1YBEFD0DG3XMFER7V2IA7PB5J,1,2
208,3,object_09,object_05,603.09999999404,5,2,691.40000000596,1.0,1,object_08,5,2835,0,9,8,library_5,1,memory-2step-stake-s,728,3908826,0.0-19.0-0.1-0.208,A2OO4PG3LBLP5I,3Q9SPIIRXM2ML6FVM0W2D0Z2IA6WAR,3JJVG1YBEFD0DG3XMFER7V2IA7PB5J,6,5
209,2,object_01,object_02,1254.6999999881,3,2,1046.3999999762,1.0,1,object_08,1,2844,0,9,7,forest_1,1,memory-2step-stake-s,729,3918004,0.0-19.0-0.1-0.209,A2OO4PG3LBLP5I,3Q9SPIIRXM2ML6FVM0W2D0Z2IA6WAR,3JJVG1YBEFD0DG3XMFER7V2IA7PB5J,4,3
210,4,object_06,object_10,869.80000001192,7,1,528.0,1.0,1,object_08,5,2889,0,9,4,restaurant_6,1,memory-2step-stake-s,730,3926667,0.0-19.0-0.1-0.210,A2OO4PG3LBLP5I,3Q9SPIIRXM2ML6FVM0W2D0Z2IA6WAR,3JJVG1YBEFD0DG3XMFER7V2IA7PB5J,7,8
211,2,object_02,object_01,738.19999998808,4,2,511.79999998212,0.5555555555555556,2,object_04,5,2914,0,7,5,forest_4,1,memory-2step-stake-s,731,3934905,0.0-19.0-0.1-0.211,A2OO4PG3LBLP5I,3Q9SPIIRXM2ML6FVM0W2D0Z2IA6WAR,3JJVG1YBEFD0DG3XMFER7V2IA7PB5J,3,4
212,4,object_06,object_10,667.90000000596,7,1,439.09999999404,0.6666666666666666,1,object_08,5,2944,0,6,7,restaurant_6,1,memory-2step-stake-s,732,3943171,0.0-19.0-0.1-0.212,A2OO4PG3LBLP5I,3Q9SPIIRXM2ML6FVM0W2D0Z2IA6WAR,3JJVG1YBEFD0DG3XMFER7V2IA7PB5J,7,8
213,3,object_09,object_05,706.30000001192,5,2,681.0,0.3333333333333333,1,object_08,5,2959,0,3,6,library_1,1,memory-2step-stake-s,733,3951377,0.0-19.0-0.1-0.213,A2OO4PG3LBLP5I,3Q9SPIIRXM2ML6FVM0W2D0Z2IA6WAR,3JJVG1YBEFD0DG3XMFER7V2IA7PB5J,6,5
214,2,object_01,object_02,733.39999997616,4,1,842.59999999404,0.6666666666666666,2,object_04,5,2989,0,4,6,forest_5,1,memory-2step-stake-s,734,3960112,0.0-19.0-0.1-0.214,A2OO4PG3LBLP5I,3Q9SPIIRXM2ML6FVM0W2D0Z2IA6WAR,3JJVG1YBEFD0DG3XMFER7V2IA7PB5J,4,3
215,1,object_03,object_07,723.5,2,2,-1.0,0.0,2,object_04,1,2989,0,4,6,desert_6,1,memory-2step-stake-s,735,3968640,0.0-19.0-0.1-0.215,A2OO4PG3LBLP5I,3Q9SPIIRXM2ML6FVM0W2D0Z2IA6WAR,3JJVG1YBEFD0DG3XMFER7V2IA7PB5J,1,2
216,1,object_03,object_07,593.20000001788,1,1,430.70000001788,0.4444444444444444,1,object_08,5,3009,0,4,7,desert_6,1,memory-2step-stake-s,736,3977630,0.0-19.0-0.1-0.216,A2OO4PG3LBLP5I,3Q9SPIIRXM2ML6FVM0W2D0Z2IA6WAR,3JJVG1YBEFD0DG3XMFER7V2IA7PB5J,1,2
217,3,object_05,object_09,308.30000001192,5,1,462.80000001192,0.3333333333333333,1,object_08,5,3024,0,3,5,library_5,1,memory-2step-stake-s,737,3988691,0.0-19.0-0.1-0.217,A2OO4PG3LBLP5I,3Q9SPIIRXM2ML6FVM0W2D0Z2IA6WAR,3JJVG1YBEFD0DG3XMFER7V2IA7PB5J,5,6
218,1,object_03,object_07,657.79999998212,1,1,587.40000000596,0.1111111111111111,1,object_08,1,3025,0,1,4,desert_1,1,memory-2step-stake-s,738,3996595,0.0-19.0-0.1-0.218,A2OO4PG3LBLP5I,3Q9SPIIRXM2ML6FVM0W2D0Z2IA6WAR,3JJVG1YBEFD0DG3XMFER7V2IA7PB5J,1,2
219,1,object_07,object_03,946.79999998212,1,2,1075.8000000119,0.2222222222222222,1,object_08,5,3035,0,2,1,desert_6,1,memory-2step-stake-s,739,4005088,0.0-19.0-0.1-0.219,A2OO4PG3LBLP5I,3Q9SPIIRXM2ML6FVM0W2D0Z2IA6WAR,3JJVG1YBEFD0DG3XMFER7V2IA7PB5J,2,1
220,3,object_05,object_09,594.29999998212,5,1,411.09999999404,0.5555555555555556,1,object_08,5,3060,0,5,1,library_7,1,memory-2step-stake-s,740,4013223,0.0-19.0-0.1-0.220,A2OO4PG3LBLP5I,3Q9SPIIRXM2ML6FVM0W2D0Z2IA6WAR,3JJVG1YBEFD0DG3XMFER7V2IA7PB5J,5,6
221,3,object_09,object_05,555.0,6,1,348.59999999404,0.3333333333333333,2,object_04,1,3063,0,5,3,library_7,1,memory-2step-stake-s,741,4021097,0.0-19.0-0.1-0.221,A2OO4PG3LBLP5I,3Q9SPIIRXM2ML6FVM0W2D0Z2IA6WAR,3JJVG1YBEFD0DG3XMFER7V2IA7PB5J,6,5
222,3,object_09,object_05,607.40000000596,5,2,-1.0,0.0,1,object_08,1,3063,0,3,3,library_7,1,memory-2step-stake-s,742,4029611,0.0-19.0-0.1-0.222,A2OO4PG3LBLP5I,3Q9SPIIRXM2ML6FVM0W2D0Z2IA6WAR,3JJVG1YBEFD0DG3XMFER7V2IA7PB5J,6,5
223,2,object_01,object_02,803.09999999404,4,1,684.40000000596,0.2222222222222222,2,object_04,5,3073,0,4,2,forest_4,1,memory-2step-stake-s,743,4037714,0.0-19.0-0.1-0.223,A2OO4PG3LBLP5I,3Q9SPIIRXM2ML6FVM0W2D0Z2IA6WAR,3JJVG1YBEFD0DG3XMFER7V2IA7PB5J,4,3
224,1,object_03,object_07,842.80000001192,2,2,433.09999999404,0.1111111111111111,2,object_04,5,3078,0,0,1,desert_3,1,memory-2step-stake-s,744,4045463,0.0-19.0-0.1-0.224,A2OO4PG3LBLP5I,3Q9SPIIRXM2ML6FVM0W2D0Z2IA6WAR,3JJVG1YBEFD0DG3XMFER7V2IA7PB5J,1,2
225,4,object_06,object_10,655.5,7,1,404.0,0.1111111111111111,1,object_08,5,3083,0,1,1,restaurant_5,1,memory-2step-stake-s,745,4053196,0.0-19.0-0.1-0.225,A2OO4PG3LBLP5I,3Q9SPIIRXM2ML6FVM0W2D0Z2IA6WAR,3JJVG1YBEFD0DG3XMFER7V2IA7PB5J,7,8
226,3,object_05,object_09,639.59999999404,6,2,321.79999998212,0.1111111111111111,2,object_04,1,3084,0,2,1,library_1,1,memory-2step-stake-s,746,4060832,0.0-19.0-0.1-0.226,A2OO4PG3LBLP5I,3Q9SPIIRXM2ML6FVM0W2D0Z2IA6WAR,3JJVG1YBEFD0DG3XMFER7V2IA7PB5J,5,6
227,2,object_02,object_01,926.40000000596,3,1,380.5,0.2222222222222222,1,object_08,1,3086,0,2,0,forest_1,1,memory-2step-stake-s,747,4068631,0.0-19.0-0.1-0.227,A2OO4PG3LBLP5I,3Q9SPIIRXM2ML6FVM0W2D0Z2IA6WAR,3JJVG1YBEFD0DG3XMFER7V2IA7PB5J,3,4
228,2,object_01,object_02,686.09999999404,4,1,411.19999998808,0.1111111111111111,2,object_04,1,3087,0,0,1,forest_1,1,memory-2step-stake-s,748,4076359,0.0-19.0-0.1-0.228,A2OO4PG3LBLP5I,3Q9SPIIRXM2ML6FVM0W2D0Z2IA6WAR,3JJVG1YBEFD0DG3XMFER7V2IA7PB5J,4,3
229,1,object_03,object_07,923.79999998212,1,1,423.09999999404,0.3333333333333333,1,object_08,1,3090,0,3,0,desert_3,1,memory-2step-stake-s,749,4084301,0.0-19.0-0.1-0.229,A2OO4PG3LBLP5I,3Q9SPIIRXM2ML6FVM0W2D0Z2IA6WAR,3JJVG1YBEFD0DG3XMFER7V2IA7PB5J,1,2
230,3,object_09,object_05,651.20000001788,5,2,468.69999998808,0.6666666666666666,1,object_08,5,3120,0,6,2,library_1,1,memory-2step-stake-s,750,4092596,0.0-19.0-0.1-0.230,A2OO4PG3LBLP5I,3Q9SPIIRXM2ML6FVM0W2D0Z2IA6WAR,3JJVG1YBEFD0DG3XMFER7V2IA7PB5J,6,5
231,2,object_01,object_02,682.19999998808,4,1,385.0,0.1111111111111111,2,object_04,1,3121,0,7,1,forest_5,1,memory-2step-stake-s,751,4100316,0.0-19.0-0.1-0.231,A2OO4PG3LBLP5I,3Q9SPIIRXM2ML6FVM0W2D0Z2IA6WAR,3JJVG1YBEFD0DG3XMFER7V2IA7PB5J,4,3
232,1,object_03,object_07,725.30000001192,2,2,587.5,0.1111111111111111,2,object_04,1,3122,0,8,1,desert_5,1,memory-2step-stake-s,752,4108218,0.0-19.0-0.1-0.232,A2OO4PG3LBLP5I,3Q9SPIIRXM2ML6FVM0W2D0Z2IA6WAR,3JJVG1YBEFD0DG3XMFER7V2IA7PB5J,1,2
233,4,object_06,object_10,586.09999999404,7,1,629.60000002384,0.8888888888888888,1,object_08,1,3130,0,8,1,restaurant_1,1,memory-2step-stake-s,753,4116874,0.0-19.0-0.1-0.233,A2OO4PG3LBLP5I,3Q9SPIIRXM2ML6FVM0W2D0Z2IA6WAR,3JJVG1YBEFD0DG3XMFER7V2IA7PB5J,7,8
234,1,object_07,object_03,884.20000001788,1,2,497.5,0.7777777777777778,1,object_08,1,3137,0,7,1,desert_1,1,memory-2step-stake-s,754,4125296,0.0-19.0-0.1-0.234,A2OO4PG3LBLP5I,3Q9SPIIRXM2ML6FVM0W2D0Z2IA6WAR,3JJVG1YBEFD0DG3XMFER7V2IA7PB5J,2,1
235,3,object_09,object_05,871.79999998212,6,1,328.0,0.1111111111111111,2,object_04,5,3142,0,9,1,library_5,1,memory-2step-stake-s,755,4132948,0.0-19.0-0.1-0.235,A2OO4PG3LBLP5I,3Q9SPIIRXM2ML6FVM0W2D0Z2IA6WAR,3JJVG1YBEFD0DG3XMFER7V2IA7PB5J,6,5
236,1,object_03,object_07,1079.8000000119,1,1,397.90000000596,0.8888888888888888,1,object_08,1,3150,0,8,2,desert_5,1,memory-2step-stake-s,756,4141374,0.0-19.0-0.1-0.236,A2OO4PG3LBLP5I,3Q9SPIIRXM2ML6FVM0W2D0Z2IA6WAR,3JJVG1YBEFD0DG3XMFER7V2IA7PB5J,1,2
237,4,object_06,object_10,1023.3000000119,8,2,403.69999998808,0.2222222222222222,2,object_04,1,3152,0,9,2,restaurant_5,1,memory-2step-stake-s,757,4149206,0.0-19.0-0.1-0.237,A2OO4PG3LBLP5I,3Q9SPIIRXM2ML6FVM0W2D0Z2IA6WAR,3JJVG1YBEFD0DG3XMFER7V2IA7PB5J,7,8
238,3,object_05,object_09,928.79999998212,5,1,384.09999999404,0.8888888888888888,1,object_08,5,3192,0,8,3,library_1,1,memory-2step-stake-s,758,4157619,0.0-19.0-0.1-0.238,A2OO4PG3LBLP5I,3Q9SPIIRXM2ML6FVM0W2D0Z2IA6WAR,3JJVG1YBEFD0DG3XMFER7V2IA7PB5J,5,6
239,2,object_02,object_01,881.40000000596,3,1,383.79999998212,0.7777777777777778,1,object_08,1,3199,0,7,6,forest_2,1,memory-2step-stake-s,759,4165944,0.0-19.0-0.1-0.239,A2OO4PG3LBLP5I,3Q9SPIIRXM2ML6FVM0W2D0Z2IA6WAR,3JJVG1YBEFD0DG3XMFER7V2IA7PB5J,3,4
240,2,object_02,object_01,709.69999998808,3,1,364.80000001192,1.0,1,object_08,1,3208,0,9,9,forest_5,1,memory-2step-stake-s,760,4174439,0.0-19.0-0.1-0.240,A2OO4PG3LBLP5I,3Q9SPIIRXM2ML6FVM0W2D0Z2IA6WAR,3JJVG1YBEFD0DG3XMFER7V2IA7PB5J,3,4
241,1,object_03,object_07,807.09999999404,1,1,626.80000001192,1.0,1,object_08,1,3217,0,9,7,desert_3,1,memory-2step-stake-s,761,4183191,0.0-19.0-0.1-0.241,A2OO4PG3LBLP5I,3Q9SPIIRXM2ML6FVM0W2D0Z2IA6WAR,3JJVG1YBEFD0DG3XMFER7V2IA7PB5J,1,2
242,4,object_06,object_10,808.19999998808,7,1,355.39999997616,0.5555555555555556,1,object_08,5,3242,0,5,7,restaurant_2,1,memory-2step-stake-s,762,4191267,0.0-19.0-0.1-0.242,A2OO4PG3LBLP5I,3Q9SPIIRXM2ML6FVM0W2D0Z2IA6WAR,3JJVG1YBEFD0DG3XMFER7V2IA7PB5J,7,8
243,3,object_09,object_05,652.19999998808,5,2,333.59999999404,0.7777777777777778,1,object_08,5,3277,0,7,8,library_5,1,memory-2step-stake-s,763,4199524,0.0-19.0-0.1-0.243,A2OO4PG3LBLP5I,3Q9SPIIRXM2ML6FVM0W2D0Z2IA6WAR,3JJVG1YBEFD0DG3XMFER7V2IA7PB5J,6,5
244,3,object_09,object_05,607.80000001192,5,2,266.40000000596,0.8888888888888888,1,object_08,5,3317,0,8,6,library_6,1,memory-2step-stake-s,764,4207817,0.0-19.0-0.1-0.244,A2OO4PG3LBLP5I,3Q9SPIIRXM2ML6FVM0W2D0Z2IA6WAR,3JJVG1YBEFD0DG3XMFER7V2IA7PB5J,6,5
245,2,object_01,object_02,506.79999998212,3,2,748.5,1.0,1,object_08,1,3326,0,9,8,forest_2,1,memory-2step-stake-s,765,4216697,0.0-19.0-0.1-0.245,A2OO4PG3LBLP5I,3Q9SPIIRXM2ML6FVM0W2D0Z2IA6WAR,3JJVG1YBEFD0DG3XMFER7V2IA7PB5J,4,3
246,3,object_05,object_09,820.40000000596,6,2,550.59999999404,0.8888888888888888,2,object_04,5,3366,0,9,8,library_6,1,memory-2step-stake-s,766,4225282,0.0-19.0-0.1-0.246,A2OO4PG3LBLP5I,3Q9SPIIRXM2ML6FVM0W2D0Z2IA6WAR,3JJVG1YBEFD0DG3XMFER7V2IA7PB5J,5,6
247,2,object_02,object_01,837.19999998808,4,2,1351.5,0.6666666666666666,2,object_04,1,3372,0,9,6,forest_1,1,memory-2step-stake-s,767,4234456,0.0-19.0-0.1-0.247,A2OO4PG3LBLP5I,3Q9SPIIRXM2ML6FVM0W2D0Z2IA6WAR,3JJVG1YBEFD0DG3XMFER7V2IA7PB5J,3,4
248,4,object_10,object_06,753.70000001788,7,2,503.20000001788,0.7777777777777778,1,object_08,5,3407,0,7,8,restaurant_5,1,memory-2step-stake-s,768,4242885,0.0-19.0-0.1-0.248,A2OO4PG3LBLP5I,3Q9SPIIRXM2ML6FVM0W2D0Z2IA6WAR,3JJVG1YBEFD0DG3XMFER7V2IA7PB5J,8,7
249,2,object_02,object_01,625.69999998808,4,2,691.0,1.0,2,object_04,1,3416,0,7,9,forest_4,1,memory-2step-stake-s,769,4251705,0.0-19.0-0.1-0.249,A2OO4PG3LBLP5I,3Q9SPIIRXM2ML6FVM0W2D0Z2IA6WAR,3JJVG1YBEFD0DG3XMFER7V2IA7PB5J,3,4
250,2,object_02,object_01,582.30000001192,3,1,535.09999999404,0.7777777777777778,1,object_08,1,3423,0,7,8,forest_2,1,memory-2step-stake-s,770,4260164,0.0-19.0-0.1-0.250,A2OO4PG3LBLP5I,3Q9SPIIRXM2ML6FVM0W2D0Z2IA6WAR,3JJVG1YBEFD0DG3XMFER7V2IA7PB5J,3,4
251,1,object_07,object_03,495.0,1,2,422.19999998808,1.0,1,object_08,1,3432,0,9,9,desert_3,1,memory-2step-stake-s,771,4268717,0.0-19.0-0.1-0.251,A2OO4PG3LBLP5I,3Q9SPIIRXM2ML6FVM0W2D0Z2IA6WAR,3JJVG1YBEFD0DG3XMFER7V2IA7PB5J,2,1
252,3,object_09,object_05,534.80000001192,6,1,330.09999999404,0.8888888888888888,2,object_04,5,3472,0,8,8,library_5,1,memory-2step-stake-s,772,4277072,0.0-19.0-0.1-0.252,A2OO4PG3LBLP5I,3Q9SPIIRXM2ML6FVM0W2D0Z2IA6WAR,3JJVG1YBEFD0DG3XMFER7V2IA7PB5J,6,5
253,1,object_03,object_07,595.0,2,2,500.59999999404,0.8888888888888888,2,object_04,1,3480,0,8,8,desert_3,1,memory-2step-stake-s,773,4285599,0.0-19.0-0.1-0.253,A2OO4PG3LBLP5I,3Q9SPIIRXM2ML6FVM0W2D0Z2IA6WAR,3JJVG1YBEFD0DG3XMFER7V2IA7PB5J,1,2
254,4,object_06,object_10,415.19999998808,7,1,524.90000000596,0.6666666666666666,1,object_08,5,3510,0,6,6,restaurant_5,1,memory-2step-stake-s,774,4293945,0.0-19.0-0.1-0.254,A2OO4PG3LBLP5I,3Q9SPIIRXM2ML6FVM0W2D0Z2IA6WAR,3JJVG1YBEFD0DG3XMFER7V2IA7PB5J,7,8
255,4,object_10,object_06,707.70000001788,7,2,614.40000000596,0.5555555555555556,1,object_08,1,3515,0,5,6,restaurant_2,1,memory-2step-stake-s,775,4302288,0.0-19.0-0.1-0.255,A2OO4PG3LBLP5I,3Q9SPIIRXM2ML6FVM0W2D0Z2IA6WAR,3JJVG1YBEFD0DG3XMFER7V2IA7PB5J,8,7
