,state1,stim_left,stim_right,rt_1,choice1,response1,rt_2,points,state2,stim_state2,stake,score,practice,rews1,rews2,background,high_arm,trial_type,trial_index,time_elapsed,internal_node_id,subid,hitid,assignmentid,stim_left_num,stim_right_num
0,3,object_08,object_06,876.69999999925,5,1,1136.1999999993,0.1111111111111111,1,object_05,5,5,0,1,5,library_1,1,memory-2step-stake-s,489,790524,0.0-19.0-0.0-0.0,A1F2N0IPSNJF3R,3X2LT8FDIZY82IMGP2COH9T7SM78W0,3M0BCWMB8ZCUQZIHIG10XVFVU4UWBM,5,6
1,2,object_01,object_09,835.60000000149,4,2,1142.7000000011,0.6666666666666666,2,object_03,1,11,0,3,6,forest_6,1,memory-2step-stake-s,490,799485,0.0-19.0-0.0-0.1,A1F2N0IPSNJF3R,3X2LT8FDIZY82IMGP2COH9T7SM78W0,3M0BCWMB8ZCUQZIHIG10XVFVU4UWBM,3,4
2,1,object_10,object_07,792.80000000075,2,1,604.5,0.6666666666666666,2,object_03,1,17,0,4,6,desert_6,1,memory-2step-stake-s,491,807909,0.0-19.0-0.0-0.2,A1F2N0IPSNJF3R,3X2LT8FDIZY82IMGP2COH9T7SM78W0,3M0BCWMB8ZCUQZIHIG10XVFVU4UWBM,2,1
3,1,object_07,object_10,1168.2999999989,2,2,1107.5999999996,0.7777777777777778,2,object_03,1,24,0,3,7,desert_7,1,memory-2step-stake-s,492,816938,0.0-19.0-0.0-0.3,A1F2N0IPSNJF3R,3X2LT8FDIZY82IMGP2COH9T7SM78W0,3M0BCWMB8ZCUQZIHIG10XVFVU4UWBM,1,2
4,2,object_09,object_01,408.10000000149,4,1,636.20000000112,0.8888888888888888,2,object_03,1,32,0,5,8,forest_3,1,memory-2step-stake-s,493,825604,0.0-19.0-0.0-0.4,A1F2N0IPSNJF3R,3X2LT8FDIZY82IMGP2COH9T7SM78W0,3M0BCWMB8ZCUQZIHIG10XVFVU4UWBM,4,3
5,4,object_04,object_02,458.40000000037,7,2,469.90000000037,0.5555555555555556,1,object_05,5,57,0,5,8,restaurant_3,1,memory-2step-stake-s,494,833793,0.0-19.0-0.0-0.5,A1F2N0IPSNJF3R,3X2LT8FDIZY82IMGP2COH9T7SM78W0,3M0BCWMB8ZCUQZIHIG10XVFVU4UWBM,8,7
6,2,object_01,object_09,924.0,3,1,511.19999999925,0.8888888888888888,1,object_05,5,97,0,8,6,forest_3,1,memory-2step-stake-s,495,842327,0.0-19.0-0.0-0.6,A1F2N0IPSNJF3R,3X2LT8FDIZY82IMGP2COH9T7SM78W0,3M0BCWMB8ZCUQZIHIG10XVFVU4UWBM,3,4
7,3,object_08,object_06,901.59999999963,5,1,488.70000000112,0.8888888888888888,1,object_05,5,137,0,8,8,library_6,1,memory-2step-stake-s,496,850765,0.0-19.0-0.0-0.7,A1F2N0IPSNJF3R,3X2LT8FDIZY82IMGP2COH9T7SM78W0,3M0BCWMB8ZCUQZIHIG10XVFVU4UWBM,5,6
8,1,object_07,object_10,1210.6999999993,1,1,374.19999999925,0.8888888888888888,1,object_05,1,145,0,8,8,desert_6,1,memory-2step-stake-s,497,859166,0.0-19.0-0.0-0.8,A1F2N0IPSNJF3R,3X2LT8FDIZY82IMGP2COH9T7SM78W0,3M0BCWMB8ZCUQZIHIG10XVFVU4UWBM,1,2
9,4,object_02,object_04,336.60000000149,8,2,555.69999999925,1.0,2,object_03,5,190,0,8,9,restaurant_6,1,memory-2step-stake-s,498,867847,0.0-19.0-0.0-0.9,A1F2N0IPSNJF3R,3X2LT8FDIZY82IMGP2COH9T7SM78W0,3M0BCWMB8ZCUQZIHIG10XVFVU4UWBM,7,8
10,2,object_09,object_01,901.80000000075,3,2,474.09999999963,0.5555555555555556,1,object_05,1,195,0,5,8,forest_7,1,memory-2step-stake-s,499,876046,0.0-19.0-0.0-0.10,A1F2N0IPSNJF3R,3X2LT8FDIZY82IMGP2COH9T7SM78W0,3M0BCWMB8ZCUQZIHIG10XVFVU4UWBM,4,3
11,1,object_07,object_10,-1.0,-1,-1,-1.0,0.0,-,0,1,195,0,0,7,desert_4,1,memory-2step-stake-s,500,882561,0.0-19.0-0.0-0.11,A1F2N0IPSNJF3R,3X2LT8FDIZY82IMGP2COH9T7SM78W0,3M0BCWMB8ZCUQZIHIG10XVFVU4UWBM,1,2
12,1,object_10,object_07,-1.0,-1,-1,-1.0,0.0,-,0,1,195,0,1,7,desert_7,1,memory-2step-stake-s,501,889077,0.0-19.0-0.0-0.12,A1F2N0IPSNJF3R,3X2LT8FDIZY82IMGP2COH9T7SM78W0,3M0BCWMB8ZCUQZIHIG10XVFVU4UWBM,2,1
13,3,object_08,object_06,504.59999999963,5,1,531.0,0.4444444444444444,1,object_05,5,215,0,4,4,library_8,1,memory-2step-stake-s,502,897228,0.0-19.0-0.0-0.13,A1F2N0IPSNJF3R,3X2LT8FDIZY82IMGP2COH9T7SM78W0,3M0BCWMB8ZCUQZIHIG10XVFVU4UWBM,5,6
14,1,object_07,object_10,676.09999999963,2,2,703.19999999925,0.0,2,object_03,1,215,0,2,0,desert_3,1,memory-2step-stake-s,503,905152,0.0-19.0-0.0-0.14,A1F2N0IPSNJF3R,3X2LT8FDIZY82IMGP2COH9T7SM78W0,3M0BCWMB8ZCUQZIHIG10XVFVU4UWBM,1,2
15,1,object_07,object_10,301.79999999888,1,1,579.09999999963,0.2222222222222222,1,object_05,1,217,0,2,1,desert_6,1,memory-2step-stake-s,504,913077,0.0-19.0-0.0-0.15,A1F2N0IPSNJF3R,3X2LT8FDIZY82IMGP2COH9T7SM78W0,3M0BCWMB8ZCUQZIHIG10XVFVU4UWBM,1,2
16,2,object_01,object_09,637.39999999851,4,2,672.40000000037,0.5555555555555556,2,object_03,5,242,0,7,5,forest_6,1,memory-2step-stake-s,505,921471,0.0-19.0-0.0-0.16,A1F2N0IPSNJF3R,3X2LT8FDIZY82IMGP2COH9T7SM78W0,3M0BCWMB8ZCUQZIHIG10XVFVU4UWBM,3,4
17,4,object_02,object_04,730.70000000112,7,1,533.5,0.7777777777777778,1,object_05,5,277,0,7,5,restaurant_6,1,memory-2step-stake-s,506,929925,0.0-19.0-0.0-0.17,A1F2N0IPSNJF3R,3X2LT8FDIZY82IMGP2COH9T7SM78W0,3M0BCWMB8ZCUQZIHIG10XVFVU4UWBM,7,8
18,1,object_07,object_10,1404.1999999993,2,2,566.69999999925,0.8888888888888888,2,object_03,5,317,0,8,8,desert_7,1,memory-2step-stake-s,507,938521,0.0-19.0-0.0-0.18,A1F2N0IPSNJF3R,3X2LT8FDIZY82IMGP2COH9T7SM78W0,3M0BCWMB8ZCUQZIHIG10XVFVU4UWBM,1,2
19,4,object_04,object_02,1081.1000000015,7,2,380.40000000037,1.0,1,object_05,5,362,0,9,8,restaurant_3,1,memory-2step-stake-s,508,947024,0.0-19.0-0.0-0.19,A1F2N0IPSNJF3R,3X2LT8FDIZY82IMGP2COH9T7SM78W0,3M0BCWMB8ZCUQZIHIG10XVFVU4UWBM,8,7
20,1,object_07,object_10,434.30000000075,1,1,420.69999999925,1.0,1,object_05,1,371,0,9,9,desert_4,1,memory-2step-stake-s,509,955581,0.0-19.0-0.0-0.20,A1F2N0IPSNJF3R,3X2LT8FDIZY82IMGP2COH9T7SM78W0,3M0BCWMB8ZCUQZIHIG10XVFVU4UWBM,1,2
21,1,object_10,object_07,987.19999999925,2,1,758.19999999925,0.8888888888888888,2,object_03,1,379,0,6,8,desert_4,1,memory-2step-stake-s,510,964363,0.0-19.0-0.0-0.21,A1F2N0IPSNJF3R,3X2LT8FDIZY82IMGP2COH9T7SM78W0,3M0BCWMB8ZCUQZIHIG10XVFVU4UWBM,2,1
22,4,object_02,object_04,683.70000000112,7,1,438.0,0.7777777777777778,1,object_05,5,414,0,7,6,restaurant_3,1,memory-2step-stake-s,511,972658,0.0-19.0-0.0-0.22,A1F2N0IPSNJF3R,3X2LT8FDIZY82IMGP2COH9T7SM78W0,3M0BCWMB8ZCUQZIHIG10XVFVU4UWBM,7,8
23,4,object_02,object_04,956.69999999925,8,2,527.19999999925,0.8888888888888888,2,object_03,5,454,0,6,8,restaurant_3,1,memory-2step-stake-s,512,981219,0.0-19.0-0.0-0.23,A1F2N0IPSNJF3R,3X2LT8FDIZY82IMGP2COH9T7SM78W0,3M0BCWMB8ZCUQZIHIG10XVFVU4UWBM,7,8
24,3,object_08,object_06,594.30000000075,6,2,404.69999999925,0.8888888888888888,2,object_03,5,494,0,7,8,library_1,1,memory-2step-stake-s,513,989651,0.0-19.0-0.0-0.24,A1F2N0IPSNJF3R,3X2LT8FDIZY82IMGP2COH9T7SM78W0,3M0BCWMB8ZCUQZIHIG10XVFVU4UWBM,5,6
25,4,object_04,object_02,256.90000000037,7,2,539.59999999963,0.4444444444444444,1,object_05,5,514,0,4,6,restaurant_1,1,memory-2step-stake-s,514,997809,0.0-19.0-0.0-0.25,A1F2N0IPSNJF3R,3X2LT8FDIZY82IMGP2COH9T7SM78W0,3M0BCWMB8ZCUQZIHIG10XVFVU4UWBM,8,7
26,3,object_08,object_06,238.40000000037,5,1,433.19999999925,0.3333333333333333,1,object_05,5,529,0,3,5,library_6,1,memory-2step-stake-s,515,1005769,0.0-19.0-0.0-0.26,A1F2N0IPSNJF3R,3X2LT8FDIZY82IMGP2COH9T7SM78W0,3M0BCWMB8ZCUQZIHIG10XVFVU4UWBM,5,6
27,2,object_09,object_01,316.29999999888,3,2,350.5,0.3333333333333333,1,object_05,1,532,0,3,4,forest_3,1,memory-2step-stake-s,516,1013641,0.0-19.0-0.0-0.27,A1F2N0IPSNJF3R,3X2LT8FDIZY82IMGP2COH9T7SM78W0,3M0BCWMB8ZCUQZIHIG10XVFVU4UWBM,4,3
28,3,object_06,object_08,266.40000000037,5,2,373.5,0.2222222222222222,1,object_05,5,542,0,2,1,library_1,1,memory-2step-stake-s,517,1021431,0.0-19.0-0.0-0.28,A1F2N0IPSNJF3R,3X2LT8FDIZY82IMGP2COH9T7SM78W0,3M0BCWMB8ZCUQZIHIG10XVFVU4UWBM,6,5
29,1,object_10,object_07,260.29999999888,2,1,446.5,0.1111111111111111,2,object_03,1,543,0,3,1,desert_3,1,memory-2step-stake-s,518,1029122,0.0-19.0-0.0-0.29,A1F2N0IPSNJF3R,3X2LT8FDIZY82IMGP2COH9T7SM78W0,3M0BCWMB8ZCUQZIHIG10XVFVU4UWBM,2,1
30,1,object_07,object_10,316.59999999963,1,1,439.5,0.1111111111111111,1,object_05,1,544,0,1,0,desert_3,1,memory-2step-stake-s,519,1036878,0.0-19.0-0.0-0.30,A1F2N0IPSNJF3R,3X2LT8FDIZY82IMGP2COH9T7SM78W0,3M0BCWMB8ZCUQZIHIG10XVFVU4UWBM,1,2
31,4,object_02,object_04,786.29999999888,8,2,492.5,0.0,2,object_03,5,544,0,3,0,restaurant_6,1,memory-2step-stake-s,520,1044585,0.0-19.0-0.0-0.31,A1F2N0IPSNJF3R,3X2LT8FDIZY82IMGP2COH9T7SM78W0,3M0BCWMB8ZCUQZIHIG10XVFVU4UWBM,7,8
32,1,object_07,object_10,246.70000000112,2,2,433.20000000112,0.1111111111111111,2,object_03,1,545,0,3,1,desert_4,1,memory-2step-stake-s,521,1052334,0.0-19.0-0.0-0.32,A1F2N0IPSNJF3R,3X2LT8FDIZY82IMGP2COH9T7SM78W0,3M0BCWMB8ZCUQZIHIG10XVFVU4UWBM,1,2
33,4,object_02,object_04,680.59999999963,8,2,410.69999999925,0.4444444444444444,2,object_03,5,565,0,2,4,restaurant_6,1,memory-2step-stake-s,522,1060365,0.0-19.0-0.0-0.33,A1F2N0IPSNJF3R,3X2LT8FDIZY82IMGP2COH9T7SM78W0,3M0BCWMB8ZCUQZIHIG10XVFVU4UWBM,7,8
34,1,object_10,object_07,289.80000000075,1,2,548.19999999925,0.1111111111111111,1,object_05,1,566,0,1,4,desert_4,1,memory-2step-stake-s,523,1068230,0.0-19.0-0.0-0.34,A1F2N0IPSNJF3R,3X2LT8FDIZY82IMGP2COH9T7SM78W0,3M0BCWMB8ZCUQZIHIG10XVFVU4UWBM,2,1
35,4,object_04,object_02,346.59999999963,8,1,477.30000000075,0.5555555555555556,2,object_03,5,591,0,1,5,restaurant_1,1,memory-2step-stake-s,524,1076426,0.0-19.0-0.0-0.35,A1F2N0IPSNJF3R,3X2LT8FDIZY82IMGP2COH9T7SM78W0,3M0BCWMB8ZCUQZIHIG10XVFVU4UWBM,8,7
36,2,object_01,object_09,908.89999999851,4,2,591.59999999963,0.8888888888888888,2,object_03,1,599,0,2,8,forest_4,1,memory-2step-stake-s,525,1085040,0.0-19.0-0.0-0.36,A1F2N0IPSNJF3R,3X2LT8FDIZY82IMGP2COH9T7SM78W0,3M0BCWMB8ZCUQZIHIG10XVFVU4UWBM,3,4
37,4,object_04,object_02,526.30000000075,8,1,752.59999999963,1.0,2,object_03,5,644,0,5,9,restaurant_6,1,memory-2step-stake-s,526,1093847,0.0-19.0-0.0-0.37,A1F2N0IPSNJF3R,3X2LT8FDIZY82IMGP2COH9T7SM78W0,3M0BCWMB8ZCUQZIHIG10XVFVU4UWBM,8,7
38,1,object_07,object_10,881.09999999963,2,2,-1.0,0.0,2,object_03,1,644,0,5,8,desert_6,1,memory-2step-stake-s,527,1102362,0.0-19.0-0.0-0.38,A1F2N0IPSNJF3R,3X2LT8FDIZY82IMGP2COH9T7SM78W0,3M0BCWMB8ZCUQZIHIG10XVFVU4UWBM,1,2
39,3,object_08,object_06,261.29999999888,5,1,344.19999999925,0.5555555555555556,1,object_05,5,669,0,5,7,library_8,1,memory-2step-stake-s,528,1110427,0.0-19.0-0.0-0.39,A1F2N0IPSNJF3R,3X2LT8FDIZY82IMGP2COH9T7SM78W0,3M0BCWMB8ZCUQZIHIG10XVFVU4UWBM,5,6
40,3,object_08,object_06,-1.0,-1,-1,-1.0,0.0,-,0,5,669,0,3,5,library_1,1,memory-2step-stake-s,529,1116937,0.0-19.0-0.0-0.40,A1F2N0IPSNJF3R,3X2LT8FDIZY82IMGP2COH9T7SM78W0,3M0BCWMB8ZCUQZIHIG10XVFVU4UWBM,5,6
41,4,object_02,object_04,310.79999999888,8,2,361.09999999963,0.5555555555555556,2,object_03,5,694,0,4,5,restaurant_1,1,memory-2step-stake-s,530,1125017,0.0-19.0-0.0-0.41,A1F2N0IPSNJF3R,3X2LT8FDIZY82IMGP2COH9T7SM78W0,3M0BCWMB8ZCUQZIHIG10XVFVU4UWBM,7,8
42,1,object_07,object_10,238.30000000075,1,1,576.5,0.5555555555555556,1,object_05,1,699,0,5,5,desert_3,1,memory-2step-stake-s,531,1133314,0.0-19.0-0.0-0.42,A1F2N0IPSNJF3R,3X2LT8FDIZY82IMGP2COH9T7SM78W0,3M0BCWMB8ZCUQZIHIG10XVFVU4UWBM,1,2
43,2,object_01,object_09,933.69999999925,3,1,728.40000000037,0.6666666666666666,1,object_05,1,705,0,6,3,forest_4,1,memory-2step-stake-s,532,1141867,0.0-19.0-0.0-0.43,A1F2N0IPSNJF3R,3X2LT8FDIZY82IMGP2COH9T7SM78W0,3M0BCWMB8ZCUQZIHIG10XVFVU4UWBM,3,4
44,3,object_08,object_06,540.09999999963,6,2,407.60000000149,0.4444444444444444,2,object_03,5,725,0,6,4,library_2,1,memory-2step-stake-s,533,1149821,0.0-19.0-0.0-0.44,A1F2N0IPSNJF3R,3X2LT8FDIZY82IMGP2COH9T7SM78W0,3M0BCWMB8ZCUQZIHIG10XVFVU4UWBM,5,6
45,4,object_04,object_02,-1.0,-1,-1,-1.0,0.0,-,0,5,725,0,4,4,restaurant_4,1,memory-2step-stake-s,534,1156329,0.0-19.0-0.0-0.45,A1F2N0IPSNJF3R,3X2LT8FDIZY82IMGP2COH9T7SM78W0,3M0BCWMB8ZCUQZIHIG10XVFVU4UWBM,8,7
46,1,object_07,object_10,94.199999999255,1,1,448.69999999925,0.6666666666666666,1,object_05,1,731,0,6,3,desert_4,1,memory-2step-stake-s,535,1164600,0.0-19.0-0.0-0.46,A1F2N0IPSNJF3R,3X2LT8FDIZY82IMGP2COH9T7SM78W0,3M0BCWMB8ZCUQZIHIG10XVFVU4UWBM,1,2
47,1,object_10,object_07,352.09999999963,2,1,530.20000000112,0.0,2,object_03,5,731,0,6,0,desert_4,1,memory-2step-stake-s,536,1172345,0.0-19.0-0.0-0.47,A1F2N0IPSNJF3R,3X2LT8FDIZY82IMGP2COH9T7SM78W0,3M0BCWMB8ZCUQZIHIG10XVFVU4UWBM,2,1
48,1,object_07,object_10,352.40000000037,1,1,579.09999999963,0.4444444444444444,1,object_05,1,735,0,4,2,desert_6,1,memory-2step-stake-s,537,1180559,0.0-19.0-0.0-0.48,A1F2N0IPSNJF3R,3X2LT8FDIZY82IMGP2COH9T7SM78W0,3M0BCWMB8ZCUQZIHIG10XVFVU4UWBM,1,2
49,2,object_09,object_01,704.30000000075,4,1,503.30000000075,0.4444444444444444,2,object_03,1,739,0,5,4,forest_3,1,memory-2step-stake-s,538,1188686,0.0-19.0-0.0-0.49,A1F2N0IPSNJF3R,3X2LT8FDIZY82IMGP2COH9T7SM78W0,3M0BCWMB8ZCUQZIHIG10XVFVU4UWBM,4,3
50,4,object_02,object_04,448.40000000037,7,1,914.30000000075,0.0,1,object_05,1,739,0,0,4,restaurant_1,1,memory-2step-stake-s,539,1196818,0.0-19.0-0.0-0.50,A1F2N0IPSNJF3R,3X2LT8FDIZY82IMGP2COH9T7SM78W0,3M0BCWMB8ZCUQZIHIG10XVFVU4UWBM,7,8
51,3,object_08,object_06,365.0,6,2,382.69999999925,0.5555555555555556,2,object_03,5,764,0,1,5,library_6,1,memory-2step-stake-s,540,1204924,0.0-19.0-0.0-0.51,A1F2N0IPSNJF3R,3X2LT8FDIZY82IMGP2COH9T7SM78W0,3M0BCWMB8ZCUQZIHIG10XVFVU4UWBM,5,6
52,2,object_01,object_09,395.90000000037,4,2,571.79999999888,0.1111111111111111,2,object_03,1,765,0,1,1,forest_7,1,memory-2step-stake-s,541,1212731,0.0-19.0-0.0-0.52,A1F2N0IPSNJF3R,3X2LT8FDIZY82IMGP2COH9T7SM78W0,3M0BCWMB8ZCUQZIHIG10XVFVU4UWBM,3,4
53,4,object_04,object_02,260.0,8,1,510.90000000037,0.0,2,object_03,5,765,0,3,0,restaurant_3,1,memory-2step-stake-s,542,1220463,0.0-19.0-0.0-0.53,A1F2N0IPSNJF3R,3X2LT8FDIZY82IMGP2COH9T7SM78W0,3M0BCWMB8ZCUQZIHIG10XVFVU4UWBM,8,7
54,1,object_07,object_10,61.900000000373,1,1,612.29999999888,0.3333333333333333,1,object_05,5,780,0,3,0,desert_3,1,memory-2step-stake-s,543,1228597,0.0-19.0-0.0-0.54,A1F2N0IPSNJF3R,3X2LT8FDIZY82IMGP2COH9T7SM78W0,3M0BCWMB8ZCUQZIHIG10XVFVU4UWBM,1,2
55,1,object_10,object_07,473.70000000112,1,2,492.79999999888,0.3333333333333333,1,object_05,1,783,0,3,2,desert_3,1,memory-2step-stake-s,544,1236603,0.0-19.0-0.0-0.55,A1F2N0IPSNJF3R,3X2LT8FDIZY82IMGP2COH9T7SM78W0,3M0BCWMB8ZCUQZIHIG10XVFVU4UWBM,2,1
56,4,object_02,object_04,628.0,7,1,919.59999999963,0.5555555555555556,1,object_05,5,808,0,5,1,restaurant_1,1,memory-2step-stake-s,545,1245240,0.0-19.0-0.0-0.56,A1F2N0IPSNJF3R,3X2LT8FDIZY82IMGP2COH9T7SM78W0,3M0BCWMB8ZCUQZIHIG10XVFVU4UWBM,7,8
57,1,object_10,object_07,549.5,2,1,567.69999999925,0.2222222222222222,2,object_03,1,810,0,7,2,desert_4,1,memory-2step-stake-s,546,1253225,0.0-19.0-0.0-0.57,A1F2N0IPSNJF3R,3X2LT8FDIZY82IMGP2COH9T7SM78W0,3M0BCWMB8ZCUQZIHIG10XVFVU4UWBM,2,1
58,1,object_10,object_07,792.20000000112,1,2,-1.0,0.0,1,object_05,5,810,0,8,4,desert_3,1,memory-2step-stake-s,547,1261740,0.0-19.0-0.0-0.58,A1F2N0IPSNJF3R,3X2LT8FDIZY82IMGP2COH9T7SM78W0,3M0BCWMB8ZCUQZIHIG10XVFVU4UWBM,2,1
59,2,object_01,object_09,818.5,3,1,406.30000000075,1.0,1,object_05,1,819,0,9,2,forest_7,1,memory-2step-stake-s,548,1270187,0.0-19.0-0.0-0.59,A1F2N0IPSNJF3R,3X2LT8FDIZY82IMGP2COH9T7SM78W0,3M0BCWMB8ZCUQZIHIG10XVFVU4UWBM,3,4
60,2,object_09,object_01,441.0,3,2,460.29999999888,0.8888888888888888,1,object_05,1,827,0,8,4,forest_6,1,memory-2step-stake-s,549,1278669,0.0-19.0-0.0-0.60,A1F2N0IPSNJF3R,3X2LT8FDIZY82IMGP2COH9T7SM78W0,3M0BCWMB8ZCUQZIHIG10XVFVU4UWBM,4,3
61,3,object_08,object_06,398.70000000112,6,2,456.90000000037,0.1111111111111111,2,object_03,5,832,0,9,1,library_6,1,memory-2step-stake-s,550,1286441,0.0-19.0-0.0-0.61,A1F2N0IPSNJF3R,3X2LT8FDIZY82IMGP2COH9T7SM78W0,3M0BCWMB8ZCUQZIHIG10XVFVU4UWBM,5,6
62,2,object_09,object_01,-1.0,-1,-1,-1.0,0.0,-,0,1,832,0,8,2,forest_3,1,memory-2step-stake-s,551,1292955,0.0-19.0-0.0-0.62,A1F2N0IPSNJF3R,3X2LT8FDIZY82IMGP2COH9T7SM78W0,3M0BCWMB8ZCUQZIHIG10XVFVU4UWBM,4,3
63,2,object_01,object_09,334.0,3,1,481.10000000149,0.8888888888888888,1,object_05,1,840,0,8,3,forest_3,1,memory-2step-stake-s,552,1301465,0.0-19.0-0.0-0.63,A1F2N0IPSNJF3R,3X2LT8FDIZY82IMGP2COH9T7SM78W0,3M0BCWMB8ZCUQZIHIG10XVFVU4UWBM,3,4
64,2,object_01,object_09,67.199999999255,4,2,639.90000000037,0.5555555555555556,2,object_03,1,845,0,6,5,forest_6,1,memory-2step-stake-s,553,1309824,0.0-19.0-0.0-0.64,A1F2N0IPSNJF3R,3X2LT8FDIZY82IMGP2COH9T7SM78W0,3M0BCWMB8ZCUQZIHIG10XVFVU4UWBM,3,4
65,4,object_04,object_02,483.90000000037,8,1,575.09999999963,0.4444444444444444,2,object_03,1,849,0,3,4,restaurant_4,1,memory-2step-stake-s,554,1318016,0.0-19.0-0.0-0.65,A1F2N0IPSNJF3R,3X2LT8FDIZY82IMGP2COH9T7SM78W0,3M0BCWMB8ZCUQZIHIG10XVFVU4UWBM,8,7
66,4,object_02,object_04,812.5,7,1,503.59999999963,0.3333333333333333,1,object_05,5,864,0,3,1,restaurant_6,1,memory-2step-stake-s,555,1326042,0.0-19.0-0.0-0.66,A1F2N0IPSNJF3R,3X2LT8FDIZY82IMGP2COH9T7SM78W0,3M0BCWMB8ZCUQZIHIG10XVFVU4UWBM,7,8
67,2,object_01,object_09,265.89999999851,4,2,1416.2000000011,0.1111111111111111,2,object_03,5,869,0,3,1,forest_3,1,memory-2step-stake-s,556,1334709,0.0-19.0-0.0-0.67,A1F2N0IPSNJF3R,3X2LT8FDIZY82IMGP2COH9T7SM78W0,3M0BCWMB8ZCUQZIHIG10XVFVU4UWBM,3,4
68,1,object_10,object_07,781.40000000037,2,1,568.59999999963,0.0,2,object_03,5,869,0,2,0,desert_4,1,memory-2step-stake-s,557,1342491,0.0-19.0-0.0-0.68,A1F2N0IPSNJF3R,3X2LT8FDIZY82IMGP2COH9T7SM78W0,3M0BCWMB8ZCUQZIHIG10XVFVU4UWBM,2,1
69,4,object_02,object_04,600.09999999963,8,2,628.20000000112,0.1111111111111111,2,object_03,5,874,0,1,1,restaurant_6,1,memory-2step-stake-s,558,1350431,0.0-19.0-0.0-0.69,A1F2N0IPSNJF3R,3X2LT8FDIZY82IMGP2COH9T7SM78W0,3M0BCWMB8ZCUQZIHIG10XVFVU4UWBM,7,8
70,3,object_06,object_08,627.39999999851,6,1,687.0,0.3333333333333333,2,object_03,5,889,0,0,3,library_8,1,memory-2step-stake-s,559,1358634,0.0-19.0-0.0-0.70,A1F2N0IPSNJF3R,3X2LT8FDIZY82IMGP2COH9T7SM78W0,3M0BCWMB8ZCUQZIHIG10XVFVU4UWBM,6,5
71,3,object_06,object_08,936.0,5,2,635.69999999925,0.1111111111111111,1,object_05,5,894,0,1,1,library_8,1,memory-2step-stake-s,560,1366588,0.0-19.0-0.0-0.71,A1F2N0IPSNJF3R,3X2LT8FDIZY82IMGP2COH9T7SM78W0,3M0BCWMB8ZCUQZIHIG10XVFVU4UWBM,6,5
72,4,object_04,object_02,510.69999999925,8,1,417.90000000037,0.2222222222222222,2,object_03,5,904,0,3,2,restaurant_1,1,memory-2step-stake-s,561,1374425,0.0-19.0-0.0-0.72,A1F2N0IPSNJF3R,3X2LT8FDIZY82IMGP2COH9T7SM78W0,3M0BCWMB8ZCUQZIHIG10XVFVU4UWBM,8,7
73,3,object_08,object_06,409.0,6,2,668.40000000037,0.1111111111111111,2,object_03,5,909,0,2,1,library_2,1,memory-2step-stake-s,562,1382405,0.0-19.0-0.0-0.73,A1F2N0IPSNJF3R,3X2LT8FDIZY82IMGP2COH9T7SM78W0,3M0BCWMB8ZCUQZIHIG10XVFVU4UWBM,5,6
74,3,object_06,object_08,476.90000000037,6,1,456.0,0.2222222222222222,2,object_03,5,919,0,2,2,library_2,1,memory-2step-stake-s,563,1390276,0.0-19.0-0.0-0.74,A1F2N0IPSNJF3R,3X2LT8FDIZY82IMGP2COH9T7SM78W0,3M0BCWMB8ZCUQZIHIG10XVFVU4UWBM,6,5
75,2,object_01,object_09,621.20000000112,4,2,337.40000000037,0.1111111111111111,2,object_03,1,920,0,2,1,forest_6,1,memory-2step-stake-s,564,1397851,0.0-19.0-0.0-0.75,A1F2N0IPSNJF3R,3X2LT8FDIZY82IMGP2COH9T7SM78W0,3M0BCWMB8ZCUQZIHIG10XVFVU4UWBM,3,4
76,3,object_06,object_08,318.09999999963,5,2,674.09999999963,0.0,1,object_05,5,920,0,0,3,library_1,1,memory-2step-stake-s,565,1405745,0.0-19.0-0.0-0.76,A1F2N0IPSNJF3R,3X2LT8FDIZY82IMGP2COH9T7SM78W0,3M0BCWMB8ZCUQZIHIG10XVFVU4UWBM,6,5
77,1,object_07,object_10,-1.0,-1,-1,-1.0,0.0,-,0,1,920,0,3,8,desert_7,1,memory-2step-stake-s,566,1412252,0.0-19.0-0.0-0.77,A1F2N0IPSNJF3R,3X2LT8FDIZY82IMGP2COH9T7SM78W0,3M0BCWMB8ZCUQZIHIG10XVFVU4UWBM,1,2
78,4,object_04,object_02,457.80000000075,8,1,573.79999999888,0.8888888888888888,2,object_03,5,960,0,3,8,restaurant_1,1,memory-2step-stake-s,567,1420848,0.0-19.0-0.0-0.78,A1F2N0IPSNJF3R,3X2LT8FDIZY82IMGP2COH9T7SM78W0,3M0BCWMB8ZCUQZIHIG10XVFVU4UWBM,8,7
79,3,object_06,object_08,869.40000000037,5,2,-1.0,0.0,1,object_05,5,960,0,1,9,library_2,1,memory-2step-stake-s,568,1429365,0.0-19.0-0.0-0.79,A1F2N0IPSNJF3R,3X2LT8FDIZY82IMGP2COH9T7SM78W0,3M0BCWMB8ZCUQZIHIG10XVFVU4UWBM,6,5
80,2,object_09,object_01,-1.0,-1,-1,-1.0,0.0,-,0,1,960,0,4,9,forest_3,1,memory-2step-stake-s,569,1435872,0.0-19.0-0.0-0.80,A1F2N0IPSNJF3R,3X2LT8FDIZY82IMGP2COH9T7SM78W0,3M0BCWMB8ZCUQZIHIG10XVFVU4UWBM,4,3
81,2,object_01,object_09,164.59999999963,3,1,424.90000000037,0.3333333333333333,1,object_05,1,963,0,3,6,forest_4,1,memory-2step-stake-s,570,1443821,0.0-19.0-0.0-0.81,A1F2N0IPSNJF3R,3X2LT8FDIZY82IMGP2COH9T7SM78W0,3M0BCWMB8ZCUQZIHIG10XVFVU4UWBM,3,4
82,3,object_08,object_06,432.0,6,2,867.79999999888,0.7777777777777778,2,object_03,1,970,0,2,7,library_2,1,memory-2step-stake-s,571,1452535,0.0-19.0-0.0-0.82,A1F2N0IPSNJF3R,3X2LT8FDIZY82IMGP2COH9T7SM78W0,3M0BCWMB8ZCUQZIHIG10XVFVU4UWBM,5,6
83,1,object_10,object_07,275.59999999963,1,2,510.0,0.2222222222222222,1,object_05,1,972,0,2,9,desert_6,1,memory-2step-stake-s,572,1460461,0.0-19.0-0.0-0.83,A1F2N0IPSNJF3R,3X2LT8FDIZY82IMGP2COH9T7SM78W0,3M0BCWMB8ZCUQZIHIG10XVFVU4UWBM,2,1
84,4,object_02,object_04,653.5,7,1,736.5,0.1111111111111111,1,object_05,5,977,0,1,9,restaurant_4,1,memory-2step-stake-s,573,1468511,0.0-19.0-0.0-0.84,A1F2N0IPSNJF3R,3X2LT8FDIZY82IMGP2COH9T7SM78W0,3M0BCWMB8ZCUQZIHIG10XVFVU4UWBM,7,8
85,2,object_01,object_09,315.70000000112,4,2,535.0,1.0,2,object_03,1,986,0,1,9,forest_6,1,memory-2step-stake-s,574,1477169,0.0-19.0-0.0-0.85,A1F2N0IPSNJF3R,3X2LT8FDIZY82IMGP2COH9T7SM78W0,3M0BCWMB8ZCUQZIHIG10XVFVU4UWBM,3,4
86,4,object_02,object_04,289.09999999963,7,1,1261.5999999996,0.2222222222222222,1,object_05,5,996,0,2,6,restaurant_3,1,memory-2step-stake-s,575,1485843,0.0-19.0-0.0-0.86,A1F2N0IPSNJF3R,3X2LT8FDIZY82IMGP2COH9T7SM78W0,3M0BCWMB8ZCUQZIHIG10XVFVU4UWBM,7,8
87,1,object_07,object_10,518.69999999925,2,2,1173.2999999989,0.4444444444444444,2,object_03,1,1000,0,0,4,desert_6,1,memory-2step-stake-s,576,1494644,0.0-19.0-0.0-0.87,A1F2N0IPSNJF3R,3X2LT8FDIZY82IMGP2COH9T7SM78W0,3M0BCWMB8ZCUQZIHIG10XVFVU4UWBM,1,2
88,3,object_08,object_06,534.10000000149,5,1,369.5,0.2222222222222222,1,object_05,5,1010,0,2,1,library_8,1,memory-2step-stake-s,577,1502428,0.0-19.0-0.0-0.88,A1F2N0IPSNJF3R,3X2LT8FDIZY82IMGP2COH9T7SM78W0,3M0BCWMB8ZCUQZIHIG10XVFVU4UWBM,5,6
89,3,object_06,object_08,270.0,5,2,353.40000000037,0.2222222222222222,1,object_05,5,1020,0,2,2,library_8,1,memory-2step-stake-s,578,1510207,0.0-19.0-0.0-0.89,A1F2N0IPSNJF3R,3X2LT8FDIZY82IMGP2COH9T7SM78W0,3M0BCWMB8ZCUQZIHIG10XVFVU4UWBM,6,5
90,3,object_08,object_06,250.30000000075,5,1,357.69999999925,0.3333333333333333,1,object_05,5,1035,0,3,1,library_2,1,memory-2step-stake-s,579,1518008,0.0-19.0-0.0-0.90,A1F2N0IPSNJF3R,3X2LT8FDIZY82IMGP2COH9T7SM78W0,3M0BCWMB8ZCUQZIHIG10XVFVU4UWBM,5,6
91,3,object_06,object_08,270.19999999925,5,2,330.19999999925,0.3333333333333333,1,object_05,5,1050,0,3,0,library_6,1,memory-2step-stake-s,580,1525856,0.0-19.0-0.0-0.91,A1F2N0IPSNJF3R,3X2LT8FDIZY82IMGP2COH9T7SM78W0,3M0BCWMB8ZCUQZIHIG10XVFVU4UWBM,6,5
92,4,object_04,object_02,249.5,7,2,383.79999999888,0.3333333333333333,1,object_05,5,1065,0,3,3,restaurant_3,1,memory-2step-stake-s,581,1533760,0.0-19.0-0.0-0.92,A1F2N0IPSNJF3R,3X2LT8FDIZY82IMGP2COH9T7SM78W0,3M0BCWMB8ZCUQZIHIG10XVFVU4UWBM,8,7
93,2,object_09,object_01,372.10000000149,4,1,543.40000000037,0.4444444444444444,2,object_03,1,1069,0,1,4,forest_7,1,memory-2step-stake-s,582,1541930,0.0-19.0-0.0-0.93,A1F2N0IPSNJF3R,3X2LT8FDIZY82IMGP2COH9T7SM78W0,3M0BCWMB8ZCUQZIHIG10XVFVU4UWBM,4,3
94,3,object_08,object_06,487.19999999925,6,2,451.09999999963,0.3333333333333333,2,object_03,5,1084,0,0,3,library_6,1,memory-2step-stake-s,583,1549897,0.0-19.0-0.0-0.94,A1F2N0IPSNJF3R,3X2LT8FDIZY82IMGP2COH9T7SM78W0,3M0BCWMB8ZCUQZIHIG10XVFVU4UWBM,5,6
95,3,object_06,object_08,992.0,5,2,-1.0,0.0,1,object_05,5,1084,0,0,8,library_8,1,memory-2step-stake-s,584,1558412,0.0-19.0-0.0-0.95,A1F2N0IPSNJF3R,3X2LT8FDIZY82IMGP2COH9T7SM78W0,3M0BCWMB8ZCUQZIHIG10XVFVU4UWBM,6,5
96,3,object_06,object_08,493.30000000075,6,1,736.0,0.7777777777777778,2,object_03,5,1119,0,1,7,library_1,1,memory-2step-stake-s,585,1567073,0.0-19.0-0.0-0.96,A1F2N0IPSNJF3R,3X2LT8FDIZY82IMGP2COH9T7SM78W0,3M0BCWMB8ZCUQZIHIG10XVFVU4UWBM,6,5
97,3,object_06,object_08,358.90000000037,5,2,450.29999999888,0.4444444444444444,1,object_05,1,1123,0,4,4,library_6,1,memory-2step-stake-s,586,1575065,0.0-19.0-0.0-0.97,A1F2N0IPSNJF3R,3X2LT8FDIZY82IMGP2COH9T7SM78W0,3M0BCWMB8ZCUQZIHIG10XVFVU4UWBM,6,5
98,3,object_06,object_08,263.5,6,1,618.90000000037,0.5555555555555556,2,object_03,1,1128,0,4,5,library_6,1,memory-2step-stake-s,587,1583401,0.0-19.0-0.0-0.98,A1F2N0IPSNJF3R,3X2LT8FDIZY82IMGP2COH9T7SM78W0,3M0BCWMB8ZCUQZIHIG10XVFVU4UWBM,6,5
99,3,object_08,object_06,739.59999999963,6,2,430.5,0.5555555555555556,2,object_03,5,1153,0,5,5,library_1,1,memory-2step-stake-s,588,1591558,0.0-19.0-0.0-0.99,A1F2N0IPSNJF3R,3X2LT8FDIZY82IMGP2COH9T7SM78W0,3M0BCWMB8ZCUQZIHIG10XVFVU4UWBM,5,6
100,3,object_06,object_08,1458.5,6,1,902.29999999888,0.6666666666666666,2,object_03,5,1183,0,4,6,library_8,1,memory-2step-stake-s,589,1600279,0.0-19.0-0.0-0.100,A1F2N0IPSNJF3R,3X2LT8FDIZY82IMGP2COH9T7SM78W0,3M0BCWMB8ZCUQZIHIG10XVFVU4UWBM,6,5
101,2,object_01,object_09,-1.0,-1,-1,-1.0,0.0,-,0,5,1183,0,2,4,forest_4,1,memory-2step-stake-s,590,1606787,0.0-19.0-0.0-0.101,A1F2N0IPSNJF3R,3X2LT8FDIZY82IMGP2COH9T7SM78W0,3M0BCWMB8ZCUQZIHIG10XVFVU4UWBM,3,4
102,3,object_06,object_08,532.79999999888,5,2,1456.1999999993,0.1111111111111111,1,object_05,5,1188,0,1,1,library_1,1,memory-2step-stake-s,591,1615559,0.0-19.0-0.0-0.102,A1F2N0IPSNJF3R,3X2LT8FDIZY82IMGP2COH9T7SM78W0,3M0BCWMB8ZCUQZIHIG10XVFVU4UWBM,6,5
103,4,object_04,object_02,409.10000000149,8,1,469.40000000037,0.3333333333333333,2,object_03,5,1203,0,2,3,restaurant_3,1,memory-2step-stake-s,592,1623544,0.0-19.0-0.0-0.103,A1F2N0IPSNJF3R,3X2LT8FDIZY82IMGP2COH9T7SM78W0,3M0BCWMB8ZCUQZIHIG10XVFVU4UWBM,8,7
104,4,object_04,object_02,340.69999999925,7,2,536.19999999925,0.1111111111111111,1,object_05,1,1204,0,1,1,restaurant_1,1,memory-2step-stake-s,593,1631397,0.0-19.0-0.0-0.104,A1F2N0IPSNJF3R,3X2LT8FDIZY82IMGP2COH9T7SM78W0,3M0BCWMB8ZCUQZIHIG10XVFVU4UWBM,8,7
105,4,object_04,object_02,370.5,8,1,617.59999999963,0.3333333333333333,2,object_03,1,1207,0,0,3,restaurant_1,1,memory-2step-stake-s,594,1639462,0.0-19.0-0.0-0.105,A1F2N0IPSNJF3R,3X2LT8FDIZY82IMGP2COH9T7SM78W0,3M0BCWMB8ZCUQZIHIG10XVFVU4UWBM,8,7
106,1,object_07,object_10,343.70000000112,2,2,522.5,0.3333333333333333,2,object_03,1,1210,0,3,3,desert_7,1,memory-2step-stake-s,595,1647502,0.0-19.0-0.0-0.106,A1F2N0IPSNJF3R,3X2LT8FDIZY82IMGP2COH9T7SM78W0,3M0BCWMB8ZCUQZIHIG10XVFVU4UWBM,1,2
107,1,object_07,object_10,303.39999999851,1,1,410.79999999888,0.2222222222222222,1,object_05,1,1212,0,2,2,desert_6,1,memory-2step-stake-s,596,1655332,0.0-19.0-0.0-0.107,A1F2N0IPSNJF3R,3X2LT8FDIZY82IMGP2COH9T7SM78W0,3M0BCWMB8ZCUQZIHIG10XVFVU4UWBM,1,2
108,4,object_04,object_02,432.90000000037,7,2,580.0,0.5555555555555556,1,object_05,1,1217,0,5,4,restaurant_1,1,memory-2step-stake-s,597,1663632,0.0-19.0-0.0-0.108,A1F2N0IPSNJF3R,3X2LT8FDIZY82IMGP2COH9T7SM78W0,3M0BCWMB8ZCUQZIHIG10XVFVU4UWBM,8,7
109,4,object_02,object_04,504.5,7,1,1156.0,0.4444444444444444,1,object_05,5,1237,0,4,4,restaurant_1,1,memory-2step-stake-s,598,1672412,0.0-19.0-0.0-0.109,A1F2N0IPSNJF3R,3X2LT8FDIZY82IMGP2COH9T7SM78W0,3M0BCWMB8ZCUQZIHIG10XVFVU4UWBM,7,8
110,4,object_04,object_02,-1.0,-1,-1,-1.0,0.0,-,0,1,1237,0,3,3,restaurant_6,1,memory-2step-stake-s,599,1678920,0.0-19.0-0.0-0.110,A1F2N0IPSNJF3R,3X2LT8FDIZY82IMGP2COH9T7SM78W0,3M0BCWMB8ZCUQZIHIG10XVFVU4UWBM,8,7
111,4,object_04,object_02,-1.0,-1,-1,-1.0,0.0,-,0,5,1237,0,4,2,restaurant_3,1,memory-2step-stake-s,600,1685438,0.0-19.0-0.0-0.111,A1F2N0IPSNJF3R,3X2LT8FDIZY82IMGP2COH9T7SM78W0,3M0BCWMB8ZCUQZIHIG10XVFVU4UWBM,8,7
112,4,object_04,object_02,638.20000000112,7,2,639.59999999963,0.5555555555555556,1,object_05,5,1262,0,5,3,restaurant_4,1,memory-2step-stake-s,601,1693799,0.0-19.0-0.0-0.112,A1F2N0IPSNJF3R,3X2LT8FDIZY82IMGP2COH9T7SM78W0,3M0BCWMB8ZCUQZIHIG10XVFVU4UWBM,8,7
113,4,object_04,object_02,614.0,8,1,528.20000000112,0.5555555555555556,2,object_03,5,1287,0,5,5,restaurant_3,1,memory-2step-stake-s,602,1701979,0.0-19.0-0.0-0.113,A1F2N0IPSNJF3R,3X2LT8FDIZY82IMGP2COH9T7SM78W0,3M0BCWMB8ZCUQZIHIG10XVFVU4UWBM,8,7
114,2,object_09,object_01,584.40000000037,4,1,322.59999999963,0.4444444444444444,2,object_03,1,1291,0,9,4,forest_3,1,memory-2step-stake-s,603,1709928,0.0-19.0-0.0-0.114,A1F2N0IPSNJF3R,3X2LT8FDIZY82IMGP2COH9T7SM78W0,3M0BCWMB8ZCUQZIHIG10XVFVU4UWBM,4,3
115,2,object_01,object_09,772.0,4,2,494.30000000075,0.5555555555555556,2,object_03,1,1296,0,6,5,forest_4,1,memory-2step-stake-s,604,1718141,0.0-19.0-0.0-0.115,A1F2N0IPSNJF3R,3X2LT8FDIZY82IMGP2COH9T7SM78W0,3M0BCWMB8ZCUQZIHIG10XVFVU4UWBM,3,4
116,1,object_10,object_07,467.40000000037,2,1,525.80000000075,0.8888888888888888,2,object_03,1,1304,0,8,8,desert_4,1,memory-2step-stake-s,605,1726697,0.0-19.0-0.0-0.116,A1F2N0IPSNJF3R,3X2LT8FDIZY82IMGP2COH9T7SM78W0,3M0BCWMB8ZCUQZIHIG10XVFVU4UWBM,2,1
117,2,object_01,object_09,739.19999999925,4,2,-1.0,0.0,2,object_03,5,1304,0,4,7,forest_7,1,memory-2step-stake-s,606,1735213,0.0-19.0-0.0-0.117,A1F2N0IPSNJF3R,3X2LT8FDIZY82IMGP2COH9T7SM78W0,3M0BCWMB8ZCUQZIHIG10XVFVU4UWBM,3,4
118,1,object_07,object_10,710.40000000037,1,1,497.30000000075,0.5555555555555556,1,object_05,1,1309,0,5,9,desert_3,1,memory-2step-stake-s,607,1743430,0.0-19.0-0.0-0.118,A1F2N0IPSNJF3R,3X2LT8FDIZY82IMGP2COH9T7SM78W0,3M0BCWMB8ZCUQZIHIG10XVFVU4UWBM,1,2
119,2,object_01,object_09,887.79999999888,4,2,922.19999999925,0.7777777777777778,2,object_03,1,1316,0,2,7,forest_7,1,memory-2step-stake-s,608,1752285,0.0-19.0-0.0-0.119,A1F2N0IPSNJF3R,3X2LT8FDIZY82IMGP2COH9T7SM78W0,3M0BCWMB8ZCUQZIHIG10XVFVU4UWBM,3,4
120,1,object_07,object_10,598.60000000149,2,2,521.29999999888,0.8888888888888888,2,object_03,1,1324,0,1,8,desert_3,1,memory-2step-stake-s,609,1760767,0.0-19.0-0.0-0.120,A1F2N0IPSNJF3R,3X2LT8FDIZY82IMGP2COH9T7SM78W0,3M0BCWMB8ZCUQZIHIG10XVFVU4UWBM,1,2
121,2,object_09,object_01,819.90000000037,3,2,534.5,0.2222222222222222,1,object_05,1,1326,0,2,8,forest_4,1,memory-2step-stake-s,610,1768717,0.0-19.0-0.0-0.121,A1F2N0IPSNJF3R,3X2LT8FDIZY82IMGP2COH9T7SM78W0,3M0BCWMB8ZCUQZIHIG10XVFVU4UWBM,4,3
122,2,object_09,object_01,608.29999999888,4,1,609.89999999851,0.8888888888888888,2,object_03,1,1334,0,4,8,forest_3,1,memory-2step-stake-s,611,1777380,0.0-19.0-0.0-0.122,A1F2N0IPSNJF3R,3X2LT8FDIZY82IMGP2COH9T7SM78W0,3M0BCWMB8ZCUQZIHIG10XVFVU4UWBM,4,3
123,3,object_08,object_06,805.0,6,2,494.5,0.6666666666666666,2,object_03,5,1364,0,4,6,library_1,1,memory-2step-stake-s,612,1785697,0.0-19.0-0.0-0.123,A1F2N0IPSNJF3R,3X2LT8FDIZY82IMGP2COH9T7SM78W0,3M0BCWMB8ZCUQZIHIG10XVFVU4UWBM,5,6
124,2,object_01,object_09,304.40000000037,3,1,979.09999999963,0.5555555555555556,1,object_05,1,1369,0,5,4,forest_7,1,memory-2step-stake-s,613,1794396,0.0-19.0-0.0-0.124,A1F2N0IPSNJF3R,3X2LT8FDIZY82IMGP2COH9T7SM78W0,3M0BCWMB8ZCUQZIHIG10XVFVU4UWBM,3,4
125,2,object_09,object_01,574.09999999963,3,2,497.30000000075,0.5555555555555556,1,object_05,5,1394,0,5,4,forest_6,1,memory-2step-stake-s,614,1802618,0.0-19.0-0.0-0.125,A1F2N0IPSNJF3R,3X2LT8FDIZY82IMGP2COH9T7SM78W0,3M0BCWMB8ZCUQZIHIG10XVFVU4UWBM,4,3
126,3,object_08,object_06,-1.0,-1,-1,-1.0,0.0,-,0,1,1394,0,3,5,library_8,1,memory-2step-stake-s,615,1809126,0.0-19.0-0.0-0.126,A1F2N0IPSNJF3R,3X2LT8FDIZY82IMGP2COH9T7SM78W0,3M0BCWMB8ZCUQZIHIG10XVFVU4UWBM,5,6
127,1,object_07,object_10,356.09999999963,1,1,622.59999999963,0.1111111111111111,1,object_05,5,1399,0,1,6,desert_7,1,memory-2step-stake-s,616,1816995,0.0-19.0-0.0-0.127,A1F2N0IPSNJF3R,3X2LT8FDIZY82IMGP2COH9T7SM78W0,3M0BCWMB8ZCUQZIHIG10XVFVU4UWBM,1,2
128,1,object_10,object_07,517.79999999888,1,2,328.59999999963,0.5555555555555556,1,object_05,1,1404,0,5,9,desert_6,1,memory-2step-stake-s,618,1827882,0.0-19.0-0.1-0.128,A1F2N0IPSNJF3R,3X2LT8FDIZY82IMGP2COH9T7SM78W0,3M0BCWMB8ZCUQZIHIG10XVFVU4UWBM,2,1
129,2,object_01,object_09,269.0,3,1,374.40000000037,0.6666666666666666,1,object_05,1,1410,0,6,8,forest_6,1,memory-2step-stake-s,619,1836079,0.0-19.0-0.1-0.129,A1F2N0IPSNJF3R,3X2LT8FDIZY82IMGP2COH9T7SM78W0,3M0BCWMB8ZCUQZIHIG10XVFVU4UWBM,3,4
130,3,object_08,object_06,312.40000000037,6,2,434.29999999888,0.8888888888888888,2,object_03,1,1418,0,4,8,library_1,1,memory-2step-stake-s,620,1844538,0.0-19.0-0.1-0.130,A1F2N0IPSNJF3R,3X2LT8FDIZY82IMGP2COH9T7SM78W0,3M0BCWMB8ZCUQZIHIG10XVFVU4UWBM,5,6
131,2,object_01,object_09,365.10000000149,3,1,1176.3999999985,0.4444444444444444,1,object_05,1,1422,0,4,8,forest_4,1,memory-2step-stake-s,621,1853332,0.0-19.0-0.1-0.131,A1F2N0IPSNJF3R,3X2LT8FDIZY82IMGP2COH9T7SM78W0,3M0BCWMB8ZCUQZIHIG10XVFVU4UWBM,3,4
132,2,object_01,object_09,378.90000000037,4,2,1011.9000000004,0.8888888888888888,2,object_03,5,1462,0,2,8,forest_7,1,memory-2step-stake-s,622,1862374,0.0-19.0-0.1-0.132,A1F2N0IPSNJF3R,3X2LT8FDIZY82IMGP2COH9T7SM78W0,3M0BCWMB8ZCUQZIHIG10XVFVU4UWBM,3,4
133,3,object_08,object_06,258.20000000112,5,1,-1.0,0.0,1,object_05,5,1462,0,2,9,library_2,1,memory-2step-stake-s,623,1870893,0.0-19.0-0.1-0.133,A1F2N0IPSNJF3R,3X2LT8FDIZY82IMGP2COH9T7SM78W0,3M0BCWMB8ZCUQZIHIG10XVFVU4UWBM,5,6
134,4,object_04,object_02,395.79999999888,7,2,439.09999999963,0.0,1,object_05,5,1462,0,0,7,restaurant_3,1,memory-2step-stake-s,624,1878469,0.0-19.0-0.1-0.134,A1F2N0IPSNJF3R,3X2LT8FDIZY82IMGP2COH9T7SM78W0,3M0BCWMB8ZCUQZIHIG10XVFVU4UWBM,8,7
135,1,object_07,object_10,275.5,2,2,846.59999999963,0.5555555555555556,2,object_03,1,1467,0,2,5,desert_6,1,memory-2step-stake-s,625,1887036,0.0-19.0-0.1-0.135,A1F2N0IPSNJF3R,3X2LT8FDIZY82IMGP2COH9T7SM78W0,3M0BCWMB8ZCUQZIHIG10XVFVU4UWBM,1,2
136,3,object_08,object_06,382.90000000037,5,1,378.39999999851,0.1111111111111111,1,object_05,1,1468,0,1,6,library_8,1,memory-2step-stake-s,626,1894728,0.0-19.0-0.1-0.136,A1F2N0IPSNJF3R,3X2LT8FDIZY82IMGP2COH9T7SM78W0,3M0BCWMB8ZCUQZIHIG10XVFVU4UWBM,5,6
137,1,object_10,object_07,411.39999999851,1,2,422.79999999888,0.3333333333333333,1,object_05,1,1471,0,3,7,desert_4,1,memory-2step-stake-s,627,1902666,0.0-19.0-0.1-0.137,A1F2N0IPSNJF3R,3X2LT8FDIZY82IMGP2COH9T7SM78W0,3M0BCWMB8ZCUQZIHIG10XVFVU4UWBM,2,1
138,1,object_10,object_07,377.30000000075,2,1,670.0,1.0,2,object_03,1,1480,0,2,9,desert_4,1,memory-2step-stake-s,628,1911459,0.0-19.0-0.1-0.138,A1F2N0IPSNJF3R,3X2LT8FDIZY82IMGP2COH9T7SM78W0,3M0BCWMB8ZCUQZIHIG10XVFVU4UWBM,2,1
139,4,object_04,object_02,576.5,7,2,674.0,0.2222222222222222,1,object_05,5,1490,0,2,5,restaurant_6,1,memory-2step-stake-s,629,1919551,0.0-19.0-0.1-0.139,A1F2N0IPSNJF3R,3X2LT8FDIZY82IMGP2COH9T7SM78W0,3M0BCWMB8ZCUQZIHIG10XVFVU4UWBM,8,7
140,2,object_01,object_09,348.10000000149,3,1,472.39999999851,0.4444444444444444,1,object_05,1,1494,0,4,5,forest_4,1,memory-2step-stake-s,630,1927647,0.0-19.0-0.1-0.140,A1F2N0IPSNJF3R,3X2LT8FDIZY82IMGP2COH9T7SM78W0,3M0BCWMB8ZCUQZIHIG10XVFVU4UWBM,3,4
141,1,object_10,object_07,411.5,1,2,799.0,0.2222222222222222,1,object_05,1,1496,0,2,7,desert_6,1,memory-2step-stake-s,631,1935867,0.0-19.0-0.1-0.141,A1F2N0IPSNJF3R,3X2LT8FDIZY82IMGP2COH9T7SM78W0,3M0BCWMB8ZCUQZIHIG10XVFVU4UWBM,2,1
142,1,object_07,object_10,312.09999999963,1,1,372.79999999888,0.1111111111111111,1,object_05,1,1497,0,1,8,desert_3,1,memory-2step-stake-s,632,1943472,0.0-19.0-0.1-0.142,A1F2N0IPSNJF3R,3X2LT8FDIZY82IMGP2COH9T7SM78W0,3M0BCWMB8ZCUQZIHIG10XVFVU4UWBM,1,2
143,1,object_07,object_10,431.70000000112,1,1,779.0,0.1111111111111111,1,object_05,1,1498,0,1,7,desert_7,1,memory-2step-stake-s,633,1951567,0.0-19.0-0.1-0.143,A1F2N0IPSNJF3R,3X2LT8FDIZY82IMGP2COH9T7SM78W0,3M0BCWMB8ZCUQZIHIG10XVFVU4UWBM,1,2
144,4,object_04,object_02,268.5,8,1,473.59999999963,0.7777777777777778,2,object_03,5,1533,0,3,7,restaurant_6,1,memory-2step-stake-s,634,1959966,0.0-19.0-0.1-0.144,A1F2N0IPSNJF3R,3X2LT8FDIZY82IMGP2COH9T7SM78W0,3M0BCWMB8ZCUQZIHIG10XVFVU4UWBM,8,7
145,2,object_09,object_01,347.69999999925,3,2,446.19999999925,0.2222222222222222,1,object_05,1,1535,0,2,7,forest_3,1,memory-2step-stake-s,635,1967829,0.0-19.0-0.1-0.145,A1F2N0IPSNJF3R,3X2LT8FDIZY82IMGP2COH9T7SM78W0,3M0BCWMB8ZCUQZIHIG10XVFVU4UWBM,4,3
146,3,object_08,object_06,286.69999999925,5,1,361.59999999963,0.1111111111111111,1,object_05,5,1540,0,1,5,library_1,1,memory-2step-stake-s,636,1975507,0.0-19.0-0.1-0.146,A1F2N0IPSNJF3R,3X2LT8FDIZY82IMGP2COH9T7SM78W0,3M0BCWMB8ZCUQZIHIG10XVFVU4UWBM,5,6
147,1,object_07,object_10,324.69999999925,2,2,520.19999999925,0.6666666666666666,2,object_03,1,1546,0,0,6,desert_3,1,memory-2step-stake-s,637,1983849,0.0-19.0-0.1-0.147,A1F2N0IPSNJF3R,3X2LT8FDIZY82IMGP2COH9T7SM78W0,3M0BCWMB8ZCUQZIHIG10XVFVU4UWBM,1,2
148,2,object_09,object_01,717.40000000037,4,1,1096.8000000007,0.8888888888888888,2,object_03,1,1554,0,0,8,forest_6,1,memory-2step-stake-s,638,1992976,0.0-19.0-0.1-0.148,A1F2N0IPSNJF3R,3X2LT8FDIZY82IMGP2COH9T7SM78W0,3M0BCWMB8ZCUQZIHIG10XVFVU4UWBM,4,3
149,1,object_10,object_07,505.69999999925,1,2,781.09999999963,0.0,1,object_05,1,1554,0,0,5,desert_7,1,memory-2step-stake-s,639,2000894,0.0-19.0-0.1-0.149,A1F2N0IPSNJF3R,3X2LT8FDIZY82IMGP2COH9T7SM78W0,3M0BCWMB8ZCUQZIHIG10XVFVU4UWBM,2,1
150,4,object_04,object_02,1348.1999999993,8,1,673.29999999888,0.8888888888888888,2,object_03,5,1594,0,0,8,restaurant_1,1,memory-2step-stake-s,640,2009586,0.0-19.0-0.1-0.150,A1F2N0IPSNJF3R,3X2LT8FDIZY82IMGP2COH9T7SM78W0,3M0BCWMB8ZCUQZIHIG10XVFVU4UWBM,8,7
151,3,object_08,object_06,463.80000000075,5,1,371.70000000112,0.2222222222222222,1,object_05,5,1604,0,2,8,library_1,1,memory-2step-stake-s,641,2017372,0.0-19.0-0.1-0.151,A1F2N0IPSNJF3R,3X2LT8FDIZY82IMGP2COH9T7SM78W0,3M0BCWMB8ZCUQZIHIG10XVFVU4UWBM,5,6
152,3,object_06,object_08,253.5,5,2,376.79999999888,0.4444444444444444,1,object_05,5,1624,0,4,8,library_6,1,memory-2step-stake-s,642,2025372,0.0-19.0-0.1-0.152,A1F2N0IPSNJF3R,3X2LT8FDIZY82IMGP2COH9T7SM78W0,3M0BCWMB8ZCUQZIHIG10XVFVU4UWBM,6,5
153,3,object_08,object_06,724.89999999851,5,1,528.29999999888,0.3333333333333333,1,object_05,5,1639,0,3,9,library_8,1,memory-2step-stake-s,643,2033415,0.0-19.0-0.1-0.153,A1F2N0IPSNJF3R,3X2LT8FDIZY82IMGP2COH9T7SM78W0,3M0BCWMB8ZCUQZIHIG10XVFVU4UWBM,5,6
154,1,object_07,object_10,770.40000000037,2,2,557.80000000075,0.8888888888888888,2,object_03,1,1647,0,5,8,desert_3,1,memory-2step-stake-s,644,2041993,0.0-19.0-0.1-0.154,A1F2N0IPSNJF3R,3X2LT8FDIZY82IMGP2COH9T7SM78W0,3M0BCWMB8ZCUQZIHIG10XVFVU4UWBM,1,2
155,1,object_10,object_07,727.29999999888,1,2,643.40000000037,0.1111111111111111,1,object_05,1,1648,0,1,9,desert_7,1,memory-2step-stake-s,645,2049949,0.0-19.0-0.1-0.155,A1F2N0IPSNJF3R,3X2LT8FDIZY82IMGP2COH9T7SM78W0,3M0BCWMB8ZCUQZIHIG10XVFVU4UWBM,2,1
156,2,object_01,object_09,418.40000000037,3,1,437.80000000075,0.1111111111111111,1,object_05,1,1649,0,1,5,forest_6,1,memory-2step-stake-s,646,2057703,0.0-19.0-0.1-0.156,A1F2N0IPSNJF3R,3X2LT8FDIZY82IMGP2COH9T7SM78W0,3M0BCWMB8ZCUQZIHIG10XVFVU4UWBM,3,4
157,1,object_10,object_07,378.40000000037,1,2,565.40000000037,0.1111111111111111,1,object_05,1,1650,0,1,3,desert_6,1,memory-2step-stake-s,647,2065517,0.0-19.0-0.1-0.157,A1F2N0IPSNJF3R,3X2LT8FDIZY82IMGP2COH9T7SM78W0,3M0BCWMB8ZCUQZIHIG10XVFVU4UWBM,2,1
158,1,object_10,object_07,316.60000000149,2,1,472.0,0.4444444444444444,2,object_03,5,1670,0,0,4,desert_3,1,memory-2step-stake-s,648,2073606,0.0-19.0-0.1-0.158,A1F2N0IPSNJF3R,3X2LT8FDIZY82IMGP2COH9T7SM78W0,3M0BCWMB8ZCUQZIHIG10XVFVU4UWBM,2,1
159,4,object_02,object_04,-1.0,-1,-1,-1.0,0.0,-,0,1,1670,0,3,5,restaurant_6,1,memory-2step-stake-s,649,2080115,0.0-19.0-0.1-0.159,A1F2N0IPSNJF3R,3X2LT8FDIZY82IMGP2COH9T7SM78W0,3M0BCWMB8ZCUQZIHIG10XVFVU4UWBM,7,8
160,1,object_10,object_07,431.69999999925,1,2,435.19999999925,0.3333333333333333,1,object_05,1,1673,0,3,6,desert_7,1,memory-2step-stake-s,650,2088068,0.0-19.0-0.1-0.160,A1F2N0IPSNJF3R,3X2LT8FDIZY82IMGP2COH9T7SM78W0,3M0BCWMB8ZCUQZIHIG10XVFVU4UWBM,2,1
161,3,object_08,object_06,334.5,5,1,361.80000000075,0.4444444444444444,1,object_05,5,1693,0,4,6,library_8,1,memory-2step-stake-s,651,2096051,0.0-19.0-0.1-0.161,A1F2N0IPSNJF3R,3X2LT8FDIZY82IMGP2COH9T7SM78W0,3M0BCWMB8ZCUQZIHIG10XVFVU4UWBM,5,6
162,4,object_02,object_04,302.69999999925,8,2,458.69999999925,0.8888888888888888,2,object_03,5,1733,0,5,8,restaurant_4,1,memory-2step-stake-s,652,2104530,0.0-19.0-0.1-0.162,A1F2N0IPSNJF3R,3X2LT8FDIZY82IMGP2COH9T7SM78W0,3M0BCWMB8ZCUQZIHIG10XVFVU4UWBM,7,8
163,1,object_10,object_07,458.40000000037,1,2,349.90000000037,0.4444444444444444,1,object_05,5,1753,0,4,8,desert_3,1,memory-2step-stake-s,653,2112508,0.0-19.0-0.1-0.163,A1F2N0IPSNJF3R,3X2LT8FDIZY82IMGP2COH9T7SM78W0,3M0BCWMB8ZCUQZIHIG10XVFVU4UWBM,2,1
164,2,object_01,object_09,574.0,3,1,449.30000000075,0.0,1,object_05,1,1753,0,0,8,forest_7,1,memory-2step-stake-s,654,2120169,0.0-19.0-0.1-0.164,A1F2N0IPSNJF3R,3X2LT8FDIZY82IMGP2COH9T7SM78W0,3M0BCWMB8ZCUQZIHIG10XVFVU4UWBM,3,4
165,2,object_01,object_09,544.40000000037,4,2,531.89999999851,0.5555555555555556,2,object_03,1,1758,0,4,5,forest_3,1,memory-2step-stake-s,655,2128349,0.0-19.0-0.1-0.165,A1F2N0IPSNJF3R,3X2LT8FDIZY82IMGP2COH9T7SM78W0,3M0BCWMB8ZCUQZIHIG10XVFVU4UWBM,3,4
166,2,object_09,object_01,586.40000000037,3,2,461.40000000037,0.6666666666666666,1,object_05,1,1764,0,6,6,forest_6,1,memory-2step-stake-s,656,2136628,0.0-19.0-0.1-0.166,A1F2N0IPSNJF3R,3X2LT8FDIZY82IMGP2COH9T7SM78W0,3M0BCWMB8ZCUQZIHIG10XVFVU4UWBM,4,3
167,3,object_08,object_06,410.5,6,2,310.29999999888,1.0,2,object_03,5,1809,0,8,9,library_2,1,memory-2step-stake-s,657,2145059,0.0-19.0-0.1-0.167,A1F2N0IPSNJF3R,3X2LT8FDIZY82IMGP2COH9T7SM78W0,3M0BCWMB8ZCUQZIHIG10XVFVU4UWBM,5,6
168,1,object_07,object_10,507.0,2,2,470.5,0.8888888888888888,2,object_03,5,1849,0,8,8,desert_7,1,memory-2step-stake-s,658,2153550,0.0-19.0-0.1-0.168,A1F2N0IPSNJF3R,3X2LT8FDIZY82IMGP2COH9T7SM78W0,3M0BCWMB8ZCUQZIHIG10XVFVU4UWBM,1,2
169,2,object_09,object_01,384.90000000037,4,1,627.90000000037,0.6666666666666666,2,object_03,1,1855,0,9,6,forest_3,1,memory-2step-stake-s,659,2161999,0.0-19.0-0.1-0.169,A1F2N0IPSNJF3R,3X2LT8FDIZY82IMGP2COH9T7SM78W0,3M0BCWMB8ZCUQZIHIG10XVFVU4UWBM,4,3
170,1,object_10,object_07,327.09999999963,1,2,479.79999999888,0.8888888888888888,1,object_05,1,1863,0,8,7,desert_7,1,memory-2step-stake-s,660,2170506,0.0-19.0-0.1-0.170,A1F2N0IPSNJF3R,3X2LT8FDIZY82IMGP2COH9T7SM78W0,3M0BCWMB8ZCUQZIHIG10XVFVU4UWBM,2,1
171,1,object_10,object_07,562.59999999963,1,2,742.0,0.8888888888888888,1,object_05,5,1903,0,8,7,desert_6,1,memory-2step-stake-s,661,2179270,0.0-19.0-0.1-0.171,A1F2N0IPSNJF3R,3X2LT8FDIZY82IMGP2COH9T7SM78W0,3M0BCWMB8ZCUQZIHIG10XVFVU4UWBM,2,1
172,3,object_06,object_08,447.40000000037,5,2,450.40000000037,0.6666666666666666,1,object_05,5,1933,0,6,8,library_8,1,memory-2step-stake-s,662,2187476,0.0-19.0-0.1-0.172,A1F2N0IPSNJF3R,3X2LT8FDIZY82IMGP2COH9T7SM78W0,3M0BCWMB8ZCUQZIHIG10XVFVU4UWBM,6,5
173,4,object_02,object_04,1155.6000000015,8,2,407.29999999888,0.8888888888888888,2,object_03,5,1973,0,5,8,restaurant_1,1,memory-2step-stake-s,663,2195910,0.0-19.0-0.1-0.173,A1F2N0IPSNJF3R,3X2LT8FDIZY82IMGP2COH9T7SM78W0,3M0BCWMB8ZCUQZIHIG10XVFVU4UWBM,7,8
174,4,object_02,object_04,242.19999999925,8,2,662.70000000112,0.8888888888888888,2,object_03,5,2013,0,2,8,restaurant_1,1,memory-2step-stake-s,664,2204592,0.0-19.0-0.1-0.174,A1F2N0IPSNJF3R,3X2LT8FDIZY82IMGP2COH9T7SM78W0,3M0BCWMB8ZCUQZIHIG10XVFVU4UWBM,7,8
175,1,object_07,object_10,531.09999999963,1,1,511.0,0.3333333333333333,1,object_05,1,2016,0,3,5,desert_6,1,memory-2step-stake-s,665,2212629,0.0-19.0-0.1-0.175,A1F2N0IPSNJF3R,3X2LT8FDIZY82IMGP2COH9T7SM78W0,3M0BCWMB8ZCUQZIHIG10XVFVU4UWBM,1,2
176,2,object_09,object_01,314.20000000112,3,2,726.79999999888,0.2222222222222222,1,object_05,1,2018,0,2,4,forest_4,1,memory-2step-stake-s,666,2220771,0.0-19.0-0.1-0.176,A1F2N0IPSNJF3R,3X2LT8FDIZY82IMGP2COH9T7SM78W0,3M0BCWMB8ZCUQZIHIG10XVFVU4UWBM,4,3
177,4,object_02,object_04,822.19999999925,8,2,881.09999999963,0.4444444444444444,2,object_03,5,2038,0,1,4,restaurant_6,1,memory-2step-stake-s,667,2229269,0.0-19.0-0.1-0.177,A1F2N0IPSNJF3R,3X2LT8FDIZY82IMGP2COH9T7SM78W0,3M0BCWMB8ZCUQZIHIG10XVFVU4UWBM,7,8
178,3,object_08,object_06,634.5,6,2,477.59999999963,0.3333333333333333,2,object_03,5,2053,0,2,3,library_6,1,memory-2step-stake-s,668,2237262,0.0-19.0-0.1-0.178,A1F2N0IPSNJF3R,3X2LT8FDIZY82IMGP2COH9T7SM78W0,3M0BCWMB8ZCUQZIHIG10XVFVU4UWBM,5,6
179,4,object_04,object_02,488.70000000112,7,2,868.59999999963,0.0,1,object_05,5,2053,0,0,2,restaurant_4,1,memory-2step-stake-s,669,2245274,0.0-19.0-0.1-0.179,A1F2N0IPSNJF3R,3X2LT8FDIZY82IMGP2COH9T7SM78W0,3M0BCWMB8ZCUQZIHIG10XVFVU4UWBM,8,7
180,2,object_09,object_01,502.59999999963,4,1,433.79999999888,0.2222222222222222,2,object_03,1,2055,0,3,2,forest_7,1,memory-2step-stake-s,670,2253123,0.0-19.0-0.1-0.180,A1F2N0IPSNJF3R,3X2LT8FDIZY82IMGP2COH9T7SM78W0,3M0BCWMB8ZCUQZIHIG10XVFVU4UWBM,4,3
181,2,object_01,object_09,534.10000000149,4,2,345.30000000075,0.0,2,object_03,1,2055,0,2,0,forest_6,1,memory-2step-stake-s,671,2260681,0.0-19.0-0.1-0.181,A1F2N0IPSNJF3R,3X2LT8FDIZY82IMGP2COH9T7SM78W0,3M0BCWMB8ZCUQZIHIG10XVFVU4UWBM,3,4
182,3,object_08,object_06,279.40000000037,5,1,506.69999999925,0.4444444444444444,1,object_05,5,2075,0,4,1,library_2,1,memory-2step-stake-s,672,2268806,0.0-19.0-0.1-0.182,A1F2N0IPSNJF3R,3X2LT8FDIZY82IMGP2COH9T7SM78W0,3M0BCWMB8ZCUQZIHIG10XVFVU4UWBM,5,6
183,3,object_08,object_06,282.0,6,2,405.60000000149,0.3333333333333333,2,object_03,5,2090,0,4,3,library_2,1,memory-2step-stake-s,673,2276732,0.0-19.0-0.1-0.183,A1F2N0IPSNJF3R,3X2LT8FDIZY82IMGP2COH9T7SM78W0,3M0BCWMB8ZCUQZIHIG10XVFVU4UWBM,5,6
184,2,object_09,object_01,555.5,4,1,494.20000000112,0.6666666666666666,2,object_03,1,2096,0,4,6,forest_7,1,memory-2step-stake-s,674,2285049,0.0-19.0-0.1-0.184,A1F2N0IPSNJF3R,3X2LT8FDIZY82IMGP2COH9T7SM78W0,3M0BCWMB8ZCUQZIHIG10XVFVU4UWBM,4,3
185,3,object_06,object_08,671.0,5,2,498.40000000037,0.3333333333333333,1,object_05,5,2111,0,3,4,library_1,1,memory-2step-stake-s,675,2293064,0.0-19.0-0.1-0.185,A1F2N0IPSNJF3R,3X2LT8FDIZY82IMGP2COH9T7SM78W0,3M0BCWMB8ZCUQZIHIG10XVFVU4UWBM,6,5
186,4,object_02,object_04,335.90000000037,8,2,513.29999999888,0.2222222222222222,2,object_03,5,2121,0,3,2,restaurant_6,1,memory-2step-stake-s,676,2300995,0.0-19.0-0.1-0.186,A1F2N0IPSNJF3R,3X2LT8FDIZY82IMGP2COH9T7SM78W0,3M0BCWMB8ZCUQZIHIG10XVFVU4UWBM,7,8
187,4,object_04,object_02,461.19999999925,7,2,-1.0,0.0,1,object_05,5,2121,0,2,2,restaurant_3,1,memory-2step-stake-s,677,2309437,0.0-19.0-0.1-0.187,A1F2N0IPSNJF3R,3X2LT8FDIZY82IMGP2COH9T7SM78W0,3M0BCWMB8ZCUQZIHIG10XVFVU4UWBM,8,7
188,3,object_06,object_08,994.0,5,2,548.90000000037,0.4444444444444444,1,object_05,5,2141,0,4,2,library_1,1,memory-2step-stake-s,678,2317613,0.0-19.0-0.1-0.188,A1F2N0IPSNJF3R,3X2LT8FDIZY82IMGP2COH9T7SM78W0,3M0BCWMB8ZCUQZIHIG10XVFVU4UWBM,6,5
189,3,object_06,object_08,318.80000000075,6,1,466.69999999925,0.2222222222222222,2,object_03,5,2151,0,2,2,library_8,1,memory-2step-stake-s,679,2325494,0.0-19.0-0.1-0.189,A1F2N0IPSNJF3R,3X2LT8FDIZY82IMGP2COH9T7SM78W0,3M0BCWMB8ZCUQZIHIG10XVFVU4UWBM,6,5
190,4,object_02,object_04,388.89999999851,8,2,375.79999999888,0.3333333333333333,2,object_03,5,2166,0,1,3,restaurant_4,1,memory-2step-stake-s,680,2333386,0.0-19.0-0.1-0.190,A1F2N0IPSNJF3R,3X2LT8FDIZY82IMGP2COH9T7SM78W0,3M0BCWMB8ZCUQZIHIG10XVFVU4UWBM,7,8
191,2,object_01,object_09,336.5,3,1,363.40000000037,0.4444444444444444,1,object_05,1,2170,0,4,6,forest_7,1,memory-2step-stake-s,681,2341371,0.0-19.0-0.1-0.191,A1F2N0IPSNJF3R,3X2LT8FDIZY82IMGP2COH9T7SM78W0,3M0BCWMB8ZCUQZIHIG10XVFVU4UWBM,3,4
192,4,object_04,object_02,280.19999999925,7,2,1035.1999999993,0.2222222222222222,1,object_05,5,2180,0,2,4,restaurant_3,1,memory-2step-stake-s,682,2349821,0.0-19.0-0.1-0.192,A1F2N0IPSNJF3R,3X2LT8FDIZY82IMGP2COH9T7SM78W0,3M0BCWMB8ZCUQZIHIG10XVFVU4UWBM,8,7
193,1,object_10,object_07,1429.2999999989,1,2,496.0,0.3333333333333333,1,object_05,1,2183,0,3,5,desert_4,1,memory-2step-stake-s,683,2357838,0.0-19.0-0.1-0.193,A1F2N0IPSNJF3R,3X2LT8FDIZY82IMGP2COH9T7SM78W0,3M0BCWMB8ZCUQZIHIG10XVFVU4UWBM,2,1
194,2,object_09,object_01,643.90000000037,4,1,405.20000000112,0.6666666666666666,2,object_03,1,2189,0,5,6,forest_3,1,memory-2step-stake-s,684,2365993,0.0-19.0-0.1-0.194,A1F2N0IPSNJF3R,3X2LT8FDIZY82IMGP2COH9T7SM78W0,3M0BCWMB8ZCUQZIHIG10XVFVU4UWBM,4,3
195,3,object_06,object_08,433.59999999963,5,2,459.79999999888,0.3333333333333333,1,object_05,5,2204,0,3,6,library_6,1,memory-2step-stake-s,685,2373971,0.0-19.0-0.1-0.195,A1F2N0IPSNJF3R,3X2LT8FDIZY82IMGP2COH9T7SM78W0,3M0BCWMB8ZCUQZIHIG10XVFVU4UWBM,6,5
196,4,object_04,object_02,519.0,8,1,394.5,0.4444444444444444,2,object_03,5,2224,0,4,4,restaurant_4,1,memory-2step-stake-s,686,2381994,0.0-19.0-0.1-0.196,A1F2N0IPSNJF3R,3X2LT8FDIZY82IMGP2COH9T7SM78W0,3M0BCWMB8ZCUQZIHIG10XVFVU4UWBM,8,7
197,1,object_10,object_07,447.40000000037,1,2,714.40000000037,0.5555555555555556,1,object_05,1,2229,0,5,3,desert_4,1,memory-2step-stake-s,687,2390428,0.0-19.0-0.1-0.197,A1F2N0IPSNJF3R,3X2LT8FDIZY82IMGP2COH9T7SM78W0,3M0BCWMB8ZCUQZIHIG10XVFVU4UWBM,2,1
198,2,object_01,object_09,510.30000000075,3,1,-1.0,0.0,1,object_05,1,2229,0,7,3,forest_7,1,memory-2step-stake-s,688,2398942,0.0-19.0-0.1-0.198,A1F2N0IPSNJF3R,3X2LT8FDIZY82IMGP2COH9T7SM78W0,3M0BCWMB8ZCUQZIHIG10XVFVU4UWBM,3,4
199,2,object_01,object_09,331.5,4,2,902.20000000112,0.3333333333333333,2,object_03,1,2232,0,6,3,forest_7,1,memory-2step-stake-s,689,2407361,0.0-19.0-0.1-0.199,A1F2N0IPSNJF3R,3X2LT8FDIZY82IMGP2COH9T7SM78W0,3M0BCWMB8ZCUQZIHIG10XVFVU4UWBM,3,4
200,2,object_01,object_09,248.19999999925,3,1,991.40000000037,0.3333333333333333,1,object_05,1,2235,0,3,2,forest_3,1,memory-2step-stake-s,690,2415877,0.0-19.0-0.1-0.200,A1F2N0IPSNJF3R,3X2LT8FDIZY82IMGP2COH9T7SM78W0,3M0BCWMB8ZCUQZIHIG10XVFVU4UWBM,3,4
201,3,object_08,object_06,540.70000000112,6,2,622.79999999888,0.3333333333333333,2,object_03,5,2250,0,1,3,library_2,1,memory-2step-stake-s,691,2423942,0.0-19.0-0.1-0.201,A1F2N0IPSNJF3R,3X2LT8FDIZY82IMGP2COH9T7SM78W0,3M0BCWMB8ZCUQZIHIG10XVFVU4UWBM,5,6
202,3,object_06,object_08,385.09999999963,6,1,412.5,0.3333333333333333,2,object_03,1,2253,0,1,3,library_2,1,memory-2step-stake-s,692,2431875,0.0-19.0-0.1-0.202,A1F2N0IPSNJF3R,3X2LT8FDIZY82IMGP2COH9T7SM78W0,3M0BCWMB8ZCUQZIHIG10XVFVU4UWBM,6,5
203,4,object_04,object_02,963.5,7,2,342.0,0.1111111111111111,1,object_05,5,2258,0,1,3,restaurant_4,1,memory-2step-stake-s,693,2439532,0.0-19.0-0.1-0.203,A1F2N0IPSNJF3R,3X2LT8FDIZY82IMGP2COH9T7SM78W0,3M0BCWMB8ZCUQZIHIG10XVFVU4UWBM,8,7
204,3,object_08,object_06,580.5,6,2,805.60000000149,0.3333333333333333,2,object_03,5,2273,0,1,3,library_6,1,memory-2step-stake-s,694,2447869,0.0-19.0-0.1-0.204,A1F2N0IPSNJF3R,3X2LT8FDIZY82IMGP2COH9T7SM78W0,3M0BCWMB8ZCUQZIHIG10XVFVU4UWBM,5,6
205,4,object_02,object_04,753.59999999963,8,2,644.5,0.3333333333333333,2,object_03,5,2288,0,1,3,restaurant_1,1,memory-2step-stake-s,695,2456031,0.0-19.0-0.1-0.205,A1F2N0IPSNJF3R,3X2LT8FDIZY82IMGP2COH9T7SM78W0,3M0BCWMB8ZCUQZIHIG10XVFVU4UWBM,7,8
206,2,object_01,object_09,678.20000000112,4,2,752.59999999963,0.5555555555555556,2,object_03,1,2293,0,2,5,forest_4,1,memory-2step-stake-s,696,2464504,0.0-19.0-0.1-0.206,A1F2N0IPSNJF3R,3X2LT8FDIZY82IMGP2COH9T7SM78W0,3M0BCWMB8ZCUQZIHIG10XVFVU4UWBM,3,4
207,2,object_01,object_09,609.09999999963,4,2,452.0,0.5555555555555556,2,object_03,1,2298,0,1,5,forest_3,1,memory-2step-stake-s,697,2472680,0.0-19.0-0.1-0.207,A1F2N0IPSNJF3R,3X2LT8FDIZY82IMGP2COH9T7SM78W0,3M0BCWMB8ZCUQZIHIG10XVFVU4UWBM,3,4
208,3,object_08,object_06,357.19999999925,6,2,402.89999999851,0.6666666666666666,2,object_03,1,2304,0,3,6,library_1,1,memory-2step-stake-s,698,2480916,0.0-19.0-0.1-0.208,A1F2N0IPSNJF3R,3X2LT8FDIZY82IMGP2COH9T7SM78W0,3M0BCWMB8ZCUQZIHIG10XVFVU4UWBM,5,6
209,1,object_10,object_07,1016.3000000007,1,2,396.09999999963,0.5555555555555556,1,object_05,1,2309,0,5,6,desert_7,1,memory-2step-stake-s,699,2488958,0.0-19.0-0.1-0.209,A1F2N0IPSNJF3R,3X2LT8FDIZY82IMGP2COH9T7SM78W0,3M0BCWMB8ZCUQZIHIG10XVFVU4UWBM,2,1
210,1,object_10,object_07,312.60000000149,1,2,420.39999999851,0.6666666666666666,1,object_05,1,2315,0,6,4,desert_6,1,memory-2step-stake-s,700,2497196,0.0-19.0-0.1-0.210,A1F2N0IPSNJF3R,3X2LT8FDIZY82IMGP2COH9T7SM78W0,3M0BCWMB8ZCUQZIHIG10XVFVU4UWBM,2,1
211,2,object_01,object_09,394.19999999925,3,1,502.40000000037,0.5555555555555556,1,object_05,1,2320,0,5,2,forest_4,1,memory-2step-stake-s,701,2505414,0.0-19.0-0.1-0.211,A1F2N0IPSNJF3R,3X2LT8FDIZY82IMGP2COH9T7SM78W0,3M0BCWMB8ZCUQZIHIG10XVFVU4UWBM,3,4
212,3,object_08,object_06,327.69999999925,6,2,795.19999999925,0.5555555555555556,2,object_03,5,2345,0,4,5,library_2,1,memory-2step-stake-s,702,2513926,0.0-19.0-0.1-0.212,A1F2N0IPSNJF3R,3X2LT8FDIZY82IMGP2COH9T7SM78W0,3M0BCWMB8ZCUQZIHIG10XVFVU4UWBM,5,6
213,3,object_06,object_08,416.09999999963,6,1,796.59999999963,0.8888888888888888,2,object_03,5,2385,0,5,8,library_6,1,memory-2step-stake-s,703,2522741,0.0-19.0-0.1-0.213,A1F2N0IPSNJF3R,3X2LT8FDIZY82IMGP2COH9T7SM78W0,3M0BCWMB8ZCUQZIHIG10XVFVU4UWBM,6,5
214,1,object_10,object_07,304.90000000037,2,1,367.90000000037,0.5555555555555556,2,object_03,5,2410,0,0,5,desert_3,1,memory-2step-stake-s,704,2530830,0.0-19.0-0.1-0.214,A1F2N0IPSNJF3R,3X2LT8FDIZY82IMGP2COH9T7SM78W0,3M0BCWMB8ZCUQZIHIG10XVFVU4UWBM,2,1
215,3,object_08,object_06,335.0,6,2,427.10000000149,0.3333333333333333,2,object_03,1,2413,0,2,3,library_2,1,memory-2step-stake-s,705,2538773,0.0-19.0-0.1-0.215,A1F2N0IPSNJF3R,3X2LT8FDIZY82IMGP2COH9T7SM78W0,3M0BCWMB8ZCUQZIHIG10XVFVU4UWBM,5,6
216,4,object_04,object_02,375.80000000075,8,1,339.20000000112,0.4444444444444444,2,object_03,5,2433,0,4,4,restaurant_6,1,memory-2step-stake-s,706,2546665,0.0-19.0-0.1-0.216,A1F2N0IPSNJF3R,3X2LT8FDIZY82IMGP2COH9T7SM78W0,3M0BCWMB8ZCUQZIHIG10XVFVU4UWBM,8,7
217,1,object_07,object_10,294.5,2,2,537.59999999963,0.2222222222222222,2,object_03,1,2435,0,4,2,desert_4,1,memory-2step-stake-s,707,2554618,0.0-19.0-0.1-0.217,A1F2N0IPSNJF3R,3X2LT8FDIZY82IMGP2COH9T7SM78W0,3M0BCWMB8ZCUQZIHIG10XVFVU4UWBM,1,2
218,4,object_04,object_02,288.80000000075,8,1,400.09999999963,0.5555555555555556,2,object_03,5,2460,0,4,5,restaurant_4,1,memory-2step-stake-s,708,2562744,0.0-19.0-0.1-0.218,A1F2N0IPSNJF3R,3X2LT8FDIZY82IMGP2COH9T7SM78W0,3M0BCWMB8ZCUQZIHIG10XVFVU4UWBM,8,7
219,1,object_07,object_10,431.10000000149,2,2,454.5,0.5555555555555556,2,object_03,1,2465,0,7,5,desert_7,1,memory-2step-stake-s,709,2570919,0.0-19.0-0.1-0.219,A1F2N0IPSNJF3R,3X2LT8FDIZY82IMGP2COH9T7SM78W0,3M0BCWMB8ZCUQZIHIG10XVFVU4UWBM,1,2
220,4,object_02,object_04,664.09999999963,7,1,716.19999999925,0.5555555555555556,1,object_05,5,2490,0,5,3,restaurant_4,1,memory-2step-stake-s,710,2579352,0.0-19.0-0.1-0.220,A1F2N0IPSNJF3R,3X2LT8FDIZY82IMGP2COH9T7SM78W0,3M0BCWMB8ZCUQZIHIG10XVFVU4UWBM,7,8
221,4,object_02,object_04,663.90000000037,8,2,467.0,0.1111111111111111,2,object_03,1,2491,0,6,1,restaurant_4,1,memory-2step-stake-s,711,2587132,0.0-19.0-0.1-0.221,A1F2N0IPSNJF3R,3X2LT8FDIZY82IMGP2COH9T7SM78W0,3M0BCWMB8ZCUQZIHIG10XVFVU4UWBM,7,8
222,3,object_06,object_08,274.0,6,1,397.40000000037,0.1111111111111111,2,object_03,5,2496,0,3,1,library_2,1,memory-2step-stake-s,712,2594843,0.0-19.0-0.1-0.222,A1F2N0IPSNJF3R,3X2LT8FDIZY82IMGP2COH9T7SM78W0,3M0BCWMB8ZCUQZIHIG10XVFVU4UWBM,6,5
223,1,object_07,object_10,434.60000000149,1,1,381.79999999888,0.6666666666666666,1,object_05,1,2502,0,6,3,desert_4,1,memory-2step-stake-s,713,2602977,0.0-19.0-0.1-0.223,A1F2N0IPSNJF3R,3X2LT8FDIZY82IMGP2COH9T7SM78W0,3M0BCWMB8ZCUQZIHIG10XVFVU4UWBM,1,2
224,2,object_01,object_09,315.0,4,2,350.80000000075,0.5555555555555556,2,object_03,1,2507,0,5,5,forest_4,1,memory-2step-stake-s,714,2611050,0.0-19.0-0.1-0.224,A1F2N0IPSNJF3R,3X2LT8FDIZY82IMGP2COH9T7SM78W0,3M0BCWMB8ZCUQZIHIG10XVFVU4UWBM,3,4
225,4,object_02,object_04,274.5,8,2,301.79999999888,0.5555555555555556,2,object_03,5,2532,0,4,5,restaurant_4,1,memory-2step-stake-s,715,2619070,0.0-19.0-0.1-0.225,A1F2N0IPSNJF3R,3X2LT8FDIZY82IMGP2COH9T7SM78W0,3M0BCWMB8ZCUQZIHIG10XVFVU4UWBM,7,8
226,4,object_02,object_04,367.20000000112,8,2,403.40000000037,0.0,2,object_03,5,2532,0,8,0,restaurant_4,1,memory-2step-stake-s,716,2626687,0.0-19.0-0.1-0.226,A1F2N0IPSNJF3R,3X2LT8FDIZY82IMGP2COH9T7SM78W0,3M0BCWMB8ZCUQZIHIG10XVFVU4UWBM,7,8
227,3,object_08,object_06,580.40000000037,5,1,471.40000000037,0.8888888888888888,1,object_05,5,2572,0,8,1,library_6,1,memory-2step-stake-s,717,2635180,0.0-19.0-0.1-0.227,A1F2N0IPSNJF3R,3X2LT8FDIZY82IMGP2COH9T7SM78W0,3M0BCWMB8ZCUQZIHIG10XVFVU4UWBM,5,6
228,1,object_10,object_07,607.30000000075,1,2,410.60000000149,0.5555555555555556,1,object_05,1,2577,0,5,0,desert_6,1,memory-2step-stake-s,718,2643313,0.0-19.0-0.1-0.228,A1F2N0IPSNJF3R,3X2LT8FDIZY82IMGP2COH9T7SM78W0,3M0BCWMB8ZCUQZIHIG10XVFVU4UWBM,2,1
229,4,object_04,object_02,659.69999999925,7,2,623.40000000037,0.4444444444444444,1,object_05,5,2597,0,4,0,restaurant_3,1,memory-2step-stake-s,719,2651553,0.0-19.0-0.1-0.229,A1F2N0IPSNJF3R,3X2LT8FDIZY82IMGP2COH9T7SM78W0,3M0BCWMB8ZCUQZIHIG10XVFVU4UWBM,8,7
230,3,object_08,object_06,387.30000000075,5,1,375.80000000075,0.1111111111111111,1,object_05,5,2602,0,1,2,library_2,1,memory-2step-stake-s,720,2659241,0.0-19.0-0.1-0.230,A1F2N0IPSNJF3R,3X2LT8FDIZY82IMGP2COH9T7SM78W0,3M0BCWMB8ZCUQZIHIG10XVFVU4UWBM,5,6
231,2,object_01,object_09,715.30000000075,4,2,671.29999999888,0.3333333333333333,2,object_03,1,2605,0,1,3,forest_4,1,memory-2step-stake-s,721,2667358,0.0-19.0-0.1-0.231,A1F2N0IPSNJF3R,3X2LT8FDIZY82IMGP2COH9T7SM78W0,3M0BCWMB8ZCUQZIHIG10XVFVU4UWBM,3,4
232,2,object_09,object_01,408.19999999925,4,1,547.90000000037,0.3333333333333333,2,object_03,1,2608,0,3,3,forest_7,1,memory-2step-stake-s,722,2675421,0.0-19.0-0.1-0.232,A1F2N0IPSNJF3R,3X2LT8FDIZY82IMGP2COH9T7SM78W0,3M0BCWMB8ZCUQZIHIG10XVFVU4UWBM,4,3
233,4,object_04,object_02,808.80000000075,7,2,564.19999999925,0.4444444444444444,1,object_05,1,2612,0,4,7,restaurant_3,1,memory-2step-stake-s,723,2683605,0.0-19.0-0.1-0.233,A1F2N0IPSNJF3R,3X2LT8FDIZY82IMGP2COH9T7SM78W0,3M0BCWMB8ZCUQZIHIG10XVFVU4UWBM,8,7
234,2,object_01,object_09,703.69999999925,3,1,458.80000000075,0.5555555555555556,1,object_05,5,2637,0,5,9,forest_6,1,memory-2step-stake-s,724,2691786,0.0-19.0-0.1-0.234,A1F2N0IPSNJF3R,3X2LT8FDIZY82IMGP2COH9T7SM78W0,3M0BCWMB8ZCUQZIHIG10XVFVU4UWBM,3,4
235,2,object_09,object_01,626.0,3,2,1045.5,0.6666666666666666,1,object_05,1,2643,0,6,6,forest_4,1,memory-2step-stake-s,725,2700651,0.0-19.0-0.1-0.235,A1F2N0IPSNJF3R,3X2LT8FDIZY82IMGP2COH9T7SM78W0,3M0BCWMB8ZCUQZIHIG10XVFVU4UWBM,4,3
236,1,object_07,object_10,445.59999999963,1,1,736.80000000075,0.3333333333333333,1,object_05,1,2646,0,3,7,desert_7,1,memory-2step-stake-s,726,2708908,0.0-19.0-0.1-0.236,A1F2N0IPSNJF3R,3X2LT8FDIZY82IMGP2COH9T7SM78W0,3M0BCWMB8ZCUQZIHIG10XVFVU4UWBM,1,2
237,3,object_06,object_08,561.09999999963,5,2,637.30000000075,0.1111111111111111,1,object_05,1,2647,0,1,7,library_6,1,memory-2step-stake-s,727,2716861,0.0-19.0-0.1-0.237,A1F2N0IPSNJF3R,3X2LT8FDIZY82IMGP2COH9T7SM78W0,3M0BCWMB8ZCUQZIHIG10XVFVU4UWBM,6,5
238,2,object_01,object_09,367.29999999888,3,1,441.79999999888,0.0,1,object_05,5,2647,0,0,6,forest_6,1,memory-2step-stake-s,728,2724448,0.0-19.0-0.1-0.238,A1F2N0IPSNJF3R,3X2LT8FDIZY82IMGP2COH9T7SM78W0,3M0BCWMB8ZCUQZIHIG10XVFVU4UWBM,3,4
239,3,object_08,object_06,368.5,6,2,363.40000000037,1.0,2,object_03,1,2656,0,1,9,library_8,1,memory-2step-stake-s,729,2732932,0.0-19.0-0.1-0.239,A1F2N0IPSNJF3R,3X2LT8FDIZY82IMGP2COH9T7SM78W0,3M0BCWMB8ZCUQZIHIG10XVFVU4UWBM,5,6
240,2,object_01,object_09,339.59999999963,4,2,699.09999999963,0.7777777777777778,2,object_03,1,2663,0,2,7,forest_6,1,memory-2step-stake-s,730,2741559,0.0-19.0-0.1-0.240,A1F2N0IPSNJF3R,3X2LT8FDIZY82IMGP2COH9T7SM78W0,3M0BCWMB8ZCUQZIHIG10XVFVU4UWBM,3,4
241,3,object_06,object_08,288.09999999963,5,2,412.5,0.1111111111111111,1,object_05,5,2668,0,1,8,library_8,1,memory-2step-stake-s,731,2749284,0.0-19.0-0.1-0.241,A1F2N0IPSNJF3R,3X2LT8FDIZY82IMGP2COH9T7SM78W0,3M0BCWMB8ZCUQZIHIG10XVFVU4UWBM,6,5
242,4,object_02,object_04,292.09999999963,8,2,464.0,0.8888888888888888,2,object_03,1,2676,0,1,8,restaurant_4,1,memory-2step-stake-s,732,2757766,0.0-19.0-0.1-0.242,A1F2N0IPSNJF3R,3X2LT8FDIZY82IMGP2COH9T7SM78W0,3M0BCWMB8ZCUQZIHIG10XVFVU4UWBM,7,8
243,4,object_02,object_04,617.20000000112,7,1,672.79999999888,0.0,1,object_05,1,2676,0,0,7,restaurant_6,1,memory-2step-stake-s,733,2765656,0.0-19.0-0.1-0.243,A1F2N0IPSNJF3R,3X2LT8FDIZY82IMGP2COH9T7SM78W0,3M0BCWMB8ZCUQZIHIG10XVFVU4UWBM,7,8
244,1,object_10,object_07,263.90000000037,1,2,154.89999999851,0.1111111111111111,1,object_05,1,2677,0,1,6,desert_3,1,memory-2step-stake-s,734,2773133,0.0-19.0-0.1-0.244,A1F2N0IPSNJF3R,3X2LT8FDIZY82IMGP2COH9T7SM78W0,3M0BCWMB8ZCUQZIHIG10XVFVU4UWBM,2,1
245,3,object_08,object_06,529.59999999963,5,1,519.59999999963,0.1111111111111111,1,object_05,5,2682,0,1,8,library_1,1,memory-2step-stake-s,735,2780971,0.0-19.0-0.1-0.245,A1F2N0IPSNJF3R,3X2LT8FDIZY82IMGP2COH9T7SM78W0,3M0BCWMB8ZCUQZIHIG10XVFVU4UWBM,5,6
246,4,object_02,object_04,557.09999999963,8,2,440.30000000075,0.8888888888888888,2,object_03,5,2722,0,3,8,restaurant_6,1,memory-2step-stake-s,736,2789363,0.0-19.0-0.1-0.246,A1F2N0IPSNJF3R,3X2LT8FDIZY82IMGP2COH9T7SM78W0,3M0BCWMB8ZCUQZIHIG10XVFVU4UWBM,7,8
247,4,object_04,object_02,580.59999999963,8,1,593.0,0.8888888888888888,2,object_03,5,2762,0,4,8,restaurant_1,1,memory-2step-stake-s,737,2797976,0.0-19.0-0.1-0.247,A1F2N0IPSNJF3R,3X2LT8FDIZY82IMGP2COH9T7SM78W0,3M0BCWMB8ZCUQZIHIG10XVFVU4UWBM,8,7
248,3,object_06,object_08,389.79999999888,5,2,389.59999999963,0.8888888888888888,1,object_05,5,2802,0,8,8,library_6,1,memory-2step-stake-s,738,2806395,0.0-19.0-0.1-0.248,A1F2N0IPSNJF3R,3X2LT8FDIZY82IMGP2COH9T7SM78W0,3M0BCWMB8ZCUQZIHIG10XVFVU4UWBM,6,5
249,2,object_01,object_09,818.20000000112,4,2,589.70000000112,0.8888888888888888,2,object_03,1,2810,0,7,8,forest_7,1,memory-2step-stake-s,739,2815006,0.0-19.0-0.1-0.249,A1F2N0IPSNJF3R,3X2LT8FDIZY82IMGP2COH9T7SM78W0,3M0BCWMB8ZCUQZIHIG10XVFVU4UWBM,3,4
250,4,object_02,object_04,665.0,7,1,636.19999999925,0.8888888888888888,1,object_05,5,2850,0,8,8,restaurant_3,1,memory-2step-stake-s,740,2823675,0.0-19.0-0.1-0.250,A1F2N0IPSNJF3R,3X2LT8FDIZY82IMGP2COH9T7SM78W0,3M0BCWMB8ZCUQZIHIG10XVFVU4UWBM,7,8
251,2,object_01,object_09,594.30000000075,4,2,453.89999999851,0.3333333333333333,2,object_03,1,2853,0,9,3,forest_4,1,memory-2step-stake-s,741,2831651,0.0-19.0-0.1-0.251,A1F2N0IPSNJF3R,3X2LT8FDIZY82IMGP2COH9T7SM78W0,3M0BCWMB8ZCUQZIHIG10XVFVU4UWBM,3,4
252,2,object_09,object_01,665.90000000037,4,1,517.30000000075,0.4444444444444444,2,object_03,1,2857,0,7,4,forest_4,1,memory-2step-stake-s,742,2839786,0.0-19.0-0.1-0.252,A1F2N0IPSNJF3R,3X2LT8FDIZY82IMGP2COH9T7SM78W0,3M0BCWMB8ZCUQZIHIG10XVFVU4UWBM,4,3
253,2,object_09,object_01,650.70000000112,3,2,525.69999999925,0.7777777777777778,1,object_05,1,2864,0,7,4,forest_6,1,memory-2step-stake-s,743,2848164,0.0-19.0-0.1-0.253,A1F2N0IPSNJF3R,3X2LT8FDIZY82IMGP2COH9T7SM78W0,3M0BCWMB8ZCUQZIHIG10XVFVU4UWBM,4,3
254,4,object_02,object_04,274.90000000037,8,2,401.60000000149,0.6666666666666666,2,object_03,5,2894,0,4,6,restaurant_4,1,memory-2step-stake-s,744,2856395,0.0-19.0-0.1-0.254,A1F2N0IPSNJF3R,3X2LT8FDIZY82IMGP2COH9T7SM78W0,3M0BCWMB8ZCUQZIHIG10XVFVU4UWBM,7,8
255,1,object_10,object_07,611.5,1,2,351.0,0.4444444444444444,1,object_05,1,2898,0,4,8,desert_7,1,memory-2step-stake-s,745,2864364,0.0-19.0-0.1-0.255,A1F2N0IPSNJF3R,3X2LT8FDIZY82IMGP2COH9T7SM78W0,3M0BCWMB8ZCUQZIHIG10XVFVU4UWBM,2,1
