,state1,stim_left,stim_right,rt_1,choice1,response1,rt_2,points,state2,stim_state2,stake,score,practice,rews1,rews2,background,high_arm,trial_type,trial_index,time_elapsed,internal_node_id,subid,hitid,assignmentid,stim_left_num,stim_right_num
0,3,object_05,object_02,804.77000027895,6,2,625.76499953866,0.8888888888888888,2,object_09,5,40,0,0,8,library_6,1,memory-2step-stake-s,498,713575,0.0-19.0-0.0-0.0,A2L2E6J3D23CN4,306996CF7Z0Y3F4KVQ7DFLTE4FJB13,3PDJHANYK9W6NX6XRQYSLCJG1F4H6K,5,6
1,1,object_03,object_06,712.57499977946,2,1,678.25500015169,0.6666666666666666,2,object_09,1,46,0,2,6,desert_1,1,memory-2step-stake-s,499,722074,0.0-19.0-0.0-0.1,A2L2E6J3D23CN4,306996CF7Z0Y3F4KVQ7DFLTE4FJB13,3PDJHANYK9W6NX6XRQYSLCJG1F4H6K,2,1
2,2,object_04,object_10,798.84499963373,3,2,489.98999968171,0.1111111111111111,1,object_07,1,47,0,1,7,forest_4,1,memory-2step-stake-s,500,729880,0.0-19.0-0.0-0.2,A2L2E6J3D23CN4,306996CF7Z0Y3F4KVQ7DFLTE4FJB13,3PDJHANYK9W6NX6XRQYSLCJG1F4H6K,4,3
3,2,object_10,object_04,525.17999988049,3,1,481.38500005007,0.3333333333333333,1,object_07,1,50,0,3,5,forest_3,1,memory-2step-stake-s,501,737878,0.0-19.0-0.0-0.3,A2L2E6J3D23CN4,306996CF7Z0Y3F4KVQ7DFLTE4FJB13,3PDJHANYK9W6NX6XRQYSLCJG1F4H6K,3,4
4,4,object_01,object_08,351.86000075191,8,2,318.45000013709,0.8888888888888888,2,object_09,5,90,0,3,8,restaurant_6,1,memory-2step-stake-s,502,746224,0.0-19.0-0.0-0.4,A2L2E6J3D23CN4,306996CF7Z0Y3F4KVQ7DFLTE4FJB13,3PDJHANYK9W6NX6XRQYSLCJG1F4H6K,7,8
5,3,object_02,object_05,433.81499964744,6,1,513.53000011295,0.8888888888888888,2,object_09,5,130,0,2,8,library_4,1,memory-2step-stake-s,503,754760,0.0-19.0-0.0-0.5,A2L2E6J3D23CN4,306996CF7Z0Y3F4KVQ7DFLTE4FJB13,3PDJHANYK9W6NX6XRQYSLCJG1F4H6K,6,5
6,1,object_03,object_06,278.23000028729,1,2,736.49000003934,0.3333333333333333,1,object_07,5,145,0,3,7,desert_1,1,memory-2step-stake-s,504,763015,0.0-19.0-0.0-0.6,A2L2E6J3D23CN4,306996CF7Z0Y3F4KVQ7DFLTE4FJB13,3PDJHANYK9W6NX6XRQYSLCJG1F4H6K,2,1
7,4,object_08,object_01,304.61500026286,7,2,475.18000006676,0.2222222222222222,1,object_07,1,147,0,2,9,restaurant_7,1,memory-2step-stake-s,505,770907,0.0-19.0-0.0-0.7,A2L2E6J3D23CN4,306996CF7Z0Y3F4KVQ7DFLTE4FJB13,3PDJHANYK9W6NX6XRQYSLCJG1F4H6K,8,7
8,2,object_10,object_04,336.07499953359,3,1,346.97499964386,0.1111111111111111,1,object_07,1,148,0,1,8,forest_2,1,memory-2step-stake-s,506,778568,0.0-19.0-0.0-0.8,A2L2E6J3D23CN4,306996CF7Z0Y3F4KVQ7DFLTE4FJB13,3PDJHANYK9W6NX6XRQYSLCJG1F4H6K,3,4
9,1,object_06,object_03,7.3699997738004,2,2,347.40999992937,0.8888888888888888,2,object_09,1,156,0,1,8,desert_8,1,memory-2step-stake-s,507,786939,0.0-19.0-0.0-0.9,A2L2E6J3D23CN4,306996CF7Z0Y3F4KVQ7DFLTE4FJB13,3PDJHANYK9W6NX6XRQYSLCJG1F4H6K,1,2
10,3,object_02,object_05,445.4600000754,6,1,394.9499996379,0.7777777777777778,2,object_09,5,191,0,3,7,library_4,1,memory-2step-stake-s,508,795255,0.0-19.0-0.0-0.10,A2L2E6J3D23CN4,306996CF7Z0Y3F4KVQ7DFLTE4FJB13,3PDJHANYK9W6NX6XRQYSLCJG1F4H6K,6,5
11,3,object_05,object_02,409.27499998361,6,2,331.24499954283,0.7777777777777778,2,object_09,5,226,0,2,7,library_4,1,memory-2step-stake-s,509,803505,0.0-19.0-0.0-0.11,A2L2E6J3D23CN4,306996CF7Z0Y3F4KVQ7DFLTE4FJB13,3PDJHANYK9W6NX6XRQYSLCJG1F4H6K,5,6
12,3,object_02,object_05,223.38499967009,5,2,417.19499975443,0.4444444444444444,1,object_07,5,246,0,4,3,library_4,1,memory-2step-stake-s,510,811538,0.0-19.0-0.0-0.12,A2L2E6J3D23CN4,306996CF7Z0Y3F4KVQ7DFLTE4FJB13,3PDJHANYK9W6NX6XRQYSLCJG1F4H6K,6,5
13,1,object_03,object_06,431.85499962419,1,2,451.43499970436,0.4444444444444444,1,object_07,1,250,0,4,1,desert_3,1,memory-2step-stake-s,511,819608,0.0-19.0-0.0-0.13,A2L2E6J3D23CN4,306996CF7Z0Y3F4KVQ7DFLTE4FJB13,3PDJHANYK9W6NX6XRQYSLCJG1F4H6K,2,1
14,1,object_06,object_03,-1.0,-1,-1,-1.0,0.0,-,0,1,250,0,3,3,desert_8,1,memory-2step-stake-s,512,826117,0.0-19.0-0.0-0.14,A2L2E6J3D23CN4,306996CF7Z0Y3F4KVQ7DFLTE4FJB13,3PDJHANYK9W6NX6XRQYSLCJG1F4H6K,1,2
15,3,object_02,object_05,103.43000013381,5,2,374.16000012308,0.4444444444444444,1,object_07,5,270,0,4,2,library_3,1,memory-2step-stake-s,513,834110,0.0-19.0-0.0-0.15,A2L2E6J3D23CN4,306996CF7Z0Y3F4KVQ7DFLTE4FJB13,3PDJHANYK9W6NX6XRQYSLCJG1F4H6K,6,5
16,4,object_01,object_08,436.75999995321,8,2,463.29000033438,0.1111111111111111,2,object_09,5,275,0,3,1,restaurant_6,1,memory-2step-stake-s,514,841890,0.0-19.0-0.0-0.16,A2L2E6J3D23CN4,306996CF7Z0Y3F4KVQ7DFLTE4FJB13,3PDJHANYK9W6NX6XRQYSLCJG1F4H6K,7,8
17,3,object_05,object_02,762.68000062555,5,1,301.97999998927,0.5555555555555556,1,object_07,5,300,0,5,5,library_6,1,memory-2step-stake-s,515,849915,0.0-19.0-0.0-0.17,A2L2E6J3D23CN4,306996CF7Z0Y3F4KVQ7DFLTE4FJB13,3PDJHANYK9W6NX6XRQYSLCJG1F4H6K,5,6
18,4,object_01,object_08,418.30999962986,8,2,431.4099997282,0.4444444444444444,2,object_09,5,320,0,4,4,restaurant_1,1,memory-2step-stake-s,516,857965,0.0-19.0-0.0-0.18,A2L2E6J3D23CN4,306996CF7Z0Y3F4KVQ7DFLTE4FJB13,3PDJHANYK9W6NX6XRQYSLCJG1F4H6K,7,8
19,2,object_04,object_10,4.3649999424815,4,1,311.28500029445,0.1111111111111111,2,object_09,1,321,0,7,1,forest_4,1,memory-2step-stake-s,517,865593,0.0-19.0-0.0-0.19,A2L2E6J3D23CN4,306996CF7Z0Y3F4KVQ7DFLTE4FJB13,3PDJHANYK9W6NX6XRQYSLCJG1F4H6K,4,3
20,2,object_04,object_10,325.69000031799,3,2,303.80500014871,1.0,1,object_07,5,366,0,9,0,forest_5,1,memory-2step-stake-s,518,874021,0.0-19.0-0.0-0.20,A2L2E6J3D23CN4,306996CF7Z0Y3F4KVQ7DFLTE4FJB13,3PDJHANYK9W6NX6XRQYSLCJG1F4H6K,4,3
21,2,object_10,object_04,984.29499939084,4,2,662.6350004226,0.4444444444444444,2,object_09,5,386,0,3,4,forest_5,1,memory-2step-stake-s,519,882301,0.0-19.0-0.0-0.21,A2L2E6J3D23CN4,306996CF7Z0Y3F4KVQ7DFLTE4FJB13,3PDJHANYK9W6NX6XRQYSLCJG1F4H6K,3,4
22,4,object_01,object_08,39.194999262691,8,2,139.34000022709,0.7777777777777778,2,object_09,5,421,0,3,7,restaurant_1,1,memory-2step-stake-s,520,890363,0.0-19.0-0.0-0.22,A2L2E6J3D23CN4,306996CF7Z0Y3F4KVQ7DFLTE4FJB13,3PDJHANYK9W6NX6XRQYSLCJG1F4H6K,7,8
23,2,object_04,object_10,178.96499950439,4,1,294.87999994308,0.7777777777777778,2,object_09,1,428,0,3,7,forest_2,1,memory-2step-stake-s,521,898579,0.0-19.0-0.0-0.23,A2L2E6J3D23CN4,306996CF7Z0Y3F4KVQ7DFLTE4FJB13,3PDJHANYK9W6NX6XRQYSLCJG1F4H6K,4,3
24,1,object_03,object_06,152.99499966204,1,2,288.89499977231,0.7777777777777778,1,object_07,1,435,0,7,7,desert_1,1,memory-2step-stake-s,522,906791,0.0-19.0-0.0-0.24,A2L2E6J3D23CN4,306996CF7Z0Y3F4KVQ7DFLTE4FJB13,3PDJHANYK9W6NX6XRQYSLCJG1F4H6K,2,1
25,2,object_04,object_10,391.90500043333,4,1,453.16000003368,0.8888888888888888,2,object_09,1,443,0,8,8,forest_5,1,memory-2step-stake-s,523,915264,0.0-19.0-0.0-0.25,A2L2E6J3D23CN4,306996CF7Z0Y3F4KVQ7DFLTE4FJB13,3PDJHANYK9W6NX6XRQYSLCJG1F4H6K,4,3
26,3,object_02,object_05,369.69999969006,5,2,405.51499929279,0.8888888888888888,1,object_07,5,483,0,8,5,library_6,1,memory-2step-stake-s,524,923691,0.0-19.0-0.0-0.26,A2L2E6J3D23CN4,306996CF7Z0Y3F4KVQ7DFLTE4FJB13,3PDJHANYK9W6NX6XRQYSLCJG1F4H6K,6,5
27,3,object_05,object_02,-1.0,-1,-1,-1.0,0.0,-,0,5,483,0,9,6,library_3,1,memory-2step-stake-s,525,930201,0.0-19.0-0.0-0.27,A2L2E6J3D23CN4,306996CF7Z0Y3F4KVQ7DFLTE4FJB13,3PDJHANYK9W6NX6XRQYSLCJG1F4H6K,5,6
28,2,object_10,object_04,114.59999997169,3,1,407.90999960154,0.8888888888888888,1,object_07,1,491,0,8,6,forest_4,1,memory-2step-stake-s,526,938631,0.0-19.0-0.0-0.28,A2L2E6J3D23CN4,306996CF7Z0Y3F4KVQ7DFLTE4FJB13,3PDJHANYK9W6NX6XRQYSLCJG1F4H6K,3,4
29,2,object_04,object_10,219.20999977738,3,2,105.6099999696,0.4444444444444444,1,object_07,5,511,0,4,6,forest_4,1,memory-2step-stake-s,527,946355,0.0-19.0-0.0-0.29,A2L2E6J3D23CN4,306996CF7Z0Y3F4KVQ7DFLTE4FJB13,3PDJHANYK9W6NX6XRQYSLCJG1F4H6K,4,3
30,3,object_02,object_05,231.11499939114,6,1,320.42500004172,0.7777777777777778,2,object_09,5,546,0,1,7,library_4,1,memory-2step-stake-s,528,954596,0.0-19.0-0.0-0.30,A2L2E6J3D23CN4,306996CF7Z0Y3F4KVQ7DFLTE4FJB13,3PDJHANYK9W6NX6XRQYSLCJG1F4H6K,6,5
31,3,object_05,object_02,62.28500045836,6,2,22.92999997735,1.0,2,object_09,5,591,0,1,9,library_3,1,memory-2step-stake-s,529,962742,0.0-19.0-0.0-0.31,A2L2E6J3D23CN4,306996CF7Z0Y3F4KVQ7DFLTE4FJB13,3PDJHANYK9W6NX6XRQYSLCJG1F4H6K,5,6
32,2,object_10,object_04,127.76499986649,3,1,253.22000030428,0.2222222222222222,1,object_07,1,593,0,2,8,forest_3,1,memory-2step-stake-s,530,970416,0.0-19.0-0.0-0.32,A2L2E6J3D23CN4,306996CF7Z0Y3F4KVQ7DFLTE4FJB13,3PDJHANYK9W6NX6XRQYSLCJG1F4H6K,3,4
33,4,object_08,object_01,106.0399999842,7,2,320.05000021309,0.0,1,object_07,5,593,0,0,9,restaurant_6,1,memory-2step-stake-s,531,977952,0.0-19.0-0.0-0.33,A2L2E6J3D23CN4,306996CF7Z0Y3F4KVQ7DFLTE4FJB13,3PDJHANYK9W6NX6XRQYSLCJG1F4H6K,8,7
34,1,object_06,object_03,63.619999215007,2,2,232.9400004819,1.0,2,object_09,5,638,0,2,9,desert_4,1,memory-2step-stake-s,532,986309,0.0-19.0-0.0-0.34,A2L2E6J3D23CN4,306996CF7Z0Y3F4KVQ7DFLTE4FJB13,3PDJHANYK9W6NX6XRQYSLCJG1F4H6K,1,2
35,4,object_08,object_01,404.57999985665,8,1,465.00999946147,0.7777777777777778,2,object_09,1,645,0,3,7,restaurant_1,1,memory-2step-stake-s,533,994700,0.0-19.0-0.0-0.35,A2L2E6J3D23CN4,306996CF7Z0Y3F4KVQ7DFLTE4FJB13,3PDJHANYK9W6NX6XRQYSLCJG1F4H6K,8,7
36,3,object_02,object_05,147.2699996084,5,2,464.84000049531,0.7777777777777778,1,object_07,5,680,0,7,8,library_3,1,memory-2step-stake-s,534,1003086,0.0-19.0-0.0-0.36,A2L2E6J3D23CN4,306996CF7Z0Y3F4KVQ7DFLTE4FJB13,3PDJHANYK9W6NX6XRQYSLCJG1F4H6K,6,5
37,3,object_05,object_02,147.59499952197,5,1,416.6599996388,0.6666666666666666,1,object_07,1,686,0,6,9,library_4,1,memory-2step-stake-s,535,1011324,0.0-19.0-0.0-0.37,A2L2E6J3D23CN4,306996CF7Z0Y3F4KVQ7DFLTE4FJB13,3PDJHANYK9W6NX6XRQYSLCJG1F4H6K,5,6
38,2,object_04,object_10,122.65500053763,3,2,441.07000064105,0.4444444444444444,1,object_07,1,690,0,4,9,forest_3,1,memory-2step-stake-s,536,1019385,0.0-19.0-0.0-0.38,A2L2E6J3D23CN4,306996CF7Z0Y3F4KVQ7DFLTE4FJB13,3PDJHANYK9W6NX6XRQYSLCJG1F4H6K,4,3
39,3,object_02,object_05,180.89500069618,6,1,345.94999998808,1.0,2,object_09,5,735,0,3,9,library_6,1,memory-2step-stake-s,537,1027858,0.0-19.0-0.0-0.39,A2L2E6J3D23CN4,306996CF7Z0Y3F4KVQ7DFLTE4FJB13,3PDJHANYK9W6NX6XRQYSLCJG1F4H6K,6,5
40,3,object_02,object_05,446.49000000209,5,2,454.64000012726,0.2222222222222222,1,object_07,1,737,0,2,9,library_4,1,memory-2step-stake-s,538,1035730,0.0-19.0-0.0-0.40,A2L2E6J3D23CN4,306996CF7Z0Y3F4KVQ7DFLTE4FJB13,3PDJHANYK9W6NX6XRQYSLCJG1F4H6K,6,5
41,4,object_01,object_08,254.45999950171,8,2,412.80000004917,1.0,2,object_09,5,782,0,2,9,restaurant_7,1,memory-2step-stake-s,539,1044265,0.0-19.0-0.0-0.41,A2L2E6J3D23CN4,306996CF7Z0Y3F4KVQ7DFLTE4FJB13,3PDJHANYK9W6NX6XRQYSLCJG1F4H6K,7,8
42,3,object_05,object_02,540.87499994785,5,1,368.53499989957,0.3333333333333333,1,object_07,5,797,0,3,8,library_4,1,memory-2step-stake-s,540,1052151,0.0-19.0-0.0-0.42,A2L2E6J3D23CN4,306996CF7Z0Y3F4KVQ7DFLTE4FJB13,3PDJHANYK9W6NX6XRQYSLCJG1F4H6K,5,6
43,1,object_06,object_03,670.50000000745,2,2,618.54999978095,0.7777777777777778,2,object_09,1,804,0,2,7,desert_4,1,memory-2step-stake-s,541,1060691,0.0-19.0-0.0-0.43,A2L2E6J3D23CN4,306996CF7Z0Y3F4KVQ7DFLTE4FJB13,3PDJHANYK9W6NX6XRQYSLCJG1F4H6K,1,2
44,2,object_04,object_10,688.87999933213,3,2,286.22999973595,0.3333333333333333,1,object_07,5,819,0,3,9,forest_2,1,memory-2step-stake-s,542,1068494,0.0-19.0-0.0-0.44,A2L2E6J3D23CN4,306996CF7Z0Y3F4KVQ7DFLTE4FJB13,3PDJHANYK9W6NX6XRQYSLCJG1F4H6K,4,3
45,3,object_02,object_05,131.43000006676,6,1,384.34999994934,1.0,2,object_09,5,864,0,1,9,library_4,1,memory-2step-stake-s,543,1077003,0.0-19.0-0.0-0.45,A2L2E6J3D23CN4,306996CF7Z0Y3F4KVQ7DFLTE4FJB13,3PDJHANYK9W6NX6XRQYSLCJG1F4H6K,6,5
46,4,object_08,object_01,250.22499915212,7,2,292.0899996534,0.1111111111111111,1,object_07,5,869,0,1,7,restaurant_1,1,memory-2step-stake-s,544,1084608,0.0-19.0-0.0-0.46,A2L2E6J3D23CN4,306996CF7Z0Y3F4KVQ7DFLTE4FJB13,3PDJHANYK9W6NX6XRQYSLCJG1F4H6K,8,7
47,1,object_03,object_06,92.875000089407,2,1,274.97499994934,0.8888888888888888,2,object_09,1,877,0,1,8,desert_1,1,memory-2step-stake-s,545,1092907,0.0-19.0-0.0-0.47,A2L2E6J3D23CN4,306996CF7Z0Y3F4KVQ7DFLTE4FJB13,3PDJHANYK9W6NX6XRQYSLCJG1F4H6K,2,1
48,1,object_06,object_03,426.81499943137,2,2,213.05999998003,0.8888888888888888,2,object_09,1,885,0,1,8,desert_8,1,memory-2step-stake-s,546,1101142,0.0-19.0-0.0-0.48,A2L2E6J3D23CN4,306996CF7Z0Y3F4KVQ7DFLTE4FJB13,3PDJHANYK9W6NX6XRQYSLCJG1F4H6K,1,2
49,4,object_01,object_08,171.47499974817,8,2,452.1099999547,1.0,2,object_09,5,930,0,3,9,restaurant_1,1,memory-2step-stake-s,547,1109716,0.0-19.0-0.0-0.49,A2L2E6J3D23CN4,306996CF7Z0Y3F4KVQ7DFLTE4FJB13,3PDJHANYK9W6NX6XRQYSLCJG1F4H6K,7,8
50,4,object_01,object_08,142.62000005692,7,1,806.47500045598,0.6666666666666666,1,object_07,5,960,0,6,7,restaurant_6,1,memory-2step-stake-s,548,1118344,0.0-19.0-0.0-0.50,A2L2E6J3D23CN4,306996CF7Z0Y3F4KVQ7DFLTE4FJB13,3PDJHANYK9W6NX6XRQYSLCJG1F4H6K,7,8
51,2,object_10,object_04,32.945000566542,4,2,521.36000059545,0.5555555555555556,2,object_09,5,985,0,6,5,forest_3,1,memory-2step-stake-s,549,1126585,0.0-19.0-0.0-0.51,A2L2E6J3D23CN4,306996CF7Z0Y3F4KVQ7DFLTE4FJB13,3PDJHANYK9W6NX6XRQYSLCJG1F4H6K,3,4
52,2,object_04,object_10,421.2899999693,4,1,365.35500083119,0.4444444444444444,2,object_09,1,989,0,7,4,forest_2,1,memory-2step-stake-s,550,1134568,0.0-19.0-0.0-0.52,A2L2E6J3D23CN4,306996CF7Z0Y3F4KVQ7DFLTE4FJB13,3PDJHANYK9W6NX6XRQYSLCJG1F4H6K,4,3
53,3,object_02,object_05,373.3949996531,5,2,354.63499929756,0.8888888888888888,1,object_07,5,1029,0,8,3,library_7,1,memory-2step-stake-s,551,1142945,0.0-19.0-0.0-0.53,A2L2E6J3D23CN4,306996CF7Z0Y3F4KVQ7DFLTE4FJB13,3PDJHANYK9W6NX6XRQYSLCJG1F4H6K,6,5
54,1,object_03,object_06,-1.0,-1,-1,-1.0,0.0,-,0,5,1029,0,6,6,desert_4,1,memory-2step-stake-s,552,1149456,0.0-19.0-0.0-0.54,A2L2E6J3D23CN4,306996CF7Z0Y3F4KVQ7DFLTE4FJB13,3PDJHANYK9W6NX6XRQYSLCJG1F4H6K,2,1
55,4,object_01,object_08,126.36499945074,8,2,1115.275000222,0.7777777777777778,2,object_09,5,1064,0,6,7,restaurant_7,1,memory-2step-stake-s,553,1158492,0.0-19.0-0.0-0.55,A2L2E6J3D23CN4,306996CF7Z0Y3F4KVQ7DFLTE4FJB13,3PDJHANYK9W6NX6XRQYSLCJG1F4H6K,7,8
56,2,object_10,object_04,106.13000020385,3,1,105.99999967963,0.6666666666666666,1,object_07,1,1070,0,6,8,forest_2,1,memory-2step-stake-s,554,1166416,0.0-19.0-0.0-0.56,A2L2E6J3D23CN4,306996CF7Z0Y3F4KVQ7DFLTE4FJB13,3PDJHANYK9W6NX6XRQYSLCJG1F4H6K,3,4
57,3,object_05,object_02,76.030000112951,6,2,49.575000070035,0.8888888888888888,2,object_09,5,1110,0,3,8,library_4,1,memory-2step-stake-s,555,1174487,0.0-19.0-0.0-0.57,A2L2E6J3D23CN4,306996CF7Z0Y3F4KVQ7DFLTE4FJB13,3PDJHANYK9W6NX6XRQYSLCJG1F4H6K,5,6
58,2,object_04,object_10,73.280000127852,3,2,39.709999226034,0.4444444444444444,1,object_07,1,1114,0,4,5,forest_4,1,memory-2step-stake-s,556,1182144,0.0-19.0-0.0-0.58,A2L2E6J3D23CN4,306996CF7Z0Y3F4KVQ7DFLTE4FJB13,3PDJHANYK9W6NX6XRQYSLCJG1F4H6K,4,3
59,1,object_06,object_03,86.609999649227,1,1,73.300000280142,0.5555555555555556,1,object_07,5,1139,0,5,4,desert_1,1,memory-2step-stake-s,557,1189935,0.0-19.0-0.0-0.59,A2L2E6J3D23CN4,306996CF7Z0Y3F4KVQ7DFLTE4FJB13,3PDJHANYK9W6NX6XRQYSLCJG1F4H6K,1,2
60,3,object_05,object_02,62.084999866784,6,2,164.00500014424,0.6666666666666666,2,object_09,5,1169,0,4,6,library_7,1,memory-2step-stake-s,558,1197919,0.0-19.0-0.0-0.60,A2L2E6J3D23CN4,306996CF7Z0Y3F4KVQ7DFLTE4FJB13,3PDJHANYK9W6NX6XRQYSLCJG1F4H6K,5,6
61,1,object_03,object_06,25.245000608265,1,2,189.92500007153,0.7777777777777778,1,object_07,1,1176,0,7,5,desert_3,1,memory-2step-stake-s,559,1206032,0.0-19.0-0.0-0.61,A2L2E6J3D23CN4,306996CF7Z0Y3F4KVQ7DFLTE4FJB13,3PDJHANYK9W6NX6XRQYSLCJG1F4H6K,2,1
62,2,object_04,object_10,98.129999823868,3,2,19.239999353886,1.0,1,object_07,1,1185,0,9,9,forest_2,1,memory-2step-stake-s,560,1214172,0.0-19.0-0.0-0.62,A2L2E6J3D23CN4,306996CF7Z0Y3F4KVQ7DFLTE4FJB13,3PDJHANYK9W6NX6XRQYSLCJG1F4H6K,4,3
63,4,object_08,object_01,24.164999835193,8,1,43.860000558197,0.8888888888888888,2,object_09,5,1225,0,9,8,restaurant_1,1,memory-2step-stake-s,561,1222236,0.0-19.0-0.0-0.63,A2L2E6J3D23CN4,306996CF7Z0Y3F4KVQ7DFLTE4FJB13,3PDJHANYK9W6NX6XRQYSLCJG1F4H6K,8,7
64,4,object_08,object_01,121.98999989778,7,2,514.32500034571,0.5555555555555556,1,object_07,5,1250,0,5,8,restaurant_7,1,memory-2step-stake-s,562,1230470,0.0-19.0-0.0-0.64,A2L2E6J3D23CN4,306996CF7Z0Y3F4KVQ7DFLTE4FJB13,3PDJHANYK9W6NX6XRQYSLCJG1F4H6K,8,7
65,3,object_05,object_02,62.680000439286,5,1,125.47499965876,0.4444444444444444,1,object_07,5,1270,0,4,7,library_6,1,memory-2step-stake-s,563,1238215,0.0-19.0-0.0-0.65,A2L2E6J3D23CN4,306996CF7Z0Y3F4KVQ7DFLTE4FJB13,3PDJHANYK9W6NX6XRQYSLCJG1F4H6K,5,6
66,4,object_01,object_08,42.730000801384,8,2,411.76499985158,0.6666666666666666,2,object_09,5,1300,0,1,6,restaurant_6,1,memory-2step-stake-s,564,1246449,0.0-19.0-0.0-0.66,A2L2E6J3D23CN4,306996CF7Z0Y3F4KVQ7DFLTE4FJB13,3PDJHANYK9W6NX6XRQYSLCJG1F4H6K,7,8
67,2,object_04,object_10,5.3300000727177,3,2,109.62999984622,0.1111111111111111,1,object_07,1,1301,0,1,7,forest_5,1,memory-2step-stake-s,565,1253874,0.0-19.0-0.0-0.67,A2L2E6J3D23CN4,306996CF7Z0Y3F4KVQ7DFLTE4FJB13,3PDJHANYK9W6NX6XRQYSLCJG1F4H6K,4,3
68,4,object_01,object_08,146.90499939024,8,2,71.525000035763,1.0,2,object_09,5,1346,0,1,9,restaurant_1,1,memory-2step-stake-s,566,1262069,0.0-19.0-0.0-0.68,A2L2E6J3D23CN4,306996CF7Z0Y3F4KVQ7DFLTE4FJB13,3PDJHANYK9W6NX6XRQYSLCJG1F4H6K,7,8
69,4,object_01,object_08,7.6099997386336,8,2,133.75500030816,0.7777777777777778,2,object_09,1,1353,0,1,7,restaurant_4,1,memory-2step-stake-s,567,1270124,0.0-19.0-0.0-0.69,A2L2E6J3D23CN4,306996CF7Z0Y3F4KVQ7DFLTE4FJB13,3PDJHANYK9W6NX6XRQYSLCJG1F4H6K,7,8
70,2,object_04,object_10,96.954999491572,4,1,145.90999949723,0.8888888888888888,2,object_09,5,1393,0,1,8,forest_4,1,memory-2step-stake-s,568,1278291,0.0-19.0-0.0-0.70,A2L2E6J3D23CN4,306996CF7Z0Y3F4KVQ7DFLTE4FJB13,3PDJHANYK9W6NX6XRQYSLCJG1F4H6K,4,3
71,2,object_10,object_04,94.839999452233,4,2,46.694999560714,0.8888888888888888,2,object_09,5,1433,0,0,8,forest_5,1,memory-2step-stake-s,569,1286360,0.0-19.0-0.0-0.71,A2L2E6J3D23CN4,306996CF7Z0Y3F4KVQ7DFLTE4FJB13,3PDJHANYK9W6NX6XRQYSLCJG1F4H6K,3,4
72,3,object_02,object_05,194.64999996126,5,2,164.35499954969,0.2222222222222222,1,object_07,5,1443,0,2,8,library_7,1,memory-2step-stake-s,570,1293942,0.0-19.0-0.0-0.72,A2L2E6J3D23CN4,306996CF7Z0Y3F4KVQ7DFLTE4FJB13,3PDJHANYK9W6NX6XRQYSLCJG1F4H6K,6,5
73,2,object_04,object_10,94.289999455214,3,2,137.77500018477,0.1111111111111111,1,object_07,1,1444,0,1,8,forest_5,1,memory-2step-stake-s,571,1301396,0.0-19.0-0.0-0.73,A2L2E6J3D23CN4,306996CF7Z0Y3F4KVQ7DFLTE4FJB13,3PDJHANYK9W6NX6XRQYSLCJG1F4H6K,4,3
74,3,object_05,object_02,133.550000377,6,2,186.72499991953,1.0,2,object_09,5,1489,0,0,9,library_3,1,memory-2step-stake-s,572,1309708,0.0-19.0-0.0-0.74,A2L2E6J3D23CN4,306996CF7Z0Y3F4KVQ7DFLTE4FJB13,3PDJHANYK9W6NX6XRQYSLCJG1F4H6K,5,6
75,2,object_04,object_10,12.870000675321,3,2,171.4199995622,0.3333333333333333,1,object_07,1,1492,0,3,8,forest_2,1,memory-2step-stake-s,573,1317396,0.0-19.0-0.0-0.75,A2L2E6J3D23CN4,306996CF7Z0Y3F4KVQ7DFLTE4FJB13,3PDJHANYK9W6NX6XRQYSLCJG1F4H6K,4,3
76,4,object_08,object_01,239.78500068188,7,2,219.34499964118,0.8888888888888888,1,object_07,1,1500,0,8,9,restaurant_4,1,memory-2step-stake-s,574,1325637,0.0-19.0-0.0-0.76,A2L2E6J3D23CN4,306996CF7Z0Y3F4KVQ7DFLTE4FJB13,3PDJHANYK9W6NX6XRQYSLCJG1F4H6K,8,7
77,1,object_06,object_03,116.11500009894,2,2,588.33499997854,0.8888888888888888,2,object_09,1,1508,0,8,8,desert_3,1,memory-2step-stake-s,575,1334248,0.0-19.0-0.0-0.77,A2L2E6J3D23CN4,306996CF7Z0Y3F4KVQ7DFLTE4FJB13,3PDJHANYK9W6NX6XRQYSLCJG1F4H6K,1,2
78,2,object_04,object_10,28.185000643134,3,2,182.44499992579,0.8888888888888888,1,object_07,1,1516,0,8,7,forest_2,1,memory-2step-stake-s,576,1342454,0.0-19.0-0.0-0.78,A2L2E6J3D23CN4,306996CF7Z0Y3F4KVQ7DFLTE4FJB13,3PDJHANYK9W6NX6XRQYSLCJG1F4H6K,4,3
79,4,object_01,object_08,78.840000554919,7,1,88.405000045896,0.8888888888888888,1,object_07,5,1556,0,8,6,restaurant_6,1,memory-2step-stake-s,577,1350565,0.0-19.0-0.0-0.79,A2L2E6J3D23CN4,306996CF7Z0Y3F4KVQ7DFLTE4FJB13,3PDJHANYK9W6NX6XRQYSLCJG1F4H6K,7,8
80,4,object_01,object_08,73.160000145435,8,2,54.925000295043,0.5555555555555556,2,object_09,1,1561,0,9,5,restaurant_1,1,memory-2step-stake-s,578,1358338,0.0-19.0-0.0-0.80,A2L2E6J3D23CN4,306996CF7Z0Y3F4KVQ7DFLTE4FJB13,3PDJHANYK9W6NX6XRQYSLCJG1F4H6K,7,8
81,3,object_05,object_02,-1.0,-1,-1,-1.0,0.0,-,0,5,1561,0,8,6,library_3,1,memory-2step-stake-s,579,1364846,0.0-19.0-0.0-0.81,A2L2E6J3D23CN4,306996CF7Z0Y3F4KVQ7DFLTE4FJB13,3PDJHANYK9W6NX6XRQYSLCJG1F4H6K,5,6
82,1,object_06,object_03,96.815000288188,2,2,434.05999988317,0.5555555555555556,2,object_09,1,1566,0,7,5,desert_3,1,memory-2step-stake-s,580,1372999,0.0-19.0-0.0-0.82,A2L2E6J3D23CN4,306996CF7Z0Y3F4KVQ7DFLTE4FJB13,3PDJHANYK9W6NX6XRQYSLCJG1F4H6K,1,2
83,4,object_08,object_01,96.229999326169,8,1,131.18000049144,0.7777777777777778,2,object_09,5,1601,0,7,7,restaurant_6,1,memory-2step-stake-s,581,1381050,0.0-19.0-0.0-0.83,A2L2E6J3D23CN4,306996CF7Z0Y3F4KVQ7DFLTE4FJB13,3PDJHANYK9W6NX6XRQYSLCJG1F4H6K,8,7
84,4,object_08,object_01,23.555000312626,7,2,157.46499970555,0.6666666666666666,1,object_07,5,1631,0,6,8,restaurant_1,1,memory-2step-stake-s,582,1389027,0.0-19.0-0.0-0.84,A2L2E6J3D23CN4,306996CF7Z0Y3F4KVQ7DFLTE4FJB13,3PDJHANYK9W6NX6XRQYSLCJG1F4H6K,8,7
85,1,object_06,object_03,478.95500063896,2,2,655.10999970138,0.8888888888888888,2,object_09,1,1639,0,4,8,desert_3,1,memory-2step-stake-s,583,1397705,0.0-19.0-0.0-0.85,A2L2E6J3D23CN4,306996CF7Z0Y3F4KVQ7DFLTE4FJB13,3PDJHANYK9W6NX6XRQYSLCJG1F4H6K,1,2
86,1,object_03,object_06,4.3550003319979,1,2,31.915000639856,0.4444444444444444,1,object_07,1,1643,0,4,8,desert_4,1,memory-2step-stake-s,584,1405359,0.0-19.0-0.0-0.86,A2L2E6J3D23CN4,306996CF7Z0Y3F4KVQ7DFLTE4FJB13,3PDJHANYK9W6NX6XRQYSLCJG1F4H6K,2,1
87,4,object_08,object_01,41.085000149906,7,2,107.98500012606,0.6666666666666666,1,object_07,5,1673,0,6,6,restaurant_1,1,memory-2step-stake-s,585,1413286,0.0-19.0-0.0-0.87,A2L2E6J3D23CN4,306996CF7Z0Y3F4KVQ7DFLTE4FJB13,3PDJHANYK9W6NX6XRQYSLCJG1F4H6K,8,7
88,2,object_10,object_04,108.43499936163,3,1,205.43999969959,0.4444444444444444,1,object_07,1,1677,0,4,8,forest_3,1,memory-2step-stake-s,586,1421108,0.0-19.0-0.0-0.88,A2L2E6J3D23CN4,306996CF7Z0Y3F4KVQ7DFLTE4FJB13,3PDJHANYK9W6NX6XRQYSLCJG1F4H6K,3,4
89,4,object_01,object_08,86.240000091493,8,2,60.694999992847,0.8888888888888888,2,object_09,5,1717,0,6,8,restaurant_6,1,memory-2step-stake-s,587,1429190,0.0-19.0-0.0-0.89,A2L2E6J3D23CN4,306996CF7Z0Y3F4KVQ7DFLTE4FJB13,3PDJHANYK9W6NX6XRQYSLCJG1F4H6K,7,8
90,3,object_02,object_05,157.51500055194,5,2,52.709999494255,0.4444444444444444,1,object_07,5,1737,0,4,9,library_6,1,memory-2step-stake-s,588,1436860,0.0-19.0-0.0-0.90,A2L2E6J3D23CN4,306996CF7Z0Y3F4KVQ7DFLTE4FJB13,3PDJHANYK9W6NX6XRQYSLCJG1F4H6K,6,5
91,1,object_03,object_06,756.81999977678,1,2,117.63499956578,0.6666666666666666,1,object_07,1,1743,0,6,8,desert_8,1,memory-2step-stake-s,589,1444799,0.0-19.0-0.0-0.91,A2L2E6J3D23CN4,306996CF7Z0Y3F4KVQ7DFLTE4FJB13,3PDJHANYK9W6NX6XRQYSLCJG1F4H6K,2,1
92,3,object_02,object_05,154.31500039995,5,2,58.310000225902,0.7777777777777778,1,object_07,1,1750,0,7,6,library_4,1,memory-2step-stake-s,590,1452777,0.0-19.0-0.0-0.92,A2L2E6J3D23CN4,306996CF7Z0Y3F4KVQ7DFLTE4FJB13,3PDJHANYK9W6NX6XRQYSLCJG1F4H6K,6,5
93,4,object_08,object_01,15.51999989897,8,1,96.725000068545,0.5555555555555556,2,object_09,1,1755,0,5,5,restaurant_4,1,memory-2step-stake-s,591,1460592,0.0-19.0-0.0-0.93,A2L2E6J3D23CN4,306996CF7Z0Y3F4KVQ7DFLTE4FJB13,3PDJHANYK9W6NX6XRQYSLCJG1F4H6K,8,7
94,1,object_03,object_06,188.13499994576,1,2,119.02499943972,0.3333333333333333,1,object_07,1,1758,0,3,5,desert_3,1,memory-2step-stake-s,592,1468227,0.0-19.0-0.0-0.94,A2L2E6J3D23CN4,306996CF7Z0Y3F4KVQ7DFLTE4FJB13,3PDJHANYK9W6NX6XRQYSLCJG1F4H6K,2,1
95,3,object_02,object_05,165.75499996543,5,2,38.42500038445,0.3333333333333333,1,object_07,5,1773,0,3,5,library_7,1,memory-2step-stake-s,593,1475783,0.0-19.0-0.0-0.95,A2L2E6J3D23CN4,306996CF7Z0Y3F4KVQ7DFLTE4FJB13,3PDJHANYK9W6NX6XRQYSLCJG1F4H6K,6,5
96,3,object_02,object_05,50.179999321699,6,1,341.81999973953,0.3333333333333333,2,object_09,1,1776,0,0,3,library_6,1,memory-2step-stake-s,594,1483640,0.0-19.0-0.0-0.96,A2L2E6J3D23CN4,306996CF7Z0Y3F4KVQ7DFLTE4FJB13,3PDJHANYK9W6NX6XRQYSLCJG1F4H6K,6,5
97,2,object_10,object_04,17.954999580979,4,2,173.98499976844,0.2222222222222222,2,object_09,1,1778,0,1,2,forest_5,1,memory-2step-stake-s,595,1491229,0.0-19.0-0.0-0.97,A2L2E6J3D23CN4,306996CF7Z0Y3F4KVQ7DFLTE4FJB13,3PDJHANYK9W6NX6XRQYSLCJG1F4H6K,3,4
98,3,object_02,object_05,-1.0,-1,-1,-1.0,0.0,-,0,1,1778,0,0,4,library_3,1,memory-2step-stake-s,596,1497738,0.0-19.0-0.0-0.98,A2L2E6J3D23CN4,306996CF7Z0Y3F4KVQ7DFLTE4FJB13,3PDJHANYK9W6NX6XRQYSLCJG1F4H6K,6,5
99,3,object_02,object_05,47.55000025034,5,2,182.23499972373,0.0,1,object_07,5,1778,0,0,6,library_7,1,memory-2step-stake-s,597,1505135,0.0-19.0-0.0-0.99,A2L2E6J3D23CN4,306996CF7Z0Y3F4KVQ7DFLTE4FJB13,3PDJHANYK9W6NX6XRQYSLCJG1F4H6K,6,5
100,1,object_03,object_06,162.83000074327,2,1,137.35499978065,0.4444444444444444,2,object_09,1,1782,0,1,4,desert_8,1,memory-2step-stake-s,598,1512893,0.0-19.0-0.0-0.100,A2L2E6J3D23CN4,306996CF7Z0Y3F4KVQ7DFLTE4FJB13,3PDJHANYK9W6NX6XRQYSLCJG1F4H6K,2,1
101,4,object_01,object_08,82.689999602735,8,2,36.305000074208,0.7777777777777778,2,object_09,5,1817,0,2,7,restaurant_4,1,memory-2step-stake-s,599,1520849,0.0-19.0-0.0-0.101,A2L2E6J3D23CN4,306996CF7Z0Y3F4KVQ7DFLTE4FJB13,3PDJHANYK9W6NX6XRQYSLCJG1F4H6K,7,8
102,3,object_02,object_05,46.099999919534,5,2,2.4399999529123,0.1111111111111111,1,object_07,1,1818,0,1,8,library_7,1,memory-2step-stake-s,600,1528166,0.0-19.0-0.0-0.102,A2L2E6J3D23CN4,306996CF7Z0Y3F4KVQ7DFLTE4FJB13,3PDJHANYK9W6NX6XRQYSLCJG1F4H6K,6,5
103,4,object_01,object_08,131.25000055879,7,1,19.600000232458,0.1111111111111111,1,object_07,5,1823,0,1,7,restaurant_7,1,memory-2step-stake-s,601,1535500,0.0-19.0-0.0-0.103,A2L2E6J3D23CN4,306996CF7Z0Y3F4KVQ7DFLTE4FJB13,3PDJHANYK9W6NX6XRQYSLCJG1F4H6K,7,8
104,2,object_04,object_10,42.930000461638,3,2,187.62500025332,0.2222222222222222,1,object_07,5,1833,0,2,5,forest_5,1,memory-2step-stake-s,602,1543104,0.0-19.0-0.0-0.104,A2L2E6J3D23CN4,306996CF7Z0Y3F4KVQ7DFLTE4FJB13,3PDJHANYK9W6NX6XRQYSLCJG1F4H6K,4,3
105,2,object_10,object_04,126.68500002474,4,2,169.39000040293,0.4444444444444444,2,object_09,1,1837,0,3,4,forest_4,1,memory-2step-stake-s,603,1550892,0.0-19.0-0.0-0.105,A2L2E6J3D23CN4,306996CF7Z0Y3F4KVQ7DFLTE4FJB13,3PDJHANYK9W6NX6XRQYSLCJG1F4H6K,3,4
106,2,object_10,object_04,55.900000035763,3,1,200.2149997279,0.2222222222222222,1,object_07,1,1839,0,2,2,forest_2,1,memory-2step-stake-s,604,1558508,0.0-19.0-0.0-0.106,A2L2E6J3D23CN4,306996CF7Z0Y3F4KVQ7DFLTE4FJB13,3PDJHANYK9W6NX6XRQYSLCJG1F4H6K,3,4
107,2,object_04,object_10,88.615000247955,3,2,168.99499949068,0.2222222222222222,1,object_07,1,1841,0,2,0,forest_5,1,memory-2step-stake-s,605,1566095,0.0-19.0-0.0-0.107,A2L2E6J3D23CN4,306996CF7Z0Y3F4KVQ7DFLTE4FJB13,3PDJHANYK9W6NX6XRQYSLCJG1F4H6K,4,3
108,1,object_03,object_06,83.990000188351,2,1,60.955000109971,0.3333333333333333,2,object_09,5,1856,0,2,3,desert_1,1,memory-2step-stake-s,606,1573675,0.0-19.0-0.0-0.108,A2L2E6J3D23CN4,306996CF7Z0Y3F4KVQ7DFLTE4FJB13,3PDJHANYK9W6NX6XRQYSLCJG1F4H6K,2,1
109,1,object_06,object_03,79.250000417233,2,2,443.0050002411,0.1111111111111111,2,object_09,1,1857,0,3,1,desert_3,1,memory-2step-stake-s,607,1581433,0.0-19.0-0.0-0.109,A2L2E6J3D23CN4,306996CF7Z0Y3F4KVQ7DFLTE4FJB13,3PDJHANYK9W6NX6XRQYSLCJG1F4H6K,1,2
110,2,object_10,object_04,106.98499996215,4,2,194.63500007987,0.3333333333333333,2,object_09,1,1860,0,5,3,forest_3,1,memory-2step-stake-s,608,1589145,0.0-19.0-0.0-0.110,A2L2E6J3D23CN4,306996CF7Z0Y3F4KVQ7DFLTE4FJB13,3PDJHANYK9W6NX6XRQYSLCJG1F4H6K,3,4
111,3,object_02,object_05,70.605000481009,6,1,295.93999963254,0.2222222222222222,2,object_09,5,1870,0,7,2,library_3,1,memory-2step-stake-s,609,1596855,0.0-19.0-0.0-0.111,A2L2E6J3D23CN4,306996CF7Z0Y3F4KVQ7DFLTE4FJB13,3PDJHANYK9W6NX6XRQYSLCJG1F4H6K,6,5
112,3,object_05,object_02,221.0399992764,6,2,516.12500008196,0.5555555555555556,2,object_09,5,1895,0,6,5,library_3,1,memory-2step-stake-s,610,1605091,0.0-19.0-0.0-0.112,A2L2E6J3D23CN4,306996CF7Z0Y3F4KVQ7DFLTE4FJB13,3PDJHANYK9W6NX6XRQYSLCJG1F4H6K,5,6
113,1,object_03,object_06,63.160000368953,1,2,34.055000171065,0.3333333333333333,1,object_07,5,1910,0,3,2,desert_8,1,memory-2step-stake-s,611,1612641,0.0-19.0-0.0-0.113,A2L2E6J3D23CN4,306996CF7Z0Y3F4KVQ7DFLTE4FJB13,3PDJHANYK9W6NX6XRQYSLCJG1F4H6K,2,1
114,3,object_05,object_02,71.225000545382,6,2,225.73000006378,0.1111111111111111,2,object_09,5,1915,0,3,1,library_7,1,memory-2step-stake-s,612,1620180,0.0-19.0-0.0-0.114,A2L2E6J3D23CN4,306996CF7Z0Y3F4KVQ7DFLTE4FJB13,3PDJHANYK9W6NX6XRQYSLCJG1F4H6K,5,6
115,4,object_08,object_01,130.2100000903,8,1,187.11000028998,0.3333333333333333,2,object_09,1,1918,0,5,3,restaurant_1,1,memory-2step-stake-s,613,1627885,0.0-19.0-0.0-0.115,A2L2E6J3D23CN4,306996CF7Z0Y3F4KVQ7DFLTE4FJB13,3PDJHANYK9W6NX6XRQYSLCJG1F4H6K,8,7
116,2,object_10,object_04,130.2049998194,4,2,502.40499991924,0.4444444444444444,2,object_09,1,1922,0,5,4,forest_4,1,memory-2step-stake-s,614,1636007,0.0-19.0-0.0-0.116,A2L2E6J3D23CN4,306996CF7Z0Y3F4KVQ7DFLTE4FJB13,3PDJHANYK9W6NX6XRQYSLCJG1F4H6K,3,4
117,4,object_01,object_08,14.550000429153,7,1,460.61499975622,0.8888888888888888,1,object_07,5,1962,0,8,7,restaurant_1,1,memory-2step-stake-s,615,1644489,0.0-19.0-0.0-0.117,A2L2E6J3D23CN4,306996CF7Z0Y3F4KVQ7DFLTE4FJB13,3PDJHANYK9W6NX6XRQYSLCJG1F4H6K,7,8
118,1,object_03,object_06,81.969999708235,1,2,94.080000184476,0.4444444444444444,1,object_07,1,1966,0,4,6,desert_8,1,memory-2step-stake-s,616,1652206,0.0-19.0-0.0-0.118,A2L2E6J3D23CN4,306996CF7Z0Y3F4KVQ7DFLTE4FJB13,3PDJHANYK9W6NX6XRQYSLCJG1F4H6K,2,1
119,4,object_08,object_01,97.790000028908,7,2,182.2950001806,0.4444444444444444,1,object_07,5,1986,0,4,4,restaurant_4,1,memory-2step-stake-s,617,1660008,0.0-19.0-0.0-0.119,A2L2E6J3D23CN4,306996CF7Z0Y3F4KVQ7DFLTE4FJB13,3PDJHANYK9W6NX6XRQYSLCJG1F4H6K,8,7
120,3,object_05,object_02,113.95000014454,5,1,124.79500006884,0.2222222222222222,1,object_07,5,1996,0,2,7,library_7,1,memory-2step-stake-s,618,1667552,0.0-19.0-0.0-0.120,A2L2E6J3D23CN4,306996CF7Z0Y3F4KVQ7DFLTE4FJB13,3PDJHANYK9W6NX6XRQYSLCJG1F4H6K,5,6
121,2,object_10,object_04,91.969999484718,4,2,122.79499974102,0.5555555555555556,2,object_09,1,2001,0,3,5,forest_4,1,memory-2step-stake-s,619,1675393,0.0-19.0-0.0-0.121,A2L2E6J3D23CN4,306996CF7Z0Y3F4KVQ7DFLTE4FJB13,3PDJHANYK9W6NX6XRQYSLCJG1F4H6K,3,4
122,2,object_10,object_04,6.0450006276369,4,2,62.789999879897,0.4444444444444444,2,object_09,1,2005,0,2,4,forest_3,1,memory-2step-stake-s,620,1683073,0.0-19.0-0.0-0.122,A2L2E6J3D23CN4,306996CF7Z0Y3F4KVQ7DFLTE4FJB13,3PDJHANYK9W6NX6XRQYSLCJG1F4H6K,3,4
123,3,object_02,object_05,148.31999968737,5,2,-1.0,0.0,1,object_07,1,2005,0,2,2,library_7,1,memory-2step-stake-s,621,1691587,0.0-19.0-0.0-0.123,A2L2E6J3D23CN4,306996CF7Z0Y3F4KVQ7DFLTE4FJB13,3PDJHANYK9W6NX6XRQYSLCJG1F4H6K,6,5
124,4,object_08,object_01,733.96500013769,7,2,132.82999955118,0.3333333333333333,1,object_07,5,2020,0,3,3,restaurant_7,1,memory-2step-stake-s,622,1699236,0.0-19.0-0.0-0.124,A2L2E6J3D23CN4,306996CF7Z0Y3F4KVQ7DFLTE4FJB13,3PDJHANYK9W6NX6XRQYSLCJG1F4H6K,8,7
125,1,object_03,object_06,1.9649993628263,2,1,33.885000273585,0.3333333333333333,2,object_09,1,2023,0,3,3,desert_8,1,memory-2step-stake-s,623,1706787,0.0-19.0-0.0-0.125,A2L2E6J3D23CN4,306996CF7Z0Y3F4KVQ7DFLTE4FJB13,3PDJHANYK9W6NX6XRQYSLCJG1F4H6K,2,1
126,3,object_02,object_05,12.439999729395,5,2,202.70499959588,0.0,1,object_07,5,2023,0,0,1,library_3,1,memory-2step-stake-s,624,1714202,0.0-19.0-0.0-0.126,A2L2E6J3D23CN4,306996CF7Z0Y3F4KVQ7DFLTE4FJB13,3PDJHANYK9W6NX6XRQYSLCJG1F4H6K,6,5
127,1,object_06,object_03,163.04999962449,2,2,26.874999515712,0.0,2,object_09,5,2023,0,1,0,desert_3,1,memory-2step-stake-s,625,1721441,0.0-19.0-0.0-0.127,A2L2E6J3D23CN4,306996CF7Z0Y3F4KVQ7DFLTE4FJB13,3PDJHANYK9W6NX6XRQYSLCJG1F4H6K,1,2
128,1,object_06,object_03,73.119999840856,2,2,33.800000324845,0.1111111111111111,2,object_09,1,2024,0,4,1,desert_1,1,memory-2step-stake-s,627,1938412,0.0-19.0-0.1-0.128,A2L2E6J3D23CN4,306996CF7Z0Y3F4KVQ7DFLTE4FJB13,3PDJHANYK9W6NX6XRQYSLCJG1F4H6K,1,2
129,1,object_06,object_03,114.85499981791,1,1,13.724999502301,0.2222222222222222,1,object_07,1,2026,0,2,1,desert_4,1,memory-2step-stake-s,628,1945844,0.0-19.0-0.1-0.129,A2L2E6J3D23CN4,306996CF7Z0Y3F4KVQ7DFLTE4FJB13,3PDJHANYK9W6NX6XRQYSLCJG1F4H6K,1,2
130,3,object_02,object_05,128.53000033647,5,2,19.115000031888,0.3333333333333333,1,object_07,5,2041,0,3,4,library_4,1,memory-2step-stake-s,629,1953381,0.0-19.0-0.1-0.130,A2L2E6J3D23CN4,306996CF7Z0Y3F4KVQ7DFLTE4FJB13,3PDJHANYK9W6NX6XRQYSLCJG1F4H6K,6,5
131,3,object_05,object_02,49.715000204742,6,2,67.604999989271,0.2222222222222222,2,object_09,1,2043,0,2,2,library_6,1,memory-2step-stake-s,630,1960865,0.0-19.0-0.1-0.131,A2L2E6J3D23CN4,306996CF7Z0Y3F4KVQ7DFLTE4FJB13,3PDJHANYK9W6NX6XRQYSLCJG1F4H6K,5,6
132,3,object_02,object_05,26.279999874532,6,1,224.72999989986,0.3333333333333333,2,object_09,5,2058,0,2,3,library_6,1,memory-2step-stake-s,631,1968609,0.0-19.0-0.1-0.132,A2L2E6J3D23CN4,306996CF7Z0Y3F4KVQ7DFLTE4FJB13,3PDJHANYK9W6NX6XRQYSLCJG1F4H6K,6,5
133,4,object_08,object_01,111.00499983877,7,2,38.70000038296,0.4444444444444444,1,object_07,1,2062,0,4,3,restaurant_4,1,memory-2step-stake-s,632,1976266,0.0-19.0-0.1-0.133,A2L2E6J3D23CN4,306996CF7Z0Y3F4KVQ7DFLTE4FJB13,3PDJHANYK9W6NX6XRQYSLCJG1F4H6K,8,7
134,1,object_06,object_03,15.11500030756,2,2,104.73999939859,0.1111111111111111,2,object_09,1,2063,0,4,1,desert_4,1,memory-2step-stake-s,633,1983686,0.0-19.0-0.1-0.134,A2L2E6J3D23CN4,306996CF7Z0Y3F4KVQ7DFLTE4FJB13,3PDJHANYK9W6NX6XRQYSLCJG1F4H6K,1,2
135,1,object_03,object_06,209.16000008583,1,2,50.999999977648,0.2222222222222222,1,object_07,1,2065,0,2,1,desert_3,1,memory-2step-stake-s,634,1991155,0.0-19.0-0.1-0.135,A2L2E6J3D23CN4,306996CF7Z0Y3F4KVQ7DFLTE4FJB13,3PDJHANYK9W6NX6XRQYSLCJG1F4H6K,2,1
136,3,object_02,object_05,0.43499935418367,5,2,188.06500080973,0.3333333333333333,1,object_07,5,2080,0,3,2,library_3,1,memory-2step-stake-s,635,1998863,0.0-19.0-0.1-0.136,A2L2E6J3D23CN4,306996CF7Z0Y3F4KVQ7DFLTE4FJB13,3PDJHANYK9W6NX6XRQYSLCJG1F4H6K,6,5
137,3,object_02,object_05,205.4500002414,5,2,15.314999967813,0.1111111111111111,1,object_07,5,2085,0,1,6,library_3,1,memory-2step-stake-s,636,2006194,0.0-19.0-0.1-0.137,A2L2E6J3D23CN4,306996CF7Z0Y3F4KVQ7DFLTE4FJB13,3PDJHANYK9W6NX6XRQYSLCJG1F4H6K,6,5
138,1,object_06,object_03,0.33499952405691,2,2,79.659999348223,0.2222222222222222,2,object_09,1,2087,0,1,2,desert_4,1,memory-2step-stake-s,637,2013691,0.0-19.0-0.1-0.138,A2L2E6J3D23CN4,306996CF7Z0Y3F4KVQ7DFLTE4FJB13,3PDJHANYK9W6NX6XRQYSLCJG1F4H6K,1,2
139,4,object_08,object_01,89.960000477731,8,1,75.619999319315,0.6666666666666666,2,object_09,5,2117,0,0,6,restaurant_7,1,memory-2step-stake-s,638,2021587,0.0-19.0-0.1-0.139,A2L2E6J3D23CN4,306996CF7Z0Y3F4KVQ7DFLTE4FJB13,3PDJHANYK9W6NX6XRQYSLCJG1F4H6K,8,7
140,4,object_01,object_08,117.56500042975,8,2,14.899999834597,0.6666666666666666,2,object_09,1,2123,0,0,6,restaurant_1,1,memory-2step-stake-s,639,2029425,0.0-19.0-0.1-0.140,A2L2E6J3D23CN4,306996CF7Z0Y3F4KVQ7DFLTE4FJB13,3PDJHANYK9W6NX6XRQYSLCJG1F4H6K,7,8
141,3,object_02,object_05,62.209999188781,5,2,447.08999991417,0.1111111111111111,1,object_07,1,2124,0,1,4,library_7,1,memory-2step-stake-s,640,2037188,0.0-19.0-0.1-0.141,A2L2E6J3D23CN4,306996CF7Z0Y3F4KVQ7DFLTE4FJB13,3PDJHANYK9W6NX6XRQYSLCJG1F4H6K,6,5
142,1,object_06,object_03,10.014999657869,1,1,991.51999969035,0.1111111111111111,1,object_07,1,2125,0,1,3,desert_8,1,memory-2step-stake-s,641,2045493,0.0-19.0-0.1-0.142,A2L2E6J3D23CN4,306996CF7Z0Y3F4KVQ7DFLTE4FJB13,3PDJHANYK9W6NX6XRQYSLCJG1F4H6K,1,2
143,2,object_04,object_10,164.89499993622,3,2,123.88500012457,0.5555555555555556,1,object_07,1,2130,0,5,0,forest_5,1,memory-2step-stake-s,642,2053338,0.0-19.0-0.1-0.143,A2L2E6J3D23CN4,306996CF7Z0Y3F4KVQ7DFLTE4FJB13,3PDJHANYK9W6NX6XRQYSLCJG1F4H6K,4,3
144,2,object_10,object_04,129.13499958813,4,2,154.87500000745,0.5555555555555556,2,object_09,1,2135,0,2,5,forest_3,1,memory-2step-stake-s,643,2061211,0.0-19.0-0.1-0.144,A2L2E6J3D23CN4,306996CF7Z0Y3F4KVQ7DFLTE4FJB13,3PDJHANYK9W6NX6XRQYSLCJG1F4H6K,3,4
145,2,object_10,object_04,44.304999522865,3,1,83.519999869168,0.2222222222222222,1,object_07,1,2137,0,2,4,forest_3,1,memory-2step-stake-s,644,2068711,0.0-19.0-0.1-0.145,A2L2E6J3D23CN4,306996CF7Z0Y3F4KVQ7DFLTE4FJB13,3PDJHANYK9W6NX6XRQYSLCJG1F4H6K,3,4
146,2,object_04,object_10,114.51500002295,3,2,30.070000328124,0.5555555555555556,1,object_07,1,2142,0,5,6,forest_3,1,memory-2step-stake-s,645,2076460,0.0-19.0-0.1-0.146,A2L2E6J3D23CN4,306996CF7Z0Y3F4KVQ7DFLTE4FJB13,3PDJHANYK9W6NX6XRQYSLCJG1F4H6K,4,3
147,4,object_08,object_01,153.21499947459,8,1,143.48499942571,0.7777777777777778,2,object_09,5,2177,0,4,7,restaurant_6,1,memory-2step-stake-s,646,2084526,0.0-19.0-0.1-0.147,A2L2E6J3D23CN4,306996CF7Z0Y3F4KVQ7DFLTE4FJB13,3PDJHANYK9W6NX6XRQYSLCJG1F4H6K,8,7
148,2,object_04,object_10,4.7350004315376,3,2,537.96500060707,0.6666666666666666,1,object_07,1,2183,0,6,7,forest_5,1,memory-2step-stake-s,647,2092886,0.0-19.0-0.1-0.148,A2L2E6J3D23CN4,306996CF7Z0Y3F4KVQ7DFLTE4FJB13,3PDJHANYK9W6NX6XRQYSLCJG1F4H6K,4,3
149,1,object_03,object_06,73.630000464618,2,1,141.0800004378,0.5555555555555556,2,object_09,1,2188,0,7,5,desert_4,1,memory-2step-stake-s,648,2100747,0.0-19.0-0.1-0.149,A2L2E6J3D23CN4,306996CF7Z0Y3F4KVQ7DFLTE4FJB13,3PDJHANYK9W6NX6XRQYSLCJG1F4H6K,2,1
150,1,object_06,object_03,214.5499996841,2,2,235.22000014782,0.4444444444444444,2,object_09,5,2208,0,8,4,desert_3,1,memory-2step-stake-s,649,2108599,0.0-19.0-0.1-0.150,A2L2E6J3D23CN4,306996CF7Z0Y3F4KVQ7DFLTE4FJB13,3PDJHANYK9W6NX6XRQYSLCJG1F4H6K,1,2
151,2,object_10,object_04,189.84499946237,3,1,106.26999940723,0.7777777777777778,1,object_07,1,2215,0,7,0,forest_4,1,memory-2step-stake-s,650,2116631,0.0-19.0-0.1-0.151,A2L2E6J3D23CN4,306996CF7Z0Y3F4KVQ7DFLTE4FJB13,3PDJHANYK9W6NX6XRQYSLCJG1F4H6K,3,4
152,1,object_06,object_03,79.009999521077,2,2,74.989999644458,0.2222222222222222,2,object_09,1,2217,0,8,2,desert_1,1,memory-2step-stake-s,651,2124121,0.0-19.0-0.1-0.152,A2L2E6J3D23CN4,306996CF7Z0Y3F4KVQ7DFLTE4FJB13,3PDJHANYK9W6NX6XRQYSLCJG1F4H6K,1,2
153,2,object_04,object_10,166.05999972671,4,1,42.240000329912,0.4444444444444444,2,object_09,1,2221,0,8,4,forest_2,1,memory-2step-stake-s,652,2131782,0.0-19.0-0.1-0.153,A2L2E6J3D23CN4,306996CF7Z0Y3F4KVQ7DFLTE4FJB13,3PDJHANYK9W6NX6XRQYSLCJG1F4H6K,4,3
154,2,object_04,object_10,133.63999966532,3,2,50.669999793172,0.8888888888888888,1,object_07,1,2229,0,8,5,forest_2,1,memory-2step-stake-s,653,2139860,0.0-19.0-0.1-0.154,A2L2E6J3D23CN4,306996CF7Z0Y3F4KVQ7DFLTE4FJB13,3PDJHANYK9W6NX6XRQYSLCJG1F4H6K,4,3
155,4,object_01,object_08,60.279999859631,7,1,172.69999999553,0.4444444444444444,1,object_07,5,2249,0,4,6,restaurant_1,1,memory-2step-stake-s,654,2147652,0.0-19.0-0.1-0.155,A2L2E6J3D23CN4,306996CF7Z0Y3F4KVQ7DFLTE4FJB13,3PDJHANYK9W6NX6XRQYSLCJG1F4H6K,7,8
156,1,object_03,object_06,202.64500007033,1,2,2.1700002253056,0.2222222222222222,1,object_07,1,2251,0,2,4,desert_4,1,memory-2step-stake-s,655,2155070,0.0-19.0-0.1-0.156,A2L2E6J3D23CN4,306996CF7Z0Y3F4KVQ7DFLTE4FJB13,3PDJHANYK9W6NX6XRQYSLCJG1F4H6K,2,1
157,2,object_10,object_04,222.54499979317,3,1,277.17499993742,0.0,1,object_07,1,2251,0,0,3,forest_3,1,memory-2step-stake-s,656,2162560,0.0-19.0-0.1-0.157,A2L2E6J3D23CN4,306996CF7Z0Y3F4KVQ7DFLTE4FJB13,3PDJHANYK9W6NX6XRQYSLCJG1F4H6K,3,4
158,4,object_01,object_08,210.04499960691,8,2,49.720000475645,0.4444444444444444,2,object_09,5,2271,0,2,4,restaurant_7,1,memory-2step-stake-s,657,2170228,0.0-19.0-0.1-0.158,A2L2E6J3D23CN4,306996CF7Z0Y3F4KVQ7DFLTE4FJB13,3PDJHANYK9W6NX6XRQYSLCJG1F4H6K,7,8
159,4,object_01,object_08,152.46499981731,7,1,168.81499998271,0.4444444444444444,1,object_07,1,2275,0,4,2,restaurant_1,1,memory-2step-stake-s,658,2178016,0.0-19.0-0.1-0.159,A2L2E6J3D23CN4,306996CF7Z0Y3F4KVQ7DFLTE4FJB13,3PDJHANYK9W6NX6XRQYSLCJG1F4H6K,7,8
160,4,object_01,object_08,163.68500050157,8,2,278.95000018179,0.0,2,object_09,5,2275,0,5,0,restaurant_4,1,memory-2step-stake-s,659,2185510,0.0-19.0-0.1-0.160,A2L2E6J3D23CN4,306996CF7Z0Y3F4KVQ7DFLTE4FJB13,3PDJHANYK9W6NX6XRQYSLCJG1F4H6K,7,8
161,3,object_02,object_05,87.070000357926,6,1,205.34500014037,0.0,2,object_09,5,2275,0,4,0,library_4,1,memory-2step-stake-s,660,2192929,0.0-19.0-0.1-0.161,A2L2E6J3D23CN4,306996CF7Z0Y3F4KVQ7DFLTE4FJB13,3PDJHANYK9W6NX6XRQYSLCJG1F4H6K,6,5
162,1,object_06,object_03,112.73999977857,2,2,104.93000037968,0.2222222222222222,2,object_09,1,2277,0,8,2,desert_1,1,memory-2step-stake-s,661,2200450,0.0-19.0-0.1-0.162,A2L2E6J3D23CN4,306996CF7Z0Y3F4KVQ7DFLTE4FJB13,3PDJHANYK9W6NX6XRQYSLCJG1F4H6K,1,2
163,3,object_05,object_02,59.644999913871,5,1,163.18500041962,1.0,1,object_07,5,2322,0,9,4,library_6,1,memory-2step-stake-s,662,2208739,0.0-19.0-0.1-0.163,A2L2E6J3D23CN4,306996CF7Z0Y3F4KVQ7DFLTE4FJB13,3PDJHANYK9W6NX6XRQYSLCJG1F4H6K,5,6
164,4,object_01,object_08,1307.2449993342,7,1,67.710000090301,1.0,1,object_07,5,2367,0,9,5,restaurant_4,1,memory-2step-stake-s,663,2216928,0.0-19.0-0.1-0.164,A2L2E6J3D23CN4,306996CF7Z0Y3F4KVQ7DFLTE4FJB13,3PDJHANYK9W6NX6XRQYSLCJG1F4H6K,7,8
165,1,object_03,object_06,57.234999723732,1,2,32.330000773072,1.0,1,object_07,1,2376,0,9,5,desert_4,1,memory-2step-stake-s,664,2225085,0.0-19.0-0.1-0.165,A2L2E6J3D23CN4,306996CF7Z0Y3F4KVQ7DFLTE4FJB13,3PDJHANYK9W6NX6XRQYSLCJG1F4H6K,2,1
166,2,object_04,object_10,70.27000002563,3,2,71.899999864399,0.7777777777777778,1,object_07,1,2383,0,7,7,forest_2,1,memory-2step-stake-s,665,2233079,0.0-19.0-0.1-0.166,A2L2E6J3D23CN4,306996CF7Z0Y3F4KVQ7DFLTE4FJB13,3PDJHANYK9W6NX6XRQYSLCJG1F4H6K,4,3
167,2,object_10,object_04,90.005000121891,3,1,172.17499949038,0.4444444444444444,1,object_07,1,2387,0,4,8,forest_2,1,memory-2step-stake-s,666,2240872,0.0-19.0-0.1-0.167,A2L2E6J3D23CN4,306996CF7Z0Y3F4KVQ7DFLTE4FJB13,3PDJHANYK9W6NX6XRQYSLCJG1F4H6K,3,4
168,2,object_04,object_10,40.58999940753,3,2,124.03499986976,0.1111111111111111,1,object_07,5,2392,0,1,7,forest_5,1,memory-2step-stake-s,667,2248312,0.0-19.0-0.1-0.168,A2L2E6J3D23CN4,306996CF7Z0Y3F4KVQ7DFLTE4FJB13,3PDJHANYK9W6NX6XRQYSLCJG1F4H6K,4,3
169,3,object_02,object_05,146.21500018984,6,1,14.770000241697,0.8888888888888888,2,object_09,5,2432,0,3,8,library_3,1,memory-2step-stake-s,668,2256349,0.0-19.0-0.1-0.169,A2L2E6J3D23CN4,306996CF7Z0Y3F4KVQ7DFLTE4FJB13,3PDJHANYK9W6NX6XRQYSLCJG1F4H6K,6,5
170,1,object_03,object_06,134.98999923468,1,2,132.60000012815,0.4444444444444444,1,object_07,1,2436,0,4,5,desert_1,1,memory-2step-stake-s,669,2264102,0.0-19.0-0.1-0.170,A2L2E6J3D23CN4,306996CF7Z0Y3F4KVQ7DFLTE4FJB13,3PDJHANYK9W6NX6XRQYSLCJG1F4H6K,2,1
171,4,object_08,object_01,41.854999959469,7,2,-1.0,0.0,1,object_07,1,2436,0,3,6,restaurant_4,1,memory-2step-stake-s,670,2272618,0.0-19.0-0.1-0.171,A2L2E6J3D23CN4,306996CF7Z0Y3F4KVQ7DFLTE4FJB13,3PDJHANYK9W6NX6XRQYSLCJG1F4H6K,8,7
172,3,object_02,object_05,84.96000058949,6,1,119.89500001073,0.4444444444444444,2,object_09,5,2456,0,3,4,library_6,1,memory-2step-stake-s,671,2280358,0.0-19.0-0.1-0.172,A2L2E6J3D23CN4,306996CF7Z0Y3F4KVQ7DFLTE4FJB13,3PDJHANYK9W6NX6XRQYSLCJG1F4H6K,6,5
173,4,object_08,object_01,31.05999995023,7,2,174.66500028968,0.3333333333333333,1,object_07,5,2471,0,3,4,restaurant_7,1,memory-2step-stake-s,672,2288051,0.0-19.0-0.1-0.173,A2L2E6J3D23CN4,306996CF7Z0Y3F4KVQ7DFLTE4FJB13,3PDJHANYK9W6NX6XRQYSLCJG1F4H6K,8,7
174,3,object_05,object_02,74.349999427795,5,1,609.93999987841,0.2222222222222222,1,object_07,1,2473,0,2,5,library_7,1,memory-2step-stake-s,673,2296078,0.0-19.0-0.1-0.174,A2L2E6J3D23CN4,306996CF7Z0Y3F4KVQ7DFLTE4FJB13,3PDJHANYK9W6NX6XRQYSLCJG1F4H6K,5,6
175,4,object_01,object_08,90.049999766052,8,2,437.38999962807,0.8888888888888888,2,object_09,5,2513,0,3,8,restaurant_4,1,memory-2step-stake-s,674,2304537,0.0-19.0-0.1-0.175,A2L2E6J3D23CN4,306996CF7Z0Y3F4KVQ7DFLTE4FJB13,3PDJHANYK9W6NX6XRQYSLCJG1F4H6K,7,8
176,3,object_02,object_05,160.89500021189,6,1,277.25000027567,0.8888888888888888,2,object_09,5,2553,0,2,8,library_6,1,memory-2step-stake-s,675,2312837,0.0-19.0-0.1-0.176,A2L2E6J3D23CN4,306996CF7Z0Y3F4KVQ7DFLTE4FJB13,3PDJHANYK9W6NX6XRQYSLCJG1F4H6K,6,5
177,2,object_10,object_04,157.55000058562,4,2,190.58000016958,0.7777777777777778,2,object_09,1,2560,0,3,7,forest_4,1,memory-2step-stake-s,676,2320949,0.0-19.0-0.1-0.177,A2L2E6J3D23CN4,306996CF7Z0Y3F4KVQ7DFLTE4FJB13,3PDJHANYK9W6NX6XRQYSLCJG1F4H6K,3,4
178,1,object_06,object_03,89.459999464452,1,1,39.694999344647,0.5555555555555556,1,object_07,1,2565,0,5,8,desert_3,1,memory-2step-stake-s,677,2328708,0.0-19.0-0.1-0.178,A2L2E6J3D23CN4,306996CF7Z0Y3F4KVQ7DFLTE4FJB13,3PDJHANYK9W6NX6XRQYSLCJG1F4H6K,1,2
179,2,object_04,object_10,30.159999616444,3,2,9.1750007122755,0.5555555555555556,1,object_07,1,2570,0,5,4,forest_3,1,memory-2step-stake-s,678,2336438,0.0-19.0-0.1-0.179,A2L2E6J3D23CN4,306996CF7Z0Y3F4KVQ7DFLTE4FJB13,3PDJHANYK9W6NX6XRQYSLCJG1F4H6K,4,3
180,4,object_08,object_01,-1.0,-1,-1,-1.0,0.0,-,0,5,2570,0,4,2,restaurant_7,1,memory-2step-stake-s,679,2342947,0.0-19.0-0.1-0.180,A2L2E6J3D23CN4,306996CF7Z0Y3F4KVQ7DFLTE4FJB13,3PDJHANYK9W6NX6XRQYSLCJG1F4H6K,8,7
181,3,object_02,object_05,69.80000063777,6,1,174.72499981523,0.2222222222222222,2,object_09,5,2580,0,8,2,library_7,1,memory-2step-stake-s,680,2350538,0.0-19.0-0.1-0.181,A2L2E6J3D23CN4,306996CF7Z0Y3F4KVQ7DFLTE4FJB13,3PDJHANYK9W6NX6XRQYSLCJG1F4H6K,6,5
182,1,object_06,object_03,153.48500013351,2,2,145.58499958366,0.3333333333333333,2,object_09,1,2583,0,6,3,desert_1,1,memory-2step-stake-s,681,2358204,0.0-19.0-0.1-0.182,A2L2E6J3D23CN4,306996CF7Z0Y3F4KVQ7DFLTE4FJB13,3PDJHANYK9W6NX6XRQYSLCJG1F4H6K,1,2
183,4,object_08,object_01,151.45500004292,8,1,799.11999963224,0.4444444444444444,2,object_09,5,2603,0,6,4,restaurant_4,1,memory-2step-stake-s,682,2366623,0.0-19.0-0.1-0.183,A2L2E6J3D23CN4,306996CF7Z0Y3F4KVQ7DFLTE4FJB13,3PDJHANYK9W6NX6XRQYSLCJG1F4H6K,8,7
184,3,object_05,object_02,23.235000669956,6,2,60.364999808371,0.3333333333333333,2,object_09,5,2618,0,8,3,library_4,1,memory-2step-stake-s,683,2374201,0.0-19.0-0.1-0.184,A2L2E6J3D23CN4,306996CF7Z0Y3F4KVQ7DFLTE4FJB13,3PDJHANYK9W6NX6XRQYSLCJG1F4H6K,5,6
185,4,object_08,object_01,168.18000003695,7,2,3.9799995720387,0.8888888888888888,1,object_07,5,2658,0,8,3,restaurant_7,1,memory-2step-stake-s,684,2382227,0.0-19.0-0.1-0.185,A2L2E6J3D23CN4,306996CF7Z0Y3F4KVQ7DFLTE4FJB13,3PDJHANYK9W6NX6XRQYSLCJG1F4H6K,8,7
186,4,object_01,object_08,20.934999920428,7,1,119.30999998003,0.7777777777777778,1,object_07,1,2665,0,7,4,restaurant_6,1,memory-2step-stake-s,685,2390269,0.0-19.0-0.1-0.186,A2L2E6J3D23CN4,306996CF7Z0Y3F4KVQ7DFLTE4FJB13,3PDJHANYK9W6NX6XRQYSLCJG1F4H6K,7,8
187,3,object_05,object_02,40.064999833703,6,2,3.3599995076656,0.0,2,object_09,5,2665,0,6,0,library_6,1,memory-2step-stake-s,686,2397486,0.0-19.0-0.1-0.187,A2L2E6J3D23CN4,306996CF7Z0Y3F4KVQ7DFLTE4FJB13,3PDJHANYK9W6NX6XRQYSLCJG1F4H6K,5,6
188,3,object_02,object_05,50.425000488758,6,1,173.55000041425,0.1111111111111111,2,object_09,5,2670,0,5,1,library_4,1,memory-2step-stake-s,687,2404973,0.0-19.0-0.1-0.188,A2L2E6J3D23CN4,306996CF7Z0Y3F4KVQ7DFLTE4FJB13,3PDJHANYK9W6NX6XRQYSLCJG1F4H6K,6,5
189,2,object_10,object_04,138.60999979079,4,2,222.27500006557,0.1111111111111111,2,object_09,5,2675,0,5,1,forest_5,1,memory-2step-stake-s,688,2412511,0.0-19.0-0.1-0.189,A2L2E6J3D23CN4,306996CF7Z0Y3F4KVQ7DFLTE4FJB13,3PDJHANYK9W6NX6XRQYSLCJG1F4H6K,3,4
190,2,object_04,object_10,168.6950000003,3,2,68.524999544024,0.5555555555555556,1,object_07,1,2680,0,5,1,forest_3,1,memory-2step-stake-s,689,2420301,0.0-19.0-0.1-0.190,A2L2E6J3D23CN4,306996CF7Z0Y3F4KVQ7DFLTE4FJB13,3PDJHANYK9W6NX6XRQYSLCJG1F4H6K,4,3
191,1,object_06,object_03,137.95499969274,1,1,514.8749994114,0.5555555555555556,1,object_07,1,2685,0,5,1,desert_1,1,memory-2step-stake-s,690,2428534,0.0-19.0-0.1-0.191,A2L2E6J3D23CN4,306996CF7Z0Y3F4KVQ7DFLTE4FJB13,3PDJHANYK9W6NX6XRQYSLCJG1F4H6K,1,2
192,1,object_06,object_03,191.03000033647,2,2,233.26500039548,0.1111111111111111,2,object_09,1,2686,0,3,1,desert_8,1,memory-2step-stake-s,691,2436082,0.0-19.0-0.1-0.192,A2L2E6J3D23CN4,306996CF7Z0Y3F4KVQ7DFLTE4FJB13,3PDJHANYK9W6NX6XRQYSLCJG1F4H6K,1,2
193,4,object_01,object_08,78.01999989897,7,1,94.359999522567,0.3333333333333333,1,object_07,5,2701,0,3,1,restaurant_7,1,memory-2step-stake-s,692,2443694,0.0-19.0-0.1-0.193,A2L2E6J3D23CN4,306996CF7Z0Y3F4KVQ7DFLTE4FJB13,3PDJHANYK9W6NX6XRQYSLCJG1F4H6K,7,8
194,1,object_03,object_06,43.254999443889,1,2,328.94999999553,0.2222222222222222,1,object_07,1,2703,0,2,1,desert_8,1,memory-2step-stake-s,693,2451442,0.0-19.0-0.1-0.194,A2L2E6J3D23CN4,306996CF7Z0Y3F4KVQ7DFLTE4FJB13,3PDJHANYK9W6NX6XRQYSLCJG1F4H6K,2,1
195,1,object_06,object_03,87.07999996841,1,1,155.59500083327,0.1111111111111111,1,object_07,1,2704,0,1,2,desert_4,1,memory-2step-stake-s,694,2458915,0.0-19.0-0.1-0.195,A2L2E6J3D23CN4,306996CF7Z0Y3F4KVQ7DFLTE4FJB13,3PDJHANYK9W6NX6XRQYSLCJG1F4H6K,1,2
196,2,object_04,object_10,1.6850000247359,3,2,149.65999964625,0.4444444444444444,1,object_07,1,2708,0,4,1,forest_4,1,memory-2step-stake-s,695,2466684,0.0-19.0-0.1-0.196,A2L2E6J3D23CN4,306996CF7Z0Y3F4KVQ7DFLTE4FJB13,3PDJHANYK9W6NX6XRQYSLCJG1F4H6K,4,3
197,4,object_08,object_01,210.06500069052,8,1,44.835000298917,0.1111111111111111,2,object_09,5,2713,0,1,1,restaurant_7,1,memory-2step-stake-s,696,2474046,0.0-19.0-0.1-0.197,A2L2E6J3D23CN4,306996CF7Z0Y3F4KVQ7DFLTE4FJB13,3PDJHANYK9W6NX6XRQYSLCJG1F4H6K,8,7
198,1,object_06,object_03,83.815000019968,2,2,23.025000467896,0.0,2,object_09,1,2713,0,1,0,desert_1,1,memory-2step-stake-s,697,2481286,0.0-19.0-0.1-0.198,A2L2E6J3D23CN4,306996CF7Z0Y3F4KVQ7DFLTE4FJB13,3PDJHANYK9W6NX6XRQYSLCJG1F4H6K,1,2
199,1,object_03,object_06,149.32999946177,2,1,107.87000041455,0.0,2,object_09,1,2713,0,2,0,desert_3,1,memory-2step-stake-s,698,2488608,0.0-19.0-0.1-0.199,A2L2E6J3D23CN4,306996CF7Z0Y3F4KVQ7DFLTE4FJB13,3PDJHANYK9W6NX6XRQYSLCJG1F4H6K,2,1
200,1,object_06,object_03,61.470000073314,2,2,129.66000009328,0.4444444444444444,2,object_09,1,2717,0,0,4,desert_4,1,memory-2step-stake-s,699,2496358,0.0-19.0-0.1-0.200,A2L2E6J3D23CN4,306996CF7Z0Y3F4KVQ7DFLTE4FJB13,3PDJHANYK9W6NX6XRQYSLCJG1F4H6K,1,2
201,1,object_03,object_06,50.594999454916,2,1,158.7100001052,0.5555555555555556,2,object_09,1,2722,0,3,5,desert_1,1,memory-2step-stake-s,700,2504238,0.0-19.0-0.1-0.201,A2L2E6J3D23CN4,306996CF7Z0Y3F4KVQ7DFLTE4FJB13,3PDJHANYK9W6NX6XRQYSLCJG1F4H6K,2,1
202,2,object_04,object_10,160.58999951929,3,2,323.55999946594,0.4444444444444444,1,object_07,1,2726,0,4,6,forest_3,1,memory-2step-stake-s,701,2512182,0.0-19.0-0.1-0.202,A2L2E6J3D23CN4,306996CF7Z0Y3F4KVQ7DFLTE4FJB13,3PDJHANYK9W6NX6XRQYSLCJG1F4H6K,4,3
203,3,object_05,object_02,214.4200000912,6,2,61.005000025034,0.6666666666666666,2,object_09,5,2756,0,6,6,library_7,1,memory-2step-stake-s,702,2520063,0.0-19.0-0.1-0.203,A2L2E6J3D23CN4,306996CF7Z0Y3F4KVQ7DFLTE4FJB13,3PDJHANYK9W6NX6XRQYSLCJG1F4H6K,5,6
204,4,object_01,object_08,138.84499948472,7,1,297.28000052273,0.7777777777777778,1,object_07,5,2791,0,7,9,restaurant_6,1,memory-2step-stake-s,703,2528287,0.0-19.0-0.1-0.204,A2L2E6J3D23CN4,306996CF7Z0Y3F4KVQ7DFLTE4FJB13,3PDJHANYK9W6NX6XRQYSLCJG1F4H6K,7,8
205,2,object_10,object_04,92.845000326633,4,2,511.08499988914,0.8888888888888888,2,object_09,1,2799,0,8,8,forest_2,1,memory-2step-stake-s,704,2536825,0.0-19.0-0.1-0.205,A2L2E6J3D23CN4,306996CF7Z0Y3F4KVQ7DFLTE4FJB13,3PDJHANYK9W6NX6XRQYSLCJG1F4H6K,3,4
206,2,object_10,object_04,127.03499943018,3,1,510.47000009567,0.8888888888888888,1,object_07,1,2807,0,8,4,forest_4,1,memory-2step-stake-s,705,2545362,0.0-19.0-0.1-0.206,A2L2E6J3D23CN4,306996CF7Z0Y3F4KVQ7DFLTE4FJB13,3PDJHANYK9W6NX6XRQYSLCJG1F4H6K,3,4
207,1,object_06,object_03,37.755000405014,2,2,126.50999985635,0.5555555555555556,2,object_09,1,2812,0,9,5,desert_8,1,memory-2step-stake-s,706,2553256,0.0-19.0-0.1-0.207,A2L2E6J3D23CN4,306996CF7Z0Y3F4KVQ7DFLTE4FJB13,3PDJHANYK9W6NX6XRQYSLCJG1F4H6K,1,2
208,1,object_06,object_03,147.69000001252,1,1,470.70000041276,0.7777777777777778,1,object_07,1,2819,0,7,5,desert_8,1,memory-2step-stake-s,707,2561649,0.0-19.0-0.1-0.208,A2L2E6J3D23CN4,306996CF7Z0Y3F4KVQ7DFLTE4FJB13,3PDJHANYK9W6NX6XRQYSLCJG1F4H6K,1,2
209,4,object_01,object_08,80.205000005662,8,2,309.91999991238,0.6666666666666666,2,object_09,5,2849,0,8,6,restaurant_4,1,memory-2step-stake-s,708,2569779,0.0-19.0-0.1-0.209,A2L2E6J3D23CN4,306996CF7Z0Y3F4KVQ7DFLTE4FJB13,3PDJHANYK9W6NX6XRQYSLCJG1F4H6K,7,8
210,3,object_02,object_05,73.870000429451,5,2,525.85999947041,1.0,1,object_07,5,2894,0,9,6,library_3,1,memory-2step-stake-s,709,2578427,0.0-19.0-0.1-0.210,A2L2E6J3D23CN4,306996CF7Z0Y3F4KVQ7DFLTE4FJB13,3PDJHANYK9W6NX6XRQYSLCJG1F4H6K,6,5
211,2,object_10,object_04,217.90499985218,3,1,185.79499982297,1.0,1,object_07,1,2903,0,9,8,forest_3,1,memory-2step-stake-s,710,2586736,0.0-19.0-0.1-0.211,A2L2E6J3D23CN4,306996CF7Z0Y3F4KVQ7DFLTE4FJB13,3PDJHANYK9W6NX6XRQYSLCJG1F4H6K,3,4
212,1,object_03,object_06,26.515000499785,1,2,92.935000546277,0.8888888888888888,1,object_07,1,2911,0,8,8,desert_8,1,memory-2step-stake-s,711,2594850,0.0-19.0-0.1-0.212,A2L2E6J3D23CN4,306996CF7Z0Y3F4KVQ7DFLTE4FJB13,3PDJHANYK9W6NX6XRQYSLCJG1F4H6K,2,1
213,4,object_08,object_01,53.22500038892,8,1,167.73500014096,0.6666666666666666,2,object_09,5,2941,0,3,6,restaurant_4,1,memory-2step-stake-s,712,2602839,0.0-19.0-0.1-0.213,A2L2E6J3D23CN4,306996CF7Z0Y3F4KVQ7DFLTE4FJB13,3PDJHANYK9W6NX6XRQYSLCJG1F4H6K,8,7
214,3,object_02,object_05,87.989999912679,5,2,138.36499955505,0.2222222222222222,1,object_07,5,2951,0,2,7,library_6,1,memory-2step-stake-s,713,2610394,0.0-19.0-0.1-0.214,A2L2E6J3D23CN4,306996CF7Z0Y3F4KVQ7DFLTE4FJB13,3PDJHANYK9W6NX6XRQYSLCJG1F4H6K,6,5
215,1,object_06,object_03,18.500000238419,2,2,614.24999963492,0.8888888888888888,2,object_09,5,2991,0,1,8,desert_3,1,memory-2step-stake-s,714,2619030,0.0-19.0-0.1-0.215,A2L2E6J3D23CN4,306996CF7Z0Y3F4KVQ7DFLTE4FJB13,3PDJHANYK9W6NX6XRQYSLCJG1F4H6K,1,2
216,4,object_08,object_01,7.1100005879998,8,1,45.300000347197,0.7777777777777778,2,object_09,1,2998,0,2,7,restaurant_7,1,memory-2step-stake-s,715,2626998,0.0-19.0-0.1-0.216,A2L2E6J3D23CN4,306996CF7Z0Y3F4KVQ7DFLTE4FJB13,3PDJHANYK9W6NX6XRQYSLCJG1F4H6K,8,7
217,4,object_01,object_08,1115.1249995455,7,1,395.06999962032,0.3333333333333333,1,object_07,5,3013,0,3,7,restaurant_4,1,memory-2step-stake-s,716,2634909,0.0-19.0-0.1-0.217,A2L2E6J3D23CN4,306996CF7Z0Y3F4KVQ7DFLTE4FJB13,3PDJHANYK9W6NX6XRQYSLCJG1F4H6K,7,8
218,1,object_03,object_06,41.364999487996,1,2,65.094999969006,0.6666666666666666,1,object_07,5,3043,0,6,6,desert_3,1,memory-2step-stake-s,717,2642793,0.0-19.0-0.1-0.218,A2L2E6J3D23CN4,306996CF7Z0Y3F4KVQ7DFLTE4FJB13,3PDJHANYK9W6NX6XRQYSLCJG1F4H6K,2,1
219,2,object_10,object_04,51.815000362694,3,1,1.8549999222159,0.2222222222222222,1,object_07,1,3045,0,2,3,forest_3,1,memory-2step-stake-s,718,2650213,0.0-19.0-0.1-0.219,A2L2E6J3D23CN4,306996CF7Z0Y3F4KVQ7DFLTE4FJB13,3PDJHANYK9W6NX6XRQYSLCJG1F4H6K,3,4
220,1,object_06,object_03,75.490000657737,2,2,388.34500033408,0.3333333333333333,2,object_09,1,3048,0,4,3,desert_1,1,memory-2step-stake-s,719,2658118,0.0-19.0-0.1-0.220,A2L2E6J3D23CN4,306996CF7Z0Y3F4KVQ7DFLTE4FJB13,3PDJHANYK9W6NX6XRQYSLCJG1F4H6K,1,2
221,4,object_01,object_08,196.93499989808,8,2,164.67500012368,0.7777777777777778,2,object_09,1,3055,0,3,7,restaurant_1,1,memory-2step-stake-s,720,2666207,0.0-19.0-0.1-0.221,A2L2E6J3D23CN4,306996CF7Z0Y3F4KVQ7DFLTE4FJB13,3PDJHANYK9W6NX6XRQYSLCJG1F4H6K,7,8
222,3,object_05,object_02,28.189999982715,6,2,1407.6650002971,0.6666666666666666,2,object_09,1,3061,0,7,6,library_3,1,memory-2step-stake-s,721,2675433,0.0-19.0-0.1-0.222,A2L2E6J3D23CN4,306996CF7Z0Y3F4KVQ7DFLTE4FJB13,3PDJHANYK9W6NX6XRQYSLCJG1F4H6K,5,6
223,1,object_03,object_06,-1.0,-1,-1,-1.0,0.0,-,0,1,3061,0,6,5,desert_3,1,memory-2step-stake-s,722,2681941,0.0-19.0-0.1-0.223,A2L2E6J3D23CN4,306996CF7Z0Y3F4KVQ7DFLTE4FJB13,3PDJHANYK9W6NX6XRQYSLCJG1F4H6K,2,1
224,2,object_10,object_04,36.294999532402,3,1,498.48499987274,0.7777777777777778,1,object_07,1,3068,0,7,5,forest_4,1,memory-2step-stake-s,723,2690360,0.0-19.0-0.1-0.224,A2L2E6J3D23CN4,306996CF7Z0Y3F4KVQ7DFLTE4FJB13,3PDJHANYK9W6NX6XRQYSLCJG1F4H6K,3,4
225,4,object_08,object_01,77.525000087917,7,2,163.05500082672,0.4444444444444444,1,object_07,5,3088,0,4,7,restaurant_4,1,memory-2step-stake-s,724,2698145,0.0-19.0-0.1-0.225,A2L2E6J3D23CN4,306996CF7Z0Y3F4KVQ7DFLTE4FJB13,3PDJHANYK9W6NX6XRQYSLCJG1F4H6K,8,7
226,1,object_06,object_03,179.27499953657,2,2,768.05500034243,0.8888888888888888,2,object_09,5,3128,0,8,8,desert_3,1,memory-2step-stake-s,725,2706934,0.0-19.0-0.1-0.226,A2L2E6J3D23CN4,306996CF7Z0Y3F4KVQ7DFLTE4FJB13,3PDJHANYK9W6NX6XRQYSLCJG1F4H6K,1,2
227,2,object_04,object_10,187.39499989897,4,1,132.39500019699,1.0,2,object_09,5,3173,0,8,9,forest_2,1,memory-2step-stake-s,726,2715192,0.0-19.0-0.1-0.227,A2L2E6J3D23CN4,306996CF7Z0Y3F4KVQ7DFLTE4FJB13,3PDJHANYK9W6NX6XRQYSLCJG1F4H6K,4,3
228,2,object_10,object_04,117.21500009298,4,2,246.91999983042,0.8888888888888888,2,object_09,1,3181,0,5,8,forest_5,1,memory-2step-stake-s,727,2723462,0.0-19.0-0.1-0.228,A2L2E6J3D23CN4,306996CF7Z0Y3F4KVQ7DFLTE4FJB13,3PDJHANYK9W6NX6XRQYSLCJG1F4H6K,3,4
229,2,object_10,object_04,128.53000033647,3,1,72.564999572933,0.3333333333333333,1,object_07,1,3184,0,3,4,forest_5,1,memory-2step-stake-s,728,2731051,0.0-19.0-0.1-0.229,A2L2E6J3D23CN4,306996CF7Z0Y3F4KVQ7DFLTE4FJB13,3PDJHANYK9W6NX6XRQYSLCJG1F4H6K,3,4
230,1,object_06,object_03,590.13999998569,2,2,105.86499981582,0.6666666666666666,2,object_09,1,3190,0,0,6,desert_8,1,memory-2step-stake-s,729,2738975,0.0-19.0-0.1-0.230,A2L2E6J3D23CN4,306996CF7Z0Y3F4KVQ7DFLTE4FJB13,3PDJHANYK9W6NX6XRQYSLCJG1F4H6K,1,2
231,4,object_08,object_01,47.505000606179,8,1,183.49000066519,0.5555555555555556,2,object_09,5,3215,0,4,5,restaurant_6,1,memory-2step-stake-s,730,2746877,0.0-19.0-0.1-0.231,A2L2E6J3D23CN4,306996CF7Z0Y3F4KVQ7DFLTE4FJB13,3PDJHANYK9W6NX6XRQYSLCJG1F4H6K,8,7
232,4,object_01,object_08,171.14000022411,8,2,147.50999957323,0.6666666666666666,2,object_09,1,3221,0,3,6,restaurant_6,1,memory-2step-stake-s,731,2754843,0.0-19.0-0.1-0.232,A2L2E6J3D23CN4,306996CF7Z0Y3F4KVQ7DFLTE4FJB13,3PDJHANYK9W6NX6XRQYSLCJG1F4H6K,7,8
233,2,object_04,object_10,526.11499931663,4,1,71.92499935627,0.8888888888888888,2,object_09,1,3229,0,3,8,forest_5,1,memory-2step-stake-s,732,2762937,0.0-19.0-0.1-0.233,A2L2E6J3D23CN4,306996CF7Z0Y3F4KVQ7DFLTE4FJB13,3PDJHANYK9W6NX6XRQYSLCJG1F4H6K,4,3
234,1,object_06,object_03,-1.0,-1,-1,-1.0,0.0,-,0,1,3229,0,3,7,desert_4,1,memory-2step-stake-s,733,2769446,0.0-19.0-0.1-0.234,A2L2E6J3D23CN4,306996CF7Z0Y3F4KVQ7DFLTE4FJB13,3PDJHANYK9W6NX6XRQYSLCJG1F4H6K,1,2
235,1,object_06,object_03,62.640000134706,1,1,165.13499990106,0.3333333333333333,1,object_07,1,3232,0,3,4,desert_4,1,memory-2step-stake-s,734,2777127,0.0-19.0-0.1-0.235,A2L2E6J3D23CN4,306996CF7Z0Y3F4KVQ7DFLTE4FJB13,3PDJHANYK9W6NX6XRQYSLCJG1F4H6K,1,2
236,4,object_08,object_01,177.31499951333,7,2,66.229999996722,0.1111111111111111,1,object_07,1,3233,0,1,4,restaurant_7,1,memory-2step-stake-s,735,2784513,0.0-19.0-0.1-0.236,A2L2E6J3D23CN4,306996CF7Z0Y3F4KVQ7DFLTE4FJB13,3PDJHANYK9W6NX6XRQYSLCJG1F4H6K,8,7
237,1,object_06,object_03,30.195000581443,1,1,89.689999818802,0.2222222222222222,1,object_07,1,3235,0,2,4,desert_8,1,memory-2step-stake-s,736,2792019,0.0-19.0-0.1-0.237,A2L2E6J3D23CN4,306996CF7Z0Y3F4KVQ7DFLTE4FJB13,3PDJHANYK9W6NX6XRQYSLCJG1F4H6K,1,2
238,3,object_02,object_05,77.15000025928,5,2,321.46499957889,0.4444444444444444,1,object_07,1,3239,0,4,7,library_6,1,memory-2step-stake-s,737,2799957,0.0-19.0-0.1-0.238,A2L2E6J3D23CN4,306996CF7Z0Y3F4KVQ7DFLTE4FJB13,3PDJHANYK9W6NX6XRQYSLCJG1F4H6K,6,5
239,3,object_05,object_02,277.52000000328,5,1,310.36499980837,0.1111111111111111,1,object_07,5,3244,0,1,5,library_3,1,memory-2step-stake-s,738,2807583,0.0-19.0-0.1-0.239,A2L2E6J3D23CN4,306996CF7Z0Y3F4KVQ7DFLTE4FJB13,3PDJHANYK9W6NX6XRQYSLCJG1F4H6K,5,6
240,4,object_08,object_01,76.119999401271,7,2,121.26499973238,0.3333333333333333,1,object_07,5,3259,0,3,6,restaurant_7,1,memory-2step-stake-s,739,2815219,0.0-19.0-0.1-0.240,A2L2E6J3D23CN4,306996CF7Z0Y3F4KVQ7DFLTE4FJB13,3PDJHANYK9W6NX6XRQYSLCJG1F4H6K,8,7
241,2,object_04,object_10,73.675000108778,4,1,135.68500056863,0.4444444444444444,2,object_09,1,3263,0,4,4,forest_4,1,memory-2step-stake-s,740,2822974,0.0-19.0-0.1-0.241,A2L2E6J3D23CN4,306996CF7Z0Y3F4KVQ7DFLTE4FJB13,3PDJHANYK9W6NX6XRQYSLCJG1F4H6K,4,3
242,3,object_02,object_05,23.920000530779,5,2,322.88500014693,0.6666666666666666,1,object_07,5,3293,0,6,9,library_7,1,memory-2step-stake-s,741,2831116,0.0-19.0-0.1-0.242,A2L2E6J3D23CN4,306996CF7Z0Y3F4KVQ7DFLTE4FJB13,3PDJHANYK9W6NX6XRQYSLCJG1F4H6K,6,5
243,2,object_10,object_04,-1.0,-1,-1,-1.0,0.0,-,0,1,3293,0,8,8,forest_2,1,memory-2step-stake-s,742,2837625,0.0-19.0-0.1-0.243,A2L2E6J3D23CN4,306996CF7Z0Y3F4KVQ7DFLTE4FJB13,3PDJHANYK9W6NX6XRQYSLCJG1F4H6K,3,4
244,1,object_06,object_03,140.12500084937,1,1,43.235000222921,0.8888888888888888,1,object_07,5,3333,0,8,7,desert_4,1,memory-2step-stake-s,743,2845691,0.0-19.0-0.1-0.244,A2L2E6J3D23CN4,306996CF7Z0Y3F4KVQ7DFLTE4FJB13,3PDJHANYK9W6NX6XRQYSLCJG1F4H6K,1,2
245,1,object_06,object_03,128.82000021636,2,2,224.57499988377,0.4444444444444444,2,object_09,1,3337,0,8,4,desert_4,1,memory-2step-stake-s,744,2853533,0.0-19.0-0.1-0.245,A2L2E6J3D23CN4,306996CF7Z0Y3F4KVQ7DFLTE4FJB13,3PDJHANYK9W6NX6XRQYSLCJG1F4H6K,1,2
246,4,object_08,object_01,49.089999869466,8,1,46.275000087917,0.2222222222222222,2,object_09,5,3347,0,6,2,restaurant_6,1,memory-2step-stake-s,745,2860993,0.0-19.0-0.1-0.246,A2L2E6J3D23CN4,306996CF7Z0Y3F4KVQ7DFLTE4FJB13,3PDJHANYK9W6NX6XRQYSLCJG1F4H6K,8,7
247,2,object_10,object_04,532.18500036746,4,2,564.43500053138,0.2222222222222222,2,object_09,5,3357,0,7,2,forest_4,1,memory-2step-stake-s,746,2868976,0.0-19.0-0.1-0.247,A2L2E6J3D23CN4,306996CF7Z0Y3F4KVQ7DFLTE4FJB13,3PDJHANYK9W6NX6XRQYSLCJG1F4H6K,3,4
248,3,object_02,object_05,140.30999969691,6,1,11.075000278652,0.2222222222222222,2,object_09,5,3367,0,6,2,library_7,1,memory-2step-stake-s,747,2876404,0.0-19.0-0.1-0.248,A2L2E6J3D23CN4,306996CF7Z0Y3F4KVQ7DFLTE4FJB13,3PDJHANYK9W6NX6XRQYSLCJG1F4H6K,6,5
249,3,object_05,object_02,142.82499998808,6,2,51.179999485612,0.3333333333333333,2,object_09,1,3370,0,5,3,library_4,1,memory-2step-stake-s,748,2883971,0.0-19.0-0.1-0.249,A2L2E6J3D23CN4,306996CF7Z0Y3F4KVQ7DFLTE4FJB13,3PDJHANYK9W6NX6XRQYSLCJG1F4H6K,5,6
250,1,object_03,object_06,130.8000003919,2,1,194.43000014871,0.2222222222222222,2,object_09,1,3372,0,4,2,desert_1,1,memory-2step-stake-s,749,2891582,0.0-19.0-0.1-0.250,A2L2E6J3D23CN4,306996CF7Z0Y3F4KVQ7DFLTE4FJB13,3PDJHANYK9W6NX6XRQYSLCJG1F4H6K,2,1
251,4,object_08,object_01,176.00500024855,7,2,55.38500007242,0.5555555555555556,1,object_07,1,3377,0,5,1,restaurant_6,1,memory-2step-stake-s,750,2899355,0.0-19.0-0.1-0.251,A2L2E6J3D23CN4,306996CF7Z0Y3F4KVQ7DFLTE4FJB13,3PDJHANYK9W6NX6XRQYSLCJG1F4H6K,8,7
252,4,object_08,object_01,254.37499955297,8,1,206.76499977708,0.3333333333333333,2,object_09,5,3392,0,3,3,restaurant_6,1,memory-2step-stake-s,751,2907084,0.0-19.0-0.1-0.252,A2L2E6J3D23CN4,306996CF7Z0Y3F4KVQ7DFLTE4FJB13,3PDJHANYK9W6NX6XRQYSLCJG1F4H6K,8,7
253,3,object_02,object_05,33.050000667572,5,2,211.2500006333,0.3333333333333333,1,object_07,1,3395,0,3,1,library_7,1,memory-2step-stake-s,752,2914811,0.0-19.0-0.1-0.253,A2L2E6J3D23CN4,306996CF7Z0Y3F4KVQ7DFLTE4FJB13,3PDJHANYK9W6NX6XRQYSLCJG1F4H6K,6,5
254,4,object_01,object_08,14.214999973774,7,1,218.96500047296,0.2222222222222222,1,object_07,5,3405,0,2,1,restaurant_4,1,memory-2step-stake-s,753,2922446,0.0-19.0-0.1-0.254,A2L2E6J3D23CN4,306996CF7Z0Y3F4KVQ7DFLTE4FJB13,3PDJHANYK9W6NX6XRQYSLCJG1F4H6K,7,8
255,3,object_02,object_05,289.72500003874,5,2,183.78000054508,0.3333333333333333,1,object_07,5,3420,0,3,3,library_6,1,memory-2step-stake-s,754,2930147,0.0-19.0-0.1-0.255,A2L2E6J3D23CN4,306996CF7Z0Y3F4KVQ7DFLTE4FJB13,3PDJHANYK9W6NX6XRQYSLCJG1F4H6K,6,5
