,state1,stim_left,stim_right,rt_1,choice1,response1,rt_2,points,state2,stim_state2,stake,score,practice,rews1,rews2,background,high_arm,trial_type,trial_index,time_elapsed,internal_node_id,subid,hitid,assignmentid,stim_left_num,stim_right_num
0,1,object_04,object_02,1236.8000000007,1,1,-1.0,0.0,1,object_05,5,0,0,7,0,desert_1,2,memory-2step-stake-s,503,1872913,0.0-19.0-0.0-0.0,AVN1RGGP00USR,371DNNCG57IGA1IMUX7DUPM8OSP8TA,31IBVUNM9WF7ORUSX8I0UJN22THVFQ,1,2
1,3,object_01,object_03,1296.5,6,2,988.0,0.0,2,object_10,1,0,0,8,0,library_7,2,memory-2step-stake-s,504,1881168,0.0-19.0-0.0-0.1,AVN1RGGP00USR,371DNNCG57IGA1IMUX7DUPM8OSP8TA,31IBVUNM9WF7ORUSX8I0UJN22THVFQ,5,6
2,2,object_09,object_08,949.09999999963,4,1,667.0,0.2222222222222222,2,object_10,5,10,0,7,2,forest_6,2,memory-2step-stake-s,505,1889317,0.0-19.0-0.0-0.2,AVN1RGGP00USR,371DNNCG57IGA1IMUX7DUPM8OSP8TA,31IBVUNM9WF7ORUSX8I0UJN22THVFQ,4,3
3,1,object_04,object_02,831.69999999925,2,2,426.5,0.4444444444444444,2,object_10,5,30,0,7,4,desert_7,2,memory-2step-stake-s,506,1897450,0.0-19.0-0.0-0.3,AVN1RGGP00USR,371DNNCG57IGA1IMUX7DUPM8OSP8TA,31IBVUNM9WF7ORUSX8I0UJN22THVFQ,1,2
4,3,object_03,object_01,1088.7999999989,6,1,328.90000000037,0.2222222222222222,2,object_10,1,32,0,8,2,library_7,2,memory-2step-stake-s,507,1905248,0.0-19.0-0.0-0.4,AVN1RGGP00USR,371DNNCG57IGA1IMUX7DUPM8OSP8TA,31IBVUNM9WF7ORUSX8I0UJN22THVFQ,6,5
5,4,object_06,object_07,973.69999999925,8,2,698.90000000037,0.2222222222222222,2,object_10,1,34,0,5,2,restaurant_5,2,memory-2step-stake-s,508,1913447,0.0-19.0-0.0-0.5,AVN1RGGP00USR,371DNNCG57IGA1IMUX7DUPM8OSP8TA,31IBVUNM9WF7ORUSX8I0UJN22THVFQ,7,8
6,2,object_09,object_08,906.19999999925,3,2,713.0,0.6666666666666666,1,object_05,1,40,0,6,0,forest_6,2,memory-2step-stake-s,509,1922094,0.0-19.0-0.0-0.6,AVN1RGGP00USR,371DNNCG57IGA1IMUX7DUPM8OSP8TA,31IBVUNM9WF7ORUSX8I0UJN22THVFQ,4,3
7,2,object_09,object_08,1272.7999999989,3,2,331.79999999888,0.4444444444444444,1,object_05,5,60,0,4,1,forest_5,2,memory-2step-stake-s,510,1930136,0.0-19.0-0.0-0.7,AVN1RGGP00USR,371DNNCG57IGA1IMUX7DUPM8OSP8TA,31IBVUNM9WF7ORUSX8I0UJN22THVFQ,4,3
8,3,object_01,object_03,1087.4000000004,5,1,294.40000000037,0.6666666666666666,1,object_05,1,66,0,6,2,library_7,2,memory-2step-stake-s,511,1938368,0.0-19.0-0.0-0.8,AVN1RGGP00USR,371DNNCG57IGA1IMUX7DUPM8OSP8TA,31IBVUNM9WF7ORUSX8I0UJN22THVFQ,5,6
9,4,object_07,object_06,-1.0,-1,-1,-1.0,0.0,-,0,1,66,0,7,4,restaurant_5,2,memory-2step-stake-s,512,1944916,0.0-19.0-0.0-0.9,AVN1RGGP00USR,371DNNCG57IGA1IMUX7DUPM8OSP8TA,31IBVUNM9WF7ORUSX8I0UJN22THVFQ,8,7
10,2,object_08,object_09,713.80000000075,4,2,596.0,0.6666666666666666,2,object_10,1,72,0,6,6,forest_4,2,memory-2step-stake-s,513,1953436,0.0-19.0-0.0-0.10,AVN1RGGP00USR,371DNNCG57IGA1IMUX7DUPM8OSP8TA,31IBVUNM9WF7ORUSX8I0UJN22THVFQ,3,4
11,3,object_01,object_03,779.29999999888,6,2,421.5,0.6666666666666666,2,object_10,1,78,0,5,6,library_8,2,memory-2step-stake-s,514,1961789,0.0-19.0-0.0-0.11,AVN1RGGP00USR,371DNNCG57IGA1IMUX7DUPM8OSP8TA,31IBVUNM9WF7ORUSX8I0UJN22THVFQ,5,6
12,3,object_01,object_03,859.5,6,2,434.90000000037,0.3333333333333333,2,object_10,1,81,0,3,3,library_1,2,memory-2step-stake-s,515,1969797,0.0-19.0-0.0-0.12,AVN1RGGP00USR,371DNNCG57IGA1IMUX7DUPM8OSP8TA,31IBVUNM9WF7ORUSX8I0UJN22THVFQ,5,6
13,4,object_06,object_07,916.90000000037,7,1,498.5,0.1111111111111111,1,object_05,5,86,0,1,2,restaurant_8,2,memory-2step-stake-s,516,1977672,0.0-19.0-0.0-0.13,AVN1RGGP00USR,371DNNCG57IGA1IMUX7DUPM8OSP8TA,31IBVUNM9WF7ORUSX8I0UJN22THVFQ,7,8
14,1,object_04,object_02,1076.4000000004,2,2,605.59999999963,0.2222222222222222,2,object_10,1,88,0,2,2,desert_5,2,memory-2step-stake-s,517,1985751,0.0-19.0-0.0-0.14,AVN1RGGP00USR,371DNNCG57IGA1IMUX7DUPM8OSP8TA,31IBVUNM9WF7ORUSX8I0UJN22THVFQ,1,2
15,3,object_03,object_01,497.59999999963,6,1,459.0,0.1111111111111111,2,object_10,1,89,0,4,1,library_8,2,memory-2step-stake-s,518,1993599,0.0-19.0-0.0-0.15,AVN1RGGP00USR,371DNNCG57IGA1IMUX7DUPM8OSP8TA,31IBVUNM9WF7ORUSX8I0UJN22THVFQ,6,5
16,1,object_04,object_02,1023.4000000004,1,1,585.89999999851,0.4444444444444444,1,object_05,5,109,0,4,1,desert_3,2,memory-2step-stake-s,519,2001896,0.0-19.0-0.0-0.16,AVN1RGGP00USR,371DNNCG57IGA1IMUX7DUPM8OSP8TA,31IBVUNM9WF7ORUSX8I0UJN22THVFQ,1,2
17,1,object_04,object_02,906.80000000075,1,1,421.59999999963,0.3333333333333333,1,object_05,5,124,0,3,2,desert_5,2,memory-2step-stake-s,520,2009912,0.0-19.0-0.0-0.17,AVN1RGGP00USR,371DNNCG57IGA1IMUX7DUPM8OSP8TA,31IBVUNM9WF7ORUSX8I0UJN22THVFQ,1,2
18,1,object_02,object_04,903.19999999925,2,1,276.30000000075,0.5555555555555556,2,object_10,5,149,0,6,5,desert_1,2,memory-2step-stake-s,521,2018012,0.0-19.0-0.0-0.18,AVN1RGGP00USR,371DNNCG57IGA1IMUX7DUPM8OSP8TA,31IBVUNM9WF7ORUSX8I0UJN22THVFQ,2,1
19,3,object_01,object_03,596.30000000075,6,2,362.19999999925,0.7777777777777778,2,object_10,5,184,0,6,7,library_7,2,memory-2step-stake-s,522,2026432,0.0-19.0-0.0-0.19,AVN1RGGP00USR,371DNNCG57IGA1IMUX7DUPM8OSP8TA,31IBVUNM9WF7ORUSX8I0UJN22THVFQ,5,6
20,1,object_04,object_02,994.0,2,2,394.0,0.7777777777777778,2,object_10,5,219,0,5,7,desert_5,2,memory-2step-stake-s,523,2034869,0.0-19.0-0.0-0.20,AVN1RGGP00USR,371DNNCG57IGA1IMUX7DUPM8OSP8TA,31IBVUNM9WF7ORUSX8I0UJN22THVFQ,1,2
21,2,object_09,object_08,945.80000000075,4,1,507.59999999963,0.8888888888888888,2,object_10,5,259,0,5,8,forest_5,2,memory-2step-stake-s,524,2043532,0.0-19.0-0.0-0.21,AVN1RGGP00USR,371DNNCG57IGA1IMUX7DUPM8OSP8TA,31IBVUNM9WF7ORUSX8I0UJN22THVFQ,4,3
22,3,object_03,object_01,958.59999999963,6,1,452.90000000037,0.5555555555555556,2,object_10,5,284,0,5,5,library_8,2,memory-2step-stake-s,525,2051825,0.0-19.0-0.0-0.22,AVN1RGGP00USR,371DNNCG57IGA1IMUX7DUPM8OSP8TA,31IBVUNM9WF7ORUSX8I0UJN22THVFQ,6,5
23,3,object_03,object_01,1043.1999999993,5,2,329.69999999925,0.5555555555555556,1,object_05,1,289,0,5,6,library_8,2,memory-2step-stake-s,526,2059958,0.0-19.0-0.0-0.23,AVN1RGGP00USR,371DNNCG57IGA1IMUX7DUPM8OSP8TA,31IBVUNM9WF7ORUSX8I0UJN22THVFQ,6,5
24,2,object_08,object_09,1231.0999999996,4,2,518.09999999963,0.3333333333333333,2,object_10,5,304,0,7,3,forest_6,2,memory-2step-stake-s,527,2068088,0.0-19.0-0.0-0.24,AVN1RGGP00USR,371DNNCG57IGA1IMUX7DUPM8OSP8TA,31IBVUNM9WF7ORUSX8I0UJN22THVFQ,3,4
25,4,object_06,object_07,-1.0,-1,-1,-1.0,0.0,-,0,5,304,0,6,5,restaurant_1,2,memory-2step-stake-s,528,2074623,0.0-19.0-0.0-0.25,AVN1RGGP00USR,371DNNCG57IGA1IMUX7DUPM8OSP8TA,31IBVUNM9WF7ORUSX8I0UJN22THVFQ,7,8
26,1,object_04,object_02,929.29999999888,2,2,610.59999999963,0.7777777777777778,2,object_10,1,311,0,4,7,desert_5,2,memory-2step-stake-s,529,2083274,0.0-19.0-0.0-0.26,AVN1RGGP00USR,371DNNCG57IGA1IMUX7DUPM8OSP8TA,31IBVUNM9WF7ORUSX8I0UJN22THVFQ,1,2
27,1,object_04,object_02,737.80000000075,2,2,316.30000000075,0.8888888888888888,2,object_10,5,351,0,6,8,desert_7,2,memory-2step-stake-s,530,2091748,0.0-19.0-0.0-0.27,AVN1RGGP00USR,371DNNCG57IGA1IMUX7DUPM8OSP8TA,31IBVUNM9WF7ORUSX8I0UJN22THVFQ,1,2
28,3,object_03,object_01,528.40000000037,6,1,574.40000000037,0.8888888888888888,2,object_10,5,391,0,6,8,library_1,2,memory-2step-stake-s,531,2100464,0.0-19.0-0.0-0.28,AVN1RGGP00USR,371DNNCG57IGA1IMUX7DUPM8OSP8TA,31IBVUNM9WF7ORUSX8I0UJN22THVFQ,6,5
29,3,object_03,object_01,670.69999999925,5,2,275.69999999925,0.8888888888888888,1,object_05,1,399,0,8,5,library_1,2,memory-2step-stake-s,532,2108910,0.0-19.0-0.0-0.29,AVN1RGGP00USR,371DNNCG57IGA1IMUX7DUPM8OSP8TA,31IBVUNM9WF7ORUSX8I0UJN22THVFQ,6,5
30,2,object_09,object_08,779.0,4,1,614.79999999888,0.5555555555555556,2,object_10,5,424,0,5,5,forest_5,2,memory-2step-stake-s,533,2117351,0.0-19.0-0.0-0.30,AVN1RGGP00USR,371DNNCG57IGA1IMUX7DUPM8OSP8TA,31IBVUNM9WF7ORUSX8I0UJN22THVFQ,4,3
31,3,object_03,object_01,647.0,5,2,190.90000000037,0.7777777777777778,1,object_05,1,431,0,7,7,library_7,2,memory-2step-stake-s,534,2125584,0.0-19.0-0.0-0.31,AVN1RGGP00USR,371DNNCG57IGA1IMUX7DUPM8OSP8TA,31IBVUNM9WF7ORUSX8I0UJN22THVFQ,6,5
32,1,object_02,object_04,818.19999999925,1,2,381.30000000075,1.0,1,object_05,1,440,0,9,5,desert_7,2,memory-2step-stake-s,535,2134227,0.0-19.0-0.0-0.32,AVN1RGGP00USR,371DNNCG57IGA1IMUX7DUPM8OSP8TA,31IBVUNM9WF7ORUSX8I0UJN22THVFQ,2,1
33,4,object_06,object_07,920.19999999925,7,1,318.09999999963,0.7777777777777778,1,object_05,5,475,0,7,6,restaurant_2,2,memory-2step-stake-s,536,2142582,0.0-19.0-0.0-0.33,AVN1RGGP00USR,371DNNCG57IGA1IMUX7DUPM8OSP8TA,31IBVUNM9WF7ORUSX8I0UJN22THVFQ,7,8
34,4,object_07,object_06,838.90000000037,7,2,371.80000000075,0.7777777777777778,1,object_05,1,482,0,7,3,restaurant_8,2,memory-2step-stake-s,537,2150999,0.0-19.0-0.0-0.34,AVN1RGGP00USR,371DNNCG57IGA1IMUX7DUPM8OSP8TA,31IBVUNM9WF7ORUSX8I0UJN22THVFQ,8,7
35,4,object_06,object_07,675.69999999925,7,1,305.0,1.0,1,object_05,5,527,0,9,2,restaurant_8,2,memory-2step-stake-s,538,2159563,0.0-19.0-0.0-0.35,AVN1RGGP00USR,371DNNCG57IGA1IMUX7DUPM8OSP8TA,31IBVUNM9WF7ORUSX8I0UJN22THVFQ,7,8
36,2,object_09,object_08,984.20000000112,3,2,370.80000000075,1.0,1,object_05,5,572,0,9,0,forest_6,2,memory-2step-stake-s,539,2168188,0.0-19.0-0.0-0.36,AVN1RGGP00USR,371DNNCG57IGA1IMUX7DUPM8OSP8TA,31IBVUNM9WF7ORUSX8I0UJN22THVFQ,4,3
37,1,object_04,object_02,838.69999999925,1,1,418.40000000037,0.7777777777777778,1,object_05,5,607,0,7,2,desert_7,2,memory-2step-stake-s,540,2176644,0.0-19.0-0.0-0.37,AVN1RGGP00USR,371DNNCG57IGA1IMUX7DUPM8OSP8TA,31IBVUNM9WF7ORUSX8I0UJN22THVFQ,1,2
38,3,object_03,object_01,446.69999999925,5,2,233.19999999925,0.4444444444444444,1,object_05,1,611,0,4,4,library_1,2,memory-2step-stake-s,541,2184591,0.0-19.0-0.0-0.38,AVN1RGGP00USR,371DNNCG57IGA1IMUX7DUPM8OSP8TA,31IBVUNM9WF7ORUSX8I0UJN22THVFQ,6,5
39,3,object_01,object_03,901.90000000037,6,2,392.40000000037,0.3333333333333333,2,object_10,1,614,0,2,3,library_7,2,memory-2step-stake-s,542,2192599,0.0-19.0-0.0-0.39,AVN1RGGP00USR,371DNNCG57IGA1IMUX7DUPM8OSP8TA,31IBVUNM9WF7ORUSX8I0UJN22THVFQ,5,6
40,2,object_08,object_09,859.0,3,1,440.0,0.0,1,object_05,5,614,0,0,2,forest_6,2,memory-2step-stake-s,543,2200304,0.0-19.0-0.0-0.40,AVN1RGGP00USR,371DNNCG57IGA1IMUX7DUPM8OSP8TA,31IBVUNM9WF7ORUSX8I0UJN22THVFQ,3,4
41,2,object_09,object_08,1077.2000000011,4,1,312.40000000037,0.2222222222222222,2,object_10,5,624,0,2,2,forest_5,2,memory-2step-stake-s,544,2208093,0.0-19.0-0.0-0.41,AVN1RGGP00USR,371DNNCG57IGA1IMUX7DUPM8OSP8TA,31IBVUNM9WF7ORUSX8I0UJN22THVFQ,4,3
42,4,object_07,object_06,741.90000000037,7,2,285.90000000037,0.4444444444444444,1,object_05,1,628,0,4,4,restaurant_5,2,memory-2step-stake-s,545,2216082,0.0-19.0-0.0-0.42,AVN1RGGP00USR,371DNNCG57IGA1IMUX7DUPM8OSP8TA,31IBVUNM9WF7ORUSX8I0UJN22THVFQ,8,7
43,2,object_09,object_08,964.40000000037,3,2,1261.0999999996,0.4444444444444444,1,object_05,5,648,0,4,4,forest_5,2,memory-2step-stake-s,546,2225051,0.0-19.0-0.0-0.43,AVN1RGGP00USR,371DNNCG57IGA1IMUX7DUPM8OSP8TA,31IBVUNM9WF7ORUSX8I0UJN22THVFQ,4,3
44,2,object_09,object_08,508.5,4,1,598.0,0.3333333333333333,2,object_10,5,663,0,3,3,forest_6,2,memory-2step-stake-s,547,2233236,0.0-19.0-0.0-0.44,AVN1RGGP00USR,371DNNCG57IGA1IMUX7DUPM8OSP8TA,31IBVUNM9WF7ORUSX8I0UJN22THVFQ,4,3
45,3,object_03,object_01,436.0,5,2,369.09999999963,0.1111111111111111,1,object_05,1,664,0,1,3,library_5,2,memory-2step-stake-s,548,2240970,0.0-19.0-0.0-0.45,AVN1RGGP00USR,371DNNCG57IGA1IMUX7DUPM8OSP8TA,31IBVUNM9WF7ORUSX8I0UJN22THVFQ,6,5
46,1,object_04,object_02,894.30000000075,1,1,678.90000000037,0.2222222222222222,1,object_05,5,674,0,2,1,desert_5,2,memory-2step-stake-s,549,2249476,0.0-19.0-0.0-0.46,AVN1RGGP00USR,371DNNCG57IGA1IMUX7DUPM8OSP8TA,31IBVUNM9WF7ORUSX8I0UJN22THVFQ,1,2
47,1,object_02,object_04,1292.4000000004,2,1,530.90000000037,0.1111111111111111,2,object_10,5,679,0,1,1,desert_3,2,memory-2step-stake-s,550,2257373,0.0-19.0-0.0-0.47,AVN1RGGP00USR,371DNNCG57IGA1IMUX7DUPM8OSP8TA,31IBVUNM9WF7ORUSX8I0UJN22THVFQ,2,1
48,2,object_08,object_09,1264.0,3,1,296.09999999963,0.1111111111111111,1,object_05,5,684,0,1,1,forest_6,2,memory-2step-stake-s,551,2265059,0.0-19.0-0.0-0.48,AVN1RGGP00USR,371DNNCG57IGA1IMUX7DUPM8OSP8TA,31IBVUNM9WF7ORUSX8I0UJN22THVFQ,3,4
49,4,object_06,object_07,1244.0999999996,8,2,336.59999999963,0.4444444444444444,2,object_10,1,688,0,2,4,restaurant_5,2,memory-2step-stake-s,552,2273094,0.0-19.0-0.0-0.49,AVN1RGGP00USR,371DNNCG57IGA1IMUX7DUPM8OSP8TA,31IBVUNM9WF7ORUSX8I0UJN22THVFQ,7,8
50,4,object_07,object_06,952.20000000112,8,1,255.5,0.4444444444444444,2,object_10,1,692,0,1,4,restaurant_5,2,memory-2step-stake-s,553,2281050,0.0-19.0-0.0-0.50,AVN1RGGP00USR,371DNNCG57IGA1IMUX7DUPM8OSP8TA,31IBVUNM9WF7ORUSX8I0UJN22THVFQ,8,7
51,3,object_01,object_03,902.19999999925,6,2,237.69999999925,0.2222222222222222,2,object_10,1,694,0,1,2,library_8,2,memory-2step-stake-s,554,2288756,0.0-19.0-0.0-0.51,AVN1RGGP00USR,371DNNCG57IGA1IMUX7DUPM8OSP8TA,31IBVUNM9WF7ORUSX8I0UJN22THVFQ,5,6
52,3,object_01,object_03,565.40000000037,5,1,273.19999999925,0.4444444444444444,1,object_05,1,698,0,4,1,library_7,2,memory-2step-stake-s,555,2296734,0.0-19.0-0.0-0.52,AVN1RGGP00USR,371DNNCG57IGA1IMUX7DUPM8OSP8TA,31IBVUNM9WF7ORUSX8I0UJN22THVFQ,5,6
53,1,object_04,object_02,1133.5,1,1,276.09999999963,0.4444444444444444,1,object_05,1,702,0,4,0,desert_3,2,memory-2step-stake-s,556,2304711,0.0-19.0-0.0-0.53,AVN1RGGP00USR,371DNNCG57IGA1IMUX7DUPM8OSP8TA,31IBVUNM9WF7ORUSX8I0UJN22THVFQ,1,2
54,4,object_06,object_07,1048.5999999996,7,1,137.70000000112,0.3333333333333333,1,object_05,1,705,0,3,1,restaurant_1,2,memory-2step-stake-s,557,2312433,0.0-19.0-0.0-0.54,AVN1RGGP00USR,371DNNCG57IGA1IMUX7DUPM8OSP8TA,31IBVUNM9WF7ORUSX8I0UJN22THVFQ,7,8
55,2,object_08,object_09,759.5,4,2,269.0,0.3333333333333333,2,object_10,5,720,0,5,3,forest_5,2,memory-2step-stake-s,558,2320297,0.0-19.0-0.0-0.55,AVN1RGGP00USR,371DNNCG57IGA1IMUX7DUPM8OSP8TA,31IBVUNM9WF7ORUSX8I0UJN22THVFQ,3,4
56,2,object_08,object_09,1186.2000000011,4,2,282.30000000075,0.5555555555555556,2,object_10,5,745,0,7,5,forest_4,2,memory-2step-stake-s,559,2328396,0.0-19.0-0.0-0.56,AVN1RGGP00USR,371DNNCG57IGA1IMUX7DUPM8OSP8TA,31IBVUNM9WF7ORUSX8I0UJN22THVFQ,3,4
57,4,object_06,object_07,716.20000000112,8,2,284.0,0.6666666666666666,2,object_10,1,751,0,8,6,restaurant_1,2,memory-2step-stake-s,560,2336585,0.0-19.0-0.0-0.57,AVN1RGGP00USR,371DNNCG57IGA1IMUX7DUPM8OSP8TA,31IBVUNM9WF7ORUSX8I0UJN22THVFQ,7,8
58,3,object_03,object_01,822.20000000112,6,1,285.0,0.6666666666666666,2,object_10,1,757,0,7,6,library_5,2,memory-2step-stake-s,561,2344798,0.0-19.0-0.0-0.58,AVN1RGGP00USR,371DNNCG57IGA1IMUX7DUPM8OSP8TA,31IBVUNM9WF7ORUSX8I0UJN22THVFQ,6,5
59,4,object_06,object_07,869.0,7,1,381.20000000112,0.8888888888888888,1,object_05,1,765,0,8,3,restaurant_2,2,memory-2step-stake-s,562,2353338,0.0-19.0-0.0-0.59,AVN1RGGP00USR,371DNNCG57IGA1IMUX7DUPM8OSP8TA,31IBVUNM9WF7ORUSX8I0UJN22THVFQ,7,8
60,4,object_06,object_07,1223.9000000004,7,1,288.30000000075,0.6666666666666666,1,object_05,1,771,0,6,4,restaurant_2,2,memory-2step-stake-s,563,2361552,0.0-19.0-0.0-0.60,AVN1RGGP00USR,371DNNCG57IGA1IMUX7DUPM8OSP8TA,31IBVUNM9WF7ORUSX8I0UJN22THVFQ,7,8
61,4,object_07,object_06,1044.9000000004,7,2,251.59999999963,0.6666666666666666,1,object_05,1,777,0,6,1,restaurant_8,2,memory-2step-stake-s,564,2369736,0.0-19.0-0.0-0.61,AVN1RGGP00USR,371DNNCG57IGA1IMUX7DUPM8OSP8TA,31IBVUNM9WF7ORUSX8I0UJN22THVFQ,8,7
62,3,object_01,object_03,873.5,6,2,241.20000000112,0.0,2,object_10,1,777,0,3,0,library_8,2,memory-2step-stake-s,565,2377233,0.0-19.0-0.0-0.62,AVN1RGGP00USR,371DNNCG57IGA1IMUX7DUPM8OSP8TA,31IBVUNM9WF7ORUSX8I0UJN22THVFQ,5,6
63,2,object_09,object_08,1047.7000000011,3,2,303.20000000112,0.4444444444444444,1,object_05,1,781,0,4,0,forest_5,2,memory-2step-stake-s,566,2385236,0.0-19.0-0.0-0.63,AVN1RGGP00USR,371DNNCG57IGA1IMUX7DUPM8OSP8TA,31IBVUNM9WF7ORUSX8I0UJN22THVFQ,4,3
64,4,object_07,object_06,1478.6000000015,8,1,321.09999999963,0.2222222222222222,2,object_10,1,783,0,5,2,restaurant_2,2,memory-2step-stake-s,567,2393032,0.0-19.0-0.0-0.64,AVN1RGGP00USR,371DNNCG57IGA1IMUX7DUPM8OSP8TA,31IBVUNM9WF7ORUSX8I0UJN22THVFQ,8,7
65,1,object_02,object_04,856.80000000075,2,1,303.80000000075,0.3333333333333333,2,object_10,5,798,0,5,3,desert_1,2,memory-2step-stake-s,568,2400929,0.0-19.0-0.0-0.65,AVN1RGGP00USR,371DNNCG57IGA1IMUX7DUPM8OSP8TA,31IBVUNM9WF7ORUSX8I0UJN22THVFQ,2,1
66,1,object_04,object_02,626.09999999963,2,2,236.5,0.4444444444444444,2,object_10,5,818,0,5,4,desert_1,2,memory-2step-stake-s,569,2408872,0.0-19.0-0.0-0.66,AVN1RGGP00USR,371DNNCG57IGA1IMUX7DUPM8OSP8TA,31IBVUNM9WF7ORUSX8I0UJN22THVFQ,1,2
67,1,object_04,object_02,938.70000000112,2,2,239.69999999925,0.5555555555555556,2,object_10,5,843,0,4,5,desert_5,2,memory-2step-stake-s,570,2416910,0.0-19.0-0.0-0.67,AVN1RGGP00USR,371DNNCG57IGA1IMUX7DUPM8OSP8TA,31IBVUNM9WF7ORUSX8I0UJN22THVFQ,1,2
68,2,object_09,object_08,1000.8000000007,4,1,-1.0,0.0,2,object_10,5,843,0,4,7,forest_4,2,memory-2step-stake-s,571,2425476,0.0-19.0-0.0-0.68,AVN1RGGP00USR,371DNNCG57IGA1IMUX7DUPM8OSP8TA,31IBVUNM9WF7ORUSX8I0UJN22THVFQ,4,3
69,3,object_03,object_01,864.60000000149,6,1,260.90000000037,0.8888888888888888,2,object_10,5,883,0,6,8,library_5,2,memory-2step-stake-s,572,2433887,0.0-19.0-0.0-0.69,AVN1RGGP00USR,371DNNCG57IGA1IMUX7DUPM8OSP8TA,31IBVUNM9WF7ORUSX8I0UJN22THVFQ,6,5
70,1,object_02,object_04,631.40000000037,2,1,283.20000000112,0.6666666666666666,2,object_10,5,913,0,8,6,desert_1,2,memory-2step-stake-s,573,2442105,0.0-19.0-0.0-0.70,AVN1RGGP00USR,371DNNCG57IGA1IMUX7DUPM8OSP8TA,31IBVUNM9WF7ORUSX8I0UJN22THVFQ,2,1
71,3,object_01,object_03,410.10000000149,6,2,263.79999999888,0.5555555555555556,2,object_10,5,938,0,8,5,library_8,2,memory-2step-stake-s,574,2450194,0.0-19.0-0.0-0.71,AVN1RGGP00USR,371DNNCG57IGA1IMUX7DUPM8OSP8TA,31IBVUNM9WF7ORUSX8I0UJN22THVFQ,5,6
72,1,object_02,object_04,550.40000000037,2,1,372.39999999851,0.7777777777777778,2,object_10,5,973,0,8,7,desert_5,2,memory-2step-stake-s,575,2458612,0.0-19.0-0.0-0.72,AVN1RGGP00USR,371DNNCG57IGA1IMUX7DUPM8OSP8TA,31IBVUNM9WF7ORUSX8I0UJN22THVFQ,2,1
73,1,object_04,object_02,1159.5,2,2,306.59999999963,0.7777777777777778,2,object_10,5,1008,0,5,7,desert_1,2,memory-2step-stake-s,576,2466952,0.0-19.0-0.0-0.73,AVN1RGGP00USR,371DNNCG57IGA1IMUX7DUPM8OSP8TA,31IBVUNM9WF7ORUSX8I0UJN22THVFQ,1,2
74,3,object_03,object_01,693.30000000075,6,1,1011.8000000007,0.8888888888888888,2,object_10,5,1048,0,7,8,library_7,2,memory-2step-stake-s,577,2476128,0.0-19.0-0.0-0.74,AVN1RGGP00USR,371DNNCG57IGA1IMUX7DUPM8OSP8TA,31IBVUNM9WF7ORUSX8I0UJN22THVFQ,6,5
75,1,object_02,object_04,546.20000000112,2,1,717.30000000075,0.6666666666666666,2,object_10,5,1078,0,5,6,desert_3,2,memory-2step-stake-s,578,2484775,0.0-19.0-0.0-0.75,AVN1RGGP00USR,371DNNCG57IGA1IMUX7DUPM8OSP8TA,31IBVUNM9WF7ORUSX8I0UJN22THVFQ,2,1
76,1,object_02,object_04,1287.0,1,2,315.30000000075,0.2222222222222222,1,object_05,5,1088,0,2,8,desert_1,2,memory-2step-stake-s,579,2492576,0.0-19.0-0.0-0.76,AVN1RGGP00USR,371DNNCG57IGA1IMUX7DUPM8OSP8TA,31IBVUNM9WF7ORUSX8I0UJN22THVFQ,2,1
77,2,object_08,object_09,718.10000000149,4,2,210.80000000075,0.7777777777777778,2,object_10,5,1123,0,0,7,forest_5,2,memory-2step-stake-s,580,2500816,0.0-19.0-0.0-0.77,AVN1RGGP00USR,371DNNCG57IGA1IMUX7DUPM8OSP8TA,31IBVUNM9WF7ORUSX8I0UJN22THVFQ,3,4
78,2,object_09,object_08,782.80000000075,4,1,296.20000000112,1.0,2,object_10,1,1132,0,6,9,forest_4,2,memory-2step-stake-s,581,2509388,0.0-19.0-0.0-0.78,AVN1RGGP00USR,371DNNCG57IGA1IMUX7DUPM8OSP8TA,31IBVUNM9WF7ORUSX8I0UJN22THVFQ,4,3
79,1,object_02,object_04,596.40000000037,2,1,235.0,0.7777777777777778,2,object_10,5,1167,0,9,7,desert_3,2,memory-2step-stake-s,582,2517650,0.0-19.0-0.0-0.79,AVN1RGGP00USR,371DNNCG57IGA1IMUX7DUPM8OSP8TA,31IBVUNM9WF7ORUSX8I0UJN22THVFQ,2,1
80,1,object_04,object_02,430.89999999851,2,2,330.90000000037,1.0,2,object_10,5,1212,0,8,9,desert_3,2,memory-2step-stake-s,583,2526250,0.0-19.0-0.0-0.80,AVN1RGGP00USR,371DNNCG57IGA1IMUX7DUPM8OSP8TA,31IBVUNM9WF7ORUSX8I0UJN22THVFQ,1,2
81,4,object_07,object_06,910.69999999925,7,2,299.80000000075,1.0,1,object_05,1,1221,0,9,9,restaurant_2,2,memory-2step-stake-s,584,2534816,0.0-19.0-0.0-0.81,AVN1RGGP00USR,371DNNCG57IGA1IMUX7DUPM8OSP8TA,31IBVUNM9WF7ORUSX8I0UJN22THVFQ,8,7
82,4,object_07,object_06,852.90000000037,7,2,456.0,0.8888888888888888,1,object_05,1,1229,0,8,8,restaurant_8,2,memory-2step-stake-s,585,2543436,0.0-19.0-0.0-0.82,AVN1RGGP00USR,371DNNCG57IGA1IMUX7DUPM8OSP8TA,31IBVUNM9WF7ORUSX8I0UJN22THVFQ,8,7
83,4,object_07,object_06,1112.7000000011,7,2,223.10000000149,0.8888888888888888,1,object_05,1,1237,0,8,6,restaurant_1,2,memory-2step-stake-s,586,2551814,0.0-19.0-0.0-0.83,AVN1RGGP00USR,371DNNCG57IGA1IMUX7DUPM8OSP8TA,31IBVUNM9WF7ORUSX8I0UJN22THVFQ,8,7
84,2,object_09,object_08,951.40000000037,3,2,257.0,0.7777777777777778,1,object_05,5,1272,0,7,7,forest_4,2,memory-2step-stake-s,587,2560101,0.0-19.0-0.0-0.84,AVN1RGGP00USR,371DNNCG57IGA1IMUX7DUPM8OSP8TA,31IBVUNM9WF7ORUSX8I0UJN22THVFQ,4,3
85,1,object_02,object_04,840.69999999925,1,2,252.5,0.8888888888888888,1,object_05,5,1312,0,8,5,desert_5,2,memory-2step-stake-s,588,2568498,0.0-19.0-0.0-0.85,AVN1RGGP00USR,371DNNCG57IGA1IMUX7DUPM8OSP8TA,31IBVUNM9WF7ORUSX8I0UJN22THVFQ,2,1
86,3,object_03,object_01,1006.9000000004,5,2,194.19999999925,0.6666666666666666,1,object_05,5,1342,0,6,6,library_5,2,memory-2step-stake-s,589,2576639,0.0-19.0-0.0-0.86,AVN1RGGP00USR,371DNNCG57IGA1IMUX7DUPM8OSP8TA,31IBVUNM9WF7ORUSX8I0UJN22THVFQ,6,5
87,1,object_04,object_02,695.20000000112,1,1,162.0,0.8888888888888888,1,object_05,5,1382,0,8,7,desert_5,2,memory-2step-stake-s,590,2584946,0.0-19.0-0.0-0.87,AVN1RGGP00USR,371DNNCG57IGA1IMUX7DUPM8OSP8TA,31IBVUNM9WF7ORUSX8I0UJN22THVFQ,1,2
88,3,object_01,object_03,1048.7000000011,5,1,154.0,0.8888888888888888,1,object_05,5,1422,0,8,6,library_7,2,memory-2step-stake-s,591,2593242,0.0-19.0-0.0-0.88,AVN1RGGP00USR,371DNNCG57IGA1IMUX7DUPM8OSP8TA,31IBVUNM9WF7ORUSX8I0UJN22THVFQ,5,6
89,4,object_07,object_06,1347.1000000015,7,2,313.29999999888,0.6666666666666666,1,object_05,1,1428,0,6,8,restaurant_5,2,memory-2step-stake-s,592,2601494,0.0-19.0-0.0-0.89,AVN1RGGP00USR,371DNNCG57IGA1IMUX7DUPM8OSP8TA,31IBVUNM9WF7ORUSX8I0UJN22THVFQ,8,7
90,4,object_07,object_06,914.40000000037,8,1,313.59999999963,0.8888888888888888,2,object_10,1,1436,0,2,8,restaurant_2,2,memory-2step-stake-s,593,2609966,0.0-19.0-0.0-0.90,AVN1RGGP00USR,371DNNCG57IGA1IMUX7DUPM8OSP8TA,31IBVUNM9WF7ORUSX8I0UJN22THVFQ,8,7
91,3,object_03,object_01,877.5,6,1,221.0,0.3333333333333333,2,object_10,1,1439,0,0,3,library_5,2,memory-2step-stake-s,594,2617778,0.0-19.0-0.0-0.91,AVN1RGGP00USR,371DNNCG57IGA1IMUX7DUPM8OSP8TA,31IBVUNM9WF7ORUSX8I0UJN22THVFQ,6,5
92,1,object_04,object_02,1180.3000000007,1,1,226.70000000112,0.1111111111111111,1,object_05,5,1444,0,1,0,desert_7,2,memory-2step-stake-s,595,2625371,0.0-19.0-0.0-0.92,AVN1RGGP00USR,371DNNCG57IGA1IMUX7DUPM8OSP8TA,31IBVUNM9WF7ORUSX8I0UJN22THVFQ,1,2
93,2,object_08,object_09,654.30000000075,4,2,247.90000000037,0.2222222222222222,2,object_10,5,1454,0,1,2,forest_2,2,memory-2step-stake-s,596,2633088,0.0-19.0-0.0-0.93,AVN1RGGP00USR,371DNNCG57IGA1IMUX7DUPM8OSP8TA,31IBVUNM9WF7ORUSX8I0UJN22THVFQ,3,4
94,1,object_02,object_04,695.80000000075,2,1,454.69999999925,0.1111111111111111,2,object_10,5,1459,0,5,1,desert_1,2,memory-2step-stake-s,597,2640915,0.0-19.0-0.0-0.94,AVN1RGGP00USR,371DNNCG57IGA1IMUX7DUPM8OSP8TA,31IBVUNM9WF7ORUSX8I0UJN22THVFQ,2,1
95,4,object_07,object_06,447.39999999851,7,2,489.69999999925,0.1111111111111111,1,object_05,5,1464,0,1,2,restaurant_8,2,memory-2step-stake-s,598,2648781,0.0-19.0-0.0-0.95,AVN1RGGP00USR,371DNNCG57IGA1IMUX7DUPM8OSP8TA,31IBVUNM9WF7ORUSX8I0UJN22THVFQ,8,7
96,2,object_09,object_08,129.60000000149,4,1,899.59999999963,0.2222222222222222,2,object_10,5,1474,0,3,2,forest_4,2,memory-2step-stake-s,599,2657172,0.0-19.0-0.0-0.96,AVN1RGGP00USR,371DNNCG57IGA1IMUX7DUPM8OSP8TA,31IBVUNM9WF7ORUSX8I0UJN22THVFQ,4,3
97,3,object_03,object_01,1027.4000000004,5,2,1052.4000000004,0.2222222222222222,1,object_05,1,1476,0,2,2,library_1,2,memory-2step-stake-s,600,2665708,0.0-19.0-0.0-0.97,AVN1RGGP00USR,371DNNCG57IGA1IMUX7DUPM8OSP8TA,31IBVUNM9WF7ORUSX8I0UJN22THVFQ,6,5
98,4,object_07,object_06,1051.8000000007,8,1,323.69999999925,0.2222222222222222,2,object_10,1,1478,0,2,2,restaurant_8,2,memory-2step-stake-s,601,2673509,0.0-19.0-0.0-0.98,AVN1RGGP00USR,371DNNCG57IGA1IMUX7DUPM8OSP8TA,31IBVUNM9WF7ORUSX8I0UJN22THVFQ,8,7
99,2,object_08,object_09,639.60000000149,4,2,794.59999999963,0.1111111111111111,2,object_10,5,1483,0,6,1,forest_4,2,memory-2step-stake-s,602,2681680,0.0-19.0-0.0-0.99,AVN1RGGP00USR,371DNNCG57IGA1IMUX7DUPM8OSP8TA,31IBVUNM9WF7ORUSX8I0UJN22THVFQ,3,4
100,3,object_03,object_01,17.0,6,1,432.29999999888,0.2222222222222222,2,object_10,1,1485,0,4,2,library_7,2,memory-2step-stake-s,603,2689592,0.0-19.0-0.0-0.100,AVN1RGGP00USR,371DNNCG57IGA1IMUX7DUPM8OSP8TA,31IBVUNM9WF7ORUSX8I0UJN22THVFQ,6,5
101,1,object_02,object_04,235.19999999925,1,2,418.89999999851,0.4444444444444444,1,object_05,1,1489,0,4,4,desert_5,2,memory-2step-stake-s,604,2697697,0.0-19.0-0.0-0.101,AVN1RGGP00USR,371DNNCG57IGA1IMUX7DUPM8OSP8TA,31IBVUNM9WF7ORUSX8I0UJN22THVFQ,2,1
102,2,object_09,object_08,1287.4000000004,3,2,542.20000000112,0.4444444444444444,1,object_05,5,1509,0,4,5,forest_2,2,memory-2step-stake-s,605,2705944,0.0-19.0-0.0-0.102,AVN1RGGP00USR,371DNNCG57IGA1IMUX7DUPM8OSP8TA,31IBVUNM9WF7ORUSX8I0UJN22THVFQ,4,3
103,1,object_04,object_02,733.90000000037,1,1,361.0,0.5555555555555556,1,object_05,5,1534,0,5,3,desert_1,2,memory-2step-stake-s,606,2714123,0.0-19.0-0.0-0.103,AVN1RGGP00USR,371DNNCG57IGA1IMUX7DUPM8OSP8TA,31IBVUNM9WF7ORUSX8I0UJN22THVFQ,1,2
104,4,object_06,object_07,650.40000000037,7,1,238.59999999963,0.4444444444444444,1,object_05,1,1538,0,4,2,restaurant_2,2,memory-2step-stake-s,607,2722054,0.0-19.0-0.0-0.104,AVN1RGGP00USR,371DNNCG57IGA1IMUX7DUPM8OSP8TA,31IBVUNM9WF7ORUSX8I0UJN22THVFQ,7,8
105,3,object_03,object_01,944.69999999925,6,1,517.59999999963,0.4444444444444444,2,object_10,1,1542,0,6,4,library_7,2,memory-2step-stake-s,608,2730302,0.0-19.0-0.0-0.105,AVN1RGGP00USR,371DNNCG57IGA1IMUX7DUPM8OSP8TA,31IBVUNM9WF7ORUSX8I0UJN22THVFQ,6,5
106,3,object_03,object_01,4.2999999988824,5,2,285.09999999963,0.7777777777777778,1,object_05,1,1549,0,7,5,library_7,2,memory-2step-stake-s,609,2738637,0.0-19.0-0.0-0.106,AVN1RGGP00USR,371DNNCG57IGA1IMUX7DUPM8OSP8TA,31IBVUNM9WF7ORUSX8I0UJN22THVFQ,6,5
107,1,object_04,object_02,475.89999999851,1,1,270.09999999963,0.6666666666666666,1,object_05,5,1579,0,6,6,desert_5,2,memory-2step-stake-s,610,2746836,0.0-19.0-0.0-0.107,AVN1RGGP00USR,371DNNCG57IGA1IMUX7DUPM8OSP8TA,31IBVUNM9WF7ORUSX8I0UJN22THVFQ,1,2
108,2,object_08,object_09,935.19999999925,4,2,269.79999999888,0.5555555555555556,2,object_10,5,1604,0,6,5,forest_4,2,memory-2step-stake-s,611,2754927,0.0-19.0-0.0-0.108,AVN1RGGP00USR,371DNNCG57IGA1IMUX7DUPM8OSP8TA,31IBVUNM9WF7ORUSX8I0UJN22THVFQ,3,4
109,1,object_02,object_04,256.0,2,1,92.599999999627,0.4444444444444444,2,object_10,5,1624,0,8,4,desert_3,2,memory-2step-stake-s,612,2762728,0.0-19.0-0.0-0.109,AVN1RGGP00USR,371DNNCG57IGA1IMUX7DUPM8OSP8TA,31IBVUNM9WF7ORUSX8I0UJN22THVFQ,2,1
110,4,object_06,object_07,325.20000000112,8,2,287.59999999963,0.6666666666666666,2,object_10,1,1630,0,6,6,restaurant_2,2,memory-2step-stake-s,613,2770945,0.0-19.0-0.0-0.110,AVN1RGGP00USR,371DNNCG57IGA1IMUX7DUPM8OSP8TA,31IBVUNM9WF7ORUSX8I0UJN22THVFQ,7,8
111,1,object_02,object_04,542.09999999963,2,1,375.5,0.4444444444444444,2,object_10,5,1650,0,6,4,desert_3,2,memory-2step-stake-s,614,2779035,0.0-19.0-0.0-0.111,AVN1RGGP00USR,371DNNCG57IGA1IMUX7DUPM8OSP8TA,31IBVUNM9WF7ORUSX8I0UJN22THVFQ,2,1
112,3,object_01,object_03,387.29999999888,6,2,363.09999999963,0.5555555555555556,2,object_10,1,1655,0,9,5,library_1,2,memory-2step-stake-s,615,2787205,0.0-19.0-0.0-0.112,AVN1RGGP00USR,371DNNCG57IGA1IMUX7DUPM8OSP8TA,31IBVUNM9WF7ORUSX8I0UJN22THVFQ,5,6
113,2,object_09,object_08,394.5,4,1,482.19999999925,0.3333333333333333,2,object_10,5,1670,0,8,3,forest_2,2,memory-2step-stake-s,616,2795269,0.0-19.0-0.0-0.113,AVN1RGGP00USR,371DNNCG57IGA1IMUX7DUPM8OSP8TA,31IBVUNM9WF7ORUSX8I0UJN22THVFQ,4,3
114,4,object_06,object_07,41.799999998882,8,2,295.89999999851,0.2222222222222222,2,object_10,1,1672,0,7,2,restaurant_1,2,memory-2step-stake-s,617,2803048,0.0-19.0-0.0-0.114,AVN1RGGP00USR,371DNNCG57IGA1IMUX7DUPM8OSP8TA,31IBVUNM9WF7ORUSX8I0UJN22THVFQ,7,8
115,3,object_01,object_03,1207.5,5,1,273.59999999963,0.7777777777777778,1,object_05,1,1679,0,7,3,library_7,2,memory-2step-stake-s,618,2811353,0.0-19.0-0.0-0.115,AVN1RGGP00USR,371DNNCG57IGA1IMUX7DUPM8OSP8TA,31IBVUNM9WF7ORUSX8I0UJN22THVFQ,5,6
116,4,object_07,object_06,1454.7999999989,7,2,292.19999999925,1.0,1,object_05,1,1688,0,9,1,restaurant_8,2,memory-2step-stake-s,619,2819912,0.0-19.0-0.0-0.116,AVN1RGGP00USR,371DNNCG57IGA1IMUX7DUPM8OSP8TA,31IBVUNM9WF7ORUSX8I0UJN22THVFQ,8,7
117,1,object_04,object_02,1110.5,1,1,347.39999999851,0.7777777777777778,1,object_05,5,1723,0,7,2,desert_1,2,memory-2step-stake-s,620,2828330,0.0-19.0-0.0-0.117,AVN1RGGP00USR,371DNNCG57IGA1IMUX7DUPM8OSP8TA,31IBVUNM9WF7ORUSX8I0UJN22THVFQ,1,2
118,2,object_08,object_09,847.10000000149,3,1,458.59999999963,0.8888888888888888,1,object_05,5,1763,0,8,2,forest_6,2,memory-2step-stake-s,621,2836946,0.0-19.0-0.0-0.118,AVN1RGGP00USR,371DNNCG57IGA1IMUX7DUPM8OSP8TA,31IBVUNM9WF7ORUSX8I0UJN22THVFQ,3,4
119,4,object_06,object_07,1029.8000000007,7,1,297.0,0.8888888888888888,1,object_05,1,1771,0,8,1,restaurant_1,2,memory-2step-stake-s,622,2845386,0.0-19.0-0.0-0.119,AVN1RGGP00USR,371DNNCG57IGA1IMUX7DUPM8OSP8TA,31IBVUNM9WF7ORUSX8I0UJN22THVFQ,7,8
120,3,object_01,object_03,1503.1999999993,6,2,273.19999999925,0.7777777777777778,2,object_10,1,1778,0,9,7,library_5,2,memory-2step-stake-s,623,2853697,0.0-19.0-0.0-0.120,AVN1RGGP00USR,371DNNCG57IGA1IMUX7DUPM8OSP8TA,31IBVUNM9WF7ORUSX8I0UJN22THVFQ,5,6
121,2,object_09,object_08,776.79999999888,4,1,396.39999999851,0.8888888888888888,2,object_10,1,1786,0,5,8,forest_2,2,memory-2step-stake-s,624,2862252,0.0-19.0-0.0-0.121,AVN1RGGP00USR,371DNNCG57IGA1IMUX7DUPM8OSP8TA,31IBVUNM9WF7ORUSX8I0UJN22THVFQ,4,3
122,4,object_07,object_06,1427.2999999989,8,1,379.29999999888,0.8888888888888888,2,object_10,5,1826,0,5,8,restaurant_2,2,memory-2step-stake-s,625,2870790,0.0-19.0-0.0-0.122,AVN1RGGP00USR,371DNNCG57IGA1IMUX7DUPM8OSP8TA,31IBVUNM9WF7ORUSX8I0UJN22THVFQ,8,7
123,2,object_09,object_08,377.29999999888,3,2,419.59999999963,0.4444444444444444,1,object_05,1,1830,0,4,6,forest_4,2,memory-2step-stake-s,626,2878926,0.0-19.0-0.0-0.123,AVN1RGGP00USR,371DNNCG57IGA1IMUX7DUPM8OSP8TA,31IBVUNM9WF7ORUSX8I0UJN22THVFQ,4,3
124,4,object_06,object_07,916.69999999925,7,1,312.90000000037,0.6666666666666666,1,object_05,5,1860,0,6,8,restaurant_1,2,memory-2step-stake-s,627,2887175,0.0-19.0-0.0-0.124,AVN1RGGP00USR,371DNNCG57IGA1IMUX7DUPM8OSP8TA,31IBVUNM9WF7ORUSX8I0UJN22THVFQ,7,8
125,1,object_04,object_02,61.199999999255,2,2,294.69999999925,0.6666666666666666,2,object_10,1,1866,0,5,6,desert_5,2,memory-2step-stake-s,628,2895410,0.0-19.0-0.0-0.125,AVN1RGGP00USR,371DNNCG57IGA1IMUX7DUPM8OSP8TA,31IBVUNM9WF7ORUSX8I0UJN22THVFQ,1,2
126,2,object_09,object_08,409.20000000112,4,1,308.0,0.4444444444444444,2,object_10,5,1886,0,4,4,forest_2,2,memory-2step-stake-s,629,2903419,0.0-19.0-0.0-0.126,AVN1RGGP00USR,371DNNCG57IGA1IMUX7DUPM8OSP8TA,31IBVUNM9WF7ORUSX8I0UJN22THVFQ,4,3
127,2,object_08,object_09,302.30000000075,4,2,325.59999999963,0.4444444444444444,2,object_10,5,1906,0,2,4,forest_5,2,memory-2step-stake-s,630,2911441,0.0-19.0-0.0-0.127,AVN1RGGP00USR,371DNNCG57IGA1IMUX7DUPM8OSP8TA,31IBVUNM9WF7ORUSX8I0UJN22THVFQ,3,4
128,1,object_04,object_02,1338.0,2,2,538.59999999963,0.3333333333333333,2,object_10,5,1921,0,3,3,desert_1,2,memory-2step-stake-s,632,3019539,0.0-19.0-0.1-0.128,AVN1RGGP00USR,371DNNCG57IGA1IMUX7DUPM8OSP8TA,31IBVUNM9WF7ORUSX8I0UJN22THVFQ,1,2
129,4,object_07,object_06,440.5,8,1,738.90000000037,0.3333333333333333,2,object_10,1,1924,0,3,3,restaurant_1,2,memory-2step-stake-s,633,3027870,0.0-19.0-0.1-0.129,AVN1RGGP00USR,371DNNCG57IGA1IMUX7DUPM8OSP8TA,31IBVUNM9WF7ORUSX8I0UJN22THVFQ,8,7
130,1,object_02,object_04,450.0,1,2,584.40000000037,0.6666666666666666,1,object_05,1,1930,0,6,1,desert_7,2,memory-2step-stake-s,634,3036378,0.0-19.0-0.1-0.130,AVN1RGGP00USR,371DNNCG57IGA1IMUX7DUPM8OSP8TA,31IBVUNM9WF7ORUSX8I0UJN22THVFQ,2,1
131,1,object_02,object_04,520.0,2,1,325.19999999925,0.1111111111111111,2,object_10,1,1931,0,6,1,desert_3,2,memory-2step-stake-s,635,3044095,0.0-19.0-0.1-0.131,AVN1RGGP00USR,371DNNCG57IGA1IMUX7DUPM8OSP8TA,31IBVUNM9WF7ORUSX8I0UJN22THVFQ,2,1
132,1,object_04,object_02,822.0,2,2,159.5,0.3333333333333333,2,object_10,5,1946,0,5,3,desert_5,2,memory-2step-stake-s,636,3051848,0.0-19.0-0.1-0.132,AVN1RGGP00USR,371DNNCG57IGA1IMUX7DUPM8OSP8TA,31IBVUNM9WF7ORUSX8I0UJN22THVFQ,1,2
133,3,object_01,object_03,347.29999999888,5,1,534.29999999888,0.2222222222222222,1,object_05,1,1948,0,2,5,library_8,2,memory-2step-stake-s,637,3059875,0.0-19.0-0.1-0.133,AVN1RGGP00USR,371DNNCG57IGA1IMUX7DUPM8OSP8TA,31IBVUNM9WF7ORUSX8I0UJN22THVFQ,5,6
134,4,object_07,object_06,160.30000000075,7,2,464.09999999963,0.0,1,object_05,1,1948,0,0,7,restaurant_8,2,memory-2step-stake-s,638,3067591,0.0-19.0-0.1-0.134,AVN1RGGP00USR,371DNNCG57IGA1IMUX7DUPM8OSP8TA,31IBVUNM9WF7ORUSX8I0UJN22THVFQ,8,7
135,1,object_02,object_04,590.5,2,1,472.79999999888,0.6666666666666666,2,object_10,5,1978,0,2,6,desert_5,2,memory-2step-stake-s,639,3076006,0.0-19.0-0.1-0.135,AVN1RGGP00USR,371DNNCG57IGA1IMUX7DUPM8OSP8TA,31IBVUNM9WF7ORUSX8I0UJN22THVFQ,2,1
136,3,object_01,object_03,931.69999999925,6,2,346.90000000037,0.6666666666666666,2,object_10,5,2008,0,2,6,library_8,2,memory-2step-stake-s,640,3084287,0.0-19.0-0.1-0.136,AVN1RGGP00USR,371DNNCG57IGA1IMUX7DUPM8OSP8TA,31IBVUNM9WF7ORUSX8I0UJN22THVFQ,5,6
137,4,object_07,object_06,1152.0,8,1,355.5,0.8888888888888888,2,object_10,1,2016,0,6,8,restaurant_1,2,memory-2step-stake-s,641,3092773,0.0-19.0-0.1-0.137,AVN1RGGP00USR,371DNNCG57IGA1IMUX7DUPM8OSP8TA,31IBVUNM9WF7ORUSX8I0UJN22THVFQ,8,7
138,1,object_02,object_04,669.0,2,1,391.09999999963,1.0,2,object_10,1,2025,0,5,9,desert_3,2,memory-2step-stake-s,642,3101438,0.0-19.0-0.1-0.138,AVN1RGGP00USR,371DNNCG57IGA1IMUX7DUPM8OSP8TA,31IBVUNM9WF7ORUSX8I0UJN22THVFQ,2,1
139,3,object_03,object_01,659.59999999963,5,2,286.59999999963,0.2222222222222222,1,object_05,1,2027,0,2,9,library_5,2,memory-2step-stake-s,643,3109208,0.0-19.0-0.1-0.139,AVN1RGGP00USR,371DNNCG57IGA1IMUX7DUPM8OSP8TA,31IBVUNM9WF7ORUSX8I0UJN22THVFQ,6,5
140,2,object_08,object_09,628.90000000037,3,1,255.59999999963,0.4444444444444444,1,object_05,1,2031,0,4,7,forest_6,2,memory-2step-stake-s,644,3117174,0.0-19.0-0.1-0.140,AVN1RGGP00USR,371DNNCG57IGA1IMUX7DUPM8OSP8TA,31IBVUNM9WF7ORUSX8I0UJN22THVFQ,3,4
141,2,object_08,object_09,747.0,4,2,627.30000000075,0.6666666666666666,2,object_10,5,2061,0,3,6,forest_2,2,memory-2step-stake-s,645,3125713,0.0-19.0-0.1-0.141,AVN1RGGP00USR,371DNNCG57IGA1IMUX7DUPM8OSP8TA,31IBVUNM9WF7ORUSX8I0UJN22THVFQ,3,4
142,2,object_09,object_08,705.19999999925,4,1,410.90000000037,0.5555555555555556,2,object_10,5,2086,0,2,5,forest_6,2,memory-2step-stake-s,646,3133948,0.0-19.0-0.1-0.142,AVN1RGGP00USR,371DNNCG57IGA1IMUX7DUPM8OSP8TA,31IBVUNM9WF7ORUSX8I0UJN22THVFQ,4,3
143,4,object_06,object_07,533.69999999925,8,2,476.40000000037,0.7777777777777778,2,object_10,1,2093,0,1,7,restaurant_5,2,memory-2step-stake-s,647,3142443,0.0-19.0-0.1-0.143,AVN1RGGP00USR,371DNNCG57IGA1IMUX7DUPM8OSP8TA,31IBVUNM9WF7ORUSX8I0UJN22THVFQ,7,8
144,3,object_01,object_03,242.5,5,1,495.70000000112,0.0,1,object_05,1,2093,0,0,5,library_8,2,memory-2step-stake-s,648,3150197,0.0-19.0-0.1-0.144,AVN1RGGP00USR,371DNNCG57IGA1IMUX7DUPM8OSP8TA,31IBVUNM9WF7ORUSX8I0UJN22THVFQ,5,6
145,3,object_01,object_03,935.40000000037,6,2,432.40000000037,0.7777777777777778,2,object_10,1,2100,0,2,7,library_1,2,memory-2step-stake-s,649,3158676,0.0-19.0-0.1-0.145,AVN1RGGP00USR,371DNNCG57IGA1IMUX7DUPM8OSP8TA,31IBVUNM9WF7ORUSX8I0UJN22THVFQ,5,6
146,4,object_06,object_07,1420.0999999996,8,2,420.5,0.7777777777777778,2,object_10,1,2107,0,4,7,restaurant_5,2,memory-2step-stake-s,650,3167153,0.0-19.0-0.1-0.146,AVN1RGGP00USR,371DNNCG57IGA1IMUX7DUPM8OSP8TA,31IBVUNM9WF7ORUSX8I0UJN22THVFQ,7,8
147,2,object_09,object_08,494.89999999851,4,1,377.40000000037,0.8888888888888888,2,object_10,5,2147,0,3,8,forest_2,2,memory-2step-stake-s,651,3175691,0.0-19.0-0.1-0.147,AVN1RGGP00USR,371DNNCG57IGA1IMUX7DUPM8OSP8TA,31IBVUNM9WF7ORUSX8I0UJN22THVFQ,4,3
148,3,object_03,object_01,651.09999999963,5,2,351.69999999925,0.5555555555555556,1,object_05,1,2152,0,5,7,library_7,2,memory-2step-stake-s,652,3183858,0.0-19.0-0.1-0.148,AVN1RGGP00USR,371DNNCG57IGA1IMUX7DUPM8OSP8TA,31IBVUNM9WF7ORUSX8I0UJN22THVFQ,6,5
149,4,object_07,object_06,289.19999999925,8,1,409.59999999963,0.6666666666666666,2,object_10,1,2158,0,3,6,restaurant_2,2,memory-2step-stake-s,653,3192203,0.0-19.0-0.1-0.149,AVN1RGGP00USR,371DNNCG57IGA1IMUX7DUPM8OSP8TA,31IBVUNM9WF7ORUSX8I0UJN22THVFQ,8,7
150,4,object_06,object_07,568.30000000075,8,2,293.59999999963,0.4444444444444444,2,object_10,5,2178,0,0,4,restaurant_2,2,memory-2step-stake-s,654,3200210,0.0-19.0-0.1-0.150,AVN1RGGP00USR,371DNNCG57IGA1IMUX7DUPM8OSP8TA,31IBVUNM9WF7ORUSX8I0UJN22THVFQ,7,8
151,4,object_06,object_07,897.09999999963,7,1,327.90000000037,0.0,1,object_05,5,2178,0,0,4,restaurant_8,2,memory-2step-stake-s,655,3207803,0.0-19.0-0.1-0.151,AVN1RGGP00USR,371DNNCG57IGA1IMUX7DUPM8OSP8TA,31IBVUNM9WF7ORUSX8I0UJN22THVFQ,7,8
152,3,object_01,object_03,887.40000000037,5,1,475.5,0.2222222222222222,1,object_05,1,2180,0,2,5,library_8,2,memory-2step-stake-s,656,3215766,0.0-19.0-0.1-0.152,AVN1RGGP00USR,371DNNCG57IGA1IMUX7DUPM8OSP8TA,31IBVUNM9WF7ORUSX8I0UJN22THVFQ,5,6
153,3,object_01,object_03,327.40000000037,6,2,-1.0,0.0,2,object_10,1,2180,0,1,2,library_5,2,memory-2step-stake-s,657,3224318,0.0-19.0-0.1-0.153,AVN1RGGP00USR,371DNNCG57IGA1IMUX7DUPM8OSP8TA,31IBVUNM9WF7ORUSX8I0UJN22THVFQ,5,6
154,3,object_01,object_03,356.5,5,1,332.20000000112,0.1111111111111111,1,object_05,1,2181,0,1,1,library_5,2,memory-2step-stake-s,658,3232022,0.0-19.0-0.1-0.154,AVN1RGGP00USR,371DNNCG57IGA1IMUX7DUPM8OSP8TA,31IBVUNM9WF7ORUSX8I0UJN22THVFQ,5,6
155,4,object_07,object_06,840.40000000037,7,2,999.40000000037,0.1111111111111111,1,object_05,1,2182,0,1,2,restaurant_2,2,memory-2step-stake-s,659,3240398,0.0-19.0-0.1-0.155,AVN1RGGP00USR,371DNNCG57IGA1IMUX7DUPM8OSP8TA,31IBVUNM9WF7ORUSX8I0UJN22THVFQ,8,7
156,4,object_06,object_07,673.59999999963,7,1,265.0,0.2222222222222222,1,object_05,1,2184,0,2,2,restaurant_2,2,memory-2step-stake-s,660,3248154,0.0-19.0-0.1-0.156,AVN1RGGP00USR,371DNNCG57IGA1IMUX7DUPM8OSP8TA,31IBVUNM9WF7ORUSX8I0UJN22THVFQ,7,8
157,4,object_07,object_06,291.90000000037,7,2,270.0,0.1111111111111111,1,object_05,1,2185,0,1,3,restaurant_8,2,memory-2step-stake-s,661,3255796,0.0-19.0-0.1-0.157,AVN1RGGP00USR,371DNNCG57IGA1IMUX7DUPM8OSP8TA,31IBVUNM9WF7ORUSX8I0UJN22THVFQ,8,7
158,4,object_07,object_06,276.90000000037,8,1,96.300000000745,0.2222222222222222,2,object_10,1,2187,0,2,2,restaurant_1,2,memory-2step-stake-s,662,3263370,0.0-19.0-0.1-0.158,AVN1RGGP00USR,371DNNCG57IGA1IMUX7DUPM8OSP8TA,31IBVUNM9WF7ORUSX8I0UJN22THVFQ,8,7
159,4,object_06,object_07,250.0,8,2,306.5,0.3333333333333333,2,object_10,1,2190,0,6,3,restaurant_2,2,memory-2step-stake-s,663,3271266,0.0-19.0-0.1-0.159,AVN1RGGP00USR,371DNNCG57IGA1IMUX7DUPM8OSP8TA,31IBVUNM9WF7ORUSX8I0UJN22THVFQ,7,8
160,2,object_08,object_09,190.30000000075,3,1,301.90000000037,0.8888888888888888,1,object_05,1,2198,0,8,4,forest_4,2,memory-2step-stake-s,664,3279708,0.0-19.0-0.1-0.160,AVN1RGGP00USR,371DNNCG57IGA1IMUX7DUPM8OSP8TA,31IBVUNM9WF7ORUSX8I0UJN22THVFQ,3,4
161,2,object_09,object_08,570.19999999925,3,2,337.70000000112,1.0,1,object_05,5,2243,0,9,6,forest_5,2,memory-2step-stake-s,665,3288314,0.0-19.0-0.1-0.161,AVN1RGGP00USR,371DNNCG57IGA1IMUX7DUPM8OSP8TA,31IBVUNM9WF7ORUSX8I0UJN22THVFQ,4,3
162,4,object_06,object_07,317.59999999963,7,1,1145.5999999996,0.3333333333333333,1,object_05,1,2246,0,3,7,restaurant_8,2,memory-2step-stake-s,666,3297052,0.0-19.0-0.1-0.162,AVN1RGGP00USR,371DNNCG57IGA1IMUX7DUPM8OSP8TA,31IBVUNM9WF7ORUSX8I0UJN22THVFQ,7,8
163,3,object_03,object_01,354.90000000037,5,2,411.30000000075,0.5555555555555556,1,object_05,5,2271,0,5,7,library_5,2,memory-2step-stake-s,667,3305265,0.0-19.0-0.1-0.163,AVN1RGGP00USR,371DNNCG57IGA1IMUX7DUPM8OSP8TA,31IBVUNM9WF7ORUSX8I0UJN22THVFQ,6,5
164,4,object_07,object_06,713.90000000037,7,2,597.40000000037,0.2222222222222222,1,object_05,1,2273,0,2,9,restaurant_1,2,memory-2step-stake-s,668,3313370,0.0-19.0-0.1-0.164,AVN1RGGP00USR,371DNNCG57IGA1IMUX7DUPM8OSP8TA,31IBVUNM9WF7ORUSX8I0UJN22THVFQ,8,7
165,3,object_03,object_01,494.30000000075,6,1,106.90000000037,0.6666666666666666,2,object_10,1,2279,0,3,6,library_1,2,memory-2step-stake-s,669,3321421,0.0-19.0-0.1-0.165,AVN1RGGP00USR,371DNNCG57IGA1IMUX7DUPM8OSP8TA,31IBVUNM9WF7ORUSX8I0UJN22THVFQ,6,5
166,2,object_09,object_08,635.90000000037,3,2,424.0,0.3333333333333333,1,object_05,1,2282,0,3,8,forest_4,2,memory-2step-stake-s,670,3329446,0.0-19.0-0.1-0.166,AVN1RGGP00USR,371DNNCG57IGA1IMUX7DUPM8OSP8TA,31IBVUNM9WF7ORUSX8I0UJN22THVFQ,4,3
167,4,object_07,object_06,177.19999999925,8,1,234.59999999963,1.0,2,object_10,1,2291,0,1,9,restaurant_1,2,memory-2step-stake-s,671,3337952,0.0-19.0-0.1-0.167,AVN1RGGP00USR,371DNNCG57IGA1IMUX7DUPM8OSP8TA,31IBVUNM9WF7ORUSX8I0UJN22THVFQ,8,7
168,2,object_08,object_09,795.19999999925,4,2,417.10000000149,0.8888888888888888,2,object_10,1,2299,0,5,8,forest_6,2,memory-2step-stake-s,672,3346509,0.0-19.0-0.1-0.168,AVN1RGGP00USR,371DNNCG57IGA1IMUX7DUPM8OSP8TA,31IBVUNM9WF7ORUSX8I0UJN22THVFQ,3,4
169,4,object_06,object_07,990.90000000037,8,2,312.70000000112,0.5555555555555556,2,object_10,1,2304,0,5,5,restaurant_5,2,memory-2step-stake-s,673,3354648,0.0-19.0-0.1-0.169,AVN1RGGP00USR,371DNNCG57IGA1IMUX7DUPM8OSP8TA,31IBVUNM9WF7ORUSX8I0UJN22THVFQ,7,8
170,2,object_09,object_08,758.0,4,1,299.40000000037,0.3333333333333333,2,object_10,5,2319,0,8,3,forest_2,2,memory-2step-stake-s,674,3362550,0.0-19.0-0.1-0.170,AVN1RGGP00USR,371DNNCG57IGA1IMUX7DUPM8OSP8TA,31IBVUNM9WF7ORUSX8I0UJN22THVFQ,4,3
171,2,object_08,object_09,-1.0,-1,-1,-1.0,0.0,-,0,5,2319,0,6,4,forest_6,2,memory-2step-stake-s,675,3369093,0.0-19.0-0.1-0.171,AVN1RGGP00USR,371DNNCG57IGA1IMUX7DUPM8OSP8TA,31IBVUNM9WF7ORUSX8I0UJN22THVFQ,3,4
172,2,object_09,object_08,1358.8000000007,4,1,308.90000000037,0.0,2,object_10,5,2319,0,6,0,forest_4,2,memory-2step-stake-s,676,3376655,0.0-19.0-0.1-0.172,AVN1RGGP00USR,371DNNCG57IGA1IMUX7DUPM8OSP8TA,31IBVUNM9WF7ORUSX8I0UJN22THVFQ,4,3
173,4,object_06,object_07,502.40000000037,8,2,302.40000000037,0.0,2,object_10,1,2319,0,7,0,restaurant_5,2,memory-2step-stake-s,677,3384215,0.0-19.0-0.1-0.173,AVN1RGGP00USR,371DNNCG57IGA1IMUX7DUPM8OSP8TA,31IBVUNM9WF7ORUSX8I0UJN22THVFQ,7,8
174,4,object_06,object_07,1114.0999999996,7,1,446.10000000149,0.7777777777777778,1,object_05,1,2326,0,7,0,restaurant_8,2,memory-2step-stake-s,678,3392686,0.0-19.0-0.1-0.174,AVN1RGGP00USR,371DNNCG57IGA1IMUX7DUPM8OSP8TA,31IBVUNM9WF7ORUSX8I0UJN22THVFQ,7,8
175,1,object_02,object_04,1090.9000000004,1,2,250.5,1.0,1,object_05,1,2335,0,9,0,desert_1,2,memory-2step-stake-s,679,3401207,0.0-19.0-0.1-0.175,AVN1RGGP00USR,371DNNCG57IGA1IMUX7DUPM8OSP8TA,31IBVUNM9WF7ORUSX8I0UJN22THVFQ,2,1
176,1,object_04,object_02,1038.7000000011,1,1,195.80000000075,0.8888888888888888,1,object_05,5,2375,0,8,2,desert_7,2,memory-2step-stake-s,680,3409554,0.0-19.0-0.1-0.176,AVN1RGGP00USR,371DNNCG57IGA1IMUX7DUPM8OSP8TA,31IBVUNM9WF7ORUSX8I0UJN22THVFQ,1,2
177,1,object_04,object_02,645.40000000037,1,1,416.0,0.5555555555555556,1,object_05,5,2400,0,5,6,desert_1,2,memory-2step-stake-s,681,3417788,0.0-19.0-0.1-0.177,AVN1RGGP00USR,371DNNCG57IGA1IMUX7DUPM8OSP8TA,31IBVUNM9WF7ORUSX8I0UJN22THVFQ,1,2
178,2,object_08,object_09,779.70000000112,3,1,304.90000000037,0.4444444444444444,1,object_05,5,2420,0,4,5,forest_2,2,memory-2step-stake-s,682,3425800,0.0-19.0-0.1-0.178,AVN1RGGP00USR,371DNNCG57IGA1IMUX7DUPM8OSP8TA,31IBVUNM9WF7ORUSX8I0UJN22THVFQ,3,4
179,3,object_03,object_01,1183.5999999996,5,2,295.5,0.7777777777777778,1,object_05,5,2455,0,7,5,library_1,2,memory-2step-stake-s,683,3434146,0.0-19.0-0.1-0.179,AVN1RGGP00USR,371DNNCG57IGA1IMUX7DUPM8OSP8TA,31IBVUNM9WF7ORUSX8I0UJN22THVFQ,6,5
180,1,object_04,object_02,288.90000000037,1,1,350.0,0.7777777777777778,1,object_05,5,2490,0,7,6,desert_1,2,memory-2step-stake-s,684,3442510,0.0-19.0-0.1-0.180,AVN1RGGP00USR,371DNNCG57IGA1IMUX7DUPM8OSP8TA,31IBVUNM9WF7ORUSX8I0UJN22THVFQ,1,2
181,2,object_08,object_09,618.59999999963,3,1,340.40000000037,0.6666666666666666,1,object_05,5,2520,0,6,6,forest_6,2,memory-2step-stake-s,685,3450791,0.0-19.0-0.1-0.181,AVN1RGGP00USR,371DNNCG57IGA1IMUX7DUPM8OSP8TA,31IBVUNM9WF7ORUSX8I0UJN22THVFQ,3,4
182,1,object_02,object_04,961.30000000075,1,2,843.19999999925,0.3333333333333333,1,object_05,5,2535,0,3,7,desert_7,2,memory-2step-stake-s,686,3459210,0.0-19.0-0.1-0.182,AVN1RGGP00USR,371DNNCG57IGA1IMUX7DUPM8OSP8TA,31IBVUNM9WF7ORUSX8I0UJN22THVFQ,2,1
183,3,object_03,object_01,1091.3000000007,6,1,312.70000000112,0.7777777777777778,2,object_10,5,2570,0,1,7,library_1,2,memory-2step-stake-s,687,3467576,0.0-19.0-0.1-0.183,AVN1RGGP00USR,371DNNCG57IGA1IMUX7DUPM8OSP8TA,31IBVUNM9WF7ORUSX8I0UJN22THVFQ,6,5
184,3,object_03,object_01,468.80000000075,5,2,413.90000000037,0.0,1,object_05,1,2570,0,0,6,library_1,2,memory-2step-stake-s,688,3475249,0.0-19.0-0.1-0.184,AVN1RGGP00USR,371DNNCG57IGA1IMUX7DUPM8OSP8TA,31IBVUNM9WF7ORUSX8I0UJN22THVFQ,6,5
185,3,object_03,object_01,713.30000000075,6,1,337.60000000149,0.6666666666666666,2,object_10,1,2576,0,2,6,library_1,2,memory-2step-stake-s,689,3483486,0.0-19.0-0.1-0.185,AVN1RGGP00USR,371DNNCG57IGA1IMUX7DUPM8OSP8TA,31IBVUNM9WF7ORUSX8I0UJN22THVFQ,6,5
186,1,object_02,object_04,653.20000000112,1,2,1014.8999999985,0.3333333333333333,1,object_05,5,2591,0,3,8,desert_3,2,memory-2step-stake-s,690,3492106,0.0-19.0-0.1-0.186,AVN1RGGP00USR,371DNNCG57IGA1IMUX7DUPM8OSP8TA,31IBVUNM9WF7ORUSX8I0UJN22THVFQ,2,1
187,3,object_01,object_03,1142.7000000011,5,1,396.30000000075,0.3333333333333333,1,object_05,5,2606,0,3,8,library_5,2,memory-2step-stake-s,691,3500103,0.0-19.0-0.1-0.187,AVN1RGGP00USR,371DNNCG57IGA1IMUX7DUPM8OSP8TA,31IBVUNM9WF7ORUSX8I0UJN22THVFQ,5,6
188,4,object_07,object_06,1419.6000000015,7,2,476.5,0.1111111111111111,1,object_05,5,2611,0,1,6,restaurant_5,2,memory-2step-stake-s,692,3507958,0.0-19.0-0.1-0.188,AVN1RGGP00USR,371DNNCG57IGA1IMUX7DUPM8OSP8TA,31IBVUNM9WF7ORUSX8I0UJN22THVFQ,8,7
189,2,object_09,object_08,810.0,4,1,415.10000000149,0.6666666666666666,2,object_10,5,2641,0,0,6,forest_2,2,memory-2step-stake-s,693,3516303,0.0-19.0-0.1-0.189,AVN1RGGP00USR,371DNNCG57IGA1IMUX7DUPM8OSP8TA,31IBVUNM9WF7ORUSX8I0UJN22THVFQ,4,3
190,3,object_03,object_01,737.5,5,2,455.40000000037,0.2222222222222222,1,object_05,5,2651,0,2,4,library_1,2,memory-2step-stake-s,694,3524249,0.0-19.0-0.1-0.190,AVN1RGGP00USR,371DNNCG57IGA1IMUX7DUPM8OSP8TA,31IBVUNM9WF7ORUSX8I0UJN22THVFQ,6,5
191,1,object_04,object_02,774.80000000075,1,1,429.20000000112,0.1111111111111111,1,object_05,5,2656,0,1,5,desert_3,2,memory-2step-stake-s,695,3532036,0.0-19.0-0.1-0.191,AVN1RGGP00USR,371DNNCG57IGA1IMUX7DUPM8OSP8TA,31IBVUNM9WF7ORUSX8I0UJN22THVFQ,1,2
192,3,object_01,object_03,413.70000000112,6,2,392.80000000075,1.0,2,object_10,1,2665,0,1,9,library_7,2,memory-2step-stake-s,696,3540697,0.0-19.0-0.1-0.192,AVN1RGGP00USR,371DNNCG57IGA1IMUX7DUPM8OSP8TA,31IBVUNM9WF7ORUSX8I0UJN22THVFQ,5,6
193,1,object_04,object_02,799.30000000075,2,2,403.5,0.7777777777777778,2,object_10,5,2700,0,2,7,desert_7,2,memory-2step-stake-s,697,3549141,0.0-19.0-0.1-0.193,AVN1RGGP00USR,371DNNCG57IGA1IMUX7DUPM8OSP8TA,31IBVUNM9WF7ORUSX8I0UJN22THVFQ,1,2
194,2,object_09,object_08,618.90000000037,4,1,568.20000000112,1.0,2,object_10,5,2745,0,2,9,forest_4,2,memory-2step-stake-s,698,3557979,0.0-19.0-0.1-0.194,AVN1RGGP00USR,371DNNCG57IGA1IMUX7DUPM8OSP8TA,31IBVUNM9WF7ORUSX8I0UJN22THVFQ,4,3
195,2,object_08,object_09,630.5,4,2,335.5,0.6666666666666666,2,object_10,5,2775,0,4,6,forest_4,2,memory-2step-stake-s,699,3566214,0.0-19.0-0.1-0.195,AVN1RGGP00USR,371DNNCG57IGA1IMUX7DUPM8OSP8TA,31IBVUNM9WF7ORUSX8I0UJN22THVFQ,3,4
196,2,object_09,object_08,1010.8000000007,4,1,375.09999999963,0.5555555555555556,2,object_10,5,2800,0,3,5,forest_2,2,memory-2step-stake-s,700,3574418,0.0-19.0-0.1-0.196,AVN1RGGP00USR,371DNNCG57IGA1IMUX7DUPM8OSP8TA,31IBVUNM9WF7ORUSX8I0UJN22THVFQ,4,3
197,3,object_03,object_01,1054.7000000011,6,1,821.90000000037,0.4444444444444444,2,object_10,1,2804,0,2,4,library_1,2,memory-2step-stake-s,701,3582951,0.0-19.0-0.1-0.197,AVN1RGGP00USR,371DNNCG57IGA1IMUX7DUPM8OSP8TA,31IBVUNM9WF7ORUSX8I0UJN22THVFQ,6,5
198,2,object_08,object_09,485.20000000112,4,2,419.39999999851,0.8888888888888888,2,object_10,1,2812,0,2,8,forest_6,2,memory-2step-stake-s,702,3591534,0.0-19.0-0.1-0.198,AVN1RGGP00USR,371DNNCG57IGA1IMUX7DUPM8OSP8TA,31IBVUNM9WF7ORUSX8I0UJN22THVFQ,3,4
199,1,object_04,object_02,418.0,1,1,220.19999999925,0.1111111111111111,1,object_05,5,2817,0,1,6,desert_5,2,memory-2step-stake-s,703,3599129,0.0-19.0-0.1-0.199,AVN1RGGP00USR,371DNNCG57IGA1IMUX7DUPM8OSP8TA,31IBVUNM9WF7ORUSX8I0UJN22THVFQ,1,2
200,4,object_06,object_07,1307.1000000015,8,2,657.90000000037,0.3333333333333333,2,object_10,1,2820,0,1,3,restaurant_1,2,memory-2step-stake-s,704,3607382,0.0-19.0-0.1-0.200,AVN1RGGP00USR,371DNNCG57IGA1IMUX7DUPM8OSP8TA,31IBVUNM9WF7ORUSX8I0UJN22THVFQ,7,8
201,1,object_04,object_02,251.80000000075,1,1,265.20000000112,0.1111111111111111,1,object_05,5,2825,0,1,4,desert_3,2,memory-2step-stake-s,705,3615009,0.0-19.0-0.1-0.201,AVN1RGGP00USR,371DNNCG57IGA1IMUX7DUPM8OSP8TA,31IBVUNM9WF7ORUSX8I0UJN22THVFQ,1,2
202,3,object_03,object_01,691.20000000112,6,1,316.60000000149,0.1111111111111111,2,object_10,5,2830,0,2,1,library_5,2,memory-2step-stake-s,706,3622702,0.0-19.0-0.1-0.202,AVN1RGGP00USR,371DNNCG57IGA1IMUX7DUPM8OSP8TA,31IBVUNM9WF7ORUSX8I0UJN22THVFQ,6,5
203,2,object_09,object_08,790.20000000112,3,2,269.0,0.2222222222222222,1,object_05,1,2832,0,2,2,forest_5,2,memory-2step-stake-s,707,3630457,0.0-19.0-0.1-0.203,AVN1RGGP00USR,371DNNCG57IGA1IMUX7DUPM8OSP8TA,31IBVUNM9WF7ORUSX8I0UJN22THVFQ,4,3
204,1,object_02,object_04,730.89999999851,2,1,309.5,0.0,2,object_10,5,2832,0,4,0,desert_7,2,memory-2step-stake-s,708,3638039,0.0-19.0-0.1-0.204,AVN1RGGP00USR,371DNNCG57IGA1IMUX7DUPM8OSP8TA,31IBVUNM9WF7ORUSX8I0UJN22THVFQ,2,1
205,1,object_02,object_04,-1.0,-1,-1,-1.0,0.0,-,0,1,2832,0,3,2,desert_7,2,memory-2step-stake-s,709,3644578,0.0-19.0-0.1-0.205,AVN1RGGP00USR,371DNNCG57IGA1IMUX7DUPM8OSP8TA,31IBVUNM9WF7ORUSX8I0UJN22THVFQ,2,1
206,1,object_02,object_04,970.0,1,2,406.5,0.3333333333333333,1,object_05,5,2847,0,3,1,desert_7,2,memory-2step-stake-s,710,3652588,0.0-19.0-0.1-0.206,AVN1RGGP00USR,371DNNCG57IGA1IMUX7DUPM8OSP8TA,31IBVUNM9WF7ORUSX8I0UJN22THVFQ,2,1
207,2,object_08,object_09,654.90000000037,3,1,441.5,0.2222222222222222,1,object_05,5,2857,0,2,3,forest_5,2,memory-2step-stake-s,711,3660518,0.0-19.0-0.1-0.207,AVN1RGGP00USR,371DNNCG57IGA1IMUX7DUPM8OSP8TA,31IBVUNM9WF7ORUSX8I0UJN22THVFQ,3,4
208,1,object_02,object_04,680.89999999851,1,2,333.89999999851,0.4444444444444444,1,object_05,5,2877,0,4,2,desert_3,2,memory-2step-stake-s,712,3668558,0.0-19.0-0.1-0.208,AVN1RGGP00USR,371DNNCG57IGA1IMUX7DUPM8OSP8TA,31IBVUNM9WF7ORUSX8I0UJN22THVFQ,2,1
209,1,object_02,object_04,271.80000000075,2,1,359.89999999851,0.3333333333333333,2,object_10,1,2880,0,7,3,desert_7,2,memory-2step-stake-s,713,3676506,0.0-19.0-0.1-0.209,AVN1RGGP00USR,371DNNCG57IGA1IMUX7DUPM8OSP8TA,31IBVUNM9WF7ORUSX8I0UJN22THVFQ,2,1
210,1,object_02,object_04,16.199999999255,1,2,321.70000000112,0.6666666666666666,1,object_05,1,2886,0,6,3,desert_1,2,memory-2step-stake-s,714,3684740,0.0-19.0-0.1-0.210,AVN1RGGP00USR,371DNNCG57IGA1IMUX7DUPM8OSP8TA,31IBVUNM9WF7ORUSX8I0UJN22THVFQ,2,1
211,2,object_08,object_09,513.59999999963,3,1,1358.5,0.8888888888888888,1,object_05,5,2926,0,8,1,forest_4,2,memory-2step-stake-s,715,3694252,0.0-19.0-0.1-0.211,AVN1RGGP00USR,371DNNCG57IGA1IMUX7DUPM8OSP8TA,31IBVUNM9WF7ORUSX8I0UJN22THVFQ,3,4
212,3,object_01,object_03,737.10000000149,5,1,459.5,0.6666666666666666,1,object_05,1,2932,0,6,0,library_5,2,memory-2step-stake-s,716,3702646,0.0-19.0-0.1-0.212,AVN1RGGP00USR,371DNNCG57IGA1IMUX7DUPM8OSP8TA,31IBVUNM9WF7ORUSX8I0UJN22THVFQ,5,6
213,4,object_06,object_07,1183.0999999996,8,2,311.0,0.0,2,object_10,1,2932,0,5,0,restaurant_5,2,memory-2step-stake-s,717,3710224,0.0-19.0-0.1-0.213,AVN1RGGP00USR,371DNNCG57IGA1IMUX7DUPM8OSP8TA,31IBVUNM9WF7ORUSX8I0UJN22THVFQ,7,8
214,3,object_01,object_03,1192.0,5,1,231.29999999888,0.5555555555555556,1,object_05,5,2957,0,5,1,library_1,2,memory-2step-stake-s,718,3718286,0.0-19.0-0.1-0.214,AVN1RGGP00USR,371DNNCG57IGA1IMUX7DUPM8OSP8TA,31IBVUNM9WF7ORUSX8I0UJN22THVFQ,5,6
215,1,object_02,object_04,1004.5,1,2,241.0,0.7777777777777778,1,object_05,5,2992,0,7,0,desert_1,2,memory-2step-stake-s,719,3726549,0.0-19.0-0.1-0.215,AVN1RGGP00USR,371DNNCG57IGA1IMUX7DUPM8OSP8TA,31IBVUNM9WF7ORUSX8I0UJN22THVFQ,2,1
216,2,object_08,object_09,624.40000000037,3,1,459.79999999888,0.8888888888888888,1,object_05,5,3032,0,8,1,forest_4,2,memory-2step-stake-s,720,3735168,0.0-19.0-0.1-0.216,AVN1RGGP00USR,371DNNCG57IGA1IMUX7DUPM8OSP8TA,31IBVUNM9WF7ORUSX8I0UJN22THVFQ,3,4
217,2,object_08,object_09,1258.0999999996,4,2,113.80000000075,0.1111111111111111,2,object_10,1,3033,0,7,1,forest_5,2,memory-2step-stake-s,721,3742653,0.0-19.0-0.1-0.217,AVN1RGGP00USR,371DNNCG57IGA1IMUX7DUPM8OSP8TA,31IBVUNM9WF7ORUSX8I0UJN22THVFQ,3,4
218,3,object_01,object_03,974.5,5,1,177.79999999888,0.5555555555555556,1,object_05,1,3038,0,5,2,library_5,2,memory-2step-stake-s,722,3750636,0.0-19.0-0.1-0.218,AVN1RGGP00USR,371DNNCG57IGA1IMUX7DUPM8OSP8TA,31IBVUNM9WF7ORUSX8I0UJN22THVFQ,5,6
219,4,object_07,object_06,1366.6000000015,8,1,292.5,0.4444444444444444,2,object_10,1,3042,0,4,4,restaurant_5,2,memory-2step-stake-s,723,3758633,0.0-19.0-0.1-0.219,AVN1RGGP00USR,371DNNCG57IGA1IMUX7DUPM8OSP8TA,31IBVUNM9WF7ORUSX8I0UJN22THVFQ,8,7
220,4,object_06,object_07,1064.3999999985,8,2,56.39999999851,0.4444444444444444,2,object_10,5,3062,0,3,4,restaurant_2,2,memory-2step-stake-s,724,3766373,0.0-19.0-0.1-0.220,AVN1RGGP00USR,371DNNCG57IGA1IMUX7DUPM8OSP8TA,31IBVUNM9WF7ORUSX8I0UJN22THVFQ,7,8
221,2,object_09,object_08,650.09999999963,4,1,276.29999999888,0.7777777777777778,2,object_10,5,3097,0,2,7,forest_6,2,memory-2step-stake-s,725,3774704,0.0-19.0-0.1-0.221,AVN1RGGP00USR,371DNNCG57IGA1IMUX7DUPM8OSP8TA,31IBVUNM9WF7ORUSX8I0UJN22THVFQ,4,3
222,4,object_07,object_06,302.70000000112,7,2,231.29999999888,0.2222222222222222,1,object_05,1,3099,0,2,9,restaurant_1,2,memory-2step-stake-s,726,3782428,0.0-19.0-0.1-0.222,AVN1RGGP00USR,371DNNCG57IGA1IMUX7DUPM8OSP8TA,31IBVUNM9WF7ORUSX8I0UJN22THVFQ,8,7
223,3,object_01,object_03,1306.6999999993,6,2,281.69999999925,0.8888888888888888,2,object_10,1,3107,0,1,8,library_5,2,memory-2step-stake-s,727,3790857,0.0-19.0-0.1-0.223,AVN1RGGP00USR,371DNNCG57IGA1IMUX7DUPM8OSP8TA,31IBVUNM9WF7ORUSX8I0UJN22THVFQ,5,6
224,2,object_09,object_08,605.89999999851,4,1,297.5,0.6666666666666666,2,object_10,5,3137,0,2,6,forest_5,2,memory-2step-stake-s,728,3799073,0.0-19.0-0.1-0.224,AVN1RGGP00USR,371DNNCG57IGA1IMUX7DUPM8OSP8TA,31IBVUNM9WF7ORUSX8I0UJN22THVFQ,4,3
225,4,object_07,object_06,841.60000000149,7,2,68.400000000373,0.3333333333333333,1,object_05,1,3140,0,3,6,restaurant_1,2,memory-2step-stake-s,729,3806745,0.0-19.0-0.1-0.225,AVN1RGGP00USR,371DNNCG57IGA1IMUX7DUPM8OSP8TA,31IBVUNM9WF7ORUSX8I0UJN22THVFQ,8,7
226,2,object_09,object_08,520.90000000037,4,1,228.40000000037,1.0,2,object_10,5,3185,0,1,9,forest_2,2,memory-2step-stake-s,730,3815252,0.0-19.0-0.1-0.226,AVN1RGGP00USR,371DNNCG57IGA1IMUX7DUPM8OSP8TA,31IBVUNM9WF7ORUSX8I0UJN22THVFQ,4,3
227,3,object_01,object_03,788.5,6,2,366.29999999888,0.6666666666666666,2,object_10,1,3191,0,1,6,library_8,2,memory-2step-stake-s,731,3823547,0.0-19.0-0.1-0.227,AVN1RGGP00USR,371DNNCG57IGA1IMUX7DUPM8OSP8TA,31IBVUNM9WF7ORUSX8I0UJN22THVFQ,5,6
228,3,object_03,object_01,617.79999999888,6,1,395.29999999888,0.5555555555555556,2,object_10,1,3196,0,2,5,library_8,2,memory-2step-stake-s,732,3831758,0.0-19.0-0.1-0.228,AVN1RGGP00USR,371DNNCG57IGA1IMUX7DUPM8OSP8TA,31IBVUNM9WF7ORUSX8I0UJN22THVFQ,6,5
229,1,object_02,object_04,614.69999999925,2,1,242.09999999963,0.2222222222222222,2,object_10,5,3206,0,6,2,desert_5,2,memory-2step-stake-s,733,3839482,0.0-19.0-0.1-0.229,AVN1RGGP00USR,371DNNCG57IGA1IMUX7DUPM8OSP8TA,31IBVUNM9WF7ORUSX8I0UJN22THVFQ,2,1
230,2,object_09,object_08,813.59999999963,3,2,242.69999999925,0.6666666666666666,1,object_05,5,3236,0,6,0,forest_5,2,memory-2step-stake-s,734,3847656,0.0-19.0-0.1-0.230,AVN1RGGP00USR,371DNNCG57IGA1IMUX7DUPM8OSP8TA,31IBVUNM9WF7ORUSX8I0UJN22THVFQ,4,3
231,1,object_02,object_04,849.30000000075,1,2,153.09999999963,0.4444444444444444,1,object_05,5,3256,0,4,2,desert_3,2,memory-2step-stake-s,735,3855523,0.0-19.0-0.1-0.231,AVN1RGGP00USR,371DNNCG57IGA1IMUX7DUPM8OSP8TA,31IBVUNM9WF7ORUSX8I0UJN22THVFQ,2,1
232,3,object_03,object_01,1078.8999999985,5,2,267.29999999888,0.4444444444444444,1,object_05,5,3276,0,4,4,library_8,2,memory-2step-stake-s,736,3863486,0.0-19.0-0.1-0.232,AVN1RGGP00USR,371DNNCG57IGA1IMUX7DUPM8OSP8TA,31IBVUNM9WF7ORUSX8I0UJN22THVFQ,6,5
233,3,object_03,object_01,22.299999998882,6,1,221.69999999925,0.7777777777777778,2,object_10,1,3283,0,4,7,library_5,2,memory-2step-stake-s,737,3871739,0.0-19.0-0.1-0.233,AVN1RGGP00USR,371DNNCG57IGA1IMUX7DUPM8OSP8TA,31IBVUNM9WF7ORUSX8I0UJN22THVFQ,6,5
234,2,object_09,object_08,478.19999999925,4,1,377.40000000037,0.8888888888888888,2,object_10,5,3323,0,5,8,forest_2,2,memory-2step-stake-s,738,3880262,0.0-19.0-0.1-0.234,AVN1RGGP00USR,371DNNCG57IGA1IMUX7DUPM8OSP8TA,31IBVUNM9WF7ORUSX8I0UJN22THVFQ,4,3
235,4,object_07,object_06,604.29999999888,7,2,452.29999999888,0.7777777777777778,1,object_05,1,3330,0,7,6,restaurant_1,2,memory-2step-stake-s,739,3888758,0.0-19.0-0.1-0.235,AVN1RGGP00USR,371DNNCG57IGA1IMUX7DUPM8OSP8TA,31IBVUNM9WF7ORUSX8I0UJN22THVFQ,8,7
236,4,object_06,object_07,155.5,7,1,20.199999999255,0.6666666666666666,1,object_05,1,3336,0,6,5,restaurant_8,2,memory-2step-stake-s,740,3896721,0.0-19.0-0.1-0.236,AVN1RGGP00USR,371DNNCG57IGA1IMUX7DUPM8OSP8TA,31IBVUNM9WF7ORUSX8I0UJN22THVFQ,7,8
237,3,object_03,object_01,804.59999999963,5,2,344.09999999963,0.4444444444444444,1,object_05,1,3340,0,4,5,library_8,2,memory-2step-stake-s,741,3904765,0.0-19.0-0.1-0.237,AVN1RGGP00USR,371DNNCG57IGA1IMUX7DUPM8OSP8TA,31IBVUNM9WF7ORUSX8I0UJN22THVFQ,6,5
238,4,object_06,object_07,273.79999999888,7,1,463.0,0.4444444444444444,1,object_05,1,3344,0,4,2,restaurant_8,2,memory-2step-stake-s,742,3912938,0.0-19.0-0.1-0.238,AVN1RGGP00USR,371DNNCG57IGA1IMUX7DUPM8OSP8TA,31IBVUNM9WF7ORUSX8I0UJN22THVFQ,7,8
239,1,object_04,object_02,-1.0,-1,-1,-1.0,0.0,-,0,1,3344,0,2,4,desert_7,2,memory-2step-stake-s,743,3919487,0.0-19.0-0.1-0.239,AVN1RGGP00USR,371DNNCG57IGA1IMUX7DUPM8OSP8TA,31IBVUNM9WF7ORUSX8I0UJN22THVFQ,1,2
240,4,object_07,object_06,573.0,7,2,-1.0,0.0,1,object_05,1,3344,0,4,5,restaurant_2,2,memory-2step-stake-s,744,3928041,0.0-19.0-0.1-0.240,AVN1RGGP00USR,371DNNCG57IGA1IMUX7DUPM8OSP8TA,31IBVUNM9WF7ORUSX8I0UJN22THVFQ,8,7
241,3,object_03,object_01,599.0,6,1,623.0,0.6666666666666666,2,object_10,1,3350,0,5,6,library_1,2,memory-2step-stake-s,745,3936595,0.0-19.0-0.1-0.241,AVN1RGGP00USR,371DNNCG57IGA1IMUX7DUPM8OSP8TA,31IBVUNM9WF7ORUSX8I0UJN22THVFQ,6,5
242,1,object_04,object_02,204.90000000037,2,2,328.59999999963,0.6666666666666666,2,object_10,5,3380,0,7,6,desert_3,2,memory-2step-stake-s,746,3944873,0.0-19.0-0.1-0.242,AVN1RGGP00USR,371DNNCG57IGA1IMUX7DUPM8OSP8TA,31IBVUNM9WF7ORUSX8I0UJN22THVFQ,1,2
243,4,object_07,object_06,236.5,8,1,262.19999999925,0.6666666666666666,2,object_10,1,3386,0,7,6,restaurant_8,2,memory-2step-stake-s,747,3953075,0.0-19.0-0.1-0.243,AVN1RGGP00USR,371DNNCG57IGA1IMUX7DUPM8OSP8TA,31IBVUNM9WF7ORUSX8I0UJN22THVFQ,8,7
244,2,object_08,object_09,514.19999999925,4,2,478.79999999888,0.6666666666666666,2,object_10,5,3416,0,8,6,forest_2,2,memory-2step-stake-s,748,3961477,0.0-19.0-0.1-0.244,AVN1RGGP00USR,371DNNCG57IGA1IMUX7DUPM8OSP8TA,31IBVUNM9WF7ORUSX8I0UJN22THVFQ,3,4
245,4,object_07,object_06,253.69999999925,8,1,42.099999999627,0.6666666666666666,2,object_10,1,3422,0,5,6,restaurant_5,2,memory-2step-stake-s,749,3969465,0.0-19.0-0.1-0.245,AVN1RGGP00USR,371DNNCG57IGA1IMUX7DUPM8OSP8TA,31IBVUNM9WF7ORUSX8I0UJN22THVFQ,8,7
246,2,object_09,object_08,928.69999999925,4,1,-1.0,0.0,2,object_10,5,3422,0,8,7,forest_2,2,memory-2step-stake-s,750,3978035,0.0-19.0-0.1-0.246,AVN1RGGP00USR,371DNNCG57IGA1IMUX7DUPM8OSP8TA,31IBVUNM9WF7ORUSX8I0UJN22THVFQ,4,3
247,1,object_02,object_04,840.09999999963,2,1,454.0,0.7777777777777778,2,object_10,5,3457,0,9,7,desert_7,2,memory-2step-stake-s,751,3986548,0.0-19.0-0.1-0.247,AVN1RGGP00USR,371DNNCG57IGA1IMUX7DUPM8OSP8TA,31IBVUNM9WF7ORUSX8I0UJN22THVFQ,2,1
248,4,object_07,object_06,680.5,7,2,579.59999999963,1.0,1,object_05,5,3502,0,9,8,restaurant_5,2,memory-2step-stake-s,752,3995408,0.0-19.0-0.1-0.248,AVN1RGGP00USR,371DNNCG57IGA1IMUX7DUPM8OSP8TA,31IBVUNM9WF7ORUSX8I0UJN22THVFQ,8,7
249,2,object_09,object_08,549.40000000037,4,1,879.29999999888,0.7777777777777778,2,object_10,5,3537,0,8,7,forest_5,2,memory-2step-stake-s,753,4004329,0.0-19.0-0.1-0.249,AVN1RGGP00USR,371DNNCG57IGA1IMUX7DUPM8OSP8TA,31IBVUNM9WF7ORUSX8I0UJN22THVFQ,4,3
250,3,object_03,object_01,205.5,6,1,281.0,0.6666666666666666,2,object_10,1,3543,0,7,6,library_8,2,memory-2step-stake-s,754,4012558,0.0-19.0-0.1-0.250,AVN1RGGP00USR,371DNNCG57IGA1IMUX7DUPM8OSP8TA,31IBVUNM9WF7ORUSX8I0UJN22THVFQ,6,5
251,3,object_03,object_01,818.0,5,2,486.59999999963,1.0,1,object_05,5,3588,0,9,6,library_7,2,memory-2step-stake-s,755,4021320,0.0-19.0-0.1-0.251,AVN1RGGP00USR,371DNNCG57IGA1IMUX7DUPM8OSP8TA,31IBVUNM9WF7ORUSX8I0UJN22THVFQ,6,5
252,2,object_08,object_09,697.69999999925,3,1,311.29999999888,0.8888888888888888,1,object_05,5,3628,0,8,5,forest_2,2,memory-2step-stake-s,756,4029787,0.0-19.0-0.1-0.252,AVN1RGGP00USR,371DNNCG57IGA1IMUX7DUPM8OSP8TA,31IBVUNM9WF7ORUSX8I0UJN22THVFQ,3,4
253,1,object_02,object_04,301.59999999963,1,2,234.09999999963,0.8888888888888888,1,object_05,5,3668,0,8,4,desert_7,2,memory-2step-stake-s,757,4038176,0.0-19.0-0.1-0.253,AVN1RGGP00USR,371DNNCG57IGA1IMUX7DUPM8OSP8TA,31IBVUNM9WF7ORUSX8I0UJN22THVFQ,2,1
254,4,object_06,object_07,1129.6999999993,7,1,-1.0,0.0,1,object_05,1,3668,0,7,4,restaurant_5,2,memory-2step-stake-s,758,4046756,0.0-19.0-0.1-0.254,AVN1RGGP00USR,371DNNCG57IGA1IMUX7DUPM8OSP8TA,31IBVUNM9WF7ORUSX8I0UJN22THVFQ,7,8
255,2,object_08,object_09,744.59999999963,3,1,-1.0,0.0,1,object_05,1,3668,0,8,3,forest_6,2,memory-2step-stake-s,759,4055315,0.0-19.0-0.1-0.255,AVN1RGGP00USR,371DNNCG57IGA1IMUX7DUPM8OSP8TA,31IBVUNM9WF7ORUSX8I0UJN22THVFQ,3,4
