,state1,stim_left,stim_right,rt_1,choice1,response1,rt_2,points,state2,stim_state2,stake,score,practice,rews1,rews2,background,high_arm,trial_type,trial_index,time_elapsed,internal_node_id,subid,hitid,assignmentid,stim_left_num,stim_right_num
0,4,object_01,object_09,-1.0,-1,-1,-1.0,0.0,-,0,1,0,0,1,3,restaurant_1,1,memory-2step-stake-s,488,911754,0.0-19.0-0.0-0.0,A3GEYEPOHA33SP,3X4Q1O9UCK2WXV8VOBT8MFKQE0B7O9,3BV8HQ2ZZ0HRDAYJLKO04QWCOMD6A1,7,8
1,3,object_05,object_08,308.60000000149,5,2,-1.0,0.0,1,object_04,5,0,0,2,7,library_2,1,memory-2step-stake-s,489,920271,0.0-19.0-0.0-0.1,A3GEYEPOHA33SP,3X4Q1O9UCK2WXV8VOBT8MFKQE0B7O9,3BV8HQ2ZZ0HRDAYJLKO04QWCOMD6A1,6,5
2,1,object_02,object_03,468.10000000149,1,2,356.0,0.1111111111111111,1,object_04,1,1,0,1,7,desert_6,1,memory-2step-stake-s,490,927944,0.0-19.0-0.0-0.2,A3GEYEPOHA33SP,3X4Q1O9UCK2WXV8VOBT8MFKQE0B7O9,3BV8HQ2ZZ0HRDAYJLKO04QWCOMD6A1,2,1
3,1,object_02,object_03,317.80000000447,2,1,291.29999999702,0.6666666666666666,2,object_07,1,7,0,0,6,desert_6,1,memory-2step-stake-s,491,936057,0.0-19.0-0.0-0.3,A3GEYEPOHA33SP,3X4Q1O9UCK2WXV8VOBT8MFKQE0B7O9,3BV8HQ2ZZ0HRDAYJLKO04QWCOMD6A1,2,1
4,3,object_08,object_05,569.20000000298,6,2,570.29999999702,0.8888888888888888,2,object_07,5,47,0,0,8,library_4,1,memory-2step-stake-s,492,944650,0.0-19.0-0.0-0.4,A3GEYEPOHA33SP,3X4Q1O9UCK2WXV8VOBT8MFKQE0B7O9,3BV8HQ2ZZ0HRDAYJLKO04QWCOMD6A1,5,6
5,4,object_01,object_09,454.80000000447,7,1,455.39999999851,0.0,1,object_04,5,47,0,0,6,restaurant_4,1,memory-2step-stake-s,493,952318,0.0-19.0-0.0-0.5,A3GEYEPOHA33SP,3X4Q1O9UCK2WXV8VOBT8MFKQE0B7O9,3BV8HQ2ZZ0HRDAYJLKO04QWCOMD6A1,7,8
6,2,object_06,object_10,380.19999999553,3,2,403.70000000298,0.2222222222222222,1,object_04,1,49,0,2,6,forest_4,1,memory-2step-stake-s,494,960138,0.0-19.0-0.0-0.6,A3GEYEPOHA33SP,3X4Q1O9UCK2WXV8VOBT8MFKQE0B7O9,3BV8HQ2ZZ0HRDAYJLKO04QWCOMD6A1,4,3
7,3,object_05,object_08,480.0,6,1,82.5,0.6666666666666666,2,object_07,5,79,0,1,6,library_3,1,memory-2step-stake-s,495,968041,0.0-19.0-0.0-0.7,A3GEYEPOHA33SP,3X4Q1O9UCK2WXV8VOBT8MFKQE0B7O9,3BV8HQ2ZZ0HRDAYJLKO04QWCOMD6A1,6,5
8,2,object_10,object_06,944.39999999851,3,1,361.89999999851,0.0,1,object_04,1,79,0,0,3,forest_7,1,memory-2step-stake-s,496,975619,0.0-19.0-0.0-0.8,A3GEYEPOHA33SP,3X4Q1O9UCK2WXV8VOBT8MFKQE0B7O9,3BV8HQ2ZZ0HRDAYJLKO04QWCOMD6A1,3,4
9,3,object_05,object_08,482.39999999851,6,1,271.20000000298,0.4444444444444444,2,object_07,5,99,0,0,4,library_2,1,memory-2step-stake-s,497,983516,0.0-19.0-0.0-0.9,A3GEYEPOHA33SP,3X4Q1O9UCK2WXV8VOBT8MFKQE0B7O9,3BV8HQ2ZZ0HRDAYJLKO04QWCOMD6A1,6,5
10,1,object_03,object_02,721.0,2,2,153.0,0.4444444444444444,2,object_07,5,119,0,2,4,desert_3,1,memory-2step-stake-s,498,991285,0.0-19.0-0.0-0.10,A3GEYEPOHA33SP,3X4Q1O9UCK2WXV8VOBT8MFKQE0B7O9,3BV8HQ2ZZ0HRDAYJLKO04QWCOMD6A1,1,2
11,4,object_01,object_09,788.10000000149,8,2,179.69999999553,0.4444444444444444,2,object_07,5,139,0,4,4,restaurant_4,1,memory-2step-stake-s,499,999084,0.0-19.0-0.0-0.11,A3GEYEPOHA33SP,3X4Q1O9UCK2WXV8VOBT8MFKQE0B7O9,3BV8HQ2ZZ0HRDAYJLKO04QWCOMD6A1,7,8
12,4,object_09,object_01,944.80000000447,8,1,72.79999999702,0.4444444444444444,2,object_07,5,159,0,4,4,restaurant_4,1,memory-2step-stake-s,500,1006779,0.0-19.0-0.0-0.12,A3GEYEPOHA33SP,3X4Q1O9UCK2WXV8VOBT8MFKQE0B7O9,3BV8HQ2ZZ0HRDAYJLKO04QWCOMD6A1,8,7
13,2,object_06,object_10,1034.6999999955,4,1,23.0,0.4444444444444444,2,object_07,1,163,0,2,4,forest_7,1,memory-2step-stake-s,501,1014423,0.0-19.0-0.0-0.13,A3GEYEPOHA33SP,3X4Q1O9UCK2WXV8VOBT8MFKQE0B7O9,3BV8HQ2ZZ0HRDAYJLKO04QWCOMD6A1,4,3
14,1,object_03,object_02,692.0,2,2,249.20000000298,0.7777777777777778,2,object_07,5,198,0,2,7,desert_3,1,memory-2step-stake-s,502,1022607,0.0-19.0-0.0-0.14,A3GEYEPOHA33SP,3X4Q1O9UCK2WXV8VOBT8MFKQE0B7O9,3BV8HQ2ZZ0HRDAYJLKO04QWCOMD6A1,1,2
15,3,object_08,object_05,496.10000000149,6,2,497.30000000447,0.5555555555555556,2,object_07,5,223,0,3,5,library_4,1,memory-2step-stake-s,503,1030823,0.0-19.0-0.0-0.15,A3GEYEPOHA33SP,3X4Q1O9UCK2WXV8VOBT8MFKQE0B7O9,3BV8HQ2ZZ0HRDAYJLKO04QWCOMD6A1,5,6
16,1,object_02,object_03,1002.1000000015,1,2,111.20000000298,0.0,1,object_04,5,223,0,0,5,desert_6,1,memory-2step-stake-s,504,1038148,0.0-19.0-0.0-0.16,A3GEYEPOHA33SP,3X4Q1O9UCK2WXV8VOBT8MFKQE0B7O9,3BV8HQ2ZZ0HRDAYJLKO04QWCOMD6A1,2,1
17,4,object_01,object_09,889.20000000298,7,1,323.30000000447,0.1111111111111111,1,object_04,5,228,0,1,5,restaurant_8,1,memory-2step-stake-s,505,1045784,0.0-19.0-0.0-0.17,A3GEYEPOHA33SP,3X4Q1O9UCK2WXV8VOBT8MFKQE0B7O9,3BV8HQ2ZZ0HRDAYJLKO04QWCOMD6A1,7,8
18,4,object_01,object_09,760.70000000298,7,1,253.5,0.2222222222222222,1,object_04,5,238,0,2,3,restaurant_2,1,memory-2step-stake-s,506,1053456,0.0-19.0-0.0-0.18,A3GEYEPOHA33SP,3X4Q1O9UCK2WXV8VOBT8MFKQE0B7O9,3BV8HQ2ZZ0HRDAYJLKO04QWCOMD6A1,7,8
19,3,object_08,object_05,490.39999999851,6,2,241.69999999553,0.2222222222222222,2,object_07,1,240,0,2,2,library_3,1,memory-2step-stake-s,507,1061117,0.0-19.0-0.0-0.19,A3GEYEPOHA33SP,3X4Q1O9UCK2WXV8VOBT8MFKQE0B7O9,3BV8HQ2ZZ0HRDAYJLKO04QWCOMD6A1,5,6
20,4,object_01,object_09,686.29999999702,8,2,238.19999999553,0.3333333333333333,2,object_07,5,255,0,4,3,restaurant_4,1,memory-2step-stake-s,508,1068873,0.0-19.0-0.0-0.20,A3GEYEPOHA33SP,3X4Q1O9UCK2WXV8VOBT8MFKQE0B7O9,3BV8HQ2ZZ0HRDAYJLKO04QWCOMD6A1,7,8
21,3,object_08,object_05,761.5,6,2,107.20000000298,0.2222222222222222,2,object_07,5,265,0,3,2,library_4,1,memory-2step-stake-s,509,1076397,0.0-19.0-0.0-0.21,A3GEYEPOHA33SP,3X4Q1O9UCK2WXV8VOBT8MFKQE0B7O9,3BV8HQ2ZZ0HRDAYJLKO04QWCOMD6A1,5,6
22,2,object_10,object_06,475.39999999851,3,1,79.70000000298,0.6666666666666666,1,object_04,1,271,0,6,0,forest_7,1,memory-2step-stake-s,510,1084295,0.0-19.0-0.0-0.22,A3GEYEPOHA33SP,3X4Q1O9UCK2WXV8VOBT8MFKQE0B7O9,3BV8HQ2ZZ0HRDAYJLKO04QWCOMD6A1,3,4
23,2,object_06,object_10,593.0,3,2,137.10000000149,0.7777777777777778,1,object_04,1,278,0,7,2,forest_6,1,memory-2step-stake-s,511,1092351,0.0-19.0-0.0-0.23,A3GEYEPOHA33SP,3X4Q1O9UCK2WXV8VOBT8MFKQE0B7O9,3BV8HQ2ZZ0HRDAYJLKO04QWCOMD6A1,4,3
24,1,object_02,object_03,583.90000000596,2,1,24.80000000447,0.3333333333333333,2,object_07,1,281,0,8,3,desert_2,1,memory-2step-stake-s,512,1099893,0.0-19.0-0.0-0.24,A3GEYEPOHA33SP,3X4Q1O9UCK2WXV8VOBT8MFKQE0B7O9,3BV8HQ2ZZ0HRDAYJLKO04QWCOMD6A1,2,1
25,4,object_09,object_01,496.19999999553,7,2,142.60000000149,0.6666666666666666,1,object_04,5,311,0,6,2,restaurant_4,1,memory-2step-stake-s,513,1107856,0.0-19.0-0.0-0.25,A3GEYEPOHA33SP,3X4Q1O9UCK2WXV8VOBT8MFKQE0B7O9,3BV8HQ2ZZ0HRDAYJLKO04QWCOMD6A1,8,7
26,2,object_10,object_06,782.5,3,1,196.19999999553,1.0,1,object_04,1,320,0,9,1,forest_7,1,memory-2step-stake-s,514,1116178,0.0-19.0-0.0-0.26,A3GEYEPOHA33SP,3X4Q1O9UCK2WXV8VOBT8MFKQE0B7O9,3BV8HQ2ZZ0HRDAYJLKO04QWCOMD6A1,3,4
27,1,object_03,object_02,562.39999999851,1,1,76.60000000149,0.7777777777777778,1,object_04,1,327,0,7,2,desert_3,1,memory-2step-stake-s,515,1124173,0.0-19.0-0.0-0.27,A3GEYEPOHA33SP,3X4Q1O9UCK2WXV8VOBT8MFKQE0B7O9,3BV8HQ2ZZ0HRDAYJLKO04QWCOMD6A1,1,2
28,4,object_01,object_09,287.0,8,2,378.0,0.5555555555555556,2,object_07,1,332,0,7,5,restaurant_1,1,memory-2step-stake-s,516,1132271,0.0-19.0-0.0-0.28,A3GEYEPOHA33SP,3X4Q1O9UCK2WXV8VOBT8MFKQE0B7O9,3BV8HQ2ZZ0HRDAYJLKO04QWCOMD6A1,7,8
29,3,object_08,object_05,164.69999999553,5,1,129.20000000298,0.7777777777777778,1,object_04,5,367,0,7,5,library_3,1,memory-2step-stake-s,517,1140343,0.0-19.0-0.0-0.29,A3GEYEPOHA33SP,3X4Q1O9UCK2WXV8VOBT8MFKQE0B7O9,3BV8HQ2ZZ0HRDAYJLKO04QWCOMD6A1,5,6
30,2,object_10,object_06,736.29999999702,3,1,386.5,0.5555555555555556,1,object_04,5,392,0,5,6,forest_7,1,memory-2step-stake-s,518,1148449,0.0-19.0-0.0-0.30,A3GEYEPOHA33SP,3X4Q1O9UCK2WXV8VOBT8MFKQE0B7O9,3BV8HQ2ZZ0HRDAYJLKO04QWCOMD6A1,3,4
31,1,object_03,object_02,612.79999999702,2,2,184.20000000298,0.6666666666666666,2,object_07,1,398,0,3,6,desert_3,1,memory-2step-stake-s,519,1156457,0.0-19.0-0.0-0.31,A3GEYEPOHA33SP,3X4Q1O9UCK2WXV8VOBT8MFKQE0B7O9,3BV8HQ2ZZ0HRDAYJLKO04QWCOMD6A1,1,2
32,3,object_08,object_05,316.59999999404,5,1,62.30000000447,0.2222222222222222,1,object_04,5,408,0,2,8,library_6,1,memory-2step-stake-s,520,1163935,0.0-19.0-0.0-0.32,A3GEYEPOHA33SP,3X4Q1O9UCK2WXV8VOBT8MFKQE0B7O9,3BV8HQ2ZZ0HRDAYJLKO04QWCOMD6A1,5,6
33,3,object_08,object_05,638.30000000447,6,2,321.10000000149,1.0,2,object_07,5,453,0,4,9,library_2,1,memory-2step-stake-s,521,1172378,0.0-19.0-0.0-0.33,A3GEYEPOHA33SP,3X4Q1O9UCK2WXV8VOBT8MFKQE0B7O9,3BV8HQ2ZZ0HRDAYJLKO04QWCOMD6A1,5,6
34,2,object_10,object_06,667.39999999851,4,2,1313.6000000015,0.5555555555555556,2,object_07,1,458,0,3,5,forest_7,1,memory-2step-stake-s,522,1181414,0.0-19.0-0.0-0.34,A3GEYEPOHA33SP,3X4Q1O9UCK2WXV8VOBT8MFKQE0B7O9,3BV8HQ2ZZ0HRDAYJLKO04QWCOMD6A1,3,4
35,2,object_06,object_10,833.69999999553,3,2,642.5,0.2222222222222222,1,object_04,1,460,0,2,5,forest_6,1,memory-2step-stake-s,523,1189473,0.0-19.0-0.0-0.35,A3GEYEPOHA33SP,3X4Q1O9UCK2WXV8VOBT8MFKQE0B7O9,3BV8HQ2ZZ0HRDAYJLKO04QWCOMD6A1,4,3
36,4,object_01,object_09,389.89999999851,7,1,333.30000000447,0.2222222222222222,1,object_04,1,462,0,2,5,restaurant_2,1,memory-2step-stake-s,524,1197230,0.0-19.0-0.0-0.36,A3GEYEPOHA33SP,3X4Q1O9UCK2WXV8VOBT8MFKQE0B7O9,3BV8HQ2ZZ0HRDAYJLKO04QWCOMD6A1,7,8
37,4,object_01,object_09,293.5,8,2,83.29999999702,0.7777777777777778,2,object_07,5,497,0,3,7,restaurant_1,1,memory-2step-stake-s,525,1205231,0.0-19.0-0.0-0.37,A3GEYEPOHA33SP,3X4Q1O9UCK2WXV8VOBT8MFKQE0B7O9,3BV8HQ2ZZ0HRDAYJLKO04QWCOMD6A1,7,8
38,1,object_02,object_03,240.5,2,1,168.09999999404,0.6666666666666666,2,object_07,1,503,0,4,6,desert_2,1,memory-2step-stake-s,526,1213226,0.0-19.0-0.0-0.38,A3GEYEPOHA33SP,3X4Q1O9UCK2WXV8VOBT8MFKQE0B7O9,3BV8HQ2ZZ0HRDAYJLKO04QWCOMD6A1,2,1
39,1,object_02,object_03,349.30000000447,1,2,131.29999999702,0.2222222222222222,1,object_04,1,505,0,2,9,desert_3,1,memory-2step-stake-s,527,1220777,0.0-19.0-0.0-0.39,A3GEYEPOHA33SP,3X4Q1O9UCK2WXV8VOBT8MFKQE0B7O9,3BV8HQ2ZZ0HRDAYJLKO04QWCOMD6A1,2,1
40,3,object_08,object_05,648.39999999851,6,2,163.90000000596,0.8888888888888888,2,object_07,5,545,0,5,8,library_3,1,memory-2step-stake-s,528,1228965,0.0-19.0-0.0-0.40,A3GEYEPOHA33SP,3X4Q1O9UCK2WXV8VOBT8MFKQE0B7O9,3BV8HQ2ZZ0HRDAYJLKO04QWCOMD6A1,5,6
41,2,object_10,object_06,556.0,4,2,189.20000000298,0.8888888888888888,2,object_07,1,553,0,4,8,forest_3,1,memory-2step-stake-s,529,1237173,0.0-19.0-0.0-0.41,A3GEYEPOHA33SP,3X4Q1O9UCK2WXV8VOBT8MFKQE0B7O9,3BV8HQ2ZZ0HRDAYJLKO04QWCOMD6A1,3,4
42,4,object_01,object_09,712.79999999702,8,2,253.29999999702,0.7777777777777778,2,object_07,5,588,0,2,7,restaurant_2,1,memory-2step-stake-s,530,1245349,0.0-19.0-0.0-0.42,A3GEYEPOHA33SP,3X4Q1O9UCK2WXV8VOBT8MFKQE0B7O9,3BV8HQ2ZZ0HRDAYJLKO04QWCOMD6A1,7,8
43,2,object_06,object_10,969.80000000447,3,2,222.5,0.3333333333333333,1,object_04,1,591,0,3,8,forest_6,1,memory-2step-stake-s,531,1253088,0.0-19.0-0.0-0.43,A3GEYEPOHA33SP,3X4Q1O9UCK2WXV8VOBT8MFKQE0B7O9,3BV8HQ2ZZ0HRDAYJLKO04QWCOMD6A1,4,3
44,1,object_03,object_02,641.79999999702,1,1,406.30000000447,0.2222222222222222,1,object_04,1,593,0,2,4,desert_6,1,memory-2step-stake-s,532,1260922,0.0-19.0-0.0-0.44,A3GEYEPOHA33SP,3X4Q1O9UCK2WXV8VOBT8MFKQE0B7O9,3BV8HQ2ZZ0HRDAYJLKO04QWCOMD6A1,1,2
45,3,object_05,object_08,696.29999999702,6,1,447.60000000149,0.6666666666666666,2,object_07,5,623,0,2,6,library_6,1,memory-2step-stake-s,533,1269193,0.0-19.0-0.0-0.45,A3GEYEPOHA33SP,3X4Q1O9UCK2WXV8VOBT8MFKQE0B7O9,3BV8HQ2ZZ0HRDAYJLKO04QWCOMD6A1,6,5
46,1,object_02,object_03,627.5,1,2,266.5,0.1111111111111111,1,object_04,1,624,0,1,7,desert_8,1,memory-2step-stake-s,534,1276776,0.0-19.0-0.0-0.46,A3GEYEPOHA33SP,3X4Q1O9UCK2WXV8VOBT8MFKQE0B7O9,3BV8HQ2ZZ0HRDAYJLKO04QWCOMD6A1,2,1
47,2,object_10,object_06,623.59999999404,3,1,320.39999999851,0.0,1,object_04,5,624,0,0,9,forest_3,1,memory-2step-stake-s,535,1284323,0.0-19.0-0.0-0.47,A3GEYEPOHA33SP,3X4Q1O9UCK2WXV8VOBT8MFKQE0B7O9,3BV8HQ2ZZ0HRDAYJLKO04QWCOMD6A1,3,4
48,2,object_06,object_10,634.19999999553,3,2,211.20000000298,0.1111111111111111,1,object_04,1,625,0,1,5,forest_6,1,memory-2step-stake-s,536,1291849,0.0-19.0-0.0-0.48,A3GEYEPOHA33SP,3X4Q1O9UCK2WXV8VOBT8MFKQE0B7O9,3BV8HQ2ZZ0HRDAYJLKO04QWCOMD6A1,4,3
49,4,object_09,object_01,651.29999999702,8,1,397.40000000596,0.7777777777777778,2,object_07,5,660,0,1,7,restaurant_4,1,memory-2step-stake-s,537,1300169,0.0-19.0-0.0-0.49,A3GEYEPOHA33SP,3X4Q1O9UCK2WXV8VOBT8MFKQE0B7O9,3BV8HQ2ZZ0HRDAYJLKO04QWCOMD6A1,8,7
50,2,object_06,object_10,809.30000000447,3,2,418.20000000298,0.4444444444444444,1,object_04,1,664,0,4,6,forest_4,1,memory-2step-stake-s,538,1308205,0.0-19.0-0.0-0.50,A3GEYEPOHA33SP,3X4Q1O9UCK2WXV8VOBT8MFKQE0B7O9,3BV8HQ2ZZ0HRDAYJLKO04QWCOMD6A1,4,3
51,3,object_08,object_05,622.10000000149,6,2,371.0,0.7777777777777778,2,object_07,5,699,0,5,7,library_6,1,memory-2step-stake-s,539,1316496,0.0-19.0-0.0-0.51,A3GEYEPOHA33SP,3X4Q1O9UCK2WXV8VOBT8MFKQE0B7O9,3BV8HQ2ZZ0HRDAYJLKO04QWCOMD6A1,5,6
52,1,object_03,object_02,885.60000000149,2,2,221.19999999553,0.4444444444444444,2,object_07,5,719,0,2,4,desert_2,1,memory-2step-stake-s,540,1324343,0.0-19.0-0.0-0.52,A3GEYEPOHA33SP,3X4Q1O9UCK2WXV8VOBT8MFKQE0B7O9,3BV8HQ2ZZ0HRDAYJLKO04QWCOMD6A1,1,2
53,2,object_06,object_10,853.0,3,2,1127.200000003,0.0,1,object_04,1,719,0,0,3,forest_4,1,memory-2step-stake-s,541,1332683,0.0-19.0-0.0-0.53,A3GEYEPOHA33SP,3X4Q1O9UCK2WXV8VOBT8MFKQE0B7O9,3BV8HQ2ZZ0HRDAYJLKO04QWCOMD6A1,4,3
54,3,object_05,object_08,717.89999999851,6,1,436.19999999553,0.1111111111111111,2,object_07,5,724,0,0,1,library_2,1,memory-2step-stake-s,542,1340434,0.0-19.0-0.0-0.54,A3GEYEPOHA33SP,3X4Q1O9UCK2WXV8VOBT8MFKQE0B7O9,3BV8HQ2ZZ0HRDAYJLKO04QWCOMD6A1,6,5
55,2,object_06,object_10,640.80000000447,3,2,150.39999999851,0.0,1,object_04,1,724,0,0,3,forest_3,1,memory-2step-stake-s,543,1347795,0.0-19.0-0.0-0.55,A3GEYEPOHA33SP,3X4Q1O9UCK2WXV8VOBT8MFKQE0B7O9,3BV8HQ2ZZ0HRDAYJLKO04QWCOMD6A1,4,3
56,4,object_01,object_09,587.39999999851,8,2,59.80000000447,0.3333333333333333,2,object_07,5,739,0,3,3,restaurant_8,1,memory-2step-stake-s,544,1355374,0.0-19.0-0.0-0.56,A3GEYEPOHA33SP,3X4Q1O9UCK2WXV8VOBT8MFKQE0B7O9,3BV8HQ2ZZ0HRDAYJLKO04QWCOMD6A1,7,8
57,2,object_10,object_06,759.5,3,1,399.5,0.3333333333333333,1,object_04,1,742,0,3,4,forest_3,1,memory-2step-stake-s,545,1363299,0.0-19.0-0.0-0.57,A3GEYEPOHA33SP,3X4Q1O9UCK2WXV8VOBT8MFKQE0B7O9,3BV8HQ2ZZ0HRDAYJLKO04QWCOMD6A1,3,4
58,3,object_08,object_05,741.90000000596,6,2,105.39999999851,0.3333333333333333,2,object_07,1,745,0,3,3,library_2,1,memory-2step-stake-s,546,1370921,0.0-19.0-0.0-0.58,A3GEYEPOHA33SP,3X4Q1O9UCK2WXV8VOBT8MFKQE0B7O9,3BV8HQ2ZZ0HRDAYJLKO04QWCOMD6A1,5,6
59,3,object_08,object_05,562.80000000447,6,2,43.10000000149,0.0,2,object_07,1,745,0,2,0,library_6,1,memory-2step-stake-s,547,1378186,0.0-19.0-0.0-0.59,A3GEYEPOHA33SP,3X4Q1O9UCK2WXV8VOBT8MFKQE0B7O9,3BV8HQ2ZZ0HRDAYJLKO04QWCOMD6A1,5,6
60,1,object_02,object_03,750.5,1,2,181.39999999851,0.4444444444444444,1,object_04,1,749,0,4,1,desert_6,1,memory-2step-stake-s,548,1385985,0.0-19.0-0.0-0.60,A3GEYEPOHA33SP,3X4Q1O9UCK2WXV8VOBT8MFKQE0B7O9,3BV8HQ2ZZ0HRDAYJLKO04QWCOMD6A1,2,1
61,2,object_06,object_10,871.0,3,2,361.79999999702,0.6666666666666666,1,object_04,1,755,0,6,1,forest_7,1,memory-2step-stake-s,549,1394166,0.0-19.0-0.0-0.61,A3GEYEPOHA33SP,3X4Q1O9UCK2WXV8VOBT8MFKQE0B7O9,3BV8HQ2ZZ0HRDAYJLKO04QWCOMD6A1,4,3
62,1,object_02,object_03,751.0,1,2,552.70000000298,0.8888888888888888,1,object_04,1,763,0,8,1,desert_3,1,memory-2step-stake-s,550,1402749,0.0-19.0-0.0-0.62,A3GEYEPOHA33SP,3X4Q1O9UCK2WXV8VOBT8MFKQE0B7O9,3BV8HQ2ZZ0HRDAYJLKO04QWCOMD6A1,2,1
63,3,object_08,object_05,736.39999999851,6,2,384.5,0.0,2,object_07,1,763,0,6,0,library_6,1,memory-2step-stake-s,551,1410348,0.0-19.0-0.0-0.63,A3GEYEPOHA33SP,3X4Q1O9UCK2WXV8VOBT8MFKQE0B7O9,3BV8HQ2ZZ0HRDAYJLKO04QWCOMD6A1,5,6
64,3,object_08,object_05,702.19999999553,6,2,374.59999999404,0.1111111111111111,2,object_07,1,764,0,8,1,library_6,1,memory-2step-stake-s,552,1418046,0.0-19.0-0.0-0.64,A3GEYEPOHA33SP,3X4Q1O9UCK2WXV8VOBT8MFKQE0B7O9,3BV8HQ2ZZ0HRDAYJLKO04QWCOMD6A1,5,6
65,1,object_03,object_02,687.09999999404,1,1,307.70000000298,0.5555555555555556,1,object_04,5,789,0,5,0,desert_8,1,memory-2step-stake-s,553,1426073,0.0-19.0-0.0-0.65,A3GEYEPOHA33SP,3X4Q1O9UCK2WXV8VOBT8MFKQE0B7O9,3BV8HQ2ZZ0HRDAYJLKO04QWCOMD6A1,1,2
66,1,object_03,object_02,638.89999999851,2,2,299.69999999553,0.0,2,object_07,1,789,0,4,0,desert_6,1,memory-2step-stake-s,554,1433585,0.0-19.0-0.0-0.66,A3GEYEPOHA33SP,3X4Q1O9UCK2WXV8VOBT8MFKQE0B7O9,3BV8HQ2ZZ0HRDAYJLKO04QWCOMD6A1,1,2
67,1,object_02,object_03,635.0,1,2,384.89999999851,0.4444444444444444,1,object_04,5,809,0,4,2,desert_8,1,memory-2step-stake-s,555,1441584,0.0-19.0-0.0-0.67,A3GEYEPOHA33SP,3X4Q1O9UCK2WXV8VOBT8MFKQE0B7O9,3BV8HQ2ZZ0HRDAYJLKO04QWCOMD6A1,2,1
68,3,object_05,object_08,714.60000000149,6,1,715.89999999851,0.5555555555555556,2,object_07,5,834,0,5,5,library_2,1,memory-2step-stake-s,556,1450037,0.0-19.0-0.0-0.68,A3GEYEPOHA33SP,3X4Q1O9UCK2WXV8VOBT8MFKQE0B7O9,3BV8HQ2ZZ0HRDAYJLKO04QWCOMD6A1,6,5
69,4,object_09,object_01,750.89999999851,7,2,61.89999999851,0.6666666666666666,1,object_04,5,864,0,6,6,restaurant_8,1,memory-2step-stake-s,557,1457928,0.0-19.0-0.0-0.69,A3GEYEPOHA33SP,3X4Q1O9UCK2WXV8VOBT8MFKQE0B7O9,3BV8HQ2ZZ0HRDAYJLKO04QWCOMD6A1,8,7
70,1,object_02,object_03,670.59999999404,1,2,23.20000000298,0.8888888888888888,1,object_04,1,872,0,8,4,desert_3,1,memory-2step-stake-s,558,1465978,0.0-19.0-0.0-0.70,A3GEYEPOHA33SP,3X4Q1O9UCK2WXV8VOBT8MFKQE0B7O9,3BV8HQ2ZZ0HRDAYJLKO04QWCOMD6A1,2,1
71,1,object_03,object_02,921.0,1,1,173.79999999702,0.8888888888888888,1,object_04,1,880,0,8,3,desert_8,1,memory-2step-stake-s,559,1474173,0.0-19.0-0.0-0.71,A3GEYEPOHA33SP,3X4Q1O9UCK2WXV8VOBT8MFKQE0B7O9,3BV8HQ2ZZ0HRDAYJLKO04QWCOMD6A1,1,2
72,2,object_06,object_10,642.39999999851,3,2,97.70000000298,1.0,1,object_04,1,889,0,9,5,forest_4,1,memory-2step-stake-s,560,1482393,0.0-19.0-0.0-0.72,A3GEYEPOHA33SP,3X4Q1O9UCK2WXV8VOBT8MFKQE0B7O9,3BV8HQ2ZZ0HRDAYJLKO04QWCOMD6A1,4,3
73,3,object_08,object_05,616.10000000149,6,2,302.10000000149,0.1111111111111111,2,object_07,5,894,0,5,1,library_4,1,memory-2step-stake-s,561,1490010,0.0-19.0-0.0-0.73,A3GEYEPOHA33SP,3X4Q1O9UCK2WXV8VOBT8MFKQE0B7O9,3BV8HQ2ZZ0HRDAYJLKO04QWCOMD6A1,5,6
74,2,object_06,object_10,835.39999999851,4,1,316.19999999553,0.2222222222222222,2,object_07,1,896,0,5,2,forest_6,1,memory-2step-stake-s,562,1497747,0.0-19.0-0.0-0.74,A3GEYEPOHA33SP,3X4Q1O9UCK2WXV8VOBT8MFKQE0B7O9,3BV8HQ2ZZ0HRDAYJLKO04QWCOMD6A1,4,3
75,1,object_02,object_03,627.10000000149,1,2,61.5,0.8888888888888888,1,object_04,1,904,0,8,1,desert_2,1,memory-2step-stake-s,563,1505831,0.0-19.0-0.0-0.75,A3GEYEPOHA33SP,3X4Q1O9UCK2WXV8VOBT8MFKQE0B7O9,3BV8HQ2ZZ0HRDAYJLKO04QWCOMD6A1,2,1
76,4,object_01,object_09,562.80000000447,8,2,143.69999999553,0.1111111111111111,2,object_07,5,909,0,8,1,restaurant_1,1,memory-2step-stake-s,564,1513287,0.0-19.0-0.0-0.76,A3GEYEPOHA33SP,3X4Q1O9UCK2WXV8VOBT8MFKQE0B7O9,3BV8HQ2ZZ0HRDAYJLKO04QWCOMD6A1,7,8
77,1,object_02,object_03,521.60000000149,1,2,9.5,0.4444444444444444,1,object_04,1,913,0,4,2,desert_2,1,memory-2step-stake-s,565,1520926,0.0-19.0-0.0-0.77,A3GEYEPOHA33SP,3X4Q1O9UCK2WXV8VOBT8MFKQE0B7O9,3BV8HQ2ZZ0HRDAYJLKO04QWCOMD6A1,2,1
78,4,object_01,object_09,601.09999999404,8,2,378.89999999851,0.7777777777777778,2,object_07,5,948,0,2,7,restaurant_8,1,memory-2step-stake-s,566,1529241,0.0-19.0-0.0-0.78,A3GEYEPOHA33SP,3X4Q1O9UCK2WXV8VOBT8MFKQE0B7O9,3BV8HQ2ZZ0HRDAYJLKO04QWCOMD6A1,7,8
79,3,object_05,object_08,839.69999999553,6,1,190.80000000447,0.7777777777777778,2,object_07,5,983,0,4,7,library_4,1,memory-2step-stake-s,567,1537351,0.0-19.0-0.0-0.79,A3GEYEPOHA33SP,3X4Q1O9UCK2WXV8VOBT8MFKQE0B7O9,3BV8HQ2ZZ0HRDAYJLKO04QWCOMD6A1,6,5
80,1,object_02,object_03,532.29999999702,1,2,395.89999999851,0.4444444444444444,1,object_04,1,987,0,4,7,desert_2,1,memory-2step-stake-s,568,1545362,0.0-19.0-0.0-0.80,A3GEYEPOHA33SP,3X4Q1O9UCK2WXV8VOBT8MFKQE0B7O9,3BV8HQ2ZZ0HRDAYJLKO04QWCOMD6A1,2,1
81,3,object_08,object_05,581.5,6,2,95.40000000596,0.8888888888888888,2,object_07,1,995,0,5,8,library_6,1,memory-2step-stake-s,569,1553477,0.0-19.0-0.0-0.81,A3GEYEPOHA33SP,3X4Q1O9UCK2WXV8VOBT8MFKQE0B7O9,3BV8HQ2ZZ0HRDAYJLKO04QWCOMD6A1,5,6
82,4,object_01,object_09,481.79999999702,8,2,173.60000000149,0.7777777777777778,2,object_07,5,1030,0,9,7,restaurant_8,1,memory-2step-stake-s,570,1561571,0.0-19.0-0.0-0.82,A3GEYEPOHA33SP,3X4Q1O9UCK2WXV8VOBT8MFKQE0B7O9,3BV8HQ2ZZ0HRDAYJLKO04QWCOMD6A1,7,8
83,1,object_02,object_03,556.79999999702,1,2,199.59999999404,0.6666666666666666,1,object_04,1,1036,0,6,9,desert_2,1,memory-2step-stake-s,571,1569588,0.0-19.0-0.0-0.83,A3GEYEPOHA33SP,3X4Q1O9UCK2WXV8VOBT8MFKQE0B7O9,3BV8HQ2ZZ0HRDAYJLKO04QWCOMD6A1,2,1
84,4,object_09,object_01,794.60000000149,8,1,103.69999999553,0.3333333333333333,2,object_07,5,1051,0,8,3,restaurant_4,1,memory-2step-stake-s,572,1577206,0.0-19.0-0.0-0.84,A3GEYEPOHA33SP,3X4Q1O9UCK2WXV8VOBT8MFKQE0B7O9,3BV8HQ2ZZ0HRDAYJLKO04QWCOMD6A1,8,7
85,4,object_09,object_01,605.19999999553,7,2,123.59999999404,1.0,1,object_04,5,1096,0,9,4,restaurant_2,1,memory-2step-stake-s,573,1585470,0.0-19.0-0.0-0.85,A3GEYEPOHA33SP,3X4Q1O9UCK2WXV8VOBT8MFKQE0B7O9,3BV8HQ2ZZ0HRDAYJLKO04QWCOMD6A1,8,7
86,4,object_09,object_01,578.19999999553,8,1,424.10000000149,0.3333333333333333,2,object_07,5,1111,0,8,3,restaurant_4,1,memory-2step-stake-s,574,1593409,0.0-19.0-0.0-0.86,A3GEYEPOHA33SP,3X4Q1O9UCK2WXV8VOBT8MFKQE0B7O9,3BV8HQ2ZZ0HRDAYJLKO04QWCOMD6A1,8,7
87,4,object_01,object_09,549.60000000149,8,2,29.20000000298,0.3333333333333333,2,object_07,1,1114,0,9,3,restaurant_2,1,memory-2step-stake-s,575,1600959,0.0-19.0-0.0-0.87,A3GEYEPOHA33SP,3X4Q1O9UCK2WXV8VOBT8MFKQE0B7O9,3BV8HQ2ZZ0HRDAYJLKO04QWCOMD6A1,7,8
88,4,object_09,object_01,762.29999999702,8,1,300.39999999851,0.1111111111111111,2,object_07,1,1115,0,8,1,restaurant_8,1,memory-2step-stake-s,576,1608573,0.0-19.0-0.0-0.88,A3GEYEPOHA33SP,3X4Q1O9UCK2WXV8VOBT8MFKQE0B7O9,3BV8HQ2ZZ0HRDAYJLKO04QWCOMD6A1,8,7
89,2,object_10,object_06,690.79999999702,3,1,277.69999999553,0.8888888888888888,1,object_04,5,1155,0,8,4,forest_3,1,memory-2step-stake-s,577,1616869,0.0-19.0-0.0-0.89,A3GEYEPOHA33SP,3X4Q1O9UCK2WXV8VOBT8MFKQE0B7O9,3BV8HQ2ZZ0HRDAYJLKO04QWCOMD6A1,3,4
90,2,object_06,object_10,617.19999999553,3,2,5.8000000044703,0.7777777777777778,1,object_04,5,1190,0,7,4,forest_7,1,memory-2step-stake-s,578,1624794,0.0-19.0-0.0-0.90,A3GEYEPOHA33SP,3X4Q1O9UCK2WXV8VOBT8MFKQE0B7O9,3BV8HQ2ZZ0HRDAYJLKO04QWCOMD6A1,4,3
91,3,object_08,object_05,652.5,6,2,18.90000000596,0.4444444444444444,2,object_07,5,1210,0,6,4,library_4,1,memory-2step-stake-s,579,1632432,0.0-19.0-0.0-0.91,A3GEYEPOHA33SP,3X4Q1O9UCK2WXV8VOBT8MFKQE0B7O9,3BV8HQ2ZZ0HRDAYJLKO04QWCOMD6A1,5,6
92,1,object_03,object_02,603.09999999404,1,1,3.8000000044703,0.7777777777777778,1,object_04,5,1245,0,7,2,desert_3,1,memory-2step-stake-s,580,1640359,0.0-19.0-0.0-0.92,A3GEYEPOHA33SP,3X4Q1O9UCK2WXV8VOBT8MFKQE0B7O9,3BV8HQ2ZZ0HRDAYJLKO04QWCOMD6A1,1,2
93,2,object_10,object_06,750.69999999553,3,1,259.60000000149,0.5555555555555556,1,object_04,1,1250,0,5,3,forest_7,1,memory-2step-stake-s,581,1648337,0.0-19.0-0.0-0.93,A3GEYEPOHA33SP,3X4Q1O9UCK2WXV8VOBT8MFKQE0B7O9,3BV8HQ2ZZ0HRDAYJLKO04QWCOMD6A1,3,4
94,2,object_06,object_10,554.5,3,2,273.5,0.6666666666666666,1,object_04,1,1256,0,6,2,forest_3,1,memory-2step-stake-s,582,1656437,0.0-19.0-0.0-0.94,A3GEYEPOHA33SP,3X4Q1O9UCK2WXV8VOBT8MFKQE0B7O9,3BV8HQ2ZZ0HRDAYJLKO04QWCOMD6A1,4,3
95,2,object_06,object_10,532.39999999851,3,2,287.5,0.8888888888888888,1,object_04,5,1296,0,8,4,forest_3,1,memory-2step-stake-s,583,1664760,0.0-19.0-0.0-0.95,A3GEYEPOHA33SP,3X4Q1O9UCK2WXV8VOBT8MFKQE0B7O9,3BV8HQ2ZZ0HRDAYJLKO04QWCOMD6A1,4,3
96,3,object_05,object_08,635.70000000298,6,1,291.10000000149,0.3333333333333333,2,object_07,5,1311,0,8,3,library_3,1,memory-2step-stake-s,584,1672569,0.0-19.0-0.0-0.96,A3GEYEPOHA33SP,3X4Q1O9UCK2WXV8VOBT8MFKQE0B7O9,3BV8HQ2ZZ0HRDAYJLKO04QWCOMD6A1,6,5
97,4,object_09,object_01,633.80000000447,8,1,136.10000000149,0.5555555555555556,2,object_07,5,1336,0,9,5,restaurant_8,1,memory-2step-stake-s,585,1680423,0.0-19.0-0.0-0.97,A3GEYEPOHA33SP,3X4Q1O9UCK2WXV8VOBT8MFKQE0B7O9,3BV8HQ2ZZ0HRDAYJLKO04QWCOMD6A1,8,7
98,1,object_02,object_03,518.60000000149,1,2,393.60000000149,0.6666666666666666,1,object_04,1,1342,0,6,2,desert_6,1,memory-2step-stake-s,586,1688641,0.0-19.0-0.0-0.98,A3GEYEPOHA33SP,3X4Q1O9UCK2WXV8VOBT8MFKQE0B7O9,3BV8HQ2ZZ0HRDAYJLKO04QWCOMD6A1,2,1
99,4,object_09,object_01,617.5,8,1,547.90000000596,0.2222222222222222,2,object_07,5,1352,0,5,2,restaurant_1,1,memory-2step-stake-s,587,1696603,0.0-19.0-0.0-0.99,A3GEYEPOHA33SP,3X4Q1O9UCK2WXV8VOBT8MFKQE0B7O9,3BV8HQ2ZZ0HRDAYJLKO04QWCOMD6A1,8,7
100,4,object_09,object_01,547.39999999851,8,1,285.39999999851,0.0,2,object_07,5,1352,0,4,0,restaurant_8,1,memory-2step-stake-s,588,1704103,0.0-19.0-0.0-0.100,A3GEYEPOHA33SP,3X4Q1O9UCK2WXV8VOBT8MFKQE0B7O9,3BV8HQ2ZZ0HRDAYJLKO04QWCOMD6A1,8,7
101,1,object_02,object_03,533.69999999553,1,2,124.59999999404,0.6666666666666666,1,object_04,5,1382,0,6,1,desert_2,1,memory-2step-stake-s,589,1712048,0.0-19.0-0.0-0.101,A3GEYEPOHA33SP,3X4Q1O9UCK2WXV8VOBT8MFKQE0B7O9,3BV8HQ2ZZ0HRDAYJLKO04QWCOMD6A1,2,1
102,1,object_02,object_03,438.10000000149,1,2,267.59999999404,1.0,1,object_04,1,1391,0,9,5,desert_2,1,memory-2step-stake-s,590,1720441,0.0-19.0-0.0-0.102,A3GEYEPOHA33SP,3X4Q1O9UCK2WXV8VOBT8MFKQE0B7O9,3BV8HQ2ZZ0HRDAYJLKO04QWCOMD6A1,2,1
103,2,object_06,object_10,723.59999999404,3,2,434.70000000298,1.0,1,object_04,1,1400,0,9,5,forest_6,1,memory-2step-stake-s,591,1729001,0.0-19.0-0.0-0.103,A3GEYEPOHA33SP,3X4Q1O9UCK2WXV8VOBT8MFKQE0B7O9,3BV8HQ2ZZ0HRDAYJLKO04QWCOMD6A1,4,3
104,3,object_05,object_08,715.0,6,1,277.10000000149,0.7777777777777778,2,object_07,5,1435,0,8,7,library_3,1,memory-2step-stake-s,592,1737196,0.0-19.0-0.0-0.104,A3GEYEPOHA33SP,3X4Q1O9UCK2WXV8VOBT8MFKQE0B7O9,3BV8HQ2ZZ0HRDAYJLKO04QWCOMD6A1,6,5
105,1,object_03,object_02,588.20000000298,1,1,461.19999999553,1.0,1,object_04,1,1444,0,9,9,desert_6,1,memory-2step-stake-s,593,1745791,0.0-19.0-0.0-0.105,A3GEYEPOHA33SP,3X4Q1O9UCK2WXV8VOBT8MFKQE0B7O9,3BV8HQ2ZZ0HRDAYJLKO04QWCOMD6A1,1,2
106,1,object_02,object_03,447.29999999702,1,2,278.59999999404,0.5555555555555556,1,object_04,1,1449,0,5,8,desert_3,1,memory-2step-stake-s,594,1753784,0.0-19.0-0.0-0.106,A3GEYEPOHA33SP,3X4Q1O9UCK2WXV8VOBT8MFKQE0B7O9,3BV8HQ2ZZ0HRDAYJLKO04QWCOMD6A1,2,1
107,2,object_10,object_06,627.60000000149,3,1,213.0,0.7777777777777778,1,object_04,1,1456,0,7,4,forest_6,1,memory-2step-stake-s,595,1761930,0.0-19.0-0.0-0.107,A3GEYEPOHA33SP,3X4Q1O9UCK2WXV8VOBT8MFKQE0B7O9,3BV8HQ2ZZ0HRDAYJLKO04QWCOMD6A1,3,4
108,3,object_05,object_08,611.0,6,1,686.60000000149,0.5555555555555556,2,object_07,1,1461,0,8,5,library_2,1,memory-2step-stake-s,596,1770339,0.0-19.0-0.0-0.108,A3GEYEPOHA33SP,3X4Q1O9UCK2WXV8VOBT8MFKQE0B7O9,3BV8HQ2ZZ0HRDAYJLKO04QWCOMD6A1,6,5
109,2,object_10,object_06,690.20000000298,3,1,452.5,1.0,1,object_04,1,1470,0,9,6,forest_7,1,memory-2step-stake-s,597,1778924,0.0-19.0-0.0-0.109,A3GEYEPOHA33SP,3X4Q1O9UCK2WXV8VOBT8MFKQE0B7O9,3BV8HQ2ZZ0HRDAYJLKO04QWCOMD6A1,3,4
110,1,object_02,object_03,643.10000000149,1,2,99.60000000149,0.7777777777777778,1,object_04,5,1505,0,7,4,desert_2,1,memory-2step-stake-s,598,1786942,0.0-19.0-0.0-0.110,A3GEYEPOHA33SP,3X4Q1O9UCK2WXV8VOBT8MFKQE0B7O9,3BV8HQ2ZZ0HRDAYJLKO04QWCOMD6A1,2,1
111,1,object_02,object_03,499.5,1,2,406.30000000447,0.3333333333333333,1,object_04,5,1520,0,3,5,desert_6,1,memory-2step-stake-s,599,1794872,0.0-19.0-0.0-0.111,A3GEYEPOHA33SP,3X4Q1O9UCK2WXV8VOBT8MFKQE0B7O9,3BV8HQ2ZZ0HRDAYJLKO04QWCOMD6A1,2,1
112,2,object_10,object_06,597.20000000298,3,1,381.39999999851,0.2222222222222222,1,object_04,1,1522,0,2,8,forest_4,1,memory-2step-stake-s,600,1802670,0.0-19.0-0.0-0.112,A3GEYEPOHA33SP,3X4Q1O9UCK2WXV8VOBT8MFKQE0B7O9,3BV8HQ2ZZ0HRDAYJLKO04QWCOMD6A1,3,4
113,4,object_01,object_09,619.0,8,2,266.89999999851,0.5555555555555556,2,object_07,5,1547,0,2,5,restaurant_4,1,memory-2step-stake-s,601,1810656,0.0-19.0-0.0-0.113,A3GEYEPOHA33SP,3X4Q1O9UCK2WXV8VOBT8MFKQE0B7O9,3BV8HQ2ZZ0HRDAYJLKO04QWCOMD6A1,7,8
114,3,object_08,object_05,605.20000000298,6,2,398.19999999553,0.2222222222222222,2,object_07,5,1557,0,3,2,library_4,1,memory-2step-stake-s,602,1818469,0.0-19.0-0.0-0.114,A3GEYEPOHA33SP,3X4Q1O9UCK2WXV8VOBT8MFKQE0B7O9,3BV8HQ2ZZ0HRDAYJLKO04QWCOMD6A1,5,6
115,3,object_05,object_08,572.10000000149,6,1,540.10000000149,0.0,2,object_07,1,1557,0,2,0,library_2,1,memory-2step-stake-s,603,1826223,0.0-19.0-0.0-0.115,A3GEYEPOHA33SP,3X4Q1O9UCK2WXV8VOBT8MFKQE0B7O9,3BV8HQ2ZZ0HRDAYJLKO04QWCOMD6A1,6,5
116,1,object_03,object_02,563.5,1,1,407.0,0.5555555555555556,1,object_04,5,1582,0,5,2,desert_6,1,memory-2step-stake-s,604,1834350,0.0-19.0-0.0-0.116,A3GEYEPOHA33SP,3X4Q1O9UCK2WXV8VOBT8MFKQE0B7O9,3BV8HQ2ZZ0HRDAYJLKO04QWCOMD6A1,1,2
117,2,object_06,object_10,540.0,3,2,265.10000000149,0.1111111111111111,1,object_04,1,1583,0,1,1,forest_6,1,memory-2step-stake-s,605,1841931,0.0-19.0-0.0-0.117,A3GEYEPOHA33SP,3X4Q1O9UCK2WXV8VOBT8MFKQE0B7O9,3BV8HQ2ZZ0HRDAYJLKO04QWCOMD6A1,4,3
118,4,object_01,object_09,512.5,8,2,339.60000000149,0.4444444444444444,2,object_07,1,1587,0,2,4,restaurant_1,1,memory-2step-stake-s,606,1849885,0.0-19.0-0.0-0.118,A3GEYEPOHA33SP,3X4Q1O9UCK2WXV8VOBT8MFKQE0B7O9,3BV8HQ2ZZ0HRDAYJLKO04QWCOMD6A1,7,8
119,3,object_08,object_05,579.69999999553,6,2,59.0,0.8888888888888888,2,object_07,1,1595,0,0,8,library_2,1,memory-2step-stake-s,607,1857978,0.0-19.0-0.0-0.119,A3GEYEPOHA33SP,3X4Q1O9UCK2WXV8VOBT8MFKQE0B7O9,3BV8HQ2ZZ0HRDAYJLKO04QWCOMD6A1,5,6
120,2,object_06,object_10,532.89999999851,3,2,325.70000000298,0.2222222222222222,1,object_04,1,1597,0,2,8,forest_4,1,memory-2step-stake-s,608,1865721,0.0-19.0-0.0-0.120,A3GEYEPOHA33SP,3X4Q1O9UCK2WXV8VOBT8MFKQE0B7O9,3BV8HQ2ZZ0HRDAYJLKO04QWCOMD6A1,4,3
121,1,object_03,object_02,570.29999999702,1,1,268.70000000298,0.0,1,object_04,5,1597,0,0,8,desert_8,1,memory-2step-stake-s,609,1873203,0.0-19.0-0.0-0.121,A3GEYEPOHA33SP,3X4Q1O9UCK2WXV8VOBT8MFKQE0B7O9,3BV8HQ2ZZ0HRDAYJLKO04QWCOMD6A1,1,2
122,1,object_02,object_03,496.20000000298,1,2,135.09999999404,0.1111111111111111,1,object_04,1,1598,0,1,6,desert_3,1,memory-2step-stake-s,610,1880653,0.0-19.0-0.0-0.122,A3GEYEPOHA33SP,3X4Q1O9UCK2WXV8VOBT8MFKQE0B7O9,3BV8HQ2ZZ0HRDAYJLKO04QWCOMD6A1,2,1
123,1,object_03,object_02,906.29999999702,2,2,371.89999999851,0.5555555555555556,2,object_07,1,1603,0,4,5,desert_8,1,memory-2step-stake-s,611,1888745,0.0-19.0-0.0-0.123,A3GEYEPOHA33SP,3X4Q1O9UCK2WXV8VOBT8MFKQE0B7O9,3BV8HQ2ZZ0HRDAYJLKO04QWCOMD6A1,1,2
124,4,object_09,object_01,986.89999999851,7,2,364.20000000298,0.0,1,object_04,5,1603,0,0,9,restaurant_8,1,memory-2step-stake-s,612,1896324,0.0-19.0-0.0-0.124,A3GEYEPOHA33SP,3X4Q1O9UCK2WXV8VOBT8MFKQE0B7O9,3BV8HQ2ZZ0HRDAYJLKO04QWCOMD6A1,8,7
125,4,object_01,object_09,852.29999999702,8,2,386.5,0.5555555555555556,2,object_07,1,1608,0,1,5,restaurant_8,1,memory-2step-stake-s,613,1904449,0.0-19.0-0.0-0.125,A3GEYEPOHA33SP,3X4Q1O9UCK2WXV8VOBT8MFKQE0B7O9,3BV8HQ2ZZ0HRDAYJLKO04QWCOMD6A1,7,8
126,1,object_03,object_02,622.20000000298,1,1,578.80000000447,0.4444444444444444,1,object_04,5,1628,0,4,4,desert_8,1,memory-2step-stake-s,614,1912647,0.0-19.0-0.0-0.126,A3GEYEPOHA33SP,3X4Q1O9UCK2WXV8VOBT8MFKQE0B7O9,3BV8HQ2ZZ0HRDAYJLKO04QWCOMD6A1,1,2
127,4,object_01,object_09,532.39999999851,8,2,184.89999999851,0.3333333333333333,2,object_07,5,1643,0,5,3,restaurant_1,1,memory-2step-stake-s,615,1920348,0.0-19.0-0.0-0.127,A3GEYEPOHA33SP,3X4Q1O9UCK2WXV8VOBT8MFKQE0B7O9,3BV8HQ2ZZ0HRDAYJLKO04QWCOMD6A1,7,8
128,2,object_06,object_10,730.39999999851,3,2,411.60000000149,0.5555555555555556,1,object_04,1,1648,0,5,1,forest_7,1,memory-2step-stake-s,617,2025862,0.0-19.0-0.1-0.128,A3GEYEPOHA33SP,3X4Q1O9UCK2WXV8VOBT8MFKQE0B7O9,3BV8HQ2ZZ0HRDAYJLKO04QWCOMD6A1,4,3
129,2,object_06,object_10,660.20000000298,4,1,407.20000000298,0.3333333333333333,2,object_07,1,1651,0,6,3,forest_4,1,memory-2step-stake-s,618,2033789,0.0-19.0-0.1-0.129,A3GEYEPOHA33SP,3X4Q1O9UCK2WXV8VOBT8MFKQE0B7O9,3BV8HQ2ZZ0HRDAYJLKO04QWCOMD6A1,4,3
130,1,object_02,object_03,395.5,1,2,338.0,0.4444444444444444,1,object_04,5,1671,0,4,2,desert_8,1,memory-2step-stake-s,619,2041744,0.0-19.0-0.1-0.130,A3GEYEPOHA33SP,3X4Q1O9UCK2WXV8VOBT8MFKQE0B7O9,3BV8HQ2ZZ0HRDAYJLKO04QWCOMD6A1,2,1
131,3,object_08,object_05,670.10000000149,6,2,338.5,0.6666666666666666,2,object_07,5,1701,0,3,6,library_3,1,memory-2step-stake-s,620,2049908,0.0-19.0-0.1-0.131,A3GEYEPOHA33SP,3X4Q1O9UCK2WXV8VOBT8MFKQE0B7O9,3BV8HQ2ZZ0HRDAYJLKO04QWCOMD6A1,5,6
132,1,object_02,object_03,601.70000000298,1,2,185.59999999404,0.2222222222222222,1,object_04,1,1703,0,2,5,desert_2,1,memory-2step-stake-s,621,2057520,0.0-19.0-0.1-0.132,A3GEYEPOHA33SP,3X4Q1O9UCK2WXV8VOBT8MFKQE0B7O9,3BV8HQ2ZZ0HRDAYJLKO04QWCOMD6A1,2,1
133,3,object_08,object_05,819.89999999851,5,1,43.19999999553,0.1111111111111111,1,object_04,1,1704,0,1,4,library_3,1,memory-2step-stake-s,622,2064880,0.0-19.0-0.1-0.133,A3GEYEPOHA33SP,3X4Q1O9UCK2WXV8VOBT8MFKQE0B7O9,3BV8HQ2ZZ0HRDAYJLKO04QWCOMD6A1,5,6
134,3,object_05,object_08,788.39999999851,6,1,277.59999999404,0.4444444444444444,2,object_07,5,1724,0,2,4,library_3,1,memory-2step-stake-s,623,2072776,0.0-19.0-0.1-0.134,A3GEYEPOHA33SP,3X4Q1O9UCK2WXV8VOBT8MFKQE0B7O9,3BV8HQ2ZZ0HRDAYJLKO04QWCOMD6A1,6,5
135,2,object_06,object_10,631.79999999702,3,2,157.89999999851,0.2222222222222222,1,object_04,1,1726,0,2,6,forest_6,1,memory-2step-stake-s,624,2080349,0.0-19.0-0.1-0.135,A3GEYEPOHA33SP,3X4Q1O9UCK2WXV8VOBT8MFKQE0B7O9,3BV8HQ2ZZ0HRDAYJLKO04QWCOMD6A1,4,3
136,2,object_06,object_10,760.60000000149,4,1,296.90000000596,0.3333333333333333,2,object_07,1,1729,0,2,3,forest_3,1,memory-2step-stake-s,625,2088162,0.0-19.0-0.1-0.136,A3GEYEPOHA33SP,3X4Q1O9UCK2WXV8VOBT8MFKQE0B7O9,3BV8HQ2ZZ0HRDAYJLKO04QWCOMD6A1,4,3
137,3,object_05,object_08,637.20000000298,6,1,291.70000000298,0.4444444444444444,2,object_07,5,1749,0,4,4,library_2,1,memory-2step-stake-s,626,2096070,0.0-19.0-0.1-0.137,A3GEYEPOHA33SP,3X4Q1O9UCK2WXV8VOBT8MFKQE0B7O9,3BV8HQ2ZZ0HRDAYJLKO04QWCOMD6A1,6,5
138,4,object_09,object_01,735.5,8,1,221.60000000149,0.4444444444444444,2,object_07,5,1769,0,5,4,restaurant_4,1,memory-2step-stake-s,627,2103921,0.0-19.0-0.1-0.138,A3GEYEPOHA33SP,3X4Q1O9UCK2WXV8VOBT8MFKQE0B7O9,3BV8HQ2ZZ0HRDAYJLKO04QWCOMD6A1,8,7
139,4,object_01,object_09,872.20000000298,7,1,571.79999999702,0.7777777777777778,1,object_04,1,1776,0,7,4,restaurant_1,1,memory-2step-stake-s,628,2112425,0.0-19.0-0.1-0.139,A3GEYEPOHA33SP,3X4Q1O9UCK2WXV8VOBT8MFKQE0B7O9,3BV8HQ2ZZ0HRDAYJLKO04QWCOMD6A1,7,8
140,4,object_09,object_01,591.20000000298,7,2,342.39999999851,0.8888888888888888,1,object_04,5,1816,0,8,6,restaurant_8,1,memory-2step-stake-s,629,2120805,0.0-19.0-0.1-0.140,A3GEYEPOHA33SP,3X4Q1O9UCK2WXV8VOBT8MFKQE0B7O9,3BV8HQ2ZZ0HRDAYJLKO04QWCOMD6A1,8,7
141,4,object_09,object_01,538.79999999702,8,1,231.39999999851,0.5555555555555556,2,object_07,5,1841,0,9,5,restaurant_4,1,memory-2step-stake-s,630,2128782,0.0-19.0-0.1-0.141,A3GEYEPOHA33SP,3X4Q1O9UCK2WXV8VOBT8MFKQE0B7O9,3BV8HQ2ZZ0HRDAYJLKO04QWCOMD6A1,8,7
142,1,object_02,object_03,540.70000000298,1,2,319.5,1.0,1,object_04,1,1850,0,9,5,desert_8,1,memory-2step-stake-s,631,2137234,0.0-19.0-0.1-0.142,A3GEYEPOHA33SP,3X4Q1O9UCK2WXV8VOBT8MFKQE0B7O9,3BV8HQ2ZZ0HRDAYJLKO04QWCOMD6A1,2,1
143,3,object_05,object_08,610.30000000447,6,1,755.10000000149,0.4444444444444444,2,object_07,1,1854,0,7,4,library_6,1,memory-2step-stake-s,632,2145608,0.0-19.0-0.1-0.143,A3GEYEPOHA33SP,3X4Q1O9UCK2WXV8VOBT8MFKQE0B7O9,3BV8HQ2ZZ0HRDAYJLKO04QWCOMD6A1,6,5
144,3,object_08,object_05,447.40000000596,6,2,349.89999999851,0.2222222222222222,2,object_07,1,1856,0,6,2,library_4,1,memory-2step-stake-s,633,2153374,0.0-19.0-0.1-0.144,A3GEYEPOHA33SP,3X4Q1O9UCK2WXV8VOBT8MFKQE0B7O9,3BV8HQ2ZZ0HRDAYJLKO04QWCOMD6A1,5,6
145,2,object_10,object_06,743.89999999851,4,2,669.89999999851,0.1111111111111111,2,object_07,1,1857,0,8,1,forest_4,1,memory-2step-stake-s,634,2161360,0.0-19.0-0.1-0.145,A3GEYEPOHA33SP,3X4Q1O9UCK2WXV8VOBT8MFKQE0B7O9,3BV8HQ2ZZ0HRDAYJLKO04QWCOMD6A1,3,4
146,2,object_10,object_06,630.79999999702,3,1,382.79999999702,1.0,1,object_04,1,1866,0,9,2,forest_4,1,memory-2step-stake-s,635,2169869,0.0-19.0-0.1-0.146,A3GEYEPOHA33SP,3X4Q1O9UCK2WXV8VOBT8MFKQE0B7O9,3BV8HQ2ZZ0HRDAYJLKO04QWCOMD6A1,3,4
147,3,object_05,object_08,620.80000000447,6,1,138.80000000447,0.3333333333333333,2,object_07,5,1881,0,9,3,library_6,1,memory-2step-stake-s,636,2177536,0.0-19.0-0.1-0.147,A3GEYEPOHA33SP,3X4Q1O9UCK2WXV8VOBT8MFKQE0B7O9,3BV8HQ2ZZ0HRDAYJLKO04QWCOMD6A1,6,5
148,1,object_03,object_02,614.60000000149,1,1,523.0,0.5555555555555556,1,object_04,1,1886,0,5,4,desert_3,1,memory-2step-stake-s,637,2185790,0.0-19.0-0.1-0.148,A3GEYEPOHA33SP,3X4Q1O9UCK2WXV8VOBT8MFKQE0B7O9,3BV8HQ2ZZ0HRDAYJLKO04QWCOMD6A1,1,2
149,3,object_05,object_08,763.19999999553,6,1,414.0,0.7777777777777778,2,object_07,5,1921,0,8,7,library_6,1,memory-2step-stake-s,638,2194137,0.0-19.0-0.1-0.149,A3GEYEPOHA33SP,3X4Q1O9UCK2WXV8VOBT8MFKQE0B7O9,3BV8HQ2ZZ0HRDAYJLKO04QWCOMD6A1,6,5
150,1,object_03,object_02,581.60000000149,1,1,606.09999999404,0.6666666666666666,1,object_04,1,1927,0,6,8,desert_8,1,memory-2step-stake-s,639,2202564,0.0-19.0-0.1-0.150,A3GEYEPOHA33SP,3X4Q1O9UCK2WXV8VOBT8MFKQE0B7O9,3BV8HQ2ZZ0HRDAYJLKO04QWCOMD6A1,1,2
151,3,object_05,object_08,842.70000000298,6,1,480.5,0.8888888888888888,2,object_07,5,1967,0,5,8,library_4,1,memory-2step-stake-s,640,2211067,0.0-19.0-0.1-0.151,A3GEYEPOHA33SP,3X4Q1O9UCK2WXV8VOBT8MFKQE0B7O9,3BV8HQ2ZZ0HRDAYJLKO04QWCOMD6A1,6,5
152,3,object_05,object_08,724.20000000298,6,1,310.80000000447,1.0,2,object_07,1,1976,0,4,9,library_2,1,memory-2step-stake-s,641,2219501,0.0-19.0-0.1-0.152,A3GEYEPOHA33SP,3X4Q1O9UCK2WXV8VOBT8MFKQE0B7O9,3BV8HQ2ZZ0HRDAYJLKO04QWCOMD6A1,6,5
153,2,object_10,object_06,794.5,3,1,0.60000000149012,0.3333333333333333,1,object_04,5,1991,0,3,8,forest_7,1,memory-2step-stake-s,642,2227033,0.0-19.0-0.1-0.153,A3GEYEPOHA33SP,3X4Q1O9UCK2WXV8VOBT8MFKQE0B7O9,3BV8HQ2ZZ0HRDAYJLKO04QWCOMD6A1,3,4
154,4,object_01,object_09,741.10000000149,7,1,358.19999999553,0.6666666666666666,1,object_04,1,1997,0,6,9,restaurant_1,1,memory-2step-stake-s,643,2235229,0.0-19.0-0.1-0.154,A3GEYEPOHA33SP,3X4Q1O9UCK2WXV8VOBT8MFKQE0B7O9,3BV8HQ2ZZ0HRDAYJLKO04QWCOMD6A1,7,8
155,4,object_09,object_01,581.80000000447,7,2,237.60000000149,0.8888888888888888,1,object_04,5,2037,0,8,8,restaurant_1,1,memory-2step-stake-s,644,2243493,0.0-19.0-0.1-0.155,A3GEYEPOHA33SP,3X4Q1O9UCK2WXV8VOBT8MFKQE0B7O9,3BV8HQ2ZZ0HRDAYJLKO04QWCOMD6A1,8,7
156,1,object_02,object_03,546.89999999851,1,2,520.60000000149,0.7777777777777778,1,object_04,5,2072,0,7,7,desert_3,1,memory-2step-stake-s,645,2251950,0.0-19.0-0.1-0.156,A3GEYEPOHA33SP,3X4Q1O9UCK2WXV8VOBT8MFKQE0B7O9,3BV8HQ2ZZ0HRDAYJLKO04QWCOMD6A1,2,1
157,1,object_02,object_03,550.69999999553,2,1,379.5,0.7777777777777778,2,object_07,1,2079,0,6,7,desert_6,1,memory-2step-stake-s,646,2260257,0.0-19.0-0.1-0.157,A3GEYEPOHA33SP,3X4Q1O9UCK2WXV8VOBT8MFKQE0B7O9,3BV8HQ2ZZ0HRDAYJLKO04QWCOMD6A1,2,1
158,3,object_05,object_08,580.39999999851,6,1,206.80000000447,0.8888888888888888,2,object_07,5,2119,0,8,8,library_3,1,memory-2step-stake-s,647,2268491,0.0-19.0-0.1-0.158,A3GEYEPOHA33SP,3X4Q1O9UCK2WXV8VOBT8MFKQE0B7O9,3BV8HQ2ZZ0HRDAYJLKO04QWCOMD6A1,6,5
159,4,object_01,object_09,481.60000000149,8,2,243.69999999553,0.7777777777777778,2,object_07,5,2154,0,8,7,restaurant_1,1,memory-2step-stake-s,648,2276656,0.0-19.0-0.1-0.159,A3GEYEPOHA33SP,3X4Q1O9UCK2WXV8VOBT8MFKQE0B7O9,3BV8HQ2ZZ0HRDAYJLKO04QWCOMD6A1,7,8
160,3,object_05,object_08,783.0,5,2,417.10000000149,0.8888888888888888,1,object_04,1,2162,0,8,7,library_3,1,memory-2step-stake-s,649,2285101,0.0-19.0-0.1-0.160,A3GEYEPOHA33SP,3X4Q1O9UCK2WXV8VOBT8MFKQE0B7O9,3BV8HQ2ZZ0HRDAYJLKO04QWCOMD6A1,6,5
161,3,object_05,object_08,696.89999999851,6,1,206.5,0.8888888888888888,2,object_07,5,2202,0,7,8,library_3,1,memory-2step-stake-s,650,2293332,0.0-19.0-0.1-0.161,A3GEYEPOHA33SP,3X4Q1O9UCK2WXV8VOBT8MFKQE0B7O9,3BV8HQ2ZZ0HRDAYJLKO04QWCOMD6A1,6,5
162,2,object_10,object_06,596.30000000447,4,2,582.0,0.4444444444444444,2,object_07,5,2222,0,8,4,forest_7,1,memory-2step-stake-s,651,2301541,0.0-19.0-0.1-0.162,A3GEYEPOHA33SP,3X4Q1O9UCK2WXV8VOBT8MFKQE0B7O9,3BV8HQ2ZZ0HRDAYJLKO04QWCOMD6A1,3,4
163,1,object_02,object_03,817.39999999851,1,2,492.59999999404,1.0,1,object_04,5,2267,0,9,4,desert_2,1,memory-2step-stake-s,652,2310159,0.0-19.0-0.1-0.163,A3GEYEPOHA33SP,3X4Q1O9UCK2WXV8VOBT8MFKQE0B7O9,3BV8HQ2ZZ0HRDAYJLKO04QWCOMD6A1,2,1
164,2,object_06,object_10,671.5,4,1,485.79999999702,0.7777777777777778,2,object_07,1,2274,0,6,7,forest_6,1,memory-2step-stake-s,653,2318566,0.0-19.0-0.1-0.164,A3GEYEPOHA33SP,3X4Q1O9UCK2WXV8VOBT8MFKQE0B7O9,3BV8HQ2ZZ0HRDAYJLKO04QWCOMD6A1,4,3
165,2,object_10,object_06,594.19999999553,4,2,535.69999999553,0.6666666666666666,2,object_07,1,2280,0,6,6,forest_6,1,memory-2step-stake-s,654,2326923,0.0-19.0-0.1-0.165,A3GEYEPOHA33SP,3X4Q1O9UCK2WXV8VOBT8MFKQE0B7O9,3BV8HQ2ZZ0HRDAYJLKO04QWCOMD6A1,3,4
166,3,object_08,object_05,746.19999999553,6,2,408.39999999851,1.0,2,object_07,5,2325,0,4,9,library_6,1,memory-2step-stake-s,655,2335455,0.0-19.0-0.1-0.166,A3GEYEPOHA33SP,3X4Q1O9UCK2WXV8VOBT8MFKQE0B7O9,3BV8HQ2ZZ0HRDAYJLKO04QWCOMD6A1,5,6
167,4,object_09,object_01,715.5,8,1,158.80000000447,1.0,2,object_07,5,2370,0,7,9,restaurant_8,1,memory-2step-stake-s,656,2343744,0.0-19.0-0.1-0.167,A3GEYEPOHA33SP,3X4Q1O9UCK2WXV8VOBT8MFKQE0B7O9,3BV8HQ2ZZ0HRDAYJLKO04QWCOMD6A1,8,7
168,3,object_08,object_05,690.60000000149,6,2,538.5,1.0,2,object_07,5,2415,0,9,9,library_6,1,memory-2step-stake-s,657,2352434,0.0-19.0-0.1-0.168,A3GEYEPOHA33SP,3X4Q1O9UCK2WXV8VOBT8MFKQE0B7O9,3BV8HQ2ZZ0HRDAYJLKO04QWCOMD6A1,5,6
169,4,object_01,object_09,609.30000000447,8,2,330.20000000298,1.0,2,object_07,5,2460,0,8,9,restaurant_1,1,memory-2step-stake-s,658,2360887,0.0-19.0-0.1-0.169,A3GEYEPOHA33SP,3X4Q1O9UCK2WXV8VOBT8MFKQE0B7O9,3BV8HQ2ZZ0HRDAYJLKO04QWCOMD6A1,7,8
170,4,object_01,object_09,922.30000000447,7,1,515.80000000447,0.6666666666666666,1,object_04,1,2466,0,6,7,restaurant_1,1,memory-2step-stake-s,659,2369225,0.0-19.0-0.1-0.170,A3GEYEPOHA33SP,3X4Q1O9UCK2WXV8VOBT8MFKQE0B7O9,3BV8HQ2ZZ0HRDAYJLKO04QWCOMD6A1,7,8
171,3,object_05,object_08,570.0,6,1,412.60000000149,0.5555555555555556,2,object_07,5,2491,0,5,5,library_6,1,memory-2step-stake-s,660,2377372,0.0-19.0-0.1-0.171,A3GEYEPOHA33SP,3X4Q1O9UCK2WXV8VOBT8MFKQE0B7O9,3BV8HQ2ZZ0HRDAYJLKO04QWCOMD6A1,6,5
172,2,object_06,object_10,299.10000000149,3,2,337.90000000596,0.4444444444444444,1,object_04,5,2511,0,4,8,forest_3,1,memory-2step-stake-s,661,2385339,0.0-19.0-0.1-0.172,A3GEYEPOHA33SP,3X4Q1O9UCK2WXV8VOBT8MFKQE0B7O9,3BV8HQ2ZZ0HRDAYJLKO04QWCOMD6A1,4,3
173,1,object_03,object_02,318.10000000149,1,1,316.0,0.3333333333333333,1,object_04,1,2514,0,3,9,desert_3,1,memory-2step-stake-s,662,2393190,0.0-19.0-0.1-0.173,A3GEYEPOHA33SP,3X4Q1O9UCK2WXV8VOBT8MFKQE0B7O9,3BV8HQ2ZZ0HRDAYJLKO04QWCOMD6A1,1,2
174,2,object_10,object_06,429.20000000298,4,2,250.79999999702,0.7777777777777778,2,object_07,5,2549,0,1,7,forest_6,1,memory-2step-stake-s,663,2401363,0.0-19.0-0.1-0.174,A3GEYEPOHA33SP,3X4Q1O9UCK2WXV8VOBT8MFKQE0B7O9,3BV8HQ2ZZ0HRDAYJLKO04QWCOMD6A1,3,4
175,2,object_10,object_06,556.39999999851,3,1,439.79999999702,0.1111111111111111,1,object_04,5,2554,0,1,7,forest_6,1,memory-2step-stake-s,664,2409151,0.0-19.0-0.1-0.175,A3GEYEPOHA33SP,3X4Q1O9UCK2WXV8VOBT8MFKQE0B7O9,3BV8HQ2ZZ0HRDAYJLKO04QWCOMD6A1,3,4
176,2,object_10,object_06,407.5,4,2,149.39999999851,0.6666666666666666,2,object_07,1,2560,0,3,6,forest_7,1,memory-2step-stake-s,665,2417138,0.0-19.0-0.1-0.176,A3GEYEPOHA33SP,3X4Q1O9UCK2WXV8VOBT8MFKQE0B7O9,3BV8HQ2ZZ0HRDAYJLKO04QWCOMD6A1,3,4
177,4,object_01,object_09,627.59999999404,8,2,125.5,0.3333333333333333,2,object_07,5,2575,0,2,3,restaurant_2,1,memory-2step-stake-s,666,2424779,0.0-19.0-0.1-0.177,A3GEYEPOHA33SP,3X4Q1O9UCK2WXV8VOBT8MFKQE0B7O9,3BV8HQ2ZZ0HRDAYJLKO04QWCOMD6A1,7,8
178,3,object_08,object_05,597.10000000149,5,1,55.10000000149,0.1111111111111111,1,object_04,5,2580,0,1,2,library_6,1,memory-2step-stake-s,667,2432152,0.0-19.0-0.1-0.178,A3GEYEPOHA33SP,3X4Q1O9UCK2WXV8VOBT8MFKQE0B7O9,3BV8HQ2ZZ0HRDAYJLKO04QWCOMD6A1,5,6
179,4,object_09,object_01,1207.0,8,1,414.30000000447,0.3333333333333333,2,object_07,1,2583,0,2,3,restaurant_2,1,memory-2step-stake-s,668,2440085,0.0-19.0-0.1-0.179,A3GEYEPOHA33SP,3X4Q1O9UCK2WXV8VOBT8MFKQE0B7O9,3BV8HQ2ZZ0HRDAYJLKO04QWCOMD6A1,8,7
180,1,object_02,object_03,571.10000000149,1,2,316.5,0.3333333333333333,1,object_04,5,2598,0,3,5,desert_3,1,memory-2step-stake-s,669,2447926,0.0-19.0-0.1-0.180,A3GEYEPOHA33SP,3X4Q1O9UCK2WXV8VOBT8MFKQE0B7O9,3BV8HQ2ZZ0HRDAYJLKO04QWCOMD6A1,2,1
181,1,object_02,object_03,762.20000000298,2,1,275.60000000149,0.0,2,object_07,1,2598,0,6,0,desert_6,1,memory-2step-stake-s,670,2455417,0.0-19.0-0.1-0.181,A3GEYEPOHA33SP,3X4Q1O9UCK2WXV8VOBT8MFKQE0B7O9,3BV8HQ2ZZ0HRDAYJLKO04QWCOMD6A1,2,1
182,2,object_06,object_10,1020.3000000045,4,1,407.39999999851,0.0,2,object_07,1,2598,0,5,0,forest_6,1,memory-2step-stake-s,671,2463037,0.0-19.0-0.1-0.182,A3GEYEPOHA33SP,3X4Q1O9UCK2WXV8VOBT8MFKQE0B7O9,3BV8HQ2ZZ0HRDAYJLKO04QWCOMD6A1,4,3
183,4,object_01,object_09,798.60000000149,8,2,155.5,0.1111111111111111,2,object_07,5,2603,0,6,1,restaurant_8,1,memory-2step-stake-s,672,2470507,0.0-19.0-0.1-0.183,A3GEYEPOHA33SP,3X4Q1O9UCK2WXV8VOBT8MFKQE0B7O9,3BV8HQ2ZZ0HRDAYJLKO04QWCOMD6A1,7,8
184,4,object_01,object_09,851.70000000298,7,1,45.29999999702,0.5555555555555556,1,object_04,5,2628,0,5,1,restaurant_4,1,memory-2step-stake-s,673,2478274,0.0-19.0-0.1-0.184,A3GEYEPOHA33SP,3X4Q1O9UCK2WXV8VOBT8MFKQE0B7O9,3BV8HQ2ZZ0HRDAYJLKO04QWCOMD6A1,7,8
185,1,object_02,object_03,675.89999999851,1,2,66.39999999851,0.5555555555555556,1,object_04,5,2653,0,5,1,desert_8,1,memory-2step-stake-s,674,2486071,0.0-19.0-0.1-0.185,A3GEYEPOHA33SP,3X4Q1O9UCK2WXV8VOBT8MFKQE0B7O9,3BV8HQ2ZZ0HRDAYJLKO04QWCOMD6A1,2,1
186,4,object_09,object_01,1212.6999999955,7,2,347.89999999851,0.5555555555555556,1,object_04,1,2658,0,5,0,restaurant_1,1,memory-2step-stake-s,675,2494153,0.0-19.0-0.1-0.186,A3GEYEPOHA33SP,3X4Q1O9UCK2WXV8VOBT8MFKQE0B7O9,3BV8HQ2ZZ0HRDAYJLKO04QWCOMD6A1,8,7
187,2,object_06,object_10,1004.599999994,3,2,516.5,0.6666666666666666,1,object_04,1,2664,0,6,0,forest_7,1,memory-2step-stake-s,676,2502504,0.0-19.0-0.1-0.187,A3GEYEPOHA33SP,3X4Q1O9UCK2WXV8VOBT8MFKQE0B7O9,3BV8HQ2ZZ0HRDAYJLKO04QWCOMD6A1,4,3
188,2,object_10,object_06,851.10000000149,4,2,310.29999999702,0.1111111111111111,2,object_07,5,2669,0,5,1,forest_6,1,memory-2step-stake-s,677,2510129,0.0-19.0-0.1-0.188,A3GEYEPOHA33SP,3X4Q1O9UCK2WXV8VOBT8MFKQE0B7O9,3BV8HQ2ZZ0HRDAYJLKO04QWCOMD6A1,3,4
189,4,object_01,object_09,638.30000000447,7,1,306.60000000149,0.7777777777777778,1,object_04,5,2704,0,7,1,restaurant_2,1,memory-2step-stake-s,678,2518355,0.0-19.0-0.1-0.189,A3GEYEPOHA33SP,3X4Q1O9UCK2WXV8VOBT8MFKQE0B7O9,3BV8HQ2ZZ0HRDAYJLKO04QWCOMD6A1,7,8
190,4,object_09,object_01,564.79999999702,7,2,140.5,0.8888888888888888,1,object_04,1,2712,0,8,1,restaurant_2,1,memory-2step-stake-s,679,2526541,0.0-19.0-0.1-0.190,A3GEYEPOHA33SP,3X4Q1O9UCK2WXV8VOBT8MFKQE0B7O9,3BV8HQ2ZZ0HRDAYJLKO04QWCOMD6A1,8,7
191,2,object_06,object_10,642.39999999851,4,1,171.89999999851,0.1111111111111111,2,object_07,1,2713,0,8,1,forest_4,1,memory-2step-stake-s,680,2534028,0.0-19.0-0.1-0.191,A3GEYEPOHA33SP,3X4Q1O9UCK2WXV8VOBT8MFKQE0B7O9,3BV8HQ2ZZ0HRDAYJLKO04QWCOMD6A1,4,3
192,2,object_10,object_06,553.39999999851,4,2,346.29999999702,0.3333333333333333,2,object_07,1,2716,0,7,3,forest_4,1,memory-2step-stake-s,681,2541899,0.0-19.0-0.1-0.192,A3GEYEPOHA33SP,3X4Q1O9UCK2WXV8VOBT8MFKQE0B7O9,3BV8HQ2ZZ0HRDAYJLKO04QWCOMD6A1,3,4
193,3,object_05,object_08,463.20000000298,6,1,91.39999999851,0.0,2,object_07,1,2716,0,7,0,library_6,1,memory-2step-stake-s,682,2549203,0.0-19.0-0.1-0.193,A3GEYEPOHA33SP,3X4Q1O9UCK2WXV8VOBT8MFKQE0B7O9,3BV8HQ2ZZ0HRDAYJLKO04QWCOMD6A1,6,5
194,1,object_03,object_02,519.60000000149,2,2,237.69999999553,0.1111111111111111,2,object_07,1,2717,0,8,1,desert_8,1,memory-2step-stake-s,683,2556756,0.0-19.0-0.1-0.194,A3GEYEPOHA33SP,3X4Q1O9UCK2WXV8VOBT8MFKQE0B7O9,3BV8HQ2ZZ0HRDAYJLKO04QWCOMD6A1,1,2
195,2,object_10,object_06,908.59999999404,4,2,117.70000000298,0.4444444444444444,2,object_07,1,2721,0,8,4,forest_4,1,memory-2step-stake-s,684,2564494,0.0-19.0-0.1-0.195,A3GEYEPOHA33SP,3X4Q1O9UCK2WXV8VOBT8MFKQE0B7O9,3BV8HQ2ZZ0HRDAYJLKO04QWCOMD6A1,3,4
196,1,object_03,object_02,704.29999999702,1,1,254.5,0.8888888888888888,1,object_04,1,2729,0,8,2,desert_6,1,memory-2step-stake-s,685,2572780,0.0-19.0-0.1-0.196,A3GEYEPOHA33SP,3X4Q1O9UCK2WXV8VOBT8MFKQE0B7O9,3BV8HQ2ZZ0HRDAYJLKO04QWCOMD6A1,1,2
197,2,object_06,object_10,782.10000000149,4,1,305.89999999851,0.3333333333333333,2,object_07,1,2732,0,5,3,forest_3,1,memory-2step-stake-s,686,2580600,0.0-19.0-0.1-0.197,A3GEYEPOHA33SP,3X4Q1O9UCK2WXV8VOBT8MFKQE0B7O9,3BV8HQ2ZZ0HRDAYJLKO04QWCOMD6A1,4,3
198,4,object_01,object_09,972.69999999553,7,1,313.5,0.6666666666666666,1,object_04,1,2738,0,6,8,restaurant_2,1,memory-2step-stake-s,687,2588743,0.0-19.0-0.1-0.198,A3GEYEPOHA33SP,3X4Q1O9UCK2WXV8VOBT8MFKQE0B7O9,3BV8HQ2ZZ0HRDAYJLKO04QWCOMD6A1,7,8
199,4,object_09,object_01,857.20000000298,7,2,319.0,0.4444444444444444,1,object_04,5,2758,0,4,7,restaurant_2,1,memory-2step-stake-s,688,2596679,0.0-19.0-0.1-0.199,A3GEYEPOHA33SP,3X4Q1O9UCK2WXV8VOBT8MFKQE0B7O9,3BV8HQ2ZZ0HRDAYJLKO04QWCOMD6A1,8,7
200,3,object_08,object_05,933.80000000447,5,1,260.59999999404,0.3333333333333333,1,object_04,5,2773,0,3,8,library_3,1,memory-2step-stake-s,689,2604457,0.0-19.0-0.1-0.200,A3GEYEPOHA33SP,3X4Q1O9UCK2WXV8VOBT8MFKQE0B7O9,3BV8HQ2ZZ0HRDAYJLKO04QWCOMD6A1,5,6
201,3,object_08,object_05,925.79999999702,6,2,200.10000000149,1.0,2,object_07,5,2818,0,3,9,library_4,1,memory-2step-stake-s,690,2612787,0.0-19.0-0.1-0.201,A3GEYEPOHA33SP,3X4Q1O9UCK2WXV8VOBT8MFKQE0B7O9,3BV8HQ2ZZ0HRDAYJLKO04QWCOMD6A1,5,6
202,1,object_02,object_03,587.0,1,2,379.59999999404,0.5555555555555556,1,object_04,1,2823,0,5,8,desert_6,1,memory-2step-stake-s,691,2620885,0.0-19.0-0.1-0.202,A3GEYEPOHA33SP,3X4Q1O9UCK2WXV8VOBT8MFKQE0B7O9,3BV8HQ2ZZ0HRDAYJLKO04QWCOMD6A1,2,1
203,4,object_09,object_01,863.60000000149,8,1,230.90000000596,0.7777777777777778,2,object_07,5,2858,0,4,7,restaurant_2,1,memory-2step-stake-s,692,2629037,0.0-19.0-0.1-0.203,A3GEYEPOHA33SP,3X4Q1O9UCK2WXV8VOBT8MFKQE0B7O9,3BV8HQ2ZZ0HRDAYJLKO04QWCOMD6A1,8,7
204,1,object_03,object_02,729.80000000447,1,1,304.89999999851,0.5555555555555556,1,object_04,1,2863,0,5,8,desert_2,1,memory-2step-stake-s,693,2637073,0.0-19.0-0.1-0.204,A3GEYEPOHA33SP,3X4Q1O9UCK2WXV8VOBT8MFKQE0B7O9,3BV8HQ2ZZ0HRDAYJLKO04QWCOMD6A1,1,2
205,4,object_01,object_09,628.60000000149,8,2,309.60000000149,0.7777777777777778,2,object_07,1,2870,0,1,7,restaurant_1,1,memory-2step-stake-s,694,2645304,0.0-19.0-0.1-0.205,A3GEYEPOHA33SP,3X4Q1O9UCK2WXV8VOBT8MFKQE0B7O9,3BV8HQ2ZZ0HRDAYJLKO04QWCOMD6A1,7,8
206,1,object_02,object_03,593.60000000149,1,2,480.0,0.1111111111111111,1,object_04,1,2871,0,1,7,desert_8,1,memory-2step-stake-s,695,2653094,0.0-19.0-0.1-0.206,A3GEYEPOHA33SP,3X4Q1O9UCK2WXV8VOBT8MFKQE0B7O9,3BV8HQ2ZZ0HRDAYJLKO04QWCOMD6A1,2,1
207,2,object_10,object_06,794.10000000149,3,1,370.70000000298,0.0,1,object_04,1,2871,0,0,9,forest_6,1,memory-2step-stake-s,696,2660674,0.0-19.0-0.1-0.207,A3GEYEPOHA33SP,3X4Q1O9UCK2WXV8VOBT8MFKQE0B7O9,3BV8HQ2ZZ0HRDAYJLKO04QWCOMD6A1,3,4
208,3,object_05,object_08,711.60000000149,5,2,91.30000000447,0.1111111111111111,1,object_04,5,2876,0,1,7,library_4,1,memory-2step-stake-s,697,2668081,0.0-19.0-0.1-0.208,A3GEYEPOHA33SP,3X4Q1O9UCK2WXV8VOBT8MFKQE0B7O9,3BV8HQ2ZZ0HRDAYJLKO04QWCOMD6A1,6,5
209,3,object_05,object_08,586.39999999851,6,1,286.10000000149,0.6666666666666666,2,object_07,5,2906,0,1,6,library_2,1,memory-2step-stake-s,698,2676193,0.0-19.0-0.1-0.209,A3GEYEPOHA33SP,3X4Q1O9UCK2WXV8VOBT8MFKQE0B7O9,3BV8HQ2ZZ0HRDAYJLKO04QWCOMD6A1,6,5
210,1,object_03,object_02,566.40000000596,1,1,888.89999999851,0.3333333333333333,1,object_04,5,2921,0,3,7,desert_6,1,memory-2step-stake-s,699,2684614,0.0-19.0-0.1-0.210,A3GEYEPOHA33SP,3X4Q1O9UCK2WXV8VOBT8MFKQE0B7O9,3BV8HQ2ZZ0HRDAYJLKO04QWCOMD6A1,1,2
211,1,object_02,object_03,529.89999999851,1,2,0.30000000447035,0.2222222222222222,1,object_04,5,2931,0,2,7,desert_6,1,memory-2step-stake-s,700,2692039,0.0-19.0-0.1-0.211,A3GEYEPOHA33SP,3X4Q1O9UCK2WXV8VOBT8MFKQE0B7O9,3BV8HQ2ZZ0HRDAYJLKO04QWCOMD6A1,2,1
212,1,object_02,object_03,820.60000000149,2,1,341.30000000447,0.4444444444444444,2,object_07,1,2935,0,0,4,desert_8,1,memory-2step-stake-s,701,2699998,0.0-19.0-0.1-0.212,A3GEYEPOHA33SP,3X4Q1O9UCK2WXV8VOBT8MFKQE0B7O9,3BV8HQ2ZZ0HRDAYJLKO04QWCOMD6A1,2,1
213,3,object_05,object_08,770.30000000447,6,1,203.79999999702,0.7777777777777778,2,object_07,5,2970,0,3,7,library_4,1,memory-2step-stake-s,702,2708133,0.0-19.0-0.1-0.213,A3GEYEPOHA33SP,3X4Q1O9UCK2WXV8VOBT8MFKQE0B7O9,3BV8HQ2ZZ0HRDAYJLKO04QWCOMD6A1,6,5
214,2,object_06,object_10,851.59999999404,4,1,166.80000000447,0.8888888888888888,2,object_07,1,2978,0,1,8,forest_3,1,memory-2step-stake-s,703,2716330,0.0-19.0-0.1-0.214,A3GEYEPOHA33SP,3X4Q1O9UCK2WXV8VOBT8MFKQE0B7O9,3BV8HQ2ZZ0HRDAYJLKO04QWCOMD6A1,4,3
215,2,object_10,object_06,634.29999999702,4,2,362.80000000447,0.7777777777777778,2,object_07,1,2985,0,8,7,forest_4,1,memory-2step-stake-s,704,2724628,0.0-19.0-0.1-0.215,A3GEYEPOHA33SP,3X4Q1O9UCK2WXV8VOBT8MFKQE0B7O9,3BV8HQ2ZZ0HRDAYJLKO04QWCOMD6A1,3,4
216,2,object_10,object_06,676.0,3,1,333.79999999702,0.7777777777777778,1,object_04,1,2992,0,7,6,forest_3,1,memory-2step-stake-s,705,2732882,0.0-19.0-0.1-0.216,A3GEYEPOHA33SP,3X4Q1O9UCK2WXV8VOBT8MFKQE0B7O9,3BV8HQ2ZZ0HRDAYJLKO04QWCOMD6A1,3,4
217,4,object_01,object_09,821.5,8,2,215.70000000298,0.8888888888888888,2,object_07,5,3032,0,8,8,restaurant_4,1,memory-2step-stake-s,706,2741121,0.0-19.0-0.1-0.217,A3GEYEPOHA33SP,3X4Q1O9UCK2WXV8VOBT8MFKQE0B7O9,3BV8HQ2ZZ0HRDAYJLKO04QWCOMD6A1,7,8
218,3,object_08,object_05,783.30000000447,6,2,332.40000000596,0.7777777777777778,2,object_07,5,3067,0,7,7,library_3,1,memory-2step-stake-s,707,2749391,0.0-19.0-0.1-0.218,A3GEYEPOHA33SP,3X4Q1O9UCK2WXV8VOBT8MFKQE0B7O9,3BV8HQ2ZZ0HRDAYJLKO04QWCOMD6A1,5,6
219,3,object_08,object_05,703.89999999851,6,2,119.89999999851,0.5555555555555556,2,object_07,1,3072,0,9,5,library_4,1,memory-2step-stake-s,708,2757246,0.0-19.0-0.1-0.219,A3GEYEPOHA33SP,3X4Q1O9UCK2WXV8VOBT8MFKQE0B7O9,3BV8HQ2ZZ0HRDAYJLKO04QWCOMD6A1,5,6
220,1,object_03,object_02,753.20000000298,2,2,135.89999999851,0.8888888888888888,2,object_07,1,3080,0,8,8,desert_3,1,memory-2step-stake-s,709,2765403,0.0-19.0-0.1-0.220,A3GEYEPOHA33SP,3X4Q1O9UCK2WXV8VOBT8MFKQE0B7O9,3BV8HQ2ZZ0HRDAYJLKO04QWCOMD6A1,1,2
221,4,object_09,object_01,618.0,8,1,85.89999999851,0.6666666666666666,2,object_07,5,3110,0,4,6,restaurant_1,1,memory-2step-stake-s,710,2773327,0.0-19.0-0.1-0.221,A3GEYEPOHA33SP,3X4Q1O9UCK2WXV8VOBT8MFKQE0B7O9,3BV8HQ2ZZ0HRDAYJLKO04QWCOMD6A1,8,7
222,3,object_05,object_08,647.5,6,1,292.90000000596,0.3333333333333333,2,object_07,5,3125,0,6,3,library_3,1,memory-2step-stake-s,711,2781138,0.0-19.0-0.1-0.222,A3GEYEPOHA33SP,3X4Q1O9UCK2WXV8VOBT8MFKQE0B7O9,3BV8HQ2ZZ0HRDAYJLKO04QWCOMD6A1,6,5
223,2,object_10,object_06,785.89999999851,3,1,437.89999999851,0.8888888888888888,1,object_04,1,3133,0,8,3,forest_3,1,memory-2step-stake-s,712,2789596,0.0-19.0-0.1-0.223,A3GEYEPOHA33SP,3X4Q1O9UCK2WXV8VOBT8MFKQE0B7O9,3BV8HQ2ZZ0HRDAYJLKO04QWCOMD6A1,3,4
224,4,object_09,object_01,1136.700000003,8,1,508.10000000149,0.3333333333333333,2,object_07,5,3148,0,9,3,restaurant_8,1,memory-2step-stake-s,713,2797625,0.0-19.0-0.1-0.224,A3GEYEPOHA33SP,3X4Q1O9UCK2WXV8VOBT8MFKQE0B7O9,3BV8HQ2ZZ0HRDAYJLKO04QWCOMD6A1,8,7
225,1,object_03,object_02,703.5,2,2,366.60000000149,0.1111111111111111,2,object_07,1,3149,0,8,1,desert_3,1,memory-2step-stake-s,714,2805307,0.0-19.0-0.1-0.225,A3GEYEPOHA33SP,3X4Q1O9UCK2WXV8VOBT8MFKQE0B7O9,3BV8HQ2ZZ0HRDAYJLKO04QWCOMD6A1,1,2
226,4,object_01,object_09,892.5,7,1,220.0,0.8888888888888888,1,object_04,5,3189,0,8,2,restaurant_8,1,memory-2step-stake-s,715,2813551,0.0-19.0-0.1-0.226,A3GEYEPOHA33SP,3X4Q1O9UCK2WXV8VOBT8MFKQE0B7O9,3BV8HQ2ZZ0HRDAYJLKO04QWCOMD6A1,7,8
227,1,object_02,object_03,665.80000000447,2,1,240.5,0.3333333333333333,2,object_07,1,3192,0,9,3,desert_2,1,memory-2step-stake-s,716,2821305,0.0-19.0-0.1-0.227,A3GEYEPOHA33SP,3X4Q1O9UCK2WXV8VOBT8MFKQE0B7O9,3BV8HQ2ZZ0HRDAYJLKO04QWCOMD6A1,2,1
228,4,object_01,object_09,624.10000000149,8,2,53.0,0.4444444444444444,2,object_07,5,3212,0,8,4,restaurant_4,1,memory-2step-stake-s,717,2828973,0.0-19.0-0.1-0.228,A3GEYEPOHA33SP,3X4Q1O9UCK2WXV8VOBT8MFKQE0B7O9,3BV8HQ2ZZ0HRDAYJLKO04QWCOMD6A1,7,8
229,4,object_01,object_09,576.5,7,1,96.59999999404,0.6666666666666666,1,object_04,1,3218,0,6,3,restaurant_2,1,memory-2step-stake-s,718,2836890,0.0-19.0-0.1-0.229,A3GEYEPOHA33SP,3X4Q1O9UCK2WXV8VOBT8MFKQE0B7O9,3BV8HQ2ZZ0HRDAYJLKO04QWCOMD6A1,7,8
230,2,object_10,object_06,525.69999999553,4,2,358.89999999851,0.5555555555555556,2,object_07,1,3223,0,9,5,forest_3,1,memory-2step-stake-s,719,2844989,0.0-19.0-0.1-0.230,A3GEYEPOHA33SP,3X4Q1O9UCK2WXV8VOBT8MFKQE0B7O9,3BV8HQ2ZZ0HRDAYJLKO04QWCOMD6A1,3,4
231,4,object_09,object_01,605.29999999702,8,1,427.59999999404,0.7777777777777778,2,object_07,5,3258,0,7,7,restaurant_8,1,memory-2step-stake-s,720,2853337,0.0-19.0-0.1-0.231,A3GEYEPOHA33SP,3X4Q1O9UCK2WXV8VOBT8MFKQE0B7O9,3BV8HQ2ZZ0HRDAYJLKO04QWCOMD6A1,8,7
232,4,object_09,object_01,542.20000000298,8,1,152.0,0.6666666666666666,2,object_07,1,3264,0,9,6,restaurant_2,1,memory-2step-stake-s,721,2861329,0.0-19.0-0.1-0.232,A3GEYEPOHA33SP,3X4Q1O9UCK2WXV8VOBT8MFKQE0B7O9,3BV8HQ2ZZ0HRDAYJLKO04QWCOMD6A1,8,7
233,2,object_10,object_06,107.10000000149,4,2,49.19999999553,1.0,2,object_07,1,3273,0,8,9,forest_7,1,memory-2step-stake-s,722,2869500,0.0-19.0-0.1-0.233,A3GEYEPOHA33SP,3X4Q1O9UCK2WXV8VOBT8MFKQE0B7O9,3BV8HQ2ZZ0HRDAYJLKO04QWCOMD6A1,3,4
234,3,object_08,object_05,671.70000000298,6,2,261.39999999851,0.7777777777777778,2,object_07,5,3308,0,9,7,library_2,1,memory-2step-stake-s,723,2877682,0.0-19.0-0.1-0.234,A3GEYEPOHA33SP,3X4Q1O9UCK2WXV8VOBT8MFKQE0B7O9,3BV8HQ2ZZ0HRDAYJLKO04QWCOMD6A1,5,6
235,3,object_05,object_08,669.5,6,1,290.70000000298,0.8888888888888888,2,object_07,5,3348,0,4,8,library_6,1,memory-2step-stake-s,724,2885993,0.0-19.0-0.1-0.235,A3GEYEPOHA33SP,3X4Q1O9UCK2WXV8VOBT8MFKQE0B7O9,3BV8HQ2ZZ0HRDAYJLKO04QWCOMD6A1,6,5
236,4,object_09,object_01,729.39999999851,7,2,316.5,0.3333333333333333,1,object_04,1,3351,0,3,8,restaurant_4,1,memory-2step-stake-s,725,2893826,0.0-19.0-0.1-0.236,A3GEYEPOHA33SP,3X4Q1O9UCK2WXV8VOBT8MFKQE0B7O9,3BV8HQ2ZZ0HRDAYJLKO04QWCOMD6A1,8,7
237,3,object_05,object_08,550.89999999851,6,1,31.0,1.0,2,object_07,5,3396,0,8,9,library_4,1,memory-2step-stake-s,726,2901981,0.0-19.0-0.1-0.237,A3GEYEPOHA33SP,3X4Q1O9UCK2WXV8VOBT8MFKQE0B7O9,3BV8HQ2ZZ0HRDAYJLKO04QWCOMD6A1,6,5
238,3,object_08,object_05,590.80000000447,6,2,154.70000000298,1.0,2,object_07,5,3441,0,9,9,library_2,1,memory-2step-stake-s,727,2910268,0.0-19.0-0.1-0.238,A3GEYEPOHA33SP,3X4Q1O9UCK2WXV8VOBT8MFKQE0B7O9,3BV8HQ2ZZ0HRDAYJLKO04QWCOMD6A1,5,6
239,4,object_01,object_09,765.20000000298,7,1,122.70000000298,1.0,1,object_04,5,3486,0,9,6,restaurant_4,1,memory-2step-stake-s,728,2918536,0.0-19.0-0.1-0.239,A3GEYEPOHA33SP,3X4Q1O9UCK2WXV8VOBT8MFKQE0B7O9,3BV8HQ2ZZ0HRDAYJLKO04QWCOMD6A1,7,8
240,2,object_06,object_10,686.40000000596,3,2,297.80000000447,0.8888888888888888,1,object_04,1,3494,0,8,5,forest_4,1,memory-2step-stake-s,729,2926859,0.0-19.0-0.1-0.240,A3GEYEPOHA33SP,3X4Q1O9UCK2WXV8VOBT8MFKQE0B7O9,3BV8HQ2ZZ0HRDAYJLKO04QWCOMD6A1,4,3
241,3,object_05,object_08,585.60000000149,6,1,323.89999999851,1.0,2,object_07,5,3539,0,6,9,library_4,1,memory-2step-stake-s,730,2935323,0.0-19.0-0.1-0.241,A3GEYEPOHA33SP,3X4Q1O9UCK2WXV8VOBT8MFKQE0B7O9,3BV8HQ2ZZ0HRDAYJLKO04QWCOMD6A1,6,5
242,3,object_08,object_05,637.29999999702,6,2,279.0,0.8888888888888888,2,object_07,5,3579,0,5,8,library_4,1,memory-2step-stake-s,731,2943647,0.0-19.0-0.1-0.242,A3GEYEPOHA33SP,3X4Q1O9UCK2WXV8VOBT8MFKQE0B7O9,3BV8HQ2ZZ0HRDAYJLKO04QWCOMD6A1,5,6
243,2,object_10,object_06,447.0,3,1,581.0,0.2222222222222222,1,object_04,1,3581,0,2,7,forest_3,1,memory-2step-stake-s,732,2951645,0.0-19.0-0.1-0.243,A3GEYEPOHA33SP,3X4Q1O9UCK2WXV8VOBT8MFKQE0B7O9,3BV8HQ2ZZ0HRDAYJLKO04QWCOMD6A1,3,4
244,4,object_01,object_09,774.79999999702,8,2,277.10000000149,0.8888888888888888,2,object_07,5,3621,0,1,8,restaurant_2,1,memory-2step-stake-s,733,2959949,0.0-19.0-0.1-0.244,A3GEYEPOHA33SP,3X4Q1O9UCK2WXV8VOBT8MFKQE0B7O9,3BV8HQ2ZZ0HRDAYJLKO04QWCOMD6A1,7,8
245,3,object_05,object_08,782.0,5,2,174.20000000298,0.3333333333333333,1,object_04,5,3636,0,3,9,library_2,1,memory-2step-stake-s,734,2967639,0.0-19.0-0.1-0.245,A3GEYEPOHA33SP,3X4Q1O9UCK2WXV8VOBT8MFKQE0B7O9,3BV8HQ2ZZ0HRDAYJLKO04QWCOMD6A1,6,5
246,2,object_06,object_10,785.20000000298,3,2,349.5,0.3333333333333333,1,object_04,1,3639,0,3,9,forest_4,1,memory-2step-stake-s,735,2975504,0.0-19.0-0.1-0.246,A3GEYEPOHA33SP,3X4Q1O9UCK2WXV8VOBT8MFKQE0B7O9,3BV8HQ2ZZ0HRDAYJLKO04QWCOMD6A1,4,3
247,2,object_06,object_10,322.80000000447,4,1,92.89999999851,0.7777777777777778,2,object_07,1,3646,0,4,7,forest_4,1,memory-2step-stake-s,736,2983540,0.0-19.0-0.1-0.247,A3GEYEPOHA33SP,3X4Q1O9UCK2WXV8VOBT8MFKQE0B7O9,3BV8HQ2ZZ0HRDAYJLKO04QWCOMD6A1,4,3
248,1,object_02,object_03,457.79999999702,1,2,157.30000000447,0.3333333333333333,1,object_04,1,3649,0,3,9,desert_8,1,memory-2step-stake-s,737,2991215,0.0-19.0-0.1-0.248,A3GEYEPOHA33SP,3X4Q1O9UCK2WXV8VOBT8MFKQE0B7O9,3BV8HQ2ZZ0HRDAYJLKO04QWCOMD6A1,2,1
249,1,object_03,object_02,64.60000000149,2,2,218.5,0.7777777777777778,2,object_07,1,3656,0,4,7,desert_8,1,memory-2step-stake-s,738,2999357,0.0-19.0-0.1-0.249,A3GEYEPOHA33SP,3X4Q1O9UCK2WXV8VOBT8MFKQE0B7O9,3BV8HQ2ZZ0HRDAYJLKO04QWCOMD6A1,1,2
250,3,object_08,object_05,382.89999999851,5,1,90.79999999702,0.1111111111111111,1,object_04,5,3661,0,1,8,library_3,1,memory-2step-stake-s,739,3006765,0.0-19.0-0.1-0.250,A3GEYEPOHA33SP,3X4Q1O9UCK2WXV8VOBT8MFKQE0B7O9,3BV8HQ2ZZ0HRDAYJLKO04QWCOMD6A1,5,6
251,2,object_06,object_10,610.79999999702,3,2,667.0,0.2222222222222222,1,object_04,1,3663,0,2,8,forest_3,1,memory-2step-stake-s,740,3014847,0.0-19.0-0.1-0.251,A3GEYEPOHA33SP,3X4Q1O9UCK2WXV8VOBT8MFKQE0B7O9,3BV8HQ2ZZ0HRDAYJLKO04QWCOMD6A1,4,3
252,1,object_03,object_02,845.5,1,1,30.10000000149,0.1111111111111111,1,object_04,1,3664,0,1,8,desert_2,1,memory-2step-stake-s,741,3022196,0.0-19.0-0.1-0.252,A3GEYEPOHA33SP,3X4Q1O9UCK2WXV8VOBT8MFKQE0B7O9,3BV8HQ2ZZ0HRDAYJLKO04QWCOMD6A1,1,2
253,4,object_01,object_09,418.60000000149,8,2,30.10000000149,1.0,2,object_07,5,3709,0,3,9,restaurant_2,1,memory-2step-stake-s,742,3030364,0.0-19.0-0.1-0.253,A3GEYEPOHA33SP,3X4Q1O9UCK2WXV8VOBT8MFKQE0B7O9,3BV8HQ2ZZ0HRDAYJLKO04QWCOMD6A1,7,8
254,3,object_05,object_08,714.5,6,1,299.79999999702,0.8888888888888888,2,object_07,5,3749,0,5,8,library_2,1,memory-2step-stake-s,743,3038698,0.0-19.0-0.1-0.254,A3GEYEPOHA33SP,3X4Q1O9UCK2WXV8VOBT8MFKQE0B7O9,3BV8HQ2ZZ0HRDAYJLKO04QWCOMD6A1,6,5
255,1,object_02,object_03,1020.1000000015,1,2,112.90000000596,0.5555555555555556,1,object_04,1,3754,0,5,9,desert_2,1,memory-2step-stake-s,744,3046538,0.0-19.0-0.1-0.255,A3GEYEPOHA33SP,3X4Q1O9UCK2WXV8VOBT8MFKQE0B7O9,3BV8HQ2ZZ0HRDAYJLKO04QWCOMD6A1,2,1
