,state1,stim_left,stim_right,rt_1,choice1,response1,rt_2,points,state2,stim_state2,stake,score,practice,rews1,rews2,background,high_arm,trial_type,trial_index,time_elapsed,internal_node_id,subid,hitid,assignmentid,stim_left_num,stim_right_num
0,1,object_08,object_05,854.60000002384,1,1,-1.0,0.0,1,object_07,5,0,0,4,4,desert_5,2,memory-2step-stake-s,500,1889858,0.0-19.0-0.0-0.0,A2UISTPVTDPOOG,3DW3BNF1HKYVNTMBZS7SV7ATLD58VQ,3FUI0JHJP1ESW6CGT3BSAF6M8KV336,1,2
1,2,object_03,object_06,510.19999992847,3,2,-1.0,0.0,1,object_07,5,0,0,1,1,forest_5,2,memory-2step-stake-s,501,1898367,0.0-19.0-0.0-0.1,A2UISTPVTDPOOG,3DW3BNF1HKYVNTMBZS7SV7ATLD58VQ,3FUI0JHJP1ESW6CGT3BSAF6M8KV336,4,3
2,4,object_09,object_04,1192.2000000477,7,1,-1.0,0.0,1,object_07,1,0,0,1,1,restaurant_8,2,memory-2step-stake-s,502,1906878,0.0-19.0-0.0-0.2,A2UISTPVTDPOOG,3DW3BNF1HKYVNTMBZS7SV7ATLD58VQ,3FUI0JHJP1ESW6CGT3BSAF6M8KV336,7,8
3,4,object_09,object_04,1198.1000000238,8,2,-1.0,0.0,2,object_10,1,0,0,1,0,restaurant_6,2,memory-2step-stake-s,503,1915385,0.0-19.0-0.0-0.3,A2UISTPVTDPOOG,3DW3BNF1HKYVNTMBZS7SV7ATLD58VQ,3FUI0JHJP1ESW6CGT3BSAF6M8KV336,7,8
4,4,object_04,object_09,321.69999992847,7,2,-1.0,0.0,1,object_07,1,0,0,1,1,restaurant_3,2,memory-2step-stake-s,504,1923896,0.0-19.0-0.0-0.4,A2UISTPVTDPOOG,3DW3BNF1HKYVNTMBZS7SV7ATLD58VQ,3FUI0JHJP1ESW6CGT3BSAF6M8KV336,8,7
5,2,object_03,object_06,946.10000002384,4,1,564.5,0.0,2,object_10,5,0,0,2,0,forest_2,2,memory-2step-stake-s,505,1931674,0.0-19.0-0.0-0.5,A2UISTPVTDPOOG,3DW3BNF1HKYVNTMBZS7SV7ATLD58VQ,3FUI0JHJP1ESW6CGT3BSAF6M8KV336,4,3
6,1,object_05,object_08,1071.2999999523,2,1,402.59999990463,0.1111111111111111,2,object_10,1,1,0,3,1,desert_2,2,memory-2step-stake-s,506,1939400,0.0-19.0-0.0-0.6,A2UISTPVTDPOOG,3DW3BNF1HKYVNTMBZS7SV7ATLD58VQ,3FUI0JHJP1ESW6CGT3BSAF6M8KV336,2,1
7,3,object_02,object_01,757.90000009537,6,1,272.89999997616,0.2222222222222222,2,object_10,1,3,0,6,2,library_6,2,memory-2step-stake-s,507,1947089,0.0-19.0-0.0-0.7,A2UISTPVTDPOOG,3DW3BNF1HKYVNTMBZS7SV7ATLD58VQ,3FUI0JHJP1ESW6CGT3BSAF6M8KV336,6,5
8,4,object_04,object_09,526.10000002384,7,2,298.69999992847,0.6666666666666666,1,object_07,1,9,0,6,2,restaurant_7,2,memory-2step-stake-s,508,1955205,0.0-19.0-0.0-0.8,A2UISTPVTDPOOG,3DW3BNF1HKYVNTMBZS7SV7ATLD58VQ,3FUI0JHJP1ESW6CGT3BSAF6M8KV336,8,7
9,4,object_09,object_04,522.89999997616,8,2,357.0,0.5555555555555556,2,object_10,1,14,0,3,5,restaurant_8,2,memory-2step-stake-s,509,1963280,0.0-19.0-0.0-0.9,A2UISTPVTDPOOG,3DW3BNF1HKYVNTMBZS7SV7ATLD58VQ,3FUI0JHJP1ESW6CGT3BSAF6M8KV336,7,8
10,1,object_08,object_05,457.20000004768,1,1,445.79999995232,0.3333333333333333,1,object_07,5,29,0,3,4,desert_5,2,memory-2step-stake-s,510,1971239,0.0-19.0-0.0-0.10,A2UISTPVTDPOOG,3DW3BNF1HKYVNTMBZS7SV7ATLD58VQ,3FUI0JHJP1ESW6CGT3BSAF6M8KV336,1,2
11,1,object_08,object_05,299.29999995232,2,2,390.30000007153,0.4444444444444444,2,object_10,1,33,0,2,4,desert_5,2,memory-2step-stake-s,511,1979247,0.0-19.0-0.0-0.11,A2UISTPVTDPOOG,3DW3BNF1HKYVNTMBZS7SV7ATLD58VQ,3FUI0JHJP1ESW6CGT3BSAF6M8KV336,1,2
12,4,object_09,object_04,268.0,8,2,284.70000004768,0.5555555555555556,2,object_10,1,38,0,5,5,restaurant_6,2,memory-2step-stake-s,512,1987251,0.0-19.0-0.0-0.12,A2UISTPVTDPOOG,3DW3BNF1HKYVNTMBZS7SV7ATLD58VQ,3FUI0JHJP1ESW6CGT3BSAF6M8KV336,7,8
13,3,object_01,object_02,529.69999992847,6,2,332.09999990463,0.7777777777777778,2,object_10,1,45,0,6,7,library_3,2,memory-2step-stake-s,513,1995506,0.0-19.0-0.0-0.13,A2UISTPVTDPOOG,3DW3BNF1HKYVNTMBZS7SV7ATLD58VQ,3FUI0JHJP1ESW6CGT3BSAF6M8KV336,5,6
14,1,object_08,object_05,450.10000002384,1,1,350.79999995232,0.7777777777777778,1,object_07,5,80,0,7,7,desert_5,2,memory-2step-stake-s,514,2003777,0.0-19.0-0.0-0.14,A2UISTPVTDPOOG,3DW3BNF1HKYVNTMBZS7SV7ATLD58VQ,3FUI0JHJP1ESW6CGT3BSAF6M8KV336,1,2
15,4,object_09,object_04,741.10000002384,8,2,569.0,0.7777777777777778,2,object_10,1,87,0,5,7,restaurant_3,2,memory-2step-stake-s,515,2012266,0.0-19.0-0.0-0.15,A2UISTPVTDPOOG,3DW3BNF1HKYVNTMBZS7SV7ATLD58VQ,3FUI0JHJP1ESW6CGT3BSAF6M8KV336,7,8
16,1,object_08,object_05,316.5,1,1,471.5,0.4444444444444444,1,object_07,5,107,0,4,6,desert_4,2,memory-2step-stake-s,516,2020357,0.0-19.0-0.0-0.16,A2UISTPVTDPOOG,3DW3BNF1HKYVNTMBZS7SV7ATLD58VQ,3FUI0JHJP1ESW6CGT3BSAF6M8KV336,1,2
17,1,object_08,object_05,283.29999995232,1,1,391.79999995232,0.3333333333333333,1,object_07,5,122,0,3,8,desert_4,2,memory-2step-stake-s,517,2028265,0.0-19.0-0.0-0.17,A2UISTPVTDPOOG,3DW3BNF1HKYVNTMBZS7SV7ATLD58VQ,3FUI0JHJP1ESW6CGT3BSAF6M8KV336,1,2
18,4,object_09,object_04,617.60000002384,8,2,581.10000002384,0.8888888888888888,2,object_10,5,162,0,2,8,restaurant_6,2,memory-2step-stake-s,518,2036872,0.0-19.0-0.0-0.18,A2UISTPVTDPOOG,3DW3BNF1HKYVNTMBZS7SV7ATLD58VQ,3FUI0JHJP1ESW6CGT3BSAF6M8KV336,7,8
19,3,object_01,object_02,620.39999997616,6,2,766.5,0.7777777777777778,2,object_10,1,169,0,3,7,library_3,2,memory-2step-stake-s,519,2045558,0.0-19.0-0.0-0.19,A2UISTPVTDPOOG,3DW3BNF1HKYVNTMBZS7SV7ATLD58VQ,3FUI0JHJP1ESW6CGT3BSAF6M8KV336,5,6
20,2,object_06,object_03,398.80000007153,4,2,314.69999992847,1.0,2,object_10,5,214,0,2,9,forest_1,2,memory-2step-stake-s,520,2054002,0.0-19.0-0.0-0.20,A2UISTPVTDPOOG,3DW3BNF1HKYVNTMBZS7SV7ATLD58VQ,3FUI0JHJP1ESW6CGT3BSAF6M8KV336,3,4
21,3,object_02,object_01,444.39999997616,5,2,327.70000004768,0.0,1,object_07,1,214,0,0,8,library_3,2,memory-2step-stake-s,521,2061549,0.0-19.0-0.0-0.21,A2UISTPVTDPOOG,3DW3BNF1HKYVNTMBZS7SV7ATLD58VQ,3FUI0JHJP1ESW6CGT3BSAF6M8KV336,6,5
22,3,object_01,object_02,355.60000002384,5,1,381.39999997616,0.2222222222222222,1,object_07,1,216,0,2,6,library_6,2,memory-2step-stake-s,522,2069351,0.0-19.0-0.0-0.22,A2UISTPVTDPOOG,3DW3BNF1HKYVNTMBZS7SV7ATLD58VQ,3FUI0JHJP1ESW6CGT3BSAF6M8KV336,5,6
23,2,object_03,object_06,753.80000007153,3,2,501.69999992847,0.1111111111111111,1,object_07,5,221,0,1,4,forest_8,2,memory-2step-stake-s,523,2077168,0.0-19.0-0.0-0.23,A2UISTPVTDPOOG,3DW3BNF1HKYVNTMBZS7SV7ATLD58VQ,3FUI0JHJP1ESW6CGT3BSAF6M8KV336,4,3
24,3,object_02,object_01,690.90000009537,6,1,363.30000007153,0.2222222222222222,2,object_10,1,223,0,2,2,library_3,2,memory-2step-stake-s,524,2084946,0.0-19.0-0.0-0.24,A2UISTPVTDPOOG,3DW3BNF1HKYVNTMBZS7SV7ATLD58VQ,3FUI0JHJP1ESW6CGT3BSAF6M8KV336,6,5
25,4,object_04,object_09,785.5,7,2,669.5,0.5555555555555556,1,object_07,1,228,0,5,5,restaurant_6,2,memory-2step-stake-s,525,2093331,0.0-19.0-0.0-0.25,A2UISTPVTDPOOG,3DW3BNF1HKYVNTMBZS7SV7ATLD58VQ,3FUI0JHJP1ESW6CGT3BSAF6M8KV336,8,7
26,2,object_03,object_06,554.90000009537,4,1,435.60000002384,0.6666666666666666,2,object_10,5,258,0,5,6,forest_5,2,memory-2step-stake-s,526,2101587,0.0-19.0-0.0-0.26,A2UISTPVTDPOOG,3DW3BNF1HKYVNTMBZS7SV7ATLD58VQ,3FUI0JHJP1ESW6CGT3BSAF6M8KV336,4,3
27,3,object_01,object_02,610.19999992847,6,2,368.59999990463,0.8888888888888888,2,object_10,1,266,0,3,8,library_3,2,memory-2step-stake-s,527,2109984,0.0-19.0-0.0-0.27,A2UISTPVTDPOOG,3DW3BNF1HKYVNTMBZS7SV7ATLD58VQ,3FUI0JHJP1ESW6CGT3BSAF6M8KV336,5,6
28,3,object_01,object_02,710.70000004768,6,2,329.5,0.4444444444444444,2,object_10,5,286,0,2,4,library_3,2,memory-2step-stake-s,528,2117928,0.0-19.0-0.0-0.28,A2UISTPVTDPOOG,3DW3BNF1HKYVNTMBZS7SV7ATLD58VQ,3FUI0JHJP1ESW6CGT3BSAF6M8KV336,5,6
29,3,object_01,object_02,673.39999997616,6,2,1379.2000000477,0.7777777777777778,2,object_10,1,293,0,1,7,library_8,2,memory-2step-stake-s,529,2127228,0.0-19.0-0.0-0.29,A2UISTPVTDPOOG,3DW3BNF1HKYVNTMBZS7SV7ATLD58VQ,3FUI0JHJP1ESW6CGT3BSAF6M8KV336,5,6
30,2,object_06,object_03,764.79999995232,4,2,434.10000002384,0.8888888888888888,2,object_10,5,333,0,3,8,forest_8,2,memory-2step-stake-s,530,2135682,0.0-19.0-0.0-0.30,A2UISTPVTDPOOG,3DW3BNF1HKYVNTMBZS7SV7ATLD58VQ,3FUI0JHJP1ESW6CGT3BSAF6M8KV336,3,4
31,2,object_06,object_03,889.5,4,2,348.89999997616,0.7777777777777778,2,object_10,5,368,0,5,7,forest_1,2,memory-2step-stake-s,531,2143951,0.0-19.0-0.0-0.31,A2UISTPVTDPOOG,3DW3BNF1HKYVNTMBZS7SV7ATLD58VQ,3FUI0JHJP1ESW6CGT3BSAF6M8KV336,3,4
32,2,object_06,object_03,677.39999997616,4,2,792.39999997616,0.4444444444444444,2,object_10,5,388,0,8,4,forest_8,2,memory-2step-stake-s,532,2152363,0.0-19.0-0.0-0.32,A2UISTPVTDPOOG,3DW3BNF1HKYVNTMBZS7SV7ATLD58VQ,3FUI0JHJP1ESW6CGT3BSAF6M8KV336,3,4
33,2,object_03,object_06,858.5,4,1,311.39999997616,0.1111111111111111,2,object_10,5,393,0,8,1,forest_1,2,memory-2step-stake-s,533,2159987,0.0-19.0-0.0-0.33,A2UISTPVTDPOOG,3DW3BNF1HKYVNTMBZS7SV7ATLD58VQ,3FUI0JHJP1ESW6CGT3BSAF6M8KV336,4,3
34,3,object_01,object_02,836.19999992847,6,2,286.5,0.4444444444444444,2,object_10,1,397,0,8,4,library_8,2,memory-2step-stake-s,534,2167890,0.0-19.0-0.0-0.34,A2UISTPVTDPOOG,3DW3BNF1HKYVNTMBZS7SV7ATLD58VQ,3FUI0JHJP1ESW6CGT3BSAF6M8KV336,5,6
35,3,object_02,object_01,727.0,5,2,433.60000002384,0.7777777777777778,1,object_07,5,432,0,7,2,library_4,2,memory-2step-stake-s,535,2176239,0.0-19.0-0.0-0.35,A2UISTPVTDPOOG,3DW3BNF1HKYVNTMBZS7SV7ATLD58VQ,3FUI0JHJP1ESW6CGT3BSAF6M8KV336,6,5
36,1,object_05,object_08,793.5,1,2,495.29999995232,1.0,1,object_07,5,477,0,9,5,desert_4,2,memory-2step-stake-s,536,2184860,0.0-19.0-0.0-0.36,A2UISTPVTDPOOG,3DW3BNF1HKYVNTMBZS7SV7ATLD58VQ,3FUI0JHJP1ESW6CGT3BSAF6M8KV336,2,1
37,4,object_09,object_04,783.10000002384,7,1,411.20000004768,0.6666666666666666,1,object_07,1,483,0,6,4,restaurant_3,2,memory-2step-stake-s,537,2193097,0.0-19.0-0.0-0.37,A2UISTPVTDPOOG,3DW3BNF1HKYVNTMBZS7SV7ATLD58VQ,3FUI0JHJP1ESW6CGT3BSAF6M8KV336,7,8
38,4,object_09,object_04,803.0,7,1,484.5,0.7777777777777778,1,object_07,1,490,0,7,6,restaurant_7,2,memory-2step-stake-s,538,2201520,0.0-19.0-0.0-0.38,A2UISTPVTDPOOG,3DW3BNF1HKYVNTMBZS7SV7ATLD58VQ,3FUI0JHJP1ESW6CGT3BSAF6M8KV336,7,8
39,3,object_02,object_01,939.5,5,2,489.0,1.0,1,object_07,1,499,0,9,3,library_4,2,memory-2step-stake-s,539,2210129,0.0-19.0-0.0-0.39,A2UISTPVTDPOOG,3DW3BNF1HKYVNTMBZS7SV7ATLD58VQ,3FUI0JHJP1ESW6CGT3BSAF6M8KV336,6,5
40,2,object_06,object_03,908.89999997616,3,1,568.29999995232,0.7777777777777778,1,object_07,5,534,0,7,5,forest_1,2,memory-2step-stake-s,540,2218615,0.0-19.0-0.0-0.40,A2UISTPVTDPOOG,3DW3BNF1HKYVNTMBZS7SV7ATLD58VQ,3FUI0JHJP1ESW6CGT3BSAF6M8KV336,3,4
41,2,object_06,object_03,505.20000004768,3,1,505.5,0.8888888888888888,1,object_07,5,574,0,8,2,forest_8,2,memory-2step-stake-s,541,2227158,0.0-19.0-0.0-0.41,A2UISTPVTDPOOG,3DW3BNF1HKYVNTMBZS7SV7ATLD58VQ,3FUI0JHJP1ESW6CGT3BSAF6M8KV336,3,4
42,2,object_06,object_03,762.80000007153,3,1,798.20000004768,0.8888888888888888,1,object_07,5,614,0,8,5,forest_5,2,memory-2step-stake-s,542,2235997,0.0-19.0-0.0-0.42,A2UISTPVTDPOOG,3DW3BNF1HKYVNTMBZS7SV7ATLD58VQ,3FUI0JHJP1ESW6CGT3BSAF6M8KV336,3,4
43,1,object_05,object_08,1044.3000000715,1,2,566.89999997616,0.8888888888888888,1,object_07,5,654,0,8,7,desert_8,2,memory-2step-stake-s,543,2244585,0.0-19.0-0.0-0.43,A2UISTPVTDPOOG,3DW3BNF1HKYVNTMBZS7SV7ATLD58VQ,3FUI0JHJP1ESW6CGT3BSAF6M8KV336,2,1
44,2,object_06,object_03,587.0,3,1,260.60000002384,1.0,1,object_07,5,699,0,9,5,forest_5,2,memory-2step-stake-s,544,2252965,0.0-19.0-0.0-0.44,A2UISTPVTDPOOG,3DW3BNF1HKYVNTMBZS7SV7ATLD58VQ,3FUI0JHJP1ESW6CGT3BSAF6M8KV336,3,4
45,2,object_06,object_03,415.5,3,1,444.30000007153,0.7777777777777778,1,object_07,1,706,0,7,3,forest_2,2,memory-2step-stake-s,545,2261325,0.0-19.0-0.0-0.45,A2UISTPVTDPOOG,3DW3BNF1HKYVNTMBZS7SV7ATLD58VQ,3FUI0JHJP1ESW6CGT3BSAF6M8KV336,3,4
46,4,object_09,object_04,686.70000004768,8,2,497.20000004768,0.0,2,object_10,1,706,0,4,0,restaurant_8,2,memory-2step-stake-s,546,2269036,0.0-19.0-0.0-0.46,A2UISTPVTDPOOG,3DW3BNF1HKYVNTMBZS7SV7ATLD58VQ,3FUI0JHJP1ESW6CGT3BSAF6M8KV336,7,8
47,1,object_08,object_05,948.39999997616,1,1,333.89999997616,0.7777777777777778,1,object_07,1,713,0,7,2,desert_4,2,memory-2step-stake-s,547,2277286,0.0-19.0-0.0-0.47,A2UISTPVTDPOOG,3DW3BNF1HKYVNTMBZS7SV7ATLD58VQ,3FUI0JHJP1ESW6CGT3BSAF6M8KV336,1,2
48,4,object_04,object_09,984.89999997616,8,1,355.5,0.1111111111111111,2,object_10,1,714,0,6,1,restaurant_8,2,memory-2step-stake-s,548,2284956,0.0-19.0-0.0-0.48,A2UISTPVTDPOOG,3DW3BNF1HKYVNTMBZS7SV7ATLD58VQ,3FUI0JHJP1ESW6CGT3BSAF6M8KV336,8,7
49,1,object_05,object_08,997.0,1,2,335.89999997616,0.5555555555555556,1,object_07,5,739,0,5,0,desert_5,2,memory-2step-stake-s,549,2293011,0.0-19.0-0.0-0.49,A2UISTPVTDPOOG,3DW3BNF1HKYVNTMBZS7SV7ATLD58VQ,3FUI0JHJP1ESW6CGT3BSAF6M8KV336,2,1
50,4,object_09,object_04,1119.5999999046,7,1,363.70000004768,0.0,1,object_07,1,739,0,0,1,restaurant_7,2,memory-2step-stake-s,550,2300585,0.0-19.0-0.0-0.50,A2UISTPVTDPOOG,3DW3BNF1HKYVNTMBZS7SV7ATLD58VQ,3FUI0JHJP1ESW6CGT3BSAF6M8KV336,7,8
51,1,object_05,object_08,781.10000002384,2,1,344.0,0.3333333333333333,2,object_10,5,754,0,3,3,desert_5,2,memory-2step-stake-s,551,2308449,0.0-19.0-0.0-0.51,A2UISTPVTDPOOG,3DW3BNF1HKYVNTMBZS7SV7ATLD58VQ,3FUI0JHJP1ESW6CGT3BSAF6M8KV336,2,1
52,2,object_06,object_03,1346.4000000954,4,2,467.79999995232,0.4444444444444444,2,object_10,5,774,0,6,4,forest_2,2,memory-2step-stake-s,552,2316535,0.0-19.0-0.0-0.52,A2UISTPVTDPOOG,3DW3BNF1HKYVNTMBZS7SV7ATLD58VQ,3FUI0JHJP1ESW6CGT3BSAF6M8KV336,3,4
53,1,object_08,object_05,879.19999992847,2,2,472.70000004768,0.4444444444444444,2,object_10,5,794,0,5,4,desert_5,2,memory-2step-stake-s,553,2324624,0.0-19.0-0.0-0.53,A2UISTPVTDPOOG,3DW3BNF1HKYVNTMBZS7SV7ATLD58VQ,3FUI0JHJP1ESW6CGT3BSAF6M8KV336,1,2
54,3,object_02,object_01,902.5,6,1,804.29999995232,0.4444444444444444,2,object_10,1,798,0,8,4,library_6,2,memory-2step-stake-s,554,2333045,0.0-19.0-0.0-0.54,A2UISTPVTDPOOG,3DW3BNF1HKYVNTMBZS7SV7ATLD58VQ,3FUI0JHJP1ESW6CGT3BSAF6M8KV336,6,5
55,1,object_05,object_08,1018.3000000715,1,2,1104.9000000954,0.7777777777777778,1,object_07,1,805,0,7,6,desert_5,2,memory-2step-stake-s,555,2342082,0.0-19.0-0.0-0.55,A2UISTPVTDPOOG,3DW3BNF1HKYVNTMBZS7SV7ATLD58VQ,3FUI0JHJP1ESW6CGT3BSAF6M8KV336,2,1
56,3,object_02,object_01,1016.5999999046,5,2,419.0,0.7777777777777778,1,object_07,5,840,0,7,5,library_3,2,memory-2step-stake-s,556,2350420,0.0-19.0-0.0-0.56,A2UISTPVTDPOOG,3DW3BNF1HKYVNTMBZS7SV7ATLD58VQ,3FUI0JHJP1ESW6CGT3BSAF6M8KV336,6,5
57,3,object_01,object_02,774.5,5,1,442.40000009537,1.0,1,object_07,1,849,0,9,2,library_3,2,memory-2step-stake-s,557,2359002,0.0-19.0-0.0-0.57,A2UISTPVTDPOOG,3DW3BNF1HKYVNTMBZS7SV7ATLD58VQ,3FUI0JHJP1ESW6CGT3BSAF6M8KV336,5,6
58,3,object_01,object_02,891.20000004768,5,1,518.10000002384,0.8888888888888888,1,object_07,1,857,0,8,2,library_8,2,memory-2step-stake-s,558,2367538,0.0-19.0-0.0-0.58,A2UISTPVTDPOOG,3DW3BNF1HKYVNTMBZS7SV7ATLD58VQ,3FUI0JHJP1ESW6CGT3BSAF6M8KV336,5,6
59,4,object_09,object_04,1250.6999999285,7,1,583.80000007153,0.5555555555555556,1,object_07,1,862,0,5,1,restaurant_3,2,memory-2step-stake-s,559,2375837,0.0-19.0-0.0-0.59,A2UISTPVTDPOOG,3DW3BNF1HKYVNTMBZS7SV7ATLD58VQ,3FUI0JHJP1ESW6CGT3BSAF6M8KV336,7,8
60,1,object_05,object_08,1168.1000000238,1,2,379.5,0.5555555555555556,1,object_07,5,887,0,5,1,desert_8,2,memory-2step-stake-s,560,2383938,0.0-19.0-0.0-0.60,A2UISTPVTDPOOG,3DW3BNF1HKYVNTMBZS7SV7ATLD58VQ,3FUI0JHJP1ESW6CGT3BSAF6M8KV336,2,1
61,1,object_08,object_05,366.80000007153,2,2,408.09999990463,0.0,2,object_10,1,887,0,5,0,desert_8,2,memory-2step-stake-s,561,2391558,0.0-19.0-0.0-0.61,A2UISTPVTDPOOG,3DW3BNF1HKYVNTMBZS7SV7ATLD58VQ,3FUI0JHJP1ESW6CGT3BSAF6M8KV336,1,2
62,4,object_09,object_04,929.10000002384,7,1,548.80000007153,0.5555555555555556,1,object_07,1,892,0,5,3,restaurant_3,2,memory-2step-stake-s,562,2399826,0.0-19.0-0.0-0.62,A2UISTPVTDPOOG,3DW3BNF1HKYVNTMBZS7SV7ATLD58VQ,3FUI0JHJP1ESW6CGT3BSAF6M8KV336,7,8
63,2,object_06,object_03,655.69999992847,3,1,624.5,0.4444444444444444,1,object_07,5,912,0,4,3,forest_1,2,memory-2step-stake-s,563,2408076,0.0-19.0-0.0-0.63,A2UISTPVTDPOOG,3DW3BNF1HKYVNTMBZS7SV7ATLD58VQ,3FUI0JHJP1ESW6CGT3BSAF6M8KV336,3,4
64,1,object_05,object_08,1037.8999999762,1,2,359.89999997616,0.5555555555555556,1,object_07,5,937,0,5,0,desert_4,2,memory-2step-stake-s,564,2416151,0.0-19.0-0.0-0.64,A2UISTPVTDPOOG,3DW3BNF1HKYVNTMBZS7SV7ATLD58VQ,3FUI0JHJP1ESW6CGT3BSAF6M8KV336,2,1
65,4,object_09,object_04,805.5,8,2,311.60000002384,0.0,2,object_10,1,937,0,6,0,restaurant_7,2,memory-2step-stake-s,565,2423677,0.0-19.0-0.0-0.65,A2UISTPVTDPOOG,3DW3BNF1HKYVNTMBZS7SV7ATLD58VQ,3FUI0JHJP1ESW6CGT3BSAF6M8KV336,7,8
66,2,object_06,object_03,653.69999992847,3,1,392.80000007153,0.6666666666666666,1,object_07,5,967,0,6,1,forest_5,2,memory-2step-stake-s,566,2431916,0.0-19.0-0.0-0.66,A2UISTPVTDPOOG,3DW3BNF1HKYVNTMBZS7SV7ATLD58VQ,3FUI0JHJP1ESW6CGT3BSAF6M8KV336,3,4
67,4,object_04,object_09,843.5,7,2,334.69999992847,0.4444444444444444,1,object_07,5,987,0,4,1,restaurant_6,2,memory-2step-stake-s,567,2439865,0.0-19.0-0.0-0.67,A2UISTPVTDPOOG,3DW3BNF1HKYVNTMBZS7SV7ATLD58VQ,3FUI0JHJP1ESW6CGT3BSAF6M8KV336,8,7
68,2,object_06,object_03,709.80000007153,3,1,417.60000002384,0.5555555555555556,1,object_07,5,1012,0,5,3,forest_1,2,memory-2step-stake-s,568,2448002,0.0-19.0-0.0-0.68,A2UISTPVTDPOOG,3DW3BNF1HKYVNTMBZS7SV7ATLD58VQ,3FUI0JHJP1ESW6CGT3BSAF6M8KV336,3,4
69,1,object_05,object_08,864.20000004768,1,2,473.5,0.6666666666666666,1,object_07,5,1042,0,6,3,desert_4,2,memory-2step-stake-s,569,2456306,0.0-19.0-0.0-0.69,A2UISTPVTDPOOG,3DW3BNF1HKYVNTMBZS7SV7ATLD58VQ,3FUI0JHJP1ESW6CGT3BSAF6M8KV336,2,1
70,1,object_08,object_05,799.0,2,2,281.5,0.3333333333333333,2,object_10,5,1057,0,4,3,desert_2,2,memory-2step-stake-s,570,2464103,0.0-19.0-0.0-0.70,A2UISTPVTDPOOG,3DW3BNF1HKYVNTMBZS7SV7ATLD58VQ,3FUI0JHJP1ESW6CGT3BSAF6M8KV336,1,2
71,1,object_08,object_05,1147.8999999762,1,1,754.90000009537,0.5555555555555556,1,object_07,5,1082,0,5,5,desert_2,2,memory-2step-stake-s,571,2472578,0.0-19.0-0.0-0.71,A2UISTPVTDPOOG,3DW3BNF1HKYVNTMBZS7SV7ATLD58VQ,3FUI0JHJP1ESW6CGT3BSAF6M8KV336,1,2
72,2,object_03,object_06,857.29999995232,3,2,469.39999997616,0.6666666666666666,1,object_07,1,1088,0,6,6,forest_5,2,memory-2step-stake-s,572,2480865,0.0-19.0-0.0-0.72,A2UISTPVTDPOOG,3DW3BNF1HKYVNTMBZS7SV7ATLD58VQ,3FUI0JHJP1ESW6CGT3BSAF6M8KV336,4,3
73,4,object_04,object_09,909.20000004768,7,2,414.79999995232,0.5555555555555556,1,object_07,5,1113,0,5,8,restaurant_7,2,memory-2step-stake-s,573,2488995,0.0-19.0-0.0-0.73,A2UISTPVTDPOOG,3DW3BNF1HKYVNTMBZS7SV7ATLD58VQ,3FUI0JHJP1ESW6CGT3BSAF6M8KV336,8,7
74,4,object_09,object_04,771.79999995232,7,1,422.80000007153,0.7777777777777778,1,object_07,1,1120,0,7,8,restaurant_3,2,memory-2step-stake-s,574,2497334,0.0-19.0-0.0-0.74,A2UISTPVTDPOOG,3DW3BNF1HKYVNTMBZS7SV7ATLD58VQ,3FUI0JHJP1ESW6CGT3BSAF6M8KV336,7,8
75,3,object_01,object_02,762.69999992847,5,1,340.20000004768,0.8888888888888888,1,object_07,5,1160,0,8,7,library_8,2,memory-2step-stake-s,575,2505698,0.0-19.0-0.0-0.75,A2UISTPVTDPOOG,3DW3BNF1HKYVNTMBZS7SV7ATLD58VQ,3FUI0JHJP1ESW6CGT3BSAF6M8KV336,5,6
76,1,object_05,object_08,694.19999992847,1,2,516.0,0.8888888888888888,1,object_07,5,1200,0,8,8,desert_2,2,memory-2step-stake-s,576,2514234,0.0-19.0-0.0-0.76,A2UISTPVTDPOOG,3DW3BNF1HKYVNTMBZS7SV7ATLD58VQ,3FUI0JHJP1ESW6CGT3BSAF6M8KV336,2,1
77,3,object_02,object_01,853.10000002384,5,2,569.19999992847,1.0,1,object_07,1,1209,0,9,9,library_6,2,memory-2step-stake-s,577,2522944,0.0-19.0-0.0-0.77,A2UISTPVTDPOOG,3DW3BNF1HKYVNTMBZS7SV7ATLD58VQ,3FUI0JHJP1ESW6CGT3BSAF6M8KV336,6,5
78,2,object_03,object_06,1082.8000000715,4,1,326.40000009537,0.8888888888888888,2,object_10,5,1249,0,4,8,forest_2,2,memory-2step-stake-s,578,2531291,0.0-19.0-0.0-0.78,A2UISTPVTDPOOG,3DW3BNF1HKYVNTMBZS7SV7ATLD58VQ,3FUI0JHJP1ESW6CGT3BSAF6M8KV336,4,3
79,2,object_03,object_06,868.09999990463,3,2,440.10000002384,0.2222222222222222,1,object_07,1,1251,0,2,7,forest_5,2,memory-2step-stake-s,579,2539158,0.0-19.0-0.0-0.79,A2UISTPVTDPOOG,3DW3BNF1HKYVNTMBZS7SV7ATLD58VQ,3FUI0JHJP1ESW6CGT3BSAF6M8KV336,4,3
80,3,object_02,object_01,969.5,6,1,299.80000007153,1.0,2,object_10,1,1260,0,1,9,library_6,2,memory-2step-stake-s,580,2547595,0.0-19.0-0.0-0.80,A2UISTPVTDPOOG,3DW3BNF1HKYVNTMBZS7SV7ATLD58VQ,3FUI0JHJP1ESW6CGT3BSAF6M8KV336,6,5
81,2,object_03,object_06,724.0,3,2,382.10000002384,0.0,1,object_07,5,1260,0,0,7,forest_8,2,memory-2step-stake-s,581,2555189,0.0-19.0-0.0-0.81,A2UISTPVTDPOOG,3DW3BNF1HKYVNTMBZS7SV7ATLD58VQ,3FUI0JHJP1ESW6CGT3BSAF6M8KV336,4,3
82,1,object_05,object_08,747.60000002384,1,2,445.79999995232,0.3333333333333333,1,object_07,5,1275,0,3,6,desert_2,2,memory-2step-stake-s,582,2563158,0.0-19.0-0.0-0.82,A2UISTPVTDPOOG,3DW3BNF1HKYVNTMBZS7SV7ATLD58VQ,3FUI0JHJP1ESW6CGT3BSAF6M8KV336,2,1
83,4,object_04,object_09,811.40000009537,7,2,533.60000002384,0.2222222222222222,1,object_07,1,1277,0,2,3,restaurant_7,2,memory-2step-stake-s,583,2571106,0.0-19.0-0.0-0.83,A2UISTPVTDPOOG,3DW3BNF1HKYVNTMBZS7SV7ATLD58VQ,3FUI0JHJP1ESW6CGT3BSAF6M8KV336,8,7
84,3,object_02,object_01,682.0,6,1,387.60000002384,0.4444444444444444,2,object_10,1,1281,0,0,4,library_6,2,memory-2step-stake-s,584,2579138,0.0-19.0-0.0-0.84,A2UISTPVTDPOOG,3DW3BNF1HKYVNTMBZS7SV7ATLD58VQ,3FUI0JHJP1ESW6CGT3BSAF6M8KV336,6,5
85,1,object_08,object_05,721.60000002384,1,1,694.70000004768,0.1111111111111111,1,object_07,5,1286,0,1,4,desert_2,2,memory-2step-stake-s,585,2587148,0.0-19.0-0.0-0.85,A2UISTPVTDPOOG,3DW3BNF1HKYVNTMBZS7SV7ATLD58VQ,3FUI0JHJP1ESW6CGT3BSAF6M8KV336,1,2
86,1,object_08,object_05,913.89999997616,2,2,452.30000007153,0.3333333333333333,2,object_10,5,1301,0,5,3,desert_8,2,memory-2step-stake-s,586,2595115,0.0-19.0-0.0-0.86,A2UISTPVTDPOOG,3DW3BNF1HKYVNTMBZS7SV7ATLD58VQ,3FUI0JHJP1ESW6CGT3BSAF6M8KV336,1,2
87,3,object_02,object_01,539.0,6,1,542.0,0.1111111111111111,2,object_10,1,1302,0,2,1,library_4,2,memory-2step-stake-s,587,2602970,0.0-19.0-0.0-0.87,A2UISTPVTDPOOG,3DW3BNF1HKYVNTMBZS7SV7ATLD58VQ,3FUI0JHJP1ESW6CGT3BSAF6M8KV336,6,5
88,2,object_03,object_06,644.39999997616,3,2,496.39999997616,0.2222222222222222,1,object_07,5,1312,0,2,2,forest_2,2,memory-2step-stake-s,588,2610879,0.0-19.0-0.0-0.88,A2UISTPVTDPOOG,3DW3BNF1HKYVNTMBZS7SV7ATLD58VQ,3FUI0JHJP1ESW6CGT3BSAF6M8KV336,4,3
89,4,object_04,object_09,1402.5,8,1,508.70000004768,0.1111111111111111,2,object_10,1,1313,0,3,1,restaurant_8,2,memory-2step-stake-s,589,2618700,0.0-19.0-0.0-0.89,A2UISTPVTDPOOG,3DW3BNF1HKYVNTMBZS7SV7ATLD58VQ,3FUI0JHJP1ESW6CGT3BSAF6M8KV336,8,7
90,3,object_02,object_01,1053.5999999046,5,2,343.5,0.1111111111111111,1,object_07,1,1314,0,1,0,library_4,2,memory-2step-stake-s,590,2626358,0.0-19.0-0.0-0.90,A2UISTPVTDPOOG,3DW3BNF1HKYVNTMBZS7SV7ATLD58VQ,3FUI0JHJP1ESW6CGT3BSAF6M8KV336,6,5
91,1,object_08,object_05,1236.8000000715,2,2,469.5,0.0,2,object_10,5,1314,0,1,0,desert_8,2,memory-2step-stake-s,591,2634042,0.0-19.0-0.0-0.91,A2UISTPVTDPOOG,3DW3BNF1HKYVNTMBZS7SV7ATLD58VQ,3FUI0JHJP1ESW6CGT3BSAF6M8KV336,1,2
92,3,object_01,object_02,1178.1000000238,5,1,629.5,0.3333333333333333,1,object_07,1,1317,0,3,2,library_6,2,memory-2step-stake-s,592,2642185,0.0-19.0-0.0-0.92,A2UISTPVTDPOOG,3DW3BNF1HKYVNTMBZS7SV7ATLD58VQ,3FUI0JHJP1ESW6CGT3BSAF6M8KV336,5,6
93,3,object_02,object_01,987.79999995232,5,2,431.90000009537,0.3333333333333333,1,object_07,5,1332,0,3,2,library_8,2,memory-2step-stake-s,593,2650131,0.0-19.0-0.0-0.93,A2UISTPVTDPOOG,3DW3BNF1HKYVNTMBZS7SV7ATLD58VQ,3FUI0JHJP1ESW6CGT3BSAF6M8KV336,6,5
94,4,object_09,object_04,938.79999995232,7,1,600.60000002384,0.1111111111111111,1,object_07,1,1333,0,1,2,restaurant_6,2,memory-2step-stake-s,594,2658044,0.0-19.0-0.0-0.94,A2UISTPVTDPOOG,3DW3BNF1HKYVNTMBZS7SV7ATLD58VQ,3FUI0JHJP1ESW6CGT3BSAF6M8KV336,7,8
95,3,object_02,object_01,936.39999997616,5,2,466.89999997616,0.3333333333333333,1,object_07,1,1336,0,3,3,library_4,2,memory-2step-stake-s,595,2666031,0.0-19.0-0.0-0.95,A2UISTPVTDPOOG,3DW3BNF1HKYVNTMBZS7SV7ATLD58VQ,3FUI0JHJP1ESW6CGT3BSAF6M8KV336,6,5
96,1,object_08,object_05,722.19999992847,1,1,414.0,0.4444444444444444,1,object_07,5,1356,0,4,3,desert_8,2,memory-2step-stake-s,596,2674079,0.0-19.0-0.0-0.96,A2UISTPVTDPOOG,3DW3BNF1HKYVNTMBZS7SV7ATLD58VQ,3FUI0JHJP1ESW6CGT3BSAF6M8KV336,1,2
97,2,object_03,object_06,1152.7000000477,3,2,860.0,0.3333333333333333,1,object_07,5,1371,0,3,6,forest_8,2,memory-2step-stake-s,597,2682458,0.0-19.0-0.0-0.97,A2UISTPVTDPOOG,3DW3BNF1HKYVNTMBZS7SV7ATLD58VQ,3FUI0JHJP1ESW6CGT3BSAF6M8KV336,4,3
98,4,object_09,object_04,1176.7999999523,7,1,-1.0,0.0,1,object_07,1,1371,0,3,5,restaurant_7,2,memory-2step-stake-s,598,2690971,0.0-19.0-0.0-0.98,A2UISTPVTDPOOG,3DW3BNF1HKYVNTMBZS7SV7ATLD58VQ,3FUI0JHJP1ESW6CGT3BSAF6M8KV336,7,8
99,4,object_04,object_09,633.70000004768,7,2,492.10000002384,0.4444444444444444,1,object_07,1,1375,0,4,3,restaurant_3,2,memory-2step-stake-s,599,2699080,0.0-19.0-0.0-0.99,A2UISTPVTDPOOG,3DW3BNF1HKYVNTMBZS7SV7ATLD58VQ,3FUI0JHJP1ESW6CGT3BSAF6M8KV336,8,7
100,1,object_05,object_08,413.20000004768,2,1,345.79999995232,0.3333333333333333,2,object_10,5,1390,0,3,3,desert_5,2,memory-2step-stake-s,600,2706940,0.0-19.0-0.0-0.100,A2UISTPVTDPOOG,3DW3BNF1HKYVNTMBZS7SV7ATLD58VQ,3FUI0JHJP1ESW6CGT3BSAF6M8KV336,2,1
101,3,object_01,object_02,403.0,6,2,365.29999995232,0.3333333333333333,2,object_10,1,1393,0,4,3,library_3,2,memory-2step-stake-s,601,2714822,0.0-19.0-0.0-0.101,A2UISTPVTDPOOG,3DW3BNF1HKYVNTMBZS7SV7ATLD58VQ,3FUI0JHJP1ESW6CGT3BSAF6M8KV336,5,6
102,4,object_09,object_04,818.30000007153,7,1,558.5,0.7777777777777778,1,object_07,5,1428,0,7,0,restaurant_7,2,memory-2step-stake-s,602,2723314,0.0-19.0-0.0-0.102,A2UISTPVTDPOOG,3DW3BNF1HKYVNTMBZS7SV7ATLD58VQ,3FUI0JHJP1ESW6CGT3BSAF6M8KV336,7,8
103,2,object_03,object_06,870.5,3,2,512.89999997616,0.4444444444444444,1,object_07,1,1432,0,4,1,forest_8,2,memory-2step-stake-s,603,2731442,0.0-19.0-0.0-0.103,A2UISTPVTDPOOG,3DW3BNF1HKYVNTMBZS7SV7ATLD58VQ,3FUI0JHJP1ESW6CGT3BSAF6M8KV336,4,3
104,4,object_04,object_09,912.10000002384,7,2,1003.0,0.1111111111111111,1,object_07,5,1437,0,1,1,restaurant_8,2,memory-2step-stake-s,604,2739758,0.0-19.0-0.0-0.104,A2UISTPVTDPOOG,3DW3BNF1HKYVNTMBZS7SV7ATLD58VQ,3FUI0JHJP1ESW6CGT3BSAF6M8KV336,8,7
105,4,object_09,object_04,860.29999995232,7,1,439.30000007153,0.1111111111111111,1,object_07,1,1438,0,1,3,restaurant_7,2,memory-2step-stake-s,605,2747520,0.0-19.0-0.0-0.105,A2UISTPVTDPOOG,3DW3BNF1HKYVNTMBZS7SV7ATLD58VQ,3FUI0JHJP1ESW6CGT3BSAF6M8KV336,7,8
106,2,object_03,object_06,701.09999990463,3,2,414.90000009537,0.2222222222222222,1,object_07,5,1448,0,2,3,forest_2,2,memory-2step-stake-s,606,2755349,0.0-19.0-0.0-0.106,A2UISTPVTDPOOG,3DW3BNF1HKYVNTMBZS7SV7ATLD58VQ,3FUI0JHJP1ESW6CGT3BSAF6M8KV336,4,3
107,4,object_09,object_04,630.70000004768,7,1,697.19999992847,0.1111111111111111,1,object_07,5,1453,0,1,4,restaurant_6,2,memory-2step-stake-s,607,2763361,0.0-19.0-0.0-0.107,A2UISTPVTDPOOG,3DW3BNF1HKYVNTMBZS7SV7ATLD58VQ,3FUI0JHJP1ESW6CGT3BSAF6M8KV336,7,8
108,4,object_09,object_04,774.60000002384,8,2,535.79999995232,0.2222222222222222,2,object_10,1,1455,0,2,2,restaurant_6,2,memory-2step-stake-s,608,2771313,0.0-19.0-0.0-0.108,A2UISTPVTDPOOG,3DW3BNF1HKYVNTMBZS7SV7ATLD58VQ,3FUI0JHJP1ESW6CGT3BSAF6M8KV336,7,8
109,2,object_03,object_06,768.29999995232,3,2,401.89999997616,0.3333333333333333,1,object_07,5,1470,0,3,3,forest_8,2,memory-2step-stake-s,609,2779231,0.0-19.0-0.0-0.109,A2UISTPVTDPOOG,3DW3BNF1HKYVNTMBZS7SV7ATLD58VQ,3FUI0JHJP1ESW6CGT3BSAF6M8KV336,4,3
110,2,object_06,object_03,674.40000009537,3,1,316.79999995232,0.2222222222222222,1,object_07,5,1480,0,2,1,forest_5,2,memory-2step-stake-s,610,2786963,0.0-19.0-0.0-0.110,A2UISTPVTDPOOG,3DW3BNF1HKYVNTMBZS7SV7ATLD58VQ,3FUI0JHJP1ESW6CGT3BSAF6M8KV336,3,4
111,4,object_09,object_04,655.29999995232,8,2,219.19999992847,0.3333333333333333,2,object_10,5,1495,0,5,3,restaurant_6,2,memory-2step-stake-s,611,2794696,0.0-19.0-0.0-0.111,A2UISTPVTDPOOG,3DW3BNF1HKYVNTMBZS7SV7ATLD58VQ,3FUI0JHJP1ESW6CGT3BSAF6M8KV336,7,8
112,4,object_04,object_09,844.39999997616,8,1,1023.9000000954,0.3333333333333333,2,object_10,1,1498,0,7,3,restaurant_8,2,memory-2step-stake-s,612,2803250,0.0-19.0-0.0-0.112,A2UISTPVTDPOOG,3DW3BNF1HKYVNTMBZS7SV7ATLD58VQ,3FUI0JHJP1ESW6CGT3BSAF6M8KV336,8,7
113,2,object_03,object_06,891.0,3,2,958.70000004768,1.0,1,object_07,5,1543,0,9,3,forest_5,2,memory-2step-stake-s,613,2812329,0.0-19.0-0.0-0.113,A2UISTPVTDPOOG,3DW3BNF1HKYVNTMBZS7SV7ATLD58VQ,3FUI0JHJP1ESW6CGT3BSAF6M8KV336,4,3
114,1,object_08,object_05,772.80000007153,1,1,432.5,0.8888888888888888,1,object_07,5,1583,0,8,5,desert_8,2,memory-2step-stake-s,614,2820796,0.0-19.0-0.0-0.114,A2UISTPVTDPOOG,3DW3BNF1HKYVNTMBZS7SV7ATLD58VQ,3FUI0JHJP1ESW6CGT3BSAF6M8KV336,1,2
115,1,object_08,object_05,531.70000004768,1,1,446.80000007153,1.0,1,object_07,5,1628,0,9,6,desert_2,2,memory-2step-stake-s,615,2829370,0.0-19.0-0.0-0.115,A2UISTPVTDPOOG,3DW3BNF1HKYVNTMBZS7SV7ATLD58VQ,3FUI0JHJP1ESW6CGT3BSAF6M8KV336,1,2
116,3,object_02,object_01,888.39999997616,5,2,419.20000004768,0.8888888888888888,1,object_07,1,1636,0,8,5,library_4,2,memory-2step-stake-s,616,2837822,0.0-19.0-0.0-0.116,A2UISTPVTDPOOG,3DW3BNF1HKYVNTMBZS7SV7ATLD58VQ,3FUI0JHJP1ESW6CGT3BSAF6M8KV336,6,5
117,3,object_01,object_02,1180.5,5,1,1320.8000000715,0.7777777777777778,1,object_07,1,1643,0,7,8,library_8,2,memory-2step-stake-s,617,2847066,0.0-19.0-0.0-0.117,A2UISTPVTDPOOG,3DW3BNF1HKYVNTMBZS7SV7ATLD58VQ,3FUI0JHJP1ESW6CGT3BSAF6M8KV336,5,6
118,1,object_08,object_05,593.60000002384,2,2,540.20000004768,0.7777777777777778,2,object_10,5,1678,0,2,7,desert_8,2,memory-2step-stake-s,618,2855528,0.0-19.0-0.0-0.118,A2UISTPVTDPOOG,3DW3BNF1HKYVNTMBZS7SV7ATLD58VQ,3FUI0JHJP1ESW6CGT3BSAF6M8KV336,1,2
119,4,object_09,object_04,881.10000002384,7,1,429.0,0.0,1,object_07,5,1678,0,0,4,restaurant_3,2,memory-2step-stake-s,619,2863172,0.0-19.0-0.0-0.119,A2UISTPVTDPOOG,3DW3BNF1HKYVNTMBZS7SV7ATLD58VQ,3FUI0JHJP1ESW6CGT3BSAF6M8KV336,7,8
120,4,object_04,object_09,698.89999997616,7,2,461.5,0.2222222222222222,1,object_07,1,1680,0,2,3,restaurant_7,2,memory-2step-stake-s,620,2871049,0.0-19.0-0.0-0.120,A2UISTPVTDPOOG,3DW3BNF1HKYVNTMBZS7SV7ATLD58VQ,3FUI0JHJP1ESW6CGT3BSAF6M8KV336,8,7
121,3,object_01,object_02,764.60000002384,5,1,390.0,0.4444444444444444,1,object_07,1,1684,0,4,5,library_3,2,memory-2step-stake-s,621,2879056,0.0-19.0-0.0-0.121,A2UISTPVTDPOOG,3DW3BNF1HKYVNTMBZS7SV7ATLD58VQ,3FUI0JHJP1ESW6CGT3BSAF6M8KV336,5,6
122,3,object_01,object_02,439.09999990463,6,2,724.0,0.5555555555555556,2,object_10,5,1709,0,3,5,library_3,2,memory-2step-stake-s,622,2887495,0.0-19.0-0.0-0.122,A2UISTPVTDPOOG,3DW3BNF1HKYVNTMBZS7SV7ATLD58VQ,3FUI0JHJP1ESW6CGT3BSAF6M8KV336,5,6
123,1,object_05,object_08,752.70000004768,1,2,587.69999992847,0.3333333333333333,1,object_07,5,1724,0,3,8,desert_5,2,memory-2step-stake-s,623,2895602,0.0-19.0-0.0-0.123,A2UISTPVTDPOOG,3DW3BNF1HKYVNTMBZS7SV7ATLD58VQ,3FUI0JHJP1ESW6CGT3BSAF6M8KV336,2,1
124,2,object_03,object_06,896.20000004768,4,1,1100.6000000238,0.7777777777777778,2,object_10,5,1759,0,0,7,forest_2,2,memory-2step-stake-s,624,2904617,0.0-19.0-0.0-0.124,A2UISTPVTDPOOG,3DW3BNF1HKYVNTMBZS7SV7ATLD58VQ,3FUI0JHJP1ESW6CGT3BSAF6M8KV336,4,3
125,1,object_05,object_08,282.79999995232,1,2,440.09999990463,0.1111111111111111,1,object_07,5,1764,0,1,6,desert_2,2,memory-2step-stake-s,625,2912370,0.0-19.0-0.0-0.125,A2UISTPVTDPOOG,3DW3BNF1HKYVNTMBZS7SV7ATLD58VQ,3FUI0JHJP1ESW6CGT3BSAF6M8KV336,2,1
126,4,object_04,object_09,873.90000009537,7,2,-1.0,0.0,1,object_07,1,1764,0,0,9,restaurant_6,2,memory-2step-stake-s,626,2920882,0.0-19.0-0.0-0.126,A2UISTPVTDPOOG,3DW3BNF1HKYVNTMBZS7SV7ATLD58VQ,3FUI0JHJP1ESW6CGT3BSAF6M8KV336,8,7
127,3,object_02,object_01,459.30000007153,6,1,365.90000009537,0.7777777777777778,2,object_10,1,1771,0,2,7,library_6,2,memory-2step-stake-s,627,2929169,0.0-19.0-0.0-0.127,A2UISTPVTDPOOG,3DW3BNF1HKYVNTMBZS7SV7ATLD58VQ,3FUI0JHJP1ESW6CGT3BSAF6M8KV336,6,5
128,1,object_05,object_08,600.59999990463,1,2,347.09999990463,0.4444444444444444,1,object_07,5,1791,0,4,8,desert_5,2,memory-2step-stake-s,629,2961390,0.0-19.0-0.1-0.128,A2UISTPVTDPOOG,3DW3BNF1HKYVNTMBZS7SV7ATLD58VQ,3FUI0JHJP1ESW6CGT3BSAF6M8KV336,2,1
129,4,object_09,object_04,758.20000004768,7,1,553.20000004768,0.4444444444444444,1,object_07,1,1795,0,4,8,restaurant_8,2,memory-2step-stake-s,630,2969559,0.0-19.0-0.1-0.129,A2UISTPVTDPOOG,3DW3BNF1HKYVNTMBZS7SV7ATLD58VQ,3FUI0JHJP1ESW6CGT3BSAF6M8KV336,7,8
130,1,object_08,object_05,286.5,2,2,618.89999997616,0.7777777777777778,2,object_10,5,1830,0,3,7,desert_2,2,memory-2step-stake-s,631,2978096,0.0-19.0-0.1-0.130,A2UISTPVTDPOOG,3DW3BNF1HKYVNTMBZS7SV7ATLD58VQ,3FUI0JHJP1ESW6CGT3BSAF6M8KV336,1,2
131,2,object_03,object_06,934.60000002384,3,2,297.80000007153,0.4444444444444444,1,object_07,5,1850,0,4,7,forest_1,2,memory-2step-stake-s,632,2986010,0.0-19.0-0.1-0.131,A2UISTPVTDPOOG,3DW3BNF1HKYVNTMBZS7SV7ATLD58VQ,3FUI0JHJP1ESW6CGT3BSAF6M8KV336,4,3
132,4,object_04,object_09,814.89999997616,7,2,528.09999990463,0.4444444444444444,1,object_07,1,1854,0,4,8,restaurant_8,2,memory-2step-stake-s,633,2994154,0.0-19.0-0.1-0.132,A2UISTPVTDPOOG,3DW3BNF1HKYVNTMBZS7SV7ATLD58VQ,3FUI0JHJP1ESW6CGT3BSAF6M8KV336,8,7
133,3,object_02,object_01,668.40000009537,6,1,376.5,0.7777777777777778,2,object_10,1,1861,0,4,7,library_4,2,memory-2step-stake-s,634,3002457,0.0-19.0-0.1-0.133,A2UISTPVTDPOOG,3DW3BNF1HKYVNTMBZS7SV7ATLD58VQ,3FUI0JHJP1ESW6CGT3BSAF6M8KV336,6,5
134,3,object_01,object_02,771.29999995232,6,2,397.29999995232,0.6666666666666666,2,object_10,1,1867,0,4,6,library_3,2,memory-2step-stake-s,635,3010681,0.0-19.0-0.1-0.134,A2UISTPVTDPOOG,3DW3BNF1HKYVNTMBZS7SV7ATLD58VQ,3FUI0JHJP1ESW6CGT3BSAF6M8KV336,5,6
135,3,object_01,object_02,648.10000002384,6,2,453.79999995232,0.3333333333333333,2,object_10,5,1882,0,5,3,library_8,2,memory-2step-stake-s,636,3018650,0.0-19.0-0.1-0.135,A2UISTPVTDPOOG,3DW3BNF1HKYVNTMBZS7SV7ATLD58VQ,3FUI0JHJP1ESW6CGT3BSAF6M8KV336,5,6
136,2,object_03,object_06,918.60000002384,4,1,637.5,0.1111111111111111,2,object_10,5,1887,0,4,1,forest_1,2,memory-2step-stake-s,637,3026608,0.0-19.0-0.1-0.136,A2UISTPVTDPOOG,3DW3BNF1HKYVNTMBZS7SV7ATLD58VQ,3FUI0JHJP1ESW6CGT3BSAF6M8KV336,4,3
137,1,object_05,object_08,661.20000004768,1,2,440.29999995232,0.1111111111111111,1,object_07,5,1892,0,1,4,desert_5,2,memory-2step-stake-s,638,3034360,0.0-19.0-0.1-0.137,A2UISTPVTDPOOG,3DW3BNF1HKYVNTMBZS7SV7ATLD58VQ,3FUI0JHJP1ESW6CGT3BSAF6M8KV336,2,1
138,1,object_08,object_05,895.39999997616,2,2,297.79999995232,0.4444444444444444,2,object_10,5,1912,0,1,4,desert_4,2,memory-2step-stake-s,639,3042273,0.0-19.0-0.1-0.138,A2UISTPVTDPOOG,3DW3BNF1HKYVNTMBZS7SV7ATLD58VQ,3FUI0JHJP1ESW6CGT3BSAF6M8KV336,1,2
139,1,object_05,object_08,901.89999997616,1,2,545.39999997616,0.0,1,object_07,5,1912,0,0,7,desert_8,2,memory-2step-stake-s,640,3050030,0.0-19.0-0.1-0.139,A2UISTPVTDPOOG,3DW3BNF1HKYVNTMBZS7SV7ATLD58VQ,3FUI0JHJP1ESW6CGT3BSAF6M8KV336,2,1
140,2,object_06,object_03,-1.0,-1,-1,-1.0,0.0,-,0,1,1912,0,3,9,forest_2,2,memory-2step-stake-s,641,3056538,0.0-19.0-0.1-0.140,A2UISTPVTDPOOG,3DW3BNF1HKYVNTMBZS7SV7ATLD58VQ,3FUI0JHJP1ESW6CGT3BSAF6M8KV336,3,4
141,1,object_08,object_05,-1.0,-1,-1,-1.0,0.0,-,0,5,1912,0,2,8,desert_8,2,memory-2step-stake-s,642,3063046,0.0-19.0-0.1-0.141,A2UISTPVTDPOOG,3DW3BNF1HKYVNTMBZS7SV7ATLD58VQ,3FUI0JHJP1ESW6CGT3BSAF6M8KV336,1,2
142,3,object_01,object_02,710.19999992847,5,1,377.79999995232,0.4444444444444444,1,object_07,1,1916,0,4,7,library_8,2,memory-2step-stake-s,643,3071038,0.0-19.0-0.1-0.142,A2UISTPVTDPOOG,3DW3BNF1HKYVNTMBZS7SV7ATLD58VQ,3FUI0JHJP1ESW6CGT3BSAF6M8KV336,5,6
143,4,object_09,object_04,877.39999997616,8,2,319.69999992847,0.7777777777777778,2,object_10,1,1923,0,4,7,restaurant_8,2,memory-2step-stake-s,644,3079284,0.0-19.0-0.1-0.143,A2UISTPVTDPOOG,3DW3BNF1HKYVNTMBZS7SV7ATLD58VQ,3FUI0JHJP1ESW6CGT3BSAF6M8KV336,7,8
144,3,object_02,object_01,810.5,5,2,319.10000002384,0.6666666666666666,1,object_07,5,1953,0,6,8,library_8,2,memory-2step-stake-s,645,3087427,0.0-19.0-0.1-0.144,A2UISTPVTDPOOG,3DW3BNF1HKYVNTMBZS7SV7ATLD58VQ,3FUI0JHJP1ESW6CGT3BSAF6M8KV336,6,5
145,2,object_06,object_03,298.39999997616,3,1,253.0,0.7777777777777778,1,object_07,5,1988,0,7,8,forest_1,2,memory-2step-stake-s,646,3095611,0.0-19.0-0.1-0.145,A2UISTPVTDPOOG,3DW3BNF1HKYVNTMBZS7SV7ATLD58VQ,3FUI0JHJP1ESW6CGT3BSAF6M8KV336,3,4
146,3,object_01,object_02,581.60000002384,6,2,1144.1000000238,0.8888888888888888,2,object_10,5,2028,0,6,8,library_6,2,memory-2step-stake-s,647,3104773,0.0-19.0-0.1-0.146,A2UISTPVTDPOOG,3DW3BNF1HKYVNTMBZS7SV7ATLD58VQ,3FUI0JHJP1ESW6CGT3BSAF6M8KV336,5,6
147,1,object_05,object_08,521.19999992847,1,2,-1.0,0.0,1,object_07,5,2028,0,1,7,desert_8,2,memory-2step-stake-s,648,3113286,0.0-19.0-0.1-0.147,A2UISTPVTDPOOG,3DW3BNF1HKYVNTMBZS7SV7ATLD58VQ,3FUI0JHJP1ESW6CGT3BSAF6M8KV336,2,1
148,3,object_01,object_02,275.5,6,2,424.0,0.3333333333333333,2,object_10,1,2031,0,2,3,library_8,2,memory-2step-stake-s,649,3121223,0.0-19.0-0.1-0.148,A2UISTPVTDPOOG,3DW3BNF1HKYVNTMBZS7SV7ATLD58VQ,3FUI0JHJP1ESW6CGT3BSAF6M8KV336,5,6
149,3,object_02,object_01,461.0,6,1,365.39999997616,0.5555555555555556,2,object_10,1,2036,0,1,5,library_6,2,memory-2step-stake-s,650,3129314,0.0-19.0-0.1-0.149,A2UISTPVTDPOOG,3DW3BNF1HKYVNTMBZS7SV7ATLD58VQ,3FUI0JHJP1ESW6CGT3BSAF6M8KV336,6,5
150,2,object_06,object_03,648.60000002384,3,1,283.80000007153,0.1111111111111111,1,object_07,5,2041,0,1,2,forest_2,2,memory-2step-stake-s,651,3136911,0.0-19.0-0.1-0.150,A2UISTPVTDPOOG,3DW3BNF1HKYVNTMBZS7SV7ATLD58VQ,3FUI0JHJP1ESW6CGT3BSAF6M8KV336,3,4
151,1,object_05,object_08,647.0,1,2,608.19999992847,0.1111111111111111,1,object_07,5,2046,0,1,3,desert_2,2,memory-2step-stake-s,652,3144832,0.0-19.0-0.1-0.151,A2UISTPVTDPOOG,3DW3BNF1HKYVNTMBZS7SV7ATLD58VQ,3FUI0JHJP1ESW6CGT3BSAF6M8KV336,2,1
152,1,object_05,object_08,972.59999990463,2,1,478.70000004768,0.2222222222222222,2,object_10,1,2048,0,1,2,desert_4,2,memory-2step-stake-s,653,3152728,0.0-19.0-0.1-0.152,A2UISTPVTDPOOG,3DW3BNF1HKYVNTMBZS7SV7ATLD58VQ,3FUI0JHJP1ESW6CGT3BSAF6M8KV336,2,1
153,4,object_04,object_09,591.10000002384,7,2,335.80000007153,0.1111111111111111,1,object_07,1,2049,0,1,5,restaurant_3,2,memory-2step-stake-s,654,3160378,0.0-19.0-0.1-0.153,A2UISTPVTDPOOG,3DW3BNF1HKYVNTMBZS7SV7ATLD58VQ,3FUI0JHJP1ESW6CGT3BSAF6M8KV336,8,7
154,2,object_03,object_06,550.39999997616,4,1,632.59999990463,0.4444444444444444,2,object_10,5,2069,0,0,4,forest_8,2,memory-2step-stake-s,655,3168626,0.0-19.0-0.1-0.154,A2UISTPVTDPOOG,3DW3BNF1HKYVNTMBZS7SV7ATLD58VQ,3FUI0JHJP1ESW6CGT3BSAF6M8KV336,4,3
155,2,object_06,object_03,776.0,4,2,563.20000004768,0.4444444444444444,2,object_10,5,2089,0,1,4,forest_8,2,memory-2step-stake-s,656,3176805,0.0-19.0-0.1-0.155,A2UISTPVTDPOOG,3DW3BNF1HKYVNTMBZS7SV7ATLD58VQ,3FUI0JHJP1ESW6CGT3BSAF6M8KV336,3,4
156,3,object_02,object_01,598.89999997616,5,2,490.0,0.2222222222222222,1,object_07,1,2091,0,2,6,library_6,2,memory-2step-stake-s,657,3184716,0.0-19.0-0.1-0.156,A2UISTPVTDPOOG,3DW3BNF1HKYVNTMBZS7SV7ATLD58VQ,3FUI0JHJP1ESW6CGT3BSAF6M8KV336,6,5
157,4,object_04,object_09,705.30000007153,7,2,595.79999995232,0.1111111111111111,1,object_07,1,2092,0,1,6,restaurant_8,2,memory-2step-stake-s,658,3192622,0.0-19.0-0.1-0.157,A2UISTPVTDPOOG,3DW3BNF1HKYVNTMBZS7SV7ATLD58VQ,3FUI0JHJP1ESW6CGT3BSAF6M8KV336,8,7
158,1,object_05,object_08,630.70000004768,2,1,393.39999997616,0.6666666666666666,2,object_10,5,2122,0,2,6,desert_4,2,memory-2step-stake-s,659,3200829,0.0-19.0-0.1-0.158,A2UISTPVTDPOOG,3DW3BNF1HKYVNTMBZS7SV7ATLD58VQ,3FUI0JHJP1ESW6CGT3BSAF6M8KV336,2,1
159,4,object_09,object_04,1442.1999999285,7,1,542.0,0.1111111111111111,1,object_07,1,2123,0,1,8,restaurant_3,2,memory-2step-stake-s,660,3208683,0.0-19.0-0.1-0.159,A2UISTPVTDPOOG,3DW3BNF1HKYVNTMBZS7SV7ATLD58VQ,3FUI0JHJP1ESW6CGT3BSAF6M8KV336,7,8
160,3,object_02,object_01,285.29999995232,5,2,401.89999997616,0.2222222222222222,1,object_07,5,2133,0,2,8,library_6,2,memory-2step-stake-s,661,3216496,0.0-19.0-0.1-0.160,A2UISTPVTDPOOG,3DW3BNF1HKYVNTMBZS7SV7ATLD58VQ,3FUI0JHJP1ESW6CGT3BSAF6M8KV336,6,5
161,4,object_04,object_09,818.39999997616,7,2,446.20000004768,0.1111111111111111,1,object_07,1,2134,0,1,8,restaurant_8,2,memory-2step-stake-s,662,3224252,0.0-19.0-0.1-0.161,A2UISTPVTDPOOG,3DW3BNF1HKYVNTMBZS7SV7ATLD58VQ,3FUI0JHJP1ESW6CGT3BSAF6M8KV336,8,7
162,1,object_08,object_05,901.19999992847,2,2,354.20000004768,0.8888888888888888,2,object_10,5,2174,0,1,8,desert_4,2,memory-2step-stake-s,663,3232624,0.0-19.0-0.1-0.162,A2UISTPVTDPOOG,3DW3BNF1HKYVNTMBZS7SV7ATLD58VQ,3FUI0JHJP1ESW6CGT3BSAF6M8KV336,1,2
163,4,object_09,object_04,660.0,7,1,862.09999990463,0.2222222222222222,1,object_07,1,2176,0,2,9,restaurant_3,2,memory-2step-stake-s,664,3240901,0.0-19.0-0.1-0.163,A2UISTPVTDPOOG,3DW3BNF1HKYVNTMBZS7SV7ATLD58VQ,3FUI0JHJP1ESW6CGT3BSAF6M8KV336,7,8
164,3,object_02,object_01,1143.1999999285,5,2,436.0,0.3333333333333333,1,object_07,5,2191,0,3,5,library_4,2,memory-2step-stake-s,665,3248850,0.0-19.0-0.1-0.164,A2UISTPVTDPOOG,3DW3BNF1HKYVNTMBZS7SV7ATLD58VQ,3FUI0JHJP1ESW6CGT3BSAF6M8KV336,6,5
165,1,object_08,object_05,603.10000002384,1,1,502.0,0.2222222222222222,1,object_07,1,2193,0,2,0,desert_2,2,memory-2step-stake-s,666,3256767,0.0-19.0-0.1-0.165,A2UISTPVTDPOOG,3DW3BNF1HKYVNTMBZS7SV7ATLD58VQ,3FUI0JHJP1ESW6CGT3BSAF6M8KV336,1,2
166,1,object_08,object_05,577.5,2,2,370.69999992847,0.1111111111111111,2,object_10,5,2198,0,1,1,desert_8,2,memory-2step-stake-s,667,3264451,0.0-19.0-0.1-0.166,A2UISTPVTDPOOG,3DW3BNF1HKYVNTMBZS7SV7ATLD58VQ,3FUI0JHJP1ESW6CGT3BSAF6M8KV336,1,2
167,1,object_08,object_05,453.0,1,1,352.69999992847,0.1111111111111111,1,object_07,5,2203,0,1,1,desert_2,2,memory-2step-stake-s,668,3272114,0.0-19.0-0.1-0.167,A2UISTPVTDPOOG,3DW3BNF1HKYVNTMBZS7SV7ATLD58VQ,3FUI0JHJP1ESW6CGT3BSAF6M8KV336,1,2
168,4,object_04,object_09,326.0,7,2,455.39999997616,0.3333333333333333,1,object_07,1,2206,0,3,0,restaurant_7,2,memory-2step-stake-s,669,3280100,0.0-19.0-0.1-0.168,A2UISTPVTDPOOG,3DW3BNF1HKYVNTMBZS7SV7ATLD58VQ,3FUI0JHJP1ESW6CGT3BSAF6M8KV336,8,7
169,3,object_02,object_01,910.0,6,1,497.60000002384,0.1111111111111111,2,object_10,1,2207,0,2,1,library_6,2,memory-2step-stake-s,670,3287909,0.0-19.0-0.1-0.169,A2UISTPVTDPOOG,3DW3BNF1HKYVNTMBZS7SV7ATLD58VQ,3FUI0JHJP1ESW6CGT3BSAF6M8KV336,6,5
170,2,object_03,object_06,461.10000002384,3,2,385.19999992847,0.1111111111111111,1,object_07,5,2212,0,1,5,forest_1,2,memory-2step-stake-s,671,3295609,0.0-19.0-0.1-0.170,A2UISTPVTDPOOG,3DW3BNF1HKYVNTMBZS7SV7ATLD58VQ,3FUI0JHJP1ESW6CGT3BSAF6M8KV336,4,3
171,3,object_02,object_01,371.70000004768,6,1,319.10000002384,0.0,2,object_10,5,2212,0,3,0,library_6,2,memory-2step-stake-s,672,3303139,0.0-19.0-0.1-0.171,A2UISTPVTDPOOG,3DW3BNF1HKYVNTMBZS7SV7ATLD58VQ,3FUI0JHJP1ESW6CGT3BSAF6M8KV336,6,5
172,1,object_08,object_05,1081.8999999762,1,1,316.40000009537,0.3333333333333333,1,object_07,5,2227,0,3,0,desert_5,2,memory-2step-stake-s,673,3310987,0.0-19.0-0.1-0.172,A2UISTPVTDPOOG,3DW3BNF1HKYVNTMBZS7SV7ATLD58VQ,3FUI0JHJP1ESW6CGT3BSAF6M8KV336,1,2
173,1,object_05,object_08,995.70000004768,1,2,349.89999997616,0.1111111111111111,1,object_07,5,2232,0,1,2,desert_8,2,memory-2step-stake-s,674,3318650,0.0-19.0-0.1-0.173,A2UISTPVTDPOOG,3DW3BNF1HKYVNTMBZS7SV7ATLD58VQ,3FUI0JHJP1ESW6CGT3BSAF6M8KV336,2,1
174,1,object_05,object_08,-1.0,-1,-1,-1.0,0.0,-,0,5,2232,0,4,4,desert_4,2,memory-2step-stake-s,675,3325160,0.0-19.0-0.1-0.174,A2UISTPVTDPOOG,3DW3BNF1HKYVNTMBZS7SV7ATLD58VQ,3FUI0JHJP1ESW6CGT3BSAF6M8KV336,2,1
175,3,object_02,object_01,624.39999997616,6,1,260.79999995232,0.6666666666666666,2,object_10,1,2238,0,5,6,library_6,2,memory-2step-stake-s,676,3333254,0.0-19.0-0.1-0.175,A2UISTPVTDPOOG,3DW3BNF1HKYVNTMBZS7SV7ATLD58VQ,3FUI0JHJP1ESW6CGT3BSAF6M8KV336,6,5
176,2,object_06,object_03,414.29999995232,3,1,625.39999997616,0.5555555555555556,1,object_07,5,2263,0,5,9,forest_1,2,memory-2step-stake-s,677,3341596,0.0-19.0-0.1-0.176,A2UISTPVTDPOOG,3DW3BNF1HKYVNTMBZS7SV7ATLD58VQ,3FUI0JHJP1ESW6CGT3BSAF6M8KV336,3,4
177,4,object_04,object_09,1158.7999999523,7,2,-1.0,0.0,1,object_07,1,2263,0,2,7,restaurant_7,2,memory-2step-stake-s,678,3350108,0.0-19.0-0.1-0.177,A2UISTPVTDPOOG,3DW3BNF1HKYVNTMBZS7SV7ATLD58VQ,3FUI0JHJP1ESW6CGT3BSAF6M8KV336,8,7
178,3,object_02,object_01,208.20000004768,6,1,413.10000002384,0.7777777777777778,2,object_10,1,2270,0,3,7,library_3,2,memory-2step-stake-s,679,3358453,0.0-19.0-0.1-0.178,A2UISTPVTDPOOG,3DW3BNF1HKYVNTMBZS7SV7ATLD58VQ,3FUI0JHJP1ESW6CGT3BSAF6M8KV336,6,5
179,2,object_03,object_06,639.69999992847,3,2,555.79999995232,0.2222222222222222,1,object_07,5,2280,0,2,8,forest_2,2,memory-2step-stake-s,680,3366422,0.0-19.0-0.1-0.179,A2UISTPVTDPOOG,3DW3BNF1HKYVNTMBZS7SV7ATLD58VQ,3FUI0JHJP1ESW6CGT3BSAF6M8KV336,4,3
180,4,object_09,object_04,666.0,7,1,1421.6000000238,0.3333333333333333,1,object_07,1,2283,0,3,6,restaurant_8,2,memory-2step-stake-s,681,3375359,0.0-19.0-0.1-0.180,A2UISTPVTDPOOG,3DW3BNF1HKYVNTMBZS7SV7ATLD58VQ,3FUI0JHJP1ESW6CGT3BSAF6M8KV336,7,8
181,4,object_09,object_04,375.70000004768,8,2,1387.2999999523,0.3333333333333333,2,object_10,1,2286,0,4,3,restaurant_3,2,memory-2step-stake-s,682,3384262,0.0-19.0-0.1-0.181,A2UISTPVTDPOOG,3DW3BNF1HKYVNTMBZS7SV7ATLD58VQ,3FUI0JHJP1ESW6CGT3BSAF6M8KV336,7,8
182,2,object_03,object_06,219.10000002384,3,2,247.29999995232,0.5555555555555556,1,object_07,5,2311,0,5,1,forest_2,2,memory-2step-stake-s,683,3392223,0.0-19.0-0.1-0.182,A2UISTPVTDPOOG,3DW3BNF1HKYVNTMBZS7SV7ATLD58VQ,3FUI0JHJP1ESW6CGT3BSAF6M8KV336,4,3
183,4,object_04,object_09,298.29999995232,8,1,856.10000002384,0.2222222222222222,2,object_10,1,2313,0,3,2,restaurant_6,2,memory-2step-stake-s,684,3400494,0.0-19.0-0.1-0.183,A2UISTPVTDPOOG,3DW3BNF1HKYVNTMBZS7SV7ATLD58VQ,3FUI0JHJP1ESW6CGT3BSAF6M8KV336,8,7
184,2,object_06,object_03,229.80000007153,4,2,-1.0,0.0,2,object_10,5,2313,0,0,0,forest_2,2,memory-2step-stake-s,685,3409003,0.0-19.0-0.1-0.184,A2UISTPVTDPOOG,3DW3BNF1HKYVNTMBZS7SV7ATLD58VQ,3FUI0JHJP1ESW6CGT3BSAF6M8KV336,3,4
185,2,object_03,object_06,-1.0,-1,-1,-1.0,0.0,-,0,5,2313,0,2,1,forest_2,2,memory-2step-stake-s,686,3415508,0.0-19.0-0.1-0.185,A2UISTPVTDPOOG,3DW3BNF1HKYVNTMBZS7SV7ATLD58VQ,3FUI0JHJP1ESW6CGT3BSAF6M8KV336,4,3
186,1,object_05,object_08,186.10000002384,2,1,388.0,0.3333333333333333,2,object_10,5,2328,0,1,3,desert_4,2,memory-2step-stake-s,687,3423415,0.0-19.0-0.1-0.186,A2UISTPVTDPOOG,3DW3BNF1HKYVNTMBZS7SV7ATLD58VQ,3FUI0JHJP1ESW6CGT3BSAF6M8KV336,2,1
187,2,object_03,object_06,641.79999995232,4,1,418.19999992847,0.5555555555555556,2,object_10,5,2353,0,1,5,forest_8,2,memory-2step-stake-s,688,3431553,0.0-19.0-0.1-0.187,A2UISTPVTDPOOG,3DW3BNF1HKYVNTMBZS7SV7ATLD58VQ,3FUI0JHJP1ESW6CGT3BSAF6M8KV336,4,3
188,2,object_06,object_03,463.10000002384,4,2,572.0,0.6666666666666666,2,object_10,5,2383,0,2,6,forest_5,2,memory-2step-stake-s,689,3439943,0.0-19.0-0.1-0.188,A2UISTPVTDPOOG,3DW3BNF1HKYVNTMBZS7SV7ATLD58VQ,3FUI0JHJP1ESW6CGT3BSAF6M8KV336,3,4
189,2,object_03,object_06,467.29999995232,3,2,503.60000002384,0.3333333333333333,1,object_07,5,2398,0,3,4,forest_1,2,memory-2step-stake-s,690,3447958,0.0-19.0-0.1-0.189,A2UISTPVTDPOOG,3DW3BNF1HKYVNTMBZS7SV7ATLD58VQ,3FUI0JHJP1ESW6CGT3BSAF6M8KV336,4,3
190,1,object_08,object_05,613.20000004768,1,1,561.39999997616,0.4444444444444444,1,object_07,5,2418,0,4,4,desert_2,2,memory-2step-stake-s,691,3456134,0.0-19.0-0.1-0.190,A2UISTPVTDPOOG,3DW3BNF1HKYVNTMBZS7SV7ATLD58VQ,3FUI0JHJP1ESW6CGT3BSAF6M8KV336,1,2
191,4,object_09,object_04,349.79999995232,8,2,537.20000004768,0.3333333333333333,2,object_10,1,2421,0,4,3,restaurant_8,2,memory-2step-stake-s,692,3464186,0.0-19.0-0.1-0.191,A2UISTPVTDPOOG,3DW3BNF1HKYVNTMBZS7SV7ATLD58VQ,3FUI0JHJP1ESW6CGT3BSAF6M8KV336,7,8
192,2,object_06,object_03,467.19999992847,4,2,1136.3999999762,0.3333333333333333,2,object_10,1,2424,0,1,3,forest_8,2,memory-2step-stake-s,693,3472852,0.0-19.0-0.1-0.192,A2UISTPVTDPOOG,3DW3BNF1HKYVNTMBZS7SV7ATLD58VQ,3FUI0JHJP1ESW6CGT3BSAF6M8KV336,3,4
193,3,object_02,object_01,306.79999995232,5,2,-1.0,0.0,1,object_07,1,2424,0,2,4,library_4,2,memory-2step-stake-s,694,3481365,0.0-19.0-0.1-0.193,A2UISTPVTDPOOG,3DW3BNF1HKYVNTMBZS7SV7ATLD58VQ,3FUI0JHJP1ESW6CGT3BSAF6M8KV336,6,5
194,4,object_09,object_04,201.09999990463,7,1,343.39999997616,0.2222222222222222,1,object_07,1,2426,0,2,5,restaurant_3,2,memory-2step-stake-s,695,3489125,0.0-19.0-0.1-0.194,A2UISTPVTDPOOG,3DW3BNF1HKYVNTMBZS7SV7ATLD58VQ,3FUI0JHJP1ESW6CGT3BSAF6M8KV336,7,8
195,1,object_05,object_08,256.10000002384,1,2,408.79999995232,0.0,1,object_07,5,2426,0,0,6,desert_8,2,memory-2step-stake-s,696,3496759,0.0-19.0-0.1-0.195,A2UISTPVTDPOOG,3DW3BNF1HKYVNTMBZS7SV7ATLD58VQ,3FUI0JHJP1ESW6CGT3BSAF6M8KV336,2,1
196,1,object_08,object_05,371.39999997616,1,1,150.39999997616,0.1111111111111111,1,object_07,5,2431,0,1,5,desert_4,2,memory-2step-stake-s,697,3504222,0.0-19.0-0.1-0.196,A2UISTPVTDPOOG,3DW3BNF1HKYVNTMBZS7SV7ATLD58VQ,3FUI0JHJP1ESW6CGT3BSAF6M8KV336,1,2
197,4,object_09,object_04,292.30000007153,8,2,258.70000004768,0.4444444444444444,2,object_10,1,2435,0,2,4,restaurant_7,2,memory-2step-stake-s,698,3512116,0.0-19.0-0.1-0.197,A2UISTPVTDPOOG,3DW3BNF1HKYVNTMBZS7SV7ATLD58VQ,3FUI0JHJP1ESW6CGT3BSAF6M8KV336,7,8
198,1,object_08,object_05,600.30000007153,1,1,305.29999995232,0.2222222222222222,1,object_07,5,2445,0,2,7,desert_2,2,memory-2step-stake-s,699,3519839,0.0-19.0-0.1-0.198,A2UISTPVTDPOOG,3DW3BNF1HKYVNTMBZS7SV7ATLD58VQ,3FUI0JHJP1ESW6CGT3BSAF6M8KV336,1,2
199,2,object_06,object_03,533.20000004768,3,1,769.60000002384,0.2222222222222222,1,object_07,5,2455,0,2,8,forest_2,2,memory-2step-stake-s,700,3528021,0.0-19.0-0.1-0.199,A2UISTPVTDPOOG,3DW3BNF1HKYVNTMBZS7SV7ATLD58VQ,3FUI0JHJP1ESW6CGT3BSAF6M8KV336,3,4
200,1,object_08,object_05,650.5,2,2,1290.5,0.8888888888888888,2,object_10,5,2495,0,1,8,desert_5,2,memory-2step-stake-s,701,3537344,0.0-19.0-0.1-0.200,A2UISTPVTDPOOG,3DW3BNF1HKYVNTMBZS7SV7ATLD58VQ,3FUI0JHJP1ESW6CGT3BSAF6M8KV336,1,2
201,4,object_04,object_09,-1.0,-1,-1,-1.0,0.0,-,0,1,2495,0,2,5,restaurant_8,2,memory-2step-stake-s,702,3543862,0.0-19.0-0.1-0.201,A2UISTPVTDPOOG,3DW3BNF1HKYVNTMBZS7SV7ATLD58VQ,3FUI0JHJP1ESW6CGT3BSAF6M8KV336,8,7
202,4,object_04,object_09,483.5,7,2,463.29999995232,0.3333333333333333,1,object_07,1,2498,0,3,4,restaurant_7,2,memory-2step-stake-s,703,3551842,0.0-19.0-0.1-0.202,A2UISTPVTDPOOG,3DW3BNF1HKYVNTMBZS7SV7ATLD58VQ,3FUI0JHJP1ESW6CGT3BSAF6M8KV336,8,7
203,1,object_05,object_08,392.10000002384,2,1,450.10000002384,0.4444444444444444,2,object_10,5,2518,0,0,4,desert_4,2,memory-2step-stake-s,704,3559909,0.0-19.0-0.1-0.203,A2UISTPVTDPOOG,3DW3BNF1HKYVNTMBZS7SV7ATLD58VQ,3FUI0JHJP1ESW6CGT3BSAF6M8KV336,2,1
204,4,object_04,object_09,1047.3999999762,7,2,-1.0,0.0,1,object_07,1,2518,0,1,3,restaurant_6,2,memory-2step-stake-s,705,3568419,0.0-19.0-0.1-0.204,A2UISTPVTDPOOG,3DW3BNF1HKYVNTMBZS7SV7ATLD58VQ,3FUI0JHJP1ESW6CGT3BSAF6M8KV336,8,7
205,3,object_02,object_01,184.5,5,2,275.69999992847,0.0,1,object_07,1,2518,0,0,2,library_4,2,memory-2step-stake-s,706,3575906,0.0-19.0-0.1-0.205,A2UISTPVTDPOOG,3DW3BNF1HKYVNTMBZS7SV7ATLD58VQ,3FUI0JHJP1ESW6CGT3BSAF6M8KV336,6,5
206,2,object_06,object_03,372.39999997616,4,2,367.89999997616,0.4444444444444444,2,object_10,5,2538,0,1,4,forest_2,2,memory-2step-stake-s,707,3583889,0.0-19.0-0.1-0.206,A2UISTPVTDPOOG,3DW3BNF1HKYVNTMBZS7SV7ATLD58VQ,3FUI0JHJP1ESW6CGT3BSAF6M8KV336,3,4
207,1,object_05,object_08,236.0,1,2,806.39999997616,0.1111111111111111,1,object_07,5,2543,0,1,3,desert_4,2,memory-2step-stake-s,708,3592010,0.0-19.0-0.1-0.207,A2UISTPVTDPOOG,3DW3BNF1HKYVNTMBZS7SV7ATLD58VQ,3FUI0JHJP1ESW6CGT3BSAF6M8KV336,2,1
208,4,object_04,object_09,533.60000002384,7,2,304.0,0.2222222222222222,1,object_07,1,2545,0,2,5,restaurant_8,2,memory-2step-stake-s,709,3599727,0.0-19.0-0.1-0.208,A2UISTPVTDPOOG,3DW3BNF1HKYVNTMBZS7SV7ATLD58VQ,3FUI0JHJP1ESW6CGT3BSAF6M8KV336,8,7
209,4,object_09,object_04,-1.0,-1,-1,-1.0,0.0,-,0,1,2545,0,2,3,restaurant_3,2,memory-2step-stake-s,710,3606249,0.0-19.0-0.1-0.209,A2UISTPVTDPOOG,3DW3BNF1HKYVNTMBZS7SV7ATLD58VQ,3FUI0JHJP1ESW6CGT3BSAF6M8KV336,7,8
210,3,object_02,object_01,369.60000002384,5,2,357.60000002384,0.2222222222222222,1,object_07,1,2547,0,2,3,library_4,2,memory-2step-stake-s,711,3614017,0.0-19.0-0.1-0.210,A2UISTPVTDPOOG,3DW3BNF1HKYVNTMBZS7SV7ATLD58VQ,3FUI0JHJP1ESW6CGT3BSAF6M8KV336,6,5
211,3,object_01,object_02,531.29999995232,5,1,517.5,0.4444444444444444,1,object_07,5,2567,0,4,7,library_4,2,memory-2step-stake-s,712,3622166,0.0-19.0-0.1-0.211,A2UISTPVTDPOOG,3DW3BNF1HKYVNTMBZS7SV7ATLD58VQ,3FUI0JHJP1ESW6CGT3BSAF6M8KV336,5,6
212,2,object_03,object_06,541.5,3,2,579.60000002384,0.5555555555555556,1,object_07,1,2572,0,5,8,forest_5,2,memory-2step-stake-s,713,3630463,0.0-19.0-0.1-0.212,A2UISTPVTDPOOG,3DW3BNF1HKYVNTMBZS7SV7ATLD58VQ,3FUI0JHJP1ESW6CGT3BSAF6M8KV336,4,3
213,3,object_02,object_01,533.39999997616,6,1,432.60000002384,0.6666666666666666,2,object_10,1,2578,0,6,6,library_8,2,memory-2step-stake-s,714,3638715,0.0-19.0-0.1-0.213,A2UISTPVTDPOOG,3DW3BNF1HKYVNTMBZS7SV7ATLD58VQ,3FUI0JHJP1ESW6CGT3BSAF6M8KV336,6,5
214,3,object_02,object_01,435.60000002384,5,2,934.5,0.7777777777777778,1,object_07,1,2585,0,7,6,library_3,2,memory-2step-stake-s,715,3647569,0.0-19.0-0.1-0.214,A2UISTPVTDPOOG,3DW3BNF1HKYVNTMBZS7SV7ATLD58VQ,3FUI0JHJP1ESW6CGT3BSAF6M8KV336,6,5
215,2,object_03,object_06,550.5,3,2,555.30000007153,0.6666666666666666,1,object_07,5,2615,0,6,7,forest_5,2,memory-2step-stake-s,716,3655944,0.0-19.0-0.1-0.215,A2UISTPVTDPOOG,3DW3BNF1HKYVNTMBZS7SV7ATLD58VQ,3FUI0JHJP1ESW6CGT3BSAF6M8KV336,4,3
216,3,object_02,object_01,770.19999992847,5,2,340.10000002384,0.7777777777777778,1,object_07,1,2622,0,7,2,library_4,2,memory-2step-stake-s,717,3664203,0.0-19.0-0.1-0.216,A2UISTPVTDPOOG,3DW3BNF1HKYVNTMBZS7SV7ATLD58VQ,3FUI0JHJP1ESW6CGT3BSAF6M8KV336,6,5
217,4,object_09,object_04,1080.8999999762,7,1,323.39999997616,0.6666666666666666,1,object_07,1,2628,0,6,5,restaurant_6,2,memory-2step-stake-s,718,3672343,0.0-19.0-0.1-0.217,A2UISTPVTDPOOG,3DW3BNF1HKYVNTMBZS7SV7ATLD58VQ,3FUI0JHJP1ESW6CGT3BSAF6M8KV336,7,8
218,1,object_05,object_08,868.39999997616,2,1,320.20000004768,1.0,2,object_10,5,2673,0,9,9,desert_4,2,memory-2step-stake-s,719,3680787,0.0-19.0-0.1-0.218,A2UISTPVTDPOOG,3DW3BNF1HKYVNTMBZS7SV7ATLD58VQ,3FUI0JHJP1ESW6CGT3BSAF6M8KV336,2,1
219,2,object_03,object_06,951.10000002384,3,2,306.20000004768,0.8888888888888888,1,object_07,5,2713,0,8,7,forest_8,2,memory-2step-stake-s,720,3689123,0.0-19.0-0.1-0.219,A2UISTPVTDPOOG,3DW3BNF1HKYVNTMBZS7SV7ATLD58VQ,3FUI0JHJP1ESW6CGT3BSAF6M8KV336,4,3
220,3,object_01,object_02,500.19999992847,5,1,337.80000007153,0.8888888888888888,1,object_07,1,2721,0,8,8,library_8,2,memory-2step-stake-s,721,3697476,0.0-19.0-0.1-0.220,A2UISTPVTDPOOG,3DW3BNF1HKYVNTMBZS7SV7ATLD58VQ,3FUI0JHJP1ESW6CGT3BSAF6M8KV336,5,6
221,4,object_04,object_09,659.5,7,2,486.20000004768,0.8888888888888888,1,object_07,5,2761,0,8,8,restaurant_3,2,memory-2step-stake-s,722,3705990,0.0-19.0-0.1-0.221,A2UISTPVTDPOOG,3DW3BNF1HKYVNTMBZS7SV7ATLD58VQ,3FUI0JHJP1ESW6CGT3BSAF6M8KV336,8,7
222,3,object_02,object_01,339.40000009537,6,1,320.0,0.8888888888888888,2,object_10,1,2769,0,8,8,library_8,2,memory-2step-stake-s,723,3714327,0.0-19.0-0.1-0.222,A2UISTPVTDPOOG,3DW3BNF1HKYVNTMBZS7SV7ATLD58VQ,3FUI0JHJP1ESW6CGT3BSAF6M8KV336,6,5
223,3,object_01,object_02,482.39999997616,6,2,397.29999995232,0.8888888888888888,2,object_10,5,2809,0,5,8,library_4,2,memory-2step-stake-s,724,3722746,0.0-19.0-0.1-0.223,A2UISTPVTDPOOG,3DW3BNF1HKYVNTMBZS7SV7ATLD58VQ,3FUI0JHJP1ESW6CGT3BSAF6M8KV336,5,6
224,3,object_01,object_02,553.69999992847,5,1,612.70000004768,0.1111111111111111,1,object_07,1,2810,0,1,9,library_4,2,memory-2step-stake-s,725,3730670,0.0-19.0-0.1-0.224,A2UISTPVTDPOOG,3DW3BNF1HKYVNTMBZS7SV7ATLD58VQ,3FUI0JHJP1ESW6CGT3BSAF6M8KV336,5,6
225,1,object_05,object_08,301.39999997616,1,2,424.69999992847,0.2222222222222222,1,object_07,1,2812,0,2,7,desert_5,2,memory-2step-stake-s,726,3738507,0.0-19.0-0.1-0.225,A2UISTPVTDPOOG,3DW3BNF1HKYVNTMBZS7SV7ATLD58VQ,3FUI0JHJP1ESW6CGT3BSAF6M8KV336,2,1
226,3,object_01,object_02,746.30000007153,5,1,396.89999997616,0.1111111111111111,1,object_07,1,2813,0,1,6,library_8,2,memory-2step-stake-s,727,3746216,0.0-19.0-0.1-0.226,A2UISTPVTDPOOG,3DW3BNF1HKYVNTMBZS7SV7ATLD58VQ,3FUI0JHJP1ESW6CGT3BSAF6M8KV336,5,6
227,1,object_05,object_08,1253.7000000477,1,2,911.39999997616,0.1111111111111111,1,object_07,5,2818,0,1,5,desert_2,2,memory-2step-stake-s,728,3754440,0.0-19.0-0.1-0.227,A2UISTPVTDPOOG,3DW3BNF1HKYVNTMBZS7SV7ATLD58VQ,3FUI0JHJP1ESW6CGT3BSAF6M8KV336,2,1
228,2,object_06,object_03,952.79999995232,4,2,315.80000007153,0.4444444444444444,2,object_10,5,2838,0,0,4,forest_5,2,memory-2step-stake-s,729,3762368,0.0-19.0-0.1-0.228,A2UISTPVTDPOOG,3DW3BNF1HKYVNTMBZS7SV7ATLD58VQ,3FUI0JHJP1ESW6CGT3BSAF6M8KV336,3,4
229,2,object_06,object_03,974.89999997616,4,2,298.79999995232,0.5555555555555556,2,object_10,1,2843,0,0,5,forest_1,2,memory-2step-stake-s,730,3770385,0.0-19.0-0.1-0.229,A2UISTPVTDPOOG,3DW3BNF1HKYVNTMBZS7SV7ATLD58VQ,3FUI0JHJP1ESW6CGT3BSAF6M8KV336,3,4
230,4,object_09,object_04,1120.6000000238,7,1,290.70000004768,0.0,1,object_07,1,2843,0,0,5,restaurant_7,2,memory-2step-stake-s,731,3777887,0.0-19.0-0.1-0.230,A2UISTPVTDPOOG,3DW3BNF1HKYVNTMBZS7SV7ATLD58VQ,3FUI0JHJP1ESW6CGT3BSAF6M8KV336,7,8
231,3,object_02,object_01,1427.6000000238,6,1,351.0,0.3333333333333333,2,object_10,1,2846,0,2,3,library_8,2,memory-2step-stake-s,732,3785755,0.0-19.0-0.1-0.231,A2UISTPVTDPOOG,3DW3BNF1HKYVNTMBZS7SV7ATLD58VQ,3FUI0JHJP1ESW6CGT3BSAF6M8KV336,6,5
232,2,object_03,object_06,1290.5,4,1,458.80000007153,0.2222222222222222,2,object_10,1,2848,0,0,2,forest_8,2,memory-2step-stake-s,733,3793638,0.0-19.0-0.1-0.232,A2UISTPVTDPOOG,3DW3BNF1HKYVNTMBZS7SV7ATLD58VQ,3FUI0JHJP1ESW6CGT3BSAF6M8KV336,4,3
233,4,object_09,object_04,925.5,7,1,434.0,0.3333333333333333,1,object_07,1,2851,0,3,1,restaurant_6,2,memory-2step-stake-s,734,3801589,0.0-19.0-0.1-0.233,A2UISTPVTDPOOG,3DW3BNF1HKYVNTMBZS7SV7ATLD58VQ,3FUI0JHJP1ESW6CGT3BSAF6M8KV336,7,8
234,4,object_04,object_09,1202.3999999762,8,1,380.60000002384,0.1111111111111111,2,object_10,1,2852,0,5,1,restaurant_6,2,memory-2step-stake-s,735,3809285,0.0-19.0-0.1-0.234,A2UISTPVTDPOOG,3DW3BNF1HKYVNTMBZS7SV7ATLD58VQ,3FUI0JHJP1ESW6CGT3BSAF6M8KV336,8,7
235,3,object_02,object_01,843.39999997616,6,1,365.70000004768,0.3333333333333333,2,object_10,1,2855,0,6,3,library_3,2,memory-2step-stake-s,736,3817164,0.0-19.0-0.1-0.235,A2UISTPVTDPOOG,3DW3BNF1HKYVNTMBZS7SV7ATLD58VQ,3FUI0JHJP1ESW6CGT3BSAF6M8KV336,6,5
236,2,object_03,object_06,702.89999997616,3,2,319.0,0.3333333333333333,1,object_07,5,2870,0,3,5,forest_1,2,memory-2step-stake-s,737,3824997,0.0-19.0-0.1-0.236,A2UISTPVTDPOOG,3DW3BNF1HKYVNTMBZS7SV7ATLD58VQ,3FUI0JHJP1ESW6CGT3BSAF6M8KV336,4,3
237,2,object_03,object_06,604.29999995232,3,2,697.0,0.1111111111111111,1,object_07,5,2875,0,1,5,forest_1,2,memory-2step-stake-s,738,3833012,0.0-19.0-0.1-0.237,A2UISTPVTDPOOG,3DW3BNF1HKYVNTMBZS7SV7ATLD58VQ,3FUI0JHJP1ESW6CGT3BSAF6M8KV336,4,3
238,2,object_06,object_03,823.60000002384,3,1,561.70000004768,0.1111111111111111,1,object_07,5,2880,0,1,9,forest_2,2,memory-2step-stake-s,739,3840887,0.0-19.0-0.1-0.238,A2UISTPVTDPOOG,3DW3BNF1HKYVNTMBZS7SV7ATLD58VQ,3FUI0JHJP1ESW6CGT3BSAF6M8KV336,3,4
239,4,object_04,object_09,556.89999997616,7,2,384.5,0.3333333333333333,1,object_07,5,2895,0,3,7,restaurant_6,2,memory-2step-stake-s,740,3848791,0.0-19.0-0.1-0.239,A2UISTPVTDPOOG,3DW3BNF1HKYVNTMBZS7SV7ATLD58VQ,3FUI0JHJP1ESW6CGT3BSAF6M8KV336,8,7
240,4,object_04,object_09,631.10000002384,7,2,368.89999997616,0.2222222222222222,1,object_07,1,2897,0,2,4,restaurant_3,2,memory-2step-stake-s,741,3856575,0.0-19.0-0.1-0.240,A2UISTPVTDPOOG,3DW3BNF1HKYVNTMBZS7SV7ATLD58VQ,3FUI0JHJP1ESW6CGT3BSAF6M8KV336,8,7
241,4,object_09,object_04,591.09999990463,7,1,1364.0,0.5555555555555556,1,object_07,5,2922,0,5,4,restaurant_7,2,memory-2step-stake-s,742,3865658,0.0-19.0-0.1-0.241,A2UISTPVTDPOOG,3DW3BNF1HKYVNTMBZS7SV7ATLD58VQ,3FUI0JHJP1ESW6CGT3BSAF6M8KV336,7,8
242,2,object_03,object_06,347.39999997616,3,2,566.79999995232,0.6666666666666666,1,object_07,5,2952,0,6,2,forest_1,2,memory-2step-stake-s,743,3874045,0.0-19.0-0.1-0.242,A2UISTPVTDPOOG,3DW3BNF1HKYVNTMBZS7SV7ATLD58VQ,3FUI0JHJP1ESW6CGT3BSAF6M8KV336,4,3
243,2,object_03,object_06,636.29999995232,3,2,821.70000004768,0.8888888888888888,1,object_07,5,2992,0,8,6,forest_8,2,memory-2step-stake-s,744,3882888,0.0-19.0-0.1-0.243,A2UISTPVTDPOOG,3DW3BNF1HKYVNTMBZS7SV7ATLD58VQ,3FUI0JHJP1ESW6CGT3BSAF6M8KV336,4,3
244,3,object_02,object_01,618.5,5,2,361.0,0.7777777777777778,1,object_07,1,2999,0,7,7,library_4,2,memory-2step-stake-s,745,3891167,0.0-19.0-0.1-0.244,A2UISTPVTDPOOG,3DW3BNF1HKYVNTMBZS7SV7ATLD58VQ,3FUI0JHJP1ESW6CGT3BSAF6M8KV336,6,5
245,2,object_03,object_06,565.39999997616,3,2,417.30000007153,0.7777777777777778,1,object_07,5,3034,0,7,7,forest_5,2,memory-2step-stake-s,746,3899506,0.0-19.0-0.1-0.245,A2UISTPVTDPOOG,3DW3BNF1HKYVNTMBZS7SV7ATLD58VQ,3FUI0JHJP1ESW6CGT3BSAF6M8KV336,4,3
246,2,object_06,object_03,1421.1999999285,4,2,-1.0,0.0,2,object_10,5,3034,0,8,5,forest_5,2,memory-2step-stake-s,747,3908017,0.0-19.0-0.1-0.246,A2UISTPVTDPOOG,3DW3BNF1HKYVNTMBZS7SV7ATLD58VQ,3FUI0JHJP1ESW6CGT3BSAF6M8KV336,3,4
247,1,object_08,object_05,476.39999997616,1,1,384.80000007153,0.7777777777777778,1,object_07,5,3069,0,7,6,desert_2,2,memory-2step-stake-s,748,3916319,0.0-19.0-0.1-0.247,A2UISTPVTDPOOG,3DW3BNF1HKYVNTMBZS7SV7ATLD58VQ,3FUI0JHJP1ESW6CGT3BSAF6M8KV336,1,2
248,3,object_02,object_01,489.10000002384,5,2,659.89999997616,0.5555555555555556,1,object_07,1,3074,0,5,8,library_3,2,memory-2step-stake-s,749,3924707,0.0-19.0-0.1-0.248,A2UISTPVTDPOOG,3DW3BNF1HKYVNTMBZS7SV7ATLD58VQ,3FUI0JHJP1ESW6CGT3BSAF6M8KV336,6,5
249,3,object_01,object_02,298.89999997616,5,1,339.5,0.6666666666666666,1,object_07,1,3080,0,6,6,library_6,2,memory-2step-stake-s,750,3932869,0.0-19.0-0.1-0.249,A2UISTPVTDPOOG,3DW3BNF1HKYVNTMBZS7SV7ATLD58VQ,3FUI0JHJP1ESW6CGT3BSAF6M8KV336,5,6
250,2,object_03,object_06,730.89999997616,3,2,669.39999997616,0.7777777777777778,1,object_07,5,3115,0,7,7,forest_8,2,memory-2step-stake-s,751,3941461,0.0-19.0-0.1-0.250,A2UISTPVTDPOOG,3DW3BNF1HKYVNTMBZS7SV7ATLD58VQ,3FUI0JHJP1ESW6CGT3BSAF6M8KV336,4,3
251,1,object_08,object_05,373.79999995232,1,1,119.60000002384,0.5555555555555556,1,object_07,5,3140,0,5,8,desert_8,2,memory-2step-stake-s,752,3949304,0.0-19.0-0.1-0.251,A2UISTPVTDPOOG,3DW3BNF1HKYVNTMBZS7SV7ATLD58VQ,3FUI0JHJP1ESW6CGT3BSAF6M8KV336,1,2
252,3,object_02,object_01,385.5,5,2,485.70000004768,0.6666666666666666,1,object_07,1,3146,0,6,9,library_8,2,memory-2step-stake-s,753,3957609,0.0-19.0-0.1-0.252,A2UISTPVTDPOOG,3DW3BNF1HKYVNTMBZS7SV7ATLD58VQ,3FUI0JHJP1ESW6CGT3BSAF6M8KV336,6,5
253,1,object_08,object_05,404.79999995232,2,2,340.60000002384,0.6666666666666666,2,object_10,5,3176,0,3,6,desert_5,2,memory-2step-stake-s,754,3965770,0.0-19.0-0.1-0.253,A2UISTPVTDPOOG,3DW3BNF1HKYVNTMBZS7SV7ATLD58VQ,3FUI0JHJP1ESW6CGT3BSAF6M8KV336,1,2
254,1,object_05,object_08,401.70000004768,1,2,356.60000002384,0.0,1,object_07,1,3176,0,0,6,desert_8,2,memory-2step-stake-s,755,3973342,0.0-19.0-0.1-0.254,A2UISTPVTDPOOG,3DW3BNF1HKYVNTMBZS7SV7ATLD58VQ,3FUI0JHJP1ESW6CGT3BSAF6M8KV336,2,1
255,2,object_03,object_06,1264.8999999762,4,1,645.5,0.3333333333333333,2,object_10,1,3179,0,3,3,forest_5,2,memory-2step-stake-s,756,3981504,0.0-19.0-0.1-0.255,A2UISTPVTDPOOG,3DW3BNF1HKYVNTMBZS7SV7ATLD58VQ,3FUI0JHJP1ESW6CGT3BSAF6M8KV336,4,3
