,state1,stim_left,stim_right,rt_1,choice1,response1,rt_2,points,state2,stim_state2,stake,score,practice,rews1,rews2,background,high_arm,trial_type,trial_index,time_elapsed,internal_node_id,subid,hitid,assignmentid,stim_left_num,stim_right_num
0,1,object_01,object_04,1461.0,2,1,995.0,0.1111111111111111,2,object_03,1,1,0,8,1,desert_2,1,memory-2step-stake-s,491,1015832,0.0-19.0-0.0-0.0,AKP66RIZ3LQVX,3A3KKYU7Q6XNN7OKJ3M7MRU2CR5MWB,33UKMF931D02U484NXNAA5EIWJ8TTJ,2,1
1,4,object_09,object_07,1000.0,8,1,724.0,0.3333333333333333,2,object_03,5,16,0,7,3,restaurant_3,1,memory-2step-stake-s,492,1024065,0.0-19.0-0.0-0.1,AKP66RIZ3LQVX,3A3KKYU7Q6XNN7OKJ3M7MRU2CR5MWB,33UKMF931D02U484NXNAA5EIWJ8TTJ,8,7
2,2,object_10,object_05,739.0,4,2,193.0,0.3333333333333333,2,object_03,1,19,0,9,3,forest_5,1,memory-2step-stake-s,493,1031766,0.0-19.0-0.0-0.2,AKP66RIZ3LQVX,3A3KKYU7Q6XNN7OKJ3M7MRU2CR5MWB,33UKMF931D02U484NXNAA5EIWJ8TTJ,3,4
3,2,object_05,object_10,1387.0,3,2,1008.0,0.4444444444444444,1,object_08,1,23,0,4,3,forest_5,1,memory-2step-stake-s,494,1040381,0.0-19.0-0.0-0.3,AKP66RIZ3LQVX,3A3KKYU7Q6XNN7OKJ3M7MRU2CR5MWB,33UKMF931D02U484NXNAA5EIWJ8TTJ,4,3
4,2,object_05,object_10,1092.0,4,1,808.0,0.3333333333333333,2,object_03,1,26,0,4,3,forest_4,1,memory-2step-stake-s,495,1048696,0.0-19.0-0.0-0.4,AKP66RIZ3LQVX,3A3KKYU7Q6XNN7OKJ3M7MRU2CR5MWB,33UKMF931D02U484NXNAA5EIWJ8TTJ,4,3
5,4,object_09,object_07,978.0,7,2,682.0,0.4444444444444444,1,object_08,5,46,0,4,2,restaurant_3,1,memory-2step-stake-s,496,1056988,0.0-19.0-0.0-0.5,AKP66RIZ3LQVX,3A3KKYU7Q6XNN7OKJ3M7MRU2CR5MWB,33UKMF931D02U484NXNAA5EIWJ8TTJ,8,7
6,2,object_10,object_05,1311.0,3,1,1117.0,0.3333333333333333,1,object_08,1,49,0,3,0,forest_3,1,memory-2step-stake-s,497,1065610,0.0-19.0-0.0-0.6,AKP66RIZ3LQVX,3A3KKYU7Q6XNN7OKJ3M7MRU2CR5MWB,33UKMF931D02U484NXNAA5EIWJ8TTJ,3,4
7,4,object_07,object_09,787.0,8,2,788.0,0.2222222222222222,2,object_03,5,59,0,5,2,restaurant_3,1,memory-2step-stake-s,498,1073802,0.0-19.0-0.0-0.7,AKP66RIZ3LQVX,3A3KKYU7Q6XNN7OKJ3M7MRU2CR5MWB,33UKMF931D02U484NXNAA5EIWJ8TTJ,7,8
8,1,object_01,object_04,1038.0,1,2,820.0,0.4444444444444444,1,object_08,1,63,0,4,3,desert_2,1,memory-2step-stake-s,499,1082233,0.0-19.0-0.0-0.8,AKP66RIZ3LQVX,3A3KKYU7Q6XNN7OKJ3M7MRU2CR5MWB,33UKMF931D02U484NXNAA5EIWJ8TTJ,2,1
9,4,object_09,object_07,984.0,7,2,772.0,0.2222222222222222,1,object_08,5,73,0,2,3,restaurant_3,1,memory-2step-stake-s,500,1090413,0.0-19.0-0.0-0.9,AKP66RIZ3LQVX,3A3KKYU7Q6XNN7OKJ3M7MRU2CR5MWB,33UKMF931D02U484NXNAA5EIWJ8TTJ,8,7
10,4,object_07,object_09,523.0,7,1,771.0,0.4444444444444444,1,object_08,5,93,0,4,5,restaurant_6,1,memory-2step-stake-s,501,1098790,0.0-19.0-0.0-0.10,AKP66RIZ3LQVX,3A3KKYU7Q6XNN7OKJ3M7MRU2CR5MWB,33UKMF931D02U484NXNAA5EIWJ8TTJ,7,8
11,1,object_04,object_01,-1.0,-1,-1,-1.0,0.0,-,0,5,93,0,2,4,desert_4,1,memory-2step-stake-s,502,1105293,0.0-19.0-0.0-0.11,AKP66RIZ3LQVX,3A3KKYU7Q6XNN7OKJ3M7MRU2CR5MWB,33UKMF931D02U484NXNAA5EIWJ8TTJ,1,2
12,3,object_06,object_02,380.0,5,1,636.0,0.1111111111111111,1,object_08,1,94,0,1,5,library_6,1,memory-2step-stake-s,503,1113236,0.0-19.0-0.0-0.12,AKP66RIZ3LQVX,3A3KKYU7Q6XNN7OKJ3M7MRU2CR5MWB,33UKMF931D02U484NXNAA5EIWJ8TTJ,5,6
13,4,object_09,object_07,1124.0,7,2,852.0,0.1111111111111111,1,object_08,5,99,0,1,7,restaurant_6,1,memory-2step-stake-s,504,1121396,0.0-19.0-0.0-0.13,AKP66RIZ3LQVX,3A3KKYU7Q6XNN7OKJ3M7MRU2CR5MWB,33UKMF931D02U484NXNAA5EIWJ8TTJ,8,7
14,1,object_04,object_01,712.0,2,2,857.0,1.0,2,object_03,1,108,0,2,9,desert_2,1,memory-2step-stake-s,505,1130362,0.0-19.0-0.0-0.14,AKP66RIZ3LQVX,3A3KKYU7Q6XNN7OKJ3M7MRU2CR5MWB,33UKMF931D02U484NXNAA5EIWJ8TTJ,1,2
15,1,object_01,object_04,756.0,2,1,575.0,0.6666666666666666,2,object_03,1,114,0,1,6,desert_4,1,memory-2step-stake-s,506,1138744,0.0-19.0-0.0-0.15,AKP66RIZ3LQVX,3A3KKYU7Q6XNN7OKJ3M7MRU2CR5MWB,33UKMF931D02U484NXNAA5EIWJ8TTJ,2,1
16,4,object_09,object_07,-1.0,-1,-1,-1.0,0.0,-,0,5,114,0,5,8,restaurant_3,1,memory-2step-stake-s,507,1145247,0.0-19.0-0.0-0.16,AKP66RIZ3LQVX,3A3KKYU7Q6XNN7OKJ3M7MRU2CR5MWB,33UKMF931D02U484NXNAA5EIWJ8TTJ,8,7
17,3,object_02,object_06,408.0,5,2,506.0,0.3333333333333333,1,object_08,5,129,0,3,8,library_3,1,memory-2step-stake-s,508,1153262,0.0-19.0-0.0-0.17,AKP66RIZ3LQVX,3A3KKYU7Q6XNN7OKJ3M7MRU2CR5MWB,33UKMF931D02U484NXNAA5EIWJ8TTJ,6,5
18,4,object_07,object_09,677.0,7,1,564.0,0.1111111111111111,1,object_08,5,134,0,1,9,restaurant_6,1,memory-2step-stake-s,509,1161137,0.0-19.0-0.0-0.18,AKP66RIZ3LQVX,3A3KKYU7Q6XNN7OKJ3M7MRU2CR5MWB,33UKMF931D02U484NXNAA5EIWJ8TTJ,7,8
19,3,object_02,object_06,683.0,6,1,641.0,1.0,2,object_03,5,179,0,0,9,library_2,1,memory-2step-stake-s,510,1169890,0.0-19.0-0.0-0.19,AKP66RIZ3LQVX,3A3KKYU7Q6XNN7OKJ3M7MRU2CR5MWB,33UKMF931D02U484NXNAA5EIWJ8TTJ,6,5
20,2,object_10,object_05,562.0,4,2,512.0,0.5555555555555556,2,object_03,1,184,0,1,5,forest_3,1,memory-2step-stake-s,511,1178109,0.0-19.0-0.0-0.20,AKP66RIZ3LQVX,3A3KKYU7Q6XNN7OKJ3M7MRU2CR5MWB,33UKMF931D02U484NXNAA5EIWJ8TTJ,3,4
21,4,object_07,object_09,790.0,8,2,578.0,0.2222222222222222,2,object_03,5,194,0,4,2,restaurant_8,1,memory-2step-stake-s,512,1186095,0.0-19.0-0.0-0.21,AKP66RIZ3LQVX,3A3KKYU7Q6XNN7OKJ3M7MRU2CR5MWB,33UKMF931D02U484NXNAA5EIWJ8TTJ,7,8
22,4,object_07,object_09,866.0,8,2,798.0,0.1111111111111111,2,object_03,1,195,0,3,1,restaurant_2,1,memory-2step-stake-s,513,1194202,0.0-19.0-0.0-0.22,AKP66RIZ3LQVX,3A3KKYU7Q6XNN7OKJ3M7MRU2CR5MWB,33UKMF931D02U484NXNAA5EIWJ8TTJ,7,8
23,1,object_01,object_04,846.0,2,1,603.0,0.3333333333333333,2,object_03,1,198,0,3,3,desert_7,1,memory-2step-stake-s,514,1202313,0.0-19.0-0.0-0.23,AKP66RIZ3LQVX,3A3KKYU7Q6XNN7OKJ3M7MRU2CR5MWB,33UKMF931D02U484NXNAA5EIWJ8TTJ,2,1
24,2,object_10,object_05,559.0,4,2,614.0,0.0,2,object_03,5,198,0,3,0,forest_7,1,memory-2step-stake-s,515,1210134,0.0-19.0-0.0-0.24,AKP66RIZ3LQVX,3A3KKYU7Q6XNN7OKJ3M7MRU2CR5MWB,33UKMF931D02U484NXNAA5EIWJ8TTJ,3,4
25,4,object_07,object_09,750.0,7,1,642.0,0.1111111111111111,1,object_08,5,203,0,1,1,restaurant_8,1,memory-2step-stake-s,516,1218083,0.0-19.0-0.0-0.25,AKP66RIZ3LQVX,3A3KKYU7Q6XNN7OKJ3M7MRU2CR5MWB,33UKMF931D02U484NXNAA5EIWJ8TTJ,7,8
26,3,object_02,object_06,724.0,6,1,489.0,0.1111111111111111,2,object_03,5,208,0,1,1,library_6,1,memory-2step-stake-s,517,1225878,0.0-19.0-0.0-0.26,AKP66RIZ3LQVX,3A3KKYU7Q6XNN7OKJ3M7MRU2CR5MWB,33UKMF931D02U484NXNAA5EIWJ8TTJ,6,5
27,2,object_05,object_10,667.0,3,2,670.0,0.5555555555555556,1,object_08,1,213,0,5,1,forest_7,1,memory-2step-stake-s,518,1234254,0.0-19.0-0.0-0.27,AKP66RIZ3LQVX,3A3KKYU7Q6XNN7OKJ3M7MRU2CR5MWB,33UKMF931D02U484NXNAA5EIWJ8TTJ,4,3
28,3,object_02,object_06,703.0,5,2,494.0,0.5555555555555556,1,object_08,5,238,0,5,3,library_4,1,memory-2step-stake-s,519,1242458,0.0-19.0-0.0-0.28,AKP66RIZ3LQVX,3A3KKYU7Q6XNN7OKJ3M7MRU2CR5MWB,33UKMF931D02U484NXNAA5EIWJ8TTJ,6,5
29,2,object_10,object_05,794.0,3,1,626.0,0.8888888888888888,1,object_08,1,246,0,8,5,forest_7,1,memory-2step-stake-s,520,1251091,0.0-19.0-0.0-0.29,AKP66RIZ3LQVX,3A3KKYU7Q6XNN7OKJ3M7MRU2CR5MWB,33UKMF931D02U484NXNAA5EIWJ8TTJ,3,4
30,1,object_01,object_04,914.0,1,2,794.0,0.7777777777777778,1,object_08,1,253,0,7,6,desert_4,1,memory-2step-stake-s,521,1259793,0.0-19.0-0.0-0.30,AKP66RIZ3LQVX,3A3KKYU7Q6XNN7OKJ3M7MRU2CR5MWB,33UKMF931D02U484NXNAA5EIWJ8TTJ,2,1
31,2,object_10,object_05,723.0,3,1,843.0,0.8888888888888888,1,object_08,1,261,0,8,3,forest_4,1,memory-2step-stake-s,522,1268646,0.0-19.0-0.0-0.31,AKP66RIZ3LQVX,3A3KKYU7Q6XNN7OKJ3M7MRU2CR5MWB,33UKMF931D02U484NXNAA5EIWJ8TTJ,3,4
32,2,object_10,object_05,726.0,3,1,672.0,0.6666666666666666,1,object_08,1,267,0,6,3,forest_3,1,memory-2step-stake-s,523,1277122,0.0-19.0-0.0-0.32,AKP66RIZ3LQVX,3A3KKYU7Q6XNN7OKJ3M7MRU2CR5MWB,33UKMF931D02U484NXNAA5EIWJ8TTJ,3,4
33,2,object_10,object_05,562.0,3,1,491.0,0.5555555555555556,1,object_08,5,292,0,5,2,forest_5,1,memory-2step-stake-s,524,1285321,0.0-19.0-0.0-0.33,AKP66RIZ3LQVX,3A3KKYU7Q6XNN7OKJ3M7MRU2CR5MWB,33UKMF931D02U484NXNAA5EIWJ8TTJ,3,4
34,3,object_06,object_02,613.0,5,1,722.0,0.7777777777777778,1,object_08,5,327,0,7,0,library_2,1,memory-2step-stake-s,525,1293949,0.0-19.0-0.0-0.34,AKP66RIZ3LQVX,3A3KKYU7Q6XNN7OKJ3M7MRU2CR5MWB,33UKMF931D02U484NXNAA5EIWJ8TTJ,5,6
35,1,object_04,object_01,580.0,1,1,608.0,0.8888888888888888,1,object_08,1,335,0,8,1,desert_4,1,memory-2step-stake-s,526,1302565,0.0-19.0-0.0-0.35,AKP66RIZ3LQVX,3A3KKYU7Q6XNN7OKJ3M7MRU2CR5MWB,33UKMF931D02U484NXNAA5EIWJ8TTJ,1,2
36,2,object_10,object_05,691.0,3,1,516.0,0.5555555555555556,1,object_08,5,360,0,5,1,forest_4,1,memory-2step-stake-s,527,1310789,0.0-19.0-0.0-0.36,AKP66RIZ3LQVX,3A3KKYU7Q6XNN7OKJ3M7MRU2CR5MWB,33UKMF931D02U484NXNAA5EIWJ8TTJ,3,4
37,4,object_07,object_09,983.0,8,2,681.0,0.1111111111111111,2,object_03,5,365,0,6,1,restaurant_6,1,memory-2step-stake-s,528,1318776,0.0-19.0-0.0-0.37,AKP66RIZ3LQVX,3A3KKYU7Q6XNN7OKJ3M7MRU2CR5MWB,33UKMF931D02U484NXNAA5EIWJ8TTJ,7,8
38,3,object_02,object_06,870.0,5,2,605.0,0.7777777777777778,1,object_08,5,400,0,7,4,library_2,1,memory-2step-stake-s,529,1327290,0.0-19.0-0.0-0.38,AKP66RIZ3LQVX,3A3KKYU7Q6XNN7OKJ3M7MRU2CR5MWB,33UKMF931D02U484NXNAA5EIWJ8TTJ,6,5
39,3,object_02,object_06,680.0,5,2,539.0,0.4444444444444444,1,object_08,1,404,0,4,6,library_2,1,memory-2step-stake-s,530,1335441,0.0-19.0-0.0-0.39,AKP66RIZ3LQVX,3A3KKYU7Q6XNN7OKJ3M7MRU2CR5MWB,33UKMF931D02U484NXNAA5EIWJ8TTJ,6,5
40,2,object_10,object_05,711.0,3,1,733.0,0.4444444444444444,1,object_08,1,408,0,4,7,forest_5,1,memory-2step-stake-s,531,1343780,0.0-19.0-0.0-0.40,AKP66RIZ3LQVX,3A3KKYU7Q6XNN7OKJ3M7MRU2CR5MWB,33UKMF931D02U484NXNAA5EIWJ8TTJ,3,4
41,3,object_06,object_02,681.0,5,1,198.0,0.2222222222222222,1,object_08,1,410,0,2,4,library_3,1,memory-2step-stake-s,532,1351385,0.0-19.0-0.0-0.41,AKP66RIZ3LQVX,3A3KKYU7Q6XNN7OKJ3M7MRU2CR5MWB,33UKMF931D02U484NXNAA5EIWJ8TTJ,5,6
42,2,object_05,object_10,609.0,3,2,559.0,0.6666666666666666,1,object_08,5,440,0,6,3,forest_7,1,memory-2step-stake-s,533,1359749,0.0-19.0-0.0-0.42,AKP66RIZ3LQVX,3A3KKYU7Q6XNN7OKJ3M7MRU2CR5MWB,33UKMF931D02U484NXNAA5EIWJ8TTJ,4,3
43,2,object_10,object_05,430.0,3,1,494.0,0.6666666666666666,1,object_08,1,446,0,6,4,forest_3,1,memory-2step-stake-s,534,1368050,0.0-19.0-0.0-0.43,AKP66RIZ3LQVX,3A3KKYU7Q6XNN7OKJ3M7MRU2CR5MWB,33UKMF931D02U484NXNAA5EIWJ8TTJ,3,4
44,4,object_09,object_07,1138.0,8,1,744.0,0.8888888888888888,2,object_03,5,486,0,8,8,restaurant_2,1,memory-2step-stake-s,535,1376800,0.0-19.0-0.0-0.44,AKP66RIZ3LQVX,3A3KKYU7Q6XNN7OKJ3M7MRU2CR5MWB,33UKMF931D02U484NXNAA5EIWJ8TTJ,8,7
45,3,object_02,object_06,731.0,6,1,561.0,0.5555555555555556,2,object_03,5,511,0,6,5,library_2,1,memory-2step-stake-s,536,1385067,0.0-19.0-0.0-0.45,AKP66RIZ3LQVX,3A3KKYU7Q6XNN7OKJ3M7MRU2CR5MWB,33UKMF931D02U484NXNAA5EIWJ8TTJ,6,5
46,1,object_01,object_04,666.0,1,2,733.0,0.5555555555555556,1,object_08,5,536,0,5,4,desert_4,1,memory-2step-stake-s,537,1393511,0.0-19.0-0.0-0.46,AKP66RIZ3LQVX,3A3KKYU7Q6XNN7OKJ3M7MRU2CR5MWB,33UKMF931D02U484NXNAA5EIWJ8TTJ,2,1
47,1,object_01,object_04,544.0,1,2,612.0,0.6666666666666666,1,object_08,1,542,0,6,5,desert_2,1,memory-2step-stake-s,538,1401932,0.0-19.0-0.0-0.47,AKP66RIZ3LQVX,3A3KKYU7Q6XNN7OKJ3M7MRU2CR5MWB,33UKMF931D02U484NXNAA5EIWJ8TTJ,2,1
48,1,object_04,object_01,564.0,1,1,600.0,0.7777777777777778,1,object_08,1,549,0,7,5,desert_8,1,memory-2step-stake-s,539,1410439,0.0-19.0-0.0-0.48,AKP66RIZ3LQVX,3A3KKYU7Q6XNN7OKJ3M7MRU2CR5MWB,33UKMF931D02U484NXNAA5EIWJ8TTJ,1,2
49,2,object_05,object_10,609.0,4,1,537.0,0.7777777777777778,2,object_03,1,556,0,5,7,forest_5,1,memory-2step-stake-s,540,1418884,0.0-19.0-0.0-0.49,AKP66RIZ3LQVX,3A3KKYU7Q6XNN7OKJ3M7MRU2CR5MWB,33UKMF931D02U484NXNAA5EIWJ8TTJ,4,3
50,2,object_10,object_05,587.0,3,1,710.0,0.6666666666666666,1,object_08,1,562,0,6,6,forest_7,1,memory-2step-stake-s,541,1427400,0.0-19.0-0.0-0.50,AKP66RIZ3LQVX,3A3KKYU7Q6XNN7OKJ3M7MRU2CR5MWB,33UKMF931D02U484NXNAA5EIWJ8TTJ,3,4
51,3,object_06,object_02,800.0,6,2,807.0,0.7777777777777778,2,object_03,5,597,0,5,7,library_4,1,memory-2step-stake-s,542,1436117,0.0-19.0-0.0-0.51,AKP66RIZ3LQVX,3A3KKYU7Q6XNN7OKJ3M7MRU2CR5MWB,33UKMF931D02U484NXNAA5EIWJ8TTJ,5,6
52,3,object_02,object_06,667.0,6,1,604.0,0.7777777777777778,2,object_03,5,632,0,9,7,library_6,1,memory-2step-stake-s,543,1444629,0.0-19.0-0.0-0.52,AKP66RIZ3LQVX,3A3KKYU7Q6XNN7OKJ3M7MRU2CR5MWB,33UKMF931D02U484NXNAA5EIWJ8TTJ,6,5
53,1,object_01,object_04,662.0,1,2,589.0,0.7777777777777778,1,object_08,1,639,0,7,6,desert_2,1,memory-2step-stake-s,544,1453128,0.0-19.0-0.0-0.53,AKP66RIZ3LQVX,3A3KKYU7Q6XNN7OKJ3M7MRU2CR5MWB,33UKMF931D02U484NXNAA5EIWJ8TTJ,2,1
54,1,object_01,object_04,654.0,1,2,559.0,0.7777777777777778,1,object_08,1,646,0,7,4,desert_8,1,memory-2step-stake-s,545,1461592,0.0-19.0-0.0-0.54,AKP66RIZ3LQVX,3A3KKYU7Q6XNN7OKJ3M7MRU2CR5MWB,33UKMF931D02U484NXNAA5EIWJ8TTJ,2,1
55,4,object_07,object_09,805.0,7,1,511.0,0.8888888888888888,1,object_08,5,686,0,8,2,restaurant_3,1,memory-2step-stake-s,546,1470112,0.0-19.0-0.0-0.55,AKP66RIZ3LQVX,3A3KKYU7Q6XNN7OKJ3M7MRU2CR5MWB,33UKMF931D02U484NXNAA5EIWJ8TTJ,7,8
56,1,object_01,object_04,760.0,2,1,477.0,0.2222222222222222,2,object_03,1,688,0,9,2,desert_8,1,memory-2step-stake-s,547,1477993,0.0-19.0-0.0-0.56,AKP66RIZ3LQVX,3A3KKYU7Q6XNN7OKJ3M7MRU2CR5MWB,33UKMF931D02U484NXNAA5EIWJ8TTJ,2,1
57,1,object_01,object_04,598.0,1,2,483.0,0.6666666666666666,1,object_08,5,718,0,6,1,desert_4,1,memory-2step-stake-s,548,1486283,0.0-19.0-0.0-0.57,AKP66RIZ3LQVX,3A3KKYU7Q6XNN7OKJ3M7MRU2CR5MWB,33UKMF931D02U484NXNAA5EIWJ8TTJ,2,1
58,1,object_01,object_04,607.0,1,2,461.0,0.6666666666666666,1,object_08,1,724,0,6,2,desert_2,1,memory-2step-stake-s,549,1494552,0.0-19.0-0.0-0.58,AKP66RIZ3LQVX,3A3KKYU7Q6XNN7OKJ3M7MRU2CR5MWB,33UKMF931D02U484NXNAA5EIWJ8TTJ,2,1
59,3,object_02,object_06,549.0,5,2,428.0,0.5555555555555556,1,object_08,5,749,0,5,1,library_4,1,memory-2step-stake-s,550,1502686,0.0-19.0-0.0-0.59,AKP66RIZ3LQVX,3A3KKYU7Q6XNN7OKJ3M7MRU2CR5MWB,33UKMF931D02U484NXNAA5EIWJ8TTJ,6,5
60,3,object_02,object_06,661.0,5,2,514.0,0.5555555555555556,1,object_08,5,774,0,5,2,library_6,1,memory-2step-stake-s,551,1510910,0.0-19.0-0.0-0.60,AKP66RIZ3LQVX,3A3KKYU7Q6XNN7OKJ3M7MRU2CR5MWB,33UKMF931D02U484NXNAA5EIWJ8TTJ,6,5
61,1,object_01,object_04,786.0,2,1,492.0,0.3333333333333333,2,object_03,1,777,0,4,3,desert_7,1,memory-2step-stake-s,552,1518907,0.0-19.0-0.0-0.61,AKP66RIZ3LQVX,3A3KKYU7Q6XNN7OKJ3M7MRU2CR5MWB,33UKMF931D02U484NXNAA5EIWJ8TTJ,2,1
62,2,object_05,object_10,1127.0,3,2,839.0,0.6666666666666666,1,object_08,1,783,0,6,0,forest_7,1,memory-2step-stake-s,553,1527557,0.0-19.0-0.0-0.62,AKP66RIZ3LQVX,3A3KKYU7Q6XNN7OKJ3M7MRU2CR5MWB,33UKMF931D02U484NXNAA5EIWJ8TTJ,4,3
63,4,object_09,object_07,959.0,7,2,831.0,0.6666666666666666,1,object_08,1,789,0,6,2,restaurant_6,1,memory-2step-stake-s,554,1536197,0.0-19.0-0.0-0.63,AKP66RIZ3LQVX,3A3KKYU7Q6XNN7OKJ3M7MRU2CR5MWB,33UKMF931D02U484NXNAA5EIWJ8TTJ,8,7
64,4,object_07,object_09,864.0,7,1,606.0,0.8888888888888888,1,object_08,5,829,0,8,1,restaurant_8,1,memory-2step-stake-s,555,1544811,0.0-19.0-0.0-0.64,AKP66RIZ3LQVX,3A3KKYU7Q6XNN7OKJ3M7MRU2CR5MWB,33UKMF931D02U484NXNAA5EIWJ8TTJ,7,8
65,2,object_10,object_05,555.0,3,1,523.0,0.7777777777777778,1,object_08,1,836,0,7,0,forest_4,1,memory-2step-stake-s,556,1553243,0.0-19.0-0.0-0.65,AKP66RIZ3LQVX,3A3KKYU7Q6XNN7OKJ3M7MRU2CR5MWB,33UKMF931D02U484NXNAA5EIWJ8TTJ,3,4
66,3,object_06,object_02,726.0,5,1,431.0,1.0,1,object_08,5,881,0,9,0,library_4,1,memory-2step-stake-s,557,1561784,0.0-19.0-0.0-0.66,AKP66RIZ3LQVX,3A3KKYU7Q6XNN7OKJ3M7MRU2CR5MWB,33UKMF931D02U484NXNAA5EIWJ8TTJ,5,6
67,4,object_09,object_07,697.0,7,2,473.0,1.0,1,object_08,5,926,0,9,4,restaurant_6,1,memory-2step-stake-s,558,1570369,0.0-19.0-0.0-0.67,AKP66RIZ3LQVX,3A3KKYU7Q6XNN7OKJ3M7MRU2CR5MWB,33UKMF931D02U484NXNAA5EIWJ8TTJ,8,7
68,4,object_09,object_07,796.0,7,2,530.0,1.0,1,object_08,5,971,0,9,3,restaurant_6,1,memory-2step-stake-s,559,1579008,0.0-19.0-0.0-0.68,AKP66RIZ3LQVX,3A3KKYU7Q6XNN7OKJ3M7MRU2CR5MWB,33UKMF931D02U484NXNAA5EIWJ8TTJ,8,7
69,3,object_02,object_06,608.0,5,2,1125.0,0.8888888888888888,1,object_08,5,1011,0,8,1,library_6,1,memory-2step-stake-s,560,1588142,0.0-19.0-0.0-0.69,AKP66RIZ3LQVX,3A3KKYU7Q6XNN7OKJ3M7MRU2CR5MWB,33UKMF931D02U484NXNAA5EIWJ8TTJ,6,5
70,1,object_01,object_04,674.0,1,2,356.0,0.7777777777777778,1,object_08,1,1018,0,7,5,desert_4,1,memory-2step-stake-s,561,1596406,0.0-19.0-0.0-0.70,AKP66RIZ3LQVX,3A3KKYU7Q6XNN7OKJ3M7MRU2CR5MWB,33UKMF931D02U484NXNAA5EIWJ8TTJ,2,1
71,3,object_02,object_06,537.0,5,2,367.0,0.7777777777777778,1,object_08,5,1053,0,7,7,library_3,1,memory-2step-stake-s,562,1604685,0.0-19.0-0.0-0.71,AKP66RIZ3LQVX,3A3KKYU7Q6XNN7OKJ3M7MRU2CR5MWB,33UKMF931D02U484NXNAA5EIWJ8TTJ,6,5
72,2,object_10,object_05,544.0,3,1,473.0,0.8888888888888888,1,object_08,1,1061,0,8,7,forest_4,1,memory-2step-stake-s,563,1613164,0.0-19.0-0.0-0.72,AKP66RIZ3LQVX,3A3KKYU7Q6XNN7OKJ3M7MRU2CR5MWB,33UKMF931D02U484NXNAA5EIWJ8TTJ,3,4
73,2,object_10,object_05,647.0,3,1,329.0,1.0,1,object_08,5,1106,0,9,5,forest_3,1,memory-2step-stake-s,564,1621600,0.0-19.0-0.0-0.73,AKP66RIZ3LQVX,3A3KKYU7Q6XNN7OKJ3M7MRU2CR5MWB,33UKMF931D02U484NXNAA5EIWJ8TTJ,3,4
74,3,object_02,object_06,549.0,5,2,532.0,0.8888888888888888,1,object_08,5,1146,0,8,5,library_2,1,memory-2step-stake-s,565,1630140,0.0-19.0-0.0-0.74,AKP66RIZ3LQVX,3A3KKYU7Q6XNN7OKJ3M7MRU2CR5MWB,33UKMF931D02U484NXNAA5EIWJ8TTJ,6,5
75,3,object_02,object_06,459.0,5,2,423.0,0.8888888888888888,1,object_08,5,1186,0,8,7,library_3,1,memory-2step-stake-s,566,1638572,0.0-19.0-0.0-0.75,AKP66RIZ3LQVX,3A3KKYU7Q6XNN7OKJ3M7MRU2CR5MWB,33UKMF931D02U484NXNAA5EIWJ8TTJ,6,5
76,1,object_01,object_04,589.0,1,2,501.0,0.7777777777777778,1,object_08,1,1193,0,7,6,desert_2,1,memory-2step-stake-s,567,1646983,0.0-19.0-0.0-0.76,AKP66RIZ3LQVX,3A3KKYU7Q6XNN7OKJ3M7MRU2CR5MWB,33UKMF931D02U484NXNAA5EIWJ8TTJ,2,1
77,4,object_07,object_09,689.0,7,1,1048.0,0.7777777777777778,1,object_08,5,1228,0,7,1,restaurant_8,1,memory-2step-stake-s,568,1655943,0.0-19.0-0.0-0.77,AKP66RIZ3LQVX,3A3KKYU7Q6XNN7OKJ3M7MRU2CR5MWB,33UKMF931D02U484NXNAA5EIWJ8TTJ,7,8
78,1,object_01,object_04,751.0,1,2,491.0,0.5555555555555556,1,object_08,1,1233,0,5,2,desert_2,1,memory-2step-stake-s,569,1664140,0.0-19.0-0.0-0.78,AKP66RIZ3LQVX,3A3KKYU7Q6XNN7OKJ3M7MRU2CR5MWB,33UKMF931D02U484NXNAA5EIWJ8TTJ,2,1
79,1,object_04,object_01,973.0,1,1,509.0,0.8888888888888888,1,object_08,5,1273,0,8,2,desert_7,1,memory-2step-stake-s,570,1672656,0.0-19.0-0.0-0.79,AKP66RIZ3LQVX,3A3KKYU7Q6XNN7OKJ3M7MRU2CR5MWB,33UKMF931D02U484NXNAA5EIWJ8TTJ,1,2
80,4,object_09,object_07,705.0,7,2,459.0,0.6666666666666666,1,object_08,1,1279,0,6,4,restaurant_2,1,memory-2step-stake-s,571,1680925,0.0-19.0-0.0-0.80,AKP66RIZ3LQVX,3A3KKYU7Q6XNN7OKJ3M7MRU2CR5MWB,33UKMF931D02U484NXNAA5EIWJ8TTJ,8,7
81,3,object_02,object_06,444.0,5,2,412.0,0.4444444444444444,1,object_08,5,1299,0,4,4,library_2,1,memory-2step-stake-s,572,1688942,0.0-19.0-0.0-0.81,AKP66RIZ3LQVX,3A3KKYU7Q6XNN7OKJ3M7MRU2CR5MWB,33UKMF931D02U484NXNAA5EIWJ8TTJ,6,5
82,2,object_05,object_10,610.0,3,2,345.0,0.5555555555555556,1,object_08,1,1304,0,5,2,forest_4,1,memory-2step-stake-s,573,1696998,0.0-19.0-0.0-0.82,AKP66RIZ3LQVX,3A3KKYU7Q6XNN7OKJ3M7MRU2CR5MWB,33UKMF931D02U484NXNAA5EIWJ8TTJ,4,3
83,2,object_05,object_10,420.0,3,2,299.0,0.5555555555555556,1,object_08,1,1309,0,5,2,forest_4,1,memory-2step-stake-s,574,1705005,0.0-19.0-0.0-0.83,AKP66RIZ3LQVX,3A3KKYU7Q6XNN7OKJ3M7MRU2CR5MWB,33UKMF931D02U484NXNAA5EIWJ8TTJ,4,3
84,3,object_06,object_02,628.0,5,1,454.0,0.7777777777777778,1,object_08,5,1344,0,7,2,library_6,1,memory-2step-stake-s,575,1713365,0.0-19.0-0.0-0.84,AKP66RIZ3LQVX,3A3KKYU7Q6XNN7OKJ3M7MRU2CR5MWB,33UKMF931D02U484NXNAA5EIWJ8TTJ,5,6
85,4,object_09,object_07,786.0,7,2,291.0,0.6666666666666666,1,object_08,5,1374,0,6,2,restaurant_3,1,memory-2step-stake-s,576,1721466,0.0-19.0-0.0-0.85,AKP66RIZ3LQVX,3A3KKYU7Q6XNN7OKJ3M7MRU2CR5MWB,33UKMF931D02U484NXNAA5EIWJ8TTJ,8,7
86,3,object_06,object_02,642.0,5,1,473.0,0.4444444444444444,1,object_08,1,1378,0,4,4,library_4,1,memory-2step-stake-s,577,1729549,0.0-19.0-0.0-0.86,AKP66RIZ3LQVX,3A3KKYU7Q6XNN7OKJ3M7MRU2CR5MWB,33UKMF931D02U484NXNAA5EIWJ8TTJ,5,6
87,4,object_09,object_07,635.0,7,2,468.0,0.5555555555555556,1,object_08,5,1403,0,5,8,restaurant_6,1,memory-2step-stake-s,578,1737732,0.0-19.0-0.0-0.87,AKP66RIZ3LQVX,3A3KKYU7Q6XNN7OKJ3M7MRU2CR5MWB,33UKMF931D02U484NXNAA5EIWJ8TTJ,8,7
88,2,object_10,object_05,679.0,3,1,504.0,0.2222222222222222,1,object_08,1,1405,0,2,8,forest_3,1,memory-2step-stake-s,579,1745643,0.0-19.0-0.0-0.88,AKP66RIZ3LQVX,3A3KKYU7Q6XNN7OKJ3M7MRU2CR5MWB,33UKMF931D02U484NXNAA5EIWJ8TTJ,3,4
89,3,object_06,object_02,635.0,5,1,519.0,0.4444444444444444,1,object_08,5,1425,0,4,8,library_6,1,memory-2step-stake-s,580,1753770,0.0-19.0-0.0-0.89,AKP66RIZ3LQVX,3A3KKYU7Q6XNN7OKJ3M7MRU2CR5MWB,33UKMF931D02U484NXNAA5EIWJ8TTJ,5,6
90,3,object_02,object_06,551.0,5,2,408.0,0.6666666666666666,1,object_08,5,1455,0,6,4,library_3,1,memory-2step-stake-s,581,1761989,0.0-19.0-0.0-0.90,AKP66RIZ3LQVX,3A3KKYU7Q6XNN7OKJ3M7MRU2CR5MWB,33UKMF931D02U484NXNAA5EIWJ8TTJ,6,5
91,3,object_06,object_02,616.0,5,1,402.0,0.6666666666666666,1,object_08,5,1485,0,6,0,library_6,1,memory-2step-stake-s,582,1770197,0.0-19.0-0.0-0.91,AKP66RIZ3LQVX,3A3KKYU7Q6XNN7OKJ3M7MRU2CR5MWB,33UKMF931D02U484NXNAA5EIWJ8TTJ,5,6
92,3,object_02,object_06,423.0,5,2,416.0,0.6666666666666666,1,object_08,1,1491,0,6,2,library_4,1,memory-2step-stake-s,583,1778421,0.0-19.0-0.0-0.92,AKP66RIZ3LQVX,3A3KKYU7Q6XNN7OKJ3M7MRU2CR5MWB,33UKMF931D02U484NXNAA5EIWJ8TTJ,6,5
93,4,object_09,object_07,759.0,7,2,412.0,0.7777777777777778,1,object_08,5,1526,0,7,3,restaurant_8,1,memory-2step-stake-s,584,1786741,0.0-19.0-0.0-0.93,AKP66RIZ3LQVX,3A3KKYU7Q6XNN7OKJ3M7MRU2CR5MWB,33UKMF931D02U484NXNAA5EIWJ8TTJ,8,7
94,4,object_09,object_07,474.0,7,2,333.0,0.8888888888888888,1,object_08,1,1534,0,8,3,restaurant_3,1,memory-2step-stake-s,585,1795081,0.0-19.0-0.0-0.94,AKP66RIZ3LQVX,3A3KKYU7Q6XNN7OKJ3M7MRU2CR5MWB,33UKMF931D02U484NXNAA5EIWJ8TTJ,8,7
95,3,object_02,object_06,521.0,5,2,516.0,0.7777777777777778,1,object_08,1,1541,0,7,0,library_3,1,memory-2step-stake-s,586,1803503,0.0-19.0-0.0-0.95,AKP66RIZ3LQVX,3A3KKYU7Q6XNN7OKJ3M7MRU2CR5MWB,33UKMF931D02U484NXNAA5EIWJ8TTJ,6,5
96,4,object_07,object_09,646.0,7,1,546.0,0.6666666666666666,1,object_08,5,1571,0,6,0,restaurant_8,1,memory-2step-stake-s,587,1811857,0.0-19.0-0.0-0.96,AKP66RIZ3LQVX,3A3KKYU7Q6XNN7OKJ3M7MRU2CR5MWB,33UKMF931D02U484NXNAA5EIWJ8TTJ,7,8
97,3,object_02,object_06,577.0,5,2,297.0,0.6666666666666666,1,object_08,1,1577,0,6,0,library_4,1,memory-2step-stake-s,588,1819965,0.0-19.0-0.0-0.97,AKP66RIZ3LQVX,3A3KKYU7Q6XNN7OKJ3M7MRU2CR5MWB,33UKMF931D02U484NXNAA5EIWJ8TTJ,6,5
98,1,object_04,object_01,772.0,2,2,369.0,0.1111111111111111,2,object_03,1,1578,0,4,1,desert_8,1,memory-2step-stake-s,589,1827637,0.0-19.0-0.0-0.98,AKP66RIZ3LQVX,3A3KKYU7Q6XNN7OKJ3M7MRU2CR5MWB,33UKMF931D02U484NXNAA5EIWJ8TTJ,1,2
99,1,object_01,object_04,670.0,1,2,351.0,0.2222222222222222,1,object_08,1,1580,0,2,1,desert_7,1,memory-2step-stake-s,590,1835394,0.0-19.0-0.0-0.99,AKP66RIZ3LQVX,3A3KKYU7Q6XNN7OKJ3M7MRU2CR5MWB,33UKMF931D02U484NXNAA5EIWJ8TTJ,2,1
100,1,object_04,object_01,778.0,1,1,407.0,0.2222222222222222,1,object_08,1,1582,0,2,3,desert_4,1,memory-2step-stake-s,591,1843206,0.0-19.0-0.0-0.100,AKP66RIZ3LQVX,3A3KKYU7Q6XNN7OKJ3M7MRU2CR5MWB,33UKMF931D02U484NXNAA5EIWJ8TTJ,1,2
101,2,object_05,object_10,683.0,4,1,336.0,0.5555555555555556,2,object_03,1,1587,0,1,5,forest_7,1,memory-2step-stake-s,592,1851248,0.0-19.0-0.0-0.101,AKP66RIZ3LQVX,3A3KKYU7Q6XNN7OKJ3M7MRU2CR5MWB,33UKMF931D02U484NXNAA5EIWJ8TTJ,4,3
102,1,object_04,object_01,706.0,2,2,1023.0,0.6666666666666666,2,object_03,1,1593,0,3,6,desert_4,1,memory-2step-stake-s,593,1860081,0.0-19.0-0.0-0.102,AKP66RIZ3LQVX,3A3KKYU7Q6XNN7OKJ3M7MRU2CR5MWB,33UKMF931D02U484NXNAA5EIWJ8TTJ,1,2
103,3,object_02,object_06,682.0,6,1,964.0,0.7777777777777778,2,object_03,5,1628,0,3,7,library_6,1,memory-2step-stake-s,594,1868955,0.0-19.0-0.0-0.103,AKP66RIZ3LQVX,3A3KKYU7Q6XNN7OKJ3M7MRU2CR5MWB,33UKMF931D02U484NXNAA5EIWJ8TTJ,6,5
104,1,object_04,object_01,766.0,2,2,387.0,0.7777777777777778,2,object_03,1,1635,0,2,7,desert_7,1,memory-2step-stake-s,595,1877251,0.0-19.0-0.0-0.104,AKP66RIZ3LQVX,3A3KKYU7Q6XNN7OKJ3M7MRU2CR5MWB,33UKMF931D02U484NXNAA5EIWJ8TTJ,1,2
105,4,object_07,object_09,681.0,8,2,282.0,0.5555555555555556,2,object_03,5,1660,0,3,5,restaurant_6,1,memory-2step-stake-s,596,1885241,0.0-19.0-0.0-0.105,AKP66RIZ3LQVX,3A3KKYU7Q6XNN7OKJ3M7MRU2CR5MWB,33UKMF931D02U484NXNAA5EIWJ8TTJ,7,8
106,1,object_01,object_04,677.0,2,1,269.0,0.5555555555555556,2,object_03,1,1665,0,3,5,desert_8,1,memory-2step-stake-s,597,1893218,0.0-19.0-0.0-0.106,AKP66RIZ3LQVX,3A3KKYU7Q6XNN7OKJ3M7MRU2CR5MWB,33UKMF931D02U484NXNAA5EIWJ8TTJ,2,1
107,2,object_05,object_10,641.0,4,1,382.0,0.1111111111111111,2,object_03,1,1666,0,3,1,forest_7,1,memory-2step-stake-s,598,1900905,0.0-19.0-0.0-0.107,AKP66RIZ3LQVX,3A3KKYU7Q6XNN7OKJ3M7MRU2CR5MWB,33UKMF931D02U484NXNAA5EIWJ8TTJ,4,3
108,1,object_04,object_01,807.0,2,2,369.0,0.2222222222222222,2,object_03,5,1676,0,5,2,desert_2,1,memory-2step-stake-s,599,1908679,0.0-19.0-0.0-0.108,AKP66RIZ3LQVX,3A3KKYU7Q6XNN7OKJ3M7MRU2CR5MWB,33UKMF931D02U484NXNAA5EIWJ8TTJ,1,2
109,2,object_05,object_10,764.0,4,1,378.0,0.3333333333333333,2,object_03,1,1679,0,6,3,forest_4,1,memory-2step-stake-s,600,1916563,0.0-19.0-0.0-0.109,AKP66RIZ3LQVX,3A3KKYU7Q6XNN7OKJ3M7MRU2CR5MWB,33UKMF931D02U484NXNAA5EIWJ8TTJ,4,3
110,2,object_05,object_10,717.0,3,2,361.0,0.8888888888888888,1,object_08,1,1687,0,8,1,forest_3,1,memory-2step-stake-s,601,1924934,0.0-19.0-0.0-0.110,AKP66RIZ3LQVX,3A3KKYU7Q6XNN7OKJ3M7MRU2CR5MWB,33UKMF931D02U484NXNAA5EIWJ8TTJ,4,3
111,2,object_05,object_10,658.0,3,2,285.0,0.4444444444444444,1,object_08,1,1691,0,4,3,forest_4,1,memory-2step-stake-s,602,1932827,0.0-19.0-0.0-0.111,AKP66RIZ3LQVX,3A3KKYU7Q6XNN7OKJ3M7MRU2CR5MWB,33UKMF931D02U484NXNAA5EIWJ8TTJ,4,3
112,2,object_05,object_10,550.0,3,2,255.0,0.6666666666666666,1,object_08,1,1697,0,6,4,forest_7,1,memory-2step-stake-s,603,1940895,0.0-19.0-0.0-0.112,AKP66RIZ3LQVX,3A3KKYU7Q6XNN7OKJ3M7MRU2CR5MWB,33UKMF931D02U484NXNAA5EIWJ8TTJ,4,3
113,3,object_06,object_02,729.0,5,1,290.0,0.4444444444444444,1,object_08,5,1717,0,4,0,library_4,1,memory-2step-stake-s,604,1948791,0.0-19.0-0.0-0.113,AKP66RIZ3LQVX,3A3KKYU7Q6XNN7OKJ3M7MRU2CR5MWB,33UKMF931D02U484NXNAA5EIWJ8TTJ,5,6
114,3,object_02,object_06,754.0,5,2,379.0,0.3333333333333333,1,object_08,5,1732,0,3,2,library_3,1,memory-2step-stake-s,605,1956678,0.0-19.0-0.0-0.114,AKP66RIZ3LQVX,3A3KKYU7Q6XNN7OKJ3M7MRU2CR5MWB,33UKMF931D02U484NXNAA5EIWJ8TTJ,6,5
115,1,object_01,object_04,576.0,1,2,300.0,0.2222222222222222,1,object_08,1,1734,0,2,1,desert_8,1,memory-2step-stake-s,606,1964385,0.0-19.0-0.0-0.115,AKP66RIZ3LQVX,3A3KKYU7Q6XNN7OKJ3M7MRU2CR5MWB,33UKMF931D02U484NXNAA5EIWJ8TTJ,2,1
116,3,object_02,object_06,707.0,6,1,389.0,0.2222222222222222,2,object_03,5,1744,0,3,2,library_2,1,memory-2step-stake-s,607,1972180,0.0-19.0-0.0-0.116,AKP66RIZ3LQVX,3A3KKYU7Q6XNN7OKJ3M7MRU2CR5MWB,33UKMF931D02U484NXNAA5EIWJ8TTJ,6,5
117,4,object_09,object_07,744.0,7,2,928.0,0.7777777777777778,1,object_08,1,1751,0,7,2,restaurant_8,1,memory-2step-stake-s,608,1981014,0.0-19.0-0.0-0.117,AKP66RIZ3LQVX,3A3KKYU7Q6XNN7OKJ3M7MRU2CR5MWB,33UKMF931D02U484NXNAA5EIWJ8TTJ,8,7
118,2,object_05,object_10,601.0,3,2,488.0,0.7777777777777778,1,object_08,1,1758,0,7,3,forest_3,1,memory-2step-stake-s,609,1989411,0.0-19.0-0.0-0.118,AKP66RIZ3LQVX,3A3KKYU7Q6XNN7OKJ3M7MRU2CR5MWB,33UKMF931D02U484NXNAA5EIWJ8TTJ,4,3
119,4,object_07,object_09,653.0,7,1,405.0,0.4444444444444444,1,object_08,1,1762,0,4,5,restaurant_2,1,memory-2step-stake-s,610,1997424,0.0-19.0-0.0-0.119,AKP66RIZ3LQVX,3A3KKYU7Q6XNN7OKJ3M7MRU2CR5MWB,33UKMF931D02U484NXNAA5EIWJ8TTJ,7,8
120,3,object_06,object_02,657.0,5,1,457.0,0.5555555555555556,1,object_08,5,1787,0,5,4,library_4,1,memory-2step-stake-s,611,2005590,0.0-19.0-0.0-0.120,AKP66RIZ3LQVX,3A3KKYU7Q6XNN7OKJ3M7MRU2CR5MWB,33UKMF931D02U484NXNAA5EIWJ8TTJ,5,6
121,2,object_10,object_05,543.0,3,1,786.0,0.1111111111111111,1,object_08,1,1788,0,1,3,forest_4,1,memory-2step-stake-s,612,2013685,0.0-19.0-0.0-0.121,AKP66RIZ3LQVX,3A3KKYU7Q6XNN7OKJ3M7MRU2CR5MWB,33UKMF931D02U484NXNAA5EIWJ8TTJ,3,4
122,2,object_05,object_10,674.0,4,1,690.0,0.3333333333333333,2,object_03,1,1791,0,0,3,forest_7,1,memory-2step-stake-s,613,2021882,0.0-19.0-0.0-0.122,AKP66RIZ3LQVX,3A3KKYU7Q6XNN7OKJ3M7MRU2CR5MWB,33UKMF931D02U484NXNAA5EIWJ8TTJ,4,3
123,1,object_04,object_01,797.0,2,2,828.0,0.2222222222222222,2,object_03,1,1793,0,0,2,desert_4,1,memory-2step-stake-s,614,2030116,0.0-19.0-0.0-0.123,AKP66RIZ3LQVX,3A3KKYU7Q6XNN7OKJ3M7MRU2CR5MWB,33UKMF931D02U484NXNAA5EIWJ8TTJ,1,2
124,1,object_04,object_01,627.0,1,1,619.0,0.1111111111111111,1,object_08,1,1794,0,1,2,desert_8,1,memory-2step-stake-s,615,2038044,0.0-19.0-0.0-0.124,AKP66RIZ3LQVX,3A3KKYU7Q6XNN7OKJ3M7MRU2CR5MWB,33UKMF931D02U484NXNAA5EIWJ8TTJ,1,2
125,2,object_10,object_05,530.0,4,2,992.0,0.6666666666666666,2,object_03,1,1800,0,3,6,forest_4,1,memory-2step-stake-s,616,2046843,0.0-19.0-0.0-0.125,AKP66RIZ3LQVX,3A3KKYU7Q6XNN7OKJ3M7MRU2CR5MWB,33UKMF931D02U484NXNAA5EIWJ8TTJ,3,4
126,3,object_06,object_02,685.0,6,2,744.0,0.7777777777777778,2,object_03,5,1835,0,3,7,library_2,1,memory-2step-stake-s,617,2055495,0.0-19.0-0.0-0.126,AKP66RIZ3LQVX,3A3KKYU7Q6XNN7OKJ3M7MRU2CR5MWB,33UKMF931D02U484NXNAA5EIWJ8TTJ,5,6
127,4,object_09,object_07,615.0,8,1,585.0,0.6666666666666666,2,object_03,5,1865,0,1,6,restaurant_2,1,memory-2step-stake-s,618,2063889,0.0-19.0-0.0-0.127,AKP66RIZ3LQVX,3A3KKYU7Q6XNN7OKJ3M7MRU2CR5MWB,33UKMF931D02U484NXNAA5EIWJ8TTJ,8,7
128,1,object_01,object_04,735.0,2,1,570.0,0.5555555555555556,2,object_03,5,1890,0,3,5,desert_7,1,memory-2step-stake-s,620,2076968,0.0-19.0-0.1-0.128,AKP66RIZ3LQVX,3A3KKYU7Q6XNN7OKJ3M7MRU2CR5MWB,33UKMF931D02U484NXNAA5EIWJ8TTJ,2,1
129,3,object_06,object_02,596.0,6,2,563.0,0.6666666666666666,2,object_03,5,1920,0,4,6,library_3,1,memory-2step-stake-s,621,2085338,0.0-19.0-0.1-0.129,AKP66RIZ3LQVX,3A3KKYU7Q6XNN7OKJ3M7MRU2CR5MWB,33UKMF931D02U484NXNAA5EIWJ8TTJ,5,6
130,1,object_04,object_01,727.0,2,2,730.0,0.7777777777777778,2,object_03,1,1927,0,2,7,desert_2,1,memory-2step-stake-s,622,2093978,0.0-19.0-0.1-0.130,AKP66RIZ3LQVX,3A3KKYU7Q6XNN7OKJ3M7MRU2CR5MWB,33UKMF931D02U484NXNAA5EIWJ8TTJ,1,2
131,1,object_01,object_04,995.0,2,1,663.0,0.8888888888888888,2,object_03,1,1935,0,3,8,desert_4,1,memory-2step-stake-s,623,2102649,0.0-19.0-0.1-0.131,AKP66RIZ3LQVX,3A3KKYU7Q6XNN7OKJ3M7MRU2CR5MWB,33UKMF931D02U484NXNAA5EIWJ8TTJ,2,1
132,3,object_06,object_02,639.0,6,2,355.0,0.8888888888888888,2,object_03,5,1975,0,0,8,library_2,1,memory-2step-stake-s,624,2111011,0.0-19.0-0.1-0.132,AKP66RIZ3LQVX,3A3KKYU7Q6XNN7OKJ3M7MRU2CR5MWB,33UKMF931D02U484NXNAA5EIWJ8TTJ,5,6
133,3,object_02,object_06,558.0,6,1,689.0,0.8888888888888888,2,object_03,5,2015,0,3,8,library_3,1,memory-2step-stake-s,625,2119709,0.0-19.0-0.1-0.133,AKP66RIZ3LQVX,3A3KKYU7Q6XNN7OKJ3M7MRU2CR5MWB,33UKMF931D02U484NXNAA5EIWJ8TTJ,6,5
134,4,object_07,object_09,566.0,8,2,621.0,0.8888888888888888,2,object_03,5,2055,0,2,8,restaurant_2,1,memory-2step-stake-s,626,2128338,0.0-19.0-0.1-0.134,AKP66RIZ3LQVX,3A3KKYU7Q6XNN7OKJ3M7MRU2CR5MWB,33UKMF931D02U484NXNAA5EIWJ8TTJ,7,8
135,1,object_04,object_01,772.0,2,2,640.0,0.4444444444444444,2,object_03,1,2059,0,2,4,desert_8,1,memory-2step-stake-s,627,2136589,0.0-19.0-0.1-0.135,AKP66RIZ3LQVX,3A3KKYU7Q6XNN7OKJ3M7MRU2CR5MWB,33UKMF931D02U484NXNAA5EIWJ8TTJ,1,2
136,4,object_07,object_09,538.0,8,2,570.0,0.2222222222222222,2,object_03,5,2069,0,2,2,restaurant_3,1,memory-2step-stake-s,628,2144563,0.0-19.0-0.1-0.136,AKP66RIZ3LQVX,3A3KKYU7Q6XNN7OKJ3M7MRU2CR5MWB,33UKMF931D02U484NXNAA5EIWJ8TTJ,7,8
137,3,object_02,object_06,733.0,5,2,717.0,0.0,1,object_08,5,2069,0,0,2,library_6,1,memory-2step-stake-s,629,2152486,0.0-19.0-0.1-0.137,AKP66RIZ3LQVX,3A3KKYU7Q6XNN7OKJ3M7MRU2CR5MWB,33UKMF931D02U484NXNAA5EIWJ8TTJ,6,5
138,1,object_01,object_04,779.0,2,1,688.0,0.1111111111111111,2,object_03,1,2070,0,1,1,desert_7,1,memory-2step-stake-s,630,2160484,0.0-19.0-0.1-0.138,AKP66RIZ3LQVX,3A3KKYU7Q6XNN7OKJ3M7MRU2CR5MWB,33UKMF931D02U484NXNAA5EIWJ8TTJ,2,1
139,4,object_07,object_09,530.0,7,1,662.0,0.2222222222222222,1,object_08,1,2072,0,2,2,restaurant_2,1,memory-2step-stake-s,631,2168553,0.0-19.0-0.1-0.139,AKP66RIZ3LQVX,3A3KKYU7Q6XNN7OKJ3M7MRU2CR5MWB,33UKMF931D02U484NXNAA5EIWJ8TTJ,7,8
140,2,object_05,object_10,633.0,4,1,733.0,0.3333333333333333,2,object_03,1,2075,0,5,3,forest_3,1,memory-2step-stake-s,632,2176793,0.0-19.0-0.1-0.140,AKP66RIZ3LQVX,3A3KKYU7Q6XNN7OKJ3M7MRU2CR5MWB,33UKMF931D02U484NXNAA5EIWJ8TTJ,4,3
141,1,object_04,object_01,613.0,2,2,549.0,0.1111111111111111,2,object_03,1,2076,0,2,1,desert_4,1,memory-2step-stake-s,633,2184648,0.0-19.0-0.1-0.141,AKP66RIZ3LQVX,3A3KKYU7Q6XNN7OKJ3M7MRU2CR5MWB,33UKMF931D02U484NXNAA5EIWJ8TTJ,1,2
142,1,object_01,object_04,893.0,1,2,586.0,0.5555555555555556,1,object_08,1,2081,0,5,2,desert_7,1,memory-2step-stake-s,634,2192939,0.0-19.0-0.1-0.142,AKP66RIZ3LQVX,3A3KKYU7Q6XNN7OKJ3M7MRU2CR5MWB,33UKMF931D02U484NXNAA5EIWJ8TTJ,2,1
143,4,object_07,object_09,545.0,7,1,651.0,0.5555555555555556,1,object_08,5,2106,0,5,2,restaurant_2,1,memory-2step-stake-s,635,2201297,0.0-19.0-0.1-0.143,AKP66RIZ3LQVX,3A3KKYU7Q6XNN7OKJ3M7MRU2CR5MWB,33UKMF931D02U484NXNAA5EIWJ8TTJ,7,8
144,2,object_05,object_10,628.0,3,2,572.0,0.5555555555555556,1,object_08,1,2111,0,5,5,forest_3,1,memory-2step-stake-s,636,2209577,0.0-19.0-0.1-0.144,AKP66RIZ3LQVX,3A3KKYU7Q6XNN7OKJ3M7MRU2CR5MWB,33UKMF931D02U484NXNAA5EIWJ8TTJ,4,3
145,4,object_07,object_09,561.0,7,1,856.0,0.3333333333333333,1,object_08,1,2114,0,3,7,restaurant_8,1,memory-2step-stake-s,637,2217943,0.0-19.0-0.1-0.145,AKP66RIZ3LQVX,3A3KKYU7Q6XNN7OKJ3M7MRU2CR5MWB,33UKMF931D02U484NXNAA5EIWJ8TTJ,7,8
146,2,object_05,object_10,506.0,4,1,381.0,0.7777777777777778,2,object_03,1,2121,0,3,7,forest_5,1,memory-2step-stake-s,638,2226231,0.0-19.0-0.1-0.146,AKP66RIZ3LQVX,3A3KKYU7Q6XNN7OKJ3M7MRU2CR5MWB,33UKMF931D02U484NXNAA5EIWJ8TTJ,4,3
147,3,object_06,object_02,664.0,6,2,642.0,0.7777777777777778,2,object_03,5,2156,0,1,7,library_3,1,memory-2step-stake-s,639,2234783,0.0-19.0-0.1-0.147,AKP66RIZ3LQVX,3A3KKYU7Q6XNN7OKJ3M7MRU2CR5MWB,33UKMF931D02U484NXNAA5EIWJ8TTJ,5,6
148,4,object_07,object_09,1011.0,8,2,681.0,0.8888888888888888,2,object_03,1,2164,0,4,8,restaurant_2,1,memory-2step-stake-s,640,2243471,0.0-19.0-0.1-0.148,AKP66RIZ3LQVX,3A3KKYU7Q6XNN7OKJ3M7MRU2CR5MWB,33UKMF931D02U484NXNAA5EIWJ8TTJ,7,8
149,4,object_09,object_07,530.0,8,1,737.0,1.0,2,object_03,5,2209,0,3,9,restaurant_2,1,memory-2step-stake-s,641,2252321,0.0-19.0-0.1-0.149,AKP66RIZ3LQVX,3A3KKYU7Q6XNN7OKJ3M7MRU2CR5MWB,33UKMF931D02U484NXNAA5EIWJ8TTJ,8,7
150,4,object_07,object_09,617.0,8,2,729.0,0.8888888888888888,2,object_03,5,2249,0,8,8,restaurant_3,1,memory-2step-stake-s,642,2261058,0.0-19.0-0.1-0.150,AKP66RIZ3LQVX,3A3KKYU7Q6XNN7OKJ3M7MRU2CR5MWB,33UKMF931D02U484NXNAA5EIWJ8TTJ,7,8
151,2,object_05,object_10,640.0,4,1,688.0,0.8888888888888888,2,object_03,1,2257,0,8,8,forest_5,1,memory-2step-stake-s,643,2269757,0.0-19.0-0.1-0.151,AKP66RIZ3LQVX,3A3KKYU7Q6XNN7OKJ3M7MRU2CR5MWB,33UKMF931D02U484NXNAA5EIWJ8TTJ,4,3
152,4,object_09,object_07,486.0,8,1,455.0,0.5555555555555556,2,object_03,5,2282,0,8,5,restaurant_2,1,memory-2step-stake-s,644,2277919,0.0-19.0-0.1-0.152,AKP66RIZ3LQVX,3A3KKYU7Q6XNN7OKJ3M7MRU2CR5MWB,33UKMF931D02U484NXNAA5EIWJ8TTJ,8,7
153,3,object_02,object_06,682.0,6,1,592.0,0.5555555555555556,2,object_03,5,2307,0,7,5,library_2,1,memory-2step-stake-s,645,2286222,0.0-19.0-0.1-0.153,AKP66RIZ3LQVX,3A3KKYU7Q6XNN7OKJ3M7MRU2CR5MWB,33UKMF931D02U484NXNAA5EIWJ8TTJ,6,5
154,4,object_09,object_07,564.0,8,1,349.0,0.6666666666666666,2,object_03,5,2337,0,6,6,restaurant_8,1,memory-2step-stake-s,646,2294376,0.0-19.0-0.1-0.154,AKP66RIZ3LQVX,3A3KKYU7Q6XNN7OKJ3M7MRU2CR5MWB,33UKMF931D02U484NXNAA5EIWJ8TTJ,8,7
155,2,object_10,object_05,769.0,4,2,1216.0,0.2222222222222222,2,object_03,1,2339,0,2,2,forest_4,1,memory-2step-stake-s,647,2302998,0.0-19.0-0.1-0.155,AKP66RIZ3LQVX,3A3KKYU7Q6XNN7OKJ3M7MRU2CR5MWB,33UKMF931D02U484NXNAA5EIWJ8TTJ,3,4
156,1,object_04,object_01,904.0,1,1,533.0,0.1111111111111111,1,object_08,1,2340,0,1,3,desert_7,1,memory-2step-stake-s,648,2310838,0.0-19.0-0.1-0.156,AKP66RIZ3LQVX,3A3KKYU7Q6XNN7OKJ3M7MRU2CR5MWB,33UKMF931D02U484NXNAA5EIWJ8TTJ,1,2
157,2,object_10,object_05,533.0,4,2,272.0,0.2222222222222222,2,object_03,5,2350,0,3,2,forest_5,1,memory-2step-stake-s,649,2318519,0.0-19.0-0.1-0.157,AKP66RIZ3LQVX,3A3KKYU7Q6XNN7OKJ3M7MRU2CR5MWB,33UKMF931D02U484NXNAA5EIWJ8TTJ,3,4
158,4,object_09,object_07,422.0,7,2,185.0,0.2222222222222222,1,object_08,1,2352,0,2,4,restaurant_8,1,memory-2step-stake-s,650,2326113,0.0-19.0-0.1-0.158,AKP66RIZ3LQVX,3A3KKYU7Q6XNN7OKJ3M7MRU2CR5MWB,33UKMF931D02U484NXNAA5EIWJ8TTJ,8,7
159,4,object_07,object_09,464.0,8,2,316.0,0.4444444444444444,2,object_03,5,2372,0,1,4,restaurant_2,1,memory-2step-stake-s,651,2334036,0.0-19.0-0.1-0.159,AKP66RIZ3LQVX,3A3KKYU7Q6XNN7OKJ3M7MRU2CR5MWB,33UKMF931D02U484NXNAA5EIWJ8TTJ,7,8
160,1,object_04,object_01,664.0,2,2,506.0,0.3333333333333333,2,object_03,1,2375,0,1,3,desert_7,1,memory-2step-stake-s,652,2342050,0.0-19.0-0.1-0.160,AKP66RIZ3LQVX,3A3KKYU7Q6XNN7OKJ3M7MRU2CR5MWB,33UKMF931D02U484NXNAA5EIWJ8TTJ,1,2
161,4,object_09,object_07,633.0,8,1,382.0,0.1111111111111111,2,object_03,5,2380,0,2,1,restaurant_8,1,memory-2step-stake-s,653,2349737,0.0-19.0-0.1-0.161,AKP66RIZ3LQVX,3A3KKYU7Q6XNN7OKJ3M7MRU2CR5MWB,33UKMF931D02U484NXNAA5EIWJ8TTJ,8,7
162,3,object_02,object_06,918.0,5,2,691.0,0.0,1,object_08,5,2380,0,0,1,library_2,1,memory-2step-stake-s,654,2357632,0.0-19.0-0.1-0.162,AKP66RIZ3LQVX,3A3KKYU7Q6XNN7OKJ3M7MRU2CR5MWB,33UKMF931D02U484NXNAA5EIWJ8TTJ,6,5
163,4,object_07,object_09,415.0,7,1,516.0,0.1111111111111111,1,object_08,1,2381,0,1,2,restaurant_6,1,memory-2step-stake-s,655,2365454,0.0-19.0-0.1-0.163,AKP66RIZ3LQVX,3A3KKYU7Q6XNN7OKJ3M7MRU2CR5MWB,33UKMF931D02U484NXNAA5EIWJ8TTJ,7,8
164,1,object_04,object_01,700.0,2,2,533.0,0.2222222222222222,2,object_03,1,2383,0,3,2,desert_8,1,memory-2step-stake-s,656,2373394,0.0-19.0-0.1-0.164,AKP66RIZ3LQVX,3A3KKYU7Q6XNN7OKJ3M7MRU2CR5MWB,33UKMF931D02U484NXNAA5EIWJ8TTJ,1,2
165,2,object_05,object_10,446.0,3,2,522.0,0.4444444444444444,1,object_08,1,2387,0,4,0,forest_4,1,memory-2step-stake-s,657,2381523,0.0-19.0-0.1-0.165,AKP66RIZ3LQVX,3A3KKYU7Q6XNN7OKJ3M7MRU2CR5MWB,33UKMF931D02U484NXNAA5EIWJ8TTJ,4,3
166,3,object_02,object_06,618.0,5,2,634.0,0.7777777777777778,1,object_08,1,2394,0,7,2,library_4,1,memory-2step-stake-s,658,2390065,0.0-19.0-0.1-0.166,AKP66RIZ3LQVX,3A3KKYU7Q6XNN7OKJ3M7MRU2CR5MWB,33UKMF931D02U484NXNAA5EIWJ8TTJ,6,5
167,3,object_02,object_06,545.0,5,2,615.0,0.8888888888888888,1,object_08,1,2402,0,8,2,library_4,1,memory-2step-stake-s,659,2398691,0.0-19.0-0.1-0.167,AKP66RIZ3LQVX,3A3KKYU7Q6XNN7OKJ3M7MRU2CR5MWB,33UKMF931D02U484NXNAA5EIWJ8TTJ,6,5
168,4,object_09,object_07,633.0,7,2,556.0,0.8888888888888888,1,object_08,5,2442,0,8,0,restaurant_2,1,memory-2step-stake-s,660,2407256,0.0-19.0-0.1-0.168,AKP66RIZ3LQVX,3A3KKYU7Q6XNN7OKJ3M7MRU2CR5MWB,33UKMF931D02U484NXNAA5EIWJ8TTJ,8,7
169,3,object_06,object_02,574.0,5,1,631.0,0.8888888888888888,1,object_08,5,2482,0,8,1,library_3,1,memory-2step-stake-s,661,2415893,0.0-19.0-0.1-0.169,AKP66RIZ3LQVX,3A3KKYU7Q6XNN7OKJ3M7MRU2CR5MWB,33UKMF931D02U484NXNAA5EIWJ8TTJ,5,6
170,4,object_07,object_09,491.0,7,1,601.0,0.4444444444444444,1,object_08,1,2486,0,4,1,restaurant_6,1,memory-2step-stake-s,662,2424104,0.0-19.0-0.1-0.170,AKP66RIZ3LQVX,3A3KKYU7Q6XNN7OKJ3M7MRU2CR5MWB,33UKMF931D02U484NXNAA5EIWJ8TTJ,7,8
171,2,object_05,object_10,552.0,3,2,412.0,0.3333333333333333,1,object_08,1,2489,0,3,2,forest_4,1,memory-2step-stake-s,663,2432023,0.0-19.0-0.1-0.171,AKP66RIZ3LQVX,3A3KKYU7Q6XNN7OKJ3M7MRU2CR5MWB,33UKMF931D02U484NXNAA5EIWJ8TTJ,4,3
172,1,object_04,object_01,1055.0,2,2,-1.0,0.0,2,object_03,1,2489,0,5,3,desert_2,1,memory-2step-stake-s,664,2440529,0.0-19.0-0.1-0.172,AKP66RIZ3LQVX,3A3KKYU7Q6XNN7OKJ3M7MRU2CR5MWB,33UKMF931D02U484NXNAA5EIWJ8TTJ,1,2
173,3,object_02,object_06,611.0,5,2,419.0,0.4444444444444444,1,object_08,5,2509,0,4,1,library_3,1,memory-2step-stake-s,665,2448558,0.0-19.0-0.1-0.173,AKP66RIZ3LQVX,3A3KKYU7Q6XNN7OKJ3M7MRU2CR5MWB,33UKMF931D02U484NXNAA5EIWJ8TTJ,6,5
174,1,object_04,object_01,655.0,1,1,356.0,0.2222222222222222,1,object_08,5,2519,0,2,3,desert_4,1,memory-2step-stake-s,666,2456319,0.0-19.0-0.1-0.174,AKP66RIZ3LQVX,3A3KKYU7Q6XNN7OKJ3M7MRU2CR5MWB,33UKMF931D02U484NXNAA5EIWJ8TTJ,1,2
175,4,object_09,object_07,731.0,8,1,410.0,0.2222222222222222,2,object_03,1,2521,0,3,2,restaurant_6,1,memory-2step-stake-s,667,2464139,0.0-19.0-0.1-0.175,AKP66RIZ3LQVX,3A3KKYU7Q6XNN7OKJ3M7MRU2CR5MWB,33UKMF931D02U484NXNAA5EIWJ8TTJ,8,7
176,2,object_05,object_10,556.0,3,2,397.0,0.5555555555555556,1,object_08,5,2546,0,5,1,forest_4,1,memory-2step-stake-s,668,2472243,0.0-19.0-0.1-0.176,AKP66RIZ3LQVX,3A3KKYU7Q6XNN7OKJ3M7MRU2CR5MWB,33UKMF931D02U484NXNAA5EIWJ8TTJ,4,3
177,4,object_07,object_09,566.0,7,1,465.0,0.5555555555555556,1,object_08,5,2571,0,5,0,restaurant_2,1,memory-2step-stake-s,669,2480416,0.0-19.0-0.1-0.177,AKP66RIZ3LQVX,3A3KKYU7Q6XNN7OKJ3M7MRU2CR5MWB,33UKMF931D02U484NXNAA5EIWJ8TTJ,7,8
178,2,object_05,object_10,510.0,3,2,417.0,0.3333333333333333,1,object_08,5,2586,0,3,2,forest_5,1,memory-2step-stake-s,670,2488341,0.0-19.0-0.1-0.178,AKP66RIZ3LQVX,3A3KKYU7Q6XNN7OKJ3M7MRU2CR5MWB,33UKMF931D02U484NXNAA5EIWJ8TTJ,4,3
179,1,object_01,object_04,804.0,1,2,601.0,0.1111111111111111,1,object_08,1,2587,0,1,0,desert_2,1,memory-2step-stake-s,671,2496245,0.0-19.0-0.1-0.179,AKP66RIZ3LQVX,3A3KKYU7Q6XNN7OKJ3M7MRU2CR5MWB,33UKMF931D02U484NXNAA5EIWJ8TTJ,2,1
180,1,object_04,object_01,762.0,2,2,591.0,0.1111111111111111,2,object_03,5,2592,0,0,1,desert_4,1,memory-2step-stake-s,672,2504141,0.0-19.0-0.1-0.180,AKP66RIZ3LQVX,3A3KKYU7Q6XNN7OKJ3M7MRU2CR5MWB,33UKMF931D02U484NXNAA5EIWJ8TTJ,1,2
181,4,object_07,object_09,462.0,7,1,762.0,0.3333333333333333,1,object_08,5,2607,0,3,2,restaurant_3,1,memory-2step-stake-s,673,2512410,0.0-19.0-0.1-0.181,AKP66RIZ3LQVX,3A3KKYU7Q6XNN7OKJ3M7MRU2CR5MWB,33UKMF931D02U484NXNAA5EIWJ8TTJ,7,8
182,1,object_04,object_01,691.0,1,1,476.0,0.4444444444444444,1,object_08,1,2611,0,4,0,desert_7,1,memory-2step-stake-s,674,2520491,0.0-19.0-0.1-0.182,AKP66RIZ3LQVX,3A3KKYU7Q6XNN7OKJ3M7MRU2CR5MWB,33UKMF931D02U484NXNAA5EIWJ8TTJ,1,2
183,2,object_05,object_10,677.0,3,2,463.0,0.1111111111111111,1,object_08,1,2612,0,1,1,forest_3,1,memory-2step-stake-s,675,2528262,0.0-19.0-0.1-0.183,AKP66RIZ3LQVX,3A3KKYU7Q6XNN7OKJ3M7MRU2CR5MWB,33UKMF931D02U484NXNAA5EIWJ8TTJ,4,3
184,2,object_05,object_10,507.0,3,2,431.0,0.3333333333333333,1,object_08,1,2615,0,3,1,forest_3,1,memory-2step-stake-s,676,2536197,0.0-19.0-0.1-0.184,AKP66RIZ3LQVX,3A3KKYU7Q6XNN7OKJ3M7MRU2CR5MWB,33UKMF931D02U484NXNAA5EIWJ8TTJ,4,3
185,4,object_09,object_07,839.0,7,2,444.0,0.3333333333333333,1,object_08,5,2630,0,3,0,restaurant_3,1,memory-2step-stake-s,677,2544150,0.0-19.0-0.1-0.185,AKP66RIZ3LQVX,3A3KKYU7Q6XNN7OKJ3M7MRU2CR5MWB,33UKMF931D02U484NXNAA5EIWJ8TTJ,8,7
186,3,object_06,object_02,724.0,5,1,783.0,0.3333333333333333,1,object_08,5,2645,0,3,3,library_6,1,memory-2step-stake-s,678,2552441,0.0-19.0-0.1-0.186,AKP66RIZ3LQVX,3A3KKYU7Q6XNN7OKJ3M7MRU2CR5MWB,33UKMF931D02U484NXNAA5EIWJ8TTJ,5,6
187,2,object_05,object_10,689.0,4,1,467.0,0.0,2,object_03,1,2645,0,3,0,forest_7,1,memory-2step-stake-s,679,2560113,0.0-19.0-0.1-0.187,AKP66RIZ3LQVX,3A3KKYU7Q6XNN7OKJ3M7MRU2CR5MWB,33UKMF931D02U484NXNAA5EIWJ8TTJ,4,3
188,4,object_09,object_07,589.0,7,2,616.0,0.4444444444444444,1,object_08,5,2665,0,4,2,restaurant_2,1,memory-2step-stake-s,680,2568336,0.0-19.0-0.1-0.188,AKP66RIZ3LQVX,3A3KKYU7Q6XNN7OKJ3M7MRU2CR5MWB,33UKMF931D02U484NXNAA5EIWJ8TTJ,8,7
189,3,object_06,object_02,724.0,5,1,807.0,0.5555555555555556,1,object_08,5,2690,0,5,2,library_6,1,memory-2step-stake-s,681,2576850,0.0-19.0-0.1-0.189,AKP66RIZ3LQVX,3A3KKYU7Q6XNN7OKJ3M7MRU2CR5MWB,33UKMF931D02U484NXNAA5EIWJ8TTJ,5,6
190,2,object_05,object_10,562.0,3,2,478.0,0.3333333333333333,1,object_08,1,2693,0,3,2,forest_3,1,memory-2step-stake-s,682,2584835,0.0-19.0-0.1-0.190,AKP66RIZ3LQVX,3A3KKYU7Q6XNN7OKJ3M7MRU2CR5MWB,33UKMF931D02U484NXNAA5EIWJ8TTJ,4,3
191,1,object_01,object_04,747.0,1,2,754.0,0.4444444444444444,1,object_08,1,2697,0,4,4,desert_2,1,memory-2step-stake-s,683,2593199,0.0-19.0-0.1-0.191,AKP66RIZ3LQVX,3A3KKYU7Q6XNN7OKJ3M7MRU2CR5MWB,33UKMF931D02U484NXNAA5EIWJ8TTJ,2,1
192,4,object_09,object_07,498.0,7,2,530.0,0.5555555555555556,1,object_08,5,2722,0,5,4,restaurant_3,1,memory-2step-stake-s,684,2601436,0.0-19.0-0.1-0.192,AKP66RIZ3LQVX,3A3KKYU7Q6XNN7OKJ3M7MRU2CR5MWB,33UKMF931D02U484NXNAA5EIWJ8TTJ,8,7
193,3,object_06,object_02,652.0,5,1,644.0,0.6666666666666666,1,object_08,5,2752,0,6,5,library_2,1,memory-2step-stake-s,685,2609887,0.0-19.0-0.1-0.193,AKP66RIZ3LQVX,3A3KKYU7Q6XNN7OKJ3M7MRU2CR5MWB,33UKMF931D02U484NXNAA5EIWJ8TTJ,5,6
194,1,object_04,object_01,826.0,1,1,112.0,0.5555555555555556,1,object_08,1,2757,0,5,6,desert_7,1,memory-2step-stake-s,686,2617704,0.0-19.0-0.1-0.194,AKP66RIZ3LQVX,3A3KKYU7Q6XNN7OKJ3M7MRU2CR5MWB,33UKMF931D02U484NXNAA5EIWJ8TTJ,1,2
195,3,object_02,object_06,514.0,5,2,358.0,0.1111111111111111,1,object_08,1,2758,0,1,5,library_2,1,memory-2step-stake-s,687,2625370,0.0-19.0-0.1-0.195,AKP66RIZ3LQVX,3A3KKYU7Q6XNN7OKJ3M7MRU2CR5MWB,33UKMF931D02U484NXNAA5EIWJ8TTJ,6,5
196,4,object_09,object_07,503.0,8,1,649.0,0.5555555555555556,2,object_03,5,2783,0,0,5,restaurant_8,1,memory-2step-stake-s,688,2633729,0.0-19.0-0.1-0.196,AKP66RIZ3LQVX,3A3KKYU7Q6XNN7OKJ3M7MRU2CR5MWB,33UKMF931D02U484NXNAA5EIWJ8TTJ,8,7
197,1,object_01,object_04,823.0,1,2,452.0,0.1111111111111111,1,object_08,5,2788,0,1,4,desert_7,1,memory-2step-stake-s,689,2641487,0.0-19.0-0.1-0.197,AKP66RIZ3LQVX,3A3KKYU7Q6XNN7OKJ3M7MRU2CR5MWB,33UKMF931D02U484NXNAA5EIWJ8TTJ,2,1
198,2,object_05,object_10,563.0,4,1,692.0,0.3333333333333333,2,object_03,1,2791,0,0,3,forest_5,1,memory-2step-stake-s,690,2649689,0.0-19.0-0.1-0.198,AKP66RIZ3LQVX,3A3KKYU7Q6XNN7OKJ3M7MRU2CR5MWB,33UKMF931D02U484NXNAA5EIWJ8TTJ,4,3
199,1,object_04,object_01,669.0,1,1,561.0,0.1111111111111111,1,object_08,1,2792,0,1,1,desert_8,1,memory-2step-stake-s,691,2657556,0.0-19.0-0.1-0.199,AKP66RIZ3LQVX,3A3KKYU7Q6XNN7OKJ3M7MRU2CR5MWB,33UKMF931D02U484NXNAA5EIWJ8TTJ,1,2
200,4,object_07,object_09,418.0,8,2,438.0,0.2222222222222222,2,object_03,5,2802,0,3,2,restaurant_6,1,memory-2step-stake-s,692,2665399,0.0-19.0-0.1-0.200,AKP66RIZ3LQVX,3A3KKYU7Q6XNN7OKJ3M7MRU2CR5MWB,33UKMF931D02U484NXNAA5EIWJ8TTJ,7,8
201,2,object_05,object_10,1227.0,3,2,418.0,0.1111111111111111,1,object_08,5,2807,0,1,1,forest_7,1,memory-2step-stake-s,693,2673125,0.0-19.0-0.1-0.201,AKP66RIZ3LQVX,3A3KKYU7Q6XNN7OKJ3M7MRU2CR5MWB,33UKMF931D02U484NXNAA5EIWJ8TTJ,4,3
202,3,object_02,object_06,553.0,6,1,690.0,0.1111111111111111,2,object_03,5,2812,0,2,1,library_2,1,memory-2step-stake-s,694,2681122,0.0-19.0-0.1-0.202,AKP66RIZ3LQVX,3A3KKYU7Q6XNN7OKJ3M7MRU2CR5MWB,33UKMF931D02U484NXNAA5EIWJ8TTJ,6,5
203,1,object_01,object_04,773.0,1,2,487.0,0.2222222222222222,1,object_08,1,2814,0,2,0,desert_4,1,memory-2step-stake-s,695,2689017,0.0-19.0-0.1-0.203,AKP66RIZ3LQVX,3A3KKYU7Q6XNN7OKJ3M7MRU2CR5MWB,33UKMF931D02U484NXNAA5EIWJ8TTJ,2,1
204,4,object_07,object_09,742.0,8,2,655.0,0.3333333333333333,2,object_03,5,2829,0,2,3,restaurant_6,1,memory-2step-stake-s,696,2697178,0.0-19.0-0.1-0.204,AKP66RIZ3LQVX,3A3KKYU7Q6XNN7OKJ3M7MRU2CR5MWB,33UKMF931D02U484NXNAA5EIWJ8TTJ,7,8
205,3,object_02,object_06,587.0,6,1,696.0,0.7777777777777778,2,object_03,5,2864,0,1,7,library_2,1,memory-2step-stake-s,697,2705782,0.0-19.0-0.1-0.205,AKP66RIZ3LQVX,3A3KKYU7Q6XNN7OKJ3M7MRU2CR5MWB,33UKMF931D02U484NXNAA5EIWJ8TTJ,6,5
206,3,object_06,object_02,501.0,5,1,599.0,0.2222222222222222,1,object_08,5,2874,0,2,7,library_3,1,memory-2step-stake-s,698,2713787,0.0-19.0-0.1-0.206,AKP66RIZ3LQVX,3A3KKYU7Q6XNN7OKJ3M7MRU2CR5MWB,33UKMF931D02U484NXNAA5EIWJ8TTJ,5,6
207,3,object_02,object_06,614.0,6,1,554.0,0.7777777777777778,2,object_03,5,2909,0,2,7,library_6,1,memory-2step-stake-s,699,2722252,0.0-19.0-0.1-0.207,AKP66RIZ3LQVX,3A3KKYU7Q6XNN7OKJ3M7MRU2CR5MWB,33UKMF931D02U484NXNAA5EIWJ8TTJ,6,5
208,2,object_10,object_05,669.0,4,2,589.0,0.5555555555555556,2,object_03,1,2914,0,1,5,forest_7,1,memory-2step-stake-s,700,2730548,0.0-19.0-0.1-0.208,AKP66RIZ3LQVX,3A3KKYU7Q6XNN7OKJ3M7MRU2CR5MWB,33UKMF931D02U484NXNAA5EIWJ8TTJ,3,4
209,2,object_05,object_10,441.0,4,1,670.0,0.5555555555555556,2,object_03,1,2919,0,1,5,forest_5,1,memory-2step-stake-s,701,2738929,0.0-19.0-0.1-0.209,AKP66RIZ3LQVX,3A3KKYU7Q6XNN7OKJ3M7MRU2CR5MWB,33UKMF931D02U484NXNAA5EIWJ8TTJ,4,3
210,2,object_05,object_10,410.0,4,1,668.0,0.5555555555555556,2,object_03,1,2924,0,1,5,forest_7,1,memory-2step-stake-s,702,2747309,0.0-19.0-0.1-0.210,AKP66RIZ3LQVX,3A3KKYU7Q6XNN7OKJ3M7MRU2CR5MWB,33UKMF931D02U484NXNAA5EIWJ8TTJ,4,3
211,2,object_05,object_10,682.0,4,1,462.0,0.4444444444444444,2,object_03,1,2928,0,4,4,forest_5,1,memory-2step-stake-s,703,2755378,0.0-19.0-0.1-0.211,AKP66RIZ3LQVX,3A3KKYU7Q6XNN7OKJ3M7MRU2CR5MWB,33UKMF931D02U484NXNAA5EIWJ8TTJ,4,3
212,1,object_04,object_01,754.0,2,2,639.0,0.3333333333333333,2,object_03,5,2943,0,5,3,desert_7,1,memory-2step-stake-s,704,2763528,0.0-19.0-0.1-0.212,AKP66RIZ3LQVX,3A3KKYU7Q6XNN7OKJ3M7MRU2CR5MWB,33UKMF931D02U484NXNAA5EIWJ8TTJ,1,2
213,3,object_02,object_06,681.0,5,2,471.0,0.6666666666666666,1,object_08,5,2973,0,6,3,library_4,1,memory-2step-stake-s,705,2771807,0.0-19.0-0.1-0.213,AKP66RIZ3LQVX,3A3KKYU7Q6XNN7OKJ3M7MRU2CR5MWB,33UKMF931D02U484NXNAA5EIWJ8TTJ,6,5
214,1,object_04,object_01,721.0,1,1,347.0,0.7777777777777778,1,object_08,1,2980,0,7,8,desert_7,1,memory-2step-stake-s,706,2780062,0.0-19.0-0.1-0.214,AKP66RIZ3LQVX,3A3KKYU7Q6XNN7OKJ3M7MRU2CR5MWB,33UKMF931D02U484NXNAA5EIWJ8TTJ,1,2
215,3,object_06,object_02,1016.0,5,1,621.0,1.0,1,object_08,1,2989,0,9,8,library_6,1,memory-2step-stake-s,707,2788793,0.0-19.0-0.1-0.215,AKP66RIZ3LQVX,3A3KKYU7Q6XNN7OKJ3M7MRU2CR5MWB,33UKMF931D02U484NXNAA5EIWJ8TTJ,5,6
216,2,object_05,object_10,581.0,3,2,546.0,0.7777777777777778,1,object_08,1,2996,0,7,7,forest_3,1,memory-2step-stake-s,708,2797248,0.0-19.0-0.1-0.216,AKP66RIZ3LQVX,3A3KKYU7Q6XNN7OKJ3M7MRU2CR5MWB,33UKMF931D02U484NXNAA5EIWJ8TTJ,4,3
217,2,object_05,object_10,556.0,3,2,778.0,0.6666666666666666,1,object_08,1,3002,0,6,8,forest_4,1,memory-2step-stake-s,709,2805834,0.0-19.0-0.1-0.217,AKP66RIZ3LQVX,3A3KKYU7Q6XNN7OKJ3M7MRU2CR5MWB,33UKMF931D02U484NXNAA5EIWJ8TTJ,4,3
218,1,object_04,object_01,861.0,1,1,522.0,0.7777777777777778,1,object_08,1,3009,0,7,8,desert_2,1,memory-2step-stake-s,710,2814264,0.0-19.0-0.1-0.218,AKP66RIZ3LQVX,3A3KKYU7Q6XNN7OKJ3M7MRU2CR5MWB,33UKMF931D02U484NXNAA5EIWJ8TTJ,1,2
219,4,object_07,object_09,571.0,7,1,531.0,0.8888888888888888,1,object_08,5,3049,0,8,7,restaurant_8,1,memory-2step-stake-s,711,2822804,0.0-19.0-0.1-0.219,AKP66RIZ3LQVX,3A3KKYU7Q6XNN7OKJ3M7MRU2CR5MWB,33UKMF931D02U484NXNAA5EIWJ8TTJ,7,8
220,1,object_01,object_04,1016.0,1,2,443.0,0.7777777777777778,1,object_08,1,3056,0,7,5,desert_8,1,memory-2step-stake-s,712,2831154,0.0-19.0-0.1-0.220,AKP66RIZ3LQVX,3A3KKYU7Q6XNN7OKJ3M7MRU2CR5MWB,33UKMF931D02U484NXNAA5EIWJ8TTJ,2,1
221,1,object_01,object_04,712.0,1,2,488.0,0.7777777777777778,1,object_08,5,3091,0,7,5,desert_2,1,memory-2step-stake-s,713,2839550,0.0-19.0-0.1-0.221,AKP66RIZ3LQVX,3A3KKYU7Q6XNN7OKJ3M7MRU2CR5MWB,33UKMF931D02U484NXNAA5EIWJ8TTJ,2,1
222,4,object_07,object_09,648.0,7,1,269.0,0.6666666666666666,1,object_08,5,3121,0,6,4,restaurant_6,1,memory-2step-stake-s,714,2847628,0.0-19.0-0.1-0.222,AKP66RIZ3LQVX,3A3KKYU7Q6XNN7OKJ3M7MRU2CR5MWB,33UKMF931D02U484NXNAA5EIWJ8TTJ,7,8
223,2,object_10,object_05,736.0,3,1,414.0,0.4444444444444444,1,object_08,1,3125,0,4,4,forest_3,1,memory-2step-stake-s,715,2855649,0.0-19.0-0.1-0.223,AKP66RIZ3LQVX,3A3KKYU7Q6XNN7OKJ3M7MRU2CR5MWB,33UKMF931D02U484NXNAA5EIWJ8TTJ,3,4
224,1,object_04,object_01,698.0,2,2,464.0,0.4444444444444444,2,object_03,1,3129,0,4,4,desert_8,1,memory-2step-stake-s,716,2863716,0.0-19.0-0.1-0.224,AKP66RIZ3LQVX,3A3KKYU7Q6XNN7OKJ3M7MRU2CR5MWB,33UKMF931D02U484NXNAA5EIWJ8TTJ,1,2
225,4,object_07,object_09,564.0,8,2,406.0,0.2222222222222222,2,object_03,1,3131,0,5,2,restaurant_3,1,memory-2step-stake-s,717,2871530,0.0-19.0-0.1-0.225,AKP66RIZ3LQVX,3A3KKYU7Q6XNN7OKJ3M7MRU2CR5MWB,33UKMF931D02U484NXNAA5EIWJ8TTJ,7,8
226,3,object_06,object_02,676.0,5,1,556.0,0.5555555555555556,1,object_08,1,3136,0,5,3,library_4,1,memory-2step-stake-s,718,2879794,0.0-19.0-0.1-0.226,AKP66RIZ3LQVX,3A3KKYU7Q6XNN7OKJ3M7MRU2CR5MWB,33UKMF931D02U484NXNAA5EIWJ8TTJ,5,6
227,4,object_09,object_07,594.0,7,2,532.0,0.7777777777777778,1,object_08,5,3171,0,7,6,restaurant_8,1,memory-2step-stake-s,719,2888236,0.0-19.0-0.1-0.227,AKP66RIZ3LQVX,3A3KKYU7Q6XNN7OKJ3M7MRU2CR5MWB,33UKMF931D02U484NXNAA5EIWJ8TTJ,8,7
228,4,object_07,object_09,578.0,7,1,666.0,0.4444444444444444,1,object_08,5,3191,0,4,2,restaurant_8,1,memory-2step-stake-s,720,2896510,0.0-19.0-0.1-0.228,AKP66RIZ3LQVX,3A3KKYU7Q6XNN7OKJ3M7MRU2CR5MWB,33UKMF931D02U484NXNAA5EIWJ8TTJ,7,8
229,3,object_02,object_06,704.0,5,2,314.0,0.3333333333333333,1,object_08,1,3194,0,3,0,library_4,1,memory-2step-stake-s,721,2904329,0.0-19.0-0.1-0.229,AKP66RIZ3LQVX,3A3KKYU7Q6XNN7OKJ3M7MRU2CR5MWB,33UKMF931D02U484NXNAA5EIWJ8TTJ,6,5
230,2,object_10,object_05,612.0,3,1,365.0,0.4444444444444444,1,object_08,1,3198,0,4,0,forest_7,1,memory-2step-stake-s,722,2912300,0.0-19.0-0.1-0.230,AKP66RIZ3LQVX,3A3KKYU7Q6XNN7OKJ3M7MRU2CR5MWB,33UKMF931D02U484NXNAA5EIWJ8TTJ,3,4
231,2,object_10,object_05,551.0,3,1,390.0,0.5555555555555556,1,object_08,5,3223,0,5,1,forest_5,1,memory-2step-stake-s,723,2920403,0.0-19.0-0.1-0.231,AKP66RIZ3LQVX,3A3KKYU7Q6XNN7OKJ3M7MRU2CR5MWB,33UKMF931D02U484NXNAA5EIWJ8TTJ,3,4
232,3,object_02,object_06,569.0,5,2,269.0,0.8888888888888888,1,object_08,5,3263,0,8,2,library_4,1,memory-2step-stake-s,724,2928681,0.0-19.0-0.1-0.232,AKP66RIZ3LQVX,3A3KKYU7Q6XNN7OKJ3M7MRU2CR5MWB,33UKMF931D02U484NXNAA5EIWJ8TTJ,6,5
233,1,object_01,object_04,851.0,1,2,626.0,0.8888888888888888,1,object_08,5,3303,0,8,2,desert_8,1,memory-2step-stake-s,725,2937319,0.0-19.0-0.1-0.233,AKP66RIZ3LQVX,3A3KKYU7Q6XNN7OKJ3M7MRU2CR5MWB,33UKMF931D02U484NXNAA5EIWJ8TTJ,2,1
234,4,object_07,object_09,521.0,7,1,377.0,1.0,1,object_08,5,3348,0,9,0,restaurant_3,1,memory-2step-stake-s,726,2945804,0.0-19.0-0.1-0.234,AKP66RIZ3LQVX,3A3KKYU7Q6XNN7OKJ3M7MRU2CR5MWB,33UKMF931D02U484NXNAA5EIWJ8TTJ,7,8
235,3,object_02,object_06,534.0,5,2,387.0,1.0,1,object_08,5,3393,0,9,4,library_4,1,memory-2step-stake-s,727,2954303,0.0-19.0-0.1-0.235,AKP66RIZ3LQVX,3A3KKYU7Q6XNN7OKJ3M7MRU2CR5MWB,33UKMF931D02U484NXNAA5EIWJ8TTJ,6,5
236,1,object_04,object_01,765.0,1,1,503.0,0.8888888888888888,1,object_08,1,3401,0,8,2,desert_8,1,memory-2step-stake-s,728,2962814,0.0-19.0-0.1-0.236,AKP66RIZ3LQVX,3A3KKYU7Q6XNN7OKJ3M7MRU2CR5MWB,33UKMF931D02U484NXNAA5EIWJ8TTJ,1,2
237,3,object_02,object_06,562.0,5,2,568.0,0.8888888888888888,1,object_08,5,3441,0,8,0,library_3,1,memory-2step-stake-s,729,2971392,0.0-19.0-0.1-0.237,AKP66RIZ3LQVX,3A3KKYU7Q6XNN7OKJ3M7MRU2CR5MWB,33UKMF931D02U484NXNAA5EIWJ8TTJ,6,5
238,2,object_10,object_05,592.0,3,1,367.0,0.6666666666666666,1,object_08,1,3447,0,6,1,forest_5,1,memory-2step-stake-s,730,2979565,0.0-19.0-0.1-0.238,AKP66RIZ3LQVX,3A3KKYU7Q6XNN7OKJ3M7MRU2CR5MWB,33UKMF931D02U484NXNAA5EIWJ8TTJ,3,4
239,3,object_06,object_02,770.0,5,1,613.0,0.8888888888888888,1,object_08,5,3487,0,8,0,library_3,1,memory-2step-stake-s,731,2988184,0.0-19.0-0.1-0.239,AKP66RIZ3LQVX,3A3KKYU7Q6XNN7OKJ3M7MRU2CR5MWB,33UKMF931D02U484NXNAA5EIWJ8TTJ,5,6
240,1,object_04,object_01,641.0,1,1,371.0,0.6666666666666666,1,object_08,1,3493,0,6,2,desert_7,1,memory-2step-stake-s,732,2996360,0.0-19.0-0.1-0.240,AKP66RIZ3LQVX,3A3KKYU7Q6XNN7OKJ3M7MRU2CR5MWB,33UKMF931D02U484NXNAA5EIWJ8TTJ,1,2
241,2,object_05,object_10,545.0,3,2,476.0,0.4444444444444444,1,object_08,1,3497,0,4,0,forest_7,1,memory-2step-stake-s,733,3004446,0.0-19.0-0.1-0.241,AKP66RIZ3LQVX,3A3KKYU7Q6XNN7OKJ3M7MRU2CR5MWB,33UKMF931D02U484NXNAA5EIWJ8TTJ,4,3
242,3,object_02,object_06,558.0,5,2,814.0,0.4444444444444444,1,object_08,5,3517,0,4,2,library_6,1,memory-2step-stake-s,734,3012866,0.0-19.0-0.1-0.242,AKP66RIZ3LQVX,3A3KKYU7Q6XNN7OKJ3M7MRU2CR5MWB,33UKMF931D02U484NXNAA5EIWJ8TTJ,6,5
243,2,object_10,object_05,503.0,3,1,392.0,0.4444444444444444,1,object_08,1,3521,0,4,1,forest_5,1,memory-2step-stake-s,735,3020864,0.0-19.0-0.1-0.243,AKP66RIZ3LQVX,3A3KKYU7Q6XNN7OKJ3M7MRU2CR5MWB,33UKMF931D02U484NXNAA5EIWJ8TTJ,3,4
244,1,object_01,object_04,751.0,1,2,536.0,0.6666666666666666,1,object_08,1,3527,0,6,1,desert_2,1,memory-2step-stake-s,736,3029209,0.0-19.0-0.1-0.244,AKP66RIZ3LQVX,3A3KKYU7Q6XNN7OKJ3M7MRU2CR5MWB,33UKMF931D02U484NXNAA5EIWJ8TTJ,2,1
245,4,object_07,object_09,584.0,7,1,403.0,0.7777777777777778,1,object_08,5,3562,0,7,1,restaurant_2,1,memory-2step-stake-s,737,3037524,0.0-19.0-0.1-0.245,AKP66RIZ3LQVX,3A3KKYU7Q6XNN7OKJ3M7MRU2CR5MWB,33UKMF931D02U484NXNAA5EIWJ8TTJ,7,8
246,3,object_06,object_02,673.0,5,1,510.0,0.6666666666666666,1,object_08,5,3592,0,6,1,library_3,1,memory-2step-stake-s,738,3045843,0.0-19.0-0.1-0.246,AKP66RIZ3LQVX,3A3KKYU7Q6XNN7OKJ3M7MRU2CR5MWB,33UKMF931D02U484NXNAA5EIWJ8TTJ,5,6
247,3,object_06,object_02,614.0,5,1,319.0,0.5555555555555556,1,object_08,5,3617,0,5,4,library_6,1,memory-2step-stake-s,739,3053867,0.0-19.0-0.1-0.247,AKP66RIZ3LQVX,3A3KKYU7Q6XNN7OKJ3M7MRU2CR5MWB,33UKMF931D02U484NXNAA5EIWJ8TTJ,5,6
248,4,object_07,object_09,528.0,7,1,486.0,0.7777777777777778,1,object_08,5,3652,0,7,0,restaurant_8,1,memory-2step-stake-s,740,3062263,0.0-19.0-0.1-0.248,AKP66RIZ3LQVX,3A3KKYU7Q6XNN7OKJ3M7MRU2CR5MWB,33UKMF931D02U484NXNAA5EIWJ8TTJ,7,8
249,1,object_04,object_01,587.0,2,2,346.0,0.1111111111111111,2,object_03,1,3653,0,6,1,desert_4,1,memory-2step-stake-s,741,3069917,0.0-19.0-0.1-0.249,AKP66RIZ3LQVX,3A3KKYU7Q6XNN7OKJ3M7MRU2CR5MWB,33UKMF931D02U484NXNAA5EIWJ8TTJ,1,2
250,2,object_10,object_05,662.0,3,1,510.0,0.5555555555555556,1,object_08,1,3658,0,5,1,forest_3,1,memory-2step-stake-s,742,3078137,0.0-19.0-0.1-0.250,AKP66RIZ3LQVX,3A3KKYU7Q6XNN7OKJ3M7MRU2CR5MWB,33UKMF931D02U484NXNAA5EIWJ8TTJ,3,4
251,4,object_09,object_07,584.0,7,2,394.0,0.7777777777777778,1,object_08,1,3665,0,7,1,restaurant_3,1,memory-2step-stake-s,743,3086434,0.0-19.0-0.1-0.251,AKP66RIZ3LQVX,3A3KKYU7Q6XNN7OKJ3M7MRU2CR5MWB,33UKMF931D02U484NXNAA5EIWJ8TTJ,8,7
252,1,object_04,object_01,851.0,1,1,457.0,1.0,1,object_08,5,3710,0,9,1,desert_8,1,memory-2step-stake-s,744,3094999,0.0-19.0-0.1-0.252,AKP66RIZ3LQVX,3A3KKYU7Q6XNN7OKJ3M7MRU2CR5MWB,33UKMF931D02U484NXNAA5EIWJ8TTJ,1,2
253,1,object_04,object_01,684.0,1,1,316.0,0.8888888888888888,1,object_08,1,3718,0,8,1,desert_8,1,memory-2step-stake-s,745,3103323,0.0-19.0-0.1-0.253,AKP66RIZ3LQVX,3A3KKYU7Q6XNN7OKJ3M7MRU2CR5MWB,33UKMF931D02U484NXNAA5EIWJ8TTJ,1,2
254,2,object_05,object_10,667.0,3,2,527.0,0.6666666666666666,1,object_08,1,3724,0,6,3,forest_5,1,memory-2step-stake-s,746,3111658,0.0-19.0-0.1-0.254,AKP66RIZ3LQVX,3A3KKYU7Q6XNN7OKJ3M7MRU2CR5MWB,33UKMF931D02U484NXNAA5EIWJ8TTJ,4,3
255,4,object_07,object_09,558.0,7,1,400.0,0.6666666666666666,1,object_08,5,3754,0,6,4,restaurant_6,1,memory-2step-stake-s,747,3119867,0.0-19.0-0.1-0.255,AKP66RIZ3LQVX,3A3KKYU7Q6XNN7OKJ3M7MRU2CR5MWB,33UKMF931D02U484NXNAA5EIWJ8TTJ,7,8
