,state1,stim_left,stim_right,rt_1,choice1,response1,rt_2,points,state2,stim_state2,stake,score,practice,rews1,rews2,background,high_arm,trial_type,trial_index,time_elapsed,internal_node_id,subid,hitid,assignmentid,stim_left_num,stim_right_num
0,1,object_10,object_01,727.0,2,1,-1.0,0.0,2,object_04,5,0,0,2,2,desert_1,2,memory-2step-stake-s,489,706865,0.0-19.0-0.0-0.0,A1M21S1FNT817B,382GHPVPIV7ASJXQ3FB9V025S7G34H,3MTMREQS4ZYP7PDPC2142KVPCM6AW2,2,1
1,2,object_03,object_05,685.89999999851,4,1,500.0,0.3333333333333333,2,object_04,1,3,0,2,3,forest_4,2,memory-2step-stake-s,490,714911,0.0-19.0-0.0-0.1,A1M21S1FNT817B,382GHPVPIV7ASJXQ3FB9V025S7G34H,3MTMREQS4ZYP7PDPC2142KVPCM6AW2,4,3
2,4,object_09,object_07,655.5,8,2,558.69999999553,0.1111111111111111,2,object_04,1,4,0,1,1,restaurant_3,2,memory-2step-stake-s,491,722805,0.0-19.0-0.0-0.2,A1M21S1FNT817B,382GHPVPIV7ASJXQ3FB9V025S7G34H,3MTMREQS4ZYP7PDPC2142KVPCM6AW2,7,8
3,1,object_01,object_10,362.30000000447,1,1,889.19999999553,0.1111111111111111,1,object_08,1,5,0,1,4,desert_1,2,memory-2step-stake-s,492,731031,0.0-19.0-0.0-0.3,A1M21S1FNT817B,382GHPVPIV7ASJXQ3FB9V025S7G34H,3MTMREQS4ZYP7PDPC2142KVPCM6AW2,1,2
4,4,object_09,object_07,383.89999999851,7,1,540.79999999702,0.3333333333333333,1,object_08,1,8,0,3,5,restaurant_3,2,memory-2step-stake-s,493,739118,0.0-19.0-0.0-0.4,A1M21S1FNT817B,382GHPVPIV7ASJXQ3FB9V025S7G34H,3MTMREQS4ZYP7PDPC2142KVPCM6AW2,7,8
5,2,object_03,object_05,502.10000000149,4,1,558.29999999702,0.6666666666666666,2,object_04,5,38,0,4,6,forest_6,2,memory-2step-stake-s,494,747541,0.0-19.0-0.0-0.5,A1M21S1FNT817B,382GHPVPIV7ASJXQ3FB9V025S7G34H,3MTMREQS4ZYP7PDPC2142KVPCM6AW2,4,3
6,2,object_03,object_05,333.69999999553,3,2,429.0,0.3333333333333333,1,object_08,1,41,0,3,4,forest_3,2,memory-2step-stake-s,495,755517,0.0-19.0-0.0-0.6,A1M21S1FNT817B,382GHPVPIV7ASJXQ3FB9V025S7G34H,3MTMREQS4ZYP7PDPC2142KVPCM6AW2,4,3
7,3,object_06,object_02,635.60000000149,5,2,411.80000000447,0.4444444444444444,1,object_08,1,45,0,4,5,library_4,2,memory-2step-stake-s,496,763575,0.0-19.0-0.0-0.7,A1M21S1FNT817B,382GHPVPIV7ASJXQ3FB9V025S7G34H,3MTMREQS4ZYP7PDPC2142KVPCM6AW2,6,5
8,3,object_02,object_06,545.0,5,1,414.89999999851,0.3333333333333333,1,object_08,1,48,0,3,8,library_1,2,memory-2step-stake-s,497,771545,0.0-19.0-0.0-0.8,A1M21S1FNT817B,382GHPVPIV7ASJXQ3FB9V025S7G34H,3MTMREQS4ZYP7PDPC2142KVPCM6AW2,5,6
9,2,object_03,object_05,427.80000000447,3,2,493.5,0.2222222222222222,1,object_08,1,50,0,2,8,forest_6,2,memory-2step-stake-s,498,779481,0.0-19.0-0.0-0.9,A1M21S1FNT817B,382GHPVPIV7ASJXQ3FB9V025S7G34H,3MTMREQS4ZYP7PDPC2142KVPCM6AW2,4,3
10,4,object_09,object_07,397.80000000447,7,1,483.09999999404,0.1111111111111111,1,object_08,1,51,0,1,6,restaurant_5,2,memory-2step-stake-s,499,787300,0.0-19.0-0.0-0.10,A1M21S1FNT817B,382GHPVPIV7ASJXQ3FB9V025S7G34H,3MTMREQS4ZYP7PDPC2142KVPCM6AW2,7,8
11,2,object_05,object_03,401.39999999851,3,1,479.19999999553,0.3333333333333333,1,object_08,1,54,0,3,8,forest_8,2,memory-2step-stake-s,500,795328,0.0-19.0-0.0-0.11,A1M21S1FNT817B,382GHPVPIV7ASJXQ3FB9V025S7G34H,3MTMREQS4ZYP7PDPC2142KVPCM6AW2,3,4
12,4,object_07,object_09,358.39999999851,8,1,474.29999999702,0.7777777777777778,2,object_04,1,61,0,1,7,restaurant_5,2,memory-2step-stake-s,501,803769,0.0-19.0-0.0-0.12,A1M21S1FNT817B,382GHPVPIV7ASJXQ3FB9V025S7G34H,3MTMREQS4ZYP7PDPC2142KVPCM6AW2,8,7
13,3,object_02,object_06,383.60000000149,6,2,385.60000000149,0.8888888888888888,2,object_04,1,69,0,1,8,library_1,2,memory-2step-stake-s,502,812223,0.0-19.0-0.0-0.13,A1M21S1FNT817B,382GHPVPIV7ASJXQ3FB9V025S7G34H,3MTMREQS4ZYP7PDPC2142KVPCM6AW2,5,6
14,4,object_07,object_09,432.29999999702,8,1,436.10000000149,1.0,2,object_04,1,78,0,1,9,restaurant_8,2,memory-2step-stake-s,503,820824,0.0-19.0-0.0-0.14,A1M21S1FNT817B,382GHPVPIV7ASJXQ3FB9V025S7G34H,3MTMREQS4ZYP7PDPC2142KVPCM6AW2,8,7
15,2,object_03,object_05,466.29999999702,3,2,354.90000000596,0.1111111111111111,1,object_08,5,83,0,1,7,forest_4,2,memory-2step-stake-s,504,828506,0.0-19.0-0.0-0.15,A1M21S1FNT817B,382GHPVPIV7ASJXQ3FB9V025S7G34H,3MTMREQS4ZYP7PDPC2142KVPCM6AW2,4,3
16,2,object_05,object_03,324.59999999404,3,1,403.89999999851,0.4444444444444444,1,object_08,5,103,0,4,7,forest_4,2,memory-2step-stake-s,505,836562,0.0-19.0-0.0-0.16,A1M21S1FNT817B,382GHPVPIV7ASJXQ3FB9V025S7G34H,3MTMREQS4ZYP7PDPC2142KVPCM6AW2,3,4
17,4,object_07,object_09,313.5,7,2,441.0,0.4444444444444444,1,object_08,1,107,0,4,4,restaurant_8,2,memory-2step-stake-s,506,844660,0.0-19.0-0.0-0.17,A1M21S1FNT817B,382GHPVPIV7ASJXQ3FB9V025S7G34H,3MTMREQS4ZYP7PDPC2142KVPCM6AW2,8,7
18,4,object_09,object_07,302.20000000298,7,1,438.60000000149,0.3333333333333333,1,object_08,1,110,0,3,4,restaurant_7,2,memory-2step-stake-s,507,852648,0.0-19.0-0.0-0.18,A1M21S1FNT817B,382GHPVPIV7ASJXQ3FB9V025S7G34H,3MTMREQS4ZYP7PDPC2142KVPCM6AW2,7,8
19,4,object_09,object_07,598.5,8,2,402.19999999553,0.7777777777777778,2,object_04,5,145,0,5,7,restaurant_3,2,memory-2step-stake-s,508,861013,0.0-19.0-0.0-0.19,A1M21S1FNT817B,382GHPVPIV7ASJXQ3FB9V025S7G34H,3MTMREQS4ZYP7PDPC2142KVPCM6AW2,7,8
20,3,object_02,object_06,400.29999999702,5,1,545.40000000596,0.5555555555555556,1,object_08,1,150,0,5,6,library_4,2,memory-2step-stake-s,509,869314,0.0-19.0-0.0-0.20,A1M21S1FNT817B,382GHPVPIV7ASJXQ3FB9V025S7G34H,3MTMREQS4ZYP7PDPC2142KVPCM6AW2,5,6
21,4,object_09,object_07,449.5,8,2,383.0,0.3333333333333333,2,object_04,1,153,0,5,3,restaurant_8,2,memory-2step-stake-s,510,877244,0.0-19.0-0.0-0.21,A1M21S1FNT817B,382GHPVPIV7ASJXQ3FB9V025S7G34H,3MTMREQS4ZYP7PDPC2142KVPCM6AW2,7,8
22,3,object_02,object_06,124.39999999851,5,1,343.0,0.3333333333333333,1,object_08,1,156,0,3,2,library_3,2,memory-2step-stake-s,511,885133,0.0-19.0-0.0-0.22,A1M21S1FNT817B,382GHPVPIV7ASJXQ3FB9V025S7G34H,3MTMREQS4ZYP7PDPC2142KVPCM6AW2,5,6
23,3,object_02,object_06,416.90000000596,6,2,523.39999999851,0.1111111111111111,2,object_04,1,157,0,3,1,library_7,2,memory-2step-stake-s,512,892990,0.0-19.0-0.0-0.23,A1M21S1FNT817B,382GHPVPIV7ASJXQ3FB9V025S7G34H,3MTMREQS4ZYP7PDPC2142KVPCM6AW2,5,6
24,4,object_09,object_07,358.80000000447,8,2,766.20000000298,0.5555555555555556,2,object_04,1,162,0,3,5,restaurant_3,2,memory-2step-stake-s,513,901509,0.0-19.0-0.0-0.24,A1M21S1FNT817B,382GHPVPIV7ASJXQ3FB9V025S7G34H,3MTMREQS4ZYP7PDPC2142KVPCM6AW2,7,8
25,2,object_03,object_05,338.39999999851,4,1,538.80000000447,0.5555555555555556,2,object_04,5,187,0,0,5,forest_3,2,memory-2step-stake-s,514,909805,0.0-19.0-0.0-0.25,A1M21S1FNT817B,382GHPVPIV7ASJXQ3FB9V025S7G34H,3MTMREQS4ZYP7PDPC2142KVPCM6AW2,4,3
26,4,object_07,object_09,325.10000000149,8,1,472.10000000149,0.2222222222222222,2,object_04,1,189,0,4,2,restaurant_7,2,memory-2step-stake-s,515,917723,0.0-19.0-0.0-0.26,A1M21S1FNT817B,382GHPVPIV7ASJXQ3FB9V025S7G34H,3MTMREQS4ZYP7PDPC2142KVPCM6AW2,8,7
27,4,object_07,object_09,310.40000000596,7,2,479.5,0.4444444444444444,1,object_08,1,193,0,4,3,restaurant_8,2,memory-2step-stake-s,516,925855,0.0-19.0-0.0-0.27,A1M21S1FNT817B,382GHPVPIV7ASJXQ3FB9V025S7G34H,3MTMREQS4ZYP7PDPC2142KVPCM6AW2,8,7
28,4,object_07,object_09,480.39999999851,8,1,465.19999999553,0.1111111111111111,2,object_04,5,198,0,6,1,restaurant_8,2,memory-2step-stake-s,517,933664,0.0-19.0-0.0-0.28,A1M21S1FNT817B,382GHPVPIV7ASJXQ3FB9V025S7G34H,3MTMREQS4ZYP7PDPC2142KVPCM6AW2,8,7
29,3,object_06,object_02,438.19999999553,5,2,581.5,0.6666666666666666,1,object_08,1,204,0,6,1,library_3,2,memory-2step-stake-s,518,942099,0.0-19.0-0.0-0.29,A1M21S1FNT817B,382GHPVPIV7ASJXQ3FB9V025S7G34H,3MTMREQS4ZYP7PDPC2142KVPCM6AW2,6,5
30,3,object_02,object_06,551.5,6,2,458.90000000596,0.2222222222222222,2,object_04,5,214,0,6,2,library_7,2,memory-2step-stake-s,519,949991,0.0-19.0-0.0-0.30,A1M21S1FNT817B,382GHPVPIV7ASJXQ3FB9V025S7G34H,3MTMREQS4ZYP7PDPC2142KVPCM6AW2,5,6
31,3,object_02,object_06,360.69999999553,5,1,579.0,0.5555555555555556,1,object_08,1,219,0,5,3,library_1,2,memory-2step-stake-s,520,958307,0.0-19.0-0.0-0.31,A1M21S1FNT817B,382GHPVPIV7ASJXQ3FB9V025S7G34H,3MTMREQS4ZYP7PDPC2142KVPCM6AW2,5,6
32,4,object_07,object_09,438.60000000149,8,1,427.89999999851,0.2222222222222222,2,object_04,1,221,0,4,2,restaurant_7,2,memory-2step-stake-s,521,966172,0.0-19.0-0.0-0.32,A1M21S1FNT817B,382GHPVPIV7ASJXQ3FB9V025S7G34H,3MTMREQS4ZYP7PDPC2142KVPCM6AW2,8,7
33,1,object_01,object_10,453.19999999553,1,1,535.20000000298,0.3333333333333333,1,object_08,1,224,0,3,1,desert_3,2,memory-2step-stake-s,522,974248,0.0-19.0-0.0-0.33,A1M21S1FNT817B,382GHPVPIV7ASJXQ3FB9V025S7G34H,3MTMREQS4ZYP7PDPC2142KVPCM6AW2,1,2
34,1,object_10,object_01,569.30000000447,2,1,367.29999999702,0.1111111111111111,2,object_04,5,229,0,3,1,desert_1,2,memory-2step-stake-s,523,981950,0.0-19.0-0.0-0.34,A1M21S1FNT817B,382GHPVPIV7ASJXQ3FB9V025S7G34H,3MTMREQS4ZYP7PDPC2142KVPCM6AW2,2,1
35,3,object_02,object_06,407.30000000447,6,2,624.60000000149,0.3333333333333333,2,object_04,1,232,0,2,3,library_4,2,memory-2step-stake-s,524,990113,0.0-19.0-0.0-0.35,A1M21S1FNT817B,382GHPVPIV7ASJXQ3FB9V025S7G34H,3MTMREQS4ZYP7PDPC2142KVPCM6AW2,5,6
36,1,object_01,object_10,413.5,1,1,675.09999999404,0.2222222222222222,1,object_08,1,234,0,2,4,desert_1,2,memory-2step-stake-s,525,998228,0.0-19.0-0.0-0.36,A1M21S1FNT817B,382GHPVPIV7ASJXQ3FB9V025S7G34H,3MTMREQS4ZYP7PDPC2142KVPCM6AW2,1,2
37,1,object_01,object_10,479.39999999851,2,2,414.19999999553,0.7777777777777778,2,object_04,5,269,0,3,7,desert_3,2,memory-2step-stake-s,526,1006611,0.0-19.0-0.0-0.37,A1M21S1FNT817B,382GHPVPIV7ASJXQ3FB9V025S7G34H,3MTMREQS4ZYP7PDPC2142KVPCM6AW2,1,2
38,2,object_03,object_05,318.5,4,1,423.39999999851,0.7777777777777778,2,object_04,1,276,0,4,7,forest_3,2,memory-2step-stake-s,527,1014989,0.0-19.0-0.0-0.38,A1M21S1FNT817B,382GHPVPIV7ASJXQ3FB9V025S7G34H,3MTMREQS4ZYP7PDPC2142KVPCM6AW2,4,3
39,4,object_07,object_09,346.5,7,2,429.39999999851,0.4444444444444444,1,object_08,1,280,0,4,6,restaurant_8,2,memory-2step-stake-s,528,1023067,0.0-19.0-0.0-0.39,A1M21S1FNT817B,382GHPVPIV7ASJXQ3FB9V025S7G34H,3MTMREQS4ZYP7PDPC2142KVPCM6AW2,8,7
40,2,object_05,object_03,294.60000000149,3,1,533.69999999553,0.2222222222222222,1,object_08,5,290,0,2,6,forest_8,2,memory-2step-stake-s,529,1031052,0.0-19.0-0.0-0.40,A1M21S1FNT817B,382GHPVPIV7ASJXQ3FB9V025S7G34H,3MTMREQS4ZYP7PDPC2142KVPCM6AW2,3,4
41,4,object_07,object_09,940.5,7,2,425.60000000149,0.1111111111111111,1,object_08,1,291,0,1,8,restaurant_7,2,memory-2step-stake-s,530,1038803,0.0-19.0-0.0-0.41,A1M21S1FNT817B,382GHPVPIV7ASJXQ3FB9V025S7G34H,3MTMREQS4ZYP7PDPC2142KVPCM6AW2,8,7
42,3,object_02,object_06,344.80000000447,5,1,349.20000000298,0.1111111111111111,1,object_08,1,292,0,1,7,library_3,2,memory-2step-stake-s,531,1046491,0.0-19.0-0.0-0.42,A1M21S1FNT817B,382GHPVPIV7ASJXQ3FB9V025S7G34H,3MTMREQS4ZYP7PDPC2142KVPCM6AW2,5,6
43,4,object_07,object_09,774.80000000447,7,2,546.70000000298,0.1111111111111111,1,object_08,1,293,0,1,8,restaurant_3,2,memory-2step-stake-s,532,1054375,0.0-19.0-0.0-0.43,A1M21S1FNT817B,382GHPVPIV7ASJXQ3FB9V025S7G34H,3MTMREQS4ZYP7PDPC2142KVPCM6AW2,8,7
44,3,object_06,object_02,311.09999999404,5,2,408.10000000149,0.0,1,object_08,5,293,0,0,7,library_1,2,memory-2step-stake-s,533,1062020,0.0-19.0-0.0-0.44,A1M21S1FNT817B,382GHPVPIV7ASJXQ3FB9V025S7G34H,3MTMREQS4ZYP7PDPC2142KVPCM6AW2,6,5
45,2,object_05,object_03,363.20000000298,3,1,487.5,0.2222222222222222,1,object_08,5,303,0,2,7,forest_6,2,memory-2step-stake-s,534,1069950,0.0-19.0-0.0-0.45,A1M21S1FNT817B,382GHPVPIV7ASJXQ3FB9V025S7G34H,3MTMREQS4ZYP7PDPC2142KVPCM6AW2,3,4
46,1,object_01,object_10,386.10000000149,2,2,425.5,0.3333333333333333,2,object_04,5,318,0,2,3,desert_2,2,memory-2step-stake-s,535,1077925,0.0-19.0-0.0-0.46,A1M21S1FNT817B,382GHPVPIV7ASJXQ3FB9V025S7G34H,3MTMREQS4ZYP7PDPC2142KVPCM6AW2,1,2
47,1,object_01,object_10,366.79999999702,1,1,704.70000000298,0.0,1,object_08,5,318,0,0,0,desert_3,2,memory-2step-stake-s,536,1085862,0.0-19.0-0.0-0.47,A1M21S1FNT817B,382GHPVPIV7ASJXQ3FB9V025S7G34H,3MTMREQS4ZYP7PDPC2142KVPCM6AW2,1,2
48,4,object_09,object_07,359.10000000149,8,2,493.0,0.3333333333333333,2,object_04,1,321,0,2,3,restaurant_5,2,memory-2step-stake-s,537,1093901,0.0-19.0-0.0-0.48,A1M21S1FNT817B,382GHPVPIV7ASJXQ3FB9V025S7G34H,3MTMREQS4ZYP7PDPC2142KVPCM6AW2,7,8
49,3,object_02,object_06,318.5,6,2,428.5,0.2222222222222222,2,object_04,1,323,0,4,2,library_7,2,memory-2step-stake-s,538,1101773,0.0-19.0-0.0-0.49,A1M21S1FNT817B,382GHPVPIV7ASJXQ3FB9V025S7G34H,3MTMREQS4ZYP7PDPC2142KVPCM6AW2,5,6
50,3,object_02,object_06,372.70000000298,6,2,456.5,0.3333333333333333,2,object_04,1,326,0,4,3,library_3,2,memory-2step-stake-s,539,1109779,0.0-19.0-0.0-0.50,A1M21S1FNT817B,382GHPVPIV7ASJXQ3FB9V025S7G34H,3MTMREQS4ZYP7PDPC2142KVPCM6AW2,5,6
51,1,object_01,object_10,334.80000000447,2,2,392.80000000447,0.0,2,object_04,5,326,0,5,0,desert_6,2,memory-2step-stake-s,540,1117406,0.0-19.0-0.0-0.51,A1M21S1FNT817B,382GHPVPIV7ASJXQ3FB9V025S7G34H,3MTMREQS4ZYP7PDPC2142KVPCM6AW2,1,2
52,2,object_05,object_03,384.40000000596,4,2,457.10000000149,0.2222222222222222,2,object_04,5,336,0,6,2,forest_3,2,memory-2step-stake-s,541,1125307,0.0-19.0-0.0-0.52,A1M21S1FNT817B,382GHPVPIV7ASJXQ3FB9V025S7G34H,3MTMREQS4ZYP7PDPC2142KVPCM6AW2,3,4
53,4,object_09,object_07,387.5,8,2,393.60000000149,0.2222222222222222,2,object_04,1,338,0,5,2,restaurant_3,2,memory-2step-stake-s,542,1133143,0.0-19.0-0.0-0.53,A1M21S1FNT817B,382GHPVPIV7ASJXQ3FB9V025S7G34H,3MTMREQS4ZYP7PDPC2142KVPCM6AW2,7,8
54,2,object_05,object_03,323.69999999553,3,1,385.19999999553,0.4444444444444444,1,object_08,5,358,0,4,0,forest_3,2,memory-2step-stake-s,543,1141178,0.0-19.0-0.0-0.54,A1M21S1FNT817B,382GHPVPIV7ASJXQ3FB9V025S7G34H,3MTMREQS4ZYP7PDPC2142KVPCM6AW2,3,4
55,1,object_01,object_10,375.10000000149,2,2,354.40000000596,0.3333333333333333,2,object_04,5,373,0,7,3,desert_1,2,memory-2step-stake-s,544,1149079,0.0-19.0-0.0-0.55,A1M21S1FNT817B,382GHPVPIV7ASJXQ3FB9V025S7G34H,3MTMREQS4ZYP7PDPC2142KVPCM6AW2,1,2
56,1,object_10,object_01,310.10000000149,1,2,375.20000000298,0.8888888888888888,1,object_08,5,413,0,8,1,desert_2,2,memory-2step-stake-s,545,1157525,0.0-19.0-0.0-0.56,A1M21S1FNT817B,382GHPVPIV7ASJXQ3FB9V025S7G34H,3MTMREQS4ZYP7PDPC2142KVPCM6AW2,2,1
57,3,object_06,object_02,312.29999999702,6,1,446.20000000298,0.1111111111111111,2,object_04,5,418,0,8,1,library_3,2,memory-2step-stake-s,546,1165310,0.0-19.0-0.0-0.57,A1M21S1FNT817B,382GHPVPIV7ASJXQ3FB9V025S7G34H,3MTMREQS4ZYP7PDPC2142KVPCM6AW2,6,5
58,4,object_09,object_07,240.09999999404,8,2,413.89999999851,0.0,2,object_04,1,418,0,9,0,restaurant_5,2,memory-2step-stake-s,547,1172955,0.0-19.0-0.0-0.58,A1M21S1FNT817B,382GHPVPIV7ASJXQ3FB9V025S7G34H,3MTMREQS4ZYP7PDPC2142KVPCM6AW2,7,8
59,2,object_05,object_03,334.5,3,1,456.10000000149,0.8888888888888888,1,object_08,1,426,0,8,4,forest_6,2,memory-2step-stake-s,548,1181489,0.0-19.0-0.0-0.59,A1M21S1FNT817B,382GHPVPIV7ASJXQ3FB9V025S7G34H,3MTMREQS4ZYP7PDPC2142KVPCM6AW2,3,4
60,1,object_10,object_01,246.80000000447,2,1,516.10000000149,0.6666666666666666,2,object_04,5,456,0,7,6,desert_2,2,memory-2step-stake-s,549,1189866,0.0-19.0-0.0-0.60,A1M21S1FNT817B,382GHPVPIV7ASJXQ3FB9V025S7G34H,3MTMREQS4ZYP7PDPC2142KVPCM6AW2,2,1
61,2,object_05,object_03,320.59999999404,4,2,700.30000000447,0.6666666666666666,2,object_04,1,462,0,9,6,forest_6,2,memory-2step-stake-s,550,1198420,0.0-19.0-0.0-0.61,A1M21S1FNT817B,382GHPVPIV7ASJXQ3FB9V025S7G34H,3MTMREQS4ZYP7PDPC2142KVPCM6AW2,3,4
62,3,object_06,object_02,390.5,6,1,746.20000000298,0.3333333333333333,2,object_04,1,465,0,9,3,library_1,2,memory-2step-stake-s,551,1206718,0.0-19.0-0.0-0.62,A1M21S1FNT817B,382GHPVPIV7ASJXQ3FB9V025S7G34H,3MTMREQS4ZYP7PDPC2142KVPCM6AW2,6,5
63,1,object_10,object_01,390.59999999404,1,2,344.89999999851,0.8888888888888888,1,object_08,5,505,0,8,4,desert_3,2,memory-2step-stake-s,552,1215129,0.0-19.0-0.0-0.63,A1M21S1FNT817B,382GHPVPIV7ASJXQ3FB9V025S7G34H,3MTMREQS4ZYP7PDPC2142KVPCM6AW2,2,1
64,3,object_06,object_02,351.0,6,1,555.69999999553,0.6666666666666666,2,object_04,1,511,0,7,6,library_1,2,memory-2step-stake-s,553,1223541,0.0-19.0-0.0-0.64,A1M21S1FNT817B,382GHPVPIV7ASJXQ3FB9V025S7G34H,3MTMREQS4ZYP7PDPC2142KVPCM6AW2,6,5
65,4,object_09,object_07,429.59999999404,8,2,400.20000000298,0.5555555555555556,2,object_04,5,536,0,9,5,restaurant_8,2,memory-2step-stake-s,554,1231691,0.0-19.0-0.0-0.65,A1M21S1FNT817B,382GHPVPIV7ASJXQ3FB9V025S7G34H,3MTMREQS4ZYP7PDPC2142KVPCM6AW2,7,8
66,3,object_06,object_02,288.30000000447,6,1,481.70000000298,0.5555555555555556,2,object_04,1,541,0,6,5,library_4,2,memory-2step-stake-s,555,1239929,0.0-19.0-0.0-0.66,A1M21S1FNT817B,382GHPVPIV7ASJXQ3FB9V025S7G34H,3MTMREQS4ZYP7PDPC2142KVPCM6AW2,6,5
67,4,object_09,object_07,290.69999999553,7,1,564.70000000298,0.5555555555555556,1,object_08,1,546,0,5,4,restaurant_3,2,memory-2step-stake-s,556,1248247,0.0-19.0-0.0-0.67,A1M21S1FNT817B,382GHPVPIV7ASJXQ3FB9V025S7G34H,3MTMREQS4ZYP7PDPC2142KVPCM6AW2,7,8
68,1,object_01,object_10,86.0,2,2,469.5,0.4444444444444444,2,object_04,1,550,0,5,4,desert_1,2,memory-2step-stake-s,557,1256369,0.0-19.0-0.0-0.68,A1M21S1FNT817B,382GHPVPIV7ASJXQ3FB9V025S7G34H,3MTMREQS4ZYP7PDPC2142KVPCM6AW2,1,2
69,4,object_07,object_09,184.70000000298,8,1,412.5,0.4444444444444444,2,object_04,5,570,0,4,4,restaurant_3,2,memory-2step-stake-s,558,1264432,0.0-19.0-0.0-0.69,A1M21S1FNT817B,382GHPVPIV7ASJXQ3FB9V025S7G34H,3MTMREQS4ZYP7PDPC2142KVPCM6AW2,8,7
70,4,object_09,object_07,352.89999999851,7,1,409.39999999851,0.5555555555555556,1,object_08,1,575,0,5,3,restaurant_3,2,memory-2step-stake-s,559,1272594,0.0-19.0-0.0-0.70,A1M21S1FNT817B,382GHPVPIV7ASJXQ3FB9V025S7G34H,3MTMREQS4ZYP7PDPC2142KVPCM6AW2,7,8
71,1,object_01,object_10,341.69999999553,2,2,435.39999999851,0.5555555555555556,2,object_04,5,600,0,6,5,desert_6,2,memory-2step-stake-s,560,1280779,0.0-19.0-0.0-0.71,A1M21S1FNT817B,382GHPVPIV7ASJXQ3FB9V025S7G34H,3MTMREQS4ZYP7PDPC2142KVPCM6AW2,1,2
72,2,object_03,object_05,302.20000000298,4,1,390.20000000298,0.4444444444444444,2,object_04,5,620,0,3,4,forest_6,2,memory-2step-stake-s,561,1288819,0.0-19.0-0.0-0.72,A1M21S1FNT817B,382GHPVPIV7ASJXQ3FB9V025S7G34H,3MTMREQS4ZYP7PDPC2142KVPCM6AW2,4,3
73,2,object_05,object_03,326.0,4,2,424.60000000149,0.4444444444444444,2,object_04,5,640,0,1,4,forest_6,2,memory-2step-stake-s,562,1296894,0.0-19.0-0.0-0.73,A1M21S1FNT817B,382GHPVPIV7ASJXQ3FB9V025S7G34H,3MTMREQS4ZYP7PDPC2142KVPCM6AW2,3,4
74,4,object_09,object_07,340.19999999553,7,1,457.89999999851,0.2222222222222222,1,object_08,1,642,0,2,6,restaurant_7,2,memory-2step-stake-s,563,1304797,0.0-19.0-0.0-0.74,A1M21S1FNT817B,382GHPVPIV7ASJXQ3FB9V025S7G34H,3MTMREQS4ZYP7PDPC2142KVPCM6AW2,7,8
75,4,object_07,object_09,261.79999999702,8,1,469.89999999851,0.7777777777777778,2,object_04,1,649,0,0,7,restaurant_5,2,memory-2step-stake-s,564,1313229,0.0-19.0-0.0-0.75,A1M21S1FNT817B,382GHPVPIV7ASJXQ3FB9V025S7G34H,3MTMREQS4ZYP7PDPC2142KVPCM6AW2,8,7
76,2,object_05,object_03,900.29999999702,4,2,569.79999999702,0.7777777777777778,2,object_04,1,656,0,2,7,forest_8,2,memory-2step-stake-s,565,1321763,0.0-19.0-0.0-0.76,A1M21S1FNT817B,382GHPVPIV7ASJXQ3FB9V025S7G34H,3MTMREQS4ZYP7PDPC2142KVPCM6AW2,3,4
77,1,object_10,object_01,512.30000000447,2,1,412.79999999702,0.6666666666666666,2,object_04,5,686,0,8,6,desert_3,2,memory-2step-stake-s,566,1330035,0.0-19.0-0.0-0.77,A1M21S1FNT817B,382GHPVPIV7ASJXQ3FB9V025S7G34H,3MTMREQS4ZYP7PDPC2142KVPCM6AW2,2,1
78,1,object_01,object_10,345.0,2,2,525.5,0.7777777777777778,2,object_04,5,721,0,4,7,desert_3,2,memory-2step-stake-s,567,1338519,0.0-19.0-0.0-0.78,A1M21S1FNT817B,382GHPVPIV7ASJXQ3FB9V025S7G34H,3MTMREQS4ZYP7PDPC2142KVPCM6AW2,1,2
79,1,object_10,object_01,330.29999999702,1,2,474.20000000298,0.6666666666666666,1,object_08,5,751,0,6,7,desert_2,2,memory-2step-stake-s,568,1346841,0.0-19.0-0.0-0.79,A1M21S1FNT817B,382GHPVPIV7ASJXQ3FB9V025S7G34H,3MTMREQS4ZYP7PDPC2142KVPCM6AW2,2,1
80,1,object_01,object_10,299.30000000447,1,1,477.5,0.5555555555555556,1,object_08,5,776,0,5,7,desert_2,2,memory-2step-stake-s,569,1355068,0.0-19.0-0.0-0.80,A1M21S1FNT817B,382GHPVPIV7ASJXQ3FB9V025S7G34H,3MTMREQS4ZYP7PDPC2142KVPCM6AW2,1,2
81,1,object_10,object_01,310.10000000149,1,2,540.89999999851,0.4444444444444444,1,object_08,5,796,0,4,8,desert_2,2,memory-2step-stake-s,570,1363256,0.0-19.0-0.0-0.81,A1M21S1FNT817B,382GHPVPIV7ASJXQ3FB9V025S7G34H,3MTMREQS4ZYP7PDPC2142KVPCM6AW2,2,1
82,1,object_10,object_01,282.29999999702,2,1,480.79999999702,1.0,2,object_04,5,841,0,3,9,desert_1,2,memory-2step-stake-s,571,1371910,0.0-19.0-0.0-0.82,A1M21S1FNT817B,382GHPVPIV7ASJXQ3FB9V025S7G34H,3MTMREQS4ZYP7PDPC2142KVPCM6AW2,2,1
83,3,object_06,object_02,635.80000000447,5,2,569.79999999702,0.2222222222222222,1,object_08,5,851,0,2,7,library_4,2,memory-2step-stake-s,572,1379925,0.0-19.0-0.0-0.83,A1M21S1FNT817B,382GHPVPIV7ASJXQ3FB9V025S7G34H,3MTMREQS4ZYP7PDPC2142KVPCM6AW2,6,5
84,1,object_10,object_01,345.30000000447,2,1,425.0,0.4444444444444444,2,object_04,5,871,0,0,4,desert_6,2,memory-2step-stake-s,573,1388000,0.0-19.0-0.0-0.84,A1M21S1FNT817B,382GHPVPIV7ASJXQ3FB9V025S7G34H,3MTMREQS4ZYP7PDPC2142KVPCM6AW2,2,1
85,3,object_02,object_06,367.0,5,1,463.20000000298,0.2222222222222222,1,object_08,5,881,0,2,2,library_3,2,memory-2step-stake-s,574,1395906,0.0-19.0-0.0-0.85,A1M21S1FNT817B,382GHPVPIV7ASJXQ3FB9V025S7G34H,3MTMREQS4ZYP7PDPC2142KVPCM6AW2,5,6
86,3,object_02,object_06,645.80000000447,6,2,473.30000000447,0.4444444444444444,2,object_04,1,885,0,1,4,library_7,2,memory-2step-stake-s,575,1404027,0.0-19.0-0.0-0.86,A1M21S1FNT817B,382GHPVPIV7ASJXQ3FB9V025S7G34H,3MTMREQS4ZYP7PDPC2142KVPCM6AW2,5,6
87,2,object_03,object_05,313.39999999851,4,1,416.09999999404,0.4444444444444444,2,object_04,5,905,0,1,4,forest_8,2,memory-2step-stake-s,576,1412095,0.0-19.0-0.0-0.87,A1M21S1FNT817B,382GHPVPIV7ASJXQ3FB9V025S7G34H,3MTMREQS4ZYP7PDPC2142KVPCM6AW2,4,3
88,1,object_01,object_10,452.70000000298,1,1,525.20000000298,0.0,1,object_08,1,905,0,0,1,desert_6,2,memory-2step-stake-s,577,1419851,0.0-19.0-0.0-0.88,A1M21S1FNT817B,382GHPVPIV7ASJXQ3FB9V025S7G34H,3MTMREQS4ZYP7PDPC2142KVPCM6AW2,1,2
89,1,object_01,object_10,320.89999999851,1,1,549.40000000596,0.1111111111111111,1,object_08,1,906,0,1,2,desert_3,2,memory-2step-stake-s,578,1427740,0.0-19.0-0.0-0.89,A1M21S1FNT817B,382GHPVPIV7ASJXQ3FB9V025S7G34H,3MTMREQS4ZYP7PDPC2142KVPCM6AW2,1,2
90,2,object_05,object_03,322.10000000149,4,2,417.10000000149,0.3333333333333333,2,object_04,5,921,0,2,3,forest_4,2,memory-2step-stake-s,579,1435705,0.0-19.0-0.0-0.90,A1M21S1FNT817B,382GHPVPIV7ASJXQ3FB9V025S7G34H,3MTMREQS4ZYP7PDPC2142KVPCM6AW2,3,4
91,2,object_03,object_05,400.29999999702,4,1,653.79999999702,0.2222222222222222,2,object_04,1,923,0,0,2,forest_3,2,memory-2step-stake-s,580,1443803,0.0-19.0-0.0-0.91,A1M21S1FNT817B,382GHPVPIV7ASJXQ3FB9V025S7G34H,3MTMREQS4ZYP7PDPC2142KVPCM6AW2,4,3
92,3,object_02,object_06,449.70000000298,5,1,438.20000000298,0.2222222222222222,1,object_08,1,925,0,2,0,library_7,2,memory-2step-stake-s,581,1451680,0.0-19.0-0.0-0.92,A1M21S1FNT817B,382GHPVPIV7ASJXQ3FB9V025S7G34H,3MTMREQS4ZYP7PDPC2142KVPCM6AW2,5,6
93,1,object_01,object_10,348.0,2,2,567.89999999851,0.0,2,object_04,5,925,0,4,0,desert_1,2,memory-2step-stake-s,582,1459477,0.0-19.0-0.0-0.93,A1M21S1FNT817B,382GHPVPIV7ASJXQ3FB9V025S7G34H,3MTMREQS4ZYP7PDPC2142KVPCM6AW2,1,2
94,1,object_01,object_10,426.30000000447,1,1,333.59999999404,0.4444444444444444,1,object_08,5,945,0,4,1,desert_3,2,memory-2step-stake-s,583,1467458,0.0-19.0-0.0-0.94,A1M21S1FNT817B,382GHPVPIV7ASJXQ3FB9V025S7G34H,3MTMREQS4ZYP7PDPC2142KVPCM6AW2,1,2
95,3,object_02,object_06,307.70000000298,5,1,433.89999999851,0.4444444444444444,1,object_08,1,949,0,4,4,library_1,2,memory-2step-stake-s,584,1475545,0.0-19.0-0.0-0.95,A1M21S1FNT817B,382GHPVPIV7ASJXQ3FB9V025S7G34H,3MTMREQS4ZYP7PDPC2142KVPCM6AW2,5,6
96,3,object_02,object_06,334.5,5,1,457.0,0.2222222222222222,1,object_08,5,959,0,2,7,library_1,2,memory-2step-stake-s,585,1483445,0.0-19.0-0.0-0.96,A1M21S1FNT817B,382GHPVPIV7ASJXQ3FB9V025S7G34H,3MTMREQS4ZYP7PDPC2142KVPCM6AW2,5,6
97,3,object_02,object_06,373.89999999851,6,2,528.0,0.7777777777777778,2,object_04,1,966,0,1,7,library_4,2,memory-2step-stake-s,586,1491938,0.0-19.0-0.0-0.97,A1M21S1FNT817B,382GHPVPIV7ASJXQ3FB9V025S7G34H,3MTMREQS4ZYP7PDPC2142KVPCM6AW2,5,6
98,1,object_01,object_10,483.30000000447,1,1,560.10000000149,0.1111111111111111,1,object_08,5,971,0,1,7,desert_2,2,memory-2step-stake-s,587,1499839,0.0-19.0-0.0-0.98,A1M21S1FNT817B,382GHPVPIV7ASJXQ3FB9V025S7G34H,3MTMREQS4ZYP7PDPC2142KVPCM6AW2,1,2
99,2,object_05,object_03,308.79999999702,4,2,543.5,0.8888888888888888,2,object_04,5,1011,0,2,8,forest_3,2,memory-2step-stake-s,588,1508453,0.0-19.0-0.0-0.99,A1M21S1FNT817B,382GHPVPIV7ASJXQ3FB9V025S7G34H,3MTMREQS4ZYP7PDPC2142KVPCM6AW2,3,4
100,2,object_05,object_03,370.79999999702,3,1,458.5,0.2222222222222222,1,object_08,1,1013,0,2,8,forest_8,2,memory-2step-stake-s,589,1516354,0.0-19.0-0.0-0.100,A1M21S1FNT817B,382GHPVPIV7ASJXQ3FB9V025S7G34H,3MTMREQS4ZYP7PDPC2142KVPCM6AW2,3,4
101,4,object_07,object_09,324.5,7,2,439.39999999851,0.3333333333333333,1,object_08,1,1016,0,3,6,restaurant_7,2,memory-2step-stake-s,590,1524342,0.0-19.0-0.0-0.101,A1M21S1FNT817B,382GHPVPIV7ASJXQ3FB9V025S7G34H,3MTMREQS4ZYP7PDPC2142KVPCM6AW2,8,7
102,4,object_09,object_07,367.80000000447,7,1,432.5,0.1111111111111111,1,object_08,1,1017,0,1,4,restaurant_7,2,memory-2step-stake-s,591,1532115,0.0-19.0-0.0-0.102,A1M21S1FNT817B,382GHPVPIV7ASJXQ3FB9V025S7G34H,3MTMREQS4ZYP7PDPC2142KVPCM6AW2,7,8
103,2,object_03,object_05,391.19999999553,3,2,618.89999999851,0.2222222222222222,1,object_08,5,1027,0,2,5,forest_3,2,memory-2step-stake-s,592,1540178,0.0-19.0-0.0-0.103,A1M21S1FNT817B,382GHPVPIV7ASJXQ3FB9V025S7G34H,3MTMREQS4ZYP7PDPC2142KVPCM6AW2,4,3
104,1,object_10,object_01,325.10000000149,1,2,373.79999999702,0.1111111111111111,1,object_08,1,1028,0,1,5,desert_2,2,memory-2step-stake-s,593,1547887,0.0-19.0-0.0-0.104,A1M21S1FNT817B,382GHPVPIV7ASJXQ3FB9V025S7G34H,3MTMREQS4ZYP7PDPC2142KVPCM6AW2,2,1
105,2,object_05,object_03,320.39999999851,3,1,542.39999999851,0.0,1,object_08,5,1028,0,0,4,forest_8,2,memory-2step-stake-s,594,1555660,0.0-19.0-0.0-0.105,A1M21S1FNT817B,382GHPVPIV7ASJXQ3FB9V025S7G34H,3MTMREQS4ZYP7PDPC2142KVPCM6AW2,3,4
106,4,object_07,object_09,292.79999999702,7,2,396.39999999851,0.0,1,object_08,1,1028,0,0,2,restaurant_8,2,memory-2step-stake-s,595,1563288,0.0-19.0-0.0-0.106,A1M21S1FNT817B,382GHPVPIV7ASJXQ3FB9V025S7G34H,3MTMREQS4ZYP7PDPC2142KVPCM6AW2,8,7
107,4,object_09,object_07,584.5,7,1,533.89999999851,0.0,1,object_08,5,1028,0,0,2,restaurant_3,2,memory-2step-stake-s,596,1571055,0.0-19.0-0.0-0.107,A1M21S1FNT817B,382GHPVPIV7ASJXQ3FB9V025S7G34H,3MTMREQS4ZYP7PDPC2142KVPCM6AW2,7,8
108,2,object_05,object_03,272.79999999702,4,2,538.0,0.3333333333333333,2,object_04,5,1043,0,2,3,forest_6,2,memory-2step-stake-s,597,1579133,0.0-19.0-0.0-0.108,A1M21S1FNT817B,382GHPVPIV7ASJXQ3FB9V025S7G34H,3MTMREQS4ZYP7PDPC2142KVPCM6AW2,3,4
109,2,object_05,object_03,360.30000000447,3,1,548.80000000447,0.0,1,object_08,5,1043,0,0,4,forest_3,2,memory-2step-stake-s,598,1586914,0.0-19.0-0.0-0.109,A1M21S1FNT817B,382GHPVPIV7ASJXQ3FB9V025S7G34H,3MTMREQS4ZYP7PDPC2142KVPCM6AW2,3,4
110,1,object_01,object_10,341.89999999851,2,2,632.39999999851,0.8888888888888888,2,object_04,5,1083,0,0,8,desert_3,2,memory-2step-stake-s,599,1595610,0.0-19.0-0.0-0.110,A1M21S1FNT817B,382GHPVPIV7ASJXQ3FB9V025S7G34H,3MTMREQS4ZYP7PDPC2142KVPCM6AW2,1,2
111,2,object_03,object_05,316.39999999851,3,2,425.79999999702,0.1111111111111111,1,object_08,5,1088,0,1,5,forest_3,2,memory-2step-stake-s,600,1603372,0.0-19.0-0.0-0.111,A1M21S1FNT817B,382GHPVPIV7ASJXQ3FB9V025S7G34H,3MTMREQS4ZYP7PDPC2142KVPCM6AW2,4,3
112,3,object_06,object_02,321.89999999851,6,1,378.0,0.6666666666666666,2,object_04,1,1094,0,1,6,library_7,2,memory-2step-stake-s,601,1611603,0.0-19.0-0.0-0.112,A1M21S1FNT817B,382GHPVPIV7ASJXQ3FB9V025S7G34H,3MTMREQS4ZYP7PDPC2142KVPCM6AW2,6,5
113,1,object_01,object_10,365.89999999851,1,1,445.29999999702,0.2222222222222222,1,object_08,5,1104,0,2,6,desert_3,2,memory-2step-stake-s,602,1619492,0.0-19.0-0.0-0.113,A1M21S1FNT817B,382GHPVPIV7ASJXQ3FB9V025S7G34H,3MTMREQS4ZYP7PDPC2142KVPCM6AW2,1,2
114,1,object_01,object_10,313.19999999553,2,2,422.09999999404,0.6666666666666666,2,object_04,5,1134,0,1,6,desert_2,2,memory-2step-stake-s,603,1627776,0.0-19.0-0.0-0.114,A1M21S1FNT817B,382GHPVPIV7ASJXQ3FB9V025S7G34H,3MTMREQS4ZYP7PDPC2142KVPCM6AW2,1,2
115,3,object_06,object_02,450.70000000298,5,2,778.89999999851,0.2222222222222222,1,object_08,1,1136,0,2,4,library_7,2,memory-2step-stake-s,604,1635989,0.0-19.0-0.0-0.115,A1M21S1FNT817B,382GHPVPIV7ASJXQ3FB9V025S7G34H,3MTMREQS4ZYP7PDPC2142KVPCM6AW2,6,5
116,3,object_06,object_02,339.20000000298,6,1,509.89999999851,0.4444444444444444,2,object_04,1,1140,0,2,4,library_1,2,memory-2step-stake-s,605,1644151,0.0-19.0-0.0-0.116,A1M21S1FNT817B,382GHPVPIV7ASJXQ3FB9V025S7G34H,3MTMREQS4ZYP7PDPC2142KVPCM6AW2,6,5
117,4,object_07,object_09,422.5,7,2,507.80000000447,0.3333333333333333,1,object_08,1,1143,0,3,5,restaurant_8,2,memory-2step-stake-s,606,1652198,0.0-19.0-0.0-0.117,A1M21S1FNT817B,382GHPVPIV7ASJXQ3FB9V025S7G34H,3MTMREQS4ZYP7PDPC2142KVPCM6AW2,8,7
118,1,object_01,object_10,253.69999999553,1,1,486.40000000596,0.5555555555555556,1,object_08,5,1168,0,5,5,desert_2,2,memory-2step-stake-s,607,1660441,0.0-19.0-0.0-0.118,A1M21S1FNT817B,382GHPVPIV7ASJXQ3FB9V025S7G34H,3MTMREQS4ZYP7PDPC2142KVPCM6AW2,1,2
119,4,object_09,object_07,303.70000000298,8,2,475.5,0.6666666666666666,2,object_04,1,1174,0,3,6,restaurant_5,2,memory-2step-stake-s,608,1668777,0.0-19.0-0.0-0.119,A1M21S1FNT817B,382GHPVPIV7ASJXQ3FB9V025S7G34H,3MTMREQS4ZYP7PDPC2142KVPCM6AW2,7,8
120,2,object_03,object_05,242.29999999702,4,1,403.20000000298,0.7777777777777778,2,object_04,5,1209,0,8,7,forest_4,2,memory-2step-stake-s,609,1677142,0.0-19.0-0.0-0.120,A1M21S1FNT817B,382GHPVPIV7ASJXQ3FB9V025S7G34H,3MTMREQS4ZYP7PDPC2142KVPCM6AW2,4,3
121,3,object_06,object_02,319.60000000149,5,2,525.89999999851,0.5555555555555556,1,object_08,1,1214,0,5,8,library_3,2,memory-2step-stake-s,610,1685420,0.0-19.0-0.0-0.121,A1M21S1FNT817B,382GHPVPIV7ASJXQ3FB9V025S7G34H,3MTMREQS4ZYP7PDPC2142KVPCM6AW2,6,5
122,4,object_09,object_07,323.39999999851,8,2,483.89999999851,0.6666666666666666,2,object_04,1,1220,0,4,6,restaurant_7,2,memory-2step-stake-s,611,1693762,0.0-19.0-0.0-0.122,A1M21S1FNT817B,382GHPVPIV7ASJXQ3FB9V025S7G34H,3MTMREQS4ZYP7PDPC2142KVPCM6AW2,7,8
123,1,object_01,object_10,539.29999999702,1,1,388.20000000298,0.2222222222222222,1,object_08,5,1230,0,2,2,desert_2,2,memory-2step-stake-s,612,1701593,0.0-19.0-0.0-0.123,A1M21S1FNT817B,382GHPVPIV7ASJXQ3FB9V025S7G34H,3MTMREQS4ZYP7PDPC2142KVPCM6AW2,1,2
124,4,object_09,object_07,355.60000000149,8,2,757.89999999851,0.1111111111111111,2,object_04,1,1231,0,6,1,restaurant_5,2,memory-2step-stake-s,613,1709675,0.0-19.0-0.0-0.124,A1M21S1FNT817B,382GHPVPIV7ASJXQ3FB9V025S7G34H,3MTMREQS4ZYP7PDPC2142KVPCM6AW2,7,8
125,3,object_06,object_02,404.80000000447,5,2,442.39999999851,0.8888888888888888,1,object_08,1,1239,0,8,1,library_3,2,memory-2step-stake-s,614,1718184,0.0-19.0-0.0-0.125,A1M21S1FNT817B,382GHPVPIV7ASJXQ3FB9V025S7G34H,3MTMREQS4ZYP7PDPC2142KVPCM6AW2,6,5
126,2,object_03,object_05,391.5,3,2,414.79999999702,0.5555555555555556,1,object_08,5,1264,0,5,0,forest_4,2,memory-2step-stake-s,615,1726351,0.0-19.0-0.0-0.126,A1M21S1FNT817B,382GHPVPIV7ASJXQ3FB9V025S7G34H,3MTMREQS4ZYP7PDPC2142KVPCM6AW2,4,3
127,1,object_01,object_10,354.39999999851,1,1,456.79999999702,0.5555555555555556,1,object_08,5,1289,0,5,0,desert_6,2,memory-2step-stake-s,616,1734565,0.0-19.0-0.0-0.127,A1M21S1FNT817B,382GHPVPIV7ASJXQ3FB9V025S7G34H,3MTMREQS4ZYP7PDPC2142KVPCM6AW2,1,2
128,1,object_10,object_01,402.90000000596,1,2,998.10000000149,0.6666666666666666,1,object_08,5,1319,0,6,6,desert_2,2,memory-2step-stake-s,618,1745752,0.0-19.0-0.1-0.128,A1M21S1FNT817B,382GHPVPIV7ASJXQ3FB9V025S7G34H,3MTMREQS4ZYP7PDPC2142KVPCM6AW2,2,1
129,1,object_10,object_01,351.60000000149,2,1,313.70000000298,0.6666666666666666,2,object_04,5,1349,0,8,6,desert_1,2,memory-2step-stake-s,619,1753919,0.0-19.0-0.1-0.129,A1M21S1FNT817B,382GHPVPIV7ASJXQ3FB9V025S7G34H,3MTMREQS4ZYP7PDPC2142KVPCM6AW2,2,1
130,4,object_07,object_09,322.19999999553,7,2,442.10000000149,0.6666666666666666,1,object_08,1,1355,0,6,9,restaurant_8,2,memory-2step-stake-s,620,1762232,0.0-19.0-0.1-0.130,A1M21S1FNT817B,382GHPVPIV7ASJXQ3FB9V025S7G34H,3MTMREQS4ZYP7PDPC2142KVPCM6AW2,8,7
131,4,object_09,object_07,359.80000000447,8,2,1053.3999999985,0.8888888888888888,2,object_04,1,1363,0,4,8,restaurant_7,2,memory-2step-stake-s,621,1771358,0.0-19.0-0.1-0.131,A1M21S1FNT817B,382GHPVPIV7ASJXQ3FB9V025S7G34H,3MTMREQS4ZYP7PDPC2142KVPCM6AW2,7,8
132,2,object_05,object_03,280.0,3,1,371.5,0.4444444444444444,1,object_08,5,1383,0,4,5,forest_3,2,memory-2step-stake-s,622,1779386,0.0-19.0-0.1-0.132,A1M21S1FNT817B,382GHPVPIV7ASJXQ3FB9V025S7G34H,3MTMREQS4ZYP7PDPC2142KVPCM6AW2,3,4
133,1,object_01,object_10,282.30000000447,2,2,134.70000000298,0.4444444444444444,2,object_04,1,1387,0,6,4,desert_3,2,memory-2step-stake-s,623,1787171,0.0-19.0-0.1-0.133,A1M21S1FNT817B,382GHPVPIV7ASJXQ3FB9V025S7G34H,3MTMREQS4ZYP7PDPC2142KVPCM6AW2,1,2
134,3,object_06,object_02,310.89999999851,5,2,392.0,0.8888888888888888,1,object_08,1,1395,0,8,5,library_4,2,memory-2step-stake-s,624,1795634,0.0-19.0-0.1-0.134,A1M21S1FNT817B,382GHPVPIV7ASJXQ3FB9V025S7G34H,3MTMREQS4ZYP7PDPC2142KVPCM6AW2,6,5
135,4,object_09,object_07,140.89999999851,7,1,335.20000000298,0.7777777777777778,1,object_08,5,1430,0,7,4,restaurant_5,2,memory-2step-stake-s,625,1803946,0.0-19.0-0.1-0.135,A1M21S1FNT817B,382GHPVPIV7ASJXQ3FB9V025S7G34H,3MTMREQS4ZYP7PDPC2142KVPCM6AW2,7,8
136,2,object_05,object_03,261.5,4,2,521.60000000149,0.5555555555555556,2,object_04,5,1455,0,7,5,forest_8,2,memory-2step-stake-s,626,1812225,0.0-19.0-0.1-0.136,A1M21S1FNT817B,382GHPVPIV7ASJXQ3FB9V025S7G34H,3MTMREQS4ZYP7PDPC2142KVPCM6AW2,3,4
137,2,object_03,object_05,316.29999999702,4,1,474.80000000447,0.5555555555555556,2,object_04,5,1480,0,4,5,forest_6,2,memory-2step-stake-s,627,1820450,0.0-19.0-0.1-0.137,A1M21S1FNT817B,382GHPVPIV7ASJXQ3FB9V025S7G34H,3MTMREQS4ZYP7PDPC2142KVPCM6AW2,4,3
138,1,object_01,object_10,356.39999999851,2,2,668.10000000149,0.4444444444444444,2,object_04,1,1484,0,3,4,desert_3,2,memory-2step-stake-s,628,1828775,0.0-19.0-0.1-0.138,A1M21S1FNT817B,382GHPVPIV7ASJXQ3FB9V025S7G34H,3MTMREQS4ZYP7PDPC2142KVPCM6AW2,1,2
139,1,object_10,object_01,198.09999999404,1,2,465.69999999553,0.0,1,object_08,5,1484,0,0,3,desert_6,2,memory-2step-stake-s,629,1836473,0.0-19.0-0.1-0.139,A1M21S1FNT817B,382GHPVPIV7ASJXQ3FB9V025S7G34H,3MTMREQS4ZYP7PDPC2142KVPCM6AW2,2,1
140,4,object_07,object_09,399.89999999851,7,2,471.70000000298,0.2222222222222222,1,object_08,1,1486,0,2,3,restaurant_7,2,memory-2step-stake-s,630,1844379,0.0-19.0-0.1-0.140,A1M21S1FNT817B,382GHPVPIV7ASJXQ3FB9V025S7G34H,3MTMREQS4ZYP7PDPC2142KVPCM6AW2,8,7
141,1,object_01,object_10,283.40000000596,1,1,388.20000000298,0.2222222222222222,1,object_08,5,1496,0,2,0,desert_6,2,memory-2step-stake-s,631,1852210,0.0-19.0-0.1-0.141,A1M21S1FNT817B,382GHPVPIV7ASJXQ3FB9V025S7G34H,3MTMREQS4ZYP7PDPC2142KVPCM6AW2,1,2
142,3,object_02,object_06,317.70000000298,6,2,380.5,0.1111111111111111,2,object_04,5,1501,0,3,1,library_3,2,memory-2step-stake-s,632,1859925,0.0-19.0-0.1-0.142,A1M21S1FNT817B,382GHPVPIV7ASJXQ3FB9V025S7G34H,3MTMREQS4ZYP7PDPC2142KVPCM6AW2,5,6
143,3,object_02,object_06,400.10000000149,5,1,351.40000000596,0.1111111111111111,1,object_08,5,1506,0,1,2,library_1,2,memory-2step-stake-s,633,1867611,0.0-19.0-0.1-0.143,A1M21S1FNT817B,382GHPVPIV7ASJXQ3FB9V025S7G34H,3MTMREQS4ZYP7PDPC2142KVPCM6AW2,5,6
144,2,object_05,object_03,327.80000000447,4,2,493.29999999702,0.1111111111111111,2,object_04,5,1511,0,3,1,forest_8,2,memory-2step-stake-s,634,1875436,0.0-19.0-0.1-0.144,A1M21S1FNT817B,382GHPVPIV7ASJXQ3FB9V025S7G34H,3MTMREQS4ZYP7PDPC2142KVPCM6AW2,3,4
145,2,object_03,object_05,315.70000000298,4,1,471.29999999702,0.1111111111111111,2,object_04,5,1516,0,3,1,forest_8,2,memory-2step-stake-s,635,1883244,0.0-19.0-0.1-0.145,A1M21S1FNT817B,382GHPVPIV7ASJXQ3FB9V025S7G34H,3MTMREQS4ZYP7PDPC2142KVPCM6AW2,4,3
146,2,object_05,object_03,353.0,4,2,512.60000000149,0.2222222222222222,2,object_04,5,1526,0,2,2,forest_6,2,memory-2step-stake-s,636,1891191,0.0-19.0-0.1-0.146,A1M21S1FNT817B,382GHPVPIV7ASJXQ3FB9V025S7G34H,3MTMREQS4ZYP7PDPC2142KVPCM6AW2,3,4
147,3,object_02,object_06,286.79999999702,5,1,519.30000000447,0.0,1,object_08,1,1526,0,0,3,library_7,2,memory-2step-stake-s,637,1898941,0.0-19.0-0.1-0.147,A1M21S1FNT817B,382GHPVPIV7ASJXQ3FB9V025S7G34H,3MTMREQS4ZYP7PDPC2142KVPCM6AW2,5,6
148,4,object_07,object_09,587.29999999702,8,1,580.79999999702,0.4444444444444444,2,object_04,1,1530,0,0,4,restaurant_7,2,memory-2step-stake-s,638,1907172,0.0-19.0-0.1-0.148,A1M21S1FNT817B,382GHPVPIV7ASJXQ3FB9V025S7G34H,3MTMREQS4ZYP7PDPC2142KVPCM6AW2,8,7
149,1,object_10,object_01,458.20000000298,1,2,360.0,0.2222222222222222,1,object_08,5,1540,0,2,4,desert_2,2,memory-2step-stake-s,639,1914974,0.0-19.0-0.1-0.149,A1M21S1FNT817B,382GHPVPIV7ASJXQ3FB9V025S7G34H,3MTMREQS4ZYP7PDPC2142KVPCM6AW2,2,1
150,3,object_02,object_06,423.89999999851,5,1,483.80000000447,0.2222222222222222,1,object_08,1,1542,0,2,3,library_4,2,memory-2step-stake-s,640,1922898,0.0-19.0-0.1-0.150,A1M21S1FNT817B,382GHPVPIV7ASJXQ3FB9V025S7G34H,3MTMREQS4ZYP7PDPC2142KVPCM6AW2,5,6
151,3,object_02,object_06,184.59999999404,5,1,537.29999999702,0.5555555555555556,1,object_08,1,1547,0,5,5,library_7,2,memory-2step-stake-s,641,1931188,0.0-19.0-0.1-0.151,A1M21S1FNT817B,382GHPVPIV7ASJXQ3FB9V025S7G34H,3MTMREQS4ZYP7PDPC2142KVPCM6AW2,5,6
152,3,object_02,object_06,401.29999999702,6,2,532.5,0.8888888888888888,2,object_04,1,1555,0,8,8,library_1,2,memory-2step-stake-s,642,1939785,0.0-19.0-0.1-0.152,A1M21S1FNT817B,382GHPVPIV7ASJXQ3FB9V025S7G34H,3MTMREQS4ZYP7PDPC2142KVPCM6AW2,5,6
153,1,object_10,object_01,246.60000000149,2,1,279.39999999851,0.6666666666666666,2,object_04,1,1561,0,8,6,desert_2,2,memory-2step-stake-s,643,1947924,0.0-19.0-0.1-0.153,A1M21S1FNT817B,382GHPVPIV7ASJXQ3FB9V025S7G34H,3MTMREQS4ZYP7PDPC2142KVPCM6AW2,2,1
154,3,object_06,object_02,441.89999999851,5,2,536.10000000149,0.6666666666666666,1,object_08,1,1567,0,6,7,library_1,2,memory-2step-stake-s,644,1956318,0.0-19.0-0.1-0.154,A1M21S1FNT817B,382GHPVPIV7ASJXQ3FB9V025S7G34H,3MTMREQS4ZYP7PDPC2142KVPCM6AW2,6,5
155,1,object_10,object_01,299.10000000149,1,2,545.79999999702,1.0,1,object_08,5,1612,0,9,7,desert_6,2,memory-2step-stake-s,645,1965037,0.0-19.0-0.1-0.155,A1M21S1FNT817B,382GHPVPIV7ASJXQ3FB9V025S7G34H,3MTMREQS4ZYP7PDPC2142KVPCM6AW2,2,1
156,2,object_05,object_03,325.0,4,2,412.29999999702,0.5555555555555556,2,object_04,5,1637,0,7,5,forest_6,2,memory-2step-stake-s,646,1973199,0.0-19.0-0.1-0.156,A1M21S1FNT817B,382GHPVPIV7ASJXQ3FB9V025S7G34H,3MTMREQS4ZYP7PDPC2142KVPCM6AW2,3,4
157,4,object_07,object_09,360.39999999851,8,1,795.0,0.5555555555555556,2,object_04,1,1642,0,7,5,restaurant_3,2,memory-2step-stake-s,647,1981749,0.0-19.0-0.1-0.157,A1M21S1FNT817B,382GHPVPIV7ASJXQ3FB9V025S7G34H,3MTMREQS4ZYP7PDPC2142KVPCM6AW2,8,7
158,1,object_01,object_10,256.09999999404,2,2,366.89999999851,0.4444444444444444,2,object_04,5,1662,0,6,4,desert_6,2,memory-2step-stake-s,648,1989772,0.0-19.0-0.1-0.158,A1M21S1FNT817B,382GHPVPIV7ASJXQ3FB9V025S7G34H,3MTMREQS4ZYP7PDPC2142KVPCM6AW2,1,2
159,3,object_06,object_02,272.29999999702,6,1,453.89999999851,0.2222222222222222,2,object_04,1,1664,0,1,2,library_4,2,memory-2step-stake-s,649,1997667,0.0-19.0-0.1-0.159,A1M21S1FNT817B,382GHPVPIV7ASJXQ3FB9V025S7G34H,3MTMREQS4ZYP7PDPC2142KVPCM6AW2,6,5
160,2,object_05,object_03,398.39999999851,4,2,325.30000000447,0.3333333333333333,2,object_04,5,1679,0,1,3,forest_4,2,memory-2step-stake-s,650,2005539,0.0-19.0-0.1-0.160,A1M21S1FNT817B,382GHPVPIV7ASJXQ3FB9V025S7G34H,3MTMREQS4ZYP7PDPC2142KVPCM6AW2,3,4
161,2,object_03,object_05,251.70000000298,4,1,477.20000000298,0.5555555555555556,2,object_04,5,1704,0,1,5,forest_3,2,memory-2step-stake-s,651,2013770,0.0-19.0-0.1-0.161,A1M21S1FNT817B,382GHPVPIV7ASJXQ3FB9V025S7G34H,3MTMREQS4ZYP7PDPC2142KVPCM6AW2,4,3
162,2,object_05,object_03,247.29999999702,4,2,342.20000000298,0.6666666666666666,2,object_04,5,1734,0,1,6,forest_4,2,memory-2step-stake-s,652,2021973,0.0-19.0-0.1-0.162,A1M21S1FNT817B,382GHPVPIV7ASJXQ3FB9V025S7G34H,3MTMREQS4ZYP7PDPC2142KVPCM6AW2,3,4
163,3,object_02,object_06,276.89999999851,6,2,431.39999999851,0.7777777777777778,2,object_04,1,1741,0,0,7,library_4,2,memory-2step-stake-s,653,2030367,0.0-19.0-0.1-0.163,A1M21S1FNT817B,382GHPVPIV7ASJXQ3FB9V025S7G34H,3MTMREQS4ZYP7PDPC2142KVPCM6AW2,5,6
164,3,object_02,object_06,209.5,5,1,601.89999999851,0.2222222222222222,1,object_08,1,1743,0,2,7,library_7,2,memory-2step-stake-s,654,2038413,0.0-19.0-0.1-0.164,A1M21S1FNT817B,382GHPVPIV7ASJXQ3FB9V025S7G34H,3MTMREQS4ZYP7PDPC2142KVPCM6AW2,5,6
165,2,object_03,object_05,285.5,3,2,470.69999999553,0.4444444444444444,1,object_08,1,1747,0,4,7,forest_8,2,memory-2step-stake-s,655,2046528,0.0-19.0-0.1-0.165,A1M21S1FNT817B,382GHPVPIV7ASJXQ3FB9V025S7G34H,3MTMREQS4ZYP7PDPC2142KVPCM6AW2,4,3
166,1,object_10,object_01,276.5,1,2,391.70000000298,0.6666666666666666,1,object_08,5,1777,0,6,4,desert_6,2,memory-2step-stake-s,656,2054777,0.0-19.0-0.1-0.166,A1M21S1FNT817B,382GHPVPIV7ASJXQ3FB9V025S7G34H,3MTMREQS4ZYP7PDPC2142KVPCM6AW2,2,1
167,4,object_07,object_09,296.5,8,1,302.0,0.3333333333333333,2,object_04,1,1780,0,7,3,restaurant_5,2,memory-2step-stake-s,657,2062625,0.0-19.0-0.1-0.167,A1M21S1FNT817B,382GHPVPIV7ASJXQ3FB9V025S7G34H,3MTMREQS4ZYP7PDPC2142KVPCM6AW2,8,7
168,1,object_10,object_01,240.0,1,2,493.20000000298,0.8888888888888888,1,object_08,5,1820,0,8,4,desert_3,2,memory-2step-stake-s,658,2071188,0.0-19.0-0.1-0.168,A1M21S1FNT817B,382GHPVPIV7ASJXQ3FB9V025S7G34H,3MTMREQS4ZYP7PDPC2142KVPCM6AW2,2,1
169,4,object_09,object_07,338.0,8,2,325.19999999553,0.3333333333333333,2,object_04,5,1835,0,8,3,restaurant_8,2,memory-2step-stake-s,659,2079059,0.0-19.0-0.1-0.169,A1M21S1FNT817B,382GHPVPIV7ASJXQ3FB9V025S7G34H,3MTMREQS4ZYP7PDPC2142KVPCM6AW2,7,8
170,3,object_02,object_06,426.10000000149,5,1,407.5,0.7777777777777778,1,object_08,1,1842,0,7,3,library_3,2,memory-2step-stake-s,660,2087430,0.0-19.0-0.1-0.170,A1M21S1FNT817B,382GHPVPIV7ASJXQ3FB9V025S7G34H,3MTMREQS4ZYP7PDPC2142KVPCM6AW2,5,6
171,4,object_09,object_07,180.5,8,2,482.0,0.4444444444444444,2,object_04,5,1862,0,4,4,restaurant_8,2,memory-2step-stake-s,661,2095563,0.0-19.0-0.1-0.171,A1M21S1FNT817B,382GHPVPIV7ASJXQ3FB9V025S7G34H,3MTMREQS4ZYP7PDPC2142KVPCM6AW2,7,8
172,1,object_10,object_01,171.20000000298,1,2,474.79999999702,0.6666666666666666,1,object_08,5,1892,0,6,3,desert_6,2,memory-2step-stake-s,662,2103899,0.0-19.0-0.1-0.172,A1M21S1FNT817B,382GHPVPIV7ASJXQ3FB9V025S7G34H,3MTMREQS4ZYP7PDPC2142KVPCM6AW2,2,1
173,1,object_01,object_10,220.30000000447,2,2,374.5,0.6666666666666666,2,object_04,5,1922,0,4,6,desert_6,2,memory-2step-stake-s,663,2112131,0.0-19.0-0.1-0.173,A1M21S1FNT817B,382GHPVPIV7ASJXQ3FB9V025S7G34H,3MTMREQS4ZYP7PDPC2142KVPCM6AW2,1,2
174,1,object_10,object_01,245.59999999404,2,1,389.60000000149,0.4444444444444444,2,object_04,5,1942,0,5,4,desert_6,2,memory-2step-stake-s,664,2120171,0.0-19.0-0.1-0.174,A1M21S1FNT817B,382GHPVPIV7ASJXQ3FB9V025S7G34H,3MTMREQS4ZYP7PDPC2142KVPCM6AW2,2,1
175,1,object_01,object_10,338.30000000447,2,2,462.70000000298,0.3333333333333333,2,object_04,5,1957,0,3,3,desert_2,2,memory-2step-stake-s,665,2128176,0.0-19.0-0.1-0.175,A1M21S1FNT817B,382GHPVPIV7ASJXQ3FB9V025S7G34H,3MTMREQS4ZYP7PDPC2142KVPCM6AW2,1,2
176,3,object_02,object_06,938.69999999553,5,1,427.5,0.2222222222222222,1,object_08,1,1959,0,2,3,library_4,2,memory-2step-stake-s,666,2136041,0.0-19.0-0.1-0.176,A1M21S1FNT817B,382GHPVPIV7ASJXQ3FB9V025S7G34H,3MTMREQS4ZYP7PDPC2142KVPCM6AW2,5,6
177,3,object_06,object_02,385.89999999851,5,2,794.59999999404,0.1111111111111111,1,object_08,5,1964,0,1,3,library_1,2,memory-2step-stake-s,667,2144174,0.0-19.0-0.1-0.177,A1M21S1FNT817B,382GHPVPIV7ASJXQ3FB9V025S7G34H,3MTMREQS4ZYP7PDPC2142KVPCM6AW2,6,5
178,4,object_07,object_09,248.39999999851,8,1,485.0,0.1111111111111111,2,object_04,1,1965,0,4,1,restaurant_5,2,memory-2step-stake-s,668,2151993,0.0-19.0-0.1-0.178,A1M21S1FNT817B,382GHPVPIV7ASJXQ3FB9V025S7G34H,3MTMREQS4ZYP7PDPC2142KVPCM6AW2,8,7
179,4,object_07,object_09,179.20000000298,7,2,434.5,0.2222222222222222,1,object_08,1,1967,0,2,1,restaurant_3,2,memory-2step-stake-s,669,2159865,0.0-19.0-0.1-0.179,A1M21S1FNT817B,382GHPVPIV7ASJXQ3FB9V025S7G34H,3MTMREQS4ZYP7PDPC2142KVPCM6AW2,8,7
180,3,object_02,object_06,97.89999999851,6,2,345.09999999404,0.0,2,object_04,5,1967,0,1,0,library_7,2,memory-2step-stake-s,670,2167439,0.0-19.0-0.1-0.180,A1M21S1FNT817B,382GHPVPIV7ASJXQ3FB9V025S7G34H,3MTMREQS4ZYP7PDPC2142KVPCM6AW2,5,6
181,3,object_02,object_06,304.19999999553,6,2,408.79999999702,0.1111111111111111,2,object_04,1,1968,0,5,1,library_3,2,memory-2step-stake-s,671,2175185,0.0-19.0-0.1-0.181,A1M21S1FNT817B,382GHPVPIV7ASJXQ3FB9V025S7G34H,3MTMREQS4ZYP7PDPC2142KVPCM6AW2,5,6
182,4,object_09,object_07,380.0,8,2,513.0,0.1111111111111111,2,object_04,1,1969,0,4,1,restaurant_7,2,memory-2step-stake-s,672,2183033,0.0-19.0-0.1-0.182,A1M21S1FNT817B,382GHPVPIV7ASJXQ3FB9V025S7G34H,3MTMREQS4ZYP7PDPC2142KVPCM6AW2,7,8
183,2,object_03,object_05,252.5,3,2,409.5,0.6666666666666666,1,object_08,1,1975,0,6,1,forest_6,2,memory-2step-stake-s,673,2191294,0.0-19.0-0.1-0.183,A1M21S1FNT817B,382GHPVPIV7ASJXQ3FB9V025S7G34H,3MTMREQS4ZYP7PDPC2142KVPCM6AW2,4,3
184,3,object_02,object_06,296.10000000149,6,2,233.5,0.1111111111111111,2,object_04,5,1980,0,7,1,library_7,2,memory-2step-stake-s,674,2198864,0.0-19.0-0.1-0.184,A1M21S1FNT817B,382GHPVPIV7ASJXQ3FB9V025S7G34H,3MTMREQS4ZYP7PDPC2142KVPCM6AW2,5,6
185,4,object_07,object_09,10.80000000447,8,1,434.0,0.1111111111111111,2,object_04,1,1981,0,6,1,restaurant_3,2,memory-2step-stake-s,675,2206637,0.0-19.0-0.1-0.185,A1M21S1FNT817B,382GHPVPIV7ASJXQ3FB9V025S7G34H,3MTMREQS4ZYP7PDPC2142KVPCM6AW2,8,7
186,2,object_03,object_05,118.29999999702,3,2,303.69999999553,0.4444444444444444,1,object_08,5,2001,0,4,4,forest_8,2,memory-2step-stake-s,676,2214595,0.0-19.0-0.1-0.186,A1M21S1FNT817B,382GHPVPIV7ASJXQ3FB9V025S7G34H,3MTMREQS4ZYP7PDPC2142KVPCM6AW2,4,3
187,2,object_03,object_05,301.89999999851,4,1,284.29999999702,0.2222222222222222,2,object_04,5,2011,0,1,2,forest_3,2,memory-2step-stake-s,677,2222322,0.0-19.0-0.1-0.187,A1M21S1FNT817B,382GHPVPIV7ASJXQ3FB9V025S7G34H,3MTMREQS4ZYP7PDPC2142KVPCM6AW2,4,3
188,2,object_03,object_05,320.39999999851,3,2,418.60000000149,0.2222222222222222,1,object_08,5,2021,0,2,3,forest_4,2,memory-2step-stake-s,678,2230180,0.0-19.0-0.1-0.188,A1M21S1FNT817B,382GHPVPIV7ASJXQ3FB9V025S7G34H,3MTMREQS4ZYP7PDPC2142KVPCM6AW2,4,3
189,4,object_07,object_09,105.69999999553,8,1,374.09999999404,0.4444444444444444,2,object_04,5,2041,0,2,4,restaurant_8,2,memory-2step-stake-s,679,2238198,0.0-19.0-0.1-0.189,A1M21S1FNT817B,382GHPVPIV7ASJXQ3FB9V025S7G34H,3MTMREQS4ZYP7PDPC2142KVPCM6AW2,8,7
190,3,object_06,object_02,273.29999999702,5,2,387.5,0.2222222222222222,1,object_08,1,2043,0,2,2,library_3,2,memory-2step-stake-s,680,2246029,0.0-19.0-0.1-0.190,A1M21S1FNT817B,382GHPVPIV7ASJXQ3FB9V025S7G34H,3MTMREQS4ZYP7PDPC2142KVPCM6AW2,6,5
191,1,object_01,object_10,96.29999999702,2,2,74.0,0.3333333333333333,2,object_04,1,2046,0,3,3,desert_6,2,memory-2step-stake-s,681,2253652,0.0-19.0-0.1-0.191,A1M21S1FNT817B,382GHPVPIV7ASJXQ3FB9V025S7G34H,3MTMREQS4ZYP7PDPC2142KVPCM6AW2,1,2
192,2,object_05,object_03,207.39999999851,4,2,165.79999999702,0.0,2,object_04,5,2046,0,5,0,forest_4,2,memory-2step-stake-s,682,2261047,0.0-19.0-0.1-0.192,A1M21S1FNT817B,382GHPVPIV7ASJXQ3FB9V025S7G34H,3MTMREQS4ZYP7PDPC2142KVPCM6AW2,3,4
193,4,object_09,object_07,0.89999999850988,7,1,306.19999999553,0.6666666666666666,1,object_08,5,2076,0,6,2,restaurant_5,2,memory-2step-stake-s,683,2269209,0.0-19.0-0.1-0.193,A1M21S1FNT817B,382GHPVPIV7ASJXQ3FB9V025S7G34H,3MTMREQS4ZYP7PDPC2142KVPCM6AW2,7,8
194,2,object_05,object_03,356.20000000298,4,2,434.20000000298,0.2222222222222222,2,object_04,1,2078,0,8,2,forest_3,2,memory-2step-stake-s,684,2277087,0.0-19.0-0.1-0.194,A1M21S1FNT817B,382GHPVPIV7ASJXQ3FB9V025S7G34H,3MTMREQS4ZYP7PDPC2142KVPCM6AW2,3,4
195,3,object_02,object_06,281.70000000298,6,2,364.20000000298,0.2222222222222222,2,object_04,1,2080,0,8,2,library_4,2,memory-2step-stake-s,685,2284894,0.0-19.0-0.1-0.195,A1M21S1FNT817B,382GHPVPIV7ASJXQ3FB9V025S7G34H,3MTMREQS4ZYP7PDPC2142KVPCM6AW2,5,6
196,2,object_05,object_03,383.39999999851,3,1,554.5,0.5555555555555556,1,object_08,1,2085,0,5,3,forest_6,2,memory-2step-stake-s,686,2293192,0.0-19.0-0.1-0.196,A1M21S1FNT817B,382GHPVPIV7ASJXQ3FB9V025S7G34H,3MTMREQS4ZYP7PDPC2142KVPCM6AW2,3,4
197,4,object_07,object_09,239.30000000447,7,2,452.40000000596,0.3333333333333333,1,object_08,1,2088,0,3,4,restaurant_8,2,memory-2step-stake-s,687,2301189,0.0-19.0-0.1-0.197,A1M21S1FNT817B,382GHPVPIV7ASJXQ3FB9V025S7G34H,3MTMREQS4ZYP7PDPC2142KVPCM6AW2,8,7
198,1,object_10,object_01,148.89999999851,1,2,313.79999999702,0.2222222222222222,1,object_08,5,2098,0,2,5,desert_6,2,memory-2step-stake-s,688,2308940,0.0-19.0-0.1-0.198,A1M21S1FNT817B,382GHPVPIV7ASJXQ3FB9V025S7G34H,3MTMREQS4ZYP7PDPC2142KVPCM6AW2,2,1
199,4,object_07,object_09,224.90000000596,7,2,561.79999999702,0.7777777777777778,1,object_08,1,2105,0,7,6,restaurant_8,2,memory-2step-stake-s,689,2317466,0.0-19.0-0.1-0.199,A1M21S1FNT817B,382GHPVPIV7ASJXQ3FB9V025S7G34H,3MTMREQS4ZYP7PDPC2142KVPCM6AW2,8,7
200,4,object_09,object_07,243.0,8,2,335.5,0.2222222222222222,2,object_04,1,2107,0,5,2,restaurant_5,2,memory-2step-stake-s,690,2325245,0.0-19.0-0.1-0.200,A1M21S1FNT817B,382GHPVPIV7ASJXQ3FB9V025S7G34H,3MTMREQS4ZYP7PDPC2142KVPCM6AW2,7,8
201,2,object_05,object_03,246.10000000149,4,2,242.29999999702,0.4444444444444444,2,object_04,5,2127,0,8,4,forest_6,2,memory-2step-stake-s,691,2333140,0.0-19.0-0.1-0.201,A1M21S1FNT817B,382GHPVPIV7ASJXQ3FB9V025S7G34H,3MTMREQS4ZYP7PDPC2142KVPCM6AW2,3,4
202,4,object_07,object_09,213.29999999702,8,1,189.70000000298,0.2222222222222222,2,object_04,5,2137,0,8,2,restaurant_5,2,memory-2step-stake-s,692,2340774,0.0-19.0-0.1-0.202,A1M21S1FNT817B,382GHPVPIV7ASJXQ3FB9V025S7G34H,3MTMREQS4ZYP7PDPC2142KVPCM6AW2,8,7
203,3,object_02,object_06,317.39999999851,6,2,280.0,0.3333333333333333,2,object_04,1,2140,0,8,3,library_3,2,memory-2step-stake-s,693,2348598,0.0-19.0-0.1-0.203,A1M21S1FNT817B,382GHPVPIV7ASJXQ3FB9V025S7G34H,3MTMREQS4ZYP7PDPC2142KVPCM6AW2,5,6
204,3,object_02,object_06,316.10000000149,6,2,1011.599999994,0.0,2,object_04,1,2140,0,8,0,library_3,2,memory-2step-stake-s,694,2356842,0.0-19.0-0.1-0.204,A1M21S1FNT817B,382GHPVPIV7ASJXQ3FB9V025S7G34H,3MTMREQS4ZYP7PDPC2142KVPCM6AW2,5,6
205,2,object_05,object_03,307.10000000149,4,2,380.0,0.1111111111111111,2,object_04,5,2145,0,7,1,forest_4,2,memory-2step-stake-s,695,2364563,0.0-19.0-0.1-0.205,A1M21S1FNT817B,382GHPVPIV7ASJXQ3FB9V025S7G34H,3MTMREQS4ZYP7PDPC2142KVPCM6AW2,3,4
206,2,object_03,object_05,517.09999999404,4,1,367.0,0.2222222222222222,2,object_04,5,2155,0,5,2,forest_8,2,memory-2step-stake-s,696,2372370,0.0-19.0-0.1-0.206,A1M21S1FNT817B,382GHPVPIV7ASJXQ3FB9V025S7G34H,3MTMREQS4ZYP7PDPC2142KVPCM6AW2,4,3
207,2,object_05,object_03,382.70000000298,4,2,382.0,0.3333333333333333,2,object_04,1,2158,0,6,3,forest_8,2,memory-2step-stake-s,697,2380300,0.0-19.0-0.1-0.207,A1M21S1FNT817B,382GHPVPIV7ASJXQ3FB9V025S7G34H,3MTMREQS4ZYP7PDPC2142KVPCM6AW2,3,4
208,3,object_02,object_06,85.20000000298,6,2,483.70000000298,0.2222222222222222,2,object_04,1,2160,0,7,2,library_1,2,memory-2step-stake-s,698,2388230,0.0-19.0-0.1-0.208,A1M21S1FNT817B,382GHPVPIV7ASJXQ3FB9V025S7G34H,3MTMREQS4ZYP7PDPC2142KVPCM6AW2,5,6
209,4,object_09,object_07,371.5,7,1,403.60000000149,0.5555555555555556,1,object_08,1,2165,0,5,0,restaurant_5,2,memory-2step-stake-s,699,2396386,0.0-19.0-0.1-0.209,A1M21S1FNT817B,382GHPVPIV7ASJXQ3FB9V025S7G34H,3MTMREQS4ZYP7PDPC2142KVPCM6AW2,7,8
210,4,object_09,object_07,296.60000000149,8,2,325.29999999702,0.1111111111111111,2,object_04,1,2166,0,7,1,restaurant_5,2,memory-2step-stake-s,700,2404048,0.0-19.0-0.1-0.210,A1M21S1FNT817B,382GHPVPIV7ASJXQ3FB9V025S7G34H,3MTMREQS4ZYP7PDPC2142KVPCM6AW2,7,8
211,2,object_05,object_03,301.70000000298,3,1,319.10000000149,0.6666666666666666,1,object_08,5,2196,0,6,3,forest_4,2,memory-2step-stake-s,701,2412227,0.0-19.0-0.1-0.211,A1M21S1FNT817B,382GHPVPIV7ASJXQ3FB9V025S7G34H,3MTMREQS4ZYP7PDPC2142KVPCM6AW2,3,4
212,2,object_03,object_05,136.90000000596,3,2,384.10000000149,0.8888888888888888,1,object_08,5,2236,0,8,3,forest_4,2,memory-2step-stake-s,702,2420680,0.0-19.0-0.1-0.212,A1M21S1FNT817B,382GHPVPIV7ASJXQ3FB9V025S7G34H,3MTMREQS4ZYP7PDPC2142KVPCM6AW2,4,3
213,3,object_02,object_06,180.0,5,1,211.5,1.0,1,object_08,1,2245,0,9,4,library_3,2,memory-2step-stake-s,703,2429062,0.0-19.0-0.1-0.213,A1M21S1FNT817B,382GHPVPIV7ASJXQ3FB9V025S7G34H,3MTMREQS4ZYP7PDPC2142KVPCM6AW2,5,6
214,3,object_02,object_06,13.5,6,2,392.39999999851,0.4444444444444444,2,object_04,1,2249,0,8,4,library_7,2,memory-2step-stake-s,704,2437096,0.0-19.0-0.1-0.214,A1M21S1FNT817B,382GHPVPIV7ASJXQ3FB9V025S7G34H,3MTMREQS4ZYP7PDPC2142KVPCM6AW2,5,6
215,2,object_03,object_05,337.10000000149,4,1,343.39999999851,0.6666666666666666,2,object_04,5,2279,0,7,6,forest_8,2,memory-2step-stake-s,705,2445299,0.0-19.0-0.1-0.215,A1M21S1FNT817B,382GHPVPIV7ASJXQ3FB9V025S7G34H,3MTMREQS4ZYP7PDPC2142KVPCM6AW2,4,3
216,4,object_09,object_07,422.5,8,2,285.70000000298,1.0,2,object_04,1,2288,0,1,9,restaurant_7,2,memory-2step-stake-s,706,2453757,0.0-19.0-0.1-0.216,A1M21S1FNT817B,382GHPVPIV7ASJXQ3FB9V025S7G34H,3MTMREQS4ZYP7PDPC2142KVPCM6AW2,7,8
217,4,object_09,object_07,217.20000000298,8,2,378.60000000149,0.8888888888888888,2,object_04,1,2296,0,2,8,restaurant_7,2,memory-2step-stake-s,707,2462198,0.0-19.0-0.1-0.217,A1M21S1FNT817B,382GHPVPIV7ASJXQ3FB9V025S7G34H,3MTMREQS4ZYP7PDPC2142KVPCM6AW2,7,8
218,3,object_06,object_02,324.69999999553,6,1,493.10000000149,0.8888888888888888,2,object_04,1,2304,0,2,8,library_4,2,memory-2step-stake-s,708,2470760,0.0-19.0-0.1-0.218,A1M21S1FNT817B,382GHPVPIV7ASJXQ3FB9V025S7G34H,3MTMREQS4ZYP7PDPC2142KVPCM6AW2,6,5
219,3,object_06,object_02,149.70000000298,5,2,378.29999999702,0.1111111111111111,1,object_08,1,2305,0,1,6,library_7,2,memory-2step-stake-s,709,2478475,0.0-19.0-0.1-0.219,A1M21S1FNT817B,382GHPVPIV7ASJXQ3FB9V025S7G34H,3MTMREQS4ZYP7PDPC2142KVPCM6AW2,6,5
220,1,object_01,object_10,90.39999999851,2,2,335.60000000149,0.7777777777777778,2,object_04,5,2340,0,1,7,desert_2,2,memory-2step-stake-s,710,2486770,0.0-19.0-0.1-0.220,A1M21S1FNT817B,382GHPVPIV7ASJXQ3FB9V025S7G34H,3MTMREQS4ZYP7PDPC2142KVPCM6AW2,1,2
221,1,object_10,object_01,325.0,1,2,400.70000000298,0.0,1,object_08,5,2340,0,0,7,desert_1,2,memory-2step-stake-s,711,2494404,0.0-19.0-0.1-0.221,A1M21S1FNT817B,382GHPVPIV7ASJXQ3FB9V025S7G34H,3MTMREQS4ZYP7PDPC2142KVPCM6AW2,2,1
222,2,object_03,object_05,232.29999999702,4,1,397.60000000149,1.0,2,object_04,5,2385,0,3,9,forest_6,2,memory-2step-stake-s,712,2502972,0.0-19.0-0.1-0.222,A1M21S1FNT817B,382GHPVPIV7ASJXQ3FB9V025S7G34H,3MTMREQS4ZYP7PDPC2142KVPCM6AW2,4,3
223,1,object_01,object_10,221.69999999553,2,2,511.70000000298,0.6666666666666666,2,object_04,1,2391,0,2,6,desert_3,2,memory-2step-stake-s,713,2511343,0.0-19.0-0.1-0.223,A1M21S1FNT817B,382GHPVPIV7ASJXQ3FB9V025S7G34H,3MTMREQS4ZYP7PDPC2142KVPCM6AW2,1,2
224,3,object_02,object_06,349.0,6,2,420.80000000447,0.7777777777777778,2,object_04,1,2398,0,5,7,library_1,2,memory-2step-stake-s,714,2519731,0.0-19.0-0.1-0.224,A1M21S1FNT817B,382GHPVPIV7ASJXQ3FB9V025S7G34H,3MTMREQS4ZYP7PDPC2142KVPCM6AW2,5,6
225,2,object_03,object_05,282.5,4,1,331.20000000298,0.7777777777777778,2,object_04,5,2433,0,3,7,forest_8,2,memory-2step-stake-s,715,2528026,0.0-19.0-0.1-0.225,A1M21S1FNT817B,382GHPVPIV7ASJXQ3FB9V025S7G34H,3MTMREQS4ZYP7PDPC2142KVPCM6AW2,4,3
226,1,object_10,object_01,303.59999999404,1,2,336.90000000596,0.2222222222222222,1,object_08,5,2443,0,2,9,desert_1,2,memory-2step-stake-s,716,2535811,0.0-19.0-0.1-0.226,A1M21S1FNT817B,382GHPVPIV7ASJXQ3FB9V025S7G34H,3MTMREQS4ZYP7PDPC2142KVPCM6AW2,2,1
227,3,object_06,object_02,341.5,5,2,357.10000000149,0.5555555555555556,1,object_08,1,2448,0,5,6,library_3,2,memory-2step-stake-s,717,2543927,0.0-19.0-0.1-0.227,A1M21S1FNT817B,382GHPVPIV7ASJXQ3FB9V025S7G34H,3MTMREQS4ZYP7PDPC2142KVPCM6AW2,6,5
228,1,object_01,object_10,252.09999999404,1,1,323.70000000298,0.6666666666666666,1,object_08,5,2478,0,6,6,desert_1,2,memory-2step-stake-s,718,2552106,0.0-19.0-0.1-0.228,A1M21S1FNT817B,382GHPVPIV7ASJXQ3FB9V025S7G34H,3MTMREQS4ZYP7PDPC2142KVPCM6AW2,1,2
229,3,object_06,object_02,110.10000000149,5,2,194.29999999702,0.6666666666666666,1,object_08,1,2484,0,6,8,library_4,2,memory-2step-stake-s,719,2560158,0.0-19.0-0.1-0.229,A1M21S1FNT817B,382GHPVPIV7ASJXQ3FB9V025S7G34H,3MTMREQS4ZYP7PDPC2142KVPCM6AW2,6,5
230,1,object_10,object_01,194.20000000298,1,2,9.7999999970198,0.7777777777777778,1,object_08,5,2519,0,7,6,desert_6,2,memory-2step-stake-s,720,2568122,0.0-19.0-0.1-0.230,A1M21S1FNT817B,382GHPVPIV7ASJXQ3FB9V025S7G34H,3MTMREQS4ZYP7PDPC2142KVPCM6AW2,2,1
231,2,object_05,object_03,320.09999999404,4,2,527.60000000149,0.6666666666666666,2,object_04,5,2549,0,5,6,forest_3,2,memory-2step-stake-s,721,2576510,0.0-19.0-0.1-0.231,A1M21S1FNT817B,382GHPVPIV7ASJXQ3FB9V025S7G34H,3MTMREQS4ZYP7PDPC2142KVPCM6AW2,3,4
232,3,object_02,object_06,301.60000000149,6,2,360.29999999702,0.7777777777777778,2,object_04,1,2556,0,8,7,library_4,2,memory-2step-stake-s,722,2584833,0.0-19.0-0.1-0.232,A1M21S1FNT817B,382GHPVPIV7ASJXQ3FB9V025S7G34H,3MTMREQS4ZYP7PDPC2142KVPCM6AW2,5,6
233,2,object_03,object_05,631.5,4,1,371.70000000298,0.6666666666666666,2,object_04,5,2586,0,7,6,forest_6,2,memory-2step-stake-s,723,2593065,0.0-19.0-0.1-0.233,A1M21S1FNT817B,382GHPVPIV7ASJXQ3FB9V025S7G34H,3MTMREQS4ZYP7PDPC2142KVPCM6AW2,4,3
234,1,object_10,object_01,295.19999999553,1,2,466.10000000149,1.0,1,object_08,5,2631,0,9,5,desert_1,2,memory-2step-stake-s,724,2601704,0.0-19.0-0.1-0.234,A1M21S1FNT817B,382GHPVPIV7ASJXQ3FB9V025S7G34H,3MTMREQS4ZYP7PDPC2142KVPCM6AW2,2,1
235,2,object_03,object_05,151.10000000149,3,2,302.69999999553,0.8888888888888888,1,object_08,5,2671,0,8,3,forest_4,2,memory-2step-stake-s,725,2610075,0.0-19.0-0.1-0.235,A1M21S1FNT817B,382GHPVPIV7ASJXQ3FB9V025S7G34H,3MTMREQS4ZYP7PDPC2142KVPCM6AW2,4,3
236,3,object_06,object_02,321.29999999702,5,2,460.59999999404,0.8888888888888888,1,object_08,1,2679,0,8,1,library_7,2,memory-2step-stake-s,726,2618603,0.0-19.0-0.1-0.236,A1M21S1FNT817B,382GHPVPIV7ASJXQ3FB9V025S7G34H,3MTMREQS4ZYP7PDPC2142KVPCM6AW2,6,5
237,1,object_01,object_10,247.29999999702,2,2,456.5,0.1111111111111111,2,object_04,5,2684,0,7,1,desert_1,2,memory-2step-stake-s,727,2626398,0.0-19.0-0.1-0.237,A1M21S1FNT817B,382GHPVPIV7ASJXQ3FB9V025S7G34H,3MTMREQS4ZYP7PDPC2142KVPCM6AW2,1,2
238,4,object_07,object_09,217.59999999404,7,2,436.29999999702,0.7777777777777778,1,object_08,1,2691,0,7,1,restaurant_3,2,memory-2step-stake-s,728,2634799,0.0-19.0-0.1-0.238,A1M21S1FNT817B,382GHPVPIV7ASJXQ3FB9V025S7G34H,3MTMREQS4ZYP7PDPC2142KVPCM6AW2,8,7
239,1,object_01,object_10,149.69999999553,2,2,234.80000000447,0.1111111111111111,2,object_04,5,2696,0,8,1,desert_1,2,memory-2step-stake-s,729,2642368,0.0-19.0-0.1-0.239,A1M21S1FNT817B,382GHPVPIV7ASJXQ3FB9V025S7G34H,3MTMREQS4ZYP7PDPC2142KVPCM6AW2,1,2
240,4,object_07,object_09,253.90000000596,7,2,439.60000000149,1.0,1,object_08,1,2705,0,9,3,restaurant_7,2,memory-2step-stake-s,730,2650979,0.0-19.0-0.1-0.240,A1M21S1FNT817B,382GHPVPIV7ASJXQ3FB9V025S7G34H,3MTMREQS4ZYP7PDPC2142KVPCM6AW2,8,7
241,3,object_06,object_02,96.29999999702,5,2,385.09999999404,0.8888888888888888,1,object_08,1,2713,0,8,1,library_4,2,memory-2step-stake-s,731,2659425,0.0-19.0-0.1-0.241,A1M21S1FNT817B,382GHPVPIV7ASJXQ3FB9V025S7G34H,3MTMREQS4ZYP7PDPC2142KVPCM6AW2,6,5
242,1,object_01,object_10,231.89999999851,2,2,472.39999999851,0.0,2,object_04,5,2713,0,6,0,desert_1,2,memory-2step-stake-s,732,2667127,0.0-19.0-0.1-0.242,A1M21S1FNT817B,382GHPVPIV7ASJXQ3FB9V025S7G34H,3MTMREQS4ZYP7PDPC2142KVPCM6AW2,1,2
243,4,object_09,object_07,360.90000000596,8,2,333.19999999553,0.2222222222222222,2,object_04,1,2715,0,8,2,restaurant_3,2,memory-2step-stake-s,733,2674831,0.0-19.0-0.1-0.243,A1M21S1FNT817B,382GHPVPIV7ASJXQ3FB9V025S7G34H,3MTMREQS4ZYP7PDPC2142KVPCM6AW2,7,8
244,4,object_07,object_09,289.20000000298,8,1,428.89999999851,0.3333333333333333,2,object_04,1,2718,0,5,3,restaurant_7,2,memory-2step-stake-s,734,2682806,0.0-19.0-0.1-0.244,A1M21S1FNT817B,382GHPVPIV7ASJXQ3FB9V025S7G34H,3MTMREQS4ZYP7PDPC2142KVPCM6AW2,8,7
245,1,object_01,object_10,330.0,2,2,335.90000000596,0.4444444444444444,2,object_04,5,2738,0,4,4,desert_3,2,memory-2step-stake-s,735,2690794,0.0-19.0-0.1-0.245,A1M21S1FNT817B,382GHPVPIV7ASJXQ3FB9V025S7G34H,3MTMREQS4ZYP7PDPC2142KVPCM6AW2,1,2
246,2,object_03,object_05,250.89999999851,3,2,269.20000000298,0.0,1,object_08,5,2738,0,0,6,forest_4,2,memory-2step-stake-s,736,2698300,0.0-19.0-0.1-0.246,A1M21S1FNT817B,382GHPVPIV7ASJXQ3FB9V025S7G34H,3MTMREQS4ZYP7PDPC2142KVPCM6AW2,4,3
247,2,object_05,object_03,255.60000000149,4,2,490.79999999702,0.5555555555555556,2,object_04,5,2763,0,4,5,forest_8,2,memory-2step-stake-s,737,2706543,0.0-19.0-0.1-0.247,A1M21S1FNT817B,382GHPVPIV7ASJXQ3FB9V025S7G34H,3MTMREQS4ZYP7PDPC2142KVPCM6AW2,3,4
248,4,object_09,object_07,202.89999999851,7,1,395.69999999553,0.7777777777777778,1,object_08,1,2770,0,7,5,restaurant_5,2,memory-2step-stake-s,738,2714903,0.0-19.0-0.1-0.248,A1M21S1FNT817B,382GHPVPIV7ASJXQ3FB9V025S7G34H,3MTMREQS4ZYP7PDPC2142KVPCM6AW2,7,8
249,2,object_03,object_05,290.19999999553,3,2,528.79999999702,0.8888888888888888,1,object_08,1,2778,0,8,7,forest_4,2,memory-2step-stake-s,739,2723499,0.0-19.0-0.1-0.249,A1M21S1FNT817B,382GHPVPIV7ASJXQ3FB9V025S7G34H,3MTMREQS4ZYP7PDPC2142KVPCM6AW2,4,3
250,3,object_02,object_06,421.10000000149,5,1,447.10000000149,0.6666666666666666,1,object_08,1,2784,0,6,8,library_7,2,memory-2step-stake-s,740,2731806,0.0-19.0-0.1-0.250,A1M21S1FNT817B,382GHPVPIV7ASJXQ3FB9V025S7G34H,3MTMREQS4ZYP7PDPC2142KVPCM6AW2,5,6
251,1,object_01,object_10,197.60000000149,2,2,356.5,0.7777777777777778,2,object_04,5,2819,0,7,7,desert_3,2,memory-2step-stake-s,741,2740124,0.0-19.0-0.1-0.251,A1M21S1FNT817B,382GHPVPIV7ASJXQ3FB9V025S7G34H,3MTMREQS4ZYP7PDPC2142KVPCM6AW2,1,2
252,2,object_05,object_03,368.5,4,2,379.69999999553,0.8888888888888888,2,object_04,5,2859,0,6,8,forest_3,2,memory-2step-stake-s,742,2748571,0.0-19.0-0.1-0.252,A1M21S1FNT817B,382GHPVPIV7ASJXQ3FB9V025S7G34H,3MTMREQS4ZYP7PDPC2142KVPCM6AW2,3,4
253,3,object_02,object_06,400.69999999553,5,1,395.10000000149,0.4444444444444444,1,object_08,1,2863,0,4,7,library_1,2,memory-2step-stake-s,743,2756616,0.0-19.0-0.1-0.253,A1M21S1FNT817B,382GHPVPIV7ASJXQ3FB9V025S7G34H,3MTMREQS4ZYP7PDPC2142KVPCM6AW2,5,6
254,4,object_09,object_07,275.39999999851,8,2,444.60000000149,0.6666666666666666,2,object_04,1,2869,0,3,6,restaurant_3,2,memory-2step-stake-s,744,2764913,0.0-19.0-0.1-0.254,A1M21S1FNT817B,382GHPVPIV7ASJXQ3FB9V025S7G34H,3MTMREQS4ZYP7PDPC2142KVPCM6AW2,7,8
255,4,object_07,object_09,356.19999999553,8,1,724.20000000298,0.7777777777777778,2,object_04,1,2876,0,4,7,restaurant_8,2,memory-2step-stake-s,745,2773601,0.0-19.0-0.1-0.255,A1M21S1FNT817B,382GHPVPIV7ASJXQ3FB9V025S7G34H,3MTMREQS4ZYP7PDPC2142KVPCM6AW2,8,7
