,state1,stim_left,stim_right,rt_1,choice1,response1,rt_2,points,state2,stim_state2,stake,score,practice,rews1,rews2,background,high_arm,trial_type,trial_index,time_elapsed,internal_node_id,subid,hitid,assignmentid,stim_left_num,stim_right_num
0,3,object_04,object_03,1352.3000000007,6,1,879.5,0.3333333333333333,2,object_09,1,3,0,1,3,library_7,2,memory-2step-stake-s,498,3067397,0.0-19.0-0.0-0.0,A3US4NGKXBVI48,31KPKEKW5DTYWQJ2Z73D1GA4ZNDB00,3QHK8ZVMIQYEF56IE2UYOKYFWX5BLN,6,5
1,2,object_02,object_08,810.5,3,2,457.5,0.1111111111111111,1,object_01,5,8,0,1,7,forest_5,2,memory-2step-stake-s,499,3075231,0.0-19.0-0.0-0.1,A3US4NGKXBVI48,31KPKEKW5DTYWQJ2Z73D1GA4ZNDB00,3QHK8ZVMIQYEF56IE2UYOKYFWX5BLN,4,3
2,3,object_04,object_03,677.30000000075,5,2,397.39999999851,0.2222222222222222,1,object_01,1,10,0,2,8,library_7,2,memory-2step-stake-s,500,3083096,0.0-19.0-0.0-0.2,A3US4NGKXBVI48,31KPKEKW5DTYWQJ2Z73D1GA4ZNDB00,3QHK8ZVMIQYEF56IE2UYOKYFWX5BLN,6,5
3,1,object_05,object_07,854.90000000224,2,1,701.89999999851,0.6666666666666666,2,object_09,5,40,0,4,6,desert_1,2,memory-2step-stake-s,501,3091685,0.0-19.0-0.0-0.3,A3US4NGKXBVI48,31KPKEKW5DTYWQJ2Z73D1GA4ZNDB00,3QHK8ZVMIQYEF56IE2UYOKYFWX5BLN,2,1
4,4,object_10,object_06,1197.6999999993,7,2,539.80000000075,0.3333333333333333,1,object_01,1,43,0,3,5,restaurant_4,2,memory-2step-stake-s,502,3099779,0.0-19.0-0.0-0.4,A3US4NGKXBVI48,31KPKEKW5DTYWQJ2Z73D1GA4ZNDB00,3QHK8ZVMIQYEF56IE2UYOKYFWX5BLN,8,7
5,2,object_02,object_08,1126.8999999985,4,1,598.09999999776,0.5555555555555556,2,object_09,5,68,0,6,5,forest_5,2,memory-2step-stake-s,503,3108185,0.0-19.0-0.0-0.5,A3US4NGKXBVI48,31KPKEKW5DTYWQJ2Z73D1GA4ZNDB00,3QHK8ZVMIQYEF56IE2UYOKYFWX5BLN,4,3
6,2,object_08,object_02,905.80000000075,4,2,406.19999999925,0.6666666666666666,2,object_09,5,98,0,3,6,forest_2,2,memory-2step-stake-s,504,3116503,0.0-19.0-0.0-0.6,A3US4NGKXBVI48,31KPKEKW5DTYWQJ2Z73D1GA4ZNDB00,3QHK8ZVMIQYEF56IE2UYOKYFWX5BLN,3,4
7,4,object_10,object_06,1113.6999999993,8,1,369.60000000149,0.4444444444444444,2,object_09,1,102,0,1,4,restaurant_8,2,memory-2step-stake-s,505,3124580,0.0-19.0-0.0-0.7,A3US4NGKXBVI48,31KPKEKW5DTYWQJ2Z73D1GA4ZNDB00,3QHK8ZVMIQYEF56IE2UYOKYFWX5BLN,8,7
8,2,object_08,object_02,1451.8000000007,4,2,337.40000000224,0.2222222222222222,2,object_09,5,112,0,6,2,forest_2,2,memory-2step-stake-s,506,3132394,0.0-19.0-0.0-0.8,A3US4NGKXBVI48,31KPKEKW5DTYWQJ2Z73D1GA4ZNDB00,3QHK8ZVMIQYEF56IE2UYOKYFWX5BLN,3,4
9,2,object_08,object_02,1041.0999999978,4,2,280.5,0.3333333333333333,2,object_09,1,115,0,9,3,forest_2,2,memory-2step-stake-s,507,3140279,0.0-19.0-0.0-0.9,A3US4NGKXBVI48,31KPKEKW5DTYWQJ2Z73D1GA4ZNDB00,3QHK8ZVMIQYEF56IE2UYOKYFWX5BLN,3,4
10,2,object_02,object_08,914.30000000075,4,1,291.40000000224,0.4444444444444444,2,object_09,5,135,0,7,4,forest_2,2,memory-2step-stake-s,508,3148244,0.0-19.0-0.0-0.10,A3US4NGKXBVI48,31KPKEKW5DTYWQJ2Z73D1GA4ZNDB00,3QHK8ZVMIQYEF56IE2UYOKYFWX5BLN,4,3
11,3,object_04,object_03,894.39999999851,5,2,809.59999999776,0.6666666666666666,1,object_01,5,165,0,6,5,library_3,2,memory-2step-stake-s,509,3156975,0.0-19.0-0.0-0.11,A3US4NGKXBVI48,31KPKEKW5DTYWQJ2Z73D1GA4ZNDB00,3QHK8ZVMIQYEF56IE2UYOKYFWX5BLN,6,5
12,1,object_05,object_07,599.39999999851,2,1,388.19999999925,0.7777777777777778,2,object_09,5,200,0,7,7,desert_3,2,memory-2step-stake-s,510,3165401,0.0-19.0-0.0-0.12,A3US4NGKXBVI48,31KPKEKW5DTYWQJ2Z73D1GA4ZNDB00,3QHK8ZVMIQYEF56IE2UYOKYFWX5BLN,2,1
13,3,object_04,object_03,822.19999999925,5,2,-1.0,0.0,1,object_01,1,200,0,6,6,library_3,2,memory-2step-stake-s,511,3174004,0.0-19.0-0.0-0.13,A3US4NGKXBVI48,31KPKEKW5DTYWQJ2Z73D1GA4ZNDB00,3QHK8ZVMIQYEF56IE2UYOKYFWX5BLN,6,5
14,3,object_04,object_03,691.30000000075,5,2,332.60000000149,0.6666666666666666,1,object_01,1,206,0,6,6,library_6,2,memory-2step-stake-s,512,3182229,0.0-19.0-0.0-0.14,A3US4NGKXBVI48,31KPKEKW5DTYWQJ2Z73D1GA4ZNDB00,3QHK8ZVMIQYEF56IE2UYOKYFWX5BLN,6,5
15,2,object_08,object_02,683.80000000075,4,2,340.89999999851,0.5555555555555556,2,object_09,1,211,0,7,5,forest_3,2,memory-2step-stake-s,513,3190398,0.0-19.0-0.0-0.15,A3US4NGKXBVI48,31KPKEKW5DTYWQJ2Z73D1GA4ZNDB00,3QHK8ZVMIQYEF56IE2UYOKYFWX5BLN,3,4
16,4,object_10,object_06,1118.299999997,7,2,407.19999999925,0.8888888888888888,1,object_01,1,219,0,8,4,restaurant_3,2,memory-2step-stake-s,514,3198934,0.0-19.0-0.0-0.16,A3US4NGKXBVI48,31KPKEKW5DTYWQJ2Z73D1GA4ZNDB00,3QHK8ZVMIQYEF56IE2UYOKYFWX5BLN,8,7
17,2,object_02,object_08,538.70000000298,4,1,344.30000000075,0.3333333333333333,2,object_09,1,222,0,9,3,forest_2,2,memory-2step-stake-s,515,3206886,0.0-19.0-0.0-0.17,A3US4NGKXBVI48,31KPKEKW5DTYWQJ2Z73D1GA4ZNDB00,3QHK8ZVMIQYEF56IE2UYOKYFWX5BLN,4,3
18,2,object_08,object_02,467.5,4,2,287.5,0.5555555555555556,2,object_09,5,247,0,7,5,forest_3,2,memory-2step-stake-s,516,3214979,0.0-19.0-0.0-0.18,A3US4NGKXBVI48,31KPKEKW5DTYWQJ2Z73D1GA4ZNDB00,3QHK8ZVMIQYEF56IE2UYOKYFWX5BLN,3,4
19,2,object_08,object_02,494.80000000075,4,2,379.0,0.6666666666666666,2,object_09,5,277,0,5,6,forest_3,2,memory-2step-stake-s,517,3223288,0.0-19.0-0.0-0.19,A3US4NGKXBVI48,31KPKEKW5DTYWQJ2Z73D1GA4ZNDB00,3QHK8ZVMIQYEF56IE2UYOKYFWX5BLN,3,4
20,3,object_03,object_04,1129.3999999985,5,1,659.5,0.7777777777777778,1,object_01,1,284,0,7,5,library_3,2,memory-2step-stake-s,518,3231961,0.0-19.0-0.0-0.20,A3US4NGKXBVI48,31KPKEKW5DTYWQJ2Z73D1GA4ZNDB00,3QHK8ZVMIQYEF56IE2UYOKYFWX5BLN,5,6
21,3,object_04,object_03,675.80000000075,5,2,427.19999999925,0.6666666666666666,1,object_01,1,290,0,6,5,library_3,2,memory-2step-stake-s,519,3240317,0.0-19.0-0.0-0.21,A3US4NGKXBVI48,31KPKEKW5DTYWQJ2Z73D1GA4ZNDB00,3QHK8ZVMIQYEF56IE2UYOKYFWX5BLN,6,5
22,4,object_10,object_06,654.80000000075,7,2,362.5,0.5555555555555556,1,object_01,1,295,0,5,8,restaurant_3,2,memory-2step-stake-s,520,3248462,0.0-19.0-0.0-0.22,A3US4NGKXBVI48,31KPKEKW5DTYWQJ2Z73D1GA4ZNDB00,3QHK8ZVMIQYEF56IE2UYOKYFWX5BLN,8,7
23,3,object_04,object_03,472.19999999925,5,2,1254.1000000015,0.2222222222222222,1,object_01,1,297,0,2,4,library_6,2,memory-2step-stake-s,521,3257204,0.0-19.0-0.0-0.23,A3US4NGKXBVI48,31KPKEKW5DTYWQJ2Z73D1GA4ZNDB00,3QHK8ZVMIQYEF56IE2UYOKYFWX5BLN,6,5
24,1,object_05,object_07,699.69999999925,2,1,360.19999999925,0.3333333333333333,2,object_09,5,312,0,2,3,desert_2,2,memory-2step-stake-s,522,3265168,0.0-19.0-0.0-0.24,A3US4NGKXBVI48,31KPKEKW5DTYWQJ2Z73D1GA4ZNDB00,3QHK8ZVMIQYEF56IE2UYOKYFWX5BLN,2,1
25,2,object_02,object_08,645.90000000224,4,1,701.70000000298,0.6666666666666666,2,object_09,1,318,0,2,6,forest_3,2,memory-2step-stake-s,523,3273785,0.0-19.0-0.0-0.25,A3US4NGKXBVI48,31KPKEKW5DTYWQJ2Z73D1GA4ZNDB00,3QHK8ZVMIQYEF56IE2UYOKYFWX5BLN,4,3
26,2,object_08,object_02,423.5,4,2,761.39999999851,0.5555555555555556,2,object_09,5,343,0,0,5,forest_5,2,memory-2step-stake-s,524,3282347,0.0-19.0-0.0-0.26,A3US4NGKXBVI48,31KPKEKW5DTYWQJ2Z73D1GA4ZNDB00,3QHK8ZVMIQYEF56IE2UYOKYFWX5BLN,3,4
27,2,object_08,object_02,558.0,4,2,634.79999999702,0.5555555555555556,2,object_09,5,368,0,0,5,forest_3,2,memory-2step-stake-s,525,3290786,0.0-19.0-0.0-0.27,A3US4NGKXBVI48,31KPKEKW5DTYWQJ2Z73D1GA4ZNDB00,3QHK8ZVMIQYEF56IE2UYOKYFWX5BLN,3,4
28,1,object_07,object_05,462.0,2,2,524.39999999851,0.5555555555555556,2,object_09,5,393,0,1,5,desert_2,2,memory-2step-stake-s,526,3299113,0.0-19.0-0.0-0.28,A3US4NGKXBVI48,31KPKEKW5DTYWQJ2Z73D1GA4ZNDB00,3QHK8ZVMIQYEF56IE2UYOKYFWX5BLN,1,2
29,4,object_06,object_10,993.40000000224,7,1,612.90000000224,0.4444444444444444,1,object_01,1,397,0,4,6,restaurant_2,2,memory-2step-stake-s,527,3307436,0.0-19.0-0.0-0.29,A3US4NGKXBVI48,31KPKEKW5DTYWQJ2Z73D1GA4ZNDB00,3QHK8ZVMIQYEF56IE2UYOKYFWX5BLN,7,8
30,1,object_05,object_07,434.69999999925,2,1,305.80000000075,0.4444444444444444,2,object_09,5,417,0,8,4,desert_1,2,memory-2step-stake-s,528,3315438,0.0-19.0-0.0-0.30,A3US4NGKXBVI48,31KPKEKW5DTYWQJ2Z73D1GA4ZNDB00,3QHK8ZVMIQYEF56IE2UYOKYFWX5BLN,2,1
31,4,object_10,object_06,705.19999999925,7,2,646.5,0.4444444444444444,1,object_01,1,421,0,4,5,restaurant_3,2,memory-2step-stake-s,529,3323778,0.0-19.0-0.0-0.31,A3US4NGKXBVI48,31KPKEKW5DTYWQJ2Z73D1GA4ZNDB00,3QHK8ZVMIQYEF56IE2UYOKYFWX5BLN,8,7
32,3,object_04,object_03,799.0,5,2,354.80000000075,0.5555555555555556,1,object_01,1,426,0,5,8,library_6,2,memory-2step-stake-s,530,3331950,0.0-19.0-0.0-0.32,A3US4NGKXBVI48,31KPKEKW5DTYWQJ2Z73D1GA4ZNDB00,3QHK8ZVMIQYEF56IE2UYOKYFWX5BLN,6,5
33,3,object_04,object_03,773.40000000224,5,2,708.30000000075,0.2222222222222222,1,object_01,1,428,0,2,8,library_2,2,memory-2step-stake-s,531,3340154,0.0-19.0-0.0-0.33,A3US4NGKXBVI48,31KPKEKW5DTYWQJ2Z73D1GA4ZNDB00,3QHK8ZVMIQYEF56IE2UYOKYFWX5BLN,6,5
34,1,object_05,object_07,458.30000000075,2,1,491.70000000298,0.5555555555555556,2,object_09,5,453,0,3,5,desert_6,2,memory-2step-stake-s,532,3348461,0.0-19.0-0.0-0.34,A3US4NGKXBVI48,31KPKEKW5DTYWQJ2Z73D1GA4ZNDB00,3QHK8ZVMIQYEF56IE2UYOKYFWX5BLN,2,1
35,2,object_02,object_08,473.29999999702,4,1,380.70000000298,0.5555555555555556,2,object_09,5,478,0,3,5,forest_3,2,memory-2step-stake-s,533,3356643,0.0-19.0-0.0-0.35,A3US4NGKXBVI48,31KPKEKW5DTYWQJ2Z73D1GA4ZNDB00,3QHK8ZVMIQYEF56IE2UYOKYFWX5BLN,4,3
36,1,object_07,object_05,698.90000000224,2,2,570.5,0.2222222222222222,2,object_09,5,488,0,0,2,desert_3,2,memory-2step-stake-s,534,3364710,0.0-19.0-0.0-0.36,A3US4NGKXBVI48,31KPKEKW5DTYWQJ2Z73D1GA4ZNDB00,3QHK8ZVMIQYEF56IE2UYOKYFWX5BLN,1,2
37,3,object_03,object_04,1027.6999999993,6,2,616.40000000224,0.1111111111111111,2,object_09,5,493,0,1,1,library_7,2,memory-2step-stake-s,535,3372712,0.0-19.0-0.0-0.37,A3US4NGKXBVI48,31KPKEKW5DTYWQJ2Z73D1GA4ZNDB00,3QHK8ZVMIQYEF56IE2UYOKYFWX5BLN,5,6
38,3,object_04,object_03,905.10000000149,5,2,722.89999999851,0.2222222222222222,1,object_01,1,495,0,2,0,library_6,2,memory-2step-stake-s,536,3380904,0.0-19.0-0.0-0.38,A3US4NGKXBVI48,31KPKEKW5DTYWQJ2Z73D1GA4ZNDB00,3QHK8ZVMIQYEF56IE2UYOKYFWX5BLN,6,5
39,4,object_06,object_10,1175.0,7,1,484.5,0.0,1,object_01,1,495,0,0,0,restaurant_8,2,memory-2step-stake-s,537,3388666,0.0-19.0-0.0-0.39,A3US4NGKXBVI48,31KPKEKW5DTYWQJ2Z73D1GA4ZNDB00,3QHK8ZVMIQYEF56IE2UYOKYFWX5BLN,7,8
40,2,object_08,object_02,716.69999999925,3,1,298.0,0.1111111111111111,1,object_01,5,500,0,1,1,forest_2,2,memory-2step-stake-s,538,3396341,0.0-19.0-0.0-0.40,A3US4NGKXBVI48,31KPKEKW5DTYWQJ2Z73D1GA4ZNDB00,3QHK8ZVMIQYEF56IE2UYOKYFWX5BLN,3,4
41,1,object_05,object_07,729.0,2,1,374.0,0.1111111111111111,2,object_09,5,505,0,3,1,desert_1,2,memory-2step-stake-s,539,3404114,0.0-19.0-0.0-0.41,A3US4NGKXBVI48,31KPKEKW5DTYWQJ2Z73D1GA4ZNDB00,3QHK8ZVMIQYEF56IE2UYOKYFWX5BLN,2,1
42,4,object_10,object_06,620.0,7,2,657.09999999776,0.3333333333333333,1,object_01,1,508,0,3,1,restaurant_2,2,memory-2step-stake-s,540,3412393,0.0-19.0-0.0-0.42,A3US4NGKXBVI48,31KPKEKW5DTYWQJ2Z73D1GA4ZNDB00,3QHK8ZVMIQYEF56IE2UYOKYFWX5BLN,8,7
43,2,object_08,object_02,745.09999999776,4,2,292.19999999925,0.3333333333333333,2,object_09,5,523,0,2,3,forest_3,2,memory-2step-stake-s,541,3420258,0.0-19.0-0.0-0.43,A3US4NGKXBVI48,31KPKEKW5DTYWQJ2Z73D1GA4ZNDB00,3QHK8ZVMIQYEF56IE2UYOKYFWX5BLN,3,4
44,3,object_03,object_04,870.19999999925,5,1,699.69999999925,0.5555555555555556,1,object_01,1,528,0,5,2,library_3,2,memory-2step-stake-s,542,3428744,0.0-19.0-0.0-0.44,A3US4NGKXBVI48,31KPKEKW5DTYWQJ2Z73D1GA4ZNDB00,3QHK8ZVMIQYEF56IE2UYOKYFWX5BLN,5,6
45,4,object_10,object_06,734.60000000149,7,2,-1.0,0.0,1,object_01,5,528,0,2,2,restaurant_2,2,memory-2step-stake-s,543,3437336,0.0-19.0-0.0-0.45,A3US4NGKXBVI48,31KPKEKW5DTYWQJ2Z73D1GA4ZNDB00,3QHK8ZVMIQYEF56IE2UYOKYFWX5BLN,8,7
46,1,object_07,object_05,502.0,2,2,310.5,0.4444444444444444,2,object_09,5,548,0,1,4,desert_6,2,memory-2step-stake-s,544,3445328,0.0-19.0-0.0-0.46,A3US4NGKXBVI48,31KPKEKW5DTYWQJ2Z73D1GA4ZNDB00,3QHK8ZVMIQYEF56IE2UYOKYFWX5BLN,1,2
47,3,object_03,object_04,911.10000000149,5,1,977.40000000224,0.0,1,object_01,1,548,0,0,6,library_2,2,memory-2step-stake-s,545,3453584,0.0-19.0-0.0-0.47,A3US4NGKXBVI48,31KPKEKW5DTYWQJ2Z73D1GA4ZNDB00,3QHK8ZVMIQYEF56IE2UYOKYFWX5BLN,5,6
48,1,object_05,object_07,687.5,2,1,392.69999999925,0.6666666666666666,2,object_09,5,578,0,2,6,desert_1,2,memory-2step-stake-s,546,3461897,0.0-19.0-0.0-0.48,A3US4NGKXBVI48,31KPKEKW5DTYWQJ2Z73D1GA4ZNDB00,3QHK8ZVMIQYEF56IE2UYOKYFWX5BLN,2,1
49,3,object_03,object_04,959.19999999925,5,1,779.19999999925,0.1111111111111111,1,object_01,1,579,0,1,7,library_3,2,memory-2step-stake-s,547,3470072,0.0-19.0-0.0-0.49,A3US4NGKXBVI48,31KPKEKW5DTYWQJ2Z73D1GA4ZNDB00,3QHK8ZVMIQYEF56IE2UYOKYFWX5BLN,5,6
50,4,object_06,object_10,1270.8999999985,7,1,-1.0,0.0,1,object_01,1,579,0,2,5,restaurant_2,2,memory-2step-stake-s,548,3478659,0.0-19.0-0.0-0.50,A3US4NGKXBVI48,31KPKEKW5DTYWQJ2Z73D1GA4ZNDB00,3QHK8ZVMIQYEF56IE2UYOKYFWX5BLN,7,8
51,3,object_03,object_04,802.59999999776,6,2,315.10000000149,0.7777777777777778,2,object_09,1,586,0,2,7,library_2,2,memory-2step-stake-s,549,3487006,0.0-19.0-0.0-0.51,A3US4NGKXBVI48,31KPKEKW5DTYWQJ2Z73D1GA4ZNDB00,3QHK8ZVMIQYEF56IE2UYOKYFWX5BLN,5,6
52,4,object_10,object_06,1182.0,8,1,517.69999999925,1.0,2,object_09,1,595,0,2,9,restaurant_3,2,memory-2step-stake-s,550,3495721,0.0-19.0-0.0-0.52,A3US4NGKXBVI48,31KPKEKW5DTYWQJ2Z73D1GA4ZNDB00,3QHK8ZVMIQYEF56IE2UYOKYFWX5BLN,8,7
53,3,object_03,object_04,492.10000000149,6,2,293.39999999851,0.6666666666666666,2,object_09,1,601,0,2,6,library_6,2,memory-2step-stake-s,551,3503902,0.0-19.0-0.0-0.53,A3US4NGKXBVI48,31KPKEKW5DTYWQJ2Z73D1GA4ZNDB00,3QHK8ZVMIQYEF56IE2UYOKYFWX5BLN,5,6
54,3,object_03,object_04,992.69999999925,6,2,311.80000000075,0.4444444444444444,2,object_09,1,605,0,1,4,library_7,2,memory-2step-stake-s,552,3511930,0.0-19.0-0.0-0.54,A3US4NGKXBVI48,31KPKEKW5DTYWQJ2Z73D1GA4ZNDB00,3QHK8ZVMIQYEF56IE2UYOKYFWX5BLN,5,6
55,1,object_07,object_05,512.0,2,2,278.59999999776,0.4444444444444444,2,object_09,5,625,0,1,4,desert_1,2,memory-2step-stake-s,553,3519911,0.0-19.0-0.0-0.55,A3US4NGKXBVI48,31KPKEKW5DTYWQJ2Z73D1GA4ZNDB00,3QHK8ZVMIQYEF56IE2UYOKYFWX5BLN,1,2
56,1,object_05,object_07,926.19999999925,1,2,429.5,0.3333333333333333,1,object_01,5,640,0,3,3,desert_2,2,memory-2step-stake-s,554,3527945,0.0-19.0-0.0-0.56,A3US4NGKXBVI48,31KPKEKW5DTYWQJ2Z73D1GA4ZNDB00,3QHK8ZVMIQYEF56IE2UYOKYFWX5BLN,2,1
57,4,object_06,object_10,1280.6999999993,7,1,420.69999999925,0.4444444444444444,1,object_01,5,660,0,4,4,restaurant_4,2,memory-2step-stake-s,555,3536057,0.0-19.0-0.0-0.57,A3US4NGKXBVI48,31KPKEKW5DTYWQJ2Z73D1GA4ZNDB00,3QHK8ZVMIQYEF56IE2UYOKYFWX5BLN,7,8
58,1,object_05,object_07,1246.8000000007,2,1,699.59999999776,0.1111111111111111,2,object_09,5,665,0,2,1,desert_3,2,memory-2step-stake-s,556,3544129,0.0-19.0-0.0-0.58,A3US4NGKXBVI48,31KPKEKW5DTYWQJ2Z73D1GA4ZNDB00,3QHK8ZVMIQYEF56IE2UYOKYFWX5BLN,2,1
59,2,object_02,object_08,753.69999999925,4,1,678.79999999702,0.0,2,object_09,1,665,0,5,0,forest_8,2,memory-2step-stake-s,557,3552092,0.0-19.0-0.0-0.59,A3US4NGKXBVI48,31KPKEKW5DTYWQJ2Z73D1GA4ZNDB00,3QHK8ZVMIQYEF56IE2UYOKYFWX5BLN,4,3
60,3,object_03,object_04,616.5,5,1,673.69999999925,0.3333333333333333,1,object_01,1,668,0,3,2,library_2,2,memory-2step-stake-s,558,3560361,0.0-19.0-0.0-0.60,A3US4NGKXBVI48,31KPKEKW5DTYWQJ2Z73D1GA4ZNDB00,3QHK8ZVMIQYEF56IE2UYOKYFWX5BLN,5,6
61,1,object_07,object_05,594.89999999851,2,2,652.39999999851,0.3333333333333333,2,object_09,5,683,0,3,3,desert_1,2,memory-2step-stake-s,559,3568611,0.0-19.0-0.0-0.61,A3US4NGKXBVI48,31KPKEKW5DTYWQJ2Z73D1GA4ZNDB00,3QHK8ZVMIQYEF56IE2UYOKYFWX5BLN,1,2
62,3,object_04,object_03,960.89999999851,5,2,515.0,0.6666666666666666,1,object_01,1,689,0,6,1,library_3,2,memory-2step-stake-s,560,3577030,0.0-19.0-0.0-0.62,A3US4NGKXBVI48,31KPKEKW5DTYWQJ2Z73D1GA4ZNDB00,3QHK8ZVMIQYEF56IE2UYOKYFWX5BLN,6,5
63,3,object_04,object_03,407.0,5,2,416.10000000149,0.8888888888888888,1,object_01,1,697,0,8,3,library_7,2,memory-2step-stake-s,561,3585585,0.0-19.0-0.0-0.63,A3US4NGKXBVI48,31KPKEKW5DTYWQJ2Z73D1GA4ZNDB00,3QHK8ZVMIQYEF56IE2UYOKYFWX5BLN,6,5
64,1,object_07,object_05,573.40000000224,2,2,338.60000000149,0.8888888888888888,2,object_09,5,737,0,6,8,desert_2,2,memory-2step-stake-s,562,3594012,0.0-19.0-0.0-0.64,A3US4NGKXBVI48,31KPKEKW5DTYWQJ2Z73D1GA4ZNDB00,3QHK8ZVMIQYEF56IE2UYOKYFWX5BLN,1,2
65,4,object_10,object_06,823.89999999851,7,2,355.90000000224,0.5555555555555556,1,object_01,1,742,0,5,7,restaurant_3,2,memory-2step-stake-s,563,3602181,0.0-19.0-0.0-0.65,A3US4NGKXBVI48,31KPKEKW5DTYWQJ2Z73D1GA4ZNDB00,3QHK8ZVMIQYEF56IE2UYOKYFWX5BLN,8,7
66,2,object_08,object_02,402.69999999925,4,2,281.5,0.8888888888888888,2,object_09,5,782,0,3,8,forest_2,2,memory-2step-stake-s,564,3610579,0.0-19.0-0.0-0.66,A3US4NGKXBVI48,31KPKEKW5DTYWQJ2Z73D1GA4ZNDB00,3QHK8ZVMIQYEF56IE2UYOKYFWX5BLN,3,4
67,4,object_06,object_10,735.69999999925,7,1,700.30000000075,0.0,1,object_01,1,782,0,0,9,restaurant_4,2,memory-2step-stake-s,565,3618569,0.0-19.0-0.0-0.67,A3US4NGKXBVI48,31KPKEKW5DTYWQJ2Z73D1GA4ZNDB00,3QHK8ZVMIQYEF56IE2UYOKYFWX5BLN,7,8
68,1,object_07,object_05,386.0,2,2,319.39999999851,0.8888888888888888,2,object_09,5,822,0,0,8,desert_6,2,memory-2step-stake-s,566,3627018,0.0-19.0-0.0-0.68,A3US4NGKXBVI48,31KPKEKW5DTYWQJ2Z73D1GA4ZNDB00,3QHK8ZVMIQYEF56IE2UYOKYFWX5BLN,1,2
69,2,object_02,object_08,620.39999999851,4,1,413.30000000075,0.6666666666666666,2,object_09,5,852,0,1,6,forest_5,2,memory-2step-stake-s,567,3635350,0.0-19.0-0.0-0.69,A3US4NGKXBVI48,31KPKEKW5DTYWQJ2Z73D1GA4ZNDB00,3QHK8ZVMIQYEF56IE2UYOKYFWX5BLN,4,3
70,1,object_07,object_05,663.69999999925,1,1,360.70000000298,0.0,1,object_01,1,852,0,0,8,desert_1,2,memory-2step-stake-s,568,3642985,0.0-19.0-0.0-0.70,A3US4NGKXBVI48,31KPKEKW5DTYWQJ2Z73D1GA4ZNDB00,3QHK8ZVMIQYEF56IE2UYOKYFWX5BLN,1,2
71,2,object_08,object_02,1001.700000003,4,2,1015.0,0.6666666666666666,2,object_09,5,882,0,1,6,forest_3,2,memory-2step-stake-s,569,3651916,0.0-19.0-0.0-0.71,A3US4NGKXBVI48,31KPKEKW5DTYWQJ2Z73D1GA4ZNDB00,3QHK8ZVMIQYEF56IE2UYOKYFWX5BLN,3,4
72,2,object_08,object_02,589.30000000075,4,2,591.60000000149,0.7777777777777778,2,object_09,5,917,0,3,7,forest_2,2,memory-2step-stake-s,570,3660511,0.0-19.0-0.0-0.72,A3US4NGKXBVI48,31KPKEKW5DTYWQJ2Z73D1GA4ZNDB00,3QHK8ZVMIQYEF56IE2UYOKYFWX5BLN,3,4
73,4,object_10,object_06,596.20000000298,7,2,-1.0,0.0,1,object_01,1,917,0,2,8,restaurant_2,2,memory-2step-stake-s,571,3669073,0.0-19.0-0.0-0.73,A3US4NGKXBVI48,31KPKEKW5DTYWQJ2Z73D1GA4ZNDB00,3QHK8ZVMIQYEF56IE2UYOKYFWX5BLN,8,7
74,4,object_10,object_06,536.30000000075,7,2,626.5,0.4444444444444444,1,object_01,1,921,0,4,6,restaurant_8,2,memory-2step-stake-s,572,3677409,0.0-19.0-0.0-0.74,A3US4NGKXBVI48,31KPKEKW5DTYWQJ2Z73D1GA4ZNDB00,3QHK8ZVMIQYEF56IE2UYOKYFWX5BLN,8,7
75,1,object_07,object_05,687.0,2,2,101.0,0.7777777777777778,2,object_09,5,956,0,5,7,desert_2,2,memory-2step-stake-s,573,3685501,0.0-19.0-0.0-0.75,A3US4NGKXBVI48,31KPKEKW5DTYWQJ2Z73D1GA4ZNDB00,3QHK8ZVMIQYEF56IE2UYOKYFWX5BLN,1,2
76,4,object_06,object_10,619.0,8,2,631.70000000298,0.8888888888888888,2,object_09,1,964,0,6,8,restaurant_4,2,memory-2step-stake-s,574,3694250,0.0-19.0-0.0-0.76,A3US4NGKXBVI48,31KPKEKW5DTYWQJ2Z73D1GA4ZNDB00,3QHK8ZVMIQYEF56IE2UYOKYFWX5BLN,7,8
77,3,object_04,object_03,824.10000000149,5,2,653.80000000075,0.7777777777777778,1,object_01,1,971,0,7,5,library_6,2,memory-2step-stake-s,575,3702920,0.0-19.0-0.0-0.77,A3US4NGKXBVI48,31KPKEKW5DTYWQJ2Z73D1GA4ZNDB00,3QHK8ZVMIQYEF56IE2UYOKYFWX5BLN,6,5
78,3,object_04,object_03,-1.0,-1,-1,-1.0,0.0,-,0,1,971,0,8,2,library_7,2,memory-2step-stake-s,576,3709803,0.0-19.0-0.0-0.78,A3US4NGKXBVI48,31KPKEKW5DTYWQJ2Z73D1GA4ZNDB00,3QHK8ZVMIQYEF56IE2UYOKYFWX5BLN,6,5
79,1,object_07,object_05,464.0,2,2,992.0,0.0,2,object_09,5,971,0,6,0,desert_6,2,memory-2step-stake-s,577,3718032,0.0-19.0-0.0-0.79,A3US4NGKXBVI48,31KPKEKW5DTYWQJ2Z73D1GA4ZNDB00,3QHK8ZVMIQYEF56IE2UYOKYFWX5BLN,1,2
80,3,object_04,object_03,637.0,5,2,1242.8999999985,0.4444444444444444,1,object_01,1,975,0,4,0,library_3,2,memory-2step-stake-s,578,3726947,0.0-19.0-0.0-0.80,A3US4NGKXBVI48,31KPKEKW5DTYWQJ2Z73D1GA4ZNDB00,3QHK8ZVMIQYEF56IE2UYOKYFWX5BLN,6,5
81,4,object_10,object_06,684.19999999925,7,2,892.30000000075,0.1111111111111111,1,object_01,5,980,0,1,2,restaurant_4,2,memory-2step-stake-s,579,3735191,0.0-19.0-0.0-0.81,A3US4NGKXBVI48,31KPKEKW5DTYWQJ2Z73D1GA4ZNDB00,3QHK8ZVMIQYEF56IE2UYOKYFWX5BLN,8,7
82,1,object_05,object_07,856.20000000298,2,1,-1.0,0.0,2,object_09,5,980,0,2,0,desert_1,2,memory-2step-stake-s,580,3743732,0.0-19.0-0.0-0.82,A3US4NGKXBVI48,31KPKEKW5DTYWQJ2Z73D1GA4ZNDB00,3QHK8ZVMIQYEF56IE2UYOKYFWX5BLN,2,1
83,3,object_03,object_04,773.19999999925,5,1,1005.6999999993,0.3333333333333333,1,object_01,5,995,0,3,2,library_3,2,memory-2step-stake-s,581,3752276,0.0-19.0-0.0-0.83,A3US4NGKXBVI48,31KPKEKW5DTYWQJ2Z73D1GA4ZNDB00,3QHK8ZVMIQYEF56IE2UYOKYFWX5BLN,5,6
84,2,object_02,object_08,-1.0,-1,-1,-1.0,0.0,-,0,5,995,0,3,2,forest_3,2,memory-2step-stake-s,582,3758823,0.0-19.0-0.0-0.84,A3US4NGKXBVI48,31KPKEKW5DTYWQJ2Z73D1GA4ZNDB00,3QHK8ZVMIQYEF56IE2UYOKYFWX5BLN,4,3
85,2,object_08,object_02,1337.5,4,2,1393.0,0.7777777777777778,2,object_09,5,1030,0,1,7,forest_3,2,memory-2step-stake-s,583,3768230,0.0-19.0-0.0-0.85,A3US4NGKXBVI48,31KPKEKW5DTYWQJ2Z73D1GA4ZNDB00,3QHK8ZVMIQYEF56IE2UYOKYFWX5BLN,3,4
86,3,object_03,object_04,-1.0,-1,-1,-1.0,0.0,-,0,1,1030,0,1,6,library_6,2,memory-2step-stake-s,584,3774782,0.0-19.0-0.0-0.86,A3US4NGKXBVI48,31KPKEKW5DTYWQJ2Z73D1GA4ZNDB00,3QHK8ZVMIQYEF56IE2UYOKYFWX5BLN,5,6
87,1,object_05,object_07,1289.1999999993,2,1,-1.0,0.0,2,object_09,5,1030,0,2,9,desert_1,2,memory-2step-stake-s,585,3783315,0.0-19.0-0.0-0.87,A3US4NGKXBVI48,31KPKEKW5DTYWQJ2Z73D1GA4ZNDB00,3QHK8ZVMIQYEF56IE2UYOKYFWX5BLN,2,1
88,3,object_03,object_04,-1.0,-1,-1,-1.0,0.0,-,0,5,1030,0,1,9,library_6,2,memory-2step-stake-s,586,3789843,0.0-19.0-0.0-0.88,A3US4NGKXBVI48,31KPKEKW5DTYWQJ2Z73D1GA4ZNDB00,3QHK8ZVMIQYEF56IE2UYOKYFWX5BLN,5,6
89,3,object_04,object_03,-1.0,-1,-1,-1.0,0.0,-,0,1,1030,0,5,4,library_7,2,memory-2step-stake-s,587,3797239,0.0-19.0-0.0-0.89,A3US4NGKXBVI48,31KPKEKW5DTYWQJ2Z73D1GA4ZNDB00,3QHK8ZVMIQYEF56IE2UYOKYFWX5BLN,6,5
90,3,object_04,object_03,1160.3999999985,6,1,565.59999999776,0.7777777777777778,2,object_09,5,1065,0,6,7,library_6,2,memory-2step-stake-s,588,3805823,0.0-19.0-0.0-0.90,A3US4NGKXBVI48,31KPKEKW5DTYWQJ2Z73D1GA4ZNDB00,3QHK8ZVMIQYEF56IE2UYOKYFWX5BLN,6,5
91,2,object_02,object_08,-1.0,-1,-1,-1.0,0.0,-,0,5,1065,0,6,7,forest_5,2,memory-2step-stake-s,589,3812358,0.0-19.0-0.0-0.91,A3US4NGKXBVI48,31KPKEKW5DTYWQJ2Z73D1GA4ZNDB00,3QHK8ZVMIQYEF56IE2UYOKYFWX5BLN,4,3
92,3,object_03,object_04,1023.0,5,1,-1.0,0.0,1,object_01,1,1065,0,9,5,library_6,2,memory-2step-stake-s,590,3820921,0.0-19.0-0.0-0.92,A3US4NGKXBVI48,31KPKEKW5DTYWQJ2Z73D1GA4ZNDB00,3QHK8ZVMIQYEF56IE2UYOKYFWX5BLN,5,6
93,3,object_03,object_04,864.90000000224,5,1,428.5,0.6666666666666666,1,object_01,1,1071,0,6,0,library_6,2,memory-2step-stake-s,591,3829243,0.0-19.0-0.0-0.93,A3US4NGKXBVI48,31KPKEKW5DTYWQJ2Z73D1GA4ZNDB00,3QHK8ZVMIQYEF56IE2UYOKYFWX5BLN,5,6
94,4,object_06,object_10,585.69999999925,7,1,491.80000000075,0.7777777777777778,1,object_01,5,1106,0,7,1,restaurant_8,2,memory-2step-stake-s,592,3837737,0.0-19.0-0.0-0.94,A3US4NGKXBVI48,31KPKEKW5DTYWQJ2Z73D1GA4ZNDB00,3QHK8ZVMIQYEF56IE2UYOKYFWX5BLN,7,8
95,4,object_06,object_10,967.30000000075,7,1,460.39999999851,0.8888888888888888,1,object_01,1,1114,0,8,3,restaurant_4,2,memory-2step-stake-s,593,3846310,0.0-19.0-0.0-0.95,A3US4NGKXBVI48,31KPKEKW5DTYWQJ2Z73D1GA4ZNDB00,3QHK8ZVMIQYEF56IE2UYOKYFWX5BLN,7,8
96,1,object_05,object_07,641.69999999925,2,1,979.29999999702,0.6666666666666666,2,object_09,5,1144,0,8,6,desert_2,2,memory-2step-stake-s,594,3855183,0.0-19.0-0.0-0.96,A3US4NGKXBVI48,31KPKEKW5DTYWQJ2Z73D1GA4ZNDB00,3QHK8ZVMIQYEF56IE2UYOKYFWX5BLN,2,1
97,1,object_07,object_05,901.80000000075,1,1,401.19999999925,1.0,1,object_01,1,1153,0,9,8,desert_3,2,memory-2step-stake-s,595,3863819,0.0-19.0-0.0-0.97,A3US4NGKXBVI48,31KPKEKW5DTYWQJ2Z73D1GA4ZNDB00,3QHK8ZVMIQYEF56IE2UYOKYFWX5BLN,1,2
98,1,object_07,object_05,611.30000000075,2,2,703.80000000075,1.0,2,object_09,1,1162,0,9,9,desert_3,2,memory-2step-stake-s,596,3872751,0.0-19.0-0.0-0.98,A3US4NGKXBVI48,31KPKEKW5DTYWQJ2Z73D1GA4ZNDB00,3QHK8ZVMIQYEF56IE2UYOKYFWX5BLN,1,2
99,2,object_02,object_08,-1.0,-1,-1,-1.0,0.0,-,0,1,1162,0,8,9,forest_5,2,memory-2step-stake-s,597,3879308,0.0-19.0-0.0-0.99,A3US4NGKXBVI48,31KPKEKW5DTYWQJ2Z73D1GA4ZNDB00,3QHK8ZVMIQYEF56IE2UYOKYFWX5BLN,4,3
100,3,object_04,object_03,753.80000000075,5,2,552.5,0.8888888888888888,1,object_01,5,1202,0,8,7,library_2,2,memory-2step-stake-s,598,3887988,0.0-19.0-0.0-0.100,A3US4NGKXBVI48,31KPKEKW5DTYWQJ2Z73D1GA4ZNDB00,3QHK8ZVMIQYEF56IE2UYOKYFWX5BLN,6,5
101,1,object_05,object_07,604.90000000224,2,1,-1.0,0.0,2,object_09,5,1202,0,6,7,desert_6,2,memory-2step-stake-s,599,3896544,0.0-19.0-0.0-0.101,A3US4NGKXBVI48,31KPKEKW5DTYWQJ2Z73D1GA4ZNDB00,3QHK8ZVMIQYEF56IE2UYOKYFWX5BLN,2,1
102,2,object_08,object_02,623.90000000224,4,2,600.30000000075,1.0,2,object_09,5,1247,0,7,9,forest_5,2,memory-2step-stake-s,600,3905384,0.0-19.0-0.0-0.102,A3US4NGKXBVI48,31KPKEKW5DTYWQJ2Z73D1GA4ZNDB00,3QHK8ZVMIQYEF56IE2UYOKYFWX5BLN,3,4
103,4,object_10,object_06,694.59999999776,7,2,520.80000000075,0.8888888888888888,1,object_01,5,1287,0,8,7,restaurant_3,2,memory-2step-stake-s,601,3914025,0.0-19.0-0.0-0.103,A3US4NGKXBVI48,31KPKEKW5DTYWQJ2Z73D1GA4ZNDB00,3QHK8ZVMIQYEF56IE2UYOKYFWX5BLN,8,7
104,3,object_04,object_03,622.19999999925,5,2,486.69999999925,0.8888888888888888,1,object_01,5,1327,0,8,8,library_7,2,memory-2step-stake-s,602,3922642,0.0-19.0-0.0-0.104,A3US4NGKXBVI48,31KPKEKW5DTYWQJ2Z73D1GA4ZNDB00,3QHK8ZVMIQYEF56IE2UYOKYFWX5BLN,6,5
105,4,object_10,object_06,642.40000000224,7,2,595.39999999851,0.6666666666666666,1,object_01,1,1333,0,6,8,restaurant_4,2,memory-2step-stake-s,603,3931135,0.0-19.0-0.0-0.105,A3US4NGKXBVI48,31KPKEKW5DTYWQJ2Z73D1GA4ZNDB00,3QHK8ZVMIQYEF56IE2UYOKYFWX5BLN,8,7
106,2,object_02,object_08,437.19999999925,4,1,609.59999999776,0.4444444444444444,2,object_09,5,1353,0,6,4,forest_5,2,memory-2step-stake-s,604,3939424,0.0-19.0-0.0-0.106,A3US4NGKXBVI48,31KPKEKW5DTYWQJ2Z73D1GA4ZNDB00,3QHK8ZVMIQYEF56IE2UYOKYFWX5BLN,4,3
107,1,object_07,object_05,741.19999999925,2,2,662.80000000075,0.4444444444444444,2,object_09,5,1373,0,7,4,desert_6,2,memory-2step-stake-s,605,3947768,0.0-19.0-0.0-0.107,A3US4NGKXBVI48,31KPKEKW5DTYWQJ2Z73D1GA4ZNDB00,3QHK8ZVMIQYEF56IE2UYOKYFWX5BLN,1,2
108,2,object_08,object_02,430.80000000075,4,2,599.80000000075,0.4444444444444444,2,object_09,5,1393,0,7,4,forest_2,2,memory-2step-stake-s,606,3956077,0.0-19.0-0.0-0.108,A3US4NGKXBVI48,31KPKEKW5DTYWQJ2Z73D1GA4ZNDB00,3QHK8ZVMIQYEF56IE2UYOKYFWX5BLN,3,4
109,2,object_08,object_02,564.69999999925,4,2,857.5,0.5555555555555556,2,object_09,5,1418,0,4,5,forest_8,2,memory-2step-stake-s,607,3964751,0.0-19.0-0.0-0.109,A3US4NGKXBVI48,31KPKEKW5DTYWQJ2Z73D1GA4ZNDB00,3QHK8ZVMIQYEF56IE2UYOKYFWX5BLN,3,4
110,3,object_04,object_03,440.0,5,2,953.80000000075,0.6666666666666666,1,object_01,1,1424,0,6,4,library_7,2,memory-2step-stake-s,608,3973619,0.0-19.0-0.0-0.110,A3US4NGKXBVI48,31KPKEKW5DTYWQJ2Z73D1GA4ZNDB00,3QHK8ZVMIQYEF56IE2UYOKYFWX5BLN,6,5
111,1,object_07,object_05,741.80000000075,2,2,1294.1000000015,0.2222222222222222,2,object_09,5,1434,0,6,2,desert_6,2,memory-2step-stake-s,609,3982397,0.0-19.0-0.0-0.111,A3US4NGKXBVI48,31KPKEKW5DTYWQJ2Z73D1GA4ZNDB00,3QHK8ZVMIQYEF56IE2UYOKYFWX5BLN,1,2
112,3,object_03,object_04,484.69999999925,5,1,-1.0,0.0,1,object_01,5,1434,0,7,3,library_2,2,memory-2step-stake-s,610,3990958,0.0-19.0-0.0-0.112,A3US4NGKXBVI48,31KPKEKW5DTYWQJ2Z73D1GA4ZNDB00,3QHK8ZVMIQYEF56IE2UYOKYFWX5BLN,5,6
113,3,object_04,object_03,-1.0,-1,-1,-1.0,0.0,-,0,1,1434,0,5,3,library_7,2,memory-2step-stake-s,611,3997535,0.0-19.0-0.0-0.113,A3US4NGKXBVI48,31KPKEKW5DTYWQJ2Z73D1GA4ZNDB00,3QHK8ZVMIQYEF56IE2UYOKYFWX5BLN,6,5
114,2,object_08,object_02,565.10000000149,4,2,545.19999999925,0.4444444444444444,2,object_09,5,1454,0,4,4,forest_8,2,memory-2step-stake-s,612,4005773,0.0-19.0-0.0-0.114,A3US4NGKXBVI48,31KPKEKW5DTYWQJ2Z73D1GA4ZNDB00,3QHK8ZVMIQYEF56IE2UYOKYFWX5BLN,3,4
115,4,object_06,object_10,668.59999999776,7,1,555.69999999925,0.5555555555555556,1,object_01,1,1459,0,5,5,restaurant_8,2,memory-2step-stake-s,613,4014136,0.0-19.0-0.0-0.115,A3US4NGKXBVI48,31KPKEKW5DTYWQJ2Z73D1GA4ZNDB00,3QHK8ZVMIQYEF56IE2UYOKYFWX5BLN,7,8
116,2,object_02,object_08,465.69999999925,4,1,1435.299999997,0.3333333333333333,2,object_09,5,1474,0,6,3,forest_8,2,memory-2step-stake-s,614,4023162,0.0-19.0-0.0-0.116,A3US4NGKXBVI48,31KPKEKW5DTYWQJ2Z73D1GA4ZNDB00,3QHK8ZVMIQYEF56IE2UYOKYFWX5BLN,4,3
117,3,object_03,object_04,567.39999999851,5,1,908.40000000224,0.2222222222222222,1,object_01,1,1476,0,2,2,library_7,2,memory-2step-stake-s,615,4031552,0.0-19.0-0.0-0.117,A3US4NGKXBVI48,31KPKEKW5DTYWQJ2Z73D1GA4ZNDB00,3QHK8ZVMIQYEF56IE2UYOKYFWX5BLN,5,6
118,2,object_08,object_02,597.59999999776,4,2,852.90000000224,0.3333333333333333,2,object_09,5,1491,0,3,3,forest_5,2,memory-2step-stake-s,616,4039993,0.0-19.0-0.0-0.118,A3US4NGKXBVI48,31KPKEKW5DTYWQJ2Z73D1GA4ZNDB00,3QHK8ZVMIQYEF56IE2UYOKYFWX5BLN,3,4
119,2,object_02,object_08,435.5,4,1,747.0,0.3333333333333333,2,object_09,5,1506,0,5,3,forest_2,2,memory-2step-stake-s,617,4048336,0.0-19.0-0.0-0.119,A3US4NGKXBVI48,31KPKEKW5DTYWQJ2Z73D1GA4ZNDB00,3QHK8ZVMIQYEF56IE2UYOKYFWX5BLN,4,3
120,3,object_03,object_04,1241.3999999985,5,1,592.59999999776,0.4444444444444444,1,object_01,1,1510,0,4,6,library_3,2,memory-2step-stake-s,618,4056642,0.0-19.0-0.0-0.120,A3US4NGKXBVI48,31KPKEKW5DTYWQJ2Z73D1GA4ZNDB00,3QHK8ZVMIQYEF56IE2UYOKYFWX5BLN,5,6
121,4,object_06,object_10,739.80000000075,7,1,644.89999999851,0.4444444444444444,1,object_01,1,1514,0,4,9,restaurant_8,2,memory-2step-stake-s,619,4064979,0.0-19.0-0.0-0.121,A3US4NGKXBVI48,31KPKEKW5DTYWQJ2Z73D1GA4ZNDB00,3QHK8ZVMIQYEF56IE2UYOKYFWX5BLN,7,8
122,2,object_02,object_08,620.5,4,1,608.59999999776,1.0,2,object_09,1,1523,0,4,9,forest_8,2,memory-2step-stake-s,620,4073825,0.0-19.0-0.0-0.122,A3US4NGKXBVI48,31KPKEKW5DTYWQJ2Z73D1GA4ZNDB00,3QHK8ZVMIQYEF56IE2UYOKYFWX5BLN,4,3
123,4,object_10,object_06,852.10000000149,7,2,290.30000000075,0.4444444444444444,1,object_01,1,1527,0,4,7,restaurant_8,2,memory-2step-stake-s,621,4081808,0.0-19.0-0.0-0.123,A3US4NGKXBVI48,31KPKEKW5DTYWQJ2Z73D1GA4ZNDB00,3QHK8ZVMIQYEF56IE2UYOKYFWX5BLN,8,7
124,2,object_08,object_02,682.59999999776,4,2,576.09999999776,0.8888888888888888,2,object_09,5,1567,0,4,8,forest_5,2,memory-2step-stake-s,622,4090483,0.0-19.0-0.0-0.124,A3US4NGKXBVI48,31KPKEKW5DTYWQJ2Z73D1GA4ZNDB00,3QHK8ZVMIQYEF56IE2UYOKYFWX5BLN,3,4
125,4,object_10,object_06,483.5,7,2,512.59999999776,0.1111111111111111,1,object_01,1,1568,0,1,7,restaurant_2,2,memory-2step-stake-s,623,4098361,0.0-19.0-0.0-0.125,A3US4NGKXBVI48,31KPKEKW5DTYWQJ2Z73D1GA4ZNDB00,3QHK8ZVMIQYEF56IE2UYOKYFWX5BLN,8,7
126,1,object_05,object_07,519.40000000224,2,1,640.40000000224,0.8888888888888888,2,object_09,5,1608,0,0,8,desert_6,2,memory-2step-stake-s,624,4107120,0.0-19.0-0.0-0.126,A3US4NGKXBVI48,31KPKEKW5DTYWQJ2Z73D1GA4ZNDB00,3QHK8ZVMIQYEF56IE2UYOKYFWX5BLN,2,1
127,4,object_10,object_06,734.80000000075,7,2,520.80000000075,0.2222222222222222,1,object_01,5,1618,0,2,7,restaurant_8,2,memory-2step-stake-s,625,4115131,0.0-19.0-0.0-0.127,A3US4NGKXBVI48,31KPKEKW5DTYWQJ2Z73D1GA4ZNDB00,3QHK8ZVMIQYEF56IE2UYOKYFWX5BLN,8,7
128,1,object_05,object_07,783.5,2,1,210.19999999925,0.7777777777777778,2,object_09,5,1653,0,3,7,desert_3,2,memory-2step-stake-s,627,4202494,0.0-19.0-0.1-0.128,A3US4NGKXBVI48,31KPKEKW5DTYWQJ2Z73D1GA4ZNDB00,3QHK8ZVMIQYEF56IE2UYOKYFWX5BLN,2,1
129,3,object_04,object_03,625.0,5,2,644.09999999776,0.1111111111111111,1,object_01,1,1654,0,1,6,library_3,2,memory-2step-stake-s,628,4210533,0.0-19.0-0.1-0.129,A3US4NGKXBVI48,31KPKEKW5DTYWQJ2Z73D1GA4ZNDB00,3QHK8ZVMIQYEF56IE2UYOKYFWX5BLN,6,5
130,4,object_06,object_10,847.30000000075,7,1,722.5,0.2222222222222222,1,object_01,5,1664,0,2,8,restaurant_2,2,memory-2step-stake-s,629,4218734,0.0-19.0-0.1-0.130,A3US4NGKXBVI48,31KPKEKW5DTYWQJ2Z73D1GA4ZNDB00,3QHK8ZVMIQYEF56IE2UYOKYFWX5BLN,7,8
131,2,object_02,object_08,650.90000000224,4,1,531.80000000075,0.8888888888888888,2,object_09,5,1704,0,2,8,forest_3,2,memory-2step-stake-s,630,4227373,0.0-19.0-0.1-0.131,A3US4NGKXBVI48,31KPKEKW5DTYWQJ2Z73D1GA4ZNDB00,3QHK8ZVMIQYEF56IE2UYOKYFWX5BLN,4,3
132,2,object_02,object_08,547.30000000075,4,1,735.30000000075,0.8888888888888888,2,object_09,5,1744,0,0,8,forest_8,2,memory-2step-stake-s,631,4236219,0.0-19.0-0.1-0.132,A3US4NGKXBVI48,31KPKEKW5DTYWQJ2Z73D1GA4ZNDB00,3QHK8ZVMIQYEF56IE2UYOKYFWX5BLN,4,3
133,1,object_05,object_07,552.5,2,1,582.90000000224,0.7777777777777778,2,object_09,5,1779,0,1,7,desert_1,2,memory-2step-stake-s,632,4244806,0.0-19.0-0.1-0.133,A3US4NGKXBVI48,31KPKEKW5DTYWQJ2Z73D1GA4ZNDB00,3QHK8ZVMIQYEF56IE2UYOKYFWX5BLN,2,1
134,4,object_10,object_06,983.80000000075,7,2,970.5,0.4444444444444444,1,object_01,1,1783,0,4,8,restaurant_2,2,memory-2step-stake-s,633,4253455,0.0-19.0-0.1-0.134,A3US4NGKXBVI48,31KPKEKW5DTYWQJ2Z73D1GA4ZNDB00,3QHK8ZVMIQYEF56IE2UYOKYFWX5BLN,8,7
135,2,object_02,object_08,811.59999999776,4,1,954.80000000075,0.8888888888888888,2,object_09,5,1823,0,2,8,forest_5,2,memory-2step-stake-s,634,4262559,0.0-19.0-0.1-0.135,A3US4NGKXBVI48,31KPKEKW5DTYWQJ2Z73D1GA4ZNDB00,3QHK8ZVMIQYEF56IE2UYOKYFWX5BLN,4,3
136,4,object_06,object_10,700.90000000224,7,1,1187.0999999978,0.3333333333333333,1,object_01,1,1826,0,3,8,restaurant_3,2,memory-2step-stake-s,635,4271349,0.0-19.0-0.1-0.136,A3US4NGKXBVI48,31KPKEKW5DTYWQJ2Z73D1GA4ZNDB00,3QHK8ZVMIQYEF56IE2UYOKYFWX5BLN,7,8
137,1,object_07,object_05,610.59999999776,2,2,235.59999999776,0.8888888888888888,2,object_09,5,1866,0,7,8,desert_1,2,memory-2step-stake-s,636,4279724,0.0-19.0-0.1-0.137,A3US4NGKXBVI48,31KPKEKW5DTYWQJ2Z73D1GA4ZNDB00,3QHK8ZVMIQYEF56IE2UYOKYFWX5BLN,1,2
138,2,object_02,object_08,661.70000000298,4,1,865.90000000224,0.8888888888888888,2,object_09,5,1906,0,6,8,forest_3,2,memory-2step-stake-s,637,4288693,0.0-19.0-0.1-0.138,A3US4NGKXBVI48,31KPKEKW5DTYWQJ2Z73D1GA4ZNDB00,3QHK8ZVMIQYEF56IE2UYOKYFWX5BLN,4,3
139,3,object_04,object_03,-1.0,-1,-1,-1.0,0.0,-,0,1,1906,0,4,5,library_6,2,memory-2step-stake-s,638,4295240,0.0-19.0-0.1-0.139,A3US4NGKXBVI48,31KPKEKW5DTYWQJ2Z73D1GA4ZNDB00,3QHK8ZVMIQYEF56IE2UYOKYFWX5BLN,6,5
140,1,object_05,object_07,1037.8999999985,2,1,294.0,0.4444444444444444,2,object_09,1,1910,0,2,4,desert_2,2,memory-2step-stake-s,639,4303209,0.0-19.0-0.1-0.140,A3US4NGKXBVI48,31KPKEKW5DTYWQJ2Z73D1GA4ZNDB00,3QHK8ZVMIQYEF56IE2UYOKYFWX5BLN,2,1
141,3,object_03,object_04,1388.3999999985,5,1,-1.0,0.0,1,object_01,1,1910,0,3,4,library_7,2,memory-2step-stake-s,640,4311750,0.0-19.0-0.1-0.141,A3US4NGKXBVI48,31KPKEKW5DTYWQJ2Z73D1GA4ZNDB00,3QHK8ZVMIQYEF56IE2UYOKYFWX5BLN,5,6
142,4,object_10,object_06,647.5,7,2,-1.0,0.0,1,object_01,1,1910,0,0,3,restaurant_3,2,memory-2step-stake-s,641,4320330,0.0-19.0-0.1-0.142,A3US4NGKXBVI48,31KPKEKW5DTYWQJ2Z73D1GA4ZNDB00,3QHK8ZVMIQYEF56IE2UYOKYFWX5BLN,8,7
143,1,object_05,object_07,660.60000000149,2,1,777.89999999851,0.4444444444444444,2,object_09,5,1930,0,5,4,desert_6,2,memory-2step-stake-s,642,4328798,0.0-19.0-0.1-0.143,A3US4NGKXBVI48,31KPKEKW5DTYWQJ2Z73D1GA4ZNDB00,3QHK8ZVMIQYEF56IE2UYOKYFWX5BLN,2,1
144,2,object_02,object_08,589.30000000075,4,1,751.19999999925,0.4444444444444444,2,object_09,5,1950,0,1,4,forest_8,2,memory-2step-stake-s,643,4337238,0.0-19.0-0.1-0.144,A3US4NGKXBVI48,31KPKEKW5DTYWQJ2Z73D1GA4ZNDB00,3QHK8ZVMIQYEF56IE2UYOKYFWX5BLN,4,3
145,3,object_03,object_04,827.19999999925,5,1,-1.0,0.0,1,object_01,1,1950,0,1,5,library_2,2,memory-2step-stake-s,644,4345798,0.0-19.0-0.1-0.145,A3US4NGKXBVI48,31KPKEKW5DTYWQJ2Z73D1GA4ZNDB00,3QHK8ZVMIQYEF56IE2UYOKYFWX5BLN,5,6
146,3,object_04,object_03,584.30000000075,5,2,1219.700000003,0.1111111111111111,1,object_01,1,1951,0,1,5,library_7,2,memory-2step-stake-s,645,4354401,0.0-19.0-0.1-0.146,A3US4NGKXBVI48,31KPKEKW5DTYWQJ2Z73D1GA4ZNDB00,3QHK8ZVMIQYEF56IE2UYOKYFWX5BLN,6,5
147,1,object_07,object_05,553.09999999776,2,2,772.60000000149,0.0,2,object_09,5,1951,0,2,0,desert_6,2,memory-2step-stake-s,646,4362442,0.0-19.0-0.1-0.147,A3US4NGKXBVI48,31KPKEKW5DTYWQJ2Z73D1GA4ZNDB00,3QHK8ZVMIQYEF56IE2UYOKYFWX5BLN,1,2
148,4,object_06,object_10,923.0,8,2,471.0,0.1111111111111111,2,object_09,1,1952,0,3,1,restaurant_8,2,memory-2step-stake-s,647,4370298,0.0-19.0-0.1-0.148,A3US4NGKXBVI48,31KPKEKW5DTYWQJ2Z73D1GA4ZNDB00,3QHK8ZVMIQYEF56IE2UYOKYFWX5BLN,7,8
149,1,object_05,object_07,1049.6999999993,1,2,517.0,0.2222222222222222,1,object_01,5,1962,0,2,1,desert_6,2,memory-2step-stake-s,648,4378306,0.0-19.0-0.1-0.149,A3US4NGKXBVI48,31KPKEKW5DTYWQJ2Z73D1GA4ZNDB00,3QHK8ZVMIQYEF56IE2UYOKYFWX5BLN,2,1
150,2,object_02,object_08,693.39999999851,4,1,289.09999999776,0.2222222222222222,2,object_09,5,1972,0,2,2,forest_2,2,memory-2step-stake-s,649,4386039,0.0-19.0-0.1-0.150,A3US4NGKXBVI48,31KPKEKW5DTYWQJ2Z73D1GA4ZNDB00,3QHK8ZVMIQYEF56IE2UYOKYFWX5BLN,4,3
151,4,object_06,object_10,952.09999999776,8,2,496.60000000149,0.1111111111111111,2,object_09,1,1973,0,1,1,restaurant_4,2,memory-2step-stake-s,650,4393899,0.0-19.0-0.1-0.151,A3US4NGKXBVI48,31KPKEKW5DTYWQJ2Z73D1GA4ZNDB00,3QHK8ZVMIQYEF56IE2UYOKYFWX5BLN,7,8
152,3,object_03,object_04,845.69999999925,5,1,457.30000000075,0.2222222222222222,1,object_01,1,1975,0,2,1,library_3,2,memory-2step-stake-s,651,4401855,0.0-19.0-0.1-0.152,A3US4NGKXBVI48,31KPKEKW5DTYWQJ2Z73D1GA4ZNDB00,3QHK8ZVMIQYEF56IE2UYOKYFWX5BLN,5,6
153,4,object_10,object_06,599.5,7,2,251.60000000149,0.2222222222222222,1,object_01,1,1977,0,2,4,restaurant_8,2,memory-2step-stake-s,652,4409566,0.0-19.0-0.1-0.153,A3US4NGKXBVI48,31KPKEKW5DTYWQJ2Z73D1GA4ZNDB00,3QHK8ZVMIQYEF56IE2UYOKYFWX5BLN,8,7
154,3,object_04,object_03,687.60000000149,5,2,646.29999999702,0.1111111111111111,1,object_01,1,1978,0,1,3,library_2,2,memory-2step-stake-s,653,4417591,0.0-19.0-0.1-0.154,A3US4NGKXBVI48,31KPKEKW5DTYWQJ2Z73D1GA4ZNDB00,3QHK8ZVMIQYEF56IE2UYOKYFWX5BLN,6,5
155,3,object_03,object_04,681.59999999776,5,1,476.0,0.2222222222222222,1,object_01,1,1980,0,2,2,library_2,2,memory-2step-stake-s,654,4425540,0.0-19.0-0.1-0.155,A3US4NGKXBVI48,31KPKEKW5DTYWQJ2Z73D1GA4ZNDB00,3QHK8ZVMIQYEF56IE2UYOKYFWX5BLN,5,6
156,4,object_10,object_06,662.30000000075,7,2,918.40000000224,0.6666666666666666,1,object_01,5,2010,0,6,3,restaurant_8,2,memory-2step-stake-s,655,4434355,0.0-19.0-0.1-0.156,A3US4NGKXBVI48,31KPKEKW5DTYWQJ2Z73D1GA4ZNDB00,3QHK8ZVMIQYEF56IE2UYOKYFWX5BLN,8,7
157,3,object_03,object_04,505.5,5,1,464.0,0.7777777777777778,1,object_01,5,2045,0,7,5,library_7,2,memory-2step-stake-s,656,4442827,0.0-19.0-0.1-0.157,A3US4NGKXBVI48,31KPKEKW5DTYWQJ2Z73D1GA4ZNDB00,3QHK8ZVMIQYEF56IE2UYOKYFWX5BLN,5,6
158,1,object_05,object_07,1093.700000003,2,1,589.69999999925,1.0,2,object_09,5,2090,0,7,9,desert_2,2,memory-2step-stake-s,657,4451642,0.0-19.0-0.1-0.158,A3US4NGKXBVI48,31KPKEKW5DTYWQJ2Z73D1GA4ZNDB00,3QHK8ZVMIQYEF56IE2UYOKYFWX5BLN,2,1
159,3,object_04,object_03,1136.5,5,2,957.89999999851,0.4444444444444444,1,object_01,1,2094,0,4,7,library_2,2,memory-2step-stake-s,658,4460273,0.0-19.0-0.1-0.159,A3US4NGKXBVI48,31KPKEKW5DTYWQJ2Z73D1GA4ZNDB00,3QHK8ZVMIQYEF56IE2UYOKYFWX5BLN,6,5
160,3,object_03,object_04,575.90000000224,5,1,827.5,0.0,1,object_01,1,2094,0,0,8,library_6,2,memory-2step-stake-s,659,4468364,0.0-19.0-0.1-0.160,A3US4NGKXBVI48,31KPKEKW5DTYWQJ2Z73D1GA4ZNDB00,3QHK8ZVMIQYEF56IE2UYOKYFWX5BLN,5,6
161,3,object_03,object_04,869.0,5,1,491.5,0.0,1,object_01,1,2094,0,0,9,library_2,2,memory-2step-stake-s,660,4476135,0.0-19.0-0.1-0.161,A3US4NGKXBVI48,31KPKEKW5DTYWQJ2Z73D1GA4ZNDB00,3QHK8ZVMIQYEF56IE2UYOKYFWX5BLN,5,6
162,4,object_06,object_10,734.60000000149,7,1,371.5,0.0,1,object_01,1,2094,0,0,8,restaurant_4,2,memory-2step-stake-s,661,4483765,0.0-19.0-0.1-0.162,A3US4NGKXBVI48,31KPKEKW5DTYWQJ2Z73D1GA4ZNDB00,3QHK8ZVMIQYEF56IE2UYOKYFWX5BLN,7,8
163,4,object_10,object_06,534.10000000149,7,2,-1.0,0.0,1,object_01,1,2094,0,1,4,restaurant_4,2,memory-2step-stake-s,662,4492345,0.0-19.0-0.1-0.163,A3US4NGKXBVI48,31KPKEKW5DTYWQJ2Z73D1GA4ZNDB00,3QHK8ZVMIQYEF56IE2UYOKYFWX5BLN,8,7
164,2,object_08,object_02,650.90000000224,4,2,423.09999999776,0.3333333333333333,2,object_09,5,2109,0,1,3,forest_8,2,memory-2step-stake-s,663,4500374,0.0-19.0-0.1-0.164,A3US4NGKXBVI48,31KPKEKW5DTYWQJ2Z73D1GA4ZNDB00,3QHK8ZVMIQYEF56IE2UYOKYFWX5BLN,3,4
165,2,object_02,object_08,693.59999999776,4,1,571.30000000075,0.1111111111111111,2,object_09,5,2114,0,9,1,forest_3,2,memory-2step-stake-s,664,4508319,0.0-19.0-0.1-0.165,A3US4NGKXBVI48,31KPKEKW5DTYWQJ2Z73D1GA4ZNDB00,3QHK8ZVMIQYEF56IE2UYOKYFWX5BLN,4,3
166,4,object_10,object_06,565.10000000149,7,2,832.30000000075,0.7777777777777778,1,object_01,5,2149,0,7,0,restaurant_3,2,memory-2step-stake-s,665,4517148,0.0-19.0-0.1-0.166,A3US4NGKXBVI48,31KPKEKW5DTYWQJ2Z73D1GA4ZNDB00,3QHK8ZVMIQYEF56IE2UYOKYFWX5BLN,8,7
167,2,object_08,object_02,568.80000000075,4,2,265.69999999925,0.2222222222222222,2,object_09,5,2159,0,5,2,forest_2,2,memory-2step-stake-s,666,4524893,0.0-19.0-0.1-0.167,A3US4NGKXBVI48,31KPKEKW5DTYWQJ2Z73D1GA4ZNDB00,3QHK8ZVMIQYEF56IE2UYOKYFWX5BLN,3,4
168,3,object_04,object_03,620.80000000075,5,2,791.0,0.6666666666666666,1,object_01,1,2165,0,6,0,library_3,2,memory-2step-stake-s,667,4533577,0.0-19.0-0.1-0.168,A3US4NGKXBVI48,31KPKEKW5DTYWQJ2Z73D1GA4ZNDB00,3QHK8ZVMIQYEF56IE2UYOKYFWX5BLN,6,5
169,2,object_02,object_08,444.59999999776,4,1,399.5,0.1111111111111111,2,object_09,5,2170,0,6,1,forest_3,2,memory-2step-stake-s,668,4541345,0.0-19.0-0.1-0.169,A3US4NGKXBVI48,31KPKEKW5DTYWQJ2Z73D1GA4ZNDB00,3QHK8ZVMIQYEF56IE2UYOKYFWX5BLN,4,3
170,4,object_10,object_06,568.5,7,2,1018.5,0.4444444444444444,1,object_01,1,2174,0,4,1,restaurant_2,2,memory-2step-stake-s,669,4550073,0.0-19.0-0.1-0.170,A3US4NGKXBVI48,31KPKEKW5DTYWQJ2Z73D1GA4ZNDB00,3QHK8ZVMIQYEF56IE2UYOKYFWX5BLN,8,7
171,1,object_05,object_07,716.09999999776,2,1,607.69999999925,0.1111111111111111,2,object_09,5,2179,0,2,1,desert_2,2,memory-2step-stake-s,670,4558062,0.0-19.0-0.1-0.171,A3US4NGKXBVI48,31KPKEKW5DTYWQJ2Z73D1GA4ZNDB00,3QHK8ZVMIQYEF56IE2UYOKYFWX5BLN,2,1
172,2,object_08,object_02,590.90000000224,4,2,547.5,0.2222222222222222,2,object_09,5,2189,0,5,2,forest_3,2,memory-2step-stake-s,671,4566087,0.0-19.0-0.1-0.172,A3US4NGKXBVI48,31KPKEKW5DTYWQJ2Z73D1GA4ZNDB00,3QHK8ZVMIQYEF56IE2UYOKYFWX5BLN,3,4
173,2,object_02,object_08,595.60000000149,4,1,700.09999999776,0.2222222222222222,2,object_09,5,2199,0,3,2,forest_2,2,memory-2step-stake-s,672,4574264,0.0-19.0-0.1-0.173,A3US4NGKXBVI48,31KPKEKW5DTYWQJ2Z73D1GA4ZNDB00,3QHK8ZVMIQYEF56IE2UYOKYFWX5BLN,4,3
174,4,object_10,object_06,615.40000000224,7,2,631.80000000075,0.6666666666666666,1,object_01,1,2205,0,6,2,restaurant_4,2,memory-2step-stake-s,673,4582851,0.0-19.0-0.1-0.174,A3US4NGKXBVI48,31KPKEKW5DTYWQJ2Z73D1GA4ZNDB00,3QHK8ZVMIQYEF56IE2UYOKYFWX5BLN,8,7
175,2,object_02,object_08,598.5,4,1,-1.0,0.0,2,object_09,5,2205,0,7,1,forest_5,2,memory-2step-stake-s,674,4591411,0.0-19.0-0.1-0.175,A3US4NGKXBVI48,31KPKEKW5DTYWQJ2Z73D1GA4ZNDB00,3QHK8ZVMIQYEF56IE2UYOKYFWX5BLN,4,3
176,1,object_07,object_05,726.5,2,2,699.5,0.2222222222222222,2,object_09,5,2215,0,7,2,desert_2,2,memory-2step-stake-s,675,4599565,0.0-19.0-0.1-0.176,A3US4NGKXBVI48,31KPKEKW5DTYWQJ2Z73D1GA4ZNDB00,3QHK8ZVMIQYEF56IE2UYOKYFWX5BLN,1,2
177,2,object_08,object_02,559.79999999702,4,2,593.0,0.5555555555555556,2,object_09,5,2240,0,7,5,forest_8,2,memory-2step-stake-s,676,4607934,0.0-19.0-0.1-0.177,A3US4NGKXBVI48,31KPKEKW5DTYWQJ2Z73D1GA4ZNDB00,3QHK8ZVMIQYEF56IE2UYOKYFWX5BLN,3,4
178,4,object_10,object_06,603.80000000075,7,2,569.39999999851,0.7777777777777778,1,object_01,5,2275,0,7,4,restaurant_4,2,memory-2step-stake-s,677,4616537,0.0-19.0-0.1-0.178,A3US4NGKXBVI48,31KPKEKW5DTYWQJ2Z73D1GA4ZNDB00,3QHK8ZVMIQYEF56IE2UYOKYFWX5BLN,8,7
179,1,object_05,object_07,402.39999999851,2,1,637.69999999925,0.3333333333333333,2,object_09,5,2290,0,6,3,desert_2,2,memory-2step-stake-s,678,4624780,0.0-19.0-0.1-0.179,A3US4NGKXBVI48,31KPKEKW5DTYWQJ2Z73D1GA4ZNDB00,3QHK8ZVMIQYEF56IE2UYOKYFWX5BLN,2,1
180,1,object_05,object_07,140.70000000298,1,2,493.30000000075,0.7777777777777778,1,object_01,1,2297,0,7,2,desert_2,2,memory-2step-stake-s,679,4633311,0.0-19.0-0.1-0.180,A3US4NGKXBVI48,31KPKEKW5DTYWQJ2Z73D1GA4ZNDB00,3QHK8ZVMIQYEF56IE2UYOKYFWX5BLN,2,1
181,4,object_10,object_06,501.80000000075,7,2,-1.0,0.0,1,object_01,1,2297,0,8,2,restaurant_4,2,memory-2step-stake-s,680,4641882,0.0-19.0-0.1-0.181,A3US4NGKXBVI48,31KPKEKW5DTYWQJ2Z73D1GA4ZNDB00,3QHK8ZVMIQYEF56IE2UYOKYFWX5BLN,8,7
182,1,object_07,object_05,547.80000000075,2,2,1236.8000000007,0.0,2,object_09,1,2297,0,8,0,desert_1,2,memory-2step-stake-s,681,4650404,0.0-19.0-0.1-0.182,A3US4NGKXBVI48,31KPKEKW5DTYWQJ2Z73D1GA4ZNDB00,3QHK8ZVMIQYEF56IE2UYOKYFWX5BLN,1,2
183,4,object_06,object_10,375.30000000075,8,2,861.0,0.4444444444444444,2,object_09,1,2301,0,7,4,restaurant_8,2,memory-2step-stake-s,682,4658951,0.0-19.0-0.1-0.183,A3US4NGKXBVI48,31KPKEKW5DTYWQJ2Z73D1GA4ZNDB00,3QHK8ZVMIQYEF56IE2UYOKYFWX5BLN,7,8
184,3,object_04,object_03,573.60000000149,5,2,691.80000000075,0.3333333333333333,1,object_01,1,2304,0,3,4,library_2,2,memory-2step-stake-s,683,4667245,0.0-19.0-0.1-0.184,A3US4NGKXBVI48,31KPKEKW5DTYWQJ2Z73D1GA4ZNDB00,3QHK8ZVMIQYEF56IE2UYOKYFWX5BLN,6,5
185,1,object_07,object_05,600.90000000224,2,2,653.5,0.8888888888888888,2,object_09,1,2312,0,3,8,desert_1,2,memory-2step-stake-s,684,4676046,0.0-19.0-0.1-0.185,A3US4NGKXBVI48,31KPKEKW5DTYWQJ2Z73D1GA4ZNDB00,3QHK8ZVMIQYEF56IE2UYOKYFWX5BLN,1,2
186,3,object_04,object_03,521.5,5,2,531.19999999925,0.2222222222222222,1,object_01,1,2314,0,2,8,library_7,2,memory-2step-stake-s,685,4684027,0.0-19.0-0.1-0.186,A3US4NGKXBVI48,31KPKEKW5DTYWQJ2Z73D1GA4ZNDB00,3QHK8ZVMIQYEF56IE2UYOKYFWX5BLN,6,5
187,1,object_05,object_07,1472.0,2,1,605.5,1.0,2,object_09,5,2359,0,5,9,desert_2,2,memory-2step-stake-s,686,4692865,0.0-19.0-0.1-0.187,A3US4NGKXBVI48,31KPKEKW5DTYWQJ2Z73D1GA4ZNDB00,3QHK8ZVMIQYEF56IE2UYOKYFWX5BLN,2,1
188,4,object_10,object_06,1226.8000000007,7,2,960.80000000075,0.7777777777777778,1,object_01,1,2366,0,7,8,restaurant_2,2,memory-2step-stake-s,687,4701820,0.0-19.0-0.1-0.188,A3US4NGKXBVI48,31KPKEKW5DTYWQJ2Z73D1GA4ZNDB00,3QHK8ZVMIQYEF56IE2UYOKYFWX5BLN,8,7
189,3,object_03,object_04,607.10000000149,5,1,741.80000000075,0.6666666666666666,1,object_01,1,2372,0,6,7,library_2,2,memory-2step-stake-s,688,4710497,0.0-19.0-0.1-0.189,A3US4NGKXBVI48,31KPKEKW5DTYWQJ2Z73D1GA4ZNDB00,3QHK8ZVMIQYEF56IE2UYOKYFWX5BLN,5,6
190,4,object_06,object_10,712.69999999925,8,2,343.0,0.8888888888888888,2,object_09,1,2380,0,6,8,restaurant_3,2,memory-2step-stake-s,689,4718984,0.0-19.0-0.1-0.190,A3US4NGKXBVI48,31KPKEKW5DTYWQJ2Z73D1GA4ZNDB00,3QHK8ZVMIQYEF56IE2UYOKYFWX5BLN,7,8
191,1,object_07,object_05,953.19999999925,2,2,390.70000000298,0.8888888888888888,2,object_09,5,2420,0,7,8,desert_3,2,memory-2step-stake-s,690,4727488,0.0-19.0-0.1-0.191,A3US4NGKXBVI48,31KPKEKW5DTYWQJ2Z73D1GA4ZNDB00,3QHK8ZVMIQYEF56IE2UYOKYFWX5BLN,1,2
192,4,object_06,object_10,898.80000000075,8,2,739.69999999925,0.7777777777777778,2,object_09,5,2455,0,8,7,restaurant_3,2,memory-2step-stake-s,691,4736260,0.0-19.0-0.1-0.192,A3US4NGKXBVI48,31KPKEKW5DTYWQJ2Z73D1GA4ZNDB00,3QHK8ZVMIQYEF56IE2UYOKYFWX5BLN,7,8
193,4,object_06,object_10,801.10000000149,7,1,772.79999999702,1.0,1,object_01,1,2464,0,9,8,restaurant_4,2,memory-2step-stake-s,692,4745254,0.0-19.0-0.1-0.193,A3US4NGKXBVI48,31KPKEKW5DTYWQJ2Z73D1GA4ZNDB00,3QHK8ZVMIQYEF56IE2UYOKYFWX5BLN,7,8
194,3,object_03,object_04,615.5,5,1,735.39999999851,0.7777777777777778,1,object_01,1,2471,0,7,7,library_6,2,memory-2step-stake-s,693,4753999,0.0-19.0-0.1-0.194,A3US4NGKXBVI48,31KPKEKW5DTYWQJ2Z73D1GA4ZNDB00,3QHK8ZVMIQYEF56IE2UYOKYFWX5BLN,5,6
195,1,object_07,object_05,585.29999999702,2,2,687.69999999925,0.7777777777777778,2,object_09,5,2506,0,7,7,desert_1,2,memory-2step-stake-s,694,4762688,0.0-19.0-0.1-0.195,A3US4NGKXBVI48,31KPKEKW5DTYWQJ2Z73D1GA4ZNDB00,3QHK8ZVMIQYEF56IE2UYOKYFWX5BLN,1,2
196,3,object_04,object_03,530.69999999925,5,2,718.69999999925,0.5555555555555556,1,object_01,1,2511,0,5,7,library_2,2,memory-2step-stake-s,695,4771220,0.0-19.0-0.1-0.196,A3US4NGKXBVI48,31KPKEKW5DTYWQJ2Z73D1GA4ZNDB00,3QHK8ZVMIQYEF56IE2UYOKYFWX5BLN,6,5
197,1,object_05,object_07,600.79999999702,2,1,615.0,0.2222222222222222,2,object_09,5,2521,0,3,2,desert_3,2,memory-2step-stake-s,696,4779333,0.0-19.0-0.1-0.197,A3US4NGKXBVI48,31KPKEKW5DTYWQJ2Z73D1GA4ZNDB00,3QHK8ZVMIQYEF56IE2UYOKYFWX5BLN,2,1
198,4,object_06,object_10,880.80000000075,8,2,617.30000000075,0.1111111111111111,2,object_09,1,2522,0,3,1,restaurant_2,2,memory-2step-stake-s,697,4787315,0.0-19.0-0.1-0.198,A3US4NGKXBVI48,31KPKEKW5DTYWQJ2Z73D1GA4ZNDB00,3QHK8ZVMIQYEF56IE2UYOKYFWX5BLN,7,8
199,4,object_10,object_06,1374.0999999978,7,2,617.5,0.5555555555555556,1,object_01,1,2527,0,5,1,restaurant_8,2,memory-2step-stake-s,698,4795709,0.0-19.0-0.1-0.199,A3US4NGKXBVI48,31KPKEKW5DTYWQJ2Z73D1GA4ZNDB00,3QHK8ZVMIQYEF56IE2UYOKYFWX5BLN,8,7
200,2,object_02,object_08,748.10000000149,4,1,277.19999999925,0.3333333333333333,2,object_09,5,2542,0,4,3,forest_2,2,memory-2step-stake-s,699,4803558,0.0-19.0-0.1-0.200,A3US4NGKXBVI48,31KPKEKW5DTYWQJ2Z73D1GA4ZNDB00,3QHK8ZVMIQYEF56IE2UYOKYFWX5BLN,4,3
201,4,object_10,object_06,844.60000000149,7,2,541.90000000224,0.1111111111111111,1,object_01,1,2543,0,1,5,restaurant_3,2,memory-2step-stake-s,700,4811477,0.0-19.0-0.1-0.201,A3US4NGKXBVI48,31KPKEKW5DTYWQJ2Z73D1GA4ZNDB00,3QHK8ZVMIQYEF56IE2UYOKYFWX5BLN,8,7
202,4,object_10,object_06,653.69999999925,7,2,903.60000000149,0.0,1,object_01,1,2543,0,0,4,restaurant_3,2,memory-2step-stake-s,701,4819666,0.0-19.0-0.1-0.202,A3US4NGKXBVI48,31KPKEKW5DTYWQJ2Z73D1GA4ZNDB00,3QHK8ZVMIQYEF56IE2UYOKYFWX5BLN,8,7
203,3,object_03,object_04,888.90000000224,5,1,-1.0,0.0,1,object_01,1,2543,0,2,8,library_2,2,memory-2step-stake-s,702,4828237,0.0-19.0-0.1-0.203,A3US4NGKXBVI48,31KPKEKW5DTYWQJ2Z73D1GA4ZNDB00,3QHK8ZVMIQYEF56IE2UYOKYFWX5BLN,5,6
204,4,object_06,object_10,-1.0,-1,-1,-1.0,0.0,-,0,1,2543,0,2,9,restaurant_2,2,memory-2step-stake-s,703,4834795,0.0-19.0-0.1-0.204,A3US4NGKXBVI48,31KPKEKW5DTYWQJ2Z73D1GA4ZNDB00,3QHK8ZVMIQYEF56IE2UYOKYFWX5BLN,7,8
205,1,object_07,object_05,529.10000000149,2,2,379.09999999776,0.8888888888888888,2,object_09,1,2551,0,1,8,desert_1,2,memory-2step-stake-s,704,4843295,0.0-19.0-0.1-0.205,A3US4NGKXBVI48,31KPKEKW5DTYWQJ2Z73D1GA4ZNDB00,3QHK8ZVMIQYEF56IE2UYOKYFWX5BLN,1,2
206,1,object_07,object_05,529.59999999776,2,2,1252.0,0.7777777777777778,2,object_09,1,2558,0,0,7,desert_6,2,memory-2step-stake-s,705,4852533,0.0-19.0-0.1-0.206,A3US4NGKXBVI48,31KPKEKW5DTYWQJ2Z73D1GA4ZNDB00,3QHK8ZVMIQYEF56IE2UYOKYFWX5BLN,1,2
207,4,object_10,object_06,696.60000000149,7,2,808.59999999776,0.1111111111111111,1,object_01,5,2563,0,1,8,restaurant_8,2,memory-2step-stake-s,706,4860754,0.0-19.0-0.1-0.207,A3US4NGKXBVI48,31KPKEKW5DTYWQJ2Z73D1GA4ZNDB00,3QHK8ZVMIQYEF56IE2UYOKYFWX5BLN,8,7
208,2,object_02,object_08,226.0,3,2,478.80000000075,0.2222222222222222,1,object_01,5,2573,0,2,8,forest_2,2,memory-2step-stake-s,707,4868714,0.0-19.0-0.1-0.208,A3US4NGKXBVI48,31KPKEKW5DTYWQJ2Z73D1GA4ZNDB00,3QHK8ZVMIQYEF56IE2UYOKYFWX5BLN,4,3
209,1,object_05,object_07,676.5,2,1,871.09999999776,0.7777777777777778,2,object_09,5,2608,0,1,7,desert_3,2,memory-2step-stake-s,708,4877618,0.0-19.0-0.1-0.209,A3US4NGKXBVI48,31KPKEKW5DTYWQJ2Z73D1GA4ZNDB00,3QHK8ZVMIQYEF56IE2UYOKYFWX5BLN,2,1
210,3,object_04,object_03,39.099999997765,5,2,115.0,0.1111111111111111,1,object_01,1,2609,0,1,8,library_6,2,memory-2step-stake-s,709,4885112,0.0-19.0-0.1-0.210,A3US4NGKXBVI48,31KPKEKW5DTYWQJ2Z73D1GA4ZNDB00,3QHK8ZVMIQYEF56IE2UYOKYFWX5BLN,6,5
211,4,object_10,object_06,807.90000000224,7,2,886.19999999925,0.1111111111111111,1,object_01,1,2610,0,1,8,restaurant_2,2,memory-2step-stake-s,710,4893378,0.0-19.0-0.1-0.211,A3US4NGKXBVI48,31KPKEKW5DTYWQJ2Z73D1GA4ZNDB00,3QHK8ZVMIQYEF56IE2UYOKYFWX5BLN,8,7
212,4,object_06,object_10,394.0,7,1,491.19999999925,0.1111111111111111,1,object_01,5,2615,0,1,8,restaurant_8,2,memory-2step-stake-s,711,4901262,0.0-19.0-0.1-0.212,A3US4NGKXBVI48,31KPKEKW5DTYWQJ2Z73D1GA4ZNDB00,3QHK8ZVMIQYEF56IE2UYOKYFWX5BLN,7,8
213,2,object_02,object_08,626.5,4,1,-1.0,0.0,2,object_09,5,2615,0,0,8,forest_5,2,memory-2step-stake-s,712,4909813,0.0-19.0-0.1-0.213,A3US4NGKXBVI48,31KPKEKW5DTYWQJ2Z73D1GA4ZNDB00,3QHK8ZVMIQYEF56IE2UYOKYFWX5BLN,4,3
214,4,object_06,object_10,664.10000000149,7,1,435.10000000149,0.1111111111111111,1,object_01,5,2620,0,1,8,restaurant_2,2,memory-2step-stake-s,713,4917596,0.0-19.0-0.1-0.214,A3US4NGKXBVI48,31KPKEKW5DTYWQJ2Z73D1GA4ZNDB00,3QHK8ZVMIQYEF56IE2UYOKYFWX5BLN,7,8
215,3,object_03,object_04,-1.0,-1,-1,-1.0,0.0,-,0,1,2620,0,1,6,library_6,2,memory-2step-stake-s,714,4924158,0.0-19.0-0.1-0.215,A3US4NGKXBVI48,31KPKEKW5DTYWQJ2Z73D1GA4ZNDB00,3QHK8ZVMIQYEF56IE2UYOKYFWX5BLN,5,6
216,1,object_05,object_07,418.90000000224,2,1,693.39999999851,0.6666666666666666,2,object_09,5,2650,0,1,6,desert_6,2,memory-2step-stake-s,715,4932777,0.0-19.0-0.1-0.216,A3US4NGKXBVI48,31KPKEKW5DTYWQJ2Z73D1GA4ZNDB00,3QHK8ZVMIQYEF56IE2UYOKYFWX5BLN,2,1
217,2,object_02,object_08,441.20000000298,4,1,1209.4000000022,0.6666666666666666,2,object_09,5,2680,0,3,6,forest_5,2,memory-2step-stake-s,716,4941885,0.0-19.0-0.1-0.217,A3US4NGKXBVI48,31KPKEKW5DTYWQJ2Z73D1GA4ZNDB00,3QHK8ZVMIQYEF56IE2UYOKYFWX5BLN,4,3
218,2,object_08,object_02,565.80000000075,4,2,1482.0999999978,1.0,2,object_09,5,2725,0,1,9,forest_8,2,memory-2step-stake-s,717,4951600,0.0-19.0-0.1-0.218,A3US4NGKXBVI48,31KPKEKW5DTYWQJ2Z73D1GA4ZNDB00,3QHK8ZVMIQYEF56IE2UYOKYFWX5BLN,3,4
219,4,object_06,object_10,793.5,7,1,540.19999999925,0.1111111111111111,1,object_01,1,2726,0,1,8,restaurant_2,2,memory-2step-stake-s,718,4959524,0.0-19.0-0.1-0.219,A3US4NGKXBVI48,31KPKEKW5DTYWQJ2Z73D1GA4ZNDB00,3QHK8ZVMIQYEF56IE2UYOKYFWX5BLN,7,8
220,1,object_07,object_05,543.80000000075,2,2,293.89999999851,0.7777777777777778,2,object_09,5,2761,0,2,7,desert_3,2,memory-2step-stake-s,719,4967813,0.0-19.0-0.1-0.220,A3US4NGKXBVI48,31KPKEKW5DTYWQJ2Z73D1GA4ZNDB00,3QHK8ZVMIQYEF56IE2UYOKYFWX5BLN,1,2
221,2,object_02,object_08,681.40000000224,4,1,715.80000000075,0.8888888888888888,2,object_09,5,2801,0,3,8,forest_8,2,memory-2step-stake-s,720,4976687,0.0-19.0-0.1-0.221,A3US4NGKXBVI48,31KPKEKW5DTYWQJ2Z73D1GA4ZNDB00,3QHK8ZVMIQYEF56IE2UYOKYFWX5BLN,4,3
222,4,object_10,object_06,823.60000000149,7,2,713.5,0.3333333333333333,1,object_01,5,2816,0,3,8,restaurant_3,2,memory-2step-stake-s,721,4984979,0.0-19.0-0.1-0.222,A3US4NGKXBVI48,31KPKEKW5DTYWQJ2Z73D1GA4ZNDB00,3QHK8ZVMIQYEF56IE2UYOKYFWX5BLN,8,7
223,1,object_05,object_07,555.5,2,1,620.39999999851,0.7777777777777778,2,object_09,5,2851,0,4,7,desert_2,2,memory-2step-stake-s,722,4993586,0.0-19.0-0.1-0.223,A3US4NGKXBVI48,31KPKEKW5DTYWQJ2Z73D1GA4ZNDB00,3QHK8ZVMIQYEF56IE2UYOKYFWX5BLN,2,1
224,1,object_07,object_05,676.80000000075,1,1,318.80000000075,0.2222222222222222,1,object_01,1,2853,0,2,8,desert_1,2,memory-2step-stake-s,723,5001371,0.0-19.0-0.1-0.224,A3US4NGKXBVI48,31KPKEKW5DTYWQJ2Z73D1GA4ZNDB00,3QHK8ZVMIQYEF56IE2UYOKYFWX5BLN,1,2
225,1,object_05,object_07,703.79999999702,2,1,61.60000000149,0.8888888888888888,2,object_09,5,2893,0,2,8,desert_3,2,memory-2step-stake-s,724,5009578,0.0-19.0-0.1-0.225,A3US4NGKXBVI48,31KPKEKW5DTYWQJ2Z73D1GA4ZNDB00,3QHK8ZVMIQYEF56IE2UYOKYFWX5BLN,2,1
226,1,object_05,object_07,524.69999999925,2,1,280.30000000075,0.8888888888888888,2,object_09,5,2933,0,1,8,desert_6,2,memory-2step-stake-s,725,5017961,0.0-19.0-0.1-0.226,A3US4NGKXBVI48,31KPKEKW5DTYWQJ2Z73D1GA4ZNDB00,3QHK8ZVMIQYEF56IE2UYOKYFWX5BLN,2,1
227,1,object_05,object_07,441.89999999851,2,1,392.79999999702,1.0,2,object_09,5,2978,0,3,9,desert_3,2,memory-2step-stake-s,726,5026583,0.0-19.0-0.1-0.227,A3US4NGKXBVI48,31KPKEKW5DTYWQJ2Z73D1GA4ZNDB00,3QHK8ZVMIQYEF56IE2UYOKYFWX5BLN,2,1
228,4,object_10,object_06,560.40000000224,7,2,582.5,0.2222222222222222,1,object_01,1,2980,0,2,7,restaurant_4,2,memory-2step-stake-s,727,5034658,0.0-19.0-0.1-0.228,A3US4NGKXBVI48,31KPKEKW5DTYWQJ2Z73D1GA4ZNDB00,3QHK8ZVMIQYEF56IE2UYOKYFWX5BLN,8,7
229,2,object_02,object_08,618.5,4,1,615.69999999925,0.7777777777777778,2,object_09,5,3015,0,0,7,forest_3,2,memory-2step-stake-s,728,5043296,0.0-19.0-0.1-0.229,A3US4NGKXBVI48,31KPKEKW5DTYWQJ2Z73D1GA4ZNDB00,3QHK8ZVMIQYEF56IE2UYOKYFWX5BLN,4,3
230,1,object_05,object_07,622.19999999925,2,1,430.80000000075,0.3333333333333333,2,object_09,1,3018,0,5,3,desert_6,2,memory-2step-stake-s,729,5051319,0.0-19.0-0.1-0.230,A3US4NGKXBVI48,31KPKEKW5DTYWQJ2Z73D1GA4ZNDB00,3QHK8ZVMIQYEF56IE2UYOKYFWX5BLN,2,1
231,1,object_05,object_07,732.0,2,1,518.0,0.1111111111111111,2,object_09,1,3019,0,6,1,desert_3,2,memory-2step-stake-s,730,5059222,0.0-19.0-0.1-0.231,A3US4NGKXBVI48,31KPKEKW5DTYWQJ2Z73D1GA4ZNDB00,3QHK8ZVMIQYEF56IE2UYOKYFWX5BLN,2,1
232,1,object_07,object_05,1218.5,1,1,275.89999999851,0.2222222222222222,1,object_01,5,3029,0,2,1,desert_3,2,memory-2step-stake-s,731,5066984,0.0-19.0-0.1-0.232,A3US4NGKXBVI48,31KPKEKW5DTYWQJ2Z73D1GA4ZNDB00,3QHK8ZVMIQYEF56IE2UYOKYFWX5BLN,1,2
233,2,object_08,object_02,1497.0999999978,4,2,966.30000000075,0.1111111111111111,2,object_09,5,3034,0,1,1,forest_8,2,memory-2step-stake-s,732,5075340,0.0-19.0-0.1-0.233,A3US4NGKXBVI48,31KPKEKW5DTYWQJ2Z73D1GA4ZNDB00,3QHK8ZVMIQYEF56IE2UYOKYFWX5BLN,3,4
234,4,object_06,object_10,958.19999999925,8,2,667.19999999925,0.3333333333333333,2,object_09,1,3037,0,3,3,restaurant_4,2,memory-2step-stake-s,733,5083596,0.0-19.0-0.1-0.234,A3US4NGKXBVI48,31KPKEKW5DTYWQJ2Z73D1GA4ZNDB00,3QHK8ZVMIQYEF56IE2UYOKYFWX5BLN,7,8
235,4,object_06,object_10,1147.5,8,2,649.19999999925,0.0,2,object_09,5,3037,0,4,0,restaurant_3,2,memory-2step-stake-s,734,5091508,0.0-19.0-0.1-0.235,A3US4NGKXBVI48,31KPKEKW5DTYWQJ2Z73D1GA4ZNDB00,3QHK8ZVMIQYEF56IE2UYOKYFWX5BLN,7,8
236,2,object_02,object_08,686.60000000149,3,2,209.69999999925,0.1111111111111111,1,object_01,5,3042,0,1,1,forest_5,2,memory-2step-stake-s,735,5099070,0.0-19.0-0.1-0.236,A3US4NGKXBVI48,31KPKEKW5DTYWQJ2Z73D1GA4ZNDB00,3QHK8ZVMIQYEF56IE2UYOKYFWX5BLN,4,3
237,2,object_02,object_08,833.30000000075,4,1,338.89999999851,0.1111111111111111,2,object_09,1,3043,0,0,1,forest_8,2,memory-2step-stake-s,736,5106773,0.0-19.0-0.1-0.237,A3US4NGKXBVI48,31KPKEKW5DTYWQJ2Z73D1GA4ZNDB00,3QHK8ZVMIQYEF56IE2UYOKYFWX5BLN,4,3
238,3,object_03,object_04,715.70000000298,5,1,422.5,0.1111111111111111,1,object_01,1,3044,0,1,3,library_2,2,memory-2step-stake-s,737,5114573,0.0-19.0-0.1-0.238,A3US4NGKXBVI48,31KPKEKW5DTYWQJ2Z73D1GA4ZNDB00,3QHK8ZVMIQYEF56IE2UYOKYFWX5BLN,5,6
239,4,object_10,object_06,667.59999999776,7,2,346.80000000075,0.1111111111111111,1,object_01,5,3049,0,1,1,restaurant_8,2,memory-2step-stake-s,738,5122296,0.0-19.0-0.1-0.239,A3US4NGKXBVI48,31KPKEKW5DTYWQJ2Z73D1GA4ZNDB00,3QHK8ZVMIQYEF56IE2UYOKYFWX5BLN,8,7
240,2,object_08,object_02,781.10000000149,4,2,534.69999999925,0.4444444444444444,2,object_09,1,3053,0,1,4,forest_5,2,memory-2step-stake-s,739,5130551,0.0-19.0-0.1-0.240,A3US4NGKXBVI48,31KPKEKW5DTYWQJ2Z73D1GA4ZNDB00,3QHK8ZVMIQYEF56IE2UYOKYFWX5BLN,3,4
241,2,object_08,object_02,601.60000000149,4,2,384.0,0.3333333333333333,2,object_09,5,3068,0,3,3,forest_8,2,memory-2step-stake-s,740,5138523,0.0-19.0-0.1-0.241,A3US4NGKXBVI48,31KPKEKW5DTYWQJ2Z73D1GA4ZNDB00,3QHK8ZVMIQYEF56IE2UYOKYFWX5BLN,3,4
242,1,object_07,object_05,696.69999999925,2,2,492.40000000224,0.5555555555555556,2,object_09,1,3073,0,1,5,desert_2,2,memory-2step-stake-s,741,5146831,0.0-19.0-0.1-0.242,A3US4NGKXBVI48,31KPKEKW5DTYWQJ2Z73D1GA4ZNDB00,3QHK8ZVMIQYEF56IE2UYOKYFWX5BLN,1,2
243,3,object_04,object_03,665.90000000224,5,2,479.59999999776,0.2222222222222222,1,object_01,5,3083,0,2,3,library_3,2,memory-2step-stake-s,742,5154809,0.0-19.0-0.1-0.243,A3US4NGKXBVI48,31KPKEKW5DTYWQJ2Z73D1GA4ZNDB00,3QHK8ZVMIQYEF56IE2UYOKYFWX5BLN,6,5
244,1,object_07,object_05,542.89999999851,1,1,301.60000000149,0.3333333333333333,1,object_01,1,3086,0,3,4,desert_6,2,memory-2step-stake-s,743,5162682,0.0-19.0-0.1-0.244,A3US4NGKXBVI48,31KPKEKW5DTYWQJ2Z73D1GA4ZNDB00,3QHK8ZVMIQYEF56IE2UYOKYFWX5BLN,1,2
245,1,object_05,object_07,516.5,2,1,280.39999999851,0.4444444444444444,2,object_09,5,3106,0,2,4,desert_2,2,memory-2step-stake-s,744,5170659,0.0-19.0-0.1-0.245,A3US4NGKXBVI48,31KPKEKW5DTYWQJ2Z73D1GA4ZNDB00,3QHK8ZVMIQYEF56IE2UYOKYFWX5BLN,2,1
246,2,object_02,object_08,726.69999999925,4,1,585.30000000075,0.4444444444444444,2,object_09,5,3126,0,1,4,forest_2,2,memory-2step-stake-s,745,5178937,0.0-19.0-0.1-0.246,A3US4NGKXBVI48,31KPKEKW5DTYWQJ2Z73D1GA4ZNDB00,3QHK8ZVMIQYEF56IE2UYOKYFWX5BLN,4,3
247,3,object_04,object_03,1189.6000000015,6,1,592.90000000224,0.5555555555555556,2,object_09,1,3131,0,4,5,library_7,2,memory-2step-stake-s,746,5187337,0.0-19.0-0.1-0.247,A3US4NGKXBVI48,31KPKEKW5DTYWQJ2Z73D1GA4ZNDB00,3QHK8ZVMIQYEF56IE2UYOKYFWX5BLN,6,5
248,2,object_02,object_08,638.59999999776,4,1,301.5,0.4444444444444444,2,object_09,5,3151,0,3,4,forest_8,2,memory-2step-stake-s,747,5195338,0.0-19.0-0.1-0.248,A3US4NGKXBVI48,31KPKEKW5DTYWQJ2Z73D1GA4ZNDB00,3QHK8ZVMIQYEF56IE2UYOKYFWX5BLN,4,3
249,4,object_06,object_10,823.40000000224,7,1,697.89999999851,0.1111111111111111,1,object_01,1,3152,0,1,9,restaurant_2,2,memory-2step-stake-s,748,5203442,0.0-19.0-0.1-0.249,A3US4NGKXBVI48,31KPKEKW5DTYWQJ2Z73D1GA4ZNDB00,3QHK8ZVMIQYEF56IE2UYOKYFWX5BLN,7,8
250,4,object_06,object_10,-1.0,-1,-1,-1.0,0.0,-,0,1,3152,0,1,8,restaurant_3,2,memory-2step-stake-s,749,5209981,0.0-19.0-0.1-0.250,A3US4NGKXBVI48,31KPKEKW5DTYWQJ2Z73D1GA4ZNDB00,3QHK8ZVMIQYEF56IE2UYOKYFWX5BLN,7,8
251,2,object_08,object_02,636.19999999925,4,2,250.90000000224,0.7777777777777778,2,object_09,5,3187,0,0,7,forest_8,2,memory-2step-stake-s,750,5218237,0.0-19.0-0.1-0.251,A3US4NGKXBVI48,31KPKEKW5DTYWQJ2Z73D1GA4ZNDB00,3QHK8ZVMIQYEF56IE2UYOKYFWX5BLN,3,4
252,3,object_03,object_04,349.5,5,1,276.40000000224,0.3333333333333333,1,object_01,1,3190,0,3,6,library_3,2,memory-2step-stake-s,751,5226102,0.0-19.0-0.1-0.252,A3US4NGKXBVI48,31KPKEKW5DTYWQJ2Z73D1GA4ZNDB00,3QHK8ZVMIQYEF56IE2UYOKYFWX5BLN,5,6
253,1,object_07,object_05,491.60000000149,2,2,287.60000000149,0.6666666666666666,2,object_09,5,3220,0,3,6,desert_3,2,memory-2step-stake-s,752,5234261,0.0-19.0-0.1-0.253,A3US4NGKXBVI48,31KPKEKW5DTYWQJ2Z73D1GA4ZNDB00,3QHK8ZVMIQYEF56IE2UYOKYFWX5BLN,1,2
254,1,object_05,object_07,597.69999999925,2,1,310.60000000149,0.6666666666666666,2,object_09,5,3250,0,0,6,desert_3,2,memory-2step-stake-s,753,5242506,0.0-19.0-0.1-0.254,A3US4NGKXBVI48,31KPKEKW5DTYWQJ2Z73D1GA4ZNDB00,3QHK8ZVMIQYEF56IE2UYOKYFWX5BLN,2,1
255,3,object_03,object_04,1041.1000000015,5,1,862.90000000224,0.2222222222222222,1,object_01,1,3252,0,2,9,library_3,2,memory-2step-stake-s,754,5250820,0.0-19.0-0.1-0.255,A3US4NGKXBVI48,31KPKEKW5DTYWQJ2Z73D1GA4ZNDB00,3QHK8ZVMIQYEF56IE2UYOKYFWX5BLN,5,6
