,state1,stim_left,stim_right,rt_1,choice1,response1,rt_2,points,state2,stim_state2,stake,score,practice,rews1,rews2,background,high_arm,trial_type,trial_index,time_elapsed,internal_node_id,subid,hitid,assignmentid,stim_left_num,stim_right_num
0,2,object_02,object_01,999.80000001192,4,2,-1.0,0.0,2,object_09,5,0,0,2,3,forest_6,1,memory-2step-stake-s,492,988990,0.0-19.0-0.0-0.0,AFKB7F09OVKV7,3SD15I2WE5AO7614M34OSYMJOYM362,3S96KQ6I9QKVDFC717NV51WWTVKTDW,3,4
1,3,object_05,object_03,892.80000001192,6,2,-1.0,0.0,2,object_09,5,0,0,1,1,library_2,1,memory-2step-stake-s,493,997517,0.0-19.0-0.0-0.1,AFKB7F09OVKV7,3SD15I2WE5AO7614M34OSYMJOYM362,3S96KQ6I9QKVDFC717NV51WWTVKTDW,5,6
2,1,object_10,object_04,972.80000001192,1,2,-1.0,0.0,1,object_08,5,0,0,3,2,desert_8,1,memory-2step-stake-s,494,1006048,0.0-19.0-0.0-0.2,AFKB7F09OVKV7,3SD15I2WE5AO7614M34OSYMJOYM362,3S96KQ6I9QKVDFC717NV51WWTVKTDW,2,1
3,2,object_01,object_02,720.19999998808,4,1,-1.0,0.0,2,object_09,1,0,0,4,6,forest_2,1,memory-2step-stake-s,495,1014564,0.0-19.0-0.0-0.3,AFKB7F09OVKV7,3SD15I2WE5AO7614M34OSYMJOYM362,3S96KQ6I9QKVDFC717NV51WWTVKTDW,4,3
4,3,object_03,object_05,1173.8999999762,6,1,-1.0,0.0,2,object_09,5,0,0,1,8,library_1,1,memory-2step-stake-s,496,1023082,0.0-19.0-0.0-0.4,AFKB7F09OVKV7,3SD15I2WE5AO7614M34OSYMJOYM362,3S96KQ6I9QKVDFC717NV51WWTVKTDW,6,5
5,3,object_05,object_03,854.30000001192,5,1,-1.0,0.0,1,object_08,5,0,0,1,8,library_1,1,memory-2step-stake-s,497,1031601,0.0-19.0-0.0-0.5,AFKB7F09OVKV7,3SD15I2WE5AO7614M34OSYMJOYM362,3S96KQ6I9QKVDFC717NV51WWTVKTDW,5,6
6,4,object_06,object_07,885.20000004768,7,1,-1.0,0.0,1,object_08,1,0,0,2,8,restaurant_3,1,memory-2step-stake-s,498,1040123,0.0-19.0-0.0-0.6,AFKB7F09OVKV7,3SD15I2WE5AO7614M34OSYMJOYM362,3S96KQ6I9QKVDFC717NV51WWTVKTDW,7,8
7,3,object_05,object_03,585.39999997616,5,1,435.19999998808,0.1111111111111111,1,object_08,5,5,0,1,8,library_2,1,memory-2step-stake-s,499,1047876,0.0-19.0-0.0-0.7,AFKB7F09OVKV7,3SD15I2WE5AO7614M34OSYMJOYM362,3S96KQ6I9QKVDFC717NV51WWTVKTDW,5,6
8,1,object_04,object_10,792.80000001192,1,1,418.80000001192,0.0,1,object_08,1,5,0,0,8,desert_5,1,memory-2step-stake-s,500,1055522,0.0-19.0-0.0-0.8,AFKB7F09OVKV7,3SD15I2WE5AO7614M34OSYMJOYM362,3S96KQ6I9QKVDFC717NV51WWTVKTDW,1,2
9,1,object_10,object_04,635.40000003576,1,2,466.20000004768,0.1111111111111111,1,object_08,1,6,0,1,8,desert_5,1,memory-2step-stake-s,501,1063305,0.0-19.0-0.0-0.9,AFKB7F09OVKV7,3SD15I2WE5AO7614M34OSYMJOYM362,3S96KQ6I9QKVDFC717NV51WWTVKTDW,2,1
10,3,object_03,object_05,939.60000002384,6,1,391.5,1.0,2,object_09,5,51,0,3,9,library_5,1,memory-2step-stake-s,502,1071835,0.0-19.0-0.0-0.10,AFKB7F09OVKV7,3SD15I2WE5AO7614M34OSYMJOYM362,3S96KQ6I9QKVDFC717NV51WWTVKTDW,6,5
11,3,object_05,object_03,1334.8999999762,5,1,513.79999995232,0.7777777777777778,1,object_08,5,86,0,7,8,library_5,1,memory-2step-stake-s,503,1080285,0.0-19.0-0.0-0.11,AFKB7F09OVKV7,3SD15I2WE5AO7614M34OSYMJOYM362,3S96KQ6I9QKVDFC717NV51WWTVKTDW,5,6
12,4,object_06,object_07,781.29999995232,7,1,376.69999998808,0.7777777777777778,1,object_08,5,121,0,7,3,restaurant_3,1,memory-2step-stake-s,504,1088594,0.0-19.0-0.0-0.12,AFKB7F09OVKV7,3SD15I2WE5AO7614M34OSYMJOYM362,3S96KQ6I9QKVDFC717NV51WWTVKTDW,7,8
13,4,object_07,object_06,632.5,7,2,508.5,0.2222222222222222,1,object_08,5,131,0,2,1,restaurant_2,1,memory-2step-stake-s,505,1096525,0.0-19.0-0.0-0.13,AFKB7F09OVKV7,3SD15I2WE5AO7614M34OSYMJOYM362,3S96KQ6I9QKVDFC717NV51WWTVKTDW,8,7
14,2,object_01,object_02,847.10000002384,4,1,442.0,0.0,2,object_09,1,131,0,0,0,forest_5,1,memory-2step-stake-s,506,1104185,0.0-19.0-0.0-0.14,AFKB7F09OVKV7,3SD15I2WE5AO7614M34OSYMJOYM362,3S96KQ6I9QKVDFC717NV51WWTVKTDW,4,3
15,3,object_03,object_05,658.10000002384,5,2,408.60000002384,0.0,1,object_08,5,131,0,0,1,library_6,1,memory-2step-stake-s,507,1111820,0.0-19.0-0.0-0.15,AFKB7F09OVKV7,3SD15I2WE5AO7614M34OSYMJOYM362,3S96KQ6I9QKVDFC717NV51WWTVKTDW,6,5
16,4,object_07,object_06,535.69999998808,8,1,368.80000001192,0.5555555555555556,2,object_09,5,156,0,0,5,restaurant_3,1,memory-2step-stake-s,508,1119917,0.0-19.0-0.0-0.16,AFKB7F09OVKV7,3SD15I2WE5AO7614M34OSYMJOYM362,3S96KQ6I9QKVDFC717NV51WWTVKTDW,8,7
17,2,object_01,object_02,590.30000001192,3,2,368.80000001192,0.2222222222222222,1,object_08,1,158,0,2,6,forest_2,1,memory-2step-stake-s,509,1127720,0.0-19.0-0.0-0.17,AFKB7F09OVKV7,3SD15I2WE5AO7614M34OSYMJOYM362,3S96KQ6I9QKVDFC717NV51WWTVKTDW,4,3
18,4,object_07,object_06,826.5,7,2,405.80000001192,0.0,1,object_08,5,158,0,0,5,restaurant_2,1,memory-2step-stake-s,510,1135339,0.0-19.0-0.0-0.18,AFKB7F09OVKV7,3SD15I2WE5AO7614M34OSYMJOYM362,3S96KQ6I9QKVDFC717NV51WWTVKTDW,8,7
19,3,object_03,object_05,631.39999997616,6,1,339.69999998808,0.6666666666666666,2,object_09,5,188,0,5,6,library_2,1,memory-2step-stake-s,511,1143521,0.0-19.0-0.0-0.19,AFKB7F09OVKV7,3SD15I2WE5AO7614M34OSYMJOYM362,3S96KQ6I9QKVDFC717NV51WWTVKTDW,6,5
20,4,object_07,object_06,858.39999997616,8,1,335.10000002384,0.1111111111111111,2,object_09,5,193,0,5,1,restaurant_1,1,memory-2step-stake-s,512,1151184,0.0-19.0-0.0-0.20,AFKB7F09OVKV7,3SD15I2WE5AO7614M34OSYMJOYM362,3S96KQ6I9QKVDFC717NV51WWTVKTDW,8,7
21,1,object_10,object_04,951.69999998808,2,1,370.69999998808,0.3333333333333333,2,object_09,5,208,0,5,3,desert_5,1,memory-2step-stake-s,513,1159079,0.0-19.0-0.0-0.21,AFKB7F09OVKV7,3SD15I2WE5AO7614M34OSYMJOYM362,3S96KQ6I9QKVDFC717NV51WWTVKTDW,2,1
22,3,object_03,object_05,805.89999997616,6,1,534.0,0.1111111111111111,2,object_09,5,213,0,5,1,library_2,1,memory-2step-stake-s,514,1166968,0.0-19.0-0.0-0.22,AFKB7F09OVKV7,3SD15I2WE5AO7614M34OSYMJOYM362,3S96KQ6I9QKVDFC717NV51WWTVKTDW,6,5
23,3,object_03,object_05,877.0,5,2,736.69999998808,0.8888888888888888,1,object_08,1,221,0,8,0,library_2,1,memory-2step-stake-s,515,1175741,0.0-19.0-0.0-0.23,AFKB7F09OVKV7,3SD15I2WE5AO7614M34OSYMJOYM362,3S96KQ6I9QKVDFC717NV51WWTVKTDW,6,5
24,3,object_05,object_03,930.5,5,1,439.19999998808,0.7777777777777778,1,object_08,5,256,0,7,1,library_6,1,memory-2step-stake-s,516,1184111,0.0-19.0-0.0-0.24,AFKB7F09OVKV7,3SD15I2WE5AO7614M34OSYMJOYM362,3S96KQ6I9QKVDFC717NV51WWTVKTDW,5,6
25,1,object_10,object_04,638.10000002384,2,1,889.79999995232,0.3333333333333333,2,object_09,1,259,0,7,3,desert_1,1,memory-2step-stake-s,517,1192528,0.0-19.0-0.0-0.25,AFKB7F09OVKV7,3SD15I2WE5AO7614M34OSYMJOYM362,3S96KQ6I9QKVDFC717NV51WWTVKTDW,2,1
26,4,object_06,object_07,643.79999995232,8,2,580.0,0.2222222222222222,2,object_09,5,269,0,6,2,restaurant_1,1,memory-2step-stake-s,518,1200540,0.0-19.0-0.0-0.26,AFKB7F09OVKV7,3SD15I2WE5AO7614M34OSYMJOYM362,3S96KQ6I9QKVDFC717NV51WWTVKTDW,7,8
27,4,object_06,object_07,747.5,8,2,389.59999996424,0.3333333333333333,2,object_09,5,284,0,8,3,restaurant_3,1,memory-2step-stake-s,519,1208472,0.0-19.0-0.0-0.27,AFKB7F09OVKV7,3SD15I2WE5AO7614M34OSYMJOYM362,3S96KQ6I9QKVDFC717NV51WWTVKTDW,7,8
28,3,object_03,object_05,636.5,6,1,584.10000002384,0.1111111111111111,2,object_09,5,289,0,9,1,library_6,1,memory-2step-stake-s,520,1216372,0.0-19.0-0.0-0.28,AFKB7F09OVKV7,3SD15I2WE5AO7614M34OSYMJOYM362,3S96KQ6I9QKVDFC717NV51WWTVKTDW,6,5
29,2,object_01,object_02,717.10000002384,3,2,712.80000001192,0.8888888888888888,1,object_08,5,329,0,8,3,forest_6,1,memory-2step-stake-s,521,1225147,0.0-19.0-0.0-0.29,AFKB7F09OVKV7,3SD15I2WE5AO7614M34OSYMJOYM362,3S96KQ6I9QKVDFC717NV51WWTVKTDW,4,3
30,3,object_05,object_03,780.09999996424,5,1,369.19999998808,0.5555555555555556,1,object_08,5,354,0,5,2,library_2,1,memory-2step-stake-s,522,1233247,0.0-19.0-0.0-0.30,AFKB7F09OVKV7,3SD15I2WE5AO7614M34OSYMJOYM362,3S96KQ6I9QKVDFC717NV51WWTVKTDW,5,6
31,4,object_06,object_07,838.5,7,1,369.90000003576,0.4444444444444444,1,object_08,5,374,0,4,2,restaurant_1,1,memory-2step-stake-s,523,1241231,0.0-19.0-0.0-0.31,AFKB7F09OVKV7,3SD15I2WE5AO7614M34OSYMJOYM362,3S96KQ6I9QKVDFC717NV51WWTVKTDW,7,8
32,3,object_05,object_03,470.89999997616,6,2,353.19999998808,0.0,2,object_09,1,374,0,5,0,library_5,1,memory-2step-stake-s,524,1248802,0.0-19.0-0.0-0.32,AFKB7F09OVKV7,3SD15I2WE5AO7614M34OSYMJOYM362,3S96KQ6I9QKVDFC717NV51WWTVKTDW,5,6
33,2,object_02,object_01,634.89999997616,3,1,533.39999997616,0.4444444444444444,1,object_08,1,378,0,4,1,forest_6,1,memory-2step-stake-s,525,1256960,0.0-19.0-0.0-0.33,AFKB7F09OVKV7,3SD15I2WE5AO7614M34OSYMJOYM362,3S96KQ6I9QKVDFC717NV51WWTVKTDW,3,4
34,1,object_10,object_04,660.60000002384,1,2,496.5,0.8888888888888888,1,object_08,5,418,0,8,1,desert_1,1,memory-2step-stake-s,526,1265493,0.0-19.0-0.0-0.34,AFKB7F09OVKV7,3SD15I2WE5AO7614M34OSYMJOYM362,3S96KQ6I9QKVDFC717NV51WWTVKTDW,2,1
35,2,object_02,object_01,583.39999997616,3,1,739.09999996424,0.6666666666666666,1,object_08,1,424,0,6,1,forest_6,1,memory-2step-stake-s,527,1274054,0.0-19.0-0.0-0.35,AFKB7F09OVKV7,3SD15I2WE5AO7614M34OSYMJOYM362,3S96KQ6I9QKVDFC717NV51WWTVKTDW,3,4
36,3,object_05,object_03,519.0,6,2,393.60000002384,0.3333333333333333,2,object_09,5,439,0,6,3,library_5,1,memory-2step-stake-s,528,1281967,0.0-19.0-0.0-0.36,AFKB7F09OVKV7,3SD15I2WE5AO7614M34OSYMJOYM362,3S96KQ6I9QKVDFC717NV51WWTVKTDW,5,6
37,2,object_01,object_02,379.5,4,1,479.60000002384,0.4444444444444444,2,object_09,1,443,0,4,4,forest_5,1,memory-2step-stake-s,529,1290072,0.0-19.0-0.0-0.37,AFKB7F09OVKV7,3SD15I2WE5AO7614M34OSYMJOYM362,3S96KQ6I9QKVDFC717NV51WWTVKTDW,4,3
38,2,object_01,object_02,723.60000002384,4,1,991.39999997616,0.2222222222222222,2,object_09,1,445,0,8,2,forest_5,1,memory-2step-stake-s,530,1298492,0.0-19.0-0.0-0.38,AFKB7F09OVKV7,3SD15I2WE5AO7614M34OSYMJOYM362,3S96KQ6I9QKVDFC717NV51WWTVKTDW,4,3
39,2,object_01,object_02,985.59999996424,3,2,485.69999998808,1.0,1,object_08,1,454,0,9,2,forest_6,1,memory-2step-stake-s,531,1307100,0.0-19.0-0.0-0.39,AFKB7F09OVKV7,3SD15I2WE5AO7614M34OSYMJOYM362,3S96KQ6I9QKVDFC717NV51WWTVKTDW,4,3
40,4,object_07,object_06,695.89999997616,7,2,395.0,0.7777777777777778,1,object_08,5,489,0,7,3,restaurant_3,1,memory-2step-stake-s,532,1315419,0.0-19.0-0.0-0.40,AFKB7F09OVKV7,3SD15I2WE5AO7614M34OSYMJOYM362,3S96KQ6I9QKVDFC717NV51WWTVKTDW,8,7
41,1,object_04,object_10,881.0,1,1,533.0,0.8888888888888888,1,object_08,1,497,0,8,4,desert_5,1,memory-2step-stake-s,533,1323986,0.0-19.0-0.0-0.41,AFKB7F09OVKV7,3SD15I2WE5AO7614M34OSYMJOYM362,3S96KQ6I9QKVDFC717NV51WWTVKTDW,1,2
42,3,object_05,object_03,713.19999998808,6,2,-1.0,0.0,2,object_09,1,497,0,8,4,library_1,1,memory-2step-stake-s,534,1332499,0.0-19.0-0.0-0.42,AFKB7F09OVKV7,3SD15I2WE5AO7614M34OSYMJOYM362,3S96KQ6I9QKVDFC717NV51WWTVKTDW,5,6
43,4,object_06,object_07,1193.4000000358,8,2,435.69999998808,0.4444444444444444,2,object_09,5,517,0,8,4,restaurant_3,1,memory-2step-stake-s,535,1340561,0.0-19.0-0.0-0.43,AFKB7F09OVKV7,3SD15I2WE5AO7614M34OSYMJOYM362,3S96KQ6I9QKVDFC717NV51WWTVKTDW,7,8
44,4,object_07,object_06,642.19999998808,8,1,560.09999996424,0.8888888888888888,2,object_09,5,557,0,8,8,restaurant_8,1,memory-2step-stake-s,536,1349144,0.0-19.0-0.0-0.44,AFKB7F09OVKV7,3SD15I2WE5AO7614M34OSYMJOYM362,3S96KQ6I9QKVDFC717NV51WWTVKTDW,8,7
45,4,object_07,object_06,698.80000001192,8,1,342.40000003576,0.8888888888888888,2,object_09,5,597,0,7,8,restaurant_2,1,memory-2step-stake-s,537,1357511,0.0-19.0-0.0-0.45,AFKB7F09OVKV7,3SD15I2WE5AO7614M34OSYMJOYM362,3S96KQ6I9QKVDFC717NV51WWTVKTDW,8,7
46,3,object_03,object_05,965.0,6,1,432.69999998808,0.5555555555555556,2,object_09,5,622,0,5,5,library_6,1,memory-2step-stake-s,538,1365669,0.0-19.0-0.0-0.46,AFKB7F09OVKV7,3SD15I2WE5AO7614M34OSYMJOYM362,3S96KQ6I9QKVDFC717NV51WWTVKTDW,6,5
47,2,object_02,object_01,687.30000001192,4,2,394.59999996424,0.8888888888888888,2,object_09,1,630,0,4,8,forest_1,1,memory-2step-stake-s,539,1374090,0.0-19.0-0.0-0.47,AFKB7F09OVKV7,3SD15I2WE5AO7614M34OSYMJOYM362,3S96KQ6I9QKVDFC717NV51WWTVKTDW,3,4
48,3,object_05,object_03,801.80000001192,6,2,468.30000001192,0.8888888888888888,2,object_09,5,670,0,6,8,library_2,1,memory-2step-stake-s,540,1382578,0.0-19.0-0.0-0.48,AFKB7F09OVKV7,3SD15I2WE5AO7614M34OSYMJOYM362,3S96KQ6I9QKVDFC717NV51WWTVKTDW,5,6
49,2,object_02,object_01,954.40000003576,3,1,531.5,0.8888888888888888,1,object_08,1,678,0,8,8,forest_6,1,memory-2step-stake-s,541,1391149,0.0-19.0-0.0-0.49,AFKB7F09OVKV7,3SD15I2WE5AO7614M34OSYMJOYM362,3S96KQ6I9QKVDFC717NV51WWTVKTDW,3,4
50,2,object_02,object_01,814.19999998808,3,1,895.19999998808,0.8888888888888888,1,object_08,1,686,0,8,5,forest_1,1,memory-2step-stake-s,542,1400070,0.0-19.0-0.0-0.50,AFKB7F09OVKV7,3SD15I2WE5AO7614M34OSYMJOYM362,3S96KQ6I9QKVDFC717NV51WWTVKTDW,3,4
51,3,object_05,object_03,853.20000004768,5,1,352.70000004768,0.8888888888888888,1,object_08,5,726,0,8,8,library_2,1,memory-2step-stake-s,543,1408458,0.0-19.0-0.0-0.51,AFKB7F09OVKV7,3SD15I2WE5AO7614M34OSYMJOYM362,3S96KQ6I9QKVDFC717NV51WWTVKTDW,5,6
52,3,object_03,object_05,553.70000004768,5,2,369.89999997616,0.5555555555555556,1,object_08,5,751,0,5,7,library_5,1,memory-2step-stake-s,544,1416550,0.0-19.0-0.0-0.52,AFKB7F09OVKV7,3SD15I2WE5AO7614M34OSYMJOYM362,3S96KQ6I9QKVDFC717NV51WWTVKTDW,6,5
53,2,object_02,object_01,501.09999996424,3,1,329.19999998808,0.3333333333333333,1,object_08,1,754,0,3,3,forest_2,1,memory-2step-stake-s,545,1424392,0.0-19.0-0.0-0.53,AFKB7F09OVKV7,3SD15I2WE5AO7614M34OSYMJOYM362,3S96KQ6I9QKVDFC717NV51WWTVKTDW,3,4
54,1,object_10,object_04,779.0,1,2,353.19999998808,0.4444444444444444,1,object_08,1,758,0,4,6,desert_2,1,memory-2step-stake-s,546,1432376,0.0-19.0-0.0-0.54,AFKB7F09OVKV7,3SD15I2WE5AO7614M34OSYMJOYM362,3S96KQ6I9QKVDFC717NV51WWTVKTDW,2,1
55,1,object_10,object_04,886.30000001192,2,1,465.10000002384,1.0,2,object_09,1,767,0,7,9,desert_8,1,memory-2step-stake-s,547,1440987,0.0-19.0-0.0-0.55,AFKB7F09OVKV7,3SD15I2WE5AO7614M34OSYMJOYM362,3S96KQ6I9QKVDFC717NV51WWTVKTDW,2,1
56,3,object_03,object_05,976.70000004768,6,1,738.39999997616,0.8888888888888888,2,object_09,1,775,0,7,8,library_2,1,memory-2step-stake-s,548,1449759,0.0-19.0-0.0-0.56,AFKB7F09OVKV7,3SD15I2WE5AO7614M34OSYMJOYM362,3S96KQ6I9QKVDFC717NV51WWTVKTDW,6,5
57,1,object_10,object_04,684.89999997616,2,1,376.19999998808,0.8888888888888888,2,object_09,1,783,0,8,8,desert_2,1,memory-2step-stake-s,549,1458158,0.0-19.0-0.0-0.57,AFKB7F09OVKV7,3SD15I2WE5AO7614M34OSYMJOYM362,3S96KQ6I9QKVDFC717NV51WWTVKTDW,2,1
58,1,object_10,object_04,806.20000004768,2,1,306.59999996424,0.7777777777777778,2,object_09,1,790,0,7,7,desert_1,1,memory-2step-stake-s,550,1466399,0.0-19.0-0.0-0.58,AFKB7F09OVKV7,3SD15I2WE5AO7614M34OSYMJOYM362,3S96KQ6I9QKVDFC717NV51WWTVKTDW,2,1
59,3,object_03,object_05,692.5,5,2,370.30000001192,0.7777777777777778,1,object_08,5,825,0,7,8,library_6,1,memory-2step-stake-s,551,1474727,0.0-19.0-0.0-0.59,AFKB7F09OVKV7,3SD15I2WE5AO7614M34OSYMJOYM362,3S96KQ6I9QKVDFC717NV51WWTVKTDW,6,5
60,4,object_06,object_07,1106.8000000119,7,1,406.19999998808,0.8888888888888888,1,object_08,5,865,0,8,8,restaurant_1,1,memory-2step-stake-s,552,1483155,0.0-19.0-0.0-0.60,AFKB7F09OVKV7,3SD15I2WE5AO7614M34OSYMJOYM362,3S96KQ6I9QKVDFC717NV51WWTVKTDW,7,8
61,1,object_10,object_04,917.89999997616,1,2,416.10000002384,0.6666666666666666,1,object_08,1,871,0,6,6,desert_2,1,memory-2step-stake-s,553,1491401,0.0-19.0-0.0-0.61,AFKB7F09OVKV7,3SD15I2WE5AO7614M34OSYMJOYM362,3S96KQ6I9QKVDFC717NV51WWTVKTDW,2,1
62,2,object_01,object_02,497.29999995232,3,2,316.39999997616,1.0,1,object_08,5,916,0,9,4,forest_1,1,memory-2step-stake-s,554,1499853,0.0-19.0-0.0-0.62,AFKB7F09OVKV7,3SD15I2WE5AO7614M34OSYMJOYM362,3S96KQ6I9QKVDFC717NV51WWTVKTDW,4,3
63,4,object_07,object_06,910.20000004768,7,2,553.0,1.0,1,object_08,5,961,0,9,4,restaurant_8,1,memory-2step-stake-s,555,1508530,0.0-19.0-0.0-0.63,AFKB7F09OVKV7,3SD15I2WE5AO7614M34OSYMJOYM362,3S96KQ6I9QKVDFC717NV51WWTVKTDW,8,7
64,4,object_06,object_07,1089.8000000119,7,1,355.89999997616,0.6666666666666666,1,object_08,1,967,0,6,1,restaurant_2,1,memory-2step-stake-s,556,1516724,0.0-19.0-0.0-0.64,AFKB7F09OVKV7,3SD15I2WE5AO7614M34OSYMJOYM362,3S96KQ6I9QKVDFC717NV51WWTVKTDW,7,8
65,3,object_03,object_05,1157.3999999762,6,1,377.30000001192,0.3333333333333333,2,object_09,5,982,0,8,3,library_6,1,memory-2step-stake-s,557,1524621,0.0-19.0-0.0-0.65,AFKB7F09OVKV7,3SD15I2WE5AO7614M34OSYMJOYM362,3S96KQ6I9QKVDFC717NV51WWTVKTDW,6,5
66,3,object_03,object_05,694.89999997616,5,2,353.19999998808,0.8888888888888888,1,object_08,5,1022,0,8,4,library_2,1,memory-2step-stake-s,558,1533014,0.0-19.0-0.0-0.66,AFKB7F09OVKV7,3SD15I2WE5AO7614M34OSYMJOYM362,3S96KQ6I9QKVDFC717NV51WWTVKTDW,6,5
67,3,object_05,object_03,548.5,5,1,576.19999998808,0.8888888888888888,1,object_08,5,1062,0,8,0,library_5,1,memory-2step-stake-s,559,1541624,0.0-19.0-0.0-0.67,AFKB7F09OVKV7,3SD15I2WE5AO7614M34OSYMJOYM362,3S96KQ6I9QKVDFC717NV51WWTVKTDW,5,6
68,3,object_03,object_05,674.89999997616,5,2,292.5,0.8888888888888888,1,object_08,5,1102,0,8,2,library_6,1,memory-2step-stake-s,560,1549941,0.0-19.0-0.0-0.68,AFKB7F09OVKV7,3SD15I2WE5AO7614M34OSYMJOYM362,3S96KQ6I9QKVDFC717NV51WWTVKTDW,6,5
69,1,object_04,object_10,769.5,2,2,1013.1999999881,0.3333333333333333,2,object_09,1,1105,0,9,3,desert_1,1,memory-2step-stake-s,561,1558476,0.0-19.0-0.0-0.69,AFKB7F09OVKV7,3SD15I2WE5AO7614M34OSYMJOYM362,3S96KQ6I9QKVDFC717NV51WWTVKTDW,1,2
70,2,object_02,object_01,590.39999997616,4,2,520.60000002384,0.3333333333333333,2,object_09,1,1108,0,8,3,forest_1,1,memory-2step-stake-s,562,1566535,0.0-19.0-0.0-0.70,AFKB7F09OVKV7,3SD15I2WE5AO7614M34OSYMJOYM362,3S96KQ6I9QKVDFC717NV51WWTVKTDW,3,4
71,3,object_03,object_05,740.20000004768,5,2,328.5,0.7777777777777778,1,object_08,5,1143,0,7,2,library_2,1,memory-2step-stake-s,563,1574792,0.0-19.0-0.0-0.71,AFKB7F09OVKV7,3SD15I2WE5AO7614M34OSYMJOYM362,3S96KQ6I9QKVDFC717NV51WWTVKTDW,6,5
72,2,object_01,object_02,435.59999996424,3,2,422.80000001192,0.8888888888888888,1,object_08,5,1183,0,8,5,forest_1,1,memory-2step-stake-s,564,1583242,0.0-19.0-0.0-0.72,AFKB7F09OVKV7,3SD15I2WE5AO7614M34OSYMJOYM362,3S96KQ6I9QKVDFC717NV51WWTVKTDW,4,3
73,4,object_06,object_07,1056.8000000119,7,1,404.80000001192,0.8888888888888888,1,object_08,5,1223,0,8,4,restaurant_1,1,memory-2step-stake-s,565,1591688,0.0-19.0-0.0-0.73,AFKB7F09OVKV7,3SD15I2WE5AO7614M34OSYMJOYM362,3S96KQ6I9QKVDFC717NV51WWTVKTDW,7,8
74,3,object_03,object_05,908.69999998808,6,1,356.40000003576,0.1111111111111111,2,object_09,1,1224,0,7,1,library_5,1,memory-2step-stake-s,566,1599367,0.0-19.0-0.0-0.74,AFKB7F09OVKV7,3SD15I2WE5AO7614M34OSYMJOYM362,3S96KQ6I9QKVDFC717NV51WWTVKTDW,6,5
75,3,object_03,object_05,745.59999996424,5,2,308.39999997616,0.5555555555555556,1,object_08,5,1249,0,5,1,library_1,1,memory-2step-stake-s,567,1607405,0.0-19.0-0.0-0.75,AFKB7F09OVKV7,3SD15I2WE5AO7614M34OSYMJOYM362,3S96KQ6I9QKVDFC717NV51WWTVKTDW,6,5
76,4,object_06,object_07,577.0,7,1,484.5,0.4444444444444444,1,object_08,5,1269,0,4,5,restaurant_3,1,memory-2step-stake-s,568,1615519,0.0-19.0-0.0-0.76,AFKB7F09OVKV7,3SD15I2WE5AO7614M34OSYMJOYM362,3S96KQ6I9QKVDFC717NV51WWTVKTDW,7,8
77,4,object_06,object_07,834.89999997616,8,2,373.10000002384,0.5555555555555556,2,object_09,5,1294,0,3,5,restaurant_1,1,memory-2step-stake-s,569,1623625,0.0-19.0-0.0-0.77,AFKB7F09OVKV7,3SD15I2WE5AO7614M34OSYMJOYM362,3S96KQ6I9QKVDFC717NV51WWTVKTDW,7,8
78,1,object_10,object_04,873.29999995232,2,1,300.89999997616,0.2222222222222222,2,object_09,5,1304,0,4,2,desert_8,1,memory-2step-stake-s,570,1631342,0.0-19.0-0.0-0.78,AFKB7F09OVKV7,3SD15I2WE5AO7614M34OSYMJOYM362,3S96KQ6I9QKVDFC717NV51WWTVKTDW,2,1
79,3,object_03,object_05,845.0,5,2,360.19999998808,0.3333333333333333,1,object_08,5,1319,0,3,0,library_1,1,memory-2step-stake-s,571,1639220,0.0-19.0-0.0-0.79,AFKB7F09OVKV7,3SD15I2WE5AO7614M34OSYMJOYM362,3S96KQ6I9QKVDFC717NV51WWTVKTDW,6,5
80,3,object_03,object_05,756.30000001192,6,1,415.40000003576,0.0,2,object_09,5,1319,0,2,0,library_5,1,memory-2step-stake-s,572,1646867,0.0-19.0-0.0-0.80,AFKB7F09OVKV7,3SD15I2WE5AO7614M34OSYMJOYM362,3S96KQ6I9QKVDFC717NV51WWTVKTDW,6,5
81,1,object_04,object_10,1200.3000000119,2,2,354.30000001192,0.3333333333333333,2,object_09,5,1334,0,2,3,desert_8,1,memory-2step-stake-s,573,1654772,0.0-19.0-0.0-0.81,AFKB7F09OVKV7,3SD15I2WE5AO7614M34OSYMJOYM362,3S96KQ6I9QKVDFC717NV51WWTVKTDW,1,2
82,3,object_03,object_05,779.5,6,1,331.40000003576,0.3333333333333333,2,object_09,5,1349,0,0,3,library_6,1,memory-2step-stake-s,574,1662643,0.0-19.0-0.0-0.82,AFKB7F09OVKV7,3SD15I2WE5AO7614M34OSYMJOYM362,3S96KQ6I9QKVDFC717NV51WWTVKTDW,6,5
83,2,object_02,object_01,506.30000001192,3,1,11.600000023842,0.1111111111111111,1,object_08,1,1350,0,1,2,forest_5,1,memory-2step-stake-s,575,1669970,0.0-19.0-0.0-0.83,AFKB7F09OVKV7,3SD15I2WE5AO7614M34OSYMJOYM362,3S96KQ6I9QKVDFC717NV51WWTVKTDW,3,4
84,1,object_04,object_10,856.80000001192,2,2,371.10000002384,0.1111111111111111,2,object_09,1,1351,0,1,1,desert_1,1,memory-2step-stake-s,576,1677660,0.0-19.0-0.0-0.84,AFKB7F09OVKV7,3SD15I2WE5AO7614M34OSYMJOYM362,3S96KQ6I9QKVDFC717NV51WWTVKTDW,1,2
85,1,object_04,object_10,520.0,1,1,312.39999997616,0.1111111111111111,1,object_08,1,1352,0,1,3,desert_2,1,memory-2step-stake-s,577,1685290,0.0-19.0-0.0-0.85,AFKB7F09OVKV7,3SD15I2WE5AO7614M34OSYMJOYM362,3S96KQ6I9QKVDFC717NV51WWTVKTDW,1,2
86,1,object_04,object_10,874.0,2,2,573.30000001192,0.0,2,object_09,1,1352,0,1,0,desert_1,1,memory-2step-stake-s,578,1693078,0.0-19.0-0.0-0.86,AFKB7F09OVKV7,3SD15I2WE5AO7614M34OSYMJOYM362,3S96KQ6I9QKVDFC717NV51WWTVKTDW,1,2
87,2,object_01,object_02,759.30000001192,3,2,354.0,0.3333333333333333,1,object_08,1,1355,0,3,1,forest_2,1,memory-2step-stake-s,579,1700958,0.0-19.0-0.0-0.87,AFKB7F09OVKV7,3SD15I2WE5AO7614M34OSYMJOYM362,3S96KQ6I9QKVDFC717NV51WWTVKTDW,4,3
88,4,object_07,object_06,717.19999998808,7,2,463.80000001192,0.0,1,object_08,5,1355,0,0,1,restaurant_8,1,memory-2step-stake-s,580,1708638,0.0-19.0-0.0-0.88,AFKB7F09OVKV7,3SD15I2WE5AO7614M34OSYMJOYM362,3S96KQ6I9QKVDFC717NV51WWTVKTDW,8,7
89,1,object_10,object_04,981.89999997616,2,1,320.39999997616,0.2222222222222222,2,object_09,1,1357,0,2,2,desert_1,1,memory-2step-stake-s,581,1716391,0.0-19.0-0.0-0.89,AFKB7F09OVKV7,3SD15I2WE5AO7614M34OSYMJOYM362,3S96KQ6I9QKVDFC717NV51WWTVKTDW,2,1
90,1,object_10,object_04,1099.1999999881,2,1,319.29999995232,0.3333333333333333,2,object_09,5,1372,0,1,3,desert_5,1,memory-2step-stake-s,582,1724227,0.0-19.0-0.0-0.90,AFKB7F09OVKV7,3SD15I2WE5AO7614M34OSYMJOYM362,3S96KQ6I9QKVDFC717NV51WWTVKTDW,2,1
91,2,object_01,object_02,736.90000003576,4,1,368.79999995232,0.3333333333333333,2,object_09,1,1375,0,1,3,forest_5,1,memory-2step-stake-s,583,1732117,0.0-19.0-0.0-0.91,AFKB7F09OVKV7,3SD15I2WE5AO7614M34OSYMJOYM362,3S96KQ6I9QKVDFC717NV51WWTVKTDW,4,3
92,1,object_04,object_10,1065.8999999762,2,2,311.09999996424,0.4444444444444444,2,object_09,5,1395,0,1,4,desert_1,1,memory-2step-stake-s,584,1740074,0.0-19.0-0.0-0.92,AFKB7F09OVKV7,3SD15I2WE5AO7614M34OSYMJOYM362,3S96KQ6I9QKVDFC717NV51WWTVKTDW,1,2
93,2,object_02,object_01,578.80000001192,4,2,444.09999996424,0.5555555555555556,2,object_09,1,1400,0,2,5,forest_1,1,memory-2step-stake-s,585,1748248,0.0-19.0-0.0-0.93,AFKB7F09OVKV7,3SD15I2WE5AO7614M34OSYMJOYM362,3S96KQ6I9QKVDFC717NV51WWTVKTDW,3,4
94,4,object_06,object_07,691.0,8,2,-1.0,0.0,2,object_09,5,1400,0,2,4,restaurant_2,1,memory-2step-stake-s,586,1756761,0.0-19.0-0.0-0.94,AFKB7F09OVKV7,3SD15I2WE5AO7614M34OSYMJOYM362,3S96KQ6I9QKVDFC717NV51WWTVKTDW,7,8
95,3,object_03,object_05,801.5,5,2,301.60000002384,0.1111111111111111,1,object_08,5,1405,0,1,6,library_6,1,memory-2step-stake-s,587,1764375,0.0-19.0-0.0-0.95,AFKB7F09OVKV7,3SD15I2WE5AO7614M34OSYMJOYM362,3S96KQ6I9QKVDFC717NV51WWTVKTDW,6,5
96,1,object_10,object_04,756.90000003576,2,1,295.0,0.6666666666666666,2,object_09,5,1435,0,1,6,desert_5,1,memory-2step-stake-s,588,1772500,0.0-19.0-0.0-0.96,AFKB7F09OVKV7,3SD15I2WE5AO7614M34OSYMJOYM362,3S96KQ6I9QKVDFC717NV51WWTVKTDW,2,1
97,3,object_03,object_05,-1.0,-1,-1,-1.0,0.0,-,0,5,1435,0,1,3,library_5,1,memory-2step-stake-s,589,1779022,0.0-19.0-0.0-0.97,AFKB7F09OVKV7,3SD15I2WE5AO7614M34OSYMJOYM362,3S96KQ6I9QKVDFC717NV51WWTVKTDW,6,5
98,2,object_02,object_01,372.20000004768,3,1,398.60000002384,0.1111111111111111,1,object_08,1,1436,0,1,3,forest_6,1,memory-2step-stake-s,590,1786744,0.0-19.0-0.0-0.98,AFKB7F09OVKV7,3SD15I2WE5AO7614M34OSYMJOYM362,3S96KQ6I9QKVDFC717NV51WWTVKTDW,3,4
99,2,object_02,object_01,875.69999998808,4,2,318.70000004768,0.1111111111111111,2,object_09,1,1437,0,2,1,forest_5,1,memory-2step-stake-s,591,1794376,0.0-19.0-0.0-0.99,AFKB7F09OVKV7,3SD15I2WE5AO7614M34OSYMJOYM362,3S96KQ6I9QKVDFC717NV51WWTVKTDW,3,4
100,3,object_03,object_05,592.29999995232,6,1,299.0,0.2222222222222222,2,object_09,5,1447,0,1,2,library_1,1,memory-2step-stake-s,592,1802096,0.0-19.0-0.0-0.100,AFKB7F09OVKV7,3SD15I2WE5AO7614M34OSYMJOYM362,3S96KQ6I9QKVDFC717NV51WWTVKTDW,6,5
101,1,object_10,object_04,698.89999997616,1,2,326.09999996424,0.2222222222222222,1,object_08,1,1449,0,2,1,desert_2,1,memory-2step-stake-s,593,1809838,0.0-19.0-0.0-0.101,AFKB7F09OVKV7,3SD15I2WE5AO7614M34OSYMJOYM362,3S96KQ6I9QKVDFC717NV51WWTVKTDW,2,1
102,4,object_07,object_06,784.10000002384,8,1,338.10000002384,0.2222222222222222,2,object_09,5,1459,0,8,2,restaurant_1,1,memory-2step-stake-s,594,1817598,0.0-19.0-0.0-0.102,AFKB7F09OVKV7,3SD15I2WE5AO7614M34OSYMJOYM362,3S96KQ6I9QKVDFC717NV51WWTVKTDW,8,7
103,2,object_02,object_01,734.10000002384,4,2,376.90000003576,0.3333333333333333,2,object_09,5,1474,0,9,3,forest_1,1,memory-2step-stake-s,595,1825505,0.0-19.0-0.0-0.103,AFKB7F09OVKV7,3SD15I2WE5AO7614M34OSYMJOYM362,3S96KQ6I9QKVDFC717NV51WWTVKTDW,3,4
104,1,object_04,object_10,809.30000001192,1,1,379.09999996424,0.8888888888888888,1,object_08,1,1482,0,8,1,desert_2,1,memory-2step-stake-s,596,1833918,0.0-19.0-0.0-0.104,AFKB7F09OVKV7,3SD15I2WE5AO7614M34OSYMJOYM362,3S96KQ6I9QKVDFC717NV51WWTVKTDW,1,2
105,4,object_07,object_06,900.10000002384,7,2,327.29999995232,0.8888888888888888,1,object_08,1,1490,0,8,1,restaurant_2,1,memory-2step-stake-s,597,1842290,0.0-19.0-0.0-0.105,AFKB7F09OVKV7,3SD15I2WE5AO7614M34OSYMJOYM362,3S96KQ6I9QKVDFC717NV51WWTVKTDW,8,7
106,2,object_01,object_02,448.5,3,2,377.69999998808,0.4444444444444444,1,object_08,1,1494,0,4,0,forest_2,1,memory-2step-stake-s,598,1850303,0.0-19.0-0.0-0.106,AFKB7F09OVKV7,3SD15I2WE5AO7614M34OSYMJOYM362,3S96KQ6I9QKVDFC717NV51WWTVKTDW,4,3
107,4,object_07,object_06,654.90000003576,7,2,313.70000004768,0.6666666666666666,1,object_08,5,1524,0,6,2,restaurant_2,1,memory-2step-stake-s,599,1858441,0.0-19.0-0.0-0.107,AFKB7F09OVKV7,3SD15I2WE5AO7614M34OSYMJOYM362,3S96KQ6I9QKVDFC717NV51WWTVKTDW,8,7
108,4,object_07,object_06,676.39999997616,7,2,1183.6000000238,0.7777777777777778,1,object_08,5,1559,0,7,4,restaurant_8,1,memory-2step-stake-s,600,1867553,0.0-19.0-0.0-0.108,AFKB7F09OVKV7,3SD15I2WE5AO7614M34OSYMJOYM362,3S96KQ6I9QKVDFC717NV51WWTVKTDW,8,7
109,4,object_07,object_06,651.09999996424,7,2,463.10000002384,0.8888888888888888,1,object_08,1,1567,0,8,2,restaurant_2,1,memory-2step-stake-s,601,1876037,0.0-19.0-0.0-0.109,AFKB7F09OVKV7,3SD15I2WE5AO7614M34OSYMJOYM362,3S96KQ6I9QKVDFC717NV51WWTVKTDW,8,7
110,1,object_04,object_10,743.19999998808,2,2,304.69999998808,0.3333333333333333,2,object_09,1,1570,0,9,3,desert_1,1,memory-2step-stake-s,602,1883877,0.0-19.0-0.0-0.110,AFKB7F09OVKV7,3SD15I2WE5AO7614M34OSYMJOYM362,3S96KQ6I9QKVDFC717NV51WWTVKTDW,1,2
111,4,object_06,object_07,775.40000003576,7,1,307.09999996424,1.0,1,object_08,5,1615,0,9,5,restaurant_8,1,memory-2step-stake-s,603,1892305,0.0-19.0-0.0-0.111,AFKB7F09OVKV7,3SD15I2WE5AO7614M34OSYMJOYM362,3S96KQ6I9QKVDFC717NV51WWTVKTDW,7,8
112,1,object_10,object_04,794.90000003576,2,1,325.09999996424,0.3333333333333333,2,object_09,1,1618,0,7,3,desert_5,1,memory-2step-stake-s,604,1900146,0.0-19.0-0.0-0.112,AFKB7F09OVKV7,3SD15I2WE5AO7614M34OSYMJOYM362,3S96KQ6I9QKVDFC717NV51WWTVKTDW,2,1
113,2,object_01,object_02,504.10000002384,3,2,347.69999998808,0.6666666666666666,1,object_08,1,1624,0,6,0,forest_5,1,memory-2step-stake-s,605,1908321,0.0-19.0-0.0-0.113,AFKB7F09OVKV7,3SD15I2WE5AO7614M34OSYMJOYM362,3S96KQ6I9QKVDFC717NV51WWTVKTDW,4,3
114,2,object_02,object_01,1259.8000000119,3,1,598.5,0.7777777777777778,1,object_08,1,1631,0,7,2,forest_6,1,memory-2step-stake-s,606,1916852,0.0-19.0-0.0-0.114,AFKB7F09OVKV7,3SD15I2WE5AO7614M34OSYMJOYM362,3S96KQ6I9QKVDFC717NV51WWTVKTDW,3,4
115,1,object_04,object_10,805.0,1,1,173.89999997616,0.8888888888888888,1,object_08,1,1639,0,8,3,desert_8,1,memory-2step-stake-s,607,1925063,0.0-19.0-0.0-0.115,AFKB7F09OVKV7,3SD15I2WE5AO7614M34OSYMJOYM362,3S96KQ6I9QKVDFC717NV51WWTVKTDW,1,2
116,1,object_10,object_04,925.39999997616,1,2,344.10000002384,1.0,1,object_08,1,1648,0,9,4,desert_2,1,memory-2step-stake-s,608,1933539,0.0-19.0-0.0-0.116,AFKB7F09OVKV7,3SD15I2WE5AO7614M34OSYMJOYM362,3S96KQ6I9QKVDFC717NV51WWTVKTDW,2,1
117,4,object_07,object_06,812.10000002384,7,2,505.10000002384,0.8888888888888888,1,object_08,5,1688,0,8,4,restaurant_3,1,memory-2step-stake-s,609,1942072,0.0-19.0-0.0-0.117,AFKB7F09OVKV7,3SD15I2WE5AO7614M34OSYMJOYM362,3S96KQ6I9QKVDFC717NV51WWTVKTDW,8,7
118,3,object_03,object_05,826.20000004768,6,1,307.89999997616,0.2222222222222222,2,object_09,1,1690,0,9,2,library_2,1,memory-2step-stake-s,610,1949810,0.0-19.0-0.0-0.118,AFKB7F09OVKV7,3SD15I2WE5AO7614M34OSYMJOYM362,3S96KQ6I9QKVDFC717NV51WWTVKTDW,6,5
119,2,object_02,object_01,631.69999998808,3,1,282.0,0.8888888888888888,1,object_08,1,1698,0,8,4,forest_1,1,memory-2step-stake-s,611,1958132,0.0-19.0-0.0-0.119,AFKB7F09OVKV7,3SD15I2WE5AO7614M34OSYMJOYM362,3S96KQ6I9QKVDFC717NV51WWTVKTDW,3,4
120,1,object_04,object_10,711.80000001192,1,1,427.0,0.6666666666666666,1,object_08,1,1704,0,6,6,desert_2,1,memory-2step-stake-s,612,1966385,0.0-19.0-0.0-0.120,AFKB7F09OVKV7,3SD15I2WE5AO7614M34OSYMJOYM362,3S96KQ6I9QKVDFC717NV51WWTVKTDW,1,2
121,1,object_04,object_10,809.89999997616,1,1,524.5,0.1111111111111111,1,object_08,1,1705,0,1,5,desert_8,1,memory-2step-stake-s,613,1974242,0.0-19.0-0.0-0.121,AFKB7F09OVKV7,3SD15I2WE5AO7614M34OSYMJOYM362,3S96KQ6I9QKVDFC717NV51WWTVKTDW,1,2
122,4,object_06,object_07,784.70000004768,7,1,330.80000001192,0.4444444444444444,1,object_08,5,1725,0,4,4,restaurant_2,1,memory-2step-stake-s,614,1982196,0.0-19.0-0.0-0.122,AFKB7F09OVKV7,3SD15I2WE5AO7614M34OSYMJOYM362,3S96KQ6I9QKVDFC717NV51WWTVKTDW,7,8
123,1,object_04,object_10,623.60000002384,2,2,275.5,0.4444444444444444,2,object_09,1,1729,0,3,4,desert_2,1,memory-2step-stake-s,615,1990090,0.0-19.0-0.0-0.123,AFKB7F09OVKV7,3SD15I2WE5AO7614M34OSYMJOYM362,3S96KQ6I9QKVDFC717NV51WWTVKTDW,1,2
124,4,object_06,object_07,675.69999998808,8,2,356.89999997616,0.2222222222222222,2,object_09,5,1739,0,1,2,restaurant_8,1,memory-2step-stake-s,616,1997897,0.0-19.0-0.0-0.124,AFKB7F09OVKV7,3SD15I2WE5AO7614M34OSYMJOYM362,3S96KQ6I9QKVDFC717NV51WWTVKTDW,7,8
125,3,object_03,object_05,1018.7000000477,5,2,574.60000002384,0.1111111111111111,1,object_08,5,1744,0,1,5,library_6,1,memory-2step-stake-s,617,2005802,0.0-19.0-0.0-0.125,AFKB7F09OVKV7,3SD15I2WE5AO7614M34OSYMJOYM362,3S96KQ6I9QKVDFC717NV51WWTVKTDW,6,5
126,1,object_04,object_10,938.10000002384,2,2,148.59999996424,0.4444444444444444,2,object_09,1,1748,0,2,4,desert_8,1,memory-2step-stake-s,618,2013575,0.0-19.0-0.0-0.126,AFKB7F09OVKV7,3SD15I2WE5AO7614M34OSYMJOYM362,3S96KQ6I9QKVDFC717NV51WWTVKTDW,1,2
127,2,object_02,object_01,858.10000002384,4,2,397.0,0.5555555555555556,2,object_09,1,1753,0,0,5,forest_6,1,memory-2step-stake-s,619,2021720,0.0-19.0-0.0-0.127,AFKB7F09OVKV7,3SD15I2WE5AO7614M34OSYMJOYM362,3S96KQ6I9QKVDFC717NV51WWTVKTDW,3,4
128,2,object_02,object_01,988.30000001192,4,2,600.69999998808,0.8888888888888888,2,object_09,5,1793,0,2,8,forest_6,1,memory-2step-stake-s,621,2286055,0.0-19.0-0.1-0.128,AFKB7F09OVKV7,3SD15I2WE5AO7614M34OSYMJOYM362,3S96KQ6I9QKVDFC717NV51WWTVKTDW,3,4
129,2,object_01,object_02,774.90000003576,4,1,371.40000003576,0.6666666666666666,2,object_09,1,1799,0,6,6,forest_5,1,memory-2step-stake-s,622,2294269,0.0-19.0-0.1-0.129,AFKB7F09OVKV7,3SD15I2WE5AO7614M34OSYMJOYM362,3S96KQ6I9QKVDFC717NV51WWTVKTDW,4,3
130,2,object_02,object_01,702.0,4,2,303.69999998808,0.4444444444444444,2,object_09,5,1819,0,3,4,forest_6,1,memory-2step-stake-s,623,2302200,0.0-19.0-0.1-0.130,AFKB7F09OVKV7,3SD15I2WE5AO7614M34OSYMJOYM362,3S96KQ6I9QKVDFC717NV51WWTVKTDW,3,4
131,2,object_02,object_01,371.30000001192,4,2,269.30000001192,0.0,2,object_09,1,1819,0,5,0,forest_5,1,memory-2step-stake-s,624,2309684,0.0-19.0-0.1-0.131,AFKB7F09OVKV7,3SD15I2WE5AO7614M34OSYMJOYM362,3S96KQ6I9QKVDFC717NV51WWTVKTDW,3,4
132,2,object_01,object_02,655.30000001192,4,1,275.0,0.3333333333333333,2,object_09,1,1822,0,2,3,forest_2,1,memory-2step-stake-s,625,2317490,0.0-19.0-0.1-0.132,AFKB7F09OVKV7,3SD15I2WE5AO7614M34OSYMJOYM362,3S96KQ6I9QKVDFC717NV51WWTVKTDW,4,3
133,2,object_02,object_01,641.89999997616,4,2,411.89999997616,0.2222222222222222,2,object_09,1,1824,0,4,2,forest_1,1,memory-2step-stake-s,626,2325327,0.0-19.0-0.1-0.133,AFKB7F09OVKV7,3SD15I2WE5AO7614M34OSYMJOYM362,3S96KQ6I9QKVDFC717NV51WWTVKTDW,3,4
134,1,object_10,object_04,1195.0999999642,2,1,551.0,0.2222222222222222,2,object_09,1,1826,0,4,2,desert_2,1,memory-2step-stake-s,627,2333295,0.0-19.0-0.1-0.134,AFKB7F09OVKV7,3SD15I2WE5AO7614M34OSYMJOYM362,3S96KQ6I9QKVDFC717NV51WWTVKTDW,2,1
135,2,object_02,object_01,530.30000001192,3,1,309.19999998808,0.5555555555555556,1,object_08,5,1851,0,5,0,forest_2,1,memory-2step-stake-s,628,2341329,0.0-19.0-0.1-0.135,AFKB7F09OVKV7,3SD15I2WE5AO7614M34OSYMJOYM362,3S96KQ6I9QKVDFC717NV51WWTVKTDW,3,4
136,1,object_04,object_10,881.5,1,1,635.89999997616,0.5555555555555556,1,object_08,1,1856,0,5,3,desert_8,1,memory-2step-stake-s,629,2349688,0.0-19.0-0.1-0.136,AFKB7F09OVKV7,3SD15I2WE5AO7614M34OSYMJOYM362,3S96KQ6I9QKVDFC717NV51WWTVKTDW,1,2
137,2,object_01,object_02,676.90000003576,3,2,385.5,0.5555555555555556,1,object_08,1,1861,0,5,5,forest_1,1,memory-2step-stake-s,630,2357825,0.0-19.0-0.1-0.137,AFKB7F09OVKV7,3SD15I2WE5AO7614M34OSYMJOYM362,3S96KQ6I9QKVDFC717NV51WWTVKTDW,4,3
138,4,object_07,object_06,996.09999996424,7,2,476.10000002384,0.1111111111111111,1,object_08,5,1866,0,1,4,restaurant_1,1,memory-2step-stake-s,631,2365636,0.0-19.0-0.1-0.138,AFKB7F09OVKV7,3SD15I2WE5AO7614M34OSYMJOYM362,3S96KQ6I9QKVDFC717NV51WWTVKTDW,8,7
139,3,object_05,object_03,1093.3000000119,5,1,-1.0,0.0,1,object_08,5,1866,0,4,2,library_1,1,memory-2step-stake-s,632,2374153,0.0-19.0-0.1-0.139,AFKB7F09OVKV7,3SD15I2WE5AO7614M34OSYMJOYM362,3S96KQ6I9QKVDFC717NV51WWTVKTDW,5,6
140,1,object_10,object_04,-1.0,-1,-1,-1.0,0.0,-,0,1,1866,0,0,3,desert_2,1,memory-2step-stake-s,633,2380670,0.0-19.0-0.1-0.140,AFKB7F09OVKV7,3SD15I2WE5AO7614M34OSYMJOYM362,3S96KQ6I9QKVDFC717NV51WWTVKTDW,2,1
141,1,object_10,object_04,725.89999997616,1,2,1055.8000000119,0.1111111111111111,1,object_08,1,1867,0,1,2,desert_5,1,memory-2step-stake-s,634,2389040,0.0-19.0-0.1-0.141,AFKB7F09OVKV7,3SD15I2WE5AO7614M34OSYMJOYM362,3S96KQ6I9QKVDFC717NV51WWTVKTDW,2,1
142,4,object_07,object_06,-1.0,-1,-1,-1.0,0.0,-,0,5,1867,0,2,1,restaurant_2,1,memory-2step-stake-s,635,2395550,0.0-19.0-0.1-0.142,AFKB7F09OVKV7,3SD15I2WE5AO7614M34OSYMJOYM362,3S96KQ6I9QKVDFC717NV51WWTVKTDW,8,7
143,4,object_07,object_06,565.39999997616,7,2,313.19999998808,0.1111111111111111,1,object_08,1,1868,0,1,3,restaurant_1,1,memory-2step-stake-s,636,2403177,0.0-19.0-0.1-0.143,AFKB7F09OVKV7,3SD15I2WE5AO7614M34OSYMJOYM362,3S96KQ6I9QKVDFC717NV51WWTVKTDW,8,7
144,1,object_10,object_04,467.60000002384,2,1,237.69999998808,0.3333333333333333,2,object_09,5,1883,0,1,3,desert_5,1,memory-2step-stake-s,637,2410934,0.0-19.0-0.1-0.144,AFKB7F09OVKV7,3SD15I2WE5AO7614M34OSYMJOYM362,3S96KQ6I9QKVDFC717NV51WWTVKTDW,2,1
145,2,object_01,object_02,847.59999996424,4,1,545.0,0.6666666666666666,2,object_09,1,1889,0,4,6,forest_1,1,memory-2step-stake-s,638,2419302,0.0-19.0-0.1-0.145,AFKB7F09OVKV7,3SD15I2WE5AO7614M34OSYMJOYM362,3S96KQ6I9QKVDFC717NV51WWTVKTDW,4,3
146,4,object_07,object_06,716.39999997616,8,1,350.59999996424,0.4444444444444444,2,object_09,1,1893,0,1,4,restaurant_1,1,memory-2step-stake-s,639,2427275,0.0-19.0-0.1-0.146,AFKB7F09OVKV7,3SD15I2WE5AO7614M34OSYMJOYM362,3S96KQ6I9QKVDFC717NV51WWTVKTDW,8,7
147,3,object_05,object_03,767.69999998808,6,2,306.5,0.3333333333333333,2,object_09,1,1896,0,1,3,library_1,1,memory-2step-stake-s,640,2435100,0.0-19.0-0.1-0.147,AFKB7F09OVKV7,3SD15I2WE5AO7614M34OSYMJOYM362,3S96KQ6I9QKVDFC717NV51WWTVKTDW,5,6
148,2,object_02,object_01,729.40000003576,4,2,392.0,0.3333333333333333,2,object_09,1,1899,0,0,3,forest_1,1,memory-2step-stake-s,641,2443012,0.0-19.0-0.1-0.148,AFKB7F09OVKV7,3SD15I2WE5AO7614M34OSYMJOYM362,3S96KQ6I9QKVDFC717NV51WWTVKTDW,3,4
149,1,object_04,object_10,1016.0,1,1,274.0,0.1111111111111111,1,object_08,1,1900,0,1,2,desert_2,1,memory-2step-stake-s,642,2450614,0.0-19.0-0.1-0.149,AFKB7F09OVKV7,3SD15I2WE5AO7614M34OSYMJOYM362,3S96KQ6I9QKVDFC717NV51WWTVKTDW,1,2
150,2,object_02,object_01,341.0,4,2,300.19999998808,0.5555555555555556,2,object_09,1,1905,0,0,5,forest_1,1,memory-2step-stake-s,643,2458642,0.0-19.0-0.1-0.150,AFKB7F09OVKV7,3SD15I2WE5AO7614M34OSYMJOYM362,3S96KQ6I9QKVDFC717NV51WWTVKTDW,3,4
151,3,object_05,object_03,1025.6999999881,5,1,316.5,0.3333333333333333,1,object_08,5,1920,0,3,4,library_2,1,memory-2step-stake-s,644,2466475,0.0-19.0-0.1-0.151,AFKB7F09OVKV7,3SD15I2WE5AO7614M34OSYMJOYM362,3S96KQ6I9QKVDFC717NV51WWTVKTDW,5,6
152,1,object_04,object_10,566.69999998808,2,2,473.60000002384,0.0,2,object_09,1,1920,0,2,0,desert_2,1,memory-2step-stake-s,645,2474165,0.0-19.0-0.1-0.152,AFKB7F09OVKV7,3SD15I2WE5AO7614M34OSYMJOYM362,3S96KQ6I9QKVDFC717NV51WWTVKTDW,1,2
153,1,object_04,object_10,615.19999998808,1,1,378.90000003576,0.0,1,object_08,1,1920,0,0,2,desert_8,1,memory-2step-stake-s,646,2481755,0.0-19.0-0.1-0.153,AFKB7F09OVKV7,3SD15I2WE5AO7614M34OSYMJOYM362,3S96KQ6I9QKVDFC717NV51WWTVKTDW,1,2
154,2,object_01,object_02,721.39999997616,4,1,322.60000002384,0.4444444444444444,2,object_09,1,1924,0,0,4,forest_2,1,memory-2step-stake-s,647,2489713,0.0-19.0-0.1-0.154,AFKB7F09OVKV7,3SD15I2WE5AO7614M34OSYMJOYM362,3S96KQ6I9QKVDFC717NV51WWTVKTDW,4,3
155,1,object_04,object_10,953.19999998808,1,1,275.90000003576,0.0,1,object_08,1,1924,0,0,1,desert_1,1,memory-2step-stake-s,648,2497203,0.0-19.0-0.1-0.155,AFKB7F09OVKV7,3SD15I2WE5AO7614M34OSYMJOYM362,3S96KQ6I9QKVDFC717NV51WWTVKTDW,1,2
156,3,object_03,object_05,927.69999998808,6,1,386.89999997616,0.0,2,object_09,5,1924,0,1,0,library_2,1,memory-2step-stake-s,649,2504804,0.0-19.0-0.1-0.156,AFKB7F09OVKV7,3SD15I2WE5AO7614M34OSYMJOYM362,3S96KQ6I9QKVDFC717NV51WWTVKTDW,6,5
157,2,object_01,object_02,687.40000003576,4,1,272.5,0.2222222222222222,2,object_09,1,1926,0,1,2,forest_2,1,memory-2step-stake-s,650,2512512,0.0-19.0-0.1-0.157,AFKB7F09OVKV7,3SD15I2WE5AO7614M34OSYMJOYM362,3S96KQ6I9QKVDFC717NV51WWTVKTDW,4,3
158,1,object_10,object_04,893.40000003576,2,1,202.5,0.0,2,object_09,1,1926,0,0,0,desert_2,1,memory-2step-stake-s,651,2519943,0.0-19.0-0.1-0.158,AFKB7F09OVKV7,3SD15I2WE5AO7614M34OSYMJOYM362,3S96KQ6I9QKVDFC717NV51WWTVKTDW,2,1
159,2,object_02,object_01,552.09999996424,3,1,245.0,0.0,1,object_08,1,1926,0,0,2,forest_1,1,memory-2step-stake-s,652,2527426,0.0-19.0-0.1-0.159,AFKB7F09OVKV7,3SD15I2WE5AO7614M34OSYMJOYM362,3S96KQ6I9QKVDFC717NV51WWTVKTDW,3,4
160,2,object_02,object_01,760.19999998808,4,2,332.5,0.1111111111111111,2,object_09,1,1927,0,0,1,forest_2,1,memory-2step-stake-s,653,2535074,0.0-19.0-0.1-0.160,AFKB7F09OVKV7,3SD15I2WE5AO7614M34OSYMJOYM362,3S96KQ6I9QKVDFC717NV51WWTVKTDW,3,4
161,1,object_10,object_04,808.39999997616,2,1,531.80000001192,0.2222222222222222,2,object_09,1,1929,0,2,2,desert_8,1,memory-2step-stake-s,654,2543028,0.0-19.0-0.1-0.161,AFKB7F09OVKV7,3SD15I2WE5AO7614M34OSYMJOYM362,3S96KQ6I9QKVDFC717NV51WWTVKTDW,2,1
162,3,object_03,object_05,686.60000002384,6,1,316.80000001192,0.3333333333333333,2,object_09,1,1932,0,3,3,library_5,1,memory-2step-stake-s,655,2550868,0.0-19.0-0.1-0.162,AFKB7F09OVKV7,3SD15I2WE5AO7614M34OSYMJOYM362,3S96KQ6I9QKVDFC717NV51WWTVKTDW,6,5
163,3,object_05,object_03,746.19999998808,6,2,557.59999996424,0.1111111111111111,2,object_09,5,1937,0,3,1,library_6,1,memory-2step-stake-s,656,2558745,0.0-19.0-0.1-0.163,AFKB7F09OVKV7,3SD15I2WE5AO7614M34OSYMJOYM362,3S96KQ6I9QKVDFC717NV51WWTVKTDW,5,6
164,1,object_10,object_04,750.80000001192,2,1,480.30000001192,0.0,2,object_09,1,1937,0,2,0,desert_5,1,memory-2step-stake-s,657,2566444,0.0-19.0-0.1-0.164,AFKB7F09OVKV7,3SD15I2WE5AO7614M34OSYMJOYM362,3S96KQ6I9QKVDFC717NV51WWTVKTDW,2,1
165,1,object_04,object_10,623.0,2,2,249.69999998808,0.6666666666666666,2,object_09,1,1943,0,2,6,desert_1,1,memory-2step-stake-s,658,2574529,0.0-19.0-0.1-0.165,AFKB7F09OVKV7,3SD15I2WE5AO7614M34OSYMJOYM362,3S96KQ6I9QKVDFC717NV51WWTVKTDW,1,2
166,3,object_05,object_03,1130.6000000238,6,2,571.5,0.6666666666666666,2,object_09,1,1949,0,1,6,library_1,1,memory-2step-stake-s,659,2582932,0.0-19.0-0.1-0.166,AFKB7F09OVKV7,3SD15I2WE5AO7614M34OSYMJOYM362,3S96KQ6I9QKVDFC717NV51WWTVKTDW,5,6
167,3,object_05,object_03,661.80000001192,6,2,313.10000002384,0.4444444444444444,2,object_09,5,1969,0,0,4,library_5,1,memory-2step-stake-s,660,2590872,0.0-19.0-0.1-0.167,AFKB7F09OVKV7,3SD15I2WE5AO7614M34OSYMJOYM362,3S96KQ6I9QKVDFC717NV51WWTVKTDW,5,6
168,4,object_07,object_06,578.59999996424,8,1,574.80000001192,0.4444444444444444,2,object_09,1,1973,0,2,4,restaurant_3,1,memory-2step-stake-s,661,2599089,0.0-19.0-0.1-0.168,AFKB7F09OVKV7,3SD15I2WE5AO7614M34OSYMJOYM362,3S96KQ6I9QKVDFC717NV51WWTVKTDW,8,7
169,4,object_07,object_06,722.0,8,1,476.10000002384,0.4444444444444444,2,object_09,5,1993,0,1,4,restaurant_8,1,memory-2step-stake-s,662,2607186,0.0-19.0-0.1-0.169,AFKB7F09OVKV7,3SD15I2WE5AO7614M34OSYMJOYM362,3S96KQ6I9QKVDFC717NV51WWTVKTDW,8,7
170,4,object_06,object_07,730.69999998808,8,2,291.70000004768,0.1111111111111111,2,object_09,5,1998,0,3,1,restaurant_3,1,memory-2step-stake-s,663,2614807,0.0-19.0-0.1-0.170,AFKB7F09OVKV7,3SD15I2WE5AO7614M34OSYMJOYM362,3S96KQ6I9QKVDFC717NV51WWTVKTDW,7,8
171,2,object_02,object_01,484.5,4,2,383.09999996424,0.2222222222222222,2,object_09,5,2008,0,4,2,forest_6,1,memory-2step-stake-s,664,2622615,0.0-19.0-0.1-0.171,AFKB7F09OVKV7,3SD15I2WE5AO7614M34OSYMJOYM362,3S96KQ6I9QKVDFC717NV51WWTVKTDW,3,4
172,1,object_10,object_04,720.89999997616,1,2,1420.8999999762,0.4444444444444444,1,object_08,1,2012,0,4,1,desert_8,1,memory-2step-stake-s,665,2631666,0.0-19.0-0.1-0.172,AFKB7F09OVKV7,3SD15I2WE5AO7614M34OSYMJOYM362,3S96KQ6I9QKVDFC717NV51WWTVKTDW,2,1
173,4,object_07,object_06,784.90000003576,7,2,295.69999998808,0.5555555555555556,1,object_08,5,2037,0,5,2,restaurant_8,1,memory-2step-stake-s,666,2639688,0.0-19.0-0.1-0.173,AFKB7F09OVKV7,3SD15I2WE5AO7614M34OSYMJOYM362,3S96KQ6I9QKVDFC717NV51WWTVKTDW,8,7
174,2,object_01,object_02,740.5,3,2,564.90000003576,0.0,1,object_08,5,2037,0,0,3,forest_5,1,memory-2step-stake-s,667,2647476,0.0-19.0-0.1-0.174,AFKB7F09OVKV7,3SD15I2WE5AO7614M34OSYMJOYM362,3S96KQ6I9QKVDFC717NV51WWTVKTDW,4,3
175,3,object_03,object_05,579.80000001192,5,2,189.10000002384,0.0,1,object_08,5,2037,0,0,2,library_2,1,memory-2step-stake-s,668,2654885,0.0-19.0-0.1-0.175,AFKB7F09OVKV7,3SD15I2WE5AO7614M34OSYMJOYM362,3S96KQ6I9QKVDFC717NV51WWTVKTDW,6,5
176,4,object_07,object_06,709.5,7,2,408.80000001192,0.4444444444444444,1,object_08,5,2057,0,4,3,restaurant_3,1,memory-2step-stake-s,669,2662918,0.0-19.0-0.1-0.176,AFKB7F09OVKV7,3SD15I2WE5AO7614M34OSYMJOYM362,3S96KQ6I9QKVDFC717NV51WWTVKTDW,8,7
177,4,object_06,object_07,940.59999996424,7,1,327.20000004768,0.1111111111111111,1,object_08,1,2058,0,1,8,restaurant_3,1,memory-2step-stake-s,670,2670563,0.0-19.0-0.1-0.177,AFKB7F09OVKV7,3SD15I2WE5AO7614M34OSYMJOYM362,3S96KQ6I9QKVDFC717NV51WWTVKTDW,7,8
178,4,object_07,object_06,561.39999997616,7,2,275.10000002384,0.2222222222222222,1,object_08,5,2068,0,2,7,restaurant_3,1,memory-2step-stake-s,671,2678269,0.0-19.0-0.1-0.178,AFKB7F09OVKV7,3SD15I2WE5AO7614M34OSYMJOYM362,3S96KQ6I9QKVDFC717NV51WWTVKTDW,8,7
179,2,object_02,object_01,1029.0,3,1,270.69999998808,0.2222222222222222,1,object_08,5,2078,0,2,7,forest_5,1,memory-2step-stake-s,672,2685969,0.0-19.0-0.1-0.179,AFKB7F09OVKV7,3SD15I2WE5AO7614M34OSYMJOYM362,3S96KQ6I9QKVDFC717NV51WWTVKTDW,3,4
180,4,object_07,object_06,1059.1999999881,7,2,525.60000002384,0.1111111111111111,1,object_08,5,2083,0,1,8,restaurant_3,1,memory-2step-stake-s,673,2693816,0.0-19.0-0.1-0.180,AFKB7F09OVKV7,3SD15I2WE5AO7614M34OSYMJOYM362,3S96KQ6I9QKVDFC717NV51WWTVKTDW,8,7
181,2,object_01,object_02,561.29999995232,4,1,315.90000003576,0.6666666666666666,2,object_09,5,2113,0,2,6,forest_1,1,memory-2step-stake-s,674,2701979,0.0-19.0-0.1-0.181,AFKB7F09OVKV7,3SD15I2WE5AO7614M34OSYMJOYM362,3S96KQ6I9QKVDFC717NV51WWTVKTDW,4,3
182,4,object_07,object_06,960.30000001192,8,1,459.60000002384,0.5555555555555556,2,object_09,5,2138,0,4,5,restaurant_8,1,memory-2step-stake-s,675,2710164,0.0-19.0-0.1-0.182,AFKB7F09OVKV7,3SD15I2WE5AO7614M34OSYMJOYM362,3S96KQ6I9QKVDFC717NV51WWTVKTDW,8,7
183,1,object_10,object_04,732.30000001192,2,1,124.5,0.2222222222222222,2,object_09,1,2140,0,6,2,desert_5,1,memory-2step-stake-s,676,2717711,0.0-19.0-0.1-0.183,AFKB7F09OVKV7,3SD15I2WE5AO7614M34OSYMJOYM362,3S96KQ6I9QKVDFC717NV51WWTVKTDW,2,1
184,3,object_03,object_05,1011.4000000358,6,1,279.09999996424,0.1111111111111111,2,object_09,5,2145,0,6,1,library_1,1,memory-2step-stake-s,677,2725307,0.0-19.0-0.1-0.184,AFKB7F09OVKV7,3SD15I2WE5AO7614M34OSYMJOYM362,3S96KQ6I9QKVDFC717NV51WWTVKTDW,6,5
185,3,object_03,object_05,1086.0,6,1,262.60000002384,0.1111111111111111,2,object_09,5,2150,0,8,1,library_5,1,memory-2step-stake-s,678,2732889,0.0-19.0-0.1-0.185,AFKB7F09OVKV7,3SD15I2WE5AO7614M34OSYMJOYM362,3S96KQ6I9QKVDFC717NV51WWTVKTDW,6,5
186,2,object_01,object_02,776.10000002384,3,2,234.89999997616,1.0,1,object_08,5,2195,0,9,3,forest_5,1,memory-2step-stake-s,679,2741257,0.0-19.0-0.1-0.186,AFKB7F09OVKV7,3SD15I2WE5AO7614M34OSYMJOYM362,3S96KQ6I9QKVDFC717NV51WWTVKTDW,4,3
187,4,object_07,object_06,761.39999997616,7,2,100.89999997616,0.7777777777777778,1,object_08,1,2202,0,7,5,restaurant_2,1,memory-2step-stake-s,680,2749288,0.0-19.0-0.1-0.187,AFKB7F09OVKV7,3SD15I2WE5AO7614M34OSYMJOYM362,3S96KQ6I9QKVDFC717NV51WWTVKTDW,8,7
188,4,object_07,object_06,712.30000001192,7,2,237.10000002384,0.8888888888888888,1,object_08,1,2210,0,8,4,restaurant_8,1,memory-2step-stake-s,681,2757554,0.0-19.0-0.1-0.188,AFKB7F09OVKV7,3SD15I2WE5AO7614M34OSYMJOYM362,3S96KQ6I9QKVDFC717NV51WWTVKTDW,8,7
189,4,object_06,object_07,679.60000002384,7,1,258.69999998808,0.8888888888888888,1,object_08,5,2250,0,8,4,restaurant_2,1,memory-2step-stake-s,682,2765841,0.0-19.0-0.1-0.189,AFKB7F09OVKV7,3SD15I2WE5AO7614M34OSYMJOYM362,3S96KQ6I9QKVDFC717NV51WWTVKTDW,7,8
190,2,object_01,object_02,630.80000001192,3,2,305.20000004768,1.0,1,object_08,1,2259,0,9,5,forest_2,1,memory-2step-stake-s,683,2774286,0.0-19.0-0.1-0.190,AFKB7F09OVKV7,3SD15I2WE5AO7614M34OSYMJOYM362,3S96KQ6I9QKVDFC717NV51WWTVKTDW,4,3
191,2,object_01,object_02,770.79999995232,3,2,438.10000002384,1.0,1,object_08,1,2268,0,9,4,forest_2,1,memory-2step-stake-s,684,2782852,0.0-19.0-0.1-0.191,AFKB7F09OVKV7,3SD15I2WE5AO7614M34OSYMJOYM362,3S96KQ6I9QKVDFC717NV51WWTVKTDW,4,3
192,2,object_01,object_02,436.10000002384,3,2,293.80000001192,0.7777777777777778,1,object_08,1,2275,0,7,5,forest_2,1,memory-2step-stake-s,685,2791074,0.0-19.0-0.1-0.192,AFKB7F09OVKV7,3SD15I2WE5AO7614M34OSYMJOYM362,3S96KQ6I9QKVDFC717NV51WWTVKTDW,4,3
193,2,object_01,object_02,670.90000003576,3,2,456.80000001192,0.8888888888888888,1,object_08,5,2315,0,8,6,forest_6,1,memory-2step-stake-s,686,2799559,0.0-19.0-0.1-0.193,AFKB7F09OVKV7,3SD15I2WE5AO7614M34OSYMJOYM362,3S96KQ6I9QKVDFC717NV51WWTVKTDW,4,3
194,3,object_03,object_05,430.69999998808,5,2,305.59999996424,0.8888888888888888,1,object_08,5,2355,0,8,7,library_1,1,memory-2step-stake-s,687,2807901,0.0-19.0-0.1-0.194,AFKB7F09OVKV7,3SD15I2WE5AO7614M34OSYMJOYM362,3S96KQ6I9QKVDFC717NV51WWTVKTDW,6,5
195,3,object_05,object_03,-1.0,-1,-1,-1.0,0.0,-,0,5,2355,0,8,4,library_6,1,memory-2step-stake-s,688,2814406,0.0-19.0-0.1-0.195,AFKB7F09OVKV7,3SD15I2WE5AO7614M34OSYMJOYM362,3S96KQ6I9QKVDFC717NV51WWTVKTDW,5,6
196,1,object_04,object_10,884.89999997616,1,1,280.19999998808,0.7777777777777778,1,object_08,1,2362,0,7,4,desert_8,1,memory-2step-stake-s,689,2822630,0.0-19.0-0.1-0.196,AFKB7F09OVKV7,3SD15I2WE5AO7614M34OSYMJOYM362,3S96KQ6I9QKVDFC717NV51WWTVKTDW,1,2
197,1,object_04,object_10,770.39999997616,1,1,268.80000001192,0.8888888888888888,1,object_08,5,2402,0,8,3,desert_1,1,memory-2step-stake-s,690,2830940,0.0-19.0-0.1-0.197,AFKB7F09OVKV7,3SD15I2WE5AO7614M34OSYMJOYM362,3S96KQ6I9QKVDFC717NV51WWTVKTDW,1,2
198,4,object_07,object_06,679.19999998808,7,2,403.40000003576,0.8888888888888888,1,object_08,1,2410,0,8,5,restaurant_1,1,memory-2step-stake-s,691,2839373,0.0-19.0-0.1-0.198,AFKB7F09OVKV7,3SD15I2WE5AO7614M34OSYMJOYM362,3S96KQ6I9QKVDFC717NV51WWTVKTDW,8,7
199,2,object_02,object_01,618.30000001192,4,2,305.19999998808,0.3333333333333333,2,object_09,1,2413,0,8,3,forest_5,1,memory-2step-stake-s,692,2847204,0.0-19.0-0.1-0.199,AFKB7F09OVKV7,3SD15I2WE5AO7614M34OSYMJOYM362,3S96KQ6I9QKVDFC717NV51WWTVKTDW,3,4
200,4,object_07,object_06,849.89999997616,8,1,260.19999998808,0.0,2,object_09,5,2413,0,5,0,restaurant_2,1,memory-2step-stake-s,693,2854698,0.0-19.0-0.1-0.200,AFKB7F09OVKV7,3SD15I2WE5AO7614M34OSYMJOYM362,3S96KQ6I9QKVDFC717NV51WWTVKTDW,8,7
201,2,object_02,object_01,638.5,3,1,352.09999996424,0.6666666666666666,1,object_08,1,2419,0,6,1,forest_5,1,memory-2step-stake-s,694,2862877,0.0-19.0-0.1-0.201,AFKB7F09OVKV7,3SD15I2WE5AO7614M34OSYMJOYM362,3S96KQ6I9QKVDFC717NV51WWTVKTDW,3,4
202,2,object_02,object_01,419.0,3,1,989.60000002384,0.6666666666666666,1,object_08,1,2425,0,6,2,forest_2,1,memory-2step-stake-s,695,2871697,0.0-19.0-0.1-0.202,AFKB7F09OVKV7,3SD15I2WE5AO7614M34OSYMJOYM362,3S96KQ6I9QKVDFC717NV51WWTVKTDW,3,4
203,1,object_10,object_04,577.80000001192,2,1,317.5,0.1111111111111111,2,object_09,1,2426,0,5,1,desert_2,1,memory-2step-stake-s,696,2879329,0.0-19.0-0.1-0.203,AFKB7F09OVKV7,3SD15I2WE5AO7614M34OSYMJOYM362,3S96KQ6I9QKVDFC717NV51WWTVKTDW,2,1
204,2,object_02,object_01,697.0,3,1,260.39999997616,0.7777777777777778,1,object_08,5,2461,0,7,4,forest_6,1,memory-2step-stake-s,697,2887532,0.0-19.0-0.1-0.204,AFKB7F09OVKV7,3SD15I2WE5AO7614M34OSYMJOYM362,3S96KQ6I9QKVDFC717NV51WWTVKTDW,3,4
205,2,object_02,object_01,575.19999998808,3,1,321.5,0.8888888888888888,1,object_08,1,2469,0,8,4,forest_5,1,memory-2step-stake-s,698,2895900,0.0-19.0-0.1-0.205,AFKB7F09OVKV7,3SD15I2WE5AO7614M34OSYMJOYM362,3S96KQ6I9QKVDFC717NV51WWTVKTDW,3,4
206,3,object_03,object_05,569.89999997616,5,2,27.699999988079,1.0,1,object_08,1,2478,0,9,3,library_1,1,memory-2step-stake-s,699,2904074,0.0-19.0-0.1-0.206,AFKB7F09OVKV7,3SD15I2WE5AO7614M34OSYMJOYM362,3S96KQ6I9QKVDFC717NV51WWTVKTDW,6,5
207,3,object_05,object_03,505.5,5,1,268.39999997616,0.8888888888888888,1,object_08,5,2518,0,8,3,library_1,1,memory-2step-stake-s,700,2912367,0.0-19.0-0.1-0.207,AFKB7F09OVKV7,3SD15I2WE5AO7614M34OSYMJOYM362,3S96KQ6I9QKVDFC717NV51WWTVKTDW,5,6
208,3,object_03,object_05,635.70000004768,5,2,551.20000004768,0.8888888888888888,1,object_08,5,2558,0,8,5,library_6,1,memory-2step-stake-s,701,2920941,0.0-19.0-0.1-0.208,AFKB7F09OVKV7,3SD15I2WE5AO7614M34OSYMJOYM362,3S96KQ6I9QKVDFC717NV51WWTVKTDW,6,5
209,2,object_02,object_01,648.5,3,1,521.89999997616,0.7777777777777778,1,object_08,5,2593,0,7,7,forest_2,1,memory-2step-stake-s,702,2929421,0.0-19.0-0.1-0.209,AFKB7F09OVKV7,3SD15I2WE5AO7614M34OSYMJOYM362,3S96KQ6I9QKVDFC717NV51WWTVKTDW,3,4
210,2,object_02,object_01,628.89999997616,3,1,414.0,0.8888888888888888,1,object_08,1,2601,0,8,7,forest_1,1,memory-2step-stake-s,703,2937878,0.0-19.0-0.1-0.210,AFKB7F09OVKV7,3SD15I2WE5AO7614M34OSYMJOYM362,3S96KQ6I9QKVDFC717NV51WWTVKTDW,3,4
211,1,object_04,object_10,861.19999998808,1,1,280.19999998808,0.8888888888888888,1,object_08,5,2641,0,8,5,desert_1,1,memory-2step-stake-s,704,2946182,0.0-19.0-0.1-0.211,AFKB7F09OVKV7,3SD15I2WE5AO7614M34OSYMJOYM362,3S96KQ6I9QKVDFC717NV51WWTVKTDW,1,2
212,3,object_03,object_05,566.10000002384,5,2,264.0,0.7777777777777778,1,object_08,5,2676,0,7,8,library_6,1,memory-2step-stake-s,705,2954369,0.0-19.0-0.1-0.212,AFKB7F09OVKV7,3SD15I2WE5AO7614M34OSYMJOYM362,3S96KQ6I9QKVDFC717NV51WWTVKTDW,6,5
213,1,object_04,object_10,745.5,1,1,419.89999997616,0.5555555555555556,1,object_08,1,2681,0,5,7,desert_8,1,memory-2step-stake-s,706,2962511,0.0-19.0-0.1-0.213,AFKB7F09OVKV7,3SD15I2WE5AO7614M34OSYMJOYM362,3S96KQ6I9QKVDFC717NV51WWTVKTDW,1,2
214,3,object_05,object_03,892.60000002384,5,1,335.90000003576,0.4444444444444444,1,object_08,5,2701,0,4,7,library_6,1,memory-2step-stake-s,707,2970479,0.0-19.0-0.1-0.214,AFKB7F09OVKV7,3SD15I2WE5AO7614M34OSYMJOYM362,3S96KQ6I9QKVDFC717NV51WWTVKTDW,5,6
215,4,object_06,object_07,919.5,8,2,302.19999998808,0.6666666666666666,2,object_09,5,2731,0,0,6,restaurant_3,1,memory-2step-stake-s,708,2978648,0.0-19.0-0.1-0.215,AFKB7F09OVKV7,3SD15I2WE5AO7614M34OSYMJOYM362,3S96KQ6I9QKVDFC717NV51WWTVKTDW,7,8
216,3,object_05,object_03,817.60000002384,6,2,356.0,0.7777777777777778,2,object_09,5,2766,0,4,7,library_1,1,memory-2step-stake-s,709,2986938,0.0-19.0-0.1-0.216,AFKB7F09OVKV7,3SD15I2WE5AO7614M34OSYMJOYM362,3S96KQ6I9QKVDFC717NV51WWTVKTDW,5,6
217,4,object_06,object_07,672.0,8,2,345.89999997616,0.6666666666666666,2,object_09,5,2796,0,4,6,restaurant_8,1,memory-2step-stake-s,710,2995108,0.0-19.0-0.1-0.217,AFKB7F09OVKV7,3SD15I2WE5AO7614M34OSYMJOYM362,3S96KQ6I9QKVDFC717NV51WWTVKTDW,7,8
218,4,object_07,object_06,807.80000001192,8,1,701.10000002384,1.0,2,object_09,5,2841,0,2,9,restaurant_1,1,memory-2step-stake-s,711,3003950,0.0-19.0-0.1-0.218,AFKB7F09OVKV7,3SD15I2WE5AO7614M34OSYMJOYM362,3S96KQ6I9QKVDFC717NV51WWTVKTDW,8,7
219,3,object_03,object_05,782.30000001192,6,1,290.30000001192,0.6666666666666666,2,object_09,5,2871,0,3,6,library_5,1,memory-2step-stake-s,712,3012076,0.0-19.0-0.1-0.219,AFKB7F09OVKV7,3SD15I2WE5AO7614M34OSYMJOYM362,3S96KQ6I9QKVDFC717NV51WWTVKTDW,6,5
220,4,object_07,object_06,823.90000003576,8,1,297.59999996424,0.4444444444444444,2,object_09,1,2875,0,3,4,restaurant_1,1,memory-2step-stake-s,713,3020009,0.0-19.0-0.1-0.220,AFKB7F09OVKV7,3SD15I2WE5AO7614M34OSYMJOYM362,3S96KQ6I9QKVDFC717NV51WWTVKTDW,8,7
221,4,object_07,object_06,692.69999998808,7,2,410.0,0.0,1,object_08,5,2875,0,0,2,restaurant_1,1,memory-2step-stake-s,714,3027659,0.0-19.0-0.1-0.221,AFKB7F09OVKV7,3SD15I2WE5AO7614M34OSYMJOYM362,3S96KQ6I9QKVDFC717NV51WWTVKTDW,8,7
222,1,object_04,object_10,1071.5,1,1,732.90000003576,0.1111111111111111,1,object_08,1,2876,0,1,2,desert_1,1,memory-2step-stake-s,715,3035729,0.0-19.0-0.1-0.222,AFKB7F09OVKV7,3SD15I2WE5AO7614M34OSYMJOYM362,3S96KQ6I9QKVDFC717NV51WWTVKTDW,1,2
223,1,object_10,object_04,715.69999998808,2,1,218.39999997616,0.2222222222222222,2,object_09,1,2878,0,3,2,desert_1,1,memory-2step-stake-s,716,3043377,0.0-19.0-0.1-0.223,AFKB7F09OVKV7,3SD15I2WE5AO7614M34OSYMJOYM362,3S96KQ6I9QKVDFC717NV51WWTVKTDW,2,1
224,3,object_03,object_05,741.09999996424,6,1,176.19999998808,0.1111111111111111,2,object_09,1,2879,0,2,1,library_5,1,memory-2step-stake-s,717,3050890,0.0-19.0-0.1-0.224,AFKB7F09OVKV7,3SD15I2WE5AO7614M34OSYMJOYM362,3S96KQ6I9QKVDFC717NV51WWTVKTDW,6,5
225,4,object_07,object_06,649.29999995232,7,2,269.60000002384,0.1111111111111111,1,object_08,5,2884,0,1,2,restaurant_1,1,memory-2step-stake-s,718,3058484,0.0-19.0-0.1-0.225,AFKB7F09OVKV7,3SD15I2WE5AO7614M34OSYMJOYM362,3S96KQ6I9QKVDFC717NV51WWTVKTDW,8,7
226,3,object_05,object_03,692.30000001192,5,1,270.59999996424,0.1111111111111111,1,object_08,5,2889,0,1,1,library_5,1,memory-2step-stake-s,719,3066075,0.0-19.0-0.1-0.226,AFKB7F09OVKV7,3SD15I2WE5AO7614M34OSYMJOYM362,3S96KQ6I9QKVDFC717NV51WWTVKTDW,5,6
227,4,object_06,object_07,1193.8000000119,8,2,499.19999998808,0.0,2,object_09,5,2889,0,2,0,restaurant_2,1,memory-2step-stake-s,720,3073796,0.0-19.0-0.1-0.227,AFKB7F09OVKV7,3SD15I2WE5AO7614M34OSYMJOYM362,3S96KQ6I9QKVDFC717NV51WWTVKTDW,7,8
228,4,object_06,object_07,574.39999997616,7,1,348.5,0.1111111111111111,1,object_08,1,2890,0,1,1,restaurant_8,1,memory-2step-stake-s,721,3081467,0.0-19.0-0.1-0.228,AFKB7F09OVKV7,3SD15I2WE5AO7614M34OSYMJOYM362,3S96KQ6I9QKVDFC717NV51WWTVKTDW,7,8
229,1,object_10,object_04,721.0,1,2,194.69999998808,0.2222222222222222,1,object_08,1,2892,0,2,3,desert_5,1,memory-2step-stake-s,722,3089076,0.0-19.0-0.1-0.229,AFKB7F09OVKV7,3SD15I2WE5AO7614M34OSYMJOYM362,3S96KQ6I9QKVDFC717NV51WWTVKTDW,2,1
230,4,object_06,object_07,685.59999996424,7,1,358.5,0.1111111111111111,1,object_08,5,2897,0,1,2,restaurant_8,1,memory-2step-stake-s,723,3096770,0.0-19.0-0.1-0.230,AFKB7F09OVKV7,3SD15I2WE5AO7614M34OSYMJOYM362,3S96KQ6I9QKVDFC717NV51WWTVKTDW,7,8
231,4,object_06,object_07,723.69999998808,7,1,501.69999998808,0.2222222222222222,1,object_08,5,2907,0,2,2,restaurant_2,1,memory-2step-stake-s,724,3104701,0.0-19.0-0.1-0.231,AFKB7F09OVKV7,3SD15I2WE5AO7614M34OSYMJOYM362,3S96KQ6I9QKVDFC717NV51WWTVKTDW,7,8
232,3,object_05,object_03,869.19999998808,5,1,384.80000001192,0.2222222222222222,1,object_08,1,2909,0,2,1,library_2,1,memory-2step-stake-s,725,3112503,0.0-19.0-0.1-0.232,AFKB7F09OVKV7,3SD15I2WE5AO7614M34OSYMJOYM362,3S96KQ6I9QKVDFC717NV51WWTVKTDW,5,6
233,3,object_05,object_03,689.80000001192,6,2,84.0,0.2222222222222222,2,object_09,5,2919,0,5,2,library_5,1,memory-2step-stake-s,726,3120007,0.0-19.0-0.1-0.233,AFKB7F09OVKV7,3SD15I2WE5AO7614M34OSYMJOYM362,3S96KQ6I9QKVDFC717NV51WWTVKTDW,5,6
234,1,object_04,object_10,681.89999997616,2,2,147.5,0.2222222222222222,2,object_09,1,2921,0,6,2,desert_1,1,memory-2step-stake-s,727,3127577,0.0-19.0-0.1-0.234,AFKB7F09OVKV7,3SD15I2WE5AO7614M34OSYMJOYM362,3S96KQ6I9QKVDFC717NV51WWTVKTDW,1,2
235,1,object_04,object_10,537.79999995232,1,1,403.90000003576,0.7777777777777778,1,object_08,1,2928,0,7,1,desert_5,1,memory-2step-stake-s,728,3135908,0.0-19.0-0.1-0.235,AFKB7F09OVKV7,3SD15I2WE5AO7614M34OSYMJOYM362,3S96KQ6I9QKVDFC717NV51WWTVKTDW,1,2
236,4,object_06,object_07,804.60000002384,7,1,263.69999998808,0.7777777777777778,1,object_08,5,2963,0,7,1,restaurant_8,1,memory-2step-stake-s,729,3144098,0.0-19.0-0.1-0.236,AFKB7F09OVKV7,3SD15I2WE5AO7614M34OSYMJOYM362,3S96KQ6I9QKVDFC717NV51WWTVKTDW,7,8
237,1,object_04,object_10,621.5,1,1,343.89999997616,1.0,1,object_08,5,3008,0,9,2,desert_8,1,memory-2step-stake-s,730,3152584,0.0-19.0-0.1-0.237,AFKB7F09OVKV7,3SD15I2WE5AO7614M34OSYMJOYM362,3S96KQ6I9QKVDFC717NV51WWTVKTDW,1,2
238,3,object_05,object_03,961.59999996424,6,2,300.60000002384,0.2222222222222222,2,object_09,5,3018,0,9,2,library_1,1,memory-2step-stake-s,731,3160325,0.0-19.0-0.1-0.238,AFKB7F09OVKV7,3SD15I2WE5AO7614M34OSYMJOYM362,3S96KQ6I9QKVDFC717NV51WWTVKTDW,5,6
239,1,object_10,object_04,714.80000001192,1,2,340.69999998808,0.6666666666666666,1,object_08,1,3024,0,6,1,desert_2,1,memory-2step-stake-s,732,3168497,0.0-19.0-0.1-0.239,AFKB7F09OVKV7,3SD15I2WE5AO7614M34OSYMJOYM362,3S96KQ6I9QKVDFC717NV51WWTVKTDW,2,1
240,3,object_05,object_03,913.30000001192,5,1,369.59999996424,0.4444444444444444,1,object_08,5,3044,0,4,1,library_6,1,memory-2step-stake-s,733,3176489,0.0-19.0-0.1-0.240,AFKB7F09OVKV7,3SD15I2WE5AO7614M34OSYMJOYM362,3S96KQ6I9QKVDFC717NV51WWTVKTDW,5,6
241,1,object_10,object_04,741.60000002384,1,2,287.80000001192,0.5555555555555556,1,object_08,1,3049,0,5,2,desert_5,1,memory-2step-stake-s,734,3184540,0.0-19.0-0.1-0.241,AFKB7F09OVKV7,3SD15I2WE5AO7614M34OSYMJOYM362,3S96KQ6I9QKVDFC717NV51WWTVKTDW,2,1
242,2,object_01,object_02,464.19999998808,3,2,498.80000001192,0.6666666666666666,1,object_08,1,3055,0,6,3,forest_5,1,memory-2step-stake-s,735,3192874,0.0-19.0-0.1-0.242,AFKB7F09OVKV7,3SD15I2WE5AO7614M34OSYMJOYM362,3S96KQ6I9QKVDFC717NV51WWTVKTDW,4,3
243,1,object_10,object_04,623.30000001192,1,2,585.69999998808,0.6666666666666666,1,object_08,5,3085,0,6,4,desert_8,1,memory-2step-stake-s,736,3201295,0.0-19.0-0.1-0.243,AFKB7F09OVKV7,3SD15I2WE5AO7614M34OSYMJOYM362,3S96KQ6I9QKVDFC717NV51WWTVKTDW,2,1
244,4,object_07,object_06,713.0,7,2,396.40000003576,0.4444444444444444,1,object_08,5,3105,0,4,7,restaurant_1,1,memory-2step-stake-s,737,3209323,0.0-19.0-0.1-0.244,AFKB7F09OVKV7,3SD15I2WE5AO7614M34OSYMJOYM362,3S96KQ6I9QKVDFC717NV51WWTVKTDW,8,7
245,1,object_04,object_10,734.30000001192,1,1,529.40000003576,0.2222222222222222,1,object_08,1,3107,0,2,4,desert_5,1,memory-2step-stake-s,738,3217269,0.0-19.0-0.1-0.245,AFKB7F09OVKV7,3SD15I2WE5AO7614M34OSYMJOYM362,3S96KQ6I9QKVDFC717NV51WWTVKTDW,1,2
246,1,object_04,object_10,781.10000002384,1,1,223.0,0.0,1,object_08,1,3107,0,0,6,desert_5,1,memory-2step-stake-s,739,3224729,0.0-19.0-0.1-0.246,AFKB7F09OVKV7,3SD15I2WE5AO7614M34OSYMJOYM362,3S96KQ6I9QKVDFC717NV51WWTVKTDW,1,2
247,2,object_02,object_01,645.20000004768,4,2,312.89999997616,0.8888888888888888,2,object_09,1,3115,0,3,8,forest_6,1,memory-2step-stake-s,740,3233095,0.0-19.0-0.1-0.247,AFKB7F09OVKV7,3SD15I2WE5AO7614M34OSYMJOYM362,3S96KQ6I9QKVDFC717NV51WWTVKTDW,3,4
248,4,object_07,object_06,622.80000001192,8,1,325.89999997616,0.7777777777777778,2,object_09,5,3150,0,4,7,restaurant_8,1,memory-2step-stake-s,741,3241394,0.0-19.0-0.1-0.248,AFKB7F09OVKV7,3SD15I2WE5AO7614M34OSYMJOYM362,3S96KQ6I9QKVDFC717NV51WWTVKTDW,8,7
249,2,object_01,object_02,695.09999996424,4,1,320.59999996424,0.8888888888888888,2,object_09,5,3190,0,2,8,forest_6,1,memory-2step-stake-s,742,3249764,0.0-19.0-0.1-0.249,AFKB7F09OVKV7,3SD15I2WE5AO7614M34OSYMJOYM362,3S96KQ6I9QKVDFC717NV51WWTVKTDW,4,3
250,4,object_07,object_06,575.39999997616,8,1,393.80000001192,0.8888888888888888,2,object_09,1,3198,0,1,8,restaurant_8,1,memory-2step-stake-s,743,3258196,0.0-19.0-0.1-0.250,AFKB7F09OVKV7,3SD15I2WE5AO7614M34OSYMJOYM362,3S96KQ6I9QKVDFC717NV51WWTVKTDW,8,7
251,1,object_04,object_10,925.59999996424,2,2,216.80000001192,0.6666666666666666,2,object_09,1,3204,0,2,6,desert_8,1,memory-2step-stake-s,744,3266250,0.0-19.0-0.1-0.251,AFKB7F09OVKV7,3SD15I2WE5AO7614M34OSYMJOYM362,3S96KQ6I9QKVDFC717NV51WWTVKTDW,1,2
252,4,object_07,object_06,598.30000001192,8,1,480.80000001192,0.3333333333333333,2,object_09,1,3207,0,1,3,restaurant_2,1,memory-2step-stake-s,745,3274250,0.0-19.0-0.1-0.252,AFKB7F09OVKV7,3SD15I2WE5AO7614M34OSYMJOYM362,3S96KQ6I9QKVDFC717NV51WWTVKTDW,8,7
253,3,object_03,object_05,520.0,6,1,289.70000004768,0.3333333333333333,2,object_09,5,3222,0,2,3,library_1,1,memory-2step-stake-s,746,3282066,0.0-19.0-0.1-0.253,AFKB7F09OVKV7,3SD15I2WE5AO7614M34OSYMJOYM362,3S96KQ6I9QKVDFC717NV51WWTVKTDW,6,5
254,4,object_07,object_06,927.30000001192,7,2,423.40000003576,0.5555555555555556,1,object_08,5,3247,0,5,1,restaurant_3,1,memory-2step-stake-s,747,3290255,0.0-19.0-0.1-0.254,AFKB7F09OVKV7,3SD15I2WE5AO7614M34OSYMJOYM362,3S96KQ6I9QKVDFC717NV51WWTVKTDW,8,7
255,2,object_02,object_01,548.40000003576,3,1,412.60000002384,0.5555555555555556,1,object_08,5,3272,0,5,2,forest_2,1,memory-2step-stake-s,748,3298405,0.0-19.0-0.1-0.255,AFKB7F09OVKV7,3SD15I2WE5AO7614M34OSYMJOYM362,3S96KQ6I9QKVDFC717NV51WWTVKTDW,3,4
