,state1,stim_left,stim_right,rt_1,choice1,response1,rt_2,points,state2,stim_state2,stake,score,practice,rews1,rews2,background,high_arm,trial_type,trial_index,time_elapsed,internal_node_id,subid,hitid,assignmentid,stim_left_num,stim_right_num
0,2,object_10,object_01,763.0,4,1,-1.0,0.0,2,object_03,5,0,0,4,3,forest_2,1,memory-2step-stake-s,504,682964,0.0-19.0-0.0-0.0,A2U1OCHJOOLVMB,306996CF7Z0Y3F4KVQ7DFLTE4FJB13,3L4D84MIL38IBSL4B9SHUGOLNLNJHR,4,3
1,1,object_07,object_05,471.0,2,2,-1.0,0.0,2,object_03,1,0,0,3,2,desert_8,1,memory-2step-stake-s,505,691564,0.0-19.0-0.0-0.1,A2U1OCHJOOLVMB,306996CF7Z0Y3F4KVQ7DFLTE4FJB13,3L4D84MIL38IBSL4B9SHUGOLNLNJHR,1,2
2,3,object_04,object_02,610.0,5,1,-1.0,0.0,1,object_09,5,0,0,3,0,library_3,1,memory-2step-stake-s,506,700166,0.0-19.0-0.0-0.2,A2U1OCHJOOLVMB,306996CF7Z0Y3F4KVQ7DFLTE4FJB13,3L4D84MIL38IBSL4B9SHUGOLNLNJHR,5,6
3,4,object_08,object_06,830.0,7,2,-1.0,0.0,1,object_09,5,0,0,8,4,restaurant_1,1,memory-2step-stake-s,507,708746,0.0-19.0-0.0-0.3,A2U1OCHJOOLVMB,306996CF7Z0Y3F4KVQ7DFLTE4FJB13,3L4D84MIL38IBSL4B9SHUGOLNLNJHR,8,7
4,1,object_07,object_05,297.0,1,1,-1.0,0.0,1,object_09,1,0,0,7,2,desert_8,1,memory-2step-stake-s,508,717329,0.0-19.0-0.0-0.4,A2U1OCHJOOLVMB,306996CF7Z0Y3F4KVQ7DFLTE4FJB13,3L4D84MIL38IBSL4B9SHUGOLNLNJHR,1,2
5,1,object_05,object_07,315.0,1,2,314.0,0.8888888888888888,1,object_09,1,8,0,8,2,desert_2,1,memory-2step-stake-s,509,725797,0.0-19.0-0.0-0.5,A2U1OCHJOOLVMB,306996CF7Z0Y3F4KVQ7DFLTE4FJB13,3L4D84MIL38IBSL4B9SHUGOLNLNJHR,2,1
6,4,object_06,object_08,531.0,8,2,329.0,0.1111111111111111,2,object_03,5,13,0,8,1,restaurant_3,1,memory-2step-stake-s,510,733530,0.0-19.0-0.0-0.6,A2U1OCHJOOLVMB,306996CF7Z0Y3F4KVQ7DFLTE4FJB13,3L4D84MIL38IBSL4B9SHUGOLNLNJHR,7,8
7,4,object_08,object_06,251.0,8,1,380.0,0.2222222222222222,2,object_03,5,23,0,7,2,restaurant_2,1,memory-2step-stake-s,511,741430,0.0-19.0-0.0-0.7,A2U1OCHJOOLVMB,306996CF7Z0Y3F4KVQ7DFLTE4FJB13,3L4D84MIL38IBSL4B9SHUGOLNLNJHR,8,7
8,3,object_02,object_04,875.0,5,2,258.0,0.7777777777777778,1,object_09,5,58,0,7,5,library_7,1,memory-2step-stake-s,512,749729,0.0-19.0-0.0-0.8,A2U1OCHJOOLVMB,306996CF7Z0Y3F4KVQ7DFLTE4FJB13,3L4D84MIL38IBSL4B9SHUGOLNLNJHR,6,5
9,2,object_01,object_10,345.0,3,1,312.0,0.8888888888888888,1,object_09,1,66,0,8,8,forest_7,1,memory-2step-stake-s,513,758195,0.0-19.0-0.0-0.9,A2U1OCHJOOLVMB,306996CF7Z0Y3F4KVQ7DFLTE4FJB13,3L4D84MIL38IBSL4B9SHUGOLNLNJHR,3,4
10,2,object_01,object_10,437.0,4,2,287.0,0.7777777777777778,2,object_03,1,73,0,7,7,forest_6,1,memory-2step-stake-s,514,766545,0.0-19.0-0.0-0.10,A2U1OCHJOOLVMB,306996CF7Z0Y3F4KVQ7DFLTE4FJB13,3L4D84MIL38IBSL4B9SHUGOLNLNJHR,3,4
11,3,object_04,object_02,297.0,5,1,299.0,0.5555555555555556,1,object_09,5,98,0,5,7,library_5,1,memory-2step-stake-s,515,774678,0.0-19.0-0.0-0.11,A2U1OCHJOOLVMB,306996CF7Z0Y3F4KVQ7DFLTE4FJB13,3L4D84MIL38IBSL4B9SHUGOLNLNJHR,5,6
12,2,object_10,object_01,312.0,3,2,314.0,0.4444444444444444,1,object_09,5,118,0,4,7,forest_3,1,memory-2step-stake-s,516,782711,0.0-19.0-0.0-0.12,A2U1OCHJOOLVMB,306996CF7Z0Y3F4KVQ7DFLTE4FJB13,3L4D84MIL38IBSL4B9SHUGOLNLNJHR,4,3
13,4,object_06,object_08,859.0,8,2,1026.0,0.6666666666666666,2,object_03,1,124,0,3,6,restaurant_3,1,memory-2step-stake-s,517,791661,0.0-19.0-0.0-0.13,A2U1OCHJOOLVMB,306996CF7Z0Y3F4KVQ7DFLTE4FJB13,3L4D84MIL38IBSL4B9SHUGOLNLNJHR,7,8
14,4,object_06,object_08,329.0,7,1,1217.0,0.3333333333333333,1,object_09,1,127,0,3,5,restaurant_1,1,memory-2step-stake-s,518,800495,0.0-19.0-0.0-0.14,A2U1OCHJOOLVMB,306996CF7Z0Y3F4KVQ7DFLTE4FJB13,3L4D84MIL38IBSL4B9SHUGOLNLNJHR,7,8
15,2,object_10,object_01,944.0,3,2,-1.0,0.0,1,object_09,1,127,0,7,4,forest_7,1,memory-2step-stake-s,519,809077,0.0-19.0-0.0-0.15,A2U1OCHJOOLVMB,306996CF7Z0Y3F4KVQ7DFLTE4FJB13,3L4D84MIL38IBSL4B9SHUGOLNLNJHR,4,3
16,2,object_10,object_01,298.0,4,1,283.0,0.7777777777777778,2,object_03,1,134,0,4,7,forest_6,1,memory-2step-stake-s,520,817393,0.0-19.0-0.0-0.16,A2U1OCHJOOLVMB,306996CF7Z0Y3F4KVQ7DFLTE4FJB13,3L4D84MIL38IBSL4B9SHUGOLNLNJHR,4,3
17,3,object_04,object_02,266.0,6,2,297.0,0.5555555555555556,2,object_03,5,159,0,2,5,library_7,1,memory-2step-stake-s,521,825510,0.0-19.0-0.0-0.17,A2U1OCHJOOLVMB,306996CF7Z0Y3F4KVQ7DFLTE4FJB13,3L4D84MIL38IBSL4B9SHUGOLNLNJHR,5,6
18,2,object_01,object_10,218.0,3,1,242.0,0.1111111111111111,1,object_09,1,160,0,1,4,forest_7,1,memory-2step-stake-s,522,833143,0.0-19.0-0.0-0.18,A2U1OCHJOOLVMB,306996CF7Z0Y3F4KVQ7DFLTE4FJB13,3L4D84MIL38IBSL4B9SHUGOLNLNJHR,3,4
19,2,object_10,object_01,265.0,3,2,364.0,0.2222222222222222,1,object_09,1,162,0,2,2,forest_7,1,memory-2step-stake-s,523,841025,0.0-19.0-0.0-0.19,A2U1OCHJOOLVMB,306996CF7Z0Y3F4KVQ7DFLTE4FJB13,3L4D84MIL38IBSL4B9SHUGOLNLNJHR,4,3
20,2,object_10,object_01,250.0,4,1,286.0,0.0,2,object_03,1,162,0,3,0,forest_3,1,memory-2step-stake-s,524,848607,0.0-19.0-0.0-0.20,A2U1OCHJOOLVMB,306996CF7Z0Y3F4KVQ7DFLTE4FJB13,3L4D84MIL38IBSL4B9SHUGOLNLNJHR,4,3
21,2,object_10,object_01,469.0,3,2,382.0,0.1111111111111111,1,object_09,1,163,0,1,5,forest_2,1,memory-2step-stake-s,525,856342,0.0-19.0-0.0-0.21,A2U1OCHJOOLVMB,306996CF7Z0Y3F4KVQ7DFLTE4FJB13,3L4D84MIL38IBSL4B9SHUGOLNLNJHR,4,3
22,3,object_02,object_04,546.0,6,1,749.0,0.5555555555555556,2,object_03,5,188,0,0,5,library_7,1,memory-2step-stake-s,526,864892,0.0-19.0-0.0-0.22,A2U1OCHJOOLVMB,306996CF7Z0Y3F4KVQ7DFLTE4FJB13,3L4D84MIL38IBSL4B9SHUGOLNLNJHR,6,5
23,4,object_08,object_06,392.0,8,1,902.0,0.2222222222222222,2,object_03,5,198,0,0,2,restaurant_1,1,memory-2step-stake-s,527,873308,0.0-19.0-0.0-0.23,A2U1OCHJOOLVMB,306996CF7Z0Y3F4KVQ7DFLTE4FJB13,3L4D84MIL38IBSL4B9SHUGOLNLNJHR,8,7
24,3,object_04,object_02,282.0,5,1,345.0,0.1111111111111111,1,object_09,5,203,0,1,5,library_4,1,memory-2step-stake-s,528,881057,0.0-19.0-0.0-0.24,A2U1OCHJOOLVMB,306996CF7Z0Y3F4KVQ7DFLTE4FJB13,3L4D84MIL38IBSL4B9SHUGOLNLNJHR,5,6
25,3,object_04,object_02,375.0,6,2,416.0,1.0,2,object_03,5,248,0,1,9,library_5,1,memory-2step-stake-s,529,889683,0.0-19.0-0.0-0.25,A2U1OCHJOOLVMB,306996CF7Z0Y3F4KVQ7DFLTE4FJB13,3L4D84MIL38IBSL4B9SHUGOLNLNJHR,5,6
26,1,object_07,object_05,1039.0,1,1,702.0,0.1111111111111111,1,object_09,1,249,0,1,8,desert_8,1,memory-2step-stake-s,530,897791,0.0-19.0-0.0-0.26,A2U1OCHJOOLVMB,306996CF7Z0Y3F4KVQ7DFLTE4FJB13,3L4D84MIL38IBSL4B9SHUGOLNLNJHR,1,2
27,2,object_10,object_01,1406.0,4,1,709.0,0.8888888888888888,2,object_03,1,257,0,3,8,forest_6,1,memory-2step-stake-s,531,906645,0.0-19.0-0.0-0.27,A2U1OCHJOOLVMB,306996CF7Z0Y3F4KVQ7DFLTE4FJB13,3L4D84MIL38IBSL4B9SHUGOLNLNJHR,4,3
28,3,object_04,object_02,313.0,5,1,267.0,0.1111111111111111,1,object_09,5,262,0,1,8,library_7,1,memory-2step-stake-s,532,914293,0.0-19.0-0.0-0.28,A2U1OCHJOOLVMB,306996CF7Z0Y3F4KVQ7DFLTE4FJB13,3L4D84MIL38IBSL4B9SHUGOLNLNJHR,5,6
29,4,object_06,object_08,546.0,8,2,252.0,0.8888888888888888,2,object_03,1,270,0,2,8,restaurant_2,1,memory-2step-stake-s,533,922672,0.0-19.0-0.0-0.29,A2U1OCHJOOLVMB,306996CF7Z0Y3F4KVQ7DFLTE4FJB13,3L4D84MIL38IBSL4B9SHUGOLNLNJHR,7,8
30,3,object_02,object_04,328.0,6,1,188.0,0.8888888888888888,2,object_03,5,310,0,4,8,library_5,1,memory-2step-stake-s,534,930989,0.0-19.0-0.0-0.30,A2U1OCHJOOLVMB,306996CF7Z0Y3F4KVQ7DFLTE4FJB13,3L4D84MIL38IBSL4B9SHUGOLNLNJHR,6,5
31,1,object_05,object_07,221.0,2,1,272.0,0.7777777777777778,2,object_03,5,345,0,3,7,desert_6,1,memory-2step-stake-s,535,939321,0.0-19.0-0.0-0.31,A2U1OCHJOOLVMB,306996CF7Z0Y3F4KVQ7DFLTE4FJB13,3L4D84MIL38IBSL4B9SHUGOLNLNJHR,2,1
32,4,object_06,object_08,421.0,8,2,259.0,0.6666666666666666,2,object_03,1,351,0,1,6,restaurant_8,1,memory-2step-stake-s,536,947457,0.0-19.0-0.0-0.32,A2U1OCHJOOLVMB,306996CF7Z0Y3F4KVQ7DFLTE4FJB13,3L4D84MIL38IBSL4B9SHUGOLNLNJHR,7,8
33,1,object_07,object_05,548.0,1,1,578.0,0.2222222222222222,1,object_09,1,353,0,2,9,desert_2,1,memory-2step-stake-s,537,955537,0.0-19.0-0.0-0.33,A2U1OCHJOOLVMB,306996CF7Z0Y3F4KVQ7DFLTE4FJB13,3L4D84MIL38IBSL4B9SHUGOLNLNJHR,1,2
34,3,object_04,object_02,766.0,6,2,487.0,0.7777777777777778,2,object_03,5,388,0,1,7,library_4,1,memory-2step-stake-s,538,963949,0.0-19.0-0.0-0.34,A2U1OCHJOOLVMB,306996CF7Z0Y3F4KVQ7DFLTE4FJB13,3L4D84MIL38IBSL4B9SHUGOLNLNJHR,5,6
35,3,object_04,object_02,872.0,5,1,227.0,0.1111111111111111,1,object_09,5,393,0,1,6,library_5,1,memory-2step-stake-s,539,971562,0.0-19.0-0.0-0.35,A2U1OCHJOOLVMB,306996CF7Z0Y3F4KVQ7DFLTE4FJB13,3L4D84MIL38IBSL4B9SHUGOLNLNJHR,5,6
36,4,object_06,object_08,373.0,8,2,571.0,0.7777777777777778,2,object_03,5,428,0,0,7,restaurant_8,1,memory-2step-stake-s,540,980146,0.0-19.0-0.0-0.36,A2U1OCHJOOLVMB,306996CF7Z0Y3F4KVQ7DFLTE4FJB13,3L4D84MIL38IBSL4B9SHUGOLNLNJHR,7,8
37,4,object_08,object_06,274.0,8,1,391.0,0.6666666666666666,2,object_03,5,458,0,1,6,restaurant_3,1,memory-2step-stake-s,541,988462,0.0-19.0-0.0-0.37,A2U1OCHJOOLVMB,306996CF7Z0Y3F4KVQ7DFLTE4FJB13,3L4D84MIL38IBSL4B9SHUGOLNLNJHR,8,7
38,2,object_01,object_10,685.0,3,1,287.0,0.1111111111111111,1,object_09,1,459,0,1,4,forest_6,1,memory-2step-stake-s,542,997336,0.0-19.0-0.0-0.38,A2U1OCHJOOLVMB,306996CF7Z0Y3F4KVQ7DFLTE4FJB13,3L4D84MIL38IBSL4B9SHUGOLNLNJHR,3,4
39,1,object_07,object_05,268.0,1,1,283.0,0.2222222222222222,1,object_09,1,461,0,2,6,desert_4,1,memory-2step-stake-s,543,1005127,0.0-19.0-0.0-0.39,A2U1OCHJOOLVMB,306996CF7Z0Y3F4KVQ7DFLTE4FJB13,3L4D84MIL38IBSL4B9SHUGOLNLNJHR,1,2
40,4,object_06,object_08,234.0,7,1,163.0,0.1111111111111111,1,object_09,5,466,0,1,7,restaurant_3,1,memory-2step-stake-s,544,1012707,0.0-19.0-0.0-0.40,A2U1OCHJOOLVMB,306996CF7Z0Y3F4KVQ7DFLTE4FJB13,3L4D84MIL38IBSL4B9SHUGOLNLNJHR,7,8
41,3,object_02,object_04,352.0,6,1,228.0,0.6666666666666666,2,object_03,5,496,0,4,6,library_7,1,memory-2step-stake-s,545,1020898,0.0-19.0-0.0-0.41,A2U1OCHJOOLVMB,306996CF7Z0Y3F4KVQ7DFLTE4FJB13,3L4D84MIL38IBSL4B9SHUGOLNLNJHR,6,5
42,1,object_05,object_07,205.0,2,1,255.0,0.7777777777777778,2,object_03,5,531,0,4,7,desert_8,1,memory-2step-stake-s,546,1029178,0.0-19.0-0.0-0.42,A2U1OCHJOOLVMB,306996CF7Z0Y3F4KVQ7DFLTE4FJB13,3L4D84MIL38IBSL4B9SHUGOLNLNJHR,2,1
43,1,object_07,object_05,288.0,2,2,204.0,0.5555555555555556,2,object_03,1,536,0,8,5,desert_6,1,memory-2step-stake-s,547,1037216,0.0-19.0-0.0-0.43,A2U1OCHJOOLVMB,306996CF7Z0Y3F4KVQ7DFLTE4FJB13,3L4D84MIL38IBSL4B9SHUGOLNLNJHR,1,2
44,2,object_01,object_10,204.0,3,1,288.0,0.7777777777777778,1,object_09,5,571,0,7,5,forest_6,1,memory-2step-stake-s,548,1045535,0.0-19.0-0.0-0.44,A2U1OCHJOOLVMB,306996CF7Z0Y3F4KVQ7DFLTE4FJB13,3L4D84MIL38IBSL4B9SHUGOLNLNJHR,3,4
45,4,object_06,object_08,218.0,7,1,286.0,0.5555555555555556,1,object_09,5,596,0,5,4,restaurant_8,1,memory-2step-stake-s,549,1053649,0.0-19.0-0.0-0.45,A2U1OCHJOOLVMB,306996CF7Z0Y3F4KVQ7DFLTE4FJB13,3L4D84MIL38IBSL4B9SHUGOLNLNJHR,7,8
46,2,object_01,object_10,203.0,4,2,255.0,0.1111111111111111,2,object_03,1,597,0,5,1,forest_3,1,memory-2step-stake-s,550,1061315,0.0-19.0-0.0-0.46,A2U1OCHJOOLVMB,306996CF7Z0Y3F4KVQ7DFLTE4FJB13,3L4D84MIL38IBSL4B9SHUGOLNLNJHR,3,4
47,3,object_04,object_02,251.0,5,1,329.0,0.3333333333333333,1,object_09,1,600,0,3,0,library_5,1,memory-2step-stake-s,551,1069248,0.0-19.0-0.0-0.47,A2U1OCHJOOLVMB,306996CF7Z0Y3F4KVQ7DFLTE4FJB13,3L4D84MIL38IBSL4B9SHUGOLNLNJHR,5,6
48,2,object_10,object_01,250.0,4,1,551.0,0.2222222222222222,2,object_03,5,610,0,0,2,forest_6,1,memory-2step-stake-s,552,1077316,0.0-19.0-0.0-0.48,A2U1OCHJOOLVMB,306996CF7Z0Y3F4KVQ7DFLTE4FJB13,3L4D84MIL38IBSL4B9SHUGOLNLNJHR,4,3
49,1,object_05,object_07,234.0,1,2,300.0,0.0,1,object_09,5,610,0,0,1,desert_6,1,memory-2step-stake-s,553,1084914,0.0-19.0-0.0-0.49,A2U1OCHJOOLVMB,306996CF7Z0Y3F4KVQ7DFLTE4FJB13,3L4D84MIL38IBSL4B9SHUGOLNLNJHR,2,1
50,3,object_04,object_02,452.0,5,1,256.0,0.3333333333333333,1,object_09,5,625,0,3,3,library_7,1,memory-2step-stake-s,554,1092764,0.0-19.0-0.0-0.50,A2U1OCHJOOLVMB,306996CF7Z0Y3F4KVQ7DFLTE4FJB13,3L4D84MIL38IBSL4B9SHUGOLNLNJHR,5,6
51,3,object_02,object_04,312.0,6,1,250.0,0.3333333333333333,2,object_03,5,640,0,3,3,library_7,1,memory-2step-stake-s,555,1100591,0.0-19.0-0.0-0.51,A2U1OCHJOOLVMB,306996CF7Z0Y3F4KVQ7DFLTE4FJB13,3L4D84MIL38IBSL4B9SHUGOLNLNJHR,6,5
52,4,object_08,object_06,376.0,7,2,291.0,0.0,1,object_09,5,640,0,0,4,restaurant_8,1,memory-2step-stake-s,556,1108197,0.0-19.0-0.0-0.52,A2U1OCHJOOLVMB,306996CF7Z0Y3F4KVQ7DFLTE4FJB13,3L4D84MIL38IBSL4B9SHUGOLNLNJHR,8,7
53,2,object_01,object_10,220.0,3,1,285.0,0.1111111111111111,1,object_09,1,641,0,1,4,forest_2,1,memory-2step-stake-s,557,1115864,0.0-19.0-0.0-0.53,A2U1OCHJOOLVMB,306996CF7Z0Y3F4KVQ7DFLTE4FJB13,3L4D84MIL38IBSL4B9SHUGOLNLNJHR,3,4
54,3,object_04,object_02,188.0,5,1,238.0,0.3333333333333333,1,object_09,5,656,0,3,5,library_7,1,memory-2step-stake-s,558,1123714,0.0-19.0-0.0-0.54,A2U1OCHJOOLVMB,306996CF7Z0Y3F4KVQ7DFLTE4FJB13,3L4D84MIL38IBSL4B9SHUGOLNLNJHR,5,6
55,4,object_08,object_06,235.0,7,2,350.0,0.2222222222222222,1,object_09,1,658,0,2,8,restaurant_8,1,memory-2step-stake-s,559,1131581,0.0-19.0-0.0-0.55,A2U1OCHJOOLVMB,306996CF7Z0Y3F4KVQ7DFLTE4FJB13,3L4D84MIL38IBSL4B9SHUGOLNLNJHR,8,7
56,2,object_01,object_10,484.0,4,2,912.0,0.7777777777777778,2,object_03,1,665,0,5,7,forest_2,1,memory-2step-stake-s,560,1140523,0.0-19.0-0.0-0.56,A2U1OCHJOOLVMB,306996CF7Z0Y3F4KVQ7DFLTE4FJB13,3L4D84MIL38IBSL4B9SHUGOLNLNJHR,3,4
57,2,object_10,object_01,434.0,4,1,305.0,0.8888888888888888,2,object_03,5,705,0,6,8,forest_2,1,memory-2step-stake-s,561,1148997,0.0-19.0-0.0-0.57,A2U1OCHJOOLVMB,306996CF7Z0Y3F4KVQ7DFLTE4FJB13,3L4D84MIL38IBSL4B9SHUGOLNLNJHR,4,3
58,1,object_05,object_07,203.0,2,1,273.0,0.8888888888888888,2,object_03,5,745,0,5,8,desert_8,1,memory-2step-stake-s,562,1157411,0.0-19.0-0.0-0.58,A2U1OCHJOOLVMB,306996CF7Z0Y3F4KVQ7DFLTE4FJB13,3L4D84MIL38IBSL4B9SHUGOLNLNJHR,2,1
59,1,object_05,object_07,297.0,1,2,204.0,0.4444444444444444,1,object_09,5,765,0,4,6,desert_4,1,memory-2step-stake-s,563,1165312,0.0-19.0-0.0-0.59,A2U1OCHJOOLVMB,306996CF7Z0Y3F4KVQ7DFLTE4FJB13,3L4D84MIL38IBSL4B9SHUGOLNLNJHR,2,1
60,3,object_04,object_02,220.0,5,1,210.0,0.7777777777777778,1,object_09,5,800,0,7,3,library_3,1,memory-2step-stake-s,564,1173561,0.0-19.0-0.0-0.60,A2U1OCHJOOLVMB,306996CF7Z0Y3F4KVQ7DFLTE4FJB13,3L4D84MIL38IBSL4B9SHUGOLNLNJHR,5,6
61,1,object_05,object_07,219.0,2,1,365.0,0.2222222222222222,2,object_03,1,802,0,8,2,desert_2,1,memory-2step-stake-s,565,1181445,0.0-19.0-0.0-0.61,A2U1OCHJOOLVMB,306996CF7Z0Y3F4KVQ7DFLTE4FJB13,3L4D84MIL38IBSL4B9SHUGOLNLNJHR,2,1
62,3,object_02,object_04,251.0,5,2,379.0,0.8888888888888888,1,object_09,1,810,0,8,3,library_3,1,memory-2step-stake-s,566,1189993,0.0-19.0-0.0-0.62,A2U1OCHJOOLVMB,306996CF7Z0Y3F4KVQ7DFLTE4FJB13,3L4D84MIL38IBSL4B9SHUGOLNLNJHR,6,5
63,4,object_06,object_08,141.0,7,1,711.0,0.5555555555555556,1,object_09,5,835,0,5,2,restaurant_2,1,memory-2step-stake-s,567,1198510,0.0-19.0-0.0-0.63,A2U1OCHJOOLVMB,306996CF7Z0Y3F4KVQ7DFLTE4FJB13,3L4D84MIL38IBSL4B9SHUGOLNLNJHR,7,8
64,1,object_07,object_05,64.0,1,1,310.0,0.8888888888888888,1,object_09,1,843,0,8,3,desert_2,1,memory-2step-stake-s,568,1206960,0.0-19.0-0.0-0.64,A2U1OCHJOOLVMB,306996CF7Z0Y3F4KVQ7DFLTE4FJB13,3L4D84MIL38IBSL4B9SHUGOLNLNJHR,1,2
65,1,object_07,object_05,188.0,2,2,443.0,0.0,2,object_03,1,843,0,9,0,desert_6,1,memory-2step-stake-s,569,1214709,0.0-19.0-0.0-0.65,A2U1OCHJOOLVMB,306996CF7Z0Y3F4KVQ7DFLTE4FJB13,3L4D84MIL38IBSL4B9SHUGOLNLNJHR,1,2
66,3,object_02,object_04,346.0,6,1,215.0,0.0,2,object_03,5,843,0,7,0,library_7,1,memory-2step-stake-s,570,1222208,0.0-19.0-0.0-0.66,A2U1OCHJOOLVMB,306996CF7Z0Y3F4KVQ7DFLTE4FJB13,3L4D84MIL38IBSL4B9SHUGOLNLNJHR,6,5
67,2,object_01,object_10,328.0,3,1,278.0,0.7777777777777778,1,object_09,1,850,0,7,1,forest_6,1,memory-2step-stake-s,571,1230526,0.0-19.0-0.0-0.67,A2U1OCHJOOLVMB,306996CF7Z0Y3F4KVQ7DFLTE4FJB13,3L4D84MIL38IBSL4B9SHUGOLNLNJHR,3,4
68,2,object_10,object_01,422.0,3,2,398.0,0.6666666666666666,1,object_09,1,856,0,6,4,forest_2,1,memory-2step-stake-s,572,1238876,0.0-19.0-0.0-0.68,A2U1OCHJOOLVMB,306996CF7Z0Y3F4KVQ7DFLTE4FJB13,3L4D84MIL38IBSL4B9SHUGOLNLNJHR,4,3
69,2,object_01,object_10,-1.0,-1,-1,-1.0,0.0,-,0,1,856,0,3,5,forest_2,1,memory-2step-stake-s,573,1245425,0.0-19.0-0.0-0.69,A2U1OCHJOOLVMB,306996CF7Z0Y3F4KVQ7DFLTE4FJB13,3L4D84MIL38IBSL4B9SHUGOLNLNJHR,3,4
70,1,object_07,object_05,344.0,1,1,681.0,0.6666666666666666,1,object_09,5,886,0,6,4,desert_2,1,memory-2step-stake-s,574,1254043,0.0-19.0-0.0-0.70,A2U1OCHJOOLVMB,306996CF7Z0Y3F4KVQ7DFLTE4FJB13,3L4D84MIL38IBSL4B9SHUGOLNLNJHR,1,2
71,2,object_10,object_01,422.0,3,2,489.0,0.5555555555555556,1,object_09,5,911,0,5,5,forest_6,1,memory-2step-stake-s,575,1262391,0.0-19.0-0.0-0.71,A2U1OCHJOOLVMB,306996CF7Z0Y3F4KVQ7DFLTE4FJB13,3L4D84MIL38IBSL4B9SHUGOLNLNJHR,4,3
72,1,object_05,object_07,531.0,1,2,312.0,0.7777777777777778,1,object_09,1,918,0,7,2,desert_8,1,memory-2step-stake-s,576,1270747,0.0-19.0-0.0-0.72,A2U1OCHJOOLVMB,306996CF7Z0Y3F4KVQ7DFLTE4FJB13,3L4D84MIL38IBSL4B9SHUGOLNLNJHR,2,1
73,1,object_05,object_07,296.0,1,2,344.0,0.6666666666666666,1,object_09,1,924,0,6,2,desert_6,1,memory-2step-stake-s,577,1279035,0.0-19.0-0.0-0.73,A2U1OCHJOOLVMB,306996CF7Z0Y3F4KVQ7DFLTE4FJB13,3L4D84MIL38IBSL4B9SHUGOLNLNJHR,2,1
74,3,object_04,object_02,158.0,6,2,307.0,0.5555555555555556,2,object_03,1,929,0,4,5,library_7,1,memory-2step-stake-s,578,1287191,0.0-19.0-0.0-0.74,A2U1OCHJOOLVMB,306996CF7Z0Y3F4KVQ7DFLTE4FJB13,3L4D84MIL38IBSL4B9SHUGOLNLNJHR,5,6
75,1,object_07,object_05,34.0,1,1,172.0,0.2222222222222222,1,object_09,1,931,0,2,3,desert_6,1,memory-2step-stake-s,579,1294867,0.0-19.0-0.0-0.75,A2U1OCHJOOLVMB,306996CF7Z0Y3F4KVQ7DFLTE4FJB13,3L4D84MIL38IBSL4B9SHUGOLNLNJHR,1,2
76,3,object_04,object_02,65.0,5,1,249.0,0.0,1,object_09,5,931,0,0,5,library_4,1,memory-2step-stake-s,580,1302406,0.0-19.0-0.0-0.76,A2U1OCHJOOLVMB,306996CF7Z0Y3F4KVQ7DFLTE4FJB13,3L4D84MIL38IBSL4B9SHUGOLNLNJHR,5,6
77,1,object_05,object_07,234.0,1,2,194.0,0.2222222222222222,1,object_09,1,933,0,2,4,desert_4,1,memory-2step-stake-s,581,1310107,0.0-19.0-0.0-0.77,A2U1OCHJOOLVMB,306996CF7Z0Y3F4KVQ7DFLTE4FJB13,3L4D84MIL38IBSL4B9SHUGOLNLNJHR,2,1
78,1,object_05,object_07,187.0,2,1,163.0,0.4444444444444444,2,object_03,5,953,0,4,4,desert_2,1,memory-2step-stake-s,582,1317990,0.0-19.0-0.0-0.78,A2U1OCHJOOLVMB,306996CF7Z0Y3F4KVQ7DFLTE4FJB13,3L4D84MIL38IBSL4B9SHUGOLNLNJHR,2,1
79,4,object_08,object_06,343.0,7,2,439.0,0.7777777777777778,1,object_09,1,960,0,7,1,restaurant_1,1,memory-2step-stake-s,583,1328421,0.0-19.0-0.0-0.79,A2U1OCHJOOLVMB,306996CF7Z0Y3F4KVQ7DFLTE4FJB13,3L4D84MIL38IBSL4B9SHUGOLNLNJHR,8,7
80,2,object_01,object_10,47.0,3,1,249.0,0.3333333333333333,1,object_09,1,963,0,3,1,forest_3,1,memory-2step-stake-s,584,1336255,0.0-19.0-0.0-0.80,A2U1OCHJOOLVMB,306996CF7Z0Y3F4KVQ7DFLTE4FJB13,3L4D84MIL38IBSL4B9SHUGOLNLNJHR,3,4
81,2,object_01,object_10,1015.0,3,1,921.0,0.1111111111111111,1,object_09,1,964,0,1,1,forest_3,1,memory-2step-stake-s,585,1344571,0.0-19.0-0.0-0.81,A2U1OCHJOOLVMB,306996CF7Z0Y3F4KVQ7DFLTE4FJB13,3L4D84MIL38IBSL4B9SHUGOLNLNJHR,3,4
82,2,object_01,object_10,376.0,4,2,305.0,0.3333333333333333,2,object_03,1,967,0,1,3,forest_7,1,memory-2step-stake-s,586,1352504,0.0-19.0-0.0-0.82,A2U1OCHJOOLVMB,306996CF7Z0Y3F4KVQ7DFLTE4FJB13,3L4D84MIL38IBSL4B9SHUGOLNLNJHR,3,4
83,2,object_01,object_10,188.0,3,1,319.0,0.1111111111111111,1,object_09,5,972,0,1,1,forest_6,1,memory-2step-stake-s,587,1360226,0.0-19.0-0.0-0.83,A2U1OCHJOOLVMB,306996CF7Z0Y3F4KVQ7DFLTE4FJB13,3L4D84MIL38IBSL4B9SHUGOLNLNJHR,3,4
84,1,object_05,object_07,250.0,2,1,395.0,0.0,2,object_03,5,972,0,0,0,desert_8,1,memory-2step-stake-s,588,1367937,0.0-19.0-0.0-0.84,A2U1OCHJOOLVMB,306996CF7Z0Y3F4KVQ7DFLTE4FJB13,3L4D84MIL38IBSL4B9SHUGOLNLNJHR,2,1
85,2,object_10,object_01,329.0,3,2,323.0,0.1111111111111111,1,object_09,1,973,0,1,1,forest_3,1,memory-2step-stake-s,589,1375669,0.0-19.0-0.0-0.85,A2U1OCHJOOLVMB,306996CF7Z0Y3F4KVQ7DFLTE4FJB13,3L4D84MIL38IBSL4B9SHUGOLNLNJHR,4,3
86,4,object_08,object_06,189.0,8,1,225.0,0.2222222222222222,2,object_03,5,983,0,0,2,restaurant_2,1,memory-2step-stake-s,590,1383402,0.0-19.0-0.0-0.86,A2U1OCHJOOLVMB,306996CF7Z0Y3F4KVQ7DFLTE4FJB13,3L4D84MIL38IBSL4B9SHUGOLNLNJHR,8,7
87,3,object_02,object_04,562.0,5,2,280.0,0.1111111111111111,1,object_09,5,988,0,1,1,library_3,1,memory-2step-stake-s,591,1391085,0.0-19.0-0.0-0.87,A2U1OCHJOOLVMB,306996CF7Z0Y3F4KVQ7DFLTE4FJB13,3L4D84MIL38IBSL4B9SHUGOLNLNJHR,6,5
88,1,object_07,object_05,203.0,1,1,226.0,0.1111111111111111,1,object_09,1,989,0,1,1,desert_4,1,memory-2step-stake-s,592,1398687,0.0-19.0-0.0-0.88,A2U1OCHJOOLVMB,306996CF7Z0Y3F4KVQ7DFLTE4FJB13,3L4D84MIL38IBSL4B9SHUGOLNLNJHR,1,2
89,3,object_02,object_04,204.0,6,1,257.0,0.0,2,object_03,1,989,0,2,0,library_4,1,memory-2step-stake-s,593,1406237,0.0-19.0-0.0-0.89,A2U1OCHJOOLVMB,306996CF7Z0Y3F4KVQ7DFLTE4FJB13,3L4D84MIL38IBSL4B9SHUGOLNLNJHR,6,5
90,4,object_08,object_06,251.0,8,1,145.0,0.2222222222222222,2,object_03,5,999,0,6,2,restaurant_8,1,memory-2step-stake-s,594,1413903,0.0-19.0-0.0-0.90,A2U1OCHJOOLVMB,306996CF7Z0Y3F4KVQ7DFLTE4FJB13,3L4D84MIL38IBSL4B9SHUGOLNLNJHR,8,7
91,4,object_06,object_08,235.0,7,1,335.0,0.4444444444444444,1,object_09,1,1003,0,4,0,restaurant_2,1,memory-2step-stake-s,595,1421969,0.0-19.0-0.0-0.91,A2U1OCHJOOLVMB,306996CF7Z0Y3F4KVQ7DFLTE4FJB13,3L4D84MIL38IBSL4B9SHUGOLNLNJHR,7,8
92,4,object_06,object_08,204.0,8,2,302.0,0.0,2,object_03,5,1003,0,5,0,restaurant_2,1,memory-2step-stake-s,596,1429569,0.0-19.0-0.0-0.92,A2U1OCHJOOLVMB,306996CF7Z0Y3F4KVQ7DFLTE4FJB13,3L4D84MIL38IBSL4B9SHUGOLNLNJHR,7,8
93,4,object_06,object_08,220.0,7,1,210.0,0.3333333333333333,1,object_09,5,1018,0,3,2,restaurant_1,1,memory-2step-stake-s,597,1437402,0.0-19.0-0.0-0.93,A2U1OCHJOOLVMB,306996CF7Z0Y3F4KVQ7DFLTE4FJB13,3L4D84MIL38IBSL4B9SHUGOLNLNJHR,7,8
94,3,object_02,object_04,374.0,6,1,322.0,0.0,2,object_03,5,1018,0,5,0,library_4,1,memory-2step-stake-s,598,1445017,0.0-19.0-0.0-0.94,A2U1OCHJOOLVMB,306996CF7Z0Y3F4KVQ7DFLTE4FJB13,3L4D84MIL38IBSL4B9SHUGOLNLNJHR,6,5
95,1,object_05,object_07,562.0,2,1,749.0,0.2222222222222222,2,object_03,5,1028,0,9,2,desert_6,1,memory-2step-stake-s,599,1453234,0.0-19.0-0.0-0.95,A2U1OCHJOOLVMB,306996CF7Z0Y3F4KVQ7DFLTE4FJB13,3L4D84MIL38IBSL4B9SHUGOLNLNJHR,2,1
96,4,object_06,object_08,500.0,8,2,205.0,0.0,2,object_03,1,1028,0,6,0,restaurant_1,1,memory-2step-stake-s,600,1460716,0.0-19.0-0.0-0.96,A2U1OCHJOOLVMB,306996CF7Z0Y3F4KVQ7DFLTE4FJB13,3L4D84MIL38IBSL4B9SHUGOLNLNJHR,7,8
97,1,object_05,object_07,375.0,2,1,274.0,0.3333333333333333,2,object_03,5,1043,0,4,3,desert_4,1,memory-2step-stake-s,601,1468593,0.0-19.0-0.0-0.97,A2U1OCHJOOLVMB,306996CF7Z0Y3F4KVQ7DFLTE4FJB13,3L4D84MIL38IBSL4B9SHUGOLNLNJHR,2,1
98,2,object_01,object_10,280.0,4,2,253.0,0.4444444444444444,2,object_03,1,1047,0,4,4,forest_2,1,memory-2step-stake-s,602,1476584,0.0-19.0-0.0-0.98,A2U1OCHJOOLVMB,306996CF7Z0Y3F4KVQ7DFLTE4FJB13,3L4D84MIL38IBSL4B9SHUGOLNLNJHR,3,4
99,2,object_10,object_01,203.0,4,1,336.0,0.4444444444444444,2,object_03,1,1051,0,3,4,forest_2,1,memory-2step-stake-s,603,1484649,0.0-19.0-0.0-0.99,A2U1OCHJOOLVMB,306996CF7Z0Y3F4KVQ7DFLTE4FJB13,3L4D84MIL38IBSL4B9SHUGOLNLNJHR,4,3
100,2,object_10,object_01,249.0,3,2,349.0,0.4444444444444444,1,object_09,1,1055,0,4,2,forest_2,1,memory-2step-stake-s,604,1492732,0.0-19.0-0.0-0.100,A2U1OCHJOOLVMB,306996CF7Z0Y3F4KVQ7DFLTE4FJB13,3L4D84MIL38IBSL4B9SHUGOLNLNJHR,4,3
101,2,object_10,object_01,297.0,3,2,-1.0,0.0,1,object_09,1,1055,0,4,2,forest_2,1,memory-2step-stake-s,605,1501298,0.0-19.0-0.0-0.101,A2U1OCHJOOLVMB,306996CF7Z0Y3F4KVQ7DFLTE4FJB13,3L4D84MIL38IBSL4B9SHUGOLNLNJHR,4,3
102,1,object_05,object_07,687.0,2,1,477.0,0.1111111111111111,2,object_03,1,1056,0,2,1,desert_4,1,memory-2step-stake-s,606,1509149,0.0-19.0-0.0-0.102,A2U1OCHJOOLVMB,306996CF7Z0Y3F4KVQ7DFLTE4FJB13,3L4D84MIL38IBSL4B9SHUGOLNLNJHR,2,1
103,3,object_04,object_02,220.0,6,2,242.0,0.2222222222222222,2,object_03,5,1066,0,0,2,library_5,1,memory-2step-stake-s,607,1516898,0.0-19.0-0.0-0.103,A2U1OCHJOOLVMB,306996CF7Z0Y3F4KVQ7DFLTE4FJB13,3L4D84MIL38IBSL4B9SHUGOLNLNJHR,5,6
104,1,object_07,object_05,237.0,1,1,896.0,0.2222222222222222,1,object_09,1,1068,0,2,0,desert_8,1,memory-2step-stake-s,608,1525314,0.0-19.0-0.0-0.104,A2U1OCHJOOLVMB,306996CF7Z0Y3F4KVQ7DFLTE4FJB13,3L4D84MIL38IBSL4B9SHUGOLNLNJHR,1,2
105,3,object_02,object_04,469.0,5,2,194.0,0.3333333333333333,1,object_09,5,1083,0,3,2,library_3,1,memory-2step-stake-s,609,1533113,0.0-19.0-0.0-0.105,A2U1OCHJOOLVMB,306996CF7Z0Y3F4KVQ7DFLTE4FJB13,3L4D84MIL38IBSL4B9SHUGOLNLNJHR,6,5
106,3,object_02,object_04,422.0,5,2,302.0,0.2222222222222222,1,object_09,5,1093,0,2,3,library_4,1,memory-2step-stake-s,610,1540930,0.0-19.0-0.0-0.106,A2U1OCHJOOLVMB,306996CF7Z0Y3F4KVQ7DFLTE4FJB13,3L4D84MIL38IBSL4B9SHUGOLNLNJHR,6,5
107,2,object_10,object_01,500.0,3,2,-1.0,0.0,1,object_09,1,1093,0,2,4,forest_7,1,memory-2step-stake-s,611,1549507,0.0-19.0-0.0-0.107,A2U1OCHJOOLVMB,306996CF7Z0Y3F4KVQ7DFLTE4FJB13,3L4D84MIL38IBSL4B9SHUGOLNLNJHR,4,3
108,1,object_07,object_05,-1.0,-1,-1,-1.0,0.0,-,0,1,1093,0,0,9,desert_4,1,memory-2step-stake-s,612,1556036,0.0-19.0-0.0-0.108,A2U1OCHJOOLVMB,306996CF7Z0Y3F4KVQ7DFLTE4FJB13,3L4D84MIL38IBSL4B9SHUGOLNLNJHR,1,2
109,1,object_07,object_05,252.0,1,1,581.0,0.1111111111111111,1,object_09,1,1094,0,1,8,desert_8,1,memory-2step-stake-s,613,1564030,0.0-19.0-0.0-0.109,A2U1OCHJOOLVMB,306996CF7Z0Y3F4KVQ7DFLTE4FJB13,3L4D84MIL38IBSL4B9SHUGOLNLNJHR,1,2
110,1,object_05,object_07,497.0,2,1,453.0,0.7777777777777778,2,object_03,5,1129,0,2,7,desert_8,1,memory-2step-stake-s,614,1572529,0.0-19.0-0.0-0.110,A2U1OCHJOOLVMB,306996CF7Z0Y3F4KVQ7DFLTE4FJB13,3L4D84MIL38IBSL4B9SHUGOLNLNJHR,2,1
111,1,object_05,object_07,249.0,2,1,627.0,0.5555555555555556,2,object_03,1,1134,0,0,5,desert_2,1,memory-2step-stake-s,615,1580936,0.0-19.0-0.0-0.111,A2U1OCHJOOLVMB,306996CF7Z0Y3F4KVQ7DFLTE4FJB13,3L4D84MIL38IBSL4B9SHUGOLNLNJHR,2,1
112,1,object_05,object_07,1304.0,2,1,593.0,0.8888888888888888,2,object_03,1,1142,0,2,8,desert_6,1,memory-2step-stake-s,616,1590923,0.0-19.0-0.0-0.112,A2U1OCHJOOLVMB,306996CF7Z0Y3F4KVQ7DFLTE4FJB13,3L4D84MIL38IBSL4B9SHUGOLNLNJHR,2,1
113,4,object_08,object_06,265.0,8,1,347.0,0.6666666666666666,2,object_03,5,1172,0,3,6,restaurant_3,1,memory-2step-stake-s,617,1599193,0.0-19.0-0.0-0.113,A2U1OCHJOOLVMB,306996CF7Z0Y3F4KVQ7DFLTE4FJB13,3L4D84MIL38IBSL4B9SHUGOLNLNJHR,8,7
114,2,object_01,object_10,235.0,3,1,318.0,0.6666666666666666,1,object_09,5,1202,0,6,4,forest_3,1,memory-2step-stake-s,618,1607394,0.0-19.0-0.0-0.114,A2U1OCHJOOLVMB,306996CF7Z0Y3F4KVQ7DFLTE4FJB13,3L4D84MIL38IBSL4B9SHUGOLNLNJHR,3,4
115,2,object_10,object_01,624.0,4,1,401.0,0.4444444444444444,2,object_03,1,1206,0,7,4,forest_3,1,memory-2step-stake-s,619,1615512,0.0-19.0-0.0-0.115,A2U1OCHJOOLVMB,306996CF7Z0Y3F4KVQ7DFLTE4FJB13,3L4D84MIL38IBSL4B9SHUGOLNLNJHR,4,3
116,4,object_06,object_08,246.0,7,1,247.0,0.6666666666666666,1,object_09,5,1236,0,6,3,restaurant_1,1,memory-2step-stake-s,620,1623643,0.0-19.0-0.0-0.116,A2U1OCHJOOLVMB,306996CF7Z0Y3F4KVQ7DFLTE4FJB13,3L4D84MIL38IBSL4B9SHUGOLNLNJHR,7,8
117,2,object_10,object_01,281.0,4,1,1110.0,0.4444444444444444,2,object_03,1,1240,0,6,4,forest_3,1,memory-2step-stake-s,621,1632478,0.0-19.0-0.0-0.117,A2U1OCHJOOLVMB,306996CF7Z0Y3F4KVQ7DFLTE4FJB13,3L4D84MIL38IBSL4B9SHUGOLNLNJHR,4,3
118,4,object_08,object_06,126.0,7,2,244.0,0.6666666666666666,1,object_09,1,1246,0,6,4,restaurant_8,1,memory-2step-stake-s,622,1640661,0.0-19.0-0.0-0.118,A2U1OCHJOOLVMB,306996CF7Z0Y3F4KVQ7DFLTE4FJB13,3L4D84MIL38IBSL4B9SHUGOLNLNJHR,8,7
119,2,object_01,object_10,140.0,3,1,227.0,0.7777777777777778,1,object_09,1,1253,0,7,5,forest_7,1,memory-2step-stake-s,623,1648943,0.0-19.0-0.0-0.119,A2U1OCHJOOLVMB,306996CF7Z0Y3F4KVQ7DFLTE4FJB13,3L4D84MIL38IBSL4B9SHUGOLNLNJHR,3,4
120,1,object_07,object_05,157.0,2,2,272.0,0.3333333333333333,2,object_03,1,1256,0,5,3,desert_4,1,memory-2step-stake-s,624,1656811,0.0-19.0-0.0-0.120,A2U1OCHJOOLVMB,306996CF7Z0Y3F4KVQ7DFLTE4FJB13,3L4D84MIL38IBSL4B9SHUGOLNLNJHR,1,2
121,2,object_01,object_10,141.0,3,1,321.0,0.5555555555555556,1,object_09,1,1261,0,5,1,forest_3,1,memory-2step-stake-s,625,1664943,0.0-19.0-0.0-0.121,A2U1OCHJOOLVMB,306996CF7Z0Y3F4KVQ7DFLTE4FJB13,3L4D84MIL38IBSL4B9SHUGOLNLNJHR,3,4
122,2,object_01,object_10,281.0,3,1,814.0,0.5555555555555556,1,object_09,1,1266,0,5,1,forest_7,1,memory-2step-stake-s,626,1673576,0.0-19.0-0.0-0.122,A2U1OCHJOOLVMB,306996CF7Z0Y3F4KVQ7DFLTE4FJB13,3L4D84MIL38IBSL4B9SHUGOLNLNJHR,3,4
123,1,object_05,object_07,250.0,2,1,268.0,0.6666666666666666,2,object_03,1,1272,0,9,6,desert_2,1,memory-2step-stake-s,627,1681776,0.0-19.0-0.0-0.123,A2U1OCHJOOLVMB,306996CF7Z0Y3F4KVQ7DFLTE4FJB13,3L4D84MIL38IBSL4B9SHUGOLNLNJHR,2,1
124,1,object_05,object_07,281.0,1,2,173.0,0.7777777777777778,1,object_09,1,1279,0,7,4,desert_8,1,memory-2step-stake-s,628,1689992,0.0-19.0-0.0-0.124,A2U1OCHJOOLVMB,306996CF7Z0Y3F4KVQ7DFLTE4FJB13,3L4D84MIL38IBSL4B9SHUGOLNLNJHR,2,1
125,4,object_08,object_06,203.0,8,1,303.0,0.1111111111111111,2,object_03,1,1280,0,6,1,restaurant_3,1,memory-2step-stake-s,629,1697708,0.0-19.0-0.0-0.125,A2U1OCHJOOLVMB,306996CF7Z0Y3F4KVQ7DFLTE4FJB13,3L4D84MIL38IBSL4B9SHUGOLNLNJHR,8,7
126,4,object_08,object_06,95.0,7,2,231.0,0.4444444444444444,1,object_09,5,1300,0,4,4,restaurant_2,1,memory-2step-stake-s,630,1705652,0.0-19.0-0.0-0.126,A2U1OCHJOOLVMB,306996CF7Z0Y3F4KVQ7DFLTE4FJB13,3L4D84MIL38IBSL4B9SHUGOLNLNJHR,8,7
127,4,object_06,object_08,252.0,7,1,207.0,0.3333333333333333,1,object_09,5,1315,0,3,5,restaurant_3,1,memory-2step-stake-s,631,1713690,0.0-19.0-0.0-0.127,A2U1OCHJOOLVMB,306996CF7Z0Y3F4KVQ7DFLTE4FJB13,3L4D84MIL38IBSL4B9SHUGOLNLNJHR,7,8
128,3,object_04,object_02,1436.0,5,1,195.0,0.4444444444444444,1,object_09,1,1319,0,4,3,library_3,1,memory-2step-stake-s,633,5552149,0.0-19.0-0.1-0.128,A2U1OCHJOOLVMB,306996CF7Z0Y3F4KVQ7DFLTE4FJB13,3L4D84MIL38IBSL4B9SHUGOLNLNJHR,5,6
129,3,object_04,object_02,265.0,5,1,205.0,0.1111111111111111,1,object_09,5,1324,0,1,3,library_4,1,memory-2step-stake-s,634,5559742,0.0-19.0-0.1-0.129,A2U1OCHJOOLVMB,306996CF7Z0Y3F4KVQ7DFLTE4FJB13,3L4D84MIL38IBSL4B9SHUGOLNLNJHR,5,6
130,3,object_04,object_02,1021.0,5,1,300.0,0.3333333333333333,1,object_09,1,1327,0,3,2,library_3,1,memory-2step-stake-s,635,5567615,0.0-19.0-0.1-0.130,A2U1OCHJOOLVMB,306996CF7Z0Y3F4KVQ7DFLTE4FJB13,3L4D84MIL38IBSL4B9SHUGOLNLNJHR,5,6
131,4,object_08,object_06,219.0,8,1,257.0,0.4444444444444444,2,object_03,5,1347,0,1,4,restaurant_2,1,memory-2step-stake-s,636,5575586,0.0-19.0-0.1-0.131,A2U1OCHJOOLVMB,306996CF7Z0Y3F4KVQ7DFLTE4FJB13,3L4D84MIL38IBSL4B9SHUGOLNLNJHR,8,7
132,2,object_10,object_01,220.0,4,1,288.0,0.3333333333333333,2,object_03,1,1350,0,3,3,forest_6,1,memory-2step-stake-s,637,5583468,0.0-19.0-0.1-0.132,A2U1OCHJOOLVMB,306996CF7Z0Y3F4KVQ7DFLTE4FJB13,3L4D84MIL38IBSL4B9SHUGOLNLNJHR,4,3
133,2,object_01,object_10,300.0,3,1,205.0,0.2222222222222222,1,object_09,5,1360,0,2,3,forest_3,1,memory-2step-stake-s,638,5591169,0.0-19.0-0.1-0.133,A2U1OCHJOOLVMB,306996CF7Z0Y3F4KVQ7DFLTE4FJB13,3L4D84MIL38IBSL4B9SHUGOLNLNJHR,3,4
134,2,object_01,object_10,765.0,3,1,268.0,0.4444444444444444,1,object_09,1,1364,0,4,6,forest_7,1,memory-2step-stake-s,639,5599136,0.0-19.0-0.1-0.134,A2U1OCHJOOLVMB,306996CF7Z0Y3F4KVQ7DFLTE4FJB13,3L4D84MIL38IBSL4B9SHUGOLNLNJHR,3,4
135,4,object_08,object_06,297.0,8,1,236.0,0.3333333333333333,2,object_03,5,1379,0,4,3,restaurant_1,1,memory-2step-stake-s,640,5606965,0.0-19.0-0.1-0.135,A2U1OCHJOOLVMB,306996CF7Z0Y3F4KVQ7DFLTE4FJB13,3L4D84MIL38IBSL4B9SHUGOLNLNJHR,8,7
136,3,object_04,object_02,221.0,6,2,176.0,0.4444444444444444,2,object_03,1,1383,0,2,4,library_5,1,memory-2step-stake-s,641,5614852,0.0-19.0-0.1-0.136,A2U1OCHJOOLVMB,306996CF7Z0Y3F4KVQ7DFLTE4FJB13,3L4D84MIL38IBSL4B9SHUGOLNLNJHR,5,6
137,3,object_02,object_04,218.0,6,1,314.0,0.6666666666666666,2,object_03,5,1413,0,0,6,library_7,1,memory-2step-stake-s,642,5623083,0.0-19.0-0.1-0.137,A2U1OCHJOOLVMB,306996CF7Z0Y3F4KVQ7DFLTE4FJB13,3L4D84MIL38IBSL4B9SHUGOLNLNJHR,6,5
138,4,object_08,object_06,252.0,8,1,163.0,0.5555555555555556,2,object_03,5,1438,0,3,5,restaurant_2,1,memory-2step-stake-s,643,5631066,0.0-19.0-0.1-0.138,A2U1OCHJOOLVMB,306996CF7Z0Y3F4KVQ7DFLTE4FJB13,3L4D84MIL38IBSL4B9SHUGOLNLNJHR,8,7
139,1,object_05,object_07,125.0,2,1,171.0,0.6666666666666666,2,object_03,1,1444,0,1,6,desert_6,1,memory-2step-stake-s,644,5639167,0.0-19.0-0.1-0.139,A2U1OCHJOOLVMB,306996CF7Z0Y3F4KVQ7DFLTE4FJB13,3L4D84MIL38IBSL4B9SHUGOLNLNJHR,2,1
140,3,object_02,object_04,47.0,6,1,156.0,0.8888888888888888,2,object_03,5,1484,0,3,8,library_4,1,memory-2step-stake-s,645,5647462,0.0-19.0-0.1-0.140,A2U1OCHJOOLVMB,306996CF7Z0Y3F4KVQ7DFLTE4FJB13,3L4D84MIL38IBSL4B9SHUGOLNLNJHR,6,5
141,3,object_04,object_02,187.0,5,1,147.0,0.5555555555555556,1,object_09,5,1509,0,5,7,library_3,1,memory-2step-stake-s,646,5655415,0.0-19.0-0.1-0.141,A2U1OCHJOOLVMB,306996CF7Z0Y3F4KVQ7DFLTE4FJB13,3L4D84MIL38IBSL4B9SHUGOLNLNJHR,5,6
142,4,object_06,object_08,203.0,8,2,226.0,0.6666666666666666,2,object_03,5,1539,0,3,6,restaurant_8,1,memory-2step-stake-s,647,5663567,0.0-19.0-0.1-0.142,A2U1OCHJOOLVMB,306996CF7Z0Y3F4KVQ7DFLTE4FJB13,3L4D84MIL38IBSL4B9SHUGOLNLNJHR,7,8
143,3,object_04,object_02,218.0,5,1,224.0,0.4444444444444444,1,object_09,5,1559,0,4,9,library_5,1,memory-2step-stake-s,648,5671512,0.0-19.0-0.1-0.143,A2U1OCHJOOLVMB,306996CF7Z0Y3F4KVQ7DFLTE4FJB13,3L4D84MIL38IBSL4B9SHUGOLNLNJHR,5,6
144,4,object_08,object_06,254.0,8,1,272.0,0.8888888888888888,2,object_03,5,1599,0,3,8,restaurant_1,1,memory-2step-stake-s,649,5679931,0.0-19.0-0.1-0.144,A2U1OCHJOOLVMB,306996CF7Z0Y3F4KVQ7DFLTE4FJB13,3L4D84MIL38IBSL4B9SHUGOLNLNJHR,8,7
145,2,object_10,object_01,249.0,4,1,161.0,0.8888888888888888,2,object_03,5,1639,0,1,8,forest_3,1,memory-2step-stake-s,650,5688266,0.0-19.0-0.1-0.145,A2U1OCHJOOLVMB,306996CF7Z0Y3F4KVQ7DFLTE4FJB13,3L4D84MIL38IBSL4B9SHUGOLNLNJHR,4,3
146,3,object_04,object_02,204.0,5,1,195.0,0.3333333333333333,1,object_09,5,1654,0,3,9,library_5,1,memory-2step-stake-s,651,5696081,0.0-19.0-0.1-0.146,A2U1OCHJOOLVMB,306996CF7Z0Y3F4KVQ7DFLTE4FJB13,3L4D84MIL38IBSL4B9SHUGOLNLNJHR,5,6
147,2,object_10,object_01,387.0,3,2,866.0,0.3333333333333333,1,object_09,1,1657,0,3,8,forest_2,1,memory-2step-stake-s,652,5704548,0.0-19.0-0.1-0.147,A2U1OCHJOOLVMB,306996CF7Z0Y3F4KVQ7DFLTE4FJB13,3L4D84MIL38IBSL4B9SHUGOLNLNJHR,4,3
148,1,object_05,object_07,294.0,2,1,186.0,0.7777777777777778,2,object_03,1,1664,0,4,7,desert_4,1,memory-2step-stake-s,653,5713330,0.0-19.0-0.1-0.148,A2U1OCHJOOLVMB,306996CF7Z0Y3F4KVQ7DFLTE4FJB13,3L4D84MIL38IBSL4B9SHUGOLNLNJHR,2,1
149,2,object_10,object_01,314.0,4,1,168.0,0.7777777777777778,2,object_03,1,1671,0,6,7,forest_7,1,memory-2step-stake-s,654,5721529,0.0-19.0-0.1-0.149,A2U1OCHJOOLVMB,306996CF7Z0Y3F4KVQ7DFLTE4FJB13,3L4D84MIL38IBSL4B9SHUGOLNLNJHR,4,3
150,3,object_04,object_02,207.0,5,1,149.0,1.0,1,object_09,5,1716,0,9,7,library_3,1,memory-2step-stake-s,655,5729946,0.0-19.0-0.1-0.150,A2U1OCHJOOLVMB,306996CF7Z0Y3F4KVQ7DFLTE4FJB13,3L4D84MIL38IBSL4B9SHUGOLNLNJHR,5,6
151,2,object_10,object_01,250.0,4,1,198.0,0.7777777777777778,2,object_03,1,1723,0,6,7,forest_7,1,memory-2step-stake-s,656,5738158,0.0-19.0-0.1-0.151,A2U1OCHJOOLVMB,306996CF7Z0Y3F4KVQ7DFLTE4FJB13,3L4D84MIL38IBSL4B9SHUGOLNLNJHR,4,3
152,1,object_07,object_05,282.0,2,2,311.0,0.8888888888888888,2,object_03,5,1763,0,6,8,desert_4,1,memory-2step-stake-s,657,5746613,0.0-19.0-0.1-0.152,A2U1OCHJOOLVMB,306996CF7Z0Y3F4KVQ7DFLTE4FJB13,3L4D84MIL38IBSL4B9SHUGOLNLNJHR,1,2
153,4,object_08,object_06,187.0,8,1,179.0,1.0,2,object_03,5,1808,0,2,9,restaurant_2,1,memory-2step-stake-s,658,5755080,0.0-19.0-0.1-0.153,A2U1OCHJOOLVMB,306996CF7Z0Y3F4KVQ7DFLTE4FJB13,3L4D84MIL38IBSL4B9SHUGOLNLNJHR,8,7
154,4,object_08,object_06,189.0,8,1,241.0,0.8888888888888888,2,object_03,5,1848,0,1,8,restaurant_3,1,memory-2step-stake-s,659,5763478,0.0-19.0-0.1-0.154,A2U1OCHJOOLVMB,306996CF7Z0Y3F4KVQ7DFLTE4FJB13,3L4D84MIL38IBSL4B9SHUGOLNLNJHR,8,7
155,2,object_10,object_01,282.0,4,1,339.0,0.7777777777777778,2,object_03,1,1855,0,0,7,forest_2,1,memory-2step-stake-s,660,5771853,0.0-19.0-0.1-0.155,A2U1OCHJOOLVMB,306996CF7Z0Y3F4KVQ7DFLTE4FJB13,3L4D84MIL38IBSL4B9SHUGOLNLNJHR,4,3
156,4,object_06,object_08,298.0,7,1,292.0,0.3333333333333333,1,object_09,5,1870,0,3,8,restaurant_2,1,memory-2step-stake-s,661,5779754,0.0-19.0-0.1-0.156,A2U1OCHJOOLVMB,306996CF7Z0Y3F4KVQ7DFLTE4FJB13,3L4D84MIL38IBSL4B9SHUGOLNLNJHR,7,8
157,1,object_05,object_07,252.0,1,2,302.0,0.6666666666666666,1,object_09,1,1876,0,6,9,desert_6,1,memory-2step-stake-s,662,5787993,0.0-19.0-0.1-0.157,A2U1OCHJOOLVMB,306996CF7Z0Y3F4KVQ7DFLTE4FJB13,3L4D84MIL38IBSL4B9SHUGOLNLNJHR,2,1
158,4,object_06,object_08,268.0,7,1,11.0,0.1111111111111111,1,object_09,5,1881,0,1,5,restaurant_8,1,memory-2step-stake-s,663,5795443,0.0-19.0-0.1-0.158,A2U1OCHJOOLVMB,306996CF7Z0Y3F4KVQ7DFLTE4FJB13,3L4D84MIL38IBSL4B9SHUGOLNLNJHR,7,8
159,2,object_10,object_01,246.0,3,2,1126.0,0.1111111111111111,1,object_09,1,1882,0,1,6,forest_7,1,memory-2step-stake-s,664,5803977,0.0-19.0-0.1-0.159,A2U1OCHJOOLVMB,306996CF7Z0Y3F4KVQ7DFLTE4FJB13,3L4D84MIL38IBSL4B9SHUGOLNLNJHR,4,3
160,3,object_04,object_02,234.0,5,1,160.0,0.2222222222222222,1,object_09,5,1892,0,2,4,library_3,1,memory-2step-stake-s,665,5811644,0.0-19.0-0.1-0.160,A2U1OCHJOOLVMB,306996CF7Z0Y3F4KVQ7DFLTE4FJB13,3L4D84MIL38IBSL4B9SHUGOLNLNJHR,5,6
161,2,object_10,object_01,220.0,4,1,322.0,0.5555555555555556,2,object_03,5,1917,0,0,5,forest_3,1,memory-2step-stake-s,666,5819794,0.0-19.0-0.1-0.161,A2U1OCHJOOLVMB,306996CF7Z0Y3F4KVQ7DFLTE4FJB13,3L4D84MIL38IBSL4B9SHUGOLNLNJHR,4,3
162,1,object_05,object_07,219.0,1,2,115.0,0.0,1,object_09,1,1917,0,0,8,desert_6,1,memory-2step-stake-s,667,5827183,0.0-19.0-0.1-0.162,A2U1OCHJOOLVMB,306996CF7Z0Y3F4KVQ7DFLTE4FJB13,3L4D84MIL38IBSL4B9SHUGOLNLNJHR,2,1
163,3,object_04,object_02,202.0,5,1,166.0,0.1111111111111111,1,object_09,5,1922,0,1,9,library_7,1,memory-2step-stake-s,668,5834752,0.0-19.0-0.1-0.163,A2U1OCHJOOLVMB,306996CF7Z0Y3F4KVQ7DFLTE4FJB13,3L4D84MIL38IBSL4B9SHUGOLNLNJHR,5,6
164,3,object_04,object_02,188.0,6,2,163.0,0.8888888888888888,2,object_03,5,1962,0,1,8,library_5,1,memory-2step-stake-s,669,5843043,0.0-19.0-0.1-0.164,A2U1OCHJOOLVMB,306996CF7Z0Y3F4KVQ7DFLTE4FJB13,3L4D84MIL38IBSL4B9SHUGOLNLNJHR,5,6
165,3,object_04,object_02,252.0,6,2,128.0,1.0,2,object_03,5,2007,0,1,9,library_5,1,memory-2step-stake-s,670,5851426,0.0-19.0-0.1-0.165,A2U1OCHJOOLVMB,306996CF7Z0Y3F4KVQ7DFLTE4FJB13,3L4D84MIL38IBSL4B9SHUGOLNLNJHR,5,6
166,4,object_06,object_08,328.0,7,1,204.0,0.2222222222222222,1,object_09,5,2017,0,2,9,restaurant_3,1,memory-2step-stake-s,671,5859124,0.0-19.0-0.1-0.166,A2U1OCHJOOLVMB,306996CF7Z0Y3F4KVQ7DFLTE4FJB13,3L4D84MIL38IBSL4B9SHUGOLNLNJHR,7,8
167,2,object_01,object_10,204.0,4,2,179.0,1.0,2,object_03,1,2026,0,3,9,forest_6,1,memory-2step-stake-s,672,5868157,0.0-19.0-0.1-0.167,A2U1OCHJOOLVMB,306996CF7Z0Y3F4KVQ7DFLTE4FJB13,3L4D84MIL38IBSL4B9SHUGOLNLNJHR,3,4
168,1,object_07,object_05,173.0,1,1,289.0,0.3333333333333333,1,object_09,1,2029,0,3,6,desert_6,1,memory-2step-stake-s,673,5876040,0.0-19.0-0.1-0.168,A2U1OCHJOOLVMB,306996CF7Z0Y3F4KVQ7DFLTE4FJB13,3L4D84MIL38IBSL4B9SHUGOLNLNJHR,1,2
169,3,object_02,object_04,142.0,6,1,302.0,0.5555555555555556,2,object_03,5,2054,0,4,5,library_4,1,memory-2step-stake-s,674,5884191,0.0-19.0-0.1-0.169,A2U1OCHJOOLVMB,306996CF7Z0Y3F4KVQ7DFLTE4FJB13,3L4D84MIL38IBSL4B9SHUGOLNLNJHR,6,5
170,2,object_01,object_10,188.0,3,1,161.0,0.4444444444444444,1,object_09,1,2058,0,4,5,forest_6,1,memory-2step-stake-s,675,5892074,0.0-19.0-0.1-0.170,A2U1OCHJOOLVMB,306996CF7Z0Y3F4KVQ7DFLTE4FJB13,3L4D84MIL38IBSL4B9SHUGOLNLNJHR,3,4
171,3,object_04,object_02,203.0,6,2,178.0,0.3333333333333333,2,object_03,1,2061,0,9,3,library_5,1,memory-2step-stake-s,676,5899849,0.0-19.0-0.1-0.171,A2U1OCHJOOLVMB,306996CF7Z0Y3F4KVQ7DFLTE4FJB13,3L4D84MIL38IBSL4B9SHUGOLNLNJHR,5,6
172,3,object_02,object_04,192.0,6,1,176.0,0.2222222222222222,2,object_03,5,2071,0,6,2,library_4,1,memory-2step-stake-s,677,5907517,0.0-19.0-0.1-0.172,A2U1OCHJOOLVMB,306996CF7Z0Y3F4KVQ7DFLTE4FJB13,3L4D84MIL38IBSL4B9SHUGOLNLNJHR,6,5
173,2,object_01,object_10,48.0,4,2,156.0,0.1111111111111111,2,object_03,5,2076,0,7,1,forest_6,1,memory-2step-stake-s,678,5915016,0.0-19.0-0.1-0.173,A2U1OCHJOOLVMB,306996CF7Z0Y3F4KVQ7DFLTE4FJB13,3L4D84MIL38IBSL4B9SHUGOLNLNJHR,3,4
174,4,object_08,object_06,63.0,8,1,287.0,0.4444444444444444,2,object_03,5,2096,0,8,4,restaurant_3,1,memory-2step-stake-s,679,5923014,0.0-19.0-0.1-0.174,A2U1OCHJOOLVMB,306996CF7Z0Y3F4KVQ7DFLTE4FJB13,3L4D84MIL38IBSL4B9SHUGOLNLNJHR,8,7
175,1,object_05,object_07,268.0,1,2,128.0,0.7777777777777778,1,object_09,1,2103,0,7,1,desert_4,1,memory-2step-stake-s,680,5931178,0.0-19.0-0.1-0.175,A2U1OCHJOOLVMB,306996CF7Z0Y3F4KVQ7DFLTE4FJB13,3L4D84MIL38IBSL4B9SHUGOLNLNJHR,2,1
176,2,object_10,object_01,258.0,4,1,364.0,0.2222222222222222,2,object_03,1,2105,0,6,2,forest_6,1,memory-2step-stake-s,681,5939004,0.0-19.0-0.1-0.176,A2U1OCHJOOLVMB,306996CF7Z0Y3F4KVQ7DFLTE4FJB13,3L4D84MIL38IBSL4B9SHUGOLNLNJHR,4,3
177,4,object_08,object_06,282.0,8,1,188.0,0.1111111111111111,2,object_03,5,2110,0,4,1,restaurant_1,1,memory-2step-stake-s,682,5946554,0.0-19.0-0.1-0.177,A2U1OCHJOOLVMB,306996CF7Z0Y3F4KVQ7DFLTE4FJB13,3L4D84MIL38IBSL4B9SHUGOLNLNJHR,8,7
178,4,object_08,object_06,79.0,7,2,200.0,0.5555555555555556,1,object_09,5,2135,0,5,1,restaurant_8,1,memory-2step-stake-s,683,5954571,0.0-19.0-0.1-0.178,A2U1OCHJOOLVMB,306996CF7Z0Y3F4KVQ7DFLTE4FJB13,3L4D84MIL38IBSL4B9SHUGOLNLNJHR,8,7
179,4,object_08,object_06,220.0,8,1,208.0,0.0,2,object_03,5,2135,0,7,0,restaurant_8,1,memory-2step-stake-s,684,5962062,0.0-19.0-0.1-0.179,A2U1OCHJOOLVMB,306996CF7Z0Y3F4KVQ7DFLTE4FJB13,3L4D84MIL38IBSL4B9SHUGOLNLNJHR,8,7
180,2,object_01,object_10,157.0,3,1,259.0,0.7777777777777778,1,object_09,1,2142,0,7,2,forest_3,1,memory-2step-stake-s,685,5970353,0.0-19.0-0.1-0.180,A2U1OCHJOOLVMB,306996CF7Z0Y3F4KVQ7DFLTE4FJB13,3L4D84MIL38IBSL4B9SHUGOLNLNJHR,3,4
181,4,object_06,object_08,-1.0,-1,-1,-1.0,0.0,-,0,5,2142,0,4,0,restaurant_2,1,memory-2step-stake-s,686,5976902,0.0-19.0-0.1-0.181,A2U1OCHJOOLVMB,306996CF7Z0Y3F4KVQ7DFLTE4FJB13,3L4D84MIL38IBSL4B9SHUGOLNLNJHR,7,8
182,4,object_06,object_08,266.0,7,1,313.0,0.5555555555555556,1,object_09,5,2167,0,5,2,restaurant_1,1,memory-2step-stake-s,687,5985053,0.0-19.0-0.1-0.182,A2U1OCHJOOLVMB,306996CF7Z0Y3F4KVQ7DFLTE4FJB13,3L4D84MIL38IBSL4B9SHUGOLNLNJHR,7,8
183,3,object_04,object_02,-1.0,-1,-1,-1.0,0.0,-,0,1,2167,0,6,2,library_5,1,memory-2step-stake-s,688,5991603,0.0-19.0-0.1-0.183,A2U1OCHJOOLVMB,306996CF7Z0Y3F4KVQ7DFLTE4FJB13,3L4D84MIL38IBSL4B9SHUGOLNLNJHR,5,6
184,4,object_06,object_08,-1.0,-1,-1,-1.0,0.0,-,0,5,2167,0,5,5,restaurant_8,1,memory-2step-stake-s,689,5998152,0.0-19.0-0.1-0.184,A2U1OCHJOOLVMB,306996CF7Z0Y3F4KVQ7DFLTE4FJB13,3L4D84MIL38IBSL4B9SHUGOLNLNJHR,7,8
185,2,object_10,object_01,250.0,4,1,567.0,0.5555555555555556,2,object_03,5,2192,0,4,5,forest_7,1,memory-2step-stake-s,690,6006553,0.0-19.0-0.1-0.185,A2U1OCHJOOLVMB,306996CF7Z0Y3F4KVQ7DFLTE4FJB13,3L4D84MIL38IBSL4B9SHUGOLNLNJHR,4,3
186,3,object_04,object_02,235.0,5,1,1081.0,0.7777777777777778,1,object_09,5,2227,0,7,6,library_4,1,memory-2step-stake-s,691,6015678,0.0-19.0-0.1-0.186,A2U1OCHJOOLVMB,306996CF7Z0Y3F4KVQ7DFLTE4FJB13,3L4D84MIL38IBSL4B9SHUGOLNLNJHR,5,6
187,3,object_04,object_02,328.0,5,1,438.0,0.7777777777777778,1,object_09,5,2262,0,7,4,library_3,1,memory-2step-stake-s,692,6024932,0.0-19.0-0.1-0.187,A2U1OCHJOOLVMB,306996CF7Z0Y3F4KVQ7DFLTE4FJB13,3L4D84MIL38IBSL4B9SHUGOLNLNJHR,5,6
188,1,object_05,object_07,344.0,2,1,278.0,0.5555555555555556,2,object_03,1,2267,0,6,5,desert_8,1,memory-2step-stake-s,693,6033016,0.0-19.0-0.1-0.188,A2U1OCHJOOLVMB,306996CF7Z0Y3F4KVQ7DFLTE4FJB13,3L4D84MIL38IBSL4B9SHUGOLNLNJHR,2,1
189,4,object_08,object_06,203.0,8,1,176.0,0.4444444444444444,2,object_03,5,2287,0,6,4,restaurant_1,1,memory-2step-stake-s,694,6040905,0.0-19.0-0.1-0.189,A2U1OCHJOOLVMB,306996CF7Z0Y3F4KVQ7DFLTE4FJB13,3L4D84MIL38IBSL4B9SHUGOLNLNJHR,8,7
190,3,object_02,object_04,158.0,6,1,257.0,0.4444444444444444,2,object_03,1,2291,0,4,4,library_4,1,memory-2step-stake-s,695,6048883,0.0-19.0-0.1-0.190,A2U1OCHJOOLVMB,306996CF7Z0Y3F4KVQ7DFLTE4FJB13,3L4D84MIL38IBSL4B9SHUGOLNLNJHR,6,5
191,2,object_10,object_01,-1.0,-1,-1,-1.0,0.0,-,0,1,2291,0,4,1,forest_7,1,memory-2step-stake-s,696,6055433,0.0-19.0-0.1-0.191,A2U1OCHJOOLVMB,306996CF7Z0Y3F4KVQ7DFLTE4FJB13,3L4D84MIL38IBSL4B9SHUGOLNLNJHR,4,3
192,1,object_05,object_07,250.0,1,2,269.0,0.6666666666666666,1,object_09,1,2297,0,6,1,desert_2,1,memory-2step-stake-s,697,6063615,0.0-19.0-0.1-0.192,A2U1OCHJOOLVMB,306996CF7Z0Y3F4KVQ7DFLTE4FJB13,3L4D84MIL38IBSL4B9SHUGOLNLNJHR,2,1
193,3,object_02,object_04,235.0,6,1,-1.0,0.0,2,object_03,5,2297,0,9,2,library_4,1,memory-2step-stake-s,698,6072199,0.0-19.0-0.1-0.193,A2U1OCHJOOLVMB,306996CF7Z0Y3F4KVQ7DFLTE4FJB13,3L4D84MIL38IBSL4B9SHUGOLNLNJHR,6,5
194,2,object_10,object_01,233.0,4,1,207.0,0.0,2,object_03,1,2297,0,6,0,forest_7,1,memory-2step-stake-s,699,6079714,0.0-19.0-0.1-0.194,A2U1OCHJOOLVMB,306996CF7Z0Y3F4KVQ7DFLTE4FJB13,3L4D84MIL38IBSL4B9SHUGOLNLNJHR,4,3
195,1,object_05,object_07,192.0,1,2,166.0,0.6666666666666666,1,object_09,1,2303,0,6,2,desert_4,1,memory-2step-stake-s,700,6087814,0.0-19.0-0.1-0.195,A2U1OCHJOOLVMB,306996CF7Z0Y3F4KVQ7DFLTE4FJB13,3L4D84MIL38IBSL4B9SHUGOLNLNJHR,2,1
196,1,object_05,object_07,703.0,2,1,238.0,0.0,2,object_03,1,2303,0,5,0,desert_6,1,memory-2step-stake-s,701,6095548,0.0-19.0-0.1-0.196,A2U1OCHJOOLVMB,306996CF7Z0Y3F4KVQ7DFLTE4FJB13,3L4D84MIL38IBSL4B9SHUGOLNLNJHR,2,1
197,4,object_08,object_06,234.0,7,2,192.0,0.3333333333333333,1,object_09,5,2318,0,3,3,restaurant_8,1,memory-2step-stake-s,702,6103326,0.0-19.0-0.1-0.197,A2U1OCHJOOLVMB,306996CF7Z0Y3F4KVQ7DFLTE4FJB13,3L4D84MIL38IBSL4B9SHUGOLNLNJHR,8,7
198,4,object_06,object_08,250.0,8,2,159.0,0.2222222222222222,2,object_03,1,2320,0,6,2,restaurant_8,1,memory-2step-stake-s,703,6110981,0.0-19.0-0.1-0.198,A2U1OCHJOOLVMB,306996CF7Z0Y3F4KVQ7DFLTE4FJB13,3L4D84MIL38IBSL4B9SHUGOLNLNJHR,7,8
199,4,object_06,object_08,275.0,7,1,408.0,0.6666666666666666,1,object_09,5,2350,0,6,1,restaurant_2,1,memory-2step-stake-s,704,6119292,0.0-19.0-0.1-0.199,A2U1OCHJOOLVMB,306996CF7Z0Y3F4KVQ7DFLTE4FJB13,3L4D84MIL38IBSL4B9SHUGOLNLNJHR,7,8
200,4,object_08,object_06,78.0,7,2,264.0,0.8888888888888888,1,object_09,5,2390,0,8,1,restaurant_3,1,memory-2step-stake-s,705,6127612,0.0-19.0-0.1-0.200,A2U1OCHJOOLVMB,306996CF7Z0Y3F4KVQ7DFLTE4FJB13,3L4D84MIL38IBSL4B9SHUGOLNLNJHR,8,7
201,3,object_02,object_04,174.0,6,1,54.0,0.2222222222222222,2,object_03,5,2400,0,8,2,library_5,1,memory-2step-stake-s,706,6135159,0.0-19.0-0.1-0.201,A2U1OCHJOOLVMB,306996CF7Z0Y3F4KVQ7DFLTE4FJB13,3L4D84MIL38IBSL4B9SHUGOLNLNJHR,6,5
202,3,object_02,object_04,200.0,5,2,85.0,0.8888888888888888,1,object_09,1,2408,0,8,0,library_7,1,memory-2step-stake-s,707,6143331,0.0-19.0-0.1-0.202,A2U1OCHJOOLVMB,306996CF7Z0Y3F4KVQ7DFLTE4FJB13,3L4D84MIL38IBSL4B9SHUGOLNLNJHR,6,5
203,1,object_07,object_05,292.0,1,1,225.0,0.6666666666666666,1,object_09,1,2414,0,6,0,desert_2,1,memory-2step-stake-s,708,6151851,0.0-19.0-0.1-0.203,A2U1OCHJOOLVMB,306996CF7Z0Y3F4KVQ7DFLTE4FJB13,3L4D84MIL38IBSL4B9SHUGOLNLNJHR,1,2
204,3,object_02,object_04,493.0,6,1,255.0,0.1111111111111111,2,object_03,5,2419,0,7,1,library_7,1,memory-2step-stake-s,709,6160761,0.0-19.0-0.1-0.204,A2U1OCHJOOLVMB,306996CF7Z0Y3F4KVQ7DFLTE4FJB13,3L4D84MIL38IBSL4B9SHUGOLNLNJHR,6,5
205,3,object_02,object_04,235.0,6,1,535.0,0.3333333333333333,2,object_03,5,2434,0,7,3,library_3,1,memory-2step-stake-s,710,6168912,0.0-19.0-0.1-0.205,A2U1OCHJOOLVMB,306996CF7Z0Y3F4KVQ7DFLTE4FJB13,3L4D84MIL38IBSL4B9SHUGOLNLNJHR,6,5
206,1,object_05,object_07,531.0,1,2,444.0,0.8888888888888888,1,object_09,1,2442,0,8,1,desert_2,1,memory-2step-stake-s,711,6177396,0.0-19.0-0.1-0.206,A2U1OCHJOOLVMB,306996CF7Z0Y3F4KVQ7DFLTE4FJB13,3L4D84MIL38IBSL4B9SHUGOLNLNJHR,2,1
207,4,object_06,object_08,188.0,7,1,334.0,0.7777777777777778,1,object_09,5,2477,0,7,0,restaurant_2,1,memory-2step-stake-s,712,6185773,0.0-19.0-0.1-0.207,A2U1OCHJOOLVMB,306996CF7Z0Y3F4KVQ7DFLTE4FJB13,3L4D84MIL38IBSL4B9SHUGOLNLNJHR,7,8
208,3,object_02,object_04,204.0,6,1,270.0,0.2222222222222222,2,object_03,5,2487,0,6,2,library_5,1,memory-2step-stake-s,713,6193520,0.0-19.0-0.1-0.208,A2U1OCHJOOLVMB,306996CF7Z0Y3F4KVQ7DFLTE4FJB13,3L4D84MIL38IBSL4B9SHUGOLNLNJHR,6,5
209,1,object_05,object_07,202.0,2,1,305.0,0.0,2,object_03,5,2487,0,8,0,desert_2,1,memory-2step-stake-s,714,6201127,0.0-19.0-0.1-0.209,A2U1OCHJOOLVMB,306996CF7Z0Y3F4KVQ7DFLTE4FJB13,3L4D84MIL38IBSL4B9SHUGOLNLNJHR,2,1
210,4,object_06,object_08,227.0,8,2,178.0,0.4444444444444444,2,object_03,5,2507,0,9,4,restaurant_8,1,memory-2step-stake-s,715,6209020,0.0-19.0-0.1-0.210,A2U1OCHJOOLVMB,306996CF7Z0Y3F4KVQ7DFLTE4FJB13,3L4D84MIL38IBSL4B9SHUGOLNLNJHR,7,8
211,1,object_05,object_07,472.0,1,2,209.0,0.8888888888888888,1,object_09,1,2515,0,8,4,desert_8,1,memory-2step-stake-s,716,6217328,0.0-19.0-0.1-0.211,A2U1OCHJOOLVMB,306996CF7Z0Y3F4KVQ7DFLTE4FJB13,3L4D84MIL38IBSL4B9SHUGOLNLNJHR,2,1
212,1,object_05,object_07,203.0,2,1,421.0,0.4444444444444444,2,object_03,5,2535,0,7,4,desert_8,1,memory-2step-stake-s,717,6225436,0.0-19.0-0.1-0.212,A2U1OCHJOOLVMB,306996CF7Z0Y3F4KVQ7DFLTE4FJB13,3L4D84MIL38IBSL4B9SHUGOLNLNJHR,2,1
213,3,object_04,object_02,1360.0,6,2,273.0,0.0,2,object_03,1,2535,0,6,0,library_3,1,memory-2step-stake-s,718,6233006,0.0-19.0-0.1-0.213,A2U1OCHJOOLVMB,306996CF7Z0Y3F4KVQ7DFLTE4FJB13,3L4D84MIL38IBSL4B9SHUGOLNLNJHR,5,6
214,4,object_08,object_06,219.0,8,1,53.0,0.2222222222222222,2,object_03,5,2545,0,4,2,restaurant_3,1,memory-2step-stake-s,719,6240538,0.0-19.0-0.1-0.214,A2U1OCHJOOLVMB,306996CF7Z0Y3F4KVQ7DFLTE4FJB13,3L4D84MIL38IBSL4B9SHUGOLNLNJHR,8,7
215,2,object_01,object_10,204.0,3,1,377.0,0.8888888888888888,1,object_09,1,2553,0,8,2,forest_6,1,memory-2step-stake-s,720,6249056,0.0-19.0-0.1-0.215,A2U1OCHJOOLVMB,306996CF7Z0Y3F4KVQ7DFLTE4FJB13,3L4D84MIL38IBSL4B9SHUGOLNLNJHR,3,4
216,3,object_02,object_04,235.0,5,2,507.0,0.8888888888888888,1,object_09,5,2593,0,8,2,library_4,1,memory-2step-stake-s,721,6257694,0.0-19.0-0.1-0.216,A2U1OCHJOOLVMB,306996CF7Z0Y3F4KVQ7DFLTE4FJB13,3L4D84MIL38IBSL4B9SHUGOLNLNJHR,6,5
217,3,object_04,object_02,110.0,5,1,166.0,1.0,1,object_09,5,2638,0,9,6,library_3,1,memory-2step-stake-s,722,6266125,0.0-19.0-0.1-0.217,A2U1OCHJOOLVMB,306996CF7Z0Y3F4KVQ7DFLTE4FJB13,3L4D84MIL38IBSL4B9SHUGOLNLNJHR,5,6
218,2,object_10,object_01,170.0,3,2,230.0,1.0,1,object_09,1,2647,0,9,7,forest_2,1,memory-2step-stake-s,723,6274592,0.0-19.0-0.1-0.218,A2U1OCHJOOLVMB,306996CF7Z0Y3F4KVQ7DFLTE4FJB13,3L4D84MIL38IBSL4B9SHUGOLNLNJHR,4,3
219,3,object_04,object_02,111.0,5,1,183.0,1.0,1,object_09,5,2692,0,9,8,library_3,1,memory-2step-stake-s,724,6283041,0.0-19.0-0.1-0.219,A2U1OCHJOOLVMB,306996CF7Z0Y3F4KVQ7DFLTE4FJB13,3L4D84MIL38IBSL4B9SHUGOLNLNJHR,5,6
220,2,object_01,object_10,0.0,4,2,375.0,0.6666666666666666,2,object_03,1,2698,0,7,6,forest_3,1,memory-2step-stake-s,725,6291346,0.0-19.0-0.1-0.220,A2U1OCHJOOLVMB,306996CF7Z0Y3F4KVQ7DFLTE4FJB13,3L4D84MIL38IBSL4B9SHUGOLNLNJHR,3,4
221,4,object_08,object_06,189.0,8,1,195.0,0.7777777777777778,2,object_03,5,2733,0,6,7,restaurant_1,1,memory-2step-stake-s,726,6299512,0.0-19.0-0.1-0.221,A2U1OCHJOOLVMB,306996CF7Z0Y3F4KVQ7DFLTE4FJB13,3L4D84MIL38IBSL4B9SHUGOLNLNJHR,8,7
222,1,object_05,object_07,218.0,1,2,251.0,0.5555555555555556,1,object_09,1,2738,0,5,6,desert_6,1,memory-2step-stake-s,727,6307591,0.0-19.0-0.1-0.222,A2U1OCHJOOLVMB,306996CF7Z0Y3F4KVQ7DFLTE4FJB13,3L4D84MIL38IBSL4B9SHUGOLNLNJHR,2,1
223,1,object_05,object_07,203.0,1,2,257.0,1.0,1,object_09,1,2747,0,9,8,desert_8,1,memory-2step-stake-s,728,6316039,0.0-19.0-0.1-0.223,A2U1OCHJOOLVMB,306996CF7Z0Y3F4KVQ7DFLTE4FJB13,3L4D84MIL38IBSL4B9SHUGOLNLNJHR,2,1
224,4,object_08,object_06,220.0,8,1,257.0,0.7777777777777778,2,object_03,5,2782,0,5,7,restaurant_1,1,memory-2step-stake-s,729,6324360,0.0-19.0-0.1-0.224,A2U1OCHJOOLVMB,306996CF7Z0Y3F4KVQ7DFLTE4FJB13,3L4D84MIL38IBSL4B9SHUGOLNLNJHR,8,7
225,2,object_01,object_10,235.0,4,2,285.0,0.7777777777777778,2,object_03,1,2789,0,7,7,forest_6,1,memory-2step-stake-s,730,6332740,0.0-19.0-0.1-0.225,A2U1OCHJOOLVMB,306996CF7Z0Y3F4KVQ7DFLTE4FJB13,3L4D84MIL38IBSL4B9SHUGOLNLNJHR,3,4
226,1,object_05,object_07,261.0,2,1,300.0,0.5555555555555556,2,object_03,1,2794,0,3,5,desert_2,1,memory-2step-stake-s,731,6340855,0.0-19.0-0.1-0.226,A2U1OCHJOOLVMB,306996CF7Z0Y3F4KVQ7DFLTE4FJB13,3L4D84MIL38IBSL4B9SHUGOLNLNJHR,2,1
227,3,object_02,object_04,43.0,6,1,186.0,1.0,2,object_03,5,2839,0,3,9,library_3,1,memory-2step-stake-s,732,6349253,0.0-19.0-0.1-0.227,A2U1OCHJOOLVMB,306996CF7Z0Y3F4KVQ7DFLTE4FJB13,3L4D84MIL38IBSL4B9SHUGOLNLNJHR,6,5
228,1,object_07,object_05,173.0,1,1,211.0,0.2222222222222222,1,object_09,1,2841,0,2,8,desert_4,1,memory-2step-stake-s,733,6356955,0.0-19.0-0.1-0.228,A2U1OCHJOOLVMB,306996CF7Z0Y3F4KVQ7DFLTE4FJB13,3L4D84MIL38IBSL4B9SHUGOLNLNJHR,1,2
229,1,object_07,object_05,235.0,1,1,39.0,0.1111111111111111,1,object_09,5,2846,0,1,9,desert_4,1,memory-2step-stake-s,734,6364361,0.0-19.0-0.1-0.229,A2U1OCHJOOLVMB,306996CF7Z0Y3F4KVQ7DFLTE4FJB13,3L4D84MIL38IBSL4B9SHUGOLNLNJHR,1,2
230,1,object_05,object_07,200.0,1,2,171.0,0.2222222222222222,1,object_09,1,2848,0,2,5,desert_4,1,memory-2step-stake-s,735,6372054,0.0-19.0-0.1-0.230,A2U1OCHJOOLVMB,306996CF7Z0Y3F4KVQ7DFLTE4FJB13,3L4D84MIL38IBSL4B9SHUGOLNLNJHR,2,1
231,4,object_08,object_06,188.0,8,1,210.0,0.4444444444444444,2,object_03,5,2868,0,3,4,restaurant_3,1,memory-2step-stake-s,736,6379964,0.0-19.0-0.1-0.231,A2U1OCHJOOLVMB,306996CF7Z0Y3F4KVQ7DFLTE4FJB13,3L4D84MIL38IBSL4B9SHUGOLNLNJHR,8,7
232,4,object_08,object_06,232.0,8,1,223.0,0.4444444444444444,2,object_03,5,2888,0,4,4,restaurant_8,1,memory-2step-stake-s,737,6387903,0.0-19.0-0.1-0.232,A2U1OCHJOOLVMB,306996CF7Z0Y3F4KVQ7DFLTE4FJB13,3L4D84MIL38IBSL4B9SHUGOLNLNJHR,8,7
233,1,object_07,object_05,126.0,2,2,339.0,0.6666666666666666,2,object_03,1,2894,0,6,6,desert_2,1,memory-2step-stake-s,738,6396352,0.0-19.0-0.1-0.233,A2U1OCHJOOLVMB,306996CF7Z0Y3F4KVQ7DFLTE4FJB13,3L4D84MIL38IBSL4B9SHUGOLNLNJHR,1,2
234,1,object_07,object_05,205.0,1,1,846.0,0.7777777777777778,1,object_09,1,2901,0,7,8,desert_6,1,memory-2step-stake-s,739,6405186,0.0-19.0-0.1-0.234,A2U1OCHJOOLVMB,306996CF7Z0Y3F4KVQ7DFLTE4FJB13,3L4D84MIL38IBSL4B9SHUGOLNLNJHR,1,2
235,2,object_10,object_01,188.0,4,1,180.0,1.0,2,object_03,5,2946,0,6,9,forest_3,1,memory-2step-stake-s,740,6413905,0.0-19.0-0.1-0.235,A2U1OCHJOOLVMB,306996CF7Z0Y3F4KVQ7DFLTE4FJB13,3L4D84MIL38IBSL4B9SHUGOLNLNJHR,4,3
236,2,object_10,object_01,258.0,4,1,394.0,0.7777777777777778,2,object_03,1,2953,0,6,7,forest_2,1,memory-2step-stake-s,741,6422468,0.0-19.0-0.1-0.236,A2U1OCHJOOLVMB,306996CF7Z0Y3F4KVQ7DFLTE4FJB13,3L4D84MIL38IBSL4B9SHUGOLNLNJHR,4,3
237,4,object_08,object_06,253.0,8,1,613.0,0.5555555555555556,2,object_03,5,2978,0,5,5,restaurant_3,1,memory-2step-stake-s,742,6430917,0.0-19.0-0.1-0.237,A2U1OCHJOOLVMB,306996CF7Z0Y3F4KVQ7DFLTE4FJB13,3L4D84MIL38IBSL4B9SHUGOLNLNJHR,8,7
238,4,object_06,object_08,369.0,7,1,337.0,0.3333333333333333,1,object_09,5,2993,0,3,3,restaurant_2,1,memory-2step-stake-s,743,6438852,0.0-19.0-0.1-0.238,A2U1OCHJOOLVMB,306996CF7Z0Y3F4KVQ7DFLTE4FJB13,3L4D84MIL38IBSL4B9SHUGOLNLNJHR,7,8
239,1,object_07,object_05,189.0,2,2,223.0,0.5555555555555556,2,object_03,1,2998,0,0,5,desert_6,1,memory-2step-stake-s,744,6446901,0.0-19.0-0.1-0.239,A2U1OCHJOOLVMB,306996CF7Z0Y3F4KVQ7DFLTE4FJB13,3L4D84MIL38IBSL4B9SHUGOLNLNJHR,1,2
240,3,object_02,object_04,204.0,6,1,228.0,0.5555555555555556,2,object_03,5,3023,0,2,5,library_4,1,memory-2step-stake-s,745,6454949,0.0-19.0-0.1-0.240,A2U1OCHJOOLVMB,306996CF7Z0Y3F4KVQ7DFLTE4FJB13,3L4D84MIL38IBSL4B9SHUGOLNLNJHR,6,5
241,2,object_10,object_01,922.0,4,1,445.0,0.7777777777777778,2,object_03,1,3030,0,1,7,forest_2,1,memory-2step-stake-s,746,6463445,0.0-19.0-0.1-0.241,A2U1OCHJOOLVMB,306996CF7Z0Y3F4KVQ7DFLTE4FJB13,3L4D84MIL38IBSL4B9SHUGOLNLNJHR,4,3
242,4,object_06,object_08,220.0,7,1,163.0,0.3333333333333333,1,object_09,5,3045,0,3,7,restaurant_3,1,memory-2step-stake-s,747,6471214,0.0-19.0-0.1-0.242,A2U1OCHJOOLVMB,306996CF7Z0Y3F4KVQ7DFLTE4FJB13,3L4D84MIL38IBSL4B9SHUGOLNLNJHR,7,8
243,4,object_08,object_06,261.0,7,2,208.0,0.5555555555555556,1,object_09,1,3050,0,5,8,restaurant_2,1,memory-2step-stake-s,748,6479267,0.0-19.0-0.1-0.243,A2U1OCHJOOLVMB,306996CF7Z0Y3F4KVQ7DFLTE4FJB13,3L4D84MIL38IBSL4B9SHUGOLNLNJHR,8,7
244,3,object_02,object_04,237.0,6,1,209.0,0.8888888888888888,2,object_03,5,3090,0,4,8,library_4,1,memory-2step-stake-s,749,6487599,0.0-19.0-0.1-0.244,A2U1OCHJOOLVMB,306996CF7Z0Y3F4KVQ7DFLTE4FJB13,3L4D84MIL38IBSL4B9SHUGOLNLNJHR,6,5
245,1,object_05,object_07,281.0,2,1,221.0,0.6666666666666666,2,object_03,1,3096,0,5,6,desert_8,1,memory-2step-stake-s,750,6495715,0.0-19.0-0.1-0.245,A2U1OCHJOOLVMB,306996CF7Z0Y3F4KVQ7DFLTE4FJB13,3L4D84MIL38IBSL4B9SHUGOLNLNJHR,2,1
246,1,object_07,object_05,204.0,2,2,208.0,0.6666666666666666,2,object_03,1,3102,0,8,6,desert_2,1,memory-2step-stake-s,751,6503872,0.0-19.0-0.1-0.246,A2U1OCHJOOLVMB,306996CF7Z0Y3F4KVQ7DFLTE4FJB13,3L4D84MIL38IBSL4B9SHUGOLNLNJHR,1,2
247,1,object_05,object_07,247.0,2,1,538.0,0.6666666666666666,2,object_03,5,3132,0,7,6,desert_2,1,memory-2step-stake-s,752,6512333,0.0-19.0-0.1-0.247,A2U1OCHJOOLVMB,306996CF7Z0Y3F4KVQ7DFLTE4FJB13,3L4D84MIL38IBSL4B9SHUGOLNLNJHR,2,1
248,4,object_06,object_08,187.0,7,1,225.0,0.5555555555555556,1,object_09,5,3157,0,5,7,restaurant_1,1,memory-2step-stake-s,753,6520382,0.0-19.0-0.1-0.248,A2U1OCHJOOLVMB,306996CF7Z0Y3F4KVQ7DFLTE4FJB13,3L4D84MIL38IBSL4B9SHUGOLNLNJHR,7,8
249,4,object_08,object_06,220.0,8,1,226.0,0.7777777777777778,2,object_03,5,3192,0,3,7,restaurant_3,1,memory-2step-stake-s,754,6528614,0.0-19.0-0.1-0.249,A2U1OCHJOOLVMB,306996CF7Z0Y3F4KVQ7DFLTE4FJB13,3L4D84MIL38IBSL4B9SHUGOLNLNJHR,8,7
250,3,object_02,object_04,203.0,6,1,178.0,0.4444444444444444,2,object_03,5,3212,0,6,4,library_5,1,memory-2step-stake-s,755,6536481,0.0-19.0-0.1-0.250,A2U1OCHJOOLVMB,306996CF7Z0Y3F4KVQ7DFLTE4FJB13,3L4D84MIL38IBSL4B9SHUGOLNLNJHR,6,5
251,2,object_01,object_10,299.0,4,2,344.0,1.0,2,object_03,1,3221,0,7,9,forest_7,1,memory-2step-stake-s,756,6545065,0.0-19.0-0.1-0.251,A2U1OCHJOOLVMB,306996CF7Z0Y3F4KVQ7DFLTE4FJB13,3L4D84MIL38IBSL4B9SHUGOLNLNJHR,3,4
252,4,object_06,object_08,234.0,8,2,178.0,0.8888888888888888,2,object_03,1,3229,0,7,8,restaurant_1,1,memory-2step-stake-s,757,6553381,0.0-19.0-0.1-0.252,A2U1OCHJOOLVMB,306996CF7Z0Y3F4KVQ7DFLTE4FJB13,3L4D84MIL38IBSL4B9SHUGOLNLNJHR,7,8
253,3,object_02,object_04,500.0,5,2,316.0,0.8888888888888888,1,object_09,1,3237,0,8,7,library_7,1,memory-2step-stake-s,758,6561812,0.0-19.0-0.1-0.253,A2U1OCHJOOLVMB,306996CF7Z0Y3F4KVQ7DFLTE4FJB13,3L4D84MIL38IBSL4B9SHUGOLNLNJHR,6,5
254,1,object_07,object_05,188.0,1,1,100.0,1.0,1,object_09,1,3246,0,9,7,desert_4,1,memory-2step-stake-s,759,6570147,0.0-19.0-0.1-0.254,A2U1OCHJOOLVMB,306996CF7Z0Y3F4KVQ7DFLTE4FJB13,3L4D84MIL38IBSL4B9SHUGOLNLNJHR,1,2
255,3,object_04,object_02,282.0,6,2,160.0,0.8888888888888888,2,object_03,5,3286,0,7,8,library_7,1,memory-2step-stake-s,760,6578462,0.0-19.0-0.1-0.255,A2U1OCHJOOLVMB,306996CF7Z0Y3F4KVQ7DFLTE4FJB13,3L4D84MIL38IBSL4B9SHUGOLNLNJHR,5,6
