,state1,stim_left,stim_right,rt_1,choice1,response1,rt_2,points,state2,stim_state2,stake,score,practice,rews1,rews2,background,high_arm,trial_type,trial_index,time_elapsed,internal_node_id,subid,hitid,assignmentid,stim_left_num,stim_right_num
0,1,object_09,object_06,891.0,2,2,-1.0,0.0,2,object_04,5,0,0,2,3,desert_1,2,memory-2step-stake-s,488,1161677,0.0-19.0-0.0-0.0,A15CL9A9FVSJDW,3SD15I2WE5AO7614M34OSYMJOYM362,3300DTYQT6XND5YFGY4K6E3U90NEQX,1,2
1,3,object_02,object_01,906.89999997616,6,2,-1.0,0.0,2,object_04,1,0,0,1,2,library_5,2,memory-2step-stake-s,489,1170260,0.0-19.0-0.0-0.1,A15CL9A9FVSJDW,3SD15I2WE5AO7614M34OSYMJOYM362,3300DTYQT6XND5YFGY4K6E3U90NEQX,5,6
2,3,object_02,object_01,875.19999992847,5,1,-1.0,0.0,1,object_10,1,0,0,1,1,library_3,2,memory-2step-stake-s,490,1178849,0.0-19.0-0.0-0.2,A15CL9A9FVSJDW,3SD15I2WE5AO7614M34OSYMJOYM362,3300DTYQT6XND5YFGY4K6E3U90NEQX,5,6
3,3,object_02,object_01,659.29999995232,6,2,-1.0,0.0,2,object_04,5,0,0,0,1,library_5,2,memory-2step-stake-s,491,1187452,0.0-19.0-0.0-0.3,A15CL9A9FVSJDW,3SD15I2WE5AO7614M34OSYMJOYM362,3300DTYQT6XND5YFGY4K6E3U90NEQX,5,6
4,1,object_09,object_06,674.5,1,1,-1.0,0.0,1,object_10,5,0,0,4,4,desert_8,2,memory-2step-stake-s,492,1196025,0.0-19.0-0.0-0.4,A15CL9A9FVSJDW,3SD15I2WE5AO7614M34OSYMJOYM362,3300DTYQT6XND5YFGY4K6E3U90NEQX,1,2
5,1,object_09,object_06,1049.6999999285,2,2,-1.0,0.0,2,object_04,5,0,0,7,3,desert_5,2,memory-2step-stake-s,493,1204608,0.0-19.0-0.0-0.5,A15CL9A9FVSJDW,3SD15I2WE5AO7614M34OSYMJOYM362,3300DTYQT6XND5YFGY4K6E3U90NEQX,1,2
6,4,object_05,object_03,936.39999997616,7,2,-1.0,0.0,1,object_10,1,0,0,9,6,restaurant_3,2,memory-2step-stake-s,494,1213191,0.0-19.0-0.0-0.6,A15CL9A9FVSJDW,3SD15I2WE5AO7614M34OSYMJOYM362,3300DTYQT6XND5YFGY4K6E3U90NEQX,8,7
7,4,object_05,object_03,507.39999997616,8,1,-1.0,0.0,2,object_04,5,0,0,7,5,restaurant_8,2,memory-2step-stake-s,495,1221784,0.0-19.0-0.0-0.7,A15CL9A9FVSJDW,3SD15I2WE5AO7614M34OSYMJOYM362,3300DTYQT6XND5YFGY4K6E3U90NEQX,8,7
8,4,object_03,object_05,1043.2999999523,8,2,-1.0,0.0,2,object_04,1,0,0,7,6,restaurant_3,2,memory-2step-stake-s,496,1230350,0.0-19.0-0.0-0.8,A15CL9A9FVSJDW,3SD15I2WE5AO7614M34OSYMJOYM362,3300DTYQT6XND5YFGY4K6E3U90NEQX,7,8
9,1,object_09,object_06,1098.7999999523,2,2,-1.0,0.0,2,object_04,5,0,0,5,8,desert_8,2,memory-2step-stake-s,497,1238929,0.0-19.0-0.0-0.9,A15CL9A9FVSJDW,3SD15I2WE5AO7614M34OSYMJOYM362,3300DTYQT6XND5YFGY4K6E3U90NEQX,1,2
10,3,object_01,object_02,870.5,5,2,-1.0,0.0,1,object_10,1,0,0,7,7,library_5,2,memory-2step-stake-s,498,1247530,0.0-19.0-0.0-0.10,A15CL9A9FVSJDW,3SD15I2WE5AO7614M34OSYMJOYM362,3300DTYQT6XND5YFGY4K6E3U90NEQX,6,5
11,1,object_09,object_06,-1.0,-1,-1,-1.0,0.0,-,0,5,0,0,9,8,desert_5,2,memory-2step-stake-s,499,1254099,0.0-19.0-0.0-0.11,A15CL9A9FVSJDW,3SD15I2WE5AO7614M34OSYMJOYM362,3300DTYQT6XND5YFGY4K6E3U90NEQX,1,2
12,3,object_02,object_01,1097.2000000477,6,2,-1.0,0.0,2,object_04,5,0,0,8,7,library_5,2,memory-2step-stake-s,500,1262654,0.0-19.0-0.0-0.12,A15CL9A9FVSJDW,3SD15I2WE5AO7614M34OSYMJOYM362,3300DTYQT6XND5YFGY4K6E3U90NEQX,5,6
13,3,object_01,object_02,1115.5,6,1,-1.0,0.0,2,object_04,1,0,0,9,9,library_3,2,memory-2step-stake-s,501,1271227,0.0-19.0-0.0-0.13,A15CL9A9FVSJDW,3SD15I2WE5AO7614M34OSYMJOYM362,3300DTYQT6XND5YFGY4K6E3U90NEQX,6,5
14,3,object_01,object_02,575.60000002384,5,2,-1.0,0.0,1,object_10,1,0,0,4,8,library_7,2,memory-2step-stake-s,502,1279816,0.0-19.0-0.0-0.14,A15CL9A9FVSJDW,3SD15I2WE5AO7614M34OSYMJOYM362,3300DTYQT6XND5YFGY4K6E3U90NEQX,6,5
15,1,object_06,object_09,953.60000002384,1,2,-1.0,0.0,1,object_10,5,0,0,3,6,desert_5,2,memory-2step-stake-s,503,1288402,0.0-19.0-0.0-0.15,A15CL9A9FVSJDW,3SD15I2WE5AO7614M34OSYMJOYM362,3300DTYQT6XND5YFGY4K6E3U90NEQX,2,1
16,2,object_07,object_08,900.19999992847,4,2,-1.0,0.0,2,object_04,5,0,0,5,4,forest_4,2,memory-2step-stake-s,504,1296982,0.0-19.0-0.0-0.16,A15CL9A9FVSJDW,3SD15I2WE5AO7614M34OSYMJOYM362,3300DTYQT6XND5YFGY4K6E3U90NEQX,3,4
17,3,object_01,object_02,1080.3000000715,6,1,-1.0,0.0,2,object_04,1,0,0,4,6,library_7,2,memory-2step-stake-s,505,1305586,0.0-19.0-0.0-0.17,A15CL9A9FVSJDW,3SD15I2WE5AO7614M34OSYMJOYM362,3300DTYQT6XND5YFGY4K6E3U90NEQX,6,5
18,2,object_07,object_08,738.70000004768,3,1,-1.0,0.0,1,object_10,5,0,0,3,6,forest_4,2,memory-2step-stake-s,506,1314167,0.0-19.0-0.0-0.18,A15CL9A9FVSJDW,3SD15I2WE5AO7614M34OSYMJOYM362,3300DTYQT6XND5YFGY4K6E3U90NEQX,3,4
19,3,object_01,object_02,1233.8999999762,5,2,-1.0,0.0,1,object_10,5,0,0,0,7,library_3,2,memory-2step-stake-s,507,1322768,0.0-19.0-0.0-0.19,A15CL9A9FVSJDW,3SD15I2WE5AO7614M34OSYMJOYM362,3300DTYQT6XND5YFGY4K6E3U90NEQX,6,5
20,1,object_06,object_09,1038.3999999762,2,1,-1.0,0.0,2,object_04,5,0,0,1,7,desert_6,2,memory-2step-stake-s,508,1331365,0.0-19.0-0.0-0.20,A15CL9A9FVSJDW,3SD15I2WE5AO7614M34OSYMJOYM362,3300DTYQT6XND5YFGY4K6E3U90NEQX,2,1
21,4,object_05,object_03,1098.3999999762,8,1,-1.0,0.0,2,object_04,1,0,0,2,7,restaurant_3,2,memory-2step-stake-s,509,1339946,0.0-19.0-0.0-0.21,A15CL9A9FVSJDW,3SD15I2WE5AO7614M34OSYMJOYM362,3300DTYQT6XND5YFGY4K6E3U90NEQX,8,7
22,2,object_08,object_07,1319.0,4,1,-1.0,0.0,2,object_04,5,0,0,4,8,forest_7,2,memory-2step-stake-s,510,1348524,0.0-19.0-0.0-0.22,A15CL9A9FVSJDW,3SD15I2WE5AO7614M34OSYMJOYM362,3300DTYQT6XND5YFGY4K6E3U90NEQX,4,3
23,2,object_08,object_07,995.39999997616,3,2,-1.0,0.0,1,object_10,5,0,0,3,9,forest_7,2,memory-2step-stake-s,511,1357085,0.0-19.0-0.0-0.23,A15CL9A9FVSJDW,3SD15I2WE5AO7614M34OSYMJOYM362,3300DTYQT6XND5YFGY4K6E3U90NEQX,4,3
24,1,object_06,object_09,1030.2999999523,1,2,-1.0,0.0,1,object_10,5,0,0,5,8,desert_1,2,memory-2step-stake-s,512,1365655,0.0-19.0-0.0-0.24,A15CL9A9FVSJDW,3SD15I2WE5AO7614M34OSYMJOYM362,3300DTYQT6XND5YFGY4K6E3U90NEQX,2,1
25,3,object_01,object_02,1075.9000000954,6,1,-1.0,0.0,2,object_04,1,0,0,3,9,library_7,2,memory-2step-stake-s,513,1374222,0.0-19.0-0.0-0.25,A15CL9A9FVSJDW,3SD15I2WE5AO7614M34OSYMJOYM362,3300DTYQT6XND5YFGY4K6E3U90NEQX,6,5
26,2,object_07,object_08,842.69999992847,3,1,-1.0,0.0,1,object_10,5,0,0,7,5,forest_5,2,memory-2step-stake-s,514,1382794,0.0-19.0-0.0-0.26,A15CL9A9FVSJDW,3SD15I2WE5AO7614M34OSYMJOYM362,3300DTYQT6XND5YFGY4K6E3U90NEQX,3,4
27,2,object_08,object_07,742.89999997616,3,2,-1.0,0.0,1,object_10,1,0,0,7,6,forest_8,2,memory-2step-stake-s,515,1391371,0.0-19.0-0.0-0.27,A15CL9A9FVSJDW,3SD15I2WE5AO7614M34OSYMJOYM362,3300DTYQT6XND5YFGY4K6E3U90NEQX,4,3
28,4,object_03,object_05,444.29999995232,8,2,-1.0,0.0,2,object_04,1,0,0,6,6,restaurant_8,2,memory-2step-stake-s,516,1399960,0.0-19.0-0.0-0.28,A15CL9A9FVSJDW,3SD15I2WE5AO7614M34OSYMJOYM362,3300DTYQT6XND5YFGY4K6E3U90NEQX,7,8
29,3,object_02,object_01,548.5,5,1,549.69999992847,0.6666666666666666,1,object_10,1,6,0,6,2,library_2,2,memory-2step-stake-s,517,1408506,0.0-19.0-0.0-0.29,A15CL9A9FVSJDW,3SD15I2WE5AO7614M34OSYMJOYM362,3300DTYQT6XND5YFGY4K6E3U90NEQX,5,6
30,3,object_01,object_02,469.79999995232,5,2,478.70000004768,0.8888888888888888,1,object_10,1,14,0,8,2,library_2,2,memory-2step-stake-s,518,1417191,0.0-19.0-0.0-0.30,A15CL9A9FVSJDW,3SD15I2WE5AO7614M34OSYMJOYM362,3300DTYQT6XND5YFGY4K6E3U90NEQX,6,5
31,2,object_08,object_07,307.39999997616,3,2,387.30000007153,0.8888888888888888,1,object_10,5,54,0,8,6,forest_8,2,memory-2step-stake-s,519,1425742,0.0-19.0-0.0-0.31,A15CL9A9FVSJDW,3SD15I2WE5AO7614M34OSYMJOYM362,3300DTYQT6XND5YFGY4K6E3U90NEQX,4,3
32,2,object_08,object_07,328.60000002384,4,1,521.79999995232,0.3333333333333333,2,object_04,5,69,0,7,3,forest_5,2,memory-2step-stake-s,520,1433875,0.0-19.0-0.0-0.32,A15CL9A9FVSJDW,3SD15I2WE5AO7614M34OSYMJOYM362,3300DTYQT6XND5YFGY4K6E3U90NEQX,4,3
33,4,object_05,object_03,288.19999992847,7,2,554.39999997616,1.0,1,object_10,1,78,0,9,4,restaurant_8,2,memory-2step-stake-s,521,1442757,0.0-19.0-0.0-0.33,A15CL9A9FVSJDW,3SD15I2WE5AO7614M34OSYMJOYM362,3300DTYQT6XND5YFGY4K6E3U90NEQX,8,7
34,1,object_06,object_09,413.10000002384,1,2,336.10000002384,0.8888888888888888,1,object_10,5,118,0,8,4,desert_6,2,memory-2step-stake-s,522,1451262,0.0-19.0-0.0-0.34,A15CL9A9FVSJDW,3SD15I2WE5AO7614M34OSYMJOYM362,3300DTYQT6XND5YFGY4K6E3U90NEQX,2,1
35,2,object_07,object_08,279.59999990463,3,1,424.89999997616,0.5555555555555556,1,object_10,5,143,0,5,6,forest_8,2,memory-2step-stake-s,523,1459572,0.0-19.0-0.0-0.35,A15CL9A9FVSJDW,3SD15I2WE5AO7614M34OSYMJOYM362,3300DTYQT6XND5YFGY4K6E3U90NEQX,3,4
36,3,object_02,object_01,270.80000007153,6,2,347.60000002384,0.8888888888888888,2,object_04,1,151,0,6,8,library_5,2,memory-2step-stake-s,524,1468123,0.0-19.0-0.0-0.36,A15CL9A9FVSJDW,3SD15I2WE5AO7614M34OSYMJOYM362,3300DTYQT6XND5YFGY4K6E3U90NEQX,5,6
37,2,object_08,object_07,265.80000007153,3,2,512.19999992847,0.6666666666666666,1,object_10,5,181,0,6,8,forest_4,2,memory-2step-stake-s,525,1476609,0.0-19.0-0.0-0.37,A15CL9A9FVSJDW,3SD15I2WE5AO7614M34OSYMJOYM362,3300DTYQT6XND5YFGY4K6E3U90NEQX,4,3
38,3,object_01,object_02,349.29999995232,5,2,288.79999995232,0.5555555555555556,1,object_10,1,186,0,5,8,library_3,2,memory-2step-stake-s,526,1484737,0.0-19.0-0.0-0.38,A15CL9A9FVSJDW,3SD15I2WE5AO7614M34OSYMJOYM362,3300DTYQT6XND5YFGY4K6E3U90NEQX,6,5
39,2,object_08,object_07,276.39999997616,4,1,410.89999997616,0.6666666666666666,2,object_04,5,216,0,2,6,forest_5,2,memory-2step-stake-s,527,1493072,0.0-19.0-0.0-0.39,A15CL9A9FVSJDW,3SD15I2WE5AO7614M34OSYMJOYM362,3300DTYQT6XND5YFGY4K6E3U90NEQX,4,3
40,1,object_09,object_06,269.79999995232,2,2,288.5,0.6666666666666666,2,object_04,5,246,0,1,6,desert_1,2,memory-2step-stake-s,528,1501305,0.0-19.0-0.0-0.40,A15CL9A9FVSJDW,3SD15I2WE5AO7614M34OSYMJOYM362,3300DTYQT6XND5YFGY4K6E3U90NEQX,1,2
41,4,object_03,object_05,291.89999997616,8,2,252.69999992847,0.7777777777777778,2,object_04,1,253,0,3,7,restaurant_5,2,memory-2step-stake-s,529,1509620,0.0-19.0-0.0-0.41,A15CL9A9FVSJDW,3SD15I2WE5AO7614M34OSYMJOYM362,3300DTYQT6XND5YFGY4K6E3U90NEQX,7,8
42,2,object_08,object_07,318.0,4,1,409.70000004768,1.0,2,object_04,5,298,0,5,9,forest_7,2,memory-2step-stake-s,530,1518335,0.0-19.0-0.0-0.42,A15CL9A9FVSJDW,3SD15I2WE5AO7614M34OSYMJOYM362,3300DTYQT6XND5YFGY4K6E3U90NEQX,4,3
43,4,object_03,object_05,273.79999995232,8,2,324.30000007153,0.5555555555555556,2,object_04,1,303,0,7,5,restaurant_1,2,memory-2step-stake-s,531,1526506,0.0-19.0-0.0-0.43,A15CL9A9FVSJDW,3SD15I2WE5AO7614M34OSYMJOYM362,3300DTYQT6XND5YFGY4K6E3U90NEQX,7,8
44,1,object_06,object_09,242.0,1,2,283.89999997616,0.6666666666666666,1,object_10,5,333,0,6,7,desert_8,2,memory-2step-stake-s,532,1534736,0.0-19.0-0.0-0.44,A15CL9A9FVSJDW,3SD15I2WE5AO7614M34OSYMJOYM362,3300DTYQT6XND5YFGY4K6E3U90NEQX,2,1
45,1,object_09,object_06,330.19999992847,1,1,240.89999997616,0.1111111111111111,1,object_10,5,338,0,1,9,desert_5,2,memory-2step-stake-s,533,1542379,0.0-19.0-0.0-0.45,A15CL9A9FVSJDW,3SD15I2WE5AO7614M34OSYMJOYM362,3300DTYQT6XND5YFGY4K6E3U90NEQX,1,2
46,1,object_06,object_09,335.79999995232,1,2,281.10000002384,0.0,1,object_10,5,338,0,0,9,desert_8,2,memory-2step-stake-s,534,1549948,0.0-19.0-0.0-0.46,A15CL9A9FVSJDW,3SD15I2WE5AO7614M34OSYMJOYM362,3300DTYQT6XND5YFGY4K6E3U90NEQX,2,1
47,4,object_03,object_05,437.0,7,1,300.80000007153,0.1111111111111111,1,object_10,1,339,0,1,8,restaurant_1,2,memory-2step-stake-s,535,1557639,0.0-19.0-0.0-0.47,A15CL9A9FVSJDW,3SD15I2WE5AO7614M34OSYMJOYM362,3300DTYQT6XND5YFGY4K6E3U90NEQX,7,8
48,4,object_03,object_05,278.39999997616,8,2,235.89999997616,0.8888888888888888,2,object_04,1,347,0,2,8,restaurant_3,2,memory-2step-stake-s,536,1566052,0.0-19.0-0.0-0.48,A15CL9A9FVSJDW,3SD15I2WE5AO7614M34OSYMJOYM362,3300DTYQT6XND5YFGY4K6E3U90NEQX,7,8
49,2,object_08,object_07,340.79999995232,3,2,333.5,0.3333333333333333,1,object_10,5,362,0,3,8,forest_5,2,memory-2step-stake-s,537,1573994,0.0-19.0-0.0-0.49,A15CL9A9FVSJDW,3SD15I2WE5AO7614M34OSYMJOYM362,3300DTYQT6XND5YFGY4K6E3U90NEQX,4,3
50,2,object_07,object_08,323.39999997616,3,1,213.10000002384,0.2222222222222222,1,object_10,5,372,0,2,8,forest_8,2,memory-2step-stake-s,538,1581703,0.0-19.0-0.0-0.50,A15CL9A9FVSJDW,3SD15I2WE5AO7614M34OSYMJOYM362,3300DTYQT6XND5YFGY4K6E3U90NEQX,3,4
51,2,object_08,object_07,414.5,3,2,279.10000002384,0.4444444444444444,1,object_10,5,392,0,4,8,forest_8,2,memory-2step-stake-s,539,1589716,0.0-19.0-0.0-0.51,A15CL9A9FVSJDW,3SD15I2WE5AO7614M34OSYMJOYM362,3300DTYQT6XND5YFGY4K6E3U90NEQX,4,3
52,2,object_08,object_07,594.70000004768,4,1,426.39999997616,0.8888888888888888,2,object_04,5,432,0,2,8,forest_8,2,memory-2step-stake-s,540,1598278,0.0-19.0-0.0-0.52,A15CL9A9FVSJDW,3SD15I2WE5AO7614M34OSYMJOYM362,3300DTYQT6XND5YFGY4K6E3U90NEQX,4,3
53,1,object_06,object_09,576.89999997616,2,1,327.39999997616,0.7777777777777778,2,object_04,5,467,0,4,7,desert_6,2,memory-2step-stake-s,541,1606667,0.0-19.0-0.0-0.53,A15CL9A9FVSJDW,3SD15I2WE5AO7614M34OSYMJOYM362,3300DTYQT6XND5YFGY4K6E3U90NEQX,2,1
54,1,object_09,object_06,529.39999997616,2,2,399.89999997616,1.0,2,object_04,5,512,0,9,9,desert_6,2,memory-2step-stake-s,542,1615335,0.0-19.0-0.0-0.54,A15CL9A9FVSJDW,3SD15I2WE5AO7614M34OSYMJOYM362,3300DTYQT6XND5YFGY4K6E3U90NEQX,1,2
55,2,object_07,object_08,1089.5,3,1,417.90000009537,1.0,1,object_10,5,557,0,9,8,forest_7,2,memory-2step-stake-s,543,1624041,0.0-19.0-0.0-0.55,A15CL9A9FVSJDW,3SD15I2WE5AO7614M34OSYMJOYM362,3300DTYQT6XND5YFGY4K6E3U90NEQX,3,4
56,3,object_02,object_01,998.90000009537,6,2,386.89999997616,0.8888888888888888,2,object_04,1,565,0,7,8,library_2,2,memory-2step-stake-s,544,1632596,0.0-19.0-0.0-0.56,A15CL9A9FVSJDW,3SD15I2WE5AO7614M34OSYMJOYM362,3300DTYQT6XND5YFGY4K6E3U90NEQX,5,6
57,2,object_08,object_07,528.19999992847,3,2,311.70000004768,1.0,1,object_10,1,574,0,9,8,forest_8,2,memory-2step-stake-s,545,1641181,0.0-19.0-0.0-0.57,A15CL9A9FVSJDW,3SD15I2WE5AO7614M34OSYMJOYM362,3300DTYQT6XND5YFGY4K6E3U90NEQX,4,3
58,3,object_02,object_01,637.70000004768,6,2,280.60000002384,1.0,2,object_04,1,583,0,8,9,library_7,2,memory-2step-stake-s,546,1649738,0.0-19.0-0.0-0.58,A15CL9A9FVSJDW,3SD15I2WE5AO7614M34OSYMJOYM362,3300DTYQT6XND5YFGY4K6E3U90NEQX,5,6
59,4,object_05,object_03,854.20000004768,8,1,360.60000002384,0.8888888888888888,2,object_04,1,591,0,7,8,restaurant_5,2,memory-2step-stake-s,547,1658268,0.0-19.0-0.0-0.59,A15CL9A9FVSJDW,3SD15I2WE5AO7614M34OSYMJOYM362,3300DTYQT6XND5YFGY4K6E3U90NEQX,8,7
60,3,object_02,object_01,491.19999992847,6,2,271.5,1.0,2,object_04,1,600,0,5,9,library_3,2,memory-2step-stake-s,548,1666788,0.0-19.0-0.0-0.60,A15CL9A9FVSJDW,3SD15I2WE5AO7614M34OSYMJOYM362,3300DTYQT6XND5YFGY4K6E3U90NEQX,5,6
61,1,object_09,object_06,614.30000007153,2,2,323.5,0.8888888888888888,2,object_04,5,640,0,6,8,desert_5,2,memory-2step-stake-s,549,1675264,0.0-19.0-0.0-0.61,A15CL9A9FVSJDW,3SD15I2WE5AO7614M34OSYMJOYM362,3300DTYQT6XND5YFGY4K6E3U90NEQX,1,2
62,3,object_01,object_02,461.59999990463,6,1,363.0,0.5555555555555556,2,object_04,1,645,0,8,5,library_7,2,memory-2step-stake-s,550,1683470,0.0-19.0-0.0-0.62,A15CL9A9FVSJDW,3SD15I2WE5AO7614M34OSYMJOYM362,3300DTYQT6XND5YFGY4K6E3U90NEQX,6,5
63,4,object_05,object_03,632.0,8,1,400.60000002384,0.6666666666666666,2,object_04,5,675,0,9,6,restaurant_5,2,memory-2step-stake-s,551,1691815,0.0-19.0-0.0-0.63,A15CL9A9FVSJDW,3SD15I2WE5AO7614M34OSYMJOYM362,3300DTYQT6XND5YFGY4K6E3U90NEQX,8,7
64,3,object_01,object_02,553.70000004768,6,1,355.39999997616,0.7777777777777778,2,object_04,1,682,0,7,7,library_2,2,memory-2step-stake-s,552,1700238,0.0-19.0-0.0-0.64,A15CL9A9FVSJDW,3SD15I2WE5AO7614M34OSYMJOYM362,3300DTYQT6XND5YFGY4K6E3U90NEQX,6,5
65,3,object_02,object_01,453.39999997616,6,2,404.69999992847,1.0,2,object_04,1,691,0,5,9,library_3,2,memory-2step-stake-s,553,1708931,0.0-19.0-0.0-0.65,A15CL9A9FVSJDW,3SD15I2WE5AO7614M34OSYMJOYM362,3300DTYQT6XND5YFGY4K6E3U90NEQX,5,6
66,4,object_05,object_03,593.89999997616,8,1,335.09999990463,1.0,2,object_04,1,700,0,3,9,restaurant_1,2,memory-2step-stake-s,554,1717542,0.0-19.0-0.0-0.66,A15CL9A9FVSJDW,3SD15I2WE5AO7614M34OSYMJOYM362,3300DTYQT6XND5YFGY4K6E3U90NEQX,8,7
67,1,object_06,object_09,616.30000007153,2,1,292.20000004768,0.8888888888888888,2,object_04,5,740,0,2,8,desert_8,2,memory-2step-stake-s,555,1725975,0.0-19.0-0.0-0.67,A15CL9A9FVSJDW,3SD15I2WE5AO7614M34OSYMJOYM362,3300DTYQT6XND5YFGY4K6E3U90NEQX,2,1
68,1,object_09,object_06,1045.6000000238,2,2,289.39999997616,0.6666666666666666,2,object_04,5,770,0,0,6,desert_1,2,memory-2step-stake-s,556,1734210,0.0-19.0-0.0-0.68,A15CL9A9FVSJDW,3SD15I2WE5AO7614M34OSYMJOYM362,3300DTYQT6XND5YFGY4K6E3U90NEQX,1,2
69,4,object_03,object_05,784.79999995232,8,2,318.10000002384,0.6666666666666666,2,object_04,1,776,0,0,6,restaurant_5,2,memory-2step-stake-s,557,1742474,0.0-19.0-0.0-0.69,A15CL9A9FVSJDW,3SD15I2WE5AO7614M34OSYMJOYM362,3300DTYQT6XND5YFGY4K6E3U90NEQX,7,8
70,4,object_03,object_05,702.30000007153,8,2,445.0,0.5555555555555556,2,object_04,1,781,0,0,5,restaurant_3,2,memory-2step-stake-s,558,1750749,0.0-19.0-0.0-0.70,A15CL9A9FVSJDW,3SD15I2WE5AO7614M34OSYMJOYM362,3300DTYQT6XND5YFGY4K6E3U90NEQX,7,8
71,2,object_07,object_08,565.20000004768,3,1,342.89999997616,0.3333333333333333,1,object_10,5,796,0,3,1,forest_4,2,memory-2step-stake-s,559,1758698,0.0-19.0-0.0-0.71,A15CL9A9FVSJDW,3SD15I2WE5AO7614M34OSYMJOYM362,3300DTYQT6XND5YFGY4K6E3U90NEQX,3,4
72,1,object_06,object_09,764.80000007153,2,1,297.70000004768,0.1111111111111111,2,object_04,5,801,0,1,1,desert_8,2,memory-2step-stake-s,560,1766394,0.0-19.0-0.0-0.72,A15CL9A9FVSJDW,3SD15I2WE5AO7614M34OSYMJOYM362,3300DTYQT6XND5YFGY4K6E3U90NEQX,2,1
73,3,object_01,object_02,487.19999992847,5,2,267.20000004768,0.0,1,object_10,5,801,0,0,2,library_2,2,memory-2step-stake-s,561,1773916,0.0-19.0-0.0-0.73,A15CL9A9FVSJDW,3SD15I2WE5AO7614M34OSYMJOYM362,3300DTYQT6XND5YFGY4K6E3U90NEQX,6,5
74,2,object_07,object_08,538.80000007153,4,2,276.39999997616,0.1111111111111111,2,object_04,5,806,0,4,1,forest_7,2,memory-2step-stake-s,562,1781582,0.0-19.0-0.0-0.74,A15CL9A9FVSJDW,3SD15I2WE5AO7614M34OSYMJOYM362,3300DTYQT6XND5YFGY4K6E3U90NEQX,3,4
75,4,object_03,object_05,623.0,7,1,287.30000007153,0.2222222222222222,1,object_10,1,808,0,2,2,restaurant_1,2,memory-2step-stake-s,563,1789372,0.0-19.0-0.0-0.75,A15CL9A9FVSJDW,3SD15I2WE5AO7614M34OSYMJOYM362,3300DTYQT6XND5YFGY4K6E3U90NEQX,7,8
76,2,object_08,object_07,804.70000004768,4,1,290.0,0.2222222222222222,2,object_04,5,818,0,3,2,forest_4,2,memory-2step-stake-s,564,1797183,0.0-19.0-0.0-0.76,A15CL9A9FVSJDW,3SD15I2WE5AO7614M34OSYMJOYM362,3300DTYQT6XND5YFGY4K6E3U90NEQX,4,3
77,4,object_05,object_03,571.70000004768,7,2,261.60000002384,0.0,1,object_10,1,818,0,0,3,restaurant_5,2,memory-2step-stake-s,565,1804725,0.0-19.0-0.0-0.77,A15CL9A9FVSJDW,3SD15I2WE5AO7614M34OSYMJOYM362,3300DTYQT6XND5YFGY4K6E3U90NEQX,8,7
78,4,object_03,object_05,1003.5,8,2,313.70000004768,0.3333333333333333,2,object_04,5,833,0,1,3,restaurant_3,2,memory-2step-stake-s,566,1812648,0.0-19.0-0.0-0.78,A15CL9A9FVSJDW,3SD15I2WE5AO7614M34OSYMJOYM362,3300DTYQT6XND5YFGY4K6E3U90NEQX,7,8
79,2,object_08,object_07,473.39999997616,3,2,241.5,0.1111111111111111,1,object_10,5,838,0,1,0,forest_5,2,memory-2step-stake-s,567,1820265,0.0-19.0-0.0-0.79,A15CL9A9FVSJDW,3SD15I2WE5AO7614M34OSYMJOYM362,3300DTYQT6XND5YFGY4K6E3U90NEQX,4,3
80,2,object_07,object_08,554.10000002384,4,2,413.0,0.4444444444444444,2,object_04,5,858,0,1,4,forest_5,2,memory-2step-stake-s,568,1828387,0.0-19.0-0.0-0.80,A15CL9A9FVSJDW,3SD15I2WE5AO7614M34OSYMJOYM362,3300DTYQT6XND5YFGY4K6E3U90NEQX,3,4
81,4,object_05,object_03,1051.1000000238,7,2,534.79999995232,0.1111111111111111,1,object_10,1,859,0,1,5,restaurant_3,2,memory-2step-stake-s,569,1836309,0.0-19.0-0.0-0.81,A15CL9A9FVSJDW,3SD15I2WE5AO7614M34OSYMJOYM362,3300DTYQT6XND5YFGY4K6E3U90NEQX,8,7
82,4,object_03,object_05,940.60000002384,8,2,304.69999992847,0.3333333333333333,2,object_04,1,862,0,3,3,restaurant_5,2,memory-2step-stake-s,570,1844241,0.0-19.0-0.0-0.82,A15CL9A9FVSJDW,3SD15I2WE5AO7614M34OSYMJOYM362,3300DTYQT6XND5YFGY4K6E3U90NEQX,7,8
83,4,object_03,object_05,873.70000004768,8,2,471.20000004768,0.1111111111111111,2,object_04,1,863,0,3,1,restaurant_8,2,memory-2step-stake-s,571,1852104,0.0-19.0-0.0-0.83,A15CL9A9FVSJDW,3SD15I2WE5AO7614M34OSYMJOYM362,3300DTYQT6XND5YFGY4K6E3U90NEQX,7,8
84,1,object_06,object_09,757.29999995232,2,1,358.89999997616,0.1111111111111111,2,object_04,1,864,0,3,1,desert_6,2,memory-2step-stake-s,572,1859852,0.0-19.0-0.0-0.84,A15CL9A9FVSJDW,3SD15I2WE5AO7614M34OSYMJOYM362,3300DTYQT6XND5YFGY4K6E3U90NEQX,2,1
85,1,object_09,object_06,497.39999997616,1,1,268.0,1.0,1,object_10,5,909,0,9,2,desert_8,2,memory-2step-stake-s,573,1868389,0.0-19.0-0.0-0.85,A15CL9A9FVSJDW,3SD15I2WE5AO7614M34OSYMJOYM362,3300DTYQT6XND5YFGY4K6E3U90NEQX,1,2
86,3,object_02,object_01,830.70000004768,5,1,282.39999997616,0.8888888888888888,1,object_10,5,949,0,8,5,library_2,2,memory-2step-stake-s,574,1876836,0.0-19.0-0.0-0.86,A15CL9A9FVSJDW,3SD15I2WE5AO7614M34OSYMJOYM362,3300DTYQT6XND5YFGY4K6E3U90NEQX,5,6
87,1,object_09,object_06,680.39999997616,1,1,259.60000002384,0.8888888888888888,1,object_10,5,989,0,8,6,desert_5,2,memory-2step-stake-s,575,1885270,0.0-19.0-0.0-0.87,A15CL9A9FVSJDW,3SD15I2WE5AO7614M34OSYMJOYM362,3300DTYQT6XND5YFGY4K6E3U90NEQX,1,2
88,1,object_09,object_06,442.60000002384,1,1,380.79999995232,1.0,1,object_10,5,1034,0,9,3,desert_6,2,memory-2step-stake-s,576,1893933,0.0-19.0-0.0-0.88,A15CL9A9FVSJDW,3SD15I2WE5AO7614M34OSYMJOYM362,3300DTYQT6XND5YFGY4K6E3U90NEQX,1,2
89,1,object_06,object_09,487.70000004768,1,2,351.5,1.0,1,object_10,5,1079,0,9,2,desert_5,2,memory-2step-stake-s,577,1902548,0.0-19.0-0.0-0.89,A15CL9A9FVSJDW,3SD15I2WE5AO7614M34OSYMJOYM362,3300DTYQT6XND5YFGY4K6E3U90NEQX,2,1
90,1,object_09,object_06,501.59999990463,1,1,402.5,0.7777777777777778,1,object_10,5,1114,0,7,2,desert_5,2,memory-2step-stake-s,578,1910999,0.0-19.0-0.0-0.90,A15CL9A9FVSJDW,3SD15I2WE5AO7614M34OSYMJOYM362,3300DTYQT6XND5YFGY4K6E3U90NEQX,1,2
91,4,object_03,object_05,1087.2999999523,8,2,317.29999995232,0.3333333333333333,2,object_04,1,1117,0,7,3,restaurant_5,2,memory-2step-stake-s,579,1918881,0.0-19.0-0.0-0.91,A15CL9A9FVSJDW,3SD15I2WE5AO7614M34OSYMJOYM362,3300DTYQT6XND5YFGY4K6E3U90NEQX,7,8
92,3,object_02,object_01,505.60000002384,5,1,272.5,0.6666666666666666,1,object_10,5,1147,0,6,3,library_5,2,memory-2step-stake-s,580,1927108,0.0-19.0-0.0-0.92,A15CL9A9FVSJDW,3SD15I2WE5AO7614M34OSYMJOYM362,3300DTYQT6XND5YFGY4K6E3U90NEQX,5,6
93,3,object_02,object_01,527.80000007153,5,1,268.40000009537,0.5555555555555556,1,object_10,1,1152,0,5,4,library_3,2,memory-2step-stake-s,581,1935202,0.0-19.0-0.0-0.93,A15CL9A9FVSJDW,3SD15I2WE5AO7614M34OSYMJOYM362,3300DTYQT6XND5YFGY4K6E3U90NEQX,5,6
94,2,object_08,object_07,675.70000004768,4,1,298.29999995232,0.4444444444444444,2,object_04,5,1172,0,3,4,forest_5,2,memory-2step-stake-s,582,1943213,0.0-19.0-0.0-0.94,A15CL9A9FVSJDW,3SD15I2WE5AO7614M34OSYMJOYM362,3300DTYQT6XND5YFGY4K6E3U90NEQX,4,3
95,4,object_03,object_05,1179.5,8,2,306.89999997616,0.3333333333333333,2,object_04,5,1187,0,1,3,restaurant_1,2,memory-2step-stake-s,583,1951096,0.0-19.0-0.0-0.95,A15CL9A9FVSJDW,3SD15I2WE5AO7614M34OSYMJOYM362,3300DTYQT6XND5YFGY4K6E3U90NEQX,7,8
96,4,object_05,object_03,537.39999997616,7,2,257.89999997616,0.5555555555555556,1,object_10,1,1192,0,5,2,restaurant_1,2,memory-2step-stake-s,584,1959189,0.0-19.0-0.0-0.96,A15CL9A9FVSJDW,3SD15I2WE5AO7614M34OSYMJOYM362,3300DTYQT6XND5YFGY4K6E3U90NEQX,8,7
97,2,object_08,object_07,657.69999992847,4,1,268.59999990463,0.0,2,object_04,5,1192,0,3,0,forest_7,2,memory-2step-stake-s,585,1966734,0.0-19.0-0.0-0.97,A15CL9A9FVSJDW,3SD15I2WE5AO7614M34OSYMJOYM362,3300DTYQT6XND5YFGY4K6E3U90NEQX,4,3
98,1,object_09,object_06,1260.7999999523,1,1,538.80000007153,0.0,1,object_10,5,1192,0,0,0,desert_1,2,memory-2step-stake-s,586,1974544,0.0-19.0-0.0-0.98,A15CL9A9FVSJDW,3SD15I2WE5AO7614M34OSYMJOYM362,3300DTYQT6XND5YFGY4K6E3U90NEQX,1,2
99,4,object_05,object_03,1086.2999999523,7,2,304.59999990463,0.2222222222222222,1,object_10,1,1194,0,2,1,restaurant_3,2,memory-2step-stake-s,587,1982321,0.0-19.0-0.0-0.99,A15CL9A9FVSJDW,3SD15I2WE5AO7614M34OSYMJOYM362,3300DTYQT6XND5YFGY4K6E3U90NEQX,8,7
100,2,object_07,object_08,610.39999997616,3,1,263.0,0.4444444444444444,1,object_10,5,1214,0,4,1,forest_8,2,memory-2step-stake-s,588,1990304,0.0-19.0-0.0-0.100,A15CL9A9FVSJDW,3SD15I2WE5AO7614M34OSYMJOYM362,3300DTYQT6XND5YFGY4K6E3U90NEQX,3,4
101,1,object_09,object_06,601.10000002384,1,1,231.29999995232,0.3333333333333333,1,object_10,5,1229,0,3,0,desert_1,2,memory-2step-stake-s,589,1998138,0.0-19.0-0.0-0.101,A15CL9A9FVSJDW,3SD15I2WE5AO7614M34OSYMJOYM362,3300DTYQT6XND5YFGY4K6E3U90NEQX,1,2
102,1,object_06,object_09,411.80000007153,2,1,272.59999990463,0.1111111111111111,2,object_04,5,1234,0,7,1,desert_1,2,memory-2step-stake-s,590,2005797,0.0-19.0-0.0-0.102,A15CL9A9FVSJDW,3SD15I2WE5AO7614M34OSYMJOYM362,3300DTYQT6XND5YFGY4K6E3U90NEQX,2,1
103,1,object_09,object_06,440.89999997616,1,1,345.19999992847,0.6666666666666666,1,object_10,5,1264,0,6,3,desert_8,2,memory-2step-stake-s,591,2014080,0.0-19.0-0.0-0.103,A15CL9A9FVSJDW,3SD15I2WE5AO7614M34OSYMJOYM362,3300DTYQT6XND5YFGY4K6E3U90NEQX,1,2
104,4,object_05,object_03,1191.1000000238,7,2,272.79999995232,0.8888888888888888,1,object_10,5,1304,0,8,1,restaurant_8,2,memory-2step-stake-s,592,2022497,0.0-19.0-0.0-0.104,A15CL9A9FVSJDW,3SD15I2WE5AO7614M34OSYMJOYM362,3300DTYQT6XND5YFGY4K6E3U90NEQX,8,7
105,2,object_07,object_08,1050.8000000715,3,1,278.5,0.8888888888888888,1,object_10,5,1344,0,8,1,forest_7,2,memory-2step-stake-s,593,2030925,0.0-19.0-0.0-0.105,A15CL9A9FVSJDW,3SD15I2WE5AO7614M34OSYMJOYM362,3300DTYQT6XND5YFGY4K6E3U90NEQX,3,4
106,4,object_05,object_03,1012.0,8,1,231.0,0.1111111111111111,2,object_04,1,1345,0,7,1,restaurant_1,2,memory-2step-stake-s,594,2038552,0.0-19.0-0.0-0.106,A15CL9A9FVSJDW,3SD15I2WE5AO7614M34OSYMJOYM362,3300DTYQT6XND5YFGY4K6E3U90NEQX,8,7
107,3,object_02,object_01,569.70000004768,6,2,227.60000002384,0.1111111111111111,2,object_04,1,1346,0,5,1,library_5,2,memory-2step-stake-s,595,2046146,0.0-19.0-0.0-0.107,A15CL9A9FVSJDW,3SD15I2WE5AO7614M34OSYMJOYM362,3300DTYQT6XND5YFGY4K6E3U90NEQX,5,6
108,2,object_07,object_08,583.29999995232,3,1,385.70000004768,0.5555555555555556,1,object_10,5,1371,0,5,0,forest_8,2,memory-2step-stake-s,596,2054380,0.0-19.0-0.0-0.108,A15CL9A9FVSJDW,3SD15I2WE5AO7614M34OSYMJOYM362,3300DTYQT6XND5YFGY4K6E3U90NEQX,3,4
109,4,object_05,object_03,476.09999990463,7,2,259.60000002384,0.5555555555555556,1,object_10,1,1376,0,5,3,restaurant_1,2,memory-2step-stake-s,597,2062479,0.0-19.0-0.0-0.109,A15CL9A9FVSJDW,3SD15I2WE5AO7614M34OSYMJOYM362,3300DTYQT6XND5YFGY4K6E3U90NEQX,8,7
110,4,object_05,object_03,714.39999997616,7,2,234.60000002384,0.6666666666666666,1,object_10,1,1382,0,6,1,restaurant_3,2,memory-2step-stake-s,598,2070620,0.0-19.0-0.0-0.110,A15CL9A9FVSJDW,3SD15I2WE5AO7614M34OSYMJOYM362,3300DTYQT6XND5YFGY4K6E3U90NEQX,8,7
111,3,object_01,object_02,1038.8999999762,5,2,257.79999995232,0.7777777777777778,1,object_10,1,1389,0,7,2,library_5,2,memory-2step-stake-s,599,2078924,0.0-19.0-0.0-0.111,A15CL9A9FVSJDW,3SD15I2WE5AO7614M34OSYMJOYM362,3300DTYQT6XND5YFGY4K6E3U90NEQX,6,5
112,2,object_08,object_07,739.60000002384,3,2,258.19999992847,0.6666666666666666,1,object_10,5,1419,0,6,4,forest_4,2,memory-2step-stake-s,600,2087123,0.0-19.0-0.0-0.112,A15CL9A9FVSJDW,3SD15I2WE5AO7614M34OSYMJOYM362,3300DTYQT6XND5YFGY4K6E3U90NEQX,4,3
113,2,object_08,object_07,474.20000004768,3,2,258.20000004768,0.3333333333333333,1,object_10,1,1422,0,3,3,forest_5,2,memory-2step-stake-s,601,2095000,0.0-19.0-0.0-0.113,A15CL9A9FVSJDW,3SD15I2WE5AO7614M34OSYMJOYM362,3300DTYQT6XND5YFGY4K6E3U90NEQX,4,3
114,2,object_07,object_08,493.79999995232,3,1,351.39999997616,0.2222222222222222,1,object_10,5,1432,0,2,1,forest_4,2,memory-2step-stake-s,602,2102836,0.0-19.0-0.0-0.114,A15CL9A9FVSJDW,3SD15I2WE5AO7614M34OSYMJOYM362,3300DTYQT6XND5YFGY4K6E3U90NEQX,3,4
115,4,object_03,object_05,632.10000002384,7,1,310.70000004768,0.3333333333333333,1,object_10,1,1435,0,3,2,restaurant_8,2,memory-2step-stake-s,603,2110742,0.0-19.0-0.0-0.115,A15CL9A9FVSJDW,3SD15I2WE5AO7614M34OSYMJOYM362,3300DTYQT6XND5YFGY4K6E3U90NEQX,7,8
116,2,object_08,object_07,473.20000004768,3,2,227.79999995232,0.5555555555555556,1,object_10,5,1460,0,5,2,forest_7,2,memory-2step-stake-s,604,2118824,0.0-19.0-0.0-0.116,A15CL9A9FVSJDW,3SD15I2WE5AO7614M34OSYMJOYM362,3300DTYQT6XND5YFGY4K6E3U90NEQX,4,3
117,1,object_09,object_06,480.0,1,1,250.39999997616,0.5555555555555556,1,object_10,1,1465,0,5,1,desert_5,2,memory-2step-stake-s,605,2126915,0.0-19.0-0.0-0.117,A15CL9A9FVSJDW,3SD15I2WE5AO7614M34OSYMJOYM362,3300DTYQT6XND5YFGY4K6E3U90NEQX,1,2
118,3,object_01,object_02,509.40000009537,5,2,270.29999995232,0.7777777777777778,1,object_10,1,1472,0,7,1,library_2,2,memory-2step-stake-s,606,2135238,0.0-19.0-0.0-0.118,A15CL9A9FVSJDW,3SD15I2WE5AO7614M34OSYMJOYM362,3300DTYQT6XND5YFGY4K6E3U90NEQX,6,5
119,1,object_06,object_09,679.39999997616,1,2,335.59999990463,0.7777777777777778,1,object_10,5,1507,0,7,0,desert_6,2,memory-2step-stake-s,607,2143636,0.0-19.0-0.0-0.119,A15CL9A9FVSJDW,3SD15I2WE5AO7614M34OSYMJOYM362,3300DTYQT6XND5YFGY4K6E3U90NEQX,2,1
120,1,object_09,object_06,725.60000002384,1,1,379.10000002384,1.0,1,object_10,5,1552,0,9,1,desert_1,2,memory-2step-stake-s,608,2152296,0.0-19.0-0.0-0.120,A15CL9A9FVSJDW,3SD15I2WE5AO7614M34OSYMJOYM362,3300DTYQT6XND5YFGY4K6E3U90NEQX,1,2
121,2,object_08,object_07,568.10000002384,3,2,313.79999995232,0.8888888888888888,1,object_10,1,1560,0,8,3,forest_7,2,memory-2step-stake-s,609,2160747,0.0-19.0-0.0-0.121,A15CL9A9FVSJDW,3SD15I2WE5AO7614M34OSYMJOYM362,3300DTYQT6XND5YFGY4K6E3U90NEQX,4,3
122,2,object_08,object_07,465.19999992847,3,2,274.0,0.6666666666666666,1,object_10,5,1590,0,6,4,forest_5,2,memory-2step-stake-s,610,2168939,0.0-19.0-0.0-0.122,A15CL9A9FVSJDW,3SD15I2WE5AO7614M34OSYMJOYM362,3300DTYQT6XND5YFGY4K6E3U90NEQX,4,3
123,2,object_07,object_08,536.70000004768,3,1,381.60000002384,0.5555555555555556,1,object_10,1,1595,0,5,4,forest_4,2,memory-2step-stake-s,611,2177125,0.0-19.0-0.0-0.123,A15CL9A9FVSJDW,3SD15I2WE5AO7614M34OSYMJOYM362,3300DTYQT6XND5YFGY4K6E3U90NEQX,3,4
124,3,object_01,object_02,915.30000007153,5,2,251.60000002384,0.7777777777777778,1,object_10,1,1602,0,7,5,library_5,2,memory-2step-stake-s,612,2185404,0.0-19.0-0.0-0.124,A15CL9A9FVSJDW,3SD15I2WE5AO7614M34OSYMJOYM362,3300DTYQT6XND5YFGY4K6E3U90NEQX,6,5
125,3,object_01,object_02,595.89999997616,5,2,283.70000004768,0.8888888888888888,1,object_10,1,1610,0,8,8,library_2,2,memory-2step-stake-s,613,2193828,0.0-19.0-0.0-0.125,A15CL9A9FVSJDW,3SD15I2WE5AO7614M34OSYMJOYM362,3300DTYQT6XND5YFGY4K6E3U90NEQX,6,5
126,4,object_05,object_03,501.79999995232,7,2,240.30000007153,0.7777777777777778,1,object_10,1,1617,0,7,8,restaurant_3,2,memory-2step-stake-s,614,2202120,0.0-19.0-0.0-0.126,A15CL9A9FVSJDW,3SD15I2WE5AO7614M34OSYMJOYM362,3300DTYQT6XND5YFGY4K6E3U90NEQX,8,7
127,1,object_09,object_06,469.69999992847,1,1,326.29999995232,1.0,1,object_10,5,1662,0,9,6,desert_6,2,memory-2step-stake-s,615,2210682,0.0-19.0-0.0-0.127,A15CL9A9FVSJDW,3SD15I2WE5AO7614M34OSYMJOYM362,3300DTYQT6XND5YFGY4K6E3U90NEQX,1,2
128,2,object_07,object_08,578.0,3,1,381.10000002384,0.7777777777777778,1,object_10,5,1697,0,7,5,forest_5,2,memory-2step-stake-s,617,2222974,0.0-19.0-0.1-0.128,A15CL9A9FVSJDW,3SD15I2WE5AO7614M34OSYMJOYM362,3300DTYQT6XND5YFGY4K6E3U90NEQX,3,4
129,2,object_07,object_08,465.0,3,1,567.60000002384,0.6666666666666666,1,object_10,1,1703,0,6,5,forest_4,2,memory-2step-stake-s,618,2231492,0.0-19.0-0.1-0.129,A15CL9A9FVSJDW,3SD15I2WE5AO7614M34OSYMJOYM362,3300DTYQT6XND5YFGY4K6E3U90NEQX,3,4
130,4,object_05,object_03,466.89999997616,7,2,263.19999992847,0.5555555555555556,1,object_10,1,1708,0,5,6,restaurant_1,2,memory-2step-stake-s,619,2239619,0.0-19.0-0.1-0.130,A15CL9A9FVSJDW,3SD15I2WE5AO7614M34OSYMJOYM362,3300DTYQT6XND5YFGY4K6E3U90NEQX,8,7
131,2,object_08,object_07,498.10000002384,3,2,319.59999990463,0.5555555555555556,1,object_10,5,1733,0,5,4,forest_4,2,memory-2step-stake-s,620,2247807,0.0-19.0-0.1-0.131,A15CL9A9FVSJDW,3SD15I2WE5AO7614M34OSYMJOYM362,3300DTYQT6XND5YFGY4K6E3U90NEQX,4,3
132,4,object_03,object_05,695.90000009537,7,1,267.39999997616,0.6666666666666666,1,object_10,1,1739,0,6,3,restaurant_8,2,memory-2step-stake-s,621,2256020,0.0-19.0-0.1-0.132,A15CL9A9FVSJDW,3SD15I2WE5AO7614M34OSYMJOYM362,3300DTYQT6XND5YFGY4K6E3U90NEQX,7,8
133,3,object_02,object_01,647.39999997616,5,1,239.39999997616,0.4444444444444444,1,object_10,1,1743,0,4,3,library_2,2,memory-2step-stake-s,622,2263981,0.0-19.0-0.1-0.133,A15CL9A9FVSJDW,3SD15I2WE5AO7614M34OSYMJOYM362,3300DTYQT6XND5YFGY4K6E3U90NEQX,5,6
134,2,object_08,object_07,505.10000002384,3,2,273.30000007153,0.4444444444444444,1,object_10,5,1763,0,4,2,forest_8,2,memory-2step-stake-s,623,2271976,0.0-19.0-0.1-0.134,A15CL9A9FVSJDW,3SD15I2WE5AO7614M34OSYMJOYM362,3300DTYQT6XND5YFGY4K6E3U90NEQX,4,3
135,1,object_06,object_09,429.20000004768,1,2,372.70000004768,0.4444444444444444,1,object_10,5,1783,0,4,1,desert_6,2,memory-2step-stake-s,624,2280079,0.0-19.0-0.1-0.135,A15CL9A9FVSJDW,3SD15I2WE5AO7614M34OSYMJOYM362,3300DTYQT6XND5YFGY4K6E3U90NEQX,2,1
136,1,object_09,object_06,514.10000002384,1,1,322.40000009537,0.3333333333333333,1,object_10,5,1798,0,3,4,desert_8,2,memory-2step-stake-s,625,2288033,0.0-19.0-0.1-0.136,A15CL9A9FVSJDW,3SD15I2WE5AO7614M34OSYMJOYM362,3300DTYQT6XND5YFGY4K6E3U90NEQX,1,2
137,4,object_05,object_03,615.60000002384,7,2,225.20000004768,0.3333333333333333,1,object_10,5,1813,0,3,2,restaurant_5,2,memory-2step-stake-s,626,2295854,0.0-19.0-0.1-0.137,A15CL9A9FVSJDW,3SD15I2WE5AO7614M34OSYMJOYM362,3300DTYQT6XND5YFGY4K6E3U90NEQX,8,7
138,1,object_09,object_06,415.80000007153,1,1,273.0,0.2222222222222222,1,object_10,5,1823,0,2,0,desert_5,2,memory-2step-stake-s,627,2303615,0.0-19.0-0.1-0.138,A15CL9A9FVSJDW,3SD15I2WE5AO7614M34OSYMJOYM362,3300DTYQT6XND5YFGY4K6E3U90NEQX,1,2
139,4,object_05,object_03,390.39999997616,8,1,284.39999997616,0.0,2,object_04,5,1823,0,1,0,restaurant_8,2,memory-2step-stake-s,628,2311172,0.0-19.0-0.1-0.139,A15CL9A9FVSJDW,3SD15I2WE5AO7614M34OSYMJOYM362,3300DTYQT6XND5YFGY4K6E3U90NEQX,8,7
140,1,object_09,object_06,436.70000004768,1,1,308.19999992847,0.2222222222222222,1,object_10,1,1825,0,2,1,desert_8,2,memory-2step-stake-s,629,2318964,0.0-19.0-0.1-0.140,A15CL9A9FVSJDW,3SD15I2WE5AO7614M34OSYMJOYM362,3300DTYQT6XND5YFGY4K6E3U90NEQX,1,2
141,3,object_01,object_02,725.10000002384,6,1,273.20000004768,0.0,2,object_04,1,1825,0,2,0,library_7,2,memory-2step-stake-s,630,2326514,0.0-19.0-0.1-0.141,A15CL9A9FVSJDW,3SD15I2WE5AO7614M34OSYMJOYM362,3300DTYQT6XND5YFGY4K6E3U90NEQX,6,5
142,3,object_01,object_02,630.09999990463,5,2,318.59999990463,0.1111111111111111,1,object_10,5,1830,0,1,1,library_7,2,memory-2step-stake-s,631,2334226,0.0-19.0-0.1-0.142,A15CL9A9FVSJDW,3SD15I2WE5AO7614M34OSYMJOYM362,3300DTYQT6XND5YFGY4K6E3U90NEQX,6,5
143,3,object_02,object_01,532.79999995232,6,2,264.29999995232,0.3333333333333333,2,object_04,1,1833,0,1,3,library_7,2,memory-2step-stake-s,632,2342085,0.0-19.0-0.1-0.143,A15CL9A9FVSJDW,3SD15I2WE5AO7614M34OSYMJOYM362,3300DTYQT6XND5YFGY4K6E3U90NEQX,5,6
144,4,object_03,object_05,514.0,8,2,266.09999990463,0.2222222222222222,2,object_04,1,1835,0,0,2,restaurant_8,2,memory-2step-stake-s,633,2349858,0.0-19.0-0.1-0.144,A15CL9A9FVSJDW,3SD15I2WE5AO7614M34OSYMJOYM362,3300DTYQT6XND5YFGY4K6E3U90NEQX,7,8
145,3,object_01,object_02,487.0,6,1,356.90000009537,0.3333333333333333,2,object_04,1,1838,0,1,3,library_7,2,memory-2step-stake-s,634,2357823,0.0-19.0-0.1-0.145,A15CL9A9FVSJDW,3SD15I2WE5AO7614M34OSYMJOYM362,3300DTYQT6XND5YFGY4K6E3U90NEQX,6,5
146,3,object_02,object_01,536.5,6,2,307.89999997616,0.4444444444444444,2,object_04,1,1842,0,2,4,library_5,2,memory-2step-stake-s,635,2365876,0.0-19.0-0.1-0.146,A15CL9A9FVSJDW,3SD15I2WE5AO7614M34OSYMJOYM362,3300DTYQT6XND5YFGY4K6E3U90NEQX,5,6
147,3,object_01,object_02,580.20000004768,6,1,386.10000002384,0.3333333333333333,2,object_04,5,1857,0,1,3,library_7,2,memory-2step-stake-s,636,2373864,0.0-19.0-0.1-0.147,A15CL9A9FVSJDW,3SD15I2WE5AO7614M34OSYMJOYM362,3300DTYQT6XND5YFGY4K6E3U90NEQX,6,5
148,4,object_03,object_05,953.60000002384,8,2,626.79999995232,0.1111111111111111,2,object_04,1,1858,0,1,1,restaurant_8,2,memory-2step-stake-s,637,2381877,0.0-19.0-0.1-0.148,A15CL9A9FVSJDW,3SD15I2WE5AO7614M34OSYMJOYM362,3300DTYQT6XND5YFGY4K6E3U90NEQX,7,8
149,1,object_06,object_09,669.0,2,1,247.60000002384,0.1111111111111111,2,object_04,5,1863,0,1,1,desert_8,2,memory-2step-stake-s,638,2389510,0.0-19.0-0.1-0.149,A15CL9A9FVSJDW,3SD15I2WE5AO7614M34OSYMJOYM362,3300DTYQT6XND5YFGY4K6E3U90NEQX,2,1
150,2,object_07,object_08,928.39999997616,4,2,277.90000009537,0.0,2,object_04,5,1863,0,2,0,forest_4,2,memory-2step-stake-s,639,2397077,0.0-19.0-0.1-0.150,A15CL9A9FVSJDW,3SD15I2WE5AO7614M34OSYMJOYM362,3300DTYQT6XND5YFGY4K6E3U90NEQX,3,4
151,4,object_05,object_03,763.39999997616,8,1,250.39999997616,0.2222222222222222,2,object_04,5,1873,0,4,2,restaurant_8,2,memory-2step-stake-s,640,2404808,0.0-19.0-0.1-0.151,A15CL9A9FVSJDW,3SD15I2WE5AO7614M34OSYMJOYM362,3300DTYQT6XND5YFGY4K6E3U90NEQX,8,7
152,3,object_01,object_02,445.0,6,1,260.10000002384,0.1111111111111111,2,object_04,1,1874,0,5,1,library_7,2,memory-2step-stake-s,641,2412450,0.0-19.0-0.1-0.152,A15CL9A9FVSJDW,3SD15I2WE5AO7614M34OSYMJOYM362,3300DTYQT6XND5YFGY4K6E3U90NEQX,6,5
153,2,object_08,object_07,540.10000002384,3,2,332.39999997616,1.0,1,object_10,5,1919,0,9,3,forest_5,2,memory-2step-stake-s,642,2421093,0.0-19.0-0.1-0.153,A15CL9A9FVSJDW,3SD15I2WE5AO7614M34OSYMJOYM362,3300DTYQT6XND5YFGY4K6E3U90NEQX,4,3
154,3,object_01,object_02,570.60000002384,5,2,228.90000009537,0.7777777777777778,1,object_10,1,1926,0,7,3,library_5,2,memory-2step-stake-s,643,2429371,0.0-19.0-0.1-0.154,A15CL9A9FVSJDW,3SD15I2WE5AO7614M34OSYMJOYM362,3300DTYQT6XND5YFGY4K6E3U90NEQX,6,5
155,3,object_01,object_02,428.39999997616,5,2,277.39999997616,0.6666666666666666,1,object_10,1,1932,0,6,5,library_2,2,memory-2step-stake-s,644,2437575,0.0-19.0-0.1-0.155,A15CL9A9FVSJDW,3SD15I2WE5AO7614M34OSYMJOYM362,3300DTYQT6XND5YFGY4K6E3U90NEQX,6,5
156,3,object_02,object_01,445.5,5,1,325.29999995232,1.0,1,object_10,5,1977,0,9,3,library_2,2,memory-2step-stake-s,645,2446158,0.0-19.0-0.1-0.156,A15CL9A9FVSJDW,3SD15I2WE5AO7614M34OSYMJOYM362,3300DTYQT6XND5YFGY4K6E3U90NEQX,5,6
157,4,object_05,object_03,883.60000002384,8,1,380.69999992847,0.0,2,object_04,1,1977,0,9,0,restaurant_5,2,memory-2step-stake-s,646,2453808,0.0-19.0-0.1-0.157,A15CL9A9FVSJDW,3SD15I2WE5AO7614M34OSYMJOYM362,3300DTYQT6XND5YFGY4K6E3U90NEQX,8,7
158,3,object_01,object_02,467.70000004768,5,2,397.79999995232,0.8888888888888888,1,object_10,1,1985,0,8,2,library_3,2,memory-2step-stake-s,647,2462372,0.0-19.0-0.1-0.158,A15CL9A9FVSJDW,3SD15I2WE5AO7614M34OSYMJOYM362,3300DTYQT6XND5YFGY4K6E3U90NEQX,6,5
159,2,object_08,object_07,581.40000009537,3,2,348.70000004768,0.6666666666666666,1,object_10,5,2015,0,6,4,forest_5,2,memory-2step-stake-s,648,2470639,0.0-19.0-0.1-0.159,A15CL9A9FVSJDW,3SD15I2WE5AO7614M34OSYMJOYM362,3300DTYQT6XND5YFGY4K6E3U90NEQX,4,3
160,4,object_03,object_05,932.90000009537,7,1,262.39999997616,0.3333333333333333,1,object_10,5,2030,0,3,3,restaurant_1,2,memory-2step-stake-s,649,2478506,0.0-19.0-0.1-0.160,A15CL9A9FVSJDW,3SD15I2WE5AO7614M34OSYMJOYM362,3300DTYQT6XND5YFGY4K6E3U90NEQX,7,8
161,4,object_05,object_03,549.0,7,2,409.10000002384,0.2222222222222222,1,object_10,1,2032,0,2,4,restaurant_5,2,memory-2step-stake-s,650,2486396,0.0-19.0-0.1-0.161,A15CL9A9FVSJDW,3SD15I2WE5AO7614M34OSYMJOYM362,3300DTYQT6XND5YFGY4K6E3U90NEQX,8,7
162,2,object_08,object_07,520.0,3,2,230.79999995232,0.4444444444444444,1,object_10,5,2052,0,4,4,forest_4,2,memory-2step-stake-s,651,2494345,0.0-19.0-0.1-0.162,A15CL9A9FVSJDW,3SD15I2WE5AO7614M34OSYMJOYM362,3300DTYQT6XND5YFGY4K6E3U90NEQX,4,3
163,2,object_07,object_08,646.19999992847,3,1,306.90000009537,0.0,1,object_10,5,2052,0,0,6,forest_4,2,memory-2step-stake-s,652,2501921,0.0-19.0-0.1-0.163,A15CL9A9FVSJDW,3SD15I2WE5AO7614M34OSYMJOYM362,3300DTYQT6XND5YFGY4K6E3U90NEQX,3,4
164,1,object_06,object_09,878.0,2,1,314.89999997616,0.5555555555555556,2,object_04,1,2057,0,0,5,desert_1,2,memory-2step-stake-s,653,2510092,0.0-19.0-0.1-0.164,A15CL9A9FVSJDW,3SD15I2WE5AO7614M34OSYMJOYM362,3300DTYQT6XND5YFGY4K6E3U90NEQX,2,1
165,3,object_02,object_01,470.0,5,1,224.69999992847,0.1111111111111111,1,object_10,1,2058,0,1,4,library_5,2,memory-2step-stake-s,654,2517716,0.0-19.0-0.1-0.165,A15CL9A9FVSJDW,3SD15I2WE5AO7614M34OSYMJOYM362,3300DTYQT6XND5YFGY4K6E3U90NEQX,5,6
166,3,object_02,object_01,457.19999992847,6,2,292.29999995232,0.4444444444444444,2,object_04,1,2062,0,3,4,library_5,2,memory-2step-stake-s,655,2525722,0.0-19.0-0.1-0.166,A15CL9A9FVSJDW,3SD15I2WE5AO7614M34OSYMJOYM362,3300DTYQT6XND5YFGY4K6E3U90NEQX,5,6
167,4,object_03,object_05,535.10000002384,7,1,265.5,0.4444444444444444,1,object_10,5,2082,0,4,6,restaurant_8,2,memory-2step-stake-s,656,2533715,0.0-19.0-0.1-0.167,A15CL9A9FVSJDW,3SD15I2WE5AO7614M34OSYMJOYM362,3300DTYQT6XND5YFGY4K6E3U90NEQX,7,8
168,1,object_09,object_06,468.5,2,2,266.10000002384,0.7777777777777778,2,object_04,5,2117,0,3,7,desert_6,2,memory-2step-stake-s,657,2542054,0.0-19.0-0.1-0.168,A15CL9A9FVSJDW,3SD15I2WE5AO7614M34OSYMJOYM362,3300DTYQT6XND5YFGY4K6E3U90NEQX,1,2
169,1,object_09,object_06,412.80000007153,2,2,292.0,0.6666666666666666,2,object_04,5,2147,0,6,6,desert_1,2,memory-2step-stake-s,658,2550292,0.0-19.0-0.1-0.169,A15CL9A9FVSJDW,3SD15I2WE5AO7614M34OSYMJOYM362,3300DTYQT6XND5YFGY4K6E3U90NEQX,1,2
170,1,object_09,object_06,501.20000004768,2,2,189.60000002384,0.2222222222222222,2,object_04,5,2157,0,9,2,desert_8,2,memory-2step-stake-s,659,2557977,0.0-19.0-0.1-0.170,A15CL9A9FVSJDW,3SD15I2WE5AO7614M34OSYMJOYM362,3300DTYQT6XND5YFGY4K6E3U90NEQX,1,2
171,2,object_07,object_08,431.0,4,2,240.79999995232,0.0,2,object_04,5,2157,0,6,0,forest_8,2,memory-2step-stake-s,660,2565468,0.0-19.0-0.1-0.171,A15CL9A9FVSJDW,3SD15I2WE5AO7614M34OSYMJOYM362,3300DTYQT6XND5YFGY4K6E3U90NEQX,3,4
172,3,object_02,object_01,438.80000007153,6,2,319.79999995232,0.1111111111111111,2,object_04,1,2158,0,5,1,library_7,2,memory-2step-stake-s,661,2573147,0.0-19.0-0.1-0.172,A15CL9A9FVSJDW,3SD15I2WE5AO7614M34OSYMJOYM362,3300DTYQT6XND5YFGY4K6E3U90NEQX,5,6
173,2,object_08,object_07,496.69999992847,3,2,242.70000004768,0.6666666666666666,1,object_10,1,2164,0,6,0,forest_7,2,memory-2step-stake-s,662,2581344,0.0-19.0-0.1-0.173,A15CL9A9FVSJDW,3SD15I2WE5AO7614M34OSYMJOYM362,3300DTYQT6XND5YFGY4K6E3U90NEQX,4,3
174,2,object_08,object_07,481.69999992847,3,2,311.60000002384,0.6666666666666666,1,object_10,5,2194,0,6,4,forest_7,2,memory-2step-stake-s,663,2589583,0.0-19.0-0.1-0.174,A15CL9A9FVSJDW,3SD15I2WE5AO7614M34OSYMJOYM362,3300DTYQT6XND5YFGY4K6E3U90NEQX,4,3
175,1,object_06,object_09,486.70000004768,2,1,278.20000004768,0.4444444444444444,2,object_04,5,2214,0,5,4,desert_6,2,memory-2step-stake-s,664,2597564,0.0-19.0-0.1-0.175,A15CL9A9FVSJDW,3SD15I2WE5AO7614M34OSYMJOYM362,3300DTYQT6XND5YFGY4K6E3U90NEQX,2,1
176,3,object_02,object_01,684.60000002384,6,2,247.39999997616,0.3333333333333333,2,object_04,1,2217,0,5,3,library_3,2,memory-2step-stake-s,665,2605415,0.0-19.0-0.1-0.176,A15CL9A9FVSJDW,3SD15I2WE5AO7614M34OSYMJOYM362,3300DTYQT6XND5YFGY4K6E3U90NEQX,5,6
177,1,object_09,object_06,403.39999997616,2,2,324.60000002384,0.2222222222222222,2,object_04,5,2227,0,6,2,desert_8,2,memory-2step-stake-s,666,2613213,0.0-19.0-0.1-0.177,A15CL9A9FVSJDW,3SD15I2WE5AO7614M34OSYMJOYM362,3300DTYQT6XND5YFGY4K6E3U90NEQX,1,2
178,3,object_01,object_02,467.60000002384,6,1,265.39999997616,0.4444444444444444,2,object_04,1,2231,0,6,4,library_2,2,memory-2step-stake-s,667,2621181,0.0-19.0-0.1-0.178,A15CL9A9FVSJDW,3SD15I2WE5AO7614M34OSYMJOYM362,3300DTYQT6XND5YFGY4K6E3U90NEQX,6,5
179,3,object_01,object_02,696.80000007153,6,1,344.29999995232,0.7777777777777778,2,object_04,5,2266,0,6,7,library_7,2,memory-2step-stake-s,668,2629556,0.0-19.0-0.1-0.179,A15CL9A9FVSJDW,3SD15I2WE5AO7614M34OSYMJOYM362,3300DTYQT6XND5YFGY4K6E3U90NEQX,6,5
180,1,object_06,object_09,709.60000002384,2,1,345.5,0.7777777777777778,2,object_04,5,2301,0,8,7,desert_8,2,memory-2step-stake-s,669,2637947,0.0-19.0-0.1-0.180,A15CL9A9FVSJDW,3SD15I2WE5AO7614M34OSYMJOYM362,3300DTYQT6XND5YFGY4K6E3U90NEQX,2,1
181,4,object_05,object_03,673.09999990463,7,2,240.19999992847,0.8888888888888888,1,object_10,1,2309,0,8,8,restaurant_3,2,memory-2step-stake-s,670,2646326,0.0-19.0-0.1-0.181,A15CL9A9FVSJDW,3SD15I2WE5AO7614M34OSYMJOYM362,3300DTYQT6XND5YFGY4K6E3U90NEQX,8,7
182,1,object_06,object_09,418.79999995232,2,1,348.90000009537,0.6666666666666666,2,object_04,1,2315,0,9,6,desert_1,2,memory-2step-stake-s,671,2654642,0.0-19.0-0.1-0.182,A15CL9A9FVSJDW,3SD15I2WE5AO7614M34OSYMJOYM362,3300DTYQT6XND5YFGY4K6E3U90NEQX,2,1
183,1,object_09,object_06,393.69999992847,2,2,399.89999997616,0.6666666666666666,2,object_04,1,2321,0,7,6,desert_5,2,memory-2step-stake-s,672,2662986,0.0-19.0-0.1-0.183,A15CL9A9FVSJDW,3SD15I2WE5AO7614M34OSYMJOYM362,3300DTYQT6XND5YFGY4K6E3U90NEQX,1,2
184,3,object_01,object_02,655.20000004768,5,2,410.20000004768,0.8888888888888888,1,object_10,1,2329,0,8,6,library_5,2,memory-2step-stake-s,673,2671562,0.0-19.0-0.1-0.184,A15CL9A9FVSJDW,3SD15I2WE5AO7614M34OSYMJOYM362,3300DTYQT6XND5YFGY4K6E3U90NEQX,6,5
185,3,object_01,object_02,400.70000004768,5,2,622.5,1.0,1,object_10,5,2374,0,9,2,library_5,2,memory-2step-stake-s,674,2680458,0.0-19.0-0.1-0.185,A15CL9A9FVSJDW,3SD15I2WE5AO7614M34OSYMJOYM362,3300DTYQT6XND5YFGY4K6E3U90NEQX,6,5
186,3,object_02,object_01,453.29999995232,5,1,425.20000004768,0.7777777777777778,1,object_10,1,2381,0,7,4,library_2,2,memory-2step-stake-s,675,2688923,0.0-19.0-0.1-0.186,A15CL9A9FVSJDW,3SD15I2WE5AO7614M34OSYMJOYM362,3300DTYQT6XND5YFGY4K6E3U90NEQX,5,6
187,2,object_07,object_08,1123.3999999762,3,1,290.40000009537,0.5555555555555556,1,object_10,1,2386,0,5,2,forest_8,2,memory-2step-stake-s,676,2697067,0.0-19.0-0.1-0.187,A15CL9A9FVSJDW,3SD15I2WE5AO7614M34OSYMJOYM362,3300DTYQT6XND5YFGY4K6E3U90NEQX,3,4
188,2,object_07,object_08,428.5,3,1,384.0,0.4444444444444444,1,object_10,5,2406,0,4,1,forest_8,2,memory-2step-stake-s,677,2705155,0.0-19.0-0.1-0.188,A15CL9A9FVSJDW,3SD15I2WE5AO7614M34OSYMJOYM362,3300DTYQT6XND5YFGY4K6E3U90NEQX,3,4
189,4,object_03,object_05,699.90000009537,7,1,405.0,0.5555555555555556,1,object_10,1,2411,0,5,3,restaurant_5,2,memory-2step-stake-s,678,2713415,0.0-19.0-0.1-0.189,A15CL9A9FVSJDW,3SD15I2WE5AO7614M34OSYMJOYM362,3300DTYQT6XND5YFGY4K6E3U90NEQX,7,8
190,2,object_08,object_07,495.80000007153,3,2,397.5,0.3333333333333333,1,object_10,5,2426,0,3,4,forest_8,2,memory-2step-stake-s,679,2721421,0.0-19.0-0.1-0.190,A15CL9A9FVSJDW,3SD15I2WE5AO7614M34OSYMJOYM362,3300DTYQT6XND5YFGY4K6E3U90NEQX,4,3
191,2,object_08,object_07,466.0,3,2,377.0,0.2222222222222222,1,object_10,5,2436,0,2,8,forest_5,2,memory-2step-stake-s,680,2729299,0.0-19.0-0.1-0.191,A15CL9A9FVSJDW,3SD15I2WE5AO7614M34OSYMJOYM362,3300DTYQT6XND5YFGY4K6E3U90NEQX,4,3
192,1,object_06,object_09,688.20000004768,2,1,299.60000002384,0.8888888888888888,2,object_04,5,2476,0,2,8,desert_6,2,memory-2step-stake-s,681,2737730,0.0-19.0-0.1-0.192,A15CL9A9FVSJDW,3SD15I2WE5AO7614M34OSYMJOYM362,3300DTYQT6XND5YFGY4K6E3U90NEQX,2,1
193,4,object_03,object_05,530.30000007153,7,1,322.10000002384,0.0,1,object_10,1,2476,0,0,7,restaurant_3,2,memory-2step-stake-s,682,2745356,0.0-19.0-0.1-0.193,A15CL9A9FVSJDW,3SD15I2WE5AO7614M34OSYMJOYM362,3300DTYQT6XND5YFGY4K6E3U90NEQX,7,8
194,2,object_08,object_07,517.19999992847,3,2,381.5,0.1111111111111111,1,object_10,5,2481,0,1,5,forest_4,2,memory-2step-stake-s,683,2753124,0.0-19.0-0.1-0.194,A15CL9A9FVSJDW,3SD15I2WE5AO7614M34OSYMJOYM362,3300DTYQT6XND5YFGY4K6E3U90NEQX,4,3
195,2,object_07,object_08,512.79999995232,4,2,260.29999995232,0.5555555555555556,2,object_04,5,2506,0,2,5,forest_5,2,memory-2step-stake-s,684,2761202,0.0-19.0-0.1-0.195,A15CL9A9FVSJDW,3SD15I2WE5AO7614M34OSYMJOYM362,3300DTYQT6XND5YFGY4K6E3U90NEQX,3,4
196,3,object_02,object_01,552.0,5,1,319.79999995232,0.0,1,object_10,1,2506,0,0,8,library_7,2,memory-2step-stake-s,685,2768795,0.0-19.0-0.1-0.196,A15CL9A9FVSJDW,3SD15I2WE5AO7614M34OSYMJOYM362,3300DTYQT6XND5YFGY4K6E3U90NEQX,5,6
197,4,object_05,object_03,728.79999995232,8,1,230.60000002384,0.7777777777777778,2,object_04,1,2513,0,1,7,restaurant_5,2,memory-2step-stake-s,686,2777079,0.0-19.0-0.1-0.197,A15CL9A9FVSJDW,3SD15I2WE5AO7614M34OSYMJOYM362,3300DTYQT6XND5YFGY4K6E3U90NEQX,8,7
198,4,object_05,object_03,473.69999992847,8,1,403.10000002384,0.1111111111111111,2,object_04,1,2514,0,1,1,restaurant_8,2,memory-2step-stake-s,687,2784879,0.0-19.0-0.1-0.198,A15CL9A9FVSJDW,3SD15I2WE5AO7614M34OSYMJOYM362,3300DTYQT6XND5YFGY4K6E3U90NEQX,8,7
199,3,object_01,object_02,779.79999995232,6,1,252.59999990463,0.1111111111111111,2,object_04,1,2515,0,4,1,library_2,2,memory-2step-stake-s,688,2792543,0.0-19.0-0.1-0.199,A15CL9A9FVSJDW,3SD15I2WE5AO7614M34OSYMJOYM362,3300DTYQT6XND5YFGY4K6E3U90NEQX,6,5
200,1,object_06,object_09,616.69999992847,2,1,293.0,0.2222222222222222,2,object_04,1,2517,0,2,2,desert_8,2,memory-2step-stake-s,689,2800367,0.0-19.0-0.1-0.200,A15CL9A9FVSJDW,3SD15I2WE5AO7614M34OSYMJOYM362,3300DTYQT6XND5YFGY4K6E3U90NEQX,2,1
201,4,object_03,object_05,812.40000009537,8,2,319.19999992847,0.2222222222222222,2,object_04,5,2527,0,0,2,restaurant_1,2,memory-2step-stake-s,690,2808183,0.0-19.0-0.1-0.201,A15CL9A9FVSJDW,3SD15I2WE5AO7614M34OSYMJOYM362,3300DTYQT6XND5YFGY4K6E3U90NEQX,7,8
202,4,object_05,object_03,480.40000009537,8,1,317.39999997616,0.1111111111111111,2,object_04,1,2528,0,3,1,restaurant_3,2,memory-2step-stake-s,691,2815883,0.0-19.0-0.1-0.202,A15CL9A9FVSJDW,3SD15I2WE5AO7614M34OSYMJOYM362,3300DTYQT6XND5YFGY4K6E3U90NEQX,8,7
203,2,object_08,object_07,506.79999995232,4,1,263.0,0.2222222222222222,2,object_04,5,2538,0,0,2,forest_7,2,memory-2step-stake-s,692,2823649,0.0-19.0-0.1-0.203,A15CL9A9FVSJDW,3SD15I2WE5AO7614M34OSYMJOYM362,3300DTYQT6XND5YFGY4K6E3U90NEQX,4,3
204,2,object_07,object_08,967.10000002384,4,2,383.30000007153,0.3333333333333333,2,object_04,5,2553,0,4,3,forest_4,2,memory-2step-stake-s,693,2831664,0.0-19.0-0.1-0.204,A15CL9A9FVSJDW,3SD15I2WE5AO7614M34OSYMJOYM362,3300DTYQT6XND5YFGY4K6E3U90NEQX,3,4
205,4,object_03,object_05,696.20000004768,8,2,279.10000002384,0.4444444444444444,2,object_04,1,2557,0,4,4,restaurant_8,2,memory-2step-stake-s,694,2839653,0.0-19.0-0.1-0.205,A15CL9A9FVSJDW,3SD15I2WE5AO7614M34OSYMJOYM362,3300DTYQT6XND5YFGY4K6E3U90NEQX,7,8
206,3,object_02,object_01,969.19999992847,6,2,552.89999997616,0.3333333333333333,2,object_04,1,2560,0,2,3,library_7,2,memory-2step-stake-s,695,2847820,0.0-19.0-0.1-0.206,A15CL9A9FVSJDW,3SD15I2WE5AO7614M34OSYMJOYM362,3300DTYQT6XND5YFGY4K6E3U90NEQX,5,6
207,4,object_05,object_03,552.30000007153,8,1,249.20000004768,0.5555555555555556,2,object_04,1,2565,0,4,5,restaurant_5,2,memory-2step-stake-s,696,2855891,0.0-19.0-0.1-0.207,A15CL9A9FVSJDW,3SD15I2WE5AO7614M34OSYMJOYM362,3300DTYQT6XND5YFGY4K6E3U90NEQX,8,7
208,1,object_06,object_09,1250.1000000238,1,2,322.0,0.3333333333333333,1,object_10,5,2580,0,3,5,desert_5,2,memory-2step-stake-s,697,2863819,0.0-19.0-0.1-0.208,A15CL9A9FVSJDW,3SD15I2WE5AO7614M34OSYMJOYM362,3300DTYQT6XND5YFGY4K6E3U90NEQX,2,1
209,2,object_07,object_08,820.80000007153,4,2,261.60000002384,0.7777777777777778,2,object_04,1,2587,0,7,7,forest_4,2,memory-2step-stake-s,698,2872129,0.0-19.0-0.1-0.209,A15CL9A9FVSJDW,3SD15I2WE5AO7614M34OSYMJOYM362,3300DTYQT6XND5YFGY4K6E3U90NEQX,3,4
210,1,object_06,object_09,773.89999997616,1,2,303.90000009537,0.5555555555555556,1,object_10,5,2612,0,5,7,desert_1,2,memory-2step-stake-s,699,2880257,0.0-19.0-0.1-0.210,A15CL9A9FVSJDW,3SD15I2WE5AO7614M34OSYMJOYM362,3300DTYQT6XND5YFGY4K6E3U90NEQX,2,1
211,1,object_09,object_06,450.60000002384,1,1,1043.2999999523,0.7777777777777778,1,object_10,5,2647,0,7,7,desert_6,2,memory-2step-stake-s,700,2889324,0.0-19.0-0.1-0.211,A15CL9A9FVSJDW,3SD15I2WE5AO7614M34OSYMJOYM362,3300DTYQT6XND5YFGY4K6E3U90NEQX,1,2
212,4,object_03,object_05,1075.5,7,1,249.0,0.7777777777777778,1,object_10,1,2654,0,7,8,restaurant_1,2,memory-2step-stake-s,701,2897623,0.0-19.0-0.1-0.212,A15CL9A9FVSJDW,3SD15I2WE5AO7614M34OSYMJOYM362,3300DTYQT6XND5YFGY4K6E3U90NEQX,7,8
213,4,object_05,object_03,422.0,7,2,258.79999995232,0.5555555555555556,1,object_10,1,2659,0,5,6,restaurant_1,2,memory-2step-stake-s,702,2905690,0.0-19.0-0.1-0.213,A15CL9A9FVSJDW,3SD15I2WE5AO7614M34OSYMJOYM362,3300DTYQT6XND5YFGY4K6E3U90NEQX,8,7
214,4,object_05,object_03,511.5,7,2,262.10000002384,0.5555555555555556,1,object_10,1,2664,0,5,7,restaurant_3,2,memory-2step-stake-s,703,2913765,0.0-19.0-0.1-0.214,A15CL9A9FVSJDW,3SD15I2WE5AO7614M34OSYMJOYM362,3300DTYQT6XND5YFGY4K6E3U90NEQX,8,7
215,4,object_05,object_03,527.10000002384,7,2,328.10000002384,0.3333333333333333,1,object_10,1,2667,0,3,7,restaurant_8,2,memory-2step-stake-s,704,2921693,0.0-19.0-0.1-0.215,A15CL9A9FVSJDW,3SD15I2WE5AO7614M34OSYMJOYM362,3300DTYQT6XND5YFGY4K6E3U90NEQX,8,7
216,1,object_06,object_09,455.70000004768,1,2,316.0,0.2222222222222222,1,object_10,5,2677,0,2,7,desert_8,2,memory-2step-stake-s,705,2929477,0.0-19.0-0.1-0.216,A15CL9A9FVSJDW,3SD15I2WE5AO7614M34OSYMJOYM362,3300DTYQT6XND5YFGY4K6E3U90NEQX,2,1
217,2,object_08,object_07,447.70000004768,4,1,266.29999995232,0.6666666666666666,2,object_04,5,2707,0,4,6,forest_7,2,memory-2step-stake-s,706,2937672,0.0-19.0-0.1-0.217,A15CL9A9FVSJDW,3SD15I2WE5AO7614M34OSYMJOYM362,3300DTYQT6XND5YFGY4K6E3U90NEQX,4,3
218,3,object_02,object_01,669.70000004768,6,2,248.60000002384,0.8888888888888888,2,object_04,1,2715,0,6,8,library_3,2,memory-2step-stake-s,707,2946085,0.0-19.0-0.1-0.218,A15CL9A9FVSJDW,3SD15I2WE5AO7614M34OSYMJOYM362,3300DTYQT6XND5YFGY4K6E3U90NEQX,5,6
219,2,object_08,object_07,412.5,4,1,266.5,0.8888888888888888,2,object_04,5,2755,0,7,8,forest_7,2,memory-2step-stake-s,708,2954517,0.0-19.0-0.1-0.219,A15CL9A9FVSJDW,3SD15I2WE5AO7614M34OSYMJOYM362,3300DTYQT6XND5YFGY4K6E3U90NEQX,4,3
220,2,object_07,object_08,473.19999992847,4,2,333.39999997616,0.6666666666666666,2,object_04,5,2785,0,9,6,forest_7,2,memory-2step-stake-s,709,2962786,0.0-19.0-0.1-0.220,A15CL9A9FVSJDW,3SD15I2WE5AO7614M34OSYMJOYM362,3300DTYQT6XND5YFGY4K6E3U90NEQX,3,4
221,2,object_07,object_08,443.0,4,2,395.09999990463,0.8888888888888888,2,object_04,5,2825,0,8,8,forest_5,2,memory-2step-stake-s,710,2971325,0.0-19.0-0.1-0.221,A15CL9A9FVSJDW,3SD15I2WE5AO7614M34OSYMJOYM362,3300DTYQT6XND5YFGY4K6E3U90NEQX,3,4
222,4,object_03,object_05,902.39999997616,7,1,294.90000009537,0.8888888888888888,1,object_10,1,2833,0,8,5,restaurant_5,2,memory-2step-stake-s,711,2979796,0.0-19.0-0.1-0.222,A15CL9A9FVSJDW,3SD15I2WE5AO7614M34OSYMJOYM362,3300DTYQT6XND5YFGY4K6E3U90NEQX,7,8
223,1,object_06,object_09,452.89999997616,1,2,306.0,0.4444444444444444,1,object_10,5,2853,0,4,7,desert_6,2,memory-2step-stake-s,712,2987841,0.0-19.0-0.1-0.223,A15CL9A9FVSJDW,3SD15I2WE5AO7614M34OSYMJOYM362,3300DTYQT6XND5YFGY4K6E3U90NEQX,2,1
224,3,object_02,object_01,980.09999990463,6,2,294.39999997616,0.6666666666666666,2,object_04,5,2883,0,1,6,library_7,2,memory-2step-stake-s,713,2996059,0.0-19.0-0.1-0.224,A15CL9A9FVSJDW,3SD15I2WE5AO7614M34OSYMJOYM362,3300DTYQT6XND5YFGY4K6E3U90NEQX,5,6
225,1,object_09,object_06,509.89999997616,1,1,338.80000007153,0.1111111111111111,1,object_10,5,2888,0,1,6,desert_5,2,memory-2step-stake-s,714,3003750,0.0-19.0-0.1-0.225,A15CL9A9FVSJDW,3SD15I2WE5AO7614M34OSYMJOYM362,3300DTYQT6XND5YFGY4K6E3U90NEQX,1,2
226,1,object_09,object_06,399.10000002384,2,2,234.30000007153,0.6666666666666666,2,object_04,5,2918,0,1,6,desert_6,2,memory-2step-stake-s,715,3011921,0.0-19.0-0.1-0.226,A15CL9A9FVSJDW,3SD15I2WE5AO7614M34OSYMJOYM362,3300DTYQT6XND5YFGY4K6E3U90NEQX,1,2
227,1,object_09,object_06,382.5,2,2,287.79999995232,0.4444444444444444,2,object_04,1,2922,0,4,4,desert_6,2,memory-2step-stake-s,716,3019925,0.0-19.0-0.1-0.227,A15CL9A9FVSJDW,3SD15I2WE5AO7614M34OSYMJOYM362,3300DTYQT6XND5YFGY4K6E3U90NEQX,1,2
228,1,object_09,object_06,415.29999995232,2,2,486.20000004768,0.2222222222222222,2,object_04,5,2932,0,8,2,desert_5,2,memory-2step-stake-s,717,3027900,0.0-19.0-0.1-0.228,A15CL9A9FVSJDW,3SD15I2WE5AO7614M34OSYMJOYM362,3300DTYQT6XND5YFGY4K6E3U90NEQX,1,2
229,1,object_06,object_09,1081.8999999762,1,2,-1.0,0.0,1,object_10,5,2932,0,6,2,desert_1,2,memory-2step-stake-s,718,3036494,0.0-19.0-0.1-0.229,A15CL9A9FVSJDW,3SD15I2WE5AO7614M34OSYMJOYM362,3300DTYQT6XND5YFGY4K6E3U90NEQX,2,1
230,3,object_02,object_01,744.39999997616,6,2,424.20000004768,0.1111111111111111,2,object_04,1,2933,0,5,1,library_2,2,memory-2step-stake-s,719,3044292,0.0-19.0-0.1-0.230,A15CL9A9FVSJDW,3SD15I2WE5AO7614M34OSYMJOYM362,3300DTYQT6XND5YFGY4K6E3U90NEQX,5,6
231,2,object_07,object_08,770.90000009537,4,2,252.10000002384,0.1111111111111111,2,object_04,1,2934,0,3,1,forest_8,2,memory-2step-stake-s,720,3051923,0.0-19.0-0.1-0.231,A15CL9A9FVSJDW,3SD15I2WE5AO7614M34OSYMJOYM362,3300DTYQT6XND5YFGY4K6E3U90NEQX,3,4
232,4,object_05,object_03,527.29999995232,7,2,244.20000004768,0.3333333333333333,1,object_10,1,2937,0,3,1,restaurant_1,2,memory-2step-stake-s,721,3059761,0.0-19.0-0.1-0.232,A15CL9A9FVSJDW,3SD15I2WE5AO7614M34OSYMJOYM362,3300DTYQT6XND5YFGY4K6E3U90NEQX,8,7
233,1,object_06,object_09,457.10000002384,1,2,254.09999990463,0.0,1,object_10,1,2937,0,0,2,desert_1,2,memory-2step-stake-s,722,3067275,0.0-19.0-0.1-0.233,A15CL9A9FVSJDW,3SD15I2WE5AO7614M34OSYMJOYM362,3300DTYQT6XND5YFGY4K6E3U90NEQX,2,1
234,4,object_05,object_03,422.60000002384,7,2,300.29999995232,0.1111111111111111,1,object_10,1,2938,0,1,5,restaurant_3,2,memory-2step-stake-s,723,3074936,0.0-19.0-0.1-0.234,A15CL9A9FVSJDW,3SD15I2WE5AO7614M34OSYMJOYM362,3300DTYQT6XND5YFGY4K6E3U90NEQX,8,7
235,3,object_01,object_02,573.5,6,1,209.60000002384,0.2222222222222222,2,object_04,1,2940,0,3,2,library_3,2,memory-2step-stake-s,724,3082613,0.0-19.0-0.1-0.235,A15CL9A9FVSJDW,3SD15I2WE5AO7614M34OSYMJOYM362,3300DTYQT6XND5YFGY4K6E3U90NEQX,6,5
236,1,object_06,object_09,433.0,2,1,219.79999995232,0.6666666666666666,2,object_04,5,2970,0,4,6,desert_1,2,memory-2step-stake-s,725,3090785,0.0-19.0-0.1-0.236,A15CL9A9FVSJDW,3SD15I2WE5AO7614M34OSYMJOYM362,3300DTYQT6XND5YFGY4K6E3U90NEQX,2,1
237,4,object_03,object_05,473.0,7,1,232.60000002384,0.5555555555555556,1,object_10,1,2975,0,5,7,restaurant_8,2,memory-2step-stake-s,726,3098840,0.0-19.0-0.1-0.237,A15CL9A9FVSJDW,3SD15I2WE5AO7614M34OSYMJOYM362,3300DTYQT6XND5YFGY4K6E3U90NEQX,7,8
238,4,object_03,object_05,467.20000004768,7,1,350.90000009537,0.3333333333333333,1,object_10,5,2990,0,3,8,restaurant_3,2,memory-2step-stake-s,727,3106800,0.0-19.0-0.1-0.238,A15CL9A9FVSJDW,3SD15I2WE5AO7614M34OSYMJOYM362,3300DTYQT6XND5YFGY4K6E3U90NEQX,7,8
239,3,object_02,object_01,1125.8999999762,6,2,441.70000004768,0.8888888888888888,2,object_04,1,2998,0,1,8,library_5,2,memory-2step-stake-s,728,3115405,0.0-19.0-0.1-0.239,A15CL9A9FVSJDW,3SD15I2WE5AO7614M34OSYMJOYM362,3300DTYQT6XND5YFGY4K6E3U90NEQX,5,6
240,2,object_07,object_08,618.79999995232,3,1,238.40000009537,0.2222222222222222,1,object_10,5,3008,0,2,7,forest_5,2,memory-2step-stake-s,729,3123150,0.0-19.0-0.1-0.240,A15CL9A9FVSJDW,3SD15I2WE5AO7614M34OSYMJOYM362,3300DTYQT6XND5YFGY4K6E3U90NEQX,3,4
241,3,object_01,object_02,458.60000002384,6,1,271.60000002384,1.0,2,object_04,1,3017,0,1,9,library_3,2,memory-2step-stake-s,730,3131726,0.0-19.0-0.1-0.241,A15CL9A9FVSJDW,3SD15I2WE5AO7614M34OSYMJOYM362,3300DTYQT6XND5YFGY4K6E3U90NEQX,6,5
242,3,object_01,object_02,459.0,6,1,242.79999995232,0.8888888888888888,2,object_04,1,3025,0,1,8,library_3,2,memory-2step-stake-s,731,3140132,0.0-19.0-0.1-0.242,A15CL9A9FVSJDW,3SD15I2WE5AO7614M34OSYMJOYM362,3300DTYQT6XND5YFGY4K6E3U90NEQX,6,5
243,4,object_05,object_03,1025.0,7,2,323.09999990463,0.2222222222222222,1,object_10,1,3027,0,2,6,restaurant_5,2,memory-2step-stake-s,732,3147972,0.0-19.0-0.1-0.243,A15CL9A9FVSJDW,3SD15I2WE5AO7614M34OSYMJOYM362,3300DTYQT6XND5YFGY4K6E3U90NEQX,8,7
244,1,object_09,object_06,510.5,2,2,327.89999997616,0.5555555555555556,2,object_04,5,3052,0,1,5,desert_5,2,memory-2step-stake-s,733,3156136,0.0-19.0-0.1-0.244,A15CL9A9FVSJDW,3SD15I2WE5AO7614M34OSYMJOYM362,3300DTYQT6XND5YFGY4K6E3U90NEQX,1,2
245,4,object_05,object_03,624.39999997616,7,2,433.89999997616,0.0,1,object_10,1,3052,0,0,6,restaurant_5,2,memory-2step-stake-s,734,3163831,0.0-19.0-0.1-0.245,A15CL9A9FVSJDW,3SD15I2WE5AO7614M34OSYMJOYM362,3300DTYQT6XND5YFGY4K6E3U90NEQX,8,7
246,2,object_08,object_07,485.69999992847,3,2,245.69999992847,0.2222222222222222,1,object_10,5,3062,0,2,8,forest_8,2,memory-2step-stake-s,735,3171595,0.0-19.0-0.1-0.246,A15CL9A9FVSJDW,3SD15I2WE5AO7614M34OSYMJOYM362,3300DTYQT6XND5YFGY4K6E3U90NEQX,4,3
247,3,object_01,object_02,534.80000007153,6,1,271.89999997616,1.0,2,object_04,5,3107,0,3,9,library_3,2,memory-2step-stake-s,736,3180131,0.0-19.0-0.1-0.247,A15CL9A9FVSJDW,3SD15I2WE5AO7614M34OSYMJOYM362,3300DTYQT6XND5YFGY4K6E3U90NEQX,6,5
248,1,object_06,object_09,391.90000009537,2,1,252.09999990463,0.8888888888888888,2,object_04,1,3115,0,3,8,desert_1,2,memory-2step-stake-s,737,3188522,0.0-19.0-0.1-0.248,A15CL9A9FVSJDW,3SD15I2WE5AO7614M34OSYMJOYM362,3300DTYQT6XND5YFGY4K6E3U90NEQX,2,1
249,2,object_08,object_07,698.20000004768,3,2,235.19999992847,0.1111111111111111,1,object_10,5,3120,0,1,6,forest_7,2,memory-2step-stake-s,738,3196148,0.0-19.0-0.1-0.249,A15CL9A9FVSJDW,3SD15I2WE5AO7614M34OSYMJOYM362,3300DTYQT6XND5YFGY4K6E3U90NEQX,4,3
250,4,object_03,object_05,455.19999992847,8,2,201.79999995232,1.0,2,object_04,1,3129,0,1,9,restaurant_1,2,memory-2step-stake-s,739,3204621,0.0-19.0-0.1-0.250,A15CL9A9FVSJDW,3SD15I2WE5AO7614M34OSYMJOYM362,3300DTYQT6XND5YFGY4K6E3U90NEQX,7,8
251,3,object_02,object_01,532.0,6,2,249.20000004768,0.8888888888888888,2,object_04,1,3137,0,0,8,library_3,2,memory-2step-stake-s,740,3213052,0.0-19.0-0.1-0.251,A15CL9A9FVSJDW,3SD15I2WE5AO7614M34OSYMJOYM362,3300DTYQT6XND5YFGY4K6E3U90NEQX,5,6
252,4,object_03,object_05,432.89999997616,8,2,294.80000007153,0.8888888888888888,2,object_04,5,3177,0,1,8,restaurant_1,2,memory-2step-stake-s,741,3221518,0.0-19.0-0.1-0.252,A15CL9A9FVSJDW,3SD15I2WE5AO7614M34OSYMJOYM362,3300DTYQT6XND5YFGY4K6E3U90NEQX,7,8
253,1,object_06,object_09,502.0,2,1,301.80000007153,0.6666666666666666,2,object_04,5,3207,0,3,6,desert_5,2,memory-2step-stake-s,742,3229736,0.0-19.0-0.1-0.253,A15CL9A9FVSJDW,3SD15I2WE5AO7614M34OSYMJOYM362,3300DTYQT6XND5YFGY4K6E3U90NEQX,2,1
254,3,object_01,object_02,572.80000007153,6,1,258.79999995232,0.7777777777777778,2,object_04,1,3214,0,3,7,library_3,2,memory-2step-stake-s,743,3238025,0.0-19.0-0.1-0.254,A15CL9A9FVSJDW,3SD15I2WE5AO7614M34OSYMJOYM362,3300DTYQT6XND5YFGY4K6E3U90NEQX,6,5
255,3,object_01,object_02,493.69999992847,6,1,322.79999995232,0.7777777777777778,2,object_04,1,3221,0,0,7,library_2,2,memory-2step-stake-s,744,3246381,0.0-19.0-0.1-0.255,A15CL9A9FVSJDW,3SD15I2WE5AO7614M34OSYMJOYM362,3300DTYQT6XND5YFGY4K6E3U90NEQX,6,5
