,state1,stim_left,stim_right,rt_1,choice1,response1,rt_2,points,state2,stim_state2,stake,score,practice,rews1,rews2,background,high_arm,trial_type,trial_index,time_elapsed,internal_node_id,subid,hitid,assignmentid,stim_left_num,stim_right_num
0,3,object_05,object_10,1322.8999999701,5,2,-1.0,0.0,1,object_07,5,0,0,1,4,library_7,2,memory-2step-stake-s,488,1265718,0.0-19.0-0.0-0.0,A3EA4SHCLJ1UZQ,39O6Z4JLY5DL2UNJ70JKB6RMCJRXVU,3Q8GYXHFETIJNLV30FAMIF80RIRC58,6,5
1,2,object_06,object_02,1096.4399999939,4,1,1428.9299999946,0.3333333333333333,2,object_03,5,15,0,2,3,forest_8,2,memory-2step-stake-s,489,1274691,0.0-19.0-0.0-0.1,A3EA4SHCLJ1UZQ,39O6Z4JLY5DL2UNJ70JKB6RMCJRXVU,3Q8GYXHFETIJNLV30FAMIF80RIRC58,4,3
2,2,object_06,object_02,1103.369999968,4,1,-1.0,0.0,2,object_03,5,15,0,1,3,forest_8,2,memory-2step-stake-s,490,1283212,0.0-19.0-0.0-0.2,A3EA4SHCLJ1UZQ,39O6Z4JLY5DL2UNJ70JKB6RMCJRXVU,3Q8GYXHFETIJNLV30FAMIF80RIRC58,4,3
3,2,object_02,object_06,986.0500000068,4,2,652.49499998754,0.1111111111111111,2,object_03,5,20,0,1,1,forest_4,2,memory-2step-stake-s,491,1291191,0.0-19.0-0.0-0.3,A3EA4SHCLJ1UZQ,39O6Z4JLY5DL2UNJ70JKB6RMCJRXVU,3Q8GYXHFETIJNLV30FAMIF80RIRC58,3,4
4,1,object_09,object_08,1046.4250000077,2,2,837.81500003533,0.0,2,object_03,5,20,0,0,0,desert_6,2,memory-2step-stake-s,492,1299258,0.0-19.0-0.0-0.4,A3EA4SHCLJ1UZQ,39O6Z4JLY5DL2UNJ70JKB6RMCJRXVU,3Q8GYXHFETIJNLV30FAMIF80RIRC58,1,2
5,3,object_05,object_10,709.19500000309,5,2,1109.8150000325,0.2222222222222222,1,object_07,1,22,0,2,2,library_4,2,memory-2step-stake-s,493,1307798,0.0-19.0-0.0-0.5,A3EA4SHCLJ1UZQ,39O6Z4JLY5DL2UNJ70JKB6RMCJRXVU,3Q8GYXHFETIJNLV30FAMIF80RIRC58,6,5
6,2,object_06,object_02,1029.6499999822,4,1,871.6199999908,0.4444444444444444,2,object_03,5,42,0,2,4,forest_7,2,memory-2step-stake-s,494,1316302,0.0-19.0-0.0-0.6,A3EA4SHCLJ1UZQ,39O6Z4JLY5DL2UNJ70JKB6RMCJRXVU,3Q8GYXHFETIJNLV30FAMIF80RIRC58,4,3
7,4,object_01,object_04,964.95500003221,8,2,1502.7850000188,0.7777777777777778,2,object_03,1,49,0,1,7,restaurant_8,2,memory-2step-stake-s,495,1325752,0.0-19.0-0.0-0.7,A3EA4SHCLJ1UZQ,39O6Z4JLY5DL2UNJ70JKB6RMCJRXVU,3Q8GYXHFETIJNLV30FAMIF80RIRC58,7,8
8,3,object_10,object_05,752.24000000162,5,1,752.03000003239,0.4444444444444444,1,object_07,1,53,0,4,9,library_4,2,memory-2step-stake-s,496,1334150,0.0-19.0-0.0-0.8,A3EA4SHCLJ1UZQ,39O6Z4JLY5DL2UNJ70JKB6RMCJRXVU,3Q8GYXHFETIJNLV30FAMIF80RIRC58,5,6
9,2,object_02,object_06,657.81000000425,4,2,705.04999998957,0.8888888888888888,2,object_03,5,93,0,2,8,forest_4,2,memory-2step-stake-s,497,1342913,0.0-19.0-0.0-0.9,A3EA4SHCLJ1UZQ,39O6Z4JLY5DL2UNJ70JKB6RMCJRXVU,3Q8GYXHFETIJNLV30FAMIF80RIRC58,3,4
10,3,object_10,object_05,638.13999999547,5,1,642.91499997489,0.2222222222222222,1,object_07,5,103,0,2,6,library_6,2,memory-2step-stake-s,498,1350993,0.0-19.0-0.0-0.10,A3EA4SHCLJ1UZQ,39O6Z4JLY5DL2UNJ70JKB6RMCJRXVU,3Q8GYXHFETIJNLV30FAMIF80RIRC58,5,6
11,3,object_05,object_10,781.27500001574,5,2,621.51000002632,0.0,1,object_07,1,103,0,0,2,library_6,2,memory-2step-stake-s,499,1358845,0.0-19.0-0.0-0.11,A3EA4SHCLJ1UZQ,39O6Z4JLY5DL2UNJ70JKB6RMCJRXVU,3Q8GYXHFETIJNLV30FAMIF80RIRC58,6,5
12,3,object_10,object_05,1003.9949999773,6,2,516.07000001241,0.4444444444444444,2,object_03,5,123,0,0,4,library_4,2,memory-2step-stake-s,500,1367003,0.0-19.0-0.0-0.12,A3EA4SHCLJ1UZQ,39O6Z4JLY5DL2UNJ70JKB6RMCJRXVU,3Q8GYXHFETIJNLV30FAMIF80RIRC58,5,6
13,3,object_10,object_05,774.97500000754,6,2,633.91999999294,0.2222222222222222,2,object_03,1,125,0,3,2,library_7,2,memory-2step-stake-s,501,1375067,0.0-19.0-0.0-0.13,A3EA4SHCLJ1UZQ,39O6Z4JLY5DL2UNJ70JKB6RMCJRXVU,3Q8GYXHFETIJNLV30FAMIF80RIRC58,5,6
14,1,object_09,object_08,907.08999999333,1,1,702.76000001468,0.5555555555555556,1,object_07,5,150,0,5,3,desert_4,2,memory-2step-stake-s,502,1383510,0.0-19.0-0.0-0.14,A3EA4SHCLJ1UZQ,39O6Z4JLY5DL2UNJ70JKB6RMCJRXVU,3Q8GYXHFETIJNLV30FAMIF80RIRC58,1,2
15,4,object_01,object_04,807.21999995876,8,2,590.68000002299,0.6666666666666666,2,object_03,1,156,0,0,6,restaurant_3,2,memory-2step-stake-s,503,1391947,0.0-19.0-0.0-0.15,A3EA4SHCLJ1UZQ,39O6Z4JLY5DL2UNJ70JKB6RMCJRXVU,3Q8GYXHFETIJNLV30FAMIF80RIRC58,7,8
16,3,object_10,object_05,682.77499999385,5,1,421.19999998249,0.3333333333333333,1,object_07,1,159,0,3,7,library_6,2,memory-2step-stake-s,504,1399903,0.0-19.0-0.0-0.16,A3EA4SHCLJ1UZQ,39O6Z4JLY5DL2UNJ70JKB6RMCJRXVU,3Q8GYXHFETIJNLV30FAMIF80RIRC58,5,6
17,2,object_02,object_06,848.04499999154,4,2,571.20500004385,0.6666666666666666,2,object_03,1,165,0,2,6,forest_2,2,memory-2step-stake-s,505,1408317,0.0-19.0-0.0-0.17,A3EA4SHCLJ1UZQ,39O6Z4JLY5DL2UNJ70JKB6RMCJRXVU,3Q8GYXHFETIJNLV30FAMIF80RIRC58,3,4
18,4,object_01,object_04,988.34999999963,7,1,1291.0649999976,0.1111111111111111,1,object_07,1,166,0,1,6,restaurant_4,2,memory-2step-stake-s,506,1416936,0.0-19.0-0.0-0.18,A3EA4SHCLJ1UZQ,39O6Z4JLY5DL2UNJ70JKB6RMCJRXVU,3Q8GYXHFETIJNLV30FAMIF80RIRC58,7,8
19,1,object_08,object_09,821.33999996586,1,2,506.22499996098,0.0,1,object_07,5,166,0,0,3,desert_7,2,memory-2step-stake-s,507,1424672,0.0-19.0-0.0-0.19,A3EA4SHCLJ1UZQ,39O6Z4JLY5DL2UNJ70JKB6RMCJRXVU,3Q8GYXHFETIJNLV30FAMIF80RIRC58,2,1
20,3,object_05,object_10,656.07500000624,6,1,543.70500001824,0.6666666666666666,2,object_03,1,172,0,2,6,library_7,2,memory-2step-stake-s,508,1433067,0.0-19.0-0.0-0.20,A3EA4SHCLJ1UZQ,39O6Z4JLY5DL2UNJ70JKB6RMCJRXVU,3Q8GYXHFETIJNLV30FAMIF80RIRC58,6,5
21,2,object_06,object_02,716.04500000831,4,1,413.59499999089,0.7777777777777778,2,object_03,5,207,0,2,7,forest_2,2,memory-2step-stake-s,509,1441432,0.0-19.0-0.0-0.21,A3EA4SHCLJ1UZQ,39O6Z4JLY5DL2UNJ70JKB6RMCJRXVU,3Q8GYXHFETIJNLV30FAMIF80RIRC58,4,3
22,2,object_02,object_06,593.15500000957,4,2,473.83999999147,0.6666666666666666,2,object_03,1,213,0,1,6,forest_7,2,memory-2step-stake-s,510,1449756,0.0-19.0-0.0-0.22,A3EA4SHCLJ1UZQ,39O6Z4JLY5DL2UNJ70JKB6RMCJRXVU,3Q8GYXHFETIJNLV30FAMIF80RIRC58,3,4
23,3,object_05,object_10,1267.7549999789,6,1,612.98999999417,0.6666666666666666,2,object_03,5,243,0,3,6,library_7,2,memory-2step-stake-s,511,1458212,0.0-19.0-0.0-0.23,A3EA4SHCLJ1UZQ,39O6Z4JLY5DL2UNJ70JKB6RMCJRXVU,3Q8GYXHFETIJNLV30FAMIF80RIRC58,6,5
24,4,object_04,object_01,-1.0,-1,-1,-1.0,0.0,-,0,1,243,0,3,8,restaurant_4,2,memory-2step-stake-s,512,1464731,0.0-19.0-0.0-0.24,A3EA4SHCLJ1UZQ,39O6Z4JLY5DL2UNJ70JKB6RMCJRXVU,3Q8GYXHFETIJNLV30FAMIF80RIRC58,8,7
25,4,object_04,object_01,811.03500002064,8,1,492.16000002343,0.7777777777777778,2,object_03,5,278,0,5,7,restaurant_8,2,memory-2step-stake-s,513,1473175,0.0-19.0-0.0-0.25,A3EA4SHCLJ1UZQ,39O6Z4JLY5DL2UNJ70JKB6RMCJRXVU,3Q8GYXHFETIJNLV30FAMIF80RIRC58,8,7
26,1,object_09,object_08,-1.0,-1,-1,-1.0,0.0,-,0,1,278,0,5,9,desert_7,2,memory-2step-stake-s,514,1479693,0.0-19.0-0.0-0.26,A3EA4SHCLJ1UZQ,39O6Z4JLY5DL2UNJ70JKB6RMCJRXVU,3Q8GYXHFETIJNLV30FAMIF80RIRC58,1,2
27,2,object_02,object_06,773.14500004286,4,2,457.93500001309,0.8888888888888888,2,object_03,5,318,0,4,8,forest_8,2,memory-2step-stake-s,515,1488197,0.0-19.0-0.0-0.27,A3EA4SHCLJ1UZQ,39O6Z4JLY5DL2UNJ70JKB6RMCJRXVU,3Q8GYXHFETIJNLV30FAMIF80RIRC58,3,4
28,1,object_09,object_08,1017.4150000094,1,1,595.82000004593,0.3333333333333333,1,object_07,5,333,0,3,5,desert_1,2,memory-2step-stake-s,516,1496323,0.0-19.0-0.0-0.28,A3EA4SHCLJ1UZQ,39O6Z4JLY5DL2UNJ70JKB6RMCJRXVU,3Q8GYXHFETIJNLV30FAMIF80RIRC58,1,2
29,3,object_05,object_10,720.23000003537,5,2,592.31000003638,0.1111111111111111,1,object_07,1,334,0,1,5,library_7,2,memory-2step-stake-s,517,1504244,0.0-19.0-0.0-0.29,A3EA4SHCLJ1UZQ,39O6Z4JLY5DL2UNJ70JKB6RMCJRXVU,3Q8GYXHFETIJNLV30FAMIF80RIRC58,6,5
30,2,object_06,object_02,753.48499999382,4,1,523.675000004,0.6666666666666666,2,object_03,5,364,0,1,6,forest_7,2,memory-2step-stake-s,518,1512603,0.0-19.0-0.0-0.30,A3EA4SHCLJ1UZQ,39O6Z4JLY5DL2UNJ70JKB6RMCJRXVU,3Q8GYXHFETIJNLV30FAMIF80RIRC58,4,3
31,2,object_02,object_06,637.36999995308,4,2,377.04499997199,0.4444444444444444,2,object_03,5,384,0,3,4,forest_8,2,memory-2step-stake-s,519,1520618,0.0-19.0-0.0-0.31,A3EA4SHCLJ1UZQ,39O6Z4JLY5DL2UNJ70JKB6RMCJRXVU,3Q8GYXHFETIJNLV30FAMIF80RIRC58,3,4
32,3,object_10,object_05,620.46499998542,5,1,397.67999999458,0.2222222222222222,1,object_07,1,386,0,2,7,library_3,2,memory-2step-stake-s,520,1528449,0.0-19.0-0.0-0.32,A3EA4SHCLJ1UZQ,39O6Z4JLY5DL2UNJ70JKB6RMCJRXVU,3Q8GYXHFETIJNLV30FAMIF80RIRC58,5,6
33,4,object_04,object_01,703.87999998638,8,1,829.16500000283,0.4444444444444444,2,object_03,1,390,0,1,4,restaurant_1,2,memory-2step-stake-s,521,1536909,0.0-19.0-0.0-0.33,A3EA4SHCLJ1UZQ,39O6Z4JLY5DL2UNJ70JKB6RMCJRXVU,3Q8GYXHFETIJNLV30FAMIF80RIRC58,8,7
34,1,object_08,object_09,618.87500004377,2,1,463.38499995181,0.3333333333333333,2,object_03,5,405,0,0,3,desert_7,2,memory-2step-stake-s,522,1544905,0.0-19.0-0.0-0.34,A3EA4SHCLJ1UZQ,39O6Z4JLY5DL2UNJ70JKB6RMCJRXVU,3Q8GYXHFETIJNLV30FAMIF80RIRC58,2,1
35,4,object_04,object_01,716.65000001667,7,2,896.34999999544,0.0,1,object_07,1,405,0,0,4,restaurant_4,2,memory-2step-stake-s,523,1553027,0.0-19.0-0.0-0.35,A3EA4SHCLJ1UZQ,39O6Z4JLY5DL2UNJ70JKB6RMCJRXVU,3Q8GYXHFETIJNLV30FAMIF80RIRC58,8,7
36,2,object_02,object_06,653.63000001526,4,2,684.72499999916,0.5555555555555556,2,object_03,5,430,0,3,5,forest_8,2,memory-2step-stake-s,524,1561448,0.0-19.0-0.0-0.36,A3EA4SHCLJ1UZQ,39O6Z4JLY5DL2UNJ70JKB6RMCJRXVU,3Q8GYXHFETIJNLV30FAMIF80RIRC58,3,4
37,1,object_09,object_08,800.67999998573,2,2,572.58999999613,0.7777777777777778,2,object_03,5,465,0,1,7,desert_4,2,memory-2step-stake-s,525,1569967,0.0-19.0-0.0-0.37,A3EA4SHCLJ1UZQ,39O6Z4JLY5DL2UNJ70JKB6RMCJRXVU,3Q8GYXHFETIJNLV30FAMIF80RIRC58,1,2
38,1,object_09,object_08,608.97500003921,2,2,603.92500000307,1.0,2,object_03,5,510,0,0,9,desert_4,2,memory-2step-stake-s,526,1578731,0.0-19.0-0.0-0.38,A3EA4SHCLJ1UZQ,39O6Z4JLY5DL2UNJ70JKB6RMCJRXVU,3Q8GYXHFETIJNLV30FAMIF80RIRC58,1,2
39,4,object_04,object_01,833.25500000501,7,2,602.5550000486,0.1111111111111111,1,object_07,1,511,0,1,9,restaurant_8,2,memory-2step-stake-s,527,1586673,0.0-19.0-0.0-0.39,A3EA4SHCLJ1UZQ,39O6Z4JLY5DL2UNJ70JKB6RMCJRXVU,3Q8GYXHFETIJNLV30FAMIF80RIRC58,8,7
40,1,object_09,object_08,968.43499998795,1,1,619.76500001037,0.0,1,object_07,5,511,0,0,7,desert_1,2,memory-2step-stake-s,528,1594516,0.0-19.0-0.0-0.40,A3EA4SHCLJ1UZQ,39O6Z4JLY5DL2UNJ70JKB6RMCJRXVU,3Q8GYXHFETIJNLV30FAMIF80RIRC58,1,2
41,2,object_02,object_06,518.45500001218,4,2,635.01999998698,0.6666666666666666,2,object_03,1,517,0,1,6,forest_2,2,memory-2step-stake-s,529,1602991,0.0-19.0-0.0-0.41,A3EA4SHCLJ1UZQ,39O6Z4JLY5DL2UNJ70JKB6RMCJRXVU,3Q8GYXHFETIJNLV30FAMIF80RIRC58,3,4
42,2,object_06,object_02,836.03999996558,4,1,942.85000005038,0.6666666666666666,2,object_03,5,547,0,0,6,forest_4,2,memory-2step-stake-s,530,1611772,0.0-19.0-0.0-0.42,A3EA4SHCLJ1UZQ,39O6Z4JLY5DL2UNJ70JKB6RMCJRXVU,3Q8GYXHFETIJNLV30FAMIF80RIRC58,4,3
43,1,object_09,object_08,977.76500001783,1,1,474.64500000933,0.2222222222222222,1,object_07,5,557,0,2,4,desert_1,2,memory-2step-stake-s,531,1619684,0.0-19.0-0.0-0.43,A3EA4SHCLJ1UZQ,39O6Z4JLY5DL2UNJ70JKB6RMCJRXVU,3Q8GYXHFETIJNLV30FAMIF80RIRC58,1,2
44,2,object_02,object_06,892.10999995703,4,2,633.05499998387,0.6666666666666666,2,object_03,5,587,0,3,6,forest_2,2,memory-2step-stake-s,532,1628161,0.0-19.0-0.0-0.44,A3EA4SHCLJ1UZQ,39O6Z4JLY5DL2UNJ70JKB6RMCJRXVU,3Q8GYXHFETIJNLV30FAMIF80RIRC58,3,4
45,1,object_09,object_08,1069.8950000224,2,2,682.54000000888,0.2222222222222222,2,object_03,5,597,0,7,2,desert_4,2,memory-2step-stake-s,533,1636273,0.0-19.0-0.0-0.45,A3EA4SHCLJ1UZQ,39O6Z4JLY5DL2UNJ70JKB6RMCJRXVU,3Q8GYXHFETIJNLV30FAMIF80RIRC58,1,2
46,2,object_02,object_06,615.17000000458,4,2,479.00499997195,0.0,2,object_03,5,597,0,2,0,forest_4,2,memory-2step-stake-s,534,1643987,0.0-19.0-0.0-0.46,A3EA4SHCLJ1UZQ,39O6Z4JLY5DL2UNJ70JKB6RMCJRXVU,3Q8GYXHFETIJNLV30FAMIF80RIRC58,3,4
47,1,object_09,object_08,892.1299999929,2,2,649.00500001386,0.1111111111111111,2,object_03,5,602,0,1,1,desert_4,2,memory-2step-stake-s,535,1651966,0.0-19.0-0.0-0.47,A3EA4SHCLJ1UZQ,39O6Z4JLY5DL2UNJ70JKB6RMCJRXVU,3Q8GYXHFETIJNLV30FAMIF80RIRC58,1,2
48,2,object_06,object_02,994.37000002945,4,1,479.11500005284,0.2222222222222222,2,object_03,5,612,0,2,2,forest_7,2,memory-2step-stake-s,536,1659875,0.0-19.0-0.0-0.48,A3EA4SHCLJ1UZQ,39O6Z4JLY5DL2UNJ70JKB6RMCJRXVU,3Q8GYXHFETIJNLV30FAMIF80RIRC58,4,3
49,2,object_02,object_06,839.38499999931,4,2,512.77999999002,0.1111111111111111,2,object_03,5,617,0,3,1,forest_8,2,memory-2step-stake-s,537,1667721,0.0-19.0-0.0-0.49,A3EA4SHCLJ1UZQ,39O6Z4JLY5DL2UNJ70JKB6RMCJRXVU,3Q8GYXHFETIJNLV30FAMIF80RIRC58,3,4
50,4,object_01,object_04,988.43499994837,7,1,520.90499998303,0.6666666666666666,1,object_07,5,647,0,6,1,restaurant_4,2,memory-2step-stake-s,538,1676087,0.0-19.0-0.0-0.50,A3EA4SHCLJ1UZQ,39O6Z4JLY5DL2UNJ70JKB6RMCJRXVU,3Q8GYXHFETIJNLV30FAMIF80RIRC58,7,8
51,4,object_04,object_01,1055.4950000369,7,2,834.19000002323,0.7777777777777778,1,object_07,1,654,0,7,1,restaurant_3,2,memory-2step-stake-s,539,1684876,0.0-19.0-0.0-0.51,A3EA4SHCLJ1UZQ,39O6Z4JLY5DL2UNJ70JKB6RMCJRXVU,3Q8GYXHFETIJNLV30FAMIF80RIRC58,8,7
52,3,object_05,object_10,1027.5800000527,5,2,534.69500003848,1.0,1,object_07,5,699,0,9,1,library_3,2,memory-2step-stake-s,540,1693558,0.0-19.0-0.0-0.52,A3EA4SHCLJ1UZQ,39O6Z4JLY5DL2UNJ70JKB6RMCJRXVU,3Q8GYXHFETIJNLV30FAMIF80RIRC58,6,5
53,4,object_01,object_04,1152.1599999978,7,1,593.10999995796,0.8888888888888888,1,object_07,5,739,0,8,1,restaurant_8,2,memory-2step-stake-s,541,1702205,0.0-19.0-0.0-0.53,A3EA4SHCLJ1UZQ,39O6Z4JLY5DL2UNJ70JKB6RMCJRXVU,3Q8GYXHFETIJNLV30FAMIF80RIRC58,7,8
54,1,object_09,object_08,490.63999997452,1,1,454.32999997865,0.8888888888888888,1,object_07,5,779,0,8,1,desert_7,2,memory-2step-stake-s,542,1710708,0.0-19.0-0.0-0.54,A3EA4SHCLJ1UZQ,39O6Z4JLY5DL2UNJ70JKB6RMCJRXVU,3Q8GYXHFETIJNLV30FAMIF80RIRC58,1,2
55,3,object_05,object_10,722.76999999303,5,2,466.72500000568,0.6666666666666666,1,object_07,1,785,0,6,1,library_3,2,memory-2step-stake-s,543,1719028,0.0-19.0-0.0-0.55,A3EA4SHCLJ1UZQ,39O6Z4JLY5DL2UNJ70JKB6RMCJRXVU,3Q8GYXHFETIJNLV30FAMIF80RIRC58,6,5
56,3,object_10,object_05,708.63000000827,5,1,597.89500001352,0.5555555555555556,1,object_07,1,790,0,5,0,library_7,2,memory-2step-stake-s,544,1727366,0.0-19.0-0.0-0.56,A3EA4SHCLJ1UZQ,39O6Z4JLY5DL2UNJ70JKB6RMCJRXVU,3Q8GYXHFETIJNLV30FAMIF80RIRC58,5,6
57,2,object_06,object_02,1092.0400000177,3,2,438.82499996107,0.5555555555555556,1,object_07,1,795,0,5,1,forest_4,2,memory-2step-stake-s,545,1735553,0.0-19.0-0.0-0.57,A3EA4SHCLJ1UZQ,39O6Z4JLY5DL2UNJ70JKB6RMCJRXVU,3Q8GYXHFETIJNLV30FAMIF80RIRC58,4,3
58,3,object_10,object_05,974.58000003826,6,2,411.37499996694,0.6666666666666666,2,object_03,1,801,0,5,6,library_7,2,memory-2step-stake-s,546,1743809,0.0-19.0-0.0-0.58,A3EA4SHCLJ1UZQ,39O6Z4JLY5DL2UNJ70JKB6RMCJRXVU,3Q8GYXHFETIJNLV30FAMIF80RIRC58,5,6
59,3,object_10,object_05,699.1150000249,5,1,452.84499996342,0.6666666666666666,1,object_07,1,807,0,6,1,library_3,2,memory-2step-stake-s,547,1752090,0.0-19.0-0.0-0.59,A3EA4SHCLJ1UZQ,39O6Z4JLY5DL2UNJ70JKB6RMCJRXVU,3Q8GYXHFETIJNLV30FAMIF80RIRC58,5,6
60,2,object_02,object_06,551.53499997687,4,2,759.08000004711,0.0,2,object_03,5,807,0,6,0,forest_7,2,memory-2step-stake-s,548,1760081,0.0-19.0-0.0-0.60,A3EA4SHCLJ1UZQ,39O6Z4JLY5DL2UNJ70JKB6RMCJRXVU,3Q8GYXHFETIJNLV30FAMIF80RIRC58,3,4
61,4,object_04,object_01,927.52999998629,7,2,434.3050000025,0.6666666666666666,1,object_07,1,813,0,6,1,restaurant_3,2,memory-2step-stake-s,549,1768364,0.0-19.0-0.0-0.61,A3EA4SHCLJ1UZQ,39O6Z4JLY5DL2UNJ70JKB6RMCJRXVU,3Q8GYXHFETIJNLV30FAMIF80RIRC58,8,7
62,3,object_05,object_10,621.45999999484,5,2,323.45999998506,0.7777777777777778,1,object_07,1,820,0,7,2,library_4,2,memory-2step-stake-s,550,1776641,0.0-19.0-0.0-0.62,A3EA4SHCLJ1UZQ,39O6Z4JLY5DL2UNJ70JKB6RMCJRXVU,3Q8GYXHFETIJNLV30FAMIF80RIRC58,6,5
63,3,object_05,object_10,724.24000001047,5,2,468.63000001758,0.7777777777777778,1,object_07,5,855,0,7,1,library_4,2,memory-2step-stake-s,551,1785058,0.0-19.0-0.0-0.63,A3EA4SHCLJ1UZQ,39O6Z4JLY5DL2UNJ70JKB6RMCJRXVU,3Q8GYXHFETIJNLV30FAMIF80RIRC58,6,5
64,2,object_02,object_06,836.86499996111,4,2,437.00999999419,0.0,2,object_03,5,855,0,6,0,forest_7,2,memory-2step-stake-s,552,1792727,0.0-19.0-0.0-0.64,A3EA4SHCLJ1UZQ,39O6Z4JLY5DL2UNJ70JKB6RMCJRXVU,3Q8GYXHFETIJNLV30FAMIF80RIRC58,3,4
65,3,object_10,object_05,960.58000001358,5,1,761.93999999668,0.5555555555555556,1,object_07,1,860,0,5,3,library_4,2,memory-2step-stake-s,553,1801232,0.0-19.0-0.0-0.65,A3EA4SHCLJ1UZQ,39O6Z4JLY5DL2UNJ70JKB6RMCJRXVU,3Q8GYXHFETIJNLV30FAMIF80RIRC58,5,6
66,3,object_05,object_10,1375.3750000033,5,2,471.04999999283,0.4444444444444444,1,object_07,1,864,0,4,2,library_4,2,memory-2step-stake-s,554,1809348,0.0-19.0-0.0-0.66,A3EA4SHCLJ1UZQ,39O6Z4JLY5DL2UNJ70JKB6RMCJRXVU,3Q8GYXHFETIJNLV30FAMIF80RIRC58,6,5
67,1,object_09,object_08,668.31999999704,1,1,431.17499997607,0.2222222222222222,1,object_07,1,866,0,2,2,desert_1,2,memory-2step-stake-s,555,1817217,0.0-19.0-0.0-0.67,A3EA4SHCLJ1UZQ,39O6Z4JLY5DL2UNJ70JKB6RMCJRXVU,3Q8GYXHFETIJNLV30FAMIF80RIRC58,1,2
68,4,object_01,object_04,725.09999998147,8,2,503.36999999126,0.3333333333333333,2,object_03,5,881,0,2,3,restaurant_1,2,memory-2step-stake-s,556,1825258,0.0-19.0-0.0-0.68,A3EA4SHCLJ1UZQ,39O6Z4JLY5DL2UNJ70JKB6RMCJRXVU,3Q8GYXHFETIJNLV30FAMIF80RIRC58,7,8
69,4,object_04,object_01,1029.0099999984,8,1,482.11500002071,0.1111111111111111,2,object_03,1,882,0,3,1,restaurant_4,2,memory-2step-stake-s,557,1833068,0.0-19.0-0.0-0.69,A3EA4SHCLJ1UZQ,39O6Z4JLY5DL2UNJ70JKB6RMCJRXVU,3Q8GYXHFETIJNLV30FAMIF80RIRC58,8,7
70,2,object_02,object_06,1036.6999999969,4,2,492.53500002669,0.1111111111111111,2,object_03,5,887,0,2,1,forest_4,2,memory-2step-stake-s,558,1840890,0.0-19.0-0.0-0.70,A3EA4SHCLJ1UZQ,39O6Z4JLY5DL2UNJ70JKB6RMCJRXVU,3Q8GYXHFETIJNLV30FAMIF80RIRC58,3,4
71,1,object_09,object_08,567.19500001054,1,1,396.34499995736,0.2222222222222222,1,object_07,5,897,0,2,2,desert_6,2,memory-2step-stake-s,559,1848718,0.0-19.0-0.0-0.71,A3EA4SHCLJ1UZQ,39O6Z4JLY5DL2UNJ70JKB6RMCJRXVU,3Q8GYXHFETIJNLV30FAMIF80RIRC58,1,2
72,1,object_09,object_08,482.34500002582,2,2,404.9750000122,0.3333333333333333,2,object_03,5,912,0,3,3,desert_1,2,memory-2step-stake-s,560,1856656,0.0-19.0-0.0-0.72,A3EA4SHCLJ1UZQ,39O6Z4JLY5DL2UNJ70JKB6RMCJRXVU,3Q8GYXHFETIJNLV30FAMIF80RIRC58,1,2
73,4,object_01,object_04,460.11500002351,7,1,513.36500002071,0.2222222222222222,1,object_07,1,914,0,2,3,restaurant_3,2,memory-2step-stake-s,561,1864593,0.0-19.0-0.0-0.73,A3EA4SHCLJ1UZQ,39O6Z4JLY5DL2UNJ70JKB6RMCJRXVU,3Q8GYXHFETIJNLV30FAMIF80RIRC58,7,8
74,3,object_10,object_05,718.349999981,6,2,385.24000003235,0.3333333333333333,2,object_03,5,929,0,3,3,library_6,2,memory-2step-stake-s,562,1872510,0.0-19.0-0.0-0.74,A3EA4SHCLJ1UZQ,39O6Z4JLY5DL2UNJ70JKB6RMCJRXVU,3Q8GYXHFETIJNLV30FAMIF80RIRC58,5,6
75,1,object_08,object_09,478.50999998627,1,2,443.12499999069,0.5555555555555556,1,object_07,5,954,0,5,1,desert_7,2,memory-2step-stake-s,563,1880693,0.0-19.0-0.0-0.75,A3EA4SHCLJ1UZQ,39O6Z4JLY5DL2UNJ70JKB6RMCJRXVU,3Q8GYXHFETIJNLV30FAMIF80RIRC58,2,1
76,1,object_08,object_09,765.46000002418,2,1,447.09000003058,0.3333333333333333,2,object_03,5,969,0,6,3,desert_1,2,memory-2step-stake-s,564,1888681,0.0-19.0-0.0-0.76,A3EA4SHCLJ1UZQ,39O6Z4JLY5DL2UNJ70JKB6RMCJRXVU,3Q8GYXHFETIJNLV30FAMIF80RIRC58,2,1
77,1,object_08,object_09,513.32999998704,1,2,587.55500003463,0.6666666666666666,1,object_07,5,999,0,6,2,desert_4,2,memory-2step-stake-s,565,1897112,0.0-19.0-0.0-0.77,A3EA4SHCLJ1UZQ,39O6Z4JLY5DL2UNJ70JKB6RMCJRXVU,3Q8GYXHFETIJNLV30FAMIF80RIRC58,2,1
78,3,object_10,object_05,682.43499996606,5,1,659.14499998325,0.7777777777777778,1,object_07,1,1006,0,7,4,library_3,2,memory-2step-stake-s,566,1905719,0.0-19.0-0.0-0.78,A3EA4SHCLJ1UZQ,39O6Z4JLY5DL2UNJ70JKB6RMCJRXVU,3Q8GYXHFETIJNLV30FAMIF80RIRC58,5,6
79,4,object_01,object_04,683.40499995975,7,1,547.0900000073,0.5555555555555556,1,object_07,1,1011,0,5,4,restaurant_1,2,memory-2step-stake-s,567,1914010,0.0-19.0-0.0-0.79,A3EA4SHCLJ1UZQ,39O6Z4JLY5DL2UNJ70JKB6RMCJRXVU,3Q8GYXHFETIJNLV30FAMIF80RIRC58,7,8
80,1,object_09,object_08,639.35999997193,2,2,595.05999996327,0.7777777777777778,2,object_03,5,1046,0,5,7,desert_7,2,memory-2step-stake-s,568,1922553,0.0-19.0-0.0-0.80,A3EA4SHCLJ1UZQ,39O6Z4JLY5DL2UNJ70JKB6RMCJRXVU,3Q8GYXHFETIJNLV30FAMIF80RIRC58,1,2
81,3,object_05,object_10,581.00000000559,5,2,534.15000002133,0.5555555555555556,1,object_07,1,1051,0,5,6,library_4,2,memory-2step-stake-s,569,1930818,0.0-19.0-0.0-0.81,A3EA4SHCLJ1UZQ,39O6Z4JLY5DL2UNJ70JKB6RMCJRXVU,3Q8GYXHFETIJNLV30FAMIF80RIRC58,6,5
82,4,object_04,object_01,614.95499999728,7,2,489.39000000246,0.5555555555555556,1,object_07,1,1056,0,5,8,restaurant_8,2,memory-2step-stake-s,570,1939049,0.0-19.0-0.0-0.82,A3EA4SHCLJ1UZQ,39O6Z4JLY5DL2UNJ70JKB6RMCJRXVU,3Q8GYXHFETIJNLV30FAMIF80RIRC58,8,7
83,1,object_08,object_09,539.0849999967,1,2,452.76999997441,0.5555555555555556,1,object_07,5,1081,0,5,7,desert_7,2,memory-2step-stake-s,571,1947243,0.0-19.0-0.0-0.83,A3EA4SHCLJ1UZQ,39O6Z4JLY5DL2UNJ70JKB6RMCJRXVU,3Q8GYXHFETIJNLV30FAMIF80RIRC58,2,1
84,2,object_06,object_02,601.23000002932,4,1,498.71499999426,0.7777777777777778,2,object_03,5,1116,0,4,7,forest_4,2,memory-2step-stake-s,572,1955678,0.0-19.0-0.0-0.84,A3EA4SHCLJ1UZQ,39O6Z4JLY5DL2UNJ70JKB6RMCJRXVU,3Q8GYXHFETIJNLV30FAMIF80RIRC58,4,3
85,3,object_10,object_05,560.44999998994,6,2,684.37000003178,1.0,2,object_03,1,1125,0,4,9,library_7,2,memory-2step-stake-s,573,1964508,0.0-19.0-0.0-0.85,A3EA4SHCLJ1UZQ,39O6Z4JLY5DL2UNJ70JKB6RMCJRXVU,3Q8GYXHFETIJNLV30FAMIF80RIRC58,5,6
86,1,object_08,object_09,522.62499998324,1,2,530.87499999674,0.4444444444444444,1,object_07,5,1145,0,4,8,desert_4,2,memory-2step-stake-s,574,1972676,0.0-19.0-0.0-0.86,A3EA4SHCLJ1UZQ,39O6Z4JLY5DL2UNJ70JKB6RMCJRXVU,3Q8GYXHFETIJNLV30FAMIF80RIRC58,2,1
87,3,object_10,object_05,1460.6050000293,5,1,453.83000001311,0.5555555555555556,1,object_07,1,1150,0,5,5,library_6,2,memory-2step-stake-s,575,1980873,0.0-19.0-0.0-0.87,A3EA4SHCLJ1UZQ,39O6Z4JLY5DL2UNJ70JKB6RMCJRXVU,3Q8GYXHFETIJNLV30FAMIF80RIRC58,5,6
88,3,object_10,object_05,454.96000000276,6,2,480.21499998868,0.6666666666666666,2,object_03,1,1156,0,4,6,library_7,2,memory-2step-stake-s,576,1989197,0.0-19.0-0.0-0.88,A3EA4SHCLJ1UZQ,39O6Z4JLY5DL2UNJ70JKB6RMCJRXVU,3Q8GYXHFETIJNLV30FAMIF80RIRC58,5,6
89,4,object_01,object_04,218.93999999156,8,2,417.4200000125,0.7777777777777778,2,object_03,1,1163,0,8,7,restaurant_1,2,memory-2step-stake-s,577,1997578,0.0-19.0-0.0-0.89,A3EA4SHCLJ1UZQ,39O6Z4JLY5DL2UNJ70JKB6RMCJRXVU,3Q8GYXHFETIJNLV30FAMIF80RIRC58,7,8
90,2,object_06,object_02,587.69499999471,4,1,512.03499996336,1.0,2,object_03,5,1208,0,8,9,forest_4,2,memory-2step-stake-s,578,2006240,0.0-19.0-0.0-0.90,A3EA4SHCLJ1UZQ,39O6Z4JLY5DL2UNJ70JKB6RMCJRXVU,3Q8GYXHFETIJNLV30FAMIF80RIRC58,4,3
91,1,object_08,object_09,65.160000056494,1,2,617.74499999592,0.7777777777777778,1,object_07,5,1243,0,7,7,desert_7,2,memory-2step-stake-s,579,2014804,0.0-19.0-0.0-0.91,A3EA4SHCLJ1UZQ,39O6Z4JLY5DL2UNJ70JKB6RMCJRXVU,3Q8GYXHFETIJNLV30FAMIF80RIRC58,2,1
92,2,object_02,object_06,534.39499996603,4,2,487.60500003118,1.0,2,object_03,5,1288,0,8,9,forest_8,2,memory-2step-stake-s,580,2023451,0.0-19.0-0.0-0.92,A3EA4SHCLJ1UZQ,39O6Z4JLY5DL2UNJ70JKB6RMCJRXVU,3Q8GYXHFETIJNLV30FAMIF80RIRC58,3,4
93,4,object_04,object_01,533.44000002835,8,1,366.66499997955,0.8888888888888888,2,object_03,1,1296,0,7,8,restaurant_8,2,memory-2step-stake-s,581,2031872,0.0-19.0-0.0-0.93,A3EA4SHCLJ1UZQ,39O6Z4JLY5DL2UNJ70JKB6RMCJRXVU,3Q8GYXHFETIJNLV30FAMIF80RIRC58,8,7
94,2,object_02,object_06,520.09000000544,4,2,393.51000002353,0.8888888888888888,2,object_03,5,1336,0,7,8,forest_7,2,memory-2step-stake-s,582,2040306,0.0-19.0-0.0-0.94,A3EA4SHCLJ1UZQ,39O6Z4JLY5DL2UNJ70JKB6RMCJRXVU,3Q8GYXHFETIJNLV30FAMIF80RIRC58,3,4
95,3,object_05,object_10,518.73500004876,5,2,297.72500001127,0.6666666666666666,1,object_07,1,1342,0,6,6,library_3,2,memory-2step-stake-s,583,2048447,0.0-19.0-0.0-0.95,A3EA4SHCLJ1UZQ,39O6Z4JLY5DL2UNJ70JKB6RMCJRXVU,3Q8GYXHFETIJNLV30FAMIF80RIRC58,6,5
96,3,object_10,object_05,511.24999998137,5,1,579.19499999844,0.4444444444444444,1,object_07,1,1346,0,4,3,library_4,2,memory-2step-stake-s,584,2056657,0.0-19.0-0.0-0.96,A3EA4SHCLJ1UZQ,39O6Z4JLY5DL2UNJ70JKB6RMCJRXVU,3Q8GYXHFETIJNLV30FAMIF80RIRC58,5,6
97,3,object_10,object_05,342.20000001369,6,2,561.99000001652,0.3333333333333333,2,object_03,1,1349,0,4,3,library_6,2,memory-2step-stake-s,585,2064753,0.0-19.0-0.0-0.97,A3EA4SHCLJ1UZQ,39O6Z4JLY5DL2UNJ70JKB6RMCJRXVU,3Q8GYXHFETIJNLV30FAMIF80RIRC58,5,6
98,1,object_08,object_09,589.84500000952,1,2,445.30999998096,0.6666666666666666,1,object_07,5,1379,0,6,8,desert_7,2,memory-2step-stake-s,586,2073043,0.0-19.0-0.0-0.98,A3EA4SHCLJ1UZQ,39O6Z4JLY5DL2UNJ70JKB6RMCJRXVU,3Q8GYXHFETIJNLV30FAMIF80RIRC58,2,1
99,4,object_01,object_04,451.86500001,8,2,452.1399999503,0.7777777777777778,2,object_03,1,1386,0,5,7,restaurant_1,2,memory-2step-stake-s,587,2081453,0.0-19.0-0.0-0.99,A3EA4SHCLJ1UZQ,39O6Z4JLY5DL2UNJ70JKB6RMCJRXVU,3Q8GYXHFETIJNLV30FAMIF80RIRC58,7,8
100,4,object_04,object_01,509.30000003427,8,1,887.26500002667,0.1111111111111111,2,object_03,1,1387,0,1,1,restaurant_4,2,memory-2step-stake-s,588,2089664,0.0-19.0-0.0-0.100,A3EA4SHCLJ1UZQ,39O6Z4JLY5DL2UNJ70JKB6RMCJRXVU,3Q8GYXHFETIJNLV30FAMIF80RIRC58,8,7
101,1,object_09,object_08,425.24499999126,2,2,453.36500002304,0.1111111111111111,2,object_03,5,1392,0,2,1,desert_1,2,memory-2step-stake-s,589,2097441,0.0-19.0-0.0-0.101,A3EA4SHCLJ1UZQ,39O6Z4JLY5DL2UNJ70JKB6RMCJRXVU,3Q8GYXHFETIJNLV30FAMIF80RIRC58,1,2
102,1,object_08,object_09,453.3550000051,1,2,422.80000000028,0.1111111111111111,1,object_07,5,1397,0,1,0,desert_7,2,memory-2step-stake-s,590,2105196,0.0-19.0-0.0-0.102,A3EA4SHCLJ1UZQ,39O6Z4JLY5DL2UNJ70JKB6RMCJRXVU,3Q8GYXHFETIJNLV30FAMIF80RIRC58,2,1
103,4,object_01,object_04,1217.2199999914,8,2,603.54999999981,0.0,2,object_03,1,1397,0,4,0,restaurant_8,2,memory-2step-stake-s,591,2113026,0.0-19.0-0.0-0.103,A3EA4SHCLJ1UZQ,39O6Z4JLY5DL2UNJ70JKB6RMCJRXVU,3Q8GYXHFETIJNLV30FAMIF80RIRC58,7,8
104,1,object_08,object_09,1093.8300000271,2,1,738.24499995681,0.1111111111111111,2,object_03,5,1402,0,1,1,desert_6,2,memory-2step-stake-s,592,2121097,0.0-19.0-0.0-0.104,A3EA4SHCLJ1UZQ,39O6Z4JLY5DL2UNJ70JKB6RMCJRXVU,3Q8GYXHFETIJNLV30FAMIF80RIRC58,2,1
105,4,object_04,object_01,814.67500003055,7,2,589.93499999633,0.1111111111111111,1,object_07,5,1407,0,1,2,restaurant_3,2,memory-2step-stake-s,593,2129023,0.0-19.0-0.0-0.105,A3EA4SHCLJ1UZQ,39O6Z4JLY5DL2UNJ70JKB6RMCJRXVU,3Q8GYXHFETIJNLV30FAMIF80RIRC58,8,7
106,1,object_09,object_08,593.74500002014,2,2,513.42500001192,0.3333333333333333,2,object_03,5,1422,0,1,3,desert_6,2,memory-2step-stake-s,594,2137071,0.0-19.0-0.0-0.106,A3EA4SHCLJ1UZQ,39O6Z4JLY5DL2UNJ70JKB6RMCJRXVU,3Q8GYXHFETIJNLV30FAMIF80RIRC58,1,2
107,2,object_06,object_02,1478.0749999918,4,1,1352.659999975,0.4444444444444444,2,object_03,5,1442,0,0,4,forest_7,2,memory-2step-stake-s,595,2146076,0.0-19.0-0.0-0.107,A3EA4SHCLJ1UZQ,39O6Z4JLY5DL2UNJ70JKB6RMCJRXVU,3Q8GYXHFETIJNLV30FAMIF80RIRC58,4,3
108,4,object_04,object_01,1047.6500000223,8,1,417.71000000881,0.1111111111111111,2,object_03,1,1443,0,3,1,restaurant_4,2,memory-2step-stake-s,596,2153813,0.0-19.0-0.0-0.108,A3EA4SHCLJ1UZQ,39O6Z4JLY5DL2UNJ70JKB6RMCJRXVU,3Q8GYXHFETIJNLV30FAMIF80RIRC58,8,7
109,2,object_02,object_06,445.63500001095,4,2,399.87500000279,0.4444444444444444,2,object_03,5,1463,0,3,4,forest_2,2,memory-2step-stake-s,597,2161848,0.0-19.0-0.0-0.109,A3EA4SHCLJ1UZQ,39O6Z4JLY5DL2UNJ70JKB6RMCJRXVU,3Q8GYXHFETIJNLV30FAMIF80RIRC58,3,4
110,2,object_02,object_06,1058.7599999853,3,1,445.22500003222,0.1111111111111111,1,object_07,1,1464,0,1,7,forest_4,2,memory-2step-stake-s,598,2169625,0.0-19.0-0.0-0.110,A3EA4SHCLJ1UZQ,39O6Z4JLY5DL2UNJ70JKB6RMCJRXVU,3Q8GYXHFETIJNLV30FAMIF80RIRC58,3,4
111,4,object_04,object_01,48.955000005662,7,2,427.39999998594,0.0,1,object_07,1,1464,0,0,8,restaurant_1,2,memory-2step-stake-s,599,2177273,0.0-19.0-0.0-0.111,A3EA4SHCLJ1UZQ,39O6Z4JLY5DL2UNJ70JKB6RMCJRXVU,3Q8GYXHFETIJNLV30FAMIF80RIRC58,8,7
112,2,object_02,object_06,659.84000003664,3,1,437.79499997618,0.1111111111111111,1,object_07,5,1469,0,1,9,forest_7,2,memory-2step-stake-s,600,2185035,0.0-19.0-0.0-0.112,A3EA4SHCLJ1UZQ,39O6Z4JLY5DL2UNJ70JKB6RMCJRXVU,3Q8GYXHFETIJNLV30FAMIF80RIRC58,3,4
113,2,object_06,object_02,397.75499998359,3,2,390.30999998795,0.2222222222222222,1,object_07,1,1471,0,2,8,forest_2,2,memory-2step-stake-s,601,2192863,0.0-19.0-0.0-0.113,A3EA4SHCLJ1UZQ,39O6Z4JLY5DL2UNJ70JKB6RMCJRXVU,3Q8GYXHFETIJNLV30FAMIF80RIRC58,4,3
114,3,object_10,object_05,336.09499997692,5,1,380.20999997389,0.2222222222222222,1,object_07,1,1473,0,2,7,library_7,2,memory-2step-stake-s,602,2200673,0.0-19.0-0.0-0.114,A3EA4SHCLJ1UZQ,39O6Z4JLY5DL2UNJ70JKB6RMCJRXVU,3Q8GYXHFETIJNLV30FAMIF80RIRC58,5,6
115,1,object_09,object_08,89.290000032634,2,2,453.5400000168,0.7777777777777778,2,object_03,5,1508,0,0,7,desert_4,2,memory-2step-stake-s,603,2209079,0.0-19.0-0.0-0.115,A3EA4SHCLJ1UZQ,39O6Z4JLY5DL2UNJ70JKB6RMCJRXVU,3Q8GYXHFETIJNLV30FAMIF80RIRC58,1,2
116,2,object_02,object_06,497.02999996953,4,2,385.70499996422,0.8888888888888888,2,object_03,5,1548,0,2,8,forest_8,2,memory-2step-stake-s,604,2217518,0.0-19.0-0.0-0.116,A3EA4SHCLJ1UZQ,39O6Z4JLY5DL2UNJ70JKB6RMCJRXVU,3Q8GYXHFETIJNLV30FAMIF80RIRC58,3,4
117,1,object_09,object_08,480.13999999966,1,1,681.28000001889,0.2222222222222222,1,object_07,1,1550,0,2,8,desert_4,2,memory-2step-stake-s,605,2225636,0.0-19.0-0.0-0.117,A3EA4SHCLJ1UZQ,39O6Z4JLY5DL2UNJ70JKB6RMCJRXVU,3Q8GYXHFETIJNLV30FAMIF80RIRC58,1,2
118,4,object_04,object_01,137.8750000149,7,2,369.86499995692,0.4444444444444444,1,object_07,1,1554,0,4,8,restaurant_8,2,memory-2step-stake-s,606,2233645,0.0-19.0-0.0-0.118,A3EA4SHCLJ1UZQ,39O6Z4JLY5DL2UNJ70JKB6RMCJRXVU,3Q8GYXHFETIJNLV30FAMIF80RIRC58,8,7
119,4,object_04,object_01,613.01000003004,8,1,488.07500000112,0.6666666666666666,2,object_03,5,1584,0,7,6,restaurant_1,2,memory-2step-stake-s,607,2241974,0.0-19.0-0.0-0.119,A3EA4SHCLJ1UZQ,39O6Z4JLY5DL2UNJ70JKB6RMCJRXVU,3Q8GYXHFETIJNLV30FAMIF80RIRC58,8,7
120,2,object_02,object_06,520.04500001203,4,2,443.34499997785,0.6666666666666666,2,object_03,5,1614,0,7,6,forest_7,2,memory-2step-stake-s,608,2250261,0.0-19.0-0.0-0.120,A3EA4SHCLJ1UZQ,39O6Z4JLY5DL2UNJ70JKB6RMCJRXVU,3Q8GYXHFETIJNLV30FAMIF80RIRC58,3,4
121,2,object_06,object_02,613.12499997439,3,2,369.99999999534,0.4444444444444444,1,object_07,5,1634,0,4,2,forest_4,2,memory-2step-stake-s,609,2258269,0.0-19.0-0.0-0.121,A3EA4SHCLJ1UZQ,39O6Z4JLY5DL2UNJ70JKB6RMCJRXVU,3Q8GYXHFETIJNLV30FAMIF80RIRC58,4,3
122,3,object_05,object_10,701.66999998037,5,2,610.29000004055,0.4444444444444444,1,object_07,1,1638,0,4,0,library_6,2,memory-2step-stake-s,610,2266514,0.0-19.0-0.0-0.122,A3EA4SHCLJ1UZQ,39O6Z4JLY5DL2UNJ70JKB6RMCJRXVU,3Q8GYXHFETIJNLV30FAMIF80RIRC58,6,5
123,1,object_08,object_09,550.96500000218,2,1,448.69500002824,0.2222222222222222,2,object_03,1,1640,0,3,2,desert_4,2,memory-2step-stake-s,611,2274391,0.0-19.0-0.0-0.123,A3EA4SHCLJ1UZQ,39O6Z4JLY5DL2UNJ70JKB6RMCJRXVU,3Q8GYXHFETIJNLV30FAMIF80RIRC58,2,1
124,4,object_01,object_04,123.07000003057,8,2,512.17000000179,0.3333333333333333,2,object_03,1,1643,0,2,3,restaurant_8,2,memory-2step-stake-s,612,2282437,0.0-19.0-0.0-0.124,A3EA4SHCLJ1UZQ,39O6Z4JLY5DL2UNJ70JKB6RMCJRXVU,3Q8GYXHFETIJNLV30FAMIF80RIRC58,7,8
125,2,object_06,object_02,508.83499998599,4,1,502.06500000786,0.3333333333333333,2,object_03,5,1658,0,3,3,forest_8,2,memory-2step-stake-s,613,2290478,0.0-19.0-0.0-0.125,A3EA4SHCLJ1UZQ,39O6Z4JLY5DL2UNJ70JKB6RMCJRXVU,3Q8GYXHFETIJNLV30FAMIF80RIRC58,4,3
126,1,object_08,object_09,411.5949999541,1,2,409.06000003451,0.3333333333333333,1,object_07,1,1661,0,3,0,desert_6,2,memory-2step-stake-s,614,2298431,0.0-19.0-0.0-0.126,A3EA4SHCLJ1UZQ,39O6Z4JLY5DL2UNJ70JKB6RMCJRXVU,3Q8GYXHFETIJNLV30FAMIF80RIRC58,2,1
127,1,object_09,object_08,395.680000016,2,2,405.64000001177,0.3333333333333333,2,object_03,5,1676,0,2,3,desert_1,2,memory-2step-stake-s,615,2306368,0.0-19.0-0.0-0.127,A3EA4SHCLJ1UZQ,39O6Z4JLY5DL2UNJ70JKB6RMCJRXVU,3Q8GYXHFETIJNLV30FAMIF80RIRC58,1,2
128,2,object_06,object_02,1168.0499999784,4,1,418.49999997066,0.1111111111111111,2,object_03,5,1681,0,1,1,forest_4,2,memory-2step-stake-s,617,2333472,0.0-19.0-0.1-0.128,A3EA4SHCLJ1UZQ,39O6Z4JLY5DL2UNJ70JKB6RMCJRXVU,3Q8GYXHFETIJNLV30FAMIF80RIRC58,4,3
129,1,object_08,object_09,568.1700000423,1,2,628.67000000551,0.3333333333333333,1,object_07,5,1696,0,3,2,desert_6,2,memory-2step-stake-s,618,2341636,0.0-19.0-0.1-0.129,A3EA4SHCLJ1UZQ,39O6Z4JLY5DL2UNJ70JKB6RMCJRXVU,3Q8GYXHFETIJNLV30FAMIF80RIRC58,2,1
130,3,object_05,object_10,521.20999997715,5,2,517.57500000531,0.2222222222222222,1,object_07,1,1698,0,2,5,library_6,2,memory-2step-stake-s,619,2349585,0.0-19.0-0.1-0.130,A3EA4SHCLJ1UZQ,39O6Z4JLY5DL2UNJ70JKB6RMCJRXVU,3Q8GYXHFETIJNLV30FAMIF80RIRC58,6,5
131,4,object_01,object_04,761.48500002455,7,1,381.16500002798,0.5555555555555556,1,object_07,1,1703,0,5,6,restaurant_8,2,memory-2step-stake-s,620,2357705,0.0-19.0-0.1-0.131,A3EA4SHCLJ1UZQ,39O6Z4JLY5DL2UNJ70JKB6RMCJRXVU,3Q8GYXHFETIJNLV30FAMIF80RIRC58,7,8
132,2,object_02,object_06,454.66499996837,4,2,494.9299999862,0.8888888888888888,2,object_03,5,1743,0,8,8,forest_2,2,memory-2step-stake-s,621,2366248,0.0-19.0-0.1-0.132,A3EA4SHCLJ1UZQ,39O6Z4JLY5DL2UNJ70JKB6RMCJRXVU,3Q8GYXHFETIJNLV30FAMIF80RIRC58,3,4
133,4,object_04,object_01,687.41499999305,8,1,343.75,1.0,2,object_03,1,1752,0,8,9,restaurant_3,2,memory-2step-stake-s,622,2374748,0.0-19.0-0.1-0.133,A3EA4SHCLJ1UZQ,39O6Z4JLY5DL2UNJ70JKB6RMCJRXVU,3Q8GYXHFETIJNLV30FAMIF80RIRC58,8,7
134,4,object_04,object_01,300.22000003373,7,2,512.79499998782,0.8888888888888888,1,object_07,1,1760,0,8,1,restaurant_3,2,memory-2step-stake-s,623,2383315,0.0-19.0-0.1-0.134,A3EA4SHCLJ1UZQ,39O6Z4JLY5DL2UNJ70JKB6RMCJRXVU,3Q8GYXHFETIJNLV30FAMIF80RIRC58,8,7
135,4,object_04,object_01,780.16500000376,7,2,-1.0,0.0,1,object_07,1,1760,0,9,4,restaurant_3,2,memory-2step-stake-s,624,2391841,0.0-19.0-0.1-0.135,A3EA4SHCLJ1UZQ,39O6Z4JLY5DL2UNJ70JKB6RMCJRXVU,3Q8GYXHFETIJNLV30FAMIF80RIRC58,8,7
136,2,object_06,object_02,546.75999999745,4,1,495.15500001144,0.1111111111111111,2,object_03,5,1765,0,8,1,forest_2,2,memory-2step-stake-s,625,2399662,0.0-19.0-0.1-0.136,A3EA4SHCLJ1UZQ,39O6Z4JLY5DL2UNJ70JKB6RMCJRXVU,3Q8GYXHFETIJNLV30FAMIF80RIRC58,4,3
137,3,object_05,object_10,337.12999999989,5,2,509.71499999287,0.8888888888888888,1,object_07,5,1805,0,8,3,library_3,2,memory-2step-stake-s,626,2408218,0.0-19.0-0.1-0.137,A3EA4SHCLJ1UZQ,39O6Z4JLY5DL2UNJ70JKB6RMCJRXVU,3Q8GYXHFETIJNLV30FAMIF80RIRC58,6,5
138,3,object_10,object_05,788.91000000294,6,2,470.41999996873,0.5555555555555556,2,object_03,1,1810,0,8,5,library_3,2,memory-2step-stake-s,627,2416430,0.0-19.0-0.1-0.138,A3EA4SHCLJ1UZQ,39O6Z4JLY5DL2UNJ70JKB6RMCJRXVU,3Q8GYXHFETIJNLV30FAMIF80RIRC58,5,6
139,3,object_05,object_10,488.61500003841,6,1,540.14500003541,0.6666666666666666,2,object_03,1,1816,0,9,6,library_3,2,memory-2step-stake-s,628,2424813,0.0-19.0-0.1-0.139,A3EA4SHCLJ1UZQ,39O6Z4JLY5DL2UNJ70JKB6RMCJRXVU,3Q8GYXHFETIJNLV30FAMIF80RIRC58,6,5
140,2,object_06,object_02,475.03500001039,3,2,510.81000000704,0.7777777777777778,1,object_07,5,1851,0,7,6,forest_8,2,memory-2step-stake-s,629,2433273,0.0-19.0-0.1-0.140,A3EA4SHCLJ1UZQ,39O6Z4JLY5DL2UNJ70JKB6RMCJRXVU,3Q8GYXHFETIJNLV30FAMIF80RIRC58,4,3
141,2,object_02,object_06,629.82499995269,4,2,-1.0,0.0,2,object_03,5,1851,0,7,2,forest_7,2,memory-2step-stake-s,630,2441799,0.0-19.0-0.1-0.141,A3EA4SHCLJ1UZQ,39O6Z4JLY5DL2UNJ70JKB6RMCJRXVU,3Q8GYXHFETIJNLV30FAMIF80RIRC58,3,4
142,1,object_08,object_09,589.74999998463,1,2,496.21000001207,0.6666666666666666,1,object_07,5,1881,0,6,3,desert_7,2,memory-2step-stake-s,631,2450134,0.0-19.0-0.1-0.142,A3EA4SHCLJ1UZQ,39O6Z4JLY5DL2UNJ70JKB6RMCJRXVU,3Q8GYXHFETIJNLV30FAMIF80RIRC58,2,1
143,1,object_08,object_09,553.55499999132,2,1,625.6300000241,0.5555555555555556,2,object_03,5,1906,0,6,5,desert_6,2,memory-2step-stake-s,632,2458497,0.0-19.0-0.1-0.143,A3EA4SHCLJ1UZQ,39O6Z4JLY5DL2UNJ70JKB6RMCJRXVU,3Q8GYXHFETIJNLV30FAMIF80RIRC58,2,1
144,4,object_04,object_01,406.6799999564,7,2,362.01000004075,0.4444444444444444,1,object_07,1,1910,0,4,6,restaurant_8,2,memory-2step-stake-s,633,2466503,0.0-19.0-0.1-0.144,A3EA4SHCLJ1UZQ,39O6Z4JLY5DL2UNJ70JKB6RMCJRXVU,3Q8GYXHFETIJNLV30FAMIF80RIRC58,8,7
145,4,object_04,object_01,500.10000000475,8,1,390.76999999816,0.4444444444444444,2,object_03,1,1914,0,2,4,restaurant_3,2,memory-2step-stake-s,634,2474543,0.0-19.0-0.1-0.145,A3EA4SHCLJ1UZQ,39O6Z4JLY5DL2UNJ70JKB6RMCJRXVU,3Q8GYXHFETIJNLV30FAMIF80RIRC58,8,7
146,2,object_02,object_06,280.12000001036,4,2,524.74500000244,0.3333333333333333,2,object_03,5,1929,0,2,3,forest_8,2,memory-2step-stake-s,635,2482597,0.0-19.0-0.1-0.146,A3EA4SHCLJ1UZQ,39O6Z4JLY5DL2UNJ70JKB6RMCJRXVU,3Q8GYXHFETIJNLV30FAMIF80RIRC58,3,4
147,2,object_06,object_02,392.76000001701,3,2,416.10999999102,0.1111111111111111,1,object_07,1,1930,0,1,4,forest_2,2,memory-2step-stake-s,636,2490353,0.0-19.0-0.1-0.147,A3EA4SHCLJ1UZQ,39O6Z4JLY5DL2UNJ70JKB6RMCJRXVU,3Q8GYXHFETIJNLV30FAMIF80RIRC58,4,3
148,3,object_05,object_10,173.1050000526,6,1,349.73499999614,0.7777777777777778,2,object_03,1,1937,0,0,7,library_6,2,memory-2step-stake-s,637,2498647,0.0-19.0-0.1-0.148,A3EA4SHCLJ1UZQ,39O6Z4JLY5DL2UNJ70JKB6RMCJRXVU,3Q8GYXHFETIJNLV30FAMIF80RIRC58,6,5
149,3,object_10,object_05,358.07999997633,6,2,273.58499995898,0.8888888888888888,2,object_03,1,1945,0,0,8,library_4,2,memory-2step-stake-s,638,2506980,0.0-19.0-0.1-0.149,A3EA4SHCLJ1UZQ,39O6Z4JLY5DL2UNJ70JKB6RMCJRXVU,3Q8GYXHFETIJNLV30FAMIF80RIRC58,5,6
150,3,object_05,object_10,332.64999999665,5,2,415.13999999734,0.2222222222222222,1,object_07,1,1947,0,2,6,library_4,2,memory-2step-stake-s,639,2514839,0.0-19.0-0.1-0.150,A3EA4SHCLJ1UZQ,39O6Z4JLY5DL2UNJ70JKB6RMCJRXVU,3Q8GYXHFETIJNLV30FAMIF80RIRC58,6,5
151,1,object_09,object_08,344.7650000453,1,1,347.68000000622,0.1111111111111111,1,object_07,5,1952,0,1,7,desert_1,2,memory-2step-stake-s,640,2522522,0.0-19.0-0.1-0.151,A3EA4SHCLJ1UZQ,39O6Z4JLY5DL2UNJ70JKB6RMCJRXVU,3Q8GYXHFETIJNLV30FAMIF80RIRC58,1,2
152,4,object_01,object_04,242.58499999996,8,2,448.9150000154,0.4444444444444444,2,object_03,1,1956,0,3,4,restaurant_3,2,memory-2step-stake-s,641,2530616,0.0-19.0-0.1-0.152,A3EA4SHCLJ1UZQ,39O6Z4JLY5DL2UNJ70JKB6RMCJRXVU,3Q8GYXHFETIJNLV30FAMIF80RIRC58,7,8
153,1,object_09,object_08,278.66500004893,2,2,478.07999997167,0.3333333333333333,2,object_03,5,1971,0,3,3,desert_6,2,memory-2step-stake-s,642,2538642,0.0-19.0-0.1-0.153,A3EA4SHCLJ1UZQ,39O6Z4JLY5DL2UNJ70JKB6RMCJRXVU,3Q8GYXHFETIJNLV30FAMIF80RIRC58,1,2
154,4,object_04,object_01,515.31500002602,7,2,415.76499998337,0.0,1,object_07,1,1971,0,0,3,restaurant_4,2,memory-2step-stake-s,643,2546284,0.0-19.0-0.1-0.154,A3EA4SHCLJ1UZQ,39O6Z4JLY5DL2UNJ70JKB6RMCJRXVU,3Q8GYXHFETIJNLV30FAMIF80RIRC58,8,7
155,4,object_04,object_01,619.72499999683,8,1,576.07499998994,0.3333333333333333,2,object_03,1,1974,0,6,3,restaurant_1,2,memory-2step-stake-s,644,2554393,0.0-19.0-0.1-0.155,A3EA4SHCLJ1UZQ,39O6Z4JLY5DL2UNJ70JKB6RMCJRXVU,3Q8GYXHFETIJNLV30FAMIF80RIRC58,8,7
156,4,object_01,object_04,423.04500000319,8,2,443.32000002032,0.2222222222222222,2,object_03,1,1976,0,4,2,restaurant_4,2,memory-2step-stake-s,645,2562272,0.0-19.0-0.1-0.156,A3EA4SHCLJ1UZQ,39O6Z4JLY5DL2UNJ70JKB6RMCJRXVU,3Q8GYXHFETIJNLV30FAMIF80RIRC58,7,8
157,4,object_01,object_04,395.60000004712,7,1,364.29500003578,0.2222222222222222,1,object_07,1,1978,0,2,1,restaurant_4,2,memory-2step-stake-s,646,2570073,0.0-19.0-0.1-0.157,A3EA4SHCLJ1UZQ,39O6Z4JLY5DL2UNJ70JKB6RMCJRXVU,3Q8GYXHFETIJNLV30FAMIF80RIRC58,7,8
158,2,object_02,object_06,297.71000001347,4,2,543.17499999888,0.6666666666666666,2,object_03,1,1984,0,4,6,forest_8,2,memory-2step-stake-s,647,2578461,0.0-19.0-0.1-0.158,A3EA4SHCLJ1UZQ,39O6Z4JLY5DL2UNJ70JKB6RMCJRXVU,3Q8GYXHFETIJNLV30FAMIF80RIRC58,3,4
159,3,object_05,object_10,343.49500003736,6,1,426.31999996956,1.0,2,object_03,1,1993,0,7,9,library_3,2,memory-2step-stake-s,648,2587030,0.0-19.0-0.1-0.159,A3EA4SHCLJ1UZQ,39O6Z4JLY5DL2UNJ70JKB6RMCJRXVU,3Q8GYXHFETIJNLV30FAMIF80RIRC58,6,5
160,2,object_02,object_06,634.87000000896,4,2,500.65000000177,0.7777777777777778,2,object_03,1,2000,0,8,7,forest_7,2,memory-2step-stake-s,649,2595477,0.0-19.0-0.1-0.160,A3EA4SHCLJ1UZQ,39O6Z4JLY5DL2UNJ70JKB6RMCJRXVU,3Q8GYXHFETIJNLV30FAMIF80RIRC58,3,4
161,3,object_10,object_05,340.67000000505,5,1,397.18999998877,0.6666666666666666,1,object_07,1,2006,0,6,9,library_7,2,memory-2step-stake-s,650,2603722,0.0-19.0-0.1-0.161,A3EA4SHCLJ1UZQ,39O6Z4JLY5DL2UNJ70JKB6RMCJRXVU,3Q8GYXHFETIJNLV30FAMIF80RIRC58,5,6
162,3,object_05,object_10,116.99999996927,5,2,531.38000000035,0.2222222222222222,1,object_07,1,2008,0,2,7,library_6,2,memory-2step-stake-s,651,2611690,0.0-19.0-0.1-0.162,A3EA4SHCLJ1UZQ,39O6Z4JLY5DL2UNJ70JKB6RMCJRXVU,3Q8GYXHFETIJNLV30FAMIF80RIRC58,6,5
163,1,object_09,object_08,438.82999999914,1,1,384.21499996912,0.1111111111111111,1,object_07,1,2009,0,1,4,desert_1,2,memory-2step-stake-s,652,2619408,0.0-19.0-0.1-0.163,A3EA4SHCLJ1UZQ,39O6Z4JLY5DL2UNJ70JKB6RMCJRXVU,3Q8GYXHFETIJNLV30FAMIF80RIRC58,1,2
164,4,object_04,object_01,758.73000000138,8,1,377.39000003785,0.7777777777777778,2,object_03,1,2016,0,1,7,restaurant_1,2,memory-2step-stake-s,653,2627741,0.0-19.0-0.1-0.164,A3EA4SHCLJ1UZQ,39O6Z4JLY5DL2UNJ70JKB6RMCJRXVU,3Q8GYXHFETIJNLV30FAMIF80RIRC58,8,7
165,1,object_09,object_08,875.8899999666,2,2,391.83499995852,0.7777777777777778,2,object_03,5,2051,0,4,7,desert_4,2,memory-2step-stake-s,654,2636087,0.0-19.0-0.1-0.165,A3EA4SHCLJ1UZQ,39O6Z4JLY5DL2UNJ70JKB6RMCJRXVU,3Q8GYXHFETIJNLV30FAMIF80RIRC58,1,2
166,1,object_08,object_09,853.86500001187,2,1,769.11499997368,0.7777777777777778,2,object_03,5,2086,0,6,7,desert_6,2,memory-2step-stake-s,655,2644797,0.0-19.0-0.1-0.166,A3EA4SHCLJ1UZQ,39O6Z4JLY5DL2UNJ70JKB6RMCJRXVU,3Q8GYXHFETIJNLV30FAMIF80RIRC58,2,1
167,2,object_06,object_02,743.22499998379,4,1,386.97499997215,0.8888888888888888,2,object_03,5,2126,0,4,8,forest_2,2,memory-2step-stake-s,656,2653230,0.0-19.0-0.1-0.167,A3EA4SHCLJ1UZQ,39O6Z4JLY5DL2UNJ70JKB6RMCJRXVU,3Q8GYXHFETIJNLV30FAMIF80RIRC58,4,3
168,1,object_09,object_08,754.93999995524,2,2,345.74499999871,0.5555555555555556,2,object_03,5,2151,0,5,5,desert_6,2,memory-2step-stake-s,657,2661317,0.0-19.0-0.1-0.168,A3EA4SHCLJ1UZQ,39O6Z4JLY5DL2UNJ70JKB6RMCJRXVU,3Q8GYXHFETIJNLV30FAMIF80RIRC58,1,2
169,1,object_08,object_09,757.52500002272,2,1,521.40500000678,0.2222222222222222,2,object_03,5,2161,0,6,2,desert_4,2,memory-2step-stake-s,658,2669268,0.0-19.0-0.1-0.169,A3EA4SHCLJ1UZQ,39O6Z4JLY5DL2UNJ70JKB6RMCJRXVU,3Q8GYXHFETIJNLV30FAMIF80RIRC58,2,1
170,2,object_02,object_06,743.34500002442,3,1,582.5649999897,0.5555555555555556,1,object_07,5,2186,0,5,2,forest_7,2,memory-2step-stake-s,659,2677592,0.0-19.0-0.1-0.170,A3EA4SHCLJ1UZQ,39O6Z4JLY5DL2UNJ70JKB6RMCJRXVU,3Q8GYXHFETIJNLV30FAMIF80RIRC58,3,4
171,3,object_10,object_05,1445.5599999637,6,2,503.77000001026,0.1111111111111111,2,object_03,1,2187,0,8,1,library_3,2,memory-2step-stake-s,660,2685435,0.0-19.0-0.1-0.171,A3EA4SHCLJ1UZQ,39O6Z4JLY5DL2UNJ70JKB6RMCJRXVU,3Q8GYXHFETIJNLV30FAMIF80RIRC58,5,6
172,2,object_02,object_06,942.34499998856,3,1,489.0149999992,1.0,1,object_07,5,2232,0,9,3,forest_2,2,memory-2step-stake-s,661,2694080,0.0-19.0-0.1-0.172,A3EA4SHCLJ1UZQ,39O6Z4JLY5DL2UNJ70JKB6RMCJRXVU,3Q8GYXHFETIJNLV30FAMIF80RIRC58,3,4
173,1,object_08,object_09,-1.0,-1,-1,-1.0,0.0,-,0,5,2232,0,9,4,desert_6,2,memory-2step-stake-s,662,2700597,0.0-19.0-0.1-0.173,A3EA4SHCLJ1UZQ,39O6Z4JLY5DL2UNJ70JKB6RMCJRXVU,3Q8GYXHFETIJNLV30FAMIF80RIRC58,2,1
174,2,object_06,object_02,777.4699999718,3,2,484.13499997696,0.6666666666666666,1,object_07,5,2262,0,6,4,forest_7,2,memory-2step-stake-s,663,2708914,0.0-19.0-0.1-0.174,A3EA4SHCLJ1UZQ,39O6Z4JLY5DL2UNJ70JKB6RMCJRXVU,3Q8GYXHFETIJNLV30FAMIF80RIRC58,4,3
175,3,object_05,object_10,706.07000001473,5,2,-1.0,0.0,1,object_07,1,2262,0,5,8,library_6,2,memory-2step-stake-s,664,2717441,0.0-19.0-0.1-0.175,A3EA4SHCLJ1UZQ,39O6Z4JLY5DL2UNJ70JKB6RMCJRXVU,3Q8GYXHFETIJNLV30FAMIF80RIRC58,6,5
176,3,object_10,object_05,784.66000000481,6,2,370.64500001725,0.7777777777777778,2,object_03,5,2297,0,5,7,library_6,2,memory-2step-stake-s,665,2725764,0.0-19.0-0.1-0.176,A3EA4SHCLJ1UZQ,39O6Z4JLY5DL2UNJ70JKB6RMCJRXVU,3Q8GYXHFETIJNLV30FAMIF80RIRC58,5,6
177,3,object_05,object_10,563.82499996107,6,1,613.97499998566,0.7777777777777778,2,object_03,1,2304,0,4,7,library_4,2,memory-2step-stake-s,666,2734318,0.0-19.0-0.1-0.177,A3EA4SHCLJ1UZQ,39O6Z4JLY5DL2UNJ70JKB6RMCJRXVU,3Q8GYXHFETIJNLV30FAMIF80RIRC58,6,5
178,3,object_05,object_10,560.16499997349,5,2,400.93000000343,0.3333333333333333,1,object_07,5,2319,0,3,7,library_3,2,memory-2step-stake-s,667,2742261,0.0-19.0-0.1-0.178,A3EA4SHCLJ1UZQ,39O6Z4JLY5DL2UNJ70JKB6RMCJRXVU,3Q8GYXHFETIJNLV30FAMIF80RIRC58,6,5
179,3,object_10,object_05,464.00000003632,5,1,460.76500002528,0.4444444444444444,1,object_07,1,2323,0,4,8,library_7,2,memory-2step-stake-s,668,2750363,0.0-19.0-0.1-0.179,A3EA4SHCLJ1UZQ,39O6Z4JLY5DL2UNJ70JKB6RMCJRXVU,3Q8GYXHFETIJNLV30FAMIF80RIRC58,5,6
180,1,object_08,object_09,284.86000001431,1,2,304.4799999916,0.4444444444444444,1,object_07,5,2343,0,4,5,desert_6,2,memory-2step-stake-s,669,2758298,0.0-19.0-0.1-0.180,A3EA4SHCLJ1UZQ,39O6Z4JLY5DL2UNJ70JKB6RMCJRXVU,3Q8GYXHFETIJNLV30FAMIF80RIRC58,2,1
181,2,object_06,object_02,475.21000000415,4,1,407.3099999805,0.4444444444444444,2,object_03,5,2363,0,7,4,forest_8,2,memory-2step-stake-s,670,2766337,0.0-19.0-0.1-0.181,A3EA4SHCLJ1UZQ,39O6Z4JLY5DL2UNJ70JKB6RMCJRXVU,3Q8GYXHFETIJNLV30FAMIF80RIRC58,4,3
182,2,object_02,object_06,405.77499999199,4,2,320.79999998678,0.4444444444444444,2,object_03,5,2383,0,3,4,forest_4,2,memory-2step-stake-s,671,2774297,0.0-19.0-0.1-0.182,A3EA4SHCLJ1UZQ,39O6Z4JLY5DL2UNJ70JKB6RMCJRXVU,3Q8GYXHFETIJNLV30FAMIF80RIRC58,3,4
183,4,object_04,object_01,445.56000002194,7,2,497.86000000313,0.5555555555555556,1,object_07,1,2388,0,5,5,restaurant_1,2,memory-2step-stake-s,672,2782530,0.0-19.0-0.1-0.183,A3EA4SHCLJ1UZQ,39O6Z4JLY5DL2UNJ70JKB6RMCJRXVU,3Q8GYXHFETIJNLV30FAMIF80RIRC58,8,7
184,3,object_05,object_10,387.00500002597,5,2,415.00000003725,0.7777777777777778,1,object_07,1,2395,0,7,2,library_7,2,memory-2step-stake-s,673,2790891,0.0-19.0-0.1-0.184,A3EA4SHCLJ1UZQ,39O6Z4JLY5DL2UNJ70JKB6RMCJRXVU,3Q8GYXHFETIJNLV30FAMIF80RIRC58,6,5
185,1,object_09,object_08,400.35500004888,1,1,370.08999998216,0.7777777777777778,1,object_07,1,2402,0,7,1,desert_1,2,memory-2step-stake-s,674,2799218,0.0-19.0-0.1-0.185,A3EA4SHCLJ1UZQ,39O6Z4JLY5DL2UNJ70JKB6RMCJRXVU,3Q8GYXHFETIJNLV30FAMIF80RIRC58,1,2
186,1,object_09,object_08,310.23000000278,2,2,671.26500001177,0.2222222222222222,2,object_03,5,2412,0,7,2,desert_7,2,memory-2step-stake-s,675,2807328,0.0-19.0-0.1-0.186,A3EA4SHCLJ1UZQ,39O6Z4JLY5DL2UNJ70JKB6RMCJRXVU,3Q8GYXHFETIJNLV30FAMIF80RIRC58,1,2
187,2,object_06,object_02,351.55999998096,4,1,347.88999997545,0.2222222222222222,2,object_03,5,2422,0,9,2,forest_4,2,memory-2step-stake-s,676,2815104,0.0-19.0-0.1-0.187,A3EA4SHCLJ1UZQ,39O6Z4JLY5DL2UNJ70JKB6RMCJRXVU,3Q8GYXHFETIJNLV30FAMIF80RIRC58,4,3
188,4,object_01,object_04,481.02000000654,8,2,649.47000000393,0.4444444444444444,2,object_03,1,2426,0,8,4,restaurant_1,2,memory-2step-stake-s,677,2823391,0.0-19.0-0.1-0.188,A3EA4SHCLJ1UZQ,39O6Z4JLY5DL2UNJ70JKB6RMCJRXVU,3Q8GYXHFETIJNLV30FAMIF80RIRC58,7,8
189,1,object_09,object_08,352.58000000613,2,2,482.53999999724,0.1111111111111111,2,object_03,5,2431,0,7,1,desert_1,2,memory-2step-stake-s,678,2831208,0.0-19.0-0.1-0.189,A3EA4SHCLJ1UZQ,39O6Z4JLY5DL2UNJ70JKB6RMCJRXVU,3Q8GYXHFETIJNLV30FAMIF80RIRC58,1,2
190,2,object_06,object_02,417.40999999456,4,1,435.63500000164,0.1111111111111111,2,object_03,5,2436,0,9,1,forest_8,2,memory-2step-stake-s,679,2838973,0.0-19.0-0.1-0.190,A3EA4SHCLJ1UZQ,39O6Z4JLY5DL2UNJ70JKB6RMCJRXVU,3Q8GYXHFETIJNLV30FAMIF80RIRC58,4,3
191,3,object_05,object_10,1159.6999999601,5,2,918.9400000032,0.8888888888888888,1,object_07,1,2444,0,8,1,library_6,2,memory-2step-stake-s,680,2847927,0.0-19.0-0.1-0.191,A3EA4SHCLJ1UZQ,39O6Z4JLY5DL2UNJ70JKB6RMCJRXVU,3Q8GYXHFETIJNLV30FAMIF80RIRC58,6,5
192,1,object_08,object_09,359.96499995235,1,2,377.05000001006,0.4444444444444444,1,object_07,5,2464,0,4,1,desert_6,2,memory-2step-stake-s,681,2855947,0.0-19.0-0.1-0.192,A3EA4SHCLJ1UZQ,39O6Z4JLY5DL2UNJ70JKB6RMCJRXVU,3Q8GYXHFETIJNLV30FAMIF80RIRC58,2,1
193,1,object_08,object_09,424.50499994447,1,2,395.66499995999,0.4444444444444444,1,object_07,1,2468,0,4,1,desert_7,2,memory-2step-stake-s,682,2863968,0.0-19.0-0.1-0.193,A3EA4SHCLJ1UZQ,39O6Z4JLY5DL2UNJ70JKB6RMCJRXVU,3Q8GYXHFETIJNLV30FAMIF80RIRC58,2,1
194,2,object_06,object_02,438.1599999615,3,2,416.77000001073,0.3333333333333333,1,object_07,5,2483,0,3,4,forest_4,2,memory-2step-stake-s,683,2871928,0.0-19.0-0.1-0.194,A3EA4SHCLJ1UZQ,39O6Z4JLY5DL2UNJ70JKB6RMCJRXVU,3Q8GYXHFETIJNLV30FAMIF80RIRC58,4,3
195,1,object_08,object_09,507.02999997884,1,2,330.06000000751,0.2222222222222222,1,object_07,5,2493,0,2,5,desert_1,2,memory-2step-stake-s,684,2879689,0.0-19.0-0.1-0.195,A3EA4SHCLJ1UZQ,39O6Z4JLY5DL2UNJ70JKB6RMCJRXVU,3Q8GYXHFETIJNLV30FAMIF80RIRC58,2,1
196,2,object_06,object_02,815.79000002239,3,2,496.70499999775,0.0,1,object_07,5,2493,0,0,4,forest_2,2,memory-2step-stake-s,685,2887414,0.0-19.0-0.1-0.196,A3EA4SHCLJ1UZQ,39O6Z4JLY5DL2UNJ70JKB6RMCJRXVU,3Q8GYXHFETIJNLV30FAMIF80RIRC58,4,3
197,1,object_09,object_08,658.09499996249,1,1,397.76999998139,0.0,1,object_07,5,2493,0,0,6,desert_4,2,memory-2step-stake-s,686,2895040,0.0-19.0-0.1-0.197,A3EA4SHCLJ1UZQ,39O6Z4JLY5DL2UNJ70JKB6RMCJRXVU,3Q8GYXHFETIJNLV30FAMIF80RIRC58,1,2
198,3,object_05,object_10,881.47000002209,6,1,445.18999999855,0.8888888888888888,2,object_03,1,2501,0,1,8,library_3,2,memory-2step-stake-s,687,2903542,0.0-19.0-0.1-0.198,A3EA4SHCLJ1UZQ,39O6Z4JLY5DL2UNJ70JKB6RMCJRXVU,3Q8GYXHFETIJNLV30FAMIF80RIRC58,6,5
199,4,object_04,object_01,904.29999999469,8,1,372.55500000902,0.8888888888888888,2,object_03,5,2541,0,0,8,restaurant_8,2,memory-2step-stake-s,688,2911967,0.0-19.0-0.1-0.199,A3EA4SHCLJ1UZQ,39O6Z4JLY5DL2UNJ70JKB6RMCJRXVU,3Q8GYXHFETIJNLV30FAMIF80RIRC58,8,7
200,2,object_06,object_02,407.81000000425,3,2,343.05999998469,0.1111111111111111,1,object_07,5,2546,0,1,5,forest_2,2,memory-2step-stake-s,689,2919648,0.0-19.0-0.1-0.200,A3EA4SHCLJ1UZQ,39O6Z4JLY5DL2UNJ70JKB6RMCJRXVU,3Q8GYXHFETIJNLV30FAMIF80RIRC58,4,3
201,3,object_05,object_10,390.37500001723,6,1,432.86500003887,0.5555555555555556,2,object_03,1,2551,0,1,5,library_7,2,memory-2step-stake-s,690,2927817,0.0-19.0-0.1-0.201,A3EA4SHCLJ1UZQ,39O6Z4JLY5DL2UNJ70JKB6RMCJRXVU,3Q8GYXHFETIJNLV30FAMIF80RIRC58,6,5
202,4,object_04,object_01,374.42000000738,7,2,431.31499999436,0.2222222222222222,1,object_07,1,2553,0,2,6,restaurant_8,2,memory-2step-stake-s,691,2935682,0.0-19.0-0.1-0.202,A3EA4SHCLJ1UZQ,39O6Z4JLY5DL2UNJ70JKB6RMCJRXVU,3Q8GYXHFETIJNLV30FAMIF80RIRC58,8,7
203,4,object_04,object_01,348.67000003578,8,1,438.63499996951,0.7777777777777778,2,object_03,1,2560,0,2,7,restaurant_1,2,memory-2step-stake-s,692,2944072,0.0-19.0-0.1-0.203,A3EA4SHCLJ1UZQ,39O6Z4JLY5DL2UNJ70JKB6RMCJRXVU,3Q8GYXHFETIJNLV30FAMIF80RIRC58,8,7
204,3,object_10,object_05,409.2149999924,6,2,425.86499999743,0.7777777777777778,2,object_03,5,2595,0,0,7,library_6,2,memory-2step-stake-s,693,2952447,0.0-19.0-0.1-0.204,A3EA4SHCLJ1UZQ,39O6Z4JLY5DL2UNJ70JKB6RMCJRXVU,3Q8GYXHFETIJNLV30FAMIF80RIRC58,5,6
205,1,object_09,object_08,398.04500003811,1,1,587.20000000903,0.2222222222222222,1,object_07,5,2605,0,2,7,desert_7,2,memory-2step-stake-s,694,2960465,0.0-19.0-0.1-0.205,A3EA4SHCLJ1UZQ,39O6Z4JLY5DL2UNJ70JKB6RMCJRXVU,3Q8GYXHFETIJNLV30FAMIF80RIRC58,1,2
206,1,object_08,object_09,335.98500001244,1,2,410.78999999445,0.4444444444444444,1,object_07,5,2625,0,4,7,desert_6,2,memory-2step-stake-s,695,2968510,0.0-19.0-0.1-0.206,A3EA4SHCLJ1UZQ,39O6Z4JLY5DL2UNJ70JKB6RMCJRXVU,3Q8GYXHFETIJNLV30FAMIF80RIRC58,2,1
207,4,object_01,object_04,722.59999997914,7,1,531.20999998646,0.4444444444444444,1,object_07,1,2629,0,4,7,restaurant_4,2,memory-2step-stake-s,696,2976683,0.0-19.0-0.1-0.207,A3EA4SHCLJ1UZQ,39O6Z4JLY5DL2UNJ70JKB6RMCJRXVU,3Q8GYXHFETIJNLV30FAMIF80RIRC58,7,8
208,2,object_06,object_02,340.20500001498,3,2,454.23500001198,0.4444444444444444,1,object_07,5,2649,0,4,7,forest_7,2,memory-2step-stake-s,697,2984780,0.0-19.0-0.1-0.208,A3EA4SHCLJ1UZQ,39O6Z4JLY5DL2UNJ70JKB6RMCJRXVU,3Q8GYXHFETIJNLV30FAMIF80RIRC58,4,3
209,1,object_08,object_09,553.95999999018,2,1,380.55999996141,0.7777777777777778,2,object_03,5,2684,0,5,7,desert_1,2,memory-2step-stake-s,698,2993106,0.0-19.0-0.1-0.209,A3EA4SHCLJ1UZQ,39O6Z4JLY5DL2UNJ70JKB6RMCJRXVU,3Q8GYXHFETIJNLV30FAMIF80RIRC58,2,1
210,2,object_06,object_02,437.15999997221,3,2,409.07500003232,0.6666666666666666,1,object_07,1,2690,0,6,7,forest_8,2,memory-2step-stake-s,699,3001362,0.0-19.0-0.1-0.210,A3EA4SHCLJ1UZQ,39O6Z4JLY5DL2UNJ70JKB6RMCJRXVU,3Q8GYXHFETIJNLV30FAMIF80RIRC58,4,3
211,1,object_09,object_08,359.36500004027,1,1,426.28000001423,0.5555555555555556,1,object_07,1,2695,0,5,8,desert_1,2,memory-2step-stake-s,700,3009523,0.0-19.0-0.1-0.211,A3EA4SHCLJ1UZQ,39O6Z4JLY5DL2UNJ70JKB6RMCJRXVU,3Q8GYXHFETIJNLV30FAMIF80RIRC58,1,2
212,3,object_10,object_05,405.06999997888,6,2,496.30500003695,0.8888888888888888,2,object_03,1,2703,0,5,8,library_4,2,memory-2step-stake-s,701,3018073,0.0-19.0-0.1-0.212,A3EA4SHCLJ1UZQ,39O6Z4JLY5DL2UNJ70JKB6RMCJRXVU,3Q8GYXHFETIJNLV30FAMIF80RIRC58,5,6
213,1,object_09,object_08,317.22500000615,1,1,423.11000003247,0.4444444444444444,1,object_07,5,2723,0,4,8,desert_6,2,memory-2step-stake-s,702,3026142,0.0-19.0-0.1-0.213,A3EA4SHCLJ1UZQ,39O6Z4JLY5DL2UNJ70JKB6RMCJRXVU,3Q8GYXHFETIJNLV30FAMIF80RIRC58,1,2
214,4,object_04,object_01,449.56999999704,7,2,370.87499996414,0.1111111111111111,1,object_07,1,2724,0,1,8,restaurant_3,2,memory-2step-stake-s,703,3033834,0.0-19.0-0.1-0.214,A3EA4SHCLJ1UZQ,39O6Z4JLY5DL2UNJ70JKB6RMCJRXVU,3Q8GYXHFETIJNLV30FAMIF80RIRC58,8,7
215,4,object_01,object_04,269.58500000183,7,1,366.73000000883,0.0,1,object_07,1,2724,0,0,7,restaurant_4,2,memory-2step-stake-s,704,3041429,0.0-19.0-0.1-0.215,A3EA4SHCLJ1UZQ,39O6Z4JLY5DL2UNJ70JKB6RMCJRXVU,3Q8GYXHFETIJNLV30FAMIF80RIRC58,7,8
216,1,object_08,object_09,285.16999998828,1,2,352.63500001747,0.1111111111111111,1,object_07,5,2729,0,1,8,desert_4,2,memory-2step-stake-s,705,3049112,0.0-19.0-0.1-0.216,A3EA4SHCLJ1UZQ,39O6Z4JLY5DL2UNJ70JKB6RMCJRXVU,3Q8GYXHFETIJNLV30FAMIF80RIRC58,2,1
217,3,object_05,object_10,354.67500000959,6,1,1034.7000000183,0.6666666666666666,2,object_03,1,2735,0,1,6,library_3,2,memory-2step-stake-s,706,3057998,0.0-19.0-0.1-0.217,A3EA4SHCLJ1UZQ,39O6Z4JLY5DL2UNJ70JKB6RMCJRXVU,3Q8GYXHFETIJNLV30FAMIF80RIRC58,6,5
218,4,object_01,object_04,505.86500001373,8,2,457.12999999523,0.7777777777777778,2,object_03,5,2770,0,2,7,restaurant_8,2,memory-2step-stake-s,707,3066414,0.0-19.0-0.1-0.218,A3EA4SHCLJ1UZQ,39O6Z4JLY5DL2UNJ70JKB6RMCJRXVU,3Q8GYXHFETIJNLV30FAMIF80RIRC58,7,8
219,4,object_04,object_01,517.8850000375,8,1,456.88000001246,0.5555555555555556,2,object_03,1,2775,0,4,5,restaurant_1,2,memory-2step-stake-s,708,3074615,0.0-19.0-0.1-0.219,A3EA4SHCLJ1UZQ,39O6Z4JLY5DL2UNJ70JKB6RMCJRXVU,3Q8GYXHFETIJNLV30FAMIF80RIRC58,8,7
220,3,object_10,object_05,258.65999999223,6,2,461.11000003293,0.7777777777777778,2,object_03,5,2810,0,4,7,library_6,2,memory-2step-stake-s,709,3083031,0.0-19.0-0.1-0.220,A3EA4SHCLJ1UZQ,39O6Z4JLY5DL2UNJ70JKB6RMCJRXVU,3Q8GYXHFETIJNLV30FAMIF80RIRC58,5,6
221,4,object_01,object_04,304.01500000153,7,1,419.10999995889,0.3333333333333333,1,object_07,1,2813,0,3,5,restaurant_4,2,memory-2step-stake-s,710,3090986,0.0-19.0-0.1-0.221,A3EA4SHCLJ1UZQ,39O6Z4JLY5DL2UNJ70JKB6RMCJRXVU,3Q8GYXHFETIJNLV30FAMIF80RIRC58,7,8
222,2,object_06,object_02,463.56499998365,3,2,456.06999995653,0.2222222222222222,1,object_07,5,2823,0,2,7,forest_7,2,memory-2step-stake-s,711,3098873,0.0-19.0-0.1-0.222,A3EA4SHCLJ1UZQ,39O6Z4JLY5DL2UNJ70JKB6RMCJRXVU,3Q8GYXHFETIJNLV30FAMIF80RIRC58,4,3
223,3,object_05,object_10,310.30499999179,6,1,453.21999996668,0.7777777777777778,2,object_03,5,2858,0,5,7,library_6,2,memory-2step-stake-s,712,3107279,0.0-19.0-0.1-0.223,A3EA4SHCLJ1UZQ,39O6Z4JLY5DL2UNJ70JKB6RMCJRXVU,3Q8GYXHFETIJNLV30FAMIF80RIRC58,6,5
224,2,object_02,object_06,343.02000002936,4,2,434.97499998193,0.8888888888888888,2,object_03,5,2898,0,4,8,forest_4,2,memory-2step-stake-s,713,3115759,0.0-19.0-0.1-0.224,A3EA4SHCLJ1UZQ,39O6Z4JLY5DL2UNJ70JKB6RMCJRXVU,3Q8GYXHFETIJNLV30FAMIF80RIRC58,3,4
225,1,object_08,object_09,313.89499997022,2,1,408.19500002544,0.7777777777777778,2,object_03,5,2933,0,5,7,desert_1,2,memory-2step-stake-s,714,3124115,0.0-19.0-0.1-0.225,A3EA4SHCLJ1UZQ,39O6Z4JLY5DL2UNJ70JKB6RMCJRXVU,3Q8GYXHFETIJNLV30FAMIF80RIRC58,2,1
226,2,object_06,object_02,447.06999999471,3,2,371.29999999888,0.3333333333333333,1,object_07,5,2948,0,3,6,forest_2,2,memory-2step-stake-s,715,3132018,0.0-19.0-0.1-0.226,A3EA4SHCLJ1UZQ,39O6Z4JLY5DL2UNJ70JKB6RMCJRXVU,3Q8GYXHFETIJNLV30FAMIF80RIRC58,4,3
227,1,object_09,object_08,388.89499998186,1,1,367.53499996848,0.3333333333333333,1,object_07,5,2963,0,3,7,desert_7,2,memory-2step-stake-s,716,3139923,0.0-19.0-0.1-0.227,A3EA4SHCLJ1UZQ,39O6Z4JLY5DL2UNJ70JKB6RMCJRXVU,3Q8GYXHFETIJNLV30FAMIF80RIRC58,1,2
228,4,object_04,object_01,599.14500004379,7,2,424.01499999687,0.1111111111111111,1,object_07,1,2964,0,1,6,restaurant_3,2,memory-2step-stake-s,717,3147678,0.0-19.0-0.1-0.228,A3EA4SHCLJ1UZQ,39O6Z4JLY5DL2UNJ70JKB6RMCJRXVU,3Q8GYXHFETIJNLV30FAMIF80RIRC58,8,7
229,4,object_01,object_04,917.33500000555,7,1,359.93999999482,0.2222222222222222,1,object_07,5,2974,0,2,5,restaurant_1,2,memory-2step-stake-s,718,3155478,0.0-19.0-0.1-0.229,A3EA4SHCLJ1UZQ,39O6Z4JLY5DL2UNJ70JKB6RMCJRXVU,3Q8GYXHFETIJNLV30FAMIF80RIRC58,7,8
230,1,object_09,object_08,842.44999999646,2,2,409.35999999056,0.6666666666666666,2,object_03,5,3004,0,6,6,desert_4,2,memory-2step-stake-s,719,3163743,0.0-19.0-0.1-0.230,A3EA4SHCLJ1UZQ,39O6Z4JLY5DL2UNJ70JKB6RMCJRXVU,3Q8GYXHFETIJNLV30FAMIF80RIRC58,1,2
231,1,object_08,object_09,768.47000000998,1,2,319.51000000117,0.7777777777777778,1,object_07,5,3039,0,7,8,desert_4,2,memory-2step-stake-s,720,3172017,0.0-19.0-0.1-0.231,A3EA4SHCLJ1UZQ,39O6Z4JLY5DL2UNJ70JKB6RMCJRXVU,3Q8GYXHFETIJNLV30FAMIF80RIRC58,2,1
232,2,object_06,object_02,842.20000001369,4,1,406.03999997256,0.6666666666666666,2,object_03,5,3069,0,5,6,forest_2,2,memory-2step-stake-s,721,3180259,0.0-19.0-0.1-0.232,A3EA4SHCLJ1UZQ,39O6Z4JLY5DL2UNJ70JKB6RMCJRXVU,3Q8GYXHFETIJNLV30FAMIF80RIRC58,4,3
233,1,object_08,object_09,395.55000001565,1,2,453.38500000071,0.6666666666666666,1,object_07,5,3099,0,6,5,desert_7,2,memory-2step-stake-s,722,3188563,0.0-19.0-0.1-0.233,A3EA4SHCLJ1UZQ,39O6Z4JLY5DL2UNJ70JKB6RMCJRXVU,3Q8GYXHFETIJNLV30FAMIF80RIRC58,2,1
234,4,object_01,object_04,268.65500002168,8,2,373.62500000745,0.5555555555555556,2,object_03,5,3124,0,2,5,restaurant_4,2,memory-2step-stake-s,723,3196681,0.0-19.0-0.1-0.234,A3EA4SHCLJ1UZQ,39O6Z4JLY5DL2UNJ70JKB6RMCJRXVU,3Q8GYXHFETIJNLV30FAMIF80RIRC58,7,8
235,4,object_01,object_04,324.7899999842,7,1,414.27999996813,0.1111111111111111,1,object_07,5,3129,0,1,3,restaurant_3,2,memory-2step-stake-s,724,3204418,0.0-19.0-0.1-0.235,A3EA4SHCLJ1UZQ,39O6Z4JLY5DL2UNJ70JKB6RMCJRXVU,3Q8GYXHFETIJNLV30FAMIF80RIRC58,7,8
236,3,object_10,object_05,117.83000000287,6,2,326.92999998108,0.2222222222222222,2,object_03,1,3131,0,2,2,library_4,2,memory-2step-stake-s,725,3212177,0.0-19.0-0.1-0.236,A3EA4SHCLJ1UZQ,39O6Z4JLY5DL2UNJ70JKB6RMCJRXVU,3Q8GYXHFETIJNLV30FAMIF80RIRC58,5,6
237,3,object_10,object_05,456.63999998942,5,1,1403.0299999868,0.0,1,object_07,1,3131,0,0,7,library_4,2,memory-2step-stake-s,726,3220799,0.0-19.0-0.1-0.237,A3EA4SHCLJ1UZQ,39O6Z4JLY5DL2UNJ70JKB6RMCJRXVU,3Q8GYXHFETIJNLV30FAMIF80RIRC58,5,6
238,4,object_01,object_04,900.93000000343,8,2,351.84000001755,0.5555555555555556,2,object_03,1,3136,0,0,5,restaurant_3,2,memory-2step-stake-s,727,3228893,0.0-19.0-0.1-0.238,A3EA4SHCLJ1UZQ,39O6Z4JLY5DL2UNJ70JKB6RMCJRXVU,3Q8GYXHFETIJNLV30FAMIF80RIRC58,7,8
239,4,object_04,object_01,1015.1400000323,8,1,482.37500002142,0.5555555555555556,2,object_03,1,3141,0,2,5,restaurant_4,2,memory-2step-stake-s,728,3237110,0.0-19.0-0.1-0.239,A3EA4SHCLJ1UZQ,39O6Z4JLY5DL2UNJ70JKB6RMCJRXVU,3Q8GYXHFETIJNLV30FAMIF80RIRC58,8,7
240,3,object_05,object_10,754.76000003982,6,1,626.88499997603,0.2222222222222222,2,object_03,1,3143,0,3,2,library_4,2,memory-2step-stake-s,729,3245171,0.0-19.0-0.1-0.240,A3EA4SHCLJ1UZQ,39O6Z4JLY5DL2UNJ70JKB6RMCJRXVU,3Q8GYXHFETIJNLV30FAMIF80RIRC58,6,5
241,2,object_06,object_02,357.00000001816,3,2,509.28999995813,0.5555555555555556,1,object_07,5,3168,0,5,3,forest_2,2,memory-2step-stake-s,730,3253418,0.0-19.0-0.1-0.241,A3EA4SHCLJ1UZQ,39O6Z4JLY5DL2UNJ70JKB6RMCJRXVU,3Q8GYXHFETIJNLV30FAMIF80RIRC58,4,3
242,4,object_04,object_01,358.63500001142,7,2,302.61499999324,0.6666666666666666,1,object_07,5,3198,0,6,5,restaurant_3,2,memory-2step-stake-s,731,3261559,0.0-19.0-0.1-0.242,A3EA4SHCLJ1UZQ,39O6Z4JLY5DL2UNJ70JKB6RMCJRXVU,3Q8GYXHFETIJNLV30FAMIF80RIRC58,8,7
243,3,object_10,object_05,433.58499999158,5,1,358.2850000239,0.6666666666666666,1,object_07,1,3204,0,6,8,library_7,2,memory-2step-stake-s,732,3269758,0.0-19.0-0.1-0.243,A3EA4SHCLJ1UZQ,39O6Z4JLY5DL2UNJ70JKB6RMCJRXVU,3Q8GYXHFETIJNLV30FAMIF80RIRC58,5,6
244,3,object_10,object_05,402.00500003994,6,2,390.29499999015,0.6666666666666666,2,object_03,1,3210,0,5,6,library_7,2,memory-2step-stake-s,733,3277998,0.0-19.0-0.1-0.244,A3EA4SHCLJ1UZQ,39O6Z4JLY5DL2UNJ70JKB6RMCJRXVU,3Q8GYXHFETIJNLV30FAMIF80RIRC58,5,6
245,2,object_06,object_02,553.46500000451,3,2,386.27499999711,0.4444444444444444,1,object_07,5,3230,0,4,7,forest_4,2,memory-2step-stake-s,734,3286031,0.0-19.0-0.1-0.245,A3EA4SHCLJ1UZQ,39O6Z4JLY5DL2UNJ70JKB6RMCJRXVU,3Q8GYXHFETIJNLV30FAMIF80RIRC58,4,3
246,3,object_10,object_05,423.46999997972,5,1,474.17999996105,0.3333333333333333,1,object_07,1,3233,0,3,6,library_3,2,memory-2step-stake-s,735,3294043,0.0-19.0-0.1-0.246,A3EA4SHCLJ1UZQ,39O6Z4JLY5DL2UNJ70JKB6RMCJRXVU,3Q8GYXHFETIJNLV30FAMIF80RIRC58,5,6
247,4,object_01,object_04,388.89000000199,8,2,339.45999998832,0.3333333333333333,2,object_03,5,3248,0,3,3,restaurant_4,2,memory-2step-stake-s,736,3301927,0.0-19.0-0.1-0.247,A3EA4SHCLJ1UZQ,39O6Z4JLY5DL2UNJ70JKB6RMCJRXVU,3Q8GYXHFETIJNLV30FAMIF80RIRC58,7,8
248,4,object_04,object_01,529.37999996357,8,1,400.48499999102,0.3333333333333333,2,object_03,1,3251,0,3,3,restaurant_3,2,memory-2step-stake-s,737,3309863,0.0-19.0-0.1-0.248,A3EA4SHCLJ1UZQ,39O6Z4JLY5DL2UNJ70JKB6RMCJRXVU,3Q8GYXHFETIJNLV30FAMIF80RIRC58,8,7
249,3,object_05,object_10,472.91999997105,5,2,871.94500002079,0.5555555555555556,1,object_07,1,3256,0,5,4,library_3,2,memory-2step-stake-s,738,3318482,0.0-19.0-0.1-0.249,A3EA4SHCLJ1UZQ,39O6Z4JLY5DL2UNJ70JKB6RMCJRXVU,3Q8GYXHFETIJNLV30FAMIF80RIRC58,6,5
250,1,object_08,object_09,274.64499999769,2,1,380.72000001557,0.5555555555555556,2,object_03,5,3281,0,7,5,desert_6,2,memory-2step-stake-s,739,3326598,0.0-19.0-0.1-0.250,A3EA4SHCLJ1UZQ,39O6Z4JLY5DL2UNJ70JKB6RMCJRXVU,3Q8GYXHFETIJNLV30FAMIF80RIRC58,2,1
251,4,object_01,object_04,394.6349999751,8,2,434.30000002263,0.5555555555555556,2,object_03,5,3306,0,7,5,restaurant_1,2,memory-2step-stake-s,740,3334776,0.0-19.0-0.1-0.251,A3EA4SHCLJ1UZQ,39O6Z4JLY5DL2UNJ70JKB6RMCJRXVU,3Q8GYXHFETIJNLV30FAMIF80RIRC58,7,8
252,4,object_04,object_01,348.14999997616,8,1,325.8349999669,0.4444444444444444,2,object_03,1,3310,0,6,4,restaurant_8,2,memory-2step-stake-s,741,3342748,0.0-19.0-0.1-0.252,A3EA4SHCLJ1UZQ,39O6Z4JLY5DL2UNJ70JKB6RMCJRXVU,3Q8GYXHFETIJNLV30FAMIF80RIRC58,8,7
253,4,object_04,object_01,316.56000000658,7,2,422.96000005445,0.3333333333333333,1,object_07,1,3313,0,3,2,restaurant_1,2,memory-2step-stake-s,742,3350710,0.0-19.0-0.1-0.253,A3EA4SHCLJ1UZQ,39O6Z4JLY5DL2UNJ70JKB6RMCJRXVU,3Q8GYXHFETIJNLV30FAMIF80RIRC58,8,7
254,2,object_06,object_02,483.01500000525,4,1,319.66999999713,0.2222222222222222,2,object_03,1,3315,0,4,2,forest_8,2,memory-2step-stake-s,743,3358462,0.0-19.0-0.1-0.254,A3EA4SHCLJ1UZQ,39O6Z4JLY5DL2UNJ70JKB6RMCJRXVU,3Q8GYXHFETIJNLV30FAMIF80RIRC58,4,3
255,4,object_01,object_04,376.15499994718,8,2,348.76999998232,0.4444444444444444,2,object_03,1,3319,0,3,4,restaurant_8,2,memory-2step-stake-s,744,3366452,0.0-19.0-0.1-0.255,A3EA4SHCLJ1UZQ,39O6Z4JLY5DL2UNJ70JKB6RMCJRXVU,3Q8GYXHFETIJNLV30FAMIF80RIRC58,7,8
