,state1,stim_left,stim_right,rt_1,choice1,response1,rt_2,points,state2,stim_state2,stake,score,practice,rews1,rews2,background,high_arm,trial_type,trial_index,time_elapsed,internal_node_id,subid,hitid,assignmentid,stim_left_num,stim_right_num
0,1,object_02,object_08,912.84500000079,1,1,-1.0,0.0,1,object_01,5,0,0,7,1,desert_6,2,memory-2step-stake-s,493,846698,0.0-19.0-0.0-0.0,A3P5P5LGJGB6HD,30UZJB2PPKSSO21QHKUJ0S8JS3B35M,3F0BG9B9MT3BDSARK078DQEFMM17Y8,1,2
1,1,object_08,object_02,616.505,1,2,368.22999999998,0.4444444444444444,1,object_01,5,20,0,4,2,desert_5,2,memory-2step-stake-s,494,854736,0.0-19.0-0.0-0.1,A3P5P5LGJGB6HD,30UZJB2PPKSSO21QHKUJ0S8JS3B35M,3F0BG9B9MT3BDSARK078DQEFMM17Y8,2,1
2,2,object_05,object_10,433.02500000026,3,1,360.16500000004,0.3333333333333333,1,object_01,5,35,0,3,3,forest_2,2,memory-2step-stake-s,495,862648,0.0-19.0-0.0-0.2,A3P5P5LGJGB6HD,30UZJB2PPKSSO21QHKUJ0S8JS3B35M,3F0BG9B9MT3BDSARK078DQEFMM17Y8,3,4
3,4,object_09,object_07,478.81000000052,8,2,420.19999999949,0.4444444444444444,2,object_03,5,55,0,2,4,restaurant_6,2,memory-2step-stake-s,496,870727,0.0-19.0-0.0-0.3,A3P5P5LGJGB6HD,30UZJB2PPKSSO21QHKUJ0S8JS3B35M,3F0BG9B9MT3BDSARK078DQEFMM17Y8,7,8
4,2,object_10,object_05,263.12500000035,3,2,332.7649999992,0.3333333333333333,1,object_01,5,70,0,3,8,forest_2,2,memory-2step-stake-s,497,878608,0.0-19.0-0.0-0.4,A3P5P5LGJGB6HD,30UZJB2PPKSSO21QHKUJ0S8JS3B35M,3F0BG9B9MT3BDSARK078DQEFMM17Y8,4,3
5,2,object_10,object_05,573.70999999973,4,1,455.78000000026,0.4444444444444444,2,object_03,5,90,0,3,4,forest_5,2,memory-2step-stake-s,498,886731,0.0-19.0-0.0-0.5,A3P5P5LGJGB6HD,30UZJB2PPKSSO21QHKUJ0S8JS3B35M,3F0BG9B9MT3BDSARK078DQEFMM17Y8,4,3
6,2,object_05,object_10,310.27999999968,4,2,329.67499999993,0.3333333333333333,2,object_03,5,105,0,2,3,forest_5,2,memory-2step-stake-s,499,894614,0.0-19.0-0.0-0.6,A3P5P5LGJGB6HD,30UZJB2PPKSSO21QHKUJ0S8JS3B35M,3F0BG9B9MT3BDSARK078DQEFMM17Y8,3,4
7,2,object_10,object_05,423.37500000023,3,2,317.97000000009,0.2222222222222222,1,object_01,5,115,0,2,6,forest_5,2,memory-2step-stake-s,500,902379,0.0-19.0-0.0-0.7,A3P5P5LGJGB6HD,30UZJB2PPKSSO21QHKUJ0S8JS3B35M,3F0BG9B9MT3BDSARK078DQEFMM17Y8,4,3
8,2,object_10,object_05,424.38500000024,4,1,263.10000000009,0.8888888888888888,2,object_03,5,155,0,1,8,forest_5,2,memory-2step-stake-s,501,910706,0.0-19.0-0.0-0.8,A3P5P5LGJGB6HD,30UZJB2PPKSSO21QHKUJ0S8JS3B35M,3F0BG9B9MT3BDSARK078DQEFMM17Y8,4,3
9,4,object_07,object_09,398.11999999976,8,1,406.9150000005,0.8888888888888888,2,object_03,1,163,0,2,8,restaurant_8,2,memory-2step-stake-s,502,919189,0.0-19.0-0.0-0.9,A3P5P5LGJGB6HD,30UZJB2PPKSSO21QHKUJ0S8JS3B35M,3F0BG9B9MT3BDSARK078DQEFMM17Y8,8,7
10,1,object_08,object_02,869.91500000027,2,1,346.75500000059,0.6666666666666666,2,object_03,1,169,0,1,6,desert_5,2,memory-2step-stake-s,503,927400,0.0-19.0-0.0-0.10,A3P5P5LGJGB6HD,30UZJB2PPKSSO21QHKUJ0S8JS3B35M,3F0BG9B9MT3BDSARK078DQEFMM17Y8,2,1
11,1,object_08,object_02,436.8450000002,1,2,374.28499999992,0.1111111111111111,1,object_01,5,174,0,1,7,desert_1,2,memory-2step-stake-s,504,935114,0.0-19.0-0.0-0.11,A3P5P5LGJGB6HD,30UZJB2PPKSSO21QHKUJ0S8JS3B35M,3F0BG9B9MT3BDSARK078DQEFMM17Y8,2,1
12,3,object_04,object_06,1079.3649999996,6,1,397.57999999984,0.6666666666666666,2,object_03,1,180,0,1,6,library_5,2,memory-2step-stake-s,505,943373,0.0-19.0-0.0-0.12,A3P5P5LGJGB6HD,30UZJB2PPKSSO21QHKUJ0S8JS3B35M,3F0BG9B9MT3BDSARK078DQEFMM17Y8,6,5
13,3,object_06,object_04,756.62999999989,5,1,340.34499999962,0.1111111111111111,1,object_01,1,181,0,1,4,library_5,2,memory-2step-stake-s,506,951064,0.0-19.0-0.0-0.13,A3P5P5LGJGB6HD,30UZJB2PPKSSO21QHKUJ0S8JS3B35M,3F0BG9B9MT3BDSARK078DQEFMM17Y8,5,6
14,3,object_04,object_06,675.80499999993,6,1,329.11999999941,0.2222222222222222,2,object_03,1,183,0,1,2,library_8,2,memory-2step-stake-s,507,958843,0.0-19.0-0.0-0.14,A3P5P5LGJGB6HD,30UZJB2PPKSSO21QHKUJ0S8JS3B35M,3F0BG9B9MT3BDSARK078DQEFMM17Y8,6,5
15,2,object_05,object_10,600.5699999996,4,2,251.59499999962,0.2222222222222222,2,object_03,5,193,0,2,2,forest_5,2,memory-2step-stake-s,508,966543,0.0-19.0-0.0-0.15,A3P5P5LGJGB6HD,30UZJB2PPKSSO21QHKUJ0S8JS3B35M,3F0BG9B9MT3BDSARK078DQEFMM17Y8,3,4
16,4,object_09,object_07,1083.3300000004,8,2,333.6399999999,0.1111111111111111,2,object_03,1,194,0,1,1,restaurant_2,2,memory-2step-stake-s,509,974216,0.0-19.0-0.0-0.16,A3P5P5LGJGB6HD,30UZJB2PPKSSO21QHKUJ0S8JS3B35M,3F0BG9B9MT3BDSARK078DQEFMM17Y8,7,8
17,2,object_05,object_10,581.63999999932,4,2,232.05999999947,0.1111111111111111,2,object_03,5,199,0,2,1,forest_6,2,memory-2step-stake-s,510,981780,0.0-19.0-0.0-0.17,A3P5P5LGJGB6HD,30UZJB2PPKSSO21QHKUJ0S8JS3B35M,3F0BG9B9MT3BDSARK078DQEFMM17Y8,3,4
18,2,object_10,object_05,440.1749999997,3,2,233.34499999962,0.4444444444444444,1,object_01,1,203,0,4,1,forest_6,2,memory-2step-stake-s,511,989666,0.0-19.0-0.0-0.18,A3P5P5LGJGB6HD,30UZJB2PPKSSO21QHKUJ0S8JS3B35M,3F0BG9B9MT3BDSARK078DQEFMM17Y8,4,3
19,3,object_04,object_06,796.68499999936,6,1,338.80499999935,0.1111111111111111,2,object_03,1,204,0,3,1,library_8,2,memory-2step-stake-s,512,997344,0.0-19.0-0.0-0.19,A3P5P5LGJGB6HD,30UZJB2PPKSSO21QHKUJ0S8JS3B35M,3F0BG9B9MT3BDSARK078DQEFMM17Y8,6,5
20,3,object_06,object_04,677.8349999995,6,2,288.19999999995,0.0,2,object_03,1,204,0,4,0,library_3,2,memory-2step-stake-s,513,1004878,0.0-19.0-0.0-0.20,A3P5P5LGJGB6HD,30UZJB2PPKSSO21QHKUJ0S8JS3B35M,3F0BG9B9MT3BDSARK078DQEFMM17Y8,5,6
21,4,object_09,object_07,1044.3699999996,7,1,376.38499999954,0.7777777777777778,1,object_01,1,211,0,7,2,restaurant_8,2,memory-2step-stake-s,514,1013221,0.0-19.0-0.0-0.21,A3P5P5LGJGB6HD,30UZJB2PPKSSO21QHKUJ0S8JS3B35M,3F0BG9B9MT3BDSARK078DQEFMM17Y8,7,8
22,1,object_02,object_08,547.8950000006,2,2,268.755,0.7777777777777778,2,object_03,5,246,0,6,7,desert_8,2,memory-2step-stake-s,515,1021469,0.0-19.0-0.0-0.22,A3P5P5LGJGB6HD,30UZJB2PPKSSO21QHKUJ0S8JS3B35M,3F0BG9B9MT3BDSARK078DQEFMM17Y8,1,2
23,4,object_09,object_07,830.48500000034,7,1,264.91999999958,0.6666666666666666,1,object_01,1,252,0,6,9,restaurant_8,2,memory-2step-stake-s,516,1029596,0.0-19.0-0.0-0.23,A3P5P5LGJGB6HD,30UZJB2PPKSSO21QHKUJ0S8JS3B35M,3F0BG9B9MT3BDSARK078DQEFMM17Y8,7,8
24,2,object_10,object_05,603.85000000033,3,2,252.27999999968,0.7777777777777778,1,object_01,5,287,0,7,7,forest_2,2,memory-2step-stake-s,517,1037818,0.0-19.0-0.0-0.24,A3P5P5LGJGB6HD,30UZJB2PPKSSO21QHKUJ0S8JS3B35M,3F0BG9B9MT3BDSARK078DQEFMM17Y8,4,3
25,1,object_08,object_02,852.61999999965,2,1,298.93499999982,0.6666666666666666,2,object_03,1,293,0,9,6,desert_8,2,memory-2step-stake-s,518,1045981,0.0-19.0-0.0-0.25,A3P5P5LGJGB6HD,30UZJB2PPKSSO21QHKUJ0S8JS3B35M,3F0BG9B9MT3BDSARK078DQEFMM17Y8,2,1
26,4,object_09,object_07,589.53000000026,7,1,339.41500000027,0.8888888888888888,1,object_01,5,333,0,8,9,restaurant_1,2,memory-2step-stake-s,519,1054382,0.0-19.0-0.0-0.26,A3P5P5LGJGB6HD,30UZJB2PPKSSO21QHKUJ0S8JS3B35M,3F0BG9B9MT3BDSARK078DQEFMM17Y8,7,8
27,4,object_09,object_07,563.22999999975,7,1,316.31999999983,0.7777777777777778,1,object_01,1,340,0,7,7,restaurant_8,2,memory-2step-stake-s,520,1062663,0.0-19.0-0.0-0.27,A3P5P5LGJGB6HD,30UZJB2PPKSSO21QHKUJ0S8JS3B35M,3F0BG9B9MT3BDSARK078DQEFMM17Y8,7,8
28,3,object_06,object_04,553.50499999989,6,2,261.57499999949,0.7777777777777778,2,object_03,1,347,0,9,7,library_3,2,memory-2step-stake-s,521,1070870,0.0-19.0-0.0-0.28,A3P5P5LGJGB6HD,30UZJB2PPKSSO21QHKUJ0S8JS3B35M,3F0BG9B9MT3BDSARK078DQEFMM17Y8,5,6
29,4,object_09,object_07,482.4049999998,7,1,269.12499999977,0.8888888888888888,1,object_01,1,355,0,8,7,restaurant_2,2,memory-2step-stake-s,522,1079230,0.0-19.0-0.0-0.29,A3P5P5LGJGB6HD,30UZJB2PPKSSO21QHKUJ0S8JS3B35M,3F0BG9B9MT3BDSARK078DQEFMM17Y8,7,8
30,3,object_06,object_04,899.9850000001,5,1,369.41500000027,1.0,1,object_01,1,364,0,9,4,library_6,2,memory-2step-stake-s,523,1087779,0.0-19.0-0.0-0.30,A3P5P5LGJGB6HD,30UZJB2PPKSSO21QHKUJ0S8JS3B35M,3F0BG9B9MT3BDSARK078DQEFMM17Y8,5,6
31,1,object_08,object_02,591.66999999969,2,1,322.91999999946,0.6666666666666666,2,object_03,5,394,0,9,6,desert_6,2,memory-2step-stake-s,524,1095961,0.0-19.0-0.0-0.31,A3P5P5LGJGB6HD,30UZJB2PPKSSO21QHKUJ0S8JS3B35M,3F0BG9B9MT3BDSARK078DQEFMM17Y8,2,1
32,4,object_09,object_07,698.4700000002,7,1,392.9600000002,0.8888888888888888,1,object_01,1,402,0,8,9,restaurant_8,2,memory-2step-stake-s,525,1104430,0.0-19.0-0.0-0.32,A3P5P5LGJGB6HD,30UZJB2PPKSSO21QHKUJ0S8JS3B35M,3F0BG9B9MT3BDSARK078DQEFMM17Y8,7,8
33,4,object_07,object_09,523.70000000042,7,2,300.2649999999,0.8888888888888888,1,object_01,1,410,0,8,8,restaurant_8,2,memory-2step-stake-s,526,1112818,0.0-19.0-0.0-0.33,A3P5P5LGJGB6HD,30UZJB2PPKSSO21QHKUJ0S8JS3B35M,3F0BG9B9MT3BDSARK078DQEFMM17Y8,8,7
34,4,object_09,object_07,548.16999999993,7,1,307.18499999959,1.0,1,object_01,1,419,0,9,4,restaurant_2,2,memory-2step-stake-s,527,1121297,0.0-19.0-0.0-0.34,A3P5P5LGJGB6HD,30UZJB2PPKSSO21QHKUJ0S8JS3B35M,3F0BG9B9MT3BDSARK078DQEFMM17Y8,7,8
35,4,object_07,object_09,490.07499999972,7,2,272.10000000009,0.8888888888888888,1,object_01,1,427,0,8,6,restaurant_6,2,memory-2step-stake-s,528,1129618,0.0-19.0-0.0-0.35,A3P5P5LGJGB6HD,30UZJB2PPKSSO21QHKUJ0S8JS3B35M,3F0BG9B9MT3BDSARK078DQEFMM17Y8,8,7
36,1,object_02,object_08,643.50500000012,2,2,280.87000000058,0.8888888888888888,2,object_03,5,467,0,8,8,desert_1,2,memory-2step-stake-s,529,1137972,0.0-19.0-0.0-0.36,A3P5P5LGJGB6HD,30UZJB2PPKSSO21QHKUJ0S8JS3B35M,3F0BG9B9MT3BDSARK078DQEFMM17Y8,1,2
37,3,object_04,object_06,778.92999999947,6,1,366.54999999981,0.7777777777777778,2,object_03,1,474,0,8,7,library_8,2,memory-2step-stake-s,530,1146293,0.0-19.0-0.0-0.37,A3P5P5LGJGB6HD,30UZJB2PPKSSO21QHKUJ0S8JS3B35M,3F0BG9B9MT3BDSARK078DQEFMM17Y8,6,5
38,1,object_08,object_02,482.74500000011,2,1,239.80000000028,0.6666666666666666,2,object_03,5,504,0,7,6,desert_6,2,memory-2step-stake-s,531,1154401,0.0-19.0-0.0-0.38,A3P5P5LGJGB6HD,30UZJB2PPKSSO21QHKUJ0S8JS3B35M,3F0BG9B9MT3BDSARK078DQEFMM17Y8,2,1
39,4,object_09,object_07,575.92500000005,7,1,350.18500000029,0.8888888888888888,1,object_01,1,512,0,8,4,restaurant_8,2,memory-2step-stake-s,532,1162829,0.0-19.0-0.0-0.39,A3P5P5LGJGB6HD,30UZJB2PPKSSO21QHKUJ0S8JS3B35M,3F0BG9B9MT3BDSARK078DQEFMM17Y8,7,8
40,1,object_08,object_02,741.87000000058,2,1,304.54999999981,0.4444444444444444,2,object_03,1,516,0,7,4,desert_1,2,memory-2step-stake-s,533,1170778,0.0-19.0-0.0-0.40,A3P5P5LGJGB6HD,30UZJB2PPKSSO21QHKUJ0S8JS3B35M,3F0BG9B9MT3BDSARK078DQEFMM17Y8,2,1
41,1,object_08,object_02,439.61000000034,1,2,226.03000000073,0.3333333333333333,1,object_01,1,519,0,3,6,desert_8,2,memory-2step-stake-s,534,1178544,0.0-19.0-0.0-0.41,A3P5P5LGJGB6HD,30UZJB2PPKSSO21QHKUJ0S8JS3B35M,3F0BG9B9MT3BDSARK078DQEFMM17Y8,2,1
42,1,object_02,object_08,454.3450000002,1,1,318.2099999995,0.2222222222222222,1,object_01,5,529,0,2,4,desert_1,2,memory-2step-stake-s,535,1186310,0.0-19.0-0.0-0.42,A3P5P5LGJGB6HD,30UZJB2PPKSSO21QHKUJ0S8JS3B35M,3F0BG9B9MT3BDSARK078DQEFMM17Y8,1,2
43,2,object_05,object_10,602.28499999992,3,1,295.95500000054,0.4444444444444444,1,object_01,5,549,0,4,3,forest_5,2,memory-2step-stake-s,536,1194256,0.0-19.0-0.0-0.43,A3P5P5LGJGB6HD,30UZJB2PPKSSO21QHKUJ0S8JS3B35M,3F0BG9B9MT3BDSARK078DQEFMM17Y8,3,4
44,2,object_05,object_10,436.02000000002,3,1,418.54999999935,0.2222222222222222,1,object_01,5,559,0,2,2,forest_3,2,memory-2step-stake-s,537,1202119,0.0-19.0-0.0-0.44,A3P5P5LGJGB6HD,30UZJB2PPKSSO21QHKUJ0S8JS3B35M,3F0BG9B9MT3BDSARK078DQEFMM17Y8,3,4
45,2,object_10,object_05,639.5149999999,4,1,255.4700000002,0.1111111111111111,2,object_03,1,560,0,6,1,forest_2,2,memory-2step-stake-s,538,1209718,0.0-19.0-0.0-0.45,A3P5P5LGJGB6HD,30UZJB2PPKSSO21QHKUJ0S8JS3B35M,3F0BG9B9MT3BDSARK078DQEFMM17Y8,4,3
46,3,object_06,object_04,885.54500000016,5,1,274.8900000006,0.3333333333333333,1,object_01,5,575,0,3,2,library_3,2,memory-2step-stake-s,539,1217554,0.0-19.0-0.0-0.46,A3P5P5LGJGB6HD,30UZJB2PPKSSO21QHKUJ0S8JS3B35M,3F0BG9B9MT3BDSARK078DQEFMM17Y8,5,6
47,4,object_07,object_09,571.10499999998,7,2,320.52499999898,0.4444444444444444,1,object_01,1,579,0,4,4,restaurant_2,2,memory-2step-stake-s,540,1225521,0.0-19.0-0.0-0.47,A3P5P5LGJGB6HD,30UZJB2PPKSSO21QHKUJ0S8JS3B35M,3F0BG9B9MT3BDSARK078DQEFMM17Y8,8,7
48,4,object_09,object_07,717.54499999946,8,2,281.72499999963,0.5555555555555556,2,object_03,1,584,0,2,5,restaurant_8,2,memory-2step-stake-s,541,1233563,0.0-19.0-0.0-0.48,A3P5P5LGJGB6HD,30UZJB2PPKSSO21QHKUJ0S8JS3B35M,3F0BG9B9MT3BDSARK078DQEFMM17Y8,7,8
49,1,object_08,object_02,761.65500000026,2,1,307.3899999999,0.8888888888888888,2,object_03,5,624,0,2,8,desert_8,2,memory-2step-stake-s,542,1241944,0.0-19.0-0.0-0.49,A3P5P5LGJGB6HD,30UZJB2PPKSSO21QHKUJ0S8JS3B35M,3F0BG9B9MT3BDSARK078DQEFMM17Y8,2,1
50,1,object_08,object_02,553.10499999998,2,1,272.01499999966,0.6666666666666666,2,object_03,5,654,0,2,6,desert_8,2,memory-2step-stake-s,543,1250073,0.0-19.0-0.0-0.50,A3P5P5LGJGB6HD,30UZJB2PPKSSO21QHKUJ0S8JS3B35M,3F0BG9B9MT3BDSARK078DQEFMM17Y8,2,1
51,4,object_07,object_09,890.78499999968,7,2,307.60000000009,0.1111111111111111,1,object_01,1,655,0,1,4,restaurant_1,2,memory-2step-stake-s,544,1257721,0.0-19.0-0.0-0.51,A3P5P5LGJGB6HD,30UZJB2PPKSSO21QHKUJ0S8JS3B35M,3F0BG9B9MT3BDSARK078DQEFMM17Y8,8,7
52,2,object_05,object_10,596.98000000021,3,1,345.04999999981,0.1111111111111111,1,object_01,5,660,0,1,4,forest_6,2,memory-2step-stake-s,545,1265412,0.0-19.0-0.0-0.52,A3P5P5LGJGB6HD,30UZJB2PPKSSO21QHKUJ0S8JS3B35M,3F0BG9B9MT3BDSARK078DQEFMM17Y8,3,4
53,2,object_05,object_10,421.23499999987,3,1,300.55000000075,0.1111111111111111,1,object_01,5,665,0,1,5,forest_2,2,memory-2step-stake-s,546,1273051,0.0-19.0-0.0-0.53,A3P5P5LGJGB6HD,30UZJB2PPKSSO21QHKUJ0S8JS3B35M,3F0BG9B9MT3BDSARK078DQEFMM17Y8,3,4
54,2,object_05,object_10,432.29499999969,3,1,361.15000000061,0.2222222222222222,1,object_01,5,675,0,2,9,forest_6,2,memory-2step-stake-s,547,1280854,0.0-19.0-0.0-0.54,A3P5P5LGJGB6HD,30UZJB2PPKSSO21QHKUJ0S8JS3B35M,3F0BG9B9MT3BDSARK078DQEFMM17Y8,3,4
55,4,object_09,object_07,578.36999999918,8,2,235.11500000046,0.8888888888888888,2,object_03,1,683,0,5,8,restaurant_8,2,memory-2step-stake-s,548,1289156,0.0-19.0-0.0-0.55,A3P5P5LGJGB6HD,30UZJB2PPKSSO21QHKUJ0S8JS3B35M,3F0BG9B9MT3BDSARK078DQEFMM17Y8,7,8
56,2,object_10,object_05,434.30500000063,3,2,231.70500000007,0.8888888888888888,1,object_01,5,723,0,8,5,forest_3,2,memory-2step-stake-s,549,1297460,0.0-19.0-0.0-0.56,A3P5P5LGJGB6HD,30UZJB2PPKSSO21QHKUJ0S8JS3B35M,3F0BG9B9MT3BDSARK078DQEFMM17Y8,4,3
57,2,object_05,object_10,390.53499999945,3,1,265.44499999983,0.5555555555555556,1,object_01,5,748,0,5,4,forest_3,2,memory-2step-stake-s,550,1305477,0.0-19.0-0.0-0.57,A3P5P5LGJGB6HD,30UZJB2PPKSSO21QHKUJ0S8JS3B35M,3F0BG9B9MT3BDSARK078DQEFMM17Y8,3,4
58,4,object_09,object_07,787.44000000018,7,1,296.76000000024,0.6666666666666666,1,object_01,5,778,0,6,4,restaurant_6,2,memory-2step-stake-s,551,1313624,0.0-19.0-0.0-0.58,A3P5P5LGJGB6HD,30UZJB2PPKSSO21QHKUJ0S8JS3B35M,3F0BG9B9MT3BDSARK078DQEFMM17Y8,7,8
59,2,object_10,object_05,389.80999999982,3,2,386.22500000009,0.6666666666666666,1,object_01,1,784,0,6,2,forest_3,2,memory-2step-stake-s,552,1321862,0.0-19.0-0.0-0.59,A3P5P5LGJGB6HD,30UZJB2PPKSSO21QHKUJ0S8JS3B35M,3F0BG9B9MT3BDSARK078DQEFMM17Y8,4,3
60,1,object_08,object_02,585.39500000002,2,1,323.17000000062,0.1111111111111111,2,object_03,5,789,0,9,1,desert_6,2,memory-2step-stake-s,553,1329523,0.0-19.0-0.0-0.60,A3P5P5LGJGB6HD,30UZJB2PPKSSO21QHKUJ0S8JS3B35M,3F0BG9B9MT3BDSARK078DQEFMM17Y8,2,1
61,4,object_07,object_09,636.33999999985,7,2,247.43000000017,0.7777777777777778,1,object_01,1,796,0,7,1,restaurant_1,2,memory-2step-stake-s,554,1337728,0.0-19.0-0.0-0.61,A3P5P5LGJGB6HD,30UZJB2PPKSSO21QHKUJ0S8JS3B35M,3F0BG9B9MT3BDSARK078DQEFMM17Y8,8,7
62,1,object_08,object_02,421.93500000029,1,2,336.96000000066,0.8888888888888888,1,object_01,5,836,0,8,2,desert_6,2,memory-2step-stake-s,555,1346122,0.0-19.0-0.0-0.62,A3P5P5LGJGB6HD,30UZJB2PPKSSO21QHKUJ0S8JS3B35M,3F0BG9B9MT3BDSARK078DQEFMM17Y8,2,1
63,3,object_06,object_04,933.10500000021,6,2,346.86499999953,0.2222222222222222,2,object_03,1,838,0,8,2,library_8,2,memory-2step-stake-s,556,1353909,0.0-19.0-0.0-0.63,A3P5P5LGJGB6HD,30UZJB2PPKSSO21QHKUJ0S8JS3B35M,3F0BG9B9MT3BDSARK078DQEFMM17Y8,5,6
64,1,object_08,object_02,427.15500000026,1,2,263.72499999986,0.8888888888888888,1,object_01,5,878,0,8,2,desert_8,2,memory-2step-stake-s,557,1362226,0.0-19.0-0.0-0.64,A3P5P5LGJGB6HD,30UZJB2PPKSSO21QHKUJ0S8JS3B35M,3F0BG9B9MT3BDSARK078DQEFMM17Y8,2,1
65,4,object_07,object_09,587.25499999942,7,2,277.68999999994,0.6666666666666666,1,object_01,1,884,0,6,3,restaurant_8,2,memory-2step-stake-s,558,1370346,0.0-19.0-0.0-0.65,A3P5P5LGJGB6HD,30UZJB2PPKSSO21QHKUJ0S8JS3B35M,3F0BG9B9MT3BDSARK078DQEFMM17Y8,8,7
66,4,object_09,object_07,740.77000000025,7,1,317.85000000033,0.6666666666666666,1,object_01,1,890,0,6,2,restaurant_2,2,memory-2step-stake-s,559,1378534,0.0-19.0-0.0-0.66,A3P5P5LGJGB6HD,30UZJB2PPKSSO21QHKUJ0S8JS3B35M,3F0BG9B9MT3BDSARK078DQEFMM17Y8,7,8
67,2,object_10,object_05,660.74500000011,3,2,331.46999999997,0.3333333333333333,1,object_01,1,893,0,3,5,forest_3,2,memory-2step-stake-s,560,1386421,0.0-19.0-0.0-0.67,A3P5P5LGJGB6HD,30UZJB2PPKSSO21QHKUJ0S8JS3B35M,3F0BG9B9MT3BDSARK078DQEFMM17Y8,4,3
68,2,object_05,object_10,455.53500000015,4,2,280.50999999954,0.7777777777777778,2,object_03,5,928,0,5,7,forest_2,2,memory-2step-stake-s,561,1394662,0.0-19.0-0.0-0.68,A3P5P5LGJGB6HD,30UZJB2PPKSSO21QHKUJ0S8JS3B35M,3F0BG9B9MT3BDSARK078DQEFMM17Y8,3,4
69,3,object_04,object_06,806.16999999993,6,1,355.45999999973,0.3333333333333333,2,object_03,1,931,0,6,3,library_3,2,memory-2step-stake-s,562,1402558,0.0-19.0-0.0-0.69,A3P5P5LGJGB6HD,30UZJB2PPKSSO21QHKUJ0S8JS3B35M,3F0BG9B9MT3BDSARK078DQEFMM17Y8,6,5
70,3,object_06,object_04,928.38500000024,5,1,361.07999999961,1.0,1,object_01,1,940,0,9,3,library_8,2,memory-2step-stake-s,563,1411086,0.0-19.0-0.0-0.70,A3P5P5LGJGB6HD,30UZJB2PPKSSO21QHKUJ0S8JS3B35M,3F0BG9B9MT3BDSARK078DQEFMM17Y8,5,6
71,3,object_04,object_06,735.13000000012,5,2,331.63999999943,0.6666666666666666,1,object_01,1,946,0,6,4,library_3,2,memory-2step-stake-s,564,1419254,0.0-19.0-0.0-0.71,A3P5P5LGJGB6HD,30UZJB2PPKSSO21QHKUJ0S8JS3B35M,3F0BG9B9MT3BDSARK078DQEFMM17Y8,6,5
72,3,object_06,object_04,668.22000000044,5,1,349.8200000003,0.2222222222222222,1,object_01,5,956,0,2,3,library_6,2,memory-2step-stake-s,565,1427046,0.0-19.0-0.0-0.72,A3P5P5LGJGB6HD,30UZJB2PPKSSO21QHKUJ0S8JS3B35M,3F0BG9B9MT3BDSARK078DQEFMM17Y8,5,6
73,1,object_02,object_08,408.79500000016,1,1,311.16000000015,0.5555555555555556,1,object_01,5,981,0,5,1,desert_5,2,memory-2step-stake-s,566,1435107,0.0-19.0-0.0-0.73,A3P5P5LGJGB6HD,30UZJB2PPKSSO21QHKUJ0S8JS3B35M,3F0BG9B9MT3BDSARK078DQEFMM17Y8,1,2
74,4,object_09,object_07,918.18499999936,7,1,335.62499999953,0.4444444444444444,1,object_01,1,985,0,4,3,restaurant_1,2,memory-2step-stake-s,567,1443092,0.0-19.0-0.0-0.74,A3P5P5LGJGB6HD,30UZJB2PPKSSO21QHKUJ0S8JS3B35M,3F0BG9B9MT3BDSARK078DQEFMM17Y8,7,8
75,4,object_07,object_09,741.2349999994,7,2,343.64500000002,0.5555555555555556,1,object_01,1,990,0,5,2,restaurant_8,2,memory-2step-stake-s,568,1451188,0.0-19.0-0.0-0.75,A3P5P5LGJGB6HD,30UZJB2PPKSSO21QHKUJ0S8JS3B35M,3F0BG9B9MT3BDSARK078DQEFMM17Y8,8,7
76,1,object_02,object_08,470.77499999991,1,1,251.44999999972,0.4444444444444444,1,object_01,5,1010,0,4,0,desert_5,2,memory-2step-stake-s,569,1459091,0.0-19.0-0.0-0.76,A3P5P5LGJGB6HD,30UZJB2PPKSSO21QHKUJ0S8JS3B35M,3F0BG9B9MT3BDSARK078DQEFMM17Y8,1,2
77,1,object_02,object_08,404.60499999975,2,2,263.93999999971,0.3333333333333333,2,object_03,5,1025,0,1,3,desert_5,2,memory-2step-stake-s,570,1466902,0.0-19.0-0.0-0.77,A3P5P5LGJGB6HD,30UZJB2PPKSSO21QHKUJ0S8JS3B35M,3F0BG9B9MT3BDSARK078DQEFMM17Y8,1,2
78,1,object_02,object_08,362.79999999981,1,1,2.1349999995437,0.1111111111111111,1,object_01,1,1026,0,1,1,desert_5,2,memory-2step-stake-s,571,1474244,0.0-19.0-0.0-0.78,A3P5P5LGJGB6HD,30UZJB2PPKSSO21QHKUJ0S8JS3B35M,3F0BG9B9MT3BDSARK078DQEFMM17Y8,1,2
79,3,object_06,object_04,653.34999999963,5,1,351.16000000015,0.1111111111111111,1,object_01,5,1031,0,1,1,library_3,2,memory-2step-stake-s,572,1481939,0.0-19.0-0.0-0.79,A3P5P5LGJGB6HD,30UZJB2PPKSSO21QHKUJ0S8JS3B35M,3F0BG9B9MT3BDSARK078DQEFMM17Y8,5,6
80,3,object_06,object_04,503.07000000076,6,2,304.87499999977,0.3333333333333333,2,object_03,1,1034,0,1,3,library_8,2,memory-2step-stake-s,573,1489791,0.0-19.0-0.0-0.80,A3P5P5LGJGB6HD,30UZJB2PPKSSO21QHKUJ0S8JS3B35M,3F0BG9B9MT3BDSARK078DQEFMM17Y8,5,6
81,3,object_04,object_06,612.73999999953,6,1,292.70999999973,0.6666666666666666,2,object_03,5,1064,0,2,6,library_3,2,memory-2step-stake-s,574,1497954,0.0-19.0-0.0-0.81,A3P5P5LGJGB6HD,30UZJB2PPKSSO21QHKUJ0S8JS3B35M,3F0BG9B9MT3BDSARK078DQEFMM17Y8,6,5
82,4,object_07,object_09,581.99500000034,7,2,292.2900000005,0.3333333333333333,1,object_01,1,1067,0,3,4,restaurant_8,2,memory-2step-stake-s,575,1505794,0.0-19.0-0.0-0.82,A3P5P5LGJGB6HD,30UZJB2PPKSSO21QHKUJ0S8JS3B35M,3F0BG9B9MT3BDSARK078DQEFMM17Y8,8,7
83,1,object_02,object_08,418.82000000076,2,2,248.63500000001,0.2222222222222222,2,object_03,5,1077,0,2,2,desert_5,2,memory-2step-stake-s,576,1513485,0.0-19.0-0.0-0.83,A3P5P5LGJGB6HD,30UZJB2PPKSSO21QHKUJ0S8JS3B35M,3F0BG9B9MT3BDSARK078DQEFMM17Y8,1,2
84,3,object_04,object_06,659.12500000023,6,1,277.48499999964,0.4444444444444444,2,object_03,5,1097,0,5,4,library_6,2,memory-2step-stake-s,577,1521410,0.0-19.0-0.0-0.84,A3P5P5LGJGB6HD,30UZJB2PPKSSO21QHKUJ0S8JS3B35M,3F0BG9B9MT3BDSARK078DQEFMM17Y8,6,5
85,2,object_10,object_05,641.84999999986,3,2,275.41500000004,0.4444444444444444,1,object_01,5,1117,0,4,0,forest_2,2,memory-2step-stake-s,578,1529345,0.0-19.0-0.0-0.85,A3P5P5LGJGB6HD,30UZJB2PPKSSO21QHKUJ0S8JS3B35M,3F0BG9B9MT3BDSARK078DQEFMM17Y8,4,3
86,3,object_06,object_04,547.85999999964,6,2,482.39500000002,0.1111111111111111,2,object_03,1,1118,0,4,1,library_3,2,memory-2step-stake-s,579,1537158,0.0-19.0-0.0-0.86,A3P5P5LGJGB6HD,30UZJB2PPKSSO21QHKUJ0S8JS3B35M,3F0BG9B9MT3BDSARK078DQEFMM17Y8,5,6
87,3,object_06,object_04,503.76499999943,6,2,424.88000000059,0.2222222222222222,2,object_03,1,1120,0,0,2,library_6,2,memory-2step-stake-s,580,1545028,0.0-19.0-0.0-0.87,A3P5P5LGJGB6HD,30UZJB2PPKSSO21QHKUJ0S8JS3B35M,3F0BG9B9MT3BDSARK078DQEFMM17Y8,5,6
88,3,object_06,object_04,547.10000000079,6,2,247.33000000031,0.1111111111111111,2,object_03,1,1121,0,0,1,library_5,2,memory-2step-stake-s,581,1552613,0.0-19.0-0.0-0.88,A3P5P5LGJGB6HD,30UZJB2PPKSSO21QHKUJ0S8JS3B35M,3F0BG9B9MT3BDSARK078DQEFMM17Y8,5,6
89,4,object_09,object_07,817.76999999979,8,2,276.0000000007,0.3333333333333333,2,object_03,1,1124,0,1,3,restaurant_2,2,memory-2step-stake-s,582,1560426,0.0-19.0-0.0-0.89,A3P5P5LGJGB6HD,30UZJB2PPKSSO21QHKUJ0S8JS3B35M,3F0BG9B9MT3BDSARK078DQEFMM17Y8,7,8
90,2,object_05,object_10,420.10499999998,3,1,21.52500000014,0.1111111111111111,1,object_01,5,1129,0,1,5,forest_3,2,memory-2step-stake-s,583,1567791,0.0-19.0-0.0-0.90,A3P5P5LGJGB6HD,30UZJB2PPKSSO21QHKUJ0S8JS3B35M,3F0BG9B9MT3BDSARK078DQEFMM17Y8,3,4
91,4,object_09,object_07,965.19500000076,7,1,322.29500000016,0.3333333333333333,1,object_01,1,1132,0,3,8,restaurant_6,2,memory-2step-stake-s,584,1575654,0.0-19.0-0.0-0.91,A3P5P5LGJGB6HD,30UZJB2PPKSSO21QHKUJ0S8JS3B35M,3F0BG9B9MT3BDSARK078DQEFMM17Y8,7,8
92,1,object_08,object_02,428.38499999931,2,1,309.65500000003,0.4444444444444444,2,object_03,5,1152,0,4,4,desert_5,2,memory-2step-stake-s,585,1583615,0.0-19.0-0.0-0.92,A3P5P5LGJGB6HD,30UZJB2PPKSSO21QHKUJ0S8JS3B35M,3F0BG9B9MT3BDSARK078DQEFMM17Y8,2,1
93,3,object_04,object_06,729.69500000007,6,1,276.35999999987,0.3333333333333333,2,object_03,1,1155,0,7,3,library_5,2,memory-2step-stake-s,586,1591439,0.0-19.0-0.0-0.93,A3P5P5LGJGB6HD,30UZJB2PPKSSO21QHKUJ0S8JS3B35M,3F0BG9B9MT3BDSARK078DQEFMM17Y8,6,5
94,1,object_02,object_08,371.4049999998,2,2,256.2099999995,0.2222222222222222,2,object_03,5,1165,0,7,2,desert_6,2,memory-2step-stake-s,587,1599143,0.0-19.0-0.0-0.94,A3P5P5LGJGB6HD,30UZJB2PPKSSO21QHKUJ0S8JS3B35M,3F0BG9B9MT3BDSARK078DQEFMM17Y8,1,2
95,4,object_07,object_09,639.9599999995,8,1,295.56999999937,0.4444444444444444,2,object_03,1,1169,0,9,4,restaurant_8,2,memory-2step-stake-s,588,1607090,0.0-19.0-0.0-0.95,A3P5P5LGJGB6HD,30UZJB2PPKSSO21QHKUJ0S8JS3B35M,3F0BG9B9MT3BDSARK078DQEFMM17Y8,8,7
96,4,object_09,object_07,679.17999999924,7,1,294.25499999966,0.8888888888888888,1,object_01,5,1209,0,8,0,restaurant_6,2,memory-2step-stake-s,589,1615439,0.0-19.0-0.0-0.96,A3P5P5LGJGB6HD,30UZJB2PPKSSO21QHKUJ0S8JS3B35M,3F0BG9B9MT3BDSARK078DQEFMM17Y8,7,8
97,3,object_06,object_04,839.81999999937,6,2,294.93999999994,0.4444444444444444,2,object_03,5,1229,0,8,4,library_6,2,memory-2step-stake-s,590,1623390,0.0-19.0-0.0-0.97,A3P5P5LGJGB6HD,30UZJB2PPKSSO21QHKUJ0S8JS3B35M,3F0BG9B9MT3BDSARK078DQEFMM17Y8,5,6
98,3,object_04,object_06,688.1549999998,5,2,274.64500000048,1.0,1,object_01,1,1238,0,9,4,library_6,2,memory-2step-stake-s,591,1631821,0.0-19.0-0.0-0.98,A3P5P5LGJGB6HD,30UZJB2PPKSSO21QHKUJ0S8JS3B35M,3F0BG9B9MT3BDSARK078DQEFMM17Y8,6,5
99,1,object_08,object_02,405.99000000022,1,2,202.32500000019,0.8888888888888888,1,object_01,5,1278,0,8,3,desert_8,2,memory-2step-stake-s,592,1640099,0.0-19.0-0.0-0.99,A3P5P5LGJGB6HD,30UZJB2PPKSSO21QHKUJ0S8JS3B35M,3F0BG9B9MT3BDSARK078DQEFMM17Y8,2,1
100,3,object_04,object_06,485.45500000007,5,2,307.20000000019,0.8888888888888888,1,object_01,1,1286,0,8,2,library_8,2,memory-2step-stake-s,593,1648471,0.0-19.0-0.0-0.100,A3P5P5LGJGB6HD,30UZJB2PPKSSO21QHKUJ0S8JS3B35M,3F0BG9B9MT3BDSARK078DQEFMM17Y8,6,5
101,2,object_10,object_05,511.03499999968,3,2,256.53499999945,0.8888888888888888,1,object_01,5,1326,0,8,2,forest_6,2,memory-2step-stake-s,594,1656798,0.0-19.0-0.0-0.101,A3P5P5LGJGB6HD,30UZJB2PPKSSO21QHKUJ0S8JS3B35M,3F0BG9B9MT3BDSARK078DQEFMM17Y8,4,3
102,2,object_05,object_10,407.00500000012,3,1,323.97000000044,0.8888888888888888,1,object_01,5,1366,0,8,0,forest_6,2,memory-2step-stake-s,595,1665205,0.0-19.0-0.0-0.102,A3P5P5LGJGB6HD,30UZJB2PPKSSO21QHKUJ0S8JS3B35M,3F0BG9B9MT3BDSARK078DQEFMM17Y8,3,4
103,2,object_05,object_10,442.64999999991,3,1,279.56000000006,1.0,1,object_01,5,1411,0,9,2,forest_6,2,memory-2step-stake-s,596,1673663,0.0-19.0-0.0-0.103,A3P5P5LGJGB6HD,30UZJB2PPKSSO21QHKUJ0S8JS3B35M,3F0BG9B9MT3BDSARK078DQEFMM17Y8,3,4
104,3,object_06,object_04,538.81999999983,5,1,355.91500000027,0.7777777777777778,1,object_01,1,1418,0,7,4,library_5,2,memory-2step-stake-s,597,1681978,0.0-19.0-0.0-0.104,A3P5P5LGJGB6HD,30UZJB2PPKSSO21QHKUJ0S8JS3B35M,3F0BG9B9MT3BDSARK078DQEFMM17Y8,5,6
105,4,object_09,object_07,832.04500000016,7,1,309.76999999979,0.5555555555555556,1,object_01,1,1423,0,5,2,restaurant_1,2,memory-2step-stake-s,598,1690038,0.0-19.0-0.0-0.105,A3P5P5LGJGB6HD,30UZJB2PPKSSO21QHKUJ0S8JS3B35M,3F0BG9B9MT3BDSARK078DQEFMM17Y8,7,8
106,3,object_04,object_06,931.78499999968,6,1,327.01000000001,0.4444444444444444,2,object_03,1,1427,0,4,4,library_5,2,memory-2step-stake-s,599,1698015,0.0-19.0-0.0-0.106,A3P5P5LGJGB6HD,30UZJB2PPKSSO21QHKUJ0S8JS3B35M,3F0BG9B9MT3BDSARK078DQEFMM17Y8,6,5
107,1,object_08,object_02,564.20499999961,2,1,272.75999999978,0.7777777777777778,2,object_03,5,1462,0,5,7,desert_8,2,memory-2step-stake-s,600,1706252,0.0-19.0-0.0-0.107,A3P5P5LGJGB6HD,30UZJB2PPKSSO21QHKUJ0S8JS3B35M,3F0BG9B9MT3BDSARK078DQEFMM17Y8,2,1
108,2,object_05,object_10,422.88499999978,3,1,255.98499999987,0.1111111111111111,1,object_01,1,1463,0,1,7,forest_5,2,memory-2step-stake-s,601,1713846,0.0-19.0-0.0-0.108,A3P5P5LGJGB6HD,30UZJB2PPKSSO21QHKUJ0S8JS3B35M,3F0BG9B9MT3BDSARK078DQEFMM17Y8,3,4
109,3,object_04,object_06,505.46000000043,5,2,277.34500000044,0.4444444444444444,1,object_01,1,1467,0,4,5,library_6,2,memory-2step-stake-s,602,1721782,0.0-19.0-0.0-0.109,A3P5P5LGJGB6HD,30UZJB2PPKSSO21QHKUJ0S8JS3B35M,3F0BG9B9MT3BDSARK078DQEFMM17Y8,6,5
110,4,object_07,object_09,1062.7050000003,7,2,355.56499999994,0.4444444444444444,1,object_01,1,1471,0,4,4,restaurant_1,2,memory-2step-stake-s,603,1729793,0.0-19.0-0.0-0.110,A3P5P5LGJGB6HD,30UZJB2PPKSSO21QHKUJ0S8JS3B35M,3F0BG9B9MT3BDSARK078DQEFMM17Y8,8,7
111,2,object_05,object_10,555.19999999972,4,2,258.46499999985,0.4444444444444444,2,object_03,5,1491,0,3,4,forest_6,2,memory-2step-stake-s,604,1737703,0.0-19.0-0.0-0.111,A3P5P5LGJGB6HD,30UZJB2PPKSSO21QHKUJ0S8JS3B35M,3F0BG9B9MT3BDSARK078DQEFMM17Y8,3,4
112,1,object_08,object_02,587.73000000021,2,1,309.14500000025,0.2222222222222222,2,object_03,5,1501,0,1,2,desert_1,2,memory-2step-stake-s,605,1745462,0.0-19.0-0.0-0.112,A3P5P5LGJGB6HD,30UZJB2PPKSSO21QHKUJ0S8JS3B35M,3F0BG9B9MT3BDSARK078DQEFMM17Y8,2,1
113,2,object_05,object_10,713.21999999951,4,2,290.17500000005,0.1111111111111111,2,object_03,5,1506,0,1,1,forest_2,2,memory-2step-stake-s,606,1753090,0.0-19.0-0.0-0.113,A3P5P5LGJGB6HD,30UZJB2PPKSSO21QHKUJ0S8JS3B35M,3F0BG9B9MT3BDSARK078DQEFMM17Y8,3,4
114,1,object_08,object_02,579.31499999994,2,1,341.60500000045,0.1111111111111111,2,object_03,5,1511,0,2,1,desert_1,2,memory-2step-stake-s,607,1760766,0.0-19.0-0.0-0.114,A3P5P5LGJGB6HD,30UZJB2PPKSSO21QHKUJ0S8JS3B35M,3F0BG9B9MT3BDSARK078DQEFMM17Y8,2,1
115,2,object_05,object_10,390.14499999955,3,1,263.91000000061,0.1111111111111111,1,object_01,5,1516,0,1,1,forest_2,2,memory-2step-stake-s,608,1768364,0.0-19.0-0.0-0.115,A3P5P5LGJGB6HD,30UZJB2PPKSSO21QHKUJ0S8JS3B35M,3F0BG9B9MT3BDSARK078DQEFMM17Y8,3,4
116,1,object_02,object_08,794.67499999935,1,1,255.61999999988,0.0,1,object_01,5,1516,0,0,2,desert_8,2,memory-2step-stake-s,609,1775854,0.0-19.0-0.0-0.116,A3P5P5LGJGB6HD,30UZJB2PPKSSO21QHKUJ0S8JS3B35M,3F0BG9B9MT3BDSARK078DQEFMM17Y8,1,2
117,2,object_10,object_05,413.00500000035,3,2,276.5,0.3333333333333333,1,object_01,1,1519,0,3,2,forest_5,2,memory-2step-stake-s,610,1783681,0.0-19.0-0.0-0.117,A3P5P5LGJGB6HD,30UZJB2PPKSSO21QHKUJ0S8JS3B35M,3F0BG9B9MT3BDSARK078DQEFMM17Y8,4,3
118,3,object_04,object_06,714.88000000035,6,1,332.34499999974,0.1111111111111111,2,object_03,5,1524,0,2,1,library_5,2,memory-2step-stake-s,611,1791355,0.0-19.0-0.0-0.118,A3P5P5LGJGB6HD,30UZJB2PPKSSO21QHKUJ0S8JS3B35M,3F0BG9B9MT3BDSARK078DQEFMM17Y8,6,5
119,2,object_10,object_05,398.09500000044,3,2,266.48000000021,0.0,1,object_01,1,1524,0,0,0,forest_6,2,memory-2step-stake-s,612,1798860,0.0-19.0-0.0-0.119,A3P5P5LGJGB6HD,30UZJB2PPKSSO21QHKUJ0S8JS3B35M,3F0BG9B9MT3BDSARK078DQEFMM17Y8,4,3
120,1,object_02,object_08,437.02500000014,2,2,257.36000000057,0.2222222222222222,2,object_03,5,1534,0,1,2,desert_6,2,memory-2step-stake-s,613,1806575,0.0-19.0-0.0-0.120,A3P5P5LGJGB6HD,30UZJB2PPKSSO21QHKUJ0S8JS3B35M,3F0BG9B9MT3BDSARK078DQEFMM17Y8,1,2
121,4,object_09,object_07,1007.0800000003,8,2,351.4850000001,0.3333333333333333,2,object_03,1,1537,0,2,3,restaurant_1,2,memory-2step-stake-s,614,1814481,0.0-19.0-0.0-0.121,A3P5P5LGJGB6HD,30UZJB2PPKSSO21QHKUJ0S8JS3B35M,3F0BG9B9MT3BDSARK078DQEFMM17Y8,7,8
122,1,object_02,object_08,426.16999999993,1,1,269.72500000009,0.2222222222222222,1,object_01,5,1547,0,2,5,desert_5,2,memory-2step-stake-s,615,1822206,0.0-19.0-0.0-0.122,A3P5P5LGJGB6HD,30UZJB2PPKSSO21QHKUJ0S8JS3B35M,3F0BG9B9MT3BDSARK078DQEFMM17Y8,1,2
123,4,object_07,object_09,746.03499999992,7,2,347.78000000003,0.0,1,object_01,1,1547,0,0,4,restaurant_6,2,memory-2step-stake-s,616,1829785,0.0-19.0-0.0-0.123,A3P5P5LGJGB6HD,30UZJB2PPKSSO21QHKUJ0S8JS3B35M,3F0BG9B9MT3BDSARK078DQEFMM17Y8,8,7
124,1,object_02,object_08,695.19500000007,1,1,350.76500000013,0.2222222222222222,1,object_01,1,1549,0,2,5,desert_8,2,memory-2step-stake-s,617,1837572,0.0-19.0-0.0-0.124,A3P5P5LGJGB6HD,30UZJB2PPKSSO21QHKUJ0S8JS3B35M,3F0BG9B9MT3BDSARK078DQEFMM17Y8,1,2
125,4,object_07,object_09,529.34999999986,7,2,307.19000000041,0.1111111111111111,1,object_01,1,1550,0,1,6,restaurant_2,2,memory-2step-stake-s,618,1845210,0.0-19.0-0.0-0.125,A3P5P5LGJGB6HD,30UZJB2PPKSSO21QHKUJ0S8JS3B35M,3F0BG9B9MT3BDSARK078DQEFMM17Y8,8,7
126,2,object_05,object_10,390.10000000056,3,1,366.54999999981,0.1111111111111111,1,object_01,1,1551,0,1,4,forest_2,2,memory-2step-stake-s,619,1852901,0.0-19.0-0.0-0.126,A3P5P5LGJGB6HD,30UZJB2PPKSSO21QHKUJ0S8JS3B35M,3F0BG9B9MT3BDSARK078DQEFMM17Y8,3,4
127,4,object_07,object_09,652.12500000047,7,2,294.29499999969,0.0,1,object_01,5,1551,0,0,4,restaurant_1,2,memory-2step-stake-s,620,1860415,0.0-19.0-0.0-0.127,A3P5P5LGJGB6HD,30UZJB2PPKSSO21QHKUJ0S8JS3B35M,3F0BG9B9MT3BDSARK078DQEFMM17Y8,8,7
128,4,object_09,object_07,978.86499999999,7,1,334.47500000056,0.2222222222222222,1,object_01,1,1553,0,2,4,restaurant_1,2,memory-2step-stake-s,622,1897820,0.0-19.0-0.1-0.128,A3P5P5LGJGB6HD,30UZJB2PPKSSO21QHKUJ0S8JS3B35M,3F0BG9B9MT3BDSARK078DQEFMM17Y8,7,8
129,3,object_04,object_06,814.67499999981,6,1,432.5849999995,0.6666666666666666,2,object_03,5,1583,0,3,6,library_3,2,memory-2step-stake-s,623,1906114,0.0-19.0-0.1-0.129,A3P5P5LGJGB6HD,30UZJB2PPKSSO21QHKUJ0S8JS3B35M,3F0BG9B9MT3BDSARK078DQEFMM17Y8,6,5
130,2,object_05,object_10,645.34499999997,3,1,300.16999999946,0.2222222222222222,1,object_01,5,1593,0,2,8,forest_5,2,memory-2step-stake-s,624,1913860,0.0-19.0-0.1-0.130,A3P5P5LGJGB6HD,30UZJB2PPKSSO21QHKUJ0S8JS3B35M,3F0BG9B9MT3BDSARK078DQEFMM17Y8,3,4
131,3,object_04,object_06,675.97500000033,6,1,319.63500000001,0.7777777777777778,2,object_03,5,1628,0,1,7,library_8,2,memory-2step-stake-s,625,1922121,0.0-19.0-0.1-0.131,A3P5P5LGJGB6HD,30UZJB2PPKSSO21QHKUJ0S8JS3B35M,3F0BG9B9MT3BDSARK078DQEFMM17Y8,6,5
132,4,object_09,object_07,736.33499999973,7,1,290.10499999998,0.1111111111111111,1,object_01,1,1629,0,1,9,restaurant_6,2,memory-2step-stake-s,626,1929744,0.0-19.0-0.1-0.132,A3P5P5LGJGB6HD,30UZJB2PPKSSO21QHKUJ0S8JS3B35M,3F0BG9B9MT3BDSARK078DQEFMM17Y8,7,8
133,3,object_06,object_04,884.23000000045,6,2,313.36999999988,1.0,2,object_03,1,1638,0,1,9,library_3,2,memory-2step-stake-s,627,1938215,0.0-19.0-0.1-0.133,A3P5P5LGJGB6HD,30UZJB2PPKSSO21QHKUJ0S8JS3B35M,3F0BG9B9MT3BDSARK078DQEFMM17Y8,5,6
134,1,object_08,object_02,369.81999999983,2,1,257.95500000007,0.8888888888888888,2,object_03,5,1678,0,1,8,desert_5,2,memory-2step-stake-s,628,1946542,0.0-19.0-0.1-0.134,A3P5P5LGJGB6HD,30UZJB2PPKSSO21QHKUJ0S8JS3B35M,3F0BG9B9MT3BDSARK078DQEFMM17Y8,2,1
135,2,object_10,object_05,616.61999999988,3,2,298.60999999987,0.0,1,object_01,5,1678,0,0,8,forest_3,2,memory-2step-stake-s,629,1954082,0.0-19.0-0.1-0.135,A3P5P5LGJGB6HD,30UZJB2PPKSSO21QHKUJ0S8JS3B35M,3F0BG9B9MT3BDSARK078DQEFMM17Y8,4,3
136,4,object_07,object_09,556.02499999991,7,2,357.49500000011,0.3333333333333333,1,object_01,1,1681,0,3,7,restaurant_6,2,memory-2step-stake-s,630,1961979,0.0-19.0-0.1-0.136,A3P5P5LGJGB6HD,30UZJB2PPKSSO21QHKUJ0S8JS3B35M,3F0BG9B9MT3BDSARK078DQEFMM17Y8,8,7
137,2,object_10,object_05,438.22499999986,4,1,266.41000000015,0.6666666666666666,2,object_03,5,1711,0,3,6,forest_2,2,memory-2step-stake-s,631,1970099,0.0-19.0-0.1-0.137,A3P5P5LGJGB6HD,30UZJB2PPKSSO21QHKUJ0S8JS3B35M,3F0BG9B9MT3BDSARK078DQEFMM17Y8,4,3
138,4,object_07,object_09,745.46999999974,8,1,343.64500000095,0.6666666666666666,2,object_03,5,1741,0,1,6,restaurant_6,2,memory-2step-stake-s,632,1978311,0.0-19.0-0.1-0.138,A3P5P5LGJGB6HD,30UZJB2PPKSSO21QHKUJ0S8JS3B35M,3F0BG9B9MT3BDSARK078DQEFMM17Y8,8,7
139,4,object_09,object_07,175.56500000041,7,1,381.42000000062,0.2222222222222222,1,object_01,1,1743,0,2,5,restaurant_6,2,memory-2step-stake-s,633,1986146,0.0-19.0-0.1-0.139,A3P5P5LGJGB6HD,30UZJB2PPKSSO21QHKUJ0S8JS3B35M,3F0BG9B9MT3BDSARK078DQEFMM17Y8,7,8
140,2,object_05,object_10,385.87000000011,4,2,265.07500000019,0.5555555555555556,2,object_03,1,1748,0,2,5,forest_6,2,memory-2step-stake-s,634,1994158,0.0-19.0-0.1-0.140,A3P5P5LGJGB6HD,30UZJB2PPKSSO21QHKUJ0S8JS3B35M,3F0BG9B9MT3BDSARK078DQEFMM17Y8,3,4
141,4,object_09,object_07,735.41000000038,8,2,307.9449999996,0.5555555555555556,2,object_03,1,1753,0,1,5,restaurant_8,2,memory-2step-stake-s,635,2002214,0.0-19.0-0.1-0.141,A3P5P5LGJGB6HD,30UZJB2PPKSSO21QHKUJ0S8JS3B35M,3F0BG9B9MT3BDSARK078DQEFMM17Y8,7,8
142,1,object_02,object_08,726.90499999956,2,2,314.63499999978,0.6666666666666666,2,object_03,5,1783,0,2,6,desert_6,2,memory-2step-stake-s,636,2010400,0.0-19.0-0.1-0.142,A3P5P5LGJGB6HD,30UZJB2PPKSSO21QHKUJ0S8JS3B35M,3F0BG9B9MT3BDSARK078DQEFMM17Y8,1,2
143,1,object_02,object_08,397.64999999991,2,2,271.70500000031,0.5555555555555556,2,object_03,5,1808,0,1,5,desert_5,2,memory-2step-stake-s,637,2018431,0.0-19.0-0.1-0.143,A3P5P5LGJGB6HD,30UZJB2PPKSSO21QHKUJ0S8JS3B35M,3F0BG9B9MT3BDSARK078DQEFMM17Y8,1,2
144,3,object_04,object_06,871.4150000005,6,1,398.70499999961,0.8888888888888888,2,object_03,1,1816,0,4,8,library_5,2,memory-2step-stake-s,638,2026886,0.0-19.0-0.1-0.144,A3P5P5LGJGB6HD,30UZJB2PPKSSO21QHKUJ0S8JS3B35M,3F0BG9B9MT3BDSARK078DQEFMM17Y8,6,5
145,1,object_08,object_02,612.78500000038,2,1,391.50500000059,0.6666666666666666,2,object_03,5,1846,0,2,6,desert_8,2,memory-2step-stake-s,639,2035138,0.0-19.0-0.1-0.145,A3P5P5LGJGB6HD,30UZJB2PPKSSO21QHKUJ0S8JS3B35M,3F0BG9B9MT3BDSARK078DQEFMM17Y8,2,1
146,2,object_05,object_10,875.79000000004,4,2,395.19999999995,0.6666666666666666,2,object_03,5,1876,0,1,6,forest_5,2,memory-2step-stake-s,640,2043389,0.0-19.0-0.1-0.146,A3P5P5LGJGB6HD,30UZJB2PPKSSO21QHKUJ0S8JS3B35M,3F0BG9B9MT3BDSARK078DQEFMM17Y8,3,4
147,4,object_09,object_07,611.05499999947,8,2,355.97500000033,0.4444444444444444,2,object_03,1,1880,0,0,4,restaurant_2,2,memory-2step-stake-s,641,2051395,0.0-19.0-0.1-0.147,A3P5P5LGJGB6HD,30UZJB2PPKSSO21QHKUJ0S8JS3B35M,3F0BG9B9MT3BDSARK078DQEFMM17Y8,7,8
148,1,object_08,object_02,456.37999999942,2,1,34.645000000717,0.2222222222222222,2,object_03,5,1890,0,0,2,desert_1,2,memory-2step-stake-s,642,2058870,0.0-19.0-0.1-0.148,A3P5P5LGJGB6HD,30UZJB2PPKSSO21QHKUJ0S8JS3B35M,3F0BG9B9MT3BDSARK078DQEFMM17Y8,2,1
149,3,object_06,object_04,846.58000000031,5,1,361.79499999993,0.1111111111111111,1,object_01,1,1891,0,1,2,library_8,2,memory-2step-stake-s,643,2066573,0.0-19.0-0.1-0.149,A3P5P5LGJGB6HD,30UZJB2PPKSSO21QHKUJ0S8JS3B35M,3F0BG9B9MT3BDSARK078DQEFMM17Y8,5,6
150,4,object_07,object_09,426.69999999995,8,1,374.03000000003,0.4444444444444444,2,object_03,1,1895,0,1,4,restaurant_1,2,memory-2step-stake-s,644,2074602,0.0-19.0-0.1-0.150,A3P5P5LGJGB6HD,30UZJB2PPKSSO21QHKUJ0S8JS3B35M,3F0BG9B9MT3BDSARK078DQEFMM17Y8,8,7
151,4,object_09,object_07,447.28499999945,7,1,263.58499999973,0.2222222222222222,1,object_01,1,1897,0,2,4,restaurant_6,2,memory-2step-stake-s,645,2082314,0.0-19.0-0.1-0.151,A3P5P5LGJGB6HD,30UZJB2PPKSSO21QHKUJ0S8JS3B35M,3F0BG9B9MT3BDSARK078DQEFMM17Y8,7,8
152,1,object_02,object_08,381.60000000056,1,1,249.81000000006,0.0,1,object_01,5,1897,0,0,4,desert_1,2,memory-2step-stake-s,646,2089789,0.0-19.0-0.1-0.152,A3P5P5LGJGB6HD,30UZJB2PPKSSO21QHKUJ0S8JS3B35M,3F0BG9B9MT3BDSARK078DQEFMM17Y8,1,2
153,1,object_02,object_08,493.85499999975,2,2,399.36500000022,0.3333333333333333,2,object_03,1,1900,0,3,3,desert_6,2,memory-2step-stake-s,647,2097738,0.0-19.0-0.1-0.153,A3P5P5LGJGB6HD,30UZJB2PPKSSO21QHKUJ0S8JS3B35M,3F0BG9B9MT3BDSARK078DQEFMM17Y8,1,2
154,1,object_02,object_08,404.41000000015,2,2,406.96999999974,0.3333333333333333,2,object_03,5,1915,0,1,3,desert_1,2,memory-2step-stake-s,648,2105683,0.0-19.0-0.1-0.154,A3P5P5LGJGB6HD,30UZJB2PPKSSO21QHKUJ0S8JS3B35M,3F0BG9B9MT3BDSARK078DQEFMM17Y8,1,2
155,4,object_09,object_07,507.57499999972,8,2,259.61999999965,0.1111111111111111,2,object_03,1,1916,0,2,1,restaurant_2,2,memory-2step-stake-s,649,2113284,0.0-19.0-0.1-0.155,A3P5P5LGJGB6HD,30UZJB2PPKSSO21QHKUJ0S8JS3B35M,3F0BG9B9MT3BDSARK078DQEFMM17Y8,7,8
156,3,object_04,object_06,919.1650000005,6,1,283.56499999948,0.0,2,object_03,1,1916,0,0,0,library_5,2,memory-2step-stake-s,650,2120802,0.0-19.0-0.1-0.156,A3P5P5LGJGB6HD,30UZJB2PPKSSO21QHKUJ0S8JS3B35M,3F0BG9B9MT3BDSARK078DQEFMM17Y8,6,5
157,2,object_05,object_10,544.83500000089,4,2,265.97999999998,0.2222222222222222,2,object_03,1,1918,0,1,2,forest_5,2,memory-2step-stake-s,651,2128514,0.0-19.0-0.1-0.157,A3P5P5LGJGB6HD,30UZJB2PPKSSO21QHKUJ0S8JS3B35M,3F0BG9B9MT3BDSARK078DQEFMM17Y8,3,4
158,3,object_06,object_04,1009.4850000008,5,1,319.31999999983,0.1111111111111111,1,object_01,5,1923,0,1,0,library_6,2,memory-2step-stake-s,652,2136175,0.0-19.0-0.1-0.158,A3P5P5LGJGB6HD,30UZJB2PPKSSO21QHKUJ0S8JS3B35M,3F0BG9B9MT3BDSARK078DQEFMM17Y8,5,6
159,1,object_02,object_08,502.27499999991,2,2,246.89500000048,0.0,2,object_03,5,1923,0,1,0,desert_6,2,memory-2step-stake-s,653,2143657,0.0-19.0-0.1-0.159,A3P5P5LGJGB6HD,30UZJB2PPKSSO21QHKUJ0S8JS3B35M,3F0BG9B9MT3BDSARK078DQEFMM17Y8,1,2
160,2,object_10,object_05,393.12999999942,3,2,263.56999999983,0.0,1,object_01,1,1923,0,0,0,forest_3,2,memory-2step-stake-s,654,2151147,0.0-19.0-0.1-0.160,A3P5P5LGJGB6HD,30UZJB2PPKSSO21QHKUJ0S8JS3B35M,3F0BG9B9MT3BDSARK078DQEFMM17Y8,4,3
161,1,object_02,object_08,392.35000000009,2,2,213.41500000004,0.3333333333333333,2,object_03,5,1938,0,3,3,desert_8,2,memory-2step-stake-s,655,2158911,0.0-19.0-0.1-0.161,A3P5P5LGJGB6HD,30UZJB2PPKSSO21QHKUJ0S8JS3B35M,3F0BG9B9MT3BDSARK078DQEFMM17Y8,1,2
162,3,object_04,object_06,908.71500000032,6,1,350.38999999966,0.1111111111111111,2,object_03,1,1939,0,4,1,library_5,2,memory-2step-stake-s,656,2166602,0.0-19.0-0.1-0.162,A3P5P5LGJGB6HD,30UZJB2PPKSSO21QHKUJ0S8JS3B35M,3F0BG9B9MT3BDSARK078DQEFMM17Y8,6,5
163,3,object_06,object_04,771.0299999998,6,2,325.54999999981,0.3333333333333333,2,object_03,1,1942,0,0,3,library_3,2,memory-2step-stake-s,657,2174485,0.0-19.0-0.1-0.163,A3P5P5LGJGB6HD,30UZJB2PPKSSO21QHKUJ0S8JS3B35M,3F0BG9B9MT3BDSARK078DQEFMM17Y8,5,6
164,1,object_02,object_08,377.35000000009,2,2,440.29500000039,0.3333333333333333,2,object_03,5,1957,0,5,3,desert_6,2,memory-2step-stake-s,658,2182472,0.0-19.0-0.1-0.164,A3P5P5LGJGB6HD,30UZJB2PPKSSO21QHKUJ0S8JS3B35M,3F0BG9B9MT3BDSARK078DQEFMM17Y8,1,2
165,4,object_09,object_07,1043.7399999998,8,2,355.98499999987,0.2222222222222222,2,object_03,5,1967,0,4,2,restaurant_6,2,memory-2step-stake-s,659,2190274,0.0-19.0-0.1-0.165,A3P5P5LGJGB6HD,30UZJB2PPKSSO21QHKUJ0S8JS3B35M,3F0BG9B9MT3BDSARK078DQEFMM17Y8,7,8
166,2,object_10,object_05,389.91500000004,3,2,224.375,0.5555555555555556,1,object_01,5,1992,0,5,1,forest_5,2,memory-2step-stake-s,660,2198260,0.0-19.0-0.1-0.166,A3P5P5LGJGB6HD,30UZJB2PPKSSO21QHKUJ0S8JS3B35M,3F0BG9B9MT3BDSARK078DQEFMM17Y8,4,3
167,1,object_08,object_02,534.16500000004,2,1,280.54000000004,0.3333333333333333,2,object_03,1,1995,0,6,3,desert_6,2,memory-2step-stake-s,661,2206096,0.0-19.0-0.1-0.167,A3P5P5LGJGB6HD,30UZJB2PPKSSO21QHKUJ0S8JS3B35M,3F0BG9B9MT3BDSARK078DQEFMM17Y8,2,1
168,2,object_10,object_05,486.95500000007,3,2,485.24000000069,0.3333333333333333,1,object_01,5,2010,0,3,2,forest_5,2,memory-2step-stake-s,662,2214108,0.0-19.0-0.1-0.168,A3P5P5LGJGB6HD,30UZJB2PPKSSO21QHKUJ0S8JS3B35M,3F0BG9B9MT3BDSARK078DQEFMM17Y8,4,3
169,2,object_10,object_05,358.15999999968,3,2,336.62999999942,0.3333333333333333,1,object_01,5,2025,0,3,2,forest_6,2,memory-2step-stake-s,663,2221990,0.0-19.0-0.1-0.169,A3P5P5LGJGB6HD,30UZJB2PPKSSO21QHKUJ0S8JS3B35M,3F0BG9B9MT3BDSARK078DQEFMM17Y8,4,3
170,1,object_02,object_08,359.08000000007,1,1,304.25,0.3333333333333333,1,object_01,5,2040,0,3,2,desert_5,2,memory-2step-stake-s,664,2229841,0.0-19.0-0.1-0.170,A3P5P5LGJGB6HD,30UZJB2PPKSSO21QHKUJ0S8JS3B35M,3F0BG9B9MT3BDSARK078DQEFMM17Y8,1,2
171,3,object_06,object_04,648.08500000089,6,2,283.05000000028,0.3333333333333333,2,object_03,1,2043,0,4,3,library_5,2,memory-2step-stake-s,665,2237672,0.0-19.0-0.1-0.171,A3P5P5LGJGB6HD,30UZJB2PPKSSO21QHKUJ0S8JS3B35M,3F0BG9B9MT3BDSARK078DQEFMM17Y8,5,6
172,3,object_06,object_04,698.29499999993,6,2,272.70000000065,0.3333333333333333,2,object_03,1,2046,0,2,3,library_8,2,memory-2step-stake-s,666,2245491,0.0-19.0-0.1-0.172,A3P5P5LGJGB6HD,30UZJB2PPKSSO21QHKUJ0S8JS3B35M,3F0BG9B9MT3BDSARK078DQEFMM17Y8,5,6
173,3,object_06,object_04,541.59499999974,6,2,300.3899999992,0.4444444444444444,2,object_03,1,2050,0,0,4,library_6,2,memory-2step-stake-s,667,2253445,0.0-19.0-0.1-0.173,A3P5P5LGJGB6HD,30UZJB2PPKSSO21QHKUJ0S8JS3B35M,3F0BG9B9MT3BDSARK078DQEFMM17Y8,5,6
174,4,object_07,object_09,788.83999999985,8,1,266.60499999998,0.3333333333333333,2,object_03,1,2053,0,2,3,restaurant_6,2,memory-2step-stake-s,668,2261254,0.0-19.0-0.1-0.174,A3P5P5LGJGB6HD,30UZJB2PPKSSO21QHKUJ0S8JS3B35M,3F0BG9B9MT3BDSARK078DQEFMM17Y8,8,7
175,3,object_04,object_06,625.53500000015,6,1,241.4700000002,0.3333333333333333,2,object_03,1,2056,0,3,3,library_5,2,memory-2step-stake-s,669,2269039,0.0-19.0-0.1-0.175,A3P5P5LGJGB6HD,30UZJB2PPKSSO21QHKUJ0S8JS3B35M,3F0BG9B9MT3BDSARK078DQEFMM17Y8,6,5
176,3,object_06,object_04,843.82499999972,5,1,338.2799999998,0.2222222222222222,1,object_01,1,2058,0,2,1,library_3,2,memory-2step-stake-s,670,2276818,0.0-19.0-0.1-0.176,A3P5P5LGJGB6HD,30UZJB2PPKSSO21QHKUJ0S8JS3B35M,3F0BG9B9MT3BDSARK078DQEFMM17Y8,5,6
177,2,object_10,object_05,423.6799999997,3,2,314.74500000011,0.1111111111111111,1,object_01,1,2059,0,1,2,forest_3,2,memory-2step-stake-s,671,2284457,0.0-19.0-0.1-0.177,A3P5P5LGJGB6HD,30UZJB2PPKSSO21QHKUJ0S8JS3B35M,3F0BG9B9MT3BDSARK078DQEFMM17Y8,4,3
178,1,object_02,object_08,351.3900000006,2,2,274.06499999948,0.0,2,object_03,5,2059,0,0,0,desert_6,2,memory-2step-stake-s,672,2291961,0.0-19.0-0.1-0.178,A3P5P5LGJGB6HD,30UZJB2PPKSSO21QHKUJ0S8JS3B35M,3F0BG9B9MT3BDSARK078DQEFMM17Y8,1,2
179,1,object_02,object_08,373.13000000035,1,1,237.81500000041,0.1111111111111111,1,object_01,1,2060,0,1,1,desert_1,2,memory-2step-stake-s,673,2299539,0.0-19.0-0.1-0.179,A3P5P5LGJGB6HD,30UZJB2PPKSSO21QHKUJ0S8JS3B35M,3F0BG9B9MT3BDSARK078DQEFMM17Y8,1,2
180,2,object_05,object_10,883.37000000058,3,1,-1.0,0.0,1,object_01,1,2060,0,2,2,forest_3,2,memory-2step-stake-s,674,2308074,0.0-19.0-0.1-0.180,A3P5P5LGJGB6HD,30UZJB2PPKSSO21QHKUJ0S8JS3B35M,3F0BG9B9MT3BDSARK078DQEFMM17Y8,3,4
181,2,object_05,object_10,421.58000000054,3,1,398.76500000013,0.0,1,object_01,5,2060,0,0,2,forest_2,2,memory-2step-stake-s,675,2315706,0.0-19.0-0.1-0.181,A3P5P5LGJGB6HD,30UZJB2PPKSSO21QHKUJ0S8JS3B35M,3F0BG9B9MT3BDSARK078DQEFMM17Y8,3,4
182,4,object_07,object_09,684.16999999946,7,2,328.53000000073,0.6666666666666666,1,object_01,1,2066,0,6,4,restaurant_2,2,memory-2step-stake-s,676,2323892,0.0-19.0-0.1-0.182,A3P5P5LGJGB6HD,30UZJB2PPKSSO21QHKUJ0S8JS3B35M,3F0BG9B9MT3BDSARK078DQEFMM17Y8,8,7
183,4,object_07,object_09,549.08000000007,7,2,284.14500000048,0.6666666666666666,1,object_01,1,2072,0,6,4,restaurant_2,2,memory-2step-stake-s,677,2332027,0.0-19.0-0.1-0.183,A3P5P5LGJGB6HD,30UZJB2PPKSSO21QHKUJ0S8JS3B35M,3F0BG9B9MT3BDSARK078DQEFMM17Y8,8,7
184,3,object_04,object_06,816.44000000041,5,2,315.18000000063,0.7777777777777778,1,object_01,1,2079,0,7,2,library_3,2,memory-2step-stake-s,678,2340301,0.0-19.0-0.1-0.184,A3P5P5LGJGB6HD,30UZJB2PPKSSO21QHKUJ0S8JS3B35M,3F0BG9B9MT3BDSARK078DQEFMM17Y8,6,5
185,3,object_06,object_04,829.1099999994,5,1,296.23499999987,0.5555555555555556,1,object_01,5,2104,0,5,6,library_8,2,memory-2step-stake-s,679,2348355,0.0-19.0-0.1-0.185,A3P5P5LGJGB6HD,30UZJB2PPKSSO21QHKUJ0S8JS3B35M,3F0BG9B9MT3BDSARK078DQEFMM17Y8,5,6
186,4,object_09,object_07,427.79000000004,7,1,250.74500000011,0.4444444444444444,1,object_01,5,2124,0,4,5,restaurant_2,2,memory-2step-stake-s,680,2356268,0.0-19.0-0.1-0.186,A3P5P5LGJGB6HD,30UZJB2PPKSSO21QHKUJ0S8JS3B35M,3F0BG9B9MT3BDSARK078DQEFMM17Y8,7,8
187,3,object_06,object_04,395.53500000061,5,1,261.16500000004,0.7777777777777778,1,object_01,5,2159,0,7,6,library_6,2,memory-2step-stake-s,681,2364495,0.0-19.0-0.1-0.187,A3P5P5LGJGB6HD,30UZJB2PPKSSO21QHKUJ0S8JS3B35M,3F0BG9B9MT3BDSARK078DQEFMM17Y8,5,6
188,2,object_05,object_10,607.45500000054,4,2,325.81500000041,0.6666666666666666,2,object_03,5,2189,0,6,6,forest_2,2,memory-2step-stake-s,682,2372684,0.0-19.0-0.1-0.188,A3P5P5LGJGB6HD,30UZJB2PPKSSO21QHKUJ0S8JS3B35M,3F0BG9B9MT3BDSARK078DQEFMM17Y8,3,4
189,2,object_10,object_05,433.57999999961,4,1,309.25,0.7777777777777778,2,object_03,5,2224,0,6,7,forest_3,2,memory-2step-stake-s,683,2380969,0.0-19.0-0.1-0.189,A3P5P5LGJGB6HD,30UZJB2PPKSSO21QHKUJ0S8JS3B35M,3F0BG9B9MT3BDSARK078DQEFMM17Y8,4,3
190,3,object_06,object_04,923.04499999946,5,1,299.61499999976,0.5555555555555556,1,object_01,1,2229,0,5,8,library_6,2,memory-2step-stake-s,684,2389027,0.0-19.0-0.1-0.190,A3P5P5LGJGB6HD,30UZJB2PPKSSO21QHKUJ0S8JS3B35M,3F0BG9B9MT3BDSARK078DQEFMM17Y8,5,6
191,3,object_04,object_06,760.55000000028,5,2,394.31999999937,0.2222222222222222,1,object_01,1,2231,0,2,6,library_3,2,memory-2step-stake-s,685,2396858,0.0-19.0-0.1-0.191,A3P5P5LGJGB6HD,30UZJB2PPKSSO21QHKUJ0S8JS3B35M,3F0BG9B9MT3BDSARK078DQEFMM17Y8,6,5
192,3,object_04,object_06,476.45499999961,6,1,264.44999999972,0.4444444444444444,2,object_03,1,2235,0,2,4,library_8,2,memory-2step-stake-s,686,2404778,0.0-19.0-0.1-0.192,A3P5P5LGJGB6HD,30UZJB2PPKSSO21QHKUJ0S8JS3B35M,3F0BG9B9MT3BDSARK078DQEFMM17Y8,6,5
193,2,object_05,object_10,476.2200000002,3,1,297.6799999997,0.3333333333333333,1,object_01,1,2238,0,3,2,forest_6,2,memory-2step-stake-s,687,2412624,0.0-19.0-0.1-0.193,A3P5P5LGJGB6HD,30UZJB2PPKSSO21QHKUJ0S8JS3B35M,3F0BG9B9MT3BDSARK078DQEFMM17Y8,3,4
194,2,object_10,object_05,454.47000000067,4,1,96.375000000466,0.2222222222222222,2,object_03,5,2248,0,3,2,forest_5,2,memory-2step-stake-s,688,2420175,0.0-19.0-0.1-0.194,A3P5P5LGJGB6HD,30UZJB2PPKSSO21QHKUJ0S8JS3B35M,3F0BG9B9MT3BDSARK078DQEFMM17Y8,4,3
195,3,object_06,object_04,532.82500000019,6,2,289.06999999983,0.1111111111111111,2,object_03,5,2253,0,2,1,library_5,2,memory-2step-stake-s,689,2427803,0.0-19.0-0.1-0.195,A3P5P5LGJGB6HD,30UZJB2PPKSSO21QHKUJ0S8JS3B35M,3F0BG9B9MT3BDSARK078DQEFMM17Y8,5,6
196,3,object_06,object_04,631.01000000024,6,2,467.59999999963,0.4444444444444444,2,object_03,1,2257,0,7,4,library_5,2,memory-2step-stake-s,690,2435914,0.0-19.0-0.1-0.196,A3P5P5LGJGB6HD,30UZJB2PPKSSO21QHKUJ0S8JS3B35M,3F0BG9B9MT3BDSARK078DQEFMM17Y8,5,6
197,2,object_05,object_10,597.47499999963,3,1,288.79999999935,0.8888888888888888,1,object_01,1,2265,0,8,5,forest_3,2,memory-2step-stake-s,691,2444263,0.0-19.0-0.1-0.197,A3P5P5LGJGB6HD,30UZJB2PPKSSO21QHKUJ0S8JS3B35M,3F0BG9B9MT3BDSARK078DQEFMM17Y8,3,4
198,1,object_08,object_02,389.44500000076,2,1,48.109999999404,0.5555555555555556,2,object_03,5,2290,0,7,5,desert_8,2,memory-2step-stake-s,692,2452063,0.0-19.0-0.1-0.198,A3P5P5LGJGB6HD,30UZJB2PPKSSO21QHKUJ0S8JS3B35M,3F0BG9B9MT3BDSARK078DQEFMM17Y8,2,1
199,4,object_09,object_07,609.87000000058,7,1,298.76500000013,0.6666666666666666,1,object_01,1,2296,0,6,6,restaurant_8,2,memory-2step-stake-s,693,2460229,0.0-19.0-0.1-0.199,A3P5P5LGJGB6HD,30UZJB2PPKSSO21QHKUJ0S8JS3B35M,3F0BG9B9MT3BDSARK078DQEFMM17Y8,7,8
200,3,object_06,object_04,598.36999999965,6,2,260.8450000002,0.5555555555555556,2,object_03,1,2301,0,5,5,library_8,2,memory-2step-stake-s,694,2468231,0.0-19.0-0.1-0.200,A3P5P5LGJGB6HD,30UZJB2PPKSSO21QHKUJ0S8JS3B35M,3F0BG9B9MT3BDSARK078DQEFMM17Y8,5,6
201,4,object_09,object_07,553.67500000028,7,1,342.81000000006,0.4444444444444444,1,object_01,1,2305,0,4,6,restaurant_8,2,memory-2step-stake-s,695,2476224,0.0-19.0-0.1-0.201,A3P5P5LGJGB6HD,30UZJB2PPKSSO21QHKUJ0S8JS3B35M,3F0BG9B9MT3BDSARK078DQEFMM17Y8,7,8
202,1,object_02,object_08,401.99000000022,2,2,50.189999999944,0.1111111111111111,2,object_03,5,2310,0,5,1,desert_6,2,memory-2step-stake-s,696,2483616,0.0-19.0-0.1-0.202,A3P5P5LGJGB6HD,30UZJB2PPKSSO21QHKUJ0S8JS3B35M,3F0BG9B9MT3BDSARK078DQEFMM17Y8,1,2
203,4,object_09,object_07,575.41499999957,7,1,48.415000000503,0.4444444444444444,1,object_01,1,2314,0,4,2,restaurant_2,2,memory-2step-stake-s,697,2491313,0.0-19.0-0.1-0.203,A3P5P5LGJGB6HD,30UZJB2PPKSSO21QHKUJ0S8JS3B35M,3F0BG9B9MT3BDSARK078DQEFMM17Y8,7,8
204,1,object_08,object_02,445.48000000045,1,2,452.41499999957,0.5555555555555556,1,object_01,5,2339,0,5,4,desert_6,2,memory-2step-stake-s,698,2499530,0.0-19.0-0.1-0.204,A3P5P5LGJGB6HD,30UZJB2PPKSSO21QHKUJ0S8JS3B35M,3F0BG9B9MT3BDSARK078DQEFMM17Y8,2,1
205,3,object_06,object_04,497.67499999935,6,2,306.33499999996,0.4444444444444444,2,object_03,1,2343,0,6,4,library_6,2,memory-2step-stake-s,699,2507486,0.0-19.0-0.1-0.205,A3P5P5LGJGB6HD,30UZJB2PPKSSO21QHKUJ0S8JS3B35M,3F0BG9B9MT3BDSARK078DQEFMM17Y8,5,6
206,2,object_05,object_10,544.32999999961,3,1,288.69499999983,0.7777777777777778,1,object_01,5,2378,0,7,8,forest_2,2,memory-2step-stake-s,700,2515732,0.0-19.0-0.1-0.206,A3P5P5LGJGB6HD,30UZJB2PPKSSO21QHKUJ0S8JS3B35M,3F0BG9B9MT3BDSARK078DQEFMM17Y8,3,4
207,1,object_02,object_08,419.54999999981,2,2,250.25,0.8888888888888888,2,object_03,1,2386,0,5,8,desert_5,2,memory-2step-stake-s,701,2524055,0.0-19.0-0.1-0.207,A3P5P5LGJGB6HD,30UZJB2PPKSSO21QHKUJ0S8JS3B35M,3F0BG9B9MT3BDSARK078DQEFMM17Y8,1,2
208,1,object_08,object_02,424.93999999994,2,1,298.71999999974,0.4444444444444444,2,object_03,1,2390,0,7,4,desert_8,2,memory-2step-stake-s,702,2531994,0.0-19.0-0.1-0.208,A3P5P5LGJGB6HD,30UZJB2PPKSSO21QHKUJ0S8JS3B35M,3F0BG9B9MT3BDSARK078DQEFMM17Y8,2,1
209,3,object_06,object_04,425.26500000013,6,2,289.9299999997,0.3333333333333333,2,object_03,1,2393,0,8,3,library_5,2,memory-2step-stake-s,703,2539822,0.0-19.0-0.1-0.209,A3P5P5LGJGB6HD,30UZJB2PPKSSO21QHKUJ0S8JS3B35M,3F0BG9B9MT3BDSARK078DQEFMM17Y8,5,6
210,1,object_02,object_08,431.79999999935,2,2,271.88000000035,0.4444444444444444,2,object_03,5,2413,0,5,4,desert_1,2,memory-2step-stake-s,704,2547747,0.0-19.0-0.1-0.210,A3P5P5LGJGB6HD,30UZJB2PPKSSO21QHKUJ0S8JS3B35M,3F0BG9B9MT3BDSARK078DQEFMM17Y8,1,2
211,1,object_08,object_02,364.88499999978,2,1,355.68500000052,0.7777777777777778,2,object_03,5,2448,0,6,7,desert_1,2,memory-2step-stake-s,705,2556060,0.0-19.0-0.1-0.211,A3P5P5LGJGB6HD,30UZJB2PPKSSO21QHKUJ0S8JS3B35M,3F0BG9B9MT3BDSARK078DQEFMM17Y8,2,1
212,3,object_06,object_04,537.60499999952,6,2,288.25499999942,0.7777777777777778,2,object_03,1,2455,0,6,7,library_6,2,memory-2step-stake-s,706,2564311,0.0-19.0-0.1-0.212,A3P5P5LGJGB6HD,30UZJB2PPKSSO21QHKUJ0S8JS3B35M,3F0BG9B9MT3BDSARK078DQEFMM17Y8,5,6
213,3,object_06,object_04,628.32500000065,6,2,251.21000000043,0.8888888888888888,2,object_03,1,2463,0,4,8,library_6,2,memory-2step-stake-s,707,2572638,0.0-19.0-0.1-0.213,A3P5P5LGJGB6HD,30UZJB2PPKSSO21QHKUJ0S8JS3B35M,3F0BG9B9MT3BDSARK078DQEFMM17Y8,5,6
214,4,object_09,object_07,562.02000000048,7,1,260.55999999959,0.5555555555555556,1,object_01,5,2488,0,5,9,restaurant_6,2,memory-2step-stake-s,708,2580657,0.0-19.0-0.1-0.214,A3P5P5LGJGB6HD,30UZJB2PPKSSO21QHKUJ0S8JS3B35M,3F0BG9B9MT3BDSARK078DQEFMM17Y8,7,8
215,2,object_05,object_10,369.25500000035,3,1,305.12000000011,0.4444444444444444,1,object_01,5,2508,0,4,9,forest_5,2,memory-2step-stake-s,709,2588620,0.0-19.0-0.1-0.215,A3P5P5LGJGB6HD,30UZJB2PPKSSO21QHKUJ0S8JS3B35M,3F0BG9B9MT3BDSARK078DQEFMM17Y8,3,4
216,4,object_09,object_07,601.37999999989,7,1,284.04499999946,0.6666666666666666,1,object_01,1,2514,0,6,8,restaurant_1,2,memory-2step-stake-s,710,2596749,0.0-19.0-0.1-0.216,A3P5P5LGJGB6HD,30UZJB2PPKSSO21QHKUJ0S8JS3B35M,3F0BG9B9MT3BDSARK078DQEFMM17Y8,7,8
217,4,object_09,object_07,538.01500000013,7,1,249.56000000052,0.6666666666666666,1,object_01,1,2520,0,6,9,restaurant_6,2,memory-2step-stake-s,711,2604859,0.0-19.0-0.1-0.217,A3P5P5LGJGB6HD,30UZJB2PPKSSO21QHKUJ0S8JS3B35M,3F0BG9B9MT3BDSARK078DQEFMM17Y8,7,8
218,3,object_06,object_04,791.20500000054,6,2,313.45499999914,0.7777777777777778,2,object_03,5,2555,0,6,7,library_6,2,memory-2step-stake-s,712,2613125,0.0-19.0-0.1-0.218,A3P5P5LGJGB6HD,30UZJB2PPKSSO21QHKUJ0S8JS3B35M,3F0BG9B9MT3BDSARK078DQEFMM17Y8,5,6
219,1,object_08,object_02,410.78499999968,2,1,267.60999999987,0.5555555555555556,2,object_03,5,2580,0,5,5,desert_8,2,memory-2step-stake-s,713,2621140,0.0-19.0-0.1-0.219,A3P5P5LGJGB6HD,30UZJB2PPKSSO21QHKUJ0S8JS3B35M,3F0BG9B9MT3BDSARK078DQEFMM17Y8,2,1
220,1,object_08,object_02,400.35499999998,2,1,374.60000000009,0.5555555555555556,2,object_03,5,2605,0,6,5,desert_8,2,memory-2step-stake-s,714,2629282,0.0-19.0-0.1-0.220,A3P5P5LGJGB6HD,30UZJB2PPKSSO21QHKUJ0S8JS3B35M,3F0BG9B9MT3BDSARK078DQEFMM17Y8,2,1
221,2,object_10,object_05,560.07999999961,3,2,287.23999999976,0.7777777777777778,1,object_01,5,2640,0,7,6,forest_2,2,memory-2step-stake-s,715,2637546,0.0-19.0-0.1-0.221,A3P5P5LGJGB6HD,30UZJB2PPKSSO21QHKUJ0S8JS3B35M,3F0BG9B9MT3BDSARK078DQEFMM17Y8,4,3
222,3,object_06,object_04,419.27499999944,5,1,272.45000000019,0.3333333333333333,1,object_01,5,2655,0,3,6,library_3,2,memory-2step-stake-s,716,2645367,0.0-19.0-0.1-0.222,A3P5P5LGJGB6HD,30UZJB2PPKSSO21QHKUJ0S8JS3B35M,3F0BG9B9MT3BDSARK078DQEFMM17Y8,5,6
223,2,object_10,object_05,395.57500000065,3,2,344.08999999939,0.2222222222222222,1,object_01,5,2665,0,2,7,forest_5,2,memory-2step-stake-s,717,2653148,0.0-19.0-0.1-0.223,A3P5P5LGJGB6HD,30UZJB2PPKSSO21QHKUJ0S8JS3B35M,3F0BG9B9MT3BDSARK078DQEFMM17Y8,4,3
224,1,object_02,object_08,599.55999999959,2,2,306.5400000005,0.5555555555555556,2,object_03,5,2690,0,5,5,desert_1,2,memory-2step-stake-s,718,2661200,0.0-19.0-0.1-0.224,A3P5P5LGJGB6HD,30UZJB2PPKSSO21QHKUJ0S8JS3B35M,3F0BG9B9MT3BDSARK078DQEFMM17Y8,1,2
225,2,object_05,object_10,638.82499999972,4,2,299.18500000006,0.5555555555555556,2,object_03,5,2715,0,8,5,forest_3,2,memory-2step-stake-s,719,2669244,0.0-19.0-0.1-0.225,A3P5P5LGJGB6HD,30UZJB2PPKSSO21QHKUJ0S8JS3B35M,3F0BG9B9MT3BDSARK078DQEFMM17Y8,3,4
226,2,object_05,object_10,432.39999999944,4,2,339.93999999994,0.4444444444444444,2,object_03,5,2735,0,8,4,forest_6,2,memory-2step-stake-s,720,2677226,0.0-19.0-0.1-0.226,A3P5P5LGJGB6HD,30UZJB2PPKSSO21QHKUJ0S8JS3B35M,3F0BG9B9MT3BDSARK078DQEFMM17Y8,3,4
227,4,object_07,object_09,489.56000000006,7,2,230.56999999983,0.8888888888888888,1,object_01,1,2743,0,8,5,restaurant_2,2,memory-2step-stake-s,721,2685521,0.0-19.0-0.1-0.227,A3P5P5LGJGB6HD,30UZJB2PPKSSO21QHKUJ0S8JS3B35M,3F0BG9B9MT3BDSARK078DQEFMM17Y8,8,7
228,1,object_02,object_08,417.3900000006,2,2,338.12999999989,0.5555555555555556,2,object_03,5,2768,0,9,5,desert_1,2,memory-2step-stake-s,722,2693606,0.0-19.0-0.1-0.228,A3P5P5LGJGB6HD,30UZJB2PPKSSO21QHKUJ0S8JS3B35M,3F0BG9B9MT3BDSARK078DQEFMM17Y8,1,2
229,3,object_06,object_04,875.96499999939,5,1,287.40000000037,0.8888888888888888,1,object_01,1,2776,0,8,0,library_8,2,memory-2step-stake-s,723,2701952,0.0-19.0-0.1-0.229,A3P5P5LGJGB6HD,30UZJB2PPKSSO21QHKUJ0S8JS3B35M,3F0BG9B9MT3BDSARK078DQEFMM17Y8,5,6
230,3,object_04,object_06,471.70499999961,5,2,276.43499999959,0.7777777777777778,1,object_01,1,2783,0,7,2,library_3,2,memory-2step-stake-s,724,2710163,0.0-19.0-0.1-0.230,A3P5P5LGJGB6HD,30UZJB2PPKSSO21QHKUJ0S8JS3B35M,3F0BG9B9MT3BDSARK078DQEFMM17Y8,6,5
231,3,object_04,object_06,459.3450000002,5,2,284.08500000043,0.6666666666666666,1,object_01,1,2789,0,6,1,library_8,2,memory-2step-stake-s,725,2718291,0.0-19.0-0.1-0.231,A3P5P5LGJGB6HD,30UZJB2PPKSSO21QHKUJ0S8JS3B35M,3F0BG9B9MT3BDSARK078DQEFMM17Y8,6,5
232,2,object_10,object_05,556.80000000028,4,1,368.61500000022,0.2222222222222222,2,object_03,5,2799,0,3,2,forest_6,2,memory-2step-stake-s,726,2726104,0.0-19.0-0.1-0.232,A3P5P5LGJGB6HD,30UZJB2PPKSSO21QHKUJ0S8JS3B35M,3F0BG9B9MT3BDSARK078DQEFMM17Y8,4,3
233,4,object_07,object_09,661.79499999993,7,2,253.69499999937,0.1111111111111111,1,object_01,1,2800,0,1,3,restaurant_1,2,memory-2step-stake-s,727,2733695,0.0-19.0-0.1-0.233,A3P5P5LGJGB6HD,30UZJB2PPKSSO21QHKUJ0S8JS3B35M,3F0BG9B9MT3BDSARK078DQEFMM17Y8,8,7
234,2,object_05,object_10,401.45999999996,3,1,277.27500000037,0.0,1,object_01,1,2800,0,0,6,forest_3,2,memory-2step-stake-s,728,2741203,0.0-19.0-0.1-0.234,A3P5P5LGJGB6HD,30UZJB2PPKSSO21QHKUJ0S8JS3B35M,3F0BG9B9MT3BDSARK078DQEFMM17Y8,3,4
235,2,object_05,object_10,513.86499999976,4,2,257.1400000006,0.8888888888888888,2,object_03,5,2840,0,3,8,forest_3,2,memory-2step-stake-s,729,2749522,0.0-19.0-0.1-0.235,A3P5P5LGJGB6HD,30UZJB2PPKSSO21QHKUJ0S8JS3B35M,3F0BG9B9MT3BDSARK078DQEFMM17Y8,3,4
236,3,object_06,object_04,520.92999999924,5,1,262.21499999939,0.4444444444444444,1,object_01,5,2860,0,4,8,library_6,2,memory-2step-stake-s,730,2757441,0.0-19.0-0.1-0.236,A3P5P5LGJGB6HD,30UZJB2PPKSSO21QHKUJ0S8JS3B35M,3F0BG9B9MT3BDSARK078DQEFMM17Y8,5,6
237,1,object_08,object_02,397.95999999996,2,1,238.39500000002,0.8888888888888888,2,object_03,5,2900,0,2,8,desert_1,2,memory-2step-stake-s,731,2765756,0.0-19.0-0.1-0.237,A3P5P5LGJGB6HD,30UZJB2PPKSSO21QHKUJ0S8JS3B35M,3F0BG9B9MT3BDSARK078DQEFMM17Y8,2,1
238,4,object_09,object_07,917.16500000004,7,1,345.46499999985,0.3333333333333333,1,object_01,1,2903,0,3,8,restaurant_2,2,memory-2step-stake-s,732,2773644,0.0-19.0-0.1-0.238,A3P5P5LGJGB6HD,30UZJB2PPKSSO21QHKUJ0S8JS3B35M,3F0BG9B9MT3BDSARK078DQEFMM17Y8,7,8
239,2,object_10,object_05,296.87999999989,3,2,313.77000000048,0.4444444444444444,1,object_01,1,2907,0,4,9,forest_6,2,memory-2step-stake-s,733,2781603,0.0-19.0-0.1-0.239,A3P5P5LGJGB6HD,30UZJB2PPKSSO21QHKUJ0S8JS3B35M,3F0BG9B9MT3BDSARK078DQEFMM17Y8,4,3
240,2,object_05,object_10,399.52499999991,3,1,295.78000000026,0.0,1,object_01,1,2907,0,0,8,forest_3,2,memory-2step-stake-s,734,2789136,0.0-19.0-0.1-0.240,A3P5P5LGJGB6HD,30UZJB2PPKSSO21QHKUJ0S8JS3B35M,3F0BG9B9MT3BDSARK078DQEFMM17Y8,3,4
241,3,object_04,object_06,497.53499999968,6,1,343.25,0.7777777777777778,2,object_03,1,2914,0,1,7,library_8,2,memory-2step-stake-s,735,2797447,0.0-19.0-0.1-0.241,A3P5P5LGJGB6HD,30UZJB2PPKSSO21QHKUJ0S8JS3B35M,3F0BG9B9MT3BDSARK078DQEFMM17Y8,6,5
242,4,object_09,object_07,849.17499999935,7,1,280.62499999907,0.3333333333333333,1,object_01,1,2917,0,3,8,restaurant_1,2,memory-2step-stake-s,736,2805276,0.0-19.0-0.1-0.242,A3P5P5LGJGB6HD,30UZJB2PPKSSO21QHKUJ0S8JS3B35M,3F0BG9B9MT3BDSARK078DQEFMM17Y8,7,8
243,1,object_02,object_08,438.00999999978,1,1,295.35000000056,0.3333333333333333,1,object_01,5,2932,0,3,5,desert_5,2,memory-2step-stake-s,737,2813114,0.0-19.0-0.1-0.243,A3P5P5LGJGB6HD,30UZJB2PPKSSO21QHKUJ0S8JS3B35M,3F0BG9B9MT3BDSARK078DQEFMM17Y8,1,2
244,4,object_07,object_09,636.04500000039,8,1,405.93000000017,0.6666666666666666,2,object_03,1,2938,0,2,6,restaurant_1,2,memory-2step-stake-s,738,2821379,0.0-19.0-0.1-0.244,A3P5P5LGJGB6HD,30UZJB2PPKSSO21QHKUJ0S8JS3B35M,3F0BG9B9MT3BDSARK078DQEFMM17Y8,8,7
245,2,object_10,object_05,448.62999999989,3,2,248.24499999965,0.1111111111111111,1,object_01,5,2943,0,1,1,forest_6,2,memory-2step-stake-s,739,2828964,0.0-19.0-0.1-0.245,A3P5P5LGJGB6HD,30UZJB2PPKSSO21QHKUJ0S8JS3B35M,3F0BG9B9MT3BDSARK078DQEFMM17Y8,4,3
246,1,object_08,object_02,389.95000000065,2,1,258.37000000058,0.5555555555555556,2,object_03,5,2968,0,2,5,desert_5,2,memory-2step-stake-s,740,2836974,0.0-19.0-0.1-0.246,A3P5P5LGJGB6HD,30UZJB2PPKSSO21QHKUJ0S8JS3B35M,3F0BG9B9MT3BDSARK078DQEFMM17Y8,2,1
247,1,object_02,object_08,403.125,2,2,264.06499999994,0.7777777777777778,2,object_03,5,3003,0,0,7,desert_6,2,memory-2step-stake-s,741,2845191,0.0-19.0-0.1-0.247,A3P5P5LGJGB6HD,30UZJB2PPKSSO21QHKUJ0S8JS3B35M,3F0BG9B9MT3BDSARK078DQEFMM17Y8,1,2
248,4,object_07,object_09,642.75,8,1,332.72499999916,0.8888888888888888,2,object_03,1,3011,0,0,8,restaurant_1,2,memory-2step-stake-s,742,2853590,0.0-19.0-0.1-0.248,A3P5P5LGJGB6HD,30UZJB2PPKSSO21QHKUJ0S8JS3B35M,3F0BG9B9MT3BDSARK078DQEFMM17Y8,8,7
249,3,object_04,object_06,584.98999999929,5,2,269.67500000075,0.4444444444444444,1,object_01,1,3015,0,4,6,library_5,2,memory-2step-stake-s,743,2861518,0.0-19.0-0.1-0.249,A3P5P5LGJGB6HD,30UZJB2PPKSSO21QHKUJ0S8JS3B35M,3F0BG9B9MT3BDSARK078DQEFMM17Y8,6,5
250,1,object_02,object_08,418.9299999997,2,2,195.25,0.7777777777777778,2,object_03,5,3050,0,4,7,desert_5,2,memory-2step-stake-s,744,2869693,0.0-19.0-0.1-0.250,A3P5P5LGJGB6HD,30UZJB2PPKSSO21QHKUJ0S8JS3B35M,3F0BG9B9MT3BDSARK078DQEFMM17Y8,1,2
251,4,object_09,object_07,665.5849999995,8,2,300.36500000022,0.8888888888888888,2,object_03,1,3058,0,3,8,restaurant_1,2,memory-2step-stake-s,745,2878050,0.0-19.0-0.1-0.251,A3P5P5LGJGB6HD,30UZJB2PPKSSO21QHKUJ0S8JS3B35M,3F0BG9B9MT3BDSARK078DQEFMM17Y8,7,8
252,2,object_05,object_10,558.875,3,1,297.56499999994,0.2222222222222222,1,object_01,5,3068,0,2,9,forest_2,2,memory-2step-stake-s,746,2885779,0.0-19.0-0.1-0.252,A3P5P5LGJGB6HD,30UZJB2PPKSSO21QHKUJ0S8JS3B35M,3F0BG9B9MT3BDSARK078DQEFMM17Y8,3,4
253,4,object_07,object_09,626.47999999998,8,1,260.51499999966,1.0,2,object_03,1,3077,0,1,9,restaurant_2,2,memory-2step-stake-s,747,2894207,0.0-19.0-0.1-0.253,A3P5P5LGJGB6HD,30UZJB2PPKSSO21QHKUJ0S8JS3B35M,3F0BG9B9MT3BDSARK078DQEFMM17Y8,8,7
254,1,object_08,object_02,508.20999999996,1,2,285.41999999946,0.6666666666666666,1,object_01,5,3107,0,6,7,desert_1,2,memory-2step-stake-s,748,2902342,0.0-19.0-0.1-0.254,A3P5P5LGJGB6HD,30UZJB2PPKSSO21QHKUJ0S8JS3B35M,3F0BG9B9MT3BDSARK078DQEFMM17Y8,2,1
255,4,object_07,object_09,627.125,8,1,273.96500000032,0.6666666666666666,2,object_03,1,3113,0,8,6,restaurant_6,2,memory-2step-stake-s,749,2910487,0.0-19.0-0.1-0.255,A3P5P5LGJGB6HD,30UZJB2PPKSSO21QHKUJ0S8JS3B35M,3F0BG9B9MT3BDSARK078DQEFMM17Y8,8,7
