,state1,stim_left,stim_right,rt_1,choice1,response1,rt_2,points,state2,stim_state2,stake,score,practice,rews1,rews2,background,high_arm,trial_type,trial_index,time_elapsed,internal_node_id,subid,hitid,assignmentid,stim_left_num,stim_right_num
0,4,object_09,object_04,1088.0,7,2,-1.0,0.0,1,object_08,5,0,0,2,4,restaurant_8,2,memory-2step-stake-s,489,1369900,0.0-19.0-0.0-0.0,A3JI3B5GTVA95F,3QX22DUVPRXA8IOFTTHB0PBO5I3MV1,36U2A8VAG5FZ87HB3UWHHVJ1S9ZKYV,8,7
1,2,object_01,object_03,959.0,4,1,1028.0,0.4444444444444444,2,object_06,5,20,0,4,4,forest_4,2,memory-2step-stake-s,490,1378589,0.0-19.0-0.0-0.1,A3JI3B5GTVA95F,3QX22DUVPRXA8IOFTTHB0PBO5I3MV1,36U2A8VAG5FZ87HB3UWHHVJ1S9ZKYV,4,3
2,4,object_09,object_04,933.0,7,2,754.0,0.4444444444444444,1,object_08,1,24,0,4,4,restaurant_3,2,memory-2step-stake-s,491,1386968,0.0-19.0-0.0-0.2,A3JI3B5GTVA95F,3QX22DUVPRXA8IOFTTHB0PBO5I3MV1,36U2A8VAG5FZ87HB3UWHHVJ1S9ZKYV,8,7
3,4,object_04,object_09,872.0,8,2,1044.0,0.2222222222222222,2,object_06,1,26,0,4,2,restaurant_3,2,memory-2step-stake-s,492,1395458,0.0-19.0-0.0-0.3,A3JI3B5GTVA95F,3QX22DUVPRXA8IOFTTHB0PBO5I3MV1,36U2A8VAG5FZ87HB3UWHHVJ1S9ZKYV,7,8
4,2,object_01,object_03,822.0,4,1,698.0,0.0,2,object_06,5,26,0,3,0,forest_1,2,memory-2step-stake-s,493,1403398,0.0-19.0-0.0-0.4,A3JI3B5GTVA95F,3QX22DUVPRXA8IOFTTHB0PBO5I3MV1,36U2A8VAG5FZ87HB3UWHHVJ1S9ZKYV,4,3
5,2,object_01,object_03,986.0,3,2,927.0,0.4444444444444444,1,object_08,5,46,0,4,0,forest_1,2,memory-2step-stake-s,494,1411978,0.0-19.0-0.0-0.5,A3JI3B5GTVA95F,3QX22DUVPRXA8IOFTTHB0PBO5I3MV1,36U2A8VAG5FZ87HB3UWHHVJ1S9ZKYV,4,3
6,3,object_02,object_07,838.0,5,2,834.0,0.7777777777777778,1,object_08,1,53,0,7,0,library_1,2,memory-2step-stake-s,495,1420747,0.0-19.0-0.0-0.6,A3JI3B5GTVA95F,3QX22DUVPRXA8IOFTTHB0PBO5I3MV1,36U2A8VAG5FZ87HB3UWHHVJ1S9ZKYV,6,5
7,4,object_04,object_09,956.0,8,2,856.0,0.2222222222222222,2,object_06,1,55,0,7,2,restaurant_4,2,memory-2step-stake-s,496,1429037,0.0-19.0-0.0-0.7,A3JI3B5GTVA95F,3QX22DUVPRXA8IOFTTHB0PBO5I3MV1,36U2A8VAG5FZ87HB3UWHHVJ1S9ZKYV,7,8
8,1,object_05,object_10,658.0,2,1,806.0,0.5555555555555556,2,object_06,1,60,0,8,5,desert_5,2,memory-2step-stake-s,497,1437588,0.0-19.0-0.0-0.8,A3JI3B5GTVA95F,3QX22DUVPRXA8IOFTTHB0PBO5I3MV1,36U2A8VAG5FZ87HB3UWHHVJ1S9ZKYV,2,1
9,3,object_02,object_07,875.0,5,2,897.0,0.6666666666666666,1,object_08,1,66,0,6,3,library_6,2,memory-2step-stake-s,498,1446328,0.0-19.0-0.0-0.9,A3JI3B5GTVA95F,3QX22DUVPRXA8IOFTTHB0PBO5I3MV1,36U2A8VAG5FZ87HB3UWHHVJ1S9ZKYV,6,5
10,3,object_02,object_07,688.0,6,1,883.0,0.4444444444444444,2,object_06,1,70,0,5,4,library_6,2,memory-2step-stake-s,499,1454848,0.0-19.0-0.0-0.10,A3JI3B5GTVA95F,3QX22DUVPRXA8IOFTTHB0PBO5I3MV1,36U2A8VAG5FZ87HB3UWHHVJ1S9ZKYV,6,5
11,1,object_05,object_10,831.0,2,1,867.0,0.4444444444444444,2,object_06,5,90,0,7,4,desert_3,2,memory-2step-stake-s,500,1463357,0.0-19.0-0.0-0.11,A3JI3B5GTVA95F,3QX22DUVPRXA8IOFTTHB0PBO5I3MV1,36U2A8VAG5FZ87HB3UWHHVJ1S9ZKYV,2,1
12,4,object_09,object_04,985.0,8,1,797.0,0.1111111111111111,2,object_06,1,91,0,9,1,restaurant_8,2,memory-2step-stake-s,501,1471488,0.0-19.0-0.0-0.12,A3JI3B5GTVA95F,3QX22DUVPRXA8IOFTTHB0PBO5I3MV1,36U2A8VAG5FZ87HB3UWHHVJ1S9ZKYV,8,7
13,2,object_01,object_03,952.0,4,1,774.0,0.2222222222222222,2,object_06,5,101,0,8,2,forest_7,2,memory-2step-stake-s,502,1479687,0.0-19.0-0.0-0.13,A3JI3B5GTVA95F,3QX22DUVPRXA8IOFTTHB0PBO5I3MV1,36U2A8VAG5FZ87HB3UWHHVJ1S9ZKYV,4,3
14,1,object_05,object_10,743.0,1,2,730.0,0.8888888888888888,1,object_08,5,141,0,8,2,desert_8,2,memory-2step-stake-s,503,1488456,0.0-19.0-0.0-0.14,A3JI3B5GTVA95F,3QX22DUVPRXA8IOFTTHB0PBO5I3MV1,36U2A8VAG5FZ87HB3UWHHVJ1S9ZKYV,2,1
15,3,object_07,object_02,973.0,5,1,689.0,0.6666666666666666,1,object_08,1,147,0,6,2,library_7,2,memory-2step-stake-s,504,1496997,0.0-19.0-0.0-0.15,A3JI3B5GTVA95F,3QX22DUVPRXA8IOFTTHB0PBO5I3MV1,36U2A8VAG5FZ87HB3UWHHVJ1S9ZKYV,5,6
16,2,object_01,object_03,754.0,3,2,687.0,0.5555555555555556,1,object_08,1,152,0,5,1,forest_5,2,memory-2step-stake-s,505,1505406,0.0-19.0-0.0-0.16,A3JI3B5GTVA95F,3QX22DUVPRXA8IOFTTHB0PBO5I3MV1,36U2A8VAG5FZ87HB3UWHHVJ1S9ZKYV,4,3
17,1,object_10,object_05,896.0,1,1,741.0,0.8888888888888888,1,object_08,5,192,0,8,1,desert_6,2,memory-2step-stake-s,506,1514177,0.0-19.0-0.0-0.17,A3JI3B5GTVA95F,3QX22DUVPRXA8IOFTTHB0PBO5I3MV1,36U2A8VAG5FZ87HB3UWHHVJ1S9ZKYV,1,2
18,1,object_10,object_05,902.0,1,1,538.0,0.7777777777777778,1,object_08,1,199,0,7,2,desert_3,2,memory-2step-stake-s,507,1522647,0.0-19.0-0.0-0.18,A3JI3B5GTVA95F,3QX22DUVPRXA8IOFTTHB0PBO5I3MV1,36U2A8VAG5FZ87HB3UWHHVJ1S9ZKYV,1,2
19,2,object_01,object_03,1206.0,3,2,634.0,0.4444444444444444,1,object_08,5,219,0,4,4,forest_5,2,memory-2step-stake-s,508,1530936,0.0-19.0-0.0-0.19,A3JI3B5GTVA95F,3QX22DUVPRXA8IOFTTHB0PBO5I3MV1,36U2A8VAG5FZ87HB3UWHHVJ1S9ZKYV,4,3
20,3,object_02,object_07,900.0,5,2,648.0,0.5555555555555556,1,object_08,1,224,0,5,3,library_6,2,memory-2step-stake-s,509,1539327,0.0-19.0-0.0-0.20,A3JI3B5GTVA95F,3QX22DUVPRXA8IOFTTHB0PBO5I3MV1,36U2A8VAG5FZ87HB3UWHHVJ1S9ZKYV,6,5
21,4,object_04,object_09,838.0,8,2,825.0,0.2222222222222222,2,object_06,1,226,0,4,2,restaurant_2,2,memory-2step-stake-s,510,1547587,0.0-19.0-0.0-0.21,A3JI3B5GTVA95F,3QX22DUVPRXA8IOFTTHB0PBO5I3MV1,36U2A8VAG5FZ87HB3UWHHVJ1S9ZKYV,7,8
22,4,object_09,object_04,1129.0,8,1,646.0,0.3333333333333333,2,object_06,1,229,0,3,3,restaurant_3,2,memory-2step-stake-s,511,1555766,0.0-19.0-0.0-0.22,A3JI3B5GTVA95F,3QX22DUVPRXA8IOFTTHB0PBO5I3MV1,36U2A8VAG5FZ87HB3UWHHVJ1S9ZKYV,8,7
23,3,object_07,object_02,1046.0,5,1,634.0,0.0,1,object_08,1,229,0,0,4,library_7,2,memory-2step-stake-s,512,1563638,0.0-19.0-0.0-0.23,A3JI3B5GTVA95F,3QX22DUVPRXA8IOFTTHB0PBO5I3MV1,36U2A8VAG5FZ87HB3UWHHVJ1S9ZKYV,5,6
24,2,object_01,object_03,934.0,3,2,570.0,0.2222222222222222,1,object_08,5,239,0,2,3,forest_7,2,memory-2step-stake-s,513,1571647,0.0-19.0-0.0-0.24,A3JI3B5GTVA95F,3QX22DUVPRXA8IOFTTHB0PBO5I3MV1,36U2A8VAG5FZ87HB3UWHHVJ1S9ZKYV,4,3
25,2,object_03,object_01,803.0,3,1,607.0,0.0,1,object_08,5,239,0,0,0,forest_1,2,memory-2step-stake-s,514,1579497,0.0-19.0-0.0-0.25,A3JI3B5GTVA95F,3QX22DUVPRXA8IOFTTHB0PBO5I3MV1,36U2A8VAG5FZ87HB3UWHHVJ1S9ZKYV,3,4
26,4,object_09,object_04,939.0,8,1,512.0,0.1111111111111111,2,object_06,1,240,0,3,1,restaurant_3,2,memory-2step-stake-s,515,1587337,0.0-19.0-0.0-0.26,A3JI3B5GTVA95F,3QX22DUVPRXA8IOFTTHB0PBO5I3MV1,36U2A8VAG5FZ87HB3UWHHVJ1S9ZKYV,8,7
27,1,object_05,object_10,746.0,1,2,517.0,0.2222222222222222,1,object_08,5,250,0,2,1,desert_6,2,memory-2step-stake-s,516,1595297,0.0-19.0-0.0-0.27,A3JI3B5GTVA95F,3QX22DUVPRXA8IOFTTHB0PBO5I3MV1,36U2A8VAG5FZ87HB3UWHHVJ1S9ZKYV,2,1
28,1,object_10,object_05,666.0,1,1,590.0,0.1111111111111111,1,object_08,5,255,0,1,1,desert_6,2,memory-2step-stake-s,517,1603226,0.0-19.0-0.0-0.28,A3JI3B5GTVA95F,3QX22DUVPRXA8IOFTTHB0PBO5I3MV1,36U2A8VAG5FZ87HB3UWHHVJ1S9ZKYV,1,2
29,3,object_02,object_07,831.0,6,1,756.0,0.1111111111111111,2,object_06,1,256,0,2,1,library_1,2,memory-2step-stake-s,518,1611316,0.0-19.0-0.0-0.29,A3JI3B5GTVA95F,3QX22DUVPRXA8IOFTTHB0PBO5I3MV1,36U2A8VAG5FZ87HB3UWHHVJ1S9ZKYV,6,5
30,4,object_09,object_04,846.0,7,2,674.0,0.1111111111111111,1,object_08,1,257,0,1,0,restaurant_4,2,memory-2step-stake-s,519,1619326,0.0-19.0-0.0-0.30,A3JI3B5GTVA95F,3QX22DUVPRXA8IOFTTHB0PBO5I3MV1,36U2A8VAG5FZ87HB3UWHHVJ1S9ZKYV,8,7
31,4,object_09,object_04,820.0,8,1,543.0,0.2222222222222222,2,object_06,1,259,0,2,2,restaurant_3,2,memory-2step-stake-s,520,1627306,0.0-19.0-0.0-0.31,A3JI3B5GTVA95F,3QX22DUVPRXA8IOFTTHB0PBO5I3MV1,36U2A8VAG5FZ87HB3UWHHVJ1S9ZKYV,8,7
32,1,object_10,object_05,832.0,1,1,500.0,0.2222222222222222,1,object_08,5,269,0,2,1,desert_6,2,memory-2step-stake-s,521,1635246,0.0-19.0-0.0-0.32,A3JI3B5GTVA95F,3QX22DUVPRXA8IOFTTHB0PBO5I3MV1,36U2A8VAG5FZ87HB3UWHHVJ1S9ZKYV,1,2
33,4,object_04,object_09,875.0,7,1,479.0,0.5555555555555556,1,object_08,1,274,0,5,4,restaurant_3,2,memory-2step-stake-s,522,1643465,0.0-19.0-0.0-0.33,A3JI3B5GTVA95F,3QX22DUVPRXA8IOFTTHB0PBO5I3MV1,36U2A8VAG5FZ87HB3UWHHVJ1S9ZKYV,7,8
34,2,object_01,object_03,873.0,4,1,486.0,0.5555555555555556,2,object_06,5,299,0,1,5,forest_7,2,memory-2step-stake-s,523,1651675,0.0-19.0-0.0-0.34,A3JI3B5GTVA95F,3QX22DUVPRXA8IOFTTHB0PBO5I3MV1,36U2A8VAG5FZ87HB3UWHHVJ1S9ZKYV,4,3
35,2,object_03,object_01,982.0,4,2,499.0,0.8888888888888888,2,object_06,5,339,0,0,8,forest_1,2,memory-2step-stake-s,524,1660215,0.0-19.0-0.0-0.35,A3JI3B5GTVA95F,3QX22DUVPRXA8IOFTTHB0PBO5I3MV1,36U2A8VAG5FZ87HB3UWHHVJ1S9ZKYV,3,4
36,3,object_07,object_02,770.0,5,1,510.0,0.2222222222222222,1,object_08,1,341,0,2,3,library_6,2,memory-2step-stake-s,525,1668165,0.0-19.0-0.0-0.36,A3JI3B5GTVA95F,3QX22DUVPRXA8IOFTTHB0PBO5I3MV1,36U2A8VAG5FZ87HB3UWHHVJ1S9ZKYV,5,6
37,4,object_09,object_04,916.0,7,2,432.0,0.1111111111111111,1,object_08,5,346,0,1,4,restaurant_2,2,memory-2step-stake-s,526,1675935,0.0-19.0-0.0-0.37,A3JI3B5GTVA95F,3QX22DUVPRXA8IOFTTHB0PBO5I3MV1,36U2A8VAG5FZ87HB3UWHHVJ1S9ZKYV,8,7
38,2,object_03,object_01,914.0,4,2,453.0,0.2222222222222222,2,object_06,5,356,0,1,2,forest_5,2,memory-2step-stake-s,527,1683825,0.0-19.0-0.0-0.38,A3JI3B5GTVA95F,3QX22DUVPRXA8IOFTTHB0PBO5I3MV1,36U2A8VAG5FZ87HB3UWHHVJ1S9ZKYV,3,4
39,3,object_07,object_02,784.0,5,1,596.0,0.3333333333333333,1,object_08,5,371,0,3,1,library_1,2,memory-2step-stake-s,528,1691953,0.0-19.0-0.0-0.39,A3JI3B5GTVA95F,3QX22DUVPRXA8IOFTTHB0PBO5I3MV1,36U2A8VAG5FZ87HB3UWHHVJ1S9ZKYV,5,6
40,4,object_09,object_04,862.0,8,1,474.0,0.1111111111111111,2,object_06,1,372,0,2,1,restaurant_3,2,memory-2step-stake-s,529,1699774,0.0-19.0-0.0-0.40,A3JI3B5GTVA95F,3QX22DUVPRXA8IOFTTHB0PBO5I3MV1,36U2A8VAG5FZ87HB3UWHHVJ1S9ZKYV,8,7
41,4,object_04,object_09,1146.0,7,1,525.0,0.0,1,object_08,1,372,0,0,1,restaurant_8,2,memory-2step-stake-s,530,1707533,0.0-19.0-0.0-0.41,A3JI3B5GTVA95F,3QX22DUVPRXA8IOFTTHB0PBO5I3MV1,36U2A8VAG5FZ87HB3UWHHVJ1S9ZKYV,7,8
42,4,object_04,object_09,1035.0,7,1,608.0,0.5555555555555556,1,object_08,5,397,0,5,1,restaurant_3,2,memory-2step-stake-s,531,1715873,0.0-19.0-0.0-0.42,A3JI3B5GTVA95F,3QX22DUVPRXA8IOFTTHB0PBO5I3MV1,36U2A8VAG5FZ87HB3UWHHVJ1S9ZKYV,7,8
43,1,object_05,object_10,797.0,1,2,538.0,0.3333333333333333,1,object_08,5,412,0,3,1,desert_5,2,memory-2step-stake-s,532,1723963,0.0-19.0-0.0-0.43,A3JI3B5GTVA95F,3QX22DUVPRXA8IOFTTHB0PBO5I3MV1,36U2A8VAG5FZ87HB3UWHHVJ1S9ZKYV,2,1
44,2,object_03,object_01,1027.0,4,2,616.0,0.2222222222222222,2,object_06,1,414,0,5,2,forest_4,2,memory-2step-stake-s,533,1732012,0.0-19.0-0.0-0.44,A3JI3B5GTVA95F,3QX22DUVPRXA8IOFTTHB0PBO5I3MV1,36U2A8VAG5FZ87HB3UWHHVJ1S9ZKYV,3,4
45,3,object_07,object_02,626.0,5,1,622.0,0.4444444444444444,1,object_08,1,418,0,4,2,library_7,2,memory-2step-stake-s,534,1740273,0.0-19.0-0.0-0.45,A3JI3B5GTVA95F,3QX22DUVPRXA8IOFTTHB0PBO5I3MV1,36U2A8VAG5FZ87HB3UWHHVJ1S9ZKYV,5,6
46,3,object_02,object_07,806.0,5,2,594.0,0.6666666666666666,1,object_08,1,424,0,6,2,library_8,2,memory-2step-stake-s,535,1748722,0.0-19.0-0.0-0.46,A3JI3B5GTVA95F,3QX22DUVPRXA8IOFTTHB0PBO5I3MV1,36U2A8VAG5FZ87HB3UWHHVJ1S9ZKYV,6,5
47,1,object_10,object_05,795.0,1,1,671.0,1.0,1,object_08,1,433,0,9,1,desert_5,2,memory-2step-stake-s,536,1757532,0.0-19.0-0.0-0.47,A3JI3B5GTVA95F,3QX22DUVPRXA8IOFTTHB0PBO5I3MV1,36U2A8VAG5FZ87HB3UWHHVJ1S9ZKYV,1,2
48,2,object_03,object_01,874.0,3,1,565.0,0.8888888888888888,1,object_08,1,441,0,8,0,forest_4,2,memory-2step-stake-s,537,1766132,0.0-19.0-0.0-0.48,A3JI3B5GTVA95F,3QX22DUVPRXA8IOFTTHB0PBO5I3MV1,36U2A8VAG5FZ87HB3UWHHVJ1S9ZKYV,3,4
49,4,object_09,object_04,937.0,7,2,454.0,0.6666666666666666,1,object_08,5,471,0,6,4,restaurant_4,2,memory-2step-stake-s,538,1774422,0.0-19.0-0.0-0.49,A3JI3B5GTVA95F,3QX22DUVPRXA8IOFTTHB0PBO5I3MV1,36U2A8VAG5FZ87HB3UWHHVJ1S9ZKYV,8,7
50,3,object_02,object_07,743.0,5,2,467.0,0.5555555555555556,1,object_08,1,476,0,5,7,library_8,2,memory-2step-stake-s,539,1782631,0.0-19.0-0.0-0.50,A3JI3B5GTVA95F,3QX22DUVPRXA8IOFTTHB0PBO5I3MV1,36U2A8VAG5FZ87HB3UWHHVJ1S9ZKYV,6,5
51,3,object_02,object_07,750.0,5,2,513.0,0.7777777777777778,1,object_08,1,483,0,7,7,library_8,2,memory-2step-stake-s,540,1791081,0.0-19.0-0.0-0.51,A3JI3B5GTVA95F,3QX22DUVPRXA8IOFTTHB0PBO5I3MV1,36U2A8VAG5FZ87HB3UWHHVJ1S9ZKYV,6,5
52,2,object_03,object_01,732.0,3,1,455.0,0.5555555555555556,1,object_08,5,508,0,5,3,forest_7,2,memory-2step-stake-s,541,1799271,0.0-19.0-0.0-0.52,A3JI3B5GTVA95F,3QX22DUVPRXA8IOFTTHB0PBO5I3MV1,36U2A8VAG5FZ87HB3UWHHVJ1S9ZKYV,3,4
53,2,object_01,object_03,870.0,4,1,434.0,0.2222222222222222,2,object_06,1,510,0,4,2,forest_4,2,memory-2step-stake-s,542,1807141,0.0-19.0-0.0-0.53,A3JI3B5GTVA95F,3QX22DUVPRXA8IOFTTHB0PBO5I3MV1,36U2A8VAG5FZ87HB3UWHHVJ1S9ZKYV,4,3
54,4,object_04,object_09,872.0,7,1,470.0,0.6666666666666666,1,object_08,1,516,0,6,1,restaurant_2,2,memory-2step-stake-s,543,1815440,0.0-19.0-0.0-0.54,A3JI3B5GTVA95F,3QX22DUVPRXA8IOFTTHB0PBO5I3MV1,36U2A8VAG5FZ87HB3UWHHVJ1S9ZKYV,7,8
55,3,object_07,object_02,787.0,5,1,416.0,0.5555555555555556,1,object_08,1,521,0,5,1,library_7,2,memory-2step-stake-s,544,1823590,0.0-19.0-0.0-0.55,A3JI3B5GTVA95F,3QX22DUVPRXA8IOFTTHB0PBO5I3MV1,36U2A8VAG5FZ87HB3UWHHVJ1S9ZKYV,5,6
56,4,object_04,object_09,622.0,7,1,481.0,0.2222222222222222,1,object_08,1,523,0,2,1,restaurant_8,2,memory-2step-stake-s,545,1831510,0.0-19.0-0.0-0.56,A3JI3B5GTVA95F,3QX22DUVPRXA8IOFTTHB0PBO5I3MV1,36U2A8VAG5FZ87HB3UWHHVJ1S9ZKYV,7,8
57,2,object_03,object_01,806.0,3,1,458.0,0.3333333333333333,1,object_08,5,538,0,3,0,forest_1,2,memory-2step-stake-s,546,1839499,0.0-19.0-0.0-0.57,A3JI3B5GTVA95F,3QX22DUVPRXA8IOFTTHB0PBO5I3MV1,36U2A8VAG5FZ87HB3UWHHVJ1S9ZKYV,3,4
58,1,object_10,object_05,688.0,1,1,612.0,0.7777777777777778,1,object_08,5,573,0,7,2,desert_8,2,memory-2step-stake-s,547,1848050,0.0-19.0-0.0-0.58,A3JI3B5GTVA95F,3QX22DUVPRXA8IOFTTHB0PBO5I3MV1,36U2A8VAG5FZ87HB3UWHHVJ1S9ZKYV,1,2
59,3,object_07,object_02,690.0,5,1,327.0,0.7777777777777778,1,object_08,1,580,0,7,3,library_7,2,memory-2step-stake-s,548,1856299,0.0-19.0-0.0-0.59,A3JI3B5GTVA95F,3QX22DUVPRXA8IOFTTHB0PBO5I3MV1,36U2A8VAG5FZ87HB3UWHHVJ1S9ZKYV,5,6
60,3,object_07,object_02,648.0,5,1,643.0,0.7777777777777778,1,object_08,1,587,0,7,2,library_1,2,memory-2step-stake-s,549,1864879,0.0-19.0-0.0-0.60,A3JI3B5GTVA95F,3QX22DUVPRXA8IOFTTHB0PBO5I3MV1,36U2A8VAG5FZ87HB3UWHHVJ1S9ZKYV,5,6
61,3,object_07,object_02,732.0,5,1,567.0,0.6666666666666666,1,object_08,1,593,0,6,2,library_7,2,memory-2step-stake-s,550,1873279,0.0-19.0-0.0-0.61,A3JI3B5GTVA95F,3QX22DUVPRXA8IOFTTHB0PBO5I3MV1,36U2A8VAG5FZ87HB3UWHHVJ1S9ZKYV,5,6
62,3,object_02,object_07,772.0,5,2,593.0,0.6666666666666666,1,object_08,1,599,0,6,2,library_7,2,memory-2step-stake-s,551,1881699,0.0-19.0-0.0-0.62,A3JI3B5GTVA95F,3QX22DUVPRXA8IOFTTHB0PBO5I3MV1,36U2A8VAG5FZ87HB3UWHHVJ1S9ZKYV,6,5
63,2,object_03,object_01,672.0,3,1,629.0,0.5555555555555556,1,object_08,5,624,0,5,5,forest_1,2,memory-2step-stake-s,552,1890058,0.0-19.0-0.0-0.63,A3JI3B5GTVA95F,3QX22DUVPRXA8IOFTTHB0PBO5I3MV1,36U2A8VAG5FZ87HB3UWHHVJ1S9ZKYV,3,4
64,4,object_09,object_04,1087.0,7,2,764.0,0.7777777777777778,1,object_08,1,631,0,7,3,restaurant_4,2,memory-2step-stake-s,553,1898758,0.0-19.0-0.0-0.64,A3JI3B5GTVA95F,3QX22DUVPRXA8IOFTTHB0PBO5I3MV1,36U2A8VAG5FZ87HB3UWHHVJ1S9ZKYV,8,7
65,1,object_05,object_10,716.0,1,2,559.0,0.7777777777777778,1,object_08,5,666,0,7,3,desert_3,2,memory-2step-stake-s,554,1907250,0.0-19.0-0.0-0.65,A3JI3B5GTVA95F,3QX22DUVPRXA8IOFTTHB0PBO5I3MV1,36U2A8VAG5FZ87HB3UWHHVJ1S9ZKYV,2,1
66,1,object_10,object_05,776.0,1,1,525.0,0.4444444444444444,1,object_08,1,670,0,4,0,desert_5,2,memory-2step-stake-s,555,1915399,0.0-19.0-0.0-0.66,A3JI3B5GTVA95F,3QX22DUVPRXA8IOFTTHB0PBO5I3MV1,36U2A8VAG5FZ87HB3UWHHVJ1S9ZKYV,1,2
67,3,object_02,object_07,609.0,5,2,509.0,0.8888888888888888,1,object_08,1,678,0,8,1,library_1,2,memory-2step-stake-s,556,1923949,0.0-19.0-0.0-0.67,A3JI3B5GTVA95F,3QX22DUVPRXA8IOFTTHB0PBO5I3MV1,36U2A8VAG5FZ87HB3UWHHVJ1S9ZKYV,6,5
68,1,object_10,object_05,610.0,1,1,624.0,0.6666666666666666,1,object_08,1,684,0,6,0,desert_6,2,memory-2step-stake-s,557,1932409,0.0-19.0-0.0-0.68,A3JI3B5GTVA95F,3QX22DUVPRXA8IOFTTHB0PBO5I3MV1,36U2A8VAG5FZ87HB3UWHHVJ1S9ZKYV,1,2
69,3,object_02,object_07,704.0,5,2,429.0,0.4444444444444444,1,object_08,1,688,0,4,0,library_8,2,memory-2step-stake-s,558,1940479,0.0-19.0-0.0-0.69,A3JI3B5GTVA95F,3QX22DUVPRXA8IOFTTHB0PBO5I3MV1,36U2A8VAG5FZ87HB3UWHHVJ1S9ZKYV,6,5
70,4,object_04,object_09,730.0,7,1,463.0,0.4444444444444444,1,object_08,5,708,0,4,1,restaurant_8,2,memory-2step-stake-s,559,1948568,0.0-19.0-0.0-0.70,A3JI3B5GTVA95F,3QX22DUVPRXA8IOFTTHB0PBO5I3MV1,36U2A8VAG5FZ87HB3UWHHVJ1S9ZKYV,7,8
71,3,object_02,object_07,743.0,5,2,595.0,0.2222222222222222,1,object_08,5,718,0,2,1,library_7,2,memory-2step-stake-s,560,1956599,0.0-19.0-0.0-0.71,A3JI3B5GTVA95F,3QX22DUVPRXA8IOFTTHB0PBO5I3MV1,36U2A8VAG5FZ87HB3UWHHVJ1S9ZKYV,6,5
72,2,object_01,object_03,809.0,4,1,398.0,0.1111111111111111,2,object_06,5,723,0,3,1,forest_1,2,memory-2step-stake-s,561,1964338,0.0-19.0-0.0-0.72,A3JI3B5GTVA95F,3QX22DUVPRXA8IOFTTHB0PBO5I3MV1,36U2A8VAG5FZ87HB3UWHHVJ1S9ZKYV,4,3
73,4,object_09,object_04,725.0,7,2,393.0,0.2222222222222222,1,object_08,1,725,0,2,5,restaurant_8,2,memory-2step-stake-s,562,1972168,0.0-19.0-0.0-0.73,A3JI3B5GTVA95F,3QX22DUVPRXA8IOFTTHB0PBO5I3MV1,36U2A8VAG5FZ87HB3UWHHVJ1S9ZKYV,8,7
74,4,object_04,object_09,768.0,7,1,542.0,0.3333333333333333,1,object_08,1,728,0,3,7,restaurant_3,2,memory-2step-stake-s,563,1980237,0.0-19.0-0.0-0.74,A3JI3B5GTVA95F,3QX22DUVPRXA8IOFTTHB0PBO5I3MV1,36U2A8VAG5FZ87HB3UWHHVJ1S9ZKYV,7,8
75,3,object_07,object_02,681.0,5,1,446.0,0.2222222222222222,1,object_08,1,730,0,2,6,library_1,2,memory-2step-stake-s,564,1988117,0.0-19.0-0.0-0.75,A3JI3B5GTVA95F,3QX22DUVPRXA8IOFTTHB0PBO5I3MV1,36U2A8VAG5FZ87HB3UWHHVJ1S9ZKYV,5,6
76,1,object_10,object_05,674.0,1,1,407.0,0.2222222222222222,1,object_08,5,740,0,2,5,desert_3,2,memory-2step-stake-s,565,1995947,0.0-19.0-0.0-0.76,A3JI3B5GTVA95F,3QX22DUVPRXA8IOFTTHB0PBO5I3MV1,36U2A8VAG5FZ87HB3UWHHVJ1S9ZKYV,1,2
77,4,object_09,object_04,834.0,7,2,599.0,0.5555555555555556,1,object_08,1,745,0,5,9,restaurant_8,2,memory-2step-stake-s,566,2004287,0.0-19.0-0.0-0.77,A3JI3B5GTVA95F,3QX22DUVPRXA8IOFTTHB0PBO5I3MV1,36U2A8VAG5FZ87HB3UWHHVJ1S9ZKYV,8,7
78,3,object_07,object_02,592.0,5,1,486.0,0.5555555555555556,1,object_08,1,750,0,5,7,library_1,2,memory-2step-stake-s,567,2012496,0.0-19.0-0.0-0.78,A3JI3B5GTVA95F,3QX22DUVPRXA8IOFTTHB0PBO5I3MV1,36U2A8VAG5FZ87HB3UWHHVJ1S9ZKYV,5,6
79,1,object_10,object_05,709.0,1,1,410.0,0.7777777777777778,1,object_08,1,757,0,7,7,desert_6,2,memory-2step-stake-s,568,2020846,0.0-19.0-0.0-0.79,A3JI3B5GTVA95F,3QX22DUVPRXA8IOFTTHB0PBO5I3MV1,36U2A8VAG5FZ87HB3UWHHVJ1S9ZKYV,1,2
80,2,object_03,object_01,911.0,4,2,404.0,0.7777777777777778,2,object_06,5,792,0,4,7,forest_5,2,memory-2step-stake-s,569,2029186,0.0-19.0-0.0-0.80,A3JI3B5GTVA95F,3QX22DUVPRXA8IOFTTHB0PBO5I3MV1,36U2A8VAG5FZ87HB3UWHHVJ1S9ZKYV,3,4
81,1,object_05,object_10,780.0,2,1,425.0,0.8888888888888888,2,object_06,1,800,0,1,8,desert_5,2,memory-2step-stake-s,570,2037637,0.0-19.0-0.0-0.81,A3JI3B5GTVA95F,3QX22DUVPRXA8IOFTTHB0PBO5I3MV1,36U2A8VAG5FZ87HB3UWHHVJ1S9ZKYV,2,1
82,4,object_04,object_09,880.0,8,2,485.0,0.7777777777777778,2,object_06,1,807,0,0,7,restaurant_3,2,memory-2step-stake-s,571,2046056,0.0-19.0-0.0-0.82,A3JI3B5GTVA95F,3QX22DUVPRXA8IOFTTHB0PBO5I3MV1,36U2A8VAG5FZ87HB3UWHHVJ1S9ZKYV,7,8
83,1,object_05,object_10,788.0,2,1,505.0,0.8888888888888888,2,object_06,1,815,0,5,8,desert_3,2,memory-2step-stake-s,572,2054596,0.0-19.0-0.0-0.83,A3JI3B5GTVA95F,3QX22DUVPRXA8IOFTTHB0PBO5I3MV1,36U2A8VAG5FZ87HB3UWHHVJ1S9ZKYV,2,1
84,2,object_01,object_03,680.0,4,1,380.0,0.6666666666666666,2,object_06,5,845,0,5,6,forest_4,2,memory-2step-stake-s,573,2062816,0.0-19.0-0.0-0.84,A3JI3B5GTVA95F,3QX22DUVPRXA8IOFTTHB0PBO5I3MV1,36U2A8VAG5FZ87HB3UWHHVJ1S9ZKYV,4,3
85,4,object_09,object_04,900.0,7,2,392.0,0.6666666666666666,1,object_08,1,851,0,6,5,restaurant_2,2,memory-2step-stake-s,574,2071046,0.0-19.0-0.0-0.85,A3JI3B5GTVA95F,3QX22DUVPRXA8IOFTTHB0PBO5I3MV1,36U2A8VAG5FZ87HB3UWHHVJ1S9ZKYV,8,7
86,1,object_05,object_10,655.0,1,2,412.0,0.4444444444444444,1,object_08,5,871,0,4,5,desert_5,2,memory-2step-stake-s,575,2079085,0.0-19.0-0.0-0.86,A3JI3B5GTVA95F,3QX22DUVPRXA8IOFTTHB0PBO5I3MV1,36U2A8VAG5FZ87HB3UWHHVJ1S9ZKYV,2,1
87,3,object_07,object_02,831.0,6,2,556.0,0.6666666666666666,2,object_06,1,877,0,5,6,library_1,2,memory-2step-stake-s,576,2087466,0.0-19.0-0.0-0.87,A3JI3B5GTVA95F,3QX22DUVPRXA8IOFTTHB0PBO5I3MV1,36U2A8VAG5FZ87HB3UWHHVJ1S9ZKYV,5,6
88,4,object_04,object_09,779.0,7,1,343.0,0.3333333333333333,1,object_08,1,880,0,3,8,restaurant_3,2,memory-2step-stake-s,577,2095387,0.0-19.0-0.0-0.88,A3JI3B5GTVA95F,3QX22DUVPRXA8IOFTTHB0PBO5I3MV1,36U2A8VAG5FZ87HB3UWHHVJ1S9ZKYV,7,8
89,2,object_01,object_03,994.0,3,2,744.0,0.1111111111111111,1,object_08,5,885,0,1,7,forest_5,2,memory-2step-stake-s,578,2103447,0.0-19.0-0.0-0.89,A3JI3B5GTVA95F,3QX22DUVPRXA8IOFTTHB0PBO5I3MV1,36U2A8VAG5FZ87HB3UWHHVJ1S9ZKYV,4,3
90,4,object_09,object_04,794.0,8,1,407.0,0.6666666666666666,2,object_06,1,891,0,3,6,restaurant_2,2,memory-2step-stake-s,579,2111687,0.0-19.0-0.0-0.90,A3JI3B5GTVA95F,3QX22DUVPRXA8IOFTTHB0PBO5I3MV1,36U2A8VAG5FZ87HB3UWHHVJ1S9ZKYV,8,7
91,1,object_10,object_05,660.0,1,1,481.0,0.0,1,object_08,5,891,0,0,9,desert_6,2,memory-2step-stake-s,580,2119397,0.0-19.0-0.0-0.91,A3JI3B5GTVA95F,3QX22DUVPRXA8IOFTTHB0PBO5I3MV1,36U2A8VAG5FZ87HB3UWHHVJ1S9ZKYV,1,2
92,1,object_10,object_05,709.0,2,2,337.0,0.5555555555555556,2,object_06,5,916,0,2,5,desert_5,2,memory-2step-stake-s,581,2127466,0.0-19.0-0.0-0.92,A3JI3B5GTVA95F,3QX22DUVPRXA8IOFTTHB0PBO5I3MV1,36U2A8VAG5FZ87HB3UWHHVJ1S9ZKYV,1,2
93,2,object_03,object_01,1078.0,4,2,419.0,0.5555555555555556,2,object_06,5,941,0,1,5,forest_5,2,memory-2step-stake-s,582,2135626,0.0-19.0-0.0-0.93,A3JI3B5GTVA95F,3QX22DUVPRXA8IOFTTHB0PBO5I3MV1,36U2A8VAG5FZ87HB3UWHHVJ1S9ZKYV,3,4
94,3,object_02,object_07,903.0,5,2,763.0,0.0,1,object_08,1,941,0,0,4,library_1,2,memory-2step-stake-s,583,2143626,0.0-19.0-0.0-0.94,A3JI3B5GTVA95F,3QX22DUVPRXA8IOFTTHB0PBO5I3MV1,36U2A8VAG5FZ87HB3UWHHVJ1S9ZKYV,6,5
95,3,object_02,object_07,783.0,6,1,411.0,0.4444444444444444,2,object_06,1,945,0,1,4,library_8,2,memory-2step-stake-s,584,2151676,0.0-19.0-0.0-0.95,A3JI3B5GTVA95F,3QX22DUVPRXA8IOFTTHB0PBO5I3MV1,36U2A8VAG5FZ87HB3UWHHVJ1S9ZKYV,6,5
96,3,object_07,object_02,941.0,6,2,457.0,0.2222222222222222,2,object_06,1,947,0,1,2,library_8,2,memory-2step-stake-s,585,2159566,0.0-19.0-0.0-0.96,A3JI3B5GTVA95F,3QX22DUVPRXA8IOFTTHB0PBO5I3MV1,36U2A8VAG5FZ87HB3UWHHVJ1S9ZKYV,5,6
97,4,object_09,object_04,819.0,8,1,399.0,0.1111111111111111,2,object_06,1,948,0,1,1,restaurant_8,2,memory-2step-stake-s,586,2167315,0.0-19.0-0.0-0.97,A3JI3B5GTVA95F,3QX22DUVPRXA8IOFTTHB0PBO5I3MV1,36U2A8VAG5FZ87HB3UWHHVJ1S9ZKYV,8,7
98,2,object_03,object_01,1165.0,3,1,393.0,0.1111111111111111,1,object_08,5,953,0,1,0,forest_4,2,memory-2step-stake-s,587,2175045,0.0-19.0-0.0-0.98,A3JI3B5GTVA95F,3QX22DUVPRXA8IOFTTHB0PBO5I3MV1,36U2A8VAG5FZ87HB3UWHHVJ1S9ZKYV,3,4
99,3,object_02,object_07,972.0,6,1,496.0,0.1111111111111111,2,object_06,1,954,0,2,1,library_7,2,memory-2step-stake-s,588,2182875,0.0-19.0-0.0-0.99,A3JI3B5GTVA95F,3QX22DUVPRXA8IOFTTHB0PBO5I3MV1,36U2A8VAG5FZ87HB3UWHHVJ1S9ZKYV,6,5
100,3,object_07,object_02,789.0,6,2,424.0,0.1111111111111111,2,object_06,1,955,0,4,1,library_6,2,memory-2step-stake-s,589,2190645,0.0-19.0-0.0-0.100,A3JI3B5GTVA95F,3QX22DUVPRXA8IOFTTHB0PBO5I3MV1,36U2A8VAG5FZ87HB3UWHHVJ1S9ZKYV,5,6
101,2,object_03,object_01,786.0,3,1,575.0,0.5555555555555556,1,object_08,5,980,0,5,1,forest_4,2,memory-2step-stake-s,590,2198965,0.0-19.0-0.0-0.101,A3JI3B5GTVA95F,3QX22DUVPRXA8IOFTTHB0PBO5I3MV1,36U2A8VAG5FZ87HB3UWHHVJ1S9ZKYV,3,4
102,1,object_05,object_10,788.0,1,2,408.0,0.3333333333333333,1,object_08,5,995,0,3,2,desert_8,2,memory-2step-stake-s,591,2206904,0.0-19.0-0.0-0.102,A3JI3B5GTVA95F,3QX22DUVPRXA8IOFTTHB0PBO5I3MV1,36U2A8VAG5FZ87HB3UWHHVJ1S9ZKYV,2,1
103,4,object_09,object_04,950.0,8,1,443.0,0.1111111111111111,2,object_06,1,996,0,3,1,restaurant_4,2,memory-2step-stake-s,592,2214684,0.0-19.0-0.0-0.103,A3JI3B5GTVA95F,3QX22DUVPRXA8IOFTTHB0PBO5I3MV1,36U2A8VAG5FZ87HB3UWHHVJ1S9ZKYV,8,7
104,2,object_03,object_01,819.0,3,1,407.0,0.3333333333333333,1,object_08,5,1011,0,3,1,forest_1,2,memory-2step-stake-s,593,2222624,0.0-19.0-0.0-0.104,A3JI3B5GTVA95F,3QX22DUVPRXA8IOFTTHB0PBO5I3MV1,36U2A8VAG5FZ87HB3UWHHVJ1S9ZKYV,3,4
105,2,object_01,object_03,863.0,3,2,451.0,0.5555555555555556,1,object_08,5,1036,0,5,1,forest_7,2,memory-2step-stake-s,594,2230815,0.0-19.0-0.0-0.105,A3JI3B5GTVA95F,3QX22DUVPRXA8IOFTTHB0PBO5I3MV1,36U2A8VAG5FZ87HB3UWHHVJ1S9ZKYV,4,3
106,4,object_09,object_04,1001.0,7,2,525.0,0.6666666666666666,1,object_08,1,1042,0,6,5,restaurant_3,2,memory-2step-stake-s,595,2239165,0.0-19.0-0.0-0.106,A3JI3B5GTVA95F,3QX22DUVPRXA8IOFTTHB0PBO5I3MV1,36U2A8VAG5FZ87HB3UWHHVJ1S9ZKYV,8,7
107,1,object_10,object_05,755.0,1,1,440.0,0.8888888888888888,1,object_08,1,1050,0,8,8,desert_3,2,memory-2step-stake-s,596,2247645,0.0-19.0-0.0-0.107,A3JI3B5GTVA95F,3QX22DUVPRXA8IOFTTHB0PBO5I3MV1,36U2A8VAG5FZ87HB3UWHHVJ1S9ZKYV,1,2
108,2,object_01,object_03,818.0,3,2,470.0,0.6666666666666666,1,object_08,5,1080,0,6,4,forest_1,2,memory-2step-stake-s,597,2255954,0.0-19.0-0.0-0.108,A3JI3B5GTVA95F,3QX22DUVPRXA8IOFTTHB0PBO5I3MV1,36U2A8VAG5FZ87HB3UWHHVJ1S9ZKYV,4,3
109,1,object_10,object_05,724.0,1,1,536.0,0.8888888888888888,1,object_08,5,1120,0,8,2,desert_6,2,memory-2step-stake-s,598,2264534,0.0-19.0-0.0-0.109,A3JI3B5GTVA95F,3QX22DUVPRXA8IOFTTHB0PBO5I3MV1,36U2A8VAG5FZ87HB3UWHHVJ1S9ZKYV,1,2
110,3,object_07,object_02,920.0,5,1,436.0,1.0,1,object_08,1,1129,0,9,4,library_7,2,memory-2step-stake-s,599,2273104,0.0-19.0-0.0-0.110,A3JI3B5GTVA95F,3QX22DUVPRXA8IOFTTHB0PBO5I3MV1,36U2A8VAG5FZ87HB3UWHHVJ1S9ZKYV,5,6
111,3,object_07,object_02,781.0,5,1,394.0,0.7777777777777778,1,object_08,5,1164,0,7,4,library_6,2,memory-2step-stake-s,600,2281441,0.0-19.0-0.0-0.111,A3JI3B5GTVA95F,3QX22DUVPRXA8IOFTTHB0PBO5I3MV1,36U2A8VAG5FZ87HB3UWHHVJ1S9ZKYV,5,6
112,2,object_01,object_03,772.0,3,2,400.0,0.6666666666666666,1,object_08,5,1194,0,6,2,forest_5,2,memory-2step-stake-s,601,2289681,0.0-19.0-0.0-0.112,A3JI3B5GTVA95F,3QX22DUVPRXA8IOFTTHB0PBO5I3MV1,36U2A8VAG5FZ87HB3UWHHVJ1S9ZKYV,4,3
113,4,object_09,object_04,973.0,7,2,434.0,0.6666666666666666,1,object_08,1,1200,0,6,2,restaurant_3,2,memory-2step-stake-s,602,2297940,0.0-19.0-0.0-0.113,A3JI3B5GTVA95F,3QX22DUVPRXA8IOFTTHB0PBO5I3MV1,36U2A8VAG5FZ87HB3UWHHVJ1S9ZKYV,8,7
114,1,object_10,object_05,695.0,1,1,373.0,0.5555555555555556,1,object_08,5,1225,0,5,3,desert_6,2,memory-2step-stake-s,603,2306050,0.0-19.0-0.0-0.114,A3JI3B5GTVA95F,3QX22DUVPRXA8IOFTTHB0PBO5I3MV1,36U2A8VAG5FZ87HB3UWHHVJ1S9ZKYV,1,2
115,3,object_07,object_02,802.0,5,1,430.0,0.6666666666666666,1,object_08,5,1255,0,6,5,library_7,2,memory-2step-stake-s,604,2314321,0.0-19.0-0.0-0.115,A3JI3B5GTVA95F,3QX22DUVPRXA8IOFTTHB0PBO5I3MV1,36U2A8VAG5FZ87HB3UWHHVJ1S9ZKYV,5,6
116,2,object_01,object_03,852.0,3,2,617.0,0.8888888888888888,1,object_08,5,1295,0,8,6,forest_4,2,memory-2step-stake-s,605,2322972,0.0-19.0-0.0-0.116,A3JI3B5GTVA95F,3QX22DUVPRXA8IOFTTHB0PBO5I3MV1,36U2A8VAG5FZ87HB3UWHHVJ1S9ZKYV,4,3
117,2,object_03,object_01,752.0,3,1,492.0,0.8888888888888888,1,object_08,5,1335,0,8,6,forest_5,2,memory-2step-stake-s,606,2331512,0.0-19.0-0.0-0.117,A3JI3B5GTVA95F,3QX22DUVPRXA8IOFTTHB0PBO5I3MV1,36U2A8VAG5FZ87HB3UWHHVJ1S9ZKYV,3,4
118,1,object_10,object_05,652.0,1,1,415.0,0.8888888888888888,1,object_08,5,1375,0,8,9,desert_3,2,memory-2step-stake-s,607,2339961,0.0-19.0-0.0-0.118,A3JI3B5GTVA95F,3QX22DUVPRXA8IOFTTHB0PBO5I3MV1,36U2A8VAG5FZ87HB3UWHHVJ1S9ZKYV,1,2
119,2,object_01,object_03,746.0,3,2,382.0,0.7777777777777778,1,object_08,5,1410,0,7,6,forest_7,2,memory-2step-stake-s,608,2348281,0.0-19.0-0.0-0.119,A3JI3B5GTVA95F,3QX22DUVPRXA8IOFTTHB0PBO5I3MV1,36U2A8VAG5FZ87HB3UWHHVJ1S9ZKYV,4,3
120,3,object_07,object_02,642.0,5,1,366.0,0.5555555555555556,1,object_08,1,1415,0,5,8,library_1,2,memory-2step-stake-s,609,2356381,0.0-19.0-0.0-0.120,A3JI3B5GTVA95F,3QX22DUVPRXA8IOFTTHB0PBO5I3MV1,36U2A8VAG5FZ87HB3UWHHVJ1S9ZKYV,5,6
121,4,object_09,object_04,982.0,7,2,362.0,0.4444444444444444,1,object_08,1,1419,0,4,5,restaurant_4,2,memory-2step-stake-s,610,2364381,0.0-19.0-0.0-0.121,A3JI3B5GTVA95F,3QX22DUVPRXA8IOFTTHB0PBO5I3MV1,36U2A8VAG5FZ87HB3UWHHVJ1S9ZKYV,8,7
122,4,object_04,object_09,743.0,7,1,451.0,0.5555555555555556,1,object_08,5,1444,0,5,6,restaurant_2,2,memory-2step-stake-s,611,2372561,0.0-19.0-0.0-0.122,A3JI3B5GTVA95F,3QX22DUVPRXA8IOFTTHB0PBO5I3MV1,36U2A8VAG5FZ87HB3UWHHVJ1S9ZKYV,7,8
123,3,object_02,object_07,777.0,5,2,446.0,0.4444444444444444,1,object_08,5,1464,0,4,8,library_8,2,memory-2step-stake-s,612,2380640,0.0-19.0-0.0-0.123,A3JI3B5GTVA95F,3QX22DUVPRXA8IOFTTHB0PBO5I3MV1,36U2A8VAG5FZ87HB3UWHHVJ1S9ZKYV,6,5
124,2,object_03,object_01,794.0,3,1,829.0,0.1111111111111111,1,object_08,5,1469,0,1,8,forest_4,2,memory-2step-stake-s,613,2388810,0.0-19.0-0.0-0.124,A3JI3B5GTVA95F,3QX22DUVPRXA8IOFTTHB0PBO5I3MV1,36U2A8VAG5FZ87HB3UWHHVJ1S9ZKYV,3,4
125,1,object_10,object_05,728.0,1,1,604.0,0.1111111111111111,1,object_08,5,1474,0,1,7,desert_5,2,memory-2step-stake-s,614,2396750,0.0-19.0-0.0-0.125,A3JI3B5GTVA95F,3QX22DUVPRXA8IOFTTHB0PBO5I3MV1,36U2A8VAG5FZ87HB3UWHHVJ1S9ZKYV,1,2
126,2,object_03,object_01,773.0,3,1,683.0,0.2222222222222222,1,object_08,5,1484,0,2,9,forest_5,2,memory-2step-stake-s,615,2404870,0.0-19.0-0.0-0.126,A3JI3B5GTVA95F,3QX22DUVPRXA8IOFTTHB0PBO5I3MV1,36U2A8VAG5FZ87HB3UWHHVJ1S9ZKYV,3,4
127,2,object_01,object_03,748.0,4,1,447.0,0.7777777777777778,2,object_06,1,1491,0,8,7,forest_5,2,memory-2step-stake-s,616,2413260,0.0-19.0-0.0-0.127,A3JI3B5GTVA95F,3QX22DUVPRXA8IOFTTHB0PBO5I3MV1,36U2A8VAG5FZ87HB3UWHHVJ1S9ZKYV,4,3
128,4,object_04,object_09,892.0,8,2,480.0,1.0,2,object_06,1,1500,0,5,9,restaurant_4,2,memory-2step-stake-s,618,2454568,0.0-19.0-0.1-0.128,A3JI3B5GTVA95F,3QX22DUVPRXA8IOFTTHB0PBO5I3MV1,36U2A8VAG5FZ87HB3UWHHVJ1S9ZKYV,7,8
129,1,object_10,object_05,776.0,2,2,428.0,0.6666666666666666,2,object_06,5,1530,0,6,6,desert_8,2,memory-2step-stake-s,619,2462837,0.0-19.0-0.1-0.129,A3JI3B5GTVA95F,3QX22DUVPRXA8IOFTTHB0PBO5I3MV1,36U2A8VAG5FZ87HB3UWHHVJ1S9ZKYV,1,2
130,1,object_05,object_10,947.0,2,1,496.0,1.0,2,object_06,1,1539,0,6,9,desert_5,2,memory-2step-stake-s,620,2471458,0.0-19.0-0.1-0.130,A3JI3B5GTVA95F,3QX22DUVPRXA8IOFTTHB0PBO5I3MV1,36U2A8VAG5FZ87HB3UWHHVJ1S9ZKYV,2,1
131,1,object_10,object_05,758.0,2,2,370.0,1.0,2,object_06,5,1584,0,6,9,desert_6,2,memory-2step-stake-s,621,2479967,0.0-19.0-0.1-0.131,A3JI3B5GTVA95F,3QX22DUVPRXA8IOFTTHB0PBO5I3MV1,36U2A8VAG5FZ87HB3UWHHVJ1S9ZKYV,1,2
132,2,object_01,object_03,800.0,4,1,451.0,0.5555555555555556,2,object_06,5,1609,0,8,5,forest_1,2,memory-2step-stake-s,622,2488157,0.0-19.0-0.1-0.132,A3JI3B5GTVA95F,3QX22DUVPRXA8IOFTTHB0PBO5I3MV1,36U2A8VAG5FZ87HB3UWHHVJ1S9ZKYV,4,3
133,3,object_07,object_02,1162.0,5,1,429.0,1.0,1,object_08,5,1654,0,9,6,library_8,2,memory-2step-stake-s,623,2496737,0.0-19.0-0.1-0.133,A3JI3B5GTVA95F,3QX22DUVPRXA8IOFTTHB0PBO5I3MV1,36U2A8VAG5FZ87HB3UWHHVJ1S9ZKYV,5,6
134,4,object_04,object_09,790.0,7,1,353.0,1.0,1,object_08,1,1663,0,9,8,restaurant_2,2,memory-2step-stake-s,624,2505237,0.0-19.0-0.1-0.134,A3JI3B5GTVA95F,3QX22DUVPRXA8IOFTTHB0PBO5I3MV1,36U2A8VAG5FZ87HB3UWHHVJ1S9ZKYV,7,8
135,1,object_10,object_05,618.0,1,1,382.0,0.7777777777777778,1,object_08,5,1698,0,7,9,desert_3,2,memory-2step-stake-s,625,2513576,0.0-19.0-0.1-0.135,A3JI3B5GTVA95F,3QX22DUVPRXA8IOFTTHB0PBO5I3MV1,36U2A8VAG5FZ87HB3UWHHVJ1S9ZKYV,1,2
136,2,object_01,object_03,1053.0,3,2,457.0,0.4444444444444444,1,object_08,1,1702,0,4,8,forest_5,2,memory-2step-stake-s,626,2521676,0.0-19.0-0.1-0.136,A3JI3B5GTVA95F,3QX22DUVPRXA8IOFTTHB0PBO5I3MV1,36U2A8VAG5FZ87HB3UWHHVJ1S9ZKYV,4,3
137,3,object_02,object_07,714.0,5,2,413.0,0.3333333333333333,1,object_08,1,1705,0,3,7,library_6,2,memory-2step-stake-s,627,2529626,0.0-19.0-0.1-0.137,A3JI3B5GTVA95F,3QX22DUVPRXA8IOFTTHB0PBO5I3MV1,36U2A8VAG5FZ87HB3UWHHVJ1S9ZKYV,6,5
138,2,object_03,object_01,867.0,4,2,361.0,1.0,2,object_06,5,1750,0,3,9,forest_1,2,memory-2step-stake-s,628,2538127,0.0-19.0-0.1-0.138,A3JI3B5GTVA95F,3QX22DUVPRXA8IOFTTHB0PBO5I3MV1,36U2A8VAG5FZ87HB3UWHHVJ1S9ZKYV,3,4
139,1,object_05,object_10,798.0,2,1,363.0,0.6666666666666666,2,object_06,5,1780,0,3,6,desert_8,2,memory-2step-stake-s,629,2546326,0.0-19.0-0.1-0.139,A3JI3B5GTVA95F,3QX22DUVPRXA8IOFTTHB0PBO5I3MV1,36U2A8VAG5FZ87HB3UWHHVJ1S9ZKYV,2,1
140,4,object_09,object_04,591.0,8,1,403.0,0.8888888888888888,2,object_06,1,1788,0,6,8,restaurant_4,2,memory-2step-stake-s,630,2554766,0.0-19.0-0.1-0.140,A3JI3B5GTVA95F,3QX22DUVPRXA8IOFTTHB0PBO5I3MV1,36U2A8VAG5FZ87HB3UWHHVJ1S9ZKYV,8,7
141,1,object_10,object_05,695.0,2,2,395.0,1.0,2,object_06,5,1833,0,6,9,desert_5,2,memory-2step-stake-s,631,2563296,0.0-19.0-0.1-0.141,A3JI3B5GTVA95F,3QX22DUVPRXA8IOFTTHB0PBO5I3MV1,36U2A8VAG5FZ87HB3UWHHVJ1S9ZKYV,1,2
142,2,object_03,object_01,828.0,4,2,417.0,0.6666666666666666,2,object_06,5,1863,0,5,6,forest_1,2,memory-2step-stake-s,632,2571546,0.0-19.0-0.1-0.142,A3JI3B5GTVA95F,3QX22DUVPRXA8IOFTTHB0PBO5I3MV1,36U2A8VAG5FZ87HB3UWHHVJ1S9ZKYV,3,4
143,4,object_09,object_04,683.0,8,1,694.0,1.0,2,object_06,1,1872,0,8,9,restaurant_4,2,memory-2step-stake-s,633,2580375,0.0-19.0-0.1-0.143,A3JI3B5GTVA95F,3QX22DUVPRXA8IOFTTHB0PBO5I3MV1,36U2A8VAG5FZ87HB3UWHHVJ1S9ZKYV,8,7
144,3,object_07,object_02,741.0,6,2,369.0,0.7777777777777778,2,object_06,1,1879,0,6,7,library_6,2,memory-2step-stake-s,634,2588685,0.0-19.0-0.1-0.144,A3JI3B5GTVA95F,3QX22DUVPRXA8IOFTTHB0PBO5I3MV1,36U2A8VAG5FZ87HB3UWHHVJ1S9ZKYV,5,6
145,4,object_09,object_04,750.0,8,1,386.0,0.5555555555555556,2,object_06,1,1884,0,7,5,restaurant_4,2,memory-2step-stake-s,635,2596805,0.0-19.0-0.1-0.145,A3JI3B5GTVA95F,3QX22DUVPRXA8IOFTTHB0PBO5I3MV1,36U2A8VAG5FZ87HB3UWHHVJ1S9ZKYV,8,7
146,4,object_09,object_04,958.0,8,1,610.0,0.3333333333333333,2,object_06,1,1887,0,7,3,restaurant_4,2,memory-2step-stake-s,636,2604965,0.0-19.0-0.1-0.146,A3JI3B5GTVA95F,3QX22DUVPRXA8IOFTTHB0PBO5I3MV1,36U2A8VAG5FZ87HB3UWHHVJ1S9ZKYV,8,7
147,1,object_10,object_05,783.0,2,2,371.0,0.3333333333333333,2,object_06,5,1902,0,8,3,desert_5,2,memory-2step-stake-s,637,2612875,0.0-19.0-0.1-0.147,A3JI3B5GTVA95F,3QX22DUVPRXA8IOFTTHB0PBO5I3MV1,36U2A8VAG5FZ87HB3UWHHVJ1S9ZKYV,1,2
148,3,object_02,object_07,641.0,5,2,382.0,0.8888888888888888,1,object_08,1,1910,0,8,3,library_1,2,memory-2step-stake-s,638,2621294,0.0-19.0-0.1-0.148,A3JI3B5GTVA95F,3QX22DUVPRXA8IOFTTHB0PBO5I3MV1,36U2A8VAG5FZ87HB3UWHHVJ1S9ZKYV,6,5
149,3,object_02,object_07,653.0,5,2,400.0,0.7777777777777778,1,object_08,1,1917,0,7,0,library_6,2,memory-2step-stake-s,639,2629634,0.0-19.0-0.1-0.149,A3JI3B5GTVA95F,3QX22DUVPRXA8IOFTTHB0PBO5I3MV1,36U2A8VAG5FZ87HB3UWHHVJ1S9ZKYV,6,5
150,2,object_03,object_01,753.0,3,1,486.0,0.6666666666666666,1,object_08,5,1947,0,6,2,forest_5,2,memory-2step-stake-s,640,2637944,0.0-19.0-0.1-0.150,A3JI3B5GTVA95F,3QX22DUVPRXA8IOFTTHB0PBO5I3MV1,36U2A8VAG5FZ87HB3UWHHVJ1S9ZKYV,3,4
151,4,object_04,object_09,995.0,8,2,384.0,0.1111111111111111,2,object_06,1,1948,0,2,1,restaurant_8,2,memory-2step-stake-s,641,2645654,0.0-19.0-0.1-0.151,A3JI3B5GTVA95F,3QX22DUVPRXA8IOFTTHB0PBO5I3MV1,36U2A8VAG5FZ87HB3UWHHVJ1S9ZKYV,7,8
152,4,object_09,object_04,1045.0,7,2,547.0,0.1111111111111111,1,object_08,1,1949,0,1,1,restaurant_2,2,memory-2step-stake-s,642,2653524,0.0-19.0-0.1-0.152,A3JI3B5GTVA95F,3QX22DUVPRXA8IOFTTHB0PBO5I3MV1,36U2A8VAG5FZ87HB3UWHHVJ1S9ZKYV,8,7
153,2,object_01,object_03,1047.0,4,1,580.0,0.2222222222222222,2,object_06,5,1959,0,1,2,forest_7,2,memory-2step-stake-s,643,2661533,0.0-19.0-0.1-0.153,A3JI3B5GTVA95F,3QX22DUVPRXA8IOFTTHB0PBO5I3MV1,36U2A8VAG5FZ87HB3UWHHVJ1S9ZKYV,4,3
154,2,object_01,object_03,693.0,3,2,418.0,0.0,1,object_08,1,1959,0,0,2,forest_5,2,memory-2step-stake-s,644,2669183,0.0-19.0-0.1-0.154,A3JI3B5GTVA95F,3QX22DUVPRXA8IOFTTHB0PBO5I3MV1,36U2A8VAG5FZ87HB3UWHHVJ1S9ZKYV,4,3
155,4,object_04,object_09,1028.0,8,2,400.0,0.2222222222222222,2,object_06,1,1961,0,4,2,restaurant_8,2,memory-2step-stake-s,645,2677013,0.0-19.0-0.1-0.155,A3JI3B5GTVA95F,3QX22DUVPRXA8IOFTTHB0PBO5I3MV1,36U2A8VAG5FZ87HB3UWHHVJ1S9ZKYV,7,8
156,3,object_02,object_07,957.0,6,1,626.0,0.2222222222222222,2,object_06,1,1963,0,4,2,library_8,2,memory-2step-stake-s,646,2685062,0.0-19.0-0.1-0.156,A3JI3B5GTVA95F,3QX22DUVPRXA8IOFTTHB0PBO5I3MV1,36U2A8VAG5FZ87HB3UWHHVJ1S9ZKYV,6,5
157,1,object_10,object_05,898.0,1,1,374.0,0.1111111111111111,1,object_08,5,1968,0,1,4,desert_8,2,memory-2step-stake-s,647,2692765,0.0-19.0-0.1-0.157,A3JI3B5GTVA95F,3QX22DUVPRXA8IOFTTHB0PBO5I3MV1,36U2A8VAG5FZ87HB3UWHHVJ1S9ZKYV,1,2
158,4,object_04,object_09,732.0,8,2,385.0,0.6666666666666666,2,object_06,1,1974,0,2,6,restaurant_2,2,memory-2step-stake-s,648,2700984,0.0-19.0-0.1-0.158,A3JI3B5GTVA95F,3QX22DUVPRXA8IOFTTHB0PBO5I3MV1,36U2A8VAG5FZ87HB3UWHHVJ1S9ZKYV,7,8
159,4,object_09,object_04,953.0,8,1,391.0,0.6666666666666666,2,object_06,1,1980,0,2,6,restaurant_3,2,memory-2step-stake-s,649,2709204,0.0-19.0-0.1-0.159,A3JI3B5GTVA95F,3QX22DUVPRXA8IOFTTHB0PBO5I3MV1,36U2A8VAG5FZ87HB3UWHHVJ1S9ZKYV,8,7
160,2,object_01,object_03,941.0,4,1,466.0,0.6666666666666666,2,object_06,5,2010,0,8,6,forest_7,2,memory-2step-stake-s,650,2717494,0.0-19.0-0.1-0.160,A3JI3B5GTVA95F,3QX22DUVPRXA8IOFTTHB0PBO5I3MV1,36U2A8VAG5FZ87HB3UWHHVJ1S9ZKYV,4,3
161,3,object_02,object_07,978.0,6,1,680.0,0.8888888888888888,2,object_06,1,2018,0,5,8,library_7,2,memory-2step-stake-s,651,2726213,0.0-19.0-0.1-0.161,A3JI3B5GTVA95F,3QX22DUVPRXA8IOFTTHB0PBO5I3MV1,36U2A8VAG5FZ87HB3UWHHVJ1S9ZKYV,6,5
162,1,object_10,object_05,922.0,1,1,863.0,0.4444444444444444,1,object_08,5,2038,0,4,8,desert_8,2,memory-2step-stake-s,652,2734713,0.0-19.0-0.1-0.162,A3JI3B5GTVA95F,3QX22DUVPRXA8IOFTTHB0PBO5I3MV1,36U2A8VAG5FZ87HB3UWHHVJ1S9ZKYV,1,2
163,4,object_04,object_09,1078.0,7,1,444.0,0.3333333333333333,1,object_08,1,2041,0,3,6,restaurant_8,2,memory-2step-stake-s,653,2742696,0.0-19.0-0.1-0.163,A3JI3B5GTVA95F,3QX22DUVPRXA8IOFTTHB0PBO5I3MV1,36U2A8VAG5FZ87HB3UWHHVJ1S9ZKYV,7,8
164,1,object_05,object_10,752.0,1,2,341.0,0.4444444444444444,1,object_08,1,2045,0,4,9,desert_6,2,memory-2step-stake-s,654,2750676,0.0-19.0-0.1-0.164,A3JI3B5GTVA95F,3QX22DUVPRXA8IOFTTHB0PBO5I3MV1,36U2A8VAG5FZ87HB3UWHHVJ1S9ZKYV,2,1
165,2,object_03,object_01,756.0,3,1,578.0,0.3333333333333333,1,object_08,1,2048,0,3,8,forest_4,2,memory-2step-stake-s,655,2758775,0.0-19.0-0.1-0.165,A3JI3B5GTVA95F,3QX22DUVPRXA8IOFTTHB0PBO5I3MV1,36U2A8VAG5FZ87HB3UWHHVJ1S9ZKYV,3,4
166,4,object_04,object_09,760.0,8,2,350.0,1.0,2,object_06,1,2057,0,2,9,restaurant_2,2,memory-2step-stake-s,656,2767255,0.0-19.0-0.1-0.166,A3JI3B5GTVA95F,3QX22DUVPRXA8IOFTTHB0PBO5I3MV1,36U2A8VAG5FZ87HB3UWHHVJ1S9ZKYV,7,8
167,3,object_07,object_02,711.0,6,2,347.0,0.8888888888888888,2,object_06,1,2065,0,3,8,library_7,2,memory-2step-stake-s,657,2775635,0.0-19.0-0.1-0.167,A3JI3B5GTVA95F,3QX22DUVPRXA8IOFTTHB0PBO5I3MV1,36U2A8VAG5FZ87HB3UWHHVJ1S9ZKYV,5,6
168,2,object_03,object_01,883.0,4,2,471.0,1.0,2,object_06,1,2074,0,0,9,forest_1,2,memory-2step-stake-s,658,2784254,0.0-19.0-0.1-0.168,A3JI3B5GTVA95F,3QX22DUVPRXA8IOFTTHB0PBO5I3MV1,36U2A8VAG5FZ87HB3UWHHVJ1S9ZKYV,3,4
169,4,object_04,object_09,704.0,8,2,454.0,1.0,2,object_06,1,2083,0,0,9,restaurant_2,2,memory-2step-stake-s,659,2792835,0.0-19.0-0.1-0.169,A3JI3B5GTVA95F,3QX22DUVPRXA8IOFTTHB0PBO5I3MV1,36U2A8VAG5FZ87HB3UWHHVJ1S9ZKYV,7,8
170,4,object_04,object_09,667.0,8,2,367.0,0.8888888888888888,2,object_06,1,2091,0,1,8,restaurant_4,2,memory-2step-stake-s,660,2801234,0.0-19.0-0.1-0.170,A3JI3B5GTVA95F,3QX22DUVPRXA8IOFTTHB0PBO5I3MV1,36U2A8VAG5FZ87HB3UWHHVJ1S9ZKYV,7,8
171,3,object_07,object_02,707.0,6,2,360.0,0.8888888888888888,2,object_06,1,2099,0,1,8,library_6,2,memory-2step-stake-s,661,2809634,0.0-19.0-0.1-0.171,A3JI3B5GTVA95F,3QX22DUVPRXA8IOFTTHB0PBO5I3MV1,36U2A8VAG5FZ87HB3UWHHVJ1S9ZKYV,5,6
172,4,object_09,object_04,860.0,8,1,409.0,1.0,2,object_06,1,2108,0,1,9,restaurant_8,2,memory-2step-stake-s,662,2818174,0.0-19.0-0.1-0.172,A3JI3B5GTVA95F,3QX22DUVPRXA8IOFTTHB0PBO5I3MV1,36U2A8VAG5FZ87HB3UWHHVJ1S9ZKYV,8,7
173,2,object_01,object_03,760.0,4,1,556.0,0.8888888888888888,2,object_06,5,2148,0,7,8,forest_4,2,memory-2step-stake-s,663,2826753,0.0-19.0-0.1-0.173,A3JI3B5GTVA95F,3QX22DUVPRXA8IOFTTHB0PBO5I3MV1,36U2A8VAG5FZ87HB3UWHHVJ1S9ZKYV,4,3
174,1,object_10,object_05,724.0,2,2,457.0,0.8888888888888888,2,object_06,5,2188,0,7,8,desert_8,2,memory-2step-stake-s,664,2835233,0.0-19.0-0.1-0.174,A3JI3B5GTVA95F,3QX22DUVPRXA8IOFTTHB0PBO5I3MV1,36U2A8VAG5FZ87HB3UWHHVJ1S9ZKYV,1,2
175,2,object_03,object_01,907.0,4,2,671.0,0.6666666666666666,2,object_06,5,2218,0,5,6,forest_4,2,memory-2step-stake-s,665,2843743,0.0-19.0-0.1-0.175,A3JI3B5GTVA95F,3QX22DUVPRXA8IOFTTHB0PBO5I3MV1,36U2A8VAG5FZ87HB3UWHHVJ1S9ZKYV,3,4
176,4,object_04,object_09,725.0,8,2,353.0,0.3333333333333333,2,object_06,1,2221,0,6,3,restaurant_4,2,memory-2step-stake-s,666,2851633,0.0-19.0-0.1-0.176,A3JI3B5GTVA95F,3QX22DUVPRXA8IOFTTHB0PBO5I3MV1,36U2A8VAG5FZ87HB3UWHHVJ1S9ZKYV,7,8
177,1,object_05,object_10,932.0,1,2,458.0,0.4444444444444444,1,object_08,5,2241,0,4,2,desert_8,2,memory-2step-stake-s,667,2859712,0.0-19.0-0.1-0.177,A3JI3B5GTVA95F,3QX22DUVPRXA8IOFTTHB0PBO5I3MV1,36U2A8VAG5FZ87HB3UWHHVJ1S9ZKYV,2,1
178,1,object_05,object_10,732.0,1,2,458.0,0.4444444444444444,1,object_08,5,2261,0,4,2,desert_8,2,memory-2step-stake-s,668,2867794,0.0-19.0-0.1-0.178,A3JI3B5GTVA95F,3QX22DUVPRXA8IOFTTHB0PBO5I3MV1,36U2A8VAG5FZ87HB3UWHHVJ1S9ZKYV,2,1
179,1,object_10,object_05,745.0,1,1,374.0,0.6666666666666666,1,object_08,5,2291,0,6,3,desert_3,2,memory-2step-stake-s,669,2876004,0.0-19.0-0.1-0.179,A3JI3B5GTVA95F,3QX22DUVPRXA8IOFTTHB0PBO5I3MV1,36U2A8VAG5FZ87HB3UWHHVJ1S9ZKYV,1,2
180,4,object_04,object_09,864.0,7,1,677.0,0.7777777777777778,1,object_08,1,2298,0,7,4,restaurant_2,2,memory-2step-stake-s,670,2884604,0.0-19.0-0.1-0.180,A3JI3B5GTVA95F,3QX22DUVPRXA8IOFTTHB0PBO5I3MV1,36U2A8VAG5FZ87HB3UWHHVJ1S9ZKYV,7,8
181,2,object_03,object_01,920.0,3,1,316.0,0.7777777777777778,1,object_08,5,2333,0,7,2,forest_4,2,memory-2step-stake-s,671,2892843,0.0-19.0-0.1-0.181,A3JI3B5GTVA95F,3QX22DUVPRXA8IOFTTHB0PBO5I3MV1,36U2A8VAG5FZ87HB3UWHHVJ1S9ZKYV,3,4
182,2,object_03,object_01,783.0,3,1,371.0,0.7777777777777778,1,object_08,5,2368,0,7,1,forest_7,2,memory-2step-stake-s,672,2901153,0.0-19.0-0.1-0.182,A3JI3B5GTVA95F,3QX22DUVPRXA8IOFTTHB0PBO5I3MV1,36U2A8VAG5FZ87HB3UWHHVJ1S9ZKYV,3,4
183,2,object_01,object_03,914.0,4,1,351.0,0.0,2,object_06,1,2368,0,7,0,forest_7,2,memory-2step-stake-s,673,2908733,0.0-19.0-0.1-0.183,A3JI3B5GTVA95F,3QX22DUVPRXA8IOFTTHB0PBO5I3MV1,36U2A8VAG5FZ87HB3UWHHVJ1S9ZKYV,4,3
184,1,object_10,object_05,869.0,1,1,385.0,0.8888888888888888,1,object_08,1,2376,0,8,0,desert_5,2,memory-2step-stake-s,674,2917152,0.0-19.0-0.1-0.184,A3JI3B5GTVA95F,3QX22DUVPRXA8IOFTTHB0PBO5I3MV1,36U2A8VAG5FZ87HB3UWHHVJ1S9ZKYV,1,2
185,1,object_05,object_10,882.0,1,2,527.0,0.8888888888888888,1,object_08,1,2384,0,8,1,desert_6,2,memory-2step-stake-s,675,2925702,0.0-19.0-0.1-0.185,A3JI3B5GTVA95F,3QX22DUVPRXA8IOFTTHB0PBO5I3MV1,36U2A8VAG5FZ87HB3UWHHVJ1S9ZKYV,2,1
186,3,object_07,object_02,1332.0,5,1,457.0,0.6666666666666666,1,object_08,1,2390,0,6,4,library_7,2,memory-2step-stake-s,676,2933982,0.0-19.0-0.1-0.186,A3JI3B5GTVA95F,3QX22DUVPRXA8IOFTTHB0PBO5I3MV1,36U2A8VAG5FZ87HB3UWHHVJ1S9ZKYV,5,6
187,2,object_01,object_03,1155.0,3,2,423.0,0.4444444444444444,1,object_08,5,2410,0,4,0,forest_5,2,memory-2step-stake-s,677,2942042,0.0-19.0-0.1-0.187,A3JI3B5GTVA95F,3QX22DUVPRXA8IOFTTHB0PBO5I3MV1,36U2A8VAG5FZ87HB3UWHHVJ1S9ZKYV,4,3
188,4,object_09,object_04,856.0,7,2,453.0,0.2222222222222222,1,object_08,5,2420,0,2,0,restaurant_3,2,memory-2step-stake-s,678,2949922,0.0-19.0-0.1-0.188,A3JI3B5GTVA95F,3QX22DUVPRXA8IOFTTHB0PBO5I3MV1,36U2A8VAG5FZ87HB3UWHHVJ1S9ZKYV,8,7
189,1,object_05,object_10,743.0,1,2,347.0,0.1111111111111111,1,object_08,1,2421,0,1,3,desert_8,2,memory-2step-stake-s,679,2957602,0.0-19.0-0.1-0.189,A3JI3B5GTVA95F,3QX22DUVPRXA8IOFTTHB0PBO5I3MV1,36U2A8VAG5FZ87HB3UWHHVJ1S9ZKYV,2,1
190,1,object_05,object_10,1047.0,2,1,387.0,0.5555555555555556,2,object_06,5,2446,0,4,5,desert_8,2,memory-2step-stake-s,680,2965721,0.0-19.0-0.1-0.190,A3JI3B5GTVA95F,3QX22DUVPRXA8IOFTTHB0PBO5I3MV1,36U2A8VAG5FZ87HB3UWHHVJ1S9ZKYV,2,1
191,4,object_09,object_04,687.0,8,1,411.0,0.4444444444444444,2,object_06,1,2450,0,2,4,restaurant_8,2,memory-2step-stake-s,681,2973771,0.0-19.0-0.1-0.191,A3JI3B5GTVA95F,3QX22DUVPRXA8IOFTTHB0PBO5I3MV1,36U2A8VAG5FZ87HB3UWHHVJ1S9ZKYV,8,7
192,4,object_04,object_09,742.0,7,1,355.0,0.2222222222222222,1,object_08,5,2460,0,2,1,restaurant_3,2,memory-2step-stake-s,682,2981551,0.0-19.0-0.1-0.192,A3JI3B5GTVA95F,3QX22DUVPRXA8IOFTTHB0PBO5I3MV1,36U2A8VAG5FZ87HB3UWHHVJ1S9ZKYV,7,8
193,2,object_03,object_01,946.0,4,2,431.0,0.2222222222222222,2,object_06,5,2470,0,4,2,forest_7,2,memory-2step-stake-s,683,2989411,0.0-19.0-0.1-0.193,A3JI3B5GTVA95F,3QX22DUVPRXA8IOFTTHB0PBO5I3MV1,36U2A8VAG5FZ87HB3UWHHVJ1S9ZKYV,3,4
194,3,object_02,object_07,732.0,5,2,322.0,0.2222222222222222,1,object_08,1,2472,0,2,5,library_1,2,memory-2step-stake-s,684,2997170,0.0-19.0-0.1-0.194,A3JI3B5GTVA95F,3QX22DUVPRXA8IOFTTHB0PBO5I3MV1,36U2A8VAG5FZ87HB3UWHHVJ1S9ZKYV,6,5
195,4,object_04,object_09,742.0,7,1,562.0,0.3333333333333333,1,object_08,1,2475,0,3,2,restaurant_2,2,memory-2step-stake-s,685,3005260,0.0-19.0-0.1-0.195,A3JI3B5GTVA95F,3QX22DUVPRXA8IOFTTHB0PBO5I3MV1,36U2A8VAG5FZ87HB3UWHHVJ1S9ZKYV,7,8
196,1,object_10,object_05,859.0,1,1,359.0,0.3333333333333333,1,object_08,5,2490,0,3,5,desert_8,2,memory-2step-stake-s,686,3013160,0.0-19.0-0.1-0.196,A3JI3B5GTVA95F,3QX22DUVPRXA8IOFTTHB0PBO5I3MV1,36U2A8VAG5FZ87HB3UWHHVJ1S9ZKYV,1,2
197,4,object_09,object_04,839.0,7,2,419.0,0.3333333333333333,1,object_08,1,2493,0,3,5,restaurant_2,2,memory-2step-stake-s,687,3021120,0.0-19.0-0.1-0.197,A3JI3B5GTVA95F,3QX22DUVPRXA8IOFTTHB0PBO5I3MV1,36U2A8VAG5FZ87HB3UWHHVJ1S9ZKYV,8,7
198,1,object_10,object_05,751.0,1,1,427.0,0.3333333333333333,1,object_08,5,2508,0,3,5,desert_3,2,memory-2step-stake-s,688,3029079,0.0-19.0-0.1-0.198,A3JI3B5GTVA95F,3QX22DUVPRXA8IOFTTHB0PBO5I3MV1,36U2A8VAG5FZ87HB3UWHHVJ1S9ZKYV,1,2
199,3,object_07,object_02,887.0,5,1,323.0,0.4444444444444444,1,object_08,1,2512,0,4,5,library_7,2,memory-2step-stake-s,689,3037039,0.0-19.0-0.1-0.199,A3JI3B5GTVA95F,3QX22DUVPRXA8IOFTTHB0PBO5I3MV1,36U2A8VAG5FZ87HB3UWHHVJ1S9ZKYV,5,6
200,1,object_10,object_05,695.0,2,2,347.0,0.3333333333333333,2,object_06,5,2527,0,3,3,desert_8,2,memory-2step-stake-s,690,3044919,0.0-19.0-0.1-0.200,A3JI3B5GTVA95F,3QX22DUVPRXA8IOFTTHB0PBO5I3MV1,36U2A8VAG5FZ87HB3UWHHVJ1S9ZKYV,1,2
201,1,object_10,object_05,800.0,1,1,458.0,0.4444444444444444,1,object_08,5,2547,0,4,0,desert_5,2,memory-2step-stake-s,691,3053011,0.0-19.0-0.1-0.201,A3JI3B5GTVA95F,3QX22DUVPRXA8IOFTTHB0PBO5I3MV1,36U2A8VAG5FZ87HB3UWHHVJ1S9ZKYV,1,2
202,3,object_07,object_02,586.0,5,1,391.0,0.2222222222222222,1,object_08,5,2557,0,2,4,library_8,2,memory-2step-stake-s,692,3060842,0.0-19.0-0.1-0.202,A3JI3B5GTVA95F,3QX22DUVPRXA8IOFTTHB0PBO5I3MV1,36U2A8VAG5FZ87HB3UWHHVJ1S9ZKYV,5,6
203,3,object_02,object_07,851.0,5,2,551.0,0.1111111111111111,1,object_08,1,2558,0,1,6,library_8,2,memory-2step-stake-s,693,3068732,0.0-19.0-0.1-0.203,A3JI3B5GTVA95F,3QX22DUVPRXA8IOFTTHB0PBO5I3MV1,36U2A8VAG5FZ87HB3UWHHVJ1S9ZKYV,6,5
204,1,object_10,object_05,833.0,1,1,421.0,0.4444444444444444,1,object_08,5,2578,0,4,6,desert_3,2,memory-2step-stake-s,694,3076792,0.0-19.0-0.1-0.204,A3JI3B5GTVA95F,3QX22DUVPRXA8IOFTTHB0PBO5I3MV1,36U2A8VAG5FZ87HB3UWHHVJ1S9ZKYV,1,2
205,3,object_02,object_07,653.0,5,2,480.0,0.4444444444444444,1,object_08,1,2582,0,4,7,library_8,2,memory-2step-stake-s,695,3084912,0.0-19.0-0.1-0.205,A3JI3B5GTVA95F,3QX22DUVPRXA8IOFTTHB0PBO5I3MV1,36U2A8VAG5FZ87HB3UWHHVJ1S9ZKYV,6,5
206,4,object_04,object_09,853.0,7,1,377.0,0.2222222222222222,1,object_08,5,2592,0,2,7,restaurant_4,2,memory-2step-stake-s,696,3092721,0.0-19.0-0.1-0.206,A3JI3B5GTVA95F,3QX22DUVPRXA8IOFTTHB0PBO5I3MV1,36U2A8VAG5FZ87HB3UWHHVJ1S9ZKYV,7,8
207,2,object_03,object_01,811.0,4,2,392.0,0.6666666666666666,2,object_06,5,2622,0,1,6,forest_1,2,memory-2step-stake-s,697,3100952,0.0-19.0-0.1-0.207,A3JI3B5GTVA95F,3QX22DUVPRXA8IOFTTHB0PBO5I3MV1,36U2A8VAG5FZ87HB3UWHHVJ1S9ZKYV,3,4
208,2,object_01,object_03,790.0,4,1,323.0,1.0,2,object_06,5,2667,0,2,9,forest_5,2,memory-2step-stake-s,698,3109411,0.0-19.0-0.1-0.208,A3JI3B5GTVA95F,3QX22DUVPRXA8IOFTTHB0PBO5I3MV1,36U2A8VAG5FZ87HB3UWHHVJ1S9ZKYV,4,3
209,2,object_01,object_03,769.0,4,1,445.0,0.7777777777777778,2,object_06,5,2702,0,5,7,forest_4,2,memory-2step-stake-s,699,3117791,0.0-19.0-0.1-0.209,A3JI3B5GTVA95F,3QX22DUVPRXA8IOFTTHB0PBO5I3MV1,36U2A8VAG5FZ87HB3UWHHVJ1S9ZKYV,4,3
210,4,object_04,object_09,717.0,7,1,384.0,0.1111111111111111,1,object_08,1,2703,0,1,7,restaurant_4,2,memory-2step-stake-s,700,3125552,0.0-19.0-0.1-0.210,A3JI3B5GTVA95F,3QX22DUVPRXA8IOFTTHB0PBO5I3MV1,36U2A8VAG5FZ87HB3UWHHVJ1S9ZKYV,7,8
211,3,object_07,object_02,980.0,6,2,361.0,0.8888888888888888,2,object_06,1,2711,0,1,8,library_6,2,memory-2step-stake-s,701,3133943,0.0-19.0-0.1-0.211,A3JI3B5GTVA95F,3QX22DUVPRXA8IOFTTHB0PBO5I3MV1,36U2A8VAG5FZ87HB3UWHHVJ1S9ZKYV,5,6
212,3,object_07,object_02,908.0,6,2,400.0,0.8888888888888888,2,object_06,1,2719,0,1,8,library_6,2,memory-2step-stake-s,702,3142386,0.0-19.0-0.1-0.212,A3JI3B5GTVA95F,3QX22DUVPRXA8IOFTTHB0PBO5I3MV1,36U2A8VAG5FZ87HB3UWHHVJ1S9ZKYV,5,6
213,3,object_07,object_02,897.0,6,2,485.0,0.8888888888888888,2,object_06,5,2759,0,2,8,library_8,2,memory-2step-stake-s,703,3150905,0.0-19.0-0.1-0.213,A3JI3B5GTVA95F,3QX22DUVPRXA8IOFTTHB0PBO5I3MV1,36U2A8VAG5FZ87HB3UWHHVJ1S9ZKYV,5,6
214,2,object_03,object_01,1041.0,4,2,693.0,0.6666666666666666,2,object_06,5,2789,0,1,6,forest_7,2,memory-2step-stake-s,704,3159435,0.0-19.0-0.1-0.214,A3JI3B5GTVA95F,3QX22DUVPRXA8IOFTTHB0PBO5I3MV1,36U2A8VAG5FZ87HB3UWHHVJ1S9ZKYV,3,4
215,2,object_01,object_03,726.0,4,1,601.0,0.8888888888888888,2,object_06,5,2829,0,2,8,forest_4,2,memory-2step-stake-s,705,3168076,0.0-19.0-0.1-0.215,A3JI3B5GTVA95F,3QX22DUVPRXA8IOFTTHB0PBO5I3MV1,36U2A8VAG5FZ87HB3UWHHVJ1S9ZKYV,4,3
216,3,object_02,object_07,742.0,5,2,602.0,0.4444444444444444,1,object_08,5,2849,0,4,7,library_6,2,memory-2step-stake-s,706,3176315,0.0-19.0-0.1-0.216,A3JI3B5GTVA95F,3QX22DUVPRXA8IOFTTHB0PBO5I3MV1,36U2A8VAG5FZ87HB3UWHHVJ1S9ZKYV,6,5
217,3,object_07,object_02,1053.0,6,2,594.0,0.8888888888888888,2,object_06,1,2857,0,7,8,library_6,2,memory-2step-stake-s,707,3184945,0.0-19.0-0.1-0.217,A3JI3B5GTVA95F,3QX22DUVPRXA8IOFTTHB0PBO5I3MV1,36U2A8VAG5FZ87HB3UWHHVJ1S9ZKYV,5,6
218,1,object_10,object_05,1088.0,1,1,427.0,0.8888888888888888,1,object_08,5,2897,0,8,8,desert_6,2,memory-2step-stake-s,708,3193415,0.0-19.0-0.1-0.218,A3JI3B5GTVA95F,3QX22DUVPRXA8IOFTTHB0PBO5I3MV1,36U2A8VAG5FZ87HB3UWHHVJ1S9ZKYV,1,2
219,3,object_02,object_07,714.0,5,2,500.0,1.0,1,object_08,1,2906,0,9,3,library_1,2,memory-2step-stake-s,709,3202064,0.0-19.0-0.1-0.219,A3JI3B5GTVA95F,3QX22DUVPRXA8IOFTTHB0PBO5I3MV1,36U2A8VAG5FZ87HB3UWHHVJ1S9ZKYV,6,5
220,1,object_10,object_05,728.0,1,1,404.0,0.7777777777777778,1,object_08,5,2941,0,7,3,desert_6,2,memory-2step-stake-s,710,3210404,0.0-19.0-0.1-0.220,A3JI3B5GTVA95F,3QX22DUVPRXA8IOFTTHB0PBO5I3MV1,36U2A8VAG5FZ87HB3UWHHVJ1S9ZKYV,1,2
221,1,object_10,object_05,716.0,1,1,616.0,0.8888888888888888,1,object_08,5,2981,0,8,3,desert_3,2,memory-2step-stake-s,711,3219054,0.0-19.0-0.1-0.221,A3JI3B5GTVA95F,3QX22DUVPRXA8IOFTTHB0PBO5I3MV1,36U2A8VAG5FZ87HB3UWHHVJ1S9ZKYV,1,2
222,1,object_05,object_10,618.0,1,2,358.0,1.0,1,object_08,5,3026,0,9,2,desert_6,2,memory-2step-stake-s,712,3227554,0.0-19.0-0.1-0.222,A3JI3B5GTVA95F,3QX22DUVPRXA8IOFTTHB0PBO5I3MV1,36U2A8VAG5FZ87HB3UWHHVJ1S9ZKYV,2,1
223,2,object_01,object_03,1454.0,3,2,675.0,0.8888888888888888,1,object_08,5,3066,0,8,5,forest_1,2,memory-2step-stake-s,713,3236264,0.0-19.0-0.1-0.223,A3JI3B5GTVA95F,3QX22DUVPRXA8IOFTTHB0PBO5I3MV1,36U2A8VAG5FZ87HB3UWHHVJ1S9ZKYV,4,3
224,4,object_04,object_09,840.0,7,1,404.0,0.8888888888888888,1,object_08,1,3074,0,8,5,restaurant_8,2,memory-2step-stake-s,714,3244706,0.0-19.0-0.1-0.224,A3JI3B5GTVA95F,3QX22DUVPRXA8IOFTTHB0PBO5I3MV1,36U2A8VAG5FZ87HB3UWHHVJ1S9ZKYV,7,8
225,3,object_02,object_07,1061.0,5,2,577.0,0.6666666666666666,1,object_08,1,3080,0,6,3,library_8,2,memory-2step-stake-s,715,3253116,0.0-19.0-0.1-0.225,A3JI3B5GTVA95F,3QX22DUVPRXA8IOFTTHB0PBO5I3MV1,36U2A8VAG5FZ87HB3UWHHVJ1S9ZKYV,6,5
226,1,object_05,object_10,635.0,1,2,359.0,0.6666666666666666,1,object_08,5,3110,0,6,5,desert_3,2,memory-2step-stake-s,716,3261316,0.0-19.0-0.1-0.226,A3JI3B5GTVA95F,3QX22DUVPRXA8IOFTTHB0PBO5I3MV1,36U2A8VAG5FZ87HB3UWHHVJ1S9ZKYV,2,1
227,2,object_03,object_01,875.0,3,1,600.0,0.5555555555555556,1,object_08,5,3135,0,5,5,forest_1,2,memory-2step-stake-s,717,3269655,0.0-19.0-0.1-0.227,A3JI3B5GTVA95F,3QX22DUVPRXA8IOFTTHB0PBO5I3MV1,36U2A8VAG5FZ87HB3UWHHVJ1S9ZKYV,3,4
228,1,object_10,object_05,639.0,1,1,491.0,0.6666666666666666,1,object_08,5,3165,0,6,2,desert_8,2,memory-2step-stake-s,718,3277985,0.0-19.0-0.1-0.228,A3JI3B5GTVA95F,3QX22DUVPRXA8IOFTTHB0PBO5I3MV1,36U2A8VAG5FZ87HB3UWHHVJ1S9ZKYV,1,2
229,3,object_02,object_07,629.0,5,2,353.0,0.8888888888888888,1,object_08,1,3173,0,8,4,library_1,2,memory-2step-stake-s,719,3286375,0.0-19.0-0.1-0.229,A3JI3B5GTVA95F,3QX22DUVPRXA8IOFTTHB0PBO5I3MV1,36U2A8VAG5FZ87HB3UWHHVJ1S9ZKYV,6,5
230,1,object_10,object_05,791.0,1,1,603.0,0.8888888888888888,1,object_08,1,3181,0,8,8,desert_5,2,memory-2step-stake-s,720,3295015,0.0-19.0-0.1-0.230,A3JI3B5GTVA95F,3QX22DUVPRXA8IOFTTHB0PBO5I3MV1,36U2A8VAG5FZ87HB3UWHHVJ1S9ZKYV,1,2
231,3,object_02,object_07,927.0,5,2,467.0,0.7777777777777778,1,object_08,5,3216,0,7,8,library_7,2,memory-2step-stake-s,721,3303415,0.0-19.0-0.1-0.231,A3JI3B5GTVA95F,3QX22DUVPRXA8IOFTTHB0PBO5I3MV1,36U2A8VAG5FZ87HB3UWHHVJ1S9ZKYV,6,5
232,3,object_07,object_02,734.0,5,1,883.0,0.6666666666666666,1,object_08,5,3246,0,6,6,library_6,2,memory-2step-stake-s,722,3312134,0.0-19.0-0.1-0.232,A3JI3B5GTVA95F,3QX22DUVPRXA8IOFTTHB0PBO5I3MV1,36U2A8VAG5FZ87HB3UWHHVJ1S9ZKYV,5,6
233,1,object_05,object_10,679.0,1,2,626.0,0.7777777777777778,1,object_08,5,3281,0,7,5,desert_3,2,memory-2step-stake-s,723,3320694,0.0-19.0-0.1-0.233,A3JI3B5GTVA95F,3QX22DUVPRXA8IOFTTHB0PBO5I3MV1,36U2A8VAG5FZ87HB3UWHHVJ1S9ZKYV,2,1
234,1,object_10,object_05,559.0,1,1,370.0,0.7777777777777778,1,object_08,1,3288,0,7,5,desert_5,2,memory-2step-stake-s,724,3329004,0.0-19.0-0.1-0.234,A3JI3B5GTVA95F,3QX22DUVPRXA8IOFTTHB0PBO5I3MV1,36U2A8VAG5FZ87HB3UWHHVJ1S9ZKYV,1,2
235,2,object_03,object_01,688.0,3,1,341.0,0.7777777777777778,1,object_08,5,3323,0,7,5,forest_5,2,memory-2step-stake-s,725,3337283,0.0-19.0-0.1-0.235,A3JI3B5GTVA95F,3QX22DUVPRXA8IOFTTHB0PBO5I3MV1,36U2A8VAG5FZ87HB3UWHHVJ1S9ZKYV,3,4
236,3,object_02,object_07,618.0,5,2,390.0,0.3333333333333333,1,object_08,1,3326,0,3,5,library_6,2,memory-2step-stake-s,726,3345204,0.0-19.0-0.1-0.236,A3JI3B5GTVA95F,3QX22DUVPRXA8IOFTTHB0PBO5I3MV1,36U2A8VAG5FZ87HB3UWHHVJ1S9ZKYV,6,5
237,2,object_03,object_01,689.0,3,1,428.0,0.3333333333333333,1,object_08,1,3329,0,3,8,forest_7,2,memory-2step-stake-s,727,3353174,0.0-19.0-0.1-0.237,A3JI3B5GTVA95F,3QX22DUVPRXA8IOFTTHB0PBO5I3MV1,36U2A8VAG5FZ87HB3UWHHVJ1S9ZKYV,3,4
238,1,object_10,object_05,703.0,1,1,378.0,0.2222222222222222,1,object_08,5,3339,0,2,7,desert_3,2,memory-2step-stake-s,728,3360993,0.0-19.0-0.1-0.238,A3JI3B5GTVA95F,3QX22DUVPRXA8IOFTTHB0PBO5I3MV1,36U2A8VAG5FZ87HB3UWHHVJ1S9ZKYV,1,2
239,4,object_04,object_09,1099.0,8,2,454.0,0.5555555555555556,2,object_06,1,3344,0,2,5,restaurant_2,2,memory-2step-stake-s,729,3369183,0.0-19.0-0.1-0.239,A3JI3B5GTVA95F,3QX22DUVPRXA8IOFTTHB0PBO5I3MV1,36U2A8VAG5FZ87HB3UWHHVJ1S9ZKYV,7,8
240,3,object_02,object_07,780.0,5,2,433.0,0.3333333333333333,1,object_08,1,3347,0,3,6,library_8,2,memory-2step-stake-s,730,3377153,0.0-19.0-0.1-0.240,A3JI3B5GTVA95F,3QX22DUVPRXA8IOFTTHB0PBO5I3MV1,36U2A8VAG5FZ87HB3UWHHVJ1S9ZKYV,6,5
241,3,object_07,object_02,683.0,5,1,359.0,0.0,1,object_08,5,3347,0,0,6,library_1,2,memory-2step-stake-s,731,3384752,0.0-19.0-0.1-0.241,A3JI3B5GTVA95F,3QX22DUVPRXA8IOFTTHB0PBO5I3MV1,36U2A8VAG5FZ87HB3UWHHVJ1S9ZKYV,5,6
242,3,object_02,object_07,618.0,6,1,367.0,0.5555555555555556,2,object_06,1,3352,0,2,5,library_1,2,memory-2step-stake-s,732,3392852,0.0-19.0-0.1-0.242,A3JI3B5GTVA95F,3QX22DUVPRXA8IOFTTHB0PBO5I3MV1,36U2A8VAG5FZ87HB3UWHHVJ1S9ZKYV,6,5
243,1,object_05,object_10,847.0,2,1,373.0,0.6666666666666666,2,object_06,5,3382,0,1,6,desert_5,2,memory-2step-stake-s,733,3401052,0.0-19.0-0.1-0.243,A3JI3B5GTVA95F,3QX22DUVPRXA8IOFTTHB0PBO5I3MV1,36U2A8VAG5FZ87HB3UWHHVJ1S9ZKYV,2,1
244,4,object_09,object_04,862.0,8,1,420.0,0.5555555555555556,2,object_06,5,3407,0,1,5,restaurant_4,2,memory-2step-stake-s,734,3409213,0.0-19.0-0.1-0.244,A3JI3B5GTVA95F,3QX22DUVPRXA8IOFTTHB0PBO5I3MV1,36U2A8VAG5FZ87HB3UWHHVJ1S9ZKYV,8,7
245,2,object_01,object_03,1134.0,4,1,419.0,0.7777777777777778,2,object_06,5,3442,0,0,7,forest_7,2,memory-2step-stake-s,735,3417563,0.0-19.0-0.1-0.245,A3JI3B5GTVA95F,3QX22DUVPRXA8IOFTTHB0PBO5I3MV1,36U2A8VAG5FZ87HB3UWHHVJ1S9ZKYV,4,3
246,1,object_05,object_10,664.0,2,1,427.0,0.6666666666666666,2,object_06,5,3472,0,1,6,desert_6,2,memory-2step-stake-s,736,3425822,0.0-19.0-0.1-0.246,A3JI3B5GTVA95F,3QX22DUVPRXA8IOFTTHB0PBO5I3MV1,36U2A8VAG5FZ87HB3UWHHVJ1S9ZKYV,2,1
247,2,object_01,object_03,1060.0,4,1,423.0,0.7777777777777778,2,object_06,5,3507,0,1,7,forest_7,2,memory-2step-stake-s,737,3434182,0.0-19.0-0.1-0.247,A3JI3B5GTVA95F,3QX22DUVPRXA8IOFTTHB0PBO5I3MV1,36U2A8VAG5FZ87HB3UWHHVJ1S9ZKYV,4,3
248,4,object_04,object_09,1252.0,7,1,489.0,0.4444444444444444,1,object_08,1,3511,0,4,8,restaurant_8,2,memory-2step-stake-s,738,3442302,0.0-19.0-0.1-0.248,A3JI3B5GTVA95F,3QX22DUVPRXA8IOFTTHB0PBO5I3MV1,36U2A8VAG5FZ87HB3UWHHVJ1S9ZKYV,7,8
249,1,object_10,object_05,1236.0,1,1,465.0,0.7777777777777778,1,object_08,5,3546,0,7,8,desert_8,2,memory-2step-stake-s,739,3450691,0.0-19.0-0.1-0.249,A3JI3B5GTVA95F,3QX22DUVPRXA8IOFTTHB0PBO5I3MV1,36U2A8VAG5FZ87HB3UWHHVJ1S9ZKYV,1,2
250,1,object_10,object_05,830.0,1,1,563.0,0.8888888888888888,1,object_08,1,3554,0,8,9,desert_3,2,memory-2step-stake-s,740,3459282,0.0-19.0-0.1-0.250,A3JI3B5GTVA95F,3QX22DUVPRXA8IOFTTHB0PBO5I3MV1,36U2A8VAG5FZ87HB3UWHHVJ1S9ZKYV,1,2
251,3,object_07,object_02,904.0,6,2,-1.0,0.0,2,object_06,1,3554,0,6,8,library_8,2,memory-2step-stake-s,741,3467832,0.0-19.0-0.1-0.251,A3JI3B5GTVA95F,3QX22DUVPRXA8IOFTTHB0PBO5I3MV1,36U2A8VAG5FZ87HB3UWHHVJ1S9ZKYV,5,6
252,2,object_01,object_03,906.0,4,1,705.0,1.0,2,object_06,1,3563,0,7,9,forest_7,2,memory-2step-stake-s,742,3476661,0.0-19.0-0.1-0.252,A3JI3B5GTVA95F,3QX22DUVPRXA8IOFTTHB0PBO5I3MV1,36U2A8VAG5FZ87HB3UWHHVJ1S9ZKYV,4,3
253,4,object_04,object_09,732.0,8,2,418.0,0.8888888888888888,2,object_06,1,3571,0,7,8,restaurant_2,2,memory-2step-stake-s,743,3485100,0.0-19.0-0.1-0.253,A3JI3B5GTVA95F,3QX22DUVPRXA8IOFTTHB0PBO5I3MV1,36U2A8VAG5FZ87HB3UWHHVJ1S9ZKYV,7,8
254,2,object_01,object_03,956.0,3,2,505.0,0.5555555555555556,1,object_08,1,3576,0,5,6,forest_4,2,memory-2step-stake-s,744,3493330,0.0-19.0-0.1-0.254,A3JI3B5GTVA95F,3QX22DUVPRXA8IOFTTHB0PBO5I3MV1,36U2A8VAG5FZ87HB3UWHHVJ1S9ZKYV,4,3
255,4,object_04,object_09,830.0,8,2,651.0,0.8888888888888888,2,object_06,5,3616,0,4,8,restaurant_8,2,memory-2step-stake-s,745,3502021,0.0-19.0-0.1-0.255,A3JI3B5GTVA95F,3QX22DUVPRXA8IOFTTHB0PBO5I3MV1,36U2A8VAG5FZ87HB3UWHHVJ1S9ZKYV,7,8
