,state1,stim_left,stim_right,rt_1,choice1,response1,rt_2,points,state2,stim_state2,stake,score,practice,rews1,rews2,background,high_arm,trial_type,trial_index,time_elapsed,internal_node_id,subid,hitid,assignmentid,stim_left_num,stim_right_num
0,4,object_08,object_10,1242.0,7,1,1279.0,0.1111111111111111,1,object_02,1,1,0,1,2,restaurant_8,2,memory-2step-stake-s,507,1691560,0.0-19.0-0.0-0.0,A2866TYG0D96LM,3X4Q1O9UCK2WXV8VOBT8MFKQE0B7O9,3TUI152ZZF3OT4434A95ZUK0KTNQ1Y,7,8
1,3,object_06,object_03,-1.0,-1,-1,-1.0,0.0,-,0,1,1,0,4,2,library_1,2,memory-2step-stake-s,508,1698122,0.0-19.0-0.0-0.1,A2866TYG0D96LM,3X4Q1O9UCK2WXV8VOBT8MFKQE0B7O9,3TUI152ZZF3OT4434A95ZUK0KTNQ1Y,5,6
2,2,object_01,object_07,1283.0,4,2,1291.0,0.1111111111111111,2,object_04,5,6,0,4,1,forest_6,2,memory-2step-stake-s,509,1706760,0.0-19.0-0.0-0.2,A2866TYG0D96LM,3X4Q1O9UCK2WXV8VOBT8MFKQE0B7O9,3TUI152ZZF3OT4434A95ZUK0KTNQ1Y,3,4
3,2,object_01,object_07,737.0,3,1,719.0,0.5555555555555556,1,object_02,5,31,0,5,0,forest_2,2,memory-2step-stake-s,510,1715327,0.0-19.0-0.0-0.3,A2866TYG0D96LM,3X4Q1O9UCK2WXV8VOBT8MFKQE0B7O9,3TUI152ZZF3OT4434A95ZUK0KTNQ1Y,3,4
4,1,object_09,object_05,1027.0,2,2,730.0,0.1111111111111111,2,object_04,5,36,0,5,1,desert_8,2,memory-2step-stake-s,511,1723413,0.0-19.0-0.0-0.4,A2866TYG0D96LM,3X4Q1O9UCK2WXV8VOBT8MFKQE0B7O9,3TUI152ZZF3OT4434A95ZUK0KTNQ1Y,1,2
5,2,object_07,object_01,727.0,4,1,1334.0,0.2222222222222222,2,object_04,5,46,0,7,2,forest_3,2,memory-2step-stake-s,512,1732242,0.0-19.0-0.0-0.5,A2866TYG0D96LM,3X4Q1O9UCK2WXV8VOBT8MFKQE0B7O9,3TUI152ZZF3OT4434A95ZUK0KTNQ1Y,4,3
6,3,object_03,object_06,1124.0,6,1,914.0,0.5555555555555556,2,object_04,5,71,0,9,5,library_7,2,memory-2step-stake-s,513,1740952,0.0-19.0-0.0-0.6,A2866TYG0D96LM,3X4Q1O9UCK2WXV8VOBT8MFKQE0B7O9,3TUI152ZZF3OT4434A95ZUK0KTNQ1Y,6,5
7,3,object_06,object_03,824.0,6,2,520.0,0.4444444444444444,2,object_04,1,75,0,9,4,library_6,2,memory-2step-stake-s,514,1749161,0.0-19.0-0.0-0.7,A2866TYG0D96LM,3X4Q1O9UCK2WXV8VOBT8MFKQE0B7O9,3TUI152ZZF3OT4434A95ZUK0KTNQ1Y,5,6
8,1,object_09,object_05,112.0,1,1,-1.0,0.0,1,object_02,5,75,0,5,6,desert_7,2,memory-2step-stake-s,515,1757744,0.0-19.0-0.0-0.8,A2866TYG0D96LM,3X4Q1O9UCK2WXV8VOBT8MFKQE0B7O9,3TUI152ZZF3OT4434A95ZUK0KTNQ1Y,1,2
9,1,object_05,object_09,441.0,1,2,392.0,0.2222222222222222,1,object_02,1,77,0,2,5,desert_7,2,memory-2step-stake-s,516,1765593,0.0-19.0-0.0-0.9,A2866TYG0D96LM,3X4Q1O9UCK2WXV8VOBT8MFKQE0B7O9,3TUI152ZZF3OT4434A95ZUK0KTNQ1Y,2,1
10,4,object_10,object_08,766.0,8,1,493.0,0.4444444444444444,2,object_04,5,97,0,5,4,restaurant_7,2,memory-2step-stake-s,517,1773776,0.0-19.0-0.0-0.10,A2866TYG0D96LM,3X4Q1O9UCK2WXV8VOBT8MFKQE0B7O9,3TUI152ZZF3OT4434A95ZUK0KTNQ1Y,8,7
11,1,object_05,object_09,800.0,1,2,895.0,0.5555555555555556,1,object_02,5,122,0,5,5,desert_7,2,memory-2step-stake-s,518,1782476,0.0-19.0-0.0-0.11,A2866TYG0D96LM,3X4Q1O9UCK2WXV8VOBT8MFKQE0B7O9,3TUI152ZZF3OT4434A95ZUK0KTNQ1Y,2,1
12,2,object_07,object_01,891.0,3,2,570.0,0.7777777777777778,1,object_02,5,157,0,7,4,forest_3,2,memory-2step-stake-s,519,1791043,0.0-19.0-0.0-0.12,A2866TYG0D96LM,3X4Q1O9UCK2WXV8VOBT8MFKQE0B7O9,3TUI152ZZF3OT4434A95ZUK0KTNQ1Y,4,3
13,3,object_06,object_03,790.0,5,1,621.0,1.0,1,object_02,1,166,0,9,4,library_3,2,memory-2step-stake-s,520,1799892,0.0-19.0-0.0-0.13,A2866TYG0D96LM,3X4Q1O9UCK2WXV8VOBT8MFKQE0B7O9,3TUI152ZZF3OT4434A95ZUK0KTNQ1Y,5,6
14,4,object_08,object_10,763.0,8,2,586.0,0.1111111111111111,2,object_04,1,167,0,8,1,restaurant_1,2,memory-2step-stake-s,521,1807860,0.0-19.0-0.0-0.14,A2866TYG0D96LM,3X4Q1O9UCK2WXV8VOBT8MFKQE0B7O9,3TUI152ZZF3OT4434A95ZUK0KTNQ1Y,7,8
15,3,object_06,object_03,700.0,6,2,475.0,0.1111111111111111,2,object_04,1,168,0,7,1,library_7,2,memory-2step-stake-s,522,1815722,0.0-19.0-0.0-0.15,A2866TYG0D96LM,3X4Q1O9UCK2WXV8VOBT8MFKQE0B7O9,3TUI152ZZF3OT4434A95ZUK0KTNQ1Y,5,6
16,1,object_09,object_05,658.0,1,1,545.0,0.8888888888888888,1,object_02,5,208,0,8,3,desert_7,2,memory-2step-stake-s,523,1824342,0.0-19.0-0.0-0.16,A2866TYG0D96LM,3X4Q1O9UCK2WXV8VOBT8MFKQE0B7O9,3TUI152ZZF3OT4434A95ZUK0KTNQ1Y,1,2
17,3,object_03,object_06,841.0,5,2,784.0,0.7777777777777778,1,object_02,1,215,0,7,3,library_7,2,memory-2step-stake-s,524,1833163,0.0-19.0-0.0-0.17,A2866TYG0D96LM,3X4Q1O9UCK2WXV8VOBT8MFKQE0B7O9,3TUI152ZZF3OT4434A95ZUK0KTNQ1Y,6,5
18,4,object_08,object_10,568.0,7,1,592.0,0.7777777777777778,1,object_02,1,222,0,7,3,restaurant_6,2,memory-2step-stake-s,525,1841777,0.0-19.0-0.0-0.18,A2866TYG0D96LM,3X4Q1O9UCK2WXV8VOBT8MFKQE0B7O9,3TUI152ZZF3OT4434A95ZUK0KTNQ1Y,7,8
19,2,object_07,object_01,855.0,3,2,702.0,0.8888888888888888,1,object_02,5,262,0,8,6,forest_2,2,memory-2step-stake-s,526,1850602,0.0-19.0-0.0-0.19,A2866TYG0D96LM,3X4Q1O9UCK2WXV8VOBT8MFKQE0B7O9,3TUI152ZZF3OT4434A95ZUK0KTNQ1Y,4,3
20,1,object_09,object_05,1103.0,1,1,806.0,0.5555555555555556,1,object_02,5,287,0,5,9,desert_7,2,memory-2step-stake-s,527,1859177,0.0-19.0-0.0-0.20,A2866TYG0D96LM,3X4Q1O9UCK2WXV8VOBT8MFKQE0B7O9,3TUI152ZZF3OT4434A95ZUK0KTNQ1Y,1,2
21,3,object_03,object_06,960.0,5,2,830.0,0.6666666666666666,1,object_02,1,293,0,6,8,library_3,2,memory-2step-stake-s,528,1867933,0.0-19.0-0.0-0.21,A2866TYG0D96LM,3X4Q1O9UCK2WXV8VOBT8MFKQE0B7O9,3TUI152ZZF3OT4434A95ZUK0KTNQ1Y,6,5
22,2,object_07,object_01,865.0,4,1,624.0,0.7777777777777778,2,object_04,5,328,0,5,7,forest_6,2,memory-2step-stake-s,529,1876593,0.0-19.0-0.0-0.22,A2866TYG0D96LM,3X4Q1O9UCK2WXV8VOBT8MFKQE0B7O9,3TUI152ZZF3OT4434A95ZUK0KTNQ1Y,4,3
23,4,object_10,object_08,668.0,8,1,545.0,0.5555555555555556,2,object_04,1,333,0,7,5,restaurant_7,2,memory-2step-stake-s,530,1884942,0.0-19.0-0.0-0.23,A2866TYG0D96LM,3X4Q1O9UCK2WXV8VOBT8MFKQE0B7O9,3TUI152ZZF3OT4434A95ZUK0KTNQ1Y,8,7
24,2,object_01,object_07,553.0,4,2,934.0,0.8888888888888888,2,object_04,1,341,0,4,8,forest_6,2,memory-2step-stake-s,531,1893992,0.0-19.0-0.0-0.24,A2866TYG0D96LM,3X4Q1O9UCK2WXV8VOBT8MFKQE0B7O9,3TUI152ZZF3OT4434A95ZUK0KTNQ1Y,3,4
25,4,object_08,object_10,554.0,7,1,726.0,0.5555555555555556,1,object_02,1,346,0,5,9,restaurant_8,2,memory-2step-stake-s,532,1902526,0.0-19.0-0.0-0.25,A2866TYG0D96LM,3X4Q1O9UCK2WXV8VOBT8MFKQE0B7O9,3TUI152ZZF3OT4434A95ZUK0KTNQ1Y,7,8
26,4,object_10,object_08,778.0,7,2,569.0,0.6666666666666666,1,object_02,5,376,0,6,5,restaurant_7,2,memory-2step-stake-s,533,1910992,0.0-19.0-0.0-0.26,A2866TYG0D96LM,3X4Q1O9UCK2WXV8VOBT8MFKQE0B7O9,3TUI152ZZF3OT4434A95ZUK0KTNQ1Y,8,7
27,2,object_01,object_07,752.0,3,1,414.0,0.6666666666666666,1,object_02,1,382,0,6,3,forest_4,2,memory-2step-stake-s,534,1919310,0.0-19.0-0.0-0.27,A2866TYG0D96LM,3X4Q1O9UCK2WXV8VOBT8MFKQE0B7O9,3TUI152ZZF3OT4434A95ZUK0KTNQ1Y,3,4
28,2,object_07,object_01,762.0,3,2,657.0,1.0,1,object_02,5,427,0,9,6,forest_4,2,memory-2step-stake-s,535,1928212,0.0-19.0-0.0-0.28,A2866TYG0D96LM,3X4Q1O9UCK2WXV8VOBT8MFKQE0B7O9,3TUI152ZZF3OT4434A95ZUK0KTNQ1Y,4,3
29,1,object_09,object_05,967.0,1,1,502.0,0.7777777777777778,1,object_02,5,462,0,7,7,desert_8,2,memory-2step-stake-s,536,1936709,0.0-19.0-0.0-0.29,A2866TYG0D96LM,3X4Q1O9UCK2WXV8VOBT8MFKQE0B7O9,3TUI152ZZF3OT4434A95ZUK0KTNQ1Y,1,2
30,1,object_09,object_05,762.0,1,1,467.0,0.6666666666666666,1,object_02,5,492,0,6,5,desert_8,2,memory-2step-stake-s,537,1945077,0.0-19.0-0.0-0.30,A2866TYG0D96LM,3X4Q1O9UCK2WXV8VOBT8MFKQE0B7O9,3TUI152ZZF3OT4434A95ZUK0KTNQ1Y,1,2
31,2,object_01,object_07,1004.0,4,2,427.0,0.5555555555555556,2,object_04,5,517,0,5,5,forest_4,2,memory-2step-stake-s,538,1953322,0.0-19.0-0.0-0.31,A2866TYG0D96LM,3X4Q1O9UCK2WXV8VOBT8MFKQE0B7O9,3TUI152ZZF3OT4434A95ZUK0KTNQ1Y,3,4
32,4,object_10,object_08,715.0,8,1,514.0,0.6666666666666666,2,object_04,5,547,0,7,6,restaurant_1,2,memory-2step-stake-s,539,1961676,0.0-19.0-0.0-0.32,A2866TYG0D96LM,3X4Q1O9UCK2WXV8VOBT8MFKQE0B7O9,3TUI152ZZF3OT4434A95ZUK0KTNQ1Y,8,7
33,1,object_09,object_05,997.0,1,1,580.0,0.2222222222222222,1,object_02,5,557,0,2,8,desert_6,2,memory-2step-stake-s,540,1969692,0.0-19.0-0.0-0.33,A2866TYG0D96LM,3X4Q1O9UCK2WXV8VOBT8MFKQE0B7O9,3TUI152ZZF3OT4434A95ZUK0KTNQ1Y,1,2
34,3,object_06,object_03,828.0,6,2,706.0,0.7777777777777778,2,object_04,1,564,0,2,7,library_3,2,memory-2step-stake-s,541,1978459,0.0-19.0-0.0-0.34,A2866TYG0D96LM,3X4Q1O9UCK2WXV8VOBT8MFKQE0B7O9,3TUI152ZZF3OT4434A95ZUK0KTNQ1Y,5,6
35,1,object_05,object_09,1437.0,1,2,500.0,0.3333333333333333,1,object_02,1,567,0,3,5,desert_7,2,memory-2step-stake-s,542,1986543,0.0-19.0-0.0-0.35,A2866TYG0D96LM,3X4Q1O9UCK2WXV8VOBT8MFKQE0B7O9,3TUI152ZZF3OT4434A95ZUK0KTNQ1Y,2,1
36,2,object_07,object_01,934.0,4,1,481.0,0.2222222222222222,2,object_04,5,577,0,7,2,forest_2,2,memory-2step-stake-s,543,1994509,0.0-19.0-0.0-0.36,A2866TYG0D96LM,3X4Q1O9UCK2WXV8VOBT8MFKQE0B7O9,3TUI152ZZF3OT4434A95ZUK0KTNQ1Y,4,3
37,4,object_10,object_08,1067.0,8,1,458.0,0.2222222222222222,2,object_04,1,579,0,7,2,restaurant_8,2,memory-2step-stake-s,544,2002425,0.0-19.0-0.0-0.37,A2866TYG0D96LM,3X4Q1O9UCK2WXV8VOBT8MFKQE0B7O9,3TUI152ZZF3OT4434A95ZUK0KTNQ1Y,8,7
38,3,object_03,object_06,1414.0,6,1,709.0,0.1111111111111111,2,object_04,1,580,0,8,1,library_6,2,memory-2step-stake-s,545,2010502,0.0-19.0-0.0-0.38,A2866TYG0D96LM,3X4Q1O9UCK2WXV8VOBT8MFKQE0B7O9,3TUI152ZZF3OT4434A95ZUK0KTNQ1Y,6,5
39,2,object_07,object_01,1244.0,3,2,611.0,1.0,1,object_02,5,625,0,9,2,forest_4,2,memory-2step-stake-s,546,2019342,0.0-19.0-0.0-0.39,A2866TYG0D96LM,3X4Q1O9UCK2WXV8VOBT8MFKQE0B7O9,3TUI152ZZF3OT4434A95ZUK0KTNQ1Y,4,3
40,2,object_07,object_01,1233.0,4,1,377.0,0.2222222222222222,2,object_04,1,627,0,9,2,forest_2,2,memory-2step-stake-s,547,2027223,0.0-19.0-0.0-0.40,A2866TYG0D96LM,3X4Q1O9UCK2WXV8VOBT8MFKQE0B7O9,3TUI152ZZF3OT4434A95ZUK0KTNQ1Y,4,3
41,2,object_01,object_07,924.0,3,1,347.0,1.0,1,object_02,5,672,0,9,2,forest_4,2,memory-2step-stake-s,548,2035773,0.0-19.0-0.0-0.41,A2866TYG0D96LM,3X4Q1O9UCK2WXV8VOBT8MFKQE0B7O9,3TUI152ZZF3OT4434A95ZUK0KTNQ1Y,3,4
42,4,object_08,object_10,896.0,7,1,809.0,0.8888888888888888,1,object_02,1,680,0,8,0,restaurant_6,2,memory-2step-stake-s,549,2044709,0.0-19.0-0.0-0.42,A2866TYG0D96LM,3X4Q1O9UCK2WXV8VOBT8MFKQE0B7O9,3TUI152ZZF3OT4434A95ZUK0KTNQ1Y,7,8
43,3,object_06,object_03,815.0,6,2,348.0,0.3333333333333333,2,object_04,1,683,0,5,3,library_6,2,memory-2step-stake-s,550,2052626,0.0-19.0-0.0-0.43,A2866TYG0D96LM,3X4Q1O9UCK2WXV8VOBT8MFKQE0B7O9,3TUI152ZZF3OT4434A95ZUK0KTNQ1Y,5,6
44,4,object_10,object_08,1342.0,8,1,790.0,0.0,2,object_04,1,683,0,9,0,restaurant_7,2,memory-2step-stake-s,551,2060663,0.0-19.0-0.0-0.44,A2866TYG0D96LM,3X4Q1O9UCK2WXV8VOBT8MFKQE0B7O9,3TUI152ZZF3OT4434A95ZUK0KTNQ1Y,8,7
45,2,object_07,object_01,647.0,3,2,332.0,1.0,1,object_02,5,728,0,9,1,forest_3,2,memory-2step-stake-s,552,2069225,0.0-19.0-0.0-0.45,A2866TYG0D96LM,3X4Q1O9UCK2WXV8VOBT8MFKQE0B7O9,3TUI152ZZF3OT4434A95ZUK0KTNQ1Y,4,3
46,1,object_05,object_09,702.0,1,2,365.0,1.0,1,object_02,5,773,0,9,1,desert_2,2,memory-2step-stake-s,553,2077792,0.0-19.0-0.0-0.46,A2866TYG0D96LM,3X4Q1O9UCK2WXV8VOBT8MFKQE0B7O9,3TUI152ZZF3OT4434A95ZUK0KTNQ1Y,2,1
47,3,object_03,object_06,824.0,6,1,336.0,0.0,2,object_04,1,773,0,9,0,library_7,2,memory-2step-stake-s,554,2085392,0.0-19.0-0.0-0.47,A2866TYG0D96LM,3X4Q1O9UCK2WXV8VOBT8MFKQE0B7O9,3TUI152ZZF3OT4434A95ZUK0KTNQ1Y,6,5
48,1,object_05,object_09,847.0,1,2,670.0,1.0,1,object_02,5,818,0,9,3,desert_7,2,memory-2step-stake-s,555,2094258,0.0-19.0-0.0-0.48,A2866TYG0D96LM,3X4Q1O9UCK2WXV8VOBT8MFKQE0B7O9,3TUI152ZZF3OT4434A95ZUK0KTNQ1Y,2,1
49,1,object_05,object_09,1180.0,1,2,341.0,0.5555555555555556,1,object_02,5,843,0,5,1,desert_6,2,memory-2step-stake-s,556,2102392,0.0-19.0-0.0-0.49,A2866TYG0D96LM,3X4Q1O9UCK2WXV8VOBT8MFKQE0B7O9,3TUI152ZZF3OT4434A95ZUK0KTNQ1Y,2,1
50,1,object_09,object_05,696.0,1,1,338.0,0.5555555555555556,1,object_02,5,868,0,5,1,desert_8,2,memory-2step-stake-s,557,2110552,0.0-19.0-0.0-0.50,A2866TYG0D96LM,3X4Q1O9UCK2WXV8VOBT8MFKQE0B7O9,3TUI152ZZF3OT4434A95ZUK0KTNQ1Y,1,2
51,2,object_01,object_07,1225.0,3,1,417.0,0.1111111111111111,1,object_02,5,873,0,1,3,forest_2,2,memory-2step-stake-s,558,2118352,0.0-19.0-0.0-0.51,A2866TYG0D96LM,3X4Q1O9UCK2WXV8VOBT8MFKQE0B7O9,3TUI152ZZF3OT4434A95ZUK0KTNQ1Y,3,4
52,2,object_01,object_07,955.0,3,1,425.0,0.3333333333333333,1,object_02,5,888,0,3,1,forest_4,2,memory-2step-stake-s,559,2126292,0.0-19.0-0.0-0.52,A2866TYG0D96LM,3X4Q1O9UCK2WXV8VOBT8MFKQE0B7O9,3TUI152ZZF3OT4434A95ZUK0KTNQ1Y,3,4
53,3,object_03,object_06,1012.0,5,2,331.0,0.5555555555555556,1,object_02,1,893,0,5,0,library_3,2,memory-2step-stake-s,560,2134425,0.0-19.0-0.0-0.53,A2866TYG0D96LM,3X4Q1O9UCK2WXV8VOBT8MFKQE0B7O9,3TUI152ZZF3OT4434A95ZUK0KTNQ1Y,6,5
54,1,object_09,object_05,1048.0,1,1,929.0,0.5555555555555556,1,object_02,5,918,0,5,2,desert_7,2,memory-2step-stake-s,561,2143163,0.0-19.0-0.0-0.54,A2866TYG0D96LM,3X4Q1O9UCK2WXV8VOBT8MFKQE0B7O9,3TUI152ZZF3OT4434A95ZUK0KTNQ1Y,1,2
55,1,object_05,object_09,842.0,1,2,721.0,0.5555555555555556,1,object_02,1,923,0,5,1,desert_7,2,memory-2step-stake-s,562,2151659,0.0-19.0-0.0-0.55,A2866TYG0D96LM,3X4Q1O9UCK2WXV8VOBT8MFKQE0B7O9,3TUI152ZZF3OT4434A95ZUK0KTNQ1Y,2,1
56,3,object_06,object_03,769.0,6,2,583.0,0.2222222222222222,2,object_04,5,933,0,4,2,library_3,2,memory-2step-stake-s,563,2159709,0.0-19.0-0.0-0.56,A2866TYG0D96LM,3X4Q1O9UCK2WXV8VOBT8MFKQE0B7O9,3TUI152ZZF3OT4434A95ZUK0KTNQ1Y,5,6
57,3,object_06,object_03,956.0,6,2,948.0,0.1111111111111111,2,object_04,5,938,0,5,1,library_6,2,memory-2step-stake-s,564,2168042,0.0-19.0-0.0-0.57,A2866TYG0D96LM,3X4Q1O9UCK2WXV8VOBT8MFKQE0B7O9,3TUI152ZZF3OT4434A95ZUK0KTNQ1Y,5,6
58,4,object_10,object_08,862.0,7,2,644.0,0.6666666666666666,1,object_02,1,944,0,6,0,restaurant_1,2,memory-2step-stake-s,565,2176592,0.0-19.0-0.0-0.58,A2866TYG0D96LM,3X4Q1O9UCK2WXV8VOBT8MFKQE0B7O9,3TUI152ZZF3OT4434A95ZUK0KTNQ1Y,8,7
59,2,object_07,object_01,1008.0,3,2,343.0,0.6666666666666666,1,object_02,5,974,0,6,2,forest_6,2,memory-2step-stake-s,566,2184808,0.0-19.0-0.0-0.59,A2866TYG0D96LM,3X4Q1O9UCK2WXV8VOBT8MFKQE0B7O9,3TUI152ZZF3OT4434A95ZUK0KTNQ1Y,4,3
60,3,object_03,object_06,1046.0,5,2,396.0,0.7777777777777778,1,object_02,1,981,0,7,1,library_1,2,memory-2step-stake-s,567,2193259,0.0-19.0-0.0-0.60,A2866TYG0D96LM,3X4Q1O9UCK2WXV8VOBT8MFKQE0B7O9,3TUI152ZZF3OT4434A95ZUK0KTNQ1Y,6,5
61,3,object_06,object_03,1071.0,6,2,762.0,0.1111111111111111,2,object_04,1,982,0,8,1,library_3,2,memory-2step-stake-s,568,2201358,0.0-19.0-0.0-0.61,A2866TYG0D96LM,3X4Q1O9UCK2WXV8VOBT8MFKQE0B7O9,3TUI152ZZF3OT4434A95ZUK0KTNQ1Y,5,6
62,2,object_07,object_01,737.0,4,1,352.0,0.6666666666666666,2,object_04,5,1012,0,6,6,forest_6,2,memory-2step-stake-s,569,2209576,0.0-19.0-0.0-0.62,A2866TYG0D96LM,3X4Q1O9UCK2WXV8VOBT8MFKQE0B7O9,3TUI152ZZF3OT4434A95ZUK0KTNQ1Y,4,3
63,2,object_01,object_07,1064.0,3,1,554.0,0.7777777777777778,1,object_02,5,1047,0,7,3,forest_3,2,memory-2step-stake-s,570,2218132,0.0-19.0-0.0-0.63,A2866TYG0D96LM,3X4Q1O9UCK2WXV8VOBT8MFKQE0B7O9,3TUI152ZZF3OT4434A95ZUK0KTNQ1Y,3,4
64,3,object_06,object_03,1059.0,5,1,1154.0,0.7777777777777778,1,object_02,1,1054,0,7,3,library_1,2,memory-2step-stake-s,571,2227275,0.0-19.0-0.0-0.64,A2866TYG0D96LM,3X4Q1O9UCK2WXV8VOBT8MFKQE0B7O9,3TUI152ZZF3OT4434A95ZUK0KTNQ1Y,5,6
65,4,object_08,object_10,1180.0,8,2,420.0,0.6666666666666666,2,object_04,5,1084,0,7,6,restaurant_8,2,memory-2step-stake-s,572,2235633,0.0-19.0-0.0-0.65,A2866TYG0D96LM,3X4Q1O9UCK2WXV8VOBT8MFKQE0B7O9,3TUI152ZZF3OT4434A95ZUK0KTNQ1Y,7,8
66,4,object_10,object_08,694.0,8,1,494.0,0.3333333333333333,2,object_04,1,1087,0,8,3,restaurant_6,2,memory-2step-stake-s,573,2243675,0.0-19.0-0.0-0.66,A2866TYG0D96LM,3X4Q1O9UCK2WXV8VOBT8MFKQE0B7O9,3TUI152ZZF3OT4434A95ZUK0KTNQ1Y,8,7
67,3,object_06,object_03,788.0,5,1,380.0,1.0,1,object_02,1,1096,0,9,2,library_1,2,memory-2step-stake-s,574,2252292,0.0-19.0-0.0-0.67,A2866TYG0D96LM,3X4Q1O9UCK2WXV8VOBT8MFKQE0B7O9,3TUI152ZZF3OT4434A95ZUK0KTNQ1Y,5,6
68,3,object_03,object_06,702.0,5,2,357.0,0.7777777777777778,1,object_02,1,1103,0,7,2,library_1,2,memory-2step-stake-s,575,2260643,0.0-19.0-0.0-0.68,A2866TYG0D96LM,3X4Q1O9UCK2WXV8VOBT8MFKQE0B7O9,3TUI152ZZF3OT4434A95ZUK0KTNQ1Y,6,5
69,3,object_06,object_03,1254.0,6,2,508.0,0.3333333333333333,2,object_04,5,1118,0,7,3,library_7,2,memory-2step-stake-s,576,2268730,0.0-19.0-0.0-0.69,A2866TYG0D96LM,3X4Q1O9UCK2WXV8VOBT8MFKQE0B7O9,3TUI152ZZF3OT4434A95ZUK0KTNQ1Y,5,6
70,2,object_01,object_07,962.0,3,1,361.0,0.8888888888888888,1,object_02,1,1126,0,8,3,forest_3,2,memory-2step-stake-s,577,2277242,0.0-19.0-0.0-0.70,A2866TYG0D96LM,3X4Q1O9UCK2WXV8VOBT8MFKQE0B7O9,3TUI152ZZF3OT4434A95ZUK0KTNQ1Y,3,4
71,2,object_07,object_01,766.0,3,2,467.0,0.8888888888888888,1,object_02,5,1166,0,8,2,forest_6,2,memory-2step-stake-s,578,2285882,0.0-19.0-0.0-0.71,A2866TYG0D96LM,3X4Q1O9UCK2WXV8VOBT8MFKQE0B7O9,3TUI152ZZF3OT4434A95ZUK0KTNQ1Y,4,3
72,2,object_01,object_07,869.0,3,1,461.0,0.8888888888888888,1,object_02,5,1206,0,8,1,forest_2,2,memory-2step-stake-s,579,2294475,0.0-19.0-0.0-0.72,A2866TYG0D96LM,3X4Q1O9UCK2WXV8VOBT8MFKQE0B7O9,3TUI152ZZF3OT4434A95ZUK0KTNQ1Y,3,4
73,1,object_05,object_09,1292.0,1,2,512.0,0.6666666666666666,1,object_02,5,1236,0,6,1,desert_2,2,memory-2step-stake-s,580,2302933,0.0-19.0-0.0-0.73,A2866TYG0D96LM,3X4Q1O9UCK2WXV8VOBT8MFKQE0B7O9,3TUI152ZZF3OT4434A95ZUK0KTNQ1Y,2,1
74,1,object_05,object_09,1140.0,2,1,403.0,0.0,2,object_04,1,1236,0,8,0,desert_6,2,memory-2step-stake-s,581,2310623,0.0-19.0-0.0-0.74,A2866TYG0D96LM,3X4Q1O9UCK2WXV8VOBT8MFKQE0B7O9,3TUI152ZZF3OT4434A95ZUK0KTNQ1Y,2,1
75,2,object_07,object_01,1254.0,4,1,375.0,0.2222222222222222,2,object_04,1,1238,0,6,2,forest_2,2,memory-2step-stake-s,582,2318492,0.0-19.0-0.0-0.75,A2866TYG0D96LM,3X4Q1O9UCK2WXV8VOBT8MFKQE0B7O9,3TUI152ZZF3OT4434A95ZUK0KTNQ1Y,4,3
76,3,object_06,object_03,828.0,5,1,379.0,0.8888888888888888,1,object_02,1,1246,0,8,1,library_6,2,memory-2step-stake-s,583,2326992,0.0-19.0-0.0-0.76,A2866TYG0D96LM,3X4Q1O9UCK2WXV8VOBT8MFKQE0B7O9,3TUI152ZZF3OT4434A95ZUK0KTNQ1Y,5,6
77,4,object_10,object_08,921.0,7,2,605.0,0.7777777777777778,1,object_02,1,1253,0,7,0,restaurant_7,2,memory-2step-stake-s,584,2335658,0.0-19.0-0.0-0.77,A2866TYG0D96LM,3X4Q1O9UCK2WXV8VOBT8MFKQE0B7O9,3TUI152ZZF3OT4434A95ZUK0KTNQ1Y,8,7
78,3,object_06,object_03,644.0,5,1,437.0,1.0,1,object_02,5,1298,0,9,0,library_6,2,memory-2step-stake-s,585,2344375,0.0-19.0-0.0-0.78,A2866TYG0D96LM,3X4Q1O9UCK2WXV8VOBT8MFKQE0B7O9,3TUI152ZZF3OT4434A95ZUK0KTNQ1Y,5,6
79,1,object_05,object_09,1087.0,1,2,729.0,0.8888888888888888,1,object_02,5,1338,0,8,0,desert_6,2,memory-2step-stake-s,586,2353225,0.0-19.0-0.0-0.79,A2866TYG0D96LM,3X4Q1O9UCK2WXV8VOBT8MFKQE0B7O9,3TUI152ZZF3OT4434A95ZUK0KTNQ1Y,2,1
80,4,object_10,object_08,901.0,7,2,662.0,1.0,1,object_02,1,1347,0,9,2,restaurant_6,2,memory-2step-stake-s,587,2362108,0.0-19.0-0.0-0.80,A2866TYG0D96LM,3X4Q1O9UCK2WXV8VOBT8MFKQE0B7O9,3TUI152ZZF3OT4434A95ZUK0KTNQ1Y,8,7
81,1,object_05,object_09,940.0,1,2,380.0,0.7777777777777778,1,object_02,5,1382,0,7,3,desert_8,2,memory-2step-stake-s,588,2370513,0.0-19.0-0.0-0.81,A2866TYG0D96LM,3X4Q1O9UCK2WXV8VOBT8MFKQE0B7O9,3TUI152ZZF3OT4434A95ZUK0KTNQ1Y,2,1
82,3,object_03,object_06,988.0,6,1,362.0,0.6666666666666666,2,object_04,1,1388,0,7,6,library_3,2,memory-2step-stake-s,589,2378775,0.0-19.0-0.0-0.82,A2866TYG0D96LM,3X4Q1O9UCK2WXV8VOBT8MFKQE0B7O9,3TUI152ZZF3OT4434A95ZUK0KTNQ1Y,6,5
83,2,object_07,object_01,985.0,3,2,457.0,0.5555555555555556,1,object_02,1,1393,0,5,5,forest_3,2,memory-2step-stake-s,590,2387008,0.0-19.0-0.0-0.83,A2866TYG0D96LM,3X4Q1O9UCK2WXV8VOBT8MFKQE0B7O9,3TUI152ZZF3OT4434A95ZUK0KTNQ1Y,4,3
84,3,object_06,object_03,815.0,6,2,342.0,0.6666666666666666,2,object_04,1,1399,0,4,6,library_6,2,memory-2step-stake-s,591,2395274,0.0-19.0-0.0-0.84,A2866TYG0D96LM,3X4Q1O9UCK2WXV8VOBT8MFKQE0B7O9,3TUI152ZZF3OT4434A95ZUK0KTNQ1Y,5,6
85,1,object_09,object_05,981.0,1,1,493.0,0.4444444444444444,1,object_02,5,1419,0,4,8,desert_2,2,memory-2step-stake-s,592,2403472,0.0-19.0-0.0-0.85,A2866TYG0D96LM,3X4Q1O9UCK2WXV8VOBT8MFKQE0B7O9,3TUI152ZZF3OT4434A95ZUK0KTNQ1Y,1,2
86,3,object_06,object_03,854.0,6,2,724.0,0.8888888888888888,2,object_04,1,1427,0,4,8,library_1,2,memory-2step-stake-s,593,2412242,0.0-19.0-0.0-0.86,A2866TYG0D96LM,3X4Q1O9UCK2WXV8VOBT8MFKQE0B7O9,3TUI152ZZF3OT4434A95ZUK0KTNQ1Y,5,6
87,4,object_08,object_10,791.0,8,2,1008.0,0.8888888888888888,2,object_04,1,1435,0,3,8,restaurant_8,2,memory-2step-stake-s,594,2421342,0.0-19.0-0.0-0.87,A2866TYG0D96LM,3X4Q1O9UCK2WXV8VOBT8MFKQE0B7O9,3TUI152ZZF3OT4434A95ZUK0KTNQ1Y,7,8
88,2,object_01,object_07,899.0,3,1,867.0,0.5555555555555556,1,object_02,5,1460,0,5,8,forest_4,2,memory-2step-stake-s,595,2430008,0.0-19.0-0.0-0.88,A2866TYG0D96LM,3X4Q1O9UCK2WXV8VOBT8MFKQE0B7O9,3TUI152ZZF3OT4434A95ZUK0KTNQ1Y,3,4
89,3,object_06,object_03,863.0,6,2,598.0,0.7777777777777778,2,object_04,1,1467,0,4,7,library_7,2,memory-2step-stake-s,596,2438642,0.0-19.0-0.0-0.89,A2866TYG0D96LM,3X4Q1O9UCK2WXV8VOBT8MFKQE0B7O9,3TUI152ZZF3OT4434A95ZUK0KTNQ1Y,5,6
90,3,object_03,object_06,864.0,6,1,502.0,0.5555555555555556,2,object_04,1,1472,0,5,5,library_6,2,memory-2step-stake-s,597,2446908,0.0-19.0-0.0-0.90,A2866TYG0D96LM,3X4Q1O9UCK2WXV8VOBT8MFKQE0B7O9,3TUI152ZZF3OT4434A95ZUK0KTNQ1Y,6,5
91,4,object_08,object_10,859.0,8,2,417.0,0.8888888888888888,2,object_04,1,1480,0,4,8,restaurant_1,2,memory-2step-stake-s,598,2455442,0.0-19.0-0.0-0.91,A2866TYG0D96LM,3X4Q1O9UCK2WXV8VOBT8MFKQE0B7O9,3TUI152ZZF3OT4434A95ZUK0KTNQ1Y,7,8
92,2,object_01,object_07,919.0,3,1,325.0,0.3333333333333333,1,object_02,1,1483,0,3,5,forest_4,2,memory-2step-stake-s,599,2463342,0.0-19.0-0.0-0.92,A2866TYG0D96LM,3X4Q1O9UCK2WXV8VOBT8MFKQE0B7O9,3TUI152ZZF3OT4434A95ZUK0KTNQ1Y,3,4
93,4,object_10,object_08,1260.0,7,2,483.0,0.2222222222222222,1,object_02,1,1485,0,2,2,restaurant_8,2,memory-2step-stake-s,600,2471292,0.0-19.0-0.0-0.93,A2866TYG0D96LM,3X4Q1O9UCK2WXV8VOBT8MFKQE0B7O9,3TUI152ZZF3OT4434A95ZUK0KTNQ1Y,8,7
94,2,object_01,object_07,950.0,4,2,677.0,0.1111111111111111,2,object_04,1,1486,0,0,1,forest_6,2,memory-2step-stake-s,601,2479324,0.0-19.0-0.0-0.94,A2866TYG0D96LM,3X4Q1O9UCK2WXV8VOBT8MFKQE0B7O9,3TUI152ZZF3OT4434A95ZUK0KTNQ1Y,3,4
95,2,object_07,object_01,691.0,4,1,331.0,0.1111111111111111,2,object_04,5,1491,0,4,1,forest_2,2,memory-2step-stake-s,602,2487024,0.0-19.0-0.0-0.95,A2866TYG0D96LM,3X4Q1O9UCK2WXV8VOBT8MFKQE0B7O9,3TUI152ZZF3OT4434A95ZUK0KTNQ1Y,4,3
96,1,object_05,object_09,1006.0,2,1,922.0,0.1111111111111111,2,object_04,1,1492,0,9,1,desert_7,2,memory-2step-stake-s,603,2495324,0.0-19.0-0.0-0.96,A2866TYG0D96LM,3X4Q1O9UCK2WXV8VOBT8MFKQE0B7O9,3TUI152ZZF3OT4434A95ZUK0KTNQ1Y,2,1
97,4,object_10,object_08,938.0,7,2,499.0,0.7777777777777778,1,object_02,1,1499,0,7,3,restaurant_7,2,memory-2step-stake-s,604,2503808,0.0-19.0-0.0-0.97,A2866TYG0D96LM,3X4Q1O9UCK2WXV8VOBT8MFKQE0B7O9,3TUI152ZZF3OT4434A95ZUK0KTNQ1Y,8,7
98,3,object_06,object_03,768.0,6,2,584.0,0.4444444444444444,2,object_04,1,1503,0,8,4,library_7,2,memory-2step-stake-s,605,2512074,0.0-19.0-0.0-0.98,A2866TYG0D96LM,3X4Q1O9UCK2WXV8VOBT8MFKQE0B7O9,3TUI152ZZF3OT4434A95ZUK0KTNQ1Y,5,6
99,3,object_03,object_06,719.0,6,1,844.0,0.1111111111111111,2,object_04,1,1504,0,9,1,library_7,2,memory-2step-stake-s,606,2520257,0.0-19.0-0.0-0.99,A2866TYG0D96LM,3X4Q1O9UCK2WXV8VOBT8MFKQE0B7O9,3TUI152ZZF3OT4434A95ZUK0KTNQ1Y,6,5
100,2,object_01,object_07,782.0,3,1,316.0,0.7777777777777778,1,object_02,5,1539,0,7,2,forest_3,2,memory-2step-stake-s,607,2528624,0.0-19.0-0.0-0.100,A2866TYG0D96LM,3X4Q1O9UCK2WXV8VOBT8MFKQE0B7O9,3TUI152ZZF3OT4434A95ZUK0KTNQ1Y,3,4
101,4,object_08,object_10,1017.0,7,1,543.0,0.5555555555555556,1,object_02,1,1544,0,5,0,restaurant_8,2,memory-2step-stake-s,608,2536957,0.0-19.0-0.0-0.101,A2866TYG0D96LM,3X4Q1O9UCK2WXV8VOBT8MFKQE0B7O9,3TUI152ZZF3OT4434A95ZUK0KTNQ1Y,7,8
102,1,object_05,object_09,644.0,1,2,306.0,0.3333333333333333,1,object_02,5,1559,0,3,3,desert_8,2,memory-2step-stake-s,609,2544858,0.0-19.0-0.0-0.102,A2866TYG0D96LM,3X4Q1O9UCK2WXV8VOBT8MFKQE0B7O9,3TUI152ZZF3OT4434A95ZUK0KTNQ1Y,2,1
103,4,object_08,object_10,1278.0,7,1,-1.0,0.0,1,object_02,1,1559,0,1,4,restaurant_6,2,memory-2step-stake-s,610,2553441,0.0-19.0-0.0-0.103,A2866TYG0D96LM,3X4Q1O9UCK2WXV8VOBT8MFKQE0B7O9,3TUI152ZZF3OT4434A95ZUK0KTNQ1Y,7,8
104,4,object_10,object_08,1256.0,8,1,600.0,0.6666666666666666,2,object_04,5,1589,0,1,6,restaurant_7,2,memory-2step-stake-s,611,2561922,0.0-19.0-0.0-0.104,A2866TYG0D96LM,3X4Q1O9UCK2WXV8VOBT8MFKQE0B7O9,3TUI152ZZF3OT4434A95ZUK0KTNQ1Y,8,7
105,1,object_09,object_05,931.0,1,1,816.0,0.1111111111111111,1,object_02,5,1594,0,1,8,desert_6,2,memory-2step-stake-s,612,2570107,0.0-19.0-0.0-0.105,A2866TYG0D96LM,3X4Q1O9UCK2WXV8VOBT8MFKQE0B7O9,3TUI152ZZF3OT4434A95ZUK0KTNQ1Y,1,2
106,2,object_07,object_01,820.0,3,2,466.0,0.3333333333333333,1,object_02,5,1609,0,3,7,forest_2,2,memory-2step-stake-s,613,2578192,0.0-19.0-0.0-0.106,A2866TYG0D96LM,3X4Q1O9UCK2WXV8VOBT8MFKQE0B7O9,3TUI152ZZF3OT4434A95ZUK0KTNQ1Y,4,3
107,1,object_09,object_05,770.0,1,1,560.0,0.6666666666666666,1,object_02,5,1639,0,6,7,desert_6,2,memory-2step-stake-s,614,2586657,0.0-19.0-0.0-0.107,A2866TYG0D96LM,3X4Q1O9UCK2WXV8VOBT8MFKQE0B7O9,3TUI152ZZF3OT4434A95ZUK0KTNQ1Y,1,2
108,2,object_01,object_07,822.0,3,1,600.0,0.3333333333333333,1,object_02,5,1654,0,3,6,forest_6,2,memory-2step-stake-s,615,2594847,0.0-19.0-0.0-0.108,A2866TYG0D96LM,3X4Q1O9UCK2WXV8VOBT8MFKQE0B7O9,3TUI152ZZF3OT4434A95ZUK0KTNQ1Y,3,4
109,1,object_09,object_05,790.0,1,1,353.0,0.2222222222222222,1,object_02,5,1664,0,2,3,desert_7,2,memory-2step-stake-s,616,2602690,0.0-19.0-0.0-0.109,A2866TYG0D96LM,3X4Q1O9UCK2WXV8VOBT8MFKQE0B7O9,3TUI152ZZF3OT4434A95ZUK0KTNQ1Y,1,2
110,1,object_05,object_09,870.0,1,2,421.0,0.3333333333333333,1,object_02,5,1679,0,3,1,desert_2,2,memory-2step-stake-s,617,2610707,0.0-19.0-0.0-0.110,A2866TYG0D96LM,3X4Q1O9UCK2WXV8VOBT8MFKQE0B7O9,3TUI152ZZF3OT4434A95ZUK0KTNQ1Y,2,1
111,1,object_09,object_05,1092.0,2,2,460.0,0.4444444444444444,2,object_04,1,1683,0,3,4,desert_7,2,memory-2step-stake-s,618,2618857,0.0-19.0-0.0-0.111,A2866TYG0D96LM,3X4Q1O9UCK2WXV8VOBT8MFKQE0B7O9,3TUI152ZZF3OT4434A95ZUK0KTNQ1Y,1,2
112,3,object_03,object_06,694.0,6,1,573.0,0.8888888888888888,2,object_04,1,1691,0,6,8,library_7,2,memory-2step-stake-s,619,2627602,0.0-19.0-0.0-0.112,A2866TYG0D96LM,3X4Q1O9UCK2WXV8VOBT8MFKQE0B7O9,3TUI152ZZF3OT4434A95ZUK0KTNQ1Y,6,5
113,2,object_01,object_07,836.0,3,1,282.0,0.3333333333333333,1,object_02,5,1706,0,3,6,forest_4,2,memory-2step-stake-s,620,2635452,0.0-19.0-0.0-0.113,A2866TYG0D96LM,3X4Q1O9UCK2WXV8VOBT8MFKQE0B7O9,3TUI152ZZF3OT4434A95ZUK0KTNQ1Y,3,4
114,1,object_05,object_09,655.0,2,1,352.0,1.0,2,object_04,5,1751,0,3,9,desert_2,2,memory-2step-stake-s,621,2643978,0.0-19.0-0.0-0.114,A2866TYG0D96LM,3X4Q1O9UCK2WXV8VOBT8MFKQE0B7O9,3TUI152ZZF3OT4434A95ZUK0KTNQ1Y,2,1
115,1,object_09,object_05,1170.0,2,2,545.0,0.5555555555555556,2,object_04,5,1776,0,3,5,desert_7,2,memory-2step-stake-s,622,2652357,0.0-19.0-0.0-0.115,A2866TYG0D96LM,3X4Q1O9UCK2WXV8VOBT8MFKQE0B7O9,3TUI152ZZF3OT4434A95ZUK0KTNQ1Y,1,2
116,2,object_07,object_01,1126.0,4,1,316.0,0.2222222222222222,2,object_04,5,1786,0,4,2,forest_4,2,memory-2step-stake-s,623,2660107,0.0-19.0-0.0-0.116,A2866TYG0D96LM,3X4Q1O9UCK2WXV8VOBT8MFKQE0B7O9,3TUI152ZZF3OT4434A95ZUK0KTNQ1Y,4,3
117,1,object_09,object_05,902.0,1,1,460.0,0.6666666666666666,1,object_02,1,1792,0,6,0,desert_2,2,memory-2step-stake-s,624,2668474,0.0-19.0-0.0-0.117,A2866TYG0D96LM,3X4Q1O9UCK2WXV8VOBT8MFKQE0B7O9,3TUI152ZZF3OT4434A95ZUK0KTNQ1Y,1,2
118,1,object_05,object_09,1109.0,1,2,557.0,0.7777777777777778,1,object_02,1,1799,0,7,1,desert_6,2,memory-2step-stake-s,625,2677057,0.0-19.0-0.0-0.118,A2866TYG0D96LM,3X4Q1O9UCK2WXV8VOBT8MFKQE0B7O9,3TUI152ZZF3OT4434A95ZUK0KTNQ1Y,2,1
119,4,object_10,object_08,1336.0,8,1,630.0,0.1111111111111111,2,object_04,5,1804,0,8,1,restaurant_8,2,memory-2step-stake-s,626,2685057,0.0-19.0-0.0-0.119,A2866TYG0D96LM,3X4Q1O9UCK2WXV8VOBT8MFKQE0B7O9,3TUI152ZZF3OT4434A95ZUK0KTNQ1Y,8,7
120,1,object_05,object_09,881.0,2,1,502.0,0.1111111111111111,2,object_04,5,1809,0,8,1,desert_6,2,memory-2step-stake-s,627,2692922,0.0-19.0-0.0-0.120,A2866TYG0D96LM,3X4Q1O9UCK2WXV8VOBT8MFKQE0B7O9,3TUI152ZZF3OT4434A95ZUK0KTNQ1Y,2,1
121,2,object_01,object_07,853.0,3,1,292.0,0.5555555555555556,1,object_02,5,1834,0,5,1,forest_2,2,memory-2step-stake-s,628,2701006,0.0-19.0-0.0-0.121,A2866TYG0D96LM,3X4Q1O9UCK2WXV8VOBT8MFKQE0B7O9,3TUI152ZZF3OT4434A95ZUK0KTNQ1Y,3,4
122,2,object_01,object_07,1043.0,4,2,499.0,0.1111111111111111,2,object_04,5,1839,0,5,1,forest_2,2,memory-2step-stake-s,629,2708840,0.0-19.0-0.0-0.122,A2866TYG0D96LM,3X4Q1O9UCK2WXV8VOBT8MFKQE0B7O9,3TUI152ZZF3OT4434A95ZUK0KTNQ1Y,3,4
123,1,object_05,object_09,616.0,2,1,751.0,0.3333333333333333,2,object_04,5,1854,0,4,3,desert_8,2,memory-2step-stake-s,630,2717173,0.0-19.0-0.0-0.123,A2866TYG0D96LM,3X4Q1O9UCK2WXV8VOBT8MFKQE0B7O9,3TUI152ZZF3OT4434A95ZUK0KTNQ1Y,2,1
124,1,object_05,object_09,780.0,2,1,309.0,0.4444444444444444,2,object_04,5,1874,0,3,4,desert_8,2,memory-2step-stake-s,631,2725157,0.0-19.0-0.0-0.124,A2866TYG0D96LM,3X4Q1O9UCK2WXV8VOBT8MFKQE0B7O9,3TUI152ZZF3OT4434A95ZUK0KTNQ1Y,2,1
125,2,object_07,object_01,835.0,3,2,522.0,0.3333333333333333,1,object_02,5,1889,0,3,3,forest_4,2,memory-2step-stake-s,632,2733263,0.0-19.0-0.0-0.125,A2866TYG0D96LM,3X4Q1O9UCK2WXV8VOBT8MFKQE0B7O9,3TUI152ZZF3OT4434A95ZUK0KTNQ1Y,4,3
126,4,object_08,object_10,986.0,8,2,642.0,0.2222222222222222,2,object_04,5,1899,0,2,2,restaurant_6,2,memory-2step-stake-s,633,2741372,0.0-19.0-0.0-0.126,A2866TYG0D96LM,3X4Q1O9UCK2WXV8VOBT8MFKQE0B7O9,3TUI152ZZF3OT4434A95ZUK0KTNQ1Y,7,8
127,4,object_08,object_10,1513.0,7,1,1314.0,0.3333333333333333,1,object_02,5,1914,0,3,2,restaurant_8,2,memory-2step-stake-s,634,2750307,0.0-19.0-0.0-0.127,A2866TYG0D96LM,3X4Q1O9UCK2WXV8VOBT8MFKQE0B7O9,3TUI152ZZF3OT4434A95ZUK0KTNQ1Y,7,8
128,1,object_05,object_09,-1.0,-1,-1,-1.0,0.0,-,0,5,1914,0,1,0,desert_6,2,memory-2step-stake-s,636,3301446,0.0-19.0-0.1-0.128,A2866TYG0D96LM,3X4Q1O9UCK2WXV8VOBT8MFKQE0B7O9,3TUI152ZZF3OT4434A95ZUK0KTNQ1Y,2,1
129,1,object_09,object_05,950.0,1,1,769.0,0.2222222222222222,1,object_02,5,1924,0,2,5,desert_6,2,memory-2step-stake-s,637,3309672,0.0-19.0-0.1-0.129,A2866TYG0D96LM,3X4Q1O9UCK2WXV8VOBT8MFKQE0B7O9,3TUI152ZZF3OT4434A95ZUK0KTNQ1Y,1,2
130,4,object_10,object_08,747.0,8,1,373.0,0.4444444444444444,2,object_04,5,1944,0,4,4,restaurant_8,2,memory-2step-stake-s,638,3317722,0.0-19.0-0.1-0.130,A2866TYG0D96LM,3X4Q1O9UCK2WXV8VOBT8MFKQE0B7O9,3TUI152ZZF3OT4434A95ZUK0KTNQ1Y,8,7
131,3,object_06,object_03,-1.0,-1,-1,-1.0,0.0,-,0,1,1944,0,3,4,library_6,2,memory-2step-stake-s,639,3324272,0.0-19.0-0.1-0.131,A2866TYG0D96LM,3X4Q1O9UCK2WXV8VOBT8MFKQE0B7O9,3TUI152ZZF3OT4434A95ZUK0KTNQ1Y,5,6
132,2,object_07,object_01,452.0,3,2,712.0,0.1111111111111111,1,object_02,5,1949,0,1,3,forest_4,2,memory-2step-stake-s,640,3332372,0.0-19.0-0.1-0.132,A2866TYG0D96LM,3X4Q1O9UCK2WXV8VOBT8MFKQE0B7O9,3TUI152ZZF3OT4434A95ZUK0KTNQ1Y,4,3
133,3,object_03,object_06,772.0,6,1,690.0,0.3333333333333333,2,object_04,1,1952,0,2,3,library_3,2,memory-2step-stake-s,641,3340672,0.0-19.0-0.1-0.133,A2866TYG0D96LM,3X4Q1O9UCK2WXV8VOBT8MFKQE0B7O9,3TUI152ZZF3OT4434A95ZUK0KTNQ1Y,6,5
134,3,object_03,object_06,1169.0,6,1,680.0,0.1111111111111111,2,object_04,1,1953,0,4,1,library_7,2,memory-2step-stake-s,642,3348723,0.0-19.0-0.1-0.134,A2866TYG0D96LM,3X4Q1O9UCK2WXV8VOBT8MFKQE0B7O9,3TUI152ZZF3OT4434A95ZUK0KTNQ1Y,6,5
135,1,object_05,object_09,489.0,1,2,462.0,0.1111111111111111,1,object_02,5,1958,0,1,4,desert_2,2,memory-2step-stake-s,643,3356538,0.0-19.0-0.1-0.135,A2866TYG0D96LM,3X4Q1O9UCK2WXV8VOBT8MFKQE0B7O9,3TUI152ZZF3OT4434A95ZUK0KTNQ1Y,2,1
136,1,object_05,object_09,679.0,1,2,390.0,0.4444444444444444,1,object_02,5,1978,0,4,2,desert_6,2,memory-2step-stake-s,644,3364593,0.0-19.0-0.1-0.136,A2866TYG0D96LM,3X4Q1O9UCK2WXV8VOBT8MFKQE0B7O9,3TUI152ZZF3OT4434A95ZUK0KTNQ1Y,2,1
137,4,object_08,object_10,636.0,8,2,778.0,0.1111111111111111,2,object_04,1,1979,0,4,1,restaurant_7,2,memory-2step-stake-s,645,3372738,0.0-19.0-0.1-0.137,A2866TYG0D96LM,3X4Q1O9UCK2WXV8VOBT8MFKQE0B7O9,3TUI152ZZF3OT4434A95ZUK0KTNQ1Y,7,8
138,4,object_08,object_10,638.0,8,2,293.0,0.0,2,object_04,1,1979,0,2,0,restaurant_7,2,memory-2step-stake-s,646,3380272,0.0-19.0-0.1-0.138,A2866TYG0D96LM,3X4Q1O9UCK2WXV8VOBT8MFKQE0B7O9,3TUI152ZZF3OT4434A95ZUK0KTNQ1Y,7,8
139,4,object_08,object_10,744.0,7,1,470.0,0.6666666666666666,1,object_02,1,1985,0,6,1,restaurant_6,2,memory-2step-stake-s,647,3388673,0.0-19.0-0.1-0.139,A2866TYG0D96LM,3X4Q1O9UCK2WXV8VOBT8MFKQE0B7O9,3TUI152ZZF3OT4434A95ZUK0KTNQ1Y,7,8
140,2,object_01,object_07,800.0,4,2,-1.0,0.0,2,object_04,1,1985,0,5,2,forest_3,2,memory-2step-stake-s,648,3397238,0.0-19.0-0.1-0.140,A2866TYG0D96LM,3X4Q1O9UCK2WXV8VOBT8MFKQE0B7O9,3TUI152ZZF3OT4434A95ZUK0KTNQ1Y,3,4
141,1,object_09,object_05,754.0,1,1,977.0,0.4444444444444444,1,object_02,5,2005,0,4,3,desert_8,2,memory-2step-stake-s,649,3405922,0.0-19.0-0.1-0.141,A2866TYG0D96LM,3X4Q1O9UCK2WXV8VOBT8MFKQE0B7O9,3TUI152ZZF3OT4434A95ZUK0KTNQ1Y,1,2
142,1,object_09,object_05,654.0,1,1,507.0,0.2222222222222222,1,object_02,1,2007,0,2,6,desert_2,2,memory-2step-stake-s,650,3413922,0.0-19.0-0.1-0.142,A2866TYG0D96LM,3X4Q1O9UCK2WXV8VOBT8MFKQE0B7O9,3TUI152ZZF3OT4434A95ZUK0KTNQ1Y,1,2
143,4,object_08,object_10,763.0,8,2,318.0,0.4444444444444444,2,object_04,1,2011,0,0,4,restaurant_1,2,memory-2step-stake-s,651,3421938,0.0-19.0-0.1-0.143,A2866TYG0D96LM,3X4Q1O9UCK2WXV8VOBT8MFKQE0B7O9,3TUI152ZZF3OT4434A95ZUK0KTNQ1Y,7,8
144,3,object_06,object_03,1280.0,5,1,318.0,0.4444444444444444,1,object_02,5,2031,0,4,3,library_3,2,memory-2step-stake-s,652,3429972,0.0-19.0-0.1-0.144,A2866TYG0D96LM,3X4Q1O9UCK2WXV8VOBT8MFKQE0B7O9,3TUI152ZZF3OT4434A95ZUK0KTNQ1Y,5,6
145,2,object_07,object_01,837.0,3,2,612.0,0.8888888888888888,1,object_02,5,2071,0,8,4,forest_2,2,memory-2step-stake-s,653,3438688,0.0-19.0-0.1-0.145,A2866TYG0D96LM,3X4Q1O9UCK2WXV8VOBT8MFKQE0B7O9,3TUI152ZZF3OT4434A95ZUK0KTNQ1Y,4,3
146,1,object_05,object_09,854.0,2,1,252.0,0.2222222222222222,2,object_04,1,2073,0,4,2,desert_7,2,memory-2step-stake-s,654,3446412,0.0-19.0-0.1-0.146,A2866TYG0D96LM,3X4Q1O9UCK2WXV8VOBT8MFKQE0B7O9,3TUI152ZZF3OT4434A95ZUK0KTNQ1Y,2,1
147,3,object_06,object_03,575.0,6,2,418.0,0.1111111111111111,2,object_04,1,2074,0,3,1,library_7,2,memory-2step-stake-s,655,3454213,0.0-19.0-0.1-0.147,A2866TYG0D96LM,3X4Q1O9UCK2WXV8VOBT8MFKQE0B7O9,3TUI152ZZF3OT4434A95ZUK0KTNQ1Y,5,6
148,4,object_10,object_08,584.0,8,1,475.0,0.2222222222222222,2,object_04,1,2076,0,4,2,restaurant_1,2,memory-2step-stake-s,656,3462187,0.0-19.0-0.1-0.148,A2866TYG0D96LM,3X4Q1O9UCK2WXV8VOBT8MFKQE0B7O9,3TUI152ZZF3OT4434A95ZUK0KTNQ1Y,8,7
149,3,object_06,object_03,620.0,6,2,578.0,0.1111111111111111,2,object_04,1,2077,0,4,1,library_3,2,memory-2step-stake-s,657,3470172,0.0-19.0-0.1-0.149,A2866TYG0D96LM,3X4Q1O9UCK2WXV8VOBT8MFKQE0B7O9,3TUI152ZZF3OT4434A95ZUK0KTNQ1Y,5,6
150,4,object_10,object_08,869.0,7,2,333.0,0.4444444444444444,1,object_02,1,2081,0,4,2,restaurant_1,2,memory-2step-stake-s,658,3478182,0.0-19.0-0.1-0.150,A2866TYG0D96LM,3X4Q1O9UCK2WXV8VOBT8MFKQE0B7O9,3TUI152ZZF3OT4434A95ZUK0KTNQ1Y,8,7
151,1,object_09,object_05,581.0,1,1,491.0,0.2222222222222222,1,object_02,5,2091,0,2,3,desert_2,2,memory-2step-stake-s,659,3486152,0.0-19.0-0.1-0.151,A2866TYG0D96LM,3X4Q1O9UCK2WXV8VOBT8MFKQE0B7O9,3TUI152ZZF3OT4434A95ZUK0KTNQ1Y,1,2
152,3,object_03,object_06,784.0,5,2,502.0,0.4444444444444444,1,object_02,1,2095,0,4,3,library_7,2,memory-2step-stake-s,660,3494304,0.0-19.0-0.1-0.152,A2866TYG0D96LM,3X4Q1O9UCK2WXV8VOBT8MFKQE0B7O9,3TUI152ZZF3OT4434A95ZUK0KTNQ1Y,6,5
153,2,object_01,object_07,799.0,3,1,455.0,0.3333333333333333,1,object_02,1,2098,0,3,1,forest_2,2,memory-2step-stake-s,661,3502337,0.0-19.0-0.1-0.153,A2866TYG0D96LM,3X4Q1O9UCK2WXV8VOBT8MFKQE0B7O9,3TUI152ZZF3OT4434A95ZUK0KTNQ1Y,3,4
154,2,object_01,object_07,782.0,3,1,532.0,0.2222222222222222,1,object_02,5,2108,0,2,0,forest_6,2,memory-2step-stake-s,662,3510372,0.0-19.0-0.1-0.154,A2866TYG0D96LM,3X4Q1O9UCK2WXV8VOBT8MFKQE0B7O9,3TUI152ZZF3OT4434A95ZUK0KTNQ1Y,3,4
155,2,object_01,object_07,735.0,4,2,445.0,0.3333333333333333,2,object_04,5,2123,0,0,3,forest_3,2,memory-2step-stake-s,663,3518393,0.0-19.0-0.1-0.155,A2866TYG0D96LM,3X4Q1O9UCK2WXV8VOBT8MFKQE0B7O9,3TUI152ZZF3OT4434A95ZUK0KTNQ1Y,3,4
156,4,object_10,object_08,941.0,7,2,540.0,0.1111111111111111,1,object_02,1,2124,0,1,3,restaurant_1,2,memory-2step-stake-s,664,3526287,0.0-19.0-0.1-0.156,A2866TYG0D96LM,3X4Q1O9UCK2WXV8VOBT8MFKQE0B7O9,3TUI152ZZF3OT4434A95ZUK0KTNQ1Y,8,7
157,3,object_03,object_06,713.0,6,1,528.0,0.1111111111111111,2,object_04,1,2125,0,1,1,library_1,2,memory-2step-stake-s,665,3534172,0.0-19.0-0.1-0.157,A2866TYG0D96LM,3X4Q1O9UCK2WXV8VOBT8MFKQE0B7O9,3TUI152ZZF3OT4434A95ZUK0KTNQ1Y,6,5
158,1,object_09,object_05,807.0,1,1,294.0,0.3333333333333333,1,object_02,5,2140,0,3,1,desert_6,2,memory-2step-stake-s,666,3542020,0.0-19.0-0.1-0.158,A2866TYG0D96LM,3X4Q1O9UCK2WXV8VOBT8MFKQE0B7O9,3TUI152ZZF3OT4434A95ZUK0KTNQ1Y,1,2
159,3,object_03,object_06,780.0,6,1,-1.0,0.0,2,object_04,1,2140,0,1,1,library_6,2,memory-2step-stake-s,667,3550554,0.0-19.0-0.1-0.159,A2866TYG0D96LM,3X4Q1O9UCK2WXV8VOBT8MFKQE0B7O9,3TUI152ZZF3OT4434A95ZUK0KTNQ1Y,6,5
160,2,object_07,object_01,662.0,3,2,252.0,0.3333333333333333,1,object_02,5,2155,0,3,3,forest_6,2,memory-2step-stake-s,668,3558387,0.0-19.0-0.1-0.160,A2866TYG0D96LM,3X4Q1O9UCK2WXV8VOBT8MFKQE0B7O9,3TUI152ZZF3OT4434A95ZUK0KTNQ1Y,4,3
161,1,object_09,object_05,778.0,1,1,323.0,0.4444444444444444,1,object_02,5,2175,0,4,3,desert_8,2,memory-2step-stake-s,669,3566437,0.0-19.0-0.1-0.161,A2866TYG0D96LM,3X4Q1O9UCK2WXV8VOBT8MFKQE0B7O9,3TUI152ZZF3OT4434A95ZUK0KTNQ1Y,1,2
162,4,object_10,object_08,771.0,7,2,338.0,0.6666666666666666,1,object_02,1,2181,0,6,3,restaurant_7,2,memory-2step-stake-s,670,3574687,0.0-19.0-0.1-0.162,A2866TYG0D96LM,3X4Q1O9UCK2WXV8VOBT8MFKQE0B7O9,3TUI152ZZF3OT4434A95ZUK0KTNQ1Y,8,7
163,1,object_09,object_05,673.0,1,1,528.0,1.0,1,object_02,5,2226,0,9,2,desert_8,2,memory-2step-stake-s,671,3583404,0.0-19.0-0.1-0.163,A2866TYG0D96LM,3X4Q1O9UCK2WXV8VOBT8MFKQE0B7O9,3TUI152ZZF3OT4434A95ZUK0KTNQ1Y,1,2
164,4,object_10,object_08,725.0,7,2,458.0,0.7777777777777778,1,object_02,1,2233,0,7,3,restaurant_6,2,memory-2step-stake-s,672,3591871,0.0-19.0-0.1-0.164,A2866TYG0D96LM,3X4Q1O9UCK2WXV8VOBT8MFKQE0B7O9,3TUI152ZZF3OT4434A95ZUK0KTNQ1Y,8,7
165,4,object_08,object_10,979.0,7,1,650.0,0.8888888888888888,1,object_02,5,2273,0,8,3,restaurant_7,2,memory-2step-stake-s,673,3600692,0.0-19.0-0.1-0.165,A2866TYG0D96LM,3X4Q1O9UCK2WXV8VOBT8MFKQE0B7O9,3TUI152ZZF3OT4434A95ZUK0KTNQ1Y,7,8
166,4,object_10,object_08,779.0,7,2,586.0,0.8888888888888888,1,object_02,1,2281,0,8,3,restaurant_7,2,memory-2step-stake-s,674,3609387,0.0-19.0-0.1-0.166,A2866TYG0D96LM,3X4Q1O9UCK2WXV8VOBT8MFKQE0B7O9,3TUI152ZZF3OT4434A95ZUK0KTNQ1Y,8,7
167,1,object_05,object_09,642.0,1,2,460.0,0.6666666666666666,1,object_02,5,2311,0,6,5,desert_6,2,memory-2step-stake-s,675,3617770,0.0-19.0-0.1-0.167,A2866TYG0D96LM,3X4Q1O9UCK2WXV8VOBT8MFKQE0B7O9,3TUI152ZZF3OT4434A95ZUK0KTNQ1Y,2,1
168,4,object_08,object_10,574.0,7,1,814.0,0.5555555555555556,1,object_02,5,2336,0,5,4,restaurant_1,2,memory-2step-stake-s,676,3626353,0.0-19.0-0.1-0.168,A2866TYG0D96LM,3X4Q1O9UCK2WXV8VOBT8MFKQE0B7O9,3TUI152ZZF3OT4434A95ZUK0KTNQ1Y,7,8
169,4,object_08,object_10,788.0,8,2,654.0,0.3333333333333333,2,object_04,1,2339,0,4,3,restaurant_1,2,memory-2step-stake-s,677,3634602,0.0-19.0-0.1-0.169,A2866TYG0D96LM,3X4Q1O9UCK2WXV8VOBT8MFKQE0B7O9,3TUI152ZZF3OT4434A95ZUK0KTNQ1Y,7,8
170,2,object_01,object_07,562.0,3,1,398.0,0.4444444444444444,1,object_02,5,2359,0,4,2,forest_2,2,memory-2step-stake-s,678,3642720,0.0-19.0-0.1-0.170,A2866TYG0D96LM,3X4Q1O9UCK2WXV8VOBT8MFKQE0B7O9,3TUI152ZZF3OT4434A95ZUK0KTNQ1Y,3,4
171,2,object_07,object_01,1154.0,3,2,446.0,1.0,1,object_02,5,2404,0,9,5,forest_4,2,memory-2step-stake-s,679,3651404,0.0-19.0-0.1-0.171,A2866TYG0D96LM,3X4Q1O9UCK2WXV8VOBT8MFKQE0B7O9,3TUI152ZZF3OT4434A95ZUK0KTNQ1Y,4,3
172,3,object_06,object_03,720.0,6,2,473.0,0.8888888888888888,2,object_04,1,2412,0,6,8,library_3,2,memory-2step-stake-s,680,3659999,0.0-19.0-0.1-0.172,A2866TYG0D96LM,3X4Q1O9UCK2WXV8VOBT8MFKQE0B7O9,3TUI152ZZF3OT4434A95ZUK0KTNQ1Y,5,6
173,4,object_10,object_08,724.0,8,1,357.0,0.8888888888888888,2,object_04,1,2420,0,5,8,restaurant_8,2,memory-2step-stake-s,681,3668478,0.0-19.0-0.1-0.173,A2866TYG0D96LM,3X4Q1O9UCK2WXV8VOBT8MFKQE0B7O9,3TUI152ZZF3OT4434A95ZUK0KTNQ1Y,8,7
174,2,object_07,object_01,704.0,3,2,299.0,0.5555555555555556,1,object_02,1,2425,0,5,9,forest_6,2,memory-2step-stake-s,682,3676577,0.0-19.0-0.1-0.174,A2866TYG0D96LM,3X4Q1O9UCK2WXV8VOBT8MFKQE0B7O9,3TUI152ZZF3OT4434A95ZUK0KTNQ1Y,4,3
175,1,object_09,object_05,1029.0,1,1,784.0,0.5555555555555556,1,object_02,5,2450,0,5,9,desert_6,2,memory-2step-stake-s,683,3685169,0.0-19.0-0.1-0.175,A2866TYG0D96LM,3X4Q1O9UCK2WXV8VOBT8MFKQE0B7O9,3TUI152ZZF3OT4434A95ZUK0KTNQ1Y,1,2
176,4,object_10,object_08,800.0,7,2,956.0,0.5555555555555556,1,object_02,1,2455,0,5,5,restaurant_7,2,memory-2step-stake-s,684,3693918,0.0-19.0-0.1-0.176,A2866TYG0D96LM,3X4Q1O9UCK2WXV8VOBT8MFKQE0B7O9,3TUI152ZZF3OT4434A95ZUK0KTNQ1Y,8,7
177,4,object_08,object_10,812.0,7,1,642.0,0.3333333333333333,1,object_02,1,2458,0,3,4,restaurant_1,2,memory-2step-stake-s,685,3702136,0.0-19.0-0.1-0.177,A2866TYG0D96LM,3X4Q1O9UCK2WXV8VOBT8MFKQE0B7O9,3TUI152ZZF3OT4434A95ZUK0KTNQ1Y,7,8
178,3,object_06,object_03,694.0,6,2,311.0,0.5555555555555556,2,object_04,1,2463,0,3,5,library_3,2,memory-2step-stake-s,686,3710239,0.0-19.0-0.1-0.178,A2866TYG0D96LM,3X4Q1O9UCK2WXV8VOBT8MFKQE0B7O9,3TUI152ZZF3OT4434A95ZUK0KTNQ1Y,5,6
179,4,object_10,object_08,661.0,8,1,540.0,0.4444444444444444,2,object_04,1,2467,0,6,4,restaurant_6,2,memory-2step-stake-s,687,3718487,0.0-19.0-0.1-0.179,A2866TYG0D96LM,3X4Q1O9UCK2WXV8VOBT8MFKQE0B7O9,3TUI152ZZF3OT4434A95ZUK0KTNQ1Y,8,7
180,4,object_10,object_08,659.0,7,2,388.0,0.5555555555555556,1,object_02,5,2492,0,5,7,restaurant_8,2,memory-2step-stake-s,688,3726674,0.0-19.0-0.1-0.180,A2866TYG0D96LM,3X4Q1O9UCK2WXV8VOBT8MFKQE0B7O9,3TUI152ZZF3OT4434A95ZUK0KTNQ1Y,8,7
181,4,object_08,object_10,667.0,7,1,285.0,0.7777777777777778,1,object_02,1,2499,0,7,6,restaurant_6,2,memory-2step-stake-s,689,3734980,0.0-19.0-0.1-0.181,A2866TYG0D96LM,3X4Q1O9UCK2WXV8VOBT8MFKQE0B7O9,3TUI152ZZF3OT4434A95ZUK0KTNQ1Y,7,8
182,2,object_07,object_01,543.0,3,2,431.0,0.6666666666666666,1,object_02,5,2529,0,6,7,forest_3,2,memory-2step-stake-s,690,3743312,0.0-19.0-0.1-0.182,A2866TYG0D96LM,3X4Q1O9UCK2WXV8VOBT8MFKQE0B7O9,3TUI152ZZF3OT4434A95ZUK0KTNQ1Y,4,3
183,3,object_06,object_03,701.0,6,2,570.0,0.4444444444444444,2,object_04,1,2533,0,6,4,library_7,2,memory-2step-stake-s,691,3751570,0.0-19.0-0.1-0.183,A2866TYG0D96LM,3X4Q1O9UCK2WXV8VOBT8MFKQE0B7O9,3TUI152ZZF3OT4434A95ZUK0KTNQ1Y,5,6
184,4,object_10,object_08,519.0,8,1,1128.0,0.4444444444444444,2,object_04,1,2537,0,9,4,restaurant_6,2,memory-2step-stake-s,692,3760391,0.0-19.0-0.1-0.184,A2866TYG0D96LM,3X4Q1O9UCK2WXV8VOBT8MFKQE0B7O9,3TUI152ZZF3OT4434A95ZUK0KTNQ1Y,8,7
185,3,object_03,object_06,613.0,5,2,499.0,0.5555555555555556,1,object_02,5,2562,0,5,5,library_7,2,memory-2step-stake-s,693,3768694,0.0-19.0-0.1-0.185,A2866TYG0D96LM,3X4Q1O9UCK2WXV8VOBT8MFKQE0B7O9,3TUI152ZZF3OT4434A95ZUK0KTNQ1Y,6,5
186,4,object_08,object_10,609.0,7,1,402.0,0.2222222222222222,1,object_02,5,2572,0,2,8,restaurant_1,2,memory-2step-stake-s,694,3776578,0.0-19.0-0.1-0.186,A2866TYG0D96LM,3X4Q1O9UCK2WXV8VOBT8MFKQE0B7O9,3TUI152ZZF3OT4434A95ZUK0KTNQ1Y,7,8
187,3,object_06,object_03,936.0,6,2,670.0,0.8888888888888888,2,object_04,1,2580,0,4,8,library_1,2,memory-2step-stake-s,695,3785368,0.0-19.0-0.1-0.187,A2866TYG0D96LM,3X4Q1O9UCK2WXV8VOBT8MFKQE0B7O9,3TUI152ZZF3OT4434A95ZUK0KTNQ1Y,5,6
188,4,object_08,object_10,626.0,8,2,471.0,1.0,2,object_04,1,2589,0,6,9,restaurant_8,2,memory-2step-stake-s,696,3794086,0.0-19.0-0.1-0.188,A2866TYG0D96LM,3X4Q1O9UCK2WXV8VOBT8MFKQE0B7O9,3TUI152ZZF3OT4434A95ZUK0KTNQ1Y,7,8
189,4,object_08,object_10,618.0,7,1,555.0,0.2222222222222222,1,object_02,1,2591,0,2,6,restaurant_6,2,memory-2step-stake-s,697,3802114,0.0-19.0-0.1-0.189,A2866TYG0D96LM,3X4Q1O9UCK2WXV8VOBT8MFKQE0B7O9,3TUI152ZZF3OT4434A95ZUK0KTNQ1Y,7,8
190,4,object_10,object_08,668.0,8,1,538.0,0.6666666666666666,2,object_04,1,2597,0,2,6,restaurant_1,2,memory-2step-stake-s,698,3810569,0.0-19.0-0.1-0.190,A2866TYG0D96LM,3X4Q1O9UCK2WXV8VOBT8MFKQE0B7O9,3TUI152ZZF3OT4434A95ZUK0KTNQ1Y,8,7
191,2,object_01,object_07,713.0,3,1,275.0,0.6666666666666666,1,object_02,5,2627,0,6,6,forest_3,2,memory-2step-stake-s,699,3818753,0.0-19.0-0.1-0.191,A2866TYG0D96LM,3X4Q1O9UCK2WXV8VOBT8MFKQE0B7O9,3TUI152ZZF3OT4434A95ZUK0KTNQ1Y,3,4
192,1,object_05,object_09,696.0,1,2,238.0,0.6666666666666666,1,object_02,5,2657,0,6,8,desert_2,2,memory-2step-stake-s,700,3826900,0.0-19.0-0.1-0.192,A2866TYG0D96LM,3X4Q1O9UCK2WXV8VOBT8MFKQE0B7O9,3TUI152ZZF3OT4434A95ZUK0KTNQ1Y,2,1
193,4,object_10,object_08,809.0,8,1,821.0,0.6666666666666666,2,object_04,1,2663,0,7,6,restaurant_6,2,memory-2step-stake-s,701,3835627,0.0-19.0-0.1-0.193,A2866TYG0D96LM,3X4Q1O9UCK2WXV8VOBT8MFKQE0B7O9,3TUI152ZZF3OT4434A95ZUK0KTNQ1Y,8,7
194,3,object_03,object_06,696.0,6,1,628.0,0.6666666666666666,2,object_04,1,2669,0,6,6,library_6,2,memory-2step-stake-s,702,3844178,0.0-19.0-0.1-0.194,A2866TYG0D96LM,3X4Q1O9UCK2WXV8VOBT8MFKQE0B7O9,3TUI152ZZF3OT4434A95ZUK0KTNQ1Y,6,5
195,1,object_09,object_05,696.0,1,1,369.0,1.0,1,object_02,1,2678,0,9,6,desert_8,2,memory-2step-stake-s,703,3852795,0.0-19.0-0.1-0.195,A2866TYG0D96LM,3X4Q1O9UCK2WXV8VOBT8MFKQE0B7O9,3TUI152ZZF3OT4434A95ZUK0KTNQ1Y,1,2
196,4,object_10,object_08,878.0,8,1,322.0,0.6666666666666666,2,object_04,5,2708,0,8,6,restaurant_1,2,memory-2step-stake-s,704,3861048,0.0-19.0-0.1-0.196,A2866TYG0D96LM,3X4Q1O9UCK2WXV8VOBT8MFKQE0B7O9,3TUI152ZZF3OT4434A95ZUK0KTNQ1Y,8,7
197,4,object_08,object_10,976.0,8,2,324.0,0.4444444444444444,2,object_04,1,2712,0,6,4,restaurant_7,2,memory-2step-stake-s,705,3869070,0.0-19.0-0.1-0.197,A2866TYG0D96LM,3X4Q1O9UCK2WXV8VOBT8MFKQE0B7O9,3TUI152ZZF3OT4434A95ZUK0KTNQ1Y,7,8
198,2,object_01,object_07,584.0,3,1,378.0,0.6666666666666666,1,object_02,5,2742,0,6,4,forest_3,2,memory-2step-stake-s,706,3877341,0.0-19.0-0.1-0.198,A2866TYG0D96LM,3X4Q1O9UCK2WXV8VOBT8MFKQE0B7O9,3TUI152ZZF3OT4434A95ZUK0KTNQ1Y,3,4
199,1,object_09,object_05,805.0,2,2,717.0,0.6666666666666666,2,object_04,5,2772,0,6,6,desert_2,2,memory-2step-stake-s,707,3885976,0.0-19.0-0.1-0.199,A2866TYG0D96LM,3X4Q1O9UCK2WXV8VOBT8MFKQE0B7O9,3TUI152ZZF3OT4434A95ZUK0KTNQ1Y,1,2
200,3,object_03,object_06,676.0,6,1,427.0,0.5555555555555556,2,object_04,1,2777,0,4,5,library_3,2,memory-2step-stake-s,708,3894193,0.0-19.0-0.1-0.200,A2866TYG0D96LM,3X4Q1O9UCK2WXV8VOBT8MFKQE0B7O9,3TUI152ZZF3OT4434A95ZUK0KTNQ1Y,6,5
201,3,object_06,object_03,648.0,6,2,541.0,0.8888888888888888,2,object_04,1,2785,0,6,8,library_3,2,memory-2step-stake-s,709,3902854,0.0-19.0-0.1-0.201,A2866TYG0D96LM,3X4Q1O9UCK2WXV8VOBT8MFKQE0B7O9,3TUI152ZZF3OT4434A95ZUK0KTNQ1Y,5,6
202,3,object_06,object_03,896.0,6,2,1265.0,0.7777777777777778,2,object_04,1,2792,0,6,7,library_6,2,memory-2step-stake-s,710,3912132,0.0-19.0-0.1-0.202,A2866TYG0D96LM,3X4Q1O9UCK2WXV8VOBT8MFKQE0B7O9,3TUI152ZZF3OT4434A95ZUK0KTNQ1Y,5,6
203,1,object_09,object_05,437.0,1,1,453.0,0.6666666666666666,1,object_02,5,2822,0,6,6,desert_8,2,memory-2step-stake-s,711,3920504,0.0-19.0-0.1-0.203,A2866TYG0D96LM,3X4Q1O9UCK2WXV8VOBT8MFKQE0B7O9,3TUI152ZZF3OT4434A95ZUK0KTNQ1Y,1,2
204,2,object_07,object_01,702.0,3,2,-1.0,0.0,1,object_02,5,2822,0,3,6,forest_3,2,memory-2step-stake-s,712,3929071,0.0-19.0-0.1-0.204,A2866TYG0D96LM,3X4Q1O9UCK2WXV8VOBT8MFKQE0B7O9,3TUI152ZZF3OT4434A95ZUK0KTNQ1Y,4,3
205,2,object_07,object_01,549.0,4,1,353.0,0.4444444444444444,2,object_04,5,2842,0,3,4,forest_6,2,memory-2step-stake-s,713,3937113,0.0-19.0-0.1-0.205,A2866TYG0D96LM,3X4Q1O9UCK2WXV8VOBT8MFKQE0B7O9,3TUI152ZZF3OT4434A95ZUK0KTNQ1Y,4,3
206,1,object_09,object_05,607.0,2,2,542.0,0.3333333333333333,2,object_04,1,2845,0,3,3,desert_2,2,memory-2step-stake-s,714,3945229,0.0-19.0-0.1-0.206,A2866TYG0D96LM,3X4Q1O9UCK2WXV8VOBT8MFKQE0B7O9,3TUI152ZZF3OT4434A95ZUK0KTNQ1Y,1,2
207,4,object_08,object_10,1044.0,8,2,707.0,0.2222222222222222,2,object_04,1,2847,0,5,2,restaurant_6,2,memory-2step-stake-s,715,3953404,0.0-19.0-0.1-0.207,A2866TYG0D96LM,3X4Q1O9UCK2WXV8VOBT8MFKQE0B7O9,3TUI152ZZF3OT4434A95ZUK0KTNQ1Y,7,8
208,1,object_05,object_09,758.0,1,2,286.0,0.4444444444444444,1,object_02,1,2851,0,4,2,desert_2,2,memory-2step-stake-s,716,3961401,0.0-19.0-0.1-0.208,A2866TYG0D96LM,3X4Q1O9UCK2WXV8VOBT8MFKQE0B7O9,3TUI152ZZF3OT4434A95ZUK0KTNQ1Y,2,1
209,2,object_07,object_01,969.0,3,2,587.0,1.0,1,object_02,5,2896,0,9,0,forest_3,2,memory-2step-stake-s,717,3970214,0.0-19.0-0.1-0.209,A2866TYG0D96LM,3X4Q1O9UCK2WXV8VOBT8MFKQE0B7O9,3TUI152ZZF3OT4434A95ZUK0KTNQ1Y,4,3
210,2,object_01,object_07,584.0,3,1,398.0,0.6666666666666666,1,object_02,1,2902,0,6,0,forest_3,2,memory-2step-stake-s,718,3978516,0.0-19.0-0.1-0.210,A2866TYG0D96LM,3X4Q1O9UCK2WXV8VOBT8MFKQE0B7O9,3TUI152ZZF3OT4434A95ZUK0KTNQ1Y,3,4
211,3,object_06,object_03,676.0,6,2,522.0,0.0,2,object_04,1,2902,0,6,0,library_1,2,memory-2step-stake-s,719,3986293,0.0-19.0-0.1-0.211,A2866TYG0D96LM,3X4Q1O9UCK2WXV8VOBT8MFKQE0B7O9,3TUI152ZZF3OT4434A95ZUK0KTNQ1Y,5,6
212,4,object_08,object_10,707.0,7,1,332.0,0.6666666666666666,1,object_02,1,2908,0,6,2,restaurant_8,2,memory-2step-stake-s,720,3994551,0.0-19.0-0.1-0.212,A2866TYG0D96LM,3X4Q1O9UCK2WXV8VOBT8MFKQE0B7O9,3TUI152ZZF3OT4434A95ZUK0KTNQ1Y,7,8
213,2,object_01,object_07,555.0,4,2,331.0,0.1111111111111111,2,object_04,5,2913,0,7,1,forest_6,2,memory-2step-stake-s,721,4002259,0.0-19.0-0.1-0.213,A2866TYG0D96LM,3X4Q1O9UCK2WXV8VOBT8MFKQE0B7O9,3TUI152ZZF3OT4434A95ZUK0KTNQ1Y,3,4
214,1,object_05,object_09,708.0,1,2,303.0,0.5555555555555556,1,object_02,5,2938,0,5,0,desert_8,2,memory-2step-stake-s,722,4010383,0.0-19.0-0.1-0.214,A2866TYG0D96LM,3X4Q1O9UCK2WXV8VOBT8MFKQE0B7O9,3TUI152ZZF3OT4434A95ZUK0KTNQ1Y,2,1
215,3,object_06,object_03,625.0,6,2,462.0,0.2222222222222222,2,object_04,1,2940,0,2,2,library_6,2,memory-2step-stake-s,723,4018320,0.0-19.0-0.1-0.215,A2866TYG0D96LM,3X4Q1O9UCK2WXV8VOBT8MFKQE0B7O9,3TUI152ZZF3OT4434A95ZUK0KTNQ1Y,5,6
216,2,object_01,object_07,535.0,3,1,451.0,0.7777777777777778,1,object_02,5,2975,0,7,3,forest_2,2,memory-2step-stake-s,724,4026788,0.0-19.0-0.1-0.216,A2866TYG0D96LM,3X4Q1O9UCK2WXV8VOBT8MFKQE0B7O9,3TUI152ZZF3OT4434A95ZUK0KTNQ1Y,3,4
217,4,object_08,object_10,819.0,7,1,595.0,0.6666666666666666,1,object_02,1,2981,0,6,0,restaurant_1,2,memory-2step-stake-s,725,4035279,0.0-19.0-0.1-0.217,A2866TYG0D96LM,3X4Q1O9UCK2WXV8VOBT8MFKQE0B7O9,3TUI152ZZF3OT4434A95ZUK0KTNQ1Y,7,8
218,3,object_06,object_03,585.0,5,1,384.0,0.6666666666666666,1,object_02,5,3011,0,6,2,library_1,2,memory-2step-stake-s,726,4043552,0.0-19.0-0.1-0.218,A2866TYG0D96LM,3X4Q1O9UCK2WXV8VOBT8MFKQE0B7O9,3TUI152ZZF3OT4434A95ZUK0KTNQ1Y,5,6
219,3,object_06,object_03,619.0,6,2,441.0,0.3333333333333333,2,object_04,1,3014,0,7,3,library_7,2,memory-2step-stake-s,727,4051565,0.0-19.0-0.1-0.219,A2866TYG0D96LM,3X4Q1O9UCK2WXV8VOBT8MFKQE0B7O9,3TUI152ZZF3OT4434A95ZUK0KTNQ1Y,5,6
220,3,object_03,object_06,542.0,6,1,579.0,0.0,2,object_04,1,3014,0,7,0,library_1,2,memory-2step-stake-s,728,4059386,0.0-19.0-0.1-0.220,A2866TYG0D96LM,3X4Q1O9UCK2WXV8VOBT8MFKQE0B7O9,3TUI152ZZF3OT4434A95ZUK0KTNQ1Y,6,5
221,1,object_05,object_09,828.0,1,2,536.0,0.4444444444444444,1,object_02,5,3034,0,4,1,desert_6,2,memory-2step-stake-s,729,4067606,0.0-19.0-0.1-0.221,A2866TYG0D96LM,3X4Q1O9UCK2WXV8VOBT8MFKQE0B7O9,3TUI152ZZF3OT4434A95ZUK0KTNQ1Y,2,1
222,2,object_01,object_07,623.0,3,1,881.0,0.4444444444444444,1,object_02,5,3054,0,4,1,forest_6,2,memory-2step-stake-s,730,4076181,0.0-19.0-0.1-0.222,A2866TYG0D96LM,3X4Q1O9UCK2WXV8VOBT8MFKQE0B7O9,3TUI152ZZF3OT4434A95ZUK0KTNQ1Y,3,4
223,4,object_10,object_08,806.0,8,1,380.0,0.4444444444444444,2,object_04,1,3058,0,3,4,restaurant_7,2,memory-2step-stake-s,731,4084239,0.0-19.0-0.1-0.223,A2866TYG0D96LM,3X4Q1O9UCK2WXV8VOBT8MFKQE0B7O9,3TUI152ZZF3OT4434A95ZUK0KTNQ1Y,8,7
224,3,object_03,object_06,824.0,6,1,308.0,0.5555555555555556,2,object_04,1,3063,0,0,5,library_6,2,memory-2step-stake-s,732,4092337,0.0-19.0-0.1-0.224,A2866TYG0D96LM,3X4Q1O9UCK2WXV8VOBT8MFKQE0B7O9,3TUI152ZZF3OT4434A95ZUK0KTNQ1Y,6,5
225,1,object_09,object_05,759.0,1,1,517.0,0.0,1,object_02,5,3063,0,0,7,desert_8,2,memory-2step-stake-s,733,4100107,0.0-19.0-0.1-0.225,A2866TYG0D96LM,3X4Q1O9UCK2WXV8VOBT8MFKQE0B7O9,3TUI152ZZF3OT4434A95ZUK0KTNQ1Y,1,2
226,4,object_08,object_10,1093.0,8,2,567.0,0.5555555555555556,2,object_04,5,3088,0,0,5,restaurant_6,2,memory-2step-stake-s,734,4108476,0.0-19.0-0.1-0.226,A2866TYG0D96LM,3X4Q1O9UCK2WXV8VOBT8MFKQE0B7O9,3TUI152ZZF3OT4434A95ZUK0KTNQ1Y,7,8
227,3,object_03,object_06,636.0,5,2,736.0,0.2222222222222222,1,object_02,1,3090,0,2,3,library_7,2,memory-2step-stake-s,735,4116690,0.0-19.0-0.1-0.227,A2866TYG0D96LM,3X4Q1O9UCK2WXV8VOBT8MFKQE0B7O9,3TUI152ZZF3OT4434A95ZUK0KTNQ1Y,6,5
228,4,object_10,object_08,727.0,8,1,497.0,0.2222222222222222,2,object_04,1,3092,0,3,2,restaurant_8,2,memory-2step-stake-s,736,4124666,0.0-19.0-0.1-0.228,A2866TYG0D96LM,3X4Q1O9UCK2WXV8VOBT8MFKQE0B7O9,3TUI152ZZF3OT4434A95ZUK0KTNQ1Y,8,7
229,1,object_05,object_09,518.0,1,2,352.0,0.8888888888888888,1,object_02,5,3132,0,8,2,desert_2,2,memory-2step-stake-s,737,4133126,0.0-19.0-0.1-0.229,A2866TYG0D96LM,3X4Q1O9UCK2WXV8VOBT8MFKQE0B7O9,3TUI152ZZF3OT4434A95ZUK0KTNQ1Y,2,1
230,3,object_06,object_03,606.0,6,2,361.0,0.1111111111111111,2,object_04,5,3137,0,5,1,library_1,2,memory-2step-stake-s,738,4140873,0.0-19.0-0.1-0.230,A2866TYG0D96LM,3X4Q1O9UCK2WXV8VOBT8MFKQE0B7O9,3TUI152ZZF3OT4434A95ZUK0KTNQ1Y,5,6
231,3,object_03,object_06,668.0,6,1,423.0,0.3333333333333333,2,object_04,5,3152,0,3,3,library_3,2,memory-2step-stake-s,739,4148885,0.0-19.0-0.1-0.231,A2866TYG0D96LM,3X4Q1O9UCK2WXV8VOBT8MFKQE0B7O9,3TUI152ZZF3OT4434A95ZUK0KTNQ1Y,6,5
232,4,object_10,object_08,862.0,8,1,306.0,0.4444444444444444,2,object_04,1,3156,0,5,4,restaurant_6,2,memory-2step-stake-s,740,4156878,0.0-19.0-0.1-0.232,A2866TYG0D96LM,3X4Q1O9UCK2WXV8VOBT8MFKQE0B7O9,3TUI152ZZF3OT4434A95ZUK0KTNQ1Y,8,7
233,3,object_06,object_03,1015.0,6,2,512.0,0.5555555555555556,2,object_04,1,3161,0,2,5,library_3,2,memory-2step-stake-s,741,4165184,0.0-19.0-0.1-0.233,A2866TYG0D96LM,3X4Q1O9UCK2WXV8VOBT8MFKQE0B7O9,3TUI152ZZF3OT4434A95ZUK0KTNQ1Y,5,6
234,4,object_08,object_10,670.0,7,1,426.0,0.3333333333333333,1,object_02,1,3164,0,3,3,restaurant_7,2,memory-2step-stake-s,742,4173195,0.0-19.0-0.1-0.234,A2866TYG0D96LM,3X4Q1O9UCK2WXV8VOBT8MFKQE0B7O9,3TUI152ZZF3OT4434A95ZUK0KTNQ1Y,7,8
235,3,object_06,object_03,571.0,6,2,445.0,0.1111111111111111,2,object_04,1,3165,0,5,1,library_6,2,memory-2step-stake-s,743,4181020,0.0-19.0-0.1-0.235,A2866TYG0D96LM,3X4Q1O9UCK2WXV8VOBT8MFKQE0B7O9,3TUI152ZZF3OT4434A95ZUK0KTNQ1Y,5,6
236,1,object_05,object_09,707.0,2,1,475.0,0.1111111111111111,2,object_04,5,3170,0,4,1,desert_2,2,memory-2step-stake-s,744,4188868,0.0-19.0-0.1-0.236,A2866TYG0D96LM,3X4Q1O9UCK2WXV8VOBT8MFKQE0B7O9,3TUI152ZZF3OT4434A95ZUK0KTNQ1Y,2,1
237,2,object_01,object_07,917.0,3,1,609.0,0.6666666666666666,1,object_02,5,3200,0,6,1,forest_4,2,memory-2step-stake-s,745,4197373,0.0-19.0-0.1-0.237,A2866TYG0D96LM,3X4Q1O9UCK2WXV8VOBT8MFKQE0B7O9,3TUI152ZZF3OT4434A95ZUK0KTNQ1Y,3,4
238,2,object_01,object_07,599.0,3,1,317.0,0.4444444444444444,1,object_02,5,3220,0,4,1,forest_3,2,memory-2step-stake-s,746,4205387,0.0-19.0-0.1-0.238,A2866TYG0D96LM,3X4Q1O9UCK2WXV8VOBT8MFKQE0B7O9,3TUI152ZZF3OT4434A95ZUK0KTNQ1Y,3,4
239,2,object_01,object_07,574.0,3,1,403.0,0.6666666666666666,1,object_02,1,3226,0,6,1,forest_4,2,memory-2step-stake-s,747,4213692,0.0-19.0-0.1-0.239,A2866TYG0D96LM,3X4Q1O9UCK2WXV8VOBT8MFKQE0B7O9,3TUI152ZZF3OT4434A95ZUK0KTNQ1Y,3,4
240,3,object_06,object_03,614.0,6,2,505.0,0.0,2,object_04,1,3226,0,5,0,library_1,2,memory-2step-stake-s,748,4221460,0.0-19.0-0.1-0.240,A2866TYG0D96LM,3X4Q1O9UCK2WXV8VOBT8MFKQE0B7O9,3TUI152ZZF3OT4434A95ZUK0KTNQ1Y,5,6
241,1,object_05,object_09,663.0,1,2,372.0,0.1111111111111111,1,object_02,5,3231,0,1,1,desert_2,2,memory-2step-stake-s,749,4229194,0.0-19.0-0.1-0.241,A2866TYG0D96LM,3X4Q1O9UCK2WXV8VOBT8MFKQE0B7O9,3TUI152ZZF3OT4434A95ZUK0KTNQ1Y,2,1
242,1,object_05,object_09,629.0,1,2,352.0,0.1111111111111111,1,object_02,5,3236,0,1,4,desert_7,2,memory-2step-stake-s,750,4236901,0.0-19.0-0.1-0.242,A2866TYG0D96LM,3X4Q1O9UCK2WXV8VOBT8MFKQE0B7O9,3TUI152ZZF3OT4434A95ZUK0KTNQ1Y,2,1
243,2,object_01,object_07,649.0,4,2,296.0,0.2222222222222222,2,object_04,5,3246,0,2,2,forest_4,2,memory-2step-stake-s,751,4244667,0.0-19.0-0.1-0.243,A2866TYG0D96LM,3X4Q1O9UCK2WXV8VOBT8MFKQE0B7O9,3TUI152ZZF3OT4434A95ZUK0KTNQ1Y,3,4
244,4,object_08,object_10,849.0,8,2,438.0,0.2222222222222222,2,object_04,5,3256,0,1,2,restaurant_8,2,memory-2step-stake-s,752,4252581,0.0-19.0-0.1-0.244,A2866TYG0D96LM,3X4Q1O9UCK2WXV8VOBT8MFKQE0B7O9,3TUI152ZZF3OT4434A95ZUK0KTNQ1Y,7,8
245,3,object_03,object_06,911.0,5,2,-1.0,0.0,1,object_02,1,3256,0,3,1,library_1,2,memory-2step-stake-s,753,4261139,0.0-19.0-0.1-0.245,A2866TYG0D96LM,3X4Q1O9UCK2WXV8VOBT8MFKQE0B7O9,3TUI152ZZF3OT4434A95ZUK0KTNQ1Y,6,5
246,3,object_06,object_03,1009.0,5,1,637.0,0.3333333333333333,1,object_02,1,3259,0,3,1,library_1,2,memory-2step-stake-s,754,4269368,0.0-19.0-0.1-0.246,A2866TYG0D96LM,3X4Q1O9UCK2WXV8VOBT8MFKQE0B7O9,3TUI152ZZF3OT4434A95ZUK0KTNQ1Y,5,6
247,1,object_09,object_05,838.0,2,2,357.0,0.1111111111111111,2,object_04,5,3264,0,3,1,desert_8,2,memory-2step-stake-s,755,4277084,0.0-19.0-0.1-0.247,A2866TYG0D96LM,3X4Q1O9UCK2WXV8VOBT8MFKQE0B7O9,3TUI152ZZF3OT4434A95ZUK0KTNQ1Y,1,2
248,3,object_03,object_06,636.0,6,1,497.0,0.1111111111111111,2,object_04,5,3269,0,2,1,library_6,2,memory-2step-stake-s,756,4284946,0.0-19.0-0.1-0.248,A2866TYG0D96LM,3X4Q1O9UCK2WXV8VOBT8MFKQE0B7O9,3TUI152ZZF3OT4434A95ZUK0KTNQ1Y,6,5
249,2,object_07,object_01,880.0,3,2,405.0,0.3333333333333333,1,object_02,5,3284,0,3,3,forest_6,2,memory-2step-stake-s,757,4292925,0.0-19.0-0.1-0.249,A2866TYG0D96LM,3X4Q1O9UCK2WXV8VOBT8MFKQE0B7O9,3TUI152ZZF3OT4434A95ZUK0KTNQ1Y,4,3
250,3,object_03,object_06,664.0,5,2,447.0,0.4444444444444444,1,object_02,5,3304,0,4,1,library_1,2,memory-2step-stake-s,758,4301052,0.0-19.0-0.1-0.250,A2866TYG0D96LM,3X4Q1O9UCK2WXV8VOBT8MFKQE0B7O9,3TUI152ZZF3OT4434A95ZUK0KTNQ1Y,6,5
251,1,object_05,object_09,757.0,2,1,829.0,0.1111111111111111,2,object_04,5,3309,0,4,1,desert_6,2,memory-2step-stake-s,759,4309241,0.0-19.0-0.1-0.251,A2866TYG0D96LM,3X4Q1O9UCK2WXV8VOBT8MFKQE0B7O9,3TUI152ZZF3OT4434A95ZUK0KTNQ1Y,2,1
252,2,object_01,object_07,707.0,4,2,294.0,0.2222222222222222,2,object_04,5,3319,0,1,2,forest_6,2,memory-2step-stake-s,760,4317003,0.0-19.0-0.1-0.252,A2866TYG0D96LM,3X4Q1O9UCK2WXV8VOBT8MFKQE0B7O9,3TUI152ZZF3OT4434A95ZUK0KTNQ1Y,3,4
253,1,object_05,object_09,898.0,1,2,618.0,0.1111111111111111,1,object_02,5,3324,0,1,1,desert_7,2,memory-2step-stake-s,761,4325001,0.0-19.0-0.1-0.253,A2866TYG0D96LM,3X4Q1O9UCK2WXV8VOBT8MFKQE0B7O9,3TUI152ZZF3OT4434A95ZUK0KTNQ1Y,2,1
254,4,object_08,object_10,763.0,7,1,628.0,0.2222222222222222,1,object_02,1,3326,0,2,0,restaurant_1,2,memory-2step-stake-s,762,4333111,0.0-19.0-0.1-0.254,A2866TYG0D96LM,3X4Q1O9UCK2WXV8VOBT8MFKQE0B7O9,3TUI152ZZF3OT4434A95ZUK0KTNQ1Y,7,8
255,2,object_07,object_01,415.0,3,2,418.0,0.3333333333333333,1,object_02,5,3341,0,3,1,forest_2,2,memory-2step-stake-s,763,4341102,0.0-19.0-0.1-0.255,A2866TYG0D96LM,3X4Q1O9UCK2WXV8VOBT8MFKQE0B7O9,3TUI152ZZF3OT4434A95ZUK0KTNQ1Y,4,3
