,state1,stim_left,stim_right,rt_1,choice1,response1,rt_2,points,state2,stim_state2,stake,score,practice,rews1,rews2,background,high_arm,trial_type,trial_index,time_elapsed,internal_node_id,subid,hitid,assignmentid,stim_left_num,stim_right_num
0,1,object_02,object_06,975.93000001507,1,2,1042.2799999942,0.0,1,object_09,5,0,0,0,8,desert_1,2,memory-2step-stake-s,493,1051307,0.0-19.0-0.0-0.0,A27W025UEXS1G0,371DNNCG57IGA1IMUX7DUPM8OSP8TA,37TRT2X24U78KFIIBHIL85LNS8HBJ2,2,1
1,2,object_08,object_07,602.71999996621,4,1,684.51499997173,0.8888888888888888,2,object_10,5,40,0,0,8,forest_3,2,memory-2step-stake-s,494,1060063,0.0-19.0-0.0-0.1,A27W025UEXS1G0,371DNNCG57IGA1IMUX7DUPM8OSP8TA,37TRT2X24U78KFIIBHIL85LNS8HBJ2,4,3
2,3,object_01,object_04,549.59999996936,6,1,613.94499999005,0.7777777777777778,2,object_10,1,47,0,0,7,library_4,2,memory-2step-stake-s,495,1068685,0.0-19.0-0.0-0.2,A27W025UEXS1G0,371DNNCG57IGA1IMUX7DUPM8OSP8TA,37TRT2X24U78KFIIBHIL85LNS8HBJ2,6,5
3,2,object_08,object_07,843.85499998461,4,1,518.92499998212,0.5555555555555556,2,object_10,5,72,0,0,5,forest_3,2,memory-2step-stake-s,496,1076999,0.0-19.0-0.0-0.3,A27W025UEXS1G0,371DNNCG57IGA1IMUX7DUPM8OSP8TA,37TRT2X24U78KFIIBHIL85LNS8HBJ2,4,3
4,2,object_08,object_07,599.00999994716,4,1,338.57500000158,0.4444444444444444,2,object_10,5,92,0,2,4,forest_5,2,memory-2step-stake-s,497,1085003,0.0-19.0-0.0-0.4,A27W025UEXS1G0,371DNNCG57IGA1IMUX7DUPM8OSP8TA,37TRT2X24U78KFIIBHIL85LNS8HBJ2,4,3
5,1,object_02,object_06,874.67499997001,1,2,483.86000003666,0.4444444444444444,1,object_09,1,96,0,4,3,desert_3,2,memory-2step-stake-s,498,1093168,0.0-19.0-0.0-0.5,A27W025UEXS1G0,371DNNCG57IGA1IMUX7DUPM8OSP8TA,37TRT2X24U78KFIIBHIL85LNS8HBJ2,2,1
6,4,object_03,object_05,776.32499998435,7,1,477.05499996664,0.6666666666666666,1,object_09,1,102,0,6,1,restaurant_2,2,memory-2step-stake-s,499,1101513,0.0-19.0-0.0-0.6,A27W025UEXS1G0,371DNNCG57IGA1IMUX7DUPM8OSP8TA,37TRT2X24U78KFIIBHIL85LNS8HBJ2,7,8
7,2,object_07,object_08,929.66999998316,4,2,348.05500000948,0.1111111111111111,2,object_10,5,107,0,8,1,forest_1,2,memory-2step-stake-s,500,1109228,0.0-19.0-0.0-0.7,A27W025UEXS1G0,371DNNCG57IGA1IMUX7DUPM8OSP8TA,37TRT2X24U78KFIIBHIL85LNS8HBJ2,3,4
8,3,object_01,object_04,994.39000000712,6,1,312.57000000915,0.4444444444444444,2,object_10,1,111,0,5,4,library_1,2,memory-2step-stake-s,501,1117210,0.0-19.0-0.0-0.8,A27W025UEXS1G0,371DNNCG57IGA1IMUX7DUPM8OSP8TA,37TRT2X24U78KFIIBHIL85LNS8HBJ2,6,5
9,2,object_08,object_07,642.0849999995,3,2,290.63499998301,0.6666666666666666,1,object_09,5,141,0,6,7,forest_1,2,memory-2step-stake-s,502,1125374,0.0-19.0-0.0-0.9,A27W025UEXS1G0,371DNNCG57IGA1IMUX7DUPM8OSP8TA,37TRT2X24U78KFIIBHIL85LNS8HBJ2,4,3
10,4,object_05,object_03,1109.4199999934,8,1,488.32499998389,0.8888888888888888,2,object_10,1,149,0,3,8,restaurant_3,2,memory-2step-stake-s,503,1133955,0.0-19.0-0.0-0.10,A27W025UEXS1G0,371DNNCG57IGA1IMUX7DUPM8OSP8TA,37TRT2X24U78KFIIBHIL85LNS8HBJ2,8,7
11,3,object_01,object_04,802.44499997934,6,1,379.10000002012,1.0,2,object_10,1,158,0,4,9,library_3,2,memory-2step-stake-s,504,1142513,0.0-19.0-0.0-0.11,A27W025UEXS1G0,371DNNCG57IGA1IMUX7DUPM8OSP8TA,37TRT2X24U78KFIIBHIL85LNS8HBJ2,6,5
12,3,object_01,object_04,832.28999999119,6,1,427.82499996247,0.8888888888888888,2,object_10,5,198,0,7,8,library_3,2,memory-2step-stake-s,505,1151021,0.0-19.0-0.0-0.12,A27W025UEXS1G0,371DNNCG57IGA1IMUX7DUPM8OSP8TA,37TRT2X24U78KFIIBHIL85LNS8HBJ2,6,5
13,2,object_08,object_07,526.01000003051,3,2,313.02499998128,0.4444444444444444,1,object_09,1,202,0,4,8,forest_3,2,memory-2step-stake-s,506,1159039,0.0-19.0-0.0-0.13,A27W025UEXS1G0,371DNNCG57IGA1IMUX7DUPM8OSP8TA,37TRT2X24U78KFIIBHIL85LNS8HBJ2,4,3
14,2,object_08,object_07,824.24499996705,4,1,337.66499999911,1.0,2,object_10,5,247,0,7,9,forest_1,2,memory-2step-stake-s,507,1167558,0.0-19.0-0.0-0.14,A27W025UEXS1G0,371DNNCG57IGA1IMUX7DUPM8OSP8TA,37TRT2X24U78KFIIBHIL85LNS8HBJ2,4,3
15,2,object_08,object_07,711.95500000613,4,1,453.63499998348,0.6666666666666666,2,object_10,5,277,0,5,6,forest_1,2,memory-2step-stake-s,508,1175902,0.0-19.0-0.0-0.15,A27W025UEXS1G0,371DNNCG57IGA1IMUX7DUPM8OSP8TA,37TRT2X24U78KFIIBHIL85LNS8HBJ2,4,3
16,4,object_03,object_05,829.49999999255,7,1,744.21999999322,0.8888888888888888,1,object_09,5,317,0,8,5,restaurant_8,2,memory-2step-stake-s,509,1184734,0.0-19.0-0.0-0.16,A27W025UEXS1G0,371DNNCG57IGA1IMUX7DUPM8OSP8TA,37TRT2X24U78KFIIBHIL85LNS8HBJ2,7,8
17,4,object_05,object_03,776.34499996202,7,2,374.18000004254,1.0,1,object_09,1,326,0,9,5,restaurant_3,2,memory-2step-stake-s,510,1193301,0.0-19.0-0.0-0.17,A27W025UEXS1G0,371DNNCG57IGA1IMUX7DUPM8OSP8TA,37TRT2X24U78KFIIBHIL85LNS8HBJ2,8,7
18,2,object_08,object_07,743.42499999329,3,2,332.18999998644,1.0,1,object_09,5,371,0,9,3,forest_8,2,memory-2step-stake-s,511,1201821,0.0-19.0-0.0-0.18,A27W025UEXS1G0,371DNNCG57IGA1IMUX7DUPM8OSP8TA,37TRT2X24U78KFIIBHIL85LNS8HBJ2,4,3
19,3,object_04,object_01,773.61499995459,5,1,285.36499995971,0.4444444444444444,1,object_09,1,375,0,4,5,library_1,2,memory-2step-stake-s,512,1209787,0.0-19.0-0.0-0.19,A27W025UEXS1G0,371DNNCG57IGA1IMUX7DUPM8OSP8TA,37TRT2X24U78KFIIBHIL85LNS8HBJ2,5,6
20,4,object_03,object_05,850.33000004478,8,2,315.52500004182,0.6666666666666666,2,object_10,1,381,0,5,6,restaurant_3,2,memory-2step-stake-s,513,1217996,0.0-19.0-0.0-0.20,A27W025UEXS1G0,371DNNCG57IGA1IMUX7DUPM8OSP8TA,37TRT2X24U78KFIIBHIL85LNS8HBJ2,7,8
21,2,object_08,object_07,569.56000003265,4,1,269.4349999656,0.8888888888888888,2,object_10,5,421,0,4,8,forest_5,2,memory-2step-stake-s,514,1226379,0.0-19.0-0.0-0.21,A27W025UEXS1G0,371DNNCG57IGA1IMUX7DUPM8OSP8TA,37TRT2X24U78KFIIBHIL85LNS8HBJ2,4,3
22,3,object_01,object_04,758.0200000084,5,2,450.65000001341,0.6666666666666666,1,object_09,1,427,0,6,6,library_4,2,memory-2step-stake-s,515,1234752,0.0-19.0-0.0-0.22,A27W025UEXS1G0,371DNNCG57IGA1IMUX7DUPM8OSP8TA,37TRT2X24U78KFIIBHIL85LNS8HBJ2,6,5
23,3,object_01,object_04,589.20500002569,5,2,343.18999998504,1.0,1,object_09,1,436,0,9,7,library_1,2,memory-2step-stake-s,516,1243309,0.0-19.0-0.0-0.23,A27W025UEXS1G0,371DNNCG57IGA1IMUX7DUPM8OSP8TA,37TRT2X24U78KFIIBHIL85LNS8HBJ2,6,5
24,1,object_06,object_02,939.85999998404,2,2,391.01999998093,0.8888888888888888,2,object_10,5,476,0,9,8,desert_1,2,memory-2step-stake-s,517,1251804,0.0-19.0-0.0-0.24,A27W025UEXS1G0,371DNNCG57IGA1IMUX7DUPM8OSP8TA,37TRT2X24U78KFIIBHIL85LNS8HBJ2,1,2
25,2,object_08,object_07,792.82999999123,3,2,281.46000002744,0.6666666666666666,1,object_09,5,506,0,6,8,forest_3,2,memory-2step-stake-s,518,1260005,0.0-19.0-0.0-0.25,A27W025UEXS1G0,371DNNCG57IGA1IMUX7DUPM8OSP8TA,37TRT2X24U78KFIIBHIL85LNS8HBJ2,4,3
26,4,object_05,object_03,634.5100000035,8,1,437.91999999667,0.6666666666666666,2,object_10,1,512,0,6,6,restaurant_3,2,memory-2step-stake-s,519,1268344,0.0-19.0-0.0-0.26,A27W025UEXS1G0,371DNNCG57IGA1IMUX7DUPM8OSP8TA,37TRT2X24U78KFIIBHIL85LNS8HBJ2,8,7
27,3,object_01,object_04,687.32500000624,6,1,301.96999997133,1.0,2,object_10,1,521,0,5,9,library_8,2,memory-2step-stake-s,520,1276851,0.0-19.0-0.0-0.27,A27W025UEXS1G0,371DNNCG57IGA1IMUX7DUPM8OSP8TA,37TRT2X24U78KFIIBHIL85LNS8HBJ2,6,5
28,1,object_02,object_06,797.83499997575,1,2,353.52500004228,0.8888888888888888,1,object_09,5,561,0,8,8,desert_1,2,memory-2step-stake-s,521,1285293,0.0-19.0-0.0-0.28,A27W025UEXS1G0,371DNNCG57IGA1IMUX7DUPM8OSP8TA,37TRT2X24U78KFIIBHIL85LNS8HBJ2,2,1
29,2,object_07,object_08,754.26499999594,3,1,282.24500000942,0.7777777777777778,1,object_09,5,596,0,7,9,forest_1,2,memory-2step-stake-s,522,1293586,0.0-19.0-0.0-0.29,A27W025UEXS1G0,371DNNCG57IGA1IMUX7DUPM8OSP8TA,37TRT2X24U78KFIIBHIL85LNS8HBJ2,3,4
30,3,object_01,object_04,597.14000002714,6,1,370.51500001689,0.8888888888888888,2,object_10,1,604,0,9,8,library_4,2,memory-2step-stake-s,523,1302069,0.0-19.0-0.0-0.30,A27W025UEXS1G0,371DNNCG57IGA1IMUX7DUPM8OSP8TA,37TRT2X24U78KFIIBHIL85LNS8HBJ2,6,5
31,1,object_06,object_02,858.37000003085,2,2,369.23499999102,0.7777777777777778,2,object_10,5,639,0,7,7,desert_1,2,memory-2step-stake-s,524,1310410,0.0-19.0-0.0-0.31,A27W025UEXS1G0,371DNNCG57IGA1IMUX7DUPM8OSP8TA,37TRT2X24U78KFIIBHIL85LNS8HBJ2,1,2
32,1,object_06,object_02,872.19999998342,1,1,383.1900000223,1.0,1,object_09,5,684,0,9,5,desert_2,2,memory-2step-stake-s,525,1318962,0.0-19.0-0.0-0.32,A27W025UEXS1G0,371DNNCG57IGA1IMUX7DUPM8OSP8TA,37TRT2X24U78KFIIBHIL85LNS8HBJ2,1,2
33,3,object_01,object_04,703.1100000022,6,1,360.28000002261,0.4444444444444444,2,object_10,1,688,0,8,4,library_4,2,memory-2step-stake-s,526,1326991,0.0-19.0-0.0-0.33,A27W025UEXS1G0,371DNNCG57IGA1IMUX7DUPM8OSP8TA,37TRT2X24U78KFIIBHIL85LNS8HBJ2,6,5
34,2,object_08,object_07,749.86500001978,4,1,358.65000000922,0.7777777777777778,2,object_10,5,723,0,8,7,forest_5,2,memory-2step-stake-s,527,1335344,0.0-19.0-0.0-0.34,A27W025UEXS1G0,371DNNCG57IGA1IMUX7DUPM8OSP8TA,37TRT2X24U78KFIIBHIL85LNS8HBJ2,4,3
35,2,object_07,object_08,628.3650000114,4,2,341.15499997279,0.7777777777777778,2,object_10,1,730,0,7,7,forest_8,2,memory-2step-stake-s,528,1343694,0.0-19.0-0.0-0.35,A27W025UEXS1G0,371DNNCG57IGA1IMUX7DUPM8OSP8TA,37TRT2X24U78KFIIBHIL85LNS8HBJ2,3,4
36,3,object_04,object_01,487.02499998035,5,1,379.93999995524,0.8888888888888888,1,object_09,1,738,0,8,2,library_1,2,memory-2step-stake-s,529,1352187,0.0-19.0-0.0-0.36,A27W025UEXS1G0,371DNNCG57IGA1IMUX7DUPM8OSP8TA,37TRT2X24U78KFIIBHIL85LNS8HBJ2,5,6
37,4,object_05,object_03,956.13000000594,7,2,369.0400000196,0.8888888888888888,1,object_09,5,778,0,8,1,restaurant_6,2,memory-2step-stake-s,530,1360628,0.0-19.0-0.0-0.37,A27W025UEXS1G0,371DNNCG57IGA1IMUX7DUPM8OSP8TA,37TRT2X24U78KFIIBHIL85LNS8HBJ2,8,7
38,4,object_03,object_05,591.84000000823,7,1,418.21999999229,1.0,1,object_09,1,787,0,9,2,restaurant_2,2,memory-2step-stake-s,531,1369269,0.0-19.0-0.0-0.38,A27W025UEXS1G0,371DNNCG57IGA1IMUX7DUPM8OSP8TA,37TRT2X24U78KFIIBHIL85LNS8HBJ2,7,8
39,2,object_08,object_07,627.01999995625,3,2,336.89499995671,1.0,1,object_09,1,796,0,9,1,forest_3,2,memory-2step-stake-s,532,1377781,0.0-19.0-0.0-0.39,A27W025UEXS1G0,371DNNCG57IGA1IMUX7DUPM8OSP8TA,37TRT2X24U78KFIIBHIL85LNS8HBJ2,4,3
40,1,object_06,object_02,1147.3949999781,1,1,423.10499999439,0.7777777777777778,1,object_09,5,831,0,7,1,desert_3,2,memory-2step-stake-s,533,1386218,0.0-19.0-0.0-0.40,A27W025UEXS1G0,371DNNCG57IGA1IMUX7DUPM8OSP8TA,37TRT2X24U78KFIIBHIL85LNS8HBJ2,1,2
41,1,object_02,object_06,1213.4199999855,2,1,364.97000005329,0.0,2,object_10,5,831,0,9,0,desert_8,2,memory-2step-stake-s,534,1393860,0.0-19.0-0.0-0.41,A27W025UEXS1G0,371DNNCG57IGA1IMUX7DUPM8OSP8TA,37TRT2X24U78KFIIBHIL85LNS8HBJ2,2,1
42,3,object_04,object_01,486.99499998474,6,2,206.09500003047,0.2222222222222222,2,object_10,1,833,0,6,2,library_4,2,memory-2step-stake-s,535,1401549,0.0-19.0-0.0-0.42,A27W025UEXS1G0,371DNNCG57IGA1IMUX7DUPM8OSP8TA,37TRT2X24U78KFIIBHIL85LNS8HBJ2,5,6
43,4,object_03,object_05,918.74500003178,7,1,427.28499998339,0.4444444444444444,1,object_09,5,853,0,4,2,restaurant_6,2,memory-2step-stake-s,536,1409655,0.0-19.0-0.0-0.43,A27W025UEXS1G0,371DNNCG57IGA1IMUX7DUPM8OSP8TA,37TRT2X24U78KFIIBHIL85LNS8HBJ2,7,8
44,2,object_07,object_08,852.55000001052,3,1,273.48499995423,0.8888888888888888,1,object_09,5,893,0,8,1,forest_1,2,memory-2step-stake-s,537,1418049,0.0-19.0-0.0-0.44,A27W025UEXS1G0,371DNNCG57IGA1IMUX7DUPM8OSP8TA,37TRT2X24U78KFIIBHIL85LNS8HBJ2,3,4
45,3,object_04,object_01,828.63499998348,5,1,267.35999999801,0.8888888888888888,1,object_09,1,901,0,8,0,library_8,2,memory-2step-stake-s,538,1426424,0.0-19.0-0.0-0.45,A27W025UEXS1G0,371DNNCG57IGA1IMUX7DUPM8OSP8TA,37TRT2X24U78KFIIBHIL85LNS8HBJ2,5,6
46,4,object_05,object_03,951.00000000093,8,1,551.60499998601,0.1111111111111111,2,object_10,1,902,0,9,1,restaurant_2,2,memory-2step-stake-s,539,1434366,0.0-19.0-0.0-0.46,A27W025UEXS1G0,371DNNCG57IGA1IMUX7DUPM8OSP8TA,37TRT2X24U78KFIIBHIL85LNS8HBJ2,8,7
47,3,object_01,object_04,829.26999998745,6,1,294.37499999767,0.2222222222222222,2,object_10,1,904,0,6,2,library_4,2,memory-2step-stake-s,540,1442161,0.0-19.0-0.0-0.47,A27W025UEXS1G0,371DNNCG57IGA1IMUX7DUPM8OSP8TA,37TRT2X24U78KFIIBHIL85LNS8HBJ2,6,5
48,1,object_02,object_06,859.01000001468,2,1,423.61500003608,0.3333333333333333,2,object_10,1,907,0,9,3,desert_8,2,memory-2step-stake-s,541,1450160,0.0-19.0-0.0-0.48,A27W025UEXS1G0,371DNNCG57IGA1IMUX7DUPM8OSP8TA,37TRT2X24U78KFIIBHIL85LNS8HBJ2,2,1
49,2,object_08,object_07,830.62500000233,3,2,377.93999997666,0.6666666666666666,1,object_09,5,937,0,6,4,forest_8,2,memory-2step-stake-s,542,1458418,0.0-19.0-0.0-0.49,A27W025UEXS1G0,371DNNCG57IGA1IMUX7DUPM8OSP8TA,37TRT2X24U78KFIIBHIL85LNS8HBJ2,4,3
50,2,object_07,object_08,897.1550000133,3,1,441.98999996297,0.5555555555555556,1,object_09,1,942,0,5,2,forest_8,2,memory-2step-stake-s,543,1466636,0.0-19.0-0.0-0.50,A27W025UEXS1G0,371DNNCG57IGA1IMUX7DUPM8OSP8TA,37TRT2X24U78KFIIBHIL85LNS8HBJ2,3,4
51,3,object_01,object_04,702.16499996604,6,1,289.19999999925,0.4444444444444444,2,object_10,1,946,0,3,4,library_3,2,memory-2step-stake-s,544,1474607,0.0-19.0-0.0-0.51,A27W025UEXS1G0,371DNNCG57IGA1IMUX7DUPM8OSP8TA,37TRT2X24U78KFIIBHIL85LNS8HBJ2,6,5
52,1,object_02,object_06,861.6650000331,1,2,344.53999996185,0.1111111111111111,1,object_09,5,951,0,1,0,desert_2,2,memory-2step-stake-s,545,1482315,0.0-19.0-0.0-0.52,A27W025UEXS1G0,371DNNCG57IGA1IMUX7DUPM8OSP8TA,37TRT2X24U78KFIIBHIL85LNS8HBJ2,2,1
53,1,object_02,object_06,599.11000001011,2,1,388.3049999713,0.1111111111111111,2,object_10,5,956,0,3,1,desert_8,2,memory-2step-stake-s,546,1490087,0.0-19.0-0.0-0.53,A27W025UEXS1G0,371DNNCG57IGA1IMUX7DUPM8OSP8TA,37TRT2X24U78KFIIBHIL85LNS8HBJ2,2,1
54,1,object_06,object_02,535.22499999963,1,1,359.375,0.4444444444444444,1,object_09,5,976,0,4,2,desert_2,2,memory-2step-stake-s,547,1498105,0.0-19.0-0.0-0.54,A27W025UEXS1G0,371DNNCG57IGA1IMUX7DUPM8OSP8TA,37TRT2X24U78KFIIBHIL85LNS8HBJ2,1,2
55,2,object_08,object_07,717.30999997817,3,2,350.41499999352,0.2222222222222222,1,object_09,5,986,0,2,4,forest_3,2,memory-2step-stake-s,548,1505909,0.0-19.0-0.0-0.55,A27W025UEXS1G0,371DNNCG57IGA1IMUX7DUPM8OSP8TA,37TRT2X24U78KFIIBHIL85LNS8HBJ2,4,3
56,4,object_05,object_03,381.04000000749,8,1,120.5900000059,0.6666666666666666,2,object_10,1,992,0,2,6,restaurant_2,2,memory-2step-stake-s,549,1513921,0.0-19.0-0.0-0.56,A27W025UEXS1G0,371DNNCG57IGA1IMUX7DUPM8OSP8TA,37TRT2X24U78KFIIBHIL85LNS8HBJ2,8,7
57,2,object_08,object_07,643.41999997851,3,2,304.69000001904,0.0,1,object_09,1,992,0,0,4,forest_3,2,memory-2step-stake-s,550,1521484,0.0-19.0-0.0-0.57,A27W025UEXS1G0,371DNNCG57IGA1IMUX7DUPM8OSP8TA,37TRT2X24U78KFIIBHIL85LNS8HBJ2,4,3
58,2,object_08,object_07,552.46999999508,4,1,320.25500002783,0.5555555555555556,2,object_10,1,997,0,2,5,forest_3,2,memory-2step-stake-s,551,1529571,0.0-19.0-0.0-0.58,A27W025UEXS1G0,371DNNCG57IGA1IMUX7DUPM8OSP8TA,37TRT2X24U78KFIIBHIL85LNS8HBJ2,4,3
59,3,object_01,object_04,744.88499999279,6,1,333.26499996474,0.7777777777777778,2,object_10,1,1004,0,2,7,library_8,2,memory-2step-stake-s,552,1537902,0.0-19.0-0.0-0.59,A27W025UEXS1G0,371DNNCG57IGA1IMUX7DUPM8OSP8TA,37TRT2X24U78KFIIBHIL85LNS8HBJ2,6,5
60,4,object_05,object_03,979.60500000045,7,2,486.85499996645,0.6666666666666666,1,object_09,5,1034,0,6,7,restaurant_6,2,memory-2step-stake-s,553,1546272,0.0-19.0-0.0-0.60,A27W025UEXS1G0,371DNNCG57IGA1IMUX7DUPM8OSP8TA,37TRT2X24U78KFIIBHIL85LNS8HBJ2,8,7
61,4,object_05,object_03,998.93499998143,8,1,278.99500000058,0.8888888888888888,2,object_10,1,1042,0,9,8,restaurant_6,2,memory-2step-stake-s,554,1554660,0.0-19.0-0.0-0.61,A27W025UEXS1G0,371DNNCG57IGA1IMUX7DUPM8OSP8TA,37TRT2X24U78KFIIBHIL85LNS8HBJ2,8,7
62,4,object_05,object_03,745.81500003114,8,1,360.56499998085,0.8888888888888888,2,object_10,1,1050,0,7,8,restaurant_8,2,memory-2step-stake-s,555,1563120,0.0-19.0-0.0-0.62,A27W025UEXS1G0,371DNNCG57IGA1IMUX7DUPM8OSP8TA,37TRT2X24U78KFIIBHIL85LNS8HBJ2,8,7
63,3,object_04,object_01,880.93500002287,6,2,353.05500001414,0.8888888888888888,2,object_10,1,1058,0,8,8,library_3,2,memory-2step-stake-s,556,1571570,0.0-19.0-0.0-0.63,A27W025UEXS1G0,371DNNCG57IGA1IMUX7DUPM8OSP8TA,37TRT2X24U78KFIIBHIL85LNS8HBJ2,5,6
64,2,object_07,object_08,894.30499996524,4,2,332.37000001827,0.5555555555555556,2,object_10,5,1083,0,8,5,forest_5,2,memory-2step-stake-s,557,1579677,0.0-19.0-0.0-0.64,A27W025UEXS1G0,371DNNCG57IGA1IMUX7DUPM8OSP8TA,37TRT2X24U78KFIIBHIL85LNS8HBJ2,3,4
65,3,object_01,object_04,634.94499999797,6,1,358.80000004545,0.3333333333333333,2,object_10,1,1086,0,7,3,library_8,2,memory-2step-stake-s,558,1587620,0.0-19.0-0.0-0.65,A27W025UEXS1G0,371DNNCG57IGA1IMUX7DUPM8OSP8TA,37TRT2X24U78KFIIBHIL85LNS8HBJ2,6,5
66,3,object_01,object_04,537.11500001373,6,1,430.90500001563,0.0,2,object_10,1,1086,0,6,0,library_3,2,memory-2step-stake-s,559,1595320,0.0-19.0-0.0-0.66,A27W025UEXS1G0,371DNNCG57IGA1IMUX7DUPM8OSP8TA,37TRT2X24U78KFIIBHIL85LNS8HBJ2,6,5
67,4,object_05,object_03,681.36500002583,7,2,302.04999999842,0.8888888888888888,1,object_09,1,1094,0,8,2,restaurant_2,2,memory-2step-stake-s,560,1603688,0.0-19.0-0.0-0.67,A27W025UEXS1G0,371DNNCG57IGA1IMUX7DUPM8OSP8TA,37TRT2X24U78KFIIBHIL85LNS8HBJ2,8,7
68,3,object_04,object_01,832.22000004025,6,2,263.54499999434,0.4444444444444444,2,object_10,1,1098,0,5,4,library_3,2,memory-2step-stake-s,561,1611644,0.0-19.0-0.0-0.68,A27W025UEXS1G0,371DNNCG57IGA1IMUX7DUPM8OSP8TA,37TRT2X24U78KFIIBHIL85LNS8HBJ2,5,6
69,3,object_04,object_01,540.42999999365,5,1,280.71500000078,0.5555555555555556,1,object_09,1,1103,0,5,4,library_3,2,memory-2step-stake-s,562,1619698,0.0-19.0-0.0-0.69,A27W025UEXS1G0,371DNNCG57IGA1IMUX7DUPM8OSP8TA,37TRT2X24U78KFIIBHIL85LNS8HBJ2,5,6
70,4,object_05,object_03,608.62999997335,8,1,325.98999998299,0.2222222222222222,2,object_10,1,1105,0,6,2,restaurant_8,2,memory-2step-stake-s,563,1627495,0.0-19.0-0.0-0.70,A27W025UEXS1G0,371DNNCG57IGA1IMUX7DUPM8OSP8TA,37TRT2X24U78KFIIBHIL85LNS8HBJ2,8,7
71,3,object_01,object_04,808.40500001796,6,1,311.17000000086,0.3333333333333333,2,object_10,1,1108,0,5,3,library_4,2,memory-2step-stake-s,564,1635409,0.0-19.0-0.0-0.71,A27W025UEXS1G0,371DNNCG57IGA1IMUX7DUPM8OSP8TA,37TRT2X24U78KFIIBHIL85LNS8HBJ2,6,5
72,1,object_06,object_02,740.92499999097,1,1,369.49000001187,0.5555555555555556,1,object_09,5,1133,0,5,3,desert_3,2,memory-2step-stake-s,565,1643581,0.0-19.0-0.0-0.72,A27W025UEXS1G0,371DNNCG57IGA1IMUX7DUPM8OSP8TA,37TRT2X24U78KFIIBHIL85LNS8HBJ2,1,2
73,2,object_07,object_08,673.28499996802,4,2,435.00500003574,0.2222222222222222,2,object_10,5,1143,0,2,2,forest_8,2,memory-2step-stake-s,566,1651495,0.0-19.0-0.0-0.73,A27W025UEXS1G0,371DNNCG57IGA1IMUX7DUPM8OSP8TA,37TRT2X24U78KFIIBHIL85LNS8HBJ2,3,4
74,4,object_03,object_05,467.6750000217,7,1,302.67000000458,0.2222222222222222,1,object_09,1,1145,0,2,3,restaurant_6,2,memory-2step-stake-s,567,1659268,0.0-19.0-0.0-0.74,A27W025UEXS1G0,371DNNCG57IGA1IMUX7DUPM8OSP8TA,37TRT2X24U78KFIIBHIL85LNS8HBJ2,7,8
75,2,object_08,object_07,659.4150000019,4,1,405.71999998065,0.1111111111111111,2,object_10,5,1150,0,5,1,forest_5,2,memory-2step-stake-s,568,1667040,0.0-19.0-0.0-0.75,A27W025UEXS1G0,371DNNCG57IGA1IMUX7DUPM8OSP8TA,37TRT2X24U78KFIIBHIL85LNS8HBJ2,4,3
76,2,object_08,object_07,664.61999999592,3,2,302.34499997459,0.4444444444444444,1,object_09,5,1170,0,4,0,forest_3,2,memory-2step-stake-s,569,1675030,0.0-19.0-0.0-0.76,A27W025UEXS1G0,371DNNCG57IGA1IMUX7DUPM8OSP8TA,37TRT2X24U78KFIIBHIL85LNS8HBJ2,4,3
77,3,object_01,object_04,673.75499999616,6,1,333.28500000061,0.0,2,object_10,1,1170,0,3,0,library_1,2,memory-2step-stake-s,570,1682632,0.0-19.0-0.0-0.77,A27W025UEXS1G0,371DNNCG57IGA1IMUX7DUPM8OSP8TA,37TRT2X24U78KFIIBHIL85LNS8HBJ2,6,5
78,1,object_02,object_06,632.95999995898,1,2,533.76000002027,0.6666666666666666,1,object_09,1,1176,0,6,2,desert_2,2,memory-2step-stake-s,571,1691054,0.0-19.0-0.0-0.78,A27W025UEXS1G0,371DNNCG57IGA1IMUX7DUPM8OSP8TA,37TRT2X24U78KFIIBHIL85LNS8HBJ2,2,1
79,3,object_04,object_01,904.58500001114,5,1,295.29999999795,0.3333333333333333,1,object_09,1,1179,0,3,3,library_4,2,memory-2step-stake-s,572,1698930,0.0-19.0-0.0-0.79,A27W025UEXS1G0,371DNNCG57IGA1IMUX7DUPM8OSP8TA,37TRT2X24U78KFIIBHIL85LNS8HBJ2,5,6
80,4,object_03,object_05,938.18499997724,8,2,476.33500001393,0.3333333333333333,2,object_10,1,1182,0,2,3,restaurant_2,2,memory-2step-stake-s,573,1706989,0.0-19.0-0.0-0.80,A27W025UEXS1G0,371DNNCG57IGA1IMUX7DUPM8OSP8TA,37TRT2X24U78KFIIBHIL85LNS8HBJ2,7,8
81,1,object_02,object_06,715.71000001859,2,1,285.81000003032,0.3333333333333333,2,object_10,1,1185,0,3,3,desert_1,2,memory-2step-stake-s,574,1714830,0.0-19.0-0.0-0.81,A27W025UEXS1G0,371DNNCG57IGA1IMUX7DUPM8OSP8TA,37TRT2X24U78KFIIBHIL85LNS8HBJ2,2,1
82,4,object_03,object_05,813.32499999553,7,1,294.09999999916,0.4444444444444444,1,object_09,1,1189,0,4,2,restaurant_2,2,memory-2step-stake-s,575,1722803,0.0-19.0-0.0-0.82,A27W025UEXS1G0,371DNNCG57IGA1IMUX7DUPM8OSP8TA,37TRT2X24U78KFIIBHIL85LNS8HBJ2,7,8
83,1,object_02,object_06,794.21000002185,1,2,311.90500000957,0.7777777777777778,1,object_09,5,1224,0,7,1,desert_3,2,memory-2step-stake-s,576,1731117,0.0-19.0-0.0-0.83,A27W025UEXS1G0,371DNNCG57IGA1IMUX7DUPM8OSP8TA,37TRT2X24U78KFIIBHIL85LNS8HBJ2,2,1
84,1,object_06,object_02,842.72000001511,1,1,302.19000001671,0.8888888888888888,1,object_09,5,1264,0,8,2,desert_1,2,memory-2step-stake-s,577,1739481,0.0-19.0-0.0-0.84,A27W025UEXS1G0,371DNNCG57IGA1IMUX7DUPM8OSP8TA,37TRT2X24U78KFIIBHIL85LNS8HBJ2,1,2
85,3,object_04,object_01,1009.9699999555,5,1,280.42500000447,1.0,1,object_09,5,1309,0,9,3,library_8,2,memory-2step-stake-s,578,1747969,0.0-19.0-0.0-0.85,A27W025UEXS1G0,371DNNCG57IGA1IMUX7DUPM8OSP8TA,37TRT2X24U78KFIIBHIL85LNS8HBJ2,5,6
86,1,object_02,object_06,730.71500001242,1,2,353.90500002541,0.8888888888888888,1,object_09,5,1349,0,8,1,desert_8,2,memory-2step-stake-s,579,1756412,0.0-19.0-0.0-0.86,A27W025UEXS1G0,371DNNCG57IGA1IMUX7DUPM8OSP8TA,37TRT2X24U78KFIIBHIL85LNS8HBJ2,2,1
87,1,object_06,object_02,648.76000001095,1,1,274.2300000391,0.6666666666666666,1,object_09,5,1379,0,6,2,desert_3,2,memory-2step-stake-s,580,1764572,0.0-19.0-0.0-0.87,A27W025UEXS1G0,371DNNCG57IGA1IMUX7DUPM8OSP8TA,37TRT2X24U78KFIIBHIL85LNS8HBJ2,1,2
88,4,object_05,object_03,393.30499997595,8,1,261.3850000198,0.5555555555555556,2,object_10,1,1384,0,5,5,restaurant_3,2,memory-2step-stake-s,581,1772623,0.0-19.0-0.0-0.88,A27W025UEXS1G0,371DNNCG57IGA1IMUX7DUPM8OSP8TA,37TRT2X24U78KFIIBHIL85LNS8HBJ2,8,7
89,1,object_02,object_06,810.04000001121,1,2,264.59000003524,0.5555555555555556,1,object_09,5,1409,0,5,3,desert_1,2,memory-2step-stake-s,582,1780678,0.0-19.0-0.0-0.89,A27W025UEXS1G0,371DNNCG57IGA1IMUX7DUPM8OSP8TA,37TRT2X24U78KFIIBHIL85LNS8HBJ2,2,1
90,4,object_03,object_05,401.03500004625,7,1,318.38999997126,0.8888888888888888,1,object_09,1,1417,0,8,2,restaurant_2,2,memory-2step-stake-s,583,1789095,0.0-19.0-0.0-0.90,A27W025UEXS1G0,371DNNCG57IGA1IMUX7DUPM8OSP8TA,37TRT2X24U78KFIIBHIL85LNS8HBJ2,7,8
91,2,object_08,object_07,705.4599999683,4,1,265.23000001907,0.2222222222222222,2,object_10,5,1427,0,6,2,forest_8,2,memory-2step-stake-s,584,1796830,0.0-19.0-0.0-0.91,A27W025UEXS1G0,371DNNCG57IGA1IMUX7DUPM8OSP8TA,37TRT2X24U78KFIIBHIL85LNS8HBJ2,4,3
92,3,object_01,object_04,665.76499998337,6,1,410.02000001026,0.6666666666666666,2,object_10,1,1433,0,5,6,library_4,2,memory-2step-stake-s,585,1805097,0.0-19.0-0.0-0.92,A27W025UEXS1G0,371DNNCG57IGA1IMUX7DUPM8OSP8TA,37TRT2X24U78KFIIBHIL85LNS8HBJ2,6,5
93,4,object_05,object_03,961.94499998819,8,1,302.25500004599,0.5555555555555556,2,object_10,5,1458,0,6,5,restaurant_6,2,memory-2step-stake-s,586,1813189,0.0-19.0-0.0-0.93,A27W025UEXS1G0,371DNNCG57IGA1IMUX7DUPM8OSP8TA,37TRT2X24U78KFIIBHIL85LNS8HBJ2,8,7
94,1,object_02,object_06,1104.4349999866,1,2,402.05500001321,0.3333333333333333,1,object_09,5,1473,0,3,3,desert_3,2,memory-2step-stake-s,587,1821185,0.0-19.0-0.0-0.94,A27W025UEXS1G0,371DNNCG57IGA1IMUX7DUPM8OSP8TA,37TRT2X24U78KFIIBHIL85LNS8HBJ2,2,1
95,4,object_03,object_05,466.99500002433,7,1,394.71999998204,0.3333333333333333,1,object_09,1,1476,0,3,2,restaurant_6,2,memory-2step-stake-s,588,1829150,0.0-19.0-0.0-0.95,A27W025UEXS1G0,371DNNCG57IGA1IMUX7DUPM8OSP8TA,37TRT2X24U78KFIIBHIL85LNS8HBJ2,7,8
96,1,object_02,object_06,839.00999999605,2,1,314.42499998957,0.1111111111111111,2,object_10,5,1481,0,6,1,desert_1,2,memory-2step-stake-s,589,1836827,0.0-19.0-0.0-0.96,A27W025UEXS1G0,371DNNCG57IGA1IMUX7DUPM8OSP8TA,37TRT2X24U78KFIIBHIL85LNS8HBJ2,2,1
97,2,object_08,object_07,960.73000004981,3,2,321.72999996692,0.8888888888888888,1,object_09,5,1521,0,8,1,forest_1,2,memory-2step-stake-s,590,1845227,0.0-19.0-0.0-0.97,A27W025UEXS1G0,371DNNCG57IGA1IMUX7DUPM8OSP8TA,37TRT2X24U78KFIIBHIL85LNS8HBJ2,4,3
98,3,object_01,object_04,1253.8300000015,5,2,325.47500001965,0.7777777777777778,1,object_09,5,1556,0,7,3,library_1,2,memory-2step-stake-s,591,1853557,0.0-19.0-0.0-0.98,A27W025UEXS1G0,371DNNCG57IGA1IMUX7DUPM8OSP8TA,37TRT2X24U78KFIIBHIL85LNS8HBJ2,6,5
99,3,object_01,object_04,577.55500002531,6,1,264.52500000596,0.5555555555555556,2,object_10,1,1561,0,5,5,library_1,2,memory-2step-stake-s,592,1861608,0.0-19.0-0.0-0.99,A27W025UEXS1G0,371DNNCG57IGA1IMUX7DUPM8OSP8TA,37TRT2X24U78KFIIBHIL85LNS8HBJ2,6,5
100,1,object_06,object_02,813.20499995491,1,1,301.53000005521,0.2222222222222222,1,object_09,5,1571,0,2,8,desert_1,2,memory-2step-stake-s,593,1869360,0.0-19.0-0.0-0.100,A27W025UEXS1G0,371DNNCG57IGA1IMUX7DUPM8OSP8TA,37TRT2X24U78KFIIBHIL85LNS8HBJ2,1,2
101,4,object_03,object_05,598.04999997141,7,1,454.64499999071,0.4444444444444444,1,object_09,1,1575,0,4,8,restaurant_6,2,memory-2step-stake-s,594,1877492,0.0-19.0-0.0-0.101,A27W025UEXS1G0,371DNNCG57IGA1IMUX7DUPM8OSP8TA,37TRT2X24U78KFIIBHIL85LNS8HBJ2,7,8
102,2,object_08,object_07,645.16499999445,4,1,290.94999999506,1.0,2,object_10,5,1620,0,2,9,forest_1,2,memory-2step-stake-s,595,1885966,0.0-19.0-0.0-0.102,A27W025UEXS1G0,371DNNCG57IGA1IMUX7DUPM8OSP8TA,37TRT2X24U78KFIIBHIL85LNS8HBJ2,4,3
103,1,object_02,object_06,1136.7949999985,2,1,398.0299999821,0.7777777777777778,2,object_10,5,1655,0,1,7,desert_3,2,memory-2step-stake-s,596,1894346,0.0-19.0-0.0-0.103,A27W025UEXS1G0,371DNNCG57IGA1IMUX7DUPM8OSP8TA,37TRT2X24U78KFIIBHIL85LNS8HBJ2,2,1
104,4,object_03,object_05,963.23999995366,8,2,325.61500003794,0.7777777777777778,2,object_10,5,1690,0,1,7,restaurant_3,2,memory-2step-stake-s,597,1902667,0.0-19.0-0.0-0.104,A27W025UEXS1G0,371DNNCG57IGA1IMUX7DUPM8OSP8TA,37TRT2X24U78KFIIBHIL85LNS8HBJ2,7,8
105,4,object_05,object_03,938.1450000219,8,1,401.44000004511,0.6666666666666666,2,object_10,5,1720,0,2,6,restaurant_2,2,memory-2step-stake-s,598,1910969,0.0-19.0-0.0-0.105,A27W025UEXS1G0,371DNNCG57IGA1IMUX7DUPM8OSP8TA,37TRT2X24U78KFIIBHIL85LNS8HBJ2,8,7
106,4,object_03,object_05,506.46500004223,7,1,348.14000001643,0.6666666666666666,1,object_09,1,1726,0,6,8,restaurant_6,2,memory-2step-stake-s,599,1919176,0.0-19.0-0.0-0.106,A27W025UEXS1G0,371DNNCG57IGA1IMUX7DUPM8OSP8TA,37TRT2X24U78KFIIBHIL85LNS8HBJ2,7,8
107,1,object_02,object_06,721.14999999758,2,1,267.69499998773,1.0,2,object_10,5,1771,0,6,9,desert_8,2,memory-2step-stake-s,600,1927638,0.0-19.0-0.0-0.107,A27W025UEXS1G0,371DNNCG57IGA1IMUX7DUPM8OSP8TA,37TRT2X24U78KFIIBHIL85LNS8HBJ2,2,1
108,2,object_08,object_07,750.65500003984,4,1,335.96500003478,0.7777777777777778,2,object_10,5,1806,0,5,7,forest_3,2,memory-2step-stake-s,601,1935969,0.0-19.0-0.0-0.108,A27W025UEXS1G0,371DNNCG57IGA1IMUX7DUPM8OSP8TA,37TRT2X24U78KFIIBHIL85LNS8HBJ2,4,3
109,3,object_04,object_01,498.26000002213,6,2,231.28000000725,0.7777777777777778,2,object_10,1,1813,0,6,7,library_3,2,memory-2step-stake-s,602,1944197,0.0-19.0-0.0-0.109,A27W025UEXS1G0,371DNNCG57IGA1IMUX7DUPM8OSP8TA,37TRT2X24U78KFIIBHIL85LNS8HBJ2,5,6
110,2,object_07,object_08,907.38499996951,4,2,391.04999997653,0.8888888888888888,2,object_10,5,1853,0,4,8,forest_8,2,memory-2step-stake-s,603,1952687,0.0-19.0-0.0-0.110,A27W025UEXS1G0,371DNNCG57IGA1IMUX7DUPM8OSP8TA,37TRT2X24U78KFIIBHIL85LNS8HBJ2,3,4
111,1,object_02,object_06,749.83500002418,1,2,326.69499999611,0.5555555555555556,1,object_09,5,1878,0,5,9,desert_3,2,memory-2step-stake-s,604,1960792,0.0-19.0-0.0-0.111,A27W025UEXS1G0,371DNNCG57IGA1IMUX7DUPM8OSP8TA,37TRT2X24U78KFIIBHIL85LNS8HBJ2,2,1
112,4,object_03,object_05,611.10499995993,7,1,389.22000001185,0.5555555555555556,1,object_09,1,1883,0,5,9,restaurant_8,2,memory-2step-stake-s,605,1968965,0.0-19.0-0.0-0.112,A27W025UEXS1G0,371DNNCG57IGA1IMUX7DUPM8OSP8TA,37TRT2X24U78KFIIBHIL85LNS8HBJ2,7,8
113,4,object_05,object_03,463.22999999393,8,1,302.46499995701,0.8888888888888888,2,object_10,1,1891,0,6,8,restaurant_6,2,memory-2step-stake-s,606,1977366,0.0-19.0-0.0-0.113,A27W025UEXS1G0,371DNNCG57IGA1IMUX7DUPM8OSP8TA,37TRT2X24U78KFIIBHIL85LNS8HBJ2,8,7
114,1,object_02,object_06,853.2450000057,1,2,333.53000000352,0.6666666666666666,1,object_09,5,1921,0,6,8,desert_3,2,memory-2step-stake-s,607,1985579,0.0-19.0-0.0-0.114,A27W025UEXS1G0,371DNNCG57IGA1IMUX7DUPM8OSP8TA,37TRT2X24U78KFIIBHIL85LNS8HBJ2,2,1
115,2,object_07,object_08,851.30499996012,4,2,326.93499996094,0.5555555555555556,2,object_10,5,1946,0,5,5,forest_1,2,memory-2step-stake-s,608,1993672,0.0-19.0-0.0-0.115,A27W025UEXS1G0,371DNNCG57IGA1IMUX7DUPM8OSP8TA,37TRT2X24U78KFIIBHIL85LNS8HBJ2,3,4
116,3,object_04,object_01,671.16500000702,5,1,279.29999999469,0.3333333333333333,1,object_09,5,1961,0,3,5,library_3,2,memory-2step-stake-s,609,2001540,0.0-19.0-0.0-0.116,A27W025UEXS1G0,371DNNCG57IGA1IMUX7DUPM8OSP8TA,37TRT2X24U78KFIIBHIL85LNS8HBJ2,5,6
117,1,object_02,object_06,629.73499996588,2,1,298.68000000715,0.6666666666666666,2,object_10,1,1967,0,7,6,desert_2,2,memory-2step-stake-s,610,2009752,0.0-19.0-0.0-0.117,A27W025UEXS1G0,371DNNCG57IGA1IMUX7DUPM8OSP8TA,37TRT2X24U78KFIIBHIL85LNS8HBJ2,2,1
118,3,object_04,object_01,732.81000001589,6,2,313.13500000397,0.6666666666666666,2,object_10,5,1997,0,5,6,library_3,2,memory-2step-stake-s,611,2017959,0.0-19.0-0.0-0.118,A27W025UEXS1G0,371DNNCG57IGA1IMUX7DUPM8OSP8TA,37TRT2X24U78KFIIBHIL85LNS8HBJ2,5,6
119,3,object_01,object_04,774.17999994941,6,1,312.19500000589,0.3333333333333333,2,object_10,5,2012,0,9,3,library_4,2,memory-2step-stake-s,612,2025841,0.0-19.0-0.0-0.119,A27W025UEXS1G0,371DNNCG57IGA1IMUX7DUPM8OSP8TA,37TRT2X24U78KFIIBHIL85LNS8HBJ2,6,5
120,4,object_05,object_03,909.91500002565,8,1,356.78500001086,0.2222222222222222,2,object_10,5,2022,0,6,2,restaurant_2,2,memory-2step-stake-s,613,2033666,0.0-19.0-0.0-0.120,A27W025UEXS1G0,371DNNCG57IGA1IMUX7DUPM8OSP8TA,37TRT2X24U78KFIIBHIL85LNS8HBJ2,8,7
121,1,object_02,object_06,674.33500004699,1,2,347.30500000296,0.3333333333333333,1,object_09,5,2037,0,3,2,desert_2,2,memory-2step-stake-s,614,2041575,0.0-19.0-0.0-0.121,A27W025UEXS1G0,371DNNCG57IGA1IMUX7DUPM8OSP8TA,37TRT2X24U78KFIIBHIL85LNS8HBJ2,2,1
122,4,object_05,object_03,556.31499999436,8,1,300.75499997474,0.3333333333333333,2,object_10,1,2040,0,0,3,restaurant_8,2,memory-2step-stake-s,615,2049458,0.0-19.0-0.0-0.122,A27W025UEXS1G0,371DNNCG57IGA1IMUX7DUPM8OSP8TA,37TRT2X24U78KFIIBHIL85LNS8HBJ2,8,7
123,2,object_08,object_07,936.04499998037,4,1,292.10999998031,0.4444444444444444,2,object_10,5,2060,0,2,4,forest_8,2,memory-2step-stake-s,616,2057405,0.0-19.0-0.0-0.123,A27W025UEXS1G0,371DNNCG57IGA1IMUX7DUPM8OSP8TA,37TRT2X24U78KFIIBHIL85LNS8HBJ2,4,3
124,4,object_05,object_03,924.0399999544,7,2,426.38499999885,0.2222222222222222,1,object_09,5,2070,0,2,3,restaurant_3,2,memory-2step-stake-s,617,2065311,0.0-19.0-0.0-0.124,A27W025UEXS1G0,371DNNCG57IGA1IMUX7DUPM8OSP8TA,37TRT2X24U78KFIIBHIL85LNS8HBJ2,8,7
125,4,object_05,object_03,836.17999998387,8,1,305.72000000393,0.2222222222222222,2,object_10,1,2072,0,4,2,restaurant_6,2,memory-2step-stake-s,618,2073082,0.0-19.0-0.0-0.125,A27W025UEXS1G0,371DNNCG57IGA1IMUX7DUPM8OSP8TA,37TRT2X24U78KFIIBHIL85LNS8HBJ2,8,7
126,4,object_05,object_03,817.02000001678,8,1,323.4999999986,0.4444444444444444,2,object_10,5,2092,0,1,4,restaurant_8,2,memory-2step-stake-s,619,2081080,0.0-19.0-0.0-0.126,A27W025UEXS1G0,371DNNCG57IGA1IMUX7DUPM8OSP8TA,37TRT2X24U78KFIIBHIL85LNS8HBJ2,8,7
127,2,object_08,object_07,1142.8749999614,4,1,298.52000001119,0.4444444444444444,2,object_10,5,2112,0,2,4,forest_5,2,memory-2step-stake-s,620,2089067,0.0-19.0-0.0-0.127,A27W025UEXS1G0,371DNNCG57IGA1IMUX7DUPM8OSP8TA,37TRT2X24U78KFIIBHIL85LNS8HBJ2,4,3
128,3,object_01,object_04,1216.9349999749,6,1,358.27999998583,0.6666666666666666,2,object_10,1,2118,0,6,6,library_8,2,memory-2step-stake-s,622,2185691,0.0-19.0-0.1-0.128,A27W025UEXS1G0,371DNNCG57IGA1IMUX7DUPM8OSP8TA,37TRT2X24U78KFIIBHIL85LNS8HBJ2,6,5
129,2,object_07,object_08,805.04999996629,4,2,331.17499999935,0.3333333333333333,2,object_10,5,2133,0,9,3,forest_3,2,memory-2step-stake-s,623,2193601,0.0-19.0-0.1-0.129,A27W025UEXS1G0,371DNNCG57IGA1IMUX7DUPM8OSP8TA,37TRT2X24U78KFIIBHIL85LNS8HBJ2,3,4
130,4,object_05,object_03,745.65499997698,8,1,411.60500003025,0.1111111111111111,2,object_10,5,2138,0,8,1,restaurant_6,2,memory-2step-stake-s,624,2201372,0.0-19.0-0.1-0.130,A27W025UEXS1G0,371DNNCG57IGA1IMUX7DUPM8OSP8TA,37TRT2X24U78KFIIBHIL85LNS8HBJ2,8,7
131,4,object_03,object_05,642.25500001339,7,1,362.7849999466,0.7777777777777778,1,object_09,1,2145,0,7,1,restaurant_8,2,memory-2step-stake-s,625,2209750,0.0-19.0-0.1-0.131,A27W025UEXS1G0,371DNNCG57IGA1IMUX7DUPM8OSP8TA,37TRT2X24U78KFIIBHIL85LNS8HBJ2,7,8
132,2,object_07,object_08,985.50499998964,3,1,272.27499999572,0.7777777777777778,1,object_09,5,2180,0,7,0,forest_3,2,memory-2step-stake-s,626,2218004,0.0-19.0-0.1-0.132,A27W025UEXS1G0,371DNNCG57IGA1IMUX7DUPM8OSP8TA,37TRT2X24U78KFIIBHIL85LNS8HBJ2,3,4
133,3,object_04,object_01,669.88499998115,6,2,292.36000002129,0.1111111111111111,2,object_10,1,2181,0,7,1,library_1,2,memory-2step-stake-s,627,2225682,0.0-19.0-0.1-0.133,A27W025UEXS1G0,371DNNCG57IGA1IMUX7DUPM8OSP8TA,37TRT2X24U78KFIIBHIL85LNS8HBJ2,5,6
134,4,object_05,object_03,491.71999999089,8,1,343.10000005644,0.3333333333333333,2,object_10,1,2184,0,7,3,restaurant_3,2,memory-2step-stake-s,628,2233599,0.0-19.0-0.1-0.134,A27W025UEXS1G0,371DNNCG57IGA1IMUX7DUPM8OSP8TA,37TRT2X24U78KFIIBHIL85LNS8HBJ2,8,7
135,4,object_03,object_05,757.89500004612,7,1,409.85500003444,0.8888888888888888,1,object_09,1,2192,0,8,4,restaurant_6,2,memory-2step-stake-s,629,2242104,0.0-19.0-0.1-0.135,A27W025UEXS1G0,371DNNCG57IGA1IMUX7DUPM8OSP8TA,37TRT2X24U78KFIIBHIL85LNS8HBJ2,7,8
136,3,object_04,object_01,481.64499999257,5,1,282.62499999255,0.8888888888888888,1,object_09,1,2200,0,8,4,library_4,2,memory-2step-stake-s,630,2250475,0.0-19.0-0.1-0.136,A27W025UEXS1G0,371DNNCG57IGA1IMUX7DUPM8OSP8TA,37TRT2X24U78KFIIBHIL85LNS8HBJ2,5,6
137,2,object_07,object_08,889.55500000156,3,1,289.27499998827,0.7777777777777778,1,object_09,5,2235,0,7,6,forest_1,2,memory-2step-stake-s,631,2258765,0.0-19.0-0.1-0.137,A27W025UEXS1G0,371DNNCG57IGA1IMUX7DUPM8OSP8TA,37TRT2X24U78KFIIBHIL85LNS8HBJ2,3,4
138,2,object_07,object_08,619.26999996649,3,1,293.95000002114,0.7777777777777778,1,object_09,1,2242,0,7,4,forest_1,2,memory-2step-stake-s,632,2267062,0.0-19.0-0.1-0.138,A27W025UEXS1G0,371DNNCG57IGA1IMUX7DUPM8OSP8TA,37TRT2X24U78KFIIBHIL85LNS8HBJ2,3,4
139,1,object_02,object_06,738.6149999802,1,2,324.69999999739,0.8888888888888888,1,object_09,1,2250,0,8,4,desert_8,2,memory-2step-stake-s,633,2275499,0.0-19.0-0.1-0.139,A27W025UEXS1G0,371DNNCG57IGA1IMUX7DUPM8OSP8TA,37TRT2X24U78KFIIBHIL85LNS8HBJ2,2,1
140,1,object_06,object_02,519.26500000991,1,1,464.57499999087,1.0,1,object_09,1,2259,0,9,5,desert_1,2,memory-2step-stake-s,634,2284158,0.0-19.0-0.1-0.140,A27W025UEXS1G0,371DNNCG57IGA1IMUX7DUPM8OSP8TA,37TRT2X24U78KFIIBHIL85LNS8HBJ2,1,2
141,3,object_01,object_04,695.16000000294,5,2,7.8750000102445,0.8888888888888888,1,object_09,1,2267,0,8,7,library_8,2,memory-2step-stake-s,635,2292251,0.0-19.0-0.1-0.141,A27W025UEXS1G0,371DNNCG57IGA1IMUX7DUPM8OSP8TA,37TRT2X24U78KFIIBHIL85LNS8HBJ2,6,5
142,2,object_08,object_07,865.68499996793,3,2,337.78000000166,0.8888888888888888,1,object_09,5,2307,0,8,7,forest_1,2,memory-2step-stake-s,636,2300698,0.0-19.0-0.1-0.142,A27W025UEXS1G0,371DNNCG57IGA1IMUX7DUPM8OSP8TA,37TRT2X24U78KFIIBHIL85LNS8HBJ2,4,3
143,4,object_05,object_03,594.71999999369,8,1,318.87000001734,0.7777777777777778,2,object_10,1,2314,0,8,7,restaurant_2,2,memory-2step-stake-s,637,2308997,0.0-19.0-0.1-0.143,A27W025UEXS1G0,371DNNCG57IGA1IMUX7DUPM8OSP8TA,37TRT2X24U78KFIIBHIL85LNS8HBJ2,8,7
144,3,object_01,object_04,651.56000002753,5,2,314.94499999098,0.8888888888888888,1,object_09,1,2322,0,8,3,library_1,2,memory-2step-stake-s,638,2317411,0.0-19.0-0.1-0.144,A27W025UEXS1G0,371DNNCG57IGA1IMUX7DUPM8OSP8TA,37TRT2X24U78KFIIBHIL85LNS8HBJ2,6,5
145,3,object_04,object_01,436.00000004517,5,1,396.9700000016,0.7777777777777778,1,object_09,1,2329,0,7,5,library_8,2,memory-2step-stake-s,639,2325791,0.0-19.0-0.1-0.145,A27W025UEXS1G0,371DNNCG57IGA1IMUX7DUPM8OSP8TA,37TRT2X24U78KFIIBHIL85LNS8HBJ2,5,6
146,4,object_05,object_03,978.97999995621,7,2,142.27499999106,0.3333333333333333,1,object_09,1,2332,0,3,5,restaurant_2,2,memory-2step-stake-s,640,2333505,0.0-19.0-0.1-0.146,A27W025UEXS1G0,371DNNCG57IGA1IMUX7DUPM8OSP8TA,37TRT2X24U78KFIIBHIL85LNS8HBJ2,8,7
147,4,object_05,object_03,420.5850000144,8,1,316.83500000509,0.6666666666666666,2,object_10,1,2338,0,3,6,restaurant_3,2,memory-2step-stake-s,641,2341709,0.0-19.0-0.1-0.147,A27W025UEXS1G0,371DNNCG57IGA1IMUX7DUPM8OSP8TA,37TRT2X24U78KFIIBHIL85LNS8HBJ2,8,7
148,1,object_02,object_06,702.63499999419,1,2,327.01499998802,0.2222222222222222,1,object_09,5,2348,0,2,9,desert_2,2,memory-2step-stake-s,642,2349522,0.0-19.0-0.1-0.148,A27W025UEXS1G0,371DNNCG57IGA1IMUX7DUPM8OSP8TA,37TRT2X24U78KFIIBHIL85LNS8HBJ2,2,1
149,4,object_03,object_05,416.74499999499,7,1,320.13000000734,0.0,1,object_09,1,2348,0,0,9,restaurant_6,2,memory-2step-stake-s,643,2357116,0.0-19.0-0.1-0.149,A27W025UEXS1G0,371DNNCG57IGA1IMUX7DUPM8OSP8TA,37TRT2X24U78KFIIBHIL85LNS8HBJ2,7,8
150,3,object_04,object_01,751.44999998156,6,2,378.8099999656,0.8888888888888888,2,object_10,1,2356,0,0,8,library_8,2,memory-2step-stake-s,644,2365588,0.0-19.0-0.1-0.150,A27W025UEXS1G0,371DNNCG57IGA1IMUX7DUPM8OSP8TA,37TRT2X24U78KFIIBHIL85LNS8HBJ2,5,6
151,3,object_04,object_01,693.40500002727,6,2,317.75000004563,0.7777777777777778,2,object_10,1,2363,0,4,7,library_3,2,memory-2step-stake-s,645,2373895,0.0-19.0-0.1-0.151,A27W025UEXS1G0,371DNNCG57IGA1IMUX7DUPM8OSP8TA,37TRT2X24U78KFIIBHIL85LNS8HBJ2,5,6
152,3,object_04,object_01,835.74999996927,6,2,287.54499997012,0.5555555555555556,2,object_10,5,2388,0,3,5,library_1,2,memory-2step-stake-s,646,2381984,0.0-19.0-0.1-0.152,A27W025UEXS1G0,371DNNCG57IGA1IMUX7DUPM8OSP8TA,37TRT2X24U78KFIIBHIL85LNS8HBJ2,5,6
153,1,object_06,object_02,805.91999995522,1,1,317.64500000281,0.4444444444444444,1,object_09,5,2408,0,4,6,desert_1,2,memory-2step-stake-s,647,2389980,0.0-19.0-0.1-0.153,A27W025UEXS1G0,371DNNCG57IGA1IMUX7DUPM8OSP8TA,37TRT2X24U78KFIIBHIL85LNS8HBJ2,1,2
154,1,object_06,object_02,741.00999999791,2,2,323.90499999747,0.6666666666666666,2,object_10,5,2438,0,2,6,desert_2,2,memory-2step-stake-s,648,2398199,0.0-19.0-0.1-0.154,A27W025UEXS1G0,371DNNCG57IGA1IMUX7DUPM8OSP8TA,37TRT2X24U78KFIIBHIL85LNS8HBJ2,1,2
155,3,object_04,object_01,905.09999997448,5,1,305.38999999408,0.2222222222222222,1,object_09,1,2440,0,2,8,library_3,2,memory-2step-stake-s,649,2405974,0.0-19.0-0.1-0.155,A27W025UEXS1G0,371DNNCG57IGA1IMUX7DUPM8OSP8TA,37TRT2X24U78KFIIBHIL85LNS8HBJ2,5,6
156,1,object_02,object_06,1110.2049999754,2,1,339.77000002051,0.8888888888888888,2,object_10,5,2480,0,1,8,desert_1,2,memory-2step-stake-s,650,2414423,0.0-19.0-0.1-0.156,A27W025UEXS1G0,371DNNCG57IGA1IMUX7DUPM8OSP8TA,37TRT2X24U78KFIIBHIL85LNS8HBJ2,2,1
157,2,object_07,object_08,767.47500000056,3,1,284.93000002345,0.2222222222222222,1,object_09,5,2490,0,2,7,forest_5,2,memory-2step-stake-s,651,2422183,0.0-19.0-0.1-0.157,A27W025UEXS1G0,371DNNCG57IGA1IMUX7DUPM8OSP8TA,37TRT2X24U78KFIIBHIL85LNS8HBJ2,3,4
158,4,object_05,object_03,1003.0299999635,7,2,314.72500000382,0.2222222222222222,1,object_09,1,2492,0,2,6,restaurant_2,2,memory-2step-stake-s,652,2429947,0.0-19.0-0.1-0.158,A27W025UEXS1G0,371DNNCG57IGA1IMUX7DUPM8OSP8TA,37TRT2X24U78KFIIBHIL85LNS8HBJ2,8,7
159,3,object_01,object_04,765.97500004573,6,1,326.84500003234,0.8888888888888888,2,object_10,1,2500,0,2,8,library_8,2,memory-2step-stake-s,653,2438389,0.0-19.0-0.1-0.159,A27W025UEXS1G0,371DNNCG57IGA1IMUX7DUPM8OSP8TA,37TRT2X24U78KFIIBHIL85LNS8HBJ2,6,5
160,3,object_01,object_04,1053.0799999833,6,1,382.36499996856,0.8888888888888888,2,object_10,5,2540,0,2,8,library_8,2,memory-2step-stake-s,654,2446872,0.0-19.0-0.1-0.160,A27W025UEXS1G0,371DNNCG57IGA1IMUX7DUPM8OSP8TA,37TRT2X24U78KFIIBHIL85LNS8HBJ2,6,5
161,1,object_02,object_06,1049.1949999705,2,1,310.86000002688,0.6666666666666666,2,object_10,5,2570,0,1,6,desert_8,2,memory-2step-stake-s,655,2455071,0.0-19.0-0.1-0.161,A27W025UEXS1G0,371DNNCG57IGA1IMUX7DUPM8OSP8TA,37TRT2X24U78KFIIBHIL85LNS8HBJ2,2,1
162,4,object_05,object_03,845.88999999687,8,1,251.64000003133,0.6666666666666666,2,object_10,1,2576,0,3,6,restaurant_8,2,memory-2step-stake-s,656,2463212,0.0-19.0-0.1-0.162,A27W025UEXS1G0,371DNNCG57IGA1IMUX7DUPM8OSP8TA,37TRT2X24U78KFIIBHIL85LNS8HBJ2,8,7
163,2,object_07,object_08,790.18499999074,4,2,285.91000003507,0.6666666666666666,2,object_10,5,2606,0,1,6,forest_1,2,memory-2step-stake-s,657,2471375,0.0-19.0-0.1-0.163,A27W025UEXS1G0,371DNNCG57IGA1IMUX7DUPM8OSP8TA,37TRT2X24U78KFIIBHIL85LNS8HBJ2,3,4
164,2,object_08,object_07,664.15500000585,4,1,288.89999998501,0.2222222222222222,2,object_10,5,2616,0,2,2,forest_8,2,memory-2step-stake-s,658,2479135,0.0-19.0-0.1-0.164,A27W025UEXS1G0,371DNNCG57IGA1IMUX7DUPM8OSP8TA,37TRT2X24U78KFIIBHIL85LNS8HBJ2,4,3
165,3,object_01,object_04,730.27499997988,5,2,278.29500002554,0.4444444444444444,1,object_09,1,2620,0,4,2,library_8,2,memory-2step-stake-s,659,2487111,0.0-19.0-0.1-0.165,A27W025UEXS1G0,371DNNCG57IGA1IMUX7DUPM8OSP8TA,37TRT2X24U78KFIIBHIL85LNS8HBJ2,6,5
166,1,object_06,object_02,1057.9349999898,1,1,274.40500003286,0.5555555555555556,1,object_09,5,2645,0,5,0,desert_8,2,memory-2step-stake-s,660,2495175,0.0-19.0-0.1-0.166,A27W025UEXS1G0,371DNNCG57IGA1IMUX7DUPM8OSP8TA,37TRT2X24U78KFIIBHIL85LNS8HBJ2,1,2
167,2,object_08,object_07,842.30000001844,4,1,146.06499997899,0.0,2,object_10,1,2645,0,2,0,forest_5,2,memory-2step-stake-s,661,2502576,0.0-19.0-0.1-0.167,A27W025UEXS1G0,371DNNCG57IGA1IMUX7DUPM8OSP8TA,37TRT2X24U78KFIIBHIL85LNS8HBJ2,4,3
168,4,object_05,object_03,988.78000001423,7,2,341.3700000383,0.3333333333333333,1,object_09,1,2648,0,3,0,restaurant_2,2,memory-2step-stake-s,662,2510496,0.0-19.0-0.1-0.168,A27W025UEXS1G0,371DNNCG57IGA1IMUX7DUPM8OSP8TA,37TRT2X24U78KFIIBHIL85LNS8HBJ2,8,7
169,3,object_04,object_01,1260.4249999858,5,1,379.09999996191,0.0,1,object_09,5,2648,0,0,2,library_4,2,memory-2step-stake-s,663,2518139,0.0-19.0-0.1-0.169,A27W025UEXS1G0,371DNNCG57IGA1IMUX7DUPM8OSP8TA,37TRT2X24U78KFIIBHIL85LNS8HBJ2,5,6
170,1,object_06,object_02,793.87500003213,2,2,295.64999998547,0.1111111111111111,2,object_10,5,2653,0,1,1,desert_8,2,memory-2step-stake-s,664,2525804,0.0-19.0-0.1-0.170,A27W025UEXS1G0,371DNNCG57IGA1IMUX7DUPM8OSP8TA,37TRT2X24U78KFIIBHIL85LNS8HBJ2,1,2
171,3,object_04,object_01,619.19999995735,5,1,358.86000003666,0.1111111111111111,1,object_09,1,2654,0,1,2,library_4,2,memory-2step-stake-s,665,2533525,0.0-19.0-0.1-0.171,A27W025UEXS1G0,371DNNCG57IGA1IMUX7DUPM8OSP8TA,37TRT2X24U78KFIIBHIL85LNS8HBJ2,5,6
172,1,object_06,object_02,839.06999998726,1,1,337.25500002038,0.1111111111111111,1,object_09,5,2659,0,1,1,desert_3,2,memory-2step-stake-s,666,2541230,0.0-19.0-0.1-0.172,A27W025UEXS1G0,371DNNCG57IGA1IMUX7DUPM8OSP8TA,37TRT2X24U78KFIIBHIL85LNS8HBJ2,1,2
173,1,object_06,object_02,636.25999999931,2,2,345.12000001268,0.2222222222222222,2,object_10,5,2669,0,2,2,desert_1,2,memory-2step-stake-s,667,2549045,0.0-19.0-0.1-0.173,A27W025UEXS1G0,371DNNCG57IGA1IMUX7DUPM8OSP8TA,37TRT2X24U78KFIIBHIL85LNS8HBJ2,1,2
174,1,object_06,object_02,752.84500000998,2,2,341.01999999257,0.2222222222222222,2,object_10,5,2679,0,1,2,desert_8,2,memory-2step-stake-s,668,2556860,0.0-19.0-0.1-0.174,A27W025UEXS1G0,371DNNCG57IGA1IMUX7DUPM8OSP8TA,37TRT2X24U78KFIIBHIL85LNS8HBJ2,1,2
175,4,object_05,object_03,428.4050000133,8,1,313.25000000652,0.2222222222222222,2,object_10,1,2681,0,2,2,restaurant_3,2,memory-2step-stake-s,669,2564661,0.0-19.0-0.1-0.175,A27W025UEXS1G0,371DNNCG57IGA1IMUX7DUPM8OSP8TA,37TRT2X24U78KFIIBHIL85LNS8HBJ2,8,7
176,1,object_06,object_02,319.32499998948,2,2,328.20499996888,0.3333333333333333,2,object_10,1,2684,0,3,3,desert_8,2,memory-2step-stake-s,670,2572560,0.0-19.0-0.1-0.176,A27W025UEXS1G0,371DNNCG57IGA1IMUX7DUPM8OSP8TA,37TRT2X24U78KFIIBHIL85LNS8HBJ2,1,2
177,4,object_03,object_05,437.0699999854,7,1,376.83999998262,0.3333333333333333,1,object_09,1,2687,0,3,7,restaurant_8,2,memory-2step-stake-s,671,2580509,0.0-19.0-0.1-0.177,A27W025UEXS1G0,371DNNCG57IGA1IMUX7DUPM8OSP8TA,37TRT2X24U78KFIIBHIL85LNS8HBJ2,7,8
178,3,object_01,object_04,248.26000002213,5,2,237.89500002749,0.1111111111111111,1,object_09,1,2688,0,1,5,library_8,2,memory-2step-stake-s,672,2588131,0.0-19.0-0.1-0.178,A27W025UEXS1G0,371DNNCG57IGA1IMUX7DUPM8OSP8TA,37TRT2X24U78KFIIBHIL85LNS8HBJ2,6,5
179,1,object_06,object_02,441.30500004394,1,1,307.48499999754,0.3333333333333333,1,object_09,5,2703,0,3,2,desert_2,2,memory-2step-stake-s,673,2596010,0.0-19.0-0.1-0.179,A27W025UEXS1G0,371DNNCG57IGA1IMUX7DUPM8OSP8TA,37TRT2X24U78KFIIBHIL85LNS8HBJ2,1,2
180,1,object_02,object_06,624.87499997951,2,1,319.87000000663,0.3333333333333333,2,object_10,5,2718,0,3,3,desert_2,2,memory-2step-stake-s,674,2603899,0.0-19.0-0.1-0.180,A27W025UEXS1G0,371DNNCG57IGA1IMUX7DUPM8OSP8TA,37TRT2X24U78KFIIBHIL85LNS8HBJ2,2,1
181,2,object_08,object_07,625.21999998717,4,1,292.39499999676,0.1111111111111111,2,object_10,5,2723,0,3,1,forest_1,2,memory-2step-stake-s,675,2611568,0.0-19.0-0.1-0.181,A27W025UEXS1G0,371DNNCG57IGA1IMUX7DUPM8OSP8TA,37TRT2X24U78KFIIBHIL85LNS8HBJ2,4,3
182,3,object_01,object_04,850.48500000266,6,1,355.81499995897,0.2222222222222222,2,object_10,1,2725,0,3,2,library_4,2,memory-2step-stake-s,676,2619399,0.0-19.0-0.1-0.182,A27W025UEXS1G0,371DNNCG57IGA1IMUX7DUPM8OSP8TA,37TRT2X24U78KFIIBHIL85LNS8HBJ2,6,5
183,3,object_01,object_04,516.78000000538,5,2,310.70000003092,0.3333333333333333,1,object_09,1,2728,0,3,3,library_8,2,memory-2step-stake-s,677,2627280,0.0-19.0-0.1-0.183,A27W025UEXS1G0,371DNNCG57IGA1IMUX7DUPM8OSP8TA,37TRT2X24U78KFIIBHIL85LNS8HBJ2,6,5
184,4,object_03,object_05,732.48000000603,8,2,339.02499999385,0.2222222222222222,2,object_10,1,2730,0,1,2,restaurant_3,2,memory-2step-stake-s,678,2635085,0.0-19.0-0.1-0.184,A27W025UEXS1G0,371DNNCG57IGA1IMUX7DUPM8OSP8TA,37TRT2X24U78KFIIBHIL85LNS8HBJ2,7,8
185,2,object_07,object_08,729.35500001768,3,1,326.76999998512,0.3333333333333333,1,object_09,5,2745,0,3,4,forest_5,2,memory-2step-stake-s,679,2642997,0.0-19.0-0.1-0.185,A27W025UEXS1G0,371DNNCG57IGA1IMUX7DUPM8OSP8TA,37TRT2X24U78KFIIBHIL85LNS8HBJ2,3,4
186,2,object_08,object_07,719.57999997539,3,2,308.40999999782,0.3333333333333333,1,object_09,5,2760,0,3,3,forest_8,2,memory-2step-stake-s,680,2650887,0.0-19.0-0.1-0.186,A27W025UEXS1G0,371DNNCG57IGA1IMUX7DUPM8OSP8TA,37TRT2X24U78KFIIBHIL85LNS8HBJ2,4,3
187,2,object_07,object_08,600.52000003634,3,1,252.5799999712,0.4444444444444444,1,object_09,5,2780,0,4,5,forest_3,2,memory-2step-stake-s,681,2658796,0.0-19.0-0.1-0.187,A27W025UEXS1G0,371DNNCG57IGA1IMUX7DUPM8OSP8TA,37TRT2X24U78KFIIBHIL85LNS8HBJ2,3,4
188,2,object_08,object_07,737.82499996014,3,2,302.32499999693,1.0,1,object_09,5,2825,0,9,5,forest_5,2,memory-2step-stake-s,682,2667274,0.0-19.0-0.1-0.188,A27W025UEXS1G0,371DNNCG57IGA1IMUX7DUPM8OSP8TA,37TRT2X24U78KFIIBHIL85LNS8HBJ2,4,3
189,4,object_03,object_05,963.65999995032,7,1,295.97500001546,0.6666666666666666,1,object_09,1,2831,0,6,5,restaurant_3,2,memory-2step-stake-s,683,2675482,0.0-19.0-0.1-0.189,A27W025UEXS1G0,371DNNCG57IGA1IMUX7DUPM8OSP8TA,37TRT2X24U78KFIIBHIL85LNS8HBJ2,7,8
190,3,object_01,object_04,899.42500001052,5,2,365.56000000564,0.5555555555555556,1,object_09,1,2836,0,5,4,library_3,2,memory-2step-stake-s,684,2683619,0.0-19.0-0.1-0.190,A27W025UEXS1G0,371DNNCG57IGA1IMUX7DUPM8OSP8TA,37TRT2X24U78KFIIBHIL85LNS8HBJ2,6,5
191,1,object_02,object_06,806.59000005107,2,1,286.77499998594,0.2222222222222222,2,object_10,5,2846,0,4,2,desert_2,2,memory-2step-stake-s,685,2691379,0.0-19.0-0.1-0.191,A27W025UEXS1G0,371DNNCG57IGA1IMUX7DUPM8OSP8TA,37TRT2X24U78KFIIBHIL85LNS8HBJ2,2,1
192,1,object_02,object_06,669.30999996839,1,2,388.29500001157,0.8888888888888888,1,object_09,5,2886,0,8,7,desert_2,2,memory-2step-stake-s,686,2699854,0.0-19.0-0.1-0.192,A27W025UEXS1G0,371DNNCG57IGA1IMUX7DUPM8OSP8TA,37TRT2X24U78KFIIBHIL85LNS8HBJ2,2,1
193,1,object_02,object_06,746.09000002965,1,2,360.6649999856,1.0,1,object_09,5,2931,0,9,9,desert_1,2,memory-2step-stake-s,687,2708426,0.0-19.0-0.1-0.193,A27W025UEXS1G0,371DNNCG57IGA1IMUX7DUPM8OSP8TA,37TRT2X24U78KFIIBHIL85LNS8HBJ2,2,1
194,3,object_01,object_04,833.49499996984,6,1,450.77499997569,0.7777777777777778,2,object_10,1,2938,0,4,7,library_1,2,memory-2step-stake-s,688,2716879,0.0-19.0-0.1-0.194,A27W025UEXS1G0,371DNNCG57IGA1IMUX7DUPM8OSP8TA,37TRT2X24U78KFIIBHIL85LNS8HBJ2,6,5
195,1,object_06,object_02,428.00000001444,2,2,305.40499999188,0.6666666666666666,2,object_10,1,2944,0,7,6,desert_2,2,memory-2step-stake-s,689,2725073,0.0-19.0-0.1-0.195,A27W025UEXS1G0,371DNNCG57IGA1IMUX7DUPM8OSP8TA,37TRT2X24U78KFIIBHIL85LNS8HBJ2,1,2
196,4,object_05,object_03,540.83500005072,8,1,338.71500001987,0.5555555555555556,2,object_10,1,2949,0,7,5,restaurant_8,2,memory-2step-stake-s,690,2733203,0.0-19.0-0.1-0.196,A27W025UEXS1G0,371DNNCG57IGA1IMUX7DUPM8OSP8TA,37TRT2X24U78KFIIBHIL85LNS8HBJ2,8,7
197,1,object_06,object_02,687.14999995427,2,2,415.90999998152,0.5555555555555556,2,object_10,5,2974,0,6,5,desert_3,2,memory-2step-stake-s,691,2741420,0.0-19.0-0.1-0.197,A27W025UEXS1G0,371DNNCG57IGA1IMUX7DUPM8OSP8TA,37TRT2X24U78KFIIBHIL85LNS8HBJ2,1,2
198,1,object_02,object_06,422.23000002559,2,1,312.34499998391,0.6666666666666666,2,object_10,1,2980,0,6,6,desert_3,2,memory-2step-stake-s,692,2749628,0.0-19.0-0.1-0.198,A27W025UEXS1G0,371DNNCG57IGA1IMUX7DUPM8OSP8TA,37TRT2X24U78KFIIBHIL85LNS8HBJ2,2,1
199,1,object_06,object_02,571.65499997791,1,1,578.72499997029,0.7777777777777778,1,object_09,1,2987,0,7,5,desert_3,2,memory-2step-stake-s,693,2758188,0.0-19.0-0.1-0.199,A27W025UEXS1G0,371DNNCG57IGA1IMUX7DUPM8OSP8TA,37TRT2X24U78KFIIBHIL85LNS8HBJ2,1,2
200,4,object_03,object_05,788.70500001358,7,1,328.86499998858,1.0,1,object_09,1,2996,0,9,5,restaurant_8,2,memory-2step-stake-s,694,2766723,0.0-19.0-0.1-0.200,A27W025UEXS1G0,371DNNCG57IGA1IMUX7DUPM8OSP8TA,37TRT2X24U78KFIIBHIL85LNS8HBJ2,7,8
201,3,object_01,object_04,794.43999996874,6,1,395.0499999919,1.0,2,object_10,5,3041,0,9,9,library_3,2,memory-2step-stake-s,695,2775319,0.0-19.0-0.1-0.201,A27W025UEXS1G0,371DNNCG57IGA1IMUX7DUPM8OSP8TA,37TRT2X24U78KFIIBHIL85LNS8HBJ2,6,5
202,2,object_07,object_08,729.78499997407,3,1,381.04000000749,0.6666666666666666,1,object_09,1,3047,0,6,8,forest_5,2,memory-2step-stake-s,696,2783581,0.0-19.0-0.1-0.202,A27W025UEXS1G0,371DNNCG57IGA1IMUX7DUPM8OSP8TA,37TRT2X24U78KFIIBHIL85LNS8HBJ2,3,4
203,2,object_07,object_08,772.34999998473,4,2,312.67999997362,0.4444444444444444,2,object_10,5,3067,0,8,4,forest_8,2,memory-2step-stake-s,697,2791594,0.0-19.0-0.1-0.203,A27W025UEXS1G0,371DNNCG57IGA1IMUX7DUPM8OSP8TA,37TRT2X24U78KFIIBHIL85LNS8HBJ2,3,4
204,2,object_07,object_08,390.07500000298,3,1,271.22499997495,0.7777777777777778,1,object_09,1,3074,0,7,3,forest_1,2,memory-2step-stake-s,698,2799834,0.0-19.0-0.1-0.204,A27W025UEXS1G0,371DNNCG57IGA1IMUX7DUPM8OSP8TA,37TRT2X24U78KFIIBHIL85LNS8HBJ2,3,4
205,3,object_04,object_01,506.32000004407,5,1,419.56000000937,0.6666666666666666,1,object_09,1,3080,0,6,1,library_1,2,memory-2step-stake-s,699,2808142,0.0-19.0-0.1-0.205,A27W025UEXS1G0,371DNNCG57IGA1IMUX7DUPM8OSP8TA,37TRT2X24U78KFIIBHIL85LNS8HBJ2,5,6
206,1,object_02,object_06,632.2349999682,2,1,363.32499998389,0.6666666666666666,2,object_10,1,3086,0,4,6,desert_2,2,memory-2step-stake-s,700,2816380,0.0-19.0-0.1-0.206,A27W025UEXS1G0,371DNNCG57IGA1IMUX7DUPM8OSP8TA,37TRT2X24U78KFIIBHIL85LNS8HBJ2,2,1
207,2,object_07,object_08,746.15999998059,3,1,328.97499995306,0.1111111111111111,1,object_09,1,3087,0,1,6,forest_1,2,memory-2step-stake-s,701,2824087,0.0-19.0-0.1-0.207,A27W025UEXS1G0,371DNNCG57IGA1IMUX7DUPM8OSP8TA,37TRT2X24U78KFIIBHIL85LNS8HBJ2,3,4
208,3,object_01,object_04,721.89499996603,5,2,313.35499999113,0.2222222222222222,1,object_09,5,3097,0,2,6,library_1,2,memory-2step-stake-s,702,2831865,0.0-19.0-0.1-0.208,A27W025UEXS1G0,371DNNCG57IGA1IMUX7DUPM8OSP8TA,37TRT2X24U78KFIIBHIL85LNS8HBJ2,6,5
209,2,object_08,object_07,931.71999999322,4,1,304.90500002634,0.7777777777777778,2,object_10,5,3132,0,3,7,forest_8,2,memory-2step-stake-s,703,2840180,0.0-19.0-0.1-0.209,A27W025UEXS1G0,371DNNCG57IGA1IMUX7DUPM8OSP8TA,37TRT2X24U78KFIIBHIL85LNS8HBJ2,4,3
210,3,object_04,object_01,636.93000003695,5,1,289.30499998387,0.2222222222222222,1,object_09,1,3134,0,2,8,library_1,2,memory-2step-stake-s,704,2847936,0.0-19.0-0.1-0.210,A27W025UEXS1G0,371DNNCG57IGA1IMUX7DUPM8OSP8TA,37TRT2X24U78KFIIBHIL85LNS8HBJ2,5,6
211,4,object_05,object_03,831.55000000261,8,1,282.21500001382,1.0,2,object_10,1,3143,0,5,9,restaurant_3,2,memory-2step-stake-s,705,2856404,0.0-19.0-0.1-0.211,A27W025UEXS1G0,371DNNCG57IGA1IMUX7DUPM8OSP8TA,37TRT2X24U78KFIIBHIL85LNS8HBJ2,8,7
212,1,object_02,object_06,625.86500000907,2,1,277.47999998974,1.0,2,object_10,1,3152,0,4,9,desert_2,2,memory-2step-stake-s,706,2864923,0.0-19.0-0.1-0.212,A27W025UEXS1G0,371DNNCG57IGA1IMUX7DUPM8OSP8TA,37TRT2X24U78KFIIBHIL85LNS8HBJ2,2,1
213,2,object_08,object_07,876.79499998922,4,1,279.84500001185,0.8888888888888888,2,object_10,1,3160,0,4,8,forest_5,2,memory-2step-stake-s,707,2873298,0.0-19.0-0.1-0.213,A27W025UEXS1G0,371DNNCG57IGA1IMUX7DUPM8OSP8TA,37TRT2X24U78KFIIBHIL85LNS8HBJ2,4,3
214,4,object_05,object_03,530.77999997186,8,1,193.47500003641,0.6666666666666666,2,object_10,1,3166,0,4,6,restaurant_3,2,memory-2step-stake-s,708,2881382,0.0-19.0-0.1-0.214,A27W025UEXS1G0,371DNNCG57IGA1IMUX7DUPM8OSP8TA,37TRT2X24U78KFIIBHIL85LNS8HBJ2,8,7
215,2,object_08,object_07,771.41500002472,4,1,293.62000001129,0.6666666666666666,2,object_10,5,3196,0,6,6,forest_3,2,memory-2step-stake-s,709,2889569,0.0-19.0-0.1-0.215,A27W025UEXS1G0,371DNNCG57IGA1IMUX7DUPM8OSP8TA,37TRT2X24U78KFIIBHIL85LNS8HBJ2,4,3
216,2,object_07,object_08,802.66000004485,4,2,297.04999999376,0.7777777777777778,2,object_10,5,3231,0,3,7,forest_5,2,memory-2step-stake-s,710,2897857,0.0-19.0-0.1-0.216,A27W025UEXS1G0,371DNNCG57IGA1IMUX7DUPM8OSP8TA,37TRT2X24U78KFIIBHIL85LNS8HBJ2,3,4
217,3,object_04,object_01,995.72999996599,5,1,364.22499996843,0.0,1,object_09,5,3231,0,0,4,library_1,2,memory-2step-stake-s,711,2905482,0.0-19.0-0.1-0.217,A27W025UEXS1G0,371DNNCG57IGA1IMUX7DUPM8OSP8TA,37TRT2X24U78KFIIBHIL85LNS8HBJ2,5,6
218,4,object_03,object_05,583.96499999799,8,2,270.2649999992,0.5555555555555556,2,object_10,1,3236,0,1,5,restaurant_2,2,memory-2step-stake-s,712,2913528,0.0-19.0-0.1-0.218,A27W025UEXS1G0,371DNNCG57IGA1IMUX7DUPM8OSP8TA,37TRT2X24U78KFIIBHIL85LNS8HBJ2,7,8
219,4,object_03,object_05,655.49999999348,8,2,305.9699999867,0.2222222222222222,2,object_10,1,3238,0,5,2,restaurant_8,2,memory-2step-stake-s,713,2921291,0.0-19.0-0.1-0.219,A27W025UEXS1G0,371DNNCG57IGA1IMUX7DUPM8OSP8TA,37TRT2X24U78KFIIBHIL85LNS8HBJ2,7,8
220,4,object_03,object_05,550.82999996375,8,2,534.90500000771,0.3333333333333333,2,object_10,1,3241,0,2,3,restaurant_3,2,memory-2step-stake-s,714,2929392,0.0-19.0-0.1-0.220,A27W025UEXS1G0,371DNNCG57IGA1IMUX7DUPM8OSP8TA,37TRT2X24U78KFIIBHIL85LNS8HBJ2,7,8
221,3,object_04,object_01,839.83499999158,6,2,275.11000004597,0.5555555555555556,2,object_10,5,3266,0,1,5,library_4,2,memory-2step-stake-s,715,2937452,0.0-19.0-0.1-0.221,A27W025UEXS1G0,371DNNCG57IGA1IMUX7DUPM8OSP8TA,37TRT2X24U78KFIIBHIL85LNS8HBJ2,5,6
222,3,object_01,object_04,748.73500003014,6,1,316.37499999488,0.8888888888888888,2,object_10,5,3306,0,0,8,library_4,2,memory-2step-stake-s,716,2945866,0.0-19.0-0.1-0.222,A27W025UEXS1G0,371DNNCG57IGA1IMUX7DUPM8OSP8TA,37TRT2X24U78KFIIBHIL85LNS8HBJ2,6,5
223,1,object_02,object_06,790.78500001924,2,1,312.040000048,0.8888888888888888,2,object_10,5,3346,0,1,8,desert_8,2,memory-2step-stake-s,717,2954276,0.0-19.0-0.1-0.223,A27W025UEXS1G0,371DNNCG57IGA1IMUX7DUPM8OSP8TA,37TRT2X24U78KFIIBHIL85LNS8HBJ2,2,1
224,2,object_08,object_07,818.94000002649,4,1,295.99499999313,0.7777777777777778,2,object_10,5,3381,0,2,7,forest_5,2,memory-2step-stake-s,718,2962586,0.0-19.0-0.1-0.224,A27W025UEXS1G0,371DNNCG57IGA1IMUX7DUPM8OSP8TA,37TRT2X24U78KFIIBHIL85LNS8HBJ2,4,3
225,1,object_02,object_06,669.47000002256,2,1,286.72999999253,1.0,2,object_10,5,3426,0,3,9,desert_8,2,memory-2step-stake-s,719,2971080,0.0-19.0-0.1-0.225,A27W025UEXS1G0,371DNNCG57IGA1IMUX7DUPM8OSP8TA,37TRT2X24U78KFIIBHIL85LNS8HBJ2,2,1
226,1,object_06,object_02,563.87499999255,2,2,308.0600000103,1.0,2,object_10,5,3471,0,6,9,desert_3,2,memory-2step-stake-s,720,2979591,0.0-19.0-0.1-0.226,A27W025UEXS1G0,371DNNCG57IGA1IMUX7DUPM8OSP8TA,37TRT2X24U78KFIIBHIL85LNS8HBJ2,1,2
227,2,object_08,object_07,699.00000002235,4,1,285.8899999992,1.0,2,object_10,1,3480,0,6,9,forest_5,2,memory-2step-stake-s,721,2988068,0.0-19.0-0.1-0.227,A27W025UEXS1G0,371DNNCG57IGA1IMUX7DUPM8OSP8TA,37TRT2X24U78KFIIBHIL85LNS8HBJ2,4,3
228,3,object_04,object_01,554.11000002641,6,2,256.56499998877,1.0,2,object_10,5,3525,0,9,9,library_8,2,memory-2step-stake-s,722,2996517,0.0-19.0-0.1-0.228,A27W025UEXS1G0,371DNNCG57IGA1IMUX7DUPM8OSP8TA,37TRT2X24U78KFIIBHIL85LNS8HBJ2,5,6
229,2,object_08,object_07,654.09500000533,4,1,268.71000003302,0.6666666666666666,2,object_10,5,3555,0,8,6,forest_8,2,memory-2step-stake-s,723,3004674,0.0-19.0-0.1-0.229,A27W025UEXS1G0,371DNNCG57IGA1IMUX7DUPM8OSP8TA,37TRT2X24U78KFIIBHIL85LNS8HBJ2,4,3
230,1,object_02,object_06,562.30000004871,2,1,203.84500001092,0.8888888888888888,2,object_10,5,3595,0,8,8,desert_1,2,memory-2step-stake-s,724,3012961,0.0-19.0-0.1-0.230,A27W025UEXS1G0,371DNNCG57IGA1IMUX7DUPM8OSP8TA,37TRT2X24U78KFIIBHIL85LNS8HBJ2,2,1
231,4,object_03,object_05,704.48999997461,8,2,289.67999998713,0.6666666666666666,2,object_10,1,3601,0,9,6,restaurant_8,2,memory-2step-stake-s,725,3021155,0.0-19.0-0.1-0.231,A27W025UEXS1G0,371DNNCG57IGA1IMUX7DUPM8OSP8TA,37TRT2X24U78KFIIBHIL85LNS8HBJ2,7,8
232,2,object_07,object_08,781.74000000581,4,2,304.00000000373,0.5555555555555556,2,object_10,5,3626,0,5,5,forest_5,2,memory-2step-stake-s,726,3029245,0.0-19.0-0.1-0.232,A27W025UEXS1G0,371DNNCG57IGA1IMUX7DUPM8OSP8TA,37TRT2X24U78KFIIBHIL85LNS8HBJ2,3,4
233,4,object_05,object_03,616.59500002861,8,1,231.56500002369,0.4444444444444444,2,object_10,1,3630,0,2,4,restaurant_2,2,memory-2step-stake-s,727,3037159,0.0-19.0-0.1-0.233,A27W025UEXS1G0,371DNNCG57IGA1IMUX7DUPM8OSP8TA,37TRT2X24U78KFIIBHIL85LNS8HBJ2,8,7
234,1,object_02,object_06,606.01000004681,2,1,263.68000003276,0.7777777777777778,2,object_10,5,3665,0,5,7,desert_3,2,memory-2step-stake-s,728,3045398,0.0-19.0-0.1-0.234,A27W025UEXS1G0,371DNNCG57IGA1IMUX7DUPM8OSP8TA,37TRT2X24U78KFIIBHIL85LNS8HBJ2,2,1
235,1,object_02,object_06,545.75500002829,2,1,268.84500001324,0.7777777777777778,2,object_10,5,3700,0,3,7,desert_8,2,memory-2step-stake-s,729,3053638,0.0-19.0-0.1-0.235,A27W025UEXS1G0,371DNNCG57IGA1IMUX7DUPM8OSP8TA,37TRT2X24U78KFIIBHIL85LNS8HBJ2,2,1
236,2,object_07,object_08,722.99500001827,4,2,359.07500004396,0.8888888888888888,2,object_10,1,3708,0,5,8,forest_3,2,memory-2step-stake-s,730,3062102,0.0-19.0-0.1-0.236,A27W025UEXS1G0,371DNNCG57IGA1IMUX7DUPM8OSP8TA,37TRT2X24U78KFIIBHIL85LNS8HBJ2,3,4
237,3,object_01,object_04,689.91999997525,6,1,364.08500000834,1.0,2,object_10,1,3717,0,3,9,library_8,2,memory-2step-stake-s,731,3070675,0.0-19.0-0.1-0.237,A27W025UEXS1G0,371DNNCG57IGA1IMUX7DUPM8OSP8TA,37TRT2X24U78KFIIBHIL85LNS8HBJ2,6,5
238,1,object_06,object_02,648.26499996707,2,2,343.15500000957,0.8888888888888888,2,object_10,5,3757,0,4,8,desert_2,2,memory-2step-stake-s,732,3079134,0.0-19.0-0.1-0.238,A27W025UEXS1G0,371DNNCG57IGA1IMUX7DUPM8OSP8TA,37TRT2X24U78KFIIBHIL85LNS8HBJ2,1,2
239,3,object_01,object_04,755.43999997899,6,1,362.02499998035,0.4444444444444444,2,object_10,1,3761,0,5,4,library_3,2,memory-2step-stake-s,733,3087179,0.0-19.0-0.1-0.239,A27W025UEXS1G0,371DNNCG57IGA1IMUX7DUPM8OSP8TA,37TRT2X24U78KFIIBHIL85LNS8HBJ2,6,5
240,2,object_08,object_07,777.76500000618,4,1,304.48500002967,0.7777777777777778,2,object_10,5,3796,0,8,7,forest_8,2,memory-2step-stake-s,734,3095474,0.0-19.0-0.1-0.240,A27W025UEXS1G0,371DNNCG57IGA1IMUX7DUPM8OSP8TA,37TRT2X24U78KFIIBHIL85LNS8HBJ2,4,3
241,4,object_03,object_05,548.5650000046,8,2,316.5100000333,0.4444444444444444,2,object_10,1,3800,0,7,4,restaurant_8,2,memory-2step-stake-s,735,3103464,0.0-19.0-0.1-0.241,A27W025UEXS1G0,371DNNCG57IGA1IMUX7DUPM8OSP8TA,37TRT2X24U78KFIIBHIL85LNS8HBJ2,7,8
242,3,object_01,object_04,768.73000001069,6,1,331.10000001034,0.4444444444444444,2,object_10,1,3804,0,5,4,library_3,2,memory-2step-stake-s,736,3111453,0.0-19.0-0.1-0.242,A27W025UEXS1G0,371DNNCG57IGA1IMUX7DUPM8OSP8TA,37TRT2X24U78KFIIBHIL85LNS8HBJ2,6,5
243,1,object_02,object_06,609.76500000106,2,1,267.92999997269,0.0,2,object_10,1,3804,0,7,0,desert_8,2,memory-2step-stake-s,737,3118986,0.0-19.0-0.1-0.243,A27W025UEXS1G0,371DNNCG57IGA1IMUX7DUPM8OSP8TA,37TRT2X24U78KFIIBHIL85LNS8HBJ2,2,1
244,1,object_02,object_06,796.74999997951,1,2,257.80999998096,0.8888888888888888,1,object_09,5,3844,0,8,3,desert_1,2,memory-2step-stake-s,738,3127330,0.0-19.0-0.1-0.244,A27W025UEXS1G0,371DNNCG57IGA1IMUX7DUPM8OSP8TA,37TRT2X24U78KFIIBHIL85LNS8HBJ2,2,1
245,1,object_06,object_02,771.63999999175,1,1,266.33999997284,0.6666666666666666,1,object_09,5,3874,0,6,0,desert_8,2,memory-2step-stake-s,739,3135497,0.0-19.0-0.1-0.245,A27W025UEXS1G0,371DNNCG57IGA1IMUX7DUPM8OSP8TA,37TRT2X24U78KFIIBHIL85LNS8HBJ2,1,2
246,2,object_07,object_08,886.14499999676,3,1,324.90499998676,0.3333333333333333,1,object_09,1,3877,0,3,4,forest_8,2,memory-2step-stake-s,740,3143390,0.0-19.0-0.1-0.246,A27W025UEXS1G0,371DNNCG57IGA1IMUX7DUPM8OSP8TA,37TRT2X24U78KFIIBHIL85LNS8HBJ2,3,4
247,4,object_05,object_03,684.00499998825,8,1,239.11500000395,0.5555555555555556,2,object_10,1,3882,0,4,5,restaurant_6,2,memory-2step-stake-s,741,3151400,0.0-19.0-0.1-0.247,A27W025UEXS1G0,371DNNCG57IGA1IMUX7DUPM8OSP8TA,37TRT2X24U78KFIIBHIL85LNS8HBJ2,8,7
248,3,object_04,object_01,703.78999999957,5,1,271.63000003202,0.6666666666666666,1,object_09,1,3888,0,6,7,library_1,2,memory-2step-stake-s,742,3159554,0.0-19.0-0.1-0.248,A27W025UEXS1G0,371DNNCG57IGA1IMUX7DUPM8OSP8TA,37TRT2X24U78KFIIBHIL85LNS8HBJ2,5,6
249,1,object_06,object_02,731.94999998668,1,1,233.58000000007,0.7777777777777778,1,object_09,5,3923,0,7,8,desert_3,2,memory-2step-stake-s,743,3167777,0.0-19.0-0.1-0.249,A27W025UEXS1G0,371DNNCG57IGA1IMUX7DUPM8OSP8TA,37TRT2X24U78KFIIBHIL85LNS8HBJ2,1,2
250,4,object_05,object_03,733.11500001,7,2,279.94999999646,0.6666666666666666,1,object_09,5,3953,0,6,8,restaurant_3,2,memory-2step-stake-s,744,3175922,0.0-19.0-0.1-0.250,A27W025UEXS1G0,371DNNCG57IGA1IMUX7DUPM8OSP8TA,37TRT2X24U78KFIIBHIL85LNS8HBJ2,8,7
251,4,object_03,object_05,529.24999996321,7,1,271.17500000168,1.0,1,object_09,1,3962,0,9,9,restaurant_6,2,memory-2step-stake-s,745,3184388,0.0-19.0-0.1-0.251,A27W025UEXS1G0,371DNNCG57IGA1IMUX7DUPM8OSP8TA,37TRT2X24U78KFIIBHIL85LNS8HBJ2,7,8
252,2,object_08,object_07,799.49499998474,3,2,288.17999997409,0.7777777777777778,1,object_09,5,3997,0,7,8,forest_8,2,memory-2step-stake-s,746,3192665,0.0-19.0-0.1-0.252,A27W025UEXS1G0,371DNNCG57IGA1IMUX7DUPM8OSP8TA,37TRT2X24U78KFIIBHIL85LNS8HBJ2,4,3
253,4,object_03,object_05,675.40500004543,7,1,513.79499997711,0.5555555555555556,1,object_09,1,4002,0,5,7,restaurant_8,2,memory-2step-stake-s,747,3200971,0.0-19.0-0.1-0.253,A27W025UEXS1G0,371DNNCG57IGA1IMUX7DUPM8OSP8TA,37TRT2X24U78KFIIBHIL85LNS8HBJ2,7,8
254,4,object_05,object_03,581.49499999126,7,2,277.31000003405,0.5555555555555556,1,object_09,1,4007,0,5,8,restaurant_8,2,memory-2step-stake-s,748,3209041,0.0-19.0-0.1-0.254,A27W025UEXS1G0,371DNNCG57IGA1IMUX7DUPM8OSP8TA,37TRT2X24U78KFIIBHIL85LNS8HBJ2,8,7
255,2,object_07,object_08,604.34000001987,3,1,430.64000003505,0.3333333333333333,1,object_09,1,4010,0,3,6,forest_3,2,memory-2step-stake-s,749,3217045,0.0-19.0-0.1-0.255,A27W025UEXS1G0,371DNNCG57IGA1IMUX7DUPM8OSP8TA,37TRT2X24U78KFIIBHIL85LNS8HBJ2,3,4
