,state1,stim_left,stim_right,rt_1,choice1,response1,rt_2,points,state2,stim_state2,stake,score,practice,rews1,rews2,background,high_arm,trial_type,trial_index,time_elapsed,internal_node_id,subid,hitid,assignmentid,stim_left_num,stim_right_num
0,2,object_03,object_08,1053.6000000238,3,1,1234.1999999285,0.5555555555555556,1,object_06,5,25,0,5,3,forest_6,2,memory-2step-stake-s,504,1166816,0.0-19.0-0.0-0.0,AYEEKFSGE2CCO,3X4Q1O9UCK2WXV8VOBT8MFKQE0B7O9,3BQU611VFT00QAQCRLDCS5CU862991,3,4
1,3,object_01,object_07,1009.1000000238,5,2,960.70000004768,0.8888888888888888,1,object_06,1,33,0,8,6,library_7,2,memory-2step-stake-s,505,1175840,0.0-19.0-0.0-0.1,AYEEKFSGE2CCO,3X4Q1O9UCK2WXV8VOBT8MFKQE0B7O9,3BQU611VFT00QAQCRLDCS5CU862991,6,5
2,2,object_08,object_03,749.29999995232,4,1,766.59999990463,0.6666666666666666,2,object_04,5,63,0,7,6,forest_7,2,memory-2step-stake-s,506,1184459,0.0-19.0-0.0-0.2,AYEEKFSGE2CCO,3X4Q1O9UCK2WXV8VOBT8MFKQE0B7O9,3BQU611VFT00QAQCRLDCS5CU862991,4,3
3,1,object_02,object_09,1218.8000000715,1,2,432.0,0.6666666666666666,1,object_06,5,93,0,6,3,desert_5,2,memory-2step-stake-s,507,1192742,0.0-19.0-0.0-0.3,AYEEKFSGE2CCO,3X4Q1O9UCK2WXV8VOBT8MFKQE0B7O9,3BQU611VFT00QAQCRLDCS5CU862991,2,1
4,1,object_02,object_09,679.69999992847,1,2,420.29999995232,0.6666666666666666,1,object_06,5,123,0,6,4,desert_6,2,memory-2step-stake-s,508,1201014,0.0-19.0-0.0-0.4,AYEEKFSGE2CCO,3X4Q1O9UCK2WXV8VOBT8MFKQE0B7O9,3BQU611VFT00QAQCRLDCS5CU862991,2,1
5,1,object_09,object_02,980.09999990463,1,1,476.0,0.4444444444444444,1,object_06,1,127,0,4,5,desert_5,2,memory-2step-stake-s,509,1209132,0.0-19.0-0.0-0.5,AYEEKFSGE2CCO,3X4Q1O9UCK2WXV8VOBT8MFKQE0B7O9,3BQU611VFT00QAQCRLDCS5CU862991,1,2
6,3,object_07,object_01,1397.6999999285,5,1,467.5,0.1111111111111111,1,object_06,1,128,0,1,3,library_3,2,memory-2step-stake-s,510,1216940,0.0-19.0-0.0-0.6,AYEEKFSGE2CCO,3X4Q1O9UCK2WXV8VOBT8MFKQE0B7O9,3BQU611VFT00QAQCRLDCS5CU862991,5,6
7,1,object_02,object_09,684.60000002384,2,1,406.70000004768,0.4444444444444444,2,object_04,5,148,0,4,4,desert_5,2,memory-2step-stake-s,511,1224999,0.0-19.0-0.0-0.7,AYEEKFSGE2CCO,3X4Q1O9UCK2WXV8VOBT8MFKQE0B7O9,3BQU611VFT00QAQCRLDCS5CU862991,2,1
8,4,object_05,object_10,-1.0,-1,-1,-1.0,0.0,-,0,1,148,0,6,3,restaurant_7,2,memory-2step-stake-s,512,1231527,0.0-19.0-0.0-0.8,AYEEKFSGE2CCO,3X4Q1O9UCK2WXV8VOBT8MFKQE0B7O9,3BQU611VFT00QAQCRLDCS5CU862991,8,7
9,4,object_05,object_10,504.79999995232,8,1,463.70000004768,0.3333333333333333,2,object_04,1,151,0,5,3,restaurant_5,2,memory-2step-stake-s,513,1239538,0.0-19.0-0.0-0.9,AYEEKFSGE2CCO,3X4Q1O9UCK2WXV8VOBT8MFKQE0B7O9,3BQU611VFT00QAQCRLDCS5CU862991,8,7
10,4,object_05,object_10,608.30000007153,7,2,680.19999992847,0.3333333333333333,1,object_06,1,154,0,3,3,restaurant_3,2,memory-2step-stake-s,514,1247763,0.0-19.0-0.0-0.10,AYEEKFSGE2CCO,3X4Q1O9UCK2WXV8VOBT8MFKQE0B7O9,3BQU611VFT00QAQCRLDCS5CU862991,8,7
11,4,object_10,object_05,791.5,7,1,450.80000007153,0.4444444444444444,1,object_06,5,174,0,4,4,restaurant_7,2,memory-2step-stake-s,515,1255864,0.0-19.0-0.0-0.11,AYEEKFSGE2CCO,3X4Q1O9UCK2WXV8VOBT8MFKQE0B7O9,3BQU611VFT00QAQCRLDCS5CU862991,7,8
12,1,object_02,object_09,557.10000002384,1,2,322.39999997616,0.0,1,object_06,5,174,0,0,4,desert_2,2,memory-2step-stake-s,516,1263422,0.0-19.0-0.0-0.12,AYEEKFSGE2CCO,3X4Q1O9UCK2WXV8VOBT8MFKQE0B7O9,3BQU611VFT00QAQCRLDCS5CU862991,2,1
13,4,object_10,object_05,784.10000002384,8,2,409.09999990463,0.2222222222222222,2,object_04,1,176,0,1,2,restaurant_5,2,memory-2step-stake-s,517,1271272,0.0-19.0-0.0-0.13,AYEEKFSGE2CCO,3X4Q1O9UCK2WXV8VOBT8MFKQE0B7O9,3BQU611VFT00QAQCRLDCS5CU862991,7,8
14,2,object_08,object_03,655.90000009537,3,2,408.79999995232,0.3333333333333333,1,object_06,5,191,0,3,2,forest_7,2,memory-2step-stake-s,518,1279230,0.0-19.0-0.0-0.14,AYEEKFSGE2CCO,3X4Q1O9UCK2WXV8VOBT8MFKQE0B7O9,3BQU611VFT00QAQCRLDCS5CU862991,4,3
15,4,object_10,object_05,867.60000002384,8,2,412.0,0.5555555555555556,2,object_04,1,196,0,4,5,restaurant_8,2,memory-2step-stake-s,519,1287390,0.0-19.0-0.0-0.15,AYEEKFSGE2CCO,3X4Q1O9UCK2WXV8VOBT8MFKQE0B7O9,3BQU611VFT00QAQCRLDCS5CU862991,7,8
16,2,object_03,object_08,551.69999992847,4,2,411.39999997616,0.3333333333333333,2,object_04,5,211,0,4,3,forest_4,2,memory-2step-stake-s,520,1295348,0.0-19.0-0.0-0.16,AYEEKFSGE2CCO,3X4Q1O9UCK2WXV8VOBT8MFKQE0B7O9,3BQU611VFT00QAQCRLDCS5CU862991,3,4
17,3,object_01,object_07,479.29999995232,6,1,-1.0,0.0,2,object_04,5,211,0,4,4,library_3,2,memory-2step-stake-s,521,1303886,0.0-19.0-0.0-0.17,AYEEKFSGE2CCO,3X4Q1O9UCK2WXV8VOBT8MFKQE0B7O9,3BQU611VFT00QAQCRLDCS5CU862991,6,5
18,1,object_09,object_02,400.20000004768,2,2,764.39999997616,0.2222222222222222,2,object_04,5,221,0,4,2,desert_6,2,memory-2step-stake-s,522,1312095,0.0-19.0-0.0-0.18,AYEEKFSGE2CCO,3X4Q1O9UCK2WXV8VOBT8MFKQE0B7O9,3BQU611VFT00QAQCRLDCS5CU862991,1,2
19,3,object_01,object_07,1060.5,5,2,873.80000007153,0.7777777777777778,1,object_06,1,228,0,7,3,library_1,2,memory-2step-stake-s,523,1320927,0.0-19.0-0.0-0.19,AYEEKFSGE2CCO,3X4Q1O9UCK2WXV8VOBT8MFKQE0B7O9,3BQU611VFT00QAQCRLDCS5CU862991,6,5
20,4,object_10,object_05,601.20000004768,7,1,566.20000004768,1.0,1,object_06,1,237,0,9,6,restaurant_8,2,memory-2step-stake-s,524,1329653,0.0-19.0-0.0-0.20,AYEEKFSGE2CCO,3X4Q1O9UCK2WXV8VOBT8MFKQE0B7O9,3BQU611VFT00QAQCRLDCS5CU862991,7,8
21,1,object_09,object_02,552.89999997616,2,2,479.0,0.6666666666666666,2,object_04,5,267,0,7,6,desert_5,2,memory-2step-stake-s,525,1337979,0.0-19.0-0.0-0.21,AYEEKFSGE2CCO,3X4Q1O9UCK2WXV8VOBT8MFKQE0B7O9,3BQU611VFT00QAQCRLDCS5CU862991,1,2
22,3,object_01,object_07,692.69999992847,5,2,510.30000007153,0.8888888888888888,1,object_06,5,307,0,8,4,library_7,2,memory-2step-stake-s,526,1346544,0.0-19.0-0.0-0.22,AYEEKFSGE2CCO,3X4Q1O9UCK2WXV8VOBT8MFKQE0B7O9,3BQU611VFT00QAQCRLDCS5CU862991,6,5
23,2,object_03,object_08,558.39999997616,4,2,509.19999992847,0.7777777777777778,2,object_04,5,342,0,7,7,forest_6,2,memory-2step-stake-s,527,1355017,0.0-19.0-0.0-0.23,AYEEKFSGE2CCO,3X4Q1O9UCK2WXV8VOBT8MFKQE0B7O9,3BQU611VFT00QAQCRLDCS5CU862991,3,4
24,1,object_09,object_02,636.5,1,1,419.5,0.5555555555555556,1,object_06,5,367,0,5,4,desert_8,2,memory-2step-stake-s,528,1363184,0.0-19.0-0.0-0.24,AYEEKFSGE2CCO,3X4Q1O9UCK2WXV8VOBT8MFKQE0B7O9,3BQU611VFT00QAQCRLDCS5CU862991,1,2
25,2,object_03,object_08,766.0,3,1,635.0,0.2222222222222222,1,object_06,5,377,0,2,4,forest_6,2,memory-2step-stake-s,529,1371265,0.0-19.0-0.0-0.25,AYEEKFSGE2CCO,3X4Q1O9UCK2WXV8VOBT8MFKQE0B7O9,3BQU611VFT00QAQCRLDCS5CU862991,3,4
26,1,object_09,object_02,643.19999992847,1,1,610.90000009537,0.1111111111111111,1,object_06,5,382,0,1,4,desert_5,2,memory-2step-stake-s,530,1379217,0.0-19.0-0.0-0.26,AYEEKFSGE2CCO,3X4Q1O9UCK2WXV8VOBT8MFKQE0B7O9,3BQU611VFT00QAQCRLDCS5CU862991,1,2
27,3,object_01,object_07,908.10000002384,6,1,384.19999992847,0.3333333333333333,2,object_04,1,385,0,1,3,library_1,2,memory-2step-stake-s,531,1387148,0.0-19.0-0.0-0.27,AYEEKFSGE2CCO,3X4Q1O9UCK2WXV8VOBT8MFKQE0B7O9,3BQU611VFT00QAQCRLDCS5CU862991,6,5
28,1,object_09,object_02,487.60000002384,2,2,373.79999995232,0.2222222222222222,2,object_04,5,395,0,0,2,desert_8,2,memory-2step-stake-s,532,1394967,0.0-19.0-0.0-0.28,AYEEKFSGE2CCO,3X4Q1O9UCK2WXV8VOBT8MFKQE0B7O9,3BQU611VFT00QAQCRLDCS5CU862991,1,2
29,1,object_02,object_09,663.39999997616,2,1,379.60000002384,0.1111111111111111,2,object_04,1,396,0,0,1,desert_8,2,memory-2step-stake-s,533,1402689,0.0-19.0-0.0-0.29,AYEEKFSGE2CCO,3X4Q1O9UCK2WXV8VOBT8MFKQE0B7O9,3BQU611VFT00QAQCRLDCS5CU862991,2,1
30,4,object_05,object_10,1054.9000000954,8,1,405.89999997616,0.4444444444444444,2,object_04,5,416,0,2,4,restaurant_8,2,memory-2step-stake-s,534,1410749,0.0-19.0-0.0-0.30,AYEEKFSGE2CCO,3X4Q1O9UCK2WXV8VOBT8MFKQE0B7O9,3BQU611VFT00QAQCRLDCS5CU862991,8,7
31,4,object_10,object_05,795.30000007153,7,1,398.29999995232,0.4444444444444444,1,object_06,1,420,0,4,4,restaurant_8,2,memory-2step-stake-s,535,1418797,0.0-19.0-0.0-0.31,AYEEKFSGE2CCO,3X4Q1O9UCK2WXV8VOBT8MFKQE0B7O9,3BQU611VFT00QAQCRLDCS5CU862991,7,8
32,4,object_10,object_05,535.69999992847,8,2,494.79999995232,0.6666666666666666,2,object_04,1,426,0,4,6,restaurant_7,2,memory-2step-stake-s,536,1427149,0.0-19.0-0.0-0.32,AYEEKFSGE2CCO,3X4Q1O9UCK2WXV8VOBT8MFKQE0B7O9,3BQU611VFT00QAQCRLDCS5CU862991,7,8
33,2,object_03,object_08,500.79999995232,3,1,630.80000007153,0.4444444444444444,1,object_06,5,446,0,4,8,forest_6,2,memory-2step-stake-s,537,1435432,0.0-19.0-0.0-0.33,AYEEKFSGE2CCO,3X4Q1O9UCK2WXV8VOBT8MFKQE0B7O9,3BQU611VFT00QAQCRLDCS5CU862991,3,4
34,1,object_09,object_02,704.29999995232,1,1,477.39999997616,0.3333333333333333,1,object_06,5,461,0,3,6,desert_2,2,memory-2step-stake-s,538,1443458,0.0-19.0-0.0-0.34,AYEEKFSGE2CCO,3X4Q1O9UCK2WXV8VOBT8MFKQE0B7O9,3BQU611VFT00QAQCRLDCS5CU862991,1,2
35,4,object_10,object_05,629.29999995232,8,2,506.90000009537,0.6666666666666666,2,object_04,5,491,0,4,6,restaurant_7,2,memory-2step-stake-s,539,1451827,0.0-19.0-0.0-0.35,AYEEKFSGE2CCO,3X4Q1O9UCK2WXV8VOBT8MFKQE0B7O9,3BQU611VFT00QAQCRLDCS5CU862991,7,8
36,2,object_08,object_03,602.70000004768,4,1,512.79999995232,1.0,2,object_04,1,500,0,2,9,forest_2,2,memory-2step-stake-s,540,1460501,0.0-19.0-0.0-0.36,AYEEKFSGE2CCO,3X4Q1O9UCK2WXV8VOBT8MFKQE0B7O9,3BQU611VFT00QAQCRLDCS5CU862991,4,3
37,4,object_10,object_05,529.5,8,2,400.30000007153,1.0,2,object_04,1,509,0,3,9,restaurant_3,2,memory-2step-stake-s,541,1469069,0.0-19.0-0.0-0.37,AYEEKFSGE2CCO,3X4Q1O9UCK2WXV8VOBT8MFKQE0B7O9,3BQU611VFT00QAQCRLDCS5CU862991,7,8
38,1,object_02,object_09,588.29999995232,1,2,577.5,0.1111111111111111,1,object_06,5,514,0,1,8,desert_5,2,memory-2step-stake-s,542,1476985,0.0-19.0-0.0-0.38,AYEEKFSGE2CCO,3X4Q1O9UCK2WXV8VOBT8MFKQE0B7O9,3BQU611VFT00QAQCRLDCS5CU862991,2,1
39,3,object_01,object_07,841.70000004768,6,1,516.20000004768,1.0,2,object_04,1,523,0,1,9,library_4,2,memory-2step-stake-s,543,1485672,0.0-19.0-0.0-0.39,AYEEKFSGE2CCO,3X4Q1O9UCK2WXV8VOBT8MFKQE0B7O9,3BQU611VFT00QAQCRLDCS5CU862991,6,5
40,2,object_03,object_08,829.0,3,1,543.19999992847,0.0,1,object_06,5,523,0,0,9,forest_2,2,memory-2step-stake-s,544,1493450,0.0-19.0-0.0-0.40,AYEEKFSGE2CCO,3X4Q1O9UCK2WXV8VOBT8MFKQE0B7O9,3BQU611VFT00QAQCRLDCS5CU862991,3,4
41,2,object_08,object_03,904.29999995232,3,2,544.70000004768,0.0,1,object_06,1,523,0,0,9,forest_4,2,memory-2step-stake-s,545,1501236,0.0-19.0-0.0-0.41,AYEEKFSGE2CCO,3X4Q1O9UCK2WXV8VOBT8MFKQE0B7O9,3BQU611VFT00QAQCRLDCS5CU862991,4,3
42,1,object_09,object_02,768.70000004768,2,2,509.39999997616,0.8888888888888888,2,object_04,5,563,0,2,8,desert_6,2,memory-2step-stake-s,546,1509812,0.0-19.0-0.0-0.42,AYEEKFSGE2CCO,3X4Q1O9UCK2WXV8VOBT8MFKQE0B7O9,3BQU611VFT00QAQCRLDCS5CU862991,1,2
43,1,object_02,object_09,996.20000004768,2,1,563.10000002384,1.0,2,object_04,5,608,0,1,9,desert_6,2,memory-2step-stake-s,547,1518537,0.0-19.0-0.0-0.43,AYEEKFSGE2CCO,3X4Q1O9UCK2WXV8VOBT8MFKQE0B7O9,3BQU611VFT00QAQCRLDCS5CU862991,2,1
44,2,object_08,object_03,617.39999997616,4,1,413.39999997616,0.7777777777777778,2,object_04,5,643,0,2,7,forest_4,2,memory-2step-stake-s,548,1527009,0.0-19.0-0.0-0.44,AYEEKFSGE2CCO,3X4Q1O9UCK2WXV8VOBT8MFKQE0B7O9,3BQU611VFT00QAQCRLDCS5CU862991,4,3
45,4,object_10,object_05,899.10000002384,7,1,482.5,0.0,1,object_06,1,643,0,0,7,restaurant_8,2,memory-2step-stake-s,549,1534729,0.0-19.0-0.0-0.45,AYEEKFSGE2CCO,3X4Q1O9UCK2WXV8VOBT8MFKQE0B7O9,3BQU611VFT00QAQCRLDCS5CU862991,7,8
46,1,object_09,object_02,586.09999990463,2,2,379.0,0.6666666666666666,2,object_04,5,673,0,1,6,desert_8,2,memory-2step-stake-s,550,1542973,0.0-19.0-0.0-0.46,AYEEKFSGE2CCO,3X4Q1O9UCK2WXV8VOBT8MFKQE0B7O9,3BQU611VFT00QAQCRLDCS5CU862991,1,2
47,4,object_10,object_05,831.0,7,1,468.39999997616,0.4444444444444444,1,object_06,1,677,0,4,8,restaurant_5,2,memory-2step-stake-s,551,1551093,0.0-19.0-0.0-0.47,AYEEKFSGE2CCO,3X4Q1O9UCK2WXV8VOBT8MFKQE0B7O9,3BQU611VFT00QAQCRLDCS5CU862991,7,8
48,4,object_10,object_05,646.80000007153,8,2,593.29999995232,1.0,2,object_04,1,686,0,5,9,restaurant_3,2,memory-2step-stake-s,552,1559866,0.0-19.0-0.0-0.48,AYEEKFSGE2CCO,3X4Q1O9UCK2WXV8VOBT8MFKQE0B7O9,3BQU611VFT00QAQCRLDCS5CU862991,7,8
49,2,object_08,object_03,545.30000007153,4,1,589.60000002384,0.6666666666666666,2,object_04,5,716,0,4,6,forest_4,2,memory-2step-stake-s,553,1568314,0.0-19.0-0.0-0.49,AYEEKFSGE2CCO,3X4Q1O9UCK2WXV8VOBT8MFKQE0B7O9,3BQU611VFT00QAQCRLDCS5CU862991,4,3
50,2,object_08,object_03,798.60000002384,4,1,388.10000002384,0.8888888888888888,2,object_04,5,756,0,5,8,forest_6,2,memory-2step-stake-s,554,1576773,0.0-19.0-0.0-0.50,AYEEKFSGE2CCO,3X4Q1O9UCK2WXV8VOBT8MFKQE0B7O9,3BQU611VFT00QAQCRLDCS5CU862991,4,3
51,3,object_01,object_07,1205.6000000238,6,1,436.60000002384,1.0,2,object_04,5,801,0,7,9,library_4,2,memory-2step-stake-s,555,1585398,0.0-19.0-0.0-0.51,AYEEKFSGE2CCO,3X4Q1O9UCK2WXV8VOBT8MFKQE0B7O9,3BQU611VFT00QAQCRLDCS5CU862991,6,5
52,1,object_09,object_02,859.0,2,2,332.19999992847,0.8888888888888888,2,object_04,5,841,0,8,8,desert_5,2,memory-2step-stake-s,556,1593814,0.0-19.0-0.0-0.52,AYEEKFSGE2CCO,3X4Q1O9UCK2WXV8VOBT8MFKQE0B7O9,3BQU611VFT00QAQCRLDCS5CU862991,1,2
53,4,object_05,object_10,693.29999995232,8,1,388.60000002384,0.7777777777777778,2,object_04,1,848,0,6,7,restaurant_5,2,memory-2step-stake-s,557,1602176,0.0-19.0-0.0-0.53,AYEEKFSGE2CCO,3X4Q1O9UCK2WXV8VOBT8MFKQE0B7O9,3BQU611VFT00QAQCRLDCS5CU862991,8,7
54,2,object_08,object_03,1138.7000000477,4,1,438.60000002384,1.0,2,object_04,5,893,0,6,9,forest_7,2,memory-2step-stake-s,558,1610801,0.0-19.0-0.0-0.54,AYEEKFSGE2CCO,3X4Q1O9UCK2WXV8VOBT8MFKQE0B7O9,3BQU611VFT00QAQCRLDCS5CU862991,4,3
55,1,object_02,object_09,565.90000009537,2,1,419.39999997616,0.8888888888888888,2,object_04,5,933,0,7,8,desert_8,2,memory-2step-stake-s,559,1619308,0.0-19.0-0.0-0.55,AYEEKFSGE2CCO,3X4Q1O9UCK2WXV8VOBT8MFKQE0B7O9,3BQU611VFT00QAQCRLDCS5CU862991,2,1
56,1,object_09,object_02,582.10000002384,2,2,331.5,0.6666666666666666,2,object_04,5,963,0,7,6,desert_6,2,memory-2step-stake-s,560,1627511,0.0-19.0-0.0-0.56,AYEEKFSGE2CCO,3X4Q1O9UCK2WXV8VOBT8MFKQE0B7O9,3BQU611VFT00QAQCRLDCS5CU862991,1,2
57,2,object_03,object_08,576.29999995232,4,2,501.80000007153,0.5555555555555556,2,object_04,1,968,0,4,5,forest_6,2,memory-2step-stake-s,561,1635778,0.0-19.0-0.0-0.57,AYEEKFSGE2CCO,3X4Q1O9UCK2WXV8VOBT8MFKQE0B7O9,3BQU611VFT00QAQCRLDCS5CU862991,3,4
58,3,object_01,object_07,763.60000002384,6,1,349.89999997616,0.5555555555555556,2,object_04,1,973,0,4,5,library_7,2,memory-2step-stake-s,562,1643895,0.0-19.0-0.0-0.58,AYEEKFSGE2CCO,3X4Q1O9UCK2WXV8VOBT8MFKQE0B7O9,3BQU611VFT00QAQCRLDCS5CU862991,6,5
59,4,object_05,object_10,743.30000007153,8,1,686.0,1.0,2,object_04,5,1018,0,3,9,restaurant_5,2,memory-2step-stake-s,563,1652775,0.0-19.0-0.0-0.59,AYEEKFSGE2CCO,3X4Q1O9UCK2WXV8VOBT8MFKQE0B7O9,3BQU611VFT00QAQCRLDCS5CU862991,8,7
60,3,object_01,object_07,601.30000007153,6,1,460.30000007153,0.8888888888888888,2,object_04,5,1058,0,4,8,library_4,2,memory-2step-stake-s,564,1661331,0.0-19.0-0.0-0.60,AYEEKFSGE2CCO,3X4Q1O9UCK2WXV8VOBT8MFKQE0B7O9,3BQU611VFT00QAQCRLDCS5CU862991,6,5
61,4,object_05,object_10,509.0,8,1,714.69999992847,0.5555555555555556,2,object_04,1,1063,0,6,5,restaurant_3,2,memory-2step-stake-s,565,1669816,0.0-19.0-0.0-0.61,AYEEKFSGE2CCO,3X4Q1O9UCK2WXV8VOBT8MFKQE0B7O9,3BQU611VFT00QAQCRLDCS5CU862991,8,7
62,3,object_01,object_07,587.29999995232,6,1,347.70000004768,0.5555555555555556,2,object_04,1,1068,0,3,5,library_7,2,memory-2step-stake-s,566,1677934,0.0-19.0-0.0-0.62,AYEEKFSGE2CCO,3X4Q1O9UCK2WXV8VOBT8MFKQE0B7O9,3BQU611VFT00QAQCRLDCS5CU862991,6,5
63,4,object_05,object_10,518.39999997616,8,1,365.09999990463,0.5555555555555556,2,object_04,5,1093,0,2,5,restaurant_8,2,memory-2step-stake-s,567,1686073,0.0-19.0-0.0-0.63,AYEEKFSGE2CCO,3X4Q1O9UCK2WXV8VOBT8MFKQE0B7O9,3BQU611VFT00QAQCRLDCS5CU862991,8,7
64,4,object_10,object_05,722.5,7,1,388.69999992847,0.0,1,object_06,1,1093,0,0,7,restaurant_5,2,memory-2step-stake-s,568,1693705,0.0-19.0-0.0-0.64,AYEEKFSGE2CCO,3X4Q1O9UCK2WXV8VOBT8MFKQE0B7O9,3BQU611VFT00QAQCRLDCS5CU862991,7,8
65,1,object_09,object_02,701.69999992847,2,2,402.0,0.8888888888888888,2,object_04,5,1133,0,2,8,desert_2,2,memory-2step-stake-s,569,1702201,0.0-19.0-0.0-0.65,AYEEKFSGE2CCO,3X4Q1O9UCK2WXV8VOBT8MFKQE0B7O9,3BQU611VFT00QAQCRLDCS5CU862991,1,2
66,3,object_01,object_07,568.89999997616,6,1,424.40000009537,1.0,2,object_04,1,1142,0,4,9,library_3,2,memory-2step-stake-s,570,1710820,0.0-19.0-0.0-0.66,AYEEKFSGE2CCO,3X4Q1O9UCK2WXV8VOBT8MFKQE0B7O9,3BQU611VFT00QAQCRLDCS5CU862991,6,5
67,1,object_02,object_09,727.60000002384,2,1,938.40000009537,0.8888888888888888,2,object_04,5,1182,0,3,8,desert_8,2,memory-2step-stake-s,571,1719844,0.0-19.0-0.0-0.67,AYEEKFSGE2CCO,3X4Q1O9UCK2WXV8VOBT8MFKQE0B7O9,3BQU611VFT00QAQCRLDCS5CU862991,2,1
68,2,object_03,object_08,814.90000009537,4,2,448.60000002384,0.4444444444444444,2,object_04,5,1202,0,1,4,forest_6,2,memory-2step-stake-s,572,1727962,0.0-19.0-0.0-0.68,AYEEKFSGE2CCO,3X4Q1O9UCK2WXV8VOBT8MFKQE0B7O9,3BQU611VFT00QAQCRLDCS5CU862991,3,4
69,4,object_05,object_10,839.20000004768,8,1,564.39999997616,0.1111111111111111,2,object_04,1,1203,0,2,1,restaurant_5,2,memory-2step-stake-s,573,1735877,0.0-19.0-0.0-0.69,AYEEKFSGE2CCO,3X4Q1O9UCK2WXV8VOBT8MFKQE0B7O9,3BQU611VFT00QAQCRLDCS5CU862991,8,7
70,2,object_08,object_03,845.70000004768,3,2,377.70000004768,0.5555555555555556,1,object_06,5,1228,0,5,1,forest_7,2,memory-2step-stake-s,574,1744032,0.0-19.0-0.0-0.70,AYEEKFSGE2CCO,3X4Q1O9UCK2WXV8VOBT8MFKQE0B7O9,3BQU611VFT00QAQCRLDCS5CU862991,4,3
71,4,object_05,object_10,603.70000004768,7,2,485.30000007153,0.8888888888888888,1,object_06,1,1236,0,8,1,restaurant_8,2,memory-2step-stake-s,575,1752603,0.0-19.0-0.0-0.71,AYEEKFSGE2CCO,3X4Q1O9UCK2WXV8VOBT8MFKQE0B7O9,3BQU611VFT00QAQCRLDCS5CU862991,8,7
72,2,object_08,object_03,692.60000002384,3,2,376.60000002384,0.6666666666666666,1,object_06,5,1266,0,6,0,forest_6,2,memory-2step-stake-s,576,1760859,0.0-19.0-0.0-0.72,AYEEKFSGE2CCO,3X4Q1O9UCK2WXV8VOBT8MFKQE0B7O9,3BQU611VFT00QAQCRLDCS5CU862991,4,3
73,1,object_02,object_09,786.20000004768,1,2,364.19999992847,0.4444444444444444,1,object_06,5,1286,0,4,1,desert_8,2,memory-2step-stake-s,577,1768891,0.0-19.0-0.0-0.73,AYEEKFSGE2CCO,3X4Q1O9UCK2WXV8VOBT8MFKQE0B7O9,3BQU611VFT00QAQCRLDCS5CU862991,2,1
74,1,object_02,object_09,768.70000004768,1,2,383.5,0.2222222222222222,1,object_06,5,1296,0,2,3,desert_2,2,memory-2step-stake-s,578,1776737,0.0-19.0-0.0-0.74,AYEEKFSGE2CCO,3X4Q1O9UCK2WXV8VOBT8MFKQE0B7O9,3BQU611VFT00QAQCRLDCS5CU862991,2,1
75,3,object_01,object_07,873.70000004768,6,1,331.60000002384,0.5555555555555556,2,object_04,1,1301,0,1,5,library_1,2,memory-2step-stake-s,579,1784844,0.0-19.0-0.0-0.75,AYEEKFSGE2CCO,3X4Q1O9UCK2WXV8VOBT8MFKQE0B7O9,3BQU611VFT00QAQCRLDCS5CU862991,6,5
76,3,object_01,object_07,616.39999997616,6,1,358.5,0.7777777777777778,2,object_04,1,1308,0,2,7,library_1,2,memory-2step-stake-s,580,1793190,0.0-19.0-0.0-0.76,AYEEKFSGE2CCO,3X4Q1O9UCK2WXV8VOBT8MFKQE0B7O9,3BQU611VFT00QAQCRLDCS5CU862991,6,5
77,3,object_07,object_01,762.29999995232,6,2,455.29999995232,0.8888888888888888,2,object_04,1,1316,0,3,8,library_7,2,memory-2step-stake-s,581,1801740,0.0-19.0-0.0-0.77,AYEEKFSGE2CCO,3X4Q1O9UCK2WXV8VOBT8MFKQE0B7O9,3BQU611VFT00QAQCRLDCS5CU862991,5,6
78,4,object_05,object_10,1029.1999999285,8,1,751.19999992847,0.8888888888888888,2,object_04,1,1324,0,0,8,restaurant_5,2,memory-2step-stake-s,582,1810578,0.0-19.0-0.0-0.78,AYEEKFSGE2CCO,3X4Q1O9UCK2WXV8VOBT8MFKQE0B7O9,3BQU611VFT00QAQCRLDCS5CU862991,8,7
79,4,object_10,object_05,495.89999997616,8,2,458.30000007153,0.7777777777777778,2,object_04,1,1331,0,3,7,restaurant_8,2,memory-2step-stake-s,583,1818978,0.0-19.0-0.0-0.79,AYEEKFSGE2CCO,3X4Q1O9UCK2WXV8VOBT8MFKQE0B7O9,3BQU611VFT00QAQCRLDCS5CU862991,7,8
80,4,object_10,object_05,507.29999995232,8,2,345.70000004768,0.7777777777777778,2,object_04,1,1338,0,4,7,restaurant_7,2,memory-2step-stake-s,584,1827266,0.0-19.0-0.0-0.80,AYEEKFSGE2CCO,3X4Q1O9UCK2WXV8VOBT8MFKQE0B7O9,3BQU611VFT00QAQCRLDCS5CU862991,7,8
81,3,object_01,object_07,547.89999997616,6,1,472.69999992847,0.8888888888888888,2,object_04,1,1346,0,6,8,library_3,2,memory-2step-stake-s,585,1835773,0.0-19.0-0.0-0.81,AYEEKFSGE2CCO,3X4Q1O9UCK2WXV8VOBT8MFKQE0B7O9,3BQU611VFT00QAQCRLDCS5CU862991,6,5
82,3,object_01,object_07,639.89999997616,6,1,528.20000004768,0.6666666666666666,2,object_04,1,1352,0,5,6,library_1,2,memory-2step-stake-s,586,1844147,0.0-19.0-0.0-0.82,AYEEKFSGE2CCO,3X4Q1O9UCK2WXV8VOBT8MFKQE0B7O9,3BQU611VFT00QAQCRLDCS5CU862991,6,5
83,1,object_02,object_09,424.10000002384,1,2,509.5,0.8888888888888888,1,object_06,5,1392,0,8,6,desert_6,2,memory-2step-stake-s,587,1852696,0.0-19.0-0.0-0.83,AYEEKFSGE2CCO,3X4Q1O9UCK2WXV8VOBT8MFKQE0B7O9,3BQU611VFT00QAQCRLDCS5CU862991,2,1
84,1,object_02,object_09,943.0,1,2,444.10000002384,0.7777777777777778,1,object_06,5,1427,0,7,5,desert_2,2,memory-2step-stake-s,588,1861080,0.0-19.0-0.0-0.84,AYEEKFSGE2CCO,3X4Q1O9UCK2WXV8VOBT8MFKQE0B7O9,3BQU611VFT00QAQCRLDCS5CU862991,2,1
85,2,object_08,object_03,726.19999992847,3,2,412.0,1.0,1,object_06,5,1472,0,9,3,forest_6,2,memory-2step-stake-s,589,1869641,0.0-19.0-0.0-0.85,AYEEKFSGE2CCO,3X4Q1O9UCK2WXV8VOBT8MFKQE0B7O9,3BQU611VFT00QAQCRLDCS5CU862991,4,3
86,2,object_08,object_03,1019.1000000238,3,2,361.90000009537,1.0,1,object_06,1,1481,0,9,6,forest_2,2,memory-2step-stake-s,590,1878158,0.0-19.0-0.0-0.86,AYEEKFSGE2CCO,3X4Q1O9UCK2WXV8VOBT8MFKQE0B7O9,3BQU611VFT00QAQCRLDCS5CU862991,4,3
87,4,object_10,object_05,806.60000002384,7,1,389.30000007153,0.8888888888888888,1,object_06,1,1489,0,8,4,restaurant_8,2,memory-2step-stake-s,591,1886585,0.0-19.0-0.0-0.87,AYEEKFSGE2CCO,3X4Q1O9UCK2WXV8VOBT8MFKQE0B7O9,3BQU611VFT00QAQCRLDCS5CU862991,7,8
88,4,object_10,object_05,722.89999997616,7,1,639.89999997616,0.8888888888888888,1,object_06,1,1497,0,8,1,restaurant_5,2,memory-2step-stake-s,592,1895274,0.0-19.0-0.0-0.88,AYEEKFSGE2CCO,3X4Q1O9UCK2WXV8VOBT8MFKQE0B7O9,3BQU611VFT00QAQCRLDCS5CU862991,7,8
89,1,object_02,object_09,1069.5,1,2,410.10000002384,0.7777777777777778,1,object_06,5,1532,0,7,2,desert_5,2,memory-2step-stake-s,593,1903631,0.0-19.0-0.0-0.89,AYEEKFSGE2CCO,3X4Q1O9UCK2WXV8VOBT8MFKQE0B7O9,3BQU611VFT00QAQCRLDCS5CU862991,2,1
90,2,object_08,object_03,668.89999997616,3,2,444.29999995232,0.5555555555555556,1,object_06,1,1537,0,5,2,forest_2,2,memory-2step-stake-s,594,1911812,0.0-19.0-0.0-0.90,AYEEKFSGE2CCO,3X4Q1O9UCK2WXV8VOBT8MFKQE0B7O9,3BQU611VFT00QAQCRLDCS5CU862991,4,3
91,1,object_02,object_09,907.79999995232,1,2,657.70000004768,0.4444444444444444,1,object_06,5,1557,0,4,1,desert_2,2,memory-2step-stake-s,595,1920117,0.0-19.0-0.0-0.91,AYEEKFSGE2CCO,3X4Q1O9UCK2WXV8VOBT8MFKQE0B7O9,3BQU611VFT00QAQCRLDCS5CU862991,2,1
92,4,object_05,object_10,997.90000009537,8,1,407.0,0.1111111111111111,2,object_04,1,1558,0,6,1,restaurant_3,2,memory-2step-stake-s,596,1927856,0.0-19.0-0.0-0.92,AYEEKFSGE2CCO,3X4Q1O9UCK2WXV8VOBT8MFKQE0B7O9,3BQU611VFT00QAQCRLDCS5CU862991,8,7
93,2,object_03,object_08,1237.3000000715,3,1,549.89999997616,0.4444444444444444,1,object_06,5,1578,0,4,1,forest_2,2,memory-2step-stake-s,597,1936049,0.0-19.0-0.0-0.93,AYEEKFSGE2CCO,3X4Q1O9UCK2WXV8VOBT8MFKQE0B7O9,3BQU611VFT00QAQCRLDCS5CU862991,3,4
94,2,object_08,object_03,1017.8000000715,3,2,529.60000002384,0.5555555555555556,1,object_06,5,1603,0,5,2,forest_7,2,memory-2step-stake-s,598,1944320,0.0-19.0-0.0-0.94,AYEEKFSGE2CCO,3X4Q1O9UCK2WXV8VOBT8MFKQE0B7O9,3BQU611VFT00QAQCRLDCS5CU862991,4,3
95,3,object_01,object_07,1401.7999999523,5,2,464.29999995232,0.5555555555555556,1,object_06,1,1608,0,5,6,library_1,2,memory-2step-stake-s,599,1952529,0.0-19.0-0.0-0.95,AYEEKFSGE2CCO,3X4Q1O9UCK2WXV8VOBT8MFKQE0B7O9,3BQU611VFT00QAQCRLDCS5CU862991,6,5
96,3,object_01,object_07,611.70000004768,5,2,393.79999995232,0.4444444444444444,1,object_06,1,1612,0,4,6,library_1,2,memory-2step-stake-s,600,1960561,0.0-19.0-0.0-0.96,AYEEKFSGE2CCO,3X4Q1O9UCK2WXV8VOBT8MFKQE0B7O9,3BQU611VFT00QAQCRLDCS5CU862991,6,5
97,2,object_03,object_08,1220.2000000477,4,2,335.80000007153,0.7777777777777778,2,object_04,5,1647,0,7,7,forest_4,2,memory-2step-stake-s,601,1968844,0.0-19.0-0.0-0.97,AYEEKFSGE2CCO,3X4Q1O9UCK2WXV8VOBT8MFKQE0B7O9,3BQU611VFT00QAQCRLDCS5CU862991,3,4
98,3,object_01,object_07,625.80000007153,6,1,411.10000002384,0.6666666666666666,2,object_04,1,1653,0,9,6,library_3,2,memory-2step-stake-s,602,1977100,0.0-19.0-0.0-0.98,AYEEKFSGE2CCO,3X4Q1O9UCK2WXV8VOBT8MFKQE0B7O9,3BQU611VFT00QAQCRLDCS5CU862991,6,5
99,3,object_07,object_01,786.20000004768,6,2,436.5,0.5555555555555556,2,object_04,1,1658,0,7,5,library_1,2,memory-2step-stake-s,603,1985282,0.0-19.0-0.0-0.99,AYEEKFSGE2CCO,3X4Q1O9UCK2WXV8VOBT8MFKQE0B7O9,3BQU611VFT00QAQCRLDCS5CU862991,5,6
100,4,object_05,object_10,1117.4000000954,8,1,627.39999997616,0.4444444444444444,2,object_04,1,1662,0,9,4,restaurant_3,2,memory-2step-stake-s,604,1993559,0.0-19.0-0.0-0.100,AYEEKFSGE2CCO,3X4Q1O9UCK2WXV8VOBT8MFKQE0B7O9,3BQU611VFT00QAQCRLDCS5CU862991,8,7
101,1,object_09,object_02,1413.0999999046,1,1,296.89999997616,0.7777777777777778,1,object_06,1,1669,0,7,3,desert_2,2,memory-2step-stake-s,605,2001799,0.0-19.0-0.0-0.101,AYEEKFSGE2CCO,3X4Q1O9UCK2WXV8VOBT8MFKQE0B7O9,3BQU611VFT00QAQCRLDCS5CU862991,1,2
102,4,object_10,object_05,616.29999995232,7,1,23.899999976158,0.5555555555555556,1,object_06,1,1674,0,5,3,restaurant_5,2,memory-2step-stake-s,606,2009570,0.0-19.0-0.0-0.102,AYEEKFSGE2CCO,3X4Q1O9UCK2WXV8VOBT8MFKQE0B7O9,3BQU611VFT00QAQCRLDCS5CU862991,7,8
103,2,object_03,object_08,1288.7999999523,3,1,359.60000002384,0.6666666666666666,1,object_06,5,1704,0,6,5,forest_7,2,memory-2step-stake-s,607,2017779,0.0-19.0-0.0-0.103,AYEEKFSGE2CCO,3X4Q1O9UCK2WXV8VOBT8MFKQE0B7O9,3BQU611VFT00QAQCRLDCS5CU862991,3,4
104,3,object_01,object_07,525.5,5,2,341.70000004768,0.8888888888888888,1,object_06,1,1712,0,8,7,library_4,2,memory-2step-stake-s,608,2026174,0.0-19.0-0.0-0.104,AYEEKFSGE2CCO,3X4Q1O9UCK2WXV8VOBT8MFKQE0B7O9,3BQU611VFT00QAQCRLDCS5CU862991,6,5
105,1,object_09,object_02,929.89999997616,1,1,312.80000007153,0.8888888888888888,1,object_06,5,1752,0,8,6,desert_2,2,memory-2step-stake-s,609,2034552,0.0-19.0-0.0-0.105,AYEEKFSGE2CCO,3X4Q1O9UCK2WXV8VOBT8MFKQE0B7O9,3BQU611VFT00QAQCRLDCS5CU862991,1,2
106,1,object_02,object_09,773.89999997616,1,2,315.79999995232,0.4444444444444444,1,object_06,5,1772,0,4,5,desert_2,2,memory-2step-stake-s,610,2042515,0.0-19.0-0.0-0.106,AYEEKFSGE2CCO,3X4Q1O9UCK2WXV8VOBT8MFKQE0B7O9,3BQU611VFT00QAQCRLDCS5CU862991,2,1
107,1,object_09,object_02,747.10000002384,1,1,294.70000004768,0.7777777777777778,1,object_06,1,1779,0,7,6,desert_6,2,memory-2step-stake-s,611,2050756,0.0-19.0-0.0-0.107,AYEEKFSGE2CCO,3X4Q1O9UCK2WXV8VOBT8MFKQE0B7O9,3BQU611VFT00QAQCRLDCS5CU862991,1,2
108,1,object_02,object_09,499.40000009537,1,2,323.70000004768,0.3333333333333333,1,object_06,5,1794,0,3,5,desert_6,2,memory-2step-stake-s,612,2058623,0.0-19.0-0.0-0.108,AYEEKFSGE2CCO,3X4Q1O9UCK2WXV8VOBT8MFKQE0B7O9,3BQU611VFT00QAQCRLDCS5CU862991,2,1
109,1,object_02,object_09,795.5,2,1,258.0,0.3333333333333333,2,object_04,5,1809,0,3,3,desert_6,2,memory-2step-stake-s,613,2066425,0.0-19.0-0.0-0.109,AYEEKFSGE2CCO,3X4Q1O9UCK2WXV8VOBT8MFKQE0B7O9,3BQU611VFT00QAQCRLDCS5CU862991,2,1
110,2,object_03,object_08,897.80000007153,3,1,324.79999995232,0.5555555555555556,1,object_06,5,1834,0,5,4,forest_6,2,memory-2step-stake-s,614,2074495,0.0-19.0-0.0-0.110,AYEEKFSGE2CCO,3X4Q1O9UCK2WXV8VOBT8MFKQE0B7O9,3BQU611VFT00QAQCRLDCS5CU862991,3,4
111,1,object_09,object_02,715.10000002384,1,1,294.20000004768,0.8888888888888888,1,object_06,1,1842,0,8,5,desert_6,2,memory-2step-stake-s,615,2082853,0.0-19.0-0.0-0.111,AYEEKFSGE2CCO,3X4Q1O9UCK2WXV8VOBT8MFKQE0B7O9,3BQU611VFT00QAQCRLDCS5CU862991,1,2
112,1,object_02,object_09,566.5,1,2,475.89999997616,0.8888888888888888,1,object_06,5,1882,0,8,5,desert_5,2,memory-2step-stake-s,616,2091381,0.0-19.0-0.0-0.112,AYEEKFSGE2CCO,3X4Q1O9UCK2WXV8VOBT8MFKQE0B7O9,3BQU611VFT00QAQCRLDCS5CU862991,2,1
113,3,object_01,object_07,558.0,6,1,54.200000047684,0.3333333333333333,2,object_04,1,1885,0,9,3,library_4,2,memory-2step-stake-s,617,2098981,0.0-19.0-0.0-0.113,AYEEKFSGE2CCO,3X4Q1O9UCK2WXV8VOBT8MFKQE0B7O9,3BQU611VFT00QAQCRLDCS5CU862991,6,5
114,1,object_02,object_09,917.29999995232,1,2,356.70000004768,0.8888888888888888,1,object_06,1,1893,0,8,6,desert_2,2,memory-2step-stake-s,618,2107387,0.0-19.0-0.0-0.114,AYEEKFSGE2CCO,3X4Q1O9UCK2WXV8VOBT8MFKQE0B7O9,3BQU611VFT00QAQCRLDCS5CU862991,2,1
115,4,object_10,object_05,632.19999992847,7,1,297.89999997616,0.8888888888888888,1,object_06,5,1933,0,8,8,restaurant_5,2,memory-2step-stake-s,619,2115750,0.0-19.0-0.0-0.115,AYEEKFSGE2CCO,3X4Q1O9UCK2WXV8VOBT8MFKQE0B7O9,3BQU611VFT00QAQCRLDCS5CU862991,7,8
116,1,object_09,object_02,866.20000004768,1,1,455.29999995232,0.6666666666666666,1,object_06,1,1939,0,6,7,desert_6,2,memory-2step-stake-s,620,2124067,0.0-19.0-0.0-0.116,AYEEKFSGE2CCO,3X4Q1O9UCK2WXV8VOBT8MFKQE0B7O9,3BQU611VFT00QAQCRLDCS5CU862991,1,2
117,1,object_02,object_09,557.69999992847,1,2,270.89999997616,0.7777777777777778,1,object_06,5,1974,0,7,8,desert_2,2,memory-2step-stake-s,621,2132283,0.0-19.0-0.0-0.117,AYEEKFSGE2CCO,3X4Q1O9UCK2WXV8VOBT8MFKQE0B7O9,3BQU611VFT00QAQCRLDCS5CU862991,2,1
118,2,object_03,object_08,662.20000004768,3,1,404.70000004768,0.6666666666666666,1,object_06,5,2004,0,6,8,forest_7,2,memory-2step-stake-s,622,2140550,0.0-19.0-0.0-0.118,AYEEKFSGE2CCO,3X4Q1O9UCK2WXV8VOBT8MFKQE0B7O9,3BQU611VFT00QAQCRLDCS5CU862991,3,4
119,4,object_05,object_10,1001.8000000715,7,2,464.60000002384,0.6666666666666666,1,object_06,1,2010,0,6,8,restaurant_8,2,memory-2step-stake-s,623,2148860,0.0-19.0-0.0-0.119,AYEEKFSGE2CCO,3X4Q1O9UCK2WXV8VOBT8MFKQE0B7O9,3BQU611VFT00QAQCRLDCS5CU862991,8,7
120,3,object_07,object_01,681.80000007153,5,1,312.79999995232,0.7777777777777778,1,object_06,5,2045,0,7,6,library_3,2,memory-2step-stake-s,624,2157127,0.0-19.0-0.0-0.120,AYEEKFSGE2CCO,3X4Q1O9UCK2WXV8VOBT8MFKQE0B7O9,3BQU611VFT00QAQCRLDCS5CU862991,5,6
121,3,object_01,object_07,426.5,5,2,271.69999992847,1.0,1,object_06,1,2054,0,9,4,library_3,2,memory-2step-stake-s,625,2165548,0.0-19.0-0.0-0.121,AYEEKFSGE2CCO,3X4Q1O9UCK2WXV8VOBT8MFKQE0B7O9,3BQU611VFT00QAQCRLDCS5CU862991,6,5
122,2,object_03,object_08,892.60000002384,3,1,710.39999997616,0.4444444444444444,1,object_06,5,2074,0,4,5,forest_7,2,memory-2step-stake-s,626,2173911,0.0-19.0-0.0-0.122,AYEEKFSGE2CCO,3X4Q1O9UCK2WXV8VOBT8MFKQE0B7O9,3BQU611VFT00QAQCRLDCS5CU862991,3,4
123,2,object_08,object_03,498.39999997616,4,1,402.79999995232,0.1111111111111111,2,object_04,1,2075,0,2,1,forest_2,2,memory-2step-stake-s,627,2181655,0.0-19.0-0.0-0.123,AYEEKFSGE2CCO,3X4Q1O9UCK2WXV8VOBT8MFKQE0B7O9,3BQU611VFT00QAQCRLDCS5CU862991,4,3
124,3,object_07,object_01,472.0,5,1,321.30000007153,0.1111111111111111,1,object_06,1,2076,0,1,0,library_4,2,memory-2step-stake-s,628,2189319,0.0-19.0-0.0-0.124,AYEEKFSGE2CCO,3X4Q1O9UCK2WXV8VOBT8MFKQE0B7O9,3BQU611VFT00QAQCRLDCS5CU862991,5,6
125,1,object_02,object_09,1024.1000000238,2,1,311.30000007153,0.0,2,object_04,5,2076,0,1,0,desert_6,2,memory-2step-stake-s,629,2196874,0.0-19.0-0.0-0.125,AYEEKFSGE2CCO,3X4Q1O9UCK2WXV8VOBT8MFKQE0B7O9,3BQU611VFT00QAQCRLDCS5CU862991,2,1
126,2,object_08,object_03,1221.6999999285,4,1,497.60000002384,0.4444444444444444,2,object_04,5,2096,0,1,4,forest_4,2,memory-2step-stake-s,630,2205016,0.0-19.0-0.0-0.126,AYEEKFSGE2CCO,3X4Q1O9UCK2WXV8VOBT8MFKQE0B7O9,3BQU611VFT00QAQCRLDCS5CU862991,4,3
127,4,object_05,object_10,855.60000002384,8,1,245.30000007153,0.7777777777777778,2,object_04,1,2103,0,1,7,restaurant_3,2,memory-2step-stake-s,631,2213219,0.0-19.0-0.0-0.127,AYEEKFSGE2CCO,3X4Q1O9UCK2WXV8VOBT8MFKQE0B7O9,3BQU611VFT00QAQCRLDCS5CU862991,8,7
128,3,object_01,object_07,824.39999997616,5,2,316.60000002384,0.1111111111111111,1,object_06,1,2104,0,1,5,library_4,2,memory-2step-stake-s,633,2659157,0.0-19.0-0.1-0.128,AYEEKFSGE2CCO,3X4Q1O9UCK2WXV8VOBT8MFKQE0B7O9,3BQU611VFT00QAQCRLDCS5CU862991,6,5
129,4,object_10,object_05,936.0,8,2,573.20000004768,0.5555555555555556,2,object_04,1,2109,0,2,5,restaurant_3,2,memory-2step-stake-s,634,2667472,0.0-19.0-0.1-0.129,AYEEKFSGE2CCO,3X4Q1O9UCK2WXV8VOBT8MFKQE0B7O9,3BQU611VFT00QAQCRLDCS5CU862991,7,8
130,2,object_08,object_03,887.19999992847,4,1,378.29999995232,0.3333333333333333,2,object_04,5,2124,0,3,3,forest_4,2,memory-2step-stake-s,635,2675403,0.0-19.0-0.1-0.130,AYEEKFSGE2CCO,3X4Q1O9UCK2WXV8VOBT8MFKQE0B7O9,3BQU611VFT00QAQCRLDCS5CU862991,4,3
131,3,object_01,object_07,681.79999995232,6,1,264.79999995232,0.3333333333333333,2,object_04,1,2127,0,1,3,library_1,2,memory-2step-stake-s,636,2683222,0.0-19.0-0.1-0.131,AYEEKFSGE2CCO,3X4Q1O9UCK2WXV8VOBT8MFKQE0B7O9,3BQU611VFT00QAQCRLDCS5CU862991,6,5
132,2,object_08,object_03,772.5,4,1,341.0,0.4444444444444444,2,object_04,5,2147,0,1,4,forest_4,2,memory-2step-stake-s,637,2691217,0.0-19.0-0.1-0.132,AYEEKFSGE2CCO,3X4Q1O9UCK2WXV8VOBT8MFKQE0B7O9,3BQU611VFT00QAQCRLDCS5CU862991,4,3
133,4,object_05,object_10,843.5,8,1,885.59999990463,0.2222222222222222,2,object_04,1,2149,0,3,2,restaurant_7,2,memory-2step-stake-s,638,2699553,0.0-19.0-0.1-0.133,AYEEKFSGE2CCO,3X4Q1O9UCK2WXV8VOBT8MFKQE0B7O9,3BQU611VFT00QAQCRLDCS5CU862991,8,7
134,4,object_10,object_05,550.29999995232,7,1,388.0,0.5555555555555556,1,object_06,1,2154,0,5,4,restaurant_3,2,memory-2step-stake-s,639,2707697,0.0-19.0-0.1-0.134,AYEEKFSGE2CCO,3X4Q1O9UCK2WXV8VOBT8MFKQE0B7O9,3BQU611VFT00QAQCRLDCS5CU862991,7,8
135,4,object_10,object_05,499.80000007153,7,1,324.5,0.2222222222222222,1,object_06,1,2156,0,2,4,restaurant_7,2,memory-2step-stake-s,640,2715468,0.0-19.0-0.1-0.135,AYEEKFSGE2CCO,3X4Q1O9UCK2WXV8VOBT8MFKQE0B7O9,3BQU611VFT00QAQCRLDCS5CU862991,7,8
136,1,object_02,object_09,702.0,1,2,270.39999997616,0.2222222222222222,1,object_06,5,2166,0,2,4,desert_8,2,memory-2step-stake-s,641,2723191,0.0-19.0-0.1-0.136,AYEEKFSGE2CCO,3X4Q1O9UCK2WXV8VOBT8MFKQE0B7O9,3BQU611VFT00QAQCRLDCS5CU862991,2,1
137,3,object_01,object_07,893.89999997616,6,1,236.70000004768,0.1111111111111111,2,object_04,1,2167,0,1,1,library_4,2,memory-2step-stake-s,642,2730770,0.0-19.0-0.1-0.137,AYEEKFSGE2CCO,3X4Q1O9UCK2WXV8VOBT8MFKQE0B7O9,3BQU611VFT00QAQCRLDCS5CU862991,6,5
138,4,object_10,object_05,587.80000007153,8,2,297.5,0.1111111111111111,2,object_04,5,2172,0,1,1,restaurant_3,2,memory-2step-stake-s,643,2738407,0.0-19.0-0.1-0.138,AYEEKFSGE2CCO,3X4Q1O9UCK2WXV8VOBT8MFKQE0B7O9,3BQU611VFT00QAQCRLDCS5CU862991,7,8
139,2,object_03,object_08,856.69999992847,3,1,471.89999997616,0.2222222222222222,1,object_06,5,2182,0,2,0,forest_7,2,memory-2step-stake-s,644,2746327,0.0-19.0-0.1-0.139,AYEEKFSGE2CCO,3X4Q1O9UCK2WXV8VOBT8MFKQE0B7O9,3BQU611VFT00QAQCRLDCS5CU862991,3,4
140,1,object_02,object_09,651.89999997616,1,2,273.0,0.5555555555555556,1,object_06,5,2207,0,5,0,desert_2,2,memory-2step-stake-s,645,2754360,0.0-19.0-0.1-0.140,AYEEKFSGE2CCO,3X4Q1O9UCK2WXV8VOBT8MFKQE0B7O9,3BQU611VFT00QAQCRLDCS5CU862991,2,1
141,2,object_03,object_08,741.30000007153,3,1,399.60000002384,0.7777777777777778,1,object_06,1,2214,0,7,3,forest_2,2,memory-2step-stake-s,646,2762723,0.0-19.0-0.1-0.141,AYEEKFSGE2CCO,3X4Q1O9UCK2WXV8VOBT8MFKQE0B7O9,3BQU611VFT00QAQCRLDCS5CU862991,3,4
142,3,object_01,object_07,706.0,5,2,559.29999995232,0.7777777777777778,1,object_06,1,2221,0,7,3,library_7,2,memory-2step-stake-s,647,2771245,0.0-19.0-0.1-0.142,AYEEKFSGE2CCO,3X4Q1O9UCK2WXV8VOBT8MFKQE0B7O9,3BQU611VFT00QAQCRLDCS5CU862991,6,5
143,4,object_05,object_10,689.70000004768,7,2,430.19999992847,0.4444444444444444,1,object_06,1,2225,0,4,2,restaurant_8,2,memory-2step-stake-s,648,2779331,0.0-19.0-0.1-0.143,AYEEKFSGE2CCO,3X4Q1O9UCK2WXV8VOBT8MFKQE0B7O9,3BQU611VFT00QAQCRLDCS5CU862991,8,7
144,1,object_02,object_09,652.20000004768,2,1,303.80000007153,0.2222222222222222,2,object_04,5,2235,0,3,2,desert_2,2,memory-2step-stake-s,649,2787075,0.0-19.0-0.1-0.144,AYEEKFSGE2CCO,3X4Q1O9UCK2WXV8VOBT8MFKQE0B7O9,3BQU611VFT00QAQCRLDCS5CU862991,2,1
145,1,object_09,object_02,887.59999990463,1,1,330.0,0.4444444444444444,1,object_06,5,2255,0,4,7,desert_6,2,memory-2step-stake-s,650,2795060,0.0-19.0-0.1-0.145,AYEEKFSGE2CCO,3X4Q1O9UCK2WXV8VOBT8MFKQE0B7O9,3BQU611VFT00QAQCRLDCS5CU862991,1,2
146,2,object_08,object_03,668.60000002384,3,2,257.10000002384,0.4444444444444444,1,object_06,5,2275,0,4,7,forest_6,2,memory-2step-stake-s,651,2802966,0.0-19.0-0.1-0.146,AYEEKFSGE2CCO,3X4Q1O9UCK2WXV8VOBT8MFKQE0B7O9,3BQU611VFT00QAQCRLDCS5CU862991,4,3
147,4,object_05,object_10,962.70000004768,7,2,425.30000007153,0.2222222222222222,1,object_06,1,2277,0,2,8,restaurant_8,2,memory-2step-stake-s,652,2810836,0.0-19.0-0.1-0.147,AYEEKFSGE2CCO,3X4Q1O9UCK2WXV8VOBT8MFKQE0B7O9,3BQU611VFT00QAQCRLDCS5CU862991,8,7
148,4,object_05,object_10,551.69999992847,8,1,285.80000007153,0.4444444444444444,2,object_04,5,2297,0,4,4,restaurant_7,2,memory-2step-stake-s,653,2818778,0.0-19.0-0.1-0.148,AYEEKFSGE2CCO,3X4Q1O9UCK2WXV8VOBT8MFKQE0B7O9,3BQU611VFT00QAQCRLDCS5CU862991,8,7
149,2,object_03,object_08,689.39999997616,4,2,275.19999992847,0.4444444444444444,2,object_04,5,2317,0,3,4,forest_7,2,memory-2step-stake-s,654,2826703,0.0-19.0-0.1-0.149,AYEEKFSGE2CCO,3X4Q1O9UCK2WXV8VOBT8MFKQE0B7O9,3BQU611VFT00QAQCRLDCS5CU862991,3,4
150,4,object_10,object_05,682.5,8,2,269.5,0.3333333333333333,2,object_04,1,2320,0,2,3,restaurant_3,2,memory-2step-stake-s,655,2834517,0.0-19.0-0.1-0.150,AYEEKFSGE2CCO,3X4Q1O9UCK2WXV8VOBT8MFKQE0B7O9,3BQU611VFT00QAQCRLDCS5CU862991,7,8
151,3,object_01,object_07,739.0,6,1,1047.4000000954,0.7777777777777778,2,object_04,5,2355,0,2,7,library_7,2,memory-2step-stake-s,656,2843552,0.0-19.0-0.1-0.151,AYEEKFSGE2CCO,3X4Q1O9UCK2WXV8VOBT8MFKQE0B7O9,3BQU611VFT00QAQCRLDCS5CU862991,6,5
152,1,object_02,object_09,855.90000009537,2,1,242.39999997616,0.7777777777777778,2,object_04,5,2390,0,5,7,desert_6,2,memory-2step-stake-s,657,2851765,0.0-19.0-0.1-0.152,AYEEKFSGE2CCO,3X4Q1O9UCK2WXV8VOBT8MFKQE0B7O9,3BQU611VFT00QAQCRLDCS5CU862991,2,1
153,3,object_07,object_01,612.20000004768,6,2,454.80000007153,1.0,2,object_04,1,2399,0,3,9,library_3,2,memory-2step-stake-s,658,2860400,0.0-19.0-0.1-0.153,AYEEKFSGE2CCO,3X4Q1O9UCK2WXV8VOBT8MFKQE0B7O9,3BQU611VFT00QAQCRLDCS5CU862991,5,6
154,4,object_05,object_10,601.20000004768,8,1,386.29999995232,0.8888888888888888,2,object_04,1,2407,0,2,8,restaurant_8,2,memory-2step-stake-s,659,2868880,0.0-19.0-0.1-0.154,AYEEKFSGE2CCO,3X4Q1O9UCK2WXV8VOBT8MFKQE0B7O9,3BQU611VFT00QAQCRLDCS5CU862991,8,7
155,2,object_03,object_08,1004.6000000238,4,2,519.60000002384,0.5555555555555556,2,object_04,5,2432,0,0,5,forest_4,2,memory-2step-stake-s,660,2877163,0.0-19.0-0.1-0.155,AYEEKFSGE2CCO,3X4Q1O9UCK2WXV8VOBT8MFKQE0B7O9,3BQU611VFT00QAQCRLDCS5CU862991,3,4
156,3,object_01,object_07,738.89999997616,6,1,302.20000004768,0.6666666666666666,2,object_04,1,2438,0,2,6,library_7,2,memory-2step-stake-s,661,2885334,0.0-19.0-0.1-0.156,AYEEKFSGE2CCO,3X4Q1O9UCK2WXV8VOBT8MFKQE0B7O9,3BQU611VFT00QAQCRLDCS5CU862991,6,5
157,2,object_08,object_03,941.5,4,1,665.39999997616,0.6666666666666666,2,object_04,1,2444,0,1,6,forest_4,2,memory-2step-stake-s,662,2893884,0.0-19.0-0.1-0.157,AYEEKFSGE2CCO,3X4Q1O9UCK2WXV8VOBT8MFKQE0B7O9,3BQU611VFT00QAQCRLDCS5CU862991,4,3
158,1,object_09,object_02,1128.0,2,2,374.5,0.5555555555555556,2,object_04,5,2469,0,2,5,desert_5,2,memory-2step-stake-s,663,2902024,0.0-19.0-0.1-0.158,AYEEKFSGE2CCO,3X4Q1O9UCK2WXV8VOBT8MFKQE0B7O9,3BQU611VFT00QAQCRLDCS5CU862991,1,2
159,3,object_01,object_07,818.30000007153,6,1,322.0,0.6666666666666666,2,object_04,1,2475,0,2,6,library_4,2,memory-2step-stake-s,664,2910215,0.0-19.0-0.1-0.159,AYEEKFSGE2CCO,3X4Q1O9UCK2WXV8VOBT8MFKQE0B7O9,3BQU611VFT00QAQCRLDCS5CU862991,6,5
160,1,object_09,object_02,885.0,2,2,310.19999992847,0.5555555555555556,2,object_04,5,2500,0,2,5,desert_8,2,memory-2step-stake-s,665,2918290,0.0-19.0-0.1-0.160,AYEEKFSGE2CCO,3X4Q1O9UCK2WXV8VOBT8MFKQE0B7O9,3BQU611VFT00QAQCRLDCS5CU862991,1,2
161,3,object_01,object_07,588.90000009537,5,2,263.70000004768,0.1111111111111111,1,object_06,1,2501,0,1,8,library_7,2,memory-2step-stake-s,666,2925901,0.0-19.0-0.1-0.161,AYEEKFSGE2CCO,3X4Q1O9UCK2WXV8VOBT8MFKQE0B7O9,3BQU611VFT00QAQCRLDCS5CU862991,6,5
162,3,object_01,object_07,698.60000002384,6,1,247.69999992847,0.8888888888888888,2,object_04,5,2541,0,2,8,library_3,2,memory-2step-stake-s,667,2934210,0.0-19.0-0.1-0.162,AYEEKFSGE2CCO,3X4Q1O9UCK2WXV8VOBT8MFKQE0B7O9,3BQU611VFT00QAQCRLDCS5CU862991,6,5
163,1,object_09,object_02,893.20000004768,2,2,329.69999992847,0.5555555555555556,2,object_04,5,2566,0,4,5,desert_8,2,memory-2step-stake-s,668,2942274,0.0-19.0-0.1-0.163,AYEEKFSGE2CCO,3X4Q1O9UCK2WXV8VOBT8MFKQE0B7O9,3BQU611VFT00QAQCRLDCS5CU862991,1,2
164,4,object_10,object_05,814.60000002384,8,2,72.699999928474,0.2222222222222222,2,object_04,5,2576,0,6,2,restaurant_7,2,memory-2step-stake-s,669,2949774,0.0-19.0-0.1-0.164,AYEEKFSGE2CCO,3X4Q1O9UCK2WXV8VOBT8MFKQE0B7O9,3BQU611VFT00QAQCRLDCS5CU862991,7,8
165,3,object_01,object_07,597.0,6,1,256.30000007153,0.2222222222222222,2,object_04,5,2586,0,7,2,library_3,2,memory-2step-stake-s,670,2957459,0.0-19.0-0.1-0.165,AYEEKFSGE2CCO,3X4Q1O9UCK2WXV8VOBT8MFKQE0B7O9,3BQU611VFT00QAQCRLDCS5CU862991,6,5
166,2,object_03,object_08,797.20000004768,3,1,287.5,0.7777777777777778,1,object_06,5,2621,0,7,3,forest_6,2,memory-2step-stake-s,671,2965685,0.0-19.0-0.1-0.166,AYEEKFSGE2CCO,3X4Q1O9UCK2WXV8VOBT8MFKQE0B7O9,3BQU611VFT00QAQCRLDCS5CU862991,3,4
167,2,object_08,object_03,899.0,3,2,249.40000009537,0.5555555555555556,1,object_06,5,2646,0,5,4,forest_7,2,memory-2step-stake-s,672,2973673,0.0-19.0-0.1-0.167,AYEEKFSGE2CCO,3X4Q1O9UCK2WXV8VOBT8MFKQE0B7O9,3BQU611VFT00QAQCRLDCS5CU862991,4,3
168,1,object_02,object_09,1073.8000000715,1,2,220.20000004768,0.6666666666666666,1,object_06,1,2652,0,6,4,desert_2,2,memory-2step-stake-s,673,2981737,0.0-19.0-0.1-0.168,AYEEKFSGE2CCO,3X4Q1O9UCK2WXV8VOBT8MFKQE0B7O9,3BQU611VFT00QAQCRLDCS5CU862991,2,1
169,4,object_05,object_10,767.89999997616,7,2,46.100000023842,0.4444444444444444,1,object_06,1,2656,0,4,4,restaurant_7,2,memory-2step-stake-s,674,2989412,0.0-19.0-0.1-0.169,AYEEKFSGE2CCO,3X4Q1O9UCK2WXV8VOBT8MFKQE0B7O9,3BQU611VFT00QAQCRLDCS5CU862991,8,7
170,3,object_01,object_07,467.29999995232,5,2,377.89999997616,0.6666666666666666,1,object_06,1,2662,0,6,4,library_3,2,memory-2step-stake-s,675,2997631,0.0-19.0-0.1-0.170,AYEEKFSGE2CCO,3X4Q1O9UCK2WXV8VOBT8MFKQE0B7O9,3BQU611VFT00QAQCRLDCS5CU862991,6,5
171,2,object_08,object_03,929.30000007153,3,2,481.30000007153,0.4444444444444444,1,object_06,1,2666,0,4,3,forest_7,2,memory-2step-stake-s,676,3005748,0.0-19.0-0.1-0.171,AYEEKFSGE2CCO,3X4Q1O9UCK2WXV8VOBT8MFKQE0B7O9,3BQU611VFT00QAQCRLDCS5CU862991,4,3
172,1,object_02,object_09,1028.8999999762,1,2,214.39999997616,0.3333333333333333,1,object_06,5,2681,0,3,2,desert_5,2,memory-2step-stake-s,677,3013495,0.0-19.0-0.1-0.172,AYEEKFSGE2CCO,3X4Q1O9UCK2WXV8VOBT8MFKQE0B7O9,3BQU611VFT00QAQCRLDCS5CU862991,2,1
173,3,object_01,object_07,1324.7000000477,6,1,317.0,0.1111111111111111,2,object_04,1,2682,0,5,1,library_7,2,memory-2step-stake-s,678,3021141,0.0-19.0-0.1-0.173,AYEEKFSGE2CCO,3X4Q1O9UCK2WXV8VOBT8MFKQE0B7O9,3BQU611VFT00QAQCRLDCS5CU862991,6,5
174,3,object_07,object_01,496.60000002384,5,1,340.09999990463,0.7777777777777778,1,object_06,1,2689,0,7,2,library_1,2,memory-2step-stake-s,679,3029429,0.0-19.0-0.1-0.174,AYEEKFSGE2CCO,3X4Q1O9UCK2WXV8VOBT8MFKQE0B7O9,3BQU611VFT00QAQCRLDCS5CU862991,5,6
175,1,object_09,object_02,1485.5,1,1,797.0,0.6666666666666666,1,object_06,5,2719,0,6,3,desert_8,2,memory-2step-stake-s,680,3038067,0.0-19.0-0.1-0.175,AYEEKFSGE2CCO,3X4Q1O9UCK2WXV8VOBT8MFKQE0B7O9,3BQU611VFT00QAQCRLDCS5CU862991,1,2
176,2,object_08,object_03,792.29999995232,3,2,-1.0,0.0,1,object_06,5,2719,0,4,2,forest_6,2,memory-2step-stake-s,681,3046598,0.0-19.0-0.1-0.176,AYEEKFSGE2CCO,3X4Q1O9UCK2WXV8VOBT8MFKQE0B7O9,3BQU611VFT00QAQCRLDCS5CU862991,4,3
177,2,object_03,object_08,890.10000002384,4,2,330.0,0.5555555555555556,2,object_04,1,2724,0,7,5,forest_6,2,memory-2step-stake-s,682,3054667,0.0-19.0-0.1-0.177,AYEEKFSGE2CCO,3X4Q1O9UCK2WXV8VOBT8MFKQE0B7O9,3BQU611VFT00QAQCRLDCS5CU862991,3,4
178,2,object_03,object_08,1329.5,4,2,826.39999997616,0.3333333333333333,2,object_04,5,2739,0,7,3,forest_4,2,memory-2step-stake-s,683,3063030,0.0-19.0-0.1-0.178,AYEEKFSGE2CCO,3X4Q1O9UCK2WXV8VOBT8MFKQE0B7O9,3BQU611VFT00QAQCRLDCS5CU862991,3,4
179,1,object_09,object_02,1386.1999999285,2,2,427.79999995232,0.0,2,object_04,5,2739,0,3,0,desert_2,2,memory-2step-stake-s,684,3070689,0.0-19.0-0.1-0.179,AYEEKFSGE2CCO,3X4Q1O9UCK2WXV8VOBT8MFKQE0B7O9,3BQU611VFT00QAQCRLDCS5CU862991,1,2
180,2,object_03,object_08,961.29999995232,3,1,4.6000000238419,0.0,1,object_06,5,2739,0,0,2,forest_4,2,memory-2step-stake-s,685,3077927,0.0-19.0-0.1-0.180,AYEEKFSGE2CCO,3X4Q1O9UCK2WXV8VOBT8MFKQE0B7O9,3BQU611VFT00QAQCRLDCS5CU862991,3,4
181,4,object_10,object_05,603.59999990463,8,2,281.0,0.5555555555555556,2,object_04,1,2744,0,1,5,restaurant_7,2,memory-2step-stake-s,686,3085948,0.0-19.0-0.1-0.181,AYEEKFSGE2CCO,3X4Q1O9UCK2WXV8VOBT8MFKQE0B7O9,3BQU611VFT00QAQCRLDCS5CU862991,7,8
182,2,object_08,object_03,930.79999995232,4,1,329.10000002384,0.8888888888888888,2,object_04,5,2784,0,2,8,forest_6,2,memory-2step-stake-s,687,3094327,0.0-19.0-0.1-0.182,AYEEKFSGE2CCO,3X4Q1O9UCK2WXV8VOBT8MFKQE0B7O9,3BQU611VFT00QAQCRLDCS5CU862991,4,3
183,4,object_10,object_05,506.60000002384,8,2,350.80000007153,0.7777777777777778,2,object_04,1,2791,0,3,7,restaurant_7,2,memory-2step-stake-s,688,3102631,0.0-19.0-0.1-0.183,AYEEKFSGE2CCO,3X4Q1O9UCK2WXV8VOBT8MFKQE0B7O9,3BQU611VFT00QAQCRLDCS5CU862991,7,8
184,2,object_08,object_03,672.30000007153,4,1,525.60000002384,0.7777777777777778,2,object_04,5,2826,0,5,7,forest_2,2,memory-2step-stake-s,689,3111101,0.0-19.0-0.1-0.184,AYEEKFSGE2CCO,3X4Q1O9UCK2WXV8VOBT8MFKQE0B7O9,3BQU611VFT00QAQCRLDCS5CU862991,4,3
185,3,object_07,object_01,566.29999995232,6,2,283.70000004768,0.6666666666666666,2,object_04,5,2856,0,7,6,library_7,2,memory-2step-stake-s,690,3119229,0.0-19.0-0.1-0.185,AYEEKFSGE2CCO,3X4Q1O9UCK2WXV8VOBT8MFKQE0B7O9,3BQU611VFT00QAQCRLDCS5CU862991,5,6
186,3,object_07,object_01,589.89999997616,6,2,360.19999992847,0.7777777777777778,2,object_04,1,2863,0,7,7,library_1,2,memory-2step-stake-s,691,3127534,0.0-19.0-0.1-0.186,AYEEKFSGE2CCO,3X4Q1O9UCK2WXV8VOBT8MFKQE0B7O9,3BQU611VFT00QAQCRLDCS5CU862991,5,6
187,3,object_07,object_01,602.19999992847,6,2,299.79999995232,1.0,2,object_04,5,2908,0,6,9,library_4,2,memory-2step-stake-s,692,3135993,0.0-19.0-0.1-0.187,AYEEKFSGE2CCO,3X4Q1O9UCK2WXV8VOBT8MFKQE0B7O9,3BQU611VFT00QAQCRLDCS5CU862991,5,6
188,3,object_01,object_07,714.89999997616,6,1,401.10000002384,1.0,2,object_04,1,2917,0,7,9,library_3,2,memory-2step-stake-s,693,3144542,0.0-19.0-0.1-0.188,AYEEKFSGE2CCO,3X4Q1O9UCK2WXV8VOBT8MFKQE0B7O9,3BQU611VFT00QAQCRLDCS5CU862991,6,5
189,2,object_03,object_08,724.39999997616,4,2,372.39999997616,0.8888888888888888,2,object_04,1,2925,0,9,8,forest_7,2,memory-2step-stake-s,694,3152958,0.0-19.0-0.1-0.189,AYEEKFSGE2CCO,3X4Q1O9UCK2WXV8VOBT8MFKQE0B7O9,3BQU611VFT00QAQCRLDCS5CU862991,3,4
190,4,object_05,object_10,1195.6999999285,8,1,559.89999997616,0.8888888888888888,2,object_04,1,2933,0,7,8,restaurant_5,2,memory-2step-stake-s,695,3161567,0.0-19.0-0.1-0.190,AYEEKFSGE2CCO,3X4Q1O9UCK2WXV8VOBT8MFKQE0B7O9,3BQU611VFT00QAQCRLDCS5CU862991,8,7
191,3,object_01,object_07,872.39999997616,6,1,961.10000002384,0.5555555555555556,2,object_04,1,2938,0,3,5,library_3,2,memory-2step-stake-s,696,3170271,0.0-19.0-0.1-0.191,AYEEKFSGE2CCO,3X4Q1O9UCK2WXV8VOBT8MFKQE0B7O9,3BQU611VFT00QAQCRLDCS5CU862991,6,5
192,4,object_05,object_10,551.5,8,1,352.19999992847,0.5555555555555556,2,object_04,1,2943,0,4,5,restaurant_3,2,memory-2step-stake-s,697,3178372,0.0-19.0-0.1-0.192,AYEEKFSGE2CCO,3X4Q1O9UCK2WXV8VOBT8MFKQE0B7O9,3BQU611VFT00QAQCRLDCS5CU862991,8,7
193,4,object_10,object_05,588.0,7,1,287.10000002384,0.6666666666666666,1,object_06,1,2949,0,6,8,restaurant_5,2,memory-2step-stake-s,698,3186506,0.0-19.0-0.1-0.193,AYEEKFSGE2CCO,3X4Q1O9UCK2WXV8VOBT8MFKQE0B7O9,3BQU611VFT00QAQCRLDCS5CU862991,7,8
194,2,object_08,object_03,955.30000007153,3,2,565.10000002384,0.6666666666666666,1,object_06,5,2979,0,6,7,forest_6,2,memory-2step-stake-s,699,3194933,0.0-19.0-0.1-0.194,AYEEKFSGE2CCO,3X4Q1O9UCK2WXV8VOBT8MFKQE0B7O9,3BQU611VFT00QAQCRLDCS5CU862991,4,3
195,3,object_01,object_07,596.29999995232,5,2,257.0,0.3333333333333333,1,object_06,1,2982,0,3,7,library_1,2,memory-2step-stake-s,700,3202730,0.0-19.0-0.1-0.195,AYEEKFSGE2CCO,3X4Q1O9UCK2WXV8VOBT8MFKQE0B7O9,3BQU611VFT00QAQCRLDCS5CU862991,6,5
196,4,object_10,object_05,770.5,8,2,499.40000009537,1.0,2,object_04,1,2991,0,3,9,restaurant_3,2,memory-2step-stake-s,701,3211392,0.0-19.0-0.1-0.196,AYEEKFSGE2CCO,3X4Q1O9UCK2WXV8VOBT8MFKQE0B7O9,3BQU611VFT00QAQCRLDCS5CU862991,7,8
197,1,object_09,object_02,1064.2000000477,2,2,333.89999997616,1.0,2,object_04,5,3036,0,2,9,desert_5,2,memory-2step-stake-s,702,3219884,0.0-19.0-0.1-0.197,AYEEKFSGE2CCO,3X4Q1O9UCK2WXV8VOBT8MFKQE0B7O9,3BQU611VFT00QAQCRLDCS5CU862991,1,2
198,2,object_08,object_03,1016.3000000715,4,1,609.79999995232,0.5555555555555556,2,object_04,1,3041,0,2,5,forest_7,2,memory-2step-stake-s,703,3228246,0.0-19.0-0.1-0.198,AYEEKFSGE2CCO,3X4Q1O9UCK2WXV8VOBT8MFKQE0B7O9,3BQU611VFT00QAQCRLDCS5CU862991,4,3
199,2,object_08,object_03,1300.7999999523,4,1,523.60000002384,0.5555555555555556,2,object_04,5,3066,0,7,5,forest_2,2,memory-2step-stake-s,704,3236518,0.0-19.0-0.1-0.199,AYEEKFSGE2CCO,3X4Q1O9UCK2WXV8VOBT8MFKQE0B7O9,3BQU611VFT00QAQCRLDCS5CU862991,4,3
200,3,object_01,object_07,966.70000004768,6,1,459.60000002384,0.7777777777777778,2,object_04,5,3101,0,7,7,library_4,2,memory-2step-stake-s,705,3244939,0.0-19.0-0.1-0.200,AYEEKFSGE2CCO,3X4Q1O9UCK2WXV8VOBT8MFKQE0B7O9,3BQU611VFT00QAQCRLDCS5CU862991,6,5
201,3,object_07,object_01,482.79999995232,6,2,520.59999990463,1.0,2,object_04,1,3110,0,6,9,library_4,2,memory-2step-stake-s,706,3253623,0.0-19.0-0.1-0.201,AYEEKFSGE2CCO,3X4Q1O9UCK2WXV8VOBT8MFKQE0B7O9,3BQU611VFT00QAQCRLDCS5CU862991,5,6
202,3,object_07,object_01,998.80000007153,6,2,270.5,0.6666666666666666,2,object_04,1,3116,0,8,6,library_4,2,memory-2step-stake-s,707,3261740,0.0-19.0-0.1-0.202,AYEEKFSGE2CCO,3X4Q1O9UCK2WXV8VOBT8MFKQE0B7O9,3BQU611VFT00QAQCRLDCS5CU862991,5,6
203,3,object_07,object_01,537.5,6,2,390.0,0.6666666666666666,2,object_04,1,3122,0,8,6,library_3,2,memory-2step-stake-s,708,3269975,0.0-19.0-0.1-0.203,AYEEKFSGE2CCO,3X4Q1O9UCK2WXV8VOBT8MFKQE0B7O9,3BQU611VFT00QAQCRLDCS5CU862991,5,6
204,4,object_10,object_05,821.39999997616,8,2,862.60000002384,0.8888888888888888,2,object_04,1,3130,0,8,8,restaurant_7,2,memory-2step-stake-s,709,3278903,0.0-19.0-0.1-0.204,AYEEKFSGE2CCO,3X4Q1O9UCK2WXV8VOBT8MFKQE0B7O9,3BQU611VFT00QAQCRLDCS5CU862991,7,8
205,1,object_02,object_09,1072.0,2,1,412.0,0.8888888888888888,2,object_04,5,3170,0,9,8,desert_5,2,memory-2step-stake-s,710,3287368,0.0-19.0-0.1-0.205,AYEEKFSGE2CCO,3X4Q1O9UCK2WXV8VOBT8MFKQE0B7O9,3BQU611VFT00QAQCRLDCS5CU862991,2,1
206,1,object_09,object_02,1166.5,2,2,458.30000007153,0.8888888888888888,2,object_04,1,3178,0,9,8,desert_5,2,memory-2step-stake-s,711,3295875,0.0-19.0-0.1-0.206,AYEEKFSGE2CCO,3X4Q1O9UCK2WXV8VOBT8MFKQE0B7O9,3BQU611VFT00QAQCRLDCS5CU862991,1,2
207,2,object_03,object_08,808.09999990463,4,2,309.0,0.6666666666666666,2,object_04,5,3208,0,6,6,forest_2,2,memory-2step-stake-s,712,3304046,0.0-19.0-0.1-0.207,AYEEKFSGE2CCO,3X4Q1O9UCK2WXV8VOBT8MFKQE0B7O9,3BQU611VFT00QAQCRLDCS5CU862991,3,4
208,1,object_09,object_02,921.10000002384,2,2,313.39999997616,0.3333333333333333,2,object_04,5,3223,0,6,3,desert_8,2,memory-2step-stake-s,713,3311907,0.0-19.0-0.1-0.208,AYEEKFSGE2CCO,3X4Q1O9UCK2WXV8VOBT8MFKQE0B7O9,3BQU611VFT00QAQCRLDCS5CU862991,1,2
209,1,object_02,object_09,711.79999995232,1,2,323.79999995232,0.7777777777777778,1,object_06,5,3258,0,7,4,desert_6,2,memory-2step-stake-s,714,3320190,0.0-19.0-0.1-0.209,AYEEKFSGE2CCO,3X4Q1O9UCK2WXV8VOBT8MFKQE0B7O9,3BQU611VFT00QAQCRLDCS5CU862991,2,1
210,2,object_08,object_03,576.89999997616,3,2,292.20000004768,1.0,1,object_06,1,3267,0,9,4,forest_7,2,memory-2step-stake-s,715,3328638,0.0-19.0-0.1-0.210,AYEEKFSGE2CCO,3X4Q1O9UCK2WXV8VOBT8MFKQE0B7O9,3BQU611VFT00QAQCRLDCS5CU862991,4,3
211,1,object_02,object_09,750.80000007153,1,2,278.30000007153,0.8888888888888888,1,object_06,5,3307,0,8,7,desert_2,2,memory-2step-stake-s,716,3336985,0.0-19.0-0.1-0.211,AYEEKFSGE2CCO,3X4Q1O9UCK2WXV8VOBT8MFKQE0B7O9,3BQU611VFT00QAQCRLDCS5CU862991,2,1
212,1,object_09,object_02,-1.0,-1,-1,-1.0,0.0,-,0,5,3307,0,7,5,desert_8,2,memory-2step-stake-s,717,3343513,0.0-19.0-0.1-0.212,AYEEKFSGE2CCO,3X4Q1O9UCK2WXV8VOBT8MFKQE0B7O9,3BQU611VFT00QAQCRLDCS5CU862991,1,2
213,2,object_08,object_03,859.60000002384,3,2,583.5,0.6666666666666666,1,object_06,5,3337,0,6,6,forest_7,2,memory-2step-stake-s,718,3351951,0.0-19.0-0.1-0.213,AYEEKFSGE2CCO,3X4Q1O9UCK2WXV8VOBT8MFKQE0B7O9,3BQU611VFT00QAQCRLDCS5CU862991,4,3
214,1,object_09,object_02,835.70000004768,1,1,514.20000004768,0.8888888888888888,1,object_06,1,3345,0,8,8,desert_8,2,memory-2step-stake-s,719,3360522,0.0-19.0-0.1-0.214,AYEEKFSGE2CCO,3X4Q1O9UCK2WXV8VOBT8MFKQE0B7O9,3BQU611VFT00QAQCRLDCS5CU862991,1,2
215,2,object_03,object_08,695.10000002384,3,1,253.29999995232,0.8888888888888888,1,object_06,1,3353,0,8,4,forest_4,2,memory-2step-stake-s,720,3368842,0.0-19.0-0.1-0.215,AYEEKFSGE2CCO,3X4Q1O9UCK2WXV8VOBT8MFKQE0B7O9,3BQU611VFT00QAQCRLDCS5CU862991,3,4
216,3,object_07,object_01,942.19999992847,5,1,376.29999995232,0.7777777777777778,1,object_06,1,3360,0,7,3,library_1,2,memory-2step-stake-s,721,3377189,0.0-19.0-0.1-0.216,AYEEKFSGE2CCO,3X4Q1O9UCK2WXV8VOBT8MFKQE0B7O9,3BQU611VFT00QAQCRLDCS5CU862991,5,6
217,2,object_03,object_08,470.69999992847,3,1,374.10000002384,0.6666666666666666,1,object_06,5,3390,0,6,3,forest_4,2,memory-2step-stake-s,722,3385413,0.0-19.0-0.1-0.217,AYEEKFSGE2CCO,3X4Q1O9UCK2WXV8VOBT8MFKQE0B7O9,3BQU611VFT00QAQCRLDCS5CU862991,3,4
218,3,object_01,object_07,485.80000007153,5,2,396.20000004768,0.8888888888888888,1,object_06,1,3398,0,8,1,library_4,2,memory-2step-stake-s,723,3393872,0.0-19.0-0.1-0.218,AYEEKFSGE2CCO,3X4Q1O9UCK2WXV8VOBT8MFKQE0B7O9,3BQU611VFT00QAQCRLDCS5CU862991,6,5
219,4,object_10,object_05,646.69999992847,7,1,346.09999990463,1.0,1,object_06,1,3407,0,9,2,restaurant_5,2,memory-2step-stake-s,724,3402385,0.0-19.0-0.1-0.219,AYEEKFSGE2CCO,3X4Q1O9UCK2WXV8VOBT8MFKQE0B7O9,3BQU611VFT00QAQCRLDCS5CU862991,7,8
220,4,object_05,object_10,747.69999992847,7,2,649.70000004768,0.7777777777777778,1,object_06,1,3414,0,7,1,restaurant_8,2,memory-2step-stake-s,725,3411003,0.0-19.0-0.1-0.220,AYEEKFSGE2CCO,3X4Q1O9UCK2WXV8VOBT8MFKQE0B7O9,3BQU611VFT00QAQCRLDCS5CU862991,8,7
221,4,object_10,object_05,609.29999995232,7,1,1122.2999999523,0.5555555555555556,1,object_06,1,3419,0,5,2,restaurant_3,2,memory-2step-stake-s,726,3419884,0.0-19.0-0.1-0.221,AYEEKFSGE2CCO,3X4Q1O9UCK2WXV8VOBT8MFKQE0B7O9,3BQU611VFT00QAQCRLDCS5CU862991,7,8
222,1,object_02,object_09,876.89999997616,1,2,567.20000004768,0.7777777777777778,1,object_06,1,3426,0,7,2,desert_6,2,memory-2step-stake-s,727,3428412,0.0-19.0-0.1-0.222,AYEEKFSGE2CCO,3X4Q1O9UCK2WXV8VOBT8MFKQE0B7O9,3BQU611VFT00QAQCRLDCS5CU862991,2,1
223,2,object_03,object_08,1048.0,3,1,854.70000004768,0.6666666666666666,1,object_06,5,3456,0,6,2,forest_2,2,memory-2step-stake-s,728,3437130,0.0-19.0-0.1-0.223,AYEEKFSGE2CCO,3X4Q1O9UCK2WXV8VOBT8MFKQE0B7O9,3BQU611VFT00QAQCRLDCS5CU862991,3,4
224,2,object_08,object_03,668.60000002384,3,2,307.0,0.8888888888888888,1,object_06,5,3496,0,8,4,forest_2,2,memory-2step-stake-s,729,3445510,0.0-19.0-0.1-0.224,AYEEKFSGE2CCO,3X4Q1O9UCK2WXV8VOBT8MFKQE0B7O9,3BQU611VFT00QAQCRLDCS5CU862991,4,3
225,4,object_05,object_10,574.69999992847,8,1,327.29999995232,0.7777777777777778,2,object_04,1,3503,0,8,7,restaurant_8,2,memory-2step-stake-s,730,3453805,0.0-19.0-0.1-0.225,AYEEKFSGE2CCO,3X4Q1O9UCK2WXV8VOBT8MFKQE0B7O9,3BQU611VFT00QAQCRLDCS5CU862991,8,7
226,2,object_03,object_08,778.29999995232,4,2,502.69999992847,0.8888888888888888,2,object_04,5,3543,0,9,8,forest_2,2,memory-2step-stake-s,731,3462370,0.0-19.0-0.1-0.226,AYEEKFSGE2CCO,3X4Q1O9UCK2WXV8VOBT8MFKQE0B7O9,3BQU611VFT00QAQCRLDCS5CU862991,3,4
227,1,object_09,object_02,845.0,2,2,398.70000004768,0.7777777777777778,2,object_04,1,3550,0,6,7,desert_8,2,memory-2step-stake-s,732,3470733,0.0-19.0-0.1-0.227,AYEEKFSGE2CCO,3X4Q1O9UCK2WXV8VOBT8MFKQE0B7O9,3BQU611VFT00QAQCRLDCS5CU862991,1,2
228,3,object_07,object_01,888.79999995232,6,2,757.79999995232,0.8888888888888888,2,object_04,5,3590,0,6,8,library_4,2,memory-2step-stake-s,733,3479560,0.0-19.0-0.1-0.228,AYEEKFSGE2CCO,3X4Q1O9UCK2WXV8VOBT8MFKQE0B7O9,3BQU611VFT00QAQCRLDCS5CU862991,5,6
229,4,object_10,object_05,687.60000002384,8,2,331.5,1.0,2,object_04,5,3635,0,6,9,restaurant_3,2,memory-2step-stake-s,734,3488078,0.0-19.0-0.1-0.229,AYEEKFSGE2CCO,3X4Q1O9UCK2WXV8VOBT8MFKQE0B7O9,3BQU611VFT00QAQCRLDCS5CU862991,7,8
230,2,object_08,object_03,935.70000004768,3,2,444.79999995232,0.7777777777777778,1,object_06,1,3642,0,7,7,forest_4,2,memory-2step-stake-s,735,3496494,0.0-19.0-0.1-0.230,AYEEKFSGE2CCO,3X4Q1O9UCK2WXV8VOBT8MFKQE0B7O9,3BQU611VFT00QAQCRLDCS5CU862991,4,3
231,4,object_05,object_10,761.30000007153,8,1,304.0,0.6666666666666666,2,object_04,1,3648,0,5,6,restaurant_5,2,memory-2step-stake-s,736,3504670,0.0-19.0-0.1-0.231,AYEEKFSGE2CCO,3X4Q1O9UCK2WXV8VOBT8MFKQE0B7O9,3BQU611VFT00QAQCRLDCS5CU862991,8,7
232,1,object_02,object_09,1049.2999999523,2,1,284.29999995232,0.8888888888888888,2,object_04,5,3688,0,6,8,desert_8,2,memory-2step-stake-s,737,3513028,0.0-19.0-0.1-0.232,AYEEKFSGE2CCO,3X4Q1O9UCK2WXV8VOBT8MFKQE0B7O9,3BQU611VFT00QAQCRLDCS5CU862991,2,1
233,3,object_01,object_07,637.10000002384,6,1,301.29999995232,0.7777777777777778,2,object_04,1,3695,0,7,7,library_7,2,memory-2step-stake-s,738,3521305,0.0-19.0-0.1-0.233,AYEEKFSGE2CCO,3X4Q1O9UCK2WXV8VOBT8MFKQE0B7O9,3BQU611VFT00QAQCRLDCS5CU862991,6,5
234,4,object_05,object_10,589.29999995232,8,1,304.89999997616,0.7777777777777778,2,object_04,1,3702,0,4,7,restaurant_7,2,memory-2step-stake-s,739,3529577,0.0-19.0-0.1-0.234,AYEEKFSGE2CCO,3X4Q1O9UCK2WXV8VOBT8MFKQE0B7O9,3BQU611VFT00QAQCRLDCS5CU862991,8,7
235,4,object_05,object_10,574.60000002384,8,1,385.69999992847,0.8888888888888888,2,object_04,1,3710,0,6,8,restaurant_3,2,memory-2step-stake-s,740,3538015,0.0-19.0-0.1-0.235,AYEEKFSGE2CCO,3X4Q1O9UCK2WXV8VOBT8MFKQE0B7O9,3BQU611VFT00QAQCRLDCS5CU862991,8,7
236,3,object_07,object_01,572.89999997616,6,2,394.70000004768,0.6666666666666666,2,object_04,1,3716,0,5,6,library_1,2,memory-2step-stake-s,741,3546242,0.0-19.0-0.1-0.236,AYEEKFSGE2CCO,3X4Q1O9UCK2WXV8VOBT8MFKQE0B7O9,3BQU611VFT00QAQCRLDCS5CU862991,5,6
237,1,object_09,object_02,810.39999997616,2,2,328.40000009537,0.5555555555555556,2,object_04,5,3741,0,5,5,desert_5,2,memory-2step-stake-s,742,3554308,0.0-19.0-0.1-0.237,AYEEKFSGE2CCO,3X4Q1O9UCK2WXV8VOBT8MFKQE0B7O9,3BQU611VFT00QAQCRLDCS5CU862991,1,2
238,3,object_01,object_07,566.20000004768,5,2,312.0,0.5555555555555556,1,object_06,1,3746,0,5,8,library_1,2,memory-2step-stake-s,743,3562357,0.0-19.0-0.1-0.238,AYEEKFSGE2CCO,3X4Q1O9UCK2WXV8VOBT8MFKQE0B7O9,3BQU611VFT00QAQCRLDCS5CU862991,6,5
239,3,object_01,object_07,723.79999995232,5,2,414.59999990463,0.7777777777777778,1,object_06,1,3753,0,7,8,library_7,2,memory-2step-stake-s,744,3570715,0.0-19.0-0.1-0.239,AYEEKFSGE2CCO,3X4Q1O9UCK2WXV8VOBT8MFKQE0B7O9,3BQU611VFT00QAQCRLDCS5CU862991,6,5
240,2,object_08,object_03,941.79999995232,3,2,306.89999997616,0.6666666666666666,1,object_06,5,3783,0,6,7,forest_2,2,memory-2step-stake-s,745,3578854,0.0-19.0-0.1-0.240,AYEEKFSGE2CCO,3X4Q1O9UCK2WXV8VOBT8MFKQE0B7O9,3BQU611VFT00QAQCRLDCS5CU862991,4,3
241,2,object_03,object_08,663.60000002384,3,1,319.29999995232,0.3333333333333333,1,object_06,5,3798,0,3,4,forest_4,2,memory-2step-stake-s,746,3586706,0.0-19.0-0.1-0.241,AYEEKFSGE2CCO,3X4Q1O9UCK2WXV8VOBT8MFKQE0B7O9,3BQU611VFT00QAQCRLDCS5CU862991,3,4
242,4,object_10,object_05,812.40000009537,8,2,289.70000004768,0.8888888888888888,2,object_04,1,3806,0,0,8,restaurant_8,2,memory-2step-stake-s,747,3595036,0.0-19.0-0.1-0.242,AYEEKFSGE2CCO,3X4Q1O9UCK2WXV8VOBT8MFKQE0B7O9,3BQU611VFT00QAQCRLDCS5CU862991,7,8
243,3,object_07,object_01,559.20000004768,6,2,260.29999995232,0.8888888888888888,2,object_04,1,3814,0,2,8,library_4,2,memory-2step-stake-s,748,3603349,0.0-19.0-0.1-0.243,AYEEKFSGE2CCO,3X4Q1O9UCK2WXV8VOBT8MFKQE0B7O9,3BQU611VFT00QAQCRLDCS5CU862991,5,6
244,3,object_07,object_01,488.60000002384,6,2,399.69999992847,0.8888888888888888,2,object_04,1,3822,0,4,8,library_7,2,memory-2step-stake-s,749,3611793,0.0-19.0-0.1-0.244,AYEEKFSGE2CCO,3X4Q1O9UCK2WXV8VOBT8MFKQE0B7O9,3BQU611VFT00QAQCRLDCS5CU862991,5,6
245,3,object_07,object_01,501.0,6,2,665.29999995232,0.4444444444444444,2,object_04,1,3826,0,4,4,library_3,2,memory-2step-stake-s,750,3620098,0.0-19.0-0.1-0.245,AYEEKFSGE2CCO,3X4Q1O9UCK2WXV8VOBT8MFKQE0B7O9,3BQU611VFT00QAQCRLDCS5CU862991,5,6
246,4,object_05,object_10,514.20000004768,8,1,298.20000004768,0.0,2,object_04,1,3826,0,6,0,restaurant_7,2,memory-2step-stake-s,751,3627623,0.0-19.0-0.1-0.246,AYEEKFSGE2CCO,3X4Q1O9UCK2WXV8VOBT8MFKQE0B7O9,3BQU611VFT00QAQCRLDCS5CU862991,8,7
247,3,object_07,object_01,601.5,5,1,290.89999997616,0.7777777777777778,1,object_06,1,3833,0,7,0,library_3,2,memory-2step-stake-s,752,3635853,0.0-19.0-0.1-0.247,AYEEKFSGE2CCO,3X4Q1O9UCK2WXV8VOBT8MFKQE0B7O9,3BQU611VFT00QAQCRLDCS5CU862991,5,6
248,3,object_01,object_07,638.0,5,2,452.80000007153,1.0,1,object_06,1,3842,0,9,2,library_1,2,memory-2step-stake-s,753,3644456,0.0-19.0-0.1-0.248,AYEEKFSGE2CCO,3X4Q1O9UCK2WXV8VOBT8MFKQE0B7O9,3BQU611VFT00QAQCRLDCS5CU862991,6,5
249,2,object_08,object_03,788.70000004768,3,2,310.80000007153,0.8888888888888888,1,object_06,5,3882,0,8,0,forest_2,2,memory-2step-stake-s,754,3652813,0.0-19.0-0.1-0.249,AYEEKFSGE2CCO,3X4Q1O9UCK2WXV8VOBT8MFKQE0B7O9,3BQU611VFT00QAQCRLDCS5CU862991,4,3
250,3,object_07,object_01,721.29999995232,5,1,389.60000002384,0.7777777777777778,1,object_06,1,3889,0,7,0,library_7,2,memory-2step-stake-s,755,3661150,0.0-19.0-0.1-0.250,AYEEKFSGE2CCO,3X4Q1O9UCK2WXV8VOBT8MFKQE0B7O9,3BQU611VFT00QAQCRLDCS5CU862991,5,6
251,2,object_08,object_03,1237.2000000477,3,2,489.29999995232,0.8888888888888888,1,object_06,1,3897,0,8,1,forest_2,2,memory-2step-stake-s,756,3669683,0.0-19.0-0.1-0.251,AYEEKFSGE2CCO,3X4Q1O9UCK2WXV8VOBT8MFKQE0B7O9,3BQU611VFT00QAQCRLDCS5CU862991,4,3
252,4,object_05,object_10,649.5,7,2,304.09999990463,0.8888888888888888,1,object_06,5,3937,0,8,2,restaurant_7,2,memory-2step-stake-s,757,3678030,0.0-19.0-0.1-0.252,AYEEKFSGE2CCO,3X4Q1O9UCK2WXV8VOBT8MFKQE0B7O9,3BQU611VFT00QAQCRLDCS5CU862991,8,7
253,3,object_07,object_01,593.29999995232,5,1,290.39999997616,0.5555555555555556,1,object_06,5,3962,0,5,6,library_7,2,memory-2step-stake-s,758,3686073,0.0-19.0-0.1-0.253,AYEEKFSGE2CCO,3X4Q1O9UCK2WXV8VOBT8MFKQE0B7O9,3BQU611VFT00QAQCRLDCS5CU862991,5,6
254,1,object_09,object_02,840.20000004768,1,1,309.80000007153,0.7777777777777778,1,object_06,5,3997,0,7,4,desert_5,2,memory-2step-stake-s,759,3694319,0.0-19.0-0.1-0.254,AYEEKFSGE2CCO,3X4Q1O9UCK2WXV8VOBT8MFKQE0B7O9,3BQU611VFT00QAQCRLDCS5CU862991,1,2
255,4,object_10,object_05,609.79999995232,7,1,555.10000002384,0.6666666666666666,1,object_06,1,4003,0,6,4,restaurant_5,2,memory-2step-stake-s,760,3702699,0.0-19.0-0.1-0.255,AYEEKFSGE2CCO,3X4Q1O9UCK2WXV8VOBT8MFKQE0B7O9,3BQU611VFT00QAQCRLDCS5CU862991,7,8
