,state1,stim_left,stim_right,rt_1,choice1,response1,rt_2,points,state2,stim_state2,stake,score,practice,rews1,rews2,background,high_arm,trial_type,trial_index,time_elapsed,internal_node_id,subid,hitid,assignmentid,stim_left_num,stim_right_num
0,1,object_07,object_01,-1.0,-1,-1,-1.0,0.0,-,0,1,0,0,0,9,desert_6,1,memory-2step-stake-s,495,843309,0.0-19.0-0.0-0.0,A2HXUTHYA5C1E0,391FPZIE5F2O3PY4X6RTCY19AQ3HU8,3SBEHTYCWRJ82CRN3RB54F4O0H4YIG,2,1
1,1,object_01,object_07,984.5,1,1,-1.0,0.0,1,object_02,1,0,0,1,7,desert_3,1,memory-2step-stake-s,496,851831,0.0-19.0-0.0-0.1,A2HXUTHYA5C1E0,391FPZIE5F2O3PY4X6RTCY19AQ3HU8,3SBEHTYCWRJ82CRN3RB54F4O0H4YIG,1,2
2,3,object_04,object_03,853.70000000298,6,1,448.0,1.0,2,object_06,1,9,0,2,9,library_7,1,memory-2step-stake-s,497,860438,0.0-19.0-0.0-0.2,A2HXUTHYA5C1E0,391FPZIE5F2O3PY4X6RTCY19AQ3HU8,3SBEHTYCWRJ82CRN3RB54F4O0H4YIG,6,5
3,4,object_08,object_09,772.5,8,1,433.69999998808,1.0,2,object_06,1,18,0,3,9,restaurant_1,1,memory-2step-stake-s,498,869042,0.0-19.0-0.0-0.3,A2HXUTHYA5C1E0,391FPZIE5F2O3PY4X6RTCY19AQ3HU8,3SBEHTYCWRJ82CRN3RB54F4O0H4YIG,8,7
4,3,object_04,object_03,799.59999999404,5,2,885.69999998808,0.4444444444444444,1,object_02,5,38,0,4,8,library_2,1,memory-2step-stake-s,499,877563,0.0-19.0-0.0-0.4,A2HXUTHYA5C1E0,391FPZIE5F2O3PY4X6RTCY19AQ3HU8,3SBEHTYCWRJ82CRN3RB54F4O0H4YIG,6,5
5,3,object_04,object_03,665.79999999702,6,1,431.5,0.8888888888888888,2,object_06,5,78,0,1,8,library_5,1,memory-2step-stake-s,500,886062,0.0-19.0-0.0-0.5,A2HXUTHYA5C1E0,391FPZIE5F2O3PY4X6RTCY19AQ3HU8,3SBEHTYCWRJ82CRN3RB54F4O0H4YIG,6,5
6,2,object_10,object_05,499.29999999702,4,1,844.5,0.6666666666666666,2,object_06,1,84,0,2,6,forest_8,1,memory-2step-stake-s,501,894740,0.0-19.0-0.0-0.6,A2HXUTHYA5C1E0,391FPZIE5F2O3PY4X6RTCY19AQ3HU8,3SBEHTYCWRJ82CRN3RB54F4O0H4YIG,4,3
7,4,object_09,object_08,594.09999999404,8,2,446.20000000298,0.7777777777777778,2,object_06,5,119,0,0,7,restaurant_2,1,memory-2step-stake-s,502,903180,0.0-19.0-0.0-0.7,A2HXUTHYA5C1E0,391FPZIE5F2O3PY4X6RTCY19AQ3HU8,3SBEHTYCWRJ82CRN3RB54F4O0H4YIG,7,8
8,4,object_08,object_09,744.59999999404,8,1,413.0,0.8888888888888888,2,object_06,1,127,0,1,8,restaurant_2,1,memory-2step-stake-s,503,911621,0.0-19.0-0.0-0.8,A2HXUTHYA5C1E0,391FPZIE5F2O3PY4X6RTCY19AQ3HU8,3SBEHTYCWRJ82CRN3RB54F4O0H4YIG,8,7
9,3,object_04,object_03,607.5,5,2,826.5,0.2222222222222222,1,object_02,5,137,0,2,8,library_2,1,memory-2step-stake-s,504,919922,0.0-19.0-0.0-0.9,A2HXUTHYA5C1E0,391FPZIE5F2O3PY4X6RTCY19AQ3HU8,3SBEHTYCWRJ82CRN3RB54F4O0H4YIG,6,5
10,1,object_01,object_07,555.59999999404,1,1,566.39999999106,0.0,1,object_02,1,137,0,0,9,desert_6,1,memory-2step-stake-s,505,927720,0.0-19.0-0.0-0.10,A2HXUTHYA5C1E0,391FPZIE5F2O3PY4X6RTCY19AQ3HU8,3SBEHTYCWRJ82CRN3RB54F4O0H4YIG,1,2
11,2,object_10,object_05,509.40000000596,3,2,652.5,0.2222222222222222,1,object_02,1,139,0,2,4,forest_7,1,memory-2step-stake-s,506,935806,0.0-19.0-0.0-0.11,A2HXUTHYA5C1E0,391FPZIE5F2O3PY4X6RTCY19AQ3HU8,3SBEHTYCWRJ82CRN3RB54F4O0H4YIG,4,3
12,1,object_01,object_07,300.30000001192,1,1,393.5,0.2222222222222222,1,object_02,1,141,0,2,7,desert_3,1,memory-2step-stake-s,507,943641,0.0-19.0-0.0-0.12,A2HXUTHYA5C1E0,391FPZIE5F2O3PY4X6RTCY19AQ3HU8,3SBEHTYCWRJ82CRN3RB54F4O0H4YIG,1,2
13,4,object_09,object_08,282.90000000596,8,2,441.80000001192,0.8888888888888888,2,object_06,5,181,0,0,8,restaurant_2,1,memory-2step-stake-s,508,952164,0.0-19.0-0.0-0.13,A2HXUTHYA5C1E0,391FPZIE5F2O3PY4X6RTCY19AQ3HU8,3SBEHTYCWRJ82CRN3RB54F4O0H4YIG,7,8
14,2,object_10,object_05,777.40000000596,4,1,642.70000000298,1.0,2,object_06,1,190,0,2,9,forest_5,1,memory-2step-stake-s,509,960958,0.0-19.0-0.0-0.14,A2HXUTHYA5C1E0,391FPZIE5F2O3PY4X6RTCY19AQ3HU8,3SBEHTYCWRJ82CRN3RB54F4O0H4YIG,4,3
15,4,object_08,object_09,1460.900000006,8,1,59.79999999702,0.8888888888888888,2,object_06,5,230,0,0,8,restaurant_3,1,memory-2step-stake-s,510,969059,0.0-19.0-0.0-0.15,A2HXUTHYA5C1E0,391FPZIE5F2O3PY4X6RTCY19AQ3HU8,3SBEHTYCWRJ82CRN3RB54F4O0H4YIG,8,7
16,3,object_03,object_04,977.29999999702,6,2,452.09999999404,0.8888888888888888,2,object_06,5,270,0,1,8,library_7,1,memory-2step-stake-s,511,977623,0.0-19.0-0.0-0.16,A2HXUTHYA5C1E0,391FPZIE5F2O3PY4X6RTCY19AQ3HU8,3SBEHTYCWRJ82CRN3RB54F4O0H4YIG,5,6
17,3,object_04,object_03,1133.599999994,6,1,654.90000000596,0.8888888888888888,2,object_06,5,310,0,4,8,library_5,1,memory-2step-stake-s,512,986313,0.0-19.0-0.0-0.17,A2HXUTHYA5C1E0,391FPZIE5F2O3PY4X6RTCY19AQ3HU8,3SBEHTYCWRJ82CRN3RB54F4O0H4YIG,6,5
18,3,object_03,object_04,939.79999999702,6,2,457.69999998808,0.7777777777777778,2,object_06,5,345,0,5,7,library_8,1,memory-2step-stake-s,513,994761,0.0-19.0-0.0-0.18,A2HXUTHYA5C1E0,391FPZIE5F2O3PY4X6RTCY19AQ3HU8,3SBEHTYCWRJ82CRN3RB54F4O0H4YIG,5,6
19,2,object_05,object_10,1118.700000003,4,2,667.70000000298,0.7777777777777778,2,object_06,1,352,0,6,7,forest_8,1,memory-2step-stake-s,514,1003370,0.0-19.0-0.0-0.19,A2HXUTHYA5C1E0,391FPZIE5F2O3PY4X6RTCY19AQ3HU8,3SBEHTYCWRJ82CRN3RB54F4O0H4YIG,3,4
20,1,object_07,object_01,697.90000000596,2,1,481.70000000298,0.7777777777777778,2,object_06,1,359,0,6,7,desert_5,1,memory-2step-stake-s,515,1011813,0.0-19.0-0.0-0.20,A2HXUTHYA5C1E0,391FPZIE5F2O3PY4X6RTCY19AQ3HU8,3SBEHTYCWRJ82CRN3RB54F4O0H4YIG,2,1
21,4,object_09,object_08,1026.700000003,8,2,333.20000000298,0.8888888888888888,2,object_06,5,399,0,3,8,restaurant_3,1,memory-2step-stake-s,516,1020198,0.0-19.0-0.0-0.21,A2HXUTHYA5C1E0,391FPZIE5F2O3PY4X6RTCY19AQ3HU8,3SBEHTYCWRJ82CRN3RB54F4O0H4YIG,7,8
22,4,object_08,object_09,708.60000000894,8,1,526.59999999404,0.8888888888888888,2,object_06,5,439,0,5,8,restaurant_8,1,memory-2step-stake-s,517,1028775,0.0-19.0-0.0-0.22,A2HXUTHYA5C1E0,391FPZIE5F2O3PY4X6RTCY19AQ3HU8,3SBEHTYCWRJ82CRN3RB54F4O0H4YIG,8,7
23,4,object_08,object_09,624.80000001192,8,1,563.59999999404,1.0,2,object_06,5,484,0,7,9,restaurant_8,1,memory-2step-stake-s,518,1037503,0.0-19.0-0.0-0.23,A2HXUTHYA5C1E0,391FPZIE5F2O3PY4X6RTCY19AQ3HU8,3SBEHTYCWRJ82CRN3RB54F4O0H4YIG,8,7
24,4,object_08,object_09,724.0,8,1,495.79999999702,0.8888888888888888,2,object_06,5,524,0,5,8,restaurant_2,1,memory-2step-stake-s,519,1046056,0.0-19.0-0.0-0.24,A2HXUTHYA5C1E0,391FPZIE5F2O3PY4X6RTCY19AQ3HU8,3SBEHTYCWRJ82CRN3RB54F4O0H4YIG,8,7
25,3,object_04,object_03,687.29999999702,6,1,1458.799999997,1.0,2,object_06,1,533,0,6,9,library_5,1,memory-2step-stake-s,520,1055686,0.0-19.0-0.0-0.25,A2HXUTHYA5C1E0,391FPZIE5F2O3PY4X6RTCY19AQ3HU8,3SBEHTYCWRJ82CRN3RB54F4O0H4YIG,6,5
26,3,object_03,object_04,913.5,6,2,652.29999999702,0.7777777777777778,2,object_06,5,568,0,7,7,library_7,1,memory-2step-stake-s,521,1064269,0.0-19.0-0.0-0.26,A2HXUTHYA5C1E0,391FPZIE5F2O3PY4X6RTCY19AQ3HU8,3SBEHTYCWRJ82CRN3RB54F4O0H4YIG,5,6
27,4,object_09,object_08,882.70000000298,8,2,637.0,0.7777777777777778,2,object_06,5,603,0,5,7,restaurant_8,1,memory-2step-stake-s,522,1072840,0.0-19.0-0.0-0.27,A2HXUTHYA5C1E0,391FPZIE5F2O3PY4X6RTCY19AQ3HU8,3SBEHTYCWRJ82CRN3RB54F4O0H4YIG,7,8
28,3,object_04,object_03,646.30000001192,6,1,1234.0,0.4444444444444444,2,object_06,5,623,0,7,4,library_7,1,memory-2step-stake-s,523,1081692,0.0-19.0-0.0-0.28,A2HXUTHYA5C1E0,391FPZIE5F2O3PY4X6RTCY19AQ3HU8,3SBEHTYCWRJ82CRN3RB54F4O0H4YIG,6,5
29,2,object_05,object_10,695.5,4,2,802.0,0.3333333333333333,2,object_06,5,638,0,8,3,forest_5,1,memory-2step-stake-s,524,1090154,0.0-19.0-0.0-0.29,A2HXUTHYA5C1E0,391FPZIE5F2O3PY4X6RTCY19AQ3HU8,3SBEHTYCWRJ82CRN3RB54F4O0H4YIG,3,4
30,2,object_05,object_10,914.89999999106,4,2,853.5,0.3333333333333333,2,object_06,5,653,0,8,3,forest_6,1,memory-2step-stake-s,525,1098542,0.0-19.0-0.0-0.30,A2HXUTHYA5C1E0,391FPZIE5F2O3PY4X6RTCY19AQ3HU8,3SBEHTYCWRJ82CRN3RB54F4O0H4YIG,3,4
31,3,object_03,object_04,1067.099999994,6,2,886.70000000298,0.0,2,object_06,5,653,0,7,0,library_5,1,memory-2step-stake-s,526,1106642,0.0-19.0-0.0-0.31,A2HXUTHYA5C1E0,391FPZIE5F2O3PY4X6RTCY19AQ3HU8,3SBEHTYCWRJ82CRN3RB54F4O0H4YIG,5,6
32,3,object_03,object_04,-1.0,-1,-1,-1.0,0.0,-,0,5,653,0,6,3,library_7,1,memory-2step-stake-s,527,1113153,0.0-19.0-0.0-0.32,A2HXUTHYA5C1E0,391FPZIE5F2O3PY4X6RTCY19AQ3HU8,3SBEHTYCWRJ82CRN3RB54F4O0H4YIG,5,6
33,2,object_10,object_05,627.70000000298,4,1,485.59999999404,0.5555555555555556,2,object_06,1,658,0,3,5,forest_5,1,memory-2step-stake-s,528,1121451,0.0-19.0-0.0-0.33,A2HXUTHYA5C1E0,391FPZIE5F2O3PY4X6RTCY19AQ3HU8,3SBEHTYCWRJ82CRN3RB54F4O0H4YIG,4,3
34,1,object_01,object_07,617.09999999404,2,2,482.5,0.7777777777777778,2,object_06,1,665,0,2,7,desert_5,1,memory-2step-stake-s,529,1129992,0.0-19.0-0.0-0.34,A2HXUTHYA5C1E0,391FPZIE5F2O3PY4X6RTCY19AQ3HU8,3SBEHTYCWRJ82CRN3RB54F4O0H4YIG,1,2
35,3,object_04,object_03,1190.299999997,5,2,1078.0,0.1111111111111111,1,object_02,1,666,0,1,7,library_5,1,memory-2step-stake-s,530,1138390,0.0-19.0-0.0-0.35,A2HXUTHYA5C1E0,391FPZIE5F2O3PY4X6RTCY19AQ3HU8,3SBEHTYCWRJ82CRN3RB54F4O0H4YIG,6,5
36,4,object_08,object_09,943.5,7,2,397.30000001192,0.3333333333333333,1,object_02,5,681,0,3,7,restaurant_2,1,memory-2step-stake-s,531,1146347,0.0-19.0-0.0-0.36,A2HXUTHYA5C1E0,391FPZIE5F2O3PY4X6RTCY19AQ3HU8,3SBEHTYCWRJ82CRN3RB54F4O0H4YIG,8,7
37,3,object_03,object_04,787.29999999702,6,2,565.60000000894,1.0,2,object_06,5,726,0,5,9,library_8,1,memory-2step-stake-s,532,1155118,0.0-19.0-0.0-0.37,A2HXUTHYA5C1E0,391FPZIE5F2O3PY4X6RTCY19AQ3HU8,3SBEHTYCWRJ82CRN3RB54F4O0H4YIG,5,6
38,4,object_09,object_08,856.60000000894,8,2,711.70000000298,0.8888888888888888,2,object_06,5,766,0,6,8,restaurant_2,1,memory-2step-stake-s,533,1163859,0.0-19.0-0.0-0.38,A2HXUTHYA5C1E0,391FPZIE5F2O3PY4X6RTCY19AQ3HU8,3SBEHTYCWRJ82CRN3RB54F4O0H4YIG,7,8
39,2,object_10,object_05,821.09999999404,4,1,682.10000000894,0.6666666666666666,2,object_06,1,772,0,4,6,forest_6,1,memory-2step-stake-s,534,1172396,0.0-19.0-0.0-0.39,A2HXUTHYA5C1E0,391FPZIE5F2O3PY4X6RTCY19AQ3HU8,3SBEHTYCWRJ82CRN3RB54F4O0H4YIG,4,3
40,4,object_09,object_08,775.5,8,2,754.29999999702,0.5555555555555556,2,object_06,5,797,0,2,5,restaurant_8,1,memory-2step-stake-s,535,1180875,0.0-19.0-0.0-0.40,A2HXUTHYA5C1E0,391FPZIE5F2O3PY4X6RTCY19AQ3HU8,3SBEHTYCWRJ82CRN3RB54F4O0H4YIG,7,8
41,3,object_03,object_04,1072.700000003,6,2,-1.0,0.0,2,object_06,5,797,0,0,3,library_2,1,memory-2step-stake-s,536,1189411,0.0-19.0-0.0-0.41,A2HXUTHYA5C1E0,391FPZIE5F2O3PY4X6RTCY19AQ3HU8,3SBEHTYCWRJ82CRN3RB54F4O0H4YIG,5,6
42,2,object_10,object_05,1068.200000003,3,2,551.09999999404,0.1111111111111111,1,object_02,5,802,0,1,2,forest_6,1,memory-2step-stake-s,537,1197292,0.0-19.0-0.0-0.42,A2HXUTHYA5C1E0,391FPZIE5F2O3PY4X6RTCY19AQ3HU8,3SBEHTYCWRJ82CRN3RB54F4O0H4YIG,4,3
43,3,object_04,object_03,761.40000000596,6,1,423.29999999702,0.3333333333333333,2,object_06,5,817,0,1,3,library_2,1,memory-2step-stake-s,538,1205264,0.0-19.0-0.0-0.43,A2HXUTHYA5C1E0,391FPZIE5F2O3PY4X6RTCY19AQ3HU8,3SBEHTYCWRJ82CRN3RB54F4O0H4YIG,6,5
44,2,object_05,object_10,909.5,3,1,448.70000000298,0.4444444444444444,1,object_02,1,821,0,4,3,forest_6,1,memory-2step-stake-s,539,1213368,0.0-19.0-0.0-0.44,A2HXUTHYA5C1E0,391FPZIE5F2O3PY4X6RTCY19AQ3HU8,3SBEHTYCWRJ82CRN3RB54F4O0H4YIG,3,4
45,2,object_05,object_10,1134.299999997,4,2,823.09999999404,0.4444444444444444,2,object_06,1,825,0,7,4,forest_5,1,memory-2step-stake-s,540,1221811,0.0-19.0-0.0-0.45,A2HXUTHYA5C1E0,391FPZIE5F2O3PY4X6RTCY19AQ3HU8,3SBEHTYCWRJ82CRN3RB54F4O0H4YIG,3,4
46,2,object_10,object_05,890.39999999106,4,1,1069.099999994,0.5555555555555556,2,object_06,1,830,0,7,5,forest_6,1,memory-2step-stake-s,541,1230609,0.0-19.0-0.0-0.46,A2HXUTHYA5C1E0,391FPZIE5F2O3PY4X6RTCY19AQ3HU8,3SBEHTYCWRJ82CRN3RB54F4O0H4YIG,4,3
47,2,object_05,object_10,1163.299999997,4,2,-1.0,0.0,2,object_06,1,830,0,7,8,forest_7,1,memory-2step-stake-s,542,1239130,0.0-19.0-0.0-0.47,A2HXUTHYA5C1E0,391FPZIE5F2O3PY4X6RTCY19AQ3HU8,3SBEHTYCWRJ82CRN3RB54F4O0H4YIG,3,4
48,1,object_01,object_07,742.90000000596,1,1,584.20000000298,0.7777777777777778,1,object_02,1,837,0,7,9,desert_3,1,memory-2step-stake-s,543,1247809,0.0-19.0-0.0-0.48,A2HXUTHYA5C1E0,391FPZIE5F2O3PY4X6RTCY19AQ3HU8,3SBEHTYCWRJ82CRN3RB54F4O0H4YIG,1,2
49,1,object_01,object_07,720.40000000596,2,2,623.20000000298,0.7777777777777778,2,object_06,5,872,0,5,7,desert_6,1,memory-2step-stake-s,544,1256421,0.0-19.0-0.0-0.49,A2HXUTHYA5C1E0,391FPZIE5F2O3PY4X6RTCY19AQ3HU8,3SBEHTYCWRJ82CRN3RB54F4O0H4YIG,1,2
50,1,object_07,object_01,944.59999999404,1,2,417.09999999404,0.7777777777777778,1,object_02,1,879,0,7,8,desert_6,1,memory-2step-stake-s,545,1264779,0.0-19.0-0.0-0.50,A2HXUTHYA5C1E0,391FPZIE5F2O3PY4X6RTCY19AQ3HU8,3SBEHTYCWRJ82CRN3RB54F4O0H4YIG,2,1
51,1,object_07,object_01,835.79999999702,2,1,1097.1000000089,0.8888888888888888,2,object_06,1,887,0,7,8,desert_3,1,memory-2step-stake-s,546,1273950,0.0-19.0-0.0-0.51,A2HXUTHYA5C1E0,391FPZIE5F2O3PY4X6RTCY19AQ3HU8,3SBEHTYCWRJ82CRN3RB54F4O0H4YIG,2,1
52,3,object_04,object_03,856.19999998808,6,1,696.40000000596,0.7777777777777778,2,object_06,1,894,0,4,7,library_5,1,memory-2step-stake-s,547,1282582,0.0-19.0-0.0-0.52,A2HXUTHYA5C1E0,391FPZIE5F2O3PY4X6RTCY19AQ3HU8,3SBEHTYCWRJ82CRN3RB54F4O0H4YIG,6,5
53,1,object_07,object_01,1150.200000003,1,2,598.40000000596,0.7777777777777778,1,object_02,1,901,0,7,6,desert_5,1,memory-2step-stake-s,548,1291126,0.0-19.0-0.0-0.53,A2HXUTHYA5C1E0,391FPZIE5F2O3PY4X6RTCY19AQ3HU8,3SBEHTYCWRJ82CRN3RB54F4O0H4YIG,2,1
54,4,object_08,object_09,623.60000000894,8,1,750.90000000596,0.7777777777777778,2,object_06,5,936,0,8,7,restaurant_1,1,memory-2step-stake-s,549,1299834,0.0-19.0-0.0-0.54,A2HXUTHYA5C1E0,391FPZIE5F2O3PY4X6RTCY19AQ3HU8,3SBEHTYCWRJ82CRN3RB54F4O0H4YIG,8,7
55,1,object_01,object_07,852.29999999702,1,1,458.20000000298,0.8888888888888888,1,object_02,1,944,0,8,6,desert_5,1,memory-2step-stake-s,550,1308352,0.0-19.0-0.0-0.55,A2HXUTHYA5C1E0,391FPZIE5F2O3PY4X6RTCY19AQ3HU8,3SBEHTYCWRJ82CRN3RB54F4O0H4YIG,1,2
56,2,object_10,object_05,842.59999999404,4,1,633.20000000298,0.2222222222222222,2,object_06,1,946,0,6,2,forest_7,1,memory-2step-stake-s,551,1316412,0.0-19.0-0.0-0.56,A2HXUTHYA5C1E0,391FPZIE5F2O3PY4X6RTCY19AQ3HU8,3SBEHTYCWRJ82CRN3RB54F4O0H4YIG,4,3
57,4,object_09,object_08,833.79999999702,8,2,540.0,0.0,2,object_06,5,946,0,8,0,restaurant_3,1,memory-2step-stake-s,552,1324168,0.0-19.0-0.0-0.57,A2HXUTHYA5C1E0,391FPZIE5F2O3PY4X6RTCY19AQ3HU8,3SBEHTYCWRJ82CRN3RB54F4O0H4YIG,7,8
58,2,object_05,object_10,700.40000000596,3,1,1198.0,0.7777777777777778,1,object_02,1,953,0,7,0,forest_7,1,memory-2step-stake-s,553,1333310,0.0-19.0-0.0-0.58,A2HXUTHYA5C1E0,391FPZIE5F2O3PY4X6RTCY19AQ3HU8,3SBEHTYCWRJ82CRN3RB54F4O0H4YIG,3,4
59,1,object_01,object_07,844.20000000298,1,1,1275.700000003,0.8888888888888888,1,object_02,1,961,0,8,0,desert_8,1,memory-2step-stake-s,554,1342637,0.0-19.0-0.0-0.59,A2HXUTHYA5C1E0,391FPZIE5F2O3PY4X6RTCY19AQ3HU8,3SBEHTYCWRJ82CRN3RB54F4O0H4YIG,1,2
60,2,object_10,object_05,718.79999999702,4,1,764.79999999702,0.1111111111111111,2,object_06,1,962,0,8,1,forest_7,1,memory-2step-stake-s,555,1350725,0.0-19.0-0.0-0.60,A2HXUTHYA5C1E0,391FPZIE5F2O3PY4X6RTCY19AQ3HU8,3SBEHTYCWRJ82CRN3RB54F4O0H4YIG,4,3
61,4,object_09,object_08,801.90000000596,8,2,508.0,0.5555555555555556,2,object_06,1,967,0,7,5,restaurant_2,1,memory-2step-stake-s,556,1358965,0.0-19.0-0.0-0.61,A2HXUTHYA5C1E0,391FPZIE5F2O3PY4X6RTCY19AQ3HU8,3SBEHTYCWRJ82CRN3RB54F4O0H4YIG,7,8
62,3,object_03,object_04,911.79999999702,6,2,173.0,0.7777777777777778,2,object_06,1,974,0,6,7,library_2,1,memory-2step-stake-s,557,1367060,0.0-19.0-0.0-0.62,A2HXUTHYA5C1E0,391FPZIE5F2O3PY4X6RTCY19AQ3HU8,3SBEHTYCWRJ82CRN3RB54F4O0H4YIG,5,6
63,2,object_10,object_05,761.90000000596,4,1,1363.299999997,0.7777777777777778,2,object_06,1,981,0,1,7,forest_6,1,memory-2step-stake-s,558,1376349,0.0-19.0-0.0-0.63,A2HXUTHYA5C1E0,391FPZIE5F2O3PY4X6RTCY19AQ3HU8,3SBEHTYCWRJ82CRN3RB54F4O0H4YIG,4,3
64,4,object_09,object_08,714.10000000894,8,2,533.90000000596,0.7777777777777778,2,object_06,5,1016,0,0,7,restaurant_8,1,memory-2step-stake-s,559,1384855,0.0-19.0-0.0-0.64,A2HXUTHYA5C1E0,391FPZIE5F2O3PY4X6RTCY19AQ3HU8,3SBEHTYCWRJ82CRN3RB54F4O0H4YIG,7,8
65,1,object_07,object_01,788.90000000596,2,1,528.20000000298,0.6666666666666666,2,object_06,1,1022,0,2,6,desert_6,1,memory-2step-stake-s,560,1393277,0.0-19.0-0.0-0.65,A2HXUTHYA5C1E0,391FPZIE5F2O3PY4X6RTCY19AQ3HU8,3SBEHTYCWRJ82CRN3RB54F4O0H4YIG,2,1
66,4,object_08,object_09,497.20000000298,8,1,910.20000000298,0.6666666666666666,2,object_06,5,1052,0,4,6,restaurant_2,1,memory-2step-stake-s,561,1402011,0.0-19.0-0.0-0.66,A2HXUTHYA5C1E0,391FPZIE5F2O3PY4X6RTCY19AQ3HU8,3SBEHTYCWRJ82CRN3RB54F4O0H4YIG,8,7
67,1,object_07,object_01,730.29999999702,2,1,916.70000000298,0.6666666666666666,2,object_06,1,1058,0,4,6,desert_8,1,memory-2step-stake-s,562,1410777,0.0-19.0-0.0-0.67,A2HXUTHYA5C1E0,391FPZIE5F2O3PY4X6RTCY19AQ3HU8,3SBEHTYCWRJ82CRN3RB54F4O0H4YIG,2,1
68,1,object_01,object_07,956.5,1,1,1007.700000003,0.6666666666666666,1,object_02,1,1064,0,6,3,desert_3,1,memory-2step-stake-s,563,1419650,0.0-19.0-0.0-0.68,A2HXUTHYA5C1E0,391FPZIE5F2O3PY4X6RTCY19AQ3HU8,3SBEHTYCWRJ82CRN3RB54F4O0H4YIG,1,2
69,1,object_07,object_01,639.40000000596,2,1,794.89999999106,0.1111111111111111,2,object_06,1,1065,0,7,1,desert_8,1,memory-2step-stake-s,564,1427823,0.0-19.0-0.0-0.69,A2HXUTHYA5C1E0,391FPZIE5F2O3PY4X6RTCY19AQ3HU8,3SBEHTYCWRJ82CRN3RB54F4O0H4YIG,2,1
70,2,object_10,object_05,623.0,4,1,489.10000000894,0.2222222222222222,2,object_06,1,1067,0,7,2,forest_7,1,memory-2step-stake-s,565,1435746,0.0-19.0-0.0-0.70,A2HXUTHYA5C1E0,391FPZIE5F2O3PY4X6RTCY19AQ3HU8,3SBEHTYCWRJ82CRN3RB54F4O0H4YIG,4,3
71,2,object_10,object_05,686.79999999702,4,1,423.70000000298,0.3333333333333333,2,object_06,1,1070,0,7,3,forest_8,1,memory-2step-stake-s,566,1443689,0.0-19.0-0.0-0.71,A2HXUTHYA5C1E0,391FPZIE5F2O3PY4X6RTCY19AQ3HU8,3SBEHTYCWRJ82CRN3RB54F4O0H4YIG,4,3
72,1,object_07,object_01,733.20000000298,2,1,1176.1000000089,0.4444444444444444,2,object_06,5,1090,0,5,4,desert_8,1,memory-2step-stake-s,567,1452488,0.0-19.0-0.0-0.72,A2HXUTHYA5C1E0,391FPZIE5F2O3PY4X6RTCY19AQ3HU8,3SBEHTYCWRJ82CRN3RB54F4O0H4YIG,2,1
73,2,object_05,object_10,772.79999999702,4,2,863.0,0.8888888888888888,2,object_06,1,1098,0,5,8,forest_5,1,memory-2step-stake-s,568,1461383,0.0-19.0-0.0-0.73,A2HXUTHYA5C1E0,391FPZIE5F2O3PY4X6RTCY19AQ3HU8,3SBEHTYCWRJ82CRN3RB54F4O0H4YIG,3,4
74,2,object_05,object_10,936.5,4,2,177.20000000298,0.8888888888888888,2,object_06,5,1138,0,5,8,forest_5,1,memory-2step-stake-s,569,1469604,0.0-19.0-0.0-0.74,A2HXUTHYA5C1E0,391FPZIE5F2O3PY4X6RTCY19AQ3HU8,3SBEHTYCWRJ82CRN3RB54F4O0H4YIG,3,4
75,3,object_03,object_04,856.59999999404,6,2,1074.200000003,0.5555555555555556,2,object_06,5,1163,0,5,5,library_2,1,memory-2step-stake-s,570,1478428,0.0-19.0-0.0-0.75,A2HXUTHYA5C1E0,391FPZIE5F2O3PY4X6RTCY19AQ3HU8,3SBEHTYCWRJ82CRN3RB54F4O0H4YIG,5,6
76,4,object_08,object_09,718.90000000596,8,1,1201.3999999911,0.7777777777777778,2,object_06,5,1198,0,1,7,restaurant_1,1,memory-2step-stake-s,571,1487579,0.0-19.0-0.0-0.76,A2HXUTHYA5C1E0,391FPZIE5F2O3PY4X6RTCY19AQ3HU8,3SBEHTYCWRJ82CRN3RB54F4O0H4YIG,8,7
77,1,object_07,object_01,785.80000001192,2,1,1372.299999997,0.7777777777777778,2,object_06,1,1205,0,2,7,desert_8,1,memory-2step-stake-s,572,1496894,0.0-19.0-0.0-0.77,A2HXUTHYA5C1E0,391FPZIE5F2O3PY4X6RTCY19AQ3HU8,3SBEHTYCWRJ82CRN3RB54F4O0H4YIG,2,1
78,4,object_09,object_08,727.90000000596,8,2,539.90000000596,0.8888888888888888,2,object_06,1,1213,0,3,8,restaurant_1,1,memory-2step-stake-s,573,1505510,0.0-19.0-0.0-0.78,A2HXUTHYA5C1E0,391FPZIE5F2O3PY4X6RTCY19AQ3HU8,3SBEHTYCWRJ82CRN3RB54F4O0H4YIG,7,8
79,1,object_01,object_07,805.70000000298,2,2,875.09999999404,0.8888888888888888,2,object_06,1,1221,0,2,8,desert_5,1,memory-2step-stake-s,574,1514471,0.0-19.0-0.0-0.79,A2HXUTHYA5C1E0,391FPZIE5F2O3PY4X6RTCY19AQ3HU8,3SBEHTYCWRJ82CRN3RB54F4O0H4YIG,1,2
80,2,object_10,object_05,805.09999999404,4,1,751.5,0.8888888888888888,2,object_06,1,1229,0,1,8,forest_5,1,memory-2step-stake-s,575,1523281,0.0-19.0-0.0-0.80,A2HXUTHYA5C1E0,391FPZIE5F2O3PY4X6RTCY19AQ3HU8,3SBEHTYCWRJ82CRN3RB54F4O0H4YIG,4,3
81,3,object_04,object_03,780.59999999404,6,1,646.29999999702,0.3333333333333333,2,object_06,5,1244,0,3,3,library_7,1,memory-2step-stake-s,576,1531454,0.0-19.0-0.0-0.81,A2HXUTHYA5C1E0,391FPZIE5F2O3PY4X6RTCY19AQ3HU8,3SBEHTYCWRJ82CRN3RB54F4O0H4YIG,6,5
82,1,object_07,object_01,872.20000000298,2,1,1426.400000006,0.1111111111111111,2,object_06,1,1245,0,5,1,desert_8,1,memory-2step-stake-s,577,1540197,0.0-19.0-0.0-0.82,A2HXUTHYA5C1E0,391FPZIE5F2O3PY4X6RTCY19AQ3HU8,3SBEHTYCWRJ82CRN3RB54F4O0H4YIG,2,1
83,4,object_09,object_08,992.90000000596,8,2,729.10000000894,0.4444444444444444,2,object_06,5,1265,0,3,4,restaurant_2,1,memory-2step-stake-s,578,1548562,0.0-19.0-0.0-0.83,A2HXUTHYA5C1E0,391FPZIE5F2O3PY4X6RTCY19AQ3HU8,3SBEHTYCWRJ82CRN3RB54F4O0H4YIG,7,8
84,4,object_09,object_08,899.20000000298,8,2,774.29999999702,0.2222222222222222,2,object_06,1,1267,0,5,2,restaurant_2,1,memory-2step-stake-s,579,1556789,0.0-19.0-0.0-0.84,A2HXUTHYA5C1E0,391FPZIE5F2O3PY4X6RTCY19AQ3HU8,3SBEHTYCWRJ82CRN3RB54F4O0H4YIG,7,8
85,4,object_08,object_09,663.79999999702,8,1,523.89999999106,0.3333333333333333,2,object_06,5,1282,0,4,3,restaurant_1,1,memory-2step-stake-s,580,1564845,0.0-19.0-0.0-0.85,A2HXUTHYA5C1E0,391FPZIE5F2O3PY4X6RTCY19AQ3HU8,3SBEHTYCWRJ82CRN3RB54F4O0H4YIG,8,7
86,4,object_09,object_08,816.79999999702,8,2,834.0,0.1111111111111111,2,object_06,5,1287,0,5,1,restaurant_8,1,memory-2step-stake-s,581,1573012,0.0-19.0-0.0-0.86,A2HXUTHYA5C1E0,391FPZIE5F2O3PY4X6RTCY19AQ3HU8,3SBEHTYCWRJ82CRN3RB54F4O0H4YIG,7,8
87,2,object_10,object_05,1003.900000006,3,2,956.79999999702,0.0,1,object_02,1,1287,0,0,3,forest_8,1,memory-2step-stake-s,582,1581191,0.0-19.0-0.0-0.87,A2HXUTHYA5C1E0,391FPZIE5F2O3PY4X6RTCY19AQ3HU8,3SBEHTYCWRJ82CRN3RB54F4O0H4YIG,4,3
88,3,object_04,object_03,889.0,6,1,730.90000000596,0.3333333333333333,2,object_06,1,1290,0,2,3,library_7,1,memory-2step-stake-s,583,1589450,0.0-19.0-0.0-0.88,A2HXUTHYA5C1E0,391FPZIE5F2O3PY4X6RTCY19AQ3HU8,3SBEHTYCWRJ82CRN3RB54F4O0H4YIG,6,5
89,4,object_08,object_09,709.59999999404,8,1,100.70000000298,0.2222222222222222,2,object_06,5,1300,0,1,2,restaurant_3,1,memory-2step-stake-s,584,1596972,0.0-19.0-0.0-0.89,A2HXUTHYA5C1E0,391FPZIE5F2O3PY4X6RTCY19AQ3HU8,3SBEHTYCWRJ82CRN3RB54F4O0H4YIG,8,7
90,1,object_07,object_01,775.0,2,1,789.39999999106,0.3333333333333333,2,object_06,1,1303,0,2,3,desert_3,1,memory-2step-stake-s,585,1605307,0.0-19.0-0.0-0.90,A2HXUTHYA5C1E0,391FPZIE5F2O3PY4X6RTCY19AQ3HU8,3SBEHTYCWRJ82CRN3RB54F4O0H4YIG,2,1
91,2,object_05,object_10,912.79999999702,3,1,423.69999998808,0.2222222222222222,1,object_02,1,1305,0,2,4,forest_7,1,memory-2step-stake-s,586,1613163,0.0-19.0-0.0-0.91,A2HXUTHYA5C1E0,391FPZIE5F2O3PY4X6RTCY19AQ3HU8,3SBEHTYCWRJ82CRN3RB54F4O0H4YIG,3,4
92,1,object_07,object_01,620.29999999702,2,1,415.59999999404,0.7777777777777778,2,object_06,1,1312,0,0,7,desert_8,1,memory-2step-stake-s,587,1621553,0.0-19.0-0.0-0.92,A2HXUTHYA5C1E0,391FPZIE5F2O3PY4X6RTCY19AQ3HU8,3SBEHTYCWRJ82CRN3RB54F4O0H4YIG,2,1
93,1,object_01,object_07,735.5,1,1,991.19999998808,0.2222222222222222,1,object_02,1,1314,0,2,8,desert_3,1,memory-2step-stake-s,588,1630030,0.0-19.0-0.0-0.93,A2HXUTHYA5C1E0,391FPZIE5F2O3PY4X6RTCY19AQ3HU8,3SBEHTYCWRJ82CRN3RB54F4O0H4YIG,1,2
94,1,object_01,object_07,766.79999999702,1,1,753.0,0.0,1,object_02,1,1314,0,0,5,desert_5,1,memory-2step-stake-s,589,1638016,0.0-19.0-0.0-0.94,A2HXUTHYA5C1E0,391FPZIE5F2O3PY4X6RTCY19AQ3HU8,3SBEHTYCWRJ82CRN3RB54F4O0H4YIG,1,2
95,2,object_10,object_05,752.69999998808,4,1,779.29999999702,0.4444444444444444,2,object_06,1,1318,0,3,4,forest_5,1,memory-2step-stake-s,590,1646424,0.0-19.0-0.0-0.95,A2HXUTHYA5C1E0,391FPZIE5F2O3PY4X6RTCY19AQ3HU8,3SBEHTYCWRJ82CRN3RB54F4O0H4YIG,4,3
96,2,object_05,object_10,613.60000000894,3,1,863.40000000596,0.2222222222222222,1,object_02,1,1320,0,2,1,forest_8,1,memory-2step-stake-s,591,1654715,0.0-19.0-0.0-0.96,A2HXUTHYA5C1E0,391FPZIE5F2O3PY4X6RTCY19AQ3HU8,3SBEHTYCWRJ82CRN3RB54F4O0H4YIG,3,4
97,1,object_07,object_01,707.60000000894,2,1,918.0,0.0,2,object_06,1,1320,0,1,0,desert_6,1,memory-2step-stake-s,592,1662876,0.0-19.0-0.0-0.97,A2HXUTHYA5C1E0,391FPZIE5F2O3PY4X6RTCY19AQ3HU8,3SBEHTYCWRJ82CRN3RB54F4O0H4YIG,2,1
98,3,object_04,object_03,716.19999998808,6,1,708.59999999404,0.4444444444444444,2,object_06,5,1340,0,3,4,library_2,1,memory-2step-stake-s,593,1671230,0.0-19.0-0.0-0.98,A2HXUTHYA5C1E0,391FPZIE5F2O3PY4X6RTCY19AQ3HU8,3SBEHTYCWRJ82CRN3RB54F4O0H4YIG,6,5
99,2,object_10,object_05,830.20000000298,4,1,606.89999999106,0.2222222222222222,2,object_06,1,1342,0,5,2,forest_7,1,memory-2step-stake-s,594,1679262,0.0-19.0-0.0-0.99,A2HXUTHYA5C1E0,391FPZIE5F2O3PY4X6RTCY19AQ3HU8,3SBEHTYCWRJ82CRN3RB54F4O0H4YIG,4,3
100,3,object_03,object_04,1026.1999999881,6,2,893.79999999702,0.1111111111111111,2,object_06,1,1343,0,7,1,library_5,1,memory-2step-stake-s,595,1687481,0.0-19.0-0.0-0.100,A2HXUTHYA5C1E0,391FPZIE5F2O3PY4X6RTCY19AQ3HU8,3SBEHTYCWRJ82CRN3RB54F4O0H4YIG,5,6
101,1,object_07,object_01,796.5,2,1,673.89999999106,0.3333333333333333,2,object_06,1,1346,0,5,3,desert_6,1,memory-2step-stake-s,596,1695704,0.0-19.0-0.0-0.101,A2HXUTHYA5C1E0,391FPZIE5F2O3PY4X6RTCY19AQ3HU8,3SBEHTYCWRJ82CRN3RB54F4O0H4YIG,2,1
102,2,object_05,object_10,879.29999999702,4,2,857.5,0.4444444444444444,2,object_06,1,1350,0,5,4,forest_8,1,memory-2step-stake-s,597,1704185,0.0-19.0-0.0-0.102,A2HXUTHYA5C1E0,391FPZIE5F2O3PY4X6RTCY19AQ3HU8,3SBEHTYCWRJ82CRN3RB54F4O0H4YIG,3,4
103,2,object_10,object_05,579.20000000298,4,1,621.70000000298,0.2222222222222222,2,object_06,1,1352,0,9,2,forest_5,1,memory-2step-stake-s,598,1712229,0.0-19.0-0.0-0.103,A2HXUTHYA5C1E0,391FPZIE5F2O3PY4X6RTCY19AQ3HU8,3SBEHTYCWRJ82CRN3RB54F4O0H4YIG,4,3
104,3,object_04,object_03,617.0,6,1,595.40000000596,0.1111111111111111,2,object_06,5,1357,0,8,1,library_8,1,memory-2step-stake-s,599,1720142,0.0-19.0-0.0-0.104,A2HXUTHYA5C1E0,391FPZIE5F2O3PY4X6RTCY19AQ3HU8,3SBEHTYCWRJ82CRN3RB54F4O0H4YIG,6,5
105,3,object_03,object_04,872.59999999404,6,2,443.79999999702,0.3333333333333333,2,object_06,5,1372,0,7,3,library_7,1,memory-2step-stake-s,600,1728105,0.0-19.0-0.0-0.105,A2HXUTHYA5C1E0,391FPZIE5F2O3PY4X6RTCY19AQ3HU8,3SBEHTYCWRJ82CRN3RB54F4O0H4YIG,5,6
106,4,object_09,object_08,764.29999999702,8,2,614.59999999404,0.1111111111111111,2,object_06,5,1377,0,5,1,restaurant_3,1,memory-2step-stake-s,601,1736040,0.0-19.0-0.0-0.106,A2HXUTHYA5C1E0,391FPZIE5F2O3PY4X6RTCY19AQ3HU8,3SBEHTYCWRJ82CRN3RB54F4O0H4YIG,7,8
107,3,object_03,object_04,891.40000000596,6,2,1246.1999999881,0.4444444444444444,2,object_06,1,1381,0,4,4,library_2,1,memory-2step-stake-s,602,1744929,0.0-19.0-0.0-0.107,A2HXUTHYA5C1E0,391FPZIE5F2O3PY4X6RTCY19AQ3HU8,3SBEHTYCWRJ82CRN3RB54F4O0H4YIG,5,6
108,4,object_08,object_09,618.70000000298,8,1,1269.099999994,0.4444444444444444,2,object_06,5,1401,0,5,4,restaurant_1,1,memory-2step-stake-s,603,1753824,0.0-19.0-0.0-0.108,A2HXUTHYA5C1E0,391FPZIE5F2O3PY4X6RTCY19AQ3HU8,3SBEHTYCWRJ82CRN3RB54F4O0H4YIG,8,7
109,1,object_01,object_07,880.40000000596,1,1,856.39999999106,0.6666666666666666,1,object_02,1,1407,0,6,3,desert_6,1,memory-2step-stake-s,604,1762516,0.0-19.0-0.0-0.109,A2HXUTHYA5C1E0,391FPZIE5F2O3PY4X6RTCY19AQ3HU8,3SBEHTYCWRJ82CRN3RB54F4O0H4YIG,1,2
110,4,object_08,object_09,850.20000000298,8,1,555.10000000894,0.2222222222222222,2,object_06,5,1417,0,6,2,restaurant_3,1,memory-2step-stake-s,605,1770499,0.0-19.0-0.0-0.110,A2HXUTHYA5C1E0,391FPZIE5F2O3PY4X6RTCY19AQ3HU8,3SBEHTYCWRJ82CRN3RB54F4O0H4YIG,8,7
111,3,object_03,object_04,820.0,6,2,540.5,0.0,2,object_06,5,1417,0,6,0,library_7,1,memory-2step-stake-s,606,1778256,0.0-19.0-0.0-0.111,A2HXUTHYA5C1E0,391FPZIE5F2O3PY4X6RTCY19AQ3HU8,3SBEHTYCWRJ82CRN3RB54F4O0H4YIG,5,6
112,4,object_09,object_08,1189.3999999911,8,2,398.59999999404,0.2222222222222222,2,object_06,1,1419,0,4,2,restaurant_2,1,memory-2step-stake-s,607,1786079,0.0-19.0-0.0-0.112,A2HXUTHYA5C1E0,391FPZIE5F2O3PY4X6RTCY19AQ3HU8,3SBEHTYCWRJ82CRN3RB54F4O0H4YIG,7,8
113,1,object_07,object_01,1014.8999999911,2,1,976.69999998808,0.0,2,object_06,1,1419,0,4,0,desert_3,1,memory-2step-stake-s,608,1794285,0.0-19.0-0.0-0.113,A2HXUTHYA5C1E0,391FPZIE5F2O3PY4X6RTCY19AQ3HU8,3SBEHTYCWRJ82CRN3RB54F4O0H4YIG,2,1
114,2,object_10,object_05,775.90000000596,4,1,780.39999999106,0.3333333333333333,2,object_06,1,1422,0,4,3,forest_8,1,memory-2step-stake-s,609,1802594,0.0-19.0-0.0-0.114,A2HXUTHYA5C1E0,391FPZIE5F2O3PY4X6RTCY19AQ3HU8,3SBEHTYCWRJ82CRN3RB54F4O0H4YIG,4,3
115,4,object_08,object_09,653.80000001192,8,1,398.09999999404,0.3333333333333333,2,object_06,1,1425,0,5,3,restaurant_8,1,memory-2step-stake-s,610,1810532,0.0-19.0-0.0-0.115,A2HXUTHYA5C1E0,391FPZIE5F2O3PY4X6RTCY19AQ3HU8,3SBEHTYCWRJ82CRN3RB54F4O0H4YIG,8,7
116,1,object_01,object_07,378.29999999702,1,1,1140.799999997,1.0,1,object_02,5,1470,0,9,7,desert_3,1,memory-2step-stake-s,611,1819908,0.0-19.0-0.0-0.116,A2HXUTHYA5C1E0,391FPZIE5F2O3PY4X6RTCY19AQ3HU8,3SBEHTYCWRJ82CRN3RB54F4O0H4YIG,1,2
117,1,object_07,object_01,665.10000000894,2,1,764.90000000596,0.7777777777777778,2,object_06,1,1477,0,8,7,desert_6,1,memory-2step-stake-s,612,1828602,0.0-19.0-0.0-0.117,A2HXUTHYA5C1E0,391FPZIE5F2O3PY4X6RTCY19AQ3HU8,3SBEHTYCWRJ82CRN3RB54F4O0H4YIG,2,1
118,4,object_09,object_08,1395.6999999881,8,2,-1.0,0.0,2,object_06,5,1477,0,7,4,restaurant_1,1,memory-2step-stake-s,613,1837118,0.0-19.0-0.0-0.118,A2HXUTHYA5C1E0,391FPZIE5F2O3PY4X6RTCY19AQ3HU8,3SBEHTYCWRJ82CRN3RB54F4O0H4YIG,7,8
119,1,object_07,object_01,720.70000000298,2,1,831.40000000596,0.7777777777777778,2,object_06,1,1484,0,9,7,desert_3,1,memory-2step-stake-s,614,1845985,0.0-19.0-0.0-0.119,A2HXUTHYA5C1E0,391FPZIE5F2O3PY4X6RTCY19AQ3HU8,3SBEHTYCWRJ82CRN3RB54F4O0H4YIG,2,1
120,4,object_09,object_08,1508.299999997,7,1,1026.400000006,0.8888888888888888,1,object_02,1,1492,0,8,5,restaurant_8,1,memory-2step-stake-s,615,1855137,0.0-19.0-0.0-0.120,A2HXUTHYA5C1E0,391FPZIE5F2O3PY4X6RTCY19AQ3HU8,3SBEHTYCWRJ82CRN3RB54F4O0H4YIG,7,8
121,1,object_01,object_07,749.90000000596,2,2,249.69999998808,0.6666666666666666,2,object_06,5,1522,0,6,6,desert_6,1,memory-2step-stake-s,616,1863236,0.0-19.0-0.0-0.121,A2HXUTHYA5C1E0,391FPZIE5F2O3PY4X6RTCY19AQ3HU8,3SBEHTYCWRJ82CRN3RB54F4O0H4YIG,1,2
122,4,object_08,object_09,665.69999998808,8,1,924.59999999404,0.3333333333333333,2,object_06,5,1537,0,6,3,restaurant_1,1,memory-2step-stake-s,617,1871708,0.0-19.0-0.0-0.122,A2HXUTHYA5C1E0,391FPZIE5F2O3PY4X6RTCY19AQ3HU8,3SBEHTYCWRJ82CRN3RB54F4O0H4YIG,8,7
123,2,object_10,object_05,792.29999999702,3,2,1270.099999994,0.4444444444444444,1,object_02,1,1541,0,4,2,forest_6,1,memory-2step-stake-s,618,1880622,0.0-19.0-0.0-0.123,A2HXUTHYA5C1E0,391FPZIE5F2O3PY4X6RTCY19AQ3HU8,3SBEHTYCWRJ82CRN3RB54F4O0H4YIG,4,3
124,2,object_05,object_10,633.30000001192,3,1,356.09999999404,0.6666666666666666,1,object_02,1,1547,0,6,3,forest_8,1,memory-2step-stake-s,619,1888819,0.0-19.0-0.0-0.124,A2HXUTHYA5C1E0,391FPZIE5F2O3PY4X6RTCY19AQ3HU8,3SBEHTYCWRJ82CRN3RB54F4O0H4YIG,3,4
125,1,object_07,object_01,1260.0,2,1,638.20000000298,0.3333333333333333,2,object_06,1,1550,0,6,3,desert_5,1,memory-2step-stake-s,620,1896979,0.0-19.0-0.0-0.125,A2HXUTHYA5C1E0,391FPZIE5F2O3PY4X6RTCY19AQ3HU8,3SBEHTYCWRJ82CRN3RB54F4O0H4YIG,2,1
126,4,object_08,object_09,1344.1000000089,8,1,390.0,0.3333333333333333,2,object_06,5,1565,0,3,3,restaurant_3,1,memory-2step-stake-s,621,1904916,0.0-19.0-0.0-0.126,A2HXUTHYA5C1E0,391FPZIE5F2O3PY4X6RTCY19AQ3HU8,3SBEHTYCWRJ82CRN3RB54F4O0H4YIG,8,7
127,2,object_05,object_10,723.30000001192,3,1,239.10000000894,0.1111111111111111,1,object_02,1,1566,0,1,4,forest_8,1,memory-2step-stake-s,622,1912485,0.0-19.0-0.0-0.127,A2HXUTHYA5C1E0,391FPZIE5F2O3PY4X6RTCY19AQ3HU8,3SBEHTYCWRJ82CRN3RB54F4O0H4YIG,3,4
128,2,object_05,object_10,741.79999999702,3,1,90.09999999404,0.1111111111111111,1,object_02,1,1567,0,1,4,forest_6,1,memory-2step-stake-s,624,1924798,0.0-19.0-0.1-0.128,A2HXUTHYA5C1E0,391FPZIE5F2O3PY4X6RTCY19AQ3HU8,3SBEHTYCWRJ82CRN3RB54F4O0H4YIG,3,4
129,2,object_05,object_10,1367.200000003,3,1,410.19999998808,0.2222222222222222,1,object_02,1,1569,0,2,6,forest_5,1,memory-2step-stake-s,625,1932627,0.0-19.0-0.1-0.129,A2HXUTHYA5C1E0,391FPZIE5F2O3PY4X6RTCY19AQ3HU8,3SBEHTYCWRJ82CRN3RB54F4O0H4YIG,3,4
130,1,object_07,object_01,921.89999999106,2,1,101.90000000596,0.6666666666666666,2,object_06,1,1575,0,4,6,desert_8,1,memory-2step-stake-s,626,1940561,0.0-19.0-0.1-0.130,A2HXUTHYA5C1E0,391FPZIE5F2O3PY4X6RTCY19AQ3HU8,3SBEHTYCWRJ82CRN3RB54F4O0H4YIG,2,1
131,2,object_10,object_05,1042.400000006,4,1,137.19999998808,0.5555555555555556,2,object_06,5,1600,0,5,5,forest_6,1,memory-2step-stake-s,627,1948437,0.0-19.0-0.1-0.131,A2HXUTHYA5C1E0,391FPZIE5F2O3PY4X6RTCY19AQ3HU8,3SBEHTYCWRJ82CRN3RB54F4O0H4YIG,4,3
132,4,object_08,object_09,748.69999998808,7,2,29.79999999702,0.3333333333333333,1,object_02,1,1603,0,3,7,restaurant_3,1,memory-2step-stake-s,628,1956041,0.0-19.0-0.1-0.132,A2HXUTHYA5C1E0,391FPZIE5F2O3PY4X6RTCY19AQ3HU8,3SBEHTYCWRJ82CRN3RB54F4O0H4YIG,8,7
133,3,object_03,object_04,850.60000000894,6,2,160.30000001192,0.4444444444444444,2,object_06,5,1623,0,0,4,library_8,1,memory-2step-stake-s,629,1963890,0.0-19.0-0.1-0.133,A2HXUTHYA5C1E0,391FPZIE5F2O3PY4X6RTCY19AQ3HU8,3SBEHTYCWRJ82CRN3RB54F4O0H4YIG,5,6
134,3,object_04,object_03,705.40000000596,6,1,443.0,0.4444444444444444,2,object_06,5,1643,0,0,4,library_7,1,memory-2step-stake-s,630,1971982,0.0-19.0-0.1-0.134,A2HXUTHYA5C1E0,391FPZIE5F2O3PY4X6RTCY19AQ3HU8,3SBEHTYCWRJ82CRN3RB54F4O0H4YIG,6,5
135,1,object_01,object_07,581.79999999702,1,1,286.0,0.1111111111111111,1,object_02,1,1644,0,1,6,desert_3,1,memory-2step-stake-s,631,1979591,0.0-19.0-0.1-0.135,A2HXUTHYA5C1E0,391FPZIE5F2O3PY4X6RTCY19AQ3HU8,3SBEHTYCWRJ82CRN3RB54F4O0H4YIG,1,2
136,1,object_07,object_01,1219.700000003,1,2,457.19999998808,0.1111111111111111,1,object_02,1,1645,0,1,0,desert_8,1,memory-2step-stake-s,632,1987377,0.0-19.0-0.1-0.136,A2HXUTHYA5C1E0,391FPZIE5F2O3PY4X6RTCY19AQ3HU8,3SBEHTYCWRJ82CRN3RB54F4O0H4YIG,2,1
137,1,object_07,object_01,942.5,2,1,380.59999999404,0.1111111111111111,2,object_06,5,1650,0,3,1,desert_8,1,memory-2step-stake-s,633,1995084,0.0-19.0-0.1-0.137,A2HXUTHYA5C1E0,391FPZIE5F2O3PY4X6RTCY19AQ3HU8,3SBEHTYCWRJ82CRN3RB54F4O0H4YIG,2,1
138,4,object_08,object_09,794.5,7,2,325.79999999702,0.4444444444444444,1,object_02,1,1654,0,4,5,restaurant_3,1,memory-2step-stake-s,634,2003038,0.0-19.0-0.1-0.138,A2HXUTHYA5C1E0,391FPZIE5F2O3PY4X6RTCY19AQ3HU8,3SBEHTYCWRJ82CRN3RB54F4O0H4YIG,8,7
139,4,object_09,object_08,632.0,8,2,474.40000000596,0.3333333333333333,2,object_06,5,1669,0,3,3,restaurant_8,1,memory-2step-stake-s,635,2011034,0.0-19.0-0.1-0.139,A2HXUTHYA5C1E0,391FPZIE5F2O3PY4X6RTCY19AQ3HU8,3SBEHTYCWRJ82CRN3RB54F4O0H4YIG,7,8
140,1,object_07,object_01,1236.599999994,2,1,213.59999999404,0.4444444444444444,2,object_06,1,1673,0,4,4,desert_8,1,memory-2step-stake-s,636,2018894,0.0-19.0-0.1-0.140,A2HXUTHYA5C1E0,391FPZIE5F2O3PY4X6RTCY19AQ3HU8,3SBEHTYCWRJ82CRN3RB54F4O0H4YIG,2,1
141,2,object_05,object_10,714.60000000894,3,1,668.60000000894,0.2222222222222222,1,object_02,1,1675,0,2,2,forest_7,1,memory-2step-stake-s,637,2026990,0.0-19.0-0.1-0.141,A2HXUTHYA5C1E0,391FPZIE5F2O3PY4X6RTCY19AQ3HU8,3SBEHTYCWRJ82CRN3RB54F4O0H4YIG,3,4
142,4,object_08,object_09,695.79999999702,8,1,963.79999999702,0.2222222222222222,2,object_06,5,1685,0,4,2,restaurant_3,1,memory-2step-stake-s,638,2035436,0.0-19.0-0.1-0.142,A2HXUTHYA5C1E0,391FPZIE5F2O3PY4X6RTCY19AQ3HU8,3SBEHTYCWRJ82CRN3RB54F4O0H4YIG,8,7
143,2,object_05,object_10,626.59999999404,3,1,530.70000000298,0.2222222222222222,1,object_02,1,1687,0,2,2,forest_8,1,memory-2step-stake-s,639,2043386,0.0-19.0-0.1-0.143,A2HXUTHYA5C1E0,391FPZIE5F2O3PY4X6RTCY19AQ3HU8,3SBEHTYCWRJ82CRN3RB54F4O0H4YIG,3,4
144,2,object_05,object_10,715.5,3,1,653.79999999702,0.2222222222222222,1,object_02,1,1689,0,2,2,forest_6,1,memory-2step-stake-s,640,2051461,0.0-19.0-0.1-0.144,A2HXUTHYA5C1E0,391FPZIE5F2O3PY4X6RTCY19AQ3HU8,3SBEHTYCWRJ82CRN3RB54F4O0H4YIG,3,4
145,1,object_01,object_07,833.5,1,1,499.79999999702,0.5555555555555556,1,object_02,1,1694,0,5,3,desert_8,1,memory-2step-stake-s,641,2059758,0.0-19.0-0.1-0.145,A2HXUTHYA5C1E0,391FPZIE5F2O3PY4X6RTCY19AQ3HU8,3SBEHTYCWRJ82CRN3RB54F4O0H4YIG,1,2
146,3,object_03,object_04,833.09999999404,5,1,403.79999999702,0.4444444444444444,1,object_02,5,1714,0,4,5,library_8,1,memory-2step-stake-s,642,2067806,0.0-19.0-0.1-0.146,A2HXUTHYA5C1E0,391FPZIE5F2O3PY4X6RTCY19AQ3HU8,3SBEHTYCWRJ82CRN3RB54F4O0H4YIG,5,6
147,4,object_08,object_09,620.29999999702,8,1,334.79999999702,0.7777777777777778,2,object_06,1,1721,0,2,7,restaurant_1,1,memory-2step-stake-s,643,2076101,0.0-19.0-0.1-0.147,A2HXUTHYA5C1E0,391FPZIE5F2O3PY4X6RTCY19AQ3HU8,3SBEHTYCWRJ82CRN3RB54F4O0H4YIG,8,7
148,1,object_01,object_07,864.29999999702,1,1,474.90000000596,0.0,1,object_02,1,1721,0,0,4,desert_5,1,memory-2step-stake-s,644,2083822,0.0-19.0-0.1-0.148,A2HXUTHYA5C1E0,391FPZIE5F2O3PY4X6RTCY19AQ3HU8,3SBEHTYCWRJ82CRN3RB54F4O0H4YIG,1,2
149,3,object_04,object_03,729.79999999702,6,1,641.5,0.4444444444444444,2,object_06,5,1741,0,1,4,library_2,1,memory-2step-stake-s,645,2092185,0.0-19.0-0.1-0.149,A2HXUTHYA5C1E0,391FPZIE5F2O3PY4X6RTCY19AQ3HU8,3SBEHTYCWRJ82CRN3RB54F4O0H4YIG,6,5
150,1,object_01,object_07,887.19999998808,1,1,315.5,0.0,1,object_02,1,1741,0,0,4,desert_8,1,memory-2step-stake-s,646,2099715,0.0-19.0-0.1-0.150,A2HXUTHYA5C1E0,391FPZIE5F2O3PY4X6RTCY19AQ3HU8,3SBEHTYCWRJ82CRN3RB54F4O0H4YIG,1,2
151,3,object_03,object_04,738.20000000298,6,2,333.79999999702,0.3333333333333333,2,object_06,5,1756,0,2,3,library_5,1,memory-2step-stake-s,647,2107581,0.0-19.0-0.1-0.151,A2HXUTHYA5C1E0,391FPZIE5F2O3PY4X6RTCY19AQ3HU8,3SBEHTYCWRJ82CRN3RB54F4O0H4YIG,5,6
152,1,object_07,object_01,1160.400000006,1,2,214.89999999106,0.4444444444444444,1,object_02,5,1776,0,4,4,desert_6,1,memory-2step-stake-s,648,2115432,0.0-19.0-0.1-0.152,A2HXUTHYA5C1E0,391FPZIE5F2O3PY4X6RTCY19AQ3HU8,3SBEHTYCWRJ82CRN3RB54F4O0H4YIG,2,1
153,4,object_08,object_09,606.5,8,1,527.5,0.0,2,object_06,5,1776,0,2,0,restaurant_8,1,memory-2step-stake-s,649,2123175,0.0-19.0-0.1-0.153,A2HXUTHYA5C1E0,391FPZIE5F2O3PY4X6RTCY19AQ3HU8,3SBEHTYCWRJ82CRN3RB54F4O0H4YIG,8,7
154,3,object_04,object_03,869.69999998808,5,2,15.800000011921,0.2222222222222222,1,object_02,5,1786,0,2,3,library_2,1,memory-2step-stake-s,650,2130609,0.0-19.0-0.1-0.154,A2HXUTHYA5C1E0,391FPZIE5F2O3PY4X6RTCY19AQ3HU8,3SBEHTYCWRJ82CRN3RB54F4O0H4YIG,6,5
155,1,object_01,object_07,735.60000000894,1,1,72.100000008941,0.5555555555555556,1,object_02,5,1811,0,5,4,desert_5,1,memory-2step-stake-s,651,2138434,0.0-19.0-0.1-0.155,A2HXUTHYA5C1E0,391FPZIE5F2O3PY4X6RTCY19AQ3HU8,3SBEHTYCWRJ82CRN3RB54F4O0H4YIG,1,2
156,3,object_04,object_03,804.0,6,1,765.20000000298,0.2222222222222222,2,object_06,5,1821,0,5,2,library_5,1,memory-2step-stake-s,652,2146633,0.0-19.0-0.1-0.156,A2HXUTHYA5C1E0,391FPZIE5F2O3PY4X6RTCY19AQ3HU8,3SBEHTYCWRJ82CRN3RB54F4O0H4YIG,6,5
157,3,object_04,object_03,634.10000000894,6,1,410.20000000298,0.1111111111111111,2,object_06,5,1826,0,4,1,library_5,1,memory-2step-stake-s,653,2154430,0.0-19.0-0.1-0.157,A2HXUTHYA5C1E0,391FPZIE5F2O3PY4X6RTCY19AQ3HU8,3SBEHTYCWRJ82CRN3RB54F4O0H4YIG,6,5
158,4,object_09,object_08,842.60000000894,8,2,494.89999999106,0.3333333333333333,2,object_06,5,1841,0,8,3,restaurant_3,1,memory-2step-stake-s,654,2162482,0.0-19.0-0.1-0.158,A2HXUTHYA5C1E0,391FPZIE5F2O3PY4X6RTCY19AQ3HU8,3SBEHTYCWRJ82CRN3RB54F4O0H4YIG,7,8
159,1,object_01,object_07,605.19999998808,2,2,528.20000000298,0.3333333333333333,2,object_06,1,1844,0,7,3,desert_5,1,memory-2step-stake-s,655,2170528,0.0-19.0-0.1-0.159,A2HXUTHYA5C1E0,391FPZIE5F2O3PY4X6RTCY19AQ3HU8,3SBEHTYCWRJ82CRN3RB54F4O0H4YIG,1,2
160,2,object_10,object_05,776.0,3,2,490.29999999702,0.2222222222222222,1,object_02,1,1846,0,2,5,forest_7,1,memory-2step-stake-s,656,2178438,0.0-19.0-0.1-0.160,A2HXUTHYA5C1E0,391FPZIE5F2O3PY4X6RTCY19AQ3HU8,3SBEHTYCWRJ82CRN3RB54F4O0H4YIG,4,3
161,4,object_09,object_08,312.0,7,1,422.60000000894,0.3333333333333333,1,object_02,1,1849,0,3,6,restaurant_8,1,memory-2step-stake-s,657,2186397,0.0-19.0-0.1-0.161,A2HXUTHYA5C1E0,391FPZIE5F2O3PY4X6RTCY19AQ3HU8,3SBEHTYCWRJ82CRN3RB54F4O0H4YIG,7,8
162,3,object_04,object_03,1018.200000003,6,1,522.0,0.6666666666666666,2,object_06,1,1855,0,5,6,library_8,1,memory-2step-stake-s,658,2194796,0.0-19.0-0.1-0.162,A2HXUTHYA5C1E0,391FPZIE5F2O3PY4X6RTCY19AQ3HU8,3SBEHTYCWRJ82CRN3RB54F4O0H4YIG,6,5
163,1,object_01,object_07,339.09999999404,2,2,659.80000001192,0.4444444444444444,2,object_06,1,1859,0,7,4,desert_6,1,memory-2step-stake-s,659,2203096,0.0-19.0-0.1-0.163,A2HXUTHYA5C1E0,391FPZIE5F2O3PY4X6RTCY19AQ3HU8,3SBEHTYCWRJ82CRN3RB54F4O0H4YIG,1,2
164,3,object_04,object_03,518.70000000298,6,1,655.89999999106,0.2222222222222222,2,object_06,5,1869,0,4,2,library_8,1,memory-2step-stake-s,660,2211174,0.0-19.0-0.1-0.164,A2HXUTHYA5C1E0,391FPZIE5F2O3PY4X6RTCY19AQ3HU8,3SBEHTYCWRJ82CRN3RB54F4O0H4YIG,6,5
165,3,object_03,object_04,360.40000000596,5,1,459.0,0.2222222222222222,1,object_02,5,1879,0,2,1,library_5,1,memory-2step-stake-s,661,2219054,0.0-19.0-0.1-0.165,A2HXUTHYA5C1E0,391FPZIE5F2O3PY4X6RTCY19AQ3HU8,3SBEHTYCWRJ82CRN3RB54F4O0H4YIG,5,6
166,4,object_08,object_09,748.69999998808,8,1,428.70000000298,0.2222222222222222,2,object_06,5,1889,0,2,2,restaurant_2,1,memory-2step-stake-s,662,2226939,0.0-19.0-0.1-0.166,A2HXUTHYA5C1E0,391FPZIE5F2O3PY4X6RTCY19AQ3HU8,3SBEHTYCWRJ82CRN3RB54F4O0H4YIG,8,7
167,3,object_03,object_04,586.90000000596,5,1,578.0,0.5555555555555556,1,object_02,5,1914,0,5,2,library_2,1,memory-2step-stake-s,663,2235244,0.0-19.0-0.1-0.167,A2HXUTHYA5C1E0,391FPZIE5F2O3PY4X6RTCY19AQ3HU8,3SBEHTYCWRJ82CRN3RB54F4O0H4YIG,5,6
168,3,object_04,object_03,563.30000001192,6,1,461.0,0.4444444444444444,2,object_06,5,1934,0,2,4,library_8,1,memory-2step-stake-s,664,2243345,0.0-19.0-0.1-0.168,A2HXUTHYA5C1E0,391FPZIE5F2O3PY4X6RTCY19AQ3HU8,3SBEHTYCWRJ82CRN3RB54F4O0H4YIG,6,5
169,2,object_05,object_10,598.30000001192,3,1,692.70000000298,0.1111111111111111,1,object_02,1,1935,0,1,5,forest_5,1,memory-2step-stake-s,665,2251369,0.0-19.0-0.1-0.169,A2HXUTHYA5C1E0,391FPZIE5F2O3PY4X6RTCY19AQ3HU8,3SBEHTYCWRJ82CRN3RB54F4O0H4YIG,3,4
170,2,object_05,object_10,922.90000000596,4,2,465.79999999702,0.7777777777777778,2,object_06,1,1942,0,3,7,forest_6,1,memory-2step-stake-s,666,2259869,0.0-19.0-0.1-0.170,A2HXUTHYA5C1E0,391FPZIE5F2O3PY4X6RTCY19AQ3HU8,3SBEHTYCWRJ82CRN3RB54F4O0H4YIG,3,4
171,4,object_08,object_09,548.39999999106,8,1,751.29999999702,1.0,2,object_06,5,1987,0,3,9,restaurant_8,1,memory-2step-stake-s,667,2268775,0.0-19.0-0.1-0.171,A2HXUTHYA5C1E0,391FPZIE5F2O3PY4X6RTCY19AQ3HU8,3SBEHTYCWRJ82CRN3RB54F4O0H4YIG,8,7
172,2,object_10,object_05,750.20000000298,4,1,553.29999999702,0.6666666666666666,2,object_06,1,1993,0,9,6,forest_5,1,memory-2step-stake-s,668,2277157,0.0-19.0-0.1-0.172,A2HXUTHYA5C1E0,391FPZIE5F2O3PY4X6RTCY19AQ3HU8,3SBEHTYCWRJ82CRN3RB54F4O0H4YIG,4,3
173,1,object_07,object_01,489.79999999702,2,1,659.40000000596,0.7777777777777778,2,object_06,5,2028,0,7,7,desert_5,1,memory-2step-stake-s,669,2285766,0.0-19.0-0.1-0.173,A2HXUTHYA5C1E0,391FPZIE5F2O3PY4X6RTCY19AQ3HU8,3SBEHTYCWRJ82CRN3RB54F4O0H4YIG,2,1
174,1,object_07,object_01,671.20000000298,2,1,866.89999999106,0.8888888888888888,2,object_06,5,2068,0,4,8,desert_5,1,memory-2step-stake-s,670,2294664,0.0-19.0-0.1-0.174,A2HXUTHYA5C1E0,391FPZIE5F2O3PY4X6RTCY19AQ3HU8,3SBEHTYCWRJ82CRN3RB54F4O0H4YIG,2,1
175,2,object_05,object_10,596.5,3,1,414.5,0.8888888888888888,1,object_02,1,2076,0,8,8,forest_8,1,memory-2step-stake-s,671,2303122,0.0-19.0-0.1-0.175,A2HXUTHYA5C1E0,391FPZIE5F2O3PY4X6RTCY19AQ3HU8,3SBEHTYCWRJ82CRN3RB54F4O0H4YIG,3,4
176,1,object_01,object_07,722.0,1,1,433.19999998808,0.6666666666666666,1,object_02,1,2082,0,6,3,desert_3,1,memory-2step-stake-s,672,2311426,0.0-19.0-0.1-0.176,A2HXUTHYA5C1E0,391FPZIE5F2O3PY4X6RTCY19AQ3HU8,3SBEHTYCWRJ82CRN3RB54F4O0H4YIG,1,2
177,2,object_10,object_05,708.09999999404,4,1,1131.5,0.2222222222222222,2,object_06,1,2084,0,3,2,forest_8,1,memory-2step-stake-s,673,2320000,0.0-19.0-0.1-0.177,A2HXUTHYA5C1E0,391FPZIE5F2O3PY4X6RTCY19AQ3HU8,3SBEHTYCWRJ82CRN3RB54F4O0H4YIG,4,3
178,2,object_10,object_05,653.09999999404,4,1,1071.700000003,0.3333333333333333,2,object_06,5,2099,0,3,3,forest_8,1,memory-2step-stake-s,674,2328641,0.0-19.0-0.1-0.178,A2HXUTHYA5C1E0,391FPZIE5F2O3PY4X6RTCY19AQ3HU8,3SBEHTYCWRJ82CRN3RB54F4O0H4YIG,4,3
179,4,object_09,object_08,922.70000000298,8,2,227.5,0.3333333333333333,2,object_06,5,2114,0,4,3,restaurant_1,1,memory-2step-stake-s,675,2336394,0.0-19.0-0.1-0.179,A2HXUTHYA5C1E0,391FPZIE5F2O3PY4X6RTCY19AQ3HU8,3SBEHTYCWRJ82CRN3RB54F4O0H4YIG,7,8
180,1,object_01,object_07,787.59999999404,1,1,604.10000000894,0.4444444444444444,1,object_02,1,2118,0,4,4,desert_5,1,memory-2step-stake-s,676,2344634,0.0-19.0-0.1-0.180,A2HXUTHYA5C1E0,391FPZIE5F2O3PY4X6RTCY19AQ3HU8,3SBEHTYCWRJ82CRN3RB54F4O0H4YIG,1,2
181,3,object_04,object_03,825.89999999106,6,1,815.10000000894,0.4444444444444444,2,object_06,5,2138,0,6,4,library_8,1,memory-2step-stake-s,677,2353087,0.0-19.0-0.1-0.181,A2HXUTHYA5C1E0,391FPZIE5F2O3PY4X6RTCY19AQ3HU8,3SBEHTYCWRJ82CRN3RB54F4O0H4YIG,6,5
182,2,object_10,object_05,785.40000000596,4,1,428.09999999404,0.4444444444444444,2,object_06,5,2158,0,6,4,forest_6,1,memory-2step-stake-s,678,2361144,0.0-19.0-0.1-0.182,A2HXUTHYA5C1E0,391FPZIE5F2O3PY4X6RTCY19AQ3HU8,3SBEHTYCWRJ82CRN3RB54F4O0H4YIG,4,3
183,1,object_01,object_07,620.0,1,1,1015.799999997,0.3333333333333333,1,object_02,1,2161,0,3,3,desert_5,1,memory-2step-stake-s,679,2369688,0.0-19.0-0.1-0.183,A2HXUTHYA5C1E0,391FPZIE5F2O3PY4X6RTCY19AQ3HU8,3SBEHTYCWRJ82CRN3RB54F4O0H4YIG,1,2
184,2,object_05,object_10,862.60000000894,4,2,591.40000000596,0.3333333333333333,2,object_06,5,2176,0,1,3,forest_8,1,memory-2step-stake-s,680,2377798,0.0-19.0-0.1-0.184,A2HXUTHYA5C1E0,391FPZIE5F2O3PY4X6RTCY19AQ3HU8,3SBEHTYCWRJ82CRN3RB54F4O0H4YIG,3,4
185,4,object_08,object_09,422.09999999404,8,1,441.20000000298,0.7777777777777778,2,object_06,5,2211,0,6,7,restaurant_2,1,memory-2step-stake-s,681,2386181,0.0-19.0-0.1-0.185,A2HXUTHYA5C1E0,391FPZIE5F2O3PY4X6RTCY19AQ3HU8,3SBEHTYCWRJ82CRN3RB54F4O0H4YIG,8,7
186,3,object_03,object_04,864.70000000298,5,1,746.40000000596,0.3333333333333333,1,object_02,5,2226,0,3,6,library_5,1,memory-2step-stake-s,682,2394467,0.0-19.0-0.1-0.186,A2HXUTHYA5C1E0,391FPZIE5F2O3PY4X6RTCY19AQ3HU8,3SBEHTYCWRJ82CRN3RB54F4O0H4YIG,5,6
187,4,object_08,object_09,565.0,7,2,351.29999999702,0.2222222222222222,1,object_02,5,2236,0,2,7,restaurant_2,1,memory-2step-stake-s,683,2402256,0.0-19.0-0.1-0.187,A2HXUTHYA5C1E0,391FPZIE5F2O3PY4X6RTCY19AQ3HU8,3SBEHTYCWRJ82CRN3RB54F4O0H4YIG,8,7
188,4,object_08,object_09,525.5,8,1,1160.900000006,0.6666666666666666,2,object_06,5,2266,0,7,6,restaurant_1,1,memory-2step-stake-s,684,2411242,0.0-19.0-0.1-0.188,A2HXUTHYA5C1E0,391FPZIE5F2O3PY4X6RTCY19AQ3HU8,3SBEHTYCWRJ82CRN3RB54F4O0H4YIG,8,7
189,4,object_08,object_09,540.80000001192,8,1,248.10000000894,0.6666666666666666,2,object_06,5,2296,0,5,6,restaurant_1,1,memory-2step-stake-s,685,2419359,0.0-19.0-0.1-0.189,A2HXUTHYA5C1E0,391FPZIE5F2O3PY4X6RTCY19AQ3HU8,3SBEHTYCWRJ82CRN3RB54F4O0H4YIG,8,7
190,3,object_03,object_04,831.70000000298,6,2,362.0,0.7777777777777778,2,object_06,5,2331,0,6,7,library_7,1,memory-2step-stake-s,686,2427699,0.0-19.0-0.1-0.190,A2HXUTHYA5C1E0,391FPZIE5F2O3PY4X6RTCY19AQ3HU8,3SBEHTYCWRJ82CRN3RB54F4O0H4YIG,5,6
191,3,object_04,object_03,727.70000000298,5,2,982.09999999404,0.8888888888888888,1,object_02,1,2339,0,8,7,library_8,1,memory-2step-stake-s,687,2436728,0.0-19.0-0.1-0.191,A2HXUTHYA5C1E0,391FPZIE5F2O3PY4X6RTCY19AQ3HU8,3SBEHTYCWRJ82CRN3RB54F4O0H4YIG,6,5
192,4,object_09,object_08,711.29999999702,8,2,481.90000000596,1.0,2,object_06,5,2384,0,8,9,restaurant_3,1,memory-2step-stake-s,688,2445362,0.0-19.0-0.1-0.192,A2HXUTHYA5C1E0,391FPZIE5F2O3PY4X6RTCY19AQ3HU8,3SBEHTYCWRJ82CRN3RB54F4O0H4YIG,7,8
193,3,object_03,object_04,1419.099999994,6,2,508.70000000298,0.7777777777777778,2,object_06,5,2419,0,6,7,library_7,1,memory-2step-stake-s,689,2453828,0.0-19.0-0.1-0.193,A2HXUTHYA5C1E0,391FPZIE5F2O3PY4X6RTCY19AQ3HU8,3SBEHTYCWRJ82CRN3RB54F4O0H4YIG,5,6
194,3,object_04,object_03,608.59999999404,6,1,597.5,0.7777777777777778,2,object_06,5,2454,0,8,7,library_2,1,memory-2step-stake-s,690,2462440,0.0-19.0-0.1-0.194,A2HXUTHYA5C1E0,391FPZIE5F2O3PY4X6RTCY19AQ3HU8,3SBEHTYCWRJ82CRN3RB54F4O0H4YIG,6,5
195,3,object_03,object_04,399.5,5,1,498.19999998808,0.8888888888888888,1,object_02,1,2462,0,8,9,library_5,1,memory-2step-stake-s,691,2470999,0.0-19.0-0.1-0.195,A2HXUTHYA5C1E0,391FPZIE5F2O3PY4X6RTCY19AQ3HU8,3SBEHTYCWRJ82CRN3RB54F4O0H4YIG,5,6
196,2,object_05,object_10,933.70000000298,4,2,724.59999999404,0.7777777777777778,2,object_06,1,2469,0,2,7,forest_6,1,memory-2step-stake-s,692,2479710,0.0-19.0-0.1-0.196,A2HXUTHYA5C1E0,391FPZIE5F2O3PY4X6RTCY19AQ3HU8,3SBEHTYCWRJ82CRN3RB54F4O0H4YIG,3,4
197,4,object_08,object_09,703.79999999702,7,2,185.70000000298,0.3333333333333333,1,object_02,1,2472,0,3,6,restaurant_2,1,memory-2step-stake-s,693,2487420,0.0-19.0-0.1-0.197,A2HXUTHYA5C1E0,391FPZIE5F2O3PY4X6RTCY19AQ3HU8,3SBEHTYCWRJ82CRN3RB54F4O0H4YIG,8,7
198,2,object_05,object_10,722.40000000596,3,1,476.19999998808,0.5555555555555556,1,object_02,1,2477,0,5,3,forest_5,1,memory-2step-stake-s,694,2495642,0.0-19.0-0.1-0.198,A2HXUTHYA5C1E0,391FPZIE5F2O3PY4X6RTCY19AQ3HU8,3SBEHTYCWRJ82CRN3RB54F4O0H4YIG,3,4
199,2,object_05,object_10,699.20000000298,4,2,413.39999999106,0.1111111111111111,2,object_06,5,2482,0,4,1,forest_7,1,memory-2step-stake-s,695,2503406,0.0-19.0-0.1-0.199,A2HXUTHYA5C1E0,391FPZIE5F2O3PY4X6RTCY19AQ3HU8,3SBEHTYCWRJ82CRN3RB54F4O0H4YIG,3,4
200,4,object_08,object_09,1105.0,8,1,238.0,0.1111111111111111,2,object_06,5,2487,0,3,1,restaurant_3,1,memory-2step-stake-s,696,2510988,0.0-19.0-0.1-0.200,A2HXUTHYA5C1E0,391FPZIE5F2O3PY4X6RTCY19AQ3HU8,3SBEHTYCWRJ82CRN3RB54F4O0H4YIG,8,7
201,3,object_03,object_04,997.79999999702,6,2,414.59999999404,0.3333333333333333,2,object_06,5,2502,0,8,3,library_8,1,memory-2step-stake-s,697,2518941,0.0-19.0-0.1-0.201,A2HXUTHYA5C1E0,391FPZIE5F2O3PY4X6RTCY19AQ3HU8,3SBEHTYCWRJ82CRN3RB54F4O0H4YIG,5,6
202,4,object_09,object_08,673.5,8,2,483.0,0.5555555555555556,2,object_06,5,2527,0,7,5,restaurant_8,1,memory-2step-stake-s,698,2527181,0.0-19.0-0.1-0.202,A2HXUTHYA5C1E0,391FPZIE5F2O3PY4X6RTCY19AQ3HU8,3SBEHTYCWRJ82CRN3RB54F4O0H4YIG,7,8
203,3,object_04,object_03,678.20000000298,6,1,564.5,0.2222222222222222,2,object_06,5,2537,0,6,2,library_8,1,memory-2step-stake-s,699,2535177,0.0-19.0-0.1-0.203,A2HXUTHYA5C1E0,391FPZIE5F2O3PY4X6RTCY19AQ3HU8,3SBEHTYCWRJ82CRN3RB54F4O0H4YIG,6,5
204,2,object_10,object_05,757.0,3,2,423.20000000298,0.5555555555555556,1,object_02,1,2542,0,5,4,forest_6,1,memory-2step-stake-s,700,2543326,0.0-19.0-0.1-0.204,A2HXUTHYA5C1E0,391FPZIE5F2O3PY4X6RTCY19AQ3HU8,3SBEHTYCWRJ82CRN3RB54F4O0H4YIG,4,3
205,2,object_05,object_10,646.0,3,1,490.70000000298,0.5555555555555556,1,object_02,1,2547,0,5,3,forest_6,1,memory-2step-stake-s,701,2551593,0.0-19.0-0.1-0.205,A2HXUTHYA5C1E0,391FPZIE5F2O3PY4X6RTCY19AQ3HU8,3SBEHTYCWRJ82CRN3RB54F4O0H4YIG,3,4
206,2,object_10,object_05,775.0,3,2,-1.0,0.0,1,object_02,1,2547,0,7,3,forest_7,1,memory-2step-stake-s,702,2560107,0.0-19.0-0.1-0.206,A2HXUTHYA5C1E0,391FPZIE5F2O3PY4X6RTCY19AQ3HU8,3SBEHTYCWRJ82CRN3RB54F4O0H4YIG,4,3
207,3,object_04,object_03,821.29999999702,6,1,1144.200000003,0.2222222222222222,2,object_06,5,2557,0,8,2,library_2,1,memory-2step-stake-s,703,2568716,0.0-19.0-0.1-0.207,A2HXUTHYA5C1E0,391FPZIE5F2O3PY4X6RTCY19AQ3HU8,3SBEHTYCWRJ82CRN3RB54F4O0H4YIG,6,5
208,4,object_09,object_08,802.60000000894,8,2,758.20000000298,0.6666666666666666,2,object_06,5,2587,0,9,6,restaurant_8,1,memory-2step-stake-s,704,2577357,0.0-19.0-0.1-0.208,A2HXUTHYA5C1E0,391FPZIE5F2O3PY4X6RTCY19AQ3HU8,3SBEHTYCWRJ82CRN3RB54F4O0H4YIG,7,8
209,1,object_07,object_01,992.70000000298,1,2,627.0,0.8888888888888888,1,object_02,1,2595,0,8,8,desert_6,1,memory-2step-stake-s,705,2586041,0.0-19.0-0.1-0.209,A2HXUTHYA5C1E0,391FPZIE5F2O3PY4X6RTCY19AQ3HU8,3SBEHTYCWRJ82CRN3RB54F4O0H4YIG,2,1
210,2,object_05,object_10,763.20000000298,3,1,1142.3000000119,0.7777777777777778,1,object_02,1,2602,0,7,9,forest_6,1,memory-2step-stake-s,706,2595132,0.0-19.0-0.1-0.210,A2HXUTHYA5C1E0,391FPZIE5F2O3PY4X6RTCY19AQ3HU8,3SBEHTYCWRJ82CRN3RB54F4O0H4YIG,3,4
211,4,object_08,object_09,636.20000000298,8,1,-1.0,0.0,2,object_06,5,2602,0,4,9,restaurant_1,1,memory-2step-stake-s,707,2603660,0.0-19.0-0.1-0.211,A2HXUTHYA5C1E0,391FPZIE5F2O3PY4X6RTCY19AQ3HU8,3SBEHTYCWRJ82CRN3RB54F4O0H4YIG,8,7
212,3,object_03,object_04,847.29999999702,6,2,779.29999999702,1.0,2,object_06,5,2647,0,6,9,library_7,1,memory-2step-stake-s,708,2612649,0.0-19.0-0.1-0.212,A2HXUTHYA5C1E0,391FPZIE5F2O3PY4X6RTCY19AQ3HU8,3SBEHTYCWRJ82CRN3RB54F4O0H4YIG,5,6
213,3,object_03,object_04,1214.3999999911,6,2,980.79999999702,0.6666666666666666,2,object_06,1,2653,0,5,6,library_5,1,memory-2step-stake-s,709,2621506,0.0-19.0-0.1-0.213,A2HXUTHYA5C1E0,391FPZIE5F2O3PY4X6RTCY19AQ3HU8,3SBEHTYCWRJ82CRN3RB54F4O0H4YIG,5,6
214,3,object_04,object_03,722.5,6,1,1317.299999997,0.7777777777777778,2,object_06,1,2660,0,4,7,library_7,1,memory-2step-stake-s,710,2630762,0.0-19.0-0.1-0.214,A2HXUTHYA5C1E0,391FPZIE5F2O3PY4X6RTCY19AQ3HU8,3SBEHTYCWRJ82CRN3RB54F4O0H4YIG,6,5
215,4,object_08,object_09,804.59999999404,8,1,1326.799999997,0.8888888888888888,2,object_06,5,2700,0,4,8,restaurant_3,1,memory-2step-stake-s,711,2640158,0.0-19.0-0.1-0.215,A2HXUTHYA5C1E0,391FPZIE5F2O3PY4X6RTCY19AQ3HU8,3SBEHTYCWRJ82CRN3RB54F4O0H4YIG,8,7
216,1,object_07,object_01,694.79999999702,2,1,1376.099999994,0.4444444444444444,2,object_06,1,2704,0,1,4,desert_3,1,memory-2step-stake-s,712,2649183,0.0-19.0-0.1-0.216,A2HXUTHYA5C1E0,391FPZIE5F2O3PY4X6RTCY19AQ3HU8,3SBEHTYCWRJ82CRN3RB54F4O0H4YIG,2,1
217,2,object_10,object_05,1342.3000000119,4,1,892.40000000596,0.6666666666666666,2,object_06,1,2710,0,4,6,forest_5,1,memory-2step-stake-s,713,2657929,0.0-19.0-0.1-0.217,A2HXUTHYA5C1E0,391FPZIE5F2O3PY4X6RTCY19AQ3HU8,3SBEHTYCWRJ82CRN3RB54F4O0H4YIG,4,3
218,1,object_01,object_07,1010.200000003,2,2,1322.5,0.3333333333333333,2,object_06,1,2713,0,4,3,desert_3,1,memory-2step-stake-s,714,2666786,0.0-19.0-0.1-0.218,A2HXUTHYA5C1E0,391FPZIE5F2O3PY4X6RTCY19AQ3HU8,3SBEHTYCWRJ82CRN3RB54F4O0H4YIG,1,2
219,4,object_08,object_09,999.69999998808,8,1,1404.5,0.2222222222222222,2,object_06,5,2723,0,4,2,restaurant_8,1,memory-2step-stake-s,715,2675662,0.0-19.0-0.1-0.219,A2HXUTHYA5C1E0,391FPZIE5F2O3PY4X6RTCY19AQ3HU8,3SBEHTYCWRJ82CRN3RB54F4O0H4YIG,8,7
220,3,object_03,object_04,790.20000000298,6,2,694.09999999404,0.1111111111111111,2,object_06,5,2728,0,5,1,library_8,1,memory-2step-stake-s,716,2683679,0.0-19.0-0.1-0.220,A2HXUTHYA5C1E0,391FPZIE5F2O3PY4X6RTCY19AQ3HU8,3SBEHTYCWRJ82CRN3RB54F4O0H4YIG,5,6
221,3,object_03,object_04,704.19999998808,5,1,-1.0,0.0,1,object_02,1,2728,0,4,1,library_8,1,memory-2step-stake-s,717,2692192,0.0-19.0-0.1-0.221,A2HXUTHYA5C1E0,391FPZIE5F2O3PY4X6RTCY19AQ3HU8,3SBEHTYCWRJ82CRN3RB54F4O0H4YIG,5,6
222,3,object_04,object_03,678.90000000596,6,1,888.0,0.1111111111111111,2,object_06,5,2733,0,1,1,library_8,1,memory-2step-stake-s,718,2700399,0.0-19.0-0.1-0.222,A2HXUTHYA5C1E0,391FPZIE5F2O3PY4X6RTCY19AQ3HU8,3SBEHTYCWRJ82CRN3RB54F4O0H4YIG,6,5
223,1,object_07,object_01,789.70000000298,2,1,968.0,0.1111111111111111,2,object_06,1,2734,0,0,1,desert_6,1,memory-2step-stake-s,719,2708686,0.0-19.0-0.1-0.223,A2HXUTHYA5C1E0,391FPZIE5F2O3PY4X6RTCY19AQ3HU8,3SBEHTYCWRJ82CRN3RB54F4O0H4YIG,2,1
224,2,object_10,object_05,719.30000001192,4,1,-1.0,0.0,2,object_06,1,2734,0,0,5,forest_5,1,memory-2step-stake-s,720,2717220,0.0-19.0-0.1-0.224,A2HXUTHYA5C1E0,391FPZIE5F2O3PY4X6RTCY19AQ3HU8,3SBEHTYCWRJ82CRN3RB54F4O0H4YIG,4,3
225,1,object_01,object_07,779.90000000596,1,1,872.80000001192,0.1111111111111111,1,object_02,5,2739,0,1,5,desert_8,1,memory-2step-stake-s,721,2725431,0.0-19.0-0.1-0.225,A2HXUTHYA5C1E0,391FPZIE5F2O3PY4X6RTCY19AQ3HU8,3SBEHTYCWRJ82CRN3RB54F4O0H4YIG,1,2
226,3,object_03,object_04,1110.8000000119,6,2,1142.599999994,0.7777777777777778,2,object_06,5,2774,0,2,7,library_2,1,memory-2step-stake-s,722,2734521,0.0-19.0-0.1-0.226,A2HXUTHYA5C1E0,391FPZIE5F2O3PY4X6RTCY19AQ3HU8,3SBEHTYCWRJ82CRN3RB54F4O0H4YIG,5,6
227,1,object_01,object_07,670.0,1,1,-1.0,0.0,1,object_02,1,2774,0,6,6,desert_3,1,memory-2step-stake-s,723,2743055,0.0-19.0-0.1-0.227,A2HXUTHYA5C1E0,391FPZIE5F2O3PY4X6RTCY19AQ3HU8,3SBEHTYCWRJ82CRN3RB54F4O0H4YIG,1,2
228,2,object_05,object_10,951.5,4,2,-1.0,0.0,2,object_06,5,2774,0,5,5,forest_7,1,memory-2step-stake-s,724,2751574,0.0-19.0-0.1-0.228,A2HXUTHYA5C1E0,391FPZIE5F2O3PY4X6RTCY19AQ3HU8,3SBEHTYCWRJ82CRN3RB54F4O0H4YIG,3,4
229,3,object_03,object_04,719.0,6,2,600.40000000596,0.2222222222222222,2,object_06,5,2784,0,4,2,library_5,1,memory-2step-stake-s,725,2759596,0.0-19.0-0.1-0.229,A2HXUTHYA5C1E0,391FPZIE5F2O3PY4X6RTCY19AQ3HU8,3SBEHTYCWRJ82CRN3RB54F4O0H4YIG,5,6
230,1,object_01,object_07,966.10000000894,1,1,594.09999999404,0.3333333333333333,1,object_02,5,2799,0,3,1,desert_5,1,memory-2step-stake-s,726,2767712,0.0-19.0-0.1-0.230,A2HXUTHYA5C1E0,391FPZIE5F2O3PY4X6RTCY19AQ3HU8,3SBEHTYCWRJ82CRN3RB54F4O0H4YIG,1,2
231,2,object_05,object_10,834.59999999404,4,2,425.20000000298,0.2222222222222222,2,object_06,1,2801,0,2,2,forest_8,1,memory-2step-stake-s,727,2775578,0.0-19.0-0.1-0.231,A2HXUTHYA5C1E0,391FPZIE5F2O3PY4X6RTCY19AQ3HU8,3SBEHTYCWRJ82CRN3RB54F4O0H4YIG,3,4
232,2,object_10,object_05,1190.0,3,2,487.60000000894,0.1111111111111111,1,object_02,1,2802,0,1,4,forest_8,1,memory-2step-stake-s,728,2783395,0.0-19.0-0.1-0.232,A2HXUTHYA5C1E0,391FPZIE5F2O3PY4X6RTCY19AQ3HU8,3SBEHTYCWRJ82CRN3RB54F4O0H4YIG,4,3
233,4,object_09,object_08,1220.0,8,2,1117.900000006,0.1111111111111111,2,object_06,5,2807,0,3,1,restaurant_1,1,memory-2step-stake-s,729,2791844,0.0-19.0-0.1-0.233,A2HXUTHYA5C1E0,391FPZIE5F2O3PY4X6RTCY19AQ3HU8,3SBEHTYCWRJ82CRN3RB54F4O0H4YIG,7,8
234,4,object_09,object_08,330.70000000298,7,1,397.90000000596,0.7777777777777778,1,object_02,5,2842,0,7,4,restaurant_8,1,memory-2step-stake-s,730,2800196,0.0-19.0-0.1-0.234,A2HXUTHYA5C1E0,391FPZIE5F2O3PY4X6RTCY19AQ3HU8,3SBEHTYCWRJ82CRN3RB54F4O0H4YIG,7,8
235,4,object_08,object_09,640.60000000894,7,2,730.79999999702,0.8888888888888888,1,object_02,5,2882,0,8,3,restaurant_2,1,memory-2step-stake-s,731,2808966,0.0-19.0-0.1-0.235,A2HXUTHYA5C1E0,391FPZIE5F2O3PY4X6RTCY19AQ3HU8,3SBEHTYCWRJ82CRN3RB54F4O0H4YIG,8,7
236,3,object_03,object_04,1202.799999997,5,1,1456.5,0.8888888888888888,1,object_02,5,2922,0,8,3,library_2,1,memory-2step-stake-s,732,2818499,0.0-19.0-0.1-0.236,A2HXUTHYA5C1E0,391FPZIE5F2O3PY4X6RTCY19AQ3HU8,3SBEHTYCWRJ82CRN3RB54F4O0H4YIG,5,6
237,3,object_04,object_03,747.29999999702,6,1,757.40000000596,0.3333333333333333,2,object_06,5,2937,0,8,3,library_8,1,memory-2step-stake-s,733,2826776,0.0-19.0-0.1-0.237,A2HXUTHYA5C1E0,391FPZIE5F2O3PY4X6RTCY19AQ3HU8,3SBEHTYCWRJ82CRN3RB54F4O0H4YIG,6,5
238,3,object_03,object_04,1176.0,5,1,1418.200000003,1.0,1,object_02,5,2982,0,9,1,library_7,1,memory-2step-stake-s,734,2836329,0.0-19.0-0.1-0.238,A2HXUTHYA5C1E0,391FPZIE5F2O3PY4X6RTCY19AQ3HU8,3SBEHTYCWRJ82CRN3RB54F4O0H4YIG,5,6
239,3,object_03,object_04,689.69999998808,6,2,298.5,0.2222222222222222,2,object_06,1,2984,0,7,2,library_2,1,memory-2step-stake-s,735,2844065,0.0-19.0-0.1-0.239,A2HXUTHYA5C1E0,391FPZIE5F2O3PY4X6RTCY19AQ3HU8,3SBEHTYCWRJ82CRN3RB54F4O0H4YIG,5,6
240,2,object_10,object_05,846.20000000298,4,1,-1.0,0.0,2,object_06,1,2984,0,6,2,forest_5,1,memory-2step-stake-s,736,2852581,0.0-19.0-0.1-0.240,A2HXUTHYA5C1E0,391FPZIE5F2O3PY4X6RTCY19AQ3HU8,3SBEHTYCWRJ82CRN3RB54F4O0H4YIG,4,3
241,1,object_07,object_01,867.79999999702,1,2,652.39999999106,1.0,1,object_02,1,2993,0,9,1,desert_6,1,memory-2step-stake-s,737,2861375,0.0-19.0-0.1-0.241,A2HXUTHYA5C1E0,391FPZIE5F2O3PY4X6RTCY19AQ3HU8,3SBEHTYCWRJ82CRN3RB54F4O0H4YIG,2,1
242,4,object_09,object_08,780.20000000298,8,2,486.20000000298,0.3333333333333333,2,object_06,5,3008,0,8,3,restaurant_1,1,memory-2step-stake-s,738,2869388,0.0-19.0-0.1-0.242,A2HXUTHYA5C1E0,391FPZIE5F2O3PY4X6RTCY19AQ3HU8,3SBEHTYCWRJ82CRN3RB54F4O0H4YIG,7,8
243,3,object_03,object_04,602.40000000596,5,1,557.5,0.5555555555555556,1,object_02,1,3013,0,5,2,library_7,1,memory-2step-stake-s,739,2877710,0.0-19.0-0.1-0.243,A2HXUTHYA5C1E0,391FPZIE5F2O3PY4X6RTCY19AQ3HU8,3SBEHTYCWRJ82CRN3RB54F4O0H4YIG,5,6
244,4,object_09,object_08,1072.400000006,8,2,-1.0,0.0,2,object_06,5,3013,0,1,0,restaurant_3,1,memory-2step-stake-s,740,2886226,0.0-19.0-0.1-0.244,A2HXUTHYA5C1E0,391FPZIE5F2O3PY4X6RTCY19AQ3HU8,3SBEHTYCWRJ82CRN3RB54F4O0H4YIG,7,8
245,1,object_01,object_07,795.09999999404,1,1,619.39999999106,0.2222222222222222,1,object_02,1,3015,0,2,0,desert_5,1,memory-2step-stake-s,741,2894281,0.0-19.0-0.1-0.245,A2HXUTHYA5C1E0,391FPZIE5F2O3PY4X6RTCY19AQ3HU8,3SBEHTYCWRJ82CRN3RB54F4O0H4YIG,1,2
246,2,object_05,object_10,817.10000000894,4,2,682.60000000894,0.0,2,object_06,1,3015,0,3,0,forest_7,1,memory-2step-stake-s,742,2902214,0.0-19.0-0.1-0.246,A2HXUTHYA5C1E0,391FPZIE5F2O3PY4X6RTCY19AQ3HU8,3SBEHTYCWRJ82CRN3RB54F4O0H4YIG,3,4
247,4,object_08,object_09,874.29999999702,8,1,596.0,0.2222222222222222,2,object_06,5,3025,0,2,2,restaurant_1,1,memory-2step-stake-s,743,2910226,0.0-19.0-0.1-0.247,A2HXUTHYA5C1E0,391FPZIE5F2O3PY4X6RTCY19AQ3HU8,3SBEHTYCWRJ82CRN3RB54F4O0H4YIG,8,7
248,2,object_05,object_10,816.09999999404,4,2,1210.1999999881,0.2222222222222222,2,object_06,1,3027,0,2,2,forest_7,1,memory-2step-stake-s,744,2918861,0.0-19.0-0.1-0.248,A2HXUTHYA5C1E0,391FPZIE5F2O3PY4X6RTCY19AQ3HU8,3SBEHTYCWRJ82CRN3RB54F4O0H4YIG,3,4
249,1,object_07,object_01,761.90000000596,2,1,572.40000000596,0.4444444444444444,2,object_06,5,3047,0,2,4,desert_8,1,memory-2step-stake-s,745,2927072,0.0-19.0-0.1-0.249,A2HXUTHYA5C1E0,391FPZIE5F2O3PY4X6RTCY19AQ3HU8,3SBEHTYCWRJ82CRN3RB54F4O0H4YIG,2,1
250,1,object_07,object_01,948.40000000596,2,1,712.89999999106,0.2222222222222222,2,object_06,5,3057,0,3,2,desert_3,1,memory-2step-stake-s,746,2935260,0.0-19.0-0.1-0.250,A2HXUTHYA5C1E0,391FPZIE5F2O3PY4X6RTCY19AQ3HU8,3SBEHTYCWRJ82CRN3RB54F4O0H4YIG,2,1
251,4,object_08,object_09,643.90000000596,8,1,-1.0,0.0,2,object_06,5,3057,0,1,3,restaurant_3,1,memory-2step-stake-s,747,2943778,0.0-19.0-0.1-0.251,A2HXUTHYA5C1E0,391FPZIE5F2O3PY4X6RTCY19AQ3HU8,3SBEHTYCWRJ82CRN3RB54F4O0H4YIG,8,7
252,1,object_01,object_07,814.40000000596,1,1,792.70000000298,0.5555555555555556,1,object_02,1,3062,0,5,1,desert_6,1,memory-2step-stake-s,748,2952300,0.0-19.0-0.1-0.252,A2HXUTHYA5C1E0,391FPZIE5F2O3PY4X6RTCY19AQ3HU8,3SBEHTYCWRJ82CRN3RB54F4O0H4YIG,1,2
253,3,object_04,object_03,927.20000000298,6,1,609.70000000298,0.2222222222222222,2,object_06,5,3072,0,6,2,library_5,1,memory-2step-stake-s,749,2960332,0.0-19.0-0.1-0.253,A2HXUTHYA5C1E0,391FPZIE5F2O3PY4X6RTCY19AQ3HU8,3SBEHTYCWRJ82CRN3RB54F4O0H4YIG,6,5
254,2,object_05,object_10,837.89999999106,4,2,1048.700000003,0.0,2,object_06,1,3072,0,5,0,forest_7,1,memory-2step-stake-s,750,2968600,0.0-19.0-0.1-0.254,A2HXUTHYA5C1E0,391FPZIE5F2O3PY4X6RTCY19AQ3HU8,3SBEHTYCWRJ82CRN3RB54F4O0H4YIG,3,4
255,1,object_07,object_01,756.0,1,2,1046.200000003,0.6666666666666666,1,object_02,1,3078,0,6,2,desert_8,1,memory-2step-stake-s,751,2977561,0.0-19.0-0.1-0.255,A2HXUTHYA5C1E0,391FPZIE5F2O3PY4X6RTCY19AQ3HU8,3SBEHTYCWRJ82CRN3RB54F4O0H4YIG,2,1
