,state1,stim_left,stim_right,rt_1,choice1,response1,rt_2,points,state2,stim_state2,stake,score,practice,rews1,rews2,background,high_arm,trial_type,trial_index,time_elapsed,internal_node_id,subid,hitid,assignmentid,stim_left_num,stim_right_num
0,2,object_01,object_05,-1.0,-1,-1,-1.0,0.0,-,0,5,0,0,5,1,forest_6,2,memory-2step-stake-s,493,1129609,0.0-19.0-0.0-0.0,A2HZSG2OHU7O8P,3B623HUYK76FV1575X2NKKQMM9B8SL,3OUYGIZWRBE3M3I68EQGLKBGA3WP00,3,4
1,1,object_08,object_04,1108.799999997,2,1,-1.0,0.0,2,object_03,5,0,0,7,2,desert_4,2,memory-2step-stake-s,494,1138229,0.0-19.0-0.0-0.1,A2HZSG2OHU7O8P,3B623HUYK76FV1575X2NKKQMM9B8SL,3OUYGIZWRBE3M3I68EQGLKBGA3WP00,2,1
2,2,object_05,object_01,852.70000000298,3,2,-1.0,0.0,1,object_10,5,0,0,8,7,forest_6,2,memory-2step-stake-s,495,1146934,0.0-19.0-0.0-0.2,A2HZSG2OHU7O8P,3B623HUYK76FV1575X2NKKQMM9B8SL,3OUYGIZWRBE3M3I68EQGLKBGA3WP00,4,3
3,1,object_04,object_08,-1.0,-1,-1,-1.0,0.0,-,0,1,0,0,7,6,desert_6,2,memory-2step-stake-s,496,1154774,0.0-19.0-0.0-0.3,A2HZSG2OHU7O8P,3B623HUYK76FV1575X2NKKQMM9B8SL,3OUYGIZWRBE3M3I68EQGLKBGA3WP00,1,2
4,1,object_04,object_08,773.30000001192,2,2,-1.0,0.0,2,object_03,5,0,0,7,8,desert_7,2,memory-2step-stake-s,497,1163384,0.0-19.0-0.0-0.4,A2HZSG2OHU7O8P,3B623HUYK76FV1575X2NKKQMM9B8SL,3OUYGIZWRBE3M3I68EQGLKBGA3WP00,1,2
5,2,object_01,object_05,61.300000011921,3,1,403.5,0.5555555555555556,1,object_10,5,25,0,5,7,forest_7,2,memory-2step-stake-s,498,1171590,0.0-19.0-0.0-0.5,A2HZSG2OHU7O8P,3B623HUYK76FV1575X2NKKQMM9B8SL,3OUYGIZWRBE3M3I68EQGLKBGA3WP00,3,4
6,2,object_01,object_05,563.89999999106,3,1,57.100000008941,0.4444444444444444,1,object_10,5,45,0,4,8,forest_7,2,memory-2step-stake-s,499,1179352,0.0-19.0-0.0-0.6,A2HZSG2OHU7O8P,3B623HUYK76FV1575X2NKKQMM9B8SL,3OUYGIZWRBE3M3I68EQGLKBGA3WP00,3,4
7,4,object_06,object_07,87.40000000596,8,2,331.89999999106,0.6666666666666666,2,object_03,1,51,0,3,6,restaurant_2,2,memory-2step-stake-s,500,1187601,0.0-19.0-0.0-0.7,A2HZSG2OHU7O8P,3B623HUYK76FV1575X2NKKQMM9B8SL,3OUYGIZWRBE3M3I68EQGLKBGA3WP00,7,8
8,1,object_08,object_04,289.70000000298,2,1,482.59999999404,0.7777777777777778,2,object_03,5,86,0,3,7,desert_4,2,memory-2step-stake-s,501,1196127,0.0-19.0-0.0-0.8,A2HZSG2OHU7O8P,3B623HUYK76FV1575X2NKKQMM9B8SL,3OUYGIZWRBE3M3I68EQGLKBGA3WP00,2,1
9,3,object_09,object_02,37.5,6,1,193.59999999404,0.8888888888888888,2,object_03,1,94,0,5,8,library_4,2,memory-2step-stake-s,502,1204431,0.0-19.0-0.0-0.9,A2HZSG2OHU7O8P,3B623HUYK76FV1575X2NKKQMM9B8SL,3OUYGIZWRBE3M3I68EQGLKBGA3WP00,6,5
10,2,object_01,object_05,256.70000000298,4,2,33.800000011921,0.7777777777777778,2,object_03,5,129,0,4,7,forest_6,2,memory-2step-stake-s,503,1212465,0.0-19.0-0.0-0.10,A2HZSG2OHU7O8P,3B623HUYK76FV1575X2NKKQMM9B8SL,3OUYGIZWRBE3M3I68EQGLKBGA3WP00,3,4
11,3,object_02,object_09,1.0999999940395,5,1,301.40000000596,0.5555555555555556,1,object_10,1,134,0,5,6,library_4,2,memory-2step-stake-s,504,1220588,0.0-19.0-0.0-0.11,A2HZSG2OHU7O8P,3B623HUYK76FV1575X2NKKQMM9B8SL,3OUYGIZWRBE3M3I68EQGLKBGA3WP00,5,6
12,4,object_07,object_06,-1.0,-1,-1,-1.0,0.0,-,0,5,134,0,3,9,restaurant_2,2,memory-2step-stake-s,505,1227151,0.0-19.0-0.0-0.12,A2HZSG2OHU7O8P,3B623HUYK76FV1575X2NKKQMM9B8SL,3OUYGIZWRBE3M3I68EQGLKBGA3WP00,8,7
13,2,object_01,object_05,360.5,4,2,368.0,0.6666666666666666,2,object_03,5,164,0,3,6,forest_8,2,memory-2step-stake-s,506,1235481,0.0-19.0-0.0-0.13,A2HZSG2OHU7O8P,3B623HUYK76FV1575X2NKKQMM9B8SL,3OUYGIZWRBE3M3I68EQGLKBGA3WP00,3,4
14,2,object_01,object_05,324.0,3,1,328.40000000596,0.7777777777777778,1,object_10,5,199,0,7,7,forest_7,2,memory-2step-stake-s,507,1243852,0.0-19.0-0.0-0.14,A2HZSG2OHU7O8P,3B623HUYK76FV1575X2NKKQMM9B8SL,3OUYGIZWRBE3M3I68EQGLKBGA3WP00,3,4
15,4,object_07,object_06,306.90000000596,7,2,584.19999998808,0.7777777777777778,1,object_10,1,206,0,7,6,restaurant_4,2,memory-2step-stake-s,508,1252435,0.0-19.0-0.0-0.15,A2HZSG2OHU7O8P,3B623HUYK76FV1575X2NKKQMM9B8SL,3OUYGIZWRBE3M3I68EQGLKBGA3WP00,8,7
16,4,object_06,object_07,368.09999999404,7,1,445.70000000298,0.6666666666666666,1,object_10,1,212,0,6,4,restaurant_4,2,memory-2step-stake-s,509,1260860,0.0-19.0-0.0-0.16,A2HZSG2OHU7O8P,3B623HUYK76FV1575X2NKKQMM9B8SL,3OUYGIZWRBE3M3I68EQGLKBGA3WP00,7,8
17,2,object_01,object_05,698.20000000298,4,2,657.5,0.5555555555555556,2,object_03,5,237,0,6,5,forest_1,2,memory-2step-stake-s,510,1269350,0.0-19.0-0.0-0.17,A2HZSG2OHU7O8P,3B623HUYK76FV1575X2NKKQMM9B8SL,3OUYGIZWRBE3M3I68EQGLKBGA3WP00,3,4
18,2,object_05,object_01,395.90000000596,4,1,473.70000000298,0.4444444444444444,2,object_03,5,257,0,2,4,forest_7,2,memory-2step-stake-s,511,1277534,0.0-19.0-0.0-0.18,A2HZSG2OHU7O8P,3B623HUYK76FV1575X2NKKQMM9B8SL,3OUYGIZWRBE3M3I68EQGLKBGA3WP00,4,3
19,4,object_07,object_06,293.5,7,2,429.5,0.3333333333333333,1,object_10,1,260,0,3,6,restaurant_4,2,memory-2step-stake-s,512,1285568,0.0-19.0-0.0-0.19,A2HZSG2OHU7O8P,3B623HUYK76FV1575X2NKKQMM9B8SL,3OUYGIZWRBE3M3I68EQGLKBGA3WP00,8,7
20,3,object_09,object_02,582.39999999106,6,1,966.39999999106,0.7777777777777778,2,object_03,1,267,0,5,7,library_8,2,memory-2step-stake-s,513,1294594,0.0-19.0-0.0-0.20,A2HZSG2OHU7O8P,3B623HUYK76FV1575X2NKKQMM9B8SL,3OUYGIZWRBE3M3I68EQGLKBGA3WP00,6,5
21,4,object_07,object_06,720.20000000298,8,1,950.90000000596,0.5555555555555556,2,object_03,1,272,0,5,5,restaurant_5,2,memory-2step-stake-s,514,1303376,0.0-19.0-0.0-0.21,A2HZSG2OHU7O8P,3B623HUYK76FV1575X2NKKQMM9B8SL,3OUYGIZWRBE3M3I68EQGLKBGA3WP00,8,7
22,1,object_08,object_04,677.90000000596,2,1,788.70000000298,0.6666666666666666,2,object_03,5,302,0,5,6,desert_1,2,memory-2step-stake-s,515,1312066,0.0-19.0-0.0-0.22,A2HZSG2OHU7O8P,3B623HUYK76FV1575X2NKKQMM9B8SL,3OUYGIZWRBE3M3I68EQGLKBGA3WP00,2,1
23,1,object_04,object_08,278.19999998808,2,2,488.0,0.8888888888888888,2,object_03,1,310,0,7,8,desert_6,2,memory-2step-stake-s,516,1320719,0.0-19.0-0.0-0.23,A2HZSG2OHU7O8P,3B623HUYK76FV1575X2NKKQMM9B8SL,3OUYGIZWRBE3M3I68EQGLKBGA3WP00,1,2
24,1,object_04,object_08,531.5,2,2,508.59999999404,0.8888888888888888,2,object_03,5,350,0,6,8,desert_7,2,memory-2step-stake-s,517,1329316,0.0-19.0-0.0-0.24,A2HZSG2OHU7O8P,3B623HUYK76FV1575X2NKKQMM9B8SL,3OUYGIZWRBE3M3I68EQGLKBGA3WP00,1,2
25,1,object_08,object_04,518.0,2,1,374.30000001192,0.6666666666666666,2,object_03,5,380,0,4,6,desert_6,2,memory-2step-stake-s,518,1337606,0.0-19.0-0.0-0.25,A2HZSG2OHU7O8P,3B623HUYK76FV1575X2NKKQMM9B8SL,3OUYGIZWRBE3M3I68EQGLKBGA3WP00,2,1
26,4,object_06,object_07,638.79999999702,8,2,488.09999999404,0.4444444444444444,2,object_03,5,400,0,5,4,restaurant_6,2,memory-2step-stake-s,519,1345829,0.0-19.0-0.0-0.26,A2HZSG2OHU7O8P,3B623HUYK76FV1575X2NKKQMM9B8SL,3OUYGIZWRBE3M3I68EQGLKBGA3WP00,7,8
27,2,object_05,object_01,641.29999999702,4,1,402.60000000894,0.4444444444444444,2,object_03,5,420,0,7,4,forest_8,2,memory-2step-stake-s,520,1353945,0.0-19.0-0.0-0.27,A2HZSG2OHU7O8P,3B623HUYK76FV1575X2NKKQMM9B8SL,3OUYGIZWRBE3M3I68EQGLKBGA3WP00,4,3
28,1,object_08,object_04,737.0,2,1,510.20000000298,0.8888888888888888,2,object_03,5,460,0,6,8,desert_4,2,memory-2step-stake-s,521,1362608,0.0-19.0-0.0-0.28,A2HZSG2OHU7O8P,3B623HUYK76FV1575X2NKKQMM9B8SL,3OUYGIZWRBE3M3I68EQGLKBGA3WP00,2,1
29,2,object_05,object_01,988.5,3,2,493.70000000298,0.6666666666666666,1,object_10,5,490,0,6,7,forest_7,2,memory-2step-stake-s,522,1371031,0.0-19.0-0.0-0.29,A2HZSG2OHU7O8P,3B623HUYK76FV1575X2NKKQMM9B8SL,3OUYGIZWRBE3M3I68EQGLKBGA3WP00,4,3
30,1,object_08,object_04,574.5,2,1,235.0,1.0,2,object_03,5,535,0,3,9,desert_7,2,memory-2step-stake-s,523,1379554,0.0-19.0-0.0-0.30,A2HZSG2OHU7O8P,3B623HUYK76FV1575X2NKKQMM9B8SL,3OUYGIZWRBE3M3I68EQGLKBGA3WP00,2,1
31,3,object_09,object_02,817.5,5,2,505.39999999106,0.6666666666666666,1,object_10,1,541,0,6,8,library_2,2,memory-2step-stake-s,524,1388010,0.0-19.0-0.0-0.31,A2HZSG2OHU7O8P,3B623HUYK76FV1575X2NKKQMM9B8SL,3OUYGIZWRBE3M3I68EQGLKBGA3WP00,6,5
32,3,object_09,object_02,680.29999999702,6,1,575.09999999404,1.0,2,object_03,5,586,0,3,9,library_2,2,memory-2step-stake-s,525,1396819,0.0-19.0-0.0-0.32,A2HZSG2OHU7O8P,3B623HUYK76FV1575X2NKKQMM9B8SL,3OUYGIZWRBE3M3I68EQGLKBGA3WP00,6,5
33,2,object_05,object_01,1042.400000006,4,1,503.29999999702,0.7777777777777778,2,object_03,5,621,0,1,7,forest_8,2,memory-2step-stake-s,526,1405361,0.0-19.0-0.0-0.33,A2HZSG2OHU7O8P,3B623HUYK76FV1575X2NKKQMM9B8SL,3OUYGIZWRBE3M3I68EQGLKBGA3WP00,4,3
34,1,object_04,object_08,691.0,2,2,783.70000000298,0.7777777777777778,2,object_03,5,656,0,5,7,desert_7,2,memory-2step-stake-s,527,1414228,0.0-19.0-0.0-0.34,A2HZSG2OHU7O8P,3B623HUYK76FV1575X2NKKQMM9B8SL,3OUYGIZWRBE3M3I68EQGLKBGA3WP00,1,2
35,4,object_07,object_06,1223.6000000089,7,2,544.0,0.5555555555555556,1,object_10,1,661,0,5,6,restaurant_2,2,memory-2step-stake-s,528,1422623,0.0-19.0-0.0-0.35,A2HZSG2OHU7O8P,3B623HUYK76FV1575X2NKKQMM9B8SL,3OUYGIZWRBE3M3I68EQGLKBGA3WP00,8,7
36,1,object_04,object_08,665.5,2,2,1458.200000003,0.4444444444444444,2,object_03,5,681,0,5,4,desert_6,2,memory-2step-stake-s,529,1431794,0.0-19.0-0.0-0.36,A2HZSG2OHU7O8P,3B623HUYK76FV1575X2NKKQMM9B8SL,3OUYGIZWRBE3M3I68EQGLKBGA3WP00,1,2
37,4,object_06,object_07,955.5,7,1,667.90000000596,0.4444444444444444,1,object_10,1,685,0,4,2,restaurant_5,2,memory-2step-stake-s,530,1440182,0.0-19.0-0.0-0.37,A2HZSG2OHU7O8P,3B623HUYK76FV1575X2NKKQMM9B8SL,3OUYGIZWRBE3M3I68EQGLKBGA3WP00,7,8
38,4,object_06,object_07,701.39999999106,7,1,1113.3999999911,0.4444444444444444,1,object_10,1,689,0,4,1,restaurant_2,2,memory-2step-stake-s,531,1449029,0.0-19.0-0.0-0.38,A2HZSG2OHU7O8P,3B623HUYK76FV1575X2NKKQMM9B8SL,3OUYGIZWRBE3M3I68EQGLKBGA3WP00,7,8
39,4,object_06,object_07,972.39999999106,7,1,676.90000000596,0.3333333333333333,1,object_10,5,704,0,3,1,restaurant_4,2,memory-2step-stake-s,532,1457315,0.0-19.0-0.0-0.39,A2HZSG2OHU7O8P,3B623HUYK76FV1575X2NKKQMM9B8SL,3OUYGIZWRBE3M3I68EQGLKBGA3WP00,7,8
40,3,object_09,object_02,1047.5,6,1,494.5,0.0,2,object_03,1,704,0,0,0,library_1,2,memory-2step-stake-s,533,1465121,0.0-19.0-0.0-0.40,A2HZSG2OHU7O8P,3B623HUYK76FV1575X2NKKQMM9B8SL,3OUYGIZWRBE3M3I68EQGLKBGA3WP00,6,5
41,1,object_08,object_04,732.39999999106,2,1,371.90000000596,0.5555555555555556,2,object_03,1,709,0,1,5,desert_1,2,memory-2step-stake-s,534,1473320,0.0-19.0-0.0-0.41,A2HZSG2OHU7O8P,3B623HUYK76FV1575X2NKKQMM9B8SL,3OUYGIZWRBE3M3I68EQGLKBGA3WP00,2,1
42,4,object_06,object_07,727.09999999404,8,2,449.90000000596,0.7777777777777778,2,object_03,1,716,0,0,7,restaurant_2,2,memory-2step-stake-s,535,1481820,0.0-19.0-0.0-0.42,A2HZSG2OHU7O8P,3B623HUYK76FV1575X2NKKQMM9B8SL,3OUYGIZWRBE3M3I68EQGLKBGA3WP00,7,8
43,2,object_01,object_05,-1.0,-1,-1,-1.0,0.0,-,0,5,716,0,1,7,forest_1,2,memory-2step-stake-s,536,1488389,0.0-19.0-0.0-0.43,A2HZSG2OHU7O8P,3B623HUYK76FV1575X2NKKQMM9B8SL,3OUYGIZWRBE3M3I68EQGLKBGA3WP00,3,4
44,3,object_09,object_02,250.79999999702,5,2,681.0,0.1111111111111111,1,object_10,1,717,0,1,4,library_2,2,memory-2step-stake-s,537,1496456,0.0-19.0-0.0-0.44,A2HZSG2OHU7O8P,3B623HUYK76FV1575X2NKKQMM9B8SL,3OUYGIZWRBE3M3I68EQGLKBGA3WP00,6,5
45,4,object_07,object_06,819.79999999702,8,1,417.5,0.6666666666666666,2,object_03,1,723,0,3,6,restaurant_4,2,memory-2step-stake-s,538,1504827,0.0-19.0-0.0-0.45,A2HZSG2OHU7O8P,3B623HUYK76FV1575X2NKKQMM9B8SL,3OUYGIZWRBE3M3I68EQGLKBGA3WP00,8,7
46,4,object_06,object_07,1129.0,7,1,742.20000000298,0.6666666666666666,1,object_10,1,729,0,6,5,restaurant_5,2,memory-2step-stake-s,539,1513532,0.0-19.0-0.0-0.46,A2HZSG2OHU7O8P,3B623HUYK76FV1575X2NKKQMM9B8SL,3OUYGIZWRBE3M3I68EQGLKBGA3WP00,7,8
47,3,object_02,object_09,1011.5,5,1,333.60000000894,0.7777777777777778,1,object_10,1,736,0,7,7,library_1,2,memory-2step-stake-s,540,1521901,0.0-19.0-0.0-0.47,A2HZSG2OHU7O8P,3B623HUYK76FV1575X2NKKQMM9B8SL,3OUYGIZWRBE3M3I68EQGLKBGA3WP00,5,6
48,1,object_08,object_04,924.80000001192,2,1,362.59999999404,0.7777777777777778,2,object_03,5,771,0,8,7,desert_4,2,memory-2step-stake-s,541,1530327,0.0-19.0-0.0-0.48,A2HZSG2OHU7O8P,3B623HUYK76FV1575X2NKKQMM9B8SL,3OUYGIZWRBE3M3I68EQGLKBGA3WP00,2,1
49,4,object_06,object_07,877.89999999106,7,1,325.29999999702,0.8888888888888888,1,object_10,1,779,0,8,8,restaurant_6,2,memory-2step-stake-s,542,1538788,0.0-19.0-0.0-0.49,A2HZSG2OHU7O8P,3B623HUYK76FV1575X2NKKQMM9B8SL,3OUYGIZWRBE3M3I68EQGLKBGA3WP00,7,8
50,2,object_01,object_05,853.69999998808,4,2,619.09999999404,0.8888888888888888,2,object_03,5,819,0,7,8,forest_8,2,memory-2step-stake-s,543,1547516,0.0-19.0-0.0-0.50,A2HZSG2OHU7O8P,3B623HUYK76FV1575X2NKKQMM9B8SL,3OUYGIZWRBE3M3I68EQGLKBGA3WP00,3,4
51,2,object_05,object_01,973.79999999702,4,1,1081.599999994,1.0,2,object_03,5,864,0,8,9,forest_6,2,memory-2step-stake-s,544,1556854,0.0-19.0-0.0-0.51,A2HZSG2OHU7O8P,3B623HUYK76FV1575X2NKKQMM9B8SL,3OUYGIZWRBE3M3I68EQGLKBGA3WP00,4,3
52,1,object_08,object_04,740.39999999106,2,1,870.90000000596,0.7777777777777778,2,object_03,5,899,0,6,7,desert_7,2,memory-2step-stake-s,545,1565748,0.0-19.0-0.0-0.52,A2HZSG2OHU7O8P,3B623HUYK76FV1575X2NKKQMM9B8SL,3OUYGIZWRBE3M3I68EQGLKBGA3WP00,2,1
53,4,object_06,object_07,1450.299999997,7,1,805.0,0.5555555555555556,1,object_10,1,904,0,5,5,restaurant_6,2,memory-2step-stake-s,546,1574356,0.0-19.0-0.0-0.53,A2HZSG2OHU7O8P,3B623HUYK76FV1575X2NKKQMM9B8SL,3OUYGIZWRBE3M3I68EQGLKBGA3WP00,7,8
54,3,object_09,object_02,1407.5,5,2,650.29999999702,0.5555555555555556,1,object_10,1,909,0,5,4,library_8,2,memory-2step-stake-s,547,1582837,0.0-19.0-0.0-0.54,A2HZSG2OHU7O8P,3B623HUYK76FV1575X2NKKQMM9B8SL,3OUYGIZWRBE3M3I68EQGLKBGA3WP00,6,5
55,4,object_07,object_06,815.20000000298,7,2,581.10000000894,0.3333333333333333,1,object_10,1,912,0,3,1,restaurant_5,2,memory-2step-stake-s,548,1591077,0.0-19.0-0.0-0.55,A2HZSG2OHU7O8P,3B623HUYK76FV1575X2NKKQMM9B8SL,3OUYGIZWRBE3M3I68EQGLKBGA3WP00,8,7
56,2,object_01,object_05,-1.0,-1,-1,-1.0,0.0,-,0,5,912,0,3,2,forest_8,2,memory-2step-stake-s,549,1597672,0.0-19.0-0.0-0.56,A2HZSG2OHU7O8P,3B623HUYK76FV1575X2NKKQMM9B8SL,3OUYGIZWRBE3M3I68EQGLKBGA3WP00,3,4
57,1,object_08,object_04,655.40000000596,2,1,673.70000000298,0.4444444444444444,2,object_03,5,932,0,6,4,desert_6,2,memory-2step-stake-s,550,1606032,0.0-19.0-0.0-0.57,A2HZSG2OHU7O8P,3B623HUYK76FV1575X2NKKQMM9B8SL,3OUYGIZWRBE3M3I68EQGLKBGA3WP00,2,1
58,1,object_04,object_08,683.10000000894,2,2,828.0,0.6666666666666666,2,object_03,5,962,0,6,6,desert_4,2,memory-2step-stake-s,551,1614796,0.0-19.0-0.0-0.58,A2HZSG2OHU7O8P,3B623HUYK76FV1575X2NKKQMM9B8SL,3OUYGIZWRBE3M3I68EQGLKBGA3WP00,1,2
59,3,object_02,object_09,850.20000000298,5,1,670.80000001192,0.5555555555555556,1,object_10,1,967,0,5,7,library_8,2,memory-2step-stake-s,552,1623295,0.0-19.0-0.0-0.59,A2HZSG2OHU7O8P,3B623HUYK76FV1575X2NKKQMM9B8SL,3OUYGIZWRBE3M3I68EQGLKBGA3WP00,5,6
60,1,object_04,object_08,1279.299999997,2,2,723.39999999106,0.4444444444444444,2,object_03,5,987,0,3,4,desert_4,2,memory-2step-stake-s,553,1631722,0.0-19.0-0.0-0.60,A2HZSG2OHU7O8P,3B623HUYK76FV1575X2NKKQMM9B8SL,3OUYGIZWRBE3M3I68EQGLKBGA3WP00,1,2
61,2,object_05,object_01,794.90000000596,4,1,470.09999999404,0.3333333333333333,2,object_03,5,1002,0,5,3,forest_7,2,memory-2step-stake-s,554,1639807,0.0-19.0-0.0-0.61,A2HZSG2OHU7O8P,3B623HUYK76FV1575X2NKKQMM9B8SL,3OUYGIZWRBE3M3I68EQGLKBGA3WP00,4,3
62,3,object_02,object_09,852.40000000596,5,1,686.90000000596,0.6666666666666666,1,object_10,1,1008,0,6,3,library_1,2,memory-2step-stake-s,555,1648399,0.0-19.0-0.0-0.62,A2HZSG2OHU7O8P,3B623HUYK76FV1575X2NKKQMM9B8SL,3OUYGIZWRBE3M3I68EQGLKBGA3WP00,5,6
63,2,object_05,object_01,786.30000001192,3,2,424.0,0.5555555555555556,1,object_10,1,1013,0,5,6,forest_7,2,memory-2step-stake-s,556,1656647,0.0-19.0-0.0-0.63,A2HZSG2OHU7O8P,3B623HUYK76FV1575X2NKKQMM9B8SL,3OUYGIZWRBE3M3I68EQGLKBGA3WP00,4,3
64,2,object_01,object_05,1083.5,3,1,405.29999999702,0.0,1,object_10,1,1013,0,0,7,forest_1,2,memory-2step-stake-s,557,1664330,0.0-19.0-0.0-0.64,A2HZSG2OHU7O8P,3B623HUYK76FV1575X2NKKQMM9B8SL,3OUYGIZWRBE3M3I68EQGLKBGA3WP00,3,4
65,2,object_01,object_05,808.40000000596,4,2,452.60000000894,1.0,2,object_03,5,1058,0,3,9,forest_1,2,memory-2step-stake-s,558,1673043,0.0-19.0-0.0-0.65,A2HZSG2OHU7O8P,3B623HUYK76FV1575X2NKKQMM9B8SL,3OUYGIZWRBE3M3I68EQGLKBGA3WP00,3,4
66,1,object_08,object_04,724.5,2,1,40.5,0.6666666666666666,2,object_03,5,1088,0,3,6,desert_6,2,memory-2step-stake-s,559,1680997,0.0-19.0-0.0-0.66,A2HZSG2OHU7O8P,3B623HUYK76FV1575X2NKKQMM9B8SL,3OUYGIZWRBE3M3I68EQGLKBGA3WP00,2,1
67,4,object_07,object_06,783.20000000298,7,2,418.90000000596,0.0,1,object_10,5,1088,0,0,3,restaurant_6,2,memory-2step-stake-s,560,1688720,0.0-19.0-0.0-0.67,A2HZSG2OHU7O8P,3B623HUYK76FV1575X2NKKQMM9B8SL,3OUYGIZWRBE3M3I68EQGLKBGA3WP00,8,7
68,4,object_06,object_07,813.59999999404,7,1,376.09999999404,0.0,1,object_10,1,1088,0,0,6,restaurant_5,2,memory-2step-stake-s,561,1696409,0.0-19.0-0.0-0.68,A2HZSG2OHU7O8P,3B623HUYK76FV1575X2NKKQMM9B8SL,3OUYGIZWRBE3M3I68EQGLKBGA3WP00,7,8
69,4,object_06,object_07,943.39999999106,8,2,511.80000001192,0.8888888888888888,2,object_03,1,1096,0,1,8,restaurant_2,2,memory-2step-stake-s,562,1705066,0.0-19.0-0.0-0.69,A2HZSG2OHU7O8P,3B623HUYK76FV1575X2NKKQMM9B8SL,3OUYGIZWRBE3M3I68EQGLKBGA3WP00,7,8
70,4,object_06,object_07,1131.700000003,8,2,545.10000000894,0.7777777777777778,2,object_03,1,1103,0,1,7,restaurant_2,2,memory-2step-stake-s,563,1713653,0.0-19.0-0.0-0.70,A2HZSG2OHU7O8P,3B623HUYK76FV1575X2NKKQMM9B8SL,3OUYGIZWRBE3M3I68EQGLKBGA3WP00,7,8
71,3,object_02,object_09,-1.0,-1,-1,-1.0,0.0,-,0,1,1103,0,0,4,library_1,2,memory-2step-stake-s,564,1720217,0.0-19.0-0.0-0.71,A2HZSG2OHU7O8P,3B623HUYK76FV1575X2NKKQMM9B8SL,3OUYGIZWRBE3M3I68EQGLKBGA3WP00,5,6
72,1,object_04,object_08,1038.1999999881,1,1,584.0,0.0,1,object_10,5,1103,0,0,5,desert_6,2,memory-2step-stake-s,565,1728095,0.0-19.0-0.0-0.72,A2HZSG2OHU7O8P,3B623HUYK76FV1575X2NKKQMM9B8SL,3OUYGIZWRBE3M3I68EQGLKBGA3WP00,1,2
73,2,object_05,object_01,851.70000000298,4,1,507.39999999106,0.5555555555555556,2,object_03,5,1128,0,1,5,forest_6,2,memory-2step-stake-s,566,1736435,0.0-19.0-0.0-0.73,A2HZSG2OHU7O8P,3B623HUYK76FV1575X2NKKQMM9B8SL,3OUYGIZWRBE3M3I68EQGLKBGA3WP00,4,3
74,2,object_01,object_05,1103.200000003,4,2,590.5,0.0,2,object_03,5,1128,0,1,0,forest_8,2,memory-2step-stake-s,567,1744299,0.0-19.0-0.0-0.74,A2HZSG2OHU7O8P,3B623HUYK76FV1575X2NKKQMM9B8SL,3OUYGIZWRBE3M3I68EQGLKBGA3WP00,3,4
75,3,object_02,object_09,1179.299999997,6,2,456.29999999702,0.0,2,object_03,5,1128,0,1,0,library_8,2,memory-2step-stake-s,568,1752039,0.0-19.0-0.0-0.75,A2HZSG2OHU7O8P,3B623HUYK76FV1575X2NKKQMM9B8SL,3OUYGIZWRBE3M3I68EQGLKBGA3WP00,5,6
76,4,object_07,object_06,1227.700000003,8,1,542.70000000298,0.1111111111111111,2,object_03,1,1129,0,2,1,restaurant_5,2,memory-2step-stake-s,569,1759984,0.0-19.0-0.0-0.76,A2HZSG2OHU7O8P,3B623HUYK76FV1575X2NKKQMM9B8SL,3OUYGIZWRBE3M3I68EQGLKBGA3WP00,8,7
77,2,object_05,object_01,771.89999999106,4,1,196.90000000596,0.1111111111111111,2,object_03,5,1134,0,2,1,forest_1,2,memory-2step-stake-s,570,1767590,0.0-19.0-0.0-0.77,A2HZSG2OHU7O8P,3B623HUYK76FV1575X2NKKQMM9B8SL,3OUYGIZWRBE3M3I68EQGLKBGA3WP00,4,3
78,3,object_02,object_09,1094.299999997,5,1,491.20000000298,0.2222222222222222,1,object_10,5,1144,0,2,2,library_4,2,memory-2step-stake-s,571,1775609,0.0-19.0-0.0-0.78,A2HZSG2OHU7O8P,3B623HUYK76FV1575X2NKKQMM9B8SL,3OUYGIZWRBE3M3I68EQGLKBGA3WP00,5,6
79,4,object_07,object_06,982.79999999702,8,1,612.30000001192,0.2222222222222222,2,object_03,5,1154,0,5,2,restaurant_5,2,memory-2step-stake-s,572,1783749,0.0-19.0-0.0-0.79,A2HZSG2OHU7O8P,3B623HUYK76FV1575X2NKKQMM9B8SL,3OUYGIZWRBE3M3I68EQGLKBGA3WP00,8,7
80,4,object_07,object_06,995.79999999702,8,1,106.80000001192,0.2222222222222222,2,object_03,1,1156,0,2,2,restaurant_6,2,memory-2step-stake-s,573,1791337,0.0-19.0-0.0-0.80,A2HZSG2OHU7O8P,3B623HUYK76FV1575X2NKKQMM9B8SL,3OUYGIZWRBE3M3I68EQGLKBGA3WP00,8,7
81,1,object_04,object_08,666.20000000298,2,2,286.79999999702,0.6666666666666666,2,object_03,5,1186,0,3,6,desert_1,2,memory-2step-stake-s,574,1799539,0.0-19.0-0.0-0.81,A2HZSG2OHU7O8P,3B623HUYK76FV1575X2NKKQMM9B8SL,3OUYGIZWRBE3M3I68EQGLKBGA3WP00,1,2
82,4,object_07,object_06,-1.0,-1,-1,-1.0,0.0,-,0,1,1186,0,5,5,restaurant_6,2,memory-2step-stake-s,575,1806120,0.0-19.0-0.0-0.82,A2HZSG2OHU7O8P,3B623HUYK76FV1575X2NKKQMM9B8SL,3OUYGIZWRBE3M3I68EQGLKBGA3WP00,8,7
83,1,object_04,object_08,589.10000000894,2,2,293.5,0.8888888888888888,2,object_03,5,1226,0,4,8,desert_4,2,memory-2step-stake-s,576,1814551,0.0-19.0-0.0-0.83,A2HZSG2OHU7O8P,3B623HUYK76FV1575X2NKKQMM9B8SL,3OUYGIZWRBE3M3I68EQGLKBGA3WP00,1,2
84,4,object_07,object_06,623.79999999702,8,1,787.60000000894,0.7777777777777778,2,object_03,5,1261,0,6,7,restaurant_4,2,memory-2step-stake-s,577,1823357,0.0-19.0-0.0-0.84,A2HZSG2OHU7O8P,3B623HUYK76FV1575X2NKKQMM9B8SL,3OUYGIZWRBE3M3I68EQGLKBGA3WP00,8,7
85,3,object_09,object_02,687.09999999404,5,2,853.59999999404,0.3333333333333333,1,object_10,1,1264,0,3,5,library_4,2,memory-2step-stake-s,578,1831846,0.0-19.0-0.0-0.85,A2HZSG2OHU7O8P,3B623HUYK76FV1575X2NKKQMM9B8SL,3OUYGIZWRBE3M3I68EQGLKBGA3WP00,6,5
86,3,object_09,object_02,473.70000000298,5,2,254.60000000894,0.3333333333333333,1,object_10,1,1267,0,3,4,library_2,2,memory-2step-stake-s,579,1839718,0.0-19.0-0.0-0.86,A2HZSG2OHU7O8P,3B623HUYK76FV1575X2NKKQMM9B8SL,3OUYGIZWRBE3M3I68EQGLKBGA3WP00,6,5
87,1,object_08,object_04,695.10000000894,2,1,233.40000000596,0.1111111111111111,2,object_03,5,1272,0,1,1,desert_6,2,memory-2step-stake-s,580,1847345,0.0-19.0-0.0-0.87,A2HZSG2OHU7O8P,3B623HUYK76FV1575X2NKKQMM9B8SL,3OUYGIZWRBE3M3I68EQGLKBGA3WP00,2,1
88,4,object_06,object_07,1036.5,8,2,571.10000000894,0.3333333333333333,2,object_03,1,1275,0,1,3,restaurant_2,2,memory-2step-stake-s,581,1855523,0.0-19.0-0.0-0.88,A2HZSG2OHU7O8P,3B623HUYK76FV1575X2NKKQMM9B8SL,3OUYGIZWRBE3M3I68EQGLKBGA3WP00,7,8
89,2,object_01,object_05,890.40000000596,4,2,454.5,0.4444444444444444,2,object_03,5,1295,0,0,4,forest_1,2,memory-2step-stake-s,582,1863714,0.0-19.0-0.0-0.89,A2HZSG2OHU7O8P,3B623HUYK76FV1575X2NKKQMM9B8SL,3OUYGIZWRBE3M3I68EQGLKBGA3WP00,3,4
90,4,object_06,object_07,1018.5,8,2,1213.400000006,0.2222222222222222,2,object_03,1,1297,0,1,2,restaurant_4,2,memory-2step-stake-s,583,1872456,0.0-19.0-0.0-0.90,A2HZSG2OHU7O8P,3B623HUYK76FV1575X2NKKQMM9B8SL,3OUYGIZWRBE3M3I68EQGLKBGA3WP00,7,8
91,2,object_01,object_05,-1.0,-1,-1,-1.0,0.0,-,0,5,1297,0,1,2,forest_7,2,memory-2step-stake-s,584,1879031,0.0-19.0-0.0-0.91,A2HZSG2OHU7O8P,3B623HUYK76FV1575X2NKKQMM9B8SL,3OUYGIZWRBE3M3I68EQGLKBGA3WP00,3,4
92,1,object_08,object_04,7.3000000119209,2,1,361.90000000596,0.1111111111111111,2,object_03,5,1302,0,2,1,desert_6,2,memory-2step-stake-s,585,1886799,0.0-19.0-0.0-0.92,A2HZSG2OHU7O8P,3B623HUYK76FV1575X2NKKQMM9B8SL,3OUYGIZWRBE3M3I68EQGLKBGA3WP00,2,1
93,3,object_09,object_02,741.59999999404,5,2,828.0,0.3333333333333333,1,object_10,5,1317,0,3,1,library_8,2,memory-2step-stake-s,586,1895219,0.0-19.0-0.0-0.93,A2HZSG2OHU7O8P,3B623HUYK76FV1575X2NKKQMM9B8SL,3OUYGIZWRBE3M3I68EQGLKBGA3WP00,6,5
94,3,object_09,object_02,721.09999999404,5,2,569.89999999106,0.4444444444444444,1,object_10,1,1321,0,4,1,library_4,2,memory-2step-stake-s,587,1903512,0.0-19.0-0.0-0.94,A2HZSG2OHU7O8P,3B623HUYK76FV1575X2NKKQMM9B8SL,3OUYGIZWRBE3M3I68EQGLKBGA3WP00,6,5
95,1,object_04,object_08,-1.0,-1,-1,-1.0,0.0,-,0,5,1321,0,4,2,desert_4,2,memory-2step-stake-s,588,1910084,0.0-19.0-0.0-0.95,A2HZSG2OHU7O8P,3B623HUYK76FV1575X2NKKQMM9B8SL,3OUYGIZWRBE3M3I68EQGLKBGA3WP00,1,2
96,4,object_07,object_06,-1.0,-1,-1,-1.0,0.0,-,0,5,1321,0,4,3,restaurant_6,2,memory-2step-stake-s,589,1916656,0.0-19.0-0.0-0.96,A2HZSG2OHU7O8P,3B623HUYK76FV1575X2NKKQMM9B8SL,3OUYGIZWRBE3M3I68EQGLKBGA3WP00,8,7
97,3,object_09,object_02,-1.0,-1,-1,-1.0,0.0,-,0,5,1321,0,4,4,library_1,2,memory-2step-stake-s,590,1923208,0.0-19.0-0.0-0.97,A2HZSG2OHU7O8P,3B623HUYK76FV1575X2NKKQMM9B8SL,3OUYGIZWRBE3M3I68EQGLKBGA3WP00,6,5
98,2,object_01,object_05,-1.0,-1,-1,-1.0,0.0,-,0,1,1321,0,5,6,forest_6,2,memory-2step-stake-s,591,1929776,0.0-19.0-0.0-0.98,A2HZSG2OHU7O8P,3B623HUYK76FV1575X2NKKQMM9B8SL,3OUYGIZWRBE3M3I68EQGLKBGA3WP00,3,4
99,2,object_05,object_01,-1.0,-1,-1,-1.0,0.0,-,0,5,1321,0,5,6,forest_8,2,memory-2step-stake-s,592,1936322,0.0-19.0-0.0-0.99,A2HZSG2OHU7O8P,3B623HUYK76FV1575X2NKKQMM9B8SL,3OUYGIZWRBE3M3I68EQGLKBGA3WP00,4,3
100,1,object_08,object_04,-1.0,-1,-1,-1.0,0.0,-,0,1,1321,0,2,9,desert_4,2,memory-2step-stake-s,593,1942909,0.0-19.0-0.0-0.100,A2HZSG2OHU7O8P,3B623HUYK76FV1575X2NKKQMM9B8SL,3OUYGIZWRBE3M3I68EQGLKBGA3WP00,2,1
101,2,object_05,object_01,-1.0,-1,-1,-1.0,0.0,-,0,5,1321,0,3,8,forest_1,2,memory-2step-stake-s,594,1949485,0.0-19.0-0.0-0.101,A2HZSG2OHU7O8P,3B623HUYK76FV1575X2NKKQMM9B8SL,3OUYGIZWRBE3M3I68EQGLKBGA3WP00,4,3
102,1,object_08,object_04,-1.0,-1,-1,-1.0,0.0,-,0,5,1321,0,5,5,desert_7,2,memory-2step-stake-s,595,1956035,0.0-19.0-0.0-0.102,A2HZSG2OHU7O8P,3B623HUYK76FV1575X2NKKQMM9B8SL,3OUYGIZWRBE3M3I68EQGLKBGA3WP00,2,1
103,2,object_01,object_05,-1.0,-1,-1,-1.0,0.0,-,0,1,1321,0,2,3,forest_1,2,memory-2step-stake-s,596,1962646,0.0-19.0-0.0-0.103,A2HZSG2OHU7O8P,3B623HUYK76FV1575X2NKKQMM9B8SL,3OUYGIZWRBE3M3I68EQGLKBGA3WP00,3,4
104,1,object_08,object_04,382.0,2,1,467.40000000596,0.3333333333333333,2,object_03,5,1336,0,5,3,desert_1,2,memory-2step-stake-s,597,1970754,0.0-19.0-0.0-0.104,A2HZSG2OHU7O8P,3B623HUYK76FV1575X2NKKQMM9B8SL,3OUYGIZWRBE3M3I68EQGLKBGA3WP00,2,1
105,4,object_06,object_07,580.20000000298,8,2,837.89999999106,0.1111111111111111,2,object_03,1,1337,0,7,1,restaurant_6,2,memory-2step-stake-s,598,1978986,0.0-19.0-0.0-0.105,A2HZSG2OHU7O8P,3B623HUYK76FV1575X2NKKQMM9B8SL,3OUYGIZWRBE3M3I68EQGLKBGA3WP00,7,8
106,1,object_04,object_08,539.70000000298,2,2,600.70000000298,0.2222222222222222,2,object_03,5,1347,0,6,2,desert_7,2,memory-2step-stake-s,599,1987125,0.0-19.0-0.0-0.106,A2HZSG2OHU7O8P,3B623HUYK76FV1575X2NKKQMM9B8SL,3OUYGIZWRBE3M3I68EQGLKBGA3WP00,1,2
107,4,object_07,object_06,741.5,8,1,305.0,0.0,2,object_03,1,1347,0,7,0,restaurant_2,2,memory-2step-stake-s,600,1994734,0.0-19.0-0.0-0.107,A2HZSG2OHU7O8P,3B623HUYK76FV1575X2NKKQMM9B8SL,3OUYGIZWRBE3M3I68EQGLKBGA3WP00,8,7
108,2,object_05,object_01,820.90000000596,4,1,295.0,0.0,2,object_03,1,1347,0,8,0,forest_8,2,memory-2step-stake-s,601,2002338,0.0-19.0-0.0-0.108,A2HZSG2OHU7O8P,3B623HUYK76FV1575X2NKKQMM9B8SL,3OUYGIZWRBE3M3I68EQGLKBGA3WP00,4,3
109,3,object_02,object_09,741.0,5,1,286.30000001192,0.7777777777777778,1,object_10,1,1354,0,7,4,library_1,2,memory-2step-stake-s,602,2010697,0.0-19.0-0.0-0.109,A2HZSG2OHU7O8P,3B623HUYK76FV1575X2NKKQMM9B8SL,3OUYGIZWRBE3M3I68EQGLKBGA3WP00,5,6
110,4,object_06,object_07,909.0,7,1,393.39999999106,0.6666666666666666,1,object_10,1,1360,0,6,2,restaurant_4,2,memory-2step-stake-s,603,2019056,0.0-19.0-0.0-0.110,A2HZSG2OHU7O8P,3B623HUYK76FV1575X2NKKQMM9B8SL,3OUYGIZWRBE3M3I68EQGLKBGA3WP00,7,8
111,1,object_08,object_04,682.39999999106,1,2,421.29999999702,0.6666666666666666,1,object_10,5,1390,0,6,5,desert_7,2,memory-2step-stake-s,604,2027423,0.0-19.0-0.0-0.111,A2HZSG2OHU7O8P,3B623HUYK76FV1575X2NKKQMM9B8SL,3OUYGIZWRBE3M3I68EQGLKBGA3WP00,2,1
112,4,object_07,object_06,1008.900000006,7,2,366.79999999702,0.0,1,object_10,1,1390,0,0,8,restaurant_6,2,memory-2step-stake-s,605,2035142,0.0-19.0-0.0-0.112,A2HZSG2OHU7O8P,3B623HUYK76FV1575X2NKKQMM9B8SL,3OUYGIZWRBE3M3I68EQGLKBGA3WP00,8,7
113,3,object_09,object_02,787.59999999404,5,2,357.90000000596,0.0,1,object_10,5,1390,0,0,7,library_1,2,memory-2step-stake-s,606,2042831,0.0-19.0-0.0-0.113,A2HZSG2OHU7O8P,3B623HUYK76FV1575X2NKKQMM9B8SL,3OUYGIZWRBE3M3I68EQGLKBGA3WP00,6,5
114,4,object_07,object_06,1212.799999997,8,1,276.39999999106,0.8888888888888888,2,object_03,1,1398,0,2,8,restaurant_5,2,memory-2step-stake-s,607,2051266,0.0-19.0-0.0-0.114,A2HZSG2OHU7O8P,3B623HUYK76FV1575X2NKKQMM9B8SL,3OUYGIZWRBE3M3I68EQGLKBGA3WP00,8,7
115,3,object_02,object_09,677.30000001192,6,2,449.60000000894,0.7777777777777778,2,object_03,1,1405,0,3,7,library_2,2,memory-2step-stake-s,608,2059787,0.0-19.0-0.0-0.115,A2HZSG2OHU7O8P,3B623HUYK76FV1575X2NKKQMM9B8SL,3OUYGIZWRBE3M3I68EQGLKBGA3WP00,5,6
116,3,object_02,object_09,774.0,6,2,432.19999998808,0.7777777777777778,2,object_03,1,1412,0,5,7,library_8,2,memory-2step-stake-s,609,2068225,0.0-19.0-0.0-0.116,A2HZSG2OHU7O8P,3B623HUYK76FV1575X2NKKQMM9B8SL,3OUYGIZWRBE3M3I68EQGLKBGA3WP00,5,6
117,1,object_08,object_04,835.29999999702,1,2,282.79999999702,0.6666666666666666,1,object_10,5,1442,0,6,8,desert_7,2,memory-2step-stake-s,610,2076446,0.0-19.0-0.0-0.117,A2HZSG2OHU7O8P,3B623HUYK76FV1575X2NKKQMM9B8SL,3OUYGIZWRBE3M3I68EQGLKBGA3WP00,2,1
118,4,object_07,object_06,704.10000000894,7,2,202.0,0.7777777777777778,1,object_10,1,1449,0,7,6,restaurant_6,2,memory-2step-stake-s,611,2084686,0.0-19.0-0.0-0.118,A2HZSG2OHU7O8P,3B623HUYK76FV1575X2NKKQMM9B8SL,3OUYGIZWRBE3M3I68EQGLKBGA3WP00,8,7
119,2,object_05,object_01,859.19999998808,4,1,206.09999999404,0.1111111111111111,2,object_03,5,1454,0,6,1,forest_6,2,memory-2step-stake-s,612,2092281,0.0-19.0-0.0-0.119,A2HZSG2OHU7O8P,3B623HUYK76FV1575X2NKKQMM9B8SL,3OUYGIZWRBE3M3I68EQGLKBGA3WP00,4,3
120,3,object_02,object_09,311.5,6,2,279.79999999702,0.2222222222222222,2,object_03,1,1456,0,5,2,library_2,2,memory-2step-stake-s,613,2100042,0.0-19.0-0.0-0.120,A2HZSG2OHU7O8P,3B623HUYK76FV1575X2NKKQMM9B8SL,3OUYGIZWRBE3M3I68EQGLKBGA3WP00,5,6
121,2,object_01,object_05,830.20000000298,4,2,214.80000001192,0.4444444444444444,2,object_03,5,1476,0,4,4,forest_6,2,memory-2step-stake-s,614,2107948,0.0-19.0-0.0-0.121,A2HZSG2OHU7O8P,3B623HUYK76FV1575X2NKKQMM9B8SL,3OUYGIZWRBE3M3I68EQGLKBGA3WP00,3,4
122,1,object_04,object_08,1082.700000003,1,1,570.10000000894,0.6666666666666666,1,object_10,5,1506,0,6,3,desert_1,2,memory-2step-stake-s,615,2116416,0.0-19.0-0.0-0.122,A2HZSG2OHU7O8P,3B623HUYK76FV1575X2NKKQMM9B8SL,3OUYGIZWRBE3M3I68EQGLKBGA3WP00,1,2
123,3,object_09,object_02,773.0,6,1,252.40000000596,0.4444444444444444,2,object_03,1,1510,0,7,4,library_4,2,memory-2step-stake-s,616,2124386,0.0-19.0-0.0-0.123,A2HZSG2OHU7O8P,3B623HUYK76FV1575X2NKKQMM9B8SL,3OUYGIZWRBE3M3I68EQGLKBGA3WP00,6,5
124,1,object_08,object_04,1431.200000003,1,2,531.60000000894,0.6666666666666666,1,object_10,1,1516,0,6,3,desert_1,2,memory-2step-stake-s,617,2132858,0.0-19.0-0.0-0.124,A2HZSG2OHU7O8P,3B623HUYK76FV1575X2NKKQMM9B8SL,3OUYGIZWRBE3M3I68EQGLKBGA3WP00,2,1
125,1,object_04,object_08,924.40000000596,1,1,333.5,0.5555555555555556,1,object_10,5,1541,0,5,3,desert_7,2,memory-2step-stake-s,618,2140986,0.0-19.0-0.0-0.125,A2HZSG2OHU7O8P,3B623HUYK76FV1575X2NKKQMM9B8SL,3OUYGIZWRBE3M3I68EQGLKBGA3WP00,1,2
126,1,object_08,object_04,766.20000000298,1,2,332.20000000298,0.5555555555555556,1,object_10,5,1566,0,5,5,desert_6,2,memory-2step-stake-s,619,2149148,0.0-19.0-0.0-0.126,A2HZSG2OHU7O8P,3B623HUYK76FV1575X2NKKQMM9B8SL,3OUYGIZWRBE3M3I68EQGLKBGA3WP00,2,1
127,3,object_02,object_09,855.0,6,2,704.59999999404,0.2222222222222222,2,object_03,5,1576,0,7,2,library_1,2,memory-2step-stake-s,620,2157370,0.0-19.0-0.0-0.127,A2HZSG2OHU7O8P,3B623HUYK76FV1575X2NKKQMM9B8SL,3OUYGIZWRBE3M3I68EQGLKBGA3WP00,5,6
128,1,object_04,object_08,1172.0,2,2,221.59999999404,0.1111111111111111,2,object_03,5,1581,0,3,1,desert_6,2,memory-2step-stake-s,622,2205635,0.0-19.0-0.1-0.128,A2HZSG2OHU7O8P,3B623HUYK76FV1575X2NKKQMM9B8SL,3OUYGIZWRBE3M3I68EQGLKBGA3WP00,1,2
129,2,object_01,object_05,676.40000000596,4,2,503.20000000298,0.5555555555555556,2,object_03,5,1606,0,3,5,forest_6,2,memory-2step-stake-s,623,2213932,0.0-19.0-0.1-0.129,A2HZSG2OHU7O8P,3B623HUYK76FV1575X2NKKQMM9B8SL,3OUYGIZWRBE3M3I68EQGLKBGA3WP00,3,4
130,2,object_05,object_01,504.0,4,1,232.70000000298,0.5555555555555556,2,object_03,5,1631,0,1,5,forest_7,2,memory-2step-stake-s,624,2221973,0.0-19.0-0.1-0.130,A2HZSG2OHU7O8P,3B623HUYK76FV1575X2NKKQMM9B8SL,3OUYGIZWRBE3M3I68EQGLKBGA3WP00,4,3
131,4,object_07,object_06,664.70000000298,7,2,39.79999999702,0.2222222222222222,1,object_10,1,1633,0,2,2,restaurant_2,2,memory-2step-stake-s,625,2229522,0.0-19.0-0.1-0.131,A2HZSG2OHU7O8P,3B623HUYK76FV1575X2NKKQMM9B8SL,3OUYGIZWRBE3M3I68EQGLKBGA3WP00,8,7
132,4,object_07,object_06,1143.400000006,7,2,-1.0,0.0,1,object_10,5,1633,0,3,6,restaurant_5,2,memory-2step-stake-s,626,2238103,0.0-19.0-0.1-0.132,A2HZSG2OHU7O8P,3B623HUYK76FV1575X2NKKQMM9B8SL,3OUYGIZWRBE3M3I68EQGLKBGA3WP00,8,7
133,4,object_06,object_07,81.0,8,2,739.0,0.7777777777777778,2,object_03,5,1668,0,4,7,restaurant_2,2,memory-2step-stake-s,627,2246913,0.0-19.0-0.1-0.133,A2HZSG2OHU7O8P,3B623HUYK76FV1575X2NKKQMM9B8SL,3OUYGIZWRBE3M3I68EQGLKBGA3WP00,7,8
134,1,object_08,object_04,750.40000000596,2,1,840.70000000298,0.7777777777777778,2,object_03,5,1703,0,7,7,desert_1,2,memory-2step-stake-s,628,2255793,0.0-19.0-0.1-0.134,A2HZSG2OHU7O8P,3B623HUYK76FV1575X2NKKQMM9B8SL,3OUYGIZWRBE3M3I68EQGLKBGA3WP00,2,1
135,2,object_05,object_01,698.09999999404,4,1,647.29999999702,0.6666666666666666,2,object_03,5,1733,0,4,6,forest_6,2,memory-2step-stake-s,629,2264365,0.0-19.0-0.1-0.135,A2HZSG2OHU7O8P,3B623HUYK76FV1575X2NKKQMM9B8SL,3OUYGIZWRBE3M3I68EQGLKBGA3WP00,4,3
136,3,object_02,object_09,-1.0,-1,-1,-1.0,0.0,-,0,1,1733,0,3,6,library_2,2,memory-2step-stake-s,630,2270949,0.0-19.0-0.1-0.136,A2HZSG2OHU7O8P,3B623HUYK76FV1575X2NKKQMM9B8SL,3OUYGIZWRBE3M3I68EQGLKBGA3WP00,5,6
137,4,object_06,object_07,865.79999999702,7,1,929.29999999702,0.3333333333333333,1,object_10,1,1736,0,3,8,restaurant_4,2,memory-2step-stake-s,631,2279519,0.0-19.0-0.1-0.137,A2HZSG2OHU7O8P,3B623HUYK76FV1575X2NKKQMM9B8SL,3OUYGIZWRBE3M3I68EQGLKBGA3WP00,7,8
138,4,object_06,object_07,679.09999999404,8,2,250.20000000298,1.0,2,object_03,1,1745,0,3,9,restaurant_6,2,memory-2step-stake-s,632,2287986,0.0-19.0-0.1-0.138,A2HZSG2OHU7O8P,3B623HUYK76FV1575X2NKKQMM9B8SL,3OUYGIZWRBE3M3I68EQGLKBGA3WP00,7,8
139,3,object_02,object_09,592.90000000596,6,2,141.79999999702,0.6666666666666666,2,object_03,5,1775,0,4,6,library_8,2,memory-2step-stake-s,633,2296052,0.0-19.0-0.1-0.139,A2HZSG2OHU7O8P,3B623HUYK76FV1575X2NKKQMM9B8SL,3OUYGIZWRBE3M3I68EQGLKBGA3WP00,5,6
140,1,object_04,object_08,764.20000000298,2,2,370.19999998808,0.7777777777777778,2,object_03,5,1810,0,1,7,desert_6,2,memory-2step-stake-s,634,2304429,0.0-19.0-0.1-0.140,A2HZSG2OHU7O8P,3B623HUYK76FV1575X2NKKQMM9B8SL,3OUYGIZWRBE3M3I68EQGLKBGA3WP00,1,2
141,4,object_06,object_07,27.40000000596,8,2,314.40000000596,0.8888888888888888,2,object_03,1,1818,0,1,8,restaurant_2,2,memory-2step-stake-s,635,2312887,0.0-19.0-0.1-0.141,A2HZSG2OHU7O8P,3B623HUYK76FV1575X2NKKQMM9B8SL,3OUYGIZWRBE3M3I68EQGLKBGA3WP00,7,8
142,1,object_08,object_04,628.60000000894,2,1,1261.599999994,0.8888888888888888,2,object_03,5,1858,0,2,8,desert_4,2,memory-2step-stake-s,636,2322287,0.0-19.0-0.1-0.142,A2HZSG2OHU7O8P,3B623HUYK76FV1575X2NKKQMM9B8SL,3OUYGIZWRBE3M3I68EQGLKBGA3WP00,2,1
143,4,object_06,object_07,-1.0,-1,-1,-1.0,0.0,-,0,5,1858,0,6,7,restaurant_4,2,memory-2step-stake-s,637,2328899,0.0-19.0-0.1-0.143,A2HZSG2OHU7O8P,3B623HUYK76FV1575X2NKKQMM9B8SL,3OUYGIZWRBE3M3I68EQGLKBGA3WP00,7,8
144,2,object_01,object_05,-1.0,-1,-1,-1.0,0.0,-,0,5,1858,0,7,6,forest_6,2,memory-2step-stake-s,638,2335461,0.0-19.0-0.1-0.144,A2HZSG2OHU7O8P,3B623HUYK76FV1575X2NKKQMM9B8SL,3OUYGIZWRBE3M3I68EQGLKBGA3WP00,3,4
145,3,object_09,object_02,-1.0,-1,-1,-1.0,0.0,-,0,1,1858,0,9,6,library_2,2,memory-2step-stake-s,639,2342026,0.0-19.0-0.1-0.145,A2HZSG2OHU7O8P,3B623HUYK76FV1575X2NKKQMM9B8SL,3OUYGIZWRBE3M3I68EQGLKBGA3WP00,6,5
146,1,object_04,object_08,-1.0,-1,-1,-1.0,0.0,-,0,5,1858,0,7,8,desert_7,2,memory-2step-stake-s,640,2348599,0.0-19.0-0.1-0.146,A2HZSG2OHU7O8P,3B623HUYK76FV1575X2NKKQMM9B8SL,3OUYGIZWRBE3M3I68EQGLKBGA3WP00,1,2
147,2,object_05,object_01,335.20000000298,3,2,-1.0,0.0,1,object_10,1,1858,0,9,7,forest_1,2,memory-2step-stake-s,641,2357173,0.0-19.0-0.1-0.147,A2HZSG2OHU7O8P,3B623HUYK76FV1575X2NKKQMM9B8SL,3OUYGIZWRBE3M3I68EQGLKBGA3WP00,4,3
148,1,object_08,object_04,1003.799999997,2,1,418.29999999702,1.0,2,object_03,5,1903,0,4,9,desert_6,2,memory-2step-stake-s,642,2365837,0.0-19.0-0.1-0.148,A2HZSG2OHU7O8P,3B623HUYK76FV1575X2NKKQMM9B8SL,3OUYGIZWRBE3M3I68EQGLKBGA3WP00,2,1
149,3,object_02,object_09,-1.0,-1,-1,-1.0,0.0,-,0,1,1903,0,2,8,library_2,2,memory-2step-stake-s,643,2372415,0.0-19.0-0.1-0.149,A2HZSG2OHU7O8P,3B623HUYK76FV1575X2NKKQMM9B8SL,3OUYGIZWRBE3M3I68EQGLKBGA3WP00,5,6
150,2,object_05,object_01,482.40000000596,3,2,202.20000000298,0.3333333333333333,1,object_10,1,1906,0,3,9,forest_1,2,memory-2step-stake-s,644,2380248,0.0-19.0-0.1-0.150,A2HZSG2OHU7O8P,3B623HUYK76FV1575X2NKKQMM9B8SL,3OUYGIZWRBE3M3I68EQGLKBGA3WP00,4,3
151,2,object_01,object_05,906.20000000298,3,1,307.29999999702,0.5555555555555556,1,object_10,5,1931,0,5,7,forest_7,2,memory-2step-stake-s,645,2388377,0.0-19.0-0.1-0.151,A2HZSG2OHU7O8P,3B623HUYK76FV1575X2NKKQMM9B8SL,3OUYGIZWRBE3M3I68EQGLKBGA3WP00,3,4
152,1,object_08,object_04,619.60000000894,2,1,198.89999999106,0.7777777777777778,2,object_03,1,1938,0,4,7,desert_7,2,memory-2step-stake-s,646,2396590,0.0-19.0-0.1-0.152,A2HZSG2OHU7O8P,3B623HUYK76FV1575X2NKKQMM9B8SL,3OUYGIZWRBE3M3I68EQGLKBGA3WP00,2,1
153,3,object_02,object_09,622.0,6,2,220.59999999404,0.7777777777777778,2,object_03,1,1945,0,3,7,library_1,2,memory-2step-stake-s,647,2404845,0.0-19.0-0.1-0.153,A2HZSG2OHU7O8P,3B623HUYK76FV1575X2NKKQMM9B8SL,3OUYGIZWRBE3M3I68EQGLKBGA3WP00,5,6
154,1,object_08,object_04,678.70000000298,2,1,279.0,0.6666666666666666,2,object_03,5,1975,0,5,6,desert_4,2,memory-2step-stake-s,648,2413053,0.0-19.0-0.1-0.154,A2HZSG2OHU7O8P,3B623HUYK76FV1575X2NKKQMM9B8SL,3OUYGIZWRBE3M3I68EQGLKBGA3WP00,2,1
155,4,object_06,object_07,678.30000001192,8,2,265.29999999702,0.7777777777777778,2,object_03,1,1982,0,4,7,restaurant_5,2,memory-2step-stake-s,649,2421388,0.0-19.0-0.1-0.155,A2HZSG2OHU7O8P,3B623HUYK76FV1575X2NKKQMM9B8SL,3OUYGIZWRBE3M3I68EQGLKBGA3WP00,7,8
156,3,object_09,object_02,680.29999999702,6,1,295.20000000298,1.0,2,object_03,1,1991,0,4,9,library_1,2,memory-2step-stake-s,650,2429970,0.0-19.0-0.1-0.156,A2HZSG2OHU7O8P,3B623HUYK76FV1575X2NKKQMM9B8SL,3OUYGIZWRBE3M3I68EQGLKBGA3WP00,6,5
157,3,object_02,object_09,573.29999999702,6,2,330.40000000596,0.7777777777777778,2,object_03,1,1998,0,4,7,library_4,2,memory-2step-stake-s,651,2438375,0.0-19.0-0.1-0.157,A2HZSG2OHU7O8P,3B623HUYK76FV1575X2NKKQMM9B8SL,3OUYGIZWRBE3M3I68EQGLKBGA3WP00,5,6
158,3,object_02,object_09,635.09999999404,6,2,298.89999999106,0.7777777777777778,2,object_03,5,2033,0,1,7,library_4,2,memory-2step-stake-s,652,2446726,0.0-19.0-0.1-0.158,A2HZSG2OHU7O8P,3B623HUYK76FV1575X2NKKQMM9B8SL,3OUYGIZWRBE3M3I68EQGLKBGA3WP00,5,6
159,4,object_06,object_07,581.40000000596,8,2,273.40000000596,0.8888888888888888,2,object_03,1,2041,0,3,8,restaurant_6,2,memory-2step-stake-s,653,2455159,0.0-19.0-0.1-0.159,A2HZSG2OHU7O8P,3B623HUYK76FV1575X2NKKQMM9B8SL,3OUYGIZWRBE3M3I68EQGLKBGA3WP00,7,8
160,2,object_01,object_05,725.0,4,2,308.70000000298,0.6666666666666666,2,object_03,5,2071,0,2,6,forest_6,2,memory-2step-stake-s,654,2463421,0.0-19.0-0.1-0.160,A2HZSG2OHU7O8P,3B623HUYK76FV1575X2NKKQMM9B8SL,3OUYGIZWRBE3M3I68EQGLKBGA3WP00,3,4
161,1,object_04,object_08,675.0,2,2,678.80000001192,0.8888888888888888,2,object_03,5,2111,0,1,8,desert_1,2,memory-2step-stake-s,655,2472269,0.0-19.0-0.1-0.161,A2HZSG2OHU7O8P,3B623HUYK76FV1575X2NKKQMM9B8SL,3OUYGIZWRBE3M3I68EQGLKBGA3WP00,1,2
162,2,object_05,object_01,639.90000000596,4,1,1093.700000003,1.0,2,object_03,5,2156,0,2,9,forest_8,2,memory-2step-stake-s,656,2481617,0.0-19.0-0.1-0.162,A2HZSG2OHU7O8P,3B623HUYK76FV1575X2NKKQMM9B8SL,3OUYGIZWRBE3M3I68EQGLKBGA3WP00,4,3
163,4,object_06,object_07,1153.400000006,8,2,346.60000000894,0.8888888888888888,2,object_03,1,2164,0,1,8,restaurant_4,2,memory-2step-stake-s,657,2490130,0.0-19.0-0.1-0.163,A2HZSG2OHU7O8P,3B623HUYK76FV1575X2NKKQMM9B8SL,3OUYGIZWRBE3M3I68EQGLKBGA3WP00,7,8
164,1,object_04,object_08,533.70000000298,2,2,166.0,1.0,2,object_03,5,2209,0,2,9,desert_1,2,memory-2step-stake-s,658,2498548,0.0-19.0-0.1-0.164,A2HZSG2OHU7O8P,3B623HUYK76FV1575X2NKKQMM9B8SL,3OUYGIZWRBE3M3I68EQGLKBGA3WP00,1,2
165,3,object_02,object_09,630.59999999404,6,2,815.20000000298,0.8888888888888888,2,object_03,5,2249,0,2,8,library_4,2,memory-2step-stake-s,659,2507531,0.0-19.0-0.1-0.165,A2HZSG2OHU7O8P,3B623HUYK76FV1575X2NKKQMM9B8SL,3OUYGIZWRBE3M3I68EQGLKBGA3WP00,5,6
166,4,object_07,object_06,709.79999999702,7,2,177.39999999106,0.4444444444444444,1,object_10,1,2253,0,4,9,restaurant_5,2,memory-2step-stake-s,660,2515425,0.0-19.0-0.1-0.166,A2HZSG2OHU7O8P,3B623HUYK76FV1575X2NKKQMM9B8SL,3OUYGIZWRBE3M3I68EQGLKBGA3WP00,8,7
167,2,object_05,object_01,875.59999999404,4,1,749.40000000596,0.7777777777777778,2,object_03,5,2288,0,4,7,forest_8,2,memory-2step-stake-s,661,2524209,0.0-19.0-0.1-0.167,A2HZSG2OHU7O8P,3B623HUYK76FV1575X2NKKQMM9B8SL,3OUYGIZWRBE3M3I68EQGLKBGA3WP00,4,3
168,3,object_02,object_09,808.69999998808,5,1,308.29999999702,0.4444444444444444,1,object_10,1,2292,0,4,2,library_8,2,memory-2step-stake-s,662,2532231,0.0-19.0-0.1-0.168,A2HZSG2OHU7O8P,3B623HUYK76FV1575X2NKKQMM9B8SL,3OUYGIZWRBE3M3I68EQGLKBGA3WP00,5,6
169,3,object_02,object_09,-1.0,-1,-1,-1.0,0.0,-,0,5,2292,0,3,4,library_8,2,memory-2step-stake-s,663,2538806,0.0-19.0-0.1-0.169,A2HZSG2OHU7O8P,3B623HUYK76FV1575X2NKKQMM9B8SL,3OUYGIZWRBE3M3I68EQGLKBGA3WP00,5,6
170,2,object_05,object_01,442.79999999702,3,2,259.59999999404,0.3333333333333333,1,object_10,5,2307,0,3,2,forest_7,2,memory-2step-stake-s,664,2546675,0.0-19.0-0.1-0.170,A2HZSG2OHU7O8P,3B623HUYK76FV1575X2NKKQMM9B8SL,3OUYGIZWRBE3M3I68EQGLKBGA3WP00,4,3
171,1,object_08,object_04,693.40000000596,2,1,159.0,0.3333333333333333,2,object_03,5,2322,0,3,3,desert_7,2,memory-2step-stake-s,665,2554465,0.0-19.0-0.1-0.171,A2HZSG2OHU7O8P,3B623HUYK76FV1575X2NKKQMM9B8SL,3OUYGIZWRBE3M3I68EQGLKBGA3WP00,2,1
172,4,object_07,object_06,836.10000000894,8,1,299.29999999702,0.1111111111111111,2,object_03,5,2327,0,4,1,restaurant_5,2,memory-2step-stake-s,666,2562128,0.0-19.0-0.1-0.172,A2HZSG2OHU7O8P,3B623HUYK76FV1575X2NKKQMM9B8SL,3OUYGIZWRBE3M3I68EQGLKBGA3WP00,8,7
173,4,object_06,object_07,922.30000001192,8,2,268.40000000596,0.1111111111111111,2,object_03,1,2328,0,2,1,restaurant_6,2,memory-2step-stake-s,667,2569771,0.0-19.0-0.1-0.173,A2HZSG2OHU7O8P,3B623HUYK76FV1575X2NKKQMM9B8SL,3OUYGIZWRBE3M3I68EQGLKBGA3WP00,7,8
174,3,object_09,object_02,1015.0,6,1,587.10000000894,0.1111111111111111,2,object_03,1,2329,0,7,1,library_4,2,memory-2step-stake-s,668,2577754,0.0-19.0-0.1-0.174,A2HZSG2OHU7O8P,3B623HUYK76FV1575X2NKKQMM9B8SL,3OUYGIZWRBE3M3I68EQGLKBGA3WP00,6,5
175,1,object_04,object_08,756.20000000298,2,2,376.89999999106,0.2222222222222222,2,object_03,5,2339,0,8,2,desert_7,2,memory-2step-stake-s,669,2585649,0.0-19.0-0.1-0.175,A2HZSG2OHU7O8P,3B623HUYK76FV1575X2NKKQMM9B8SL,3OUYGIZWRBE3M3I68EQGLKBGA3WP00,1,2
176,3,object_09,object_02,829.5,5,2,393.59999999404,0.7777777777777778,1,object_10,1,2346,0,7,1,library_8,2,memory-2step-stake-s,670,2594032,0.0-19.0-0.1-0.176,A2HZSG2OHU7O8P,3B623HUYK76FV1575X2NKKQMM9B8SL,3OUYGIZWRBE3M3I68EQGLKBGA3WP00,6,5
177,1,object_08,object_04,803.5,1,2,330.20000000298,0.7777777777777778,1,object_10,5,2381,0,7,1,desert_1,2,memory-2step-stake-s,671,2602398,0.0-19.0-0.1-0.177,A2HZSG2OHU7O8P,3B623HUYK76FV1575X2NKKQMM9B8SL,3OUYGIZWRBE3M3I68EQGLKBGA3WP00,2,1
178,3,object_02,object_09,904.0,5,1,414.39999999106,1.0,1,object_10,1,2390,0,9,1,library_1,2,memory-2step-stake-s,672,2611068,0.0-19.0-0.1-0.178,A2HZSG2OHU7O8P,3B623HUYK76FV1575X2NKKQMM9B8SL,3OUYGIZWRBE3M3I68EQGLKBGA3WP00,5,6
179,3,object_02,object_09,880.30000001192,5,1,589.20000000298,0.7777777777777778,1,object_10,1,2397,0,7,1,library_4,2,memory-2step-stake-s,673,2619699,0.0-19.0-0.1-0.179,A2HZSG2OHU7O8P,3B623HUYK76FV1575X2NKKQMM9B8SL,3OUYGIZWRBE3M3I68EQGLKBGA3WP00,5,6
180,1,object_08,object_04,781.0,1,2,286.39999999106,0.2222222222222222,1,object_10,5,2407,0,2,5,desert_4,2,memory-2step-stake-s,674,2627512,0.0-19.0-0.1-0.180,A2HZSG2OHU7O8P,3B623HUYK76FV1575X2NKKQMM9B8SL,3OUYGIZWRBE3M3I68EQGLKBGA3WP00,2,1
181,4,object_07,object_06,1167.200000003,7,2,344.29999999702,0.0,1,object_10,1,2407,0,0,7,restaurant_2,2,memory-2step-stake-s,675,2635110,0.0-19.0-0.1-0.181,A2HZSG2OHU7O8P,3B623HUYK76FV1575X2NKKQMM9B8SL,3OUYGIZWRBE3M3I68EQGLKBGA3WP00,8,7
182,1,object_04,object_08,1056.799999997,1,1,19.29999999702,0.1111111111111111,1,object_10,5,2412,0,1,6,desert_6,2,memory-2step-stake-s,676,2642519,0.0-19.0-0.1-0.182,A2HZSG2OHU7O8P,3B623HUYK76FV1575X2NKKQMM9B8SL,3OUYGIZWRBE3M3I68EQGLKBGA3WP00,1,2
183,4,object_07,object_06,1010.200000003,8,1,12.0,0.7777777777777778,2,object_03,5,2447,0,0,7,restaurant_4,2,memory-2step-stake-s,677,2650557,0.0-19.0-0.1-0.183,A2HZSG2OHU7O8P,3B623HUYK76FV1575X2NKKQMM9B8SL,3OUYGIZWRBE3M3I68EQGLKBGA3WP00,8,7
184,3,object_09,object_02,906.89999999106,6,1,96.800000011921,0.5555555555555556,2,object_03,5,2472,0,2,5,library_2,2,memory-2step-stake-s,678,2658457,0.0-19.0-0.1-0.184,A2HZSG2OHU7O8P,3B623HUYK76FV1575X2NKKQMM9B8SL,3OUYGIZWRBE3M3I68EQGLKBGA3WP00,6,5
185,2,object_05,object_01,1216.900000006,4,1,319.90000000596,0.8888888888888888,2,object_03,5,2512,0,1,8,forest_8,2,memory-2step-stake-s,679,2666905,0.0-19.0-0.1-0.185,A2HZSG2OHU7O8P,3B623HUYK76FV1575X2NKKQMM9B8SL,3OUYGIZWRBE3M3I68EQGLKBGA3WP00,4,3
186,2,object_01,object_05,923.70000000298,4,2,245.79999999702,0.8888888888888888,2,object_03,1,2520,0,2,8,forest_6,2,memory-2step-stake-s,680,2675257,0.0-19.0-0.1-0.186,A2HZSG2OHU7O8P,3B623HUYK76FV1575X2NKKQMM9B8SL,3OUYGIZWRBE3M3I68EQGLKBGA3WP00,3,4
187,3,object_02,object_09,706.40000000596,6,2,206.0,0.7777777777777778,2,object_03,5,2555,0,1,7,library_2,2,memory-2step-stake-s,681,2683504,0.0-19.0-0.1-0.187,A2HZSG2OHU7O8P,3B623HUYK76FV1575X2NKKQMM9B8SL,3OUYGIZWRBE3M3I68EQGLKBGA3WP00,5,6
188,1,object_04,object_08,606.59999999404,2,2,173.40000000596,0.6666666666666666,2,object_03,5,2585,0,1,6,desert_4,2,memory-2step-stake-s,682,2691629,0.0-19.0-0.1-0.188,A2HZSG2OHU7O8P,3B623HUYK76FV1575X2NKKQMM9B8SL,3OUYGIZWRBE3M3I68EQGLKBGA3WP00,1,2
189,4,object_07,object_06,738.70000000298,8,1,254.70000000298,0.6666666666666666,2,object_03,1,2591,0,0,6,restaurant_6,2,memory-2step-stake-s,683,2699780,0.0-19.0-0.1-0.189,A2HZSG2OHU7O8P,3B623HUYK76FV1575X2NKKQMM9B8SL,3OUYGIZWRBE3M3I68EQGLKBGA3WP00,8,7
190,3,object_02,object_09,621.90000000596,6,2,-1.0,0.0,2,object_03,1,2591,0,1,5,library_1,2,memory-2step-stake-s,684,2708408,0.0-19.0-0.1-0.190,A2HZSG2OHU7O8P,3B623HUYK76FV1575X2NKKQMM9B8SL,3OUYGIZWRBE3M3I68EQGLKBGA3WP00,5,6
191,3,object_09,object_02,-1.0,-1,-1,-1.0,0.0,-,0,1,2591,0,1,5,library_8,2,memory-2step-stake-s,685,2714952,0.0-19.0-0.1-0.191,A2HZSG2OHU7O8P,3B623HUYK76FV1575X2NKKQMM9B8SL,3OUYGIZWRBE3M3I68EQGLKBGA3WP00,6,5
192,1,object_04,object_08,539.39999999106,2,2,483.70000000298,0.4444444444444444,2,object_03,5,2611,0,1,4,desert_6,2,memory-2step-stake-s,686,2723124,0.0-19.0-0.1-0.192,A2HZSG2OHU7O8P,3B623HUYK76FV1575X2NKKQMM9B8SL,3OUYGIZWRBE3M3I68EQGLKBGA3WP00,1,2
193,2,object_05,object_01,739.5,4,1,1057.3999999911,0.5555555555555556,2,object_03,5,2636,0,2,5,forest_6,2,memory-2step-stake-s,687,2732007,0.0-19.0-0.1-0.193,A2HZSG2OHU7O8P,3B623HUYK76FV1575X2NKKQMM9B8SL,3OUYGIZWRBE3M3I68EQGLKBGA3WP00,4,3
194,2,object_01,object_05,1069.200000003,4,2,1257.200000003,1.0,2,object_03,5,2681,0,1,9,forest_8,2,memory-2step-stake-s,688,2741503,0.0-19.0-0.1-0.194,A2HZSG2OHU7O8P,3B623HUYK76FV1575X2NKKQMM9B8SL,3OUYGIZWRBE3M3I68EQGLKBGA3WP00,3,4
195,3,object_09,object_02,608.30000001192,6,1,1264.299999997,0.8888888888888888,2,object_03,1,2689,0,5,8,library_4,2,memory-2step-stake-s,689,2750891,0.0-19.0-0.1-0.195,A2HZSG2OHU7O8P,3B623HUYK76FV1575X2NKKQMM9B8SL,3OUYGIZWRBE3M3I68EQGLKBGA3WP00,6,5
196,3,object_02,object_09,549.40000000596,6,2,620.5,0.7777777777777778,2,object_03,1,2696,0,5,7,library_2,2,memory-2step-stake-s,690,2759554,0.0-19.0-0.1-0.196,A2HZSG2OHU7O8P,3B623HUYK76FV1575X2NKKQMM9B8SL,3OUYGIZWRBE3M3I68EQGLKBGA3WP00,5,6
197,3,object_02,object_09,653.70000000298,6,2,271.09999999404,0.6666666666666666,2,object_03,5,2726,0,3,6,library_8,2,memory-2step-stake-s,691,2767777,0.0-19.0-0.1-0.197,A2HZSG2OHU7O8P,3B623HUYK76FV1575X2NKKQMM9B8SL,3OUYGIZWRBE3M3I68EQGLKBGA3WP00,5,6
198,3,object_09,object_02,1461.5,6,1,549.40000000596,0.5555555555555556,2,object_03,1,2731,0,1,5,library_2,2,memory-2step-stake-s,692,2776156,0.0-19.0-0.1-0.198,A2HZSG2OHU7O8P,3B623HUYK76FV1575X2NKKQMM9B8SL,3OUYGIZWRBE3M3I68EQGLKBGA3WP00,6,5
199,4,object_07,object_06,785.79999999702,8,1,1428.299999997,0.6666666666666666,2,object_03,1,2737,0,3,6,restaurant_5,2,memory-2step-stake-s,693,2785538,0.0-19.0-0.1-0.199,A2HZSG2OHU7O8P,3B623HUYK76FV1575X2NKKQMM9B8SL,3OUYGIZWRBE3M3I68EQGLKBGA3WP00,8,7
200,3,object_09,object_02,-1.0,-1,-1,-1.0,0.0,-,0,5,2737,0,4,4,library_1,2,memory-2step-stake-s,694,2792106,0.0-19.0-0.1-0.200,A2HZSG2OHU7O8P,3B623HUYK76FV1575X2NKKQMM9B8SL,3OUYGIZWRBE3M3I68EQGLKBGA3WP00,6,5
201,4,object_06,object_07,1024.299999997,7,1,260.30000001192,0.8888888888888888,1,object_10,1,2745,0,8,3,restaurant_2,2,memory-2step-stake-s,695,2800486,0.0-19.0-0.1-0.201,A2HZSG2OHU7O8P,3B623HUYK76FV1575X2NKKQMM9B8SL,3OUYGIZWRBE3M3I68EQGLKBGA3WP00,7,8
202,1,object_08,object_04,869.40000000596,1,2,199.79999999702,0.7777777777777778,1,object_10,1,2752,0,7,5,desert_6,2,memory-2step-stake-s,696,2808733,0.0-19.0-0.1-0.202,A2HZSG2OHU7O8P,3B623HUYK76FV1575X2NKKQMM9B8SL,3OUYGIZWRBE3M3I68EQGLKBGA3WP00,2,1
203,3,object_09,object_02,903.40000000596,5,2,459.79999999702,0.8888888888888888,1,object_10,1,2760,0,8,5,library_1,2,memory-2step-stake-s,697,2817306,0.0-19.0-0.1-0.203,A2HZSG2OHU7O8P,3B623HUYK76FV1575X2NKKQMM9B8SL,3OUYGIZWRBE3M3I68EQGLKBGA3WP00,6,5
204,2,object_05,object_01,938.39999999106,3,2,343.79999999702,0.7777777777777778,1,object_10,5,2795,0,7,2,forest_7,2,memory-2step-stake-s,698,2825691,0.0-19.0-0.1-0.204,A2HZSG2OHU7O8P,3B623HUYK76FV1575X2NKKQMM9B8SL,3OUYGIZWRBE3M3I68EQGLKBGA3WP00,4,3
205,2,object_01,object_05,770.5,3,1,626.39999999106,0.8888888888888888,1,object_10,1,2803,0,8,1,forest_8,2,memory-2step-stake-s,699,2834452,0.0-19.0-0.1-0.205,A2HZSG2OHU7O8P,3B623HUYK76FV1575X2NKKQMM9B8SL,3OUYGIZWRBE3M3I68EQGLKBGA3WP00,3,4
206,4,object_07,object_06,1124.799999997,7,2,453.89999999106,0.6666666666666666,1,object_10,5,2833,0,6,1,restaurant_4,2,memory-2step-stake-s,700,2842843,0.0-19.0-0.1-0.206,A2HZSG2OHU7O8P,3B623HUYK76FV1575X2NKKQMM9B8SL,3OUYGIZWRBE3M3I68EQGLKBGA3WP00,8,7
207,3,object_09,object_02,972.5,5,2,734.19999998808,0.1111111111111111,1,object_10,1,2834,0,1,1,library_1,2,memory-2step-stake-s,701,2850983,0.0-19.0-0.1-0.207,A2HZSG2OHU7O8P,3B623HUYK76FV1575X2NKKQMM9B8SL,3OUYGIZWRBE3M3I68EQGLKBGA3WP00,6,5
208,4,object_06,object_07,837.10000000894,8,2,71.0,0.1111111111111111,2,object_03,5,2839,0,0,1,restaurant_6,2,memory-2step-stake-s,702,2858439,0.0-19.0-0.1-0.208,A2HZSG2OHU7O8P,3B623HUYK76FV1575X2NKKQMM9B8SL,3OUYGIZWRBE3M3I68EQGLKBGA3WP00,7,8
209,2,object_01,object_05,689.0,4,2,26.29999999702,0.1111111111111111,2,object_03,5,2844,0,3,1,forest_6,2,memory-2step-stake-s,703,2865882,0.0-19.0-0.1-0.209,A2HZSG2OHU7O8P,3B623HUYK76FV1575X2NKKQMM9B8SL,3OUYGIZWRBE3M3I68EQGLKBGA3WP00,3,4
210,2,object_05,object_01,650.90000000596,3,2,232.59999999404,0.0,1,object_10,1,2844,0,0,3,forest_1,2,memory-2step-stake-s,704,2873425,0.0-19.0-0.1-0.210,A2HZSG2OHU7O8P,3B623HUYK76FV1575X2NKKQMM9B8SL,3OUYGIZWRBE3M3I68EQGLKBGA3WP00,4,3
211,1,object_04,object_08,655.40000000596,2,2,273.89999999106,0.1111111111111111,2,object_03,5,2849,0,2,1,desert_4,2,memory-2step-stake-s,705,2881121,0.0-19.0-0.1-0.211,A2HZSG2OHU7O8P,3B623HUYK76FV1575X2NKKQMM9B8SL,3OUYGIZWRBE3M3I68EQGLKBGA3WP00,1,2
212,1,object_04,object_08,741.70000000298,1,1,285.40000000596,0.4444444444444444,1,object_10,5,2869,0,4,5,desert_7,2,memory-2step-stake-s,706,2889135,0.0-19.0-0.1-0.212,A2HZSG2OHU7O8P,3B623HUYK76FV1575X2NKKQMM9B8SL,3OUYGIZWRBE3M3I68EQGLKBGA3WP00,1,2
213,1,object_08,object_04,1038.1999999881,2,1,346.5,0.5555555555555556,2,object_03,1,2874,0,0,5,desert_1,2,memory-2step-stake-s,707,2897321,0.0-19.0-0.1-0.213,A2HZSG2OHU7O8P,3B623HUYK76FV1575X2NKKQMM9B8SL,3OUYGIZWRBE3M3I68EQGLKBGA3WP00,2,1
214,2,object_01,object_05,787.59999999404,4,2,770.39999999106,0.3333333333333333,2,object_03,5,2889,0,4,3,forest_1,2,memory-2step-stake-s,708,2905756,0.0-19.0-0.1-0.214,A2HZSG2OHU7O8P,3B623HUYK76FV1575X2NKKQMM9B8SL,3OUYGIZWRBE3M3I68EQGLKBGA3WP00,3,4
215,3,object_02,object_09,922.10000000894,6,2,910.70000000298,0.5555555555555556,2,object_03,5,2914,0,5,5,library_1,2,memory-2step-stake-s,709,2914518,0.0-19.0-0.1-0.215,A2HZSG2OHU7O8P,3B623HUYK76FV1575X2NKKQMM9B8SL,3OUYGIZWRBE3M3I68EQGLKBGA3WP00,5,6
216,2,object_05,object_01,1207.1000000089,4,1,720.40000000596,0.3333333333333333,2,object_03,5,2929,0,6,3,forest_1,2,memory-2step-stake-s,710,2922886,0.0-19.0-0.1-0.216,A2HZSG2OHU7O8P,3B623HUYK76FV1575X2NKKQMM9B8SL,3OUYGIZWRBE3M3I68EQGLKBGA3WP00,4,3
217,4,object_06,object_07,292.0,7,1,752.5,0.4444444444444444,1,object_10,5,2949,0,4,1,restaurant_4,2,memory-2step-stake-s,711,2931419,0.0-19.0-0.1-0.217,A2HZSG2OHU7O8P,3B623HUYK76FV1575X2NKKQMM9B8SL,3OUYGIZWRBE3M3I68EQGLKBGA3WP00,7,8
218,2,object_05,object_01,-1.0,-1,-1,-1.0,0.0,-,0,5,2949,0,6,4,forest_7,2,memory-2step-stake-s,712,2937989,0.0-19.0-0.1-0.218,A2HZSG2OHU7O8P,3B623HUYK76FV1575X2NKKQMM9B8SL,3OUYGIZWRBE3M3I68EQGLKBGA3WP00,4,3
219,2,object_01,object_05,0.90000000596046,3,1,205.0,0.6666666666666666,1,object_10,5,2979,0,6,5,forest_1,2,memory-2step-stake-s,713,2946117,0.0-19.0-0.1-0.219,A2HZSG2OHU7O8P,3B623HUYK76FV1575X2NKKQMM9B8SL,3OUYGIZWRBE3M3I68EQGLKBGA3WP00,3,4
220,3,object_09,object_02,474.0,5,2,401.59999999404,0.7777777777777778,1,object_10,1,2986,0,7,5,library_8,2,memory-2step-stake-s,714,2954559,0.0-19.0-0.1-0.220,A2HZSG2OHU7O8P,3B623HUYK76FV1575X2NKKQMM9B8SL,3OUYGIZWRBE3M3I68EQGLKBGA3WP00,6,5
221,3,object_02,object_09,445.79999999702,5,1,257.20000000298,0.8888888888888888,1,object_10,1,2994,0,8,4,library_8,2,memory-2step-stake-s,715,2962964,0.0-19.0-0.1-0.221,A2HZSG2OHU7O8P,3B623HUYK76FV1575X2NKKQMM9B8SL,3OUYGIZWRBE3M3I68EQGLKBGA3WP00,5,6
222,1,object_04,object_08,546.79999999702,2,2,344.80000001192,0.5555555555555556,2,object_03,5,3019,0,5,5,desert_7,2,memory-2step-stake-s,716,2971161,0.0-19.0-0.1-0.222,A2HZSG2OHU7O8P,3B623HUYK76FV1575X2NKKQMM9B8SL,3OUYGIZWRBE3M3I68EQGLKBGA3WP00,1,2
223,4,object_06,object_07,1239.700000003,8,2,616.59999999404,0.3333333333333333,2,object_03,1,3022,0,1,3,restaurant_5,2,memory-2step-stake-s,717,2979427,0.0-19.0-0.1-0.223,A2HZSG2OHU7O8P,3B623HUYK76FV1575X2NKKQMM9B8SL,3OUYGIZWRBE3M3I68EQGLKBGA3WP00,7,8
224,1,object_08,object_04,-1.0,-1,-1,-1.0,0.0,-,0,5,3022,0,0,4,desert_1,2,memory-2step-stake-s,718,2985984,0.0-19.0-0.1-0.224,A2HZSG2OHU7O8P,3B623HUYK76FV1575X2NKKQMM9B8SL,3OUYGIZWRBE3M3I68EQGLKBGA3WP00,2,1
225,4,object_07,object_06,722.29999999702,8,1,239.5,0.4444444444444444,2,object_03,5,3042,0,2,4,restaurant_4,2,memory-2step-stake-s,719,2993894,0.0-19.0-0.1-0.225,A2HZSG2OHU7O8P,3B623HUYK76FV1575X2NKKQMM9B8SL,3OUYGIZWRBE3M3I68EQGLKBGA3WP00,8,7
226,2,object_01,object_05,536.79999999702,4,2,53.09999999404,0.3333333333333333,2,object_03,5,3057,0,4,3,forest_7,2,memory-2step-stake-s,720,3001531,0.0-19.0-0.1-0.226,A2HZSG2OHU7O8P,3B623HUYK76FV1575X2NKKQMM9B8SL,3OUYGIZWRBE3M3I68EQGLKBGA3WP00,3,4
227,2,object_01,object_05,484.30000001192,4,2,320.0,0.3333333333333333,2,object_03,5,3072,0,2,3,forest_8,2,memory-2step-stake-s,721,3009451,0.0-19.0-0.1-0.227,A2HZSG2OHU7O8P,3B623HUYK76FV1575X2NKKQMM9B8SL,3OUYGIZWRBE3M3I68EQGLKBGA3WP00,3,4
228,3,object_09,object_02,845.70000000298,6,1,689.0,0.5555555555555556,2,object_03,1,3077,0,4,5,library_8,2,memory-2step-stake-s,722,3017951,0.0-19.0-0.1-0.228,A2HZSG2OHU7O8P,3B623HUYK76FV1575X2NKKQMM9B8SL,3OUYGIZWRBE3M3I68EQGLKBGA3WP00,6,5
229,1,object_04,object_08,613.09999999404,2,2,227.70000000298,0.6666666666666666,2,object_03,5,3107,0,4,6,desert_4,2,memory-2step-stake-s,723,3026067,0.0-19.0-0.1-0.229,A2HZSG2OHU7O8P,3B623HUYK76FV1575X2NKKQMM9B8SL,3OUYGIZWRBE3M3I68EQGLKBGA3WP00,1,2
230,2,object_05,object_01,792.0,4,1,849.09999999404,0.7777777777777778,2,object_03,5,3142,0,7,7,forest_1,2,memory-2step-stake-s,724,3034954,0.0-19.0-0.1-0.230,A2HZSG2OHU7O8P,3B623HUYK76FV1575X2NKKQMM9B8SL,3OUYGIZWRBE3M3I68EQGLKBGA3WP00,4,3
231,3,object_09,object_02,685.10000000894,6,1,742.79999999702,0.8888888888888888,2,object_03,1,3150,0,8,8,library_4,2,memory-2step-stake-s,725,3043835,0.0-19.0-0.1-0.231,A2HZSG2OHU7O8P,3B623HUYK76FV1575X2NKKQMM9B8SL,3OUYGIZWRBE3M3I68EQGLKBGA3WP00,6,5
232,1,object_04,object_08,528.79999999702,2,2,55.20000000298,0.7777777777777778,2,object_03,5,3185,0,6,7,desert_1,2,memory-2step-stake-s,726,3051899,0.0-19.0-0.1-0.232,A2HZSG2OHU7O8P,3B623HUYK76FV1575X2NKKQMM9B8SL,3OUYGIZWRBE3M3I68EQGLKBGA3WP00,1,2
233,2,object_05,object_01,573.09999999404,4,1,-1.0,0.0,2,object_03,1,3185,0,5,6,forest_7,2,memory-2step-stake-s,727,3060488,0.0-19.0-0.1-0.233,A2HZSG2OHU7O8P,3B623HUYK76FV1575X2NKKQMM9B8SL,3OUYGIZWRBE3M3I68EQGLKBGA3WP00,4,3
234,1,object_04,object_08,510.79999999702,2,2,655.0,0.4444444444444444,2,object_03,5,3205,0,3,4,desert_4,2,memory-2step-stake-s,728,3068858,0.0-19.0-0.1-0.234,A2HZSG2OHU7O8P,3B623HUYK76FV1575X2NKKQMM9B8SL,3OUYGIZWRBE3M3I68EQGLKBGA3WP00,1,2
235,1,object_04,object_08,482.20000000298,2,2,674.5,0.5555555555555556,2,object_03,5,3230,0,2,5,desert_1,2,memory-2step-stake-s,729,3077328,0.0-19.0-0.1-0.235,A2HZSG2OHU7O8P,3B623HUYK76FV1575X2NKKQMM9B8SL,3OUYGIZWRBE3M3I68EQGLKBGA3WP00,1,2
236,4,object_07,object_06,754.09999999404,8,1,254.60000000894,0.5555555555555556,2,object_03,5,3255,0,3,5,restaurant_4,2,memory-2step-stake-s,730,3085380,0.0-19.0-0.1-0.236,A2HZSG2OHU7O8P,3B623HUYK76FV1575X2NKKQMM9B8SL,3OUYGIZWRBE3M3I68EQGLKBGA3WP00,8,7
237,1,object_04,object_08,594.0,2,2,266.5,0.6666666666666666,2,object_03,5,3285,0,4,6,desert_1,2,memory-2step-stake-s,731,3093552,0.0-19.0-0.1-0.237,A2HZSG2OHU7O8P,3B623HUYK76FV1575X2NKKQMM9B8SL,3OUYGIZWRBE3M3I68EQGLKBGA3WP00,1,2
238,2,object_01,object_05,561.0,4,2,137.59999999404,0.7777777777777778,2,object_03,5,3320,0,1,7,forest_7,2,memory-2step-stake-s,732,3101693,0.0-19.0-0.1-0.238,A2HZSG2OHU7O8P,3B623HUYK76FV1575X2NKKQMM9B8SL,3OUYGIZWRBE3M3I68EQGLKBGA3WP00,3,4
239,3,object_09,object_02,580.20000000298,6,1,310.79999999702,0.7777777777777778,2,object_03,1,3327,0,3,7,library_2,2,memory-2step-stake-s,733,3110046,0.0-19.0-0.1-0.239,A2HZSG2OHU7O8P,3B623HUYK76FV1575X2NKKQMM9B8SL,3OUYGIZWRBE3M3I68EQGLKBGA3WP00,6,5
240,2,object_05,object_01,562.89999999106,4,1,49.600000008941,0.5555555555555556,2,object_03,5,3352,0,5,5,forest_6,2,memory-2step-stake-s,734,3117938,0.0-19.0-0.1-0.240,A2HZSG2OHU7O8P,3B623HUYK76FV1575X2NKKQMM9B8SL,3OUYGIZWRBE3M3I68EQGLKBGA3WP00,4,3
241,4,object_06,object_07,868.79999999702,7,1,400.70000000298,0.6666666666666666,1,object_10,1,3358,0,6,4,restaurant_5,2,memory-2step-stake-s,735,3126274,0.0-19.0-0.1-0.241,A2HZSG2OHU7O8P,3B623HUYK76FV1575X2NKKQMM9B8SL,3OUYGIZWRBE3M3I68EQGLKBGA3WP00,7,8
242,3,object_09,object_02,903.09999999404,5,2,15.79999999702,0.8888888888888888,1,object_10,1,3366,0,8,3,library_2,2,memory-2step-stake-s,736,3134397,0.0-19.0-0.1-0.242,A2HZSG2OHU7O8P,3B623HUYK76FV1575X2NKKQMM9B8SL,3OUYGIZWRBE3M3I68EQGLKBGA3WP00,6,5
243,3,object_09,object_02,563.59999999404,5,2,224.10000000894,1.0,1,object_10,1,3375,0,9,4,library_4,2,memory-2step-stake-s,737,3142888,0.0-19.0-0.1-0.243,A2HZSG2OHU7O8P,3B623HUYK76FV1575X2NKKQMM9B8SL,3OUYGIZWRBE3M3I68EQGLKBGA3WP00,6,5
244,2,object_05,object_01,649.59999999404,3,2,178.79999999702,0.6666666666666666,1,object_10,5,3405,0,6,4,forest_8,2,memory-2step-stake-s,738,3150991,0.0-19.0-0.1-0.244,A2HZSG2OHU7O8P,3B623HUYK76FV1575X2NKKQMM9B8SL,3OUYGIZWRBE3M3I68EQGLKBGA3WP00,4,3
245,2,object_05,object_01,538.20000000298,3,2,210.30000001192,0.6666666666666666,1,object_10,5,3435,0,6,4,forest_8,2,memory-2step-stake-s,739,3159096,0.0-19.0-0.1-0.245,A2HZSG2OHU7O8P,3B623HUYK76FV1575X2NKKQMM9B8SL,3OUYGIZWRBE3M3I68EQGLKBGA3WP00,4,3
246,4,object_06,object_07,841.89999999106,7,1,269.39999999106,1.0,1,object_10,1,3444,0,9,7,restaurant_2,2,memory-2step-stake-s,740,3167621,0.0-19.0-0.1-0.246,A2HZSG2OHU7O8P,3B623HUYK76FV1575X2NKKQMM9B8SL,3OUYGIZWRBE3M3I68EQGLKBGA3WP00,7,8
247,4,object_06,object_07,832.40000000596,7,1,293.39999999106,0.8888888888888888,1,object_10,5,3484,0,8,9,restaurant_6,2,memory-2step-stake-s,741,3176023,0.0-19.0-0.1-0.247,A2HZSG2OHU7O8P,3B623HUYK76FV1575X2NKKQMM9B8SL,3OUYGIZWRBE3M3I68EQGLKBGA3WP00,7,8
248,3,object_02,object_09,1014.5,5,1,666.0,0.3333333333333333,1,object_10,1,3487,0,3,7,library_2,2,memory-2step-stake-s,742,3184331,0.0-19.0-0.1-0.248,A2HZSG2OHU7O8P,3B623HUYK76FV1575X2NKKQMM9B8SL,3OUYGIZWRBE3M3I68EQGLKBGA3WP00,5,6
249,2,object_05,object_01,576.60000000894,3,2,338.79999999702,0.4444444444444444,1,object_10,5,3507,0,4,8,forest_1,2,memory-2step-stake-s,743,3192358,0.0-19.0-0.1-0.249,A2HZSG2OHU7O8P,3B623HUYK76FV1575X2NKKQMM9B8SL,3OUYGIZWRBE3M3I68EQGLKBGA3WP00,4,3
250,3,object_02,object_09,508.59999999404,5,1,24.800000011921,0.1111111111111111,1,object_10,1,3508,0,1,7,library_4,2,memory-2step-stake-s,744,3199778,0.0-19.0-0.1-0.250,A2HZSG2OHU7O8P,3B623HUYK76FV1575X2NKKQMM9B8SL,3OUYGIZWRBE3M3I68EQGLKBGA3WP00,5,6
251,3,object_09,object_02,532.40000000596,6,1,159.40000000596,0.7777777777777778,2,object_03,1,3515,0,2,7,library_4,2,memory-2step-stake-s,745,3207971,0.0-19.0-0.1-0.251,A2HZSG2OHU7O8P,3B623HUYK76FV1575X2NKKQMM9B8SL,3OUYGIZWRBE3M3I68EQGLKBGA3WP00,6,5
252,4,object_07,object_06,1019.200000003,7,2,329.90000000596,0.4444444444444444,1,object_10,1,3519,0,4,8,restaurant_5,2,memory-2step-stake-s,746,3216005,0.0-19.0-0.1-0.252,A2HZSG2OHU7O8P,3B623HUYK76FV1575X2NKKQMM9B8SL,3OUYGIZWRBE3M3I68EQGLKBGA3WP00,8,7
253,3,object_02,object_09,634.20000000298,6,2,214.70000000298,0.4444444444444444,2,object_03,1,3523,0,4,4,library_8,2,memory-2step-stake-s,747,3223920,0.0-19.0-0.1-0.253,A2HZSG2OHU7O8P,3B623HUYK76FV1575X2NKKQMM9B8SL,3OUYGIZWRBE3M3I68EQGLKBGA3WP00,5,6
254,4,object_07,object_06,864.20000000298,8,1,246.70000000298,0.4444444444444444,2,object_03,1,3527,0,2,4,restaurant_2,2,memory-2step-stake-s,748,3231916,0.0-19.0-0.1-0.254,A2HZSG2OHU7O8P,3B623HUYK76FV1575X2NKKQMM9B8SL,3OUYGIZWRBE3M3I68EQGLKBGA3WP00,8,7
255,1,object_08,object_04,-1.0,-1,-1,-1.0,0.0,-,0,5,3527,0,0,1,desert_1,2,memory-2step-stake-s,749,3238471,0.0-19.0-0.1-0.255,A2HZSG2OHU7O8P,3B623HUYK76FV1575X2NKKQMM9B8SL,3OUYGIZWRBE3M3I68EQGLKBGA3WP00,2,1
