,state1,stim_left,stim_right,rt_1,choice1,response1,rt_2,points,state2,stim_state2,stake,score,practice,rews1,rews2,background,high_arm,trial_type,trial_index,time_elapsed,internal_node_id,subid,hitid,assignmentid,stim_left_num,stim_right_num
0,3,object_02,object_01,-1.0,-1,-1,-1.0,0.0,-,0,1,0,0,7,1,library_2,2,memory-2step-stake-s,506,1125741,0.0-19.0-0.0-0.0,A24BN4WKUH4LR2,306996CF7Z0Y3F4KVQ7DFLTE4FJB13,3S96KQ6I9QKVDFC717NV51WWTVMDTI,6,5
1,1,object_04,object_03,-1.0,-1,-1,-1.0,0.0,-,0,1,0,0,7,2,desert_2,2,memory-2step-stake-s,507,1132300,0.0-19.0-0.0-0.1,A24BN4WKUH4LR2,306996CF7Z0Y3F4KVQ7DFLTE4FJB13,3S96KQ6I9QKVDFC717NV51WWTVMDTI,1,2
2,3,object_02,object_01,300.79999923706,6,1,997.60000038147,0.5555555555555556,2,object_08,1,5,0,8,5,library_2,2,memory-2step-stake-s,508,1141103,0.0-19.0-0.0-0.2,A24BN4WKUH4LR2,306996CF7Z0Y3F4KVQ7DFLTE4FJB13,3S96KQ6I9QKVDFC717NV51WWTVMDTI,6,5
3,4,object_05,object_10,545.79999923706,7,2,483.70000076294,0.7777777777777778,1,object_09,1,12,0,7,4,restaurant_6,2,memory-2step-stake-s,509,1149606,0.0-19.0-0.0-0.3,A24BN4WKUH4LR2,306996CF7Z0Y3F4KVQ7DFLTE4FJB13,3S96KQ6I9QKVDFC717NV51WWTVMDTI,8,7
4,4,object_10,object_05,740.69999885559,8,2,806.70000076294,0.3333333333333333,2,object_08,1,15,0,8,3,restaurant_8,2,memory-2step-stake-s,510,1158018,0.0-19.0-0.0-0.4,A24BN4WKUH4LR2,306996CF7Z0Y3F4KVQ7DFLTE4FJB13,3S96KQ6I9QKVDFC717NV51WWTVMDTI,7,8
5,2,object_07,object_06,1199.7000007629,3,1,388.60000038147,0.5555555555555556,1,object_09,5,40,0,5,3,forest_7,2,memory-2step-stake-s,511,1166229,0.0-19.0-0.0-0.5,A24BN4WKUH4LR2,306996CF7Z0Y3F4KVQ7DFLTE4FJB13,3S96KQ6I9QKVDFC717NV51WWTVMDTI,3,4
6,1,object_04,object_03,800.60000038147,1,1,545.69999885559,0.6666666666666666,1,object_09,5,70,0,6,2,desert_4,2,memory-2step-stake-s,512,1174718,0.0-19.0-0.0-0.6,A24BN4WKUH4LR2,306996CF7Z0Y3F4KVQ7DFLTE4FJB13,3S96KQ6I9QKVDFC717NV51WWTVMDTI,1,2
7,3,object_01,object_02,526.20000076294,6,2,754.19999885559,0.4444444444444444,2,object_08,1,74,0,4,4,library_7,2,memory-2step-stake-s,513,1183170,0.0-19.0-0.0-0.7,A24BN4WKUH4LR2,306996CF7Z0Y3F4KVQ7DFLTE4FJB13,3S96KQ6I9QKVDFC717NV51WWTVMDTI,5,6
8,3,object_01,object_02,729.60000038147,6,2,600.10000038147,0.7777777777777778,2,object_08,5,109,0,5,7,library_8,2,memory-2step-stake-s,514,1191781,0.0-19.0-0.0-0.8,A24BN4WKUH4LR2,306996CF7Z0Y3F4KVQ7DFLTE4FJB13,3S96KQ6I9QKVDFC717NV51WWTVMDTI,5,6
9,4,object_10,object_05,335.80000114441,7,1,841.39999961853,0.3333333333333333,1,object_09,1,112,0,3,7,restaurant_6,2,memory-2step-stake-s,515,1200223,0.0-19.0-0.0-0.9,A24BN4WKUH4LR2,306996CF7Z0Y3F4KVQ7DFLTE4FJB13,3S96KQ6I9QKVDFC717NV51WWTVMDTI,7,8
10,1,object_03,object_04,942.39999961853,1,2,574.89999961853,0.2222222222222222,1,object_09,5,122,0,2,6,desert_2,2,memory-2step-stake-s,516,1208315,0.0-19.0-0.0-0.10,A24BN4WKUH4LR2,306996CF7Z0Y3F4KVQ7DFLTE4FJB13,3S96KQ6I9QKVDFC717NV51WWTVMDTI,2,1
11,2,object_07,object_06,1043.2999992371,3,1,748.89999961853,0.4444444444444444,1,object_09,5,142,0,4,7,forest_3,2,memory-2step-stake-s,517,1216775,0.0-19.0-0.0-0.11,A24BN4WKUH4LR2,306996CF7Z0Y3F4KVQ7DFLTE4FJB13,3S96KQ6I9QKVDFC717NV51WWTVMDTI,3,4
12,3,object_01,object_02,757.10000038147,6,2,502.90000152588,0.6666666666666666,2,object_08,5,172,0,7,6,library_7,2,memory-2step-stake-s,518,1225200,0.0-19.0-0.0-0.12,A24BN4WKUH4LR2,306996CF7Z0Y3F4KVQ7DFLTE4FJB13,3S96KQ6I9QKVDFC717NV51WWTVMDTI,5,6
13,4,object_10,object_05,743.10000038147,8,2,567.80000114441,0.2222222222222222,2,object_08,1,174,0,5,2,restaurant_6,2,memory-2step-stake-s,519,1233245,0.0-19.0-0.0-0.13,A24BN4WKUH4LR2,306996CF7Z0Y3F4KVQ7DFLTE4FJB13,3S96KQ6I9QKVDFC717NV51WWTVMDTI,7,8
14,2,object_06,object_07,657.39999961853,4,1,831.29999923706,0.1111111111111111,2,object_08,5,179,0,6,1,forest_7,2,memory-2step-stake-s,520,1241469,0.0-19.0-0.0-0.14,A24BN4WKUH4LR2,306996CF7Z0Y3F4KVQ7DFLTE4FJB13,3S96KQ6I9QKVDFC717NV51WWTVMDTI,4,3
15,1,object_04,object_03,655.0,2,2,464.30000114441,0.1111111111111111,2,object_08,5,184,0,3,1,desert_5,2,memory-2step-stake-s,521,1249322,0.0-19.0-0.0-0.15,A24BN4WKUH4LR2,306996CF7Z0Y3F4KVQ7DFLTE4FJB13,3S96KQ6I9QKVDFC717NV51WWTVMDTI,1,2
16,4,object_05,object_10,523.60000038147,8,1,386.89999961853,0.2222222222222222,2,object_08,5,194,0,6,2,restaurant_6,2,memory-2step-stake-s,522,1257221,0.0-19.0-0.0-0.16,A24BN4WKUH4LR2,306996CF7Z0Y3F4KVQ7DFLTE4FJB13,3S96KQ6I9QKVDFC717NV51WWTVMDTI,8,7
17,1,object_04,object_03,683.19999885559,2,2,889.79999923706,0.2222222222222222,2,object_08,5,204,0,8,2,desert_5,2,memory-2step-stake-s,523,1265606,0.0-19.0-0.0-0.17,A24BN4WKUH4LR2,306996CF7Z0Y3F4KVQ7DFLTE4FJB13,3S96KQ6I9QKVDFC717NV51WWTVMDTI,1,2
18,2,object_06,object_07,-1.0,-1,-1,-1.0,0.0,-,0,5,204,0,7,3,forest_4,2,memory-2step-stake-s,524,1272156,0.0-19.0-0.0-0.18,A24BN4WKUH4LR2,306996CF7Z0Y3F4KVQ7DFLTE4FJB13,3S96KQ6I9QKVDFC717NV51WWTVMDTI,4,3
19,3,object_01,object_02,349.10000038147,5,1,346.30000114441,0.3333333333333333,1,object_09,1,207,0,3,2,library_2,2,memory-2step-stake-s,525,1280129,0.0-19.0-0.0-0.19,A24BN4WKUH4LR2,306996CF7Z0Y3F4KVQ7DFLTE4FJB13,3S96KQ6I9QKVDFC717NV51WWTVMDTI,5,6
20,2,object_07,object_06,367.0,4,2,807.09999847412,0.3333333333333333,2,object_08,5,222,0,3,3,forest_1,2,memory-2step-stake-s,526,1288520,0.0-19.0-0.0-0.20,A24BN4WKUH4LR2,306996CF7Z0Y3F4KVQ7DFLTE4FJB13,3S96KQ6I9QKVDFC717NV51WWTVMDTI,3,4
21,1,object_03,object_04,650.80000114441,2,1,431.39999961853,0.2222222222222222,2,object_08,5,232,0,6,2,desert_4,2,memory-2step-stake-s,527,1296434,0.0-19.0-0.0-0.21,A24BN4WKUH4LR2,306996CF7Z0Y3F4KVQ7DFLTE4FJB13,3S96KQ6I9QKVDFC717NV51WWTVMDTI,2,1
22,3,object_01,object_02,362.79999923706,6,2,646.70000076294,0.1111111111111111,2,object_08,5,237,0,7,1,library_8,2,memory-2step-stake-s,528,1304454,0.0-19.0-0.0-0.22,A24BN4WKUH4LR2,306996CF7Z0Y3F4KVQ7DFLTE4FJB13,3S96KQ6I9QKVDFC717NV51WWTVMDTI,5,6
23,2,object_07,object_06,522.39999961853,3,1,696.19999885559,1.0,1,object_09,1,246,0,9,0,forest_4,2,memory-2step-stake-s,529,1313387,0.0-19.0-0.0-0.23,A24BN4WKUH4LR2,306996CF7Z0Y3F4KVQ7DFLTE4FJB13,3S96KQ6I9QKVDFC717NV51WWTVMDTI,3,4
24,4,object_05,object_10,636.60000038147,7,2,504.29999923706,0.6666666666666666,1,object_09,1,252,0,6,1,restaurant_7,2,memory-2step-stake-s,530,1321838,0.0-19.0-0.0-0.24,A24BN4WKUH4LR2,306996CF7Z0Y3F4KVQ7DFLTE4FJB13,3S96KQ6I9QKVDFC717NV51WWTVMDTI,8,7
25,3,object_01,object_02,679.0,6,2,794.0,0.3333333333333333,2,object_08,1,255,0,4,3,library_6,2,memory-2step-stake-s,531,1330261,0.0-19.0-0.0-0.25,A24BN4WKUH4LR2,306996CF7Z0Y3F4KVQ7DFLTE4FJB13,3S96KQ6I9QKVDFC717NV51WWTVMDTI,5,6
26,4,object_10,object_05,439.90000152588,7,1,633.80000114441,0.7777777777777778,1,object_09,1,262,0,7,0,restaurant_7,2,memory-2step-stake-s,532,1338930,0.0-19.0-0.0-0.26,A24BN4WKUH4LR2,306996CF7Z0Y3F4KVQ7DFLTE4FJB13,3S96KQ6I9QKVDFC717NV51WWTVMDTI,7,8
27,4,object_05,object_10,449.19999885559,7,2,703.70000076294,0.4444444444444444,1,object_09,5,282,0,4,3,restaurant_6,2,memory-2step-stake-s,533,1347345,0.0-19.0-0.0-0.27,A24BN4WKUH4LR2,306996CF7Z0Y3F4KVQ7DFLTE4FJB13,3S96KQ6I9QKVDFC717NV51WWTVMDTI,8,7
28,2,object_07,object_06,569.10000038147,3,1,551.29999923706,0.8888888888888888,1,object_09,5,322,0,8,1,forest_7,2,memory-2step-stake-s,534,1356086,0.0-19.0-0.0-0.28,A24BN4WKUH4LR2,306996CF7Z0Y3F4KVQ7DFLTE4FJB13,3S96KQ6I9QKVDFC717NV51WWTVMDTI,3,4
29,3,object_02,object_01,688.89999961853,6,1,768.5,0.2222222222222222,2,object_08,1,324,0,6,2,library_7,2,memory-2step-stake-s,535,1364315,0.0-19.0-0.0-0.29,A24BN4WKUH4LR2,306996CF7Z0Y3F4KVQ7DFLTE4FJB13,3S96KQ6I9QKVDFC717NV51WWTVMDTI,6,5
30,2,object_07,object_06,486.39999961853,4,2,454.89999961853,0.4444444444444444,2,object_08,5,344,0,5,4,forest_3,2,memory-2step-stake-s,536,1372500,0.0-19.0-0.0-0.30,A24BN4WKUH4LR2,306996CF7Z0Y3F4KVQ7DFLTE4FJB13,3S96KQ6I9QKVDFC717NV51WWTVMDTI,3,4
31,1,object_03,object_04,1039.0,1,2,430.0,0.8888888888888888,1,object_09,5,384,0,8,6,desert_4,2,memory-2step-stake-s,537,1381070,0.0-19.0-0.0-0.31,A24BN4WKUH4LR2,306996CF7Z0Y3F4KVQ7DFLTE4FJB13,3S96KQ6I9QKVDFC717NV51WWTVMDTI,2,1
32,3,object_02,object_01,814.0,6,1,644.0,0.6666666666666666,2,object_08,5,414,0,6,6,library_8,2,memory-2step-stake-s,538,1389631,0.0-19.0-0.0-0.32,A24BN4WKUH4LR2,306996CF7Z0Y3F4KVQ7DFLTE4FJB13,3S96KQ6I9QKVDFC717NV51WWTVMDTI,6,5
33,1,object_04,object_03,1238.0,2,2,745.29999923706,0.5555555555555556,2,object_08,5,439,0,7,5,desert_6,2,memory-2step-stake-s,539,1398195,0.0-19.0-0.0-0.33,A24BN4WKUH4LR2,306996CF7Z0Y3F4KVQ7DFLTE4FJB13,3S96KQ6I9QKVDFC717NV51WWTVMDTI,1,2
34,3,object_02,object_01,862.0,6,1,651.5,0.5555555555555556,2,object_08,1,444,0,5,5,library_7,2,memory-2step-stake-s,540,1406692,0.0-19.0-0.0-0.34,A24BN4WKUH4LR2,306996CF7Z0Y3F4KVQ7DFLTE4FJB13,3S96KQ6I9QKVDFC717NV51WWTVMDTI,6,5
35,2,object_06,object_07,658.19999885559,4,1,386.39999961853,0.3333333333333333,2,object_08,5,459,0,5,3,forest_3,2,memory-2step-stake-s,541,1414698,0.0-19.0-0.0-0.35,A24BN4WKUH4LR2,306996CF7Z0Y3F4KVQ7DFLTE4FJB13,3S96KQ6I9QKVDFC717NV51WWTVMDTI,4,3
36,4,object_10,object_05,631.19999885559,8,2,516.60000038147,0.2222222222222222,2,object_08,5,469,0,8,2,restaurant_7,2,memory-2step-stake-s,542,1422699,0.0-19.0-0.0-0.36,A24BN4WKUH4LR2,306996CF7Z0Y3F4KVQ7DFLTE4FJB13,3S96KQ6I9QKVDFC717NV51WWTVMDTI,7,8
37,3,object_01,object_02,463.0,5,1,434.10000038147,0.7777777777777778,1,object_09,5,504,0,7,3,library_6,2,memory-2step-stake-s,543,1431194,0.0-19.0-0.0-0.37,A24BN4WKUH4LR2,306996CF7Z0Y3F4KVQ7DFLTE4FJB13,3S96KQ6I9QKVDFC717NV51WWTVMDTI,5,6
38,2,object_07,object_06,838.70000076294,4,2,530.19999885559,0.4444444444444444,2,object_08,5,524,0,8,4,forest_4,2,memory-2step-stake-s,544,1439467,0.0-19.0-0.0-0.38,A24BN4WKUH4LR2,306996CF7Z0Y3F4KVQ7DFLTE4FJB13,3S96KQ6I9QKVDFC717NV51WWTVMDTI,3,4
39,3,object_01,object_02,854.60000038147,5,1,856.5,0.7777777777777778,1,object_09,1,531,0,7,3,library_7,2,memory-2step-stake-s,545,1448346,0.0-19.0-0.0-0.39,A24BN4WKUH4LR2,306996CF7Z0Y3F4KVQ7DFLTE4FJB13,3S96KQ6I9QKVDFC717NV51WWTVMDTI,5,6
40,2,object_07,object_06,406.5,3,1,550.79999923706,0.8888888888888888,1,object_09,1,539,0,8,0,forest_4,2,memory-2step-stake-s,546,1457028,0.0-19.0-0.0-0.40,A24BN4WKUH4LR2,306996CF7Z0Y3F4KVQ7DFLTE4FJB13,3S96KQ6I9QKVDFC717NV51WWTVMDTI,3,4
41,4,object_10,object_05,607.39999961853,8,2,855.40000152588,0.1111111111111111,2,object_08,1,540,0,8,1,restaurant_8,2,memory-2step-stake-s,547,1465280,0.0-19.0-0.0-0.41,A24BN4WKUH4LR2,306996CF7Z0Y3F4KVQ7DFLTE4FJB13,3S96KQ6I9QKVDFC717NV51WWTVMDTI,7,8
42,4,object_05,object_10,441.0,7,2,375.80000114441,0.8888888888888888,1,object_09,1,548,0,8,1,restaurant_7,2,memory-2step-stake-s,548,1473789,0.0-19.0-0.0-0.42,A24BN4WKUH4LR2,306996CF7Z0Y3F4KVQ7DFLTE4FJB13,3S96KQ6I9QKVDFC717NV51WWTVMDTI,8,7
43,2,object_07,object_06,1059.7999992371,3,1,514.70000076294,0.8888888888888888,1,object_09,5,588,0,8,2,forest_7,2,memory-2step-stake-s,549,1482455,0.0-19.0-0.0-0.43,A24BN4WKUH4LR2,306996CF7Z0Y3F4KVQ7DFLTE4FJB13,3S96KQ6I9QKVDFC717NV51WWTVMDTI,3,4
44,2,object_06,object_07,543.19999885559,4,1,375.70000076294,0.3333333333333333,2,object_08,5,603,0,7,3,forest_4,2,memory-2step-stake-s,550,1490447,0.0-19.0-0.0-0.44,A24BN4WKUH4LR2,306996CF7Z0Y3F4KVQ7DFLTE4FJB13,3S96KQ6I9QKVDFC717NV51WWTVMDTI,4,3
45,1,object_03,object_04,496.09999847412,1,2,383.69999885559,0.6666666666666666,1,object_09,5,633,0,6,5,desert_5,2,memory-2step-stake-s,551,1498739,0.0-19.0-0.0-0.45,A24BN4WKUH4LR2,306996CF7Z0Y3F4KVQ7DFLTE4FJB13,3S96KQ6I9QKVDFC717NV51WWTVMDTI,2,1
46,2,object_06,object_07,717.89999961853,4,1,518.40000152588,0.6666666666666666,2,object_08,5,663,0,6,6,forest_7,2,memory-2step-stake-s,552,1507183,0.0-19.0-0.0-0.46,A24BN4WKUH4LR2,306996CF7Z0Y3F4KVQ7DFLTE4FJB13,3S96KQ6I9QKVDFC717NV51WWTVMDTI,4,3
47,1,object_03,object_04,680.10000038147,1,2,366.39999961853,0.5555555555555556,1,object_09,5,688,0,5,2,desert_5,2,memory-2step-stake-s,553,1515404,0.0-19.0-0.0-0.47,A24BN4WKUH4LR2,306996CF7Z0Y3F4KVQ7DFLTE4FJB13,3S96KQ6I9QKVDFC717NV51WWTVMDTI,2,1
48,1,object_04,object_03,1243.0,1,1,315.0,0.7777777777777778,1,object_09,5,723,0,7,4,desert_4,2,memory-2step-stake-s,554,1523767,0.0-19.0-0.0-0.48,A24BN4WKUH4LR2,306996CF7Z0Y3F4KVQ7DFLTE4FJB13,3S96KQ6I9QKVDFC717NV51WWTVMDTI,1,2
49,3,object_01,object_02,402.20000076294,6,2,430.39999961853,0.1111111111111111,2,object_08,1,724,0,9,1,library_2,2,memory-2step-stake-s,555,1531591,0.0-19.0-0.0-0.49,A24BN4WKUH4LR2,306996CF7Z0Y3F4KVQ7DFLTE4FJB13,3S96KQ6I9QKVDFC717NV51WWTVMDTI,5,6
50,3,object_01,object_02,403.89999961853,5,1,427.69999885559,0.6666666666666666,1,object_09,1,730,0,6,2,library_6,2,memory-2step-stake-s,556,1539950,0.0-19.0-0.0-0.50,A24BN4WKUH4LR2,306996CF7Z0Y3F4KVQ7DFLTE4FJB13,3S96KQ6I9QKVDFC717NV51WWTVMDTI,5,6
51,2,object_07,object_06,-1.0,-1,-1,-1.0,0.0,-,0,5,730,0,6,4,forest_3,2,memory-2step-stake-s,557,1546494,0.0-19.0-0.0-0.51,A24BN4WKUH4LR2,306996CF7Z0Y3F4KVQ7DFLTE4FJB13,3S96KQ6I9QKVDFC717NV51WWTVMDTI,3,4
52,1,object_04,object_03,480.10000038147,2,2,772.89999961853,0.3333333333333333,2,object_08,5,745,0,4,3,desert_5,2,memory-2step-stake-s,558,1554892,0.0-19.0-0.0-0.52,A24BN4WKUH4LR2,306996CF7Z0Y3F4KVQ7DFLTE4FJB13,3S96KQ6I9QKVDFC717NV51WWTVMDTI,1,2
53,4,object_05,object_10,373.10000038147,8,1,646.10000038147,0.4444444444444444,2,object_08,5,765,0,2,4,restaurant_5,2,memory-2step-stake-s,559,1563275,0.0-19.0-0.0-0.53,A24BN4WKUH4LR2,306996CF7Z0Y3F4KVQ7DFLTE4FJB13,3S96KQ6I9QKVDFC717NV51WWTVMDTI,8,7
54,1,object_04,object_03,695.79999923706,2,2,861.60000038147,0.6666666666666666,2,object_08,5,795,0,3,6,desert_5,2,memory-2step-stake-s,560,1572057,0.0-19.0-0.0-0.54,A24BN4WKUH4LR2,306996CF7Z0Y3F4KVQ7DFLTE4FJB13,3S96KQ6I9QKVDFC717NV51WWTVMDTI,1,2
55,1,object_04,object_03,423.60000038147,1,1,480.89999961853,0.2222222222222222,1,object_09,5,805,0,2,7,desert_5,2,memory-2step-stake-s,561,1580043,0.0-19.0-0.0-0.55,A24BN4WKUH4LR2,306996CF7Z0Y3F4KVQ7DFLTE4FJB13,3S96KQ6I9QKVDFC717NV51WWTVMDTI,1,2
56,3,object_02,object_01,-1.0,-1,-1,-1.0,0.0,-,0,1,805,0,2,7,library_7,2,memory-2step-stake-s,562,1586609,0.0-19.0-0.0-0.56,A24BN4WKUH4LR2,306996CF7Z0Y3F4KVQ7DFLTE4FJB13,3S96KQ6I9QKVDFC717NV51WWTVMDTI,6,5
57,1,object_04,object_03,335.60000038147,2,2,319.70000076294,0.7777777777777778,2,object_08,5,840,0,6,7,desert_5,2,memory-2step-stake-s,563,1594968,0.0-19.0-0.0-0.57,A24BN4WKUH4LR2,306996CF7Z0Y3F4KVQ7DFLTE4FJB13,3S96KQ6I9QKVDFC717NV51WWTVMDTI,1,2
58,4,object_10,object_05,493.5,8,2,454.69999885559,0.6666666666666666,2,object_08,1,846,0,3,6,restaurant_5,2,memory-2step-stake-s,564,1603337,0.0-19.0-0.0-0.58,A24BN4WKUH4LR2,306996CF7Z0Y3F4KVQ7DFLTE4FJB13,3S96KQ6I9QKVDFC717NV51WWTVMDTI,7,8
59,4,object_05,object_10,520.30000114441,8,1,316.89999961853,0.6666666666666666,2,object_08,1,852,0,5,6,restaurant_6,2,memory-2step-stake-s,565,1611614,0.0-19.0-0.0-0.59,A24BN4WKUH4LR2,306996CF7Z0Y3F4KVQ7DFLTE4FJB13,3S96KQ6I9QKVDFC717NV51WWTVMDTI,8,7
60,3,object_02,object_01,967.10000038147,6,1,385.0,0.3333333333333333,2,object_08,1,855,0,5,3,library_7,2,memory-2step-stake-s,566,1619634,0.0-19.0-0.0-0.60,A24BN4WKUH4LR2,306996CF7Z0Y3F4KVQ7DFLTE4FJB13,3S96KQ6I9QKVDFC717NV51WWTVMDTI,6,5
61,4,object_10,object_05,463.5,8,2,427.10000038147,0.3333333333333333,2,object_08,1,858,0,4,3,restaurant_7,2,memory-2step-stake-s,567,1627652,0.0-19.0-0.0-0.61,A24BN4WKUH4LR2,306996CF7Z0Y3F4KVQ7DFLTE4FJB13,3S96KQ6I9QKVDFC717NV51WWTVMDTI,7,8
62,3,object_02,object_01,583.20000076294,6,1,920.39999961853,0.3333333333333333,2,object_08,1,861,0,4,3,library_8,2,memory-2step-stake-s,568,1636171,0.0-19.0-0.0-0.62,A24BN4WKUH4LR2,306996CF7Z0Y3F4KVQ7DFLTE4FJB13,3S96KQ6I9QKVDFC717NV51WWTVMDTI,6,5
63,1,object_03,object_04,696.30000114441,2,1,598.89999961853,0.3333333333333333,2,object_08,1,864,0,5,3,desert_4,2,memory-2step-stake-s,569,1644405,0.0-19.0-0.0-0.63,A24BN4WKUH4LR2,306996CF7Z0Y3F4KVQ7DFLTE4FJB13,3S96KQ6I9QKVDFC717NV51WWTVMDTI,2,1
64,1,object_03,object_04,642.5,1,2,382.60000038147,0.4444444444444444,1,object_09,5,884,0,4,0,desert_2,2,memory-2step-stake-s,570,1652490,0.0-19.0-0.0-0.64,A24BN4WKUH4LR2,306996CF7Z0Y3F4KVQ7DFLTE4FJB13,3S96KQ6I9QKVDFC717NV51WWTVMDTI,2,1
65,4,object_05,object_10,400.29999923706,8,1,399.80000114441,0.1111111111111111,2,object_08,1,885,0,5,1,restaurant_6,2,memory-2step-stake-s,571,1660278,0.0-19.0-0.0-0.65,A24BN4WKUH4LR2,306996CF7Z0Y3F4KVQ7DFLTE4FJB13,3S96KQ6I9QKVDFC717NV51WWTVMDTI,8,7
66,4,object_10,object_05,336.80000114441,8,2,622.79999923706,0.0,2,object_08,1,885,0,2,0,restaurant_7,2,memory-2step-stake-s,572,1668183,0.0-19.0-0.0-0.66,A24BN4WKUH4LR2,306996CF7Z0Y3F4KVQ7DFLTE4FJB13,3S96KQ6I9QKVDFC717NV51WWTVMDTI,7,8
67,2,object_06,object_07,607.5,4,1,614.40000152588,0.0,2,object_08,5,885,0,0,0,forest_3,2,memory-2step-stake-s,573,1676081,0.0-19.0-0.0-0.67,A24BN4WKUH4LR2,306996CF7Z0Y3F4KVQ7DFLTE4FJB13,3S96KQ6I9QKVDFC717NV51WWTVMDTI,4,3
68,3,object_02,object_01,450.20000076294,5,2,441.10000038147,0.1111111111111111,1,object_09,1,886,0,1,1,library_6,2,memory-2step-stake-s,574,1683883,0.0-19.0-0.0-0.68,A24BN4WKUH4LR2,306996CF7Z0Y3F4KVQ7DFLTE4FJB13,3S96KQ6I9QKVDFC717NV51WWTVMDTI,6,5
69,3,object_01,object_02,489.20000076294,5,1,557.89999961853,0.2222222222222222,1,object_09,1,888,0,2,3,library_6,2,memory-2step-stake-s,575,1691912,0.0-19.0-0.0-0.69,A24BN4WKUH4LR2,306996CF7Z0Y3F4KVQ7DFLTE4FJB13,3S96KQ6I9QKVDFC717NV51WWTVMDTI,5,6
70,2,object_06,object_07,742.70000076294,4,1,741.10000038147,0.4444444444444444,2,object_08,5,908,0,0,4,forest_1,2,memory-2step-stake-s,576,1700358,0.0-19.0-0.0-0.70,A24BN4WKUH4LR2,306996CF7Z0Y3F4KVQ7DFLTE4FJB13,3S96KQ6I9QKVDFC717NV51WWTVMDTI,4,3
71,2,object_07,object_06,278.79999923706,4,2,376.69999885559,0.1111111111111111,2,object_08,5,913,0,3,1,forest_7,2,memory-2step-stake-s,577,1708120,0.0-19.0-0.0-0.71,A24BN4WKUH4LR2,306996CF7Z0Y3F4KVQ7DFLTE4FJB13,3S96KQ6I9QKVDFC717NV51WWTVMDTI,3,4
72,3,object_01,object_02,-1.0,-1,-1,-1.0,0.0,-,0,1,913,0,3,2,library_7,2,memory-2step-stake-s,578,1714652,0.0-19.0-0.0-0.72,A24BN4WKUH4LR2,306996CF7Z0Y3F4KVQ7DFLTE4FJB13,3S96KQ6I9QKVDFC717NV51WWTVMDTI,5,6
73,1,object_03,object_04,786.90000152588,2,1,-1.0,0.0,2,object_08,1,913,0,7,0,desert_5,2,memory-2step-stake-s,579,1723200,0.0-19.0-0.0-0.73,A24BN4WKUH4LR2,306996CF7Z0Y3F4KVQ7DFLTE4FJB13,3S96KQ6I9QKVDFC717NV51WWTVMDTI,2,1
74,2,object_06,object_07,1046.4000015259,3,2,672.0,0.8888888888888888,1,object_09,5,953,0,8,1,forest_1,2,memory-2step-stake-s,580,1732036,0.0-19.0-0.0-0.74,A24BN4WKUH4LR2,306996CF7Z0Y3F4KVQ7DFLTE4FJB13,3S96KQ6I9QKVDFC717NV51WWTVMDTI,4,3
75,2,object_06,object_07,463.60000038147,4,1,844.30000114441,0.1111111111111111,2,object_08,5,958,0,8,1,forest_4,2,memory-2step-stake-s,581,1740281,0.0-19.0-0.0-0.75,A24BN4WKUH4LR2,306996CF7Z0Y3F4KVQ7DFLTE4FJB13,3S96KQ6I9QKVDFC717NV51WWTVMDTI,4,3
76,2,object_07,object_06,458.09999847412,4,2,513.29999923706,0.3333333333333333,2,object_08,5,973,0,6,3,forest_1,2,memory-2step-stake-s,582,1748409,0.0-19.0-0.0-0.76,A24BN4WKUH4LR2,306996CF7Z0Y3F4KVQ7DFLTE4FJB13,3S96KQ6I9QKVDFC717NV51WWTVMDTI,3,4
77,4,object_05,object_10,328.5,8,1,1084.8000011444,0.5555555555555556,2,object_08,1,978,0,6,5,restaurant_5,2,memory-2step-stake-s,583,1757294,0.0-19.0-0.0-0.77,A24BN4WKUH4LR2,306996CF7Z0Y3F4KVQ7DFLTE4FJB13,3S96KQ6I9QKVDFC717NV51WWTVMDTI,8,7
78,1,object_03,object_04,449.69999885559,1,2,292.39999961853,0.7777777777777778,1,object_09,5,1013,0,7,7,desert_6,2,memory-2step-stake-s,584,1765625,0.0-19.0-0.0-0.78,A24BN4WKUH4LR2,306996CF7Z0Y3F4KVQ7DFLTE4FJB13,3S96KQ6I9QKVDFC717NV51WWTVMDTI,2,1
79,4,object_10,object_05,565.89999961853,8,2,405.89999961853,0.3333333333333333,2,object_08,1,1016,0,8,3,restaurant_8,2,memory-2step-stake-s,585,1773608,0.0-19.0-0.0-0.79,A24BN4WKUH4LR2,306996CF7Z0Y3F4KVQ7DFLTE4FJB13,3S96KQ6I9QKVDFC717NV51WWTVMDTI,7,8
80,3,object_01,object_02,379.29999923706,5,1,368.0,0.4444444444444444,1,object_09,1,1020,0,4,3,library_2,2,memory-2step-stake-s,586,1781695,0.0-19.0-0.0-0.80,A24BN4WKUH4LR2,306996CF7Z0Y3F4KVQ7DFLTE4FJB13,3S96KQ6I9QKVDFC717NV51WWTVMDTI,5,6
81,2,object_06,object_07,401.10000038147,3,2,581.10000038147,0.6666666666666666,1,object_09,5,1050,0,6,2,forest_3,2,memory-2step-stake-s,587,1790169,0.0-19.0-0.0-0.81,A24BN4WKUH4LR2,306996CF7Z0Y3F4KVQ7DFLTE4FJB13,3S96KQ6I9QKVDFC717NV51WWTVMDTI,4,3
82,1,object_03,object_04,-1.0,-1,-1,-1.0,0.0,-,0,5,1050,0,6,2,desert_6,2,memory-2step-stake-s,588,1796726,0.0-19.0-0.0-0.82,A24BN4WKUH4LR2,306996CF7Z0Y3F4KVQ7DFLTE4FJB13,3S96KQ6I9QKVDFC717NV51WWTVMDTI,2,1
83,4,object_10,object_05,310.10000038147,7,1,444.90000152588,0.8888888888888888,1,object_09,1,1058,0,8,2,restaurant_7,2,memory-2step-stake-s,589,1805328,0.0-19.0-0.0-0.83,A24BN4WKUH4LR2,306996CF7Z0Y3F4KVQ7DFLTE4FJB13,3S96KQ6I9QKVDFC717NV51WWTVMDTI,7,8
84,1,object_03,object_04,421.5,2,1,685.70000076294,0.5555555555555556,2,object_08,5,1083,0,9,5,desert_2,2,memory-2step-stake-s,590,1813817,0.0-19.0-0.0-0.84,A24BN4WKUH4LR2,306996CF7Z0Y3F4KVQ7DFLTE4FJB13,3S96KQ6I9QKVDFC717NV51WWTVMDTI,2,1
85,2,object_06,object_07,1262.4000015259,3,2,535.79999923706,0.8888888888888888,1,object_09,5,1123,0,8,4,forest_3,2,memory-2step-stake-s,591,1822471,0.0-19.0-0.0-0.85,A24BN4WKUH4LR2,306996CF7Z0Y3F4KVQ7DFLTE4FJB13,3S96KQ6I9QKVDFC717NV51WWTVMDTI,4,3
86,1,object_04,object_03,784.5,1,1,426.20000076294,1.0,1,object_09,5,1168,0,9,5,desert_4,2,memory-2step-stake-s,592,1831168,0.0-19.0-0.0-0.86,A24BN4WKUH4LR2,306996CF7Z0Y3F4KVQ7DFLTE4FJB13,3S96KQ6I9QKVDFC717NV51WWTVMDTI,1,2
87,1,object_03,object_04,555.79999923706,1,2,442.69999885559,0.6666666666666666,1,object_09,1,1174,0,6,6,desert_6,2,memory-2step-stake-s,593,1839526,0.0-19.0-0.0-0.87,A24BN4WKUH4LR2,306996CF7Z0Y3F4KVQ7DFLTE4FJB13,3S96KQ6I9QKVDFC717NV51WWTVMDTI,2,1
88,4,object_05,object_10,351.09999847412,8,1,375.89999961853,0.5555555555555556,2,object_08,5,1199,0,3,5,restaurant_6,2,memory-2step-stake-s,594,1847679,0.0-19.0-0.0-0.88,A24BN4WKUH4LR2,306996CF7Z0Y3F4KVQ7DFLTE4FJB13,3S96KQ6I9QKVDFC717NV51WWTVMDTI,8,7
89,1,object_03,object_04,418.5,1,2,715.89999961853,0.4444444444444444,1,object_09,1,1203,0,4,7,desert_2,2,memory-2step-stake-s,595,1856084,0.0-19.0-0.0-0.89,A24BN4WKUH4LR2,306996CF7Z0Y3F4KVQ7DFLTE4FJB13,3S96KQ6I9QKVDFC717NV51WWTVMDTI,2,1
90,3,object_02,object_01,370.40000152588,6,1,698.89999961853,0.7777777777777778,2,object_08,1,1210,0,4,7,library_6,2,memory-2step-stake-s,596,1864816,0.0-19.0-0.0-0.90,A24BN4WKUH4LR2,306996CF7Z0Y3F4KVQ7DFLTE4FJB13,3S96KQ6I9QKVDFC717NV51WWTVMDTI,6,5
91,1,object_04,object_03,891.10000038147,2,2,367.69999885559,0.6666666666666666,2,object_08,1,1216,0,8,6,desert_5,2,memory-2step-stake-s,597,1873114,0.0-19.0-0.0-0.91,A24BN4WKUH4LR2,306996CF7Z0Y3F4KVQ7DFLTE4FJB13,3S96KQ6I9QKVDFC717NV51WWTVMDTI,1,2
92,4,object_10,object_05,966.10000038147,7,1,523.20000076294,0.8888888888888888,1,object_09,1,1224,0,8,7,restaurant_6,2,memory-2step-stake-s,598,1881796,0.0-19.0-0.0-0.92,A24BN4WKUH4LR2,306996CF7Z0Y3F4KVQ7DFLTE4FJB13,3S96KQ6I9QKVDFC717NV51WWTVMDTI,7,8
93,1,object_03,object_04,1081.2000007629,2,1,341.60000038147,0.6666666666666666,2,object_08,1,1230,0,9,6,desert_4,2,memory-2step-stake-s,599,1890091,0.0-19.0-0.0-0.93,A24BN4WKUH4LR2,306996CF7Z0Y3F4KVQ7DFLTE4FJB13,3S96KQ6I9QKVDFC717NV51WWTVMDTI,2,1
94,2,object_07,object_06,1060.5,4,2,531.69999885559,0.5555555555555556,2,object_08,1,1235,0,8,5,forest_1,2,memory-2step-stake-s,600,1898420,0.0-19.0-0.0-0.94,A24BN4WKUH4LR2,306996CF7Z0Y3F4KVQ7DFLTE4FJB13,3S96KQ6I9QKVDFC717NV51WWTVMDTI,3,4
95,2,object_07,object_06,724.29999923706,4,2,323.80000114441,0.2222222222222222,2,object_08,5,1245,0,6,2,forest_3,2,memory-2step-stake-s,601,1906255,0.0-19.0-0.0-0.95,A24BN4WKUH4LR2,306996CF7Z0Y3F4KVQ7DFLTE4FJB13,3S96KQ6I9QKVDFC717NV51WWTVMDTI,3,4
96,1,object_03,object_04,499.5,2,1,453.0,0.0,2,object_08,5,1245,0,8,0,desert_2,2,memory-2step-stake-s,602,1913969,0.0-19.0-0.0-0.96,A24BN4WKUH4LR2,306996CF7Z0Y3F4KVQ7DFLTE4FJB13,3S96KQ6I9QKVDFC717NV51WWTVMDTI,2,1
97,4,object_05,object_10,453.29999923706,7,2,393.39999961853,0.8888888888888888,1,object_09,1,1253,0,8,2,restaurant_5,2,memory-2step-stake-s,603,1922509,0.0-19.0-0.0-0.97,A24BN4WKUH4LR2,306996CF7Z0Y3F4KVQ7DFLTE4FJB13,3S96KQ6I9QKVDFC717NV51WWTVMDTI,8,7
98,3,object_02,object_01,1050.6000003815,6,1,347.20000076294,0.2222222222222222,2,object_08,1,1255,0,8,2,library_8,2,memory-2step-stake-s,604,1930357,0.0-19.0-0.0-0.98,A24BN4WKUH4LR2,306996CF7Z0Y3F4KVQ7DFLTE4FJB13,3S96KQ6I9QKVDFC717NV51WWTVMDTI,6,5
99,2,object_06,object_07,-1.0,-1,-1,-1.0,0.0,-,0,5,1255,0,6,1,forest_4,2,memory-2step-stake-s,605,1936916,0.0-19.0-0.0-0.99,A24BN4WKUH4LR2,306996CF7Z0Y3F4KVQ7DFLTE4FJB13,3S96KQ6I9QKVDFC717NV51WWTVMDTI,4,3
100,3,object_02,object_01,1318.2999992371,6,1,580.20000076294,0.1111111111111111,2,object_08,1,1256,0,6,1,library_2,2,memory-2step-stake-s,606,1944877,0.0-19.0-0.0-0.100,A24BN4WKUH4LR2,306996CF7Z0Y3F4KVQ7DFLTE4FJB13,3S96KQ6I9QKVDFC717NV51WWTVMDTI,6,5
101,4,object_10,object_05,393.60000038147,8,2,115.60000038147,0.3333333333333333,2,object_08,5,1271,0,5,3,restaurant_8,2,memory-2step-stake-s,607,1952585,0.0-19.0-0.0-0.101,A24BN4WKUH4LR2,306996CF7Z0Y3F4KVQ7DFLTE4FJB13,3S96KQ6I9QKVDFC717NV51WWTVMDTI,7,8
102,1,object_03,object_04,450.20000076294,2,1,702.60000038147,0.2222222222222222,2,object_08,5,1281,0,5,2,desert_2,2,memory-2step-stake-s,608,1960799,0.0-19.0-0.0-0.102,A24BN4WKUH4LR2,306996CF7Z0Y3F4KVQ7DFLTE4FJB13,3S96KQ6I9QKVDFC717NV51WWTVMDTI,2,1
103,4,object_05,object_10,267.20000076294,7,2,450.69999885559,0.2222222222222222,1,object_09,1,1283,0,2,2,restaurant_5,2,memory-2step-stake-s,609,1968732,0.0-19.0-0.0-0.103,A24BN4WKUH4LR2,306996CF7Z0Y3F4KVQ7DFLTE4FJB13,3S96KQ6I9QKVDFC717NV51WWTVMDTI,8,7
104,1,object_04,object_03,384.5,1,1,881.70000076294,0.5555555555555556,1,object_09,5,1308,0,5,6,desert_4,2,memory-2step-stake-s,610,1977430,0.0-19.0-0.0-0.104,A24BN4WKUH4LR2,306996CF7Z0Y3F4KVQ7DFLTE4FJB13,3S96KQ6I9QKVDFC717NV51WWTVMDTI,1,2
105,1,object_03,object_04,-1.0,-1,-1,-1.0,0.0,-,0,5,1308,0,5,3,desert_4,2,memory-2step-stake-s,611,1984001,0.0-19.0-0.0-0.105,A24BN4WKUH4LR2,306996CF7Z0Y3F4KVQ7DFLTE4FJB13,3S96KQ6I9QKVDFC717NV51WWTVMDTI,2,1
106,3,object_01,object_02,395.0,5,1,493.10000038147,0.7777777777777778,1,object_09,5,1343,0,7,4,library_7,2,memory-2step-stake-s,612,1992517,0.0-19.0-0.0-0.106,A24BN4WKUH4LR2,306996CF7Z0Y3F4KVQ7DFLTE4FJB13,3S96KQ6I9QKVDFC717NV51WWTVMDTI,5,6
107,1,object_04,object_03,658.80000114441,1,1,985.0,0.2222222222222222,1,object_09,5,1353,0,2,6,desert_6,2,memory-2step-stake-s,613,2001015,0.0-19.0-0.0-0.107,A24BN4WKUH4LR2,306996CF7Z0Y3F4KVQ7DFLTE4FJB13,3S96KQ6I9QKVDFC717NV51WWTVMDTI,1,2
108,3,object_01,object_02,376.70000076294,6,2,911.60000038147,1.0,2,object_08,1,1362,0,2,9,library_7,2,memory-2step-stake-s,614,2010138,0.0-19.0-0.0-0.108,A24BN4WKUH4LR2,306996CF7Z0Y3F4KVQ7DFLTE4FJB13,3S96KQ6I9QKVDFC717NV51WWTVMDTI,5,6
109,2,object_07,object_06,1481.2000007629,4,2,525.30000114441,0.7777777777777778,2,object_08,5,1397,0,0,7,forest_7,2,memory-2step-stake-s,615,2018733,0.0-19.0-0.0-0.109,A24BN4WKUH4LR2,306996CF7Z0Y3F4KVQ7DFLTE4FJB13,3S96KQ6I9QKVDFC717NV51WWTVMDTI,3,4
110,2,object_07,object_06,894.5,3,1,406.5,0.0,1,object_09,1,1397,0,0,4,forest_7,2,memory-2step-stake-s,616,2026454,0.0-19.0-0.0-0.110,A24BN4WKUH4LR2,306996CF7Z0Y3F4KVQ7DFLTE4FJB13,3S96KQ6I9QKVDFC717NV51WWTVMDTI,3,4
111,1,object_04,object_03,547.39999961853,1,1,461.70000076294,0.2222222222222222,1,object_09,1,1399,0,2,2,desert_2,2,memory-2step-stake-s,617,2034403,0.0-19.0-0.0-0.111,A24BN4WKUH4LR2,306996CF7Z0Y3F4KVQ7DFLTE4FJB13,3S96KQ6I9QKVDFC717NV51WWTVMDTI,1,2
112,3,object_02,object_01,451.10000038147,5,2,468.90000152588,0.1111111111111111,1,object_09,1,1400,0,1,5,library_2,2,memory-2step-stake-s,618,2042239,0.0-19.0-0.0-0.112,A24BN4WKUH4LR2,306996CF7Z0Y3F4KVQ7DFLTE4FJB13,3S96KQ6I9QKVDFC717NV51WWTVMDTI,6,5
113,1,object_03,object_04,386.5,2,1,-1.0,0.0,2,object_08,5,1400,0,4,6,desert_6,2,memory-2step-stake-s,619,2050812,0.0-19.0-0.0-0.113,A24BN4WKUH4LR2,306996CF7Z0Y3F4KVQ7DFLTE4FJB13,3S96KQ6I9QKVDFC717NV51WWTVMDTI,2,1
114,3,object_01,object_02,-1.0,-1,-1,-1.0,0.0,-,0,1,1400,0,4,9,library_2,2,memory-2step-stake-s,620,2057380,0.0-19.0-0.0-0.114,A24BN4WKUH4LR2,306996CF7Z0Y3F4KVQ7DFLTE4FJB13,3S96KQ6I9QKVDFC717NV51WWTVMDTI,5,6
115,1,object_04,object_03,1146.3999996185,1,1,1099.6999988556,0.5555555555555556,1,object_09,5,1425,0,5,6,desert_2,2,memory-2step-stake-s,621,2066305,0.0-19.0-0.0-0.115,A24BN4WKUH4LR2,306996CF7Z0Y3F4KVQ7DFLTE4FJB13,3S96KQ6I9QKVDFC717NV51WWTVMDTI,1,2
116,2,object_06,object_07,386.89999961853,3,2,-1.0,0.0,1,object_09,1,1425,0,3,2,forest_7,2,memory-2step-stake-s,622,2074865,0.0-19.0-0.0-0.116,A24BN4WKUH4LR2,306996CF7Z0Y3F4KVQ7DFLTE4FJB13,3S96KQ6I9QKVDFC717NV51WWTVMDTI,4,3
117,3,object_02,object_01,680.59999847412,6,1,290.39999961853,0.3333333333333333,2,object_08,1,1428,0,2,3,library_6,2,memory-2step-stake-s,623,2082768,0.0-19.0-0.0-0.117,A24BN4WKUH4LR2,306996CF7Z0Y3F4KVQ7DFLTE4FJB13,3S96KQ6I9QKVDFC717NV51WWTVMDTI,6,5
118,2,object_07,object_06,973.5,4,2,-1.0,0.0,2,object_08,5,1428,0,0,2,forest_1,2,memory-2step-stake-s,624,2091372,0.0-19.0-0.0-0.118,A24BN4WKUH4LR2,306996CF7Z0Y3F4KVQ7DFLTE4FJB13,3S96KQ6I9QKVDFC717NV51WWTVMDTI,3,4
119,1,object_03,object_04,293.10000038147,2,1,729.5,0.3333333333333333,2,object_08,5,1443,0,2,3,desert_2,2,memory-2step-stake-s,625,2099711,0.0-19.0-0.0-0.119,A24BN4WKUH4LR2,306996CF7Z0Y3F4KVQ7DFLTE4FJB13,3S96KQ6I9QKVDFC717NV51WWTVMDTI,2,1
120,2,object_06,object_07,413.09999847412,3,2,608.79999923706,0.4444444444444444,1,object_09,5,1463,0,4,3,forest_7,2,memory-2step-stake-s,626,2108021,0.0-19.0-0.0-0.120,A24BN4WKUH4LR2,306996CF7Z0Y3F4KVQ7DFLTE4FJB13,3S96KQ6I9QKVDFC717NV51WWTVMDTI,4,3
121,3,object_01,object_02,1297.7000007629,5,1,1495.8999996185,0.5555555555555556,1,object_09,1,1468,0,5,4,library_6,2,memory-2step-stake-s,627,2117328,0.0-19.0-0.0-0.121,A24BN4WKUH4LR2,306996CF7Z0Y3F4KVQ7DFLTE4FJB13,3S96KQ6I9QKVDFC717NV51WWTVMDTI,5,6
122,3,object_02,object_01,400.89999961853,5,2,516.80000114441,0.4444444444444444,1,object_09,1,1472,0,4,1,library_6,2,memory-2step-stake-s,628,2125563,0.0-19.0-0.0-0.122,A24BN4WKUH4LR2,306996CF7Z0Y3F4KVQ7DFLTE4FJB13,3S96KQ6I9QKVDFC717NV51WWTVMDTI,6,5
123,1,object_03,object_04,371.89999961853,2,1,637.60000038147,0.0,2,object_08,5,1472,0,6,0,desert_6,2,memory-2step-stake-s,629,2133487,0.0-19.0-0.0-0.123,A24BN4WKUH4LR2,306996CF7Z0Y3F4KVQ7DFLTE4FJB13,3S96KQ6I9QKVDFC717NV51WWTVMDTI,2,1
124,3,object_01,object_02,321.89999961853,6,2,954.89999961853,0.2222222222222222,2,object_08,5,1482,0,8,2,library_2,2,memory-2step-stake-s,630,2141926,0.0-19.0-0.0-0.124,A24BN4WKUH4LR2,306996CF7Z0Y3F4KVQ7DFLTE4FJB13,3S96KQ6I9QKVDFC717NV51WWTVMDTI,5,6
125,3,object_01,object_02,689.70000076294,5,1,660.20000076294,0.7777777777777778,1,object_09,1,1489,0,7,3,library_6,2,memory-2step-stake-s,631,2150605,0.0-19.0-0.0-0.125,A24BN4WKUH4LR2,306996CF7Z0Y3F4KVQ7DFLTE4FJB13,3S96KQ6I9QKVDFC717NV51WWTVMDTI,5,6
126,3,object_02,object_01,638.29999923706,6,1,391.29999923706,0.0,2,object_08,1,1489,0,7,0,library_8,2,memory-2step-stake-s,632,2158295,0.0-19.0-0.0-0.126,A24BN4WKUH4LR2,306996CF7Z0Y3F4KVQ7DFLTE4FJB13,3S96KQ6I9QKVDFC717NV51WWTVMDTI,6,5
127,4,object_05,object_10,438.90000152588,8,1,386.20000076294,0.1111111111111111,2,object_08,1,1490,0,6,1,restaurant_5,2,memory-2step-stake-s,633,2166075,0.0-19.0-0.0-0.127,A24BN4WKUH4LR2,306996CF7Z0Y3F4KVQ7DFLTE4FJB13,3S96KQ6I9QKVDFC717NV51WWTVMDTI,8,7
128,2,object_06,object_07,456.5,3,2,390.69999885559,0.8888888888888888,1,object_09,5,1530,0,8,0,forest_4,2,memory-2step-stake-s,635,2177331,0.0-19.0-0.1-0.128,A24BN4WKUH4LR2,306996CF7Z0Y3F4KVQ7DFLTE4FJB13,3S96KQ6I9QKVDFC717NV51WWTVMDTI,4,3
129,2,object_07,object_06,285.30000114441,3,1,469.0,0.7777777777777778,1,object_09,5,1565,0,7,1,forest_3,2,memory-2step-stake-s,636,2185854,0.0-19.0-0.1-0.129,A24BN4WKUH4LR2,306996CF7Z0Y3F4KVQ7DFLTE4FJB13,3S96KQ6I9QKVDFC717NV51WWTVMDTI,3,4
130,4,object_10,object_05,74.299999237061,7,1,410.0,0.6666666666666666,1,object_09,5,1595,0,6,0,restaurant_5,2,memory-2step-stake-s,637,2194155,0.0-19.0-0.1-0.130,A24BN4WKUH4LR2,306996CF7Z0Y3F4KVQ7DFLTE4FJB13,3S96KQ6I9QKVDFC717NV51WWTVMDTI,7,8
131,1,object_03,object_04,608.5,2,1,629.5,0.4444444444444444,2,object_08,5,1615,0,7,4,desert_5,2,memory-2step-stake-s,638,2202491,0.0-19.0-0.1-0.131,A24BN4WKUH4LR2,306996CF7Z0Y3F4KVQ7DFLTE4FJB13,3S96KQ6I9QKVDFC717NV51WWTVMDTI,2,1
132,3,object_01,object_02,484.0,6,2,6.2000007629395,0.5555555555555556,2,object_08,1,1620,0,7,5,library_6,2,memory-2step-stake-s,639,2210292,0.0-19.0-0.1-0.132,A24BN4WKUH4LR2,306996CF7Z0Y3F4KVQ7DFLTE4FJB13,3S96KQ6I9QKVDFC717NV51WWTVMDTI,5,6
133,2,object_06,object_07,442.60000038147,4,1,620.79999923706,0.1111111111111111,2,object_08,1,1621,0,7,1,forest_4,2,memory-2step-stake-s,640,2218285,0.0-19.0-0.1-0.133,A24BN4WKUH4LR2,306996CF7Z0Y3F4KVQ7DFLTE4FJB13,3S96KQ6I9QKVDFC717NV51WWTVMDTI,4,3
134,1,object_03,object_04,-1.0,-1,-1,-1.0,0.0,-,0,5,1621,0,4,1,desert_4,2,memory-2step-stake-s,641,2224832,0.0-19.0-0.1-0.134,A24BN4WKUH4LR2,306996CF7Z0Y3F4KVQ7DFLTE4FJB13,3S96KQ6I9QKVDFC717NV51WWTVMDTI,2,1
135,4,object_05,object_10,335.10000038147,7,2,885.5,0.5555555555555556,1,object_09,1,1626,0,5,0,restaurant_7,2,memory-2step-stake-s,642,2233548,0.0-19.0-0.1-0.135,A24BN4WKUH4LR2,306996CF7Z0Y3F4KVQ7DFLTE4FJB13,3S96KQ6I9QKVDFC717NV51WWTVMDTI,8,7
136,1,object_03,object_04,-1.0,-1,-1,-1.0,0.0,-,0,5,1626,0,5,2,desert_5,2,memory-2step-stake-s,643,2240109,0.0-19.0-0.1-0.136,A24BN4WKUH4LR2,306996CF7Z0Y3F4KVQ7DFLTE4FJB13,3S96KQ6I9QKVDFC717NV51WWTVMDTI,2,1
137,4,object_05,object_10,739.0,8,1,643.60000038147,0.3333333333333333,2,object_08,5,1641,0,6,3,restaurant_8,2,memory-2step-stake-s,644,2248325,0.0-19.0-0.1-0.137,A24BN4WKUH4LR2,306996CF7Z0Y3F4KVQ7DFLTE4FJB13,3S96KQ6I9QKVDFC717NV51WWTVMDTI,8,7
138,3,object_02,object_01,499.19999885559,6,1,440.39999961853,0.0,2,object_08,5,1641,0,7,0,library_8,2,memory-2step-stake-s,645,2256069,0.0-19.0-0.1-0.138,A24BN4WKUH4LR2,306996CF7Z0Y3F4KVQ7DFLTE4FJB13,3S96KQ6I9QKVDFC717NV51WWTVMDTI,6,5
139,2,object_07,object_06,716.69999885559,4,2,1071.5,0.3333333333333333,2,object_08,5,1656,0,7,3,forest_1,2,memory-2step-stake-s,646,2264773,0.0-19.0-0.1-0.139,A24BN4WKUH4LR2,306996CF7Z0Y3F4KVQ7DFLTE4FJB13,3S96KQ6I9QKVDFC717NV51WWTVMDTI,3,4
140,1,object_03,object_04,-1.0,-1,-1,-1.0,0.0,-,0,5,1656,0,7,2,desert_5,2,memory-2step-stake-s,647,2271326,0.0-19.0-0.1-0.140,A24BN4WKUH4LR2,306996CF7Z0Y3F4KVQ7DFLTE4FJB13,3S96KQ6I9QKVDFC717NV51WWTVMDTI,2,1
141,2,object_06,object_07,-1.0,-1,-1,-1.0,0.0,-,0,1,1656,0,5,3,forest_3,2,memory-2step-stake-s,648,2277893,0.0-19.0-0.1-0.141,A24BN4WKUH4LR2,306996CF7Z0Y3F4KVQ7DFLTE4FJB13,3S96KQ6I9QKVDFC717NV51WWTVMDTI,4,3
142,4,object_10,object_05,336.5,7,1,1110.0,0.6666666666666666,1,object_09,1,1662,0,6,4,restaurant_5,2,memory-2step-stake-s,649,2286932,0.0-19.0-0.1-0.142,A24BN4WKUH4LR2,306996CF7Z0Y3F4KVQ7DFLTE4FJB13,3S96KQ6I9QKVDFC717NV51WWTVMDTI,7,8
143,2,object_06,object_07,-1.0,-1,-1,-1.0,0.0,-,0,1,1662,0,6,4,forest_4,2,memory-2step-stake-s,650,2293523,0.0-19.0-0.1-0.143,A24BN4WKUH4LR2,306996CF7Z0Y3F4KVQ7DFLTE4FJB13,3S96KQ6I9QKVDFC717NV51WWTVMDTI,4,3
144,2,object_06,object_07,351.80000114441,3,2,689.80000114441,0.6666666666666666,1,object_09,5,1692,0,6,5,forest_3,2,memory-2step-stake-s,651,2302181,0.0-19.0-0.1-0.144,A24BN4WKUH4LR2,306996CF7Z0Y3F4KVQ7DFLTE4FJB13,3S96KQ6I9QKVDFC717NV51WWTVMDTI,4,3
145,1,object_03,object_04,322.30000114441,2,1,560.89999961853,0.4444444444444444,2,object_08,5,1712,0,5,4,desert_2,2,memory-2step-stake-s,652,2310504,0.0-19.0-0.1-0.145,A24BN4WKUH4LR2,306996CF7Z0Y3F4KVQ7DFLTE4FJB13,3S96KQ6I9QKVDFC717NV51WWTVMDTI,2,1
146,4,object_05,object_10,429.29999923706,7,2,410.5,0.5555555555555556,1,object_09,5,1737,0,5,1,restaurant_6,2,memory-2step-stake-s,653,2318751,0.0-19.0-0.1-0.146,A24BN4WKUH4LR2,306996CF7Z0Y3F4KVQ7DFLTE4FJB13,3S96KQ6I9QKVDFC717NV51WWTVMDTI,8,7
147,1,object_03,object_04,331.29999923706,2,1,667.5,0.3333333333333333,2,object_08,5,1752,0,7,3,desert_6,2,memory-2step-stake-s,654,2327051,0.0-19.0-0.1-0.147,A24BN4WKUH4LR2,306996CF7Z0Y3F4KVQ7DFLTE4FJB13,3S96KQ6I9QKVDFC717NV51WWTVMDTI,2,1
148,1,object_04,object_03,381.5,2,2,515.20000076294,0.3333333333333333,2,object_08,5,1767,0,7,3,desert_2,2,memory-2step-stake-s,655,2335229,0.0-19.0-0.1-0.148,A24BN4WKUH4LR2,306996CF7Z0Y3F4KVQ7DFLTE4FJB13,3S96KQ6I9QKVDFC717NV51WWTVMDTI,1,2
149,2,object_06,object_07,379.5,4,1,1172.7000007629,0.5555555555555556,2,object_08,1,1772,0,6,5,forest_7,2,memory-2step-stake-s,656,2344278,0.0-19.0-0.1-0.149,A24BN4WKUH4LR2,306996CF7Z0Y3F4KVQ7DFLTE4FJB13,3S96KQ6I9QKVDFC717NV51WWTVMDTI,4,3
150,2,object_07,object_06,423.20000076294,4,2,658.60000038147,0.4444444444444444,2,object_08,5,1792,0,5,4,forest_1,2,memory-2step-stake-s,657,2352678,0.0-19.0-0.1-0.150,A24BN4WKUH4LR2,306996CF7Z0Y3F4KVQ7DFLTE4FJB13,3S96KQ6I9QKVDFC717NV51WWTVMDTI,3,4
151,1,object_03,object_04,1428.7999992371,2,1,448.89999961853,0.6666666666666666,2,object_08,5,1822,0,3,6,desert_4,2,memory-2step-stake-s,658,2361067,0.0-19.0-0.1-0.151,A24BN4WKUH4LR2,306996CF7Z0Y3F4KVQ7DFLTE4FJB13,3S96KQ6I9QKVDFC717NV51WWTVMDTI,2,1
152,1,object_03,object_04,344.09999847412,1,2,380.69999885559,0.4444444444444444,1,object_09,1,1826,0,4,8,desert_6,2,memory-2step-stake-s,659,2369176,0.0-19.0-0.1-0.152,A24BN4WKUH4LR2,306996CF7Z0Y3F4KVQ7DFLTE4FJB13,3S96KQ6I9QKVDFC717NV51WWTVMDTI,2,1
153,2,object_07,object_06,354.29999923706,3,1,574.40000152588,0.5555555555555556,1,object_09,5,1851,0,5,8,forest_1,2,memory-2step-stake-s,660,2377638,0.0-19.0-0.1-0.153,A24BN4WKUH4LR2,306996CF7Z0Y3F4KVQ7DFLTE4FJB13,3S96KQ6I9QKVDFC717NV51WWTVMDTI,3,4
154,4,object_05,object_10,96.800001144409,7,2,360.5,0.4444444444444444,1,object_09,1,1855,0,4,9,restaurant_8,2,memory-2step-stake-s,661,2385713,0.0-19.0-0.1-0.154,A24BN4WKUH4LR2,306996CF7Z0Y3F4KVQ7DFLTE4FJB13,3S96KQ6I9QKVDFC717NV51WWTVMDTI,8,7
155,1,object_03,object_04,-1.0,-1,-1,-1.0,0.0,-,0,5,1855,0,1,8,desert_6,2,memory-2step-stake-s,662,2392291,0.0-19.0-0.1-0.155,A24BN4WKUH4LR2,306996CF7Z0Y3F4KVQ7DFLTE4FJB13,3S96KQ6I9QKVDFC717NV51WWTVMDTI,2,1
156,4,object_10,object_05,337.39999961853,7,1,408.20000076294,0.3333333333333333,1,object_09,1,1858,0,3,6,restaurant_6,2,memory-2step-stake-s,663,2400364,0.0-19.0-0.1-0.156,A24BN4WKUH4LR2,306996CF7Z0Y3F4KVQ7DFLTE4FJB13,3S96KQ6I9QKVDFC717NV51WWTVMDTI,7,8
157,1,object_04,object_03,443.19999885559,2,2,355.80000114441,0.6666666666666666,2,object_08,5,1888,0,6,6,desert_6,2,memory-2step-stake-s,664,2408672,0.0-19.0-0.1-0.157,A24BN4WKUH4LR2,306996CF7Z0Y3F4KVQ7DFLTE4FJB13,3S96KQ6I9QKVDFC717NV51WWTVMDTI,1,2
158,4,object_05,object_10,435.5,8,1,384.5,0.6666666666666666,2,object_08,1,1894,0,7,6,restaurant_7,2,memory-2step-stake-s,665,2416968,0.0-19.0-0.1-0.158,A24BN4WKUH4LR2,306996CF7Z0Y3F4KVQ7DFLTE4FJB13,3S96KQ6I9QKVDFC717NV51WWTVMDTI,8,7
159,3,object_02,object_01,442.79999923706,5,2,469.5,0.6666666666666666,1,object_09,1,1900,0,6,5,library_6,2,memory-2step-stake-s,666,2425344,0.0-19.0-0.1-0.159,A24BN4WKUH4LR2,306996CF7Z0Y3F4KVQ7DFLTE4FJB13,3S96KQ6I9QKVDFC717NV51WWTVMDTI,6,5
160,4,object_10,object_05,377.29999923706,8,2,1007.0,0.4444444444444444,2,object_08,1,1904,0,9,4,restaurant_6,2,memory-2step-stake-s,667,2434031,0.0-19.0-0.1-0.160,A24BN4WKUH4LR2,306996CF7Z0Y3F4KVQ7DFLTE4FJB13,3S96KQ6I9QKVDFC717NV51WWTVMDTI,7,8
161,3,object_01,object_02,376.70000076294,5,1,421.69999885559,1.0,1,object_09,1,1913,0,9,1,library_8,2,memory-2step-stake-s,668,2442707,0.0-19.0-0.1-0.161,A24BN4WKUH4LR2,306996CF7Z0Y3F4KVQ7DFLTE4FJB13,3S96KQ6I9QKVDFC717NV51WWTVMDTI,5,6
162,3,object_02,object_01,1298.2999992371,6,1,1462.8999996185,0.2222222222222222,2,object_08,5,1923,0,9,2,library_8,2,memory-2step-stake-s,669,2451620,0.0-19.0-0.1-0.162,A24BN4WKUH4LR2,306996CF7Z0Y3F4KVQ7DFLTE4FJB13,3S96KQ6I9QKVDFC717NV51WWTVMDTI,6,5
163,2,object_06,object_07,1278.7999992371,3,2,-1.0,0.0,1,object_09,5,1923,0,8,1,forest_3,2,memory-2step-stake-s,670,2460184,0.0-19.0-0.1-0.163,A24BN4WKUH4LR2,306996CF7Z0Y3F4KVQ7DFLTE4FJB13,3S96KQ6I9QKVDFC717NV51WWTVMDTI,4,3
164,1,object_03,object_04,264.30000114441,2,1,1048.0,0.2222222222222222,2,object_08,5,1933,0,9,2,desert_6,2,memory-2step-stake-s,671,2468728,0.0-19.0-0.1-0.164,A24BN4WKUH4LR2,306996CF7Z0Y3F4KVQ7DFLTE4FJB13,3S96KQ6I9QKVDFC717NV51WWTVMDTI,2,1
165,3,object_01,object_02,472.60000038147,6,2,774.89999961853,0.0,2,object_08,1,1933,0,8,0,library_7,2,memory-2step-stake-s,672,2476766,0.0-19.0-0.1-0.165,A24BN4WKUH4LR2,306996CF7Z0Y3F4KVQ7DFLTE4FJB13,3S96KQ6I9QKVDFC717NV51WWTVMDTI,5,6
166,2,object_06,object_07,-1.0,-1,-1,-1.0,0.0,-,0,1,1933,0,9,3,forest_4,2,memory-2step-stake-s,673,2483332,0.0-19.0-0.1-0.166,A24BN4WKUH4LR2,306996CF7Z0Y3F4KVQ7DFLTE4FJB13,3S96KQ6I9QKVDFC717NV51WWTVMDTI,4,3
167,3,object_01,object_02,444.89999961853,5,1,640.09999847412,0.6666666666666666,1,object_09,1,1939,0,6,6,library_8,2,memory-2step-stake-s,674,2491904,0.0-19.0-0.1-0.167,A24BN4WKUH4LR2,306996CF7Z0Y3F4KVQ7DFLTE4FJB13,3S96KQ6I9QKVDFC717NV51WWTVMDTI,5,6
168,2,object_06,object_07,696.09999847412,3,2,1060.7999992371,0.8888888888888888,1,object_09,1,1947,0,8,8,forest_4,2,memory-2step-stake-s,675,2501111,0.0-19.0-0.1-0.168,A24BN4WKUH4LR2,306996CF7Z0Y3F4KVQ7DFLTE4FJB13,3S96KQ6I9QKVDFC717NV51WWTVMDTI,4,3
169,4,object_10,object_05,378.70000076294,7,1,800.0,1.0,1,object_09,1,1956,0,9,8,restaurant_5,2,memory-2step-stake-s,676,2510129,0.0-19.0-0.1-0.169,A24BN4WKUH4LR2,306996CF7Z0Y3F4KVQ7DFLTE4FJB13,3S96KQ6I9QKVDFC717NV51WWTVMDTI,7,8
170,4,object_05,object_10,480.39999961853,8,1,462.09999847412,0.8888888888888888,2,object_08,1,1964,0,9,8,restaurant_6,2,memory-2step-stake-s,677,2518684,0.0-19.0-0.1-0.170,A24BN4WKUH4LR2,306996CF7Z0Y3F4KVQ7DFLTE4FJB13,3S96KQ6I9QKVDFC717NV51WWTVMDTI,8,7
171,4,object_10,object_05,-1.0,-1,-1,-1.0,0.0,-,0,1,1964,0,7,8,restaurant_7,2,memory-2step-stake-s,678,2525220,0.0-19.0-0.1-0.171,A24BN4WKUH4LR2,306996CF7Z0Y3F4KVQ7DFLTE4FJB13,3S96KQ6I9QKVDFC717NV51WWTVMDTI,7,8
172,1,object_03,object_04,1142.1000003815,1,2,403.20000076294,0.5555555555555556,1,object_09,5,1989,0,5,4,desert_4,2,memory-2step-stake-s,679,2533425,0.0-19.0-0.1-0.172,A24BN4WKUH4LR2,306996CF7Z0Y3F4KVQ7DFLTE4FJB13,3S96KQ6I9QKVDFC717NV51WWTVMDTI,2,1
173,2,object_07,object_06,1401.8999996185,3,1,933.39999961853,0.8888888888888888,1,object_09,5,2029,0,8,2,forest_3,2,memory-2step-stake-s,680,2542481,0.0-19.0-0.1-0.173,A24BN4WKUH4LR2,306996CF7Z0Y3F4KVQ7DFLTE4FJB13,3S96KQ6I9QKVDFC717NV51WWTVMDTI,3,4
174,2,object_07,object_06,348.0,4,2,376.19999885559,0.1111111111111111,2,object_08,5,2034,0,9,1,forest_4,2,memory-2step-stake-s,681,2550247,0.0-19.0-0.1-0.174,A24BN4WKUH4LR2,306996CF7Z0Y3F4KVQ7DFLTE4FJB13,3S96KQ6I9QKVDFC717NV51WWTVMDTI,3,4
175,4,object_10,object_05,288.59999847412,7,1,445.70000076294,0.8888888888888888,1,object_09,5,2074,0,8,4,restaurant_8,2,memory-2step-stake-s,682,2558847,0.0-19.0-0.1-0.175,A24BN4WKUH4LR2,306996CF7Z0Y3F4KVQ7DFLTE4FJB13,3S96KQ6I9QKVDFC717NV51WWTVMDTI,7,8
176,3,object_02,object_01,609.0,5,2,270.10000038147,0.6666666666666666,1,object_09,1,2080,0,6,2,library_8,2,memory-2step-stake-s,683,2566997,0.0-19.0-0.1-0.176,A24BN4WKUH4LR2,306996CF7Z0Y3F4KVQ7DFLTE4FJB13,3S96KQ6I9QKVDFC717NV51WWTVMDTI,6,5
177,1,object_04,object_03,549.89999961853,1,1,395.20000076294,0.4444444444444444,1,object_09,5,2100,0,4,3,desert_4,2,memory-2step-stake-s,684,2575083,0.0-19.0-0.1-0.177,A24BN4WKUH4LR2,306996CF7Z0Y3F4KVQ7DFLTE4FJB13,3S96KQ6I9QKVDFC717NV51WWTVMDTI,1,2
178,1,object_04,object_03,358.60000038147,2,2,448.69999885559,0.3333333333333333,2,object_08,5,2115,0,5,3,desert_2,2,memory-2step-stake-s,685,2583109,0.0-19.0-0.1-0.178,A24BN4WKUH4LR2,306996CF7Z0Y3F4KVQ7DFLTE4FJB13,3S96KQ6I9QKVDFC717NV51WWTVMDTI,1,2
179,3,object_01,object_02,399.10000038147,5,1,360.0,0.7777777777777778,1,object_09,5,2150,0,7,0,library_8,2,memory-2step-stake-s,686,2591502,0.0-19.0-0.1-0.179,A24BN4WKUH4LR2,306996CF7Z0Y3F4KVQ7DFLTE4FJB13,3S96KQ6I9QKVDFC717NV51WWTVMDTI,5,6
180,3,object_01,object_02,570.39999961853,6,2,427.80000114441,0.3333333333333333,2,object_08,1,2153,0,7,3,library_8,2,memory-2step-stake-s,687,2599501,0.0-19.0-0.1-0.180,A24BN4WKUH4LR2,306996CF7Z0Y3F4KVQ7DFLTE4FJB13,3S96KQ6I9QKVDFC717NV51WWTVMDTI,5,6
181,1,object_04,object_03,1342.6000003815,2,2,468.30000114441,0.4444444444444444,2,object_08,5,2173,0,8,4,desert_6,2,memory-2step-stake-s,688,2607700,0.0-19.0-0.1-0.181,A24BN4WKUH4LR2,306996CF7Z0Y3F4KVQ7DFLTE4FJB13,3S96KQ6I9QKVDFC717NV51WWTVMDTI,1,2
182,3,object_01,object_02,516.39999961853,5,1,488.39999961853,1.0,1,object_09,1,2182,0,9,6,library_2,2,memory-2step-stake-s,689,2616414,0.0-19.0-0.1-0.182,A24BN4WKUH4LR2,306996CF7Z0Y3F4KVQ7DFLTE4FJB13,3S96KQ6I9QKVDFC717NV51WWTVMDTI,5,6
183,4,object_10,object_05,909.10000038147,8,2,776.60000038147,0.8888888888888888,2,object_08,1,2190,0,8,8,restaurant_6,2,memory-2step-stake-s,690,2625306,0.0-19.0-0.1-0.183,A24BN4WKUH4LR2,306996CF7Z0Y3F4KVQ7DFLTE4FJB13,3S96KQ6I9QKVDFC717NV51WWTVMDTI,7,8
184,2,object_07,object_06,415.69999885559,3,1,657.39999961853,0.8888888888888888,1,object_09,5,2230,0,8,8,forest_1,2,memory-2step-stake-s,691,2634060,0.0-19.0-0.1-0.184,A24BN4WKUH4LR2,306996CF7Z0Y3F4KVQ7DFLTE4FJB13,3S96KQ6I9QKVDFC717NV51WWTVMDTI,3,4
185,2,object_07,object_06,352.79999923706,4,2,431.10000038147,0.7777777777777778,2,object_08,5,2265,0,6,7,forest_1,2,memory-2step-stake-s,692,2642532,0.0-19.0-0.1-0.185,A24BN4WKUH4LR2,306996CF7Z0Y3F4KVQ7DFLTE4FJB13,3S96KQ6I9QKVDFC717NV51WWTVMDTI,3,4
186,4,object_05,object_10,1022.3999996185,7,2,598.0,0.7777777777777778,1,object_09,1,2272,0,7,5,restaurant_8,2,memory-2step-stake-s,693,2651124,0.0-19.0-0.1-0.186,A24BN4WKUH4LR2,306996CF7Z0Y3F4KVQ7DFLTE4FJB13,3S96KQ6I9QKVDFC717NV51WWTVMDTI,8,7
187,3,object_01,object_02,1074.5,5,1,1496.8999996185,0.5555555555555556,1,object_09,5,2297,0,5,3,library_6,2,memory-2step-stake-s,694,2660400,0.0-19.0-0.1-0.187,A24BN4WKUH4LR2,306996CF7Z0Y3F4KVQ7DFLTE4FJB13,3S96KQ6I9QKVDFC717NV51WWTVMDTI,5,6
188,4,object_10,object_05,547.89999961853,8,2,646.10000038147,0.5555555555555556,2,object_08,5,2322,0,5,5,restaurant_7,2,memory-2step-stake-s,695,2668852,0.0-19.0-0.1-0.188,A24BN4WKUH4LR2,306996CF7Z0Y3F4KVQ7DFLTE4FJB13,3S96KQ6I9QKVDFC717NV51WWTVMDTI,7,8
189,2,object_07,object_06,584.5,3,1,67.89999961853,0.2222222222222222,1,object_09,5,2332,0,2,4,forest_4,2,memory-2step-stake-s,696,2676432,0.0-19.0-0.1-0.189,A24BN4WKUH4LR2,306996CF7Z0Y3F4KVQ7DFLTE4FJB13,3S96KQ6I9QKVDFC717NV51WWTVMDTI,3,4
190,1,object_03,object_04,574.69999885559,1,2,375.70000076294,0.1111111111111111,1,object_09,1,2333,0,1,4,desert_4,2,memory-2step-stake-s,697,2684207,0.0-19.0-0.1-0.190,A24BN4WKUH4LR2,306996CF7Z0Y3F4KVQ7DFLTE4FJB13,3S96KQ6I9QKVDFC717NV51WWTVMDTI,2,1
191,3,object_02,object_01,-1.0,-1,-1,-1.0,0.0,-,0,1,2333,0,2,3,library_7,2,memory-2step-stake-s,698,2690788,0.0-19.0-0.1-0.191,A24BN4WKUH4LR2,306996CF7Z0Y3F4KVQ7DFLTE4FJB13,3S96KQ6I9QKVDFC717NV51WWTVMDTI,6,5
192,4,object_05,object_10,326.80000114441,8,1,421.10000038147,0.5555555555555556,2,object_08,1,2338,0,3,5,restaurant_7,2,memory-2step-stake-s,699,2699036,0.0-19.0-0.1-0.192,A24BN4WKUH4LR2,306996CF7Z0Y3F4KVQ7DFLTE4FJB13,3S96KQ6I9QKVDFC717NV51WWTVMDTI,8,7
193,3,object_02,object_01,364.70000076294,5,2,497.0,0.7777777777777778,1,object_09,5,2373,0,7,3,library_7,2,memory-2step-stake-s,700,2707591,0.0-19.0-0.1-0.193,A24BN4WKUH4LR2,306996CF7Z0Y3F4KVQ7DFLTE4FJB13,3S96KQ6I9QKVDFC717NV51WWTVMDTI,6,5
194,4,object_10,object_05,748.69999885559,7,1,474.60000038147,0.6666666666666666,1,object_09,1,2379,0,6,3,restaurant_7,2,memory-2step-stake-s,701,2715999,0.0-19.0-0.1-0.194,A24BN4WKUH4LR2,306996CF7Z0Y3F4KVQ7DFLTE4FJB13,3S96KQ6I9QKVDFC717NV51WWTVMDTI,7,8
195,2,object_07,object_06,781.29999923706,4,2,802.70000076294,0.5555555555555556,2,object_08,5,2404,0,5,5,forest_3,2,memory-2step-stake-s,702,2724640,0.0-19.0-0.1-0.195,A24BN4WKUH4LR2,306996CF7Z0Y3F4KVQ7DFLTE4FJB13,3S96KQ6I9QKVDFC717NV51WWTVMDTI,3,4
196,4,object_05,object_10,360.20000076294,8,1,828.20000076294,0.4444444444444444,2,object_08,1,2408,0,7,4,restaurant_8,2,memory-2step-stake-s,703,2733173,0.0-19.0-0.1-0.196,A24BN4WKUH4LR2,306996CF7Z0Y3F4KVQ7DFLTE4FJB13,3S96KQ6I9QKVDFC717NV51WWTVMDTI,8,7
197,3,object_01,object_02,389.0,6,2,503.80000114441,0.5555555555555556,2,object_08,5,2433,0,9,5,library_6,2,memory-2step-stake-s,704,2741463,0.0-19.0-0.1-0.197,A24BN4WKUH4LR2,306996CF7Z0Y3F4KVQ7DFLTE4FJB13,3S96KQ6I9QKVDFC717NV51WWTVMDTI,5,6
198,1,object_03,object_04,-1.0,-1,-1,-1.0,0.0,-,0,1,2433,0,9,4,desert_5,2,memory-2step-stake-s,705,2748033,0.0-19.0-0.1-0.198,A24BN4WKUH4LR2,306996CF7Z0Y3F4KVQ7DFLTE4FJB13,3S96KQ6I9QKVDFC717NV51WWTVMDTI,2,1
199,3,object_01,object_02,1265.5999984741,5,1,724.39999961853,0.6666666666666666,1,object_09,1,2439,0,6,7,library_7,2,memory-2step-stake-s,706,2756696,0.0-19.0-0.1-0.199,A24BN4WKUH4LR2,306996CF7Z0Y3F4KVQ7DFLTE4FJB13,3S96KQ6I9QKVDFC717NV51WWTVMDTI,5,6
200,2,object_06,object_07,934.70000076294,3,2,455.30000114441,0.6666666666666666,1,object_09,1,2445,0,6,6,forest_4,2,memory-2step-stake-s,707,2765082,0.0-19.0-0.1-0.200,A24BN4WKUH4LR2,306996CF7Z0Y3F4KVQ7DFLTE4FJB13,3S96KQ6I9QKVDFC717NV51WWTVMDTI,4,3
201,4,object_05,object_10,350.30000114441,8,1,516.5,0.3333333333333333,2,object_08,1,2448,0,8,3,restaurant_5,2,memory-2step-stake-s,708,2773174,0.0-19.0-0.1-0.201,A24BN4WKUH4LR2,306996CF7Z0Y3F4KVQ7DFLTE4FJB13,3S96KQ6I9QKVDFC717NV51WWTVMDTI,8,7
202,4,object_10,object_05,368.30000114441,8,2,613.19999885559,0.6666666666666666,2,object_08,1,2454,0,4,6,restaurant_8,2,memory-2step-stake-s,709,2781714,0.0-19.0-0.1-0.202,A24BN4WKUH4LR2,306996CF7Z0Y3F4KVQ7DFLTE4FJB13,3S96KQ6I9QKVDFC717NV51WWTVMDTI,7,8
203,4,object_10,object_05,426.60000038147,7,1,596.60000038147,0.1111111111111111,1,object_09,1,2455,0,1,3,restaurant_8,2,memory-2step-stake-s,710,2789690,0.0-19.0-0.1-0.203,A24BN4WKUH4LR2,306996CF7Z0Y3F4KVQ7DFLTE4FJB13,3S96KQ6I9QKVDFC717NV51WWTVMDTI,7,8
204,4,object_05,object_10,-1.0,-1,-1,-1.0,0.0,-,0,1,2455,0,0,5,restaurant_5,2,memory-2step-stake-s,711,2796274,0.0-19.0-0.1-0.204,A24BN4WKUH4LR2,306996CF7Z0Y3F4KVQ7DFLTE4FJB13,3S96KQ6I9QKVDFC717NV51WWTVMDTI,8,7
205,4,object_10,object_05,1379.7999992371,8,2,530.79999923706,0.4444444444444444,2,object_08,5,2475,0,1,4,restaurant_5,2,memory-2step-stake-s,712,2804496,0.0-19.0-0.1-0.205,A24BN4WKUH4LR2,306996CF7Z0Y3F4KVQ7DFLTE4FJB13,3S96KQ6I9QKVDFC717NV51WWTVMDTI,7,8
206,4,object_05,object_10,786.5,8,1,-1.0,0.0,2,object_08,1,2475,0,4,0,restaurant_7,2,memory-2step-stake-s,713,2813072,0.0-19.0-0.1-0.206,A24BN4WKUH4LR2,306996CF7Z0Y3F4KVQ7DFLTE4FJB13,3S96KQ6I9QKVDFC717NV51WWTVMDTI,8,7
207,4,object_10,object_05,1103.8999996185,8,2,510.70000076294,0.3333333333333333,2,object_08,1,2478,0,5,3,restaurant_8,2,memory-2step-stake-s,714,2821209,0.0-19.0-0.1-0.207,A24BN4WKUH4LR2,306996CF7Z0Y3F4KVQ7DFLTE4FJB13,3S96KQ6I9QKVDFC717NV51WWTVMDTI,7,8
208,2,object_07,object_06,-1.0,-1,-1,-1.0,0.0,-,0,5,2478,0,4,4,forest_4,2,memory-2step-stake-s,715,2827794,0.0-19.0-0.1-0.208,A24BN4WKUH4LR2,306996CF7Z0Y3F4KVQ7DFLTE4FJB13,3S96KQ6I9QKVDFC717NV51WWTVMDTI,3,4
209,4,object_05,object_10,369.10000038147,8,1,377.0,0.2222222222222222,2,object_08,1,2480,0,7,2,restaurant_5,2,memory-2step-stake-s,716,2835665,0.0-19.0-0.1-0.209,A24BN4WKUH4LR2,306996CF7Z0Y3F4KVQ7DFLTE4FJB13,3S96KQ6I9QKVDFC717NV51WWTVMDTI,8,7
210,4,object_10,object_05,534.0,8,2,383.89999961853,0.2222222222222222,2,object_08,5,2490,0,3,2,restaurant_6,2,memory-2step-stake-s,717,2843530,0.0-19.0-0.1-0.210,A24BN4WKUH4LR2,306996CF7Z0Y3F4KVQ7DFLTE4FJB13,3S96KQ6I9QKVDFC717NV51WWTVMDTI,7,8
211,4,object_10,object_05,353.59999847412,7,1,503.70000076294,0.2222222222222222,1,object_09,1,2492,0,2,1,restaurant_8,2,memory-2step-stake-s,718,2851537,0.0-19.0-0.1-0.211,A24BN4WKUH4LR2,306996CF7Z0Y3F4KVQ7DFLTE4FJB13,3S96KQ6I9QKVDFC717NV51WWTVMDTI,7,8
212,2,object_07,object_06,303.29999923706,4,2,577.5,0.1111111111111111,2,object_08,5,2497,0,1,1,forest_3,2,memory-2step-stake-s,719,2859491,0.0-19.0-0.1-0.212,A24BN4WKUH4LR2,306996CF7Z0Y3F4KVQ7DFLTE4FJB13,3S96KQ6I9QKVDFC717NV51WWTVMDTI,3,4
213,2,object_06,object_07,1480.2999992371,4,1,-1.0,0.0,2,object_08,5,2497,0,0,1,forest_1,2,memory-2step-stake-s,720,2868054,0.0-19.0-0.1-0.213,A24BN4WKUH4LR2,306996CF7Z0Y3F4KVQ7DFLTE4FJB13,3S96KQ6I9QKVDFC717NV51WWTVMDTI,4,3
214,2,object_07,object_06,281.69999885559,3,1,532.30000114441,0.1111111111111111,1,object_09,5,2502,0,1,1,forest_1,2,memory-2step-stake-s,721,2875980,0.0-19.0-0.1-0.214,A24BN4WKUH4LR2,306996CF7Z0Y3F4KVQ7DFLTE4FJB13,3S96KQ6I9QKVDFC717NV51WWTVMDTI,3,4
215,4,object_10,object_05,578.5,8,2,455.90000152588,0.0,2,object_08,1,2502,0,1,0,restaurant_7,2,memory-2step-stake-s,722,2883723,0.0-19.0-0.1-0.215,A24BN4WKUH4LR2,306996CF7Z0Y3F4KVQ7DFLTE4FJB13,3S96KQ6I9QKVDFC717NV51WWTVMDTI,7,8
216,3,object_02,object_01,448.19999885559,6,1,395.19999885559,0.2222222222222222,2,object_08,1,2504,0,4,2,library_8,2,memory-2step-stake-s,723,2891619,0.0-19.0-0.1-0.216,A24BN4WKUH4LR2,306996CF7Z0Y3F4KVQ7DFLTE4FJB13,3S96KQ6I9QKVDFC717NV51WWTVMDTI,6,5
217,3,object_02,object_01,-1.0,-1,-1,-1.0,0.0,-,0,1,2504,0,8,0,library_8,2,memory-2step-stake-s,724,2898198,0.0-19.0-0.1-0.217,A24BN4WKUH4LR2,306996CF7Z0Y3F4KVQ7DFLTE4FJB13,3S96KQ6I9QKVDFC717NV51WWTVMDTI,6,5
218,4,object_10,object_05,301.5,8,2,430.39999961853,0.1111111111111111,2,object_08,1,2505,0,8,1,restaurant_5,2,memory-2step-stake-s,725,2906031,0.0-19.0-0.1-0.218,A24BN4WKUH4LR2,306996CF7Z0Y3F4KVQ7DFLTE4FJB13,3S96KQ6I9QKVDFC717NV51WWTVMDTI,7,8
219,1,object_03,object_04,1091.7000007629,2,1,602.89999961853,0.2222222222222222,2,object_08,5,2515,0,9,2,desert_5,2,memory-2step-stake-s,726,2914126,0.0-19.0-0.1-0.219,A24BN4WKUH4LR2,306996CF7Z0Y3F4KVQ7DFLTE4FJB13,3S96KQ6I9QKVDFC717NV51WWTVMDTI,2,1
220,1,object_04,object_03,1027.1000003815,2,2,633.5,0.1111111111111111,2,object_08,5,2520,0,7,1,desert_6,2,memory-2step-stake-s,727,2922172,0.0-19.0-0.1-0.220,A24BN4WKUH4LR2,306996CF7Z0Y3F4KVQ7DFLTE4FJB13,3S96KQ6I9QKVDFC717NV51WWTVMDTI,1,2
221,3,object_01,object_02,309.5,5,1,1012.2000007629,0.4444444444444444,1,object_09,5,2540,0,4,1,library_2,2,memory-2step-stake-s,728,2930899,0.0-19.0-0.1-0.221,A24BN4WKUH4LR2,306996CF7Z0Y3F4KVQ7DFLTE4FJB13,3S96KQ6I9QKVDFC717NV51WWTVMDTI,5,6
222,1,object_04,object_03,324.89999961853,2,2,1048.5,0.4444444444444444,2,object_08,5,2560,0,6,4,desert_2,2,memory-2step-stake-s,729,2939667,0.0-19.0-0.1-0.222,A24BN4WKUH4LR2,306996CF7Z0Y3F4KVQ7DFLTE4FJB13,3S96KQ6I9QKVDFC717NV51WWTVMDTI,1,2
223,3,object_01,object_02,-1.0,-1,-1,-1.0,0.0,-,0,1,2560,0,3,1,library_2,2,memory-2step-stake-s,730,2946237,0.0-19.0-0.1-0.223,A24BN4WKUH4LR2,306996CF7Z0Y3F4KVQ7DFLTE4FJB13,3S96KQ6I9QKVDFC717NV51WWTVMDTI,5,6
224,3,object_02,object_01,414.0,5,2,480.60000038147,0.0,1,object_09,1,2560,0,0,3,library_2,2,memory-2step-stake-s,731,2954001,0.0-19.0-0.1-0.224,A24BN4WKUH4LR2,306996CF7Z0Y3F4KVQ7DFLTE4FJB13,3S96KQ6I9QKVDFC717NV51WWTVMDTI,6,5
225,1,object_04,object_03,411.10000038147,1,1,459.90000152588,0.0,1,object_09,5,2560,0,0,4,desert_2,2,memory-2step-stake-s,732,2961740,0.0-19.0-0.1-0.225,A24BN4WKUH4LR2,306996CF7Z0Y3F4KVQ7DFLTE4FJB13,3S96KQ6I9QKVDFC717NV51WWTVMDTI,1,2
226,2,object_06,object_07,657.29999923706,3,2,460.89999961853,0.2222222222222222,1,object_09,5,2570,0,2,8,forest_1,2,memory-2step-stake-s,733,2969685,0.0-19.0-0.1-0.226,A24BN4WKUH4LR2,306996CF7Z0Y3F4KVQ7DFLTE4FJB13,3S96KQ6I9QKVDFC717NV51WWTVMDTI,4,3
227,2,object_07,object_06,946.5,3,1,542.89999961853,0.2222222222222222,1,object_09,5,2580,0,2,8,forest_7,2,memory-2step-stake-s,734,2977698,0.0-19.0-0.1-0.227,A24BN4WKUH4LR2,306996CF7Z0Y3F4KVQ7DFLTE4FJB13,3S96KQ6I9QKVDFC717NV51WWTVMDTI,3,4
228,4,object_05,object_10,554.70000076294,7,2,555.70000076294,0.1111111111111111,1,object_09,1,2581,0,1,9,restaurant_5,2,memory-2step-stake-s,735,2985649,0.0-19.0-0.1-0.228,A24BN4WKUH4LR2,306996CF7Z0Y3F4KVQ7DFLTE4FJB13,3S96KQ6I9QKVDFC717NV51WWTVMDTI,8,7
229,3,object_01,object_02,716.69999885559,5,1,972.60000038147,0.2222222222222222,1,object_09,1,2583,0,2,8,library_2,2,memory-2step-stake-s,736,2994135,0.0-19.0-0.1-0.229,A24BN4WKUH4LR2,306996CF7Z0Y3F4KVQ7DFLTE4FJB13,3S96KQ6I9QKVDFC717NV51WWTVMDTI,5,6
230,1,object_04,object_03,-1.0,-1,-1,-1.0,0.0,-,0,5,2583,0,2,7,desert_5,2,memory-2step-stake-s,737,3000678,0.0-19.0-0.1-0.230,A24BN4WKUH4LR2,306996CF7Z0Y3F4KVQ7DFLTE4FJB13,3S96KQ6I9QKVDFC717NV51WWTVMDTI,1,2
231,3,object_02,object_01,-1.0,-1,-1,-1.0,0.0,-,0,1,2583,0,1,6,library_7,2,memory-2step-stake-s,738,3007229,0.0-19.0-0.1-0.231,A24BN4WKUH4LR2,306996CF7Z0Y3F4KVQ7DFLTE4FJB13,3S96KQ6I9QKVDFC717NV51WWTVMDTI,6,5
232,4,object_10,object_05,389.79999923706,7,1,671.40000152588,0.1111111111111111,1,object_09,1,2584,0,1,5,restaurant_7,2,memory-2step-stake-s,739,3015281,0.0-19.0-0.1-0.232,A24BN4WKUH4LR2,306996CF7Z0Y3F4KVQ7DFLTE4FJB13,3S96KQ6I9QKVDFC717NV51WWTVMDTI,7,8
233,3,object_02,object_01,857.29999923706,5,2,1128.5,0.1111111111111111,1,object_09,1,2585,0,1,3,library_2,2,memory-2step-stake-s,740,3023794,0.0-19.0-0.1-0.233,A24BN4WKUH4LR2,306996CF7Z0Y3F4KVQ7DFLTE4FJB13,3S96KQ6I9QKVDFC717NV51WWTVMDTI,6,5
234,1,object_04,object_03,630.89999961853,1,1,1230.3000011444,0.1111111111111111,1,object_09,5,2590,0,1,1,desert_4,2,memory-2step-stake-s,741,3032442,0.0-19.0-0.1-0.234,A24BN4WKUH4LR2,306996CF7Z0Y3F4KVQ7DFLTE4FJB13,3S96KQ6I9QKVDFC717NV51WWTVMDTI,1,2
235,3,object_01,object_02,708.89999961853,6,2,475.10000038147,0.2222222222222222,2,object_08,1,2592,0,1,2,library_8,2,memory-2step-stake-s,742,3040436,0.0-19.0-0.1-0.235,A24BN4WKUH4LR2,306996CF7Z0Y3F4KVQ7DFLTE4FJB13,3S96KQ6I9QKVDFC717NV51WWTVMDTI,5,6
236,2,object_07,object_06,620.20000076294,3,1,538.69999885559,0.2222222222222222,1,object_09,5,2602,0,2,1,forest_7,2,memory-2step-stake-s,743,3048448,0.0-19.0-0.1-0.236,A24BN4WKUH4LR2,306996CF7Z0Y3F4KVQ7DFLTE4FJB13,3S96KQ6I9QKVDFC717NV51WWTVMDTI,3,4
237,1,object_03,object_04,1295.2999992371,1,2,407.5,0.1111111111111111,1,object_09,5,2607,0,1,1,desert_4,2,memory-2step-stake-s,744,3056264,0.0-19.0-0.1-0.237,A24BN4WKUH4LR2,306996CF7Z0Y3F4KVQ7DFLTE4FJB13,3S96KQ6I9QKVDFC717NV51WWTVMDTI,2,1
238,3,object_02,object_01,722.20000076294,6,1,1091.7999992371,0.0,2,object_08,1,2607,0,1,0,library_6,2,memory-2step-stake-s,745,3064669,0.0-19.0-0.1-0.238,A24BN4WKUH4LR2,306996CF7Z0Y3F4KVQ7DFLTE4FJB13,3S96KQ6I9QKVDFC717NV51WWTVMDTI,6,5
239,4,object_10,object_05,367.39999961853,8,2,615.10000038147,0.0,2,object_08,5,2607,0,1,0,restaurant_8,2,memory-2step-stake-s,746,3072564,0.0-19.0-0.1-0.239,A24BN4WKUH4LR2,306996CF7Z0Y3F4KVQ7DFLTE4FJB13,3S96KQ6I9QKVDFC717NV51WWTVMDTI,7,8
240,2,object_07,object_06,445.0,3,1,-1.0,0.0,1,object_09,1,2607,0,3,1,forest_7,2,memory-2step-stake-s,747,3081154,0.0-19.0-0.1-0.240,A24BN4WKUH4LR2,306996CF7Z0Y3F4KVQ7DFLTE4FJB13,3S96KQ6I9QKVDFC717NV51WWTVMDTI,3,4
241,1,object_03,object_04,328.79999923706,1,2,695.10000038147,0.2222222222222222,1,object_09,5,2617,0,2,2,desert_6,2,memory-2step-stake-s,748,3089346,0.0-19.0-0.1-0.241,A24BN4WKUH4LR2,306996CF7Z0Y3F4KVQ7DFLTE4FJB13,3S96KQ6I9QKVDFC717NV51WWTVMDTI,2,1
242,1,object_04,object_03,414.70000076294,1,1,528.89999961853,0.2222222222222222,1,object_09,5,2627,0,2,1,desert_6,2,memory-2step-stake-s,749,3097401,0.0-19.0-0.1-0.242,A24BN4WKUH4LR2,306996CF7Z0Y3F4KVQ7DFLTE4FJB13,3S96KQ6I9QKVDFC717NV51WWTVMDTI,1,2
243,3,object_01,object_02,571.5,6,2,448.60000038147,0.2222222222222222,2,object_08,1,2629,0,0,2,library_7,2,memory-2step-stake-s,750,3105389,0.0-19.0-0.1-0.243,A24BN4WKUH4LR2,306996CF7Z0Y3F4KVQ7DFLTE4FJB13,3S96KQ6I9QKVDFC717NV51WWTVMDTI,5,6
244,4,object_05,object_10,557.69999885559,7,2,848.10000038147,0.3333333333333333,1,object_09,1,2632,0,3,0,restaurant_5,2,memory-2step-stake-s,751,3113839,0.0-19.0-0.1-0.244,A24BN4WKUH4LR2,306996CF7Z0Y3F4KVQ7DFLTE4FJB13,3S96KQ6I9QKVDFC717NV51WWTVMDTI,8,7
245,3,object_02,object_01,341.80000114441,6,1,623.60000038147,0.1111111111111111,2,object_08,1,2633,0,6,1,library_2,2,memory-2step-stake-s,752,3121865,0.0-19.0-0.1-0.245,A24BN4WKUH4LR2,306996CF7Z0Y3F4KVQ7DFLTE4FJB13,3S96KQ6I9QKVDFC717NV51WWTVMDTI,6,5
246,4,object_05,object_10,-1.0,-1,-1,-1.0,0.0,-,0,1,2633,0,6,1,restaurant_6,2,memory-2step-stake-s,753,3128441,0.0-19.0-0.1-0.246,A24BN4WKUH4LR2,306996CF7Z0Y3F4KVQ7DFLTE4FJB13,3S96KQ6I9QKVDFC717NV51WWTVMDTI,8,7
247,2,object_07,object_06,956.39999961853,3,1,-1.0,0.0,1,object_09,5,2633,0,3,1,forest_3,2,memory-2step-stake-s,754,3137009,0.0-19.0-0.1-0.247,A24BN4WKUH4LR2,306996CF7Z0Y3F4KVQ7DFLTE4FJB13,3S96KQ6I9QKVDFC717NV51WWTVMDTI,3,4
248,1,object_03,object_04,312.39999961853,1,2,985.5,0.6666666666666666,1,object_09,1,2639,0,6,2,desert_2,2,memory-2step-stake-s,755,3145938,0.0-19.0-0.1-0.248,A24BN4WKUH4LR2,306996CF7Z0Y3F4KVQ7DFLTE4FJB13,3S96KQ6I9QKVDFC717NV51WWTVMDTI,2,1
249,2,object_06,object_07,668.5,4,1,470.29999923706,0.1111111111111111,2,object_08,5,2644,0,7,1,forest_7,2,memory-2step-stake-s,756,3153782,0.0-19.0-0.1-0.249,A24BN4WKUH4LR2,306996CF7Z0Y3F4KVQ7DFLTE4FJB13,3S96KQ6I9QKVDFC717NV51WWTVMDTI,4,3
250,3,object_01,object_02,1415.8999996185,6,2,-1.0,0.0,2,object_08,1,2644,0,5,3,library_6,2,memory-2step-stake-s,757,3162351,0.0-19.0-0.1-0.250,A24BN4WKUH4LR2,306996CF7Z0Y3F4KVQ7DFLTE4FJB13,3S96KQ6I9QKVDFC717NV51WWTVMDTI,5,6
251,2,object_06,object_07,838.59999847412,4,1,386.60000038147,0.2222222222222222,2,object_08,5,2654,0,8,2,forest_7,2,memory-2step-stake-s,758,3170239,0.0-19.0-0.1-0.251,A24BN4WKUH4LR2,306996CF7Z0Y3F4KVQ7DFLTE4FJB13,3S96KQ6I9QKVDFC717NV51WWTVMDTI,4,3
252,4,object_10,object_05,366.30000114441,8,2,421.70000076294,0.4444444444444444,2,object_08,1,2658,0,7,4,restaurant_8,2,memory-2step-stake-s,759,3178335,0.0-19.0-0.1-0.252,A24BN4WKUH4LR2,306996CF7Z0Y3F4KVQ7DFLTE4FJB13,3S96KQ6I9QKVDFC717NV51WWTVMDTI,7,8
253,2,object_06,object_07,346.79999923706,4,1,401.40000152588,0.5555555555555556,2,object_08,5,2683,0,8,5,forest_1,2,memory-2step-stake-s,760,3186547,0.0-19.0-0.1-0.253,A24BN4WKUH4LR2,306996CF7Z0Y3F4KVQ7DFLTE4FJB13,3S96KQ6I9QKVDFC717NV51WWTVMDTI,4,3
254,2,object_06,object_07,375.19999885559,4,1,1366.7000007629,0.4444444444444444,2,object_08,5,2703,0,4,4,forest_1,2,memory-2step-stake-s,761,3195603,0.0-19.0-0.1-0.254,A24BN4WKUH4LR2,306996CF7Z0Y3F4KVQ7DFLTE4FJB13,3S96KQ6I9QKVDFC717NV51WWTVMDTI,4,3
255,4,object_10,object_05,653.89999961853,7,1,633.20000076294,0.1111111111111111,1,object_09,1,2704,0,1,5,restaurant_8,2,memory-2step-stake-s,762,3203592,0.0-19.0-0.1-0.255,A24BN4WKUH4LR2,306996CF7Z0Y3F4KVQ7DFLTE4FJB13,3S96KQ6I9QKVDFC717NV51WWTVMDTI,7,8
