,state1,stim_left,stim_right,rt_1,choice1,response1,rt_2,points,state2,stim_state2,stake,score,practice,rews1,rews2,background,high_arm,trial_type,trial_index,time_elapsed,internal_node_id,subid,hitid,assignmentid,stim_left_num,stim_right_num
0,3,object_01,object_03,746.10000002384,5,1,-1.0,0.0,1,object_08,5,0,0,5,0,library_5,1,memory-2step-stake-s,561,2482262,0.0-19.0-0.0-0.0,A1QMJNJ5FGC09,30UZJB2PPKSSO21QHKUJ0S8JS3B35M,3LRLIPTPEUPYCPJ8NOI1E91UPFNAKW,5,6
1,1,object_09,object_06,896.90000003576,1,1,-1.0,0.0,1,object_08,1,0,0,5,1,desert_7,1,memory-2step-stake-s,562,2490793,0.0-19.0-0.0-0.1,A1QMJNJ5FGC09,30UZJB2PPKSSO21QHKUJ0S8JS3B35M,3LRLIPTPEUPYCPJ8NOI1E91UPFNAKW,1,2
2,4,object_05,object_02,414.80000001192,8,1,900.60000002384,0.3333333333333333,2,object_07,5,15,0,6,3,restaurant_7,1,memory-2step-stake-s,563,2499233,0.0-19.0-0.0-0.2,A1QMJNJ5FGC09,30UZJB2PPKSSO21QHKUJ0S8JS3B35M,3LRLIPTPEUPYCPJ8NOI1E91UPFNAKW,8,7
3,1,object_06,object_09,-1.0,-1,-1,-1.0,0.0,-,0,1,15,0,6,2,desert_2,1,memory-2step-stake-s,564,2505747,0.0-19.0-0.0-0.3,A1QMJNJ5FGC09,30UZJB2PPKSSO21QHKUJ0S8JS3B35M,3LRLIPTPEUPYCPJ8NOI1E91UPFNAKW,2,1
4,4,object_05,object_02,46.799999952316,8,1,564.30000001192,0.3333333333333333,2,object_07,5,30,0,6,3,restaurant_7,1,memory-2step-stake-s,565,2513866,0.0-19.0-0.0-0.4,A1QMJNJ5FGC09,30UZJB2PPKSSO21QHKUJ0S8JS3B35M,3LRLIPTPEUPYCPJ8NOI1E91UPFNAKW,8,7
5,2,object_04,object_10,1305.6999999881,4,1,897.39999997616,0.3333333333333333,2,object_07,1,33,0,5,3,forest_1,1,memory-2step-stake-s,566,2522289,0.0-19.0-0.0-0.5,A1QMJNJ5FGC09,30UZJB2PPKSSO21QHKUJ0S8JS3B35M,3LRLIPTPEUPYCPJ8NOI1E91UPFNAKW,4,3
6,3,object_01,object_03,920.80000001192,5,1,1360.8000000119,0.8888888888888888,1,object_08,5,73,0,8,4,library_1,1,memory-2step-stake-s,567,2531718,0.0-19.0-0.0-0.6,A1QMJNJ5FGC09,30UZJB2PPKSSO21QHKUJ0S8JS3B35M,3LRLIPTPEUPYCPJ8NOI1E91UPFNAKW,5,6
7,4,object_02,object_05,1291.5,8,2,881.5,0.5555555555555556,2,object_07,1,78,0,8,5,restaurant_6,1,memory-2step-stake-s,568,2540347,0.0-19.0-0.0-0.7,A1QMJNJ5FGC09,30UZJB2PPKSSO21QHKUJ0S8JS3B35M,3LRLIPTPEUPYCPJ8NOI1E91UPFNAKW,7,8
8,2,object_04,object_10,880.80000001192,3,2,-1.0,0.0,1,object_08,1,78,0,6,6,forest_2,1,memory-2step-stake-s,569,2548871,0.0-19.0-0.0-0.8,A1QMJNJ5FGC09,30UZJB2PPKSSO21QHKUJ0S8JS3B35M,3LRLIPTPEUPYCPJ8NOI1E91UPFNAKW,4,3
9,3,object_01,object_03,1070.7999999523,5,1,611.60000002384,0.5555555555555556,1,object_08,1,83,0,5,4,library_5,1,memory-2step-stake-s,570,2557231,0.0-19.0-0.0-0.9,A1QMJNJ5FGC09,30UZJB2PPKSSO21QHKUJ0S8JS3B35M,3LRLIPTPEUPYCPJ8NOI1E91UPFNAKW,5,6
10,4,object_02,object_05,1299.0,8,2,622.5,0.5555555555555556,2,object_07,5,108,0,6,5,restaurant_4,1,memory-2step-stake-s,571,2565597,0.0-19.0-0.0-0.10,A1QMJNJ5FGC09,30UZJB2PPKSSO21QHKUJ0S8JS3B35M,3LRLIPTPEUPYCPJ8NOI1E91UPFNAKW,7,8
11,4,object_05,object_02,763.90000003576,7,2,1176.1999999881,0.7777777777777778,1,object_08,5,143,0,7,4,restaurant_7,1,memory-2step-stake-s,572,2574726,0.0-19.0-0.0-0.11,A1QMJNJ5FGC09,30UZJB2PPKSSO21QHKUJ0S8JS3B35M,3LRLIPTPEUPYCPJ8NOI1E91UPFNAKW,8,7
12,4,object_02,object_05,426.19999998808,8,2,583.5,0.4444444444444444,2,object_07,5,163,0,3,4,restaurant_7,1,memory-2step-stake-s,573,2582963,0.0-19.0-0.0-0.12,A1QMJNJ5FGC09,30UZJB2PPKSSO21QHKUJ0S8JS3B35M,3LRLIPTPEUPYCPJ8NOI1E91UPFNAKW,7,8
13,2,object_04,object_10,824.69999998808,4,1,998.40000003576,0.3333333333333333,2,object_07,5,178,0,2,3,forest_1,1,memory-2step-stake-s,574,2591502,0.0-19.0-0.0-0.13,A1QMJNJ5FGC09,30UZJB2PPKSSO21QHKUJ0S8JS3B35M,3LRLIPTPEUPYCPJ8NOI1E91UPFNAKW,4,3
14,3,object_01,object_03,1179.4000000358,5,1,609.30000001192,0.1111111111111111,1,object_08,5,183,0,1,2,library_1,1,memory-2step-stake-s,575,2599447,0.0-19.0-0.0-0.14,A1QMJNJ5FGC09,30UZJB2PPKSSO21QHKUJ0S8JS3B35M,3LRLIPTPEUPYCPJ8NOI1E91UPFNAKW,5,6
15,1,object_06,object_09,599.59999996424,1,2,579.19999998808,0.2222222222222222,1,object_08,1,185,0,2,1,desert_2,1,memory-2step-stake-s,576,2607465,0.0-19.0-0.0-0.15,A1QMJNJ5FGC09,30UZJB2PPKSSO21QHKUJ0S8JS3B35M,3LRLIPTPEUPYCPJ8NOI1E91UPFNAKW,2,1
16,3,object_01,object_03,1114.0,6,2,701.10000002384,0.2222222222222222,2,object_07,5,195,0,4,2,library_1,1,memory-2step-stake-s,577,2615605,0.0-19.0-0.0-0.16,A1QMJNJ5FGC09,30UZJB2PPKSSO21QHKUJ0S8JS3B35M,3LRLIPTPEUPYCPJ8NOI1E91UPFNAKW,5,6
17,3,object_01,object_03,492.80000001192,5,1,543.5,0.3333333333333333,1,object_08,5,210,0,3,5,library_3,1,memory-2step-stake-s,578,2623680,0.0-19.0-0.0-0.17,A1QMJNJ5FGC09,30UZJB2PPKSSO21QHKUJ0S8JS3B35M,3LRLIPTPEUPYCPJ8NOI1E91UPFNAKW,5,6
18,2,object_04,object_10,524.39999997616,4,1,738.19999998808,0.7777777777777778,2,object_07,1,217,0,1,7,forest_3,1,memory-2step-stake-s,579,2632380,0.0-19.0-0.0-0.18,A1QMJNJ5FGC09,30UZJB2PPKSSO21QHKUJ0S8JS3B35M,3LRLIPTPEUPYCPJ8NOI1E91UPFNAKW,4,3
19,4,object_05,object_02,1157.1000000238,8,1,701.80000001192,0.2222222222222222,2,object_07,1,219,0,0,2,restaurant_4,1,memory-2step-stake-s,580,2640515,0.0-19.0-0.0-0.19,A1QMJNJ5FGC09,30UZJB2PPKSSO21QHKUJ0S8JS3B35M,3LRLIPTPEUPYCPJ8NOI1E91UPFNAKW,8,7
20,1,object_09,object_06,461.60000002384,2,2,375.60000002384,0.5555555555555556,2,object_07,1,224,0,0,5,desert_1,1,memory-2step-stake-s,581,2648696,0.0-19.0-0.0-0.20,A1QMJNJ5FGC09,30UZJB2PPKSSO21QHKUJ0S8JS3B35M,3LRLIPTPEUPYCPJ8NOI1E91UPFNAKW,1,2
21,1,object_06,object_09,615.89999997616,1,2,623.80000001192,0.1111111111111111,1,object_08,1,225,0,1,6,desert_7,1,memory-2step-stake-s,582,2656661,0.0-19.0-0.0-0.21,A1QMJNJ5FGC09,30UZJB2PPKSSO21QHKUJ0S8JS3B35M,3LRLIPTPEUPYCPJ8NOI1E91UPFNAKW,2,1
22,4,object_02,object_05,808.40000003576,7,1,461.89999997616,0.1111111111111111,1,object_08,5,230,0,1,8,restaurant_8,1,memory-2step-stake-s,583,2664506,0.0-19.0-0.0-0.22,A1QMJNJ5FGC09,30UZJB2PPKSSO21QHKUJ0S8JS3B35M,3LRLIPTPEUPYCPJ8NOI1E91UPFNAKW,7,8
23,4,object_02,object_05,559.59999996424,7,1,584.5,0.1111111111111111,1,object_08,1,231,0,1,8,restaurant_8,1,memory-2step-stake-s,584,2672427,0.0-19.0-0.0-0.23,A1QMJNJ5FGC09,30UZJB2PPKSSO21QHKUJ0S8JS3B35M,3LRLIPTPEUPYCPJ8NOI1E91UPFNAKW,7,8
24,2,object_10,object_04,-1.0,-1,-1,-1.0,0.0,-,0,1,231,0,0,8,forest_1,1,memory-2step-stake-s,585,2678944,0.0-19.0-0.0-0.24,A1QMJNJ5FGC09,30UZJB2PPKSSO21QHKUJ0S8JS3B35M,3LRLIPTPEUPYCPJ8NOI1E91UPFNAKW,3,4
25,3,object_03,object_01,776.09999996424,6,1,518.5,1.0,2,object_07,5,276,0,3,9,library_6,1,memory-2step-stake-s,586,2687618,0.0-19.0-0.0-0.25,A1QMJNJ5FGC09,30UZJB2PPKSSO21QHKUJ0S8JS3B35M,3LRLIPTPEUPYCPJ8NOI1E91UPFNAKW,6,5
26,4,object_05,object_02,1491.1999999881,8,1,657.09999996424,0.8888888888888888,2,object_07,5,316,0,6,8,restaurant_4,1,memory-2step-stake-s,587,2696310,0.0-19.0-0.0-0.26,A1QMJNJ5FGC09,30UZJB2PPKSSO21QHKUJ0S8JS3B35M,3LRLIPTPEUPYCPJ8NOI1E91UPFNAKW,8,7
27,4,object_02,object_05,-1.0,-1,-1,-1.0,0.0,-,0,5,316,0,8,5,restaurant_6,1,memory-2step-stake-s,588,2702822,0.0-19.0-0.0-0.27,A1QMJNJ5FGC09,30UZJB2PPKSSO21QHKUJ0S8JS3B35M,3LRLIPTPEUPYCPJ8NOI1E91UPFNAKW,7,8
28,1,object_09,object_06,165.90000003576,2,2,369.80000001192,0.7777777777777778,2,object_07,1,323,0,6,7,desert_7,1,memory-2step-stake-s,589,2711125,0.0-19.0-0.0-0.28,A1QMJNJ5FGC09,30UZJB2PPKSSO21QHKUJ0S8JS3B35M,3LRLIPTPEUPYCPJ8NOI1E91UPFNAKW,1,2
29,2,object_04,object_10,673.20000004768,4,1,579.69999998808,0.6666666666666666,2,object_07,1,329,0,7,6,forest_1,1,memory-2step-stake-s,590,2719533,0.0-19.0-0.0-0.29,A1QMJNJ5FGC09,30UZJB2PPKSSO21QHKUJ0S8JS3B35M,3LRLIPTPEUPYCPJ8NOI1E91UPFNAKW,4,3
30,3,object_01,object_03,454.20000004768,5,1,671.80000001192,1.0,1,object_08,5,374,0,9,5,library_6,1,memory-2step-stake-s,591,2728330,0.0-19.0-0.0-0.30,A1QMJNJ5FGC09,30UZJB2PPKSSO21QHKUJ0S8JS3B35M,3LRLIPTPEUPYCPJ8NOI1E91UPFNAKW,5,6
31,1,object_06,object_09,613.0,1,2,496.90000003576,1.0,1,object_08,1,383,0,9,1,desert_7,1,memory-2step-stake-s,592,2736973,0.0-19.0-0.0-0.31,A1QMJNJ5FGC09,30UZJB2PPKSSO21QHKUJ0S8JS3B35M,3LRLIPTPEUPYCPJ8NOI1E91UPFNAKW,2,1
32,1,object_06,object_09,645.10000002384,2,1,408.69999998808,0.2222222222222222,2,object_07,1,385,0,8,2,desert_3,1,memory-2step-stake-s,593,2744818,0.0-19.0-0.0-0.32,A1QMJNJ5FGC09,30UZJB2PPKSSO21QHKUJ0S8JS3B35M,3LRLIPTPEUPYCPJ8NOI1E91UPFNAKW,2,1
33,1,object_06,object_09,385.40000003576,1,2,470.0,0.7777777777777778,1,object_08,1,392,0,7,1,desert_7,1,memory-2step-stake-s,594,2753230,0.0-19.0-0.0-0.33,A1QMJNJ5FGC09,30UZJB2PPKSSO21QHKUJ0S8JS3B35M,3LRLIPTPEUPYCPJ8NOI1E91UPFNAKW,2,1
34,2,object_10,object_04,1078.0,4,2,881.69999998808,0.3333333333333333,2,object_07,5,407,0,8,3,forest_2,1,memory-2step-stake-s,595,2761646,0.0-19.0-0.0-0.34,A1QMJNJ5FGC09,30UZJB2PPKSSO21QHKUJ0S8JS3B35M,3LRLIPTPEUPYCPJ8NOI1E91UPFNAKW,3,4
35,3,object_01,object_03,490.5,5,1,361.90000003576,0.7777777777777778,1,object_08,5,442,0,7,2,library_5,1,memory-2step-stake-s,596,2769962,0.0-19.0-0.0-0.35,A1QMJNJ5FGC09,30UZJB2PPKSSO21QHKUJ0S8JS3B35M,3LRLIPTPEUPYCPJ8NOI1E91UPFNAKW,5,6
36,3,object_01,object_03,1152.7999999523,5,1,568.09999996424,0.7777777777777778,1,object_08,1,449,0,7,4,library_1,1,memory-2step-stake-s,597,2778484,0.0-19.0-0.0-0.36,A1QMJNJ5FGC09,30UZJB2PPKSSO21QHKUJ0S8JS3B35M,3LRLIPTPEUPYCPJ8NOI1E91UPFNAKW,5,6
37,4,object_05,object_02,659.09999996424,8,1,507.39999997616,0.6666666666666666,2,object_07,5,479,0,4,6,restaurant_7,1,memory-2step-stake-s,598,2786825,0.0-19.0-0.0-0.37,A1QMJNJ5FGC09,30UZJB2PPKSSO21QHKUJ0S8JS3B35M,3LRLIPTPEUPYCPJ8NOI1E91UPFNAKW,8,7
38,4,object_05,object_02,376.90000003576,8,1,425.30000001192,0.4444444444444444,2,object_07,5,499,0,7,4,restaurant_8,1,memory-2step-stake-s,599,2794896,0.0-19.0-0.0-0.38,A1QMJNJ5FGC09,30UZJB2PPKSSO21QHKUJ0S8JS3B35M,3LRLIPTPEUPYCPJ8NOI1E91UPFNAKW,8,7
39,4,object_05,object_02,420.5,7,2,496.70000004768,0.5555555555555556,1,object_08,5,524,0,5,4,restaurant_7,1,memory-2step-stake-s,600,2803121,0.0-19.0-0.0-0.39,A1QMJNJ5FGC09,30UZJB2PPKSSO21QHKUJ0S8JS3B35M,3LRLIPTPEUPYCPJ8NOI1E91UPFNAKW,8,7
40,1,object_09,object_06,1164.1999999881,2,2,802.19999998808,0.5555555555555556,2,object_07,1,529,0,6,5,desert_1,1,memory-2step-stake-s,601,2811654,0.0-19.0-0.0-0.40,A1QMJNJ5FGC09,30UZJB2PPKSSO21QHKUJ0S8JS3B35M,3LRLIPTPEUPYCPJ8NOI1E91UPFNAKW,1,2
41,3,object_03,object_01,731.19999998808,5,2,675.09999996424,0.4444444444444444,1,object_08,5,549,0,4,1,library_6,1,memory-2step-stake-s,602,2819954,0.0-19.0-0.0-0.41,A1QMJNJ5FGC09,30UZJB2PPKSSO21QHKUJ0S8JS3B35M,3LRLIPTPEUPYCPJ8NOI1E91UPFNAKW,6,5
42,1,object_09,object_06,438.59999996424,1,1,809.0,0.1111111111111111,1,object_08,1,550,0,1,2,desert_7,1,memory-2step-stake-s,603,2828089,0.0-19.0-0.0-0.42,A1QMJNJ5FGC09,30UZJB2PPKSSO21QHKUJ0S8JS3B35M,3LRLIPTPEUPYCPJ8NOI1E91UPFNAKW,1,2
43,3,object_01,object_03,368.39999997616,6,2,448.90000003576,0.1111111111111111,2,object_07,1,551,0,4,1,library_6,1,memory-2step-stake-s,604,2835861,0.0-19.0-0.0-0.43,A1QMJNJ5FGC09,30UZJB2PPKSSO21QHKUJ0S8JS3B35M,3LRLIPTPEUPYCPJ8NOI1E91UPFNAKW,5,6
44,3,object_03,object_01,529.10000002384,6,1,543.10000002384,0.3333333333333333,2,object_07,5,566,0,4,3,library_5,1,memory-2step-stake-s,605,2843939,0.0-19.0-0.0-0.44,A1QMJNJ5FGC09,30UZJB2PPKSSO21QHKUJ0S8JS3B35M,3LRLIPTPEUPYCPJ8NOI1E91UPFNAKW,6,5
45,4,object_05,object_02,858.69999998808,7,2,660.60000002384,0.6666666666666666,1,object_08,5,596,0,6,3,restaurant_8,1,memory-2step-stake-s,606,2852436,0.0-19.0-0.0-0.45,A1QMJNJ5FGC09,30UZJB2PPKSSO21QHKUJ0S8JS3B35M,3LRLIPTPEUPYCPJ8NOI1E91UPFNAKW,8,7
46,3,object_01,object_03,1267.0,6,2,686.40000003576,0.7777777777777778,2,object_07,5,631,0,5,7,library_1,1,memory-2step-stake-s,607,2861058,0.0-19.0-0.0-0.46,A1QMJNJ5FGC09,30UZJB2PPKSSO21QHKUJ0S8JS3B35M,3LRLIPTPEUPYCPJ8NOI1E91UPFNAKW,5,6
47,1,object_06,object_09,741.59999996424,1,2,464.69999998808,0.7777777777777778,1,object_08,5,666,0,7,4,desert_3,1,memory-2step-stake-s,608,2869471,0.0-19.0-0.0-0.47,A1QMJNJ5FGC09,30UZJB2PPKSSO21QHKUJ0S8JS3B35M,3LRLIPTPEUPYCPJ8NOI1E91UPFNAKW,2,1
48,2,object_04,object_10,491.59999996424,4,1,547.10000002384,0.4444444444444444,2,object_07,1,670,0,6,4,forest_1,1,memory-2step-stake-s,609,2877649,0.0-19.0-0.0-0.48,A1QMJNJ5FGC09,30UZJB2PPKSSO21QHKUJ0S8JS3B35M,3LRLIPTPEUPYCPJ8NOI1E91UPFNAKW,4,3
49,2,object_04,object_10,608.5,4,1,626.10000002384,0.5555555555555556,2,object_07,1,675,0,4,5,forest_8,1,memory-2step-stake-s,610,2886008,0.0-19.0-0.0-0.49,A1QMJNJ5FGC09,30UZJB2PPKSSO21QHKUJ0S8JS3B35M,3LRLIPTPEUPYCPJ8NOI1E91UPFNAKW,4,3
50,2,object_10,object_04,632.19999998808,3,1,419.30000001192,0.5555555555555556,1,object_08,5,700,0,5,3,forest_8,1,memory-2step-stake-s,611,2894184,0.0-19.0-0.0-0.50,A1QMJNJ5FGC09,30UZJB2PPKSSO21QHKUJ0S8JS3B35M,3LRLIPTPEUPYCPJ8NOI1E91UPFNAKW,3,4
51,2,object_10,object_04,933.39999997616,3,1,798.5,0.6666666666666666,1,object_08,1,706,0,6,2,forest_2,1,memory-2step-stake-s,612,2902824,0.0-19.0-0.0-0.51,A1QMJNJ5FGC09,30UZJB2PPKSSO21QHKUJ0S8JS3B35M,3LRLIPTPEUPYCPJ8NOI1E91UPFNAKW,3,4
52,3,object_03,object_01,-1.0,-1,-1,-1.0,0.0,-,0,5,706,0,2,3,library_1,1,memory-2step-stake-s,613,2909345,0.0-19.0-0.0-0.52,A1QMJNJ5FGC09,30UZJB2PPKSSO21QHKUJ0S8JS3B35M,3LRLIPTPEUPYCPJ8NOI1E91UPFNAKW,6,5
53,1,object_09,object_06,587.30000001192,1,1,430.40000003576,0.3333333333333333,1,object_08,1,709,0,3,4,desert_2,1,memory-2step-stake-s,614,2917310,0.0-19.0-0.0-0.53,A1QMJNJ5FGC09,30UZJB2PPKSSO21QHKUJ0S8JS3B35M,3LRLIPTPEUPYCPJ8NOI1E91UPFNAKW,1,2
54,1,object_06,object_09,434.29999995232,1,2,608.90000003576,0.6666666666666666,1,object_08,5,739,0,6,3,desert_2,1,memory-2step-stake-s,615,2925757,0.0-19.0-0.0-0.54,A1QMJNJ5FGC09,30UZJB2PPKSSO21QHKUJ0S8JS3B35M,3LRLIPTPEUPYCPJ8NOI1E91UPFNAKW,2,1
55,3,object_01,object_03,467.59999996424,6,2,440.80000001192,0.1111111111111111,2,object_07,5,744,0,6,1,library_5,1,memory-2step-stake-s,616,2933562,0.0-19.0-0.0-0.55,A1QMJNJ5FGC09,30UZJB2PPKSSO21QHKUJ0S8JS3B35M,3LRLIPTPEUPYCPJ8NOI1E91UPFNAKW,5,6
56,3,object_01,object_03,487.60000002384,5,1,458.60000002384,0.8888888888888888,1,object_08,5,784,0,8,1,library_3,1,memory-2step-stake-s,617,2942158,0.0-19.0-0.0-0.56,A1QMJNJ5FGC09,30UZJB2PPKSSO21QHKUJ0S8JS3B35M,3LRLIPTPEUPYCPJ8NOI1E91UPFNAKW,5,6
57,3,object_03,object_01,423.30000001192,6,1,530.5,0.1111111111111111,2,object_07,5,789,0,8,1,library_3,1,memory-2step-stake-s,618,2950016,0.0-19.0-0.0-0.57,A1QMJNJ5FGC09,30UZJB2PPKSSO21QHKUJ0S8JS3B35M,3LRLIPTPEUPYCPJ8NOI1E91UPFNAKW,6,5
58,4,object_05,object_02,484.30000001192,7,2,608.89999997616,0.7777777777777778,1,object_08,1,796,0,7,2,restaurant_6,1,memory-2step-stake-s,619,2958603,0.0-19.0-0.0-0.58,A1QMJNJ5FGC09,30UZJB2PPKSSO21QHKUJ0S8JS3B35M,3LRLIPTPEUPYCPJ8NOI1E91UPFNAKW,8,7
59,3,object_03,object_01,445.80000001192,5,2,705.0,0.8888888888888888,1,object_08,5,836,0,8,1,library_3,1,memory-2step-stake-s,620,2967414,0.0-19.0-0.0-0.59,A1QMJNJ5FGC09,30UZJB2PPKSSO21QHKUJ0S8JS3B35M,3LRLIPTPEUPYCPJ8NOI1E91UPFNAKW,6,5
60,3,object_03,object_01,520.5,5,2,731.39999997616,1.0,1,object_08,1,845,0,9,3,library_5,1,memory-2step-stake-s,621,2976307,0.0-19.0-0.0-0.60,A1QMJNJ5FGC09,30UZJB2PPKSSO21QHKUJ0S8JS3B35M,3LRLIPTPEUPYCPJ8NOI1E91UPFNAKW,6,5
61,4,object_05,object_02,647.5,8,1,925.09999996424,0.5555555555555556,2,object_07,1,850,0,7,5,restaurant_4,1,memory-2step-stake-s,622,2984968,0.0-19.0-0.0-0.61,A1QMJNJ5FGC09,30UZJB2PPKSSO21QHKUJ0S8JS3B35M,3LRLIPTPEUPYCPJ8NOI1E91UPFNAKW,8,7
62,4,object_05,object_02,394.19999998808,7,2,424.0,0.7777777777777778,1,object_08,5,885,0,7,7,restaurant_4,1,memory-2step-stake-s,623,2993319,0.0-19.0-0.0-0.62,A1QMJNJ5FGC09,30UZJB2PPKSSO21QHKUJ0S8JS3B35M,3LRLIPTPEUPYCPJ8NOI1E91UPFNAKW,8,7
63,1,object_06,object_09,622.0,1,2,502.19999998808,0.7777777777777778,1,object_08,1,892,0,7,9,desert_1,1,memory-2step-stake-s,624,3001764,0.0-19.0-0.0-0.63,A1QMJNJ5FGC09,30UZJB2PPKSSO21QHKUJ0S8JS3B35M,3LRLIPTPEUPYCPJ8NOI1E91UPFNAKW,2,1
64,2,object_04,object_10,19.5,4,1,485.90000003576,0.6666666666666666,2,object_07,1,898,0,7,6,forest_1,1,memory-2step-stake-s,625,3010071,0.0-19.0-0.0-0.64,A1QMJNJ5FGC09,30UZJB2PPKSSO21QHKUJ0S8JS3B35M,3LRLIPTPEUPYCPJ8NOI1E91UPFNAKW,4,3
65,3,object_03,object_01,577.29999995232,5,2,426.5,0.8888888888888888,1,object_08,5,938,0,8,8,library_6,1,memory-2step-stake-s,626,3018544,0.0-19.0-0.0-0.65,A1QMJNJ5FGC09,30UZJB2PPKSSO21QHKUJ0S8JS3B35M,3LRLIPTPEUPYCPJ8NOI1E91UPFNAKW,6,5
66,3,object_01,object_03,729.60000002384,6,2,512.10000002384,0.5555555555555556,2,object_07,5,963,0,8,5,library_6,1,memory-2step-stake-s,627,3026822,0.0-19.0-0.0-0.66,A1QMJNJ5FGC09,30UZJB2PPKSSO21QHKUJ0S8JS3B35M,3LRLIPTPEUPYCPJ8NOI1E91UPFNAKW,5,6
67,2,object_04,object_10,651.0,3,2,1169.3000000119,1.0,1,object_08,1,972,0,9,6,forest_2,1,memory-2step-stake-s,628,3036126,0.0-19.0-0.0-0.67,A1QMJNJ5FGC09,30UZJB2PPKSSO21QHKUJ0S8JS3B35M,3LRLIPTPEUPYCPJ8NOI1E91UPFNAKW,4,3
68,3,object_03,object_01,378.60000002384,6,1,-1.0,0.0,2,object_07,1,972,0,5,8,library_6,1,memory-2step-stake-s,629,3044652,0.0-19.0-0.0-0.68,A1QMJNJ5FGC09,30UZJB2PPKSSO21QHKUJ0S8JS3B35M,3LRLIPTPEUPYCPJ8NOI1E91UPFNAKW,6,5
69,4,object_02,object_05,440.40000003576,7,1,467.79999995232,0.6666666666666666,1,object_08,1,978,0,6,8,restaurant_6,1,memory-2step-stake-s,630,3052947,0.0-19.0-0.0-0.69,A1QMJNJ5FGC09,30UZJB2PPKSSO21QHKUJ0S8JS3B35M,3LRLIPTPEUPYCPJ8NOI1E91UPFNAKW,7,8
70,4,object_05,object_02,482.10000002384,8,1,539.69999998808,0.7777777777777778,2,object_07,5,1013,0,8,7,restaurant_8,1,memory-2step-stake-s,631,3061419,0.0-19.0-0.0-0.70,A1QMJNJ5FGC09,30UZJB2PPKSSO21QHKUJ0S8JS3B35M,3LRLIPTPEUPYCPJ8NOI1E91UPFNAKW,8,7
71,3,object_03,object_01,514.70000004768,5,2,445.19999998808,0.8888888888888888,1,object_08,5,1053,0,8,4,library_5,1,memory-2step-stake-s,632,3069912,0.0-19.0-0.0-0.71,A1QMJNJ5FGC09,30UZJB2PPKSSO21QHKUJ0S8JS3B35M,3LRLIPTPEUPYCPJ8NOI1E91UPFNAKW,6,5
72,1,object_09,object_06,879.19999998808,2,2,397.0,0.5555555555555556,2,object_07,5,1078,0,9,5,desert_1,1,memory-2step-stake-s,633,3078046,0.0-19.0-0.0-0.72,A1QMJNJ5FGC09,30UZJB2PPKSSO21QHKUJ0S8JS3B35M,3LRLIPTPEUPYCPJ8NOI1E91UPFNAKW,1,2
73,1,object_09,object_06,450.29999995232,2,2,615.89999997616,0.6666666666666666,2,object_07,1,1084,0,7,6,desert_7,1,memory-2step-stake-s,634,3086503,0.0-19.0-0.0-0.73,A1QMJNJ5FGC09,30UZJB2PPKSSO21QHKUJ0S8JS3B35M,3LRLIPTPEUPYCPJ8NOI1E91UPFNAKW,1,2
74,2,object_10,object_04,731.60000002384,3,1,453.80000001192,0.6666666666666666,1,object_08,1,1090,0,6,8,forest_8,1,memory-2step-stake-s,635,3094799,0.0-19.0-0.0-0.74,A1QMJNJ5FGC09,30UZJB2PPKSSO21QHKUJ0S8JS3B35M,3LRLIPTPEUPYCPJ8NOI1E91UPFNAKW,3,4
75,4,object_02,object_05,890.0,8,2,411.39999997616,0.6666666666666666,2,object_07,5,1120,0,4,6,restaurant_4,1,memory-2step-stake-s,636,3103061,0.0-19.0-0.0-0.75,A1QMJNJ5FGC09,30UZJB2PPKSSO21QHKUJ0S8JS3B35M,3LRLIPTPEUPYCPJ8NOI1E91UPFNAKW,7,8
76,1,object_09,object_06,578.89999997616,2,2,703.89999997616,0.5555555555555556,2,object_07,1,1125,0,5,5,desert_1,1,memory-2step-stake-s,637,3111508,0.0-19.0-0.0-0.76,A1QMJNJ5FGC09,30UZJB2PPKSSO21QHKUJ0S8JS3B35M,3LRLIPTPEUPYCPJ8NOI1E91UPFNAKW,1,2
77,3,object_01,object_03,444.5,5,1,983.69999998808,0.5555555555555556,1,object_08,5,1150,0,5,3,library_3,1,memory-2step-stake-s,638,3120232,0.0-19.0-0.0-0.77,A1QMJNJ5FGC09,30UZJB2PPKSSO21QHKUJ0S8JS3B35M,3LRLIPTPEUPYCPJ8NOI1E91UPFNAKW,5,6
78,4,object_05,object_02,867.69999998808,8,1,604.80000001192,0.4444444444444444,2,object_07,5,1170,0,4,4,restaurant_8,1,memory-2step-stake-s,639,3128500,0.0-19.0-0.0-0.78,A1QMJNJ5FGC09,30UZJB2PPKSSO21QHKUJ0S8JS3B35M,3LRLIPTPEUPYCPJ8NOI1E91UPFNAKW,8,7
79,2,object_04,object_10,793.90000003576,4,1,464.0,0.5555555555555556,2,object_07,1,1175,0,5,5,forest_1,1,memory-2step-stake-s,640,3136708,0.0-19.0-0.0-0.79,A1QMJNJ5FGC09,30UZJB2PPKSSO21QHKUJ0S8JS3B35M,3LRLIPTPEUPYCPJ8NOI1E91UPFNAKW,4,3
80,1,object_06,object_09,429.89999997616,1,2,945.20000004768,0.6666666666666666,1,object_08,1,1181,0,6,6,desert_7,1,memory-2step-stake-s,641,3145481,0.0-19.0-0.0-0.80,A1QMJNJ5FGC09,30UZJB2PPKSSO21QHKUJ0S8JS3B35M,3LRLIPTPEUPYCPJ8NOI1E91UPFNAKW,2,1
81,2,object_04,object_10,541.89999997616,4,1,607.60000002384,0.6666666666666666,2,object_07,5,1211,0,8,6,forest_2,1,memory-2step-stake-s,642,3153922,0.0-19.0-0.0-0.81,A1QMJNJ5FGC09,30UZJB2PPKSSO21QHKUJ0S8JS3B35M,3LRLIPTPEUPYCPJ8NOI1E91UPFNAKW,4,3
82,1,object_09,object_06,757.5,2,2,663.30000001192,0.2222222222222222,2,object_07,1,1213,0,9,2,desert_3,1,memory-2step-stake-s,643,3162007,0.0-19.0-0.0-0.82,A1QMJNJ5FGC09,30UZJB2PPKSSO21QHKUJ0S8JS3B35M,3LRLIPTPEUPYCPJ8NOI1E91UPFNAKW,1,2
83,1,object_06,object_09,619.10000002384,1,2,910.69999998808,0.8888888888888888,1,object_08,1,1221,0,8,2,desert_2,1,memory-2step-stake-s,644,3170965,0.0-19.0-0.0-0.83,A1QMJNJ5FGC09,30UZJB2PPKSSO21QHKUJ0S8JS3B35M,3LRLIPTPEUPYCPJ8NOI1E91UPFNAKW,2,1
84,2,object_10,object_04,720.09999996424,4,2,464.79999995232,0.1111111111111111,2,object_07,5,1226,0,8,1,forest_3,1,memory-2step-stake-s,645,3178759,0.0-19.0-0.0-0.84,A1QMJNJ5FGC09,30UZJB2PPKSSO21QHKUJ0S8JS3B35M,3LRLIPTPEUPYCPJ8NOI1E91UPFNAKW,3,4
85,4,object_05,object_02,548.69999998808,8,1,341.90000003576,0.5555555555555556,2,object_07,5,1251,0,6,5,restaurant_7,1,memory-2step-stake-s,646,3186832,0.0-19.0-0.0-0.85,A1QMJNJ5FGC09,30UZJB2PPKSSO21QHKUJ0S8JS3B35M,3LRLIPTPEUPYCPJ8NOI1E91UPFNAKW,8,7
86,2,object_04,object_10,845.39999997616,3,2,424.09999996424,0.8888888888888888,1,object_08,1,1259,0,8,8,forest_2,1,memory-2step-stake-s,647,3195303,0.0-19.0-0.0-0.86,A1QMJNJ5FGC09,30UZJB2PPKSSO21QHKUJ0S8JS3B35M,3LRLIPTPEUPYCPJ8NOI1E91UPFNAKW,4,3
87,2,object_04,object_10,1244.3000000119,3,2,848.29999995232,0.8888888888888888,1,object_08,5,1299,0,8,9,forest_8,1,memory-2step-stake-s,648,3204193,0.0-19.0-0.0-0.87,A1QMJNJ5FGC09,30UZJB2PPKSSO21QHKUJ0S8JS3B35M,3LRLIPTPEUPYCPJ8NOI1E91UPFNAKW,4,3
88,3,object_03,object_01,626.5,5,2,745.89999997616,0.8888888888888888,1,object_08,5,1339,0,8,7,library_5,1,memory-2step-stake-s,649,3212976,0.0-19.0-0.0-0.88,A1QMJNJ5FGC09,30UZJB2PPKSSO21QHKUJ0S8JS3B35M,3LRLIPTPEUPYCPJ8NOI1E91UPFNAKW,6,5
89,2,object_04,object_10,528.70000004768,4,1,577.90000003576,0.7777777777777778,2,object_07,1,1346,0,9,7,forest_3,1,memory-2step-stake-s,650,3221508,0.0-19.0-0.0-0.89,A1QMJNJ5FGC09,30UZJB2PPKSSO21QHKUJ0S8JS3B35M,3LRLIPTPEUPYCPJ8NOI1E91UPFNAKW,4,3
90,3,object_03,object_01,331.5,5,2,472.69999998808,0.7777777777777778,1,object_08,1,1353,0,7,7,library_3,1,memory-2step-stake-s,651,3229930,0.0-19.0-0.0-0.90,A1QMJNJ5FGC09,30UZJB2PPKSSO21QHKUJ0S8JS3B35M,3LRLIPTPEUPYCPJ8NOI1E91UPFNAKW,6,5
91,4,object_02,object_05,286.0,8,2,405.89999997616,0.7777777777777778,2,object_07,1,1360,0,9,7,restaurant_7,1,memory-2step-stake-s,652,3238268,0.0-19.0-0.0-0.91,A1QMJNJ5FGC09,30UZJB2PPKSSO21QHKUJ0S8JS3B35M,3LRLIPTPEUPYCPJ8NOI1E91UPFNAKW,7,8
92,3,object_01,object_03,505.80000001192,5,1,589.80000001192,1.0,1,object_08,5,1405,0,9,8,library_1,1,memory-2step-stake-s,653,3246998,0.0-19.0-0.0-0.92,A1QMJNJ5FGC09,30UZJB2PPKSSO21QHKUJ0S8JS3B35M,3LRLIPTPEUPYCPJ8NOI1E91UPFNAKW,5,6
93,4,object_05,object_02,711.20000004768,8,1,563.60000002384,0.7777777777777778,2,object_07,5,1440,0,9,7,restaurant_8,1,memory-2step-stake-s,654,3255499,0.0-19.0-0.0-0.93,A1QMJNJ5FGC09,30UZJB2PPKSSO21QHKUJ0S8JS3B35M,3LRLIPTPEUPYCPJ8NOI1E91UPFNAKW,8,7
94,3,object_01,object_03,1185.1999999881,5,1,623.89999997616,1.0,1,object_08,5,1485,0,9,8,library_5,1,memory-2step-stake-s,655,3264260,0.0-19.0-0.0-0.94,A1QMJNJ5FGC09,30UZJB2PPKSSO21QHKUJ0S8JS3B35M,3LRLIPTPEUPYCPJ8NOI1E91UPFNAKW,5,6
95,3,object_01,object_03,543.60000002384,6,2,475.10000002384,0.7777777777777778,2,object_07,1,1492,0,7,7,library_3,1,memory-2step-stake-s,656,3272684,0.0-19.0-0.0-0.95,A1QMJNJ5FGC09,30UZJB2PPKSSO21QHKUJ0S8JS3B35M,3LRLIPTPEUPYCPJ8NOI1E91UPFNAKW,5,6
96,4,object_02,object_05,457.5,7,1,513.20000004768,0.4444444444444444,1,object_08,1,1496,0,4,6,restaurant_6,1,memory-2step-stake-s,657,3280832,0.0-19.0-0.0-0.96,A1QMJNJ5FGC09,30UZJB2PPKSSO21QHKUJ0S8JS3B35M,3LRLIPTPEUPYCPJ8NOI1E91UPFNAKW,7,8
97,2,object_04,object_10,546.60000002384,4,1,487.40000003576,0.7777777777777778,2,object_07,1,1503,0,7,7,forest_1,1,memory-2step-stake-s,658,3289273,0.0-19.0-0.0-0.97,A1QMJNJ5FGC09,30UZJB2PPKSSO21QHKUJ0S8JS3B35M,3LRLIPTPEUPYCPJ8NOI1E91UPFNAKW,4,3
98,1,object_09,object_06,576.19999998808,2,2,602.59999996424,0.8888888888888888,2,object_07,1,1511,0,9,8,desert_3,1,memory-2step-stake-s,659,3297952,0.0-19.0-0.0-0.98,A1QMJNJ5FGC09,30UZJB2PPKSSO21QHKUJ0S8JS3B35M,3LRLIPTPEUPYCPJ8NOI1E91UPFNAKW,1,2
99,2,object_04,object_10,559.0,3,2,487.40000003576,0.5555555555555556,1,object_08,1,1516,0,5,6,forest_2,1,memory-2step-stake-s,660,3306198,0.0-19.0-0.0-0.99,A1QMJNJ5FGC09,30UZJB2PPKSSO21QHKUJ0S8JS3B35M,3LRLIPTPEUPYCPJ8NOI1E91UPFNAKW,4,3
100,4,object_02,object_05,417.69999998808,7,1,720.19999998808,0.4444444444444444,1,object_08,5,1536,0,4,7,restaurant_8,1,memory-2step-stake-s,661,3314556,0.0-19.0-0.0-0.100,A1QMJNJ5FGC09,30UZJB2PPKSSO21QHKUJ0S8JS3B35M,3LRLIPTPEUPYCPJ8NOI1E91UPFNAKW,7,8
101,4,object_05,object_02,410.80000001192,7,2,522.5,0.3333333333333333,1,object_08,5,1551,0,3,5,restaurant_8,1,memory-2step-stake-s,662,3322612,0.0-19.0-0.0-0.101,A1QMJNJ5FGC09,30UZJB2PPKSSO21QHKUJ0S8JS3B35M,3LRLIPTPEUPYCPJ8NOI1E91UPFNAKW,8,7
102,1,object_09,object_06,794.60000002384,1,1,1334.5,0.2222222222222222,1,object_08,1,1553,0,2,5,desert_1,1,memory-2step-stake-s,663,3331382,0.0-19.0-0.0-0.102,A1QMJNJ5FGC09,30UZJB2PPKSSO21QHKUJ0S8JS3B35M,3LRLIPTPEUPYCPJ8NOI1E91UPFNAKW,1,2
103,1,object_06,object_09,969.60000002384,2,1,736.80000001192,0.8888888888888888,2,object_07,1,1561,0,3,8,desert_2,1,memory-2step-stake-s,664,3340157,0.0-19.0-0.0-0.103,A1QMJNJ5FGC09,30UZJB2PPKSSO21QHKUJ0S8JS3B35M,3LRLIPTPEUPYCPJ8NOI1E91UPFNAKW,2,1
104,4,object_05,object_02,450.19999998808,7,2,487.80000001192,0.4444444444444444,1,object_08,1,1565,0,4,8,restaurant_6,1,memory-2step-stake-s,665,3348294,0.0-19.0-0.0-0.104,A1QMJNJ5FGC09,30UZJB2PPKSSO21QHKUJ0S8JS3B35M,3LRLIPTPEUPYCPJ8NOI1E91UPFNAKW,8,7
105,3,object_03,object_01,612.0,6,1,515.69999998808,0.7777777777777778,2,object_07,5,1600,0,2,7,library_5,1,memory-2step-stake-s,666,3356740,0.0-19.0-0.0-0.105,A1QMJNJ5FGC09,30UZJB2PPKSSO21QHKUJ0S8JS3B35M,3LRLIPTPEUPYCPJ8NOI1E91UPFNAKW,6,5
106,4,object_05,object_02,745.80000001192,7,2,542.90000003576,0.2222222222222222,1,object_08,1,1602,0,2,6,restaurant_8,1,memory-2step-stake-s,667,3364710,0.0-19.0-0.0-0.106,A1QMJNJ5FGC09,30UZJB2PPKSSO21QHKUJ0S8JS3B35M,3LRLIPTPEUPYCPJ8NOI1E91UPFNAKW,8,7
107,4,object_02,object_05,456.0,7,1,442.69999998808,0.3333333333333333,1,object_08,5,1617,0,3,9,restaurant_4,1,memory-2step-stake-s,668,3372677,0.0-19.0-0.0-0.107,A1QMJNJ5FGC09,30UZJB2PPKSSO21QHKUJ0S8JS3B35M,3LRLIPTPEUPYCPJ8NOI1E91UPFNAKW,7,8
108,4,object_02,object_05,566.90000003576,8,2,582.10000002384,0.8888888888888888,2,object_07,5,1657,0,2,8,restaurant_7,1,memory-2step-stake-s,669,3381296,0.0-19.0-0.0-0.108,A1QMJNJ5FGC09,30UZJB2PPKSSO21QHKUJ0S8JS3B35M,3LRLIPTPEUPYCPJ8NOI1E91UPFNAKW,7,8
109,1,object_09,object_06,-1.0,-1,-1,-1.0,0.0,-,0,1,1657,0,5,5,desert_3,1,memory-2step-stake-s,670,3387811,0.0-19.0-0.0-0.109,A1QMJNJ5FGC09,30UZJB2PPKSSO21QHKUJ0S8JS3B35M,3LRLIPTPEUPYCPJ8NOI1E91UPFNAKW,1,2
110,4,object_02,object_05,774.40000003576,8,2,579.19999998808,0.7777777777777778,2,object_07,5,1692,0,8,7,restaurant_4,1,memory-2step-stake-s,671,3396333,0.0-19.0-0.0-0.110,A1QMJNJ5FGC09,30UZJB2PPKSSO21QHKUJ0S8JS3B35M,3LRLIPTPEUPYCPJ8NOI1E91UPFNAKW,7,8
111,4,object_02,object_05,551.79999995232,8,2,398.39999997616,0.4444444444444444,2,object_07,5,1712,0,7,4,restaurant_7,1,memory-2step-stake-s,672,3404363,0.0-19.0-0.0-0.111,A1QMJNJ5FGC09,30UZJB2PPKSSO21QHKUJ0S8JS3B35M,3LRLIPTPEUPYCPJ8NOI1E91UPFNAKW,7,8
112,1,object_09,object_06,604.20000004768,2,2,521.70000004768,0.7777777777777778,2,object_07,1,1719,0,5,7,desert_3,1,memory-2step-stake-s,673,3412818,0.0-19.0-0.0-0.112,A1QMJNJ5FGC09,30UZJB2PPKSSO21QHKUJ0S8JS3B35M,3LRLIPTPEUPYCPJ8NOI1E91UPFNAKW,1,2
113,2,object_04,object_10,418.5,4,1,33.400000035763,0.8888888888888888,2,object_07,1,1727,0,4,8,forest_8,1,memory-2step-stake-s,674,3420902,0.0-19.0-0.0-0.113,A1QMJNJ5FGC09,30UZJB2PPKSSO21QHKUJ0S8JS3B35M,3LRLIPTPEUPYCPJ8NOI1E91UPFNAKW,4,3
114,1,object_09,object_06,1446.6999999881,2,2,823.79999995232,1.0,2,object_07,1,1736,0,3,9,desert_1,1,memory-2step-stake-s,675,3429861,0.0-19.0-0.0-0.114,A1QMJNJ5FGC09,30UZJB2PPKSSO21QHKUJ0S8JS3B35M,3LRLIPTPEUPYCPJ8NOI1E91UPFNAKW,1,2
115,1,object_09,object_06,342.20000004768,1,1,544.39999997616,0.3333333333333333,1,object_08,1,1739,0,3,8,desert_3,1,memory-2step-stake-s,676,3437929,0.0-19.0-0.0-0.115,A1QMJNJ5FGC09,30UZJB2PPKSSO21QHKUJ0S8JS3B35M,3LRLIPTPEUPYCPJ8NOI1E91UPFNAKW,1,2
116,1,object_09,object_06,596.10000002384,1,1,85.800000011921,0.7777777777777778,1,object_08,1,1746,0,7,7,desert_1,1,memory-2step-stake-s,677,3445956,0.0-19.0-0.0-0.116,A1QMJNJ5FGC09,30UZJB2PPKSSO21QHKUJ0S8JS3B35M,3LRLIPTPEUPYCPJ8NOI1E91UPFNAKW,1,2
117,4,object_05,object_02,583.30000001192,7,2,626.0,0.5555555555555556,1,object_08,5,1771,0,5,7,restaurant_6,1,memory-2step-stake-s,678,3454322,0.0-19.0-0.0-0.117,A1QMJNJ5FGC09,30UZJB2PPKSSO21QHKUJ0S8JS3B35M,3LRLIPTPEUPYCPJ8NOI1E91UPFNAKW,8,7
118,2,object_04,object_10,461.30000001192,4,1,517.69999998808,0.6666666666666666,2,object_07,5,1801,0,6,6,forest_2,1,memory-2step-stake-s,679,3462695,0.0-19.0-0.0-0.118,A1QMJNJ5FGC09,30UZJB2PPKSSO21QHKUJ0S8JS3B35M,3LRLIPTPEUPYCPJ8NOI1E91UPFNAKW,4,3
119,3,object_03,object_01,422.60000002384,6,1,388.80000001192,0.4444444444444444,2,object_07,5,1821,0,6,4,library_1,1,memory-2step-stake-s,680,3470715,0.0-19.0-0.0-0.119,A1QMJNJ5FGC09,30UZJB2PPKSSO21QHKUJ0S8JS3B35M,3LRLIPTPEUPYCPJ8NOI1E91UPFNAKW,6,5
120,2,object_10,object_04,534.19999998808,3,1,452.89999997616,0.5555555555555556,1,object_08,1,1826,0,5,5,forest_8,1,memory-2step-stake-s,681,3478902,0.0-19.0-0.0-0.120,A1QMJNJ5FGC09,30UZJB2PPKSSO21QHKUJ0S8JS3B35M,3LRLIPTPEUPYCPJ8NOI1E91UPFNAKW,3,4
121,4,object_05,object_02,-1.0,-1,-1,-1.0,0.0,-,0,5,1826,0,2,7,restaurant_7,1,memory-2step-stake-s,682,3485418,0.0-19.0-0.0-0.121,A1QMJNJ5FGC09,30UZJB2PPKSSO21QHKUJ0S8JS3B35M,3LRLIPTPEUPYCPJ8NOI1E91UPFNAKW,8,7
122,4,object_05,object_02,673.09999996424,7,2,1115.5999999642,0.4444444444444444,1,object_08,5,1846,0,4,7,restaurant_8,1,memory-2step-stake-s,683,3494164,0.0-19.0-0.0-0.122,A1QMJNJ5FGC09,30UZJB2PPKSSO21QHKUJ0S8JS3B35M,3LRLIPTPEUPYCPJ8NOI1E91UPFNAKW,8,7
123,3,object_03,object_01,-1.0,-1,-1,-1.0,0.0,-,0,5,1846,0,6,8,library_1,1,memory-2step-stake-s,684,3500681,0.0-19.0-0.0-0.123,A1QMJNJ5FGC09,30UZJB2PPKSSO21QHKUJ0S8JS3B35M,3LRLIPTPEUPYCPJ8NOI1E91UPFNAKW,6,5
124,2,object_10,object_04,584.30000001192,4,2,579.10000002384,1.0,2,object_07,1,1855,0,4,9,forest_3,1,memory-2step-stake-s,685,3509401,0.0-19.0-0.0-0.124,A1QMJNJ5FGC09,30UZJB2PPKSSO21QHKUJ0S8JS3B35M,3LRLIPTPEUPYCPJ8NOI1E91UPFNAKW,3,4
125,2,object_10,object_04,399.20000004768,3,1,426.80000001192,0.2222222222222222,1,object_08,1,1857,0,2,9,forest_1,1,memory-2step-stake-s,686,3517270,0.0-19.0-0.0-0.125,A1QMJNJ5FGC09,30UZJB2PPKSSO21QHKUJ0S8JS3B35M,3LRLIPTPEUPYCPJ8NOI1E91UPFNAKW,3,4
126,1,object_06,object_09,-1.0,-1,-1,-1.0,0.0,-,0,1,1857,0,0,8,desert_3,1,memory-2step-stake-s,687,3523787,0.0-19.0-0.0-0.126,A1QMJNJ5FGC09,30UZJB2PPKSSO21QHKUJ0S8JS3B35M,3LRLIPTPEUPYCPJ8NOI1E91UPFNAKW,2,1
127,1,object_09,object_06,166.19999998808,1,1,945.40000003576,0.2222222222222222,1,object_08,1,1859,0,2,6,desert_1,1,memory-2step-stake-s,688,3532177,0.0-19.0-0.0-0.127,A1QMJNJ5FGC09,30UZJB2PPKSSO21QHKUJ0S8JS3B35M,3LRLIPTPEUPYCPJ8NOI1E91UPFNAKW,1,2
128,4,object_02,object_05,814.89999997616,7,1,586.09999996424,0.2222222222222222,1,object_08,5,1869,0,2,7,restaurant_7,1,memory-2step-stake-s,690,3809613,0.0-19.0-0.1-0.128,A1QMJNJ5FGC09,30UZJB2PPKSSO21QHKUJ0S8JS3B35M,3LRLIPTPEUPYCPJ8NOI1E91UPFNAKW,7,8
129,1,object_06,object_09,-1.0,-1,-1,-1.0,0.0,-,0,1,1869,0,1,9,desert_2,1,memory-2step-stake-s,691,3816132,0.0-19.0-0.1-0.129,A1QMJNJ5FGC09,30UZJB2PPKSSO21QHKUJ0S8JS3B35M,3LRLIPTPEUPYCPJ8NOI1E91UPFNAKW,2,1
130,2,object_04,object_10,504.39999997616,3,2,504.59999996424,0.0,1,object_08,5,1869,0,0,9,forest_2,1,memory-2step-stake-s,692,3823880,0.0-19.0-0.1-0.130,A1QMJNJ5FGC09,30UZJB2PPKSSO21QHKUJ0S8JS3B35M,3LRLIPTPEUPYCPJ8NOI1E91UPFNAKW,4,3
131,4,object_02,object_05,774.19999998808,8,2,586.89999997616,0.8888888888888888,2,object_07,5,1909,0,1,8,restaurant_6,1,memory-2step-stake-s,693,3832532,0.0-19.0-0.1-0.131,A1QMJNJ5FGC09,30UZJB2PPKSSO21QHKUJ0S8JS3B35M,3LRLIPTPEUPYCPJ8NOI1E91UPFNAKW,7,8
132,2,object_10,object_04,398.90000003576,4,2,406.5,0.6666666666666666,2,object_07,5,1939,0,1,6,forest_1,1,memory-2step-stake-s,694,3840802,0.0-19.0-0.1-0.132,A1QMJNJ5FGC09,30UZJB2PPKSSO21QHKUJ0S8JS3B35M,3LRLIPTPEUPYCPJ8NOI1E91UPFNAKW,3,4
133,1,object_09,object_06,364.69999998808,1,1,484.10000002384,0.2222222222222222,1,object_08,1,1941,0,2,6,desert_3,1,memory-2step-stake-s,695,3848719,0.0-19.0-0.1-0.133,A1QMJNJ5FGC09,30UZJB2PPKSSO21QHKUJ0S8JS3B35M,3LRLIPTPEUPYCPJ8NOI1E91UPFNAKW,1,2
134,1,object_09,object_06,-1.0,-1,-1,-1.0,0.0,-,0,5,1941,0,2,4,desert_1,1,memory-2step-stake-s,696,3855240,0.0-19.0-0.1-0.134,A1QMJNJ5FGC09,30UZJB2PPKSSO21QHKUJ0S8JS3B35M,3LRLIPTPEUPYCPJ8NOI1E91UPFNAKW,1,2
135,3,object_01,object_03,-1.0,-1,-1,-1.0,0.0,-,0,5,1941,0,0,5,library_3,1,memory-2step-stake-s,697,3861764,0.0-19.0-0.1-0.135,A1QMJNJ5FGC09,30UZJB2PPKSSO21QHKUJ0S8JS3B35M,3LRLIPTPEUPYCPJ8NOI1E91UPFNAKW,5,6
136,3,object_01,object_03,351.60000002384,6,2,577.5,1.0,2,object_07,1,1950,0,1,9,library_6,1,memory-2step-stake-s,698,3870495,0.0-19.0-0.1-0.136,A1QMJNJ5FGC09,30UZJB2PPKSSO21QHKUJ0S8JS3B35M,3LRLIPTPEUPYCPJ8NOI1E91UPFNAKW,5,6
137,4,object_05,object_02,614.0,7,2,552.09999996424,0.2222222222222222,1,object_08,5,1960,0,2,8,restaurant_4,1,memory-2step-stake-s,699,3878481,0.0-19.0-0.1-0.137,A1QMJNJ5FGC09,30UZJB2PPKSSO21QHKUJ0S8JS3B35M,3LRLIPTPEUPYCPJ8NOI1E91UPFNAKW,8,7
138,1,object_09,object_06,475.30000001192,1,1,385.90000003576,0.7777777777777778,1,object_08,1,1967,0,7,8,desert_3,1,memory-2step-stake-s,700,3886812,0.0-19.0-0.1-0.138,A1QMJNJ5FGC09,30UZJB2PPKSSO21QHKUJ0S8JS3B35M,3LRLIPTPEUPYCPJ8NOI1E91UPFNAKW,1,2
139,2,object_04,object_10,537.60000002384,3,2,520.5,0.8888888888888888,1,object_08,1,1975,0,8,8,forest_2,1,memory-2step-stake-s,701,3895392,0.0-19.0-0.1-0.139,A1QMJNJ5FGC09,30UZJB2PPKSSO21QHKUJ0S8JS3B35M,3LRLIPTPEUPYCPJ8NOI1E91UPFNAKW,4,3
140,1,object_09,object_06,553.5,2,2,669.09999996424,0.3333333333333333,2,object_07,5,1990,0,6,3,desert_2,1,memory-2step-stake-s,702,3903600,0.0-19.0-0.1-0.140,A1QMJNJ5FGC09,30UZJB2PPKSSO21QHKUJ0S8JS3B35M,3LRLIPTPEUPYCPJ8NOI1E91UPFNAKW,1,2
141,2,object_04,object_10,807.30000001192,3,2,439.80000001192,0.6666666666666666,1,object_08,1,1996,0,6,5,forest_3,1,memory-2step-stake-s,703,3911892,0.0-19.0-0.1-0.141,A1QMJNJ5FGC09,30UZJB2PPKSSO21QHKUJ0S8JS3B35M,3LRLIPTPEUPYCPJ8NOI1E91UPFNAKW,4,3
142,4,object_02,object_05,-1.0,-1,-1,-1.0,0.0,-,0,5,1996,0,6,4,restaurant_7,1,memory-2step-stake-s,704,3918411,0.0-19.0-0.1-0.142,A1QMJNJ5FGC09,30UZJB2PPKSSO21QHKUJ0S8JS3B35M,3LRLIPTPEUPYCPJ8NOI1E91UPFNAKW,7,8
143,4,object_02,object_05,630.09999996424,7,1,501.60000002384,1.0,1,object_08,1,2005,0,9,3,restaurant_4,1,memory-2step-stake-s,705,3927060,0.0-19.0-0.1-0.143,A1QMJNJ5FGC09,30UZJB2PPKSSO21QHKUJ0S8JS3B35M,3LRLIPTPEUPYCPJ8NOI1E91UPFNAKW,7,8
144,2,object_04,object_10,493.10000002384,4,1,414.39999997616,0.5555555555555556,2,object_07,1,2010,0,9,5,forest_8,1,memory-2step-stake-s,706,3935217,0.0-19.0-0.1-0.144,A1QMJNJ5FGC09,30UZJB2PPKSSO21QHKUJ0S8JS3B35M,3LRLIPTPEUPYCPJ8NOI1E91UPFNAKW,4,3
145,3,object_03,object_01,647.70000004768,5,2,593.90000003576,0.7777777777777778,1,object_08,5,2045,0,7,5,library_1,1,memory-2step-stake-s,707,3943766,0.0-19.0-0.1-0.145,A1QMJNJ5FGC09,30UZJB2PPKSSO21QHKUJ0S8JS3B35M,3LRLIPTPEUPYCPJ8NOI1E91UPFNAKW,6,5
146,2,object_04,object_10,545.90000003576,3,2,440.19999998808,0.5555555555555556,1,object_08,1,2050,0,5,7,forest_8,1,memory-2step-stake-s,708,3951953,0.0-19.0-0.1-0.146,A1QMJNJ5FGC09,30UZJB2PPKSSO21QHKUJ0S8JS3B35M,3LRLIPTPEUPYCPJ8NOI1E91UPFNAKW,4,3
147,2,object_10,object_04,446.0,3,1,532.60000002384,0.8888888888888888,1,object_08,1,2058,0,8,8,forest_3,1,memory-2step-stake-s,709,3960556,0.0-19.0-0.1-0.147,A1QMJNJ5FGC09,30UZJB2PPKSSO21QHKUJ0S8JS3B35M,3LRLIPTPEUPYCPJ8NOI1E91UPFNAKW,3,4
148,2,object_10,object_04,490.59999996424,4,2,346.30000001192,0.8888888888888888,2,object_07,1,2066,0,9,8,forest_3,1,memory-2step-stake-s,710,3968961,0.0-19.0-0.1-0.148,A1QMJNJ5FGC09,30UZJB2PPKSSO21QHKUJ0S8JS3B35M,3LRLIPTPEUPYCPJ8NOI1E91UPFNAKW,3,4
149,4,object_02,object_05,562.0,8,2,525.0,0.6666666666666666,2,object_07,5,2096,0,7,6,restaurant_4,1,memory-2step-stake-s,711,3977333,0.0-19.0-0.1-0.149,A1QMJNJ5FGC09,30UZJB2PPKSSO21QHKUJ0S8JS3B35M,3LRLIPTPEUPYCPJ8NOI1E91UPFNAKW,7,8
150,2,object_10,object_04,1149.3000000119,4,2,634.29999995232,0.7777777777777778,2,object_07,1,2103,0,7,7,forest_8,1,memory-2step-stake-s,712,3985904,0.0-19.0-0.1-0.150,A1QMJNJ5FGC09,30UZJB2PPKSSO21QHKUJ0S8JS3B35M,3LRLIPTPEUPYCPJ8NOI1E91UPFNAKW,3,4
151,3,object_03,object_01,702.89999997616,6,1,906.89999997616,0.8888888888888888,2,object_07,1,2111,0,8,8,library_3,1,memory-2step-stake-s,713,3994865,0.0-19.0-0.1-0.151,A1QMJNJ5FGC09,30UZJB2PPKSSO21QHKUJ0S8JS3B35M,3LRLIPTPEUPYCPJ8NOI1E91UPFNAKW,6,5
152,1,object_06,object_09,563.5,2,1,961.80000001192,0.6666666666666666,2,object_07,1,2117,0,9,6,desert_7,1,memory-2step-stake-s,714,4003653,0.0-19.0-0.1-0.152,A1QMJNJ5FGC09,30UZJB2PPKSSO21QHKUJ0S8JS3B35M,3LRLIPTPEUPYCPJ8NOI1E91UPFNAKW,2,1
153,3,object_03,object_01,105.40000003576,5,2,1082.5999999642,0.7777777777777778,1,object_08,5,2152,0,7,3,library_5,1,memory-2step-stake-s,715,4012660,0.0-19.0-0.1-0.153,A1QMJNJ5FGC09,30UZJB2PPKSSO21QHKUJ0S8JS3B35M,3LRLIPTPEUPYCPJ8NOI1E91UPFNAKW,6,5
154,4,object_05,object_02,1187.1000000238,8,1,671.89999997616,0.4444444444444444,2,object_07,5,2172,0,6,4,restaurant_4,1,memory-2step-stake-s,716,4020962,0.0-19.0-0.1-0.154,A1QMJNJ5FGC09,30UZJB2PPKSSO21QHKUJ0S8JS3B35M,3LRLIPTPEUPYCPJ8NOI1E91UPFNAKW,8,7
155,1,object_09,object_06,740.89999997616,2,2,67.699999988079,0.3333333333333333,2,object_07,1,2175,0,7,3,desert_1,1,memory-2step-stake-s,717,4028553,0.0-19.0-0.1-0.155,A1QMJNJ5FGC09,30UZJB2PPKSSO21QHKUJ0S8JS3B35M,3LRLIPTPEUPYCPJ8NOI1E91UPFNAKW,1,2
156,1,object_06,object_09,718.19999998808,2,1,11.100000023842,0.1111111111111111,2,object_07,1,2176,0,8,1,desert_2,1,memory-2step-stake-s,718,4035887,0.0-19.0-0.1-0.156,A1QMJNJ5FGC09,30UZJB2PPKSSO21QHKUJ0S8JS3B35M,3LRLIPTPEUPYCPJ8NOI1E91UPFNAKW,2,1
157,2,object_04,object_10,344.0,3,2,211.80000001192,1.0,1,object_08,1,2185,0,9,3,forest_3,1,memory-2step-stake-s,719,4044267,0.0-19.0-0.1-0.157,A1QMJNJ5FGC09,30UZJB2PPKSSO21QHKUJ0S8JS3B35M,3LRLIPTPEUPYCPJ8NOI1E91UPFNAKW,4,3
158,2,object_04,object_10,596.39999997616,3,2,573.39999997616,0.7777777777777778,1,object_08,5,2220,0,7,5,forest_3,1,memory-2step-stake-s,720,4052778,0.0-19.0-0.1-0.158,A1QMJNJ5FGC09,30UZJB2PPKSSO21QHKUJ0S8JS3B35M,3LRLIPTPEUPYCPJ8NOI1E91UPFNAKW,4,3
159,1,object_06,object_09,513.39999997616,2,1,653.19999998808,0.4444444444444444,2,object_07,5,2240,0,5,4,desert_2,1,memory-2step-stake-s,721,4061062,0.0-19.0-0.1-0.159,A1QMJNJ5FGC09,30UZJB2PPKSSO21QHKUJ0S8JS3B35M,3LRLIPTPEUPYCPJ8NOI1E91UPFNAKW,2,1
160,2,object_04,object_10,423.90000003576,4,1,490.20000004768,0.4444444444444444,2,object_07,1,2244,0,5,4,forest_2,1,memory-2step-stake-s,722,4069194,0.0-19.0-0.1-0.160,A1QMJNJ5FGC09,30UZJB2PPKSSO21QHKUJ0S8JS3B35M,3LRLIPTPEUPYCPJ8NOI1E91UPFNAKW,4,3
161,3,object_03,object_01,476.40000003576,5,2,202.39999997616,0.6666666666666666,1,object_08,5,2274,0,6,2,library_1,1,memory-2step-stake-s,723,4077247,0.0-19.0-0.1-0.161,A1QMJNJ5FGC09,30UZJB2PPKSSO21QHKUJ0S8JS3B35M,3LRLIPTPEUPYCPJ8NOI1E91UPFNAKW,6,5
162,3,object_01,object_03,-1.0,-1,-1,-1.0,0.0,-,0,1,2274,0,4,5,library_1,1,memory-2step-stake-s,724,4083762,0.0-19.0-0.1-0.162,A1QMJNJ5FGC09,30UZJB2PPKSSO21QHKUJ0S8JS3B35M,3LRLIPTPEUPYCPJ8NOI1E91UPFNAKW,5,6
163,1,object_06,object_09,1064.5999999642,2,1,276.89999997616,0.4444444444444444,2,object_07,5,2294,0,7,4,desert_3,1,memory-2step-stake-s,725,4091682,0.0-19.0-0.1-0.163,A1QMJNJ5FGC09,30UZJB2PPKSSO21QHKUJ0S8JS3B35M,3LRLIPTPEUPYCPJ8NOI1E91UPFNAKW,2,1
164,1,object_09,object_06,325.30000001192,2,2,633.09999996424,0.5555555555555556,2,object_07,5,2319,0,9,5,desert_1,1,memory-2step-stake-s,726,4100047,0.0-19.0-0.1-0.164,A1QMJNJ5FGC09,30UZJB2PPKSSO21QHKUJ0S8JS3B35M,3LRLIPTPEUPYCPJ8NOI1E91UPFNAKW,1,2
165,2,object_04,object_10,748.79999995232,3,2,384.60000002384,0.8888888888888888,1,object_08,5,2359,0,8,5,forest_2,1,memory-2step-stake-s,727,4108487,0.0-19.0-0.1-0.165,A1QMJNJ5FGC09,30UZJB2PPKSSO21QHKUJ0S8JS3B35M,3LRLIPTPEUPYCPJ8NOI1E91UPFNAKW,4,3
166,1,object_06,object_09,576.69999998808,1,2,461.80000001192,0.8888888888888888,1,object_08,5,2399,0,8,6,desert_3,1,memory-2step-stake-s,728,4116985,0.0-19.0-0.1-0.166,A1QMJNJ5FGC09,30UZJB2PPKSSO21QHKUJ0S8JS3B35M,3LRLIPTPEUPYCPJ8NOI1E91UPFNAKW,2,1
167,3,object_03,object_01,533.19999998808,5,2,489.69999998808,0.7777777777777778,1,object_08,5,2434,0,7,6,library_3,1,memory-2step-stake-s,729,4125430,0.0-19.0-0.1-0.167,A1QMJNJ5FGC09,30UZJB2PPKSSO21QHKUJ0S8JS3B35M,3LRLIPTPEUPYCPJ8NOI1E91UPFNAKW,6,5
168,1,object_09,object_06,512.60000002384,1,1,667.0,0.8888888888888888,1,object_08,1,2442,0,8,4,desert_3,1,memory-2step-stake-s,730,4134145,0.0-19.0-0.1-0.168,A1QMJNJ5FGC09,30UZJB2PPKSSO21QHKUJ0S8JS3B35M,3LRLIPTPEUPYCPJ8NOI1E91UPFNAKW,1,2
169,4,object_05,object_02,595.09999996424,8,1,563.19999998808,0.6666666666666666,2,object_07,5,2472,0,7,6,restaurant_4,1,memory-2step-stake-s,731,4142551,0.0-19.0-0.1-0.169,A1QMJNJ5FGC09,30UZJB2PPKSSO21QHKUJ0S8JS3B35M,3LRLIPTPEUPYCPJ8NOI1E91UPFNAKW,8,7
170,1,object_09,object_06,602.60000002384,2,2,555.0,0.5555555555555556,2,object_07,5,2497,0,7,5,desert_2,1,memory-2step-stake-s,732,4150845,0.0-19.0-0.1-0.170,A1QMJNJ5FGC09,30UZJB2PPKSSO21QHKUJ0S8JS3B35M,3LRLIPTPEUPYCPJ8NOI1E91UPFNAKW,1,2
171,3,object_01,object_03,596.5,5,1,228.40000003576,0.5555555555555556,1,object_08,5,2522,0,5,3,library_1,1,memory-2step-stake-s,733,4158822,0.0-19.0-0.1-0.171,A1QMJNJ5FGC09,30UZJB2PPKSSO21QHKUJ0S8JS3B35M,3LRLIPTPEUPYCPJ8NOI1E91UPFNAKW,5,6
172,3,object_03,object_01,355.5,6,1,594.89999997616,0.1111111111111111,2,object_07,5,2527,0,7,1,library_6,1,memory-2step-stake-s,734,4166755,0.0-19.0-0.1-0.172,A1QMJNJ5FGC09,30UZJB2PPKSSO21QHKUJ0S8JS3B35M,3LRLIPTPEUPYCPJ8NOI1E91UPFNAKW,6,5
173,4,object_02,object_05,79.600000023842,8,2,483.0,0.2222222222222222,2,object_07,5,2537,0,4,2,restaurant_8,1,memory-2step-stake-s,735,4174684,0.0-19.0-0.1-0.173,A1QMJNJ5FGC09,30UZJB2PPKSSO21QHKUJ0S8JS3B35M,3LRLIPTPEUPYCPJ8NOI1E91UPFNAKW,7,8
174,2,object_10,object_04,1224.0999999642,3,1,767.10000002384,0.3333333333333333,1,object_08,5,2552,0,3,3,forest_3,1,memory-2step-stake-s,736,4182995,0.0-19.0-0.1-0.174,A1QMJNJ5FGC09,30UZJB2PPKSSO21QHKUJ0S8JS3B35M,3LRLIPTPEUPYCPJ8NOI1E91UPFNAKW,3,4
175,2,object_04,object_10,539.40000003576,4,1,873.30000001192,0.5555555555555556,2,object_07,1,2557,0,3,5,forest_2,1,memory-2step-stake-s,737,4191621,0.0-19.0-0.1-0.175,A1QMJNJ5FGC09,30UZJB2PPKSSO21QHKUJ0S8JS3B35M,3LRLIPTPEUPYCPJ8NOI1E91UPFNAKW,4,3
176,4,object_02,object_05,553.10000002384,8,2,734.29999995232,0.3333333333333333,2,object_07,5,2572,0,3,3,restaurant_7,1,memory-2step-stake-s,738,4199905,0.0-19.0-0.1-0.176,A1QMJNJ5FGC09,30UZJB2PPKSSO21QHKUJ0S8JS3B35M,3LRLIPTPEUPYCPJ8NOI1E91UPFNAKW,7,8
177,3,object_03,object_01,274.0,6,1,916.29999995232,0.1111111111111111,2,object_07,5,2577,0,2,1,library_1,1,memory-2step-stake-s,739,4208155,0.0-19.0-0.1-0.177,A1QMJNJ5FGC09,30UZJB2PPKSSO21QHKUJ0S8JS3B35M,3LRLIPTPEUPYCPJ8NOI1E91UPFNAKW,6,5
178,3,object_03,object_01,23.699999988079,5,2,464.19999998808,0.4444444444444444,1,object_08,5,2597,0,4,0,library_3,1,memory-2step-stake-s,740,4216264,0.0-19.0-0.1-0.178,A1QMJNJ5FGC09,30UZJB2PPKSSO21QHKUJ0S8JS3B35M,3LRLIPTPEUPYCPJ8NOI1E91UPFNAKW,6,5
179,4,object_02,object_05,581.0,7,1,1440.9000000358,0.4444444444444444,1,object_08,5,2617,0,4,1,restaurant_8,1,memory-2step-stake-s,741,4225339,0.0-19.0-0.1-0.179,A1QMJNJ5FGC09,30UZJB2PPKSSO21QHKUJ0S8JS3B35M,3LRLIPTPEUPYCPJ8NOI1E91UPFNAKW,7,8
180,2,object_04,object_10,129.60000002384,3,2,570.09999996424,0.1111111111111111,1,object_08,5,2622,0,1,4,forest_3,1,memory-2step-stake-s,742,4233242,0.0-19.0-0.1-0.180,A1QMJNJ5FGC09,30UZJB2PPKSSO21QHKUJ0S8JS3B35M,3LRLIPTPEUPYCPJ8NOI1E91UPFNAKW,4,3
181,1,object_06,object_09,794.0,2,1,206.69999998808,0.5555555555555556,2,object_07,1,2627,0,1,5,desert_2,1,memory-2step-stake-s,743,4241197,0.0-19.0-0.1-0.181,A1QMJNJ5FGC09,30UZJB2PPKSSO21QHKUJ0S8JS3B35M,3LRLIPTPEUPYCPJ8NOI1E91UPFNAKW,2,1
182,3,object_01,object_03,245.89999997616,6,2,694.0,0.5555555555555556,2,object_07,1,2632,0,3,5,library_3,1,memory-2step-stake-s,744,4249638,0.0-19.0-0.1-0.182,A1QMJNJ5FGC09,30UZJB2PPKSSO21QHKUJ0S8JS3B35M,3LRLIPTPEUPYCPJ8NOI1E91UPFNAKW,5,6
183,4,object_02,object_05,826.89999997616,7,1,233.80000001192,0.4444444444444444,1,object_08,5,2652,0,4,3,restaurant_6,1,memory-2step-stake-s,745,4257519,0.0-19.0-0.1-0.183,A1QMJNJ5FGC09,30UZJB2PPKSSO21QHKUJ0S8JS3B35M,3LRLIPTPEUPYCPJ8NOI1E91UPFNAKW,7,8
184,1,object_09,object_06,13.800000011921,1,1,419.29999995232,0.2222222222222222,1,object_08,1,2654,0,2,3,desert_1,1,memory-2step-stake-s,746,4265368,0.0-19.0-0.1-0.184,A1QMJNJ5FGC09,30UZJB2PPKSSO21QHKUJ0S8JS3B35M,3LRLIPTPEUPYCPJ8NOI1E91UPFNAKW,1,2
185,4,object_05,object_02,-1.0,-1,-1,-1.0,0.0,-,0,5,2654,0,4,3,restaurant_6,1,memory-2step-stake-s,747,4271887,0.0-19.0-0.1-0.185,A1QMJNJ5FGC09,30UZJB2PPKSSO21QHKUJ0S8JS3B35M,3LRLIPTPEUPYCPJ8NOI1E91UPFNAKW,8,7
186,4,object_05,object_02,264.69999998808,8,1,160.89999997616,0.5555555555555556,2,object_07,5,2679,0,5,5,restaurant_6,1,memory-2step-stake-s,748,4279786,0.0-19.0-0.1-0.186,A1QMJNJ5FGC09,30UZJB2PPKSSO21QHKUJ0S8JS3B35M,3LRLIPTPEUPYCPJ8NOI1E91UPFNAKW,8,7
187,2,object_04,object_10,-1.0,-1,-1,-1.0,0.0,-,0,1,2679,0,5,5,forest_2,1,memory-2step-stake-s,749,4286304,0.0-19.0-0.1-0.187,A1QMJNJ5FGC09,30UZJB2PPKSSO21QHKUJ0S8JS3B35M,3LRLIPTPEUPYCPJ8NOI1E91UPFNAKW,4,3
188,3,object_01,object_03,82.0,6,2,303.20000004768,0.1111111111111111,2,object_07,5,2684,0,6,1,library_6,1,memory-2step-stake-s,750,4293935,0.0-19.0-0.1-0.188,A1QMJNJ5FGC09,30UZJB2PPKSSO21QHKUJ0S8JS3B35M,3LRLIPTPEUPYCPJ8NOI1E91UPFNAKW,5,6
189,3,object_03,object_01,1163.1999999881,5,2,489.0,0.6666666666666666,1,object_08,5,2714,0,6,3,library_1,1,memory-2step-stake-s,751,4302273,0.0-19.0-0.1-0.189,A1QMJNJ5FGC09,30UZJB2PPKSSO21QHKUJ0S8JS3B35M,3LRLIPTPEUPYCPJ8NOI1E91UPFNAKW,6,5
190,1,object_09,object_06,815.80000001192,2,2,891.30000001192,0.2222222222222222,2,object_07,1,2716,0,6,2,desert_7,1,memory-2step-stake-s,752,4310619,0.0-19.0-0.1-0.190,A1QMJNJ5FGC09,30UZJB2PPKSSO21QHKUJ0S8JS3B35M,3LRLIPTPEUPYCPJ8NOI1E91UPFNAKW,1,2
191,1,object_09,object_06,1194.5,2,2,613.5,0.3333333333333333,2,object_07,1,2719,0,4,3,desert_1,1,memory-2step-stake-s,753,4318765,0.0-19.0-0.1-0.191,A1QMJNJ5FGC09,30UZJB2PPKSSO21QHKUJ0S8JS3B35M,3LRLIPTPEUPYCPJ8NOI1E91UPFNAKW,1,2
192,4,object_02,object_05,350.80000001192,7,1,518.90000003576,0.5555555555555556,1,object_08,5,2744,0,5,6,restaurant_6,1,memory-2step-stake-s,754,4327026,0.0-19.0-0.1-0.192,A1QMJNJ5FGC09,30UZJB2PPKSSO21QHKUJ0S8JS3B35M,3LRLIPTPEUPYCPJ8NOI1E91UPFNAKW,7,8
193,2,object_10,object_04,445.10000002384,3,1,518.90000003576,0.7777777777777778,1,object_08,5,2779,0,7,4,forest_8,1,memory-2step-stake-s,755,4335495,0.0-19.0-0.1-0.193,A1QMJNJ5FGC09,30UZJB2PPKSSO21QHKUJ0S8JS3B35M,3LRLIPTPEUPYCPJ8NOI1E91UPFNAKW,3,4
194,3,object_01,object_03,620.90000003576,5,1,724.30000001192,1.0,1,object_08,5,2824,0,9,7,library_3,1,memory-2step-stake-s,756,4344367,0.0-19.0-0.1-0.194,A1QMJNJ5FGC09,30UZJB2PPKSSO21QHKUJ0S8JS3B35M,3LRLIPTPEUPYCPJ8NOI1E91UPFNAKW,5,6
195,2,object_04,object_10,580.59999996424,3,2,431.5,0.8888888888888888,1,object_08,1,2832,0,8,9,forest_1,1,memory-2step-stake-s,757,4352882,0.0-19.0-0.1-0.195,A1QMJNJ5FGC09,30UZJB2PPKSSO21QHKUJ0S8JS3B35M,3LRLIPTPEUPYCPJ8NOI1E91UPFNAKW,4,3
196,1,object_09,object_06,440.80000001192,2,2,507.09999996424,0.5555555555555556,2,object_07,1,2837,0,7,5,desert_7,1,memory-2step-stake-s,758,4361131,0.0-19.0-0.1-0.196,A1QMJNJ5FGC09,30UZJB2PPKSSO21QHKUJ0S8JS3B35M,3LRLIPTPEUPYCPJ8NOI1E91UPFNAKW,1,2
197,2,object_10,object_04,201.90000003576,4,2,327.5,0.4444444444444444,2,object_07,1,2841,0,7,4,forest_3,1,memory-2step-stake-s,759,4369103,0.0-19.0-0.1-0.197,A1QMJNJ5FGC09,30UZJB2PPKSSO21QHKUJ0S8JS3B35M,3LRLIPTPEUPYCPJ8NOI1E91UPFNAKW,3,4
198,2,object_10,object_04,403.0,4,2,985.60000002384,0.7777777777777778,2,object_07,1,2848,0,8,7,forest_8,1,memory-2step-stake-s,760,4378045,0.0-19.0-0.1-0.198,A1QMJNJ5FGC09,30UZJB2PPKSSO21QHKUJ0S8JS3B35M,3LRLIPTPEUPYCPJ8NOI1E91UPFNAKW,3,4
199,1,object_06,object_09,1144.3000000119,2,1,1443.0,0.8888888888888888,2,object_07,1,2856,0,4,8,desert_2,1,memory-2step-stake-s,761,4387520,0.0-19.0-0.1-0.199,A1QMJNJ5FGC09,30UZJB2PPKSSO21QHKUJ0S8JS3B35M,3LRLIPTPEUPYCPJ8NOI1E91UPFNAKW,2,1
200,1,object_06,object_09,18.300000011921,2,1,539.39999997616,0.5555555555555556,2,object_07,1,2861,0,6,5,desert_2,1,memory-2step-stake-s,762,4395788,0.0-19.0-0.1-0.200,A1QMJNJ5FGC09,30UZJB2PPKSSO21QHKUJ0S8JS3B35M,3LRLIPTPEUPYCPJ8NOI1E91UPFNAKW,2,1
201,2,object_10,object_04,462.5,4,2,104.5,0.2222222222222222,2,object_07,5,2871,0,9,2,forest_8,1,memory-2step-stake-s,763,4403316,0.0-19.0-0.1-0.201,A1QMJNJ5FGC09,30UZJB2PPKSSO21QHKUJ0S8JS3B35M,3LRLIPTPEUPYCPJ8NOI1E91UPFNAKW,3,4
202,3,object_01,object_03,516.60000002384,6,2,463.30000001192,0.1111111111111111,2,object_07,5,2876,0,9,1,library_6,1,memory-2step-stake-s,764,4411100,0.0-19.0-0.1-0.202,A1QMJNJ5FGC09,30UZJB2PPKSSO21QHKUJ0S8JS3B35M,3LRLIPTPEUPYCPJ8NOI1E91UPFNAKW,5,6
203,3,object_01,object_03,918.0,6,2,659.89999997616,0.3333333333333333,2,object_07,5,2891,0,8,3,library_1,1,memory-2step-stake-s,765,4419282,0.0-19.0-0.1-0.203,A1QMJNJ5FGC09,30UZJB2PPKSSO21QHKUJ0S8JS3B35M,3LRLIPTPEUPYCPJ8NOI1E91UPFNAKW,5,6
204,3,object_03,object_01,427.09999996424,6,1,484.5,0.3333333333333333,2,object_07,5,2906,0,7,3,library_5,1,memory-2step-stake-s,766,4427310,0.0-19.0-0.1-0.204,A1QMJNJ5FGC09,30UZJB2PPKSSO21QHKUJ0S8JS3B35M,3LRLIPTPEUPYCPJ8NOI1E91UPFNAKW,6,5
205,4,object_05,object_02,130.80000001192,7,2,611.30000001192,1.0,1,object_08,5,2951,0,9,6,restaurant_6,1,memory-2step-stake-s,767,4436060,0.0-19.0-0.1-0.205,A1QMJNJ5FGC09,30UZJB2PPKSSO21QHKUJ0S8JS3B35M,3LRLIPTPEUPYCPJ8NOI1E91UPFNAKW,8,7
206,4,object_02,object_05,425.0,7,1,872.09999996424,1.0,1,object_08,5,2996,0,9,4,restaurant_6,1,memory-2step-stake-s,768,4445062,0.0-19.0-0.1-0.206,A1QMJNJ5FGC09,30UZJB2PPKSSO21QHKUJ0S8JS3B35M,3LRLIPTPEUPYCPJ8NOI1E91UPFNAKW,7,8
207,1,object_09,object_06,294.19999998808,2,2,1172.6000000238,0.4444444444444444,2,object_07,1,3000,0,8,4,desert_7,1,memory-2step-stake-s,769,4453858,0.0-19.0-0.1-0.207,A1QMJNJ5FGC09,30UZJB2PPKSSO21QHKUJ0S8JS3B35M,3LRLIPTPEUPYCPJ8NOI1E91UPFNAKW,1,2
208,3,object_03,object_01,1071.3000000119,6,1,462.19999998808,0.0,2,object_07,5,3000,0,9,0,library_6,1,memory-2step-stake-s,770,4461540,0.0-19.0-0.1-0.208,A1QMJNJ5FGC09,30UZJB2PPKSSO21QHKUJ0S8JS3B35M,3LRLIPTPEUPYCPJ8NOI1E91UPFNAKW,6,5
209,2,object_04,object_10,-1.0,-1,-1,-1.0,0.0,-,0,5,3000,0,9,1,forest_1,1,memory-2step-stake-s,771,4468053,0.0-19.0-0.1-0.209,A1QMJNJ5FGC09,30UZJB2PPKSSO21QHKUJ0S8JS3B35M,3LRLIPTPEUPYCPJ8NOI1E91UPFNAKW,4,3
210,3,object_01,object_03,64.399999976158,6,2,542.0,0.2222222222222222,2,object_07,5,3010,0,9,2,library_5,1,memory-2step-stake-s,772,4476022,0.0-19.0-0.1-0.210,A1QMJNJ5FGC09,30UZJB2PPKSSO21QHKUJ0S8JS3B35M,3LRLIPTPEUPYCPJ8NOI1E91UPFNAKW,5,6
211,3,object_03,object_01,412.80000001192,5,2,254.89999997616,0.7777777777777778,1,object_08,5,3045,0,7,2,library_6,1,memory-2step-stake-s,773,4484210,0.0-19.0-0.1-0.211,A1QMJNJ5FGC09,30UZJB2PPKSSO21QHKUJ0S8JS3B35M,3LRLIPTPEUPYCPJ8NOI1E91UPFNAKW,6,5
212,3,object_01,object_03,988.40000003576,5,1,769.5,0.8888888888888888,1,object_08,5,3085,0,8,0,library_5,1,memory-2step-stake-s,774,4493033,0.0-19.0-0.1-0.212,A1QMJNJ5FGC09,30UZJB2PPKSSO21QHKUJ0S8JS3B35M,3LRLIPTPEUPYCPJ8NOI1E91UPFNAKW,5,6
213,1,object_09,object_06,269.5,2,2,8.0,0.4444444444444444,2,object_07,1,3089,0,6,4,desert_7,1,memory-2step-stake-s,775,4500665,0.0-19.0-0.1-0.213,A1QMJNJ5FGC09,30UZJB2PPKSSO21QHKUJ0S8JS3B35M,3LRLIPTPEUPYCPJ8NOI1E91UPFNAKW,1,2
214,1,object_06,object_09,674.80000001192,1,2,45.399999976158,0.5555555555555556,1,object_08,1,3094,0,5,2,desert_3,1,memory-2step-stake-s,776,4508460,0.0-19.0-0.1-0.214,A1QMJNJ5FGC09,30UZJB2PPKSSO21QHKUJ0S8JS3B35M,3LRLIPTPEUPYCPJ8NOI1E91UPFNAKW,2,1
215,1,object_06,object_09,418.69999998808,2,1,917.40000003576,0.2222222222222222,2,object_07,1,3096,0,4,2,desert_7,1,memory-2step-stake-s,777,4516809,0.0-19.0-0.1-0.215,A1QMJNJ5FGC09,30UZJB2PPKSSO21QHKUJ0S8JS3B35M,3LRLIPTPEUPYCPJ8NOI1E91UPFNAKW,2,1
216,4,object_02,object_05,558.5,8,2,709.59999996424,0.3333333333333333,2,object_07,5,3111,0,3,3,restaurant_8,1,memory-2step-stake-s,778,4525049,0.0-19.0-0.1-0.216,A1QMJNJ5FGC09,30UZJB2PPKSSO21QHKUJ0S8JS3B35M,3LRLIPTPEUPYCPJ8NOI1E91UPFNAKW,7,8
217,3,object_03,object_01,436.09999996424,6,1,396.19999998808,0.3333333333333333,2,object_07,5,3126,0,2,3,library_3,1,memory-2step-stake-s,779,4532976,0.0-19.0-0.1-0.217,A1QMJNJ5FGC09,30UZJB2PPKSSO21QHKUJ0S8JS3B35M,3LRLIPTPEUPYCPJ8NOI1E91UPFNAKW,6,5
218,4,object_05,object_02,592.39999997616,8,1,449.69999998808,0.1111111111111111,2,object_07,5,3131,0,7,1,restaurant_7,1,memory-2step-stake-s,780,4540751,0.0-19.0-0.1-0.218,A1QMJNJ5FGC09,30UZJB2PPKSSO21QHKUJ0S8JS3B35M,3LRLIPTPEUPYCPJ8NOI1E91UPFNAKW,8,7
219,4,object_05,object_02,609.0,8,1,489.80000001192,0.1111111111111111,2,object_07,5,3136,0,4,1,restaurant_4,1,memory-2step-stake-s,781,4548567,0.0-19.0-0.1-0.219,A1QMJNJ5FGC09,30UZJB2PPKSSO21QHKUJ0S8JS3B35M,3LRLIPTPEUPYCPJ8NOI1E91UPFNAKW,8,7
220,3,object_01,object_03,1157.5,6,2,446.70000004768,0.2222222222222222,2,object_07,5,3146,0,2,2,library_6,1,memory-2step-stake-s,782,4556439,0.0-19.0-0.1-0.220,A1QMJNJ5FGC09,30UZJB2PPKSSO21QHKUJ0S8JS3B35M,3LRLIPTPEUPYCPJ8NOI1E91UPFNAKW,5,6
221,1,object_09,object_06,452.80000001192,2,2,-1.0,0.0,2,object_07,1,3146,0,2,6,desert_3,1,memory-2step-stake-s,783,4564963,0.0-19.0-0.1-0.221,A1QMJNJ5FGC09,30UZJB2PPKSSO21QHKUJ0S8JS3B35M,3LRLIPTPEUPYCPJ8NOI1E91UPFNAKW,1,2
222,2,object_10,object_04,247.40000003576,4,2,564.40000003576,0.4444444444444444,2,object_07,1,3150,0,5,4,forest_3,1,memory-2step-stake-s,784,4573171,0.0-19.0-0.1-0.222,A1QMJNJ5FGC09,30UZJB2PPKSSO21QHKUJ0S8JS3B35M,3LRLIPTPEUPYCPJ8NOI1E91UPFNAKW,3,4
223,3,object_01,object_03,461.30000001192,6,2,527.80000001192,0.4444444444444444,2,object_07,1,3154,0,5,4,library_5,1,memory-2step-stake-s,785,4581340,0.0-19.0-0.1-0.223,A1QMJNJ5FGC09,30UZJB2PPKSSO21QHKUJ0S8JS3B35M,3LRLIPTPEUPYCPJ8NOI1E91UPFNAKW,5,6
224,1,object_06,object_09,414.60000002384,1,2,609.30000001192,0.4444444444444444,1,object_08,1,3158,0,4,1,desert_7,1,memory-2step-stake-s,786,4589581,0.0-19.0-0.1-0.224,A1QMJNJ5FGC09,30UZJB2PPKSSO21QHKUJ0S8JS3B35M,3LRLIPTPEUPYCPJ8NOI1E91UPFNAKW,2,1
225,1,object_06,object_09,464.60000002384,1,2,1278.0,0.3333333333333333,1,object_08,1,3161,0,3,3,desert_7,1,memory-2step-stake-s,787,4598389,0.0-19.0-0.1-0.225,A1QMJNJ5FGC09,30UZJB2PPKSSO21QHKUJ0S8JS3B35M,3LRLIPTPEUPYCPJ8NOI1E91UPFNAKW,2,1
226,1,object_06,object_09,1076.8000000119,2,1,519.39999997616,0.4444444444444444,2,object_07,5,3181,0,5,4,desert_2,1,memory-2step-stake-s,788,4606544,0.0-19.0-0.1-0.226,A1QMJNJ5FGC09,30UZJB2PPKSSO21QHKUJ0S8JS3B35M,3LRLIPTPEUPYCPJ8NOI1E91UPFNAKW,2,1
227,2,object_10,object_04,432.60000002384,4,2,654.5,0.5555555555555556,2,object_07,1,3186,0,5,5,forest_1,1,memory-2step-stake-s,789,4614933,0.0-19.0-0.1-0.227,A1QMJNJ5FGC09,30UZJB2PPKSSO21QHKUJ0S8JS3B35M,3LRLIPTPEUPYCPJ8NOI1E91UPFNAKW,3,4
228,2,object_04,object_10,555.40000003576,3,2,755.29999995232,0.7777777777777778,1,object_08,1,3193,0,7,6,forest_8,1,memory-2step-stake-s,790,4623637,0.0-19.0-0.1-0.228,A1QMJNJ5FGC09,30UZJB2PPKSSO21QHKUJ0S8JS3B35M,3LRLIPTPEUPYCPJ8NOI1E91UPFNAKW,4,3
229,4,object_05,object_02,1041.6999999881,8,1,564.10000002384,0.7777777777777778,2,object_07,5,3228,0,8,7,restaurant_4,1,memory-2step-stake-s,791,4632145,0.0-19.0-0.1-0.229,A1QMJNJ5FGC09,30UZJB2PPKSSO21QHKUJ0S8JS3B35M,3LRLIPTPEUPYCPJ8NOI1E91UPFNAKW,8,7
230,2,object_04,object_10,534.0,4,1,500.60000002384,0.7777777777777778,2,object_07,1,3235,0,7,7,forest_1,1,memory-2step-stake-s,792,4640592,0.0-19.0-0.1-0.230,A1QMJNJ5FGC09,30UZJB2PPKSSO21QHKUJ0S8JS3B35M,3LRLIPTPEUPYCPJ8NOI1E91UPFNAKW,4,3
231,4,object_02,object_05,228.30000001192,8,2,673.5,0.4444444444444444,2,object_07,5,3255,0,6,4,restaurant_8,1,memory-2step-stake-s,793,4648904,0.0-19.0-0.1-0.231,A1QMJNJ5FGC09,30UZJB2PPKSSO21QHKUJ0S8JS3B35M,3LRLIPTPEUPYCPJ8NOI1E91UPFNAKW,7,8
232,2,object_04,object_10,146.39999997616,4,1,424.30000001192,0.4444444444444444,2,object_07,5,3275,0,7,4,forest_8,1,memory-2step-stake-s,794,4656968,0.0-19.0-0.1-0.232,A1QMJNJ5FGC09,30UZJB2PPKSSO21QHKUJ0S8JS3B35M,3LRLIPTPEUPYCPJ8NOI1E91UPFNAKW,4,3
233,3,object_01,object_03,273.10000002384,6,2,701.60000002384,0.5555555555555556,2,object_07,5,3300,0,5,5,library_6,1,memory-2step-stake-s,795,4665397,0.0-19.0-0.1-0.233,A1QMJNJ5FGC09,30UZJB2PPKSSO21QHKUJ0S8JS3B35M,3LRLIPTPEUPYCPJ8NOI1E91UPFNAKW,5,6
234,4,object_02,object_05,1323.0,7,1,611.90000003576,0.5555555555555556,1,object_08,5,3325,0,5,5,restaurant_7,1,memory-2step-stake-s,796,4673756,0.0-19.0-0.1-0.234,A1QMJNJ5FGC09,30UZJB2PPKSSO21QHKUJ0S8JS3B35M,3LRLIPTPEUPYCPJ8NOI1E91UPFNAKW,7,8
235,2,object_10,object_04,1089.3000000119,4,2,20.0,0.7777777777777778,2,object_07,1,3332,0,5,7,forest_3,1,memory-2step-stake-s,797,4681715,0.0-19.0-0.1-0.235,A1QMJNJ5FGC09,30UZJB2PPKSSO21QHKUJ0S8JS3B35M,3LRLIPTPEUPYCPJ8NOI1E91UPFNAKW,3,4
236,2,object_04,object_10,433.10000002384,4,1,589.30000001192,0.8888888888888888,2,object_07,1,3340,0,3,8,forest_2,1,memory-2step-stake-s,798,4690362,0.0-19.0-0.1-0.236,A1QMJNJ5FGC09,30UZJB2PPKSSO21QHKUJ0S8JS3B35M,3LRLIPTPEUPYCPJ8NOI1E91UPFNAKW,4,3
237,2,object_10,object_04,503.5,4,2,549.80000001192,0.7777777777777778,2,object_07,1,3347,0,4,7,forest_3,1,memory-2step-stake-s,799,4698851,0.0-19.0-0.1-0.237,A1QMJNJ5FGC09,30UZJB2PPKSSO21QHKUJ0S8JS3B35M,3LRLIPTPEUPYCPJ8NOI1E91UPFNAKW,3,4
238,2,object_10,object_04,-1.0,-1,-1,-1.0,0.0,-,0,1,3347,0,2,6,forest_1,1,memory-2step-stake-s,800,4705369,0.0-19.0-0.1-0.238,A1QMJNJ5FGC09,30UZJB2PPKSSO21QHKUJ0S8JS3B35M,3LRLIPTPEUPYCPJ8NOI1E91UPFNAKW,3,4
239,1,object_06,object_09,414.80000001192,2,1,453.80000001192,0.3333333333333333,2,object_07,1,3350,0,4,3,desert_1,1,memory-2step-stake-s,801,4713373,0.0-19.0-0.1-0.239,A1QMJNJ5FGC09,30UZJB2PPKSSO21QHKUJ0S8JS3B35M,3LRLIPTPEUPYCPJ8NOI1E91UPFNAKW,2,1
240,3,object_03,object_01,359.39999997616,5,2,6.4000000357628,0.4444444444444444,1,object_08,5,3370,0,4,4,library_6,1,memory-2step-stake-s,802,4721016,0.0-19.0-0.1-0.240,A1QMJNJ5FGC09,30UZJB2PPKSSO21QHKUJ0S8JS3B35M,3LRLIPTPEUPYCPJ8NOI1E91UPFNAKW,6,5
241,4,object_02,object_05,253.60000002384,8,2,542.89999997616,0.7777777777777778,2,object_07,1,3377,0,5,7,restaurant_6,1,memory-2step-stake-s,803,4729508,0.0-19.0-0.1-0.241,A1QMJNJ5FGC09,30UZJB2PPKSSO21QHKUJ0S8JS3B35M,3LRLIPTPEUPYCPJ8NOI1E91UPFNAKW,7,8
242,2,object_04,object_10,141.40000003576,4,1,435.80000001192,0.8888888888888888,2,object_07,1,3385,0,4,8,forest_3,1,memory-2step-stake-s,804,4738013,0.0-19.0-0.1-0.242,A1QMJNJ5FGC09,30UZJB2PPKSSO21QHKUJ0S8JS3B35M,3LRLIPTPEUPYCPJ8NOI1E91UPFNAKW,4,3
243,2,object_04,object_10,196.09999996424,3,2,678.0,0.4444444444444444,1,object_08,1,3389,0,4,7,forest_2,1,memory-2step-stake-s,805,4746351,0.0-19.0-0.1-0.243,A1QMJNJ5FGC09,30UZJB2PPKSSO21QHKUJ0S8JS3B35M,3LRLIPTPEUPYCPJ8NOI1E91UPFNAKW,4,3
244,4,object_05,object_02,59.0,8,1,50.5,0.8888888888888888,2,object_07,5,3429,0,6,8,restaurant_8,1,memory-2step-stake-s,806,4754456,0.0-19.0-0.1-0.244,A1QMJNJ5FGC09,30UZJB2PPKSSO21QHKUJ0S8JS3B35M,3LRLIPTPEUPYCPJ8NOI1E91UPFNAKW,8,7
245,2,object_10,object_04,817.19999998808,4,2,1.6999999880791,0.8888888888888888,2,object_07,1,3437,0,4,8,forest_8,1,memory-2step-stake-s,807,4762523,0.0-19.0-0.1-0.245,A1QMJNJ5FGC09,30UZJB2PPKSSO21QHKUJ0S8JS3B35M,3LRLIPTPEUPYCPJ8NOI1E91UPFNAKW,3,4
246,2,object_04,object_10,12.699999988079,4,1,659.90000003576,0.8888888888888888,2,object_07,1,3445,0,6,8,forest_8,1,memory-2step-stake-s,808,4771230,0.0-19.0-0.1-0.246,A1QMJNJ5FGC09,30UZJB2PPKSSO21QHKUJ0S8JS3B35M,3LRLIPTPEUPYCPJ8NOI1E91UPFNAKW,4,3
247,1,object_06,object_09,444.70000004768,1,2,298.5,0.4444444444444444,1,object_08,1,3449,0,4,6,desert_2,1,memory-2step-stake-s,809,4779180,0.0-19.0-0.1-0.247,A1QMJNJ5FGC09,30UZJB2PPKSSO21QHKUJ0S8JS3B35M,3LRLIPTPEUPYCPJ8NOI1E91UPFNAKW,2,1
248,1,object_09,object_06,731.19999998808,2,2,214.39999997616,0.5555555555555556,2,object_07,1,3454,0,1,5,desert_1,1,memory-2step-stake-s,810,4787138,0.0-19.0-0.1-0.248,A1QMJNJ5FGC09,30UZJB2PPKSSO21QHKUJ0S8JS3B35M,3LRLIPTPEUPYCPJ8NOI1E91UPFNAKW,1,2
249,4,object_02,object_05,504.0,7,1,928.30000001192,0.0,1,object_08,5,3454,0,0,3,restaurant_4,1,memory-2step-stake-s,811,4795294,0.0-19.0-0.1-0.249,A1QMJNJ5FGC09,30UZJB2PPKSSO21QHKUJ0S8JS3B35M,3LRLIPTPEUPYCPJ8NOI1E91UPFNAKW,7,8
250,2,object_04,object_10,805.39999997616,4,1,485.0,0.2222222222222222,2,object_07,5,3464,0,4,2,forest_1,1,memory-2step-stake-s,812,4803209,0.0-19.0-0.1-0.250,A1QMJNJ5FGC09,30UZJB2PPKSSO21QHKUJ0S8JS3B35M,3LRLIPTPEUPYCPJ8NOI1E91UPFNAKW,4,3
251,1,object_06,object_09,202.5,1,2,349.10000002384,0.5555555555555556,1,object_08,5,3489,0,5,0,desert_3,1,memory-2step-stake-s,813,4811310,0.0-19.0-0.1-0.251,A1QMJNJ5FGC09,30UZJB2PPKSSO21QHKUJ0S8JS3B35M,3LRLIPTPEUPYCPJ8NOI1E91UPFNAKW,2,1
252,3,object_03,object_01,417.10000002384,5,2,774.30000001192,0.0,1,object_08,5,3489,0,0,2,library_3,1,memory-2step-stake-s,814,4819312,0.0-19.0-0.1-0.252,A1QMJNJ5FGC09,30UZJB2PPKSSO21QHKUJ0S8JS3B35M,3LRLIPTPEUPYCPJ8NOI1E91UPFNAKW,6,5
253,4,object_05,object_02,-1.0,-1,-1,-1.0,0.0,-,0,5,3489,0,1,3,restaurant_6,1,memory-2step-stake-s,815,4825834,0.0-19.0-0.1-0.253,A1QMJNJ5FGC09,30UZJB2PPKSSO21QHKUJ0S8JS3B35M,3LRLIPTPEUPYCPJ8NOI1E91UPFNAKW,8,7
254,3,object_01,object_03,866.5,5,1,183.59999996424,0.0,1,object_08,1,3489,0,0,4,library_5,1,memory-2step-stake-s,816,4833248,0.0-19.0-0.1-0.254,A1QMJNJ5FGC09,30UZJB2PPKSSO21QHKUJ0S8JS3B35M,3LRLIPTPEUPYCPJ8NOI1E91UPFNAKW,5,6
255,3,object_01,object_03,973.19999998808,6,2,644.90000003576,0.6666666666666666,2,object_07,5,3519,0,1,6,library_3,1,memory-2step-stake-s,817,4841737,0.0-19.0-0.1-0.255,A1QMJNJ5FGC09,30UZJB2PPKSSO21QHKUJ0S8JS3B35M,3LRLIPTPEUPYCPJ8NOI1E91UPFNAKW,5,6
