,state1,stim_left,stim_right,rt_1,choice1,response1,rt_2,points,state2,stim_state2,stake,score,practice,rews1,rews2,background,high_arm,trial_type,trial_index,time_elapsed,internal_node_id,subid,hitid,assignmentid,stim_left_num,stim_right_num
0,4,object_07,object_04,667.14499995578,8,2,-1.0,0.0,2,object_09,5,0,0,1,6,restaurant_7,1,memory-2step-stake-s,493,794960,0.0-19.0-0.0-0.0,A1WS9UHL45VZ0X,32CXT5U15JJVAEXBU2XNZL8A76W8U1,3BF51CHDTZQB9MKIP1IBCB9POCZH00,7,8
1,4,object_07,object_04,1439.6500000148,8,2,751.12999998964,0.7777777777777778,2,object_09,5,35,0,2,7,restaurant_6,1,memory-2step-stake-s,494,803668,0.0-19.0-0.0-0.1,A1WS9UHL45VZ0X,32CXT5U15JJVAEXBU2XNZL8A76W8U1,3BF51CHDTZQB9MKIP1IBCB9POCZH00,7,8
2,4,object_07,object_04,738.45500004245,8,2,605.49499996705,0.8888888888888888,2,object_09,5,75,0,6,8,restaurant_5,1,memory-2step-stake-s,495,812338,0.0-19.0-0.0-0.2,A1WS9UHL45VZ0X,32CXT5U15JJVAEXBU2XNZL8A76W8U1,3BF51CHDTZQB9MKIP1IBCB9POCZH00,7,8
3,3,object_08,object_06,1188.7650000281,5,1,690.41500001913,0.7777777777777778,1,object_05,5,110,0,7,8,library_8,1,memory-2step-stake-s,496,820979,0.0-19.0-0.0-0.3,A1WS9UHL45VZ0X,32CXT5U15JJVAEXBU2XNZL8A76W8U1,3BF51CHDTZQB9MKIP1IBCB9POCZH00,5,6
4,4,object_07,object_04,752.71000002977,8,2,552.92500002543,0.6666666666666666,2,object_09,5,140,0,7,6,restaurant_6,1,memory-2step-stake-s,497,829375,0.0-19.0-0.0-0.4,A1WS9UHL45VZ0X,32CXT5U15JJVAEXBU2XNZL8A76W8U1,3BF51CHDTZQB9MKIP1IBCB9POCZH00,7,8
5,4,object_07,object_04,815.79500000225,8,2,722.86999999778,0.3333333333333333,2,object_09,5,155,0,6,3,restaurant_6,1,memory-2step-stake-s,498,837638,0.0-19.0-0.0-0.5,A1WS9UHL45VZ0X,32CXT5U15JJVAEXBU2XNZL8A76W8U1,3BF51CHDTZQB9MKIP1IBCB9POCZH00,7,8
6,4,object_07,object_04,638.7649999815,7,1,649.05999996699,0.7777777777777778,1,object_05,1,162,0,7,3,restaurant_8,1,memory-2step-stake-s,499,846254,0.0-19.0-0.0-0.6,A1WS9UHL45VZ0X,32CXT5U15JJVAEXBU2XNZL8A76W8U1,3BF51CHDTZQB9MKIP1IBCB9POCZH00,7,8
7,4,object_07,object_04,829.32000001892,7,1,519.99999996042,0.7777777777777778,1,object_05,5,197,0,7,2,restaurant_7,1,memory-2step-stake-s,500,854731,0.0-19.0-0.0-0.7,A1WS9UHL45VZ0X,32CXT5U15JJVAEXBU2XNZL8A76W8U1,3BF51CHDTZQB9MKIP1IBCB9POCZH00,7,8
8,1,object_01,object_10,1152.2099999711,1,1,1025.7499999716,0.4444444444444444,1,object_05,5,217,0,4,5,desert_8,1,memory-2step-stake-s,501,863391,0.0-19.0-0.0-0.8,A1WS9UHL45VZ0X,32CXT5U15JJVAEXBU2XNZL8A76W8U1,3BF51CHDTZQB9MKIP1IBCB9POCZH00,1,2
9,1,object_01,object_10,791.3899999694,2,2,434.07999997726,0.6666666666666666,2,object_09,1,223,0,5,6,desert_2,1,memory-2step-stake-s,502,871679,0.0-19.0-0.0-0.9,A1WS9UHL45VZ0X,32CXT5U15JJVAEXBU2XNZL8A76W8U1,3BF51CHDTZQB9MKIP1IBCB9POCZH00,1,2
10,1,object_01,object_10,1061.8900000118,2,2,467.20499999356,0.8888888888888888,2,object_09,5,263,0,5,8,desert_6,1,memory-2step-stake-s,503,880194,0.0-19.0-0.0-0.10,A1WS9UHL45VZ0X,32CXT5U15JJVAEXBU2XNZL8A76W8U1,3BF51CHDTZQB9MKIP1IBCB9POCZH00,1,2
11,3,object_08,object_06,1380.3199999966,5,1,673.23999997461,0.6666666666666666,1,object_05,1,269,0,6,4,library_7,1,memory-2step-stake-s,504,888716,0.0-19.0-0.0-0.11,A1WS9UHL45VZ0X,32CXT5U15JJVAEXBU2XNZL8A76W8U1,3BF51CHDTZQB9MKIP1IBCB9POCZH00,5,6
12,4,object_04,object_07,909.89499998977,8,1,571.49499998195,0.7777777777777778,2,object_09,5,304,0,7,7,restaurant_8,1,memory-2step-stake-s,505,897228,0.0-19.0-0.0-0.12,A1WS9UHL45VZ0X,32CXT5U15JJVAEXBU2XNZL8A76W8U1,3BF51CHDTZQB9MKIP1IBCB9POCZH00,8,7
13,4,object_07,object_04,770.02499997616,8,2,487.23000002792,0.5555555555555556,2,object_09,5,329,0,6,5,restaurant_7,1,memory-2step-stake-s,506,905461,0.0-19.0-0.0-0.13,A1WS9UHL45VZ0X,32CXT5U15JJVAEXBU2XNZL8A76W8U1,3BF51CHDTZQB9MKIP1IBCB9POCZH00,7,8
14,2,object_02,object_03,1314.8650000221,3,2,603.80500002066,1.0,1,object_05,1,338,0,9,2,forest_8,1,memory-2step-stake-s,507,914225,0.0-19.0-0.0-0.14,A1WS9UHL45VZ0X,32CXT5U15JJVAEXBU2XNZL8A76W8U1,3BF51CHDTZQB9MKIP1IBCB9POCZH00,4,3
15,1,object_01,object_10,944.43999999203,2,2,698.84499994805,0.3333333333333333,2,object_09,1,341,0,8,3,desert_8,1,memory-2step-stake-s,508,922459,0.0-19.0-0.0-0.15,A1WS9UHL45VZ0X,32CXT5U15JJVAEXBU2XNZL8A76W8U1,3BF51CHDTZQB9MKIP1IBCB9POCZH00,1,2
16,2,object_02,object_03,1374.1300000111,3,2,578.67000001715,0.8888888888888888,1,object_05,1,349,0,8,5,forest_8,1,memory-2step-stake-s,509,931087,0.0-19.0-0.0-0.16,A1WS9UHL45VZ0X,32CXT5U15JJVAEXBU2XNZL8A76W8U1,3BF51CHDTZQB9MKIP1IBCB9POCZH00,4,3
17,3,object_08,object_06,1274.4149999926,5,1,511.45499997074,0.6666666666666666,1,object_05,5,379,0,6,6,library_6,1,memory-2step-stake-s,510,939441,0.0-19.0-0.0-0.17,A1WS9UHL45VZ0X,32CXT5U15JJVAEXBU2XNZL8A76W8U1,3BF51CHDTZQB9MKIP1IBCB9POCZH00,5,6
18,2,object_03,object_02,908.86500000488,3,1,808.76499996521,0.5555555555555556,1,object_05,1,384,0,5,8,forest_1,1,memory-2step-stake-s,511,947993,0.0-19.0-0.0-0.18,A1WS9UHL45VZ0X,32CXT5U15JJVAEXBU2XNZL8A76W8U1,3BF51CHDTZQB9MKIP1IBCB9POCZH00,3,4
19,3,object_08,object_06,579.97000002069,5,1,573.82499997038,0.3333333333333333,1,object_05,5,399,0,3,9,library_4,1,memory-2step-stake-s,512,956101,0.0-19.0-0.0-0.19,A1WS9UHL45VZ0X,32CXT5U15JJVAEXBU2XNZL8A76W8U1,3BF51CHDTZQB9MKIP1IBCB9POCZH00,5,6
20,3,object_06,object_08,757.80000002123,6,1,427.90499998955,0.8888888888888888,2,object_09,5,439,0,4,8,library_4,1,memory-2step-stake-s,513,964581,0.0-19.0-0.0-0.20,A1WS9UHL45VZ0X,32CXT5U15JJVAEXBU2XNZL8A76W8U1,3BF51CHDTZQB9MKIP1IBCB9POCZH00,6,5
21,1,object_01,object_10,1023.7750000088,1,1,462.86999998847,0.4444444444444444,1,object_05,1,443,0,4,7,desert_2,1,memory-2step-stake-s,514,972692,0.0-19.0-0.0-0.21,A1WS9UHL45VZ0X,32CXT5U15JJVAEXBU2XNZL8A76W8U1,3BF51CHDTZQB9MKIP1IBCB9POCZH00,1,2
22,2,object_03,object_02,830.64499998,4,2,490.57500000345,0.4444444444444444,2,object_09,5,463,0,2,4,forest_2,1,memory-2step-stake-s,515,980828,0.0-19.0-0.0-0.22,A1WS9UHL45VZ0X,32CXT5U15JJVAEXBU2XNZL8A76W8U1,3BF51CHDTZQB9MKIP1IBCB9POCZH00,3,4
23,3,object_08,object_06,590.25499998825,5,1,389.91999998689,0.1111111111111111,1,object_05,5,468,0,1,1,library_7,1,memory-2step-stake-s,516,988553,0.0-19.0-0.0-0.23,A1WS9UHL45VZ0X,32CXT5U15JJVAEXBU2XNZL8A76W8U1,3BF51CHDTZQB9MKIP1IBCB9POCZH00,5,6
24,3,object_08,object_06,641.45499997539,5,1,511.75000000512,0.2222222222222222,1,object_05,1,470,0,2,5,library_4,1,memory-2step-stake-s,517,996491,0.0-19.0-0.0-0.24,A1WS9UHL45VZ0X,32CXT5U15JJVAEXBU2XNZL8A76W8U1,3BF51CHDTZQB9MKIP1IBCB9POCZH00,5,6
25,3,object_08,object_06,575.94000000972,6,2,528.40000001015,0.4444444444444444,2,object_09,1,474,0,3,4,library_4,1,memory-2step-stake-s,518,1004662,0.0-19.0-0.0-0.25,A1WS9UHL45VZ0X,32CXT5U15JJVAEXBU2XNZL8A76W8U1,3BF51CHDTZQB9MKIP1IBCB9POCZH00,5,6
26,2,object_03,object_02,700.51500003319,4,2,671.69500002638,0.2222222222222222,2,object_09,1,476,0,2,2,forest_2,1,memory-2step-stake-s,519,1012783,0.0-19.0-0.0-0.26,A1WS9UHL45VZ0X,32CXT5U15JJVAEXBU2XNZL8A76W8U1,3BF51CHDTZQB9MKIP1IBCB9POCZH00,3,4
27,3,object_08,object_06,689.84499998624,6,2,509.710000013,0.2222222222222222,2,object_09,5,486,0,2,2,library_4,1,memory-2step-stake-s,520,1020732,0.0-19.0-0.0-0.27,A1WS9UHL45VZ0X,32CXT5U15JJVAEXBU2XNZL8A76W8U1,3BF51CHDTZQB9MKIP1IBCB9POCZH00,5,6
28,1,object_01,object_10,876.82999996468,1,1,424.07499998808,0.1111111111111111,1,object_05,1,487,0,1,0,desert_3,1,memory-2step-stake-s,521,1028495,0.0-19.0-0.0-0.28,A1WS9UHL45VZ0X,32CXT5U15JJVAEXBU2XNZL8A76W8U1,3BF51CHDTZQB9MKIP1IBCB9POCZH00,1,2
29,4,object_04,object_07,1118.9100000192,8,1,458.03500001784,0.1111111111111111,2,object_09,5,492,0,3,1,restaurant_6,1,memory-2step-stake-s,522,1036288,0.0-19.0-0.0-0.29,A1WS9UHL45VZ0X,32CXT5U15JJVAEXBU2XNZL8A76W8U1,3BF51CHDTZQB9MKIP1IBCB9POCZH00,8,7
30,1,object_01,object_10,819.19999996899,2,2,503.66499996744,0.1111111111111111,2,object_09,1,493,0,4,1,desert_3,1,memory-2step-stake-s,523,1044120,0.0-19.0-0.0-0.30,A1WS9UHL45VZ0X,32CXT5U15JJVAEXBU2XNZL8A76W8U1,3BF51CHDTZQB9MKIP1IBCB9POCZH00,1,2
31,2,object_02,object_03,827.04000000376,3,2,340.27000004426,0.5555555555555556,1,object_05,1,498,0,5,0,forest_2,1,memory-2step-stake-s,524,1052196,0.0-19.0-0.0-0.31,A1WS9UHL45VZ0X,32CXT5U15JJVAEXBU2XNZL8A76W8U1,3BF51CHDTZQB9MKIP1IBCB9POCZH00,4,3
32,2,object_02,object_03,838.53999996791,3,2,615.43499998515,0.4444444444444444,1,object_05,1,502,0,4,2,forest_1,1,memory-2step-stake-s,525,1060459,0.0-19.0-0.0-0.32,A1WS9UHL45VZ0X,32CXT5U15JJVAEXBU2XNZL8A76W8U1,3BF51CHDTZQB9MKIP1IBCB9POCZH00,4,3
33,1,object_01,object_10,1201.3799999841,2,2,564.45000000531,0.2222222222222222,2,object_09,1,504,0,4,2,desert_8,1,memory-2step-stake-s,526,1068458,0.0-19.0-0.0-0.33,A1WS9UHL45VZ0X,32CXT5U15JJVAEXBU2XNZL8A76W8U1,3BF51CHDTZQB9MKIP1IBCB9POCZH00,1,2
34,2,object_02,object_03,576.04000001447,3,2,407.76999999071,0.6666666666666666,1,object_05,1,510,0,6,3,forest_1,1,memory-2step-stake-s,527,1076720,0.0-19.0-0.0-0.34,A1WS9UHL45VZ0X,32CXT5U15JJVAEXBU2XNZL8A76W8U1,3BF51CHDTZQB9MKIP1IBCB9POCZH00,4,3
35,3,object_08,object_06,688.16999997944,5,1,371.03999999817,0.5555555555555556,1,object_05,5,535,0,5,3,library_8,1,memory-2step-stake-s,528,1084836,0.0-19.0-0.0-0.35,A1WS9UHL45VZ0X,32CXT5U15JJVAEXBU2XNZL8A76W8U1,3BF51CHDTZQB9MKIP1IBCB9POCZH00,5,6
36,2,object_02,object_03,566.70500000473,3,2,535.06500000367,0.2222222222222222,1,object_05,1,537,0,2,3,forest_4,1,memory-2step-stake-s,529,1092805,0.0-19.0-0.0-0.36,A1WS9UHL45VZ0X,32CXT5U15JJVAEXBU2XNZL8A76W8U1,3BF51CHDTZQB9MKIP1IBCB9POCZH00,4,3
37,1,object_01,object_10,803.04499994963,1,1,391.58500003396,0.0,1,object_05,1,537,0,0,3,desert_2,1,memory-2step-stake-s,530,1100424,0.0-19.0-0.0-0.37,A1WS9UHL45VZ0X,32CXT5U15JJVAEXBU2XNZL8A76W8U1,3BF51CHDTZQB9MKIP1IBCB9POCZH00,1,2
38,1,object_01,object_10,1064.4550000434,2,2,330.62000002246,0.5555555555555556,2,object_09,5,562,0,4,5,desert_8,1,memory-2step-stake-s,531,1108491,0.0-19.0-0.0-0.38,A1WS9UHL45VZ0X,32CXT5U15JJVAEXBU2XNZL8A76W8U1,3BF51CHDTZQB9MKIP1IBCB9POCZH00,1,2
39,1,object_01,object_10,1256.0599999852,1,1,557.77499999385,0.6666666666666666,1,object_05,1,568,0,6,7,desert_3,1,memory-2step-stake-s,532,1116882,0.0-19.0-0.0-0.39,A1WS9UHL45VZ0X,32CXT5U15JJVAEXBU2XNZL8A76W8U1,3BF51CHDTZQB9MKIP1IBCB9POCZH00,1,2
40,4,object_04,object_07,701.35499996832,8,1,602.3850000347,0.6666666666666666,2,object_09,5,598,0,4,6,restaurant_6,1,memory-2step-stake-s,533,1125323,0.0-19.0-0.0-0.40,A1WS9UHL45VZ0X,32CXT5U15JJVAEXBU2XNZL8A76W8U1,3BF51CHDTZQB9MKIP1IBCB9POCZH00,8,7
41,2,object_03,object_02,1007.4800000293,3,1,387.08500005305,0.6666666666666666,1,object_05,1,604,0,6,7,forest_1,1,memory-2step-stake-s,534,1133554,0.0-19.0-0.0-0.41,A1WS9UHL45VZ0X,32CXT5U15JJVAEXBU2XNZL8A76W8U1,3BF51CHDTZQB9MKIP1IBCB9POCZH00,3,4
42,4,object_07,object_04,568.60499997856,8,2,395.91500000097,0.3333333333333333,2,object_09,5,619,0,6,3,restaurant_8,1,memory-2step-stake-s,535,1141481,0.0-19.0-0.0-0.42,A1WS9UHL45VZ0X,32CXT5U15JJVAEXBU2XNZL8A76W8U1,3BF51CHDTZQB9MKIP1IBCB9POCZH00,7,8
43,2,object_02,object_03,646.79999998771,3,2,541.46000003675,0.6666666666666666,1,object_05,1,625,0,6,3,forest_8,1,memory-2step-stake-s,536,1149872,0.0-19.0-0.0-0.43,A1WS9UHL45VZ0X,32CXT5U15JJVAEXBU2XNZL8A76W8U1,3BF51CHDTZQB9MKIP1IBCB9POCZH00,4,3
44,1,object_01,object_10,886.76500000292,1,1,455.17499995185,0.2222222222222222,1,object_05,1,627,0,2,6,desert_3,1,memory-2step-stake-s,537,1157765,0.0-19.0-0.0-0.44,A1WS9UHL45VZ0X,32CXT5U15JJVAEXBU2XNZL8A76W8U1,3BF51CHDTZQB9MKIP1IBCB9POCZH00,1,2
45,1,object_10,object_01,737.77499998687,1,2,537.92999999132,0.2222222222222222,1,object_05,1,629,0,2,6,desert_6,1,memory-2step-stake-s,538,1165747,0.0-19.0-0.0-0.45,A1WS9UHL45VZ0X,32CXT5U15JJVAEXBU2XNZL8A76W8U1,3BF51CHDTZQB9MKIP1IBCB9POCZH00,2,1
46,1,object_01,object_10,1224.8949999921,1,1,660.32500000438,0.1111111111111111,1,object_05,5,634,0,1,5,desert_2,1,memory-2step-stake-s,539,1173746,0.0-19.0-0.0-0.46,A1WS9UHL45VZ0X,32CXT5U15JJVAEXBU2XNZL8A76W8U1,3BF51CHDTZQB9MKIP1IBCB9POCZH00,1,2
47,1,object_01,object_10,557.11500003235,2,2,366.21499998728,0.3333333333333333,2,object_09,1,637,0,4,3,desert_3,1,memory-2step-stake-s,540,1181656,0.0-19.0-0.0-0.47,A1WS9UHL45VZ0X,32CXT5U15JJVAEXBU2XNZL8A76W8U1,3BF51CHDTZQB9MKIP1IBCB9POCZH00,1,2
48,4,object_04,object_07,622.19999998342,8,1,642.95499998843,0.7777777777777778,2,object_09,1,644,0,1,7,restaurant_5,1,memory-2step-stake-s,541,1190247,0.0-19.0-0.0-0.48,A1WS9UHL45VZ0X,32CXT5U15JJVAEXBU2XNZL8A76W8U1,3BF51CHDTZQB9MKIP1IBCB9POCZH00,8,7
49,2,object_03,object_02,567.23500002408,3,1,554.85000001499,0.1111111111111111,1,object_05,1,645,0,1,4,forest_8,1,memory-2step-stake-s,542,1198135,0.0-19.0-0.0-0.49,A1WS9UHL45VZ0X,32CXT5U15JJVAEXBU2XNZL8A76W8U1,3BF51CHDTZQB9MKIP1IBCB9POCZH00,3,4
50,2,object_03,object_02,526.12500003306,3,1,624.99499996193,0.1111111111111111,1,object_05,1,646,0,1,2,forest_4,1,memory-2step-stake-s,543,1206093,0.0-19.0-0.0-0.50,A1WS9UHL45VZ0X,32CXT5U15JJVAEXBU2XNZL8A76W8U1,3BF51CHDTZQB9MKIP1IBCB9POCZH00,3,4
51,1,object_01,object_10,742.43499996373,1,1,410.83000000799,0.0,1,object_05,1,646,0,0,2,desert_8,1,memory-2step-stake-s,544,1213732,0.0-19.0-0.0-0.51,A1WS9UHL45VZ0X,32CXT5U15JJVAEXBU2XNZL8A76W8U1,3BF51CHDTZQB9MKIP1IBCB9POCZH00,1,2
52,1,object_10,object_01,592.65000000596,1,2,527.39000000292,0.5555555555555556,1,object_05,1,651,0,5,2,desert_3,1,memory-2step-stake-s,545,1221995,0.0-19.0-0.0-0.52,A1WS9UHL45VZ0X,32CXT5U15JJVAEXBU2XNZL8A76W8U1,3BF51CHDTZQB9MKIP1IBCB9POCZH00,2,1
53,3,object_06,object_08,790.50999996252,5,2,450.42999996804,0.4444444444444444,1,object_05,5,671,0,4,2,library_8,1,memory-2step-stake-s,546,1230086,0.0-19.0-0.0-0.53,A1WS9UHL45VZ0X,32CXT5U15JJVAEXBU2XNZL8A76W8U1,3BF51CHDTZQB9MKIP1IBCB9POCZH00,6,5
54,4,object_07,object_04,910.52500001388,8,2,450.31499996549,0.1111111111111111,2,object_09,5,676,0,1,1,restaurant_6,1,memory-2step-stake-s,547,1237860,0.0-19.0-0.0-0.54,A1WS9UHL45VZ0X,32CXT5U15JJVAEXBU2XNZL8A76W8U1,3BF51CHDTZQB9MKIP1IBCB9POCZH00,7,8
55,1,object_01,object_10,1055.709999986,1,1,588.74999999534,0.4444444444444444,1,object_05,1,680,0,4,0,desert_8,1,memory-2step-stake-s,548,1246087,0.0-19.0-0.0-0.55,A1WS9UHL45VZ0X,32CXT5U15JJVAEXBU2XNZL8A76W8U1,3BF51CHDTZQB9MKIP1IBCB9POCZH00,1,2
56,1,object_01,object_10,832.52499997616,1,1,494.42000000272,0.0,1,object_05,1,680,0,0,2,desert_2,1,memory-2step-stake-s,549,1253805,0.0-19.0-0.0-0.56,A1WS9UHL45VZ0X,32CXT5U15JJVAEXBU2XNZL8A76W8U1,3BF51CHDTZQB9MKIP1IBCB9POCZH00,1,2
57,3,object_06,object_08,1069.2799999961,6,1,617.60499997763,0.6666666666666666,2,object_09,1,686,0,0,6,library_4,1,memory-2step-stake-s,550,1262259,0.0-19.0-0.0-0.57,A1WS9UHL45VZ0X,32CXT5U15JJVAEXBU2XNZL8A76W8U1,3BF51CHDTZQB9MKIP1IBCB9POCZH00,6,5
58,2,object_02,object_03,826.86000003014,4,1,385.99000003887,0.5555555555555556,2,object_09,1,691,0,0,5,forest_2,1,memory-2step-stake-s,551,1270396,0.0-19.0-0.0-0.58,A1WS9UHL45VZ0X,32CXT5U15JJVAEXBU2XNZL8A76W8U1,3BF51CHDTZQB9MKIP1IBCB9POCZH00,4,3
59,4,object_04,object_07,766.08500001021,8,1,506.21000002138,0.7777777777777778,2,object_09,5,726,0,2,7,restaurant_7,1,memory-2step-stake-s,552,1278861,0.0-19.0-0.0-0.59,A1WS9UHL45VZ0X,32CXT5U15JJVAEXBU2XNZL8A76W8U1,3BF51CHDTZQB9MKIP1IBCB9POCZH00,8,7
60,3,object_08,object_06,931.79500004044,6,2,372.03000002773,1.0,2,object_09,5,771,0,0,9,library_6,1,memory-2step-stake-s,553,1287377,0.0-19.0-0.0-0.60,A1WS9UHL45VZ0X,32CXT5U15JJVAEXBU2XNZL8A76W8U1,3BF51CHDTZQB9MKIP1IBCB9POCZH00,5,6
61,3,object_08,object_06,842.83999999752,6,2,375.98000001162,0.6666666666666666,2,object_09,5,801,0,3,6,library_7,1,memory-2step-stake-s,554,1295604,0.0-19.0-0.0-0.61,A1WS9UHL45VZ0X,32CXT5U15JJVAEXBU2XNZL8A76W8U1,3BF51CHDTZQB9MKIP1IBCB9POCZH00,5,6
62,2,object_03,object_02,817.3700000043,4,2,490.78499997267,0.4444444444444444,2,object_09,5,821,0,1,4,forest_1,1,memory-2step-stake-s,555,1303730,0.0-19.0-0.0-0.62,A1WS9UHL45VZ0X,32CXT5U15JJVAEXBU2XNZL8A76W8U1,3BF51CHDTZQB9MKIP1IBCB9POCZH00,3,4
63,1,object_01,object_10,-1.0,-1,-1,-1.0,0.0,-,0,1,821,0,4,2,desert_8,1,memory-2step-stake-s,556,1310262,0.0-19.0-0.0-0.63,A1WS9UHL45VZ0X,32CXT5U15JJVAEXBU2XNZL8A76W8U1,3BF51CHDTZQB9MKIP1IBCB9POCZH00,1,2
64,3,object_06,object_08,843.56999996817,5,2,1047.7400000091,0.3333333333333333,1,object_05,5,836,0,3,0,library_8,1,memory-2step-stake-s,557,1318865,0.0-19.0-0.0-0.64,A1WS9UHL45VZ0X,32CXT5U15JJVAEXBU2XNZL8A76W8U1,3BF51CHDTZQB9MKIP1IBCB9POCZH00,6,5
65,4,object_07,object_04,840.83499998087,7,1,400.0900000101,0.3333333333333333,1,object_05,5,851,0,3,3,restaurant_7,1,memory-2step-stake-s,558,1326794,0.0-19.0-0.0-0.65,A1WS9UHL45VZ0X,32CXT5U15JJVAEXBU2XNZL8A76W8U1,3BF51CHDTZQB9MKIP1IBCB9POCZH00,7,8
66,3,object_06,object_08,948.63499997882,6,1,532.31999999844,0.0,2,object_09,5,851,0,4,0,library_8,1,memory-2step-stake-s,559,1334549,0.0-19.0-0.0-0.66,A1WS9UHL45VZ0X,32CXT5U15JJVAEXBU2XNZL8A76W8U1,3BF51CHDTZQB9MKIP1IBCB9POCZH00,6,5
67,4,object_04,object_07,826.37000002433,7,2,436.79000000702,0.2222222222222222,1,object_05,5,861,0,2,0,restaurant_5,1,memory-2step-stake-s,560,1342411,0.0-19.0-0.0-0.67,A1WS9UHL45VZ0X,32CXT5U15JJVAEXBU2XNZL8A76W8U1,3BF51CHDTZQB9MKIP1IBCB9POCZH00,8,7
68,2,object_02,object_03,859.98999996809,4,1,329.31000000099,0.3333333333333333,2,object_09,1,864,0,3,3,forest_4,1,memory-2step-stake-s,561,1350279,0.0-19.0-0.0-0.68,A1WS9UHL45VZ0X,32CXT5U15JJVAEXBU2XNZL8A76W8U1,3BF51CHDTZQB9MKIP1IBCB9POCZH00,4,3
69,4,object_04,object_07,1363.1100000348,7,2,473.12000003876,0.2222222222222222,1,object_05,5,874,0,2,1,restaurant_8,1,memory-2step-stake-s,562,1358275,0.0-19.0-0.0-0.69,A1WS9UHL45VZ0X,32CXT5U15JJVAEXBU2XNZL8A76W8U1,3BF51CHDTZQB9MKIP1IBCB9POCZH00,8,7
70,4,object_04,object_07,1175.814999966,8,1,419.56499998923,0.1111111111111111,2,object_09,1,875,0,1,1,restaurant_5,1,memory-2step-stake-s,563,1366030,0.0-19.0-0.0-0.70,A1WS9UHL45VZ0X,32CXT5U15JJVAEXBU2XNZL8A76W8U1,3BF51CHDTZQB9MKIP1IBCB9POCZH00,8,7
71,2,object_03,object_02,609.05000002822,3,1,676.34999996517,0.2222222222222222,1,object_05,5,885,0,2,4,forest_2,1,memory-2step-stake-s,564,1374137,0.0-19.0-0.0-0.71,A1WS9UHL45VZ0X,32CXT5U15JJVAEXBU2XNZL8A76W8U1,3BF51CHDTZQB9MKIP1IBCB9POCZH00,3,4
72,4,object_07,object_04,729.58499996457,8,2,525.21499997238,0.2222222222222222,2,object_09,5,895,0,4,2,restaurant_7,1,memory-2step-stake-s,565,1382097,0.0-19.0-0.0-0.72,A1WS9UHL45VZ0X,32CXT5U15JJVAEXBU2XNZL8A76W8U1,3BF51CHDTZQB9MKIP1IBCB9POCZH00,7,8
73,1,object_01,object_10,1469.5599999977,1,1,550.64500001026,0.4444444444444444,1,object_05,5,915,0,4,3,desert_2,1,memory-2step-stake-s,566,1390288,0.0-19.0-0.0-0.73,A1WS9UHL45VZ0X,32CXT5U15JJVAEXBU2XNZL8A76W8U1,3BF51CHDTZQB9MKIP1IBCB9POCZH00,1,2
74,2,object_03,object_02,640.59999998426,3,1,452.14499998838,0.3333333333333333,1,object_05,1,918,0,3,7,forest_1,1,memory-2step-stake-s,567,1398280,0.0-19.0-0.0-0.74,A1WS9UHL45VZ0X,32CXT5U15JJVAEXBU2XNZL8A76W8U1,3BF51CHDTZQB9MKIP1IBCB9POCZH00,3,4
75,1,object_10,object_01,657.73500001524,1,2,898.88499997323,0.3333333333333333,1,object_05,1,921,0,3,7,desert_8,1,memory-2step-stake-s,568,1406721,0.0-19.0-0.0-0.75,A1WS9UHL45VZ0X,32CXT5U15JJVAEXBU2XNZL8A76W8U1,3BF51CHDTZQB9MKIP1IBCB9POCZH00,2,1
76,2,object_02,object_03,998.26500000199,3,2,541.24499997124,0.5555555555555556,1,object_05,1,926,0,5,6,forest_4,1,memory-2step-stake-s,569,1415004,0.0-19.0-0.0-0.76,A1WS9UHL45VZ0X,32CXT5U15JJVAEXBU2XNZL8A76W8U1,3BF51CHDTZQB9MKIP1IBCB9POCZH00,4,3
77,2,object_03,object_02,620.42500003008,3,1,404.7750000027,0.4444444444444444,1,object_05,1,930,0,4,6,forest_4,1,memory-2step-stake-s,570,1423063,0.0-19.0-0.0-0.77,A1WS9UHL45VZ0X,32CXT5U15JJVAEXBU2XNZL8A76W8U1,3BF51CHDTZQB9MKIP1IBCB9POCZH00,3,4
78,1,object_10,object_01,899.25999997649,1,2,454.40500002587,0.5555555555555556,1,object_05,1,935,0,5,6,desert_6,1,memory-2step-stake-s,571,1431263,0.0-19.0-0.0-0.78,A1WS9UHL45VZ0X,32CXT5U15JJVAEXBU2XNZL8A76W8U1,3BF51CHDTZQB9MKIP1IBCB9POCZH00,2,1
79,4,object_04,object_07,1302.0350000006,7,2,411.37499996694,0.3333333333333333,1,object_05,5,950,0,3,8,restaurant_6,1,memory-2step-stake-s,572,1439205,0.0-19.0-0.0-0.79,A1WS9UHL45VZ0X,32CXT5U15JJVAEXBU2XNZL8A76W8U1,3BF51CHDTZQB9MKIP1IBCB9POCZH00,8,7
80,4,object_04,object_07,905.35499999532,7,2,442.96000001486,0.5555555555555556,1,object_05,5,975,0,5,8,restaurant_7,1,memory-2step-stake-s,573,1447389,0.0-19.0-0.0-0.80,A1WS9UHL45VZ0X,32CXT5U15JJVAEXBU2XNZL8A76W8U1,3BF51CHDTZQB9MKIP1IBCB9POCZH00,8,7
81,3,object_08,object_06,669.90999999689,5,1,508.40499997139,0.7777777777777778,1,object_05,5,1010,0,7,9,library_7,1,memory-2step-stake-s,574,1455844,0.0-19.0-0.0-0.81,A1WS9UHL45VZ0X,32CXT5U15JJVAEXBU2XNZL8A76W8U1,3BF51CHDTZQB9MKIP1IBCB9POCZH00,5,6
82,3,object_08,object_06,831.27999998396,5,1,464.70000001136,0.7777777777777778,1,object_05,5,1045,0,7,7,library_4,1,memory-2step-stake-s,575,1464274,0.0-19.0-0.0-0.82,A1WS9UHL45VZ0X,32CXT5U15JJVAEXBU2XNZL8A76W8U1,3BF51CHDTZQB9MKIP1IBCB9POCZH00,5,6
83,2,object_03,object_02,659.06999999424,3,1,501.53000000864,0.5555555555555556,1,object_05,5,1070,0,5,9,forest_1,1,memory-2step-stake-s,576,1472526,0.0-19.0-0.0-0.83,A1WS9UHL45VZ0X,32CXT5U15JJVAEXBU2XNZL8A76W8U1,3BF51CHDTZQB9MKIP1IBCB9POCZH00,3,4
84,4,object_07,object_04,1099.90500001,8,2,508.38999997359,0.6666666666666666,2,object_09,1,1076,0,5,6,restaurant_7,1,memory-2step-stake-s,577,1480880,0.0-19.0-0.0-0.84,A1WS9UHL45VZ0X,32CXT5U15JJVAEXBU2XNZL8A76W8U1,3BF51CHDTZQB9MKIP1IBCB9POCZH00,7,8
85,1,object_10,object_01,1066.8799999985,2,1,616.66499997955,0.6666666666666666,2,object_09,1,1082,0,4,6,desert_3,1,memory-2step-stake-s,578,1489358,0.0-19.0-0.0-0.85,A1WS9UHL45VZ0X,32CXT5U15JJVAEXBU2XNZL8A76W8U1,3BF51CHDTZQB9MKIP1IBCB9POCZH00,2,1
86,4,object_07,object_04,742.22500005271,8,2,469.99000001233,0.3333333333333333,2,object_09,5,1097,0,5,3,restaurant_5,1,memory-2step-stake-s,579,1497360,0.0-19.0-0.0-0.86,A1WS9UHL45VZ0X,32CXT5U15JJVAEXBU2XNZL8A76W8U1,3BF51CHDTZQB9MKIP1IBCB9POCZH00,7,8
87,3,object_08,object_06,986.435000028,6,2,378.61000001431,0.2222222222222222,2,object_09,5,1107,0,8,2,library_8,1,memory-2step-stake-s,580,1505168,0.0-19.0-0.0-0.87,A1WS9UHL45VZ0X,32CXT5U15JJVAEXBU2XNZL8A76W8U1,3BF51CHDTZQB9MKIP1IBCB9POCZH00,5,6
88,3,object_08,object_06,527.07500004908,5,1,296.97500000475,0.8888888888888888,1,object_05,5,1147,0,8,2,library_8,1,memory-2step-stake-s,581,1513531,0.0-19.0-0.0-0.88,A1WS9UHL45VZ0X,32CXT5U15JJVAEXBU2XNZL8A76W8U1,3BF51CHDTZQB9MKIP1IBCB9POCZH00,5,6
89,2,object_02,object_03,646.16000000387,3,2,757.27499998175,0.7777777777777778,1,object_05,1,1154,0,7,2,forest_4,1,memory-2step-stake-s,582,1522247,0.0-19.0-0.0-0.89,A1WS9UHL45VZ0X,32CXT5U15JJVAEXBU2XNZL8A76W8U1,3BF51CHDTZQB9MKIP1IBCB9POCZH00,4,3
90,2,object_02,object_03,617.59999999776,3,2,301.7300000065,0.7777777777777778,1,object_05,1,1161,0,7,5,forest_8,1,memory-2step-stake-s,583,1530492,0.0-19.0-0.0-0.90,A1WS9UHL45VZ0X,32CXT5U15JJVAEXBU2XNZL8A76W8U1,3BF51CHDTZQB9MKIP1IBCB9POCZH00,4,3
91,3,object_06,object_08,693.40999994893,5,2,444.33000002755,0.6666666666666666,1,object_05,5,1191,0,6,2,library_8,1,memory-2step-stake-s,584,1538790,0.0-19.0-0.0-0.91,A1WS9UHL45VZ0X,32CXT5U15JJVAEXBU2XNZL8A76W8U1,3BF51CHDTZQB9MKIP1IBCB9POCZH00,6,5
92,4,object_07,object_04,1060.6099999859,7,1,306.91500002285,0.8888888888888888,1,object_05,5,1231,0,8,2,restaurant_5,1,memory-2step-stake-s,585,1547145,0.0-19.0-0.0-0.92,A1WS9UHL45VZ0X,32CXT5U15JJVAEXBU2XNZL8A76W8U1,3BF51CHDTZQB9MKIP1IBCB9POCZH00,7,8
93,1,object_01,object_10,1438.8499999768,1,1,597.66500000842,0.7777777777777778,1,object_05,5,1266,0,7,5,desert_8,1,memory-2step-stake-s,586,1555689,0.0-19.0-0.0-0.93,A1WS9UHL45VZ0X,32CXT5U15JJVAEXBU2XNZL8A76W8U1,3BF51CHDTZQB9MKIP1IBCB9POCZH00,1,2
94,1,object_01,object_10,1065.6999999774,1,1,280.70499998285,0.8888888888888888,1,object_05,1,1274,0,8,7,desert_3,1,memory-2step-stake-s,587,1564035,0.0-19.0-0.0-0.94,A1WS9UHL45VZ0X,32CXT5U15JJVAEXBU2XNZL8A76W8U1,3BF51CHDTZQB9MKIP1IBCB9POCZH00,1,2
95,1,object_10,object_01,865.0150000467,1,2,674.02500001481,0.8888888888888888,1,object_05,1,1282,0,8,8,desert_3,1,memory-2step-stake-s,588,1572750,0.0-19.0-0.0-0.95,A1WS9UHL45VZ0X,32CXT5U15JJVAEXBU2XNZL8A76W8U1,3BF51CHDTZQB9MKIP1IBCB9POCZH00,2,1
96,3,object_08,object_06,523.47000001464,5,1,429.9100000062,0.7777777777777778,1,object_05,5,1317,0,7,8,library_4,1,memory-2step-stake-s,589,1581124,0.0-19.0-0.0-0.96,A1WS9UHL45VZ0X,32CXT5U15JJVAEXBU2XNZL8A76W8U1,3BF51CHDTZQB9MKIP1IBCB9POCZH00,5,6
97,2,object_02,object_03,541.98000003817,3,2,541.71000001952,0.8888888888888888,1,object_05,1,1325,0,8,8,forest_1,1,memory-2step-stake-s,590,1589729,0.0-19.0-0.0-0.97,A1WS9UHL45VZ0X,32CXT5U15JJVAEXBU2XNZL8A76W8U1,3BF51CHDTZQB9MKIP1IBCB9POCZH00,4,3
98,1,object_10,object_01,541.55500000343,1,2,475.48500000266,0.7777777777777778,1,object_05,1,1332,0,7,9,desert_6,1,memory-2step-stake-s,591,1598159,0.0-19.0-0.0-0.98,A1WS9UHL45VZ0X,32CXT5U15JJVAEXBU2XNZL8A76W8U1,3BF51CHDTZQB9MKIP1IBCB9POCZH00,2,1
99,2,object_02,object_03,513.48000002326,3,2,442.15999997687,0.4444444444444444,1,object_05,1,1336,0,4,7,forest_2,1,memory-2step-stake-s,592,1606245,0.0-19.0-0.0-0.99,A1WS9UHL45VZ0X,32CXT5U15JJVAEXBU2XNZL8A76W8U1,3BF51CHDTZQB9MKIP1IBCB9POCZH00,4,3
100,3,object_06,object_08,1135.1300000097,6,1,326.10499998555,0.7777777777777778,2,object_09,5,1371,0,6,7,library_6,1,memory-2step-stake-s,593,1614520,0.0-19.0-0.0-0.100,A1WS9UHL45VZ0X,32CXT5U15JJVAEXBU2XNZL8A76W8U1,3BF51CHDTZQB9MKIP1IBCB9POCZH00,6,5
101,3,object_08,object_06,758.19999998203,6,2,360.1900000358,0.5555555555555556,2,object_09,5,1396,0,5,5,library_6,1,memory-2step-stake-s,594,1622625,0.0-19.0-0.0-0.101,A1WS9UHL45VZ0X,32CXT5U15JJVAEXBU2XNZL8A76W8U1,3BF51CHDTZQB9MKIP1IBCB9POCZH00,5,6
102,1,object_01,object_10,807.33999999939,1,1,297.13999998057,0.5555555555555556,1,object_05,1,1401,0,5,3,desert_6,1,memory-2step-stake-s,595,1630676,0.0-19.0-0.0-0.102,A1WS9UHL45VZ0X,32CXT5U15JJVAEXBU2XNZL8A76W8U1,3BF51CHDTZQB9MKIP1IBCB9POCZH00,1,2
103,4,object_07,object_04,1165.7549999654,8,2,392.92499999283,0.4444444444444444,2,object_09,5,1421,0,2,4,restaurant_5,1,memory-2step-stake-s,596,1638708,0.0-19.0-0.0-0.103,A1WS9UHL45VZ0X,32CXT5U15JJVAEXBU2XNZL8A76W8U1,3BF51CHDTZQB9MKIP1IBCB9POCZH00,7,8
104,3,object_08,object_06,481.02999996627,5,1,468.98499998497,0.2222222222222222,1,object_05,5,1431,0,2,6,library_7,1,memory-2step-stake-s,597,1646613,0.0-19.0-0.0-0.104,A1WS9UHL45VZ0X,32CXT5U15JJVAEXBU2XNZL8A76W8U1,3BF51CHDTZQB9MKIP1IBCB9POCZH00,5,6
105,1,object_10,object_01,815.04499999573,2,1,674.56000001403,0.6666666666666666,2,object_09,1,1437,0,4,6,desert_3,1,memory-2step-stake-s,598,1655146,0.0-19.0-0.0-0.105,A1WS9UHL45VZ0X,32CXT5U15JJVAEXBU2XNZL8A76W8U1,3BF51CHDTZQB9MKIP1IBCB9POCZH00,2,1
106,3,object_06,object_08,844.51500000432,6,1,486.28999997163,0.8888888888888888,2,object_09,5,1477,0,4,8,library_6,1,memory-2step-stake-s,599,1663681,0.0-19.0-0.0-0.106,A1WS9UHL45VZ0X,32CXT5U15JJVAEXBU2XNZL8A76W8U1,3BF51CHDTZQB9MKIP1IBCB9POCZH00,6,5
107,3,object_06,object_08,904.1599999764,6,1,445.84500003839,0.7777777777777778,2,object_09,5,1512,0,4,7,library_4,1,memory-2step-stake-s,600,1672084,0.0-19.0-0.0-0.107,A1WS9UHL45VZ0X,32CXT5U15JJVAEXBU2XNZL8A76W8U1,3BF51CHDTZQB9MKIP1IBCB9POCZH00,6,5
108,2,object_02,object_03,731.89499997534,4,1,561.55500002205,0.8888888888888888,2,object_09,1,1520,0,7,8,forest_1,1,memory-2step-stake-s,601,1680710,0.0-19.0-0.0-0.108,A1WS9UHL45VZ0X,32CXT5U15JJVAEXBU2XNZL8A76W8U1,3BF51CHDTZQB9MKIP1IBCB9POCZH00,4,3
109,4,object_07,object_04,838.89000001363,8,2,558.86500002816,0.8888888888888888,2,object_09,1,1528,0,8,8,restaurant_5,1,memory-2step-stake-s,602,1689326,0.0-19.0-0.0-0.109,A1WS9UHL45VZ0X,32CXT5U15JJVAEXBU2XNZL8A76W8U1,3BF51CHDTZQB9MKIP1IBCB9POCZH00,7,8
110,1,object_01,object_10,850.84499994991,2,2,1088.619999995,0.4444444444444444,2,object_09,1,1532,0,9,4,desert_6,1,memory-2step-stake-s,603,1698063,0.0-19.0-0.0-0.110,A1WS9UHL45VZ0X,32CXT5U15JJVAEXBU2XNZL8A76W8U1,3BF51CHDTZQB9MKIP1IBCB9POCZH00,1,2
111,2,object_03,object_02,725.70000000997,3,1,349.65499996906,0.8888888888888888,1,object_05,5,1572,0,8,2,forest_4,1,memory-2step-stake-s,604,1706463,0.0-19.0-0.0-0.111,A1WS9UHL45VZ0X,32CXT5U15JJVAEXBU2XNZL8A76W8U1,3BF51CHDTZQB9MKIP1IBCB9POCZH00,3,4
112,4,object_07,object_04,936.54500000412,7,1,484.44999998901,0.8888888888888888,1,object_05,5,1612,0,8,4,restaurant_7,1,memory-2step-stake-s,605,1715000,0.0-19.0-0.0-0.112,A1WS9UHL45VZ0X,32CXT5U15JJVAEXBU2XNZL8A76W8U1,3BF51CHDTZQB9MKIP1IBCB9POCZH00,7,8
113,1,object_01,object_10,706.92500000587,2,2,388.93000001553,0.5555555555555556,2,object_09,1,1617,0,8,5,desert_2,1,memory-2step-stake-s,606,1723129,0.0-19.0-0.0-0.113,A1WS9UHL45VZ0X,32CXT5U15JJVAEXBU2XNZL8A76W8U1,3BF51CHDTZQB9MKIP1IBCB9POCZH00,1,2
114,3,object_06,object_08,854.0900000371,5,2,302.30999999912,1.0,1,object_05,5,1662,0,9,7,library_8,1,memory-2step-stake-s,607,1731581,0.0-19.0-0.0-0.114,A1WS9UHL45VZ0X,32CXT5U15JJVAEXBU2XNZL8A76W8U1,3BF51CHDTZQB9MKIP1IBCB9POCZH00,6,5
115,1,object_10,object_01,-1.0,-1,-1,-1.0,0.0,-,0,1,1662,0,6,7,desert_2,1,memory-2step-stake-s,608,1738107,0.0-19.0-0.0-0.115,A1WS9UHL45VZ0X,32CXT5U15JJVAEXBU2XNZL8A76W8U1,3BF51CHDTZQB9MKIP1IBCB9POCZH00,2,1
116,2,object_02,object_03,588.8949999935,3,2,897.47999998508,0.3333333333333333,1,object_05,5,1677,0,3,8,forest_1,1,memory-2step-stake-s,609,1746545,0.0-19.0-0.0-0.116,A1WS9UHL45VZ0X,32CXT5U15JJVAEXBU2XNZL8A76W8U1,3BF51CHDTZQB9MKIP1IBCB9POCZH00,4,3
117,4,object_04,object_07,1019.420000026,7,2,332.5649999897,0.1111111111111111,1,object_05,5,1682,0,1,6,restaurant_8,1,memory-2step-stake-s,610,1754216,0.0-19.0-0.0-0.117,A1WS9UHL45VZ0X,32CXT5U15JJVAEXBU2XNZL8A76W8U1,3BF51CHDTZQB9MKIP1IBCB9POCZH00,8,7
118,2,object_02,object_03,683.92499996116,4,1,448.58499994734,0.6666666666666666,2,object_09,1,1688,0,3,6,forest_8,1,memory-2step-stake-s,611,1762513,0.0-19.0-0.0-0.118,A1WS9UHL45VZ0X,32CXT5U15JJVAEXBU2XNZL8A76W8U1,3BF51CHDTZQB9MKIP1IBCB9POCZH00,4,3
119,3,object_06,object_08,1466.8449999881,6,1,559.5200000098,0.7777777777777778,2,object_09,5,1723,0,1,7,library_6,1,memory-2step-stake-s,612,1771021,0.0-19.0-0.0-0.119,A1WS9UHL45VZ0X,32CXT5U15JJVAEXBU2XNZL8A76W8U1,3BF51CHDTZQB9MKIP1IBCB9POCZH00,6,5
120,2,object_03,object_02,637.32500001788,4,2,479.54000002937,0.3333333333333333,2,object_09,1,1726,0,3,3,forest_2,1,memory-2step-stake-s,613,1779036,0.0-19.0-0.0-0.120,A1WS9UHL45VZ0X,32CXT5U15JJVAEXBU2XNZL8A76W8U1,3BF51CHDTZQB9MKIP1IBCB9POCZH00,3,4
121,2,object_03,object_02,614.29999995744,4,2,560.45000004815,0.1111111111111111,2,object_09,1,1727,0,6,1,forest_8,1,memory-2step-stake-s,614,1786919,0.0-19.0-0.0-0.121,A1WS9UHL45VZ0X,32CXT5U15JJVAEXBU2XNZL8A76W8U1,3BF51CHDTZQB9MKIP1IBCB9POCZH00,3,4
122,3,object_08,object_06,744.23000001116,5,1,529.7450000071,0.6666666666666666,1,object_05,1,1733,0,6,4,library_6,1,memory-2step-stake-s,615,1795312,0.0-19.0-0.0-0.122,A1WS9UHL45VZ0X,32CXT5U15JJVAEXBU2XNZL8A76W8U1,3BF51CHDTZQB9MKIP1IBCB9POCZH00,5,6
123,3,object_06,object_08,1015.8100000117,5,2,429.57999999635,0.8888888888888888,1,object_05,1,1741,0,8,6,library_6,1,memory-2step-stake-s,616,1803800,0.0-19.0-0.0-0.123,A1WS9UHL45VZ0X,32CXT5U15JJVAEXBU2XNZL8A76W8U1,3BF51CHDTZQB9MKIP1IBCB9POCZH00,6,5
124,2,object_03,object_02,773.35000003222,3,1,502.87500000559,0.6666666666666666,1,object_05,1,1747,0,6,4,forest_8,1,memory-2step-stake-s,617,1812142,0.0-19.0-0.0-0.124,A1WS9UHL45VZ0X,32CXT5U15JJVAEXBU2XNZL8A76W8U1,3BF51CHDTZQB9MKIP1IBCB9POCZH00,3,4
125,3,object_08,object_06,458.18499999586,5,1,393.50999996532,0.7777777777777778,1,object_05,5,1782,0,7,4,library_4,1,memory-2step-stake-s,618,1820477,0.0-19.0-0.0-0.125,A1WS9UHL45VZ0X,32CXT5U15JJVAEXBU2XNZL8A76W8U1,3BF51CHDTZQB9MKIP1IBCB9POCZH00,5,6
126,3,object_06,object_08,934.7500000149,5,2,362.53500002204,0.6666666666666666,1,object_05,5,1812,0,6,6,library_7,1,memory-2step-stake-s,619,1828702,0.0-19.0-0.0-0.126,A1WS9UHL45VZ0X,32CXT5U15JJVAEXBU2XNZL8A76W8U1,3BF51CHDTZQB9MKIP1IBCB9POCZH00,6,5
127,4,object_07,object_04,1023.7899999483,7,1,424.98000001069,0.8888888888888888,1,object_05,1,1820,0,8,6,restaurant_8,1,memory-2step-stake-s,620,1837190,0.0-19.0-0.0-0.127,A1WS9UHL45VZ0X,32CXT5U15JJVAEXBU2XNZL8A76W8U1,3BF51CHDTZQB9MKIP1IBCB9POCZH00,7,8
128,2,object_02,object_03,642.61500001885,3,2,309.59499999881,0.8888888888888888,1,object_05,5,1860,0,8,6,forest_4,1,memory-2step-stake-s,622,1914156,0.0-19.0-0.1-0.128,A1WS9UHL45VZ0X,32CXT5U15JJVAEXBU2XNZL8A76W8U1,3BF51CHDTZQB9MKIP1IBCB9POCZH00,4,3
129,4,object_04,object_07,860.29000004055,7,2,357.61499998625,0.8888888888888888,1,object_05,5,1900,0,8,5,restaurant_6,1,memory-2step-stake-s,623,1922568,0.0-19.0-0.1-0.129,A1WS9UHL45VZ0X,32CXT5U15JJVAEXBU2XNZL8A76W8U1,3BF51CHDTZQB9MKIP1IBCB9POCZH00,8,7
130,3,object_08,object_06,662.24999999395,5,1,536.07000003103,1.0,1,object_05,5,1945,0,9,1,library_6,1,memory-2step-stake-s,624,1931267,0.0-19.0-0.1-0.130,A1WS9UHL45VZ0X,32CXT5U15JJVAEXBU2XNZL8A76W8U1,3BF51CHDTZQB9MKIP1IBCB9POCZH00,5,6
131,4,object_04,object_07,702.27499998873,7,2,385.12499997159,0.7777777777777778,1,object_05,5,1980,0,7,3,restaurant_5,1,memory-2step-stake-s,625,1939609,0.0-19.0-0.1-0.131,A1WS9UHL45VZ0X,32CXT5U15JJVAEXBU2XNZL8A76W8U1,3BF51CHDTZQB9MKIP1IBCB9POCZH00,8,7
132,1,object_01,object_10,1007.890000008,1,1,380.46999997459,0.7777777777777778,1,object_05,1,1987,0,7,2,desert_2,1,memory-2step-stake-s,626,1947950,0.0-19.0-0.1-0.132,A1WS9UHL45VZ0X,32CXT5U15JJVAEXBU2XNZL8A76W8U1,3BF51CHDTZQB9MKIP1IBCB9POCZH00,1,2
133,4,object_07,object_04,1185.204999987,7,1,411.63499996765,0.7777777777777778,1,object_05,5,2022,0,7,2,restaurant_8,1,memory-2step-stake-s,627,1956320,0.0-19.0-0.1-0.133,A1WS9UHL45VZ0X,32CXT5U15JJVAEXBU2XNZL8A76W8U1,3BF51CHDTZQB9MKIP1IBCB9POCZH00,7,8
134,1,object_01,object_10,809.81499998597,1,1,409.07499997411,0.6666666666666666,1,object_05,1,2028,0,6,1,desert_6,1,memory-2step-stake-s,628,1964577,0.0-19.0-0.1-0.134,A1WS9UHL45VZ0X,32CXT5U15JJVAEXBU2XNZL8A76W8U1,3BF51CHDTZQB9MKIP1IBCB9POCZH00,1,2
135,4,object_04,object_07,646.37500001118,7,2,374.42999996711,0.6666666666666666,1,object_05,5,2058,0,6,2,restaurant_6,1,memory-2step-stake-s,629,1972798,0.0-19.0-0.1-0.135,A1WS9UHL45VZ0X,32CXT5U15JJVAEXBU2XNZL8A76W8U1,3BF51CHDTZQB9MKIP1IBCB9POCZH00,8,7
136,2,object_03,object_02,1118.6650000163,3,1,686.06000003638,0.4444444444444444,1,object_05,1,2062,0,4,7,forest_4,1,memory-2step-stake-s,630,1981127,0.0-19.0-0.1-0.136,A1WS9UHL45VZ0X,32CXT5U15JJVAEXBU2XNZL8A76W8U1,3BF51CHDTZQB9MKIP1IBCB9POCZH00,3,4
137,4,object_04,object_07,621.89000000944,7,2,262.27000000654,0.1111111111111111,1,object_05,5,2067,0,1,8,restaurant_6,1,memory-2step-stake-s,631,1988720,0.0-19.0-0.1-0.137,A1WS9UHL45VZ0X,32CXT5U15JJVAEXBU2XNZL8A76W8U1,3BF51CHDTZQB9MKIP1IBCB9POCZH00,8,7
138,2,object_03,object_02,662.94499998912,4,2,435.5949999881,0.8888888888888888,2,object_09,1,2075,0,0,8,forest_8,1,memory-2step-stake-s,632,1997213,0.0-19.0-0.1-0.138,A1WS9UHL45VZ0X,32CXT5U15JJVAEXBU2XNZL8A76W8U1,3BF51CHDTZQB9MKIP1IBCB9POCZH00,3,4
139,1,object_10,object_01,917.84499998903,2,1,402.6550000417,0.8888888888888888,2,object_09,1,2083,0,5,8,desert_2,1,memory-2step-stake-s,633,2005687,0.0-19.0-0.1-0.139,A1WS9UHL45VZ0X,32CXT5U15JJVAEXBU2XNZL8A76W8U1,3BF51CHDTZQB9MKIP1IBCB9POCZH00,2,1
140,3,object_08,object_06,1258.7799999746,6,2,548.3200000017,0.8888888888888888,2,object_09,5,2123,0,4,8,library_8,1,memory-2step-stake-s,634,2014286,0.0-19.0-0.1-0.140,A1WS9UHL45VZ0X,32CXT5U15JJVAEXBU2XNZL8A76W8U1,3BF51CHDTZQB9MKIP1IBCB9POCZH00,5,6
141,2,object_03,object_02,709.32000002358,4,2,424.02999999467,0.8888888888888888,2,object_09,1,2131,0,5,8,forest_2,1,memory-2step-stake-s,635,2022769,0.0-19.0-0.1-0.141,A1WS9UHL45VZ0X,32CXT5U15JJVAEXBU2XNZL8A76W8U1,3BF51CHDTZQB9MKIP1IBCB9POCZH00,3,4
142,4,object_07,object_04,963.40000000782,8,2,578.71999999043,1.0,2,object_09,5,2176,0,2,9,restaurant_7,1,memory-2step-stake-s,636,2031507,0.0-19.0-0.1-0.142,A1WS9UHL45VZ0X,32CXT5U15JJVAEXBU2XNZL8A76W8U1,3BF51CHDTZQB9MKIP1IBCB9POCZH00,7,8
143,2,object_02,object_03,777.82000001753,4,1,670.73999997228,0.8888888888888888,2,object_09,1,2184,0,3,8,forest_8,1,memory-2step-stake-s,637,2040247,0.0-19.0-0.1-0.143,A1WS9UHL45VZ0X,32CXT5U15JJVAEXBU2XNZL8A76W8U1,3BF51CHDTZQB9MKIP1IBCB9POCZH00,4,3
144,4,object_04,object_07,816.754999978,8,1,555.91500003356,0.8888888888888888,2,object_09,1,2192,0,2,8,restaurant_6,1,memory-2step-stake-s,638,2048858,0.0-19.0-0.1-0.144,A1WS9UHL45VZ0X,32CXT5U15JJVAEXBU2XNZL8A76W8U1,3BF51CHDTZQB9MKIP1IBCB9POCZH00,8,7
145,4,object_07,object_04,940.06000005174,8,2,427.16999998083,0.8888888888888888,2,object_09,5,2232,0,3,8,restaurant_5,1,memory-2step-stake-s,639,2057340,0.0-19.0-0.1-0.145,A1WS9UHL45VZ0X,32CXT5U15JJVAEXBU2XNZL8A76W8U1,3BF51CHDTZQB9MKIP1IBCB9POCZH00,7,8
146,1,object_01,object_10,816.66499999119,2,2,358.18999999901,0.8888888888888888,2,object_09,1,2240,0,5,8,desert_6,1,memory-2step-stake-s,640,2065757,0.0-19.0-0.1-0.146,A1WS9UHL45VZ0X,32CXT5U15JJVAEXBU2XNZL8A76W8U1,3BF51CHDTZQB9MKIP1IBCB9POCZH00,1,2
147,2,object_03,object_02,639.9799999781,4,2,457.57500000764,0.8888888888888888,2,object_09,1,2248,0,3,8,forest_8,1,memory-2step-stake-s,641,2074288,0.0-19.0-0.1-0.147,A1WS9UHL45VZ0X,32CXT5U15JJVAEXBU2XNZL8A76W8U1,3BF51CHDTZQB9MKIP1IBCB9POCZH00,3,4
148,1,object_10,object_01,863.39000001317,2,1,423.9950000192,1.0,2,object_09,1,2257,0,5,9,desert_2,1,memory-2step-stake-s,642,2082875,0.0-19.0-0.1-0.148,A1WS9UHL45VZ0X,32CXT5U15JJVAEXBU2XNZL8A76W8U1,3BF51CHDTZQB9MKIP1IBCB9POCZH00,2,1
149,3,object_08,object_06,628.61499999417,6,2,658.56000001077,0.8888888888888888,2,object_09,1,2265,0,2,8,library_6,1,memory-2step-stake-s,643,2091595,0.0-19.0-0.1-0.149,A1WS9UHL45VZ0X,32CXT5U15JJVAEXBU2XNZL8A76W8U1,3BF51CHDTZQB9MKIP1IBCB9POCZH00,5,6
150,4,object_04,object_07,672.19499999192,7,2,430.71499996586,0.2222222222222222,1,object_05,5,2275,0,2,7,restaurant_8,1,memory-2step-stake-s,644,2099463,0.0-19.0-0.1-0.150,A1WS9UHL45VZ0X,32CXT5U15JJVAEXBU2XNZL8A76W8U1,3BF51CHDTZQB9MKIP1IBCB9POCZH00,8,7
151,3,object_08,object_06,693.06499999948,6,2,442.34499998856,0.5555555555555556,2,object_09,5,2300,0,3,5,library_6,1,memory-2step-stake-s,645,2107649,0.0-19.0-0.1-0.151,A1WS9UHL45VZ0X,32CXT5U15JJVAEXBU2XNZL8A76W8U1,3BF51CHDTZQB9MKIP1IBCB9POCZH00,5,6
152,2,object_02,object_03,994.10499999067,4,1,274.83499998925,0.3333333333333333,2,object_09,5,2315,0,1,3,forest_2,1,memory-2step-stake-s,646,2115451,0.0-19.0-0.1-0.152,A1WS9UHL45VZ0X,32CXT5U15JJVAEXBU2XNZL8A76W8U1,3BF51CHDTZQB9MKIP1IBCB9POCZH00,4,3
153,3,object_08,object_06,953.32999998936,5,1,515.17500000773,0.2222222222222222,1,object_05,5,2325,0,2,1,library_6,1,memory-2step-stake-s,647,2123404,0.0-19.0-0.1-0.153,A1WS9UHL45VZ0X,32CXT5U15JJVAEXBU2XNZL8A76W8U1,3BF51CHDTZQB9MKIP1IBCB9POCZH00,5,6
154,1,object_10,object_01,845.16500000609,1,2,374.90499997512,0.1111111111111111,1,object_05,1,2326,0,1,2,desert_3,1,memory-2step-stake-s,648,2131115,0.0-19.0-0.1-0.154,A1WS9UHL45VZ0X,32CXT5U15JJVAEXBU2XNZL8A76W8U1,3BF51CHDTZQB9MKIP1IBCB9POCZH00,2,1
155,2,object_02,object_03,703.90999998199,4,1,633.90000001527,0.5555555555555556,2,object_09,1,2331,0,1,5,forest_4,1,memory-2step-stake-s,649,2139494,0.0-19.0-0.1-0.155,A1WS9UHL45VZ0X,32CXT5U15JJVAEXBU2XNZL8A76W8U1,3BF51CHDTZQB9MKIP1IBCB9POCZH00,4,3
156,4,object_04,object_07,1337.6600000192,8,1,371.93500000285,0.4444444444444444,2,object_09,5,2351,0,2,4,restaurant_8,1,memory-2step-stake-s,650,2147507,0.0-19.0-0.1-0.156,A1WS9UHL45VZ0X,32CXT5U15JJVAEXBU2XNZL8A76W8U1,3BF51CHDTZQB9MKIP1IBCB9POCZH00,8,7
157,2,object_03,object_02,591.74999996321,4,2,156.68500005268,0.2222222222222222,2,object_09,1,2353,0,0,2,forest_2,1,memory-2step-stake-s,651,2155090,0.0-19.0-0.1-0.157,A1WS9UHL45VZ0X,32CXT5U15JJVAEXBU2XNZL8A76W8U1,3BF51CHDTZQB9MKIP1IBCB9POCZH00,3,4
158,3,object_08,object_06,571.76000002073,5,1,429.2949999799,0.3333333333333333,1,object_05,1,2356,0,3,0,library_7,1,memory-2step-stake-s,652,2163055,0.0-19.0-0.1-0.158,A1WS9UHL45VZ0X,32CXT5U15JJVAEXBU2XNZL8A76W8U1,3BF51CHDTZQB9MKIP1IBCB9POCZH00,5,6
159,1,object_10,object_01,967.31500001624,1,2,400.5050000269,0.0,1,object_05,1,2356,0,0,2,desert_2,1,memory-2step-stake-s,653,2170679,0.0-19.0-0.1-0.159,A1WS9UHL45VZ0X,32CXT5U15JJVAEXBU2XNZL8A76W8U1,3BF51CHDTZQB9MKIP1IBCB9POCZH00,2,1
160,3,object_06,object_08,724.34999997495,6,1,393.6049999902,0.4444444444444444,2,object_09,5,2376,0,3,4,library_7,1,memory-2step-stake-s,654,2178712,0.0-19.0-0.1-0.160,A1WS9UHL45VZ0X,32CXT5U15JJVAEXBU2XNZL8A76W8U1,3BF51CHDTZQB9MKIP1IBCB9POCZH00,6,5
161,1,object_01,object_10,1139.9350000429,2,2,628.43500002054,0.6666666666666666,2,object_09,1,2382,0,2,6,desert_2,1,memory-2step-stake-s,655,2187172,0.0-19.0-0.1-0.161,A1WS9UHL45VZ0X,32CXT5U15JJVAEXBU2XNZL8A76W8U1,3BF51CHDTZQB9MKIP1IBCB9POCZH00,1,2
162,4,object_07,object_04,787.27000002982,8,2,315.43000001693,0.5555555555555556,2,object_09,1,2387,0,2,5,restaurant_7,1,memory-2step-stake-s,656,2195228,0.0-19.0-0.1-0.162,A1WS9UHL45VZ0X,32CXT5U15JJVAEXBU2XNZL8A76W8U1,3BF51CHDTZQB9MKIP1IBCB9POCZH00,7,8
163,2,object_03,object_02,725.67499999423,4,2,418.26000000583,0.4444444444444444,2,object_09,1,2391,0,2,4,forest_8,1,memory-2step-stake-s,657,2203291,0.0-19.0-0.1-0.163,A1WS9UHL45VZ0X,32CXT5U15JJVAEXBU2XNZL8A76W8U1,3BF51CHDTZQB9MKIP1IBCB9POCZH00,3,4
164,3,object_08,object_06,623.3249999932,6,2,473.20999996737,0.3333333333333333,2,object_09,1,2394,0,1,3,library_7,1,memory-2step-stake-s,658,2211302,0.0-19.0-0.1-0.164,A1WS9UHL45VZ0X,32CXT5U15JJVAEXBU2XNZL8A76W8U1,3BF51CHDTZQB9MKIP1IBCB9POCZH00,5,6
165,1,object_01,object_10,840.57999996003,1,1,473.33499998786,0.0,1,object_05,1,2394,0,0,0,desert_3,1,memory-2step-stake-s,659,2218992,0.0-19.0-0.1-0.165,A1WS9UHL45VZ0X,32CXT5U15JJVAEXBU2XNZL8A76W8U1,3BF51CHDTZQB9MKIP1IBCB9POCZH00,1,2
166,2,object_03,object_02,617.48999997508,4,2,417.99000004539,0.1111111111111111,2,object_09,1,2395,0,0,1,forest_8,1,memory-2step-stake-s,660,2226751,0.0-19.0-0.1-0.166,A1WS9UHL45VZ0X,32CXT5U15JJVAEXBU2XNZL8A76W8U1,3BF51CHDTZQB9MKIP1IBCB9POCZH00,3,4
167,2,object_02,object_03,690.52000000374,3,2,424.8249999946,0.3333333333333333,1,object_05,5,2410,0,3,3,forest_4,1,memory-2step-stake-s,661,2234711,0.0-19.0-0.1-0.167,A1WS9UHL45VZ0X,32CXT5U15JJVAEXBU2XNZL8A76W8U1,3BF51CHDTZQB9MKIP1IBCB9POCZH00,4,3
168,3,object_08,object_06,1335.2050000103,6,2,439.11499995738,0.0,2,object_09,1,2410,0,5,0,library_7,1,memory-2step-stake-s,662,2242376,0.0-19.0-0.1-0.168,A1WS9UHL45VZ0X,32CXT5U15JJVAEXBU2XNZL8A76W8U1,3BF51CHDTZQB9MKIP1IBCB9POCZH00,5,6
169,2,object_03,object_02,509.16999997571,3,1,308.78500000108,0.5555555555555556,1,object_05,1,2415,0,5,2,forest_8,1,memory-2step-stake-s,663,2250441,0.0-19.0-0.1-0.169,A1WS9UHL45VZ0X,32CXT5U15JJVAEXBU2XNZL8A76W8U1,3BF51CHDTZQB9MKIP1IBCB9POCZH00,3,4
170,3,object_08,object_06,655.48999997554,5,1,371.0499999579,0.5555555555555556,1,object_05,5,2440,0,5,4,library_8,1,memory-2step-stake-s,664,2258556,0.0-19.0-0.1-0.170,A1WS9UHL45VZ0X,32CXT5U15JJVAEXBU2XNZL8A76W8U1,3BF51CHDTZQB9MKIP1IBCB9POCZH00,5,6
171,2,object_02,object_03,561.91000004765,3,2,414.21499999706,0.4444444444444444,1,object_05,5,2460,0,4,3,forest_2,1,memory-2step-stake-s,665,2266602,0.0-19.0-0.1-0.171,A1WS9UHL45VZ0X,32CXT5U15JJVAEXBU2XNZL8A76W8U1,3BF51CHDTZQB9MKIP1IBCB9POCZH00,4,3
172,4,object_04,object_07,1294.8800000013,7,2,495.9899999667,1.0,1,object_05,5,2505,0,9,6,restaurant_7,1,memory-2step-stake-s,666,2275251,0.0-19.0-0.1-0.172,A1WS9UHL45VZ0X,32CXT5U15JJVAEXBU2XNZL8A76W8U1,3BF51CHDTZQB9MKIP1IBCB9POCZH00,8,7
173,2,object_03,object_02,718.76999997767,3,1,424.56000001403,0.8888888888888888,1,object_05,5,2545,0,8,5,forest_1,1,memory-2step-stake-s,667,2283740,0.0-19.0-0.1-0.173,A1WS9UHL45VZ0X,32CXT5U15JJVAEXBU2XNZL8A76W8U1,3BF51CHDTZQB9MKIP1IBCB9POCZH00,3,4
174,4,object_04,object_07,981.81500000646,7,2,566.82000000728,0.5555555555555556,1,object_05,1,2550,0,5,7,restaurant_7,1,memory-2step-stake-s,668,2292060,0.0-19.0-0.1-0.174,A1WS9UHL45VZ0X,32CXT5U15JJVAEXBU2XNZL8A76W8U1,3BF51CHDTZQB9MKIP1IBCB9POCZH00,8,7
175,2,object_03,object_02,683.35000000661,3,1,596.97000001324,0.4444444444444444,1,object_05,1,2554,0,4,9,forest_2,1,memory-2step-stake-s,669,2300296,0.0-19.0-0.1-0.175,A1WS9UHL45VZ0X,32CXT5U15JJVAEXBU2XNZL8A76W8U1,3BF51CHDTZQB9MKIP1IBCB9POCZH00,3,4
176,1,object_10,object_01,636.54500001576,1,2,495.29500002973,0.6666666666666666,1,object_05,1,2560,0,6,8,desert_6,1,memory-2step-stake-s,670,2308637,0.0-19.0-0.1-0.176,A1WS9UHL45VZ0X,32CXT5U15JJVAEXBU2XNZL8A76W8U1,3BF51CHDTZQB9MKIP1IBCB9POCZH00,2,1
177,4,object_04,object_07,1486.28500005,7,2,556.94999999832,0.6666666666666666,1,object_05,1,2566,0,6,6,restaurant_7,1,memory-2step-stake-s,671,2317043,0.0-19.0-0.1-0.177,A1WS9UHL45VZ0X,32CXT5U15JJVAEXBU2XNZL8A76W8U1,3BF51CHDTZQB9MKIP1IBCB9POCZH00,8,7
178,4,object_04,object_07,739.39499998232,7,2,419.18500000611,0.8888888888888888,1,object_05,1,2574,0,8,6,restaurant_6,1,memory-2step-stake-s,672,2325524,0.0-19.0-0.1-0.178,A1WS9UHL45VZ0X,32CXT5U15JJVAEXBU2XNZL8A76W8U1,3BF51CHDTZQB9MKIP1IBCB9POCZH00,8,7
179,3,object_06,object_08,513.16500001121,5,2,447.58999999613,0.6666666666666666,1,object_05,5,2604,0,6,5,library_4,1,memory-2step-stake-s,673,2333826,0.0-19.0-0.1-0.179,A1WS9UHL45VZ0X,32CXT5U15JJVAEXBU2XNZL8A76W8U1,3BF51CHDTZQB9MKIP1IBCB9POCZH00,6,5
180,4,object_04,object_07,636.18000003044,7,2,387.98499997938,0.7777777777777778,1,object_05,5,2639,0,7,4,restaurant_6,1,memory-2step-stake-s,674,2342167,0.0-19.0-0.1-0.180,A1WS9UHL45VZ0X,32CXT5U15JJVAEXBU2XNZL8A76W8U1,3BF51CHDTZQB9MKIP1IBCB9POCZH00,8,7
181,3,object_08,object_06,547.66999999993,5,1,508.06999998167,0.6666666666666666,1,object_05,5,2669,0,6,5,library_7,1,memory-2step-stake-s,675,2350533,0.0-19.0-0.1-0.181,A1WS9UHL45VZ0X,32CXT5U15JJVAEXBU2XNZL8A76W8U1,3BF51CHDTZQB9MKIP1IBCB9POCZH00,5,6
182,1,object_10,object_01,636.65500003844,1,2,309.28000004496,0.7777777777777778,1,object_05,1,2676,0,7,8,desert_8,1,memory-2step-stake-s,676,2358774,0.0-19.0-0.1-0.182,A1WS9UHL45VZ0X,32CXT5U15JJVAEXBU2XNZL8A76W8U1,3BF51CHDTZQB9MKIP1IBCB9POCZH00,2,1
183,3,object_08,object_06,705.8899999829,5,1,428.04500000784,0.7777777777777778,1,object_05,1,2683,0,7,6,library_8,1,memory-2step-stake-s,677,2367163,0.0-19.0-0.1-0.183,A1WS9UHL45VZ0X,32CXT5U15JJVAEXBU2XNZL8A76W8U1,3BF51CHDTZQB9MKIP1IBCB9POCZH00,5,6
184,1,object_01,object_10,784.51000002678,1,1,664.66000000946,0.6666666666666666,1,object_05,1,2689,0,6,4,desert_3,1,memory-2step-stake-s,678,2375672,0.0-19.0-0.1-0.184,A1WS9UHL45VZ0X,32CXT5U15JJVAEXBU2XNZL8A76W8U1,3BF51CHDTZQB9MKIP1IBCB9POCZH00,1,2
185,3,object_08,object_06,575.53999999072,5,1,336.24000003329,0.3333333333333333,1,object_05,5,2704,0,3,3,library_4,1,memory-2step-stake-s,679,2383550,0.0-19.0-0.1-0.185,A1WS9UHL45VZ0X,32CXT5U15JJVAEXBU2XNZL8A76W8U1,3BF51CHDTZQB9MKIP1IBCB9POCZH00,5,6
186,1,object_10,object_01,869.20000001555,2,1,338.0649999599,0.2222222222222222,2,object_09,1,2706,0,1,2,desert_3,1,memory-2step-stake-s,680,2391319,0.0-19.0-0.1-0.186,A1WS9UHL45VZ0X,32CXT5U15JJVAEXBU2XNZL8A76W8U1,3BF51CHDTZQB9MKIP1IBCB9POCZH00,2,1
187,3,object_06,object_08,832.22999999998,6,1,358.99500001688,0.3333333333333333,2,object_09,5,2721,0,2,3,library_6,1,memory-2step-stake-s,681,2399211,0.0-19.0-0.1-0.187,A1WS9UHL45VZ0X,32CXT5U15JJVAEXBU2XNZL8A76W8U1,3BF51CHDTZQB9MKIP1IBCB9POCZH00,6,5
188,1,object_01,object_10,596.36999998474,1,1,580.0150000141,0.1111111111111111,1,object_05,1,2722,0,1,4,desert_2,1,memory-2step-stake-s,682,2407126,0.0-19.0-0.1-0.188,A1WS9UHL45VZ0X,32CXT5U15JJVAEXBU2XNZL8A76W8U1,3BF51CHDTZQB9MKIP1IBCB9POCZH00,1,2
189,3,object_06,object_08,577.33499997994,6,1,438.47500003176,0.3333333333333333,2,object_09,5,2737,0,4,3,library_6,1,memory-2step-stake-s,683,2415100,0.0-19.0-0.1-0.189,A1WS9UHL45VZ0X,32CXT5U15JJVAEXBU2XNZL8A76W8U1,3BF51CHDTZQB9MKIP1IBCB9POCZH00,6,5
190,4,object_04,object_07,1298.2499999925,8,1,694.27999999607,0.2222222222222222,2,object_09,5,2747,0,4,2,restaurant_8,1,memory-2step-stake-s,684,2423238,0.0-19.0-0.1-0.190,A1WS9UHL45VZ0X,32CXT5U15JJVAEXBU2XNZL8A76W8U1,3BF51CHDTZQB9MKIP1IBCB9POCZH00,8,7
191,2,object_03,object_02,565.36499998765,3,1,475.0800000038,0.3333333333333333,1,object_05,1,2750,0,3,2,forest_8,1,memory-2step-stake-s,685,2431260,0.0-19.0-0.1-0.191,A1WS9UHL45VZ0X,32CXT5U15JJVAEXBU2XNZL8A76W8U1,3BF51CHDTZQB9MKIP1IBCB9POCZH00,3,4
192,4,object_07,object_04,-1.0,-1,-1,-1.0,0.0,-,0,5,2750,0,1,4,restaurant_6,1,memory-2step-stake-s,686,2437791,0.0-19.0-0.1-0.192,A1WS9UHL45VZ0X,32CXT5U15JJVAEXBU2XNZL8A76W8U1,3BF51CHDTZQB9MKIP1IBCB9POCZH00,7,8
193,2,object_03,object_02,705.30000003055,4,2,296.58999998355,0.3333333333333333,2,object_09,1,2753,0,2,3,forest_1,1,memory-2step-stake-s,687,2445631,0.0-19.0-0.1-0.193,A1WS9UHL45VZ0X,32CXT5U15JJVAEXBU2XNZL8A76W8U1,3BF51CHDTZQB9MKIP1IBCB9POCZH00,3,4
194,4,object_04,object_07,760.74500003597,8,1,541.1600000225,0.1111111111111111,2,object_09,5,2758,0,1,1,restaurant_8,1,memory-2step-stake-s,688,2453508,0.0-19.0-0.1-0.194,A1WS9UHL45VZ0X,32CXT5U15JJVAEXBU2XNZL8A76W8U1,3BF51CHDTZQB9MKIP1IBCB9POCZH00,8,7
195,3,object_08,object_06,460.83500003442,5,1,487.33000003267,0.2222222222222222,1,object_05,5,2768,0,2,3,library_7,1,memory-2step-stake-s,689,2461427,0.0-19.0-0.1-0.195,A1WS9UHL45VZ0X,32CXT5U15JJVAEXBU2XNZL8A76W8U1,3BF51CHDTZQB9MKIP1IBCB9POCZH00,5,6
196,1,object_10,object_01,832.37000001827,1,2,267.5450000097,0.1111111111111111,1,object_05,1,2769,0,1,4,desert_3,1,memory-2step-stake-s,690,2469036,0.0-19.0-0.1-0.196,A1WS9UHL45VZ0X,32CXT5U15JJVAEXBU2XNZL8A76W8U1,3BF51CHDTZQB9MKIP1IBCB9POCZH00,2,1
197,3,object_08,object_06,726.37500002747,6,2,422.78000002261,0.5555555555555556,2,object_09,5,2794,0,1,5,library_4,1,memory-2step-stake-s,691,2477201,0.0-19.0-0.1-0.197,A1WS9UHL45VZ0X,32CXT5U15JJVAEXBU2XNZL8A76W8U1,3BF51CHDTZQB9MKIP1IBCB9POCZH00,5,6
198,2,object_03,object_02,847.01000002678,3,1,381.72000000486,0.0,1,object_05,1,2794,0,0,2,forest_2,1,memory-2step-stake-s,692,2484809,0.0-19.0-0.1-0.198,A1WS9UHL45VZ0X,32CXT5U15JJVAEXBU2XNZL8A76W8U1,3BF51CHDTZQB9MKIP1IBCB9POCZH00,3,4
199,3,object_08,object_06,543.96499996074,6,2,373.20999999065,0.0,2,object_09,5,2794,0,4,0,library_8,1,memory-2step-stake-s,693,2492402,0.0-19.0-0.1-0.199,A1WS9UHL45VZ0X,32CXT5U15JJVAEXBU2XNZL8A76W8U1,3BF51CHDTZQB9MKIP1IBCB9POCZH00,5,6
200,2,object_02,object_03,615.289999987,3,2,310.79000001773,0.6666666666666666,1,object_05,1,2800,0,6,0,forest_2,1,memory-2step-stake-s,694,2500559,0.0-19.0-0.1-0.200,A1WS9UHL45VZ0X,32CXT5U15JJVAEXBU2XNZL8A76W8U1,3BF51CHDTZQB9MKIP1IBCB9POCZH00,4,3
201,2,object_03,object_02,534.4449999975,3,1,501.61999999546,0.4444444444444444,1,object_05,5,2820,0,4,2,forest_4,1,memory-2step-stake-s,695,2508688,0.0-19.0-0.1-0.201,A1WS9UHL45VZ0X,32CXT5U15JJVAEXBU2XNZL8A76W8U1,3BF51CHDTZQB9MKIP1IBCB9POCZH00,3,4
202,1,object_10,object_01,668.54499996407,1,2,511.89500000328,0.6666666666666666,1,object_05,1,2826,0,6,3,desert_6,1,memory-2step-stake-s,696,2517047,0.0-19.0-0.1-0.202,A1WS9UHL45VZ0X,32CXT5U15JJVAEXBU2XNZL8A76W8U1,3BF51CHDTZQB9MKIP1IBCB9POCZH00,2,1
203,4,object_04,object_07,612.61499999091,7,2,434.77500003064,0.3333333333333333,1,object_05,5,2841,0,3,1,restaurant_5,1,memory-2step-stake-s,697,2525020,0.0-19.0-0.1-0.203,A1WS9UHL45VZ0X,32CXT5U15JJVAEXBU2XNZL8A76W8U1,3BF51CHDTZQB9MKIP1IBCB9POCZH00,8,7
204,4,object_04,object_07,895.97000001231,7,2,512.15500000399,0.3333333333333333,1,object_05,5,2856,0,3,3,restaurant_5,1,memory-2step-stake-s,698,2533074,0.0-19.0-0.1-0.204,A1WS9UHL45VZ0X,32CXT5U15JJVAEXBU2XNZL8A76W8U1,3BF51CHDTZQB9MKIP1IBCB9POCZH00,8,7
205,1,object_01,object_10,884.04999999329,2,2,555.23499997798,0.6666666666666666,2,object_09,1,2862,0,7,6,desert_6,1,memory-2step-stake-s,699,2541475,0.0-19.0-0.1-0.205,A1WS9UHL45VZ0X,32CXT5U15JJVAEXBU2XNZL8A76W8U1,3BF51CHDTZQB9MKIP1IBCB9POCZH00,1,2
206,3,object_06,object_08,866.11000000266,6,1,400.75999998953,0.7777777777777778,2,object_09,1,2869,0,5,7,library_4,1,memory-2step-stake-s,700,2549830,0.0-19.0-0.1-0.206,A1WS9UHL45VZ0X,32CXT5U15JJVAEXBU2XNZL8A76W8U1,3BF51CHDTZQB9MKIP1IBCB9POCZH00,6,5
207,4,object_07,object_04,888.35999998264,8,2,483.515000029,0.6666666666666666,2,object_09,5,2899,0,3,6,restaurant_5,1,memory-2step-stake-s,701,2558165,0.0-19.0-0.1-0.207,A1WS9UHL45VZ0X,32CXT5U15JJVAEXBU2XNZL8A76W8U1,3BF51CHDTZQB9MKIP1IBCB9POCZH00,7,8
208,2,object_02,object_03,665.84000003058,4,1,473.33999996772,1.0,2,object_09,1,2908,0,0,9,forest_1,1,memory-2step-stake-s,702,2566797,0.0-19.0-0.1-0.208,A1WS9UHL45VZ0X,32CXT5U15JJVAEXBU2XNZL8A76W8U1,3BF51CHDTZQB9MKIP1IBCB9POCZH00,4,3
209,4,object_04,object_07,611.78000003565,8,1,822.60000001406,0.6666666666666666,2,object_09,5,2938,0,0,6,restaurant_8,1,memory-2step-stake-s,703,2575466,0.0-19.0-0.1-0.209,A1WS9UHL45VZ0X,32CXT5U15JJVAEXBU2XNZL8A76W8U1,3BF51CHDTZQB9MKIP1IBCB9POCZH00,8,7
210,2,object_03,object_02,631.48500001989,4,2,340.46500001568,0.3333333333333333,2,object_09,1,2941,0,3,3,forest_1,1,memory-2step-stake-s,704,2583343,0.0-19.0-0.1-0.210,A1WS9UHL45VZ0X,32CXT5U15JJVAEXBU2XNZL8A76W8U1,3BF51CHDTZQB9MKIP1IBCB9POCZH00,3,4
211,1,object_10,object_01,618.71000000974,1,2,267.32500002254,0.4444444444444444,1,object_05,1,2945,0,4,3,desert_8,1,memory-2step-stake-s,705,2591257,0.0-19.0-0.1-0.211,A1WS9UHL45VZ0X,32CXT5U15JJVAEXBU2XNZL8A76W8U1,3BF51CHDTZQB9MKIP1IBCB9POCZH00,2,1
212,3,object_08,object_06,759.85000003129,5,1,503.42000002274,0.6666666666666666,1,object_05,5,2975,0,6,2,library_8,1,memory-2step-stake-s,706,2599613,0.0-19.0-0.1-0.212,A1WS9UHL45VZ0X,32CXT5U15JJVAEXBU2XNZL8A76W8U1,3BF51CHDTZQB9MKIP1IBCB9POCZH00,5,6
213,3,object_08,object_06,625.34000002779,5,1,503.72999999672,0.8888888888888888,1,object_05,5,3015,0,8,1,library_4,1,memory-2step-stake-s,707,2608176,0.0-19.0-0.1-0.213,A1WS9UHL45VZ0X,32CXT5U15JJVAEXBU2XNZL8A76W8U1,3BF51CHDTZQB9MKIP1IBCB9POCZH00,5,6
214,1,object_10,object_01,780.78999998979,1,2,566.18500000332,1.0,1,object_05,5,3060,0,9,0,desert_6,1,memory-2step-stake-s,708,2616899,0.0-19.0-0.1-0.214,A1WS9UHL45VZ0X,32CXT5U15JJVAEXBU2XNZL8A76W8U1,3BF51CHDTZQB9MKIP1IBCB9POCZH00,2,1
215,1,object_01,object_10,622.41000001086,1,1,451.64500002284,0.6666666666666666,1,object_05,5,3090,0,6,0,desert_3,1,memory-2step-stake-s,709,2625192,0.0-19.0-0.1-0.215,A1WS9UHL45VZ0X,32CXT5U15JJVAEXBU2XNZL8A76W8U1,3BF51CHDTZQB9MKIP1IBCB9POCZH00,1,2
216,2,object_03,object_02,981.70499998378,4,2,482.91999998037,0.0,2,object_09,1,3090,0,5,0,forest_1,1,memory-2step-stake-s,710,2632896,0.0-19.0-0.1-0.216,A1WS9UHL45VZ0X,32CXT5U15JJVAEXBU2XNZL8A76W8U1,3BF51CHDTZQB9MKIP1IBCB9POCZH00,3,4
217,4,object_07,object_04,974.22500001267,7,1,383.00999999046,0.5555555555555556,1,object_05,1,3095,0,5,1,restaurant_8,1,memory-2step-stake-s,711,2641028,0.0-19.0-0.1-0.217,A1WS9UHL45VZ0X,32CXT5U15JJVAEXBU2XNZL8A76W8U1,3BF51CHDTZQB9MKIP1IBCB9POCZH00,7,8
218,2,object_03,object_02,578.20499996888,3,1,371.09499995131,0.2222222222222222,1,object_05,1,3097,0,2,3,forest_4,1,memory-2step-stake-s,712,2648830,0.0-19.0-0.1-0.218,A1WS9UHL45VZ0X,32CXT5U15JJVAEXBU2XNZL8A76W8U1,3BF51CHDTZQB9MKIP1IBCB9POCZH00,3,4
219,2,object_03,object_02,926.55000003288,3,1,524.23500001896,0.1111111111111111,1,object_05,1,3098,0,1,3,forest_4,1,memory-2step-stake-s,713,2656690,0.0-19.0-0.1-0.219,A1WS9UHL45VZ0X,32CXT5U15JJVAEXBU2XNZL8A76W8U1,3BF51CHDTZQB9MKIP1IBCB9POCZH00,3,4
220,1,object_10,object_01,821.27999997465,1,2,1334.7249999642,0.0,1,object_05,1,3098,0,0,2,desert_6,1,memory-2step-stake-s,714,2665243,0.0-19.0-0.1-0.220,A1WS9UHL45VZ0X,32CXT5U15JJVAEXBU2XNZL8A76W8U1,3BF51CHDTZQB9MKIP1IBCB9POCZH00,2,1
221,3,object_06,object_08,893.16500001587,6,1,444.52499999898,0.1111111111111111,2,object_09,5,3103,0,0,1,library_4,1,memory-2step-stake-s,715,2673013,0.0-19.0-0.1-0.221,A1WS9UHL45VZ0X,32CXT5U15JJVAEXBU2XNZL8A76W8U1,3BF51CHDTZQB9MKIP1IBCB9POCZH00,6,5
222,2,object_03,object_02,555.70500000613,4,2,296.49500001688,0.3333333333333333,2,object_09,1,3106,0,0,3,forest_2,1,memory-2step-stake-s,716,2680842,0.0-19.0-0.1-0.222,A1WS9UHL45VZ0X,32CXT5U15JJVAEXBU2XNZL8A76W8U1,3BF51CHDTZQB9MKIP1IBCB9POCZH00,3,4
223,4,object_07,object_04,727.71500004455,8,2,525.48000001116,0.0,2,object_09,1,3106,0,2,0,restaurant_8,1,memory-2step-stake-s,717,2688597,0.0-19.0-0.1-0.223,A1WS9UHL45VZ0X,32CXT5U15JJVAEXBU2XNZL8A76W8U1,3BF51CHDTZQB9MKIP1IBCB9POCZH00,7,8
224,3,object_08,object_06,760.15500002541,5,1,574.64000000618,0.3333333333333333,1,object_05,5,3121,0,3,2,library_8,1,memory-2step-stake-s,718,2696703,0.0-19.0-0.1-0.224,A1WS9UHL45VZ0X,32CXT5U15JJVAEXBU2XNZL8A76W8U1,3BF51CHDTZQB9MKIP1IBCB9POCZH00,5,6
225,3,object_06,object_08,584.60000000196,5,2,478.92999998294,0.2222222222222222,1,object_05,5,3131,0,2,5,library_7,1,memory-2step-stake-s,719,2704617,0.0-19.0-0.1-0.225,A1WS9UHL45VZ0X,32CXT5U15JJVAEXBU2XNZL8A76W8U1,3BF51CHDTZQB9MKIP1IBCB9POCZH00,6,5
226,1,object_10,object_01,641.26000000397,1,2,308.53999999817,0.2222222222222222,1,object_05,1,3133,0,2,5,desert_6,1,memory-2step-stake-s,720,2712349,0.0-19.0-0.1-0.226,A1WS9UHL45VZ0X,32CXT5U15JJVAEXBU2XNZL8A76W8U1,3BF51CHDTZQB9MKIP1IBCB9POCZH00,2,1
227,2,object_03,object_02,957.36000000034,3,1,387.77500001015,0.1111111111111111,1,object_05,1,3134,0,1,8,forest_1,1,memory-2step-stake-s,721,2720068,0.0-19.0-0.1-0.227,A1WS9UHL45VZ0X,32CXT5U15JJVAEXBU2XNZL8A76W8U1,3BF51CHDTZQB9MKIP1IBCB9POCZH00,3,4
228,4,object_07,object_04,1167.9250000161,7,1,424.94500003522,0.2222222222222222,1,object_05,1,3136,0,2,8,restaurant_6,1,memory-2step-stake-s,722,2727925,0.0-19.0-0.1-0.228,A1WS9UHL45VZ0X,32CXT5U15JJVAEXBU2XNZL8A76W8U1,3BF51CHDTZQB9MKIP1IBCB9POCZH00,7,8
229,3,object_06,object_08,703.15000001574,6,1,287.79000003124,0.3333333333333333,2,object_09,5,3151,0,2,3,library_7,1,memory-2step-stake-s,723,2735750,0.0-19.0-0.1-0.229,A1WS9UHL45VZ0X,32CXT5U15JJVAEXBU2XNZL8A76W8U1,3BF51CHDTZQB9MKIP1IBCB9POCZH00,6,5
230,2,object_02,object_03,695.24500000989,4,1,447.56000000052,0.5555555555555556,2,object_09,5,3176,0,2,5,forest_4,1,memory-2step-stake-s,724,2743941,0.0-19.0-0.1-0.230,A1WS9UHL45VZ0X,32CXT5U15JJVAEXBU2XNZL8A76W8U1,3BF51CHDTZQB9MKIP1IBCB9POCZH00,4,3
231,4,object_07,object_04,842.37500000745,8,2,545.79499998363,0.7777777777777778,2,object_09,5,3211,0,0,7,restaurant_7,1,memory-2step-stake-s,725,2752438,0.0-19.0-0.1-0.231,A1WS9UHL45VZ0X,32CXT5U15JJVAEXBU2XNZL8A76W8U1,3BF51CHDTZQB9MKIP1IBCB9POCZH00,7,8
232,3,object_06,object_08,842.56499999901,6,1,509.83999995515,1.0,2,object_09,5,3256,0,1,9,library_8,1,memory-2step-stake-s,726,2761110,0.0-19.0-0.1-0.232,A1WS9UHL45VZ0X,32CXT5U15JJVAEXBU2XNZL8A76W8U1,3BF51CHDTZQB9MKIP1IBCB9POCZH00,6,5
233,1,object_10,object_01,740.38500001188,2,1,340.65500000725,0.8888888888888888,2,object_09,5,3296,0,1,8,desert_8,1,memory-2step-stake-s,727,2769500,0.0-19.0-0.1-0.233,A1WS9UHL45VZ0X,32CXT5U15JJVAEXBU2XNZL8A76W8U1,3BF51CHDTZQB9MKIP1IBCB9POCZH00,2,1
234,4,object_04,object_07,697.00500002364,8,1,376.19999999879,0.8888888888888888,2,object_09,5,3336,0,3,8,restaurant_5,1,memory-2step-stake-s,728,2777923,0.0-19.0-0.1-0.234,A1WS9UHL45VZ0X,32CXT5U15JJVAEXBU2XNZL8A76W8U1,3BF51CHDTZQB9MKIP1IBCB9POCZH00,8,7
235,1,object_01,object_10,1146.7149999808,2,2,493.20999998599,0.8888888888888888,2,object_09,1,3344,0,3,8,desert_6,1,memory-2step-stake-s,729,2786458,0.0-19.0-0.1-0.235,A1WS9UHL45VZ0X,32CXT5U15JJVAEXBU2XNZL8A76W8U1,3BF51CHDTZQB9MKIP1IBCB9POCZH00,1,2
236,4,object_07,object_04,721.39999998035,8,2,582.90000003763,0.8888888888888888,2,object_09,5,3384,0,1,8,restaurant_7,1,memory-2step-stake-s,730,2795099,0.0-19.0-0.1-0.236,A1WS9UHL45VZ0X,32CXT5U15JJVAEXBU2XNZL8A76W8U1,3BF51CHDTZQB9MKIP1IBCB9POCZH00,7,8
237,4,object_07,object_04,600.7250000257,8,2,550.32500001835,0.8888888888888888,2,object_09,5,3424,0,2,8,restaurant_5,1,memory-2step-stake-s,731,2803694,0.0-19.0-0.1-0.237,A1WS9UHL45VZ0X,32CXT5U15JJVAEXBU2XNZL8A76W8U1,3BF51CHDTZQB9MKIP1IBCB9POCZH00,7,8
238,3,object_08,object_06,751.72999995993,6,2,401.64499997627,1.0,2,object_09,5,3469,0,1,9,library_7,1,memory-2step-stake-s,732,2812244,0.0-19.0-0.1-0.238,A1WS9UHL45VZ0X,32CXT5U15JJVAEXBU2XNZL8A76W8U1,3BF51CHDTZQB9MKIP1IBCB9POCZH00,5,6
239,1,object_10,object_01,962.2049999889,2,1,496.4499999769,0.7777777777777778,2,object_09,1,3476,0,2,7,desert_6,1,memory-2step-stake-s,733,2820690,0.0-19.0-0.1-0.239,A1WS9UHL45VZ0X,32CXT5U15JJVAEXBU2XNZL8A76W8U1,3BF51CHDTZQB9MKIP1IBCB9POCZH00,2,1
240,1,object_10,object_01,843.04999996675,2,1,327.17000000412,1.0,2,object_09,5,3521,0,1,9,desert_8,1,memory-2step-stake-s,734,2829175,0.0-19.0-0.1-0.240,A1WS9UHL45VZ0X,32CXT5U15JJVAEXBU2XNZL8A76W8U1,3BF51CHDTZQB9MKIP1IBCB9POCZH00,2,1
241,2,object_03,object_02,627.46499996865,4,2,589.58000002895,0.5555555555555556,2,object_09,1,3526,0,1,5,forest_2,1,memory-2step-stake-s,735,2837507,0.0-19.0-0.1-0.241,A1WS9UHL45VZ0X,32CXT5U15JJVAEXBU2XNZL8A76W8U1,3BF51CHDTZQB9MKIP1IBCB9POCZH00,3,4
242,1,object_01,object_10,755.88999997126,2,2,446.1499999743,0.3333333333333333,2,object_09,1,3529,0,2,3,desert_8,1,memory-2step-stake-s,736,2845490,0.0-19.0-0.1-0.242,A1WS9UHL45VZ0X,32CXT5U15JJVAEXBU2XNZL8A76W8U1,3BF51CHDTZQB9MKIP1IBCB9POCZH00,1,2
243,1,object_01,object_10,910.45500000473,1,1,449.57999995677,0.2222222222222222,1,object_05,1,3531,0,2,2,desert_8,1,memory-2step-stake-s,737,2853381,0.0-19.0-0.1-0.243,A1WS9UHL45VZ0X,32CXT5U15JJVAEXBU2XNZL8A76W8U1,3BF51CHDTZQB9MKIP1IBCB9POCZH00,1,2
244,3,object_06,object_08,725.70000000997,6,1,455.91000001878,0.5555555555555556,2,object_09,5,3556,0,0,5,library_6,1,memory-2step-stake-s,738,2861586,0.0-19.0-0.1-0.244,A1WS9UHL45VZ0X,32CXT5U15JJVAEXBU2XNZL8A76W8U1,3BF51CHDTZQB9MKIP1IBCB9POCZH00,6,5
245,3,object_06,object_08,828.96499999333,6,1,1012.155000004,0.2222222222222222,2,object_09,1,3558,0,0,2,library_6,1,memory-2step-stake-s,739,2870030,0.0-19.0-0.1-0.245,A1WS9UHL45VZ0X,32CXT5U15JJVAEXBU2XNZL8A76W8U1,3BF51CHDTZQB9MKIP1IBCB9POCZH00,6,5
246,1,object_10,object_01,890.5950000044,2,1,624.70500002382,0.2222222222222222,2,object_09,1,3560,0,1,2,desert_8,1,memory-2step-stake-s,740,2878098,0.0-19.0-0.1-0.246,A1WS9UHL45VZ0X,32CXT5U15JJVAEXBU2XNZL8A76W8U1,3BF51CHDTZQB9MKIP1IBCB9POCZH00,2,1
247,4,object_07,object_04,861.83999996865,7,1,417.63999999966,0.3333333333333333,1,object_05,5,3575,0,3,3,restaurant_8,1,memory-2step-stake-s,741,2886074,0.0-19.0-0.1-0.247,A1WS9UHL45VZ0X,32CXT5U15JJVAEXBU2XNZL8A76W8U1,3BF51CHDTZQB9MKIP1IBCB9POCZH00,7,8
248,4,object_07,object_04,983.11500001,7,1,383.70000000577,0.4444444444444444,1,object_05,5,3595,0,4,4,restaurant_8,1,memory-2step-stake-s,742,2894100,0.0-19.0-0.1-0.248,A1WS9UHL45VZ0X,32CXT5U15JJVAEXBU2XNZL8A76W8U1,3BF51CHDTZQB9MKIP1IBCB9POCZH00,7,8
249,1,object_01,object_10,1499.1000000155,1,1,557.4299999862,0.6666666666666666,1,object_05,1,3601,0,6,6,desert_2,1,memory-2step-stake-s,743,2902502,0.0-19.0-0.1-0.249,A1WS9UHL45VZ0X,32CXT5U15JJVAEXBU2XNZL8A76W8U1,3BF51CHDTZQB9MKIP1IBCB9POCZH00,1,2
250,3,object_08,object_06,799.15999999503,5,1,591.13000001526,0.6666666666666666,1,object_05,5,3631,0,6,4,library_7,1,memory-2step-stake-s,744,2910955,0.0-19.0-0.1-0.250,A1WS9UHL45VZ0X,32CXT5U15JJVAEXBU2XNZL8A76W8U1,3BF51CHDTZQB9MKIP1IBCB9POCZH00,5,6
251,4,object_04,object_07,1197.4950000294,7,2,677.38000000827,0.5555555555555556,1,object_05,5,3656,0,5,4,restaurant_5,1,memory-2step-stake-s,745,2919392,0.0-19.0-0.1-0.251,A1WS9UHL45VZ0X,32CXT5U15JJVAEXBU2XNZL8A76W8U1,3BF51CHDTZQB9MKIP1IBCB9POCZH00,8,7
252,2,object_02,object_03,825.92500001192,3,2,369.2850000225,0.2222222222222222,1,object_05,1,3658,0,2,3,forest_4,1,memory-2step-stake-s,746,2927196,0.0-19.0-0.1-0.252,A1WS9UHL45VZ0X,32CXT5U15JJVAEXBU2XNZL8A76W8U1,3BF51CHDTZQB9MKIP1IBCB9POCZH00,4,3
253,4,object_04,object_07,938.80000000354,7,2,577.08999997703,0.2222222222222222,1,object_05,5,3668,0,2,4,restaurant_6,1,memory-2step-stake-s,747,2935196,0.0-19.0-0.1-0.253,A1WS9UHL45VZ0X,32CXT5U15JJVAEXBU2XNZL8A76W8U1,3BF51CHDTZQB9MKIP1IBCB9POCZH00,8,7
254,1,object_10,object_01,1052.7449999936,1,2,810.6399999815,0.0,1,object_05,1,3668,0,0,6,desert_2,1,memory-2step-stake-s,748,2943217,0.0-19.0-0.1-0.254,A1WS9UHL45VZ0X,32CXT5U15JJVAEXBU2XNZL8A76W8U1,3BF51CHDTZQB9MKIP1IBCB9POCZH00,2,1
255,2,object_03,object_02,768.13499996206,4,2,900.64499998698,0.7777777777777778,2,object_09,1,3675,0,3,7,forest_8,1,memory-2step-stake-s,749,2952047,0.0-19.0-0.1-0.255,A1WS9UHL45VZ0X,32CXT5U15JJVAEXBU2XNZL8A76W8U1,3BF51CHDTZQB9MKIP1IBCB9POCZH00,3,4
