,state1,stim_left,stim_right,rt_1,choice1,response1,rt_2,points,state2,stim_state2,stake,score,practice,rews1,rews2,background,high_arm,trial_type,trial_index,time_elapsed,internal_node_id,subid,hitid,assignmentid,stim_left_num,stim_right_num
0,4,object_04,object_01,-1.0,-1,-1,-1.0,0.0,-,0,5,0,0,1,5,restaurant_3,1,memory-2step-stake-s,493,2395750,0.0-19.0-0.0-0.0,ARYL3C6N9SVV1,31KPKEKW5DTYWQJ2Z73D1GA4ZNDB00,3JV9LGBJWXUIC7HQ7G24HCT67FOGOC,8,7
1,4,object_01,object_04,995.30000001192,7,1,-1.0,0.0,1,object_08,1,0,0,3,3,restaurant_5,1,memory-2step-stake-s,494,2404348,0.0-19.0-0.0-0.1,ARYL3C6N9SVV1,31KPKEKW5DTYWQJ2Z73D1GA4ZNDB00,3JV9LGBJWXUIC7HQ7G24HCT67FOGOC,7,8
2,2,object_06,object_02,596.90000000596,3,1,378.30000001192,0.4444444444444444,1,object_08,1,4,0,4,3,forest_1,1,memory-2step-stake-s,495,2412432,0.0-19.0-0.0-0.2,ARYL3C6N9SVV1,31KPKEKW5DTYWQJ2Z73D1GA4ZNDB00,3JV9LGBJWXUIC7HQ7G24HCT67FOGOC,3,4
3,3,object_09,object_10,751.69999998808,6,1,561.69999998808,0.6666666666666666,2,object_07,5,34,0,2,6,library_2,1,memory-2step-stake-s,496,2420916,0.0-19.0-0.0-0.3,ARYL3C6N9SVV1,31KPKEKW5DTYWQJ2Z73D1GA4ZNDB00,3JV9LGBJWXUIC7HQ7G24HCT67FOGOC,6,5
4,1,object_03,object_05,980.90000000596,2,2,949.39999997616,0.6666666666666666,2,object_07,5,64,0,1,6,desert_1,1,memory-2step-stake-s,497,2429829,0.0-19.0-0.0-0.4,ARYL3C6N9SVV1,31KPKEKW5DTYWQJ2Z73D1GA4ZNDB00,3JV9LGBJWXUIC7HQ7G24HCT67FOGOC,1,2
5,1,object_05,object_03,909.09999999404,1,2,-1.0,0.0,1,object_08,1,64,0,1,9,desert_4,1,memory-2step-stake-s,498,2438412,0.0-19.0-0.0-0.5,ARYL3C6N9SVV1,31KPKEKW5DTYWQJ2Z73D1GA4ZNDB00,3JV9LGBJWXUIC7HQ7G24HCT67FOGOC,2,1
6,2,object_02,object_06,931.59999999404,3,2,497.5,0.3333333333333333,1,object_08,1,67,0,3,9,forest_1,1,memory-2step-stake-s,499,2446510,0.0-19.0-0.0-0.6,ARYL3C6N9SVV1,31KPKEKW5DTYWQJ2Z73D1GA4ZNDB00,3JV9LGBJWXUIC7HQ7G24HCT67FOGOC,4,3
7,3,object_10,object_09,616.30000001192,5,1,397.09999999404,0.0,1,object_08,5,67,0,0,9,library_5,1,memory-2step-stake-s,500,2454187,0.0-19.0-0.0-0.7,ARYL3C6N9SVV1,31KPKEKW5DTYWQJ2Z73D1GA4ZNDB00,3JV9LGBJWXUIC7HQ7G24HCT67FOGOC,5,6
8,4,object_04,object_01,777.60000002384,7,2,697.59999999404,0.3333333333333333,1,object_08,1,70,0,3,9,restaurant_7,1,memory-2step-stake-s,501,2462485,0.0-19.0-0.0-0.8,ARYL3C6N9SVV1,31KPKEKW5DTYWQJ2Z73D1GA4ZNDB00,3JV9LGBJWXUIC7HQ7G24HCT67FOGOC,8,7
9,3,object_09,object_10,1138.1999999881,5,2,626.09999999404,0.3333333333333333,1,object_08,5,85,0,3,6,library_2,1,memory-2step-stake-s,502,2470712,0.0-19.0-0.0-0.9,ARYL3C6N9SVV1,31KPKEKW5DTYWQJ2Z73D1GA4ZNDB00,3JV9LGBJWXUIC7HQ7G24HCT67FOGOC,6,5
10,2,object_02,object_06,642.90000000596,4,1,655.59999999404,0.5555555555555556,2,object_07,1,90,0,5,5,forest_6,1,memory-2step-stake-s,503,2479148,0.0-19.0-0.0-0.10,ARYL3C6N9SVV1,31KPKEKW5DTYWQJ2Z73D1GA4ZNDB00,3JV9LGBJWXUIC7HQ7G24HCT67FOGOC,4,3
11,3,object_10,object_09,1099.400000006,6,2,382.59999999404,0.6666666666666666,2,object_07,5,120,0,7,6,library_5,1,memory-2step-stake-s,504,2487457,0.0-19.0-0.0-0.11,ARYL3C6N9SVV1,31KPKEKW5DTYWQJ2Z73D1GA4ZNDB00,3JV9LGBJWXUIC7HQ7G24HCT67FOGOC,5,6
12,3,object_10,object_09,1120.3999999762,5,1,587.29999998212,0.8888888888888888,1,object_08,5,160,0,8,7,library_7,1,memory-2step-stake-s,505,2496203,0.0-19.0-0.0-0.12,ARYL3C6N9SVV1,31KPKEKW5DTYWQJ2Z73D1GA4ZNDB00,3JV9LGBJWXUIC7HQ7G24HCT67FOGOC,5,6
13,3,object_10,object_09,912.69999998808,6,2,561.59999999404,0.7777777777777778,2,object_07,1,167,0,6,7,library_2,1,memory-2step-stake-s,506,2504798,0.0-19.0-0.0-0.13,ARYL3C6N9SVV1,31KPKEKW5DTYWQJ2Z73D1GA4ZNDB00,3JV9LGBJWXUIC7HQ7G24HCT67FOGOC,5,6
14,2,object_02,object_06,977.5,4,1,491.60000002384,0.7777777777777778,2,object_07,5,202,0,6,7,forest_3,1,memory-2step-stake-s,507,2513316,0.0-19.0-0.0-0.14,ARYL3C6N9SVV1,31KPKEKW5DTYWQJ2Z73D1GA4ZNDB00,3JV9LGBJWXUIC7HQ7G24HCT67FOGOC,4,3
15,4,object_01,object_04,1227.7000000179,7,1,398.90000000596,0.8888888888888888,1,object_08,5,242,0,8,9,restaurant_3,1,memory-2step-stake-s,508,2521852,0.0-19.0-0.0-0.15,ARYL3C6N9SVV1,31KPKEKW5DTYWQJ2Z73D1GA4ZNDB00,3JV9LGBJWXUIC7HQ7G24HCT67FOGOC,7,8
16,4,object_01,object_04,1119.599999994,7,1,424.40000000596,0.6666666666666666,1,object_08,1,248,0,6,8,restaurant_3,1,memory-2step-stake-s,509,2530229,0.0-19.0-0.0-0.16,ARYL3C6N9SVV1,31KPKEKW5DTYWQJ2Z73D1GA4ZNDB00,3JV9LGBJWXUIC7HQ7G24HCT67FOGOC,7,8
17,1,object_03,object_05,564.19999998808,1,1,337.09999999404,0.3333333333333333,1,object_08,1,251,0,3,6,desert_2,1,memory-2step-stake-s,510,2538179,0.0-19.0-0.0-0.17,ARYL3C6N9SVV1,31KPKEKW5DTYWQJ2Z73D1GA4ZNDB00,3JV9LGBJWXUIC7HQ7G24HCT67FOGOC,1,2
18,2,object_02,object_06,517.79999998212,4,1,355.90000000596,1.0,2,object_07,1,260,0,3,9,forest_3,1,memory-2step-stake-s,511,2546843,0.0-19.0-0.0-0.18,ARYL3C6N9SVV1,31KPKEKW5DTYWQJ2Z73D1GA4ZNDB00,3JV9LGBJWXUIC7HQ7G24HCT67FOGOC,4,3
19,4,object_04,object_01,1138.8000000119,7,2,774.29999998212,0.2222222222222222,1,object_08,5,270,0,2,6,restaurant_3,1,memory-2step-stake-s,512,2555093,0.0-19.0-0.0-0.19,ARYL3C6N9SVV1,31KPKEKW5DTYWQJ2Z73D1GA4ZNDB00,3JV9LGBJWXUIC7HQ7G24HCT67FOGOC,8,7
20,4,object_04,object_01,1111.7999999821,8,1,447.40000000596,0.7777777777777778,2,object_07,5,305,0,1,7,restaurant_2,1,memory-2step-stake-s,513,2563596,0.0-19.0-0.0-0.20,ARYL3C6N9SVV1,31KPKEKW5DTYWQJ2Z73D1GA4ZNDB00,3JV9LGBJWXUIC7HQ7G24HCT67FOGOC,8,7
21,1,object_03,object_05,901.20000001788,1,1,477.0,0.1111111111111111,1,object_08,1,306,0,1,8,desert_4,1,memory-2step-stake-s,514,2571492,0.0-19.0-0.0-0.21,ARYL3C6N9SVV1,31KPKEKW5DTYWQJ2Z73D1GA4ZNDB00,3JV9LGBJWXUIC7HQ7G24HCT67FOGOC,1,2
22,1,object_05,object_03,610.90000000596,2,1,631.59999999404,0.3333333333333333,2,object_07,1,309,0,3,3,desert_2,1,memory-2step-stake-s,515,2579737,0.0-19.0-0.0-0.22,ARYL3C6N9SVV1,31KPKEKW5DTYWQJ2Z73D1GA4ZNDB00,3JV9LGBJWXUIC7HQ7G24HCT67FOGOC,2,1
23,1,object_03,object_05,1140.1999999881,2,2,518.0,0.3333333333333333,2,object_07,5,324,0,2,3,desert_1,1,memory-2step-stake-s,516,2587847,0.0-19.0-0.0-0.23,ARYL3C6N9SVV1,31KPKEKW5DTYWQJ2Z73D1GA4ZNDB00,3JV9LGBJWXUIC7HQ7G24HCT67FOGOC,1,2
24,4,object_01,object_04,967.60000002384,7,1,343.89999997616,0.4444444444444444,1,object_08,5,344,0,4,2,restaurant_3,1,memory-2step-stake-s,517,2595969,0.0-19.0-0.0-0.24,ARYL3C6N9SVV1,31KPKEKW5DTYWQJ2Z73D1GA4ZNDB00,3JV9LGBJWXUIC7HQ7G24HCT67FOGOC,7,8
25,1,object_03,object_05,1154.599999994,2,2,346.0,0.1111111111111111,2,object_07,1,345,0,3,1,desert_3,1,memory-2step-stake-s,518,2603735,0.0-19.0-0.0-0.25,ARYL3C6N9SVV1,31KPKEKW5DTYWQJ2Z73D1GA4ZNDB00,3JV9LGBJWXUIC7HQ7G24HCT67FOGOC,1,2
26,1,object_05,object_03,1243.0,1,2,379.09999999404,0.5555555555555556,1,object_08,5,370,0,5,0,desert_2,1,memory-2step-stake-s,519,2611919,0.0-19.0-0.0-0.26,ARYL3C6N9SVV1,31KPKEKW5DTYWQJ2Z73D1GA4ZNDB00,3JV9LGBJWXUIC7HQ7G24HCT67FOGOC,2,1
27,2,object_02,object_06,518.80000001192,4,1,422.20000001788,0.1111111111111111,2,object_07,5,375,0,7,1,forest_2,1,memory-2step-stake-s,520,2619745,0.0-19.0-0.0-0.27,ARYL3C6N9SVV1,31KPKEKW5DTYWQJ2Z73D1GA4ZNDB00,3JV9LGBJWXUIC7HQ7G24HCT67FOGOC,4,3
28,3,object_10,object_09,1038.599999994,5,1,642.5,0.7777777777777778,1,object_08,5,410,0,7,1,library_7,1,memory-2step-stake-s,521,2628433,0.0-19.0-0.0-0.28,ARYL3C6N9SVV1,31KPKEKW5DTYWQJ2Z73D1GA4ZNDB00,3JV9LGBJWXUIC7HQ7G24HCT67FOGOC,5,6
29,4,object_04,object_01,694.89999997616,8,1,394.0,0.5555555555555556,2,object_07,1,415,0,5,5,restaurant_7,1,memory-2step-stake-s,522,2636647,0.0-19.0-0.0-0.29,ARYL3C6N9SVV1,31KPKEKW5DTYWQJ2Z73D1GA4ZNDB00,3JV9LGBJWXUIC7HQ7G24HCT67FOGOC,8,7
30,2,object_06,object_02,1261.2999999821,4,2,367.19999998808,0.4444444444444444,2,object_07,1,419,0,1,4,forest_6,1,memory-2step-stake-s,523,2644727,0.0-19.0-0.0-0.30,ARYL3C6N9SVV1,31KPKEKW5DTYWQJ2Z73D1GA4ZNDB00,3JV9LGBJWXUIC7HQ7G24HCT67FOGOC,3,4
31,1,object_03,object_05,887.30000001192,2,2,385.0,0.4444444444444444,2,object_07,1,423,0,4,4,desert_2,1,memory-2step-stake-s,524,2652837,0.0-19.0-0.0-0.31,ARYL3C6N9SVV1,31KPKEKW5DTYWQJ2Z73D1GA4ZNDB00,3JV9LGBJWXUIC7HQ7G24HCT67FOGOC,1,2
32,1,object_03,object_05,589.29999998212,1,1,415.5,1.0,1,object_08,1,432,0,9,4,desert_3,1,memory-2step-stake-s,525,2661484,0.0-19.0-0.0-0.32,ARYL3C6N9SVV1,31KPKEKW5DTYWQJ2Z73D1GA4ZNDB00,3JV9LGBJWXUIC7HQ7G24HCT67FOGOC,1,2
33,1,object_05,object_03,555.69999998808,2,1,580.40000000596,0.5555555555555556,2,object_07,1,437,0,9,5,desert_2,1,memory-2step-stake-s,526,2669859,0.0-19.0-0.0-0.33,ARYL3C6N9SVV1,31KPKEKW5DTYWQJ2Z73D1GA4ZNDB00,3JV9LGBJWXUIC7HQ7G24HCT67FOGOC,2,1
34,3,object_09,object_10,1037.400000006,5,2,486.19999998808,0.8888888888888888,1,object_08,5,477,0,8,6,library_2,1,memory-2step-stake-s,527,2678513,0.0-19.0-0.0-0.34,ARYL3C6N9SVV1,31KPKEKW5DTYWQJ2Z73D1GA4ZNDB00,3JV9LGBJWXUIC7HQ7G24HCT67FOGOC,6,5
35,4,object_01,object_04,787.80000001192,7,1,510.90000000596,0.7777777777777778,1,object_08,5,512,0,7,5,restaurant_2,1,memory-2step-stake-s,528,2687045,0.0-19.0-0.0-0.35,ARYL3C6N9SVV1,31KPKEKW5DTYWQJ2Z73D1GA4ZNDB00,3JV9LGBJWXUIC7HQ7G24HCT67FOGOC,7,8
36,3,object_09,object_10,997.59999999404,5,2,320.80000001192,0.7777777777777778,1,object_08,5,547,0,7,3,library_7,1,memory-2step-stake-s,529,2695432,0.0-19.0-0.0-0.36,ARYL3C6N9SVV1,31KPKEKW5DTYWQJ2Z73D1GA4ZNDB00,3JV9LGBJWXUIC7HQ7G24HCT67FOGOC,6,5
37,2,object_06,object_02,527.0,4,2,363.19999998808,0.4444444444444444,2,object_07,1,551,0,6,4,forest_2,1,memory-2step-stake-s,530,2703522,0.0-19.0-0.0-0.37,ARYL3C6N9SVV1,31KPKEKW5DTYWQJ2Z73D1GA4ZNDB00,3JV9LGBJWXUIC7HQ7G24HCT67FOGOC,3,4
38,4,object_04,object_01,1425.400000006,7,2,697.5,0.5555555555555556,1,object_08,5,576,0,5,5,restaurant_7,1,memory-2step-stake-s,531,2712032,0.0-19.0-0.0-0.38,ARYL3C6N9SVV1,31KPKEKW5DTYWQJ2Z73D1GA4ZNDB00,3JV9LGBJWXUIC7HQ7G24HCT67FOGOC,8,7
39,2,object_06,object_02,795.69999998808,4,2,412.29999998212,0.3333333333333333,2,object_07,5,591,0,5,3,forest_1,1,memory-2step-stake-s,532,2720030,0.0-19.0-0.0-0.39,ARYL3C6N9SVV1,31KPKEKW5DTYWQJ2Z73D1GA4ZNDB00,3JV9LGBJWXUIC7HQ7G24HCT67FOGOC,3,4
40,3,object_10,object_09,764.69999998808,5,1,570.40000000596,0.5555555555555556,1,object_08,5,616,0,5,2,library_7,1,memory-2step-stake-s,533,2728458,0.0-19.0-0.0-0.40,ARYL3C6N9SVV1,31KPKEKW5DTYWQJ2Z73D1GA4ZNDB00,3JV9LGBJWXUIC7HQ7G24HCT67FOGOC,5,6
41,1,object_03,object_05,1283.900000006,1,1,105.09999999404,0.3333333333333333,1,object_08,5,631,0,3,1,desert_3,1,memory-2step-stake-s,534,2736164,0.0-19.0-0.0-0.41,ARYL3C6N9SVV1,31KPKEKW5DTYWQJ2Z73D1GA4ZNDB00,3JV9LGBJWXUIC7HQ7G24HCT67FOGOC,1,2
42,3,object_09,object_10,1019.400000006,5,2,691.30000001192,0.4444444444444444,1,object_08,5,651,0,4,1,library_7,1,memory-2step-stake-s,535,2744593,0.0-19.0-0.0-0.42,ARYL3C6N9SVV1,31KPKEKW5DTYWQJ2Z73D1GA4ZNDB00,3JV9LGBJWXUIC7HQ7G24HCT67FOGOC,6,5
43,3,object_10,object_09,1240.8000000119,6,2,867.59999999404,0.2222222222222222,2,object_07,1,653,0,4,2,library_5,1,memory-2step-stake-s,536,2752935,0.0-19.0-0.0-0.43,ARYL3C6N9SVV1,31KPKEKW5DTYWQJ2Z73D1GA4ZNDB00,3JV9LGBJWXUIC7HQ7G24HCT67FOGOC,5,6
44,4,object_01,object_04,891.59999999404,7,1,382.70000001788,0.4444444444444444,1,object_08,5,673,0,4,2,restaurant_5,1,memory-2step-stake-s,537,2761045,0.0-19.0-0.0-0.44,ARYL3C6N9SVV1,31KPKEKW5DTYWQJ2Z73D1GA4ZNDB00,3JV9LGBJWXUIC7HQ7G24HCT67FOGOC,7,8
45,2,object_06,object_02,989.40000000596,4,2,453.60000002384,0.3333333333333333,2,object_07,1,676,0,5,3,forest_3,1,memory-2step-stake-s,538,2769088,0.0-19.0-0.0-0.45,ARYL3C6N9SVV1,31KPKEKW5DTYWQJ2Z73D1GA4ZNDB00,3JV9LGBJWXUIC7HQ7G24HCT67FOGOC,3,4
46,4,object_04,object_01,1134.2999999821,8,1,313.80000001192,0.2222222222222222,2,object_07,5,686,0,5,2,restaurant_2,1,memory-2step-stake-s,539,2776905,0.0-19.0-0.0-0.46,ARYL3C6N9SVV1,31KPKEKW5DTYWQJ2Z73D1GA4ZNDB00,3JV9LGBJWXUIC7HQ7G24HCT67FOGOC,8,7
47,4,object_04,object_01,759.40000000596,7,2,476.80000001192,0.6666666666666666,1,object_08,5,716,0,6,5,restaurant_2,1,memory-2step-stake-s,540,2785315,0.0-19.0-0.0-0.47,ARYL3C6N9SVV1,31KPKEKW5DTYWQJ2Z73D1GA4ZNDB00,3JV9LGBJWXUIC7HQ7G24HCT67FOGOC,8,7
48,2,object_06,object_02,715.19999998808,4,2,360.39999997616,0.5555555555555556,2,object_07,1,721,0,6,5,forest_2,1,memory-2step-stake-s,541,2793543,0.0-19.0-0.0-0.48,ARYL3C6N9SVV1,31KPKEKW5DTYWQJ2Z73D1GA4ZNDB00,3JV9LGBJWXUIC7HQ7G24HCT67FOGOC,3,4
49,2,object_06,object_02,527.10000002384,4,2,284.79999998212,0.6666666666666666,2,object_07,1,727,0,5,6,forest_1,1,memory-2step-stake-s,542,2801763,0.0-19.0-0.0-0.49,ARYL3C6N9SVV1,31KPKEKW5DTYWQJ2Z73D1GA4ZNDB00,3JV9LGBJWXUIC7HQ7G24HCT67FOGOC,3,4
50,1,object_03,object_05,-1.0,-1,-1,-1.0,0.0,-,0,5,727,0,3,6,desert_2,1,memory-2step-stake-s,543,2808339,0.0-19.0-0.0-0.50,ARYL3C6N9SVV1,31KPKEKW5DTYWQJ2Z73D1GA4ZNDB00,3JV9LGBJWXUIC7HQ7G24HCT67FOGOC,1,2
51,4,object_01,object_04,815.90000000596,8,2,333.20000001788,0.6666666666666666,2,object_07,1,733,0,2,6,restaurant_3,1,memory-2step-stake-s,544,2816590,0.0-19.0-0.0-0.51,ARYL3C6N9SVV1,31KPKEKW5DTYWQJ2Z73D1GA4ZNDB00,3JV9LGBJWXUIC7HQ7G24HCT67FOGOC,7,8
52,2,object_06,object_02,580.90000000596,4,2,267.60000002384,0.6666666666666666,2,object_07,1,739,0,1,6,forest_6,1,memory-2step-stake-s,545,2824812,0.0-19.0-0.0-0.52,ARYL3C6N9SVV1,31KPKEKW5DTYWQJ2Z73D1GA4ZNDB00,3JV9LGBJWXUIC7HQ7G24HCT67FOGOC,3,4
53,2,object_02,object_06,576.79999998212,4,1,318.5,0.5555555555555556,2,object_07,1,744,0,1,5,forest_2,1,memory-2step-stake-s,546,2832955,0.0-19.0-0.0-0.53,ARYL3C6N9SVV1,31KPKEKW5DTYWQJ2Z73D1GA4ZNDB00,3JV9LGBJWXUIC7HQ7G24HCT67FOGOC,4,3
54,4,object_01,object_04,938.0,8,2,315.10000002384,1.0,2,object_07,5,789,0,0,9,restaurant_5,1,memory-2step-stake-s,547,2841511,0.0-19.0-0.0-0.54,ARYL3C6N9SVV1,31KPKEKW5DTYWQJ2Z73D1GA4ZNDB00,3JV9LGBJWXUIC7HQ7G24HCT67FOGOC,7,8
55,3,object_10,object_09,991.69999998808,6,2,419.5,0.8888888888888888,2,object_07,5,829,0,3,8,library_5,1,memory-2step-stake-s,548,2850097,0.0-19.0-0.0-0.55,ARYL3C6N9SVV1,31KPKEKW5DTYWQJ2Z73D1GA4ZNDB00,3JV9LGBJWXUIC7HQ7G24HCT67FOGOC,5,6
56,4,object_04,object_01,741.09999999404,8,1,345.40000000596,0.6666666666666666,2,object_07,5,859,0,3,6,restaurant_5,1,memory-2step-stake-s,549,2858423,0.0-19.0-0.0-0.56,ARYL3C6N9SVV1,31KPKEKW5DTYWQJ2Z73D1GA4ZNDB00,3JV9LGBJWXUIC7HQ7G24HCT67FOGOC,8,7
57,3,object_10,object_09,1014.599999994,6,2,716.29999998212,0.7777777777777778,2,object_07,5,894,0,4,7,library_2,1,memory-2step-stake-s,550,2867227,0.0-19.0-0.0-0.57,ARYL3C6N9SVV1,31KPKEKW5DTYWQJ2Z73D1GA4ZNDB00,3JV9LGBJWXUIC7HQ7G24HCT67FOGOC,5,6
58,1,object_05,object_03,1068.599999994,2,1,397.0,0.7777777777777778,2,object_07,1,901,0,4,7,desert_2,1,memory-2step-stake-s,551,2875670,0.0-19.0-0.0-0.58,ARYL3C6N9SVV1,31KPKEKW5DTYWQJ2Z73D1GA4ZNDB00,3JV9LGBJWXUIC7HQ7G24HCT67FOGOC,2,1
59,1,object_05,object_03,559.69999998808,2,1,515.10000002384,0.7777777777777778,2,object_07,1,908,0,2,7,desert_4,1,memory-2step-stake-s,552,2884254,0.0-19.0-0.0-0.59,ARYL3C6N9SVV1,31KPKEKW5DTYWQJ2Z73D1GA4ZNDB00,3JV9LGBJWXUIC7HQ7G24HCT67FOGOC,2,1
60,2,object_02,object_06,1068.3999999762,4,1,425.90000000596,0.4444444444444444,2,object_07,1,912,0,0,4,forest_1,1,memory-2step-stake-s,553,2892385,0.0-19.0-0.0-0.60,ARYL3C6N9SVV1,31KPKEKW5DTYWQJ2Z73D1GA4ZNDB00,3JV9LGBJWXUIC7HQ7G24HCT67FOGOC,4,3
61,1,object_03,object_05,1133.099999994,2,2,523.5,0.6666666666666666,2,object_07,1,918,0,1,6,desert_1,1,memory-2step-stake-s,554,2900878,0.0-19.0-0.0-0.61,ARYL3C6N9SVV1,31KPKEKW5DTYWQJ2Z73D1GA4ZNDB00,3JV9LGBJWXUIC7HQ7G24HCT67FOGOC,1,2
62,4,object_01,object_04,1081.7000000179,8,2,348.09999999404,0.7777777777777778,2,object_07,5,953,0,0,7,restaurant_7,1,memory-2step-stake-s,555,2909302,0.0-19.0-0.0-0.62,ARYL3C6N9SVV1,31KPKEKW5DTYWQJ2Z73D1GA4ZNDB00,3JV9LGBJWXUIC7HQ7G24HCT67FOGOC,7,8
63,3,object_10,object_09,878.29999998212,6,2,305.70000001788,0.5555555555555556,2,object_07,5,978,0,3,5,library_3,1,memory-2step-stake-s,556,2917435,0.0-19.0-0.0-0.63,ARYL3C6N9SVV1,31KPKEKW5DTYWQJ2Z73D1GA4ZNDB00,3JV9LGBJWXUIC7HQ7G24HCT67FOGOC,5,6
64,1,object_03,object_05,1190.1000000238,2,2,317.59999999404,0.5555555555555556,2,object_07,1,983,0,2,5,desert_3,1,memory-2step-stake-s,557,2925606,0.0-19.0-0.0-0.64,ARYL3C6N9SVV1,31KPKEKW5DTYWQJ2Z73D1GA4ZNDB00,3JV9LGBJWXUIC7HQ7G24HCT67FOGOC,1,2
65,2,object_02,object_06,979.40000000596,3,2,336.79999998212,0.2222222222222222,1,object_08,5,993,0,2,6,forest_1,1,memory-2step-stake-s,558,2933435,0.0-19.0-0.0-0.65,ARYL3C6N9SVV1,31KPKEKW5DTYWQJ2Z73D1GA4ZNDB00,3JV9LGBJWXUIC7HQ7G24HCT67FOGOC,4,3
66,4,object_01,object_04,898.09999999404,7,1,325.19999998808,0.1111111111111111,1,object_08,5,998,0,1,3,restaurant_3,1,memory-2step-stake-s,559,2941179,0.0-19.0-0.0-0.66,ARYL3C6N9SVV1,31KPKEKW5DTYWQJ2Z73D1GA4ZNDB00,3JV9LGBJWXUIC7HQ7G24HCT67FOGOC,7,8
67,2,object_02,object_06,738.5,4,1,294.69999998808,0.5555555555555556,2,object_07,1,1003,0,2,5,forest_6,1,memory-2step-stake-s,560,2949274,0.0-19.0-0.0-0.67,ARYL3C6N9SVV1,31KPKEKW5DTYWQJ2Z73D1GA4ZNDB00,3JV9LGBJWXUIC7HQ7G24HCT67FOGOC,4,3
68,2,object_06,object_02,973.70000001788,3,1,458.29999998212,0.2222222222222222,1,object_08,1,1005,0,2,8,forest_2,1,memory-2step-stake-s,561,2957228,0.0-19.0-0.0-0.68,ARYL3C6N9SVV1,31KPKEKW5DTYWQJ2Z73D1GA4ZNDB00,3JV9LGBJWXUIC7HQ7G24HCT67FOGOC,3,4
69,4,object_01,object_04,809.19999998808,7,1,418.40000000596,0.5555555555555556,1,object_08,1,1010,0,5,6,restaurant_5,1,memory-2step-stake-s,562,2965458,0.0-19.0-0.0-0.69,ARYL3C6N9SVV1,31KPKEKW5DTYWQJ2Z73D1GA4ZNDB00,3JV9LGBJWXUIC7HQ7G24HCT67FOGOC,7,8
70,1,object_03,object_05,1221.900000006,2,2,380.39999997616,0.8888888888888888,2,object_07,5,1050,0,6,8,desert_4,1,memory-2step-stake-s,563,2973973,0.0-19.0-0.0-0.70,ARYL3C6N9SVV1,31KPKEKW5DTYWQJ2Z73D1GA4ZNDB00,3JV9LGBJWXUIC7HQ7G24HCT67FOGOC,1,2
71,3,object_10,object_09,990.09999999404,6,2,627.5,0.4444444444444444,2,object_07,5,1070,0,6,4,library_7,1,memory-2step-stake-s,564,2982279,0.0-19.0-0.0-0.71,ARYL3C6N9SVV1,31KPKEKW5DTYWQJ2Z73D1GA4ZNDB00,3JV9LGBJWXUIC7HQ7G24HCT67FOGOC,5,6
72,1,object_03,object_05,758.40000000596,1,1,293.80000001192,1.0,1,object_08,1,1079,0,9,5,desert_3,1,memory-2step-stake-s,565,2990853,0.0-19.0-0.0-0.72,ARYL3C6N9SVV1,31KPKEKW5DTYWQJ2Z73D1GA4ZNDB00,3JV9LGBJWXUIC7HQ7G24HCT67FOGOC,1,2
73,1,object_03,object_05,1420.400000006,2,2,395.70000001788,0.7777777777777778,2,object_07,5,1114,0,8,7,desert_1,1,memory-2step-stake-s,566,2999283,0.0-19.0-0.0-0.73,ARYL3C6N9SVV1,31KPKEKW5DTYWQJ2Z73D1GA4ZNDB00,3JV9LGBJWXUIC7HQ7G24HCT67FOGOC,1,2
74,1,object_05,object_03,356.09999999404,2,1,310.40000000596,0.8888888888888888,2,object_07,1,1122,0,7,8,desert_3,1,memory-2step-stake-s,567,3007742,0.0-19.0-0.0-0.74,ARYL3C6N9SVV1,31KPKEKW5DTYWQJ2Z73D1GA4ZNDB00,3JV9LGBJWXUIC7HQ7G24HCT67FOGOC,2,1
75,3,object_10,object_09,852.5,6,2,424.79999998212,1.0,2,object_07,5,1167,0,5,9,library_3,1,memory-2step-stake-s,568,3016475,0.0-19.0-0.0-0.75,ARYL3C6N9SVV1,31KPKEKW5DTYWQJ2Z73D1GA4ZNDB00,3JV9LGBJWXUIC7HQ7G24HCT67FOGOC,5,6
76,3,object_10,object_09,969.60000002384,6,2,287.70000001788,0.7777777777777778,2,object_07,5,1202,0,1,7,library_3,1,memory-2step-stake-s,569,3024787,0.0-19.0-0.0-0.76,ARYL3C6N9SVV1,31KPKEKW5DTYWQJ2Z73D1GA4ZNDB00,3JV9LGBJWXUIC7HQ7G24HCT67FOGOC,5,6
77,3,object_10,object_09,995.40000000596,6,2,318.80000001192,0.8888888888888888,2,object_07,5,1242,0,1,8,library_7,1,memory-2step-stake-s,570,3033242,0.0-19.0-0.0-0.77,ARYL3C6N9SVV1,31KPKEKW5DTYWQJ2Z73D1GA4ZNDB00,3JV9LGBJWXUIC7HQ7G24HCT67FOGOC,5,6
78,4,object_01,object_04,1452.7999999821,8,2,464.39999997616,0.6666666666666666,2,object_07,5,1272,0,1,6,restaurant_5,1,memory-2step-stake-s,571,3041660,0.0-19.0-0.0-0.78,ARYL3C6N9SVV1,31KPKEKW5DTYWQJ2Z73D1GA4ZNDB00,3JV9LGBJWXUIC7HQ7G24HCT67FOGOC,7,8
79,1,object_05,object_03,587.09999999404,2,1,295.0,1.0,2,object_07,1,1281,0,1,9,desert_2,1,memory-2step-stake-s,572,3050260,0.0-19.0-0.0-0.79,ARYL3C6N9SVV1,31KPKEKW5DTYWQJ2Z73D1GA4ZNDB00,3JV9LGBJWXUIC7HQ7G24HCT67FOGOC,2,1
80,2,object_06,object_02,1103.7000000179,3,1,324.30000001192,0.1111111111111111,1,object_08,5,1286,0,1,8,forest_2,1,memory-2step-stake-s,573,3057959,0.0-19.0-0.0-0.80,ARYL3C6N9SVV1,31KPKEKW5DTYWQJ2Z73D1GA4ZNDB00,3JV9LGBJWXUIC7HQ7G24HCT67FOGOC,3,4
81,1,object_03,object_05,1397.5,2,2,417.30000001192,0.8888888888888888,2,object_07,5,1326,0,1,8,desert_1,1,memory-2step-stake-s,574,3066486,0.0-19.0-0.0-0.81,ARYL3C6N9SVV1,31KPKEKW5DTYWQJ2Z73D1GA4ZNDB00,3JV9LGBJWXUIC7HQ7G24HCT67FOGOC,1,2
82,4,object_04,object_01,-1.0,-1,-1,-1.0,0.0,-,0,5,1326,0,2,8,restaurant_3,1,memory-2step-stake-s,575,3073055,0.0-19.0-0.0-0.82,ARYL3C6N9SVV1,31KPKEKW5DTYWQJ2Z73D1GA4ZNDB00,3JV9LGBJWXUIC7HQ7G24HCT67FOGOC,8,7
83,1,object_05,object_03,588.70000001788,2,1,342.20000001788,0.6666666666666666,2,object_07,1,1332,0,5,6,desert_3,1,memory-2step-stake-s,576,3081312,0.0-19.0-0.0-0.83,ARYL3C6N9SVV1,31KPKEKW5DTYWQJ2Z73D1GA4ZNDB00,3JV9LGBJWXUIC7HQ7G24HCT67FOGOC,2,1
84,1,object_05,object_03,592.0,2,1,309.79999998212,0.8888888888888888,2,object_07,1,1340,0,7,8,desert_4,1,memory-2step-stake-s,577,3089814,0.0-19.0-0.0-0.84,ARYL3C6N9SVV1,31KPKEKW5DTYWQJ2Z73D1GA4ZNDB00,3JV9LGBJWXUIC7HQ7G24HCT67FOGOC,2,1
85,1,object_05,object_03,506.40000000596,2,1,369.0,1.0,2,object_07,1,1349,0,7,9,desert_2,1,memory-2step-stake-s,578,3098468,0.0-19.0-0.0-0.85,ARYL3C6N9SVV1,31KPKEKW5DTYWQJ2Z73D1GA4ZNDB00,3JV9LGBJWXUIC7HQ7G24HCT67FOGOC,2,1
86,2,object_06,object_02,1080.599999994,4,2,349.10000002384,1.0,2,object_07,1,1358,0,7,9,forest_1,1,memory-2step-stake-s,579,3107067,0.0-19.0-0.0-0.86,ARYL3C6N9SVV1,31KPKEKW5DTYWQJ2Z73D1GA4ZNDB00,3JV9LGBJWXUIC7HQ7G24HCT67FOGOC,3,4
87,1,object_03,object_05,1102.7000000179,2,2,432.40000000596,1.0,2,object_07,1,1367,0,8,9,desert_2,1,memory-2step-stake-s,580,3115775,0.0-19.0-0.0-0.87,ARYL3C6N9SVV1,31KPKEKW5DTYWQJ2Z73D1GA4ZNDB00,3JV9LGBJWXUIC7HQ7G24HCT67FOGOC,1,2
88,1,object_03,object_05,823.69999998808,2,2,398.40000000596,0.8888888888888888,2,object_07,1,1375,0,7,8,desert_1,1,memory-2step-stake-s,581,3124341,0.0-19.0-0.0-0.88,ARYL3C6N9SVV1,31KPKEKW5DTYWQJ2Z73D1GA4ZNDB00,3JV9LGBJWXUIC7HQ7G24HCT67FOGOC,1,2
89,3,object_10,object_09,1056.599999994,6,2,349.89999997616,0.6666666666666666,2,object_07,1,1381,0,9,6,library_2,1,memory-2step-stake-s,582,3132601,0.0-19.0-0.0-0.89,ARYL3C6N9SVV1,31KPKEKW5DTYWQJ2Z73D1GA4ZNDB00,3JV9LGBJWXUIC7HQ7G24HCT67FOGOC,5,6
90,1,object_03,object_05,1013.400000006,2,2,317.30000001192,0.7777777777777778,2,object_07,5,1416,0,8,7,desert_2,1,memory-2step-stake-s,583,3140974,0.0-19.0-0.0-0.90,ARYL3C6N9SVV1,31KPKEKW5DTYWQJ2Z73D1GA4ZNDB00,3JV9LGBJWXUIC7HQ7G24HCT67FOGOC,1,2
91,4,object_01,object_04,1200.0,7,1,703.29999998212,1.0,1,object_08,1,1425,0,9,7,restaurant_2,1,memory-2step-stake-s,584,3149969,0.0-19.0-0.0-0.91,ARYL3C6N9SVV1,31KPKEKW5DTYWQJ2Z73D1GA4ZNDB00,3JV9LGBJWXUIC7HQ7G24HCT67FOGOC,7,8
92,1,object_05,object_03,577.09999999404,2,1,425.30000001192,0.8888888888888888,2,object_07,1,1433,0,9,8,desert_3,1,memory-2step-stake-s,585,3158536,0.0-19.0-0.0-0.92,ARYL3C6N9SVV1,31KPKEKW5DTYWQJ2Z73D1GA4ZNDB00,3JV9LGBJWXUIC7HQ7G24HCT67FOGOC,2,1
93,3,object_09,object_10,865.19999998808,6,1,320.89999997616,0.8888888888888888,2,object_07,1,1441,0,7,8,library_5,1,memory-2step-stake-s,586,3167001,0.0-19.0-0.0-0.93,ARYL3C6N9SVV1,31KPKEKW5DTYWQJ2Z73D1GA4ZNDB00,3JV9LGBJWXUIC7HQ7G24HCT67FOGOC,6,5
94,4,object_01,object_04,1169.1999999881,7,1,564.70000001788,0.7777777777777778,1,object_08,5,1476,0,7,6,restaurant_7,1,memory-2step-stake-s,587,3175615,0.0-19.0-0.0-0.94,ARYL3C6N9SVV1,31KPKEKW5DTYWQJ2Z73D1GA4ZNDB00,3JV9LGBJWXUIC7HQ7G24HCT67FOGOC,7,8
95,4,object_04,object_01,757.0,8,1,328.59999999404,0.8888888888888888,2,object_07,1,1484,0,7,8,restaurant_3,1,memory-2step-stake-s,588,3184072,0.0-19.0-0.0-0.95,ARYL3C6N9SVV1,31KPKEKW5DTYWQJ2Z73D1GA4ZNDB00,3JV9LGBJWXUIC7HQ7G24HCT67FOGOC,8,7
96,1,object_03,object_05,845.5,2,2,430.60000002384,1.0,2,object_07,1,1493,0,7,9,desert_3,1,memory-2step-stake-s,589,3192789,0.0-19.0-0.0-0.96,ARYL3C6N9SVV1,31KPKEKW5DTYWQJ2Z73D1GA4ZNDB00,3JV9LGBJWXUIC7HQ7G24HCT67FOGOC,1,2
97,4,object_01,object_04,932.69999998808,7,1,323.20000001788,0.8888888888888888,1,object_08,5,1533,0,8,7,restaurant_5,1,memory-2step-stake-s,590,3201252,0.0-19.0-0.0-0.97,ARYL3C6N9SVV1,31KPKEKW5DTYWQJ2Z73D1GA4ZNDB00,3JV9LGBJWXUIC7HQ7G24HCT67FOGOC,7,8
98,4,object_04,object_01,1026.6999999881,7,2,353.0,0.7777777777777778,1,object_08,1,1540,0,7,8,restaurant_7,1,memory-2step-stake-s,591,3209650,0.0-19.0-0.0-0.98,ARYL3C6N9SVV1,31KPKEKW5DTYWQJ2Z73D1GA4ZNDB00,3JV9LGBJWXUIC7HQ7G24HCT67FOGOC,8,7
99,4,object_01,object_04,1031.8000000119,7,1,354.90000000596,0.8888888888888888,1,object_08,5,1580,0,8,9,restaurant_2,1,memory-2step-stake-s,592,3218172,0.0-19.0-0.0-0.99,ARYL3C6N9SVV1,31KPKEKW5DTYWQJ2Z73D1GA4ZNDB00,3JV9LGBJWXUIC7HQ7G24HCT67FOGOC,7,8
100,4,object_04,object_01,940.0,8,1,395.79999998212,0.7777777777777778,2,object_07,5,1615,0,6,7,restaurant_5,1,memory-2step-stake-s,593,3226650,0.0-19.0-0.0-0.100,ARYL3C6N9SVV1,31KPKEKW5DTYWQJ2Z73D1GA4ZNDB00,3JV9LGBJWXUIC7HQ7G24HCT67FOGOC,8,7
101,2,object_02,object_06,718.5,4,1,339.80000001192,1.0,2,object_07,1,1624,0,4,9,forest_1,1,memory-2step-stake-s,594,3235262,0.0-19.0-0.0-0.101,ARYL3C6N9SVV1,31KPKEKW5DTYWQJ2Z73D1GA4ZNDB00,3JV9LGBJWXUIC7HQ7G24HCT67FOGOC,4,3
102,3,object_10,object_09,756.80000001192,6,2,550.90000000596,1.0,2,object_07,1,1633,0,3,9,library_5,1,memory-2step-stake-s,595,3244089,0.0-19.0-0.0-0.102,ARYL3C6N9SVV1,31KPKEKW5DTYWQJ2Z73D1GA4ZNDB00,3JV9LGBJWXUIC7HQ7G24HCT67FOGOC,5,6
103,3,object_10,object_09,830.5,6,2,355.90000000596,0.6666666666666666,2,object_07,5,1663,0,3,6,library_5,1,memory-2step-stake-s,596,3252369,0.0-19.0-0.0-0.103,ARYL3C6N9SVV1,31KPKEKW5DTYWQJ2Z73D1GA4ZNDB00,3JV9LGBJWXUIC7HQ7G24HCT67FOGOC,5,6
104,3,object_10,object_09,1135.5,5,1,389.09999999404,0.5555555555555556,1,object_08,5,1688,0,5,6,library_2,1,memory-2step-stake-s,597,3260592,0.0-19.0-0.0-0.104,ARYL3C6N9SVV1,31KPKEKW5DTYWQJ2Z73D1GA4ZNDB00,3JV9LGBJWXUIC7HQ7G24HCT67FOGOC,5,6
105,3,object_10,object_09,950.69999998808,6,2,350.30000001192,0.8888888888888888,2,object_07,5,1728,0,8,8,library_2,1,memory-2step-stake-s,598,3269086,0.0-19.0-0.0-0.105,ARYL3C6N9SVV1,31KPKEKW5DTYWQJ2Z73D1GA4ZNDB00,3JV9LGBJWXUIC7HQ7G24HCT67FOGOC,5,6
106,3,object_09,object_10,871.40000000596,6,1,303.60000002384,0.7777777777777778,2,object_07,1,1735,0,8,7,library_7,1,memory-2step-stake-s,599,3277501,0.0-19.0-0.0-0.106,ARYL3C6N9SVV1,31KPKEKW5DTYWQJ2Z73D1GA4ZNDB00,3JV9LGBJWXUIC7HQ7G24HCT67FOGOC,6,5
107,1,object_05,object_03,556.09999999404,2,1,314.5,0.7777777777777778,2,object_07,1,1742,0,6,7,desert_3,1,memory-2step-stake-s,600,3285863,0.0-19.0-0.0-0.107,ARYL3C6N9SVV1,31KPKEKW5DTYWQJ2Z73D1GA4ZNDB00,3JV9LGBJWXUIC7HQ7G24HCT67FOGOC,2,1
108,3,object_09,object_10,801.40000000596,6,1,300.0,0.8888888888888888,2,object_07,5,1782,0,2,8,library_7,1,memory-2step-stake-s,601,3294328,0.0-19.0-0.0-0.108,ARYL3C6N9SVV1,31KPKEKW5DTYWQJ2Z73D1GA4ZNDB00,3JV9LGBJWXUIC7HQ7G24HCT67FOGOC,6,5
109,2,object_02,object_06,475.90000000596,4,1,327.5,1.0,2,object_07,1,1791,0,3,9,forest_3,1,memory-2step-stake-s,602,3302910,0.0-19.0-0.0-0.109,ARYL3C6N9SVV1,31KPKEKW5DTYWQJ2Z73D1GA4ZNDB00,3JV9LGBJWXUIC7HQ7G24HCT67FOGOC,4,3
110,1,object_03,object_05,881.40000000596,2,2,272.69999998808,1.0,2,object_07,5,1836,0,5,9,desert_3,1,memory-2step-stake-s,603,3311445,0.0-19.0-0.0-0.110,ARYL3C6N9SVV1,31KPKEKW5DTYWQJ2Z73D1GA4ZNDB00,3JV9LGBJWXUIC7HQ7G24HCT67FOGOC,1,2
111,3,object_10,object_09,820.60000002384,6,2,298.5,0.8888888888888888,2,object_07,5,1876,0,2,8,library_5,1,memory-2step-stake-s,604,3319928,0.0-19.0-0.0-0.111,ARYL3C6N9SVV1,31KPKEKW5DTYWQJ2Z73D1GA4ZNDB00,3JV9LGBJWXUIC7HQ7G24HCT67FOGOC,5,6
112,4,object_01,object_04,701.10000002384,7,1,335.40000000596,0.5555555555555556,1,object_08,1,1881,0,5,7,restaurant_3,1,memory-2step-stake-s,605,3328104,0.0-19.0-0.0-0.112,ARYL3C6N9SVV1,31KPKEKW5DTYWQJ2Z73D1GA4ZNDB00,3JV9LGBJWXUIC7HQ7G24HCT67FOGOC,7,8
113,4,object_04,object_01,993.19999998808,7,2,335.59999999404,0.7777777777777778,1,object_08,5,1916,0,7,8,restaurant_7,1,memory-2step-stake-s,606,3336493,0.0-19.0-0.0-0.113,ARYL3C6N9SVV1,31KPKEKW5DTYWQJ2Z73D1GA4ZNDB00,3JV9LGBJWXUIC7HQ7G24HCT67FOGOC,8,7
114,1,object_03,object_05,715.19999998808,2,2,302.80000001192,1.0,2,object_07,1,1925,0,7,9,desert_1,1,memory-2step-stake-s,607,3345064,0.0-19.0-0.0-0.114,ARYL3C6N9SVV1,31KPKEKW5DTYWQJ2Z73D1GA4ZNDB00,3JV9LGBJWXUIC7HQ7G24HCT67FOGOC,1,2
115,2,object_02,object_06,661.90000000596,4,1,298.5,0.8888888888888888,2,object_07,1,1933,0,7,8,forest_6,1,memory-2step-stake-s,608,3353549,0.0-19.0-0.0-0.115,ARYL3C6N9SVV1,31KPKEKW5DTYWQJ2Z73D1GA4ZNDB00,3JV9LGBJWXUIC7HQ7G24HCT67FOGOC,4,3
116,2,object_06,object_02,882.20000001788,4,2,261.79999998212,0.3333333333333333,2,object_07,1,1936,0,8,3,forest_1,1,memory-2step-stake-s,609,3361427,0.0-19.0-0.0-0.116,ARYL3C6N9SVV1,31KPKEKW5DTYWQJ2Z73D1GA4ZNDB00,3JV9LGBJWXUIC7HQ7G24HCT67FOGOC,3,4
117,4,object_01,object_04,877.0,7,1,451.79999998212,0.8888888888888888,1,object_08,1,1944,0,8,2,restaurant_5,1,memory-2step-stake-s,610,3370028,0.0-19.0-0.0-0.117,ARYL3C6N9SVV1,31KPKEKW5DTYWQJ2Z73D1GA4ZNDB00,3JV9LGBJWXUIC7HQ7G24HCT67FOGOC,7,8
118,4,object_01,object_04,906.5,7,1,322.40000000596,0.8888888888888888,1,object_08,5,1984,0,8,7,restaurant_2,1,memory-2step-stake-s,611,3378500,0.0-19.0-0.0-0.118,ARYL3C6N9SVV1,31KPKEKW5DTYWQJ2Z73D1GA4ZNDB00,3JV9LGBJWXUIC7HQ7G24HCT67FOGOC,7,8
119,1,object_03,object_05,1014.099999994,2,2,331.69999998808,0.7777777777777778,2,object_07,1,1991,0,8,7,desert_3,1,memory-2step-stake-s,612,3386871,0.0-19.0-0.0-0.119,ARYL3C6N9SVV1,31KPKEKW5DTYWQJ2Z73D1GA4ZNDB00,3JV9LGBJWXUIC7HQ7G24HCT67FOGOC,1,2
120,1,object_05,object_03,687.90000000596,2,1,577.19999998808,1.0,2,object_07,1,2000,0,9,9,desert_4,1,memory-2step-stake-s,613,3395703,0.0-19.0-0.0-0.120,ARYL3C6N9SVV1,31KPKEKW5DTYWQJ2Z73D1GA4ZNDB00,3JV9LGBJWXUIC7HQ7G24HCT67FOGOC,2,1
121,2,object_06,object_02,801.90000000596,4,2,387.19999998808,0.6666666666666666,2,object_07,1,2006,0,7,6,forest_6,1,memory-2step-stake-s,614,3404027,0.0-19.0-0.0-0.121,ARYL3C6N9SVV1,31KPKEKW5DTYWQJ2Z73D1GA4ZNDB00,3JV9LGBJWXUIC7HQ7G24HCT67FOGOC,3,4
122,4,object_01,object_04,1030.6000000238,7,1,272.60000002384,0.5555555555555556,1,object_08,5,2031,0,5,8,restaurant_7,1,memory-2step-stake-s,615,3412110,0.0-19.0-0.0-0.122,ARYL3C6N9SVV1,31KPKEKW5DTYWQJ2Z73D1GA4ZNDB00,3JV9LGBJWXUIC7HQ7G24HCT67FOGOC,7,8
123,3,object_10,object_09,888.79999998212,6,2,315.59999999404,0.6666666666666666,2,object_07,5,2061,0,5,6,library_2,1,memory-2step-stake-s,616,3420359,0.0-19.0-0.0-0.123,ARYL3C6N9SVV1,31KPKEKW5DTYWQJ2Z73D1GA4ZNDB00,3JV9LGBJWXUIC7HQ7G24HCT67FOGOC,5,6
124,3,object_10,object_09,1028.1999999881,5,1,490.79999998212,0.8888888888888888,1,object_08,5,2101,0,8,5,library_3,1,memory-2step-stake-s,617,3428974,0.0-19.0-0.0-0.124,ARYL3C6N9SVV1,31KPKEKW5DTYWQJ2Z73D1GA4ZNDB00,3JV9LGBJWXUIC7HQ7G24HCT67FOGOC,5,6
125,4,object_04,object_01,1200.400000006,8,1,405.60000002384,0.5555555555555556,2,object_07,5,2126,0,7,5,restaurant_3,1,memory-2step-stake-s,618,3437223,0.0-19.0-0.0-0.125,ARYL3C6N9SVV1,31KPKEKW5DTYWQJ2Z73D1GA4ZNDB00,3JV9LGBJWXUIC7HQ7G24HCT67FOGOC,8,7
126,4,object_01,object_04,1242.3000000119,8,2,684.70000001788,0.6666666666666666,2,object_07,5,2156,0,5,6,restaurant_3,1,memory-2step-stake-s,619,3445886,0.0-19.0-0.0-0.126,ARYL3C6N9SVV1,31KPKEKW5DTYWQJ2Z73D1GA4ZNDB00,3JV9LGBJWXUIC7HQ7G24HCT67FOGOC,7,8
127,2,object_06,object_02,717.30000001192,4,2,296.5,0.6666666666666666,2,object_07,1,2162,0,4,6,forest_2,1,memory-2step-stake-s,620,3454163,0.0-19.0-0.0-0.127,ARYL3C6N9SVV1,31KPKEKW5DTYWQJ2Z73D1GA4ZNDB00,3JV9LGBJWXUIC7HQ7G24HCT67FOGOC,3,4
128,2,object_02,object_06,579.90000000596,4,1,416.29999998212,0.5555555555555556,2,object_07,1,2167,0,5,5,forest_6,1,memory-2step-stake-s,622,3464855,0.0-19.0-0.1-0.128,ARYL3C6N9SVV1,31KPKEKW5DTYWQJ2Z73D1GA4ZNDB00,3JV9LGBJWXUIC7HQ7G24HCT67FOGOC,4,3
129,3,object_09,object_10,751.30000001192,6,1,447.0,0.4444444444444444,2,object_07,1,2171,0,5,4,library_7,1,memory-2step-stake-s,623,3472988,0.0-19.0-0.1-0.129,ARYL3C6N9SVV1,31KPKEKW5DTYWQJ2Z73D1GA4ZNDB00,3JV9LGBJWXUIC7HQ7G24HCT67FOGOC,6,5
130,1,object_05,object_03,841.89999997616,2,1,280.20000001788,0.4444444444444444,2,object_07,1,2175,0,5,4,desert_1,1,memory-2step-stake-s,624,3480987,0.0-19.0-0.1-0.130,ARYL3C6N9SVV1,31KPKEKW5DTYWQJ2Z73D1GA4ZNDB00,3JV9LGBJWXUIC7HQ7G24HCT67FOGOC,2,1
131,3,object_10,object_09,1022.0,5,1,346.69999998808,0.7777777777777778,1,object_08,5,2210,0,7,1,library_5,1,memory-2step-stake-s,625,3489331,0.0-19.0-0.1-0.131,ARYL3C6N9SVV1,31KPKEKW5DTYWQJ2Z73D1GA4ZNDB00,3JV9LGBJWXUIC7HQ7G24HCT67FOGOC,5,6
132,1,object_05,object_03,908.20000001788,2,1,292.80000001192,0.1111111111111111,2,object_07,1,2211,0,6,1,desert_1,1,memory-2step-stake-s,626,3497035,0.0-19.0-0.1-0.132,ARYL3C6N9SVV1,31KPKEKW5DTYWQJ2Z73D1GA4ZNDB00,3JV9LGBJWXUIC7HQ7G24HCT67FOGOC,2,1
133,2,object_02,object_06,1040.6999999881,3,2,311.90000000596,0.3333333333333333,1,object_08,1,2214,0,3,3,forest_2,1,memory-2step-stake-s,627,3504986,0.0-19.0-0.1-0.133,ARYL3C6N9SVV1,31KPKEKW5DTYWQJ2Z73D1GA4ZNDB00,3JV9LGBJWXUIC7HQ7G24HCT67FOGOC,4,3
134,1,object_03,object_05,1198.900000006,1,1,372.79999998212,0.4444444444444444,1,object_08,1,2218,0,4,5,desert_1,1,memory-2step-stake-s,628,3513035,0.0-19.0-0.1-0.134,ARYL3C6N9SVV1,31KPKEKW5DTYWQJ2Z73D1GA4ZNDB00,3JV9LGBJWXUIC7HQ7G24HCT67FOGOC,1,2
135,2,object_02,object_06,1039.7999999821,3,2,319.69999998808,0.2222222222222222,1,object_08,1,2220,0,2,5,forest_3,1,memory-2step-stake-s,629,3520871,0.0-19.0-0.1-0.135,ARYL3C6N9SVV1,31KPKEKW5DTYWQJ2Z73D1GA4ZNDB00,3JV9LGBJWXUIC7HQ7G24HCT67FOGOC,4,3
136,1,object_03,object_05,980.59999999404,1,1,337.70000001788,0.5555555555555556,1,object_08,1,2225,0,5,5,desert_4,1,memory-2step-stake-s,630,3529041,0.0-19.0-0.1-0.136,ARYL3C6N9SVV1,31KPKEKW5DTYWQJ2Z73D1GA4ZNDB00,3JV9LGBJWXUIC7HQ7G24HCT67FOGOC,1,2
137,3,object_10,object_09,1238.7999999821,5,1,384.90000000596,0.3333333333333333,1,object_08,1,2228,0,3,6,library_7,1,memory-2step-stake-s,631,3537036,0.0-19.0-0.1-0.137,ARYL3C6N9SVV1,31KPKEKW5DTYWQJ2Z73D1GA4ZNDB00,3JV9LGBJWXUIC7HQ7G24HCT67FOGOC,5,6
138,2,object_02,object_06,1342.099999994,3,2,489.0,0.5555555555555556,1,object_08,1,2233,0,5,7,forest_2,1,memory-2step-stake-s,632,3545327,0.0-19.0-0.1-0.138,ARYL3C6N9SVV1,31KPKEKW5DTYWQJ2Z73D1GA4ZNDB00,3JV9LGBJWXUIC7HQ7G24HCT67FOGOC,4,3
139,2,object_06,object_02,1058.099999994,3,1,359.5,0.6666666666666666,1,object_08,1,2239,0,6,8,forest_1,1,memory-2step-stake-s,633,3553624,0.0-19.0-0.1-0.139,ARYL3C6N9SVV1,31KPKEKW5DTYWQJ2Z73D1GA4ZNDB00,3JV9LGBJWXUIC7HQ7G24HCT67FOGOC,3,4
140,2,object_06,object_02,798.90000000596,3,1,364.0,0.6666666666666666,1,object_08,5,2269,0,6,6,forest_1,1,memory-2step-stake-s,634,3561928,0.0-19.0-0.1-0.140,ARYL3C6N9SVV1,31KPKEKW5DTYWQJ2Z73D1GA4ZNDB00,3JV9LGBJWXUIC7HQ7G24HCT67FOGOC,3,4
141,4,object_04,object_01,1054.1999999881,8,1,304.59999999404,0.6666666666666666,2,object_07,5,2299,0,6,6,restaurant_2,1,memory-2step-stake-s,635,3570180,0.0-19.0-0.1-0.141,ARYL3C6N9SVV1,31KPKEKW5DTYWQJ2Z73D1GA4ZNDB00,3JV9LGBJWXUIC7HQ7G24HCT67FOGOC,8,7
142,2,object_02,object_06,1016.7000000179,3,2,771.40000000596,0.7777777777777778,1,object_08,1,2306,0,7,7,forest_3,1,memory-2step-stake-s,636,3579035,0.0-19.0-0.1-0.142,ARYL3C6N9SVV1,31KPKEKW5DTYWQJ2Z73D1GA4ZNDB00,3JV9LGBJWXUIC7HQ7G24HCT67FOGOC,4,3
143,4,object_01,object_04,-1.0,-1,-1,-1.0,0.0,-,0,5,2306,0,6,8,restaurant_2,1,memory-2step-stake-s,637,3585599,0.0-19.0-0.1-0.143,ARYL3C6N9SVV1,31KPKEKW5DTYWQJ2Z73D1GA4ZNDB00,3JV9LGBJWXUIC7HQ7G24HCT67FOGOC,7,8
144,2,object_06,object_02,770.90000000596,3,1,360.0,0.3333333333333333,1,object_08,1,2309,0,3,9,forest_6,1,memory-2step-stake-s,638,3593597,0.0-19.0-0.1-0.144,ARYL3C6N9SVV1,31KPKEKW5DTYWQJ2Z73D1GA4ZNDB00,3JV9LGBJWXUIC7HQ7G24HCT67FOGOC,3,4
145,4,object_01,object_04,1075.8999999762,8,2,269.60000002384,0.7777777777777778,2,object_07,5,2344,0,4,7,restaurant_2,1,memory-2step-stake-s,639,3601886,0.0-19.0-0.1-0.145,ARYL3C6N9SVV1,31KPKEKW5DTYWQJ2Z73D1GA4ZNDB00,3JV9LGBJWXUIC7HQ7G24HCT67FOGOC,7,8
146,3,object_10,object_09,1063.3000000119,5,1,301.5,0.6666666666666666,1,object_08,5,2374,0,6,7,library_3,1,memory-2step-stake-s,640,3610156,0.0-19.0-0.1-0.146,ARYL3C6N9SVV1,31KPKEKW5DTYWQJ2Z73D1GA4ZNDB00,3JV9LGBJWXUIC7HQ7G24HCT67FOGOC,5,6
147,1,object_05,object_03,1017.099999994,1,2,295.20000001788,0.2222222222222222,1,object_08,5,2384,0,2,5,desert_3,1,memory-2step-stake-s,641,3617956,0.0-19.0-0.1-0.147,ARYL3C6N9SVV1,31KPKEKW5DTYWQJ2Z73D1GA4ZNDB00,3JV9LGBJWXUIC7HQ7G24HCT67FOGOC,2,1
148,4,object_01,object_04,-1.0,-1,-1,-1.0,0.0,-,0,1,2384,0,3,3,restaurant_2,1,memory-2step-stake-s,642,3624529,0.0-19.0-0.1-0.148,ARYL3C6N9SVV1,31KPKEKW5DTYWQJ2Z73D1GA4ZNDB00,3JV9LGBJWXUIC7HQ7G24HCT67FOGOC,7,8
149,3,object_10,object_09,869.10000002384,5,1,276.60000002384,0.4444444444444444,1,object_08,5,2404,0,4,6,library_5,1,memory-2step-stake-s,643,3632510,0.0-19.0-0.1-0.149,ARYL3C6N9SVV1,31KPKEKW5DTYWQJ2Z73D1GA4ZNDB00,3JV9LGBJWXUIC7HQ7G24HCT67FOGOC,5,6
150,3,object_10,object_09,1144.6999999881,6,2,368.30000001192,0.8888888888888888,2,object_07,5,2444,0,3,8,library_3,1,memory-2step-stake-s,644,3641002,0.0-19.0-0.1-0.150,ARYL3C6N9SVV1,31KPKEKW5DTYWQJ2Z73D1GA4ZNDB00,3JV9LGBJWXUIC7HQ7G24HCT67FOGOC,5,6
151,3,object_09,object_10,845.59999999404,6,1,511.09999999404,0.8888888888888888,2,object_07,1,2452,0,1,8,library_2,1,memory-2step-stake-s,645,3649628,0.0-19.0-0.1-0.151,ARYL3C6N9SVV1,31KPKEKW5DTYWQJ2Z73D1GA4ZNDB00,3JV9LGBJWXUIC7HQ7G24HCT67FOGOC,6,5
152,3,object_10,object_09,710.39999997616,6,2,300.0,0.7777777777777778,2,object_07,5,2487,0,3,7,library_2,1,memory-2step-stake-s,646,3658035,0.0-19.0-0.1-0.152,ARYL3C6N9SVV1,31KPKEKW5DTYWQJ2Z73D1GA4ZNDB00,3JV9LGBJWXUIC7HQ7G24HCT67FOGOC,5,6
153,4,object_01,object_04,1049.6999999881,8,2,319.30000001192,0.6666666666666666,2,object_07,5,2517,0,1,6,restaurant_5,1,memory-2step-stake-s,647,3666299,0.0-19.0-0.1-0.153,ARYL3C6N9SVV1,31KPKEKW5DTYWQJ2Z73D1GA4ZNDB00,3JV9LGBJWXUIC7HQ7G24HCT67FOGOC,7,8
154,1,object_05,object_03,1065.900000006,1,2,328.29999998212,0.3333333333333333,1,object_08,1,2520,0,3,8,desert_4,1,memory-2step-stake-s,648,3674261,0.0-19.0-0.1-0.154,ARYL3C6N9SVV1,31KPKEKW5DTYWQJ2Z73D1GA4ZNDB00,3JV9LGBJWXUIC7HQ7G24HCT67FOGOC,2,1
155,4,object_01,object_04,1266.0,8,2,306.0,1.0,2,object_07,5,2565,0,3,9,restaurant_7,1,memory-2step-stake-s,649,3682816,0.0-19.0-0.1-0.155,ARYL3C6N9SVV1,31KPKEKW5DTYWQJ2Z73D1GA4ZNDB00,3JV9LGBJWXUIC7HQ7G24HCT67FOGOC,7,8
156,4,object_01,object_04,888.19999998808,8,2,319.29999998212,0.8888888888888888,2,object_07,5,2605,0,4,8,restaurant_5,1,memory-2step-stake-s,650,3691277,0.0-19.0-0.1-0.156,ARYL3C6N9SVV1,31KPKEKW5DTYWQJ2Z73D1GA4ZNDB00,3JV9LGBJWXUIC7HQ7G24HCT67FOGOC,7,8
157,1,object_03,object_05,879.10000002384,1,1,339.90000000596,0.1111111111111111,1,object_08,1,2606,0,1,8,desert_2,1,memory-2step-stake-s,651,3698983,0.0-19.0-0.1-0.157,ARYL3C6N9SVV1,31KPKEKW5DTYWQJ2Z73D1GA4ZNDB00,3JV9LGBJWXUIC7HQ7G24HCT67FOGOC,1,2
158,2,object_06,object_02,837.0,4,2,320.90000000596,0.7777777777777778,2,object_07,1,2613,0,3,7,forest_6,1,memory-2step-stake-s,652,3707339,0.0-19.0-0.1-0.158,ARYL3C6N9SVV1,31KPKEKW5DTYWQJ2Z73D1GA4ZNDB00,3JV9LGBJWXUIC7HQ7G24HCT67FOGOC,3,4
159,1,object_05,object_03,979.59999999404,2,1,287.59999999404,0.7777777777777778,2,object_07,1,2620,0,0,7,desert_4,1,memory-2step-stake-s,653,3715657,0.0-19.0-0.1-0.159,ARYL3C6N9SVV1,31KPKEKW5DTYWQJ2Z73D1GA4ZNDB00,3JV9LGBJWXUIC7HQ7G24HCT67FOGOC,2,1
160,2,object_06,object_02,536.80000001192,4,2,251.69999998808,1.0,2,object_07,1,2629,0,3,9,forest_3,1,memory-2step-stake-s,654,3724169,0.0-19.0-0.1-0.160,ARYL3C6N9SVV1,31KPKEKW5DTYWQJ2Z73D1GA4ZNDB00,3JV9LGBJWXUIC7HQ7G24HCT67FOGOC,3,4
161,3,object_09,object_10,742.69999998808,6,1,307.90000000596,0.8888888888888888,2,object_07,5,2669,0,4,8,library_3,1,memory-2step-stake-s,655,3732583,0.0-19.0-0.1-0.161,ARYL3C6N9SVV1,31KPKEKW5DTYWQJ2Z73D1GA4ZNDB00,3JV9LGBJWXUIC7HQ7G24HCT67FOGOC,6,5
162,4,object_01,object_04,1056.1999999881,7,1,282.29999998212,0.3333333333333333,1,object_08,5,2684,0,3,4,restaurant_7,1,memory-2step-stake-s,656,3740460,0.0-19.0-0.1-0.162,ARYL3C6N9SVV1,31KPKEKW5DTYWQJ2Z73D1GA4ZNDB00,3JV9LGBJWXUIC7HQ7G24HCT67FOGOC,7,8
163,4,object_04,object_01,541.80000001192,8,1,423.20000001788,0.7777777777777778,2,object_07,1,2691,0,6,7,restaurant_5,1,memory-2step-stake-s,657,3748917,0.0-19.0-0.1-0.163,ARYL3C6N9SVV1,31KPKEKW5DTYWQJ2Z73D1GA4ZNDB00,3JV9LGBJWXUIC7HQ7G24HCT67FOGOC,8,7
164,2,object_02,object_06,744.90000000596,4,1,337.90000000596,0.4444444444444444,2,object_07,1,2695,0,6,4,forest_1,1,memory-2step-stake-s,658,3757041,0.0-19.0-0.1-0.164,ARYL3C6N9SVV1,31KPKEKW5DTYWQJ2Z73D1GA4ZNDB00,3JV9LGBJWXUIC7HQ7G24HCT67FOGOC,4,3
165,2,object_02,object_06,587.70000001788,4,1,322.59999999404,0.5555555555555556,2,object_07,1,2700,0,2,5,forest_2,1,memory-2step-stake-s,659,3765205,0.0-19.0-0.1-0.165,ARYL3C6N9SVV1,31KPKEKW5DTYWQJ2Z73D1GA4ZNDB00,3JV9LGBJWXUIC7HQ7G24HCT67FOGOC,4,3
166,3,object_09,object_10,1229.900000006,5,2,314.59999999404,0.3333333333333333,1,object_08,5,2715,0,3,8,library_3,1,memory-2step-stake-s,660,3773122,0.0-19.0-0.1-0.166,ARYL3C6N9SVV1,31KPKEKW5DTYWQJ2Z73D1GA4ZNDB00,3JV9LGBJWXUIC7HQ7G24HCT67FOGOC,6,5
167,4,object_01,object_04,1109.900000006,8,2,292.80000001192,0.6666666666666666,2,object_07,5,2745,0,3,6,restaurant_2,1,memory-2step-stake-s,661,3781347,0.0-19.0-0.1-0.167,ARYL3C6N9SVV1,31KPKEKW5DTYWQJ2Z73D1GA4ZNDB00,3JV9LGBJWXUIC7HQ7G24HCT67FOGOC,7,8
168,2,object_02,object_06,489.09999999404,4,1,272.59999999404,0.8888888888888888,2,object_07,1,2753,0,2,8,forest_2,1,memory-2step-stake-s,662,3789731,0.0-19.0-0.1-0.168,ARYL3C6N9SVV1,31KPKEKW5DTYWQJ2Z73D1GA4ZNDB00,3JV9LGBJWXUIC7HQ7G24HCT67FOGOC,4,3
169,1,object_03,object_05,848.70000001788,2,2,478.40000000596,1.0,2,object_07,1,2762,0,3,9,desert_4,1,memory-2step-stake-s,663,3798491,0.0-19.0-0.1-0.169,ARYL3C6N9SVV1,31KPKEKW5DTYWQJ2Z73D1GA4ZNDB00,3JV9LGBJWXUIC7HQ7G24HCT67FOGOC,1,2
170,2,object_02,object_06,625.10000002384,4,1,288.19999998808,0.8888888888888888,2,object_07,1,2770,0,5,8,forest_6,1,memory-2step-stake-s,664,3806963,0.0-19.0-0.1-0.170,ARYL3C6N9SVV1,31KPKEKW5DTYWQJ2Z73D1GA4ZNDB00,3JV9LGBJWXUIC7HQ7G24HCT67FOGOC,4,3
171,3,object_10,object_09,1190.2999999821,6,2,315.19999998808,0.7777777777777778,2,object_07,5,2805,0,5,7,library_3,1,memory-2step-stake-s,665,3815343,0.0-19.0-0.1-0.171,ARYL3C6N9SVV1,31KPKEKW5DTYWQJ2Z73D1GA4ZNDB00,3JV9LGBJWXUIC7HQ7G24HCT67FOGOC,5,6
172,4,object_01,object_04,1126.2999999821,8,2,314.59999999404,0.5555555555555556,2,object_07,5,2830,0,5,5,restaurant_7,1,memory-2step-stake-s,666,3823469,0.0-19.0-0.1-0.172,ARYL3C6N9SVV1,31KPKEKW5DTYWQJ2Z73D1GA4ZNDB00,3JV9LGBJWXUIC7HQ7G24HCT67FOGOC,7,8
173,1,object_03,object_05,759.19999998808,2,2,285.89999997616,0.4444444444444444,2,object_07,1,2834,0,8,4,desert_3,1,memory-2step-stake-s,667,3831478,0.0-19.0-0.1-0.173,ARYL3C6N9SVV1,31KPKEKW5DTYWQJ2Z73D1GA4ZNDB00,3JV9LGBJWXUIC7HQ7G24HCT67FOGOC,1,2
174,2,object_06,object_02,615.30000001192,4,2,384.59999999404,0.6666666666666666,2,object_07,1,2840,0,9,6,forest_2,1,memory-2step-stake-s,668,3839791,0.0-19.0-0.1-0.174,ARYL3C6N9SVV1,31KPKEKW5DTYWQJ2Z73D1GA4ZNDB00,3JV9LGBJWXUIC7HQ7G24HCT67FOGOC,3,4
175,2,object_06,object_02,1132.3000000119,4,2,369.79999998212,0.3333333333333333,2,object_07,5,2855,0,7,3,forest_3,1,memory-2step-stake-s,669,3847758,0.0-19.0-0.1-0.175,ARYL3C6N9SVV1,31KPKEKW5DTYWQJ2Z73D1GA4ZNDB00,3JV9LGBJWXUIC7HQ7G24HCT67FOGOC,3,4
176,2,object_06,object_02,1028.7000000179,4,2,268.0,0.3333333333333333,2,object_07,1,2858,0,8,3,forest_3,1,memory-2step-stake-s,670,3855613,0.0-19.0-0.1-0.176,ARYL3C6N9SVV1,31KPKEKW5DTYWQJ2Z73D1GA4ZNDB00,3JV9LGBJWXUIC7HQ7G24HCT67FOGOC,3,4
177,1,object_03,object_05,1048.1999999881,2,2,-1.0,0.0,2,object_07,1,2858,0,5,7,desert_1,1,memory-2step-stake-s,671,3864194,0.0-19.0-0.1-0.177,ARYL3C6N9SVV1,31KPKEKW5DTYWQJ2Z73D1GA4ZNDB00,3JV9LGBJWXUIC7HQ7G24HCT67FOGOC,1,2
178,1,object_05,object_03,630.70000001788,2,1,504.39999997616,0.7777777777777778,2,object_07,1,2865,0,8,7,desert_1,1,memory-2step-stake-s,672,3872724,0.0-19.0-0.1-0.178,ARYL3C6N9SVV1,31KPKEKW5DTYWQJ2Z73D1GA4ZNDB00,3JV9LGBJWXUIC7HQ7G24HCT67FOGOC,2,1
179,3,object_09,object_10,1025.0,6,1,307.30000001192,0.8888888888888888,2,object_07,1,2873,0,9,8,library_5,1,memory-2step-stake-s,673,3881188,0.0-19.0-0.1-0.179,ARYL3C6N9SVV1,31KPKEKW5DTYWQJ2Z73D1GA4ZNDB00,3JV9LGBJWXUIC7HQ7G24HCT67FOGOC,6,5
180,4,object_01,object_04,866.09999999404,8,2,323.70000001788,1.0,2,object_07,5,2918,0,6,9,restaurant_2,1,memory-2step-stake-s,674,3889774,0.0-19.0-0.1-0.180,ARYL3C6N9SVV1,31KPKEKW5DTYWQJ2Z73D1GA4ZNDB00,3JV9LGBJWXUIC7HQ7G24HCT67FOGOC,7,8
181,3,object_09,object_10,1086.099999994,6,1,426.5,0.8888888888888888,2,object_07,5,2958,0,8,8,library_2,1,memory-2step-stake-s,675,3898325,0.0-19.0-0.1-0.181,ARYL3C6N9SVV1,31KPKEKW5DTYWQJ2Z73D1GA4ZNDB00,3JV9LGBJWXUIC7HQ7G24HCT67FOGOC,6,5
182,3,object_09,object_10,770.10000002384,6,1,390.79999998212,0.8888888888888888,2,object_07,5,2998,0,8,8,library_2,1,memory-2step-stake-s,676,3906844,0.0-19.0-0.1-0.182,ARYL3C6N9SVV1,31KPKEKW5DTYWQJ2Z73D1GA4ZNDB00,3JV9LGBJWXUIC7HQ7G24HCT67FOGOC,6,5
183,4,object_01,object_04,1159.8000000119,7,1,321.80000001192,0.7777777777777778,1,object_08,5,3033,0,7,8,restaurant_2,1,memory-2step-stake-s,677,3915185,0.0-19.0-0.1-0.183,ARYL3C6N9SVV1,31KPKEKW5DTYWQJ2Z73D1GA4ZNDB00,3JV9LGBJWXUIC7HQ7G24HCT67FOGOC,7,8
184,1,object_05,object_03,586.69999998808,2,1,558.0,1.0,2,object_07,1,3042,0,8,9,desert_1,1,memory-2step-stake-s,678,3923975,0.0-19.0-0.1-0.184,ARYL3C6N9SVV1,31KPKEKW5DTYWQJ2Z73D1GA4ZNDB00,3JV9LGBJWXUIC7HQ7G24HCT67FOGOC,2,1
185,1,object_05,object_03,-1.0,-1,-1,-1.0,0.0,-,0,1,3042,0,6,7,desert_2,1,memory-2step-stake-s,679,3930538,0.0-19.0-0.1-0.185,ARYL3C6N9SVV1,31KPKEKW5DTYWQJ2Z73D1GA4ZNDB00,3JV9LGBJWXUIC7HQ7G24HCT67FOGOC,2,1
186,4,object_04,object_01,1267.099999994,8,1,442.0,0.4444444444444444,2,object_07,5,3062,0,6,4,restaurant_7,1,memory-2step-stake-s,680,3938683,0.0-19.0-0.1-0.186,ARYL3C6N9SVV1,31KPKEKW5DTYWQJ2Z73D1GA4ZNDB00,3JV9LGBJWXUIC7HQ7G24HCT67FOGOC,8,7
187,2,object_02,object_06,1425.099999994,4,1,500.0,0.7777777777777778,2,object_07,1,3069,0,6,7,forest_3,1,memory-2step-stake-s,681,3947190,0.0-19.0-0.1-0.187,ARYL3C6N9SVV1,31KPKEKW5DTYWQJ2Z73D1GA4ZNDB00,3JV9LGBJWXUIC7HQ7G24HCT67FOGOC,4,3
188,2,object_02,object_06,1279.6000000238,4,1,471.29999998212,0.7777777777777778,2,object_07,1,3076,0,6,7,forest_3,1,memory-2step-stake-s,682,3955673,0.0-19.0-0.1-0.188,ARYL3C6N9SVV1,31KPKEKW5DTYWQJ2Z73D1GA4ZNDB00,3JV9LGBJWXUIC7HQ7G24HCT67FOGOC,4,3
189,2,object_02,object_06,1435.400000006,4,1,498.0,0.5555555555555556,2,object_07,5,3101,0,3,5,forest_6,1,memory-2step-stake-s,683,3963965,0.0-19.0-0.1-0.189,ARYL3C6N9SVV1,31KPKEKW5DTYWQJ2Z73D1GA4ZNDB00,3JV9LGBJWXUIC7HQ7G24HCT67FOGOC,4,3
190,3,object_09,object_10,1423.8000000119,6,1,619.29999998212,0.5555555555555556,2,object_07,5,3126,0,4,5,library_5,1,memory-2step-stake-s,684,3972406,0.0-19.0-0.1-0.190,ARYL3C6N9SVV1,31KPKEKW5DTYWQJ2Z73D1GA4ZNDB00,3JV9LGBJWXUIC7HQ7G24HCT67FOGOC,6,5
191,2,object_06,object_02,-1.0,-1,-1,-1.0,0.0,-,0,5,3126,0,5,6,forest_6,1,memory-2step-stake-s,685,3978997,0.0-19.0-0.1-0.191,ARYL3C6N9SVV1,31KPKEKW5DTYWQJ2Z73D1GA4ZNDB00,3JV9LGBJWXUIC7HQ7G24HCT67FOGOC,3,4
192,4,object_04,object_01,1377.099999994,8,1,479.20000001788,0.6666666666666666,2,object_07,5,3156,0,3,6,restaurant_7,1,memory-2step-stake-s,686,3987448,0.0-19.0-0.1-0.192,ARYL3C6N9SVV1,31KPKEKW5DTYWQJ2Z73D1GA4ZNDB00,3JV9LGBJWXUIC7HQ7G24HCT67FOGOC,8,7
193,1,object_03,object_05,1148.6999999881,1,1,247.90000000596,0.4444444444444444,1,object_08,5,3176,0,4,8,desert_4,1,memory-2step-stake-s,687,3995404,0.0-19.0-0.1-0.193,ARYL3C6N9SVV1,31KPKEKW5DTYWQJ2Z73D1GA4ZNDB00,3JV9LGBJWXUIC7HQ7G24HCT67FOGOC,1,2
194,2,object_06,object_02,1035.3000000119,3,1,285.59999999404,0.2222222222222222,1,object_08,5,3186,0,2,8,forest_2,1,memory-2step-stake-s,688,4003199,0.0-19.0-0.1-0.194,ARYL3C6N9SVV1,31KPKEKW5DTYWQJ2Z73D1GA4ZNDB00,3JV9LGBJWXUIC7HQ7G24HCT67FOGOC,3,4
195,2,object_02,object_06,634.69999998808,4,1,275.59999999404,0.8888888888888888,2,object_07,1,3194,0,0,8,forest_3,1,memory-2step-stake-s,689,4011631,0.0-19.0-0.1-0.195,ARYL3C6N9SVV1,31KPKEKW5DTYWQJ2Z73D1GA4ZNDB00,3JV9LGBJWXUIC7HQ7G24HCT67FOGOC,4,3
196,2,object_06,object_02,707.69999998808,3,1,258.10000002384,0.4444444444444444,1,object_08,1,3198,0,4,7,forest_3,1,memory-2step-stake-s,690,4019617,0.0-19.0-0.1-0.196,ARYL3C6N9SVV1,31KPKEKW5DTYWQJ2Z73D1GA4ZNDB00,3JV9LGBJWXUIC7HQ7G24HCT67FOGOC,3,4
197,1,object_05,object_03,638.59999999404,2,1,271.39999997616,0.7777777777777778,2,object_07,1,3205,0,3,7,desert_1,1,memory-2step-stake-s,691,4027887,0.0-19.0-0.1-0.197,ARYL3C6N9SVV1,31KPKEKW5DTYWQJ2Z73D1GA4ZNDB00,3JV9LGBJWXUIC7HQ7G24HCT67FOGOC,2,1
198,3,object_10,object_09,1115.3000000119,6,2,262.09999999404,0.7777777777777778,2,object_07,5,3240,0,5,7,library_3,1,memory-2step-stake-s,692,4036140,0.0-19.0-0.1-0.198,ARYL3C6N9SVV1,31KPKEKW5DTYWQJ2Z73D1GA4ZNDB00,3JV9LGBJWXUIC7HQ7G24HCT67FOGOC,5,6
199,3,object_09,object_10,809.70000001788,6,1,342.90000000596,1.0,2,object_07,5,3285,0,7,9,library_7,1,memory-2step-stake-s,693,4044709,0.0-19.0-0.1-0.199,ARYL3C6N9SVV1,31KPKEKW5DTYWQJ2Z73D1GA4ZNDB00,3JV9LGBJWXUIC7HQ7G24HCT67FOGOC,6,5
200,3,object_09,object_10,640.79999998212,6,1,311.20000001788,0.7777777777777778,2,object_07,5,3320,0,7,7,library_7,1,memory-2step-stake-s,694,4053041,0.0-19.0-0.1-0.200,ARYL3C6N9SVV1,31KPKEKW5DTYWQJ2Z73D1GA4ZNDB00,3JV9LGBJWXUIC7HQ7G24HCT67FOGOC,6,5
201,3,object_09,object_10,793.5,6,1,300.69999998808,0.7777777777777778,2,object_07,1,3327,0,7,7,library_3,1,memory-2step-stake-s,695,4061378,0.0-19.0-0.1-0.201,ARYL3C6N9SVV1,31KPKEKW5DTYWQJ2Z73D1GA4ZNDB00,3JV9LGBJWXUIC7HQ7G24HCT67FOGOC,6,5
202,2,object_06,object_02,649.40000000596,4,2,279.19999998808,0.6666666666666666,2,object_07,1,3333,0,4,6,forest_1,1,memory-2step-stake-s,696,4069570,0.0-19.0-0.1-0.202,ARYL3C6N9SVV1,31KPKEKW5DTYWQJ2Z73D1GA4ZNDB00,3JV9LGBJWXUIC7HQ7G24HCT67FOGOC,3,4
203,3,object_10,object_09,770.70000001788,6,2,374.70000001788,0.4444444444444444,2,object_07,5,3353,0,3,4,library_2,1,memory-2step-stake-s,697,4077666,0.0-19.0-0.1-0.203,ARYL3C6N9SVV1,31KPKEKW5DTYWQJ2Z73D1GA4ZNDB00,3JV9LGBJWXUIC7HQ7G24HCT67FOGOC,5,6
204,4,object_01,object_04,1076.7000000179,7,1,318.09999999404,0.1111111111111111,1,object_08,5,3358,0,1,4,restaurant_3,1,memory-2step-stake-s,698,4085371,0.0-19.0-0.1-0.204,ARYL3C6N9SVV1,31KPKEKW5DTYWQJ2Z73D1GA4ZNDB00,3JV9LGBJWXUIC7HQ7G24HCT67FOGOC,7,8
205,4,object_01,object_04,493.39999997616,7,1,345.30000001192,0.3333333333333333,1,object_08,1,3361,0,3,8,restaurant_3,1,memory-2step-stake-s,699,4093276,0.0-19.0-0.1-0.205,ARYL3C6N9SVV1,31KPKEKW5DTYWQJ2Z73D1GA4ZNDB00,3JV9LGBJWXUIC7HQ7G24HCT67FOGOC,7,8
206,1,object_05,object_03,713.20000001788,2,1,343.30000001192,0.8888888888888888,2,object_07,5,3401,0,0,8,desert_2,1,memory-2step-stake-s,700,4101790,0.0-19.0-0.1-0.206,ARYL3C6N9SVV1,31KPKEKW5DTYWQJ2Z73D1GA4ZNDB00,3JV9LGBJWXUIC7HQ7G24HCT67FOGOC,2,1
207,1,object_05,object_03,733.5,2,1,263.40000000596,0.7777777777777778,2,object_07,1,3408,0,1,7,desert_4,1,memory-2step-stake-s,701,4110129,0.0-19.0-0.1-0.207,ARYL3C6N9SVV1,31KPKEKW5DTYWQJ2Z73D1GA4ZNDB00,3JV9LGBJWXUIC7HQ7G24HCT67FOGOC,2,1
208,3,object_09,object_10,885.19999998808,6,1,315.40000000596,0.8888888888888888,2,object_07,5,3448,0,0,8,library_2,1,memory-2step-stake-s,702,4118616,0.0-19.0-0.1-0.208,ARYL3C6N9SVV1,31KPKEKW5DTYWQJ2Z73D1GA4ZNDB00,3JV9LGBJWXUIC7HQ7G24HCT67FOGOC,6,5
209,2,object_06,object_02,783.59999999404,3,1,282.20000001788,0.1111111111111111,1,object_08,1,3449,0,1,5,forest_6,1,memory-2step-stake-s,703,4126295,0.0-19.0-0.1-0.209,ARYL3C6N9SVV1,31KPKEKW5DTYWQJ2Z73D1GA4ZNDB00,3JV9LGBJWXUIC7HQ7G24HCT67FOGOC,3,4
210,1,object_03,object_05,857.59999999404,2,2,343.89999997616,0.6666666666666666,2,object_07,1,3455,0,1,6,desert_4,1,memory-2step-stake-s,704,4134557,0.0-19.0-0.1-0.210,ARYL3C6N9SVV1,31KPKEKW5DTYWQJ2Z73D1GA4ZNDB00,3JV9LGBJWXUIC7HQ7G24HCT67FOGOC,1,2
211,2,object_06,object_02,416.09999999404,4,2,274.29999998212,0.7777777777777778,2,object_07,1,3462,0,3,7,forest_6,1,memory-2step-stake-s,705,4142885,0.0-19.0-0.1-0.211,ARYL3C6N9SVV1,31KPKEKW5DTYWQJ2Z73D1GA4ZNDB00,3JV9LGBJWXUIC7HQ7G24HCT67FOGOC,3,4
212,3,object_10,object_09,786.60000002384,6,2,315.69999998808,0.8888888888888888,2,object_07,5,3502,0,2,8,library_3,1,memory-2step-stake-s,706,4151334,0.0-19.0-0.1-0.212,ARYL3C6N9SVV1,31KPKEKW5DTYWQJ2Z73D1GA4ZNDB00,3JV9LGBJWXUIC7HQ7G24HCT67FOGOC,5,6
213,3,object_10,object_09,698.40000000596,6,2,286.90000000596,0.8888888888888888,2,object_07,5,3542,0,1,8,library_7,1,memory-2step-stake-s,707,4159768,0.0-19.0-0.1-0.213,ARYL3C6N9SVV1,31KPKEKW5DTYWQJ2Z73D1GA4ZNDB00,3JV9LGBJWXUIC7HQ7G24HCT67FOGOC,5,6
214,4,object_01,object_04,1112.0,8,2,334.40000000596,1.0,2,object_07,5,3587,0,3,9,restaurant_7,1,memory-2step-stake-s,708,4168365,0.0-19.0-0.1-0.214,ARYL3C6N9SVV1,31KPKEKW5DTYWQJ2Z73D1GA4ZNDB00,3JV9LGBJWXUIC7HQ7G24HCT67FOGOC,7,8
215,2,object_02,object_06,738.09999999404,4,1,347.5,1.0,2,object_07,1,3596,0,5,9,forest_2,1,memory-2step-stake-s,709,4176963,0.0-19.0-0.1-0.215,ARYL3C6N9SVV1,31KPKEKW5DTYWQJ2Z73D1GA4ZNDB00,3JV9LGBJWXUIC7HQ7G24HCT67FOGOC,4,3
216,1,object_03,object_05,725.90000000596,2,2,311.5,1.0,2,object_07,1,3605,0,2,9,desert_1,1,memory-2step-stake-s,710,4185534,0.0-19.0-0.1-0.216,ARYL3C6N9SVV1,31KPKEKW5DTYWQJ2Z73D1GA4ZNDB00,3JV9LGBJWXUIC7HQ7G24HCT67FOGOC,1,2
217,4,object_01,object_04,1361.3000000119,8,2,351.0,0.8888888888888888,2,object_07,1,3613,0,1,8,restaurant_7,1,memory-2step-stake-s,711,4193975,0.0-19.0-0.1-0.217,ARYL3C6N9SVV1,31KPKEKW5DTYWQJ2Z73D1GA4ZNDB00,3JV9LGBJWXUIC7HQ7G24HCT67FOGOC,7,8
218,2,object_02,object_06,652.19999998808,4,1,941.60000002384,1.0,2,object_07,1,3622,0,1,9,forest_1,1,memory-2step-stake-s,712,4203202,0.0-19.0-0.1-0.218,ARYL3C6N9SVV1,31KPKEKW5DTYWQJ2Z73D1GA4ZNDB00,3JV9LGBJWXUIC7HQ7G24HCT67FOGOC,4,3
219,1,object_03,object_05,749.90000000596,2,2,259.5,0.7777777777777778,2,object_07,1,3629,0,3,7,desert_3,1,memory-2step-stake-s,713,4211486,0.0-19.0-0.1-0.219,ARYL3C6N9SVV1,31KPKEKW5DTYWQJ2Z73D1GA4ZNDB00,3JV9LGBJWXUIC7HQ7G24HCT67FOGOC,1,2
220,3,object_10,object_09,910.09999999404,6,2,292.59999999404,0.2222222222222222,2,object_07,5,3639,0,3,2,library_3,1,memory-2step-stake-s,714,4219258,0.0-19.0-0.1-0.220,ARYL3C6N9SVV1,31KPKEKW5DTYWQJ2Z73D1GA4ZNDB00,3JV9LGBJWXUIC7HQ7G24HCT67FOGOC,5,6
221,3,object_10,object_09,807.19999998808,5,1,377.10000002384,0.0,1,object_08,5,3639,0,0,5,library_7,1,memory-2step-stake-s,715,4226889,0.0-19.0-0.1-0.221,ARYL3C6N9SVV1,31KPKEKW5DTYWQJ2Z73D1GA4ZNDB00,3JV9LGBJWXUIC7HQ7G24HCT67FOGOC,5,6
222,2,object_02,object_06,637.09999999404,4,1,268.09999999404,0.5555555555555556,2,object_07,1,3644,0,2,5,forest_2,1,memory-2step-stake-s,716,4234999,0.0-19.0-0.1-0.222,ARYL3C6N9SVV1,31KPKEKW5DTYWQJ2Z73D1GA4ZNDB00,3JV9LGBJWXUIC7HQ7G24HCT67FOGOC,4,3
223,2,object_02,object_06,967.0,4,1,333.69999998808,0.7777777777777778,2,object_07,1,3651,0,5,7,forest_3,1,memory-2step-stake-s,717,4243364,0.0-19.0-0.1-0.223,ARYL3C6N9SVV1,31KPKEKW5DTYWQJ2Z73D1GA4ZNDB00,3JV9LGBJWXUIC7HQ7G24HCT67FOGOC,4,3
224,1,object_05,object_03,746.19999998808,2,1,1258.900000006,1.0,2,object_07,1,3660,0,5,9,desert_2,1,memory-2step-stake-s,718,4252882,0.0-19.0-0.1-0.224,ARYL3C6N9SVV1,31KPKEKW5DTYWQJ2Z73D1GA4ZNDB00,3JV9LGBJWXUIC7HQ7G24HCT67FOGOC,2,1
225,3,object_10,object_09,-1.0,-1,-1,-1.0,0.0,-,0,5,3660,0,7,6,library_5,1,memory-2step-stake-s,719,4259458,0.0-19.0-0.1-0.225,ARYL3C6N9SVV1,31KPKEKW5DTYWQJ2Z73D1GA4ZNDB00,3JV9LGBJWXUIC7HQ7G24HCT67FOGOC,5,6
226,4,object_04,object_01,-1.0,-1,-1,-1.0,0.0,-,0,1,3660,0,6,3,restaurant_5,1,memory-2step-stake-s,720,4266037,0.0-19.0-0.1-0.226,ARYL3C6N9SVV1,31KPKEKW5DTYWQJ2Z73D1GA4ZNDB00,3JV9LGBJWXUIC7HQ7G24HCT67FOGOC,8,7
227,2,object_02,object_06,891.39999997616,4,1,-1.0,0.0,2,object_07,1,3660,0,4,4,forest_3,1,memory-2step-stake-s,721,4274619,0.0-19.0-0.1-0.227,ARYL3C6N9SVV1,31KPKEKW5DTYWQJ2Z73D1GA4ZNDB00,3JV9LGBJWXUIC7HQ7G24HCT67FOGOC,4,3
228,4,object_04,object_01,777.80000001192,8,1,733.79999998212,0.4444444444444444,2,object_07,5,3680,0,3,4,restaurant_2,1,memory-2step-stake-s,722,4283061,0.0-19.0-0.1-0.228,ARYL3C6N9SVV1,31KPKEKW5DTYWQJ2Z73D1GA4ZNDB00,3JV9LGBJWXUIC7HQ7G24HCT67FOGOC,8,7
229,4,object_01,object_04,633.80000001192,7,1,-1.0,0.0,1,object_08,1,3680,0,3,4,restaurant_5,1,memory-2step-stake-s,723,4291654,0.0-19.0-0.1-0.229,ARYL3C6N9SVV1,31KPKEKW5DTYWQJ2Z73D1GA4ZNDB00,3JV9LGBJWXUIC7HQ7G24HCT67FOGOC,7,8
230,3,object_10,object_09,726.0,5,1,652.69999998808,0.3333333333333333,1,object_08,1,3683,0,3,5,library_2,1,memory-2step-stake-s,724,4299952,0.0-19.0-0.1-0.230,ARYL3C6N9SVV1,31KPKEKW5DTYWQJ2Z73D1GA4ZNDB00,3JV9LGBJWXUIC7HQ7G24HCT67FOGOC,5,6
231,3,object_09,object_10,688.80000001192,6,1,365.30000001192,0.3333333333333333,2,object_07,5,3698,0,2,3,library_3,1,memory-2step-stake-s,725,4307933,0.0-19.0-0.1-0.231,ARYL3C6N9SVV1,31KPKEKW5DTYWQJ2Z73D1GA4ZNDB00,3JV9LGBJWXUIC7HQ7G24HCT67FOGOC,6,5
232,4,object_04,object_01,546.20000001788,8,1,-1.0,0.0,2,object_07,1,3698,0,2,6,restaurant_2,1,memory-2step-stake-s,726,4316507,0.0-19.0-0.1-0.232,ARYL3C6N9SVV1,31KPKEKW5DTYWQJ2Z73D1GA4ZNDB00,3JV9LGBJWXUIC7HQ7G24HCT67FOGOC,8,7
233,2,object_06,object_02,731.19999998808,3,1,801.0,0.3333333333333333,1,object_08,1,3701,0,3,4,forest_6,1,memory-2step-stake-s,727,4324918,0.0-19.0-0.1-0.233,ARYL3C6N9SVV1,31KPKEKW5DTYWQJ2Z73D1GA4ZNDB00,3JV9LGBJWXUIC7HQ7G24HCT67FOGOC,3,4
234,4,object_01,object_04,-1.0,-1,-1,-1.0,0.0,-,0,5,3701,0,1,4,restaurant_5,1,memory-2step-stake-s,728,4331498,0.0-19.0-0.1-0.234,ARYL3C6N9SVV1,31KPKEKW5DTYWQJ2Z73D1GA4ZNDB00,3JV9LGBJWXUIC7HQ7G24HCT67FOGOC,7,8
235,4,object_01,object_04,-1.0,-1,-1,-1.0,0.0,-,0,5,3701,0,1,2,restaurant_5,1,memory-2step-stake-s,729,4338069,0.0-19.0-0.1-0.235,ARYL3C6N9SVV1,31KPKEKW5DTYWQJ2Z73D1GA4ZNDB00,3JV9LGBJWXUIC7HQ7G24HCT67FOGOC,7,8
236,3,object_10,object_09,-1.0,-1,-1,-1.0,0.0,-,0,5,3701,0,0,3,library_5,1,memory-2step-stake-s,730,4344648,0.0-19.0-0.1-0.236,ARYL3C6N9SVV1,31KPKEKW5DTYWQJ2Z73D1GA4ZNDB00,3JV9LGBJWXUIC7HQ7G24HCT67FOGOC,5,6
237,1,object_03,object_05,1384.400000006,2,2,563.29999998212,0.4444444444444444,2,object_07,1,3705,0,2,4,desert_3,1,memory-2step-stake-s,731,4352972,0.0-19.0-0.1-0.237,ARYL3C6N9SVV1,31KPKEKW5DTYWQJ2Z73D1GA4ZNDB00,3JV9LGBJWXUIC7HQ7G24HCT67FOGOC,1,2
238,1,object_05,object_03,659.69999998808,2,1,567.90000000596,0.4444444444444444,2,object_07,1,3709,0,1,4,desert_4,1,memory-2step-stake-s,732,4361220,0.0-19.0-0.1-0.238,ARYL3C6N9SVV1,31KPKEKW5DTYWQJ2Z73D1GA4ZNDB00,3JV9LGBJWXUIC7HQ7G24HCT67FOGOC,2,1
239,2,object_06,object_02,1096.900000006,3,1,1049.5,0.1111111111111111,1,object_08,1,3710,0,1,3,forest_2,1,memory-2step-stake-s,733,4369697,0.0-19.0-0.1-0.239,ARYL3C6N9SVV1,31KPKEKW5DTYWQJ2Z73D1GA4ZNDB00,3JV9LGBJWXUIC7HQ7G24HCT67FOGOC,3,4
240,3,object_09,object_10,725.5,6,1,534.29999998212,0.2222222222222222,2,object_07,5,3720,0,2,2,library_3,1,memory-2step-stake-s,734,4377714,0.0-19.0-0.1-0.240,ARYL3C6N9SVV1,31KPKEKW5DTYWQJ2Z73D1GA4ZNDB00,3JV9LGBJWXUIC7HQ7G24HCT67FOGOC,6,5
241,4,object_01,object_04,-1.0,-1,-1,-1.0,0.0,-,0,5,3720,0,0,1,restaurant_3,1,memory-2step-stake-s,735,4384301,0.0-19.0-0.1-0.241,ARYL3C6N9SVV1,31KPKEKW5DTYWQJ2Z73D1GA4ZNDB00,3JV9LGBJWXUIC7HQ7G24HCT67FOGOC,7,8
242,3,object_10,object_09,1318.099999994,6,2,735.5,0.1111111111111111,2,object_07,5,3725,0,0,1,library_7,1,memory-2step-stake-s,736,4392431,0.0-19.0-0.1-0.242,ARYL3C6N9SVV1,31KPKEKW5DTYWQJ2Z73D1GA4ZNDB00,3JV9LGBJWXUIC7HQ7G24HCT67FOGOC,5,6
243,2,object_06,object_02,1444.2999999821,4,2,-1.0,0.0,2,object_07,5,3725,0,2,2,forest_3,1,memory-2step-stake-s,737,4401023,0.0-19.0-0.1-0.243,ARYL3C6N9SVV1,31KPKEKW5DTYWQJ2Z73D1GA4ZNDB00,3JV9LGBJWXUIC7HQ7G24HCT67FOGOC,3,4
244,3,object_09,object_10,724.19999998808,6,1,400.0,0.5555555555555556,2,object_07,5,3750,0,3,5,library_5,1,memory-2step-stake-s,738,4409209,0.0-19.0-0.1-0.244,ARYL3C6N9SVV1,31KPKEKW5DTYWQJ2Z73D1GA4ZNDB00,3JV9LGBJWXUIC7HQ7G24HCT67FOGOC,6,5
245,1,object_05,object_03,1116.599999994,2,1,313.30000001192,0.8888888888888888,2,object_07,5,3790,0,2,8,desert_4,1,memory-2step-stake-s,739,4417665,0.0-19.0-0.1-0.245,ARYL3C6N9SVV1,31KPKEKW5DTYWQJ2Z73D1GA4ZNDB00,3JV9LGBJWXUIC7HQ7G24HCT67FOGOC,2,1
246,4,object_01,object_04,1086.599999994,7,1,338.20000001788,0.0,1,object_08,5,3790,0,0,5,restaurant_7,1,memory-2step-stake-s,740,4425262,0.0-19.0-0.1-0.246,ARYL3C6N9SVV1,31KPKEKW5DTYWQJ2Z73D1GA4ZNDB00,3JV9LGBJWXUIC7HQ7G24HCT67FOGOC,7,8
247,3,object_10,object_09,907.19999998808,6,2,300.30000001192,0.7777777777777778,2,object_07,5,3825,0,0,7,library_5,1,memory-2step-stake-s,741,4433600,0.0-19.0-0.1-0.247,ARYL3C6N9SVV1,31KPKEKW5DTYWQJ2Z73D1GA4ZNDB00,3JV9LGBJWXUIC7HQ7G24HCT67FOGOC,5,6
248,2,object_06,object_02,825.19999998808,4,2,526.40000000596,0.6666666666666666,2,object_07,1,3831,0,2,6,forest_1,1,memory-2step-stake-s,742,4442041,0.0-19.0-0.1-0.248,ARYL3C6N9SVV1,31KPKEKW5DTYWQJ2Z73D1GA4ZNDB00,3JV9LGBJWXUIC7HQ7G24HCT67FOGOC,3,4
249,3,object_09,object_10,754.40000000596,6,1,323.59999999404,0.6666666666666666,2,object_07,5,3861,0,4,6,library_3,1,memory-2step-stake-s,743,4450308,0.0-19.0-0.1-0.249,ARYL3C6N9SVV1,31KPKEKW5DTYWQJ2Z73D1GA4ZNDB00,3JV9LGBJWXUIC7HQ7G24HCT67FOGOC,6,5
250,2,object_02,object_06,615.5,4,1,361.19999998808,0.6666666666666666,2,object_07,1,3867,0,4,6,forest_1,1,memory-2step-stake-s,744,4458618,0.0-19.0-0.1-0.250,ARYL3C6N9SVV1,31KPKEKW5DTYWQJ2Z73D1GA4ZNDB00,3JV9LGBJWXUIC7HQ7G24HCT67FOGOC,4,3
251,1,object_03,object_05,585.09999999404,2,2,689.90000000596,0.7777777777777778,2,object_07,1,3874,0,5,7,desert_2,1,memory-2step-stake-s,745,4467347,0.0-19.0-0.1-0.251,ARYL3C6N9SVV1,31KPKEKW5DTYWQJ2Z73D1GA4ZNDB00,3JV9LGBJWXUIC7HQ7G24HCT67FOGOC,1,2
252,2,object_06,object_02,747.59999999404,4,2,385.29999998212,0.7777777777777778,2,object_07,5,3909,0,8,7,forest_6,1,memory-2step-stake-s,746,4475810,0.0-19.0-0.1-0.252,ARYL3C6N9SVV1,31KPKEKW5DTYWQJ2Z73D1GA4ZNDB00,3JV9LGBJWXUIC7HQ7G24HCT67FOGOC,3,4
253,1,object_05,object_03,586.30000001192,2,1,319.79999998212,0.5555555555555556,2,object_07,1,3914,0,9,5,desert_4,1,memory-2step-stake-s,747,4483916,0.0-19.0-0.1-0.253,ARYL3C6N9SVV1,31KPKEKW5DTYWQJ2Z73D1GA4ZNDB00,3JV9LGBJWXUIC7HQ7G24HCT67FOGOC,2,1
254,4,object_04,object_01,959.5,7,2,526.40000000596,0.8888888888888888,1,object_08,5,3954,0,8,4,restaurant_3,1,memory-2step-stake-s,748,4492594,0.0-19.0-0.1-0.254,ARYL3C6N9SVV1,31KPKEKW5DTYWQJ2Z73D1GA4ZNDB00,3JV9LGBJWXUIC7HQ7G24HCT67FOGOC,8,7
255,1,object_03,object_05,672.79999998212,2,2,270.5,0.6666666666666666,2,object_07,1,3960,0,8,6,desert_1,1,memory-2step-stake-s,749,4500805,0.0-19.0-0.1-0.255,ARYL3C6N9SVV1,31KPKEKW5DTYWQJ2Z73D1GA4ZNDB00,3JV9LGBJWXUIC7HQ7G24HCT67FOGOC,1,2
