,state1,stim_left,stim_right,rt_1,choice1,response1,rt_2,points,state2,stim_state2,stake,score,practice,rews1,rews2,background,high_arm,trial_type,trial_index,time_elapsed,internal_node_id,subid,hitid,assignmentid,stim_left_num,stim_right_num
0,1,object_04,object_06,951.40000000596,1,1,-1.0,0.0,1,object_09,5,0,0,2,1,desert_5,2,memory-2step-stake-s,492,908452,0.0-19.0-0.0-0.0,A7GT7BIC7ERWE,3SA4EMRVKYI00KKCICLEW0FTGRS0PA,37W3JXSD6AOQ37BSS8FK56DWFD8WYX,1,2
1,4,object_03,object_05,945.20000000298,8,1,-1.0,0.0,2,object_08,1,0,0,1,4,restaurant_3,2,memory-2step-stake-s,493,917047,0.0-19.0-0.0-0.1,A7GT7BIC7ERWE,3SA4EMRVKYI00KKCICLEW0FTGRS0PA,37W3JXSD6AOQ37BSS8FK56DWFD8WYX,8,7
2,1,object_06,object_04,937.39999999106,2,1,-1.0,0.0,2,object_08,5,0,0,1,4,desert_2,2,memory-2step-stake-s,494,925563,0.0-19.0-0.0-0.2,A7GT7BIC7ERWE,3SA4EMRVKYI00KKCICLEW0FTGRS0PA,37W3JXSD6AOQ37BSS8FK56DWFD8WYX,2,1
3,3,object_02,object_10,866.60000000894,6,2,-1.0,0.0,2,object_08,5,0,0,1,1,library_5,2,memory-2step-stake-s,495,934172,0.0-19.0-0.0-0.3,A7GT7BIC7ERWE,3SA4EMRVKYI00KKCICLEW0FTGRS0PA,37W3JXSD6AOQ37BSS8FK56DWFD8WYX,5,6
4,4,object_03,object_05,328.5,8,1,-1.0,0.0,2,object_08,1,0,0,1,0,restaurant_3,2,memory-2step-stake-s,496,942704,0.0-19.0-0.0-0.4,A7GT7BIC7ERWE,3SA4EMRVKYI00KKCICLEW0FTGRS0PA,37W3JXSD6AOQ37BSS8FK56DWFD8WYX,8,7
5,2,object_01,object_07,345.70000000298,3,1,-1.0,0.0,1,object_09,1,0,0,1,2,forest_1,2,memory-2step-stake-s,497,951286,0.0-19.0-0.0-0.5,A7GT7BIC7ERWE,3SA4EMRVKYI00KKCICLEW0FTGRS0PA,37W3JXSD6AOQ37BSS8FK56DWFD8WYX,3,4
6,4,object_05,object_03,456.60000000894,7,1,-1.0,0.0,1,object_09,5,0,0,1,4,restaurant_6,2,memory-2step-stake-s,498,959833,0.0-19.0-0.0-0.6,A7GT7BIC7ERWE,3SA4EMRVKYI00KKCICLEW0FTGRS0PA,37W3JXSD6AOQ37BSS8FK56DWFD8WYX,7,8
7,3,object_10,object_02,424.70000000298,6,1,-1.0,0.0,2,object_08,1,0,0,0,5,library_5,2,memory-2step-stake-s,499,968418,0.0-19.0-0.0-0.7,A7GT7BIC7ERWE,3SA4EMRVKYI00KKCICLEW0FTGRS0PA,37W3JXSD6AOQ37BSS8FK56DWFD8WYX,6,5
8,3,object_10,object_02,332.10000000894,6,1,-1.0,0.0,2,object_08,1,0,0,2,1,library_3,2,memory-2step-stake-s,500,977034,0.0-19.0-0.0-0.8,A7GT7BIC7ERWE,3SA4EMRVKYI00KKCICLEW0FTGRS0PA,37W3JXSD6AOQ37BSS8FK56DWFD8WYX,6,5
9,4,object_03,object_05,286.89999999106,8,1,-1.0,0.0,2,object_08,1,0,0,2,1,restaurant_1,2,memory-2step-stake-s,501,985622,0.0-19.0-0.0-0.9,A7GT7BIC7ERWE,3SA4EMRVKYI00KKCICLEW0FTGRS0PA,37W3JXSD6AOQ37BSS8FK56DWFD8WYX,8,7
10,4,object_03,object_05,-1.0,-1,-1,-1.0,0.0,-,0,5,0,0,1,3,restaurant_1,2,memory-2step-stake-s,502,992141,0.0-19.0-0.0-0.10,A7GT7BIC7ERWE,3SA4EMRVKYI00KKCICLEW0FTGRS0PA,37W3JXSD6AOQ37BSS8FK56DWFD8WYX,8,7
11,2,object_07,object_01,732.09999999404,3,2,-1.0,0.0,1,object_09,1,0,0,0,5,forest_7,2,memory-2step-stake-s,503,1000706,0.0-19.0-0.0-0.11,A7GT7BIC7ERWE,3SA4EMRVKYI00KKCICLEW0FTGRS0PA,37W3JXSD6AOQ37BSS8FK56DWFD8WYX,4,3
12,2,object_01,object_07,567.89999999106,4,2,-1.0,0.0,2,object_08,1,0,0,3,6,forest_4,2,memory-2step-stake-s,504,1009230,0.0-19.0-0.0-0.12,A7GT7BIC7ERWE,3SA4EMRVKYI00KKCICLEW0FTGRS0PA,37W3JXSD6AOQ37BSS8FK56DWFD8WYX,3,4
13,2,object_01,object_07,354.0,4,2,-1.0,0.0,2,object_08,1,0,0,5,8,forest_4,2,memory-2step-stake-s,505,1017783,0.0-19.0-0.0-0.13,A7GT7BIC7ERWE,3SA4EMRVKYI00KKCICLEW0FTGRS0PA,37W3JXSD6AOQ37BSS8FK56DWFD8WYX,3,4
14,1,object_06,object_04,544.0,1,2,-1.0,0.0,1,object_09,5,0,0,1,8,desert_5,2,memory-2step-stake-s,506,1026588,0.0-19.0-0.0-0.14,A7GT7BIC7ERWE,3SA4EMRVKYI00KKCICLEW0FTGRS0PA,37W3JXSD6AOQ37BSS8FK56DWFD8WYX,2,1
15,4,object_05,object_03,635.79999999702,8,2,-1.0,0.0,2,object_08,1,0,0,2,8,restaurant_3,2,memory-2step-stake-s,507,1035186,0.0-19.0-0.0-0.15,A7GT7BIC7ERWE,3SA4EMRVKYI00KKCICLEW0FTGRS0PA,37W3JXSD6AOQ37BSS8FK56DWFD8WYX,7,8
16,3,object_10,object_02,462.0,5,2,-1.0,0.0,1,object_09,1,0,0,3,8,library_3,2,memory-2step-stake-s,508,1043811,0.0-19.0-0.0-0.16,A7GT7BIC7ERWE,3SA4EMRVKYI00KKCICLEW0FTGRS0PA,37W3JXSD6AOQ37BSS8FK56DWFD8WYX,6,5
17,4,object_05,object_03,293.70000000298,8,2,-1.0,0.0,2,object_08,1,0,0,3,8,restaurant_4,2,memory-2step-stake-s,509,1052426,0.0-19.0-0.0-0.17,A7GT7BIC7ERWE,3SA4EMRVKYI00KKCICLEW0FTGRS0PA,37W3JXSD6AOQ37BSS8FK56DWFD8WYX,7,8
18,1,object_04,object_06,312.79999999702,2,2,-1.0,0.0,2,object_08,5,0,0,3,7,desert_3,2,memory-2step-stake-s,510,1060990,0.0-19.0-0.0-0.18,A7GT7BIC7ERWE,3SA4EMRVKYI00KKCICLEW0FTGRS0PA,37W3JXSD6AOQ37BSS8FK56DWFD8WYX,1,2
19,1,object_06,object_04,454.59999999404,1,2,-1.0,0.0,1,object_09,1,0,0,5,6,desert_5,2,memory-2step-stake-s,511,1069537,0.0-19.0-0.0-0.19,A7GT7BIC7ERWE,3SA4EMRVKYI00KKCICLEW0FTGRS0PA,37W3JXSD6AOQ37BSS8FK56DWFD8WYX,2,1
20,4,object_03,object_05,357.20000000298,7,2,-1.0,0.0,1,object_09,1,0,0,3,6,restaurant_4,2,memory-2step-stake-s,512,1078138,0.0-19.0-0.0-0.20,A7GT7BIC7ERWE,3SA4EMRVKYI00KKCICLEW0FTGRS0PA,37W3JXSD6AOQ37BSS8FK56DWFD8WYX,8,7
21,3,object_10,object_02,508.70000000298,6,1,-1.0,0.0,2,object_08,1,0,0,6,5,library_7,2,memory-2step-stake-s,513,1086666,0.0-19.0-0.0-0.21,A7GT7BIC7ERWE,3SA4EMRVKYI00KKCICLEW0FTGRS0PA,37W3JXSD6AOQ37BSS8FK56DWFD8WYX,6,5
22,3,object_10,object_02,435.20000000298,6,1,439.59999999404,0.6666666666666666,2,object_08,1,6,0,5,6,library_3,2,memory-2step-stake-s,514,1094997,0.0-19.0-0.0-0.22,A7GT7BIC7ERWE,3SA4EMRVKYI00KKCICLEW0FTGRS0PA,37W3JXSD6AOQ37BSS8FK56DWFD8WYX,6,5
23,3,object_10,object_02,241.20000000298,6,1,524.39999999106,1.0,2,object_08,5,51,0,4,9,library_8,2,memory-2step-stake-s,515,1103715,0.0-19.0-0.0-0.23,A7GT7BIC7ERWE,3SA4EMRVKYI00KKCICLEW0FTGRS0PA,37W3JXSD6AOQ37BSS8FK56DWFD8WYX,6,5
24,2,object_07,object_01,265.70000000298,4,1,451.79999999702,0.5555555555555556,2,object_08,5,76,0,3,5,forest_1,2,memory-2step-stake-s,516,1111939,0.0-19.0-0.0-0.24,A7GT7BIC7ERWE,3SA4EMRVKYI00KKCICLEW0FTGRS0PA,37W3JXSD6AOQ37BSS8FK56DWFD8WYX,4,3
25,3,object_02,object_10,43.800000011921,6,2,512.20000000298,0.6666666666666666,2,object_08,1,82,0,1,6,library_7,2,memory-2step-stake-s,517,1120360,0.0-19.0-0.0-0.25,A7GT7BIC7ERWE,3SA4EMRVKYI00KKCICLEW0FTGRS0PA,37W3JXSD6AOQ37BSS8FK56DWFD8WYX,5,6
26,3,object_02,object_10,418.19999998808,5,1,595.0,0.2222222222222222,1,object_09,1,84,0,2,8,library_5,2,memory-2step-stake-s,518,1128416,0.0-19.0-0.0-0.26,A7GT7BIC7ERWE,3SA4EMRVKYI00KKCICLEW0FTGRS0PA,37W3JXSD6AOQ37BSS8FK56DWFD8WYX,5,6
27,3,object_02,object_10,549.60000000894,5,1,774.29999999702,0.2222222222222222,1,object_09,5,94,0,2,8,library_7,2,memory-2step-stake-s,519,1136661,0.0-19.0-0.0-0.27,A7GT7BIC7ERWE,3SA4EMRVKYI00KKCICLEW0FTGRS0PA,37W3JXSD6AOQ37BSS8FK56DWFD8WYX,5,6
28,1,object_06,object_04,360.20000000298,2,1,481.0,0.6666666666666666,2,object_08,1,100,0,1,6,desert_2,2,memory-2step-stake-s,520,1145130,0.0-19.0-0.0-0.28,A7GT7BIC7ERWE,3SA4EMRVKYI00KKCICLEW0FTGRS0PA,37W3JXSD6AOQ37BSS8FK56DWFD8WYX,2,1
29,1,object_06,object_04,278.0,2,1,654.5,0.5555555555555556,2,object_08,5,125,0,4,5,desert_3,2,memory-2step-stake-s,521,1153609,0.0-19.0-0.0-0.29,A7GT7BIC7ERWE,3SA4EMRVKYI00KKCICLEW0FTGRS0PA,37W3JXSD6AOQ37BSS8FK56DWFD8WYX,2,1
30,4,object_03,object_05,300.79999999702,7,2,457.90000000596,0.6666666666666666,1,object_09,1,131,0,6,5,restaurant_3,2,memory-2step-stake-s,522,1162075,0.0-19.0-0.0-0.30,A7GT7BIC7ERWE,3SA4EMRVKYI00KKCICLEW0FTGRS0PA,37W3JXSD6AOQ37BSS8FK56DWFD8WYX,8,7
31,4,object_03,object_05,626.39999999106,7,2,562.39999999106,0.3333333333333333,1,object_09,1,134,0,3,5,restaurant_6,2,memory-2step-stake-s,523,1170189,0.0-19.0-0.0-0.31,A7GT7BIC7ERWE,3SA4EMRVKYI00KKCICLEW0FTGRS0PA,37W3JXSD6AOQ37BSS8FK56DWFD8WYX,8,7
32,1,object_06,object_04,326.70000000298,2,1,1461.1999999881,0.4444444444444444,2,object_08,5,154,0,3,4,desert_5,2,memory-2step-stake-s,524,1179317,0.0-19.0-0.0-0.32,A7GT7BIC7ERWE,3SA4EMRVKYI00KKCICLEW0FTGRS0PA,37W3JXSD6AOQ37BSS8FK56DWFD8WYX,2,1
33,1,object_06,object_04,242.0,1,2,448.0,0.4444444444444444,1,object_09,5,174,0,4,4,desert_3,2,memory-2step-stake-s,525,1187561,0.0-19.0-0.0-0.33,A7GT7BIC7ERWE,3SA4EMRVKYI00KKCICLEW0FTGRS0PA,37W3JXSD6AOQ37BSS8FK56DWFD8WYX,2,1
34,3,object_02,object_10,392.10000000894,5,1,567.90000000596,0.7777777777777778,1,object_09,5,209,0,7,4,library_8,2,memory-2step-stake-s,526,1196071,0.0-19.0-0.0-0.34,A7GT7BIC7ERWE,3SA4EMRVKYI00KKCICLEW0FTGRS0PA,37W3JXSD6AOQ37BSS8FK56DWFD8WYX,5,6
35,2,object_07,object_01,379.90000000596,4,1,711.29999999702,0.2222222222222222,2,object_08,5,219,0,8,2,forest_4,2,memory-2step-stake-s,527,1204243,0.0-19.0-0.0-0.35,A7GT7BIC7ERWE,3SA4EMRVKYI00KKCICLEW0FTGRS0PA,37W3JXSD6AOQ37BSS8FK56DWFD8WYX,4,3
36,2,object_01,object_07,364.79999999702,3,1,346.39999999106,0.7777777777777778,1,object_09,5,254,0,7,3,forest_5,2,memory-2step-stake-s,528,1212540,0.0-19.0-0.0-0.36,A7GT7BIC7ERWE,3SA4EMRVKYI00KKCICLEW0FTGRS0PA,37W3JXSD6AOQ37BSS8FK56DWFD8WYX,3,4
37,4,object_05,object_03,344.79999999702,7,1,743.29999999702,0.6666666666666666,1,object_09,1,260,0,6,3,restaurant_3,2,memory-2step-stake-s,529,1221174,0.0-19.0-0.0-0.37,A7GT7BIC7ERWE,3SA4EMRVKYI00KKCICLEW0FTGRS0PA,37W3JXSD6AOQ37BSS8FK56DWFD8WYX,7,8
38,1,object_04,object_06,288.09999999404,1,1,614.20000000298,0.8888888888888888,1,object_09,5,300,0,8,3,desert_4,2,memory-2step-stake-s,530,1229851,0.0-19.0-0.0-0.38,A7GT7BIC7ERWE,3SA4EMRVKYI00KKCICLEW0FTGRS0PA,37W3JXSD6AOQ37BSS8FK56DWFD8WYX,1,2
39,3,object_02,object_10,350.5,5,1,529.0,0.8888888888888888,1,object_09,1,308,0,8,2,library_7,2,memory-2step-stake-s,531,1238415,0.0-19.0-0.0-0.39,A7GT7BIC7ERWE,3SA4EMRVKYI00KKCICLEW0FTGRS0PA,37W3JXSD6AOQ37BSS8FK56DWFD8WYX,5,6
40,2,object_01,object_07,479.70000000298,3,1,493.19999998808,1.0,1,object_09,5,353,0,9,3,forest_5,2,memory-2step-stake-s,532,1247130,0.0-19.0-0.0-0.40,A7GT7BIC7ERWE,3SA4EMRVKYI00KKCICLEW0FTGRS0PA,37W3JXSD6AOQ37BSS8FK56DWFD8WYX,3,4
41,1,object_04,object_06,519.60000000894,2,2,775.5,0.2222222222222222,2,object_08,1,355,0,9,2,desert_3,2,memory-2step-stake-s,533,1255460,0.0-19.0-0.0-0.41,A7GT7BIC7ERWE,3SA4EMRVKYI00KKCICLEW0FTGRS0PA,37W3JXSD6AOQ37BSS8FK56DWFD8WYX,1,2
42,2,object_01,object_07,392.70000000298,3,1,617.19999998808,0.5555555555555556,1,object_09,5,380,0,5,2,forest_4,2,memory-2step-stake-s,534,1263835,0.0-19.0-0.0-0.42,A7GT7BIC7ERWE,3SA4EMRVKYI00KKCICLEW0FTGRS0PA,37W3JXSD6AOQ37BSS8FK56DWFD8WYX,3,4
43,3,object_02,object_10,378.19999998808,5,1,663.90000000596,0.6666666666666666,1,object_09,1,386,0,6,3,library_3,2,memory-2step-stake-s,535,1272464,0.0-19.0-0.0-0.43,A7GT7BIC7ERWE,3SA4EMRVKYI00KKCICLEW0FTGRS0PA,37W3JXSD6AOQ37BSS8FK56DWFD8WYX,5,6
44,2,object_01,object_07,534.59999999404,4,2,1014.0,0.2222222222222222,2,object_08,5,396,0,6,2,forest_5,2,memory-2step-stake-s,536,1281012,0.0-19.0-0.0-0.44,A7GT7BIC7ERWE,3SA4EMRVKYI00KKCICLEW0FTGRS0PA,37W3JXSD6AOQ37BSS8FK56DWFD8WYX,3,4
45,4,object_03,object_05,300.60000000894,8,1,400.19999998808,0.2222222222222222,2,object_08,5,406,0,8,2,restaurant_6,2,memory-2step-stake-s,537,1289011,0.0-19.0-0.0-0.45,A7GT7BIC7ERWE,3SA4EMRVKYI00KKCICLEW0FTGRS0PA,37W3JXSD6AOQ37BSS8FK56DWFD8WYX,8,7
46,3,object_10,object_02,309.90000000596,6,1,457.0,0.6666666666666666,2,object_08,1,412,0,6,6,library_5,2,memory-2step-stake-s,538,1297372,0.0-19.0-0.0-0.46,A7GT7BIC7ERWE,3SA4EMRVKYI00KKCICLEW0FTGRS0PA,37W3JXSD6AOQ37BSS8FK56DWFD8WYX,6,5
47,2,object_07,object_01,446.69999998808,4,1,1114.299999997,0.5555555555555556,2,object_08,5,437,0,2,5,forest_1,2,memory-2step-stake-s,539,1306271,0.0-19.0-0.0-0.47,A7GT7BIC7ERWE,3SA4EMRVKYI00KKCICLEW0FTGRS0PA,37W3JXSD6AOQ37BSS8FK56DWFD8WYX,4,3
48,2,object_01,object_07,307.89999999106,3,1,379.10000000894,0.4444444444444444,1,object_09,1,441,0,4,5,forest_4,2,memory-2step-stake-s,540,1314432,0.0-19.0-0.0-0.48,A7GT7BIC7ERWE,3SA4EMRVKYI00KKCICLEW0FTGRS0PA,37W3JXSD6AOQ37BSS8FK56DWFD8WYX,3,4
49,4,object_05,object_03,395.80000001192,7,1,1477.6000000089,0.4444444444444444,1,object_09,1,445,0,4,4,restaurant_3,2,memory-2step-stake-s,541,1323579,0.0-19.0-0.0-0.49,A7GT7BIC7ERWE,3SA4EMRVKYI00KKCICLEW0FTGRS0PA,37W3JXSD6AOQ37BSS8FK56DWFD8WYX,7,8
50,1,object_06,object_04,557.0,2,1,433.40000000596,0.5555555555555556,2,object_08,5,470,0,5,5,desert_2,2,memory-2step-stake-s,542,1331876,0.0-19.0-0.0-0.50,A7GT7BIC7ERWE,3SA4EMRVKYI00KKCICLEW0FTGRS0PA,37W3JXSD6AOQ37BSS8FK56DWFD8WYX,2,1
51,2,object_01,object_07,351.0,4,2,622.40000000596,0.5555555555555556,2,object_08,5,495,0,4,5,forest_1,2,memory-2step-stake-s,543,1340253,0.0-19.0-0.0-0.51,A7GT7BIC7ERWE,3SA4EMRVKYI00KKCICLEW0FTGRS0PA,37W3JXSD6AOQ37BSS8FK56DWFD8WYX,3,4
52,1,object_04,object_06,512.29999999702,1,1,462.79999999702,0.5555555555555556,1,object_09,5,520,0,5,7,desert_4,2,memory-2step-stake-s,544,1348524,0.0-19.0-0.0-0.52,A7GT7BIC7ERWE,3SA4EMRVKYI00KKCICLEW0FTGRS0PA,37W3JXSD6AOQ37BSS8FK56DWFD8WYX,1,2
53,4,object_03,object_05,612.79999999702,8,1,597.70000000298,0.6666666666666666,2,object_08,1,526,0,5,6,restaurant_6,2,memory-2step-stake-s,545,1356973,0.0-19.0-0.0-0.53,A7GT7BIC7ERWE,3SA4EMRVKYI00KKCICLEW0FTGRS0PA,37W3JXSD6AOQ37BSS8FK56DWFD8WYX,8,7
54,2,object_07,object_01,441.30000001192,4,1,-1.0,0.0,2,object_08,5,526,0,7,6,forest_7,2,memory-2step-stake-s,546,1365502,0.0-19.0-0.0-0.54,A7GT7BIC7ERWE,3SA4EMRVKYI00KKCICLEW0FTGRS0PA,37W3JXSD6AOQ37BSS8FK56DWFD8WYX,4,3
55,2,object_07,object_01,423.5,4,1,322.5,0.4444444444444444,2,object_08,5,546,0,7,4,forest_1,2,memory-2step-stake-s,547,1373481,0.0-19.0-0.0-0.55,A7GT7BIC7ERWE,3SA4EMRVKYI00KKCICLEW0FTGRS0PA,37W3JXSD6AOQ37BSS8FK56DWFD8WYX,4,3
56,4,object_03,object_05,275.5,7,2,293.59999999404,1.0,1,object_09,1,555,0,9,1,restaurant_1,2,memory-2step-stake-s,548,1381979,0.0-19.0-0.0-0.56,A7GT7BIC7ERWE,3SA4EMRVKYI00KKCICLEW0FTGRS0PA,37W3JXSD6AOQ37BSS8FK56DWFD8WYX,8,7
57,2,object_01,object_07,273.0,3,1,523.0,0.8888888888888888,1,object_09,5,595,0,8,1,forest_1,2,memory-2step-stake-s,549,1390799,0.0-19.0-0.0-0.57,A7GT7BIC7ERWE,3SA4EMRVKYI00KKCICLEW0FTGRS0PA,37W3JXSD6AOQ37BSS8FK56DWFD8WYX,3,4
58,3,object_10,object_02,292.80000001192,6,1,481.60000000894,0.0,2,object_08,1,595,0,6,0,library_8,2,memory-2step-stake-s,550,1398552,0.0-19.0-0.0-0.58,A7GT7BIC7ERWE,3SA4EMRVKYI00KKCICLEW0FTGRS0PA,37W3JXSD6AOQ37BSS8FK56DWFD8WYX,6,5
59,4,object_05,object_03,627.29999999702,7,1,348.39999999106,1.0,1,object_09,1,604,0,9,1,restaurant_3,2,memory-2step-stake-s,551,1407156,0.0-19.0-0.0-0.59,A7GT7BIC7ERWE,3SA4EMRVKYI00KKCICLEW0FTGRS0PA,37W3JXSD6AOQ37BSS8FK56DWFD8WYX,7,8
60,1,object_04,object_06,326.29999999702,2,2,416.5,0.2222222222222222,2,object_08,5,614,0,8,2,desert_5,2,memory-2step-stake-s,552,1415065,0.0-19.0-0.0-0.60,A7GT7BIC7ERWE,3SA4EMRVKYI00KKCICLEW0FTGRS0PA,37W3JXSD6AOQ37BSS8FK56DWFD8WYX,1,2
61,3,object_10,object_02,342.90000000596,5,2,343.10000000894,1.0,1,object_09,1,623,0,9,1,library_7,2,memory-2step-stake-s,553,1423739,0.0-19.0-0.0-0.61,A7GT7BIC7ERWE,3SA4EMRVKYI00KKCICLEW0FTGRS0PA,37W3JXSD6AOQ37BSS8FK56DWFD8WYX,6,5
62,4,object_03,object_05,367.69999998808,8,1,362.0,0.3333333333333333,2,object_08,5,638,0,9,3,restaurant_6,2,memory-2step-stake-s,554,1431667,0.0-19.0-0.0-0.62,A7GT7BIC7ERWE,3SA4EMRVKYI00KKCICLEW0FTGRS0PA,37W3JXSD6AOQ37BSS8FK56DWFD8WYX,8,7
63,1,object_06,object_04,357.60000000894,2,1,1019.299999997,0.6666666666666666,2,object_08,5,668,0,6,6,desert_4,2,memory-2step-stake-s,555,1440543,0.0-19.0-0.0-0.63,A7GT7BIC7ERWE,3SA4EMRVKYI00KKCICLEW0FTGRS0PA,37W3JXSD6AOQ37BSS8FK56DWFD8WYX,2,1
64,3,object_02,object_10,294.29999999702,6,2,410.0,0.5555555555555556,2,object_08,5,693,0,2,5,library_3,2,memory-2step-stake-s,556,1448780,0.0-19.0-0.0-0.64,A7GT7BIC7ERWE,3SA4EMRVKYI00KKCICLEW0FTGRS0PA,37W3JXSD6AOQ37BSS8FK56DWFD8WYX,5,6
65,3,object_10,object_02,329.10000000894,6,1,419.59999999404,0.7777777777777778,2,object_08,5,728,0,3,7,library_3,2,memory-2step-stake-s,557,1457131,0.0-19.0-0.0-0.65,A7GT7BIC7ERWE,3SA4EMRVKYI00KKCICLEW0FTGRS0PA,37W3JXSD6AOQ37BSS8FK56DWFD8WYX,6,5
66,4,object_05,object_03,402.90000000596,7,1,377.39999999106,0.4444444444444444,1,object_09,1,732,0,4,9,restaurant_4,2,memory-2step-stake-s,558,1465149,0.0-19.0-0.0-0.66,A7GT7BIC7ERWE,3SA4EMRVKYI00KKCICLEW0FTGRS0PA,37W3JXSD6AOQ37BSS8FK56DWFD8WYX,7,8
67,2,object_07,object_01,439.59999999404,3,2,507.5,0.2222222222222222,1,object_09,5,742,0,2,9,forest_5,2,memory-2step-stake-s,559,1473091,0.0-19.0-0.0-0.67,A7GT7BIC7ERWE,3SA4EMRVKYI00KKCICLEW0FTGRS0PA,37W3JXSD6AOQ37BSS8FK56DWFD8WYX,4,3
68,1,object_04,object_06,296.40000000596,2,2,327.29999999702,1.0,2,object_08,5,787,0,1,9,desert_4,2,memory-2step-stake-s,560,1481559,0.0-19.0-0.0-0.68,A7GT7BIC7ERWE,3SA4EMRVKYI00KKCICLEW0FTGRS0PA,37W3JXSD6AOQ37BSS8FK56DWFD8WYX,1,2
69,2,object_01,object_07,296.20000000298,3,1,310.0,0.1111111111111111,1,object_09,1,788,0,1,7,forest_7,2,memory-2step-stake-s,561,1489201,0.0-19.0-0.0-0.69,A7GT7BIC7ERWE,3SA4EMRVKYI00KKCICLEW0FTGRS0PA,37W3JXSD6AOQ37BSS8FK56DWFD8WYX,3,4
70,1,object_04,object_06,507.0,1,1,553.30000001192,0.0,1,object_09,5,788,0,0,7,desert_4,2,memory-2step-stake-s,562,1497043,0.0-19.0-0.0-0.70,A7GT7BIC7ERWE,3SA4EMRVKYI00KKCICLEW0FTGRS0PA,37W3JXSD6AOQ37BSS8FK56DWFD8WYX,1,2
71,4,object_03,object_05,305.29999999702,8,1,426.90000000596,0.6666666666666666,2,object_08,1,794,0,6,6,restaurant_4,2,memory-2step-stake-s,563,1505326,0.0-19.0-0.0-0.71,A7GT7BIC7ERWE,3SA4EMRVKYI00KKCICLEW0FTGRS0PA,37W3JXSD6AOQ37BSS8FK56DWFD8WYX,8,7
72,4,object_03,object_05,459.90000000596,7,2,855.39999999106,0.5555555555555556,1,object_09,1,799,0,5,3,restaurant_4,2,memory-2step-stake-s,564,1514020,0.0-19.0-0.0-0.72,A7GT7BIC7ERWE,3SA4EMRVKYI00KKCICLEW0FTGRS0PA,37W3JXSD6AOQ37BSS8FK56DWFD8WYX,8,7
73,3,object_02,object_10,525.70000000298,6,2,416.29999999702,0.4444444444444444,2,object_08,1,803,0,2,4,library_5,2,memory-2step-stake-s,565,1522169,0.0-19.0-0.0-0.73,A7GT7BIC7ERWE,3SA4EMRVKYI00KKCICLEW0FTGRS0PA,37W3JXSD6AOQ37BSS8FK56DWFD8WYX,5,6
74,3,object_10,object_02,526.19999998808,6,1,755.79999999702,0.6666666666666666,2,object_08,1,809,0,2,6,library_8,2,memory-2step-stake-s,566,1530799,0.0-19.0-0.0-0.74,A7GT7BIC7ERWE,3SA4EMRVKYI00KKCICLEW0FTGRS0PA,37W3JXSD6AOQ37BSS8FK56DWFD8WYX,6,5
75,4,object_05,object_03,399.70000000298,7,1,417.10000000894,0.5555555555555556,1,object_09,1,814,0,5,9,restaurant_1,2,memory-2step-stake-s,567,1538990,0.0-19.0-0.0-0.75,A7GT7BIC7ERWE,3SA4EMRVKYI00KKCICLEW0FTGRS0PA,37W3JXSD6AOQ37BSS8FK56DWFD8WYX,7,8
76,1,object_06,object_04,309.20000000298,1,2,317.69999998808,0.0,1,object_09,5,814,0,0,8,desert_4,2,memory-2step-stake-s,568,1546583,0.0-19.0-0.0-0.76,A7GT7BIC7ERWE,3SA4EMRVKYI00KKCICLEW0FTGRS0PA,37W3JXSD6AOQ37BSS8FK56DWFD8WYX,2,1
77,2,object_07,object_01,321.79999999702,3,2,441.20000000298,0.4444444444444444,1,object_09,1,818,0,4,8,forest_1,2,memory-2step-stake-s,569,1554708,0.0-19.0-0.0-0.77,A7GT7BIC7ERWE,3SA4EMRVKYI00KKCICLEW0FTGRS0PA,37W3JXSD6AOQ37BSS8FK56DWFD8WYX,4,3
78,1,object_06,object_04,381.0,2,1,1058.6000000089,0.7777777777777778,2,object_08,1,825,0,3,7,desert_4,2,memory-2step-stake-s,570,1563811,0.0-19.0-0.0-0.78,A7GT7BIC7ERWE,3SA4EMRVKYI00KKCICLEW0FTGRS0PA,37W3JXSD6AOQ37BSS8FK56DWFD8WYX,2,1
79,1,object_06,object_04,334.60000000894,2,1,411.70000000298,0.8888888888888888,2,object_08,5,865,0,3,8,desert_3,2,memory-2step-stake-s,571,1572364,0.0-19.0-0.0-0.79,A7GT7BIC7ERWE,3SA4EMRVKYI00KKCICLEW0FTGRS0PA,37W3JXSD6AOQ37BSS8FK56DWFD8WYX,2,1
80,4,object_05,object_03,356.5,7,1,453.09999999404,0.2222222222222222,1,object_09,5,875,0,2,8,restaurant_6,2,memory-2step-stake-s,572,1580278,0.0-19.0-0.0-0.80,A7GT7BIC7ERWE,3SA4EMRVKYI00KKCICLEW0FTGRS0PA,37W3JXSD6AOQ37BSS8FK56DWFD8WYX,7,8
81,2,object_01,object_07,382.0,3,1,427.39999999106,0.2222222222222222,1,object_09,5,885,0,2,7,forest_7,2,memory-2step-stake-s,573,1588246,0.0-19.0-0.0-0.81,A7GT7BIC7ERWE,3SA4EMRVKYI00KKCICLEW0FTGRS0PA,37W3JXSD6AOQ37BSS8FK56DWFD8WYX,3,4
82,2,object_01,object_07,569.09999999404,4,2,320.79999999702,0.7777777777777778,2,object_08,5,920,0,0,7,forest_5,2,memory-2step-stake-s,574,1596548,0.0-19.0-0.0-0.82,A7GT7BIC7ERWE,3SA4EMRVKYI00KKCICLEW0FTGRS0PA,37W3JXSD6AOQ37BSS8FK56DWFD8WYX,3,4
83,3,object_02,object_10,471.20000000298,5,1,439.79999999702,0.0,1,object_09,1,920,0,0,8,library_7,2,memory-2step-stake-s,575,1604264,0.0-19.0-0.0-0.83,A7GT7BIC7ERWE,3SA4EMRVKYI00KKCICLEW0FTGRS0PA,37W3JXSD6AOQ37BSS8FK56DWFD8WYX,5,6
84,4,object_05,object_03,226.89999999106,7,1,341.20000000298,0.1111111111111111,1,object_09,1,921,0,1,7,restaurant_4,2,memory-2step-stake-s,576,1611939,0.0-19.0-0.0-0.84,A7GT7BIC7ERWE,3SA4EMRVKYI00KKCICLEW0FTGRS0PA,37W3JXSD6AOQ37BSS8FK56DWFD8WYX,7,8
85,4,object_05,object_03,318.10000000894,8,2,396.40000000596,0.6666666666666666,2,object_08,1,927,0,1,6,restaurant_3,2,memory-2step-stake-s,577,1620285,0.0-19.0-0.0-0.85,A7GT7BIC7ERWE,3SA4EMRVKYI00KKCICLEW0FTGRS0PA,37W3JXSD6AOQ37BSS8FK56DWFD8WYX,7,8
86,4,object_05,object_03,468.59999999404,8,2,418.29999999702,0.6666666666666666,2,object_08,1,933,0,3,6,restaurant_6,2,memory-2step-stake-s,578,1628551,0.0-19.0-0.0-0.86,A7GT7BIC7ERWE,3SA4EMRVKYI00KKCICLEW0FTGRS0PA,37W3JXSD6AOQ37BSS8FK56DWFD8WYX,7,8
87,4,object_03,object_05,272.5,8,1,449.10000000894,0.5555555555555556,2,object_08,1,938,0,2,5,restaurant_4,2,memory-2step-stake-s,579,1636804,0.0-19.0-0.0-0.87,A7GT7BIC7ERWE,3SA4EMRVKYI00KKCICLEW0FTGRS0PA,37W3JXSD6AOQ37BSS8FK56DWFD8WYX,8,7
88,4,object_05,object_03,955.29999999702,8,2,749.5,0.4444444444444444,2,object_08,1,942,0,1,4,restaurant_6,2,memory-2step-stake-s,580,1645248,0.0-19.0-0.0-0.88,A7GT7BIC7ERWE,3SA4EMRVKYI00KKCICLEW0FTGRS0PA,37W3JXSD6AOQ37BSS8FK56DWFD8WYX,7,8
89,4,object_05,object_03,396.90000000596,7,1,547.70000000298,0.3333333333333333,1,object_09,1,945,0,3,7,restaurant_1,2,memory-2step-stake-s,581,1653361,0.0-19.0-0.0-0.89,A7GT7BIC7ERWE,3SA4EMRVKYI00KKCICLEW0FTGRS0PA,37W3JXSD6AOQ37BSS8FK56DWFD8WYX,7,8
90,2,object_01,object_07,517.10000000894,4,2,591.29999999702,0.6666666666666666,2,object_08,5,975,0,3,6,forest_1,2,memory-2step-stake-s,582,1661917,0.0-19.0-0.0-0.90,A7GT7BIC7ERWE,3SA4EMRVKYI00KKCICLEW0FTGRS0PA,37W3JXSD6AOQ37BSS8FK56DWFD8WYX,3,4
91,4,object_03,object_05,370.09999999404,8,1,341.69999998808,0.5555555555555556,2,object_08,1,980,0,2,5,restaurant_6,2,memory-2step-stake-s,583,1670011,0.0-19.0-0.0-0.91,A7GT7BIC7ERWE,3SA4EMRVKYI00KKCICLEW0FTGRS0PA,37W3JXSD6AOQ37BSS8FK56DWFD8WYX,8,7
92,1,object_06,object_04,327.5,1,2,359.79999999702,0.3333333333333333,1,object_09,5,995,0,3,4,desert_2,2,memory-2step-stake-s,584,1677921,0.0-19.0-0.0-0.92,A7GT7BIC7ERWE,3SA4EMRVKYI00KKCICLEW0FTGRS0PA,37W3JXSD6AOQ37BSS8FK56DWFD8WYX,2,1
93,2,object_01,object_07,341.0,3,1,314.40000000596,0.1111111111111111,1,object_09,5,1000,0,1,3,forest_7,2,memory-2step-stake-s,585,1685580,0.0-19.0-0.0-0.93,A7GT7BIC7ERWE,3SA4EMRVKYI00KKCICLEW0FTGRS0PA,37W3JXSD6AOQ37BSS8FK56DWFD8WYX,3,4
94,1,object_06,object_04,580.79999999702,2,1,597.79999999702,0.2222222222222222,2,object_08,5,1010,0,4,2,desert_4,2,memory-2step-stake-s,586,1693617,0.0-19.0-0.0-0.94,A7GT7BIC7ERWE,3SA4EMRVKYI00KKCICLEW0FTGRS0PA,37W3JXSD6AOQ37BSS8FK56DWFD8WYX,2,1
95,4,object_03,object_05,393.79999999702,7,2,361.70000000298,0.3333333333333333,1,object_09,1,1013,0,3,2,restaurant_6,2,memory-2step-stake-s,587,1701591,0.0-19.0-0.0-0.95,A7GT7BIC7ERWE,3SA4EMRVKYI00KKCICLEW0FTGRS0PA,37W3JXSD6AOQ37BSS8FK56DWFD8WYX,8,7
96,4,object_05,object_03,593.90000000596,7,1,514.5,0.2222222222222222,1,object_09,5,1023,0,2,4,restaurant_4,2,memory-2step-stake-s,588,1709566,0.0-19.0-0.0-0.96,A7GT7BIC7ERWE,3SA4EMRVKYI00KKCICLEW0FTGRS0PA,37W3JXSD6AOQ37BSS8FK56DWFD8WYX,7,8
97,4,object_05,object_03,653.29999999702,7,1,440.20000000298,0.4444444444444444,1,object_09,1,1027,0,4,3,restaurant_1,2,memory-2step-stake-s,589,1717711,0.0-19.0-0.0-0.97,A7GT7BIC7ERWE,3SA4EMRVKYI00KKCICLEW0FTGRS0PA,37W3JXSD6AOQ37BSS8FK56DWFD8WYX,7,8
98,1,object_06,object_04,419.10000000894,2,1,421.5,0.5555555555555556,2,object_08,5,1052,0,6,5,desert_5,2,memory-2step-stake-s,590,1725883,0.0-19.0-0.0-0.98,A7GT7BIC7ERWE,3SA4EMRVKYI00KKCICLEW0FTGRS0PA,37W3JXSD6AOQ37BSS8FK56DWFD8WYX,2,1
99,4,object_03,object_05,578.5,7,2,384.09999999404,0.7777777777777778,1,object_09,1,1059,0,7,9,restaurant_3,2,memory-2step-stake-s,591,1734285,0.0-19.0-0.0-0.99,A7GT7BIC7ERWE,3SA4EMRVKYI00KKCICLEW0FTGRS0PA,37W3JXSD6AOQ37BSS8FK56DWFD8WYX,8,7
100,2,object_07,object_01,926.59999999404,4,1,446.0,0.8888888888888888,2,object_08,5,1099,0,7,8,forest_5,2,memory-2step-stake-s,592,1742811,0.0-19.0-0.0-0.100,A7GT7BIC7ERWE,3SA4EMRVKYI00KKCICLEW0FTGRS0PA,37W3JXSD6AOQ37BSS8FK56DWFD8WYX,4,3
101,3,object_10,object_02,408.90000000596,6,1,524.90000000596,1.0,2,object_08,1,1108,0,8,9,library_7,2,memory-2step-stake-s,593,1751522,0.0-19.0-0.0-0.101,A7GT7BIC7ERWE,3SA4EMRVKYI00KKCICLEW0FTGRS0PA,37W3JXSD6AOQ37BSS8FK56DWFD8WYX,6,5
102,1,object_04,object_06,347.39999999106,1,1,430.79999999702,0.7777777777777778,1,object_09,5,1143,0,7,7,desert_5,2,memory-2step-stake-s,594,1759962,0.0-19.0-0.0-0.102,A7GT7BIC7ERWE,3SA4EMRVKYI00KKCICLEW0FTGRS0PA,37W3JXSD6AOQ37BSS8FK56DWFD8WYX,1,2
103,2,object_01,object_07,395.59999999404,3,1,440.80000001192,0.7777777777777778,1,object_09,1,1150,0,7,7,forest_5,2,memory-2step-stake-s,595,1768509,0.0-19.0-0.0-0.103,A7GT7BIC7ERWE,3SA4EMRVKYI00KKCICLEW0FTGRS0PA,37W3JXSD6AOQ37BSS8FK56DWFD8WYX,3,4
104,2,object_07,object_01,1117.8999999911,4,1,507.20000000298,0.6666666666666666,2,object_08,5,1180,0,9,6,forest_1,2,memory-2step-stake-s,596,1776852,0.0-19.0-0.0-0.104,A7GT7BIC7ERWE,3SA4EMRVKYI00KKCICLEW0FTGRS0PA,37W3JXSD6AOQ37BSS8FK56DWFD8WYX,4,3
105,3,object_02,object_10,384.40000000596,5,1,343.40000000596,1.0,1,object_09,1,1189,0,9,8,library_5,2,memory-2step-stake-s,597,1785445,0.0-19.0-0.0-0.105,A7GT7BIC7ERWE,3SA4EMRVKYI00KKCICLEW0FTGRS0PA,37W3JXSD6AOQ37BSS8FK56DWFD8WYX,5,6
106,2,object_01,object_07,346.29999999702,3,1,420.79999999702,0.8888888888888888,1,object_09,5,1229,0,8,4,forest_1,2,memory-2step-stake-s,598,1794062,0.0-19.0-0.0-0.106,A7GT7BIC7ERWE,3SA4EMRVKYI00KKCICLEW0FTGRS0PA,37W3JXSD6AOQ37BSS8FK56DWFD8WYX,3,4
107,3,object_10,object_02,376.70000000298,6,1,438.5,0.7777777777777778,2,object_08,5,1264,0,7,7,library_8,2,memory-2step-stake-s,599,1802449,0.0-19.0-0.0-0.107,A7GT7BIC7ERWE,3SA4EMRVKYI00KKCICLEW0FTGRS0PA,37W3JXSD6AOQ37BSS8FK56DWFD8WYX,6,5
108,3,object_10,object_02,413.0,5,2,325.30000001192,0.5555555555555556,1,object_09,1,1269,0,5,3,library_3,2,memory-2step-stake-s,600,1810654,0.0-19.0-0.0-0.108,A7GT7BIC7ERWE,3SA4EMRVKYI00KKCICLEW0FTGRS0PA,37W3JXSD6AOQ37BSS8FK56DWFD8WYX,6,5
109,1,object_06,object_04,398.39999999106,1,2,365.60000000894,0.7777777777777778,1,object_09,5,1304,0,7,5,desert_2,2,memory-2step-stake-s,601,1819038,0.0-19.0-0.0-0.109,A7GT7BIC7ERWE,3SA4EMRVKYI00KKCICLEW0FTGRS0PA,37W3JXSD6AOQ37BSS8FK56DWFD8WYX,2,1
110,3,object_02,object_10,711.89999999106,5,1,901.89999999106,0.7777777777777778,1,object_09,1,1311,0,7,2,library_8,2,memory-2step-stake-s,602,1827934,0.0-19.0-0.0-0.110,A7GT7BIC7ERWE,3SA4EMRVKYI00KKCICLEW0FTGRS0PA,37W3JXSD6AOQ37BSS8FK56DWFD8WYX,5,6
111,4,object_03,object_05,313.20000000298,8,1,428.5,0.1111111111111111,2,object_08,1,1312,0,9,1,restaurant_1,2,memory-2step-stake-s,603,1835740,0.0-19.0-0.0-0.111,A7GT7BIC7ERWE,3SA4EMRVKYI00KKCICLEW0FTGRS0PA,37W3JXSD6AOQ37BSS8FK56DWFD8WYX,8,7
112,4,object_05,object_03,316.30000001192,7,1,338.5,1.0,1,object_09,5,1357,0,9,1,restaurant_3,2,memory-2step-stake-s,604,1844260,0.0-19.0-0.0-0.112,A7GT7BIC7ERWE,3SA4EMRVKYI00KKCICLEW0FTGRS0PA,37W3JXSD6AOQ37BSS8FK56DWFD8WYX,7,8
113,1,object_04,object_06,512.5,1,1,481.20000000298,0.8888888888888888,1,object_09,5,1397,0,8,7,desert_2,2,memory-2step-stake-s,605,1853010,0.0-19.0-0.0-0.113,A7GT7BIC7ERWE,3SA4EMRVKYI00KKCICLEW0FTGRS0PA,37W3JXSD6AOQ37BSS8FK56DWFD8WYX,1,2
114,4,object_03,object_05,378.5,7,2,404.5,0.8888888888888888,1,object_09,5,1437,0,8,6,restaurant_1,2,memory-2step-stake-s,606,1861502,0.0-19.0-0.0-0.114,A7GT7BIC7ERWE,3SA4EMRVKYI00KKCICLEW0FTGRS0PA,37W3JXSD6AOQ37BSS8FK56DWFD8WYX,8,7
115,2,object_01,object_07,598.5,3,1,800.19999998808,0.7777777777777778,1,object_09,5,1472,0,7,6,forest_4,2,memory-2step-stake-s,607,1870239,0.0-19.0-0.0-0.115,A7GT7BIC7ERWE,3SA4EMRVKYI00KKCICLEW0FTGRS0PA,37W3JXSD6AOQ37BSS8FK56DWFD8WYX,3,4
116,4,object_05,object_03,449.19999998808,7,1,518.40000000596,0.7777777777777778,1,object_09,1,1479,0,7,9,restaurant_6,2,memory-2step-stake-s,608,1878707,0.0-19.0-0.0-0.116,A7GT7BIC7ERWE,3SA4EMRVKYI00KKCICLEW0FTGRS0PA,37W3JXSD6AOQ37BSS8FK56DWFD8WYX,7,8
117,1,object_04,object_06,356.90000000596,1,1,345.20000000298,0.8888888888888888,1,object_09,5,1519,0,8,8,desert_5,2,memory-2step-stake-s,609,1887166,0.0-19.0-0.0-0.117,A7GT7BIC7ERWE,3SA4EMRVKYI00KKCICLEW0FTGRS0PA,37W3JXSD6AOQ37BSS8FK56DWFD8WYX,1,2
118,2,object_07,object_01,428.79999999702,4,1,474.80000001192,0.7777777777777778,2,object_08,5,1554,0,9,7,forest_1,2,memory-2step-stake-s,610,1895731,0.0-19.0-0.0-0.118,A7GT7BIC7ERWE,3SA4EMRVKYI00KKCICLEW0FTGRS0PA,37W3JXSD6AOQ37BSS8FK56DWFD8WYX,4,3
119,2,object_07,object_01,847.89999999106,4,1,380.20000000298,0.6666666666666666,2,object_08,5,1584,0,9,6,forest_4,2,memory-2step-stake-s,611,1904062,0.0-19.0-0.0-0.119,A7GT7BIC7ERWE,3SA4EMRVKYI00KKCICLEW0FTGRS0PA,37W3JXSD6AOQ37BSS8FK56DWFD8WYX,4,3
120,3,object_10,object_02,426.70000000298,5,2,336.40000000596,0.8888888888888888,1,object_09,1,1592,0,8,6,library_8,2,memory-2step-stake-s,612,1912498,0.0-19.0-0.0-0.120,A7GT7BIC7ERWE,3SA4EMRVKYI00KKCICLEW0FTGRS0PA,37W3JXSD6AOQ37BSS8FK56DWFD8WYX,6,5
121,4,object_05,object_03,328.19999998808,8,2,370.0,0.6666666666666666,2,object_08,5,1622,0,8,6,restaurant_1,2,memory-2step-stake-s,613,1920865,0.0-19.0-0.0-0.121,A7GT7BIC7ERWE,3SA4EMRVKYI00KKCICLEW0FTGRS0PA,37W3JXSD6AOQ37BSS8FK56DWFD8WYX,7,8
122,4,object_05,object_03,963.0,8,2,-1.0,0.0,2,object_08,1,1622,0,6,6,restaurant_6,2,memory-2step-stake-s,614,1929389,0.0-19.0-0.0-0.122,A7GT7BIC7ERWE,3SA4EMRVKYI00KKCICLEW0FTGRS0PA,37W3JXSD6AOQ37BSS8FK56DWFD8WYX,7,8
123,2,object_07,object_01,854.40000000596,3,2,225.09999999404,0.4444444444444444,1,object_09,5,1642,0,4,8,forest_4,2,memory-2step-stake-s,615,1937481,0.0-19.0-0.0-0.123,A7GT7BIC7ERWE,3SA4EMRVKYI00KKCICLEW0FTGRS0PA,37W3JXSD6AOQ37BSS8FK56DWFD8WYX,4,3
124,4,object_03,object_05,1240.400000006,8,1,1448.8999999911,0.8888888888888888,2,object_08,5,1682,0,4,8,restaurant_1,2,memory-2step-stake-s,616,1946994,0.0-19.0-0.0-0.124,A7GT7BIC7ERWE,3SA4EMRVKYI00KKCICLEW0FTGRS0PA,37W3JXSD6AOQ37BSS8FK56DWFD8WYX,8,7
125,4,object_05,object_03,304.70000000298,7,1,616.20000000298,0.6666666666666666,1,object_09,1,1688,0,6,8,restaurant_4,2,memory-2step-stake-s,617,1955460,0.0-19.0-0.0-0.125,A7GT7BIC7ERWE,3SA4EMRVKYI00KKCICLEW0FTGRS0PA,37W3JXSD6AOQ37BSS8FK56DWFD8WYX,7,8
126,3,object_10,object_02,739.5,5,2,464.30000001192,0.3333333333333333,1,object_09,1,1691,0,3,8,library_8,2,memory-2step-stake-s,618,1963458,0.0-19.0-0.0-0.126,A7GT7BIC7ERWE,3SA4EMRVKYI00KKCICLEW0FTGRS0PA,37W3JXSD6AOQ37BSS8FK56DWFD8WYX,6,5
127,3,object_10,object_02,489.69999998808,6,1,385.59999999404,0.4444444444444444,2,object_08,5,1711,0,3,4,library_5,2,memory-2step-stake-s,619,1971478,0.0-19.0-0.0-0.127,A7GT7BIC7ERWE,3SA4EMRVKYI00KKCICLEW0FTGRS0PA,37W3JXSD6AOQ37BSS8FK56DWFD8WYX,6,5
128,3,object_02,object_10,481.5,6,2,383.79999999702,0.6666666666666666,2,object_08,1,1717,0,6,6,library_7,2,memory-2step-stake-s,621,2202076,0.0-19.0-0.1-0.128,A7GT7BIC7ERWE,3SA4EMRVKYI00KKCICLEW0FTGRS0PA,37W3JXSD6AOQ37BSS8FK56DWFD8WYX,5,6
129,3,object_02,object_10,376.20000000298,5,1,440.40000000596,0.4444444444444444,1,object_09,1,1721,0,4,6,library_3,2,memory-2step-stake-s,622,2210247,0.0-19.0-0.1-0.129,A7GT7BIC7ERWE,3SA4EMRVKYI00KKCICLEW0FTGRS0PA,37W3JXSD6AOQ37BSS8FK56DWFD8WYX,5,6
130,2,object_07,object_01,564.40000000596,4,1,483.20000000298,0.8888888888888888,2,object_08,5,1761,0,3,8,forest_4,2,memory-2step-stake-s,623,2218836,0.0-19.0-0.1-0.130,A7GT7BIC7ERWE,3SA4EMRVKYI00KKCICLEW0FTGRS0PA,37W3JXSD6AOQ37BSS8FK56DWFD8WYX,4,3
131,1,object_06,object_04,571.70000000298,2,1,522.20000000298,0.3333333333333333,2,object_08,5,1776,0,2,3,desert_3,2,memory-2step-stake-s,624,2226910,0.0-19.0-0.1-0.131,A7GT7BIC7ERWE,3SA4EMRVKYI00KKCICLEW0FTGRS0PA,37W3JXSD6AOQ37BSS8FK56DWFD8WYX,2,1
132,1,object_04,object_06,1026.700000003,1,1,462.19999998808,0.0,1,object_09,1,1776,0,0,1,desert_3,2,memory-2step-stake-s,625,2234605,0.0-19.0-0.1-0.132,A7GT7BIC7ERWE,3SA4EMRVKYI00KKCICLEW0FTGRS0PA,37W3JXSD6AOQ37BSS8FK56DWFD8WYX,1,2
133,2,object_01,object_07,1333.799999997,3,1,1314.1000000089,0.2222222222222222,1,object_09,5,1786,0,2,1,forest_7,2,memory-2step-stake-s,626,2243523,0.0-19.0-0.1-0.133,A7GT7BIC7ERWE,3SA4EMRVKYI00KKCICLEW0FTGRS0PA,37W3JXSD6AOQ37BSS8FK56DWFD8WYX,3,4
134,1,object_06,object_04,635.60000000894,2,1,406.0,0.0,2,object_08,5,1786,0,2,0,desert_2,2,memory-2step-stake-s,627,2251310,0.0-19.0-0.1-0.134,A7GT7BIC7ERWE,3SA4EMRVKYI00KKCICLEW0FTGRS0PA,37W3JXSD6AOQ37BSS8FK56DWFD8WYX,2,1
135,1,object_06,object_04,338.20000000298,2,1,362.0,0.1111111111111111,2,object_08,1,1787,0,1,1,desert_2,2,memory-2step-stake-s,628,2259109,0.0-19.0-0.1-0.135,A7GT7BIC7ERWE,3SA4EMRVKYI00KKCICLEW0FTGRS0PA,37W3JXSD6AOQ37BSS8FK56DWFD8WYX,2,1
136,1,object_06,object_04,373.90000000596,2,1,382.59999999404,0.1111111111111111,2,object_08,5,1792,0,0,1,desert_2,2,memory-2step-stake-s,629,2266901,0.0-19.0-0.1-0.136,A7GT7BIC7ERWE,3SA4EMRVKYI00KKCICLEW0FTGRS0PA,37W3JXSD6AOQ37BSS8FK56DWFD8WYX,2,1
137,2,object_07,object_01,293.89999999106,3,2,421.39999999106,0.6666666666666666,1,object_09,5,1822,0,6,1,forest_1,2,memory-2step-stake-s,630,2275210,0.0-19.0-0.1-0.137,A7GT7BIC7ERWE,3SA4EMRVKYI00KKCICLEW0FTGRS0PA,37W3JXSD6AOQ37BSS8FK56DWFD8WYX,4,3
138,3,object_02,object_10,401.59999999404,6,2,431.0,0.4444444444444444,2,object_08,1,1826,0,3,4,library_7,2,memory-2step-stake-s,631,2283478,0.0-19.0-0.1-0.138,A7GT7BIC7ERWE,3SA4EMRVKYI00KKCICLEW0FTGRS0PA,37W3JXSD6AOQ37BSS8FK56DWFD8WYX,5,6
139,1,object_06,object_04,426.20000000298,2,1,429.90000000596,0.5555555555555556,2,object_08,5,1851,0,2,5,desert_5,2,memory-2step-stake-s,632,2291727,0.0-19.0-0.1-0.139,A7GT7BIC7ERWE,3SA4EMRVKYI00KKCICLEW0FTGRS0PA,37W3JXSD6AOQ37BSS8FK56DWFD8WYX,2,1
140,3,object_02,object_10,378.10000000894,5,1,517.70000000298,0.3333333333333333,1,object_09,1,1854,0,3,4,library_8,2,memory-2step-stake-s,633,2299898,0.0-19.0-0.1-0.140,A7GT7BIC7ERWE,3SA4EMRVKYI00KKCICLEW0FTGRS0PA,37W3JXSD6AOQ37BSS8FK56DWFD8WYX,5,6
141,1,object_06,object_04,372.30000001192,1,2,472.30000001192,0.6666666666666666,1,object_09,5,1884,0,6,5,desert_5,2,memory-2step-stake-s,634,2308327,0.0-19.0-0.1-0.141,A7GT7BIC7ERWE,3SA4EMRVKYI00KKCICLEW0FTGRS0PA,37W3JXSD6AOQ37BSS8FK56DWFD8WYX,2,1
142,4,object_03,object_05,373.29999999702,8,1,650.70000000298,0.3333333333333333,2,object_08,1,1887,0,9,3,restaurant_4,2,memory-2step-stake-s,635,2316579,0.0-19.0-0.1-0.142,A7GT7BIC7ERWE,3SA4EMRVKYI00KKCICLEW0FTGRS0PA,37W3JXSD6AOQ37BSS8FK56DWFD8WYX,8,7
143,3,object_10,object_02,425.79999999702,6,1,469.09999999404,0.2222222222222222,2,object_08,5,1897,0,7,2,library_5,2,memory-2step-stake-s,636,2324639,0.0-19.0-0.1-0.143,A7GT7BIC7ERWE,3SA4EMRVKYI00KKCICLEW0FTGRS0PA,37W3JXSD6AOQ37BSS8FK56DWFD8WYX,6,5
144,1,object_04,object_06,389.90000000596,1,1,603.20000000298,0.8888888888888888,1,object_09,1,1905,0,8,2,desert_3,2,memory-2step-stake-s,637,2333404,0.0-19.0-0.1-0.144,A7GT7BIC7ERWE,3SA4EMRVKYI00KKCICLEW0FTGRS0PA,37W3JXSD6AOQ37BSS8FK56DWFD8WYX,1,2
145,4,object_05,object_03,711.0,8,2,370.59999999404,0.0,2,object_08,1,1905,0,9,0,restaurant_6,2,memory-2step-stake-s,638,2341141,0.0-19.0-0.1-0.145,A7GT7BIC7ERWE,3SA4EMRVKYI00KKCICLEW0FTGRS0PA,37W3JXSD6AOQ37BSS8FK56DWFD8WYX,7,8
146,4,object_05,object_03,372.40000000596,8,2,289.39999999106,0.2222222222222222,2,object_08,5,1915,0,7,2,restaurant_3,2,memory-2step-stake-s,639,2348938,0.0-19.0-0.1-0.146,A7GT7BIC7ERWE,3SA4EMRVKYI00KKCICLEW0FTGRS0PA,37W3JXSD6AOQ37BSS8FK56DWFD8WYX,7,8
147,3,object_10,object_02,283.10000000894,6,1,366.0,0.4444444444444444,2,object_08,1,1919,0,8,4,library_3,2,memory-2step-stake-s,640,2356978,0.0-19.0-0.1-0.147,A7GT7BIC7ERWE,3SA4EMRVKYI00KKCICLEW0FTGRS0PA,37W3JXSD6AOQ37BSS8FK56DWFD8WYX,6,5
148,3,object_02,object_10,442.40000000596,5,1,470.69999998808,0.8888888888888888,1,object_09,1,1927,0,8,4,library_8,2,memory-2step-stake-s,641,2365815,0.0-19.0-0.1-0.148,A7GT7BIC7ERWE,3SA4EMRVKYI00KKCICLEW0FTGRS0PA,37W3JXSD6AOQ37BSS8FK56DWFD8WYX,5,6
149,1,object_06,object_04,380.79999999702,2,1,358.40000000596,0.3333333333333333,2,object_08,5,1942,0,7,3,desert_5,2,memory-2step-stake-s,642,2373834,0.0-19.0-0.1-0.149,A7GT7BIC7ERWE,3SA4EMRVKYI00KKCICLEW0FTGRS0PA,37W3JXSD6AOQ37BSS8FK56DWFD8WYX,2,1
150,3,object_10,object_02,395.89999999106,6,1,582.0,0.2222222222222222,2,object_08,1,1944,0,7,2,library_5,2,memory-2step-stake-s,643,2381935,0.0-19.0-0.1-0.150,A7GT7BIC7ERWE,3SA4EMRVKYI00KKCICLEW0FTGRS0PA,37W3JXSD6AOQ37BSS8FK56DWFD8WYX,6,5
151,1,object_04,object_06,402.69999998808,1,1,331.5,0.7777777777777778,1,object_09,5,1979,0,7,5,desert_4,2,memory-2step-stake-s,644,2390385,0.0-19.0-0.1-0.151,A7GT7BIC7ERWE,3SA4EMRVKYI00KKCICLEW0FTGRS0PA,37W3JXSD6AOQ37BSS8FK56DWFD8WYX,1,2
152,1,object_06,object_04,927.39999999106,2,1,713.70000000298,0.6666666666666666,2,object_08,5,2009,0,8,6,desert_4,2,memory-2step-stake-s,645,2399054,0.0-19.0-0.1-0.152,A7GT7BIC7ERWE,3SA4EMRVKYI00KKCICLEW0FTGRS0PA,37W3JXSD6AOQ37BSS8FK56DWFD8WYX,2,1
153,4,object_05,object_03,488.39999999106,7,1,474.89999999106,0.6666666666666666,1,object_09,1,2015,0,6,7,restaurant_4,2,memory-2step-stake-s,646,2407461,0.0-19.0-0.1-0.153,A7GT7BIC7ERWE,3SA4EMRVKYI00KKCICLEW0FTGRS0PA,37W3JXSD6AOQ37BSS8FK56DWFD8WYX,7,8
154,1,object_04,object_06,558.0,2,2,461.0,0.8888888888888888,2,object_08,5,2055,0,6,8,desert_2,2,memory-2step-stake-s,647,2416009,0.0-19.0-0.1-0.154,A7GT7BIC7ERWE,3SA4EMRVKYI00KKCICLEW0FTGRS0PA,37W3JXSD6AOQ37BSS8FK56DWFD8WYX,1,2
155,3,object_02,object_10,347.5,5,1,492.39999999106,1.0,1,object_09,5,2100,0,9,4,library_8,2,memory-2step-stake-s,648,2424726,0.0-19.0-0.1-0.155,A7GT7BIC7ERWE,3SA4EMRVKYI00KKCICLEW0FTGRS0PA,37W3JXSD6AOQ37BSS8FK56DWFD8WYX,5,6
156,3,object_10,object_02,464.70000000298,6,1,939.10000000894,0.3333333333333333,2,object_08,1,2103,0,7,3,library_7,2,memory-2step-stake-s,649,2433194,0.0-19.0-0.1-0.156,A7GT7BIC7ERWE,3SA4EMRVKYI00KKCICLEW0FTGRS0PA,37W3JXSD6AOQ37BSS8FK56DWFD8WYX,6,5
157,4,object_03,object_05,472.20000000298,8,1,1212.6999999881,0.0,2,object_08,1,2103,0,5,0,restaurant_6,2,memory-2step-stake-s,650,2441731,0.0-19.0-0.1-0.157,A7GT7BIC7ERWE,3SA4EMRVKYI00KKCICLEW0FTGRS0PA,37W3JXSD6AOQ37BSS8FK56DWFD8WYX,8,7
158,3,object_10,object_02,403.20000000298,6,1,656.20000000298,0.3333333333333333,2,object_08,1,2106,0,4,3,library_3,2,memory-2step-stake-s,651,2449974,0.0-19.0-0.1-0.158,A7GT7BIC7ERWE,3SA4EMRVKYI00KKCICLEW0FTGRS0PA,37W3JXSD6AOQ37BSS8FK56DWFD8WYX,6,5
159,1,object_06,object_04,524.20000000298,2,1,428.90000000596,0.3333333333333333,2,object_08,5,2121,0,6,3,desert_3,2,memory-2step-stake-s,652,2457940,0.0-19.0-0.1-0.159,A7GT7BIC7ERWE,3SA4EMRVKYI00KKCICLEW0FTGRS0PA,37W3JXSD6AOQ37BSS8FK56DWFD8WYX,2,1
160,1,object_06,object_04,332.5,2,1,549.40000000596,0.5555555555555556,2,object_08,5,2146,0,7,5,desert_2,2,memory-2step-stake-s,653,2466443,0.0-19.0-0.1-0.160,A7GT7BIC7ERWE,3SA4EMRVKYI00KKCICLEW0FTGRS0PA,37W3JXSD6AOQ37BSS8FK56DWFD8WYX,2,1
161,2,object_01,object_07,600.29999999702,3,1,493.20000000298,1.0,1,object_09,5,2191,0,9,7,forest_5,2,memory-2step-stake-s,654,2475101,0.0-19.0-0.1-0.161,A7GT7BIC7ERWE,3SA4EMRVKYI00KKCICLEW0FTGRS0PA,37W3JXSD6AOQ37BSS8FK56DWFD8WYX,3,4
162,2,object_01,object_07,374.89999999106,3,1,-1.0,0.0,1,object_09,5,2191,0,7,7,forest_7,2,memory-2step-stake-s,655,2483641,0.0-19.0-0.1-0.162,A7GT7BIC7ERWE,3SA4EMRVKYI00KKCICLEW0FTGRS0PA,37W3JXSD6AOQ37BSS8FK56DWFD8WYX,3,4
163,3,object_02,object_10,339.20000000298,6,2,334.0,0.8888888888888888,2,object_08,5,2231,0,8,8,library_5,2,memory-2step-stake-s,656,2492028,0.0-19.0-0.1-0.163,A7GT7BIC7ERWE,3SA4EMRVKYI00KKCICLEW0FTGRS0PA,37W3JXSD6AOQ37BSS8FK56DWFD8WYX,5,6
164,1,object_06,object_04,829.60000000894,1,2,390.09999999404,0.8888888888888888,1,object_09,5,2271,0,8,9,desert_2,2,memory-2step-stake-s,657,2500509,0.0-19.0-0.1-0.164,A7GT7BIC7ERWE,3SA4EMRVKYI00KKCICLEW0FTGRS0PA,37W3JXSD6AOQ37BSS8FK56DWFD8WYX,2,1
165,1,object_04,object_06,320.60000000894,1,1,486.90000000596,1.0,1,object_09,5,2316,0,9,8,desert_3,2,memory-2step-stake-s,658,2509208,0.0-19.0-0.1-0.165,A7GT7BIC7ERWE,3SA4EMRVKYI00KKCICLEW0FTGRS0PA,37W3JXSD6AOQ37BSS8FK56DWFD8WYX,1,2
166,3,object_10,object_02,412.5,6,1,286.0,1.0,2,object_08,1,2325,0,5,9,library_3,2,memory-2step-stake-s,659,2517698,0.0-19.0-0.1-0.166,A7GT7BIC7ERWE,3SA4EMRVKYI00KKCICLEW0FTGRS0PA,37W3JXSD6AOQ37BSS8FK56DWFD8WYX,6,5
167,1,object_04,object_06,608.79999999702,1,1,790.80000001192,0.6666666666666666,1,object_09,5,2355,0,6,8,desert_4,2,memory-2step-stake-s,660,2526433,0.0-19.0-0.1-0.167,A7GT7BIC7ERWE,3SA4EMRVKYI00KKCICLEW0FTGRS0PA,37W3JXSD6AOQ37BSS8FK56DWFD8WYX,1,2
168,1,object_06,object_04,342.39999999106,1,2,357.0,0.7777777777777778,1,object_09,1,2362,0,7,8,desert_4,2,memory-2step-stake-s,661,2534738,0.0-19.0-0.1-0.168,A7GT7BIC7ERWE,3SA4EMRVKYI00KKCICLEW0FTGRS0PA,37W3JXSD6AOQ37BSS8FK56DWFD8WYX,2,1
169,1,object_04,object_06,434.5,1,1,384.19999998808,0.6666666666666666,1,object_09,5,2392,0,6,8,desert_5,2,memory-2step-stake-s,662,2543137,0.0-19.0-0.1-0.169,A7GT7BIC7ERWE,3SA4EMRVKYI00KKCICLEW0FTGRS0PA,37W3JXSD6AOQ37BSS8FK56DWFD8WYX,1,2
170,3,object_02,object_10,357.79999999702,5,1,270.59999999404,0.5555555555555556,1,object_09,1,2397,0,5,7,library_5,2,memory-2step-stake-s,663,2551224,0.0-19.0-0.1-0.170,A7GT7BIC7ERWE,3SA4EMRVKYI00KKCICLEW0FTGRS0PA,37W3JXSD6AOQ37BSS8FK56DWFD8WYX,5,6
171,1,object_06,object_04,350.40000000596,2,1,349.39999999106,1.0,2,object_08,5,2442,0,5,9,desert_5,2,memory-2step-stake-s,664,2559846,0.0-19.0-0.1-0.171,A7GT7BIC7ERWE,3SA4EMRVKYI00KKCICLEW0FTGRS0PA,37W3JXSD6AOQ37BSS8FK56DWFD8WYX,2,1
172,3,object_10,object_02,364.89999999106,6,1,348.20000000298,0.6666666666666666,2,object_08,1,2448,0,2,6,library_8,2,memory-2step-stake-s,665,2568160,0.0-19.0-0.1-0.172,A7GT7BIC7ERWE,3SA4EMRVKYI00KKCICLEW0FTGRS0PA,37W3JXSD6AOQ37BSS8FK56DWFD8WYX,6,5
173,2,object_01,object_07,542.0,3,1,456.40000000596,0.3333333333333333,1,object_09,5,2463,0,3,7,forest_7,2,memory-2step-stake-s,666,2576145,0.0-19.0-0.1-0.173,A7GT7BIC7ERWE,3SA4EMRVKYI00KKCICLEW0FTGRS0PA,37W3JXSD6AOQ37BSS8FK56DWFD8WYX,3,4
174,1,object_06,object_04,638.09999999404,2,1,510.0,0.8888888888888888,2,object_08,5,2503,0,2,8,desert_5,2,memory-2step-stake-s,667,2584895,0.0-19.0-0.1-0.174,A7GT7BIC7ERWE,3SA4EMRVKYI00KKCICLEW0FTGRS0PA,37W3JXSD6AOQ37BSS8FK56DWFD8WYX,2,1
175,1,object_06,object_04,536.70000000298,1,2,484.59999999404,0.1111111111111111,1,object_09,1,2504,0,1,7,desert_3,2,memory-2step-stake-s,668,2592729,0.0-19.0-0.1-0.175,A7GT7BIC7ERWE,3SA4EMRVKYI00KKCICLEW0FTGRS0PA,37W3JXSD6AOQ37BSS8FK56DWFD8WYX,2,1
176,4,object_05,object_03,969.40000000596,8,2,357.79999999702,0.3333333333333333,2,object_08,5,2519,0,4,3,restaurant_1,2,memory-2step-stake-s,669,2600698,0.0-19.0-0.1-0.176,A7GT7BIC7ERWE,3SA4EMRVKYI00KKCICLEW0FTGRS0PA,37W3JXSD6AOQ37BSS8FK56DWFD8WYX,7,8
177,2,object_07,object_01,768.39999999106,4,1,720.89999999106,0.4444444444444444,2,object_08,5,2539,0,2,4,forest_4,2,memory-2step-stake-s,670,2609099,0.0-19.0-0.1-0.177,A7GT7BIC7ERWE,3SA4EMRVKYI00KKCICLEW0FTGRS0PA,37W3JXSD6AOQ37BSS8FK56DWFD8WYX,4,3
178,2,object_01,object_07,763.5,4,2,930.59999999404,0.3333333333333333,2,object_08,5,2554,0,2,3,forest_1,2,memory-2step-stake-s,671,2617567,0.0-19.0-0.1-0.178,A7GT7BIC7ERWE,3SA4EMRVKYI00KKCICLEW0FTGRS0PA,37W3JXSD6AOQ37BSS8FK56DWFD8WYX,3,4
179,1,object_06,object_04,658.40000000596,2,1,381.79999999702,0.6666666666666666,2,object_08,5,2584,0,3,6,desert_3,2,memory-2step-stake-s,672,2625812,0.0-19.0-0.1-0.179,A7GT7BIC7ERWE,3SA4EMRVKYI00KKCICLEW0FTGRS0PA,37W3JXSD6AOQ37BSS8FK56DWFD8WYX,2,1
180,2,object_07,object_01,617.29999999702,4,1,337.0,0.5555555555555556,2,object_08,5,2609,0,3,5,forest_5,2,memory-2step-stake-s,673,2633938,0.0-19.0-0.1-0.180,A7GT7BIC7ERWE,3SA4EMRVKYI00KKCICLEW0FTGRS0PA,37W3JXSD6AOQ37BSS8FK56DWFD8WYX,4,3
181,3,object_02,object_10,456.29999999702,5,1,285.29999999702,0.3333333333333333,1,object_09,5,2624,0,3,7,library_7,2,memory-2step-stake-s,674,2641889,0.0-19.0-0.1-0.181,A7GT7BIC7ERWE,3SA4EMRVKYI00KKCICLEW0FTGRS0PA,37W3JXSD6AOQ37BSS8FK56DWFD8WYX,5,6
182,3,object_10,object_02,381.59999999404,5,2,380.70000000298,0.4444444444444444,1,object_09,1,2628,0,4,8,library_7,2,memory-2step-stake-s,675,2650038,0.0-19.0-0.1-0.182,A7GT7BIC7ERWE,3SA4EMRVKYI00KKCICLEW0FTGRS0PA,37W3JXSD6AOQ37BSS8FK56DWFD8WYX,6,5
183,4,object_03,object_05,329.5,8,1,521.5,0.7777777777777778,2,object_08,5,2663,0,9,7,restaurant_1,2,memory-2step-stake-s,676,2658741,0.0-19.0-0.1-0.183,A7GT7BIC7ERWE,3SA4EMRVKYI00KKCICLEW0FTGRS0PA,37W3JXSD6AOQ37BSS8FK56DWFD8WYX,8,7
184,1,object_06,object_04,451.09999999404,2,1,978.29999999702,0.8888888888888888,2,object_08,5,2703,0,8,8,desert_4,2,memory-2step-stake-s,677,2668010,0.0-19.0-0.1-0.184,A7GT7BIC7ERWE,3SA4EMRVKYI00KKCICLEW0FTGRS0PA,37W3JXSD6AOQ37BSS8FK56DWFD8WYX,2,1
185,3,object_10,object_02,403.20000000298,5,2,513.30000001192,0.7777777777777778,1,object_09,1,2710,0,7,8,library_5,2,memory-2step-stake-s,678,2676478,0.0-19.0-0.1-0.185,A7GT7BIC7ERWE,3SA4EMRVKYI00KKCICLEW0FTGRS0PA,37W3JXSD6AOQ37BSS8FK56DWFD8WYX,6,5
186,2,object_01,object_07,557.20000000298,4,2,359.59999999404,0.7777777777777778,2,object_08,5,2745,0,6,7,forest_4,2,memory-2step-stake-s,679,2684850,0.0-19.0-0.1-0.186,A7GT7BIC7ERWE,3SA4EMRVKYI00KKCICLEW0FTGRS0PA,37W3JXSD6AOQ37BSS8FK56DWFD8WYX,3,4
187,2,object_07,object_01,375.90000000596,4,1,387.90000000596,0.7777777777777778,2,object_08,5,2780,0,3,7,forest_5,2,memory-2step-stake-s,680,2693226,0.0-19.0-0.1-0.187,A7GT7BIC7ERWE,3SA4EMRVKYI00KKCICLEW0FTGRS0PA,37W3JXSD6AOQ37BSS8FK56DWFD8WYX,4,3
188,2,object_07,object_01,617.79999999702,4,1,401.60000000894,0.7777777777777778,2,object_08,1,2787,0,4,7,forest_7,2,memory-2step-stake-s,681,2701761,0.0-19.0-0.1-0.188,A7GT7BIC7ERWE,3SA4EMRVKYI00KKCICLEW0FTGRS0PA,37W3JXSD6AOQ37BSS8FK56DWFD8WYX,4,3
189,1,object_06,object_04,579.40000000596,2,1,357.20000000298,1.0,2,object_08,5,2832,0,4,9,desert_2,2,memory-2step-stake-s,682,2710327,0.0-19.0-0.1-0.189,A7GT7BIC7ERWE,3SA4EMRVKYI00KKCICLEW0FTGRS0PA,37W3JXSD6AOQ37BSS8FK56DWFD8WYX,2,1
190,2,object_07,object_01,311.5,3,2,355.30000001192,0.7777777777777778,1,object_09,5,2867,0,7,8,forest_7,2,memory-2step-stake-s,683,2718745,0.0-19.0-0.1-0.190,A7GT7BIC7ERWE,3SA4EMRVKYI00KKCICLEW0FTGRS0PA,37W3JXSD6AOQ37BSS8FK56DWFD8WYX,4,3
191,4,object_03,object_05,416.90000000596,7,2,361.10000000894,0.7777777777777778,1,object_09,5,2902,0,7,5,restaurant_1,2,memory-2step-stake-s,684,2727058,0.0-19.0-0.1-0.191,A7GT7BIC7ERWE,3SA4EMRVKYI00KKCICLEW0FTGRS0PA,37W3JXSD6AOQ37BSS8FK56DWFD8WYX,8,7
192,4,object_05,object_03,879.30000001192,8,2,632.89999999106,0.3333333333333333,2,object_08,1,2905,0,4,3,restaurant_4,2,memory-2step-stake-s,685,2735308,0.0-19.0-0.1-0.192,A7GT7BIC7ERWE,3SA4EMRVKYI00KKCICLEW0FTGRS0PA,37W3JXSD6AOQ37BSS8FK56DWFD8WYX,7,8
193,3,object_10,object_02,420.20000000298,6,1,348.70000000298,0.1111111111111111,2,object_08,1,2906,0,8,1,library_3,2,memory-2step-stake-s,686,2743037,0.0-19.0-0.1-0.193,A7GT7BIC7ERWE,3SA4EMRVKYI00KKCICLEW0FTGRS0PA,37W3JXSD6AOQ37BSS8FK56DWFD8WYX,6,5
194,2,object_01,object_07,313.70000000298,4,2,204.59999999404,0.1111111111111111,2,object_08,5,2911,0,8,1,forest_4,2,memory-2step-stake-s,687,2750620,0.0-19.0-0.1-0.194,A7GT7BIC7ERWE,3SA4EMRVKYI00KKCICLEW0FTGRS0PA,37W3JXSD6AOQ37BSS8FK56DWFD8WYX,3,4
195,2,object_07,object_01,522.89999999106,4,1,338.5,0.1111111111111111,2,object_08,1,2912,0,7,1,forest_5,2,memory-2step-stake-s,688,2758423,0.0-19.0-0.1-0.195,A7GT7BIC7ERWE,3SA4EMRVKYI00KKCICLEW0FTGRS0PA,37W3JXSD6AOQ37BSS8FK56DWFD8WYX,4,3
196,4,object_03,object_05,539.19999998808,8,1,344.60000000894,0.2222222222222222,2,object_08,1,2914,0,6,2,restaurant_1,2,memory-2step-stake-s,689,2766376,0.0-19.0-0.1-0.196,A7GT7BIC7ERWE,3SA4EMRVKYI00KKCICLEW0FTGRS0PA,37W3JXSD6AOQ37BSS8FK56DWFD8WYX,8,7
197,1,object_04,object_06,219.29999999702,2,2,345.59999999404,0.3333333333333333,2,object_08,5,2929,0,8,3,desert_3,2,memory-2step-stake-s,690,2774280,0.0-19.0-0.1-0.197,A7GT7BIC7ERWE,3SA4EMRVKYI00KKCICLEW0FTGRS0PA,37W3JXSD6AOQ37BSS8FK56DWFD8WYX,1,2
198,2,object_01,object_07,984.79999999702,4,2,1245.1000000089,0.7777777777777778,2,object_08,5,2964,0,7,7,forest_4,2,memory-2step-stake-s,691,2783532,0.0-19.0-0.1-0.198,A7GT7BIC7ERWE,3SA4EMRVKYI00KKCICLEW0FTGRS0PA,37W3JXSD6AOQ37BSS8FK56DWFD8WYX,3,4
199,4,object_05,object_03,638.89999999106,7,1,652.40000000596,1.0,1,object_09,1,2973,0,9,7,restaurant_4,2,memory-2step-stake-s,692,2792461,0.0-19.0-0.1-0.199,A7GT7BIC7ERWE,3SA4EMRVKYI00KKCICLEW0FTGRS0PA,37W3JXSD6AOQ37BSS8FK56DWFD8WYX,7,8
200,4,object_03,object_05,247.40000000596,8,1,334.09999999404,0.5555555555555556,2,object_08,1,2978,0,6,5,restaurant_4,2,memory-2step-stake-s,693,2800529,0.0-19.0-0.1-0.200,A7GT7BIC7ERWE,3SA4EMRVKYI00KKCICLEW0FTGRS0PA,37W3JXSD6AOQ37BSS8FK56DWFD8WYX,8,7
201,4,object_03,object_05,102.5,8,1,485.70000000298,0.4444444444444444,2,object_08,1,2982,0,6,4,restaurant_3,2,memory-2step-stake-s,694,2808682,0.0-19.0-0.1-0.201,A7GT7BIC7ERWE,3SA4EMRVKYI00KKCICLEW0FTGRS0PA,37W3JXSD6AOQ37BSS8FK56DWFD8WYX,8,7
202,2,object_01,object_07,756.70000000298,3,1,-1.0,0.0,1,object_09,1,2982,0,4,4,forest_5,2,memory-2step-stake-s,695,2817344,0.0-19.0-0.1-0.202,A7GT7BIC7ERWE,3SA4EMRVKYI00KKCICLEW0FTGRS0PA,37W3JXSD6AOQ37BSS8FK56DWFD8WYX,3,4
203,2,object_01,object_07,729.79999999702,4,2,342.5,0.3333333333333333,2,object_08,5,2997,0,5,3,forest_4,2,memory-2step-stake-s,696,2825228,0.0-19.0-0.1-0.203,A7GT7BIC7ERWE,3SA4EMRVKYI00KKCICLEW0FTGRS0PA,37W3JXSD6AOQ37BSS8FK56DWFD8WYX,3,4
204,3,object_02,object_10,710.09999999404,6,2,476.70000000298,0.4444444444444444,2,object_08,1,3001,0,2,4,library_3,2,memory-2step-stake-s,697,2833488,0.0-19.0-0.1-0.204,A7GT7BIC7ERWE,3SA4EMRVKYI00KKCICLEW0FTGRS0PA,37W3JXSD6AOQ37BSS8FK56DWFD8WYX,5,6
205,2,object_01,object_07,428.79999999702,4,2,439.20000000298,0.7777777777777778,2,object_08,1,3008,0,2,7,forest_7,2,memory-2step-stake-s,698,2841911,0.0-19.0-0.1-0.205,A7GT7BIC7ERWE,3SA4EMRVKYI00KKCICLEW0FTGRS0PA,37W3JXSD6AOQ37BSS8FK56DWFD8WYX,3,4
206,2,object_01,object_07,776.79999999702,4,2,563.29999999702,0.6666666666666666,2,object_08,5,3038,0,3,6,forest_5,2,memory-2step-stake-s,699,2850368,0.0-19.0-0.1-0.206,A7GT7BIC7ERWE,3SA4EMRVKYI00KKCICLEW0FTGRS0PA,37W3JXSD6AOQ37BSS8FK56DWFD8WYX,3,4
207,2,object_07,object_01,825.89999999106,4,1,-1.0,0.0,2,object_08,5,3038,0,2,9,forest_7,2,memory-2step-stake-s,700,2858904,0.0-19.0-0.1-0.207,A7GT7BIC7ERWE,3SA4EMRVKYI00KKCICLEW0FTGRS0PA,37W3JXSD6AOQ37BSS8FK56DWFD8WYX,4,3
208,3,object_02,object_10,747.30000001192,5,1,288.0,0.2222222222222222,1,object_09,5,3048,0,2,8,library_3,2,memory-2step-stake-s,701,2866637,0.0-19.0-0.1-0.208,A7GT7BIC7ERWE,3SA4EMRVKYI00KKCICLEW0FTGRS0PA,37W3JXSD6AOQ37BSS8FK56DWFD8WYX,5,6
209,2,object_01,object_07,768.29999999702,4,2,497.20000000298,0.5555555555555556,2,object_08,5,3073,0,3,5,forest_5,2,memory-2step-stake-s,702,2874920,0.0-19.0-0.1-0.209,A7GT7BIC7ERWE,3SA4EMRVKYI00KKCICLEW0FTGRS0PA,37W3JXSD6AOQ37BSS8FK56DWFD8WYX,3,4
210,4,object_05,object_03,750.39999999106,7,1,367.90000000596,0.6666666666666666,1,object_09,5,3103,0,6,9,restaurant_6,2,memory-2step-stake-s,703,2883222,0.0-19.0-0.1-0.210,A7GT7BIC7ERWE,3SA4EMRVKYI00KKCICLEW0FTGRS0PA,37W3JXSD6AOQ37BSS8FK56DWFD8WYX,7,8
211,1,object_06,object_04,670.90000000596,1,2,369.0,0.6666666666666666,1,object_09,5,3133,0,6,7,desert_5,2,memory-2step-stake-s,704,2891462,0.0-19.0-0.1-0.211,A7GT7BIC7ERWE,3SA4EMRVKYI00KKCICLEW0FTGRS0PA,37W3JXSD6AOQ37BSS8FK56DWFD8WYX,2,1
212,2,object_07,object_01,743.39999999106,4,1,433.20000000298,0.6666666666666666,2,object_08,5,3163,0,8,6,forest_4,2,memory-2step-stake-s,705,2899788,0.0-19.0-0.1-0.212,A7GT7BIC7ERWE,3SA4EMRVKYI00KKCICLEW0FTGRS0PA,37W3JXSD6AOQ37BSS8FK56DWFD8WYX,4,3
213,3,object_10,object_02,569.29999999702,5,2,361.0,0.8888888888888888,1,object_09,1,3171,0,8,9,library_7,2,memory-2step-stake-s,706,2908200,0.0-19.0-0.1-0.213,A7GT7BIC7ERWE,3SA4EMRVKYI00KKCICLEW0FTGRS0PA,37W3JXSD6AOQ37BSS8FK56DWFD8WYX,6,5
214,1,object_06,object_04,743.10000000894,2,1,431.59999999404,0.7777777777777778,2,object_08,5,3206,0,8,7,desert_3,2,memory-2step-stake-s,707,2916640,0.0-19.0-0.1-0.214,A7GT7BIC7ERWE,3SA4EMRVKYI00KKCICLEW0FTGRS0PA,37W3JXSD6AOQ37BSS8FK56DWFD8WYX,2,1
215,1,object_06,object_04,801.09999999404,2,1,313.29999999702,0.6666666666666666,2,object_08,5,3236,0,8,6,desert_4,2,memory-2step-stake-s,708,2924830,0.0-19.0-0.1-0.215,A7GT7BIC7ERWE,3SA4EMRVKYI00KKCICLEW0FTGRS0PA,37W3JXSD6AOQ37BSS8FK56DWFD8WYX,2,1
216,4,object_05,object_03,825.79999999702,7,1,330.0,1.0,1,object_09,5,3281,0,9,8,restaurant_1,2,memory-2step-stake-s,709,2933400,0.0-19.0-0.1-0.216,A7GT7BIC7ERWE,3SA4EMRVKYI00KKCICLEW0FTGRS0PA,37W3JXSD6AOQ37BSS8FK56DWFD8WYX,7,8
217,2,object_01,object_07,620.39999999106,3,1,332.79999999702,0.5555555555555556,1,object_09,5,3306,0,5,8,forest_7,2,memory-2step-stake-s,710,2941507,0.0-19.0-0.1-0.217,A7GT7BIC7ERWE,3SA4EMRVKYI00KKCICLEW0FTGRS0PA,37W3JXSD6AOQ37BSS8FK56DWFD8WYX,3,4
218,3,object_10,object_02,853.5,5,2,458.59999999404,0.5555555555555556,1,object_09,1,3311,0,5,8,library_5,2,memory-2step-stake-s,711,2950074,0.0-19.0-0.1-0.218,A7GT7BIC7ERWE,3SA4EMRVKYI00KKCICLEW0FTGRS0PA,37W3JXSD6AOQ37BSS8FK56DWFD8WYX,6,5
219,3,object_10,object_02,581.20000000298,5,2,620.59999999404,0.7777777777777778,1,object_09,1,3318,0,7,5,library_8,2,memory-2step-stake-s,712,2958699,0.0-19.0-0.1-0.219,A7GT7BIC7ERWE,3SA4EMRVKYI00KKCICLEW0FTGRS0PA,37W3JXSD6AOQ37BSS8FK56DWFD8WYX,6,5
220,1,object_06,object_04,509.29999999702,1,2,613.90000000596,0.3333333333333333,1,object_09,1,3321,0,3,6,desert_5,2,memory-2step-stake-s,713,2967027,0.0-19.0-0.1-0.220,A7GT7BIC7ERWE,3SA4EMRVKYI00KKCICLEW0FTGRS0PA,37W3JXSD6AOQ37BSS8FK56DWFD8WYX,2,1
221,2,object_07,object_01,591.60000000894,3,2,327.79999999702,0.2222222222222222,1,object_09,5,3331,0,2,6,forest_7,2,memory-2step-stake-s,714,2974835,0.0-19.0-0.1-0.221,A7GT7BIC7ERWE,3SA4EMRVKYI00KKCICLEW0FTGRS0PA,37W3JXSD6AOQ37BSS8FK56DWFD8WYX,4,3
222,2,object_01,object_07,330.5,4,2,339.09999999404,0.7777777777777778,2,object_08,5,3366,0,3,7,forest_5,2,memory-2step-stake-s,715,2983156,0.0-19.0-0.1-0.222,A7GT7BIC7ERWE,3SA4EMRVKYI00KKCICLEW0FTGRS0PA,37W3JXSD6AOQ37BSS8FK56DWFD8WYX,3,4
223,2,object_01,object_07,496.89999999106,4,2,288.59999999404,0.8888888888888888,2,object_08,1,3374,0,3,8,forest_4,2,memory-2step-stake-s,716,2991544,0.0-19.0-0.1-0.223,A7GT7BIC7ERWE,3SA4EMRVKYI00KKCICLEW0FTGRS0PA,37W3JXSD6AOQ37BSS8FK56DWFD8WYX,3,4
224,1,object_04,object_06,375.39999999106,2,2,1226.3999999911,0.7777777777777778,2,object_08,5,3409,0,1,7,desert_2,2,memory-2step-stake-s,717,3000803,0.0-19.0-0.1-0.224,A7GT7BIC7ERWE,3SA4EMRVKYI00KKCICLEW0FTGRS0PA,37W3JXSD6AOQ37BSS8FK56DWFD8WYX,1,2
225,1,object_04,object_06,311.10000000894,2,2,779.79999999702,1.0,2,object_08,5,3454,0,6,9,desert_4,2,memory-2step-stake-s,718,3009766,0.0-19.0-0.1-0.225,A7GT7BIC7ERWE,3SA4EMRVKYI00KKCICLEW0FTGRS0PA,37W3JXSD6AOQ37BSS8FK56DWFD8WYX,1,2
226,3,object_10,object_02,347.09999999404,5,2,671.5,0.6666666666666666,1,object_09,1,3460,0,6,9,library_7,2,memory-2step-stake-s,719,3018337,0.0-19.0-0.1-0.226,A7GT7BIC7ERWE,3SA4EMRVKYI00KKCICLEW0FTGRS0PA,37W3JXSD6AOQ37BSS8FK56DWFD8WYX,6,5
227,1,object_06,object_04,246.0,1,2,371.79999999702,0.4444444444444444,1,object_09,5,3480,0,4,5,desert_2,2,memory-2step-stake-s,720,3026374,0.0-19.0-0.1-0.227,A7GT7BIC7ERWE,3SA4EMRVKYI00KKCICLEW0FTGRS0PA,37W3JXSD6AOQ37BSS8FK56DWFD8WYX,2,1
228,1,object_06,object_04,219.60000000894,1,2,301.60000000894,0.4444444444444444,1,object_09,5,3500,0,4,5,desert_3,2,memory-2step-stake-s,721,3034343,0.0-19.0-0.1-0.228,A7GT7BIC7ERWE,3SA4EMRVKYI00KKCICLEW0FTGRS0PA,37W3JXSD6AOQ37BSS8FK56DWFD8WYX,2,1
229,2,object_01,object_07,537.79999999702,4,2,474.5,0.5555555555555556,2,object_08,5,3525,0,1,5,forest_1,2,memory-2step-stake-s,722,3042664,0.0-19.0-0.1-0.229,A7GT7BIC7ERWE,3SA4EMRVKYI00KKCICLEW0FTGRS0PA,37W3JXSD6AOQ37BSS8FK56DWFD8WYX,3,4
230,4,object_03,object_05,523.39999999106,7,2,293.80000001192,0.1111111111111111,1,object_09,1,3526,0,1,3,restaurant_4,2,memory-2step-stake-s,723,3050295,0.0-19.0-0.1-0.230,A7GT7BIC7ERWE,3SA4EMRVKYI00KKCICLEW0FTGRS0PA,37W3JXSD6AOQ37BSS8FK56DWFD8WYX,8,7
231,3,object_02,object_10,349.09999999404,6,2,321.59999999404,0.5555555555555556,2,object_08,1,3531,0,3,5,library_7,2,memory-2step-stake-s,724,3058489,0.0-19.0-0.1-0.231,A7GT7BIC7ERWE,3SA4EMRVKYI00KKCICLEW0FTGRS0PA,37W3JXSD6AOQ37BSS8FK56DWFD8WYX,5,6
232,4,object_05,object_03,334.59999999404,8,2,327.39999999106,0.6666666666666666,2,object_08,1,3537,0,7,6,restaurant_1,2,memory-2step-stake-s,725,3066680,0.0-19.0-0.1-0.232,A7GT7BIC7ERWE,3SA4EMRVKYI00KKCICLEW0FTGRS0PA,37W3JXSD6AOQ37BSS8FK56DWFD8WYX,7,8
233,1,object_04,object_06,315.89999999106,2,2,338.70000000298,0.6666666666666666,2,object_08,1,3543,0,8,6,desert_4,2,memory-2step-stake-s,726,3074866,0.0-19.0-0.1-0.233,A7GT7BIC7ERWE,3SA4EMRVKYI00KKCICLEW0FTGRS0PA,37W3JXSD6AOQ37BSS8FK56DWFD8WYX,1,2
234,4,object_03,object_05,274.40000000596,7,2,439.59999999404,0.8888888888888888,1,object_09,1,3551,0,8,4,restaurant_3,2,memory-2step-stake-s,727,3083522,0.0-19.0-0.1-0.234,A7GT7BIC7ERWE,3SA4EMRVKYI00KKCICLEW0FTGRS0PA,37W3JXSD6AOQ37BSS8FK56DWFD8WYX,8,7
235,3,object_02,object_10,358.40000000596,6,2,429.20000000298,0.5555555555555556,2,object_08,1,3556,0,8,5,library_8,2,memory-2step-stake-s,728,3091861,0.0-19.0-0.1-0.235,A7GT7BIC7ERWE,3SA4EMRVKYI00KKCICLEW0FTGRS0PA,37W3JXSD6AOQ37BSS8FK56DWFD8WYX,5,6
236,3,object_02,object_10,415.0,6,2,186.59999999404,0.7777777777777778,2,object_08,1,3563,0,6,7,library_3,2,memory-2step-stake-s,729,3100086,0.0-19.0-0.1-0.236,A7GT7BIC7ERWE,3SA4EMRVKYI00KKCICLEW0FTGRS0PA,37W3JXSD6AOQ37BSS8FK56DWFD8WYX,5,6
237,3,object_02,object_10,508.89999999106,6,2,433.89999999106,0.8888888888888888,2,object_08,1,3571,0,4,8,library_5,2,memory-2step-stake-s,730,3108577,0.0-19.0-0.1-0.237,A7GT7BIC7ERWE,3SA4EMRVKYI00KKCICLEW0FTGRS0PA,37W3JXSD6AOQ37BSS8FK56DWFD8WYX,5,6
238,2,object_07,object_01,367.30000001192,3,2,407.80000001192,0.4444444444444444,1,object_09,1,3575,0,4,7,forest_1,2,memory-2step-stake-s,731,3116712,0.0-19.0-0.1-0.238,A7GT7BIC7ERWE,3SA4EMRVKYI00KKCICLEW0FTGRS0PA,37W3JXSD6AOQ37BSS8FK56DWFD8WYX,4,3
239,3,object_10,object_02,391.70000000298,5,2,403.20000000298,0.1111111111111111,1,object_09,1,3576,0,1,7,library_8,2,memory-2step-stake-s,732,3124461,0.0-19.0-0.1-0.239,A7GT7BIC7ERWE,3SA4EMRVKYI00KKCICLEW0FTGRS0PA,37W3JXSD6AOQ37BSS8FK56DWFD8WYX,6,5
240,2,object_07,object_01,288.69999998808,3,2,367.90000000596,0.2222222222222222,1,object_09,5,3586,0,2,8,forest_5,2,memory-2step-stake-s,733,3132266,0.0-19.0-0.1-0.240,A7GT7BIC7ERWE,3SA4EMRVKYI00KKCICLEW0FTGRS0PA,37W3JXSD6AOQ37BSS8FK56DWFD8WYX,4,3
241,3,object_10,object_02,383.20000000298,5,2,441.69999998808,0.4444444444444444,1,object_09,1,3590,0,4,8,library_8,2,memory-2step-stake-s,734,3140415,0.0-19.0-0.1-0.241,A7GT7BIC7ERWE,3SA4EMRVKYI00KKCICLEW0FTGRS0PA,37W3JXSD6AOQ37BSS8FK56DWFD8WYX,6,5
242,4,object_05,object_03,303.29999999702,8,2,354.30000001192,0.4444444444444444,2,object_08,1,3594,0,2,4,restaurant_3,2,memory-2step-stake-s,735,3148585,0.0-19.0-0.1-0.242,A7GT7BIC7ERWE,3SA4EMRVKYI00KKCICLEW0FTGRS0PA,37W3JXSD6AOQ37BSS8FK56DWFD8WYX,7,8
243,4,object_05,object_03,295.39999999106,8,2,462.89999999106,0.2222222222222222,2,object_08,5,3604,0,1,2,restaurant_3,2,memory-2step-stake-s,736,3156476,0.0-19.0-0.1-0.243,A7GT7BIC7ERWE,3SA4EMRVKYI00KKCICLEW0FTGRS0PA,37W3JXSD6AOQ37BSS8FK56DWFD8WYX,7,8
244,3,object_02,object_10,371.29999999702,6,2,455.10000000894,0.6666666666666666,2,object_08,1,3610,0,4,6,library_7,2,memory-2step-stake-s,737,3164858,0.0-19.0-0.1-0.244,A7GT7BIC7ERWE,3SA4EMRVKYI00KKCICLEW0FTGRS0PA,37W3JXSD6AOQ37BSS8FK56DWFD8WYX,5,6
245,2,object_07,object_01,339.59999999404,3,2,474.70000000298,0.5555555555555556,1,object_09,5,3635,0,5,2,forest_7,2,memory-2step-stake-s,738,3173124,0.0-19.0-0.1-0.245,A7GT7BIC7ERWE,3SA4EMRVKYI00KKCICLEW0FTGRS0PA,37W3JXSD6AOQ37BSS8FK56DWFD8WYX,4,3
246,1,object_06,object_04,1247.099999994,1,2,501.20000000298,0.5555555555555556,1,object_09,5,3660,0,5,3,desert_3,2,memory-2step-stake-s,739,3181432,0.0-19.0-0.1-0.246,A7GT7BIC7ERWE,3SA4EMRVKYI00KKCICLEW0FTGRS0PA,37W3JXSD6AOQ37BSS8FK56DWFD8WYX,2,1
247,1,object_04,object_06,376.79999999702,2,2,-1.0,0.0,2,object_08,5,3660,0,4,4,desert_2,2,memory-2step-stake-s,740,3190005,0.0-19.0-0.1-0.247,A7GT7BIC7ERWE,3SA4EMRVKYI00KKCICLEW0FTGRS0PA,37W3JXSD6AOQ37BSS8FK56DWFD8WYX,1,2
248,3,object_02,object_10,303.5,6,2,303.70000000298,0.1111111111111111,2,object_08,1,3661,0,5,1,library_5,2,memory-2step-stake-s,741,3197696,0.0-19.0-0.1-0.248,A7GT7BIC7ERWE,3SA4EMRVKYI00KKCICLEW0FTGRS0PA,37W3JXSD6AOQ37BSS8FK56DWFD8WYX,5,6
249,4,object_03,object_05,254.40000000596,7,2,17.40000000596,0.2222222222222222,1,object_09,1,3663,0,2,0,restaurant_6,2,memory-2step-stake-s,742,3205233,0.0-19.0-0.1-0.249,A7GT7BIC7ERWE,3SA4EMRVKYI00KKCICLEW0FTGRS0PA,37W3JXSD6AOQ37BSS8FK56DWFD8WYX,8,7
250,4,object_05,object_03,362.79999999702,8,2,312.10000000894,0.1111111111111111,2,object_08,1,3664,0,0,1,restaurant_3,2,memory-2step-stake-s,743,3212962,0.0-19.0-0.1-0.250,A7GT7BIC7ERWE,3SA4EMRVKYI00KKCICLEW0FTGRS0PA,37W3JXSD6AOQ37BSS8FK56DWFD8WYX,7,8
251,3,object_02,object_10,522.89999999106,5,1,-1.0,0.0,1,object_09,1,3664,0,1,1,library_3,2,memory-2step-stake-s,744,3221526,0.0-19.0-0.1-0.251,A7GT7BIC7ERWE,3SA4EMRVKYI00KKCICLEW0FTGRS0PA,37W3JXSD6AOQ37BSS8FK56DWFD8WYX,5,6
252,4,object_03,object_05,534.90000000596,8,1,383.20000000298,0.1111111111111111,2,object_08,1,3665,0,5,1,restaurant_4,2,memory-2step-stake-s,745,3229256,0.0-19.0-0.1-0.252,A7GT7BIC7ERWE,3SA4EMRVKYI00KKCICLEW0FTGRS0PA,37W3JXSD6AOQ37BSS8FK56DWFD8WYX,8,7
253,3,object_02,object_10,216.10000000894,5,1,486.5,0.8888888888888888,1,object_09,1,3673,0,8,1,library_5,2,memory-2step-stake-s,746,3237806,0.0-19.0-0.1-0.253,A7GT7BIC7ERWE,3SA4EMRVKYI00KKCICLEW0FTGRS0PA,37W3JXSD6AOQ37BSS8FK56DWFD8WYX,5,6
254,2,object_07,object_01,659.80000001192,4,1,551.30000001192,0.3333333333333333,2,object_08,5,3688,0,7,3,forest_7,2,memory-2step-stake-s,747,3246056,0.0-19.0-0.1-0.254,A7GT7BIC7ERWE,3SA4EMRVKYI00KKCICLEW0FTGRS0PA,37W3JXSD6AOQ37BSS8FK56DWFD8WYX,4,3
255,2,object_01,object_07,477.79999999702,3,1,590.69999998808,1.0,1,object_09,5,3733,0,9,2,forest_1,2,memory-2step-stake-s,748,3254809,0.0-19.0-0.1-0.255,A7GT7BIC7ERWE,3SA4EMRVKYI00KKCICLEW0FTGRS0PA,37W3JXSD6AOQ37BSS8FK56DWFD8WYX,3,4
