,state1,stim_left,stim_right,rt_1,choice1,response1,rt_2,points,state2,stim_state2,stake,score,practice,rews1,rews2,background,high_arm,trial_type,trial_index,time_elapsed,internal_node_id,subid,hitid,assignmentid,stim_left_num,stim_right_num
0,3,object_04,object_07,607.30000007153,5,1,768.19999992847,0.0,1,object_03,5,0,0,0,2,library_7,1,memory-2step-stake-s,492,836038,0.0-19.0-0.0-0.0,A3HW4QDJB63OQ2,3Q9SPIIRXM2ML6FVM0W2D0Z2IA6WAR,3180JW2OT8S6VZ19A7R85JLVICW5JW,5,6
1,1,object_05,object_09,675.5,2,1,738.79999995232,0.5555555555555556,2,object_08,1,5,0,3,5,desert_3,1,memory-2step-stake-s,493,844564,0.0-19.0-0.0-0.1,A3HW4QDJB63OQ2,3Q9SPIIRXM2ML6FVM0W2D0Z2IA6WAR,3180JW2OT8S6VZ19A7R85JLVICW5JW,2,1
2,3,object_07,object_04,698.70000004768,5,2,501.39999997616,0.1111111111111111,1,object_03,5,10,0,1,4,library_8,1,memory-2step-stake-s,494,852432,0.0-19.0-0.0-0.2,A3HW4QDJB63OQ2,3Q9SPIIRXM2ML6FVM0W2D0Z2IA6WAR,3180JW2OT8S6VZ19A7R85JLVICW5JW,6,5
3,3,object_04,object_07,920.60000002384,5,1,584.5,0.1111111111111111,1,object_03,5,15,0,1,3,library_5,1,memory-2step-stake-s,495,860399,0.0-19.0-0.0-0.3,A3HW4QDJB63OQ2,3Q9SPIIRXM2ML6FVM0W2D0Z2IA6WAR,3180JW2OT8S6VZ19A7R85JLVICW5JW,5,6
4,1,object_05,object_09,894.5,2,1,478.89999997616,0.3333333333333333,2,object_08,1,18,0,3,3,desert_4,1,memory-2step-stake-s,496,868466,0.0-19.0-0.0-0.4,A3HW4QDJB63OQ2,3Q9SPIIRXM2ML6FVM0W2D0Z2IA6WAR,3180JW2OT8S6VZ19A7R85JLVICW5JW,2,1
5,2,object_02,object_06,1130.2000000477,3,2,574.10000002384,0.0,1,object_03,1,18,0,0,6,forest_4,1,memory-2step-stake-s,497,876282,0.0-19.0-0.0-0.5,A3HW4QDJB63OQ2,3Q9SPIIRXM2ML6FVM0W2D0Z2IA6WAR,3180JW2OT8S6VZ19A7R85JLVICW5JW,4,3
6,2,object_02,object_06,1053.0,4,1,406.10000002384,0.3333333333333333,2,object_08,5,33,0,1,3,forest_8,1,memory-2step-stake-s,498,884270,0.0-19.0-0.0-0.6,A3HW4QDJB63OQ2,3Q9SPIIRXM2ML6FVM0W2D0Z2IA6WAR,3180JW2OT8S6VZ19A7R85JLVICW5JW,4,3
7,1,object_05,object_09,472.0,1,2,425.20000004768,0.0,1,object_03,1,33,0,0,5,desert_3,1,memory-2step-stake-s,499,891957,0.0-19.0-0.0-0.7,A3HW4QDJB63OQ2,3Q9SPIIRXM2ML6FVM0W2D0Z2IA6WAR,3180JW2OT8S6VZ19A7R85JLVICW5JW,2,1
8,2,object_06,object_02,1040.1000000238,3,1,343.0,0.1111111111111111,1,object_03,5,38,0,1,4,forest_4,1,memory-2step-stake-s,500,899668,0.0-19.0-0.0-0.8,A3HW4QDJB63OQ2,3Q9SPIIRXM2ML6FVM0W2D0Z2IA6WAR,3180JW2OT8S6VZ19A7R85JLVICW5JW,3,4
9,1,object_05,object_09,1199.8000000715,2,1,556.5,0.3333333333333333,2,object_08,1,41,0,1,3,desert_4,1,memory-2step-stake-s,501,907803,0.0-19.0-0.0-0.9,A3HW4QDJB63OQ2,3Q9SPIIRXM2ML6FVM0W2D0Z2IA6WAR,3180JW2OT8S6VZ19A7R85JLVICW5JW,2,1
10,1,object_09,object_05,1166.6999999285,2,2,406.0,0.2222222222222222,2,object_08,1,43,0,1,2,desert_4,1,memory-2step-stake-s,502,915670,0.0-19.0-0.0-0.10,A3HW4QDJB63OQ2,3Q9SPIIRXM2ML6FVM0W2D0Z2IA6WAR,3180JW2OT8S6VZ19A7R85JLVICW5JW,1,2
11,4,object_01,object_10,1011.5999999046,8,2,393.89999997616,0.4444444444444444,2,object_08,5,63,0,0,4,restaurant_2,1,memory-2step-stake-s,503,923752,0.0-19.0-0.0-0.11,A3HW4QDJB63OQ2,3Q9SPIIRXM2ML6FVM0W2D0Z2IA6WAR,3180JW2OT8S6VZ19A7R85JLVICW5JW,7,8
12,2,object_02,object_06,733.30000007153,3,2,366.10000002384,0.1111111111111111,1,object_03,5,68,0,1,6,forest_4,1,memory-2step-stake-s,504,931484,0.0-19.0-0.0-0.12,A3HW4QDJB63OQ2,3Q9SPIIRXM2ML6FVM0W2D0Z2IA6WAR,3180JW2OT8S6VZ19A7R85JLVICW5JW,4,3
13,1,object_09,object_05,961.0,1,1,522.39999997616,0.1111111111111111,1,object_03,5,73,0,1,7,desert_7,1,memory-2step-stake-s,505,939370,0.0-19.0-0.0-0.13,A3HW4QDJB63OQ2,3Q9SPIIRXM2ML6FVM0W2D0Z2IA6WAR,3180JW2OT8S6VZ19A7R85JLVICW5JW,1,2
14,1,object_09,object_05,914.0,1,1,497.39999997616,0.1111111111111111,1,object_03,1,74,0,1,6,desert_7,1,memory-2step-stake-s,506,947221,0.0-19.0-0.0-0.14,A3HW4QDJB63OQ2,3Q9SPIIRXM2ML6FVM0W2D0Z2IA6WAR,3180JW2OT8S6VZ19A7R85JLVICW5JW,1,2
15,4,object_10,object_01,1012.5,8,1,368.69999992847,0.6666666666666666,2,object_08,5,104,0,1,6,restaurant_2,1,memory-2step-stake-s,507,955497,0.0-19.0-0.0-0.15,A3HW4QDJB63OQ2,3Q9SPIIRXM2ML6FVM0W2D0Z2IA6WAR,3180JW2OT8S6VZ19A7R85JLVICW5JW,8,7
16,3,object_07,object_04,879.79999995232,5,2,563.19999992847,0.2222222222222222,1,object_03,5,114,0,2,8,library_8,1,memory-2step-stake-s,508,963546,0.0-19.0-0.0-0.16,A3HW4QDJB63OQ2,3Q9SPIIRXM2ML6FVM0W2D0Z2IA6WAR,3180JW2OT8S6VZ19A7R85JLVICW5JW,6,5
17,1,object_05,object_09,708.39999997616,1,2,672.69999992847,0.4444444444444444,1,object_03,5,134,0,4,6,desert_3,1,memory-2step-stake-s,509,971897,0.0-19.0-0.0-0.17,A3HW4QDJB63OQ2,3Q9SPIIRXM2ML6FVM0W2D0Z2IA6WAR,3180JW2OT8S6VZ19A7R85JLVICW5JW,2,1
18,4,object_01,object_10,1232.1999999285,8,2,516.20000004768,0.5555555555555556,2,object_08,5,159,0,4,5,restaurant_6,1,memory-2step-stake-s,510,980213,0.0-19.0-0.0-0.18,A3HW4QDJB63OQ2,3Q9SPIIRXM2ML6FVM0W2D0Z2IA6WAR,3180JW2OT8S6VZ19A7R85JLVICW5JW,7,8
19,4,object_10,object_01,951.89999997616,8,1,569.90000009537,0.8888888888888888,2,object_08,1,167,0,2,8,restaurant_2,1,memory-2step-stake-s,511,988858,0.0-19.0-0.0-0.19,A3HW4QDJB63OQ2,3Q9SPIIRXM2ML6FVM0W2D0Z2IA6WAR,3180JW2OT8S6VZ19A7R85JLVICW5JW,8,7
20,1,object_05,object_09,893.20000004768,1,2,349.69999992847,0.4444444444444444,1,object_03,1,171,0,4,7,desert_3,1,memory-2step-stake-s,512,996900,0.0-19.0-0.0-0.20,A3HW4QDJB63OQ2,3Q9SPIIRXM2ML6FVM0W2D0Z2IA6WAR,3180JW2OT8S6VZ19A7R85JLVICW5JW,2,1
21,3,object_04,object_07,1157.0999999046,5,1,421.20000004768,0.7777777777777778,1,object_03,5,206,0,7,6,library_5,1,memory-2step-stake-s,513,1005307,0.0-19.0-0.0-0.21,A3HW4QDJB63OQ2,3Q9SPIIRXM2ML6FVM0W2D0Z2IA6WAR,3180JW2OT8S6VZ19A7R85JLVICW5JW,5,6
22,3,object_07,object_04,700.80000007153,5,2,337.39999997616,0.7777777777777778,1,object_03,5,241,0,7,8,library_4,1,memory-2step-stake-s,514,1013635,0.0-19.0-0.0-0.22,A3HW4QDJB63OQ2,3Q9SPIIRXM2ML6FVM0W2D0Z2IA6WAR,3180JW2OT8S6VZ19A7R85JLVICW5JW,6,5
23,1,object_09,object_05,925.5,1,1,313.19999992847,0.5555555555555556,1,object_03,1,246,0,5,9,desert_3,1,memory-2step-stake-s,515,1021739,0.0-19.0-0.0-0.23,A3HW4QDJB63OQ2,3Q9SPIIRXM2ML6FVM0W2D0Z2IA6WAR,3180JW2OT8S6VZ19A7R85JLVICW5JW,1,2
24,2,object_06,object_02,1029.0999999046,3,1,708.69999992847,0.7777777777777778,1,object_03,1,253,0,7,6,forest_3,1,memory-2step-stake-s,516,1030482,0.0-19.0-0.0-0.24,A3HW4QDJB63OQ2,3Q9SPIIRXM2ML6FVM0W2D0Z2IA6WAR,3180JW2OT8S6VZ19A7R85JLVICW5JW,3,4
25,3,object_04,object_07,1046.0999999046,5,1,426.89999997616,0.7777777777777778,1,object_03,1,260,0,7,7,library_4,1,memory-2step-stake-s,517,1038937,0.0-19.0-0.0-0.25,A3HW4QDJB63OQ2,3Q9SPIIRXM2ML6FVM0W2D0Z2IA6WAR,3180JW2OT8S6VZ19A7R85JLVICW5JW,5,6
26,1,object_09,object_05,897.79999995232,2,2,407.0,0.6666666666666666,2,object_08,1,266,0,6,6,desert_8,1,memory-2step-stake-s,518,1047231,0.0-19.0-0.0-0.26,A3HW4QDJB63OQ2,3Q9SPIIRXM2ML6FVM0W2D0Z2IA6WAR,3180JW2OT8S6VZ19A7R85JLVICW5JW,1,2
27,1,object_09,object_05,1054.3000000715,1,1,354.10000002384,0.5555555555555556,1,object_03,1,271,0,5,8,desert_4,1,memory-2step-stake-s,519,1055393,0.0-19.0-0.0-0.27,A3HW4QDJB63OQ2,3Q9SPIIRXM2ML6FVM0W2D0Z2IA6WAR,3180JW2OT8S6VZ19A7R85JLVICW5JW,1,2
28,1,object_09,object_05,1005.3999999762,1,1,398.60000002384,0.5555555555555556,1,object_03,1,276,0,5,8,desert_3,1,memory-2step-stake-s,520,1063587,0.0-19.0-0.0-0.28,A3HW4QDJB63OQ2,3Q9SPIIRXM2ML6FVM0W2D0Z2IA6WAR,3180JW2OT8S6VZ19A7R85JLVICW5JW,1,2
29,3,object_07,object_04,693.60000002384,5,2,428.5,0.6666666666666666,1,object_03,5,306,0,6,7,library_4,1,memory-2step-stake-s,521,1071892,0.0-19.0-0.0-0.29,A3HW4QDJB63OQ2,3Q9SPIIRXM2ML6FVM0W2D0Z2IA6WAR,3180JW2OT8S6VZ19A7R85JLVICW5JW,6,5
30,3,object_04,object_07,580.0,5,1,264.5,0.6666666666666666,1,object_03,1,312,0,6,9,library_8,1,memory-2step-stake-s,522,1080025,0.0-19.0-0.0-0.30,A3HW4QDJB63OQ2,3Q9SPIIRXM2ML6FVM0W2D0Z2IA6WAR,3180JW2OT8S6VZ19A7R85JLVICW5JW,5,6
31,4,object_10,object_01,1253.0,8,1,590.39999997616,0.6666666666666666,2,object_08,5,342,0,3,6,restaurant_6,1,memory-2step-stake-s,523,1088512,0.0-19.0-0.0-0.31,A3HW4QDJB63OQ2,3Q9SPIIRXM2ML6FVM0W2D0Z2IA6WAR,3180JW2OT8S6VZ19A7R85JLVICW5JW,8,7
32,1,object_09,object_05,867.30000007153,1,1,546.30000007153,0.1111111111111111,1,object_03,1,343,0,1,4,desert_8,1,memory-2step-stake-s,524,1096443,0.0-19.0-0.0-0.32,A3HW4QDJB63OQ2,3Q9SPIIRXM2ML6FVM0W2D0Z2IA6WAR,3180JW2OT8S6VZ19A7R85JLVICW5JW,1,2
33,4,object_01,object_10,1015.6000000238,8,2,350.69999992847,0.6666666666666666,2,object_08,5,373,0,1,6,restaurant_1,1,memory-2step-stake-s,525,1104679,0.0-19.0-0.0-0.33,A3HW4QDJB63OQ2,3Q9SPIIRXM2ML6FVM0W2D0Z2IA6WAR,3180JW2OT8S6VZ19A7R85JLVICW5JW,7,8
34,1,object_05,object_09,1025.1000000238,1,2,431.5,0.2222222222222222,1,object_03,1,375,0,2,5,desert_3,1,memory-2step-stake-s,526,1112580,0.0-19.0-0.0-0.34,A3HW4QDJB63OQ2,3Q9SPIIRXM2ML6FVM0W2D0Z2IA6WAR,3180JW2OT8S6VZ19A7R85JLVICW5JW,2,1
35,1,object_09,object_05,812.80000007153,1,1,327.39999997616,0.1111111111111111,1,object_03,1,376,0,1,4,desert_8,1,memory-2step-stake-s,527,1120297,0.0-19.0-0.0-0.35,A3HW4QDJB63OQ2,3Q9SPIIRXM2ML6FVM0W2D0Z2IA6WAR,3180JW2OT8S6VZ19A7R85JLVICW5JW,1,2
36,4,object_01,object_10,755.5,8,2,413.39999997616,0.6666666666666666,2,object_08,5,406,0,1,6,restaurant_6,1,memory-2step-stake-s,528,1128623,0.0-19.0-0.0-0.36,A3HW4QDJB63OQ2,3Q9SPIIRXM2ML6FVM0W2D0Z2IA6WAR,3180JW2OT8S6VZ19A7R85JLVICW5JW,7,8
37,1,object_09,object_05,897.60000002384,1,1,376.59999990463,0.0,1,object_03,5,406,0,0,5,desert_3,1,memory-2step-stake-s,529,1136273,0.0-19.0-0.0-0.37,A3HW4QDJB63OQ2,3Q9SPIIRXM2ML6FVM0W2D0Z2IA6WAR,3180JW2OT8S6VZ19A7R85JLVICW5JW,1,2
38,4,object_01,object_10,885.89999997616,8,2,377.5,0.6666666666666666,2,object_08,1,412,0,3,6,restaurant_8,1,memory-2step-stake-s,530,1144555,0.0-19.0-0.0-0.38,A3HW4QDJB63OQ2,3Q9SPIIRXM2ML6FVM0W2D0Z2IA6WAR,3180JW2OT8S6VZ19A7R85JLVICW5JW,7,8
39,4,object_10,object_01,841.09999990463,8,1,334.09999990463,0.7777777777777778,2,object_08,5,447,0,2,7,restaurant_6,1,memory-2step-stake-s,531,1152877,0.0-19.0-0.0-0.39,A3HW4QDJB63OQ2,3Q9SPIIRXM2ML6FVM0W2D0Z2IA6WAR,3180JW2OT8S6VZ19A7R85JLVICW5JW,8,7
40,4,object_01,object_10,780.90000009537,8,2,368.89999997616,0.7777777777777778,2,object_08,1,454,0,4,7,restaurant_6,1,memory-2step-stake-s,532,1161253,0.0-19.0-0.0-0.40,A3HW4QDJB63OQ2,3Q9SPIIRXM2ML6FVM0W2D0Z2IA6WAR,3180JW2OT8S6VZ19A7R85JLVICW5JW,7,8
41,4,object_01,object_10,729.29999995232,8,2,312.19999992847,0.6666666666666666,2,object_08,5,484,0,7,6,restaurant_1,1,memory-2step-stake-s,533,1169447,0.0-19.0-0.0-0.41,A3HW4QDJB63OQ2,3Q9SPIIRXM2ML6FVM0W2D0Z2IA6WAR,3180JW2OT8S6VZ19A7R85JLVICW5JW,7,8
42,3,object_07,object_04,651.10000002384,5,2,312.10000002384,0.7777777777777778,1,object_03,5,519,0,7,5,library_4,1,memory-2step-stake-s,534,1177728,0.0-19.0-0.0-0.42,A3HW4QDJB63OQ2,3Q9SPIIRXM2ML6FVM0W2D0Z2IA6WAR,3180JW2OT8S6VZ19A7R85JLVICW5JW,6,5
43,2,object_06,object_02,984.60000002384,3,1,248.69999992847,0.6666666666666666,1,object_03,1,525,0,6,6,forest_6,1,memory-2step-stake-s,535,1185832,0.0-19.0-0.0-0.43,A3HW4QDJB63OQ2,3Q9SPIIRXM2ML6FVM0W2D0Z2IA6WAR,3180JW2OT8S6VZ19A7R85JLVICW5JW,3,4
44,3,object_04,object_07,573.20000004768,5,1,236.70000004768,0.6666666666666666,1,object_03,5,555,0,6,8,library_7,1,memory-2step-stake-s,536,1193938,0.0-19.0-0.0-0.44,A3HW4QDJB63OQ2,3Q9SPIIRXM2ML6FVM0W2D0Z2IA6WAR,3180JW2OT8S6VZ19A7R85JLVICW5JW,5,6
45,2,object_06,object_02,758.20000004768,3,1,376.10000002384,0.7777777777777778,1,object_03,1,562,0,7,6,forest_3,1,memory-2step-stake-s,537,1202315,0.0-19.0-0.0-0.45,A3HW4QDJB63OQ2,3Q9SPIIRXM2ML6FVM0W2D0Z2IA6WAR,3180JW2OT8S6VZ19A7R85JLVICW5JW,3,4
46,4,object_10,object_01,858.79999995232,8,1,391.60000002384,0.4444444444444444,2,object_08,5,582,0,9,4,restaurant_1,1,memory-2step-stake-s,538,1210401,0.0-19.0-0.0-0.46,A3HW4QDJB63OQ2,3Q9SPIIRXM2ML6FVM0W2D0Z2IA6WAR,3180JW2OT8S6VZ19A7R85JLVICW5JW,8,7
47,3,object_07,object_04,508.0,5,2,297.69999992847,0.8888888888888888,1,object_03,5,622,0,8,5,library_5,1,memory-2step-stake-s,539,1218800,0.0-19.0-0.0-0.47,A3HW4QDJB63OQ2,3Q9SPIIRXM2ML6FVM0W2D0Z2IA6WAR,3180JW2OT8S6VZ19A7R85JLVICW5JW,6,5
48,4,object_10,object_01,744.60000002384,8,1,362.80000007153,0.4444444444444444,2,object_08,5,642,0,9,4,restaurant_6,1,memory-2step-stake-s,540,1226841,0.0-19.0-0.0-0.48,A3HW4QDJB63OQ2,3Q9SPIIRXM2ML6FVM0W2D0Z2IA6WAR,3180JW2OT8S6VZ19A7R85JLVICW5JW,8,7
49,3,object_04,object_07,531.0,5,1,265.69999992847,0.7777777777777778,1,object_03,5,677,0,7,3,library_8,1,memory-2step-stake-s,541,1235112,0.0-19.0-0.0-0.49,A3HW4QDJB63OQ2,3Q9SPIIRXM2ML6FVM0W2D0Z2IA6WAR,3180JW2OT8S6VZ19A7R85JLVICW5JW,5,6
50,1,object_09,object_05,855.89999997616,1,1,397.79999995232,0.8888888888888888,1,object_03,1,685,0,8,2,desert_7,1,memory-2step-stake-s,542,1243588,0.0-19.0-0.0-0.50,A3HW4QDJB63OQ2,3Q9SPIIRXM2ML6FVM0W2D0Z2IA6WAR,3180JW2OT8S6VZ19A7R85JLVICW5JW,1,2
51,4,object_01,object_10,790.79999995232,8,2,327.39999997616,0.4444444444444444,2,object_08,5,705,0,9,4,restaurant_8,1,memory-2step-stake-s,543,1251589,0.0-19.0-0.0-0.51,A3HW4QDJB63OQ2,3Q9SPIIRXM2ML6FVM0W2D0Z2IA6WAR,3180JW2OT8S6VZ19A7R85JLVICW5JW,7,8
52,3,object_07,object_04,857.30000007153,5,2,288.79999995232,0.7777777777777778,1,object_03,5,740,0,7,6,library_8,1,memory-2step-stake-s,544,1259878,0.0-19.0-0.0-0.52,A3HW4QDJB63OQ2,3Q9SPIIRXM2ML6FVM0W2D0Z2IA6WAR,3180JW2OT8S6VZ19A7R85JLVICW5JW,6,5
53,2,object_02,object_06,1128.7000000477,4,1,319.89999997616,0.5555555555555556,2,object_08,1,745,0,8,5,forest_6,1,memory-2step-stake-s,545,1267993,0.0-19.0-0.0-0.53,A3HW4QDJB63OQ2,3Q9SPIIRXM2ML6FVM0W2D0Z2IA6WAR,3180JW2OT8S6VZ19A7R85JLVICW5JW,4,3
54,1,object_09,object_05,1500.2000000477,1,1,392.0,0.8888888888888888,1,object_03,1,753,0,8,3,desert_4,1,memory-2step-stake-s,546,1276468,0.0-19.0-0.0-0.54,A3HW4QDJB63OQ2,3Q9SPIIRXM2ML6FVM0W2D0Z2IA6WAR,3180JW2OT8S6VZ19A7R85JLVICW5JW,1,2
55,2,object_02,object_06,456.89999997616,4,1,259.10000002384,0.3333333333333333,2,object_08,5,768,0,9,3,forest_6,1,memory-2step-stake-s,547,1284326,0.0-19.0-0.0-0.55,A3HW4QDJB63OQ2,3Q9SPIIRXM2ML6FVM0W2D0Z2IA6WAR,3180JW2OT8S6VZ19A7R85JLVICW5JW,4,3
56,4,object_10,object_01,722.69999992847,8,1,364.29999995232,0.6666666666666666,2,object_08,1,774,0,8,6,restaurant_1,1,memory-2step-stake-s,548,1292574,0.0-19.0-0.0-0.56,A3HW4QDJB63OQ2,3Q9SPIIRXM2ML6FVM0W2D0Z2IA6WAR,3180JW2OT8S6VZ19A7R85JLVICW5JW,8,7
57,4,object_10,object_01,950.19999992847,8,1,309.60000002384,0.5555555555555556,2,object_08,5,799,0,7,5,restaurant_8,1,memory-2step-stake-s,549,1300661,0.0-19.0-0.0-0.57,A3HW4QDJB63OQ2,3Q9SPIIRXM2ML6FVM0W2D0Z2IA6WAR,3180JW2OT8S6VZ19A7R85JLVICW5JW,8,7
58,2,object_06,object_02,821.89999997616,4,2,562.10000002384,0.6666666666666666,2,object_08,1,805,0,8,6,forest_4,1,memory-2step-stake-s,550,1309145,0.0-19.0-0.0-0.58,A3HW4QDJB63OQ2,3Q9SPIIRXM2ML6FVM0W2D0Z2IA6WAR,3180JW2OT8S6VZ19A7R85JLVICW5JW,3,4
59,4,object_01,object_10,1050.5,8,2,360.60000002384,0.7777777777777778,2,object_08,5,840,0,6,7,restaurant_8,1,memory-2step-stake-s,551,1317492,0.0-19.0-0.0-0.59,A3HW4QDJB63OQ2,3Q9SPIIRXM2ML6FVM0W2D0Z2IA6WAR,3180JW2OT8S6VZ19A7R85JLVICW5JW,7,8
60,4,object_01,object_10,806.0,8,2,263.60000002384,1.0,2,object_08,5,885,0,3,9,restaurant_1,1,memory-2step-stake-s,552,1325928,0.0-19.0-0.0-0.60,A3HW4QDJB63OQ2,3Q9SPIIRXM2ML6FVM0W2D0Z2IA6WAR,3180JW2OT8S6VZ19A7R85JLVICW5JW,7,8
61,2,object_02,object_06,701.60000002384,4,1,225.29999995232,0.7777777777777778,2,object_08,1,892,0,4,7,forest_4,1,memory-2step-stake-s,553,1334142,0.0-19.0-0.0-0.61,A3HW4QDJB63OQ2,3Q9SPIIRXM2ML6FVM0W2D0Z2IA6WAR,3180JW2OT8S6VZ19A7R85JLVICW5JW,4,3
62,1,object_09,object_05,879.80000007153,1,1,308.39999997616,0.5555555555555556,1,object_03,1,897,0,5,4,desert_4,1,memory-2step-stake-s,554,1342245,0.0-19.0-0.0-0.62,A3HW4QDJB63OQ2,3Q9SPIIRXM2ML6FVM0W2D0Z2IA6WAR,3180JW2OT8S6VZ19A7R85JLVICW5JW,1,2
63,4,object_10,object_01,853.0,8,1,263.5,1.0,2,object_08,5,942,0,3,9,restaurant_6,1,memory-2step-stake-s,555,1350702,0.0-19.0-0.0-0.63,A3HW4QDJB63OQ2,3Q9SPIIRXM2ML6FVM0W2D0Z2IA6WAR,3180JW2OT8S6VZ19A7R85JLVICW5JW,8,7
64,4,object_10,object_01,579.89999997616,8,1,259.10000002384,0.6666666666666666,2,object_08,5,972,0,2,6,restaurant_8,1,memory-2step-stake-s,556,1358852,0.0-19.0-0.0-0.64,A3HW4QDJB63OQ2,3Q9SPIIRXM2ML6FVM0W2D0Z2IA6WAR,3180JW2OT8S6VZ19A7R85JLVICW5JW,8,7
65,3,object_07,object_04,593.39999997616,5,2,234.60000002384,0.1111111111111111,1,object_03,5,977,0,1,6,library_7,1,memory-2step-stake-s,557,1366440,0.0-19.0-0.0-0.65,A3HW4QDJB63OQ2,3Q9SPIIRXM2ML6FVM0W2D0Z2IA6WAR,3180JW2OT8S6VZ19A7R85JLVICW5JW,6,5
66,4,object_01,object_10,728.89999997616,8,2,385.60000002384,0.8888888888888888,2,object_08,5,1017,0,1,8,restaurant_6,1,memory-2step-stake-s,558,1374933,0.0-19.0-0.0-0.66,A3HW4QDJB63OQ2,3Q9SPIIRXM2ML6FVM0W2D0Z2IA6WAR,3180JW2OT8S6VZ19A7R85JLVICW5JW,7,8
67,4,object_01,object_10,777.89999997616,8,2,261.60000002384,0.7777777777777778,2,object_08,5,1052,0,1,7,restaurant_8,1,memory-2step-stake-s,559,1383210,0.0-19.0-0.0-0.67,A3HW4QDJB63OQ2,3Q9SPIIRXM2ML6FVM0W2D0Z2IA6WAR,3180JW2OT8S6VZ19A7R85JLVICW5JW,7,8
68,1,object_09,object_05,684.19999992847,1,1,295.0,0.3333333333333333,1,object_03,1,1055,0,3,6,desert_8,1,memory-2step-stake-s,560,1391080,0.0-19.0-0.0-0.68,A3HW4QDJB63OQ2,3Q9SPIIRXM2ML6FVM0W2D0Z2IA6WAR,3180JW2OT8S6VZ19A7R85JLVICW5JW,1,2
69,4,object_10,object_01,633.90000009537,8,1,380.10000002384,0.6666666666666666,2,object_08,1,1061,0,2,6,restaurant_2,1,memory-2step-stake-s,561,1399322,0.0-19.0-0.0-0.69,A3HW4QDJB63OQ2,3Q9SPIIRXM2ML6FVM0W2D0Z2IA6WAR,3180JW2OT8S6VZ19A7R85JLVICW5JW,8,7
70,1,object_05,object_09,747.10000002384,1,2,351.10000002384,0.2222222222222222,1,object_03,1,1063,0,2,7,desert_8,1,memory-2step-stake-s,562,1407170,0.0-19.0-0.0-0.70,A3HW4QDJB63OQ2,3Q9SPIIRXM2ML6FVM0W2D0Z2IA6WAR,3180JW2OT8S6VZ19A7R85JLVICW5JW,2,1
71,3,object_04,object_07,1172.0999999046,6,2,360.79999995232,1.0,2,object_08,5,1108,0,4,9,library_4,1,memory-2step-stake-s,563,1415696,0.0-19.0-0.0-0.71,A3HW4QDJB63OQ2,3Q9SPIIRXM2ML6FVM0W2D0Z2IA6WAR,3180JW2OT8S6VZ19A7R85JLVICW5JW,5,6
72,4,object_01,object_10,748.89999997616,8,2,255.79999995232,1.0,2,object_08,5,1153,0,8,9,restaurant_2,1,memory-2step-stake-s,564,1424127,0.0-19.0-0.0-0.72,A3HW4QDJB63OQ2,3Q9SPIIRXM2ML6FVM0W2D0Z2IA6WAR,3180JW2OT8S6VZ19A7R85JLVICW5JW,7,8
73,3,object_07,object_04,791.0,6,1,275.5,1.0,2,object_08,1,1162,0,6,9,library_4,1,memory-2step-stake-s,565,1432579,0.0-19.0-0.0-0.73,A3HW4QDJB63OQ2,3Q9SPIIRXM2ML6FVM0W2D0Z2IA6WAR,3180JW2OT8S6VZ19A7R85JLVICW5JW,6,5
74,2,object_02,object_06,693.39999997616,4,1,365.79999995232,0.8888888888888888,2,object_08,1,1170,0,3,8,forest_8,1,memory-2step-stake-s,566,1441045,0.0-19.0-0.0-0.74,A3HW4QDJB63OQ2,3Q9SPIIRXM2ML6FVM0W2D0Z2IA6WAR,3180JW2OT8S6VZ19A7R85JLVICW5JW,4,3
75,1,object_05,object_09,1062.5,1,2,344.60000002384,0.3333333333333333,1,object_03,1,1173,0,3,6,desert_8,1,memory-2step-stake-s,567,1448975,0.0-19.0-0.0-0.75,A3HW4QDJB63OQ2,3Q9SPIIRXM2ML6FVM0W2D0Z2IA6WAR,3180JW2OT8S6VZ19A7R85JLVICW5JW,2,1
76,2,object_06,object_02,646.20000004768,4,2,253.39999997616,0.7777777777777778,2,object_08,1,1180,0,3,7,forest_3,1,memory-2step-stake-s,568,1457205,0.0-19.0-0.0-0.76,A3HW4QDJB63OQ2,3Q9SPIIRXM2ML6FVM0W2D0Z2IA6WAR,3180JW2OT8S6VZ19A7R85JLVICW5JW,3,4
77,1,object_05,object_09,1058.3000000715,1,2,370.39999997616,0.3333333333333333,1,object_03,1,1183,0,3,9,desert_7,1,memory-2step-stake-s,569,1465141,0.0-19.0-0.0-0.77,A3HW4QDJB63OQ2,3Q9SPIIRXM2ML6FVM0W2D0Z2IA6WAR,3180JW2OT8S6VZ19A7R85JLVICW5JW,2,1
78,4,object_10,object_01,961.5,8,1,429.69999992847,0.8888888888888888,2,object_08,5,1223,0,2,8,restaurant_8,1,memory-2step-stake-s,570,1473682,0.0-19.0-0.0-0.78,A3HW4QDJB63OQ2,3Q9SPIIRXM2ML6FVM0W2D0Z2IA6WAR,3180JW2OT8S6VZ19A7R85JLVICW5JW,8,7
79,3,object_04,object_07,902.80000007153,6,2,283.0,0.6666666666666666,2,object_08,5,1253,0,3,6,library_4,1,memory-2step-stake-s,571,1481847,0.0-19.0-0.0-0.79,A3HW4QDJB63OQ2,3Q9SPIIRXM2ML6FVM0W2D0Z2IA6WAR,3180JW2OT8S6VZ19A7R85JLVICW5JW,5,6
80,3,object_04,object_07,1013.2000000477,6,2,228.39999997616,0.6666666666666666,2,object_08,1,1259,0,2,6,library_8,1,memory-2step-stake-s,572,1489953,0.0-19.0-0.0-0.80,A3HW4QDJB63OQ2,3Q9SPIIRXM2ML6FVM0W2D0Z2IA6WAR,3180JW2OT8S6VZ19A7R85JLVICW5JW,5,6
81,3,object_07,object_04,785.19999992847,6,1,242.69999992847,0.7777777777777778,2,object_08,5,1294,0,2,7,library_4,1,memory-2step-stake-s,573,1498163,0.0-19.0-0.0-0.81,A3HW4QDJB63OQ2,3Q9SPIIRXM2ML6FVM0W2D0Z2IA6WAR,3180JW2OT8S6VZ19A7R85JLVICW5JW,6,5
82,2,object_06,object_02,777.10000002384,4,2,236.69999992847,0.8888888888888888,2,object_08,5,1334,0,2,8,forest_4,1,memory-2step-stake-s,574,1506472,0.0-19.0-0.0-0.82,A3HW4QDJB63OQ2,3Q9SPIIRXM2ML6FVM0W2D0Z2IA6WAR,3180JW2OT8S6VZ19A7R85JLVICW5JW,3,4
83,3,object_07,object_04,619.10000002384,6,1,196.79999995232,1.0,2,object_08,5,1379,0,1,9,library_5,1,memory-2step-stake-s,575,1514872,0.0-19.0-0.0-0.83,A3HW4QDJB63OQ2,3Q9SPIIRXM2ML6FVM0W2D0Z2IA6WAR,3180JW2OT8S6VZ19A7R85JLVICW5JW,6,5
84,1,object_05,object_09,760.5,1,2,446.09999990463,0.1111111111111111,1,object_03,1,1380,0,1,7,desert_7,1,memory-2step-stake-s,576,1522683,0.0-19.0-0.0-0.84,A3HW4QDJB63OQ2,3Q9SPIIRXM2ML6FVM0W2D0Z2IA6WAR,3180JW2OT8S6VZ19A7R85JLVICW5JW,2,1
85,3,object_07,object_04,853.39999997616,6,1,271.0,0.7777777777777778,2,object_08,5,1415,0,0,7,library_7,1,memory-2step-stake-s,577,1530938,0.0-19.0-0.0-0.85,A3HW4QDJB63OQ2,3Q9SPIIRXM2ML6FVM0W2D0Z2IA6WAR,3180JW2OT8S6VZ19A7R85JLVICW5JW,6,5
86,2,object_06,object_02,831.20000004768,4,2,418.70000004768,0.2222222222222222,2,object_08,1,1417,0,3,2,forest_6,1,memory-2step-stake-s,578,1538852,0.0-19.0-0.0-0.86,A3HW4QDJB63OQ2,3Q9SPIIRXM2ML6FVM0W2D0Z2IA6WAR,3180JW2OT8S6VZ19A7R85JLVICW5JW,3,4
87,1,object_09,object_05,1140.0,2,2,324.39999997616,0.0,2,object_08,1,1417,0,3,0,desert_3,1,memory-2step-stake-s,579,1546436,0.0-19.0-0.0-0.87,A3HW4QDJB63OQ2,3Q9SPIIRXM2ML6FVM0W2D0Z2IA6WAR,3180JW2OT8S6VZ19A7R85JLVICW5JW,1,2
88,2,object_02,object_06,859.79999995232,4,1,250.10000002384,0.2222222222222222,2,object_08,1,1419,0,0,2,forest_6,1,memory-2step-stake-s,580,1554133,0.0-19.0-0.0-0.88,A3HW4QDJB63OQ2,3Q9SPIIRXM2ML6FVM0W2D0Z2IA6WAR,3180JW2OT8S6VZ19A7R85JLVICW5JW,4,3
89,4,object_10,object_01,840.20000004768,8,1,346.79999995232,0.3333333333333333,2,object_08,5,1434,0,1,3,restaurant_6,1,memory-2step-stake-s,581,1562042,0.0-19.0-0.0-0.89,A3HW4QDJB63OQ2,3Q9SPIIRXM2ML6FVM0W2D0Z2IA6WAR,3180JW2OT8S6VZ19A7R85JLVICW5JW,8,7
90,1,object_05,object_09,1128.5,2,1,320.39999997616,0.5555555555555556,2,object_08,5,1459,0,4,5,desert_4,1,memory-2step-stake-s,582,1570124,0.0-19.0-0.0-0.90,A3HW4QDJB63OQ2,3Q9SPIIRXM2ML6FVM0W2D0Z2IA6WAR,3180JW2OT8S6VZ19A7R85JLVICW5JW,2,1
91,2,object_02,object_06,968.29999995232,4,1,481.5,0.4444444444444444,2,object_08,1,1463,0,3,4,forest_8,1,memory-2step-stake-s,583,1578291,0.0-19.0-0.0-0.91,A3HW4QDJB63OQ2,3Q9SPIIRXM2ML6FVM0W2D0Z2IA6WAR,3180JW2OT8S6VZ19A7R85JLVICW5JW,4,3
92,1,object_05,object_09,1096.6000000238,1,2,318.10000002384,0.2222222222222222,1,object_03,1,1465,0,2,4,desert_4,1,memory-2step-stake-s,584,1586069,0.0-19.0-0.0-0.92,A3HW4QDJB63OQ2,3Q9SPIIRXM2ML6FVM0W2D0Z2IA6WAR,3180JW2OT8S6VZ19A7R85JLVICW5JW,2,1
93,1,object_09,object_05,1326.2999999523,1,1,461.5,0.0,1,object_03,1,1465,0,0,5,desert_8,1,memory-2step-stake-s,585,1593780,0.0-19.0-0.0-0.93,A3HW4QDJB63OQ2,3Q9SPIIRXM2ML6FVM0W2D0Z2IA6WAR,3180JW2OT8S6VZ19A7R85JLVICW5JW,1,2
94,4,object_10,object_01,638.89999997616,8,1,268.5,0.7777777777777778,2,object_08,5,1500,0,1,7,restaurant_8,1,memory-2step-stake-s,586,1602051,0.0-19.0-0.0-0.94,A3HW4QDJB63OQ2,3Q9SPIIRXM2ML6FVM0W2D0Z2IA6WAR,3180JW2OT8S6VZ19A7R85JLVICW5JW,8,7
95,2,object_02,object_06,1484.2000000477,4,1,593.60000002384,0.4444444444444444,2,object_08,5,1520,0,0,4,forest_3,1,memory-2step-stake-s,587,1610320,0.0-19.0-0.0-0.95,A3HW4QDJB63OQ2,3Q9SPIIRXM2ML6FVM0W2D0Z2IA6WAR,3180JW2OT8S6VZ19A7R85JLVICW5JW,4,3
96,2,object_06,object_02,850.30000007153,4,2,713.70000004768,0.4444444444444444,2,object_08,1,1524,0,1,4,forest_8,1,memory-2step-stake-s,588,1618715,0.0-19.0-0.0-0.96,A3HW4QDJB63OQ2,3Q9SPIIRXM2ML6FVM0W2D0Z2IA6WAR,3180JW2OT8S6VZ19A7R85JLVICW5JW,3,4
97,2,object_06,object_02,874.70000004768,4,2,467.20000004768,0.2222222222222222,2,object_08,1,1526,0,1,2,forest_6,1,memory-2step-stake-s,589,1626624,0.0-19.0-0.0-0.97,A3HW4QDJB63OQ2,3Q9SPIIRXM2ML6FVM0W2D0Z2IA6WAR,3180JW2OT8S6VZ19A7R85JLVICW5JW,3,4
98,3,object_07,object_04,1235.1000000238,5,2,420.89999997616,0.3333333333333333,1,object_03,5,1541,0,3,2,library_8,1,memory-2step-stake-s,590,1634614,0.0-19.0-0.0-0.98,A3HW4QDJB63OQ2,3Q9SPIIRXM2ML6FVM0W2D0Z2IA6WAR,3180JW2OT8S6VZ19A7R85JLVICW5JW,6,5
99,2,object_02,object_06,639.90000009537,4,1,320.70000004768,0.2222222222222222,2,object_08,1,1543,0,2,2,forest_3,1,memory-2step-stake-s,591,1642422,0.0-19.0-0.0-0.99,A3HW4QDJB63OQ2,3Q9SPIIRXM2ML6FVM0W2D0Z2IA6WAR,3180JW2OT8S6VZ19A7R85JLVICW5JW,4,3
100,3,object_07,object_04,1264.8999999762,5,2,320.70000004768,0.1111111111111111,1,object_03,5,1548,0,1,4,library_5,1,memory-2step-stake-s,592,1650115,0.0-19.0-0.0-0.100,A3HW4QDJB63OQ2,3Q9SPIIRXM2ML6FVM0W2D0Z2IA6WAR,3180JW2OT8S6VZ19A7R85JLVICW5JW,6,5
101,1,object_05,object_09,925.89999997616,1,2,360.39999997616,0.4444444444444444,1,object_03,1,1552,0,4,5,desert_4,1,memory-2step-stake-s,593,1658145,0.0-19.0-0.0-0.101,A3HW4QDJB63OQ2,3Q9SPIIRXM2ML6FVM0W2D0Z2IA6WAR,3180JW2OT8S6VZ19A7R85JLVICW5JW,2,1
102,2,object_02,object_06,740.29999995232,4,1,873.60000002384,0.7777777777777778,2,object_08,1,1559,0,4,7,forest_4,1,memory-2step-stake-s,594,1667027,0.0-19.0-0.0-0.102,A3HW4QDJB63OQ2,3Q9SPIIRXM2ML6FVM0W2D0Z2IA6WAR,3180JW2OT8S6VZ19A7R85JLVICW5JW,4,3
103,2,object_06,object_02,646.70000004768,4,2,364.39999997616,0.7777777777777778,2,object_08,1,1566,0,0,7,forest_6,1,memory-2step-stake-s,595,1675410,0.0-19.0-0.0-0.103,A3HW4QDJB63OQ2,3Q9SPIIRXM2ML6FVM0W2D0Z2IA6WAR,3180JW2OT8S6VZ19A7R85JLVICW5JW,3,4
104,4,object_10,object_01,1023.8000000715,8,1,657.70000004768,0.4444444444444444,2,object_08,5,1586,0,0,4,restaurant_6,1,memory-2step-stake-s,596,1683742,0.0-19.0-0.0-0.104,A3HW4QDJB63OQ2,3Q9SPIIRXM2ML6FVM0W2D0Z2IA6WAR,3180JW2OT8S6VZ19A7R85JLVICW5JW,8,7
105,4,object_01,object_10,-1.0,-1,-1,-1.0,0.0,-,0,5,1586,0,3,4,restaurant_2,1,memory-2step-stake-s,597,1690292,0.0-19.0-0.0-0.105,A3HW4QDJB63OQ2,3Q9SPIIRXM2ML6FVM0W2D0Z2IA6WAR,3180JW2OT8S6VZ19A7R85JLVICW5JW,7,8
106,4,object_10,object_01,895.69999992847,8,1,352.20000004768,0.8888888888888888,2,object_08,5,1626,0,5,8,restaurant_8,1,memory-2step-stake-s,598,1698761,0.0-19.0-0.0-0.106,A3HW4QDJB63OQ2,3Q9SPIIRXM2ML6FVM0W2D0Z2IA6WAR,3180JW2OT8S6VZ19A7R85JLVICW5JW,8,7
107,3,object_07,object_04,599.19999992847,5,2,483.70000004768,0.7777777777777778,1,object_03,5,1661,0,7,8,library_8,1,memory-2step-stake-s,599,1707215,0.0-19.0-0.0-0.107,A3HW4QDJB63OQ2,3Q9SPIIRXM2ML6FVM0W2D0Z2IA6WAR,3180JW2OT8S6VZ19A7R85JLVICW5JW,6,5
108,3,object_04,object_07,664.5,5,1,244.79999995232,0.3333333333333333,1,object_03,1,1664,0,3,5,library_5,1,memory-2step-stake-s,600,1715043,0.0-19.0-0.0-0.108,A3HW4QDJB63OQ2,3Q9SPIIRXM2ML6FVM0W2D0Z2IA6WAR,3180JW2OT8S6VZ19A7R85JLVICW5JW,5,6
109,3,object_07,object_04,932.69999992847,5,2,338.20000004768,0.2222222222222222,1,object_03,5,1674,0,2,5,library_7,1,memory-2step-stake-s,601,1722856,0.0-19.0-0.0-0.109,A3HW4QDJB63OQ2,3Q9SPIIRXM2ML6FVM0W2D0Z2IA6WAR,3180JW2OT8S6VZ19A7R85JLVICW5JW,6,5
110,1,object_05,object_09,983.40000009537,1,2,265.10000002384,0.0,1,object_03,1,1674,0,0,6,desert_3,1,memory-2step-stake-s,602,1730386,0.0-19.0-0.0-0.110,A3HW4QDJB63OQ2,3Q9SPIIRXM2ML6FVM0W2D0Z2IA6WAR,3180JW2OT8S6VZ19A7R85JLVICW5JW,2,1
111,3,object_04,object_07,892.10000002384,6,2,374.5,0.5555555555555556,2,object_08,5,1699,0,2,5,library_4,1,memory-2step-stake-s,603,1738566,0.0-19.0-0.0-0.111,A3HW4QDJB63OQ2,3Q9SPIIRXM2ML6FVM0W2D0Z2IA6WAR,3180JW2OT8S6VZ19A7R85JLVICW5JW,5,6
112,4,object_01,object_10,845.10000002384,8,2,253.39999997616,0.7777777777777778,2,object_08,5,1734,0,1,7,restaurant_2,1,memory-2step-stake-s,604,1746784,0.0-19.0-0.0-0.112,A3HW4QDJB63OQ2,3Q9SPIIRXM2ML6FVM0W2D0Z2IA6WAR,3180JW2OT8S6VZ19A7R85JLVICW5JW,7,8
113,1,object_05,object_09,1053.1000000238,2,1,289.10000002384,0.7777777777777778,2,object_08,1,1741,0,5,7,desert_8,1,memory-2step-stake-s,605,1755050,0.0-19.0-0.0-0.113,A3HW4QDJB63OQ2,3Q9SPIIRXM2ML6FVM0W2D0Z2IA6WAR,3180JW2OT8S6VZ19A7R85JLVICW5JW,2,1
114,2,object_02,object_06,708.10000002384,4,1,321.69999992847,0.8888888888888888,2,object_08,1,1749,0,7,8,forest_3,1,memory-2step-stake-s,606,1763459,0.0-19.0-0.0-0.114,A3HW4QDJB63OQ2,3Q9SPIIRXM2ML6FVM0W2D0Z2IA6WAR,3180JW2OT8S6VZ19A7R85JLVICW5JW,4,3
115,2,object_06,object_02,590.10000002384,4,2,249.10000002384,0.7777777777777778,2,object_08,1,1756,0,5,7,forest_4,1,memory-2step-stake-s,607,1771698,0.0-19.0-0.0-0.115,A3HW4QDJB63OQ2,3Q9SPIIRXM2ML6FVM0W2D0Z2IA6WAR,3180JW2OT8S6VZ19A7R85JLVICW5JW,3,4
116,2,object_06,object_02,534.20000004768,4,2,73.899999976158,0.5555555555555556,2,object_08,1,1761,0,6,5,forest_3,1,memory-2step-stake-s,608,1779528,0.0-19.0-0.0-0.116,A3HW4QDJB63OQ2,3Q9SPIIRXM2ML6FVM0W2D0Z2IA6WAR,3180JW2OT8S6VZ19A7R85JLVICW5JW,3,4
117,3,object_07,object_04,965.60000002384,6,1,273.5,0.5555555555555556,2,object_08,5,1786,0,5,5,library_5,1,memory-2step-stake-s,609,1787612,0.0-19.0-0.0-0.117,A3HW4QDJB63OQ2,3Q9SPIIRXM2ML6FVM0W2D0Z2IA6WAR,3180JW2OT8S6VZ19A7R85JLVICW5JW,6,5
118,2,object_02,object_06,667.40000009537,4,1,297.20000004768,0.5555555555555556,2,object_08,1,1791,0,6,5,forest_4,1,memory-2step-stake-s,610,1795688,0.0-19.0-0.0-0.118,A3HW4QDJB63OQ2,3Q9SPIIRXM2ML6FVM0W2D0Z2IA6WAR,3180JW2OT8S6VZ19A7R85JLVICW5JW,4,3
119,4,object_01,object_10,745.5,8,2,264.20000004768,0.2222222222222222,2,object_08,5,1801,0,4,2,restaurant_1,1,memory-2step-stake-s,611,1803418,0.0-19.0-0.0-0.119,A3HW4QDJB63OQ2,3Q9SPIIRXM2ML6FVM0W2D0Z2IA6WAR,3180JW2OT8S6VZ19A7R85JLVICW5JW,7,8
120,3,object_04,object_07,880.5,6,2,264.70000004768,0.2222222222222222,2,object_08,1,1803,0,6,2,library_5,1,memory-2step-stake-s,612,1811153,0.0-19.0-0.0-0.120,A3HW4QDJB63OQ2,3Q9SPIIRXM2ML6FVM0W2D0Z2IA6WAR,3180JW2OT8S6VZ19A7R85JLVICW5JW,5,6
121,3,object_07,object_04,704.70000004768,6,1,253.19999992847,0.4444444444444444,2,object_08,5,1823,0,4,4,library_8,1,memory-2step-stake-s,613,1819086,0.0-19.0-0.0-0.121,A3HW4QDJB63OQ2,3Q9SPIIRXM2ML6FVM0W2D0Z2IA6WAR,3180JW2OT8S6VZ19A7R85JLVICW5JW,6,5
122,2,object_06,object_02,696.89999997616,4,2,227.20000004768,0.5555555555555556,2,object_08,1,1828,0,7,5,forest_8,1,memory-2step-stake-s,614,1827070,0.0-19.0-0.0-0.122,A3HW4QDJB63OQ2,3Q9SPIIRXM2ML6FVM0W2D0Z2IA6WAR,3180JW2OT8S6VZ19A7R85JLVICW5JW,3,4
123,1,object_05,object_09,1133.6000000238,1,2,300.60000002384,0.8888888888888888,1,object_03,1,1836,0,8,5,desert_4,1,memory-2step-stake-s,615,1835458,0.0-19.0-0.0-0.123,A3HW4QDJB63OQ2,3Q9SPIIRXM2ML6FVM0W2D0Z2IA6WAR,3180JW2OT8S6VZ19A7R85JLVICW5JW,2,1
124,1,object_05,object_09,627.0,1,2,6.0,0.8888888888888888,1,object_03,1,1844,0,8,5,desert_7,1,memory-2step-stake-s,616,1843553,0.0-19.0-0.0-0.124,A3HW4QDJB63OQ2,3Q9SPIIRXM2ML6FVM0W2D0Z2IA6WAR,3180JW2OT8S6VZ19A7R85JLVICW5JW,2,1
125,3,object_04,object_07,914.69999992847,6,2,308.70000004768,0.5555555555555556,2,object_08,1,1849,0,4,5,library_7,1,memory-2step-stake-s,617,1851638,0.0-19.0-0.0-0.125,A3HW4QDJB63OQ2,3Q9SPIIRXM2ML6FVM0W2D0Z2IA6WAR,3180JW2OT8S6VZ19A7R85JLVICW5JW,5,6
126,2,object_06,object_02,831.29999995232,4,2,239.39999997616,0.3333333333333333,2,object_08,5,1864,0,6,3,forest_6,1,memory-2step-stake-s,618,1859466,0.0-19.0-0.0-0.126,A3HW4QDJB63OQ2,3Q9SPIIRXM2ML6FVM0W2D0Z2IA6WAR,3180JW2OT8S6VZ19A7R85JLVICW5JW,3,4
127,2,object_06,object_02,683.19999992847,4,2,470.39999997616,0.5555555555555556,2,object_08,1,1869,0,8,5,forest_3,1,memory-2step-stake-s,619,1867716,0.0-19.0-0.0-0.127,A3HW4QDJB63OQ2,3Q9SPIIRXM2ML6FVM0W2D0Z2IA6WAR,3180JW2OT8S6VZ19A7R85JLVICW5JW,3,4
128,4,object_10,object_01,919.90000009537,8,1,329.79999995232,0.7777777777777778,2,object_08,1,1876,0,9,7,restaurant_8,1,memory-2step-stake-s,621,1975320,0.0-19.0-0.1-0.128,A3HW4QDJB63OQ2,3Q9SPIIRXM2ML6FVM0W2D0Z2IA6WAR,3180JW2OT8S6VZ19A7R85JLVICW5JW,8,7
129,4,object_01,object_10,744.89999997616,8,2,381.19999992847,0.8888888888888888,2,object_08,5,1916,0,8,8,restaurant_2,1,memory-2step-stake-s,622,1983788,0.0-19.0-0.1-0.129,A3HW4QDJB63OQ2,3Q9SPIIRXM2ML6FVM0W2D0Z2IA6WAR,3180JW2OT8S6VZ19A7R85JLVICW5JW,7,8
130,4,object_10,object_01,729.89999997616,8,1,397.5,1.0,2,object_08,5,1961,0,8,9,restaurant_1,1,memory-2step-stake-s,623,1992381,0.0-19.0-0.1-0.130,A3HW4QDJB63OQ2,3Q9SPIIRXM2ML6FVM0W2D0Z2IA6WAR,3180JW2OT8S6VZ19A7R85JLVICW5JW,8,7
131,4,object_01,object_10,618.60000002384,8,2,377.20000004768,0.8888888888888888,2,object_08,1,1969,0,6,8,restaurant_8,1,memory-2step-stake-s,624,2000820,0.0-19.0-0.1-0.131,A3HW4QDJB63OQ2,3Q9SPIIRXM2ML6FVM0W2D0Z2IA6WAR,3180JW2OT8S6VZ19A7R85JLVICW5JW,7,8
132,3,object_04,object_07,852.79999995232,6,2,365.70000004768,0.7777777777777778,2,object_08,1,1976,0,5,7,library_5,1,memory-2step-stake-s,625,2009168,0.0-19.0-0.1-0.132,A3HW4QDJB63OQ2,3Q9SPIIRXM2ML6FVM0W2D0Z2IA6WAR,3180JW2OT8S6VZ19A7R85JLVICW5JW,5,6
133,3,object_07,object_04,750.40000009537,6,1,342.20000004768,1.0,2,object_08,5,2021,0,5,9,library_7,1,memory-2step-stake-s,626,2017706,0.0-19.0-0.1-0.133,A3HW4QDJB63OQ2,3Q9SPIIRXM2ML6FVM0W2D0Z2IA6WAR,3180JW2OT8S6VZ19A7R85JLVICW5JW,6,5
134,1,object_05,object_09,1099.2000000477,2,1,364.60000002384,0.6666666666666666,2,object_08,1,2027,0,5,6,desert_7,1,memory-2step-stake-s,627,2025946,0.0-19.0-0.1-0.134,A3HW4QDJB63OQ2,3Q9SPIIRXM2ML6FVM0W2D0Z2IA6WAR,3180JW2OT8S6VZ19A7R85JLVICW5JW,2,1
135,1,object_09,object_05,763.89999997616,1,1,217.70000004768,0.4444444444444444,1,object_03,1,2031,0,4,8,desert_7,1,memory-2step-stake-s,628,2033850,0.0-19.0-0.1-0.135,A3HW4QDJB63OQ2,3Q9SPIIRXM2ML6FVM0W2D0Z2IA6WAR,3180JW2OT8S6VZ19A7R85JLVICW5JW,1,2
136,2,object_02,object_06,669.5,4,1,271.69999992847,1.0,2,object_08,5,2076,0,3,9,forest_3,1,memory-2step-stake-s,629,2042320,0.0-19.0-0.1-0.136,A3HW4QDJB63OQ2,3Q9SPIIRXM2ML6FVM0W2D0Z2IA6WAR,3180JW2OT8S6VZ19A7R85JLVICW5JW,4,3
137,2,object_02,object_06,571.89999997616,4,1,152.30000007153,0.6666666666666666,2,object_08,1,2082,0,1,6,forest_4,1,memory-2step-stake-s,630,2050371,0.0-19.0-0.1-0.137,A3HW4QDJB63OQ2,3Q9SPIIRXM2ML6FVM0W2D0Z2IA6WAR,3180JW2OT8S6VZ19A7R85JLVICW5JW,4,3
138,4,object_10,object_01,849.70000004768,8,1,338.5,0.8888888888888888,2,object_08,5,2122,0,4,8,restaurant_2,1,memory-2step-stake-s,631,2058797,0.0-19.0-0.1-0.138,A3HW4QDJB63OQ2,3Q9SPIIRXM2ML6FVM0W2D0Z2IA6WAR,3180JW2OT8S6VZ19A7R85JLVICW5JW,8,7
139,2,object_02,object_06,796.10000002384,4,1,528.80000007153,0.4444444444444444,2,object_08,5,2142,0,3,4,forest_8,1,memory-2step-stake-s,632,2067009,0.0-19.0-0.1-0.139,A3HW4QDJB63OQ2,3Q9SPIIRXM2ML6FVM0W2D0Z2IA6WAR,3180JW2OT8S6VZ19A7R85JLVICW5JW,4,3
140,2,object_02,object_06,564.5,4,1,228.10000002384,0.4444444444444444,2,object_08,1,2146,0,4,4,forest_8,1,memory-2step-stake-s,633,2074932,0.0-19.0-0.1-0.140,A3HW4QDJB63OQ2,3Q9SPIIRXM2ML6FVM0W2D0Z2IA6WAR,3180JW2OT8S6VZ19A7R85JLVICW5JW,4,3
141,4,object_10,object_01,917.5,8,1,379.10000002384,0.1111111111111111,2,object_08,5,2151,0,6,1,restaurant_1,1,memory-2step-stake-s,634,2082674,0.0-19.0-0.1-0.141,A3HW4QDJB63OQ2,3Q9SPIIRXM2ML6FVM0W2D0Z2IA6WAR,3180JW2OT8S6VZ19A7R85JLVICW5JW,8,7
142,3,object_04,object_07,790.89999997616,6,2,301.60000002384,0.1111111111111111,2,object_08,5,2156,0,6,1,library_5,1,memory-2step-stake-s,635,2090352,0.0-19.0-0.1-0.142,A3HW4QDJB63OQ2,3Q9SPIIRXM2ML6FVM0W2D0Z2IA6WAR,3180JW2OT8S6VZ19A7R85JLVICW5JW,5,6
143,1,object_09,object_05,961.60000002384,2,2,246.39999997616,0.1111111111111111,2,object_08,1,2157,0,9,1,desert_8,1,memory-2step-stake-s,636,2097955,0.0-19.0-0.1-0.143,A3HW4QDJB63OQ2,3Q9SPIIRXM2ML6FVM0W2D0Z2IA6WAR,3180JW2OT8S6VZ19A7R85JLVICW5JW,1,2
144,3,object_04,object_07,1321.8999999762,5,1,527.0,0.5555555555555556,1,object_03,1,2162,0,5,3,library_7,1,memory-2step-stake-s,637,2106284,0.0-19.0-0.1-0.144,A3HW4QDJB63OQ2,3Q9SPIIRXM2ML6FVM0W2D0Z2IA6WAR,3180JW2OT8S6VZ19A7R85JLVICW5JW,5,6
145,2,object_06,object_02,1344.2999999523,4,2,498.30000007153,0.1111111111111111,2,object_08,1,2163,0,6,1,forest_8,1,memory-2step-stake-s,638,2114155,0.0-19.0-0.1-0.145,A3HW4QDJB63OQ2,3Q9SPIIRXM2ML6FVM0W2D0Z2IA6WAR,3180JW2OT8S6VZ19A7R85JLVICW5JW,3,4
146,1,object_09,object_05,1128.8999999762,2,2,290.0,0.1111111111111111,2,object_08,1,2164,0,6,1,desert_4,1,memory-2step-stake-s,639,2121825,0.0-19.0-0.1-0.146,A3HW4QDJB63OQ2,3Q9SPIIRXM2ML6FVM0W2D0Z2IA6WAR,3180JW2OT8S6VZ19A7R85JLVICW5JW,1,2
147,2,object_06,object_02,691.60000002384,3,1,176.0,0.4444444444444444,1,object_03,5,2184,0,4,3,forest_6,1,memory-2step-stake-s,640,2129686,0.0-19.0-0.1-0.147,A3HW4QDJB63OQ2,3Q9SPIIRXM2ML6FVM0W2D0Z2IA6WAR,3180JW2OT8S6VZ19A7R85JLVICW5JW,3,4
148,1,object_05,object_09,856.20000004768,2,1,270.5,0.4444444444444444,2,object_08,1,2188,0,3,4,desert_8,1,memory-2step-stake-s,641,2137646,0.0-19.0-0.1-0.148,A3HW4QDJB63OQ2,3Q9SPIIRXM2ML6FVM0W2D0Z2IA6WAR,3180JW2OT8S6VZ19A7R85JLVICW5JW,2,1
149,3,object_04,object_07,1133.0,5,1,263.0,0.5555555555555556,1,object_03,5,2213,0,5,2,library_4,1,memory-2step-stake-s,642,2145688,0.0-19.0-0.1-0.149,A3HW4QDJB63OQ2,3Q9SPIIRXM2ML6FVM0W2D0Z2IA6WAR,3180JW2OT8S6VZ19A7R85JLVICW5JW,5,6
150,4,object_10,object_01,928.79999995232,7,2,258.20000004768,1.0,1,object_03,5,2258,0,9,3,restaurant_1,1,memory-2step-stake-s,643,2154150,0.0-19.0-0.1-0.150,A3HW4QDJB63OQ2,3Q9SPIIRXM2ML6FVM0W2D0Z2IA6WAR,3180JW2OT8S6VZ19A7R85JLVICW5JW,8,7
151,1,object_09,object_05,1111.2999999523,2,2,343.10000002384,0.4444444444444444,2,object_08,1,2262,0,6,4,desert_7,1,memory-2step-stake-s,644,2162168,0.0-19.0-0.1-0.151,A3HW4QDJB63OQ2,3Q9SPIIRXM2ML6FVM0W2D0Z2IA6WAR,3180JW2OT8S6VZ19A7R85JLVICW5JW,1,2
152,2,object_06,object_02,997.0,3,1,437.70000004768,0.4444444444444444,1,object_03,1,2266,0,4,6,forest_6,1,memory-2step-stake-s,645,2170289,0.0-19.0-0.1-0.152,A3HW4QDJB63OQ2,3Q9SPIIRXM2ML6FVM0W2D0Z2IA6WAR,3180JW2OT8S6VZ19A7R85JLVICW5JW,3,4
153,1,object_05,object_09,1138.7999999523,2,1,545.20000004768,0.8888888888888888,2,object_08,1,2274,0,5,8,desert_7,1,memory-2step-stake-s,646,2178926,0.0-19.0-0.1-0.153,A3HW4QDJB63OQ2,3Q9SPIIRXM2ML6FVM0W2D0Z2IA6WAR,3180JW2OT8S6VZ19A7R85JLVICW5JW,2,1
154,2,object_02,object_06,930.5,3,2,412.0,0.3333333333333333,1,object_03,1,2277,0,3,9,forest_8,1,memory-2step-stake-s,647,2186915,0.0-19.0-0.1-0.154,A3HW4QDJB63OQ2,3Q9SPIIRXM2ML6FVM0W2D0Z2IA6WAR,3180JW2OT8S6VZ19A7R85JLVICW5JW,4,3
155,1,object_05,object_09,1000.2000000477,2,1,336.5,0.8888888888888888,2,object_08,5,2317,0,4,8,desert_7,1,memory-2step-stake-s,648,2195330,0.0-19.0-0.1-0.155,A3HW4QDJB63OQ2,3Q9SPIIRXM2ML6FVM0W2D0Z2IA6WAR,3180JW2OT8S6VZ19A7R85JLVICW5JW,2,1
156,4,object_10,object_01,689.5,7,2,300.09999990463,0.4444444444444444,1,object_03,5,2337,0,4,7,restaurant_2,1,memory-2step-stake-s,649,2203316,0.0-19.0-0.1-0.156,A3HW4QDJB63OQ2,3Q9SPIIRXM2ML6FVM0W2D0Z2IA6WAR,3180JW2OT8S6VZ19A7R85JLVICW5JW,8,7
157,3,object_07,object_04,1090.2000000477,6,1,303.0,0.3333333333333333,2,object_08,5,2352,0,4,3,library_8,1,memory-2step-stake-s,650,2211213,0.0-19.0-0.1-0.157,A3HW4QDJB63OQ2,3Q9SPIIRXM2ML6FVM0W2D0Z2IA6WAR,3180JW2OT8S6VZ19A7R85JLVICW5JW,6,5
158,3,object_04,object_07,1096.6000000238,5,1,763.5,0.3333333333333333,1,object_03,5,2367,0,3,5,library_4,1,memory-2step-stake-s,651,2219546,0.0-19.0-0.1-0.158,A3HW4QDJB63OQ2,3Q9SPIIRXM2ML6FVM0W2D0Z2IA6WAR,3180JW2OT8S6VZ19A7R85JLVICW5JW,5,6
159,2,object_06,object_02,1098.6999999285,4,2,534.20000004768,0.4444444444444444,2,object_08,1,2371,0,8,4,forest_8,1,memory-2step-stake-s,652,2227756,0.0-19.0-0.1-0.159,A3HW4QDJB63OQ2,3Q9SPIIRXM2ML6FVM0W2D0Z2IA6WAR,3180JW2OT8S6VZ19A7R85JLVICW5JW,3,4
160,2,object_02,object_06,1025.3999999762,4,1,305.70000004768,1.0,2,object_08,1,2380,0,7,9,forest_4,1,memory-2step-stake-s,653,2236281,0.0-19.0-0.1-0.160,A3HW4QDJB63OQ2,3Q9SPIIRXM2ML6FVM0W2D0Z2IA6WAR,3180JW2OT8S6VZ19A7R85JLVICW5JW,4,3
161,4,object_01,object_10,953.09999990463,7,1,333.80000007153,0.6666666666666666,1,object_03,5,2410,0,6,5,restaurant_1,1,memory-2step-stake-s,654,2244525,0.0-19.0-0.1-0.161,A3HW4QDJB63OQ2,3Q9SPIIRXM2ML6FVM0W2D0Z2IA6WAR,3180JW2OT8S6VZ19A7R85JLVICW5JW,7,8
162,4,object_10,object_01,956.10000002384,7,2,216.29999995232,0.6666666666666666,1,object_03,5,2440,0,6,3,restaurant_2,1,memory-2step-stake-s,655,2252627,0.0-19.0-0.1-0.162,A3HW4QDJB63OQ2,3Q9SPIIRXM2ML6FVM0W2D0Z2IA6WAR,3180JW2OT8S6VZ19A7R85JLVICW5JW,8,7
163,4,object_01,object_10,706.10000002384,7,1,174.79999995232,0.8888888888888888,1,object_03,5,2480,0,8,2,restaurant_8,1,memory-2step-stake-s,656,2260871,0.0-19.0-0.1-0.163,A3HW4QDJB63OQ2,3Q9SPIIRXM2ML6FVM0W2D0Z2IA6WAR,3180JW2OT8S6VZ19A7R85JLVICW5JW,7,8
164,2,object_02,object_06,869.89999997616,3,2,270.39999997616,0.7777777777777778,1,object_03,1,2487,0,7,1,forest_3,1,memory-2step-stake-s,657,2269119,0.0-19.0-0.1-0.164,A3HW4QDJB63OQ2,3Q9SPIIRXM2ML6FVM0W2D0Z2IA6WAR,3180JW2OT8S6VZ19A7R85JLVICW5JW,4,3
165,4,object_01,object_10,512.80000007153,7,1,227.79999995232,0.8888888888888888,1,object_03,5,2527,0,8,3,restaurant_6,1,memory-2step-stake-s,658,2277415,0.0-19.0-0.1-0.165,A3HW4QDJB63OQ2,3Q9SPIIRXM2ML6FVM0W2D0Z2IA6WAR,3180JW2OT8S6VZ19A7R85JLVICW5JW,7,8
166,3,object_07,object_04,1041.8999999762,6,1,275.10000002384,0.2222222222222222,2,object_08,5,2537,0,9,2,library_7,1,memory-2step-stake-s,659,2285156,0.0-19.0-0.1-0.166,A3HW4QDJB63OQ2,3Q9SPIIRXM2ML6FVM0W2D0Z2IA6WAR,3180JW2OT8S6VZ19A7R85JLVICW5JW,6,5
167,1,object_05,object_09,1125.0,2,1,290.69999992847,0.2222222222222222,2,object_08,1,2539,0,7,2,desert_3,1,memory-2step-stake-s,660,2292901,0.0-19.0-0.1-0.167,A3HW4QDJB63OQ2,3Q9SPIIRXM2ML6FVM0W2D0Z2IA6WAR,3180JW2OT8S6VZ19A7R85JLVICW5JW,2,1
168,1,object_05,object_09,943.80000007153,1,2,292.10000002384,0.6666666666666666,1,object_03,1,2545,0,6,2,desert_7,1,memory-2step-stake-s,661,2301099,0.0-19.0-0.1-0.168,A3HW4QDJB63OQ2,3Q9SPIIRXM2ML6FVM0W2D0Z2IA6WAR,3180JW2OT8S6VZ19A7R85JLVICW5JW,2,1
169,2,object_02,object_06,1000.8000000715,4,1,263.0,0.2222222222222222,2,object_08,5,2555,0,2,2,forest_6,1,memory-2step-stake-s,662,2308831,0.0-19.0-0.1-0.169,A3HW4QDJB63OQ2,3Q9SPIIRXM2ML6FVM0W2D0Z2IA6WAR,3180JW2OT8S6VZ19A7R85JLVICW5JW,4,3
170,3,object_07,object_04,1052.8999999762,5,2,236.79999995232,0.0,1,object_03,5,2555,0,0,3,library_7,1,memory-2step-stake-s,663,2316347,0.0-19.0-0.1-0.170,A3HW4QDJB63OQ2,3Q9SPIIRXM2ML6FVM0W2D0Z2IA6WAR,3180JW2OT8S6VZ19A7R85JLVICW5JW,6,5
171,1,object_05,object_09,798.5,1,2,326.30000007153,0.1111111111111111,1,object_03,1,2556,0,1,3,desert_4,1,memory-2step-stake-s,664,2324080,0.0-19.0-0.1-0.171,A3HW4QDJB63OQ2,3Q9SPIIRXM2ML6FVM0W2D0Z2IA6WAR,3180JW2OT8S6VZ19A7R85JLVICW5JW,2,1
172,3,object_07,object_04,853.70000004768,6,1,241.39999997616,0.0,2,object_08,5,2556,0,2,0,library_4,1,memory-2step-stake-s,665,2331573,0.0-19.0-0.1-0.172,A3HW4QDJB63OQ2,3Q9SPIIRXM2ML6FVM0W2D0Z2IA6WAR,3180JW2OT8S6VZ19A7R85JLVICW5JW,6,5
173,3,object_04,object_07,817.0,5,1,57.100000023842,0.0,1,object_03,5,2556,0,0,1,library_4,1,memory-2step-stake-s,666,2338877,0.0-19.0-0.1-0.173,A3HW4QDJB63OQ2,3Q9SPIIRXM2ML6FVM0W2D0Z2IA6WAR,3180JW2OT8S6VZ19A7R85JLVICW5JW,5,6
174,4,object_10,object_01,1053.7999999523,7,2,298.20000004768,0.3333333333333333,1,object_03,5,2571,0,3,6,restaurant_2,1,memory-2step-stake-s,667,2346736,0.0-19.0-0.1-0.174,A3HW4QDJB63OQ2,3Q9SPIIRXM2ML6FVM0W2D0Z2IA6WAR,3180JW2OT8S6VZ19A7R85JLVICW5JW,8,7
175,4,object_10,object_01,699.0,7,2,261.69999992847,0.5555555555555556,1,object_03,5,2596,0,5,6,restaurant_1,1,memory-2step-stake-s,668,2354778,0.0-19.0-0.1-0.175,A3HW4QDJB63OQ2,3Q9SPIIRXM2ML6FVM0W2D0Z2IA6WAR,3180JW2OT8S6VZ19A7R85JLVICW5JW,8,7
176,3,object_07,object_04,1287.2000000477,6,1,343.20000004768,0.4444444444444444,2,object_08,5,2616,0,5,4,library_8,1,memory-2step-stake-s,669,2362784,0.0-19.0-0.1-0.176,A3HW4QDJB63OQ2,3Q9SPIIRXM2ML6FVM0W2D0Z2IA6WAR,3180JW2OT8S6VZ19A7R85JLVICW5JW,6,5
177,2,object_06,object_02,1099.9000000954,3,1,332.0,0.3333333333333333,1,object_03,1,2619,0,3,2,forest_8,1,memory-2step-stake-s,670,2370708,0.0-19.0-0.1-0.177,A3HW4QDJB63OQ2,3Q9SPIIRXM2ML6FVM0W2D0Z2IA6WAR,3180JW2OT8S6VZ19A7R85JLVICW5JW,3,4
178,1,object_09,object_05,960.60000002384,1,1,320.70000004768,0.2222222222222222,1,object_03,1,2621,0,2,1,desert_3,1,memory-2step-stake-s,671,2378521,0.0-19.0-0.1-0.178,A3HW4QDJB63OQ2,3Q9SPIIRXM2ML6FVM0W2D0Z2IA6WAR,3180JW2OT8S6VZ19A7R85JLVICW5JW,1,2
179,3,object_04,object_07,1174.8000000715,6,2,306.20000004768,0.2222222222222222,2,object_08,5,2631,0,2,2,library_5,1,memory-2step-stake-s,672,2386294,0.0-19.0-0.1-0.179,A3HW4QDJB63OQ2,3Q9SPIIRXM2ML6FVM0W2D0Z2IA6WAR,3180JW2OT8S6VZ19A7R85JLVICW5JW,5,6
180,3,object_04,object_07,1119.5,6,2,975.30000007153,0.1111111111111111,2,object_08,5,2636,0,3,1,library_5,1,memory-2step-stake-s,673,2394617,0.0-19.0-0.1-0.180,A3HW4QDJB63OQ2,3Q9SPIIRXM2ML6FVM0W2D0Z2IA6WAR,3180JW2OT8S6VZ19A7R85JLVICW5JW,5,6
181,2,object_06,object_02,1078.7000000477,3,1,342.60000002384,0.0,1,object_03,1,2636,0,0,1,forest_8,1,memory-2step-stake-s,674,2402214,0.0-19.0-0.1-0.181,A3HW4QDJB63OQ2,3Q9SPIIRXM2ML6FVM0W2D0Z2IA6WAR,3180JW2OT8S6VZ19A7R85JLVICW5JW,3,4
182,3,object_04,object_07,1144.3999999762,6,2,282.20000004768,0.1111111111111111,2,object_08,5,2641,0,2,1,library_7,1,memory-2step-stake-s,675,2409843,0.0-19.0-0.1-0.182,A3HW4QDJB63OQ2,3Q9SPIIRXM2ML6FVM0W2D0Z2IA6WAR,3180JW2OT8S6VZ19A7R85JLVICW5JW,5,6
183,2,object_06,object_02,1142.5,4,2,407.89999997616,0.0,2,object_08,1,2641,0,1,0,forest_6,1,memory-2step-stake-s,676,2417509,0.0-19.0-0.1-0.183,A3HW4QDJB63OQ2,3Q9SPIIRXM2ML6FVM0W2D0Z2IA6WAR,3180JW2OT8S6VZ19A7R85JLVICW5JW,3,4
184,2,object_02,object_06,894.70000004768,3,2,300.0,0.2222222222222222,1,object_03,5,2651,0,2,4,forest_3,1,memory-2step-stake-s,677,2425275,0.0-19.0-0.1-0.184,A3HW4QDJB63OQ2,3Q9SPIIRXM2ML6FVM0W2D0Z2IA6WAR,3180JW2OT8S6VZ19A7R85JLVICW5JW,4,3
185,4,object_10,object_01,1225.6000000238,7,2,1042.3999999762,0.4444444444444444,1,object_03,5,2671,0,4,3,restaurant_1,1,memory-2step-stake-s,678,2434001,0.0-19.0-0.1-0.185,A3HW4QDJB63OQ2,3Q9SPIIRXM2ML6FVM0W2D0Z2IA6WAR,3180JW2OT8S6VZ19A7R85JLVICW5JW,8,7
186,2,object_02,object_06,1078.7999999523,3,2,337.10000002384,0.2222222222222222,1,object_03,1,2673,0,2,6,forest_4,1,memory-2step-stake-s,679,2441803,0.0-19.0-0.1-0.186,A3HW4QDJB63OQ2,3Q9SPIIRXM2ML6FVM0W2D0Z2IA6WAR,3180JW2OT8S6VZ19A7R85JLVICW5JW,4,3
187,1,object_09,object_05,1049.1999999285,1,1,364.79999995232,0.1111111111111111,1,object_03,1,2674,0,1,8,desert_3,1,memory-2step-stake-s,680,2449520,0.0-19.0-0.1-0.187,A3HW4QDJB63OQ2,3Q9SPIIRXM2ML6FVM0W2D0Z2IA6WAR,3180JW2OT8S6VZ19A7R85JLVICW5JW,1,2
188,3,object_04,object_07,1035.3000000715,6,2,250.39999997616,0.8888888888888888,2,object_08,5,2714,0,4,8,library_8,1,memory-2step-stake-s,681,2457842,0.0-19.0-0.1-0.188,A3HW4QDJB63OQ2,3Q9SPIIRXM2ML6FVM0W2D0Z2IA6WAR,3180JW2OT8S6VZ19A7R85JLVICW5JW,5,6
189,4,object_01,object_10,1363.7000000477,7,1,441.90000009537,0.2222222222222222,1,object_03,5,2724,0,2,5,restaurant_2,1,memory-2step-stake-s,682,2465745,0.0-19.0-0.1-0.189,A3HW4QDJB63OQ2,3Q9SPIIRXM2ML6FVM0W2D0Z2IA6WAR,3180JW2OT8S6VZ19A7R85JLVICW5JW,7,8
190,1,object_09,object_05,1206.1999999285,2,2,342.90000009537,0.7777777777777778,2,object_08,1,2731,0,4,7,desert_4,1,memory-2step-stake-s,683,2474068,0.0-19.0-0.1-0.190,A3HW4QDJB63OQ2,3Q9SPIIRXM2ML6FVM0W2D0Z2IA6WAR,3180JW2OT8S6VZ19A7R85JLVICW5JW,1,2
191,1,object_05,object_09,1125.8999999762,2,1,239.0,0.8888888888888888,2,object_08,5,2771,0,5,8,desert_8,1,memory-2step-stake-s,684,2482409,0.0-19.0-0.1-0.191,A3HW4QDJB63OQ2,3Q9SPIIRXM2ML6FVM0W2D0Z2IA6WAR,3180JW2OT8S6VZ19A7R85JLVICW5JW,2,1
192,1,object_09,object_05,860.79999995232,2,2,349.79999995232,1.0,2,object_08,1,2780,0,8,9,desert_7,1,memory-2step-stake-s,685,2490950,0.0-19.0-0.1-0.192,A3HW4QDJB63OQ2,3Q9SPIIRXM2ML6FVM0W2D0Z2IA6WAR,3180JW2OT8S6VZ19A7R85JLVICW5JW,1,2
193,3,object_07,object_04,1180.6000000238,6,1,261.89999997616,0.7777777777777778,2,object_08,5,2815,0,3,7,library_5,1,memory-2step-stake-s,686,2499208,0.0-19.0-0.1-0.193,A3HW4QDJB63OQ2,3Q9SPIIRXM2ML6FVM0W2D0Z2IA6WAR,3180JW2OT8S6VZ19A7R85JLVICW5JW,6,5
194,1,object_09,object_05,1125.1999999285,2,2,238.29999995232,0.8888888888888888,2,object_08,5,2855,0,2,8,desert_8,1,memory-2step-stake-s,687,2507525,0.0-19.0-0.1-0.194,A3HW4QDJB63OQ2,3Q9SPIIRXM2ML6FVM0W2D0Z2IA6WAR,3180JW2OT8S6VZ19A7R85JLVICW5JW,1,2
195,4,object_01,object_10,759.60000002384,7,1,49.299999952316,0.0,1,object_03,5,2855,0,0,8,restaurant_1,1,memory-2step-stake-s,688,2514859,0.0-19.0-0.1-0.195,A3HW4QDJB63OQ2,3Q9SPIIRXM2ML6FVM0W2D0Z2IA6WAR,3180JW2OT8S6VZ19A7R85JLVICW5JW,7,8
196,2,object_02,object_06,988.5,4,1,243.0,0.8888888888888888,2,object_08,1,2863,0,3,8,forest_3,1,memory-2step-stake-s,689,2523198,0.0-19.0-0.1-0.196,A3HW4QDJB63OQ2,3Q9SPIIRXM2ML6FVM0W2D0Z2IA6WAR,3180JW2OT8S6VZ19A7R85JLVICW5JW,4,3
197,2,object_02,object_06,741.19999992847,4,1,224.10000002384,0.8888888888888888,2,object_08,1,2871,0,4,8,forest_4,1,memory-2step-stake-s,690,2531552,0.0-19.0-0.1-0.197,A3HW4QDJB63OQ2,3Q9SPIIRXM2ML6FVM0W2D0Z2IA6WAR,3180JW2OT8S6VZ19A7R85JLVICW5JW,4,3
198,2,object_06,object_02,775.10000002384,4,2,357.29999995232,0.7777777777777778,2,object_08,1,2878,0,3,7,forest_6,1,memory-2step-stake-s,691,2539908,0.0-19.0-0.1-0.198,A3HW4QDJB63OQ2,3Q9SPIIRXM2ML6FVM0W2D0Z2IA6WAR,3180JW2OT8S6VZ19A7R85JLVICW5JW,3,4
199,3,object_04,object_07,792.69999992847,6,2,335.29999995232,0.7777777777777778,2,object_08,5,2913,0,4,7,library_7,1,memory-2step-stake-s,692,2548229,0.0-19.0-0.1-0.199,A3HW4QDJB63OQ2,3Q9SPIIRXM2ML6FVM0W2D0Z2IA6WAR,3180JW2OT8S6VZ19A7R85JLVICW5JW,5,6
200,3,object_07,object_04,707.80000007153,6,1,370.89999997616,0.8888888888888888,2,object_08,5,2953,0,4,8,library_8,1,memory-2step-stake-s,693,2556691,0.0-19.0-0.1-0.200,A3HW4QDJB63OQ2,3Q9SPIIRXM2ML6FVM0W2D0Z2IA6WAR,3180JW2OT8S6VZ19A7R85JLVICW5JW,6,5
201,1,object_09,object_05,1006.7999999523,2,2,302.59999990463,0.6666666666666666,2,object_08,1,2959,0,2,6,desert_4,1,memory-2step-stake-s,694,2564897,0.0-19.0-0.1-0.201,A3HW4QDJB63OQ2,3Q9SPIIRXM2ML6FVM0W2D0Z2IA6WAR,3180JW2OT8S6VZ19A7R85JLVICW5JW,1,2
202,3,object_07,object_04,652.29999995232,6,1,246.29999995232,1.0,2,object_08,1,2968,0,2,9,library_5,1,memory-2step-stake-s,695,2573362,0.0-19.0-0.1-0.202,A3HW4QDJB63OQ2,3Q9SPIIRXM2ML6FVM0W2D0Z2IA6WAR,3180JW2OT8S6VZ19A7R85JLVICW5JW,6,5
203,3,object_04,object_07,1057.3000000715,6,2,346.20000004768,1.0,2,object_08,5,3013,0,5,9,library_8,1,memory-2step-stake-s,696,2581898,0.0-19.0-0.1-0.203,A3HW4QDJB63OQ2,3Q9SPIIRXM2ML6FVM0W2D0Z2IA6WAR,3180JW2OT8S6VZ19A7R85JLVICW5JW,5,6
204,3,object_07,object_04,664.79999995232,6,1,244.10000002384,0.8888888888888888,2,object_08,5,3053,0,2,8,library_4,1,memory-2step-stake-s,697,2590223,0.0-19.0-0.1-0.204,A3HW4QDJB63OQ2,3Q9SPIIRXM2ML6FVM0W2D0Z2IA6WAR,3180JW2OT8S6VZ19A7R85JLVICW5JW,6,5
205,2,object_06,object_02,1020.5,4,2,653.10000002384,0.6666666666666666,2,object_08,1,3059,0,1,6,forest_6,1,memory-2step-stake-s,698,2598783,0.0-19.0-0.1-0.205,A3HW4QDJB63OQ2,3Q9SPIIRXM2ML6FVM0W2D0Z2IA6WAR,3180JW2OT8S6VZ19A7R85JLVICW5JW,3,4
206,2,object_02,object_06,807.10000002384,4,1,285.60000002384,0.4444444444444444,2,object_08,1,3063,0,0,4,forest_3,1,memory-2step-stake-s,699,2606745,0.0-19.0-0.1-0.206,A3HW4QDJB63OQ2,3Q9SPIIRXM2ML6FVM0W2D0Z2IA6WAR,3180JW2OT8S6VZ19A7R85JLVICW5JW,4,3
207,3,object_07,object_04,829.79999995232,6,1,263.5,0.3333333333333333,2,object_08,5,3078,0,1,3,library_4,1,memory-2step-stake-s,700,2614578,0.0-19.0-0.1-0.207,A3HW4QDJB63OQ2,3Q9SPIIRXM2ML6FVM0W2D0Z2IA6WAR,3180JW2OT8S6VZ19A7R85JLVICW5JW,6,5
208,1,object_05,object_09,1141.7999999523,1,2,498.0,0.2222222222222222,1,object_03,1,3080,0,2,2,desert_3,1,memory-2step-stake-s,701,2622550,0.0-19.0-0.1-0.208,A3HW4QDJB63OQ2,3Q9SPIIRXM2ML6FVM0W2D0Z2IA6WAR,3180JW2OT8S6VZ19A7R85JLVICW5JW,2,1
209,1,object_09,object_05,1147.1999999285,2,2,285.0,0.2222222222222222,2,object_08,5,3090,0,1,2,desert_8,1,memory-2step-stake-s,702,2630312,0.0-19.0-0.1-0.209,A3HW4QDJB63OQ2,3Q9SPIIRXM2ML6FVM0W2D0Z2IA6WAR,3180JW2OT8S6VZ19A7R85JLVICW5JW,1,2
210,4,object_10,object_01,1129.5,7,2,255.69999992847,0.5555555555555556,1,object_03,1,3095,0,5,1,restaurant_2,1,memory-2step-stake-s,703,2638375,0.0-19.0-0.1-0.210,A3HW4QDJB63OQ2,3Q9SPIIRXM2ML6FVM0W2D0Z2IA6WAR,3180JW2OT8S6VZ19A7R85JLVICW5JW,8,7
211,4,object_10,object_01,846.60000002384,7,2,204.20000004768,0.3333333333333333,1,object_03,1,3098,0,3,1,restaurant_6,1,memory-2step-stake-s,704,2646160,0.0-19.0-0.1-0.211,A3HW4QDJB63OQ2,3Q9SPIIRXM2ML6FVM0W2D0Z2IA6WAR,3180JW2OT8S6VZ19A7R85JLVICW5JW,8,7
212,4,object_01,object_10,851.30000007153,7,1,241.39999997616,0.7777777777777778,1,object_03,5,3133,0,7,0,restaurant_8,1,memory-2step-stake-s,705,2654382,0.0-19.0-0.1-0.212,A3HW4QDJB63OQ2,3Q9SPIIRXM2ML6FVM0W2D0Z2IA6WAR,3180JW2OT8S6VZ19A7R85JLVICW5JW,7,8
213,2,object_02,object_06,698.90000009537,4,1,304.10000002384,0.2222222222222222,2,object_08,1,3135,0,5,2,forest_8,1,memory-2step-stake-s,706,2662180,0.0-19.0-0.1-0.213,A3HW4QDJB63OQ2,3Q9SPIIRXM2ML6FVM0W2D0Z2IA6WAR,3180JW2OT8S6VZ19A7R85JLVICW5JW,4,3
214,2,object_06,object_02,711.69999992847,4,2,393.59999990463,0.1111111111111111,2,object_08,1,3136,0,1,1,forest_4,1,memory-2step-stake-s,707,2669948,0.0-19.0-0.1-0.214,A3HW4QDJB63OQ2,3Q9SPIIRXM2ML6FVM0W2D0Z2IA6WAR,3180JW2OT8S6VZ19A7R85JLVICW5JW,3,4
215,3,object_04,object_07,774.19999992847,6,2,262.29999995232,0.0,2,object_08,5,3136,0,0,0,library_8,1,memory-2step-stake-s,708,2677459,0.0-19.0-0.1-0.215,A3HW4QDJB63OQ2,3Q9SPIIRXM2ML6FVM0W2D0Z2IA6WAR,3180JW2OT8S6VZ19A7R85JLVICW5JW,5,6
216,2,object_06,object_02,689.0,4,2,267.5,0.6666666666666666,2,object_08,1,3142,0,1,6,forest_8,1,memory-2step-stake-s,709,2685597,0.0-19.0-0.1-0.216,A3HW4QDJB63OQ2,3Q9SPIIRXM2ML6FVM0W2D0Z2IA6WAR,3180JW2OT8S6VZ19A7R85JLVICW5JW,3,4
217,3,object_07,object_04,1051.0,5,2,335.5,0.1111111111111111,1,object_03,5,3147,0,1,4,library_8,1,memory-2step-stake-s,710,2693297,0.0-19.0-0.1-0.217,A3HW4QDJB63OQ2,3Q9SPIIRXM2ML6FVM0W2D0Z2IA6WAR,3180JW2OT8S6VZ19A7R85JLVICW5JW,6,5
218,1,object_05,object_09,1021.1000000238,2,1,292.19999992847,0.5555555555555556,2,object_08,1,3152,0,4,5,desert_7,1,memory-2step-stake-s,711,2701372,0.0-19.0-0.1-0.218,A3HW4QDJB63OQ2,3Q9SPIIRXM2ML6FVM0W2D0Z2IA6WAR,3180JW2OT8S6VZ19A7R85JLVICW5JW,2,1
219,4,object_10,object_01,850.10000002384,7,2,203.10000002384,0.8888888888888888,1,object_03,5,3192,0,8,5,restaurant_1,1,memory-2step-stake-s,712,2709651,0.0-19.0-0.1-0.219,A3HW4QDJB63OQ2,3Q9SPIIRXM2ML6FVM0W2D0Z2IA6WAR,3180JW2OT8S6VZ19A7R85JLVICW5JW,8,7
220,4,object_10,object_01,641.10000002384,7,2,197.30000007153,0.8888888888888888,1,object_03,5,3232,0,8,4,restaurant_8,1,memory-2step-stake-s,713,2717967,0.0-19.0-0.1-0.220,A3HW4QDJB63OQ2,3Q9SPIIRXM2ML6FVM0W2D0Z2IA6WAR,3180JW2OT8S6VZ19A7R85JLVICW5JW,8,7
221,3,object_04,object_07,1025.6999999285,5,1,318.20000004768,0.8888888888888888,1,object_03,5,3272,0,8,3,library_7,1,memory-2step-stake-s,714,2726373,0.0-19.0-0.1-0.221,A3HW4QDJB63OQ2,3Q9SPIIRXM2ML6FVM0W2D0Z2IA6WAR,3180JW2OT8S6VZ19A7R85JLVICW5JW,5,6
222,1,object_05,object_09,828.60000002384,2,1,235.89999997616,0.5555555555555556,2,object_08,5,3297,0,8,5,desert_7,1,memory-2step-stake-s,715,2734408,0.0-19.0-0.1-0.222,A3HW4QDJB63OQ2,3Q9SPIIRXM2ML6FVM0W2D0Z2IA6WAR,3180JW2OT8S6VZ19A7R85JLVICW5JW,2,1
223,3,object_07,object_04,890.10000002384,5,2,260.0,0.5555555555555556,1,object_03,5,3322,0,5,6,library_4,1,memory-2step-stake-s,716,2742439,0.0-19.0-0.1-0.223,A3HW4QDJB63OQ2,3Q9SPIIRXM2ML6FVM0W2D0Z2IA6WAR,3180JW2OT8S6VZ19A7R85JLVICW5JW,6,5
224,2,object_02,object_06,1014.6000000238,4,1,657.89999997616,0.4444444444444444,2,object_08,1,3326,0,4,4,forest_8,1,memory-2step-stake-s,717,2750778,0.0-19.0-0.1-0.224,A3HW4QDJB63OQ2,3Q9SPIIRXM2ML6FVM0W2D0Z2IA6WAR,3180JW2OT8S6VZ19A7R85JLVICW5JW,4,3
225,4,object_10,object_01,433.80000007153,7,2,183.10000002384,0.7777777777777778,1,object_03,5,3361,0,7,3,restaurant_1,1,memory-2step-stake-s,718,2758952,0.0-19.0-0.1-0.225,A3HW4QDJB63OQ2,3Q9SPIIRXM2ML6FVM0W2D0Z2IA6WAR,3180JW2OT8S6VZ19A7R85JLVICW5JW,8,7
226,1,object_09,object_05,846.30000007153,1,1,259.30000007153,0.5555555555555556,1,object_03,1,3366,0,5,2,desert_8,1,memory-2step-stake-s,719,2766990,0.0-19.0-0.1-0.226,A3HW4QDJB63OQ2,3Q9SPIIRXM2ML6FVM0W2D0Z2IA6WAR,3180JW2OT8S6VZ19A7R85JLVICW5JW,1,2
227,2,object_06,object_02,497.0,4,2,52.800000071526,0.5555555555555556,2,object_08,1,3371,0,9,5,forest_6,1,memory-2step-stake-s,720,2774808,0.0-19.0-0.1-0.227,A3HW4QDJB63OQ2,3Q9SPIIRXM2ML6FVM0W2D0Z2IA6WAR,3180JW2OT8S6VZ19A7R85JLVICW5JW,3,4
228,2,object_06,object_02,572.79999995232,4,2,229.70000004768,0.7777777777777778,2,object_08,1,3378,0,8,7,forest_4,1,memory-2step-stake-s,721,2783022,0.0-19.0-0.1-0.228,A3HW4QDJB63OQ2,3Q9SPIIRXM2ML6FVM0W2D0Z2IA6WAR,3180JW2OT8S6VZ19A7R85JLVICW5JW,3,4
229,1,object_09,object_05,1000.1000000238,1,1,282.0,0.8888888888888888,1,object_03,1,3386,0,8,7,desert_8,1,memory-2step-stake-s,722,2791366,0.0-19.0-0.1-0.229,A3HW4QDJB63OQ2,3Q9SPIIRXM2ML6FVM0W2D0Z2IA6WAR,3180JW2OT8S6VZ19A7R85JLVICW5JW,1,2
230,2,object_06,object_02,709.80000007153,4,2,225.60000002384,0.5555555555555556,2,object_08,1,3391,0,7,5,forest_6,1,memory-2step-stake-s,723,2799358,0.0-19.0-0.1-0.230,A3HW4QDJB63OQ2,3Q9SPIIRXM2ML6FVM0W2D0Z2IA6WAR,3180JW2OT8S6VZ19A7R85JLVICW5JW,3,4
231,2,object_06,object_02,838.80000007153,4,2,244.39999997616,0.4444444444444444,2,object_08,5,3411,0,7,4,forest_3,1,memory-2step-stake-s,724,2807276,0.0-19.0-0.1-0.231,A3HW4QDJB63OQ2,3Q9SPIIRXM2ML6FVM0W2D0Z2IA6WAR,3180JW2OT8S6VZ19A7R85JLVICW5JW,3,4
232,4,object_01,object_10,1046.6000000238,7,1,245.89999997616,0.8888888888888888,1,object_03,5,3451,0,8,3,restaurant_6,1,memory-2step-stake-s,725,2815639,0.0-19.0-0.1-0.232,A3HW4QDJB63OQ2,3Q9SPIIRXM2ML6FVM0W2D0Z2IA6WAR,3180JW2OT8S6VZ19A7R85JLVICW5JW,7,8
233,4,object_01,object_10,878.09999990463,7,1,510.70000004768,1.0,1,object_03,1,3460,0,9,4,restaurant_2,1,memory-2step-stake-s,726,2824348,0.0-19.0-0.1-0.233,A3HW4QDJB63OQ2,3Q9SPIIRXM2ML6FVM0W2D0Z2IA6WAR,3180JW2OT8S6VZ19A7R85JLVICW5JW,7,8
234,1,object_05,object_09,987.10000002384,1,2,303.0,0.8888888888888888,1,object_03,1,3468,0,8,5,desert_4,1,memory-2step-stake-s,727,2832740,0.0-19.0-0.1-0.234,A3HW4QDJB63OQ2,3Q9SPIIRXM2ML6FVM0W2D0Z2IA6WAR,3180JW2OT8S6VZ19A7R85JLVICW5JW,2,1
235,1,object_09,object_05,669.89999997616,2,2,-1.0,0.0,2,object_08,1,3468,0,7,6,desert_3,1,memory-2step-stake-s,728,2841324,0.0-19.0-0.1-0.235,A3HW4QDJB63OQ2,3Q9SPIIRXM2ML6FVM0W2D0Z2IA6WAR,3180JW2OT8S6VZ19A7R85JLVICW5JW,1,2
236,4,object_10,object_01,847.39999997616,7,2,187.30000007153,0.6666666666666666,1,object_03,1,3474,0,6,7,restaurant_6,1,memory-2step-stake-s,729,2849380,0.0-19.0-0.1-0.236,A3HW4QDJB63OQ2,3Q9SPIIRXM2ML6FVM0W2D0Z2IA6WAR,3180JW2OT8S6VZ19A7R85JLVICW5JW,8,7
237,3,object_04,object_07,1001.5,6,2,230.0,0.5555555555555556,2,object_08,5,3499,0,5,5,library_7,1,memory-2step-stake-s,730,2857403,0.0-19.0-0.1-0.237,A3HW4QDJB63OQ2,3Q9SPIIRXM2ML6FVM0W2D0Z2IA6WAR,3180JW2OT8S6VZ19A7R85JLVICW5JW,5,6
238,2,object_02,object_06,644.69999992847,4,1,263.5,0.1111111111111111,2,object_08,1,3500,0,7,1,forest_3,1,memory-2step-stake-s,731,2865006,0.0-19.0-0.1-0.238,A3HW4QDJB63OQ2,3Q9SPIIRXM2ML6FVM0W2D0Z2IA6WAR,3180JW2OT8S6VZ19A7R85JLVICW5JW,4,3
239,4,object_10,object_01,623.60000002384,7,2,240.10000002384,0.7777777777777778,1,object_03,1,3507,0,7,4,restaurant_1,1,memory-2step-stake-s,732,2873249,0.0-19.0-0.1-0.239,A3HW4QDJB63OQ2,3Q9SPIIRXM2ML6FVM0W2D0Z2IA6WAR,3180JW2OT8S6VZ19A7R85JLVICW5JW,8,7
240,2,object_02,object_06,663.79999995232,4,1,230.10000002384,0.4444444444444444,2,object_08,5,3527,0,7,4,forest_3,1,memory-2step-stake-s,733,2881148,0.0-19.0-0.1-0.240,A3HW4QDJB63OQ2,3Q9SPIIRXM2ML6FVM0W2D0Z2IA6WAR,3180JW2OT8S6VZ19A7R85JLVICW5JW,4,3
241,4,object_01,object_10,639.39999997616,7,1,395.5,0.4444444444444444,1,object_03,5,3547,0,4,5,restaurant_6,1,memory-2step-stake-s,734,2889230,0.0-19.0-0.1-0.241,A3HW4QDJB63OQ2,3Q9SPIIRXM2ML6FVM0W2D0Z2IA6WAR,3180JW2OT8S6VZ19A7R85JLVICW5JW,7,8
242,3,object_04,object_07,680.10000002384,6,2,410.39999997616,0.2222222222222222,2,object_08,5,3557,0,6,2,library_5,1,memory-2step-stake-s,735,2897102,0.0-19.0-0.1-0.242,A3HW4QDJB63OQ2,3Q9SPIIRXM2ML6FVM0W2D0Z2IA6WAR,3180JW2OT8S6VZ19A7R85JLVICW5JW,5,6
243,4,object_01,object_10,688.30000007153,7,1,247.5,0.4444444444444444,1,object_03,5,3577,0,4,0,restaurant_6,1,memory-2step-stake-s,736,2905020,0.0-19.0-0.1-0.243,A3HW4QDJB63OQ2,3Q9SPIIRXM2ML6FVM0W2D0Z2IA6WAR,3180JW2OT8S6VZ19A7R85JLVICW5JW,7,8
244,1,object_05,object_09,1243.0,2,1,331.70000004768,0.3333333333333333,2,object_08,1,3580,0,1,3,desert_7,1,memory-2step-stake-s,737,2912924,0.0-19.0-0.1-0.244,A3HW4QDJB63OQ2,3Q9SPIIRXM2ML6FVM0W2D0Z2IA6WAR,3180JW2OT8S6VZ19A7R85JLVICW5JW,2,1
245,2,object_06,object_02,694.30000007153,4,2,285.29999995232,0.4444444444444444,2,object_08,1,3584,0,3,4,forest_4,1,memory-2step-stake-s,738,2920908,0.0-19.0-0.1-0.245,A3HW4QDJB63OQ2,3Q9SPIIRXM2ML6FVM0W2D0Z2IA6WAR,3180JW2OT8S6VZ19A7R85JLVICW5JW,3,4
246,1,object_09,object_05,926.0,2,2,303.89999997616,0.3333333333333333,2,object_08,1,3587,0,2,3,desert_8,1,memory-2step-stake-s,739,2928778,0.0-19.0-0.1-0.246,A3HW4QDJB63OQ2,3Q9SPIIRXM2ML6FVM0W2D0Z2IA6WAR,3180JW2OT8S6VZ19A7R85JLVICW5JW,1,2
247,3,object_07,object_04,976.89999997616,6,1,361.60000002384,0.2222222222222222,2,object_08,1,3589,0,4,2,library_7,1,memory-2step-stake-s,740,2936614,0.0-19.0-0.1-0.247,A3HW4QDJB63OQ2,3Q9SPIIRXM2ML6FVM0W2D0Z2IA6WAR,3180JW2OT8S6VZ19A7R85JLVICW5JW,6,5
248,1,object_05,object_09,702.39999997616,1,2,233.89999997616,0.2222222222222222,1,object_03,1,3591,0,2,3,desert_4,1,memory-2step-stake-s,741,2944360,0.0-19.0-0.1-0.248,A3HW4QDJB63OQ2,3Q9SPIIRXM2ML6FVM0W2D0Z2IA6WAR,3180JW2OT8S6VZ19A7R85JLVICW5JW,2,1
249,4,object_10,object_01,622.29999995232,7,2,235.39999997616,0.0,1,object_03,5,3591,0,0,2,restaurant_8,1,memory-2step-stake-s,742,2951861,0.0-19.0-0.1-0.249,A3HW4QDJB63OQ2,3Q9SPIIRXM2ML6FVM0W2D0Z2IA6WAR,3180JW2OT8S6VZ19A7R85JLVICW5JW,8,7
250,3,object_07,object_04,779.69999992847,6,1,208.10000002384,0.1111111111111111,2,object_08,1,3592,0,3,1,library_5,1,memory-2step-stake-s,743,2959432,0.0-19.0-0.1-0.250,A3HW4QDJB63OQ2,3Q9SPIIRXM2ML6FVM0W2D0Z2IA6WAR,3180JW2OT8S6VZ19A7R85JLVICW5JW,6,5
251,1,object_09,object_05,702.19999992847,2,2,331.79999995232,0.0,2,object_08,1,3592,0,5,0,desert_3,1,memory-2step-stake-s,744,2967026,0.0-19.0-0.1-0.251,A3HW4QDJB63OQ2,3Q9SPIIRXM2ML6FVM0W2D0Z2IA6WAR,3180JW2OT8S6VZ19A7R85JLVICW5JW,1,2
252,3,object_04,object_07,800.09999990463,5,1,232.5,1.0,1,object_03,5,3637,0,9,5,library_7,1,memory-2step-stake-s,745,2975475,0.0-19.0-0.1-0.252,A3HW4QDJB63OQ2,3Q9SPIIRXM2ML6FVM0W2D0Z2IA6WAR,3180JW2OT8S6VZ19A7R85JLVICW5JW,5,6
253,4,object_10,object_01,1241.3999999762,8,1,294.5,0.4444444444444444,2,object_08,5,3657,0,8,4,restaurant_8,1,memory-2step-stake-s,746,2983451,0.0-19.0-0.1-0.253,A3HW4QDJB63OQ2,3Q9SPIIRXM2ML6FVM0W2D0Z2IA6WAR,3180JW2OT8S6VZ19A7R85JLVICW5JW,8,7
254,2,object_06,object_02,1077.6999999285,4,2,313.69999992847,0.5555555555555556,2,object_08,5,3682,0,9,5,forest_8,1,memory-2step-stake-s,747,2991546,0.0-19.0-0.1-0.254,A3HW4QDJB63OQ2,3Q9SPIIRXM2ML6FVM0W2D0Z2IA6WAR,3180JW2OT8S6VZ19A7R85JLVICW5JW,3,4
255,4,object_10,object_01,810.60000002384,8,1,116.5,0.3333333333333333,2,object_08,5,3697,0,8,3,restaurant_2,1,memory-2step-stake-s,748,2999230,0.0-19.0-0.1-0.255,A3HW4QDJB63OQ2,3Q9SPIIRXM2ML6FVM0W2D0Z2IA6WAR,3180JW2OT8S6VZ19A7R85JLVICW5JW,8,7
