,state1,stim_left,stim_right,rt_1,choice1,response1,rt_2,points,state2,stim_state2,stake,score,practice,rews1,rews2,background,high_arm,trial_type,trial_index,time_elapsed,internal_node_id,subid,hitid,assignmentid,stim_left_num,stim_right_num
0,2,object_02,object_10,-1.0,-1,-1,-1.0,0.0,-,0,1,0,0,1,2,forest_5,1,memory-2step-stake-s,499,1276293,0.0-19.0-0.0-0.0,A36NTNEXBNBIOD,3DW3BNF1HKYVNTMBZS7SV7ATLD58VQ,3CFVK00FWP189TPNIBDQD4CNIX96LE,4,3
1,1,object_01,object_07,624.0,2,2,-1.0,0.0,2,object_05,5,0,0,4,3,desert_1,1,memory-2step-stake-s,500,1284822,0.0-19.0-0.0-0.1,A36NTNEXBNBIOD,3DW3BNF1HKYVNTMBZS7SV7ATLD58VQ,3CFVK00FWP189TPNIBDQD4CNIX96LE,1,2
2,2,object_10,object_02,429.20000000019,3,1,363.0,0.0,1,object_04,5,0,0,0,2,forest_3,1,memory-2step-stake-s,501,1292414,0.0-19.0-0.0-0.2,A36NTNEXBNBIOD,3DW3BNF1HKYVNTMBZS7SV7ATLD58VQ,3CFVK00FWP189TPNIBDQD4CNIX96LE,3,4
3,1,object_01,object_07,520.0,2,2,339.10000000056,0.2222222222222222,2,object_05,1,2,0,3,2,desert_8,1,memory-2step-stake-s,502,1300199,0.0-19.0-0.0-0.3,A36NTNEXBNBIOD,3DW3BNF1HKYVNTMBZS7SV7ATLD58VQ,3CFVK00FWP189TPNIBDQD4CNIX96LE,1,2
4,2,object_10,object_02,496.90000000037,3,1,367.0,0.8888888888888888,1,object_04,1,10,0,8,3,forest_8,1,memory-2step-stake-s,503,1308621,0.0-19.0-0.0-0.4,A36NTNEXBNBIOD,3DW3BNF1HKYVNTMBZS7SV7ATLD58VQ,3CFVK00FWP189TPNIBDQD4CNIX96LE,3,4
5,4,object_06,object_08,593.70000000019,8,2,268.09999999963,0.1111111111111111,2,object_05,5,15,0,8,1,restaurant_5,1,memory-2step-stake-s,504,1316220,0.0-19.0-0.0-0.5,A36NTNEXBNBIOD,3DW3BNF1HKYVNTMBZS7SV7ATLD58VQ,3CFVK00FWP189TPNIBDQD4CNIX96LE,7,8
6,2,object_02,object_10,574.0,3,2,307.90000000037,0.7777777777777778,1,object_04,1,22,0,7,1,forest_3,1,memory-2step-stake-s,505,1324480,0.0-19.0-0.0-0.6,A36NTNEXBNBIOD,3DW3BNF1HKYVNTMBZS7SV7ATLD58VQ,3CFVK00FWP189TPNIBDQD4CNIX96LE,4,3
7,1,object_01,object_07,646.60000000056,1,1,931.59999999963,0.5555555555555556,1,object_04,1,27,0,5,2,desert_8,1,memory-2step-stake-s,506,1333158,0.0-19.0-0.0-0.7,A36NTNEXBNBIOD,3DW3BNF1HKYVNTMBZS7SV7ATLD58VQ,3CFVK00FWP189TPNIBDQD4CNIX96LE,1,2
8,2,object_02,object_10,775.80000000075,4,1,440.79999999981,0.1111111111111111,2,object_05,1,28,0,2,1,forest_8,1,memory-2step-stake-s,507,1340935,0.0-19.0-0.0-0.8,A36NTNEXBNBIOD,3DW3BNF1HKYVNTMBZS7SV7ATLD58VQ,3CFVK00FWP189TPNIBDQD4CNIX96LE,4,3
9,3,object_03,object_09,347.0,5,2,308.39999999944,0.3333333333333333,1,object_04,5,43,0,3,3,library_4,1,memory-2step-stake-s,508,1348781,0.0-19.0-0.0-0.9,A36NTNEXBNBIOD,3DW3BNF1HKYVNTMBZS7SV7ATLD58VQ,3CFVK00FWP189TPNIBDQD4CNIX96LE,6,5
10,4,object_08,object_06,439.30000000075,8,1,520.5,0.2222222222222222,2,object_05,5,53,0,6,2,restaurant_1,1,memory-2step-stake-s,509,1356731,0.0-19.0-0.0-0.10,A36NTNEXBNBIOD,3DW3BNF1HKYVNTMBZS7SV7ATLD58VQ,3CFVK00FWP189TPNIBDQD4CNIX96LE,8,7
11,3,object_03,object_09,737.90000000037,6,1,-1.0,0.0,2,object_05,1,53,0,6,2,library_6,1,memory-2step-stake-s,510,1365260,0.0-19.0-0.0-0.11,A36NTNEXBNBIOD,3DW3BNF1HKYVNTMBZS7SV7ATLD58VQ,3CFVK00FWP189TPNIBDQD4CNIX96LE,6,5
12,4,object_08,object_06,406.20000000019,7,2,270.60000000056,0.6666666666666666,1,object_04,5,83,0,6,3,restaurant_8,1,memory-2step-stake-s,511,1373382,0.0-19.0-0.0-0.12,A36NTNEXBNBIOD,3DW3BNF1HKYVNTMBZS7SV7ATLD58VQ,3CFVK00FWP189TPNIBDQD4CNIX96LE,8,7
13,1,object_07,object_01,548.5,2,1,530.59999999963,0.7777777777777778,2,object_05,5,118,0,5,7,desert_6,1,memory-2step-stake-s,512,1381865,0.0-19.0-0.0-0.13,A36NTNEXBNBIOD,3DW3BNF1HKYVNTMBZS7SV7ATLD58VQ,3CFVK00FWP189TPNIBDQD4CNIX96LE,2,1
14,3,object_09,object_03,530.89999999944,6,2,354.79999999981,1.0,2,object_05,5,163,0,6,9,library_6,1,memory-2step-stake-s,513,1390378,0.0-19.0-0.0-0.14,A36NTNEXBNBIOD,3DW3BNF1HKYVNTMBZS7SV7ATLD58VQ,3CFVK00FWP189TPNIBDQD4CNIX96LE,5,6
15,1,object_01,object_07,898.90000000037,2,2,343.60000000056,0.7777777777777778,2,object_05,1,170,0,2,7,desert_8,1,memory-2step-stake-s,514,1398671,0.0-19.0-0.0-0.15,A36NTNEXBNBIOD,3DW3BNF1HKYVNTMBZS7SV7ATLD58VQ,3CFVK00FWP189TPNIBDQD4CNIX96LE,1,2
16,2,object_02,object_10,548.59999999963,4,1,319.70000000019,0.8888888888888888,2,object_05,1,178,0,5,8,forest_5,1,memory-2step-stake-s,515,1407054,0.0-19.0-0.0-0.16,A36NTNEXBNBIOD,3DW3BNF1HKYVNTMBZS7SV7ATLD58VQ,3CFVK00FWP189TPNIBDQD4CNIX96LE,4,3
17,3,object_03,object_09,769.60000000056,5,2,-1.0,0.0,1,object_04,1,178,0,7,8,library_1,1,memory-2step-stake-s,516,1415585,0.0-19.0-0.0-0.17,A36NTNEXBNBIOD,3DW3BNF1HKYVNTMBZS7SV7ATLD58VQ,3CFVK00FWP189TPNIBDQD4CNIX96LE,6,5
18,1,object_07,object_01,228.0,1,2,259.90000000037,0.7777777777777778,1,object_04,1,185,0,7,7,desert_6,1,memory-2step-stake-s,517,1423779,0.0-19.0-0.0-0.18,A36NTNEXBNBIOD,3DW3BNF1HKYVNTMBZS7SV7ATLD58VQ,3CFVK00FWP189TPNIBDQD4CNIX96LE,2,1
19,2,object_02,object_10,317.30000000075,4,1,194.29999999981,0.8888888888888888,2,object_05,1,193,0,8,8,forest_8,1,memory-2step-stake-s,518,1431999,0.0-19.0-0.0-0.19,A36NTNEXBNBIOD,3DW3BNF1HKYVNTMBZS7SV7ATLD58VQ,3CFVK00FWP189TPNIBDQD4CNIX96LE,4,3
20,4,object_06,object_08,481.60000000056,8,2,123.10000000056,0.5555555555555556,2,object_05,5,218,0,5,5,restaurant_8,1,memory-2step-stake-s,519,1439845,0.0-19.0-0.0-0.20,A36NTNEXBNBIOD,3DW3BNF1HKYVNTMBZS7SV7ATLD58VQ,3CFVK00FWP189TPNIBDQD4CNIX96LE,7,8
21,4,object_06,object_08,501.20000000019,8,2,146.5,0.6666666666666666,2,object_05,5,248,0,7,6,restaurant_1,1,memory-2step-stake-s,520,1447817,0.0-19.0-0.0-0.21,A36NTNEXBNBIOD,3DW3BNF1HKYVNTMBZS7SV7ATLD58VQ,3CFVK00FWP189TPNIBDQD4CNIX96LE,7,8
22,2,object_02,object_10,557.59999999963,4,1,331.0,0.4444444444444444,2,object_05,1,252,0,5,4,forest_5,1,memory-2step-stake-s,521,1455775,0.0-19.0-0.0-0.22,A36NTNEXBNBIOD,3DW3BNF1HKYVNTMBZS7SV7ATLD58VQ,3CFVK00FWP189TPNIBDQD4CNIX96LE,4,3
23,2,object_02,object_10,346.59999999963,4,1,120.89999999944,0.0,2,object_05,1,252,0,6,0,forest_3,1,memory-2step-stake-s,522,1463112,0.0-19.0-0.0-0.23,A36NTNEXBNBIOD,3DW3BNF1HKYVNTMBZS7SV7ATLD58VQ,3CFVK00FWP189TPNIBDQD4CNIX96LE,4,3
24,4,object_08,object_06,522.5,7,2,288.80000000075,0.8888888888888888,1,object_04,5,292,0,8,2,restaurant_1,1,memory-2step-stake-s,523,1471424,0.0-19.0-0.0-0.24,A36NTNEXBNBIOD,3DW3BNF1HKYVNTMBZS7SV7ATLD58VQ,3CFVK00FWP189TPNIBDQD4CNIX96LE,8,7
25,1,object_01,object_07,487.20000000019,2,2,31.0,0.2222222222222222,2,object_05,1,294,0,8,2,desert_8,1,memory-2step-stake-s,524,1478872,0.0-19.0-0.0-0.25,A36NTNEXBNBIOD,3DW3BNF1HKYVNTMBZS7SV7ATLD58VQ,3CFVK00FWP189TPNIBDQD4CNIX96LE,1,2
26,3,object_09,object_03,726.20000000019,6,2,272.89999999944,0.3333333333333333,2,object_05,5,309,0,8,3,library_4,1,memory-2step-stake-s,525,1486671,0.0-19.0-0.0-0.26,A36NTNEXBNBIOD,3DW3BNF1HKYVNTMBZS7SV7ATLD58VQ,3CFVK00FWP189TPNIBDQD4CNIX96LE,5,6
27,3,object_09,object_03,315.29999999981,5,1,124.79999999981,0.8888888888888888,1,object_04,1,317,0,8,2,library_3,1,memory-2step-stake-s,526,1494824,0.0-19.0-0.0-0.27,A36NTNEXBNBIOD,3DW3BNF1HKYVNTMBZS7SV7ATLD58VQ,3CFVK00FWP189TPNIBDQD4CNIX96LE,5,6
28,1,object_01,object_07,574.70000000019,1,1,181.5,0.8888888888888888,1,object_04,5,357,0,8,3,desert_1,1,memory-2step-stake-s,527,1503043,0.0-19.0-0.0-0.28,A36NTNEXBNBIOD,3DW3BNF1HKYVNTMBZS7SV7ATLD58VQ,3CFVK00FWP189TPNIBDQD4CNIX96LE,1,2
29,4,object_06,object_08,722.5,8,2,795.29999999981,0.3333333333333333,2,object_05,5,372,0,6,3,restaurant_8,1,memory-2step-stake-s,528,1511363,0.0-19.0-0.0-0.29,A36NTNEXBNBIOD,3DW3BNF1HKYVNTMBZS7SV7ATLD58VQ,3CFVK00FWP189TPNIBDQD4CNIX96LE,7,8
30,4,object_08,object_06,603.70000000019,7,2,55.200000000186,0.3333333333333333,1,object_04,5,387,0,3,4,restaurant_1,1,memory-2step-stake-s,529,1518945,0.0-19.0-0.0-0.30,A36NTNEXBNBIOD,3DW3BNF1HKYVNTMBZS7SV7ATLD58VQ,3CFVK00FWP189TPNIBDQD4CNIX96LE,8,7
31,1,object_07,object_01,544.59999999963,1,2,27.400000000373,0.3333333333333333,1,object_04,1,390,0,3,5,desert_2,1,memory-2step-stake-s,530,1526498,0.0-19.0-0.0-0.31,A36NTNEXBNBIOD,3DW3BNF1HKYVNTMBZS7SV7ATLD58VQ,3CFVK00FWP189TPNIBDQD4CNIX96LE,2,1
32,3,object_03,object_09,335.80000000075,6,1,13.200000000186,0.4444444444444444,2,object_05,1,394,0,4,4,library_3,1,memory-2step-stake-s,531,1534135,0.0-19.0-0.0-0.32,A36NTNEXBNBIOD,3DW3BNF1HKYVNTMBZS7SV7ATLD58VQ,3CFVK00FWP189TPNIBDQD4CNIX96LE,6,5
33,3,object_03,object_09,652.20000000019,5,2,57.599999999627,0.4444444444444444,1,object_04,5,414,0,4,6,library_6,1,memory-2step-stake-s,532,1541827,0.0-19.0-0.0-0.33,A36NTNEXBNBIOD,3DW3BNF1HKYVNTMBZS7SV7ATLD58VQ,3CFVK00FWP189TPNIBDQD4CNIX96LE,6,5
34,1,object_07,object_01,599.80000000075,1,2,209.09999999963,0.0,1,object_04,1,414,0,0,8,desert_2,1,memory-2step-stake-s,533,1549253,0.0-19.0-0.0-0.34,A36NTNEXBNBIOD,3DW3BNF1HKYVNTMBZS7SV7ATLD58VQ,3CFVK00FWP189TPNIBDQD4CNIX96LE,2,1
35,4,object_08,object_06,626.20000000019,7,2,137.19999999925,0.2222222222222222,1,object_04,1,416,0,2,7,restaurant_8,1,memory-2step-stake-s,534,1556811,0.0-19.0-0.0-0.35,A36NTNEXBNBIOD,3DW3BNF1HKYVNTMBZS7SV7ATLD58VQ,3CFVK00FWP189TPNIBDQD4CNIX96LE,8,7
36,2,object_10,object_02,651.29999999981,3,1,127.20000000019,0.3333333333333333,1,object_04,1,419,0,3,9,forest_6,1,memory-2step-stake-s,535,1564469,0.0-19.0-0.0-0.36,A36NTNEXBNBIOD,3DW3BNF1HKYVNTMBZS7SV7ATLD58VQ,3CFVK00FWP189TPNIBDQD4CNIX96LE,3,4
37,1,object_07,object_01,529.0,1,2,25.200000000186,0.4444444444444444,1,object_04,1,423,0,4,9,desert_2,1,memory-2step-stake-s,536,1572126,0.0-19.0-0.0-0.37,A36NTNEXBNBIOD,3DW3BNF1HKYVNTMBZS7SV7ATLD58VQ,3CFVK00FWP189TPNIBDQD4CNIX96LE,2,1
38,2,object_02,object_10,567.70000000019,4,1,86.299999999814,0.7777777777777778,2,object_05,1,430,0,8,7,forest_3,1,memory-2step-stake-s,537,1580145,0.0-19.0-0.0-0.38,A36NTNEXBNBIOD,3DW3BNF1HKYVNTMBZS7SV7ATLD58VQ,3CFVK00FWP189TPNIBDQD4CNIX96LE,4,3
39,1,object_07,object_01,592.70000000019,2,1,49.299999999814,0.5555555555555556,2,object_05,5,455,0,6,5,desert_2,1,memory-2step-stake-s,538,1587926,0.0-19.0-0.0-0.39,A36NTNEXBNBIOD,3DW3BNF1HKYVNTMBZS7SV7ATLD58VQ,3CFVK00FWP189TPNIBDQD4CNIX96LE,2,1
40,4,object_08,object_06,530.30000000075,7,2,162.39999999944,0.6666666666666666,1,object_04,5,485,0,6,2,restaurant_5,1,memory-2step-stake-s,539,1595914,0.0-19.0-0.0-0.40,A36NTNEXBNBIOD,3DW3BNF1HKYVNTMBZS7SV7ATLD58VQ,3CFVK00FWP189TPNIBDQD4CNIX96LE,8,7
41,1,object_01,object_07,579.09999999963,1,1,350.29999999981,0.6666666666666666,1,object_04,1,491,0,6,3,desert_1,1,memory-2step-stake-s,540,1604096,0.0-19.0-0.0-0.41,A36NTNEXBNBIOD,3DW3BNF1HKYVNTMBZS7SV7ATLD58VQ,3CFVK00FWP189TPNIBDQD4CNIX96LE,1,2
42,3,object_09,object_03,534.60000000056,6,2,143.5,0.4444444444444444,2,object_05,1,495,0,9,4,library_6,1,memory-2step-stake-s,541,1611873,0.0-19.0-0.0-0.42,A36NTNEXBNBIOD,3DW3BNF1HKYVNTMBZS7SV7ATLD58VQ,3CFVK00FWP189TPNIBDQD4CNIX96LE,5,6
43,2,object_02,object_10,668.0,4,1,135.29999999981,0.0,2,object_05,1,495,0,9,0,forest_6,1,memory-2step-stake-s,542,1619232,0.0-19.0-0.0-0.43,A36NTNEXBNBIOD,3DW3BNF1HKYVNTMBZS7SV7ATLD58VQ,3CFVK00FWP189TPNIBDQD4CNIX96LE,4,3
44,4,object_06,object_08,713.0,8,2,158.40000000037,0.2222222222222222,2,object_05,1,497,0,8,2,restaurant_5,1,memory-2step-stake-s,543,1626821,0.0-19.0-0.0-0.44,A36NTNEXBNBIOD,3DW3BNF1HKYVNTMBZS7SV7ATLD58VQ,3CFVK00FWP189TPNIBDQD4CNIX96LE,7,8
45,2,object_10,object_02,374.79999999981,3,1,96.900000000373,0.8888888888888888,1,object_04,1,505,0,8,2,forest_5,1,memory-2step-stake-s,544,1634960,0.0-19.0-0.0-0.45,A36NTNEXBNBIOD,3DW3BNF1HKYVNTMBZS7SV7ATLD58VQ,3CFVK00FWP189TPNIBDQD4CNIX96LE,3,4
46,1,object_01,object_07,453.70000000019,1,1,248.09999999963,0.8888888888888888,1,object_04,1,513,0,8,2,desert_8,1,memory-2step-stake-s,545,1643262,0.0-19.0-0.0-0.46,A36NTNEXBNBIOD,3DW3BNF1HKYVNTMBZS7SV7ATLD58VQ,3CFVK00FWP189TPNIBDQD4CNIX96LE,1,2
47,3,object_09,object_03,603.79999999981,6,2,244.20000000019,0.3333333333333333,2,object_05,5,528,0,8,3,library_6,1,memory-2step-stake-s,546,1651033,0.0-19.0-0.0-0.47,A36NTNEXBNBIOD,3DW3BNF1HKYVNTMBZS7SV7ATLD58VQ,3CFVK00FWP189TPNIBDQD4CNIX96LE,5,6
48,2,object_02,object_10,573.10000000056,4,1,212.60000000056,0.1111111111111111,2,object_05,5,533,0,7,1,forest_6,1,memory-2step-stake-s,547,1658569,0.0-19.0-0.0-0.48,A36NTNEXBNBIOD,3DW3BNF1HKYVNTMBZS7SV7ATLD58VQ,3CFVK00FWP189TPNIBDQD4CNIX96LE,4,3
49,3,object_03,object_09,369.80000000075,5,2,280.90000000037,0.6666666666666666,1,object_04,1,539,0,6,3,library_3,1,memory-2step-stake-s,548,1666692,0.0-19.0-0.0-0.49,A36NTNEXBNBIOD,3DW3BNF1HKYVNTMBZS7SV7ATLD58VQ,3CFVK00FWP189TPNIBDQD4CNIX96LE,6,5
50,1,object_01,object_07,486.0,2,2,503.09999999963,0.3333333333333333,2,object_05,1,542,0,6,3,desert_1,1,memory-2step-stake-s,549,1674732,0.0-19.0-0.0-0.50,A36NTNEXBNBIOD,3DW3BNF1HKYVNTMBZS7SV7ATLD58VQ,3CFVK00FWP189TPNIBDQD4CNIX96LE,1,2
51,1,object_01,object_07,376.79999999981,2,2,95.700000000186,0.3333333333333333,2,object_05,1,545,0,4,3,desert_1,1,memory-2step-stake-s,550,1682358,0.0-19.0-0.0-0.51,A36NTNEXBNBIOD,3DW3BNF1HKYVNTMBZS7SV7ATLD58VQ,3CFVK00FWP189TPNIBDQD4CNIX96LE,1,2
52,1,object_01,object_07,369.0,1,1,136.20000000019,0.4444444444444444,1,object_04,1,549,0,4,4,desert_8,1,memory-2step-stake-s,551,1690118,0.0-19.0-0.0-0.52,A36NTNEXBNBIOD,3DW3BNF1HKYVNTMBZS7SV7ATLD58VQ,3CFVK00FWP189TPNIBDQD4CNIX96LE,1,2
53,3,object_09,object_03,609.59999999963,5,1,226.59999999963,0.5555555555555556,1,object_04,5,574,0,5,3,library_6,1,memory-2step-stake-s,552,1698070,0.0-19.0-0.0-0.53,A36NTNEXBNBIOD,3DW3BNF1HKYVNTMBZS7SV7ATLD58VQ,3CFVK00FWP189TPNIBDQD4CNIX96LE,5,6
54,4,object_06,object_08,553.5,8,2,262.79999999981,0.5555555555555556,2,object_05,5,599,0,1,5,restaurant_6,1,memory-2step-stake-s,553,1706060,0.0-19.0-0.0-0.54,A36NTNEXBNBIOD,3DW3BNF1HKYVNTMBZS7SV7ATLD58VQ,3CFVK00FWP189TPNIBDQD4CNIX96LE,7,8
55,1,object_01,object_07,450.5,2,2,174.30000000075,0.6666666666666666,2,object_05,1,605,0,2,6,desert_1,1,memory-2step-stake-s,554,1714055,0.0-19.0-0.0-0.55,A36NTNEXBNBIOD,3DW3BNF1HKYVNTMBZS7SV7ATLD58VQ,3CFVK00FWP189TPNIBDQD4CNIX96LE,1,2
56,3,object_09,object_03,599.39999999944,6,2,143.40000000037,0.5555555555555556,2,object_05,5,630,0,0,5,library_4,1,memory-2step-stake-s,555,1721923,0.0-19.0-0.0-0.56,A36NTNEXBNBIOD,3DW3BNF1HKYVNTMBZS7SV7ATLD58VQ,3CFVK00FWP189TPNIBDQD4CNIX96LE,5,6
57,2,object_10,object_02,684.29999999981,4,2,210.29999999981,0.3333333333333333,2,object_05,1,633,0,4,3,forest_3,1,memory-2step-stake-s,556,1729657,0.0-19.0-0.0-0.57,A36NTNEXBNBIOD,3DW3BNF1HKYVNTMBZS7SV7ATLD58VQ,3CFVK00FWP189TPNIBDQD4CNIX96LE,3,4
58,4,object_06,object_08,686.20000000019,8,2,237.5,0.3333333333333333,2,object_05,5,648,0,3,3,restaurant_5,1,memory-2step-stake-s,557,1737420,0.0-19.0-0.0-0.58,A36NTNEXBNBIOD,3DW3BNF1HKYVNTMBZS7SV7ATLD58VQ,3CFVK00FWP189TPNIBDQD4CNIX96LE,7,8
59,3,object_03,object_09,710.5,5,2,840.5,0.2222222222222222,1,object_04,5,658,0,2,7,library_4,1,memory-2step-stake-s,558,1745683,0.0-19.0-0.0-0.59,A36NTNEXBNBIOD,3DW3BNF1HKYVNTMBZS7SV7ATLD58VQ,3CFVK00FWP189TPNIBDQD4CNIX96LE,6,5
60,1,object_07,object_01,464.40000000037,2,1,264.70000000019,0.5555555555555556,2,object_05,1,663,0,5,5,desert_2,1,memory-2step-stake-s,559,1753674,0.0-19.0-0.0-0.60,A36NTNEXBNBIOD,3DW3BNF1HKYVNTMBZS7SV7ATLD58VQ,3CFVK00FWP189TPNIBDQD4CNIX96LE,2,1
61,4,object_08,object_06,538.40000000037,7,2,418.79999999981,0.5555555555555556,1,object_04,5,688,0,5,4,restaurant_6,1,memory-2step-stake-s,560,1761823,0.0-19.0-0.0-0.61,A36NTNEXBNBIOD,3DW3BNF1HKYVNTMBZS7SV7ATLD58VQ,3CFVK00FWP189TPNIBDQD4CNIX96LE,8,7
62,2,object_10,object_02,509.09999999963,4,2,342.29999999981,0.7777777777777778,2,object_05,1,695,0,5,7,forest_6,1,memory-2step-stake-s,561,1770089,0.0-19.0-0.0-0.62,A36NTNEXBNBIOD,3DW3BNF1HKYVNTMBZS7SV7ATLD58VQ,3CFVK00FWP189TPNIBDQD4CNIX96LE,3,4
63,2,object_02,object_10,629.60000000056,4,1,280.40000000037,0.8888888888888888,2,object_05,5,735,0,4,8,forest_3,1,memory-2step-stake-s,562,1778401,0.0-19.0-0.0-0.63,A36NTNEXBNBIOD,3DW3BNF1HKYVNTMBZS7SV7ATLD58VQ,3CFVK00FWP189TPNIBDQD4CNIX96LE,4,3
64,1,object_07,object_01,564.59999999963,1,2,227.5,0.4444444444444444,1,object_04,1,739,0,4,7,desert_6,1,memory-2step-stake-s,563,1786254,0.0-19.0-0.0-0.64,A36NTNEXBNBIOD,3DW3BNF1HKYVNTMBZS7SV7ATLD58VQ,3CFVK00FWP189TPNIBDQD4CNIX96LE,2,1
65,1,object_01,object_07,590.30000000075,1,1,305.29999999981,0.7777777777777778,1,object_04,1,746,0,7,7,desert_2,1,memory-2step-stake-s,564,1794492,0.0-19.0-0.0-0.65,A36NTNEXBNBIOD,3DW3BNF1HKYVNTMBZS7SV7ATLD58VQ,3CFVK00FWP189TPNIBDQD4CNIX96LE,1,2
66,4,object_08,object_06,278.09999999963,7,2,395.70000000019,0.6666666666666666,1,object_04,1,752,0,6,8,restaurant_8,1,memory-2step-stake-s,565,1802718,0.0-19.0-0.0-0.66,A36NTNEXBNBIOD,3DW3BNF1HKYVNTMBZS7SV7ATLD58VQ,3CFVK00FWP189TPNIBDQD4CNIX96LE,8,7
67,1,object_01,object_07,449.59999999963,2,2,280.5,1.0,2,object_05,1,761,0,4,9,desert_8,1,memory-2step-stake-s,566,1811140,0.0-19.0-0.0-0.67,A36NTNEXBNBIOD,3DW3BNF1HKYVNTMBZS7SV7ATLD58VQ,3CFVK00FWP189TPNIBDQD4CNIX96LE,1,2
68,2,object_02,object_10,627.0,3,2,270.90000000037,0.4444444444444444,1,object_04,1,765,0,4,9,forest_6,1,memory-2step-stake-s,567,1819046,0.0-19.0-0.0-0.68,A36NTNEXBNBIOD,3DW3BNF1HKYVNTMBZS7SV7ATLD58VQ,3CFVK00FWP189TPNIBDQD4CNIX96LE,4,3
69,3,object_09,object_03,709.20000000019,5,1,1171.4000000004,0.4444444444444444,1,object_04,5,785,0,4,9,library_1,1,memory-2step-stake-s,568,1827843,0.0-19.0-0.0-0.69,A36NTNEXBNBIOD,3DW3BNF1HKYVNTMBZS7SV7ATLD58VQ,3CFVK00FWP189TPNIBDQD4CNIX96LE,5,6
70,1,object_01,object_07,520.10000000056,2,2,335.60000000056,1.0,2,object_05,1,794,0,5,9,desert_6,1,memory-2step-stake-s,569,1836311,0.0-19.0-0.0-0.70,A36NTNEXBNBIOD,3DW3BNF1HKYVNTMBZS7SV7ATLD58VQ,3CFVK00FWP189TPNIBDQD4CNIX96LE,1,2
71,3,object_09,object_03,662.59999999963,6,2,275.89999999944,0.7777777777777778,2,object_05,5,829,0,0,7,library_6,1,memory-2step-stake-s,570,1844520,0.0-19.0-0.0-0.71,A36NTNEXBNBIOD,3DW3BNF1HKYVNTMBZS7SV7ATLD58VQ,3CFVK00FWP189TPNIBDQD4CNIX96LE,5,6
72,2,object_02,object_10,515.79999999981,4,1,216.5,0.7777777777777778,2,object_05,1,836,0,1,7,forest_8,1,memory-2step-stake-s,571,1852670,0.0-19.0-0.0-0.72,A36NTNEXBNBIOD,3DW3BNF1HKYVNTMBZS7SV7ATLD58VQ,3CFVK00FWP189TPNIBDQD4CNIX96LE,4,3
73,2,object_02,object_10,437.5,4,1,246.89999999944,0.8888888888888888,2,object_05,1,844,0,5,8,forest_3,1,memory-2step-stake-s,572,1860957,0.0-19.0-0.0-0.73,A36NTNEXBNBIOD,3DW3BNF1HKYVNTMBZS7SV7ATLD58VQ,3CFVK00FWP189TPNIBDQD4CNIX96LE,4,3
74,2,object_10,object_02,598.79999999981,4,2,261.80000000075,0.6666666666666666,2,object_05,5,874,0,4,6,forest_5,1,memory-2step-stake-s,573,1869057,0.0-19.0-0.0-0.74,A36NTNEXBNBIOD,3DW3BNF1HKYVNTMBZS7SV7ATLD58VQ,3CFVK00FWP189TPNIBDQD4CNIX96LE,3,4
75,4,object_06,object_08,764.20000000019,7,1,-1.0,0.0,1,object_04,5,874,0,5,4,restaurant_1,1,memory-2step-stake-s,574,1877583,0.0-19.0-0.0-0.75,A36NTNEXBNBIOD,3DW3BNF1HKYVNTMBZS7SV7ATLD58VQ,3CFVK00FWP189TPNIBDQD4CNIX96LE,7,8
76,4,object_06,object_08,539.20000000019,8,2,69.0,0.5555555555555556,2,object_05,5,899,0,5,5,restaurant_5,1,memory-2step-stake-s,575,1885388,0.0-19.0-0.0-0.76,A36NTNEXBNBIOD,3DW3BNF1HKYVNTMBZS7SV7ATLD58VQ,3CFVK00FWP189TPNIBDQD4CNIX96LE,7,8
77,4,object_08,object_06,788.60000000056,7,2,171.5,0.6666666666666666,1,object_04,5,929,0,6,8,restaurant_5,1,memory-2step-stake-s,576,1893392,0.0-19.0-0.0-0.77,A36NTNEXBNBIOD,3DW3BNF1HKYVNTMBZS7SV7ATLD58VQ,3CFVK00FWP189TPNIBDQD4CNIX96LE,8,7
78,1,object_01,object_07,331.59999999963,2,2,237.0,0.8888888888888888,2,object_05,1,937,0,6,8,desert_6,1,memory-2step-stake-s,577,1901675,0.0-19.0-0.0-0.78,A36NTNEXBNBIOD,3DW3BNF1HKYVNTMBZS7SV7ATLD58VQ,3CFVK00FWP189TPNIBDQD4CNIX96LE,1,2
79,2,object_10,object_02,734.89999999944,4,2,318.30000000075,0.7777777777777778,2,object_05,5,972,0,7,7,forest_5,1,memory-2step-stake-s,578,1909938,0.0-19.0-0.0-0.79,A36NTNEXBNBIOD,3DW3BNF1HKYVNTMBZS7SV7ATLD58VQ,3CFVK00FWP189TPNIBDQD4CNIX96LE,3,4
80,1,object_07,object_01,486.40000000037,1,2,402.79999999981,0.8888888888888888,1,object_04,1,980,0,8,6,desert_8,1,memory-2step-stake-s,579,1918386,0.0-19.0-0.0-0.80,A36NTNEXBNBIOD,3DW3BNF1HKYVNTMBZS7SV7ATLD58VQ,3CFVK00FWP189TPNIBDQD4CNIX96LE,2,1
81,3,object_03,object_09,481.59999999963,5,2,163.30000000075,0.7777777777777778,1,object_04,5,1015,0,7,6,library_4,1,memory-2step-stake-s,580,1926496,0.0-19.0-0.0-0.81,A36NTNEXBNBIOD,3DW3BNF1HKYVNTMBZS7SV7ATLD58VQ,3CFVK00FWP189TPNIBDQD4CNIX96LE,6,5
82,2,object_10,object_02,288.0,3,1,276.39999999944,0.8888888888888888,1,object_04,1,1023,0,8,8,forest_3,1,memory-2step-stake-s,581,1934816,0.0-19.0-0.0-0.82,A36NTNEXBNBIOD,3DW3BNF1HKYVNTMBZS7SV7ATLD58VQ,3CFVK00FWP189TPNIBDQD4CNIX96LE,3,4
83,2,object_10,object_02,514.29999999981,3,1,135.0,0.5555555555555556,1,object_04,5,1048,0,5,8,forest_5,1,memory-2step-stake-s,582,1942702,0.0-19.0-0.0-0.83,A36NTNEXBNBIOD,3DW3BNF1HKYVNTMBZS7SV7ATLD58VQ,3CFVK00FWP189TPNIBDQD4CNIX96LE,3,4
84,2,object_10,object_02,473.0,4,2,246.0,0.8888888888888888,2,object_05,5,1088,0,6,8,forest_8,1,memory-2step-stake-s,583,1950968,0.0-19.0-0.0-0.84,A36NTNEXBNBIOD,3DW3BNF1HKYVNTMBZS7SV7ATLD58VQ,3CFVK00FWP189TPNIBDQD4CNIX96LE,3,4
85,2,object_10,object_02,300.20000000019,4,2,233.79999999981,0.7777777777777778,2,object_05,1,1095,0,5,7,forest_6,1,memory-2step-stake-s,584,1959133,0.0-19.0-0.0-0.85,A36NTNEXBNBIOD,3DW3BNF1HKYVNTMBZS7SV7ATLD58VQ,3CFVK00FWP189TPNIBDQD4CNIX96LE,3,4
86,2,object_02,object_10,530.20000000019,4,1,252.90000000037,0.7777777777777778,2,object_05,5,1130,0,1,7,forest_3,1,memory-2step-stake-s,585,1967312,0.0-19.0-0.0-0.86,A36NTNEXBNBIOD,3DW3BNF1HKYVNTMBZS7SV7ATLD58VQ,3CFVK00FWP189TPNIBDQD4CNIX96LE,4,3
87,3,object_03,object_09,819.79999999981,6,1,273.59999999963,0.5555555555555556,2,object_05,5,1155,0,0,5,library_4,1,memory-2step-stake-s,586,1975308,0.0-19.0-0.0-0.87,A36NTNEXBNBIOD,3DW3BNF1HKYVNTMBZS7SV7ATLD58VQ,3CFVK00FWP189TPNIBDQD4CNIX96LE,6,5
88,3,object_09,object_03,540.90000000037,6,2,253.10000000056,0.6666666666666666,2,object_05,5,1185,0,1,6,library_3,1,memory-2step-stake-s,587,1983386,0.0-19.0-0.0-0.88,A36NTNEXBNBIOD,3DW3BNF1HKYVNTMBZS7SV7ATLD58VQ,3CFVK00FWP189TPNIBDQD4CNIX96LE,5,6
89,2,object_10,object_02,878.5,4,2,355.59999999963,0.6666666666666666,2,object_05,1,1191,0,1,6,forest_8,1,memory-2step-stake-s,588,1991569,0.0-19.0-0.0-0.89,A36NTNEXBNBIOD,3DW3BNF1HKYVNTMBZS7SV7ATLD58VQ,3CFVK00FWP189TPNIBDQD4CNIX96LE,3,4
90,4,object_06,object_08,662.5,7,1,210.5,0.2222222222222222,1,object_04,5,1201,0,2,6,restaurant_5,1,memory-2step-stake-s,589,1999202,0.0-19.0-0.0-0.90,A36NTNEXBNBIOD,3DW3BNF1HKYVNTMBZS7SV7ATLD58VQ,3CFVK00FWP189TPNIBDQD4CNIX96LE,7,8
91,2,object_02,object_10,276.10000000056,3,2,216.60000000056,0.5555555555555556,1,object_04,1,1206,0,5,3,forest_3,1,memory-2step-stake-s,590,2007148,0.0-19.0-0.0-0.91,A36NTNEXBNBIOD,3DW3BNF1HKYVNTMBZS7SV7ATLD58VQ,3CFVK00FWP189TPNIBDQD4CNIX96LE,4,3
92,1,object_07,object_01,481.89999999944,1,2,287.29999999981,0.6666666666666666,1,object_04,1,1212,0,6,0,desert_1,1,memory-2step-stake-s,591,2015263,0.0-19.0-0.0-0.92,A36NTNEXBNBIOD,3DW3BNF1HKYVNTMBZS7SV7ATLD58VQ,3CFVK00FWP189TPNIBDQD4CNIX96LE,2,1
93,4,object_08,object_06,271.29999999981,8,1,302.29999999981,0.0,2,object_05,5,1212,0,6,0,restaurant_6,1,memory-2step-stake-s,592,2022789,0.0-19.0-0.0-0.93,A36NTNEXBNBIOD,3DW3BNF1HKYVNTMBZS7SV7ATLD58VQ,3CFVK00FWP189TPNIBDQD4CNIX96LE,8,7
94,1,object_07,object_01,232.89999999944,2,1,216.40000000037,0.1111111111111111,2,object_05,1,1213,0,6,1,desert_6,1,memory-2step-stake-s,593,2030330,0.0-19.0-0.0-0.94,A36NTNEXBNBIOD,3DW3BNF1HKYVNTMBZS7SV7ATLD58VQ,3CFVK00FWP189TPNIBDQD4CNIX96LE,2,1
95,3,object_09,object_03,554.0,6,2,246.5,0.1111111111111111,2,object_05,5,1218,0,3,1,library_1,1,memory-2step-stake-s,594,2037905,0.0-19.0-0.0-0.95,A36NTNEXBNBIOD,3DW3BNF1HKYVNTMBZS7SV7ATLD58VQ,3CFVK00FWP189TPNIBDQD4CNIX96LE,5,6
96,3,object_09,object_03,535.89999999944,5,1,253.5,0.3333333333333333,1,object_04,5,1233,0,3,0,library_6,1,memory-2step-stake-s,595,2045685,0.0-19.0-0.0-0.96,A36NTNEXBNBIOD,3DW3BNF1HKYVNTMBZS7SV7ATLD58VQ,3CFVK00FWP189TPNIBDQD4CNIX96LE,5,6
97,1,object_07,object_01,491.59999999963,1,2,316.5,0.4444444444444444,1,object_04,1,1237,0,4,1,desert_6,1,memory-2step-stake-s,596,2053628,0.0-19.0-0.0-0.97,A36NTNEXBNBIOD,3DW3BNF1HKYVNTMBZS7SV7ATLD58VQ,3CFVK00FWP189TPNIBDQD4CNIX96LE,2,1
98,4,object_08,object_06,727.29999999981,7,2,939.0,0.2222222222222222,1,object_04,5,1247,0,2,3,restaurant_5,1,memory-2step-stake-s,597,2061989,0.0-19.0-0.0-0.98,A36NTNEXBNBIOD,3DW3BNF1HKYVNTMBZS7SV7ATLD58VQ,3CFVK00FWP189TPNIBDQD4CNIX96LE,8,7
99,2,object_02,object_10,282.90000000037,4,1,444.90000000037,0.2222222222222222,2,object_05,1,1249,0,0,2,forest_8,1,memory-2step-stake-s,598,2069860,0.0-19.0-0.0-0.99,A36NTNEXBNBIOD,3DW3BNF1HKYVNTMBZS7SV7ATLD58VQ,3CFVK00FWP189TPNIBDQD4CNIX96LE,4,3
100,1,object_01,object_07,518.20000000019,2,2,334.39999999944,0.1111111111111111,2,object_05,1,1250,0,0,1,desert_1,1,memory-2step-stake-s,599,2077510,0.0-19.0-0.0-0.100,A36NTNEXBNBIOD,3DW3BNF1HKYVNTMBZS7SV7ATLD58VQ,3CFVK00FWP189TPNIBDQD4CNIX96LE,1,2
101,4,object_08,object_06,690.40000000037,8,1,388.20000000019,0.3333333333333333,2,object_05,5,1265,0,0,3,restaurant_5,1,memory-2step-stake-s,600,2085431,0.0-19.0-0.0-0.101,A36NTNEXBNBIOD,3DW3BNF1HKYVNTMBZS7SV7ATLD58VQ,3CFVK00FWP189TPNIBDQD4CNIX96LE,8,7
102,4,object_08,object_06,656.0,7,2,287.20000000019,0.2222222222222222,1,object_04,5,1275,0,2,7,restaurant_6,1,memory-2step-stake-s,601,2093143,0.0-19.0-0.0-0.102,A36NTNEXBNBIOD,3DW3BNF1HKYVNTMBZS7SV7ATLD58VQ,3CFVK00FWP189TPNIBDQD4CNIX96LE,8,7
103,4,object_08,object_06,312.70000000019,7,2,228.90000000037,0.2222222222222222,1,object_04,1,1277,0,2,5,restaurant_1,1,memory-2step-stake-s,602,2100801,0.0-19.0-0.0-0.103,A36NTNEXBNBIOD,3DW3BNF1HKYVNTMBZS7SV7ATLD58VQ,3CFVK00FWP189TPNIBDQD4CNIX96LE,8,7
104,4,object_06,object_08,585.40000000037,7,1,255.0,0.3333333333333333,1,object_04,1,1280,0,3,6,restaurant_1,1,memory-2step-stake-s,603,2108583,0.0-19.0-0.0-0.104,A36NTNEXBNBIOD,3DW3BNF1HKYVNTMBZS7SV7ATLD58VQ,3CFVK00FWP189TPNIBDQD4CNIX96LE,7,8
105,3,object_09,object_03,718.40000000037,5,1,483.20000000019,0.0,1,object_04,5,1280,0,0,8,library_3,1,memory-2step-stake-s,604,2116291,0.0-19.0-0.0-0.105,A36NTNEXBNBIOD,3DW3BNF1HKYVNTMBZS7SV7ATLD58VQ,3CFVK00FWP189TPNIBDQD4CNIX96LE,5,6
106,1,object_01,object_07,473.40000000037,2,2,605.70000000019,0.6666666666666666,2,object_05,1,1286,0,1,6,desert_6,1,memory-2step-stake-s,605,2124739,0.0-19.0-0.0-0.106,A36NTNEXBNBIOD,3DW3BNF1HKYVNTMBZS7SV7ATLD58VQ,3CFVK00FWP189TPNIBDQD4CNIX96LE,1,2
107,3,object_03,object_09,863.40000000037,5,2,279.70000000019,0.1111111111111111,1,object_04,5,1291,0,1,5,library_1,1,memory-2step-stake-s,606,2132338,0.0-19.0-0.0-0.107,A36NTNEXBNBIOD,3DW3BNF1HKYVNTMBZS7SV7ATLD58VQ,3CFVK00FWP189TPNIBDQD4CNIX96LE,6,5
108,4,object_08,object_06,725.10000000056,8,1,1375.0999999996,0.6666666666666666,2,object_05,5,1321,0,1,6,restaurant_8,1,memory-2step-stake-s,607,2141549,0.0-19.0-0.0-0.108,A36NTNEXBNBIOD,3DW3BNF1HKYVNTMBZS7SV7ATLD58VQ,3CFVK00FWP189TPNIBDQD4CNIX96LE,8,7
109,3,object_03,object_09,546.5,6,1,121.40000000037,0.8888888888888888,2,object_05,5,1361,0,3,8,library_1,1,memory-2step-stake-s,608,2149713,0.0-19.0-0.0-0.109,A36NTNEXBNBIOD,3DW3BNF1HKYVNTMBZS7SV7ATLD58VQ,3CFVK00FWP189TPNIBDQD4CNIX96LE,6,5
110,3,object_03,object_09,472.79999999981,6,1,28.199999999255,0.6666666666666666,2,object_05,1,1367,0,5,6,library_6,1,memory-2step-stake-s,609,2157579,0.0-19.0-0.0-0.110,A36NTNEXBNBIOD,3DW3BNF1HKYVNTMBZS7SV7ATLD58VQ,3CFVK00FWP189TPNIBDQD4CNIX96LE,6,5
111,3,object_09,object_03,453.10000000056,6,2,314.30000000075,0.4444444444444444,2,object_05,5,1387,0,5,4,library_1,1,memory-2step-stake-s,610,2165535,0.0-19.0-0.0-0.111,A36NTNEXBNBIOD,3DW3BNF1HKYVNTMBZS7SV7ATLD58VQ,3CFVK00FWP189TPNIBDQD4CNIX96LE,5,6
112,3,object_09,object_03,520.0,5,1,148.0,0.7777777777777778,1,object_04,5,1422,0,7,3,library_4,1,memory-2step-stake-s,611,2173623,0.0-19.0-0.0-0.112,A36NTNEXBNBIOD,3DW3BNF1HKYVNTMBZS7SV7ATLD58VQ,3CFVK00FWP189TPNIBDQD4CNIX96LE,5,6
113,3,object_09,object_03,519.20000000019,5,1,245.79999999981,0.7777777777777778,1,object_04,1,1429,0,7,4,library_3,1,memory-2step-stake-s,612,2181809,0.0-19.0-0.0-0.113,A36NTNEXBNBIOD,3DW3BNF1HKYVNTMBZS7SV7ATLD58VQ,3CFVK00FWP189TPNIBDQD4CNIX96LE,5,6
114,3,object_09,object_03,506.70000000019,5,1,9.2999999998137,1.0,1,object_04,1,1438,0,9,3,library_3,1,memory-2step-stake-s,613,2189962,0.0-19.0-0.0-0.114,A36NTNEXBNBIOD,3DW3BNF1HKYVNTMBZS7SV7ATLD58VQ,3CFVK00FWP189TPNIBDQD4CNIX96LE,5,6
115,1,object_07,object_01,598.79999999981,2,1,54.200000000186,0.3333333333333333,2,object_05,5,1453,0,9,3,desert_8,1,memory-2step-stake-s,614,2197546,0.0-19.0-0.0-0.115,A36NTNEXBNBIOD,3DW3BNF1HKYVNTMBZS7SV7ATLD58VQ,3CFVK00FWP189TPNIBDQD4CNIX96LE,2,1
116,4,object_08,object_06,604.29999999981,7,2,171.60000000056,0.7777777777777778,1,object_04,5,1488,0,7,5,restaurant_6,1,memory-2step-stake-s,615,2205650,0.0-19.0-0.0-0.116,A36NTNEXBNBIOD,3DW3BNF1HKYVNTMBZS7SV7ATLD58VQ,3CFVK00FWP189TPNIBDQD4CNIX96LE,8,7
117,1,object_01,object_07,454.90000000037,1,1,301.40000000037,0.7777777777777778,1,object_04,1,1495,0,7,2,desert_2,1,memory-2step-stake-s,616,2213877,0.0-19.0-0.0-0.117,A36NTNEXBNBIOD,3DW3BNF1HKYVNTMBZS7SV7ATLD58VQ,3CFVK00FWP189TPNIBDQD4CNIX96LE,1,2
118,1,object_07,object_01,476.59999999963,1,2,303.69999999925,1.0,1,object_04,1,1504,0,9,1,desert_1,1,memory-2step-stake-s,617,2222310,0.0-19.0-0.0-0.118,A36NTNEXBNBIOD,3DW3BNF1HKYVNTMBZS7SV7ATLD58VQ,3CFVK00FWP189TPNIBDQD4CNIX96LE,2,1
119,3,object_03,object_09,734.70000000019,5,2,105.20000000019,0.6666666666666666,1,object_04,5,1534,0,6,0,library_3,1,memory-2step-stake-s,618,2230242,0.0-19.0-0.0-0.119,A36NTNEXBNBIOD,3DW3BNF1HKYVNTMBZS7SV7ATLD58VQ,3CFVK00FWP189TPNIBDQD4CNIX96LE,6,5
120,2,object_10,object_02,487.0,4,2,256.39999999944,0.0,2,object_05,1,1534,0,7,0,forest_8,1,memory-2step-stake-s,619,2237719,0.0-19.0-0.0-0.120,A36NTNEXBNBIOD,3DW3BNF1HKYVNTMBZS7SV7ATLD58VQ,3CFVK00FWP189TPNIBDQD4CNIX96LE,3,4
121,4,object_06,object_08,816.5,7,1,260.20000000019,0.6666666666666666,1,object_04,5,1564,0,6,1,restaurant_8,1,memory-2step-stake-s,620,2245805,0.0-19.0-0.0-0.121,A36NTNEXBNBIOD,3DW3BNF1HKYVNTMBZS7SV7ATLD58VQ,3CFVK00FWP189TPNIBDQD4CNIX96LE,7,8
122,1,object_07,object_01,368.79999999981,1,2,426.0,0.6666666666666666,1,object_04,1,1570,0,6,2,desert_1,1,memory-2step-stake-s,621,2254054,0.0-19.0-0.0-0.122,A36NTNEXBNBIOD,3DW3BNF1HKYVNTMBZS7SV7ATLD58VQ,3CFVK00FWP189TPNIBDQD4CNIX96LE,2,1
123,4,object_08,object_06,267.5,8,1,218.59999999963,0.3333333333333333,2,object_05,5,1585,0,6,3,restaurant_8,1,memory-2step-stake-s,622,2261795,0.0-19.0-0.0-0.123,A36NTNEXBNBIOD,3DW3BNF1HKYVNTMBZS7SV7ATLD58VQ,3CFVK00FWP189TPNIBDQD4CNIX96LE,8,7
124,2,object_02,object_10,231.19999999925,3,2,225.70000000019,0.6666666666666666,1,object_04,1,1591,0,6,0,forest_8,1,memory-2step-stake-s,623,2269846,0.0-19.0-0.0-0.124,A36NTNEXBNBIOD,3DW3BNF1HKYVNTMBZS7SV7ATLD58VQ,3CFVK00FWP189TPNIBDQD4CNIX96LE,4,3
125,2,object_10,object_02,436.40000000037,4,2,312.0,0.1111111111111111,2,object_05,1,1592,0,7,1,forest_5,1,memory-2step-stake-s,624,2277479,0.0-19.0-0.0-0.125,A36NTNEXBNBIOD,3DW3BNF1HKYVNTMBZS7SV7ATLD58VQ,3CFVK00FWP189TPNIBDQD4CNIX96LE,3,4
126,2,object_02,object_10,474.0,3,2,133.59999999963,0.7777777777777778,1,object_04,5,1627,0,7,3,forest_5,1,memory-2step-stake-s,625,2285544,0.0-19.0-0.0-0.126,A36NTNEXBNBIOD,3DW3BNF1HKYVNTMBZS7SV7ATLD58VQ,3CFVK00FWP189TPNIBDQD4CNIX96LE,4,3
127,3,object_09,object_03,607.70000000019,5,1,219.79999999981,0.6666666666666666,1,object_04,5,1657,0,6,4,library_1,1,memory-2step-stake-s,626,2293601,0.0-19.0-0.0-0.127,A36NTNEXBNBIOD,3DW3BNF1HKYVNTMBZS7SV7ATLD58VQ,3CFVK00FWP189TPNIBDQD4CNIX96LE,5,6
128,1,object_07,object_01,539.5,2,1,256.79999999981,0.6666666666666666,2,object_05,5,1687,0,6,6,desert_6,1,memory-2step-stake-s,628,2370021,0.0-19.0-0.1-0.128,A36NTNEXBNBIOD,3DW3BNF1HKYVNTMBZS7SV7ATLD58VQ,3CFVK00FWP189TPNIBDQD4CNIX96LE,2,1
129,3,object_09,object_03,810.60000000056,6,2,362.0,0.6666666666666666,2,object_05,5,1717,0,9,6,library_1,1,memory-2step-stake-s,629,2378209,0.0-19.0-0.1-0.129,A36NTNEXBNBIOD,3DW3BNF1HKYVNTMBZS7SV7ATLD58VQ,3CFVK00FWP189TPNIBDQD4CNIX96LE,5,6
130,4,object_08,object_06,410.70000000019,8,1,326.39999999944,0.2222222222222222,2,object_05,1,1719,0,8,2,restaurant_6,1,memory-2step-stake-s,630,2385957,0.0-19.0-0.1-0.130,A36NTNEXBNBIOD,3DW3BNF1HKYVNTMBZS7SV7ATLD58VQ,3CFVK00FWP189TPNIBDQD4CNIX96LE,8,7
131,4,object_08,object_06,514.09999999963,7,2,239.5,0.7777777777777778,1,object_04,5,1754,0,7,4,restaurant_6,1,memory-2step-stake-s,631,2394132,0.0-19.0-0.1-0.131,A36NTNEXBNBIOD,3DW3BNF1HKYVNTMBZS7SV7ATLD58VQ,3CFVK00FWP189TPNIBDQD4CNIX96LE,8,7
132,3,object_09,object_03,682.0,6,2,265.60000000056,0.0,2,object_05,5,1754,0,8,0,library_3,1,memory-2step-stake-s,632,2401619,0.0-19.0-0.1-0.132,A36NTNEXBNBIOD,3DW3BNF1HKYVNTMBZS7SV7ATLD58VQ,3CFVK00FWP189TPNIBDQD4CNIX96LE,5,6
133,4,object_08,object_06,660.5,7,2,251.10000000056,0.7777777777777778,1,object_04,5,1789,0,7,4,restaurant_5,1,memory-2step-stake-s,633,2409808,0.0-19.0-0.1-0.133,A36NTNEXBNBIOD,3DW3BNF1HKYVNTMBZS7SV7ATLD58VQ,3CFVK00FWP189TPNIBDQD4CNIX96LE,8,7
134,3,object_09,object_03,640.40000000037,5,1,256.90000000037,0.8888888888888888,1,object_04,5,1829,0,8,2,library_4,1,memory-2step-stake-s,634,2418099,0.0-19.0-0.1-0.134,A36NTNEXBNBIOD,3DW3BNF1HKYVNTMBZS7SV7ATLD58VQ,3CFVK00FWP189TPNIBDQD4CNIX96LE,5,6
135,1,object_01,object_07,819.90000000037,1,1,301.20000000019,0.8888888888888888,1,object_04,1,1837,0,8,4,desert_8,1,memory-2step-stake-s,635,2426441,0.0-19.0-0.1-0.135,A36NTNEXBNBIOD,3DW3BNF1HKYVNTMBZS7SV7ATLD58VQ,3CFVK00FWP189TPNIBDQD4CNIX96LE,1,2
136,1,object_07,object_01,956.70000000019,2,1,322.5,0.3333333333333333,2,object_05,1,1840,0,9,3,desert_2,1,memory-2step-stake-s,636,2434290,0.0-19.0-0.1-0.136,A36NTNEXBNBIOD,3DW3BNF1HKYVNTMBZS7SV7ATLD58VQ,3CFVK00FWP189TPNIBDQD4CNIX96LE,2,1
137,4,object_08,object_06,543.59999999963,7,2,213.89999999944,0.8888888888888888,1,object_04,5,1880,0,8,0,restaurant_5,1,memory-2step-stake-s,637,2442543,0.0-19.0-0.1-0.137,A36NTNEXBNBIOD,3DW3BNF1HKYVNTMBZS7SV7ATLD58VQ,3CFVK00FWP189TPNIBDQD4CNIX96LE,8,7
138,4,object_08,object_06,411.5,7,2,240.70000000019,0.6666666666666666,1,object_04,5,1910,0,6,2,restaurant_5,1,memory-2step-stake-s,638,2450616,0.0-19.0-0.1-0.138,A36NTNEXBNBIOD,3DW3BNF1HKYVNTMBZS7SV7ATLD58VQ,3CFVK00FWP189TPNIBDQD4CNIX96LE,8,7
139,4,object_06,object_08,887.0,8,2,253.79999999981,0.2222222222222222,2,object_05,5,1920,0,8,2,restaurant_6,1,memory-2step-stake-s,639,2458308,0.0-19.0-0.1-0.139,A36NTNEXBNBIOD,3DW3BNF1HKYVNTMBZS7SV7ATLD58VQ,3CFVK00FWP189TPNIBDQD4CNIX96LE,7,8
140,2,object_02,object_10,390.79999999981,4,1,257.29999999981,0.4444444444444444,2,object_05,1,1924,0,8,4,forest_5,1,memory-2step-stake-s,640,2466197,0.0-19.0-0.1-0.140,A36NTNEXBNBIOD,3DW3BNF1HKYVNTMBZS7SV7ATLD58VQ,3CFVK00FWP189TPNIBDQD4CNIX96LE,4,3
141,2,object_10,object_02,660.10000000056,3,1,241.59999999963,0.7777777777777778,1,object_04,1,1931,0,7,6,forest_3,1,memory-2step-stake-s,641,2474375,0.0-19.0-0.1-0.141,A36NTNEXBNBIOD,3DW3BNF1HKYVNTMBZS7SV7ATLD58VQ,3CFVK00FWP189TPNIBDQD4CNIX96LE,3,4
142,1,object_07,object_01,624.5,2,1,323.20000000019,1.0,2,object_05,1,1940,0,6,9,desert_2,1,memory-2step-stake-s,642,2482847,0.0-19.0-0.1-0.142,A36NTNEXBNBIOD,3DW3BNF1HKYVNTMBZS7SV7ATLD58VQ,3CFVK00FWP189TPNIBDQD4CNIX96LE,2,1
143,3,object_09,object_03,801.60000000056,6,2,1130.5,1.0,2,object_05,5,1985,0,7,9,library_4,1,memory-2step-stake-s,643,2492116,0.0-19.0-0.1-0.143,A36NTNEXBNBIOD,3DW3BNF1HKYVNTMBZS7SV7ATLD58VQ,3CFVK00FWP189TPNIBDQD4CNIX96LE,5,6
144,1,object_07,object_01,583.20000000019,2,1,302.5,1.0,2,object_05,1,1994,0,7,9,desert_8,1,memory-2step-stake-s,644,2500563,0.0-19.0-0.1-0.144,A36NTNEXBNBIOD,3DW3BNF1HKYVNTMBZS7SV7ATLD58VQ,3CFVK00FWP189TPNIBDQD4CNIX96LE,2,1
145,3,object_03,object_09,891.19999999925,6,1,307.89999999944,0.5555555555555556,2,object_05,5,2019,0,8,5,library_6,1,memory-2step-stake-s,645,2508616,0.0-19.0-0.1-0.145,A36NTNEXBNBIOD,3DW3BNF1HKYVNTMBZS7SV7ATLD58VQ,3CFVK00FWP189TPNIBDQD4CNIX96LE,6,5
146,2,object_02,object_10,688.79999999981,3,2,1030.4000000004,0.7777777777777778,1,object_04,1,2026,0,7,2,forest_3,1,memory-2step-stake-s,646,2517593,0.0-19.0-0.1-0.146,A36NTNEXBNBIOD,3DW3BNF1HKYVNTMBZS7SV7ATLD58VQ,3CFVK00FWP189TPNIBDQD4CNIX96LE,4,3
147,2,object_02,object_10,715.20000000019,3,2,329.70000000019,0.8888888888888888,1,object_04,1,2034,0,8,2,forest_3,1,memory-2step-stake-s,647,2525966,0.0-19.0-0.1-0.147,A36NTNEXBNBIOD,3DW3BNF1HKYVNTMBZS7SV7ATLD58VQ,3CFVK00FWP189TPNIBDQD4CNIX96LE,4,3
148,1,object_01,object_07,619.09999999963,1,1,485.79999999981,0.7777777777777778,1,object_04,1,2041,0,7,1,desert_1,1,memory-2step-stake-s,648,2534376,0.0-19.0-0.1-0.148,A36NTNEXBNBIOD,3DW3BNF1HKYVNTMBZS7SV7ATLD58VQ,3CFVK00FWP189TPNIBDQD4CNIX96LE,1,2
149,3,object_09,object_03,672.79999999981,5,1,259.70000000019,0.8888888888888888,1,object_04,5,2081,0,8,1,library_3,1,memory-2step-stake-s,649,2542664,0.0-19.0-0.1-0.149,A36NTNEXBNBIOD,3DW3BNF1HKYVNTMBZS7SV7ATLD58VQ,3CFVK00FWP189TPNIBDQD4CNIX96LE,5,6
150,3,object_03,object_09,660.0,5,2,265.90000000037,0.8888888888888888,1,object_04,5,2121,0,8,0,library_1,1,memory-2step-stake-s,650,2550952,0.0-19.0-0.1-0.150,A36NTNEXBNBIOD,3DW3BNF1HKYVNTMBZS7SV7ATLD58VQ,3CFVK00FWP189TPNIBDQD4CNIX96LE,6,5
151,3,object_03,object_09,490.70000000019,5,2,265.0,0.7777777777777778,1,object_04,5,2156,0,7,4,library_3,1,memory-2step-stake-s,651,2559140,0.0-19.0-0.1-0.151,A36NTNEXBNBIOD,3DW3BNF1HKYVNTMBZS7SV7ATLD58VQ,3CFVK00FWP189TPNIBDQD4CNIX96LE,6,5
152,4,object_08,object_06,810.40000000037,7,2,299.29999999981,0.3333333333333333,1,object_04,5,2171,0,3,3,restaurant_6,1,memory-2step-stake-s,652,2566962,0.0-19.0-0.1-0.152,A36NTNEXBNBIOD,3DW3BNF1HKYVNTMBZS7SV7ATLD58VQ,3CFVK00FWP189TPNIBDQD4CNIX96LE,8,7
153,2,object_10,object_02,495.0,4,2,311.39999999944,0.2222222222222222,2,object_05,5,2181,0,7,2,forest_5,1,memory-2step-stake-s,653,2574696,0.0-19.0-0.1-0.153,A36NTNEXBNBIOD,3DW3BNF1HKYVNTMBZS7SV7ATLD58VQ,3CFVK00FWP189TPNIBDQD4CNIX96LE,3,4
154,3,object_03,object_09,680.90000000037,5,2,289.60000000056,0.8888888888888888,1,object_04,5,2221,0,8,7,library_3,1,memory-2step-stake-s,654,2583015,0.0-19.0-0.1-0.154,A36NTNEXBNBIOD,3DW3BNF1HKYVNTMBZS7SV7ATLD58VQ,3CFVK00FWP189TPNIBDQD4CNIX96LE,6,5
155,3,object_03,object_09,790.70000000019,5,2,1102.3999999994,1.0,1,object_04,1,2230,0,9,4,library_3,1,memory-2step-stake-s,655,2592250,0.0-19.0-0.1-0.155,A36NTNEXBNBIOD,3DW3BNF1HKYVNTMBZS7SV7ATLD58VQ,3CFVK00FWP189TPNIBDQD4CNIX96LE,6,5
156,3,object_03,object_09,475.20000000019,5,2,271.89999999944,1.0,1,object_04,5,2275,0,9,4,library_1,1,memory-2step-stake-s,656,2600655,0.0-19.0-0.1-0.156,A36NTNEXBNBIOD,3DW3BNF1HKYVNTMBZS7SV7ATLD58VQ,3CFVK00FWP189TPNIBDQD4CNIX96LE,6,5
157,1,object_07,object_01,779.10000000056,2,1,1359.2999999998,0.2222222222222222,2,object_05,1,2277,0,8,2,desert_6,1,memory-2step-stake-s,657,2609441,0.0-19.0-0.1-0.157,A36NTNEXBNBIOD,3DW3BNF1HKYVNTMBZS7SV7ATLD58VQ,3CFVK00FWP189TPNIBDQD4CNIX96LE,2,1
158,4,object_08,object_06,497.19999999925,7,2,280.60000000056,0.8888888888888888,1,object_04,1,2285,0,8,1,restaurant_1,1,memory-2step-stake-s,658,2617753,0.0-19.0-0.1-0.158,A36NTNEXBNBIOD,3DW3BNF1HKYVNTMBZS7SV7ATLD58VQ,3CFVK00FWP189TPNIBDQD4CNIX96LE,8,7
159,4,object_08,object_06,481.39999999944,7,2,232.09999999963,0.8888888888888888,1,object_04,5,2325,0,8,2,restaurant_1,1,memory-2step-stake-s,659,2626020,0.0-19.0-0.1-0.159,A36NTNEXBNBIOD,3DW3BNF1HKYVNTMBZS7SV7ATLD58VQ,3CFVK00FWP189TPNIBDQD4CNIX96LE,8,7
160,4,object_08,object_06,744.59999999963,7,2,1275.2000000002,0.8888888888888888,1,object_04,5,2365,0,8,5,restaurant_8,1,memory-2step-stake-s,660,2635323,0.0-19.0-0.1-0.160,A36NTNEXBNBIOD,3DW3BNF1HKYVNTMBZS7SV7ATLD58VQ,3CFVK00FWP189TPNIBDQD4CNIX96LE,8,7
161,1,object_07,object_01,670.79999999981,1,2,256.20000000019,0.8888888888888888,1,object_04,1,2373,0,8,4,desert_6,1,memory-2step-stake-s,661,2643615,0.0-19.0-0.1-0.161,A36NTNEXBNBIOD,3DW3BNF1HKYVNTMBZS7SV7ATLD58VQ,3CFVK00FWP189TPNIBDQD4CNIX96LE,2,1
162,1,object_01,object_07,465.39999999944,1,1,78.799999999814,1.0,1,object_04,1,2382,0,9,2,desert_6,1,memory-2step-stake-s,662,2651835,0.0-19.0-0.1-0.162,A36NTNEXBNBIOD,3DW3BNF1HKYVNTMBZS7SV7ATLD58VQ,3CFVK00FWP189TPNIBDQD4CNIX96LE,1,2
163,2,object_10,object_02,615.29999999981,3,1,258.0,0.8888888888888888,1,object_04,1,2390,0,8,1,forest_3,1,memory-2step-stake-s,663,2660134,0.0-19.0-0.1-0.163,A36NTNEXBNBIOD,3DW3BNF1HKYVNTMBZS7SV7ATLD58VQ,3CFVK00FWP189TPNIBDQD4CNIX96LE,3,4
164,3,object_03,object_09,717.70000000019,5,2,333.59999999963,0.8888888888888888,1,object_04,5,2430,0,8,3,library_4,1,memory-2step-stake-s,664,2668505,0.0-19.0-0.1-0.164,A36NTNEXBNBIOD,3DW3BNF1HKYVNTMBZS7SV7ATLD58VQ,3CFVK00FWP189TPNIBDQD4CNIX96LE,6,5
165,2,object_10,object_02,710.29999999981,3,1,408.70000000019,0.8888888888888888,1,object_04,1,2438,0,8,3,forest_8,1,memory-2step-stake-s,665,2676949,0.0-19.0-0.1-0.165,A36NTNEXBNBIOD,3DW3BNF1HKYVNTMBZS7SV7ATLD58VQ,3CFVK00FWP189TPNIBDQD4CNIX96LE,3,4
166,2,object_02,object_10,488.0,3,2,273.79999999981,0.8888888888888888,1,object_04,1,2446,0,8,3,forest_3,1,memory-2step-stake-s,666,2685264,0.0-19.0-0.1-0.166,A36NTNEXBNBIOD,3DW3BNF1HKYVNTMBZS7SV7ATLD58VQ,3CFVK00FWP189TPNIBDQD4CNIX96LE,4,3
167,4,object_06,object_08,413.30000000075,7,1,253.70000000019,0.5555555555555556,1,object_04,1,2451,0,5,6,restaurant_8,1,memory-2step-stake-s,667,2693251,0.0-19.0-0.1-0.167,A36NTNEXBNBIOD,3DW3BNF1HKYVNTMBZS7SV7ATLD58VQ,3CFVK00FWP189TPNIBDQD4CNIX96LE,7,8
168,1,object_07,object_01,537.39999999944,2,1,265.70000000019,0.3333333333333333,2,object_05,1,2454,0,4,3,desert_1,1,memory-2step-stake-s,668,2701056,0.0-19.0-0.1-0.168,A36NTNEXBNBIOD,3DW3BNF1HKYVNTMBZS7SV7ATLD58VQ,3CFVK00FWP189TPNIBDQD4CNIX96LE,2,1
169,3,object_03,object_09,711.70000000019,5,2,319.20000000019,0.1111111111111111,1,object_04,5,2459,0,1,5,library_4,1,memory-2step-stake-s,669,2708704,0.0-19.0-0.1-0.169,A36NTNEXBNBIOD,3DW3BNF1HKYVNTMBZS7SV7ATLD58VQ,3CFVK00FWP189TPNIBDQD4CNIX96LE,6,5
170,2,object_10,object_02,763.40000000037,4,2,1015.4000000004,0.4444444444444444,2,object_05,1,2463,0,3,4,forest_6,1,memory-2step-stake-s,670,2717351,0.0-19.0-0.1-0.170,A36NTNEXBNBIOD,3DW3BNF1HKYVNTMBZS7SV7ATLD58VQ,3CFVK00FWP189TPNIBDQD4CNIX96LE,3,4
171,3,object_03,object_09,586.80000000075,6,1,295.60000000056,0.4444444444444444,2,object_05,5,2483,0,2,4,library_4,1,memory-2step-stake-s,671,2725282,0.0-19.0-0.1-0.171,A36NTNEXBNBIOD,3DW3BNF1HKYVNTMBZS7SV7ATLD58VQ,3CFVK00FWP189TPNIBDQD4CNIX96LE,6,5
172,2,object_10,object_02,652.10000000056,3,1,340.30000000075,0.1111111111111111,1,object_04,1,2484,0,1,2,forest_8,1,memory-2step-stake-s,672,2732944,0.0-19.0-0.1-0.172,A36NTNEXBNBIOD,3DW3BNF1HKYVNTMBZS7SV7ATLD58VQ,3CFVK00FWP189TPNIBDQD4CNIX96LE,3,4
173,4,object_06,object_08,737.09999999963,8,2,526.09999999963,0.0,2,object_05,5,2484,0,2,0,restaurant_8,1,memory-2step-stake-s,673,2740698,0.0-19.0-0.1-0.173,A36NTNEXBNBIOD,3DW3BNF1HKYVNTMBZS7SV7ATLD58VQ,3CFVK00FWP189TPNIBDQD4CNIX96LE,7,8
174,3,object_03,object_09,674.70000000019,6,1,282.0,0.2222222222222222,2,object_05,5,2494,0,2,2,library_1,1,memory-2step-stake-s,674,2748407,0.0-19.0-0.1-0.174,A36NTNEXBNBIOD,3DW3BNF1HKYVNTMBZS7SV7ATLD58VQ,3CFVK00FWP189TPNIBDQD4CNIX96LE,6,5
175,4,object_06,object_08,613.29999999981,8,2,257.10000000056,0.1111111111111111,2,object_05,5,2499,0,5,1,restaurant_1,1,memory-2step-stake-s,675,2755991,0.0-19.0-0.1-0.175,A36NTNEXBNBIOD,3DW3BNF1HKYVNTMBZS7SV7ATLD58VQ,3CFVK00FWP189TPNIBDQD4CNIX96LE,7,8
176,2,object_10,object_02,754.5,4,2,873.20000000019,0.5555555555555556,2,object_05,5,2524,0,4,5,forest_6,1,memory-2step-stake-s,676,2764599,0.0-19.0-0.1-0.176,A36NTNEXBNBIOD,3DW3BNF1HKYVNTMBZS7SV7ATLD58VQ,3CFVK00FWP189TPNIBDQD4CNIX96LE,3,4
177,4,object_06,object_08,622.60000000056,8,2,273.79999999981,0.4444444444444444,2,object_05,5,2544,0,4,4,restaurant_5,1,memory-2step-stake-s,677,2772507,0.0-19.0-0.1-0.177,A36NTNEXBNBIOD,3DW3BNF1HKYVNTMBZS7SV7ATLD58VQ,3CFVK00FWP189TPNIBDQD4CNIX96LE,7,8
178,1,object_01,object_07,535.59999999963,1,1,261.20000000019,0.5555555555555556,1,object_04,1,2549,0,5,3,desert_1,1,memory-2step-stake-s,678,2780509,0.0-19.0-0.1-0.178,A36NTNEXBNBIOD,3DW3BNF1HKYVNTMBZS7SV7ATLD58VQ,3CFVK00FWP189TPNIBDQD4CNIX96LE,1,2
179,2,object_10,object_02,621.70000000019,3,1,342.0,0.6666666666666666,1,object_04,1,2555,0,6,5,forest_5,1,memory-2step-stake-s,679,2788697,0.0-19.0-0.1-0.179,A36NTNEXBNBIOD,3DW3BNF1HKYVNTMBZS7SV7ATLD58VQ,3CFVK00FWP189TPNIBDQD4CNIX96LE,3,4
180,2,object_10,object_02,496.0,3,1,211.79999999981,0.8888888888888888,1,object_04,1,2563,0,8,3,forest_8,1,memory-2step-stake-s,680,2796941,0.0-19.0-0.1-0.180,A36NTNEXBNBIOD,3DW3BNF1HKYVNTMBZS7SV7ATLD58VQ,3CFVK00FWP189TPNIBDQD4CNIX96LE,3,4
181,2,object_10,object_02,553.79999999981,3,1,99.700000000186,1.0,1,object_04,5,2608,0,9,2,forest_6,1,memory-2step-stake-s,681,2805166,0.0-19.0-0.1-0.181,A36NTNEXBNBIOD,3DW3BNF1HKYVNTMBZS7SV7ATLD58VQ,3CFVK00FWP189TPNIBDQD4CNIX96LE,3,4
182,4,object_08,object_06,529.29999999981,7,2,261.39999999944,0.8888888888888888,1,object_04,5,2648,0,8,1,restaurant_1,1,memory-2step-stake-s,682,2813453,0.0-19.0-0.1-0.182,A36NTNEXBNBIOD,3DW3BNF1HKYVNTMBZS7SV7ATLD58VQ,3CFVK00FWP189TPNIBDQD4CNIX96LE,8,7
183,1,object_01,object_07,1113.7999999998,2,2,399.70000000019,0.2222222222222222,2,object_05,1,2650,0,7,2,desert_6,1,memory-2step-stake-s,683,2821270,0.0-19.0-0.1-0.183,A36NTNEXBNBIOD,3DW3BNF1HKYVNTMBZS7SV7ATLD58VQ,3CFVK00FWP189TPNIBDQD4CNIX96LE,1,2
184,1,object_07,object_01,628.5,2,1,257.39999999944,0.2222222222222222,2,object_05,5,2660,0,8,2,desert_8,1,memory-2step-stake-s,684,2828946,0.0-19.0-0.1-0.184,A36NTNEXBNBIOD,3DW3BNF1HKYVNTMBZS7SV7ATLD58VQ,3CFVK00FWP189TPNIBDQD4CNIX96LE,2,1
185,4,object_08,object_06,656.59999999963,7,2,242.0,0.8888888888888888,1,object_04,5,2700,0,8,3,restaurant_8,1,memory-2step-stake-s,685,2837214,0.0-19.0-0.1-0.185,A36NTNEXBNBIOD,3DW3BNF1HKYVNTMBZS7SV7ATLD58VQ,3CFVK00FWP189TPNIBDQD4CNIX96LE,8,7
186,3,object_09,object_03,811.09999999963,6,2,274.79999999981,0.8888888888888888,2,object_05,5,2740,0,7,8,library_4,1,memory-2step-stake-s,686,2845520,0.0-19.0-0.1-0.186,A36NTNEXBNBIOD,3DW3BNF1HKYVNTMBZS7SV7ATLD58VQ,3CFVK00FWP189TPNIBDQD4CNIX96LE,5,6
187,3,object_09,object_03,650.5,6,2,251.79999999981,0.7777777777777778,2,object_05,5,2775,0,8,7,library_6,1,memory-2step-stake-s,687,2853694,0.0-19.0-0.1-0.187,A36NTNEXBNBIOD,3DW3BNF1HKYVNTMBZS7SV7ATLD58VQ,3CFVK00FWP189TPNIBDQD4CNIX96LE,5,6
188,3,object_09,object_03,645.19999999925,6,2,243.0,0.7777777777777778,2,object_05,5,2810,0,9,7,library_3,1,memory-2step-stake-s,688,2861865,0.0-19.0-0.1-0.188,A36NTNEXBNBIOD,3DW3BNF1HKYVNTMBZS7SV7ATLD58VQ,3CFVK00FWP189TPNIBDQD4CNIX96LE,5,6
189,4,object_06,object_08,853.39999999944,7,1,277.10000000056,1.0,1,object_04,5,2855,0,9,5,restaurant_6,1,memory-2step-stake-s,689,2870276,0.0-19.0-0.1-0.189,A36NTNEXBNBIOD,3DW3BNF1HKYVNTMBZS7SV7ATLD58VQ,3CFVK00FWP189TPNIBDQD4CNIX96LE,7,8
190,4,object_06,object_08,546.60000000056,7,1,242.5,1.0,1,object_04,5,2900,0,9,7,restaurant_8,1,memory-2step-stake-s,690,2878652,0.0-19.0-0.1-0.190,A36NTNEXBNBIOD,3DW3BNF1HKYVNTMBZS7SV7ATLD58VQ,3CFVK00FWP189TPNIBDQD4CNIX96LE,7,8
191,4,object_06,object_08,554.89999999944,7,1,249.70000000019,0.7777777777777778,1,object_04,1,2907,0,7,7,restaurant_6,1,memory-2step-stake-s,691,2886839,0.0-19.0-0.1-0.191,A36NTNEXBNBIOD,3DW3BNF1HKYVNTMBZS7SV7ATLD58VQ,3CFVK00FWP189TPNIBDQD4CNIX96LE,7,8
192,3,object_03,object_09,778.70000000019,6,1,831.40000000037,0.5555555555555556,2,object_05,5,2932,0,6,5,library_3,1,memory-2step-stake-s,692,2895397,0.0-19.0-0.1-0.192,A36NTNEXBNBIOD,3DW3BNF1HKYVNTMBZS7SV7ATLD58VQ,3CFVK00FWP189TPNIBDQD4CNIX96LE,6,5
193,3,object_09,object_03,701.70000000019,6,2,351.59999999963,0.5555555555555556,2,object_05,5,2957,0,9,5,library_6,1,memory-2step-stake-s,693,2903476,0.0-19.0-0.1-0.193,A36NTNEXBNBIOD,3DW3BNF1HKYVNTMBZS7SV7ATLD58VQ,3CFVK00FWP189TPNIBDQD4CNIX96LE,5,6
194,1,object_01,object_07,585.90000000037,1,1,266.5,0.7777777777777778,1,object_04,1,2964,0,7,2,desert_8,1,memory-2step-stake-s,694,2911671,0.0-19.0-0.1-0.194,A36NTNEXBNBIOD,3DW3BNF1HKYVNTMBZS7SV7ATLD58VQ,3CFVK00FWP189TPNIBDQD4CNIX96LE,1,2
195,4,object_08,object_06,555.39999999944,7,2,105.09999999963,0.8888888888888888,1,object_04,5,3004,0,8,0,restaurant_6,1,memory-2step-stake-s,695,2919810,0.0-19.0-0.1-0.195,A36NTNEXBNBIOD,3DW3BNF1HKYVNTMBZS7SV7ATLD58VQ,3CFVK00FWP189TPNIBDQD4CNIX96LE,8,7
196,1,object_07,object_01,830.79999999981,1,2,304.20000000019,0.8888888888888888,1,object_04,1,3012,0,8,1,desert_1,1,memory-2step-stake-s,696,2928150,0.0-19.0-0.1-0.196,A36NTNEXBNBIOD,3DW3BNF1HKYVNTMBZS7SV7ATLD58VQ,3CFVK00FWP189TPNIBDQD4CNIX96LE,2,1
197,2,object_02,object_10,518.39999999944,3,2,375.89999999944,0.6666666666666666,1,object_04,1,3018,0,6,0,forest_8,1,memory-2step-stake-s,697,2936358,0.0-19.0-0.1-0.197,A36NTNEXBNBIOD,3DW3BNF1HKYVNTMBZS7SV7ATLD58VQ,3CFVK00FWP189TPNIBDQD4CNIX96LE,4,3
198,2,object_02,object_10,551.10000000056,3,2,290.29999999981,0.2222222222222222,1,object_04,1,3020,0,2,0,forest_6,1,memory-2step-stake-s,698,2944081,0.0-19.0-0.1-0.198,A36NTNEXBNBIOD,3DW3BNF1HKYVNTMBZS7SV7ATLD58VQ,3CFVK00FWP189TPNIBDQD4CNIX96LE,4,3
199,4,object_06,object_08,884.5,7,1,290.40000000037,0.2222222222222222,1,object_04,5,3030,0,2,1,restaurant_8,1,memory-2step-stake-s,699,2951798,0.0-19.0-0.1-0.199,A36NTNEXBNBIOD,3DW3BNF1HKYVNTMBZS7SV7ATLD58VQ,3CFVK00FWP189TPNIBDQD4CNIX96LE,7,8
200,3,object_03,object_09,528.80000000075,5,2,172.59999999963,0.4444444444444444,1,object_04,5,3050,0,4,3,library_4,1,memory-2step-stake-s,700,2959602,0.0-19.0-0.1-0.200,A36NTNEXBNBIOD,3DW3BNF1HKYVNTMBZS7SV7ATLD58VQ,3CFVK00FWP189TPNIBDQD4CNIX96LE,6,5
201,4,object_08,object_06,653.60000000056,8,1,251.10000000056,0.5555555555555556,2,object_05,5,3075,0,4,5,restaurant_1,1,memory-2step-stake-s,701,2967587,0.0-19.0-0.1-0.201,A36NTNEXBNBIOD,3DW3BNF1HKYVNTMBZS7SV7ATLD58VQ,3CFVK00FWP189TPNIBDQD4CNIX96LE,8,7
202,4,object_06,object_08,778.29999999981,8,2,613.79999999981,0.6666666666666666,2,object_05,1,3081,0,7,6,restaurant_6,1,memory-2step-stake-s,702,2976037,0.0-19.0-0.1-0.202,A36NTNEXBNBIOD,3DW3BNF1HKYVNTMBZS7SV7ATLD58VQ,3CFVK00FWP189TPNIBDQD4CNIX96LE,7,8
203,3,object_03,object_09,783.80000000075,5,2,542.60000000056,0.6666666666666666,1,object_04,5,3111,0,6,4,library_6,1,memory-2step-stake-s,703,2984419,0.0-19.0-0.1-0.203,A36NTNEXBNBIOD,3DW3BNF1HKYVNTMBZS7SV7ATLD58VQ,3CFVK00FWP189TPNIBDQD4CNIX96LE,6,5
204,3,object_09,object_03,974.20000000019,6,2,375.79999999981,1.0,2,object_05,1,3120,0,5,9,library_6,1,memory-2step-stake-s,704,2992943,0.0-19.0-0.1-0.204,A36NTNEXBNBIOD,3DW3BNF1HKYVNTMBZS7SV7ATLD58VQ,3CFVK00FWP189TPNIBDQD4CNIX96LE,5,6
205,1,object_07,object_01,676.0,2,1,267.10000000056,0.8888888888888888,2,object_05,1,3128,0,6,8,desert_2,1,memory-2step-stake-s,705,3001254,0.0-19.0-0.1-0.205,A36NTNEXBNBIOD,3DW3BNF1HKYVNTMBZS7SV7ATLD58VQ,3CFVK00FWP189TPNIBDQD4CNIX96LE,2,1
206,3,object_09,object_03,469.90000000037,6,2,293.40000000037,0.2222222222222222,2,object_05,5,3138,0,8,2,library_6,1,memory-2step-stake-s,706,3008980,0.0-19.0-0.1-0.206,A36NTNEXBNBIOD,3DW3BNF1HKYVNTMBZS7SV7ATLD58VQ,3CFVK00FWP189TPNIBDQD4CNIX96LE,5,6
207,1,object_01,object_07,766.79999999981,2,2,417.39999999944,0.1111111111111111,2,object_05,1,3139,0,8,1,desert_6,1,memory-2step-stake-s,707,3016725,0.0-19.0-0.1-0.207,A36NTNEXBNBIOD,3DW3BNF1HKYVNTMBZS7SV7ATLD58VQ,3CFVK00FWP189TPNIBDQD4CNIX96LE,1,2
208,2,object_02,object_10,448.0,4,1,273.29999999981,0.0,2,object_05,1,3139,0,6,0,forest_8,1,memory-2step-stake-s,708,3024217,0.0-19.0-0.1-0.208,A36NTNEXBNBIOD,3DW3BNF1HKYVNTMBZS7SV7ATLD58VQ,3CFVK00FWP189TPNIBDQD4CNIX96LE,4,3
209,1,object_01,object_07,743.90000000037,2,2,947.79999999981,0.0,2,object_05,1,3139,0,7,0,desert_2,1,memory-2step-stake-s,709,3032376,0.0-19.0-0.1-0.209,A36NTNEXBNBIOD,3DW3BNF1HKYVNTMBZS7SV7ATLD58VQ,3CFVK00FWP189TPNIBDQD4CNIX96LE,1,2
210,1,object_01,object_07,663.09999999963,1,1,230.5,1.0,1,object_04,5,3184,0,9,1,desert_8,1,memory-2step-stake-s,710,3040734,0.0-19.0-0.1-0.210,A36NTNEXBNBIOD,3DW3BNF1HKYVNTMBZS7SV7ATLD58VQ,3CFVK00FWP189TPNIBDQD4CNIX96LE,1,2
211,1,object_01,object_07,603.90000000037,1,1,41.900000000373,0.8888888888888888,1,object_04,1,3192,0,8,0,desert_2,1,memory-2step-stake-s,711,3048807,0.0-19.0-0.1-0.211,A36NTNEXBNBIOD,3DW3BNF1HKYVNTMBZS7SV7ATLD58VQ,3CFVK00FWP189TPNIBDQD4CNIX96LE,1,2
212,4,object_06,object_08,601.0,7,1,135.60000000056,1.0,1,object_04,5,3237,0,9,1,restaurant_5,1,memory-2step-stake-s,712,3057070,0.0-19.0-0.1-0.212,A36NTNEXBNBIOD,3DW3BNF1HKYVNTMBZS7SV7ATLD58VQ,3CFVK00FWP189TPNIBDQD4CNIX96LE,7,8
213,1,object_01,object_07,612.20000000019,1,1,300.09999999963,1.0,1,object_04,1,3246,0,9,2,desert_6,1,memory-2step-stake-s,713,3065498,0.0-19.0-0.1-0.213,A36NTNEXBNBIOD,3DW3BNF1HKYVNTMBZS7SV7ATLD58VQ,3CFVK00FWP189TPNIBDQD4CNIX96LE,1,2
214,1,object_07,object_01,715.70000000019,1,2,617.59999999963,0.8888888888888888,1,object_04,1,3254,0,8,0,desert_1,1,memory-2step-stake-s,714,3074147,0.0-19.0-0.1-0.214,A36NTNEXBNBIOD,3DW3BNF1HKYVNTMBZS7SV7ATLD58VQ,3CFVK00FWP189TPNIBDQD4CNIX96LE,2,1
215,3,object_03,object_09,756.90000000037,5,2,236.10000000056,0.8888888888888888,1,object_04,5,3294,0,8,6,library_4,1,memory-2step-stake-s,715,3082413,0.0-19.0-0.1-0.215,A36NTNEXBNBIOD,3DW3BNF1HKYVNTMBZS7SV7ATLD58VQ,3CFVK00FWP189TPNIBDQD4CNIX96LE,6,5
216,2,object_10,object_02,619.0,3,1,257.0,0.6666666666666666,1,object_04,5,3324,0,6,7,forest_5,1,memory-2step-stake-s,716,3090497,0.0-19.0-0.1-0.216,A36NTNEXBNBIOD,3DW3BNF1HKYVNTMBZS7SV7ATLD58VQ,3CFVK00FWP189TPNIBDQD4CNIX96LE,3,4
217,4,object_08,object_06,660.80000000075,8,1,288.40000000037,0.8888888888888888,2,object_05,1,3332,0,4,8,restaurant_8,1,memory-2step-stake-s,717,3098816,0.0-19.0-0.1-0.217,A36NTNEXBNBIOD,3DW3BNF1HKYVNTMBZS7SV7ATLD58VQ,3CFVK00FWP189TPNIBDQD4CNIX96LE,8,7
218,1,object_07,object_01,719.0,1,2,652.29999999981,0.6666666666666666,1,object_04,1,3338,0,6,7,desert_8,1,memory-2step-stake-s,718,3107300,0.0-19.0-0.1-0.218,A36NTNEXBNBIOD,3DW3BNF1HKYVNTMBZS7SV7ATLD58VQ,3CFVK00FWP189TPNIBDQD4CNIX96LE,2,1
219,2,object_02,object_10,809.90000000037,3,2,274.5,0.4444444444444444,1,object_04,1,3342,0,4,6,forest_6,1,memory-2step-stake-s,719,3115199,0.0-19.0-0.1-0.219,A36NTNEXBNBIOD,3DW3BNF1HKYVNTMBZS7SV7ATLD58VQ,3CFVK00FWP189TPNIBDQD4CNIX96LE,4,3
220,4,object_08,object_06,795.20000000019,8,1,918.59999999963,0.8888888888888888,2,object_05,1,3350,0,6,8,restaurant_6,1,memory-2step-stake-s,720,3124146,0.0-19.0-0.1-0.220,A36NTNEXBNBIOD,3DW3BNF1HKYVNTMBZS7SV7ATLD58VQ,3CFVK00FWP189TPNIBDQD4CNIX96LE,8,7
221,1,object_07,object_01,1021.7999999998,1,2,316.20000000019,0.4444444444444444,1,object_04,1,3354,0,4,8,desert_2,1,memory-2step-stake-s,721,3132090,0.0-19.0-0.1-0.221,A36NTNEXBNBIOD,3DW3BNF1HKYVNTMBZS7SV7ATLD58VQ,3CFVK00FWP189TPNIBDQD4CNIX96LE,2,1
222,2,object_02,object_10,910.39999999944,4,1,332.60000000056,0.6666666666666666,2,object_05,5,3384,0,7,6,forest_5,1,memory-2step-stake-s,722,3140254,0.0-19.0-0.1-0.222,A36NTNEXBNBIOD,3DW3BNF1HKYVNTMBZS7SV7ATLD58VQ,3CFVK00FWP189TPNIBDQD4CNIX96LE,4,3
223,2,object_10,object_02,575.70000000019,3,1,249.0,0.7777777777777778,1,object_04,5,3419,0,7,7,forest_5,1,memory-2step-stake-s,723,3148435,0.0-19.0-0.1-0.223,A36NTNEXBNBIOD,3DW3BNF1HKYVNTMBZS7SV7ATLD58VQ,3CFVK00FWP189TPNIBDQD4CNIX96LE,3,4
224,2,object_10,object_02,770.40000000037,3,1,-1.0,0.0,1,object_04,1,3419,0,9,6,forest_6,1,memory-2step-stake-s,724,3156951,0.0-19.0-0.1-0.224,A36NTNEXBNBIOD,3DW3BNF1HKYVNTMBZS7SV7ATLD58VQ,3CFVK00FWP189TPNIBDQD4CNIX96LE,3,4
225,3,object_03,object_09,537.90000000037,6,1,141.0,0.6666666666666666,2,object_05,1,3425,0,7,6,library_6,1,memory-2step-stake-s,725,3164925,0.0-19.0-0.1-0.225,A36NTNEXBNBIOD,3DW3BNF1HKYVNTMBZS7SV7ATLD58VQ,3CFVK00FWP189TPNIBDQD4CNIX96LE,6,5
226,4,object_08,object_06,837.5,8,1,992.70000000019,0.6666666666666666,2,object_05,5,3455,0,7,6,restaurant_6,1,memory-2step-stake-s,726,3173750,0.0-19.0-0.1-0.226,A36NTNEXBNBIOD,3DW3BNF1HKYVNTMBZS7SV7ATLD58VQ,3CFVK00FWP189TPNIBDQD4CNIX96LE,8,7
227,4,object_06,object_08,514.40000000037,8,2,328.40000000037,0.4444444444444444,2,object_05,5,3475,0,3,4,restaurant_1,1,memory-2step-stake-s,727,3181711,0.0-19.0-0.1-0.227,A36NTNEXBNBIOD,3DW3BNF1HKYVNTMBZS7SV7ATLD58VQ,3CFVK00FWP189TPNIBDQD4CNIX96LE,7,8
228,1,object_01,object_07,406.70000000019,1,1,305.59999999963,0.2222222222222222,1,object_04,1,3477,0,2,6,desert_8,1,memory-2step-stake-s,728,3189443,0.0-19.0-0.1-0.228,A36NTNEXBNBIOD,3DW3BNF1HKYVNTMBZS7SV7ATLD58VQ,3CFVK00FWP189TPNIBDQD4CNIX96LE,1,2
229,1,object_01,object_07,518.29999999981,2,2,268.0,0.7777777777777778,2,object_05,1,3484,0,1,7,desert_1,1,memory-2step-stake-s,729,3197650,0.0-19.0-0.1-0.229,A36NTNEXBNBIOD,3DW3BNF1HKYVNTMBZS7SV7ATLD58VQ,3CFVK00FWP189TPNIBDQD4CNIX96LE,1,2
230,2,object_10,object_02,612.80000000075,3,1,73.900000000373,0.2222222222222222,1,object_04,1,3486,0,2,5,forest_6,1,memory-2step-stake-s,730,3205151,0.0-19.0-0.1-0.230,A36NTNEXBNBIOD,3DW3BNF1HKYVNTMBZS7SV7ATLD58VQ,3CFVK00FWP189TPNIBDQD4CNIX96LE,3,4
231,2,object_10,object_02,662.0,4,2,122.59999999963,0.8888888888888888,2,object_05,5,3526,0,1,8,forest_8,1,memory-2step-stake-s,731,3213311,0.0-19.0-0.1-0.231,A36NTNEXBNBIOD,3DW3BNF1HKYVNTMBZS7SV7ATLD58VQ,3CFVK00FWP189TPNIBDQD4CNIX96LE,3,4
232,4,object_06,object_08,586.39999999944,8,2,46.799999999814,0.8888888888888888,2,object_05,5,3566,0,2,8,restaurant_5,1,memory-2step-stake-s,732,3221403,0.0-19.0-0.1-0.232,A36NTNEXBNBIOD,3DW3BNF1HKYVNTMBZS7SV7ATLD58VQ,3CFVK00FWP189TPNIBDQD4CNIX96LE,7,8
233,1,object_01,object_07,535.59999999963,1,1,61.399999999441,0.2222222222222222,1,object_04,1,3568,0,2,8,desert_2,1,memory-2step-stake-s,733,3228898,0.0-19.0-0.1-0.233,A36NTNEXBNBIOD,3DW3BNF1HKYVNTMBZS7SV7ATLD58VQ,3CFVK00FWP189TPNIBDQD4CNIX96LE,1,2
234,1,object_01,object_07,327.40000000037,2,2,316.30000000075,1.0,2,object_05,1,3577,0,7,9,desert_2,1,memory-2step-stake-s,734,3237358,0.0-19.0-0.1-0.234,A36NTNEXBNBIOD,3DW3BNF1HKYVNTMBZS7SV7ATLD58VQ,3CFVK00FWP189TPNIBDQD4CNIX96LE,1,2
235,3,object_03,object_09,508.20000000019,5,2,311.29999999981,0.8888888888888888,1,object_04,5,3617,0,8,9,library_1,1,memory-2step-stake-s,735,3245709,0.0-19.0-0.1-0.235,A36NTNEXBNBIOD,3DW3BNF1HKYVNTMBZS7SV7ATLD58VQ,3CFVK00FWP189TPNIBDQD4CNIX96LE,6,5
236,4,object_06,object_08,795.89999999944,7,1,248.60000000056,1.0,1,object_04,1,3626,0,9,9,restaurant_8,1,memory-2step-stake-s,736,3254113,0.0-19.0-0.1-0.236,A36NTNEXBNBIOD,3DW3BNF1HKYVNTMBZS7SV7ATLD58VQ,3CFVK00FWP189TPNIBDQD4CNIX96LE,7,8
237,3,object_09,object_03,174.0,6,2,211.79999999981,1.0,2,object_05,1,3635,0,8,9,library_3,1,memory-2step-stake-s,737,3262474,0.0-19.0-0.1-0.237,A36NTNEXBNBIOD,3DW3BNF1HKYVNTMBZS7SV7ATLD58VQ,3CFVK00FWP189TPNIBDQD4CNIX96LE,5,6
238,4,object_06,object_08,439.69999999925,8,2,340.40000000037,0.6666666666666666,2,object_05,5,3665,0,8,6,restaurant_6,1,memory-2step-stake-s,738,3270647,0.0-19.0-0.1-0.238,A36NTNEXBNBIOD,3DW3BNF1HKYVNTMBZS7SV7ATLD58VQ,3CFVK00FWP189TPNIBDQD4CNIX96LE,7,8
239,2,object_02,object_10,395.09999999963,4,1,248.0,0.7777777777777778,2,object_05,1,3672,0,4,7,forest_5,1,memory-2step-stake-s,739,3278821,0.0-19.0-0.1-0.239,A36NTNEXBNBIOD,3DW3BNF1HKYVNTMBZS7SV7ATLD58VQ,3CFVK00FWP189TPNIBDQD4CNIX96LE,4,3
240,3,object_09,object_03,370.0,6,2,97.200000000186,0.8888888888888888,2,object_05,5,3712,0,3,8,library_1,1,memory-2step-stake-s,740,3286945,0.0-19.0-0.1-0.240,A36NTNEXBNBIOD,3DW3BNF1HKYVNTMBZS7SV7ATLD58VQ,3CFVK00FWP189TPNIBDQD4CNIX96LE,5,6
241,3,object_09,object_03,368.5,6,2,197.59999999963,0.8888888888888888,2,object_05,1,3720,0,1,8,library_4,1,memory-2step-stake-s,741,3295171,0.0-19.0-0.1-0.241,A36NTNEXBNBIOD,3DW3BNF1HKYVNTMBZS7SV7ATLD58VQ,3CFVK00FWP189TPNIBDQD4CNIX96LE,5,6
242,2,object_02,object_10,665.70000000019,4,1,18.900000000373,0.8888888888888888,2,object_05,1,3728,0,1,8,forest_8,1,memory-2step-stake-s,742,3303221,0.0-19.0-0.1-0.242,A36NTNEXBNBIOD,3DW3BNF1HKYVNTMBZS7SV7ATLD58VQ,3CFVK00FWP189TPNIBDQD4CNIX96LE,4,3
243,3,object_09,object_03,600.70000000019,5,1,221.79999999981,0.3333333333333333,1,object_04,5,3743,0,3,9,library_1,1,memory-2step-stake-s,743,3310967,0.0-19.0-0.1-0.243,A36NTNEXBNBIOD,3DW3BNF1HKYVNTMBZS7SV7ATLD58VQ,3CFVK00FWP189TPNIBDQD4CNIX96LE,5,6
244,2,object_10,object_02,356.5,4,2,212.5,0.6666666666666666,2,object_05,1,3749,0,7,6,forest_6,1,memory-2step-stake-s,744,3319007,0.0-19.0-0.1-0.244,A36NTNEXBNBIOD,3DW3BNF1HKYVNTMBZS7SV7ATLD58VQ,3CFVK00FWP189TPNIBDQD4CNIX96LE,3,4
245,4,object_08,object_06,1005.0999999996,8,1,198.40000000037,0.6666666666666666,2,object_05,5,3779,0,7,6,restaurant_1,1,memory-2step-stake-s,745,3327042,0.0-19.0-0.1-0.245,A36NTNEXBNBIOD,3DW3BNF1HKYVNTMBZS7SV7ATLD58VQ,3CFVK00FWP189TPNIBDQD4CNIX96LE,8,7
246,1,object_07,object_01,591.59999999963,2,1,211.0,0.6666666666666666,2,object_05,1,3785,0,5,6,desert_6,1,memory-2step-stake-s,746,3335081,0.0-19.0-0.1-0.246,A36NTNEXBNBIOD,3DW3BNF1HKYVNTMBZS7SV7ATLD58VQ,3CFVK00FWP189TPNIBDQD4CNIX96LE,2,1
247,3,object_03,object_09,640.40000000037,6,1,80.199999999255,0.6666666666666666,2,object_05,5,3815,0,5,6,library_1,1,memory-2step-stake-s,747,3342994,0.0-19.0-0.1-0.247,A36NTNEXBNBIOD,3DW3BNF1HKYVNTMBZS7SV7ATLD58VQ,3CFVK00FWP189TPNIBDQD4CNIX96LE,6,5
248,2,object_02,object_10,419.09999999963,3,2,161.90000000037,0.5555555555555556,1,object_04,1,3820,0,5,3,forest_6,1,memory-2step-stake-s,748,3350884,0.0-19.0-0.1-0.248,A36NTNEXBNBIOD,3DW3BNF1HKYVNTMBZS7SV7ATLD58VQ,3CFVK00FWP189TPNIBDQD4CNIX96LE,4,3
249,4,object_08,object_06,325.89999999851,8,1,301.09999999963,0.1111111111111111,2,object_05,1,3821,0,8,1,restaurant_5,1,memory-2step-stake-s,749,3358508,0.0-19.0-0.1-0.249,A36NTNEXBNBIOD,3DW3BNF1HKYVNTMBZS7SV7ATLD58VQ,3CFVK00FWP189TPNIBDQD4CNIX96LE,8,7
250,2,object_02,object_10,718.90000000037,3,2,460.0,0.4444444444444444,1,object_04,1,3825,0,4,3,forest_6,1,memory-2step-stake-s,750,3366595,0.0-19.0-0.1-0.250,A36NTNEXBNBIOD,3DW3BNF1HKYVNTMBZS7SV7ATLD58VQ,3CFVK00FWP189TPNIBDQD4CNIX96LE,4,3
251,2,object_10,object_02,608.80000000075,4,2,188.5,0.5555555555555556,2,object_05,1,3830,0,1,5,forest_3,1,memory-2step-stake-s,751,3374522,0.0-19.0-0.1-0.251,A36NTNEXBNBIOD,3DW3BNF1HKYVNTMBZS7SV7ATLD58VQ,3CFVK00FWP189TPNIBDQD4CNIX96LE,3,4
252,4,object_08,object_06,980.40000000037,8,1,237.19999999925,0.4444444444444444,2,object_05,5,3850,0,1,4,restaurant_1,1,memory-2step-stake-s,752,3382391,0.0-19.0-0.1-0.252,A36NTNEXBNBIOD,3DW3BNF1HKYVNTMBZS7SV7ATLD58VQ,3CFVK00FWP189TPNIBDQD4CNIX96LE,8,7
253,1,object_07,object_01,495.90000000037,1,2,299.90000000037,0.2222222222222222,1,object_04,1,3852,0,2,3,desert_2,1,memory-2step-stake-s,753,3390116,0.0-19.0-0.1-0.253,A36NTNEXBNBIOD,3DW3BNF1HKYVNTMBZS7SV7ATLD58VQ,3CFVK00FWP189TPNIBDQD4CNIX96LE,2,1
254,4,object_06,object_08,739.0,8,2,390.20000000112,0.5555555555555556,2,object_05,5,3877,0,3,5,restaurant_1,1,memory-2step-stake-s,754,3398238,0.0-19.0-0.1-0.254,A36NTNEXBNBIOD,3DW3BNF1HKYVNTMBZS7SV7ATLD58VQ,3CFVK00FWP189TPNIBDQD4CNIX96LE,7,8
255,3,object_09,object_03,412.59999999963,5,1,294.70000000112,0.1111111111111111,1,object_04,1,3878,0,1,5,library_1,1,memory-2step-stake-s,755,3405857,0.0-19.0-0.1-0.255,A36NTNEXBNBIOD,3DW3BNF1HKYVNTMBZS7SV7ATLD58VQ,3CFVK00FWP189TPNIBDQD4CNIX96LE,5,6
