,state1,stim_left,stim_right,rt_1,choice1,response1,rt_2,points,state2,stim_state2,stake,score,practice,rews1,rews2,background,high_arm,trial_type,trial_index,time_elapsed,internal_node_id,subid,hitid,assignmentid,stim_left_num,stim_right_num
0,3,object_05,object_04,597.30000001192,6,2,430.0,0.3333333333333333,2,object_08,1,3,0,1,3,library_1,2,memory-2step-stake-s,488,1202060,0.0-19.0-0.0-0.0,A1EN3FW93BSXQQ,3X52SWXE10LAELCT6ESTJVPQIDRWCT,3WJEQKOXACIW6OXMFECJ9U5VG9F1AC,5,6
1,1,object_01,object_02,451.59999999404,2,1,355.69999998808,0.4444444444444444,2,object_08,5,23,0,1,4,desert_7,2,memory-2step-stake-s,489,1210071,0.0-19.0-0.0-0.1,A1EN3FW93BSXQQ,3X52SWXE10LAELCT6ESTJVPQIDRWCT,3WJEQKOXACIW6OXMFECJ9U5VG9F1AC,2,1
2,3,object_04,object_05,604.59999999404,5,2,550.40000000596,0.0,1,object_10,5,23,0,0,6,library_1,2,memory-2step-stake-s,490,1217851,0.0-19.0-0.0-0.2,A1EN3FW93BSXQQ,3X52SWXE10LAELCT6ESTJVPQIDRWCT,3WJEQKOXACIW6OXMFECJ9U5VG9F1AC,6,5
3,3,object_04,object_05,663.89999997616,6,1,372.89999997616,1.0,2,object_08,1,32,0,1,9,library_8,2,memory-2step-stake-s,491,1226407,0.0-19.0-0.0-0.3,A1EN3FW93BSXQQ,3X52SWXE10LAELCT6ESTJVPQIDRWCT,3WJEQKOXACIW6OXMFECJ9U5VG9F1AC,6,5
4,3,object_05,object_04,639.80000001192,6,2,295.40000000596,1.0,2,object_08,1,41,0,0,9,library_8,2,memory-2step-stake-s,492,1234876,0.0-19.0-0.0-0.4,A1EN3FW93BSXQQ,3X52SWXE10LAELCT6ESTJVPQIDRWCT,3WJEQKOXACIW6OXMFECJ9U5VG9F1AC,5,6
5,2,object_03,object_06,757.69999998808,4,2,643.0,0.7777777777777778,2,object_08,1,48,0,0,7,forest_4,2,memory-2step-stake-s,493,1243490,0.0-19.0-0.0-0.5,A1EN3FW93BSXQQ,3X52SWXE10LAELCT6ESTJVPQIDRWCT,3WJEQKOXACIW6OXMFECJ9U5VG9F1AC,3,4
6,3,object_05,object_04,494.80000001192,6,2,747.59999999404,0.5555555555555556,2,object_08,1,53,0,0,5,library_1,2,memory-2step-stake-s,494,1251999,0.0-19.0-0.0-0.6,A1EN3FW93BSXQQ,3X52SWXE10LAELCT6ESTJVPQIDRWCT,3WJEQKOXACIW6OXMFECJ9U5VG9F1AC,5,6
7,1,object_01,object_02,618.5,2,1,465.59999999404,0.6666666666666666,2,object_08,5,83,0,1,6,desert_1,2,memory-2step-stake-s,495,1260323,0.0-19.0-0.0-0.7,A1EN3FW93BSXQQ,3X52SWXE10LAELCT6ESTJVPQIDRWCT,3WJEQKOXACIW6OXMFECJ9U5VG9F1AC,2,1
8,4,object_07,object_09,650.5,8,2,434.69999998808,0.7777777777777778,2,object_08,1,90,0,4,7,restaurant_1,2,memory-2step-stake-s,496,1268724,0.0-19.0-0.0-0.8,A1EN3FW93BSXQQ,3X52SWXE10LAELCT6ESTJVPQIDRWCT,3WJEQKOXACIW6OXMFECJ9U5VG9F1AC,7,8
9,1,object_02,object_01,570.5,2,2,289.29999998212,0.7777777777777778,2,object_08,1,97,0,0,7,desert_1,2,memory-2step-stake-s,497,1276978,0.0-19.0-0.0-0.9,A1EN3FW93BSXQQ,3X52SWXE10LAELCT6ESTJVPQIDRWCT,3WJEQKOXACIW6OXMFECJ9U5VG9F1AC,1,2
10,2,object_06,object_03,860.79999998212,4,1,337.40000000596,0.8888888888888888,2,object_08,5,137,0,0,8,forest_5,2,memory-2step-stake-s,498,1285394,0.0-19.0-0.0-0.10,A1EN3FW93BSXQQ,3X52SWXE10LAELCT6ESTJVPQIDRWCT,3WJEQKOXACIW6OXMFECJ9U5VG9F1AC,4,3
11,1,object_01,object_02,506.80000001192,2,1,306.19999998808,1.0,2,object_08,5,182,0,0,9,desert_2,2,memory-2step-stake-s,499,1293876,0.0-19.0-0.0-0.11,A1EN3FW93BSXQQ,3X52SWXE10LAELCT6ESTJVPQIDRWCT,3WJEQKOXACIW6OXMFECJ9U5VG9F1AC,2,1
12,3,object_04,object_05,541.0,6,1,284.79999998212,1.0,2,object_08,1,191,0,3,9,library_5,2,memory-2step-stake-s,500,1302333,0.0-19.0-0.0-0.12,A1EN3FW93BSXQQ,3X52SWXE10LAELCT6ESTJVPQIDRWCT,3WJEQKOXACIW6OXMFECJ9U5VG9F1AC,6,5
13,1,object_02,object_01,598.19999998808,2,2,269.69999998808,0.8888888888888888,2,object_08,5,231,0,5,8,desert_7,2,memory-2step-stake-s,501,1310681,0.0-19.0-0.0-0.13,A1EN3FW93BSXQQ,3X52SWXE10LAELCT6ESTJVPQIDRWCT,3WJEQKOXACIW6OXMFECJ9U5VG9F1AC,1,2
14,3,object_04,object_05,494.19999998808,6,1,243.09999999404,0.6666666666666666,2,object_08,1,237,0,6,6,library_8,2,memory-2step-stake-s,502,1318790,0.0-19.0-0.0-0.14,A1EN3FW93BSXQQ,3X52SWXE10LAELCT6ESTJVPQIDRWCT,3WJEQKOXACIW6OXMFECJ9U5VG9F1AC,6,5
15,1,object_01,object_02,687.69999998808,2,1,311.89999997616,0.8888888888888888,2,object_08,5,277,0,7,8,desert_2,2,memory-2step-stake-s,503,1327178,0.0-19.0-0.0-0.15,A1EN3FW93BSXQQ,3X52SWXE10LAELCT6ESTJVPQIDRWCT,3WJEQKOXACIW6OXMFECJ9U5VG9F1AC,2,1
16,2,object_03,object_06,626.0,4,2,331.80000001192,0.7777777777777778,2,object_08,1,284,0,3,7,forest_3,2,memory-2step-stake-s,504,1335473,0.0-19.0-0.0-0.16,A1EN3FW93BSXQQ,3X52SWXE10LAELCT6ESTJVPQIDRWCT,3WJEQKOXACIW6OXMFECJ9U5VG9F1AC,3,4
17,3,object_04,object_05,454.40000000596,6,1,349.89999997616,1.0,2,object_08,1,293,0,5,9,library_4,2,memory-2step-stake-s,505,1343996,0.0-19.0-0.0-0.17,A1EN3FW93BSXQQ,3X52SWXE10LAELCT6ESTJVPQIDRWCT,3WJEQKOXACIW6OXMFECJ9U5VG9F1AC,6,5
18,2,object_06,object_03,570.90000000596,4,1,249.89999997616,0.6666666666666666,2,object_08,1,299,0,5,6,forest_7,2,memory-2step-stake-s,506,1352105,0.0-19.0-0.0-0.18,A1EN3FW93BSXQQ,3X52SWXE10LAELCT6ESTJVPQIDRWCT,3WJEQKOXACIW6OXMFECJ9U5VG9F1AC,4,3
19,4,object_07,object_09,669.70000001788,8,2,453.40000000596,0.6666666666666666,2,object_08,5,329,0,3,6,restaurant_2,2,memory-2step-stake-s,507,1360418,0.0-19.0-0.0-0.19,A1EN3FW93BSXQQ,3X52SWXE10LAELCT6ESTJVPQIDRWCT,3WJEQKOXACIW6OXMFECJ9U5VG9F1AC,7,8
20,4,object_07,object_09,450.79999998212,8,2,307.69999998808,0.8888888888888888,2,object_08,1,337,0,3,8,restaurant_3,2,memory-2step-stake-s,508,1368793,0.0-19.0-0.0-0.20,A1EN3FW93BSXQQ,3X52SWXE10LAELCT6ESTJVPQIDRWCT,3WJEQKOXACIW6OXMFECJ9U5VG9F1AC,7,8
21,1,object_01,object_02,718.0,2,1,326.70000001788,0.6666666666666666,2,object_08,5,367,0,8,6,desert_1,2,memory-2step-stake-s,509,1376979,0.0-19.0-0.0-0.21,A1EN3FW93BSXQQ,3X52SWXE10LAELCT6ESTJVPQIDRWCT,3WJEQKOXACIW6OXMFECJ9U5VG9F1AC,2,1
22,3,object_04,object_05,552.80000001192,5,2,554.79999998212,0.6666666666666666,1,object_10,1,373,0,6,6,library_5,2,memory-2step-stake-s,510,1385391,0.0-19.0-0.0-0.22,A1EN3FW93BSXQQ,3X52SWXE10LAELCT6ESTJVPQIDRWCT,3WJEQKOXACIW6OXMFECJ9U5VG9F1AC,6,5
23,2,object_06,object_03,595.09999999404,3,2,248.40000000596,0.5555555555555556,1,object_10,5,398,0,5,5,forest_3,2,memory-2step-stake-s,511,1393395,0.0-19.0-0.0-0.23,A1EN3FW93BSXQQ,3X52SWXE10LAELCT6ESTJVPQIDRWCT,3WJEQKOXACIW6OXMFECJ9U5VG9F1AC,4,3
24,2,object_03,object_06,687.30000001192,3,1,263.70000001788,0.3333333333333333,1,object_10,1,401,0,3,7,forest_3,2,memory-2step-stake-s,512,1401203,0.0-19.0-0.0-0.24,A1EN3FW93BSXQQ,3X52SWXE10LAELCT6ESTJVPQIDRWCT,3WJEQKOXACIW6OXMFECJ9U5VG9F1AC,3,4
25,1,object_01,object_02,444.19999998808,1,2,269.59999999404,0.0,1,object_10,5,401,0,0,5,desert_1,2,memory-2step-stake-s,513,1408703,0.0-19.0-0.0-0.25,A1EN3FW93BSXQQ,3X52SWXE10LAELCT6ESTJVPQIDRWCT,3WJEQKOXACIW6OXMFECJ9U5VG9F1AC,2,1
26,2,object_03,object_06,741.5,3,1,286.39999997616,0.1111111111111111,1,object_10,5,406,0,1,7,forest_5,2,memory-2step-stake-s,514,1416324,0.0-19.0-0.0-0.26,A1EN3FW93BSXQQ,3X52SWXE10LAELCT6ESTJVPQIDRWCT,3WJEQKOXACIW6OXMFECJ9U5VG9F1AC,3,4
27,1,object_02,object_01,811.30000001192,2,2,275.90000000596,1.0,2,object_08,5,451,0,1,9,desert_5,2,memory-2step-stake-s,515,1424776,0.0-19.0-0.0-0.27,A1EN3FW93BSXQQ,3X52SWXE10LAELCT6ESTJVPQIDRWCT,3WJEQKOXACIW6OXMFECJ9U5VG9F1AC,1,2
28,4,object_07,object_09,963.59999999404,7,1,268.19999998808,0.2222222222222222,1,object_10,5,461,0,2,8,restaurant_2,2,memory-2step-stake-s,516,1432487,0.0-19.0-0.0-0.28,A1EN3FW93BSXQQ,3X52SWXE10LAELCT6ESTJVPQIDRWCT,3WJEQKOXACIW6OXMFECJ9U5VG9F1AC,7,8
29,3,object_04,object_05,733.40000000596,6,1,277.80000001192,0.5555555555555556,2,object_08,1,466,0,5,5,library_4,2,memory-2step-stake-s,517,1440519,0.0-19.0-0.0-0.29,A1EN3FW93BSXQQ,3X52SWXE10LAELCT6ESTJVPQIDRWCT,3WJEQKOXACIW6OXMFECJ9U5VG9F1AC,6,5
30,2,object_06,object_03,727.40000000596,4,1,321.70000001788,0.7777777777777778,2,object_08,5,501,0,3,7,forest_3,2,memory-2step-stake-s,518,1448802,0.0-19.0-0.0-0.30,A1EN3FW93BSXQQ,3X52SWXE10LAELCT6ESTJVPQIDRWCT,3WJEQKOXACIW6OXMFECJ9U5VG9F1AC,4,3
31,4,object_07,object_09,468.19999998808,8,2,427.90000000596,0.6666666666666666,2,object_08,1,507,0,1,6,restaurant_4,2,memory-2step-stake-s,519,1457091,0.0-19.0-0.0-0.31,A1EN3FW93BSXQQ,3X52SWXE10LAELCT6ESTJVPQIDRWCT,3WJEQKOXACIW6OXMFECJ9U5VG9F1AC,7,8
32,1,object_02,object_01,601.70000001788,2,2,521.79999998212,0.8888888888888888,2,object_08,5,547,0,4,8,desert_2,2,memory-2step-stake-s,520,1465683,0.0-19.0-0.0-0.32,A1EN3FW93BSXQQ,3X52SWXE10LAELCT6ESTJVPQIDRWCT,3WJEQKOXACIW6OXMFECJ9U5VG9F1AC,1,2
33,3,object_05,object_04,760.90000000596,6,2,402.19999998808,0.7777777777777778,2,object_08,1,554,0,4,7,library_8,2,memory-2step-stake-s,521,1474053,0.0-19.0-0.0-0.33,A1EN3FW93BSXQQ,3X52SWXE10LAELCT6ESTJVPQIDRWCT,3WJEQKOXACIW6OXMFECJ9U5VG9F1AC,5,6
34,1,object_02,object_01,562.59999999404,2,2,321.80000001192,0.7777777777777778,2,object_08,5,589,0,7,7,desert_1,2,memory-2step-stake-s,522,1482333,0.0-19.0-0.0-0.34,A1EN3FW93BSXQQ,3X52SWXE10LAELCT6ESTJVPQIDRWCT,3WJEQKOXACIW6OXMFECJ9U5VG9F1AC,1,2
35,2,object_03,object_06,643.59999999404,4,2,332.69999998808,0.6666666666666666,2,object_08,5,619,0,8,6,forest_7,2,memory-2step-stake-s,523,1490522,0.0-19.0-0.0-0.35,A1EN3FW93BSXQQ,3X52SWXE10LAELCT6ESTJVPQIDRWCT,3WJEQKOXACIW6OXMFECJ9U5VG9F1AC,3,4
36,1,object_01,object_02,689.69999998808,2,1,423.79999998212,0.6666666666666666,2,object_08,5,649,0,8,6,desert_1,2,memory-2step-stake-s,524,1498810,0.0-19.0-0.0-0.36,A1EN3FW93BSXQQ,3X52SWXE10LAELCT6ESTJVPQIDRWCT,3WJEQKOXACIW6OXMFECJ9U5VG9F1AC,2,1
37,1,object_02,object_01,497.79999998212,2,2,440.90000000596,1.0,2,object_08,1,658,0,9,9,desert_5,2,memory-2step-stake-s,525,1507425,0.0-19.0-0.0-0.37,A1EN3FW93BSXQQ,3X52SWXE10LAELCT6ESTJVPQIDRWCT,3WJEQKOXACIW6OXMFECJ9U5VG9F1AC,1,2
38,1,object_02,object_01,705.19999998808,2,2,481.40000000596,1.0,2,object_08,5,703,0,8,9,desert_5,2,memory-2step-stake-s,526,1516080,0.0-19.0-0.0-0.38,A1EN3FW93BSXQQ,3X52SWXE10LAELCT6ESTJVPQIDRWCT,3WJEQKOXACIW6OXMFECJ9U5VG9F1AC,1,2
39,4,object_07,object_09,580.09999999404,8,2,421.0,0.8888888888888888,2,object_08,1,711,0,7,8,restaurant_3,2,memory-2step-stake-s,527,1524567,0.0-19.0-0.0-0.39,A1EN3FW93BSXQQ,3X52SWXE10LAELCT6ESTJVPQIDRWCT,3WJEQKOXACIW6OXMFECJ9U5VG9F1AC,7,8
40,4,object_09,object_07,861.5,8,1,557.80000001192,0.7777777777777778,2,object_08,1,718,0,5,7,restaurant_4,2,memory-2step-stake-s,528,1533087,0.0-19.0-0.0-0.40,A1EN3FW93BSXQQ,3X52SWXE10LAELCT6ESTJVPQIDRWCT,3WJEQKOXACIW6OXMFECJ9U5VG9F1AC,8,7
41,4,object_07,object_09,1170.0,8,2,351.5,0.8888888888888888,2,object_08,5,758,0,5,8,restaurant_4,2,memory-2step-stake-s,529,1541511,0.0-19.0-0.0-0.41,A1EN3FW93BSXQQ,3X52SWXE10LAELCT6ESTJVPQIDRWCT,3WJEQKOXACIW6OXMFECJ9U5VG9F1AC,7,8
42,3,object_04,object_05,580.90000000596,6,1,549.0,0.5555555555555556,2,object_08,1,763,0,2,5,library_8,2,memory-2step-stake-s,530,1549812,0.0-19.0-0.0-0.42,A1EN3FW93BSXQQ,3X52SWXE10LAELCT6ESTJVPQIDRWCT,3WJEQKOXACIW6OXMFECJ9U5VG9F1AC,6,5
43,4,object_07,object_09,689.60000002384,8,2,449.09999999404,0.5555555555555556,2,object_08,1,768,0,1,5,restaurant_4,2,memory-2step-stake-s,531,1558019,0.0-19.0-0.0-0.43,A1EN3FW93BSXQQ,3X52SWXE10LAELCT6ESTJVPQIDRWCT,3WJEQKOXACIW6OXMFECJ9U5VG9F1AC,7,8
44,1,object_02,object_01,669.40000000596,2,2,629.30000001192,1.0,2,object_08,1,777,0,1,9,desert_2,2,memory-2step-stake-s,532,1566827,0.0-19.0-0.0-0.44,A1EN3FW93BSXQQ,3X52SWXE10LAELCT6ESTJVPQIDRWCT,3WJEQKOXACIW6OXMFECJ9U5VG9F1AC,1,2
45,4,object_07,object_09,1073.3000000119,8,2,415.20000001788,1.0,2,object_08,5,822,0,1,9,restaurant_4,2,memory-2step-stake-s,533,1575423,0.0-19.0-0.0-0.45,A1EN3FW93BSXQQ,3X52SWXE10LAELCT6ESTJVPQIDRWCT,3WJEQKOXACIW6OXMFECJ9U5VG9F1AC,7,8
46,2,object_06,object_03,635.70000001788,4,1,388.29999998212,0.8888888888888888,2,object_08,5,862,0,3,8,forest_4,2,memory-2step-stake-s,534,1583880,0.0-19.0-0.0-0.46,A1EN3FW93BSXQQ,3X52SWXE10LAELCT6ESTJVPQIDRWCT,3WJEQKOXACIW6OXMFECJ9U5VG9F1AC,4,3
47,1,object_02,object_01,585.80000001192,2,2,386.40000000596,0.7777777777777778,2,object_08,1,869,0,1,7,desert_2,2,memory-2step-stake-s,535,1592234,0.0-19.0-0.0-0.47,A1EN3FW93BSXQQ,3X52SWXE10LAELCT6ESTJVPQIDRWCT,3WJEQKOXACIW6OXMFECJ9U5VG9F1AC,1,2
48,4,object_07,object_09,480.80000001192,8,2,386.80000001192,0.5555555555555556,2,object_08,1,874,0,2,5,restaurant_3,2,memory-2step-stake-s,536,1600366,0.0-19.0-0.0-0.48,A1EN3FW93BSXQQ,3X52SWXE10LAELCT6ESTJVPQIDRWCT,3WJEQKOXACIW6OXMFECJ9U5VG9F1AC,7,8
49,4,object_07,object_09,500.19999998808,8,2,350.40000000596,0.4444444444444444,2,object_08,1,878,0,3,4,restaurant_1,2,memory-2step-stake-s,537,1608366,0.0-19.0-0.0-0.49,A1EN3FW93BSXQQ,3X52SWXE10LAELCT6ESTJVPQIDRWCT,3WJEQKOXACIW6OXMFECJ9U5VG9F1AC,7,8
50,2,object_03,object_06,572.69999998808,4,2,440.09999999404,0.3333333333333333,2,object_08,5,893,0,4,3,forest_7,2,memory-2step-stake-s,538,1616354,0.0-19.0-0.0-0.50,A1EN3FW93BSXQQ,3X52SWXE10LAELCT6ESTJVPQIDRWCT,3WJEQKOXACIW6OXMFECJ9U5VG9F1AC,3,4
51,3,object_05,object_04,489.40000000596,6,2,314.39999997616,0.2222222222222222,2,object_08,1,895,0,2,2,library_1,2,memory-2step-stake-s,539,1624106,0.0-19.0-0.0-0.51,A1EN3FW93BSXQQ,3X52SWXE10LAELCT6ESTJVPQIDRWCT,3WJEQKOXACIW6OXMFECJ9U5VG9F1AC,5,6
52,1,object_01,object_02,749.70000001788,1,2,278.79999998212,0.1111111111111111,1,object_10,5,900,0,1,3,desert_1,2,memory-2step-stake-s,540,1631722,0.0-19.0-0.0-0.52,A1EN3FW93BSXQQ,3X52SWXE10LAELCT6ESTJVPQIDRWCT,3WJEQKOXACIW6OXMFECJ9U5VG9F1AC,2,1
53,1,object_02,object_01,549.5,1,1,390.09999999404,0.2222222222222222,1,object_10,5,910,0,2,1,desert_1,2,memory-2step-stake-s,541,1639554,0.0-19.0-0.0-0.53,A1EN3FW93BSXQQ,3X52SWXE10LAELCT6ESTJVPQIDRWCT,3WJEQKOXACIW6OXMFECJ9U5VG9F1AC,1,2
54,2,object_06,object_03,653.69999998808,3,2,437.20000001788,0.5555555555555556,1,object_10,5,935,0,5,3,forest_5,2,memory-2step-stake-s,542,1647746,0.0-19.0-0.0-0.54,A1EN3FW93BSXQQ,3X52SWXE10LAELCT6ESTJVPQIDRWCT,3WJEQKOXACIW6OXMFECJ9U5VG9F1AC,4,3
55,2,object_06,object_03,607.5,4,1,209.79999998212,0.0,2,object_08,1,935,0,6,0,forest_4,2,memory-2step-stake-s,543,1655189,0.0-19.0-0.0-0.55,A1EN3FW93BSXQQ,3X52SWXE10LAELCT6ESTJVPQIDRWCT,3WJEQKOXACIW6OXMFECJ9U5VG9F1AC,4,3
56,1,object_02,object_01,805.59999999404,2,2,326.09999999404,0.1111111111111111,2,object_08,5,940,0,5,1,desert_1,2,memory-2step-stake-s,544,1662853,0.0-19.0-0.0-0.56,A1EN3FW93BSXQQ,3X52SWXE10LAELCT6ESTJVPQIDRWCT,3WJEQKOXACIW6OXMFECJ9U5VG9F1AC,1,2
57,2,object_06,object_03,633.5,3,2,79.5,1.0,1,object_10,5,985,0,9,1,forest_7,2,memory-2step-stake-s,545,1671110,0.0-19.0-0.0-0.57,A1EN3FW93BSXQQ,3X52SWXE10LAELCT6ESTJVPQIDRWCT,3WJEQKOXACIW6OXMFECJ9U5VG9F1AC,4,3
58,3,object_05,object_04,633.40000000596,5,1,402.5,0.8888888888888888,1,object_10,5,1025,0,8,4,library_8,2,memory-2step-stake-s,546,1679580,0.0-19.0-0.0-0.58,A1EN3FW93BSXQQ,3X52SWXE10LAELCT6ESTJVPQIDRWCT,3WJEQKOXACIW6OXMFECJ9U5VG9F1AC,5,6
59,1,object_01,object_02,621.09999999404,1,2,366.0,0.8888888888888888,1,object_10,5,1065,0,8,4,desert_2,2,memory-2step-stake-s,547,1688013,0.0-19.0-0.0-0.59,A1EN3FW93BSXQQ,3X52SWXE10LAELCT6ESTJVPQIDRWCT,3WJEQKOXACIW6OXMFECJ9U5VG9F1AC,2,1
60,1,object_02,object_01,723.09999999404,1,1,369.30000001192,0.8888888888888888,1,object_10,5,1105,0,8,3,desert_7,2,memory-2step-stake-s,548,1696449,0.0-19.0-0.0-0.60,A1EN3FW93BSXQQ,3X52SWXE10LAELCT6ESTJVPQIDRWCT,3WJEQKOXACIW6OXMFECJ9U5VG9F1AC,1,2
61,3,object_05,object_04,823.69999998808,5,1,377.19999998808,0.8888888888888888,1,object_10,1,1113,0,8,3,library_5,2,memory-2step-stake-s,549,1704895,0.0-19.0-0.0-0.61,A1EN3FW93BSXQQ,3X52SWXE10LAELCT6ESTJVPQIDRWCT,3WJEQKOXACIW6OXMFECJ9U5VG9F1AC,5,6
62,1,object_01,object_02,575.0,1,2,437.5,1.0,1,object_10,5,1158,0,9,1,desert_2,2,memory-2step-stake-s,550,1713509,0.0-19.0-0.0-0.62,A1EN3FW93BSXQQ,3X52SWXE10LAELCT6ESTJVPQIDRWCT,3WJEQKOXACIW6OXMFECJ9U5VG9F1AC,2,1
63,2,object_06,object_03,681.90000000596,3,2,328.59999999404,0.7777777777777778,1,object_10,1,1165,0,7,1,forest_7,2,memory-2step-stake-s,551,1721804,0.0-19.0-0.0-0.63,A1EN3FW93BSXQQ,3X52SWXE10LAELCT6ESTJVPQIDRWCT,3WJEQKOXACIW6OXMFECJ9U5VG9F1AC,4,3
64,3,object_04,object_05,585.09999999404,5,2,368.90000000596,0.4444444444444444,1,object_10,1,1169,0,4,4,library_4,2,memory-2step-stake-s,552,1729827,0.0-19.0-0.0-0.64,A1EN3FW93BSXQQ,3X52SWXE10LAELCT6ESTJVPQIDRWCT,3WJEQKOXACIW6OXMFECJ9U5VG9F1AC,6,5
65,1,object_01,object_02,724.90000000596,2,1,285.70000001788,0.7777777777777778,2,object_08,5,1204,0,4,7,desert_7,2,memory-2step-stake-s,553,1738075,0.0-19.0-0.0-0.65,A1EN3FW93BSXQQ,3X52SWXE10LAELCT6ESTJVPQIDRWCT,3WJEQKOXACIW6OXMFECJ9U5VG9F1AC,2,1
66,1,object_02,object_01,659.90000000596,1,1,342.19999998808,0.2222222222222222,1,object_10,5,1214,0,2,8,desert_2,2,memory-2step-stake-s,554,1745855,0.0-19.0-0.0-0.66,A1EN3FW93BSXQQ,3X52SWXE10LAELCT6ESTJVPQIDRWCT,3WJEQKOXACIW6OXMFECJ9U5VG9F1AC,1,2
67,1,object_02,object_01,515.0,2,2,80.59999999404,0.8888888888888888,2,object_08,5,1254,0,1,8,desert_5,2,memory-2step-stake-s,555,1754011,0.0-19.0-0.0-0.67,A1EN3FW93BSXQQ,3X52SWXE10LAELCT6ESTJVPQIDRWCT,3WJEQKOXACIW6OXMFECJ9U5VG9F1AC,1,2
68,3,object_04,object_05,883.09999999404,6,1,323.09999999404,1.0,2,object_08,1,1263,0,2,9,library_4,2,memory-2step-stake-s,556,1762509,0.0-19.0-0.0-0.68,A1EN3FW93BSXQQ,3X52SWXE10LAELCT6ESTJVPQIDRWCT,3WJEQKOXACIW6OXMFECJ9U5VG9F1AC,6,5
69,1,object_02,object_01,465.40000000596,2,2,359.5,0.8888888888888888,2,object_08,1,1271,0,2,8,desert_5,2,memory-2step-stake-s,557,1770937,0.0-19.0-0.0-0.69,A1EN3FW93BSXQQ,3X52SWXE10LAELCT6ESTJVPQIDRWCT,3WJEQKOXACIW6OXMFECJ9U5VG9F1AC,1,2
70,1,object_01,object_02,590.0,2,1,397.5,0.8888888888888888,2,object_08,5,1311,0,5,8,desert_5,2,memory-2step-stake-s,558,1779406,0.0-19.0-0.0-0.70,A1EN3FW93BSXQQ,3X52SWXE10LAELCT6ESTJVPQIDRWCT,3WJEQKOXACIW6OXMFECJ9U5VG9F1AC,2,1
71,1,object_01,object_02,769.5,2,1,455.80000001192,0.7777777777777778,2,object_08,5,1346,0,5,7,desert_1,2,memory-2step-stake-s,559,1787830,0.0-19.0-0.0-0.71,A1EN3FW93BSXQQ,3X52SWXE10LAELCT6ESTJVPQIDRWCT,3WJEQKOXACIW6OXMFECJ9U5VG9F1AC,2,1
72,4,object_09,object_07,1177.1999999881,7,2,376.80000001192,0.7777777777777778,1,object_10,5,1381,0,7,7,restaurant_2,2,memory-2step-stake-s,560,1796171,0.0-19.0-0.0-0.72,A1EN3FW93BSXQQ,3X52SWXE10LAELCT6ESTJVPQIDRWCT,3WJEQKOXACIW6OXMFECJ9U5VG9F1AC,8,7
73,4,object_09,object_07,574.30000001192,8,1,300.80000001192,0.8888888888888888,2,object_08,1,1389,0,7,8,restaurant_2,2,memory-2step-stake-s,561,1804542,0.0-19.0-0.0-0.73,A1EN3FW93BSXQQ,3X52SWXE10LAELCT6ESTJVPQIDRWCT,3WJEQKOXACIW6OXMFECJ9U5VG9F1AC,8,7
74,1,object_02,object_01,510.79999998212,2,2,440.29999998212,0.8888888888888888,2,object_08,5,1429,0,7,8,desert_2,2,memory-2step-stake-s,562,1813051,0.0-19.0-0.0-0.74,A1EN3FW93BSXQQ,3X52SWXE10LAELCT6ESTJVPQIDRWCT,3WJEQKOXACIW6OXMFECJ9U5VG9F1AC,1,2
75,2,object_03,object_06,571.90000000596,4,2,388.70000001788,0.4444444444444444,2,object_08,1,1433,0,9,4,forest_4,2,memory-2step-stake-s,563,1821090,0.0-19.0-0.0-0.75,A1EN3FW93BSXQQ,3X52SWXE10LAELCT6ESTJVPQIDRWCT,3WJEQKOXACIW6OXMFECJ9U5VG9F1AC,3,4
76,2,object_03,object_06,1412.3000000119,3,1,444.09999999404,0.7777777777777778,1,object_10,5,1468,0,7,4,forest_4,2,memory-2step-stake-s,564,1829502,0.0-19.0-0.0-0.76,A1EN3FW93BSXQQ,3X52SWXE10LAELCT6ESTJVPQIDRWCT,3WJEQKOXACIW6OXMFECJ9U5VG9F1AC,3,4
77,3,object_05,object_04,304.5,6,2,360.09999999404,0.5555555555555556,2,object_08,1,1473,0,5,5,library_8,2,memory-2step-stake-s,565,1837617,0.0-19.0-0.0-0.77,A1EN3FW93BSXQQ,3X52SWXE10LAELCT6ESTJVPQIDRWCT,3WJEQKOXACIW6OXMFECJ9U5VG9F1AC,5,6
78,1,object_01,object_02,608.5,1,2,368.70000001788,0.4444444444444444,1,object_10,5,1493,0,4,9,desert_1,2,memory-2step-stake-s,566,1845641,0.0-19.0-0.0-0.78,A1EN3FW93BSXQQ,3X52SWXE10LAELCT6ESTJVPQIDRWCT,3WJEQKOXACIW6OXMFECJ9U5VG9F1AC,2,1
79,4,object_07,object_09,803.5,8,2,388.69999998808,0.8888888888888888,2,object_08,1,1501,0,1,8,restaurant_1,2,memory-2step-stake-s,567,1854098,0.0-19.0-0.0-0.79,A1EN3FW93BSXQQ,3X52SWXE10LAELCT6ESTJVPQIDRWCT,3WJEQKOXACIW6OXMFECJ9U5VG9F1AC,7,8
80,4,object_07,object_09,575.0,8,2,405.69999998808,0.8888888888888888,2,object_08,1,1509,0,1,8,restaurant_3,2,memory-2step-stake-s,568,1862573,0.0-19.0-0.0-0.80,A1EN3FW93BSXQQ,3X52SWXE10LAELCT6ESTJVPQIDRWCT,3WJEQKOXACIW6OXMFECJ9U5VG9F1AC,7,8
81,4,object_09,object_07,772.40000000596,8,1,334.29999998212,0.8888888888888888,2,object_08,1,1517,0,1,8,restaurant_1,2,memory-2step-stake-s,569,1870973,0.0-19.0-0.0-0.81,A1EN3FW93BSXQQ,3X52SWXE10LAELCT6ESTJVPQIDRWCT,3WJEQKOXACIW6OXMFECJ9U5VG9F1AC,8,7
82,4,object_09,object_07,641.70000001788,8,1,433.89999997616,1.0,2,object_08,1,1526,0,5,9,restaurant_3,2,memory-2step-stake-s,570,1879581,0.0-19.0-0.0-0.82,A1EN3FW93BSXQQ,3X52SWXE10LAELCT6ESTJVPQIDRWCT,3WJEQKOXACIW6OXMFECJ9U5VG9F1AC,8,7
83,1,object_02,object_01,667.40000000596,2,2,605.69999998808,0.7777777777777778,2,object_08,5,1561,0,5,7,desert_5,2,memory-2step-stake-s,571,1888150,0.0-19.0-0.0-0.83,A1EN3FW93BSXQQ,3X52SWXE10LAELCT6ESTJVPQIDRWCT,3WJEQKOXACIW6OXMFECJ9U5VG9F1AC,1,2
84,1,object_01,object_02,979.0,2,1,-1.0,0.0,2,object_08,1,1561,0,4,8,desert_7,2,memory-2step-stake-s,572,1896688,0.0-19.0-0.0-0.84,A1EN3FW93BSXQQ,3X52SWXE10LAELCT6ESTJVPQIDRWCT,3WJEQKOXACIW6OXMFECJ9U5VG9F1AC,2,1
85,1,object_01,object_02,509.5,2,1,346.0,0.8888888888888888,2,object_08,5,1601,0,6,8,desert_5,2,memory-2step-stake-s,573,1905104,0.0-19.0-0.0-0.85,A1EN3FW93BSXQQ,3X52SWXE10LAELCT6ESTJVPQIDRWCT,3WJEQKOXACIW6OXMFECJ9U5VG9F1AC,2,1
86,2,object_03,object_06,596.19999998808,4,2,413.5,0.8888888888888888,2,object_08,5,1641,0,7,8,forest_7,2,memory-2step-stake-s,574,1913585,0.0-19.0-0.0-0.86,A1EN3FW93BSXQQ,3X52SWXE10LAELCT6ESTJVPQIDRWCT,3WJEQKOXACIW6OXMFECJ9U5VG9F1AC,3,4
87,3,object_05,object_04,769.90000000596,6,2,314.40000000596,0.7777777777777778,2,object_08,1,1648,0,7,7,library_4,2,memory-2step-stake-s,575,1921864,0.0-19.0-0.0-0.87,A1EN3FW93BSXQQ,3X52SWXE10LAELCT6ESTJVPQIDRWCT,3WJEQKOXACIW6OXMFECJ9U5VG9F1AC,5,6
88,4,object_09,object_07,597.0,8,1,405.59999999404,0.6666666666666666,2,object_08,1,1654,0,6,6,restaurant_3,2,memory-2step-stake-s,576,1930129,0.0-19.0-0.0-0.88,A1EN3FW93BSXQQ,3X52SWXE10LAELCT6ESTJVPQIDRWCT,3WJEQKOXACIW6OXMFECJ9U5VG9F1AC,8,7
89,2,object_03,object_06,577.90000000596,4,2,449.19999998808,1.0,2,object_08,5,1699,0,4,9,forest_5,2,memory-2step-stake-s,577,1938756,0.0-19.0-0.0-0.89,A1EN3FW93BSXQQ,3X52SWXE10LAELCT6ESTJVPQIDRWCT,3WJEQKOXACIW6OXMFECJ9U5VG9F1AC,3,4
90,3,object_05,object_04,551.69999998808,6,2,445.10000002384,1.0,2,object_08,1,1708,0,7,9,library_1,2,memory-2step-stake-s,578,1947382,0.0-19.0-0.0-0.90,A1EN3FW93BSXQQ,3X52SWXE10LAELCT6ESTJVPQIDRWCT,3WJEQKOXACIW6OXMFECJ9U5VG9F1AC,5,6
91,2,object_06,object_03,781.69999998808,3,2,357.0,0.7777777777777778,1,object_10,5,1743,0,7,8,forest_7,2,memory-2step-stake-s,579,1955707,0.0-19.0-0.0-0.91,A1EN3FW93BSXQQ,3X52SWXE10LAELCT6ESTJVPQIDRWCT,3WJEQKOXACIW6OXMFECJ9U5VG9F1AC,4,3
92,2,object_06,object_03,442.0,4,1,394.90000000596,0.7777777777777778,2,object_08,5,1778,0,5,7,forest_4,2,memory-2step-stake-s,580,1964066,0.0-19.0-0.0-0.92,A1EN3FW93BSXQQ,3X52SWXE10LAELCT6ESTJVPQIDRWCT,3WJEQKOXACIW6OXMFECJ9U5VG9F1AC,4,3
93,2,object_03,object_06,625.29999998212,4,2,488.60000002384,0.7777777777777778,2,object_08,5,1813,0,7,7,forest_5,2,memory-2step-stake-s,581,1972523,0.0-19.0-0.0-0.93,A1EN3FW93BSXQQ,3X52SWXE10LAELCT6ESTJVPQIDRWCT,3WJEQKOXACIW6OXMFECJ9U5VG9F1AC,3,4
94,3,object_05,object_04,1056.400000006,6,2,377.5,0.8888888888888888,2,object_08,1,1821,0,9,8,library_4,2,memory-2step-stake-s,582,1980963,0.0-19.0-0.0-0.94,A1EN3FW93BSXQQ,3X52SWXE10LAELCT6ESTJVPQIDRWCT,3WJEQKOXACIW6OXMFECJ9U5VG9F1AC,5,6
95,1,object_02,object_01,611.09999999404,2,2,366.5,0.7777777777777778,2,object_08,5,1856,0,8,7,desert_5,2,memory-2step-stake-s,583,1989287,0.0-19.0-0.0-0.95,A1EN3FW93BSXQQ,3X52SWXE10LAELCT6ESTJVPQIDRWCT,3WJEQKOXACIW6OXMFECJ9U5VG9F1AC,1,2
96,4,object_07,object_09,573.80000001192,8,2,421.19999998808,1.0,2,object_08,1,1865,0,7,9,restaurant_1,2,memory-2step-stake-s,584,1997890,0.0-19.0-0.0-0.96,A1EN3FW93BSXQQ,3X52SWXE10LAELCT6ESTJVPQIDRWCT,3WJEQKOXACIW6OXMFECJ9U5VG9F1AC,7,8
97,1,object_02,object_01,469.80000001192,2,2,362.59999999404,0.5555555555555556,2,object_08,5,1890,0,4,5,desert_5,2,memory-2step-stake-s,585,2006018,0.0-19.0-0.0-0.97,A1EN3FW93BSXQQ,3X52SWXE10LAELCT6ESTJVPQIDRWCT,3WJEQKOXACIW6OXMFECJ9U5VG9F1AC,1,2
98,2,object_06,object_03,433.60000002384,3,2,506.0,0.5555555555555556,1,object_10,5,1915,0,5,6,forest_5,2,memory-2step-stake-s,586,2014278,0.0-19.0-0.0-0.98,A1EN3FW93BSXQQ,3X52SWXE10LAELCT6ESTJVPQIDRWCT,3WJEQKOXACIW6OXMFECJ9U5VG9F1AC,4,3
99,4,object_09,object_07,765.29999998212,8,1,373.70000001788,0.7777777777777778,2,object_08,1,1922,0,5,7,restaurant_2,2,memory-2step-stake-s,587,2022618,0.0-19.0-0.0-0.99,A1EN3FW93BSXQQ,3X52SWXE10LAELCT6ESTJVPQIDRWCT,3WJEQKOXACIW6OXMFECJ9U5VG9F1AC,8,7
100,3,object_04,object_05,717.90000000596,5,2,480.19999998808,0.4444444444444444,1,object_10,5,1942,0,4,6,library_5,2,memory-2step-stake-s,588,2030758,0.0-19.0-0.0-0.100,A1EN3FW93BSXQQ,3X52SWXE10LAELCT6ESTJVPQIDRWCT,3WJEQKOXACIW6OXMFECJ9U5VG9F1AC,6,5
101,4,object_09,object_07,1023.5,8,1,453.19999998808,0.4444444444444444,2,object_08,5,1962,0,6,4,restaurant_3,2,memory-2step-stake-s,589,2038858,0.0-19.0-0.0-0.101,A1EN3FW93BSXQQ,3X52SWXE10LAELCT6ESTJVPQIDRWCT,3WJEQKOXACIW6OXMFECJ9U5VG9F1AC,8,7
102,4,object_07,object_09,493.20000001788,8,2,397.59999999404,0.5555555555555556,2,object_08,5,1987,0,8,5,restaurant_2,2,memory-2step-stake-s,590,2047010,0.0-19.0-0.0-0.102,A1EN3FW93BSXQQ,3X52SWXE10LAELCT6ESTJVPQIDRWCT,3WJEQKOXACIW6OXMFECJ9U5VG9F1AC,7,8
103,3,object_04,object_05,502.40000000596,6,1,404.69999998808,0.1111111111111111,2,object_08,1,1988,0,8,1,library_4,2,memory-2step-stake-s,591,2054761,0.0-19.0-0.0-0.103,A1EN3FW93BSXQQ,3X52SWXE10LAELCT6ESTJVPQIDRWCT,3WJEQKOXACIW6OXMFECJ9U5VG9F1AC,6,5
104,1,object_01,object_02,1064.900000006,1,2,350.59999999404,0.8888888888888888,1,object_10,1,1996,0,8,0,desert_7,2,memory-2step-stake-s,592,2063183,0.0-19.0-0.0-0.104,A1EN3FW93BSXQQ,3X52SWXE10LAELCT6ESTJVPQIDRWCT,3WJEQKOXACIW6OXMFECJ9U5VG9F1AC,2,1
105,4,object_09,object_07,409.59999999404,8,1,352.79999998212,0.2222222222222222,2,object_08,1,1998,0,6,2,restaurant_3,2,memory-2step-stake-s,593,2070979,0.0-19.0-0.0-0.105,A1EN3FW93BSXQQ,3X52SWXE10LAELCT6ESTJVPQIDRWCT,3WJEQKOXACIW6OXMFECJ9U5VG9F1AC,8,7
106,4,object_07,object_09,438.19999998808,8,2,343.5,0.8888888888888888,2,object_08,1,2006,0,0,8,restaurant_2,2,memory-2step-stake-s,594,2079391,0.0-19.0-0.0-0.106,A1EN3FW93BSXQQ,3X52SWXE10LAELCT6ESTJVPQIDRWCT,3WJEQKOXACIW6OXMFECJ9U5VG9F1AC,7,8
107,3,object_04,object_05,360.5,6,1,294.80000001192,0.8888888888888888,2,object_08,1,2014,0,4,8,library_5,2,memory-2step-stake-s,595,2087757,0.0-19.0-0.0-0.107,A1EN3FW93BSXQQ,3X52SWXE10LAELCT6ESTJVPQIDRWCT,3WJEQKOXACIW6OXMFECJ9U5VG9F1AC,6,5
108,4,object_09,object_07,309.59999999404,7,2,399.69999998808,0.4444444444444444,1,object_10,1,2018,0,4,9,restaurant_2,2,memory-2step-stake-s,596,2095807,0.0-19.0-0.0-0.108,A1EN3FW93BSXQQ,3X52SWXE10LAELCT6ESTJVPQIDRWCT,3WJEQKOXACIW6OXMFECJ9U5VG9F1AC,8,7
109,1,object_02,object_01,657.59999999404,2,2,458.69999998808,0.8888888888888888,2,object_08,5,2058,0,4,8,desert_7,2,memory-2step-stake-s,597,2104335,0.0-19.0-0.0-0.109,A1EN3FW93BSXQQ,3X52SWXE10LAELCT6ESTJVPQIDRWCT,3WJEQKOXACIW6OXMFECJ9U5VG9F1AC,1,2
110,4,object_07,object_09,762.40000000596,8,2,779.5,0.7777777777777778,2,object_08,1,2065,0,6,7,restaurant_1,2,memory-2step-stake-s,598,2113081,0.0-19.0-0.0-0.110,A1EN3FW93BSXQQ,3X52SWXE10LAELCT6ESTJVPQIDRWCT,3WJEQKOXACIW6OXMFECJ9U5VG9F1AC,7,8
111,3,object_04,object_05,624.79999998212,6,1,401.10000002384,0.8888888888888888,2,object_08,5,2105,0,6,8,library_8,2,memory-2step-stake-s,599,2121553,0.0-19.0-0.0-0.111,A1EN3FW93BSXQQ,3X52SWXE10LAELCT6ESTJVPQIDRWCT,3WJEQKOXACIW6OXMFECJ9U5VG9F1AC,6,5
112,4,object_07,object_09,506.10000002384,8,2,787.0,0.8888888888888888,2,object_08,1,2113,0,7,8,restaurant_3,2,memory-2step-stake-s,600,2130410,0.0-19.0-0.0-0.112,A1EN3FW93BSXQQ,3X52SWXE10LAELCT6ESTJVPQIDRWCT,3WJEQKOXACIW6OXMFECJ9U5VG9F1AC,7,8
113,3,object_04,object_05,607.79999998212,6,1,511.70000001788,0.8888888888888888,2,object_08,1,2121,0,6,8,library_1,2,memory-2step-stake-s,601,2138988,0.0-19.0-0.0-0.113,A1EN3FW93BSXQQ,3X52SWXE10LAELCT6ESTJVPQIDRWCT,3WJEQKOXACIW6OXMFECJ9U5VG9F1AC,6,5
114,2,object_03,object_06,510.0,4,2,506.90000000596,0.8888888888888888,2,object_08,5,2161,0,7,8,forest_7,2,memory-2step-stake-s,602,2147568,0.0-19.0-0.0-0.114,A1EN3FW93BSXQQ,3X52SWXE10LAELCT6ESTJVPQIDRWCT,3WJEQKOXACIW6OXMFECJ9U5VG9F1AC,3,4
115,1,object_02,object_01,600.10000002384,2,2,423.90000000596,0.7777777777777778,2,object_08,5,2196,0,8,7,desert_7,2,memory-2step-stake-s,603,2155956,0.0-19.0-0.0-0.115,A1EN3FW93BSXQQ,3X52SWXE10LAELCT6ESTJVPQIDRWCT,3WJEQKOXACIW6OXMFECJ9U5VG9F1AC,1,2
116,4,object_07,object_09,611.90000000596,8,2,547.09999999404,0.8888888888888888,2,object_08,1,2204,0,9,8,restaurant_2,2,memory-2step-stake-s,604,2164577,0.0-19.0-0.0-0.116,A1EN3FW93BSXQQ,3X52SWXE10LAELCT6ESTJVPQIDRWCT,3WJEQKOXACIW6OXMFECJ9U5VG9F1AC,7,8
117,4,object_09,object_07,630.80000001192,8,1,407.19999998808,0.6666666666666666,2,object_08,1,2210,0,8,6,restaurant_2,2,memory-2step-stake-s,605,2172843,0.0-19.0-0.0-0.117,A1EN3FW93BSXQQ,3X52SWXE10LAELCT6ESTJVPQIDRWCT,3WJEQKOXACIW6OXMFECJ9U5VG9F1AC,8,7
118,1,object_02,object_01,557.89999997616,2,2,360.09999999404,0.7777777777777778,2,object_08,5,2245,0,8,7,desert_7,2,memory-2step-stake-s,606,2181167,0.0-19.0-0.0-0.118,A1EN3FW93BSXQQ,3X52SWXE10LAELCT6ESTJVPQIDRWCT,3WJEQKOXACIW6OXMFECJ9U5VG9F1AC,1,2
119,2,object_03,object_06,689.70000001788,4,2,415.69999998808,0.6666666666666666,2,object_08,5,2275,0,8,6,forest_3,2,memory-2step-stake-s,607,2189439,0.0-19.0-0.0-0.119,A1EN3FW93BSXQQ,3X52SWXE10LAELCT6ESTJVPQIDRWCT,3WJEQKOXACIW6OXMFECJ9U5VG9F1AC,3,4
120,1,object_01,object_02,565.70000001788,2,1,668.30000001192,0.3333333333333333,2,object_08,5,2290,0,9,3,desert_7,2,memory-2step-stake-s,608,2197654,0.0-19.0-0.0-0.120,A1EN3FW93BSXQQ,3X52SWXE10LAELCT6ESTJVPQIDRWCT,3WJEQKOXACIW6OXMFECJ9U5VG9F1AC,2,1
121,3,object_04,object_05,599.69999998808,6,1,416.90000000596,0.2222222222222222,2,object_08,5,2300,0,8,2,library_1,2,memory-2step-stake-s,609,2205514,0.0-19.0-0.0-0.121,A1EN3FW93BSXQQ,3X52SWXE10LAELCT6ESTJVPQIDRWCT,3WJEQKOXACIW6OXMFECJ9U5VG9F1AC,6,5
122,3,object_04,object_05,653.89999997616,6,1,444.59999999404,0.4444444444444444,2,object_08,1,2304,0,8,4,library_1,2,memory-2step-stake-s,610,2213611,0.0-19.0-0.0-0.122,A1EN3FW93BSXQQ,3X52SWXE10LAELCT6ESTJVPQIDRWCT,3WJEQKOXACIW6OXMFECJ9U5VG9F1AC,6,5
123,3,object_04,object_05,596.59999999404,6,1,386.10000002384,0.6666666666666666,2,object_08,5,2334,0,9,6,library_5,2,memory-2step-stake-s,611,2221859,0.0-19.0-0.0-0.123,A1EN3FW93BSXQQ,3X52SWXE10LAELCT6ESTJVPQIDRWCT,3WJEQKOXACIW6OXMFECJ9U5VG9F1AC,6,5
124,1,object_02,object_01,630.09999999404,2,2,653.19999998808,0.6666666666666666,2,object_08,5,2364,0,5,6,desert_5,2,memory-2step-stake-s,612,2230375,0.0-19.0-0.0-0.124,A1EN3FW93BSXQQ,3X52SWXE10LAELCT6ESTJVPQIDRWCT,3WJEQKOXACIW6OXMFECJ9U5VG9F1AC,1,2
125,1,object_02,object_01,667.30000001192,2,2,411.19999998808,0.4444444444444444,2,object_08,5,2384,0,7,4,desert_2,2,memory-2step-stake-s,613,2238438,0.0-19.0-0.0-0.125,A1EN3FW93BSXQQ,3X52SWXE10LAELCT6ESTJVPQIDRWCT,3WJEQKOXACIW6OXMFECJ9U5VG9F1AC,1,2
126,4,object_07,object_09,415.79999998212,8,2,390.79999998212,0.2222222222222222,2,object_08,1,2386,0,8,2,restaurant_1,2,memory-2step-stake-s,614,2246281,0.0-19.0-0.0-0.126,A1EN3FW93BSXQQ,3X52SWXE10LAELCT6ESTJVPQIDRWCT,3WJEQKOXACIW6OXMFECJ9U5VG9F1AC,7,8
127,1,object_02,object_01,650.79999998212,1,1,342.69999998808,1.0,1,object_10,5,2431,0,9,4,desert_7,2,memory-2step-stake-s,615,2254797,0.0-19.0-0.0-0.127,A1EN3FW93BSXQQ,3X52SWXE10LAELCT6ESTJVPQIDRWCT,3WJEQKOXACIW6OXMFECJ9U5VG9F1AC,1,2
128,2,object_06,object_03,552.19999998808,3,2,263.70000001788,0.8888888888888888,1,object_10,5,2471,0,8,5,forest_5,2,memory-2step-stake-s,617,2538076,0.0-19.0-0.1-0.128,A1EN3FW93BSXQQ,3X52SWXE10LAELCT6ESTJVPQIDRWCT,3WJEQKOXACIW6OXMFECJ9U5VG9F1AC,4,3
129,4,object_07,object_09,1205.0,7,1,476.0,0.7777777777777778,1,object_10,1,2478,0,7,6,restaurant_4,2,memory-2step-stake-s,618,2546515,0.0-19.0-0.1-0.129,A1EN3FW93BSXQQ,3X52SWXE10LAELCT6ESTJVPQIDRWCT,3WJEQKOXACIW6OXMFECJ9U5VG9F1AC,7,8
130,2,object_06,object_03,602.09999999404,4,1,554.79999998212,0.7777777777777778,2,object_08,5,2513,0,7,7,forest_4,2,memory-2step-stake-s,619,2555037,0.0-19.0-0.1-0.130,A1EN3FW93BSXQQ,3X52SWXE10LAELCT6ESTJVPQIDRWCT,3WJEQKOXACIW6OXMFECJ9U5VG9F1AC,4,3
131,2,object_03,object_06,757.09999999404,4,2,451.89999997616,1.0,2,object_08,5,2558,0,7,9,forest_4,2,memory-2step-stake-s,620,2563664,0.0-19.0-0.1-0.131,A1EN3FW93BSXQQ,3X52SWXE10LAELCT6ESTJVPQIDRWCT,3WJEQKOXACIW6OXMFECJ9U5VG9F1AC,3,4
132,3,object_04,object_05,404.29999998212,6,1,420.09999999404,0.7777777777777778,2,object_08,1,2565,0,8,7,library_4,2,memory-2step-stake-s,621,2572039,0.0-19.0-0.1-0.132,A1EN3FW93BSXQQ,3X52SWXE10LAELCT6ESTJVPQIDRWCT,3WJEQKOXACIW6OXMFECJ9U5VG9F1AC,6,5
133,3,object_05,object_04,765.19999998808,6,2,434.0,0.5555555555555556,2,object_08,1,2570,0,9,5,library_4,2,memory-2step-stake-s,622,2580229,0.0-19.0-0.1-0.133,A1EN3FW93BSXQQ,3X52SWXE10LAELCT6ESTJVPQIDRWCT,3WJEQKOXACIW6OXMFECJ9U5VG9F1AC,5,6
134,2,object_03,object_06,569.40000000596,4,2,335.80000001192,0.7777777777777778,2,object_08,1,2577,0,9,7,forest_3,2,memory-2step-stake-s,623,2588530,0.0-19.0-0.1-0.134,A1EN3FW93BSXQQ,3X52SWXE10LAELCT6ESTJVPQIDRWCT,3WJEQKOXACIW6OXMFECJ9U5VG9F1AC,3,4
135,4,object_09,object_07,588.0,7,2,566.0,1.0,1,object_10,1,2586,0,9,9,restaurant_1,2,memory-2step-stake-s,624,2597267,0.0-19.0-0.1-0.135,A1EN3FW93BSXQQ,3X52SWXE10LAELCT6ESTJVPQIDRWCT,3WJEQKOXACIW6OXMFECJ9U5VG9F1AC,8,7
136,3,object_04,object_05,499.40000000596,6,1,461.29999998212,0.8888888888888888,2,object_08,1,2594,0,8,8,library_8,2,memory-2step-stake-s,625,2605794,0.0-19.0-0.1-0.136,A1EN3FW93BSXQQ,3X52SWXE10LAELCT6ESTJVPQIDRWCT,3WJEQKOXACIW6OXMFECJ9U5VG9F1AC,6,5
137,1,object_02,object_01,543.90000000596,2,2,361.40000000596,0.7777777777777778,2,object_08,5,2629,0,7,7,desert_1,2,memory-2step-stake-s,626,2614115,0.0-19.0-0.1-0.137,A1EN3FW93BSXQQ,3X52SWXE10LAELCT6ESTJVPQIDRWCT,3WJEQKOXACIW6OXMFECJ9U5VG9F1AC,1,2
138,3,object_05,object_04,481.69999998808,6,2,395.09999999404,0.5555555555555556,2,object_08,1,2634,0,5,5,library_5,2,memory-2step-stake-s,627,2622268,0.0-19.0-0.1-0.138,A1EN3FW93BSXQQ,3X52SWXE10LAELCT6ESTJVPQIDRWCT,3WJEQKOXACIW6OXMFECJ9U5VG9F1AC,5,6
139,4,object_09,object_07,822.20000001788,8,1,412.90000000596,0.7777777777777778,2,object_08,1,2641,0,4,7,restaurant_1,2,memory-2step-stake-s,628,2630645,0.0-19.0-0.1-0.139,A1EN3FW93BSXQQ,3X52SWXE10LAELCT6ESTJVPQIDRWCT,3WJEQKOXACIW6OXMFECJ9U5VG9F1AC,8,7
140,2,object_06,object_03,574.40000000596,3,2,447.40000000596,0.7777777777777778,1,object_10,5,2676,0,7,6,forest_7,2,memory-2step-stake-s,629,2639056,0.0-19.0-0.1-0.140,A1EN3FW93BSXQQ,3X52SWXE10LAELCT6ESTJVPQIDRWCT,3WJEQKOXACIW6OXMFECJ9U5VG9F1AC,4,3
141,4,object_09,object_07,517.19999998808,7,2,396.90000000596,0.6666666666666666,1,object_10,1,2682,0,6,5,restaurant_2,2,memory-2step-stake-s,630,2647318,0.0-19.0-0.1-0.141,A1EN3FW93BSXQQ,3X52SWXE10LAELCT6ESTJVPQIDRWCT,3WJEQKOXACIW6OXMFECJ9U5VG9F1AC,8,7
142,4,object_07,object_09,572.40000000596,8,2,404.59999999404,0.8888888888888888,2,object_08,5,2722,0,3,8,restaurant_3,2,memory-2step-stake-s,631,2655791,0.0-19.0-0.1-0.142,A1EN3FW93BSXQQ,3X52SWXE10LAELCT6ESTJVPQIDRWCT,3WJEQKOXACIW6OXMFECJ9U5VG9F1AC,7,8
143,1,object_01,object_02,673.90000000596,1,2,442.5,0.1111111111111111,1,object_10,5,2727,0,1,7,desert_2,2,memory-2step-stake-s,632,2663570,0.0-19.0-0.1-0.143,A1EN3FW93BSXQQ,3X52SWXE10LAELCT6ESTJVPQIDRWCT,3WJEQKOXACIW6OXMFECJ9U5VG9F1AC,2,1
144,4,object_09,object_07,1096.7999999821,7,2,911.79999998212,0.1111111111111111,1,object_10,1,2728,0,1,6,restaurant_4,2,memory-2step-stake-s,633,2671822,0.0-19.0-0.1-0.144,A1EN3FW93BSXQQ,3X52SWXE10LAELCT6ESTJVPQIDRWCT,3WJEQKOXACIW6OXMFECJ9U5VG9F1AC,8,7
145,2,object_03,object_06,479.59999999404,3,1,367.40000000596,0.3333333333333333,1,object_10,5,2743,0,3,5,forest_3,2,memory-2step-stake-s,634,2679737,0.0-19.0-0.1-0.145,A1EN3FW93BSXQQ,3X52SWXE10LAELCT6ESTJVPQIDRWCT,3WJEQKOXACIW6OXMFECJ9U5VG9F1AC,3,4
146,4,object_09,object_07,764.09999999404,8,1,499.5,0.6666666666666666,2,object_08,1,2749,0,3,6,restaurant_1,2,memory-2step-stake-s,635,2688101,0.0-19.0-0.1-0.146,A1EN3FW93BSXQQ,3X52SWXE10LAELCT6ESTJVPQIDRWCT,3WJEQKOXACIW6OXMFECJ9U5VG9F1AC,8,7
147,2,object_03,object_06,863.5,4,2,631.59999999404,0.6666666666666666,2,object_08,1,2755,0,2,6,forest_5,2,memory-2step-stake-s,636,2696593,0.0-19.0-0.1-0.147,A1EN3FW93BSXQQ,3X52SWXE10LAELCT6ESTJVPQIDRWCT,3WJEQKOXACIW6OXMFECJ9U5VG9F1AC,3,4
148,2,object_06,object_03,631.90000000596,4,1,487.20000001788,0.6666666666666666,2,object_08,1,2761,0,0,6,forest_3,2,memory-2step-stake-s,637,2704948,0.0-19.0-0.1-0.148,A1EN3FW93BSXQQ,3X52SWXE10LAELCT6ESTJVPQIDRWCT,3WJEQKOXACIW6OXMFECJ9U5VG9F1AC,4,3
149,4,object_09,object_07,792.30000001192,8,1,568.30000001192,0.6666666666666666,2,object_08,1,2767,0,5,6,restaurant_1,2,memory-2step-stake-s,638,2713376,0.0-19.0-0.1-0.149,A1EN3FW93BSXQQ,3X52SWXE10LAELCT6ESTJVPQIDRWCT,3WJEQKOXACIW6OXMFECJ9U5VG9F1AC,8,7
150,2,object_03,object_06,914.09999999404,4,2,424.90000000596,0.1111111111111111,2,object_08,5,2772,0,2,1,forest_3,2,memory-2step-stake-s,639,2721143,0.0-19.0-0.1-0.150,A1EN3FW93BSXQQ,3X52SWXE10LAELCT6ESTJVPQIDRWCT,3WJEQKOXACIW6OXMFECJ9U5VG9F1AC,3,4
151,1,object_01,object_02,546.10000002384,1,2,402.0,0.4444444444444444,1,object_10,5,2792,0,4,1,desert_5,2,memory-2step-stake-s,640,2729193,0.0-19.0-0.1-0.151,A1EN3FW93BSXQQ,3X52SWXE10LAELCT6ESTJVPQIDRWCT,3WJEQKOXACIW6OXMFECJ9U5VG9F1AC,2,1
152,2,object_06,object_03,655.70000001788,4,1,311.39999997616,0.1111111111111111,2,object_08,5,2797,0,7,1,forest_4,2,memory-2step-stake-s,641,2736844,0.0-19.0-0.1-0.152,A1EN3FW93BSXQQ,3X52SWXE10LAELCT6ESTJVPQIDRWCT,3WJEQKOXACIW6OXMFECJ9U5VG9F1AC,4,3
153,1,object_02,object_01,749.19999998808,1,1,438.19999998808,0.6666666666666666,1,object_10,5,2827,0,6,3,desert_7,2,memory-2step-stake-s,642,2745145,0.0-19.0-0.1-0.153,A1EN3FW93BSXQQ,3X52SWXE10LAELCT6ESTJVPQIDRWCT,3WJEQKOXACIW6OXMFECJ9U5VG9F1AC,1,2
154,1,object_02,object_01,686.69999998808,1,1,326.70000001788,0.5555555555555556,1,object_10,1,2832,0,5,0,desert_1,2,memory-2step-stake-s,643,2753232,0.0-19.0-0.1-0.154,A1EN3FW93BSXQQ,3X52SWXE10LAELCT6ESTJVPQIDRWCT,3WJEQKOXACIW6OXMFECJ9U5VG9F1AC,1,2
155,4,object_07,object_09,672.40000000596,7,1,319.30000001192,1.0,1,object_10,1,2841,0,9,1,restaurant_3,2,memory-2step-stake-s,644,2761732,0.0-19.0-0.1-0.155,A1EN3FW93BSXQQ,3X52SWXE10LAELCT6ESTJVPQIDRWCT,3WJEQKOXACIW6OXMFECJ9U5VG9F1AC,7,8
156,1,object_02,object_01,722.29999998212,1,1,344.80000001192,0.8888888888888888,1,object_10,5,2881,0,8,0,desert_7,2,memory-2step-stake-s,645,2770153,0.0-19.0-0.1-0.156,A1EN3FW93BSXQQ,3X52SWXE10LAELCT6ESTJVPQIDRWCT,3WJEQKOXACIW6OXMFECJ9U5VG9F1AC,1,2
157,2,object_03,object_06,837.5,3,1,365.40000000596,1.0,1,object_10,1,2890,0,9,0,forest_4,2,memory-2step-stake-s,646,2778687,0.0-19.0-0.1-0.157,A1EN3FW93BSXQQ,3X52SWXE10LAELCT6ESTJVPQIDRWCT,3WJEQKOXACIW6OXMFECJ9U5VG9F1AC,3,4
158,1,object_01,object_02,843.40000000596,1,2,418.59999999404,0.7777777777777778,1,object_10,1,2897,0,7,2,desert_2,2,memory-2step-stake-s,647,2787068,0.0-19.0-0.1-0.158,A1EN3FW93BSXQQ,3X52SWXE10LAELCT6ESTJVPQIDRWCT,3WJEQKOXACIW6OXMFECJ9U5VG9F1AC,2,1
159,4,object_07,object_09,874.0,7,1,463.70000001788,0.7777777777777778,1,object_10,1,2904,0,7,3,restaurant_1,2,memory-2step-stake-s,648,2795498,0.0-19.0-0.1-0.159,A1EN3FW93BSXQQ,3X52SWXE10LAELCT6ESTJVPQIDRWCT,3WJEQKOXACIW6OXMFECJ9U5VG9F1AC,7,8
160,3,object_05,object_04,745.19999998808,5,1,385.09999999404,0.8888888888888888,1,object_10,1,2912,0,8,4,library_4,2,memory-2step-stake-s,649,2803950,0.0-19.0-0.1-0.160,A1EN3FW93BSXQQ,3X52SWXE10LAELCT6ESTJVPQIDRWCT,3WJEQKOXACIW6OXMFECJ9U5VG9F1AC,5,6
161,4,object_07,object_09,644.09999999404,7,1,386.09999999404,1.0,1,object_10,1,2921,0,9,1,restaurant_4,2,memory-2step-stake-s,650,2812507,0.0-19.0-0.1-0.161,A1EN3FW93BSXQQ,3X52SWXE10LAELCT6ESTJVPQIDRWCT,3WJEQKOXACIW6OXMFECJ9U5VG9F1AC,7,8
162,3,object_05,object_04,728.79999998212,5,1,382.5,0.8888888888888888,1,object_10,5,2961,0,8,2,library_5,2,memory-2step-stake-s,651,2820958,0.0-19.0-0.1-0.162,A1EN3FW93BSXQQ,3X52SWXE10LAELCT6ESTJVPQIDRWCT,3WJEQKOXACIW6OXMFECJ9U5VG9F1AC,5,6
163,2,object_06,object_03,770.40000000596,3,2,539.19999998808,0.6666666666666666,1,object_10,5,2991,0,6,1,forest_3,2,memory-2step-stake-s,652,2829358,0.0-19.0-0.1-0.163,A1EN3FW93BSXQQ,3X52SWXE10LAELCT6ESTJVPQIDRWCT,3WJEQKOXACIW6OXMFECJ9U5VG9F1AC,4,3
164,3,object_04,object_05,563.5,5,2,403.5,0.5555555555555556,1,object_10,1,2996,0,5,1,library_8,2,memory-2step-stake-s,653,2837518,0.0-19.0-0.1-0.164,A1EN3FW93BSXQQ,3X52SWXE10LAELCT6ESTJVPQIDRWCT,3WJEQKOXACIW6OXMFECJ9U5VG9F1AC,6,5
165,3,object_05,object_04,492.69999998808,6,2,684.40000000596,0.4444444444444444,2,object_08,1,3000,0,6,4,library_4,2,memory-2step-stake-s,654,2845854,0.0-19.0-0.1-0.165,A1EN3FW93BSXQQ,3X52SWXE10LAELCT6ESTJVPQIDRWCT,3WJEQKOXACIW6OXMFECJ9U5VG9F1AC,5,6
166,3,object_04,object_05,651.29999998212,6,1,515.5,0.3333333333333333,2,object_08,1,3003,0,6,3,library_5,2,memory-2step-stake-s,655,2853918,0.0-19.0-0.1-0.166,A1EN3FW93BSXQQ,3X52SWXE10LAELCT6ESTJVPQIDRWCT,3WJEQKOXACIW6OXMFECJ9U5VG9F1AC,6,5
167,4,object_07,object_09,-1.0,-1,-1,-1.0,0.0,-,0,1,3003,0,3,2,restaurant_4,2,memory-2step-stake-s,656,2860443,0.0-19.0-0.1-0.167,A1EN3FW93BSXQQ,3X52SWXE10LAELCT6ESTJVPQIDRWCT,3WJEQKOXACIW6OXMFECJ9U5VG9F1AC,7,8
168,2,object_03,object_06,399.59999999404,4,2,454.19999998808,0.3333333333333333,2,object_08,5,3018,0,3,3,forest_4,2,memory-2step-stake-s,657,2868447,0.0-19.0-0.1-0.168,A1EN3FW93BSXQQ,3X52SWXE10LAELCT6ESTJVPQIDRWCT,3WJEQKOXACIW6OXMFECJ9U5VG9F1AC,3,4
169,3,object_05,object_04,583.5,6,2,455.30000001192,0.4444444444444444,2,object_08,1,3022,0,4,4,library_5,2,memory-2step-stake-s,658,2876557,0.0-19.0-0.1-0.169,A1EN3FW93BSXQQ,3X52SWXE10LAELCT6ESTJVPQIDRWCT,3WJEQKOXACIW6OXMFECJ9U5VG9F1AC,5,6
170,3,object_04,object_05,443.0,6,1,443.90000000596,0.6666666666666666,2,object_08,1,3028,0,3,6,library_4,2,memory-2step-stake-s,659,2884858,0.0-19.0-0.1-0.170,A1EN3FW93BSXQQ,3X52SWXE10LAELCT6ESTJVPQIDRWCT,3WJEQKOXACIW6OXMFECJ9U5VG9F1AC,6,5
171,1,object_02,object_01,684.20000001788,1,1,414.5,0.4444444444444444,1,object_10,5,3048,0,4,1,desert_5,2,memory-2step-stake-s,660,2892922,0.0-19.0-0.1-0.171,A1EN3FW93BSXQQ,3X52SWXE10LAELCT6ESTJVPQIDRWCT,3WJEQKOXACIW6OXMFECJ9U5VG9F1AC,1,2
172,1,object_02,object_01,512.0,2,2,385.69999998808,0.1111111111111111,2,object_08,5,3053,0,3,1,desert_1,2,memory-2step-stake-s,661,2900642,0.0-19.0-0.1-0.172,A1EN3FW93BSXQQ,3X52SWXE10LAELCT6ESTJVPQIDRWCT,3WJEQKOXACIW6OXMFECJ9U5VG9F1AC,1,2
173,2,object_06,object_03,868.19999998808,3,2,414.19999998808,0.1111111111111111,1,object_10,5,3058,0,1,2,forest_7,2,memory-2step-stake-s,662,2908393,0.0-19.0-0.1-0.173,A1EN3FW93BSXQQ,3X52SWXE10LAELCT6ESTJVPQIDRWCT,3WJEQKOXACIW6OXMFECJ9U5VG9F1AC,4,3
174,1,object_01,object_02,627.79999998212,1,2,485.5,0.1111111111111111,1,object_10,5,3063,0,1,1,desert_7,2,memory-2step-stake-s,663,2916217,0.0-19.0-0.1-0.174,A1EN3FW93BSXQQ,3X52SWXE10LAELCT6ESTJVPQIDRWCT,3WJEQKOXACIW6OXMFECJ9U5VG9F1AC,2,1
175,2,object_06,object_03,545.40000000596,4,1,482.40000000596,0.3333333333333333,2,object_08,1,3066,0,1,3,forest_4,2,memory-2step-stake-s,664,2924245,0.0-19.0-0.1-0.175,A1EN3FW93BSXQQ,3X52SWXE10LAELCT6ESTJVPQIDRWCT,3WJEQKOXACIW6OXMFECJ9U5VG9F1AC,4,3
176,1,object_02,object_01,431.79999998212,2,2,646.90000000596,0.1111111111111111,2,object_08,5,3071,0,0,1,desert_5,2,memory-2step-stake-s,665,2932237,0.0-19.0-0.1-0.176,A1EN3FW93BSXQQ,3X52SWXE10LAELCT6ESTJVPQIDRWCT,3WJEQKOXACIW6OXMFECJ9U5VG9F1AC,1,2
177,1,object_01,object_02,542.69999998808,1,2,614.0,0.2222222222222222,1,object_10,5,3081,0,2,1,desert_5,2,memory-2step-stake-s,666,2940295,0.0-19.0-0.1-0.177,A1EN3FW93BSXQQ,3X52SWXE10LAELCT6ESTJVPQIDRWCT,3WJEQKOXACIW6OXMFECJ9U5VG9F1AC,2,1
178,2,object_06,object_03,632.40000000596,4,1,960.79999998212,0.4444444444444444,2,object_08,5,3101,0,4,4,forest_4,2,memory-2step-stake-s,667,2948904,0.0-19.0-0.1-0.178,A1EN3FW93BSXQQ,3X52SWXE10LAELCT6ESTJVPQIDRWCT,3WJEQKOXACIW6OXMFECJ9U5VG9F1AC,4,3
179,2,object_03,object_06,473.5,4,2,498.79999998212,0.3333333333333333,2,object_08,5,3116,0,6,3,forest_3,2,memory-2step-stake-s,668,2956948,0.0-19.0-0.1-0.179,A1EN3FW93BSXQQ,3X52SWXE10LAELCT6ESTJVPQIDRWCT,3WJEQKOXACIW6OXMFECJ9U5VG9F1AC,3,4
180,3,object_04,object_05,545.59999999404,6,1,369.29999998212,0.1111111111111111,2,object_08,1,3117,0,3,1,library_5,2,memory-2step-stake-s,669,2964660,0.0-19.0-0.1-0.180,A1EN3FW93BSXQQ,3X52SWXE10LAELCT6ESTJVPQIDRWCT,3WJEQKOXACIW6OXMFECJ9U5VG9F1AC,6,5
181,3,object_04,object_05,629.80000001192,5,2,422.09999999404,0.2222222222222222,1,object_10,1,3119,0,2,0,library_8,2,memory-2step-stake-s,670,2972521,0.0-19.0-0.1-0.181,A1EN3FW93BSXQQ,3X52SWXE10LAELCT6ESTJVPQIDRWCT,3WJEQKOXACIW6OXMFECJ9U5VG9F1AC,6,5
182,3,object_05,object_04,529.29999998212,6,2,402.70000001788,0.1111111111111111,2,object_08,1,3120,0,2,1,library_1,2,memory-2step-stake-s,671,2980263,0.0-19.0-0.1-0.182,A1EN3FW93BSXQQ,3X52SWXE10LAELCT6ESTJVPQIDRWCT,3WJEQKOXACIW6OXMFECJ9U5VG9F1AC,5,6
183,3,object_04,object_05,778.90000000596,6,1,346.09999999404,0.1111111111111111,2,object_08,1,3121,0,1,1,library_8,2,memory-2step-stake-s,672,2987947,0.0-19.0-0.1-0.183,A1EN3FW93BSXQQ,3X52SWXE10LAELCT6ESTJVPQIDRWCT,3WJEQKOXACIW6OXMFECJ9U5VG9F1AC,6,5
184,2,object_06,object_03,530.19999998808,3,2,1395.1000000238,0.2222222222222222,1,object_10,5,3131,0,2,4,forest_7,2,memory-2step-stake-s,673,2996782,0.0-19.0-0.1-0.184,A1EN3FW93BSXQQ,3X52SWXE10LAELCT6ESTJVPQIDRWCT,3WJEQKOXACIW6OXMFECJ9U5VG9F1AC,4,3
185,4,object_09,object_07,618.0,7,2,163.30000001192,0.0,1,object_10,1,3131,0,0,4,restaurant_3,2,memory-2step-stake-s,674,3004179,0.0-19.0-0.1-0.185,A1EN3FW93BSXQQ,3X52SWXE10LAELCT6ESTJVPQIDRWCT,3WJEQKOXACIW6OXMFECJ9U5VG9F1AC,8,7
186,2,object_03,object_06,449.09999999404,4,2,357.90000000596,0.2222222222222222,2,object_08,5,3141,0,2,2,forest_3,2,memory-2step-stake-s,675,3011979,0.0-19.0-0.1-0.186,A1EN3FW93BSXQQ,3X52SWXE10LAELCT6ESTJVPQIDRWCT,3WJEQKOXACIW6OXMFECJ9U5VG9F1AC,3,4
187,1,object_01,object_02,555.40000000596,1,2,340.40000000596,0.1111111111111111,1,object_10,5,3146,0,1,2,desert_2,2,memory-2step-stake-s,676,3019655,0.0-19.0-0.1-0.187,A1EN3FW93BSXQQ,3X52SWXE10LAELCT6ESTJVPQIDRWCT,3WJEQKOXACIW6OXMFECJ9U5VG9F1AC,2,1
188,3,object_05,object_04,472.40000000596,6,2,416.80000001192,0.2222222222222222,2,object_08,5,3156,0,5,2,library_4,2,memory-2step-stake-s,677,3027513,0.0-19.0-0.1-0.188,A1EN3FW93BSXQQ,3X52SWXE10LAELCT6ESTJVPQIDRWCT,3WJEQKOXACIW6OXMFECJ9U5VG9F1AC,5,6
189,1,object_01,object_02,1162.599999994,2,1,433.80000001192,0.1111111111111111,2,object_08,5,3161,0,6,1,desert_7,2,memory-2step-stake-s,678,3035286,0.0-19.0-0.1-0.189,A1EN3FW93BSXQQ,3X52SWXE10LAELCT6ESTJVPQIDRWCT,3WJEQKOXACIW6OXMFECJ9U5VG9F1AC,2,1
190,1,object_02,object_01,609.5,1,1,432.80000001192,0.7777777777777778,1,object_10,5,3196,0,7,2,desert_1,2,memory-2step-stake-s,679,3043686,0.0-19.0-0.1-0.190,A1EN3FW93BSXQQ,3X52SWXE10LAELCT6ESTJVPQIDRWCT,3WJEQKOXACIW6OXMFECJ9U5VG9F1AC,1,2
191,1,object_01,object_02,494.30000001192,1,2,349.0,0.4444444444444444,1,object_10,1,3200,0,4,2,desert_2,2,memory-2step-stake-s,680,3051683,0.0-19.0-0.1-0.191,A1EN3FW93BSXQQ,3X52SWXE10LAELCT6ESTJVPQIDRWCT,3WJEQKOXACIW6OXMFECJ9U5VG9F1AC,2,1
192,2,object_06,object_03,811.90000000596,4,1,482.70000001788,0.2222222222222222,2,object_08,5,3210,0,5,2,forest_4,2,memory-2step-stake-s,681,3059614,0.0-19.0-0.1-0.192,A1EN3FW93BSXQQ,3X52SWXE10LAELCT6ESTJVPQIDRWCT,3WJEQKOXACIW6OXMFECJ9U5VG9F1AC,4,3
193,2,object_06,object_03,493.79999998212,3,2,518.70000001788,0.4444444444444444,1,object_10,5,3230,0,4,5,forest_5,2,memory-2step-stake-s,682,3067782,0.0-19.0-0.1-0.193,A1EN3FW93BSXQQ,3X52SWXE10LAELCT6ESTJVPQIDRWCT,3WJEQKOXACIW6OXMFECJ9U5VG9F1AC,4,3
194,3,object_05,object_04,552.5,5,1,743.5,0.6666666666666666,1,object_10,1,3236,0,6,5,library_5,2,memory-2step-stake-s,683,3076385,0.0-19.0-0.1-0.194,A1EN3FW93BSXQQ,3X52SWXE10LAELCT6ESTJVPQIDRWCT,3WJEQKOXACIW6OXMFECJ9U5VG9F1AC,5,6
195,2,object_03,object_06,757.19999998808,4,2,508.80000001192,1.0,2,object_08,5,3281,0,7,9,forest_5,2,memory-2step-stake-s,684,3085068,0.0-19.0-0.1-0.195,A1EN3FW93BSXQQ,3X52SWXE10LAELCT6ESTJVPQIDRWCT,3WJEQKOXACIW6OXMFECJ9U5VG9F1AC,3,4
196,3,object_05,object_04,499.69999998808,6,2,427.80000001192,0.7777777777777778,2,object_08,1,3288,0,7,7,library_4,2,memory-2step-stake-s,685,3093462,0.0-19.0-0.1-0.196,A1EN3FW93BSXQQ,3X52SWXE10LAELCT6ESTJVPQIDRWCT,3WJEQKOXACIW6OXMFECJ9U5VG9F1AC,5,6
197,2,object_03,object_06,516.40000000596,4,2,372.80000001192,0.8888888888888888,2,object_08,5,3328,0,7,8,forest_7,2,memory-2step-stake-s,686,3101909,0.0-19.0-0.1-0.197,A1EN3FW93BSXQQ,3X52SWXE10LAELCT6ESTJVPQIDRWCT,3WJEQKOXACIW6OXMFECJ9U5VG9F1AC,3,4
198,3,object_05,object_04,638.5,6,2,87.40000000596,1.0,2,object_08,1,3337,0,6,9,library_5,2,memory-2step-stake-s,687,3110166,0.0-19.0-0.1-0.198,A1EN3FW93BSXQQ,3X52SWXE10LAELCT6ESTJVPQIDRWCT,3WJEQKOXACIW6OXMFECJ9U5VG9F1AC,5,6
199,3,object_04,object_05,624.5,6,1,408.40000000596,1.0,2,object_08,1,3346,0,3,9,library_1,2,memory-2step-stake-s,688,3118755,0.0-19.0-0.1-0.199,A1EN3FW93BSXQQ,3X52SWXE10LAELCT6ESTJVPQIDRWCT,3WJEQKOXACIW6OXMFECJ9U5VG9F1AC,6,5
200,4,object_09,object_07,711.59999999404,8,1,511.90000000596,1.0,2,object_08,1,3355,0,7,9,restaurant_4,2,memory-2step-stake-s,689,3127439,0.0-19.0-0.1-0.200,A1EN3FW93BSXQQ,3X52SWXE10LAELCT6ESTJVPQIDRWCT,3WJEQKOXACIW6OXMFECJ9U5VG9F1AC,8,7
201,2,object_03,object_06,606.09999999404,4,2,503.09999999404,0.7777777777777778,2,object_08,5,3390,0,9,7,forest_5,2,memory-2step-stake-s,690,3135911,0.0-19.0-0.1-0.201,A1EN3FW93BSXQQ,3X52SWXE10LAELCT6ESTJVPQIDRWCT,3WJEQKOXACIW6OXMFECJ9U5VG9F1AC,3,4
202,4,object_09,object_07,1091.0,8,1,420.59999999404,0.8888888888888888,2,object_08,1,3398,0,8,8,restaurant_1,2,memory-2step-stake-s,691,3144391,0.0-19.0-0.1-0.202,A1EN3FW93BSXQQ,3X52SWXE10LAELCT6ESTJVPQIDRWCT,3WJEQKOXACIW6OXMFECJ9U5VG9F1AC,8,7
203,3,object_05,object_04,517.5,6,2,463.80000001192,1.0,2,object_08,5,3443,0,7,9,library_5,2,memory-2step-stake-s,692,3153028,0.0-19.0-0.1-0.203,A1EN3FW93BSXQQ,3X52SWXE10LAELCT6ESTJVPQIDRWCT,3WJEQKOXACIW6OXMFECJ9U5VG9F1AC,5,6
204,3,object_04,object_05,567.59999999404,5,2,381.5,0.6666666666666666,1,object_10,1,3449,0,6,9,library_4,2,memory-2step-stake-s,693,3161271,0.0-19.0-0.1-0.204,A1EN3FW93BSXQQ,3X52SWXE10LAELCT6ESTJVPQIDRWCT,3WJEQKOXACIW6OXMFECJ9U5VG9F1AC,6,5
205,3,object_04,object_05,454.29999998212,6,1,313.80000001192,0.8888888888888888,2,object_08,1,3457,0,5,8,library_1,2,memory-2step-stake-s,694,3169654,0.0-19.0-0.1-0.205,A1EN3FW93BSXQQ,3X52SWXE10LAELCT6ESTJVPQIDRWCT,3WJEQKOXACIW6OXMFECJ9U5VG9F1AC,6,5
206,3,object_04,object_05,409.09999999404,5,2,386.40000000596,0.7777777777777778,1,object_10,1,3464,0,7,7,library_1,2,memory-2step-stake-s,695,3178001,0.0-19.0-0.1-0.206,A1EN3FW93BSXQQ,3X52SWXE10LAELCT6ESTJVPQIDRWCT,3WJEQKOXACIW6OXMFECJ9U5VG9F1AC,6,5
207,2,object_03,object_06,1213.6999999881,3,1,1278.900000006,0.7777777777777778,1,object_10,1,3471,0,7,5,forest_5,2,memory-2step-stake-s,696,3187238,0.0-19.0-0.1-0.207,A1EN3FW93BSXQQ,3X52SWXE10LAELCT6ESTJVPQIDRWCT,3WJEQKOXACIW6OXMFECJ9U5VG9F1AC,3,4
208,4,object_07,object_09,389.5,8,2,326.20000001788,0.7777777777777778,2,object_08,1,3478,0,7,7,restaurant_1,2,memory-2step-stake-s,697,3195526,0.0-19.0-0.1-0.208,A1EN3FW93BSXQQ,3X52SWXE10LAELCT6ESTJVPQIDRWCT,3WJEQKOXACIW6OXMFECJ9U5VG9F1AC,7,8
209,4,object_07,object_09,519.59999999404,8,2,312.5,0.4444444444444444,2,object_08,1,3482,0,9,4,restaurant_2,2,memory-2step-stake-s,698,3203490,0.0-19.0-0.1-0.209,A1EN3FW93BSXQQ,3X52SWXE10LAELCT6ESTJVPQIDRWCT,3WJEQKOXACIW6OXMFECJ9U5VG9F1AC,7,8
210,1,object_01,object_02,721.69999998808,2,1,439.70000001788,0.3333333333333333,2,object_08,5,3497,0,8,3,desert_2,2,memory-2step-stake-s,699,3211474,0.0-19.0-0.1-0.210,A1EN3FW93BSXQQ,3X52SWXE10LAELCT6ESTJVPQIDRWCT,3WJEQKOXACIW6OXMFECJ9U5VG9F1AC,2,1
211,1,object_02,object_01,502.09999999404,2,2,89.5,0.3333333333333333,2,object_08,5,3512,0,8,3,desert_1,2,memory-2step-stake-s,700,3219105,0.0-19.0-0.1-0.211,A1EN3FW93BSXQQ,3X52SWXE10LAELCT6ESTJVPQIDRWCT,3WJEQKOXACIW6OXMFECJ9U5VG9F1AC,1,2
212,2,object_06,object_03,839.39999997616,4,1,1049.3000000119,0.3333333333333333,2,object_08,5,3527,0,8,3,forest_7,2,memory-2step-stake-s,701,3227697,0.0-19.0-0.1-0.212,A1EN3FW93BSXQQ,3X52SWXE10LAELCT6ESTJVPQIDRWCT,3WJEQKOXACIW6OXMFECJ9U5VG9F1AC,4,3
213,4,object_07,object_09,568.19999998808,8,2,297.60000002384,0.1111111111111111,2,object_08,1,3528,0,7,1,restaurant_1,2,memory-2step-stake-s,702,3235330,0.0-19.0-0.1-0.213,A1EN3FW93BSXQQ,3X52SWXE10LAELCT6ESTJVPQIDRWCT,3WJEQKOXACIW6OXMFECJ9U5VG9F1AC,7,8
214,4,object_09,object_07,282.29999998212,8,1,41.0,0.1111111111111111,2,object_08,1,3529,0,7,1,restaurant_4,2,memory-2step-stake-s,703,3242708,0.0-19.0-0.1-0.214,A1EN3FW93BSXQQ,3X52SWXE10LAELCT6ESTJVPQIDRWCT,3WJEQKOXACIW6OXMFECJ9U5VG9F1AC,8,7
215,2,object_03,object_06,575.90000000596,4,2,471.5,0.2222222222222222,2,object_08,5,3539,0,3,2,forest_5,2,memory-2step-stake-s,704,3250620,0.0-19.0-0.1-0.215,A1EN3FW93BSXQQ,3X52SWXE10LAELCT6ESTJVPQIDRWCT,3WJEQKOXACIW6OXMFECJ9U5VG9F1AC,3,4
216,4,object_09,object_07,444.0,8,1,419.69999998808,0.5555555555555556,2,object_08,5,3564,0,1,5,restaurant_4,2,memory-2step-stake-s,705,3258794,0.0-19.0-0.1-0.216,A1EN3FW93BSXQQ,3X52SWXE10LAELCT6ESTJVPQIDRWCT,3WJEQKOXACIW6OXMFECJ9U5VG9F1AC,8,7
217,3,object_05,object_04,417.39999997616,6,2,431.70000001788,0.4444444444444444,2,object_08,1,3568,0,2,4,library_8,2,memory-2step-stake-s,706,3266880,0.0-19.0-0.1-0.217,A1EN3FW93BSXQQ,3X52SWXE10LAELCT6ESTJVPQIDRWCT,3WJEQKOXACIW6OXMFECJ9U5VG9F1AC,5,6
218,4,object_09,object_07,598.19999998808,8,1,1311.1000000238,0.7777777777777778,2,object_08,1,3575,0,5,7,restaurant_2,2,memory-2step-stake-s,707,3276156,0.0-19.0-0.1-0.218,A1EN3FW93BSXQQ,3X52SWXE10LAELCT6ESTJVPQIDRWCT,3WJEQKOXACIW6OXMFECJ9U5VG9F1AC,8,7
219,4,object_07,object_09,277.09999999404,8,2,757.80000001192,0.7777777777777778,2,object_08,1,3582,0,6,7,restaurant_2,2,memory-2step-stake-s,708,3284880,0.0-19.0-0.1-0.219,A1EN3FW93BSXQQ,3X52SWXE10LAELCT6ESTJVPQIDRWCT,3WJEQKOXACIW6OXMFECJ9U5VG9F1AC,7,8
220,4,object_07,object_09,539.90000000596,7,1,922.79999998212,0.6666666666666666,1,object_10,1,3588,0,6,9,restaurant_2,2,memory-2step-stake-s,709,3293669,0.0-19.0-0.1-0.220,A1EN3FW93BSXQQ,3X52SWXE10LAELCT6ESTJVPQIDRWCT,3WJEQKOXACIW6OXMFECJ9U5VG9F1AC,7,8
221,3,object_05,object_04,414.59999999404,6,2,358.59999999404,1.0,2,object_08,1,3597,0,5,9,library_1,2,memory-2step-stake-s,710,3302208,0.0-19.0-0.1-0.221,A1EN3FW93BSXQQ,3X52SWXE10LAELCT6ESTJVPQIDRWCT,3WJEQKOXACIW6OXMFECJ9U5VG9F1AC,5,6
222,2,object_03,object_06,502.40000000596,4,2,454.19999998808,0.7777777777777778,2,object_08,5,3632,0,4,7,forest_4,2,memory-2step-stake-s,711,3310624,0.0-19.0-0.1-0.222,A1EN3FW93BSXQQ,3X52SWXE10LAELCT6ESTJVPQIDRWCT,3WJEQKOXACIW6OXMFECJ9U5VG9F1AC,3,4
223,2,object_03,object_06,505.40000000596,4,2,336.79999998212,0.7777777777777778,2,object_08,5,3667,0,4,7,forest_5,2,memory-2step-stake-s,712,3318926,0.0-19.0-0.1-0.223,A1EN3FW93BSXQQ,3X52SWXE10LAELCT6ESTJVPQIDRWCT,3WJEQKOXACIW6OXMFECJ9U5VG9F1AC,3,4
224,3,object_05,object_04,846.79999998212,6,2,630.59999999404,0.5555555555555556,2,object_08,1,3672,0,3,5,library_8,2,memory-2step-stake-s,713,3327308,0.0-19.0-0.1-0.224,A1EN3FW93BSXQQ,3X52SWXE10LAELCT6ESTJVPQIDRWCT,3WJEQKOXACIW6OXMFECJ9U5VG9F1AC,5,6
225,4,object_09,object_07,709.5,7,2,443.79999998212,0.2222222222222222,1,object_10,1,3674,0,2,5,restaurant_4,2,memory-2step-stake-s,714,3335203,0.0-19.0-0.1-0.225,A1EN3FW93BSXQQ,3X52SWXE10LAELCT6ESTJVPQIDRWCT,3WJEQKOXACIW6OXMFECJ9U5VG9F1AC,8,7
226,3,object_05,object_04,940.5,5,1,557.5,0.1111111111111111,1,object_10,1,3675,0,1,5,library_4,2,memory-2step-stake-s,715,3343099,0.0-19.0-0.1-0.226,A1EN3FW93BSXQQ,3X52SWXE10LAELCT6ESTJVPQIDRWCT,3WJEQKOXACIW6OXMFECJ9U5VG9F1AC,5,6
227,4,object_07,object_09,440.29999998212,8,2,514.59999999404,0.8888888888888888,2,object_08,1,3683,0,2,8,restaurant_3,2,memory-2step-stake-s,716,3351688,0.0-19.0-0.1-0.227,A1EN3FW93BSXQQ,3X52SWXE10LAELCT6ESTJVPQIDRWCT,3WJEQKOXACIW6OXMFECJ9U5VG9F1AC,7,8
228,3,object_04,object_05,416.70000001788,5,2,718.40000000596,0.3333333333333333,1,object_10,1,3686,0,3,6,library_5,2,memory-2step-stake-s,717,3359955,0.0-19.0-0.1-0.228,A1EN3FW93BSXQQ,3X52SWXE10LAELCT6ESTJVPQIDRWCT,3WJEQKOXACIW6OXMFECJ9U5VG9F1AC,6,5
229,3,object_05,object_04,449.69999998808,6,2,319.0,0.6666666666666666,2,object_08,5,3716,0,3,6,library_8,2,memory-2step-stake-s,718,3368140,0.0-19.0-0.1-0.229,A1EN3FW93BSXQQ,3X52SWXE10LAELCT6ESTJVPQIDRWCT,3WJEQKOXACIW6OXMFECJ9U5VG9F1AC,5,6
230,1,object_02,object_01,413.5,1,1,373.5,0.0,1,object_10,1,3716,0,0,9,desert_7,2,memory-2step-stake-s,719,3375750,0.0-19.0-0.1-0.230,A1EN3FW93BSXQQ,3X52SWXE10LAELCT6ESTJVPQIDRWCT,3WJEQKOXACIW6OXMFECJ9U5VG9F1AC,1,2
231,3,object_04,object_05,414.0,5,2,488.90000000596,0.2222222222222222,1,object_10,1,3718,0,2,8,library_5,2,memory-2step-stake-s,720,3383678,0.0-19.0-0.1-0.231,A1EN3FW93BSXQQ,3X52SWXE10LAELCT6ESTJVPQIDRWCT,3WJEQKOXACIW6OXMFECJ9U5VG9F1AC,6,5
232,2,object_06,object_03,477.70000001788,3,2,428.30000001192,0.3333333333333333,1,object_10,5,3733,0,3,6,forest_3,2,memory-2step-stake-s,721,3391655,0.0-19.0-0.1-0.232,A1EN3FW93BSXQQ,3X52SWXE10LAELCT6ESTJVPQIDRWCT,3WJEQKOXACIW6OXMFECJ9U5VG9F1AC,4,3
233,1,object_02,object_01,653.40000000596,2,2,493.19999998808,1.0,2,object_08,5,3778,0,4,9,desert_5,2,memory-2step-stake-s,722,3400322,0.0-19.0-0.1-0.233,A1EN3FW93BSXQQ,3X52SWXE10LAELCT6ESTJVPQIDRWCT,3WJEQKOXACIW6OXMFECJ9U5VG9F1AC,1,2
234,2,object_03,object_06,546.59999999404,4,2,340.30000001192,0.8888888888888888,2,object_08,5,3818,0,3,8,forest_3,2,memory-2step-stake-s,723,3408726,0.0-19.0-0.1-0.234,A1EN3FW93BSXQQ,3X52SWXE10LAELCT6ESTJVPQIDRWCT,3WJEQKOXACIW6OXMFECJ9U5VG9F1AC,3,4
235,2,object_06,object_03,481.29999998212,3,2,369.30000001192,0.5555555555555556,1,object_10,5,3843,0,5,9,forest_5,2,memory-2step-stake-s,724,3416854,0.0-19.0-0.1-0.235,A1EN3FW93BSXQQ,3X52SWXE10LAELCT6ESTJVPQIDRWCT,3WJEQKOXACIW6OXMFECJ9U5VG9F1AC,4,3
236,3,object_05,object_04,562.30000001192,6,2,435.19999998808,0.8888888888888888,2,object_08,5,3883,0,5,8,library_8,2,memory-2step-stake-s,725,3425358,0.0-19.0-0.1-0.236,A1EN3FW93BSXQQ,3X52SWXE10LAELCT6ESTJVPQIDRWCT,3WJEQKOXACIW6OXMFECJ9U5VG9F1AC,5,6
237,3,object_05,object_04,423.39999997616,6,2,394.40000000596,0.6666666666666666,2,object_08,1,3889,0,5,6,library_1,2,memory-2step-stake-s,726,3433614,0.0-19.0-0.1-0.237,A1EN3FW93BSXQQ,3X52SWXE10LAELCT6ESTJVPQIDRWCT,3WJEQKOXACIW6OXMFECJ9U5VG9F1AC,5,6
238,2,object_03,object_06,541.5,3,1,566.79999998212,0.3333333333333333,1,object_10,1,3892,0,3,0,forest_3,2,memory-2step-stake-s,727,3441728,0.0-19.0-0.1-0.238,A1EN3FW93BSXQQ,3X52SWXE10LAELCT6ESTJVPQIDRWCT,3WJEQKOXACIW6OXMFECJ9U5VG9F1AC,3,4
239,2,object_03,object_06,442.10000002384,4,2,386.90000000596,0.1111111111111111,2,object_08,5,3897,0,5,1,forest_7,2,memory-2step-stake-s,728,3449454,0.0-19.0-0.1-0.239,A1EN3FW93BSXQQ,3X52SWXE10LAELCT6ESTJVPQIDRWCT,3WJEQKOXACIW6OXMFECJ9U5VG9F1AC,3,4
240,4,object_07,object_09,645.29999998212,8,2,390.5,0.0,2,object_08,5,3897,0,3,0,restaurant_4,2,memory-2step-stake-s,729,3457077,0.0-19.0-0.1-0.240,A1EN3FW93BSXQQ,3X52SWXE10LAELCT6ESTJVPQIDRWCT,3WJEQKOXACIW6OXMFECJ9U5VG9F1AC,7,8
241,4,object_07,object_09,345.09999999404,8,2,954.0,0.3333333333333333,2,object_08,5,3912,0,2,3,restaurant_2,2,memory-2step-stake-s,730,3465574,0.0-19.0-0.1-0.241,A1EN3FW93BSXQQ,3X52SWXE10LAELCT6ESTJVPQIDRWCT,3WJEQKOXACIW6OXMFECJ9U5VG9F1AC,7,8
242,4,object_09,object_07,420.30000001192,7,2,428.80000001192,0.5555555555555556,1,object_10,5,3937,0,5,1,restaurant_3,2,memory-2step-stake-s,731,3473765,0.0-19.0-0.1-0.242,A1EN3FW93BSXQQ,3X52SWXE10LAELCT6ESTJVPQIDRWCT,3WJEQKOXACIW6OXMFECJ9U5VG9F1AC,8,7
243,4,object_07,object_09,532.69999998808,8,2,403.20000001788,0.2222222222222222,2,object_08,1,3939,0,3,2,restaurant_1,2,memory-2step-stake-s,732,3481614,0.0-19.0-0.1-0.243,A1EN3FW93BSXQQ,3X52SWXE10LAELCT6ESTJVPQIDRWCT,3WJEQKOXACIW6OXMFECJ9U5VG9F1AC,7,8
244,3,object_04,object_05,493.79999998212,5,2,598.19999998808,0.5555555555555556,1,object_10,1,3944,0,5,4,library_1,2,memory-2step-stake-s,733,3489966,0.0-19.0-0.1-0.244,A1EN3FW93BSXQQ,3X52SWXE10LAELCT6ESTJVPQIDRWCT,3WJEQKOXACIW6OXMFECJ9U5VG9F1AC,6,5
245,2,object_06,object_03,427.0,4,1,442.59999999404,0.5555555555555556,2,object_08,5,3969,0,7,5,forest_4,2,memory-2step-stake-s,734,3498168,0.0-19.0-0.1-0.245,A1EN3FW93BSXQQ,3X52SWXE10LAELCT6ESTJVPQIDRWCT,3WJEQKOXACIW6OXMFECJ9U5VG9F1AC,4,3
246,4,object_09,object_07,940.19999998808,7,2,-1.0,0.0,1,object_10,1,3969,0,7,4,restaurant_3,2,memory-2step-stake-s,735,3506704,0.0-19.0-0.1-0.246,A1EN3FW93BSXQQ,3X52SWXE10LAELCT6ESTJVPQIDRWCT,3WJEQKOXACIW6OXMFECJ9U5VG9F1AC,8,7
247,2,object_03,object_06,381.90000000596,4,2,565.30000001192,0.3333333333333333,2,object_08,1,3972,0,5,3,forest_7,2,memory-2step-stake-s,736,3514817,0.0-19.0-0.1-0.247,A1EN3FW93BSXQQ,3X52SWXE10LAELCT6ESTJVPQIDRWCT,3WJEQKOXACIW6OXMFECJ9U5VG9F1AC,3,4
248,4,object_07,object_09,537.69999998808,7,1,289.40000000596,0.2222222222222222,1,object_10,5,3982,0,2,5,restaurant_4,2,memory-2step-stake-s,737,3522549,0.0-19.0-0.1-0.248,A1EN3FW93BSXQQ,3X52SWXE10LAELCT6ESTJVPQIDRWCT,3WJEQKOXACIW6OXMFECJ9U5VG9F1AC,7,8
249,2,object_03,object_06,321.79999998212,4,2,361.79999998212,0.4444444444444444,2,object_08,1,3986,0,1,4,forest_3,2,memory-2step-stake-s,738,3530560,0.0-19.0-0.1-0.249,A1EN3FW93BSXQQ,3X52SWXE10LAELCT6ESTJVPQIDRWCT,3WJEQKOXACIW6OXMFECJ9U5VG9F1AC,3,4
250,2,object_06,object_03,353.40000000596,4,1,407.5,0.3333333333333333,2,object_08,5,4001,0,1,3,forest_5,2,memory-2step-stake-s,739,3538519,0.0-19.0-0.1-0.250,A1EN3FW93BSXQQ,3X52SWXE10LAELCT6ESTJVPQIDRWCT,3WJEQKOXACIW6OXMFECJ9U5VG9F1AC,4,3
251,4,object_07,object_09,353.30000001192,8,2,354.40000000596,0.6666666666666666,2,object_08,1,4007,0,1,6,restaurant_4,2,memory-2step-stake-s,740,3546733,0.0-19.0-0.1-0.251,A1EN3FW93BSXQQ,3X52SWXE10LAELCT6ESTJVPQIDRWCT,3WJEQKOXACIW6OXMFECJ9U5VG9F1AC,7,8
252,3,object_04,object_05,539.59999999404,5,2,443.40000000596,0.0,1,object_10,1,4007,0,0,2,library_1,2,memory-2step-stake-s,741,3554412,0.0-19.0-0.1-0.252,A1EN3FW93BSXQQ,3X52SWXE10LAELCT6ESTJVPQIDRWCT,3WJEQKOXACIW6OXMFECJ9U5VG9F1AC,6,5
253,1,object_01,object_02,301.5,2,1,861.30000001192,0.2222222222222222,2,object_08,5,4017,0,1,2,desert_2,2,memory-2step-stake-s,742,3562719,0.0-19.0-0.1-0.253,A1EN3FW93BSXQQ,3X52SWXE10LAELCT6ESTJVPQIDRWCT,3WJEQKOXACIW6OXMFECJ9U5VG9F1AC,2,1
254,2,object_06,object_03,423.5,3,2,553.80000001192,0.1111111111111111,1,object_10,5,4022,0,1,4,forest_7,2,memory-2step-stake-s,743,3570615,0.0-19.0-0.1-0.254,A1EN3FW93BSXQQ,3X52SWXE10LAELCT6ESTJVPQIDRWCT,3WJEQKOXACIW6OXMFECJ9U5VG9F1AC,4,3
255,4,object_07,object_09,609.29999998212,7,1,-1.0,0.0,1,object_10,1,4022,0,2,4,restaurant_3,2,memory-2step-stake-s,744,3579147,0.0-19.0-0.1-0.255,A1EN3FW93BSXQQ,3X52SWXE10LAELCT6ESTJVPQIDRWCT,3WJEQKOXACIW6OXMFECJ9U5VG9F1AC,7,8
