,state1,stim_left,stim_right,rt_1,choice1,response1,rt_2,points,state2,stim_state2,stake,score,practice,rews1,rews2,background,high_arm,trial_type,trial_index,time_elapsed,internal_node_id,subid,hitid,assignmentid,stim_left_num,stim_right_num
0,1,object_01,object_08,871.79999999702,2,1,1249.5,0.7777777777777778,2,object_06,1,7,0,1,7,desert_7,1,memory-2step-stake-s,497,1626287,0.0-19.0-0.0-0.0,ASNMT3I94HZ44,3X4Q1O9UCK2WXV8VOBT8MFKQE0B7O9,3A1PQ49WVLXBGB50LKMBQGSZT62H14,2,1
1,2,object_09,object_02,659.79999999702,4,2,585.5,0.8888888888888888,2,object_06,1,15,0,1,8,forest_4,1,memory-2step-stake-s,498,1634955,0.0-19.0-0.0-0.1,ASNMT3I94HZ44,3X4Q1O9UCK2WXV8VOBT8MFKQE0B7O9,3A1PQ49WVLXBGB50LKMBQGSZT62H14,3,4
2,2,object_02,object_09,740.90000000596,3,2,857.79999999702,0.1111111111111111,1,object_07,1,16,0,1,9,forest_6,1,memory-2step-stake-s,499,1643171,0.0-19.0-0.0-0.2,ASNMT3I94HZ44,3X4Q1O9UCK2WXV8VOBT8MFKQE0B7O9,3A1PQ49WVLXBGB50LKMBQGSZT62H14,4,3
3,1,object_08,object_01,709.5,2,2,595.79999999702,1.0,2,object_06,1,25,0,3,9,desert_8,1,memory-2step-stake-s,500,1651946,0.0-19.0-0.0-0.3,ASNMT3I94HZ44,3X4Q1O9UCK2WXV8VOBT8MFKQE0B7O9,3A1PQ49WVLXBGB50LKMBQGSZT62H14,1,2
4,2,object_02,object_09,1134.5,3,2,524.89999999106,0.3333333333333333,1,object_07,5,40,0,3,8,forest_6,1,memory-2step-stake-s,501,1660035,0.0-19.0-0.0-0.4,ASNMT3I94HZ44,3X4Q1O9UCK2WXV8VOBT8MFKQE0B7O9,3A1PQ49WVLXBGB50LKMBQGSZT62H14,4,3
5,3,object_05,object_10,881.20000000298,5,1,533.0,0.5555555555555556,1,object_07,5,65,0,5,6,library_1,1,memory-2step-stake-s,502,1668344,0.0-19.0-0.0-0.5,ASNMT3I94HZ44,3X4Q1O9UCK2WXV8VOBT8MFKQE0B7O9,3A1PQ49WVLXBGB50LKMBQGSZT62H14,5,6
6,3,object_05,object_10,1129.200000003,6,2,487.60000000894,0.5555555555555556,2,object_06,5,90,0,0,5,library_7,1,memory-2step-stake-s,503,1676601,0.0-19.0-0.0-0.6,ASNMT3I94HZ44,3X4Q1O9UCK2WXV8VOBT8MFKQE0B7O9,3A1PQ49WVLXBGB50LKMBQGSZT62H14,5,6
7,2,object_02,object_09,822.29999999702,3,2,646.40000000596,0.0,1,object_07,1,90,0,0,8,forest_8,1,memory-2step-stake-s,504,1684492,0.0-19.0-0.0-0.7,ASNMT3I94HZ44,3X4Q1O9UCK2WXV8VOBT8MFKQE0B7O9,3A1PQ49WVLXBGB50LKMBQGSZT62H14,4,3
8,3,object_10,object_05,551.20000000298,6,1,429.79999999702,1.0,2,object_06,5,135,0,5,9,library_1,1,memory-2step-stake-s,505,1693097,0.0-19.0-0.0-0.8,ASNMT3I94HZ44,3X4Q1O9UCK2WXV8VOBT8MFKQE0B7O9,3A1PQ49WVLXBGB50LKMBQGSZT62H14,6,5
9,3,object_05,object_10,497.40000000596,6,2,669.70000000298,0.7777777777777778,2,object_06,5,170,0,4,7,library_1,1,memory-2step-stake-s,506,1701751,0.0-19.0-0.0-0.9,ASNMT3I94HZ44,3X4Q1O9UCK2WXV8VOBT8MFKQE0B7O9,3A1PQ49WVLXBGB50LKMBQGSZT62H14,5,6
10,1,object_08,object_01,780.70000000298,2,2,446.29999999702,1.0,2,object_06,1,179,0,3,9,desert_3,1,memory-2step-stake-s,507,1710388,0.0-19.0-0.0-0.10,ASNMT3I94HZ44,3X4Q1O9UCK2WXV8VOBT8MFKQE0B7O9,3A1PQ49WVLXBGB50LKMBQGSZT62H14,1,2
11,1,object_01,object_08,510.89999999106,2,1,160.79999999702,0.8888888888888888,2,object_06,1,187,0,3,8,desert_7,1,memory-2step-stake-s,508,1718626,0.0-19.0-0.0-0.11,ASNMT3I94HZ44,3X4Q1O9UCK2WXV8VOBT8MFKQE0B7O9,3A1PQ49WVLXBGB50LKMBQGSZT62H14,2,1
12,4,object_04,object_03,431.89999999106,8,2,571.70000000298,0.6666666666666666,2,object_06,1,193,0,1,6,restaurant_5,1,memory-2step-stake-s,509,1727055,0.0-19.0-0.0-0.12,ASNMT3I94HZ44,3X4Q1O9UCK2WXV8VOBT8MFKQE0B7O9,3A1PQ49WVLXBGB50LKMBQGSZT62H14,7,8
13,1,object_08,object_01,545.10000000894,1,1,510.40000000596,0.0,1,object_07,1,193,0,0,7,desert_8,1,memory-2step-stake-s,510,1734801,0.0-19.0-0.0-0.13,ASNMT3I94HZ44,3X4Q1O9UCK2WXV8VOBT8MFKQE0B7O9,3A1PQ49WVLXBGB50LKMBQGSZT62H14,1,2
14,4,object_04,object_03,398.29999999702,8,2,513.5,0.3333333333333333,2,object_06,5,208,0,1,3,restaurant_3,1,memory-2step-stake-s,511,1742857,0.0-19.0-0.0-0.14,ASNMT3I94HZ44,3X4Q1O9UCK2WXV8VOBT8MFKQE0B7O9,3A1PQ49WVLXBGB50LKMBQGSZT62H14,7,8
15,2,object_02,object_09,838.69999998808,4,1,409.70000000298,0.2222222222222222,2,object_06,1,210,0,0,2,forest_8,1,memory-2step-stake-s,512,1750715,0.0-19.0-0.0-0.15,ASNMT3I94HZ44,3X4Q1O9UCK2WXV8VOBT8MFKQE0B7O9,3A1PQ49WVLXBGB50LKMBQGSZT62H14,4,3
16,3,object_05,object_10,558.60000000894,5,1,679.20000000298,0.1111111111111111,1,object_07,5,215,0,1,3,library_1,1,memory-2step-stake-s,513,1758748,0.0-19.0-0.0-0.16,ASNMT3I94HZ44,3X4Q1O9UCK2WXV8VOBT8MFKQE0B7O9,3A1PQ49WVLXBGB50LKMBQGSZT62H14,5,6
17,2,object_02,object_09,462.19999998808,3,2,853.20000000298,0.0,1,object_07,1,215,0,0,4,forest_4,1,memory-2step-stake-s,514,1766844,0.0-19.0-0.0-0.17,ASNMT3I94HZ44,3X4Q1O9UCK2WXV8VOBT8MFKQE0B7O9,3A1PQ49WVLXBGB50LKMBQGSZT62H14,4,3
18,2,object_02,object_09,636.90000000596,4,1,669.60000000894,0.4444444444444444,2,object_06,1,219,0,3,4,forest_6,1,memory-2step-stake-s,515,1775172,0.0-19.0-0.0-0.18,ASNMT3I94HZ44,3X4Q1O9UCK2WXV8VOBT8MFKQE0B7O9,3A1PQ49WVLXBGB50LKMBQGSZT62H14,4,3
19,4,object_03,object_04,556.29999999702,8,1,619.70000000298,0.5555555555555556,2,object_06,1,224,0,4,5,restaurant_3,1,memory-2step-stake-s,516,1783548,0.0-19.0-0.0-0.19,ASNMT3I94HZ44,3X4Q1O9UCK2WXV8VOBT8MFKQE0B7O9,3A1PQ49WVLXBGB50LKMBQGSZT62H14,8,7
20,4,object_03,object_04,893.40000000596,8,1,700.20000000298,0.4444444444444444,2,object_06,5,244,0,7,4,restaurant_4,1,memory-2step-stake-s,517,1791899,0.0-19.0-0.0-0.20,ASNMT3I94HZ44,3X4Q1O9UCK2WXV8VOBT8MFKQE0B7O9,3A1PQ49WVLXBGB50LKMBQGSZT62H14,8,7
21,1,object_08,object_01,1139.599999994,2,2,392.09999999404,0.4444444444444444,2,object_06,1,248,0,9,4,desert_3,1,memory-2step-stake-s,518,1799948,0.0-19.0-0.0-0.21,ASNMT3I94HZ44,3X4Q1O9UCK2WXV8VOBT8MFKQE0B7O9,3A1PQ49WVLXBGB50LKMBQGSZT62H14,1,2
22,4,object_04,object_03,772.19999998808,8,2,471.59999999404,0.6666666666666666,2,object_06,5,278,0,8,6,restaurant_3,1,memory-2step-stake-s,519,1808296,0.0-19.0-0.0-0.22,ASNMT3I94HZ44,3X4Q1O9UCK2WXV8VOBT8MFKQE0B7O9,3A1PQ49WVLXBGB50LKMBQGSZT62H14,7,8
23,3,object_05,object_10,528.0,5,1,540.80000001192,0.8888888888888888,1,object_07,5,318,0,8,6,library_1,1,memory-2step-stake-s,520,1816904,0.0-19.0-0.0-0.23,ASNMT3I94HZ44,3X4Q1O9UCK2WXV8VOBT8MFKQE0B7O9,3A1PQ49WVLXBGB50LKMBQGSZT62H14,5,6
24,2,object_09,object_02,787.90000000596,3,1,592.5,0.6666666666666666,1,object_07,5,348,0,6,4,forest_3,1,memory-2step-stake-s,521,1825367,0.0-19.0-0.0-0.24,ASNMT3I94HZ44,3X4Q1O9UCK2WXV8VOBT8MFKQE0B7O9,3A1PQ49WVLXBGB50LKMBQGSZT62H14,3,4
25,4,object_04,object_03,561.0,8,2,529.29999999702,0.4444444444444444,2,object_06,5,368,0,8,4,restaurant_8,1,memory-2step-stake-s,522,1833564,0.0-19.0-0.0-0.25,ASNMT3I94HZ44,3X4Q1O9UCK2WXV8VOBT8MFKQE0B7O9,3A1PQ49WVLXBGB50LKMBQGSZT62H14,7,8
26,2,object_09,object_02,629.5,4,2,426.90000000596,0.5555555555555556,2,object_06,5,393,0,7,5,forest_8,1,memory-2step-stake-s,523,1841765,0.0-19.0-0.0-0.26,ASNMT3I94HZ44,3X4Q1O9UCK2WXV8VOBT8MFKQE0B7O9,3A1PQ49WVLXBGB50LKMBQGSZT62H14,3,4
27,3,object_05,object_10,613.20000000298,5,1,758.20000000298,0.8888888888888888,1,object_07,5,433,0,8,2,library_2,1,memory-2step-stake-s,524,1850593,0.0-19.0-0.0-0.27,ASNMT3I94HZ44,3X4Q1O9UCK2WXV8VOBT8MFKQE0B7O9,3A1PQ49WVLXBGB50LKMBQGSZT62H14,5,6
28,4,object_03,object_04,480.59999999404,7,2,544.09999999404,0.6666666666666666,1,object_07,5,463,0,6,0,restaurant_4,1,memory-2step-stake-s,525,1859020,0.0-19.0-0.0-0.28,ASNMT3I94HZ44,3X4Q1O9UCK2WXV8VOBT8MFKQE0B7O9,3A1PQ49WVLXBGB50LKMBQGSZT62H14,8,7
29,4,object_03,object_04,538.5,7,2,688.5,0.6666666666666666,1,object_07,5,493,0,6,3,restaurant_4,1,memory-2step-stake-s,526,1867587,0.0-19.0-0.0-0.29,ASNMT3I94HZ44,3X4Q1O9UCK2WXV8VOBT8MFKQE0B7O9,3A1PQ49WVLXBGB50LKMBQGSZT62H14,8,7
30,3,object_05,object_10,701.10000000894,6,2,625.39999999106,0.4444444444444444,2,object_06,5,513,0,5,4,library_2,1,memory-2step-stake-s,527,1875881,0.0-19.0-0.0-0.30,ASNMT3I94HZ44,3X4Q1O9UCK2WXV8VOBT8MFKQE0B7O9,3A1PQ49WVLXBGB50LKMBQGSZT62H14,5,6
31,2,object_09,object_02,417.59999999404,3,1,433.29999999702,0.0,1,object_07,1,513,0,0,1,forest_3,1,memory-2step-stake-s,528,1883557,0.0-19.0-0.0-0.31,ASNMT3I94HZ44,3X4Q1O9UCK2WXV8VOBT8MFKQE0B7O9,3A1PQ49WVLXBGB50LKMBQGSZT62H14,3,4
32,1,object_08,object_01,518.0,1,1,419.79999999702,0.1111111111111111,1,object_07,1,514,0,1,0,desert_3,1,memory-2step-stake-s,529,1891319,0.0-19.0-0.0-0.32,ASNMT3I94HZ44,3X4Q1O9UCK2WXV8VOBT8MFKQE0B7O9,3A1PQ49WVLXBGB50LKMBQGSZT62H14,1,2
33,1,object_08,object_01,526.20000000298,2,2,564.90000000596,0.4444444444444444,2,object_06,1,518,0,1,4,desert_3,1,memory-2step-stake-s,530,1899547,0.0-19.0-0.0-0.33,ASNMT3I94HZ44,3X4Q1O9UCK2WXV8VOBT8MFKQE0B7O9,3A1PQ49WVLXBGB50LKMBQGSZT62H14,1,2
34,4,object_03,object_04,421.29999999702,8,1,434.40000000596,0.7777777777777778,2,object_06,5,553,0,1,7,restaurant_8,1,memory-2step-stake-s,531,1907960,0.0-19.0-0.0-0.34,ASNMT3I94HZ44,3X4Q1O9UCK2WXV8VOBT8MFKQE0B7O9,3A1PQ49WVLXBGB50LKMBQGSZT62H14,8,7
35,1,object_08,object_01,436.20000000298,2,2,364.60000000894,0.8888888888888888,2,object_06,1,561,0,3,8,desert_7,1,memory-2step-stake-s,532,1916405,0.0-19.0-0.0-0.35,ASNMT3I94HZ44,3X4Q1O9UCK2WXV8VOBT8MFKQE0B7O9,3A1PQ49WVLXBGB50LKMBQGSZT62H14,1,2
36,1,object_01,object_08,422.0,1,2,617.5,0.1111111111111111,1,object_07,1,562,0,1,7,desert_6,1,memory-2step-stake-s,533,1924360,0.0-19.0-0.0-0.36,ASNMT3I94HZ44,3X4Q1O9UCK2WXV8VOBT8MFKQE0B7O9,3A1PQ49WVLXBGB50LKMBQGSZT62H14,2,1
37,4,object_03,object_04,774.29999999702,8,1,439.0,0.8888888888888888,2,object_06,5,602,0,3,8,restaurant_5,1,memory-2step-stake-s,534,1932881,0.0-19.0-0.0-0.37,ASNMT3I94HZ44,3X4Q1O9UCK2WXV8VOBT8MFKQE0B7O9,3A1PQ49WVLXBGB50LKMBQGSZT62H14,8,7
38,2,object_02,object_09,926.5,3,2,897.59999999404,0.6666666666666666,1,object_07,5,632,0,6,5,forest_6,1,memory-2step-stake-s,535,1941641,0.0-19.0-0.0-0.38,ASNMT3I94HZ44,3X4Q1O9UCK2WXV8VOBT8MFKQE0B7O9,3A1PQ49WVLXBGB50LKMBQGSZT62H14,4,3
39,4,object_03,object_04,626.79999999702,8,1,121.0,0.7777777777777778,2,object_06,5,667,0,7,7,restaurant_4,1,memory-2step-stake-s,536,1949732,0.0-19.0-0.0-0.39,ASNMT3I94HZ44,3X4Q1O9UCK2WXV8VOBT8MFKQE0B7O9,3A1PQ49WVLXBGB50LKMBQGSZT62H14,8,7
40,2,object_02,object_09,665.60000000894,3,2,528.70000000298,0.8888888888888888,1,object_07,1,675,0,8,6,forest_3,1,memory-2step-stake-s,537,1958341,0.0-19.0-0.0-0.40,ASNMT3I94HZ44,3X4Q1O9UCK2WXV8VOBT8MFKQE0B7O9,3A1PQ49WVLXBGB50LKMBQGSZT62H14,4,3
41,4,object_03,object_04,537.40000000596,8,1,738.40000000596,0.7777777777777778,2,object_06,5,710,0,8,7,restaurant_8,1,memory-2step-stake-s,538,1967038,0.0-19.0-0.0-0.41,ASNMT3I94HZ44,3X4Q1O9UCK2WXV8VOBT8MFKQE0B7O9,3A1PQ49WVLXBGB50LKMBQGSZT62H14,8,7
42,2,object_09,object_02,706.30000001192,3,1,472.20000000298,1.0,1,object_07,1,719,0,9,7,forest_8,1,memory-2step-stake-s,539,1975685,0.0-19.0-0.0-0.42,ASNMT3I94HZ44,3X4Q1O9UCK2WXV8VOBT8MFKQE0B7O9,3A1PQ49WVLXBGB50LKMBQGSZT62H14,3,4
43,3,object_10,object_05,396.39999999106,6,1,444.5,0.7777777777777778,2,object_06,1,726,0,5,7,library_1,1,memory-2step-stake-s,540,1984102,0.0-19.0-0.0-0.43,ASNMT3I94HZ44,3X4Q1O9UCK2WXV8VOBT8MFKQE0B7O9,3A1PQ49WVLXBGB50LKMBQGSZT62H14,6,5
44,2,object_09,object_02,512.70000000298,4,2,492.90000000596,0.7777777777777778,2,object_06,1,733,0,6,7,forest_4,1,memory-2step-stake-s,541,1992568,0.0-19.0-0.0-0.44,ASNMT3I94HZ44,3X4Q1O9UCK2WXV8VOBT8MFKQE0B7O9,3A1PQ49WVLXBGB50LKMBQGSZT62H14,3,4
45,4,object_04,object_03,573.29999999702,7,1,470.20000000298,0.3333333333333333,1,object_07,5,748,0,3,6,restaurant_8,1,memory-2step-stake-s,542,2000586,0.0-19.0-0.0-0.45,ASNMT3I94HZ44,3X4Q1O9UCK2WXV8VOBT8MFKQE0B7O9,3A1PQ49WVLXBGB50LKMBQGSZT62H14,7,8
46,4,object_03,object_04,602.90000000596,8,1,470.59999999404,0.2222222222222222,2,object_06,5,758,0,3,2,restaurant_4,1,memory-2step-stake-s,543,2008500,0.0-19.0-0.0-0.46,ASNMT3I94HZ44,3X4Q1O9UCK2WXV8VOBT8MFKQE0B7O9,3A1PQ49WVLXBGB50LKMBQGSZT62H14,8,7
47,3,object_10,object_05,533.90000000596,6,1,917.59999999404,0.1111111111111111,2,object_06,5,763,0,3,1,library_3,1,memory-2step-stake-s,544,2016756,0.0-19.0-0.0-0.47,ASNMT3I94HZ44,3X4Q1O9UCK2WXV8VOBT8MFKQE0B7O9,3A1PQ49WVLXBGB50LKMBQGSZT62H14,6,5
48,4,object_04,object_03,544.70000000298,8,2,487.70000000298,0.2222222222222222,2,object_06,5,773,0,2,2,restaurant_3,1,memory-2step-stake-s,545,2024688,0.0-19.0-0.0-0.48,ASNMT3I94HZ44,3X4Q1O9UCK2WXV8VOBT8MFKQE0B7O9,3A1PQ49WVLXBGB50LKMBQGSZT62H14,7,8
49,3,object_10,object_05,522.19999998808,5,2,409.59999999404,0.2222222222222222,1,object_07,5,783,0,2,1,library_2,1,memory-2step-stake-s,546,2032549,0.0-19.0-0.0-0.49,ASNMT3I94HZ44,3X4Q1O9UCK2WXV8VOBT8MFKQE0B7O9,3A1PQ49WVLXBGB50LKMBQGSZT62H14,6,5
50,3,object_05,object_10,525.40000000596,5,1,437.70000000298,0.2222222222222222,1,object_07,5,793,0,2,1,library_7,1,memory-2step-stake-s,547,2040434,0.0-19.0-0.0-0.50,ASNMT3I94HZ44,3X4Q1O9UCK2WXV8VOBT8MFKQE0B7O9,3A1PQ49WVLXBGB50LKMBQGSZT62H14,5,6
51,4,object_03,object_04,854.29999999702,7,2,836.19999998808,0.1111111111111111,1,object_07,5,798,0,1,1,restaurant_8,1,memory-2step-stake-s,548,2048607,0.0-19.0-0.0-0.51,ASNMT3I94HZ44,3X4Q1O9UCK2WXV8VOBT8MFKQE0B7O9,3A1PQ49WVLXBGB50LKMBQGSZT62H14,8,7
52,1,object_01,object_08,601.5,2,1,1335.700000003,0.2222222222222222,2,object_06,1,800,0,1,2,desert_7,1,memory-2step-stake-s,549,2057389,0.0-19.0-0.0-0.52,ASNMT3I94HZ44,3X4Q1O9UCK2WXV8VOBT8MFKQE0B7O9,3A1PQ49WVLXBGB50LKMBQGSZT62H14,2,1
53,1,object_08,object_01,469.39999999106,2,2,61.399999991059,0.0,2,object_06,1,800,0,2,0,desert_8,1,memory-2step-stake-s,550,2064679,0.0-19.0-0.0-0.53,ASNMT3I94HZ44,3X4Q1O9UCK2WXV8VOBT8MFKQE0B7O9,3A1PQ49WVLXBGB50LKMBQGSZT62H14,1,2
54,1,object_08,object_01,409.29999999702,1,1,379.20000000298,0.2222222222222222,1,object_07,1,802,0,2,0,desert_8,1,memory-2step-stake-s,551,2072509,0.0-19.0-0.0-0.54,ASNMT3I94HZ44,3X4Q1O9UCK2WXV8VOBT8MFKQE0B7O9,3A1PQ49WVLXBGB50LKMBQGSZT62H14,1,2
55,3,object_10,object_05,1088.200000003,6,1,951.59999999404,0.0,2,object_06,5,802,0,3,0,library_3,1,memory-2step-stake-s,552,2080699,0.0-19.0-0.0-0.55,ASNMT3I94HZ44,3X4Q1O9UCK2WXV8VOBT8MFKQE0B7O9,3A1PQ49WVLXBGB50LKMBQGSZT62H14,6,5
56,2,object_09,object_02,504.20000000298,4,2,707.10000000894,0.1111111111111111,2,object_06,1,803,0,2,1,forest_3,1,memory-2step-stake-s,553,2088743,0.0-19.0-0.0-0.56,ASNMT3I94HZ44,3X4Q1O9UCK2WXV8VOBT8MFKQE0B7O9,3A1PQ49WVLXBGB50LKMBQGSZT62H14,3,4
57,2,object_09,object_02,474.40000000596,3,1,878.0,0.2222222222222222,1,object_07,5,813,0,2,3,forest_3,1,memory-2step-stake-s,554,2097073,0.0-19.0-0.0-0.57,ASNMT3I94HZ44,3X4Q1O9UCK2WXV8VOBT8MFKQE0B7O9,3A1PQ49WVLXBGB50LKMBQGSZT62H14,3,4
58,3,object_05,object_10,486.0,6,2,605.79999999702,0.3333333333333333,2,object_06,5,828,0,1,3,library_3,1,memory-2step-stake-s,555,2105234,0.0-19.0-0.0-0.58,ASNMT3I94HZ44,3X4Q1O9UCK2WXV8VOBT8MFKQE0B7O9,3A1PQ49WVLXBGB50LKMBQGSZT62H14,5,6
59,2,object_02,object_09,509.40000000596,4,1,457.0,0.3333333333333333,2,object_06,5,843,0,0,3,forest_6,1,memory-2step-stake-s,556,2113234,0.0-19.0-0.0-0.59,ASNMT3I94HZ44,3X4Q1O9UCK2WXV8VOBT8MFKQE0B7O9,3A1PQ49WVLXBGB50LKMBQGSZT62H14,4,3
60,1,object_01,object_08,336.0,1,2,618.20000000298,0.4444444444444444,1,object_07,1,847,0,4,4,desert_8,1,memory-2step-stake-s,557,2121516,0.0-19.0-0.0-0.60,ASNMT3I94HZ44,3X4Q1O9UCK2WXV8VOBT8MFKQE0B7O9,3A1PQ49WVLXBGB50LKMBQGSZT62H14,2,1
61,4,object_03,object_04,701.0,7,2,533.89999999106,0.6666666666666666,1,object_07,5,877,0,6,3,restaurant_4,1,memory-2step-stake-s,558,2129914,0.0-19.0-0.0-0.61,ASNMT3I94HZ44,3X4Q1O9UCK2WXV8VOBT8MFKQE0B7O9,3A1PQ49WVLXBGB50LKMBQGSZT62H14,8,7
62,4,object_04,object_03,438.19999998808,7,1,486.40000000596,1.0,1,object_07,5,922,0,9,5,restaurant_8,1,memory-2step-stake-s,559,2138583,0.0-19.0-0.0-0.62,ASNMT3I94HZ44,3X4Q1O9UCK2WXV8VOBT8MFKQE0B7O9,3A1PQ49WVLXBGB50LKMBQGSZT62H14,7,8
63,3,object_10,object_05,774.70000000298,6,1,771.5,0.8888888888888888,2,object_06,5,962,0,8,8,library_7,1,memory-2step-stake-s,560,2147429,0.0-19.0-0.0-0.63,ASNMT3I94HZ44,3X4Q1O9UCK2WXV8VOBT8MFKQE0B7O9,3A1PQ49WVLXBGB50LKMBQGSZT62H14,6,5
64,3,object_05,object_10,474.70000000298,6,2,438.60000000894,0.5555555555555556,2,object_06,1,967,0,7,5,library_2,1,memory-2step-stake-s,561,2155623,0.0-19.0-0.0-0.64,ASNMT3I94HZ44,3X4Q1O9UCK2WXV8VOBT8MFKQE0B7O9,3A1PQ49WVLXBGB50LKMBQGSZT62H14,5,6
65,1,object_08,object_01,973.29999999702,1,1,505.19999998808,0.8888888888888888,1,object_07,1,975,0,8,6,desert_7,1,memory-2step-stake-s,562,2164197,0.0-19.0-0.0-0.65,ASNMT3I94HZ44,3X4Q1O9UCK2WXV8VOBT8MFKQE0B7O9,3A1PQ49WVLXBGB50LKMBQGSZT62H14,1,2
66,3,object_10,object_05,790.20000000298,5,2,514.59999999404,0.7777777777777778,1,object_07,1,982,0,7,3,library_3,1,memory-2step-stake-s,563,2172677,0.0-19.0-0.0-0.66,ASNMT3I94HZ44,3X4Q1O9UCK2WXV8VOBT8MFKQE0B7O9,3A1PQ49WVLXBGB50LKMBQGSZT62H14,6,5
67,1,object_08,object_01,1167.900000006,2,2,492.10000000894,0.3333333333333333,2,object_06,1,985,0,3,3,desert_6,1,memory-2step-stake-s,564,2180712,0.0-19.0-0.0-0.67,ASNMT3I94HZ44,3X4Q1O9UCK2WXV8VOBT8MFKQE0B7O9,3A1PQ49WVLXBGB50LKMBQGSZT62H14,1,2
68,3,object_05,object_10,433.70000000298,5,1,970.0,0.1111111111111111,1,object_07,5,990,0,1,5,library_7,1,memory-2step-stake-s,565,2189029,0.0-19.0-0.0-0.68,ASNMT3I94HZ44,3X4Q1O9UCK2WXV8VOBT8MFKQE0B7O9,3A1PQ49WVLXBGB50LKMBQGSZT62H14,5,6
69,1,object_08,object_01,1179.6000000089,2,2,1032.200000003,0.6666666666666666,2,object_06,1,996,0,4,6,desert_8,1,memory-2step-stake-s,566,2197909,0.0-19.0-0.0-0.69,ASNMT3I94HZ44,3X4Q1O9UCK2WXV8VOBT8MFKQE0B7O9,3A1PQ49WVLXBGB50LKMBQGSZT62H14,1,2
70,3,object_05,object_10,488.90000000596,5,1,535.0,0.7777777777777778,1,object_07,5,1031,0,7,9,library_7,1,memory-2step-stake-s,567,2206415,0.0-19.0-0.0-0.70,ASNMT3I94HZ44,3X4Q1O9UCK2WXV8VOBT8MFKQE0B7O9,3A1PQ49WVLXBGB50LKMBQGSZT62H14,5,6
71,4,object_03,object_04,392.5,8,1,409.39999999106,0.8888888888888888,2,object_06,1,1039,0,8,8,restaurant_4,1,memory-2step-stake-s,568,2214902,0.0-19.0-0.0-0.71,ASNMT3I94HZ44,3X4Q1O9UCK2WXV8VOBT8MFKQE0B7O9,3A1PQ49WVLXBGB50LKMBQGSZT62H14,8,7
72,1,object_08,object_01,301.79999999702,2,2,416.29999999702,0.7777777777777778,2,object_06,1,1046,0,8,7,desert_6,1,memory-2step-stake-s,569,2223299,0.0-19.0-0.0-0.72,ASNMT3I94HZ44,3X4Q1O9UCK2WXV8VOBT8MFKQE0B7O9,3A1PQ49WVLXBGB50LKMBQGSZT62H14,1,2
73,3,object_10,object_05,389.09999999404,6,1,768.60000000894,1.0,2,object_06,5,1091,0,8,9,library_1,1,memory-2step-stake-s,570,2232228,0.0-19.0-0.0-0.73,ASNMT3I94HZ44,3X4Q1O9UCK2WXV8VOBT8MFKQE0B7O9,3A1PQ49WVLXBGB50LKMBQGSZT62H14,6,5
74,4,object_04,object_03,491.29999999702,7,1,522.40000000596,1.0,1,object_07,5,1136,0,9,8,restaurant_3,1,memory-2step-stake-s,571,2240937,0.0-19.0-0.0-0.74,ASNMT3I94HZ44,3X4Q1O9UCK2WXV8VOBT8MFKQE0B7O9,3A1PQ49WVLXBGB50LKMBQGSZT62H14,7,8
75,2,object_02,object_09,944.60000000894,4,1,-1.0,0.0,2,object_06,1,1136,0,9,8,forest_8,1,memory-2step-stake-s,572,2249476,0.0-19.0-0.0-0.75,ASNMT3I94HZ44,3X4Q1O9UCK2WXV8VOBT8MFKQE0B7O9,3A1PQ49WVLXBGB50LKMBQGSZT62H14,4,3
76,4,object_04,object_03,481.79999999702,7,1,1161.299999997,1.0,1,object_07,1,1145,0,9,8,restaurant_8,1,memory-2step-stake-s,573,2258818,0.0-19.0-0.0-0.76,ASNMT3I94HZ44,3X4Q1O9UCK2WXV8VOBT8MFKQE0B7O9,3A1PQ49WVLXBGB50LKMBQGSZT62H14,7,8
77,1,object_01,object_08,335.09999999404,2,1,761.59999999404,0.6666666666666666,2,object_06,1,1151,0,9,6,desert_6,1,memory-2step-stake-s,574,2267431,0.0-19.0-0.0-0.77,ASNMT3I94HZ44,3X4Q1O9UCK2WXV8VOBT8MFKQE0B7O9,3A1PQ49WVLXBGB50LKMBQGSZT62H14,2,1
78,1,object_08,object_01,910.30000001192,1,1,-1.0,0.0,1,object_07,1,1151,0,6,4,desert_7,1,memory-2step-stake-s,575,2275964,0.0-19.0-0.0-0.78,ASNMT3I94HZ44,3X4Q1O9UCK2WXV8VOBT8MFKQE0B7O9,3A1PQ49WVLXBGB50LKMBQGSZT62H14,1,2
79,2,object_02,object_09,561.5,3,2,457.69999998808,0.8888888888888888,1,object_07,1,1159,0,8,2,forest_4,1,memory-2step-stake-s,576,2284506,0.0-19.0-0.0-0.79,ASNMT3I94HZ44,3X4Q1O9UCK2WXV8VOBT8MFKQE0B7O9,3A1PQ49WVLXBGB50LKMBQGSZT62H14,4,3
80,3,object_05,object_10,291.79999999702,5,1,475.09999999404,0.8888888888888888,1,object_07,5,1199,0,8,0,library_1,1,memory-2step-stake-s,577,2293053,0.0-19.0-0.0-0.80,ASNMT3I94HZ44,3X4Q1O9UCK2WXV8VOBT8MFKQE0B7O9,3A1PQ49WVLXBGB50LKMBQGSZT62H14,5,6
81,1,object_08,object_01,518.40000000596,1,1,544.5,1.0,1,object_07,1,1208,0,9,0,desert_6,1,memory-2step-stake-s,578,2301784,0.0-19.0-0.0-0.81,ASNMT3I94HZ44,3X4Q1O9UCK2WXV8VOBT8MFKQE0B7O9,3A1PQ49WVLXBGB50LKMBQGSZT62H14,1,2
82,3,object_05,object_10,601.5,6,2,723.60000000894,0.0,2,object_06,5,1208,0,6,0,library_2,1,memory-2step-stake-s,579,2309742,0.0-19.0-0.0-0.82,ASNMT3I94HZ44,3X4Q1O9UCK2WXV8VOBT8MFKQE0B7O9,3A1PQ49WVLXBGB50LKMBQGSZT62H14,5,6
83,4,object_03,object_04,296.5,8,1,418.29999999702,0.0,2,object_06,5,1208,0,5,0,restaurant_5,1,memory-2step-stake-s,580,2317398,0.0-19.0-0.0-0.83,ASNMT3I94HZ44,3X4Q1O9UCK2WXV8VOBT8MFKQE0B7O9,3A1PQ49WVLXBGB50LKMBQGSZT62H14,8,7
84,2,object_02,object_09,395.89999999106,3,2,698.79999999702,0.6666666666666666,1,object_07,1,1214,0,6,0,forest_3,1,memory-2step-stake-s,581,2325960,0.0-19.0-0.0-0.84,ASNMT3I94HZ44,3X4Q1O9UCK2WXV8VOBT8MFKQE0B7O9,3A1PQ49WVLXBGB50LKMBQGSZT62H14,4,3
85,4,object_04,object_03,588.79999999702,8,2,794.59999999404,0.0,2,object_06,1,1214,0,5,0,restaurant_5,1,memory-2step-stake-s,582,2333989,0.0-19.0-0.0-0.85,ASNMT3I94HZ44,3X4Q1O9UCK2WXV8VOBT8MFKQE0B7O9,3A1PQ49WVLXBGB50LKMBQGSZT62H14,7,8
86,1,object_01,object_08,391.79999999702,1,2,577.60000000894,0.4444444444444444,1,object_07,1,1218,0,4,3,desert_7,1,memory-2step-stake-s,583,2342210,0.0-19.0-0.0-0.86,ASNMT3I94HZ44,3X4Q1O9UCK2WXV8VOBT8MFKQE0B7O9,3A1PQ49WVLXBGB50LKMBQGSZT62H14,2,1
87,3,object_10,object_05,1111.1999999881,5,2,1047.1000000089,0.2222222222222222,1,object_07,5,1228,0,2,0,library_3,1,memory-2step-stake-s,584,2350698,0.0-19.0-0.0-0.87,ASNMT3I94HZ44,3X4Q1O9UCK2WXV8VOBT8MFKQE0B7O9,3A1PQ49WVLXBGB50LKMBQGSZT62H14,6,5
88,4,object_03,object_04,570.0,7,2,818.0,0.0,1,object_07,5,1228,0,0,1,restaurant_8,1,memory-2step-stake-s,585,2358751,0.0-19.0-0.0-0.88,ASNMT3I94HZ44,3X4Q1O9UCK2WXV8VOBT8MFKQE0B7O9,3A1PQ49WVLXBGB50LKMBQGSZT62H14,8,7
89,4,object_04,object_03,390.70000000298,7,1,428.20000000298,0.2222222222222222,1,object_07,1,1230,0,2,2,restaurant_3,1,memory-2step-stake-s,586,2366625,0.0-19.0-0.0-0.89,ASNMT3I94HZ44,3X4Q1O9UCK2WXV8VOBT8MFKQE0B7O9,3A1PQ49WVLXBGB50LKMBQGSZT62H14,7,8
90,2,object_02,object_09,419.60000000894,3,2,668.40000000596,0.3333333333333333,1,object_07,1,1233,0,3,2,forest_3,1,memory-2step-stake-s,587,2374833,0.0-19.0-0.0-0.90,ASNMT3I94HZ44,3X4Q1O9UCK2WXV8VOBT8MFKQE0B7O9,3A1PQ49WVLXBGB50LKMBQGSZT62H14,4,3
91,4,object_03,object_04,502.40000000596,7,2,405.0,0.6666666666666666,1,object_07,5,1263,0,6,1,restaurant_4,1,memory-2step-stake-s,588,2383106,0.0-19.0-0.0-0.91,ASNMT3I94HZ44,3X4Q1O9UCK2WXV8VOBT8MFKQE0B7O9,3A1PQ49WVLXBGB50LKMBQGSZT62H14,8,7
92,2,object_09,object_02,480.29999999702,4,2,862.10000000894,0.1111111111111111,2,object_06,1,1264,0,3,1,forest_4,1,memory-2step-stake-s,589,2391310,0.0-19.0-0.0-0.92,ASNMT3I94HZ44,3X4Q1O9UCK2WXV8VOBT8MFKQE0B7O9,3A1PQ49WVLXBGB50LKMBQGSZT62H14,3,4
93,3,object_10,object_05,471.60000000894,6,1,463.09999999404,0.1111111111111111,2,object_06,5,1269,0,2,1,library_3,1,memory-2step-stake-s,590,2399109,0.0-19.0-0.0-0.93,ASNMT3I94HZ44,3X4Q1O9UCK2WXV8VOBT8MFKQE0B7O9,3A1PQ49WVLXBGB50LKMBQGSZT62H14,6,5
94,4,object_03,object_04,360.0,7,2,569.59999999404,0.1111111111111111,1,object_07,1,1270,0,1,0,restaurant_5,1,memory-2step-stake-s,591,2407028,0.0-19.0-0.0-0.94,ASNMT3I94HZ44,3X4Q1O9UCK2WXV8VOBT8MFKQE0B7O9,3A1PQ49WVLXBGB50LKMBQGSZT62H14,8,7
95,1,object_08,object_01,707.20000000298,1,1,1048.6000000089,0.0,1,object_07,1,1270,0,0,0,desert_8,1,memory-2step-stake-s,592,2415316,0.0-19.0-0.0-0.95,ASNMT3I94HZ44,3X4Q1O9UCK2WXV8VOBT8MFKQE0B7O9,3A1PQ49WVLXBGB50LKMBQGSZT62H14,1,2
96,3,object_05,object_10,381.5,5,1,-1.0,0.0,1,object_07,5,1270,0,0,3,library_3,1,memory-2step-stake-s,593,2423856,0.0-19.0-0.0-0.96,ASNMT3I94HZ44,3X4Q1O9UCK2WXV8VOBT8MFKQE0B7O9,3A1PQ49WVLXBGB50LKMBQGSZT62H14,5,6
97,4,object_04,object_03,559.20000000298,8,2,378.79999999702,0.1111111111111111,2,object_06,5,1275,0,1,1,restaurant_3,1,memory-2step-stake-s,594,2431583,0.0-19.0-0.0-0.97,ASNMT3I94HZ44,3X4Q1O9UCK2WXV8VOBT8MFKQE0B7O9,3A1PQ49WVLXBGB50LKMBQGSZT62H14,7,8
98,1,object_01,object_08,495.5,1,2,509.20000000298,0.2222222222222222,1,object_07,1,1277,0,2,3,desert_8,1,memory-2step-stake-s,595,2439541,0.0-19.0-0.0-0.98,ASNMT3I94HZ44,3X4Q1O9UCK2WXV8VOBT8MFKQE0B7O9,3A1PQ49WVLXBGB50LKMBQGSZT62H14,2,1
99,1,object_08,object_01,311.30000001192,1,1,492.70000000298,0.1111111111111111,1,object_07,1,1278,0,1,2,desert_3,1,memory-2step-stake-s,596,2447376,0.0-19.0-0.0-0.99,ASNMT3I94HZ44,3X4Q1O9UCK2WXV8VOBT8MFKQE0B7O9,3A1PQ49WVLXBGB50LKMBQGSZT62H14,1,2
100,1,object_08,object_01,408.89999999106,1,1,435.5,0.1111111111111111,1,object_07,5,1283,0,1,0,desert_8,1,memory-2step-stake-s,597,2455154,0.0-19.0-0.0-0.100,ASNMT3I94HZ44,3X4Q1O9UCK2WXV8VOBT8MFKQE0B7O9,3A1PQ49WVLXBGB50LKMBQGSZT62H14,1,2
101,2,object_09,object_02,557.5,4,2,688.09999999404,0.2222222222222222,2,object_06,5,1293,0,2,2,forest_6,1,memory-2step-stake-s,598,2463274,0.0-19.0-0.0-0.101,ASNMT3I94HZ44,3X4Q1O9UCK2WXV8VOBT8MFKQE0B7O9,3A1PQ49WVLXBGB50LKMBQGSZT62H14,3,4
102,2,object_09,object_02,368.90000000596,4,2,1073.700000003,0.4444444444444444,2,object_06,5,1313,0,6,4,forest_8,1,memory-2step-stake-s,599,2471999,0.0-19.0-0.0-0.102,ASNMT3I94HZ44,3X4Q1O9UCK2WXV8VOBT8MFKQE0B7O9,3A1PQ49WVLXBGB50LKMBQGSZT62H14,3,4
103,1,object_01,object_08,340.0,2,1,386.20000000298,0.3333333333333333,2,object_06,1,1316,0,5,3,desert_8,1,memory-2step-stake-s,600,2479937,0.0-19.0-0.0-0.103,ASNMT3I94HZ44,3X4Q1O9UCK2WXV8VOBT8MFKQE0B7O9,3A1PQ49WVLXBGB50LKMBQGSZT62H14,2,1
104,1,object_01,object_08,477.19999998808,1,2,1442.6000000089,0.8888888888888888,1,object_07,1,1324,0,8,3,desert_8,1,memory-2step-stake-s,601,2489459,0.0-19.0-0.0-0.104,ASNMT3I94HZ44,3X4Q1O9UCK2WXV8VOBT8MFKQE0B7O9,3A1PQ49WVLXBGB50LKMBQGSZT62H14,2,1
105,2,object_02,object_09,573.0,3,2,465.5,0.6666666666666666,1,object_07,1,1330,0,6,4,forest_4,1,memory-2step-stake-s,602,2497785,0.0-19.0-0.0-0.105,ASNMT3I94HZ44,3X4Q1O9UCK2WXV8VOBT8MFKQE0B7O9,3A1PQ49WVLXBGB50LKMBQGSZT62H14,4,3
106,1,object_01,object_08,630.0,1,2,1491.3000000119,0.8888888888888888,1,object_07,1,1338,0,8,4,desert_3,1,memory-2step-stake-s,603,2507351,0.0-19.0-0.0-0.106,ASNMT3I94HZ44,3X4Q1O9UCK2WXV8VOBT8MFKQE0B7O9,3A1PQ49WVLXBGB50LKMBQGSZT62H14,2,1
107,3,object_05,object_10,464.29999999702,6,2,461.39999999106,0.3333333333333333,2,object_06,5,1353,0,5,3,library_2,1,memory-2step-stake-s,604,2515356,0.0-19.0-0.0-0.107,ASNMT3I94HZ44,3X4Q1O9UCK2WXV8VOBT8MFKQE0B7O9,3A1PQ49WVLXBGB50LKMBQGSZT62H14,5,6
108,2,object_09,object_02,1470.799999997,4,2,839.20000000298,0.4444444444444444,2,object_06,1,1357,0,6,4,forest_8,1,memory-2step-stake-s,605,2523850,0.0-19.0-0.0-0.108,ASNMT3I94HZ44,3X4Q1O9UCK2WXV8VOBT8MFKQE0B7O9,3A1PQ49WVLXBGB50LKMBQGSZT62H14,3,4
109,3,object_10,object_05,458.70000000298,6,1,878.59999999404,0.7777777777777778,2,object_06,5,1392,0,3,7,library_3,1,memory-2step-stake-s,606,2532709,0.0-19.0-0.0-0.109,ASNMT3I94HZ44,3X4Q1O9UCK2WXV8VOBT8MFKQE0B7O9,3A1PQ49WVLXBGB50LKMBQGSZT62H14,6,5
110,2,object_02,object_09,306.89999999106,3,2,448.29999999702,0.4444444444444444,1,object_07,1,1396,0,4,9,forest_3,1,memory-2step-stake-s,607,2540807,0.0-19.0-0.0-0.110,ASNMT3I94HZ44,3X4Q1O9UCK2WXV8VOBT8MFKQE0B7O9,3A1PQ49WVLXBGB50LKMBQGSZT62H14,4,3
111,4,object_03,object_04,802.70000000298,8,1,577.60000000894,0.8888888888888888,2,object_06,5,1436,0,1,8,restaurant_3,1,memory-2step-stake-s,608,2549468,0.0-19.0-0.0-0.111,ASNMT3I94HZ44,3X4Q1O9UCK2WXV8VOBT8MFKQE0B7O9,3A1PQ49WVLXBGB50LKMBQGSZT62H14,8,7
112,2,object_02,object_09,470.30000001192,4,1,454.79999999702,0.7777777777777778,2,object_06,1,1443,0,0,7,forest_6,1,memory-2step-stake-s,609,2557872,0.0-19.0-0.0-0.112,ASNMT3I94HZ44,3X4Q1O9UCK2WXV8VOBT8MFKQE0B7O9,3A1PQ49WVLXBGB50LKMBQGSZT62H14,4,3
113,1,object_08,object_01,393.89999999106,1,1,535.20000000298,0.1111111111111111,1,object_07,1,1444,0,1,6,desert_6,1,memory-2step-stake-s,610,2565745,0.0-19.0-0.0-0.113,ASNMT3I94HZ44,3X4Q1O9UCK2WXV8VOBT8MFKQE0B7O9,3A1PQ49WVLXBGB50LKMBQGSZT62H14,1,2
114,1,object_08,object_01,297.5,2,2,439.5,0.4444444444444444,2,object_06,1,1448,0,3,4,desert_8,1,memory-2step-stake-s,611,2573844,0.0-19.0-0.0-0.114,ASNMT3I94HZ44,3X4Q1O9UCK2WXV8VOBT8MFKQE0B7O9,3A1PQ49WVLXBGB50LKMBQGSZT62H14,1,2
115,4,object_04,object_03,428.10000000894,8,2,272.79999999702,0.4444444444444444,2,object_06,5,1468,0,2,4,restaurant_5,1,memory-2step-stake-s,612,2581775,0.0-19.0-0.0-0.115,ASNMT3I94HZ44,3X4Q1O9UCK2WXV8VOBT8MFKQE0B7O9,3A1PQ49WVLXBGB50LKMBQGSZT62H14,7,8
116,1,object_08,object_01,381.09999999404,2,2,253.79999999702,0.7777777777777778,2,object_06,1,1475,0,3,7,desert_6,1,memory-2step-stake-s,613,2590009,0.0-19.0-0.0-0.116,ASNMT3I94HZ44,3X4Q1O9UCK2WXV8VOBT8MFKQE0B7O9,3A1PQ49WVLXBGB50LKMBQGSZT62H14,1,2
117,2,object_02,object_09,353.20000000298,4,1,463.60000000894,0.8888888888888888,2,object_06,1,1483,0,4,8,forest_6,1,memory-2step-stake-s,614,2598553,0.0-19.0-0.0-0.117,ASNMT3I94HZ44,3X4Q1O9UCK2WXV8VOBT8MFKQE0B7O9,3A1PQ49WVLXBGB50LKMBQGSZT62H14,4,3
118,2,object_09,object_02,450.60000000894,4,2,750.40000000596,0.7777777777777778,2,object_06,1,1490,0,5,7,forest_6,1,memory-2step-stake-s,615,2607277,0.0-19.0-0.0-0.118,ASNMT3I94HZ44,3X4Q1O9UCK2WXV8VOBT8MFKQE0B7O9,3A1PQ49WVLXBGB50LKMBQGSZT62H14,3,4
119,4,object_03,object_04,375.90000000596,7,2,515.79999999702,0.8888888888888888,1,object_07,5,1530,0,8,7,restaurant_3,1,memory-2step-stake-s,616,2615869,0.0-19.0-0.0-0.119,ASNMT3I94HZ44,3X4Q1O9UCK2WXV8VOBT8MFKQE0B7O9,3A1PQ49WVLXBGB50LKMBQGSZT62H14,8,7
120,2,object_02,object_09,679.0,3,2,680.20000000298,0.5555555555555556,1,object_07,1,1535,0,5,5,forest_3,1,memory-2step-stake-s,617,2624313,0.0-19.0-0.0-0.120,ASNMT3I94HZ44,3X4Q1O9UCK2WXV8VOBT8MFKQE0B7O9,3A1PQ49WVLXBGB50LKMBQGSZT62H14,4,3
121,3,object_10,object_05,735.79999999702,5,2,696.29999999702,0.5555555555555556,1,object_07,5,1560,0,5,6,library_2,1,memory-2step-stake-s,618,2632756,0.0-19.0-0.0-0.121,ASNMT3I94HZ44,3X4Q1O9UCK2WXV8VOBT8MFKQE0B7O9,3A1PQ49WVLXBGB50LKMBQGSZT62H14,6,5
122,3,object_05,object_10,374.89999999106,6,2,-1.0,0.0,2,object_06,5,1560,0,2,7,library_2,1,memory-2step-stake-s,619,2641292,0.0-19.0-0.0-0.122,ASNMT3I94HZ44,3X4Q1O9UCK2WXV8VOBT8MFKQE0B7O9,3A1PQ49WVLXBGB50LKMBQGSZT62H14,5,6
123,3,object_05,object_10,561.79999999702,5,1,1383.5,0.3333333333333333,1,object_07,5,1575,0,3,5,library_2,1,memory-2step-stake-s,620,2650229,0.0-19.0-0.0-0.123,ASNMT3I94HZ44,3X4Q1O9UCK2WXV8VOBT8MFKQE0B7O9,3A1PQ49WVLXBGB50LKMBQGSZT62H14,5,6
124,1,object_01,object_08,382.10000000894,1,2,591.20000000298,0.3333333333333333,1,object_07,1,1578,0,3,7,desert_7,1,memory-2step-stake-s,621,2658377,0.0-19.0-0.0-0.124,ASNMT3I94HZ44,3X4Q1O9UCK2WXV8VOBT8MFKQE0B7O9,3A1PQ49WVLXBGB50LKMBQGSZT62H14,2,1
125,4,object_04,object_03,386.29999999702,7,1,702.09999999404,0.3333333333333333,1,object_07,5,1593,0,3,7,restaurant_3,1,memory-2step-stake-s,622,2666632,0.0-19.0-0.0-0.125,ASNMT3I94HZ44,3X4Q1O9UCK2WXV8VOBT8MFKQE0B7O9,3A1PQ49WVLXBGB50LKMBQGSZT62H14,7,8
126,4,object_04,object_03,607.69999998808,8,2,752.79999999702,0.8888888888888888,2,object_06,5,1633,0,1,8,restaurant_5,1,memory-2step-stake-s,623,2675449,0.0-19.0-0.0-0.126,ASNMT3I94HZ44,3X4Q1O9UCK2WXV8VOBT8MFKQE0B7O9,3A1PQ49WVLXBGB50LKMBQGSZT62H14,7,8
127,2,object_02,object_09,614.20000000298,4,1,497.40000000596,0.8888888888888888,2,object_06,1,1641,0,3,8,forest_4,1,memory-2step-stake-s,624,2684020,0.0-19.0-0.0-0.127,ASNMT3I94HZ44,3X4Q1O9UCK2WXV8VOBT8MFKQE0B7O9,3A1PQ49WVLXBGB50LKMBQGSZT62H14,4,3
128,1,object_01,object_08,604.09999999404,2,1,526.29999999702,0.4444444444444444,2,object_06,5,1661,0,3,4,desert_3,1,memory-2step-stake-s,626,2697260,0.0-19.0-0.1-0.128,ASNMT3I94HZ44,3X4Q1O9UCK2WXV8VOBT8MFKQE0B7O9,3A1PQ49WVLXBGB50LKMBQGSZT62H14,2,1
129,2,object_09,object_02,724.60000000894,4,2,498.0,0.3333333333333333,2,object_06,1,1664,0,1,3,forest_3,1,memory-2step-stake-s,627,2705316,0.0-19.0-0.1-0.129,ASNMT3I94HZ44,3X4Q1O9UCK2WXV8VOBT8MFKQE0B7O9,3A1PQ49WVLXBGB50LKMBQGSZT62H14,3,4
130,2,object_09,object_02,491.20000000298,4,2,580.59999999404,0.4444444444444444,2,object_06,5,1684,0,1,4,forest_3,1,memory-2step-stake-s,628,2713556,0.0-19.0-0.1-0.130,ASNMT3I94HZ44,3X4Q1O9UCK2WXV8VOBT8MFKQE0B7O9,3A1PQ49WVLXBGB50LKMBQGSZT62H14,3,4
131,2,object_02,object_09,609.0,4,1,516.5,0.4444444444444444,2,object_06,1,1688,0,3,4,forest_8,1,memory-2step-stake-s,629,2721735,0.0-19.0-0.1-0.131,ASNMT3I94HZ44,3X4Q1O9UCK2WXV8VOBT8MFKQE0B7O9,3A1PQ49WVLXBGB50LKMBQGSZT62H14,4,3
132,1,object_08,object_01,474.59999999404,2,2,341.40000000596,0.6666666666666666,2,object_06,1,1694,0,5,6,desert_7,1,memory-2step-stake-s,630,2729945,0.0-19.0-0.1-0.132,ASNMT3I94HZ44,3X4Q1O9UCK2WXV8VOBT8MFKQE0B7O9,3A1PQ49WVLXBGB50LKMBQGSZT62H14,1,2
133,3,object_05,object_10,472.09999999404,5,1,484.20000000298,0.3333333333333333,1,object_07,5,1709,0,3,6,library_7,1,memory-2step-stake-s,631,2737972,0.0-19.0-0.1-0.133,ASNMT3I94HZ44,3X4Q1O9UCK2WXV8VOBT8MFKQE0B7O9,3A1PQ49WVLXBGB50LKMBQGSZT62H14,5,6
134,2,object_09,object_02,275.10000000894,4,2,445.79999999702,0.6666666666666666,2,object_06,1,1715,0,4,6,forest_3,1,memory-2step-stake-s,632,2746280,0.0-19.0-0.1-0.134,ASNMT3I94HZ44,3X4Q1O9UCK2WXV8VOBT8MFKQE0B7O9,3A1PQ49WVLXBGB50LKMBQGSZT62H14,3,4
135,3,object_05,object_10,452.0,5,1,490.39999999106,0.1111111111111111,1,object_07,5,1720,0,1,5,library_7,1,memory-2step-stake-s,633,2754118,0.0-19.0-0.1-0.135,ASNMT3I94HZ44,3X4Q1O9UCK2WXV8VOBT8MFKQE0B7O9,3A1PQ49WVLXBGB50LKMBQGSZT62H14,5,6
136,3,object_10,object_05,566.39999999106,5,2,811.0,0.1111111111111111,1,object_07,1,1721,0,1,5,library_1,1,memory-2step-stake-s,634,2762266,0.0-19.0-0.1-0.136,ASNMT3I94HZ44,3X4Q1O9UCK2WXV8VOBT8MFKQE0B7O9,3A1PQ49WVLXBGB50LKMBQGSZT62H14,6,5
137,4,object_04,object_03,358.90000000596,7,1,499.40000000596,0.1111111111111111,1,object_07,1,1722,0,1,0,restaurant_3,1,memory-2step-stake-s,635,2770104,0.0-19.0-0.1-0.137,ASNMT3I94HZ44,3X4Q1O9UCK2WXV8VOBT8MFKQE0B7O9,3A1PQ49WVLXBGB50LKMBQGSZT62H14,7,8
138,3,object_10,object_05,417.5,5,2,686.0,0.0,1,object_07,5,1722,0,0,1,library_3,1,memory-2step-stake-s,636,2778027,0.0-19.0-0.1-0.138,ASNMT3I94HZ44,3X4Q1O9UCK2WXV8VOBT8MFKQE0B7O9,3A1PQ49WVLXBGB50LKMBQGSZT62H14,6,5
139,1,object_01,object_08,403.20000000298,1,2,412.60000000894,0.2222222222222222,1,object_07,1,1724,0,2,3,desert_6,1,memory-2step-stake-s,637,2785892,0.0-19.0-0.1-0.139,ASNMT3I94HZ44,3X4Q1O9UCK2WXV8VOBT8MFKQE0B7O9,3A1PQ49WVLXBGB50LKMBQGSZT62H14,2,1
140,4,object_03,object_04,355.10000000894,8,1,720.10000000894,0.2222222222222222,2,object_06,5,1734,0,0,2,restaurant_3,1,memory-2step-stake-s,638,2794057,0.0-19.0-0.1-0.140,ASNMT3I94HZ44,3X4Q1O9UCK2WXV8VOBT8MFKQE0B7O9,3A1PQ49WVLXBGB50LKMBQGSZT62H14,8,7
141,2,object_09,object_02,547.20000000298,4,2,618.10000000894,0.1111111111111111,2,object_06,5,1739,0,1,1,forest_8,1,memory-2step-stake-s,639,2802020,0.0-19.0-0.1-0.141,ASNMT3I94HZ44,3X4Q1O9UCK2WXV8VOBT8MFKQE0B7O9,3A1PQ49WVLXBGB50LKMBQGSZT62H14,3,4
142,4,object_03,object_04,387.20000000298,8,1,528.29999999702,0.1111111111111111,2,object_06,5,1744,0,3,1,restaurant_4,1,memory-2step-stake-s,640,2809889,0.0-19.0-0.1-0.142,ASNMT3I94HZ44,3X4Q1O9UCK2WXV8VOBT8MFKQE0B7O9,3A1PQ49WVLXBGB50LKMBQGSZT62H14,8,7
143,3,object_10,object_05,574.40000000596,6,1,518.29999999702,0.1111111111111111,2,object_06,5,1749,0,3,1,library_7,1,memory-2step-stake-s,641,2817752,0.0-19.0-0.1-0.143,ASNMT3I94HZ44,3X4Q1O9UCK2WXV8VOBT8MFKQE0B7O9,3A1PQ49WVLXBGB50LKMBQGSZT62H14,6,5
144,2,object_02,object_09,326.09999999404,4,1,471.70000000298,0.2222222222222222,2,object_06,1,1751,0,4,2,forest_8,1,memory-2step-stake-s,642,2825666,0.0-19.0-0.1-0.144,ASNMT3I94HZ44,3X4Q1O9UCK2WXV8VOBT8MFKQE0B7O9,3A1PQ49WVLXBGB50LKMBQGSZT62H14,4,3
145,2,object_09,object_02,463.20000000298,3,1,347.0,0.2222222222222222,1,object_07,5,1761,0,2,7,forest_4,1,memory-2step-stake-s,643,2833455,0.0-19.0-0.1-0.145,ASNMT3I94HZ44,3X4Q1O9UCK2WXV8VOBT8MFKQE0B7O9,3A1PQ49WVLXBGB50LKMBQGSZT62H14,3,4
146,3,object_10,object_05,441.70000000298,6,1,-1.0,0.0,2,object_06,5,1761,0,2,8,library_1,1,memory-2step-stake-s,644,2841997,0.0-19.0-0.1-0.146,ASNMT3I94HZ44,3X4Q1O9UCK2WXV8VOBT8MFKQE0B7O9,3A1PQ49WVLXBGB50LKMBQGSZT62H14,6,5
147,4,object_03,object_04,923.19999998808,8,1,-1.0,0.0,2,object_06,5,1761,0,3,7,restaurant_8,1,memory-2step-stake-s,645,2850532,0.0-19.0-0.1-0.147,ASNMT3I94HZ44,3X4Q1O9UCK2WXV8VOBT8MFKQE0B7O9,3A1PQ49WVLXBGB50LKMBQGSZT62H14,8,7
148,2,object_09,object_02,448.69999998808,4,2,461.20000000298,0.8888888888888888,2,object_06,5,1801,0,0,8,forest_6,1,memory-2step-stake-s,646,2859062,0.0-19.0-0.1-0.148,ASNMT3I94HZ44,3X4Q1O9UCK2WXV8VOBT8MFKQE0B7O9,3A1PQ49WVLXBGB50LKMBQGSZT62H14,3,4
149,1,object_01,object_08,314.10000000894,1,2,381.09999999404,0.2222222222222222,1,object_07,1,1803,0,2,7,desert_6,1,memory-2step-stake-s,647,2866887,0.0-19.0-0.1-0.149,ASNMT3I94HZ44,3X4Q1O9UCK2WXV8VOBT8MFKQE0B7O9,3A1PQ49WVLXBGB50LKMBQGSZT62H14,2,1
150,3,object_10,object_05,461.20000000298,5,2,605.59999999404,0.1111111111111111,1,object_07,5,1808,0,1,5,library_7,1,memory-2step-stake-s,648,2874838,0.0-19.0-0.1-0.150,ASNMT3I94HZ44,3X4Q1O9UCK2WXV8VOBT8MFKQE0B7O9,3A1PQ49WVLXBGB50LKMBQGSZT62H14,6,5
151,2,object_02,object_09,465.20000000298,4,1,385.79999999702,0.4444444444444444,2,object_06,1,1812,0,1,4,forest_8,1,memory-2step-stake-s,649,2882882,0.0-19.0-0.1-0.151,ASNMT3I94HZ44,3X4Q1O9UCK2WXV8VOBT8MFKQE0B7O9,3A1PQ49WVLXBGB50LKMBQGSZT62H14,4,3
152,4,object_04,object_03,368.39999999106,7,1,742.10000000894,0.1111111111111111,1,object_07,5,1817,0,1,1,restaurant_5,1,memory-2step-stake-s,650,2890970,0.0-19.0-0.1-0.152,ASNMT3I94HZ44,3X4Q1O9UCK2WXV8VOBT8MFKQE0B7O9,3A1PQ49WVLXBGB50LKMBQGSZT62H14,7,8
153,3,object_10,object_05,443.69999998808,6,1,501.40000000596,0.0,2,object_06,5,1817,0,5,0,library_1,1,memory-2step-stake-s,651,2898711,0.0-19.0-0.1-0.153,ASNMT3I94HZ44,3X4Q1O9UCK2WXV8VOBT8MFKQE0B7O9,3A1PQ49WVLXBGB50LKMBQGSZT62H14,6,5
154,2,object_09,object_02,462.80000001192,3,1,458.90000000596,0.3333333333333333,1,object_07,1,1820,0,3,2,forest_8,1,memory-2step-stake-s,652,2906718,0.0-19.0-0.1-0.154,ASNMT3I94HZ44,3X4Q1O9UCK2WXV8VOBT8MFKQE0B7O9,3A1PQ49WVLXBGB50LKMBQGSZT62H14,3,4
155,4,object_04,object_03,418.40000000596,7,1,394.59999999404,0.1111111111111111,1,object_07,5,1825,0,1,4,restaurant_8,1,memory-2step-stake-s,653,2914448,0.0-19.0-0.1-0.155,ASNMT3I94HZ44,3X4Q1O9UCK2WXV8VOBT8MFKQE0B7O9,3A1PQ49WVLXBGB50LKMBQGSZT62H14,7,8
156,3,object_05,object_10,486.90000000596,5,1,1282.299999997,0.1111111111111111,1,object_07,1,1826,0,1,1,library_7,1,memory-2step-stake-s,654,2923067,0.0-19.0-0.1-0.156,ASNMT3I94HZ44,3X4Q1O9UCK2WXV8VOBT8MFKQE0B7O9,3A1PQ49WVLXBGB50LKMBQGSZT62H14,5,6
157,1,object_01,object_08,1031.8000000119,2,1,1001.200000003,0.1111111111111111,2,object_06,5,1831,0,4,1,desert_3,1,memory-2step-stake-s,655,2931412,0.0-19.0-0.1-0.157,ASNMT3I94HZ44,3X4Q1O9UCK2WXV8VOBT8MFKQE0B7O9,3A1PQ49WVLXBGB50LKMBQGSZT62H14,2,1
158,4,object_03,object_04,563.89999999106,7,2,506.09999999404,0.1111111111111111,1,object_07,5,1836,0,1,2,restaurant_4,1,memory-2step-stake-s,656,2939253,0.0-19.0-0.1-0.158,ASNMT3I94HZ44,3X4Q1O9UCK2WXV8VOBT8MFKQE0B7O9,3A1PQ49WVLXBGB50LKMBQGSZT62H14,8,7
159,4,object_04,object_03,646.59999999404,8,2,581.29999999702,0.5555555555555556,2,object_06,5,1861,0,0,5,restaurant_3,1,memory-2step-stake-s,657,2947597,0.0-19.0-0.1-0.159,ASNMT3I94HZ44,3X4Q1O9UCK2WXV8VOBT8MFKQE0B7O9,3A1PQ49WVLXBGB50LKMBQGSZT62H14,7,8
160,1,object_08,object_01,1168.799999997,1,1,1008.400000006,0.0,1,object_07,1,1861,0,0,4,desert_6,1,memory-2step-stake-s,658,2955844,0.0-19.0-0.1-0.160,ASNMT3I94HZ44,3X4Q1O9UCK2WXV8VOBT8MFKQE0B7O9,3A1PQ49WVLXBGB50LKMBQGSZT62H14,1,2
161,3,object_05,object_10,582.90000000596,5,1,515.90000000596,0.1111111111111111,1,object_07,5,1866,0,1,2,library_7,1,memory-2step-stake-s,659,2963699,0.0-19.0-0.1-0.161,ASNMT3I94HZ44,3X4Q1O9UCK2WXV8VOBT8MFKQE0B7O9,3A1PQ49WVLXBGB50LKMBQGSZT62H14,5,6
162,3,object_05,object_10,956.39999999106,6,2,584.0,0.1111111111111111,2,object_06,5,1871,0,4,1,library_1,1,memory-2step-stake-s,660,2971627,0.0-19.0-0.1-0.162,ASNMT3I94HZ44,3X4Q1O9UCK2WXV8VOBT8MFKQE0B7O9,3A1PQ49WVLXBGB50LKMBQGSZT62H14,5,6
163,4,object_03,object_04,541.70000000298,7,2,444.40000000596,1.0,1,object_07,5,1916,0,9,0,restaurant_3,1,memory-2step-stake-s,661,2980255,0.0-19.0-0.1-0.163,ASNMT3I94HZ44,3X4Q1O9UCK2WXV8VOBT8MFKQE0B7O9,3A1PQ49WVLXBGB50LKMBQGSZT62H14,8,7
164,3,object_05,object_10,499.10000000894,5,1,427.5,0.6666666666666666,1,object_07,5,1946,0,6,3,library_2,1,memory-2step-stake-s,662,2988559,0.0-19.0-0.1-0.164,ASNMT3I94HZ44,3X4Q1O9UCK2WXV8VOBT8MFKQE0B7O9,3A1PQ49WVLXBGB50LKMBQGSZT62H14,5,6
165,3,object_10,object_05,435.20000000298,6,1,534.0,0.0,2,object_06,5,1946,0,6,0,library_2,1,memory-2step-stake-s,663,2996335,0.0-19.0-0.1-0.165,ASNMT3I94HZ44,3X4Q1O9UCK2WXV8VOBT8MFKQE0B7O9,3A1PQ49WVLXBGB50LKMBQGSZT62H14,6,5
166,1,object_01,object_08,522.90000000596,1,2,414.20000000298,0.7777777777777778,1,object_07,1,1953,0,7,3,desert_6,1,memory-2step-stake-s,664,3004722,0.0-19.0-0.1-0.166,ASNMT3I94HZ44,3X4Q1O9UCK2WXV8VOBT8MFKQE0B7O9,3A1PQ49WVLXBGB50LKMBQGSZT62H14,2,1
167,1,object_01,object_08,332.5,1,2,428.59999999404,0.5555555555555556,1,object_07,1,1958,0,5,7,desert_3,1,memory-2step-stake-s,665,3012918,0.0-19.0-0.1-0.167,ASNMT3I94HZ44,3X4Q1O9UCK2WXV8VOBT8MFKQE0B7O9,3A1PQ49WVLXBGB50LKMBQGSZT62H14,2,1
168,3,object_05,object_10,524.0,5,1,-1.0,0.0,1,object_07,5,1958,0,3,8,library_2,1,memory-2step-stake-s,666,3021453,0.0-19.0-0.1-0.168,ASNMT3I94HZ44,3X4Q1O9UCK2WXV8VOBT8MFKQE0B7O9,3A1PQ49WVLXBGB50LKMBQGSZT62H14,5,6
169,1,object_01,object_08,591.79999999702,2,1,836.0,0.8888888888888888,2,object_06,1,1966,0,3,8,desert_7,1,memory-2step-stake-s,667,3030337,0.0-19.0-0.1-0.169,ASNMT3I94HZ44,3X4Q1O9UCK2WXV8VOBT8MFKQE0B7O9,3A1PQ49WVLXBGB50LKMBQGSZT62H14,2,1
170,2,object_09,object_02,483.10000000894,4,2,950.70000000298,0.6666666666666666,2,object_06,1,1972,0,2,6,forest_4,1,memory-2step-stake-s,668,3039139,0.0-19.0-0.1-0.170,ASNMT3I94HZ44,3X4Q1O9UCK2WXV8VOBT8MFKQE0B7O9,3A1PQ49WVLXBGB50LKMBQGSZT62H14,3,4
171,1,object_01,object_08,438.60000000894,2,1,418.59999999404,0.7777777777777778,2,object_06,1,1979,0,2,7,desert_3,1,memory-2step-stake-s,669,3047524,0.0-19.0-0.1-0.171,ASNMT3I94HZ44,3X4Q1O9UCK2WXV8VOBT8MFKQE0B7O9,3A1PQ49WVLXBGB50LKMBQGSZT62H14,2,1
172,2,object_02,object_09,649.20000000298,3,2,500.70000000298,0.1111111111111111,1,object_07,1,1980,0,1,6,forest_8,1,memory-2step-stake-s,670,3055361,0.0-19.0-0.1-0.172,ASNMT3I94HZ44,3X4Q1O9UCK2WXV8VOBT8MFKQE0B7O9,3A1PQ49WVLXBGB50LKMBQGSZT62H14,4,3
173,4,object_04,object_03,398.29999999702,7,1,480.89999999106,0.2222222222222222,1,object_07,1,1982,0,2,7,restaurant_8,1,memory-2step-stake-s,671,3063294,0.0-19.0-0.1-0.173,ASNMT3I94HZ44,3X4Q1O9UCK2WXV8VOBT8MFKQE0B7O9,3A1PQ49WVLXBGB50LKMBQGSZT62H14,7,8
174,2,object_09,object_02,487.30000001192,4,2,484.5,0.6666666666666666,2,object_06,1,1988,0,2,6,forest_3,1,memory-2step-stake-s,672,3071650,0.0-19.0-0.1-0.174,ASNMT3I94HZ44,3X4Q1O9UCK2WXV8VOBT8MFKQE0B7O9,3A1PQ49WVLXBGB50LKMBQGSZT62H14,3,4
175,2,object_09,object_02,469.80000001192,4,2,807.0,0.6666666666666666,2,object_06,1,1994,0,3,6,forest_4,1,memory-2step-stake-s,673,3080323,0.0-19.0-0.1-0.175,ASNMT3I94HZ44,3X4Q1O9UCK2WXV8VOBT8MFKQE0B7O9,3A1PQ49WVLXBGB50LKMBQGSZT62H14,3,4
176,2,object_09,object_02,393.89999999106,4,2,682.59999999404,0.5555555555555556,2,object_06,1,1999,0,1,5,forest_4,1,memory-2step-stake-s,674,3088763,0.0-19.0-0.1-0.176,ASNMT3I94HZ44,3X4Q1O9UCK2WXV8VOBT8MFKQE0B7O9,3A1PQ49WVLXBGB50LKMBQGSZT62H14,3,4
177,3,object_10,object_05,445.59999999404,6,1,-1.0,0.0,2,object_06,5,1999,0,2,7,library_1,1,memory-2step-stake-s,675,3097300,0.0-19.0-0.1-0.177,ASNMT3I94HZ44,3X4Q1O9UCK2WXV8VOBT8MFKQE0B7O9,3A1PQ49WVLXBGB50LKMBQGSZT62H14,6,5
178,1,object_01,object_08,759.20000000298,1,2,286.19999998808,0.2222222222222222,1,object_07,1,2001,0,2,4,desert_7,1,memory-2step-stake-s,676,3105025,0.0-19.0-0.1-0.178,ASNMT3I94HZ44,3X4Q1O9UCK2WXV8VOBT8MFKQE0B7O9,3A1PQ49WVLXBGB50LKMBQGSZT62H14,2,1
179,1,object_08,object_01,385.10000000894,2,2,211.09999999404,0.2222222222222222,2,object_06,1,2003,0,4,2,desert_8,1,memory-2step-stake-s,677,3112681,0.0-19.0-0.1-0.179,ASNMT3I94HZ44,3X4Q1O9UCK2WXV8VOBT8MFKQE0B7O9,3A1PQ49WVLXBGB50LKMBQGSZT62H14,1,2
180,3,object_05,object_10,367.29999999702,5,1,503.40000000596,0.3333333333333333,1,object_07,5,2018,0,3,5,library_7,1,memory-2step-stake-s,678,3120736,0.0-19.0-0.1-0.180,ASNMT3I94HZ44,3X4Q1O9UCK2WXV8VOBT8MFKQE0B7O9,3A1PQ49WVLXBGB50LKMBQGSZT62H14,5,6
181,3,object_05,object_10,568.0,6,2,482.79999999702,0.3333333333333333,2,object_06,5,2033,0,2,3,library_2,1,memory-2step-stake-s,679,3128773,0.0-19.0-0.1-0.181,ASNMT3I94HZ44,3X4Q1O9UCK2WXV8VOBT8MFKQE0B7O9,3A1PQ49WVLXBGB50LKMBQGSZT62H14,5,6
182,2,object_02,object_09,487.40000000596,3,2,1213.799999997,0.1111111111111111,1,object_07,1,2034,0,1,4,forest_6,1,memory-2step-stake-s,680,3137334,0.0-19.0-0.1-0.182,ASNMT3I94HZ44,3X4Q1O9UCK2WXV8VOBT8MFKQE0B7O9,3A1PQ49WVLXBGB50LKMBQGSZT62H14,4,3
183,2,object_09,object_02,412.89999999106,3,1,531.20000000298,0.4444444444444444,1,object_07,1,2038,0,4,2,forest_8,1,memory-2step-stake-s,681,3145518,0.0-19.0-0.1-0.183,ASNMT3I94HZ44,3X4Q1O9UCK2WXV8VOBT8MFKQE0B7O9,3A1PQ49WVLXBGB50LKMBQGSZT62H14,3,4
184,2,object_02,object_09,620.09999999404,3,2,850.09999999404,0.5555555555555556,1,object_07,5,2063,0,5,4,forest_8,1,memory-2step-stake-s,682,3154134,0.0-19.0-0.1-0.184,ASNMT3I94HZ44,3X4Q1O9UCK2WXV8VOBT8MFKQE0B7O9,3A1PQ49WVLXBGB50LKMBQGSZT62H14,4,3
185,3,object_10,object_05,309.79999999702,6,1,67.20000000298,0.4444444444444444,2,object_06,5,2083,0,4,4,library_2,1,memory-2step-stake-s,683,3161854,0.0-19.0-0.1-0.185,ASNMT3I94HZ44,3X4Q1O9UCK2WXV8VOBT8MFKQE0B7O9,3A1PQ49WVLXBGB50LKMBQGSZT62H14,6,5
186,2,object_09,object_02,538.5,4,2,441.39999999106,0.3333333333333333,2,object_06,1,2086,0,3,3,forest_6,1,memory-2step-stake-s,684,3169840,0.0-19.0-0.1-0.186,ASNMT3I94HZ44,3X4Q1O9UCK2WXV8VOBT8MFKQE0B7O9,3A1PQ49WVLXBGB50LKMBQGSZT62H14,3,4
187,1,object_01,object_08,441.0,2,1,497.89999999106,0.3333333333333333,2,object_06,5,2101,0,6,3,desert_6,1,memory-2step-stake-s,685,3177893,0.0-19.0-0.1-0.187,ASNMT3I94HZ44,3X4Q1O9UCK2WXV8VOBT8MFKQE0B7O9,3A1PQ49WVLXBGB50LKMBQGSZT62H14,2,1
188,2,object_09,object_02,465.5,4,2,530.29999999702,0.7777777777777778,2,object_06,1,2108,0,8,7,forest_6,1,memory-2step-stake-s,686,3186390,0.0-19.0-0.1-0.188,ASNMT3I94HZ44,3X4Q1O9UCK2WXV8VOBT8MFKQE0B7O9,3A1PQ49WVLXBGB50LKMBQGSZT62H14,3,4
189,4,object_04,object_03,417.0,7,1,498.19999998808,0.8888888888888888,1,object_07,5,2148,0,8,8,restaurant_5,1,memory-2step-stake-s,687,3194965,0.0-19.0-0.1-0.189,ASNMT3I94HZ44,3X4Q1O9UCK2WXV8VOBT8MFKQE0B7O9,3A1PQ49WVLXBGB50LKMBQGSZT62H14,7,8
190,4,object_03,object_04,725.70000000298,8,1,794.0,0.3333333333333333,2,object_06,5,2163,0,5,3,restaurant_8,1,memory-2step-stake-s,688,3203314,0.0-19.0-0.1-0.190,ASNMT3I94HZ44,3X4Q1O9UCK2WXV8VOBT8MFKQE0B7O9,3A1PQ49WVLXBGB50LKMBQGSZT62H14,8,7
191,3,object_05,object_10,598.09999999404,6,2,602.5,0.3333333333333333,2,object_06,1,2166,0,3,3,library_7,1,memory-2step-stake-s,689,3211456,0.0-19.0-0.1-0.191,ASNMT3I94HZ44,3X4Q1O9UCK2WXV8VOBT8MFKQE0B7O9,3A1PQ49WVLXBGB50LKMBQGSZT62H14,5,6
192,4,object_03,object_04,435.90000000596,8,1,112.90000000596,0.2222222222222222,2,object_06,5,2176,0,4,2,restaurant_8,1,memory-2step-stake-s,690,3219004,0.0-19.0-0.1-0.192,ASNMT3I94HZ44,3X4Q1O9UCK2WXV8VOBT8MFKQE0B7O9,3A1PQ49WVLXBGB50LKMBQGSZT62H14,8,7
193,1,object_01,object_08,563.90000000596,1,2,497.20000000298,0.4444444444444444,1,object_07,1,2180,0,4,3,desert_6,1,memory-2step-stake-s,691,3227149,0.0-19.0-0.1-0.193,ASNMT3I94HZ44,3X4Q1O9UCK2WXV8VOBT8MFKQE0B7O9,3A1PQ49WVLXBGB50LKMBQGSZT62H14,2,1
194,4,object_03,object_04,393.0,8,1,1164.799999997,0.4444444444444444,2,object_06,5,2200,0,5,4,restaurant_5,1,memory-2step-stake-s,692,3235948,0.0-19.0-0.1-0.194,ASNMT3I94HZ44,3X4Q1O9UCK2WXV8VOBT8MFKQE0B7O9,3A1PQ49WVLXBGB50LKMBQGSZT62H14,8,7
195,4,object_03,object_04,298.90000000596,7,2,600.39999999106,0.7777777777777778,1,object_07,5,2235,0,7,5,restaurant_4,1,memory-2step-stake-s,693,3244520,0.0-19.0-0.1-0.195,ASNMT3I94HZ44,3X4Q1O9UCK2WXV8VOBT8MFKQE0B7O9,3A1PQ49WVLXBGB50LKMBQGSZT62H14,8,7
196,1,object_01,object_08,387.79999999702,1,2,-1.0,0.0,1,object_07,5,2235,0,5,7,desert_8,1,memory-2step-stake-s,694,3253056,0.0-19.0-0.1-0.196,ASNMT3I94HZ44,3X4Q1O9UCK2WXV8VOBT8MFKQE0B7O9,3A1PQ49WVLXBGB50LKMBQGSZT62H14,2,1
197,2,object_02,object_09,645.70000000298,3,2,471.40000000596,0.8888888888888888,1,object_07,1,2243,0,8,7,forest_4,1,memory-2step-stake-s,695,3261593,0.0-19.0-0.1-0.197,ASNMT3I94HZ44,3X4Q1O9UCK2WXV8VOBT8MFKQE0B7O9,3A1PQ49WVLXBGB50LKMBQGSZT62H14,4,3
198,1,object_08,object_01,590.29999999702,2,2,495.70000000298,0.5555555555555556,2,object_06,1,2248,0,7,5,desert_7,1,memory-2step-stake-s,696,3269847,0.0-19.0-0.1-0.198,ASNMT3I94HZ44,3X4Q1O9UCK2WXV8VOBT8MFKQE0B7O9,3A1PQ49WVLXBGB50LKMBQGSZT62H14,1,2
199,1,object_08,object_01,331.59999999404,1,1,447.90000000596,0.4444444444444444,1,object_07,1,2252,0,4,9,desert_7,1,memory-2step-stake-s,697,3277937,0.0-19.0-0.1-0.199,ASNMT3I94HZ44,3X4Q1O9UCK2WXV8VOBT8MFKQE0B7O9,3A1PQ49WVLXBGB50LKMBQGSZT62H14,1,2
200,3,object_10,object_05,214.40000000596,5,2,405.79999999702,0.6666666666666666,1,object_07,5,2282,0,6,8,library_3,1,memory-2step-stake-s,698,3286211,0.0-19.0-0.1-0.200,ASNMT3I94HZ44,3X4Q1O9UCK2WXV8VOBT8MFKQE0B7O9,3A1PQ49WVLXBGB50LKMBQGSZT62H14,6,5
201,1,object_01,object_08,267.80000001192,1,2,473.0,0.4444444444444444,1,object_07,1,2286,0,4,6,desert_3,1,memory-2step-stake-s,699,3294338,0.0-19.0-0.1-0.201,ASNMT3I94HZ44,3X4Q1O9UCK2WXV8VOBT8MFKQE0B7O9,3A1PQ49WVLXBGB50LKMBQGSZT62H14,2,1
202,4,object_03,object_04,951.10000000894,8,1,383.60000000894,0.3333333333333333,2,object_06,5,2301,0,3,3,restaurant_8,1,memory-2step-stake-s,700,3302266,0.0-19.0-0.1-0.202,ASNMT3I94HZ44,3X4Q1O9UCK2WXV8VOBT8MFKQE0B7O9,3A1PQ49WVLXBGB50LKMBQGSZT62H14,8,7
203,2,object_02,object_09,1024.8000000119,3,2,-1.0,0.0,1,object_07,5,2301,0,6,3,forest_6,1,memory-2step-stake-s,701,3310796,0.0-19.0-0.1-0.203,ASNMT3I94HZ44,3X4Q1O9UCK2WXV8VOBT8MFKQE0B7O9,3A1PQ49WVLXBGB50LKMBQGSZT62H14,4,3
204,1,object_08,object_01,334.79999999702,1,1,592.59999999404,0.4444444444444444,1,object_07,5,2321,0,4,5,desert_6,1,memory-2step-stake-s,702,3319045,0.0-19.0-0.1-0.204,ASNMT3I94HZ44,3X4Q1O9UCK2WXV8VOBT8MFKQE0B7O9,3A1PQ49WVLXBGB50LKMBQGSZT62H14,1,2
205,4,object_03,object_04,683.29999999702,7,2,-1.0,0.0,1,object_07,5,2321,0,2,5,restaurant_8,1,memory-2step-stake-s,703,3327580,0.0-19.0-0.1-0.205,ASNMT3I94HZ44,3X4Q1O9UCK2WXV8VOBT8MFKQE0B7O9,3A1PQ49WVLXBGB50LKMBQGSZT62H14,8,7
206,1,object_08,object_01,528.0,2,2,536.10000000894,0.5555555555555556,2,object_06,1,2326,0,3,5,desert_3,1,memory-2step-stake-s,704,3335874,0.0-19.0-0.1-0.206,ASNMT3I94HZ44,3X4Q1O9UCK2WXV8VOBT8MFKQE0B7O9,3A1PQ49WVLXBGB50LKMBQGSZT62H14,1,2
207,3,object_05,object_10,695.0,5,1,1423.0,0.1111111111111111,1,object_07,5,2331,0,1,8,library_3,1,memory-2step-stake-s,705,3344636,0.0-19.0-0.1-0.207,ASNMT3I94HZ44,3X4Q1O9UCK2WXV8VOBT8MFKQE0B7O9,3A1PQ49WVLXBGB50LKMBQGSZT62H14,5,6
208,2,object_09,object_02,539.29999999702,4,2,762.90000000596,0.4444444444444444,2,object_06,1,2335,0,1,4,forest_6,1,memory-2step-stake-s,706,3353046,0.0-19.0-0.1-0.208,ASNMT3I94HZ44,3X4Q1O9UCK2WXV8VOBT8MFKQE0B7O9,3A1PQ49WVLXBGB50LKMBQGSZT62H14,3,4
209,2,object_02,object_09,557.5,4,1,641.59999999404,0.4444444444444444,2,object_06,1,2339,0,1,4,forest_4,1,memory-2step-stake-s,707,3361339,0.0-19.0-0.1-0.209,ASNMT3I94HZ44,3X4Q1O9UCK2WXV8VOBT8MFKQE0B7O9,3A1PQ49WVLXBGB50LKMBQGSZT62H14,4,3
210,2,object_09,object_02,496.5,3,1,389.39999999106,0.3333333333333333,1,object_07,1,2342,0,3,7,forest_4,1,memory-2step-stake-s,708,3369277,0.0-19.0-0.1-0.210,ASNMT3I94HZ44,3X4Q1O9UCK2WXV8VOBT8MFKQE0B7O9,3A1PQ49WVLXBGB50LKMBQGSZT62H14,3,4
211,3,object_05,object_10,490.59999999404,6,2,640.59999999404,1.0,2,object_06,1,2351,0,3,9,library_3,1,memory-2step-stake-s,709,3378087,0.0-19.0-0.1-0.211,ASNMT3I94HZ44,3X4Q1O9UCK2WXV8VOBT8MFKQE0B7O9,3A1PQ49WVLXBGB50LKMBQGSZT62H14,5,6
212,3,object_05,object_10,430.59999999404,5,1,593.70000000298,0.6666666666666666,1,object_07,5,2381,0,6,7,library_3,1,memory-2step-stake-s,710,3386545,0.0-19.0-0.1-0.212,ASNMT3I94HZ44,3X4Q1O9UCK2WXV8VOBT8MFKQE0B7O9,3A1PQ49WVLXBGB50LKMBQGSZT62H14,5,6
213,3,object_10,object_05,375.70000000298,5,2,601.29999999702,0.5555555555555556,1,object_07,5,2406,0,5,7,library_3,1,memory-2step-stake-s,711,3394909,0.0-19.0-0.1-0.213,ASNMT3I94HZ44,3X4Q1O9UCK2WXV8VOBT8MFKQE0B7O9,3A1PQ49WVLXBGB50LKMBQGSZT62H14,6,5
214,4,object_03,object_04,779.20000000298,7,2,626.60000000894,0.6666666666666666,1,object_07,5,2436,0,6,5,restaurant_5,1,memory-2step-stake-s,712,3403390,0.0-19.0-0.1-0.214,ASNMT3I94HZ44,3X4Q1O9UCK2WXV8VOBT8MFKQE0B7O9,3A1PQ49WVLXBGB50LKMBQGSZT62H14,8,7
215,3,object_05,object_10,448.59999999404,6,2,527.39999999106,0.7777777777777778,2,object_06,1,2443,0,4,7,library_1,1,memory-2step-stake-s,713,3411885,0.0-19.0-0.1-0.215,ASNMT3I94HZ44,3X4Q1O9UCK2WXV8VOBT8MFKQE0B7O9,3A1PQ49WVLXBGB50LKMBQGSZT62H14,5,6
216,4,object_03,object_04,355.20000000298,8,1,364.29999999702,0.2222222222222222,2,object_06,5,2453,0,3,2,restaurant_4,1,memory-2step-stake-s,714,3419689,0.0-19.0-0.1-0.216,ASNMT3I94HZ44,3X4Q1O9UCK2WXV8VOBT8MFKQE0B7O9,3A1PQ49WVLXBGB50LKMBQGSZT62H14,8,7
217,2,object_02,object_09,460.40000000596,3,2,1074.6000000089,0.2222222222222222,1,object_07,1,2455,0,2,1,forest_6,1,memory-2step-stake-s,715,3428210,0.0-19.0-0.1-0.217,ASNMT3I94HZ44,3X4Q1O9UCK2WXV8VOBT8MFKQE0B7O9,3A1PQ49WVLXBGB50LKMBQGSZT62H14,4,3
218,4,object_03,object_04,473.20000000298,8,1,623.80000001192,0.1111111111111111,2,object_06,1,2456,0,6,1,restaurant_5,1,memory-2step-stake-s,716,3436171,0.0-19.0-0.1-0.218,ASNMT3I94HZ44,3X4Q1O9UCK2WXV8VOBT8MFKQE0B7O9,3A1PQ49WVLXBGB50LKMBQGSZT62H14,8,7
219,3,object_05,object_10,614.30000001192,6,2,448.60000000894,0.2222222222222222,2,object_06,5,2466,0,5,2,library_2,1,memory-2step-stake-s,717,3444068,0.0-19.0-0.1-0.219,ASNMT3I94HZ44,3X4Q1O9UCK2WXV8VOBT8MFKQE0B7O9,3A1PQ49WVLXBGB50LKMBQGSZT62H14,5,6
220,4,object_04,object_03,374.29999999702,7,1,-1.0,0.0,1,object_07,5,2466,0,4,2,restaurant_5,1,memory-2step-stake-s,718,3452610,0.0-19.0-0.1-0.220,ASNMT3I94HZ44,3X4Q1O9UCK2WXV8VOBT8MFKQE0B7O9,3A1PQ49WVLXBGB50LKMBQGSZT62H14,7,8
221,4,object_03,object_04,539.59999999404,8,1,629.80000001192,0.3333333333333333,2,object_06,5,2481,0,8,3,restaurant_5,1,memory-2step-stake-s,719,3460797,0.0-19.0-0.1-0.221,ASNMT3I94HZ44,3X4Q1O9UCK2WXV8VOBT8MFKQE0B7O9,3A1PQ49WVLXBGB50LKMBQGSZT62H14,8,7
222,1,object_08,object_01,182.89999999106,2,2,497.60000000894,0.5555555555555556,2,object_06,1,2486,0,7,5,desert_3,1,memory-2step-stake-s,720,3469065,0.0-19.0-0.1-0.222,ASNMT3I94HZ44,3X4Q1O9UCK2WXV8VOBT8MFKQE0B7O9,3A1PQ49WVLXBGB50LKMBQGSZT62H14,1,2
223,2,object_02,object_09,194.20000000298,4,1,1498.5,0.4444444444444444,2,object_06,1,2490,0,5,4,forest_3,1,memory-2step-stake-s,721,3478222,0.0-19.0-0.1-0.223,ASNMT3I94HZ44,3X4Q1O9UCK2WXV8VOBT8MFKQE0B7O9,3A1PQ49WVLXBGB50LKMBQGSZT62H14,4,3
224,1,object_08,object_01,807.90000000596,1,1,609.89999999106,0.7777777777777778,1,object_07,1,2497,0,7,6,desert_7,1,memory-2step-stake-s,722,3486801,0.0-19.0-0.1-0.224,ASNMT3I94HZ44,3X4Q1O9UCK2WXV8VOBT8MFKQE0B7O9,3A1PQ49WVLXBGB50LKMBQGSZT62H14,1,2
225,4,object_03,object_04,433.5,8,1,429.0,1.0,2,object_06,5,2542,0,3,9,restaurant_4,1,memory-2step-stake-s,723,3495394,0.0-19.0-0.1-0.225,ASNMT3I94HZ44,3X4Q1O9UCK2WXV8VOBT8MFKQE0B7O9,3A1PQ49WVLXBGB50LKMBQGSZT62H14,8,7
226,4,object_03,object_04,378.20000000298,7,2,784.59999999404,0.3333333333333333,1,object_07,5,2557,0,3,6,restaurant_8,1,memory-2step-stake-s,724,3503726,0.0-19.0-0.1-0.226,ASNMT3I94HZ44,3X4Q1O9UCK2WXV8VOBT8MFKQE0B7O9,3A1PQ49WVLXBGB50LKMBQGSZT62H14,8,7
227,2,object_09,object_02,262.70000000298,3,1,410.20000000298,0.3333333333333333,1,object_07,1,2560,0,3,7,forest_4,1,memory-2step-stake-s,725,3511689,0.0-19.0-0.1-0.227,ASNMT3I94HZ44,3X4Q1O9UCK2WXV8VOBT8MFKQE0B7O9,3A1PQ49WVLXBGB50LKMBQGSZT62H14,3,4
228,3,object_05,object_10,501.10000000894,6,2,734.0,0.7777777777777778,2,object_06,5,2595,0,4,7,library_2,1,memory-2step-stake-s,726,3520398,0.0-19.0-0.1-0.228,ASNMT3I94HZ44,3X4Q1O9UCK2WXV8VOBT8MFKQE0B7O9,3A1PQ49WVLXBGB50LKMBQGSZT62H14,5,6
229,1,object_08,object_01,412.39999999106,1,1,769.10000000894,0.6666666666666666,1,object_07,1,2601,0,6,6,desert_6,1,memory-2step-stake-s,727,3529021,0.0-19.0-0.1-0.229,ASNMT3I94HZ44,3X4Q1O9UCK2WXV8VOBT8MFKQE0B7O9,3A1PQ49WVLXBGB50LKMBQGSZT62H14,1,2
230,1,object_01,object_08,490.39999999106,2,1,1209.1999999881,0.7777777777777778,2,object_06,1,2608,0,8,7,desert_3,1,memory-2step-stake-s,728,3538186,0.0-19.0-0.1-0.230,ASNMT3I94HZ44,3X4Q1O9UCK2WXV8VOBT8MFKQE0B7O9,3A1PQ49WVLXBGB50LKMBQGSZT62H14,2,1
231,4,object_04,object_03,534.5,7,1,602.20000000298,1.0,1,object_07,1,2617,0,9,7,restaurant_3,1,memory-2step-stake-s,729,3546943,0.0-19.0-0.1-0.231,ASNMT3I94HZ44,3X4Q1O9UCK2WXV8VOBT8MFKQE0B7O9,3A1PQ49WVLXBGB50LKMBQGSZT62H14,7,8
232,1,object_08,object_01,424.29999999702,1,1,768.80000001192,0.8888888888888888,1,object_07,1,2625,0,8,9,desert_6,1,memory-2step-stake-s,730,3555776,0.0-19.0-0.1-0.232,ASNMT3I94HZ44,3X4Q1O9UCK2WXV8VOBT8MFKQE0B7O9,3A1PQ49WVLXBGB50LKMBQGSZT62H14,1,2
233,3,object_05,object_10,548.40000000596,5,1,509.80000001192,0.8888888888888888,1,object_07,1,2633,0,8,8,library_1,1,memory-2step-stake-s,731,3564345,0.0-19.0-0.1-0.233,ASNMT3I94HZ44,3X4Q1O9UCK2WXV8VOBT8MFKQE0B7O9,3A1PQ49WVLXBGB50LKMBQGSZT62H14,5,6
234,1,object_01,object_08,445.59999999404,1,2,329.19999998808,0.7777777777777778,1,object_07,1,2640,0,7,5,desert_7,1,memory-2step-stake-s,732,3572654,0.0-19.0-0.1-0.234,ASNMT3I94HZ44,3X4Q1O9UCK2WXV8VOBT8MFKQE0B7O9,3A1PQ49WVLXBGB50LKMBQGSZT62H14,2,1
235,3,object_10,object_05,423.5,5,2,1128.200000003,0.8888888888888888,1,object_07,5,2680,0,8,7,library_3,1,memory-2step-stake-s,733,3581865,0.0-19.0-0.1-0.235,ASNMT3I94HZ44,3X4Q1O9UCK2WXV8VOBT8MFKQE0B7O9,3A1PQ49WVLXBGB50LKMBQGSZT62H14,6,5
236,2,object_09,object_02,968.0,4,2,848.39999999106,0.7777777777777778,2,object_06,1,2687,0,8,7,forest_8,1,memory-2step-stake-s,734,3590675,0.0-19.0-0.1-0.236,ASNMT3I94HZ44,3X4Q1O9UCK2WXV8VOBT8MFKQE0B7O9,3A1PQ49WVLXBGB50LKMBQGSZT62H14,3,4
237,1,object_01,object_08,934.29999999702,1,2,1170.299999997,0.7777777777777778,1,object_07,1,2694,0,7,8,desert_7,1,memory-2step-stake-s,735,3599794,0.0-19.0-0.1-0.237,ASNMT3I94HZ44,3X4Q1O9UCK2WXV8VOBT8MFKQE0B7O9,3A1PQ49WVLXBGB50LKMBQGSZT62H14,2,1
238,4,object_04,object_03,135.20000000298,8,2,1040.6000000089,0.8888888888888888,2,object_06,5,2734,0,6,8,restaurant_4,1,memory-2step-stake-s,736,3608905,0.0-19.0-0.1-0.238,ASNMT3I94HZ44,3X4Q1O9UCK2WXV8VOBT8MFKQE0B7O9,3A1PQ49WVLXBGB50LKMBQGSZT62H14,7,8
239,3,object_05,object_10,701.0,6,2,776.79999999702,0.8888888888888888,2,object_06,5,2774,0,1,8,library_7,1,memory-2step-stake-s,737,3617749,0.0-19.0-0.1-0.239,ASNMT3I94HZ44,3X4Q1O9UCK2WXV8VOBT8MFKQE0B7O9,3A1PQ49WVLXBGB50LKMBQGSZT62H14,5,6
240,4,object_03,object_04,299.89999999106,8,1,571.20000000298,0.8888888888888888,2,object_06,5,2814,0,1,8,restaurant_5,1,memory-2step-stake-s,738,3626377,0.0-19.0-0.1-0.240,ASNMT3I94HZ44,3X4Q1O9UCK2WXV8VOBT8MFKQE0B7O9,3A1PQ49WVLXBGB50LKMBQGSZT62H14,8,7
241,1,object_08,object_01,340.19999998808,1,1,896.29999999702,0.2222222222222222,1,object_07,1,2816,0,2,6,desert_8,1,memory-2step-stake-s,739,3634710,0.0-19.0-0.1-0.241,ASNMT3I94HZ44,3X4Q1O9UCK2WXV8VOBT8MFKQE0B7O9,3A1PQ49WVLXBGB50LKMBQGSZT62H14,1,2
242,1,object_01,object_08,295.60000000894,2,1,546.30000001192,1.0,2,object_06,1,2825,0,2,9,desert_3,1,memory-2step-stake-s,740,3643428,0.0-19.0-0.1-0.242,ASNMT3I94HZ44,3X4Q1O9UCK2WXV8VOBT8MFKQE0B7O9,3A1PQ49WVLXBGB50LKMBQGSZT62H14,2,1
243,4,object_04,object_03,374.10000000894,7,1,446.79999999702,0.3333333333333333,1,object_07,5,2840,0,3,9,restaurant_5,1,memory-2step-stake-s,741,3651419,0.0-19.0-0.1-0.243,ASNMT3I94HZ44,3X4Q1O9UCK2WXV8VOBT8MFKQE0B7O9,3A1PQ49WVLXBGB50LKMBQGSZT62H14,7,8
244,3,object_10,object_05,402.89999999106,5,2,412.79999999702,0.3333333333333333,1,object_07,1,2843,0,3,6,library_3,1,memory-2step-stake-s,742,3659388,0.0-19.0-0.1-0.244,ASNMT3I94HZ44,3X4Q1O9UCK2WXV8VOBT8MFKQE0B7O9,3A1PQ49WVLXBGB50LKMBQGSZT62H14,6,5
245,2,object_09,object_02,346.20000000298,4,2,494.90000000596,0.3333333333333333,2,object_06,5,2858,0,1,3,forest_3,1,memory-2step-stake-s,743,3667431,0.0-19.0-0.1-0.245,ASNMT3I94HZ44,3X4Q1O9UCK2WXV8VOBT8MFKQE0B7O9,3A1PQ49WVLXBGB50LKMBQGSZT62H14,3,4
246,4,object_03,object_04,497.39999999106,7,2,569.59999999404,0.2222222222222222,1,object_07,1,2860,0,2,1,restaurant_4,1,memory-2step-stake-s,744,3675449,0.0-19.0-0.1-0.246,ASNMT3I94HZ44,3X4Q1O9UCK2WXV8VOBT8MFKQE0B7O9,3A1PQ49WVLXBGB50LKMBQGSZT62H14,8,7
247,3,object_10,object_05,388.20000000298,6,1,646.59999999404,0.1111111111111111,2,object_06,5,2865,0,0,1,library_7,1,memory-2step-stake-s,745,3683442,0.0-19.0-0.1-0.247,ASNMT3I94HZ44,3X4Q1O9UCK2WXV8VOBT8MFKQE0B7O9,3A1PQ49WVLXBGB50LKMBQGSZT62H14,6,5
248,1,object_01,object_08,432.5,1,2,887.60000000894,0.1111111111111111,1,object_07,1,2866,0,1,2,desert_8,1,memory-2step-stake-s,746,3691675,0.0-19.0-0.1-0.248,ASNMT3I94HZ44,3X4Q1O9UCK2WXV8VOBT8MFKQE0B7O9,3A1PQ49WVLXBGB50LKMBQGSZT62H14,2,1
249,4,object_03,object_04,509.09999999404,8,1,239.09999999404,0.3333333333333333,2,object_06,5,2881,0,1,3,restaurant_3,1,memory-2step-stake-s,747,3699457,0.0-19.0-0.1-0.249,ASNMT3I94HZ44,3X4Q1O9UCK2WXV8VOBT8MFKQE0B7O9,3A1PQ49WVLXBGB50LKMBQGSZT62H14,8,7
250,3,object_10,object_05,839.39999999106,6,1,230.90000000596,0.5555555555555556,2,object_06,5,2906,0,3,5,library_7,1,memory-2step-stake-s,748,3707445,0.0-19.0-0.1-0.250,ASNMT3I94HZ44,3X4Q1O9UCK2WXV8VOBT8MFKQE0B7O9,3A1PQ49WVLXBGB50LKMBQGSZT62H14,6,5
251,2,object_09,object_02,619.29999999702,4,2,843.40000000596,0.4444444444444444,2,object_06,1,2910,0,1,4,forest_4,1,memory-2step-stake-s,749,3715943,0.0-19.0-0.1-0.251,ASNMT3I94HZ44,3X4Q1O9UCK2WXV8VOBT8MFKQE0B7O9,3A1PQ49WVLXBGB50LKMBQGSZT62H14,3,4
252,1,object_01,object_08,733.59999999404,2,1,610.70000000298,0.4444444444444444,2,object_06,1,2914,0,1,4,desert_3,1,memory-2step-stake-s,750,3724202,0.0-19.0-0.1-0.252,ASNMT3I94HZ44,3X4Q1O9UCK2WXV8VOBT8MFKQE0B7O9,3A1PQ49WVLXBGB50LKMBQGSZT62H14,2,1
253,2,object_09,object_02,697.89999999106,3,1,316.0,0.1111111111111111,1,object_07,5,2919,0,1,6,forest_3,1,memory-2step-stake-s,751,3731852,0.0-19.0-0.1-0.253,ASNMT3I94HZ44,3X4Q1O9UCK2WXV8VOBT8MFKQE0B7O9,3A1PQ49WVLXBGB50LKMBQGSZT62H14,3,4
254,3,object_05,object_10,693.09999999404,5,1,530.5,0.3333333333333333,1,object_07,1,2922,0,3,3,library_1,1,memory-2step-stake-s,752,3739937,0.0-19.0-0.1-0.254,ASNMT3I94HZ44,3X4Q1O9UCK2WXV8VOBT8MFKQE0B7O9,3A1PQ49WVLXBGB50LKMBQGSZT62H14,5,6
255,4,object_04,object_03,903.0,8,2,333.59999999404,0.2222222222222222,2,object_06,5,2932,0,1,2,restaurant_4,1,memory-2step-stake-s,753,3747725,0.0-19.0-0.1-0.255,ASNMT3I94HZ44,3X4Q1O9UCK2WXV8VOBT8MFKQE0B7O9,3A1PQ49WVLXBGB50LKMBQGSZT62H14,7,8
