,state1,stim_left,stim_right,rt_1,choice1,response1,rt_2,points,state2,stim_state2,stake,score,practice,rews1,rews2,background,high_arm,trial_type,trial_index,time_elapsed,internal_node_id,subid,hitid,assignmentid,stim_left_num,stim_right_num
0,3,object_06,object_09,-1.0,-1,-1,-1.0,0.0,-,0,1,0,0,7,3,library_7,2,memory-2step-stake-s,495,1941154,0.0-19.0-0.0-0.0,A2MW5S0XS0D5MN,3QGHA0EA1MGR4GKNSEWY8BJ80SRWBM,3C44YUNSI55XLNJ0KQEB0RVZ4SZPDN,5,6
1,2,object_08,object_05,792.60000002384,4,2,-1.0,0.0,2,object_02,1,0,0,7,0,forest_6,2,memory-2step-stake-s,496,1949758,0.0-19.0-0.0-0.1,A2MW5S0XS0D5MN,3QGHA0EA1MGR4GKNSEWY8BJ80SRWBM,3C44YUNSI55XLNJ0KQEB0RVZ4SZPDN,3,4
2,3,object_09,object_06,631.19999998808,5,2,-1.0,0.0,1,object_01,1,0,0,6,2,library_8,2,memory-2step-stake-s,497,1958361,0.0-19.0-0.0-0.2,A2MW5S0XS0D5MN,3QGHA0EA1MGR4GKNSEWY8BJ80SRWBM,3C44YUNSI55XLNJ0KQEB0RVZ4SZPDN,6,5
3,4,object_10,object_04,1143.9000000358,8,1,-1.0,0.0,2,object_02,1,0,0,5,2,restaurant_8,2,memory-2step-stake-s,498,1966977,0.0-19.0-0.0-0.3,A2MW5S0XS0D5MN,3QGHA0EA1MGR4GKNSEWY8BJ80SRWBM,3C44YUNSI55XLNJ0KQEB0RVZ4SZPDN,8,7
4,4,object_04,object_10,779.0,7,1,-1.0,0.0,1,object_01,1,0,0,3,3,restaurant_8,2,memory-2step-stake-s,499,1975587,0.0-19.0-0.0-0.4,A2MW5S0XS0D5MN,3QGHA0EA1MGR4GKNSEWY8BJ80SRWBM,3C44YUNSI55XLNJ0KQEB0RVZ4SZPDN,7,8
5,4,object_04,object_10,925.89999997616,8,2,-1.0,0.0,2,object_02,1,0,0,1,1,restaurant_7,2,memory-2step-stake-s,500,1984185,0.0-19.0-0.0-0.5,A2MW5S0XS0D5MN,3QGHA0EA1MGR4GKNSEWY8BJ80SRWBM,3C44YUNSI55XLNJ0KQEB0RVZ4SZPDN,7,8
6,1,object_07,object_03,1156.5,2,2,-1.0,0.0,2,object_02,5,0,0,3,3,desert_5,2,memory-2step-stake-s,501,1992801,0.0-19.0-0.0-0.6,A2MW5S0XS0D5MN,3QGHA0EA1MGR4GKNSEWY8BJ80SRWBM,3C44YUNSI55XLNJ0KQEB0RVZ4SZPDN,1,2
7,2,object_08,object_05,705.19999998808,3,1,-1.0,0.0,1,object_01,5,0,0,1,1,forest_7,2,memory-2step-stake-s,502,2001407,0.0-19.0-0.0-0.7,A2MW5S0XS0D5MN,3QGHA0EA1MGR4GKNSEWY8BJ80SRWBM,3C44YUNSI55XLNJ0KQEB0RVZ4SZPDN,3,4
8,1,object_03,object_07,803.80000001192,1,2,-1.0,0.0,1,object_01,5,0,0,1,2,desert_3,2,memory-2step-stake-s,503,2009989,0.0-19.0-0.0-0.8,A2MW5S0XS0D5MN,3QGHA0EA1MGR4GKNSEWY8BJ80SRWBM,3C44YUNSI55XLNJ0KQEB0RVZ4SZPDN,2,1
9,2,object_05,object_08,860.20000004768,3,2,-1.0,0.0,1,object_01,5,0,0,1,0,forest_1,2,memory-2step-stake-s,504,2018577,0.0-19.0-0.0-0.9,A2MW5S0XS0D5MN,3QGHA0EA1MGR4GKNSEWY8BJ80SRWBM,3C44YUNSI55XLNJ0KQEB0RVZ4SZPDN,4,3
10,4,object_10,object_04,512.10000002384,8,1,-1.0,0.0,2,object_02,1,0,0,5,0,restaurant_7,2,memory-2step-stake-s,505,2027171,0.0-19.0-0.0-0.10,A2MW5S0XS0D5MN,3QGHA0EA1MGR4GKNSEWY8BJ80SRWBM,3C44YUNSI55XLNJ0KQEB0RVZ4SZPDN,8,7
11,3,object_06,object_09,627.39999997616,5,1,-1.0,0.0,1,object_01,5,0,0,7,1,library_5,2,memory-2step-stake-s,506,2035784,0.0-19.0-0.0-0.11,A2MW5S0XS0D5MN,3QGHA0EA1MGR4GKNSEWY8BJ80SRWBM,3C44YUNSI55XLNJ0KQEB0RVZ4SZPDN,5,6
12,2,object_08,object_05,857.59999996424,3,1,-1.0,0.0,1,object_01,5,0,0,7,4,forest_7,2,memory-2step-stake-s,507,2044397,0.0-19.0-0.0-0.12,A2MW5S0XS0D5MN,3QGHA0EA1MGR4GKNSEWY8BJ80SRWBM,3C44YUNSI55XLNJ0KQEB0RVZ4SZPDN,3,4
13,1,object_03,object_07,621.5,1,2,-1.0,0.0,1,object_01,1,0,0,6,6,desert_8,2,memory-2step-stake-s,508,2053010,0.0-19.0-0.0-0.13,A2MW5S0XS0D5MN,3QGHA0EA1MGR4GKNSEWY8BJ80SRWBM,3C44YUNSI55XLNJ0KQEB0RVZ4SZPDN,2,1
14,2,object_08,object_05,1206.6000000238,3,1,-1.0,0.0,1,object_01,5,0,0,8,7,forest_6,2,memory-2step-stake-s,509,2061643,0.0-19.0-0.0-0.14,A2MW5S0XS0D5MN,3QGHA0EA1MGR4GKNSEWY8BJ80SRWBM,3C44YUNSI55XLNJ0KQEB0RVZ4SZPDN,3,4
15,3,object_06,object_09,1048.6000000238,6,2,-1.0,0.0,2,object_02,1,0,0,7,6,library_7,2,memory-2step-stake-s,510,2070303,0.0-19.0-0.0-0.15,A2MW5S0XS0D5MN,3QGHA0EA1MGR4GKNSEWY8BJ80SRWBM,3C44YUNSI55XLNJ0KQEB0RVZ4SZPDN,5,6
16,2,object_05,object_08,888.5,4,1,-1.0,0.0,2,object_02,5,0,0,7,8,forest_2,2,memory-2step-stake-s,511,2078924,0.0-19.0-0.0-0.16,A2MW5S0XS0D5MN,3QGHA0EA1MGR4GKNSEWY8BJ80SRWBM,3C44YUNSI55XLNJ0KQEB0RVZ4SZPDN,4,3
17,2,object_05,object_08,727.40000003576,3,2,-1.0,0.0,1,object_01,5,0,0,5,9,forest_6,2,memory-2step-stake-s,512,2087558,0.0-19.0-0.0-0.17,A2MW5S0XS0D5MN,3QGHA0EA1MGR4GKNSEWY8BJ80SRWBM,3C44YUNSI55XLNJ0KQEB0RVZ4SZPDN,4,3
18,2,object_05,object_08,417.10000002384,4,1,-1.0,0.0,2,object_02,5,0,0,4,8,forest_7,2,memory-2step-stake-s,513,2096166,0.0-19.0-0.0-0.18,A2MW5S0XS0D5MN,3QGHA0EA1MGR4GKNSEWY8BJ80SRWBM,3C44YUNSI55XLNJ0KQEB0RVZ4SZPDN,4,3
19,4,object_10,object_04,567.40000003576,7,2,-1.0,0.0,1,object_01,1,0,0,2,7,restaurant_1,2,memory-2step-stake-s,514,2104770,0.0-19.0-0.0-0.19,A2MW5S0XS0D5MN,3QGHA0EA1MGR4GKNSEWY8BJ80SRWBM,3C44YUNSI55XLNJ0KQEB0RVZ4SZPDN,8,7
20,4,object_04,object_10,378.89999997616,7,1,-1.0,0.0,1,object_01,1,0,0,2,5,restaurant_3,2,memory-2step-stake-s,515,2113410,0.0-19.0-0.0-0.20,A2MW5S0XS0D5MN,3QGHA0EA1MGR4GKNSEWY8BJ80SRWBM,3C44YUNSI55XLNJ0KQEB0RVZ4SZPDN,7,8
21,3,object_09,object_06,223.89999997616,5,2,-1.0,0.0,1,object_01,1,0,0,3,6,library_3,2,memory-2step-stake-s,516,2122042,0.0-19.0-0.0-0.21,A2MW5S0XS0D5MN,3QGHA0EA1MGR4GKNSEWY8BJ80SRWBM,3C44YUNSI55XLNJ0KQEB0RVZ4SZPDN,6,5
22,3,object_09,object_06,338.39999997616,6,1,-1.0,0.0,2,object_02,5,0,0,5,7,library_7,2,memory-2step-stake-s,517,2130670,0.0-19.0-0.0-0.22,A2MW5S0XS0D5MN,3QGHA0EA1MGR4GKNSEWY8BJ80SRWBM,3C44YUNSI55XLNJ0KQEB0RVZ4SZPDN,6,5
23,4,object_10,object_04,391.10000002384,7,2,-1.0,0.0,1,object_01,1,0,0,8,8,restaurant_3,2,memory-2step-stake-s,518,2139294,0.0-19.0-0.0-0.23,A2MW5S0XS0D5MN,3QGHA0EA1MGR4GKNSEWY8BJ80SRWBM,3C44YUNSI55XLNJ0KQEB0RVZ4SZPDN,8,7
24,1,object_03,object_07,886.40000003576,2,1,-1.0,0.0,2,object_02,5,0,0,7,7,desert_6,2,memory-2step-stake-s,519,2147905,0.0-19.0-0.0-0.24,A2MW5S0XS0D5MN,3QGHA0EA1MGR4GKNSEWY8BJ80SRWBM,3C44YUNSI55XLNJ0KQEB0RVZ4SZPDN,2,1
25,3,object_09,object_06,-1.0,-1,-1,-1.0,0.0,-,0,1,0,0,7,5,library_8,2,memory-2step-stake-s,520,2154457,0.0-19.0-0.0-0.25,A2MW5S0XS0D5MN,3QGHA0EA1MGR4GKNSEWY8BJ80SRWBM,3C44YUNSI55XLNJ0KQEB0RVZ4SZPDN,6,5
26,2,object_08,object_05,823.10000002384,4,2,-1.0,0.0,2,object_02,5,0,0,9,3,forest_6,2,memory-2step-stake-s,521,2163045,0.0-19.0-0.0-0.26,A2MW5S0XS0D5MN,3QGHA0EA1MGR4GKNSEWY8BJ80SRWBM,3C44YUNSI55XLNJ0KQEB0RVZ4SZPDN,3,4
27,2,object_08,object_05,719.80000001192,4,2,-1.0,0.0,2,object_02,1,0,0,7,1,forest_6,2,memory-2step-stake-s,522,2171642,0.0-19.0-0.0-0.27,A2MW5S0XS0D5MN,3QGHA0EA1MGR4GKNSEWY8BJ80SRWBM,3C44YUNSI55XLNJ0KQEB0RVZ4SZPDN,3,4
28,4,object_04,object_10,257.09999996424,7,1,-1.0,0.0,1,object_01,1,0,0,8,3,restaurant_1,2,memory-2step-stake-s,523,2180250,0.0-19.0-0.0-0.28,A2MW5S0XS0D5MN,3QGHA0EA1MGR4GKNSEWY8BJ80SRWBM,3C44YUNSI55XLNJ0KQEB0RVZ4SZPDN,7,8
29,4,object_10,object_04,283.59999996424,7,2,-1.0,0.0,1,object_01,5,0,0,7,3,restaurant_1,2,memory-2step-stake-s,524,2188827,0.0-19.0-0.0-0.29,A2MW5S0XS0D5MN,3QGHA0EA1MGR4GKNSEWY8BJ80SRWBM,3C44YUNSI55XLNJ0KQEB0RVZ4SZPDN,8,7
30,2,object_08,object_05,570.39999997616,3,1,-1.0,0.0,1,object_01,5,0,0,5,2,forest_7,2,memory-2step-stake-s,525,2197439,0.0-19.0-0.0-0.30,A2MW5S0XS0D5MN,3QGHA0EA1MGR4GKNSEWY8BJ80SRWBM,3C44YUNSI55XLNJ0KQEB0RVZ4SZPDN,3,4
31,3,object_09,object_06,738.10000002384,5,2,-1.0,0.0,1,object_01,1,0,0,4,4,library_8,2,memory-2step-stake-s,526,2206023,0.0-19.0-0.0-0.31,A2MW5S0XS0D5MN,3QGHA0EA1MGR4GKNSEWY8BJ80SRWBM,3C44YUNSI55XLNJ0KQEB0RVZ4SZPDN,6,5
32,4,object_04,object_10,521.80000001192,7,1,-1.0,0.0,1,object_01,5,0,0,1,3,restaurant_7,2,memory-2step-stake-s,527,2214607,0.0-19.0-0.0-0.32,A2MW5S0XS0D5MN,3QGHA0EA1MGR4GKNSEWY8BJ80SRWBM,3C44YUNSI55XLNJ0KQEB0RVZ4SZPDN,7,8
33,4,object_04,object_10,786.10000002384,8,2,-1.0,0.0,2,object_02,1,0,0,2,1,restaurant_7,2,memory-2step-stake-s,528,2223178,0.0-19.0-0.0-0.33,A2MW5S0XS0D5MN,3QGHA0EA1MGR4GKNSEWY8BJ80SRWBM,3C44YUNSI55XLNJ0KQEB0RVZ4SZPDN,7,8
34,3,object_09,object_06,462.40000003576,6,1,-1.0,0.0,2,object_02,1,0,0,2,1,library_3,2,memory-2step-stake-s,529,2231783,0.0-19.0-0.0-0.34,A2MW5S0XS0D5MN,3QGHA0EA1MGR4GKNSEWY8BJ80SRWBM,3C44YUNSI55XLNJ0KQEB0RVZ4SZPDN,6,5
35,3,object_06,object_09,565.60000002384,5,1,-1.0,0.0,1,object_01,5,0,0,3,1,library_7,2,memory-2step-stake-s,530,2240375,0.0-19.0-0.0-0.35,A2MW5S0XS0D5MN,3QGHA0EA1MGR4GKNSEWY8BJ80SRWBM,3C44YUNSI55XLNJ0KQEB0RVZ4SZPDN,5,6
36,3,object_09,object_06,466.69999998808,5,2,-1.0,0.0,1,object_01,1,0,0,3,2,library_7,2,memory-2step-stake-s,531,2248954,0.0-19.0-0.0-0.36,A2MW5S0XS0D5MN,3QGHA0EA1MGR4GKNSEWY8BJ80SRWBM,3C44YUNSI55XLNJ0KQEB0RVZ4SZPDN,6,5
37,1,object_03,object_07,316.19999998808,2,1,-1.0,0.0,2,object_02,5,0,0,3,0,desert_5,2,memory-2step-stake-s,532,2257551,0.0-19.0-0.0-0.37,A2MW5S0XS0D5MN,3QGHA0EA1MGR4GKNSEWY8BJ80SRWBM,3C44YUNSI55XLNJ0KQEB0RVZ4SZPDN,2,1
38,2,object_05,object_08,252.79999995232,3,2,-1.0,0.0,1,object_01,5,0,0,3,2,forest_6,2,memory-2step-stake-s,533,2266155,0.0-19.0-0.0-0.38,A2MW5S0XS0D5MN,3QGHA0EA1MGR4GKNSEWY8BJ80SRWBM,3C44YUNSI55XLNJ0KQEB0RVZ4SZPDN,4,3
39,4,object_10,object_04,985.09999996424,7,2,-1.0,0.0,1,object_01,5,0,0,2,7,restaurant_3,2,memory-2step-stake-s,534,2274722,0.0-19.0-0.0-0.39,A2MW5S0XS0D5MN,3QGHA0EA1MGR4GKNSEWY8BJ80SRWBM,3C44YUNSI55XLNJ0KQEB0RVZ4SZPDN,8,7
40,3,object_09,object_06,256.10000002384,6,1,987.59999996424,0.6666666666666666,2,object_02,1,6,0,1,6,library_3,2,memory-2step-stake-s,535,2283655,0.0-19.0-0.0-0.40,A2MW5S0XS0D5MN,3QGHA0EA1MGR4GKNSEWY8BJ80SRWBM,3C44YUNSI55XLNJ0KQEB0RVZ4SZPDN,6,5
41,3,object_09,object_06,1056.5,6,1,832.40000003576,0.4444444444444444,2,object_02,1,10,0,0,4,library_3,2,memory-2step-stake-s,536,2292183,0.0-19.0-0.0-0.41,A2MW5S0XS0D5MN,3QGHA0EA1MGR4GKNSEWY8BJ80SRWBM,3C44YUNSI55XLNJ0KQEB0RVZ4SZPDN,6,5
42,1,object_03,object_07,1179.5,1,2,432.39999997616,0.1111111111111111,1,object_01,5,15,0,1,3,desert_6,2,memory-2step-stake-s,537,2300000,0.0-19.0-0.0-0.42,A2MW5S0XS0D5MN,3QGHA0EA1MGR4GKNSEWY8BJ80SRWBM,3C44YUNSI55XLNJ0KQEB0RVZ4SZPDN,2,1
43,2,object_08,object_05,495.10000002384,3,1,446.89999997616,0.3333333333333333,1,object_01,1,18,0,3,0,forest_1,2,memory-2step-stake-s,538,2308071,0.0-19.0-0.0-0.43,A2MW5S0XS0D5MN,3QGHA0EA1MGR4GKNSEWY8BJ80SRWBM,3C44YUNSI55XLNJ0KQEB0RVZ4SZPDN,3,4
44,2,object_08,object_05,558.89999997616,4,2,701.30000001192,0.1111111111111111,2,object_02,5,23,0,6,1,forest_1,2,memory-2step-stake-s,539,2316140,0.0-19.0-0.0-0.44,A2MW5S0XS0D5MN,3QGHA0EA1MGR4GKNSEWY8BJ80SRWBM,3C44YUNSI55XLNJ0KQEB0RVZ4SZPDN,3,4
45,4,object_04,object_10,407.69999998808,7,1,545.10000002384,0.6666666666666666,1,object_01,1,29,0,6,4,restaurant_3,2,memory-2step-stake-s,540,2324630,0.0-19.0-0.0-0.45,A2MW5S0XS0D5MN,3QGHA0EA1MGR4GKNSEWY8BJ80SRWBM,3C44YUNSI55XLNJ0KQEB0RVZ4SZPDN,7,8
46,3,object_06,object_09,674.89999997616,5,1,413.0,1.0,1,object_01,5,74,0,9,6,library_3,2,memory-2step-stake-s,541,2333289,0.0-19.0-0.0-0.46,A2MW5S0XS0D5MN,3QGHA0EA1MGR4GKNSEWY8BJ80SRWBM,3C44YUNSI55XLNJ0KQEB0RVZ4SZPDN,5,6
47,2,object_05,object_08,735.0,3,2,481.5,1.0,1,object_01,5,119,0,9,5,forest_2,2,memory-2step-stake-s,542,2342054,0.0-19.0-0.0-0.47,A2MW5S0XS0D5MN,3QGHA0EA1MGR4GKNSEWY8BJ80SRWBM,3C44YUNSI55XLNJ0KQEB0RVZ4SZPDN,4,3
48,3,object_09,object_06,527.19999998808,6,1,591.5,0.4444444444444444,2,object_02,1,123,0,8,4,library_8,2,memory-2step-stake-s,543,2350381,0.0-19.0-0.0-0.48,A2MW5S0XS0D5MN,3QGHA0EA1MGR4GKNSEWY8BJ80SRWBM,3C44YUNSI55XLNJ0KQEB0RVZ4SZPDN,6,5
49,4,object_10,object_04,537.80000001192,7,2,389.09999996424,0.7777777777777778,1,object_01,1,130,0,7,0,restaurant_7,2,memory-2step-stake-s,544,2358831,0.0-19.0-0.0-0.49,A2MW5S0XS0D5MN,3QGHA0EA1MGR4GKNSEWY8BJ80SRWBM,3C44YUNSI55XLNJ0KQEB0RVZ4SZPDN,8,7
50,2,object_05,object_08,342.30000001192,4,1,464.30000001192,0.0,2,object_02,5,130,0,9,0,forest_1,2,memory-2step-stake-s,545,2366582,0.0-19.0-0.0-0.50,A2MW5S0XS0D5MN,3QGHA0EA1MGR4GKNSEWY8BJ80SRWBM,3C44YUNSI55XLNJ0KQEB0RVZ4SZPDN,4,3
51,2,object_05,object_08,553.39999997616,3,2,302.5,0.4444444444444444,1,object_01,5,150,0,4,0,forest_2,2,memory-2step-stake-s,546,2374593,0.0-19.0-0.0-0.51,A2MW5S0XS0D5MN,3QGHA0EA1MGR4GKNSEWY8BJ80SRWBM,3C44YUNSI55XLNJ0KQEB0RVZ4SZPDN,4,3
52,1,object_03,object_07,544.69999998808,2,1,506.90000003576,0.0,2,object_02,5,150,0,7,0,desert_6,2,memory-2step-stake-s,547,2382415,0.0-19.0-0.0-0.52,A2MW5S0XS0D5MN,3QGHA0EA1MGR4GKNSEWY8BJ80SRWBM,3C44YUNSI55XLNJ0KQEB0RVZ4SZPDN,2,1
53,1,object_03,object_07,657.39999997616,1,2,403.79999995232,0.2222222222222222,1,object_01,5,160,0,2,1,desert_8,2,memory-2step-stake-s,548,2390318,0.0-19.0-0.0-0.53,A2MW5S0XS0D5MN,3QGHA0EA1MGR4GKNSEWY8BJ80SRWBM,3C44YUNSI55XLNJ0KQEB0RVZ4SZPDN,2,1
54,2,object_05,object_08,501.89999997616,4,1,491.0,0.8888888888888888,2,object_02,5,200,0,4,8,forest_7,2,memory-2step-stake-s,549,2398946,0.0-19.0-0.0-0.54,A2MW5S0XS0D5MN,3QGHA0EA1MGR4GKNSEWY8BJ80SRWBM,3C44YUNSI55XLNJ0KQEB0RVZ4SZPDN,4,3
55,4,object_04,object_10,533.60000002384,8,2,369.90000003576,0.5555555555555556,2,object_02,1,205,0,7,5,restaurant_8,2,memory-2step-stake-s,550,2407162,0.0-19.0-0.0-0.55,A2MW5S0XS0D5MN,3QGHA0EA1MGR4GKNSEWY8BJ80SRWBM,3C44YUNSI55XLNJ0KQEB0RVZ4SZPDN,7,8
56,4,object_04,object_10,557.19999998808,7,1,345.29999995232,1.0,1,object_01,1,214,0,9,7,restaurant_3,2,memory-2step-stake-s,551,2415764,0.0-19.0-0.0-0.56,A2MW5S0XS0D5MN,3QGHA0EA1MGR4GKNSEWY8BJ80SRWBM,3C44YUNSI55XLNJ0KQEB0RVZ4SZPDN,7,8
57,3,object_09,object_06,663.60000002384,5,2,262.60000002384,0.8888888888888888,1,object_01,1,222,0,8,5,library_5,2,memory-2step-stake-s,552,2424182,0.0-19.0-0.0-0.57,A2MW5S0XS0D5MN,3QGHA0EA1MGR4GKNSEWY8BJ80SRWBM,3C44YUNSI55XLNJ0KQEB0RVZ4SZPDN,6,5
58,1,object_03,object_07,986.69999998808,1,2,386.90000003576,0.8888888888888888,1,object_01,1,230,0,8,4,desert_5,2,memory-2step-stake-s,553,2432760,0.0-19.0-0.0-0.58,A2MW5S0XS0D5MN,3QGHA0EA1MGR4GKNSEWY8BJ80SRWBM,3C44YUNSI55XLNJ0KQEB0RVZ4SZPDN,2,1
59,1,object_03,object_07,-1.0,-1,-1,-1.0,0.0,-,0,5,230,0,7,4,desert_3,2,memory-2step-stake-s,554,2439338,0.0-19.0-0.0-0.59,A2MW5S0XS0D5MN,3QGHA0EA1MGR4GKNSEWY8BJ80SRWBM,3C44YUNSI55XLNJ0KQEB0RVZ4SZPDN,2,1
60,2,object_05,object_08,608.0,3,2,550.5,0.7777777777777778,1,object_01,1,237,0,7,3,forest_2,2,memory-2step-stake-s,555,2447929,0.0-19.0-0.0-0.60,A2MW5S0XS0D5MN,3QGHA0EA1MGR4GKNSEWY8BJ80SRWBM,3C44YUNSI55XLNJ0KQEB0RVZ4SZPDN,4,3
61,4,object_04,object_10,785.89999997616,8,2,298.80000001192,0.3333333333333333,2,object_02,1,240,0,4,3,restaurant_7,2,memory-2step-stake-s,556,2455846,0.0-19.0-0.0-0.61,A2MW5S0XS0D5MN,3QGHA0EA1MGR4GKNSEWY8BJ80SRWBM,3C44YUNSI55XLNJ0KQEB0RVZ4SZPDN,7,8
62,3,object_06,object_09,794.0,5,1,447.10000002384,0.4444444444444444,1,object_01,5,260,0,4,4,library_5,2,memory-2step-stake-s,557,2464035,0.0-19.0-0.0-0.62,A2MW5S0XS0D5MN,3QGHA0EA1MGR4GKNSEWY8BJ80SRWBM,3C44YUNSI55XLNJ0KQEB0RVZ4SZPDN,5,6
63,4,object_10,object_04,593.0,7,2,502.89999997616,0.8888888888888888,1,object_01,1,268,0,8,7,restaurant_8,2,memory-2step-stake-s,558,2472703,0.0-19.0-0.0-0.63,A2MW5S0XS0D5MN,3QGHA0EA1MGR4GKNSEWY8BJ80SRWBM,3C44YUNSI55XLNJ0KQEB0RVZ4SZPDN,8,7
64,4,object_04,object_10,559.69999998808,7,1,430.0,0.8888888888888888,1,object_01,1,276,0,8,8,restaurant_8,2,memory-2step-stake-s,559,2481303,0.0-19.0-0.0-0.64,A2MW5S0XS0D5MN,3QGHA0EA1MGR4GKNSEWY8BJ80SRWBM,3C44YUNSI55XLNJ0KQEB0RVZ4SZPDN,7,8
65,3,object_06,object_09,697.90000003576,5,1,426.10000002384,0.5555555555555556,1,object_01,5,301,0,5,4,library_8,2,memory-2step-stake-s,560,2489573,0.0-19.0-0.0-0.65,A2MW5S0XS0D5MN,3QGHA0EA1MGR4GKNSEWY8BJ80SRWBM,3C44YUNSI55XLNJ0KQEB0RVZ4SZPDN,5,6
66,3,object_06,object_09,478.10000002384,6,2,510.89999997616,0.5555555555555556,2,object_02,1,306,0,7,5,library_7,2,memory-2step-stake-s,561,2497916,0.0-19.0-0.0-0.66,A2MW5S0XS0D5MN,3QGHA0EA1MGR4GKNSEWY8BJ80SRWBM,3C44YUNSI55XLNJ0KQEB0RVZ4SZPDN,5,6
67,2,object_08,object_05,520.90000003576,3,1,319.59999996424,0.4444444444444444,1,object_01,5,326,0,4,4,forest_2,2,memory-2step-stake-s,562,2505958,0.0-19.0-0.0-0.67,A2MW5S0XS0D5MN,3QGHA0EA1MGR4GKNSEWY8BJ80SRWBM,3C44YUNSI55XLNJ0KQEB0RVZ4SZPDN,3,4
68,3,object_09,object_06,612.20000004768,5,2,407.30000001192,0.2222222222222222,1,object_01,1,328,0,2,5,library_8,2,memory-2step-stake-s,563,2513897,0.0-19.0-0.0-0.68,A2MW5S0XS0D5MN,3QGHA0EA1MGR4GKNSEWY8BJ80SRWBM,3C44YUNSI55XLNJ0KQEB0RVZ4SZPDN,6,5
69,3,object_06,object_09,547.90000003576,5,1,360.80000001192,0.6666666666666666,1,object_01,1,334,0,6,7,library_7,2,memory-2step-stake-s,564,2522220,0.0-19.0-0.0-0.69,A2MW5S0XS0D5MN,3QGHA0EA1MGR4GKNSEWY8BJ80SRWBM,3C44YUNSI55XLNJ0KQEB0RVZ4SZPDN,5,6
70,1,object_03,object_07,659.20000004768,1,2,331.30000001192,0.8888888888888888,1,object_01,5,374,0,8,6,desert_5,2,memory-2step-stake-s,565,2530713,0.0-19.0-0.0-0.70,A2MW5S0XS0D5MN,3QGHA0EA1MGR4GKNSEWY8BJ80SRWBM,3C44YUNSI55XLNJ0KQEB0RVZ4SZPDN,2,1
71,1,object_03,object_07,487.19999998808,1,2,346.69999998808,1.0,1,object_01,5,419,0,9,1,desert_6,2,memory-2step-stake-s,566,2539323,0.0-19.0-0.0-0.71,A2MW5S0XS0D5MN,3QGHA0EA1MGR4GKNSEWY8BJ80SRWBM,3C44YUNSI55XLNJ0KQEB0RVZ4SZPDN,2,1
72,2,object_05,object_08,693.80000001192,3,2,-1.0,0.0,1,object_01,1,419,0,4,0,forest_7,2,memory-2step-stake-s,567,2547909,0.0-19.0-0.0-0.72,A2MW5S0XS0D5MN,3QGHA0EA1MGR4GKNSEWY8BJ80SRWBM,3C44YUNSI55XLNJ0KQEB0RVZ4SZPDN,4,3
73,4,object_10,object_04,912.60000002384,8,1,641.0,0.2222222222222222,2,object_02,1,421,0,5,2,restaurant_7,2,memory-2step-stake-s,568,2556046,0.0-19.0-0.0-0.73,A2MW5S0XS0D5MN,3QGHA0EA1MGR4GKNSEWY8BJ80SRWBM,3C44YUNSI55XLNJ0KQEB0RVZ4SZPDN,8,7
74,2,object_08,object_05,738.19999998808,4,2,330.80000001192,0.0,2,object_02,5,421,0,8,0,forest_6,2,memory-2step-stake-s,569,2563664,0.0-19.0-0.0-0.74,A2MW5S0XS0D5MN,3QGHA0EA1MGR4GKNSEWY8BJ80SRWBM,3C44YUNSI55XLNJ0KQEB0RVZ4SZPDN,3,4
75,2,object_08,object_05,634.39999997616,3,1,354.69999998808,0.8888888888888888,1,object_01,5,461,0,8,1,forest_6,2,memory-2step-stake-s,570,2572170,0.0-19.0-0.0-0.75,A2MW5S0XS0D5MN,3QGHA0EA1MGR4GKNSEWY8BJ80SRWBM,3C44YUNSI55XLNJ0KQEB0RVZ4SZPDN,3,4
76,1,object_03,object_07,509.30000001192,1,2,489.39999997616,0.8888888888888888,1,object_01,5,501,0,8,5,desert_8,2,memory-2step-stake-s,571,2580788,0.0-19.0-0.0-0.76,A2MW5S0XS0D5MN,3QGHA0EA1MGR4GKNSEWY8BJ80SRWBM,3C44YUNSI55XLNJ0KQEB0RVZ4SZPDN,2,1
77,4,object_10,object_04,785.89999997616,7,2,308.30000001192,0.6666666666666666,1,object_01,1,507,0,6,9,restaurant_3,2,memory-2step-stake-s,572,2589059,0.0-19.0-0.0-0.77,A2MW5S0XS0D5MN,3QGHA0EA1MGR4GKNSEWY8BJ80SRWBM,3C44YUNSI55XLNJ0KQEB0RVZ4SZPDN,8,7
78,2,object_08,object_05,508.89999997616,3,1,343.90000003576,0.4444444444444444,1,object_01,5,527,0,4,9,forest_2,2,memory-2step-stake-s,573,2597126,0.0-19.0-0.0-0.78,A2MW5S0XS0D5MN,3QGHA0EA1MGR4GKNSEWY8BJ80SRWBM,3C44YUNSI55XLNJ0KQEB0RVZ4SZPDN,3,4
79,2,object_08,object_05,953.90000003576,3,1,641.59999996424,0.5555555555555556,1,object_01,5,552,0,5,8,forest_6,2,memory-2step-stake-s,574,2605607,0.0-19.0-0.0-0.79,A2MW5S0XS0D5MN,3QGHA0EA1MGR4GKNSEWY8BJ80SRWBM,3C44YUNSI55XLNJ0KQEB0RVZ4SZPDN,3,4
80,2,object_08,object_05,494.69999998808,3,1,366.0,0.7777777777777778,1,object_01,1,559,0,7,9,forest_1,2,memory-2step-stake-s,575,2614031,0.0-19.0-0.0-0.80,A2MW5S0XS0D5MN,3QGHA0EA1MGR4GKNSEWY8BJ80SRWBM,3C44YUNSI55XLNJ0KQEB0RVZ4SZPDN,3,4
81,4,object_10,object_04,846.69999998808,8,1,497.5,0.7777777777777778,2,object_02,1,566,0,8,7,restaurant_1,2,memory-2step-stake-s,576,2622548,0.0-19.0-0.0-0.81,A2MW5S0XS0D5MN,3QGHA0EA1MGR4GKNSEWY8BJ80SRWBM,3C44YUNSI55XLNJ0KQEB0RVZ4SZPDN,8,7
82,1,object_07,object_03,533.5,1,1,467.80000001192,0.8888888888888888,1,object_01,5,606,0,8,6,desert_5,2,memory-2step-stake-s,577,2631170,0.0-19.0-0.0-0.82,A2MW5S0XS0D5MN,3QGHA0EA1MGR4GKNSEWY8BJ80SRWBM,3C44YUNSI55XLNJ0KQEB0RVZ4SZPDN,1,2
83,3,object_09,object_06,707.19999998808,6,1,366.30000001192,0.8888888888888888,2,object_02,5,646,0,8,8,library_8,2,memory-2step-stake-s,578,2639705,0.0-19.0-0.0-0.83,A2MW5S0XS0D5MN,3QGHA0EA1MGR4GKNSEWY8BJ80SRWBM,3C44YUNSI55XLNJ0KQEB0RVZ4SZPDN,6,5
84,1,object_07,object_03,597.89999997616,1,1,447.5,0.7777777777777778,1,object_01,5,681,0,7,8,desert_8,2,memory-2step-stake-s,579,2648185,0.0-19.0-0.0-0.84,A2MW5S0XS0D5MN,3QGHA0EA1MGR4GKNSEWY8BJ80SRWBM,3C44YUNSI55XLNJ0KQEB0RVZ4SZPDN,1,2
85,1,object_03,object_07,746.69999998808,1,2,434.59999996424,0.8888888888888888,1,object_01,5,721,0,8,5,desert_8,2,memory-2step-stake-s,580,2656794,0.0-19.0-0.0-0.85,A2MW5S0XS0D5MN,3QGHA0EA1MGR4GKNSEWY8BJ80SRWBM,3C44YUNSI55XLNJ0KQEB0RVZ4SZPDN,2,1
86,3,object_09,object_06,683.89999997616,6,1,271.39999997616,0.6666666666666666,2,object_02,1,727,0,9,6,library_8,2,memory-2step-stake-s,581,2665015,0.0-19.0-0.0-0.86,A2MW5S0XS0D5MN,3QGHA0EA1MGR4GKNSEWY8BJ80SRWBM,3C44YUNSI55XLNJ0KQEB0RVZ4SZPDN,6,5
87,4,object_04,object_10,674.10000002384,8,2,279.0,0.5555555555555556,2,object_02,1,732,0,7,5,restaurant_1,2,memory-2step-stake-s,582,2673135,0.0-19.0-0.0-0.87,A2MW5S0XS0D5MN,3QGHA0EA1MGR4GKNSEWY8BJ80SRWBM,3C44YUNSI55XLNJ0KQEB0RVZ4SZPDN,7,8
88,1,object_07,object_03,501.80000001192,1,1,591.59999996424,0.7777777777777778,1,object_01,5,767,0,7,8,desert_8,2,memory-2step-stake-s,583,2681760,0.0-19.0-0.0-0.88,A2MW5S0XS0D5MN,3QGHA0EA1MGR4GKNSEWY8BJ80SRWBM,3C44YUNSI55XLNJ0KQEB0RVZ4SZPDN,1,2
89,3,object_06,object_09,833.09999996424,6,2,284.39999997616,0.7777777777777778,2,object_02,1,774,0,6,7,library_3,2,memory-2step-stake-s,584,2690082,0.0-19.0-0.0-0.89,A2MW5S0XS0D5MN,3QGHA0EA1MGR4GKNSEWY8BJ80SRWBM,3C44YUNSI55XLNJ0KQEB0RVZ4SZPDN,5,6
90,3,object_09,object_06,814.5,6,1,479.80000001192,0.8888888888888888,2,object_02,5,814,0,4,8,library_7,2,memory-2step-stake-s,585,2698688,0.0-19.0-0.0-0.90,A2MW5S0XS0D5MN,3QGHA0EA1MGR4GKNSEWY8BJ80SRWBM,3C44YUNSI55XLNJ0KQEB0RVZ4SZPDN,6,5
91,1,object_07,object_03,512.5,1,1,312.20000004768,0.5555555555555556,1,object_01,5,839,0,5,7,desert_3,2,memory-2step-stake-s,586,2706823,0.0-19.0-0.0-0.91,A2MW5S0XS0D5MN,3QGHA0EA1MGR4GKNSEWY8BJ80SRWBM,3C44YUNSI55XLNJ0KQEB0RVZ4SZPDN,1,2
92,4,object_10,object_04,993.59999996424,7,2,314.29999995232,0.4444444444444444,1,object_01,1,843,0,4,9,restaurant_1,2,memory-2step-stake-s,587,2714874,0.0-19.0-0.0-0.92,A2MW5S0XS0D5MN,3QGHA0EA1MGR4GKNSEWY8BJ80SRWBM,3C44YUNSI55XLNJ0KQEB0RVZ4SZPDN,8,7
93,3,object_06,object_09,686.80000001192,6,2,264.80000001192,1.0,2,object_02,1,852,0,2,9,library_5,2,memory-2step-stake-s,588,2723381,0.0-19.0-0.0-0.93,A2MW5S0XS0D5MN,3QGHA0EA1MGR4GKNSEWY8BJ80SRWBM,3C44YUNSI55XLNJ0KQEB0RVZ4SZPDN,5,6
94,4,object_04,object_10,786.89999997616,7,1,303.20000004768,0.1111111111111111,1,object_01,1,853,0,1,8,restaurant_1,2,memory-2step-stake-s,589,2731101,0.0-19.0-0.0-0.94,A2MW5S0XS0D5MN,3QGHA0EA1MGR4GKNSEWY8BJ80SRWBM,3C44YUNSI55XLNJ0KQEB0RVZ4SZPDN,7,8
95,4,object_04,object_10,467.0,8,2,448.39999997616,0.5555555555555556,2,object_02,1,858,0,0,5,restaurant_1,2,memory-2step-stake-s,590,2739391,0.0-19.0-0.0-0.95,A2MW5S0XS0D5MN,3QGHA0EA1MGR4GKNSEWY8BJ80SRWBM,3C44YUNSI55XLNJ0KQEB0RVZ4SZPDN,7,8
96,1,object_03,object_07,493.10000002384,2,1,506.60000002384,0.5555555555555556,2,object_02,1,863,0,1,5,desert_5,2,memory-2step-stake-s,591,2747729,0.0-19.0-0.0-0.96,A2MW5S0XS0D5MN,3QGHA0EA1MGR4GKNSEWY8BJ80SRWBM,3C44YUNSI55XLNJ0KQEB0RVZ4SZPDN,2,1
97,1,object_07,object_03,615.0,1,1,510.30000001192,0.1111111111111111,1,object_01,5,868,0,1,4,desert_8,2,memory-2step-stake-s,592,2755638,0.0-19.0-0.0-0.97,A2MW5S0XS0D5MN,3QGHA0EA1MGR4GKNSEWY8BJ80SRWBM,3C44YUNSI55XLNJ0KQEB0RVZ4SZPDN,1,2
98,2,object_05,object_08,1040.3999999762,3,2,430.20000004768,0.0,1,object_01,1,868,0,0,5,forest_6,2,memory-2step-stake-s,593,2763364,0.0-19.0-0.0-0.98,A2MW5S0XS0D5MN,3QGHA0EA1MGR4GKNSEWY8BJ80SRWBM,3C44YUNSI55XLNJ0KQEB0RVZ4SZPDN,4,3
99,3,object_06,object_09,576.59999996424,5,1,359.39999997616,0.2222222222222222,1,object_01,1,870,0,2,5,library_5,2,memory-2step-stake-s,594,2771236,0.0-19.0-0.0-0.99,A2MW5S0XS0D5MN,3QGHA0EA1MGR4GKNSEWY8BJ80SRWBM,3C44YUNSI55XLNJ0KQEB0RVZ4SZPDN,5,6
100,2,object_08,object_05,833.80000001192,3,1,300.20000004768,0.1111111111111111,1,object_01,1,871,0,1,6,forest_7,2,memory-2step-stake-s,595,2778947,0.0-19.0-0.0-0.100,A2MW5S0XS0D5MN,3QGHA0EA1MGR4GKNSEWY8BJ80SRWBM,3C44YUNSI55XLNJ0KQEB0RVZ4SZPDN,3,4
101,2,object_05,object_08,1045.5,3,2,355.90000003576,0.7777777777777778,1,object_01,5,906,0,7,3,forest_2,2,memory-2step-stake-s,596,2787360,0.0-19.0-0.0-0.101,A2MW5S0XS0D5MN,3QGHA0EA1MGR4GKNSEWY8BJ80SRWBM,3C44YUNSI55XLNJ0KQEB0RVZ4SZPDN,4,3
102,1,object_03,object_07,513.19999998808,1,2,231.60000002384,0.7777777777777778,1,object_01,5,941,0,7,2,desert_3,2,memory-2step-stake-s,597,2795648,0.0-19.0-0.0-0.102,A2MW5S0XS0D5MN,3QGHA0EA1MGR4GKNSEWY8BJ80SRWBM,3C44YUNSI55XLNJ0KQEB0RVZ4SZPDN,2,1
103,2,object_08,object_05,517.79999995232,3,1,478.30000001192,0.8888888888888888,1,object_01,5,981,0,8,3,forest_1,2,memory-2step-stake-s,598,2804342,0.0-19.0-0.0-0.103,A2MW5S0XS0D5MN,3QGHA0EA1MGR4GKNSEWY8BJ80SRWBM,3C44YUNSI55XLNJ0KQEB0RVZ4SZPDN,3,4
104,2,object_08,object_05,454.90000003576,3,1,139.90000003576,0.8888888888888888,1,object_01,5,1021,0,8,2,forest_7,2,memory-2step-stake-s,599,2812641,0.0-19.0-0.0-0.104,A2MW5S0XS0D5MN,3QGHA0EA1MGR4GKNSEWY8BJ80SRWBM,3C44YUNSI55XLNJ0KQEB0RVZ4SZPDN,3,4
105,4,object_04,object_10,681.69999998808,7,1,309.90000003576,0.7777777777777778,1,object_01,1,1028,0,7,3,restaurant_3,2,memory-2step-stake-s,600,2821016,0.0-19.0-0.0-0.105,A2MW5S0XS0D5MN,3QGHA0EA1MGR4GKNSEWY8BJ80SRWBM,3C44YUNSI55XLNJ0KQEB0RVZ4SZPDN,7,8
106,1,object_03,object_07,518.30000001192,1,2,332.89999997616,1.0,1,object_01,1,1037,0,9,4,desert_6,2,memory-2step-stake-s,601,2829643,0.0-19.0-0.0-0.106,A2MW5S0XS0D5MN,3QGHA0EA1MGR4GKNSEWY8BJ80SRWBM,3C44YUNSI55XLNJ0KQEB0RVZ4SZPDN,2,1
107,4,object_10,object_04,677.29999995232,7,2,243.30000001192,0.6666666666666666,1,object_01,5,1067,0,6,2,restaurant_3,2,memory-2step-stake-s,602,2837794,0.0-19.0-0.0-0.107,A2MW5S0XS0D5MN,3QGHA0EA1MGR4GKNSEWY8BJ80SRWBM,3C44YUNSI55XLNJ0KQEB0RVZ4SZPDN,8,7
108,3,object_06,object_09,672.59999996424,5,1,397.0,0.6666666666666666,1,object_01,1,1073,0,6,1,library_8,2,memory-2step-stake-s,603,2846168,0.0-19.0-0.0-0.108,A2MW5S0XS0D5MN,3QGHA0EA1MGR4GKNSEWY8BJ80SRWBM,3C44YUNSI55XLNJ0KQEB0RVZ4SZPDN,5,6
109,1,object_07,object_03,825.5,1,1,415.60000002384,0.7777777777777778,1,object_01,5,1108,0,7,2,desert_6,2,memory-2step-stake-s,604,2854593,0.0-19.0-0.0-0.109,A2MW5S0XS0D5MN,3QGHA0EA1MGR4GKNSEWY8BJ80SRWBM,3C44YUNSI55XLNJ0KQEB0RVZ4SZPDN,1,2
110,2,object_08,object_05,597.0,4,2,317.90000003576,0.6666666666666666,2,object_02,5,1138,0,5,6,forest_1,2,memory-2step-stake-s,605,2862834,0.0-19.0-0.0-0.110,A2MW5S0XS0D5MN,3QGHA0EA1MGR4GKNSEWY8BJ80SRWBM,3C44YUNSI55XLNJ0KQEB0RVZ4SZPDN,3,4
111,4,object_04,object_10,433.19999998808,8,2,317.30000001192,0.8888888888888888,2,object_02,1,1146,0,6,8,restaurant_7,2,memory-2step-stake-s,606,2871290,0.0-19.0-0.0-0.111,A2MW5S0XS0D5MN,3QGHA0EA1MGR4GKNSEWY8BJ80SRWBM,3C44YUNSI55XLNJ0KQEB0RVZ4SZPDN,7,8
112,4,object_10,object_04,986.40000003576,8,1,357.09999996424,0.6666666666666666,2,object_02,5,1176,0,6,6,restaurant_1,2,memory-2step-stake-s,607,2879584,0.0-19.0-0.0-0.112,A2MW5S0XS0D5MN,3QGHA0EA1MGR4GKNSEWY8BJ80SRWBM,3C44YUNSI55XLNJ0KQEB0RVZ4SZPDN,8,7
113,3,object_09,object_06,407.69999998808,5,2,226.59999996424,0.5555555555555556,1,object_01,1,1181,0,5,8,library_5,2,memory-2step-stake-s,608,2887636,0.0-19.0-0.0-0.113,A2MW5S0XS0D5MN,3QGHA0EA1MGR4GKNSEWY8BJ80SRWBM,3C44YUNSI55XLNJ0KQEB0RVZ4SZPDN,6,5
114,3,object_06,object_09,634.29999995232,6,2,257.69999998808,0.8888888888888888,2,object_02,1,1189,0,6,8,library_5,2,memory-2step-stake-s,609,2896052,0.0-19.0-0.0-0.114,A2MW5S0XS0D5MN,3QGHA0EA1MGR4GKNSEWY8BJ80SRWBM,3C44YUNSI55XLNJ0KQEB0RVZ4SZPDN,5,6
115,4,object_10,object_04,794.89999997616,7,2,558.5,0.8888888888888888,1,object_01,1,1197,0,8,5,restaurant_8,2,memory-2step-stake-s,610,2904780,0.0-19.0-0.0-0.115,A2MW5S0XS0D5MN,3QGHA0EA1MGR4GKNSEWY8BJ80SRWBM,3C44YUNSI55XLNJ0KQEB0RVZ4SZPDN,8,7
116,2,object_08,object_05,251.5,3,1,512.09999996424,0.8888888888888888,1,object_01,5,1237,0,8,8,forest_2,2,memory-2step-stake-s,611,2913459,0.0-19.0-0.0-0.116,A2MW5S0XS0D5MN,3QGHA0EA1MGR4GKNSEWY8BJ80SRWBM,3C44YUNSI55XLNJ0KQEB0RVZ4SZPDN,3,4
117,1,object_03,object_07,513.69999998808,2,1,420.60000002384,0.7777777777777778,2,object_02,5,1272,0,8,7,desert_6,2,memory-2step-stake-s,612,2921941,0.0-19.0-0.0-0.117,A2MW5S0XS0D5MN,3QGHA0EA1MGR4GKNSEWY8BJ80SRWBM,3C44YUNSI55XLNJ0KQEB0RVZ4SZPDN,2,1
118,1,object_07,object_03,349.40000003576,2,2,462.09999996424,0.8888888888888888,2,object_02,5,1312,0,9,8,desert_5,2,memory-2step-stake-s,613,2930555,0.0-19.0-0.0-0.118,A2MW5S0XS0D5MN,3QGHA0EA1MGR4GKNSEWY8BJ80SRWBM,3C44YUNSI55XLNJ0KQEB0RVZ4SZPDN,1,2
119,2,object_08,object_05,268.39999997616,3,1,605.5,0.6666666666666666,1,object_01,1,1318,0,6,7,forest_1,2,memory-2step-stake-s,614,2939089,0.0-19.0-0.0-0.119,A2MW5S0XS0D5MN,3QGHA0EA1MGR4GKNSEWY8BJ80SRWBM,3C44YUNSI55XLNJ0KQEB0RVZ4SZPDN,3,4
120,3,object_09,object_06,1493.8999999762,5,2,647.5,0.8888888888888888,1,object_01,1,1326,0,8,7,library_3,2,memory-2step-stake-s,615,2947887,0.0-19.0-0.0-0.120,A2MW5S0XS0D5MN,3QGHA0EA1MGR4GKNSEWY8BJ80SRWBM,3C44YUNSI55XLNJ0KQEB0RVZ4SZPDN,6,5
121,3,object_06,object_09,400.5,6,2,493.29999995232,0.8888888888888888,2,object_02,1,1334,0,9,8,library_8,2,memory-2step-stake-s,616,2956552,0.0-19.0-0.0-0.121,A2MW5S0XS0D5MN,3QGHA0EA1MGR4GKNSEWY8BJ80SRWBM,3C44YUNSI55XLNJ0KQEB0RVZ4SZPDN,5,6
122,2,object_05,object_08,780.09999996424,4,1,512.39999997616,0.8888888888888888,2,object_02,5,1374,0,6,8,forest_6,2,memory-2step-stake-s,617,2965198,0.0-19.0-0.0-0.122,A2MW5S0XS0D5MN,3QGHA0EA1MGR4GKNSEWY8BJ80SRWBM,3C44YUNSI55XLNJ0KQEB0RVZ4SZPDN,4,3
123,4,object_04,object_10,769.5,7,1,1074.1000000238,0.5555555555555556,1,object_01,1,1379,0,5,9,restaurant_7,2,memory-2step-stake-s,618,2974106,0.0-19.0-0.0-0.123,A2MW5S0XS0D5MN,3QGHA0EA1MGR4GKNSEWY8BJ80SRWBM,3C44YUNSI55XLNJ0KQEB0RVZ4SZPDN,7,8
124,4,object_04,object_10,605.39999997616,8,2,420.5,0.8888888888888888,2,object_02,1,1387,0,2,8,restaurant_8,2,memory-2step-stake-s,619,2982766,0.0-19.0-0.0-0.124,A2MW5S0XS0D5MN,3QGHA0EA1MGR4GKNSEWY8BJ80SRWBM,3C44YUNSI55XLNJ0KQEB0RVZ4SZPDN,7,8
125,3,object_09,object_06,596.69999998808,6,1,821.10000002384,0.7777777777777778,2,object_02,1,1394,0,2,7,library_8,2,memory-2step-stake-s,620,2991646,0.0-19.0-0.0-0.125,A2MW5S0XS0D5MN,3QGHA0EA1MGR4GKNSEWY8BJ80SRWBM,3C44YUNSI55XLNJ0KQEB0RVZ4SZPDN,6,5
126,2,object_05,object_08,733.5,3,2,844.60000002384,0.2222222222222222,1,object_01,5,1404,0,2,4,forest_1,2,memory-2step-stake-s,621,2999994,0.0-19.0-0.0-0.126,A2MW5S0XS0D5MN,3QGHA0EA1MGR4GKNSEWY8BJ80SRWBM,3C44YUNSI55XLNJ0KQEB0RVZ4SZPDN,4,3
127,1,object_03,object_07,1230.8999999762,1,2,463.80000001192,0.5555555555555556,1,object_01,5,1429,0,5,1,desert_3,2,memory-2step-stake-s,622,3008275,0.0-19.0-0.0-0.127,A2MW5S0XS0D5MN,3QGHA0EA1MGR4GKNSEWY8BJ80SRWBM,3C44YUNSI55XLNJ0KQEB0RVZ4SZPDN,2,1
128,4,object_04,object_10,897.5,8,2,409.69999998808,0.2222222222222222,2,object_02,1,1431,0,4,2,restaurant_8,2,memory-2step-stake-s,624,3204679,0.0-19.0-0.1-0.128,A2MW5S0XS0D5MN,3QGHA0EA1MGR4GKNSEWY8BJ80SRWBM,3C44YUNSI55XLNJ0KQEB0RVZ4SZPDN,7,8
129,4,object_04,object_10,468.59999996424,7,1,351.40000003576,0.2222222222222222,1,object_01,1,1433,0,2,2,restaurant_1,2,memory-2step-stake-s,625,3212515,0.0-19.0-0.1-0.129,A2MW5S0XS0D5MN,3QGHA0EA1MGR4GKNSEWY8BJ80SRWBM,3C44YUNSI55XLNJ0KQEB0RVZ4SZPDN,7,8
130,1,object_07,object_03,511.60000002384,1,1,316.20000004768,0.6666666666666666,1,object_01,5,1463,0,6,1,desert_6,2,memory-2step-stake-s,626,3220783,0.0-19.0-0.1-0.130,A2MW5S0XS0D5MN,3QGHA0EA1MGR4GKNSEWY8BJ80SRWBM,3C44YUNSI55XLNJ0KQEB0RVZ4SZPDN,1,2
131,1,object_03,object_07,533.10000002384,1,2,648.40000003576,0.5555555555555556,1,object_01,5,1488,0,5,6,desert_3,2,memory-2step-stake-s,627,3229244,0.0-19.0-0.1-0.131,A2MW5S0XS0D5MN,3QGHA0EA1MGR4GKNSEWY8BJ80SRWBM,3C44YUNSI55XLNJ0KQEB0RVZ4SZPDN,2,1
132,1,object_07,object_03,483.30000001192,1,1,462.69999998808,0.7777777777777778,1,object_01,5,1523,0,7,8,desert_5,2,memory-2step-stake-s,628,3237782,0.0-19.0-0.1-0.132,A2MW5S0XS0D5MN,3QGHA0EA1MGR4GKNSEWY8BJ80SRWBM,3C44YUNSI55XLNJ0KQEB0RVZ4SZPDN,1,2
133,1,object_03,object_07,817.40000003576,1,2,1417.5999999642,0.8888888888888888,1,object_01,5,1563,0,8,9,desert_5,2,memory-2step-stake-s,629,3247344,0.0-19.0-0.1-0.133,A2MW5S0XS0D5MN,3QGHA0EA1MGR4GKNSEWY8BJ80SRWBM,3C44YUNSI55XLNJ0KQEB0RVZ4SZPDN,2,1
134,4,object_10,object_04,565.80000001192,8,1,737.59999996424,1.0,2,object_02,1,1572,0,9,9,restaurant_8,2,memory-2step-stake-s,630,3256350,0.0-19.0-0.1-0.134,A2MW5S0XS0D5MN,3QGHA0EA1MGR4GKNSEWY8BJ80SRWBM,3C44YUNSI55XLNJ0KQEB0RVZ4SZPDN,8,7
135,1,object_03,object_07,1000.8999999762,1,2,720.5,0.8888888888888888,1,object_01,1,1580,0,8,6,desert_3,2,memory-2step-stake-s,631,3265237,0.0-19.0-0.1-0.135,A2MW5S0XS0D5MN,3QGHA0EA1MGR4GKNSEWY8BJ80SRWBM,3C44YUNSI55XLNJ0KQEB0RVZ4SZPDN,2,1
136,4,object_04,object_10,757.59999996424,7,1,347.19999998808,0.7777777777777778,1,object_01,1,1587,0,7,7,restaurant_3,2,memory-2step-stake-s,632,3273633,0.0-19.0-0.1-0.136,A2MW5S0XS0D5MN,3QGHA0EA1MGR4GKNSEWY8BJ80SRWBM,3C44YUNSI55XLNJ0KQEB0RVZ4SZPDN,7,8
137,3,object_06,object_09,625.0,6,2,575.20000004768,0.6666666666666666,2,object_02,5,1617,0,7,6,library_7,2,memory-2step-stake-s,633,3282156,0.0-19.0-0.1-0.137,A2MW5S0XS0D5MN,3QGHA0EA1MGR4GKNSEWY8BJ80SRWBM,3C44YUNSI55XLNJ0KQEB0RVZ4SZPDN,5,6
138,3,object_06,object_09,537.19999998808,6,2,398.90000003576,0.5555555555555556,2,object_02,5,1642,0,8,5,library_3,2,memory-2step-stake-s,634,3290413,0.0-19.0-0.1-0.138,A2MW5S0XS0D5MN,3QGHA0EA1MGR4GKNSEWY8BJ80SRWBM,3C44YUNSI55XLNJ0KQEB0RVZ4SZPDN,5,6
139,2,object_08,object_05,612.0,3,1,444.30000001192,0.7777777777777778,1,object_01,5,1677,0,7,5,forest_7,2,memory-2step-stake-s,635,3298908,0.0-19.0-0.1-0.139,A2MW5S0XS0D5MN,3QGHA0EA1MGR4GKNSEWY8BJ80SRWBM,3C44YUNSI55XLNJ0KQEB0RVZ4SZPDN,3,4
140,4,object_10,object_04,659.5,7,2,523.19999998808,0.5555555555555556,1,object_01,1,1682,0,5,8,restaurant_8,2,memory-2step-stake-s,636,3307255,0.0-19.0-0.1-0.140,A2MW5S0XS0D5MN,3QGHA0EA1MGR4GKNSEWY8BJ80SRWBM,3C44YUNSI55XLNJ0KQEB0RVZ4SZPDN,8,7
141,1,object_07,object_03,491.80000001192,1,1,244.19999998808,0.7777777777777778,1,object_01,1,1689,0,7,7,desert_3,2,memory-2step-stake-s,637,3315533,0.0-19.0-0.1-0.141,A2MW5S0XS0D5MN,3QGHA0EA1MGR4GKNSEWY8BJ80SRWBM,3C44YUNSI55XLNJ0KQEB0RVZ4SZPDN,1,2
142,4,object_10,object_04,591.19999998808,7,2,587.89999997616,1.0,1,object_01,1,1698,0,9,7,restaurant_7,2,memory-2step-stake-s,638,3324399,0.0-19.0-0.1-0.142,A2MW5S0XS0D5MN,3QGHA0EA1MGR4GKNSEWY8BJ80SRWBM,3C44YUNSI55XLNJ0KQEB0RVZ4SZPDN,8,7
143,1,object_03,object_07,563.90000003576,1,2,613.0,1.0,1,object_01,1,1707,0,9,8,desert_3,2,memory-2step-stake-s,639,3333291,0.0-19.0-0.1-0.143,A2MW5S0XS0D5MN,3QGHA0EA1MGR4GKNSEWY8BJ80SRWBM,3C44YUNSI55XLNJ0KQEB0RVZ4SZPDN,2,1
144,4,object_04,object_10,709.69999998808,7,1,427.10000002384,0.7777777777777778,1,object_01,1,1714,0,7,9,restaurant_7,2,memory-2step-stake-s,640,3341815,0.0-19.0-0.1-0.144,A2MW5S0XS0D5MN,3QGHA0EA1MGR4GKNSEWY8BJ80SRWBM,3C44YUNSI55XLNJ0KQEB0RVZ4SZPDN,7,8
145,2,object_05,object_08,666.5,3,2,387.89999997616,0.7777777777777778,1,object_01,5,1749,0,7,9,forest_7,2,memory-2step-stake-s,641,3350272,0.0-19.0-0.1-0.145,A2MW5S0XS0D5MN,3QGHA0EA1MGR4GKNSEWY8BJ80SRWBM,3C44YUNSI55XLNJ0KQEB0RVZ4SZPDN,4,3
146,4,object_10,object_04,468.89999997616,8,1,490.79999995232,0.7777777777777778,2,object_02,5,1784,0,8,7,restaurant_3,2,memory-2step-stake-s,642,3358789,0.0-19.0-0.1-0.146,A2MW5S0XS0D5MN,3QGHA0EA1MGR4GKNSEWY8BJ80SRWBM,3C44YUNSI55XLNJ0KQEB0RVZ4SZPDN,8,7
147,2,object_05,object_08,626.0,3,2,284.69999998808,1.0,1,object_01,5,1829,0,9,6,forest_2,2,memory-2step-stake-s,643,3367292,0.0-19.0-0.1-0.147,A2MW5S0XS0D5MN,3QGHA0EA1MGR4GKNSEWY8BJ80SRWBM,3C44YUNSI55XLNJ0KQEB0RVZ4SZPDN,4,3
148,4,object_10,object_04,326.5,8,1,465.59999996424,0.4444444444444444,2,object_02,5,1849,0,7,4,restaurant_8,2,memory-2step-stake-s,644,3375473,0.0-19.0-0.1-0.148,A2MW5S0XS0D5MN,3QGHA0EA1MGR4GKNSEWY8BJ80SRWBM,3C44YUNSI55XLNJ0KQEB0RVZ4SZPDN,8,7
149,4,object_10,object_04,482.70000004768,7,2,240.80000001192,0.6666666666666666,1,object_01,1,1855,0,6,8,restaurant_3,2,memory-2step-stake-s,645,3383638,0.0-19.0-0.1-0.149,A2MW5S0XS0D5MN,3QGHA0EA1MGR4GKNSEWY8BJ80SRWBM,3C44YUNSI55XLNJ0KQEB0RVZ4SZPDN,8,7
150,3,object_09,object_06,46.600000023842,6,1,348.10000002384,0.8888888888888888,2,object_02,1,1863,0,6,8,library_5,2,memory-2step-stake-s,646,3392142,0.0-19.0-0.1-0.150,A2MW5S0XS0D5MN,3QGHA0EA1MGR4GKNSEWY8BJ80SRWBM,3C44YUNSI55XLNJ0KQEB0RVZ4SZPDN,6,5
151,3,object_06,object_09,533.5,6,2,394.59999996424,0.8888888888888888,2,object_02,1,1871,0,6,8,library_3,2,memory-2step-stake-s,647,3400706,0.0-19.0-0.1-0.151,A2MW5S0XS0D5MN,3QGHA0EA1MGR4GKNSEWY8BJ80SRWBM,3C44YUNSI55XLNJ0KQEB0RVZ4SZPDN,5,6
152,1,object_03,object_07,578.69999998808,1,2,392.80000001192,0.4444444444444444,1,object_01,5,1891,0,4,6,desert_8,2,memory-2step-stake-s,648,3408821,0.0-19.0-0.1-0.152,A2MW5S0XS0D5MN,3QGHA0EA1MGR4GKNSEWY8BJ80SRWBM,3C44YUNSI55XLNJ0KQEB0RVZ4SZPDN,2,1
153,4,object_10,object_04,489.69999998808,8,1,578.20000004768,0.6666666666666666,2,object_02,1,1897,0,6,6,restaurant_7,2,memory-2step-stake-s,649,3417372,0.0-19.0-0.1-0.153,A2MW5S0XS0D5MN,3QGHA0EA1MGR4GKNSEWY8BJ80SRWBM,3C44YUNSI55XLNJ0KQEB0RVZ4SZPDN,8,7
154,3,object_06,object_09,554.0,6,2,384.0,0.5555555555555556,2,object_02,1,1902,0,7,5,library_3,2,memory-2step-stake-s,650,3425565,0.0-19.0-0.1-0.154,A2MW5S0XS0D5MN,3QGHA0EA1MGR4GKNSEWY8BJ80SRWBM,3C44YUNSI55XLNJ0KQEB0RVZ4SZPDN,5,6
155,2,object_08,object_05,766.5,3,1,343.40000003576,0.7777777777777778,1,object_01,1,1909,0,7,4,forest_1,2,memory-2step-stake-s,651,3433931,0.0-19.0-0.1-0.155,A2MW5S0XS0D5MN,3QGHA0EA1MGR4GKNSEWY8BJ80SRWBM,3C44YUNSI55XLNJ0KQEB0RVZ4SZPDN,3,4
156,2,object_08,object_05,794.09999996424,3,1,751.90000003576,0.7777777777777778,1,object_01,5,1944,0,7,1,forest_7,2,memory-2step-stake-s,652,3442732,0.0-19.0-0.1-0.156,A2MW5S0XS0D5MN,3QGHA0EA1MGR4GKNSEWY8BJ80SRWBM,3C44YUNSI55XLNJ0KQEB0RVZ4SZPDN,3,4
157,2,object_08,object_05,654.09999996424,3,1,576.09999996424,0.6666666666666666,1,object_01,5,1974,0,6,1,forest_1,2,memory-2step-stake-s,653,3451243,0.0-19.0-0.1-0.157,A2MW5S0XS0D5MN,3QGHA0EA1MGR4GKNSEWY8BJ80SRWBM,3C44YUNSI55XLNJ0KQEB0RVZ4SZPDN,3,4
158,4,object_04,object_10,495.09999996424,7,1,428.30000001192,0.6666666666666666,1,object_01,1,1980,0,6,2,restaurant_3,2,memory-2step-stake-s,654,3459592,0.0-19.0-0.1-0.158,A2MW5S0XS0D5MN,3QGHA0EA1MGR4GKNSEWY8BJ80SRWBM,3C44YUNSI55XLNJ0KQEB0RVZ4SZPDN,7,8
159,3,object_09,object_06,463.0,5,2,296.39999997616,0.5555555555555556,1,object_01,1,1985,0,5,2,library_5,2,memory-2step-stake-s,655,3467721,0.0-19.0-0.1-0.159,A2MW5S0XS0D5MN,3QGHA0EA1MGR4GKNSEWY8BJ80SRWBM,3C44YUNSI55XLNJ0KQEB0RVZ4SZPDN,6,5
160,4,object_04,object_10,563.30000001192,7,1,500.89999997616,0.3333333333333333,1,object_01,5,2000,0,3,1,restaurant_8,2,memory-2step-stake-s,656,3475847,0.0-19.0-0.1-0.160,A2MW5S0XS0D5MN,3QGHA0EA1MGR4GKNSEWY8BJ80SRWBM,3C44YUNSI55XLNJ0KQEB0RVZ4SZPDN,7,8
161,1,object_07,object_03,748.5,1,1,726.89999997616,0.3333333333333333,1,object_01,5,2015,0,3,2,desert_3,2,memory-2step-stake-s,657,3484172,0.0-19.0-0.1-0.161,A2MW5S0XS0D5MN,3QGHA0EA1MGR4GKNSEWY8BJ80SRWBM,3C44YUNSI55XLNJ0KQEB0RVZ4SZPDN,1,2
162,3,object_06,object_09,619.89999997616,6,2,439.40000003576,0.6666666666666666,2,object_02,1,2021,0,2,6,library_8,2,memory-2step-stake-s,658,3492526,0.0-19.0-0.1-0.162,A2MW5S0XS0D5MN,3QGHA0EA1MGR4GKNSEWY8BJ80SRWBM,3C44YUNSI55XLNJ0KQEB0RVZ4SZPDN,5,6
163,4,object_04,object_10,779.19999998808,7,1,319.0,0.3333333333333333,1,object_01,1,2024,0,3,4,restaurant_7,2,memory-2step-stake-s,659,3500472,0.0-19.0-0.1-0.163,A2MW5S0XS0D5MN,3QGHA0EA1MGR4GKNSEWY8BJ80SRWBM,3C44YUNSI55XLNJ0KQEB0RVZ4SZPDN,7,8
164,2,object_08,object_05,789.30000001192,3,1,1261.5,0.2222222222222222,1,object_01,1,2026,0,2,4,forest_2,2,memory-2step-stake-s,660,3509244,0.0-19.0-0.1-0.164,A2MW5S0XS0D5MN,3QGHA0EA1MGR4GKNSEWY8BJ80SRWBM,3C44YUNSI55XLNJ0KQEB0RVZ4SZPDN,3,4
165,3,object_06,object_09,970.10000002384,6,2,329.29999995232,0.1111111111111111,2,object_02,1,2027,0,1,1,library_7,2,memory-2step-stake-s,661,3516978,0.0-19.0-0.1-0.165,A2MW5S0XS0D5MN,3QGHA0EA1MGR4GKNSEWY8BJ80SRWBM,3C44YUNSI55XLNJ0KQEB0RVZ4SZPDN,5,6
166,4,object_04,object_10,564.70000004768,7,1,557.5,0.0,1,object_01,5,2027,0,0,1,restaurant_3,2,memory-2step-stake-s,662,3524836,0.0-19.0-0.1-0.166,A2MW5S0XS0D5MN,3QGHA0EA1MGR4GKNSEWY8BJ80SRWBM,3C44YUNSI55XLNJ0KQEB0RVZ4SZPDN,7,8
167,4,object_04,object_10,429.5,8,2,391.0,0.2222222222222222,2,object_02,5,2037,0,1,2,restaurant_1,2,memory-2step-stake-s,663,3532756,0.0-19.0-0.1-0.167,A2MW5S0XS0D5MN,3QGHA0EA1MGR4GKNSEWY8BJ80SRWBM,3C44YUNSI55XLNJ0KQEB0RVZ4SZPDN,7,8
168,2,object_05,object_08,-1.0,-1,-1,-1.0,0.0,-,0,5,2037,0,1,4,forest_2,2,memory-2step-stake-s,664,3539290,0.0-19.0-0.1-0.168,A2MW5S0XS0D5MN,3QGHA0EA1MGR4GKNSEWY8BJ80SRWBM,3C44YUNSI55XLNJ0KQEB0RVZ4SZPDN,4,3
169,1,object_07,object_03,622.0,2,2,105.69999998808,0.3333333333333333,2,object_02,5,2052,0,2,3,desert_5,2,memory-2step-stake-s,665,3547033,0.0-19.0-0.1-0.169,A2MW5S0XS0D5MN,3QGHA0EA1MGR4GKNSEWY8BJ80SRWBM,3C44YUNSI55XLNJ0KQEB0RVZ4SZPDN,1,2
170,4,object_10,object_04,286.30000001192,8,1,314.90000003576,0.4444444444444444,2,object_02,1,2056,0,2,4,restaurant_7,2,memory-2step-stake-s,666,3555061,0.0-19.0-0.1-0.170,A2MW5S0XS0D5MN,3QGHA0EA1MGR4GKNSEWY8BJ80SRWBM,3C44YUNSI55XLNJ0KQEB0RVZ4SZPDN,8,7
171,2,object_08,object_05,750.29999995232,4,2,303.5,0.5555555555555556,2,object_02,5,2081,0,5,5,forest_7,2,memory-2step-stake-s,667,3563202,0.0-19.0-0.1-0.171,A2MW5S0XS0D5MN,3QGHA0EA1MGR4GKNSEWY8BJ80SRWBM,3C44YUNSI55XLNJ0KQEB0RVZ4SZPDN,3,4
172,4,object_10,object_04,270.5,8,1,78.0,0.8888888888888888,2,object_02,1,2089,0,1,8,restaurant_8,2,memory-2step-stake-s,668,3571427,0.0-19.0-0.1-0.172,A2MW5S0XS0D5MN,3QGHA0EA1MGR4GKNSEWY8BJ80SRWBM,3C44YUNSI55XLNJ0KQEB0RVZ4SZPDN,8,7
173,3,object_06,object_09,954.40000003576,6,2,811.29999995232,1.0,2,object_02,1,2098,0,1,9,library_7,2,memory-2step-stake-s,669,3580487,0.0-19.0-0.1-0.173,A2MW5S0XS0D5MN,3QGHA0EA1MGR4GKNSEWY8BJ80SRWBM,3C44YUNSI55XLNJ0KQEB0RVZ4SZPDN,5,6
174,1,object_03,object_07,789.69999998808,1,2,303.30000001192,0.0,1,object_01,5,2098,0,0,7,desert_6,2,memory-2step-stake-s,670,3588094,0.0-19.0-0.1-0.174,A2MW5S0XS0D5MN,3QGHA0EA1MGR4GKNSEWY8BJ80SRWBM,3C44YUNSI55XLNJ0KQEB0RVZ4SZPDN,2,1
175,3,object_06,object_09,611.60000002384,6,2,263.0,0.7777777777777778,2,object_02,1,2105,0,1,7,library_7,2,memory-2step-stake-s,671,3596409,0.0-19.0-0.1-0.175,A2MW5S0XS0D5MN,3QGHA0EA1MGR4GKNSEWY8BJ80SRWBM,3C44YUNSI55XLNJ0KQEB0RVZ4SZPDN,5,6
176,2,object_08,object_05,693.30000001192,3,1,142.40000003576,0.4444444444444444,1,object_01,5,2125,0,4,7,forest_6,2,memory-2step-stake-s,672,3604248,0.0-19.0-0.1-0.176,A2MW5S0XS0D5MN,3QGHA0EA1MGR4GKNSEWY8BJ80SRWBM,3C44YUNSI55XLNJ0KQEB0RVZ4SZPDN,3,4
177,1,object_07,object_03,569.5,1,1,282.10000002384,0.3333333333333333,1,object_01,5,2140,0,3,8,desert_8,2,memory-2step-stake-s,673,3612132,0.0-19.0-0.1-0.177,A2MW5S0XS0D5MN,3QGHA0EA1MGR4GKNSEWY8BJ80SRWBM,3C44YUNSI55XLNJ0KQEB0RVZ4SZPDN,1,2
178,2,object_05,object_08,507.10000002384,3,2,464.19999998808,0.0,1,object_01,5,2140,0,0,8,forest_2,2,memory-2step-stake-s,674,3619865,0.0-19.0-0.1-0.178,A2MW5S0XS0D5MN,3QGHA0EA1MGR4GKNSEWY8BJ80SRWBM,3C44YUNSI55XLNJ0KQEB0RVZ4SZPDN,4,3
179,1,object_03,object_07,428.59999996424,2,1,332.5,0.6666666666666666,2,object_02,5,2170,0,3,6,desert_5,2,memory-2step-stake-s,675,3628164,0.0-19.0-0.1-0.179,A2MW5S0XS0D5MN,3QGHA0EA1MGR4GKNSEWY8BJ80SRWBM,3C44YUNSI55XLNJ0KQEB0RVZ4SZPDN,2,1
180,4,object_10,object_04,246.10000002384,8,1,293.89999997616,0.7777777777777778,2,object_02,1,2177,0,6,7,restaurant_7,2,memory-2step-stake-s,676,3636517,0.0-19.0-0.1-0.180,A2MW5S0XS0D5MN,3QGHA0EA1MGR4GKNSEWY8BJ80SRWBM,3C44YUNSI55XLNJ0KQEB0RVZ4SZPDN,8,7
181,2,object_05,object_08,567.40000003576,4,1,302.19999998808,0.4444444444444444,2,object_02,5,2197,0,6,4,forest_7,2,memory-2step-stake-s,677,3644547,0.0-19.0-0.1-0.181,A2MW5S0XS0D5MN,3QGHA0EA1MGR4GKNSEWY8BJ80SRWBM,3C44YUNSI55XLNJ0KQEB0RVZ4SZPDN,4,3
182,3,object_09,object_06,484.90000003576,5,2,274.0,0.7777777777777778,1,object_01,1,2204,0,7,5,library_3,2,memory-2step-stake-s,678,3652859,0.0-19.0-0.1-0.182,A2MW5S0XS0D5MN,3QGHA0EA1MGR4GKNSEWY8BJ80SRWBM,3C44YUNSI55XLNJ0KQEB0RVZ4SZPDN,6,5
183,1,object_03,object_07,717.0,2,1,325.60000002384,0.3333333333333333,2,object_02,5,2219,0,8,3,desert_3,2,memory-2step-stake-s,679,3660792,0.0-19.0-0.1-0.183,A2MW5S0XS0D5MN,3QGHA0EA1MGR4GKNSEWY8BJ80SRWBM,3C44YUNSI55XLNJ0KQEB0RVZ4SZPDN,2,1
184,2,object_08,object_05,432.19999998808,3,1,322.79999995232,0.6666666666666666,1,object_01,5,2249,0,6,1,forest_7,2,memory-2step-stake-s,680,3669050,0.0-19.0-0.1-0.184,A2MW5S0XS0D5MN,3QGHA0EA1MGR4GKNSEWY8BJ80SRWBM,3C44YUNSI55XLNJ0KQEB0RVZ4SZPDN,3,4
185,1,object_07,object_03,541.19999998808,2,2,288.29999995232,0.1111111111111111,2,object_02,5,2254,0,5,1,desert_6,2,memory-2step-stake-s,681,3676762,0.0-19.0-0.1-0.185,A2MW5S0XS0D5MN,3QGHA0EA1MGR4GKNSEWY8BJ80SRWBM,3C44YUNSI55XLNJ0KQEB0RVZ4SZPDN,1,2
186,2,object_08,object_05,538.5,3,1,257.30000001192,0.5555555555555556,1,object_01,5,2279,0,5,5,forest_1,2,memory-2step-stake-s,682,3684816,0.0-19.0-0.1-0.186,A2MW5S0XS0D5MN,3QGHA0EA1MGR4GKNSEWY8BJ80SRWBM,3C44YUNSI55XLNJ0KQEB0RVZ4SZPDN,3,4
187,1,object_03,object_07,573.59999996424,2,1,360.69999998808,0.4444444444444444,2,object_02,5,2299,0,3,4,desert_8,2,memory-2step-stake-s,683,3692876,0.0-19.0-0.1-0.187,A2MW5S0XS0D5MN,3QGHA0EA1MGR4GKNSEWY8BJ80SRWBM,3C44YUNSI55XLNJ0KQEB0RVZ4SZPDN,2,1
188,1,object_03,object_07,582.0,2,1,355.79999995232,0.2222222222222222,2,object_02,1,2301,0,4,2,desert_3,2,memory-2step-stake-s,684,3700738,0.0-19.0-0.1-0.188,A2MW5S0XS0D5MN,3QGHA0EA1MGR4GKNSEWY8BJ80SRWBM,3C44YUNSI55XLNJ0KQEB0RVZ4SZPDN,2,1
189,2,object_08,object_05,397.60000002384,4,2,415.69999998808,0.5555555555555556,2,object_02,5,2326,0,3,5,forest_6,2,memory-2step-stake-s,685,3708984,0.0-19.0-0.1-0.189,A2MW5S0XS0D5MN,3QGHA0EA1MGR4GKNSEWY8BJ80SRWBM,3C44YUNSI55XLNJ0KQEB0RVZ4SZPDN,3,4
190,1,object_07,object_03,519.39999997616,1,1,318.10000002384,0.0,1,object_01,5,2326,0,0,4,desert_5,2,memory-2step-stake-s,686,3716574,0.0-19.0-0.1-0.190,A2MW5S0XS0D5MN,3QGHA0EA1MGR4GKNSEWY8BJ80SRWBM,3C44YUNSI55XLNJ0KQEB0RVZ4SZPDN,1,2
191,1,object_07,object_03,280.10000002384,2,2,311.29999995232,0.6666666666666666,2,object_02,5,2356,0,0,6,desert_6,2,memory-2step-stake-s,687,3724815,0.0-19.0-0.1-0.191,A2MW5S0XS0D5MN,3QGHA0EA1MGR4GKNSEWY8BJ80SRWBM,3C44YUNSI55XLNJ0KQEB0RVZ4SZPDN,1,2
192,2,object_08,object_05,488.29999995232,3,1,356.70000004768,0.0,1,object_01,5,2356,0,0,5,forest_2,2,memory-2step-stake-s,688,3732473,0.0-19.0-0.1-0.192,A2MW5S0XS0D5MN,3QGHA0EA1MGR4GKNSEWY8BJ80SRWBM,3C44YUNSI55XLNJ0KQEB0RVZ4SZPDN,3,4
193,1,object_07,object_03,521.89999997616,2,2,452.40000003576,0.7777777777777778,2,object_02,5,2391,0,3,7,desert_3,2,memory-2step-stake-s,689,3740939,0.0-19.0-0.1-0.193,A2MW5S0XS0D5MN,3QGHA0EA1MGR4GKNSEWY8BJ80SRWBM,3C44YUNSI55XLNJ0KQEB0RVZ4SZPDN,1,2
194,1,object_03,object_07,474.30000001192,1,2,965.19999998808,0.6666666666666666,1,object_01,1,2397,0,6,5,desert_5,2,memory-2step-stake-s,690,3749860,0.0-19.0-0.1-0.194,A2MW5S0XS0D5MN,3QGHA0EA1MGR4GKNSEWY8BJ80SRWBM,3C44YUNSI55XLNJ0KQEB0RVZ4SZPDN,2,1
195,3,object_09,object_06,587.0,6,1,500.69999998808,1.0,2,object_02,5,2442,0,4,9,library_5,2,memory-2step-stake-s,691,3758629,0.0-19.0-0.1-0.195,A2MW5S0XS0D5MN,3QGHA0EA1MGR4GKNSEWY8BJ80SRWBM,3C44YUNSI55XLNJ0KQEB0RVZ4SZPDN,6,5
196,3,object_06,object_09,577.09999996424,5,1,278.59999996424,0.4444444444444444,1,object_01,1,2446,0,4,8,library_5,2,memory-2step-stake-s,692,3766615,0.0-19.0-0.1-0.196,A2MW5S0XS0D5MN,3QGHA0EA1MGR4GKNSEWY8BJ80SRWBM,3C44YUNSI55XLNJ0KQEB0RVZ4SZPDN,5,6
197,3,object_09,object_06,612.5,6,1,347.69999998808,0.8888888888888888,2,object_02,5,2486,0,6,8,library_3,2,memory-2step-stake-s,693,3775128,0.0-19.0-0.1-0.197,A2MW5S0XS0D5MN,3QGHA0EA1MGR4GKNSEWY8BJ80SRWBM,3C44YUNSI55XLNJ0KQEB0RVZ4SZPDN,6,5
198,2,object_05,object_08,615.0,4,1,543.30000001192,0.8888888888888888,2,object_02,5,2526,0,7,8,forest_7,2,memory-2step-stake-s,694,3783823,0.0-19.0-0.1-0.198,A2MW5S0XS0D5MN,3QGHA0EA1MGR4GKNSEWY8BJ80SRWBM,3C44YUNSI55XLNJ0KQEB0RVZ4SZPDN,4,3
199,1,object_03,object_07,569.19999998808,2,1,292.5,0.7777777777777778,2,object_02,1,2533,0,9,7,desert_8,2,memory-2step-stake-s,695,3792205,0.0-19.0-0.1-0.199,A2MW5S0XS0D5MN,3QGHA0EA1MGR4GKNSEWY8BJ80SRWBM,3C44YUNSI55XLNJ0KQEB0RVZ4SZPDN,2,1
200,3,object_09,object_06,1103.5,5,2,640.60000002384,1.0,1,object_01,1,2542,0,9,4,library_8,2,memory-2step-stake-s,696,3801071,0.0-19.0-0.1-0.200,A2MW5S0XS0D5MN,3QGHA0EA1MGR4GKNSEWY8BJ80SRWBM,3C44YUNSI55XLNJ0KQEB0RVZ4SZPDN,6,5
201,1,object_07,object_03,502.0,1,1,309.5,1.0,1,object_01,5,2587,0,9,0,desert_3,2,memory-2step-stake-s,697,3809640,0.0-19.0-0.1-0.201,A2MW5S0XS0D5MN,3QGHA0EA1MGR4GKNSEWY8BJ80SRWBM,3C44YUNSI55XLNJ0KQEB0RVZ4SZPDN,1,2
202,1,object_03,object_07,560.5,1,2,571.60000002384,0.8888888888888888,1,object_01,5,2627,0,8,2,desert_6,2,memory-2step-stake-s,698,3818396,0.0-19.0-0.1-0.202,A2MW5S0XS0D5MN,3QGHA0EA1MGR4GKNSEWY8BJ80SRWBM,3C44YUNSI55XLNJ0KQEB0RVZ4SZPDN,2,1
203,2,object_05,object_08,402.5,4,1,387.09999996424,0.4444444444444444,2,object_02,5,2647,0,5,4,forest_2,2,memory-2step-stake-s,699,3826523,0.0-19.0-0.1-0.203,A2MW5S0XS0D5MN,3QGHA0EA1MGR4GKNSEWY8BJ80SRWBM,3C44YUNSI55XLNJ0KQEB0RVZ4SZPDN,4,3
204,2,object_08,object_05,1267.3999999762,4,2,481.90000003576,0.3333333333333333,2,object_02,5,2662,0,4,3,forest_6,2,memory-2step-stake-s,700,3834622,0.0-19.0-0.1-0.204,A2MW5S0XS0D5MN,3QGHA0EA1MGR4GKNSEWY8BJ80SRWBM,3C44YUNSI55XLNJ0KQEB0RVZ4SZPDN,3,4
205,4,object_10,object_04,563.59999996424,8,1,306.0,0.6666666666666666,2,object_02,1,2668,0,5,6,restaurant_1,2,memory-2step-stake-s,701,3842852,0.0-19.0-0.1-0.205,A2MW5S0XS0D5MN,3QGHA0EA1MGR4GKNSEWY8BJ80SRWBM,3C44YUNSI55XLNJ0KQEB0RVZ4SZPDN,8,7
206,2,object_05,object_08,479.30000001192,3,2,270.10000002384,1.0,1,object_01,1,2677,0,9,9,forest_2,2,memory-2step-stake-s,702,3851416,0.0-19.0-0.1-0.206,A2MW5S0XS0D5MN,3QGHA0EA1MGR4GKNSEWY8BJ80SRWBM,3C44YUNSI55XLNJ0KQEB0RVZ4SZPDN,4,3
207,2,object_05,object_08,516.0,4,1,438.39999997616,0.6666666666666666,2,object_02,5,2707,0,8,6,forest_6,2,memory-2step-stake-s,703,3859795,0.0-19.0-0.1-0.207,A2MW5S0XS0D5MN,3QGHA0EA1MGR4GKNSEWY8BJ80SRWBM,3C44YUNSI55XLNJ0KQEB0RVZ4SZPDN,4,3
208,3,object_06,object_09,577.69999998808,6,2,459.30000001192,0.4444444444444444,2,object_02,1,2711,0,6,4,library_8,2,memory-2step-stake-s,704,3867980,0.0-19.0-0.1-0.208,A2MW5S0XS0D5MN,3QGHA0EA1MGR4GKNSEWY8BJ80SRWBM,3C44YUNSI55XLNJ0KQEB0RVZ4SZPDN,5,6
209,1,object_07,object_03,563.80000001192,1,1,360.39999997616,0.6666666666666666,1,object_01,5,2741,0,6,5,desert_3,2,memory-2step-stake-s,705,3876290,0.0-19.0-0.1-0.209,A2MW5S0XS0D5MN,3QGHA0EA1MGR4GKNSEWY8BJ80SRWBM,3C44YUNSI55XLNJ0KQEB0RVZ4SZPDN,1,2
210,4,object_04,object_10,571.19999998808,8,2,203.60000002384,0.5555555555555556,2,object_02,1,2746,0,5,5,restaurant_3,2,memory-2step-stake-s,706,3884320,0.0-19.0-0.1-0.210,A2MW5S0XS0D5MN,3QGHA0EA1MGR4GKNSEWY8BJ80SRWBM,3C44YUNSI55XLNJ0KQEB0RVZ4SZPDN,7,8
211,2,object_05,object_08,913.0,3,2,345.89999997616,0.2222222222222222,1,object_01,5,2756,0,2,5,forest_1,2,memory-2step-stake-s,707,3892154,0.0-19.0-0.1-0.211,A2MW5S0XS0D5MN,3QGHA0EA1MGR4GKNSEWY8BJ80SRWBM,3C44YUNSI55XLNJ0KQEB0RVZ4SZPDN,4,3
212,3,object_06,object_09,802.40000003576,6,2,327.59999996424,0.3333333333333333,2,object_02,1,2759,0,7,3,library_5,2,memory-2step-stake-s,708,3900073,0.0-19.0-0.1-0.212,A2MW5S0XS0D5MN,3QGHA0EA1MGR4GKNSEWY8BJ80SRWBM,3C44YUNSI55XLNJ0KQEB0RVZ4SZPDN,5,6
213,4,object_04,object_10,742.29999995232,7,1,416.30000001192,1.0,1,object_01,1,2768,0,9,4,restaurant_8,2,memory-2step-stake-s,709,3908766,0.0-19.0-0.1-0.213,A2MW5S0XS0D5MN,3QGHA0EA1MGR4GKNSEWY8BJ80SRWBM,3C44YUNSI55XLNJ0KQEB0RVZ4SZPDN,7,8
214,1,object_07,object_03,742.90000003576,2,2,358.19999998808,0.6666666666666666,2,object_02,5,2798,0,8,6,desert_6,2,memory-2step-stake-s,710,3917073,0.0-19.0-0.1-0.214,A2MW5S0XS0D5MN,3QGHA0EA1MGR4GKNSEWY8BJ80SRWBM,3C44YUNSI55XLNJ0KQEB0RVZ4SZPDN,1,2
215,3,object_06,object_09,943.60000002384,5,1,332.70000004768,0.7777777777777778,1,object_01,5,2833,0,7,7,library_8,2,memory-2step-stake-s,711,3925464,0.0-19.0-0.1-0.215,A2MW5S0XS0D5MN,3QGHA0EA1MGR4GKNSEWY8BJ80SRWBM,3C44YUNSI55XLNJ0KQEB0RVZ4SZPDN,5,6
216,1,object_03,object_07,1112.0,2,1,562.69999998808,0.7777777777777778,2,object_02,5,2868,0,5,7,desert_3,2,memory-2step-stake-s,712,3934081,0.0-19.0-0.1-0.216,A2MW5S0XS0D5MN,3QGHA0EA1MGR4GKNSEWY8BJ80SRWBM,3C44YUNSI55XLNJ0KQEB0RVZ4SZPDN,2,1
217,4,object_04,object_10,375.5,7,1,858.40000003576,0.2222222222222222,1,object_01,1,2870,0,2,8,restaurant_8,2,memory-2step-stake-s,713,3942472,0.0-19.0-0.1-0.217,A2MW5S0XS0D5MN,3QGHA0EA1MGR4GKNSEWY8BJ80SRWBM,3C44YUNSI55XLNJ0KQEB0RVZ4SZPDN,7,8
218,3,object_09,object_06,705.89999997616,5,2,357.80000001192,0.2222222222222222,1,object_01,1,2872,0,2,8,library_5,2,memory-2step-stake-s,714,3950336,0.0-19.0-0.1-0.218,A2MW5S0XS0D5MN,3QGHA0EA1MGR4GKNSEWY8BJ80SRWBM,3C44YUNSI55XLNJ0KQEB0RVZ4SZPDN,6,5
219,1,object_07,object_03,430.69999998808,2,2,499.5,0.7777777777777778,2,object_02,5,2907,0,2,7,desert_6,2,memory-2step-stake-s,715,3958875,0.0-19.0-0.1-0.219,A2MW5S0XS0D5MN,3QGHA0EA1MGR4GKNSEWY8BJ80SRWBM,3C44YUNSI55XLNJ0KQEB0RVZ4SZPDN,1,2
220,1,object_07,object_03,539.79999995232,2,2,1139.6000000238,0.7777777777777778,2,object_02,5,2942,0,2,7,desert_6,2,memory-2step-stake-s,716,3968055,0.0-19.0-0.1-0.220,A2MW5S0XS0D5MN,3QGHA0EA1MGR4GKNSEWY8BJ80SRWBM,3C44YUNSI55XLNJ0KQEB0RVZ4SZPDN,1,2
221,4,object_10,object_04,775.19999998808,7,2,558.10000002384,0.6666666666666666,1,object_01,5,2972,0,6,8,restaurant_3,2,memory-2step-stake-s,717,3976559,0.0-19.0-0.1-0.221,A2MW5S0XS0D5MN,3QGHA0EA1MGR4GKNSEWY8BJ80SRWBM,3C44YUNSI55XLNJ0KQEB0RVZ4SZPDN,8,7
222,1,object_07,object_03,650.09999996424,2,2,381.09999996424,1.0,2,object_02,5,3017,0,7,9,desert_8,2,memory-2step-stake-s,718,3985208,0.0-19.0-0.1-0.222,A2MW5S0XS0D5MN,3QGHA0EA1MGR4GKNSEWY8BJ80SRWBM,3C44YUNSI55XLNJ0KQEB0RVZ4SZPDN,1,2
223,1,object_07,object_03,539.89999997616,2,2,468.90000003576,1.0,2,object_02,5,3062,0,9,9,desert_8,2,memory-2step-stake-s,719,3994010,0.0-19.0-0.1-0.223,A2MW5S0XS0D5MN,3QGHA0EA1MGR4GKNSEWY8BJ80SRWBM,3C44YUNSI55XLNJ0KQEB0RVZ4SZPDN,1,2
224,1,object_03,object_07,526.19999998808,2,1,551.0,0.6666666666666666,2,object_02,5,3092,0,5,6,desert_8,2,memory-2step-stake-s,720,4002507,0.0-19.0-0.1-0.224,A2MW5S0XS0D5MN,3QGHA0EA1MGR4GKNSEWY8BJ80SRWBM,3C44YUNSI55XLNJ0KQEB0RVZ4SZPDN,2,1
225,1,object_07,object_03,257.19999998808,2,2,455.10000002384,0.4444444444444444,2,object_02,5,3112,0,5,4,desert_8,2,memory-2step-stake-s,721,4010672,0.0-19.0-0.1-0.225,A2MW5S0XS0D5MN,3QGHA0EA1MGR4GKNSEWY8BJ80SRWBM,3C44YUNSI55XLNJ0KQEB0RVZ4SZPDN,1,2
226,4,object_10,object_04,916.09999996424,7,2,497.40000003576,0.8888888888888888,1,object_01,1,3120,0,8,6,restaurant_8,2,memory-2step-stake-s,722,4019332,0.0-19.0-0.1-0.226,A2MW5S0XS0D5MN,3QGHA0EA1MGR4GKNSEWY8BJ80SRWBM,3C44YUNSI55XLNJ0KQEB0RVZ4SZPDN,8,7
227,1,object_07,object_03,360.79999995232,1,1,397.5,0.8888888888888888,1,object_01,1,3128,0,8,4,desert_6,2,memory-2step-stake-s,723,4027860,0.0-19.0-0.1-0.227,A2MW5S0XS0D5MN,3QGHA0EA1MGR4GKNSEWY8BJ80SRWBM,3C44YUNSI55XLNJ0KQEB0RVZ4SZPDN,1,2
228,1,object_03,object_07,539.89999997616,1,2,589.20000004768,1.0,1,object_01,1,3137,0,9,3,desert_5,2,memory-2step-stake-s,724,4036682,0.0-19.0-0.1-0.228,A2MW5S0XS0D5MN,3QGHA0EA1MGR4GKNSEWY8BJ80SRWBM,3C44YUNSI55XLNJ0KQEB0RVZ4SZPDN,2,1
229,2,object_05,object_08,409.39999997616,4,1,547.5,0.1111111111111111,2,object_02,1,3138,0,8,1,forest_2,2,memory-2step-stake-s,725,4044615,0.0-19.0-0.1-0.229,A2MW5S0XS0D5MN,3QGHA0EA1MGR4GKNSEWY8BJ80SRWBM,3C44YUNSI55XLNJ0KQEB0RVZ4SZPDN,4,3
230,2,object_08,object_05,728.5,4,2,505.60000002384,0.0,2,object_02,5,3138,0,5,0,forest_1,2,memory-2step-stake-s,726,4052404,0.0-19.0-0.1-0.230,A2MW5S0XS0D5MN,3QGHA0EA1MGR4GKNSEWY8BJ80SRWBM,3C44YUNSI55XLNJ0KQEB0RVZ4SZPDN,3,4
231,3,object_09,object_06,585.80000001192,6,1,680.5,0.2222222222222222,2,object_02,1,3140,0,7,2,library_7,2,memory-2step-stake-s,727,4060594,0.0-19.0-0.1-0.231,A2MW5S0XS0D5MN,3QGHA0EA1MGR4GKNSEWY8BJ80SRWBM,3C44YUNSI55XLNJ0KQEB0RVZ4SZPDN,6,5
232,2,object_05,object_08,388.0,3,2,613.69999998808,0.7777777777777778,1,object_01,5,3175,0,7,1,forest_1,2,memory-2step-stake-s,728,4069235,0.0-19.0-0.1-0.232,A2MW5S0XS0D5MN,3QGHA0EA1MGR4GKNSEWY8BJ80SRWBM,3C44YUNSI55XLNJ0KQEB0RVZ4SZPDN,4,3
233,3,object_09,object_06,516.30000001192,6,1,254.39999997616,0.1111111111111111,2,object_02,1,3176,0,7,1,library_7,2,memory-2step-stake-s,729,4076878,0.0-19.0-0.1-0.233,A2MW5S0XS0D5MN,3QGHA0EA1MGR4GKNSEWY8BJ80SRWBM,3C44YUNSI55XLNJ0KQEB0RVZ4SZPDN,6,5
234,1,object_03,object_07,590.19999998808,2,1,327.5,0.1111111111111111,2,object_02,5,3181,0,7,1,desert_5,2,memory-2step-stake-s,730,4084604,0.0-19.0-0.1-0.234,A2MW5S0XS0D5MN,3QGHA0EA1MGR4GKNSEWY8BJ80SRWBM,3C44YUNSI55XLNJ0KQEB0RVZ4SZPDN,2,1
235,2,object_05,object_08,458.5,4,1,502.89999997616,0.1111111111111111,2,object_02,5,3186,0,6,1,forest_1,2,memory-2step-stake-s,731,4092494,0.0-19.0-0.1-0.235,A2MW5S0XS0D5MN,3QGHA0EA1MGR4GKNSEWY8BJ80SRWBM,3C44YUNSI55XLNJ0KQEB0RVZ4SZPDN,4,3
236,3,object_06,object_09,555.40000003576,6,2,321.29999995232,0.1111111111111111,2,object_02,1,3187,0,4,1,library_5,2,memory-2step-stake-s,732,4100214,0.0-19.0-0.1-0.236,A2MW5S0XS0D5MN,3QGHA0EA1MGR4GKNSEWY8BJ80SRWBM,3C44YUNSI55XLNJ0KQEB0RVZ4SZPDN,5,6
237,3,object_06,object_09,623.09999996424,5,1,298.5,0.4444444444444444,1,object_01,5,3207,0,4,2,library_3,2,memory-2step-stake-s,733,4108211,0.0-19.0-0.1-0.237,A2MW5S0XS0D5MN,3QGHA0EA1MGR4GKNSEWY8BJ80SRWBM,3C44YUNSI55XLNJ0KQEB0RVZ4SZPDN,5,6
238,1,object_07,object_03,632.10000002384,1,1,464.0,0.1111111111111111,1,object_01,5,3212,0,1,6,desert_5,2,memory-2step-stake-s,734,4116059,0.0-19.0-0.1-0.238,A2MW5S0XS0D5MN,3QGHA0EA1MGR4GKNSEWY8BJ80SRWBM,3C44YUNSI55XLNJ0KQEB0RVZ4SZPDN,1,2
239,3,object_06,object_09,496.30000001192,6,2,-1.0,0.0,2,object_02,1,3212,0,7,8,library_7,2,memory-2step-stake-s,735,4124640,0.0-19.0-0.1-0.239,A2MW5S0XS0D5MN,3QGHA0EA1MGR4GKNSEWY8BJ80SRWBM,3C44YUNSI55XLNJ0KQEB0RVZ4SZPDN,5,6
240,1,object_07,object_03,554.60000002384,2,2,283.19999998808,0.8888888888888888,2,object_02,1,3220,0,4,8,desert_8,2,memory-2step-stake-s,736,4133111,0.0-19.0-0.1-0.240,A2MW5S0XS0D5MN,3QGHA0EA1MGR4GKNSEWY8BJ80SRWBM,3C44YUNSI55XLNJ0KQEB0RVZ4SZPDN,1,2
241,4,object_10,object_04,561.30000001192,8,1,-1.0,0.0,2,object_02,1,3220,0,6,8,restaurant_1,2,memory-2step-stake-s,737,4141713,0.0-19.0-0.1-0.241,A2MW5S0XS0D5MN,3QGHA0EA1MGR4GKNSEWY8BJ80SRWBM,3C44YUNSI55XLNJ0KQEB0RVZ4SZPDN,8,7
242,3,object_09,object_06,512.39999997616,5,2,349.39999997616,0.8888888888888888,1,object_01,1,3228,0,8,6,library_3,2,memory-2step-stake-s,738,4150226,0.0-19.0-0.1-0.242,A2MW5S0XS0D5MN,3QGHA0EA1MGR4GKNSEWY8BJ80SRWBM,3C44YUNSI55XLNJ0KQEB0RVZ4SZPDN,6,5
243,3,object_09,object_06,415.0,5,2,265.39999997616,1.0,1,object_01,1,3237,0,9,6,library_5,2,memory-2step-stake-s,739,4158762,0.0-19.0-0.1-0.243,A2MW5S0XS0D5MN,3QGHA0EA1MGR4GKNSEWY8BJ80SRWBM,3C44YUNSI55XLNJ0KQEB0RVZ4SZPDN,6,5
244,4,object_04,object_10,812.69999998808,7,1,953.39999997616,0.6666666666666666,1,object_01,1,3243,0,6,6,restaurant_1,2,memory-2step-stake-s,740,4167632,0.0-19.0-0.1-0.244,A2MW5S0XS0D5MN,3QGHA0EA1MGR4GKNSEWY8BJ80SRWBM,3C44YUNSI55XLNJ0KQEB0RVZ4SZPDN,7,8
245,2,object_05,object_08,285.09999996424,3,2,272.0,0.3333333333333333,1,object_01,1,3246,0,3,8,forest_6,2,memory-2step-stake-s,741,4175553,0.0-19.0-0.1-0.245,A2MW5S0XS0D5MN,3QGHA0EA1MGR4GKNSEWY8BJ80SRWBM,3C44YUNSI55XLNJ0KQEB0RVZ4SZPDN,4,3
246,3,object_09,object_06,829.39999997616,6,1,500.09999996424,1.0,2,object_02,1,3255,0,3,9,library_8,2,memory-2step-stake-s,742,4184303,0.0-19.0-0.1-0.246,A2MW5S0XS0D5MN,3QGHA0EA1MGR4GKNSEWY8BJ80SRWBM,3C44YUNSI55XLNJ0KQEB0RVZ4SZPDN,6,5
247,4,object_10,object_04,492.69999998808,7,2,364.70000004768,0.5555555555555556,1,object_01,1,3260,0,5,5,restaurant_1,2,memory-2step-stake-s,743,4192529,0.0-19.0-0.1-0.247,A2MW5S0XS0D5MN,3QGHA0EA1MGR4GKNSEWY8BJ80SRWBM,3C44YUNSI55XLNJ0KQEB0RVZ4SZPDN,8,7
248,3,object_06,object_09,727.09999996424,6,2,265.60000002384,0.5555555555555556,2,object_02,1,3265,0,8,5,library_7,2,memory-2step-stake-s,744,4200618,0.0-19.0-0.1-0.248,A2MW5S0XS0D5MN,3QGHA0EA1MGR4GKNSEWY8BJ80SRWBM,3C44YUNSI55XLNJ0KQEB0RVZ4SZPDN,5,6
249,4,object_10,object_04,718.59999996424,7,2,814.29999995232,0.7777777777777778,1,object_01,1,3272,0,7,8,restaurant_3,2,memory-2step-stake-s,745,4209493,0.0-19.0-0.1-0.249,A2MW5S0XS0D5MN,3QGHA0EA1MGR4GKNSEWY8BJ80SRWBM,3C44YUNSI55XLNJ0KQEB0RVZ4SZPDN,8,7
250,2,object_08,object_05,530.10000002384,3,1,415.5,1.0,1,object_01,5,3317,0,9,8,forest_7,2,memory-2step-stake-s,746,4218182,0.0-19.0-0.1-0.250,A2MW5S0XS0D5MN,3QGHA0EA1MGR4GKNSEWY8BJ80SRWBM,3C44YUNSI55XLNJ0KQEB0RVZ4SZPDN,3,4
251,3,object_06,object_09,747.79999995232,6,2,352.39999997616,0.6666666666666666,2,object_02,5,3347,0,7,6,library_3,2,memory-2step-stake-s,747,4226449,0.0-19.0-0.1-0.251,A2MW5S0XS0D5MN,3QGHA0EA1MGR4GKNSEWY8BJ80SRWBM,3C44YUNSI55XLNJ0KQEB0RVZ4SZPDN,5,6
252,4,object_10,object_04,767.0,8,1,529.70000004768,0.3333333333333333,2,object_02,1,3350,0,5,3,restaurant_7,2,memory-2step-stake-s,748,4234595,0.0-19.0-0.1-0.252,A2MW5S0XS0D5MN,3QGHA0EA1MGR4GKNSEWY8BJ80SRWBM,3C44YUNSI55XLNJ0KQEB0RVZ4SZPDN,8,7
253,3,object_06,object_09,466.19999998808,6,2,588.89999997616,0.3333333333333333,2,object_02,1,3353,0,5,3,library_5,2,memory-2step-stake-s,749,4242768,0.0-19.0-0.1-0.253,A2MW5S0XS0D5MN,3QGHA0EA1MGR4GKNSEWY8BJ80SRWBM,3C44YUNSI55XLNJ0KQEB0RVZ4SZPDN,5,6
254,4,object_04,object_10,510.60000002384,7,1,446.0,0.5555555555555556,1,object_01,1,3358,0,5,4,restaurant_1,2,memory-2step-stake-s,750,4251083,0.0-19.0-0.1-0.254,A2MW5S0XS0D5MN,3QGHA0EA1MGR4GKNSEWY8BJ80SRWBM,3C44YUNSI55XLNJ0KQEB0RVZ4SZPDN,7,8
255,3,object_06,object_09,583.69999998808,6,2,419.29999995232,0.2222222222222222,2,object_02,1,3360,0,2,2,library_3,2,memory-2step-stake-s,751,4259005,0.0-19.0-0.1-0.255,A2MW5S0XS0D5MN,3QGHA0EA1MGR4GKNSEWY8BJ80SRWBM,3C44YUNSI55XLNJ0KQEB0RVZ4SZPDN,5,6
