,state1,stim_left,stim_right,rt_1,choice1,response1,rt_2,points,state2,stim_state2,stake,score,practice,rews1,rews2,background,high_arm,trial_type,trial_index,time_elapsed,internal_node_id,subid,hitid,assignmentid,stim_left_num,stim_right_num
0,3,object_02,object_08,1113.0,5,1,-1.0,0.0,1,object_07,1,0,0,2,4,library_8,2,memory-2step-stake-s,503,1218819,0.0-19.0-0.0-0.0,A3JN9PHM83VP1V,3A3KKYU7Q6XNN7OKJ3M7MRU2CR5MWB,38SKSKU7R5DO2DKOKCMFA72SRPEILW,5,6
1,4,object_10,object_05,1119.0,8,1,921.69999998808,0.7777777777777778,2,object_01,1,7,0,3,7,restaurant_6,2,memory-2step-stake-s,504,1227772,0.0-19.0-0.0-0.1,A3JN9PHM83VP1V,3A3KKYU7Q6XNN7OKJ3M7MRU2CR5MWB,38SKSKU7R5DO2DKOKCMFA72SRPEILW,8,7
2,3,object_08,object_02,-1.0,-1,-1,-1.0,0.0,-,0,1,7,0,1,9,library_2,2,memory-2step-stake-s,505,1234324,0.0-19.0-0.0-0.2,A3JN9PHM83VP1V,3A3KKYU7Q6XNN7OKJ3M7MRU2CR5MWB,38SKSKU7R5DO2DKOKCMFA72SRPEILW,6,5
3,4,object_05,object_10,1158.099999994,7,1,506.29999998212,0.4444444444444444,1,object_07,1,11,0,4,8,restaurant_6,2,memory-2step-stake-s,506,1242551,0.0-19.0-0.0-0.3,A3JN9PHM83VP1V,3A3KKYU7Q6XNN7OKJ3M7MRU2CR5MWB,38SKSKU7R5DO2DKOKCMFA72SRPEILW,7,8
4,4,object_10,object_05,699.5,8,1,740.0,0.4444444444444444,2,object_01,1,15,0,3,4,restaurant_5,2,memory-2step-stake-s,507,1250994,0.0-19.0-0.0-0.4,A3JN9PHM83VP1V,3A3KKYU7Q6XNN7OKJ3M7MRU2CR5MWB,38SKSKU7R5DO2DKOKCMFA72SRPEILW,8,7
5,3,object_02,object_08,1215.2000000179,5,1,535.60000002384,0.4444444444444444,1,object_07,1,19,0,4,3,library_3,2,memory-2step-stake-s,508,1259243,0.0-19.0-0.0-0.5,A3JN9PHM83VP1V,3A3KKYU7Q6XNN7OKJ3M7MRU2CR5MWB,38SKSKU7R5DO2DKOKCMFA72SRPEILW,5,6
6,4,object_10,object_05,1192.2999999821,8,1,749.59999999404,0.1111111111111111,2,object_01,1,20,0,5,1,restaurant_5,2,memory-2step-stake-s,509,1267363,0.0-19.0-0.0-0.6,A3JN9PHM83VP1V,3A3KKYU7Q6XNN7OKJ3M7MRU2CR5MWB,38SKSKU7R5DO2DKOKCMFA72SRPEILW,8,7
7,4,object_05,object_10,-1.0,-1,-1,-1.0,0.0,-,0,1,20,0,0,4,restaurant_6,2,memory-2step-stake-s,510,1273923,0.0-19.0-0.0-0.7,A3JN9PHM83VP1V,3A3KKYU7Q6XNN7OKJ3M7MRU2CR5MWB,38SKSKU7R5DO2DKOKCMFA72SRPEILW,7,8
8,2,object_06,object_09,850.0,3,1,627.40000000596,0.0,1,object_07,5,20,0,0,4,forest_4,2,memory-2step-stake-s,511,1281836,0.0-19.0-0.0-0.8,A3JN9PHM83VP1V,3A3KKYU7Q6XNN7OKJ3M7MRU2CR5MWB,38SKSKU7R5DO2DKOKCMFA72SRPEILW,3,4
9,3,object_02,object_08,1185.8000000119,6,2,670.40000000596,0.4444444444444444,2,object_01,1,24,0,3,4,library_2,2,memory-2step-stake-s,512,1290185,0.0-19.0-0.0-0.9,A3JN9PHM83VP1V,3A3KKYU7Q6XNN7OKJ3M7MRU2CR5MWB,38SKSKU7R5DO2DKOKCMFA72SRPEILW,5,6
10,3,object_02,object_08,1033.900000006,6,2,367.39999997616,0.4444444444444444,2,object_01,1,28,0,7,4,library_8,2,memory-2step-stake-s,513,1298240,0.0-19.0-0.0-0.10,A3JN9PHM83VP1V,3A3KKYU7Q6XNN7OKJ3M7MRU2CR5MWB,38SKSKU7R5DO2DKOKCMFA72SRPEILW,5,6
11,3,object_08,object_02,965.40000000596,6,1,375.0,0.6666666666666666,2,object_01,5,58,0,7,6,library_2,2,memory-2step-stake-s,514,1306537,0.0-19.0-0.0-0.11,A3JN9PHM83VP1V,3A3KKYU7Q6XNN7OKJ3M7MRU2CR5MWB,38SKSKU7R5DO2DKOKCMFA72SRPEILW,6,5
12,2,object_09,object_06,695.5,4,1,361.09999999404,0.7777777777777778,2,object_01,5,93,0,5,7,forest_4,2,memory-2step-stake-s,515,1314907,0.0-19.0-0.0-0.12,A3JN9PHM83VP1V,3A3KKYU7Q6XNN7OKJ3M7MRU2CR5MWB,38SKSKU7R5DO2DKOKCMFA72SRPEILW,4,3
13,3,object_02,object_08,869.59999999404,6,2,331.40000000596,0.7777777777777778,2,object_01,5,128,0,8,7,library_5,2,memory-2step-stake-s,516,1323246,0.0-19.0-0.0-0.13,A3JN9PHM83VP1V,3A3KKYU7Q6XNN7OKJ3M7MRU2CR5MWB,38SKSKU7R5DO2DKOKCMFA72SRPEILW,5,6
14,1,object_04,object_03,758.40000000596,1,1,896.40000000596,1.0,1,object_07,5,173,0,9,5,desert_3,2,memory-2step-stake-s,517,1332394,0.0-19.0-0.0-0.14,A3JN9PHM83VP1V,3A3KKYU7Q6XNN7OKJ3M7MRU2CR5MWB,38SKSKU7R5DO2DKOKCMFA72SRPEILW,1,2
15,1,object_03,object_04,776.5,2,1,354.70000001788,0.7777777777777778,2,object_01,5,208,0,8,7,desert_4,2,memory-2step-stake-s,518,1340769,0.0-19.0-0.0-0.15,A3JN9PHM83VP1V,3A3KKYU7Q6XNN7OKJ3M7MRU2CR5MWB,38SKSKU7R5DO2DKOKCMFA72SRPEILW,2,1
16,1,object_04,object_03,951.39999997616,1,1,413.09999999404,0.7777777777777778,1,object_07,5,243,0,7,8,desert_6,2,memory-2step-stake-s,519,1349189,0.0-19.0-0.0-0.16,A3JN9PHM83VP1V,3A3KKYU7Q6XNN7OKJ3M7MRU2CR5MWB,38SKSKU7R5DO2DKOKCMFA72SRPEILW,1,2
17,1,object_04,object_03,964.59999999404,2,2,349.59999999404,1.0,2,object_01,1,252,0,7,9,desert_6,2,memory-2step-stake-s,520,1357742,0.0-19.0-0.0-0.17,A3JN9PHM83VP1V,3A3KKYU7Q6XNN7OKJ3M7MRU2CR5MWB,38SKSKU7R5DO2DKOKCMFA72SRPEILW,1,2
18,4,object_10,object_05,780.0,7,2,569.89999997616,0.8888888888888888,1,object_07,1,260,0,8,8,restaurant_5,2,memory-2step-stake-s,521,1366458,0.0-19.0-0.0-0.18,A3JN9PHM83VP1V,3A3KKYU7Q6XNN7OKJ3M7MRU2CR5MWB,38SKSKU7R5DO2DKOKCMFA72SRPEILW,8,7
19,1,object_03,object_04,892.59999999404,1,2,543.0,0.7777777777777778,1,object_07,5,295,0,7,5,desert_4,2,memory-2step-stake-s,522,1375007,0.0-19.0-0.0-0.19,A3JN9PHM83VP1V,3A3KKYU7Q6XNN7OKJ3M7MRU2CR5MWB,38SKSKU7R5DO2DKOKCMFA72SRPEILW,2,1
20,4,object_10,object_05,1112.1000000238,7,2,477.5,0.4444444444444444,1,object_07,1,299,0,4,7,restaurant_5,2,memory-2step-stake-s,523,1383158,0.0-19.0-0.0-0.20,A3JN9PHM83VP1V,3A3KKYU7Q6XNN7OKJ3M7MRU2CR5MWB,38SKSKU7R5DO2DKOKCMFA72SRPEILW,8,7
21,3,object_08,object_02,1012.400000006,6,1,589.90000000596,0.5555555555555556,2,object_01,5,324,0,7,5,library_8,2,memory-2step-stake-s,524,1391571,0.0-19.0-0.0-0.21,A3JN9PHM83VP1V,3A3KKYU7Q6XNN7OKJ3M7MRU2CR5MWB,38SKSKU7R5DO2DKOKCMFA72SRPEILW,6,5
22,1,object_03,object_04,1038.599999994,1,2,565.09999999404,0.8888888888888888,1,object_07,5,364,0,8,4,desert_4,2,memory-2step-stake-s,525,1400244,0.0-19.0-0.0-0.22,A3JN9PHM83VP1V,3A3KKYU7Q6XNN7OKJ3M7MRU2CR5MWB,38SKSKU7R5DO2DKOKCMFA72SRPEILW,2,1
23,4,object_10,object_05,1058.6999999881,8,1,359.40000000596,0.3333333333333333,2,object_01,1,367,0,6,3,restaurant_4,2,memory-2step-stake-s,526,1408188,0.0-19.0-0.0-0.23,A3JN9PHM83VP1V,3A3KKYU7Q6XNN7OKJ3M7MRU2CR5MWB,38SKSKU7R5DO2DKOKCMFA72SRPEILW,8,7
24,4,object_05,object_10,931.09999999404,7,1,404.5,0.5555555555555556,1,object_07,1,372,0,5,2,restaurant_3,2,memory-2step-stake-s,527,1416407,0.0-19.0-0.0-0.24,A3JN9PHM83VP1V,3A3KKYU7Q6XNN7OKJ3M7MRU2CR5MWB,38SKSKU7R5DO2DKOKCMFA72SRPEILW,7,8
25,2,object_09,object_06,1128.1999999881,4,1,434.09999999404,0.2222222222222222,2,object_01,5,382,0,3,2,forest_8,2,memory-2step-stake-s,528,1424341,0.0-19.0-0.0-0.25,A3JN9PHM83VP1V,3A3KKYU7Q6XNN7OKJ3M7MRU2CR5MWB,38SKSKU7R5DO2DKOKCMFA72SRPEILW,4,3
26,2,object_09,object_06,1157.7000000179,3,2,402.40000000596,0.8888888888888888,1,object_07,5,422,0,8,2,forest_7,2,memory-2step-stake-s,529,1432888,0.0-19.0-0.0-0.26,A3JN9PHM83VP1V,3A3KKYU7Q6XNN7OKJ3M7MRU2CR5MWB,38SKSKU7R5DO2DKOKCMFA72SRPEILW,4,3
27,2,object_06,object_09,1043.0,4,2,395.40000000596,0.2222222222222222,2,object_01,5,432,0,9,2,forest_4,2,memory-2step-stake-s,530,1440739,0.0-19.0-0.0-0.27,A3JN9PHM83VP1V,3A3KKYU7Q6XNN7OKJ3M7MRU2CR5MWB,38SKSKU7R5DO2DKOKCMFA72SRPEILW,3,4
28,3,object_02,object_08,777.19999998808,6,2,322.09999999404,0.2222222222222222,2,object_01,5,442,0,8,2,library_5,2,memory-2step-stake-s,531,1448570,0.0-19.0-0.0-0.28,A3JN9PHM83VP1V,3A3KKYU7Q6XNN7OKJ3M7MRU2CR5MWB,38SKSKU7R5DO2DKOKCMFA72SRPEILW,5,6
29,2,object_09,object_06,1270.599999994,3,2,542.09999999404,0.4444444444444444,1,object_07,1,446,0,4,0,forest_8,2,memory-2step-stake-s,532,1456818,0.0-19.0-0.0-0.29,A3JN9PHM83VP1V,3A3KKYU7Q6XNN7OKJ3M7MRU2CR5MWB,38SKSKU7R5DO2DKOKCMFA72SRPEILW,4,3
30,2,object_09,object_06,1209.2999999821,3,2,475.40000000596,0.6666666666666666,1,object_07,5,476,0,6,3,forest_7,2,memory-2step-stake-s,533,1465225,0.0-19.0-0.0-0.30,A3JN9PHM83VP1V,3A3KKYU7Q6XNN7OKJ3M7MRU2CR5MWB,38SKSKU7R5DO2DKOKCMFA72SRPEILW,4,3
31,3,object_08,object_02,1116.599999994,5,2,447.90000000596,0.4444444444444444,1,object_07,1,480,0,4,1,library_5,2,memory-2step-stake-s,534,1473354,0.0-19.0-0.0-0.31,A3JN9PHM83VP1V,3A3KKYU7Q6XNN7OKJ3M7MRU2CR5MWB,38SKSKU7R5DO2DKOKCMFA72SRPEILW,6,5
32,4,object_05,object_10,1482.400000006,8,2,443.09999999404,0.2222222222222222,2,object_01,1,482,0,5,2,restaurant_4,2,memory-2step-stake-s,535,1481289,0.0-19.0-0.0-0.32,A3JN9PHM83VP1V,3A3KKYU7Q6XNN7OKJ3M7MRU2CR5MWB,38SKSKU7R5DO2DKOKCMFA72SRPEILW,7,8
33,2,object_09,object_06,-1.0,-1,-1,-1.0,0.0,-,0,1,482,0,3,0,forest_7,2,memory-2step-stake-s,536,1487847,0.0-19.0-0.0-0.33,A3JN9PHM83VP1V,3A3KKYU7Q6XNN7OKJ3M7MRU2CR5MWB,38SKSKU7R5DO2DKOKCMFA72SRPEILW,4,3
34,4,object_05,object_10,1097.6999999881,7,1,485.70000001788,0.8888888888888888,1,object_07,1,490,0,8,2,restaurant_6,2,memory-2step-stake-s,537,1496434,0.0-19.0-0.0-0.34,A3JN9PHM83VP1V,3A3KKYU7Q6XNN7OKJ3M7MRU2CR5MWB,38SKSKU7R5DO2DKOKCMFA72SRPEILW,7,8
35,2,object_06,object_09,1086.1999999881,4,2,442.0,0.3333333333333333,2,object_01,1,493,0,5,3,forest_8,2,memory-2step-stake-s,538,1504490,0.0-19.0-0.0-0.35,A3JN9PHM83VP1V,3A3KKYU7Q6XNN7OKJ3M7MRU2CR5MWB,38SKSKU7R5DO2DKOKCMFA72SRPEILW,3,4
36,2,object_06,object_09,1128.8000000119,4,2,367.90000000596,0.5555555555555556,2,object_01,5,518,0,8,5,forest_7,2,memory-2step-stake-s,539,1512664,0.0-19.0-0.0-0.36,A3JN9PHM83VP1V,3A3KKYU7Q6XNN7OKJ3M7MRU2CR5MWB,38SKSKU7R5DO2DKOKCMFA72SRPEILW,3,4
37,2,object_06,object_09,904.90000000596,4,2,522.09999999404,0.4444444444444444,2,object_01,5,538,0,8,4,forest_8,2,memory-2step-stake-s,540,1520882,0.0-19.0-0.0-0.37,A3JN9PHM83VP1V,3A3KKYU7Q6XNN7OKJ3M7MRU2CR5MWB,38SKSKU7R5DO2DKOKCMFA72SRPEILW,3,4
38,1,object_04,object_03,1288.6000000238,1,1,450.30000001192,1.0,1,object_07,5,583,0,9,7,desert_7,2,memory-2step-stake-s,541,1529582,0.0-19.0-0.0-0.38,A3JN9PHM83VP1V,3A3KKYU7Q6XNN7OKJ3M7MRU2CR5MWB,38SKSKU7R5DO2DKOKCMFA72SRPEILW,1,2
39,4,object_05,object_10,1483.400000006,8,2,517.59999999404,0.8888888888888888,2,object_01,1,591,0,6,8,restaurant_3,2,memory-2step-stake-s,542,1538222,0.0-19.0-0.0-0.39,A3JN9PHM83VP1V,3A3KKYU7Q6XNN7OKJ3M7MRU2CR5MWB,38SKSKU7R5DO2DKOKCMFA72SRPEILW,7,8
40,4,object_10,object_05,1048.900000006,7,2,513.80000001192,0.4444444444444444,1,object_07,1,595,0,4,6,restaurant_4,2,memory-2step-stake-s,543,1546436,0.0-19.0-0.0-0.40,A3JN9PHM83VP1V,3A3KKYU7Q6XNN7OKJ3M7MRU2CR5MWB,38SKSKU7R5DO2DKOKCMFA72SRPEILW,8,7
41,2,object_06,object_09,1306.400000006,4,2,350.90000000596,0.7777777777777778,2,object_01,5,630,0,5,7,forest_8,2,memory-2step-stake-s,544,1554803,0.0-19.0-0.0-0.41,A3JN9PHM83VP1V,3A3KKYU7Q6XNN7OKJ3M7MRU2CR5MWB,38SKSKU7R5DO2DKOKCMFA72SRPEILW,3,4
42,3,object_02,object_08,1398.900000006,5,1,383.59999999404,0.5555555555555556,1,object_07,1,635,0,5,6,library_3,2,memory-2step-stake-s,545,1562975,0.0-19.0-0.0-0.42,A3JN9PHM83VP1V,3A3KKYU7Q6XNN7OKJ3M7MRU2CR5MWB,38SKSKU7R5DO2DKOKCMFA72SRPEILW,5,6
43,4,object_10,object_05,1028.900000006,7,2,331.70000001788,0.4444444444444444,1,object_07,5,655,0,4,6,restaurant_3,2,memory-2step-stake-s,546,1571028,0.0-19.0-0.0-0.43,A3JN9PHM83VP1V,3A3KKYU7Q6XNN7OKJ3M7MRU2CR5MWB,38SKSKU7R5DO2DKOKCMFA72SRPEILW,8,7
44,2,object_06,object_09,1033.400000006,4,2,472.59999999404,0.6666666666666666,2,object_01,5,685,0,6,6,forest_8,2,memory-2step-stake-s,547,1579409,0.0-19.0-0.0-0.44,A3JN9PHM83VP1V,3A3KKYU7Q6XNN7OKJ3M7MRU2CR5MWB,38SKSKU7R5DO2DKOKCMFA72SRPEILW,3,4
45,2,object_06,object_09,694.69999998808,4,2,449.59999999404,0.7777777777777778,2,object_01,5,720,0,6,7,forest_8,2,memory-2step-stake-s,548,1587883,0.0-19.0-0.0-0.45,A3JN9PHM83VP1V,3A3KKYU7Q6XNN7OKJ3M7MRU2CR5MWB,38SKSKU7R5DO2DKOKCMFA72SRPEILW,3,4
46,3,object_02,object_08,709.80000001192,5,1,353.40000000596,0.7777777777777778,1,object_07,1,727,0,7,8,library_8,2,memory-2step-stake-s,549,1596264,0.0-19.0-0.0-0.46,A3JN9PHM83VP1V,3A3KKYU7Q6XNN7OKJ3M7MRU2CR5MWB,38SKSKU7R5DO2DKOKCMFA72SRPEILW,5,6
47,1,object_03,object_04,865.80000001192,1,2,309.5,0.7777777777777778,1,object_07,5,762,0,7,8,desert_4,2,memory-2step-stake-s,550,1604606,0.0-19.0-0.0-0.47,A3JN9PHM83VP1V,3A3KKYU7Q6XNN7OKJ3M7MRU2CR5MWB,38SKSKU7R5DO2DKOKCMFA72SRPEILW,2,1
48,3,object_08,object_02,633.5,5,2,830.70000001788,0.8888888888888888,1,object_07,1,770,0,8,7,library_8,2,memory-2step-stake-s,551,1613556,0.0-19.0-0.0-0.48,A3JN9PHM83VP1V,3A3KKYU7Q6XNN7OKJ3M7MRU2CR5MWB,38SKSKU7R5DO2DKOKCMFA72SRPEILW,6,5
49,4,object_05,object_10,810.0,7,1,328.59999999404,1.0,1,object_07,1,779,0,9,6,restaurant_4,2,memory-2step-stake-s,552,1622113,0.0-19.0-0.0-0.49,A3JN9PHM83VP1V,3A3KKYU7Q6XNN7OKJ3M7MRU2CR5MWB,38SKSKU7R5DO2DKOKCMFA72SRPEILW,7,8
50,4,object_10,object_05,727.40000000596,7,2,692.79999998212,0.8888888888888888,1,object_07,1,787,0,8,8,restaurant_3,2,memory-2step-stake-s,553,1630935,0.0-19.0-0.0-0.50,A3JN9PHM83VP1V,3A3KKYU7Q6XNN7OKJ3M7MRU2CR5MWB,38SKSKU7R5DO2DKOKCMFA72SRPEILW,8,7
51,4,object_10,object_05,675.69999998808,7,2,331.90000000596,0.8888888888888888,1,object_07,1,795,0,8,8,restaurant_5,2,memory-2step-stake-s,554,1639374,0.0-19.0-0.0-0.51,A3JN9PHM83VP1V,3A3KKYU7Q6XNN7OKJ3M7MRU2CR5MWB,38SKSKU7R5DO2DKOKCMFA72SRPEILW,8,7
52,2,object_06,object_09,965.40000000596,4,2,466.20000001788,0.6666666666666666,2,object_01,1,801,0,8,6,forest_8,2,memory-2step-stake-s,555,1647740,0.0-19.0-0.0-0.52,A3JN9PHM83VP1V,3A3KKYU7Q6XNN7OKJ3M7MRU2CR5MWB,38SKSKU7R5DO2DKOKCMFA72SRPEILW,3,4
53,1,object_03,object_04,778.0,1,2,593.0,0.7777777777777778,1,object_07,5,836,0,7,6,desert_6,2,memory-2step-stake-s,556,1656336,0.0-19.0-0.0-0.53,A3JN9PHM83VP1V,3A3KKYU7Q6XNN7OKJ3M7MRU2CR5MWB,38SKSKU7R5DO2DKOKCMFA72SRPEILW,2,1
54,1,object_04,object_03,933.79999998212,1,1,568.89999997616,0.5555555555555556,1,object_07,5,861,0,5,4,desert_3,2,memory-2step-stake-s,557,1664709,0.0-19.0-0.0-0.54,A3JN9PHM83VP1V,3A3KKYU7Q6XNN7OKJ3M7MRU2CR5MWB,38SKSKU7R5DO2DKOKCMFA72SRPEILW,1,2
55,2,object_06,object_09,650.59999999404,4,2,943.40000000596,0.5555555555555556,2,object_01,5,886,0,5,5,forest_4,2,memory-2step-stake-s,558,1673457,0.0-19.0-0.0-0.55,A3JN9PHM83VP1V,3A3KKYU7Q6XNN7OKJ3M7MRU2CR5MWB,38SKSKU7R5DO2DKOKCMFA72SRPEILW,3,4
56,1,object_03,object_04,1273.3000000119,1,2,312.40000000596,0.6666666666666666,1,object_07,1,892,0,6,7,desert_7,2,memory-2step-stake-s,559,1681680,0.0-19.0-0.0-0.56,A3JN9PHM83VP1V,3A3KKYU7Q6XNN7OKJ3M7MRU2CR5MWB,38SKSKU7R5DO2DKOKCMFA72SRPEILW,2,1
57,2,object_06,object_09,1080.3999999762,3,1,381.39999997616,0.6666666666666666,1,object_07,5,922,0,6,8,forest_8,2,memory-2step-stake-s,560,1689979,0.0-19.0-0.0-0.57,A3JN9PHM83VP1V,3A3KKYU7Q6XNN7OKJ3M7MRU2CR5MWB,38SKSKU7R5DO2DKOKCMFA72SRPEILW,3,4
58,4,object_05,object_10,844.40000000596,7,1,290.89999997616,0.6666666666666666,1,object_07,5,952,0,6,7,restaurant_3,2,memory-2step-stake-s,561,1698183,0.0-19.0-0.0-0.58,A3JN9PHM83VP1V,3A3KKYU7Q6XNN7OKJ3M7MRU2CR5MWB,38SKSKU7R5DO2DKOKCMFA72SRPEILW,7,8
59,4,object_10,object_05,969.80000001192,7,2,329.5,0.5555555555555556,1,object_07,1,957,0,5,6,restaurant_6,2,memory-2step-stake-s,562,1706312,0.0-19.0-0.0-0.59,A3JN9PHM83VP1V,3A3KKYU7Q6XNN7OKJ3M7MRU2CR5MWB,38SKSKU7R5DO2DKOKCMFA72SRPEILW,8,7
60,1,object_03,object_04,997.69999998808,1,2,576.79999998212,0.8888888888888888,1,object_07,5,997,0,8,3,desert_6,2,memory-2step-stake-s,563,1715010,0.0-19.0-0.0-0.60,A3JN9PHM83VP1V,3A3KKYU7Q6XNN7OKJ3M7MRU2CR5MWB,38SKSKU7R5DO2DKOKCMFA72SRPEILW,2,1
61,1,object_03,object_04,756.80000001192,1,2,405.29999998212,0.7777777777777778,1,object_07,5,1032,0,7,4,desert_3,2,memory-2step-stake-s,564,1723475,0.0-19.0-0.0-0.61,A3JN9PHM83VP1V,3A3KKYU7Q6XNN7OKJ3M7MRU2CR5MWB,38SKSKU7R5DO2DKOKCMFA72SRPEILW,2,1
62,4,object_10,object_05,1155.3000000119,7,2,389.09999999404,0.7777777777777778,1,object_07,1,1039,0,7,1,restaurant_4,2,memory-2step-stake-s,565,1731871,0.0-19.0-0.0-0.62,A3JN9PHM83VP1V,3A3KKYU7Q6XNN7OKJ3M7MRU2CR5MWB,38SKSKU7R5DO2DKOKCMFA72SRPEILW,8,7
63,4,object_10,object_05,845.20000001788,7,2,609.0,0.7777777777777778,1,object_07,5,1074,0,7,2,restaurant_3,2,memory-2step-stake-s,566,1740489,0.0-19.0-0.0-0.63,A3JN9PHM83VP1V,3A3KKYU7Q6XNN7OKJ3M7MRU2CR5MWB,38SKSKU7R5DO2DKOKCMFA72SRPEILW,8,7
64,1,object_03,object_04,722.40000000596,1,2,357.69999998808,0.6666666666666666,1,object_07,5,1104,0,6,2,desert_3,2,memory-2step-stake-s,567,1748718,0.0-19.0-0.0-0.64,A3JN9PHM83VP1V,3A3KKYU7Q6XNN7OKJ3M7MRU2CR5MWB,38SKSKU7R5DO2DKOKCMFA72SRPEILW,2,1
65,1,object_03,object_04,874.90000000596,1,2,538.30000001192,0.7777777777777778,1,object_07,5,1139,0,7,3,desert_7,2,memory-2step-stake-s,568,1757278,0.0-19.0-0.0-0.65,A3JN9PHM83VP1V,3A3KKYU7Q6XNN7OKJ3M7MRU2CR5MWB,38SKSKU7R5DO2DKOKCMFA72SRPEILW,2,1
66,4,object_10,object_05,862.79999998212,7,2,776.59999999404,0.5555555555555556,1,object_07,1,1144,0,5,3,restaurant_4,2,memory-2step-stake-s,569,1765842,0.0-19.0-0.0-0.66,A3JN9PHM83VP1V,3A3KKYU7Q6XNN7OKJ3M7MRU2CR5MWB,38SKSKU7R5DO2DKOKCMFA72SRPEILW,8,7
67,1,object_04,object_03,1123.599999994,2,2,406.20000001788,0.1111111111111111,2,object_01,5,1149,0,5,1,desert_3,2,memory-2step-stake-s,570,1773614,0.0-19.0-0.0-0.67,A3JN9PHM83VP1V,3A3KKYU7Q6XNN7OKJ3M7MRU2CR5MWB,38SKSKU7R5DO2DKOKCMFA72SRPEILW,1,2
68,2,object_06,object_09,945.5,3,1,237.60000002384,0.8888888888888888,1,object_07,5,1189,0,8,1,forest_7,2,memory-2step-stake-s,571,1781957,0.0-19.0-0.0-0.68,A3JN9PHM83VP1V,3A3KKYU7Q6XNN7OKJ3M7MRU2CR5MWB,38SKSKU7R5DO2DKOKCMFA72SRPEILW,3,4
69,2,object_09,object_06,1115.099999994,3,2,411.09999999404,0.7777777777777778,1,object_07,5,1224,0,7,2,forest_7,2,memory-2step-stake-s,572,1790379,0.0-19.0-0.0-0.69,A3JN9PHM83VP1V,3A3KKYU7Q6XNN7OKJ3M7MRU2CR5MWB,38SKSKU7R5DO2DKOKCMFA72SRPEILW,4,3
70,2,object_06,object_09,757.59999999404,3,1,582.40000000596,0.8888888888888888,1,object_07,5,1264,0,8,2,forest_8,2,memory-2step-stake-s,573,1799108,0.0-19.0-0.0-0.70,A3JN9PHM83VP1V,3A3KKYU7Q6XNN7OKJ3M7MRU2CR5MWB,38SKSKU7R5DO2DKOKCMFA72SRPEILW,3,4
71,1,object_04,object_03,1053.6999999881,1,1,818.30000001192,0.8888888888888888,1,object_07,5,1304,0,8,5,desert_7,2,memory-2step-stake-s,574,1808032,0.0-19.0-0.0-0.71,A3JN9PHM83VP1V,3A3KKYU7Q6XNN7OKJ3M7MRU2CR5MWB,38SKSKU7R5DO2DKOKCMFA72SRPEILW,1,2
72,1,object_03,object_04,792.60000002384,1,2,540.90000000596,0.7777777777777778,1,object_07,5,1339,0,7,5,desert_3,2,memory-2step-stake-s,575,1816572,0.0-19.0-0.0-0.72,A3JN9PHM83VP1V,3A3KKYU7Q6XNN7OKJ3M7MRU2CR5MWB,38SKSKU7R5DO2DKOKCMFA72SRPEILW,2,1
73,4,object_10,object_05,-1.0,-1,-1,-1.0,0.0,-,0,1,1339,0,7,2,restaurant_4,2,memory-2step-stake-s,576,1823126,0.0-19.0-0.0-0.73,A3JN9PHM83VP1V,3A3KKYU7Q6XNN7OKJ3M7MRU2CR5MWB,38SKSKU7R5DO2DKOKCMFA72SRPEILW,8,7
74,3,object_08,object_02,1022.400000006,6,1,467.59999999404,0.1111111111111111,2,object_01,1,1340,0,8,1,library_3,2,memory-2step-stake-s,577,1830992,0.0-19.0-0.0-0.74,A3JN9PHM83VP1V,3A3KKYU7Q6XNN7OKJ3M7MRU2CR5MWB,38SKSKU7R5DO2DKOKCMFA72SRPEILW,6,5
75,4,object_10,object_05,1070.3000000119,7,2,474.90000000596,0.6666666666666666,1,object_07,1,1346,0,6,2,restaurant_5,2,memory-2step-stake-s,578,1839393,0.0-19.0-0.0-0.75,A3JN9PHM83VP1V,3A3KKYU7Q6XNN7OKJ3M7MRU2CR5MWB,38SKSKU7R5DO2DKOKCMFA72SRPEILW,8,7
76,2,object_09,object_06,859.30000001192,3,2,611.0,0.7777777777777778,1,object_07,5,1381,0,7,0,forest_7,2,memory-2step-stake-s,579,1848023,0.0-19.0-0.0-0.76,A3JN9PHM83VP1V,3A3KKYU7Q6XNN7OKJ3M7MRU2CR5MWB,38SKSKU7R5DO2DKOKCMFA72SRPEILW,4,3
77,4,object_10,object_05,1019.0,7,2,555.79999998212,1.0,1,object_07,1,1390,0,9,1,restaurant_3,2,memory-2step-stake-s,580,1856849,0.0-19.0-0.0-0.77,A3JN9PHM83VP1V,3A3KKYU7Q6XNN7OKJ3M7MRU2CR5MWB,38SKSKU7R5DO2DKOKCMFA72SRPEILW,8,7
78,1,object_04,object_03,1143.599999994,2,2,322.5,0.2222222222222222,2,object_01,1,1392,0,8,2,desert_4,2,memory-2step-stake-s,581,1864664,0.0-19.0-0.0-0.78,A3JN9PHM83VP1V,3A3KKYU7Q6XNN7OKJ3M7MRU2CR5MWB,38SKSKU7R5DO2DKOKCMFA72SRPEILW,1,2
79,4,object_05,object_10,1057.5,7,1,373.19999998808,1.0,1,object_07,1,1401,0,9,4,restaurant_4,2,memory-2step-stake-s,582,1873289,0.0-19.0-0.0-0.79,A3JN9PHM83VP1V,3A3KKYU7Q6XNN7OKJ3M7MRU2CR5MWB,38SKSKU7R5DO2DKOKCMFA72SRPEILW,7,8
80,2,object_06,object_09,1008.7999999821,3,1,295.40000000596,0.7777777777777778,1,object_07,5,1436,0,7,7,forest_4,2,memory-2step-stake-s,583,1881593,0.0-19.0-0.0-0.80,A3JN9PHM83VP1V,3A3KKYU7Q6XNN7OKJ3M7MRU2CR5MWB,38SKSKU7R5DO2DKOKCMFA72SRPEILW,3,4
81,1,object_03,object_04,790.0,1,2,276.70000001788,0.6666666666666666,1,object_07,5,1466,0,6,9,desert_7,2,memory-2step-stake-s,584,1889757,0.0-19.0-0.0-0.81,A3JN9PHM83VP1V,3A3KKYU7Q6XNN7OKJ3M7MRU2CR5MWB,38SKSKU7R5DO2DKOKCMFA72SRPEILW,2,1
82,2,object_09,object_06,1321.099999994,4,1,530.59999999404,0.6666666666666666,2,object_01,1,1472,0,7,6,forest_3,2,memory-2step-stake-s,585,1898228,0.0-19.0-0.0-0.82,A3JN9PHM83VP1V,3A3KKYU7Q6XNN7OKJ3M7MRU2CR5MWB,38SKSKU7R5DO2DKOKCMFA72SRPEILW,4,3
83,3,object_02,object_08,992.09999999404,6,2,382.59999999404,0.6666666666666666,2,object_01,1,1478,0,6,6,library_2,2,memory-2step-stake-s,586,1906528,0.0-19.0-0.0-0.83,A3JN9PHM83VP1V,3A3KKYU7Q6XNN7OKJ3M7MRU2CR5MWB,38SKSKU7R5DO2DKOKCMFA72SRPEILW,5,6
84,1,object_04,object_03,1014.7999999821,2,2,368.09999999404,0.5555555555555556,2,object_01,5,1503,0,4,5,desert_7,2,memory-2step-stake-s,587,1914701,0.0-19.0-0.0-0.84,A3JN9PHM83VP1V,3A3KKYU7Q6XNN7OKJ3M7MRU2CR5MWB,38SKSKU7R5DO2DKOKCMFA72SRPEILW,1,2
85,2,object_06,object_09,1393.0,4,2,643.90000000596,0.1111111111111111,2,object_01,1,1504,0,5,1,forest_7,2,memory-2step-stake-s,588,1922738,0.0-19.0-0.0-0.85,A3JN9PHM83VP1V,3A3KKYU7Q6XNN7OKJ3M7MRU2CR5MWB,38SKSKU7R5DO2DKOKCMFA72SRPEILW,3,4
86,4,object_05,object_10,895.90000000596,7,1,399.0,0.7777777777777778,1,object_07,5,1539,0,7,1,restaurant_4,2,memory-2step-stake-s,589,1931141,0.0-19.0-0.0-0.86,A3JN9PHM83VP1V,3A3KKYU7Q6XNN7OKJ3M7MRU2CR5MWB,38SKSKU7R5DO2DKOKCMFA72SRPEILW,7,8
87,1,object_03,object_04,674.40000000596,1,2,372.19999998808,0.6666666666666666,1,object_07,5,1569,0,6,2,desert_3,2,memory-2step-stake-s,590,1939440,0.0-19.0-0.0-0.87,A3JN9PHM83VP1V,3A3KKYU7Q6XNN7OKJ3M7MRU2CR5MWB,38SKSKU7R5DO2DKOKCMFA72SRPEILW,2,1
88,2,object_09,object_06,778.09999999404,3,2,448.0,0.6666666666666666,1,object_07,1,1575,0,6,1,forest_7,2,memory-2step-stake-s,591,1947815,0.0-19.0-0.0-0.88,A3JN9PHM83VP1V,3A3KKYU7Q6XNN7OKJ3M7MRU2CR5MWB,38SKSKU7R5DO2DKOKCMFA72SRPEILW,4,3
89,3,object_02,object_08,954.40000000596,6,2,440.0,0.1111111111111111,2,object_01,1,1576,0,4,1,library_5,2,memory-2step-stake-s,592,1955669,0.0-19.0-0.0-0.89,A3JN9PHM83VP1V,3A3KKYU7Q6XNN7OKJ3M7MRU2CR5MWB,38SKSKU7R5DO2DKOKCMFA72SRPEILW,5,6
90,1,object_03,object_04,993.90000000596,1,2,657.40000000596,0.2222222222222222,1,object_07,5,1586,0,2,1,desert_4,2,memory-2step-stake-s,593,1963810,0.0-19.0-0.0-0.90,A3JN9PHM83VP1V,3A3KKYU7Q6XNN7OKJ3M7MRU2CR5MWB,38SKSKU7R5DO2DKOKCMFA72SRPEILW,2,1
91,3,object_02,object_08,753.20000001788,6,2,338.90000000596,0.1111111111111111,2,object_01,1,1587,0,4,1,library_5,2,memory-2step-stake-s,594,1971528,0.0-19.0-0.0-0.91,A3JN9PHM83VP1V,3A3KKYU7Q6XNN7OKJ3M7MRU2CR5MWB,38SKSKU7R5DO2DKOKCMFA72SRPEILW,5,6
92,4,object_10,object_05,831.19999998808,8,1,320.19999998808,0.2222222222222222,2,object_01,1,1589,0,7,2,restaurant_6,2,memory-2step-stake-s,595,1979336,0.0-19.0-0.0-0.92,A3JN9PHM83VP1V,3A3KKYU7Q6XNN7OKJ3M7MRU2CR5MWB,38SKSKU7R5DO2DKOKCMFA72SRPEILW,8,7
93,2,object_06,object_09,986.0,4,2,666.90000000596,0.6666666666666666,2,object_01,1,1595,0,8,6,forest_3,2,memory-2step-stake-s,596,1987907,0.0-19.0-0.0-0.93,A3JN9PHM83VP1V,3A3KKYU7Q6XNN7OKJ3M7MRU2CR5MWB,38SKSKU7R5DO2DKOKCMFA72SRPEILW,3,4
94,1,object_04,object_03,730.80000001192,2,2,266.90000000596,0.8888888888888888,2,object_01,5,1635,0,7,8,desert_6,2,memory-2step-stake-s,597,1996277,0.0-19.0-0.0-0.94,A3JN9PHM83VP1V,3A3KKYU7Q6XNN7OKJ3M7MRU2CR5MWB,38SKSKU7R5DO2DKOKCMFA72SRPEILW,1,2
95,1,object_04,object_03,936.40000000596,2,2,287.0,0.8888888888888888,2,object_01,5,1675,0,9,8,desert_7,2,memory-2step-stake-s,598,2004691,0.0-19.0-0.0-0.95,A3JN9PHM83VP1V,3A3KKYU7Q6XNN7OKJ3M7MRU2CR5MWB,38SKSKU7R5DO2DKOKCMFA72SRPEILW,1,2
96,1,object_03,object_04,792.30000001192,1,2,277.09999999404,1.0,1,object_07,5,1720,0,9,8,desert_7,2,memory-2step-stake-s,599,2013195,0.0-19.0-0.0-0.96,A3JN9PHM83VP1V,3A3KKYU7Q6XNN7OKJ3M7MRU2CR5MWB,38SKSKU7R5DO2DKOKCMFA72SRPEILW,2,1
97,3,object_08,object_02,1274.599999994,6,1,364.09999999404,0.7777777777777778,2,object_01,1,1727,0,9,7,library_3,2,memory-2step-stake-s,600,2021582,0.0-19.0-0.0-0.97,A3JN9PHM83VP1V,3A3KKYU7Q6XNN7OKJ3M7MRU2CR5MWB,38SKSKU7R5DO2DKOKCMFA72SRPEILW,6,5
98,3,object_02,object_08,1156.3000000119,6,2,418.69999998808,0.5555555555555556,2,object_01,5,1752,0,8,5,library_8,2,memory-2step-stake-s,601,2029844,0.0-19.0-0.0-0.98,A3JN9PHM83VP1V,3A3KKYU7Q6XNN7OKJ3M7MRU2CR5MWB,38SKSKU7R5DO2DKOKCMFA72SRPEILW,5,6
99,3,object_08,object_02,1148.6999999881,6,1,343.29999998212,0.5555555555555556,2,object_01,1,1757,0,7,5,library_5,2,memory-2step-stake-s,602,2037985,0.0-19.0-0.0-0.99,A3JN9PHM83VP1V,3A3KKYU7Q6XNN7OKJ3M7MRU2CR5MWB,38SKSKU7R5DO2DKOKCMFA72SRPEILW,6,5
100,1,object_03,object_04,1083.3000000119,1,2,336.69999998808,0.5555555555555556,1,object_07,5,1782,0,5,6,desert_3,2,memory-2step-stake-s,603,2046151,0.0-19.0-0.0-0.100,A3JN9PHM83VP1V,3A3KKYU7Q6XNN7OKJ3M7MRU2CR5MWB,38SKSKU7R5DO2DKOKCMFA72SRPEILW,2,1
101,2,object_06,object_09,1128.900000006,3,1,462.09999999404,0.4444444444444444,1,object_07,5,1802,0,4,7,forest_3,2,memory-2step-stake-s,604,2054324,0.0-19.0-0.0-0.101,A3JN9PHM83VP1V,3A3KKYU7Q6XNN7OKJ3M7MRU2CR5MWB,38SKSKU7R5DO2DKOKCMFA72SRPEILW,3,4
102,1,object_03,object_04,601.70000001788,1,2,631.90000000596,0.2222222222222222,1,object_07,5,1812,0,2,8,desert_4,2,memory-2step-stake-s,605,2062444,0.0-19.0-0.0-0.102,A3JN9PHM83VP1V,3A3KKYU7Q6XNN7OKJ3M7MRU2CR5MWB,38SKSKU7R5DO2DKOKCMFA72SRPEILW,2,1
103,2,object_09,object_06,778.79999998212,4,1,301.30000001192,0.6666666666666666,2,object_01,5,1842,0,1,6,forest_7,2,memory-2step-stake-s,606,2070641,0.0-19.0-0.0-0.103,A3JN9PHM83VP1V,3A3KKYU7Q6XNN7OKJ3M7MRU2CR5MWB,38SKSKU7R5DO2DKOKCMFA72SRPEILW,4,3
104,1,object_03,object_04,1020.8000000119,2,1,435.09999999404,0.8888888888888888,2,object_01,5,1882,0,3,8,desert_4,2,memory-2step-stake-s,607,2079211,0.0-19.0-0.0-0.104,A3JN9PHM83VP1V,3A3KKYU7Q6XNN7OKJ3M7MRU2CR5MWB,38SKSKU7R5DO2DKOKCMFA72SRPEILW,2,1
105,1,object_03,object_04,788.10000002384,1,2,-1.0,0.0,1,object_07,1,1882,0,4,8,desert_6,2,memory-2step-stake-s,608,2087789,0.0-19.0-0.0-0.105,A3JN9PHM83VP1V,3A3KKYU7Q6XNN7OKJ3M7MRU2CR5MWB,38SKSKU7R5DO2DKOKCMFA72SRPEILW,2,1
106,2,object_09,object_06,791.59999999404,4,1,643.80000001192,1.0,2,object_01,5,1927,0,2,9,forest_8,2,memory-2step-stake-s,609,2096674,0.0-19.0-0.0-0.106,A3JN9PHM83VP1V,3A3KKYU7Q6XNN7OKJ3M7MRU2CR5MWB,38SKSKU7R5DO2DKOKCMFA72SRPEILW,4,3
107,1,object_04,object_03,1285.8000000119,2,2,475.5,0.5555555555555556,2,object_01,1,1932,0,3,5,desert_7,2,memory-2step-stake-s,610,2104962,0.0-19.0-0.0-0.107,A3JN9PHM83VP1V,3A3KKYU7Q6XNN7OKJ3M7MRU2CR5MWB,38SKSKU7R5DO2DKOKCMFA72SRPEILW,1,2
108,2,object_06,object_09,1271.900000006,4,2,353.5,0.6666666666666666,2,object_01,5,1962,0,4,6,forest_4,2,memory-2step-stake-s,611,2113221,0.0-19.0-0.0-0.108,A3JN9PHM83VP1V,3A3KKYU7Q6XNN7OKJ3M7MRU2CR5MWB,38SKSKU7R5DO2DKOKCMFA72SRPEILW,3,4
109,2,object_09,object_06,1293.1999999881,3,2,499.5,0.4444444444444444,1,object_07,1,1966,0,4,4,forest_7,2,memory-2step-stake-s,612,2121404,0.0-19.0-0.0-0.109,A3JN9PHM83VP1V,3A3KKYU7Q6XNN7OKJ3M7MRU2CR5MWB,38SKSKU7R5DO2DKOKCMFA72SRPEILW,4,3
110,4,object_05,object_10,1338.7000000179,8,2,403.0,0.3333333333333333,2,object_01,5,1981,0,7,3,restaurant_4,2,memory-2step-stake-s,613,2129413,0.0-19.0-0.0-0.110,A3JN9PHM83VP1V,3A3KKYU7Q6XNN7OKJ3M7MRU2CR5MWB,38SKSKU7R5DO2DKOKCMFA72SRPEILW,7,8
111,4,object_05,object_10,1007.0,7,1,377.89999997616,0.5555555555555556,1,object_07,1,1986,0,5,4,restaurant_3,2,memory-2step-stake-s,614,2137599,0.0-19.0-0.0-0.111,A3JN9PHM83VP1V,3A3KKYU7Q6XNN7OKJ3M7MRU2CR5MWB,38SKSKU7R5DO2DKOKCMFA72SRPEILW,7,8
112,3,object_02,object_08,1177.8000000119,5,1,402.80000001192,0.4444444444444444,1,object_07,1,1990,0,4,5,library_8,2,memory-2step-stake-s,615,2145724,0.0-19.0-0.0-0.112,A3JN9PHM83VP1V,3A3KKYU7Q6XNN7OKJ3M7MRU2CR5MWB,38SKSKU7R5DO2DKOKCMFA72SRPEILW,5,6
113,2,object_06,object_09,710.20000001788,4,2,277.09999999404,0.2222222222222222,2,object_01,5,2000,0,4,2,forest_3,2,memory-2step-stake-s,616,2153488,0.0-19.0-0.0-0.113,A3JN9PHM83VP1V,3A3KKYU7Q6XNN7OKJ3M7MRU2CR5MWB,38SKSKU7R5DO2DKOKCMFA72SRPEILW,3,4
114,2,object_06,object_09,930.30000001192,3,1,267.59999999404,0.2222222222222222,1,object_07,5,2010,0,2,2,forest_4,2,memory-2step-stake-s,617,2161238,0.0-19.0-0.0-0.114,A3JN9PHM83VP1V,3A3KKYU7Q6XNN7OKJ3M7MRU2CR5MWB,38SKSKU7R5DO2DKOKCMFA72SRPEILW,3,4
115,3,object_02,object_08,694.40000000596,5,1,343.59999999404,0.1111111111111111,1,object_07,1,2011,0,1,5,library_5,2,memory-2step-stake-s,618,2168978,0.0-19.0-0.0-0.115,A3JN9PHM83VP1V,3A3KKYU7Q6XNN7OKJ3M7MRU2CR5MWB,38SKSKU7R5DO2DKOKCMFA72SRPEILW,5,6
116,3,object_02,object_08,1074.2000000179,6,2,410.5,0.6666666666666666,2,object_01,1,2017,0,0,6,library_3,2,memory-2step-stake-s,619,2177295,0.0-19.0-0.0-0.116,A3JN9PHM83VP1V,3A3KKYU7Q6XNN7OKJ3M7MRU2CR5MWB,38SKSKU7R5DO2DKOKCMFA72SRPEILW,5,6
117,2,object_06,object_09,1210.7000000179,4,2,453.39999997616,0.6666666666666666,2,object_01,5,2047,0,1,6,forest_4,2,memory-2step-stake-s,620,2185646,0.0-19.0-0.0-0.117,A3JN9PHM83VP1V,3A3KKYU7Q6XNN7OKJ3M7MRU2CR5MWB,38SKSKU7R5DO2DKOKCMFA72SRPEILW,3,4
118,3,object_08,object_02,1361.6999999881,6,1,432.19999998808,0.6666666666666666,2,object_01,1,2053,0,4,6,library_8,2,memory-2step-stake-s,621,2193988,0.0-19.0-0.0-0.118,A3JN9PHM83VP1V,3A3KKYU7Q6XNN7OKJ3M7MRU2CR5MWB,38SKSKU7R5DO2DKOKCMFA72SRPEILW,6,5
119,3,object_08,object_02,697.70000001788,6,1,492.29999998212,0.6666666666666666,2,object_01,1,2059,0,3,6,library_2,2,memory-2step-stake-s,622,2202392,0.0-19.0-0.0-0.119,A3JN9PHM83VP1V,3A3KKYU7Q6XNN7OKJ3M7MRU2CR5MWB,38SKSKU7R5DO2DKOKCMFA72SRPEILW,6,5
120,3,object_02,object_08,1168.099999994,5,1,342.90000000596,0.7777777777777778,1,object_07,1,2066,0,7,5,library_8,2,memory-2step-stake-s,623,2210744,0.0-19.0-0.0-0.120,A3JN9PHM83VP1V,3A3KKYU7Q6XNN7OKJ3M7MRU2CR5MWB,38SKSKU7R5DO2DKOKCMFA72SRPEILW,5,6
121,1,object_04,object_03,916.0,1,1,266.69999998808,0.5555555555555556,1,object_07,5,2091,0,5,7,desert_3,2,memory-2step-stake-s,624,2218799,0.0-19.0-0.0-0.121,A3JN9PHM83VP1V,3A3KKYU7Q6XNN7OKJ3M7MRU2CR5MWB,38SKSKU7R5DO2DKOKCMFA72SRPEILW,1,2
122,3,object_08,object_02,774.40000000596,5,2,428.79999998212,0.3333333333333333,1,object_07,1,2094,0,3,6,library_2,2,memory-2step-stake-s,625,2226818,0.0-19.0-0.0-0.122,A3JN9PHM83VP1V,3A3KKYU7Q6XNN7OKJ3M7MRU2CR5MWB,38SKSKU7R5DO2DKOKCMFA72SRPEILW,6,5
123,2,object_09,object_06,1364.7999999821,4,1,321.59999999404,0.5555555555555556,2,object_01,5,2119,0,2,5,forest_3,2,memory-2step-stake-s,626,2234961,0.0-19.0-0.0-0.123,A3JN9PHM83VP1V,3A3KKYU7Q6XNN7OKJ3M7MRU2CR5MWB,38SKSKU7R5DO2DKOKCMFA72SRPEILW,4,3
124,3,object_02,object_08,1200.900000006,6,2,383.79999998212,0.2222222222222222,2,object_01,1,2121,0,1,2,library_3,2,memory-2step-stake-s,627,2242828,0.0-19.0-0.0-0.124,A3JN9PHM83VP1V,3A3KKYU7Q6XNN7OKJ3M7MRU2CR5MWB,38SKSKU7R5DO2DKOKCMFA72SRPEILW,5,6
125,1,object_03,object_04,881.19999998808,1,2,406.29999998212,0.1111111111111111,1,object_07,1,2122,0,1,4,desert_4,2,memory-2step-stake-s,628,2250607,0.0-19.0-0.0-0.125,A3JN9PHM83VP1V,3A3KKYU7Q6XNN7OKJ3M7MRU2CR5MWB,38SKSKU7R5DO2DKOKCMFA72SRPEILW,2,1
126,1,object_04,object_03,770.30000001192,1,1,602.0,0.1111111111111111,1,object_07,5,2127,0,1,3,desert_4,2,memory-2step-stake-s,629,2258606,0.0-19.0-0.0-0.126,A3JN9PHM83VP1V,3A3KKYU7Q6XNN7OKJ3M7MRU2CR5MWB,38SKSKU7R5DO2DKOKCMFA72SRPEILW,1,2
127,4,object_10,object_05,1062.5,8,1,472.30000001192,0.0,2,object_01,1,2127,0,1,0,restaurant_4,2,memory-2step-stake-s,630,2267296,0.0-19.0-0.0-0.127,A3JN9PHM83VP1V,3A3KKYU7Q6XNN7OKJ3M7MRU2CR5MWB,38SKSKU7R5DO2DKOKCMFA72SRPEILW,8,7
128,4,object_10,object_05,1388.900000006,7,2,919.0,0.2222222222222222,1,object_07,1,2129,0,2,2,restaurant_5,2,memory-2step-stake-s,632,2875511,0.0-19.0-0.1-0.128,A3JN9PHM83VP1V,3A3KKYU7Q6XNN7OKJ3M7MRU2CR5MWB,38SKSKU7R5DO2DKOKCMFA72SRPEILW,8,7
129,4,object_05,object_10,-1.0,-1,-1,-1.0,0.0,-,0,1,2129,0,0,0,restaurant_6,2,memory-2step-stake-s,633,2882064,0.0-19.0-0.1-0.129,A3JN9PHM83VP1V,3A3KKYU7Q6XNN7OKJ3M7MRU2CR5MWB,38SKSKU7R5DO2DKOKCMFA72SRPEILW,7,8
130,1,object_03,object_04,964.60000002384,2,1,261.20000001788,0.0,2,object_01,5,2129,0,0,0,desert_7,2,memory-2step-stake-s,634,2889615,0.0-19.0-0.1-0.130,A3JN9PHM83VP1V,3A3KKYU7Q6XNN7OKJ3M7MRU2CR5MWB,38SKSKU7R5DO2DKOKCMFA72SRPEILW,2,1
131,3,object_08,object_02,1506.6000000238,5,2,613.40000000596,0.2222222222222222,1,object_07,1,2131,0,2,1,library_8,2,memory-2step-stake-s,635,2897687,0.0-19.0-0.1-0.131,A3JN9PHM83VP1V,3A3KKYU7Q6XNN7OKJ3M7MRU2CR5MWB,38SKSKU7R5DO2DKOKCMFA72SRPEILW,6,5
132,3,object_08,object_02,716.39999997616,5,2,483.79999998212,0.1111111111111111,1,object_07,5,2136,0,1,1,library_2,2,memory-2step-stake-s,636,2905546,0.0-19.0-0.1-0.132,A3JN9PHM83VP1V,3A3KKYU7Q6XNN7OKJ3M7MRU2CR5MWB,38SKSKU7R5DO2DKOKCMFA72SRPEILW,6,5
133,1,object_04,object_03,968.80000001192,1,1,374.19999998808,0.2222222222222222,1,object_07,5,2146,0,2,1,desert_7,2,memory-2step-stake-s,637,2913399,0.0-19.0-0.1-0.133,A3JN9PHM83VP1V,3A3KKYU7Q6XNN7OKJ3M7MRU2CR5MWB,38SKSKU7R5DO2DKOKCMFA72SRPEILW,1,2
134,2,object_09,object_06,1394.5,3,2,488.0,0.2222222222222222,1,object_07,1,2148,0,2,2,forest_3,2,memory-2step-stake-s,638,2921386,0.0-19.0-0.1-0.134,A3JN9PHM83VP1V,3A3KKYU7Q6XNN7OKJ3M7MRU2CR5MWB,38SKSKU7R5DO2DKOKCMFA72SRPEILW,4,3
135,3,object_02,object_08,-1.0,-1,-1,-1.0,0.0,-,0,1,2148,0,3,3,library_8,2,memory-2step-stake-s,639,2927925,0.0-19.0-0.1-0.135,A3JN9PHM83VP1V,3A3KKYU7Q6XNN7OKJ3M7MRU2CR5MWB,38SKSKU7R5DO2DKOKCMFA72SRPEILW,5,6
136,1,object_04,object_03,824.90000000596,1,1,698.69999998808,0.1111111111111111,1,object_07,5,2153,0,1,3,desert_6,2,memory-2step-stake-s,640,2936010,0.0-19.0-0.1-0.136,A3JN9PHM83VP1V,3A3KKYU7Q6XNN7OKJ3M7MRU2CR5MWB,38SKSKU7R5DO2DKOKCMFA72SRPEILW,1,2
137,2,object_09,object_06,778.20000001788,3,2,225.0,0.3333333333333333,1,object_07,5,2168,0,3,8,forest_3,2,memory-2step-stake-s,641,2943840,0.0-19.0-0.1-0.137,A3JN9PHM83VP1V,3A3KKYU7Q6XNN7OKJ3M7MRU2CR5MWB,38SKSKU7R5DO2DKOKCMFA72SRPEILW,4,3
138,3,object_02,object_08,712.5,5,1,429.89999997616,0.4444444444444444,1,object_07,1,2172,0,4,8,library_8,2,memory-2step-stake-s,642,2951956,0.0-19.0-0.1-0.138,A3JN9PHM83VP1V,3A3KKYU7Q6XNN7OKJ3M7MRU2CR5MWB,38SKSKU7R5DO2DKOKCMFA72SRPEILW,5,6
139,3,object_08,object_02,785.70000001788,5,2,451.20000001788,0.4444444444444444,1,object_07,1,2176,0,4,7,library_8,2,memory-2step-stake-s,643,2960113,0.0-19.0-0.1-0.139,A3JN9PHM83VP1V,3A3KKYU7Q6XNN7OKJ3M7MRU2CR5MWB,38SKSKU7R5DO2DKOKCMFA72SRPEILW,6,5
140,3,object_08,object_02,604.0,5,2,347.09999999404,0.4444444444444444,1,object_07,1,2180,0,4,7,library_3,2,memory-2step-stake-s,644,2968167,0.0-19.0-0.1-0.140,A3JN9PHM83VP1V,3A3KKYU7Q6XNN7OKJ3M7MRU2CR5MWB,38SKSKU7R5DO2DKOKCMFA72SRPEILW,6,5
141,4,object_10,object_05,1123.1000000238,7,2,907.30000001192,0.5555555555555556,1,object_07,5,2205,0,5,6,restaurant_6,2,memory-2step-stake-s,645,2976873,0.0-19.0-0.1-0.141,A3JN9PHM83VP1V,3A3KKYU7Q6XNN7OKJ3M7MRU2CR5MWB,38SKSKU7R5DO2DKOKCMFA72SRPEILW,8,7
142,3,object_08,object_02,1149.1000000238,5,2,564.59999999404,0.5555555555555556,1,object_07,1,2210,0,5,4,library_2,2,memory-2step-stake-s,646,2985240,0.0-19.0-0.1-0.142,A3JN9PHM83VP1V,3A3KKYU7Q6XNN7OKJ3M7MRU2CR5MWB,38SKSKU7R5DO2DKOKCMFA72SRPEILW,6,5
143,4,object_10,object_05,821.30000001192,7,2,337.70000001788,0.4444444444444444,1,object_07,1,2214,0,4,1,restaurant_3,2,memory-2step-stake-s,647,2993322,0.0-19.0-0.1-0.143,A3JN9PHM83VP1V,3A3KKYU7Q6XNN7OKJ3M7MRU2CR5MWB,38SKSKU7R5DO2DKOKCMFA72SRPEILW,8,7
144,2,object_09,object_06,1200.099999994,4,1,269.80000001192,0.5555555555555556,2,object_01,1,2219,0,2,5,forest_4,2,memory-2step-stake-s,648,3001363,0.0-19.0-0.1-0.144,A3JN9PHM83VP1V,3A3KKYU7Q6XNN7OKJ3M7MRU2CR5MWB,38SKSKU7R5DO2DKOKCMFA72SRPEILW,4,3
145,1,object_03,object_04,890.0,2,1,379.29999998212,0.7777777777777778,2,object_01,5,2254,0,0,7,desert_7,2,memory-2step-stake-s,649,3009768,0.0-19.0-0.1-0.145,A3JN9PHM83VP1V,3A3KKYU7Q6XNN7OKJ3M7MRU2CR5MWB,38SKSKU7R5DO2DKOKCMFA72SRPEILW,2,1
146,3,object_02,object_08,1284.099999994,6,2,313.0,0.8888888888888888,2,object_01,1,2262,0,2,8,library_3,2,memory-2step-stake-s,650,3018174,0.0-19.0-0.1-0.146,A3JN9PHM83VP1V,3A3KKYU7Q6XNN7OKJ3M7MRU2CR5MWB,38SKSKU7R5DO2DKOKCMFA72SRPEILW,5,6
147,3,object_08,object_02,790.60000002384,6,1,302.5,0.7777777777777778,2,object_01,1,2269,0,1,7,library_3,2,memory-2step-stake-s,651,3026489,0.0-19.0-0.1-0.147,A3JN9PHM83VP1V,3A3KKYU7Q6XNN7OKJ3M7MRU2CR5MWB,38SKSKU7R5DO2DKOKCMFA72SRPEILW,6,5
148,2,object_09,object_06,988.30000001192,4,1,230.90000000596,0.6666666666666666,2,object_01,5,2299,0,1,6,forest_7,2,memory-2step-stake-s,652,3034611,0.0-19.0-0.1-0.148,A3JN9PHM83VP1V,3A3KKYU7Q6XNN7OKJ3M7MRU2CR5MWB,38SKSKU7R5DO2DKOKCMFA72SRPEILW,4,3
149,3,object_02,object_08,1140.099999994,6,2,372.09999999404,0.5555555555555556,2,object_01,1,2304,0,1,5,library_2,2,memory-2step-stake-s,653,3042798,0.0-19.0-0.1-0.149,A3JN9PHM83VP1V,3A3KKYU7Q6XNN7OKJ3M7MRU2CR5MWB,38SKSKU7R5DO2DKOKCMFA72SRPEILW,5,6
150,2,object_06,object_09,1021.3999999762,4,2,257.0,0.4444444444444444,2,object_01,5,2324,0,4,4,forest_4,2,memory-2step-stake-s,654,3050764,0.0-19.0-0.1-0.150,A3JN9PHM83VP1V,3A3KKYU7Q6XNN7OKJ3M7MRU2CR5MWB,38SKSKU7R5DO2DKOKCMFA72SRPEILW,3,4
151,4,object_05,object_10,1003.7000000179,8,2,333.60000002384,0.7777777777777778,2,object_01,1,2331,0,4,7,restaurant_5,2,memory-2step-stake-s,655,3059124,0.0-19.0-0.1-0.151,A3JN9PHM83VP1V,3A3KKYU7Q6XNN7OKJ3M7MRU2CR5MWB,38SKSKU7R5DO2DKOKCMFA72SRPEILW,7,8
152,1,object_03,object_04,737.90000000596,2,1,249.59999999404,1.0,2,object_01,5,2376,0,3,9,desert_6,2,memory-2step-stake-s,656,3067552,0.0-19.0-0.1-0.152,A3JN9PHM83VP1V,3A3KKYU7Q6XNN7OKJ3M7MRU2CR5MWB,38SKSKU7R5DO2DKOKCMFA72SRPEILW,2,1
153,1,object_03,object_04,705.20000001788,2,1,280.19999998808,0.6666666666666666,2,object_01,5,2406,0,4,6,desert_4,2,memory-2step-stake-s,657,3075710,0.0-19.0-0.1-0.153,A3JN9PHM83VP1V,3A3KKYU7Q6XNN7OKJ3M7MRU2CR5MWB,38SKSKU7R5DO2DKOKCMFA72SRPEILW,2,1
154,2,object_09,object_06,944.09999999404,4,1,390.90000000596,0.5555555555555556,2,object_01,1,2411,0,4,5,forest_3,2,memory-2step-stake-s,658,3083922,0.0-19.0-0.1-0.154,A3JN9PHM83VP1V,3A3KKYU7Q6XNN7OKJ3M7MRU2CR5MWB,38SKSKU7R5DO2DKOKCMFA72SRPEILW,4,3
155,2,object_06,object_09,965.69999998808,3,1,506.30000001192,0.4444444444444444,1,object_07,5,2431,0,4,4,forest_3,2,memory-2step-stake-s,659,3092135,0.0-19.0-0.1-0.155,A3JN9PHM83VP1V,3A3KKYU7Q6XNN7OKJ3M7MRU2CR5MWB,38SKSKU7R5DO2DKOKCMFA72SRPEILW,3,4
156,2,object_09,object_06,1115.400000006,3,2,350.20000001788,0.5555555555555556,1,object_07,5,2456,0,5,4,forest_8,2,memory-2step-stake-s,660,3100288,0.0-19.0-0.1-0.156,A3JN9PHM83VP1V,3A3KKYU7Q6XNN7OKJ3M7MRU2CR5MWB,38SKSKU7R5DO2DKOKCMFA72SRPEILW,4,3
157,3,object_08,object_02,817.79999998212,6,1,266.29999998212,0.5555555555555556,2,object_01,5,2481,0,4,5,library_2,2,memory-2step-stake-s,661,3108351,0.0-19.0-0.1-0.157,A3JN9PHM83VP1V,3A3KKYU7Q6XNN7OKJ3M7MRU2CR5MWB,38SKSKU7R5DO2DKOKCMFA72SRPEILW,6,5
158,4,object_10,object_05,1126.2000000179,7,2,412.80000001192,0.5555555555555556,1,object_07,5,2506,0,5,8,restaurant_6,2,memory-2step-stake-s,662,3116576,0.0-19.0-0.1-0.158,A3JN9PHM83VP1V,3A3KKYU7Q6XNN7OKJ3M7MRU2CR5MWB,38SKSKU7R5DO2DKOKCMFA72SRPEILW,8,7
159,1,object_03,object_04,925.90000000596,2,1,457.09999999404,0.8888888888888888,2,object_01,5,2546,0,4,8,desert_6,2,memory-2step-stake-s,663,3125111,0.0-19.0-0.1-0.159,A3JN9PHM83VP1V,3A3KKYU7Q6XNN7OKJ3M7MRU2CR5MWB,38SKSKU7R5DO2DKOKCMFA72SRPEILW,2,1
160,4,object_05,object_10,1211.2000000179,8,2,718.10000002384,0.8888888888888888,2,object_01,1,2554,0,4,8,restaurant_6,2,memory-2step-stake-s,664,3133938,0.0-19.0-0.1-0.160,A3JN9PHM83VP1V,3A3KKYU7Q6XNN7OKJ3M7MRU2CR5MWB,38SKSKU7R5DO2DKOKCMFA72SRPEILW,7,8
161,2,object_09,object_06,791.59999999404,3,2,445.0,1.0,1,object_07,5,2599,0,9,8,forest_8,2,memory-2step-stake-s,665,3142567,0.0-19.0-0.1-0.161,A3JN9PHM83VP1V,3A3KKYU7Q6XNN7OKJ3M7MRU2CR5MWB,38SKSKU7R5DO2DKOKCMFA72SRPEILW,4,3
162,4,object_05,object_10,910.5,7,1,422.80000001192,0.8888888888888888,1,object_07,1,2607,0,8,8,restaurant_3,2,memory-2step-stake-s,666,3151082,0.0-19.0-0.1-0.162,A3JN9PHM83VP1V,3A3KKYU7Q6XNN7OKJ3M7MRU2CR5MWB,38SKSKU7R5DO2DKOKCMFA72SRPEILW,7,8
163,1,object_04,object_03,932.19999998808,1,1,270.19999998808,0.7777777777777778,1,object_07,1,2614,0,7,9,desert_4,2,memory-2step-stake-s,667,3159322,0.0-19.0-0.1-0.163,A3JN9PHM83VP1V,3A3KKYU7Q6XNN7OKJ3M7MRU2CR5MWB,38SKSKU7R5DO2DKOKCMFA72SRPEILW,1,2
164,4,object_10,object_05,783.80000001192,7,2,686.5,0.8888888888888888,1,object_07,5,2654,0,8,8,restaurant_5,2,memory-2step-stake-s,668,3168146,0.0-19.0-0.1-0.164,A3JN9PHM83VP1V,3A3KKYU7Q6XNN7OKJ3M7MRU2CR5MWB,38SKSKU7R5DO2DKOKCMFA72SRPEILW,8,7
165,1,object_03,object_04,803.69999998808,1,2,390.30000001192,0.7777777777777778,1,object_07,5,2689,0,7,8,desert_3,2,memory-2step-stake-s,669,3176564,0.0-19.0-0.1-0.165,A3JN9PHM83VP1V,3A3KKYU7Q6XNN7OKJ3M7MRU2CR5MWB,38SKSKU7R5DO2DKOKCMFA72SRPEILW,2,1
166,3,object_08,object_02,1259.099999994,5,2,566.90000000596,0.8888888888888888,1,object_07,1,2697,0,8,8,library_2,2,memory-2step-stake-s,670,3185249,0.0-19.0-0.1-0.166,A3JN9PHM83VP1V,3A3KKYU7Q6XNN7OKJ3M7MRU2CR5MWB,38SKSKU7R5DO2DKOKCMFA72SRPEILW,6,5
167,2,object_09,object_06,1051.5,3,2,388.19999998808,0.6666666666666666,1,object_07,5,2727,0,6,8,forest_4,2,memory-2step-stake-s,671,3193560,0.0-19.0-0.1-0.167,A3JN9PHM83VP1V,3A3KKYU7Q6XNN7OKJ3M7MRU2CR5MWB,38SKSKU7R5DO2DKOKCMFA72SRPEILW,4,3
168,2,object_06,object_09,-1.0,-1,-1,-1.0,0.0,-,0,5,2727,0,8,7,forest_3,2,memory-2step-stake-s,672,3200114,0.0-19.0-0.1-0.168,A3JN9PHM83VP1V,3A3KKYU7Q6XNN7OKJ3M7MRU2CR5MWB,38SKSKU7R5DO2DKOKCMFA72SRPEILW,3,4
169,4,object_05,object_10,973.70000001788,7,1,468.0,0.8888888888888888,1,object_07,1,2735,0,8,5,restaurant_6,2,memory-2step-stake-s,673,3208684,0.0-19.0-0.1-0.169,A3JN9PHM83VP1V,3A3KKYU7Q6XNN7OKJ3M7MRU2CR5MWB,38SKSKU7R5DO2DKOKCMFA72SRPEILW,7,8
170,1,object_03,object_04,733.70000001788,1,2,310.0,0.7777777777777778,1,object_07,5,2770,0,7,6,desert_4,2,memory-2step-stake-s,674,3217012,0.0-19.0-0.1-0.170,A3JN9PHM83VP1V,3A3KKYU7Q6XNN7OKJ3M7MRU2CR5MWB,38SKSKU7R5DO2DKOKCMFA72SRPEILW,2,1
171,3,object_02,object_08,807.40000000596,5,1,843.0,0.8888888888888888,1,object_07,5,2810,0,8,7,library_5,2,memory-2step-stake-s,675,3225965,0.0-19.0-0.1-0.171,A3JN9PHM83VP1V,3A3KKYU7Q6XNN7OKJ3M7MRU2CR5MWB,38SKSKU7R5DO2DKOKCMFA72SRPEILW,5,6
172,2,object_06,object_09,1163.400000006,3,1,361.0,0.7777777777777778,1,object_07,5,2845,0,7,8,forest_4,2,memory-2step-stake-s,676,3234343,0.0-19.0-0.1-0.172,A3JN9PHM83VP1V,3A3KKYU7Q6XNN7OKJ3M7MRU2CR5MWB,38SKSKU7R5DO2DKOKCMFA72SRPEILW,3,4
173,4,object_10,object_05,875.59999999404,7,2,275.09999999404,0.5555555555555556,1,object_07,1,2850,0,5,8,restaurant_3,2,memory-2step-stake-s,677,3242384,0.0-19.0-0.1-0.173,A3JN9PHM83VP1V,3A3KKYU7Q6XNN7OKJ3M7MRU2CR5MWB,38SKSKU7R5DO2DKOKCMFA72SRPEILW,8,7
174,1,object_03,object_04,793.30000001192,1,2,452.40000000596,0.1111111111111111,1,object_07,5,2855,0,1,5,desert_7,2,memory-2step-stake-s,678,3250197,0.0-19.0-0.1-0.174,A3JN9PHM83VP1V,3A3KKYU7Q6XNN7OKJ3M7MRU2CR5MWB,38SKSKU7R5DO2DKOKCMFA72SRPEILW,2,1
175,4,object_05,object_10,1312.2999999821,8,2,532.69999998808,0.7777777777777778,2,object_01,1,2862,0,1,7,restaurant_3,2,memory-2step-stake-s,679,3258732,0.0-19.0-0.1-0.175,A3JN9PHM83VP1V,3A3KKYU7Q6XNN7OKJ3M7MRU2CR5MWB,38SKSKU7R5DO2DKOKCMFA72SRPEILW,7,8
176,2,object_09,object_06,1349.6000000238,4,1,310.20000001788,0.5555555555555556,2,object_01,5,2887,0,0,5,forest_7,2,memory-2step-stake-s,680,3266848,0.0-19.0-0.1-0.176,A3JN9PHM83VP1V,3A3KKYU7Q6XNN7OKJ3M7MRU2CR5MWB,38SKSKU7R5DO2DKOKCMFA72SRPEILW,4,3
177,3,object_02,object_08,1220.5,6,2,376.90000000596,0.5555555555555556,2,object_01,1,2892,0,2,5,library_5,2,memory-2step-stake-s,681,3275047,0.0-19.0-0.1-0.177,A3JN9PHM83VP1V,3A3KKYU7Q6XNN7OKJ3M7MRU2CR5MWB,38SKSKU7R5DO2DKOKCMFA72SRPEILW,5,6
178,3,object_08,object_02,858.80000001192,6,1,704.5,0.8888888888888888,2,object_01,1,2900,0,1,8,library_5,2,memory-2step-stake-s,682,3285155,0.0-19.0-0.1-0.178,A3JN9PHM83VP1V,3A3KKYU7Q6XNN7OKJ3M7MRU2CR5MWB,38SKSKU7R5DO2DKOKCMFA72SRPEILW,6,5
179,1,object_03,object_04,654.40000000596,1,2,146.40000000596,0.3333333333333333,1,object_07,5,2915,0,3,9,desert_6,2,memory-2step-stake-s,683,3292870,0.0-19.0-0.1-0.179,A3JN9PHM83VP1V,3A3KKYU7Q6XNN7OKJ3M7MRU2CR5MWB,38SKSKU7R5DO2DKOKCMFA72SRPEILW,2,1
180,2,object_06,object_09,1078.599999994,3,1,572.40000000596,0.6666666666666666,1,object_07,1,2921,0,6,7,forest_7,2,memory-2step-stake-s,684,3301345,0.0-19.0-0.1-0.180,A3JN9PHM83VP1V,3A3KKYU7Q6XNN7OKJ3M7MRU2CR5MWB,38SKSKU7R5DO2DKOKCMFA72SRPEILW,3,4
181,4,object_05,object_10,1374.6999999881,8,2,460.69999998808,0.7777777777777778,2,object_01,1,2928,0,7,7,restaurant_4,2,memory-2step-stake-s,685,3309806,0.0-19.0-0.1-0.181,A3JN9PHM83VP1V,3A3KKYU7Q6XNN7OKJ3M7MRU2CR5MWB,38SKSKU7R5DO2DKOKCMFA72SRPEILW,7,8
182,4,object_05,object_10,1040.8999999762,7,1,236.5,0.6666666666666666,1,object_07,1,2934,0,6,8,restaurant_6,2,memory-2step-stake-s,686,3317909,0.0-19.0-0.1-0.182,A3JN9PHM83VP1V,3A3KKYU7Q6XNN7OKJ3M7MRU2CR5MWB,38SKSKU7R5DO2DKOKCMFA72SRPEILW,7,8
183,4,object_05,object_10,989.80000001192,7,1,280.19999998808,0.4444444444444444,1,object_07,1,2938,0,4,8,restaurant_5,2,memory-2step-stake-s,687,3325889,0.0-19.0-0.1-0.183,A3JN9PHM83VP1V,3A3KKYU7Q6XNN7OKJ3M7MRU2CR5MWB,38SKSKU7R5DO2DKOKCMFA72SRPEILW,7,8
184,3,object_02,object_08,871.70000001788,6,2,297.59999999404,0.4444444444444444,2,object_01,1,2942,0,8,4,library_2,2,memory-2step-stake-s,688,3333864,0.0-19.0-0.1-0.184,A3JN9PHM83VP1V,3A3KKYU7Q6XNN7OKJ3M7MRU2CR5MWB,38SKSKU7R5DO2DKOKCMFA72SRPEILW,5,6
185,2,object_06,object_09,1144.1999999881,3,1,284.40000000596,0.8888888888888888,1,object_07,5,2982,0,8,3,forest_8,2,memory-2step-stake-s,689,3342280,0.0-19.0-0.1-0.185,A3JN9PHM83VP1V,3A3KKYU7Q6XNN7OKJ3M7MRU2CR5MWB,38SKSKU7R5DO2DKOKCMFA72SRPEILW,3,4
186,1,object_03,object_04,626.69999998808,1,2,322.5,0.8888888888888888,1,object_07,5,3022,0,8,4,desert_6,2,memory-2step-stake-s,690,3350707,0.0-19.0-0.1-0.186,A3JN9PHM83VP1V,3A3KKYU7Q6XNN7OKJ3M7MRU2CR5MWB,38SKSKU7R5DO2DKOKCMFA72SRPEILW,2,1
187,3,object_02,object_08,785.59999999404,5,1,435.5,0.8888888888888888,1,object_07,1,3030,0,8,6,library_5,2,memory-2step-stake-s,691,3359245,0.0-19.0-0.1-0.187,A3JN9PHM83VP1V,3A3KKYU7Q6XNN7OKJ3M7MRU2CR5MWB,38SKSKU7R5DO2DKOKCMFA72SRPEILW,5,6
188,3,object_02,object_08,646.80000001192,5,1,427.5,0.6666666666666666,1,object_07,1,3036,0,6,4,library_3,2,memory-2step-stake-s,692,3367558,0.0-19.0-0.1-0.188,A3JN9PHM83VP1V,3A3KKYU7Q6XNN7OKJ3M7MRU2CR5MWB,38SKSKU7R5DO2DKOKCMFA72SRPEILW,5,6
189,3,object_02,object_08,832.90000000596,5,1,201.0,0.6666666666666666,1,object_07,1,3042,0,6,3,library_2,2,memory-2step-stake-s,693,3375670,0.0-19.0-0.1-0.189,A3JN9PHM83VP1V,3A3KKYU7Q6XNN7OKJ3M7MRU2CR5MWB,38SKSKU7R5DO2DKOKCMFA72SRPEILW,5,6
190,3,object_08,object_02,662.70000001788,5,2,499.5,0.5555555555555556,1,object_07,1,3047,0,5,3,library_5,2,memory-2step-stake-s,694,3383985,0.0-19.0-0.1-0.190,A3JN9PHM83VP1V,3A3KKYU7Q6XNN7OKJ3M7MRU2CR5MWB,38SKSKU7R5DO2DKOKCMFA72SRPEILW,6,5
191,1,object_03,object_04,556.90000000596,1,2,367.90000000596,0.7777777777777778,1,object_07,5,3082,0,7,2,desert_4,2,memory-2step-stake-s,695,3392360,0.0-19.0-0.1-0.191,A3JN9PHM83VP1V,3A3KKYU7Q6XNN7OKJ3M7MRU2CR5MWB,38SKSKU7R5DO2DKOKCMFA72SRPEILW,2,1
192,2,object_09,object_06,997.90000000596,3,2,454.09999999404,0.8888888888888888,1,object_07,1,3090,0,8,3,forest_4,2,memory-2step-stake-s,696,3400926,0.0-19.0-0.1-0.192,A3JN9PHM83VP1V,3A3KKYU7Q6XNN7OKJ3M7MRU2CR5MWB,38SKSKU7R5DO2DKOKCMFA72SRPEILW,4,3
193,1,object_03,object_04,606.59999999404,1,2,368.69999998808,0.6666666666666666,1,object_07,5,3120,0,6,3,desert_6,2,memory-2step-stake-s,697,3409243,0.0-19.0-0.1-0.193,A3JN9PHM83VP1V,3A3KKYU7Q6XNN7OKJ3M7MRU2CR5MWB,38SKSKU7R5DO2DKOKCMFA72SRPEILW,2,1
194,2,object_06,object_09,1006.2000000179,3,1,482.0,0.4444444444444444,1,object_07,5,3140,0,4,2,forest_3,2,memory-2step-stake-s,698,3417422,0.0-19.0-0.1-0.194,A3JN9PHM83VP1V,3A3KKYU7Q6XNN7OKJ3M7MRU2CR5MWB,38SKSKU7R5DO2DKOKCMFA72SRPEILW,3,4
195,4,object_10,object_05,1112.8000000119,7,2,367.90000000596,0.6666666666666666,1,object_07,1,3146,0,6,2,restaurant_5,2,memory-2step-stake-s,699,3425728,0.0-19.0-0.1-0.195,A3JN9PHM83VP1V,3A3KKYU7Q6XNN7OKJ3M7MRU2CR5MWB,38SKSKU7R5DO2DKOKCMFA72SRPEILW,8,7
196,4,object_10,object_05,809.69999998808,8,1,524.80000001192,0.2222222222222222,2,object_01,1,3148,0,7,2,restaurant_3,2,memory-2step-stake-s,700,3433750,0.0-19.0-0.1-0.196,A3JN9PHM83VP1V,3A3KKYU7Q6XNN7OKJ3M7MRU2CR5MWB,38SKSKU7R5DO2DKOKCMFA72SRPEILW,8,7
197,4,object_05,object_10,797.20000001788,7,1,340.59999999404,0.4444444444444444,1,object_07,1,3152,0,4,3,restaurant_4,2,memory-2step-stake-s,701,3441788,0.0-19.0-0.1-0.197,A3JN9PHM83VP1V,3A3KKYU7Q6XNN7OKJ3M7MRU2CR5MWB,38SKSKU7R5DO2DKOKCMFA72SRPEILW,7,8
198,2,object_06,object_09,838.5,4,2,540.5,0.0,2,object_01,1,3152,0,1,0,forest_3,2,memory-2step-stake-s,702,3449618,0.0-19.0-0.1-0.198,A3JN9PHM83VP1V,3A3KKYU7Q6XNN7OKJ3M7MRU2CR5MWB,38SKSKU7R5DO2DKOKCMFA72SRPEILW,3,4
199,2,object_09,object_06,879.09999999404,3,2,258.29999998212,0.0,1,object_07,1,3152,0,0,0,forest_4,2,memory-2step-stake-s,703,3457127,0.0-19.0-0.1-0.199,A3JN9PHM83VP1V,3A3KKYU7Q6XNN7OKJ3M7MRU2CR5MWB,38SKSKU7R5DO2DKOKCMFA72SRPEILW,4,3
200,2,object_09,object_06,816.80000001192,3,2,307.09999999404,0.0,1,object_07,5,3152,0,0,1,forest_4,2,memory-2step-stake-s,704,3464700,0.0-19.0-0.1-0.200,A3JN9PHM83VP1V,3A3KKYU7Q6XNN7OKJ3M7MRU2CR5MWB,38SKSKU7R5DO2DKOKCMFA72SRPEILW,4,3
201,1,object_03,object_04,897.80000001192,2,1,286.70000001788,0.4444444444444444,2,object_01,5,3172,0,1,4,desert_3,2,memory-2step-stake-s,705,3472680,0.0-19.0-0.1-0.201,A3JN9PHM83VP1V,3A3KKYU7Q6XNN7OKJ3M7MRU2CR5MWB,38SKSKU7R5DO2DKOKCMFA72SRPEILW,2,1
202,4,object_10,object_05,1175.400000006,8,1,357.5,0.3333333333333333,2,object_01,1,3175,0,0,3,restaurant_5,2,memory-2step-stake-s,706,3480614,0.0-19.0-0.1-0.202,A3JN9PHM83VP1V,3A3KKYU7Q6XNN7OKJ3M7MRU2CR5MWB,38SKSKU7R5DO2DKOKCMFA72SRPEILW,8,7
203,4,object_10,object_05,576.40000000596,7,2,968.29999998212,0.2222222222222222,1,object_07,1,3177,0,2,2,restaurant_4,2,memory-2step-stake-s,707,3489083,0.0-19.0-0.1-0.203,A3JN9PHM83VP1V,3A3KKYU7Q6XNN7OKJ3M7MRU2CR5MWB,38SKSKU7R5DO2DKOKCMFA72SRPEILW,8,7
204,1,object_04,object_03,756.59999999404,1,1,426.80000001192,0.3333333333333333,1,object_07,5,3192,0,3,3,desert_7,2,memory-2step-stake-s,708,3497118,0.0-19.0-0.1-0.204,A3JN9PHM83VP1V,3A3KKYU7Q6XNN7OKJ3M7MRU2CR5MWB,38SKSKU7R5DO2DKOKCMFA72SRPEILW,1,2
205,1,object_03,object_04,568.69999998808,1,2,335.59999999404,0.8888888888888888,1,object_07,5,3232,0,8,2,desert_4,2,memory-2step-stake-s,709,3505561,0.0-19.0-0.1-0.205,A3JN9PHM83VP1V,3A3KKYU7Q6XNN7OKJ3M7MRU2CR5MWB,38SKSKU7R5DO2DKOKCMFA72SRPEILW,2,1
206,1,object_03,object_04,749.20000001788,1,2,576.39999997616,0.7777777777777778,1,object_07,5,3267,0,7,1,desert_4,2,memory-2step-stake-s,710,3514160,0.0-19.0-0.1-0.206,A3JN9PHM83VP1V,3A3KKYU7Q6XNN7OKJ3M7MRU2CR5MWB,38SKSKU7R5DO2DKOKCMFA72SRPEILW,2,1
207,1,object_04,object_03,712.79999998212,1,1,1071.1000000238,0.8888888888888888,1,object_07,5,3307,0,8,3,desert_3,2,memory-2step-stake-s,711,3523334,0.0-19.0-0.1-0.207,A3JN9PHM83VP1V,3A3KKYU7Q6XNN7OKJ3M7MRU2CR5MWB,38SKSKU7R5DO2DKOKCMFA72SRPEILW,1,2
208,1,object_03,object_04,485.5,1,2,267.79999998212,0.8888888888888888,1,object_07,5,3347,0,8,1,desert_6,2,memory-2step-stake-s,712,3531724,0.0-19.0-0.1-0.208,A3JN9PHM83VP1V,3A3KKYU7Q6XNN7OKJ3M7MRU2CR5MWB,38SKSKU7R5DO2DKOKCMFA72SRPEILW,2,1
209,3,object_02,object_08,725.09999999404,5,1,477.0,0.7777777777777778,1,object_07,1,3354,0,7,3,library_3,2,memory-2step-stake-s,713,3540192,0.0-19.0-0.1-0.209,A3JN9PHM83VP1V,3A3KKYU7Q6XNN7OKJ3M7MRU2CR5MWB,38SKSKU7R5DO2DKOKCMFA72SRPEILW,5,6
210,1,object_04,object_03,947.09999999404,2,2,487.89999997616,0.0,2,object_01,1,3354,0,6,0,desert_3,2,memory-2step-stake-s,714,3547944,0.0-19.0-0.1-0.210,A3JN9PHM83VP1V,3A3KKYU7Q6XNN7OKJ3M7MRU2CR5MWB,38SKSKU7R5DO2DKOKCMFA72SRPEILW,1,2
211,2,object_06,object_09,1026.2999999821,3,1,274.10000002384,0.3333333333333333,1,object_07,5,3369,0,3,2,forest_8,2,memory-2step-stake-s,715,3555802,0.0-19.0-0.1-0.211,A3JN9PHM83VP1V,3A3KKYU7Q6XNN7OKJ3M7MRU2CR5MWB,38SKSKU7R5DO2DKOKCMFA72SRPEILW,3,4
212,3,object_08,object_02,650.69999998808,5,2,259.69999998808,0.2222222222222222,1,object_07,1,3371,0,2,3,library_8,2,memory-2step-stake-s,716,3563528,0.0-19.0-0.1-0.212,A3JN9PHM83VP1V,3A3KKYU7Q6XNN7OKJ3M7MRU2CR5MWB,38SKSKU7R5DO2DKOKCMFA72SRPEILW,6,5
213,3,object_02,object_08,571.09999999404,5,1,216.60000002384,0.2222222222222222,1,object_07,5,3381,0,2,3,library_5,2,memory-2step-stake-s,717,3571224,0.0-19.0-0.1-0.213,A3JN9PHM83VP1V,3A3KKYU7Q6XNN7OKJ3M7MRU2CR5MWB,38SKSKU7R5DO2DKOKCMFA72SRPEILW,5,6
214,2,object_06,object_09,748.09999999404,3,1,268.59999999404,0.7777777777777778,1,object_07,5,3416,0,7,5,forest_3,2,memory-2step-stake-s,718,3579487,0.0-19.0-0.1-0.214,A3JN9PHM83VP1V,3A3KKYU7Q6XNN7OKJ3M7MRU2CR5MWB,38SKSKU7R5DO2DKOKCMFA72SRPEILW,3,4
215,3,object_08,object_02,1285.8000000119,6,1,359.80000001192,0.0,2,object_01,1,3416,0,6,0,library_3,2,memory-2step-stake-s,719,3587101,0.0-19.0-0.1-0.215,A3JN9PHM83VP1V,3A3KKYU7Q6XNN7OKJ3M7MRU2CR5MWB,38SKSKU7R5DO2DKOKCMFA72SRPEILW,6,5
216,3,object_08,object_02,801.40000000596,5,2,451.70000001788,0.5555555555555556,1,object_07,1,3421,0,5,1,library_8,2,memory-2step-stake-s,720,3595333,0.0-19.0-0.1-0.216,A3JN9PHM83VP1V,3A3KKYU7Q6XNN7OKJ3M7MRU2CR5MWB,38SKSKU7R5DO2DKOKCMFA72SRPEILW,6,5
217,1,object_04,object_03,1119.400000006,1,1,485.80000001192,0.4444444444444444,1,object_07,5,3441,0,4,3,desert_6,2,memory-2step-stake-s,721,3603514,0.0-19.0-0.1-0.217,A3JN9PHM83VP1V,3A3KKYU7Q6XNN7OKJ3M7MRU2CR5MWB,38SKSKU7R5DO2DKOKCMFA72SRPEILW,1,2
218,1,object_04,object_03,1012.8000000119,1,1,681.19999998808,0.6666666666666666,1,object_07,5,3471,0,6,3,desert_7,2,memory-2step-stake-s,722,3612108,0.0-19.0-0.1-0.218,A3JN9PHM83VP1V,3A3KKYU7Q6XNN7OKJ3M7MRU2CR5MWB,38SKSKU7R5DO2DKOKCMFA72SRPEILW,1,2
219,4,object_05,object_10,924.59999999404,7,1,563.40000000596,0.7777777777777778,1,object_07,1,3478,0,7,2,restaurant_4,2,memory-2step-stake-s,723,3620675,0.0-19.0-0.1-0.219,A3JN9PHM83VP1V,3A3KKYU7Q6XNN7OKJ3M7MRU2CR5MWB,38SKSKU7R5DO2DKOKCMFA72SRPEILW,7,8
220,4,object_05,object_10,705.09999999404,7,1,418.19999998808,0.5555555555555556,1,object_07,1,3483,0,5,0,restaurant_5,2,memory-2step-stake-s,724,3628902,0.0-19.0-0.1-0.220,A3JN9PHM83VP1V,3A3KKYU7Q6XNN7OKJ3M7MRU2CR5MWB,38SKSKU7R5DO2DKOKCMFA72SRPEILW,7,8
221,3,object_08,object_02,608.5,5,2,554.59999999404,1.0,1,object_07,1,3492,0,9,2,library_2,2,memory-2step-stake-s,725,3637678,0.0-19.0-0.1-0.221,A3JN9PHM83VP1V,3A3KKYU7Q6XNN7OKJ3M7MRU2CR5MWB,38SKSKU7R5DO2DKOKCMFA72SRPEILW,6,5
222,3,object_08,object_02,803.20000001788,5,2,423.89999997616,1.0,1,object_07,1,3501,0,9,5,library_3,2,memory-2step-stake-s,726,3646310,0.0-19.0-0.1-0.222,A3JN9PHM83VP1V,3A3KKYU7Q6XNN7OKJ3M7MRU2CR5MWB,38SKSKU7R5DO2DKOKCMFA72SRPEILW,6,5
223,4,object_10,object_05,-1.0,-1,-1,-1.0,0.0,-,0,1,3501,0,8,4,restaurant_3,2,memory-2step-stake-s,727,3652851,0.0-19.0-0.1-0.223,A3JN9PHM83VP1V,3A3KKYU7Q6XNN7OKJ3M7MRU2CR5MWB,38SKSKU7R5DO2DKOKCMFA72SRPEILW,8,7
224,2,object_09,object_06,846.19999998808,4,1,427.09999999404,0.6666666666666666,2,object_01,5,3531,0,8,6,forest_3,2,memory-2step-stake-s,728,3661192,0.0-19.0-0.1-0.224,A3JN9PHM83VP1V,3A3KKYU7Q6XNN7OKJ3M7MRU2CR5MWB,38SKSKU7R5DO2DKOKCMFA72SRPEILW,4,3
225,4,object_10,object_05,751.60000002384,7,2,634.40000000596,0.7777777777777778,1,object_07,1,3538,0,7,6,restaurant_3,2,memory-2step-stake-s,729,3669835,0.0-19.0-0.1-0.225,A3JN9PHM83VP1V,3A3KKYU7Q6XNN7OKJ3M7MRU2CR5MWB,38SKSKU7R5DO2DKOKCMFA72SRPEILW,8,7
226,3,object_02,object_08,702.69999998808,5,1,474.29999998212,0.7777777777777778,1,object_07,5,3573,0,7,2,library_2,2,memory-2step-stake-s,730,3678302,0.0-19.0-0.1-0.226,A3JN9PHM83VP1V,3A3KKYU7Q6XNN7OKJ3M7MRU2CR5MWB,38SKSKU7R5DO2DKOKCMFA72SRPEILW,5,6
227,4,object_10,object_05,599.89999997616,7,2,938.79999998212,0.6666666666666666,1,object_07,1,3579,0,6,1,restaurant_6,2,memory-2step-stake-s,731,3687143,0.0-19.0-0.1-0.227,A3JN9PHM83VP1V,3A3KKYU7Q6XNN7OKJ3M7MRU2CR5MWB,38SKSKU7R5DO2DKOKCMFA72SRPEILW,8,7
228,3,object_02,object_08,667.0,5,1,556.5,0.5555555555555556,1,object_07,1,3584,0,5,1,library_5,2,memory-2step-stake-s,732,3695504,0.0-19.0-0.1-0.228,A3JN9PHM83VP1V,3A3KKYU7Q6XNN7OKJ3M7MRU2CR5MWB,38SKSKU7R5DO2DKOKCMFA72SRPEILW,5,6
229,3,object_08,object_02,711.19999998808,5,2,341.0,0.2222222222222222,1,object_07,1,3586,0,2,2,library_3,2,memory-2step-stake-s,733,3703323,0.0-19.0-0.1-0.229,A3JN9PHM83VP1V,3A3KKYU7Q6XNN7OKJ3M7MRU2CR5MWB,38SKSKU7R5DO2DKOKCMFA72SRPEILW,6,5
230,3,object_08,object_02,702.09999999404,6,1,567.5,0.3333333333333333,2,object_01,1,3589,0,0,3,library_2,2,memory-2step-stake-s,734,3711448,0.0-19.0-0.1-0.230,A3JN9PHM83VP1V,3A3KKYU7Q6XNN7OKJ3M7MRU2CR5MWB,38SKSKU7R5DO2DKOKCMFA72SRPEILW,6,5
231,3,object_02,object_08,687.79999998212,6,2,634.09999999404,0.4444444444444444,2,object_01,5,3609,0,1,4,library_8,2,memory-2step-stake-s,735,3719799,0.0-19.0-0.1-0.231,A3JN9PHM83VP1V,3A3KKYU7Q6XNN7OKJ3M7MRU2CR5MWB,38SKSKU7R5DO2DKOKCMFA72SRPEILW,5,6
232,2,object_09,object_06,1307.8000000119,4,1,591.59999999404,0.5555555555555556,2,object_01,1,3614,0,5,5,forest_3,2,memory-2step-stake-s,736,3728184,0.0-19.0-0.1-0.232,A3JN9PHM83VP1V,3A3KKYU7Q6XNN7OKJ3M7MRU2CR5MWB,38SKSKU7R5DO2DKOKCMFA72SRPEILW,4,3
233,4,object_05,object_10,1442.3000000119,8,2,518.90000000596,0.5555555555555556,2,object_01,1,3619,0,6,5,restaurant_5,2,memory-2step-stake-s,737,3736470,0.0-19.0-0.1-0.233,A3JN9PHM83VP1V,3A3KKYU7Q6XNN7OKJ3M7MRU2CR5MWB,38SKSKU7R5DO2DKOKCMFA72SRPEILW,7,8
234,4,object_10,object_05,1063.0,8,1,368.69999998808,0.3333333333333333,2,object_01,1,3622,0,8,3,restaurant_3,2,memory-2step-stake-s,738,3744411,0.0-19.0-0.1-0.234,A3JN9PHM83VP1V,3A3KKYU7Q6XNN7OKJ3M7MRU2CR5MWB,38SKSKU7R5DO2DKOKCMFA72SRPEILW,8,7
235,1,object_03,object_04,768.19999998808,2,1,793.0,0.4444444444444444,2,object_01,5,3642,0,7,4,desert_3,2,memory-2step-stake-s,739,3752873,0.0-19.0-0.1-0.235,A3JN9PHM83VP1V,3A3KKYU7Q6XNN7OKJ3M7MRU2CR5MWB,38SKSKU7R5DO2DKOKCMFA72SRPEILW,2,1
236,4,object_05,object_10,904.30000001192,8,2,605.19999998808,0.6666666666666666,2,object_01,1,3648,0,5,6,restaurant_5,2,memory-2step-stake-s,740,3761395,0.0-19.0-0.1-0.236,A3JN9PHM83VP1V,3A3KKYU7Q6XNN7OKJ3M7MRU2CR5MWB,38SKSKU7R5DO2DKOKCMFA72SRPEILW,7,8
237,1,object_03,object_04,890.30000001192,2,1,352.80000001192,0.3333333333333333,2,object_01,1,3651,0,3,3,desert_6,2,memory-2step-stake-s,741,3769357,0.0-19.0-0.1-0.237,A3JN9PHM83VP1V,3A3KKYU7Q6XNN7OKJ3M7MRU2CR5MWB,38SKSKU7R5DO2DKOKCMFA72SRPEILW,2,1
238,3,object_02,object_08,713.09999999404,6,2,560.10000002384,0.3333333333333333,2,object_01,1,3654,0,5,3,library_5,2,memory-2step-stake-s,742,3777485,0.0-19.0-0.1-0.238,A3JN9PHM83VP1V,3A3KKYU7Q6XNN7OKJ3M7MRU2CR5MWB,38SKSKU7R5DO2DKOKCMFA72SRPEILW,5,6
239,1,object_04,object_03,671.40000000596,2,2,538.69999998808,0.3333333333333333,2,object_01,5,3669,0,7,3,desert_3,2,memory-2step-stake-s,743,3785622,0.0-19.0-0.1-0.239,A3JN9PHM83VP1V,3A3KKYU7Q6XNN7OKJ3M7MRU2CR5MWB,38SKSKU7R5DO2DKOKCMFA72SRPEILW,1,2
240,2,object_06,object_09,788.10000002384,3,1,338.89999997616,0.8888888888888888,1,object_07,5,3709,0,8,2,forest_7,2,memory-2step-stake-s,744,3794068,0.0-19.0-0.1-0.240,A3JN9PHM83VP1V,3A3KKYU7Q6XNN7OKJ3M7MRU2CR5MWB,38SKSKU7R5DO2DKOKCMFA72SRPEILW,3,4
241,1,object_03,object_04,730.90000000596,2,1,548.59999999404,0.1111111111111111,2,object_01,5,3714,0,9,1,desert_3,2,memory-2step-stake-s,745,3801978,0.0-19.0-0.1-0.241,A3JN9PHM83VP1V,3A3KKYU7Q6XNN7OKJ3M7MRU2CR5MWB,38SKSKU7R5DO2DKOKCMFA72SRPEILW,2,1
242,4,object_05,object_10,1385.0,7,1,493.10000002384,0.7777777777777778,1,object_07,1,3721,0,7,1,restaurant_6,2,memory-2step-stake-s,746,3810466,0.0-19.0-0.1-0.242,A3JN9PHM83VP1V,3A3KKYU7Q6XNN7OKJ3M7MRU2CR5MWB,38SKSKU7R5DO2DKOKCMFA72SRPEILW,7,8
243,2,object_06,object_09,1042.1999999881,4,2,217.0,0.1111111111111111,2,object_01,5,3726,0,8,1,forest_7,2,memory-2step-stake-s,747,3818062,0.0-19.0-0.1-0.243,A3JN9PHM83VP1V,3A3KKYU7Q6XNN7OKJ3M7MRU2CR5MWB,38SKSKU7R5DO2DKOKCMFA72SRPEILW,3,4
244,3,object_02,object_08,977.0,5,1,453.20000001788,0.7777777777777778,1,object_07,1,3733,0,7,4,library_3,2,memory-2step-stake-s,748,3826488,0.0-19.0-0.1-0.244,A3JN9PHM83VP1V,3A3KKYU7Q6XNN7OKJ3M7MRU2CR5MWB,38SKSKU7R5DO2DKOKCMFA72SRPEILW,5,6
245,4,object_05,object_10,-1.0,-1,-1,-1.0,0.0,-,0,1,3733,0,8,3,restaurant_5,2,memory-2step-stake-s,749,3833038,0.0-19.0-0.1-0.245,A3JN9PHM83VP1V,3A3KKYU7Q6XNN7OKJ3M7MRU2CR5MWB,38SKSKU7R5DO2DKOKCMFA72SRPEILW,7,8
246,3,object_08,object_02,577.0,5,2,825.5,1.0,1,object_07,1,3742,0,9,6,library_5,2,memory-2step-stake-s,750,3842058,0.0-19.0-0.1-0.246,A3JN9PHM83VP1V,3A3KKYU7Q6XNN7OKJ3M7MRU2CR5MWB,38SKSKU7R5DO2DKOKCMFA72SRPEILW,6,5
247,3,object_08,object_02,714.89999997616,5,2,754.59999999404,1.0,1,object_07,1,3751,0,9,8,library_3,2,memory-2step-stake-s,751,3851050,0.0-19.0-0.1-0.247,A3JN9PHM83VP1V,3A3KKYU7Q6XNN7OKJ3M7MRU2CR5MWB,38SKSKU7R5DO2DKOKCMFA72SRPEILW,6,5
248,4,object_10,object_05,883.0,7,2,666.69999998808,1.0,1,object_07,1,3760,0,9,7,restaurant_6,2,memory-2step-stake-s,752,3859961,0.0-19.0-0.1-0.248,A3JN9PHM83VP1V,3A3KKYU7Q6XNN7OKJ3M7MRU2CR5MWB,38SKSKU7R5DO2DKOKCMFA72SRPEILW,8,7
249,2,object_09,object_06,1413.2999999821,3,2,506.09999999404,1.0,1,object_07,5,3805,0,9,8,forest_4,2,memory-2step-stake-s,753,3868672,0.0-19.0-0.1-0.249,A3JN9PHM83VP1V,3A3KKYU7Q6XNN7OKJ3M7MRU2CR5MWB,38SKSKU7R5DO2DKOKCMFA72SRPEILW,4,3
250,2,object_06,object_09,1161.2000000179,3,1,649.0,0.8888888888888888,1,object_07,5,3845,0,8,7,forest_3,2,memory-2step-stake-s,754,3877415,0.0-19.0-0.1-0.250,A3JN9PHM83VP1V,3A3KKYU7Q6XNN7OKJ3M7MRU2CR5MWB,38SKSKU7R5DO2DKOKCMFA72SRPEILW,3,4
251,1,object_04,object_03,665.60000002384,1,1,627.69999998808,0.5555555555555556,1,object_07,5,3870,0,5,9,desert_7,2,memory-2step-stake-s,755,3885824,0.0-19.0-0.1-0.251,A3JN9PHM83VP1V,3A3KKYU7Q6XNN7OKJ3M7MRU2CR5MWB,38SKSKU7R5DO2DKOKCMFA72SRPEILW,1,2
252,4,object_05,object_10,783.40000000596,7,1,554.69999998808,0.8888888888888888,1,object_07,1,3878,0,8,9,restaurant_6,2,memory-2step-stake-s,756,3894486,0.0-19.0-0.1-0.252,A3JN9PHM83VP1V,3A3KKYU7Q6XNN7OKJ3M7MRU2CR5MWB,38SKSKU7R5DO2DKOKCMFA72SRPEILW,7,8
253,2,object_09,object_06,1060.8999999762,3,2,369.40000000596,1.0,1,object_07,5,3923,0,9,7,forest_8,2,memory-2step-stake-s,757,3903095,0.0-19.0-0.1-0.253,A3JN9PHM83VP1V,3A3KKYU7Q6XNN7OKJ3M7MRU2CR5MWB,38SKSKU7R5DO2DKOKCMFA72SRPEILW,4,3
254,1,object_04,object_03,776.30000001192,1,1,346.30000001192,0.8888888888888888,1,object_07,5,3963,0,8,4,desert_6,2,memory-2step-stake-s,758,3911520,0.0-19.0-0.1-0.254,A3JN9PHM83VP1V,3A3KKYU7Q6XNN7OKJ3M7MRU2CR5MWB,38SKSKU7R5DO2DKOKCMFA72SRPEILW,1,2
255,4,object_05,object_10,788.59999999404,7,1,565.20000001788,1.0,1,object_07,1,3972,0,9,5,restaurant_4,2,memory-2step-stake-s,759,3920274,0.0-19.0-0.1-0.255,A3JN9PHM83VP1V,3A3KKYU7Q6XNN7OKJ3M7MRU2CR5MWB,38SKSKU7R5DO2DKOKCMFA72SRPEILW,7,8
