,state1,stim_left,stim_right,rt_1,choice1,response1,rt_2,points,state2,stim_state2,stake,score,practice,rews1,rews2,background,high_arm,trial_type,trial_index,time_elapsed,internal_node_id,subid,hitid,assignmentid,stim_left_num,stim_right_num
0,1,object_10,object_03,1122.0,2,2,-1.0,0.0,2,object_05,1,0,0,0,4,desert_4,1,memory-2step-stake-s,495,1251827,0.0-19.0-0.0-0.0,AZXSVMAA87U61,30UZJB2PPKSSO21QHKUJ0S8JS3B35M,3H7Z272LXBNGJZ7SX7CZJ434D1FPLH,1,2
1,4,object_07,object_04,1475.7999999998,8,2,802.70000000019,0.5555555555555556,2,object_05,5,25,0,2,5,restaurant_7,1,memory-2step-stake-s,496,1260391,0.0-19.0-0.0-0.1,AZXSVMAA87U61,30UZJB2PPKSSO21QHKUJ0S8JS3B35M,3H7Z272LXBNGJZ7SX7CZJ434D1FPLH,7,8
2,2,object_01,object_08,1141.8999999999,4,1,720.70000000019,0.5555555555555556,2,object_05,1,30,0,1,5,forest_3,1,memory-2step-stake-s,497,1268875,0.0-19.0-0.0-0.2,AZXSVMAA87U61,30UZJB2PPKSSO21QHKUJ0S8JS3B35M,3H7Z272LXBNGJZ7SX7CZJ434D1FPLH,4,3
3,4,object_04,object_07,880.79999999981,8,1,488.60000000009,0.4444444444444444,2,object_05,5,50,0,1,4,restaurant_6,1,memory-2step-stake-s,498,1277025,0.0-19.0-0.0-0.3,AZXSVMAA87U61,30UZJB2PPKSSO21QHKUJ0S8JS3B35M,3H7Z272LXBNGJZ7SX7CZJ434D1FPLH,8,7
4,2,object_01,object_08,889.59999999963,3,2,765.79999999981,0.1111111111111111,1,object_09,1,51,0,1,3,forest_6,1,memory-2step-stake-s,499,1285138,0.0-19.0-0.0-0.4,AZXSVMAA87U61,30UZJB2PPKSSO21QHKUJ0S8JS3B35M,3H7Z272LXBNGJZ7SX7CZJ434D1FPLH,4,3
5,1,object_10,object_03,1237.7000000002,2,2,939.30000000028,0.4444444444444444,2,object_05,1,55,0,1,4,desert_4,1,memory-2step-stake-s,500,1293735,0.0-19.0-0.0-0.5,AZXSVMAA87U61,30UZJB2PPKSSO21QHKUJ0S8JS3B35M,3H7Z272LXBNGJZ7SX7CZJ434D1FPLH,1,2
6,1,object_10,object_03,941.09999999963,1,1,635.19999999972,0.2222222222222222,1,object_09,1,57,0,2,6,desert_6,1,memory-2step-stake-s,501,1301822,0.0-19.0-0.0-0.6,AZXSVMAA87U61,30UZJB2PPKSSO21QHKUJ0S8JS3B35M,3H7Z272LXBNGJZ7SX7CZJ434D1FPLH,1,2
7,4,object_07,object_04,811.70000000019,8,2,406.60000000009,0.7777777777777778,2,object_05,5,92,0,3,7,restaurant_4,1,memory-2step-stake-s,502,1310208,0.0-19.0-0.0-0.7,AZXSVMAA87U61,30UZJB2PPKSSO21QHKUJ0S8JS3B35M,3H7Z272LXBNGJZ7SX7CZJ434D1FPLH,7,8
8,4,object_04,object_07,501.79999999981,8,1,548.0,0.8888888888888888,2,object_05,5,132,0,1,8,restaurant_6,1,memory-2step-stake-s,503,1318829,0.0-19.0-0.0-0.8,AZXSVMAA87U61,30UZJB2PPKSSO21QHKUJ0S8JS3B35M,3H7Z272LXBNGJZ7SX7CZJ434D1FPLH,8,7
9,2,object_01,object_08,1111.0,4,1,986.5,0.7777777777777778,2,object_05,1,139,0,3,7,forest_2,1,memory-2step-stake-s,504,1327782,0.0-19.0-0.0-0.9,AZXSVMAA87U61,30UZJB2PPKSSO21QHKUJ0S8JS3B35M,3H7Z272LXBNGJZ7SX7CZJ434D1FPLH,4,3
10,1,object_03,object_10,-1.0,-1,-1,-1.0,0.0,-,0,1,139,0,6,7,desert_4,1,memory-2step-stake-s,505,1334318,0.0-19.0-0.0-0.10,AZXSVMAA87U61,30UZJB2PPKSSO21QHKUJ0S8JS3B35M,3H7Z272LXBNGJZ7SX7CZJ434D1FPLH,2,1
11,4,object_07,object_04,532.39999999991,8,2,452.89999999991,0.8888888888888888,2,object_05,5,179,0,6,8,restaurant_4,1,memory-2step-stake-s,506,1342845,0.0-19.0-0.0-0.11,AZXSVMAA87U61,30UZJB2PPKSSO21QHKUJ0S8JS3B35M,3H7Z272LXBNGJZ7SX7CZJ434D1FPLH,7,8
12,1,object_03,object_10,1049.1000000001,2,1,819.09999999963,0.8888888888888888,2,object_05,1,187,0,6,8,desert_6,1,memory-2step-stake-s,507,1351739,0.0-19.0-0.0-0.12,AZXSVMAA87U61,30UZJB2PPKSSO21QHKUJ0S8JS3B35M,3H7Z272LXBNGJZ7SX7CZJ434D1FPLH,2,1
13,1,object_10,object_03,977.60000000009,1,1,698.5,0.5555555555555556,1,object_09,1,192,0,5,5,desert_7,1,memory-2step-stake-s,508,1360194,0.0-19.0-0.0-0.13,AZXSVMAA87U61,30UZJB2PPKSSO21QHKUJ0S8JS3B35M,3H7Z272LXBNGJZ7SX7CZJ434D1FPLH,1,2
14,2,object_01,object_08,-1.0,-1,-1,-1.0,0.0,-,0,1,192,0,7,4,forest_8,1,memory-2step-stake-s,509,1366723,0.0-19.0-0.0-0.14,AZXSVMAA87U61,30UZJB2PPKSSO21QHKUJ0S8JS3B35M,3H7Z272LXBNGJZ7SX7CZJ434D1FPLH,4,3
15,2,object_08,object_01,630.29999999981,3,1,877.10000000009,0.5555555555555556,1,object_09,1,197,0,5,4,forest_3,1,memory-2step-stake-s,510,1375366,0.0-19.0-0.0-0.15,AZXSVMAA87U61,30UZJB2PPKSSO21QHKUJ0S8JS3B35M,3H7Z272LXBNGJZ7SX7CZJ434D1FPLH,3,4
16,2,object_01,object_08,653.30000000028,4,1,454.0,0.7777777777777778,2,object_05,5,232,0,6,7,forest_2,1,memory-2step-stake-s,511,1383791,0.0-19.0-0.0-0.16,AZXSVMAA87U61,30UZJB2PPKSSO21QHKUJ0S8JS3B35M,3H7Z272LXBNGJZ7SX7CZJ434D1FPLH,4,3
17,3,object_02,object_06,1004.6999999997,5,2,573.5,0.8888888888888888,1,object_09,5,272,0,8,7,library_6,1,memory-2step-stake-s,512,1392455,0.0-19.0-0.0-0.17,AZXSVMAA87U61,30UZJB2PPKSSO21QHKUJ0S8JS3B35M,3H7Z272LXBNGJZ7SX7CZJ434D1FPLH,6,5
18,4,object_04,object_07,760.0,8,1,767.0,0.7777777777777778,2,object_05,5,307,0,8,7,restaurant_7,1,memory-2step-stake-s,513,1401216,0.0-19.0-0.0-0.18,AZXSVMAA87U61,30UZJB2PPKSSO21QHKUJ0S8JS3B35M,3H7Z272LXBNGJZ7SX7CZJ434D1FPLH,8,7
19,3,object_06,object_02,1190.0,6,2,584.39999999991,0.6666666666666666,2,object_05,5,337,0,7,6,library_2,1,memory-2step-stake-s,514,1409682,0.0-19.0-0.0-0.19,AZXSVMAA87U61,30UZJB2PPKSSO21QHKUJ0S8JS3B35M,3H7Z272LXBNGJZ7SX7CZJ434D1FPLH,5,6
20,1,object_10,object_03,1339.0,2,2,497.19999999972,0.7777777777777778,2,object_05,1,344,0,6,7,desert_7,1,memory-2step-stake-s,515,1418152,0.0-19.0-0.0-0.20,AZXSVMAA87U61,30UZJB2PPKSSO21QHKUJ0S8JS3B35M,3H7Z272LXBNGJZ7SX7CZJ434D1FPLH,1,2
21,1,object_10,object_03,840.10000000009,2,2,500.10000000009,0.6666666666666666,2,object_05,5,374,0,7,6,desert_7,1,memory-2step-stake-s,516,1426518,0.0-19.0-0.0-0.21,AZXSVMAA87U61,30UZJB2PPKSSO21QHKUJ0S8JS3B35M,3H7Z272LXBNGJZ7SX7CZJ434D1FPLH,1,2
22,3,object_06,object_02,-1.0,-1,-1,-1.0,0.0,-,0,5,374,0,7,8,library_4,1,memory-2step-stake-s,517,1433057,0.0-19.0-0.0-0.22,AZXSVMAA87U61,30UZJB2PPKSSO21QHKUJ0S8JS3B35M,3H7Z272LXBNGJZ7SX7CZJ434D1FPLH,5,6
23,4,object_04,object_07,643.39999999991,8,1,443.79999999981,0.8888888888888888,2,object_05,5,414,0,7,8,restaurant_6,1,memory-2step-stake-s,518,1441581,0.0-19.0-0.0-0.23,AZXSVMAA87U61,30UZJB2PPKSSO21QHKUJ0S8JS3B35M,3H7Z272LXBNGJZ7SX7CZJ434D1FPLH,8,7
24,1,object_03,object_10,784.20000000019,2,1,505.5,1.0,2,object_05,1,423,0,6,9,desert_7,1,memory-2step-stake-s,519,1450266,0.0-19.0-0.0-0.24,AZXSVMAA87U61,30UZJB2PPKSSO21QHKUJ0S8JS3B35M,3H7Z272LXBNGJZ7SX7CZJ434D1FPLH,2,1
25,4,object_04,object_07,657.5,8,1,364.0,0.6666666666666666,2,object_05,1,429,0,6,6,restaurant_8,1,memory-2step-stake-s,520,1458513,0.0-19.0-0.0-0.25,AZXSVMAA87U61,30UZJB2PPKSSO21QHKUJ0S8JS3B35M,3H7Z272LXBNGJZ7SX7CZJ434D1FPLH,8,7
26,2,object_08,object_01,677.60000000009,4,2,472.10000000009,0.3333333333333333,2,object_05,5,444,0,6,3,forest_6,1,memory-2step-stake-s,521,1466548,0.0-19.0-0.0-0.26,AZXSVMAA87U61,30UZJB2PPKSSO21QHKUJ0S8JS3B35M,3H7Z272LXBNGJZ7SX7CZJ434D1FPLH,3,4
27,2,object_01,object_08,594.89999999991,4,1,360.5,0.2222222222222222,2,object_05,5,454,0,7,2,forest_3,1,memory-2step-stake-s,522,1474369,0.0-19.0-0.0-0.27,AZXSVMAA87U61,30UZJB2PPKSSO21QHKUJ0S8JS3B35M,3H7Z272LXBNGJZ7SX7CZJ434D1FPLH,4,3
28,4,object_04,object_07,923.79999999981,7,2,415.69999999972,0.4444444444444444,1,object_09,5,474,0,4,4,restaurant_4,1,memory-2step-stake-s,523,1482446,0.0-19.0-0.0-0.28,AZXSVMAA87U61,30UZJB2PPKSSO21QHKUJ0S8JS3B35M,3H7Z272LXBNGJZ7SX7CZJ434D1FPLH,8,7
29,3,object_06,object_02,855.10000000009,5,1,612.20000000019,0.5555555555555556,1,object_09,5,499,0,5,6,library_4,1,memory-2step-stake-s,524,1490835,0.0-19.0-0.0-0.29,AZXSVMAA87U61,30UZJB2PPKSSO21QHKUJ0S8JS3B35M,3H7Z272LXBNGJZ7SX7CZJ434D1FPLH,5,6
30,2,object_08,object_01,843.5,4,2,397.19999999972,0.6666666666666666,2,object_05,1,505,0,6,6,forest_2,1,memory-2step-stake-s,525,1499102,0.0-19.0-0.0-0.30,AZXSVMAA87U61,30UZJB2PPKSSO21QHKUJ0S8JS3B35M,3H7Z272LXBNGJZ7SX7CZJ434D1FPLH,3,4
31,3,object_06,object_02,789.20000000019,5,1,496.30000000028,0.7777777777777778,1,object_09,1,512,0,7,5,library_2,1,memory-2step-stake-s,526,1507572,0.0-19.0-0.0-0.31,AZXSVMAA87U61,30UZJB2PPKSSO21QHKUJ0S8JS3B35M,3H7Z272LXBNGJZ7SX7CZJ434D1FPLH,5,6
32,4,object_04,object_07,627.29999999981,7,2,529.39999999991,1.0,1,object_09,5,557,0,9,5,restaurant_4,1,memory-2step-stake-s,527,1516276,0.0-19.0-0.0-0.32,AZXSVMAA87U61,30UZJB2PPKSSO21QHKUJ0S8JS3B35M,3H7Z272LXBNGJZ7SX7CZJ434D1FPLH,8,7
33,2,object_08,object_01,1224.5,3,1,499.79999999981,0.7777777777777778,1,object_09,1,564,0,7,4,forest_6,1,memory-2step-stake-s,528,1524755,0.0-19.0-0.0-0.33,AZXSVMAA87U61,30UZJB2PPKSSO21QHKUJ0S8JS3B35M,3H7Z272LXBNGJZ7SX7CZJ434D1FPLH,3,4
34,3,object_02,object_06,1266.1000000001,5,2,669.90000000037,0.7777777777777778,1,object_09,5,599,0,7,6,library_6,1,memory-2step-stake-s,529,1533393,0.0-19.0-0.0-0.34,AZXSVMAA87U61,30UZJB2PPKSSO21QHKUJ0S8JS3B35M,3H7Z272LXBNGJZ7SX7CZJ434D1FPLH,6,5
35,1,object_10,object_03,1076.3000000003,1,1,374.19999999972,0.8888888888888888,1,object_09,1,607,0,8,6,desert_5,1,memory-2step-stake-s,530,1541855,0.0-19.0-0.0-0.35,AZXSVMAA87U61,30UZJB2PPKSSO21QHKUJ0S8JS3B35M,3H7Z272LXBNGJZ7SX7CZJ434D1FPLH,1,2
36,2,object_01,object_08,970.89999999991,4,1,507.70000000019,0.6666666666666666,2,object_05,1,613,0,8,6,forest_2,1,memory-2step-stake-s,531,1550228,0.0-19.0-0.0-0.36,AZXSVMAA87U61,30UZJB2PPKSSO21QHKUJ0S8JS3B35M,3H7Z272LXBNGJZ7SX7CZJ434D1FPLH,4,3
37,4,object_04,object_07,828.0,7,2,349.79999999981,1.0,1,object_09,1,622,0,9,7,restaurant_8,1,memory-2step-stake-s,532,1558756,0.0-19.0-0.0-0.37,AZXSVMAA87U61,30UZJB2PPKSSO21QHKUJ0S8JS3B35M,3H7Z272LXBNGJZ7SX7CZJ434D1FPLH,8,7
38,3,object_02,object_06,1010.7000000002,5,2,395.60000000009,0.8888888888888888,1,object_09,5,662,0,8,3,library_2,1,memory-2step-stake-s,533,1567227,0.0-19.0-0.0-0.38,AZXSVMAA87U61,30UZJB2PPKSSO21QHKUJ0S8JS3B35M,3H7Z272LXBNGJZ7SX7CZJ434D1FPLH,6,5
39,1,object_10,object_03,683.40000000037,2,2,294.19999999972,0.8888888888888888,2,object_05,1,670,0,9,8,desert_7,1,memory-2step-stake-s,534,1575599,0.0-19.0-0.0-0.39,AZXSVMAA87U61,30UZJB2PPKSSO21QHKUJ0S8JS3B35M,3H7Z272LXBNGJZ7SX7CZJ434D1FPLH,1,2
40,4,object_07,object_04,553.39999999991,8,2,374.80000000028,0.8888888888888888,2,object_05,5,710,0,6,8,restaurant_8,1,memory-2step-stake-s,535,1584044,0.0-19.0-0.0-0.40,AZXSVMAA87U61,30UZJB2PPKSSO21QHKUJ0S8JS3B35M,3H7Z272LXBNGJZ7SX7CZJ434D1FPLH,7,8
41,3,object_02,object_06,704.0,5,2,700.70000000019,0.6666666666666666,1,object_09,5,740,0,6,6,library_4,1,memory-2step-stake-s,536,1592603,0.0-19.0-0.0-0.41,AZXSVMAA87U61,30UZJB2PPKSSO21QHKUJ0S8JS3B35M,3H7Z272LXBNGJZ7SX7CZJ434D1FPLH,6,5
42,2,object_08,object_01,653.59999999963,4,2,433.60000000009,0.5555555555555556,2,object_05,5,765,0,7,5,forest_6,1,memory-2step-stake-s,537,1600795,0.0-19.0-0.0-0.42,AZXSVMAA87U61,30UZJB2PPKSSO21QHKUJ0S8JS3B35M,3H7Z272LXBNGJZ7SX7CZJ434D1FPLH,3,4
43,4,object_07,object_04,660.89999999991,7,1,380.70000000019,0.8888888888888888,1,object_09,5,805,0,8,6,restaurant_4,1,memory-2step-stake-s,538,1609238,0.0-19.0-0.0-0.43,AZXSVMAA87U61,30UZJB2PPKSSO21QHKUJ0S8JS3B35M,3H7Z272LXBNGJZ7SX7CZJ434D1FPLH,7,8
44,3,object_06,object_02,1252.4000000004,5,1,658.10000000009,0.7777777777777778,1,object_09,5,840,0,7,6,library_4,1,memory-2step-stake-s,539,1617855,0.0-19.0-0.0-0.44,AZXSVMAA87U61,30UZJB2PPKSSO21QHKUJ0S8JS3B35M,3H7Z272LXBNGJZ7SX7CZJ434D1FPLH,5,6
45,3,object_06,object_02,683.10000000009,5,1,299.60000000009,0.8888888888888888,1,object_09,5,880,0,8,6,library_8,1,memory-2step-stake-s,540,1626222,0.0-19.0-0.0-0.45,AZXSVMAA87U61,30UZJB2PPKSSO21QHKUJ0S8JS3B35M,3H7Z272LXBNGJZ7SX7CZJ434D1FPLH,5,6
46,2,object_01,object_08,962.0,3,2,569.29999999981,1.0,1,object_09,1,889,0,9,7,forest_3,1,memory-2step-stake-s,541,1634961,0.0-19.0-0.0-0.46,AZXSVMAA87U61,30UZJB2PPKSSO21QHKUJ0S8JS3B35M,3H7Z272LXBNGJZ7SX7CZJ434D1FPLH,4,3
47,3,object_06,object_02,952.40000000037,5,1,368.39999999991,0.6666666666666666,1,object_09,5,919,0,6,5,library_8,1,memory-2step-stake-s,542,1643194,0.0-19.0-0.0-0.47,AZXSVMAA87U61,30UZJB2PPKSSO21QHKUJ0S8JS3B35M,3H7Z272LXBNGJZ7SX7CZJ434D1FPLH,5,6
48,1,object_10,object_03,899.0,2,2,456.0,0.2222222222222222,2,object_05,5,929,0,6,2,desert_5,1,memory-2step-stake-s,543,1651104,0.0-19.0-0.0-0.48,AZXSVMAA87U61,30UZJB2PPKSSO21QHKUJ0S8JS3B35M,3H7Z272LXBNGJZ7SX7CZJ434D1FPLH,1,2
49,2,object_01,object_08,1195.6000000001,3,2,641.10000000009,1.0,1,object_09,1,938,0,9,0,forest_6,1,memory-2step-stake-s,544,1659919,0.0-19.0-0.0-0.49,AZXSVMAA87U61,30UZJB2PPKSSO21QHKUJ0S8JS3B35M,3H7Z272LXBNGJZ7SX7CZJ434D1FPLH,4,3
50,1,object_03,object_10,1492.9000000004,1,2,752.19999999972,0.8888888888888888,1,object_09,1,946,0,8,1,desert_4,1,memory-2step-stake-s,545,1668746,0.0-19.0-0.0-0.50,AZXSVMAA87U61,30UZJB2PPKSSO21QHKUJ0S8JS3B35M,3H7Z272LXBNGJZ7SX7CZJ434D1FPLH,2,1
51,2,object_08,object_01,1077.9000000004,4,2,436.69999999972,0.1111111111111111,2,object_05,1,947,0,9,1,forest_8,1,memory-2step-stake-s,546,1676529,0.0-19.0-0.0-0.51,AZXSVMAA87U61,30UZJB2PPKSSO21QHKUJ0S8JS3B35M,3H7Z272LXBNGJZ7SX7CZJ434D1FPLH,3,4
52,2,object_08,object_01,673.09999999963,3,1,1211.7999999998,0.7777777777777778,1,object_09,1,954,0,7,2,forest_8,1,memory-2step-stake-s,547,1685721,0.0-19.0-0.0-0.52,AZXSVMAA87U61,30UZJB2PPKSSO21QHKUJ0S8JS3B35M,3H7Z272LXBNGJZ7SX7CZJ434D1FPLH,3,4
53,1,object_03,object_10,1502.0,1,2,418.60000000009,0.7777777777777778,1,object_09,1,961,0,7,3,desert_4,1,memory-2step-stake-s,548,1694119,0.0-19.0-0.0-0.53,AZXSVMAA87U61,30UZJB2PPKSSO21QHKUJ0S8JS3B35M,3H7Z272LXBNGJZ7SX7CZJ434D1FPLH,2,1
54,3,object_06,object_02,1044.5,5,1,452.59999999963,0.5555555555555556,1,object_09,5,986,0,5,3,library_6,1,memory-2step-stake-s,549,1702346,0.0-19.0-0.0-0.54,AZXSVMAA87U61,30UZJB2PPKSSO21QHKUJ0S8JS3B35M,3H7Z272LXBNGJZ7SX7CZJ434D1FPLH,5,6
55,3,object_06,object_02,843.0,5,1,644.40000000037,0.5555555555555556,1,object_09,5,1011,0,5,4,library_4,1,memory-2step-stake-s,550,1710753,0.0-19.0-0.0-0.55,AZXSVMAA87U61,30UZJB2PPKSSO21QHKUJ0S8JS3B35M,3H7Z272LXBNGJZ7SX7CZJ434D1FPLH,5,6
56,4,object_04,object_07,1178.3999999999,7,2,334.70000000019,0.6666666666666666,1,object_09,1,1017,0,6,5,restaurant_8,1,memory-2step-stake-s,551,1718956,0.0-19.0-0.0-0.56,AZXSVMAA87U61,30UZJB2PPKSSO21QHKUJ0S8JS3B35M,3H7Z272LXBNGJZ7SX7CZJ434D1FPLH,8,7
57,1,object_03,object_10,1098.7999999998,1,2,-1.0,0.0,1,object_09,5,1017,0,6,5,desert_5,1,memory-2step-stake-s,552,1727495,0.0-19.0-0.0-0.57,AZXSVMAA87U61,30UZJB2PPKSSO21QHKUJ0S8JS3B35M,3H7Z272LXBNGJZ7SX7CZJ434D1FPLH,2,1
58,2,object_01,object_08,749.69999999972,3,2,445.5,0.3333333333333333,1,object_09,5,1032,0,3,3,forest_2,1,memory-2step-stake-s,553,1735496,0.0-19.0-0.0-0.58,AZXSVMAA87U61,30UZJB2PPKSSO21QHKUJ0S8JS3B35M,3H7Z272LXBNGJZ7SX7CZJ434D1FPLH,4,3
59,3,object_06,object_02,948.0,5,1,450.30000000028,0.2222222222222222,1,object_09,5,1042,0,2,6,library_6,1,memory-2step-stake-s,554,1743399,0.0-19.0-0.0-0.59,AZXSVMAA87U61,30UZJB2PPKSSO21QHKUJ0S8JS3B35M,3H7Z272LXBNGJZ7SX7CZJ434D1FPLH,5,6
60,3,object_02,object_06,866.69999999972,6,1,383.40000000037,0.3333333333333333,2,object_05,1,1045,0,2,3,library_8,1,memory-2step-stake-s,555,1751343,0.0-19.0-0.0-0.60,AZXSVMAA87U61,30UZJB2PPKSSO21QHKUJ0S8JS3B35M,3H7Z272LXBNGJZ7SX7CZJ434D1FPLH,6,5
61,2,object_01,object_08,635.20000000019,4,1,336.29999999981,0.0,2,object_05,5,1045,0,0,0,forest_2,1,memory-2step-stake-s,556,1758921,0.0-19.0-0.0-0.61,AZXSVMAA87U61,30UZJB2PPKSSO21QHKUJ0S8JS3B35M,3H7Z272LXBNGJZ7SX7CZJ434D1FPLH,4,3
62,2,object_01,object_08,880.60000000009,3,2,376.70000000019,0.1111111111111111,1,object_09,5,1050,0,1,2,forest_6,1,memory-2step-stake-s,557,1766637,0.0-19.0-0.0-0.62,AZXSVMAA87U61,30UZJB2PPKSSO21QHKUJ0S8JS3B35M,3H7Z272LXBNGJZ7SX7CZJ434D1FPLH,4,3
63,3,object_06,object_02,964.70000000019,6,2,613.80000000028,0.1111111111111111,2,object_05,1,1051,0,1,1,library_6,1,memory-2step-stake-s,558,1774592,0.0-19.0-0.0-0.63,AZXSVMAA87U61,30UZJB2PPKSSO21QHKUJ0S8JS3B35M,3H7Z272LXBNGJZ7SX7CZJ434D1FPLH,5,6
64,4,object_07,object_04,849.0,7,1,462.29999999981,0.2222222222222222,1,object_09,1,1053,0,2,2,restaurant_6,1,memory-2step-stake-s,559,1782509,0.0-19.0-0.0-0.64,AZXSVMAA87U61,30UZJB2PPKSSO21QHKUJ0S8JS3B35M,3H7Z272LXBNGJZ7SX7CZJ434D1FPLH,7,8
65,3,object_02,object_06,1284.6000000001,5,2,416.79999999981,0.3333333333333333,1,object_09,5,1068,0,3,3,library_6,1,memory-2step-stake-s,560,1790482,0.0-19.0-0.0-0.65,AZXSVMAA87U61,30UZJB2PPKSSO21QHKUJ0S8JS3B35M,3H7Z272LXBNGJZ7SX7CZJ434D1FPLH,6,5
66,2,object_08,object_01,1413.0,3,1,615.89999999991,0.4444444444444444,1,object_09,1,1072,0,4,3,forest_2,1,memory-2step-stake-s,561,1798749,0.0-19.0-0.0-0.66,AZXSVMAA87U61,30UZJB2PPKSSO21QHKUJ0S8JS3B35M,3H7Z272LXBNGJZ7SX7CZJ434D1FPLH,3,4
67,1,object_10,object_03,-1.0,-1,-1,-1.0,0.0,-,0,1,1072,0,5,5,desert_6,1,memory-2step-stake-s,562,1805271,0.0-19.0-0.0-0.67,AZXSVMAA87U61,30UZJB2PPKSSO21QHKUJ0S8JS3B35M,3H7Z272LXBNGJZ7SX7CZJ434D1FPLH,1,2
68,4,object_07,object_04,1063.1999999997,7,1,-1.0,0.0,1,object_09,5,1072,0,4,5,restaurant_8,1,memory-2step-stake-s,563,1813809,0.0-19.0-0.0-0.68,AZXSVMAA87U61,30UZJB2PPKSSO21QHKUJ0S8JS3B35M,3H7Z272LXBNGJZ7SX7CZJ434D1FPLH,7,8
69,1,object_03,object_10,864.09999999963,1,2,467.59999999963,0.3333333333333333,1,object_09,5,1087,0,3,4,desert_4,1,memory-2step-stake-s,564,1821821,0.0-19.0-0.0-0.69,AZXSVMAA87U61,30UZJB2PPKSSO21QHKUJ0S8JS3B35M,3H7Z272LXBNGJZ7SX7CZJ434D1FPLH,2,1
70,2,object_08,object_01,1107.8999999999,4,2,1093.2999999998,0.5555555555555556,2,object_05,1,1092,0,2,5,forest_2,1,memory-2step-stake-s,565,1830665,0.0-19.0-0.0-0.70,AZXSVMAA87U61,30UZJB2PPKSSO21QHKUJ0S8JS3B35M,3H7Z272LXBNGJZ7SX7CZJ434D1FPLH,3,4
71,2,object_08,object_01,1145.1000000001,3,1,417.0,0.0,1,object_09,5,1092,0,0,3,forest_8,1,memory-2step-stake-s,566,1838319,0.0-19.0-0.0-0.71,AZXSVMAA87U61,30UZJB2PPKSSO21QHKUJ0S8JS3B35M,3H7Z272LXBNGJZ7SX7CZJ434D1FPLH,3,4
72,4,object_04,object_07,1368.0,7,2,623.39999999991,0.3333333333333333,1,object_09,5,1107,0,3,2,restaurant_7,1,memory-2step-stake-s,567,1846499,0.0-19.0-0.0-0.72,AZXSVMAA87U61,30UZJB2PPKSSO21QHKUJ0S8JS3B35M,3H7Z272LXBNGJZ7SX7CZJ434D1FPLH,8,7
73,3,object_02,object_06,1127.0,6,1,379.20000000019,0.1111111111111111,2,object_05,5,1112,0,1,1,library_2,1,memory-2step-stake-s,568,1854221,0.0-19.0-0.0-0.73,AZXSVMAA87U61,30UZJB2PPKSSO21QHKUJ0S8JS3B35M,3H7Z272LXBNGJZ7SX7CZJ434D1FPLH,6,5
74,4,object_07,object_04,1034.7000000002,7,1,383.60000000009,0.2222222222222222,1,object_09,5,1122,0,2,2,restaurant_6,1,memory-2step-stake-s,569,1862050,0.0-19.0-0.0-0.74,AZXSVMAA87U61,30UZJB2PPKSSO21QHKUJ0S8JS3B35M,3H7Z272LXBNGJZ7SX7CZJ434D1FPLH,7,8
75,1,object_10,object_03,1082.0,2,2,409.29999999981,0.1111111111111111,2,object_05,1,1123,0,2,1,desert_4,1,memory-2step-stake-s,570,1869803,0.0-19.0-0.0-0.75,AZXSVMAA87U61,30UZJB2PPKSSO21QHKUJ0S8JS3B35M,3H7Z272LXBNGJZ7SX7CZJ434D1FPLH,1,2
76,4,object_07,object_04,835.89999999991,7,1,388.90000000037,0.0,1,object_09,5,1123,0,0,0,restaurant_8,1,memory-2step-stake-s,571,1877432,0.0-19.0-0.0-0.76,AZXSVMAA87U61,30UZJB2PPKSSO21QHKUJ0S8JS3B35M,3H7Z272LXBNGJZ7SX7CZJ434D1FPLH,7,8
77,1,object_03,object_10,921.60000000009,1,2,425.69999999972,0.2222222222222222,1,object_09,1,1125,0,2,0,desert_7,1,memory-2step-stake-s,572,1885293,0.0-19.0-0.0-0.77,AZXSVMAA87U61,30UZJB2PPKSSO21QHKUJ0S8JS3B35M,3H7Z272LXBNGJZ7SX7CZJ434D1FPLH,2,1
78,3,object_06,object_02,1020.3999999999,6,2,656.5,0.1111111111111111,2,object_05,1,1126,0,4,1,library_4,1,memory-2step-stake-s,573,1893293,0.0-19.0-0.0-0.78,AZXSVMAA87U61,30UZJB2PPKSSO21QHKUJ0S8JS3B35M,3H7Z272LXBNGJZ7SX7CZJ434D1FPLH,5,6
79,4,object_07,object_04,1097.5,7,1,407.20000000019,0.2222222222222222,1,object_09,5,1136,0,2,4,restaurant_4,1,memory-2step-stake-s,574,1901150,0.0-19.0-0.0-0.79,AZXSVMAA87U61,30UZJB2PPKSSO21QHKUJ0S8JS3B35M,3H7Z272LXBNGJZ7SX7CZJ434D1FPLH,7,8
80,4,object_07,object_04,1090.0,7,1,389.69999999972,0.1111111111111111,1,object_09,5,1141,0,1,2,restaurant_4,1,memory-2step-stake-s,575,1908884,0.0-19.0-0.0-0.80,AZXSVMAA87U61,30UZJB2PPKSSO21QHKUJ0S8JS3B35M,3H7Z272LXBNGJZ7SX7CZJ434D1FPLH,7,8
81,1,object_10,object_03,911.5,2,2,413.39999999991,0.1111111111111111,2,object_05,1,1142,0,0,1,desert_7,1,memory-2step-stake-s,576,1916634,0.0-19.0-0.0-0.81,AZXSVMAA87U61,30UZJB2PPKSSO21QHKUJ0S8JS3B35M,3H7Z272LXBNGJZ7SX7CZJ434D1FPLH,1,2
82,3,object_06,object_02,1132.7999999998,5,1,406.0,0.0,1,object_09,5,1142,0,0,0,library_6,1,memory-2step-stake-s,577,1924281,0.0-19.0-0.0-0.82,AZXSVMAA87U61,30UZJB2PPKSSO21QHKUJ0S8JS3B35M,3H7Z272LXBNGJZ7SX7CZJ434D1FPLH,5,6
83,2,object_01,object_08,875.90000000037,3,2,418.19999999972,0.0,1,object_09,1,1142,0,0,3,forest_3,1,memory-2step-stake-s,578,1931934,0.0-19.0-0.0-0.83,AZXSVMAA87U61,30UZJB2PPKSSO21QHKUJ0S8JS3B35M,3H7Z272LXBNGJZ7SX7CZJ434D1FPLH,4,3
84,3,object_02,object_06,1027.5,6,1,435.69999999972,0.0,2,object_05,5,1142,0,2,0,library_8,1,memory-2step-stake-s,579,1939620,0.0-19.0-0.0-0.84,AZXSVMAA87U61,30UZJB2PPKSSO21QHKUJ0S8JS3B35M,3H7Z272LXBNGJZ7SX7CZJ434D1FPLH,6,5
85,2,object_01,object_08,804.39999999991,4,1,321.5,0.2222222222222222,2,object_05,1,1144,0,2,2,forest_8,1,memory-2step-stake-s,580,1947394,0.0-19.0-0.0-0.85,AZXSVMAA87U61,30UZJB2PPKSSO21QHKUJ0S8JS3B35M,3H7Z272LXBNGJZ7SX7CZJ434D1FPLH,4,3
86,1,object_03,object_10,950.39999999991,1,2,541.70000000019,0.1111111111111111,1,object_09,1,1145,0,1,4,desert_6,1,memory-2step-stake-s,581,1955286,0.0-19.0-0.0-0.86,AZXSVMAA87U61,30UZJB2PPKSSO21QHKUJ0S8JS3B35M,3H7Z272LXBNGJZ7SX7CZJ434D1FPLH,2,1
87,1,object_03,object_10,504.0,2,1,601.30000000028,0.7777777777777778,2,object_05,1,1152,0,2,7,desert_5,1,memory-2step-stake-s,582,1963864,0.0-19.0-0.0-0.87,AZXSVMAA87U61,30UZJB2PPKSSO21QHKUJ0S8JS3B35M,3H7Z272LXBNGJZ7SX7CZJ434D1FPLH,2,1
88,1,object_03,object_10,591.70000000019,2,1,445.90000000037,0.8888888888888888,2,object_05,1,1160,0,2,8,desert_6,1,memory-2step-stake-s,583,1972396,0.0-19.0-0.0-0.88,AZXSVMAA87U61,30UZJB2PPKSSO21QHKUJ0S8JS3B35M,3H7Z272LXBNGJZ7SX7CZJ434D1FPLH,2,1
89,4,object_07,object_04,944.90000000037,7,1,434.20000000019,0.0,1,object_09,5,1160,0,0,9,restaurant_4,1,memory-2step-stake-s,584,1980066,0.0-19.0-0.0-0.89,AZXSVMAA87U61,30UZJB2PPKSSO21QHKUJ0S8JS3B35M,3H7Z272LXBNGJZ7SX7CZJ434D1FPLH,7,8
90,1,object_03,object_10,789.80000000028,2,1,720.5,1.0,2,object_05,1,1169,0,5,9,desert_7,1,memory-2step-stake-s,585,1988971,0.0-19.0-0.0-0.90,AZXSVMAA87U61,30UZJB2PPKSSO21QHKUJ0S8JS3B35M,3H7Z272LXBNGJZ7SX7CZJ434D1FPLH,2,1
91,2,object_08,object_01,1058.6000000001,4,2,586.10000000009,1.0,2,object_05,1,1178,0,5,9,forest_3,1,memory-2step-stake-s,586,1997747,0.0-19.0-0.0-0.91,AZXSVMAA87U61,30UZJB2PPKSSO21QHKUJ0S8JS3B35M,3H7Z272LXBNGJZ7SX7CZJ434D1FPLH,3,4
92,1,object_03,object_10,646.29999999981,2,1,397.39999999991,1.0,2,object_05,1,1187,0,6,9,desert_4,1,memory-2step-stake-s,587,2006337,0.0-19.0-0.0-0.92,AZXSVMAA87U61,30UZJB2PPKSSO21QHKUJ0S8JS3B35M,3H7Z272LXBNGJZ7SX7CZJ434D1FPLH,2,1
93,3,object_02,object_06,1046.2999999998,6,1,437.79999999981,1.0,2,object_05,5,1232,0,4,9,library_2,1,memory-2step-stake-s,588,2014963,0.0-19.0-0.0-0.93,AZXSVMAA87U61,30UZJB2PPKSSO21QHKUJ0S8JS3B35M,3H7Z272LXBNGJZ7SX7CZJ434D1FPLH,6,5
94,2,object_08,object_01,1440.0,4,2,686.20000000019,0.7777777777777778,2,object_05,1,1239,0,7,7,forest_6,1,memory-2step-stake-s,589,2023629,0.0-19.0-0.0-0.94,AZXSVMAA87U61,30UZJB2PPKSSO21QHKUJ0S8JS3B35M,3H7Z272LXBNGJZ7SX7CZJ434D1FPLH,3,4
95,3,object_02,object_06,1085.3000000003,6,1,950.79999999981,0.8888888888888888,2,object_05,5,1279,0,7,8,library_8,1,memory-2step-stake-s,590,2032655,0.0-19.0-0.0-0.95,AZXSVMAA87U61,30UZJB2PPKSSO21QHKUJ0S8JS3B35M,3H7Z272LXBNGJZ7SX7CZJ434D1FPLH,6,5
96,1,object_03,object_10,736.79999999981,2,1,901.0,0.7777777777777778,2,object_05,5,1314,0,5,7,desert_5,1,memory-2step-stake-s,591,2041529,0.0-19.0-0.0-0.96,AZXSVMAA87U61,30UZJB2PPKSSO21QHKUJ0S8JS3B35M,3H7Z272LXBNGJZ7SX7CZJ434D1FPLH,2,1
97,4,object_04,object_07,1359.0,8,1,714.5,0.7777777777777778,2,object_05,5,1349,0,4,7,restaurant_7,1,memory-2step-stake-s,592,2050214,0.0-19.0-0.0-0.97,AZXSVMAA87U61,30UZJB2PPKSSO21QHKUJ0S8JS3B35M,3H7Z272LXBNGJZ7SX7CZJ434D1FPLH,8,7
98,3,object_06,object_02,1035.8999999999,6,2,862.59999999963,1.0,2,object_05,5,1394,0,5,9,library_2,1,memory-2step-stake-s,593,2059258,0.0-19.0-0.0-0.98,AZXSVMAA87U61,30UZJB2PPKSSO21QHKUJ0S8JS3B35M,3H7Z272LXBNGJZ7SX7CZJ434D1FPLH,5,6
99,3,object_02,object_06,716.19999999972,6,1,517.29999999981,0.7777777777777778,2,object_05,5,1429,0,8,7,library_2,1,memory-2step-stake-s,594,2067752,0.0-19.0-0.0-0.99,AZXSVMAA87U61,30UZJB2PPKSSO21QHKUJ0S8JS3B35M,3H7Z272LXBNGJZ7SX7CZJ434D1FPLH,6,5
100,1,object_10,object_03,584.39999999991,2,2,346.10000000009,0.8888888888888888,2,object_05,5,1469,0,9,8,desert_6,1,memory-2step-stake-s,595,2076177,0.0-19.0-0.0-0.100,AZXSVMAA87U61,30UZJB2PPKSSO21QHKUJ0S8JS3B35M,3H7Z272LXBNGJZ7SX7CZJ434D1FPLH,1,2
101,1,object_03,object_10,526.79999999981,2,1,354.10000000009,0.7777777777777778,2,object_05,5,1504,0,8,7,desert_4,1,memory-2step-stake-s,596,2084489,0.0-19.0-0.0-0.101,AZXSVMAA87U61,30UZJB2PPKSSO21QHKUJ0S8JS3B35M,3H7Z272LXBNGJZ7SX7CZJ434D1FPLH,2,1
102,4,object_04,object_07,861.69999999972,8,1,344.5,0.8888888888888888,2,object_05,1,1512,0,9,8,restaurant_7,1,memory-2step-stake-s,597,2092907,0.0-19.0-0.0-0.102,AZXSVMAA87U61,30UZJB2PPKSSO21QHKUJ0S8JS3B35M,3H7Z272LXBNGJZ7SX7CZJ434D1FPLH,8,7
103,4,object_07,object_04,696.79999999981,8,2,561.60000000009,1.0,2,object_05,5,1557,0,5,9,restaurant_6,1,memory-2step-stake-s,598,2101638,0.0-19.0-0.0-0.103,AZXSVMAA87U61,30UZJB2PPKSSO21QHKUJ0S8JS3B35M,3H7Z272LXBNGJZ7SX7CZJ434D1FPLH,7,8
104,2,object_08,object_01,786.5,4,2,385.20000000019,0.7777777777777778,2,object_05,1,1564,0,5,7,forest_6,1,memory-2step-stake-s,599,2109987,0.0-19.0-0.0-0.104,AZXSVMAA87U61,30UZJB2PPKSSO21QHKUJ0S8JS3B35M,3H7Z272LXBNGJZ7SX7CZJ434D1FPLH,3,4
105,3,object_02,object_06,762.60000000009,6,1,379.30000000028,0.4444444444444444,2,object_05,5,1584,0,6,4,library_4,1,memory-2step-stake-s,600,2118015,0.0-19.0-0.0-0.105,AZXSVMAA87U61,30UZJB2PPKSSO21QHKUJ0S8JS3B35M,3H7Z272LXBNGJZ7SX7CZJ434D1FPLH,6,5
106,3,object_06,object_02,721.39999999991,6,2,425.40000000037,0.5555555555555556,2,object_05,1,1589,0,7,5,library_8,1,memory-2step-stake-s,601,2126201,0.0-19.0-0.0-0.106,AZXSVMAA87U61,30UZJB2PPKSSO21QHKUJ0S8JS3B35M,3H7Z272LXBNGJZ7SX7CZJ434D1FPLH,5,6
107,4,object_04,object_07,689.69999999972,8,1,510.60000000009,0.4444444444444444,2,object_05,5,1609,0,6,4,restaurant_8,1,memory-2step-stake-s,602,2134367,0.0-19.0-0.0-0.107,AZXSVMAA87U61,30UZJB2PPKSSO21QHKUJ0S8JS3B35M,3H7Z272LXBNGJZ7SX7CZJ434D1FPLH,8,7
108,2,object_01,object_08,787.60000000009,4,1,348.79999999981,0.4444444444444444,2,object_05,5,1629,0,6,4,forest_6,1,memory-2step-stake-s,603,2142372,0.0-19.0-0.0-0.108,AZXSVMAA87U61,30UZJB2PPKSSO21QHKUJ0S8JS3B35M,3H7Z272LXBNGJZ7SX7CZJ434D1FPLH,4,3
109,4,object_07,object_04,671.0,8,2,381.29999999981,0.6666666666666666,2,object_05,1,1635,0,4,6,restaurant_7,1,memory-2step-stake-s,604,2150602,0.0-19.0-0.0-0.109,AZXSVMAA87U61,30UZJB2PPKSSO21QHKUJ0S8JS3B35M,3H7Z272LXBNGJZ7SX7CZJ434D1FPLH,7,8
110,4,object_07,object_04,607.39999999991,8,2,344.30000000028,0.7777777777777778,2,object_05,1,1642,0,4,7,restaurant_8,1,memory-2step-stake-s,605,2158916,0.0-19.0-0.0-0.110,AZXSVMAA87U61,30UZJB2PPKSSO21QHKUJ0S8JS3B35M,3H7Z272LXBNGJZ7SX7CZJ434D1FPLH,7,8
111,4,object_04,object_07,594.5,8,1,549.39999999991,0.8888888888888888,2,object_05,1,1650,0,6,8,restaurant_4,1,memory-2step-stake-s,606,2167544,0.0-19.0-0.0-0.111,AZXSVMAA87U61,30UZJB2PPKSSO21QHKUJ0S8JS3B35M,3H7Z272LXBNGJZ7SX7CZJ434D1FPLH,8,7
112,2,object_01,object_08,637.39999999991,4,1,684.39999999991,0.6666666666666666,2,object_05,5,1680,0,5,6,forest_3,1,memory-2step-stake-s,607,2176101,0.0-19.0-0.0-0.112,AZXSVMAA87U61,30UZJB2PPKSSO21QHKUJ0S8JS3B35M,3H7Z272LXBNGJZ7SX7CZJ434D1FPLH,4,3
113,1,object_03,object_10,1056.6999999997,2,1,460.10000000009,0.8888888888888888,2,object_05,1,1688,0,6,8,desert_6,1,memory-2step-stake-s,608,2184627,0.0-19.0-0.0-0.113,AZXSVMAA87U61,30UZJB2PPKSSO21QHKUJ0S8JS3B35M,3H7Z272LXBNGJZ7SX7CZJ434D1FPLH,2,1
114,1,object_03,object_10,836.29999999981,2,1,828.70000000019,1.0,2,object_05,1,1697,0,7,9,desert_7,1,memory-2step-stake-s,609,2193626,0.0-19.0-0.0-0.114,AZXSVMAA87U61,30UZJB2PPKSSO21QHKUJ0S8JS3B35M,3H7Z272LXBNGJZ7SX7CZJ434D1FPLH,2,1
115,2,object_08,object_01,1002.1000000001,4,2,567.10000000009,1.0,2,object_05,5,1742,0,3,9,forest_3,1,memory-2step-stake-s,610,2202381,0.0-19.0-0.0-0.115,AZXSVMAA87U61,30UZJB2PPKSSO21QHKUJ0S8JS3B35M,3H7Z272LXBNGJZ7SX7CZJ434D1FPLH,3,4
116,2,object_08,object_01,938.20000000019,4,2,585.39999999991,0.8888888888888888,2,object_05,1,1750,0,1,8,forest_2,1,memory-2step-stake-s,611,2211038,0.0-19.0-0.0-0.116,AZXSVMAA87U61,30UZJB2PPKSSO21QHKUJ0S8JS3B35M,3H7Z272LXBNGJZ7SX7CZJ434D1FPLH,3,4
117,2,object_08,object_01,1039.3999999999,4,2,875.0,0.8888888888888888,2,object_05,1,1758,0,4,8,forest_8,1,memory-2step-stake-s,612,2219993,0.0-19.0-0.0-0.117,AZXSVMAA87U61,30UZJB2PPKSSO21QHKUJ0S8JS3B35M,3H7Z272LXBNGJZ7SX7CZJ434D1FPLH,3,4
118,3,object_02,object_06,1446.8999999999,6,1,702.29999999981,0.6666666666666666,2,object_05,5,1788,0,4,6,library_6,1,memory-2step-stake-s,613,2228561,0.0-19.0-0.0-0.118,AZXSVMAA87U61,30UZJB2PPKSSO21QHKUJ0S8JS3B35M,3H7Z272LXBNGJZ7SX7CZJ434D1FPLH,6,5
119,4,object_07,object_04,1064.8999999999,8,2,-1.0,0.0,2,object_05,1,1788,0,5,6,restaurant_4,1,memory-2step-stake-s,614,2237104,0.0-19.0-0.0-0.119,AZXSVMAA87U61,30UZJB2PPKSSO21QHKUJ0S8JS3B35M,3H7Z272LXBNGJZ7SX7CZJ434D1FPLH,7,8
120,1,object_03,object_10,1058.5,2,1,707.0,0.7777777777777778,2,object_05,1,1795,0,6,7,desert_6,1,memory-2step-stake-s,615,2245781,0.0-19.0-0.0-0.120,AZXSVMAA87U61,30UZJB2PPKSSO21QHKUJ0S8JS3B35M,3H7Z272LXBNGJZ7SX7CZJ434D1FPLH,2,1
121,3,object_02,object_06,907.80000000028,6,1,1027.3999999999,0.8888888888888888,2,object_05,5,1835,0,7,8,library_8,1,memory-2step-stake-s,616,2254892,0.0-19.0-0.0-0.121,AZXSVMAA87U61,30UZJB2PPKSSO21QHKUJ0S8JS3B35M,3H7Z272LXBNGJZ7SX7CZJ434D1FPLH,6,5
122,2,object_01,object_08,951.20000000019,4,1,436.69999999972,0.7777777777777778,2,object_05,1,1842,0,7,7,forest_3,1,memory-2step-stake-s,617,2263296,0.0-19.0-0.0-0.122,AZXSVMAA87U61,30UZJB2PPKSSO21QHKUJ0S8JS3B35M,3H7Z272LXBNGJZ7SX7CZJ434D1FPLH,4,3
123,4,object_04,object_07,870.40000000037,8,1,-1.0,0.0,2,object_05,5,1842,0,7,7,restaurant_6,1,memory-2step-stake-s,618,2271838,0.0-19.0-0.0-0.123,AZXSVMAA87U61,30UZJB2PPKSSO21QHKUJ0S8JS3B35M,3H7Z272LXBNGJZ7SX7CZJ434D1FPLH,8,7
124,4,object_07,object_04,909.30000000028,8,2,422.5,0.6666666666666666,2,object_05,5,1872,0,7,6,restaurant_8,1,memory-2step-stake-s,619,2280136,0.0-19.0-0.0-0.124,AZXSVMAA87U61,30UZJB2PPKSSO21QHKUJ0S8JS3B35M,3H7Z272LXBNGJZ7SX7CZJ434D1FPLH,7,8
125,4,object_07,object_04,933.19999999972,8,2,-1.0,0.0,2,object_05,5,1872,0,7,8,restaurant_8,1,memory-2step-stake-s,620,2288672,0.0-19.0-0.0-0.125,AZXSVMAA87U61,30UZJB2PPKSSO21QHKUJ0S8JS3B35M,3H7Z272LXBNGJZ7SX7CZJ434D1FPLH,7,8
126,2,object_08,object_01,910.30000000028,4,2,406.60000000009,0.7777777777777778,2,object_05,1,1879,0,8,7,forest_2,1,memory-2step-stake-s,621,2297066,0.0-19.0-0.0-0.126,AZXSVMAA87U61,30UZJB2PPKSSO21QHKUJ0S8JS3B35M,3H7Z272LXBNGJZ7SX7CZJ434D1FPLH,3,4
127,2,object_01,object_08,870.20000000019,4,1,674.70000000019,0.5555555555555556,2,object_05,1,1884,0,7,5,forest_3,1,memory-2step-stake-s,622,2305508,0.0-19.0-0.0-0.127,AZXSVMAA87U61,30UZJB2PPKSSO21QHKUJ0S8JS3B35M,3H7Z272LXBNGJZ7SX7CZJ434D1FPLH,4,3
128,1,object_10,object_03,991.5,2,2,409.10000000009,0.6666666666666666,2,object_05,1,1890,0,8,6,desert_5,1,memory-2step-stake-s,624,2336411,0.0-19.0-0.1-0.128,AZXSVMAA87U61,30UZJB2PPKSSO21QHKUJ0S8JS3B35M,3H7Z272LXBNGJZ7SX7CZJ434D1FPLH,1,2
129,2,object_01,object_08,933.30000000028,4,1,653.60000000009,0.6666666666666666,2,object_05,5,1920,0,9,6,forest_8,1,memory-2step-stake-s,625,2344929,0.0-19.0-0.1-0.129,AZXSVMAA87U61,30UZJB2PPKSSO21QHKUJ0S8JS3B35M,3H7Z272LXBNGJZ7SX7CZJ434D1FPLH,4,3
130,3,object_06,object_02,966.0,6,2,1012.1000000001,0.2222222222222222,2,object_05,5,1930,0,6,2,library_6,1,memory-2step-stake-s,626,2353380,0.0-19.0-0.1-0.130,AZXSVMAA87U61,30UZJB2PPKSSO21QHKUJ0S8JS3B35M,3H7Z272LXBNGJZ7SX7CZJ434D1FPLH,5,6
131,2,object_08,object_01,908.09999999963,4,2,823.19999999972,0.0,2,object_05,1,1930,0,7,0,forest_3,1,memory-2step-stake-s,627,2361443,0.0-19.0-0.1-0.131,AZXSVMAA87U61,30UZJB2PPKSSO21QHKUJ0S8JS3B35M,3H7Z272LXBNGJZ7SX7CZJ434D1FPLH,3,4
132,4,object_04,object_07,1115.0,7,2,828.0,0.8888888888888888,1,object_09,5,1970,0,8,0,restaurant_6,1,memory-2step-stake-s,628,2370349,0.0-19.0-0.1-0.132,AZXSVMAA87U61,30UZJB2PPKSSO21QHKUJ0S8JS3B35M,3H7Z272LXBNGJZ7SX7CZJ434D1FPLH,8,7
133,2,object_08,object_01,1144.3999999999,3,1,630.0,0.7777777777777778,1,object_09,1,1977,0,7,0,forest_2,1,memory-2step-stake-s,629,2378947,0.0-19.0-0.1-0.133,AZXSVMAA87U61,30UZJB2PPKSSO21QHKUJ0S8JS3B35M,3H7Z272LXBNGJZ7SX7CZJ434D1FPLH,3,4
134,1,object_03,object_10,1104.2999999998,1,2,625.39999999991,1.0,1,object_09,1,1986,0,9,1,desert_4,1,memory-2step-stake-s,630,2387751,0.0-19.0-0.1-0.134,AZXSVMAA87U61,30UZJB2PPKSSO21QHKUJ0S8JS3B35M,3H7Z272LXBNGJZ7SX7CZJ434D1FPLH,2,1
135,1,object_03,object_10,1081.5999999996,1,2,394.79999999981,0.6666666666666666,1,object_09,1,1992,0,6,1,desert_7,1,memory-2step-stake-s,631,2396012,0.0-19.0-0.1-0.135,AZXSVMAA87U61,30UZJB2PPKSSO21QHKUJ0S8JS3B35M,3H7Z272LXBNGJZ7SX7CZJ434D1FPLH,2,1
136,2,object_08,object_01,1089.7999999998,3,1,522.0,0.5555555555555556,1,object_09,1,1997,0,5,1,forest_3,1,memory-2step-stake-s,632,2404277,0.0-19.0-0.1-0.136,AZXSVMAA87U61,30UZJB2PPKSSO21QHKUJ0S8JS3B35M,3H7Z272LXBNGJZ7SX7CZJ434D1FPLH,3,4
137,1,object_03,object_10,751.79999999981,1,2,411.89999999991,0.5555555555555556,1,object_09,5,2022,0,5,3,desert_5,1,memory-2step-stake-s,633,2412456,0.0-19.0-0.1-0.137,AZXSVMAA87U61,30UZJB2PPKSSO21QHKUJ0S8JS3B35M,3H7Z272LXBNGJZ7SX7CZJ434D1FPLH,2,1
138,3,object_02,object_06,867.0,6,1,386.89999999991,0.3333333333333333,2,object_05,5,2037,0,6,3,library_8,1,memory-2step-stake-s,634,2420402,0.0-19.0-0.1-0.138,AZXSVMAA87U61,30UZJB2PPKSSO21QHKUJ0S8JS3B35M,3H7Z272LXBNGJZ7SX7CZJ434D1FPLH,6,5
139,3,object_06,object_02,1045.3999999999,5,1,443.60000000009,0.7777777777777778,1,object_09,5,2072,0,7,3,library_8,1,memory-2step-stake-s,635,2428809,0.0-19.0-0.1-0.139,AZXSVMAA87U61,30UZJB2PPKSSO21QHKUJ0S8JS3B35M,3H7Z272LXBNGJZ7SX7CZJ434D1FPLH,5,6
140,2,object_01,object_08,920.0,3,2,761.19999999925,0.7777777777777778,1,object_09,5,2107,0,7,2,forest_6,1,memory-2step-stake-s,636,2437538,0.0-19.0-0.1-0.140,AZXSVMAA87U61,30UZJB2PPKSSO21QHKUJ0S8JS3B35M,3H7Z272LXBNGJZ7SX7CZJ434D1FPLH,4,3
141,4,object_07,object_04,1120.2999999998,7,1,407.5,0.6666666666666666,1,object_09,5,2137,0,6,1,restaurant_6,1,memory-2step-stake-s,637,2445818,0.0-19.0-0.1-0.141,AZXSVMAA87U61,30UZJB2PPKSSO21QHKUJ0S8JS3B35M,3H7Z272LXBNGJZ7SX7CZJ434D1FPLH,7,8
142,1,object_03,object_10,778.79999999981,1,2,428.59999999963,0.1111111111111111,1,object_09,1,2138,0,1,1,desert_6,1,memory-2step-stake-s,638,2453594,0.0-19.0-0.1-0.142,AZXSVMAA87U61,30UZJB2PPKSSO21QHKUJ0S8JS3B35M,3H7Z272LXBNGJZ7SX7CZJ434D1FPLH,2,1
143,4,object_07,object_04,929.5,7,1,362.09999999963,0.2222222222222222,1,object_09,5,2148,0,2,1,restaurant_6,1,memory-2step-stake-s,639,2461406,0.0-19.0-0.1-0.143,AZXSVMAA87U61,30UZJB2PPKSSO21QHKUJ0S8JS3B35M,3H7Z272LXBNGJZ7SX7CZJ434D1FPLH,7,8
144,1,object_10,object_03,799.20000000019,1,1,410.29999999981,0.3333333333333333,1,object_09,1,2151,0,3,1,desert_7,1,memory-2step-stake-s,640,2469371,0.0-19.0-0.1-0.144,AZXSVMAA87U61,30UZJB2PPKSSO21QHKUJ0S8JS3B35M,3H7Z272LXBNGJZ7SX7CZJ434D1FPLH,1,2
145,2,object_01,object_08,814.59999999963,3,2,341.5,0.3333333333333333,1,object_09,1,2154,0,3,2,forest_2,1,memory-2step-stake-s,641,2477260,0.0-19.0-0.1-0.145,AZXSVMAA87U61,30UZJB2PPKSSO21QHKUJ0S8JS3B35M,3H7Z272LXBNGJZ7SX7CZJ434D1FPLH,4,3
146,3,object_06,object_02,883.0,5,1,452.30000000075,0.5555555555555556,1,object_09,1,2159,0,5,3,library_8,1,memory-2step-stake-s,642,2485471,0.0-19.0-0.1-0.146,AZXSVMAA87U61,30UZJB2PPKSSO21QHKUJ0S8JS3B35M,3H7Z272LXBNGJZ7SX7CZJ434D1FPLH,5,6
147,3,object_06,object_02,1291.2999999998,5,1,-1.0,0.0,1,object_09,5,2159,0,7,6,library_6,1,memory-2step-stake-s,643,2494008,0.0-19.0-0.1-0.147,AZXSVMAA87U61,30UZJB2PPKSSO21QHKUJ0S8JS3B35M,3H7Z272LXBNGJZ7SX7CZJ434D1FPLH,5,6
148,4,object_04,object_07,910.60000000056,7,2,-1.0,0.0,1,object_09,5,2159,0,8,6,restaurant_4,1,memory-2step-stake-s,644,2502544,0.0-19.0-0.1-0.148,AZXSVMAA87U61,30UZJB2PPKSSO21QHKUJ0S8JS3B35M,3H7Z272LXBNGJZ7SX7CZJ434D1FPLH,8,7
149,4,object_07,object_04,833.70000000019,7,1,302.09999999963,0.8888888888888888,1,object_09,5,2199,0,8,3,restaurant_7,1,memory-2step-stake-s,645,2510916,0.0-19.0-0.1-0.149,AZXSVMAA87U61,30UZJB2PPKSSO21QHKUJ0S8JS3B35M,3H7Z272LXBNGJZ7SX7CZJ434D1FPLH,7,8
150,1,object_03,object_10,649.70000000019,1,2,459.0,0.6666666666666666,1,object_09,1,2205,0,6,4,desert_6,1,memory-2step-stake-s,646,2519243,0.0-19.0-0.1-0.150,AZXSVMAA87U61,30UZJB2PPKSSO21QHKUJ0S8JS3B35M,3H7Z272LXBNGJZ7SX7CZJ434D1FPLH,2,1
151,1,object_03,object_10,663.60000000056,1,2,345.90000000037,0.7777777777777778,1,object_09,1,2212,0,7,8,desert_4,1,memory-2step-stake-s,647,2527543,0.0-19.0-0.1-0.151,AZXSVMAA87U61,30UZJB2PPKSSO21QHKUJ0S8JS3B35M,3H7Z272LXBNGJZ7SX7CZJ434D1FPLH,2,1
152,2,object_08,object_01,979.40000000037,3,1,460.40000000037,1.0,1,object_09,1,2221,0,9,7,forest_8,1,memory-2step-stake-s,648,2536177,0.0-19.0-0.1-0.152,AZXSVMAA87U61,30UZJB2PPKSSO21QHKUJ0S8JS3B35M,3H7Z272LXBNGJZ7SX7CZJ434D1FPLH,3,4
153,1,object_10,object_03,939.79999999981,1,1,464.29999999981,0.7777777777777778,1,object_09,5,2256,0,7,8,desert_5,1,memory-2step-stake-s,649,2544613,0.0-19.0-0.1-0.153,AZXSVMAA87U61,30UZJB2PPKSSO21QHKUJ0S8JS3B35M,3H7Z272LXBNGJZ7SX7CZJ434D1FPLH,1,2
154,2,object_08,object_01,819.59999999963,3,1,372.19999999925,1.0,1,object_09,1,2265,0,9,6,forest_2,1,memory-2step-stake-s,650,2553154,0.0-19.0-0.1-0.154,AZXSVMAA87U61,30UZJB2PPKSSO21QHKUJ0S8JS3B35M,3H7Z272LXBNGJZ7SX7CZJ434D1FPLH,3,4
155,1,object_10,object_03,728.29999999981,1,1,843.60000000056,0.6666666666666666,1,object_09,5,2295,0,6,8,desert_6,1,memory-2step-stake-s,651,2561864,0.0-19.0-0.1-0.155,AZXSVMAA87U61,30UZJB2PPKSSO21QHKUJ0S8JS3B35M,3H7Z272LXBNGJZ7SX7CZJ434D1FPLH,1,2
156,3,object_06,object_02,769.5,5,1,473.89999999944,0.7777777777777778,1,object_09,5,2330,0,7,7,library_8,1,memory-2step-stake-s,652,2570309,0.0-19.0-0.1-0.156,AZXSVMAA87U61,30UZJB2PPKSSO21QHKUJ0S8JS3B35M,3H7Z272LXBNGJZ7SX7CZJ434D1FPLH,5,6
157,1,object_03,object_10,637.90000000037,2,1,320.09999999963,0.6666666666666666,2,object_05,1,2336,0,7,6,desert_4,1,memory-2step-stake-s,653,2578493,0.0-19.0-0.1-0.157,AZXSVMAA87U61,30UZJB2PPKSSO21QHKUJ0S8JS3B35M,3H7Z272LXBNGJZ7SX7CZJ434D1FPLH,2,1
158,2,object_08,object_01,905.59999999963,3,1,364.39999999944,0.5555555555555556,1,object_09,1,2341,0,5,4,forest_8,1,memory-2step-stake-s,654,2586617,0.0-19.0-0.1-0.158,AZXSVMAA87U61,30UZJB2PPKSSO21QHKUJ0S8JS3B35M,3H7Z272LXBNGJZ7SX7CZJ434D1FPLH,3,4
159,3,object_02,object_06,844.90000000037,5,2,240.90000000037,0.6666666666666666,1,object_09,5,2371,0,6,6,library_8,1,memory-2step-stake-s,655,2594711,0.0-19.0-0.1-0.159,AZXSVMAA87U61,30UZJB2PPKSSO21QHKUJ0S8JS3B35M,3H7Z272LXBNGJZ7SX7CZJ434D1FPLH,6,5
160,1,object_10,object_03,689.60000000056,1,1,532.09999999963,0.6666666666666666,1,object_09,5,2401,0,6,3,desert_6,1,memory-2step-stake-s,656,2603113,0.0-19.0-0.1-0.160,AZXSVMAA87U61,30UZJB2PPKSSO21QHKUJ0S8JS3B35M,3H7Z272LXBNGJZ7SX7CZJ434D1FPLH,1,2
161,3,object_06,object_02,713.90000000037,5,1,755.69999999925,0.4444444444444444,1,object_09,5,2421,0,4,3,library_2,1,memory-2step-stake-s,657,2611527,0.0-19.0-0.1-0.161,AZXSVMAA87U61,30UZJB2PPKSSO21QHKUJ0S8JS3B35M,3H7Z272LXBNGJZ7SX7CZJ434D1FPLH,5,6
162,1,object_03,object_10,721.80000000075,1,2,332.5,0.4444444444444444,1,object_09,5,2441,0,4,5,desert_7,1,memory-2step-stake-s,658,2619524,0.0-19.0-0.1-0.162,AZXSVMAA87U61,30UZJB2PPKSSO21QHKUJ0S8JS3B35M,3H7Z272LXBNGJZ7SX7CZJ434D1FPLH,2,1
163,2,object_08,object_01,1154.8999999994,3,1,380.59999999963,0.5555555555555556,1,object_09,1,2446,0,5,6,forest_8,1,memory-2step-stake-s,659,2627674,0.0-19.0-0.1-0.163,AZXSVMAA87U61,30UZJB2PPKSSO21QHKUJ0S8JS3B35M,3H7Z272LXBNGJZ7SX7CZJ434D1FPLH,3,4
164,4,object_07,object_04,665.60000000056,7,1,250.19999999925,0.6666666666666666,1,object_09,5,2476,0,6,6,restaurant_8,1,memory-2step-stake-s,660,2635793,0.0-19.0-0.1-0.164,AZXSVMAA87U61,30UZJB2PPKSSO21QHKUJ0S8JS3B35M,3H7Z272LXBNGJZ7SX7CZJ434D1FPLH,7,8
165,3,object_02,object_06,873.70000000019,5,2,550.5,0.6666666666666666,1,object_09,5,2506,0,6,7,library_2,1,memory-2step-stake-s,661,2644221,0.0-19.0-0.1-0.165,AZXSVMAA87U61,30UZJB2PPKSSO21QHKUJ0S8JS3B35M,3H7Z272LXBNGJZ7SX7CZJ434D1FPLH,6,5
166,4,object_04,object_07,950.20000000019,7,2,528.59999999963,1.0,1,object_09,5,2551,0,9,8,restaurant_4,1,memory-2step-stake-s,662,2652916,0.0-19.0-0.1-0.166,AZXSVMAA87U61,30UZJB2PPKSSO21QHKUJ0S8JS3B35M,3H7Z272LXBNGJZ7SX7CZJ434D1FPLH,8,7
167,3,object_02,object_06,715.10000000056,5,2,711.60000000056,0.8888888888888888,1,object_09,5,2591,0,8,8,library_4,1,memory-2step-stake-s,663,2661697,0.0-19.0-0.1-0.167,AZXSVMAA87U61,30UZJB2PPKSSO21QHKUJ0S8JS3B35M,3H7Z272LXBNGJZ7SX7CZJ434D1FPLH,6,5
168,4,object_04,object_07,894.89999999944,7,2,1228.1999999993,1.0,1,object_09,5,2636,0,9,7,restaurant_6,1,memory-2step-stake-s,664,2671104,0.0-19.0-0.1-0.168,AZXSVMAA87U61,30UZJB2PPKSSO21QHKUJ0S8JS3B35M,3H7Z272LXBNGJZ7SX7CZJ434D1FPLH,8,7
169,3,object_02,object_06,1004.5,5,2,664.79999999981,0.6666666666666666,1,object_09,5,2666,0,6,8,library_2,1,memory-2step-stake-s,665,2679652,0.0-19.0-0.1-0.169,AZXSVMAA87U61,30UZJB2PPKSSO21QHKUJ0S8JS3B35M,3H7Z272LXBNGJZ7SX7CZJ434D1FPLH,6,5
170,4,object_04,object_07,926.30000000075,7,2,569.0,0.7777777777777778,1,object_09,5,2701,0,7,5,restaurant_7,1,memory-2step-stake-s,666,2688193,0.0-19.0-0.1-0.170,AZXSVMAA87U61,30UZJB2PPKSSO21QHKUJ0S8JS3B35M,3H7Z272LXBNGJZ7SX7CZJ434D1FPLH,8,7
171,3,object_06,object_02,1008.2000000002,5,1,505.70000000019,0.8888888888888888,1,object_09,5,2741,0,8,5,library_2,1,memory-2step-stake-s,667,2696755,0.0-19.0-0.1-0.171,AZXSVMAA87U61,30UZJB2PPKSSO21QHKUJ0S8JS3B35M,3H7Z272LXBNGJZ7SX7CZJ434D1FPLH,5,6
172,4,object_07,object_04,832.40000000037,7,1,595.5,0.6666666666666666,1,object_09,5,2771,0,6,4,restaurant_4,1,memory-2step-stake-s,668,2705212,0.0-19.0-0.1-0.172,AZXSVMAA87U61,30UZJB2PPKSSO21QHKUJ0S8JS3B35M,3H7Z272LXBNGJZ7SX7CZJ434D1FPLH,7,8
173,4,object_07,object_04,715.0,7,1,416.09999999963,0.5555555555555556,1,object_09,5,2796,0,5,5,restaurant_7,1,memory-2step-stake-s,669,2713380,0.0-19.0-0.1-0.173,AZXSVMAA87U61,30UZJB2PPKSSO21QHKUJ0S8JS3B35M,3H7Z272LXBNGJZ7SX7CZJ434D1FPLH,7,8
174,3,object_02,object_06,948.20000000019,5,2,446.19999999925,0.4444444444444444,1,object_09,5,2816,0,4,6,library_2,1,memory-2step-stake-s,670,2721479,0.0-19.0-0.1-0.174,AZXSVMAA87U61,30UZJB2PPKSSO21QHKUJ0S8JS3B35M,3H7Z272LXBNGJZ7SX7CZJ434D1FPLH,6,5
175,4,object_04,object_07,697.5,7,2,333.90000000037,0.5555555555555556,1,object_09,5,2841,0,5,7,restaurant_7,1,memory-2step-stake-s,671,2729571,0.0-19.0-0.1-0.175,AZXSVMAA87U61,30UZJB2PPKSSO21QHKUJ0S8JS3B35M,3H7Z272LXBNGJZ7SX7CZJ434D1FPLH,8,7
176,1,object_03,object_10,1008.0999999996,1,2,479.69999999925,0.4444444444444444,1,object_09,1,2845,0,4,6,desert_6,1,memory-2step-stake-s,672,2737704,0.0-19.0-0.1-0.176,AZXSVMAA87U61,30UZJB2PPKSSO21QHKUJ0S8JS3B35M,3H7Z272LXBNGJZ7SX7CZJ434D1FPLH,2,1
177,4,object_04,object_07,735.70000000019,7,2,703.30000000075,0.7777777777777778,1,object_09,1,2852,0,7,3,restaurant_6,1,memory-2step-stake-s,673,2746377,0.0-19.0-0.1-0.177,AZXSVMAA87U61,30UZJB2PPKSSO21QHKUJ0S8JS3B35M,3H7Z272LXBNGJZ7SX7CZJ434D1FPLH,8,7
178,1,object_03,object_10,857.29999999981,1,2,549.20000000019,1.0,1,object_09,1,2861,0,9,4,desert_7,1,memory-2step-stake-s,674,2755107,0.0-19.0-0.1-0.178,AZXSVMAA87U61,30UZJB2PPKSSO21QHKUJ0S8JS3B35M,3H7Z272LXBNGJZ7SX7CZJ434D1FPLH,2,1
179,3,object_06,object_02,1193.3999999994,5,1,361.70000000019,0.4444444444444444,1,object_09,5,2881,0,4,6,library_8,1,memory-2step-stake-s,675,2763112,0.0-19.0-0.1-0.179,AZXSVMAA87U61,30UZJB2PPKSSO21QHKUJ0S8JS3B35M,3H7Z272LXBNGJZ7SX7CZJ434D1FPLH,5,6
180,2,object_08,object_01,863.29999999981,3,1,304.89999999944,0.6666666666666666,1,object_09,1,2887,0,6,7,forest_6,1,memory-2step-stake-s,676,2771283,0.0-19.0-0.1-0.180,AZXSVMAA87U61,30UZJB2PPKSSO21QHKUJ0S8JS3B35M,3H7Z272LXBNGJZ7SX7CZJ434D1FPLH,3,4
181,1,object_03,object_10,781.79999999981,1,2,490.90000000037,0.2222222222222222,1,object_09,1,2889,0,2,8,desert_5,1,memory-2step-stake-s,677,2779226,0.0-19.0-0.1-0.181,AZXSVMAA87U61,30UZJB2PPKSSO21QHKUJ0S8JS3B35M,3H7Z272LXBNGJZ7SX7CZJ434D1FPLH,2,1
182,4,object_07,object_04,803.59999999963,8,2,415.59999999963,0.8888888888888888,2,object_05,5,2929,0,2,8,restaurant_8,1,memory-2step-stake-s,678,2787704,0.0-19.0-0.1-0.182,AZXSVMAA87U61,30UZJB2PPKSSO21QHKUJ0S8JS3B35M,3H7Z272LXBNGJZ7SX7CZJ434D1FPLH,7,8
183,4,object_07,object_04,551.89999999944,8,2,765.29999999981,0.7777777777777778,2,object_05,5,2964,0,5,7,restaurant_6,1,memory-2step-stake-s,679,2796454,0.0-19.0-0.1-0.183,AZXSVMAA87U61,30UZJB2PPKSSO21QHKUJ0S8JS3B35M,3H7Z272LXBNGJZ7SX7CZJ434D1FPLH,7,8
184,1,object_10,object_03,702.09999999963,2,2,495.79999999981,0.7777777777777778,2,object_05,5,2999,0,4,7,desert_5,1,memory-2step-stake-s,680,2804839,0.0-19.0-0.1-0.184,AZXSVMAA87U61,30UZJB2PPKSSO21QHKUJ0S8JS3B35M,3H7Z272LXBNGJZ7SX7CZJ434D1FPLH,1,2
185,1,object_10,object_03,598.70000000019,2,2,417.5,1.0,2,object_05,1,3008,0,6,9,desert_6,1,memory-2step-stake-s,681,2813433,0.0-19.0-0.1-0.185,AZXSVMAA87U61,30UZJB2PPKSSO21QHKUJ0S8JS3B35M,3H7Z272LXBNGJZ7SX7CZJ434D1FPLH,1,2
186,1,object_10,object_03,583.10000000056,2,2,793.20000000019,0.7777777777777778,2,object_05,1,3015,0,6,7,desert_5,1,memory-2step-stake-s,682,2822203,0.0-19.0-0.1-0.186,AZXSVMAA87U61,30UZJB2PPKSSO21QHKUJ0S8JS3B35M,3H7Z272LXBNGJZ7SX7CZJ434D1FPLH,1,2
187,4,object_07,object_04,783.0,8,2,409.19999999925,0.8888888888888888,2,object_05,5,3055,0,7,8,restaurant_4,1,memory-2step-stake-s,683,2830700,0.0-19.0-0.1-0.187,AZXSVMAA87U61,30UZJB2PPKSSO21QHKUJ0S8JS3B35M,3H7Z272LXBNGJZ7SX7CZJ434D1FPLH,7,8
188,3,object_02,object_06,1217.5,6,1,412.5,1.0,2,object_05,5,3100,0,7,9,library_4,1,memory-2step-stake-s,684,2839289,0.0-19.0-0.1-0.188,AZXSVMAA87U61,30UZJB2PPKSSO21QHKUJ0S8JS3B35M,3H7Z272LXBNGJZ7SX7CZJ434D1FPLH,6,5
189,4,object_04,object_07,756.09999999963,8,1,435.0,1.0,2,object_05,5,3145,0,9,9,restaurant_7,1,memory-2step-stake-s,685,2847911,0.0-19.0-0.1-0.189,AZXSVMAA87U61,30UZJB2PPKSSO21QHKUJ0S8JS3B35M,3H7Z272LXBNGJZ7SX7CZJ434D1FPLH,8,7
190,2,object_08,object_01,584.89999999944,4,2,323.40000000037,0.6666666666666666,2,object_05,1,3151,0,7,6,forest_6,1,memory-2step-stake-s,686,2856100,0.0-19.0-0.1-0.190,AZXSVMAA87U61,30UZJB2PPKSSO21QHKUJ0S8JS3B35M,3H7Z272LXBNGJZ7SX7CZJ434D1FPLH,3,4
191,3,object_06,object_02,1098.5,6,2,360.20000000019,0.7777777777777778,2,object_05,1,3158,0,7,7,library_8,1,memory-2step-stake-s,687,2864437,0.0-19.0-0.1-0.191,AZXSVMAA87U61,30UZJB2PPKSSO21QHKUJ0S8JS3B35M,3H7Z272LXBNGJZ7SX7CZJ434D1FPLH,5,6
192,1,object_03,object_10,555.10000000056,2,1,282.5,0.8888888888888888,2,object_05,1,3166,0,7,8,desert_6,1,memory-2step-stake-s,688,2872808,0.0-19.0-0.1-0.192,AZXSVMAA87U61,30UZJB2PPKSSO21QHKUJ0S8JS3B35M,3H7Z272LXBNGJZ7SX7CZJ434D1FPLH,2,1
193,3,object_02,object_06,815.10000000056,6,1,322.0,0.8888888888888888,2,object_05,1,3174,0,7,8,library_4,1,memory-2step-stake-s,689,2881223,0.0-19.0-0.1-0.193,AZXSVMAA87U61,30UZJB2PPKSSO21QHKUJ0S8JS3B35M,3H7Z272LXBNGJZ7SX7CZJ434D1FPLH,6,5
194,2,object_01,object_08,801.59999999963,4,1,286.30000000075,1.0,2,object_05,1,3183,0,8,9,forest_6,1,memory-2step-stake-s,690,2889708,0.0-19.0-0.1-0.194,AZXSVMAA87U61,30UZJB2PPKSSO21QHKUJ0S8JS3B35M,3H7Z272LXBNGJZ7SX7CZJ434D1FPLH,4,3
195,3,object_02,object_06,1164.5999999996,6,1,488.60000000056,0.8888888888888888,2,object_05,5,3223,0,7,8,library_2,1,memory-2step-stake-s,691,2898286,0.0-19.0-0.1-0.195,AZXSVMAA87U61,30UZJB2PPKSSO21QHKUJ0S8JS3B35M,3H7Z272LXBNGJZ7SX7CZJ434D1FPLH,6,5
196,2,object_08,object_01,653.40000000037,4,2,580.5,1.0,2,object_05,1,3232,0,8,9,forest_6,1,memory-2step-stake-s,692,2907050,0.0-19.0-0.1-0.196,AZXSVMAA87U61,30UZJB2PPKSSO21QHKUJ0S8JS3B35M,3H7Z272LXBNGJZ7SX7CZJ434D1FPLH,3,4
197,4,object_04,object_07,690.20000000019,8,1,572.09999999963,0.5555555555555556,2,object_05,5,3257,0,7,5,restaurant_6,1,memory-2step-stake-s,693,2915380,0.0-19.0-0.1-0.197,AZXSVMAA87U61,30UZJB2PPKSSO21QHKUJ0S8JS3B35M,3H7Z272LXBNGJZ7SX7CZJ434D1FPLH,8,7
198,4,object_04,object_07,638.5,8,1,478.79999999981,0.6666666666666666,2,object_05,5,3287,0,7,6,restaurant_8,1,memory-2step-stake-s,694,2923736,0.0-19.0-0.1-0.198,AZXSVMAA87U61,30UZJB2PPKSSO21QHKUJ0S8JS3B35M,3H7Z272LXBNGJZ7SX7CZJ434D1FPLH,8,7
199,4,object_04,object_07,706.0,8,1,544.29999999981,0.7777777777777778,2,object_05,5,3322,0,8,7,restaurant_8,1,memory-2step-stake-s,695,2932268,0.0-19.0-0.1-0.199,AZXSVMAA87U61,30UZJB2PPKSSO21QHKUJ0S8JS3B35M,3H7Z272LXBNGJZ7SX7CZJ434D1FPLH,8,7
200,4,object_07,object_04,637.60000000056,8,2,349.29999999981,0.6666666666666666,2,object_05,5,3352,0,5,6,restaurant_6,1,memory-2step-stake-s,696,2940489,0.0-19.0-0.1-0.200,AZXSVMAA87U61,30UZJB2PPKSSO21QHKUJ0S8JS3B35M,3H7Z272LXBNGJZ7SX7CZJ434D1FPLH,7,8
201,3,object_02,object_06,639.70000000019,6,1,482.59999999963,1.0,2,object_05,5,3397,0,7,9,library_8,1,memory-2step-stake-s,697,2949168,0.0-19.0-0.1-0.201,AZXSVMAA87U61,30UZJB2PPKSSO21QHKUJ0S8JS3B35M,3H7Z272LXBNGJZ7SX7CZJ434D1FPLH,6,5
202,2,object_08,object_01,557.39999999944,4,2,460.79999999981,0.7777777777777778,2,object_05,1,3404,0,5,7,forest_2,1,memory-2step-stake-s,698,2957601,0.0-19.0-0.1-0.202,AZXSVMAA87U61,30UZJB2PPKSSO21QHKUJ0S8JS3B35M,3H7Z272LXBNGJZ7SX7CZJ434D1FPLH,3,4
203,2,object_08,object_01,717.0,4,2,664.59999999963,0.5555555555555556,2,object_05,1,3409,0,4,5,forest_8,1,memory-2step-stake-s,699,2966040,0.0-19.0-0.1-0.203,AZXSVMAA87U61,30UZJB2PPKSSO21QHKUJ0S8JS3B35M,3H7Z272LXBNGJZ7SX7CZJ434D1FPLH,3,4
204,2,object_08,object_01,783.29999999981,4,2,436.20000000019,0.3333333333333333,2,object_05,1,3412,0,8,3,forest_6,1,memory-2step-stake-s,700,2974037,0.0-19.0-0.1-0.204,AZXSVMAA87U61,30UZJB2PPKSSO21QHKUJ0S8JS3B35M,3H7Z272LXBNGJZ7SX7CZJ434D1FPLH,3,4
205,3,object_02,object_06,793.70000000019,6,1,516.39999999944,0.5555555555555556,2,object_05,5,3437,0,9,5,library_6,1,memory-2step-stake-s,701,2982316,0.0-19.0-0.1-0.205,AZXSVMAA87U61,30UZJB2PPKSSO21QHKUJ0S8JS3B35M,3H7Z272LXBNGJZ7SX7CZJ434D1FPLH,6,5
206,3,object_06,object_02,710.80000000075,6,2,1119.5,0.4444444444444444,2,object_05,5,3457,0,6,4,library_6,1,memory-2step-stake-s,702,2991082,0.0-19.0-0.1-0.206,AZXSVMAA87U61,30UZJB2PPKSSO21QHKUJ0S8JS3B35M,3H7Z272LXBNGJZ7SX7CZJ434D1FPLH,5,6
207,3,object_02,object_06,562.89999999944,6,1,372.09999999963,0.3333333333333333,2,object_05,1,3460,0,5,3,library_2,1,memory-2step-stake-s,703,2999004,0.0-19.0-0.1-0.207,AZXSVMAA87U61,30UZJB2PPKSSO21QHKUJ0S8JS3B35M,3H7Z272LXBNGJZ7SX7CZJ434D1FPLH,6,5
208,2,object_01,object_08,635.29999999981,4,1,236.90000000037,0.1111111111111111,2,object_05,5,3465,0,3,1,forest_2,1,memory-2step-stake-s,704,3006586,0.0-19.0-0.1-0.208,AZXSVMAA87U61,30UZJB2PPKSSO21QHKUJ0S8JS3B35M,3H7Z272LXBNGJZ7SX7CZJ434D1FPLH,4,3
209,2,object_01,object_08,667.5,3,2,291.0,0.4444444444444444,1,object_09,5,3485,0,4,0,forest_8,1,memory-2step-stake-s,705,3014529,0.0-19.0-0.1-0.209,AZXSVMAA87U61,30UZJB2PPKSSO21QHKUJ0S8JS3B35M,3H7Z272LXBNGJZ7SX7CZJ434D1FPLH,4,3
210,1,object_03,object_10,930.70000000019,1,2,480.60000000056,0.3333333333333333,1,object_09,1,3488,0,3,1,desert_7,1,memory-2step-stake-s,706,3022559,0.0-19.0-0.1-0.210,AZXSVMAA87U61,30UZJB2PPKSSO21QHKUJ0S8JS3B35M,3H7Z272LXBNGJZ7SX7CZJ434D1FPLH,2,1
211,1,object_10,object_03,923.79999999981,2,2,319.20000000019,0.3333333333333333,2,object_05,1,3491,0,8,3,desert_4,1,memory-2step-stake-s,707,3030437,0.0-19.0-0.1-0.211,AZXSVMAA87U61,30UZJB2PPKSSO21QHKUJ0S8JS3B35M,3H7Z272LXBNGJZ7SX7CZJ434D1FPLH,1,2
212,1,object_03,object_10,707.59999999963,1,2,549.90000000037,1.0,1,object_09,1,3500,0,9,1,desert_6,1,memory-2step-stake-s,708,3039156,0.0-19.0-0.1-0.212,AZXSVMAA87U61,30UZJB2PPKSSO21QHKUJ0S8JS3B35M,3H7Z272LXBNGJZ7SX7CZJ434D1FPLH,2,1
213,1,object_10,object_03,976.29999999981,2,2,426.0,0.2222222222222222,2,object_05,1,3502,0,8,2,desert_7,1,memory-2step-stake-s,709,3047023,0.0-19.0-0.1-0.213,AZXSVMAA87U61,30UZJB2PPKSSO21QHKUJ0S8JS3B35M,3H7Z272LXBNGJZ7SX7CZJ434D1FPLH,1,2
214,2,object_01,object_08,734.89999999944,3,2,643.40000000037,0.7777777777777778,1,object_09,1,3509,0,7,1,forest_8,1,memory-2step-stake-s,710,3055628,0.0-19.0-0.1-0.214,AZXSVMAA87U61,30UZJB2PPKSSO21QHKUJ0S8JS3B35M,3H7Z272LXBNGJZ7SX7CZJ434D1FPLH,4,3
215,3,object_02,object_06,706.89999999944,5,2,614.29999999981,0.5555555555555556,1,object_09,5,3534,0,5,0,library_6,1,memory-2step-stake-s,711,3064001,0.0-19.0-0.1-0.215,AZXSVMAA87U61,30UZJB2PPKSSO21QHKUJ0S8JS3B35M,3H7Z272LXBNGJZ7SX7CZJ434D1FPLH,6,5
216,3,object_06,object_02,847.29999999981,5,1,464.79999999981,0.6666666666666666,1,object_09,1,3540,0,6,2,library_4,1,memory-2step-stake-s,712,3072319,0.0-19.0-0.1-0.216,AZXSVMAA87U61,30UZJB2PPKSSO21QHKUJ0S8JS3B35M,3H7Z272LXBNGJZ7SX7CZJ434D1FPLH,5,6
217,3,object_06,object_02,1156.7000000002,5,1,621.79999999981,0.6666666666666666,1,object_09,5,3570,0,6,3,library_6,1,memory-2step-stake-s,713,3080801,0.0-19.0-0.1-0.217,AZXSVMAA87U61,30UZJB2PPKSSO21QHKUJ0S8JS3B35M,3H7Z272LXBNGJZ7SX7CZJ434D1FPLH,5,6
218,4,object_04,object_07,783.0,7,2,522.40000000037,0.4444444444444444,1,object_09,1,3574,0,4,6,restaurant_8,1,memory-2step-stake-s,714,3088981,0.0-19.0-0.1-0.218,AZXSVMAA87U61,30UZJB2PPKSSO21QHKUJ0S8JS3B35M,3H7Z272LXBNGJZ7SX7CZJ434D1FPLH,8,7
219,2,object_08,object_01,714.59999999963,3,1,489.79999999981,0.2222222222222222,1,object_09,1,3576,0,2,4,forest_6,1,memory-2step-stake-s,715,3096922,0.0-19.0-0.1-0.219,AZXSVMAA87U61,30UZJB2PPKSSO21QHKUJ0S8JS3B35M,3H7Z272LXBNGJZ7SX7CZJ434D1FPLH,3,4
220,2,object_08,object_01,735.0,3,1,406.5,0.2222222222222222,1,object_09,1,3578,0,2,2,forest_8,1,memory-2step-stake-s,716,3104782,0.0-19.0-0.1-0.220,AZXSVMAA87U61,30UZJB2PPKSSO21QHKUJ0S8JS3B35M,3H7Z272LXBNGJZ7SX7CZJ434D1FPLH,3,4
221,2,object_01,object_08,886.39999999944,3,2,574.5,0.3333333333333333,1,object_09,1,3581,0,3,1,forest_3,1,memory-2step-stake-s,717,3112907,0.0-19.0-0.1-0.221,AZXSVMAA87U61,30UZJB2PPKSSO21QHKUJ0S8JS3B35M,3H7Z272LXBNGJZ7SX7CZJ434D1FPLH,4,3
222,3,object_06,object_02,623.5,5,1,419.80000000075,0.7777777777777778,1,object_09,5,3616,0,7,1,library_4,1,memory-2step-stake-s,718,3121298,0.0-19.0-0.1-0.222,AZXSVMAA87U61,30UZJB2PPKSSO21QHKUJ0S8JS3B35M,3H7Z272LXBNGJZ7SX7CZJ434D1FPLH,5,6
223,3,object_06,object_02,856.10000000056,5,1,423.40000000037,0.7777777777777778,1,object_09,1,3623,0,7,0,library_2,1,memory-2step-stake-s,719,3129684,0.0-19.0-0.1-0.223,AZXSVMAA87U61,30UZJB2PPKSSO21QHKUJ0S8JS3B35M,3H7Z272LXBNGJZ7SX7CZJ434D1FPLH,5,6
224,4,object_07,object_04,819.09999999963,7,1,428.09999999963,0.7777777777777778,1,object_09,5,3658,0,7,5,restaurant_7,1,memory-2step-stake-s,720,3138091,0.0-19.0-0.1-0.224,AZXSVMAA87U61,30UZJB2PPKSSO21QHKUJ0S8JS3B35M,3H7Z272LXBNGJZ7SX7CZJ434D1FPLH,7,8
225,3,object_02,object_06,964.79999999981,5,2,442.70000000019,0.4444444444444444,1,object_09,5,3678,0,4,6,library_2,1,memory-2step-stake-s,721,3146191,0.0-19.0-0.1-0.225,AZXSVMAA87U61,30UZJB2PPKSSO21QHKUJ0S8JS3B35M,3H7Z272LXBNGJZ7SX7CZJ434D1FPLH,6,5
226,2,object_01,object_08,721.59999999963,3,2,755.5,0.1111111111111111,1,object_09,1,3679,0,1,6,forest_2,1,memory-2step-stake-s,722,3154293,0.0-19.0-0.1-0.226,AZXSVMAA87U61,30UZJB2PPKSSO21QHKUJ0S8JS3B35M,3H7Z272LXBNGJZ7SX7CZJ434D1FPLH,4,3
227,4,object_04,object_07,1063.7000000002,7,2,798.70000000019,0.1111111111111111,1,object_09,5,3684,0,1,6,restaurant_4,1,memory-2step-stake-s,723,3162435,0.0-19.0-0.1-0.227,AZXSVMAA87U61,30UZJB2PPKSSO21QHKUJ0S8JS3B35M,3H7Z272LXBNGJZ7SX7CZJ434D1FPLH,8,7
228,1,object_10,object_03,928.09999999963,1,1,570.39999999944,0.4444444444444444,1,object_09,1,3688,0,4,7,desert_5,1,memory-2step-stake-s,724,3170671,0.0-19.0-0.1-0.228,AZXSVMAA87U61,30UZJB2PPKSSO21QHKUJ0S8JS3B35M,3H7Z272LXBNGJZ7SX7CZJ434D1FPLH,1,2
229,3,object_02,object_06,566.89999999944,5,2,553.79999999981,0.7777777777777778,1,object_09,5,3723,0,7,4,library_6,1,memory-2step-stake-s,725,3179205,0.0-19.0-0.1-0.229,AZXSVMAA87U61,30UZJB2PPKSSO21QHKUJ0S8JS3B35M,3H7Z272LXBNGJZ7SX7CZJ434D1FPLH,6,5
230,1,object_10,object_03,818.39999999944,1,1,785.40000000037,0.6666666666666666,1,object_09,1,3729,0,6,5,desert_4,1,memory-2step-stake-s,726,3187853,0.0-19.0-0.1-0.230,AZXSVMAA87U61,30UZJB2PPKSSO21QHKUJ0S8JS3B35M,3H7Z272LXBNGJZ7SX7CZJ434D1FPLH,1,2
231,4,object_04,object_07,788.09999999963,7,2,585.39999999944,0.8888888888888888,1,object_09,1,3737,0,8,2,restaurant_4,1,memory-2step-stake-s,727,3196508,0.0-19.0-0.1-0.231,AZXSVMAA87U61,30UZJB2PPKSSO21QHKUJ0S8JS3B35M,3H7Z272LXBNGJZ7SX7CZJ434D1FPLH,8,7
232,1,object_03,object_10,685.20000000019,2,1,582.20000000019,0.1111111111111111,2,object_05,1,3738,0,9,1,desert_7,1,memory-2step-stake-s,728,3204432,0.0-19.0-0.1-0.232,AZXSVMAA87U61,30UZJB2PPKSSO21QHKUJ0S8JS3B35M,3H7Z272LXBNGJZ7SX7CZJ434D1FPLH,2,1
233,2,object_08,object_01,818.29999999981,3,1,390.90000000037,0.4444444444444444,1,object_09,1,3742,0,4,1,forest_3,1,memory-2step-stake-s,729,3212481,0.0-19.0-0.1-0.233,AZXSVMAA87U61,30UZJB2PPKSSO21QHKUJ0S8JS3B35M,3H7Z272LXBNGJZ7SX7CZJ434D1FPLH,3,4
234,2,object_08,object_01,842.0,3,1,848.80000000075,0.5555555555555556,1,object_09,1,3747,0,5,1,forest_8,1,memory-2step-stake-s,730,3221088,0.0-19.0-0.1-0.234,AZXSVMAA87U61,30UZJB2PPKSSO21QHKUJ0S8JS3B35M,3H7Z272LXBNGJZ7SX7CZJ434D1FPLH,3,4
235,3,object_02,object_06,1177.5,5,2,564.69999999925,0.5555555555555556,1,object_09,5,3772,0,5,0,library_6,1,memory-2step-stake-s,731,3229418,0.0-19.0-0.1-0.235,AZXSVMAA87U61,30UZJB2PPKSSO21QHKUJ0S8JS3B35M,3H7Z272LXBNGJZ7SX7CZJ434D1FPLH,6,5
236,1,object_03,object_10,722.09999999963,1,2,542.29999999981,0.5555555555555556,1,object_09,1,3777,0,5,3,desert_5,1,memory-2step-stake-s,732,3237719,0.0-19.0-0.1-0.236,AZXSVMAA87U61,30UZJB2PPKSSO21QHKUJ0S8JS3B35M,3H7Z272LXBNGJZ7SX7CZJ434D1FPLH,2,1
237,4,object_07,object_04,803.29999999981,7,1,385.79999999981,0.6666666666666666,1,object_09,5,3807,0,6,6,restaurant_8,1,memory-2step-stake-s,733,3245976,0.0-19.0-0.1-0.237,AZXSVMAA87U61,30UZJB2PPKSSO21QHKUJ0S8JS3B35M,3H7Z272LXBNGJZ7SX7CZJ434D1FPLH,7,8
238,2,object_01,object_08,660.69999999925,3,2,595.09999999963,0.6666666666666666,1,object_09,1,3813,0,6,8,forest_8,1,memory-2step-stake-s,734,3254446,0.0-19.0-0.1-0.238,AZXSVMAA87U61,30UZJB2PPKSSO21QHKUJ0S8JS3B35M,3H7Z272LXBNGJZ7SX7CZJ434D1FPLH,4,3
239,4,object_07,object_04,666.59999999963,7,1,655.60000000056,0.8888888888888888,1,object_09,5,3853,0,8,9,restaurant_7,1,memory-2step-stake-s,735,3263187,0.0-19.0-0.1-0.239,AZXSVMAA87U61,30UZJB2PPKSSO21QHKUJ0S8JS3B35M,3H7Z272LXBNGJZ7SX7CZJ434D1FPLH,7,8
240,2,object_01,object_08,505.09999999963,3,2,565.5,0.7777777777777778,1,object_09,1,3860,0,7,8,forest_3,1,memory-2step-stake-s,736,3271720,0.0-19.0-0.1-0.240,AZXSVMAA87U61,30UZJB2PPKSSO21QHKUJ0S8JS3B35M,3H7Z272LXBNGJZ7SX7CZJ434D1FPLH,4,3
241,4,object_07,object_04,853.40000000037,7,1,404.59999999963,0.6666666666666666,1,object_09,5,3890,0,6,8,restaurant_6,1,memory-2step-stake-s,737,3279981,0.0-19.0-0.1-0.241,AZXSVMAA87U61,30UZJB2PPKSSO21QHKUJ0S8JS3B35M,3H7Z272LXBNGJZ7SX7CZJ434D1FPLH,7,8
242,3,object_06,object_02,1249.7000000002,5,1,652.0,1.0,1,object_09,5,3935,0,9,7,library_4,1,memory-2step-stake-s,738,3288807,0.0-19.0-0.1-0.242,AZXSVMAA87U61,30UZJB2PPKSSO21QHKUJ0S8JS3B35M,3H7Z272LXBNGJZ7SX7CZJ434D1FPLH,5,6
243,1,object_03,object_10,833.0,1,2,514.89999999944,0.7777777777777778,1,object_09,1,3942,0,7,6,desert_4,1,memory-2step-stake-s,739,3297296,0.0-19.0-0.1-0.243,AZXSVMAA87U61,30UZJB2PPKSSO21QHKUJ0S8JS3B35M,3H7Z272LXBNGJZ7SX7CZJ434D1FPLH,2,1
244,3,object_02,object_06,961.70000000019,5,2,453.60000000056,0.6666666666666666,1,object_09,1,3948,0,6,6,library_4,1,memory-2step-stake-s,740,3305598,0.0-19.0-0.1-0.244,AZXSVMAA87U61,30UZJB2PPKSSO21QHKUJ0S8JS3B35M,3H7Z272LXBNGJZ7SX7CZJ434D1FPLH,6,5
245,1,object_03,object_10,1024.5,1,2,622.5,0.7777777777777778,1,object_09,1,3955,0,7,3,desert_4,1,memory-2step-stake-s,741,3314172,0.0-19.0-0.1-0.245,AZXSVMAA87U61,30UZJB2PPKSSO21QHKUJ0S8JS3B35M,3H7Z272LXBNGJZ7SX7CZJ434D1FPLH,2,1
246,4,object_07,object_04,782.09999999963,7,1,693.79999999981,0.3333333333333333,1,object_09,5,3970,0,3,2,restaurant_7,1,memory-2step-stake-s,742,3322417,0.0-19.0-0.1-0.246,AZXSVMAA87U61,30UZJB2PPKSSO21QHKUJ0S8JS3B35M,3H7Z272LXBNGJZ7SX7CZJ434D1FPLH,7,8
247,1,object_10,object_03,826.70000000019,1,1,537.89999999944,0.4444444444444444,1,object_09,1,3974,0,4,1,desert_5,1,memory-2step-stake-s,743,3330603,0.0-19.0-0.1-0.247,AZXSVMAA87U61,30UZJB2PPKSSO21QHKUJ0S8JS3B35M,3H7Z272LXBNGJZ7SX7CZJ434D1FPLH,1,2
248,3,object_02,object_06,1174.7000000002,5,2,649.90000000037,0.4444444444444444,1,object_09,5,3994,0,4,3,library_4,1,memory-2step-stake-s,744,3338913,0.0-19.0-0.1-0.248,AZXSVMAA87U61,30UZJB2PPKSSO21QHKUJ0S8JS3B35M,3H7Z272LXBNGJZ7SX7CZJ434D1FPLH,6,5
249,1,object_10,object_03,1066.5,1,1,604.90000000037,0.5555555555555556,1,object_09,1,3999,0,5,3,desert_5,1,memory-2step-stake-s,745,3347284,0.0-19.0-0.1-0.249,AZXSVMAA87U61,30UZJB2PPKSSO21QHKUJ0S8JS3B35M,3H7Z272LXBNGJZ7SX7CZJ434D1FPLH,1,2
250,4,object_04,object_07,789.39999999944,7,2,447.59999999963,0.7777777777777778,1,object_09,5,4034,0,7,1,restaurant_7,1,memory-2step-stake-s,746,3355703,0.0-19.0-0.1-0.250,AZXSVMAA87U61,30UZJB2PPKSSO21QHKUJ0S8JS3B35M,3H7Z272LXBNGJZ7SX7CZJ434D1FPLH,8,7
251,1,object_10,object_03,888.60000000056,1,1,434.0,0.6666666666666666,1,object_09,1,4040,0,6,1,desert_5,1,memory-2step-stake-s,747,3363986,0.0-19.0-0.1-0.251,AZXSVMAA87U61,30UZJB2PPKSSO21QHKUJ0S8JS3B35M,3H7Z272LXBNGJZ7SX7CZJ434D1FPLH,1,2
252,3,object_02,object_06,763.30000000075,5,2,-1.0,0.0,1,object_09,5,4040,0,5,4,library_4,1,memory-2step-stake-s,748,3372519,0.0-19.0-0.1-0.252,AZXSVMAA87U61,30UZJB2PPKSSO21QHKUJ0S8JS3B35M,3H7Z272LXBNGJZ7SX7CZJ434D1FPLH,6,5
253,2,object_01,object_08,659.29999999981,3,2,302.40000000037,0.6666666666666666,1,object_09,1,4046,0,6,5,forest_3,1,memory-2step-stake-s,749,3380684,0.0-19.0-0.1-0.253,AZXSVMAA87U61,30UZJB2PPKSSO21QHKUJ0S8JS3B35M,3H7Z272LXBNGJZ7SX7CZJ434D1FPLH,4,3
254,3,object_02,object_06,740.10000000056,5,2,401.5,0.8888888888888888,1,object_09,5,4086,0,8,8,library_8,1,memory-2step-stake-s,750,3389154,0.0-19.0-0.1-0.254,AZXSVMAA87U61,30UZJB2PPKSSO21QHKUJ0S8JS3B35M,3H7Z272LXBNGJZ7SX7CZJ434D1FPLH,6,5
255,4,object_04,object_07,910.70000000019,7,2,414.20000000019,1.0,1,object_09,5,4131,0,9,8,restaurant_7,1,memory-2step-stake-s,751,3397727,0.0-19.0-0.1-0.255,AZXSVMAA87U61,30UZJB2PPKSSO21QHKUJ0S8JS3B35M,3H7Z272LXBNGJZ7SX7CZJ434D1FPLH,8,7
