,state1,stim_left,stim_right,rt_1,choice1,response1,rt_2,points,state2,stim_state2,stake,score,practice,rews1,rews2,background,high_arm,trial_type,trial_index,time_elapsed,internal_node_id,subid,hitid,assignmentid,stim_left_num,stim_right_num
0,1,object_04,object_02,452.40000003576,2,1,574.80000001192,0.2222222222222222,2,object_08,1,2,0,6,2,desert_5,1,memory-2step-stake-s,493,687682,0.0-19.0-0.0-0.0,A1CUDX7TTS2W61,3QX22DUVPRXA8IOFTTHB0PBO5I3MV1,3RSDURM96E2WM7P178LEJ06W8CVYEH,2,1
1,3,object_01,object_03,335.30000001192,5,2,346.30000001192,1.0,1,object_07,5,47,0,9,3,library_5,1,memory-2step-stake-s,494,696160,0.0-19.0-0.0-0.1,A1CUDX7TTS2W61,3QX22DUVPRXA8IOFTTHB0PBO5I3MV1,3RSDURM96E2WM7P178LEJ06W8CVYEH,6,5
2,4,object_10,object_09,560.69999998808,8,1,260.69999998808,0.4444444444444444,2,object_08,5,67,0,7,4,restaurant_7,1,memory-2step-stake-s,495,704038,0.0-19.0-0.0-0.2,A1CUDX7TTS2W61,3QX22DUVPRXA8IOFTTHB0PBO5I3MV1,3RSDURM96E2WM7P178LEJ06W8CVYEH,8,7
3,3,object_01,object_03,604.60000002384,5,2,334.0,0.8888888888888888,1,object_07,5,107,0,8,4,library_7,1,memory-2step-stake-s,496,712410,0.0-19.0-0.0-0.3,A1CUDX7TTS2W61,3QX22DUVPRXA8IOFTTHB0PBO5I3MV1,3RSDURM96E2WM7P178LEJ06W8CVYEH,6,5
4,3,object_03,object_01,831.09999996424,6,2,273.59999996424,0.3333333333333333,2,object_08,5,122,0,5,3,library_6,1,memory-2step-stake-s,497,720199,0.0-19.0-0.0-0.4,A1CUDX7TTS2W61,3QX22DUVPRXA8IOFTTHB0PBO5I3MV1,3RSDURM96E2WM7P178LEJ06W8CVYEH,5,6
5,1,object_02,object_04,655.39999997616,1,1,563.89999997616,0.5555555555555556,1,object_07,5,147,0,5,3,desert_1,1,memory-2step-stake-s,498,728481,0.0-19.0-0.0-0.5,A1CUDX7TTS2W61,3QX22DUVPRXA8IOFTTHB0PBO5I3MV1,3RSDURM96E2WM7P178LEJ06W8CVYEH,1,2
6,3,object_03,object_01,992.19999998808,5,1,368.0,0.8888888888888888,1,object_07,5,187,0,8,3,library_6,1,memory-2step-stake-s,499,736881,0.0-19.0-0.0-0.6,A1CUDX7TTS2W61,3QX22DUVPRXA8IOFTTHB0PBO5I3MV1,3RSDURM96E2WM7P178LEJ06W8CVYEH,5,6
7,2,object_06,object_05,888.19999998808,3,2,316.69999998808,0.7777777777777778,1,object_07,5,222,0,7,0,forest_2,1,memory-2step-stake-s,500,745115,0.0-19.0-0.0-0.7,A1CUDX7TTS2W61,3QX22DUVPRXA8IOFTTHB0PBO5I3MV1,3RSDURM96E2WM7P178LEJ06W8CVYEH,4,3
8,2,object_05,object_06,972.69999998808,3,1,319.60000002384,0.6666666666666666,1,object_07,1,228,0,6,0,forest_2,1,memory-2step-stake-s,501,753254,0.0-19.0-0.0-0.8,A1CUDX7TTS2W61,3QX22DUVPRXA8IOFTTHB0PBO5I3MV1,3RSDURM96E2WM7P178LEJ06W8CVYEH,3,4
9,1,object_02,object_04,846.20000004768,1,1,337.10000002384,0.7777777777777778,1,object_07,1,235,0,7,0,desert_7,1,memory-2step-stake-s,502,761523,0.0-19.0-0.0-0.9,A1CUDX7TTS2W61,3QX22DUVPRXA8IOFTTHB0PBO5I3MV1,3RSDURM96E2WM7P178LEJ06W8CVYEH,1,2
10,2,object_06,object_05,646.0,3,2,249.10000002384,0.6666666666666666,1,object_07,1,241,0,6,0,forest_5,1,memory-2step-stake-s,503,769588,0.0-19.0-0.0-0.10,A1CUDX7TTS2W61,3QX22DUVPRXA8IOFTTHB0PBO5I3MV1,3RSDURM96E2WM7P178LEJ06W8CVYEH,4,3
11,1,object_04,object_02,893.80000001192,2,1,375.70000004768,0.3333333333333333,2,object_08,1,244,0,8,3,desert_7,1,memory-2step-stake-s,504,777480,0.0-19.0-0.0-0.11,A1CUDX7TTS2W61,3QX22DUVPRXA8IOFTTHB0PBO5I3MV1,3RSDURM96E2WM7P178LEJ06W8CVYEH,2,1
12,1,object_02,object_04,857.60000002384,1,1,308.10000002384,0.7777777777777778,1,object_07,1,251,0,7,6,desert_5,1,memory-2step-stake-s,505,785707,0.0-19.0-0.0-0.12,A1CUDX7TTS2W61,3QX22DUVPRXA8IOFTTHB0PBO5I3MV1,3RSDURM96E2WM7P178LEJ06W8CVYEH,1,2
13,4,object_09,object_10,973.60000002384,8,2,1376.7999999523,1.0,2,object_08,5,296,0,6,9,restaurant_4,1,memory-2step-stake-s,506,795208,0.0-19.0-0.0-0.13,A1CUDX7TTS2W61,3QX22DUVPRXA8IOFTTHB0PBO5I3MV1,3RSDURM96E2WM7P178LEJ06W8CVYEH,7,8
14,3,object_01,object_03,546.39999997616,6,1,365.39999997616,0.6666666666666666,2,object_08,5,326,0,5,6,library_2,1,memory-2step-stake-s,507,803390,0.0-19.0-0.0-0.14,A1CUDX7TTS2W61,3QX22DUVPRXA8IOFTTHB0PBO5I3MV1,3RSDURM96E2WM7P178LEJ06W8CVYEH,6,5
15,3,object_03,object_01,964.30000001192,6,2,365.60000002384,0.5555555555555556,2,object_08,5,351,0,3,5,library_6,1,memory-2step-stake-s,508,811481,0.0-19.0-0.0-0.15,A1CUDX7TTS2W61,3QX22DUVPRXA8IOFTTHB0PBO5I3MV1,3RSDURM96E2WM7P178LEJ06W8CVYEH,5,6
16,1,object_04,object_02,880.30000001192,2,1,333.0,0.4444444444444444,2,object_08,1,355,0,2,4,desert_2,1,memory-2step-stake-s,509,819430,0.0-19.0-0.0-0.16,A1CUDX7TTS2W61,3QX22DUVPRXA8IOFTTHB0PBO5I3MV1,3RSDURM96E2WM7P178LEJ06W8CVYEH,2,1
17,3,object_01,object_03,931.60000002384,5,2,382.5,0.5555555555555556,1,object_07,1,360,0,5,5,library_5,1,memory-2step-stake-s,510,827528,0.0-19.0-0.0-0.17,A1CUDX7TTS2W61,3QX22DUVPRXA8IOFTTHB0PBO5I3MV1,3RSDURM96E2WM7P178LEJ06W8CVYEH,6,5
18,1,object_02,object_04,338.30000001192,1,1,260.80000001192,0.4444444444444444,1,object_07,1,364,0,4,3,desert_7,1,memory-2step-stake-s,511,835412,0.0-19.0-0.0-0.18,A1CUDX7TTS2W61,3QX22DUVPRXA8IOFTTHB0PBO5I3MV1,3RSDURM96E2WM7P178LEJ06W8CVYEH,1,2
19,4,object_09,object_10,934.40000003576,8,2,624.09999996424,0.4444444444444444,2,object_08,5,384,0,4,4,restaurant_5,1,memory-2step-stake-s,512,843650,0.0-19.0-0.0-0.19,A1CUDX7TTS2W61,3QX22DUVPRXA8IOFTTHB0PBO5I3MV1,3RSDURM96E2WM7P178LEJ06W8CVYEH,7,8
20,1,object_04,object_02,719.59999996424,2,1,252.19999998808,0.4444444444444444,2,object_08,5,404,0,6,4,desert_1,1,memory-2step-stake-s,513,851515,0.0-19.0-0.0-0.20,A1CUDX7TTS2W61,3QX22DUVPRXA8IOFTTHB0PBO5I3MV1,3RSDURM96E2WM7P178LEJ06W8CVYEH,2,1
21,2,object_06,object_05,462.69999998808,3,2,256.10000002384,0.7777777777777778,1,object_07,1,411,0,7,2,forest_6,1,memory-2step-stake-s,514,859696,0.0-19.0-0.0-0.21,A1CUDX7TTS2W61,3QX22DUVPRXA8IOFTTHB0PBO5I3MV1,3RSDURM96E2WM7P178LEJ06W8CVYEH,4,3
22,1,object_04,object_02,536.80000001192,1,2,235.90000003576,0.4444444444444444,1,object_07,1,415,0,4,3,desert_2,1,memory-2step-stake-s,515,867546,0.0-19.0-0.0-0.22,A1CUDX7TTS2W61,3QX22DUVPRXA8IOFTTHB0PBO5I3MV1,3RSDURM96E2WM7P178LEJ06W8CVYEH,2,1
23,1,object_04,object_02,390.5,2,1,290.0,0.0,2,object_08,1,415,0,6,0,desert_2,1,memory-2step-stake-s,516,875048,0.0-19.0-0.0-0.23,A1CUDX7TTS2W61,3QX22DUVPRXA8IOFTTHB0PBO5I3MV1,3RSDURM96E2WM7P178LEJ06W8CVYEH,2,1
24,3,object_01,object_03,961.89999997616,6,1,340.5,0.5555555555555556,2,object_08,5,440,0,5,5,library_6,1,memory-2step-stake-s,517,883116,0.0-19.0-0.0-0.24,A1CUDX7TTS2W61,3QX22DUVPRXA8IOFTTHB0PBO5I3MV1,3RSDURM96E2WM7P178LEJ06W8CVYEH,6,5
25,3,object_01,object_03,1076.8000000119,6,1,342.5,0.6666666666666666,2,object_08,5,470,0,5,6,library_2,1,memory-2step-stake-s,518,891291,0.0-19.0-0.0-0.25,A1CUDX7TTS2W61,3QX22DUVPRXA8IOFTTHB0PBO5I3MV1,3RSDURM96E2WM7P178LEJ06W8CVYEH,6,5
26,3,object_01,object_03,542.80000001192,5,2,209.69999998808,0.3333333333333333,1,object_07,5,485,0,3,9,library_2,1,memory-2step-stake-s,519,899021,0.0-19.0-0.0-0.26,A1CUDX7TTS2W61,3QX22DUVPRXA8IOFTTHB0PBO5I3MV1,3RSDURM96E2WM7P178LEJ06W8CVYEH,6,5
27,4,object_09,object_10,427.69999998808,7,1,245.39999997616,0.1111111111111111,1,object_07,5,490,0,1,7,restaurant_5,1,memory-2step-stake-s,520,906586,0.0-19.0-0.0-0.27,A1CUDX7TTS2W61,3QX22DUVPRXA8IOFTTHB0PBO5I3MV1,3RSDURM96E2WM7P178LEJ06W8CVYEH,7,8
28,3,object_03,object_01,320.09999996424,6,2,223.89999997616,0.7777777777777778,2,object_08,5,525,0,3,7,library_2,1,memory-2step-stake-s,521,914732,0.0-19.0-0.0-0.28,A1CUDX7TTS2W61,3QX22DUVPRXA8IOFTTHB0PBO5I3MV1,3RSDURM96E2WM7P178LEJ06W8CVYEH,5,6
29,3,object_01,object_03,644.60000002384,6,1,255.09999996424,0.4444444444444444,2,object_08,5,545,0,2,4,library_2,1,memory-2step-stake-s,522,922605,0.0-19.0-0.0-0.29,A1CUDX7TTS2W61,3QX22DUVPRXA8IOFTTHB0PBO5I3MV1,3RSDURM96E2WM7P178LEJ06W8CVYEH,6,5
30,4,object_09,object_10,564.39999997616,8,2,287.80000001192,0.5555555555555556,2,object_08,5,570,0,1,5,restaurant_3,1,memory-2step-stake-s,523,930610,0.0-19.0-0.0-0.30,A1CUDX7TTS2W61,3QX22DUVPRXA8IOFTTHB0PBO5I3MV1,3RSDURM96E2WM7P178LEJ06W8CVYEH,7,8
31,2,object_05,object_06,430.39999997616,3,1,289.19999998808,0.2222222222222222,1,object_07,1,572,0,2,5,forest_3,1,memory-2step-stake-s,524,938315,0.0-19.0-0.0-0.31,A1CUDX7TTS2W61,3QX22DUVPRXA8IOFTTHB0PBO5I3MV1,3RSDURM96E2WM7P178LEJ06W8CVYEH,3,4
32,2,object_05,object_06,631.10000002384,4,2,250.19999998808,0.7777777777777778,2,object_08,5,607,0,4,7,forest_3,1,memory-2step-stake-s,525,946481,0.0-19.0-0.0-0.32,A1CUDX7TTS2W61,3QX22DUVPRXA8IOFTTHB0PBO5I3MV1,3RSDURM96E2WM7P178LEJ06W8CVYEH,3,4
33,1,object_02,object_04,815.80000001192,2,2,370.60000002384,0.6666666666666666,2,object_08,5,637,0,6,6,desert_1,1,memory-2step-stake-s,526,954672,0.0-19.0-0.0-0.33,A1CUDX7TTS2W61,3QX22DUVPRXA8IOFTTHB0PBO5I3MV1,3RSDURM96E2WM7P178LEJ06W8CVYEH,1,2
34,4,object_09,object_10,130.30000001192,7,1,814.40000003576,0.7777777777777778,1,object_07,1,644,0,7,4,restaurant_7,1,memory-2step-stake-s,527,963403,0.0-19.0-0.0-0.34,A1CUDX7TTS2W61,3QX22DUVPRXA8IOFTTHB0PBO5I3MV1,3RSDURM96E2WM7P178LEJ06W8CVYEH,7,8
35,2,object_06,object_05,597.80000001192,4,1,664.80000001192,0.7777777777777778,2,object_08,1,651,0,8,7,forest_5,1,memory-2step-stake-s,528,971988,0.0-19.0-0.0-0.35,A1CUDX7TTS2W61,3QX22DUVPRXA8IOFTTHB0PBO5I3MV1,3RSDURM96E2WM7P178LEJ06W8CVYEH,4,3
36,2,object_06,object_05,402.19999998808,4,1,156.90000003576,0.8888888888888888,2,object_08,5,691,0,6,8,forest_5,1,memory-2step-stake-s,529,980190,0.0-19.0-0.0-0.36,A1CUDX7TTS2W61,3QX22DUVPRXA8IOFTTHB0PBO5I3MV1,3RSDURM96E2WM7P178LEJ06W8CVYEH,4,3
37,2,object_05,object_06,444.40000003576,3,1,239.29999995232,1.0,1,object_07,1,700,0,9,9,forest_2,1,memory-2step-stake-s,530,988560,0.0-19.0-0.0-0.37,A1CUDX7TTS2W61,3QX22DUVPRXA8IOFTTHB0PBO5I3MV1,3RSDURM96E2WM7P178LEJ06W8CVYEH,3,4
38,2,object_06,object_05,744.5,4,1,283.59999996424,0.6666666666666666,2,object_08,1,706,0,9,6,forest_6,1,memory-2step-stake-s,531,996663,0.0-19.0-0.0-0.38,A1CUDX7TTS2W61,3QX22DUVPRXA8IOFTTHB0PBO5I3MV1,3RSDURM96E2WM7P178LEJ06W8CVYEH,4,3
39,1,object_04,object_02,618.69999998808,1,2,244.29999995232,0.4444444444444444,1,object_07,1,710,0,4,7,desert_7,1,memory-2step-stake-s,532,1004538,0.0-19.0-0.0-0.39,A1CUDX7TTS2W61,3QX22DUVPRXA8IOFTTHB0PBO5I3MV1,3RSDURM96E2WM7P178LEJ06W8CVYEH,2,1
40,2,object_06,object_05,607.09999996424,4,1,218.40000003576,0.5555555555555556,2,object_08,1,715,0,2,5,forest_2,1,memory-2step-stake-s,533,1012475,0.0-19.0-0.0-0.40,A1CUDX7TTS2W61,3QX22DUVPRXA8IOFTTHB0PBO5I3MV1,3RSDURM96E2WM7P178LEJ06W8CVYEH,4,3
41,4,object_10,object_09,957.60000002384,7,2,320.59999996424,0.1111111111111111,1,object_07,5,720,0,1,8,restaurant_3,1,memory-2step-stake-s,534,1020111,0.0-19.0-0.0-0.41,A1CUDX7TTS2W61,3QX22DUVPRXA8IOFTTHB0PBO5I3MV1,3RSDURM96E2WM7P178LEJ06W8CVYEH,8,7
42,4,object_10,object_09,1130.1999999881,8,1,468.80000001192,0.6666666666666666,2,object_08,5,750,0,3,6,restaurant_3,1,memory-2step-stake-s,535,1028397,0.0-19.0-0.0-0.42,A1CUDX7TTS2W61,3QX22DUVPRXA8IOFTTHB0PBO5I3MV1,3RSDURM96E2WM7P178LEJ06W8CVYEH,8,7
43,4,object_10,object_09,1043.1000000238,7,2,422.89999997616,0.5555555555555556,1,object_07,1,755,0,5,7,restaurant_7,1,memory-2step-stake-s,536,1036541,0.0-19.0-0.0-0.43,A1CUDX7TTS2W61,3QX22DUVPRXA8IOFTTHB0PBO5I3MV1,3RSDURM96E2WM7P178LEJ06W8CVYEH,8,7
44,4,object_10,object_09,563.0,8,1,286.59999996424,0.8888888888888888,2,object_08,5,795,0,1,8,restaurant_7,1,memory-2step-stake-s,537,1044854,0.0-19.0-0.0-0.44,A1CUDX7TTS2W61,3QX22DUVPRXA8IOFTTHB0PBO5I3MV1,3RSDURM96E2WM7P178LEJ06W8CVYEH,8,7
45,4,object_10,object_09,523.80000001192,7,2,374.89999997616,0.2222222222222222,1,object_07,5,805,0,2,7,restaurant_5,1,memory-2step-stake-s,538,1052642,0.0-19.0-0.0-0.45,A1CUDX7TTS2W61,3QX22DUVPRXA8IOFTTHB0PBO5I3MV1,3RSDURM96E2WM7P178LEJ06W8CVYEH,8,7
46,2,object_06,object_05,687.10000002384,4,1,249.5,0.8888888888888888,2,object_08,1,813,0,3,8,forest_3,1,memory-2step-stake-s,539,1060939,0.0-19.0-0.0-0.46,A1CUDX7TTS2W61,3QX22DUVPRXA8IOFTTHB0PBO5I3MV1,3RSDURM96E2WM7P178LEJ06W8CVYEH,4,3
47,2,object_06,object_05,783.0,4,1,233.0,0.7777777777777778,2,object_08,1,820,0,7,7,forest_2,1,memory-2step-stake-s,540,1069096,0.0-19.0-0.0-0.47,A1CUDX7TTS2W61,3QX22DUVPRXA8IOFTTHB0PBO5I3MV1,3RSDURM96E2WM7P178LEJ06W8CVYEH,4,3
48,1,object_02,object_04,688.69999998808,1,1,377.69999998808,0.8888888888888888,1,object_07,1,828,0,8,5,desert_1,1,memory-2step-stake-s,541,1077507,0.0-19.0-0.0-0.48,A1CUDX7TTS2W61,3QX22DUVPRXA8IOFTTHB0PBO5I3MV1,3RSDURM96E2WM7P178LEJ06W8CVYEH,1,2
49,3,object_01,object_03,13.600000023842,5,2,305.5,0.8888888888888888,1,object_07,5,868,0,8,7,library_2,1,memory-2step-stake-s,542,1085841,0.0-19.0-0.0-0.49,A1CUDX7TTS2W61,3QX22DUVPRXA8IOFTTHB0PBO5I3MV1,3RSDURM96E2WM7P178LEJ06W8CVYEH,6,5
50,1,object_02,object_04,560.0,1,1,298.59999996424,0.8888888888888888,1,object_07,1,876,0,8,3,desert_7,1,memory-2step-stake-s,543,1094159,0.0-19.0-0.0-0.50,A1CUDX7TTS2W61,3QX22DUVPRXA8IOFTTHB0PBO5I3MV1,3RSDURM96E2WM7P178LEJ06W8CVYEH,1,2
51,2,object_05,object_06,778.69999998808,3,1,285.29999995232,0.7777777777777778,1,object_07,1,883,0,7,1,forest_2,1,memory-2step-stake-s,544,1102387,0.0-19.0-0.0-0.51,A1CUDX7TTS2W61,3QX22DUVPRXA8IOFTTHB0PBO5I3MV1,3RSDURM96E2WM7P178LEJ06W8CVYEH,3,4
52,4,object_09,object_10,646.69999998808,7,1,233.89999997616,0.8888888888888888,1,object_07,5,923,0,8,2,restaurant_7,1,memory-2step-stake-s,545,1110640,0.0-19.0-0.0-0.52,A1CUDX7TTS2W61,3QX22DUVPRXA8IOFTTHB0PBO5I3MV1,3RSDURM96E2WM7P178LEJ06W8CVYEH,7,8
53,1,object_02,object_04,593.20000004768,1,1,284.40000003576,0.7777777777777778,1,object_07,1,930,0,7,1,desert_5,1,memory-2step-stake-s,546,1118848,0.0-19.0-0.0-0.53,A1CUDX7TTS2W61,3QX22DUVPRXA8IOFTTHB0PBO5I3MV1,3RSDURM96E2WM7P178LEJ06W8CVYEH,1,2
54,1,object_02,object_04,201.60000002384,1,1,252.10000002384,0.5555555555555556,1,object_07,5,955,0,5,3,desert_1,1,memory-2step-stake-s,547,1126819,0.0-19.0-0.0-0.54,A1CUDX7TTS2W61,3QX22DUVPRXA8IOFTTHB0PBO5I3MV1,3RSDURM96E2WM7P178LEJ06W8CVYEH,1,2
55,2,object_05,object_06,462.59999996424,4,2,617.19999998808,0.1111111111111111,2,object_08,1,956,0,5,1,forest_5,1,memory-2step-stake-s,548,1134760,0.0-19.0-0.0-0.55,A1CUDX7TTS2W61,3QX22DUVPRXA8IOFTTHB0PBO5I3MV1,3RSDURM96E2WM7P178LEJ06W8CVYEH,3,4
56,4,object_09,object_10,568.80000001192,7,1,380.39999997616,0.4444444444444444,1,object_07,5,976,0,4,1,restaurant_5,1,memory-2step-stake-s,549,1142760,0.0-19.0-0.0-0.56,A1CUDX7TTS2W61,3QX22DUVPRXA8IOFTTHB0PBO5I3MV1,3RSDURM96E2WM7P178LEJ06W8CVYEH,7,8
57,4,object_10,object_09,760.40000003576,7,2,295.39999997616,0.5555555555555556,1,object_07,5,1001,0,5,2,restaurant_5,1,memory-2step-stake-s,550,1150777,0.0-19.0-0.0-0.57,A1CUDX7TTS2W61,3QX22DUVPRXA8IOFTTHB0PBO5I3MV1,3RSDURM96E2WM7P178LEJ06W8CVYEH,8,7
58,2,object_05,object_06,576.09999996424,3,1,354.0,0.1111111111111111,1,object_07,1,1002,0,1,0,forest_2,1,memory-2step-stake-s,551,1158445,0.0-19.0-0.0-0.58,A1CUDX7TTS2W61,3QX22DUVPRXA8IOFTTHB0PBO5I3MV1,3RSDURM96E2WM7P178LEJ06W8CVYEH,3,4
59,2,object_05,object_06,553.79999995232,4,2,292.89999997616,0.0,2,object_08,1,1002,0,1,0,forest_3,1,memory-2step-stake-s,552,1165950,0.0-19.0-0.0-0.59,A1CUDX7TTS2W61,3QX22DUVPRXA8IOFTTHB0PBO5I3MV1,3RSDURM96E2WM7P178LEJ06W8CVYEH,3,4
60,4,object_10,object_09,657.90000003576,8,1,404.5,0.2222222222222222,2,object_08,5,1012,0,1,2,restaurant_3,1,memory-2step-stake-s,553,1173770,0.0-19.0-0.0-0.60,A1CUDX7TTS2W61,3QX22DUVPRXA8IOFTTHB0PBO5I3MV1,3RSDURM96E2WM7P178LEJ06W8CVYEH,8,7
61,1,object_02,object_04,533.19999998808,1,1,344.0,0.3333333333333333,1,object_07,5,1027,0,3,3,desert_5,1,memory-2step-stake-s,554,1181642,0.0-19.0-0.0-0.61,A1CUDX7TTS2W61,3QX22DUVPRXA8IOFTTHB0PBO5I3MV1,3RSDURM96E2WM7P178LEJ06W8CVYEH,1,2
62,2,object_05,object_06,485.20000004768,3,1,1336.8999999762,0.7777777777777778,1,object_07,1,1034,0,7,0,forest_5,1,memory-2step-stake-s,555,1190896,0.0-19.0-0.0-0.62,A1CUDX7TTS2W61,3QX22DUVPRXA8IOFTTHB0PBO5I3MV1,3RSDURM96E2WM7P178LEJ06W8CVYEH,3,4
63,2,object_06,object_05,744.19999998808,3,2,242.09999996424,0.4444444444444444,1,object_07,5,1054,0,4,1,forest_5,1,memory-2step-stake-s,556,1198769,0.0-19.0-0.0-0.63,A1CUDX7TTS2W61,3QX22DUVPRXA8IOFTTHB0PBO5I3MV1,3RSDURM96E2WM7P178LEJ06W8CVYEH,4,3
64,3,object_03,object_01,495.10000002384,6,2,265.80000001192,0.1111111111111111,2,object_08,5,1059,0,1,1,library_6,1,memory-2step-stake-s,557,1206350,0.0-19.0-0.0-0.64,A1CUDX7TTS2W61,3QX22DUVPRXA8IOFTTHB0PBO5I3MV1,3RSDURM96E2WM7P178LEJ06W8CVYEH,5,6
65,4,object_10,object_09,474.0,8,1,282.89999997616,0.2222222222222222,2,object_08,1,1061,0,2,2,restaurant_3,1,memory-2step-stake-s,558,1214048,0.0-19.0-0.0-0.65,A1CUDX7TTS2W61,3QX22DUVPRXA8IOFTTHB0PBO5I3MV1,3RSDURM96E2WM7P178LEJ06W8CVYEH,8,7
66,4,object_09,object_10,247.80000001192,8,2,257.5,0.1111111111111111,2,object_08,5,1066,0,1,1,restaurant_4,1,memory-2step-stake-s,559,1221627,0.0-19.0-0.0-0.66,A1CUDX7TTS2W61,3QX22DUVPRXA8IOFTTHB0PBO5I3MV1,3RSDURM96E2WM7P178LEJ06W8CVYEH,7,8
67,1,object_04,object_02,574.40000003576,1,2,281.60000002384,0.0,1,object_07,1,1066,0,0,4,desert_5,1,memory-2step-stake-s,560,1229121,0.0-19.0-0.0-0.67,A1CUDX7TTS2W61,3QX22DUVPRXA8IOFTTHB0PBO5I3MV1,3RSDURM96E2WM7P178LEJ06W8CVYEH,2,1
68,4,object_09,object_10,463.80000001192,7,1,266.09999996424,0.6666666666666666,1,object_07,5,1096,0,6,3,restaurant_4,1,memory-2step-stake-s,561,1237213,0.0-19.0-0.0-0.68,A1CUDX7TTS2W61,3QX22DUVPRXA8IOFTTHB0PBO5I3MV1,3RSDURM96E2WM7P178LEJ06W8CVYEH,7,8
69,3,object_03,object_01,301.29999995232,5,1,287.5,0.6666666666666666,1,object_07,5,1126,0,6,4,library_7,1,memory-2step-stake-s,562,1245316,0.0-19.0-0.0-0.69,A1CUDX7TTS2W61,3QX22DUVPRXA8IOFTTHB0PBO5I3MV1,3RSDURM96E2WM7P178LEJ06W8CVYEH,5,6
70,3,object_01,object_03,868.39999997616,5,2,310.20000004768,0.8888888888888888,1,object_07,5,1166,0,8,5,library_6,1,memory-2step-stake-s,563,1253646,0.0-19.0-0.0-0.70,A1CUDX7TTS2W61,3QX22DUVPRXA8IOFTTHB0PBO5I3MV1,3RSDURM96E2WM7P178LEJ06W8CVYEH,6,5
71,4,object_10,object_09,313.90000003576,8,1,316.69999998808,0.7777777777777778,2,object_08,5,1201,0,8,7,restaurant_3,1,memory-2step-stake-s,564,1261884,0.0-19.0-0.0-0.71,A1CUDX7TTS2W61,3QX22DUVPRXA8IOFTTHB0PBO5I3MV1,3RSDURM96E2WM7P178LEJ06W8CVYEH,8,7
72,2,object_05,object_06,276.20000004768,4,2,247.5,0.8888888888888888,2,object_08,5,1241,0,8,8,forest_3,1,memory-2step-stake-s,565,1270153,0.0-19.0-0.0-0.72,A1CUDX7TTS2W61,3QX22DUVPRXA8IOFTTHB0PBO5I3MV1,3RSDURM96E2WM7P178LEJ06W8CVYEH,3,4
73,1,object_04,object_02,439.19999998808,1,2,242.70000004768,0.7777777777777778,1,object_07,1,1248,0,7,9,desert_5,1,memory-2step-stake-s,566,1278325,0.0-19.0-0.0-0.73,A1CUDX7TTS2W61,3QX22DUVPRXA8IOFTTHB0PBO5I3MV1,3RSDURM96E2WM7P178LEJ06W8CVYEH,2,1
74,2,object_06,object_05,620.69999998808,3,2,337.89999997616,0.7777777777777778,1,object_07,1,1255,0,7,9,forest_3,1,memory-2step-stake-s,567,1286594,0.0-19.0-0.0-0.74,A1CUDX7TTS2W61,3QX22DUVPRXA8IOFTTHB0PBO5I3MV1,3RSDURM96E2WM7P178LEJ06W8CVYEH,4,3
75,2,object_06,object_05,664.0,3,2,276.19999998808,0.5555555555555556,1,object_07,1,1260,0,5,6,forest_2,1,memory-2step-stake-s,568,1294584,0.0-19.0-0.0-0.75,A1CUDX7TTS2W61,3QX22DUVPRXA8IOFTTHB0PBO5I3MV1,3RSDURM96E2WM7P178LEJ06W8CVYEH,4,3
76,1,object_04,object_02,800.0,1,2,298.39999997616,0.2222222222222222,1,object_07,1,1262,0,2,7,desert_5,1,memory-2step-stake-s,569,1302300,0.0-19.0-0.0-0.76,A1CUDX7TTS2W61,3QX22DUVPRXA8IOFTTHB0PBO5I3MV1,3RSDURM96E2WM7P178LEJ06W8CVYEH,2,1
77,3,object_03,object_01,548.5,5,1,238.19999998808,0.3333333333333333,1,object_07,5,1277,0,3,6,library_2,1,memory-2step-stake-s,570,1310056,0.0-19.0-0.0-0.77,A1CUDX7TTS2W61,3QX22DUVPRXA8IOFTTHB0PBO5I3MV1,3RSDURM96E2WM7P178LEJ06W8CVYEH,5,6
78,2,object_05,object_06,392.5,4,2,410.89999997616,0.3333333333333333,2,object_08,1,1280,0,2,3,forest_6,1,memory-2step-stake-s,571,1317984,0.0-19.0-0.0-0.78,A1CUDX7TTS2W61,3QX22DUVPRXA8IOFTTHB0PBO5I3MV1,3RSDURM96E2WM7P178LEJ06W8CVYEH,3,4
79,3,object_03,object_01,1128.7000000477,6,2,395.5,0.2222222222222222,2,object_08,1,1282,0,1,2,library_5,1,memory-2step-stake-s,572,1325794,0.0-19.0-0.0-0.79,A1CUDX7TTS2W61,3QX22DUVPRXA8IOFTTHB0PBO5I3MV1,3RSDURM96E2WM7P178LEJ06W8CVYEH,5,6
80,3,object_03,object_01,1111.1999999881,5,1,306.30000001192,0.2222222222222222,1,object_07,5,1292,0,2,3,library_7,1,memory-2step-stake-s,573,1333528,0.0-19.0-0.0-0.80,A1CUDX7TTS2W61,3QX22DUVPRXA8IOFTTHB0PBO5I3MV1,3RSDURM96E2WM7P178LEJ06W8CVYEH,5,6
81,2,object_05,object_06,432.30000001192,3,1,250.69999998808,0.0,1,object_07,1,1292,0,0,1,forest_3,1,memory-2step-stake-s,574,1340990,0.0-19.0-0.0-0.81,A1CUDX7TTS2W61,3QX22DUVPRXA8IOFTTHB0PBO5I3MV1,3RSDURM96E2WM7P178LEJ06W8CVYEH,3,4
82,3,object_03,object_01,770.80000001192,6,2,390.09999996424,0.1111111111111111,2,object_08,5,1297,0,1,1,library_6,1,memory-2step-stake-s,575,1348691,0.0-19.0-0.0-0.82,A1CUDX7TTS2W61,3QX22DUVPRXA8IOFTTHB0PBO5I3MV1,3RSDURM96E2WM7P178LEJ06W8CVYEH,5,6
83,3,object_03,object_01,549.5,6,2,297.10000002384,0.1111111111111111,2,object_08,5,1302,0,1,1,library_5,1,memory-2step-stake-s,576,1356299,0.0-19.0-0.0-0.83,A1CUDX7TTS2W61,3QX22DUVPRXA8IOFTTHB0PBO5I3MV1,3RSDURM96E2WM7P178LEJ06W8CVYEH,5,6
84,1,object_04,object_02,1217.8000000119,2,1,644.39999997616,0.0,2,object_08,1,1302,0,1,0,desert_7,1,memory-2step-stake-s,577,1364168,0.0-19.0-0.0-0.84,A1CUDX7TTS2W61,3QX22DUVPRXA8IOFTTHB0PBO5I3MV1,3RSDURM96E2WM7P178LEJ06W8CVYEH,2,1
85,1,object_04,object_02,368.90000003576,1,2,468.60000002384,0.1111111111111111,1,object_07,1,1303,0,1,1,desert_7,1,memory-2step-stake-s,578,1371948,0.0-19.0-0.0-0.85,A1CUDX7TTS2W61,3QX22DUVPRXA8IOFTTHB0PBO5I3MV1,3RSDURM96E2WM7P178LEJ06W8CVYEH,2,1
86,1,object_04,object_02,275.0,1,2,373.5,0.4444444444444444,1,object_07,1,1307,0,4,1,desert_1,1,memory-2step-stake-s,579,1379944,0.0-19.0-0.0-0.86,A1CUDX7TTS2W61,3QX22DUVPRXA8IOFTTHB0PBO5I3MV1,3RSDURM96E2WM7P178LEJ06W8CVYEH,2,1
87,2,object_06,object_05,312.80000001192,3,2,346.19999998808,0.4444444444444444,1,object_07,1,1311,0,4,0,forest_6,1,memory-2step-stake-s,580,1387906,0.0-19.0-0.0-0.87,A1CUDX7TTS2W61,3QX22DUVPRXA8IOFTTHB0PBO5I3MV1,3RSDURM96E2WM7P178LEJ06W8CVYEH,4,3
88,3,object_03,object_01,518.10000002384,6,2,353.80000001192,0.1111111111111111,2,object_08,1,1312,0,1,1,library_5,1,memory-2step-stake-s,581,1395573,0.0-19.0-0.0-0.88,A1CUDX7TTS2W61,3QX22DUVPRXA8IOFTTHB0PBO5I3MV1,3RSDURM96E2WM7P178LEJ06W8CVYEH,5,6
89,1,object_02,object_04,434.60000002384,1,1,262.59999996424,0.0,1,object_07,1,1312,0,0,3,desert_7,1,memory-2step-stake-s,582,1403051,0.0-19.0-0.0-0.89,A1CUDX7TTS2W61,3QX22DUVPRXA8IOFTTHB0PBO5I3MV1,3RSDURM96E2WM7P178LEJ06W8CVYEH,1,2
90,3,object_03,object_01,734.10000002384,5,1,409.10000002384,0.0,1,object_07,5,1312,0,0,0,library_2,1,memory-2step-stake-s,583,1410671,0.0-19.0-0.0-0.90,A1CUDX7TTS2W61,3QX22DUVPRXA8IOFTTHB0PBO5I3MV1,3RSDURM96E2WM7P178LEJ06W8CVYEH,5,6
91,2,object_05,object_06,703.89999997616,4,2,274.0,0.1111111111111111,2,object_08,1,1313,0,3,1,forest_3,1,memory-2step-stake-s,584,1418260,0.0-19.0-0.0-0.91,A1CUDX7TTS2W61,3QX22DUVPRXA8IOFTTHB0PBO5I3MV1,3RSDURM96E2WM7P178LEJ06W8CVYEH,3,4
92,1,object_02,object_04,532.69999998808,1,1,286.19999998808,0.2222222222222222,1,object_07,1,1315,0,2,0,desert_5,1,memory-2step-stake-s,585,1425966,0.0-19.0-0.0-0.92,A1CUDX7TTS2W61,3QX22DUVPRXA8IOFTTHB0PBO5I3MV1,3RSDURM96E2WM7P178LEJ06W8CVYEH,1,2
93,1,object_02,object_04,577.60000002384,2,2,180.0,0.0,2,object_08,1,1315,0,4,0,desert_7,1,memory-2step-stake-s,586,1433359,0.0-19.0-0.0-0.93,A1CUDX7TTS2W61,3QX22DUVPRXA8IOFTTHB0PBO5I3MV1,3RSDURM96E2WM7P178LEJ06W8CVYEH,1,2
94,2,object_05,object_06,577.5,3,1,315.5,0.4444444444444444,1,object_07,1,1319,0,4,1,forest_3,1,memory-2step-stake-s,587,1441290,0.0-19.0-0.0-0.94,A1CUDX7TTS2W61,3QX22DUVPRXA8IOFTTHB0PBO5I3MV1,3RSDURM96E2WM7P178LEJ06W8CVYEH,3,4
95,2,object_06,object_05,799.09999996424,4,1,265.70000004768,0.1111111111111111,2,object_08,1,1320,0,1,1,forest_6,1,memory-2step-stake-s,588,1448887,0.0-19.0-0.0-0.95,A1CUDX7TTS2W61,3QX22DUVPRXA8IOFTTHB0PBO5I3MV1,3RSDURM96E2WM7P178LEJ06W8CVYEH,4,3
96,1,object_02,object_04,488.20000004768,1,1,236.59999996424,0.2222222222222222,1,object_07,1,1322,0,2,2,desert_7,1,memory-2step-stake-s,589,1456542,0.0-19.0-0.0-0.96,A1CUDX7TTS2W61,3QX22DUVPRXA8IOFTTHB0PBO5I3MV1,3RSDURM96E2WM7P178LEJ06W8CVYEH,1,2
97,4,object_10,object_09,594.09999996424,8,1,283.20000004768,0.1111111111111111,2,object_08,5,1327,0,1,1,restaurant_5,1,memory-2step-stake-s,590,1464154,0.0-19.0-0.0-0.97,A1CUDX7TTS2W61,3QX22DUVPRXA8IOFTTHB0PBO5I3MV1,3RSDURM96E2WM7P178LEJ06W8CVYEH,8,7
98,3,object_03,object_01,751.0,6,2,335.5,0.1111111111111111,2,object_08,5,1332,0,0,1,library_5,1,memory-2step-stake-s,591,1471804,0.0-19.0-0.0-0.98,A1CUDX7TTS2W61,3QX22DUVPRXA8IOFTTHB0PBO5I3MV1,3RSDURM96E2WM7P178LEJ06W8CVYEH,5,6
99,4,object_09,object_10,557.69999998808,7,1,282.0,0.0,1,object_07,5,1332,0,0,1,restaurant_3,1,memory-2step-stake-s,592,1479295,0.0-19.0-0.0-0.99,A1CUDX7TTS2W61,3QX22DUVPRXA8IOFTTHB0PBO5I3MV1,3RSDURM96E2WM7P178LEJ06W8CVYEH,7,8
100,2,object_05,object_06,424.80000001192,3,1,292.19999998808,0.3333333333333333,1,object_07,1,1335,0,3,2,forest_5,1,memory-2step-stake-s,593,1487102,0.0-19.0-0.0-0.100,A1CUDX7TTS2W61,3QX22DUVPRXA8IOFTTHB0PBO5I3MV1,3RSDURM96E2WM7P178LEJ06W8CVYEH,3,4
101,4,object_10,object_09,427.0,7,2,253.0,0.2222222222222222,1,object_07,5,1345,0,2,1,restaurant_7,1,memory-2step-stake-s,594,1494780,0.0-19.0-0.0-0.101,A1CUDX7TTS2W61,3QX22DUVPRXA8IOFTTHB0PBO5I3MV1,3RSDURM96E2WM7P178LEJ06W8CVYEH,8,7
102,3,object_03,object_01,340.80000001192,6,2,537.0,0.0,2,object_08,5,1345,0,4,0,library_6,1,memory-2step-stake-s,595,1502529,0.0-19.0-0.0-0.102,A1CUDX7TTS2W61,3QX22DUVPRXA8IOFTTHB0PBO5I3MV1,3RSDURM96E2WM7P178LEJ06W8CVYEH,5,6
103,4,object_10,object_09,87.199999988079,8,1,249.19999998808,0.2222222222222222,2,object_08,5,1355,0,4,2,restaurant_5,1,memory-2step-stake-s,596,1510211,0.0-19.0-0.0-0.103,A1CUDX7TTS2W61,3QX22DUVPRXA8IOFTTHB0PBO5I3MV1,3RSDURM96E2WM7P178LEJ06W8CVYEH,8,7
104,3,object_01,object_03,345.60000002384,5,2,332.89999997616,0.3333333333333333,1,object_07,5,1370,0,3,3,library_2,1,memory-2step-stake-s,597,1518064,0.0-19.0-0.0-0.104,A1CUDX7TTS2W61,3QX22DUVPRXA8IOFTTHB0PBO5I3MV1,3RSDURM96E2WM7P178LEJ06W8CVYEH,6,5
105,2,object_06,object_05,393.0,4,1,644.20000004768,0.3333333333333333,2,object_08,1,1373,0,3,3,forest_3,1,memory-2step-stake-s,598,1526221,0.0-19.0-0.0-0.105,A1CUDX7TTS2W61,3QX22DUVPRXA8IOFTTHB0PBO5I3MV1,3RSDURM96E2WM7P178LEJ06W8CVYEH,4,3
106,2,object_05,object_06,450.89999997616,3,1,286.39999997616,0.4444444444444444,1,object_07,1,1377,0,4,4,forest_3,1,memory-2step-stake-s,599,1534134,0.0-19.0-0.0-0.106,A1CUDX7TTS2W61,3QX22DUVPRXA8IOFTTHB0PBO5I3MV1,3RSDURM96E2WM7P178LEJ06W8CVYEH,3,4
107,4,object_09,object_10,506.60000002384,7,1,269.10000002384,0.1111111111111111,1,object_07,5,1382,0,1,5,restaurant_5,1,memory-2step-stake-s,600,1541717,0.0-19.0-0.0-0.107,A1CUDX7TTS2W61,3QX22DUVPRXA8IOFTTHB0PBO5I3MV1,3RSDURM96E2WM7P178LEJ06W8CVYEH,7,8
108,1,object_04,object_02,643.30000001192,1,2,268.89999997616,0.1111111111111111,1,object_07,1,1383,0,1,4,desert_7,1,memory-2step-stake-s,601,1549303,0.0-19.0-0.0-0.108,A1CUDX7TTS2W61,3QX22DUVPRXA8IOFTTHB0PBO5I3MV1,3RSDURM96E2WM7P178LEJ06W8CVYEH,2,1
109,1,object_04,object_02,455.89999997616,2,1,259.19999998808,0.2222222222222222,2,object_08,1,1385,0,0,2,desert_1,1,memory-2step-stake-s,602,1556976,0.0-19.0-0.0-0.109,A1CUDX7TTS2W61,3QX22DUVPRXA8IOFTTHB0PBO5I3MV1,3RSDURM96E2WM7P178LEJ06W8CVYEH,2,1
110,4,object_09,object_10,552.69999998808,7,1,260.5,0.4444444444444444,1,object_07,5,1405,0,4,3,restaurant_3,1,memory-2step-stake-s,603,1564851,0.0-19.0-0.0-0.110,A1CUDX7TTS2W61,3QX22DUVPRXA8IOFTTHB0PBO5I3MV1,3RSDURM96E2WM7P178LEJ06W8CVYEH,7,8
111,1,object_02,object_04,707.39999997616,2,2,237.69999998808,0.5555555555555556,2,object_08,1,1410,0,0,5,desert_7,1,memory-2step-stake-s,604,1572813,0.0-19.0-0.0-0.111,A1CUDX7TTS2W61,3QX22DUVPRXA8IOFTTHB0PBO5I3MV1,3RSDURM96E2WM7P178LEJ06W8CVYEH,1,2
112,2,object_06,object_05,434.39999997616,3,2,238.10000002384,0.4444444444444444,1,object_07,5,1430,0,4,8,forest_6,1,memory-2step-stake-s,605,1580677,0.0-19.0-0.0-0.112,A1CUDX7TTS2W61,3QX22DUVPRXA8IOFTTHB0PBO5I3MV1,3RSDURM96E2WM7P178LEJ06W8CVYEH,4,3
113,2,object_05,object_06,602.79999995232,3,1,250.80000001192,0.6666666666666666,1,object_07,1,1436,0,6,8,forest_5,1,memory-2step-stake-s,606,1588750,0.0-19.0-0.0-0.113,A1CUDX7TTS2W61,3QX22DUVPRXA8IOFTTHB0PBO5I3MV1,3RSDURM96E2WM7P178LEJ06W8CVYEH,3,4
114,3,object_03,object_01,811.0,6,2,262.60000002384,0.7777777777777778,2,object_08,1,1443,0,7,7,library_2,1,memory-2step-stake-s,607,1596941,0.0-19.0-0.0-0.114,A1CUDX7TTS2W61,3QX22DUVPRXA8IOFTTHB0PBO5I3MV1,3RSDURM96E2WM7P178LEJ06W8CVYEH,5,6
115,4,object_10,object_09,588.0,8,1,196.40000003576,0.4444444444444444,2,object_08,5,1463,0,4,4,restaurant_5,1,memory-2step-stake-s,608,1604775,0.0-19.0-0.0-0.115,A1CUDX7TTS2W61,3QX22DUVPRXA8IOFTTHB0PBO5I3MV1,3RSDURM96E2WM7P178LEJ06W8CVYEH,8,7
116,3,object_03,object_01,794.19999998808,6,2,269.39999997616,0.5555555555555556,2,object_08,5,1488,0,2,5,library_5,1,memory-2step-stake-s,609,1612766,0.0-19.0-0.0-0.116,A1CUDX7TTS2W61,3QX22DUVPRXA8IOFTTHB0PBO5I3MV1,3RSDURM96E2WM7P178LEJ06W8CVYEH,5,6
117,3,object_03,object_01,490.20000004768,5,1,259.69999998808,0.0,1,object_07,5,1488,0,0,8,library_2,1,memory-2step-stake-s,610,1620241,0.0-19.0-0.0-0.117,A1CUDX7TTS2W61,3QX22DUVPRXA8IOFTTHB0PBO5I3MV1,3RSDURM96E2WM7P178LEJ06W8CVYEH,5,6
118,2,object_05,object_06,729.0,4,2,275.60000002384,0.4444444444444444,2,object_08,5,1508,0,1,4,forest_6,1,memory-2step-stake-s,611,1628131,0.0-19.0-0.0-0.118,A1CUDX7TTS2W61,3QX22DUVPRXA8IOFTTHB0PBO5I3MV1,3RSDURM96E2WM7P178LEJ06W8CVYEH,3,4
119,1,object_04,object_02,630.19999998808,2,1,265.10000002384,0.3333333333333333,2,object_08,1,1511,0,1,3,desert_5,1,memory-2step-stake-s,612,1635920,0.0-19.0-0.0-0.119,A1CUDX7TTS2W61,3QX22DUVPRXA8IOFTTHB0PBO5I3MV1,3RSDURM96E2WM7P178LEJ06W8CVYEH,2,1
120,3,object_01,object_03,88.600000023842,5,2,380.39999997616,0.1111111111111111,1,object_07,5,1516,0,1,3,library_6,1,memory-2step-stake-s,613,1643611,0.0-19.0-0.0-0.120,A1CUDX7TTS2W61,3QX22DUVPRXA8IOFTTHB0PBO5I3MV1,3RSDURM96E2WM7P178LEJ06W8CVYEH,6,5
121,1,object_04,object_02,469.30000001192,2,1,255.09999996424,0.3333333333333333,2,object_08,1,1519,0,0,3,desert_2,1,memory-2step-stake-s,614,1651393,0.0-19.0-0.0-0.121,A1CUDX7TTS2W61,3QX22DUVPRXA8IOFTTHB0PBO5I3MV1,3RSDURM96E2WM7P178LEJ06W8CVYEH,2,1
122,3,object_03,object_01,182.80000001192,5,1,274.19999998808,0.1111111111111111,1,object_07,1,1520,0,1,3,library_5,1,memory-2step-stake-s,615,1658979,0.0-19.0-0.0-0.122,A1CUDX7TTS2W61,3QX22DUVPRXA8IOFTTHB0PBO5I3MV1,3RSDURM96E2WM7P178LEJ06W8CVYEH,5,6
123,2,object_06,object_05,717.0,3,2,280.39999997616,0.4444444444444444,1,object_07,1,1524,0,4,4,forest_5,1,memory-2step-stake-s,616,1666886,0.0-19.0-0.0-0.123,A1CUDX7TTS2W61,3QX22DUVPRXA8IOFTTHB0PBO5I3MV1,3RSDURM96E2WM7P178LEJ06W8CVYEH,4,3
124,1,object_02,object_04,648.5,1,1,307.39999997616,0.5555555555555556,1,object_07,5,1549,0,5,3,desert_2,1,memory-2step-stake-s,617,1674911,0.0-19.0-0.0-0.124,A1CUDX7TTS2W61,3QX22DUVPRXA8IOFTTHB0PBO5I3MV1,3RSDURM96E2WM7P178LEJ06W8CVYEH,1,2
125,2,object_06,object_05,388.5,3,2,246.0,0.2222222222222222,1,object_07,1,1551,0,2,2,forest_6,1,memory-2step-stake-s,618,1682587,0.0-19.0-0.0-0.125,A1CUDX7TTS2W61,3QX22DUVPRXA8IOFTTHB0PBO5I3MV1,3RSDURM96E2WM7P178LEJ06W8CVYEH,4,3
126,3,object_01,object_03,699.79999995232,6,1,655.5,0.3333333333333333,2,object_08,5,1566,0,1,3,library_6,1,memory-2step-stake-s,619,1690757,0.0-19.0-0.0-0.126,A1CUDX7TTS2W61,3QX22DUVPRXA8IOFTTHB0PBO5I3MV1,3RSDURM96E2WM7P178LEJ06W8CVYEH,6,5
127,1,object_04,object_02,586.80000001192,1,2,237.5,0.1111111111111111,1,object_07,5,1571,0,1,2,desert_1,1,memory-2step-stake-s,620,1698320,0.0-19.0-0.0-0.127,A1CUDX7TTS2W61,3QX22DUVPRXA8IOFTTHB0PBO5I3MV1,3RSDURM96E2WM7P178LEJ06W8CVYEH,2,1
128,2,object_05,object_06,607.10000002384,3,1,1332.3999999762,0.1111111111111111,1,object_07,1,1572,0,1,4,forest_6,1,memory-2step-stake-s,622,1710477,0.0-19.0-0.1-0.128,A1CUDX7TTS2W61,3QX22DUVPRXA8IOFTTHB0PBO5I3MV1,3RSDURM96E2WM7P178LEJ06W8CVYEH,3,4
129,1,object_02,object_04,624.0,1,1,272.60000002384,0.1111111111111111,1,object_07,1,1573,0,1,4,desert_5,1,memory-2step-stake-s,623,1718093,0.0-19.0-0.1-0.129,A1CUDX7TTS2W61,3QX22DUVPRXA8IOFTTHB0PBO5I3MV1,3RSDURM96E2WM7P178LEJ06W8CVYEH,1,2
130,4,object_09,object_10,617.89999997616,8,2,323.30000001192,0.6666666666666666,2,object_08,5,1603,0,1,6,restaurant_3,1,memory-2step-stake-s,624,1726237,0.0-19.0-0.1-0.130,A1CUDX7TTS2W61,3QX22DUVPRXA8IOFTTHB0PBO5I3MV1,3RSDURM96E2WM7P178LEJ06W8CVYEH,7,8
131,4,object_09,object_10,990.89999997616,8,2,216.40000003576,0.7777777777777778,2,object_08,5,1638,0,0,7,restaurant_4,1,memory-2step-stake-s,625,1734391,0.0-19.0-0.1-0.131,A1CUDX7TTS2W61,3QX22DUVPRXA8IOFTTHB0PBO5I3MV1,3RSDURM96E2WM7P178LEJ06W8CVYEH,7,8
132,2,object_06,object_05,457.89999997616,4,1,236.0,0.6666666666666666,2,object_08,1,1644,0,2,6,forest_5,1,memory-2step-stake-s,626,1742444,0.0-19.0-0.1-0.132,A1CUDX7TTS2W61,3QX22DUVPRXA8IOFTTHB0PBO5I3MV1,3RSDURM96E2WM7P178LEJ06W8CVYEH,4,3
133,3,object_03,object_01,572.39999997616,6,2,374.80000001192,0.5555555555555556,2,object_08,5,1669,0,1,5,library_6,1,memory-2step-stake-s,627,1750554,0.0-19.0-0.1-0.133,A1CUDX7TTS2W61,3QX22DUVPRXA8IOFTTHB0PBO5I3MV1,3RSDURM96E2WM7P178LEJ06W8CVYEH,5,6
134,3,object_01,object_03,524.5,6,1,334.5,0.6666666666666666,2,object_08,5,1699,0,1,6,library_6,1,memory-2step-stake-s,628,1758721,0.0-19.0-0.1-0.134,A1CUDX7TTS2W61,3QX22DUVPRXA8IOFTTHB0PBO5I3MV1,3RSDURM96E2WM7P178LEJ06W8CVYEH,6,5
135,1,object_04,object_02,551.09999996424,2,1,290.40000003576,0.7777777777777778,2,object_08,1,1706,0,0,7,desert_1,1,memory-2step-stake-s,629,1766929,0.0-19.0-0.1-0.135,A1CUDX7TTS2W61,3QX22DUVPRXA8IOFTTHB0PBO5I3MV1,3RSDURM96E2WM7P178LEJ06W8CVYEH,2,1
136,3,object_03,object_01,1101.8000000119,5,1,407.09999996424,0.1111111111111111,1,object_07,5,1711,0,1,6,library_7,1,memory-2step-stake-s,630,1774650,0.0-19.0-0.1-0.136,A1CUDX7TTS2W61,3QX22DUVPRXA8IOFTTHB0PBO5I3MV1,3RSDURM96E2WM7P178LEJ06W8CVYEH,5,6
137,2,object_06,object_05,669.40000003576,4,1,272.39999997616,0.7777777777777778,2,object_08,1,1718,0,1,7,forest_6,1,memory-2step-stake-s,631,1782859,0.0-19.0-0.1-0.137,A1CUDX7TTS2W61,3QX22DUVPRXA8IOFTTHB0PBO5I3MV1,3RSDURM96E2WM7P178LEJ06W8CVYEH,4,3
138,2,object_06,object_05,604.19999998808,4,1,278.80000001192,0.8888888888888888,2,object_08,1,1726,0,3,8,forest_3,1,memory-2step-stake-s,632,1791162,0.0-19.0-0.1-0.138,A1CUDX7TTS2W61,3QX22DUVPRXA8IOFTTHB0PBO5I3MV1,3RSDURM96E2WM7P178LEJ06W8CVYEH,4,3
139,4,object_09,object_10,452.59999996424,8,2,334.59999996424,0.7777777777777778,2,object_08,5,1761,0,3,7,restaurant_7,1,memory-2step-stake-s,633,1799415,0.0-19.0-0.1-0.139,A1CUDX7TTS2W61,3QX22DUVPRXA8IOFTTHB0PBO5I3MV1,3RSDURM96E2WM7P178LEJ06W8CVYEH,7,8
140,4,object_10,object_09,450.19999998808,8,1,263.10000002384,0.5555555555555556,2,object_08,5,1786,0,2,5,restaurant_4,1,memory-2step-stake-s,634,1807395,0.0-19.0-0.1-0.140,A1CUDX7TTS2W61,3QX22DUVPRXA8IOFTTHB0PBO5I3MV1,3RSDURM96E2WM7P178LEJ06W8CVYEH,8,7
141,4,object_09,object_10,437.30000001192,8,2,920.10000002384,0.5555555555555556,2,object_08,5,1811,0,1,5,restaurant_4,1,memory-2step-stake-s,635,1816046,0.0-19.0-0.1-0.141,A1CUDX7TTS2W61,3QX22DUVPRXA8IOFTTHB0PBO5I3MV1,3RSDURM96E2WM7P178LEJ06W8CVYEH,7,8
142,2,object_06,object_05,649.39999997616,4,1,796.40000003576,0.3333333333333333,2,object_08,1,1814,0,1,3,forest_5,1,memory-2step-stake-s,636,1824363,0.0-19.0-0.1-0.142,A1CUDX7TTS2W61,3QX22DUVPRXA8IOFTTHB0PBO5I3MV1,3RSDURM96E2WM7P178LEJ06W8CVYEH,4,3
143,4,object_09,object_10,861.80000001192,8,2,439.80000001192,0.1111111111111111,2,object_08,5,1819,0,0,1,restaurant_7,1,memory-2step-stake-s,637,1832117,0.0-19.0-0.1-0.143,A1CUDX7TTS2W61,3QX22DUVPRXA8IOFTTHB0PBO5I3MV1,3RSDURM96E2WM7P178LEJ06W8CVYEH,7,8
144,4,object_09,object_10,699.19999998808,7,1,406.10000002384,0.1111111111111111,1,object_07,5,1824,0,1,1,restaurant_4,1,memory-2step-stake-s,638,1839837,0.0-19.0-0.1-0.144,A1CUDX7TTS2W61,3QX22DUVPRXA8IOFTTHB0PBO5I3MV1,3RSDURM96E2WM7P178LEJ06W8CVYEH,7,8
145,1,object_02,object_04,699.80000001192,2,2,493.30000001192,0.1111111111111111,2,object_08,1,1825,0,2,1,desert_2,1,memory-2step-stake-s,639,1847644,0.0-19.0-0.1-0.145,A1CUDX7TTS2W61,3QX22DUVPRXA8IOFTTHB0PBO5I3MV1,3RSDURM96E2WM7P178LEJ06W8CVYEH,1,2
146,4,object_09,object_10,781.5,7,1,248.80000001192,0.2222222222222222,1,object_07,5,1835,0,2,2,restaurant_3,1,memory-2step-stake-s,640,1855306,0.0-19.0-0.1-0.146,A1CUDX7TTS2W61,3QX22DUVPRXA8IOFTTHB0PBO5I3MV1,3RSDURM96E2WM7P178LEJ06W8CVYEH,7,8
147,4,object_09,object_10,652.5,7,1,230.80000001192,0.1111111111111111,1,object_07,5,1840,0,1,3,restaurant_3,1,memory-2step-stake-s,641,1862854,0.0-19.0-0.1-0.147,A1CUDX7TTS2W61,3QX22DUVPRXA8IOFTTHB0PBO5I3MV1,3RSDURM96E2WM7P178LEJ06W8CVYEH,7,8
148,1,object_02,object_04,571.10000002384,1,1,238.10000002384,0.2222222222222222,1,object_07,1,1842,0,2,4,desert_7,1,memory-2step-stake-s,642,1870504,0.0-19.0-0.1-0.148,A1CUDX7TTS2W61,3QX22DUVPRXA8IOFTTHB0PBO5I3MV1,3RSDURM96E2WM7P178LEJ06W8CVYEH,1,2
149,3,object_03,object_01,856.69999998808,6,2,268.70000004768,0.4444444444444444,2,object_08,5,1862,0,1,4,library_5,1,memory-2step-stake-s,643,1878396,0.0-19.0-0.1-0.149,A1CUDX7TTS2W61,3QX22DUVPRXA8IOFTTHB0PBO5I3MV1,3RSDURM96E2WM7P178LEJ06W8CVYEH,5,6
150,1,object_02,object_04,468.19999998808,2,2,80.600000023842,0.6666666666666666,2,object_08,1,1868,0,2,6,desert_5,1,memory-2step-stake-s,644,1886294,0.0-19.0-0.1-0.150,A1CUDX7TTS2W61,3QX22DUVPRXA8IOFTTHB0PBO5I3MV1,3RSDURM96E2WM7P178LEJ06W8CVYEH,1,2
151,2,object_06,object_05,571.90000003576,4,1,175.30000001192,0.5555555555555556,2,object_08,1,1873,0,5,5,forest_3,1,memory-2step-stake-s,645,1894193,0.0-19.0-0.1-0.151,A1CUDX7TTS2W61,3QX22DUVPRXA8IOFTTHB0PBO5I3MV1,3RSDURM96E2WM7P178LEJ06W8CVYEH,4,3
152,2,object_06,object_05,639.30000001192,4,1,408.89999997616,0.2222222222222222,2,object_08,5,1883,0,4,2,forest_5,1,memory-2step-stake-s,646,1902023,0.0-19.0-0.1-0.152,A1CUDX7TTS2W61,3QX22DUVPRXA8IOFTTHB0PBO5I3MV1,3RSDURM96E2WM7P178LEJ06W8CVYEH,4,3
153,1,object_04,object_02,568.5,2,1,258.29999995232,0.4444444444444444,2,object_08,1,1887,0,6,4,desert_1,1,memory-2step-stake-s,647,1909900,0.0-19.0-0.1-0.153,A1CUDX7TTS2W61,3QX22DUVPRXA8IOFTTHB0PBO5I3MV1,3RSDURM96E2WM7P178LEJ06W8CVYEH,2,1
154,4,object_09,object_10,770.89999997616,8,2,286.30000001192,0.7777777777777778,2,object_08,1,1894,0,8,7,restaurant_7,1,memory-2step-stake-s,648,1918118,0.0-19.0-0.1-0.154,A1CUDX7TTS2W61,3QX22DUVPRXA8IOFTTHB0PBO5I3MV1,3RSDURM96E2WM7P178LEJ06W8CVYEH,7,8
155,2,object_06,object_05,530.69999998808,4,1,196.89999997616,0.5555555555555556,2,object_08,1,1899,0,7,5,forest_5,1,memory-2step-stake-s,649,1926055,0.0-19.0-0.1-0.155,A1CUDX7TTS2W61,3QX22DUVPRXA8IOFTTHB0PBO5I3MV1,3RSDURM96E2WM7P178LEJ06W8CVYEH,4,3
156,2,object_05,object_06,665.19999998808,4,2,315.80000001192,0.2222222222222222,2,object_08,5,1909,0,7,2,forest_6,1,memory-2step-stake-s,650,1933785,0.0-19.0-0.1-0.156,A1CUDX7TTS2W61,3QX22DUVPRXA8IOFTTHB0PBO5I3MV1,3RSDURM96E2WM7P178LEJ06W8CVYEH,3,4
157,1,object_02,object_04,535.80000001192,2,2,299.90000003576,0.2222222222222222,2,object_08,1,1911,0,7,2,desert_1,1,memory-2step-stake-s,651,1941500,0.0-19.0-0.1-0.157,A1CUDX7TTS2W61,3QX22DUVPRXA8IOFTTHB0PBO5I3MV1,3RSDURM96E2WM7P178LEJ06W8CVYEH,1,2
158,2,object_05,object_06,628.5,4,2,287.30000001192,0.1111111111111111,2,object_08,5,1916,0,7,1,forest_3,1,memory-2step-stake-s,652,1949104,0.0-19.0-0.1-0.158,A1CUDX7TTS2W61,3QX22DUVPRXA8IOFTTHB0PBO5I3MV1,3RSDURM96E2WM7P178LEJ06W8CVYEH,3,4
159,3,object_01,object_03,720.19999998808,5,2,347.10000002384,0.7777777777777778,1,object_07,5,1951,0,7,1,library_7,1,memory-2step-stake-s,653,1957370,0.0-19.0-0.1-0.159,A1CUDX7TTS2W61,3QX22DUVPRXA8IOFTTHB0PBO5I3MV1,3RSDURM96E2WM7P178LEJ06W8CVYEH,6,5
160,1,object_02,object_04,389.89999997616,1,1,280.09999996424,0.7777777777777778,1,object_07,1,1958,0,7,3,desert_5,1,memory-2step-stake-s,654,1965576,0.0-19.0-0.1-0.160,A1CUDX7TTS2W61,3QX22DUVPRXA8IOFTTHB0PBO5I3MV1,3RSDURM96E2WM7P178LEJ06W8CVYEH,1,2
161,2,object_05,object_06,638.5,3,1,298.70000004768,0.8888888888888888,1,object_07,1,1966,0,8,3,forest_2,1,memory-2step-stake-s,655,1973900,0.0-19.0-0.1-0.161,A1CUDX7TTS2W61,3QX22DUVPRXA8IOFTTHB0PBO5I3MV1,3RSDURM96E2WM7P178LEJ06W8CVYEH,3,4
162,3,object_03,object_01,635.90000003576,5,1,312.5,0.7777777777777778,1,object_07,1,1973,0,7,1,library_6,1,memory-2step-stake-s,656,1982131,0.0-19.0-0.1-0.162,A1CUDX7TTS2W61,3QX22DUVPRXA8IOFTTHB0PBO5I3MV1,3RSDURM96E2WM7P178LEJ06W8CVYEH,5,6
163,4,object_10,object_09,1004.8999999762,7,2,352.5,0.5555555555555556,1,object_07,1,1978,0,5,1,restaurant_7,1,memory-2step-stake-s,657,1990202,0.0-19.0-0.1-0.163,A1CUDX7TTS2W61,3QX22DUVPRXA8IOFTTHB0PBO5I3MV1,3RSDURM96E2WM7P178LEJ06W8CVYEH,8,7
164,4,object_10,object_09,863.0,7,2,247.30000001192,0.6666666666666666,1,object_07,5,2008,0,6,2,restaurant_5,1,memory-2step-stake-s,658,1998292,0.0-19.0-0.1-0.164,A1CUDX7TTS2W61,3QX22DUVPRXA8IOFTTHB0PBO5I3MV1,3RSDURM96E2WM7P178LEJ06W8CVYEH,8,7
165,4,object_09,object_10,539.0,7,1,276.10000002384,0.5555555555555556,1,object_07,5,2033,0,5,1,restaurant_7,1,memory-2step-stake-s,659,2006295,0.0-19.0-0.1-0.165,A1CUDX7TTS2W61,3QX22DUVPRXA8IOFTTHB0PBO5I3MV1,3RSDURM96E2WM7P178LEJ06W8CVYEH,7,8
166,1,object_04,object_02,376.0,1,2,386.20000004768,0.6666666666666666,1,object_07,1,2039,0,6,1,desert_2,1,memory-2step-stake-s,660,2014502,0.0-19.0-0.1-0.166,A1CUDX7TTS2W61,3QX22DUVPRXA8IOFTTHB0PBO5I3MV1,3RSDURM96E2WM7P178LEJ06W8CVYEH,2,1
167,1,object_02,object_04,385.0,1,1,256.39999997616,0.8888888888888888,1,object_07,1,2047,0,8,1,desert_7,1,memory-2step-stake-s,661,2022800,0.0-19.0-0.1-0.167,A1CUDX7TTS2W61,3QX22DUVPRXA8IOFTTHB0PBO5I3MV1,3RSDURM96E2WM7P178LEJ06W8CVYEH,1,2
168,3,object_03,object_01,455.80000001192,5,1,282.79999995232,0.7777777777777778,1,object_07,5,2082,0,7,1,library_7,1,memory-2step-stake-s,662,2031008,0.0-19.0-0.1-0.168,A1CUDX7TTS2W61,3QX22DUVPRXA8IOFTTHB0PBO5I3MV1,3RSDURM96E2WM7P178LEJ06W8CVYEH,5,6
169,2,object_05,object_06,408.29999995232,3,1,195.39999997616,0.4444444444444444,1,object_07,1,2086,0,4,2,forest_6,1,memory-2step-stake-s,663,2038817,0.0-19.0-0.1-0.169,A1CUDX7TTS2W61,3QX22DUVPRXA8IOFTTHB0PBO5I3MV1,3RSDURM96E2WM7P178LEJ06W8CVYEH,3,4
170,4,object_10,object_09,504.10000002384,7,2,218.80000001192,0.1111111111111111,1,object_07,5,2091,0,1,4,restaurant_5,1,memory-2step-stake-s,664,2046364,0.0-19.0-0.1-0.170,A1CUDX7TTS2W61,3QX22DUVPRXA8IOFTTHB0PBO5I3MV1,3RSDURM96E2WM7P178LEJ06W8CVYEH,8,7
171,3,object_01,object_03,850.09999996424,6,1,269.19999998808,0.1111111111111111,2,object_08,5,2096,0,2,1,library_6,1,memory-2step-stake-s,665,2053949,0.0-19.0-0.1-0.171,A1CUDX7TTS2W61,3QX22DUVPRXA8IOFTTHB0PBO5I3MV1,3RSDURM96E2WM7P178LEJ06W8CVYEH,6,5
172,1,object_02,object_04,602.80000001192,2,2,276.19999998808,0.2222222222222222,2,object_08,5,2106,0,4,2,desert_2,1,memory-2step-stake-s,666,2061641,0.0-19.0-0.1-0.172,A1CUDX7TTS2W61,3QX22DUVPRXA8IOFTTHB0PBO5I3MV1,3RSDURM96E2WM7P178LEJ06W8CVYEH,1,2
173,1,object_04,object_02,399.69999998808,2,1,315.09999996424,0.1111111111111111,2,object_08,1,2107,0,3,1,desert_2,1,memory-2step-stake-s,667,2069280,0.0-19.0-0.1-0.173,A1CUDX7TTS2W61,3QX22DUVPRXA8IOFTTHB0PBO5I3MV1,3RSDURM96E2WM7P178LEJ06W8CVYEH,2,1
174,1,object_04,object_02,856.60000002384,1,2,425.5,0.4444444444444444,1,object_07,1,2111,0,4,5,desert_2,1,memory-2step-stake-s,668,2077324,0.0-19.0-0.1-0.174,A1CUDX7TTS2W61,3QX22DUVPRXA8IOFTTHB0PBO5I3MV1,3RSDURM96E2WM7P178LEJ06W8CVYEH,2,1
175,1,object_04,object_02,379.79999995232,1,2,238.5,0.5555555555555556,1,object_07,1,2116,0,5,4,desert_5,1,memory-2step-stake-s,669,2085280,0.0-19.0-0.1-0.175,A1CUDX7TTS2W61,3QX22DUVPRXA8IOFTTHB0PBO5I3MV1,3RSDURM96E2WM7P178LEJ06W8CVYEH,2,1
176,3,object_03,object_01,985.5,6,2,378.79999995232,0.5555555555555556,2,object_08,5,2141,0,6,5,library_2,1,memory-2step-stake-s,670,2093382,0.0-19.0-0.1-0.176,A1CUDX7TTS2W61,3QX22DUVPRXA8IOFTTHB0PBO5I3MV1,3RSDURM96E2WM7P178LEJ06W8CVYEH,5,6
177,1,object_04,object_02,435.5,2,1,254.59999996424,0.3333333333333333,2,object_08,1,2144,0,9,3,desert_1,1,memory-2step-stake-s,671,2101149,0.0-19.0-0.1-0.177,A1CUDX7TTS2W61,3QX22DUVPRXA8IOFTTHB0PBO5I3MV1,3RSDURM96E2WM7P178LEJ06W8CVYEH,2,1
178,1,object_04,object_02,330.80000001192,1,2,253.19999998808,0.4444444444444444,1,object_07,1,2148,0,4,7,desert_1,1,memory-2step-stake-s,672,2109030,0.0-19.0-0.1-0.178,A1CUDX7TTS2W61,3QX22DUVPRXA8IOFTTHB0PBO5I3MV1,3RSDURM96E2WM7P178LEJ06W8CVYEH,2,1
179,2,object_06,object_05,649.39999997616,4,1,269.90000003576,0.6666666666666666,2,object_08,1,2154,0,1,6,forest_2,1,memory-2step-stake-s,673,2117124,0.0-19.0-0.1-0.179,A1CUDX7TTS2W61,3QX22DUVPRXA8IOFTTHB0PBO5I3MV1,3RSDURM96E2WM7P178LEJ06W8CVYEH,4,3
180,2,object_05,object_06,420.90000003576,4,2,488.0,0.6666666666666666,2,object_08,1,2160,0,1,6,forest_2,1,memory-2step-stake-s,674,2125440,0.0-19.0-0.1-0.180,A1CUDX7TTS2W61,3QX22DUVPRXA8IOFTTHB0PBO5I3MV1,3RSDURM96E2WM7P178LEJ06W8CVYEH,3,4
181,3,object_03,object_01,871.5,6,2,282.09999996424,0.5555555555555556,2,object_08,5,2185,0,0,5,library_7,1,memory-2step-stake-s,675,2133441,0.0-19.0-0.1-0.181,A1CUDX7TTS2W61,3QX22DUVPRXA8IOFTTHB0PBO5I3MV1,3RSDURM96E2WM7P178LEJ06W8CVYEH,5,6
182,1,object_02,object_04,974.79999995232,2,2,769.19999998808,0.4444444444444444,2,object_08,1,2189,0,3,4,desert_5,1,memory-2step-stake-s,676,2141833,0.0-19.0-0.1-0.182,A1CUDX7TTS2W61,3QX22DUVPRXA8IOFTTHB0PBO5I3MV1,3RSDURM96E2WM7P178LEJ06W8CVYEH,1,2
183,2,object_05,object_06,734.5,4,2,361.69999998808,0.3333333333333333,2,object_08,1,2192,0,2,3,forest_5,1,memory-2step-stake-s,677,2149711,0.0-19.0-0.1-0.183,A1CUDX7TTS2W61,3QX22DUVPRXA8IOFTTHB0PBO5I3MV1,3RSDURM96E2WM7P178LEJ06W8CVYEH,3,4
184,2,object_05,object_06,682.69999998808,3,1,251.0,0.5555555555555556,1,object_07,1,2197,0,5,6,forest_2,1,memory-2step-stake-s,678,2157680,0.0-19.0-0.1-0.184,A1CUDX7TTS2W61,3QX22DUVPRXA8IOFTTHB0PBO5I3MV1,3RSDURM96E2WM7P178LEJ06W8CVYEH,3,4
185,3,object_03,object_01,664.39999997616,5,1,242.5,0.5555555555555556,1,object_07,5,2222,0,5,8,library_2,1,memory-2step-stake-s,679,2165644,0.0-19.0-0.1-0.185,A1CUDX7TTS2W61,3QX22DUVPRXA8IOFTTHB0PBO5I3MV1,3RSDURM96E2WM7P178LEJ06W8CVYEH,5,6
186,3,object_03,object_01,571.19999998808,5,1,240.40000003576,0.7777777777777778,1,object_07,5,2257,0,7,9,library_2,1,memory-2step-stake-s,680,2173802,0.0-19.0-0.1-0.186,A1CUDX7TTS2W61,3QX22DUVPRXA8IOFTTHB0PBO5I3MV1,3RSDURM96E2WM7P178LEJ06W8CVYEH,5,6
187,4,object_10,object_09,526.90000003576,7,2,217.89999997616,0.6666666666666666,1,object_07,5,2287,0,6,7,restaurant_5,1,memory-2step-stake-s,681,2181845,0.0-19.0-0.1-0.187,A1CUDX7TTS2W61,3QX22DUVPRXA8IOFTTHB0PBO5I3MV1,3RSDURM96E2WM7P178LEJ06W8CVYEH,8,7
188,4,object_09,object_10,393.80000001192,7,1,540.10000002384,1.0,1,object_07,5,2332,0,9,9,restaurant_5,1,memory-2step-stake-s,682,2190511,0.0-19.0-0.1-0.188,A1CUDX7TTS2W61,3QX22DUVPRXA8IOFTTHB0PBO5I3MV1,3RSDURM96E2WM7P178LEJ06W8CVYEH,7,8
189,3,object_03,object_01,481.39999997616,5,1,386.80000001192,0.6666666666666666,1,object_07,5,2362,0,6,7,library_6,1,memory-2step-stake-s,683,2198728,0.0-19.0-0.1-0.189,A1CUDX7TTS2W61,3QX22DUVPRXA8IOFTTHB0PBO5I3MV1,3RSDURM96E2WM7P178LEJ06W8CVYEH,5,6
190,4,object_09,object_10,456.0,7,1,697.40000003576,0.8888888888888888,1,object_07,5,2402,0,8,6,restaurant_5,1,memory-2step-stake-s,684,2207455,0.0-19.0-0.1-0.190,A1CUDX7TTS2W61,3QX22DUVPRXA8IOFTTHB0PBO5I3MV1,3RSDURM96E2WM7P178LEJ06W8CVYEH,7,8
191,3,object_03,object_01,625.39999997616,5,1,364.5,0.4444444444444444,1,object_07,5,2422,0,4,3,library_5,1,memory-2step-stake-s,685,2215433,0.0-19.0-0.1-0.191,A1CUDX7TTS2W61,3QX22DUVPRXA8IOFTTHB0PBO5I3MV1,3RSDURM96E2WM7P178LEJ06W8CVYEH,5,6
192,1,object_04,object_02,414.10000002384,1,2,640.5,0.5555555555555556,1,object_07,1,2427,0,5,2,desert_7,1,memory-2step-stake-s,686,2223793,0.0-19.0-0.1-0.192,A1CUDX7TTS2W61,3QX22DUVPRXA8IOFTTHB0PBO5I3MV1,3RSDURM96E2WM7P178LEJ06W8CVYEH,2,1
193,3,object_01,object_03,615.5,5,2,331.09999996424,0.5555555555555556,1,object_07,5,2452,0,5,1,library_7,1,memory-2step-stake-s,687,2231843,0.0-19.0-0.1-0.193,A1CUDX7TTS2W61,3QX22DUVPRXA8IOFTTHB0PBO5I3MV1,3RSDURM96E2WM7P178LEJ06W8CVYEH,6,5
194,1,object_02,object_04,589.80000001192,1,1,273.5,0.8888888888888888,1,object_07,1,2460,0,8,2,desert_2,1,memory-2step-stake-s,688,2240160,0.0-19.0-0.1-0.194,A1CUDX7TTS2W61,3QX22DUVPRXA8IOFTTHB0PBO5I3MV1,3RSDURM96E2WM7P178LEJ06W8CVYEH,1,2
195,4,object_09,object_10,849.30000001192,7,1,810.30000001192,0.8888888888888888,1,object_07,5,2500,0,8,2,restaurant_7,1,memory-2step-stake-s,689,2249001,0.0-19.0-0.1-0.195,A1CUDX7TTS2W61,3QX22DUVPRXA8IOFTTHB0PBO5I3MV1,3RSDURM96E2WM7P178LEJ06W8CVYEH,7,8
196,2,object_05,object_06,744.30000001192,3,1,355.69999998808,0.8888888888888888,1,object_07,1,2508,0,8,0,forest_2,1,memory-2step-stake-s,690,2257375,0.0-19.0-0.1-0.196,A1CUDX7TTS2W61,3QX22DUVPRXA8IOFTTHB0PBO5I3MV1,3RSDURM96E2WM7P178LEJ06W8CVYEH,3,4
197,3,object_01,object_03,624.19999998808,5,2,579.80000001192,0.7777777777777778,1,object_07,5,2543,0,7,2,library_7,1,memory-2step-stake-s,691,2265874,0.0-19.0-0.1-0.197,A1CUDX7TTS2W61,3QX22DUVPRXA8IOFTTHB0PBO5I3MV1,3RSDURM96E2WM7P178LEJ06W8CVYEH,6,5
198,3,object_03,object_01,389.10000002384,5,1,248.19999998808,0.5555555555555556,1,object_07,5,2568,0,5,1,library_7,1,memory-2step-stake-s,692,2273839,0.0-19.0-0.1-0.198,A1CUDX7TTS2W61,3QX22DUVPRXA8IOFTTHB0PBO5I3MV1,3RSDURM96E2WM7P178LEJ06W8CVYEH,5,6
199,4,object_09,object_10,769.19999998808,7,1,244.5,0.5555555555555556,1,object_07,5,2593,0,5,0,restaurant_7,1,memory-2step-stake-s,693,2281800,0.0-19.0-0.1-0.199,A1CUDX7TTS2W61,3QX22DUVPRXA8IOFTTHB0PBO5I3MV1,3RSDURM96E2WM7P178LEJ06W8CVYEH,7,8
200,2,object_05,object_06,424.59999996424,3,1,203.30000001192,0.2222222222222222,1,object_07,1,2595,0,2,2,forest_6,1,memory-2step-stake-s,694,2289424,0.0-19.0-0.1-0.200,A1CUDX7TTS2W61,3QX22DUVPRXA8IOFTTHB0PBO5I3MV1,3RSDURM96E2WM7P178LEJ06W8CVYEH,3,4
201,4,object_09,object_10,648.09999996424,7,1,251.40000003576,0.1111111111111111,1,object_07,5,2600,0,1,1,restaurant_4,1,memory-2step-stake-s,695,2297015,0.0-19.0-0.1-0.201,A1CUDX7TTS2W61,3QX22DUVPRXA8IOFTTHB0PBO5I3MV1,3RSDURM96E2WM7P178LEJ06W8CVYEH,7,8
202,3,object_01,object_03,841.89999997616,6,1,277.20000004768,0.5555555555555556,2,object_08,5,2625,0,3,5,library_7,1,memory-2step-stake-s,696,2305006,0.0-19.0-0.1-0.202,A1CUDX7TTS2W61,3QX22DUVPRXA8IOFTTHB0PBO5I3MV1,3RSDURM96E2WM7P178LEJ06W8CVYEH,6,5
203,2,object_06,object_05,706.69999998808,4,1,517.60000002384,0.7777777777777778,2,object_08,1,2632,0,6,7,forest_3,1,memory-2step-stake-s,697,2313440,0.0-19.0-0.1-0.203,A1CUDX7TTS2W61,3QX22DUVPRXA8IOFTTHB0PBO5I3MV1,3RSDURM96E2WM7P178LEJ06W8CVYEH,4,3
204,4,object_09,object_10,696.19999998808,7,1,226.79999995232,0.6666666666666666,1,object_07,5,2662,0,6,8,restaurant_4,1,memory-2step-stake-s,698,2321484,0.0-19.0-0.1-0.204,A1CUDX7TTS2W61,3QX22DUVPRXA8IOFTTHB0PBO5I3MV1,3RSDURM96E2WM7P178LEJ06W8CVYEH,7,8
205,3,object_03,object_01,467.5,5,1,262.89999997616,0.5555555555555556,1,object_07,5,2687,0,5,8,library_5,1,memory-2step-stake-s,699,2329463,0.0-19.0-0.1-0.205,A1CUDX7TTS2W61,3QX22DUVPRXA8IOFTTHB0PBO5I3MV1,3RSDURM96E2WM7P178LEJ06W8CVYEH,5,6
206,2,object_05,object_06,249.90000003576,4,2,193.69999998808,0.7777777777777778,2,object_08,1,2694,0,6,7,forest_6,1,memory-2step-stake-s,700,2337576,0.0-19.0-0.1-0.206,A1CUDX7TTS2W61,3QX22DUVPRXA8IOFTTHB0PBO5I3MV1,3RSDURM96E2WM7P178LEJ06W8CVYEH,3,4
207,2,object_06,object_05,976.09999996424,4,1,-1.0,0.0,2,object_08,1,2694,0,2,7,forest_3,1,memory-2step-stake-s,701,2346087,0.0-19.0-0.1-0.207,A1CUDX7TTS2W61,3QX22DUVPRXA8IOFTTHB0PBO5I3MV1,3RSDURM96E2WM7P178LEJ06W8CVYEH,4,3
208,4,object_09,object_10,448.90000003576,7,1,338.30000001192,0.1111111111111111,1,object_07,5,2699,0,1,8,restaurant_3,1,memory-2step-stake-s,702,2353739,0.0-19.0-0.1-0.208,A1CUDX7TTS2W61,3QX22DUVPRXA8IOFTTHB0PBO5I3MV1,3RSDURM96E2WM7P178LEJ06W8CVYEH,7,8
209,4,object_10,object_09,663.70000004768,8,1,258.5,0.8888888888888888,2,object_08,5,2739,0,1,8,restaurant_5,1,memory-2step-stake-s,703,2362036,0.0-19.0-0.1-0.209,A1CUDX7TTS2W61,3QX22DUVPRXA8IOFTTHB0PBO5I3MV1,3RSDURM96E2WM7P178LEJ06W8CVYEH,8,7
210,3,object_01,object_03,802.80000001192,6,1,356.60000002384,0.7777777777777778,2,object_08,5,2774,0,1,7,library_2,1,memory-2step-stake-s,704,2370315,0.0-19.0-0.1-0.210,A1CUDX7TTS2W61,3QX22DUVPRXA8IOFTTHB0PBO5I3MV1,3RSDURM96E2WM7P178LEJ06W8CVYEH,6,5
211,2,object_05,object_06,561.5,4,2,260.39999997616,0.8888888888888888,2,object_08,1,2782,0,1,8,forest_2,1,memory-2step-stake-s,705,2378615,0.0-19.0-0.1-0.211,A1CUDX7TTS2W61,3QX22DUVPRXA8IOFTTHB0PBO5I3MV1,3RSDURM96E2WM7P178LEJ06W8CVYEH,3,4
212,1,object_04,object_02,503.79999995232,2,1,238.10000002384,0.8888888888888888,2,object_08,1,2790,0,0,8,desert_2,1,memory-2step-stake-s,706,2386875,0.0-19.0-0.1-0.212,A1CUDX7TTS2W61,3QX22DUVPRXA8IOFTTHB0PBO5I3MV1,3RSDURM96E2WM7P178LEJ06W8CVYEH,2,1
213,4,object_10,object_09,715.60000002384,8,1,285.89999997616,0.7777777777777778,2,object_08,5,2825,0,2,7,restaurant_4,1,memory-2step-stake-s,707,2395080,0.0-19.0-0.1-0.213,A1CUDX7TTS2W61,3QX22DUVPRXA8IOFTTHB0PBO5I3MV1,3RSDURM96E2WM7P178LEJ06W8CVYEH,8,7
214,3,object_01,object_03,799.10000002384,6,1,314.70000004768,0.5555555555555556,2,object_08,5,2850,0,0,5,library_7,1,memory-2step-stake-s,708,2403110,0.0-19.0-0.1-0.214,A1CUDX7TTS2W61,3QX22DUVPRXA8IOFTTHB0PBO5I3MV1,3RSDURM96E2WM7P178LEJ06W8CVYEH,6,5
215,4,object_10,object_09,1096.0999999642,8,1,339.29999995232,0.3333333333333333,2,object_08,5,2865,0,1,3,restaurant_4,1,memory-2step-stake-s,709,2410965,0.0-19.0-0.1-0.215,A1CUDX7TTS2W61,3QX22DUVPRXA8IOFTTHB0PBO5I3MV1,3RSDURM96E2WM7P178LEJ06W8CVYEH,8,7
216,4,object_09,object_10,490.0,7,1,603.20000004768,0.3333333333333333,1,object_07,5,2880,0,3,5,restaurant_7,1,memory-2step-stake-s,710,2419085,0.0-19.0-0.1-0.216,A1CUDX7TTS2W61,3QX22DUVPRXA8IOFTTHB0PBO5I3MV1,3RSDURM96E2WM7P178LEJ06W8CVYEH,7,8
217,4,object_10,object_09,643.39999997616,7,2,135.30000001192,0.5555555555555556,1,object_07,1,2885,0,5,6,restaurant_3,1,memory-2step-stake-s,711,2426947,0.0-19.0-0.1-0.217,A1CUDX7TTS2W61,3QX22DUVPRXA8IOFTTHB0PBO5I3MV1,3RSDURM96E2WM7P178LEJ06W8CVYEH,8,7
218,2,object_06,object_05,340.60000002384,4,1,181.39999997616,0.6666666666666666,2,object_08,1,2891,0,7,6,forest_2,1,memory-2step-stake-s,712,2434947,0.0-19.0-0.1-0.218,A1CUDX7TTS2W61,3QX22DUVPRXA8IOFTTHB0PBO5I3MV1,3RSDURM96E2WM7P178LEJ06W8CVYEH,4,3
219,1,object_04,object_02,528.69999998808,2,1,187.10000002384,0.6666666666666666,2,object_08,1,2897,0,6,6,desert_5,1,memory-2step-stake-s,713,2442976,0.0-19.0-0.1-0.219,A1CUDX7TTS2W61,3QX22DUVPRXA8IOFTTHB0PBO5I3MV1,3RSDURM96E2WM7P178LEJ06W8CVYEH,2,1
220,4,object_10,object_09,313.60000002384,8,1,923.90000003576,0.3333333333333333,2,object_08,5,2912,0,4,3,restaurant_3,1,memory-2step-stake-s,714,2451431,0.0-19.0-0.1-0.220,A1CUDX7TTS2W61,3QX22DUVPRXA8IOFTTHB0PBO5I3MV1,3RSDURM96E2WM7P178LEJ06W8CVYEH,8,7
221,4,object_09,object_10,231.5,8,2,330.80000001192,0.4444444444444444,2,object_08,5,2932,0,8,4,restaurant_5,1,memory-2step-stake-s,715,2459376,0.0-19.0-0.1-0.221,A1CUDX7TTS2W61,3QX22DUVPRXA8IOFTTHB0PBO5I3MV1,3RSDURM96E2WM7P178LEJ06W8CVYEH,7,8
222,1,object_04,object_02,438.40000003576,1,2,217.30000001192,0.7777777777777778,1,object_07,1,2939,0,7,0,desert_2,1,memory-2step-stake-s,716,2467519,0.0-19.0-0.1-0.222,A1CUDX7TTS2W61,3QX22DUVPRXA8IOFTTHB0PBO5I3MV1,3RSDURM96E2WM7P178LEJ06W8CVYEH,2,1
223,4,object_10,object_09,1000.5,7,2,268.29999995232,0.7777777777777778,1,object_07,5,2974,0,7,1,restaurant_4,1,memory-2step-stake-s,717,2475706,0.0-19.0-0.1-0.223,A1CUDX7TTS2W61,3QX22DUVPRXA8IOFTTHB0PBO5I3MV1,3RSDURM96E2WM7P178LEJ06W8CVYEH,8,7
224,4,object_09,object_10,564.69999998808,8,2,134.69999998808,0.3333333333333333,2,object_08,5,2989,0,2,3,restaurant_3,1,memory-2step-stake-s,718,2483357,0.0-19.0-0.1-0.224,A1CUDX7TTS2W61,3QX22DUVPRXA8IOFTTHB0PBO5I3MV1,3RSDURM96E2WM7P178LEJ06W8CVYEH,7,8
225,1,object_02,object_04,529.80000001192,1,1,36.800000011921,0.2222222222222222,1,object_07,1,2991,0,2,8,desert_1,1,memory-2step-stake-s,719,2490811,0.0-19.0-0.1-0.225,A1CUDX7TTS2W61,3QX22DUVPRXA8IOFTTHB0PBO5I3MV1,3RSDURM96E2WM7P178LEJ06W8CVYEH,1,2
226,1,object_04,object_02,476.30000001192,2,1,239.0,0.7777777777777778,2,object_08,1,2998,0,4,7,desert_5,1,memory-2step-stake-s,720,2498974,0.0-19.0-0.1-0.226,A1CUDX7TTS2W61,3QX22DUVPRXA8IOFTTHB0PBO5I3MV1,3RSDURM96E2WM7P178LEJ06W8CVYEH,2,1
227,3,object_01,object_03,706.0,6,1,236.80000001192,0.7777777777777778,2,object_08,5,3033,0,3,7,library_7,1,memory-2step-stake-s,721,2507154,0.0-19.0-0.1-0.227,A1CUDX7TTS2W61,3QX22DUVPRXA8IOFTTHB0PBO5I3MV1,3RSDURM96E2WM7P178LEJ06W8CVYEH,6,5
228,3,object_01,object_03,493.80000001192,6,1,320.5,1.0,2,object_08,5,3078,0,4,9,library_2,1,memory-2step-stake-s,722,2515593,0.0-19.0-0.1-0.228,A1CUDX7TTS2W61,3QX22DUVPRXA8IOFTTHB0PBO5I3MV1,3RSDURM96E2WM7P178LEJ06W8CVYEH,6,5
229,4,object_10,object_09,1014.5999999642,7,2,400.10000002384,0.1111111111111111,1,object_07,5,3083,0,1,5,restaurant_4,1,memory-2step-stake-s,723,2523309,0.0-19.0-0.1-0.229,A1CUDX7TTS2W61,3QX22DUVPRXA8IOFTTHB0PBO5I3MV1,3RSDURM96E2WM7P178LEJ06W8CVYEH,8,7
230,2,object_06,object_05,601.09999996424,4,1,254.0,0.5555555555555556,2,object_08,5,3108,0,1,5,forest_6,1,memory-2step-stake-s,724,2531283,0.0-19.0-0.1-0.230,A1CUDX7TTS2W61,3QX22DUVPRXA8IOFTTHB0PBO5I3MV1,3RSDURM96E2WM7P178LEJ06W8CVYEH,4,3
231,3,object_01,object_03,428.90000003576,6,1,263.39999997616,0.4444444444444444,2,object_08,5,3128,0,1,4,library_7,1,memory-2step-stake-s,725,2539171,0.0-19.0-0.1-0.231,A1CUDX7TTS2W61,3QX22DUVPRXA8IOFTTHB0PBO5I3MV1,3RSDURM96E2WM7P178LEJ06W8CVYEH,6,5
232,3,object_03,object_01,612.79999995232,6,2,269.90000003576,0.6666666666666666,2,object_08,5,3158,0,2,6,library_6,1,memory-2step-stake-s,726,2547263,0.0-19.0-0.1-0.232,A1CUDX7TTS2W61,3QX22DUVPRXA8IOFTTHB0PBO5I3MV1,3RSDURM96E2WM7P178LEJ06W8CVYEH,5,6
233,1,object_04,object_02,433.19999998808,2,1,260.5,0.7777777777777778,2,object_08,5,3193,0,2,7,desert_2,1,memory-2step-stake-s,727,2555444,0.0-19.0-0.1-0.233,A1CUDX7TTS2W61,3QX22DUVPRXA8IOFTTHB0PBO5I3MV1,3RSDURM96E2WM7P178LEJ06W8CVYEH,2,1
234,4,object_10,object_09,809.30000001192,8,1,300.5,0.8888888888888888,2,object_08,5,3233,0,4,8,restaurant_7,1,memory-2step-stake-s,728,2563767,0.0-19.0-0.1-0.234,A1CUDX7TTS2W61,3QX22DUVPRXA8IOFTTHB0PBO5I3MV1,3RSDURM96E2WM7P178LEJ06W8CVYEH,8,7
235,2,object_06,object_05,535.69999998808,4,1,290.70000004768,1.0,2,object_08,5,3278,0,4,9,forest_5,1,memory-2step-stake-s,729,2572180,0.0-19.0-0.1-0.235,A1CUDX7TTS2W61,3QX22DUVPRXA8IOFTTHB0PBO5I3MV1,3RSDURM96E2WM7P178LEJ06W8CVYEH,4,3
236,3,object_03,object_01,210.29999995232,6,2,307.59999996424,0.8888888888888888,2,object_08,1,3286,0,3,8,library_5,1,memory-2step-stake-s,730,2580521,0.0-19.0-0.1-0.236,A1CUDX7TTS2W61,3QX22DUVPRXA8IOFTTHB0PBO5I3MV1,3RSDURM96E2WM7P178LEJ06W8CVYEH,5,6
237,3,object_03,object_01,556.79999995232,6,2,255.20000004768,1.0,2,object_08,5,3331,0,0,9,library_7,1,memory-2step-stake-s,731,2588913,0.0-19.0-0.1-0.237,A1CUDX7TTS2W61,3QX22DUVPRXA8IOFTTHB0PBO5I3MV1,3RSDURM96E2WM7P178LEJ06W8CVYEH,5,6
238,3,object_01,object_03,694.19999998808,6,1,226.59999996424,1.0,2,object_08,5,3376,0,2,9,library_7,1,memory-2step-stake-s,732,2597266,0.0-19.0-0.1-0.238,A1CUDX7TTS2W61,3QX22DUVPRXA8IOFTTHB0PBO5I3MV1,3RSDURM96E2WM7P178LEJ06W8CVYEH,6,5
239,4,object_10,object_09,1022.0,8,1,640.69999998808,0.8888888888888888,2,object_08,5,3416,0,4,8,restaurant_3,1,memory-2step-stake-s,733,2605933,0.0-19.0-0.1-0.239,A1CUDX7TTS2W61,3QX22DUVPRXA8IOFTTHB0PBO5I3MV1,3RSDURM96E2WM7P178LEJ06W8CVYEH,8,7
240,4,object_10,object_09,377.59999996424,8,1,269.69999998808,0.7777777777777778,2,object_08,5,3451,0,1,7,restaurant_4,1,memory-2step-stake-s,734,2614123,0.0-19.0-0.1-0.240,A1CUDX7TTS2W61,3QX22DUVPRXA8IOFTTHB0PBO5I3MV1,3RSDURM96E2WM7P178LEJ06W8CVYEH,8,7
241,4,object_09,object_10,707.90000003576,8,2,214.70000004768,0.8888888888888888,2,object_08,5,3491,0,1,8,restaurant_4,1,memory-2step-stake-s,735,2622369,0.0-19.0-0.1-0.241,A1CUDX7TTS2W61,3QX22DUVPRXA8IOFTTHB0PBO5I3MV1,3RSDURM96E2WM7P178LEJ06W8CVYEH,7,8
242,2,object_06,object_05,430.29999995232,4,1,315.19999998808,1.0,2,object_08,1,3500,0,5,9,forest_2,1,memory-2step-stake-s,736,2630805,0.0-19.0-0.1-0.242,A1CUDX7TTS2W61,3QX22DUVPRXA8IOFTTHB0PBO5I3MV1,3RSDURM96E2WM7P178LEJ06W8CVYEH,4,3
243,3,object_01,object_03,521.30000001192,6,1,-1.0,0.0,2,object_08,5,3500,0,3,6,library_5,1,memory-2step-stake-s,737,2639320,0.0-19.0-0.1-0.243,A1CUDX7TTS2W61,3QX22DUVPRXA8IOFTTHB0PBO5I3MV1,3RSDURM96E2WM7P178LEJ06W8CVYEH,6,5
244,4,object_09,object_10,391.80000001192,7,1,480.39999997616,0.5555555555555556,1,object_07,5,3525,0,5,7,restaurant_7,1,memory-2step-stake-s,738,2647517,0.0-19.0-0.1-0.244,A1CUDX7TTS2W61,3QX22DUVPRXA8IOFTTHB0PBO5I3MV1,3RSDURM96E2WM7P178LEJ06W8CVYEH,7,8
245,3,object_01,object_03,537.09999996424,6,1,346.89999997616,0.5555555555555556,2,object_08,5,3550,0,7,5,library_5,1,memory-2step-stake-s,739,2655582,0.0-19.0-0.1-0.245,A1CUDX7TTS2W61,3QX22DUVPRXA8IOFTTHB0PBO5I3MV1,3RSDURM96E2WM7P178LEJ06W8CVYEH,6,5
246,1,object_02,object_04,576.69999998808,2,2,379.59999996424,1.0,2,object_08,1,3559,0,8,9,desert_1,1,memory-2step-stake-s,740,2664102,0.0-19.0-0.1-0.246,A1CUDX7TTS2W61,3QX22DUVPRXA8IOFTTHB0PBO5I3MV1,3RSDURM96E2WM7P178LEJ06W8CVYEH,1,2
247,1,object_02,object_04,505.60000002384,2,2,236.89999997616,0.5555555555555556,2,object_08,1,3564,0,6,5,desert_7,1,memory-2step-stake-s,741,2672055,0.0-19.0-0.1-0.247,A1CUDX7TTS2W61,3QX22DUVPRXA8IOFTTHB0PBO5I3MV1,3RSDURM96E2WM7P178LEJ06W8CVYEH,1,2
248,2,object_06,object_05,542.59999996424,4,1,65.400000035763,0.4444444444444444,2,object_08,1,3568,0,6,4,forest_5,1,memory-2step-stake-s,742,2679751,0.0-19.0-0.1-0.248,A1CUDX7TTS2W61,3QX22DUVPRXA8IOFTTHB0PBO5I3MV1,3RSDURM96E2WM7P178LEJ06W8CVYEH,4,3
249,1,object_04,object_02,328.59999996424,1,2,265.80000001192,0.7777777777777778,1,object_07,1,3575,0,7,4,desert_2,1,memory-2step-stake-s,743,2687944,0.0-19.0-0.1-0.249,A1CUDX7TTS2W61,3QX22DUVPRXA8IOFTTHB0PBO5I3MV1,3RSDURM96E2WM7P178LEJ06W8CVYEH,2,1
250,3,object_01,object_03,399.79999995232,5,2,258.79999995232,0.4444444444444444,1,object_07,5,3595,0,4,5,library_5,1,memory-2step-stake-s,744,2695818,0.0-19.0-0.1-0.250,A1CUDX7TTS2W61,3QX22DUVPRXA8IOFTTHB0PBO5I3MV1,3RSDURM96E2WM7P178LEJ06W8CVYEH,6,5
251,2,object_05,object_06,557.30000001192,3,1,233.59999996424,0.4444444444444444,1,object_07,1,3599,0,4,4,forest_6,1,memory-2step-stake-s,745,2703665,0.0-19.0-0.1-0.251,A1CUDX7TTS2W61,3QX22DUVPRXA8IOFTTHB0PBO5I3MV1,3RSDURM96E2WM7P178LEJ06W8CVYEH,3,4
252,1,object_04,object_02,501.80000001192,1,2,256.69999998808,0.7777777777777778,1,object_07,5,3634,0,7,4,desert_1,1,memory-2step-stake-s,746,2711843,0.0-19.0-0.1-0.252,A1CUDX7TTS2W61,3QX22DUVPRXA8IOFTTHB0PBO5I3MV1,3RSDURM96E2WM7P178LEJ06W8CVYEH,2,1
253,1,object_02,object_04,412.0,1,1,582.09999996424,0.7777777777777778,1,object_07,5,3669,0,7,3,desert_2,1,memory-2step-stake-s,747,2720343,0.0-19.0-0.1-0.253,A1CUDX7TTS2W61,3QX22DUVPRXA8IOFTTHB0PBO5I3MV1,3RSDURM96E2WM7P178LEJ06W8CVYEH,1,2
254,3,object_01,object_03,479.0,5,2,345.80000001192,0.4444444444444444,1,object_07,1,3673,0,4,1,library_5,1,memory-2step-stake-s,748,2728309,0.0-19.0-0.1-0.254,A1CUDX7TTS2W61,3QX22DUVPRXA8IOFTTHB0PBO5I3MV1,3RSDURM96E2WM7P178LEJ06W8CVYEH,6,5
255,4,object_10,object_09,730.5,7,2,262.90000003576,0.5555555555555556,1,object_07,5,3698,0,5,3,restaurant_4,1,memory-2step-stake-s,749,2736289,0.0-19.0-0.1-0.255,A1CUDX7TTS2W61,3QX22DUVPRXA8IOFTTHB0PBO5I3MV1,3RSDURM96E2WM7P178LEJ06W8CVYEH,8,7
