,state1,stim_left,stim_right,rt_1,choice1,response1,rt_2,points,state2,stim_state2,stake,score,practice,rews1,rews2,background,high_arm,trial_type,trial_index,time_elapsed,internal_node_id,subid,hitid,assignmentid,stim_left_num,stim_right_num
0,1,object_07,object_03,670.59999999963,1,1,137.40000000037,1.0,1,object_02,1,9,0,9,1,desert_5,1,memory-2step-stake-s,506,791791,0.0-19.0-0.0-0.0,A28T38MOUG43YD,3HRWUH63RXIZS6U0Z3EY966PXK25N4,3WI0P0II658IX0ZFXII05MVE5ANDR3,1,2
1,1,object_03,object_07,419.70000000019,1,2,87.200000000186,0.7777777777777778,1,object_02,1,16,0,7,2,desert_1,1,memory-2step-stake-s,507,799803,0.0-19.0-0.0-0.1,A28T38MOUG43YD,3HRWUH63RXIZS6U0Z3EY966PXK25N4,3WI0P0II658IX0ZFXII05MVE5ANDR3,2,1
2,2,object_08,object_10,286.5,4,1,32.700000000186,0.2222222222222222,2,object_06,1,18,0,6,2,forest_6,1,memory-2step-stake-s,508,807256,0.0-19.0-0.0-0.2,A28T38MOUG43YD,3HRWUH63RXIZS6U0Z3EY966PXK25N4,3WI0P0II658IX0ZFXII05MVE5ANDR3,4,3
3,2,object_08,object_10,2.4000000003725,3,2,132.0,0.7777777777777778,1,object_02,1,25,0,7,2,forest_5,1,memory-2step-stake-s,509,815333,0.0-19.0-0.0-0.3,A28T38MOUG43YD,3HRWUH63RXIZS6U0Z3EY966PXK25N4,3WI0P0II658IX0ZFXII05MVE5ANDR3,4,3
4,2,object_10,object_08,145.79999999981,4,2,21.799999999814,0.3333333333333333,2,object_06,1,28,0,5,3,forest_5,1,memory-2step-stake-s,510,822874,0.0-19.0-0.0-0.4,A28T38MOUG43YD,3HRWUH63RXIZS6U0Z3EY966PXK25N4,3WI0P0II658IX0ZFXII05MVE5ANDR3,3,4
5,3,object_05,object_04,161.10000000056,5,1,12.899999999441,0.6666666666666666,1,object_02,1,34,0,6,3,library_8,1,memory-2step-stake-s,511,830718,0.0-19.0-0.0-0.5,A28T38MOUG43YD,3HRWUH63RXIZS6U0Z3EY966PXK25N4,3WI0P0II658IX0ZFXII05MVE5ANDR3,5,6
6,3,object_05,object_04,460.40000000037,5,1,159.20000000019,0.5555555555555556,1,object_02,5,59,0,5,3,library_1,1,memory-2step-stake-s,512,838608,0.0-19.0-0.0-0.6,A28T38MOUG43YD,3HRWUH63RXIZS6U0Z3EY966PXK25N4,3WI0P0II658IX0ZFXII05MVE5ANDR3,5,6
7,2,object_08,object_10,376.90000000037,3,2,139.10000000056,0.5555555555555556,1,object_02,1,64,0,5,1,forest_1,1,memory-2step-stake-s,513,846479,0.0-19.0-0.0-0.7,A28T38MOUG43YD,3HRWUH63RXIZS6U0Z3EY966PXK25N4,3WI0P0II658IX0ZFXII05MVE5ANDR3,4,3
8,3,object_05,object_04,554.70000000019,5,1,22.799999999814,0.3333333333333333,1,object_02,5,79,0,3,4,library_1,1,memory-2step-stake-s,514,854024,0.0-19.0-0.0-0.8,A28T38MOUG43YD,3HRWUH63RXIZS6U0Z3EY966PXK25N4,3WI0P0II658IX0ZFXII05MVE5ANDR3,5,6
9,3,object_04,object_05,369.59999999963,6,1,100.0,0.4444444444444444,2,object_06,1,83,0,3,4,library_4,1,memory-2step-stake-s,515,861747,0.0-19.0-0.0-0.9,A28T38MOUG43YD,3HRWUH63RXIZS6U0Z3EY966PXK25N4,3WI0P0II658IX0ZFXII05MVE5ANDR3,6,5
10,1,object_03,object_07,22.199999999255,1,2,10.200000000186,0.2222222222222222,1,object_02,1,85,0,2,2,desert_4,1,memory-2step-stake-s,516,869172,0.0-19.0-0.0-0.10,A28T38MOUG43YD,3HRWUH63RXIZS6U0Z3EY966PXK25N4,3WI0P0II658IX0ZFXII05MVE5ANDR3,2,1
11,3,object_05,object_04,267.29999999981,5,1,33.900000000373,0.1111111111111111,1,object_02,5,90,0,1,4,library_1,1,memory-2step-stake-s,517,876527,0.0-19.0-0.0-0.11,A28T38MOUG43YD,3HRWUH63RXIZS6U0Z3EY966PXK25N4,3WI0P0II658IX0ZFXII05MVE5ANDR3,5,6
12,2,object_10,object_08,88.899999999441,4,2,66.600000000559,0.5555555555555556,2,object_06,5,115,0,2,5,forest_5,1,memory-2step-stake-s,518,884315,0.0-19.0-0.0-0.12,A28T38MOUG43YD,3HRWUH63RXIZS6U0Z3EY966PXK25N4,3WI0P0II658IX0ZFXII05MVE5ANDR3,3,4
13,2,object_10,object_08,-1.0,-1,-1,-1.0,0.0,-,0,1,115,0,2,3,forest_4,1,memory-2step-stake-s,519,890822,0.0-19.0-0.0-0.13,A28T38MOUG43YD,3HRWUH63RXIZS6U0Z3EY966PXK25N4,3WI0P0II658IX0ZFXII05MVE5ANDR3,3,4
14,3,object_05,object_04,58.200000000186,5,1,148.0,0.4444444444444444,1,object_02,1,119,0,4,0,library_1,1,memory-2step-stake-s,520,898600,0.0-19.0-0.0-0.14,A28T38MOUG43YD,3HRWUH63RXIZS6U0Z3EY966PXK25N4,3WI0P0II658IX0ZFXII05MVE5ANDR3,5,6
15,1,object_03,object_07,9.5999999996275,2,1,171.79999999981,0.3333333333333333,2,object_06,1,122,0,6,3,desert_1,1,memory-2step-stake-s,521,906416,0.0-19.0-0.0-0.15,A28T38MOUG43YD,3HRWUH63RXIZS6U0Z3EY966PXK25N4,3WI0P0II658IX0ZFXII05MVE5ANDR3,2,1
16,2,object_10,object_08,58.0,4,2,75.800000000745,0.1111111111111111,2,object_06,1,123,0,6,1,forest_5,1,memory-2step-stake-s,522,913813,0.0-19.0-0.0-0.16,A28T38MOUG43YD,3HRWUH63RXIZS6U0Z3EY966PXK25N4,3WI0P0II658IX0ZFXII05MVE5ANDR3,3,4
17,1,object_03,object_07,108.90000000037,2,1,506.29999999981,0.0,2,object_06,1,123,0,5,0,desert_2,1,memory-2step-stake-s,523,921537,0.0-19.0-0.0-0.17,A28T38MOUG43YD,3HRWUH63RXIZS6U0Z3EY966PXK25N4,3WI0P0II658IX0ZFXII05MVE5ANDR3,2,1
18,3,object_05,object_04,239.39999999944,5,1,131.89999999944,0.3333333333333333,1,object_02,1,126,0,3,0,library_8,1,memory-2step-stake-s,524,929186,0.0-19.0-0.0-0.18,A28T38MOUG43YD,3HRWUH63RXIZS6U0Z3EY966PXK25N4,3WI0P0II658IX0ZFXII05MVE5ANDR3,5,6
19,4,object_01,object_09,287.90000000037,7,2,105.10000000056,0.1111111111111111,1,object_02,5,131,0,1,3,restaurant_4,1,memory-2step-stake-s,525,936619,0.0-19.0-0.0-0.19,A28T38MOUG43YD,3HRWUH63RXIZS6U0Z3EY966PXK25N4,3WI0P0II658IX0ZFXII05MVE5ANDR3,8,7
20,4,object_01,object_09,463.69999999925,8,1,105.40000000037,0.2222222222222222,2,object_06,5,141,0,1,2,restaurant_6,1,memory-2step-stake-s,526,944158,0.0-19.0-0.0-0.20,A28T38MOUG43YD,3HRWUH63RXIZS6U0Z3EY966PXK25N4,3WI0P0II658IX0ZFXII05MVE5ANDR3,8,7
21,2,object_10,object_08,500.29999999981,4,2,48.400000000373,0.1111111111111111,2,object_06,5,146,0,0,1,forest_1,1,memory-2step-stake-s,527,951533,0.0-19.0-0.0-0.21,A28T38MOUG43YD,3HRWUH63RXIZS6U0Z3EY966PXK25N4,3WI0P0II658IX0ZFXII05MVE5ANDR3,3,4
22,2,object_10,object_08,126.09999999963,3,1,10.0,0.1111111111111111,1,object_02,1,147,0,1,3,forest_5,1,memory-2step-stake-s,528,958856,0.0-19.0-0.0-0.22,A28T38MOUG43YD,3HRWUH63RXIZS6U0Z3EY966PXK25N4,3WI0P0II658IX0ZFXII05MVE5ANDR3,3,4
23,2,object_08,object_10,75.599999999627,3,2,5.5,0.6666666666666666,1,object_02,5,177,0,6,1,forest_4,1,memory-2step-stake-s,529,966694,0.0-19.0-0.0-0.23,A28T38MOUG43YD,3HRWUH63RXIZS6U0Z3EY966PXK25N4,3WI0P0II658IX0ZFXII05MVE5ANDR3,4,3
24,4,object_01,object_09,412.29999999981,8,1,54.599999999627,0.2222222222222222,2,object_06,5,187,0,9,2,restaurant_2,1,memory-2step-stake-s,530,974167,0.0-19.0-0.0-0.24,A28T38MOUG43YD,3HRWUH63RXIZS6U0Z3EY966PXK25N4,3WI0P0II658IX0ZFXII05MVE5ANDR3,8,7
25,3,object_04,object_05,3.2000000001863,5,2,70.299999999814,0.8888888888888888,1,object_02,5,227,0,8,0,library_6,1,memory-2step-stake-s,531,983430,0.0-19.0-0.0-0.25,A28T38MOUG43YD,3HRWUH63RXIZS6U0Z3EY966PXK25N4,3WI0P0II658IX0ZFXII05MVE5ANDR3,6,5
26,4,object_09,object_01,2.0,7,1,93.299999999814,0.7777777777777778,1,object_02,5,262,0,7,0,restaurant_1,1,memory-2step-stake-s,532,991447,0.0-19.0-0.0-0.26,A28T38MOUG43YD,3HRWUH63RXIZS6U0Z3EY966PXK25N4,3WI0P0II658IX0ZFXII05MVE5ANDR3,7,8
27,1,object_03,object_07,958.20000000019,2,1,72.799999999814,0.2222222222222222,2,object_06,1,264,0,8,2,desert_2,1,memory-2step-stake-s,533,998939,0.0-19.0-0.0-0.27,A28T38MOUG43YD,3HRWUH63RXIZS6U0Z3EY966PXK25N4,3WI0P0II658IX0ZFXII05MVE5ANDR3,2,1
28,4,object_01,object_09,597.39999999944,7,2,42.900000000373,0.6666666666666666,1,object_02,5,294,0,6,4,restaurant_6,1,memory-2step-stake-s,534,1007633,0.0-19.0-0.0-0.28,A28T38MOUG43YD,3HRWUH63RXIZS6U0Z3EY966PXK25N4,3WI0P0II658IX0ZFXII05MVE5ANDR3,8,7
29,1,object_07,object_03,816.59999999963,1,1,44.299999999814,0.4444444444444444,1,object_02,1,298,0,4,1,desert_1,1,memory-2step-stake-s,535,1015314,0.0-19.0-0.0-0.29,A28T38MOUG43YD,3HRWUH63RXIZS6U0Z3EY966PXK25N4,3WI0P0II658IX0ZFXII05MVE5ANDR3,1,2
30,3,object_04,object_05,208.40000000037,5,2,187.39999999944,0.5555555555555556,1,object_02,5,323,0,5,0,library_6,1,memory-2step-stake-s,536,1023244,0.0-19.0-0.0-0.30,A28T38MOUG43YD,3HRWUH63RXIZS6U0Z3EY966PXK25N4,3WI0P0II658IX0ZFXII05MVE5ANDR3,6,5
31,3,object_04,object_05,30.200000000186,6,1,-1.0,0.0,2,object_06,5,323,0,5,1,library_6,1,memory-2step-stake-s,537,1031774,0.0-19.0-0.0-0.31,A28T38MOUG43YD,3HRWUH63RXIZS6U0Z3EY966PXK25N4,3WI0P0II658IX0ZFXII05MVE5ANDR3,6,5
32,4,object_01,object_09,749.5,8,1,161.0,0.3333333333333333,2,object_06,5,338,0,5,3,restaurant_4,1,memory-2step-stake-s,538,1039448,0.0-19.0-0.0-0.32,A28T38MOUG43YD,3HRWUH63RXIZS6U0Z3EY966PXK25N4,3WI0P0II658IX0ZFXII05MVE5ANDR3,8,7
33,4,object_01,object_09,359.90000000037,7,2,50.0,0.6666666666666666,1,object_02,5,368,0,6,3,restaurant_4,1,memory-2step-stake-s,539,1047327,0.0-19.0-0.0-0.33,A28T38MOUG43YD,3HRWUH63RXIZS6U0Z3EY966PXK25N4,3WI0P0II658IX0ZFXII05MVE5ANDR3,8,7
34,1,object_07,object_03,40.0,1,1,24.900000000373,0.7777777777777778,1,object_02,5,403,0,7,4,desert_4,1,memory-2step-stake-s,540,1055274,0.0-19.0-0.0-0.34,A28T38MOUG43YD,3HRWUH63RXIZS6U0Z3EY966PXK25N4,3WI0P0II658IX0ZFXII05MVE5ANDR3,1,2
35,4,object_01,object_09,192.20000000019,7,2,139.89999999944,0.8888888888888888,1,object_02,5,443,0,8,4,restaurant_4,1,memory-2step-stake-s,541,1063433,0.0-19.0-0.0-0.35,A28T38MOUG43YD,3HRWUH63RXIZS6U0Z3EY966PXK25N4,3WI0P0II658IX0ZFXII05MVE5ANDR3,8,7
36,2,object_08,object_10,191.79999999981,4,1,170.5,0.3333333333333333,2,object_06,1,446,0,8,3,forest_6,1,memory-2step-stake-s,542,1071119,0.0-19.0-0.0-0.36,A28T38MOUG43YD,3HRWUH63RXIZS6U0Z3EY966PXK25N4,3WI0P0II658IX0ZFXII05MVE5ANDR3,4,3
37,4,object_09,object_01,-1.0,-1,-1,-1.0,0.0,-,0,5,446,0,4,5,restaurant_2,1,memory-2step-stake-s,543,1077637,0.0-19.0-0.0-0.37,A28T38MOUG43YD,3HRWUH63RXIZS6U0Z3EY966PXK25N4,3WI0P0II658IX0ZFXII05MVE5ANDR3,7,8
38,1,object_03,object_07,706.90000000037,2,1,11.700000000186,0.4444444444444444,2,object_06,1,450,0,2,4,desert_5,1,memory-2step-stake-s,544,1085288,0.0-19.0-0.0-0.38,A28T38MOUG43YD,3HRWUH63RXIZS6U0Z3EY966PXK25N4,3WI0P0II658IX0ZFXII05MVE5ANDR3,2,1
39,4,object_01,object_09,521.79999999981,7,2,38.0,0.2222222222222222,1,object_02,5,460,0,2,8,restaurant_6,1,memory-2step-stake-s,545,1092762,0.0-19.0-0.0-0.39,A28T38MOUG43YD,3HRWUH63RXIZS6U0Z3EY966PXK25N4,3WI0P0II658IX0ZFXII05MVE5ANDR3,8,7
40,1,object_07,object_03,158.59999999963,1,1,168.70000000019,0.4444444444444444,1,object_02,5,480,0,4,8,desert_4,1,memory-2step-stake-s,546,1100560,0.0-19.0-0.0-0.40,A28T38MOUG43YD,3HRWUH63RXIZS6U0Z3EY966PXK25N4,3WI0P0II658IX0ZFXII05MVE5ANDR3,1,2
41,2,object_08,object_10,273.59999999963,3,2,12.0,0.1111111111111111,1,object_02,5,485,0,1,8,forest_5,1,memory-2step-stake-s,547,1107895,0.0-19.0-0.0-0.41,A28T38MOUG43YD,3HRWUH63RXIZS6U0Z3EY966PXK25N4,3WI0P0II658IX0ZFXII05MVE5ANDR3,4,3
42,4,object_09,object_01,131.09999999963,7,1,128.59999999963,0.1111111111111111,1,object_02,5,490,0,1,5,restaurant_6,1,memory-2step-stake-s,548,1115345,0.0-19.0-0.0-0.42,A28T38MOUG43YD,3HRWUH63RXIZS6U0Z3EY966PXK25N4,3WI0P0II658IX0ZFXII05MVE5ANDR3,7,8
43,4,object_09,object_01,-1.0,-1,-1,-1.0,0.0,-,0,5,490,0,3,6,restaurant_4,1,memory-2step-stake-s,549,1122368,0.0-19.0-0.0-0.43,A28T38MOUG43YD,3HRWUH63RXIZS6U0Z3EY966PXK25N4,3WI0P0II658IX0ZFXII05MVE5ANDR3,7,8
44,4,object_09,object_01,27.0,7,1,140.79999999981,0.0,1,object_02,5,490,0,0,3,restaurant_6,1,memory-2step-stake-s,550,1129728,0.0-19.0-0.0-0.44,A28T38MOUG43YD,3HRWUH63RXIZS6U0Z3EY966PXK25N4,3WI0P0II658IX0ZFXII05MVE5ANDR3,7,8
45,1,object_07,object_03,152.39999999944,2,2,167.19999999925,0.2222222222222222,2,object_06,1,492,0,0,2,desert_5,1,memory-2step-stake-s,551,1137335,0.0-19.0-0.0-0.45,A28T38MOUG43YD,3HRWUH63RXIZS6U0Z3EY966PXK25N4,3WI0P0II658IX0ZFXII05MVE5ANDR3,1,2
46,1,object_07,object_03,4.2000000001863,1,1,47.600000000559,0.0,1,object_02,5,492,0,0,2,desert_5,1,memory-2step-stake-s,552,1144594,0.0-19.0-0.0-0.46,A28T38MOUG43YD,3HRWUH63RXIZS6U0Z3EY966PXK25N4,3WI0P0II658IX0ZFXII05MVE5ANDR3,1,2
47,3,object_04,object_05,303.39999999944,5,2,70.5,0.0,1,object_02,5,492,0,0,4,library_8,1,memory-2step-stake-s,553,1151899,0.0-19.0-0.0-0.47,A28T38MOUG43YD,3HRWUH63RXIZS6U0Z3EY966PXK25N4,3WI0P0II658IX0ZFXII05MVE5ANDR3,6,5
48,3,object_04,object_05,196.89999999944,6,1,25.400000000373,0.2222222222222222,2,object_06,5,502,0,1,2,library_8,1,memory-2step-stake-s,554,1159338,0.0-19.0-0.0-0.48,A28T38MOUG43YD,3HRWUH63RXIZS6U0Z3EY966PXK25N4,3WI0P0II658IX0ZFXII05MVE5ANDR3,6,5
49,1,object_03,object_07,591.80000000075,2,1,153.5,0.4444444444444444,2,object_06,1,506,0,3,4,desert_2,1,memory-2step-stake-s,555,1167110,0.0-19.0-0.0-0.49,A28T38MOUG43YD,3HRWUH63RXIZS6U0Z3EY966PXK25N4,3WI0P0II658IX0ZFXII05MVE5ANDR3,2,1
50,1,object_03,object_07,577.5,1,2,813.20000000019,0.2222222222222222,1,object_02,1,508,0,2,1,desert_4,1,memory-2step-stake-s,556,1175340,0.0-19.0-0.0-0.50,A28T38MOUG43YD,3HRWUH63RXIZS6U0Z3EY966PXK25N4,3WI0P0II658IX0ZFXII05MVE5ANDR3,2,1
51,2,object_08,object_10,327.90000000037,4,1,19.900000000373,0.0,2,object_06,1,508,0,0,0,forest_6,1,memory-2step-stake-s,557,1182591,0.0-19.0-0.0-0.51,A28T38MOUG43YD,3HRWUH63RXIZS6U0Z3EY966PXK25N4,3WI0P0II658IX0ZFXII05MVE5ANDR3,4,3
52,3,object_04,object_05,474.70000000019,5,2,126.29999999981,0.1111111111111111,1,object_02,5,513,0,1,0,library_1,1,memory-2step-stake-s,558,1190032,0.0-19.0-0.0-0.52,A28T38MOUG43YD,3HRWUH63RXIZS6U0Z3EY966PXK25N4,3WI0P0II658IX0ZFXII05MVE5ANDR3,6,5
53,1,object_03,object_07,185.59999999963,2,1,780.29999999981,0.1111111111111111,2,object_06,1,514,0,1,1,desert_1,1,memory-2step-stake-s,559,1198127,0.0-19.0-0.0-0.53,A28T38MOUG43YD,3HRWUH63RXIZS6U0Z3EY966PXK25N4,3WI0P0II658IX0ZFXII05MVE5ANDR3,2,1
54,3,object_05,object_04,76.799999999814,6,2,0.19999999925494,0.1111111111111111,2,object_06,5,519,0,2,1,library_4,1,memory-2step-stake-s,560,1205455,0.0-19.0-0.0-0.54,A28T38MOUG43YD,3HRWUH63RXIZS6U0Z3EY966PXK25N4,3WI0P0II658IX0ZFXII05MVE5ANDR3,5,6
55,3,object_05,object_04,840.20000000019,5,1,220.5,0.2222222222222222,1,object_02,5,529,0,2,0,library_6,1,memory-2step-stake-s,561,1213092,0.0-19.0-0.0-0.55,A28T38MOUG43YD,3HRWUH63RXIZS6U0Z3EY966PXK25N4,3WI0P0II658IX0ZFXII05MVE5ANDR3,5,6
56,3,object_04,object_05,254.30000000075,5,2,50.600000000559,0.0,1,object_02,5,529,0,0,1,library_8,1,memory-2step-stake-s,562,1220353,0.0-19.0-0.0-0.56,A28T38MOUG43YD,3HRWUH63RXIZS6U0Z3EY966PXK25N4,3WI0P0II658IX0ZFXII05MVE5ANDR3,6,5
57,2,object_08,object_10,210.40000000037,4,1,92.600000000559,0.1111111111111111,2,object_06,1,530,0,2,1,forest_5,1,memory-2step-stake-s,563,1227759,0.0-19.0-0.0-0.57,A28T38MOUG43YD,3HRWUH63RXIZS6U0Z3EY966PXK25N4,3WI0P0II658IX0ZFXII05MVE5ANDR3,4,3
58,1,object_07,object_03,92.200000000186,2,2,59.100000000559,0.3333333333333333,2,object_06,5,545,0,0,3,desert_1,1,memory-2step-stake-s,564,1235765,0.0-19.0-0.0-0.58,A28T38MOUG43YD,3HRWUH63RXIZS6U0Z3EY966PXK25N4,3WI0P0II658IX0ZFXII05MVE5ANDR3,1,2
59,4,object_09,object_01,458.39999999944,7,1,72.799999999814,0.3333333333333333,1,object_02,5,560,0,3,5,restaurant_6,1,memory-2step-stake-s,565,1243690,0.0-19.0-0.0-0.59,A28T38MOUG43YD,3HRWUH63RXIZS6U0Z3EY966PXK25N4,3WI0P0II658IX0ZFXII05MVE5ANDR3,7,8
60,4,object_01,object_09,160.29999999981,7,2,52.599999999627,0.2222222222222222,1,object_02,5,570,0,2,6,restaurant_6,1,memory-2step-stake-s,566,1251164,0.0-19.0-0.0-0.60,A28T38MOUG43YD,3HRWUH63RXIZS6U0Z3EY966PXK25N4,3WI0P0II658IX0ZFXII05MVE5ANDR3,8,7
61,1,object_07,object_03,206.29999999981,1,1,40.400000000373,0.1111111111111111,1,object_02,1,571,0,1,5,desert_4,1,memory-2step-stake-s,567,1258521,0.0-19.0-0.0-0.61,A28T38MOUG43YD,3HRWUH63RXIZS6U0Z3EY966PXK25N4,3WI0P0II658IX0ZFXII05MVE5ANDR3,1,2
62,2,object_10,object_08,26.700000000186,3,1,168.10000000056,0.1111111111111111,1,object_02,1,572,0,1,3,forest_5,1,memory-2step-stake-s,568,1266000,0.0-19.0-0.0-0.62,A28T38MOUG43YD,3HRWUH63RXIZS6U0Z3EY966PXK25N4,3WI0P0II658IX0ZFXII05MVE5ANDR3,3,4
63,1,object_07,object_03,313.20000000019,1,1,68.5,0.1111111111111111,1,object_02,1,573,0,1,2,desert_4,1,memory-2step-stake-s,569,1273393,0.0-19.0-0.0-0.63,A28T38MOUG43YD,3HRWUH63RXIZS6U0Z3EY966PXK25N4,3WI0P0II658IX0ZFXII05MVE5ANDR3,1,2
64,3,object_04,object_05,202.09999999963,6,1,53.899999999441,0.1111111111111111,2,object_06,5,578,0,1,1,library_1,1,memory-2step-stake-s,570,1280759,0.0-19.0-0.0-0.64,A28T38MOUG43YD,3HRWUH63RXIZS6U0Z3EY966PXK25N4,3WI0P0II658IX0ZFXII05MVE5ANDR3,6,5
65,1,object_07,object_03,843.10000000056,1,1,22.899999999441,0.3333333333333333,1,object_02,1,581,0,3,4,desert_5,1,memory-2step-stake-s,571,1288297,0.0-19.0-0.0-0.65,A28T38MOUG43YD,3HRWUH63RXIZS6U0Z3EY966PXK25N4,3WI0P0II658IX0ZFXII05MVE5ANDR3,1,2
66,1,object_03,object_07,511.89999999944,1,2,106.09999999963,0.3333333333333333,1,object_02,1,584,0,3,6,desert_4,1,memory-2step-stake-s,572,1295927,0.0-19.0-0.0-0.66,A28T38MOUG43YD,3HRWUH63RXIZS6U0Z3EY966PXK25N4,3WI0P0II658IX0ZFXII05MVE5ANDR3,2,1
67,4,object_01,object_09,163.0,8,1,797.29999999981,0.5555555555555556,2,object_06,1,589,0,1,5,restaurant_2,1,memory-2step-stake-s,573,1304440,0.0-19.0-0.0-0.67,A28T38MOUG43YD,3HRWUH63RXIZS6U0Z3EY966PXK25N4,3WI0P0II658IX0ZFXII05MVE5ANDR3,8,7
68,2,object_08,object_10,61.800000000745,3,2,24.599999999627,0.0,1,object_02,1,589,0,0,6,forest_5,1,memory-2step-stake-s,574,1311689,0.0-19.0-0.0-0.68,A28T38MOUG43YD,3HRWUH63RXIZS6U0Z3EY966PXK25N4,3WI0P0II658IX0ZFXII05MVE5ANDR3,4,3
69,1,object_07,object_03,9.7000000001863,1,1,85.399999999441,0.1111111111111111,1,object_02,1,590,0,1,7,desert_5,1,memory-2step-stake-s,575,1319085,0.0-19.0-0.0-0.69,A28T38MOUG43YD,3HRWUH63RXIZS6U0Z3EY966PXK25N4,3WI0P0II658IX0ZFXII05MVE5ANDR3,1,2
70,2,object_10,object_08,1141.9000000004,3,1,120.60000000056,0.1111111111111111,1,object_02,1,591,0,1,8,forest_4,1,memory-2step-stake-s,576,1326520,0.0-19.0-0.0-0.70,A28T38MOUG43YD,3HRWUH63RXIZS6U0Z3EY966PXK25N4,3WI0P0II658IX0ZFXII05MVE5ANDR3,3,4
71,4,object_01,object_09,41.600000000559,7,2,10.5,0.0,1,object_02,5,591,0,0,8,restaurant_6,1,memory-2step-stake-s,577,1333745,0.0-19.0-0.0-0.71,A28T38MOUG43YD,3HRWUH63RXIZS6U0Z3EY966PXK25N4,3WI0P0II658IX0ZFXII05MVE5ANDR3,8,7
72,1,object_03,object_07,231.79999999981,2,1,3.0999999996275,0.8888888888888888,2,object_06,1,599,0,1,8,desert_1,1,memory-2step-stake-s,578,1341769,0.0-19.0-0.0-0.72,A28T38MOUG43YD,3HRWUH63RXIZS6U0Z3EY966PXK25N4,3WI0P0II658IX0ZFXII05MVE5ANDR3,2,1
73,3,object_04,object_05,215.70000000019,6,1,186.79999999981,1.0,2,object_06,5,644,0,2,9,library_1,1,memory-2step-stake-s,579,1350089,0.0-19.0-0.0-0.73,A28T38MOUG43YD,3HRWUH63RXIZS6U0Z3EY966PXK25N4,3WI0P0II658IX0ZFXII05MVE5ANDR3,6,5
74,2,object_08,object_10,497.39999999944,4,1,4.2000000001863,0.7777777777777778,2,object_06,1,651,0,3,7,forest_6,1,memory-2step-stake-s,580,1358032,0.0-19.0-0.0-0.74,A28T38MOUG43YD,3HRWUH63RXIZS6U0Z3EY966PXK25N4,3WI0P0II658IX0ZFXII05MVE5ANDR3,4,3
75,4,object_09,object_01,491.0,8,2,165.59999999963,0.5555555555555556,2,object_06,5,676,0,2,5,restaurant_1,1,memory-2step-stake-s,581,1365933,0.0-19.0-0.0-0.75,A28T38MOUG43YD,3HRWUH63RXIZS6U0Z3EY966PXK25N4,3WI0P0II658IX0ZFXII05MVE5ANDR3,7,8
76,1,object_03,object_07,644.40000000037,2,1,351.20000000019,0.4444444444444444,2,object_06,1,680,0,3,4,desert_1,1,memory-2step-stake-s,582,1373905,0.0-19.0-0.0-0.76,A28T38MOUG43YD,3HRWUH63RXIZS6U0Z3EY966PXK25N4,3WI0P0II658IX0ZFXII05MVE5ANDR3,2,1
77,1,object_03,object_07,568.79999999981,2,1,123.5,0.4444444444444444,2,object_06,1,684,0,4,4,desert_5,1,memory-2step-stake-s,583,1381669,0.0-19.0-0.0-0.77,A28T38MOUG43YD,3HRWUH63RXIZS6U0Z3EY966PXK25N4,3WI0P0II658IX0ZFXII05MVE5ANDR3,2,1
78,4,object_01,object_09,525.40000000037,7,2,199.70000000019,0.4444444444444444,1,object_02,5,704,0,4,7,restaurant_2,1,memory-2step-stake-s,584,1389502,0.0-19.0-0.0-0.78,A28T38MOUG43YD,3HRWUH63RXIZS6U0Z3EY966PXK25N4,3WI0P0II658IX0ZFXII05MVE5ANDR3,8,7
79,3,object_05,object_04,611.29999999981,6,2,12.799999999814,0.7777777777777778,2,object_06,5,739,0,3,7,library_1,1,memory-2step-stake-s,585,1397437,0.0-19.0-0.0-0.79,A28T38MOUG43YD,3HRWUH63RXIZS6U0Z3EY966PXK25N4,3WI0P0II658IX0ZFXII05MVE5ANDR3,5,6
80,3,object_04,object_05,187.89999999944,5,2,77.900000000373,0.5555555555555556,1,object_02,5,764,0,5,5,library_8,1,memory-2step-stake-s,586,1405233,0.0-19.0-0.0-0.80,A28T38MOUG43YD,3HRWUH63RXIZS6U0Z3EY966PXK25N4,3WI0P0II658IX0ZFXII05MVE5ANDR3,6,5
81,3,object_04,object_05,-1.0,-1,-1,-1.0,0.0,-,0,1,764,0,6,4,library_6,1,memory-2step-stake-s,587,1411752,0.0-19.0-0.0-0.81,A28T38MOUG43YD,3HRWUH63RXIZS6U0Z3EY966PXK25N4,3WI0P0II658IX0ZFXII05MVE5ANDR3,6,5
82,1,object_03,object_07,156.40000000037,2,1,142.90000000037,0.5555555555555556,2,object_06,1,769,0,5,5,desert_5,1,memory-2step-stake-s,588,1419632,0.0-19.0-0.0-0.82,A28T38MOUG43YD,3HRWUH63RXIZS6U0Z3EY966PXK25N4,3WI0P0II658IX0ZFXII05MVE5ANDR3,2,1
83,4,object_09,object_01,665.09999999963,8,2,212.79999999981,0.3333333333333333,2,object_06,5,784,0,4,3,restaurant_2,1,memory-2step-stake-s,589,1427362,0.0-19.0-0.0-0.83,A28T38MOUG43YD,3HRWUH63RXIZS6U0Z3EY966PXK25N4,3WI0P0II658IX0ZFXII05MVE5ANDR3,7,8
84,2,object_08,object_10,542.40000000037,4,1,124.60000000056,0.5555555555555556,2,object_06,1,789,0,4,5,forest_4,1,memory-2step-stake-s,590,1435219,0.0-19.0-0.0-0.84,A28T38MOUG43YD,3HRWUH63RXIZS6U0Z3EY966PXK25N4,3WI0P0II658IX0ZFXII05MVE5ANDR3,4,3
85,4,object_09,object_01,726.79999999981,8,2,121.59999999963,0.7777777777777778,2,object_06,5,824,0,5,7,restaurant_4,1,memory-2step-stake-s,591,1443283,0.0-19.0-0.0-0.85,A28T38MOUG43YD,3HRWUH63RXIZS6U0Z3EY966PXK25N4,3WI0P0II658IX0ZFXII05MVE5ANDR3,7,8
86,4,object_09,object_01,614.60000000056,8,2,144.29999999981,0.7777777777777778,2,object_06,1,831,0,6,7,restaurant_2,1,memory-2step-stake-s,592,1451350,0.0-19.0-0.0-0.86,A28T38MOUG43YD,3HRWUH63RXIZS6U0Z3EY966PXK25N4,3WI0P0II658IX0ZFXII05MVE5ANDR3,7,8
87,2,object_10,object_08,721.79999999981,4,2,20.400000000373,0.6666666666666666,2,object_06,1,837,0,6,6,forest_6,1,memory-2step-stake-s,593,1459208,0.0-19.0-0.0-0.87,A28T38MOUG43YD,3HRWUH63RXIZS6U0Z3EY966PXK25N4,3WI0P0II658IX0ZFXII05MVE5ANDR3,3,4
88,1,object_07,object_03,441.30000000075,1,1,84.799999999814,0.8888888888888888,1,object_02,1,845,0,8,6,desert_2,1,memory-2step-stake-s,594,1467328,0.0-19.0-0.0-0.88,A28T38MOUG43YD,3HRWUH63RXIZS6U0Z3EY966PXK25N4,3WI0P0II658IX0ZFXII05MVE5ANDR3,1,2
89,2,object_08,object_10,118.20000000019,3,2,101.39999999944,1.0,1,object_02,1,854,0,9,9,forest_6,1,memory-2step-stake-s,595,1475566,0.0-19.0-0.0-0.89,A28T38MOUG43YD,3HRWUH63RXIZS6U0Z3EY966PXK25N4,3WI0P0II658IX0ZFXII05MVE5ANDR3,4,3
90,1,object_07,object_03,170.5,1,1,131.79999999981,0.8888888888888888,1,object_02,1,862,0,8,5,desert_2,1,memory-2step-stake-s,596,1483726,0.0-19.0-0.0-0.90,A28T38MOUG43YD,3HRWUH63RXIZS6U0Z3EY966PXK25N4,3WI0P0II658IX0ZFXII05MVE5ANDR3,1,2
91,2,object_08,object_10,572.20000000019,3,2,144.0,1.0,1,object_02,5,907,0,9,6,forest_5,1,memory-2step-stake-s,597,1492015,0.0-19.0-0.0-0.91,A28T38MOUG43YD,3HRWUH63RXIZS6U0Z3EY966PXK25N4,3WI0P0II658IX0ZFXII05MVE5ANDR3,4,3
92,3,object_05,object_04,579.0,6,2,84.299999999814,0.3333333333333333,2,object_06,5,922,0,7,3,library_4,1,memory-2step-stake-s,598,1499646,0.0-19.0-0.0-0.92,A28T38MOUG43YD,3HRWUH63RXIZS6U0Z3EY966PXK25N4,3WI0P0II658IX0ZFXII05MVE5ANDR3,5,6
93,2,object_10,object_08,154.90000000037,3,1,180.20000000019,0.7777777777777778,1,object_02,1,929,0,7,2,forest_6,1,memory-2step-stake-s,599,1507752,0.0-19.0-0.0-0.93,A28T38MOUG43YD,3HRWUH63RXIZS6U0Z3EY966PXK25N4,3WI0P0II658IX0ZFXII05MVE5ANDR3,3,4
94,4,object_09,object_01,281.30000000075,8,2,192.60000000056,0.3333333333333333,2,object_06,5,944,0,9,3,restaurant_1,1,memory-2step-stake-s,600,1515485,0.0-19.0-0.0-0.94,A28T38MOUG43YD,3HRWUH63RXIZS6U0Z3EY966PXK25N4,3WI0P0II658IX0ZFXII05MVE5ANDR3,7,8
95,3,object_04,object_05,813.09999999963,6,1,151.90000000037,0.1111111111111111,2,object_06,5,949,0,8,1,library_8,1,memory-2step-stake-s,601,1522950,0.0-19.0-0.0-0.95,A28T38MOUG43YD,3HRWUH63RXIZS6U0Z3EY966PXK25N4,3WI0P0II658IX0ZFXII05MVE5ANDR3,6,5
96,3,object_05,object_04,105.79999999981,6,2,176.10000000056,0.5555555555555556,2,object_06,5,974,0,9,5,library_6,1,memory-2step-stake-s,602,1530856,0.0-19.0-0.0-0.96,A28T38MOUG43YD,3HRWUH63RXIZS6U0Z3EY966PXK25N4,3WI0P0II658IX0ZFXII05MVE5ANDR3,5,6
97,4,object_01,object_09,1417.2000000002,8,1,69.800000000745,0.2222222222222222,2,object_06,5,984,0,8,2,restaurant_2,1,memory-2step-stake-s,603,1538342,0.0-19.0-0.0-0.97,A28T38MOUG43YD,3HRWUH63RXIZS6U0Z3EY966PXK25N4,3WI0P0II658IX0ZFXII05MVE5ANDR3,8,7
98,3,object_04,object_05,491.39999999944,6,1,46.299999999814,0.4444444444444444,2,object_06,5,1004,0,9,4,library_4,1,memory-2step-stake-s,604,1546006,0.0-19.0-0.0-0.98,A28T38MOUG43YD,3HRWUH63RXIZS6U0Z3EY966PXK25N4,3WI0P0II658IX0ZFXII05MVE5ANDR3,6,5
99,1,object_07,object_03,332.30000000075,1,1,54.399999999441,1.0,1,object_02,1,1013,0,9,4,desert_4,1,memory-2step-stake-s,605,1554189,0.0-19.0-0.0-0.99,A28T38MOUG43YD,3HRWUH63RXIZS6U0Z3EY966PXK25N4,3WI0P0II658IX0ZFXII05MVE5ANDR3,1,2
100,3,object_05,object_04,524.20000000019,6,2,191.69999999925,0.5555555555555556,2,object_06,5,1038,0,8,5,library_4,1,memory-2step-stake-s,606,1562106,0.0-19.0-0.0-0.100,A28T38MOUG43YD,3HRWUH63RXIZS6U0Z3EY966PXK25N4,3WI0P0II658IX0ZFXII05MVE5ANDR3,5,6
101,3,object_05,object_04,400.70000000019,6,2,67.600000000559,0.8888888888888888,2,object_06,1,1046,0,6,8,library_8,1,memory-2step-stake-s,607,1570201,0.0-19.0-0.0-0.101,A28T38MOUG43YD,3HRWUH63RXIZS6U0Z3EY966PXK25N4,3WI0P0II658IX0ZFXII05MVE5ANDR3,5,6
102,2,object_10,object_08,466.0,3,1,77.099999999627,0.8888888888888888,1,object_02,1,1054,0,8,7,forest_6,1,memory-2step-stake-s,608,1578305,0.0-19.0-0.0-0.102,A28T38MOUG43YD,3HRWUH63RXIZS6U0Z3EY966PXK25N4,3WI0P0II658IX0ZFXII05MVE5ANDR3,3,4
103,4,object_01,object_09,610.09999999963,8,1,124.5,0.8888888888888888,2,object_06,5,1094,0,5,8,restaurant_6,1,memory-2step-stake-s,609,1586452,0.0-19.0-0.0-0.103,A28T38MOUG43YD,3HRWUH63RXIZS6U0Z3EY966PXK25N4,3WI0P0II658IX0ZFXII05MVE5ANDR3,8,7
104,4,object_09,object_01,511.79999999981,8,2,148.5,0.6666666666666666,2,object_06,5,1124,0,8,6,restaurant_6,1,memory-2step-stake-s,610,1594433,0.0-19.0-0.0-0.104,A28T38MOUG43YD,3HRWUH63RXIZS6U0Z3EY966PXK25N4,3WI0P0II658IX0ZFXII05MVE5ANDR3,7,8
105,3,object_04,object_05,608.90000000037,6,1,11.099999999627,0.7777777777777778,2,object_06,5,1159,0,6,7,library_1,1,memory-2step-stake-s,611,1602372,0.0-19.0-0.0-0.105,A28T38MOUG43YD,3HRWUH63RXIZS6U0Z3EY966PXK25N4,3WI0P0II658IX0ZFXII05MVE5ANDR3,6,5
106,1,object_03,object_07,54.5,2,1,152.90000000037,0.7777777777777778,2,object_06,1,1166,0,6,7,desert_4,1,memory-2step-stake-s,612,1610447,0.0-19.0-0.0-0.106,A28T38MOUG43YD,3HRWUH63RXIZS6U0Z3EY966PXK25N4,3WI0P0II658IX0ZFXII05MVE5ANDR3,2,1
107,3,object_05,object_04,458.0,6,2,101.10000000056,1.0,2,object_06,1,1175,0,8,9,library_6,1,memory-2step-stake-s,613,1618673,0.0-19.0-0.0-0.107,A28T38MOUG43YD,3HRWUH63RXIZS6U0Z3EY966PXK25N4,3WI0P0II658IX0ZFXII05MVE5ANDR3,5,6
108,1,object_07,object_03,737.39999999944,1,1,124.90000000037,1.0,1,object_02,1,1184,0,9,7,desert_5,1,memory-2step-stake-s,614,1626958,0.0-19.0-0.0-0.108,A28T38MOUG43YD,3HRWUH63RXIZS6U0Z3EY966PXK25N4,3WI0P0II658IX0ZFXII05MVE5ANDR3,1,2
109,1,object_07,object_03,-1.0,-1,-1,-1.0,0.0,-,0,1,1184,0,7,6,desert_1,1,memory-2step-stake-s,615,1633467,0.0-19.0-0.0-0.109,A28T38MOUG43YD,3HRWUH63RXIZS6U0Z3EY966PXK25N4,3WI0P0II658IX0ZFXII05MVE5ANDR3,1,2
110,2,object_10,object_08,-1.0,-1,-1,-1.0,0.0,-,0,1,1184,0,6,6,forest_6,1,memory-2step-stake-s,616,1639977,0.0-19.0-0.0-0.110,A28T38MOUG43YD,3HRWUH63RXIZS6U0Z3EY966PXK25N4,3WI0P0II658IX0ZFXII05MVE5ANDR3,3,4
111,2,object_10,object_08,511.10000000056,4,2,110.79999999981,0.2222222222222222,2,object_06,1,1186,0,6,2,forest_1,1,memory-2step-stake-s,617,1647515,0.0-19.0-0.0-0.111,A28T38MOUG43YD,3HRWUH63RXIZS6U0Z3EY966PXK25N4,3WI0P0II658IX0ZFXII05MVE5ANDR3,3,4
112,1,object_07,object_03,695.0,2,2,120.20000000019,0.1111111111111111,2,object_06,5,1191,0,5,1,desert_1,1,memory-2step-stake-s,618,1654953,0.0-19.0-0.0-0.112,A28T38MOUG43YD,3HRWUH63RXIZS6U0Z3EY966PXK25N4,3WI0P0II658IX0ZFXII05MVE5ANDR3,1,2
113,3,object_05,object_04,993.5,6,2,62.0,0.4444444444444444,2,object_06,5,1211,0,6,4,library_4,1,memory-2step-stake-s,619,1662647,0.0-19.0-0.0-0.113,A28T38MOUG43YD,3HRWUH63RXIZS6U0Z3EY966PXK25N4,3WI0P0II658IX0ZFXII05MVE5ANDR3,5,6
114,1,object_03,object_07,447.70000000019,1,2,209.69999999925,0.4444444444444444,1,object_02,1,1215,0,4,5,desert_5,1,memory-2step-stake-s,620,1670490,0.0-19.0-0.0-0.114,A28T38MOUG43YD,3HRWUH63RXIZS6U0Z3EY966PXK25N4,3WI0P0II658IX0ZFXII05MVE5ANDR3,2,1
115,3,object_05,object_04,455.69999999925,6,2,58.099999999627,1.0,2,object_06,5,1260,0,8,9,library_4,1,memory-2step-stake-s,621,1678683,0.0-19.0-0.0-0.115,A28T38MOUG43YD,3HRWUH63RXIZS6U0Z3EY966PXK25N4,3WI0P0II658IX0ZFXII05MVE5ANDR3,5,6
116,1,object_03,object_07,465.60000000056,1,2,49.5,0.6666666666666666,1,object_02,1,1266,0,6,8,desert_5,1,memory-2step-stake-s,622,1686560,0.0-19.0-0.0-0.116,A28T38MOUG43YD,3HRWUH63RXIZS6U0Z3EY966PXK25N4,3WI0P0II658IX0ZFXII05MVE5ANDR3,2,1
117,3,object_05,object_04,1160.0,5,1,146.10000000056,0.3333333333333333,1,object_02,1,1269,0,3,7,library_6,1,memory-2step-stake-s,623,1694239,0.0-19.0-0.0-0.117,A28T38MOUG43YD,3HRWUH63RXIZS6U0Z3EY966PXK25N4,3WI0P0II658IX0ZFXII05MVE5ANDR3,5,6
118,2,object_10,object_08,708.39999999944,4,2,64.5,0.6666666666666666,2,object_06,1,1275,0,0,6,forest_5,1,memory-2step-stake-s,624,1702141,0.0-19.0-0.0-0.118,A28T38MOUG43YD,3HRWUH63RXIZS6U0Z3EY966PXK25N4,3WI0P0II658IX0ZFXII05MVE5ANDR3,3,4
119,1,object_07,object_03,9.7999999998137,2,2,20.599999999627,0.5555555555555556,2,object_06,1,1280,0,1,5,desert_4,1,memory-2step-stake-s,625,1709913,0.0-19.0-0.0-0.119,A28T38MOUG43YD,3HRWUH63RXIZS6U0Z3EY966PXK25N4,3WI0P0II658IX0ZFXII05MVE5ANDR3,1,2
120,1,object_07,object_03,416.5,1,1,99.199999999255,0.3333333333333333,1,object_02,1,1283,0,3,5,desert_1,1,memory-2step-stake-s,626,1717529,0.0-19.0-0.0-0.120,A28T38MOUG43YD,3HRWUH63RXIZS6U0Z3EY966PXK25N4,3WI0P0II658IX0ZFXII05MVE5ANDR3,1,2
121,4,object_01,object_09,569.0,7,2,155.19999999925,0.1111111111111111,1,object_02,5,1288,0,1,7,restaurant_2,1,memory-2step-stake-s,627,1725002,0.0-19.0-0.0-0.121,A28T38MOUG43YD,3HRWUH63RXIZS6U0Z3EY966PXK25N4,3WI0P0II658IX0ZFXII05MVE5ANDR3,8,7
122,2,object_08,object_10,711.59999999963,4,1,46.900000000373,0.7777777777777778,2,object_06,1,1295,0,6,7,forest_5,1,memory-2step-stake-s,628,1732980,0.0-19.0-0.0-0.122,A28T38MOUG43YD,3HRWUH63RXIZS6U0Z3EY966PXK25N4,3WI0P0II658IX0ZFXII05MVE5ANDR3,4,3
123,2,object_08,object_10,614.0,4,1,108.59999999963,0.6666666666666666,2,object_06,1,1301,0,3,6,forest_5,1,memory-2step-stake-s,629,1740922,0.0-19.0-0.0-0.123,A28T38MOUG43YD,3HRWUH63RXIZS6U0Z3EY966PXK25N4,3WI0P0II658IX0ZFXII05MVE5ANDR3,4,3
124,1,object_07,object_03,568.10000000149,1,1,122.90000000037,0.2222222222222222,1,object_02,1,1303,0,2,7,desert_4,1,memory-2step-stake-s,630,1748473,0.0-19.0-0.0-0.124,A28T38MOUG43YD,3HRWUH63RXIZS6U0Z3EY966PXK25N4,3WI0P0II658IX0ZFXII05MVE5ANDR3,1,2
125,1,object_03,object_07,480.69999999925,1,2,92.0,0.2222222222222222,1,object_02,5,1313,0,2,9,desert_4,1,memory-2step-stake-s,631,1755980,0.0-19.0-0.0-0.125,A28T38MOUG43YD,3HRWUH63RXIZS6U0Z3EY966PXK25N4,3WI0P0II658IX0ZFXII05MVE5ANDR3,2,1
126,4,object_09,object_01,743.19999999925,8,2,130.09999999963,0.7777777777777778,2,object_06,5,1348,0,3,7,restaurant_4,1,memory-2step-stake-s,632,1764027,0.0-19.0-0.0-0.126,A28T38MOUG43YD,3HRWUH63RXIZS6U0Z3EY966PXK25N4,3WI0P0II658IX0ZFXII05MVE5ANDR3,7,8
127,4,object_09,object_01,375.0,8,2,82.400000000373,0.7777777777777778,2,object_06,5,1383,0,5,7,restaurant_2,1,memory-2step-stake-s,633,1772049,0.0-19.0-0.0-0.127,A28T38MOUG43YD,3HRWUH63RXIZS6U0Z3EY966PXK25N4,3WI0P0II658IX0ZFXII05MVE5ANDR3,7,8
128,4,object_01,object_09,56.400000000373,8,1,195.40000000037,0.7777777777777778,2,object_06,5,1418,0,5,7,restaurant_2,1,memory-2step-stake-s,635,1783465,0.0-19.0-0.1-0.128,A28T38MOUG43YD,3HRWUH63RXIZS6U0Z3EY966PXK25N4,3WI0P0II658IX0ZFXII05MVE5ANDR3,8,7
129,4,object_01,object_09,385.19999999925,7,2,77.800000000745,0.3333333333333333,1,object_02,1,1421,0,3,6,restaurant_4,1,memory-2step-stake-s,636,1791071,0.0-19.0-0.1-0.129,A28T38MOUG43YD,3HRWUH63RXIZS6U0Z3EY966PXK25N4,3WI0P0II658IX0ZFXII05MVE5ANDR3,8,7
130,4,object_01,object_09,1255.0999999996,8,1,185.0,0.6666666666666666,2,object_06,1,1427,0,6,6,restaurant_1,1,memory-2step-stake-s,637,1799093,0.0-19.0-0.1-0.130,A28T38MOUG43YD,3HRWUH63RXIZS6U0Z3EY966PXK25N4,3WI0P0II658IX0ZFXII05MVE5ANDR3,8,7
131,2,object_10,object_08,94.099999999627,4,2,122.90000000037,0.5555555555555556,2,object_06,5,1452,0,5,5,forest_1,1,memory-2step-stake-s,638,1806955,0.0-19.0-0.1-0.131,A28T38MOUG43YD,3HRWUH63RXIZS6U0Z3EY966PXK25N4,3WI0P0II658IX0ZFXII05MVE5ANDR3,3,4
132,2,object_10,object_08,1335.7999999989,3,1,10.0,0.3333333333333333,1,object_02,1,1455,0,3,8,forest_5,1,memory-2step-stake-s,639,1814480,0.0-19.0-0.1-0.132,A28T38MOUG43YD,3HRWUH63RXIZS6U0Z3EY966PXK25N4,3WI0P0II658IX0ZFXII05MVE5ANDR3,3,4
133,2,object_08,object_10,55.099999999627,3,2,25.5,0.5555555555555556,1,object_02,1,1460,0,5,8,forest_5,1,memory-2step-stake-s,640,1822258,0.0-19.0-0.1-0.133,A28T38MOUG43YD,3HRWUH63RXIZS6U0Z3EY966PXK25N4,3WI0P0II658IX0ZFXII05MVE5ANDR3,4,3
134,1,object_07,object_03,431.5,1,1,147.79999999888,0.1111111111111111,1,object_02,5,1465,0,1,8,desert_1,1,memory-2step-stake-s,641,1829723,0.0-19.0-0.1-0.134,A28T38MOUG43YD,3HRWUH63RXIZS6U0Z3EY966PXK25N4,3WI0P0II658IX0ZFXII05MVE5ANDR3,1,2
135,4,object_09,object_01,536.20000000112,8,2,102.79999999888,0.8888888888888888,2,object_06,5,1505,0,0,8,restaurant_1,1,memory-2step-stake-s,642,1837845,0.0-19.0-0.1-0.135,A28T38MOUG43YD,3HRWUH63RXIZS6U0Z3EY966PXK25N4,3WI0P0II658IX0ZFXII05MVE5ANDR3,7,8
136,1,object_03,object_07,503.70000000112,1,2,51.099999999627,0.1111111111111111,1,object_02,1,1506,0,1,8,desert_2,1,memory-2step-stake-s,643,1845219,0.0-19.0-0.1-0.136,A28T38MOUG43YD,3HRWUH63RXIZS6U0Z3EY966PXK25N4,3WI0P0II658IX0ZFXII05MVE5ANDR3,2,1
137,2,object_08,object_10,365.80000000075,4,1,113.0,0.7777777777777778,2,object_06,1,1513,0,2,7,forest_6,1,memory-2step-stake-s,644,1853790,0.0-19.0-0.1-0.137,A28T38MOUG43YD,3HRWUH63RXIZS6U0Z3EY966PXK25N4,3WI0P0II658IX0ZFXII05MVE5ANDR3,4,3
138,2,object_08,object_10,548.09999999963,4,1,120.0,0.5555555555555556,2,object_06,5,1538,0,3,5,forest_5,1,memory-2step-stake-s,645,1861628,0.0-19.0-0.1-0.138,A28T38MOUG43YD,3HRWUH63RXIZS6U0Z3EY966PXK25N4,3WI0P0II658IX0ZFXII05MVE5ANDR3,4,3
139,3,object_05,object_04,62.699999999255,6,2,928.90000000037,0.4444444444444444,2,object_06,5,1558,0,1,4,library_4,1,memory-2step-stake-s,646,1870185,0.0-19.0-0.1-0.139,A28T38MOUG43YD,3HRWUH63RXIZS6U0Z3EY966PXK25N4,3WI0P0II658IX0ZFXII05MVE5ANDR3,5,6
140,3,object_05,object_04,89.0,5,1,148.5,0.0,1,object_02,5,1558,0,0,2,library_1,1,memory-2step-stake-s,647,1877545,0.0-19.0-0.1-0.140,A28T38MOUG43YD,3HRWUH63RXIZS6U0Z3EY966PXK25N4,3WI0P0II658IX0ZFXII05MVE5ANDR3,5,6
141,1,object_07,object_03,569.0,2,2,12.0,0.1111111111111111,2,object_06,1,1559,0,2,1,desert_5,1,memory-2step-stake-s,648,1884871,0.0-19.0-0.1-0.141,A28T38MOUG43YD,3HRWUH63RXIZS6U0Z3EY966PXK25N4,3WI0P0II658IX0ZFXII05MVE5ANDR3,1,2
142,1,object_07,object_03,169.19999999925,1,1,68.599999999627,0.1111111111111111,1,object_02,1,1560,0,1,1,desert_5,1,memory-2step-stake-s,649,1892259,0.0-19.0-0.1-0.142,A28T38MOUG43YD,3HRWUH63RXIZS6U0Z3EY966PXK25N4,3WI0P0II658IX0ZFXII05MVE5ANDR3,1,2
143,3,object_05,object_04,279.5,6,2,0.70000000111759,0.1111111111111111,2,object_06,5,1565,0,4,1,library_1,1,memory-2step-stake-s,650,1899582,0.0-19.0-0.1-0.143,A28T38MOUG43YD,3HRWUH63RXIZS6U0Z3EY966PXK25N4,3WI0P0II658IX0ZFXII05MVE5ANDR3,5,6
144,2,object_08,object_10,75.599999999627,4,1,118.80000000075,0.2222222222222222,2,object_06,1,1567,0,2,2,forest_4,1,memory-2step-stake-s,651,1907130,0.0-19.0-0.1-0.144,A28T38MOUG43YD,3HRWUH63RXIZS6U0Z3EY966PXK25N4,3WI0P0II658IX0ZFXII05MVE5ANDR3,4,3
145,3,object_04,object_05,16.099999999627,5,2,92.10000000149,0.2222222222222222,1,object_02,5,1577,0,2,2,library_1,1,memory-2step-stake-s,652,1914645,0.0-19.0-0.1-0.145,A28T38MOUG43YD,3HRWUH63RXIZS6U0Z3EY966PXK25N4,3WI0P0II658IX0ZFXII05MVE5ANDR3,6,5
146,1,object_07,object_03,46.10000000149,1,1,25.5,0.2222222222222222,1,object_02,1,1579,0,2,2,desert_1,1,memory-2step-stake-s,653,1922094,0.0-19.0-0.1-0.146,A28T38MOUG43YD,3HRWUH63RXIZS6U0Z3EY966PXK25N4,3WI0P0II658IX0ZFXII05MVE5ANDR3,1,2
147,4,object_01,object_09,136.09999999963,8,1,186.40000000037,0.5555555555555556,2,object_06,5,1604,0,4,5,restaurant_4,1,memory-2step-stake-s,654,1930008,0.0-19.0-0.1-0.147,A28T38MOUG43YD,3HRWUH63RXIZS6U0Z3EY966PXK25N4,3WI0P0II658IX0ZFXII05MVE5ANDR3,8,7
148,3,object_05,object_04,194.90000000037,6,2,109.90000000037,0.4444444444444444,2,object_06,5,1624,0,5,4,library_6,1,memory-2step-stake-s,655,1937741,0.0-19.0-0.1-0.148,A28T38MOUG43YD,3HRWUH63RXIZS6U0Z3EY966PXK25N4,3WI0P0II658IX0ZFXII05MVE5ANDR3,5,6
149,4,object_09,object_01,502.0,7,1,154.69999999925,0.4444444444444444,1,object_02,5,1644,0,4,7,restaurant_6,1,memory-2step-stake-s,656,1945511,0.0-19.0-0.1-0.149,A28T38MOUG43YD,3HRWUH63RXIZS6U0Z3EY966PXK25N4,3WI0P0II658IX0ZFXII05MVE5ANDR3,7,8
150,2,object_08,object_10,62.599999999627,3,2,353.29999999888,0.6666666666666666,1,object_02,1,1650,0,6,8,forest_6,1,memory-2step-stake-s,657,1953686,0.0-19.0-0.1-0.150,A28T38MOUG43YD,3HRWUH63RXIZS6U0Z3EY966PXK25N4,3WI0P0II658IX0ZFXII05MVE5ANDR3,4,3
151,2,object_08,object_10,102.70000000112,3,2,114.29999999888,0.8888888888888888,1,object_02,5,1690,0,8,8,forest_4,1,memory-2step-stake-s,658,1961830,0.0-19.0-0.1-0.151,A28T38MOUG43YD,3HRWUH63RXIZS6U0Z3EY966PXK25N4,3WI0P0II658IX0ZFXII05MVE5ANDR3,4,3
152,1,object_07,object_03,141.90000000037,2,2,648.79999999888,0.8888888888888888,2,object_06,1,1698,0,8,8,desert_4,1,memory-2step-stake-s,659,1970505,0.0-19.0-0.1-0.152,A28T38MOUG43YD,3HRWUH63RXIZS6U0Z3EY966PXK25N4,3WI0P0II658IX0ZFXII05MVE5ANDR3,1,2
153,4,object_09,object_01,248.79999999888,7,1,155.79999999888,1.0,1,object_02,5,1743,0,9,9,restaurant_1,1,memory-2step-stake-s,660,1978813,0.0-19.0-0.1-0.153,A28T38MOUG43YD,3HRWUH63RXIZS6U0Z3EY966PXK25N4,3WI0P0II658IX0ZFXII05MVE5ANDR3,7,8
154,3,object_04,object_05,181.0,5,2,180.0,0.7777777777777778,1,object_02,1,1750,0,7,3,library_6,1,memory-2step-stake-s,661,1986937,0.0-19.0-0.1-0.154,A28T38MOUG43YD,3HRWUH63RXIZS6U0Z3EY966PXK25N4,3WI0P0II658IX0ZFXII05MVE5ANDR3,6,5
155,2,object_10,object_08,33.099999999627,3,1,137.5,0.4444444444444444,1,object_02,1,1754,0,4,4,forest_4,1,memory-2step-stake-s,662,1994694,0.0-19.0-0.1-0.155,A28T38MOUG43YD,3HRWUH63RXIZS6U0Z3EY966PXK25N4,3WI0P0II658IX0ZFXII05MVE5ANDR3,3,4
156,1,object_03,object_07,380.40000000037,1,2,208.79999999888,0.1111111111111111,1,object_02,1,1755,0,1,3,desert_5,1,memory-2step-stake-s,663,2002217,0.0-19.0-0.1-0.156,A28T38MOUG43YD,3HRWUH63RXIZS6U0Z3EY966PXK25N4,3WI0P0II658IX0ZFXII05MVE5ANDR3,2,1
157,2,object_08,object_10,24.900000000373,4,1,19.099999999627,0.5555555555555556,2,object_06,1,1760,0,0,5,forest_4,1,memory-2step-stake-s,664,2009956,0.0-19.0-0.1-0.157,A28T38MOUG43YD,3HRWUH63RXIZS6U0Z3EY966PXK25N4,3WI0P0II658IX0ZFXII05MVE5ANDR3,4,3
158,2,object_10,object_08,101.19999999925,4,2,223.59999999963,0.2222222222222222,2,object_06,1,1762,0,0,2,forest_6,1,memory-2step-stake-s,665,2017609,0.0-19.0-0.1-0.158,A28T38MOUG43YD,3HRWUH63RXIZS6U0Z3EY966PXK25N4,3WI0P0II658IX0ZFXII05MVE5ANDR3,3,4
159,2,object_10,object_08,98.300000000745,4,2,124.40000000037,0.2222222222222222,2,object_06,1,1764,0,3,2,forest_1,1,memory-2step-stake-s,666,2025148,0.0-19.0-0.1-0.159,A28T38MOUG43YD,3HRWUH63RXIZS6U0Z3EY966PXK25N4,3WI0P0II658IX0ZFXII05MVE5ANDR3,3,4
160,1,object_03,object_07,494.30000000075,1,2,169.09999999963,0.2222222222222222,1,object_02,5,1774,0,2,3,desert_1,1,memory-2step-stake-s,667,2032737,0.0-19.0-0.1-0.160,A28T38MOUG43YD,3HRWUH63RXIZS6U0Z3EY966PXK25N4,3WI0P0II658IX0ZFXII05MVE5ANDR3,2,1
161,1,object_03,object_07,117.59999999963,1,2,183.5,0.1111111111111111,1,object_02,1,1775,0,1,1,desert_5,1,memory-2step-stake-s,668,2040261,0.0-19.0-0.1-0.161,A28T38MOUG43YD,3HRWUH63RXIZS6U0Z3EY966PXK25N4,3WI0P0II658IX0ZFXII05MVE5ANDR3,2,1
162,1,object_03,object_07,428.20000000112,2,1,170.30000000075,0.3333333333333333,2,object_06,5,1790,0,0,3,desert_4,1,memory-2step-stake-s,669,2047962,0.0-19.0-0.1-0.162,A28T38MOUG43YD,3HRWUH63RXIZS6U0Z3EY966PXK25N4,3WI0P0II658IX0ZFXII05MVE5ANDR3,2,1
163,2,object_08,object_10,1479.5999999996,3,2,34.299999998882,0.1111111111111111,1,object_02,1,1791,0,1,4,forest_6,1,memory-2step-stake-s,670,2055311,0.0-19.0-0.1-0.163,A28T38MOUG43YD,3HRWUH63RXIZS6U0Z3EY966PXK25N4,3WI0P0II658IX0ZFXII05MVE5ANDR3,4,3
164,4,object_09,object_01,497.29999999888,8,2,28.0,0.2222222222222222,2,object_06,1,1793,0,1,2,restaurant_6,1,memory-2step-stake-s,671,2062764,0.0-19.0-0.1-0.164,A28T38MOUG43YD,3HRWUH63RXIZS6U0Z3EY966PXK25N4,3WI0P0II658IX0ZFXII05MVE5ANDR3,7,8
165,2,object_10,object_08,-1.0,-1,-1,-1.0,0.0,-,0,1,1793,0,3,1,forest_1,1,memory-2step-stake-s,672,2069282,0.0-19.0-0.1-0.165,A28T38MOUG43YD,3HRWUH63RXIZS6U0Z3EY966PXK25N4,3WI0P0II658IX0ZFXII05MVE5ANDR3,3,4
166,2,object_10,object_08,121.40000000037,4,2,50.400000000373,0.3333333333333333,2,object_06,1,1796,0,4,3,forest_1,1,memory-2step-stake-s,673,2076853,0.0-19.0-0.1-0.166,A28T38MOUG43YD,3HRWUH63RXIZS6U0Z3EY966PXK25N4,3WI0P0II658IX0ZFXII05MVE5ANDR3,3,4
167,4,object_01,object_09,36.699999999255,7,2,1296.5,0.2222222222222222,1,object_02,5,1806,0,2,6,restaurant_2,1,memory-2step-stake-s,674,2085567,0.0-19.0-0.1-0.167,A28T38MOUG43YD,3HRWUH63RXIZS6U0Z3EY966PXK25N4,3WI0P0II658IX0ZFXII05MVE5ANDR3,8,7
168,1,object_03,object_07,699.59999999963,2,1,193.5,0.6666666666666666,2,object_06,1,1812,0,7,6,desert_2,1,memory-2step-stake-s,675,2093619,0.0-19.0-0.1-0.168,A28T38MOUG43YD,3HRWUH63RXIZS6U0Z3EY966PXK25N4,3WI0P0II658IX0ZFXII05MVE5ANDR3,2,1
169,1,object_07,object_03,-1.0,-1,-1,-1.0,0.0,-,0,1,1812,0,6,2,desert_2,1,memory-2step-stake-s,676,2100130,0.0-19.0-0.1-0.169,A28T38MOUG43YD,3HRWUH63RXIZS6U0Z3EY966PXK25N4,3WI0P0II658IX0ZFXII05MVE5ANDR3,1,2
170,3,object_04,object_05,1041.2000000011,6,1,61.60000000149,0.3333333333333333,2,object_06,1,1815,0,8,3,library_4,1,memory-2step-stake-s,677,2107706,0.0-19.0-0.1-0.170,A28T38MOUG43YD,3HRWUH63RXIZS6U0Z3EY966PXK25N4,3WI0P0II658IX0ZFXII05MVE5ANDR3,6,5
171,4,object_01,object_09,584.39999999851,8,1,19.199999999255,0.2222222222222222,2,object_06,5,1825,0,7,2,restaurant_2,1,memory-2step-stake-s,678,2115141,0.0-19.0-0.1-0.171,A28T38MOUG43YD,3HRWUH63RXIZS6U0Z3EY966PXK25N4,3WI0P0II658IX0ZFXII05MVE5ANDR3,8,7
172,3,object_04,object_05,1099.3000000007,6,1,150.69999999925,0.8888888888888888,2,object_06,5,1865,0,8,8,library_6,1,memory-2step-stake-s,679,2123328,0.0-19.0-0.1-0.172,A28T38MOUG43YD,3HRWUH63RXIZS6U0Z3EY966PXK25N4,3WI0P0II658IX0ZFXII05MVE5ANDR3,6,5
173,1,object_07,object_03,475.40000000037,1,1,151.10000000149,0.5555555555555556,1,object_02,1,1870,0,5,8,desert_2,1,memory-2step-stake-s,680,2131231,0.0-19.0-0.1-0.173,A28T38MOUG43YD,3HRWUH63RXIZS6U0Z3EY966PXK25N4,3WI0P0II658IX0ZFXII05MVE5ANDR3,1,2
174,4,object_09,object_01,130.5,8,2,125.90000000037,1.0,2,object_06,5,1915,0,7,9,restaurant_1,1,memory-2step-stake-s,681,2139501,0.0-19.0-0.1-0.174,A28T38MOUG43YD,3HRWUH63RXIZS6U0Z3EY966PXK25N4,3WI0P0II658IX0ZFXII05MVE5ANDR3,7,8
175,4,object_09,object_01,450.59999999963,8,2,137.70000000112,0.7777777777777778,2,object_06,5,1950,0,3,7,restaurant_2,1,memory-2step-stake-s,682,2147564,0.0-19.0-0.1-0.175,A28T38MOUG43YD,3HRWUH63RXIZS6U0Z3EY966PXK25N4,3WI0P0II658IX0ZFXII05MVE5ANDR3,7,8
176,4,object_01,object_09,109.0,8,1,16.5,0.7777777777777778,2,object_06,5,1985,0,3,7,restaurant_1,1,memory-2step-stake-s,683,2155514,0.0-19.0-0.1-0.176,A28T38MOUG43YD,3HRWUH63RXIZS6U0Z3EY966PXK25N4,3WI0P0II658IX0ZFXII05MVE5ANDR3,8,7
177,4,object_01,object_09,510.59999999963,8,1,202.29999999888,0.2222222222222222,2,object_06,1,1987,0,4,2,restaurant_1,1,memory-2step-stake-s,684,2163134,0.0-19.0-0.1-0.177,A28T38MOUG43YD,3HRWUH63RXIZS6U0Z3EY966PXK25N4,3WI0P0II658IX0ZFXII05MVE5ANDR3,8,7
178,2,object_10,object_08,402.5,3,1,29.099999999627,0.3333333333333333,1,object_02,1,1990,0,3,2,forest_4,1,memory-2step-stake-s,685,2170696,0.0-19.0-0.1-0.178,A28T38MOUG43YD,3HRWUH63RXIZS6U0Z3EY966PXK25N4,3WI0P0II658IX0ZFXII05MVE5ANDR3,3,4
179,3,object_05,object_04,673.80000000075,6,2,108.29999999888,0.5555555555555556,2,object_06,5,2015,0,2,5,library_8,1,memory-2step-stake-s,686,2178524,0.0-19.0-0.1-0.179,A28T38MOUG43YD,3HRWUH63RXIZS6U0Z3EY966PXK25N4,3WI0P0II658IX0ZFXII05MVE5ANDR3,5,6
180,1,object_03,object_07,-1.0,-1,-1,-1.0,0.0,-,0,1,2015,0,1,7,desert_2,1,memory-2step-stake-s,687,2185042,0.0-19.0-0.1-0.180,A28T38MOUG43YD,3HRWUH63RXIZS6U0Z3EY966PXK25N4,3WI0P0II658IX0ZFXII05MVE5ANDR3,2,1
181,4,object_01,object_09,102.69999999925,8,1,65.0,0.6666666666666666,2,object_06,5,2045,0,2,6,restaurant_1,1,memory-2step-stake-s,688,2192930,0.0-19.0-0.1-0.181,A28T38MOUG43YD,3HRWUH63RXIZS6U0Z3EY966PXK25N4,3WI0P0II658IX0ZFXII05MVE5ANDR3,8,7
182,3,object_05,object_04,-1.0,-1,-1,-1.0,0.0,-,0,5,2045,0,4,7,library_8,1,memory-2step-stake-s,689,2199447,0.0-19.0-0.1-0.182,A28T38MOUG43YD,3HRWUH63RXIZS6U0Z3EY966PXK25N4,3WI0P0II658IX0ZFXII05MVE5ANDR3,5,6
183,3,object_05,object_04,306.0,6,2,189.40000000037,0.6666666666666666,2,object_06,5,2075,0,6,6,library_6,1,memory-2step-stake-s,690,2207493,0.0-19.0-0.1-0.183,A28T38MOUG43YD,3HRWUH63RXIZS6U0Z3EY966PXK25N4,3WI0P0II658IX0ZFXII05MVE5ANDR3,5,6
184,4,object_01,object_09,107.29999999888,7,2,61.900000000373,0.5555555555555556,1,object_02,5,2100,0,5,6,restaurant_1,1,memory-2step-stake-s,691,2215289,0.0-19.0-0.1-0.184,A28T38MOUG43YD,3HRWUH63RXIZS6U0Z3EY966PXK25N4,3WI0P0II658IX0ZFXII05MVE5ANDR3,8,7
185,3,object_04,object_05,352.0,6,1,161.09999999963,0.4444444444444444,2,object_06,5,2120,0,3,4,library_1,1,memory-2step-stake-s,692,2223079,0.0-19.0-0.1-0.185,A28T38MOUG43YD,3HRWUH63RXIZS6U0Z3EY966PXK25N4,3WI0P0II658IX0ZFXII05MVE5ANDR3,6,5
186,3,object_05,object_04,370.70000000112,6,2,146.79999999888,0.8888888888888888,2,object_06,5,2160,0,6,8,library_8,1,memory-2step-stake-s,693,2231275,0.0-19.0-0.1-0.186,A28T38MOUG43YD,3HRWUH63RXIZS6U0Z3EY966PXK25N4,3WI0P0II658IX0ZFXII05MVE5ANDR3,5,6
187,1,object_03,object_07,54.699999999255,2,1,25.200000001118,0.8888888888888888,2,object_06,1,2168,0,2,8,desert_1,1,memory-2step-stake-s,694,2239352,0.0-19.0-0.1-0.187,A28T38MOUG43YD,3HRWUH63RXIZS6U0Z3EY966PXK25N4,3WI0P0II658IX0ZFXII05MVE5ANDR3,2,1
188,2,object_10,object_08,912.90000000037,4,2,381.09999999963,0.8888888888888888,2,object_06,1,2176,0,0,8,forest_4,1,memory-2step-stake-s,695,2247762,0.0-19.0-0.1-0.188,A28T38MOUG43YD,3HRWUH63RXIZS6U0Z3EY966PXK25N4,3WI0P0II658IX0ZFXII05MVE5ANDR3,3,4
189,3,object_04,object_05,168.59999999963,5,2,132.09999999963,0.0,1,object_02,5,2176,0,0,6,library_8,1,memory-2step-stake-s,696,2255112,0.0-19.0-0.1-0.189,A28T38MOUG43YD,3HRWUH63RXIZS6U0Z3EY966PXK25N4,3WI0P0II658IX0ZFXII05MVE5ANDR3,6,5
190,1,object_07,object_03,119.90000000037,1,1,74.800000000745,0.2222222222222222,1,object_02,1,2178,0,2,6,desert_1,1,memory-2step-stake-s,697,2262606,0.0-19.0-0.1-0.190,A28T38MOUG43YD,3HRWUH63RXIZS6U0Z3EY966PXK25N4,3WI0P0II658IX0ZFXII05MVE5ANDR3,1,2
191,3,object_05,object_04,387.69999999925,6,2,78.800000000745,0.8888888888888888,2,object_06,5,2218,0,1,8,library_8,1,memory-2step-stake-s,698,2270716,0.0-19.0-0.1-0.191,A28T38MOUG43YD,3HRWUH63RXIZS6U0Z3EY966PXK25N4,3WI0P0II658IX0ZFXII05MVE5ANDR3,5,6
192,4,object_01,object_09,1037.4000000004,8,1,73.599999999627,0.7777777777777778,2,object_06,5,2253,0,1,7,restaurant_1,1,memory-2step-stake-s,699,2278732,0.0-19.0-0.1-0.192,A28T38MOUG43YD,3HRWUH63RXIZS6U0Z3EY966PXK25N4,3WI0P0II658IX0ZFXII05MVE5ANDR3,8,7
193,3,object_04,object_05,214.19999999925,5,2,33.299999998882,0.3333333333333333,1,object_02,1,2256,0,3,7,library_6,1,memory-2step-stake-s,700,2286299,0.0-19.0-0.1-0.193,A28T38MOUG43YD,3HRWUH63RXIZS6U0Z3EY966PXK25N4,3WI0P0II658IX0ZFXII05MVE5ANDR3,6,5
194,2,object_08,object_10,800.40000000037,4,1,49.400000000373,0.7777777777777778,2,object_06,1,2263,0,3,7,forest_1,1,memory-2step-stake-s,701,2294271,0.0-19.0-0.1-0.194,A28T38MOUG43YD,3HRWUH63RXIZS6U0Z3EY966PXK25N4,3WI0P0II658IX0ZFXII05MVE5ANDR3,4,3
195,4,object_01,object_09,530.40000000037,8,1,5.0999999996275,0.5555555555555556,2,object_06,5,2288,0,1,5,restaurant_4,1,memory-2step-stake-s,702,2301997,0.0-19.0-0.1-0.195,A28T38MOUG43YD,3HRWUH63RXIZS6U0Z3EY966PXK25N4,3WI0P0II658IX0ZFXII05MVE5ANDR3,8,7
196,2,object_08,object_10,413.0,3,2,55.099999999627,0.1111111111111111,1,object_02,5,2293,0,1,8,forest_6,1,memory-2step-stake-s,703,2309365,0.0-19.0-0.1-0.196,A28T38MOUG43YD,3HRWUH63RXIZS6U0Z3EY966PXK25N4,3WI0P0II658IX0ZFXII05MVE5ANDR3,4,3
197,3,object_04,object_05,284.39999999851,6,1,88.5,0.8888888888888888,2,object_06,5,2333,0,0,8,library_4,1,memory-2step-stake-s,704,2317473,0.0-19.0-0.1-0.197,A28T38MOUG43YD,3HRWUH63RXIZS6U0Z3EY966PXK25N4,3WI0P0II658IX0ZFXII05MVE5ANDR3,6,5
198,4,object_09,object_01,1023.5,8,2,74.299999998882,0.8888888888888888,2,object_06,5,2373,0,3,8,restaurant_6,1,memory-2step-stake-s,705,2325573,0.0-19.0-0.1-0.198,A28T38MOUG43YD,3HRWUH63RXIZS6U0Z3EY966PXK25N4,3WI0P0II658IX0ZFXII05MVE5ANDR3,7,8
199,1,object_03,object_07,708.60000000149,2,1,151.5,0.8888888888888888,2,object_06,1,2381,0,1,8,desert_2,1,memory-2step-stake-s,706,2333761,0.0-19.0-0.1-0.199,A28T38MOUG43YD,3HRWUH63RXIZS6U0Z3EY966PXK25N4,3WI0P0II658IX0ZFXII05MVE5ANDR3,2,1
200,1,object_03,object_07,512.09999999963,1,2,146.09999999963,0.3333333333333333,1,object_02,1,2384,0,3,7,desert_4,1,memory-2step-stake-s,707,2341423,0.0-19.0-0.1-0.200,A28T38MOUG43YD,3HRWUH63RXIZS6U0Z3EY966PXK25N4,3WI0P0II658IX0ZFXII05MVE5ANDR3,2,1
201,3,object_05,object_04,437.19999999925,6,2,31.800000000745,0.3333333333333333,2,object_06,5,2399,0,1,3,library_8,1,memory-2step-stake-s,708,2348995,0.0-19.0-0.1-0.201,A28T38MOUG43YD,3HRWUH63RXIZS6U0Z3EY966PXK25N4,3WI0P0II658IX0ZFXII05MVE5ANDR3,5,6
202,2,object_10,object_08,62.300000000745,3,1,143.80000000075,0.1111111111111111,1,object_02,1,2400,0,1,1,forest_4,1,memory-2step-stake-s,709,2356462,0.0-19.0-0.1-0.202,A28T38MOUG43YD,3HRWUH63RXIZS6U0Z3EY966PXK25N4,3WI0P0II658IX0ZFXII05MVE5ANDR3,3,4
203,2,object_10,object_08,476.30000000075,3,1,190.79999999888,0.4444444444444444,1,object_02,1,2404,0,4,0,forest_1,1,memory-2step-stake-s,710,2364277,0.0-19.0-0.1-0.203,A28T38MOUG43YD,3HRWUH63RXIZS6U0Z3EY966PXK25N4,3WI0P0II658IX0ZFXII05MVE5ANDR3,3,4
204,4,object_01,object_09,-1.0,-1,-1,-1.0,0.0,-,0,5,2404,0,2,1,restaurant_1,1,memory-2step-stake-s,711,2370802,0.0-19.0-0.1-0.204,A28T38MOUG43YD,3HRWUH63RXIZS6U0Z3EY966PXK25N4,3WI0P0II658IX0ZFXII05MVE5ANDR3,8,7
205,3,object_05,object_04,438.5,6,2,50.300000000745,0.2222222222222222,2,object_06,5,2414,0,1,2,library_6,1,memory-2step-stake-s,712,2378279,0.0-19.0-0.1-0.205,A28T38MOUG43YD,3HRWUH63RXIZS6U0Z3EY966PXK25N4,3WI0P0II658IX0ZFXII05MVE5ANDR3,5,6
206,4,object_09,object_01,514.19999999925,8,2,133.80000000075,0.3333333333333333,2,object_06,5,2429,0,4,3,restaurant_6,1,memory-2step-stake-s,713,2385929,0.0-19.0-0.1-0.206,A28T38MOUG43YD,3HRWUH63RXIZS6U0Z3EY966PXK25N4,3WI0P0II658IX0ZFXII05MVE5ANDR3,7,8
207,3,object_04,object_05,34.0,6,1,99.700000001118,0.2222222222222222,2,object_06,5,2439,0,3,2,library_4,1,memory-2step-stake-s,714,2393472,0.0-19.0-0.1-0.207,A28T38MOUG43YD,3HRWUH63RXIZS6U0Z3EY966PXK25N4,3WI0P0II658IX0ZFXII05MVE5ANDR3,6,5
208,3,object_05,object_04,1082.4000000004,6,2,189.39999999851,0.1111111111111111,2,object_06,1,2440,0,5,1,library_8,1,memory-2step-stake-s,715,2400975,0.0-19.0-0.1-0.208,A28T38MOUG43YD,3HRWUH63RXIZS6U0Z3EY966PXK25N4,3WI0P0II658IX0ZFXII05MVE5ANDR3,5,6
209,2,object_10,object_08,490.90000000037,3,1,173.70000000112,0.2222222222222222,1,object_02,5,2450,0,2,2,forest_1,1,memory-2step-stake-s,716,2408580,0.0-19.0-0.1-0.209,A28T38MOUG43YD,3HRWUH63RXIZS6U0Z3EY966PXK25N4,3WI0P0II658IX0ZFXII05MVE5ANDR3,3,4
210,4,object_01,object_09,52.800000000745,7,2,71.5,0.1111111111111111,1,object_02,5,2455,0,1,0,restaurant_4,1,memory-2step-stake-s,717,2415968,0.0-19.0-0.1-0.210,A28T38MOUG43YD,3HRWUH63RXIZS6U0Z3EY966PXK25N4,3WI0P0II658IX0ZFXII05MVE5ANDR3,8,7
211,4,object_09,object_01,481.40000000037,8,2,12.199999999255,0.4444444444444444,2,object_06,5,2475,0,0,4,restaurant_6,1,memory-2step-stake-s,718,2423603,0.0-19.0-0.1-0.211,A28T38MOUG43YD,3HRWUH63RXIZS6U0Z3EY966PXK25N4,3WI0P0II658IX0ZFXII05MVE5ANDR3,7,8
212,3,object_04,object_05,360.69999999925,6,1,142.0,0.5555555555555556,2,object_06,1,2480,0,2,5,library_4,1,memory-2step-stake-s,719,2432290,0.0-19.0-0.1-0.212,A28T38MOUG43YD,3HRWUH63RXIZS6U0Z3EY966PXK25N4,3WI0P0II658IX0ZFXII05MVE5ANDR3,6,5
213,2,object_08,object_10,192.0,4,1,173.30000000075,0.7777777777777778,2,object_06,1,2487,0,3,7,forest_4,1,memory-2step-stake-s,720,2440396,0.0-19.0-0.1-0.213,A28T38MOUG43YD,3HRWUH63RXIZS6U0Z3EY966PXK25N4,3WI0P0II658IX0ZFXII05MVE5ANDR3,4,3
214,2,object_10,object_08,981.89999999851,4,2,166.90000000037,0.8888888888888888,2,object_06,1,2495,0,0,8,forest_1,1,memory-2step-stake-s,721,2448606,0.0-19.0-0.1-0.214,A28T38MOUG43YD,3HRWUH63RXIZS6U0Z3EY966PXK25N4,3WI0P0II658IX0ZFXII05MVE5ANDR3,3,4
215,1,object_03,object_07,931.10000000149,1,2,53.700000001118,0.0,1,object_02,1,2495,0,0,9,desert_5,1,memory-2step-stake-s,722,2455875,0.0-19.0-0.1-0.215,A28T38MOUG43YD,3HRWUH63RXIZS6U0Z3EY966PXK25N4,3WI0P0II658IX0ZFXII05MVE5ANDR3,2,1
216,3,object_05,object_04,663.20000000112,5,1,67.800000000745,0.0,1,object_02,5,2495,0,0,9,library_1,1,memory-2step-stake-s,723,2463163,0.0-19.0-0.1-0.216,A28T38MOUG43YD,3HRWUH63RXIZS6U0Z3EY966PXK25N4,3WI0P0II658IX0ZFXII05MVE5ANDR3,5,6
217,4,object_01,object_09,543.5,8,1,67.799999998882,0.8888888888888888,2,object_06,5,2535,0,1,8,restaurant_2,1,memory-2step-stake-s,724,2471266,0.0-19.0-0.1-0.217,A28T38MOUG43YD,3HRWUH63RXIZS6U0Z3EY966PXK25N4,3WI0P0II658IX0ZFXII05MVE5ANDR3,8,7
218,4,object_09,object_01,56.200000001118,7,1,93.39999999851,0.3333333333333333,1,object_02,5,2550,0,3,7,restaurant_1,1,memory-2step-stake-s,725,2478889,0.0-19.0-0.1-0.218,A28T38MOUG43YD,3HRWUH63RXIZS6U0Z3EY966PXK25N4,3WI0P0II658IX0ZFXII05MVE5ANDR3,7,8
219,2,object_10,object_08,505.0,4,2,164.40000000037,0.3333333333333333,2,object_06,1,2553,0,5,3,forest_1,1,memory-2step-stake-s,726,2486568,0.0-19.0-0.1-0.219,A28T38MOUG43YD,3HRWUH63RXIZS6U0Z3EY966PXK25N4,3WI0P0II658IX0ZFXII05MVE5ANDR3,3,4
220,4,object_01,object_09,186.90000000037,8,1,93.299999998882,0.3333333333333333,2,object_06,5,2568,0,7,3,restaurant_4,1,memory-2step-stake-s,727,2494180,0.0-19.0-0.1-0.220,A28T38MOUG43YD,3HRWUH63RXIZS6U0Z3EY966PXK25N4,3WI0P0II658IX0ZFXII05MVE5ANDR3,8,7
221,2,object_10,object_08,653.90000000037,4,2,80.799999998882,0.2222222222222222,2,object_06,5,2578,0,8,2,forest_1,1,memory-2step-stake-s,728,2501676,0.0-19.0-0.1-0.221,A28T38MOUG43YD,3HRWUH63RXIZS6U0Z3EY966PXK25N4,3WI0P0II658IX0ZFXII05MVE5ANDR3,3,4
222,1,object_03,object_07,869.89999999851,1,2,9.3000000007451,0.8888888888888888,1,object_02,1,2586,0,8,4,desert_2,1,memory-2step-stake-s,729,2509719,0.0-19.0-0.1-0.222,A28T38MOUG43YD,3HRWUH63RXIZS6U0Z3EY966PXK25N4,3WI0P0II658IX0ZFXII05MVE5ANDR3,2,1
223,4,object_01,object_09,730.09999999963,8,1,147.39999999851,0.4444444444444444,2,object_06,1,2590,0,6,4,restaurant_1,1,memory-2step-stake-s,730,2517495,0.0-19.0-0.1-0.223,A28T38MOUG43YD,3HRWUH63RXIZS6U0Z3EY966PXK25N4,3WI0P0II658IX0ZFXII05MVE5ANDR3,8,7
224,3,object_04,object_05,179.30000000075,6,1,38.699999999255,0.0,2,object_06,5,2590,0,4,0,library_6,1,memory-2step-stake-s,731,2524746,0.0-19.0-0.1-0.224,A28T38MOUG43YD,3HRWUH63RXIZS6U0Z3EY966PXK25N4,3WI0P0II658IX0ZFXII05MVE5ANDR3,6,5
225,1,object_03,object_07,528.19999999925,2,1,76.199999999255,0.1111111111111111,2,object_06,1,2591,0,4,1,desert_2,1,memory-2step-stake-s,732,2532150,0.0-19.0-0.1-0.225,A28T38MOUG43YD,3HRWUH63RXIZS6U0Z3EY966PXK25N4,3WI0P0II658IX0ZFXII05MVE5ANDR3,2,1
226,2,object_08,object_10,466.09999999963,4,1,205.19999999925,0.1111111111111111,2,object_06,1,2592,0,3,1,forest_1,1,memory-2step-stake-s,733,2539670,0.0-19.0-0.1-0.226,A28T38MOUG43YD,3HRWUH63RXIZS6U0Z3EY966PXK25N4,3WI0P0II658IX0ZFXII05MVE5ANDR3,4,3
227,3,object_04,object_05,484.0,6,1,15.299999998882,0.3333333333333333,2,object_06,1,2595,0,3,3,library_6,1,memory-2step-stake-s,734,2547204,0.0-19.0-0.1-0.227,A28T38MOUG43YD,3HRWUH63RXIZS6U0Z3EY966PXK25N4,3WI0P0II658IX0ZFXII05MVE5ANDR3,6,5
228,1,object_07,object_03,1374.4000000004,2,2,0.19999999925494,0.2222222222222222,2,object_06,1,2597,0,6,2,desert_1,1,memory-2step-stake-s,735,2554626,0.0-19.0-0.1-0.228,A28T38MOUG43YD,3HRWUH63RXIZS6U0Z3EY966PXK25N4,3WI0P0II658IX0ZFXII05MVE5ANDR3,1,2
229,2,object_08,object_10,486.09999999963,4,1,24.800000000745,0.3333333333333333,2,object_06,1,2600,0,4,3,forest_4,1,memory-2step-stake-s,736,2562194,0.0-19.0-0.1-0.229,A28T38MOUG43YD,3HRWUH63RXIZS6U0Z3EY966PXK25N4,3WI0P0II658IX0ZFXII05MVE5ANDR3,4,3
230,3,object_04,object_05,582.69999999925,6,1,3.1999999992549,0.1111111111111111,2,object_06,5,2605,0,0,1,library_4,1,memory-2step-stake-s,737,2569527,0.0-19.0-0.1-0.230,A28T38MOUG43YD,3HRWUH63RXIZS6U0Z3EY966PXK25N4,3WI0P0II658IX0ZFXII05MVE5ANDR3,6,5
231,2,object_08,object_10,760.90000000037,4,1,219.30000000075,0.0,2,object_06,1,2605,0,4,0,forest_6,1,memory-2step-stake-s,738,2576960,0.0-19.0-0.1-0.231,A28T38MOUG43YD,3HRWUH63RXIZS6U0Z3EY966PXK25N4,3WI0P0II658IX0ZFXII05MVE5ANDR3,4,3
232,1,object_03,object_07,545.89999999851,1,2,141.10000000149,0.0,1,object_02,1,2605,0,0,5,desert_2,1,memory-2step-stake-s,739,2584314,0.0-19.0-0.1-0.232,A28T38MOUG43YD,3HRWUH63RXIZS6U0Z3EY966PXK25N4,3WI0P0II658IX0ZFXII05MVE5ANDR3,2,1
233,4,object_09,object_01,1295.5999999996,8,2,139.40000000037,0.4444444444444444,2,object_06,5,2625,0,1,4,restaurant_4,1,memory-2step-stake-s,740,2592091,0.0-19.0-0.1-0.233,A28T38MOUG43YD,3HRWUH63RXIZS6U0Z3EY966PXK25N4,3WI0P0II658IX0ZFXII05MVE5ANDR3,7,8
234,3,object_04,object_05,454.09999999963,6,1,108.40000000037,0.2222222222222222,2,object_06,5,2635,0,4,2,library_4,1,memory-2step-stake-s,741,2599640,0.0-19.0-0.1-0.234,A28T38MOUG43YD,3HRWUH63RXIZS6U0Z3EY966PXK25N4,3WI0P0II658IX0ZFXII05MVE5ANDR3,6,5
235,4,object_01,object_09,1022.5,8,1,48.900000000373,0.1111111111111111,2,object_06,5,2640,0,3,1,restaurant_2,1,memory-2step-stake-s,742,2607016,0.0-19.0-0.1-0.235,A28T38MOUG43YD,3HRWUH63RXIZS6U0Z3EY966PXK25N4,3WI0P0II658IX0ZFXII05MVE5ANDR3,8,7
236,4,object_09,object_01,482.0,8,2,131.89999999851,0.2222222222222222,2,object_06,5,2650,0,1,2,restaurant_6,1,memory-2step-stake-s,743,2614563,0.0-19.0-0.1-0.236,A28T38MOUG43YD,3HRWUH63RXIZS6U0Z3EY966PXK25N4,3WI0P0II658IX0ZFXII05MVE5ANDR3,7,8
237,3,object_05,object_04,430.39999999851,6,2,154.40000000037,0.4444444444444444,2,object_06,5,2670,0,0,4,library_4,1,memory-2step-stake-s,744,2622349,0.0-19.0-0.1-0.237,A28T38MOUG43YD,3HRWUH63RXIZS6U0Z3EY966PXK25N4,3WI0P0II658IX0ZFXII05MVE5ANDR3,5,6
238,2,object_10,object_08,337.59999999963,3,1,85.400000000373,0.1111111111111111,1,object_02,1,2671,0,1,2,forest_4,1,memory-2step-stake-s,745,2629759,0.0-19.0-0.1-0.238,A28T38MOUG43YD,3HRWUH63RXIZS6U0Z3EY966PXK25N4,3WI0P0II658IX0ZFXII05MVE5ANDR3,3,4
239,2,object_10,object_08,154.19999999925,4,2,4.8000000007451,0.2222222222222222,2,object_06,1,2673,0,2,2,forest_1,1,memory-2step-stake-s,746,2637182,0.0-19.0-0.1-0.239,A28T38MOUG43YD,3HRWUH63RXIZS6U0Z3EY966PXK25N4,3WI0P0II658IX0ZFXII05MVE5ANDR3,3,4
240,4,object_01,object_09,466.0,8,1,180.40000000037,0.4444444444444444,2,object_06,5,2693,0,2,4,restaurant_1,1,memory-2step-stake-s,747,2644981,0.0-19.0-0.1-0.240,A28T38MOUG43YD,3HRWUH63RXIZS6U0Z3EY966PXK25N4,3WI0P0II658IX0ZFXII05MVE5ANDR3,8,7
241,4,object_09,object_01,83.300000000745,8,2,159.09999999963,0.3333333333333333,2,object_06,5,2708,0,3,3,restaurant_4,1,memory-2step-stake-s,748,2653164,0.0-19.0-0.1-0.241,A28T38MOUG43YD,3HRWUH63RXIZS6U0Z3EY966PXK25N4,3WI0P0II658IX0ZFXII05MVE5ANDR3,7,8
242,4,object_09,object_01,446.40000000037,8,2,170.19999999925,0.3333333333333333,2,object_06,5,2723,0,3,3,restaurant_4,1,memory-2step-stake-s,749,2660853,0.0-19.0-0.1-0.242,A28T38MOUG43YD,3HRWUH63RXIZS6U0Z3EY966PXK25N4,3WI0P0II658IX0ZFXII05MVE5ANDR3,7,8
243,3,object_04,object_05,396.39999999851,6,1,167.5,0.4444444444444444,2,object_06,5,2743,0,4,4,library_4,1,memory-2step-stake-s,750,2668637,0.0-19.0-0.1-0.243,A28T38MOUG43YD,3HRWUH63RXIZS6U0Z3EY966PXK25N4,3WI0P0II658IX0ZFXII05MVE5ANDR3,6,5
244,4,object_09,object_01,476.5,8,2,126.80000000075,0.3333333333333333,2,object_06,5,2758,0,5,3,restaurant_2,1,memory-2step-stake-s,751,2676283,0.0-19.0-0.1-0.244,A28T38MOUG43YD,3HRWUH63RXIZS6U0Z3EY966PXK25N4,3WI0P0II658IX0ZFXII05MVE5ANDR3,7,8
245,1,object_03,object_07,1191.5,2,1,34.300000000745,0.5555555555555556,2,object_06,1,2763,0,2,5,desert_2,1,memory-2step-stake-s,752,2684034,0.0-19.0-0.1-0.245,A28T38MOUG43YD,3HRWUH63RXIZS6U0Z3EY966PXK25N4,3WI0P0II658IX0ZFXII05MVE5ANDR3,2,1
246,2,object_08,object_10,528.10000000149,4,1,10.5,0.2222222222222222,2,object_06,1,2765,0,1,2,forest_1,1,memory-2step-stake-s,753,2691460,0.0-19.0-0.1-0.246,A28T38MOUG43YD,3HRWUH63RXIZS6U0Z3EY966PXK25N4,3WI0P0II658IX0ZFXII05MVE5ANDR3,4,3
247,2,object_10,object_08,1143.0999999996,4,2,197.5,0.1111111111111111,2,object_06,5,2770,0,3,1,forest_6,1,memory-2step-stake-s,754,2698976,0.0-19.0-0.1-0.247,A28T38MOUG43YD,3HRWUH63RXIZS6U0Z3EY966PXK25N4,3WI0P0II658IX0ZFXII05MVE5ANDR3,3,4
248,1,object_07,object_03,171.0,2,2,78.0,0.1111111111111111,2,object_06,5,2775,0,3,1,desert_2,1,memory-2step-stake-s,755,2706376,0.0-19.0-0.1-0.248,A28T38MOUG43YD,3HRWUH63RXIZS6U0Z3EY966PXK25N4,3WI0P0II658IX0ZFXII05MVE5ANDR3,1,2
249,3,object_04,object_05,482.69999999925,6,1,7.0999999996275,0.3333333333333333,2,object_06,5,2790,0,1,3,library_1,1,memory-2step-stake-s,756,2713908,0.0-19.0-0.1-0.249,A28T38MOUG43YD,3HRWUH63RXIZS6U0Z3EY966PXK25N4,3WI0P0II658IX0ZFXII05MVE5ANDR3,6,5
250,4,object_01,object_09,557.0,8,1,56.299999998882,0.2222222222222222,2,object_06,5,2800,0,2,2,restaurant_4,1,memory-2step-stake-s,757,2721382,0.0-19.0-0.1-0.250,A28T38MOUG43YD,3HRWUH63RXIZS6U0Z3EY966PXK25N4,3WI0P0II658IX0ZFXII05MVE5ANDR3,8,7
251,2,object_08,object_10,243.40000000037,4,1,78.800000000745,0.3333333333333333,2,object_06,1,2803,0,2,3,forest_4,1,memory-2step-stake-s,758,2728976,0.0-19.0-0.1-0.251,A28T38MOUG43YD,3HRWUH63RXIZS6U0Z3EY966PXK25N4,3WI0P0II658IX0ZFXII05MVE5ANDR3,4,3
252,3,object_04,object_05,499.19999999925,6,1,99.39999999851,0.4444444444444444,2,object_06,1,2807,0,3,4,library_8,1,memory-2step-stake-s,759,2736695,0.0-19.0-0.1-0.252,A28T38MOUG43YD,3HRWUH63RXIZS6U0Z3EY966PXK25N4,3WI0P0II658IX0ZFXII05MVE5ANDR3,6,5
253,2,object_08,object_10,602.80000000075,4,1,70.10000000149,0.4444444444444444,2,object_06,1,2811,0,4,4,forest_4,1,memory-2step-stake-s,760,2744409,0.0-19.0-0.1-0.253,A28T38MOUG43YD,3HRWUH63RXIZS6U0Z3EY966PXK25N4,3WI0P0II658IX0ZFXII05MVE5ANDR3,4,3
254,3,object_05,object_04,472.0,6,2,153.40000000037,0.4444444444444444,2,object_06,5,2831,0,6,4,library_1,1,memory-2step-stake-s,761,2752204,0.0-19.0-0.1-0.254,A28T38MOUG43YD,3HRWUH63RXIZS6U0Z3EY966PXK25N4,3WI0P0II658IX0ZFXII05MVE5ANDR3,5,6
255,1,object_07,object_03,613.70000000112,2,2,677.90000000037,0.3333333333333333,2,object_06,1,2834,0,6,3,desert_4,1,memory-2step-stake-s,762,2760412,0.0-19.0-0.1-0.255,A28T38MOUG43YD,3HRWUH63RXIZS6U0Z3EY966PXK25N4,3WI0P0II658IX0ZFXII05MVE5ANDR3,1,2
