,state1,stim_left,stim_right,rt_1,choice1,response1,rt_2,points,state2,stim_state2,stake,score,practice,rews1,rews2,background,high_arm,trial_type,trial_index,time_elapsed,internal_node_id,subid,hitid,assignmentid,stim_left_num,stim_right_num
0,1,object_06,object_03,406.09999996424,2,2,920.60000002384,0.2222222222222222,2,object_02,5,10,0,1,2,desert_5,2,memory-2step-stake-s,493,1042023,0.0-19.0-0.0-0.0,A17KN7NAP48L4B,3X4Q1O9UCK2WXV8VOBT8MFKQE0B7O9,3RXPCZQMQTRXGFAP1E4T5GGYE6PG14,1,2
1,4,object_07,object_08,819.80000001192,7,1,869.5,0.2222222222222222,1,object_09,5,20,0,2,1,restaurant_7,2,memory-2step-stake-s,494,1050310,0.0-19.0-0.0-0.1,A17KN7NAP48L4B,3X4Q1O9UCK2WXV8VOBT8MFKQE0B7O9,3RXPCZQMQTRXGFAP1E4T5GGYE6PG14,7,8
2,3,object_01,object_10,1012.9000000358,6,2,950.69999998808,0.2222222222222222,2,object_02,1,22,0,3,2,library_3,2,memory-2step-stake-s,495,1058678,0.0-19.0-0.0-0.2,A17KN7NAP48L4B,3X4Q1O9UCK2WXV8VOBT8MFKQE0B7O9,3RXPCZQMQTRXGFAP1E4T5GGYE6PG14,5,6
3,1,object_06,object_03,515.09999996424,1,1,476.80000001192,0.8888888888888888,1,object_09,5,62,0,8,4,desert_7,2,memory-2step-stake-s,496,1067186,0.0-19.0-0.0-0.3,A17KN7NAP48L4B,3X4Q1O9UCK2WXV8VOBT8MFKQE0B7O9,3RXPCZQMQTRXGFAP1E4T5GGYE6PG14,1,2
4,3,object_10,object_01,761.0,6,1,851.10000002384,0.8888888888888888,2,object_02,1,70,0,8,8,library_8,2,memory-2step-stake-s,497,1076061,0.0-19.0-0.0-0.4,A17KN7NAP48L4B,3X4Q1O9UCK2WXV8VOBT8MFKQE0B7O9,3RXPCZQMQTRXGFAP1E4T5GGYE6PG14,6,5
5,1,object_03,object_06,660.79999995232,1,2,589.89999997616,0.7777777777777778,1,object_09,5,105,0,7,8,desert_5,2,memory-2step-stake-s,498,1084579,0.0-19.0-0.0-0.5,A17KN7NAP48L4B,3X4Q1O9UCK2WXV8VOBT8MFKQE0B7O9,3RXPCZQMQTRXGFAP1E4T5GGYE6PG14,2,1
6,4,object_08,object_07,919.70000004768,8,1,649.40000003576,0.5555555555555556,2,object_02,1,110,0,8,5,restaurant_7,2,memory-2step-stake-s,499,1092952,0.0-19.0-0.0-0.6,A17KN7NAP48L4B,3X4Q1O9UCK2WXV8VOBT8MFKQE0B7O9,3RXPCZQMQTRXGFAP1E4T5GGYE6PG14,8,7
7,1,object_06,object_03,841.59999996424,1,1,621.19999998808,0.8888888888888888,1,object_09,5,150,0,8,6,desert_4,2,memory-2step-stake-s,500,1101598,0.0-19.0-0.0-0.7,A17KN7NAP48L4B,3X4Q1O9UCK2WXV8VOBT8MFKQE0B7O9,3RXPCZQMQTRXGFAP1E4T5GGYE6PG14,1,2
8,4,object_08,object_07,740.80000001192,7,2,415.89999997616,0.6666666666666666,1,object_09,1,156,0,6,7,restaurant_8,2,memory-2step-stake-s,501,1109835,0.0-19.0-0.0-0.8,A17KN7NAP48L4B,3X4Q1O9UCK2WXV8VOBT8MFKQE0B7O9,3RXPCZQMQTRXGFAP1E4T5GGYE6PG14,8,7
9,1,object_03,object_06,1222.6999999881,1,2,601.69999998808,0.6666666666666666,1,object_09,1,162,0,6,6,desert_1,2,memory-2step-stake-s,502,1118263,0.0-19.0-0.0-0.9,A17KN7NAP48L4B,3X4Q1O9UCK2WXV8VOBT8MFKQE0B7O9,3RXPCZQMQTRXGFAP1E4T5GGYE6PG14,2,1
10,1,object_06,object_03,1329.6000000238,1,1,645.5,0.5555555555555556,1,object_09,5,187,0,5,7,desert_1,2,memory-2step-stake-s,503,1126631,0.0-19.0-0.0-0.10,A17KN7NAP48L4B,3X4Q1O9UCK2WXV8VOBT8MFKQE0B7O9,3RXPCZQMQTRXGFAP1E4T5GGYE6PG14,1,2
11,2,object_04,object_05,1211.6999999881,4,2,718.80000001192,0.6666666666666666,2,object_02,5,217,0,4,6,forest_3,2,memory-2step-stake-s,504,1135172,0.0-19.0-0.0-0.11,A17KN7NAP48L4B,3X4Q1O9UCK2WXV8VOBT8MFKQE0B7O9,3RXPCZQMQTRXGFAP1E4T5GGYE6PG14,3,4
12,3,object_01,object_10,1318.1999999881,5,1,624.39999997616,0.3333333333333333,1,object_09,1,220,0,3,6,library_8,2,memory-2step-stake-s,505,1143317,0.0-19.0-0.0-0.12,A17KN7NAP48L4B,3X4Q1O9UCK2WXV8VOBT8MFKQE0B7O9,3RXPCZQMQTRXGFAP1E4T5GGYE6PG14,5,6
13,2,object_05,object_04,1229.7999999523,3,2,591.09999996424,0.0,1,object_09,5,220,0,0,3,forest_2,2,memory-2step-stake-s,506,1151125,0.0-19.0-0.0-0.13,A17KN7NAP48L4B,3X4Q1O9UCK2WXV8VOBT8MFKQE0B7O9,3RXPCZQMQTRXGFAP1E4T5GGYE6PG14,4,3
14,3,object_10,object_01,1069.5999999642,5,2,856.30000001192,0.4444444444444444,1,object_09,5,240,0,4,0,library_3,2,memory-2step-stake-s,507,1159601,0.0-19.0-0.0-0.14,A17KN7NAP48L4B,3X4Q1O9UCK2WXV8VOBT8MFKQE0B7O9,3RXPCZQMQTRXGFAP1E4T5GGYE6PG14,6,5
15,4,object_08,object_07,1176.1999999881,8,1,603.40000003576,0.0,2,object_02,1,240,0,6,0,restaurant_7,2,memory-2step-stake-s,508,1167420,0.0-19.0-0.0-0.15,A17KN7NAP48L4B,3X4Q1O9UCK2WXV8VOBT8MFKQE0B7O9,3RXPCZQMQTRXGFAP1E4T5GGYE6PG14,8,7
16,2,object_05,object_04,486.0,3,2,377.59999996424,1.0,1,object_09,1,249,0,9,2,forest_2,2,memory-2step-stake-s,509,1175924,0.0-19.0-0.0-0.16,A17KN7NAP48L4B,3X4Q1O9UCK2WXV8VOBT8MFKQE0B7O9,3RXPCZQMQTRXGFAP1E4T5GGYE6PG14,4,3
17,2,object_05,object_04,693.69999998808,3,2,504.80000001192,0.8888888888888888,1,object_09,5,289,0,8,1,forest_1,2,memory-2step-stake-s,510,1184455,0.0-19.0-0.0-0.17,A17KN7NAP48L4B,3X4Q1O9UCK2WXV8VOBT8MFKQE0B7O9,3RXPCZQMQTRXGFAP1E4T5GGYE6PG14,4,3
18,4,object_07,object_08,634.10000002384,8,2,557.90000003576,0.2222222222222222,2,object_02,1,291,0,7,2,restaurant_7,2,memory-2step-stake-s,511,1192431,0.0-19.0-0.0-0.18,A17KN7NAP48L4B,3X4Q1O9UCK2WXV8VOBT8MFKQE0B7O9,3RXPCZQMQTRXGFAP1E4T5GGYE6PG14,7,8
19,3,object_01,object_10,1155.3000000119,6,2,741.89999997616,0.3333333333333333,2,object_02,1,294,0,8,3,library_3,2,memory-2step-stake-s,512,1200692,0.0-19.0-0.0-0.19,A17KN7NAP48L4B,3X4Q1O9UCK2WXV8VOBT8MFKQE0B7O9,3RXPCZQMQTRXGFAP1E4T5GGYE6PG14,5,6
20,4,object_07,object_08,853.89999997616,7,1,614.30000001192,0.8888888888888888,1,object_09,1,302,0,8,1,restaurant_4,2,memory-2step-stake-s,513,1209337,0.0-19.0-0.0-0.20,A17KN7NAP48L4B,3X4Q1O9UCK2WXV8VOBT8MFKQE0B7O9,3RXPCZQMQTRXGFAP1E4T5GGYE6PG14,7,8
21,3,object_10,object_01,714.60000002384,5,2,622.29999995232,0.5555555555555556,1,object_09,1,307,0,5,2,library_1,2,memory-2step-stake-s,514,1217680,0.0-19.0-0.0-0.21,A17KN7NAP48L4B,3X4Q1O9UCK2WXV8VOBT8MFKQE0B7O9,3RXPCZQMQTRXGFAP1E4T5GGYE6PG14,6,5
22,2,object_04,object_05,547.19999998808,3,1,390.90000003576,0.7777777777777778,1,object_09,5,342,0,7,2,forest_1,2,memory-2step-stake-s,515,1225993,0.0-19.0-0.0-0.22,A17KN7NAP48L4B,3X4Q1O9UCK2WXV8VOBT8MFKQE0B7O9,3RXPCZQMQTRXGFAP1E4T5GGYE6PG14,3,4
23,4,object_07,object_08,754.19999998808,7,1,469.0,0.6666666666666666,1,object_09,1,348,0,6,3,restaurant_4,2,memory-2step-stake-s,516,1234283,0.0-19.0-0.0-0.23,A17KN7NAP48L4B,3X4Q1O9UCK2WXV8VOBT8MFKQE0B7O9,3RXPCZQMQTRXGFAP1E4T5GGYE6PG14,7,8
24,1,object_03,object_06,913.0,1,2,683.30000001192,0.7777777777777778,1,object_09,5,383,0,7,3,desert_1,2,memory-2step-stake-s,517,1242890,0.0-19.0-0.0-0.24,A17KN7NAP48L4B,3X4Q1O9UCK2WXV8VOBT8MFKQE0B7O9,3RXPCZQMQTRXGFAP1E4T5GGYE6PG14,2,1
25,2,object_05,object_04,608.5,3,2,331.40000003576,0.6666666666666666,1,object_09,5,413,0,6,3,forest_8,2,memory-2step-stake-s,518,1251045,0.0-19.0-0.0-0.25,A17KN7NAP48L4B,3X4Q1O9UCK2WXV8VOBT8MFKQE0B7O9,3RXPCZQMQTRXGFAP1E4T5GGYE6PG14,4,3
26,2,object_05,object_04,510.69999998808,3,2,345.0,0.8888888888888888,1,object_09,1,421,0,8,0,forest_8,2,memory-2step-stake-s,519,1259414,0.0-19.0-0.0-0.26,A17KN7NAP48L4B,3X4Q1O9UCK2WXV8VOBT8MFKQE0B7O9,3RXPCZQMQTRXGFAP1E4T5GGYE6PG14,4,3
27,3,object_10,object_01,653.19999998808,5,2,321.0,0.8888888888888888,1,object_09,1,429,0,8,2,library_6,2,memory-2step-stake-s,520,1267758,0.0-19.0-0.0-0.27,A17KN7NAP48L4B,3X4Q1O9UCK2WXV8VOBT8MFKQE0B7O9,3RXPCZQMQTRXGFAP1E4T5GGYE6PG14,6,5
28,2,object_04,object_05,620.69999998808,3,1,664.10000002384,0.8888888888888888,1,object_09,5,469,0,8,5,forest_1,2,memory-2step-stake-s,521,1276445,0.0-19.0-0.0-0.28,A17KN7NAP48L4B,3X4Q1O9UCK2WXV8VOBT8MFKQE0B7O9,3RXPCZQMQTRXGFAP1E4T5GGYE6PG14,3,4
29,3,object_01,object_10,589.19999998808,5,1,704.0,0.5555555555555556,1,object_09,1,474,0,5,6,library_1,2,memory-2step-stake-s,522,1284871,0.0-19.0-0.0-0.29,A17KN7NAP48L4B,3X4Q1O9UCK2WXV8VOBT8MFKQE0B7O9,3RXPCZQMQTRXGFAP1E4T5GGYE6PG14,5,6
30,2,object_04,object_05,483.40000003576,3,1,566.30000001192,0.7777777777777778,1,object_09,5,509,0,7,6,forest_8,2,memory-2step-stake-s,523,1293360,0.0-19.0-0.0-0.30,A17KN7NAP48L4B,3X4Q1O9UCK2WXV8VOBT8MFKQE0B7O9,3RXPCZQMQTRXGFAP1E4T5GGYE6PG14,3,4
31,3,object_10,object_01,554.09999996424,5,2,694.0,1.0,1,object_09,5,554,0,9,4,library_8,2,memory-2step-stake-s,524,1302180,0.0-19.0-0.0-0.31,A17KN7NAP48L4B,3X4Q1O9UCK2WXV8VOBT8MFKQE0B7O9,3RXPCZQMQTRXGFAP1E4T5GGYE6PG14,6,5
32,3,object_01,object_10,501.5,5,1,528.39999997616,0.8888888888888888,1,object_09,1,562,0,8,3,library_3,2,memory-2step-stake-s,525,1310734,0.0-19.0-0.0-0.32,A17KN7NAP48L4B,3X4Q1O9UCK2WXV8VOBT8MFKQE0B7O9,3RXPCZQMQTRXGFAP1E4T5GGYE6PG14,5,6
33,2,object_04,object_05,740.80000001192,3,1,383.40000003576,0.5555555555555556,1,object_09,1,567,0,5,2,forest_3,2,memory-2step-stake-s,526,1318837,0.0-19.0-0.0-0.33,A17KN7NAP48L4B,3X4Q1O9UCK2WXV8VOBT8MFKQE0B7O9,3RXPCZQMQTRXGFAP1E4T5GGYE6PG14,3,4
34,3,object_10,object_01,726.60000002384,5,2,618.29999995232,0.2222222222222222,1,object_09,5,577,0,2,3,library_6,2,memory-2step-stake-s,527,1326870,0.0-19.0-0.0-0.34,A17KN7NAP48L4B,3X4Q1O9UCK2WXV8VOBT8MFKQE0B7O9,3RXPCZQMQTRXGFAP1E4T5GGYE6PG14,6,5
35,1,object_06,object_03,868.09999996424,1,1,479.30000001192,0.2222222222222222,1,object_09,5,587,0,2,3,desert_5,2,memory-2step-stake-s,528,1334765,0.0-19.0-0.0-0.35,A17KN7NAP48L4B,3X4Q1O9UCK2WXV8VOBT8MFKQE0B7O9,3RXPCZQMQTRXGFAP1E4T5GGYE6PG14,1,2
36,2,object_04,object_05,709.69999998808,3,1,872.89999997616,0.1111111111111111,1,object_09,5,592,0,1,4,forest_1,2,memory-2step-stake-s,529,1342954,0.0-19.0-0.0-0.36,A17KN7NAP48L4B,3X4Q1O9UCK2WXV8VOBT8MFKQE0B7O9,3RXPCZQMQTRXGFAP1E4T5GGYE6PG14,3,4
37,3,object_10,object_01,680.10000002384,5,2,571.19999998808,0.1111111111111111,1,object_09,1,593,0,1,5,library_1,2,memory-2step-stake-s,530,1350841,0.0-19.0-0.0-0.37,A17KN7NAP48L4B,3X4Q1O9UCK2WXV8VOBT8MFKQE0B7O9,3RXPCZQMQTRXGFAP1E4T5GGYE6PG14,6,5
38,2,object_05,object_04,592.89999997616,3,2,611.09999996424,0.3333333333333333,1,object_09,5,608,0,3,3,forest_3,2,memory-2step-stake-s,531,1358972,0.0-19.0-0.0-0.38,A17KN7NAP48L4B,3X4Q1O9UCK2WXV8VOBT8MFKQE0B7O9,3RXPCZQMQTRXGFAP1E4T5GGYE6PG14,4,3
39,1,object_06,object_03,950.69999998808,1,1,985.5,0.5555555555555556,1,object_09,5,633,0,5,3,desert_4,2,memory-2step-stake-s,532,1367680,0.0-19.0-0.0-0.39,A17KN7NAP48L4B,3X4Q1O9UCK2WXV8VOBT8MFKQE0B7O9,3RXPCZQMQTRXGFAP1E4T5GGYE6PG14,1,2
40,3,object_01,object_10,866.69999998808,5,1,741.80000001192,0.4444444444444444,1,object_09,1,637,0,4,1,library_8,2,memory-2step-stake-s,533,1376041,0.0-19.0-0.0-0.40,A17KN7NAP48L4B,3X4Q1O9UCK2WXV8VOBT8MFKQE0B7O9,3RXPCZQMQTRXGFAP1E4T5GGYE6PG14,5,6
41,4,object_08,object_07,1177.1000000238,7,2,781.29999995232,0.5555555555555556,1,object_09,1,642,0,5,1,restaurant_7,2,memory-2step-stake-s,534,1384541,0.0-19.0-0.0-0.41,A17KN7NAP48L4B,3X4Q1O9UCK2WXV8VOBT8MFKQE0B7O9,3RXPCZQMQTRXGFAP1E4T5GGYE6PG14,8,7
42,2,object_05,object_04,604.5,3,2,688.19999998808,0.6666666666666666,1,object_09,5,672,0,6,4,forest_3,2,memory-2step-stake-s,535,1393052,0.0-19.0-0.0-0.42,A17KN7NAP48L4B,3X4Q1O9UCK2WXV8VOBT8MFKQE0B7O9,3RXPCZQMQTRXGFAP1E4T5GGYE6PG14,4,3
43,4,object_07,object_08,1101.5999999642,7,1,904.19999998808,1.0,1,object_09,1,681,0,9,4,restaurant_8,2,memory-2step-stake-s,536,1402085,0.0-19.0-0.0-0.43,A17KN7NAP48L4B,3X4Q1O9UCK2WXV8VOBT8MFKQE0B7O9,3RXPCZQMQTRXGFAP1E4T5GGYE6PG14,7,8
44,1,object_03,object_06,741.0,1,2,807.5,0.6666666666666666,1,object_09,5,711,0,6,4,desert_5,2,memory-2step-stake-s,537,1410715,0.0-19.0-0.0-0.44,A17KN7NAP48L4B,3X4Q1O9UCK2WXV8VOBT8MFKQE0B7O9,3RXPCZQMQTRXGFAP1E4T5GGYE6PG14,2,1
45,2,object_05,object_04,703.39999997616,3,2,834.59999996424,0.4444444444444444,1,object_09,5,731,0,4,1,forest_8,2,memory-2step-stake-s,538,1419169,0.0-19.0-0.0-0.45,A17KN7NAP48L4B,3X4Q1O9UCK2WXV8VOBT8MFKQE0B7O9,3RXPCZQMQTRXGFAP1E4T5GGYE6PG14,4,3
46,4,object_08,object_07,665.19999998808,7,2,668.60000002384,0.3333333333333333,1,object_09,5,746,0,3,2,restaurant_1,2,memory-2step-stake-s,539,1427356,0.0-19.0-0.0-0.46,A17KN7NAP48L4B,3X4Q1O9UCK2WXV8VOBT8MFKQE0B7O9,3RXPCZQMQTRXGFAP1E4T5GGYE6PG14,8,7
47,4,object_08,object_07,567.29999995232,7,2,666.0,0.4444444444444444,1,object_09,1,750,0,4,2,restaurant_1,2,memory-2step-stake-s,540,1435640,0.0-19.0-0.0-0.47,A17KN7NAP48L4B,3X4Q1O9UCK2WXV8VOBT8MFKQE0B7O9,3RXPCZQMQTRXGFAP1E4T5GGYE6PG14,8,7
48,4,object_07,object_08,826.19999998808,7,1,565.59999996424,0.4444444444444444,1,object_09,1,754,0,4,0,restaurant_1,2,memory-2step-stake-s,541,1443823,0.0-19.0-0.0-0.48,A17KN7NAP48L4B,3X4Q1O9UCK2WXV8VOBT8MFKQE0B7O9,3RXPCZQMQTRXGFAP1E4T5GGYE6PG14,7,8
49,3,object_10,object_01,1138.3999999762,5,2,710.19999998808,0.5555555555555556,1,object_09,1,759,0,5,1,library_6,2,memory-2step-stake-s,542,1452253,0.0-19.0-0.0-0.49,A17KN7NAP48L4B,3X4Q1O9UCK2WXV8VOBT8MFKQE0B7O9,3RXPCZQMQTRXGFAP1E4T5GGYE6PG14,6,5
50,1,object_03,object_06,925.09999996424,1,2,616.5,0.3333333333333333,1,object_09,5,774,0,3,1,desert_7,2,memory-2step-stake-s,543,1460388,0.0-19.0-0.0-0.50,A17KN7NAP48L4B,3X4Q1O9UCK2WXV8VOBT8MFKQE0B7O9,3RXPCZQMQTRXGFAP1E4T5GGYE6PG14,2,1
51,4,object_08,object_07,622.40000003576,7,2,657.39999997616,0.4444444444444444,1,object_09,1,778,0,4,3,restaurant_4,2,memory-2step-stake-s,544,1468666,0.0-19.0-0.0-0.51,A17KN7NAP48L4B,3X4Q1O9UCK2WXV8VOBT8MFKQE0B7O9,3RXPCZQMQTRXGFAP1E4T5GGYE6PG14,8,7
52,4,object_07,object_08,1017.2999999523,7,1,716.69999998808,0.4444444444444444,1,object_09,1,782,0,4,0,restaurant_4,2,memory-2step-stake-s,545,1477001,0.0-19.0-0.0-0.52,A17KN7NAP48L4B,3X4Q1O9UCK2WXV8VOBT8MFKQE0B7O9,3RXPCZQMQTRXGFAP1E4T5GGYE6PG14,7,8
53,3,object_01,object_10,737.30000001192,5,1,741.30000001192,0.7777777777777778,1,object_09,1,789,0,7,1,library_3,2,memory-2step-stake-s,546,1485663,0.0-19.0-0.0-0.53,A17KN7NAP48L4B,3X4Q1O9UCK2WXV8VOBT8MFKQE0B7O9,3RXPCZQMQTRXGFAP1E4T5GGYE6PG14,5,6
54,3,object_10,object_01,467.80000001192,5,2,718.79999995232,0.5555555555555556,1,object_09,1,794,0,5,1,library_8,2,memory-2step-stake-s,547,1494103,0.0-19.0-0.0-0.54,A17KN7NAP48L4B,3X4Q1O9UCK2WXV8VOBT8MFKQE0B7O9,3RXPCZQMQTRXGFAP1E4T5GGYE6PG14,6,5
55,1,object_03,object_06,619.19999998808,1,2,326.60000002384,0.7777777777777778,1,object_09,5,829,0,7,2,desert_7,2,memory-2step-stake-s,548,1502350,0.0-19.0-0.0-0.55,A17KN7NAP48L4B,3X4Q1O9UCK2WXV8VOBT8MFKQE0B7O9,3RXPCZQMQTRXGFAP1E4T5GGYE6PG14,2,1
56,1,object_03,object_06,571.5,1,2,406.19999998808,0.8888888888888888,1,object_09,1,837,0,8,0,desert_1,2,memory-2step-stake-s,549,1510783,0.0-19.0-0.0-0.56,A17KN7NAP48L4B,3X4Q1O9UCK2WXV8VOBT8MFKQE0B7O9,3RXPCZQMQTRXGFAP1E4T5GGYE6PG14,2,1
57,1,object_03,object_06,499.29999995232,1,2,654.5,0.8888888888888888,1,object_09,5,877,0,8,0,desert_7,2,memory-2step-stake-s,550,1519461,0.0-19.0-0.0-0.57,A17KN7NAP48L4B,3X4Q1O9UCK2WXV8VOBT8MFKQE0B7O9,3RXPCZQMQTRXGFAP1E4T5GGYE6PG14,2,1
58,4,object_08,object_07,620.30000001192,7,2,543.0,0.8888888888888888,1,object_09,1,885,0,8,1,restaurant_8,2,memory-2step-stake-s,551,1528032,0.0-19.0-0.0-0.58,A17KN7NAP48L4B,3X4Q1O9UCK2WXV8VOBT8MFKQE0B7O9,3RXPCZQMQTRXGFAP1E4T5GGYE6PG14,8,7
59,2,object_04,object_05,691.0,3,1,574.69999998808,0.6666666666666666,1,object_09,5,915,0,6,0,forest_2,2,memory-2step-stake-s,552,1536426,0.0-19.0-0.0-0.59,A17KN7NAP48L4B,3X4Q1O9UCK2WXV8VOBT8MFKQE0B7O9,3RXPCZQMQTRXGFAP1E4T5GGYE6PG14,3,4
60,3,object_01,object_10,640.5,5,1,643.90000003576,0.6666666666666666,1,object_09,1,921,0,6,3,library_6,2,memory-2step-stake-s,553,1544892,0.0-19.0-0.0-0.60,A17KN7NAP48L4B,3X4Q1O9UCK2WXV8VOBT8MFKQE0B7O9,3RXPCZQMQTRXGFAP1E4T5GGYE6PG14,5,6
61,2,object_04,object_05,526.59999996424,3,1,513.10000002384,0.3333333333333333,1,object_09,5,936,0,3,3,forest_2,2,memory-2step-stake-s,554,1552922,0.0-19.0-0.0-0.61,A17KN7NAP48L4B,3X4Q1O9UCK2WXV8VOBT8MFKQE0B7O9,3RXPCZQMQTRXGFAP1E4T5GGYE6PG14,3,4
62,2,object_05,object_04,663.69999998808,3,2,586.80000001192,0.1111111111111111,1,object_09,5,941,0,1,4,forest_2,2,memory-2step-stake-s,555,1560826,0.0-19.0-0.0-0.62,A17KN7NAP48L4B,3X4Q1O9UCK2WXV8VOBT8MFKQE0B7O9,3RXPCZQMQTRXGFAP1E4T5GGYE6PG14,4,3
63,3,object_01,object_10,511.60000002384,5,1,403.30000001192,0.1111111111111111,1,object_09,5,946,0,1,4,library_3,2,memory-2step-stake-s,556,1568546,0.0-19.0-0.0-0.63,A17KN7NAP48L4B,3X4Q1O9UCK2WXV8VOBT8MFKQE0B7O9,3RXPCZQMQTRXGFAP1E4T5GGYE6PG14,5,6
64,3,object_10,object_01,664.39999997616,5,2,363.89999997616,0.3333333333333333,1,object_09,1,949,0,3,2,library_6,2,memory-2step-stake-s,557,1576428,0.0-19.0-0.0-0.64,A17KN7NAP48L4B,3X4Q1O9UCK2WXV8VOBT8MFKQE0B7O9,3RXPCZQMQTRXGFAP1E4T5GGYE6PG14,6,5
65,4,object_08,object_07,647.60000002384,7,2,330.69999998808,0.2222222222222222,1,object_09,1,951,0,2,2,restaurant_4,2,memory-2step-stake-s,558,1584176,0.0-19.0-0.0-0.65,A17KN7NAP48L4B,3X4Q1O9UCK2WXV8VOBT8MFKQE0B7O9,3RXPCZQMQTRXGFAP1E4T5GGYE6PG14,8,7
66,3,object_10,object_01,561.90000003576,5,2,540.89999997616,0.1111111111111111,1,object_09,1,952,0,1,1,library_3,2,memory-2step-stake-s,559,1592034,0.0-19.0-0.0-0.66,A17KN7NAP48L4B,3X4Q1O9UCK2WXV8VOBT8MFKQE0B7O9,3RXPCZQMQTRXGFAP1E4T5GGYE6PG14,6,5
67,2,object_05,object_04,641.70000004768,4,1,277.19999998808,0.1111111111111111,2,object_02,5,957,0,2,1,forest_1,2,memory-2step-stake-s,560,1599626,0.0-19.0-0.0-0.67,A17KN7NAP48L4B,3X4Q1O9UCK2WXV8VOBT8MFKQE0B7O9,3RXPCZQMQTRXGFAP1E4T5GGYE6PG14,4,3
68,2,object_05,object_04,577.0,4,1,315.19999998808,0.1111111111111111,2,object_02,5,962,0,6,1,forest_1,2,memory-2step-stake-s,561,1607257,0.0-19.0-0.0-0.68,A17KN7NAP48L4B,3X4Q1O9UCK2WXV8VOBT8MFKQE0B7O9,3RXPCZQMQTRXGFAP1E4T5GGYE6PG14,4,3
69,2,object_04,object_05,658.0,3,1,315.0,1.0,1,object_09,5,1007,0,9,1,forest_3,2,memory-2step-stake-s,562,1615700,0.0-19.0-0.0-0.69,A17KN7NAP48L4B,3X4Q1O9UCK2WXV8VOBT8MFKQE0B7O9,3RXPCZQMQTRXGFAP1E4T5GGYE6PG14,3,4
70,1,object_06,object_03,670.5,1,1,329.60000002384,0.7777777777777778,1,object_09,5,1042,0,7,1,desert_4,2,memory-2step-stake-s,563,1623955,0.0-19.0-0.0-0.70,A17KN7NAP48L4B,3X4Q1O9UCK2WXV8VOBT8MFKQE0B7O9,3RXPCZQMQTRXGFAP1E4T5GGYE6PG14,1,2
71,3,object_01,object_10,640.89999997616,5,1,315.0,0.4444444444444444,1,object_09,5,1062,0,4,0,library_6,2,memory-2step-stake-s,564,1631890,0.0-19.0-0.0-0.71,A17KN7NAP48L4B,3X4Q1O9UCK2WXV8VOBT8MFKQE0B7O9,3RXPCZQMQTRXGFAP1E4T5GGYE6PG14,5,6
72,2,object_05,object_04,496.09999996424,3,2,379.79999995232,0.3333333333333333,1,object_09,5,1077,0,3,1,forest_1,2,memory-2step-stake-s,565,1639788,0.0-19.0-0.0-0.72,A17KN7NAP48L4B,3X4Q1O9UCK2WXV8VOBT8MFKQE0B7O9,3RXPCZQMQTRXGFAP1E4T5GGYE6PG14,4,3
73,2,object_04,object_05,582.60000002384,3,1,840.59999996424,0.3333333333333333,1,object_09,1,1080,0,3,0,forest_8,2,memory-2step-stake-s,566,1648151,0.0-19.0-0.0-0.73,A17KN7NAP48L4B,3X4Q1O9UCK2WXV8VOBT8MFKQE0B7O9,3RXPCZQMQTRXGFAP1E4T5GGYE6PG14,3,4
74,3,object_10,object_01,595.90000003576,5,2,477.39999997616,0.1111111111111111,1,object_09,1,1081,0,1,1,library_8,2,memory-2step-stake-s,567,1655946,0.0-19.0-0.0-0.74,A17KN7NAP48L4B,3X4Q1O9UCK2WXV8VOBT8MFKQE0B7O9,3RXPCZQMQTRXGFAP1E4T5GGYE6PG14,6,5
75,1,object_06,object_03,600.59999996424,1,1,523.5,0.5555555555555556,1,object_09,5,1106,0,5,0,desert_7,2,memory-2step-stake-s,568,1664193,0.0-19.0-0.0-0.75,A17KN7NAP48L4B,3X4Q1O9UCK2WXV8VOBT8MFKQE0B7O9,3RXPCZQMQTRXGFAP1E4T5GGYE6PG14,1,2
76,1,object_06,object_03,882.59999996424,1,1,565.0,0.4444444444444444,1,object_09,5,1126,0,4,3,desert_1,2,memory-2step-stake-s,569,1672379,0.0-19.0-0.0-0.76,A17KN7NAP48L4B,3X4Q1O9UCK2WXV8VOBT8MFKQE0B7O9,3RXPCZQMQTRXGFAP1E4T5GGYE6PG14,1,2
77,4,object_07,object_08,560.09999996424,7,1,595.80000001192,0.0,1,object_09,1,1126,0,0,5,restaurant_8,2,memory-2step-stake-s,570,1680188,0.0-19.0-0.0-0.77,A17KN7NAP48L4B,3X4Q1O9UCK2WXV8VOBT8MFKQE0B7O9,3RXPCZQMQTRXGFAP1E4T5GGYE6PG14,7,8
78,4,object_07,object_08,623.30000001192,7,1,282.40000003576,0.3333333333333333,1,object_09,1,1129,0,3,4,restaurant_8,2,memory-2step-stake-s,571,1687988,0.0-19.0-0.0-0.78,A17KN7NAP48L4B,3X4Q1O9UCK2WXV8VOBT8MFKQE0B7O9,3RXPCZQMQTRXGFAP1E4T5GGYE6PG14,7,8
79,2,object_05,object_04,806.39999997616,3,2,385.80000001192,0.7777777777777778,1,object_09,5,1164,0,7,4,forest_2,2,memory-2step-stake-s,572,1696298,0.0-19.0-0.0-0.79,A17KN7NAP48L4B,3X4Q1O9UCK2WXV8VOBT8MFKQE0B7O9,3RXPCZQMQTRXGFAP1E4T5GGYE6PG14,4,3
80,1,object_06,object_03,521.19999998808,1,1,341.40000003576,0.4444444444444444,1,object_09,5,1184,0,4,4,desert_7,2,memory-2step-stake-s,573,1704258,0.0-19.0-0.0-0.80,A17KN7NAP48L4B,3X4Q1O9UCK2WXV8VOBT8MFKQE0B7O9,3RXPCZQMQTRXGFAP1E4T5GGYE6PG14,1,2
81,4,object_07,object_08,695.80000001192,7,1,378.5,0.1111111111111111,1,object_09,1,1185,0,1,2,restaurant_4,2,memory-2step-stake-s,574,1711954,0.0-19.0-0.0-0.81,A17KN7NAP48L4B,3X4Q1O9UCK2WXV8VOBT8MFKQE0B7O9,3RXPCZQMQTRXGFAP1E4T5GGYE6PG14,7,8
82,1,object_06,object_03,521.29999995232,1,1,276.59999996424,0.2222222222222222,1,object_09,5,1195,0,2,2,desert_4,2,memory-2step-stake-s,575,1719647,0.0-19.0-0.0-0.82,A17KN7NAP48L4B,3X4Q1O9UCK2WXV8VOBT8MFKQE0B7O9,3RXPCZQMQTRXGFAP1E4T5GGYE6PG14,1,2
83,4,object_07,object_08,443.60000002384,8,2,318.69999998808,0.0,2,object_02,1,1195,0,1,0,restaurant_7,2,memory-2step-stake-s,576,1727179,0.0-19.0-0.0-0.83,A17KN7NAP48L4B,3X4Q1O9UCK2WXV8VOBT8MFKQE0B7O9,3RXPCZQMQTRXGFAP1E4T5GGYE6PG14,7,8
84,3,object_10,object_01,608.19999998808,5,2,339.90000003576,0.2222222222222222,1,object_09,5,1205,0,2,0,library_6,2,memory-2step-stake-s,577,1734935,0.0-19.0-0.0-0.84,A17KN7NAP48L4B,3X4Q1O9UCK2WXV8VOBT8MFKQE0B7O9,3RXPCZQMQTRXGFAP1E4T5GGYE6PG14,6,5
85,2,object_04,object_05,652.5,3,1,350.69999998808,0.3333333333333333,1,object_09,1,1208,0,3,1,forest_8,2,memory-2step-stake-s,578,1742802,0.0-19.0-0.0-0.85,A17KN7NAP48L4B,3X4Q1O9UCK2WXV8VOBT8MFKQE0B7O9,3RXPCZQMQTRXGFAP1E4T5GGYE6PG14,3,4
86,2,object_05,object_04,554.09999996424,3,2,389.69999998808,0.2222222222222222,1,object_09,1,1210,0,2,4,forest_1,2,memory-2step-stake-s,579,1750605,0.0-19.0-0.0-0.86,A17KN7NAP48L4B,3X4Q1O9UCK2WXV8VOBT8MFKQE0B7O9,3RXPCZQMQTRXGFAP1E4T5GGYE6PG14,4,3
87,1,object_03,object_06,607.10000002384,1,2,258.29999995232,0.2222222222222222,1,object_09,5,1220,0,2,2,desert_5,2,memory-2step-stake-s,580,1758280,0.0-19.0-0.0-0.87,A17KN7NAP48L4B,3X4Q1O9UCK2WXV8VOBT8MFKQE0B7O9,3RXPCZQMQTRXGFAP1E4T5GGYE6PG14,2,1
88,3,object_01,object_10,595.39999997616,5,1,341.0,0.2222222222222222,1,object_09,1,1222,0,2,2,library_3,2,memory-2step-stake-s,581,1766038,0.0-19.0-0.0-0.88,A17KN7NAP48L4B,3X4Q1O9UCK2WXV8VOBT8MFKQE0B7O9,3RXPCZQMQTRXGFAP1E4T5GGYE6PG14,5,6
89,3,object_10,object_01,613.80000001192,6,1,264.19999998808,0.3333333333333333,2,object_02,1,1225,0,1,3,library_6,2,memory-2step-stake-s,582,1773819,0.0-19.0-0.0-0.89,A17KN7NAP48L4B,3X4Q1O9UCK2WXV8VOBT8MFKQE0B7O9,3RXPCZQMQTRXGFAP1E4T5GGYE6PG14,6,5
90,4,object_07,object_08,456.19999998808,8,2,315.89999997616,0.5555555555555556,2,object_02,1,1230,0,3,5,restaurant_8,2,memory-2step-stake-s,583,1781854,0.0-19.0-0.0-0.90,A17KN7NAP48L4B,3X4Q1O9UCK2WXV8VOBT8MFKQE0B7O9,3RXPCZQMQTRXGFAP1E4T5GGYE6PG14,7,8
91,4,object_08,object_07,525.29999995232,8,1,288.60000002384,0.3333333333333333,2,object_02,5,1245,0,7,3,restaurant_7,2,memory-2step-stake-s,584,1789659,0.0-19.0-0.0-0.91,A17KN7NAP48L4B,3X4Q1O9UCK2WXV8VOBT8MFKQE0B7O9,3RXPCZQMQTRXGFAP1E4T5GGYE6PG14,8,7
92,3,object_01,object_10,535.0,5,1,305.30000001192,0.8888888888888888,1,object_09,1,1253,0,8,4,library_1,2,memory-2step-stake-s,585,1797990,0.0-19.0-0.0-0.92,A17KN7NAP48L4B,3X4Q1O9UCK2WXV8VOBT8MFKQE0B7O9,3RXPCZQMQTRXGFAP1E4T5GGYE6PG14,5,6
93,1,object_03,object_06,725.19999998808,1,2,280.5,0.6666666666666666,1,object_09,5,1283,0,6,6,desert_4,2,memory-2step-stake-s,586,1806093,0.0-19.0-0.0-0.93,A17KN7NAP48L4B,3X4Q1O9UCK2WXV8VOBT8MFKQE0B7O9,3RXPCZQMQTRXGFAP1E4T5GGYE6PG14,2,1
94,1,object_06,object_03,486.0,1,1,288.19999998808,0.2222222222222222,1,object_09,5,1293,0,2,8,desert_1,2,memory-2step-stake-s,587,1813799,0.0-19.0-0.0-0.94,A17KN7NAP48L4B,3X4Q1O9UCK2WXV8VOBT8MFKQE0B7O9,3RXPCZQMQTRXGFAP1E4T5GGYE6PG14,1,2
95,4,object_08,object_07,716.30000001192,7,2,342.69999998808,0.4444444444444444,1,object_09,1,1297,0,4,9,restaurant_4,2,memory-2step-stake-s,588,1821763,0.0-19.0-0.0-0.95,A17KN7NAP48L4B,3X4Q1O9UCK2WXV8VOBT8MFKQE0B7O9,3RXPCZQMQTRXGFAP1E4T5GGYE6PG14,8,7
96,1,object_06,object_03,487.5,1,1,370.89999997616,0.4444444444444444,1,object_09,5,1317,0,4,8,desert_5,2,memory-2step-stake-s,589,1829753,0.0-19.0-0.0-0.96,A17KN7NAP48L4B,3X4Q1O9UCK2WXV8VOBT8MFKQE0B7O9,3RXPCZQMQTRXGFAP1E4T5GGYE6PG14,1,2
97,3,object_10,object_01,706.10000002384,5,2,557.90000003576,0.5555555555555556,1,object_09,1,1322,0,5,8,library_6,2,memory-2step-stake-s,590,1838031,0.0-19.0-0.0-0.97,A17KN7NAP48L4B,3X4Q1O9UCK2WXV8VOBT8MFKQE0B7O9,3RXPCZQMQTRXGFAP1E4T5GGYE6PG14,6,5
98,4,object_08,object_07,844.09999996424,7,2,407.90000003576,0.1111111111111111,1,object_09,5,1327,0,1,7,restaurant_7,2,memory-2step-stake-s,591,1845754,0.0-19.0-0.0-0.98,A17KN7NAP48L4B,3X4Q1O9UCK2WXV8VOBT8MFKQE0B7O9,3RXPCZQMQTRXGFAP1E4T5GGYE6PG14,8,7
99,4,object_08,object_07,481.40000003576,7,2,373.0,0.0,1,object_09,5,1327,0,0,7,restaurant_1,2,memory-2step-stake-s,592,1853340,0.0-19.0-0.0-0.99,A17KN7NAP48L4B,3X4Q1O9UCK2WXV8VOBT8MFKQE0B7O9,3RXPCZQMQTRXGFAP1E4T5GGYE6PG14,8,7
100,1,object_06,object_03,567.39999997616,2,2,362.29999995232,0.7777777777777778,2,object_02,5,1362,0,3,7,desert_7,2,memory-2step-stake-s,593,1861629,0.0-19.0-0.0-0.100,A17KN7NAP48L4B,3X4Q1O9UCK2WXV8VOBT8MFKQE0B7O9,3RXPCZQMQTRXGFAP1E4T5GGYE6PG14,1,2
101,3,object_10,object_01,606.0,6,1,687.89999997616,0.6666666666666666,2,object_02,1,1368,0,2,6,library_1,2,memory-2step-stake-s,594,1870140,0.0-19.0-0.0-0.101,A17KN7NAP48L4B,3X4Q1O9UCK2WXV8VOBT8MFKQE0B7O9,3RXPCZQMQTRXGFAP1E4T5GGYE6PG14,6,5
102,1,object_03,object_06,455.30000001192,2,1,433.59999996424,0.4444444444444444,2,object_02,5,1388,0,0,4,desert_7,2,memory-2step-stake-s,595,1878193,0.0-19.0-0.0-0.102,A17KN7NAP48L4B,3X4Q1O9UCK2WXV8VOBT8MFKQE0B7O9,3RXPCZQMQTRXGFAP1E4T5GGYE6PG14,2,1
103,1,object_06,object_03,433.09999996424,2,2,309.0,0.5555555555555556,2,object_02,5,1413,0,5,5,desert_1,2,memory-2step-stake-s,596,1886222,0.0-19.0-0.0-0.103,A17KN7NAP48L4B,3X4Q1O9UCK2WXV8VOBT8MFKQE0B7O9,3RXPCZQMQTRXGFAP1E4T5GGYE6PG14,1,2
104,4,object_08,object_07,453.19999998808,8,1,296.40000003576,0.4444444444444444,2,object_02,1,1417,0,0,4,restaurant_1,2,memory-2step-stake-s,597,1894138,0.0-19.0-0.0-0.104,A17KN7NAP48L4B,3X4Q1O9UCK2WXV8VOBT8MFKQE0B7O9,3RXPCZQMQTRXGFAP1E4T5GGYE6PG14,8,7
105,3,object_01,object_10,448.60000002384,5,1,290.60000002384,0.1111111111111111,1,object_09,1,1418,0,1,4,library_1,2,memory-2step-stake-s,598,1901744,0.0-19.0-0.0-0.105,A17KN7NAP48L4B,3X4Q1O9UCK2WXV8VOBT8MFKQE0B7O9,3RXPCZQMQTRXGFAP1E4T5GGYE6PG14,5,6
106,2,object_04,object_05,746.79999995232,4,2,389.10000002384,0.7777777777777778,2,object_02,5,1453,0,1,7,forest_2,2,memory-2step-stake-s,599,1910058,0.0-19.0-0.0-0.106,A17KN7NAP48L4B,3X4Q1O9UCK2WXV8VOBT8MFKQE0B7O9,3RXPCZQMQTRXGFAP1E4T5GGYE6PG14,3,4
107,1,object_06,object_03,608.40000003576,2,2,299.80000001192,0.6666666666666666,2,object_02,1,1459,0,0,6,desert_5,2,memory-2step-stake-s,600,1918181,0.0-19.0-0.0-0.107,A17KN7NAP48L4B,3X4Q1O9UCK2WXV8VOBT8MFKQE0B7O9,3RXPCZQMQTRXGFAP1E4T5GGYE6PG14,1,2
108,1,object_03,object_06,621.5,2,1,480.89999997616,0.7777777777777778,2,object_02,5,1494,0,2,7,desert_7,2,memory-2step-stake-s,601,1926586,0.0-19.0-0.0-0.108,A17KN7NAP48L4B,3X4Q1O9UCK2WXV8VOBT8MFKQE0B7O9,3RXPCZQMQTRXGFAP1E4T5GGYE6PG14,2,1
109,3,object_01,object_10,769.0,6,2,435.10000002384,0.5555555555555556,2,object_02,1,1499,0,1,5,library_3,2,memory-2step-stake-s,602,1934744,0.0-19.0-0.0-0.109,A17KN7NAP48L4B,3X4Q1O9UCK2WXV8VOBT8MFKQE0B7O9,3RXPCZQMQTRXGFAP1E4T5GGYE6PG14,5,6
110,4,object_07,object_08,594.89999997616,8,2,589.5,0.7777777777777778,2,object_02,5,1534,0,0,7,restaurant_8,2,memory-2step-stake-s,603,1943260,0.0-19.0-0.0-0.110,A17KN7NAP48L4B,3X4Q1O9UCK2WXV8VOBT8MFKQE0B7O9,3RXPCZQMQTRXGFAP1E4T5GGYE6PG14,7,8
111,3,object_01,object_10,807.09999996424,6,2,394.69999998808,0.8888888888888888,2,object_02,1,1542,0,1,8,library_3,2,memory-2step-stake-s,604,1951681,0.0-19.0-0.0-0.111,A17KN7NAP48L4B,3X4Q1O9UCK2WXV8VOBT8MFKQE0B7O9,3RXPCZQMQTRXGFAP1E4T5GGYE6PG14,5,6
112,1,object_03,object_06,954.30000001192,2,1,725.80000001192,0.8888888888888888,2,object_02,5,1582,0,0,8,desert_1,2,memory-2step-stake-s,605,1960428,0.0-19.0-0.0-0.112,A17KN7NAP48L4B,3X4Q1O9UCK2WXV8VOBT8MFKQE0B7O9,3RXPCZQMQTRXGFAP1E4T5GGYE6PG14,2,1
113,2,object_05,object_04,807.90000003576,4,1,723.0,0.7777777777777778,2,object_02,5,1617,0,1,7,forest_1,2,memory-2step-stake-s,606,1969075,0.0-19.0-0.0-0.113,A17KN7NAP48L4B,3X4Q1O9UCK2WXV8VOBT8MFKQE0B7O9,3RXPCZQMQTRXGFAP1E4T5GGYE6PG14,4,3
114,3,object_01,object_10,752.90000003576,6,2,819.0,0.7777777777777778,2,object_02,1,1624,0,1,7,library_8,2,memory-2step-stake-s,607,1977820,0.0-19.0-0.0-0.114,A17KN7NAP48L4B,3X4Q1O9UCK2WXV8VOBT8MFKQE0B7O9,3RXPCZQMQTRXGFAP1E4T5GGYE6PG14,5,6
115,3,object_10,object_01,727.10000002384,6,1,339.0,0.4444444444444444,2,object_02,1,1628,0,0,4,library_3,2,memory-2step-stake-s,608,1985778,0.0-19.0-0.0-0.115,A17KN7NAP48L4B,3X4Q1O9UCK2WXV8VOBT8MFKQE0B7O9,3RXPCZQMQTRXGFAP1E4T5GGYE6PG14,6,5
116,4,object_08,object_07,626.69999998808,8,1,325.89999997616,0.3333333333333333,2,object_02,5,1643,0,1,3,restaurant_4,2,memory-2step-stake-s,609,1993619,0.0-19.0-0.0-0.116,A17KN7NAP48L4B,3X4Q1O9UCK2WXV8VOBT8MFKQE0B7O9,3RXPCZQMQTRXGFAP1E4T5GGYE6PG14,8,7
117,1,object_03,object_06,615.80000001192,2,1,426.30000001192,0.5555555555555556,2,object_02,5,1668,0,0,5,desert_5,2,memory-2step-stake-s,610,2001766,0.0-19.0-0.0-0.117,A17KN7NAP48L4B,3X4Q1O9UCK2WXV8VOBT8MFKQE0B7O9,3RXPCZQMQTRXGFAP1E4T5GGYE6PG14,2,1
118,2,object_04,object_05,820.79999995232,4,2,376.30000001192,0.6666666666666666,2,object_02,5,1698,0,3,6,forest_2,2,memory-2step-stake-s,611,2009962,0.0-19.0-0.0-0.118,A17KN7NAP48L4B,3X4Q1O9UCK2WXV8VOBT8MFKQE0B7O9,3RXPCZQMQTRXGFAP1E4T5GGYE6PG14,3,4
119,3,object_10,object_01,761.80000001192,6,1,348.69999998808,1.0,2,object_02,1,1707,0,5,9,library_1,2,memory-2step-stake-s,612,2018436,0.0-19.0-0.0-0.119,A17KN7NAP48L4B,3X4Q1O9UCK2WXV8VOBT8MFKQE0B7O9,3RXPCZQMQTRXGFAP1E4T5GGYE6PG14,6,5
120,1,object_03,object_06,807.39999997616,2,1,355.09999996424,0.7777777777777778,2,object_02,5,1742,0,7,7,desert_7,2,memory-2step-stake-s,613,2026714,0.0-19.0-0.0-0.120,A17KN7NAP48L4B,3X4Q1O9UCK2WXV8VOBT8MFKQE0B7O9,3RXPCZQMQTRXGFAP1E4T5GGYE6PG14,2,1
121,3,object_01,object_10,617.0,6,2,387.69999998808,0.8888888888888888,2,object_02,5,1782,0,6,8,library_1,2,memory-2step-stake-s,614,2035124,0.0-19.0-0.0-0.121,A17KN7NAP48L4B,3X4Q1O9UCK2WXV8VOBT8MFKQE0B7O9,3RXPCZQMQTRXGFAP1E4T5GGYE6PG14,5,6
122,2,object_05,object_04,806.39999997616,4,1,449.5,0.7777777777777778,2,object_02,5,1817,0,6,7,forest_8,2,memory-2step-stake-s,615,2043497,0.0-19.0-0.0-0.122,A17KN7NAP48L4B,3X4Q1O9UCK2WXV8VOBT8MFKQE0B7O9,3RXPCZQMQTRXGFAP1E4T5GGYE6PG14,4,3
123,1,object_03,object_06,672.30000001192,2,1,946.5,0.7777777777777778,2,object_02,5,1852,0,7,7,desert_5,2,memory-2step-stake-s,616,2052367,0.0-19.0-0.0-0.123,A17KN7NAP48L4B,3X4Q1O9UCK2WXV8VOBT8MFKQE0B7O9,3RXPCZQMQTRXGFAP1E4T5GGYE6PG14,2,1
124,1,object_06,object_03,1011.0,2,2,613.90000003576,0.7777777777777778,2,object_02,1,1859,0,4,7,desert_4,2,memory-2step-stake-s,617,2060902,0.0-19.0-0.0-0.124,A17KN7NAP48L4B,3X4Q1O9UCK2WXV8VOBT8MFKQE0B7O9,3RXPCZQMQTRXGFAP1E4T5GGYE6PG14,1,2
125,2,object_05,object_04,732.29999995232,4,1,390.39999997616,0.7777777777777778,2,object_02,5,1894,0,3,7,forest_3,2,memory-2step-stake-s,618,2069217,0.0-19.0-0.0-0.125,A17KN7NAP48L4B,3X4Q1O9UCK2WXV8VOBT8MFKQE0B7O9,3RXPCZQMQTRXGFAP1E4T5GGYE6PG14,4,3
126,1,object_03,object_06,538.0,2,1,260.29999995232,0.6666666666666666,2,object_02,5,1924,0,2,6,desert_1,2,memory-2step-stake-s,619,2077302,0.0-19.0-0.0-0.126,A17KN7NAP48L4B,3X4Q1O9UCK2WXV8VOBT8MFKQE0B7O9,3RXPCZQMQTRXGFAP1E4T5GGYE6PG14,2,1
127,3,object_01,object_10,604.39999997616,6,2,272.19999998808,0.5555555555555556,2,object_02,1,1929,0,1,5,library_8,2,memory-2step-stake-s,620,2085296,0.0-19.0-0.0-0.127,A17KN7NAP48L4B,3X4Q1O9UCK2WXV8VOBT8MFKQE0B7O9,3RXPCZQMQTRXGFAP1E4T5GGYE6PG14,5,6
128,2,object_04,object_05,1038.8999999762,4,2,480.90000003576,0.4444444444444444,2,object_02,5,1949,0,3,4,forest_1,2,memory-2step-stake-s,622,2375394,0.0-19.0-0.1-0.128,A17KN7NAP48L4B,3X4Q1O9UCK2WXV8VOBT8MFKQE0B7O9,3RXPCZQMQTRXGFAP1E4T5GGYE6PG14,3,4
129,1,object_03,object_06,593.19999998808,2,1,371.79999995232,0.2222222222222222,2,object_02,5,1959,0,4,2,desert_7,2,memory-2step-stake-s,623,2383183,0.0-19.0-0.1-0.129,A17KN7NAP48L4B,3X4Q1O9UCK2WXV8VOBT8MFKQE0B7O9,3RXPCZQMQTRXGFAP1E4T5GGYE6PG14,2,1
130,2,object_05,object_04,739.19999998808,4,1,422.69999998808,0.4444444444444444,2,object_02,5,1979,0,6,4,forest_3,2,memory-2step-stake-s,624,2391225,0.0-19.0-0.1-0.130,A17KN7NAP48L4B,3X4Q1O9UCK2WXV8VOBT8MFKQE0B7O9,3RXPCZQMQTRXGFAP1E4T5GGYE6PG14,4,3
131,2,object_04,object_05,730.09999996424,4,2,318.0,0.3333333333333333,2,object_02,5,1994,0,5,3,forest_8,2,memory-2step-stake-s,625,2399059,0.0-19.0-0.1-0.131,A17KN7NAP48L4B,3X4Q1O9UCK2WXV8VOBT8MFKQE0B7O9,3RXPCZQMQTRXGFAP1E4T5GGYE6PG14,3,4
132,1,object_06,object_03,879.5,1,1,249.0,0.5555555555555556,1,object_09,5,2019,0,5,3,desert_1,2,memory-2step-stake-s,626,2407032,0.0-19.0-0.1-0.132,A17KN7NAP48L4B,3X4Q1O9UCK2WXV8VOBT8MFKQE0B7O9,3RXPCZQMQTRXGFAP1E4T5GGYE6PG14,1,2
133,1,object_06,object_03,482.5,1,1,404.5,0.3333333333333333,1,object_09,5,2034,0,3,4,desert_4,2,memory-2step-stake-s,627,2414957,0.0-19.0-0.1-0.133,A17KN7NAP48L4B,3X4Q1O9UCK2WXV8VOBT8MFKQE0B7O9,3RXPCZQMQTRXGFAP1E4T5GGYE6PG14,1,2
134,4,object_08,object_07,574.5,7,2,297.40000003576,0.0,1,object_09,1,2034,0,0,4,restaurant_4,2,memory-2step-stake-s,628,2422468,0.0-19.0-0.1-0.134,A17KN7NAP48L4B,3X4Q1O9UCK2WXV8VOBT8MFKQE0B7O9,3RXPCZQMQTRXGFAP1E4T5GGYE6PG14,8,7
135,1,object_03,object_06,520.19999998808,2,1,282.90000003576,0.2222222222222222,2,object_02,5,2044,0,3,2,desert_1,2,memory-2step-stake-s,629,2430166,0.0-19.0-0.1-0.135,A17KN7NAP48L4B,3X4Q1O9UCK2WXV8VOBT8MFKQE0B7O9,3RXPCZQMQTRXGFAP1E4T5GGYE6PG14,2,1
136,3,object_10,object_01,915.09999996424,6,1,263.0,0.4444444444444444,2,object_02,1,2048,0,5,4,library_3,2,memory-2step-stake-s,630,2438050,0.0-19.0-0.1-0.136,A17KN7NAP48L4B,3X4Q1O9UCK2WXV8VOBT8MFKQE0B7O9,3RXPCZQMQTRXGFAP1E4T5GGYE6PG14,6,5
137,2,object_04,object_05,560.80000001192,3,1,289.89999997616,0.4444444444444444,1,object_09,5,2068,0,4,2,forest_2,2,memory-2step-stake-s,631,2445962,0.0-19.0-0.1-0.137,A17KN7NAP48L4B,3X4Q1O9UCK2WXV8VOBT8MFKQE0B7O9,3RXPCZQMQTRXGFAP1E4T5GGYE6PG14,3,4
138,4,object_07,object_08,881.60000002384,8,2,276.5,0.4444444444444444,2,object_02,1,2072,0,4,4,restaurant_1,2,memory-2step-stake-s,632,2453856,0.0-19.0-0.1-0.138,A17KN7NAP48L4B,3X4Q1O9UCK2WXV8VOBT8MFKQE0B7O9,3RXPCZQMQTRXGFAP1E4T5GGYE6PG14,7,8
139,1,object_06,object_03,579.40000003576,1,1,334.39999997616,0.3333333333333333,1,object_09,5,2087,0,3,5,desert_1,2,memory-2step-stake-s,633,2461708,0.0-19.0-0.1-0.139,A17KN7NAP48L4B,3X4Q1O9UCK2WXV8VOBT8MFKQE0B7O9,3RXPCZQMQTRXGFAP1E4T5GGYE6PG14,1,2
140,1,object_06,object_03,718.5,2,2,313.60000002384,0.6666666666666666,2,object_02,5,2117,0,2,6,desert_7,2,memory-2step-stake-s,634,2469843,0.0-19.0-0.1-0.140,A17KN7NAP48L4B,3X4Q1O9UCK2WXV8VOBT8MFKQE0B7O9,3RXPCZQMQTRXGFAP1E4T5GGYE6PG14,1,2
141,4,object_08,object_07,496.39999997616,8,1,305.69999998808,0.6666666666666666,2,object_02,1,2123,0,2,6,restaurant_8,2,memory-2step-stake-s,635,2477972,0.0-19.0-0.1-0.141,A17KN7NAP48L4B,3X4Q1O9UCK2WXV8VOBT8MFKQE0B7O9,3RXPCZQMQTRXGFAP1E4T5GGYE6PG14,8,7
142,3,object_10,object_01,671.30000001192,6,1,435.19999998808,0.8888888888888888,2,object_02,1,2131,0,1,8,library_8,2,memory-2step-stake-s,636,2486429,0.0-19.0-0.1-0.142,A17KN7NAP48L4B,3X4Q1O9UCK2WXV8VOBT8MFKQE0B7O9,3RXPCZQMQTRXGFAP1E4T5GGYE6PG14,6,5
143,3,object_10,object_01,566.60000002384,6,1,328.0,0.5555555555555556,2,object_02,1,2136,0,2,5,library_3,2,memory-2step-stake-s,637,2494482,0.0-19.0-0.1-0.143,A17KN7NAP48L4B,3X4Q1O9UCK2WXV8VOBT8MFKQE0B7O9,3RXPCZQMQTRXGFAP1E4T5GGYE6PG14,6,5
144,4,object_08,object_07,625.20000004768,8,1,299.30000001192,0.4444444444444444,2,object_02,1,2140,0,0,4,restaurant_7,2,memory-2step-stake-s,638,2502400,0.0-19.0-0.1-0.144,A17KN7NAP48L4B,3X4Q1O9UCK2WXV8VOBT8MFKQE0B7O9,3RXPCZQMQTRXGFAP1E4T5GGYE6PG14,8,7
145,2,object_05,object_04,843.0,4,1,622.19999998808,0.3333333333333333,2,object_02,5,2155,0,1,3,forest_3,2,memory-2step-stake-s,639,2510540,0.0-19.0-0.1-0.145,A17KN7NAP48L4B,3X4Q1O9UCK2WXV8VOBT8MFKQE0B7O9,3RXPCZQMQTRXGFAP1E4T5GGYE6PG14,4,3
146,2,object_04,object_05,1087.5,4,2,378.30000001192,0.1111111111111111,2,object_02,5,2160,0,4,1,forest_1,2,memory-2step-stake-s,640,2518232,0.0-19.0-0.1-0.146,A17KN7NAP48L4B,3X4Q1O9UCK2WXV8VOBT8MFKQE0B7O9,3RXPCZQMQTRXGFAP1E4T5GGYE6PG14,3,4
147,3,object_10,object_01,795.59999996424,6,1,278.89999997616,0.1111111111111111,2,object_02,1,2161,0,3,1,library_1,2,memory-2step-stake-s,641,2525826,0.0-19.0-0.1-0.147,A17KN7NAP48L4B,3X4Q1O9UCK2WXV8VOBT8MFKQE0B7O9,3RXPCZQMQTRXGFAP1E4T5GGYE6PG14,6,5
148,1,object_06,object_03,658.29999995232,1,1,316.59999996424,0.1111111111111111,1,object_09,5,2166,0,1,4,desert_1,2,memory-2step-stake-s,642,2533456,0.0-19.0-0.1-0.148,A17KN7NAP48L4B,3X4Q1O9UCK2WXV8VOBT8MFKQE0B7O9,3RXPCZQMQTRXGFAP1E4T5GGYE6PG14,1,2
149,2,object_05,object_04,666.60000002384,3,2,254.30000001192,0.3333333333333333,1,object_09,1,2169,0,3,2,forest_8,2,memory-2step-stake-s,643,2541227,0.0-19.0-0.1-0.149,A17KN7NAP48L4B,3X4Q1O9UCK2WXV8VOBT8MFKQE0B7O9,3RXPCZQMQTRXGFAP1E4T5GGYE6PG14,4,3
150,2,object_04,object_05,816.30000001192,3,1,243.89999997616,0.2222222222222222,1,object_09,5,2179,0,2,3,forest_1,2,memory-2step-stake-s,644,2548887,0.0-19.0-0.1-0.150,A17KN7NAP48L4B,3X4Q1O9UCK2WXV8VOBT8MFKQE0B7O9,3RXPCZQMQTRXGFAP1E4T5GGYE6PG14,3,4
151,1,object_03,object_06,667.0,2,1,308.5,0.2222222222222222,2,object_02,5,2189,0,2,2,desert_4,2,memory-2step-stake-s,645,2556615,0.0-19.0-0.1-0.151,A17KN7NAP48L4B,3X4Q1O9UCK2WXV8VOBT8MFKQE0B7O9,3RXPCZQMQTRXGFAP1E4T5GGYE6PG14,2,1
152,3,object_10,object_01,596.0,6,1,230.19999998808,0.1111111111111111,2,object_02,5,2194,0,3,1,library_6,2,memory-2step-stake-s,646,2564162,0.0-19.0-0.1-0.152,A17KN7NAP48L4B,3X4Q1O9UCK2WXV8VOBT8MFKQE0B7O9,3RXPCZQMQTRXGFAP1E4T5GGYE6PG14,6,5
153,4,object_07,object_08,792.39999997616,7,1,268.60000002384,0.2222222222222222,1,object_09,1,2196,0,2,1,restaurant_8,2,memory-2step-stake-s,647,2571846,0.0-19.0-0.1-0.153,A17KN7NAP48L4B,3X4Q1O9UCK2WXV8VOBT8MFKQE0B7O9,3RXPCZQMQTRXGFAP1E4T5GGYE6PG14,7,8
154,2,object_05,object_04,652.29999995232,3,2,279.5,0.2222222222222222,1,object_09,5,2206,0,2,1,forest_3,2,memory-2step-stake-s,648,2579542,0.0-19.0-0.1-0.154,A17KN7NAP48L4B,3X4Q1O9UCK2WXV8VOBT8MFKQE0B7O9,3RXPCZQMQTRXGFAP1E4T5GGYE6PG14,4,3
155,3,object_10,object_01,628.10000002384,5,2,69.900000035763,0.1111111111111111,1,object_09,1,2207,0,1,1,library_3,2,memory-2step-stake-s,649,2586929,0.0-19.0-0.1-0.155,A17KN7NAP48L4B,3X4Q1O9UCK2WXV8VOBT8MFKQE0B7O9,3RXPCZQMQTRXGFAP1E4T5GGYE6PG14,6,5
156,3,object_01,object_10,681.60000002384,6,2,317.0,0.4444444444444444,2,object_02,1,2211,0,4,4,library_6,2,memory-2step-stake-s,650,2594865,0.0-19.0-0.1-0.156,A17KN7NAP48L4B,3X4Q1O9UCK2WXV8VOBT8MFKQE0B7O9,3RXPCZQMQTRXGFAP1E4T5GGYE6PG14,5,6
157,2,object_04,object_05,1329.6000000238,4,2,412.0,0.5555555555555556,2,object_02,5,2236,0,2,5,forest_1,2,memory-2step-stake-s,651,2602999,0.0-19.0-0.1-0.157,A17KN7NAP48L4B,3X4Q1O9UCK2WXV8VOBT8MFKQE0B7O9,3RXPCZQMQTRXGFAP1E4T5GGYE6PG14,3,4
158,1,object_03,object_06,1467.6999999881,2,1,437.39999997616,0.5555555555555556,2,object_02,5,2261,0,4,5,desert_5,2,memory-2step-stake-s,652,2611161,0.0-19.0-0.1-0.158,A17KN7NAP48L4B,3X4Q1O9UCK2WXV8VOBT8MFKQE0B7O9,3RXPCZQMQTRXGFAP1E4T5GGYE6PG14,2,1
159,2,object_04,object_05,913.60000002384,4,2,363.90000003576,0.7777777777777778,2,object_02,1,2268,0,6,7,forest_2,2,memory-2step-stake-s,653,2619451,0.0-19.0-0.1-0.159,A17KN7NAP48L4B,3X4Q1O9UCK2WXV8VOBT8MFKQE0B7O9,3RXPCZQMQTRXGFAP1E4T5GGYE6PG14,3,4
160,3,object_10,object_01,1008.6999999881,5,2,395.19999998808,0.4444444444444444,1,object_09,1,2272,0,4,5,library_1,2,memory-2step-stake-s,654,2627465,0.0-19.0-0.1-0.160,A17KN7NAP48L4B,3X4Q1O9UCK2WXV8VOBT8MFKQE0B7O9,3RXPCZQMQTRXGFAP1E4T5GGYE6PG14,6,5
161,3,object_10,object_01,729.0,6,1,243.5,0.1111111111111111,2,object_02,1,2273,0,2,1,library_8,2,memory-2step-stake-s,655,2635024,0.0-19.0-0.1-0.161,A17KN7NAP48L4B,3X4Q1O9UCK2WXV8VOBT8MFKQE0B7O9,3RXPCZQMQTRXGFAP1E4T5GGYE6PG14,6,5
162,4,object_08,object_07,714.0,8,1,460.60000002384,0.1111111111111111,2,object_02,1,2274,0,0,1,restaurant_1,2,memory-2step-stake-s,656,2642800,0.0-19.0-0.1-0.162,A17KN7NAP48L4B,3X4Q1O9UCK2WXV8VOBT8MFKQE0B7O9,3RXPCZQMQTRXGFAP1E4T5GGYE6PG14,8,7
163,3,object_01,object_10,626.79999995232,5,1,246.5,0.1111111111111111,1,object_09,1,2275,0,1,2,library_6,2,memory-2step-stake-s,657,2650362,0.0-19.0-0.1-0.163,A17KN7NAP48L4B,3X4Q1O9UCK2WXV8VOBT8MFKQE0B7O9,3RXPCZQMQTRXGFAP1E4T5GGYE6PG14,5,6
164,2,object_05,object_04,793.20000004768,4,1,269.09999996424,0.3333333333333333,2,object_02,5,2290,0,1,3,forest_8,2,memory-2step-stake-s,658,2658148,0.0-19.0-0.1-0.164,A17KN7NAP48L4B,3X4Q1O9UCK2WXV8VOBT8MFKQE0B7O9,3RXPCZQMQTRXGFAP1E4T5GGYE6PG14,4,3
165,4,object_08,object_07,502.60000002384,8,1,289.5,0.0,2,object_02,1,2290,0,1,0,restaurant_7,2,memory-2step-stake-s,659,2665654,0.0-19.0-0.1-0.165,A17KN7NAP48L4B,3X4Q1O9UCK2WXV8VOBT8MFKQE0B7O9,3RXPCZQMQTRXGFAP1E4T5GGYE6PG14,8,7
166,4,object_08,object_07,428.5,7,2,294.39999997616,0.1111111111111111,1,object_09,1,2291,0,1,0,restaurant_1,2,memory-2step-stake-s,660,2673264,0.0-19.0-0.1-0.166,A17KN7NAP48L4B,3X4Q1O9UCK2WXV8VOBT8MFKQE0B7O9,3RXPCZQMQTRXGFAP1E4T5GGYE6PG14,8,7
167,1,object_06,object_03,650.69999998808,1,1,285.69999998808,0.2222222222222222,1,object_09,5,2301,0,2,0,desert_7,2,memory-2step-stake-s,661,2680965,0.0-19.0-0.1-0.167,A17KN7NAP48L4B,3X4Q1O9UCK2WXV8VOBT8MFKQE0B7O9,3RXPCZQMQTRXGFAP1E4T5GGYE6PG14,1,2
168,1,object_06,object_03,557.59999996424,1,1,312.5,0.1111111111111111,1,object_09,1,2302,0,1,2,desert_1,2,memory-2step-stake-s,662,2688593,0.0-19.0-0.1-0.168,A17KN7NAP48L4B,3X4Q1O9UCK2WXV8VOBT8MFKQE0B7O9,3RXPCZQMQTRXGFAP1E4T5GGYE6PG14,1,2
169,3,object_10,object_01,866.0,5,2,283.5,0.1111111111111111,1,object_09,1,2303,0,1,1,library_8,2,memory-2step-stake-s,663,2696193,0.0-19.0-0.1-0.169,A17KN7NAP48L4B,3X4Q1O9UCK2WXV8VOBT8MFKQE0B7O9,3RXPCZQMQTRXGFAP1E4T5GGYE6PG14,6,5
170,2,object_05,object_04,817.69999998808,4,1,268.19999998808,0.2222222222222222,2,object_02,1,2305,0,1,2,forest_3,2,memory-2step-stake-s,664,2703881,0.0-19.0-0.1-0.170,A17KN7NAP48L4B,3X4Q1O9UCK2WXV8VOBT8MFKQE0B7O9,3RXPCZQMQTRXGFAP1E4T5GGYE6PG14,4,3
171,3,object_10,object_01,817.60000002384,6,1,404.80000001192,0.1111111111111111,2,object_02,5,2310,0,4,1,library_8,2,memory-2step-stake-s,665,2711602,0.0-19.0-0.1-0.171,A17KN7NAP48L4B,3X4Q1O9UCK2WXV8VOBT8MFKQE0B7O9,3RXPCZQMQTRXGFAP1E4T5GGYE6PG14,6,5
172,4,object_07,object_08,736.39999997616,8,2,331.80000001192,0.1111111111111111,2,object_02,5,2315,0,4,1,restaurant_1,2,memory-2step-stake-s,666,2719249,0.0-19.0-0.1-0.172,A17KN7NAP48L4B,3X4Q1O9UCK2WXV8VOBT8MFKQE0B7O9,3RXPCZQMQTRXGFAP1E4T5GGYE6PG14,7,8
173,4,object_08,object_07,594.19999998808,8,1,374.69999998808,0.3333333333333333,2,object_02,1,2318,0,7,3,restaurant_8,2,memory-2step-stake-s,667,2727139,0.0-19.0-0.1-0.173,A17KN7NAP48L4B,3X4Q1O9UCK2WXV8VOBT8MFKQE0B7O9,3RXPCZQMQTRXGFAP1E4T5GGYE6PG14,8,7
174,1,object_06,object_03,743.10000002384,2,2,266.60000002384,0.4444444444444444,2,object_02,5,2338,0,5,4,desert_5,2,memory-2step-stake-s,668,2735023,0.0-19.0-0.1-0.174,A17KN7NAP48L4B,3X4Q1O9UCK2WXV8VOBT8MFKQE0B7O9,3RXPCZQMQTRXGFAP1E4T5GGYE6PG14,1,2
175,2,object_04,object_05,771.80000001192,4,2,301.39999997616,0.1111111111111111,2,object_02,5,2343,0,5,1,forest_8,2,memory-2step-stake-s,669,2742641,0.0-19.0-0.1-0.175,A17KN7NAP48L4B,3X4Q1O9UCK2WXV8VOBT8MFKQE0B7O9,3RXPCZQMQTRXGFAP1E4T5GGYE6PG14,3,4
176,4,object_07,object_08,970.60000002384,8,2,326.80000001192,0.2222222222222222,2,object_02,1,2345,0,4,2,restaurant_8,2,memory-2step-stake-s,670,2750383,0.0-19.0-0.1-0.176,A17KN7NAP48L4B,3X4Q1O9UCK2WXV8VOBT8MFKQE0B7O9,3RXPCZQMQTRXGFAP1E4T5GGYE6PG14,7,8
177,4,object_08,object_07,557.10000002384,8,1,608.69999998808,0.2222222222222222,2,object_02,1,2347,0,5,2,restaurant_1,2,memory-2step-stake-s,671,2758407,0.0-19.0-0.1-0.177,A17KN7NAP48L4B,3X4Q1O9UCK2WXV8VOBT8MFKQE0B7O9,3RXPCZQMQTRXGFAP1E4T5GGYE6PG14,8,7
178,4,object_07,object_08,588.10000002384,8,2,831.5,0.1111111111111111,2,object_02,1,2348,0,5,1,restaurant_8,2,memory-2step-stake-s,672,2766554,0.0-19.0-0.1-0.178,A17KN7NAP48L4B,3X4Q1O9UCK2WXV8VOBT8MFKQE0B7O9,3RXPCZQMQTRXGFAP1E4T5GGYE6PG14,7,8
179,1,object_06,object_03,658.10000002384,2,2,260.39999997616,0.3333333333333333,2,object_02,5,2363,0,3,3,desert_5,2,memory-2step-stake-s,673,2774332,0.0-19.0-0.1-0.179,A17KN7NAP48L4B,3X4Q1O9UCK2WXV8VOBT8MFKQE0B7O9,3RXPCZQMQTRXGFAP1E4T5GGYE6PG14,1,2
180,4,object_08,object_07,808.5,8,1,227.5,0.1111111111111111,2,object_02,1,2364,0,1,1,restaurant_1,2,memory-2step-stake-s,674,2781872,0.0-19.0-0.1-0.180,A17KN7NAP48L4B,3X4Q1O9UCK2WXV8VOBT8MFKQE0B7O9,3RXPCZQMQTRXGFAP1E4T5GGYE6PG14,8,7
181,2,object_04,object_05,605.19999998808,3,1,233.29999995232,0.2222222222222222,1,object_09,5,2374,0,2,2,forest_2,2,memory-2step-stake-s,675,2789517,0.0-19.0-0.1-0.181,A17KN7NAP48L4B,3X4Q1O9UCK2WXV8VOBT8MFKQE0B7O9,3RXPCZQMQTRXGFAP1E4T5GGYE6PG14,3,4
182,1,object_03,object_06,814.69999998808,1,2,241.5,0.0,1,object_09,5,2374,0,0,6,desert_1,2,memory-2step-stake-s,676,2796972,0.0-19.0-0.1-0.182,A17KN7NAP48L4B,3X4Q1O9UCK2WXV8VOBT8MFKQE0B7O9,3RXPCZQMQTRXGFAP1E4T5GGYE6PG14,2,1
183,3,object_10,object_01,855.19999998808,6,1,307.39999997616,0.7777777777777778,2,object_02,1,2381,0,2,7,library_1,2,memory-2step-stake-s,677,2805199,0.0-19.0-0.1-0.183,A17KN7NAP48L4B,3X4Q1O9UCK2WXV8VOBT8MFKQE0B7O9,3RXPCZQMQTRXGFAP1E4T5GGYE6PG14,6,5
184,3,object_10,object_01,748.60000002384,6,1,326.5,0.5555555555555556,2,object_02,1,2386,0,3,5,library_6,2,memory-2step-stake-s,678,2813248,0.0-19.0-0.1-0.184,A17KN7NAP48L4B,3X4Q1O9UCK2WXV8VOBT8MFKQE0B7O9,3RXPCZQMQTRXGFAP1E4T5GGYE6PG14,6,5
185,2,object_04,object_05,740.30000001192,3,1,143.60000002384,0.5555555555555556,1,object_09,1,2391,0,5,9,forest_3,2,memory-2step-stake-s,679,2821112,0.0-19.0-0.1-0.185,A17KN7NAP48L4B,3X4Q1O9UCK2WXV8VOBT8MFKQE0B7O9,3RXPCZQMQTRXGFAP1E4T5GGYE6PG14,3,4
186,3,object_01,object_10,843.0,6,2,284.69999998808,1.0,2,object_02,1,2400,0,8,9,library_1,2,memory-2step-stake-s,680,2829524,0.0-19.0-0.1-0.186,A17KN7NAP48L4B,3X4Q1O9UCK2WXV8VOBT8MFKQE0B7O9,3RXPCZQMQTRXGFAP1E4T5GGYE6PG14,5,6
187,1,object_03,object_06,623.09999996424,2,1,403.10000002384,0.8888888888888888,2,object_02,5,2440,0,8,8,desert_7,2,memory-2step-stake-s,681,2837950,0.0-19.0-0.1-0.187,A17KN7NAP48L4B,3X4Q1O9UCK2WXV8VOBT8MFKQE0B7O9,3RXPCZQMQTRXGFAP1E4T5GGYE6PG14,2,1
188,3,object_01,object_10,965.39999997616,6,2,560.5,0.7777777777777778,2,object_02,1,2447,0,8,7,library_8,2,memory-2step-stake-s,682,2846430,0.0-19.0-0.1-0.188,A17KN7NAP48L4B,3X4Q1O9UCK2WXV8VOBT8MFKQE0B7O9,3RXPCZQMQTRXGFAP1E4T5GGYE6PG14,5,6
189,4,object_08,object_07,708.19999998808,8,1,262.80000001192,1.0,2,object_02,1,2456,0,9,9,restaurant_4,2,memory-2step-stake-s,683,2854819,0.0-19.0-0.1-0.189,A17KN7NAP48L4B,3X4Q1O9UCK2WXV8VOBT8MFKQE0B7O9,3RXPCZQMQTRXGFAP1E4T5GGYE6PG14,8,7
190,2,object_04,object_05,1137.1000000238,4,2,469.89999997616,0.8888888888888888,2,object_02,5,2496,0,8,8,forest_3,2,memory-2step-stake-s,684,2863311,0.0-19.0-0.1-0.190,A17KN7NAP48L4B,3X4Q1O9UCK2WXV8VOBT8MFKQE0B7O9,3RXPCZQMQTRXGFAP1E4T5GGYE6PG14,3,4
191,2,object_04,object_05,740.80000001192,4,2,375.5,0.7777777777777778,2,object_02,5,2531,0,8,7,forest_2,2,memory-2step-stake-s,685,2871611,0.0-19.0-0.1-0.191,A17KN7NAP48L4B,3X4Q1O9UCK2WXV8VOBT8MFKQE0B7O9,3RXPCZQMQTRXGFAP1E4T5GGYE6PG14,3,4
192,1,object_06,object_03,999.5,2,2,331.10000002384,0.7777777777777778,2,object_02,5,2566,0,8,7,desert_4,2,memory-2step-stake-s,686,2879866,0.0-19.0-0.1-0.192,A17KN7NAP48L4B,3X4Q1O9UCK2WXV8VOBT8MFKQE0B7O9,3RXPCZQMQTRXGFAP1E4T5GGYE6PG14,1,2
193,1,object_06,object_03,600.69999998808,2,2,467.60000002384,0.4444444444444444,2,object_02,5,2586,0,7,4,desert_1,2,memory-2step-stake-s,687,2887954,0.0-19.0-0.1-0.193,A17KN7NAP48L4B,3X4Q1O9UCK2WXV8VOBT8MFKQE0B7O9,3RXPCZQMQTRXGFAP1E4T5GGYE6PG14,1,2
194,1,object_03,object_06,586.30000001192,2,1,350.59999996424,0.4444444444444444,2,object_02,5,2606,0,9,4,desert_4,2,memory-2step-stake-s,688,2895921,0.0-19.0-0.1-0.194,A17KN7NAP48L4B,3X4Q1O9UCK2WXV8VOBT8MFKQE0B7O9,3RXPCZQMQTRXGFAP1E4T5GGYE6PG14,2,1
195,4,object_08,object_07,546.19999998808,8,1,285.19999998808,0.2222222222222222,2,object_02,1,2608,0,9,2,restaurant_1,2,memory-2step-stake-s,689,2903624,0.0-19.0-0.1-0.195,A17KN7NAP48L4B,3X4Q1O9UCK2WXV8VOBT8MFKQE0B7O9,3RXPCZQMQTRXGFAP1E4T5GGYE6PG14,8,7
196,4,object_07,object_08,434.80000001192,8,2,405.90000003576,0.1111111111111111,2,object_02,1,2609,0,7,1,restaurant_7,2,memory-2step-stake-s,690,2911345,0.0-19.0-0.1-0.196,A17KN7NAP48L4B,3X4Q1O9UCK2WXV8VOBT8MFKQE0B7O9,3RXPCZQMQTRXGFAP1E4T5GGYE6PG14,7,8
197,3,object_01,object_10,473.89999997616,5,1,315.0,0.4444444444444444,1,object_09,1,2613,0,4,1,library_6,2,memory-2step-stake-s,691,2919281,0.0-19.0-0.1-0.197,A17KN7NAP48L4B,3X4Q1O9UCK2WXV8VOBT8MFKQE0B7O9,3RXPCZQMQTRXGFAP1E4T5GGYE6PG14,5,6
198,2,object_04,object_05,400.40000003576,4,2,251.40000003576,0.0,2,object_02,5,2613,0,1,0,forest_1,2,memory-2step-stake-s,692,2926748,0.0-19.0-0.1-0.198,A17KN7NAP48L4B,3X4Q1O9UCK2WXV8VOBT8MFKQE0B7O9,3RXPCZQMQTRXGFAP1E4T5GGYE6PG14,3,4
199,4,object_08,object_07,613.80000001192,7,2,320.80000001192,0.1111111111111111,1,object_09,5,2618,0,1,2,restaurant_8,2,memory-2step-stake-s,693,2934385,0.0-19.0-0.1-0.199,A17KN7NAP48L4B,3X4Q1O9UCK2WXV8VOBT8MFKQE0B7O9,3RXPCZQMQTRXGFAP1E4T5GGYE6PG14,8,7
200,4,object_07,object_08,544.80000001192,7,1,356.40000003576,0.1111111111111111,1,object_09,1,2619,0,1,2,restaurant_1,2,memory-2step-stake-s,694,2942056,0.0-19.0-0.1-0.200,A17KN7NAP48L4B,3X4Q1O9UCK2WXV8VOBT8MFKQE0B7O9,3RXPCZQMQTRXGFAP1E4T5GGYE6PG14,7,8
201,4,object_07,object_08,554.10000002384,7,1,316.30000001192,0.2222222222222222,1,object_09,5,2629,0,2,1,restaurant_4,2,memory-2step-stake-s,695,2949790,0.0-19.0-0.1-0.201,A17KN7NAP48L4B,3X4Q1O9UCK2WXV8VOBT8MFKQE0B7O9,3RXPCZQMQTRXGFAP1E4T5GGYE6PG14,7,8
202,4,object_07,object_08,532.60000002384,7,1,200.19999998808,0.6666666666666666,1,object_09,1,2635,0,6,2,restaurant_7,2,memory-2step-stake-s,696,2957812,0.0-19.0-0.1-0.202,A17KN7NAP48L4B,3X4Q1O9UCK2WXV8VOBT8MFKQE0B7O9,3RXPCZQMQTRXGFAP1E4T5GGYE6PG14,7,8
203,2,object_05,object_04,631.30000001192,3,2,323.10000002384,0.4444444444444444,1,object_09,5,2655,0,4,1,forest_2,2,memory-2step-stake-s,697,2965752,0.0-19.0-0.1-0.203,A17KN7NAP48L4B,3X4Q1O9UCK2WXV8VOBT8MFKQE0B7O9,3RXPCZQMQTRXGFAP1E4T5GGYE6PG14,4,3
204,2,object_04,object_05,810.60000002384,3,1,564.0,0.3333333333333333,1,object_09,5,2670,0,3,0,forest_8,2,memory-2step-stake-s,698,2973833,0.0-19.0-0.1-0.204,A17KN7NAP48L4B,3X4Q1O9UCK2WXV8VOBT8MFKQE0B7O9,3RXPCZQMQTRXGFAP1E4T5GGYE6PG14,3,4
205,2,object_04,object_05,384.19999998808,4,2,259.80000001192,0.0,2,object_02,5,2670,0,2,0,forest_3,2,memory-2step-stake-s,699,2981307,0.0-19.0-0.1-0.205,A17KN7NAP48L4B,3X4Q1O9UCK2WXV8VOBT8MFKQE0B7O9,3RXPCZQMQTRXGFAP1E4T5GGYE6PG14,3,4
206,1,object_06,object_03,823.30000001192,2,2,321.39999997616,0.2222222222222222,2,object_02,5,2680,0,3,2,desert_4,2,memory-2step-stake-s,700,2989047,0.0-19.0-0.1-0.206,A17KN7NAP48L4B,3X4Q1O9UCK2WXV8VOBT8MFKQE0B7O9,3RXPCZQMQTRXGFAP1E4T5GGYE6PG14,1,2
207,2,object_05,object_04,714.30000001192,3,2,309.39999997616,0.2222222222222222,1,object_09,1,2682,0,2,0,forest_8,2,memory-2step-stake-s,701,2996774,0.0-19.0-0.1-0.207,A17KN7NAP48L4B,3X4Q1O9UCK2WXV8VOBT8MFKQE0B7O9,3RXPCZQMQTRXGFAP1E4T5GGYE6PG14,4,3
208,1,object_06,object_03,1004.3000000119,2,2,488.29999995232,0.0,2,object_02,5,2682,0,2,0,desert_4,2,memory-2step-stake-s,702,3004474,0.0-19.0-0.1-0.208,A17KN7NAP48L4B,3X4Q1O9UCK2WXV8VOBT8MFKQE0B7O9,3RXPCZQMQTRXGFAP1E4T5GGYE6PG14,1,2
209,4,object_08,object_07,1272.1999999881,7,2,563.5,0.1111111111111111,1,object_09,1,2683,0,1,1,restaurant_8,2,memory-2step-stake-s,703,3012354,0.0-19.0-0.1-0.209,A17KN7NAP48L4B,3X4Q1O9UCK2WXV8VOBT8MFKQE0B7O9,3RXPCZQMQTRXGFAP1E4T5GGYE6PG14,8,7
210,4,object_08,object_07,497.39999997616,7,2,340.80000001192,0.1111111111111111,1,object_09,5,2688,0,1,2,restaurant_4,2,memory-2step-stake-s,704,3020010,0.0-19.0-0.1-0.210,A17KN7NAP48L4B,3X4Q1O9UCK2WXV8VOBT8MFKQE0B7O9,3RXPCZQMQTRXGFAP1E4T5GGYE6PG14,8,7
211,2,object_04,object_05,703.80000001192,3,1,435.40000003576,0.3333333333333333,1,object_09,1,2691,0,3,3,forest_2,2,memory-2step-stake-s,705,3027965,0.0-19.0-0.1-0.211,A17KN7NAP48L4B,3X4Q1O9UCK2WXV8VOBT8MFKQE0B7O9,3RXPCZQMQTRXGFAP1E4T5GGYE6PG14,3,4
212,1,object_06,object_03,709.5,1,1,368.80000001192,0.5555555555555556,1,object_09,5,2716,0,5,3,desert_5,2,memory-2step-stake-s,706,3036057,0.0-19.0-0.1-0.212,A17KN7NAP48L4B,3X4Q1O9UCK2WXV8VOBT8MFKQE0B7O9,3RXPCZQMQTRXGFAP1E4T5GGYE6PG14,1,2
213,4,object_08,object_07,442.60000002384,7,2,229.39999997616,0.6666666666666666,1,object_09,1,2722,0,6,2,restaurant_1,2,memory-2step-stake-s,707,3044110,0.0-19.0-0.1-0.213,A17KN7NAP48L4B,3X4Q1O9UCK2WXV8VOBT8MFKQE0B7O9,3RXPCZQMQTRXGFAP1E4T5GGYE6PG14,8,7
214,4,object_08,object_07,469.89999997616,7,2,432.80000001192,0.4444444444444444,1,object_09,1,2726,0,4,0,restaurant_8,2,memory-2step-stake-s,708,3052162,0.0-19.0-0.1-0.214,A17KN7NAP48L4B,3X4Q1O9UCK2WXV8VOBT8MFKQE0B7O9,3RXPCZQMQTRXGFAP1E4T5GGYE6PG14,8,7
215,1,object_06,object_03,585.39999997616,1,1,380.70000004768,0.5555555555555556,1,object_09,1,2731,0,5,0,desert_5,2,memory-2step-stake-s,709,3060263,0.0-19.0-0.1-0.215,A17KN7NAP48L4B,3X4Q1O9UCK2WXV8VOBT8MFKQE0B7O9,3RXPCZQMQTRXGFAP1E4T5GGYE6PG14,1,2
216,3,object_10,object_01,1460.6000000238,5,2,439.5,0.4444444444444444,1,object_09,1,2735,0,4,1,library_8,2,memory-2step-stake-s,710,3068322,0.0-19.0-0.1-0.216,A17KN7NAP48L4B,3X4Q1O9UCK2WXV8VOBT8MFKQE0B7O9,3RXPCZQMQTRXGFAP1E4T5GGYE6PG14,6,5
217,2,object_04,object_05,-1.0,-1,-1,-1.0,0.0,-,0,5,2735,0,4,3,forest_3,2,memory-2step-stake-s,711,3074830,0.0-19.0-0.1-0.217,A17KN7NAP48L4B,3X4Q1O9UCK2WXV8VOBT8MFKQE0B7O9,3RXPCZQMQTRXGFAP1E4T5GGYE6PG14,3,4
218,2,object_05,object_04,670.19999998808,3,2,336.80000001192,0.1111111111111111,1,object_09,5,2740,0,1,4,forest_1,2,memory-2step-stake-s,712,3082483,0.0-19.0-0.1-0.218,A17KN7NAP48L4B,3X4Q1O9UCK2WXV8VOBT8MFKQE0B7O9,3RXPCZQMQTRXGFAP1E4T5GGYE6PG14,4,3
219,4,object_08,object_07,552.69999998808,7,2,283.5,0.1111111111111111,1,object_09,1,2741,0,1,3,restaurant_7,2,memory-2step-stake-s,713,3090082,0.0-19.0-0.1-0.219,A17KN7NAP48L4B,3X4Q1O9UCK2WXV8VOBT8MFKQE0B7O9,3RXPCZQMQTRXGFAP1E4T5GGYE6PG14,8,7
220,1,object_06,object_03,640.5,2,2,299.10000002384,0.1111111111111111,2,object_02,1,2742,0,1,1,desert_4,2,memory-2step-stake-s,714,3097697,0.0-19.0-0.1-0.220,A17KN7NAP48L4B,3X4Q1O9UCK2WXV8VOBT8MFKQE0B7O9,3RXPCZQMQTRXGFAP1E4T5GGYE6PG14,1,2
221,1,object_06,object_03,442.10000002384,2,2,269.60000002384,0.2222222222222222,2,object_02,5,2752,0,4,2,desert_7,2,memory-2step-stake-s,715,3105383,0.0-19.0-0.1-0.221,A17KN7NAP48L4B,3X4Q1O9UCK2WXV8VOBT8MFKQE0B7O9,3RXPCZQMQTRXGFAP1E4T5GGYE6PG14,1,2
222,3,object_01,object_10,883.5,5,1,325.89999997616,0.5555555555555556,1,object_09,1,2757,0,5,6,library_6,2,memory-2step-stake-s,716,3113431,0.0-19.0-0.1-0.222,A17KN7NAP48L4B,3X4Q1O9UCK2WXV8VOBT8MFKQE0B7O9,3RXPCZQMQTRXGFAP1E4T5GGYE6PG14,5,6
223,3,object_01,object_10,531.19999998808,6,2,302.59999996424,0.7777777777777778,2,object_02,1,2764,0,4,7,library_8,2,memory-2step-stake-s,717,3121658,0.0-19.0-0.1-0.223,A17KN7NAP48L4B,3X4Q1O9UCK2WXV8VOBT8MFKQE0B7O9,3RXPCZQMQTRXGFAP1E4T5GGYE6PG14,5,6
224,3,object_10,object_01,656.80000001192,6,1,259.29999995232,0.7777777777777778,2,object_02,5,2799,0,4,7,library_3,2,memory-2step-stake-s,718,3129838,0.0-19.0-0.1-0.224,A17KN7NAP48L4B,3X4Q1O9UCK2WXV8VOBT8MFKQE0B7O9,3RXPCZQMQTRXGFAP1E4T5GGYE6PG14,6,5
225,2,object_04,object_05,971.80000001192,4,2,350.60000002384,1.0,2,object_02,1,2808,0,3,9,forest_2,2,memory-2step-stake-s,719,3138318,0.0-19.0-0.1-0.225,A17KN7NAP48L4B,3X4Q1O9UCK2WXV8VOBT8MFKQE0B7O9,3RXPCZQMQTRXGFAP1E4T5GGYE6PG14,3,4
226,3,object_01,object_10,740.5,6,2,367.70000004768,0.8888888888888888,2,object_02,1,2816,0,3,8,library_1,2,memory-2step-stake-s,720,3146712,0.0-19.0-0.1-0.226,A17KN7NAP48L4B,3X4Q1O9UCK2WXV8VOBT8MFKQE0B7O9,3RXPCZQMQTRXGFAP1E4T5GGYE6PG14,5,6
227,1,object_03,object_06,1443.3999999762,2,1,382.60000002384,0.7777777777777778,2,object_02,5,2851,0,0,7,desert_4,2,memory-2step-stake-s,721,3155019,0.0-19.0-0.1-0.227,A17KN7NAP48L4B,3X4Q1O9UCK2WXV8VOBT8MFKQE0B7O9,3RXPCZQMQTRXGFAP1E4T5GGYE6PG14,2,1
228,4,object_07,object_08,688.30000001192,8,2,332.5,0.5555555555555556,2,object_02,1,2856,0,1,5,restaurant_7,2,memory-2step-stake-s,722,3163072,0.0-19.0-0.1-0.228,A17KN7NAP48L4B,3X4Q1O9UCK2WXV8VOBT8MFKQE0B7O9,3RXPCZQMQTRXGFAP1E4T5GGYE6PG14,7,8
229,1,object_06,object_03,579.5,2,2,310.30000001192,0.7777777777777778,2,object_02,5,2891,0,1,7,desert_5,2,memory-2step-stake-s,723,3171306,0.0-19.0-0.1-0.229,A17KN7NAP48L4B,3X4Q1O9UCK2WXV8VOBT8MFKQE0B7O9,3RXPCZQMQTRXGFAP1E4T5GGYE6PG14,1,2
230,4,object_07,object_08,505.80000001192,8,2,276.5,0.8888888888888888,2,object_02,5,2931,0,0,8,restaurant_1,2,memory-2step-stake-s,724,3179606,0.0-19.0-0.1-0.230,A17KN7NAP48L4B,3X4Q1O9UCK2WXV8VOBT8MFKQE0B7O9,3RXPCZQMQTRXGFAP1E4T5GGYE6PG14,7,8
231,4,object_08,object_07,462.0,8,1,256.10000002384,0.7777777777777778,2,object_02,1,2938,0,1,7,restaurant_4,2,memory-2step-stake-s,725,3187784,0.0-19.0-0.1-0.231,A17KN7NAP48L4B,3X4Q1O9UCK2WXV8VOBT8MFKQE0B7O9,3RXPCZQMQTRXGFAP1E4T5GGYE6PG14,8,7
232,4,object_08,object_07,579.10000002384,8,1,301.70000004768,0.4444444444444444,2,object_02,1,2942,0,3,4,restaurant_4,2,memory-2step-stake-s,726,3195706,0.0-19.0-0.1-0.232,A17KN7NAP48L4B,3X4Q1O9UCK2WXV8VOBT8MFKQE0B7O9,3RXPCZQMQTRXGFAP1E4T5GGYE6PG14,8,7
233,4,object_08,object_07,369.19999998808,8,1,277.39999997616,0.5555555555555556,2,object_02,1,2947,0,4,5,restaurant_4,2,memory-2step-stake-s,727,3203704,0.0-19.0-0.1-0.233,A17KN7NAP48L4B,3X4Q1O9UCK2WXV8VOBT8MFKQE0B7O9,3RXPCZQMQTRXGFAP1E4T5GGYE6PG14,8,7
234,3,object_10,object_01,755.30000001192,6,1,406.39999997616,0.3333333333333333,2,object_02,1,2950,0,7,3,library_1,2,memory-2step-stake-s,728,3211625,0.0-19.0-0.1-0.234,A17KN7NAP48L4B,3X4Q1O9UCK2WXV8VOBT8MFKQE0B7O9,3RXPCZQMQTRXGFAP1E4T5GGYE6PG14,6,5
235,2,object_04,object_05,784.60000002384,4,2,347.5,0.1111111111111111,2,object_02,5,2955,0,9,1,forest_3,2,memory-2step-stake-s,729,3219289,0.0-19.0-0.1-0.235,A17KN7NAP48L4B,3X4Q1O9UCK2WXV8VOBT8MFKQE0B7O9,3RXPCZQMQTRXGFAP1E4T5GGYE6PG14,3,4
236,1,object_06,object_03,793.10000002384,2,2,324.90000003576,0.4444444444444444,2,object_02,5,2975,0,7,4,desert_5,2,memory-2step-stake-s,730,3227234,0.0-19.0-0.1-0.236,A17KN7NAP48L4B,3X4Q1O9UCK2WXV8VOBT8MFKQE0B7O9,3RXPCZQMQTRXGFAP1E4T5GGYE6PG14,1,2
237,3,object_10,object_01,816.20000004768,6,1,716.5,0.3333333333333333,2,object_02,1,2978,0,6,3,library_6,2,memory-2step-stake-s,731,3235468,0.0-19.0-0.1-0.237,A17KN7NAP48L4B,3X4Q1O9UCK2WXV8VOBT8MFKQE0B7O9,3RXPCZQMQTRXGFAP1E4T5GGYE6PG14,6,5
238,2,object_04,object_05,797.10000002384,4,2,759.60000002384,0.1111111111111111,2,object_02,5,2983,0,6,1,forest_1,2,memory-2step-stake-s,732,3243546,0.0-19.0-0.1-0.238,A17KN7NAP48L4B,3X4Q1O9UCK2WXV8VOBT8MFKQE0B7O9,3RXPCZQMQTRXGFAP1E4T5GGYE6PG14,3,4
239,3,object_01,object_10,1080.6000000238,6,2,1139.1999999881,0.1111111111111111,2,object_02,1,2984,0,6,1,library_1,2,memory-2step-stake-s,733,3252001,0.0-19.0-0.1-0.239,A17KN7NAP48L4B,3X4Q1O9UCK2WXV8VOBT8MFKQE0B7O9,3RXPCZQMQTRXGFAP1E4T5GGYE6PG14,5,6
240,3,object_10,object_01,841.20000004768,6,1,293.09999996424,0.3333333333333333,2,object_02,1,2987,0,7,3,library_1,2,memory-2step-stake-s,734,3259812,0.0-19.0-0.1-0.240,A17KN7NAP48L4B,3X4Q1O9UCK2WXV8VOBT8MFKQE0B7O9,3RXPCZQMQTRXGFAP1E4T5GGYE6PG14,6,5
241,4,object_08,object_07,-1.0,-1,-1,-1.0,0.0,-,0,1,2987,0,4,3,restaurant_4,2,memory-2step-stake-s,735,3266319,0.0-19.0-0.1-0.241,A17KN7NAP48L4B,3X4Q1O9UCK2WXV8VOBT8MFKQE0B7O9,3RXPCZQMQTRXGFAP1E4T5GGYE6PG14,8,7
242,3,object_10,object_01,739.59999996424,6,1,494.69999998808,0.1111111111111111,2,object_02,1,2988,0,7,1,library_8,2,memory-2step-stake-s,736,3274131,0.0-19.0-0.1-0.242,A17KN7NAP48L4B,3X4Q1O9UCK2WXV8VOBT8MFKQE0B7O9,3RXPCZQMQTRXGFAP1E4T5GGYE6PG14,6,5
243,2,object_05,object_04,632.09999996424,3,2,259.40000003576,0.7777777777777778,1,object_09,1,2995,0,7,0,forest_8,2,memory-2step-stake-s,737,3282313,0.0-19.0-0.1-0.243,A17KN7NAP48L4B,3X4Q1O9UCK2WXV8VOBT8MFKQE0B7O9,3RXPCZQMQTRXGFAP1E4T5GGYE6PG14,4,3
244,1,object_03,object_06,546.0,1,2,338.20000004768,0.7777777777777778,1,object_09,1,3002,0,7,0,desert_4,2,memory-2step-stake-s,738,3290577,0.0-19.0-0.1-0.244,A17KN7NAP48L4B,3X4Q1O9UCK2WXV8VOBT8MFKQE0B7O9,3RXPCZQMQTRXGFAP1E4T5GGYE6PG14,2,1
245,1,object_03,object_06,769.70000004768,1,2,332.39999997616,0.7777777777777778,1,object_09,1,3009,0,7,1,desert_7,2,memory-2step-stake-s,739,3298829,0.0-19.0-0.1-0.245,A17KN7NAP48L4B,3X4Q1O9UCK2WXV8VOBT8MFKQE0B7O9,3RXPCZQMQTRXGFAP1E4T5GGYE6PG14,2,1
246,2,object_04,object_05,558.70000004768,4,2,266.0,0.0,2,object_02,5,3009,0,8,0,forest_8,2,memory-2step-stake-s,740,3306307,0.0-19.0-0.1-0.246,A17KN7NAP48L4B,3X4Q1O9UCK2WXV8VOBT8MFKQE0B7O9,3RXPCZQMQTRXGFAP1E4T5GGYE6PG14,3,4
247,4,object_08,object_07,440.20000004768,7,2,306.0,0.7777777777777778,1,object_09,1,3016,0,7,1,restaurant_1,2,memory-2step-stake-s,741,3314532,0.0-19.0-0.1-0.247,A17KN7NAP48L4B,3X4Q1O9UCK2WXV8VOBT8MFKQE0B7O9,3RXPCZQMQTRXGFAP1E4T5GGYE6PG14,8,7
248,2,object_04,object_05,638.80000001192,3,1,345.69999998808,0.6666666666666666,1,object_09,5,3046,0,6,1,forest_3,2,memory-2step-stake-s,742,3322700,0.0-19.0-0.1-0.248,A17KN7NAP48L4B,3X4Q1O9UCK2WXV8VOBT8MFKQE0B7O9,3RXPCZQMQTRXGFAP1E4T5GGYE6PG14,3,4
249,4,object_08,object_07,614.39999997616,7,2,329.89999997616,0.5555555555555556,1,object_09,1,3051,0,5,1,restaurant_7,2,memory-2step-stake-s,743,3330752,0.0-19.0-0.1-0.249,A17KN7NAP48L4B,3X4Q1O9UCK2WXV8VOBT8MFKQE0B7O9,3RXPCZQMQTRXGFAP1E4T5GGYE6PG14,8,7
250,4,object_08,object_07,569.19999998808,7,2,260.80000001192,0.4444444444444444,1,object_09,1,3055,0,4,4,restaurant_7,2,memory-2step-stake-s,744,3338635,0.0-19.0-0.1-0.250,A17KN7NAP48L4B,3X4Q1O9UCK2WXV8VOBT8MFKQE0B7O9,3RXPCZQMQTRXGFAP1E4T5GGYE6PG14,8,7
251,2,object_05,object_04,591.90000003576,3,2,82.700000047684,0.1111111111111111,1,object_09,5,3060,0,1,3,forest_2,2,memory-2step-stake-s,745,3346033,0.0-19.0-0.1-0.251,A17KN7NAP48L4B,3X4Q1O9UCK2WXV8VOBT8MFKQE0B7O9,3RXPCZQMQTRXGFAP1E4T5GGYE6PG14,4,3
252,4,object_07,object_08,667.30000001192,8,2,310.59999996424,0.2222222222222222,2,object_02,1,3062,0,1,2,restaurant_8,2,memory-2step-stake-s,746,3353760,0.0-19.0-0.1-0.252,A17KN7NAP48L4B,3X4Q1O9UCK2WXV8VOBT8MFKQE0B7O9,3RXPCZQMQTRXGFAP1E4T5GGYE6PG14,7,8
253,2,object_05,object_04,683.30000001192,3,2,294.30000001192,0.0,1,object_09,1,3062,0,0,3,forest_8,2,memory-2step-stake-s,747,3361266,0.0-19.0-0.1-0.253,A17KN7NAP48L4B,3X4Q1O9UCK2WXV8VOBT8MFKQE0B7O9,3RXPCZQMQTRXGFAP1E4T5GGYE6PG14,4,3
254,3,object_10,object_01,721.90000003576,6,1,259.5,0.2222222222222222,2,object_02,1,3064,0,1,2,library_3,2,memory-2step-stake-s,748,3368942,0.0-19.0-0.1-0.254,A17KN7NAP48L4B,3X4Q1O9UCK2WXV8VOBT8MFKQE0B7O9,3RXPCZQMQTRXGFAP1E4T5GGYE6PG14,6,5
255,1,object_03,object_06,676.5,2,1,278.5,0.1111111111111111,2,object_02,5,3069,0,1,1,desert_4,2,memory-2step-stake-s,749,3376536,0.0-19.0-0.1-0.255,A17KN7NAP48L4B,3X4Q1O9UCK2WXV8VOBT8MFKQE0B7O9,3RXPCZQMQTRXGFAP1E4T5GGYE6PG14,2,1
