,state1,stim_left,stim_right,rt_1,choice1,response1,rt_2,points,state2,stim_state2,stake,score,practice,rews1,rews2,background,high_arm,trial_type,trial_index,time_elapsed,internal_node_id,subid,hitid,assignmentid,stim_left_num,stim_right_num
0,1,object_01,object_02,1266.7999999523,2,2,-1.0,0.0,2,object_05,1,0,0,2,0,desert_1,1,memory-2step-stake-s,488,1072645,0.0-19.0-0.0-0.0,A1F6MWP9A0XLJQ,3X4Q1O9UCK2WXV8VOBT8MFKQE0B7O9,3DI28L7YXEUZW1EYVJE55DVM1QVE16,1,2
1,1,object_01,object_02,-1.0,-1,-1,-1.0,0.0,-,0,1,0,0,2,0,desert_3,1,memory-2step-stake-s,489,1079167,0.0-19.0-0.0-0.1,A1F6MWP9A0XLJQ,3X4Q1O9UCK2WXV8VOBT8MFKQE0B7O9,3DI28L7YXEUZW1EYVJE55DVM1QVE16,1,2
2,2,object_07,object_09,862.5,4,2,804.20000004768,0.1111111111111111,2,object_05,1,1,0,2,1,forest_1,1,memory-2step-stake-s,490,1087304,0.0-19.0-0.0-0.2,A1F6MWP9A0XLJQ,3X4Q1O9UCK2WXV8VOBT8MFKQE0B7O9,3DI28L7YXEUZW1EYVJE55DVM1QVE16,3,4
3,1,object_01,object_02,896.10000002384,2,2,559.10000002384,0.2222222222222222,2,object_05,1,3,0,1,2,desert_3,1,memory-2step-stake-s,491,1095301,0.0-19.0-0.0-0.3,A1F6MWP9A0XLJQ,3X4Q1O9UCK2WXV8VOBT8MFKQE0B7O9,3DI28L7YXEUZW1EYVJE55DVM1QVE16,1,2
4,2,object_07,object_09,688.20000004768,3,1,961.5,0.2222222222222222,1,object_03,1,5,0,2,1,forest_1,1,memory-2step-stake-s,492,1103710,0.0-19.0-0.0-0.4,A1F6MWP9A0XLJQ,3X4Q1O9UCK2WXV8VOBT8MFKQE0B7O9,3DI28L7YXEUZW1EYVJE55DVM1QVE16,3,4
5,1,object_02,object_01,876.70000004768,1,2,647.29999995232,0.1111111111111111,1,object_03,1,6,0,1,0,desert_1,1,memory-2step-stake-s,493,1111715,0.0-19.0-0.0-0.5,A1F6MWP9A0XLJQ,3X4Q1O9UCK2WXV8VOBT8MFKQE0B7O9,3DI28L7YXEUZW1EYVJE55DVM1QVE16,2,1
6,4,object_08,object_04,916.79999995232,8,1,783.10000002384,0.1111111111111111,2,object_05,5,11,0,2,1,restaurant_6,1,memory-2step-stake-s,494,1119827,0.0-19.0-0.0-0.6,A1F6MWP9A0XLJQ,3X4Q1O9UCK2WXV8VOBT8MFKQE0B7O9,3DI28L7YXEUZW1EYVJE55DVM1QVE16,8,7
7,4,object_04,object_08,970.79999995232,7,1,684.39999997616,0.2222222222222222,1,object_03,5,21,0,2,2,restaurant_3,1,memory-2step-stake-s,495,1127944,0.0-19.0-0.0-0.7,A1F6MWP9A0XLJQ,3X4Q1O9UCK2WXV8VOBT8MFKQE0B7O9,3DI28L7YXEUZW1EYVJE55DVM1QVE16,7,8
8,4,object_08,object_04,1127.1000000238,7,2,505.0,0.4444444444444444,1,object_03,1,25,0,4,0,restaurant_6,1,memory-2step-stake-s,496,1136086,0.0-19.0-0.0-0.8,A1F6MWP9A0XLJQ,3X4Q1O9UCK2WXV8VOBT8MFKQE0B7O9,3DI28L7YXEUZW1EYVJE55DVM1QVE16,8,7
9,1,object_02,object_01,1309.0999999046,1,2,400.0,0.4444444444444444,1,object_03,1,29,0,4,1,desert_3,1,memory-2step-stake-s,497,1144108,0.0-19.0-0.0-0.9,A1F6MWP9A0XLJQ,3X4Q1O9UCK2WXV8VOBT8MFKQE0B7O9,3DI28L7YXEUZW1EYVJE55DVM1QVE16,2,1
10,1,object_02,object_01,720.09999990463,1,2,649.60000002384,0.0,1,object_03,1,29,0,0,0,desert_3,1,memory-2step-stake-s,498,1151976,0.0-19.0-0.0-0.10,A1F6MWP9A0XLJQ,3X4Q1O9UCK2WXV8VOBT8MFKQE0B7O9,3DI28L7YXEUZW1EYVJE55DVM1QVE16,2,1
11,4,object_08,object_04,1154.6000000238,7,2,481.0,0.0,1,object_03,5,29,0,0,3,restaurant_2,1,memory-2step-stake-s,499,1159675,0.0-19.0-0.0-0.11,A1F6MWP9A0XLJQ,3X4Q1O9UCK2WXV8VOBT8MFKQE0B7O9,3DI28L7YXEUZW1EYVJE55DVM1QVE16,8,7
12,3,object_06,object_10,1382.5999999046,5,1,936.5,0.1111111111111111,1,object_03,5,34,0,1,1,library_4,1,memory-2step-stake-s,500,1167928,0.0-19.0-0.0-0.12,A1F6MWP9A0XLJQ,3X4Q1O9UCK2WXV8VOBT8MFKQE0B7O9,3DI28L7YXEUZW1EYVJE55DVM1QVE16,5,6
13,3,object_06,object_10,1135.0,6,2,670.60000002384,0.2222222222222222,2,object_05,5,44,0,0,2,library_8,1,memory-2step-stake-s,501,1176022,0.0-19.0-0.0-0.13,A1F6MWP9A0XLJQ,3X4Q1O9UCK2WXV8VOBT8MFKQE0B7O9,3DI28L7YXEUZW1EYVJE55DVM1QVE16,5,6
14,3,object_06,object_10,1212.1000000238,6,2,582.20000004768,0.2222222222222222,2,object_05,1,46,0,1,2,library_8,1,memory-2step-stake-s,502,1184028,0.0-19.0-0.0-0.14,A1F6MWP9A0XLJQ,3X4Q1O9UCK2WXV8VOBT8MFKQE0B7O9,3DI28L7YXEUZW1EYVJE55DVM1QVE16,5,6
15,1,object_02,object_01,1049.0,1,2,458.0,0.3333333333333333,1,object_03,1,49,0,3,1,desert_5,1,memory-2step-stake-s,503,1192008,0.0-19.0-0.0-0.15,A1F6MWP9A0XLJQ,3X4Q1O9UCK2WXV8VOBT8MFKQE0B7O9,3DI28L7YXEUZW1EYVJE55DVM1QVE16,2,1
16,2,object_07,object_09,757.89999997616,4,2,415.79999995232,0.3333333333333333,2,object_05,1,52,0,4,3,forest_1,1,memory-2step-stake-s,504,1199947,0.0-19.0-0.0-0.16,A1F6MWP9A0XLJQ,3X4Q1O9UCK2WXV8VOBT8MFKQE0B7O9,3DI28L7YXEUZW1EYVJE55DVM1QVE16,3,4
17,4,object_08,object_04,1071.6000000238,8,1,476.60000002384,0.1111111111111111,2,object_05,5,57,0,2,1,restaurant_2,1,memory-2step-stake-s,505,1207744,0.0-19.0-0.0-0.17,A1F6MWP9A0XLJQ,3X4Q1O9UCK2WXV8VOBT8MFKQE0B7O9,3DI28L7YXEUZW1EYVJE55DVM1QVE16,8,7
18,3,object_10,object_06,1087.6000000238,6,1,402.30000007153,0.1111111111111111,2,object_05,5,62,0,0,1,library_5,1,memory-2step-stake-s,506,1215465,0.0-19.0-0.0-0.18,A1F6MWP9A0XLJQ,3X4Q1O9UCK2WXV8VOBT8MFKQE0B7O9,3DI28L7YXEUZW1EYVJE55DVM1QVE16,6,5
19,2,object_07,object_09,982.40000009537,3,1,351.39999997616,0.2222222222222222,1,object_03,5,72,0,2,0,forest_8,1,memory-2step-stake-s,507,1223235,0.0-19.0-0.0-0.19,A1F6MWP9A0XLJQ,3X4Q1O9UCK2WXV8VOBT8MFKQE0B7O9,3DI28L7YXEUZW1EYVJE55DVM1QVE16,3,4
20,1,object_01,object_02,1211.6000000238,2,2,370.09999990463,0.2222222222222222,2,object_05,1,74,0,3,2,desert_5,1,memory-2step-stake-s,508,1231032,0.0-19.0-0.0-0.20,A1F6MWP9A0XLJQ,3X4Q1O9UCK2WXV8VOBT8MFKQE0B7O9,3DI28L7YXEUZW1EYVJE55DVM1QVE16,1,2
21,4,object_04,object_08,1098.1999999285,8,2,419.39999997616,0.2222222222222222,2,object_05,1,76,0,4,2,restaurant_3,1,memory-2step-stake-s,509,1238875,0.0-19.0-0.0-0.21,A1F6MWP9A0XLJQ,3X4Q1O9UCK2WXV8VOBT8MFKQE0B7O9,3DI28L7YXEUZW1EYVJE55DVM1QVE16,7,8
22,2,object_09,object_07,1233.7000000477,3,2,456.89999997616,0.3333333333333333,1,object_03,1,79,0,3,2,forest_1,1,memory-2step-stake-s,510,1246865,0.0-19.0-0.0-0.22,A1F6MWP9A0XLJQ,3X4Q1O9UCK2WXV8VOBT8MFKQE0B7O9,3DI28L7YXEUZW1EYVJE55DVM1QVE16,4,3
23,2,object_07,object_09,801.09999990463,3,1,371.60000002384,0.5555555555555556,1,object_03,5,104,0,5,4,forest_8,1,memory-2step-stake-s,511,1254962,0.0-19.0-0.0-0.23,A1F6MWP9A0XLJQ,3X4Q1O9UCK2WXV8VOBT8MFKQE0B7O9,3DI28L7YXEUZW1EYVJE55DVM1QVE16,3,4
24,1,object_02,object_01,1117.5,2,1,542.69999992847,0.4444444444444444,2,object_05,1,108,0,2,4,desert_5,1,memory-2step-stake-s,512,1263138,0.0-19.0-0.0-0.24,A1F6MWP9A0XLJQ,3X4Q1O9UCK2WXV8VOBT8MFKQE0B7O9,3DI28L7YXEUZW1EYVJE55DVM1QVE16,2,1
25,2,object_07,object_09,948.69999992847,3,1,454.39999997616,0.1111111111111111,1,object_03,1,109,0,1,5,forest_1,1,memory-2step-stake-s,513,1270913,0.0-19.0-0.0-0.25,A1F6MWP9A0XLJQ,3X4Q1O9UCK2WXV8VOBT8MFKQE0B7O9,3DI28L7YXEUZW1EYVJE55DVM1QVE16,3,4
26,3,object_06,object_10,1097.1000000238,5,1,401.09999990463,0.2222222222222222,1,object_03,1,111,0,2,7,library_4,1,memory-2step-stake-s,514,1278735,0.0-19.0-0.0-0.26,A1F6MWP9A0XLJQ,3X4Q1O9UCK2WXV8VOBT8MFKQE0B7O9,3DI28L7YXEUZW1EYVJE55DVM1QVE16,5,6
27,1,object_01,object_02,928.29999995232,2,2,508.5,1.0,2,object_05,1,120,0,1,9,desert_1,1,memory-2step-stake-s,515,1287412,0.0-19.0-0.0-0.27,A1F6MWP9A0XLJQ,3X4Q1O9UCK2WXV8VOBT8MFKQE0B7O9,3DI28L7YXEUZW1EYVJE55DVM1QVE16,1,2
28,3,object_06,object_10,1093.2000000477,5,1,439.0,0.2222222222222222,1,object_03,5,130,0,2,8,library_4,1,memory-2step-stake-s,516,1295275,0.0-19.0-0.0-0.28,A1F6MWP9A0XLJQ,3X4Q1O9UCK2WXV8VOBT8MFKQE0B7O9,3DI28L7YXEUZW1EYVJE55DVM1QVE16,5,6
29,4,object_08,object_04,999.90000009537,7,2,392.70000004768,0.4444444444444444,1,object_03,5,150,0,4,7,restaurant_3,1,memory-2step-stake-s,517,1303309,0.0-19.0-0.0-0.29,A1F6MWP9A0XLJQ,3X4Q1O9UCK2WXV8VOBT8MFKQE0B7O9,3DI28L7YXEUZW1EYVJE55DVM1QVE16,8,7
30,1,object_02,object_01,957.79999995232,2,1,326.39999997616,0.5555555555555556,2,object_05,1,155,0,4,5,desert_1,1,memory-2step-stake-s,518,1311363,0.0-19.0-0.0-0.30,A1F6MWP9A0XLJQ,3X4Q1O9UCK2WXV8VOBT8MFKQE0B7O9,3DI28L7YXEUZW1EYVJE55DVM1QVE16,2,1
31,4,object_08,object_04,1035.0,7,2,371.20000004768,0.1111111111111111,1,object_03,5,160,0,1,3,restaurant_2,1,memory-2step-stake-s,519,1319058,0.0-19.0-0.0-0.31,A1F6MWP9A0XLJQ,3X4Q1O9UCK2WXV8VOBT8MFKQE0B7O9,3DI28L7YXEUZW1EYVJE55DVM1QVE16,8,7
32,2,object_09,object_07,974.39999997616,3,2,262.10000002384,0.4444444444444444,1,object_03,1,164,0,4,2,forest_8,1,memory-2step-stake-s,520,1326959,0.0-19.0-0.0-0.32,A1F6MWP9A0XLJQ,3X4Q1O9UCK2WXV8VOBT8MFKQE0B7O9,3DI28L7YXEUZW1EYVJE55DVM1QVE16,4,3
33,2,object_07,object_09,1046.0,4,2,311.39999997616,0.1111111111111111,2,object_05,1,165,0,2,1,forest_1,1,memory-2step-stake-s,521,1334596,0.0-19.0-0.0-0.33,A1F6MWP9A0XLJQ,3X4Q1O9UCK2WXV8VOBT8MFKQE0B7O9,3DI28L7YXEUZW1EYVJE55DVM1QVE16,3,4
34,1,object_02,object_01,1121.6000000238,2,1,361.60000002384,0.3333333333333333,2,object_05,5,180,0,7,3,desert_4,1,memory-2step-stake-s,522,1342485,0.0-19.0-0.0-0.34,A1F6MWP9A0XLJQ,3X4Q1O9UCK2WXV8VOBT8MFKQE0B7O9,3DI28L7YXEUZW1EYVJE55DVM1QVE16,2,1
35,1,object_01,object_02,761.20000004768,2,2,595.0,0.3333333333333333,2,object_05,1,183,0,6,3,desert_3,1,memory-2step-stake-s,523,1350610,0.0-19.0-0.0-0.35,A1F6MWP9A0XLJQ,3X4Q1O9UCK2WXV8VOBT8MFKQE0B7O9,3DI28L7YXEUZW1EYVJE55DVM1QVE16,1,2
36,2,object_09,object_07,1092.6999999285,3,2,341.60000002384,0.7777777777777778,1,object_03,1,190,0,7,3,forest_4,1,memory-2step-stake-s,524,1358888,0.0-19.0-0.0-0.36,A1F6MWP9A0XLJQ,3X4Q1O9UCK2WXV8VOBT8MFKQE0B7O9,3DI28L7YXEUZW1EYVJE55DVM1QVE16,4,3
37,4,object_04,object_08,1213.1000000238,8,2,375.20000004768,0.3333333333333333,2,object_05,5,205,0,7,3,restaurant_1,1,memory-2step-stake-s,525,1366783,0.0-19.0-0.0-0.37,A1F6MWP9A0XLJQ,3X4Q1O9UCK2WXV8VOBT8MFKQE0B7O9,3DI28L7YXEUZW1EYVJE55DVM1QVE16,7,8
38,1,object_01,object_02,830.69999992847,2,2,346.0,0.5555555555555556,2,object_05,5,230,0,7,5,desert_4,1,memory-2step-stake-s,526,1374863,0.0-19.0-0.0-0.38,A1F6MWP9A0XLJQ,3X4Q1O9UCK2WXV8VOBT8MFKQE0B7O9,3DI28L7YXEUZW1EYVJE55DVM1QVE16,1,2
39,3,object_10,object_06,1149.3999999762,6,1,652.79999995232,0.6666666666666666,2,object_05,5,260,0,7,6,library_7,1,memory-2step-stake-s,527,1383362,0.0-19.0-0.0-0.39,A1F6MWP9A0XLJQ,3X4Q1O9UCK2WXV8VOBT8MFKQE0B7O9,3DI28L7YXEUZW1EYVJE55DVM1QVE16,6,5
40,1,object_02,object_01,1009.7999999523,1,2,582.39999997616,0.7777777777777778,1,object_03,5,295,0,7,3,desert_4,1,memory-2step-stake-s,528,1391870,0.0-19.0-0.0-0.40,A1F6MWP9A0XLJQ,3X4Q1O9UCK2WXV8VOBT8MFKQE0B7O9,3DI28L7YXEUZW1EYVJE55DVM1QVE16,2,1
41,4,object_08,object_04,1278.8999999762,8,1,426.89999997616,0.3333333333333333,2,object_05,5,310,0,7,3,restaurant_6,1,memory-2step-stake-s,529,1399823,0.0-19.0-0.0-0.41,A1F6MWP9A0XLJQ,3X4Q1O9UCK2WXV8VOBT8MFKQE0B7O9,3DI28L7YXEUZW1EYVJE55DVM1QVE16,8,7
42,4,object_08,object_04,1362.5,8,1,436.39999997616,0.3333333333333333,2,object_05,5,325,0,7,3,restaurant_2,1,memory-2step-stake-s,530,1407783,0.0-19.0-0.0-0.42,A1F6MWP9A0XLJQ,3X4Q1O9UCK2WXV8VOBT8MFKQE0B7O9,3DI28L7YXEUZW1EYVJE55DVM1QVE16,8,7
43,2,object_09,object_07,1218.7999999523,4,1,445.39999997616,0.3333333333333333,2,object_05,1,328,0,8,3,forest_4,1,memory-2step-stake-s,531,1415762,0.0-19.0-0.0-0.43,A1F6MWP9A0XLJQ,3X4Q1O9UCK2WXV8VOBT8MFKQE0B7O9,3DI28L7YXEUZW1EYVJE55DVM1QVE16,4,3
44,1,object_01,object_02,753.0,2,2,401.89999997616,0.3333333333333333,2,object_05,1,331,0,8,3,desert_5,1,memory-2step-stake-s,532,1423686,0.0-19.0-0.0-0.44,A1F6MWP9A0XLJQ,3X4Q1O9UCK2WXV8VOBT8MFKQE0B7O9,3DI28L7YXEUZW1EYVJE55DVM1QVE16,1,2
45,4,object_04,object_08,1097.8999999762,7,1,300.39999997616,0.5555555555555556,1,object_03,5,356,0,5,0,restaurant_3,1,memory-2step-stake-s,533,1431711,0.0-19.0-0.0-0.45,A1F6MWP9A0XLJQ,3X4Q1O9UCK2WXV8VOBT8MFKQE0B7O9,3DI28L7YXEUZW1EYVJE55DVM1QVE16,7,8
46,2,object_09,object_07,1391.3999999762,4,1,425.60000002384,0.0,2,object_05,1,356,0,3,0,forest_4,1,memory-2step-stake-s,534,1439354,0.0-19.0-0.0-0.46,A1F6MWP9A0XLJQ,3X4Q1O9UCK2WXV8VOBT8MFKQE0B7O9,3DI28L7YXEUZW1EYVJE55DVM1QVE16,4,3
47,3,object_06,object_10,1180.7999999523,5,1,374.10000002384,0.2222222222222222,1,object_03,1,358,0,2,1,library_7,1,memory-2step-stake-s,535,1447159,0.0-19.0-0.0-0.47,A1F6MWP9A0XLJQ,3X4Q1O9UCK2WXV8VOBT8MFKQE0B7O9,3DI28L7YXEUZW1EYVJE55DVM1QVE16,5,6
48,4,object_08,object_04,1292.0,8,1,393.10000002384,0.3333333333333333,2,object_05,1,361,0,1,3,restaurant_3,1,memory-2step-stake-s,536,1455073,0.0-19.0-0.0-0.48,A1F6MWP9A0XLJQ,3X4Q1O9UCK2WXV8VOBT8MFKQE0B7O9,3DI28L7YXEUZW1EYVJE55DVM1QVE16,8,7
49,2,object_07,object_09,1273.1000000238,3,1,338.39999997616,0.3333333333333333,1,object_03,1,364,0,3,4,forest_8,1,memory-2step-stake-s,537,1462942,0.0-19.0-0.0-0.49,A1F6MWP9A0XLJQ,3X4Q1O9UCK2WXV8VOBT8MFKQE0B7O9,3DI28L7YXEUZW1EYVJE55DVM1QVE16,3,4
50,2,object_07,object_09,1365.2000000477,3,1,510.5,0.5555555555555556,1,object_03,1,369,0,5,6,forest_4,1,memory-2step-stake-s,538,1471199,0.0-19.0-0.0-0.50,A1F6MWP9A0XLJQ,3X4Q1O9UCK2WXV8VOBT8MFKQE0B7O9,3DI28L7YXEUZW1EYVJE55DVM1QVE16,3,4
51,4,object_08,object_04,1115.7000000477,7,2,364.29999995232,0.6666666666666666,1,object_03,5,399,0,6,7,restaurant_2,1,memory-2step-stake-s,539,1479393,0.0-19.0-0.0-0.51,A1F6MWP9A0XLJQ,3X4Q1O9UCK2WXV8VOBT8MFKQE0B7O9,3DI28L7YXEUZW1EYVJE55DVM1QVE16,8,7
52,1,object_02,object_01,768.59999990463,1,2,503.69999992847,0.5555555555555556,1,object_03,1,404,0,5,4,desert_1,1,memory-2step-stake-s,540,1487623,0.0-19.0-0.0-0.52,A1F6MWP9A0XLJQ,3X4Q1O9UCK2WXV8VOBT8MFKQE0B7O9,3DI28L7YXEUZW1EYVJE55DVM1QVE16,2,1
53,4,object_04,object_08,1120.2999999523,8,2,490.5,0.7777777777777778,2,object_05,5,439,0,6,7,restaurant_1,1,memory-2step-stake-s,541,1496039,0.0-19.0-0.0-0.53,A1F6MWP9A0XLJQ,3X4Q1O9UCK2WXV8VOBT8MFKQE0B7O9,3DI28L7YXEUZW1EYVJE55DVM1QVE16,7,8
54,3,object_06,object_10,1128.3000000715,5,1,505.19999992847,0.6666666666666666,1,object_03,5,469,0,6,7,library_7,1,memory-2step-stake-s,542,1504373,0.0-19.0-0.0-0.54,A1F6MWP9A0XLJQ,3X4Q1O9UCK2WXV8VOBT8MFKQE0B7O9,3DI28L7YXEUZW1EYVJE55DVM1QVE16,5,6
55,1,object_02,object_01,1155.0,1,2,595.89999997616,0.7777777777777778,1,object_03,1,476,0,7,4,desert_3,1,memory-2step-stake-s,543,1512903,0.0-19.0-0.0-0.55,A1F6MWP9A0XLJQ,3X4Q1O9UCK2WXV8VOBT8MFKQE0B7O9,3DI28L7YXEUZW1EYVJE55DVM1QVE16,2,1
56,1,object_01,object_02,1154.8999999762,1,1,652.59999990463,0.6666666666666666,1,object_03,1,482,0,6,4,desert_5,1,memory-2step-stake-s,544,1521396,0.0-19.0-0.0-0.56,A1F6MWP9A0XLJQ,3X4Q1O9UCK2WXV8VOBT8MFKQE0B7O9,3DI28L7YXEUZW1EYVJE55DVM1QVE16,1,2
57,4,object_04,object_08,1237.5999999046,8,2,559.79999995232,0.3333333333333333,2,object_05,5,497,0,7,3,restaurant_2,1,memory-2step-stake-s,545,1529478,0.0-19.0-0.0-0.57,A1F6MWP9A0XLJQ,3X4Q1O9UCK2WXV8VOBT8MFKQE0B7O9,3DI28L7YXEUZW1EYVJE55DVM1QVE16,7,8
58,1,object_01,object_02,1067.8999999762,1,1,436.70000004768,0.7777777777777778,1,object_03,1,504,0,7,1,desert_1,1,memory-2step-stake-s,546,1537846,0.0-19.0-0.0-0.58,A1F6MWP9A0XLJQ,3X4Q1O9UCK2WXV8VOBT8MFKQE0B7O9,3DI28L7YXEUZW1EYVJE55DVM1QVE16,1,2
59,3,object_10,object_06,1174.0999999046,6,1,424.79999995232,0.4444444444444444,2,object_05,5,524,0,8,4,library_5,1,memory-2step-stake-s,547,1545898,0.0-19.0-0.0-0.59,A1F6MWP9A0XLJQ,3X4Q1O9UCK2WXV8VOBT8MFKQE0B7O9,3DI28L7YXEUZW1EYVJE55DVM1QVE16,6,5
60,2,object_07,object_09,1026.3999999762,3,1,411.60000002384,0.4444444444444444,1,object_03,1,528,0,4,5,forest_2,1,memory-2step-stake-s,548,1553937,0.0-19.0-0.0-0.60,A1F6MWP9A0XLJQ,3X4Q1O9UCK2WXV8VOBT8MFKQE0B7O9,3DI28L7YXEUZW1EYVJE55DVM1QVE16,3,4
61,4,object_04,object_08,1234.8000000715,7,1,453.10000002384,0.4444444444444444,1,object_03,5,548,0,4,4,restaurant_6,1,memory-2step-stake-s,549,1562017,0.0-19.0-0.0-0.61,A1F6MWP9A0XLJQ,3X4Q1O9UCK2WXV8VOBT8MFKQE0B7O9,3DI28L7YXEUZW1EYVJE55DVM1QVE16,7,8
62,2,object_07,object_09,-1.0,-1,-1,-1.0,0.0,-,0,1,548,0,3,4,forest_1,1,memory-2step-stake-s,550,1568530,0.0-19.0-0.0-0.62,A1F6MWP9A0XLJQ,3X4Q1O9UCK2WXV8VOBT8MFKQE0B7O9,3DI28L7YXEUZW1EYVJE55DVM1QVE16,3,4
63,3,object_10,object_06,1358.2999999523,5,2,512.30000007153,0.1111111111111111,1,object_03,5,553,0,1,6,library_4,1,memory-2step-stake-s,551,1576364,0.0-19.0-0.0-0.63,A1F6MWP9A0XLJQ,3X4Q1O9UCK2WXV8VOBT8MFKQE0B7O9,3DI28L7YXEUZW1EYVJE55DVM1QVE16,6,5
64,2,object_07,object_09,972.0,3,1,333.20000004768,0.4444444444444444,1,object_03,1,557,0,4,6,forest_2,1,memory-2step-stake-s,552,1584325,0.0-19.0-0.0-0.64,A1F6MWP9A0XLJQ,3X4Q1O9UCK2WXV8VOBT8MFKQE0B7O9,3DI28L7YXEUZW1EYVJE55DVM1QVE16,3,4
65,4,object_04,object_08,1196.0,7,1,477.40000009537,0.6666666666666666,1,object_03,5,587,0,6,5,restaurant_1,1,memory-2step-stake-s,553,1592632,0.0-19.0-0.0-0.65,A1F6MWP9A0XLJQ,3X4Q1O9UCK2WXV8VOBT8MFKQE0B7O9,3DI28L7YXEUZW1EYVJE55DVM1QVE16,7,8
66,2,object_07,object_09,1344.2999999523,3,1,514.10000002384,0.5555555555555556,1,object_03,1,592,0,5,3,forest_2,1,memory-2step-stake-s,554,1600888,0.0-19.0-0.0-0.66,A1F6MWP9A0XLJQ,3X4Q1O9UCK2WXV8VOBT8MFKQE0B7O9,3DI28L7YXEUZW1EYVJE55DVM1QVE16,3,4
67,4,object_08,object_04,1139.7000000477,8,1,382.10000002384,0.3333333333333333,2,object_05,5,607,0,4,3,restaurant_6,1,memory-2step-stake-s,555,1608810,0.0-19.0-0.0-0.67,A1F6MWP9A0XLJQ,3X4Q1O9UCK2WXV8VOBT8MFKQE0B7O9,3DI28L7YXEUZW1EYVJE55DVM1QVE16,8,7
68,4,object_04,object_08,983.29999995232,8,2,424.70000004768,0.3333333333333333,2,object_05,5,622,0,4,3,restaurant_3,1,memory-2step-stake-s,556,1616771,0.0-19.0-0.0-0.68,A1F6MWP9A0XLJQ,3X4Q1O9UCK2WXV8VOBT8MFKQE0B7O9,3DI28L7YXEUZW1EYVJE55DVM1QVE16,7,8
69,3,object_06,object_10,966.60000002384,6,2,396.20000004768,0.1111111111111111,2,object_05,5,627,0,4,1,library_8,1,memory-2step-stake-s,557,1624488,0.0-19.0-0.0-0.69,A1F6MWP9A0XLJQ,3X4Q1O9UCK2WXV8VOBT8MFKQE0B7O9,3DI28L7YXEUZW1EYVJE55DVM1QVE16,5,6
70,3,object_10,object_06,1199.6999999285,6,1,416.20000004768,0.2222222222222222,2,object_05,5,637,0,8,2,library_7,1,memory-2step-stake-s,558,1632339,0.0-19.0-0.0-0.70,A1F6MWP9A0XLJQ,3X4Q1O9UCK2WXV8VOBT8MFKQE0B7O9,3DI28L7YXEUZW1EYVJE55DVM1QVE16,6,5
71,4,object_04,object_08,1238.1000000238,7,1,399.60000002384,0.7777777777777778,1,object_03,1,644,0,7,4,restaurant_2,1,memory-2step-stake-s,559,1640679,0.0-19.0-0.0-0.71,A1F6MWP9A0XLJQ,3X4Q1O9UCK2WXV8VOBT8MFKQE0B7O9,3DI28L7YXEUZW1EYVJE55DVM1QVE16,7,8
72,2,object_09,object_07,1285.1000000238,4,1,1429.7000000477,0.4444444444444444,2,object_05,1,648,0,8,4,forest_2,1,memory-2step-stake-s,560,1649741,0.0-19.0-0.0-0.72,A1F6MWP9A0XLJQ,3X4Q1O9UCK2WXV8VOBT8MFKQE0B7O9,3DI28L7YXEUZW1EYVJE55DVM1QVE16,4,3
73,1,object_01,object_02,919.0,1,1,320.09999990463,0.8888888888888888,1,object_03,1,656,0,8,6,desert_5,1,memory-2step-stake-s,561,1658107,0.0-19.0-0.0-0.73,A1F6MWP9A0XLJQ,3X4Q1O9UCK2WXV8VOBT8MFKQE0B7O9,3DI28L7YXEUZW1EYVJE55DVM1QVE16,1,2
74,4,object_04,object_08,1112.0,7,1,374.5,0.8888888888888888,1,object_03,5,696,0,8,4,restaurant_3,1,memory-2step-stake-s,562,1666516,0.0-19.0-0.0-0.74,A1F6MWP9A0XLJQ,3X4Q1O9UCK2WXV8VOBT8MFKQE0B7O9,3DI28L7YXEUZW1EYVJE55DVM1QVE16,7,8
75,1,object_02,object_01,528.70000004768,1,2,593.0,0.7777777777777778,1,object_03,1,703,0,7,5,desert_5,1,memory-2step-stake-s,563,1675042,0.0-19.0-0.0-0.75,A1F6MWP9A0XLJQ,3X4Q1O9UCK2WXV8VOBT8MFKQE0B7O9,3DI28L7YXEUZW1EYVJE55DVM1QVE16,2,1
76,2,object_09,object_07,1092.3000000715,4,1,529.5,0.6666666666666666,2,object_05,1,709,0,6,6,forest_1,1,memory-2step-stake-s,564,1683409,0.0-19.0-0.0-0.76,A1F6MWP9A0XLJQ,3X4Q1O9UCK2WXV8VOBT8MFKQE0B7O9,3DI28L7YXEUZW1EYVJE55DVM1QVE16,4,3
77,4,object_04,object_08,952.5,7,1,436.10000002384,0.8888888888888888,1,object_03,5,749,0,8,8,restaurant_1,1,memory-2step-stake-s,565,1691875,0.0-19.0-0.0-0.77,A1F6MWP9A0XLJQ,3X4Q1O9UCK2WXV8VOBT8MFKQE0B7O9,3DI28L7YXEUZW1EYVJE55DVM1QVE16,7,8
78,3,object_10,object_06,1047.5,6,1,522.5,0.6666666666666666,2,object_05,5,779,0,7,6,library_5,1,memory-2step-stake-s,566,1700225,0.0-19.0-0.0-0.78,A1F6MWP9A0XLJQ,3X4Q1O9UCK2WXV8VOBT8MFKQE0B7O9,3DI28L7YXEUZW1EYVJE55DVM1QVE16,6,5
79,2,object_09,object_07,1133.0,3,2,606.19999992847,0.5555555555555556,1,object_03,5,804,0,5,4,forest_2,1,memory-2step-stake-s,567,1708557,0.0-19.0-0.0-0.79,A1F6MWP9A0XLJQ,3X4Q1O9UCK2WXV8VOBT8MFKQE0B7O9,3DI28L7YXEUZW1EYVJE55DVM1QVE16,4,3
80,2,object_09,object_07,1104.3000000715,3,2,475.10000002384,0.3333333333333333,1,object_03,1,807,0,3,5,forest_1,1,memory-2step-stake-s,568,1716555,0.0-19.0-0.0-0.80,A1F6MWP9A0XLJQ,3X4Q1O9UCK2WXV8VOBT8MFKQE0B7O9,3DI28L7YXEUZW1EYVJE55DVM1QVE16,4,3
81,3,object_06,object_10,1123.2000000477,5,1,653.89999997616,0.0,1,object_03,5,807,0,0,8,library_8,1,memory-2step-stake-s,569,1724424,0.0-19.0-0.0-0.81,A1F6MWP9A0XLJQ,3X4Q1O9UCK2WXV8VOBT8MFKQE0B7O9,3DI28L7YXEUZW1EYVJE55DVM1QVE16,5,6
82,1,object_02,object_01,677.29999995232,1,2,410.39999997616,0.1111111111111111,1,object_03,1,808,0,1,8,desert_1,1,memory-2step-stake-s,570,1732167,0.0-19.0-0.0-0.82,A1F6MWP9A0XLJQ,3X4Q1O9UCK2WXV8VOBT8MFKQE0B7O9,3DI28L7YXEUZW1EYVJE55DVM1QVE16,2,1
83,2,object_07,object_09,947.70000004768,3,1,364.89999997616,0.2222222222222222,1,object_03,1,810,0,2,9,forest_2,1,memory-2step-stake-s,571,1739953,0.0-19.0-0.0-0.83,A1F6MWP9A0XLJQ,3X4Q1O9UCK2WXV8VOBT8MFKQE0B7O9,3DI28L7YXEUZW1EYVJE55DVM1QVE16,3,4
84,4,object_08,object_04,1125.5,8,1,408.5,0.8888888888888888,2,object_05,5,850,0,3,8,restaurant_3,1,memory-2step-stake-s,572,1748411,0.0-19.0-0.0-0.84,A1F6MWP9A0XLJQ,3X4Q1O9UCK2WXV8VOBT8MFKQE0B7O9,3DI28L7YXEUZW1EYVJE55DVM1QVE16,8,7
85,1,object_02,object_01,493.39999997616,2,1,432.0,0.8888888888888888,2,object_05,1,858,0,4,8,desert_4,1,memory-2step-stake-s,573,1756888,0.0-19.0-0.0-0.85,A1F6MWP9A0XLJQ,3X4Q1O9UCK2WXV8VOBT8MFKQE0B7O9,3DI28L7YXEUZW1EYVJE55DVM1QVE16,2,1
86,1,object_02,object_01,770.20000004768,2,1,416.39999997616,0.8888888888888888,2,object_05,1,866,0,1,8,desert_4,1,memory-2step-stake-s,574,1765332,0.0-19.0-0.0-0.86,A1F6MWP9A0XLJQ,3X4Q1O9UCK2WXV8VOBT8MFKQE0B7O9,3DI28L7YXEUZW1EYVJE55DVM1QVE16,2,1
87,1,object_01,object_02,489.19999992847,2,2,571.5,0.6666666666666666,2,object_05,1,872,0,4,6,desert_5,1,memory-2step-stake-s,575,1773730,0.0-19.0-0.0-0.87,A1F6MWP9A0XLJQ,3X4Q1O9UCK2WXV8VOBT8MFKQE0B7O9,3DI28L7YXEUZW1EYVJE55DVM1QVE16,1,2
88,1,object_01,object_02,450.89999997616,2,2,389.19999992847,0.8888888888888888,2,object_05,5,912,0,5,8,desert_3,1,memory-2step-stake-s,576,1782149,0.0-19.0-0.0-0.88,A1F6MWP9A0XLJQ,3X4Q1O9UCK2WXV8VOBT8MFKQE0B7O9,3DI28L7YXEUZW1EYVJE55DVM1QVE16,1,2
89,2,object_09,object_07,699.10000002384,3,2,481.39999997616,0.5555555555555556,1,object_03,1,917,0,5,8,forest_4,1,memory-2step-stake-s,577,1790358,0.0-19.0-0.0-0.89,A1F6MWP9A0XLJQ,3X4Q1O9UCK2WXV8VOBT8MFKQE0B7O9,3DI28L7YXEUZW1EYVJE55DVM1QVE16,4,3
90,1,object_02,object_01,442.0,2,1,435.79999995232,0.7777777777777778,2,object_05,1,924,0,2,7,desert_3,1,memory-2step-stake-s,578,1798738,0.0-19.0-0.0-0.90,A1F6MWP9A0XLJQ,3X4Q1O9UCK2WXV8VOBT8MFKQE0B7O9,3DI28L7YXEUZW1EYVJE55DVM1QVE16,2,1
91,4,object_04,object_08,1104.1999999285,8,2,665.29999995232,0.6666666666666666,2,object_05,1,930,0,5,6,restaurant_2,1,memory-2step-stake-s,579,1807229,0.0-19.0-0.0-0.91,A1F6MWP9A0XLJQ,3X4Q1O9UCK2WXV8VOBT8MFKQE0B7O9,3DI28L7YXEUZW1EYVJE55DVM1QVE16,7,8
92,3,object_06,object_10,1043.2000000477,6,2,516.09999990463,0.6666666666666666,2,object_05,5,960,0,6,6,library_4,1,memory-2step-stake-s,580,1815576,0.0-19.0-0.0-0.92,A1F6MWP9A0XLJQ,3X4Q1O9UCK2WXV8VOBT8MFKQE0B7O9,3DI28L7YXEUZW1EYVJE55DVM1QVE16,5,6
93,4,object_08,object_04,968.10000002384,8,1,545.30000007153,0.7777777777777778,2,object_05,1,967,0,5,7,restaurant_1,1,memory-2step-stake-s,581,1824058,0.0-19.0-0.0-0.93,A1F6MWP9A0XLJQ,3X4Q1O9UCK2WXV8VOBT8MFKQE0B7O9,3DI28L7YXEUZW1EYVJE55DVM1QVE16,8,7
94,2,object_07,object_09,921.60000002384,3,1,299.29999995232,0.8888888888888888,1,object_03,1,975,0,8,8,forest_4,1,memory-2step-stake-s,582,1832431,0.0-19.0-0.0-0.94,A1F6MWP9A0XLJQ,3X4Q1O9UCK2WXV8VOBT8MFKQE0B7O9,3DI28L7YXEUZW1EYVJE55DVM1QVE16,3,4
95,2,object_09,object_07,782.5,3,2,462.80000007153,0.5555555555555556,1,object_03,1,980,0,5,9,forest_4,1,memory-2step-stake-s,583,1840625,0.0-19.0-0.0-0.95,A1F6MWP9A0XLJQ,3X4Q1O9UCK2WXV8VOBT8MFKQE0B7O9,3DI28L7YXEUZW1EYVJE55DVM1QVE16,4,3
96,2,object_07,object_09,895.0,3,1,336.60000002384,0.2222222222222222,1,object_03,1,982,0,2,8,forest_2,1,memory-2step-stake-s,584,1848383,0.0-19.0-0.0-0.96,A1F6MWP9A0XLJQ,3X4Q1O9UCK2WXV8VOBT8MFKQE0B7O9,3DI28L7YXEUZW1EYVJE55DVM1QVE16,3,4
97,3,object_10,object_06,976.79999995232,5,2,378.20000004768,0.2222222222222222,1,object_03,5,992,0,2,6,library_4,1,memory-2step-stake-s,585,1856186,0.0-19.0-0.0-0.97,A1F6MWP9A0XLJQ,3X4Q1O9UCK2WXV8VOBT8MFKQE0B7O9,3DI28L7YXEUZW1EYVJE55DVM1QVE16,6,5
98,4,object_08,object_04,550.30000007153,8,1,654.10000002384,0.6666666666666666,2,object_05,5,1022,0,2,6,restaurant_1,1,memory-2step-stake-s,586,1864668,0.0-19.0-0.0-0.98,A1F6MWP9A0XLJQ,3X4Q1O9UCK2WXV8VOBT8MFKQE0B7O9,3DI28L7YXEUZW1EYVJE55DVM1QVE16,8,7
99,3,object_10,object_06,1124.2999999523,6,1,509.0,0.7777777777777778,2,object_05,5,1057,0,2,7,library_4,1,memory-2step-stake-s,587,1873111,0.0-19.0-0.0-0.99,A1F6MWP9A0XLJQ,3X4Q1O9UCK2WXV8VOBT8MFKQE0B7O9,3DI28L7YXEUZW1EYVJE55DVM1QVE16,6,5
100,3,object_06,object_10,828.40000009537,6,2,436.5,0.6666666666666666,2,object_05,5,1087,0,2,6,library_5,1,memory-2step-stake-s,588,1881386,0.0-19.0-0.0-0.100,A1F6MWP9A0XLJQ,3X4Q1O9UCK2WXV8VOBT8MFKQE0B7O9,3DI28L7YXEUZW1EYVJE55DVM1QVE16,5,6
101,2,object_09,object_07,985.69999992847,4,1,411.30000007153,0.5555555555555556,2,object_05,1,1092,0,0,5,forest_8,1,memory-2step-stake-s,589,1889538,0.0-19.0-0.0-0.101,A1F6MWP9A0XLJQ,3X4Q1O9UCK2WXV8VOBT8MFKQE0B7O9,3DI28L7YXEUZW1EYVJE55DVM1QVE16,4,3
102,4,object_04,object_08,561.10000002384,8,2,426.30000007153,0.5555555555555556,2,object_05,5,1117,0,0,5,restaurant_6,1,memory-2step-stake-s,590,1897703,0.0-19.0-0.0-0.102,A1F6MWP9A0XLJQ,3X4Q1O9UCK2WXV8VOBT8MFKQE0B7O9,3DI28L7YXEUZW1EYVJE55DVM1QVE16,7,8
103,4,object_08,object_04,576.5,8,1,274.10000002384,0.7777777777777778,2,object_05,1,1124,0,0,7,restaurant_1,1,memory-2step-stake-s,591,1905910,0.0-19.0-0.0-0.103,A1F6MWP9A0XLJQ,3X4Q1O9UCK2WXV8VOBT8MFKQE0B7O9,3DI28L7YXEUZW1EYVJE55DVM1QVE16,8,7
104,4,object_08,object_04,824.89999997616,8,1,403.10000002384,0.7777777777777778,2,object_05,5,1159,0,1,7,restaurant_2,1,memory-2step-stake-s,592,1914273,0.0-19.0-0.0-0.104,A1F6MWP9A0XLJQ,3X4Q1O9UCK2WXV8VOBT8MFKQE0B7O9,3DI28L7YXEUZW1EYVJE55DVM1QVE16,8,7
105,4,object_04,object_08,622.0,8,2,365.79999995232,0.6666666666666666,2,object_05,5,1189,0,1,6,restaurant_3,1,memory-2step-stake-s,593,1922486,0.0-19.0-0.0-0.105,A1F6MWP9A0XLJQ,3X4Q1O9UCK2WXV8VOBT8MFKQE0B7O9,3DI28L7YXEUZW1EYVJE55DVM1QVE16,7,8
106,3,object_06,object_10,885.30000007153,6,2,421.89999997616,0.7777777777777778,2,object_05,5,1224,0,2,7,library_8,1,memory-2step-stake-s,594,1930836,0.0-19.0-0.0-0.106,A1F6MWP9A0XLJQ,3X4Q1O9UCK2WXV8VOBT8MFKQE0B7O9,3DI28L7YXEUZW1EYVJE55DVM1QVE16,5,6
107,4,object_08,object_04,970.5,8,1,492.60000002384,0.6666666666666666,2,object_05,5,1254,0,2,6,restaurant_6,1,memory-2step-stake-s,595,1939162,0.0-19.0-0.0-0.107,A1F6MWP9A0XLJQ,3X4Q1O9UCK2WXV8VOBT8MFKQE0B7O9,3DI28L7YXEUZW1EYVJE55DVM1QVE16,8,7
108,1,object_02,object_01,502.69999992847,1,2,414.29999995232,0.4444444444444444,1,object_03,1,1258,0,4,6,desert_4,1,memory-2step-stake-s,596,1947204,0.0-19.0-0.0-0.108,A1F6MWP9A0XLJQ,3X4Q1O9UCK2WXV8VOBT8MFKQE0B7O9,3DI28L7YXEUZW1EYVJE55DVM1QVE16,2,1
109,2,object_09,object_07,1001.3999999762,4,1,308.0,0.5555555555555556,2,object_05,5,1283,0,3,5,forest_4,1,memory-2step-stake-s,597,1955243,0.0-19.0-0.0-0.109,A1F6MWP9A0XLJQ,3X4Q1O9UCK2WXV8VOBT8MFKQE0B7O9,3DI28L7YXEUZW1EYVJE55DVM1QVE16,4,3
110,4,object_04,object_08,491.69999992847,8,2,743.70000004768,0.5555555555555556,2,object_05,5,1308,0,2,5,restaurant_3,1,memory-2step-stake-s,598,1963713,0.0-19.0-0.0-0.110,A1F6MWP9A0XLJQ,3X4Q1O9UCK2WXV8VOBT8MFKQE0B7O9,3DI28L7YXEUZW1EYVJE55DVM1QVE16,7,8
111,3,object_10,object_06,968.29999995232,6,1,435.09999990463,0.4444444444444444,2,object_05,5,1328,0,2,4,library_5,1,memory-2step-stake-s,599,1971783,0.0-19.0-0.0-0.111,A1F6MWP9A0XLJQ,3X4Q1O9UCK2WXV8VOBT8MFKQE0B7O9,3DI28L7YXEUZW1EYVJE55DVM1QVE16,6,5
112,4,object_04,object_08,451.39999997616,8,2,422.0,0.8888888888888888,2,object_05,5,1368,0,2,8,restaurant_3,1,memory-2step-stake-s,600,1980233,0.0-19.0-0.0-0.112,A1F6MWP9A0XLJQ,3X4Q1O9UCK2WXV8VOBT8MFKQE0B7O9,3DI28L7YXEUZW1EYVJE55DVM1QVE16,7,8
113,3,object_06,object_10,787.0,6,2,434.60000002384,0.7777777777777778,2,object_05,5,1403,0,1,7,library_7,1,memory-2step-stake-s,601,1988601,0.0-19.0-0.0-0.113,A1F6MWP9A0XLJQ,3X4Q1O9UCK2WXV8VOBT8MFKQE0B7O9,3DI28L7YXEUZW1EYVJE55DVM1QVE16,5,6
114,4,object_04,object_08,748.39999997616,8,2,454.60000002384,0.6666666666666666,2,object_05,5,1433,0,1,6,restaurant_1,1,memory-2step-stake-s,602,1996910,0.0-19.0-0.0-0.114,A1F6MWP9A0XLJQ,3X4Q1O9UCK2WXV8VOBT8MFKQE0B7O9,3DI28L7YXEUZW1EYVJE55DVM1QVE16,7,8
115,4,object_04,object_08,879.10000002384,8,2,337.29999995232,0.5555555555555556,2,object_05,1,1438,0,0,5,restaurant_2,1,memory-2step-stake-s,603,2004976,0.0-19.0-0.0-0.115,A1F6MWP9A0XLJQ,3X4Q1O9UCK2WXV8VOBT8MFKQE0B7O9,3DI28L7YXEUZW1EYVJE55DVM1QVE16,7,8
116,4,object_04,object_08,717.0,8,2,400.39999997616,0.3333333333333333,2,object_05,5,1453,0,2,3,restaurant_6,1,memory-2step-stake-s,604,2012910,0.0-19.0-0.0-0.116,A1F6MWP9A0XLJQ,3X4Q1O9UCK2WXV8VOBT8MFKQE0B7O9,3DI28L7YXEUZW1EYVJE55DVM1QVE16,7,8
117,3,object_06,object_10,762.79999995232,6,2,333.19999992847,0.2222222222222222,2,object_05,5,1463,0,5,2,library_7,1,memory-2step-stake-s,605,2020666,0.0-19.0-0.0-0.117,A1F6MWP9A0XLJQ,3X4Q1O9UCK2WXV8VOBT8MFKQE0B7O9,3DI28L7YXEUZW1EYVJE55DVM1QVE16,5,6
118,3,object_10,object_06,974.5,5,2,671.89999997616,0.8888888888888888,1,object_03,5,1503,0,8,4,library_4,1,memory-2step-stake-s,606,2029386,0.0-19.0-0.0-0.118,A1F6MWP9A0XLJQ,3X4Q1O9UCK2WXV8VOBT8MFKQE0B7O9,3DI28L7YXEUZW1EYVJE55DVM1QVE16,6,5
119,4,object_04,object_08,741.60000002384,7,1,414.60000002384,0.7777777777777778,1,object_03,5,1538,0,7,4,restaurant_1,1,memory-2step-stake-s,607,2037732,0.0-19.0-0.0-0.119,A1F6MWP9A0XLJQ,3X4Q1O9UCK2WXV8VOBT8MFKQE0B7O9,3DI28L7YXEUZW1EYVJE55DVM1QVE16,7,8
120,2,object_09,object_07,920.69999992847,3,2,463.10000002384,0.3333333333333333,1,object_03,5,1553,0,3,5,forest_2,1,memory-2step-stake-s,608,2045720,0.0-19.0-0.0-0.120,A1F6MWP9A0XLJQ,3X4Q1O9UCK2WXV8VOBT8MFKQE0B7O9,3DI28L7YXEUZW1EYVJE55DVM1QVE16,4,3
121,4,object_04,object_08,620.10000002384,7,1,308.79999995232,0.3333333333333333,1,object_03,5,1568,0,3,5,restaurant_1,1,memory-2step-stake-s,609,2053555,0.0-19.0-0.0-0.121,A1F6MWP9A0XLJQ,3X4Q1O9UCK2WXV8VOBT8MFKQE0B7O9,3DI28L7YXEUZW1EYVJE55DVM1QVE16,7,8
122,2,object_07,object_09,625.70000004768,3,1,330.59999990463,0.5555555555555556,1,object_03,1,1573,0,5,2,forest_8,1,memory-2step-stake-s,610,2061613,0.0-19.0-0.0-0.122,A1F6MWP9A0XLJQ,3X4Q1O9UCK2WXV8VOBT8MFKQE0B7O9,3DI28L7YXEUZW1EYVJE55DVM1QVE16,3,4
123,4,object_04,object_08,534.5,7,1,280.60000002384,0.4444444444444444,1,object_03,5,1593,0,4,2,restaurant_6,1,memory-2step-stake-s,611,2069529,0.0-19.0-0.0-0.123,A1F6MWP9A0XLJQ,3X4Q1O9UCK2WXV8VOBT8MFKQE0B7O9,3DI28L7YXEUZW1EYVJE55DVM1QVE16,7,8
124,2,object_07,object_09,870.39999997616,3,1,332.80000007153,0.4444444444444444,1,object_03,1,1597,0,4,2,forest_4,1,memory-2step-stake-s,612,2077492,0.0-19.0-0.0-0.124,A1F6MWP9A0XLJQ,3X4Q1O9UCK2WXV8VOBT8MFKQE0B7O9,3DI28L7YXEUZW1EYVJE55DVM1QVE16,3,4
125,3,object_10,object_06,825.79999995232,5,2,347.0,0.3333333333333333,1,object_03,5,1612,0,3,2,library_5,1,memory-2step-stake-s,613,2085365,0.0-19.0-0.0-0.125,A1F6MWP9A0XLJQ,3X4Q1O9UCK2WXV8VOBT8MFKQE0B7O9,3DI28L7YXEUZW1EYVJE55DVM1QVE16,6,5
126,4,object_04,object_08,405.89999997616,8,2,391.30000007153,0.2222222222222222,2,object_05,5,1622,0,4,2,restaurant_1,1,memory-2step-stake-s,614,2093185,0.0-19.0-0.0-0.126,A1F6MWP9A0XLJQ,3X4Q1O9UCK2WXV8VOBT8MFKQE0B7O9,3DI28L7YXEUZW1EYVJE55DVM1QVE16,7,8
127,4,object_08,object_04,820.29999995232,8,1,302.40000009537,0.1111111111111111,2,object_05,5,1627,0,1,1,restaurant_3,1,memory-2step-stake-s,615,2100810,0.0-19.0-0.0-0.127,A1F6MWP9A0XLJQ,3X4Q1O9UCK2WXV8VOBT8MFKQE0B7O9,3DI28L7YXEUZW1EYVJE55DVM1QVE16,8,7
128,4,object_04,object_08,714.89999997616,8,2,834.5,0.0,2,object_05,5,1627,0,2,0,restaurant_3,1,memory-2step-stake-s,617,2164926,0.0-19.0-0.1-0.128,A1F6MWP9A0XLJQ,3X4Q1O9UCK2WXV8VOBT8MFKQE0B7O9,3DI28L7YXEUZW1EYVJE55DVM1QVE16,7,8
129,1,object_02,object_01,433.59999990463,2,1,402.0,0.3333333333333333,2,object_05,1,1630,0,1,3,desert_1,1,memory-2step-stake-s,618,2172856,0.0-19.0-0.1-0.129,A1F6MWP9A0XLJQ,3X4Q1O9UCK2WXV8VOBT8MFKQE0B7O9,3DI28L7YXEUZW1EYVJE55DVM1QVE16,2,1
130,3,object_10,object_06,984.89999997616,6,1,313.60000002384,0.3333333333333333,2,object_05,5,1645,0,1,3,library_8,1,memory-2step-stake-s,619,2180694,0.0-19.0-0.1-0.130,A1F6MWP9A0XLJQ,3X4Q1O9UCK2WXV8VOBT8MFKQE0B7O9,3DI28L7YXEUZW1EYVJE55DVM1QVE16,6,5
131,2,object_07,object_09,1158.6999999285,4,2,481.39999997616,0.2222222222222222,2,object_05,1,1647,0,0,2,forest_1,1,memory-2step-stake-s,620,2188596,0.0-19.0-0.1-0.131,A1F6MWP9A0XLJQ,3X4Q1O9UCK2WXV8VOBT8MFKQE0B7O9,3DI28L7YXEUZW1EYVJE55DVM1QVE16,3,4
132,3,object_10,object_06,850.60000002384,5,2,380.70000004768,0.0,1,object_03,5,1647,0,0,1,library_8,1,memory-2step-stake-s,621,2196194,0.0-19.0-0.1-0.132,A1F6MWP9A0XLJQ,3X4Q1O9UCK2WXV8VOBT8MFKQE0B7O9,3DI28L7YXEUZW1EYVJE55DVM1QVE16,6,5
133,3,object_10,object_06,1188.1000000238,5,2,325.89999997616,0.2222222222222222,1,object_03,5,1657,0,2,1,library_7,1,memory-2step-stake-s,622,2203949,0.0-19.0-0.1-0.133,A1F6MWP9A0XLJQ,3X4Q1O9UCK2WXV8VOBT8MFKQE0B7O9,3DI28L7YXEUZW1EYVJE55DVM1QVE16,6,5
134,3,object_10,object_06,963.29999995232,6,1,296.80000007153,0.1111111111111111,2,object_05,5,1662,0,1,1,library_5,1,memory-2step-stake-s,623,2211571,0.0-19.0-0.1-0.134,A1F6MWP9A0XLJQ,3X4Q1O9UCK2WXV8VOBT8MFKQE0B7O9,3DI28L7YXEUZW1EYVJE55DVM1QVE16,6,5
135,4,object_04,object_08,956.0,7,1,309.0,0.1111111111111111,1,object_03,5,1667,0,1,2,restaurant_6,1,memory-2step-stake-s,624,2219210,0.0-19.0-0.1-0.135,A1F6MWP9A0XLJQ,3X4Q1O9UCK2WXV8VOBT8MFKQE0B7O9,3DI28L7YXEUZW1EYVJE55DVM1QVE16,7,8
136,1,object_02,object_01,515.89999997616,1,2,405.29999995232,0.1111111111111111,1,object_03,1,1668,0,1,2,desert_1,1,memory-2step-stake-s,625,2226941,0.0-19.0-0.1-0.136,A1F6MWP9A0XLJQ,3X4Q1O9UCK2WXV8VOBT8MFKQE0B7O9,3DI28L7YXEUZW1EYVJE55DVM1QVE16,2,1
137,3,object_10,object_06,847.5,6,1,264.70000004768,0.6666666666666666,2,object_05,5,1698,0,1,6,library_8,1,memory-2step-stake-s,626,2235035,0.0-19.0-0.1-0.137,A1F6MWP9A0XLJQ,3X4Q1O9UCK2WXV8VOBT8MFKQE0B7O9,3DI28L7YXEUZW1EYVJE55DVM1QVE16,6,5
138,1,object_01,object_02,993.29999995232,1,1,386.10000002384,0.1111111111111111,1,object_03,1,1699,0,1,9,desert_3,1,memory-2step-stake-s,627,2242743,0.0-19.0-0.1-0.138,A1F6MWP9A0XLJQ,3X4Q1O9UCK2WXV8VOBT8MFKQE0B7O9,3DI28L7YXEUZW1EYVJE55DVM1QVE16,1,2
139,3,object_06,object_10,1201.1000000238,6,2,465.10000002384,0.6666666666666666,2,object_05,5,1729,0,0,6,library_4,1,memory-2step-stake-s,628,2251036,0.0-19.0-0.1-0.139,A1F6MWP9A0XLJQ,3X4Q1O9UCK2WXV8VOBT8MFKQE0B7O9,3DI28L7YXEUZW1EYVJE55DVM1QVE16,5,6
140,1,object_01,object_02,600.69999992847,2,2,426.19999992847,0.8888888888888888,2,object_05,1,1737,0,4,8,desert_3,1,memory-2step-stake-s,629,2259495,0.0-19.0-0.1-0.140,A1F6MWP9A0XLJQ,3X4Q1O9UCK2WXV8VOBT8MFKQE0B7O9,3DI28L7YXEUZW1EYVJE55DVM1QVE16,1,2
141,4,object_08,object_04,777.20000004768,7,2,411.80000007153,0.4444444444444444,1,object_03,5,1757,0,4,7,restaurant_3,1,memory-2step-stake-s,630,2267543,0.0-19.0-0.1-0.141,A1F6MWP9A0XLJQ,3X4Q1O9UCK2WXV8VOBT8MFKQE0B7O9,3DI28L7YXEUZW1EYVJE55DVM1QVE16,8,7
142,2,object_09,object_07,1034.2000000477,4,1,1132.0,0.7777777777777778,2,object_05,1,1764,0,0,7,forest_2,1,memory-2step-stake-s,631,2276602,0.0-19.0-0.1-0.142,A1F6MWP9A0XLJQ,3X4Q1O9UCK2WXV8VOBT8MFKQE0B7O9,3DI28L7YXEUZW1EYVJE55DVM1QVE16,4,3
143,4,object_04,object_08,554.29999995232,8,2,434.0,0.7777777777777778,2,object_05,1,1771,0,0,7,restaurant_1,1,memory-2step-stake-s,632,2284993,0.0-19.0-0.1-0.143,A1F6MWP9A0XLJQ,3X4Q1O9UCK2WXV8VOBT8MFKQE0B7O9,3DI28L7YXEUZW1EYVJE55DVM1QVE16,7,8
144,4,object_08,object_04,587.10000002384,8,1,364.30000007153,0.5555555555555556,2,object_05,5,1796,0,0,5,restaurant_2,1,memory-2step-stake-s,633,2293097,0.0-19.0-0.1-0.144,A1F6MWP9A0XLJQ,3X4Q1O9UCK2WXV8VOBT8MFKQE0B7O9,3DI28L7YXEUZW1EYVJE55DVM1QVE16,8,7
145,1,object_02,object_01,435.70000004768,2,1,363.0,0.8888888888888888,2,object_05,1,1804,0,3,8,desert_1,1,memory-2step-stake-s,634,2301489,0.0-19.0-0.1-0.145,A1F6MWP9A0XLJQ,3X4Q1O9UCK2WXV8VOBT8MFKQE0B7O9,3DI28L7YXEUZW1EYVJE55DVM1QVE16,2,1
146,3,object_06,object_10,667.0,6,2,447.19999992847,0.6666666666666666,2,object_05,1,1810,0,5,6,library_7,1,memory-2step-stake-s,635,2309766,0.0-19.0-0.1-0.146,A1F6MWP9A0XLJQ,3X4Q1O9UCK2WXV8VOBT8MFKQE0B7O9,3DI28L7YXEUZW1EYVJE55DVM1QVE16,5,6
147,2,object_09,object_07,1087.6000000238,4,1,419.0,0.5555555555555556,2,object_05,1,1815,0,4,5,forest_1,1,memory-2step-stake-s,636,2317925,0.0-19.0-0.1-0.147,A1F6MWP9A0XLJQ,3X4Q1O9UCK2WXV8VOBT8MFKQE0B7O9,3DI28L7YXEUZW1EYVJE55DVM1QVE16,4,3
148,2,object_09,object_07,524.0,4,1,364.10000002384,0.6666666666666666,2,object_05,5,1845,0,5,6,forest_2,1,memory-2step-stake-s,637,2326124,0.0-19.0-0.1-0.148,A1F6MWP9A0XLJQ,3X4Q1O9UCK2WXV8VOBT8MFKQE0B7O9,3DI28L7YXEUZW1EYVJE55DVM1QVE16,4,3
149,1,object_02,object_01,450.30000007153,2,1,303.80000007153,0.6666666666666666,2,object_05,1,1851,0,6,6,desert_1,1,memory-2step-stake-s,638,2334264,0.0-19.0-0.1-0.149,A1F6MWP9A0XLJQ,3X4Q1O9UCK2WXV8VOBT8MFKQE0B7O9,3DI28L7YXEUZW1EYVJE55DVM1QVE16,2,1
150,1,object_02,object_01,427.5,2,1,422.0,0.8888888888888888,2,object_05,1,1859,0,9,8,desert_3,1,memory-2step-stake-s,639,2342718,0.0-19.0-0.1-0.150,A1F6MWP9A0XLJQ,3X4Q1O9UCK2WXV8VOBT8MFKQE0B7O9,3DI28L7YXEUZW1EYVJE55DVM1QVE16,2,1
151,2,object_07,object_09,436.60000002384,4,2,310.39999997616,0.8888888888888888,2,object_05,1,1867,0,5,8,forest_8,1,memory-2step-stake-s,640,2351068,0.0-19.0-0.1-0.151,A1F6MWP9A0XLJQ,3X4Q1O9UCK2WXV8VOBT8MFKQE0B7O9,3DI28L7YXEUZW1EYVJE55DVM1QVE16,3,4
152,1,object_02,object_01,456.5,2,1,358.40000009537,1.0,2,object_05,5,1912,0,6,9,desert_4,1,memory-2step-stake-s,641,2359558,0.0-19.0-0.1-0.152,A1F6MWP9A0XLJQ,3X4Q1O9UCK2WXV8VOBT8MFKQE0B7O9,3DI28L7YXEUZW1EYVJE55DVM1QVE16,2,1
153,2,object_07,object_09,621.60000002384,4,2,566.5,1.0,2,object_05,1,1921,0,9,9,forest_2,1,memory-2step-stake-s,642,2368253,0.0-19.0-0.1-0.153,A1F6MWP9A0XLJQ,3X4Q1O9UCK2WXV8VOBT8MFKQE0B7O9,3DI28L7YXEUZW1EYVJE55DVM1QVE16,3,4
154,2,object_07,object_09,746.20000004768,4,2,348.10000002384,0.6666666666666666,2,object_05,1,1927,0,8,6,forest_1,1,memory-2step-stake-s,643,2376446,0.0-19.0-0.1-0.154,A1F6MWP9A0XLJQ,3X4Q1O9UCK2WXV8VOBT8MFKQE0B7O9,3DI28L7YXEUZW1EYVJE55DVM1QVE16,3,4
155,1,object_01,object_02,416.79999995232,2,2,391.70000004768,0.8888888888888888,2,object_05,1,1935,0,8,8,desert_5,1,memory-2step-stake-s,644,2384873,0.0-19.0-0.1-0.155,A1F6MWP9A0XLJQ,3X4Q1O9UCK2WXV8VOBT8MFKQE0B7O9,3DI28L7YXEUZW1EYVJE55DVM1QVE16,1,2
156,1,object_01,object_02,366.39999997616,2,2,247.60000002384,0.7777777777777778,2,object_05,1,1942,0,8,7,desert_4,1,memory-2step-stake-s,645,2393049,0.0-19.0-0.1-0.156,A1F6MWP9A0XLJQ,3X4Q1O9UCK2WXV8VOBT8MFKQE0B7O9,3DI28L7YXEUZW1EYVJE55DVM1QVE16,1,2
157,2,object_09,object_07,441.0,4,1,316.0,0.8888888888888888,2,object_05,1,1950,0,8,8,forest_2,1,memory-2step-stake-s,646,2401398,0.0-19.0-0.1-0.157,A1F6MWP9A0XLJQ,3X4Q1O9UCK2WXV8VOBT8MFKQE0B7O9,3DI28L7YXEUZW1EYVJE55DVM1QVE16,4,3
158,2,object_07,object_09,527.0,4,2,391.70000004768,0.8888888888888888,2,object_05,1,1958,0,6,8,forest_8,1,memory-2step-stake-s,647,2409822,0.0-19.0-0.1-0.158,A1F6MWP9A0XLJQ,3X4Q1O9UCK2WXV8VOBT8MFKQE0B7O9,3DI28L7YXEUZW1EYVJE55DVM1QVE16,3,4
159,3,object_10,object_06,1181.2000000477,6,1,460.60000002384,0.6666666666666666,2,object_05,5,1988,0,9,6,library_8,1,memory-2step-stake-s,648,2418120,0.0-19.0-0.1-0.159,A1F6MWP9A0XLJQ,3X4Q1O9UCK2WXV8VOBT8MFKQE0B7O9,3DI28L7YXEUZW1EYVJE55DVM1QVE16,6,5
160,3,object_10,object_06,801.80000007153,6,1,317.20000004768,0.2222222222222222,2,object_05,5,1998,0,9,2,library_4,1,memory-2step-stake-s,649,2425856,0.0-19.0-0.1-0.160,A1F6MWP9A0XLJQ,3X4Q1O9UCK2WXV8VOBT8MFKQE0B7O9,3DI28L7YXEUZW1EYVJE55DVM1QVE16,6,5
161,3,object_10,object_06,465.89999997616,5,2,266.80000007153,0.4444444444444444,1,object_03,5,2018,0,4,2,library_4,1,memory-2step-stake-s,650,2433752,0.0-19.0-0.1-0.161,A1F6MWP9A0XLJQ,3X4Q1O9UCK2WXV8VOBT8MFKQE0B7O9,3DI28L7YXEUZW1EYVJE55DVM1QVE16,6,5
162,4,object_08,object_04,1003.3999999762,7,2,397.10000002384,0.3333333333333333,1,object_03,5,2033,0,3,4,restaurant_2,1,memory-2step-stake-s,651,2441684,0.0-19.0-0.1-0.162,A1F6MWP9A0XLJQ,3X4Q1O9UCK2WXV8VOBT8MFKQE0B7O9,3DI28L7YXEUZW1EYVJE55DVM1QVE16,8,7
163,1,object_02,object_01,526.39999997616,1,2,221.10000002384,0.1111111111111111,1,object_03,1,2034,0,1,2,desert_4,1,memory-2step-stake-s,652,2449223,0.0-19.0-0.1-0.163,A1F6MWP9A0XLJQ,3X4Q1O9UCK2WXV8VOBT8MFKQE0B7O9,3DI28L7YXEUZW1EYVJE55DVM1QVE16,2,1
164,2,object_09,object_07,436.89999997616,4,1,283.89999997616,0.1111111111111111,2,object_05,5,2039,0,1,1,forest_4,1,memory-2step-stake-s,653,2456828,0.0-19.0-0.1-0.164,A1F6MWP9A0XLJQ,3X4Q1O9UCK2WXV8VOBT8MFKQE0B7O9,3DI28L7YXEUZW1EYVJE55DVM1QVE16,4,3
165,2,object_09,object_07,437.19999992847,4,1,271.20000004768,0.1111111111111111,2,object_05,1,2040,0,3,1,forest_1,1,memory-2step-stake-s,654,2464417,0.0-19.0-0.1-0.165,A1F6MWP9A0XLJQ,3X4Q1O9UCK2WXV8VOBT8MFKQE0B7O9,3DI28L7YXEUZW1EYVJE55DVM1QVE16,4,3
166,1,object_01,object_02,773.60000002384,1,1,219.20000004768,0.4444444444444444,1,object_03,1,2044,0,4,4,desert_4,1,memory-2step-stake-s,655,2472289,0.0-19.0-0.1-0.166,A1F6MWP9A0XLJQ,3X4Q1O9UCK2WXV8VOBT8MFKQE0B7O9,3DI28L7YXEUZW1EYVJE55DVM1QVE16,1,2
167,4,object_08,object_04,1255.7000000477,7,2,392.79999995232,0.2222222222222222,1,object_03,5,2054,0,2,5,restaurant_6,1,memory-2step-stake-s,656,2480113,0.0-19.0-0.1-0.167,A1F6MWP9A0XLJQ,3X4Q1O9UCK2WXV8VOBT8MFKQE0B7O9,3DI28L7YXEUZW1EYVJE55DVM1QVE16,8,7
168,1,object_02,object_01,514.0,1,2,424.70000004768,0.1111111111111111,1,object_03,1,2055,0,1,3,desert_1,1,memory-2step-stake-s,657,2487868,0.0-19.0-0.1-0.168,A1F6MWP9A0XLJQ,3X4Q1O9UCK2WXV8VOBT8MFKQE0B7O9,3DI28L7YXEUZW1EYVJE55DVM1QVE16,2,1
169,3,object_06,object_10,770.59999990463,5,1,291.69999992847,0.1111111111111111,1,object_03,5,2060,0,1,1,library_8,1,memory-2step-stake-s,658,2495483,0.0-19.0-0.1-0.169,A1F6MWP9A0XLJQ,3X4Q1O9UCK2WXV8VOBT8MFKQE0B7O9,3DI28L7YXEUZW1EYVJE55DVM1QVE16,5,6
170,4,object_08,object_04,836.40000009537,8,1,245.79999995232,0.1111111111111111,2,object_05,5,2065,0,2,1,restaurant_6,1,memory-2step-stake-s,659,2503051,0.0-19.0-0.1-0.170,A1F6MWP9A0XLJQ,3X4Q1O9UCK2WXV8VOBT8MFKQE0B7O9,3DI28L7YXEUZW1EYVJE55DVM1QVE16,8,7
171,4,object_08,object_04,734.40000009537,8,1,307.0,0.1111111111111111,2,object_05,5,2070,0,5,1,restaurant_3,1,memory-2step-stake-s,660,2510678,0.0-19.0-0.1-0.171,A1F6MWP9A0XLJQ,3X4Q1O9UCK2WXV8VOBT8MFKQE0B7O9,3DI28L7YXEUZW1EYVJE55DVM1QVE16,8,7
172,2,object_09,object_07,457.19999992847,3,2,307.39999997616,0.2222222222222222,1,object_03,1,2072,0,2,1,forest_1,1,memory-2step-stake-s,661,2518408,0.0-19.0-0.1-0.172,A1F6MWP9A0XLJQ,3X4Q1O9UCK2WXV8VOBT8MFKQE0B7O9,3DI28L7YXEUZW1EYVJE55DVM1QVE16,4,3
173,1,object_01,object_02,448.0,1,1,82.5,0.2222222222222222,1,object_03,1,2074,0,2,3,desert_5,1,memory-2step-stake-s,662,2525915,0.0-19.0-0.1-0.173,A1F6MWP9A0XLJQ,3X4Q1O9UCK2WXV8VOBT8MFKQE0B7O9,3DI28L7YXEUZW1EYVJE55DVM1QVE16,1,2
174,3,object_10,object_06,902.89999997616,5,2,336.39999997616,0.2222222222222222,1,object_03,5,2084,0,2,6,library_7,1,memory-2step-stake-s,663,2533673,0.0-19.0-0.1-0.174,A1F6MWP9A0XLJQ,3X4Q1O9UCK2WXV8VOBT8MFKQE0B7O9,3DI28L7YXEUZW1EYVJE55DVM1QVE16,6,5
175,1,object_02,object_01,807.0,1,2,265.19999992847,0.5555555555555556,1,object_03,1,2089,0,5,7,desert_5,1,memory-2step-stake-s,664,2541663,0.0-19.0-0.1-0.175,A1F6MWP9A0XLJQ,3X4Q1O9UCK2WXV8VOBT8MFKQE0B7O9,3DI28L7YXEUZW1EYVJE55DVM1QVE16,2,1
176,3,object_10,object_06,996.69999992847,5,2,374.10000002384,0.6666666666666666,1,object_03,5,2119,0,6,6,library_4,1,memory-2step-stake-s,665,2549877,0.0-19.0-0.1-0.176,A1F6MWP9A0XLJQ,3X4Q1O9UCK2WXV8VOBT8MFKQE0B7O9,3DI28L7YXEUZW1EYVJE55DVM1QVE16,6,5
177,3,object_06,object_10,831.30000007153,5,1,393.5,0.8888888888888888,1,object_03,5,2159,0,8,6,library_7,1,memory-2step-stake-s,666,2558302,0.0-19.0-0.1-0.177,A1F6MWP9A0XLJQ,3X4Q1O9UCK2WXV8VOBT8MFKQE0B7O9,3DI28L7YXEUZW1EYVJE55DVM1QVE16,5,6
178,2,object_07,object_09,667.79999995232,3,1,333.70000004768,0.8888888888888888,1,object_03,1,2167,0,8,5,forest_8,1,memory-2step-stake-s,667,2566694,0.0-19.0-0.1-0.178,A1F6MWP9A0XLJQ,3X4Q1O9UCK2WXV8VOBT8MFKQE0B7O9,3DI28L7YXEUZW1EYVJE55DVM1QVE16,3,4
179,3,object_06,object_10,916.60000002384,5,1,429.29999995232,0.5555555555555556,1,object_03,5,2192,0,5,5,library_5,1,memory-2step-stake-s,668,2574857,0.0-19.0-0.1-0.179,A1F6MWP9A0XLJQ,3X4Q1O9UCK2WXV8VOBT8MFKQE0B7O9,3DI28L7YXEUZW1EYVJE55DVM1QVE16,5,6
180,4,object_08,object_04,797.0,7,2,302.29999995232,0.4444444444444444,1,object_03,5,2212,0,4,5,restaurant_1,1,memory-2step-stake-s,669,2582783,0.0-19.0-0.1-0.180,A1F6MWP9A0XLJQ,3X4Q1O9UCK2WXV8VOBT8MFKQE0B7O9,3DI28L7YXEUZW1EYVJE55DVM1QVE16,8,7
181,2,object_07,object_09,648.69999992847,3,1,305.70000004768,0.2222222222222222,1,object_03,5,2222,0,2,6,forest_8,1,memory-2step-stake-s,670,2590512,0.0-19.0-0.1-0.181,A1F6MWP9A0XLJQ,3X4Q1O9UCK2WXV8VOBT8MFKQE0B7O9,3DI28L7YXEUZW1EYVJE55DVM1QVE16,3,4
182,4,object_04,object_08,717.0,8,2,234.09999990463,0.4444444444444444,2,object_05,1,2226,0,4,4,restaurant_1,1,memory-2step-stake-s,671,2598393,0.0-19.0-0.1-0.182,A1F6MWP9A0XLJQ,3X4Q1O9UCK2WXV8VOBT8MFKQE0B7O9,3DI28L7YXEUZW1EYVJE55DVM1QVE16,7,8
183,2,object_09,object_07,1042.2000000477,4,1,325.30000007153,0.6666666666666666,2,object_05,1,2232,0,6,6,forest_8,1,memory-2step-stake-s,672,2606557,0.0-19.0-0.1-0.183,A1F6MWP9A0XLJQ,3X4Q1O9UCK2WXV8VOBT8MFKQE0B7O9,3DI28L7YXEUZW1EYVJE55DVM1QVE16,4,3
184,3,object_06,object_10,1020.1000000238,6,2,330.69999992847,0.6666666666666666,2,object_05,5,2262,0,6,6,library_5,1,memory-2step-stake-s,673,2614727,0.0-19.0-0.1-0.184,A1F6MWP9A0XLJQ,3X4Q1O9UCK2WXV8VOBT8MFKQE0B7O9,3DI28L7YXEUZW1EYVJE55DVM1QVE16,5,6
185,3,object_06,object_10,648.29999995232,6,2,344.40000009537,0.7777777777777778,2,object_05,5,2297,0,8,7,library_7,1,memory-2step-stake-s,674,2623030,0.0-19.0-0.1-0.185,A1F6MWP9A0XLJQ,3X4Q1O9UCK2WXV8VOBT8MFKQE0B7O9,3DI28L7YXEUZW1EYVJE55DVM1QVE16,5,6
186,2,object_07,object_09,414.09999990463,4,2,255.10000002384,1.0,2,object_05,1,2306,0,8,9,forest_2,1,memory-2step-stake-s,675,2631420,0.0-19.0-0.1-0.186,A1F6MWP9A0XLJQ,3X4Q1O9UCK2WXV8VOBT8MFKQE0B7O9,3DI28L7YXEUZW1EYVJE55DVM1QVE16,3,4
187,3,object_10,object_06,686.20000004768,6,1,320.10000002384,0.7777777777777778,2,object_05,5,2341,0,6,7,library_5,1,memory-2step-stake-s,676,2639680,0.0-19.0-0.1-0.187,A1F6MWP9A0XLJQ,3X4Q1O9UCK2WXV8VOBT8MFKQE0B7O9,3DI28L7YXEUZW1EYVJE55DVM1QVE16,6,5
188,2,object_07,object_09,450.39999997616,4,2,254.30000007153,0.7777777777777778,2,object_05,5,2376,0,8,7,forest_4,1,memory-2step-stake-s,677,2647866,0.0-19.0-0.1-0.188,A1F6MWP9A0XLJQ,3X4Q1O9UCK2WXV8VOBT8MFKQE0B7O9,3DI28L7YXEUZW1EYVJE55DVM1QVE16,3,4
189,3,object_10,object_06,991.70000004768,6,1,373.10000002384,0.7777777777777778,2,object_05,1,2383,0,8,7,library_5,1,memory-2step-stake-s,678,2656169,0.0-19.0-0.1-0.189,A1F6MWP9A0XLJQ,3X4Q1O9UCK2WXV8VOBT8MFKQE0B7O9,3DI28L7YXEUZW1EYVJE55DVM1QVE16,6,5
190,4,object_04,object_08,812.5,8,2,350.20000004768,0.8888888888888888,2,object_05,5,2423,0,9,8,restaurant_2,1,memory-2step-stake-s,679,2664555,0.0-19.0-0.1-0.190,A1F6MWP9A0XLJQ,3X4Q1O9UCK2WXV8VOBT8MFKQE0B7O9,3DI28L7YXEUZW1EYVJE55DVM1QVE16,7,8
191,2,object_09,object_07,481.70000004768,4,1,306.60000002384,0.8888888888888888,2,object_05,5,2463,0,7,8,forest_8,1,memory-2step-stake-s,680,2672905,0.0-19.0-0.1-0.191,A1F6MWP9A0XLJQ,3X4Q1O9UCK2WXV8VOBT8MFKQE0B7O9,3DI28L7YXEUZW1EYVJE55DVM1QVE16,4,3
192,1,object_02,object_01,404.39999997616,2,1,340.69999992847,0.8888888888888888,2,object_05,1,2471,0,7,8,desert_4,1,memory-2step-stake-s,681,2681277,0.0-19.0-0.1-0.192,A1F6MWP9A0XLJQ,3X4Q1O9UCK2WXV8VOBT8MFKQE0B7O9,3DI28L7YXEUZW1EYVJE55DVM1QVE16,2,1
193,3,object_06,object_10,915.20000004768,6,2,371.60000002384,0.6666666666666666,2,object_05,1,2477,0,8,6,library_7,1,memory-2step-stake-s,682,2689479,0.0-19.0-0.1-0.193,A1F6MWP9A0XLJQ,3X4Q1O9UCK2WXV8VOBT8MFKQE0B7O9,3DI28L7YXEUZW1EYVJE55DVM1QVE16,5,6
194,3,object_10,object_06,1106.0,6,1,329.10000002384,0.5555555555555556,2,object_05,5,2502,0,8,5,library_4,1,memory-2step-stake-s,683,2697540,0.0-19.0-0.1-0.194,A1F6MWP9A0XLJQ,3X4Q1O9UCK2WXV8VOBT8MFKQE0B7O9,3DI28L7YXEUZW1EYVJE55DVM1QVE16,6,5
195,3,object_10,object_06,533.39999997616,6,1,30.5,0.2222222222222222,2,object_05,5,2512,0,9,2,library_7,1,memory-2step-stake-s,684,2704995,0.0-19.0-0.1-0.195,A1F6MWP9A0XLJQ,3X4Q1O9UCK2WXV8VOBT8MFKQE0B7O9,3DI28L7YXEUZW1EYVJE55DVM1QVE16,6,5
196,3,object_06,object_10,827.89999997616,5,1,311.0,0.8888888888888888,1,object_03,5,2552,0,8,3,library_4,1,memory-2step-stake-s,685,2713358,0.0-19.0-0.1-0.196,A1F6MWP9A0XLJQ,3X4Q1O9UCK2WXV8VOBT8MFKQE0B7O9,3DI28L7YXEUZW1EYVJE55DVM1QVE16,5,6
197,4,object_04,object_08,856.10000002384,7,1,307.89999997616,0.8888888888888888,1,object_03,1,2560,0,8,5,restaurant_2,1,memory-2step-stake-s,686,2721722,0.0-19.0-0.1-0.197,A1F6MWP9A0XLJQ,3X4Q1O9UCK2WXV8VOBT8MFKQE0B7O9,3DI28L7YXEUZW1EYVJE55DVM1QVE16,7,8
198,1,object_01,object_02,444.0,1,1,291.0,0.2222222222222222,1,object_03,5,2570,0,2,2,desert_1,1,memory-2step-stake-s,687,2729460,0.0-19.0-0.1-0.198,A1F6MWP9A0XLJQ,3X4Q1O9UCK2WXV8VOBT8MFKQE0B7O9,3DI28L7YXEUZW1EYVJE55DVM1QVE16,1,2
199,2,object_07,object_09,658.5,3,1,271.10000002384,0.2222222222222222,1,object_03,1,2572,0,2,1,forest_8,1,memory-2step-stake-s,688,2737156,0.0-19.0-0.1-0.199,A1F6MWP9A0XLJQ,3X4Q1O9UCK2WXV8VOBT8MFKQE0B7O9,3DI28L7YXEUZW1EYVJE55DVM1QVE16,3,4
200,2,object_07,object_09,412.5,3,1,237.5,0.3333333333333333,1,object_03,5,2587,0,3,2,forest_8,1,memory-2step-stake-s,689,2744923,0.0-19.0-0.1-0.200,A1F6MWP9A0XLJQ,3X4Q1O9UCK2WXV8VOBT8MFKQE0B7O9,3DI28L7YXEUZW1EYVJE55DVM1QVE16,3,4
201,1,object_02,object_01,463.30000007153,1,2,296.39999997616,0.3333333333333333,1,object_03,5,2602,0,3,3,desert_5,1,memory-2step-stake-s,690,2752753,0.0-19.0-0.1-0.201,A1F6MWP9A0XLJQ,3X4Q1O9UCK2WXV8VOBT8MFKQE0B7O9,3DI28L7YXEUZW1EYVJE55DVM1QVE16,2,1
202,3,object_10,object_06,469.80000007153,5,2,256.60000002384,0.5555555555555556,1,object_03,1,2607,0,5,5,library_5,1,memory-2step-stake-s,691,2760752,0.0-19.0-0.1-0.202,A1F6MWP9A0XLJQ,3X4Q1O9UCK2WXV8VOBT8MFKQE0B7O9,3DI28L7YXEUZW1EYVJE55DVM1QVE16,6,5
203,4,object_04,object_08,1156.7999999523,7,1,482.89999997616,0.3333333333333333,1,object_03,5,2622,0,3,3,restaurant_2,1,memory-2step-stake-s,692,2768765,0.0-19.0-0.1-0.203,A1F6MWP9A0XLJQ,3X4Q1O9UCK2WXV8VOBT8MFKQE0B7O9,3DI28L7YXEUZW1EYVJE55DVM1QVE16,7,8
204,2,object_07,object_09,535.90000009537,3,1,313.89999997616,0.4444444444444444,1,object_03,1,2626,0,4,5,forest_4,1,memory-2step-stake-s,693,2776723,0.0-19.0-0.1-0.204,A1F6MWP9A0XLJQ,3X4Q1O9UCK2WXV8VOBT8MFKQE0B7O9,3DI28L7YXEUZW1EYVJE55DVM1QVE16,3,4
205,2,object_09,object_07,423.29999995232,3,2,389.39999997616,0.7777777777777778,1,object_03,1,2633,0,7,5,forest_2,1,memory-2step-stake-s,694,2785051,0.0-19.0-0.1-0.205,A1F6MWP9A0XLJQ,3X4Q1O9UCK2WXV8VOBT8MFKQE0B7O9,3DI28L7YXEUZW1EYVJE55DVM1QVE16,4,3
206,1,object_02,object_01,422.0,1,2,298.0,0.8888888888888888,1,object_03,5,2673,0,8,8,desert_3,1,memory-2step-stake-s,695,2793389,0.0-19.0-0.1-0.206,A1F6MWP9A0XLJQ,3X4Q1O9UCK2WXV8VOBT8MFKQE0B7O9,3DI28L7YXEUZW1EYVJE55DVM1QVE16,2,1
207,2,object_09,object_07,433.0,3,2,276.30000007153,0.8888888888888888,1,object_03,1,2681,0,8,8,forest_8,1,memory-2step-stake-s,696,2801690,0.0-19.0-0.1-0.207,A1F6MWP9A0XLJQ,3X4Q1O9UCK2WXV8VOBT8MFKQE0B7O9,3DI28L7YXEUZW1EYVJE55DVM1QVE16,4,3
208,4,object_04,object_08,914.89999997616,7,1,413.09999990463,0.8888888888888888,1,object_03,5,2721,0,8,8,restaurant_3,1,memory-2step-stake-s,697,2810133,0.0-19.0-0.1-0.208,A1F6MWP9A0XLJQ,3X4Q1O9UCK2WXV8VOBT8MFKQE0B7O9,3DI28L7YXEUZW1EYVJE55DVM1QVE16,7,8
209,2,object_07,object_09,440.60000002384,3,1,374.39999997616,0.7777777777777778,1,object_03,1,2728,0,7,8,forest_1,1,memory-2step-stake-s,698,2818435,0.0-19.0-0.1-0.209,A1F6MWP9A0XLJQ,3X4Q1O9UCK2WXV8VOBT8MFKQE0B7O9,3DI28L7YXEUZW1EYVJE55DVM1QVE16,3,4
210,4,object_04,object_08,972.40000009537,7,1,398.10000002384,0.6666666666666666,1,object_03,5,2758,0,6,6,restaurant_6,1,memory-2step-stake-s,699,2826663,0.0-19.0-0.1-0.210,A1F6MWP9A0XLJQ,3X4Q1O9UCK2WXV8VOBT8MFKQE0B7O9,3DI28L7YXEUZW1EYVJE55DVM1QVE16,7,8
211,2,object_07,object_09,417.79999995232,3,1,290.0,0.7777777777777778,1,object_03,1,2765,0,7,8,forest_8,1,memory-2step-stake-s,700,2834880,0.0-19.0-0.1-0.211,A1F6MWP9A0XLJQ,3X4Q1O9UCK2WXV8VOBT8MFKQE0B7O9,3DI28L7YXEUZW1EYVJE55DVM1QVE16,3,4
212,4,object_04,object_08,423.89999997616,7,1,310.0,0.4444444444444444,1,object_03,5,2785,0,4,4,restaurant_2,1,memory-2step-stake-s,701,2842816,0.0-19.0-0.1-0.212,A1F6MWP9A0XLJQ,3X4Q1O9UCK2WXV8VOBT8MFKQE0B7O9,3DI28L7YXEUZW1EYVJE55DVM1QVE16,7,8
213,4,object_08,object_04,890.79999995232,7,2,493.39999997616,0.4444444444444444,1,object_03,5,2805,0,4,5,restaurant_1,1,memory-2step-stake-s,702,2850974,0.0-19.0-0.1-0.213,A1F6MWP9A0XLJQ,3X4Q1O9UCK2WXV8VOBT8MFKQE0B7O9,3DI28L7YXEUZW1EYVJE55DVM1QVE16,8,7
214,4,object_08,object_04,659.0,7,2,336.69999992847,0.6666666666666666,1,object_03,1,2811,0,6,2,restaurant_6,1,memory-2step-stake-s,703,2859150,0.0-19.0-0.1-0.214,A1F6MWP9A0XLJQ,3X4Q1O9UCK2WXV8VOBT8MFKQE0B7O9,3DI28L7YXEUZW1EYVJE55DVM1QVE16,8,7
215,2,object_09,object_07,1151.5,4,1,385.80000007153,0.5555555555555556,2,object_05,1,2816,0,5,5,forest_2,1,memory-2step-stake-s,704,2867276,0.0-19.0-0.1-0.215,A1F6MWP9A0XLJQ,3X4Q1O9UCK2WXV8VOBT8MFKQE0B7O9,3DI28L7YXEUZW1EYVJE55DVM1QVE16,4,3
216,1,object_01,object_02,1187.4000000954,2,2,405.10000002384,0.4444444444444444,2,object_05,1,2820,0,6,4,desert_1,1,memory-2step-stake-s,705,2875305,0.0-19.0-0.1-0.216,A1F6MWP9A0XLJQ,3X4Q1O9UCK2WXV8VOBT8MFKQE0B7O9,3DI28L7YXEUZW1EYVJE55DVM1QVE16,1,2
217,4,object_04,object_08,1023.6000000238,8,2,313.40000009537,0.4444444444444444,2,object_05,5,2840,0,9,4,restaurant_6,1,memory-2step-stake-s,706,2883241,0.0-19.0-0.1-0.217,A1F6MWP9A0XLJQ,3X4Q1O9UCK2WXV8VOBT8MFKQE0B7O9,3DI28L7YXEUZW1EYVJE55DVM1QVE16,7,8
218,1,object_02,object_01,419.70000004768,2,1,276.80000007153,0.3333333333333333,2,object_05,1,2843,0,8,3,desert_3,1,memory-2step-stake-s,707,2891040,0.0-19.0-0.1-0.218,A1F6MWP9A0XLJQ,3X4Q1O9UCK2WXV8VOBT8MFKQE0B7O9,3DI28L7YXEUZW1EYVJE55DVM1QVE16,2,1
219,1,object_01,object_02,866.60000002384,1,1,345.10000002384,0.5555555555555556,1,object_03,1,2848,0,5,4,desert_4,1,memory-2step-stake-s,708,2899124,0.0-19.0-0.1-0.219,A1F6MWP9A0XLJQ,3X4Q1O9UCK2WXV8VOBT8MFKQE0B7O9,3DI28L7YXEUZW1EYVJE55DVM1QVE16,1,2
220,3,object_06,object_10,-1.0,-1,-1,-1.0,0.0,-,0,5,2848,0,8,2,library_5,1,memory-2step-stake-s,709,2905639,0.0-19.0-0.1-0.220,A1F6MWP9A0XLJQ,3X4Q1O9UCK2WXV8VOBT8MFKQE0B7O9,3DI28L7YXEUZW1EYVJE55DVM1QVE16,5,6
221,2,object_07,object_09,456.89999997616,3,1,298.90000009537,0.8888888888888888,1,object_03,1,2856,0,8,0,forest_4,1,memory-2step-stake-s,710,2913970,0.0-19.0-0.1-0.221,A1F6MWP9A0XLJQ,3X4Q1O9UCK2WXV8VOBT8MFKQE0B7O9,3DI28L7YXEUZW1EYVJE55DVM1QVE16,3,4
222,2,object_09,object_07,640.70000004768,3,2,254.5,0.7777777777777778,1,object_03,1,2863,0,7,5,forest_4,1,memory-2step-stake-s,711,2922157,0.0-19.0-0.1-0.222,A1F6MWP9A0XLJQ,3X4Q1O9UCK2WXV8VOBT8MFKQE0B7O9,3DI28L7YXEUZW1EYVJE55DVM1QVE16,4,3
223,1,object_02,object_01,450.89999997616,1,2,277.0,0.7777777777777778,1,object_03,5,2898,0,7,7,desert_4,1,memory-2step-stake-s,712,2930370,0.0-19.0-0.1-0.223,A1F6MWP9A0XLJQ,3X4Q1O9UCK2WXV8VOBT8MFKQE0B7O9,3DI28L7YXEUZW1EYVJE55DVM1QVE16,2,1
224,3,object_10,object_06,710.69999992847,5,2,360.20000004768,0.2222222222222222,1,object_03,5,2908,0,2,7,library_5,1,memory-2step-stake-s,713,2938155,0.0-19.0-0.1-0.224,A1F6MWP9A0XLJQ,3X4Q1O9UCK2WXV8VOBT8MFKQE0B7O9,3DI28L7YXEUZW1EYVJE55DVM1QVE16,6,5
225,1,object_02,object_01,431.60000002384,1,2,323.79999995232,0.2222222222222222,1,object_03,1,2910,0,2,8,desert_4,1,memory-2step-stake-s,714,2945917,0.0-19.0-0.1-0.225,A1F6MWP9A0XLJQ,3X4Q1O9UCK2WXV8VOBT8MFKQE0B7O9,3DI28L7YXEUZW1EYVJE55DVM1QVE16,2,1
226,3,object_06,object_10,659.29999995232,6,2,261.0,0.7777777777777778,2,object_05,5,2945,0,0,7,library_5,1,memory-2step-stake-s,715,2954108,0.0-19.0-0.1-0.226,A1F6MWP9A0XLJQ,3X4Q1O9UCK2WXV8VOBT8MFKQE0B7O9,3DI28L7YXEUZW1EYVJE55DVM1QVE16,5,6
227,3,object_06,object_10,875.40000009537,6,2,309.20000004768,1.0,2,object_05,1,2954,0,1,9,library_8,1,memory-2step-stake-s,716,2962562,0.0-19.0-0.1-0.227,A1F6MWP9A0XLJQ,3X4Q1O9UCK2WXV8VOBT8MFKQE0B7O9,3DI28L7YXEUZW1EYVJE55DVM1QVE16,5,6
228,3,object_10,object_06,676.89999997616,6,1,285.20000004768,0.8888888888888888,2,object_05,5,2994,0,5,8,library_4,1,memory-2step-stake-s,717,2970907,0.0-19.0-0.1-0.228,A1F6MWP9A0XLJQ,3X4Q1O9UCK2WXV8VOBT8MFKQE0B7O9,3DI28L7YXEUZW1EYVJE55DVM1QVE16,6,5
229,2,object_07,object_09,473.0,4,2,304.0,0.8888888888888888,2,object_05,5,3034,0,3,8,forest_4,1,memory-2step-stake-s,718,2979251,0.0-19.0-0.1-0.229,A1F6MWP9A0XLJQ,3X4Q1O9UCK2WXV8VOBT8MFKQE0B7O9,3DI28L7YXEUZW1EYVJE55DVM1QVE16,3,4
230,2,object_09,object_07,427.60000002384,4,1,580.60000002384,0.6666666666666666,2,object_05,1,3040,0,5,6,forest_1,1,memory-2step-stake-s,719,2987663,0.0-19.0-0.1-0.230,A1F6MWP9A0XLJQ,3X4Q1O9UCK2WXV8VOBT8MFKQE0B7O9,3DI28L7YXEUZW1EYVJE55DVM1QVE16,4,3
231,1,object_01,object_02,683.69999992847,2,2,367.19999992847,0.7777777777777778,2,object_05,1,3047,0,7,7,desert_5,1,memory-2step-stake-s,720,2995958,0.0-19.0-0.1-0.231,A1F6MWP9A0XLJQ,3X4Q1O9UCK2WXV8VOBT8MFKQE0B7O9,3DI28L7YXEUZW1EYVJE55DVM1QVE16,1,2
232,3,object_06,object_10,427.79999995232,6,2,389.39999997616,0.5555555555555556,2,object_05,5,3072,0,8,5,library_8,1,memory-2step-stake-s,721,3004082,0.0-19.0-0.1-0.232,A1F6MWP9A0XLJQ,3X4Q1O9UCK2WXV8VOBT8MFKQE0B7O9,3DI28L7YXEUZW1EYVJE55DVM1QVE16,5,6
233,3,object_10,object_06,429.89999997616,6,1,310.60000002384,0.4444444444444444,2,object_05,1,3076,0,6,4,library_5,1,memory-2step-stake-s,722,3012035,0.0-19.0-0.1-0.233,A1F6MWP9A0XLJQ,3X4Q1O9UCK2WXV8VOBT8MFKQE0B7O9,3DI28L7YXEUZW1EYVJE55DVM1QVE16,6,5
234,1,object_02,object_01,424.30000007153,2,1,364.89999997616,0.5555555555555556,2,object_05,5,3101,0,3,5,desert_3,1,memory-2step-stake-s,723,3020136,0.0-19.0-0.1-0.234,A1F6MWP9A0XLJQ,3X4Q1O9UCK2WXV8VOBT8MFKQE0B7O9,3DI28L7YXEUZW1EYVJE55DVM1QVE16,2,1
235,3,object_10,object_06,446.40000009537,6,1,375.0,0.3333333333333333,2,object_05,5,3116,0,4,3,library_8,1,memory-2step-stake-s,724,3028034,0.0-19.0-0.1-0.235,A1F6MWP9A0XLJQ,3X4Q1O9UCK2WXV8VOBT8MFKQE0B7O9,3DI28L7YXEUZW1EYVJE55DVM1QVE16,6,5
236,3,object_06,object_10,482.89999997616,6,2,442.5,0.2222222222222222,2,object_05,5,3126,0,4,2,library_7,1,memory-2step-stake-s,725,3035903,0.0-19.0-0.1-0.236,A1F6MWP9A0XLJQ,3X4Q1O9UCK2WXV8VOBT8MFKQE0B7O9,3DI28L7YXEUZW1EYVJE55DVM1QVE16,5,6
237,1,object_02,object_01,645.09999990463,1,2,321.60000002384,0.3333333333333333,1,object_03,1,3129,0,3,1,desert_4,1,memory-2step-stake-s,726,3043754,0.0-19.0-0.1-0.237,A1F6MWP9A0XLJQ,3X4Q1O9UCK2WXV8VOBT8MFKQE0B7O9,3DI28L7YXEUZW1EYVJE55DVM1QVE16,2,1
238,4,object_04,object_08,1322.2999999523,7,1,397.60000002384,0.0,1,object_03,5,3129,0,0,0,restaurant_6,1,memory-2step-stake-s,727,3051367,0.0-19.0-0.1-0.238,A1F6MWP9A0XLJQ,3X4Q1O9UCK2WXV8VOBT8MFKQE0B7O9,3DI28L7YXEUZW1EYVJE55DVM1QVE16,7,8
239,3,object_06,object_10,724.89999997616,5,1,366.79999995232,0.1111111111111111,1,object_03,1,3130,0,1,1,library_8,1,memory-2step-stake-s,728,3059053,0.0-19.0-0.1-0.239,A1F6MWP9A0XLJQ,3X4Q1O9UCK2WXV8VOBT8MFKQE0B7O9,3DI28L7YXEUZW1EYVJE55DVM1QVE16,5,6
240,1,object_01,object_02,414.29999995232,2,2,280.89999997616,0.1111111111111111,2,object_05,1,3131,0,3,1,desert_1,1,memory-2step-stake-s,729,3066654,0.0-19.0-0.1-0.240,A1F6MWP9A0XLJQ,3X4Q1O9UCK2WXV8VOBT8MFKQE0B7O9,3DI28L7YXEUZW1EYVJE55DVM1QVE16,1,2
241,1,object_01,object_02,413.5,2,2,316.0,0.2222222222222222,2,object_05,1,3133,0,3,2,desert_1,1,memory-2step-stake-s,730,3074389,0.0-19.0-0.1-0.241,A1F6MWP9A0XLJQ,3X4Q1O9UCK2WXV8VOBT8MFKQE0B7O9,3DI28L7YXEUZW1EYVJE55DVM1QVE16,1,2
242,3,object_06,object_10,497.09999990463,6,2,323.39999997616,0.1111111111111111,2,object_05,5,3138,0,0,1,library_7,1,memory-2step-stake-s,731,3082034,0.0-19.0-0.1-0.242,A1F6MWP9A0XLJQ,3X4Q1O9UCK2WXV8VOBT8MFKQE0B7O9,3DI28L7YXEUZW1EYVJE55DVM1QVE16,5,6
243,1,object_02,object_01,486.19999992847,1,2,279.39999997616,0.2222222222222222,1,object_03,1,3140,0,2,2,desert_5,1,memory-2step-stake-s,732,3089734,0.0-19.0-0.1-0.243,A1F6MWP9A0XLJQ,3X4Q1O9UCK2WXV8VOBT8MFKQE0B7O9,3DI28L7YXEUZW1EYVJE55DVM1QVE16,2,1
244,3,object_10,object_06,578.39999997616,5,2,293.0,0.1111111111111111,1,object_03,1,3141,0,1,4,library_8,1,memory-2step-stake-s,733,3097343,0.0-19.0-0.1-0.244,A1F6MWP9A0XLJQ,3X4Q1O9UCK2WXV8VOBT8MFKQE0B7O9,3DI28L7YXEUZW1EYVJE55DVM1QVE16,6,5
245,3,object_06,object_10,511.89999997616,5,1,226.09999990463,0.1111111111111111,1,object_03,5,3146,0,1,0,library_8,1,memory-2step-stake-s,734,3104894,0.0-19.0-0.1-0.245,A1F6MWP9A0XLJQ,3X4Q1O9UCK2WXV8VOBT8MFKQE0B7O9,3DI28L7YXEUZW1EYVJE55DVM1QVE16,5,6
246,2,object_09,object_07,547.70000004768,4,1,327.59999990463,0.2222222222222222,2,object_05,1,3148,0,2,2,forest_2,1,memory-2step-stake-s,735,3112639,0.0-19.0-0.1-0.246,A1F6MWP9A0XLJQ,3X4Q1O9UCK2WXV8VOBT8MFKQE0B7O9,3DI28L7YXEUZW1EYVJE55DVM1QVE16,4,3
247,4,object_04,object_08,1263.8999999762,7,1,545.29999995232,0.1111111111111111,1,object_03,5,3153,0,1,2,restaurant_1,1,memory-2step-stake-s,736,3120505,0.0-19.0-0.1-0.247,A1F6MWP9A0XLJQ,3X4Q1O9UCK2WXV8VOBT8MFKQE0B7O9,3DI28L7YXEUZW1EYVJE55DVM1QVE16,7,8
248,2,object_09,object_07,813.20000004768,4,1,318.60000002384,0.4444444444444444,2,object_05,1,3157,0,2,4,forest_4,1,memory-2step-stake-s,737,3128451,0.0-19.0-0.1-0.248,A1F6MWP9A0XLJQ,3X4Q1O9UCK2WXV8VOBT8MFKQE0B7O9,3DI28L7YXEUZW1EYVJE55DVM1QVE16,4,3
249,1,object_02,object_01,428.79999995232,2,1,294.70000004768,0.5555555555555556,2,object_05,1,3162,0,1,5,desert_3,1,memory-2step-stake-s,738,3136472,0.0-19.0-0.1-0.249,A1F6MWP9A0XLJQ,3X4Q1O9UCK2WXV8VOBT8MFKQE0B7O9,3DI28L7YXEUZW1EYVJE55DVM1QVE16,2,1
250,1,object_02,object_01,440.60000002384,2,1,361.19999992847,0.1111111111111111,2,object_05,1,3163,0,4,1,desert_5,1,memory-2step-stake-s,739,3144155,0.0-19.0-0.1-0.250,A1F6MWP9A0XLJQ,3X4Q1O9UCK2WXV8VOBT8MFKQE0B7O9,3DI28L7YXEUZW1EYVJE55DVM1QVE16,2,1
251,3,object_10,object_06,440.79999995232,6,1,241.39999997616,0.1111111111111111,2,object_05,5,3168,0,2,1,library_7,1,memory-2step-stake-s,740,3151716,0.0-19.0-0.1-0.251,A1F6MWP9A0XLJQ,3X4Q1O9UCK2WXV8VOBT8MFKQE0B7O9,3DI28L7YXEUZW1EYVJE55DVM1QVE16,6,5
252,1,object_02,object_01,426.80000007153,2,1,300.90000009537,0.1111111111111111,2,object_05,1,3169,0,0,1,desert_3,1,memory-2step-stake-s,741,3159339,0.0-19.0-0.1-0.252,A1F6MWP9A0XLJQ,3X4Q1O9UCK2WXV8VOBT8MFKQE0B7O9,3DI28L7YXEUZW1EYVJE55DVM1QVE16,2,1
253,1,object_02,object_01,460.79999995232,1,2,357.89999997616,0.0,1,object_03,5,3169,0,0,1,desert_5,1,memory-2step-stake-s,742,3166914,0.0-19.0-0.1-0.253,A1F6MWP9A0XLJQ,3X4Q1O9UCK2WXV8VOBT8MFKQE0B7O9,3DI28L7YXEUZW1EYVJE55DVM1QVE16,2,1
254,3,object_06,object_10,677.89999997616,6,2,380.80000007153,0.0,2,object_05,5,3169,0,1,0,library_4,1,memory-2step-stake-s,743,3174524,0.0-19.0-0.1-0.254,A1F6MWP9A0XLJQ,3X4Q1O9UCK2WXV8VOBT8MFKQE0B7O9,3DI28L7YXEUZW1EYVJE55DVM1QVE16,5,6
255,1,object_01,object_02,716.5,1,1,285.90000009537,0.1111111111111111,1,object_03,1,3170,0,1,1,desert_4,1,memory-2step-stake-s,744,3182130,0.0-19.0-0.1-0.255,A1F6MWP9A0XLJQ,3X4Q1O9UCK2WXV8VOBT8MFKQE0B7O9,3DI28L7YXEUZW1EYVJE55DVM1QVE16,1,2
