,state1,stim_left,stim_right,rt_1,choice1,response1,rt_2,points,state2,stim_state2,stake,score,practice,rews1,rews2,background,high_arm,trial_type,trial_index,time_elapsed,internal_node_id,subid,hitid,assignmentid,stim_left_num,stim_right_num
0,3,object_03,object_05,-1.0,-1,-1,-1.0,0.0,-,0,1,0,0,3,8,library_8,1,memory-2step-stake-s,503,1423735,0.0-19.0-0.0-0.0,A30CGO77OY7WP0,3X2LT8FDIZY82IMGP2COH9T7SM78W0,3MHW492WW4TDU1M9JVMDP97BZURMVM,6,5
1,1,object_04,object_06,-1.0,-1,-1,-1.0,0.0,-,0,5,0,0,2,8,desert_2,1,memory-2step-stake-s,504,1430253,0.0-19.0-0.0-0.1,A30CGO77OY7WP0,3X2LT8FDIZY82IMGP2COH9T7SM78W0,3MHW492WW4TDU1M9JVMDP97BZURMVM,2,1
2,1,object_04,object_06,739.99999999977,1,2,905.16999999993,0.3333333333333333,1,object_02,1,3,0,3,9,desert_3,1,memory-2step-stake-s,505,1438697,0.0-19.0-0.0-0.2,A30CGO77OY7WP0,3X2LT8FDIZY82IMGP2COH9T7SM78W0,3MHW492WW4TDU1M9JVMDP97BZURMVM,2,1
3,4,object_07,object_09,559.98999999976,7,1,721.27499999991,0.6666666666666666,1,object_02,5,33,0,6,9,restaurant_1,1,memory-2step-stake-s,506,1447257,0.0-19.0-0.0-0.3,A30CGO77OY7WP0,3X2LT8FDIZY82IMGP2COH9T7SM78W0,3MHW492WW4TDU1M9JVMDP97BZURMVM,7,8
4,3,object_05,object_03,448.37999999966,6,2,591.89500000142,0.5555555555555556,2,object_01,5,58,0,3,5,library_4,1,memory-2step-stake-s,507,1455584,0.0-19.0-0.0-0.4,A30CGO77OY7WP0,3X2LT8FDIZY82IMGP2COH9T7SM78W0,3MHW492WW4TDU1M9JVMDP97BZURMVM,5,6
5,2,object_10,object_08,575.32999999961,4,1,760.13000000059,0.5555555555555556,2,object_01,1,63,0,2,5,forest_3,1,memory-2step-stake-s,508,1464078,0.0-19.0-0.0-0.5,A30CGO77OY7WP0,3X2LT8FDIZY82IMGP2COH9T7SM78W0,3MHW492WW4TDU1M9JVMDP97BZURMVM,4,3
6,3,object_03,object_05,535.6100000008,5,2,578.36999999941,0.0,1,object_02,1,63,0,0,4,library_4,1,memory-2step-stake-s,509,1471882,0.0-19.0-0.0-0.6,A30CGO77OY7WP0,3X2LT8FDIZY82IMGP2COH9T7SM78W0,3MHW492WW4TDU1M9JVMDP97BZURMVM,6,5
7,4,object_07,object_09,259.47999999882,7,1,1298.6550000005,0.2222222222222222,1,object_02,5,73,0,2,4,restaurant_2,1,memory-2step-stake-s,510,1480619,0.0-19.0-0.0-0.7,A30CGO77OY7WP0,3X2LT8FDIZY82IMGP2COH9T7SM78W0,3MHW492WW4TDU1M9JVMDP97BZURMVM,7,8
8,4,object_09,object_07,456.09499999951,7,2,701.9600000002,0.2222222222222222,1,object_02,5,83,0,2,5,restaurant_8,1,memory-2step-stake-s,511,1488745,0.0-19.0-0.0-0.8,A30CGO77OY7WP0,3X2LT8FDIZY82IMGP2COH9T7SM78W0,3MHW492WW4TDU1M9JVMDP97BZURMVM,8,7
9,1,object_06,object_04,505.26499999966,1,1,499.1500000013,0.5555555555555556,1,object_02,1,88,0,5,5,desert_8,1,memory-2step-stake-s,512,1496979,0.0-19.0-0.0-0.9,A30CGO77OY7WP0,3X2LT8FDIZY82IMGP2COH9T7SM78W0,3MHW492WW4TDU1M9JVMDP97BZURMVM,1,2
10,3,object_03,object_05,438.02999999933,5,2,765.28999999957,0.7777777777777778,1,object_02,5,123,0,7,4,library_1,1,memory-2step-stake-s,513,1505679,0.0-19.0-0.0-0.10,A30CGO77OY7WP0,3X2LT8FDIZY82IMGP2COH9T7SM78W0,3MHW492WW4TDU1M9JVMDP97BZURMVM,6,5
11,3,object_03,object_05,397.4999999993,6,1,632.28999999957,0.7777777777777778,2,object_01,5,158,0,7,7,library_4,1,memory-2step-stake-s,514,1514248,0.0-19.0-0.0-0.11,A30CGO77OY7WP0,3X2LT8FDIZY82IMGP2COH9T7SM78W0,3MHW492WW4TDU1M9JVMDP97BZURMVM,6,5
12,1,object_06,object_04,260.79000000027,1,1,377.85999999871,0.6666666666666666,1,object_02,5,188,0,6,9,desert_8,1,memory-2step-stake-s,515,1522460,0.0-19.0-0.0-0.12,A30CGO77OY7WP0,3X2LT8FDIZY82IMGP2COH9T7SM78W0,3MHW492WW4TDU1M9JVMDP97BZURMVM,1,2
13,2,object_08,object_10,449.93499999866,4,2,514.94000000088,0.5555555555555556,2,object_01,5,213,0,9,5,forest_2,1,memory-2step-stake-s,516,1530711,0.0-19.0-0.0-0.13,A30CGO77OY7WP0,3X2LT8FDIZY82IMGP2COH9T7SM78W0,3MHW492WW4TDU1M9JVMDP97BZURMVM,3,4
14,3,object_05,object_03,660.24999999907,5,1,609.25500000129,0.8888888888888888,1,object_02,5,253,0,8,3,library_8,1,memory-2step-stake-s,517,1539357,0.0-19.0-0.0-0.14,A30CGO77OY7WP0,3X2LT8FDIZY82IMGP2COH9T7SM78W0,3MHW492WW4TDU1M9JVMDP97BZURMVM,5,6
15,4,object_09,object_07,463.28499999992,8,1,614.13999999966,0.5555555555555556,2,object_01,1,258,0,8,5,restaurant_8,1,memory-2step-stake-s,518,1547702,0.0-19.0-0.0-0.15,A30CGO77OY7WP0,3X2LT8FDIZY82IMGP2COH9T7SM78W0,3MHW492WW4TDU1M9JVMDP97BZURMVM,8,7
16,2,object_08,object_10,279.04999999935,3,1,390.00499999919,0.8888888888888888,1,object_02,1,266,0,8,5,forest_3,1,memory-2step-stake-s,519,1556135,0.0-19.0-0.0-0.16,A30CGO77OY7WP0,3X2LT8FDIZY82IMGP2COH9T7SM78W0,3MHW492WW4TDU1M9JVMDP97BZURMVM,3,4
17,3,object_03,object_05,508.11500000046,5,2,495.53000000026,0.7777777777777778,1,object_02,1,273,0,7,6,library_1,1,memory-2step-stake-s,520,1564570,0.0-19.0-0.0-0.17,A30CGO77OY7WP0,3X2LT8FDIZY82IMGP2COH9T7SM78W0,3MHW492WW4TDU1M9JVMDP97BZURMVM,6,5
18,2,object_08,object_10,425.11999999988,3,1,-1.0,0.0,1,object_02,5,273,0,8,9,forest_1,1,memory-2step-stake-s,521,1573097,0.0-19.0-0.0-0.18,A30CGO77OY7WP0,3X2LT8FDIZY82IMGP2COH9T7SM78W0,3MHW492WW4TDU1M9JVMDP97BZURMVM,3,4
19,4,object_09,object_07,394.92000000062,8,1,473.65999999968,0.7777777777777778,2,object_01,5,308,0,7,7,restaurant_8,1,memory-2step-stake-s,522,1581506,0.0-19.0-0.0-0.19,A30CGO77OY7WP0,3X2LT8FDIZY82IMGP2COH9T7SM78W0,3MHW492WW4TDU1M9JVMDP97BZURMVM,8,7
20,3,object_05,object_03,317.78499999945,6,2,531.07499999902,0.7777777777777778,2,object_01,5,343,0,7,7,library_8,1,memory-2step-stake-s,523,1589973,0.0-19.0-0.0-0.20,A30CGO77OY7WP0,3X2LT8FDIZY82IMGP2COH9T7SM78W0,3MHW492WW4TDU1M9JVMDP97BZURMVM,5,6
21,4,object_07,object_09,219.52500000061,7,1,350.50499999849,0.8888888888888888,1,object_02,1,351,0,8,3,restaurant_2,1,memory-2step-stake-s,524,1598360,0.0-19.0-0.0-0.21,A30CGO77OY7WP0,3X2LT8FDIZY82IMGP2COH9T7SM78W0,3MHW492WW4TDU1M9JVMDP97BZURMVM,7,8
22,1,object_04,object_06,333.1400000006,1,2,511.03999999934,0.6666666666666666,1,object_02,1,357,0,6,1,desert_8,1,memory-2step-stake-s,525,1606705,0.0-19.0-0.0-0.22,A30CGO77OY7WP0,3X2LT8FDIZY82IMGP2COH9T7SM78W0,3MHW492WW4TDU1M9JVMDP97BZURMVM,2,1
23,4,object_09,object_07,478.33499999973,8,1,546.4300000004,0.4444444444444444,2,object_01,5,377,0,6,4,restaurant_1,1,memory-2step-stake-s,526,1614880,0.0-19.0-0.0-0.23,A30CGO77OY7WP0,3X2LT8FDIZY82IMGP2COH9T7SM78W0,3MHW492WW4TDU1M9JVMDP97BZURMVM,8,7
24,4,object_09,object_07,397.51000000071,7,2,615.19000000041,0.6666666666666666,1,object_02,5,407,0,6,5,restaurant_1,1,memory-2step-stake-s,527,1623325,0.0-19.0-0.0-0.24,A30CGO77OY7WP0,3X2LT8FDIZY82IMGP2COH9T7SM78W0,3MHW492WW4TDU1M9JVMDP97BZURMVM,8,7
25,4,object_07,object_09,364.69999999809,7,1,598.88499999954,0.2222222222222222,1,object_02,5,417,0,2,5,restaurant_4,1,memory-2step-stake-s,528,1631351,0.0-19.0-0.0-0.25,A30CGO77OY7WP0,3X2LT8FDIZY82IMGP2COH9T7SM78W0,3MHW492WW4TDU1M9JVMDP97BZURMVM,7,8
26,1,object_04,object_06,330.98000000068,1,2,574.2350000001,0.5555555555555556,1,object_02,5,442,0,5,4,desert_8,1,memory-2step-stake-s,529,1639655,0.0-19.0-0.0-0.26,A30CGO77OY7WP0,3X2LT8FDIZY82IMGP2COH9T7SM78W0,3MHW492WW4TDU1M9JVMDP97BZURMVM,2,1
27,2,object_10,object_08,1086.3150000004,3,2,463.74000000092,0.4444444444444444,1,object_02,5,462,0,4,4,forest_4,1,memory-2step-stake-s,530,1647747,0.0-19.0-0.0-0.27,A30CGO77OY7WP0,3X2LT8FDIZY82IMGP2COH9T7SM78W0,3MHW492WW4TDU1M9JVMDP97BZURMVM,4,3
28,3,object_03,object_05,240.62000000058,6,1,705.98000000068,0.6666666666666666,2,object_01,5,492,0,4,6,library_8,1,memory-2step-stake-s,531,1656293,0.0-19.0-0.0-0.28,A30CGO77OY7WP0,3X2LT8FDIZY82IMGP2COH9T7SM78W0,3MHW492WW4TDU1M9JVMDP97BZURMVM,6,5
29,3,object_03,object_05,534.19000000041,5,2,613.30000000075,0.1111111111111111,1,object_02,5,497,0,1,4,library_6,1,memory-2step-stake-s,532,1664232,0.0-19.0-0.0-0.29,A30CGO77OY7WP0,3X2LT8FDIZY82IMGP2COH9T7SM78W0,3MHW492WW4TDU1M9JVMDP97BZURMVM,6,5
30,4,object_09,object_07,254.31000000029,8,1,1314.3749999998,0.2222222222222222,2,object_01,1,499,0,4,2,restaurant_4,1,memory-2step-stake-s,533,1672975,0.0-19.0-0.0-0.30,A30CGO77OY7WP0,3X2LT8FDIZY82IMGP2COH9T7SM78W0,3MHW492WW4TDU1M9JVMDP97BZURMVM,8,7
31,2,object_10,object_08,509.2899999998,3,2,485.78000000096,0.5555555555555556,1,object_02,1,504,0,5,7,forest_3,1,memory-2step-stake-s,534,1681193,0.0-19.0-0.0-0.31,A30CGO77OY7WP0,3X2LT8FDIZY82IMGP2COH9T7SM78W0,3MHW492WW4TDU1M9JVMDP97BZURMVM,4,3
32,4,object_07,object_09,407.89000000036,7,1,540.17500000005,0.4444444444444444,1,object_02,5,524,0,4,8,restaurant_8,1,memory-2step-stake-s,535,1689370,0.0-19.0-0.0-0.32,A30CGO77OY7WP0,3X2LT8FDIZY82IMGP2COH9T7SM78W0,3MHW492WW4TDU1M9JVMDP97BZURMVM,7,8
33,2,object_08,object_10,523.69499999983,4,2,518.50499999989,0.7777777777777778,2,object_01,1,531,0,8,7,forest_3,1,memory-2step-stake-s,536,1697822,0.0-19.0-0.0-0.33,A30CGO77OY7WP0,3X2LT8FDIZY82IMGP2COH9T7SM78W0,3MHW492WW4TDU1M9JVMDP97BZURMVM,3,4
34,1,object_04,object_06,339.9449999996,2,1,519.18499999912,0.5555555555555556,2,object_01,1,536,0,6,5,desert_7,1,memory-2step-stake-s,537,1706072,0.0-19.0-0.0-0.34,A30CGO77OY7WP0,3X2LT8FDIZY82IMGP2COH9T7SM78W0,3MHW492WW4TDU1M9JVMDP97BZURMVM,2,1
35,1,object_06,object_04,598.52499999944,2,2,445.95000000112,0.5555555555555556,2,object_01,1,541,0,9,5,desert_8,1,memory-2step-stake-s,538,1714251,0.0-19.0-0.0-0.35,A30CGO77OY7WP0,3X2LT8FDIZY82IMGP2COH9T7SM78W0,3MHW492WW4TDU1M9JVMDP97BZURMVM,1,2
36,3,object_03,object_05,499.82500000088,6,1,951.33499999973,0.3333333333333333,2,object_01,5,556,0,8,3,library_4,1,memory-2step-stake-s,539,1722731,0.0-19.0-0.0-0.36,A30CGO77OY7WP0,3X2LT8FDIZY82IMGP2COH9T7SM78W0,3MHW492WW4TDU1M9JVMDP97BZURMVM,6,5
37,1,object_06,object_04,439.67499999958,2,2,404.97500000126,0.4444444444444444,2,object_01,5,576,0,7,4,desert_3,1,memory-2step-stake-s,540,1730769,0.0-19.0-0.0-0.37,A30CGO77OY7WP0,3X2LT8FDIZY82IMGP2COH9T7SM78W0,3MHW492WW4TDU1M9JVMDP97BZURMVM,1,2
38,1,object_04,object_06,267.73999999953,2,1,1139.0950000004,0.6666666666666666,2,object_01,1,582,0,8,6,desert_8,1,memory-2step-stake-s,541,1739738,0.0-19.0-0.0-0.38,A30CGO77OY7WP0,3X2LT8FDIZY82IMGP2COH9T7SM78W0,3MHW492WW4TDU1M9JVMDP97BZURMVM,2,1
39,1,object_06,object_04,643.58499999973,2,2,520.71999999858,0.6666666666666666,2,object_01,1,588,0,6,6,desert_2,1,memory-2step-stake-s,542,1748090,0.0-19.0-0.0-0.39,A30CGO77OY7WP0,3X2LT8FDIZY82IMGP2COH9T7SM78W0,3MHW492WW4TDU1M9JVMDP97BZURMVM,1,2
40,4,object_09,object_07,356.42499999981,7,2,698.84499999904,1.0,1,object_02,5,633,0,9,6,restaurant_4,1,memory-2step-stake-s,543,1756926,0.0-19.0-0.0-0.40,A30CGO77OY7WP0,3X2LT8FDIZY82IMGP2COH9T7SM78W0,3MHW492WW4TDU1M9JVMDP97BZURMVM,8,7
41,1,object_04,object_06,378.72000000067,2,1,674.70499999961,0.7777777777777778,2,object_01,1,640,0,8,7,desert_7,1,memory-2step-stake-s,544,1765543,0.0-19.0-0.0-0.41,A30CGO77OY7WP0,3X2LT8FDIZY82IMGP2COH9T7SM78W0,3MHW492WW4TDU1M9JVMDP97BZURMVM,2,1
42,1,object_06,object_04,296.70000000088,1,1,547.98999999906,1.0,1,object_02,1,649,0,9,8,desert_7,1,memory-2step-stake-s,545,1774234,0.0-19.0-0.0-0.42,A30CGO77OY7WP0,3X2LT8FDIZY82IMGP2COH9T7SM78W0,3MHW492WW4TDU1M9JVMDP97BZURMVM,1,2
43,2,object_08,object_10,560.2099999995,3,1,473.95499999961,0.7777777777777778,1,object_02,1,656,0,7,8,forest_2,1,memory-2step-stake-s,546,1782645,0.0-19.0-0.0-0.43,A30CGO77OY7WP0,3X2LT8FDIZY82IMGP2COH9T7SM78W0,3MHW492WW4TDU1M9JVMDP97BZURMVM,3,4
44,4,object_09,object_07,306.29500000039,7,2,398.56999999937,0.8888888888888888,1,object_02,5,696,0,8,8,restaurant_1,1,memory-2step-stake-s,547,1791080,0.0-19.0-0.0-0.44,A30CGO77OY7WP0,3X2LT8FDIZY82IMGP2COH9T7SM78W0,3MHW492WW4TDU1M9JVMDP97BZURMVM,8,7
45,3,object_05,object_03,310.76000000024,5,1,467.92499999912,0.7777777777777778,1,object_02,5,731,0,7,7,library_8,1,memory-2step-stake-s,548,1799481,0.0-19.0-0.0-0.45,A30CGO77OY7WP0,3X2LT8FDIZY82IMGP2COH9T7SM78W0,3MHW492WW4TDU1M9JVMDP97BZURMVM,5,6
46,2,object_08,object_10,1044.9150000003,3,1,580.7100000002,1.0,1,object_02,1,740,0,9,6,forest_1,1,memory-2step-stake-s,549,1808199,0.0-19.0-0.0-0.46,A30CGO77OY7WP0,3X2LT8FDIZY82IMGP2COH9T7SM78W0,3MHW492WW4TDU1M9JVMDP97BZURMVM,3,4
47,1,object_04,object_06,656.73499999871,1,2,524.02500000084,0.8888888888888888,1,object_02,1,748,0,8,8,desert_7,1,memory-2step-stake-s,550,1816760,0.0-19.0-0.0-0.47,A30CGO77OY7WP0,3X2LT8FDIZY82IMGP2COH9T7SM78W0,3MHW492WW4TDU1M9JVMDP97BZURMVM,2,1
48,3,object_03,object_05,381.72000000137,6,1,509.21499999985,0.7777777777777778,2,object_01,5,783,0,8,7,library_6,1,memory-2step-stake-s,551,1825203,0.0-19.0-0.0-0.48,A30CGO77OY7WP0,3X2LT8FDIZY82IMGP2COH9T7SM78W0,3MHW492WW4TDU1M9JVMDP97BZURMVM,6,5
49,4,object_09,object_07,596.54499999853,7,2,541.23500000057,0.6666666666666666,1,object_02,5,813,0,6,9,restaurant_1,1,memory-2step-stake-s,552,1833580,0.0-19.0-0.0-0.49,A30CGO77OY7WP0,3X2LT8FDIZY82IMGP2COH9T7SM78W0,3MHW492WW4TDU1M9JVMDP97BZURMVM,8,7
50,3,object_05,object_03,401.33500000066,6,2,533.82000000053,1.0,2,object_01,5,858,0,6,9,library_4,1,memory-2step-stake-s,553,1842250,0.0-19.0-0.0-0.50,A30CGO77OY7WP0,3X2LT8FDIZY82IMGP2COH9T7SM78W0,3MHW492WW4TDU1M9JVMDP97BZURMVM,5,6
51,4,object_09,object_07,566.90499999956,8,1,523.60500000021,0.7777777777777778,2,object_01,5,893,0,7,7,restaurant_2,1,memory-2step-stake-s,554,1850707,0.0-19.0-0.0-0.51,A30CGO77OY7WP0,3X2LT8FDIZY82IMGP2COH9T7SM78W0,3MHW492WW4TDU1M9JVMDP97BZURMVM,8,7
52,2,object_08,object_10,589.66999999946,4,2,610.3899999999,0.5555555555555556,2,object_01,1,898,0,9,5,forest_4,1,memory-2step-stake-s,555,1859049,0.0-19.0-0.0-0.52,A30CGO77OY7WP0,3X2LT8FDIZY82IMGP2COH9T7SM78W0,3MHW492WW4TDU1M9JVMDP97BZURMVM,3,4
53,1,object_04,object_06,457.33999999892,2,1,596.95499999891,0.8888888888888888,2,object_01,1,906,0,8,8,desert_2,1,memory-2step-stake-s,556,1867677,0.0-19.0-0.0-0.53,A30CGO77OY7WP0,3X2LT8FDIZY82IMGP2COH9T7SM78W0,3MHW492WW4TDU1M9JVMDP97BZURMVM,2,1
54,2,object_08,object_10,281.51499999873,3,1,664.79499999876,0.8888888888888888,1,object_02,1,914,0,8,8,forest_3,1,memory-2step-stake-s,557,1876374,0.0-19.0-0.0-0.54,A30CGO77OY7WP0,3X2LT8FDIZY82IMGP2COH9T7SM78W0,3MHW492WW4TDU1M9JVMDP97BZURMVM,3,4
55,2,object_08,object_10,600.53000000142,4,2,632.34000000008,0.8888888888888888,2,object_01,1,922,0,8,8,forest_3,1,memory-2step-stake-s,558,1885048,0.0-19.0-0.0-0.55,A30CGO77OY7WP0,3X2LT8FDIZY82IMGP2COH9T7SM78W0,3MHW492WW4TDU1M9JVMDP97BZURMVM,3,4
56,4,object_09,object_07,547.87000000034,7,2,661.40500000073,0.8888888888888888,1,object_02,5,962,0,8,6,restaurant_2,1,memory-2step-stake-s,559,1893744,0.0-19.0-0.0-0.56,A30CGO77OY7WP0,3X2LT8FDIZY82IMGP2COH9T7SM78W0,3MHW492WW4TDU1M9JVMDP97BZURMVM,8,7
57,3,object_05,object_03,309.42499999958,6,2,660.07499999972,0.3333333333333333,2,object_01,5,977,0,8,3,library_6,1,memory-2step-stake-s,560,1901929,0.0-19.0-0.0-0.57,A30CGO77OY7WP0,3X2LT8FDIZY82IMGP2COH9T7SM78W0,3MHW492WW4TDU1M9JVMDP97BZURMVM,5,6
58,2,object_08,object_10,1079.4749999987,3,1,715.94999999972,0.5555555555555556,1,object_02,1,982,0,5,7,forest_3,1,memory-2step-stake-s,561,1910377,0.0-19.0-0.0-0.58,A30CGO77OY7WP0,3X2LT8FDIZY82IMGP2COH9T7SM78W0,3MHW492WW4TDU1M9JVMDP97BZURMVM,3,4
59,1,object_06,object_04,1108.2850000001,1,1,789.70499999914,0.4444444444444444,1,object_02,1,986,0,4,9,desert_2,1,memory-2step-stake-s,562,1918795,0.0-19.0-0.0-0.59,A30CGO77OY7WP0,3X2LT8FDIZY82IMGP2COH9T7SM78W0,3MHW492WW4TDU1M9JVMDP97BZURMVM,1,2
60,4,object_07,object_09,582.44000000018,8,2,525.19000000041,0.5555555555555556,2,object_01,1,991,0,6,5,restaurant_2,1,memory-2step-stake-s,563,1927051,0.0-19.0-0.0-0.60,A30CGO77OY7WP0,3X2LT8FDIZY82IMGP2COH9T7SM78W0,3MHW492WW4TDU1M9JVMDP97BZURMVM,7,8
61,2,object_10,object_08,1171.2799999986,3,2,538.15500000026,0.4444444444444444,1,object_02,5,1011,0,4,6,forest_1,1,memory-2step-stake-s,564,1935225,0.0-19.0-0.0-0.61,A30CGO77OY7WP0,3X2LT8FDIZY82IMGP2COH9T7SM78W0,3MHW492WW4TDU1M9JVMDP97BZURMVM,4,3
62,1,object_04,object_06,504.78000000096,2,1,451.49499999918,0.7777777777777778,2,object_01,5,1046,0,3,7,desert_8,1,memory-2step-stake-s,565,1943610,0.0-19.0-0.0-0.62,A30CGO77OY7WP0,3X2LT8FDIZY82IMGP2COH9T7SM78W0,3MHW492WW4TDU1M9JVMDP97BZURMVM,2,1
63,2,object_08,object_10,346.26000000024,4,2,508.56999999983,1.0,2,object_01,1,1055,0,1,9,forest_4,1,memory-2step-stake-s,566,1952254,0.0-19.0-0.0-0.63,A30CGO77OY7WP0,3X2LT8FDIZY82IMGP2COH9T7SM78W0,3MHW492WW4TDU1M9JVMDP97BZURMVM,3,4
64,1,object_04,object_06,506.9850000001,2,1,519.82499999925,0.7777777777777778,2,object_01,5,1090,0,3,7,desert_3,1,memory-2step-stake-s,567,1960712,0.0-19.0-0.0-0.64,A30CGO77OY7WP0,3X2LT8FDIZY82IMGP2COH9T7SM78W0,3MHW492WW4TDU1M9JVMDP97BZURMVM,2,1
65,3,object_03,object_05,531.89499999816,5,2,545.53000000142,0.5555555555555556,1,object_02,1,1095,0,5,5,library_1,1,memory-2step-stake-s,568,1968989,0.0-19.0-0.0-0.65,A30CGO77OY7WP0,3X2LT8FDIZY82IMGP2COH9T7SM78W0,3MHW492WW4TDU1M9JVMDP97BZURMVM,6,5
66,3,object_05,object_03,889.29499999899,5,1,488.32500000019,0.7777777777777778,1,object_02,5,1130,0,7,4,library_4,1,memory-2step-stake-s,569,1977413,0.0-19.0-0.0-0.66,A30CGO77OY7WP0,3X2LT8FDIZY82IMGP2COH9T7SM78W0,3MHW492WW4TDU1M9JVMDP97BZURMVM,5,6
67,2,object_08,object_10,944.13500000164,3,1,619.52500000014,1.0,1,object_02,1,1139,0,9,6,forest_1,1,memory-2step-stake-s,570,1986166,0.0-19.0-0.0-0.67,A30CGO77OY7WP0,3X2LT8FDIZY82IMGP2COH9T7SM78W0,3MHW492WW4TDU1M9JVMDP97BZURMVM,3,4
68,4,object_07,object_09,1233.51,8,2,543.11500000046,0.8888888888888888,2,object_01,1,1147,0,8,8,restaurant_8,1,memory-2step-stake-s,571,1994753,0.0-19.0-0.0-0.68,A30CGO77OY7WP0,3X2LT8FDIZY82IMGP2COH9T7SM78W0,3MHW492WW4TDU1M9JVMDP97BZURMVM,7,8
69,2,object_08,object_10,574.8349999995,3,1,644.10499999952,0.7777777777777778,1,object_02,1,1154,0,7,8,forest_1,1,memory-2step-stake-s,572,2003333,0.0-19.0-0.0-0.69,A30CGO77OY7WP0,3X2LT8FDIZY82IMGP2COH9T7SM78W0,3MHW492WW4TDU1M9JVMDP97BZURMVM,3,4
70,2,object_08,object_10,882.9299999997,4,2,500.72999999975,0.7777777777777778,2,object_01,5,1189,0,8,7,forest_4,1,memory-2step-stake-s,573,2011773,0.0-19.0-0.0-0.70,A30CGO77OY7WP0,3X2LT8FDIZY82IMGP2COH9T7SM78W0,3MHW492WW4TDU1M9JVMDP97BZURMVM,3,4
71,3,object_03,object_05,690.29500000039,6,1,368.96499999962,0.6666666666666666,2,object_01,1,1195,0,5,6,library_6,1,memory-2step-stake-s,574,2019976,0.0-19.0-0.0-0.71,A30CGO77OY7WP0,3X2LT8FDIZY82IMGP2COH9T7SM78W0,3MHW492WW4TDU1M9JVMDP97BZURMVM,6,5
72,4,object_07,object_09,904.23499999987,7,1,710.37500000047,0.7777777777777778,1,object_02,5,1230,0,7,3,restaurant_8,1,memory-2step-stake-s,575,2028619,0.0-19.0-0.0-0.72,A30CGO77OY7WP0,3X2LT8FDIZY82IMGP2COH9T7SM78W0,3MHW492WW4TDU1M9JVMDP97BZURMVM,7,8
73,1,object_06,object_04,875.82500000112,2,2,638.83999999962,0.4444444444444444,2,object_01,1,1234,0,6,4,desert_7,1,memory-2step-stake-s,576,2036885,0.0-19.0-0.0-0.73,A30CGO77OY7WP0,3X2LT8FDIZY82IMGP2COH9T7SM78W0,3MHW492WW4TDU1M9JVMDP97BZURMVM,1,2
74,4,object_07,object_09,1114.99,8,2,549.83000000007,0.1111111111111111,2,object_01,5,1239,0,7,1,restaurant_4,1,memory-2step-stake-s,577,2044765,0.0-19.0-0.0-0.74,A30CGO77OY7WP0,3X2LT8FDIZY82IMGP2COH9T7SM78W0,3MHW492WW4TDU1M9JVMDP97BZURMVM,7,8
75,2,object_10,object_08,421.23499999964,4,1,534.79499999969,0.2222222222222222,2,object_01,1,1241,0,4,2,forest_1,1,memory-2step-stake-s,578,2052729,0.0-19.0-0.0-0.75,A30CGO77OY7WP0,3X2LT8FDIZY82IMGP2COH9T7SM78W0,3MHW492WW4TDU1M9JVMDP97BZURMVM,4,3
76,3,object_05,object_03,553.25000000093,6,2,-1.0,0.0,2,object_01,5,1241,0,2,4,library_6,1,memory-2step-stake-s,579,2061257,0.0-19.0-0.0-0.76,A30CGO77OY7WP0,3X2LT8FDIZY82IMGP2COH9T7SM78W0,3MHW492WW4TDU1M9JVMDP97BZURMVM,5,6
77,3,object_03,object_05,760.73999999976,6,1,622.99499999988,0.5555555555555556,2,object_01,1,1246,0,1,5,library_8,1,memory-2step-stake-s,580,2069612,0.0-19.0-0.0-0.77,A30CGO77OY7WP0,3X2LT8FDIZY82IMGP2COH9T7SM78W0,3MHW492WW4TDU1M9JVMDP97BZURMVM,6,5
78,3,object_03,object_05,543.03500000061,5,2,458.01999999816,0.0,1,object_02,5,1246,0,0,0,library_1,1,memory-2step-stake-s,581,2077296,0.0-19.0-0.0-0.78,A30CGO77OY7WP0,3X2LT8FDIZY82IMGP2COH9T7SM78W0,3MHW492WW4TDU1M9JVMDP97BZURMVM,6,5
79,4,object_07,object_09,486.53499999992,7,1,438.50000000023,0.1111111111111111,1,object_02,1,1247,0,1,2,restaurant_2,1,memory-2step-stake-s,582,2085062,0.0-19.0-0.0-0.79,A30CGO77OY7WP0,3X2LT8FDIZY82IMGP2COH9T7SM78W0,3MHW492WW4TDU1M9JVMDP97BZURMVM,7,8
80,3,object_03,object_05,788.15500000026,5,2,472.92500000005,0.2222222222222222,1,object_02,5,1257,0,2,4,library_6,1,memory-2step-stake-s,583,2092963,0.0-19.0-0.0-0.80,A30CGO77OY7WP0,3X2LT8FDIZY82IMGP2COH9T7SM78W0,3MHW492WW4TDU1M9JVMDP97BZURMVM,6,5
81,1,object_06,object_04,561.55500000017,1,1,377.66999999993,0.4444444444444444,1,object_02,1,1261,0,4,5,desert_8,1,memory-2step-stake-s,584,2100975,0.0-19.0-0.0-0.81,A30CGO77OY7WP0,3X2LT8FDIZY82IMGP2COH9T7SM78W0,3MHW492WW4TDU1M9JVMDP97BZURMVM,1,2
82,2,object_08,object_10,510.02000000002,4,2,568.5549999997,0.5555555555555556,2,object_01,1,1266,0,2,5,forest_1,1,memory-2step-stake-s,585,2109273,0.0-19.0-0.0-0.82,A30CGO77OY7WP0,3X2LT8FDIZY82IMGP2COH9T7SM78W0,3MHW492WW4TDU1M9JVMDP97BZURMVM,3,4
83,4,object_07,object_09,460.97500000009,7,1,473.7349999994,0.3333333333333333,1,object_02,5,1281,0,3,6,restaurant_4,1,memory-2step-stake-s,586,2117276,0.0-19.0-0.0-0.83,A30CGO77OY7WP0,3X2LT8FDIZY82IMGP2COH9T7SM78W0,3MHW492WW4TDU1M9JVMDP97BZURMVM,7,8
84,4,object_09,object_07,888.30000000075,7,2,395.23999999976,0.3333333333333333,1,object_02,5,1296,0,3,6,restaurant_4,1,memory-2step-stake-s,587,2125204,0.0-19.0-0.0-0.84,A30CGO77OY7WP0,3X2LT8FDIZY82IMGP2COH9T7SM78W0,3MHW492WW4TDU1M9JVMDP97BZURMVM,8,7
85,4,object_07,object_09,548.19499999983,7,1,399.85499999952,0.4444444444444444,1,object_02,5,1316,0,4,6,restaurant_4,1,memory-2step-stake-s,588,2133233,0.0-19.0-0.0-0.85,A30CGO77OY7WP0,3X2LT8FDIZY82IMGP2COH9T7SM78W0,3MHW492WW4TDU1M9JVMDP97BZURMVM,7,8
86,1,object_04,object_06,1078.4750000001,1,2,420.03499999922,0.2222222222222222,1,object_02,1,1318,0,2,6,desert_7,1,memory-2step-stake-s,589,2141079,0.0-19.0-0.0-0.86,A30CGO77OY7WP0,3X2LT8FDIZY82IMGP2COH9T7SM78W0,3MHW492WW4TDU1M9JVMDP97BZURMVM,2,1
87,1,object_04,object_06,617.24000000115,2,1,528.58999999985,0.5555555555555556,2,object_01,1,1323,0,1,5,desert_8,1,memory-2step-stake-s,590,2149339,0.0-19.0-0.0-0.87,A30CGO77OY7WP0,3X2LT8FDIZY82IMGP2COH9T7SM78W0,3MHW492WW4TDU1M9JVMDP97BZURMVM,2,1
88,3,object_03,object_05,1192.3900000006,6,1,460.88499999885,0.5555555555555556,2,object_01,5,1348,0,2,5,library_8,1,memory-2step-stake-s,591,2157537,0.0-19.0-0.0-0.88,A30CGO77OY7WP0,3X2LT8FDIZY82IMGP2COH9T7SM78W0,3MHW492WW4TDU1M9JVMDP97BZURMVM,6,5
89,3,object_05,object_03,548.21000000043,6,2,429.46500000078,0.4444444444444444,2,object_01,1,1352,0,2,4,library_4,1,memory-2step-stake-s,592,2165593,0.0-19.0-0.0-0.89,A30CGO77OY7WP0,3X2LT8FDIZY82IMGP2COH9T7SM78W0,3MHW492WW4TDU1M9JVMDP97BZURMVM,5,6
90,3,object_05,object_03,565.64500000048,5,1,582.82999999914,0.3333333333333333,1,object_02,1,1355,0,3,6,library_1,1,memory-2step-stake-s,593,2173703,0.0-19.0-0.0-0.90,A30CGO77OY7WP0,3X2LT8FDIZY82IMGP2COH9T7SM78W0,3MHW492WW4TDU1M9JVMDP97BZURMVM,5,6
91,3,object_03,object_05,786.86000000034,6,1,384.62500000047,0.7777777777777778,2,object_01,5,1390,0,2,7,library_6,1,memory-2step-stake-s,594,2182021,0.0-19.0-0.0-0.91,A30CGO77OY7WP0,3X2LT8FDIZY82IMGP2COH9T7SM78W0,3MHW492WW4TDU1M9JVMDP97BZURMVM,6,5
92,2,object_10,object_08,729.8050000011,4,1,492.31999999983,0.6666666666666666,2,object_01,5,1420,0,3,6,forest_2,1,memory-2step-stake-s,595,2190352,0.0-19.0-0.0-0.92,A30CGO77OY7WP0,3X2LT8FDIZY82IMGP2COH9T7SM78W0,3MHW492WW4TDU1M9JVMDP97BZURMVM,4,3
93,4,object_09,object_07,625.82000000123,7,2,423.03999999957,0.3333333333333333,1,object_02,5,1435,0,3,4,restaurant_2,1,memory-2step-stake-s,596,2198322,0.0-19.0-0.0-0.93,A30CGO77OY7WP0,3X2LT8FDIZY82IMGP2COH9T7SM78W0,3MHW492WW4TDU1M9JVMDP97BZURMVM,8,7
94,2,object_08,object_10,534.58999999939,3,1,1097.1100000003,0.6666666666666666,1,object_02,5,1465,0,6,3,forest_2,1,memory-2step-stake-s,597,2207254,0.0-19.0-0.0-0.94,A30CGO77OY7WP0,3X2LT8FDIZY82IMGP2COH9T7SM78W0,3MHW492WW4TDU1M9JVMDP97BZURMVM,3,4
95,3,object_03,object_05,486.94999999879,5,2,1034.4549999991,0.5555555555555556,1,object_02,5,1490,0,5,5,library_8,1,memory-2step-stake-s,598,2216018,0.0-19.0-0.0-0.95,A30CGO77OY7WP0,3X2LT8FDIZY82IMGP2COH9T7SM78W0,3MHW492WW4TDU1M9JVMDP97BZURMVM,6,5
96,3,object_05,object_03,420.70500000054,5,1,577.95499999868,0.5555555555555556,1,object_02,5,1515,0,5,4,library_4,1,memory-2step-stake-s,599,2224325,0.0-19.0-0.0-0.96,A30CGO77OY7WP0,3X2LT8FDIZY82IMGP2COH9T7SM78W0,3MHW492WW4TDU1M9JVMDP97BZURMVM,5,6
97,4,object_09,object_07,750.7650000006,7,2,919.16499999911,0.4444444444444444,1,object_02,5,1535,0,4,3,restaurant_2,1,memory-2step-stake-s,600,2232873,0.0-19.0-0.0-0.97,A30CGO77OY7WP0,3X2LT8FDIZY82IMGP2COH9T7SM78W0,3MHW492WW4TDU1M9JVMDP97BZURMVM,8,7
98,3,object_05,object_03,599.84500000067,5,1,541.7350000008,0.2222222222222222,1,object_02,1,1537,0,2,3,library_6,1,memory-2step-stake-s,601,2240845,0.0-19.0-0.0-0.98,A30CGO77OY7WP0,3X2LT8FDIZY82IMGP2COH9T7SM78W0,3MHW492WW4TDU1M9JVMDP97BZURMVM,5,6
99,4,object_09,object_07,807.73000000045,8,1,549.0299999998,0.2222222222222222,2,object_01,5,1547,0,5,2,restaurant_2,1,memory-2step-stake-s,602,2248820,0.0-19.0-0.0-0.99,A30CGO77OY7WP0,3X2LT8FDIZY82IMGP2COH9T7SM78W0,3MHW492WW4TDU1M9JVMDP97BZURMVM,8,7
100,1,object_04,object_06,357.60500000091,1,2,713.41000000015,0.6666666666666666,1,object_02,1,1553,0,6,1,desert_7,1,memory-2step-stake-s,603,2257370,0.0-19.0-0.0-0.100,A30CGO77OY7WP0,3X2LT8FDIZY82IMGP2COH9T7SM78W0,3MHW492WW4TDU1M9JVMDP97BZURMVM,2,1
101,3,object_05,object_03,556.19000000134,5,1,847.19000000041,0.7777777777777778,1,object_02,5,1588,0,7,2,library_4,1,memory-2step-stake-s,604,2266158,0.0-19.0-0.0-0.101,A30CGO77OY7WP0,3X2LT8FDIZY82IMGP2COH9T7SM78W0,3MHW492WW4TDU1M9JVMDP97BZURMVM,5,6
102,4,object_07,object_09,571.47000000067,8,2,560.10500000045,0.2222222222222222,2,object_01,5,1598,0,4,2,restaurant_1,1,memory-2step-stake-s,605,2274141,0.0-19.0-0.0-0.102,A30CGO77OY7WP0,3X2LT8FDIZY82IMGP2COH9T7SM78W0,3MHW492WW4TDU1M9JVMDP97BZURMVM,7,8
103,4,object_07,object_09,492.35999999987,7,1,565.9999999986,0.6666666666666666,1,object_02,1,1604,0,6,2,restaurant_1,1,memory-2step-stake-s,606,2282536,0.0-19.0-0.0-0.103,A30CGO77OY7WP0,3X2LT8FDIZY82IMGP2COH9T7SM78W0,3MHW492WW4TDU1M9JVMDP97BZURMVM,7,8
104,2,object_10,object_08,469.08499999857,3,2,627.63000000082,0.8888888888888888,1,object_02,1,1612,0,8,4,forest_2,1,memory-2step-stake-s,607,2291201,0.0-19.0-0.0-0.104,A30CGO77OY7WP0,3X2LT8FDIZY82IMGP2COH9T7SM78W0,3MHW492WW4TDU1M9JVMDP97BZURMVM,4,3
105,4,object_07,object_09,765.17000000086,8,2,-1.0,0.0,2,object_01,5,1612,0,8,2,restaurant_1,1,memory-2step-stake-s,608,2299722,0.0-19.0-0.0-0.105,A30CGO77OY7WP0,3X2LT8FDIZY82IMGP2COH9T7SM78W0,3MHW492WW4TDU1M9JVMDP97BZURMVM,7,8
106,1,object_04,object_06,690.84000000125,2,1,629.46500000032,0.2222222222222222,2,object_01,1,1614,0,6,2,desert_8,1,memory-2step-stake-s,609,2307778,0.0-19.0-0.0-0.106,A30CGO77OY7WP0,3X2LT8FDIZY82IMGP2COH9T7SM78W0,3MHW492WW4TDU1M9JVMDP97BZURMVM,2,1
107,3,object_03,object_05,590.37000000011,5,2,519.08499999996,0.6666666666666666,1,object_02,5,1644,0,6,2,library_8,1,memory-2step-stake-s,610,2316138,0.0-19.0-0.0-0.107,A30CGO77OY7WP0,3X2LT8FDIZY82IMGP2COH9T7SM78W0,3MHW492WW4TDU1M9JVMDP97BZURMVM,6,5
108,4,object_09,object_07,529.23499999987,8,1,488.51000000071,0.3333333333333333,2,object_01,5,1659,0,8,3,restaurant_4,1,memory-2step-stake-s,611,2324157,0.0-19.0-0.0-0.108,A30CGO77OY7WP0,3X2LT8FDIZY82IMGP2COH9T7SM78W0,3MHW492WW4TDU1M9JVMDP97BZURMVM,8,7
109,1,object_06,object_04,768.83999999845,1,1,375.59999999916,0.7777777777777778,1,object_02,1,1666,0,7,1,desert_3,1,memory-2step-stake-s,612,2332463,0.0-19.0-0.0-0.109,A30CGO77OY7WP0,3X2LT8FDIZY82IMGP2COH9T7SM78W0,3MHW492WW4TDU1M9JVMDP97BZURMVM,1,2
110,2,object_10,object_08,402.12000000058,3,2,426.23499999894,0.8888888888888888,1,object_02,1,1674,0,8,4,forest_4,1,memory-2step-stake-s,613,2340926,0.0-19.0-0.0-0.110,A30CGO77OY7WP0,3X2LT8FDIZY82IMGP2COH9T7SM78W0,3MHW492WW4TDU1M9JVMDP97BZURMVM,4,3
111,1,object_06,object_04,411.64500000048,2,2,447.80500000156,0.8888888888888888,2,object_01,5,1714,0,9,8,desert_8,1,memory-2step-stake-s,614,2349406,0.0-19.0-0.0-0.111,A30CGO77OY7WP0,3X2LT8FDIZY82IMGP2COH9T7SM78W0,3MHW492WW4TDU1M9JVMDP97BZURMVM,1,2
112,2,object_08,object_10,520.32999999914,3,1,538.00500000035,0.8888888888888888,1,object_02,1,1722,0,8,8,forest_1,1,memory-2step-stake-s,615,2357977,0.0-19.0-0.0-0.112,A30CGO77OY7WP0,3X2LT8FDIZY82IMGP2COH9T7SM78W0,3MHW492WW4TDU1M9JVMDP97BZURMVM,3,4
113,2,object_10,object_08,501.42500000028,3,2,668.76000000071,0.8888888888888888,1,object_02,1,1730,0,8,9,forest_3,1,memory-2step-stake-s,616,2366683,0.0-19.0-0.0-0.113,A30CGO77OY7WP0,3X2LT8FDIZY82IMGP2COH9T7SM78W0,3MHW492WW4TDU1M9JVMDP97BZURMVM,4,3
114,3,object_05,object_03,422.92499999888,5,1,489.41999999993,0.6666666666666666,1,object_02,5,1760,0,6,8,library_6,1,memory-2step-stake-s,617,2375012,0.0-19.0-0.0-0.114,A30CGO77OY7WP0,3X2LT8FDIZY82IMGP2COH9T7SM78W0,3MHW492WW4TDU1M9JVMDP97BZURMVM,5,6
115,3,object_03,object_05,529.13000000082,5,2,383.28499999968,0.6666666666666666,1,object_02,5,1790,0,6,9,library_6,1,memory-2step-stake-s,618,2383225,0.0-19.0-0.0-0.115,A30CGO77OY7WP0,3X2LT8FDIZY82IMGP2COH9T7SM78W0,3MHW492WW4TDU1M9JVMDP97BZURMVM,6,5
116,1,object_06,object_04,413.74999999953,2,2,486.69999999972,1.0,2,object_01,1,1799,0,7,9,desert_8,1,memory-2step-stake-s,619,2391848,0.0-19.0-0.0-0.116,A30CGO77OY7WP0,3X2LT8FDIZY82IMGP2COH9T7SM78W0,3MHW492WW4TDU1M9JVMDP97BZURMVM,1,2
117,2,object_08,object_10,663.53499999968,3,1,674.52000000048,0.8888888888888888,1,object_02,1,1807,0,8,5,forest_1,1,memory-2step-stake-s,620,2400560,0.0-19.0-0.0-0.117,A30CGO77OY7WP0,3X2LT8FDIZY82IMGP2COH9T7SM78W0,3MHW492WW4TDU1M9JVMDP97BZURMVM,3,4
118,1,object_04,object_06,430.43000000063,2,1,423.2249999987,1.0,2,object_01,1,1816,0,7,9,desert_2,1,memory-2step-stake-s,621,2409126,0.0-19.0-0.0-0.118,A30CGO77OY7WP0,3X2LT8FDIZY82IMGP2COH9T7SM78W0,3MHW492WW4TDU1M9JVMDP97BZURMVM,2,1
119,4,object_09,object_07,653.02499999944,7,2,503.33500000136,1.0,1,object_02,5,1861,0,9,4,restaurant_1,1,memory-2step-stake-s,622,2417777,0.0-19.0-0.0-0.119,A30CGO77OY7WP0,3X2LT8FDIZY82IMGP2COH9T7SM78W0,3MHW492WW4TDU1M9JVMDP97BZURMVM,8,7
120,1,object_04,object_06,668.94499999937,2,1,543.51999999955,0.3333333333333333,2,object_01,5,1876,0,9,3,desert_3,1,memory-2step-stake-s,623,2425845,0.0-19.0-0.0-0.120,A30CGO77OY7WP0,3X2LT8FDIZY82IMGP2COH9T7SM78W0,3MHW492WW4TDU1M9JVMDP97BZURMVM,2,1
121,4,object_07,object_09,421.28000000026,8,2,658.53500000015,0.2222222222222222,2,object_01,5,1886,0,8,2,restaurant_4,1,memory-2step-stake-s,624,2433927,0.0-19.0-0.0-0.121,A30CGO77OY7WP0,3X2LT8FDIZY82IMGP2COH9T7SM78W0,3MHW492WW4TDU1M9JVMDP97BZURMVM,7,8
122,1,object_06,object_04,469.80500000063,1,1,722.65999999922,0.8888888888888888,1,object_02,5,1926,0,8,3,desert_7,1,memory-2step-stake-s,625,2442691,0.0-19.0-0.0-0.122,A30CGO77OY7WP0,3X2LT8FDIZY82IMGP2COH9T7SM78W0,3MHW492WW4TDU1M9JVMDP97BZURMVM,1,2
123,3,object_03,object_05,726.33999999939,6,1,502.64500000048,0.6666666666666666,2,object_01,1,1932,0,9,6,library_4,1,memory-2step-stake-s,626,2451023,0.0-19.0-0.0-0.123,A30CGO77OY7WP0,3X2LT8FDIZY82IMGP2COH9T7SM78W0,3MHW492WW4TDU1M9JVMDP97BZURMVM,6,5
124,2,object_10,object_08,366.45999999903,3,2,617.9850000008,0.6666666666666666,1,object_02,1,1938,0,6,2,forest_4,1,memory-2step-stake-s,627,2459472,0.0-19.0-0.0-0.124,A30CGO77OY7WP0,3X2LT8FDIZY82IMGP2COH9T7SM78W0,3MHW492WW4TDU1M9JVMDP97BZURMVM,4,3
125,1,object_06,object_04,459.79500000039,2,2,568.55500000017,0.4444444444444444,2,object_01,5,1958,0,8,4,desert_2,1,memory-2step-stake-s,628,2467668,0.0-19.0-0.0-0.125,A30CGO77OY7WP0,3X2LT8FDIZY82IMGP2COH9T7SM78W0,3MHW492WW4TDU1M9JVMDP97BZURMVM,1,2
126,4,object_09,object_07,523.78999999911,8,1,525.04999999981,0.0,2,object_01,5,1958,0,8,0,restaurant_8,1,memory-2step-stake-s,629,2475415,0.0-19.0-0.0-0.126,A30CGO77OY7WP0,3X2LT8FDIZY82IMGP2COH9T7SM78W0,3MHW492WW4TDU1M9JVMDP97BZURMVM,8,7
127,2,object_10,object_08,892.06499999994,3,2,606.77000000002,1.0,1,object_02,1,1967,0,9,1,forest_4,1,memory-2step-stake-s,630,2484157,0.0-19.0-0.0-0.127,A30CGO77OY7WP0,3X2LT8FDIZY82IMGP2COH9T7SM78W0,3MHW492WW4TDU1M9JVMDP97BZURMVM,4,3
128,3,object_03,object_05,510.22999999998,6,1,456.4850000008,0.1111111111111111,2,object_01,5,1972,0,9,1,library_1,1,memory-2step-stake-s,632,2497822,0.0-19.0-0.1-0.128,A30CGO77OY7WP0,3X2LT8FDIZY82IMGP2COH9T7SM78W0,3MHW492WW4TDU1M9JVMDP97BZURMVM,6,5
129,1,object_06,object_04,523.49000000115,2,2,548.90999999968,0.1111111111111111,2,object_01,5,1977,0,8,1,desert_8,1,memory-2step-stake-s,633,2505695,0.0-19.0-0.1-0.129,A30CGO77OY7WP0,3X2LT8FDIZY82IMGP2COH9T7SM78W0,3MHW492WW4TDU1M9JVMDP97BZURMVM,1,2
130,2,object_10,object_08,999.46500000078,4,1,424.39000000013,0.0,2,object_01,1,1977,0,9,0,forest_3,1,memory-2step-stake-s,634,2513342,0.0-19.0-0.1-0.130,A30CGO77OY7WP0,3X2LT8FDIZY82IMGP2COH9T7SM78W0,3MHW492WW4TDU1M9JVMDP97BZURMVM,4,3
131,3,object_03,object_05,860.80000000075,5,2,555.00000000047,0.7777777777777778,1,object_02,5,2012,0,7,1,library_8,1,memory-2step-stake-s,635,2521836,0.0-19.0-0.1-0.131,A30CGO77OY7WP0,3X2LT8FDIZY82IMGP2COH9T7SM78W0,3MHW492WW4TDU1M9JVMDP97BZURMVM,6,5
132,1,object_04,object_06,595.30499999877,1,2,811.63500000024,0.8888888888888888,1,object_02,1,2020,0,8,4,desert_3,1,memory-2step-stake-s,636,2530686,0.0-19.0-0.1-0.132,A30CGO77OY7WP0,3X2LT8FDIZY82IMGP2COH9T7SM78W0,3MHW492WW4TDU1M9JVMDP97BZURMVM,2,1
133,4,object_09,object_07,1030.1849999996,7,2,504.77999999933,0.8888888888888888,1,object_02,5,2060,0,8,5,restaurant_4,1,memory-2step-stake-s,637,2539229,0.0-19.0-0.1-0.133,A30CGO77OY7WP0,3X2LT8FDIZY82IMGP2COH9T7SM78W0,3MHW492WW4TDU1M9JVMDP97BZURMVM,8,7
134,3,object_05,object_03,1042.2849999997,6,2,434.4300000011,0.7777777777777778,2,object_01,5,2095,0,6,7,library_4,1,memory-2step-stake-s,638,2547598,0.0-19.0-0.1-0.134,A30CGO77OY7WP0,3X2LT8FDIZY82IMGP2COH9T7SM78W0,3MHW492WW4TDU1M9JVMDP97BZURMVM,5,6
135,4,object_07,object_09,562.39999999898,7,1,487.87999999896,0.7777777777777778,1,object_02,5,2130,0,7,7,restaurant_2,1,memory-2step-stake-s,639,2556016,0.0-19.0-0.1-0.135,A30CGO77OY7WP0,3X2LT8FDIZY82IMGP2COH9T7SM78W0,3MHW492WW4TDU1M9JVMDP97BZURMVM,7,8
136,1,object_06,object_04,507.48500000034,2,2,680.77500000037,0.8888888888888888,2,object_01,1,2138,0,6,8,desert_2,1,memory-2step-stake-s,640,2564733,0.0-19.0-0.1-0.136,A30CGO77OY7WP0,3X2LT8FDIZY82IMGP2COH9T7SM78W0,3MHW492WW4TDU1M9JVMDP97BZURMVM,1,2
137,3,object_05,object_03,602.43500000052,5,1,518.76000000071,0.6666666666666666,1,object_02,5,2168,0,6,7,library_1,1,memory-2step-stake-s,641,2573083,0.0-19.0-0.1-0.137,A30CGO77OY7WP0,3X2LT8FDIZY82IMGP2COH9T7SM78W0,3MHW492WW4TDU1M9JVMDP97BZURMVM,5,6
138,1,object_04,object_06,533.69499999983,1,2,672.00500000035,0.6666666666666666,1,object_02,1,2174,0,6,9,desert_2,1,memory-2step-stake-s,642,2581585,0.0-19.0-0.1-0.138,A30CGO77OY7WP0,3X2LT8FDIZY82IMGP2COH9T7SM78W0,3MHW492WW4TDU1M9JVMDP97BZURMVM,2,1
139,1,object_06,object_04,700.50000000093,2,2,448.98999999883,0.7777777777777778,2,object_01,1,2181,0,7,7,desert_3,1,memory-2step-stake-s,643,2589967,0.0-19.0-0.1-0.139,A30CGO77OY7WP0,3X2LT8FDIZY82IMGP2COH9T7SM78W0,3MHW492WW4TDU1M9JVMDP97BZURMVM,1,2
140,2,object_10,object_08,493.56499999855,4,1,505.87500000093,0.7777777777777778,2,object_01,1,2188,0,9,7,forest_2,1,memory-2step-stake-s,644,2598407,0.0-19.0-0.1-0.140,A30CGO77OY7WP0,3X2LT8FDIZY82IMGP2COH9T7SM78W0,3MHW492WW4TDU1M9JVMDP97BZURMVM,4,3
141,4,object_07,object_09,447.12000000058,8,2,414.27999999886,0.6666666666666666,2,object_01,5,2218,0,6,6,restaurant_4,1,memory-2step-stake-s,645,2606658,0.0-19.0-0.1-0.141,A30CGO77OY7WP0,3X2LT8FDIZY82IMGP2COH9T7SM78W0,3MHW492WW4TDU1M9JVMDP97BZURMVM,7,8
142,1,object_04,object_06,494.6799999997,2,1,554.99500000058,0.6666666666666666,2,object_01,1,2224,0,3,6,desert_3,1,memory-2step-stake-s,646,2615043,0.0-19.0-0.1-0.142,A30CGO77OY7WP0,3X2LT8FDIZY82IMGP2COH9T7SM78W0,3MHW492WW4TDU1M9JVMDP97BZURMVM,2,1
143,2,object_08,object_10,334.33999999939,3,1,349.56500000041,0.2222222222222222,1,object_02,5,2234,0,2,6,forest_2,1,memory-2step-stake-s,647,2622819,0.0-19.0-0.1-0.143,A30CGO77OY7WP0,3X2LT8FDIZY82IMGP2COH9T7SM78W0,3MHW492WW4TDU1M9JVMDP97BZURMVM,3,4
144,4,object_09,object_07,668.87999999942,8,1,481.77500000037,0.7777777777777778,2,object_01,5,2269,0,2,7,restaurant_1,1,memory-2step-stake-s,648,2631241,0.0-19.0-0.1-0.144,A30CGO77OY7WP0,3X2LT8FDIZY82IMGP2COH9T7SM78W0,3MHW492WW4TDU1M9JVMDP97BZURMVM,8,7
145,2,object_08,object_10,1050.5900000008,3,1,384.9850000008,0.3333333333333333,1,object_02,1,2272,0,3,6,forest_1,1,memory-2step-stake-s,649,2639150,0.0-19.0-0.1-0.145,A30CGO77OY7WP0,3X2LT8FDIZY82IMGP2COH9T7SM78W0,3MHW492WW4TDU1M9JVMDP97BZURMVM,3,4
146,3,object_05,object_03,1354.9399999995,5,1,426.19499999983,0.2222222222222222,1,object_02,5,2282,0,2,6,library_8,1,memory-2step-stake-s,650,2647011,0.0-19.0-0.1-0.146,A30CGO77OY7WP0,3X2LT8FDIZY82IMGP2COH9T7SM78W0,3MHW492WW4TDU1M9JVMDP97BZURMVM,5,6
147,2,object_10,object_08,1039.1950000012,3,2,389.48499999987,0.4444444444444444,1,object_02,1,2286,0,4,5,forest_4,1,memory-2step-stake-s,651,2655027,0.0-19.0-0.1-0.147,A30CGO77OY7WP0,3X2LT8FDIZY82IMGP2COH9T7SM78W0,3MHW492WW4TDU1M9JVMDP97BZURMVM,4,3
148,3,object_05,object_03,-1.0,-1,-1,-1.0,0.0,-,0,5,2286,0,1,4,library_6,1,memory-2step-stake-s,652,2661542,0.0-19.0-0.1-0.148,A30CGO77OY7WP0,3X2LT8FDIZY82IMGP2COH9T7SM78W0,3MHW492WW4TDU1M9JVMDP97BZURMVM,5,6
149,4,object_09,object_07,589.7650000006,8,1,645.48999999883,0.4444444444444444,2,object_01,5,2306,0,3,4,restaurant_4,1,memory-2step-stake-s,653,2669814,0.0-19.0-0.1-0.149,A30CGO77OY7WP0,3X2LT8FDIZY82IMGP2COH9T7SM78W0,3MHW492WW4TDU1M9JVMDP97BZURMVM,8,7
150,2,object_10,object_08,524.66000000108,3,2,469.78999999911,0.6666666666666666,1,object_02,1,2312,0,6,2,forest_2,1,memory-2step-stake-s,654,2678117,0.0-19.0-0.1-0.150,A30CGO77OY7WP0,3X2LT8FDIZY82IMGP2COH9T7SM78W0,3MHW492WW4TDU1M9JVMDP97BZURMVM,4,3
151,4,object_07,object_09,495.13499999931,7,1,514.32500000019,0.6666666666666666,1,object_02,5,2342,0,6,4,restaurant_8,1,memory-2step-stake-s,655,2686468,0.0-19.0-0.1-0.151,A30CGO77OY7WP0,3X2LT8FDIZY82IMGP2COH9T7SM78W0,3MHW492WW4TDU1M9JVMDP97BZURMVM,7,8
152,4,object_07,object_09,527.79999999981,8,2,495.3049999983,0.4444444444444444,2,object_01,5,2362,0,7,4,restaurant_8,1,memory-2step-stake-s,656,2694599,0.0-19.0-0.1-0.152,A30CGO77OY7WP0,3X2LT8FDIZY82IMGP2COH9T7SM78W0,3MHW492WW4TDU1M9JVMDP97BZURMVM,7,8
153,4,object_09,object_07,502.51000000024,8,1,454.18500000052,0.5555555555555556,2,object_01,5,2387,0,3,5,restaurant_8,1,memory-2step-stake-s,657,2702788,0.0-19.0-0.1-0.153,A30CGO77OY7WP0,3X2LT8FDIZY82IMGP2COH9T7SM78W0,3MHW492WW4TDU1M9JVMDP97BZURMVM,8,7
154,2,object_10,object_08,609.30500000017,4,1,535.06499999994,1.0,2,object_01,1,2396,0,2,9,forest_3,1,memory-2step-stake-s,658,2711464,0.0-19.0-0.1-0.154,A30CGO77OY7WP0,3X2LT8FDIZY82IMGP2COH9T7SM78W0,3MHW492WW4TDU1M9JVMDP97BZURMVM,4,3
155,1,object_06,object_04,385.84500000067,2,2,463.88000000082,0.8888888888888888,2,object_01,1,2404,0,2,8,desert_3,1,memory-2step-stake-s,659,2719960,0.0-19.0-0.1-0.155,A30CGO77OY7WP0,3X2LT8FDIZY82IMGP2COH9T7SM78W0,3MHW492WW4TDU1M9JVMDP97BZURMVM,1,2
156,3,object_05,object_03,462.96000000089,5,1,618.02499999944,0.3333333333333333,1,object_02,5,2419,0,3,6,library_1,1,memory-2step-stake-s,660,2728109,0.0-19.0-0.1-0.156,A30CGO77OY7WP0,3X2LT8FDIZY82IMGP2COH9T7SM78W0,3MHW492WW4TDU1M9JVMDP97BZURMVM,5,6
157,4,object_07,object_09,532.07499999925,8,2,402.95499999961,0.6666666666666666,2,object_01,5,2449,0,5,6,restaurant_8,1,memory-2step-stake-s,661,2736346,0.0-19.0-0.1-0.157,A30CGO77OY7WP0,3X2LT8FDIZY82IMGP2COH9T7SM78W0,3MHW492WW4TDU1M9JVMDP97BZURMVM,7,8
158,4,object_09,object_07,855.78499999968,8,1,487.8200000003,0.6666666666666666,2,object_01,5,2479,0,6,6,restaurant_4,1,memory-2step-stake-s,662,2744677,0.0-19.0-0.1-0.158,A30CGO77OY7WP0,3X2LT8FDIZY82IMGP2COH9T7SM78W0,3MHW492WW4TDU1M9JVMDP97BZURMVM,8,7
159,4,object_09,object_07,522.92000000132,7,2,528.41999999853,0.7777777777777778,1,object_02,1,2486,0,7,5,restaurant_4,1,memory-2step-stake-s,663,2753138,0.0-19.0-0.1-0.159,A30CGO77OY7WP0,3X2LT8FDIZY82IMGP2COH9T7SM78W0,3MHW492WW4TDU1M9JVMDP97BZURMVM,8,7
160,3,object_05,object_03,442.08000000054,6,2,539.69499999937,0.5555555555555556,2,object_01,5,2511,0,5,5,library_8,1,memory-2step-stake-s,664,2761406,0.0-19.0-0.1-0.160,A30CGO77OY7WP0,3X2LT8FDIZY82IMGP2COH9T7SM78W0,3MHW492WW4TDU1M9JVMDP97BZURMVM,5,6
161,2,object_10,object_08,485.41499999911,4,1,677.14500000002,1.0,2,object_01,1,2520,0,3,9,forest_2,1,memory-2step-stake-s,665,2770218,0.0-19.0-0.1-0.161,A30CGO77OY7WP0,3X2LT8FDIZY82IMGP2COH9T7SM78W0,3MHW492WW4TDU1M9JVMDP97BZURMVM,4,3
162,3,object_03,object_05,432.95500000007,5,2,475.02500000177,0.5555555555555556,1,object_02,5,2545,0,5,8,library_6,1,memory-2step-stake-s,666,2778424,0.0-19.0-0.1-0.162,A30CGO77OY7WP0,3X2LT8FDIZY82IMGP2COH9T7SM78W0,3MHW492WW4TDU1M9JVMDP97BZURMVM,6,5
163,3,object_05,object_03,505.38500000071,5,1,414.88500000024,0.3333333333333333,1,object_02,5,2560,0,3,8,library_8,1,memory-2step-stake-s,667,2786367,0.0-19.0-0.1-0.163,A30CGO77OY7WP0,3X2LT8FDIZY82IMGP2COH9T7SM78W0,3MHW492WW4TDU1M9JVMDP97BZURMVM,5,6
164,4,object_07,object_09,355.48499999987,8,2,549.94500000076,0.8888888888888888,2,object_01,1,2568,0,4,8,restaurant_2,1,memory-2step-stake-s,668,2794951,0.0-19.0-0.1-0.164,A30CGO77OY7WP0,3X2LT8FDIZY82IMGP2COH9T7SM78W0,3MHW492WW4TDU1M9JVMDP97BZURMVM,7,8
165,1,object_06,object_04,440.31000000006,1,1,1109.0349999997,0.4444444444444444,1,object_02,1,2572,0,4,7,desert_7,1,memory-2step-stake-s,669,2803689,0.0-19.0-0.1-0.165,A30CGO77OY7WP0,3X2LT8FDIZY82IMGP2COH9T7SM78W0,3MHW492WW4TDU1M9JVMDP97BZURMVM,1,2
166,2,object_10,object_08,344.96000000043,3,2,740.10000000102,0.6666666666666666,1,object_02,1,2578,0,6,8,forest_4,1,memory-2step-stake-s,670,2812258,0.0-19.0-0.1-0.166,A30CGO77OY7WP0,3X2LT8FDIZY82IMGP2COH9T7SM78W0,3MHW492WW4TDU1M9JVMDP97BZURMVM,4,3
167,1,object_04,object_06,932.45500000007,1,2,1274.8050000011,0.7777777777777778,1,object_02,1,2585,0,7,4,desert_7,1,memory-2step-stake-s,671,2821467,0.0-19.0-0.1-0.167,A30CGO77OY7WP0,3X2LT8FDIZY82IMGP2COH9T7SM78W0,3MHW492WW4TDU1M9JVMDP97BZURMVM,2,1
168,1,object_06,object_04,320.78500000015,1,1,615.75499999849,0.6666666666666666,1,object_02,1,2591,0,6,6,desert_3,1,memory-2step-stake-s,672,2829915,0.0-19.0-0.1-0.168,A30CGO77OY7WP0,3X2LT8FDIZY82IMGP2COH9T7SM78W0,3MHW492WW4TDU1M9JVMDP97BZURMVM,1,2
169,3,object_05,object_03,359.4999999986,5,1,497.37000000104,0.6666666666666666,1,object_02,5,2621,0,6,7,library_1,1,memory-2step-stake-s,673,2838241,0.0-19.0-0.1-0.169,A30CGO77OY7WP0,3X2LT8FDIZY82IMGP2COH9T7SM78W0,3MHW492WW4TDU1M9JVMDP97BZURMVM,5,6
170,3,object_05,object_03,321.89499999955,6,2,484.32499999925,0.8888888888888888,2,object_01,5,2661,0,6,8,library_4,1,memory-2step-stake-s,674,2846770,0.0-19.0-0.1-0.170,A30CGO77OY7WP0,3X2LT8FDIZY82IMGP2COH9T7SM78W0,3MHW492WW4TDU1M9JVMDP97BZURMVM,5,6
171,1,object_06,object_04,553.37999999942,1,1,528.85499999858,0.0,1,object_02,1,2661,0,0,5,desert_2,1,memory-2step-stake-s,675,2854518,0.0-19.0-0.1-0.171,A30CGO77OY7WP0,3X2LT8FDIZY82IMGP2COH9T7SM78W0,3MHW492WW4TDU1M9JVMDP97BZURMVM,1,2
172,1,object_04,object_06,458.18499999912,1,2,440.60999999987,0.1111111111111111,1,object_02,1,2662,0,1,6,desert_3,1,memory-2step-stake-s,676,2862281,0.0-19.0-0.1-0.172,A30CGO77OY7WP0,3X2LT8FDIZY82IMGP2COH9T7SM78W0,3MHW492WW4TDU1M9JVMDP97BZURMVM,2,1
173,2,object_08,object_10,365.28999999957,4,2,553.95499999914,0.5555555555555556,2,object_01,1,2667,0,2,5,forest_4,1,memory-2step-stake-s,677,2870567,0.0-19.0-0.1-0.173,A30CGO77OY7WP0,3X2LT8FDIZY82IMGP2COH9T7SM78W0,3MHW492WW4TDU1M9JVMDP97BZURMVM,3,4
174,3,object_03,object_05,269.4850000008,5,2,814.1099999994,0.1111111111111111,1,object_02,5,2672,0,1,5,library_6,1,memory-2step-stake-s,678,2878703,0.0-19.0-0.1-0.174,A30CGO77OY7WP0,3X2LT8FDIZY82IMGP2COH9T7SM78W0,3MHW492WW4TDU1M9JVMDP97BZURMVM,6,5
175,4,object_09,object_07,669.72500000149,8,1,828.76000000071,0.5555555555555556,2,object_01,5,2697,0,5,5,restaurant_1,1,memory-2step-stake-s,679,2887266,0.0-19.0-0.1-0.175,A30CGO77OY7WP0,3X2LT8FDIZY82IMGP2COH9T7SM78W0,3MHW492WW4TDU1M9JVMDP97BZURMVM,8,7
176,1,object_06,object_04,345.50999999931,1,1,584.04499999993,0.2222222222222222,1,object_02,1,2699,0,2,5,desert_8,1,memory-2step-stake-s,680,2895275,0.0-19.0-0.1-0.176,A30CGO77OY7WP0,3X2LT8FDIZY82IMGP2COH9T7SM78W0,3MHW492WW4TDU1M9JVMDP97BZURMVM,1,2
177,3,object_03,object_05,500.4850000008,6,1,470.67500000028,0.6666666666666666,2,object_01,5,2729,0,3,6,library_4,1,memory-2step-stake-s,681,2903580,0.0-19.0-0.1-0.177,A30CGO77OY7WP0,3X2LT8FDIZY82IMGP2COH9T7SM78W0,3MHW492WW4TDU1M9JVMDP97BZURMVM,6,5
178,2,object_10,object_08,1397.6550000007,3,2,693.98499999987,0.4444444444444444,1,object_02,1,2733,0,4,5,forest_3,1,memory-2step-stake-s,682,2911902,0.0-19.0-0.1-0.178,A30CGO77OY7WP0,3X2LT8FDIZY82IMGP2COH9T7SM78W0,3MHW492WW4TDU1M9JVMDP97BZURMVM,4,3
179,2,object_08,object_10,1197.8700000001,4,2,322.08500000183,0.8888888888888888,2,object_01,1,2741,0,3,8,forest_3,1,memory-2step-stake-s,683,2920265,0.0-19.0-0.1-0.179,A30CGO77OY7WP0,3X2LT8FDIZY82IMGP2COH9T7SM78W0,3MHW492WW4TDU1M9JVMDP97BZURMVM,3,4
180,1,object_06,object_04,1037.0149999997,1,1,405.39500000002,0.2222222222222222,1,object_02,1,2743,0,2,5,desert_7,1,memory-2step-stake-s,684,2928098,0.0-19.0-0.1-0.180,A30CGO77OY7WP0,3X2LT8FDIZY82IMGP2COH9T7SM78W0,3MHW492WW4TDU1M9JVMDP97BZURMVM,1,2
181,3,object_03,object_05,1132.084999999,5,2,506.04999999981,0.3333333333333333,1,object_02,5,2758,0,3,4,library_8,1,memory-2step-stake-s,685,2936130,0.0-19.0-0.1-0.181,A30CGO77OY7WP0,3X2LT8FDIZY82IMGP2COH9T7SM78W0,3MHW492WW4TDU1M9JVMDP97BZURMVM,6,5
182,4,object_07,object_09,1150.4550000005,8,2,479.68000000017,0.7777777777777778,2,object_01,5,2793,0,4,7,restaurant_4,1,memory-2step-stake-s,686,2944544,0.0-19.0-0.1-0.182,A30CGO77OY7WP0,3X2LT8FDIZY82IMGP2COH9T7SM78W0,3MHW492WW4TDU1M9JVMDP97BZURMVM,7,8
183,4,object_09,object_07,813.56000000052,8,1,449.6549999984,1.0,2,object_01,5,2838,0,8,9,restaurant_2,1,memory-2step-stake-s,687,2953136,0.0-19.0-0.1-0.183,A30CGO77OY7WP0,3X2LT8FDIZY82IMGP2COH9T7SM78W0,3MHW492WW4TDU1M9JVMDP97BZURMVM,8,7
184,3,object_05,object_03,1382.6299999999,5,1,405.38500000024,0.7777777777777778,1,object_02,5,2873,0,7,5,library_1,1,memory-2step-stake-s,688,2961480,0.0-19.0-0.1-0.184,A30CGO77OY7WP0,3X2LT8FDIZY82IMGP2COH9T7SM78W0,3MHW492WW4TDU1M9JVMDP97BZURMVM,5,6
185,1,object_04,object_06,1113.080000001,1,2,663.46000000136,0.3333333333333333,1,object_02,1,2876,0,3,5,desert_8,1,memory-2step-stake-s,689,2969669,0.0-19.0-0.1-0.185,A30CGO77OY7WP0,3X2LT8FDIZY82IMGP2COH9T7SM78W0,3MHW492WW4TDU1M9JVMDP97BZURMVM,2,1
186,2,object_10,object_08,1281.5349999983,4,1,439.1100000008,0.5555555555555556,2,object_01,1,2881,0,5,5,forest_2,1,memory-2step-stake-s,690,2977837,0.0-19.0-0.1-0.186,A30CGO77OY7WP0,3X2LT8FDIZY82IMGP2COH9T7SM78W0,3MHW492WW4TDU1M9JVMDP97BZURMVM,4,3
187,3,object_05,object_03,1255.5800000005,6,2,404.50000000047,0.6666666666666666,2,object_01,5,2911,0,3,6,library_6,1,memory-2step-stake-s,691,2986078,0.0-19.0-0.1-0.187,A30CGO77OY7WP0,3X2LT8FDIZY82IMGP2COH9T7SM78W0,3MHW492WW4TDU1M9JVMDP97BZURMVM,5,6
188,4,object_07,object_09,861.56499999901,8,2,383.68500000099,0.8888888888888888,2,object_01,5,2951,0,1,8,restaurant_8,1,memory-2step-stake-s,692,2994497,0.0-19.0-0.1-0.188,A30CGO77OY7WP0,3X2LT8FDIZY82IMGP2COH9T7SM78W0,3MHW492WW4TDU1M9JVMDP97BZURMVM,7,8
189,4,object_07,object_09,826.58999999892,8,2,433.10499999998,0.8888888888888888,2,object_01,5,2991,0,1,8,restaurant_8,1,memory-2step-stake-s,693,3002965,0.0-19.0-0.1-0.189,A30CGO77OY7WP0,3X2LT8FDIZY82IMGP2COH9T7SM78W0,3MHW492WW4TDU1M9JVMDP97BZURMVM,7,8
190,4,object_09,object_07,725.53000000166,8,1,304.70000000019,0.5555555555555556,2,object_01,1,2996,0,2,5,restaurant_1,1,memory-2step-stake-s,694,3011003,0.0-19.0-0.1-0.190,A30CGO77OY7WP0,3X2LT8FDIZY82IMGP2COH9T7SM78W0,3MHW492WW4TDU1M9JVMDP97BZURMVM,8,7
191,4,object_07,object_09,647.54000000004,8,2,535.47000000067,0.5555555555555556,2,object_01,5,3021,0,1,5,restaurant_4,1,memory-2step-stake-s,695,3019272,0.0-19.0-0.1-0.191,A30CGO77OY7WP0,3X2LT8FDIZY82IMGP2COH9T7SM78W0,3MHW492WW4TDU1M9JVMDP97BZURMVM,7,8
192,2,object_08,object_10,-1.0,-1,-1,-1.0,0.0,-,0,5,3021,0,0,4,forest_4,1,memory-2step-stake-s,696,3025788,0.0-19.0-0.1-0.192,A30CGO77OY7WP0,3X2LT8FDIZY82IMGP2COH9T7SM78W0,3MHW492WW4TDU1M9JVMDP97BZURMVM,3,4
193,1,object_04,object_06,981.89000000106,2,1,479.77499999991,0.8888888888888888,2,object_01,1,3029,0,2,8,desert_3,1,memory-2step-stake-s,697,3034300,0.0-19.0-0.1-0.193,A30CGO77OY7WP0,3X2LT8FDIZY82IMGP2COH9T7SM78W0,3MHW492WW4TDU1M9JVMDP97BZURMVM,2,1
194,1,object_04,object_06,1012.9349999987,2,1,503.80500000017,0.7777777777777778,2,object_01,1,3036,0,3,7,desert_7,1,memory-2step-stake-s,698,3042735,0.0-19.0-0.1-0.194,A30CGO77OY7WP0,3X2LT8FDIZY82IMGP2COH9T7SM78W0,3MHW492WW4TDU1M9JVMDP97BZURMVM,2,1
195,2,object_08,object_10,1041.1500000008,4,2,474.69500000076,0.8888888888888888,2,object_01,5,3076,0,0,8,forest_1,1,memory-2step-stake-s,699,3051245,0.0-19.0-0.1-0.195,A30CGO77OY7WP0,3X2LT8FDIZY82IMGP2COH9T7SM78W0,3MHW492WW4TDU1M9JVMDP97BZURMVM,3,4
196,4,object_09,object_07,701.19499999937,8,1,467.23000000045,1.0,2,object_01,5,3121,0,1,9,restaurant_1,1,memory-2step-stake-s,700,3059846,0.0-19.0-0.1-0.196,A30CGO77OY7WP0,3X2LT8FDIZY82IMGP2COH9T7SM78W0,3MHW492WW4TDU1M9JVMDP97BZURMVM,8,7
197,2,object_10,object_08,1073.5650000009,4,1,384.16999999946,0.8888888888888888,2,object_01,5,3161,0,3,8,forest_4,1,memory-2step-stake-s,701,3068264,0.0-19.0-0.1-0.197,A30CGO77OY7WP0,3X2LT8FDIZY82IMGP2COH9T7SM78W0,3MHW492WW4TDU1M9JVMDP97BZURMVM,4,3
198,3,object_03,object_05,1153.2349999999,6,1,425.17000000039,0.5555555555555556,2,object_01,5,3186,0,2,5,library_8,1,memory-2step-stake-s,702,3076425,0.0-19.0-0.1-0.198,A30CGO77OY7WP0,3X2LT8FDIZY82IMGP2COH9T7SM78W0,3MHW492WW4TDU1M9JVMDP97BZURMVM,6,5
199,1,object_06,object_04,874.56999999983,2,2,549.31000000052,0.5555555555555556,2,object_01,1,3191,0,2,5,desert_2,1,memory-2step-stake-s,703,3084707,0.0-19.0-0.1-0.199,A30CGO77OY7WP0,3X2LT8FDIZY82IMGP2COH9T7SM78W0,3MHW492WW4TDU1M9JVMDP97BZURMVM,1,2
200,3,object_03,object_05,1021.0950000002,6,1,387.21000000043,0.7777777777777778,2,object_01,5,3226,0,3,7,library_1,1,memory-2step-stake-s,704,3093026,0.0-19.0-0.1-0.200,A30CGO77OY7WP0,3X2LT8FDIZY82IMGP2COH9T7SM78W0,3MHW492WW4TDU1M9JVMDP97BZURMVM,6,5
201,1,object_06,object_04,732.14000000013,1,1,422.2649999992,0.1111111111111111,1,object_02,1,3227,0,1,9,desert_3,1,memory-2step-stake-s,705,3100774,0.0-19.0-0.1-0.201,A30CGO77OY7WP0,3X2LT8FDIZY82IMGP2COH9T7SM78W0,3MHW492WW4TDU1M9JVMDP97BZURMVM,1,2
202,1,object_06,object_04,1159.9299999997,2,2,354.02500000037,0.8888888888888888,2,object_01,1,3235,0,0,8,desert_3,1,memory-2step-stake-s,706,3109163,0.0-19.0-0.1-0.202,A30CGO77OY7WP0,3X2LT8FDIZY82IMGP2COH9T7SM78W0,3MHW492WW4TDU1M9JVMDP97BZURMVM,1,2
203,1,object_04,object_06,994.40499999933,2,1,699.34500000067,0.8888888888888888,2,object_01,5,3275,0,1,8,desert_7,1,memory-2step-stake-s,707,3117904,0.0-19.0-0.1-0.203,A30CGO77OY7WP0,3X2LT8FDIZY82IMGP2COH9T7SM78W0,3MHW492WW4TDU1M9JVMDP97BZURMVM,2,1
204,3,object_05,object_03,787.05500000063,6,2,687.38500000117,1.0,2,object_01,5,3320,0,2,9,library_1,1,memory-2step-stake-s,708,3126727,0.0-19.0-0.1-0.204,A30CGO77OY7WP0,3X2LT8FDIZY82IMGP2COH9T7SM78W0,3MHW492WW4TDU1M9JVMDP97BZURMVM,5,6
205,4,object_09,object_07,654.0700000003,8,1,335.69499999983,1.0,2,object_01,5,3365,0,5,9,restaurant_8,1,memory-2step-stake-s,709,3135199,0.0-19.0-0.1-0.205,A30CGO77OY7WP0,3X2LT8FDIZY82IMGP2COH9T7SM78W0,3MHW492WW4TDU1M9JVMDP97BZURMVM,8,7
206,4,object_09,object_07,664.05499999924,8,1,623.9299999997,0.5555555555555556,2,object_01,1,3370,0,2,5,restaurant_1,1,memory-2step-stake-s,710,3143556,0.0-19.0-0.1-0.206,A30CGO77OY7WP0,3X2LT8FDIZY82IMGP2COH9T7SM78W0,3MHW492WW4TDU1M9JVMDP97BZURMVM,8,7
207,3,object_05,object_03,868.97999999952,6,2,421.81499999948,0.2222222222222222,2,object_01,5,3380,0,4,2,library_8,1,memory-2step-stake-s,711,3151408,0.0-19.0-0.1-0.207,A30CGO77OY7WP0,3X2LT8FDIZY82IMGP2COH9T7SM78W0,3MHW492WW4TDU1M9JVMDP97BZURMVM,5,6
208,4,object_09,object_07,656.65499999886,7,2,282.2099999995,0.4444444444444444,1,object_02,5,3400,0,4,0,restaurant_2,1,memory-2step-stake-s,712,3159317,0.0-19.0-0.1-0.208,A30CGO77OY7WP0,3X2LT8FDIZY82IMGP2COH9T7SM78W0,3MHW492WW4TDU1M9JVMDP97BZURMVM,8,7
209,2,object_08,object_10,995.62999999942,3,1,679.27500000037,0.4444444444444444,1,object_02,5,3420,0,4,1,forest_4,1,memory-2step-stake-s,713,3167628,0.0-19.0-0.1-0.209,A30CGO77OY7WP0,3X2LT8FDIZY82IMGP2COH9T7SM78W0,3MHW492WW4TDU1M9JVMDP97BZURMVM,3,4
210,2,object_10,object_08,1406.5100000007,3,2,533.93499999959,0.4444444444444444,1,object_02,1,3424,0,4,1,forest_4,1,memory-2step-stake-s,714,3175796,0.0-19.0-0.1-0.210,A30CGO77OY7WP0,3X2LT8FDIZY82IMGP2COH9T7SM78W0,3MHW492WW4TDU1M9JVMDP97BZURMVM,4,3
211,1,object_06,object_04,948.23999999976,1,1,543.49000000022,0.3333333333333333,1,object_02,1,3427,0,3,2,desert_2,1,memory-2step-stake-s,715,3183873,0.0-19.0-0.1-0.211,A30CGO77OY7WP0,3X2LT8FDIZY82IMGP2COH9T7SM78W0,3MHW492WW4TDU1M9JVMDP97BZURMVM,1,2
212,1,object_04,object_06,813.86500000022,1,2,597.77000000002,0.3333333333333333,1,object_02,1,3430,0,3,3,desert_2,1,memory-2step-stake-s,716,3192002,0.0-19.0-0.1-0.212,A30CGO77OY7WP0,3X2LT8FDIZY82IMGP2COH9T7SM78W0,3MHW492WW4TDU1M9JVMDP97BZURMVM,2,1
213,4,object_09,object_07,1406.9999999991,8,1,457.17999999924,0.0,2,object_01,5,3430,0,5,0,restaurant_2,1,memory-2step-stake-s,717,3199684,0.0-19.0-0.1-0.213,A30CGO77OY7WP0,3X2LT8FDIZY82IMGP2COH9T7SM78W0,3MHW492WW4TDU1M9JVMDP97BZURMVM,8,7
214,1,object_06,object_04,941.5150000006,2,2,1123.1750000007,0.2222222222222222,2,object_01,1,3432,0,8,2,desert_7,1,memory-2step-stake-s,718,3208232,0.0-19.0-0.1-0.214,A30CGO77OY7WP0,3X2LT8FDIZY82IMGP2COH9T7SM78W0,3MHW492WW4TDU1M9JVMDP97BZURMVM,1,2
215,1,object_04,object_06,1052.4900000002,1,2,401.96500000125,0.7777777777777778,1,object_02,1,3439,0,7,2,desert_2,1,memory-2step-stake-s,719,3216569,0.0-19.0-0.1-0.215,A30CGO77OY7WP0,3X2LT8FDIZY82IMGP2COH9T7SM78W0,3MHW492WW4TDU1M9JVMDP97BZURMVM,2,1
216,4,object_07,object_09,1006.4699999988,7,1,611.93499999912,0.8888888888888888,1,object_02,5,3479,0,8,5,restaurant_1,1,memory-2step-stake-s,720,3225217,0.0-19.0-0.1-0.216,A30CGO77OY7WP0,3X2LT8FDIZY82IMGP2COH9T7SM78W0,3MHW492WW4TDU1M9JVMDP97BZURMVM,7,8
217,2,object_08,object_10,1258.5250000013,3,1,549.43500000052,0.3333333333333333,1,object_02,5,3494,0,3,7,forest_4,1,memory-2step-stake-s,721,3233295,0.0-19.0-0.1-0.217,A30CGO77OY7WP0,3X2LT8FDIZY82IMGP2COH9T7SM78W0,3MHW492WW4TDU1M9JVMDP97BZURMVM,3,4
218,2,object_08,object_10,765.99499999965,3,1,407.63499999978,0.2222222222222222,1,object_02,1,3496,0,2,6,forest_3,1,memory-2step-stake-s,722,3241131,0.0-19.0-0.1-0.218,A30CGO77OY7WP0,3X2LT8FDIZY82IMGP2COH9T7SM78W0,3MHW492WW4TDU1M9JVMDP97BZURMVM,3,4
219,3,object_05,object_03,1467.1300000008,5,1,392.06999999983,0.0,1,object_02,5,3496,0,0,6,library_6,1,memory-2step-stake-s,723,3248746,0.0-19.0-0.1-0.219,A30CGO77OY7WP0,3X2LT8FDIZY82IMGP2COH9T7SM78W0,3MHW492WW4TDU1M9JVMDP97BZURMVM,5,6
220,3,object_05,object_03,-1.0,-1,-1,-1.0,0.0,-,0,5,3496,0,0,7,library_6,1,memory-2step-stake-s,724,3255262,0.0-19.0-0.1-0.220,A30CGO77OY7WP0,3X2LT8FDIZY82IMGP2COH9T7SM78W0,3MHW492WW4TDU1M9JVMDP97BZURMVM,5,6
221,3,object_03,object_05,611.35499999905,5,2,462.67000000086,0.4444444444444444,1,object_02,1,3500,0,4,4,library_1,1,memory-2step-stake-s,725,3263353,0.0-19.0-0.1-0.221,A30CGO77OY7WP0,3X2LT8FDIZY82IMGP2COH9T7SM78W0,3MHW492WW4TDU1M9JVMDP97BZURMVM,6,5
222,2,object_08,object_10,294.05500000017,3,1,471.8750000014,0.3333333333333333,1,object_02,1,3503,0,3,3,forest_4,1,memory-2step-stake-s,726,3271352,0.0-19.0-0.1-0.222,A30CGO77OY7WP0,3X2LT8FDIZY82IMGP2COH9T7SM78W0,3MHW492WW4TDU1M9JVMDP97BZURMVM,3,4
223,1,object_06,object_04,414.85499999905,1,1,439.1549999998,0.4444444444444444,1,object_02,1,3507,0,4,4,desert_2,1,memory-2step-stake-s,727,3279419,0.0-19.0-0.1-0.223,A30CGO77OY7WP0,3X2LT8FDIZY82IMGP2COH9T7SM78W0,3MHW492WW4TDU1M9JVMDP97BZURMVM,1,2
224,2,object_08,object_10,287.90999999922,3,1,425.7350000008,0.3333333333333333,1,object_02,1,3510,0,3,6,forest_1,1,memory-2step-stake-s,728,3287369,0.0-19.0-0.1-0.224,A30CGO77OY7WP0,3X2LT8FDIZY82IMGP2COH9T7SM78W0,3MHW492WW4TDU1M9JVMDP97BZURMVM,3,4
225,3,object_05,object_03,468.05000000121,6,2,438.11499999929,0.4444444444444444,2,object_01,1,3514,0,1,4,library_1,1,memory-2step-stake-s,729,3295435,0.0-19.0-0.1-0.225,A30CGO77OY7WP0,3X2LT8FDIZY82IMGP2COH9T7SM78W0,3MHW492WW4TDU1M9JVMDP97BZURMVM,5,6
226,3,object_05,object_03,240.06999999983,5,1,344.2350000008,0.2222222222222222,1,object_02,5,3524,0,2,4,library_4,1,memory-2step-stake-s,730,3303207,0.0-19.0-0.1-0.226,A30CGO77OY7WP0,3X2LT8FDIZY82IMGP2COH9T7SM78W0,3MHW492WW4TDU1M9JVMDP97BZURMVM,5,6
227,2,object_10,object_08,444.79500000132,3,2,527.73499999987,0.4444444444444444,1,object_02,1,3528,0,4,7,forest_2,1,memory-2step-stake-s,731,3311365,0.0-19.0-0.1-0.227,A30CGO77OY7WP0,3X2LT8FDIZY82IMGP2COH9T7SM78W0,3MHW492WW4TDU1M9JVMDP97BZURMVM,4,3
228,2,object_10,object_08,414.86500000069,4,1,600.72000000067,1.0,2,object_01,1,3537,0,4,9,forest_3,1,memory-2step-stake-s,732,3320101,0.0-19.0-0.1-0.228,A30CGO77OY7WP0,3X2LT8FDIZY82IMGP2COH9T7SM78W0,3MHW492WW4TDU1M9JVMDP97BZURMVM,4,3
229,2,object_10,object_08,398.69499999983,3,2,561.5,0.2222222222222222,1,object_02,1,3539,0,2,8,forest_3,1,memory-2step-stake-s,733,3328087,0.0-19.0-0.1-0.229,A30CGO77OY7WP0,3X2LT8FDIZY82IMGP2COH9T7SM78W0,3MHW492WW4TDU1M9JVMDP97BZURMVM,4,3
230,2,object_08,object_10,471.1500000013,4,2,1192.2999999989,0.5555555555555556,2,object_01,1,3544,0,1,5,forest_2,1,memory-2step-stake-s,734,3337019,0.0-19.0-0.1-0.230,A30CGO77OY7WP0,3X2LT8FDIZY82IMGP2COH9T7SM78W0,3MHW492WW4TDU1M9JVMDP97BZURMVM,3,4
231,4,object_07,object_09,279.06000000099,8,2,424.60999999987,0.8888888888888888,2,object_01,5,3584,0,1,8,restaurant_1,1,memory-2step-stake-s,735,3345479,0.0-19.0-0.1-0.231,A30CGO77OY7WP0,3X2LT8FDIZY82IMGP2COH9T7SM78W0,3MHW492WW4TDU1M9JVMDP97BZURMVM,7,8
232,1,object_04,object_06,334.2649999992,2,1,544.14500000002,1.0,2,object_01,1,3593,0,1,9,desert_2,1,memory-2step-stake-s,736,3354160,0.0-19.0-0.1-0.232,A30CGO77OY7WP0,3X2LT8FDIZY82IMGP2COH9T7SM78W0,3MHW492WW4TDU1M9JVMDP97BZURMVM,2,1
233,1,object_04,object_06,302.31500000088,1,2,496.17500000028,0.2222222222222222,1,object_02,5,3603,0,2,6,desert_7,1,memory-2step-stake-s,737,3362081,0.0-19.0-0.1-0.233,A30CGO77OY7WP0,3X2LT8FDIZY82IMGP2COH9T7SM78W0,3MHW492WW4TDU1M9JVMDP97BZURMVM,2,1
234,2,object_10,object_08,379.72500000056,4,1,-1.0,0.0,2,object_01,1,3603,0,3,7,forest_1,1,memory-2step-stake-s,738,3370604,0.0-19.0-0.1-0.234,A30CGO77OY7WP0,3X2LT8FDIZY82IMGP2COH9T7SM78W0,3MHW492WW4TDU1M9JVMDP97BZURMVM,4,3
235,3,object_05,object_03,289.93499999912,6,2,461.33999999985,1.0,2,object_01,5,3648,0,5,9,library_1,1,memory-2step-stake-s,739,3379204,0.0-19.0-0.1-0.235,A30CGO77OY7WP0,3X2LT8FDIZY82IMGP2COH9T7SM78W0,3MHW492WW4TDU1M9JVMDP97BZURMVM,5,6
236,3,object_05,object_03,399.43500000099,5,1,629.13500000117,0.8888888888888888,1,object_02,1,3656,0,8,8,library_4,1,memory-2step-stake-s,740,3387868,0.0-19.0-0.1-0.236,A30CGO77OY7WP0,3X2LT8FDIZY82IMGP2COH9T7SM78W0,3MHW492WW4TDU1M9JVMDP97BZURMVM,5,6
237,3,object_05,object_03,426.01000000071,6,2,532.86500000115,0.8888888888888888,2,object_01,1,3664,0,8,8,library_4,1,memory-2step-stake-s,741,3396444,0.0-19.0-0.1-0.237,A30CGO77OY7WP0,3X2LT8FDIZY82IMGP2COH9T7SM78W0,3MHW492WW4TDU1M9JVMDP97BZURMVM,5,6
238,4,object_07,object_09,386.43000000063,7,1,514.80499999877,1.0,1,object_02,5,3709,0,9,7,restaurant_8,1,memory-2step-stake-s,742,3405096,0.0-19.0-0.1-0.238,A30CGO77OY7WP0,3X2LT8FDIZY82IMGP2COH9T7SM78W0,3MHW492WW4TDU1M9JVMDP97BZURMVM,7,8
239,2,object_08,object_10,679.57500000019,4,2,598.80499999924,0.7777777777777778,2,object_01,1,3716,0,8,7,forest_2,1,memory-2step-stake-s,743,3413626,0.0-19.0-0.1-0.239,A30CGO77OY7WP0,3X2LT8FDIZY82IMGP2COH9T7SM78W0,3MHW492WW4TDU1M9JVMDP97BZURMVM,3,4
240,2,object_08,object_10,353.08999999892,4,2,-1.0,0.0,2,object_01,1,3716,0,8,8,forest_2,1,memory-2step-stake-s,744,3422149,0.0-19.0-0.1-0.240,A30CGO77OY7WP0,3X2LT8FDIZY82IMGP2COH9T7SM78W0,3MHW492WW4TDU1M9JVMDP97BZURMVM,3,4
241,4,object_07,object_09,262.23500000034,7,1,420.84000000078,0.7777777777777778,1,object_02,1,3723,0,7,6,restaurant_2,1,memory-2step-stake-s,745,3430509,0.0-19.0-0.1-0.241,A30CGO77OY7WP0,3X2LT8FDIZY82IMGP2COH9T7SM78W0,3MHW492WW4TDU1M9JVMDP97BZURMVM,7,8
242,4,object_09,object_07,461.34999999963,8,1,367.9000000013,0.3333333333333333,2,object_01,5,3738,0,6,3,restaurant_8,1,memory-2step-stake-s,746,3438405,0.0-19.0-0.1-0.242,A30CGO77OY7WP0,3X2LT8FDIZY82IMGP2COH9T7SM78W0,3MHW492WW4TDU1M9JVMDP97BZURMVM,8,7
243,4,object_09,object_07,385.64500000002,7,2,448.05999999866,0.8888888888888888,1,object_02,5,3778,0,8,3,restaurant_2,1,memory-2step-stake-s,747,3446889,0.0-19.0-0.1-0.243,A30CGO77OY7WP0,3X2LT8FDIZY82IMGP2COH9T7SM78W0,3MHW492WW4TDU1M9JVMDP97BZURMVM,8,7
244,2,object_10,object_08,447.35999999987,4,1,514.64999999898,0.3333333333333333,2,object_01,1,3781,0,6,3,forest_2,1,memory-2step-stake-s,748,3454939,0.0-19.0-0.1-0.244,A30CGO77OY7WP0,3X2LT8FDIZY82IMGP2COH9T7SM78W0,3MHW492WW4TDU1M9JVMDP97BZURMVM,4,3
245,2,object_08,object_10,279.82999999914,3,1,586.84999999963,0.6666666666666666,1,object_02,1,3787,0,6,0,forest_3,1,memory-2step-stake-s,749,3463359,0.0-19.0-0.1-0.245,A30CGO77OY7WP0,3X2LT8FDIZY82IMGP2COH9T7SM78W0,3MHW492WW4TDU1M9JVMDP97BZURMVM,3,4
246,2,object_10,object_08,420.85000000056,4,1,661.29000000004,0.0,2,object_01,1,3787,0,7,0,forest_2,1,memory-2step-stake-s,750,3471243,0.0-19.0-0.1-0.246,A30CGO77OY7WP0,3X2LT8FDIZY82IMGP2COH9T7SM78W0,3MHW492WW4TDU1M9JVMDP97BZURMVM,4,3
247,3,object_03,object_05,299.20500000101,5,2,423.0299999998,0.5555555555555556,1,object_02,5,3812,0,5,1,library_1,1,memory-2step-stake-s,751,3479396,0.0-19.0-0.1-0.247,A30CGO77OY7WP0,3X2LT8FDIZY82IMGP2COH9T7SM78W0,3MHW492WW4TDU1M9JVMDP97BZURMVM,6,5
248,1,object_06,object_04,780.16000000015,1,1,614.79499999946,0.3333333333333333,1,object_02,1,3815,0,3,4,desert_7,1,memory-2step-stake-s,752,3487535,0.0-19.0-0.1-0.248,A30CGO77OY7WP0,3X2LT8FDIZY82IMGP2COH9T7SM78W0,3MHW492WW4TDU1M9JVMDP97BZURMVM,1,2
249,1,object_04,object_06,670.2650000006,1,2,482.08999999985,0.2222222222222222,1,object_02,1,3817,0,2,2,desert_8,1,memory-2step-stake-s,753,3495447,0.0-19.0-0.1-0.249,A30CGO77OY7WP0,3X2LT8FDIZY82IMGP2COH9T7SM78W0,3MHW492WW4TDU1M9JVMDP97BZURMVM,2,1
250,1,object_06,object_04,898.57499999925,2,2,424.30500000017,0.2222222222222222,2,object_01,1,3819,0,3,2,desert_3,1,memory-2step-stake-s,754,3503300,0.0-19.0-0.1-0.250,A30CGO77OY7WP0,3X2LT8FDIZY82IMGP2COH9T7SM78W0,3MHW492WW4TDU1M9JVMDP97BZURMVM,1,2
251,1,object_06,object_04,1135.3599999999,2,2,397.6250000014,0.3333333333333333,2,object_01,1,3822,0,2,3,desert_3,1,memory-2step-stake-s,755,3511230,0.0-19.0-0.1-0.251,A30CGO77OY7WP0,3X2LT8FDIZY82IMGP2COH9T7SM78W0,3MHW492WW4TDU1M9JVMDP97BZURMVM,1,2
252,1,object_04,object_06,1008.3899999992,1,2,365.4450000017,0.1111111111111111,1,object_02,1,3823,0,1,7,desert_2,1,memory-2step-stake-s,756,3518923,0.0-19.0-0.1-0.252,A30CGO77OY7WP0,3X2LT8FDIZY82IMGP2COH9T7SM78W0,3MHW492WW4TDU1M9JVMDP97BZURMVM,2,1
253,2,object_08,object_10,898.25000000047,4,2,390.2350000008,0.8888888888888888,2,object_01,5,3863,0,2,8,forest_1,1,memory-2step-stake-s,757,3527348,0.0-19.0-0.1-0.253,A30CGO77OY7WP0,3X2LT8FDIZY82IMGP2COH9T7SM78W0,3MHW492WW4TDU1M9JVMDP97BZURMVM,3,4
254,2,object_10,object_08,827.38499999885,4,1,262.49500000058,1.0,2,object_01,5,3908,0,2,9,forest_1,1,memory-2step-stake-s,758,3535748,0.0-19.0-0.1-0.254,A30CGO77OY7WP0,3X2LT8FDIZY82IMGP2COH9T7SM78W0,3MHW492WW4TDU1M9JVMDP97BZURMVM,4,3
255,2,object_10,object_08,1229.5300000007,4,1,625.02499999898,1.0,2,object_01,5,3953,0,2,9,forest_1,1,memory-2step-stake-s,759,3544510,0.0-19.0-0.1-0.255,A30CGO77OY7WP0,3X2LT8FDIZY82IMGP2COH9T7SM78W0,3MHW492WW4TDU1M9JVMDP97BZURMVM,4,3
