,state1,stim_left,stim_right,rt_1,choice1,response1,rt_2,points,state2,stim_state2,stake,score,practice,rews1,rews2,background,high_arm,trial_type,trial_index,time_elapsed,internal_node_id,subid,hitid,assignmentid,stim_left_num,stim_right_num
0,2,object_08,object_09,751.0,3,2,429.0,0.1111111111111111,1,object_10,5,5,0,1,9,forest_6,2,memory-2step-stake-s,493,823619,0.0-19.0-0.0-0.0,A19FWZXTGX663T,3X52SWXE10LAELCT6ESTJVPQIDRWCT,37U1UTWH9Z26G53OGA7KJUHDUJQR8B,4,3
1,2,object_09,object_08,656.0,3,1,368.0,0.2222222222222222,1,object_10,5,15,0,2,4,forest_6,2,memory-2step-stake-s,494,831529,0.0-19.0-0.0-0.1,A19FWZXTGX663T,3X52SWXE10LAELCT6ESTJVPQIDRWCT,37U1UTWH9Z26G53OGA7KJUHDUJQR8B,3,4
2,2,object_08,object_09,9.0,4,1,340.0,0.1111111111111111,2,object_07,5,20,0,2,1,forest_4,2,memory-2step-stake-s,495,839240,0.0-19.0-0.0-0.2,A19FWZXTGX663T,3X52SWXE10LAELCT6ESTJVPQIDRWCT,37U1UTWH9Z26G53OGA7KJUHDUJQR8B,4,3
3,1,object_05,object_02,664.0,2,2,495.0,0.2222222222222222,2,object_07,5,30,0,2,2,desert_2,2,memory-2step-stake-s,496,847269,0.0-19.0-0.0-0.3,A19FWZXTGX663T,3X52SWXE10LAELCT6ESTJVPQIDRWCT,37U1UTWH9Z26G53OGA7KJUHDUJQR8B,1,2
4,1,object_05,object_02,713.0,1,1,375.0,0.4444444444444444,1,object_10,5,50,0,4,4,desert_1,2,memory-2step-stake-s,497,855399,0.0-19.0-0.0-0.4,A19FWZXTGX663T,3X52SWXE10LAELCT6ESTJVPQIDRWCT,37U1UTWH9Z26G53OGA7KJUHDUJQR8B,1,2
5,2,object_08,object_09,914.0,4,1,544.0,0.5555555555555556,2,object_07,5,75,0,7,5,forest_3,2,memory-2step-stake-s,498,863809,0.0-19.0-0.0-0.5,A19FWZXTGX663T,3X52SWXE10LAELCT6ESTJVPQIDRWCT,37U1UTWH9Z26G53OGA7KJUHDUJQR8B,4,3
6,1,object_02,object_05,364.0,1,2,257.0,0.3333333333333333,1,object_10,1,78,0,3,2,desert_3,2,memory-2step-stake-s,499,871741,0.0-19.0-0.0-0.6,A19FWZXTGX663T,3X52SWXE10LAELCT6ESTJVPQIDRWCT,37U1UTWH9Z26G53OGA7KJUHDUJQR8B,2,1
7,3,object_06,object_03,303.0,6,2,39.0,0.1111111111111111,2,object_07,5,83,0,4,1,library_7,2,memory-2step-stake-s,500,879230,0.0-19.0-0.0-0.7,A19FWZXTGX663T,3X52SWXE10LAELCT6ESTJVPQIDRWCT,37U1UTWH9Z26G53OGA7KJUHDUJQR8B,5,6
8,1,object_02,object_05,69.0,2,1,71.0,0.0,2,object_07,1,83,0,3,0,desert_1,2,memory-2step-stake-s,501,886571,0.0-19.0-0.0-0.8,A19FWZXTGX663T,3X52SWXE10LAELCT6ESTJVPQIDRWCT,37U1UTWH9Z26G53OGA7KJUHDUJQR8B,2,1
9,4,object_01,object_04,22.0,8,2,478.0,0.1111111111111111,2,object_07,1,84,0,7,1,restaurant_2,2,memory-2step-stake-s,502,894449,0.0-19.0-0.0-0.9,A19FWZXTGX663T,3X52SWXE10LAELCT6ESTJVPQIDRWCT,37U1UTWH9Z26G53OGA7KJUHDUJQR8B,7,8
10,2,object_08,object_09,736.0,3,2,364.0,0.2222222222222222,1,object_10,5,94,0,2,3,forest_4,2,memory-2step-stake-s,503,902369,0.0-19.0-0.0-0.10,A19FWZXTGX663T,3X52SWXE10LAELCT6ESTJVPQIDRWCT,37U1UTWH9Z26G53OGA7KJUHDUJQR8B,4,3
11,2,object_08,object_09,422.0,3,2,406.0,0.2222222222222222,1,object_10,5,104,0,2,6,forest_3,2,memory-2step-stake-s,504,910281,0.0-19.0-0.0-0.11,A19FWZXTGX663T,3X52SWXE10LAELCT6ESTJVPQIDRWCT,37U1UTWH9Z26G53OGA7KJUHDUJQR8B,4,3
12,4,object_04,object_01,621.0,8,1,571.0,0.5555555555555556,2,object_07,1,109,0,1,5,restaurant_1,2,memory-2step-stake-s,505,918709,0.0-19.0-0.0-0.12,A19FWZXTGX663T,3X52SWXE10LAELCT6ESTJVPQIDRWCT,37U1UTWH9Z26G53OGA7KJUHDUJQR8B,8,7
13,2,object_09,object_08,505.0,3,1,581.0,0.2222222222222222,1,object_10,1,111,0,2,8,forest_6,2,memory-2step-stake-s,506,926779,0.0-19.0-0.0-0.13,A19FWZXTGX663T,3X52SWXE10LAELCT6ESTJVPQIDRWCT,37U1UTWH9Z26G53OGA7KJUHDUJQR8B,3,4
14,2,object_09,object_08,409.0,4,2,595.0,0.8888888888888888,2,object_07,5,151,0,0,8,forest_4,2,memory-2step-stake-s,507,935503,0.0-19.0-0.0-0.14,A19FWZXTGX663T,3X52SWXE10LAELCT6ESTJVPQIDRWCT,37U1UTWH9Z26G53OGA7KJUHDUJQR8B,3,4
15,1,object_05,object_02,544.0,2,2,471.0,0.8888888888888888,2,object_07,1,159,0,3,8,desert_3,2,memory-2step-stake-s,508,944103,0.0-19.0-0.0-0.15,A19FWZXTGX663T,3X52SWXE10LAELCT6ESTJVPQIDRWCT,37U1UTWH9Z26G53OGA7KJUHDUJQR8B,1,2
16,2,object_09,object_08,676.0,4,2,472.0,0.7777777777777778,2,object_07,5,194,0,4,7,forest_6,2,memory-2step-stake-s,509,952612,0.0-19.0-0.0-0.16,A19FWZXTGX663T,3X52SWXE10LAELCT6ESTJVPQIDRWCT,37U1UTWH9Z26G53OGA7KJUHDUJQR8B,3,4
17,2,object_09,object_08,585.0,4,2,-1.0,0.0,2,object_07,1,194,0,4,8,forest_1,2,memory-2step-stake-s,510,961209,0.0-19.0-0.0-0.17,A19FWZXTGX663T,3X52SWXE10LAELCT6ESTJVPQIDRWCT,37U1UTWH9Z26G53OGA7KJUHDUJQR8B,3,4
18,2,object_09,object_08,550.0,4,2,70.0,1.0,2,object_07,5,239,0,3,9,forest_1,2,memory-2step-stake-s,511,969620,0.0-19.0-0.0-0.18,A19FWZXTGX663T,3X52SWXE10LAELCT6ESTJVPQIDRWCT,37U1UTWH9Z26G53OGA7KJUHDUJQR8B,3,4
19,3,object_03,object_06,528.0,6,1,529.0,0.8888888888888888,2,object_07,1,247,0,4,8,library_5,2,memory-2step-stake-s,512,978380,0.0-19.0-0.0-0.19,A19FWZXTGX663T,3X52SWXE10LAELCT6ESTJVPQIDRWCT,37U1UTWH9Z26G53OGA7KJUHDUJQR8B,6,5
20,2,object_09,object_08,667.0,4,2,446.0,0.4444444444444444,2,object_07,5,267,0,4,4,forest_3,2,memory-2step-stake-s,513,986630,0.0-19.0-0.0-0.20,A19FWZXTGX663T,3X52SWXE10LAELCT6ESTJVPQIDRWCT,37U1UTWH9Z26G53OGA7KJUHDUJQR8B,3,4
21,3,object_06,object_03,486.0,5,1,689.0,1.0,1,object_10,5,312,0,9,6,library_1,2,memory-2step-stake-s,514,995680,0.0-19.0-0.0-0.21,A19FWZXTGX663T,3X52SWXE10LAELCT6ESTJVPQIDRWCT,37U1UTWH9Z26G53OGA7KJUHDUJQR8B,5,6
22,3,object_03,object_06,536.0,6,1,373.0,0.6666666666666666,2,object_07,5,342,0,7,6,library_7,2,memory-2step-stake-s,515,1004050,0.0-19.0-0.0-0.22,A19FWZXTGX663T,3X52SWXE10LAELCT6ESTJVPQIDRWCT,37U1UTWH9Z26G53OGA7KJUHDUJQR8B,6,5
23,1,object_02,object_05,935.0,1,2,553.0,0.8888888888888888,1,object_10,5,382,0,8,8,desert_3,2,memory-2step-stake-s,516,1012738,0.0-19.0-0.0-0.23,A19FWZXTGX663T,3X52SWXE10LAELCT6ESTJVPQIDRWCT,37U1UTWH9Z26G53OGA7KJUHDUJQR8B,2,1
24,3,object_03,object_06,757.0,5,2,487.0,0.8888888888888888,1,object_10,1,390,0,8,6,library_8,2,memory-2step-stake-s,517,1021363,0.0-19.0-0.0-0.24,A19FWZXTGX663T,3X52SWXE10LAELCT6ESTJVPQIDRWCT,37U1UTWH9Z26G53OGA7KJUHDUJQR8B,6,5
25,3,object_03,object_06,369.0,5,2,222.0,1.0,1,object_10,5,435,0,9,8,library_8,2,memory-2step-stake-s,518,1029823,0.0-19.0-0.0-0.25,A19FWZXTGX663T,3X52SWXE10LAELCT6ESTJVPQIDRWCT,37U1UTWH9Z26G53OGA7KJUHDUJQR8B,6,5
26,3,object_06,object_03,76.0,6,2,277.0,0.8888888888888888,2,object_07,5,475,0,8,8,library_8,2,memory-2step-stake-s,519,1038238,0.0-19.0-0.0-0.26,A19FWZXTGX663T,3X52SWXE10LAELCT6ESTJVPQIDRWCT,37U1UTWH9Z26G53OGA7KJUHDUJQR8B,5,6
27,2,object_09,object_08,471.0,3,1,370.0,0.8888888888888888,1,object_10,1,483,0,8,7,forest_1,2,memory-2step-stake-s,520,1046830,0.0-19.0-0.0-0.27,A19FWZXTGX663T,3X52SWXE10LAELCT6ESTJVPQIDRWCT,37U1UTWH9Z26G53OGA7KJUHDUJQR8B,3,4
28,4,object_01,object_04,791.0,8,2,458.0,1.0,2,object_07,1,492,0,7,9,restaurant_1,2,memory-2step-stake-s,521,1055559,0.0-19.0-0.0-0.28,A19FWZXTGX663T,3X52SWXE10LAELCT6ESTJVPQIDRWCT,37U1UTWH9Z26G53OGA7KJUHDUJQR8B,7,8
29,2,object_09,object_08,667.0,4,2,328.0,0.7777777777777778,2,object_07,5,527,0,8,7,forest_1,2,memory-2step-stake-s,522,1064030,0.0-19.0-0.0-0.29,A19FWZXTGX663T,3X52SWXE10LAELCT6ESTJVPQIDRWCT,37U1UTWH9Z26G53OGA7KJUHDUJQR8B,3,4
30,1,object_02,object_05,761.0,2,1,630.0,0.8888888888888888,2,object_07,5,567,0,9,8,desert_7,2,memory-2step-stake-s,523,1072879,0.0-19.0-0.0-0.30,A19FWZXTGX663T,3X52SWXE10LAELCT6ESTJVPQIDRWCT,37U1UTWH9Z26G53OGA7KJUHDUJQR8B,2,1
31,3,object_06,object_03,699.0,6,2,704.0,0.8888888888888888,2,object_07,1,575,0,7,8,library_8,2,memory-2step-stake-s,524,1081799,0.0-19.0-0.0-0.31,A19FWZXTGX663T,3X52SWXE10LAELCT6ESTJVPQIDRWCT,37U1UTWH9Z26G53OGA7KJUHDUJQR8B,5,6
32,4,object_04,object_01,1088.0,8,1,427.0,0.8888888888888888,2,object_07,1,583,0,8,8,restaurant_8,2,memory-2step-stake-s,525,1090419,0.0-19.0-0.0-0.32,A19FWZXTGX663T,3X52SWXE10LAELCT6ESTJVPQIDRWCT,37U1UTWH9Z26G53OGA7KJUHDUJQR8B,8,7
33,4,object_01,object_04,603.0,8,2,607.0,0.7777777777777778,2,object_07,5,618,0,3,7,restaurant_1,2,memory-2step-stake-s,526,1099080,0.0-19.0-0.0-0.33,A19FWZXTGX663T,3X52SWXE10LAELCT6ESTJVPQIDRWCT,37U1UTWH9Z26G53OGA7KJUHDUJQR8B,7,8
34,4,object_01,object_04,495.0,7,1,299.0,0.3333333333333333,1,object_10,1,621,0,3,7,restaurant_2,2,memory-2step-stake-s,527,1107010,0.0-19.0-0.0-0.34,A19FWZXTGX663T,3X52SWXE10LAELCT6ESTJVPQIDRWCT,37U1UTWH9Z26G53OGA7KJUHDUJQR8B,7,8
35,3,object_06,object_03,737.0,6,2,522.0,0.8888888888888888,2,object_07,1,629,0,1,8,library_7,2,memory-2step-stake-s,528,1115760,0.0-19.0-0.0-0.35,A19FWZXTGX663T,3X52SWXE10LAELCT6ESTJVPQIDRWCT,37U1UTWH9Z26G53OGA7KJUHDUJQR8B,5,6
36,3,object_06,object_03,578.0,6,2,176.0,1.0,2,object_07,1,638,0,0,9,library_1,2,memory-2step-stake-s,529,1124239,0.0-19.0-0.0-0.36,A19FWZXTGX663T,3X52SWXE10LAELCT6ESTJVPQIDRWCT,37U1UTWH9Z26G53OGA7KJUHDUJQR8B,5,6
37,1,object_02,object_05,757.0,1,2,290.0,0.1111111111111111,1,object_10,5,643,0,1,7,desert_7,2,memory-2step-stake-s,530,1131949,0.0-19.0-0.0-0.37,A19FWZXTGX663T,3X52SWXE10LAELCT6ESTJVPQIDRWCT,37U1UTWH9Z26G53OGA7KJUHDUJQR8B,2,1
38,1,object_05,object_02,593.0,2,2,187.0,0.7777777777777778,2,object_07,5,678,0,1,7,desert_2,2,memory-2step-stake-s,531,1140250,0.0-19.0-0.0-0.38,A19FWZXTGX663T,3X52SWXE10LAELCT6ESTJVPQIDRWCT,37U1UTWH9Z26G53OGA7KJUHDUJQR8B,1,2
39,1,object_02,object_05,401.0,1,2,169.0,0.1111111111111111,1,object_10,5,683,0,1,5,desert_3,2,memory-2step-stake-s,532,1147810,0.0-19.0-0.0-0.39,A19FWZXTGX663T,3X52SWXE10LAELCT6ESTJVPQIDRWCT,37U1UTWH9Z26G53OGA7KJUHDUJQR8B,2,1
40,2,object_08,object_09,1475.0,4,1,204.0,0.4444444444444444,2,object_07,5,703,0,2,4,forest_3,2,memory-2step-stake-s,533,1155769,0.0-19.0-0.0-0.40,A19FWZXTGX663T,3X52SWXE10LAELCT6ESTJVPQIDRWCT,37U1UTWH9Z26G53OGA7KJUHDUJQR8B,4,3
41,4,object_01,object_04,588.0,8,2,114.0,0.4444444444444444,2,object_07,1,707,0,2,4,restaurant_3,2,memory-2step-stake-s,534,1163629,0.0-19.0-0.0-0.41,A19FWZXTGX663T,3X52SWXE10LAELCT6ESTJVPQIDRWCT,37U1UTWH9Z26G53OGA7KJUHDUJQR8B,7,8
42,2,object_08,object_09,1322.0,3,2,262.0,0.3333333333333333,1,object_10,5,722,0,3,2,forest_6,2,memory-2step-stake-s,535,1171479,0.0-19.0-0.0-0.42,A19FWZXTGX663T,3X52SWXE10LAELCT6ESTJVPQIDRWCT,37U1UTWH9Z26G53OGA7KJUHDUJQR8B,4,3
43,4,object_04,object_01,729.0,7,2,510.0,0.4444444444444444,1,object_10,1,726,0,4,0,restaurant_8,2,memory-2step-stake-s,536,1179749,0.0-19.0-0.0-0.43,A19FWZXTGX663T,3X52SWXE10LAELCT6ESTJVPQIDRWCT,37U1UTWH9Z26G53OGA7KJUHDUJQR8B,8,7
44,1,object_02,object_05,1038.0,2,1,304.0,0.4444444444444444,2,object_07,5,746,0,6,4,desert_1,2,memory-2step-stake-s,537,1187768,0.0-19.0-0.0-0.44,A19FWZXTGX663T,3X52SWXE10LAELCT6ESTJVPQIDRWCT,37U1UTWH9Z26G53OGA7KJUHDUJQR8B,2,1
45,3,object_03,object_06,569.0,5,2,458.0,0.4444444444444444,1,object_10,1,750,0,4,5,library_5,2,memory-2step-stake-s,538,1195909,0.0-19.0-0.0-0.45,A19FWZXTGX663T,3X52SWXE10LAELCT6ESTJVPQIDRWCT,37U1UTWH9Z26G53OGA7KJUHDUJQR8B,6,5
46,4,object_04,object_01,900.0,7,2,295.0,0.3333333333333333,1,object_10,1,753,0,3,4,restaurant_8,2,memory-2step-stake-s,539,1203808,0.0-19.0-0.0-0.46,A19FWZXTGX663T,3X52SWXE10LAELCT6ESTJVPQIDRWCT,37U1UTWH9Z26G53OGA7KJUHDUJQR8B,8,7
47,2,object_08,object_09,614.0,4,1,439.0,0.2222222222222222,2,object_07,5,763,0,1,2,forest_6,2,memory-2step-stake-s,540,1211718,0.0-19.0-0.0-0.47,A19FWZXTGX663T,3X52SWXE10LAELCT6ESTJVPQIDRWCT,37U1UTWH9Z26G53OGA7KJUHDUJQR8B,4,3
48,4,object_01,object_04,385.0,8,2,510.0,0.0,2,object_07,1,763,0,0,0,restaurant_8,2,memory-2step-stake-s,541,1219493,0.0-19.0-0.0-0.48,A19FWZXTGX663T,3X52SWXE10LAELCT6ESTJVPQIDRWCT,37U1UTWH9Z26G53OGA7KJUHDUJQR8B,7,8
49,3,object_03,object_06,658.0,6,1,464.0,0.1111111111111111,2,object_07,1,764,0,3,1,library_8,2,memory-2step-stake-s,542,1227323,0.0-19.0-0.0-0.49,A19FWZXTGX663T,3X52SWXE10LAELCT6ESTJVPQIDRWCT,37U1UTWH9Z26G53OGA7KJUHDUJQR8B,6,5
50,1,object_02,object_05,1057.0,2,1,510.0,0.0,2,object_07,5,764,0,0,0,desert_2,2,memory-2step-stake-s,543,1235139,0.0-19.0-0.0-0.50,A19FWZXTGX663T,3X52SWXE10LAELCT6ESTJVPQIDRWCT,37U1UTWH9Z26G53OGA7KJUHDUJQR8B,2,1
51,1,object_05,object_02,1234.0,2,2,533.0,0.0,2,object_07,5,764,0,1,0,desert_7,2,memory-2step-stake-s,544,1242958,0.0-19.0-0.0-0.51,A19FWZXTGX663T,3X52SWXE10LAELCT6ESTJVPQIDRWCT,37U1UTWH9Z26G53OGA7KJUHDUJQR8B,1,2
52,3,object_03,object_06,912.0,5,2,509.0,0.2222222222222222,1,object_10,5,774,0,2,0,library_5,2,memory-2step-stake-s,545,1250950,0.0-19.0-0.0-0.52,A19FWZXTGX663T,3X52SWXE10LAELCT6ESTJVPQIDRWCT,37U1UTWH9Z26G53OGA7KJUHDUJQR8B,6,5
53,1,object_02,object_05,722.0,2,1,363.0,0.1111111111111111,2,object_07,5,779,0,2,1,desert_1,2,memory-2step-stake-s,546,1258724,0.0-19.0-0.0-0.53,A19FWZXTGX663T,3X52SWXE10LAELCT6ESTJVPQIDRWCT,37U1UTWH9Z26G53OGA7KJUHDUJQR8B,2,1
54,3,object_03,object_06,1062.0,5,2,553.0,0.3333333333333333,1,object_10,1,782,0,3,3,library_7,2,memory-2step-stake-s,547,1266940,0.0-19.0-0.0-0.54,A19FWZXTGX663T,3X52SWXE10LAELCT6ESTJVPQIDRWCT,37U1UTWH9Z26G53OGA7KJUHDUJQR8B,6,5
55,3,object_03,object_06,432.0,5,2,171.0,0.1111111111111111,1,object_10,1,783,0,1,4,library_8,2,memory-2step-stake-s,548,1274519,0.0-19.0-0.0-0.55,A19FWZXTGX663T,3X52SWXE10LAELCT6ESTJVPQIDRWCT,37U1UTWH9Z26G53OGA7KJUHDUJQR8B,6,5
56,2,object_09,object_08,1222.0,4,2,77.0,0.2222222222222222,2,object_07,5,793,0,2,2,forest_6,2,memory-2step-stake-s,549,1282069,0.0-19.0-0.0-0.56,A19FWZXTGX663T,3X52SWXE10LAELCT6ESTJVPQIDRWCT,37U1UTWH9Z26G53OGA7KJUHDUJQR8B,3,4
57,3,object_03,object_06,1249.0,5,2,166.0,0.1111111111111111,1,object_10,1,794,0,1,3,library_1,2,memory-2step-stake-s,550,1289649,0.0-19.0-0.0-0.57,A19FWZXTGX663T,3X52SWXE10LAELCT6ESTJVPQIDRWCT,37U1UTWH9Z26G53OGA7KJUHDUJQR8B,6,5
58,2,object_09,object_08,745.0,4,2,262.0,0.1111111111111111,2,object_07,5,799,0,3,1,forest_1,2,memory-2step-stake-s,551,1297319,0.0-19.0-0.0-0.58,A19FWZXTGX663T,3X52SWXE10LAELCT6ESTJVPQIDRWCT,37U1UTWH9Z26G53OGA7KJUHDUJQR8B,3,4
59,2,object_08,object_09,1178.0,3,2,332.0,0.4444444444444444,1,object_10,5,819,0,4,1,forest_4,2,memory-2step-stake-s,552,1305429,0.0-19.0-0.0-0.59,A19FWZXTGX663T,3X52SWXE10LAELCT6ESTJVPQIDRWCT,37U1UTWH9Z26G53OGA7KJUHDUJQR8B,4,3
60,4,object_01,object_04,949.0,8,2,363.0,0.1111111111111111,2,object_07,1,820,0,9,1,restaurant_8,2,memory-2step-stake-s,553,1313259,0.0-19.0-0.0-0.60,A19FWZXTGX663T,3X52SWXE10LAELCT6ESTJVPQIDRWCT,37U1UTWH9Z26G53OGA7KJUHDUJQR8B,7,8
61,4,object_04,object_01,623.0,7,2,13.0,0.8888888888888888,1,object_10,1,828,0,8,1,restaurant_1,2,memory-2step-stake-s,554,1321500,0.0-19.0-0.0-0.61,A19FWZXTGX663T,3X52SWXE10LAELCT6ESTJVPQIDRWCT,37U1UTWH9Z26G53OGA7KJUHDUJQR8B,8,7
62,1,object_02,object_05,1061.0,1,2,558.0,0.8888888888888888,1,object_10,1,836,0,8,2,desert_2,2,memory-2step-stake-s,555,1330320,0.0-19.0-0.0-0.62,A19FWZXTGX663T,3X52SWXE10LAELCT6ESTJVPQIDRWCT,37U1UTWH9Z26G53OGA7KJUHDUJQR8B,2,1
63,3,object_06,object_03,1236.0,5,1,415.0,0.8888888888888888,1,object_10,1,844,0,8,2,library_7,2,memory-2step-stake-s,556,1338950,0.0-19.0-0.0-0.63,A19FWZXTGX663T,3X52SWXE10LAELCT6ESTJVPQIDRWCT,37U1UTWH9Z26G53OGA7KJUHDUJQR8B,5,6
64,1,object_05,object_02,1427.0,2,2,452.0,0.2222222222222222,2,object_07,5,854,0,5,2,desert_2,2,memory-2step-stake-s,557,1346940,0.0-19.0-0.0-0.64,A19FWZXTGX663T,3X52SWXE10LAELCT6ESTJVPQIDRWCT,37U1UTWH9Z26G53OGA7KJUHDUJQR8B,1,2
65,1,object_02,object_05,514.0,1,2,25.0,0.7777777777777778,1,object_10,5,889,0,7,4,desert_3,2,memory-2step-stake-s,558,1355099,0.0-19.0-0.0-0.65,A19FWZXTGX663T,3X52SWXE10LAELCT6ESTJVPQIDRWCT,37U1UTWH9Z26G53OGA7KJUHDUJQR8B,2,1
66,3,object_03,object_06,1207.0,5,2,210.0,0.3333333333333333,1,object_10,1,892,0,3,3,library_5,2,memory-2step-stake-s,559,1362970,0.0-19.0-0.0-0.66,A19FWZXTGX663T,3X52SWXE10LAELCT6ESTJVPQIDRWCT,37U1UTWH9Z26G53OGA7KJUHDUJQR8B,6,5
67,1,object_02,object_05,707.0,1,2,47.0,0.2222222222222222,1,object_10,5,902,0,2,4,desert_2,2,memory-2step-stake-s,560,1370551,0.0-19.0-0.0-0.67,A19FWZXTGX663T,3X52SWXE10LAELCT6ESTJVPQIDRWCT,37U1UTWH9Z26G53OGA7KJUHDUJQR8B,2,1
68,3,object_06,object_03,411.0,5,1,315.0,0.1111111111111111,1,object_10,1,903,0,1,3,library_5,2,memory-2step-stake-s,561,1378290,0.0-19.0-0.0-0.68,A19FWZXTGX663T,3X52SWXE10LAELCT6ESTJVPQIDRWCT,37U1UTWH9Z26G53OGA7KJUHDUJQR8B,5,6
69,2,object_08,object_09,1335.0,3,2,435.0,0.3333333333333333,1,object_10,5,918,0,3,2,forest_4,2,memory-2step-stake-s,562,1386389,0.0-19.0-0.0-0.69,A19FWZXTGX663T,3X52SWXE10LAELCT6ESTJVPQIDRWCT,37U1UTWH9Z26G53OGA7KJUHDUJQR8B,4,3
70,1,object_05,object_02,1173.0,2,2,283.0,0.3333333333333333,2,object_07,5,933,0,3,3,desert_2,2,memory-2step-stake-s,563,1394339,0.0-19.0-0.0-0.70,A19FWZXTGX663T,3X52SWXE10LAELCT6ESTJVPQIDRWCT,37U1UTWH9Z26G53OGA7KJUHDUJQR8B,1,2
71,2,object_09,object_08,942.0,3,1,324.0,0.3333333333333333,1,object_10,5,948,0,3,2,forest_1,2,memory-2step-stake-s,564,1402301,0.0-19.0-0.0-0.71,A19FWZXTGX663T,3X52SWXE10LAELCT6ESTJVPQIDRWCT,37U1UTWH9Z26G53OGA7KJUHDUJQR8B,3,4
72,1,object_02,object_05,334.0,1,2,1445.0,0.4444444444444444,1,object_10,1,952,0,4,2,desert_7,2,memory-2step-stake-s,565,1411459,0.0-19.0-0.0-0.72,A19FWZXTGX663T,3X52SWXE10LAELCT6ESTJVPQIDRWCT,37U1UTWH9Z26G53OGA7KJUHDUJQR8B,2,1
73,4,object_04,object_01,714.0,8,1,586.0,0.3333333333333333,2,object_07,1,955,0,1,3,restaurant_3,2,memory-2step-stake-s,566,1419653,0.0-19.0-0.0-0.73,A19FWZXTGX663T,3X52SWXE10LAELCT6ESTJVPQIDRWCT,37U1UTWH9Z26G53OGA7KJUHDUJQR8B,8,7
74,4,object_04,object_01,574.0,8,1,749.0,0.4444444444444444,2,object_07,1,959,0,1,4,restaurant_3,2,memory-2step-stake-s,567,1428100,0.0-19.0-0.0-0.74,A19FWZXTGX663T,3X52SWXE10LAELCT6ESTJVPQIDRWCT,37U1UTWH9Z26G53OGA7KJUHDUJQR8B,8,7
75,3,object_03,object_06,878.0,5,2,305.0,0.0,1,object_10,5,959,0,0,5,library_1,2,memory-2step-stake-s,568,1435681,0.0-19.0-0.0-0.75,A19FWZXTGX663T,3X52SWXE10LAELCT6ESTJVPQIDRWCT,37U1UTWH9Z26G53OGA7KJUHDUJQR8B,6,5
76,2,object_09,object_08,734.0,3,1,433.0,0.2222222222222222,1,object_10,1,961,0,2,8,forest_4,2,memory-2step-stake-s,569,1443619,0.0-19.0-0.0-0.76,A19FWZXTGX663T,3X52SWXE10LAELCT6ESTJVPQIDRWCT,37U1UTWH9Z26G53OGA7KJUHDUJQR8B,3,4
77,4,object_01,object_04,582.0,8,2,617.0,0.8888888888888888,2,object_07,1,969,0,3,8,restaurant_3,2,memory-2step-stake-s,570,1452469,0.0-19.0-0.0-0.77,A19FWZXTGX663T,3X52SWXE10LAELCT6ESTJVPQIDRWCT,37U1UTWH9Z26G53OGA7KJUHDUJQR8B,7,8
78,4,object_01,object_04,652.0,8,2,150.0,0.7777777777777778,2,object_07,1,976,0,3,7,restaurant_8,2,memory-2step-stake-s,571,1460639,0.0-19.0-0.0-0.78,A19FWZXTGX663T,3X52SWXE10LAELCT6ESTJVPQIDRWCT,37U1UTWH9Z26G53OGA7KJUHDUJQR8B,7,8
79,4,object_04,object_01,624.0,8,1,112.0,0.8888888888888888,2,object_07,1,984,0,4,8,restaurant_3,2,memory-2step-stake-s,572,1468968,0.0-19.0-0.0-0.79,A19FWZXTGX663T,3X52SWXE10LAELCT6ESTJVPQIDRWCT,37U1UTWH9Z26G53OGA7KJUHDUJQR8B,8,7
80,4,object_01,object_04,678.0,8,2,149.0,0.6666666666666666,2,object_07,1,990,0,2,6,restaurant_2,2,memory-2step-stake-s,573,1477100,0.0-19.0-0.0-0.80,A19FWZXTGX663T,3X52SWXE10LAELCT6ESTJVPQIDRWCT,37U1UTWH9Z26G53OGA7KJUHDUJQR8B,7,8
81,3,object_03,object_06,624.0,5,2,309.0,0.6666666666666666,1,object_10,1,996,0,6,5,library_7,2,memory-2step-stake-s,574,1485327,0.0-19.0-0.0-0.81,A19FWZXTGX663T,3X52SWXE10LAELCT6ESTJVPQIDRWCT,37U1UTWH9Z26G53OGA7KJUHDUJQR8B,6,5
82,4,object_04,object_01,572.0,8,1,65.0,0.8888888888888888,2,object_07,1,1004,0,7,8,restaurant_8,2,memory-2step-stake-s,575,1493499,0.0-19.0-0.0-0.82,A19FWZXTGX663T,3X52SWXE10LAELCT6ESTJVPQIDRWCT,37U1UTWH9Z26G53OGA7KJUHDUJQR8B,8,7
83,2,object_09,object_08,916.0,4,2,241.0,0.8888888888888888,2,object_07,5,1044,0,7,8,forest_6,2,memory-2step-stake-s,576,1501900,0.0-19.0-0.0-0.83,A19FWZXTGX663T,3X52SWXE10LAELCT6ESTJVPQIDRWCT,37U1UTWH9Z26G53OGA7KJUHDUJQR8B,3,4
84,1,object_05,object_02,727.0,1,1,489.0,0.4444444444444444,1,object_10,5,1064,0,4,9,desert_2,2,memory-2step-stake-s,577,1510139,0.0-19.0-0.0-0.84,A19FWZXTGX663T,3X52SWXE10LAELCT6ESTJVPQIDRWCT,37U1UTWH9Z26G53OGA7KJUHDUJQR8B,1,2
85,4,object_04,object_01,706.0,8,1,81.0,0.6666666666666666,2,object_07,1,1070,0,4,6,restaurant_1,2,memory-2step-stake-s,578,1518219,0.0-19.0-0.0-0.85,A19FWZXTGX663T,3X52SWXE10LAELCT6ESTJVPQIDRWCT,37U1UTWH9Z26G53OGA7KJUHDUJQR8B,8,7
86,1,object_02,object_05,-1.0,-1,-1,-1.0,0.0,-,0,5,1070,0,6,2,desert_7,2,memory-2step-stake-s,579,1524815,0.0-19.0-0.0-0.86,A19FWZXTGX663T,3X52SWXE10LAELCT6ESTJVPQIDRWCT,37U1UTWH9Z26G53OGA7KJUHDUJQR8B,2,1
87,1,object_05,object_02,408.0,2,2,30.0,0.1111111111111111,2,object_07,5,1075,0,4,1,desert_7,2,memory-2step-stake-s,580,1532209,0.0-19.0-0.0-0.87,A19FWZXTGX663T,3X52SWXE10LAELCT6ESTJVPQIDRWCT,37U1UTWH9Z26G53OGA7KJUHDUJQR8B,1,2
88,3,object_06,object_03,551.0,5,1,152.0,0.4444444444444444,1,object_10,1,1079,0,4,0,library_5,2,memory-2step-stake-s,581,1540062,0.0-19.0-0.0-0.88,A19FWZXTGX663T,3X52SWXE10LAELCT6ESTJVPQIDRWCT,37U1UTWH9Z26G53OGA7KJUHDUJQR8B,5,6
89,4,object_04,object_01,527.0,7,2,235.0,0.2222222222222222,1,object_10,5,1089,0,2,2,restaurant_1,2,memory-2step-stake-s,582,1547794,0.0-19.0-0.0-0.89,A19FWZXTGX663T,3X52SWXE10LAELCT6ESTJVPQIDRWCT,37U1UTWH9Z26G53OGA7KJUHDUJQR8B,8,7
90,2,object_08,object_09,756.0,4,1,145.0,0.2222222222222222,2,object_07,5,1099,0,1,2,forest_6,2,memory-2step-stake-s,583,1555489,0.0-19.0-0.0-0.90,A19FWZXTGX663T,3X52SWXE10LAELCT6ESTJVPQIDRWCT,37U1UTWH9Z26G53OGA7KJUHDUJQR8B,4,3
91,2,object_09,object_08,569.0,4,2,195.0,0.1111111111111111,2,object_07,5,1104,0,2,1,forest_6,2,memory-2step-stake-s,584,1563090,0.0-19.0-0.0-0.91,A19FWZXTGX663T,3X52SWXE10LAELCT6ESTJVPQIDRWCT,37U1UTWH9Z26G53OGA7KJUHDUJQR8B,3,4
92,2,object_09,object_08,431.0,3,1,9.0,0.2222222222222222,1,object_10,5,1114,0,2,0,forest_3,2,memory-2step-stake-s,585,1570630,0.0-19.0-0.0-0.92,A19FWZXTGX663T,3X52SWXE10LAELCT6ESTJVPQIDRWCT,37U1UTWH9Z26G53OGA7KJUHDUJQR8B,3,4
93,4,object_01,object_04,209.0,7,1,31.0,0.3333333333333333,1,object_10,1,1117,0,3,3,restaurant_2,2,memory-2step-stake-s,586,1578260,0.0-19.0-0.0-0.93,A19FWZXTGX663T,3X52SWXE10LAELCT6ESTJVPQIDRWCT,37U1UTWH9Z26G53OGA7KJUHDUJQR8B,7,8
94,4,object_04,object_01,294.0,7,2,180.0,0.3333333333333333,1,object_10,1,1120,0,3,5,restaurant_8,2,memory-2step-stake-s,587,1586019,0.0-19.0-0.0-0.94,A19FWZXTGX663T,3X52SWXE10LAELCT6ESTJVPQIDRWCT,37U1UTWH9Z26G53OGA7KJUHDUJQR8B,8,7
95,4,object_01,object_04,777.0,7,1,58.0,0.1111111111111111,1,object_10,5,1125,0,1,2,restaurant_1,2,memory-2step-stake-s,588,1593519,0.0-19.0-0.0-0.95,A19FWZXTGX663T,3X52SWXE10LAELCT6ESTJVPQIDRWCT,37U1UTWH9Z26G53OGA7KJUHDUJQR8B,7,8
96,3,object_06,object_03,395.0,6,2,269.0,0.2222222222222222,2,object_07,1,1127,0,1,2,library_1,2,memory-2step-stake-s,589,1601339,0.0-19.0-0.0-0.96,A19FWZXTGX663T,3X52SWXE10LAELCT6ESTJVPQIDRWCT,37U1UTWH9Z26G53OGA7KJUHDUJQR8B,5,6
97,2,object_09,object_08,744.0,3,1,293.0,0.2222222222222222,1,object_10,5,1137,0,2,1,forest_6,2,memory-2step-stake-s,590,1609140,0.0-19.0-0.0-0.97,A19FWZXTGX663T,3X52SWXE10LAELCT6ESTJVPQIDRWCT,37U1UTWH9Z26G53OGA7KJUHDUJQR8B,3,4
98,1,object_02,object_05,662.0,1,2,313.0,0.3333333333333333,1,object_10,5,1152,0,3,0,desert_7,2,memory-2step-stake-s,591,1617079,0.0-19.0-0.0-0.98,A19FWZXTGX663T,3X52SWXE10LAELCT6ESTJVPQIDRWCT,37U1UTWH9Z26G53OGA7KJUHDUJQR8B,2,1
99,4,object_04,object_01,754.0,7,2,264.0,0.1111111111111111,1,object_10,1,1153,0,1,3,restaurant_2,2,memory-2step-stake-s,592,1624699,0.0-19.0-0.0-0.99,A19FWZXTGX663T,3X52SWXE10LAELCT6ESTJVPQIDRWCT,37U1UTWH9Z26G53OGA7KJUHDUJQR8B,8,7
100,4,object_04,object_01,833.0,8,1,228.0,0.5555555555555556,2,object_07,5,1178,0,1,5,restaurant_3,2,memory-2step-stake-s,593,1632792,0.0-19.0-0.0-0.100,A19FWZXTGX663T,3X52SWXE10LAELCT6ESTJVPQIDRWCT,37U1UTWH9Z26G53OGA7KJUHDUJQR8B,8,7
101,1,object_05,object_02,808.0,2,2,23.0,0.5555555555555556,2,object_07,5,1203,0,2,5,desert_1,2,memory-2step-stake-s,594,1640690,0.0-19.0-0.0-0.101,A19FWZXTGX663T,3X52SWXE10LAELCT6ESTJVPQIDRWCT,37U1UTWH9Z26G53OGA7KJUHDUJQR8B,1,2
102,3,object_06,object_03,1044.0,6,2,89.0,0.3333333333333333,2,object_07,1,1206,0,5,3,library_7,2,memory-2step-stake-s,595,1648380,0.0-19.0-0.0-0.102,A19FWZXTGX663T,3X52SWXE10LAELCT6ESTJVPQIDRWCT,37U1UTWH9Z26G53OGA7KJUHDUJQR8B,5,6
103,1,object_02,object_05,593.0,2,1,116.0,0.0,2,object_07,5,1206,0,1,0,desert_3,2,memory-2step-stake-s,596,1655770,0.0-19.0-0.0-0.103,A19FWZXTGX663T,3X52SWXE10LAELCT6ESTJVPQIDRWCT,37U1UTWH9Z26G53OGA7KJUHDUJQR8B,2,1
104,1,object_02,object_05,591.0,1,2,7.0,0.2222222222222222,1,object_10,5,1216,0,2,4,desert_7,2,memory-2step-stake-s,597,1663249,0.0-19.0-0.0-0.104,A19FWZXTGX663T,3X52SWXE10LAELCT6ESTJVPQIDRWCT,37U1UTWH9Z26G53OGA7KJUHDUJQR8B,2,1
105,4,object_01,object_04,575.0,8,2,130.0,0.4444444444444444,2,object_07,1,1220,0,2,4,restaurant_3,2,memory-2step-stake-s,598,1671129,0.0-19.0-0.0-0.105,A19FWZXTGX663T,3X52SWXE10LAELCT6ESTJVPQIDRWCT,37U1UTWH9Z26G53OGA7KJUHDUJQR8B,7,8
106,3,object_06,object_03,635.0,6,2,83.0,0.7777777777777778,2,object_07,1,1227,0,0,7,library_1,2,memory-2step-stake-s,599,1679339,0.0-19.0-0.0-0.106,A19FWZXTGX663T,3X52SWXE10LAELCT6ESTJVPQIDRWCT,37U1UTWH9Z26G53OGA7KJUHDUJQR8B,5,6
107,2,object_08,object_09,1102.0,3,2,113.0,0.1111111111111111,1,object_10,5,1232,0,1,6,forest_4,2,memory-2step-stake-s,600,1686889,0.0-19.0-0.0-0.107,A19FWZXTGX663T,3X52SWXE10LAELCT6ESTJVPQIDRWCT,37U1UTWH9Z26G53OGA7KJUHDUJQR8B,4,3
108,4,object_01,object_04,663.0,8,2,115.0,0.3333333333333333,2,object_07,5,1247,0,1,3,restaurant_1,2,memory-2step-stake-s,601,1694639,0.0-19.0-0.0-0.108,A19FWZXTGX663T,3X52SWXE10LAELCT6ESTJVPQIDRWCT,37U1UTWH9Z26G53OGA7KJUHDUJQR8B,7,8
109,4,object_04,object_01,696.0,8,1,151.0,0.5555555555555556,2,object_07,1,1252,0,2,5,restaurant_2,2,memory-2step-stake-s,602,1702670,0.0-19.0-0.0-0.109,A19FWZXTGX663T,3X52SWXE10LAELCT6ESTJVPQIDRWCT,37U1UTWH9Z26G53OGA7KJUHDUJQR8B,8,7
110,1,object_02,object_05,651.0,2,1,145.0,0.4444444444444444,2,object_07,1,1256,0,0,4,desert_3,2,memory-2step-stake-s,603,1710589,0.0-19.0-0.0-0.110,A19FWZXTGX663T,3X52SWXE10LAELCT6ESTJVPQIDRWCT,37U1UTWH9Z26G53OGA7KJUHDUJQR8B,2,1
111,4,object_04,object_01,574.0,8,1,44.0,0.6666666666666666,2,object_07,1,1262,0,2,6,restaurant_3,2,memory-2step-stake-s,604,1718609,0.0-19.0-0.0-0.111,A19FWZXTGX663T,3X52SWXE10LAELCT6ESTJVPQIDRWCT,37U1UTWH9Z26G53OGA7KJUHDUJQR8B,8,7
112,2,object_08,object_09,624.0,4,1,165.0,0.5555555555555556,2,object_07,5,1287,0,2,5,forest_3,2,memory-2step-stake-s,605,1726569,0.0-19.0-0.0-0.112,A19FWZXTGX663T,3X52SWXE10LAELCT6ESTJVPQIDRWCT,37U1UTWH9Z26G53OGA7KJUHDUJQR8B,4,3
113,2,object_09,object_08,746.0,3,1,202.0,0.1111111111111111,1,object_10,5,1292,0,1,6,forest_1,2,memory-2step-stake-s,606,1734180,0.0-19.0-0.0-0.113,A19FWZXTGX663T,3X52SWXE10LAELCT6ESTJVPQIDRWCT,37U1UTWH9Z26G53OGA7KJUHDUJQR8B,3,4
114,3,object_06,object_03,576.0,6,2,539.0,0.7777777777777778,2,object_07,1,1299,0,1,7,library_7,2,memory-2step-stake-s,607,1742779,0.0-19.0-0.0-0.114,A19FWZXTGX663T,3X52SWXE10LAELCT6ESTJVPQIDRWCT,37U1UTWH9Z26G53OGA7KJUHDUJQR8B,5,6
115,4,object_04,object_01,604.0,8,1,47.0,0.5555555555555556,2,object_07,1,1304,0,0,5,restaurant_3,2,memory-2step-stake-s,608,1750739,0.0-19.0-0.0-0.115,A19FWZXTGX663T,3X52SWXE10LAELCT6ESTJVPQIDRWCT,37U1UTWH9Z26G53OGA7KJUHDUJQR8B,8,7
116,3,object_03,object_06,550.0,6,1,161.0,0.6666666666666666,2,object_07,5,1334,0,3,6,library_8,2,memory-2step-stake-s,609,1758859,0.0-19.0-0.0-0.116,A19FWZXTGX663T,3X52SWXE10LAELCT6ESTJVPQIDRWCT,37U1UTWH9Z26G53OGA7KJUHDUJQR8B,6,5
117,2,object_08,object_09,674.0,4,1,126.0,0.3333333333333333,2,object_07,5,1349,0,3,3,forest_1,2,memory-2step-stake-s,610,1766569,0.0-19.0-0.0-0.117,A19FWZXTGX663T,3X52SWXE10LAELCT6ESTJVPQIDRWCT,37U1UTWH9Z26G53OGA7KJUHDUJQR8B,4,3
118,3,object_03,object_06,601.0,6,1,129.0,0.1111111111111111,2,object_07,1,1350,0,1,1,library_8,2,memory-2step-stake-s,611,1774099,0.0-19.0-0.0-0.118,A19FWZXTGX663T,3X52SWXE10LAELCT6ESTJVPQIDRWCT,37U1UTWH9Z26G53OGA7KJUHDUJQR8B,6,5
119,2,object_09,object_08,785.0,3,1,48.0,0.0,1,object_10,5,1350,0,0,1,forest_4,2,memory-2step-stake-s,612,1781410,0.0-19.0-0.0-0.119,A19FWZXTGX663T,3X52SWXE10LAELCT6ESTJVPQIDRWCT,37U1UTWH9Z26G53OGA7KJUHDUJQR8B,3,4
120,3,object_03,object_06,1046.0,6,1,132.0,0.3333333333333333,2,object_07,5,1365,0,0,3,library_7,2,memory-2step-stake-s,613,1789180,0.0-19.0-0.0-0.120,A19FWZXTGX663T,3X52SWXE10LAELCT6ESTJVPQIDRWCT,37U1UTWH9Z26G53OGA7KJUHDUJQR8B,6,5
121,1,object_05,object_02,976.0,2,2,146.0,0.4444444444444444,2,object_07,5,1385,0,0,4,desert_7,2,memory-2step-stake-s,614,1797099,0.0-19.0-0.0-0.121,A19FWZXTGX663T,3X52SWXE10LAELCT6ESTJVPQIDRWCT,37U1UTWH9Z26G53OGA7KJUHDUJQR8B,1,2
122,1,object_05,object_02,556.0,2,2,47.0,0.3333333333333333,2,object_07,5,1400,0,1,3,desert_3,2,memory-2step-stake-s,615,1804759,0.0-19.0-0.0-0.122,A19FWZXTGX663T,3X52SWXE10LAELCT6ESTJVPQIDRWCT,37U1UTWH9Z26G53OGA7KJUHDUJQR8B,1,2
123,3,object_06,object_03,573.0,6,2,165.0,0.1111111111111111,2,object_07,5,1405,0,5,1,library_1,2,memory-2step-stake-s,616,1812349,0.0-19.0-0.0-0.123,A19FWZXTGX663T,3X52SWXE10LAELCT6ESTJVPQIDRWCT,37U1UTWH9Z26G53OGA7KJUHDUJQR8B,5,6
124,1,object_02,object_05,832.0,1,2,137.0,0.2222222222222222,1,object_10,5,1415,0,2,1,desert_1,2,memory-2step-stake-s,617,1819956,0.0-19.0-0.0-0.124,A19FWZXTGX663T,3X52SWXE10LAELCT6ESTJVPQIDRWCT,37U1UTWH9Z26G53OGA7KJUHDUJQR8B,2,1
125,4,object_01,object_04,476.0,8,2,156.0,0.3333333333333333,2,object_07,1,1418,0,0,3,restaurant_2,2,memory-2step-stake-s,618,1827740,0.0-19.0-0.0-0.125,A19FWZXTGX663T,3X52SWXE10LAELCT6ESTJVPQIDRWCT,37U1UTWH9Z26G53OGA7KJUHDUJQR8B,7,8
126,4,object_01,object_04,542.0,7,1,87.0,0.2222222222222222,1,object_10,1,1420,0,2,4,restaurant_8,2,memory-2step-stake-s,619,1835320,0.0-19.0-0.0-0.126,A19FWZXTGX663T,3X52SWXE10LAELCT6ESTJVPQIDRWCT,37U1UTWH9Z26G53OGA7KJUHDUJQR8B,7,8
127,3,object_03,object_06,669.0,6,1,172.0,0.5555555555555556,2,object_07,5,1445,0,4,5,library_7,2,memory-2step-stake-s,620,1843339,0.0-19.0-0.0-0.127,A19FWZXTGX663T,3X52SWXE10LAELCT6ESTJVPQIDRWCT,37U1UTWH9Z26G53OGA7KJUHDUJQR8B,6,5
128,2,object_09,object_08,567.0,4,2,160.0,0.6666666666666666,2,object_07,5,1475,0,4,6,forest_4,2,memory-2step-stake-s,622,1889819,0.0-19.0-0.1-0.128,A19FWZXTGX663T,3X52SWXE10LAELCT6ESTJVPQIDRWCT,37U1UTWH9Z26G53OGA7KJUHDUJQR8B,3,4
129,2,object_09,object_08,422.0,4,2,109.0,0.5555555555555556,2,object_07,5,1500,0,0,5,forest_4,2,memory-2step-stake-s,623,1897819,0.0-19.0-0.1-0.129,A19FWZXTGX663T,3X52SWXE10LAELCT6ESTJVPQIDRWCT,37U1UTWH9Z26G53OGA7KJUHDUJQR8B,3,4
130,3,object_03,object_06,658.0,6,1,23.0,0.7777777777777778,2,object_07,1,1507,0,3,7,library_1,2,memory-2step-stake-s,624,1905959,0.0-19.0-0.1-0.130,A19FWZXTGX663T,3X52SWXE10LAELCT6ESTJVPQIDRWCT,37U1UTWH9Z26G53OGA7KJUHDUJQR8B,6,5
131,4,object_01,object_04,821.0,8,2,75.0,0.8888888888888888,2,object_07,5,1547,0,3,8,restaurant_1,2,memory-2step-stake-s,625,1914269,0.0-19.0-0.1-0.131,A19FWZXTGX663T,3X52SWXE10LAELCT6ESTJVPQIDRWCT,37U1UTWH9Z26G53OGA7KJUHDUJQR8B,7,8
132,3,object_03,object_06,525.0,6,1,174.0,0.7777777777777778,2,object_07,5,1582,0,1,7,library_1,2,memory-2step-stake-s,626,1922488,0.0-19.0-0.1-0.132,A19FWZXTGX663T,3X52SWXE10LAELCT6ESTJVPQIDRWCT,37U1UTWH9Z26G53OGA7KJUHDUJQR8B,6,5
133,2,object_08,object_09,555.0,4,1,51.0,0.2222222222222222,2,object_07,1,1584,0,0,2,forest_4,2,memory-2step-stake-s,627,1930007,0.0-19.0-0.1-0.133,A19FWZXTGX663T,3X52SWXE10LAELCT6ESTJVPQIDRWCT,37U1UTWH9Z26G53OGA7KJUHDUJQR8B,4,3
134,2,object_08,object_09,655.0,3,2,74.0,0.0,1,object_10,5,1584,0,0,3,forest_3,2,memory-2step-stake-s,628,1937338,0.0-19.0-0.1-0.134,A19FWZXTGX663T,3X52SWXE10LAELCT6ESTJVPQIDRWCT,37U1UTWH9Z26G53OGA7KJUHDUJQR8B,4,3
135,2,object_08,object_09,962.0,4,1,41.0,0.6666666666666666,2,object_07,5,1614,0,2,6,forest_3,2,memory-2step-stake-s,629,1945256,0.0-19.0-0.1-0.135,A19FWZXTGX663T,3X52SWXE10LAELCT6ESTJVPQIDRWCT,37U1UTWH9Z26G53OGA7KJUHDUJQR8B,4,3
136,4,object_01,object_04,787.0,8,2,179.0,0.4444444444444444,2,object_07,1,1618,0,4,4,restaurant_2,2,memory-2step-stake-s,630,1953144,0.0-19.0-0.1-0.136,A19FWZXTGX663T,3X52SWXE10LAELCT6ESTJVPQIDRWCT,37U1UTWH9Z26G53OGA7KJUHDUJQR8B,7,8
137,1,object_05,object_02,733.0,2,2,18.0,0.0,2,object_07,5,1618,0,6,0,desert_7,2,memory-2step-stake-s,631,1960446,0.0-19.0-0.1-0.137,A19FWZXTGX663T,3X52SWXE10LAELCT6ESTJVPQIDRWCT,37U1UTWH9Z26G53OGA7KJUHDUJQR8B,1,2
138,2,object_09,object_08,1466.0,3,1,172.0,0.6666666666666666,1,object_10,5,1648,0,6,4,forest_3,2,memory-2step-stake-s,632,1968537,0.0-19.0-0.1-0.138,A19FWZXTGX663T,3X52SWXE10LAELCT6ESTJVPQIDRWCT,37U1UTWH9Z26G53OGA7KJUHDUJQR8B,3,4
139,1,object_05,object_02,1168.0,1,1,64.0,0.8888888888888888,1,object_10,5,1688,0,8,5,desert_3,2,memory-2step-stake-s,633,1976732,0.0-19.0-0.1-0.139,A19FWZXTGX663T,3X52SWXE10LAELCT6ESTJVPQIDRWCT,37U1UTWH9Z26G53OGA7KJUHDUJQR8B,1,2
140,1,object_02,object_05,770.0,2,1,6.0,0.3333333333333333,2,object_07,1,1691,0,9,3,desert_2,2,memory-2step-stake-s,634,1984323,0.0-19.0-0.1-0.140,A19FWZXTGX663T,3X52SWXE10LAELCT6ESTJVPQIDRWCT,37U1UTWH9Z26G53OGA7KJUHDUJQR8B,2,1
141,4,object_01,object_04,882.0,7,1,162.0,1.0,1,object_10,5,1736,0,9,2,restaurant_3,2,memory-2step-stake-s,635,1992729,0.0-19.0-0.1-0.141,A19FWZXTGX663T,3X52SWXE10LAELCT6ESTJVPQIDRWCT,37U1UTWH9Z26G53OGA7KJUHDUJQR8B,7,8
142,2,object_08,object_09,1013.0,4,1,17.0,0.4444444444444444,2,object_07,1,1740,0,6,4,forest_6,2,memory-2step-stake-s,636,2000442,0.0-19.0-0.1-0.142,A19FWZXTGX663T,3X52SWXE10LAELCT6ESTJVPQIDRWCT,37U1UTWH9Z26G53OGA7KJUHDUJQR8B,4,3
143,1,object_05,object_02,919.0,1,1,74.0,0.8888888888888888,1,object_10,5,1780,0,8,6,desert_1,2,memory-2step-stake-s,637,2008651,0.0-19.0-0.1-0.143,A19FWZXTGX663T,3X52SWXE10LAELCT6ESTJVPQIDRWCT,37U1UTWH9Z26G53OGA7KJUHDUJQR8B,1,2
144,3,object_06,object_03,1095.0,6,2,68.0,0.7777777777777778,2,object_07,1,1787,0,8,7,library_1,2,memory-2step-stake-s,638,2016749,0.0-19.0-0.1-0.144,A19FWZXTGX663T,3X52SWXE10LAELCT6ESTJVPQIDRWCT,37U1UTWH9Z26G53OGA7KJUHDUJQR8B,5,6
145,3,object_06,object_03,742.0,5,1,36.0,0.8888888888888888,1,object_10,5,1827,0,8,5,library_1,2,memory-2step-stake-s,639,2024949,0.0-19.0-0.1-0.145,A19FWZXTGX663T,3X52SWXE10LAELCT6ESTJVPQIDRWCT,37U1UTWH9Z26G53OGA7KJUHDUJQR8B,5,6
146,2,object_08,object_09,961.0,3,2,19.0,0.7777777777777778,1,object_10,5,1862,0,7,6,forest_4,2,memory-2step-stake-s,640,2033089,0.0-19.0-0.1-0.146,A19FWZXTGX663T,3X52SWXE10LAELCT6ESTJVPQIDRWCT,37U1UTWH9Z26G53OGA7KJUHDUJQR8B,4,3
147,2,object_08,object_09,820.0,4,1,174.0,0.5555555555555556,2,object_07,1,1867,0,8,5,forest_6,2,memory-2step-stake-s,641,2041049,0.0-19.0-0.1-0.147,A19FWZXTGX663T,3X52SWXE10LAELCT6ESTJVPQIDRWCT,37U1UTWH9Z26G53OGA7KJUHDUJQR8B,4,3
148,4,object_01,object_04,649.0,7,1,11.0,0.6666666666666666,1,object_10,1,1873,0,6,7,restaurant_2,2,memory-2step-stake-s,642,2049039,0.0-19.0-0.1-0.148,A19FWZXTGX663T,3X52SWXE10LAELCT6ESTJVPQIDRWCT,37U1UTWH9Z26G53OGA7KJUHDUJQR8B,7,8
149,3,object_06,object_03,603.0,6,2,34.0,0.6666666666666666,2,object_07,1,1879,0,5,6,library_8,2,memory-2step-stake-s,643,2057059,0.0-19.0-0.1-0.149,A19FWZXTGX663T,3X52SWXE10LAELCT6ESTJVPQIDRWCT,37U1UTWH9Z26G53OGA7KJUHDUJQR8B,5,6
150,1,object_05,object_02,771.0,1,1,15.0,0.2222222222222222,1,object_10,5,1889,0,2,1,desert_3,2,memory-2step-stake-s,644,2064559,0.0-19.0-0.1-0.150,A19FWZXTGX663T,3X52SWXE10LAELCT6ESTJVPQIDRWCT,37U1UTWH9Z26G53OGA7KJUHDUJQR8B,1,2
151,2,object_09,object_08,1107.0,4,2,187.0,0.3333333333333333,2,object_07,5,1904,0,3,3,forest_6,2,memory-2step-stake-s,645,2072354,0.0-19.0-0.1-0.151,A19FWZXTGX663T,3X52SWXE10LAELCT6ESTJVPQIDRWCT,37U1UTWH9Z26G53OGA7KJUHDUJQR8B,3,4
152,4,object_04,object_01,620.0,7,2,627.0,0.4444444444444444,1,object_10,1,1908,0,4,1,restaurant_2,2,memory-2step-stake-s,646,2080630,0.0-19.0-0.1-0.152,A19FWZXTGX663T,3X52SWXE10LAELCT6ESTJVPQIDRWCT,37U1UTWH9Z26G53OGA7KJUHDUJQR8B,8,7
153,1,object_05,object_02,518.0,2,2,36.0,0.0,2,object_07,5,1908,0,6,0,desert_1,2,memory-2step-stake-s,647,2087919,0.0-19.0-0.1-0.153,A19FWZXTGX663T,3X52SWXE10LAELCT6ESTJVPQIDRWCT,37U1UTWH9Z26G53OGA7KJUHDUJQR8B,1,2
154,2,object_09,object_08,781.0,4,2,145.0,0.0,2,object_07,5,1908,0,9,0,forest_6,2,memory-2step-stake-s,648,2095359,0.0-19.0-0.1-0.154,A19FWZXTGX663T,3X52SWXE10LAELCT6ESTJVPQIDRWCT,37U1UTWH9Z26G53OGA7KJUHDUJQR8B,3,4
155,1,object_02,object_05,843.0,1,2,49.0,0.6666666666666666,1,object_10,5,1938,0,6,0,desert_1,2,memory-2step-stake-s,649,2103349,0.0-19.0-0.1-0.155,A19FWZXTGX663T,3X52SWXE10LAELCT6ESTJVPQIDRWCT,37U1UTWH9Z26G53OGA7KJUHDUJQR8B,2,1
156,1,object_02,object_05,701.0,1,2,125.0,0.5555555555555556,1,object_10,5,1963,0,5,1,desert_7,2,memory-2step-stake-s,650,2111330,0.0-19.0-0.1-0.156,A19FWZXTGX663T,3X52SWXE10LAELCT6ESTJVPQIDRWCT,37U1UTWH9Z26G53OGA7KJUHDUJQR8B,2,1
157,4,object_04,object_01,522.0,8,1,3.0,0.0,2,object_07,1,1963,0,2,0,restaurant_3,2,memory-2step-stake-s,651,2118599,0.0-19.0-0.1-0.157,A19FWZXTGX663T,3X52SWXE10LAELCT6ESTJVPQIDRWCT,37U1UTWH9Z26G53OGA7KJUHDUJQR8B,8,7
158,3,object_03,object_06,588.0,5,2,139.0,0.3333333333333333,1,object_10,1,1966,0,3,2,library_5,2,memory-2step-stake-s,652,2126389,0.0-19.0-0.1-0.158,A19FWZXTGX663T,3X52SWXE10LAELCT6ESTJVPQIDRWCT,37U1UTWH9Z26G53OGA7KJUHDUJQR8B,6,5
159,3,object_06,object_03,473.0,5,1,121.0,0.2222222222222222,1,object_10,1,1968,0,2,5,library_8,2,memory-2step-stake-s,653,2134019,0.0-19.0-0.1-0.159,A19FWZXTGX663T,3X52SWXE10LAELCT6ESTJVPQIDRWCT,37U1UTWH9Z26G53OGA7KJUHDUJQR8B,5,6
160,2,object_08,object_09,593.0,3,2,304.0,0.2222222222222222,1,object_10,5,1978,0,2,4,forest_3,2,memory-2step-stake-s,654,2141849,0.0-19.0-0.1-0.160,A19FWZXTGX663T,3X52SWXE10LAELCT6ESTJVPQIDRWCT,37U1UTWH9Z26G53OGA7KJUHDUJQR8B,4,3
161,1,object_05,object_02,855.0,2,2,115.0,0.4444444444444444,2,object_07,5,1998,0,5,4,desert_3,2,memory-2step-stake-s,655,2149699,0.0-19.0-0.1-0.161,A19FWZXTGX663T,3X52SWXE10LAELCT6ESTJVPQIDRWCT,37U1UTWH9Z26G53OGA7KJUHDUJQR8B,1,2
162,2,object_09,object_08,913.0,4,2,20.0,0.7777777777777778,2,object_07,1,2005,0,6,7,forest_1,2,memory-2step-stake-s,656,2157769,0.0-19.0-0.1-0.162,A19FWZXTGX663T,3X52SWXE10LAELCT6ESTJVPQIDRWCT,37U1UTWH9Z26G53OGA7KJUHDUJQR8B,3,4
163,3,object_06,object_03,607.0,6,2,55.0,0.5555555555555556,2,object_07,5,2030,0,4,5,library_7,2,memory-2step-stake-s,657,2165609,0.0-19.0-0.1-0.163,A19FWZXTGX663T,3X52SWXE10LAELCT6ESTJVPQIDRWCT,37U1UTWH9Z26G53OGA7KJUHDUJQR8B,5,6
164,3,object_06,object_03,520.0,6,2,13.0,0.3333333333333333,2,object_07,5,2045,0,5,3,library_7,2,memory-2step-stake-s,658,2173239,0.0-19.0-0.1-0.164,A19FWZXTGX663T,3X52SWXE10LAELCT6ESTJVPQIDRWCT,37U1UTWH9Z26G53OGA7KJUHDUJQR8B,5,6
165,3,object_03,object_06,634.0,5,2,142.0,0.7777777777777778,1,object_10,1,2052,0,7,2,library_5,2,memory-2step-stake-s,659,2181529,0.0-19.0-0.1-0.165,A19FWZXTGX663T,3X52SWXE10LAELCT6ESTJVPQIDRWCT,37U1UTWH9Z26G53OGA7KJUHDUJQR8B,6,5
166,4,object_04,object_01,755.0,8,1,301.0,0.1111111111111111,2,object_07,5,2057,0,8,1,restaurant_2,2,memory-2step-stake-s,660,2189209,0.0-19.0-0.1-0.166,A19FWZXTGX663T,3X52SWXE10LAELCT6ESTJVPQIDRWCT,37U1UTWH9Z26G53OGA7KJUHDUJQR8B,8,7
167,2,object_08,object_09,974.0,3,2,44.0,0.7777777777777778,1,object_10,5,2092,0,7,0,forest_1,2,memory-2step-stake-s,661,2197359,0.0-19.0-0.1-0.167,A19FWZXTGX663T,3X52SWXE10LAELCT6ESTJVPQIDRWCT,37U1UTWH9Z26G53OGA7KJUHDUJQR8B,4,3
168,4,object_04,object_01,608.0,7,2,100.0,0.6666666666666666,1,object_10,5,2122,0,6,2,restaurant_3,2,memory-2step-stake-s,662,2205474,0.0-19.0-0.1-0.168,A19FWZXTGX663T,3X52SWXE10LAELCT6ESTJVPQIDRWCT,37U1UTWH9Z26G53OGA7KJUHDUJQR8B,8,7
169,3,object_03,object_06,881.0,6,1,83.0,0.0,2,object_07,1,2122,0,9,0,library_1,2,memory-2step-stake-s,663,2212840,0.0-19.0-0.1-0.169,A19FWZXTGX663T,3X52SWXE10LAELCT6ESTJVPQIDRWCT,37U1UTWH9Z26G53OGA7KJUHDUJQR8B,6,5
170,3,object_06,object_03,522.0,6,2,104.0,0.4444444444444444,2,object_07,1,2126,0,7,4,library_7,2,memory-2step-stake-s,664,2220670,0.0-19.0-0.1-0.170,A19FWZXTGX663T,3X52SWXE10LAELCT6ESTJVPQIDRWCT,37U1UTWH9Z26G53OGA7KJUHDUJQR8B,5,6
171,4,object_04,object_01,1087.0,8,1,56.0,0.2222222222222222,2,object_07,1,2128,0,9,2,restaurant_8,2,memory-2step-stake-s,665,2228259,0.0-19.0-0.1-0.171,A19FWZXTGX663T,3X52SWXE10LAELCT6ESTJVPQIDRWCT,37U1UTWH9Z26G53OGA7KJUHDUJQR8B,8,7
172,3,object_06,object_03,582.0,6,2,111.0,0.3333333333333333,2,object_07,1,2131,0,8,3,library_7,2,memory-2step-stake-s,666,2236019,0.0-19.0-0.1-0.172,A19FWZXTGX663T,3X52SWXE10LAELCT6ESTJVPQIDRWCT,37U1UTWH9Z26G53OGA7KJUHDUJQR8B,5,6
173,2,object_09,object_08,1048.0,3,1,151.0,0.6666666666666666,1,object_10,1,2137,0,6,2,forest_4,2,memory-2step-stake-s,667,2244168,0.0-19.0-0.1-0.173,A19FWZXTGX663T,3X52SWXE10LAELCT6ESTJVPQIDRWCT,37U1UTWH9Z26G53OGA7KJUHDUJQR8B,3,4
174,4,object_04,object_01,842.0,7,2,139.0,0.4444444444444444,1,object_10,5,2157,0,4,3,restaurant_3,2,memory-2step-stake-s,668,2252050,0.0-19.0-0.1-0.174,A19FWZXTGX663T,3X52SWXE10LAELCT6ESTJVPQIDRWCT,37U1UTWH9Z26G53OGA7KJUHDUJQR8B,8,7
175,4,object_04,object_01,730.0,8,1,0.0,0.3333333333333333,2,object_07,1,2160,0,3,3,restaurant_1,2,memory-2step-stake-s,669,2259689,0.0-19.0-0.1-0.175,A19FWZXTGX663T,3X52SWXE10LAELCT6ESTJVPQIDRWCT,37U1UTWH9Z26G53OGA7KJUHDUJQR8B,8,7
176,2,object_09,object_08,516.0,4,2,134.0,0.4444444444444444,2,object_07,5,2180,0,4,4,forest_1,2,memory-2step-stake-s,670,2267518,0.0-19.0-0.1-0.176,A19FWZXTGX663T,3X52SWXE10LAELCT6ESTJVPQIDRWCT,37U1UTWH9Z26G53OGA7KJUHDUJQR8B,3,4
177,1,object_02,object_05,833.0,2,1,54.0,0.8888888888888888,2,object_07,5,2220,0,7,8,desert_7,2,memory-2step-stake-s,671,2275705,0.0-19.0-0.1-0.177,A19FWZXTGX663T,3X52SWXE10LAELCT6ESTJVPQIDRWCT,37U1UTWH9Z26G53OGA7KJUHDUJQR8B,2,1
178,1,object_05,object_02,387.0,2,2,116.0,0.6666666666666666,2,object_07,5,2250,0,3,6,desert_1,2,memory-2step-stake-s,672,2283769,0.0-19.0-0.1-0.178,A19FWZXTGX663T,3X52SWXE10LAELCT6ESTJVPQIDRWCT,37U1UTWH9Z26G53OGA7KJUHDUJQR8B,1,2
179,2,object_08,object_09,829.0,3,2,9.0,0.2222222222222222,1,object_10,1,2252,0,2,4,forest_1,2,memory-2step-stake-s,673,2291309,0.0-19.0-0.1-0.179,A19FWZXTGX663T,3X52SWXE10LAELCT6ESTJVPQIDRWCT,37U1UTWH9Z26G53OGA7KJUHDUJQR8B,4,3
180,4,object_01,object_04,1045.0,7,1,6.0,0.6666666666666666,1,object_10,5,2282,0,6,6,restaurant_2,2,memory-2step-stake-s,674,2299219,0.0-19.0-0.1-0.180,A19FWZXTGX663T,3X52SWXE10LAELCT6ESTJVPQIDRWCT,37U1UTWH9Z26G53OGA7KJUHDUJQR8B,7,8
181,4,object_01,object_04,843.0,7,1,104.0,0.6666666666666666,1,object_10,1,2288,0,6,4,restaurant_2,2,memory-2step-stake-s,675,2307309,0.0-19.0-0.1-0.181,A19FWZXTGX663T,3X52SWXE10LAELCT6ESTJVPQIDRWCT,37U1UTWH9Z26G53OGA7KJUHDUJQR8B,7,8
182,1,object_05,object_02,511.0,2,2,107.0,0.2222222222222222,2,object_07,5,2298,0,8,2,desert_1,2,memory-2step-stake-s,676,2314908,0.0-19.0-0.1-0.182,A19FWZXTGX663T,3X52SWXE10LAELCT6ESTJVPQIDRWCT,37U1UTWH9Z26G53OGA7KJUHDUJQR8B,1,2
183,1,object_05,object_02,638.0,1,1,177.0,0.8888888888888888,1,object_10,5,2338,0,8,3,desert_2,2,memory-2step-stake-s,677,2323259,0.0-19.0-0.1-0.183,A19FWZXTGX663T,3X52SWXE10LAELCT6ESTJVPQIDRWCT,37U1UTWH9Z26G53OGA7KJUHDUJQR8B,1,2
184,1,object_05,object_02,552.0,1,1,83.0,0.8888888888888888,1,object_10,5,2378,0,8,1,desert_1,2,memory-2step-stake-s,678,2331549,0.0-19.0-0.1-0.184,A19FWZXTGX663T,3X52SWXE10LAELCT6ESTJVPQIDRWCT,37U1UTWH9Z26G53OGA7KJUHDUJQR8B,1,2
185,2,object_09,object_08,1190.0,3,1,32.0,1.0,1,object_10,5,2423,0,9,2,forest_4,2,memory-2step-stake-s,679,2339865,0.0-19.0-0.1-0.185,A19FWZXTGX663T,3X52SWXE10LAELCT6ESTJVPQIDRWCT,37U1UTWH9Z26G53OGA7KJUHDUJQR8B,3,4
186,4,object_04,object_01,976.0,7,2,57.0,0.7777777777777778,1,object_10,5,2458,0,7,1,restaurant_8,2,memory-2step-stake-s,680,2347969,0.0-19.0-0.1-0.186,A19FWZXTGX663T,3X52SWXE10LAELCT6ESTJVPQIDRWCT,37U1UTWH9Z26G53OGA7KJUHDUJQR8B,8,7
187,4,object_04,object_01,611.0,7,2,19.0,0.8888888888888888,1,object_10,5,2498,0,8,3,restaurant_8,2,memory-2step-stake-s,681,2356203,0.0-19.0-0.1-0.187,A19FWZXTGX663T,3X52SWXE10LAELCT6ESTJVPQIDRWCT,37U1UTWH9Z26G53OGA7KJUHDUJQR8B,8,7
188,3,object_03,object_06,593.0,6,1,23.0,0.2222222222222222,2,object_07,1,2500,0,8,2,library_5,2,memory-2step-stake-s,682,2363699,0.0-19.0-0.1-0.188,A19FWZXTGX663T,3X52SWXE10LAELCT6ESTJVPQIDRWCT,37U1UTWH9Z26G53OGA7KJUHDUJQR8B,6,5
189,1,object_05,object_02,605.0,1,1,301.0,1.0,1,object_10,5,2545,0,9,6,desert_2,2,memory-2step-stake-s,683,2372369,0.0-19.0-0.1-0.189,A19FWZXTGX663T,3X52SWXE10LAELCT6ESTJVPQIDRWCT,37U1UTWH9Z26G53OGA7KJUHDUJQR8B,1,2
190,4,object_01,object_04,1085.0,8,2,163.0,0.6666666666666666,2,object_07,1,2551,0,9,6,restaurant_2,2,memory-2step-stake-s,684,2380449,0.0-19.0-0.1-0.190,A19FWZXTGX663T,3X52SWXE10LAELCT6ESTJVPQIDRWCT,37U1UTWH9Z26G53OGA7KJUHDUJQR8B,7,8
191,4,object_01,object_04,599.0,8,2,47.0,0.6666666666666666,2,object_07,1,2557,0,6,6,restaurant_3,2,memory-2step-stake-s,685,2388421,0.0-19.0-0.1-0.191,A19FWZXTGX663T,3X52SWXE10LAELCT6ESTJVPQIDRWCT,37U1UTWH9Z26G53OGA7KJUHDUJQR8B,7,8
192,4,object_04,object_01,530.0,8,1,122.0,0.2222222222222222,2,object_07,1,2559,0,2,2,restaurant_1,2,memory-2step-stake-s,686,2396109,0.0-19.0-0.1-0.192,A19FWZXTGX663T,3X52SWXE10LAELCT6ESTJVPQIDRWCT,37U1UTWH9Z26G53OGA7KJUHDUJQR8B,8,7
193,2,object_09,object_08,1035.0,3,1,68.0,0.2222222222222222,1,object_10,5,2569,0,2,1,forest_3,2,memory-2step-stake-s,687,2403720,0.0-19.0-0.1-0.193,A19FWZXTGX663T,3X52SWXE10LAELCT6ESTJVPQIDRWCT,37U1UTWH9Z26G53OGA7KJUHDUJQR8B,3,4
194,2,object_09,object_08,847.0,4,2,42.0,0.2222222222222222,2,object_07,5,2579,0,3,2,forest_4,2,memory-2step-stake-s,688,2411279,0.0-19.0-0.1-0.194,A19FWZXTGX663T,3X52SWXE10LAELCT6ESTJVPQIDRWCT,37U1UTWH9Z26G53OGA7KJUHDUJQR8B,3,4
195,3,object_06,object_03,448.0,5,1,78.0,0.1111111111111111,1,object_10,1,2580,0,1,2,library_5,2,memory-2step-stake-s,689,2418769,0.0-19.0-0.1-0.195,A19FWZXTGX663T,3X52SWXE10LAELCT6ESTJVPQIDRWCT,37U1UTWH9Z26G53OGA7KJUHDUJQR8B,5,6
196,1,object_05,object_02,653.0,2,2,74.0,0.2222222222222222,2,object_07,5,2590,0,0,2,desert_2,2,memory-2step-stake-s,690,2426399,0.0-19.0-0.1-0.196,A19FWZXTGX663T,3X52SWXE10LAELCT6ESTJVPQIDRWCT,37U1UTWH9Z26G53OGA7KJUHDUJQR8B,1,2
197,4,object_01,object_04,6.0,8,2,377.0,0.3333333333333333,2,object_07,1,2593,0,1,3,restaurant_2,2,memory-2step-stake-s,691,2434408,0.0-19.0-0.1-0.197,A19FWZXTGX663T,3X52SWXE10LAELCT6ESTJVPQIDRWCT,37U1UTWH9Z26G53OGA7KJUHDUJQR8B,7,8
198,3,object_03,object_06,927.0,5,2,110.0,0.1111111111111111,1,object_10,1,2594,0,1,1,library_5,2,memory-2step-stake-s,692,2441944,0.0-19.0-0.1-0.198,A19FWZXTGX663T,3X52SWXE10LAELCT6ESTJVPQIDRWCT,37U1UTWH9Z26G53OGA7KJUHDUJQR8B,6,5
199,4,object_04,object_01,694.0,7,2,122.0,0.1111111111111111,1,object_10,1,2595,0,1,2,restaurant_8,2,memory-2step-stake-s,693,2449479,0.0-19.0-0.1-0.199,A19FWZXTGX663T,3X52SWXE10LAELCT6ESTJVPQIDRWCT,37U1UTWH9Z26G53OGA7KJUHDUJQR8B,8,7
200,4,object_04,object_01,249.0,8,1,602.0,0.1111111111111111,2,object_07,1,2596,0,1,1,restaurant_1,2,memory-2step-stake-s,694,2457509,0.0-19.0-0.1-0.200,A19FWZXTGX663T,3X52SWXE10LAELCT6ESTJVPQIDRWCT,37U1UTWH9Z26G53OGA7KJUHDUJQR8B,8,7
201,1,object_05,object_02,622.0,1,1,127.0,0.2222222222222222,1,object_10,5,2606,0,2,2,desert_2,2,memory-2step-stake-s,695,2465139,0.0-19.0-0.1-0.201,A19FWZXTGX663T,3X52SWXE10LAELCT6ESTJVPQIDRWCT,37U1UTWH9Z26G53OGA7KJUHDUJQR8B,1,2
202,4,object_01,object_04,862.0,7,1,47.0,0.2222222222222222,1,object_10,5,2616,0,2,3,restaurant_1,2,memory-2step-stake-s,696,2472689,0.0-19.0-0.1-0.202,A19FWZXTGX663T,3X52SWXE10LAELCT6ESTJVPQIDRWCT,37U1UTWH9Z26G53OGA7KJUHDUJQR8B,7,8
203,2,object_08,object_09,1113.0,4,1,126.0,0.0,2,object_07,5,2616,0,4,0,forest_3,2,memory-2step-stake-s,697,2480089,0.0-19.0-0.1-0.203,A19FWZXTGX663T,3X52SWXE10LAELCT6ESTJVPQIDRWCT,37U1UTWH9Z26G53OGA7KJUHDUJQR8B,4,3
204,4,object_01,object_04,602.0,8,2,107.0,0.0,2,object_07,1,2616,0,6,0,restaurant_1,2,memory-2step-stake-s,698,2487459,0.0-19.0-0.1-0.204,A19FWZXTGX663T,3X52SWXE10LAELCT6ESTJVPQIDRWCT,37U1UTWH9Z26G53OGA7KJUHDUJQR8B,7,8
205,4,object_01,object_04,691.0,7,1,24.0,0.6666666666666666,1,object_10,1,2622,0,6,2,restaurant_8,2,memory-2step-stake-s,699,2495469,0.0-19.0-0.1-0.205,A19FWZXTGX663T,3X52SWXE10LAELCT6ESTJVPQIDRWCT,37U1UTWH9Z26G53OGA7KJUHDUJQR8B,7,8
206,3,object_06,object_03,695.0,5,1,199.0,1.0,1,object_10,1,2631,0,9,0,library_5,2,memory-2step-stake-s,700,2503979,0.0-19.0-0.1-0.206,A19FWZXTGX663T,3X52SWXE10LAELCT6ESTJVPQIDRWCT,37U1UTWH9Z26G53OGA7KJUHDUJQR8B,5,6
207,1,object_05,object_02,595.0,1,1,200.0,0.6666666666666666,1,object_10,1,2637,0,6,1,desert_3,2,memory-2step-stake-s,701,2512099,0.0-19.0-0.1-0.207,A19FWZXTGX663T,3X52SWXE10LAELCT6ESTJVPQIDRWCT,37U1UTWH9Z26G53OGA7KJUHDUJQR8B,1,2
208,1,object_02,object_05,792.0,1,2,129.0,0.2222222222222222,1,object_10,5,2647,0,2,3,desert_3,2,memory-2step-stake-s,702,2519758,0.0-19.0-0.1-0.208,A19FWZXTGX663T,3X52SWXE10LAELCT6ESTJVPQIDRWCT,37U1UTWH9Z26G53OGA7KJUHDUJQR8B,2,1
209,3,object_03,object_06,957.0,5,2,24.0,0.1111111111111111,1,object_10,1,2648,0,1,3,library_7,2,memory-2step-stake-s,703,2527199,0.0-19.0-0.1-0.209,A19FWZXTGX663T,3X52SWXE10LAELCT6ESTJVPQIDRWCT,37U1UTWH9Z26G53OGA7KJUHDUJQR8B,6,5
210,2,object_09,object_08,1146.0,4,2,98.0,0.1111111111111111,2,object_07,5,2653,0,1,1,forest_3,2,memory-2step-stake-s,704,2534709,0.0-19.0-0.1-0.210,A19FWZXTGX663T,3X52SWXE10LAELCT6ESTJVPQIDRWCT,37U1UTWH9Z26G53OGA7KJUHDUJQR8B,3,4
211,1,object_02,object_05,716.0,1,2,119.0,0.0,1,object_10,5,2653,0,0,2,desert_3,2,memory-2step-stake-s,705,2542119,0.0-19.0-0.1-0.211,A19FWZXTGX663T,3X52SWXE10LAELCT6ESTJVPQIDRWCT,37U1UTWH9Z26G53OGA7KJUHDUJQR8B,2,1
212,3,object_06,object_03,863.0,6,2,573.0,0.1111111111111111,2,object_07,1,2654,0,0,1,library_8,2,memory-2step-stake-s,706,2550099,0.0-19.0-0.1-0.212,A19FWZXTGX663T,3X52SWXE10LAELCT6ESTJVPQIDRWCT,37U1UTWH9Z26G53OGA7KJUHDUJQR8B,5,6
213,3,object_06,object_03,440.0,5,1,13.0,0.0,1,object_10,1,2654,0,0,1,library_8,2,memory-2step-stake-s,707,2557389,0.0-19.0-0.1-0.213,A19FWZXTGX663T,3X52SWXE10LAELCT6ESTJVPQIDRWCT,37U1UTWH9Z26G53OGA7KJUHDUJQR8B,5,6
214,4,object_04,object_01,456.0,7,2,380.0,0.3333333333333333,1,object_10,1,2657,0,3,0,restaurant_8,2,memory-2step-stake-s,708,2565469,0.0-19.0-0.1-0.214,A19FWZXTGX663T,3X52SWXE10LAELCT6ESTJVPQIDRWCT,37U1UTWH9Z26G53OGA7KJUHDUJQR8B,8,7
215,1,object_05,object_02,683.0,1,1,232.0,0.0,1,object_10,5,2657,0,0,5,desert_7,2,memory-2step-stake-s,709,2572979,0.0-19.0-0.1-0.215,A19FWZXTGX663T,3X52SWXE10LAELCT6ESTJVPQIDRWCT,37U1UTWH9Z26G53OGA7KJUHDUJQR8B,1,2
216,3,object_03,object_06,463.0,6,1,90.0,0.2222222222222222,2,object_07,1,2659,0,1,2,library_5,2,memory-2step-stake-s,710,2580599,0.0-19.0-0.1-0.216,A19FWZXTGX663T,3X52SWXE10LAELCT6ESTJVPQIDRWCT,37U1UTWH9Z26G53OGA7KJUHDUJQR8B,6,5
217,4,object_01,object_04,813.0,8,2,89.0,0.0,2,object_07,1,2659,0,3,0,restaurant_8,2,memory-2step-stake-s,711,2587990,0.0-19.0-0.1-0.217,A19FWZXTGX663T,3X52SWXE10LAELCT6ESTJVPQIDRWCT,37U1UTWH9Z26G53OGA7KJUHDUJQR8B,7,8
218,1,object_05,object_02,486.0,1,1,125.0,0.6666666666666666,1,object_10,5,2689,0,6,1,desert_3,2,memory-2step-stake-s,712,2596029,0.0-19.0-0.1-0.218,A19FWZXTGX663T,3X52SWXE10LAELCT6ESTJVPQIDRWCT,37U1UTWH9Z26G53OGA7KJUHDUJQR8B,1,2
219,3,object_03,object_06,677.0,5,2,150.0,0.6666666666666666,1,object_10,1,2695,0,6,1,library_1,2,memory-2step-stake-s,713,2604168,0.0-19.0-0.1-0.219,A19FWZXTGX663T,3X52SWXE10LAELCT6ESTJVPQIDRWCT,37U1UTWH9Z26G53OGA7KJUHDUJQR8B,6,5
220,2,object_08,object_09,583.0,4,1,77.0,0.2222222222222222,2,object_07,1,2697,0,9,2,forest_4,2,memory-2step-stake-s,714,2611728,0.0-19.0-0.1-0.220,A19FWZXTGX663T,3X52SWXE10LAELCT6ESTJVPQIDRWCT,37U1UTWH9Z26G53OGA7KJUHDUJQR8B,4,3
221,2,object_08,object_09,702.0,3,2,517.0,0.6666666666666666,1,object_10,5,2727,0,6,0,forest_1,2,memory-2step-stake-s,715,2620149,0.0-19.0-0.1-0.221,A19FWZXTGX663T,3X52SWXE10LAELCT6ESTJVPQIDRWCT,37U1UTWH9Z26G53OGA7KJUHDUJQR8B,4,3
222,1,object_05,object_02,468.0,1,1,99.0,0.5555555555555556,1,object_10,5,2752,0,5,2,desert_1,2,memory-2step-stake-s,716,2628129,0.0-19.0-0.1-0.222,A19FWZXTGX663T,3X52SWXE10LAELCT6ESTJVPQIDRWCT,37U1UTWH9Z26G53OGA7KJUHDUJQR8B,1,2
223,4,object_04,object_01,632.0,7,2,709.0,0.4444444444444444,1,object_10,1,2756,0,4,0,restaurant_1,2,memory-2step-stake-s,717,2636599,0.0-19.0-0.1-0.223,A19FWZXTGX663T,3X52SWXE10LAELCT6ESTJVPQIDRWCT,37U1UTWH9Z26G53OGA7KJUHDUJQR8B,8,7
224,1,object_02,object_05,743.0,1,2,114.0,0.5555555555555556,1,object_10,5,2781,0,5,3,desert_1,2,memory-2step-stake-s,718,2644569,0.0-19.0-0.1-0.224,A19FWZXTGX663T,3X52SWXE10LAELCT6ESTJVPQIDRWCT,37U1UTWH9Z26G53OGA7KJUHDUJQR8B,2,1
225,1,object_05,object_02,615.0,1,1,28.0,0.4444444444444444,1,object_10,5,2801,0,4,4,desert_7,2,memory-2step-stake-s,719,2652369,0.0-19.0-0.1-0.225,A19FWZXTGX663T,3X52SWXE10LAELCT6ESTJVPQIDRWCT,37U1UTWH9Z26G53OGA7KJUHDUJQR8B,1,2
226,2,object_08,object_09,554.0,4,1,42.0,0.6666666666666666,2,object_07,5,2831,0,4,6,forest_1,2,memory-2step-stake-s,720,2660389,0.0-19.0-0.1-0.226,A19FWZXTGX663T,3X52SWXE10LAELCT6ESTJVPQIDRWCT,37U1UTWH9Z26G53OGA7KJUHDUJQR8B,4,3
227,3,object_06,object_03,434.0,6,2,72.0,0.5555555555555556,2,object_07,1,2836,0,4,5,library_8,2,memory-2step-stake-s,721,2668299,0.0-19.0-0.1-0.227,A19FWZXTGX663T,3X52SWXE10LAELCT6ESTJVPQIDRWCT,37U1UTWH9Z26G53OGA7KJUHDUJQR8B,5,6
228,1,object_02,object_05,578.0,1,2,72.0,0.3333333333333333,1,object_10,5,2851,0,3,6,desert_2,2,memory-2step-stake-s,722,2675989,0.0-19.0-0.1-0.228,A19FWZXTGX663T,3X52SWXE10LAELCT6ESTJVPQIDRWCT,37U1UTWH9Z26G53OGA7KJUHDUJQR8B,2,1
229,3,object_03,object_06,656.0,6,1,808.0,0.6666666666666666,2,object_07,1,2857,0,2,6,library_5,2,memory-2step-stake-s,723,2684708,0.0-19.0-0.1-0.229,A19FWZXTGX663T,3X52SWXE10LAELCT6ESTJVPQIDRWCT,37U1UTWH9Z26G53OGA7KJUHDUJQR8B,6,5
230,3,object_03,object_06,560.0,6,1,59.0,0.3333333333333333,2,object_07,1,2860,0,0,3,library_5,2,memory-2step-stake-s,724,2692389,0.0-19.0-0.1-0.230,A19FWZXTGX663T,3X52SWXE10LAELCT6ESTJVPQIDRWCT,37U1UTWH9Z26G53OGA7KJUHDUJQR8B,6,5
231,2,object_09,object_08,916.0,3,1,41.0,0.0,1,object_10,5,2860,0,0,4,forest_3,2,memory-2step-stake-s,725,2699729,0.0-19.0-0.1-0.231,A19FWZXTGX663T,3X52SWXE10LAELCT6ESTJVPQIDRWCT,37U1UTWH9Z26G53OGA7KJUHDUJQR8B,3,4
232,3,object_06,object_03,616.0,6,2,119.0,0.8888888888888888,2,object_07,5,2900,0,1,8,library_8,2,memory-2step-stake-s,726,2708079,0.0-19.0-0.1-0.232,A19FWZXTGX663T,3X52SWXE10LAELCT6ESTJVPQIDRWCT,37U1UTWH9Z26G53OGA7KJUHDUJQR8B,5,6
233,2,object_09,object_08,855.0,4,2,97.0,1.0,2,object_07,5,2945,0,2,9,forest_6,2,memory-2step-stake-s,727,2716549,0.0-19.0-0.1-0.233,A19FWZXTGX663T,3X52SWXE10LAELCT6ESTJVPQIDRWCT,37U1UTWH9Z26G53OGA7KJUHDUJQR8B,3,4
234,1,object_02,object_05,738.0,2,1,73.0,1.0,2,object_07,5,2990,0,1,9,desert_3,2,memory-2step-stake-s,728,2724959,0.0-19.0-0.1-0.234,A19FWZXTGX663T,3X52SWXE10LAELCT6ESTJVPQIDRWCT,37U1UTWH9Z26G53OGA7KJUHDUJQR8B,2,1
235,3,object_03,object_06,814.0,6,1,644.0,1.0,2,object_07,1,2999,0,2,9,library_1,2,memory-2step-stake-s,729,2733929,0.0-19.0-0.1-0.235,A19FWZXTGX663T,3X52SWXE10LAELCT6ESTJVPQIDRWCT,37U1UTWH9Z26G53OGA7KJUHDUJQR8B,6,5
236,3,object_06,object_03,482.0,6,2,26.0,0.8888888888888888,2,object_07,5,3039,0,0,8,library_8,2,memory-2step-stake-s,730,2742138,0.0-19.0-0.1-0.236,A19FWZXTGX663T,3X52SWXE10LAELCT6ESTJVPQIDRWCT,37U1UTWH9Z26G53OGA7KJUHDUJQR8B,5,6
237,1,object_05,object_02,852.0,2,2,48.0,0.5555555555555556,2,object_07,5,3064,0,0,5,desert_1,2,memory-2step-stake-s,731,2750049,0.0-19.0-0.1-0.237,A19FWZXTGX663T,3X52SWXE10LAELCT6ESTJVPQIDRWCT,37U1UTWH9Z26G53OGA7KJUHDUJQR8B,1,2
238,1,object_05,object_02,633.0,2,2,25.0,0.1111111111111111,2,object_07,5,3069,0,1,1,desert_2,2,memory-2step-stake-s,732,2757479,0.0-19.0-0.1-0.238,A19FWZXTGX663T,3X52SWXE10LAELCT6ESTJVPQIDRWCT,37U1UTWH9Z26G53OGA7KJUHDUJQR8B,1,2
239,2,object_08,object_09,892.0,3,2,33.0,0.2222222222222222,1,object_10,5,3079,0,2,4,forest_1,2,memory-2step-stake-s,733,2765049,0.0-19.0-0.1-0.239,A19FWZXTGX663T,3X52SWXE10LAELCT6ESTJVPQIDRWCT,37U1UTWH9Z26G53OGA7KJUHDUJQR8B,4,3
240,4,object_01,object_04,699.0,8,2,33.0,0.5555555555555556,2,object_07,1,3084,0,1,5,restaurant_2,2,memory-2step-stake-s,734,2772939,0.0-19.0-0.1-0.240,A19FWZXTGX663T,3X52SWXE10LAELCT6ESTJVPQIDRWCT,37U1UTWH9Z26G53OGA7KJUHDUJQR8B,7,8
241,4,object_01,object_04,521.0,8,2,91.0,0.6666666666666666,2,object_07,1,3090,0,2,6,restaurant_1,2,memory-2step-stake-s,735,2780989,0.0-19.0-0.1-0.241,A19FWZXTGX663T,3X52SWXE10LAELCT6ESTJVPQIDRWCT,37U1UTWH9Z26G53OGA7KJUHDUJQR8B,7,8
242,3,object_06,object_03,657.0,6,2,57.0,0.8888888888888888,2,object_07,5,3130,0,0,8,library_7,2,memory-2step-stake-s,736,2789249,0.0-19.0-0.1-0.242,A19FWZXTGX663T,3X52SWXE10LAELCT6ESTJVPQIDRWCT,37U1UTWH9Z26G53OGA7KJUHDUJQR8B,5,6
243,1,object_02,object_05,516.0,2,1,45.0,0.7777777777777778,2,object_07,5,3165,0,1,7,desert_2,2,memory-2step-stake-s,737,2797469,0.0-19.0-0.1-0.243,A19FWZXTGX663T,3X52SWXE10LAELCT6ESTJVPQIDRWCT,37U1UTWH9Z26G53OGA7KJUHDUJQR8B,2,1
244,3,object_03,object_06,615.0,6,1,87.0,0.8888888888888888,2,object_07,1,3173,0,2,8,library_1,2,memory-2step-stake-s,738,2805809,0.0-19.0-0.1-0.244,A19FWZXTGX663T,3X52SWXE10LAELCT6ESTJVPQIDRWCT,37U1UTWH9Z26G53OGA7KJUHDUJQR8B,6,5
245,1,object_02,object_05,406.0,2,1,76.0,1.0,2,object_07,5,3218,0,3,9,desert_1,2,memory-2step-stake-s,739,2814269,0.0-19.0-0.1-0.245,A19FWZXTGX663T,3X52SWXE10LAELCT6ESTJVPQIDRWCT,37U1UTWH9Z26G53OGA7KJUHDUJQR8B,2,1
246,2,object_08,object_09,872.0,4,1,61.0,0.5555555555555556,2,object_07,5,3243,0,3,5,forest_1,2,memory-2step-stake-s,740,2822172,0.0-19.0-0.1-0.246,A19FWZXTGX663T,3X52SWXE10LAELCT6ESTJVPQIDRWCT,37U1UTWH9Z26G53OGA7KJUHDUJQR8B,4,3
247,2,object_09,object_08,866.0,4,2,173.0,0.5555555555555556,2,object_07,5,3268,0,6,5,forest_3,2,memory-2step-stake-s,741,2830169,0.0-19.0-0.1-0.247,A19FWZXTGX663T,3X52SWXE10LAELCT6ESTJVPQIDRWCT,37U1UTWH9Z26G53OGA7KJUHDUJQR8B,3,4
248,4,object_01,object_04,652.0,8,2,88.0,0.6666666666666666,2,object_07,1,3274,0,2,6,restaurant_3,2,memory-2step-stake-s,742,2838186,0.0-19.0-0.1-0.248,A19FWZXTGX663T,3X52SWXE10LAELCT6ESTJVPQIDRWCT,37U1UTWH9Z26G53OGA7KJUHDUJQR8B,7,8
249,3,object_03,object_06,521.0,5,2,66.0,0.3333333333333333,1,object_10,1,3277,0,3,7,library_1,2,memory-2step-stake-s,743,2845846,0.0-19.0-0.1-0.249,A19FWZXTGX663T,3X52SWXE10LAELCT6ESTJVPQIDRWCT,37U1UTWH9Z26G53OGA7KJUHDUJQR8B,6,5
250,1,object_05,object_02,709.0,2,2,21.0,1.0,2,object_07,5,3322,0,1,9,desert_7,2,memory-2step-stake-s,744,2854116,0.0-19.0-0.1-0.250,A19FWZXTGX663T,3X52SWXE10LAELCT6ESTJVPQIDRWCT,37U1UTWH9Z26G53OGA7KJUHDUJQR8B,1,2
251,3,object_06,object_03,694.0,6,2,68.0,0.6666666666666666,2,object_07,1,3328,0,0,6,library_5,2,memory-2step-stake-s,745,2862144,0.0-19.0-0.1-0.251,A19FWZXTGX663T,3X52SWXE10LAELCT6ESTJVPQIDRWCT,37U1UTWH9Z26G53OGA7KJUHDUJQR8B,5,6
252,1,object_05,object_02,719.0,2,2,7.0,0.6666666666666666,2,object_07,5,3358,0,2,6,desert_7,2,memory-2step-stake-s,746,2870059,0.0-19.0-0.1-0.252,A19FWZXTGX663T,3X52SWXE10LAELCT6ESTJVPQIDRWCT,37U1UTWH9Z26G53OGA7KJUHDUJQR8B,1,2
253,3,object_03,object_06,455.0,6,1,1.0,0.8888888888888888,2,object_07,1,3366,0,3,8,library_8,2,memory-2step-stake-s,747,2878209,0.0-19.0-0.1-0.253,A19FWZXTGX663T,3X52SWXE10LAELCT6ESTJVPQIDRWCT,37U1UTWH9Z26G53OGA7KJUHDUJQR8B,6,5
254,2,object_08,object_09,864.0,4,1,122.0,0.7777777777777778,2,object_07,5,3401,0,6,7,forest_3,2,memory-2step-stake-s,748,2886325,0.0-19.0-0.1-0.254,A19FWZXTGX663T,3X52SWXE10LAELCT6ESTJVPQIDRWCT,37U1UTWH9Z26G53OGA7KJUHDUJQR8B,4,3
255,4,object_01,object_04,795.0,8,2,50.0,0.7777777777777778,2,object_07,1,3408,0,6,7,restaurant_3,2,memory-2step-stake-s,749,2894359,0.0-19.0-0.1-0.255,A19FWZXTGX663T,3X52SWXE10LAELCT6ESTJVPQIDRWCT,37U1UTWH9Z26G53OGA7KJUHDUJQR8B,7,8
