,state1,stim_left,stim_right,rt_1,choice1,response1,rt_2,points,state2,stim_state2,stake,score,practice,rews1,rews2,background,high_arm,trial_type,trial_index,time_elapsed,internal_node_id,subid,hitid,assignmentid,stim_left_num,stim_right_num
0,3,object_01,object_10,1281.7000000002,6,2,-1.0,0.0,2,object_08,1,0,0,2,1,library_1,2,memory-2step-stake-s,495,1259109,0.0-19.0-0.0-0.0,A2CEGS0NVDBCPT,3YGE63DIOBDQKTHDUYZ9OUNPB7QW00,33L7PJKHCKEJWKGGKZCFJ9IVQC98TF,5,6
1,4,object_07,object_02,834.89999999944,7,1,606.39999999944,0.2222222222222222,1,object_09,1,2,0,2,0,restaurant_8,2,memory-2step-stake-s,496,1267138,0.0-19.0-0.0-0.1,A2CEGS0NVDBCPT,3YGE63DIOBDQKTHDUYZ9OUNPB7QW00,33L7PJKHCKEJWKGGKZCFJ9IVQC98TF,7,8
2,1,object_05,object_03,1017.2000000002,1,1,670.20000000019,0.3333333333333333,1,object_09,5,17,0,3,3,desert_2,2,memory-2step-stake-s,497,1275342,0.0-19.0-0.0-0.2,A2CEGS0NVDBCPT,3YGE63DIOBDQKTHDUYZ9OUNPB7QW00,33L7PJKHCKEJWKGGKZCFJ9IVQC98TF,1,2
3,1,object_05,object_03,352.79999999981,2,2,369.60000000056,0.5555555555555556,2,object_08,5,42,0,1,5,desert_7,2,memory-2step-stake-s,498,1283438,0.0-19.0-0.0-0.3,A2CEGS0NVDBCPT,3YGE63DIOBDQKTHDUYZ9OUNPB7QW00,33L7PJKHCKEJWKGGKZCFJ9IVQC98TF,1,2
4,4,object_02,object_07,316.79999999981,8,1,437.20000000019,0.4444444444444444,2,object_08,1,46,0,4,4,restaurant_8,2,memory-2step-stake-s,499,1291509,0.0-19.0-0.0-0.4,A2CEGS0NVDBCPT,3YGE63DIOBDQKTHDUYZ9OUNPB7QW00,33L7PJKHCKEJWKGGKZCFJ9IVQC98TF,8,7
5,1,object_05,object_03,461.39999999944,2,2,592.70000000019,0.8888888888888888,2,object_08,5,86,0,5,8,desert_7,2,memory-2step-stake-s,500,1300146,0.0-19.0-0.0-0.5,A2CEGS0NVDBCPT,3YGE63DIOBDQKTHDUYZ9OUNPB7QW00,33L7PJKHCKEJWKGGKZCFJ9IVQC98TF,1,2
6,4,object_02,object_07,341.0,8,1,488.20000000019,0.7777777777777778,2,object_08,1,93,0,6,7,restaurant_3,2,memory-2step-stake-s,501,1308568,0.0-19.0-0.0-0.6,A2CEGS0NVDBCPT,3YGE63DIOBDQKTHDUYZ9OUNPB7QW00,33L7PJKHCKEJWKGGKZCFJ9IVQC98TF,8,7
7,4,object_07,object_02,579.10000000056,7,1,462.19999999925,0.6666666666666666,1,object_09,1,99,0,6,3,restaurant_6,2,memory-2step-stake-s,502,1316861,0.0-19.0-0.0-0.7,A2CEGS0NVDBCPT,3YGE63DIOBDQKTHDUYZ9OUNPB7QW00,33L7PJKHCKEJWKGGKZCFJ9IVQC98TF,7,8
8,1,object_05,object_03,932.30000000075,1,1,634.19999999925,0.6666666666666666,1,object_09,5,129,0,6,1,desert_5,2,memory-2step-stake-s,503,1325345,0.0-19.0-0.0-0.8,A2CEGS0NVDBCPT,3YGE63DIOBDQKTHDUYZ9OUNPB7QW00,33L7PJKHCKEJWKGGKZCFJ9IVQC98TF,1,2
9,2,object_06,object_04,714.79999999981,3,2,642.59999999963,0.8888888888888888,1,object_09,1,137,0,8,1,forest_8,2,memory-2step-stake-s,504,1334013,0.0-19.0-0.0-0.9,A2CEGS0NVDBCPT,3YGE63DIOBDQKTHDUYZ9OUNPB7QW00,33L7PJKHCKEJWKGGKZCFJ9IVQC98TF,4,3
10,3,object_01,object_10,898.70000000019,5,1,1283.8000000007,0.6666666666666666,1,object_09,1,143,0,6,2,library_3,2,memory-2step-stake-s,505,1343126,0.0-19.0-0.0-0.10,A2CEGS0NVDBCPT,3YGE63DIOBDQKTHDUYZ9OUNPB7QW00,33L7PJKHCKEJWKGGKZCFJ9IVQC98TF,5,6
11,4,object_07,object_02,-1.0,-1,-1,-1.0,0.0,-,0,1,143,0,8,3,restaurant_6,2,memory-2step-stake-s,506,1349636,0.0-19.0-0.0-0.11,A2CEGS0NVDBCPT,3YGE63DIOBDQKTHDUYZ9OUNPB7QW00,33L7PJKHCKEJWKGGKZCFJ9IVQC98TF,7,8
12,3,object_10,object_01,369.20000000019,6,1,487.29999999981,0.1111111111111111,2,object_08,1,144,0,8,1,library_4,2,memory-2step-stake-s,507,1357437,0.0-19.0-0.0-0.12,A2CEGS0NVDBCPT,3YGE63DIOBDQKTHDUYZ9OUNPB7QW00,33L7PJKHCKEJWKGGKZCFJ9IVQC98TF,6,5
13,1,object_03,object_05,580.5,1,2,340.90000000037,0.5555555555555556,1,object_09,1,149,0,5,3,desert_4,2,memory-2step-stake-s,508,1365500,0.0-19.0-0.0-0.13,A2CEGS0NVDBCPT,3YGE63DIOBDQKTHDUYZ9OUNPB7QW00,33L7PJKHCKEJWKGGKZCFJ9IVQC98TF,2,1
14,1,object_03,object_05,558.90000000037,2,1,433.20000000019,0.1111111111111111,2,object_08,1,150,0,4,1,desert_7,2,memory-2step-stake-s,509,1373250,0.0-19.0-0.0-0.14,A2CEGS0NVDBCPT,3YGE63DIOBDQKTHDUYZ9OUNPB7QW00,33L7PJKHCKEJWKGGKZCFJ9IVQC98TF,2,1
15,1,object_05,object_03,670.09999999963,2,2,396.79999999981,0.3333333333333333,2,object_08,5,165,0,5,3,desert_2,2,memory-2step-stake-s,510,1381163,0.0-19.0-0.0-0.15,A2CEGS0NVDBCPT,3YGE63DIOBDQKTHDUYZ9OUNPB7QW00,33L7PJKHCKEJWKGGKZCFJ9IVQC98TF,1,2
16,3,object_10,object_01,460.5,6,1,727.29999999981,0.1111111111111111,2,object_08,1,166,0,8,1,library_6,2,memory-2step-stake-s,511,1389208,0.0-19.0-0.0-0.16,A2CEGS0NVDBCPT,3YGE63DIOBDQKTHDUYZ9OUNPB7QW00,33L7PJKHCKEJWKGGKZCFJ9IVQC98TF,6,5
17,2,object_04,object_06,680.70000000019,3,1,646.5,0.7777777777777778,1,object_09,5,201,0,7,2,forest_6,2,memory-2step-stake-s,512,1397823,0.0-19.0-0.0-0.17,A2CEGS0NVDBCPT,3YGE63DIOBDQKTHDUYZ9OUNPB7QW00,33L7PJKHCKEJWKGGKZCFJ9IVQC98TF,3,4
18,4,object_07,object_02,797.0,7,1,438.5,0.8888888888888888,1,object_09,1,209,0,8,7,restaurant_8,2,memory-2step-stake-s,513,1406291,0.0-19.0-0.0-0.18,A2CEGS0NVDBCPT,3YGE63DIOBDQKTHDUYZ9OUNPB7QW00,33L7PJKHCKEJWKGGKZCFJ9IVQC98TF,7,8
19,1,object_05,object_03,673.0,1,1,430.70000000019,1.0,1,object_09,5,254,0,9,8,desert_2,2,memory-2step-stake-s,514,1414853,0.0-19.0-0.0-0.19,A2CEGS0NVDBCPT,3YGE63DIOBDQKTHDUYZ9OUNPB7QW00,33L7PJKHCKEJWKGGKZCFJ9IVQC98TF,1,2
20,1,object_05,object_03,626.89999999944,1,1,447.80000000075,0.8888888888888888,1,object_09,5,294,0,8,7,desert_7,2,memory-2step-stake-s,515,1423324,0.0-19.0-0.0-0.20,A2CEGS0NVDBCPT,3YGE63DIOBDQKTHDUYZ9OUNPB7QW00,33L7PJKHCKEJWKGGKZCFJ9IVQC98TF,1,2
21,1,object_03,object_05,737.0,1,2,570.69999999925,0.8888888888888888,1,object_09,5,334,0,8,9,desert_5,2,memory-2step-stake-s,516,1431929,0.0-19.0-0.0-0.21,A2CEGS0NVDBCPT,3YGE63DIOBDQKTHDUYZ9OUNPB7QW00,33L7PJKHCKEJWKGGKZCFJ9IVQC98TF,2,1
22,4,object_02,object_07,1169.1000000006,7,2,753.69999999925,1.0,1,object_09,1,343,0,9,7,restaurant_3,2,memory-2step-stake-s,517,1440836,0.0-19.0-0.0-0.22,A2CEGS0NVDBCPT,3YGE63DIOBDQKTHDUYZ9OUNPB7QW00,33L7PJKHCKEJWKGGKZCFJ9IVQC98TF,8,7
23,1,object_05,object_03,663.29999999981,1,1,765.30000000075,0.7777777777777778,1,object_09,5,378,0,7,7,desert_7,2,memory-2step-stake-s,518,1449551,0.0-19.0-0.0-0.23,A2CEGS0NVDBCPT,3YGE63DIOBDQKTHDUYZ9OUNPB7QW00,33L7PJKHCKEJWKGGKZCFJ9IVQC98TF,1,2
24,3,object_10,object_01,895.70000000019,6,1,560.0,0.7777777777777778,2,object_08,1,385,0,3,7,library_1,2,memory-2step-stake-s,519,1458048,0.0-19.0-0.0-0.24,A2CEGS0NVDBCPT,3YGE63DIOBDQKTHDUYZ9OUNPB7QW00,33L7PJKHCKEJWKGGKZCFJ9IVQC98TF,6,5
25,1,object_03,object_05,685.10000000056,1,2,438.5,0.5555555555555556,1,object_09,5,410,0,5,6,desert_4,2,memory-2step-stake-s,520,1466214,0.0-19.0-0.0-0.25,A2CEGS0NVDBCPT,3YGE63DIOBDQKTHDUYZ9OUNPB7QW00,33L7PJKHCKEJWKGGKZCFJ9IVQC98TF,2,1
26,4,object_02,object_07,623.20000000019,7,2,399.09999999963,0.3333333333333333,1,object_09,1,413,0,3,8,restaurant_7,2,memory-2step-stake-s,521,1474132,0.0-19.0-0.0-0.26,A2CEGS0NVDBCPT,3YGE63DIOBDQKTHDUYZ9OUNPB7QW00,33L7PJKHCKEJWKGGKZCFJ9IVQC98TF,8,7
27,3,object_01,object_10,736.5,6,2,426.70000000019,0.7777777777777778,2,object_08,1,420,0,4,7,library_3,2,memory-2step-stake-s,522,1482486,0.0-19.0-0.0-0.27,A2CEGS0NVDBCPT,3YGE63DIOBDQKTHDUYZ9OUNPB7QW00,33L7PJKHCKEJWKGGKZCFJ9IVQC98TF,5,6
28,3,object_01,object_10,640.5,5,1,479.69999999925,0.2222222222222222,1,object_09,1,422,0,2,9,library_1,2,memory-2step-stake-s,523,1490385,0.0-19.0-0.0-0.28,A2CEGS0NVDBCPT,3YGE63DIOBDQKTHDUYZ9OUNPB7QW00,33L7PJKHCKEJWKGGKZCFJ9IVQC98TF,5,6
29,3,object_01,object_10,811.0,5,1,440.59999999963,0.3333333333333333,1,object_09,1,425,0,3,8,library_4,2,memory-2step-stake-s,524,1498351,0.0-19.0-0.0-0.29,A2CEGS0NVDBCPT,3YGE63DIOBDQKTHDUYZ9OUNPB7QW00,33L7PJKHCKEJWKGGKZCFJ9IVQC98TF,5,6
30,4,object_02,object_07,1110.0999999996,8,1,395.70000000019,0.7777777777777778,2,object_08,1,432,0,3,7,restaurant_6,2,memory-2step-stake-s,525,1506667,0.0-19.0-0.0-0.30,A2CEGS0NVDBCPT,3YGE63DIOBDQKTHDUYZ9OUNPB7QW00,33L7PJKHCKEJWKGGKZCFJ9IVQC98TF,8,7
31,1,object_03,object_05,746.60000000056,1,2,267.20000000019,0.0,1,object_09,5,432,0,0,5,desert_2,2,memory-2step-stake-s,526,1514153,0.0-19.0-0.0-0.31,A2CEGS0NVDBCPT,3YGE63DIOBDQKTHDUYZ9OUNPB7QW00,33L7PJKHCKEJWKGGKZCFJ9IVQC98TF,2,1
32,3,object_10,object_01,970.5,6,1,435.59999999963,1.0,2,object_08,1,441,0,0,9,library_3,2,memory-2step-stake-s,527,1522716,0.0-19.0-0.0-0.32,A2CEGS0NVDBCPT,3YGE63DIOBDQKTHDUYZ9OUNPB7QW00,33L7PJKHCKEJWKGGKZCFJ9IVQC98TF,6,5
33,3,object_01,object_10,925.69999999925,5,1,453.09999999963,0.3333333333333333,1,object_09,5,456,0,3,8,library_1,2,memory-2step-stake-s,528,1530693,0.0-19.0-0.0-0.33,A2CEGS0NVDBCPT,3YGE63DIOBDQKTHDUYZ9OUNPB7QW00,33L7PJKHCKEJWKGGKZCFJ9IVQC98TF,5,6
34,4,object_02,object_07,1092.9000000004,7,2,524.40000000037,0.5555555555555556,1,object_09,5,481,0,5,8,restaurant_8,2,memory-2step-stake-s,529,1538943,0.0-19.0-0.0-0.34,A2CEGS0NVDBCPT,3YGE63DIOBDQKTHDUYZ9OUNPB7QW00,33L7PJKHCKEJWKGGKZCFJ9IVQC98TF,8,7
35,4,object_02,object_07,830.5,7,2,432.10000000056,0.5555555555555556,1,object_09,1,486,0,5,7,restaurant_7,2,memory-2step-stake-s,530,1547112,0.0-19.0-0.0-0.35,A2CEGS0NVDBCPT,3YGE63DIOBDQKTHDUYZ9OUNPB7QW00,33L7PJKHCKEJWKGGKZCFJ9IVQC98TF,8,7
36,3,object_01,object_10,781.70000000019,6,2,411.5,0.6666666666666666,2,object_08,5,516,0,3,6,library_3,2,memory-2step-stake-s,531,1555369,0.0-19.0-0.0-0.36,A2CEGS0NVDBCPT,3YGE63DIOBDQKTHDUYZ9OUNPB7QW00,33L7PJKHCKEJWKGGKZCFJ9IVQC98TF,5,6
37,2,object_04,object_06,721.90000000037,3,1,437.89999999944,0.7777777777777778,1,object_09,5,551,0,7,9,forest_1,2,memory-2step-stake-s,532,1563743,0.0-19.0-0.0-0.37,A2CEGS0NVDBCPT,3YGE63DIOBDQKTHDUYZ9OUNPB7QW00,33L7PJKHCKEJWKGGKZCFJ9IVQC98TF,3,4
38,3,object_10,object_01,1181.8999999994,5,2,503.19999999925,0.8888888888888888,1,object_09,1,559,0,8,7,library_1,2,memory-2step-stake-s,533,1572307,0.0-19.0-0.0-0.38,A2CEGS0NVDBCPT,3YGE63DIOBDQKTHDUYZ9OUNPB7QW00,33L7PJKHCKEJWKGGKZCFJ9IVQC98TF,6,5
39,3,object_01,object_10,893.40000000037,6,2,455.09999999963,0.8888888888888888,2,object_08,1,567,0,8,8,library_1,2,memory-2step-stake-s,534,1580817,0.0-19.0-0.0-0.39,A2CEGS0NVDBCPT,3YGE63DIOBDQKTHDUYZ9OUNPB7QW00,33L7PJKHCKEJWKGGKZCFJ9IVQC98TF,5,6
40,1,object_05,object_03,782.0,1,1,433.0,0.7777777777777778,1,object_09,5,602,0,7,8,desert_7,2,memory-2step-stake-s,535,1589191,0.0-19.0-0.0-0.40,A2CEGS0NVDBCPT,3YGE63DIOBDQKTHDUYZ9OUNPB7QW00,33L7PJKHCKEJWKGGKZCFJ9IVQC98TF,1,2
41,2,object_06,object_04,934.70000000019,3,2,457.39999999944,0.6666666666666666,1,object_09,5,632,0,6,8,forest_8,2,memory-2step-stake-s,536,1597505,0.0-19.0-0.0-0.41,A2CEGS0NVDBCPT,3YGE63DIOBDQKTHDUYZ9OUNPB7QW00,33L7PJKHCKEJWKGGKZCFJ9IVQC98TF,4,3
42,4,object_02,object_07,784.60000000056,8,1,481.20000000019,0.7777777777777778,2,object_08,5,667,0,8,7,restaurant_7,2,memory-2step-stake-s,537,1605924,0.0-19.0-0.0-0.42,A2CEGS0NVDBCPT,3YGE63DIOBDQKTHDUYZ9OUNPB7QW00,33L7PJKHCKEJWKGGKZCFJ9IVQC98TF,8,7
43,1,object_03,object_05,621.29999999981,1,2,454.90000000037,1.0,1,object_09,5,712,0,9,8,desert_4,2,memory-2step-stake-s,538,1614551,0.0-19.0-0.0-0.43,A2CEGS0NVDBCPT,3YGE63DIOBDQKTHDUYZ9OUNPB7QW00,33L7PJKHCKEJWKGGKZCFJ9IVQC98TF,2,1
44,3,object_10,object_01,1237.5,6,1,672.89999999944,0.8888888888888888,2,object_08,1,720,0,9,8,library_1,2,memory-2step-stake-s,539,1623254,0.0-19.0-0.0-0.44,A2CEGS0NVDBCPT,3YGE63DIOBDQKTHDUYZ9OUNPB7QW00,33L7PJKHCKEJWKGGKZCFJ9IVQC98TF,6,5
45,2,object_06,object_04,1191.2000000002,4,1,950.70000000019,0.5555555555555556,2,object_08,5,745,0,9,5,forest_6,2,memory-2step-stake-s,540,1631929,0.0-19.0-0.0-0.45,A2CEGS0NVDBCPT,3YGE63DIOBDQKTHDUYZ9OUNPB7QW00,33L7PJKHCKEJWKGGKZCFJ9IVQC98TF,4,3
46,1,object_05,object_03,792.19999999925,1,1,413.70000000019,0.8888888888888888,1,object_09,5,785,0,8,4,desert_7,2,memory-2step-stake-s,541,1640400,0.0-19.0-0.0-0.46,A2CEGS0NVDBCPT,3YGE63DIOBDQKTHDUYZ9OUNPB7QW00,33L7PJKHCKEJWKGGKZCFJ9IVQC98TF,1,2
47,3,object_01,object_10,446.0,6,2,487.29999999981,0.4444444444444444,2,object_08,1,789,0,9,4,library_4,2,memory-2step-stake-s,542,1648520,0.0-19.0-0.0-0.47,A2CEGS0NVDBCPT,3YGE63DIOBDQKTHDUYZ9OUNPB7QW00,33L7PJKHCKEJWKGGKZCFJ9IVQC98TF,5,6
48,3,object_01,object_10,943.70000000019,6,2,405.0,0.4444444444444444,2,object_08,1,793,0,9,4,library_1,2,memory-2step-stake-s,543,1656553,0.0-19.0-0.0-0.48,A2CEGS0NVDBCPT,3YGE63DIOBDQKTHDUYZ9OUNPB7QW00,33L7PJKHCKEJWKGGKZCFJ9IVQC98TF,5,6
49,4,object_07,object_02,901.20000000019,8,2,327.0,0.4444444444444444,2,object_08,1,797,0,7,4,restaurant_7,2,memory-2step-stake-s,544,1664498,0.0-19.0-0.0-0.49,A2CEGS0NVDBCPT,3YGE63DIOBDQKTHDUYZ9OUNPB7QW00,33L7PJKHCKEJWKGGKZCFJ9IVQC98TF,7,8
50,3,object_10,object_01,1045.4000000004,5,2,409.20000000019,0.5555555555555556,1,object_09,1,802,0,5,3,library_1,2,memory-2step-stake-s,545,1672625,0.0-19.0-0.0-0.50,A2CEGS0NVDBCPT,3YGE63DIOBDQKTHDUYZ9OUNPB7QW00,33L7PJKHCKEJWKGGKZCFJ9IVQC98TF,6,5
51,3,object_01,object_10,777.5,5,1,493.70000000019,0.5555555555555556,1,object_09,1,807,0,5,1,library_6,2,memory-2step-stake-s,546,1680838,0.0-19.0-0.0-0.51,A2CEGS0NVDBCPT,3YGE63DIOBDQKTHDUYZ9OUNPB7QW00,33L7PJKHCKEJWKGGKZCFJ9IVQC98TF,5,6
52,3,object_10,object_01,638.90000000037,6,1,378.29999999981,0.3333333333333333,2,object_08,5,822,0,7,3,library_4,2,memory-2step-stake-s,547,1688741,0.0-19.0-0.0-0.52,A2CEGS0NVDBCPT,3YGE63DIOBDQKTHDUYZ9OUNPB7QW00,33L7PJKHCKEJWKGGKZCFJ9IVQC98TF,6,5
53,2,object_06,object_04,769.59999999963,3,2,399.89999999944,1.0,1,object_09,5,867,0,9,5,forest_8,2,memory-2step-stake-s,548,1697264,0.0-19.0-0.0-0.53,A2CEGS0NVDBCPT,3YGE63DIOBDQKTHDUYZ9OUNPB7QW00,33L7PJKHCKEJWKGGKZCFJ9IVQC98TF,4,3
54,1,object_05,object_03,761.5,1,1,376.5,0.8888888888888888,1,object_09,5,907,0,8,3,desert_4,2,memory-2step-stake-s,549,1705671,0.0-19.0-0.0-0.54,A2CEGS0NVDBCPT,3YGE63DIOBDQKTHDUYZ9OUNPB7QW00,33L7PJKHCKEJWKGGKZCFJ9IVQC98TF,1,2
55,2,object_04,object_06,398.40000000037,3,1,479.89999999944,0.8888888888888888,1,object_09,1,915,0,8,4,forest_7,2,memory-2step-stake-s,550,1714200,0.0-19.0-0.0-0.55,A2CEGS0NVDBCPT,3YGE63DIOBDQKTHDUYZ9OUNPB7QW00,33L7PJKHCKEJWKGGKZCFJ9IVQC98TF,3,4
56,4,object_07,object_02,807.29999999981,8,2,393.39999999944,0.4444444444444444,2,object_08,1,919,0,7,4,restaurant_3,2,memory-2step-stake-s,551,1722210,0.0-19.0-0.0-0.56,A2CEGS0NVDBCPT,3YGE63DIOBDQKTHDUYZ9OUNPB7QW00,33L7PJKHCKEJWKGGKZCFJ9IVQC98TF,7,8
57,1,object_03,object_05,563.29999999981,2,1,310.20000000019,0.2222222222222222,2,object_08,5,929,0,9,2,desert_4,2,memory-2step-stake-s,552,1729946,0.0-19.0-0.0-0.57,A2CEGS0NVDBCPT,3YGE63DIOBDQKTHDUYZ9OUNPB7QW00,33L7PJKHCKEJWKGGKZCFJ9IVQC98TF,2,1
58,4,object_02,object_07,455.60000000056,7,2,529.29999999981,0.7777777777777778,1,object_09,5,964,0,7,3,restaurant_8,2,memory-2step-stake-s,553,1738400,0.0-19.0-0.0-0.58,A2CEGS0NVDBCPT,3YGE63DIOBDQKTHDUYZ9OUNPB7QW00,33L7PJKHCKEJWKGGKZCFJ9IVQC98TF,8,7
59,3,object_01,object_10,487.59999999963,5,1,437.59999999963,0.7777777777777778,1,object_09,5,999,0,7,0,library_3,2,memory-2step-stake-s,554,1746765,0.0-19.0-0.0-0.59,A2CEGS0NVDBCPT,3YGE63DIOBDQKTHDUYZ9OUNPB7QW00,33L7PJKHCKEJWKGGKZCFJ9IVQC98TF,5,6
60,2,object_04,object_06,770.60000000056,3,1,383.70000000019,1.0,1,object_09,1,1008,0,9,0,forest_1,2,memory-2step-stake-s,555,1755331,0.0-19.0-0.0-0.60,A2CEGS0NVDBCPT,3YGE63DIOBDQKTHDUYZ9OUNPB7QW00,33L7PJKHCKEJWKGGKZCFJ9IVQC98TF,3,4
61,3,object_10,object_01,516.5,6,1,386.20000000019,0.2222222222222222,2,object_08,5,1018,0,7,2,library_4,2,memory-2step-stake-s,556,1763140,0.0-19.0-0.0-0.61,A2CEGS0NVDBCPT,3YGE63DIOBDQKTHDUYZ9OUNPB7QW00,33L7PJKHCKEJWKGGKZCFJ9IVQC98TF,6,5
62,4,object_02,object_07,970.10000000056,7,2,479.0,0.6666666666666666,1,object_09,1,1024,0,6,2,restaurant_3,2,memory-2step-stake-s,557,1771453,0.0-19.0-0.0-0.62,A2CEGS0NVDBCPT,3YGE63DIOBDQKTHDUYZ9OUNPB7QW00,33L7PJKHCKEJWKGGKZCFJ9IVQC98TF,8,7
63,3,object_01,object_10,782.29999999981,6,2,343.29999999981,0.1111111111111111,2,object_08,5,1029,0,7,1,library_1,2,memory-2step-stake-s,558,1779117,0.0-19.0-0.0-0.63,A2CEGS0NVDBCPT,3YGE63DIOBDQKTHDUYZ9OUNPB7QW00,33L7PJKHCKEJWKGGKZCFJ9IVQC98TF,5,6
64,3,object_01,object_10,711.90000000037,5,1,425.5,0.6666666666666666,1,object_09,1,1035,0,6,2,library_4,2,memory-2step-stake-s,559,1787399,0.0-19.0-0.0-0.64,A2CEGS0NVDBCPT,3YGE63DIOBDQKTHDUYZ9OUNPB7QW00,33L7PJKHCKEJWKGGKZCFJ9IVQC98TF,5,6
65,3,object_10,object_01,731.89999999944,5,2,323.0,0.7777777777777778,1,object_09,1,1042,0,7,1,library_4,2,memory-2step-stake-s,560,1795649,0.0-19.0-0.0-0.65,A2CEGS0NVDBCPT,3YGE63DIOBDQKTHDUYZ9OUNPB7QW00,33L7PJKHCKEJWKGGKZCFJ9IVQC98TF,6,5
66,2,object_06,object_04,540.60000000056,4,1,437.90000000037,0.3333333333333333,2,object_08,5,1057,0,7,3,forest_1,2,memory-2step-stake-s,561,1803646,0.0-19.0-0.0-0.66,A2CEGS0NVDBCPT,3YGE63DIOBDQKTHDUYZ9OUNPB7QW00,33L7PJKHCKEJWKGGKZCFJ9IVQC98TF,4,3
67,2,object_06,object_04,635.0,4,1,492.60000000056,0.2222222222222222,2,object_08,5,1067,0,9,2,forest_6,2,memory-2step-stake-s,562,1811559,0.0-19.0-0.0-0.67,A2CEGS0NVDBCPT,3YGE63DIOBDQKTHDUYZ9OUNPB7QW00,33L7PJKHCKEJWKGGKZCFJ9IVQC98TF,4,3
68,2,object_04,object_06,724.90000000037,4,2,342.29999999981,0.2222222222222222,2,object_08,1,1069,0,8,2,forest_7,2,memory-2step-stake-s,563,1819335,0.0-19.0-0.0-0.68,A2CEGS0NVDBCPT,3YGE63DIOBDQKTHDUYZ9OUNPB7QW00,33L7PJKHCKEJWKGGKZCFJ9IVQC98TF,3,4
69,3,object_01,object_10,612.20000000019,6,2,348.09999999963,0.1111111111111111,2,object_08,1,1070,0,8,1,library_6,2,memory-2step-stake-s,564,1826998,0.0-19.0-0.0-0.69,A2CEGS0NVDBCPT,3YGE63DIOBDQKTHDUYZ9OUNPB7QW00,33L7PJKHCKEJWKGGKZCFJ9IVQC98TF,5,6
70,1,object_05,object_03,364.80000000075,1,1,420.30000000075,0.6666666666666666,1,object_09,5,1100,0,6,0,desert_7,2,memory-2step-stake-s,565,1835275,0.0-19.0-0.0-0.70,A2CEGS0NVDBCPT,3YGE63DIOBDQKTHDUYZ9OUNPB7QW00,33L7PJKHCKEJWKGGKZCFJ9IVQC98TF,1,2
71,3,object_10,object_01,476.90000000037,6,1,477.19999999925,0.2222222222222222,2,object_08,1,1102,0,8,2,library_3,2,memory-2step-stake-s,566,1843174,0.0-19.0-0.0-0.71,A2CEGS0NVDBCPT,3YGE63DIOBDQKTHDUYZ9OUNPB7QW00,33L7PJKHCKEJWKGGKZCFJ9IVQC98TF,6,5
72,2,object_06,object_04,956.40000000037,3,2,537.90000000037,0.7777777777777778,1,object_09,1,1109,0,7,1,forest_6,2,memory-2step-stake-s,567,1851643,0.0-19.0-0.0-0.72,A2CEGS0NVDBCPT,3YGE63DIOBDQKTHDUYZ9OUNPB7QW00,33L7PJKHCKEJWKGGKZCFJ9IVQC98TF,4,3
73,4,object_02,object_07,857.70000000112,8,1,558.29999999888,0.0,2,object_08,1,1109,0,8,0,restaurant_6,2,memory-2step-stake-s,568,1859427,0.0-19.0-0.0-0.73,A2CEGS0NVDBCPT,3YGE63DIOBDQKTHDUYZ9OUNPB7QW00,33L7PJKHCKEJWKGGKZCFJ9IVQC98TF,8,7
74,4,object_07,object_02,1379.5999999996,8,2,440.80000000075,0.4444444444444444,2,object_08,1,1113,0,7,4,restaurant_8,2,memory-2step-stake-s,569,1867506,0.0-19.0-0.0-0.74,A2CEGS0NVDBCPT,3YGE63DIOBDQKTHDUYZ9OUNPB7QW00,33L7PJKHCKEJWKGGKZCFJ9IVQC98TF,7,8
75,4,object_07,object_02,338.79999999888,7,1,1050.7000000011,0.8888888888888888,1,object_09,1,1121,0,8,4,restaurant_6,2,memory-2step-stake-s,570,1876596,0.0-19.0-0.0-0.75,A2CEGS0NVDBCPT,3YGE63DIOBDQKTHDUYZ9OUNPB7QW00,33L7PJKHCKEJWKGGKZCFJ9IVQC98TF,7,8
76,1,object_03,object_05,628.90000000037,1,2,413.0,0.5555555555555556,1,object_09,5,1146,0,5,0,desert_5,2,memory-2step-stake-s,571,1884744,0.0-19.0-0.0-0.76,A2CEGS0NVDBCPT,3YGE63DIOBDQKTHDUYZ9OUNPB7QW00,33L7PJKHCKEJWKGGKZCFJ9IVQC98TF,2,1
77,3,object_10,object_01,926.0,6,1,445.40000000037,0.0,2,object_08,1,1146,0,6,0,library_6,2,memory-2step-stake-s,572,1892412,0.0-19.0-0.0-0.77,A2CEGS0NVDBCPT,3YGE63DIOBDQKTHDUYZ9OUNPB7QW00,33L7PJKHCKEJWKGGKZCFJ9IVQC98TF,6,5
78,2,object_04,object_06,-1.0,-1,-1,-1.0,0.0,-,0,5,1146,0,8,2,forest_6,2,memory-2step-stake-s,573,1898921,0.0-19.0-0.0-0.78,A2CEGS0NVDBCPT,3YGE63DIOBDQKTHDUYZ9OUNPB7QW00,33L7PJKHCKEJWKGGKZCFJ9IVQC98TF,3,4
79,4,object_07,object_02,498.29999999888,7,1,457.59999999963,0.8888888888888888,1,object_09,1,1154,0,8,5,restaurant_3,2,memory-2step-stake-s,574,1907415,0.0-19.0-0.0-0.79,A2CEGS0NVDBCPT,3YGE63DIOBDQKTHDUYZ9OUNPB7QW00,33L7PJKHCKEJWKGGKZCFJ9IVQC98TF,7,8
80,2,object_06,object_04,533.0,4,1,396.20000000112,0.5555555555555556,2,object_08,5,1179,0,9,5,forest_8,2,memory-2step-stake-s,575,1915540,0.0-19.0-0.0-0.80,A2CEGS0NVDBCPT,3YGE63DIOBDQKTHDUYZ9OUNPB7QW00,33L7PJKHCKEJWKGGKZCFJ9IVQC98TF,4,3
81,2,object_06,object_04,528.80000000075,4,1,399.80000000075,0.2222222222222222,2,object_08,5,1189,0,7,2,forest_8,2,memory-2step-stake-s,576,1923382,0.0-19.0-0.0-0.81,A2CEGS0NVDBCPT,3YGE63DIOBDQKTHDUYZ9OUNPB7QW00,33L7PJKHCKEJWKGGKZCFJ9IVQC98TF,4,3
82,1,object_05,object_03,408.70000000112,2,2,346.29999999888,0.1111111111111111,2,object_08,1,1190,0,8,1,desert_5,2,memory-2step-stake-s,577,1931050,0.0-19.0-0.0-0.82,A2CEGS0NVDBCPT,3YGE63DIOBDQKTHDUYZ9OUNPB7QW00,33L7PJKHCKEJWKGGKZCFJ9IVQC98TF,1,2
83,1,object_03,object_05,418.80000000075,2,1,370.70000000112,0.0,2,object_08,5,1190,0,1,0,desert_7,2,memory-2step-stake-s,578,1938645,0.0-19.0-0.0-0.83,A2CEGS0NVDBCPT,3YGE63DIOBDQKTHDUYZ9OUNPB7QW00,33L7PJKHCKEJWKGGKZCFJ9IVQC98TF,2,1
84,1,object_03,object_05,837.80000000075,1,2,433.09999999963,0.2222222222222222,1,object_09,1,1192,0,2,2,desert_4,2,memory-2step-stake-s,579,1946504,0.0-19.0-0.0-0.84,A2CEGS0NVDBCPT,3YGE63DIOBDQKTHDUYZ9OUNPB7QW00,33L7PJKHCKEJWKGGKZCFJ9IVQC98TF,2,1
85,2,object_06,object_04,610.10000000149,4,1,403.79999999888,0.3333333333333333,2,object_08,5,1207,0,3,3,forest_1,2,memory-2step-stake-s,580,1954440,0.0-19.0-0.0-0.85,A2CEGS0NVDBCPT,3YGE63DIOBDQKTHDUYZ9OUNPB7QW00,33L7PJKHCKEJWKGGKZCFJ9IVQC98TF,4,3
86,3,object_01,object_10,436.89999999851,6,2,404.59999999963,0.3333333333333333,2,object_08,1,1210,0,3,3,library_6,2,memory-2step-stake-s,581,1962369,0.0-19.0-0.0-0.86,A2CEGS0NVDBCPT,3YGE63DIOBDQKTHDUYZ9OUNPB7QW00,33L7PJKHCKEJWKGGKZCFJ9IVQC98TF,5,6
87,1,object_03,object_05,756.70000000112,1,2,332.0,0.0,1,object_09,1,1210,0,0,5,desert_2,2,memory-2step-stake-s,582,1969921,0.0-19.0-0.0-0.87,A2CEGS0NVDBCPT,3YGE63DIOBDQKTHDUYZ9OUNPB7QW00,33L7PJKHCKEJWKGGKZCFJ9IVQC98TF,2,1
88,4,object_07,object_02,371.39999999851,7,1,437.5,0.1111111111111111,1,object_09,1,1211,0,1,9,restaurant_8,2,memory-2step-stake-s,583,1977677,0.0-19.0-0.0-0.88,A2CEGS0NVDBCPT,3YGE63DIOBDQKTHDUYZ9OUNPB7QW00,33L7PJKHCKEJWKGGKZCFJ9IVQC98TF,7,8
89,2,object_06,object_04,439.60000000149,3,2,451.29999999888,0.2222222222222222,1,object_09,5,1221,0,2,6,forest_8,2,memory-2step-stake-s,584,1985550,0.0-19.0-0.0-0.89,A2CEGS0NVDBCPT,3YGE63DIOBDQKTHDUYZ9OUNPB7QW00,33L7PJKHCKEJWKGGKZCFJ9IVQC98TF,4,3
90,2,object_04,object_06,1061.8000000007,3,1,916.60000000149,0.2222222222222222,1,object_09,5,1231,0,2,7,forest_6,2,memory-2step-stake-s,585,1993891,0.0-19.0-0.0-0.90,A2CEGS0NVDBCPT,3YGE63DIOBDQKTHDUYZ9OUNPB7QW00,33L7PJKHCKEJWKGGKZCFJ9IVQC98TF,3,4
91,1,object_03,object_05,901.29999999888,2,1,467.5,0.5555555555555556,2,object_08,5,1256,0,5,5,desert_7,2,memory-2step-stake-s,586,2002081,0.0-19.0-0.0-0.91,A2CEGS0NVDBCPT,3YGE63DIOBDQKTHDUYZ9OUNPB7QW00,33L7PJKHCKEJWKGGKZCFJ9IVQC98TF,2,1
92,2,object_06,object_04,805.69999999925,3,2,453.70000000112,0.1111111111111111,1,object_09,5,1261,0,1,5,forest_8,2,memory-2step-stake-s,587,2009859,0.0-19.0-0.0-0.92,A2CEGS0NVDBCPT,3YGE63DIOBDQKTHDUYZ9OUNPB7QW00,33L7PJKHCKEJWKGGKZCFJ9IVQC98TF,4,3
93,1,object_05,object_03,541.69999999925,1,1,459.80000000075,0.2222222222222222,1,object_09,5,1271,0,2,6,desert_5,2,memory-2step-stake-s,588,2017735,0.0-19.0-0.0-0.93,A2CEGS0NVDBCPT,3YGE63DIOBDQKTHDUYZ9OUNPB7QW00,33L7PJKHCKEJWKGGKZCFJ9IVQC98TF,1,2
94,3,object_10,object_01,612.20000000112,6,1,386.89999999851,0.6666666666666666,2,object_08,1,1277,0,0,6,library_3,2,memory-2step-stake-s,589,2025952,0.0-19.0-0.0-0.94,A2CEGS0NVDBCPT,3YGE63DIOBDQKTHDUYZ9OUNPB7QW00,33L7PJKHCKEJWKGGKZCFJ9IVQC98TF,6,5
95,1,object_03,object_05,803.09999999963,1,2,329.5,0.1111111111111111,1,object_09,5,1282,0,1,8,desert_2,2,memory-2step-stake-s,590,2033597,0.0-19.0-0.0-0.95,A2CEGS0NVDBCPT,3YGE63DIOBDQKTHDUYZ9OUNPB7QW00,33L7PJKHCKEJWKGGKZCFJ9IVQC98TF,2,1
96,1,object_05,object_03,407.09999999963,1,1,380.40000000037,0.1111111111111111,1,object_09,1,1283,0,1,8,desert_4,2,memory-2step-stake-s,591,2041293,0.0-19.0-0.0-0.96,A2CEGS0NVDBCPT,3YGE63DIOBDQKTHDUYZ9OUNPB7QW00,33L7PJKHCKEJWKGGKZCFJ9IVQC98TF,1,2
97,1,object_03,object_05,603.69999999925,2,1,393.29999999888,0.8888888888888888,2,object_08,5,1323,0,4,8,desert_2,2,memory-2step-stake-s,592,2049738,0.0-19.0-0.0-0.97,A2CEGS0NVDBCPT,3YGE63DIOBDQKTHDUYZ9OUNPB7QW00,33L7PJKHCKEJWKGGKZCFJ9IVQC98TF,2,1
98,2,object_04,object_06,1013.3999999985,3,1,368.29999999888,0.1111111111111111,1,object_09,5,1328,0,1,5,forest_8,2,memory-2step-stake-s,593,2057424,0.0-19.0-0.0-0.98,A2CEGS0NVDBCPT,3YGE63DIOBDQKTHDUYZ9OUNPB7QW00,33L7PJKHCKEJWKGGKZCFJ9IVQC98TF,3,4
99,1,object_03,object_05,408.0,2,1,485.0,0.8888888888888888,2,object_08,5,1368,0,4,8,desert_2,2,memory-2step-stake-s,594,2065942,0.0-19.0-0.0-0.99,A2CEGS0NVDBCPT,3YGE63DIOBDQKTHDUYZ9OUNPB7QW00,33L7PJKHCKEJWKGGKZCFJ9IVQC98TF,2,1
100,1,object_05,object_03,475.29999999888,1,1,398.59999999963,0.4444444444444444,1,object_09,5,1388,0,4,8,desert_5,2,memory-2step-stake-s,595,2073958,0.0-19.0-0.0-0.100,A2CEGS0NVDBCPT,3YGE63DIOBDQKTHDUYZ9OUNPB7QW00,33L7PJKHCKEJWKGGKZCFJ9IVQC98TF,1,2
101,2,object_06,object_04,532.09999999963,3,2,459.19999999925,0.5555555555555556,1,object_09,5,1413,0,5,8,forest_1,2,memory-2step-stake-s,596,2082142,0.0-19.0-0.0-0.101,A2CEGS0NVDBCPT,3YGE63DIOBDQKTHDUYZ9OUNPB7QW00,33L7PJKHCKEJWKGGKZCFJ9IVQC98TF,4,3
102,3,object_01,object_10,863.19999999925,6,2,369.5,0.8888888888888888,2,object_08,5,1453,0,5,8,library_6,2,memory-2step-stake-s,597,2090535,0.0-19.0-0.0-0.102,A2CEGS0NVDBCPT,3YGE63DIOBDQKTHDUYZ9OUNPB7QW00,33L7PJKHCKEJWKGGKZCFJ9IVQC98TF,5,6
103,3,object_10,object_01,785.0,6,1,431.90000000037,0.8888888888888888,2,object_08,1,1461,0,3,8,library_6,2,memory-2step-stake-s,598,2098993,0.0-19.0-0.0-0.103,A2CEGS0NVDBCPT,3YGE63DIOBDQKTHDUYZ9OUNPB7QW00,33L7PJKHCKEJWKGGKZCFJ9IVQC98TF,6,5
104,4,object_02,object_07,1214.4000000004,7,2,462.59999999963,0.5555555555555556,1,object_09,5,1486,0,5,8,restaurant_3,2,memory-2step-stake-s,599,2107211,0.0-19.0-0.0-0.104,A2CEGS0NVDBCPT,3YGE63DIOBDQKTHDUYZ9OUNPB7QW00,33L7PJKHCKEJWKGGKZCFJ9IVQC98TF,8,7
105,3,object_10,object_01,288.40000000037,6,1,423.90000000037,0.8888888888888888,2,object_08,1,1494,0,6,8,library_1,2,memory-2step-stake-s,600,2115667,0.0-19.0-0.0-0.105,A2CEGS0NVDBCPT,3YGE63DIOBDQKTHDUYZ9OUNPB7QW00,33L7PJKHCKEJWKGGKZCFJ9IVQC98TF,6,5
106,2,object_06,object_04,564.79999999888,4,1,332.30000000075,0.8888888888888888,2,object_08,5,1534,0,8,8,forest_1,2,memory-2step-stake-s,601,2124024,0.0-19.0-0.0-0.106,A2CEGS0NVDBCPT,3YGE63DIOBDQKTHDUYZ9OUNPB7QW00,33L7PJKHCKEJWKGGKZCFJ9IVQC98TF,4,3
107,3,object_10,object_01,819.30000000075,5,2,422.0,0.8888888888888888,1,object_09,1,1542,0,8,6,library_6,2,memory-2step-stake-s,602,2132473,0.0-19.0-0.0-0.107,A2CEGS0NVDBCPT,3YGE63DIOBDQKTHDUYZ9OUNPB7QW00,33L7PJKHCKEJWKGGKZCFJ9IVQC98TF,6,5
108,3,object_10,object_01,990.90000000037,5,2,348.60000000149,0.6666666666666666,1,object_09,1,1548,0,6,6,library_3,2,memory-2step-stake-s,603,2140653,0.0-19.0-0.0-0.108,A2CEGS0NVDBCPT,3YGE63DIOBDQKTHDUYZ9OUNPB7QW00,33L7PJKHCKEJWKGGKZCFJ9IVQC98TF,6,5
109,4,object_02,object_07,354.59999999963,8,1,353.79999999888,0.6666666666666666,2,object_08,1,1554,0,4,6,restaurant_8,2,memory-2step-stake-s,604,2148830,0.0-19.0-0.0-0.109,A2CEGS0NVDBCPT,3YGE63DIOBDQKTHDUYZ9OUNPB7QW00,33L7PJKHCKEJWKGGKZCFJ9IVQC98TF,8,7
110,1,object_05,object_03,551.19999999925,1,1,345.69999999925,0.3333333333333333,1,object_09,5,1569,0,3,5,desert_5,2,memory-2step-stake-s,605,2156698,0.0-19.0-0.0-0.110,A2CEGS0NVDBCPT,3YGE63DIOBDQKTHDUYZ9OUNPB7QW00,33L7PJKHCKEJWKGGKZCFJ9IVQC98TF,1,2
111,1,object_03,object_05,900.5,1,2,330.0,0.6666666666666666,1,object_09,5,1599,0,6,0,desert_4,2,memory-2step-stake-s,606,2164862,0.0-19.0-0.0-0.111,A2CEGS0NVDBCPT,3YGE63DIOBDQKTHDUYZ9OUNPB7QW00,33L7PJKHCKEJWKGGKZCFJ9IVQC98TF,2,1
112,4,object_02,object_07,775.79999999888,7,2,445.70000000112,0.5555555555555556,1,object_09,5,1624,0,5,3,restaurant_6,2,memory-2step-stake-s,607,2173033,0.0-19.0-0.0-0.112,A2CEGS0NVDBCPT,3YGE63DIOBDQKTHDUYZ9OUNPB7QW00,33L7PJKHCKEJWKGGKZCFJ9IVQC98TF,8,7
113,4,object_02,object_07,378.09999999963,8,1,502.30000000075,0.1111111111111111,2,object_08,1,1625,0,6,1,restaurant_3,2,memory-2step-stake-s,608,2180855,0.0-19.0-0.0-0.113,A2CEGS0NVDBCPT,3YGE63DIOBDQKTHDUYZ9OUNPB7QW00,33L7PJKHCKEJWKGGKZCFJ9IVQC98TF,8,7
114,1,object_05,object_03,666.80000000075,1,1,395.60000000149,0.5555555555555556,1,object_09,5,1650,0,5,3,desert_7,2,memory-2step-stake-s,609,2188971,0.0-19.0-0.0-0.114,A2CEGS0NVDBCPT,3YGE63DIOBDQKTHDUYZ9OUNPB7QW00,33L7PJKHCKEJWKGGKZCFJ9IVQC98TF,1,2
115,1,object_03,object_05,695.29999999888,2,1,289.10000000149,0.2222222222222222,2,object_08,5,1660,0,6,2,desert_5,2,memory-2step-stake-s,610,2196682,0.0-19.0-0.0-0.115,A2CEGS0NVDBCPT,3YGE63DIOBDQKTHDUYZ9OUNPB7QW00,33L7PJKHCKEJWKGGKZCFJ9IVQC98TF,2,1
116,4,object_02,object_07,551.90000000037,8,1,463.60000000149,0.2222222222222222,2,object_08,1,1662,0,7,2,restaurant_8,2,memory-2step-stake-s,611,2204566,0.0-19.0-0.0-0.116,A2CEGS0NVDBCPT,3YGE63DIOBDQKTHDUYZ9OUNPB7QW00,33L7PJKHCKEJWKGGKZCFJ9IVQC98TF,8,7
117,4,object_02,object_07,545.0,7,2,310.69999999925,1.0,1,object_09,1,1671,0,9,2,restaurant_6,2,memory-2step-stake-s,612,2213013,0.0-19.0-0.0-0.117,A2CEGS0NVDBCPT,3YGE63DIOBDQKTHDUYZ9OUNPB7QW00,33L7PJKHCKEJWKGGKZCFJ9IVQC98TF,8,7
118,1,object_05,object_03,739.0,2,2,348.79999999888,0.3333333333333333,2,object_08,5,1686,0,5,3,desert_7,2,memory-2step-stake-s,613,2220888,0.0-19.0-0.0-0.118,A2CEGS0NVDBCPT,3YGE63DIOBDQKTHDUYZ9OUNPB7QW00,33L7PJKHCKEJWKGGKZCFJ9IVQC98TF,1,2
119,4,object_02,object_07,465.60000000149,8,1,860.79999999888,0.1111111111111111,2,object_08,1,1687,0,6,1,restaurant_6,2,memory-2step-stake-s,614,2229067,0.0-19.0-0.0-0.119,A2CEGS0NVDBCPT,3YGE63DIOBDQKTHDUYZ9OUNPB7QW00,33L7PJKHCKEJWKGGKZCFJ9IVQC98TF,8,7
120,1,object_05,object_03,1080.0999999996,1,1,403.19999999925,0.4444444444444444,1,object_09,5,1707,0,4,2,desert_4,2,memory-2step-stake-s,615,2237092,0.0-19.0-0.0-0.120,A2CEGS0NVDBCPT,3YGE63DIOBDQKTHDUYZ9OUNPB7QW00,33L7PJKHCKEJWKGGKZCFJ9IVQC98TF,1,2
121,1,object_03,object_05,710.79999999888,1,2,318.5,0.6666666666666666,1,object_09,1,1713,0,6,2,desert_2,2,memory-2step-stake-s,616,2245240,0.0-19.0-0.0-0.121,A2CEGS0NVDBCPT,3YGE63DIOBDQKTHDUYZ9OUNPB7QW00,33L7PJKHCKEJWKGGKZCFJ9IVQC98TF,2,1
122,2,object_04,object_06,682.59999999963,4,2,501.0,0.2222222222222222,2,object_08,5,1723,0,5,2,forest_7,2,memory-2step-stake-s,617,2253168,0.0-19.0-0.0-0.122,A2CEGS0NVDBCPT,3YGE63DIOBDQKTHDUYZ9OUNPB7QW00,33L7PJKHCKEJWKGGKZCFJ9IVQC98TF,3,4
123,2,object_06,object_04,279.20000000112,4,1,438.09999999963,0.1111111111111111,2,object_08,5,1728,0,2,1,forest_1,2,memory-2step-stake-s,618,2260955,0.0-19.0-0.0-0.123,A2CEGS0NVDBCPT,3YGE63DIOBDQKTHDUYZ9OUNPB7QW00,33L7PJKHCKEJWKGGKZCFJ9IVQC98TF,4,3
124,1,object_05,object_03,1245.0,2,2,405.5,0.2222222222222222,2,object_08,5,1738,0,3,2,desert_4,2,memory-2step-stake-s,619,2268790,0.0-19.0-0.0-0.124,A2CEGS0NVDBCPT,3YGE63DIOBDQKTHDUYZ9OUNPB7QW00,33L7PJKHCKEJWKGGKZCFJ9IVQC98TF,1,2
125,2,object_04,object_06,1121.8000000007,3,1,465.69999999925,0.3333333333333333,1,object_09,5,1753,0,3,0,forest_6,2,memory-2step-stake-s,620,2276781,0.0-19.0-0.0-0.125,A2CEGS0NVDBCPT,3YGE63DIOBDQKTHDUYZ9OUNPB7QW00,33L7PJKHCKEJWKGGKZCFJ9IVQC98TF,3,4
126,2,object_06,object_04,475.89999999851,4,1,341.69999999925,0.1111111111111111,2,object_08,5,1758,0,3,1,forest_7,2,memory-2step-stake-s,621,2284442,0.0-19.0-0.0-0.126,A2CEGS0NVDBCPT,3YGE63DIOBDQKTHDUYZ9OUNPB7QW00,33L7PJKHCKEJWKGGKZCFJ9IVQC98TF,4,3
127,3,object_10,object_01,696.20000000112,5,2,460.80000000075,0.0,1,object_09,1,1758,0,0,2,library_4,2,memory-2step-stake-s,622,2292127,0.0-19.0-0.0-0.127,A2CEGS0NVDBCPT,3YGE63DIOBDQKTHDUYZ9OUNPB7QW00,33L7PJKHCKEJWKGGKZCFJ9IVQC98TF,6,5
128,2,object_06,object_04,669.5,4,1,512.59999999963,0.2222222222222222,2,object_08,5,1768,0,1,2,forest_7,2,memory-2step-stake-s,624,2558309,0.0-19.0-0.1-0.128,A2CEGS0NVDBCPT,3YGE63DIOBDQKTHDUYZ9OUNPB7QW00,33L7PJKHCKEJWKGGKZCFJ9IVQC98TF,4,3
129,1,object_03,object_05,383.40000000037,1,2,314.79999999888,0.0,1,object_09,5,1768,0,0,2,desert_5,2,memory-2step-stake-s,625,2565843,0.0-19.0-0.1-0.129,A2CEGS0NVDBCPT,3YGE63DIOBDQKTHDUYZ9OUNPB7QW00,33L7PJKHCKEJWKGGKZCFJ9IVQC98TF,2,1
130,4,object_02,object_07,268.10000000149,8,1,408.79999999888,0.2222222222222222,2,object_08,1,1770,0,2,2,restaurant_3,2,memory-2step-stake-s,626,2573666,0.0-19.0-0.1-0.130,A2CEGS0NVDBCPT,3YGE63DIOBDQKTHDUYZ9OUNPB7QW00,33L7PJKHCKEJWKGGKZCFJ9IVQC98TF,8,7
131,3,object_01,object_10,439.90000000037,6,2,353.5,0.1111111111111111,2,object_08,1,1771,0,3,1,library_1,2,memory-2step-stake-s,627,2581334,0.0-19.0-0.1-0.131,A2CEGS0NVDBCPT,3YGE63DIOBDQKTHDUYZ9OUNPB7QW00,33L7PJKHCKEJWKGGKZCFJ9IVQC98TF,5,6
132,4,object_07,object_02,284.20000000112,7,1,454.90000000037,0.2222222222222222,1,object_09,1,1773,0,2,4,restaurant_7,2,memory-2step-stake-s,628,2589207,0.0-19.0-0.1-0.132,A2CEGS0NVDBCPT,3YGE63DIOBDQKTHDUYZ9OUNPB7QW00,33L7PJKHCKEJWKGGKZCFJ9IVQC98TF,7,8
133,1,object_03,object_05,954.09999999963,1,2,869.90000000037,0.2222222222222222,1,object_09,5,1783,0,2,3,desert_5,2,memory-2step-stake-s,629,2597494,0.0-19.0-0.1-0.133,A2CEGS0NVDBCPT,3YGE63DIOBDQKTHDUYZ9OUNPB7QW00,33L7PJKHCKEJWKGGKZCFJ9IVQC98TF,2,1
134,3,object_01,object_10,524.69999999925,5,1,950.20000000112,0.1111111111111111,1,object_09,1,1784,0,1,4,library_4,2,memory-2step-stake-s,630,2605763,0.0-19.0-0.1-0.134,A2CEGS0NVDBCPT,3YGE63DIOBDQKTHDUYZ9OUNPB7QW00,33L7PJKHCKEJWKGGKZCFJ9IVQC98TF,5,6
135,1,object_05,object_03,-1.0,-1,-1,-1.0,0.0,-,0,1,1784,0,2,5,desert_4,2,memory-2step-stake-s,631,2612275,0.0-19.0-0.1-0.135,A2CEGS0NVDBCPT,3YGE63DIOBDQKTHDUYZ9OUNPB7QW00,33L7PJKHCKEJWKGGKZCFJ9IVQC98TF,1,2
136,2,object_04,object_06,314.20000000112,3,1,337.20000000112,0.5555555555555556,1,object_09,5,1809,0,5,6,forest_8,2,memory-2step-stake-s,632,2620362,0.0-19.0-0.1-0.136,A2CEGS0NVDBCPT,3YGE63DIOBDQKTHDUYZ9OUNPB7QW00,33L7PJKHCKEJWKGGKZCFJ9IVQC98TF,3,4
137,1,object_03,object_05,140.30000000075,1,2,239.70000000112,0.5555555555555556,1,object_09,5,1834,0,5,1,desert_4,2,memory-2step-stake-s,633,2628344,0.0-19.0-0.1-0.137,A2CEGS0NVDBCPT,3YGE63DIOBDQKTHDUYZ9OUNPB7QW00,33L7PJKHCKEJWKGGKZCFJ9IVQC98TF,2,1
138,1,object_05,object_03,391.80000000075,1,1,284.09999999963,0.8888888888888888,1,object_09,5,1874,0,8,3,desert_2,2,memory-2step-stake-s,634,2636657,0.0-19.0-0.1-0.138,A2CEGS0NVDBCPT,3YGE63DIOBDQKTHDUYZ9OUNPB7QW00,33L7PJKHCKEJWKGGKZCFJ9IVQC98TF,1,2
139,1,object_03,object_05,354.60000000149,1,2,319.69999999925,0.7777777777777778,1,object_09,1,1881,0,7,2,desert_5,2,memory-2step-stake-s,635,2644906,0.0-19.0-0.1-0.139,A2CEGS0NVDBCPT,3YGE63DIOBDQKTHDUYZ9OUNPB7QW00,33L7PJKHCKEJWKGGKZCFJ9IVQC98TF,2,1
140,1,object_05,object_03,532.30000000075,1,1,319.10000000149,0.7777777777777778,1,object_09,5,1916,0,7,0,desert_7,2,memory-2step-stake-s,636,2653149,0.0-19.0-0.1-0.140,A2CEGS0NVDBCPT,3YGE63DIOBDQKTHDUYZ9OUNPB7QW00,33L7PJKHCKEJWKGGKZCFJ9IVQC98TF,1,2
141,2,object_04,object_06,526.79999999888,4,2,341.79999999888,0.1111111111111111,2,object_08,1,1917,0,7,1,forest_6,2,memory-2step-stake-s,637,2660808,0.0-19.0-0.1-0.141,A2CEGS0NVDBCPT,3YGE63DIOBDQKTHDUYZ9OUNPB7QW00,33L7PJKHCKEJWKGGKZCFJ9IVQC98TF,3,4
142,4,object_02,object_07,556.19999999925,8,1,365.59999999963,0.0,2,object_08,1,1917,0,7,0,restaurant_7,2,memory-2step-stake-s,638,2668408,0.0-19.0-0.1-0.142,A2CEGS0NVDBCPT,3YGE63DIOBDQKTHDUYZ9OUNPB7QW00,33L7PJKHCKEJWKGGKZCFJ9IVQC98TF,8,7
143,1,object_05,object_03,349.80000000075,1,1,357.80000000075,0.7777777777777778,1,object_09,5,1952,0,7,4,desert_5,2,memory-2step-stake-s,639,2676692,0.0-19.0-0.1-0.143,A2CEGS0NVDBCPT,3YGE63DIOBDQKTHDUYZ9OUNPB7QW00,33L7PJKHCKEJWKGGKZCFJ9IVQC98TF,1,2
144,3,object_01,object_10,439.0,6,2,402.29999999888,0.2222222222222222,2,object_08,1,1954,0,8,2,library_1,2,memory-2step-stake-s,640,2684509,0.0-19.0-0.1-0.144,A2CEGS0NVDBCPT,3YGE63DIOBDQKTHDUYZ9OUNPB7QW00,33L7PJKHCKEJWKGGKZCFJ9IVQC98TF,5,6
145,2,object_04,object_06,290.40000000037,3,1,314.90000000037,0.7777777777777778,1,object_09,5,1989,0,7,5,forest_6,2,memory-2step-stake-s,641,2692758,0.0-19.0-0.1-0.145,A2CEGS0NVDBCPT,3YGE63DIOBDQKTHDUYZ9OUNPB7QW00,33L7PJKHCKEJWKGGKZCFJ9IVQC98TF,3,4
146,4,object_07,object_02,519.89999999851,7,1,354.59999999963,0.4444444444444444,1,object_09,5,2009,0,4,7,restaurant_8,2,memory-2step-stake-s,642,2700748,0.0-19.0-0.1-0.146,A2CEGS0NVDBCPT,3YGE63DIOBDQKTHDUYZ9OUNPB7QW00,33L7PJKHCKEJWKGGKZCFJ9IVQC98TF,7,8
147,4,object_02,object_07,195.90000000037,7,2,283.90000000037,0.1111111111111111,1,object_09,1,2010,0,1,8,restaurant_8,2,memory-2step-stake-s,643,2708351,0.0-19.0-0.1-0.147,A2CEGS0NVDBCPT,3YGE63DIOBDQKTHDUYZ9OUNPB7QW00,33L7PJKHCKEJWKGGKZCFJ9IVQC98TF,8,7
148,3,object_01,object_10,488.69999999925,6,2,279.70000000112,1.0,2,object_08,1,2019,0,3,9,library_4,2,memory-2step-stake-s,644,2716761,0.0-19.0-0.1-0.148,A2CEGS0NVDBCPT,3YGE63DIOBDQKTHDUYZ9OUNPB7QW00,33L7PJKHCKEJWKGGKZCFJ9IVQC98TF,5,6
149,4,object_07,object_02,299.80000000075,7,1,313.5,0.3333333333333333,1,object_09,1,2022,0,3,7,restaurant_8,2,memory-2step-stake-s,645,2724596,0.0-19.0-0.1-0.149,A2CEGS0NVDBCPT,3YGE63DIOBDQKTHDUYZ9OUNPB7QW00,33L7PJKHCKEJWKGGKZCFJ9IVQC98TF,7,8
150,2,object_06,object_04,1282.2000000011,3,2,459.40000000037,0.2222222222222222,1,object_09,1,2024,0,2,7,forest_8,2,memory-2step-stake-s,646,2732473,0.0-19.0-0.1-0.150,A2CEGS0NVDBCPT,3YGE63DIOBDQKTHDUYZ9OUNPB7QW00,33L7PJKHCKEJWKGGKZCFJ9IVQC98TF,4,3
151,3,object_10,object_01,412.20000000112,6,1,390.40000000037,0.5555555555555556,2,object_08,1,2029,0,0,5,library_6,2,memory-2step-stake-s,647,2740589,0.0-19.0-0.1-0.151,A2CEGS0NVDBCPT,3YGE63DIOBDQKTHDUYZ9OUNPB7QW00,33L7PJKHCKEJWKGGKZCFJ9IVQC98TF,6,5
152,4,object_02,object_07,692.0,8,1,345.09999999963,1.0,2,object_08,1,2038,0,4,9,restaurant_7,2,memory-2step-stake-s,648,2749068,0.0-19.0-0.1-0.152,A2CEGS0NVDBCPT,3YGE63DIOBDQKTHDUYZ9OUNPB7QW00,33L7PJKHCKEJWKGGKZCFJ9IVQC98TF,8,7
153,2,object_06,object_04,787.59999999963,4,1,380.09999999963,0.7777777777777778,2,object_08,5,2073,0,2,7,forest_1,2,memory-2step-stake-s,649,2757391,0.0-19.0-0.1-0.153,A2CEGS0NVDBCPT,3YGE63DIOBDQKTHDUYZ9OUNPB7QW00,33L7PJKHCKEJWKGGKZCFJ9IVQC98TF,4,3
154,3,object_10,object_01,330.29999999888,6,1,291.30000000075,0.7777777777777778,2,object_08,1,2080,0,2,7,library_3,2,memory-2step-stake-s,650,2765606,0.0-19.0-0.1-0.154,A2CEGS0NVDBCPT,3YGE63DIOBDQKTHDUYZ9OUNPB7QW00,33L7PJKHCKEJWKGGKZCFJ9IVQC98TF,6,5
155,4,object_02,object_07,370.5,7,2,309.09999999963,0.2222222222222222,1,object_09,1,2082,0,2,6,restaurant_6,2,memory-2step-stake-s,651,2773365,0.0-19.0-0.1-0.155,A2CEGS0NVDBCPT,3YGE63DIOBDQKTHDUYZ9OUNPB7QW00,33L7PJKHCKEJWKGGKZCFJ9IVQC98TF,8,7
156,2,object_06,object_04,1015.0999999996,3,2,482.40000000037,0.2222222222222222,1,object_09,1,2084,0,2,6,forest_6,2,memory-2step-stake-s,652,2781271,0.0-19.0-0.1-0.156,A2CEGS0NVDBCPT,3YGE63DIOBDQKTHDUYZ9OUNPB7QW00,33L7PJKHCKEJWKGGKZCFJ9IVQC98TF,4,3
157,4,object_02,object_07,563.90000000037,7,2,352.0,0.1111111111111111,1,object_09,1,2085,0,1,6,restaurant_7,2,memory-2step-stake-s,653,2788961,0.0-19.0-0.1-0.157,A2CEGS0NVDBCPT,3YGE63DIOBDQKTHDUYZ9OUNPB7QW00,33L7PJKHCKEJWKGGKZCFJ9IVQC98TF,8,7
158,2,object_06,object_04,336.0,4,1,322.80000000075,0.3333333333333333,2,object_08,5,2100,0,1,3,forest_6,2,memory-2step-stake-s,654,2796809,0.0-19.0-0.1-0.158,A2CEGS0NVDBCPT,3YGE63DIOBDQKTHDUYZ9OUNPB7QW00,33L7PJKHCKEJWKGGKZCFJ9IVQC98TF,4,3
159,2,object_06,object_04,577.40000000037,3,2,362.5,0.2222222222222222,1,object_09,5,2110,0,2,1,forest_6,2,memory-2step-stake-s,655,2804614,0.0-19.0-0.1-0.159,A2CEGS0NVDBCPT,3YGE63DIOBDQKTHDUYZ9OUNPB7QW00,33L7PJKHCKEJWKGGKZCFJ9IVQC98TF,4,3
160,2,object_04,object_06,535.0,3,1,284.59999999963,0.4444444444444444,1,object_09,5,2130,0,4,3,forest_8,2,memory-2step-stake-s,656,2812529,0.0-19.0-0.1-0.160,A2CEGS0NVDBCPT,3YGE63DIOBDQKTHDUYZ9OUNPB7QW00,33L7PJKHCKEJWKGGKZCFJ9IVQC98TF,3,4
161,3,object_10,object_01,402.89999999851,5,2,410.90000000037,0.4444444444444444,1,object_09,5,2150,0,4,2,library_1,2,memory-2step-stake-s,657,2820564,0.0-19.0-0.1-0.161,A2CEGS0NVDBCPT,3YGE63DIOBDQKTHDUYZ9OUNPB7QW00,33L7PJKHCKEJWKGGKZCFJ9IVQC98TF,6,5
162,1,object_05,object_03,400.5,1,1,321.19999999925,0.5555555555555556,1,object_09,5,2175,0,5,5,desert_4,2,memory-2step-stake-s,658,2828606,0.0-19.0-0.1-0.162,A2CEGS0NVDBCPT,3YGE63DIOBDQKTHDUYZ9OUNPB7QW00,33L7PJKHCKEJWKGGKZCFJ9IVQC98TF,1,2
163,1,object_03,object_05,334.79999999888,1,2,289.5,0.6666666666666666,1,object_09,5,2205,0,6,6,desert_5,2,memory-2step-stake-s,659,2836727,0.0-19.0-0.1-0.163,A2CEGS0NVDBCPT,3YGE63DIOBDQKTHDUYZ9OUNPB7QW00,33L7PJKHCKEJWKGGKZCFJ9IVQC98TF,2,1
164,2,object_06,object_04,285.80000000075,4,1,483.5,0.5555555555555556,2,object_08,5,2230,0,6,5,forest_7,2,memory-2step-stake-s,660,2844932,0.0-19.0-0.1-0.164,A2CEGS0NVDBCPT,3YGE63DIOBDQKTHDUYZ9OUNPB7QW00,33L7PJKHCKEJWKGGKZCFJ9IVQC98TF,4,3
165,2,object_04,object_06,367.69999999925,3,1,436.90000000037,0.4444444444444444,1,object_09,5,2250,0,4,4,forest_7,2,memory-2step-stake-s,661,2852996,0.0-19.0-0.1-0.165,A2CEGS0NVDBCPT,3YGE63DIOBDQKTHDUYZ9OUNPB7QW00,33L7PJKHCKEJWKGGKZCFJ9IVQC98TF,3,4
166,4,object_07,object_02,119.69999999925,8,2,293.39999999851,0.4444444444444444,2,object_08,1,2254,0,4,4,restaurant_7,2,memory-2step-stake-s,662,2860908,0.0-19.0-0.1-0.166,A2CEGS0NVDBCPT,3YGE63DIOBDQKTHDUYZ9OUNPB7QW00,33L7PJKHCKEJWKGGKZCFJ9IVQC98TF,7,8
167,2,object_04,object_06,356.90000000037,3,1,509.79999999888,0.1111111111111111,1,object_09,5,2259,0,1,7,forest_7,2,memory-2step-stake-s,663,2868735,0.0-19.0-0.1-0.167,A2CEGS0NVDBCPT,3YGE63DIOBDQKTHDUYZ9OUNPB7QW00,33L7PJKHCKEJWKGGKZCFJ9IVQC98TF,3,4
168,3,object_01,object_10,271.40000000037,5,1,478.5,0.2222222222222222,1,object_09,1,2261,0,2,3,library_4,2,memory-2step-stake-s,664,2876631,0.0-19.0-0.1-0.168,A2CEGS0NVDBCPT,3YGE63DIOBDQKTHDUYZ9OUNPB7QW00,33L7PJKHCKEJWKGGKZCFJ9IVQC98TF,5,6
169,1,object_05,object_03,448.10000000149,2,2,341.60000000149,0.2222222222222222,2,object_08,5,2271,0,1,2,desert_4,2,memory-2step-stake-s,665,2884389,0.0-19.0-0.1-0.169,A2CEGS0NVDBCPT,3YGE63DIOBDQKTHDUYZ9OUNPB7QW00,33L7PJKHCKEJWKGGKZCFJ9IVQC98TF,1,2
170,1,object_03,object_05,113.70000000112,2,1,825.0,0.2222222222222222,2,object_08,5,2281,0,0,2,desert_7,2,memory-2step-stake-s,666,2892629,0.0-19.0-0.1-0.170,A2CEGS0NVDBCPT,3YGE63DIOBDQKTHDUYZ9OUNPB7QW00,33L7PJKHCKEJWKGGKZCFJ9IVQC98TF,2,1
171,1,object_03,object_05,321.30000000075,1,2,505.0,0.1111111111111111,1,object_09,5,2286,0,1,3,desert_4,2,memory-2step-stake-s,667,2900450,0.0-19.0-0.1-0.171,A2CEGS0NVDBCPT,3YGE63DIOBDQKTHDUYZ9OUNPB7QW00,33L7PJKHCKEJWKGGKZCFJ9IVQC98TF,2,1
172,4,object_07,object_02,312.30000000075,7,1,410.19999999925,0.3333333333333333,1,object_09,1,2289,0,3,1,restaurant_7,2,memory-2step-stake-s,668,2908385,0.0-19.0-0.1-0.172,A2CEGS0NVDBCPT,3YGE63DIOBDQKTHDUYZ9OUNPB7QW00,33L7PJKHCKEJWKGGKZCFJ9IVQC98TF,7,8
173,2,object_06,object_04,615.59999999963,3,2,545.59999999963,0.6666666666666666,1,object_09,5,2319,0,6,1,forest_7,2,memory-2step-stake-s,669,2916756,0.0-19.0-0.1-0.173,A2CEGS0NVDBCPT,3YGE63DIOBDQKTHDUYZ9OUNPB7QW00,33L7PJKHCKEJWKGGKZCFJ9IVQC98TF,4,3
174,4,object_02,object_07,307.90000000037,8,1,344.59999999963,0.3333333333333333,2,object_08,5,2334,0,4,3,restaurant_6,2,memory-2step-stake-s,670,2924623,0.0-19.0-0.1-0.174,A2CEGS0NVDBCPT,3YGE63DIOBDQKTHDUYZ9OUNPB7QW00,33L7PJKHCKEJWKGGKZCFJ9IVQC98TF,8,7
175,2,object_04,object_06,296.80000000075,4,2,253.90000000037,0.3333333333333333,2,object_08,5,2349,0,2,3,forest_7,2,memory-2step-stake-s,671,2932400,0.0-19.0-0.1-0.175,A2CEGS0NVDBCPT,3YGE63DIOBDQKTHDUYZ9OUNPB7QW00,33L7PJKHCKEJWKGGKZCFJ9IVQC98TF,3,4
176,2,object_06,object_04,694.5,4,1,402.40000000037,0.2222222222222222,2,object_08,5,2359,0,1,2,forest_7,2,memory-2step-stake-s,672,2940224,0.0-19.0-0.1-0.176,A2CEGS0NVDBCPT,3YGE63DIOBDQKTHDUYZ9OUNPB7QW00,33L7PJKHCKEJWKGGKZCFJ9IVQC98TF,4,3
177,2,object_04,object_06,308.79999999888,4,2,341.29999999888,0.2222222222222222,2,object_08,5,2369,0,3,2,forest_1,2,memory-2step-stake-s,673,2947993,0.0-19.0-0.1-0.177,A2CEGS0NVDBCPT,3YGE63DIOBDQKTHDUYZ9OUNPB7QW00,33L7PJKHCKEJWKGGKZCFJ9IVQC98TF,3,4
178,4,object_02,object_07,691.5,8,1,349.5,0.2222222222222222,2,object_08,1,2371,0,1,2,restaurant_8,2,memory-2step-stake-s,674,2955763,0.0-19.0-0.1-0.178,A2CEGS0NVDBCPT,3YGE63DIOBDQKTHDUYZ9OUNPB7QW00,33L7PJKHCKEJWKGGKZCFJ9IVQC98TF,8,7
179,1,object_05,object_03,536.40000000037,1,1,323.39999999851,0.4444444444444444,1,object_09,5,2391,0,4,3,desert_5,2,memory-2step-stake-s,675,2963717,0.0-19.0-0.1-0.179,A2CEGS0NVDBCPT,3YGE63DIOBDQKTHDUYZ9OUNPB7QW00,33L7PJKHCKEJWKGGKZCFJ9IVQC98TF,1,2
180,1,object_05,object_03,410.20000000112,2,2,431.0,0.4444444444444444,2,object_08,5,2411,0,7,4,desert_2,2,memory-2step-stake-s,676,2971768,0.0-19.0-0.1-0.180,A2CEGS0NVDBCPT,3YGE63DIOBDQKTHDUYZ9OUNPB7QW00,33L7PJKHCKEJWKGGKZCFJ9IVQC98TF,1,2
181,3,object_10,object_01,733.10000000149,5,2,316.5,0.6666666666666666,1,object_09,5,2441,0,6,5,library_3,2,memory-2step-stake-s,677,2979915,0.0-19.0-0.1-0.181,A2CEGS0NVDBCPT,3YGE63DIOBDQKTHDUYZ9OUNPB7QW00,33L7PJKHCKEJWKGGKZCFJ9IVQC98TF,6,5
182,1,object_03,object_05,251.80000000075,2,1,475.59999999963,0.4444444444444444,2,object_08,5,2461,0,6,4,desert_2,2,memory-2step-stake-s,678,2988014,0.0-19.0-0.1-0.182,A2CEGS0NVDBCPT,3YGE63DIOBDQKTHDUYZ9OUNPB7QW00,33L7PJKHCKEJWKGGKZCFJ9IVQC98TF,2,1
183,2,object_06,object_04,293.90000000037,3,2,273.30000000075,0.7777777777777778,1,object_09,1,2468,0,7,3,forest_8,2,memory-2step-stake-s,679,2996209,0.0-19.0-0.1-0.183,A2CEGS0NVDBCPT,3YGE63DIOBDQKTHDUYZ9OUNPB7QW00,33L7PJKHCKEJWKGGKZCFJ9IVQC98TF,4,3
184,4,object_07,object_02,287.19999999925,7,1,492.09999999963,0.4444444444444444,1,object_09,1,2472,0,4,5,restaurant_8,2,memory-2step-stake-s,680,3004340,0.0-19.0-0.1-0.184,A2CEGS0NVDBCPT,3YGE63DIOBDQKTHDUYZ9OUNPB7QW00,33L7PJKHCKEJWKGGKZCFJ9IVQC98TF,7,8
185,3,object_01,object_10,265.5,6,2,586.80000000075,0.4444444444444444,2,object_08,1,2476,0,4,4,library_3,2,memory-2step-stake-s,681,3012549,0.0-19.0-0.1-0.185,A2CEGS0NVDBCPT,3YGE63DIOBDQKTHDUYZ9OUNPB7QW00,33L7PJKHCKEJWKGGKZCFJ9IVQC98TF,5,6
186,4,object_07,object_02,265.0,7,1,308.09999999963,0.8888888888888888,1,object_09,1,2484,0,8,4,restaurant_7,2,memory-2step-stake-s,682,3020888,0.0-19.0-0.1-0.186,A2CEGS0NVDBCPT,3YGE63DIOBDQKTHDUYZ9OUNPB7QW00,33L7PJKHCKEJWKGGKZCFJ9IVQC98TF,7,8
187,4,object_07,object_02,510.70000000112,7,1,329.19999999925,0.8888888888888888,1,object_09,1,2492,0,8,3,restaurant_3,2,memory-2step-stake-s,683,3029245,0.0-19.0-0.1-0.187,A2CEGS0NVDBCPT,3YGE63DIOBDQKTHDUYZ9OUNPB7QW00,33L7PJKHCKEJWKGGKZCFJ9IVQC98TF,7,8
188,2,object_04,object_06,449.59999999963,4,2,305.90000000037,0.1111111111111111,2,object_08,5,2497,0,9,1,forest_1,2,memory-2step-stake-s,684,3036875,0.0-19.0-0.1-0.188,A2CEGS0NVDBCPT,3YGE63DIOBDQKTHDUYZ9OUNPB7QW00,33L7PJKHCKEJWKGGKZCFJ9IVQC98TF,3,4
189,2,object_04,object_06,637.10000000149,3,1,312.70000000112,0.8888888888888888,1,object_09,5,2537,0,8,0,forest_7,2,memory-2step-stake-s,685,3045213,0.0-19.0-0.1-0.189,A2CEGS0NVDBCPT,3YGE63DIOBDQKTHDUYZ9OUNPB7QW00,33L7PJKHCKEJWKGGKZCFJ9IVQC98TF,3,4
190,3,object_10,object_01,258.70000000112,5,2,412.29999999888,1.0,1,object_09,1,2546,0,9,1,library_3,2,memory-2step-stake-s,686,3053769,0.0-19.0-0.1-0.190,A2CEGS0NVDBCPT,3YGE63DIOBDQKTHDUYZ9OUNPB7QW00,33L7PJKHCKEJWKGGKZCFJ9IVQC98TF,6,5
191,3,object_10,object_01,405.30000000075,6,1,251.69999999925,0.2222222222222222,2,object_08,1,2548,0,8,2,library_4,2,memory-2step-stake-s,687,3061450,0.0-19.0-0.1-0.191,A2CEGS0NVDBCPT,3YGE63DIOBDQKTHDUYZ9OUNPB7QW00,33L7PJKHCKEJWKGGKZCFJ9IVQC98TF,6,5
192,4,object_07,object_02,359.69999999925,7,1,248.5,0.7777777777777778,1,object_09,5,2583,0,7,4,restaurant_3,2,memory-2step-stake-s,688,3069642,0.0-19.0-0.1-0.192,A2CEGS0NVDBCPT,3YGE63DIOBDQKTHDUYZ9OUNPB7QW00,33L7PJKHCKEJWKGGKZCFJ9IVQC98TF,7,8
193,1,object_03,object_05,894.59999999963,1,2,512.79999999888,0.8888888888888888,1,object_09,5,2623,0,8,3,desert_7,2,memory-2step-stake-s,689,3078187,0.0-19.0-0.1-0.193,A2CEGS0NVDBCPT,3YGE63DIOBDQKTHDUYZ9OUNPB7QW00,33L7PJKHCKEJWKGGKZCFJ9IVQC98TF,2,1
194,3,object_01,object_10,302.5,5,1,472.09999999963,0.5555555555555556,1,object_09,1,2628,0,5,6,library_6,2,memory-2step-stake-s,690,3086386,0.0-19.0-0.1-0.194,A2CEGS0NVDBCPT,3YGE63DIOBDQKTHDUYZ9OUNPB7QW00,33L7PJKHCKEJWKGGKZCFJ9IVQC98TF,5,6
195,3,object_01,object_10,297.90000000037,6,2,305.0,0.6666666666666666,2,object_08,1,2634,0,2,6,library_4,2,memory-2step-stake-s,691,3094540,0.0-19.0-0.1-0.195,A2CEGS0NVDBCPT,3YGE63DIOBDQKTHDUYZ9OUNPB7QW00,33L7PJKHCKEJWKGGKZCFJ9IVQC98TF,5,6
196,1,object_05,object_03,631.20000000112,1,1,361.10000000149,0.2222222222222222,1,object_09,5,2644,0,2,4,desert_4,2,memory-2step-stake-s,692,3102344,0.0-19.0-0.1-0.196,A2CEGS0NVDBCPT,3YGE63DIOBDQKTHDUYZ9OUNPB7QW00,33L7PJKHCKEJWKGGKZCFJ9IVQC98TF,1,2
197,4,object_07,object_02,377.0,7,1,256.5,0.0,1,object_09,1,2644,0,0,3,restaurant_6,2,memory-2step-stake-s,693,3109835,0.0-19.0-0.1-0.197,A2CEGS0NVDBCPT,3YGE63DIOBDQKTHDUYZ9OUNPB7QW00,33L7PJKHCKEJWKGGKZCFJ9IVQC98TF,7,8
198,4,object_07,object_02,348.5,8,2,268.29999999888,0.4444444444444444,2,object_08,1,2648,0,1,4,restaurant_3,2,memory-2step-stake-s,694,3117759,0.0-19.0-0.1-0.198,A2CEGS0NVDBCPT,3YGE63DIOBDQKTHDUYZ9OUNPB7QW00,33L7PJKHCKEJWKGGKZCFJ9IVQC98TF,7,8
199,3,object_10,object_01,405.70000000112,5,2,297.19999999925,0.2222222222222222,1,object_09,1,2650,0,2,4,library_6,2,memory-2step-stake-s,695,3125475,0.0-19.0-0.1-0.199,A2CEGS0NVDBCPT,3YGE63DIOBDQKTHDUYZ9OUNPB7QW00,33L7PJKHCKEJWKGGKZCFJ9IVQC98TF,6,5
200,4,object_02,object_07,416.59999999963,8,1,412.20000000112,0.3333333333333333,2,object_08,5,2665,0,0,3,restaurant_8,2,memory-2step-stake-s,696,3133418,0.0-19.0-0.1-0.200,A2CEGS0NVDBCPT,3YGE63DIOBDQKTHDUYZ9OUNPB7QW00,33L7PJKHCKEJWKGGKZCFJ9IVQC98TF,8,7
201,4,object_02,object_07,645.40000000037,8,1,254.40000000037,0.3333333333333333,2,object_08,1,2668,0,1,3,restaurant_6,2,memory-2step-stake-s,697,3141190,0.0-19.0-0.1-0.201,A2CEGS0NVDBCPT,3YGE63DIOBDQKTHDUYZ9OUNPB7QW00,33L7PJKHCKEJWKGGKZCFJ9IVQC98TF,8,7
202,3,object_01,object_10,263.59999999963,5,1,335.20000000112,0.2222222222222222,1,object_09,1,2670,0,2,3,library_3,2,memory-2step-stake-s,698,3148942,0.0-19.0-0.1-0.202,A2CEGS0NVDBCPT,3YGE63DIOBDQKTHDUYZ9OUNPB7QW00,33L7PJKHCKEJWKGGKZCFJ9IVQC98TF,5,6
203,3,object_01,object_10,685.40000000037,6,2,484.0,0.3333333333333333,2,object_08,1,2673,0,4,3,library_6,2,memory-2step-stake-s,699,3156947,0.0-19.0-0.1-0.203,A2CEGS0NVDBCPT,3YGE63DIOBDQKTHDUYZ9OUNPB7QW00,33L7PJKHCKEJWKGGKZCFJ9IVQC98TF,5,6
204,4,object_07,object_02,231.5,7,1,423.5,0.3333333333333333,1,object_09,1,2676,0,3,3,restaurant_3,2,memory-2step-stake-s,700,3164888,0.0-19.0-0.1-0.204,A2CEGS0NVDBCPT,3YGE63DIOBDQKTHDUYZ9OUNPB7QW00,33L7PJKHCKEJWKGGKZCFJ9IVQC98TF,7,8
205,1,object_05,object_03,301.90000000037,1,1,304.59999999963,0.1111111111111111,1,object_09,5,2681,0,1,1,desert_2,2,memory-2step-stake-s,701,3172511,0.0-19.0-0.1-0.205,A2CEGS0NVDBCPT,3YGE63DIOBDQKTHDUYZ9OUNPB7QW00,33L7PJKHCKEJWKGGKZCFJ9IVQC98TF,1,2
206,2,object_06,object_04,371.5,4,1,242.19999999925,0.0,2,object_08,5,2681,0,0,0,forest_8,2,memory-2step-stake-s,702,3179967,0.0-19.0-0.1-0.206,A2CEGS0NVDBCPT,3YGE63DIOBDQKTHDUYZ9OUNPB7QW00,33L7PJKHCKEJWKGGKZCFJ9IVQC98TF,4,3
207,4,object_02,object_07,265.40000000037,8,1,277.79999999888,0.1111111111111111,2,object_08,1,2682,0,1,1,restaurant_7,2,memory-2step-stake-s,703,3187561,0.0-19.0-0.1-0.207,A2CEGS0NVDBCPT,3YGE63DIOBDQKTHDUYZ9OUNPB7QW00,33L7PJKHCKEJWKGGKZCFJ9IVQC98TF,8,7
208,2,object_06,object_04,382.69999999925,3,2,367.19999999925,0.1111111111111111,1,object_09,5,2687,0,1,1,forest_7,2,memory-2step-stake-s,704,3195244,0.0-19.0-0.1-0.208,A2CEGS0NVDBCPT,3YGE63DIOBDQKTHDUYZ9OUNPB7QW00,33L7PJKHCKEJWKGGKZCFJ9IVQC98TF,4,3
209,4,object_07,object_02,299.80000000075,7,1,281.69999999925,0.2222222222222222,1,object_09,5,2697,0,2,2,restaurant_7,2,memory-2step-stake-s,705,3202948,0.0-19.0-0.1-0.209,A2CEGS0NVDBCPT,3YGE63DIOBDQKTHDUYZ9OUNPB7QW00,33L7PJKHCKEJWKGGKZCFJ9IVQC98TF,7,8
210,3,object_10,object_01,366.19999999925,6,1,680.29999999888,0.0,2,object_08,1,2697,0,1,0,library_4,2,memory-2step-stake-s,706,3210846,0.0-19.0-0.1-0.210,A2CEGS0NVDBCPT,3YGE63DIOBDQKTHDUYZ9OUNPB7QW00,33L7PJKHCKEJWKGGKZCFJ9IVQC98TF,6,5
211,4,object_02,object_07,888.40000000037,7,2,326.0,0.1111111111111111,1,object_09,1,2698,0,1,1,restaurant_7,2,memory-2step-stake-s,707,3218510,0.0-19.0-0.1-0.211,A2CEGS0NVDBCPT,3YGE63DIOBDQKTHDUYZ9OUNPB7QW00,33L7PJKHCKEJWKGGKZCFJ9IVQC98TF,8,7
212,4,object_02,object_07,414.40000000037,8,1,331.89999999851,0.1111111111111111,2,object_08,5,2703,0,1,1,restaurant_7,2,memory-2step-stake-s,708,3226157,0.0-19.0-0.1-0.212,A2CEGS0NVDBCPT,3YGE63DIOBDQKTHDUYZ9OUNPB7QW00,33L7PJKHCKEJWKGGKZCFJ9IVQC98TF,8,7
213,4,object_02,object_07,378.10000000149,8,1,300.90000000037,0.1111111111111111,2,object_08,1,2704,0,3,1,restaurant_8,2,memory-2step-stake-s,709,3233775,0.0-19.0-0.1-0.213,A2CEGS0NVDBCPT,3YGE63DIOBDQKTHDUYZ9OUNPB7QW00,33L7PJKHCKEJWKGGKZCFJ9IVQC98TF,8,7
214,4,object_02,object_07,257.40000000037,7,2,409.69999999925,0.6666666666666666,1,object_09,5,2734,0,6,0,restaurant_3,2,memory-2step-stake-s,710,3242009,0.0-19.0-0.1-0.214,A2CEGS0NVDBCPT,3YGE63DIOBDQKTHDUYZ9OUNPB7QW00,33L7PJKHCKEJWKGGKZCFJ9IVQC98TF,8,7
215,3,object_01,object_10,405.0,5,1,388.59999999963,0.3333333333333333,1,object_09,1,2737,0,3,1,library_3,2,memory-2step-stake-s,711,3249922,0.0-19.0-0.1-0.215,A2CEGS0NVDBCPT,3YGE63DIOBDQKTHDUYZ9OUNPB7QW00,33L7PJKHCKEJWKGGKZCFJ9IVQC98TF,5,6
216,2,object_06,object_04,427.09999999963,3,2,538.5,0.0,1,object_09,5,2737,0,0,1,forest_1,2,memory-2step-stake-s,712,3257678,0.0-19.0-0.1-0.216,A2CEGS0NVDBCPT,3YGE63DIOBDQKTHDUYZ9OUNPB7QW00,33L7PJKHCKEJWKGGKZCFJ9IVQC98TF,4,3
217,1,object_05,object_03,488.59999999963,1,1,334.59999999963,0.2222222222222222,1,object_09,1,2739,0,2,0,desert_7,2,memory-2step-stake-s,713,3265435,0.0-19.0-0.1-0.217,A2CEGS0NVDBCPT,3YGE63DIOBDQKTHDUYZ9OUNPB7QW00,33L7PJKHCKEJWKGGKZCFJ9IVQC98TF,1,2
218,1,object_03,object_05,447.40000000037,2,1,388.90000000037,0.1111111111111111,2,object_08,5,2744,0,2,1,desert_5,2,memory-2step-stake-s,714,3273144,0.0-19.0-0.1-0.218,A2CEGS0NVDBCPT,3YGE63DIOBDQKTHDUYZ9OUNPB7QW00,33L7PJKHCKEJWKGGKZCFJ9IVQC98TF,2,1
219,3,object_10,object_01,390.80000000075,6,1,371.60000000149,0.2222222222222222,2,object_08,1,2746,0,4,2,library_3,2,memory-2step-stake-s,715,3280934,0.0-19.0-0.1-0.219,A2CEGS0NVDBCPT,3YGE63DIOBDQKTHDUYZ9OUNPB7QW00,33L7PJKHCKEJWKGGKZCFJ9IVQC98TF,6,5
220,2,object_04,object_06,629.0,4,2,318.5,0.4444444444444444,2,object_08,5,2766,0,2,4,forest_8,2,memory-2step-stake-s,716,3288875,0.0-19.0-0.1-0.220,A2CEGS0NVDBCPT,3YGE63DIOBDQKTHDUYZ9OUNPB7QW00,33L7PJKHCKEJWKGGKZCFJ9IVQC98TF,3,4
221,2,object_06,object_04,488.59999999963,4,1,377.69999999925,0.0,2,object_08,1,2766,0,2,0,forest_8,2,memory-2step-stake-s,717,3296467,0.0-19.0-0.1-0.221,A2CEGS0NVDBCPT,3YGE63DIOBDQKTHDUYZ9OUNPB7QW00,33L7PJKHCKEJWKGGKZCFJ9IVQC98TF,4,3
222,2,object_06,object_04,500.19999999925,3,2,272.19999999925,0.1111111111111111,1,object_09,1,2767,0,1,5,forest_6,2,memory-2step-stake-s,718,3304057,0.0-19.0-0.1-0.222,A2CEGS0NVDBCPT,3YGE63DIOBDQKTHDUYZ9OUNPB7QW00,33L7PJKHCKEJWKGGKZCFJ9IVQC98TF,4,3
223,3,object_10,object_01,312.29999999888,6,1,262.29999999888,0.4444444444444444,2,object_08,1,2771,0,1,4,library_6,2,memory-2step-stake-s,719,3311940,0.0-19.0-0.1-0.223,A2CEGS0NVDBCPT,3YGE63DIOBDQKTHDUYZ9OUNPB7QW00,33L7PJKHCKEJWKGGKZCFJ9IVQC98TF,6,5
224,2,object_04,object_06,279.0,3,1,428.90000000037,0.2222222222222222,1,object_09,1,2773,0,2,3,forest_6,2,memory-2step-stake-s,720,3319791,0.0-19.0-0.1-0.224,A2CEGS0NVDBCPT,3YGE63DIOBDQKTHDUYZ9OUNPB7QW00,33L7PJKHCKEJWKGGKZCFJ9IVQC98TF,3,4
225,4,object_07,object_02,440.80000000075,7,1,446.59999999963,0.1111111111111111,1,object_09,1,2774,0,1,6,restaurant_6,2,memory-2step-stake-s,721,3327559,0.0-19.0-0.1-0.225,A2CEGS0NVDBCPT,3YGE63DIOBDQKTHDUYZ9OUNPB7QW00,33L7PJKHCKEJWKGGKZCFJ9IVQC98TF,7,8
226,2,object_04,object_06,316.0,4,2,397.19999999925,0.5555555555555556,2,object_08,5,2799,0,1,5,forest_1,2,memory-2step-stake-s,722,3335687,0.0-19.0-0.1-0.226,A2CEGS0NVDBCPT,3YGE63DIOBDQKTHDUYZ9OUNPB7QW00,33L7PJKHCKEJWKGGKZCFJ9IVQC98TF,3,4
227,2,object_04,object_06,356.59999999963,3,1,635.09999999963,0.1111111111111111,1,object_09,1,2800,0,1,5,forest_7,2,memory-2step-stake-s,723,3343651,0.0-19.0-0.1-0.227,A2CEGS0NVDBCPT,3YGE63DIOBDQKTHDUYZ9OUNPB7QW00,33L7PJKHCKEJWKGGKZCFJ9IVQC98TF,3,4
228,4,object_02,object_07,725.89999999851,7,2,309.10000000149,0.3333333333333333,1,object_09,1,2803,0,3,7,restaurant_3,2,memory-2step-stake-s,724,3351489,0.0-19.0-0.1-0.228,A2CEGS0NVDBCPT,3YGE63DIOBDQKTHDUYZ9OUNPB7QW00,33L7PJKHCKEJWKGGKZCFJ9IVQC98TF,8,7
229,4,object_07,object_02,274.29999999888,8,2,231.40000000037,0.6666666666666666,2,object_08,1,2809,0,5,6,restaurant_6,2,memory-2step-stake-s,725,3359550,0.0-19.0-0.1-0.229,A2CEGS0NVDBCPT,3YGE63DIOBDQKTHDUYZ9OUNPB7QW00,33L7PJKHCKEJWKGGKZCFJ9IVQC98TF,7,8
230,1,object_05,object_03,223.0,1,1,294.59999999963,0.7777777777777778,1,object_09,1,2816,0,7,9,desert_2,2,memory-2step-stake-s,726,3367795,0.0-19.0-0.1-0.230,A2CEGS0NVDBCPT,3YGE63DIOBDQKTHDUYZ9OUNPB7QW00,33L7PJKHCKEJWKGGKZCFJ9IVQC98TF,1,2
231,2,object_04,object_06,373.5,3,1,266.79999999888,0.8888888888888888,1,object_09,1,2824,0,8,6,forest_1,2,memory-2step-stake-s,727,3376094,0.0-19.0-0.1-0.231,A2CEGS0NVDBCPT,3YGE63DIOBDQKTHDUYZ9OUNPB7QW00,33L7PJKHCKEJWKGGKZCFJ9IVQC98TF,3,4
232,4,object_02,object_07,226.69999999925,8,1,283.69999999925,0.8888888888888888,2,object_08,1,2832,0,9,8,restaurant_3,2,memory-2step-stake-s,728,3384437,0.0-19.0-0.1-0.232,A2CEGS0NVDBCPT,3YGE63DIOBDQKTHDUYZ9OUNPB7QW00,33L7PJKHCKEJWKGGKZCFJ9IVQC98TF,8,7
233,2,object_04,object_06,438.69999999925,4,2,233.19999999925,0.8888888888888888,2,object_08,1,2840,0,2,8,forest_7,2,memory-2step-stake-s,729,3392707,0.0-19.0-0.1-0.233,A2CEGS0NVDBCPT,3YGE63DIOBDQKTHDUYZ9OUNPB7QW00,33L7PJKHCKEJWKGGKZCFJ9IVQC98TF,3,4
234,3,object_10,object_01,270.30000000075,6,1,234.30000000075,1.0,2,object_08,1,2849,0,2,9,library_4,2,memory-2step-stake-s,730,3401074,0.0-19.0-0.1-0.234,A2CEGS0NVDBCPT,3YGE63DIOBDQKTHDUYZ9OUNPB7QW00,33L7PJKHCKEJWKGGKZCFJ9IVQC98TF,6,5
235,4,object_02,object_07,567.40000000037,8,1,243.29999999888,0.8888888888888888,2,object_08,1,2857,0,3,8,restaurant_6,2,memory-2step-stake-s,731,3409351,0.0-19.0-0.1-0.235,A2CEGS0NVDBCPT,3YGE63DIOBDQKTHDUYZ9OUNPB7QW00,33L7PJKHCKEJWKGGKZCFJ9IVQC98TF,8,7
236,3,object_10,object_01,569.40000000037,5,2,267.5,0.2222222222222222,1,object_09,1,2859,0,2,7,library_6,2,memory-2step-stake-s,732,3417040,0.0-19.0-0.1-0.236,A2CEGS0NVDBCPT,3YGE63DIOBDQKTHDUYZ9OUNPB7QW00,33L7PJKHCKEJWKGGKZCFJ9IVQC98TF,6,5
237,2,object_04,object_06,666.59999999963,4,2,309.30000000075,0.8888888888888888,2,object_08,5,2899,0,3,8,forest_6,2,memory-2step-stake-s,733,3425391,0.0-19.0-0.1-0.237,A2CEGS0NVDBCPT,3YGE63DIOBDQKTHDUYZ9OUNPB7QW00,33L7PJKHCKEJWKGGKZCFJ9IVQC98TF,3,4
238,3,object_10,object_01,372.79999999888,6,1,250.40000000037,0.8888888888888888,2,object_08,1,2907,0,0,8,library_6,2,memory-2step-stake-s,734,3433667,0.0-19.0-0.1-0.238,A2CEGS0NVDBCPT,3YGE63DIOBDQKTHDUYZ9OUNPB7QW00,33L7PJKHCKEJWKGGKZCFJ9IVQC98TF,6,5
239,4,object_02,object_07,385.20000000112,7,2,218.5,0.0,1,object_09,1,2907,0,0,7,restaurant_6,2,memory-2step-stake-s,735,3441108,0.0-19.0-0.1-0.239,A2CEGS0NVDBCPT,3YGE63DIOBDQKTHDUYZ9OUNPB7QW00,33L7PJKHCKEJWKGGKZCFJ9IVQC98TF,8,7
240,3,object_01,object_10,794.5,6,2,313.69999999925,0.7777777777777778,2,object_08,1,2914,0,3,7,library_3,2,memory-2step-stake-s,736,3449354,0.0-19.0-0.1-0.240,A2CEGS0NVDBCPT,3YGE63DIOBDQKTHDUYZ9OUNPB7QW00,33L7PJKHCKEJWKGGKZCFJ9IVQC98TF,5,6
241,2,object_04,object_06,545.29999999888,3,1,564.79999999888,0.1111111111111111,1,object_09,5,2919,0,1,5,forest_1,2,memory-2step-stake-s,737,3457248,0.0-19.0-0.1-0.241,A2CEGS0NVDBCPT,3YGE63DIOBDQKTHDUYZ9OUNPB7QW00,33L7PJKHCKEJWKGGKZCFJ9IVQC98TF,3,4
242,1,object_05,object_03,254.59999999963,1,1,234.59999999963,0.0,1,object_09,5,2919,0,0,8,desert_2,2,memory-2step-stake-s,738,3464701,0.0-19.0-0.1-0.242,A2CEGS0NVDBCPT,3YGE63DIOBDQKTHDUYZ9OUNPB7QW00,33L7PJKHCKEJWKGGKZCFJ9IVQC98TF,1,2
243,2,object_04,object_06,252.19999999925,4,2,295.59999999963,0.8888888888888888,2,object_08,5,2959,0,1,8,forest_7,2,memory-2step-stake-s,739,3473023,0.0-19.0-0.1-0.243,A2CEGS0NVDBCPT,3YGE63DIOBDQKTHDUYZ9OUNPB7QW00,33L7PJKHCKEJWKGGKZCFJ9IVQC98TF,3,4
244,2,object_06,object_04,264.39999999851,4,1,308.40000000037,0.7777777777777778,2,object_08,5,2994,0,1,7,forest_1,2,memory-2step-stake-s,740,3481251,0.0-19.0-0.1-0.244,A2CEGS0NVDBCPT,3YGE63DIOBDQKTHDUYZ9OUNPB7QW00,33L7PJKHCKEJWKGGKZCFJ9IVQC98TF,4,3
245,3,object_01,object_10,576.59999999963,6,2,405.5,0.8888888888888888,2,object_08,5,3034,0,3,8,library_4,2,memory-2step-stake-s,741,3489710,0.0-19.0-0.1-0.245,A2CEGS0NVDBCPT,3YGE63DIOBDQKTHDUYZ9OUNPB7QW00,33L7PJKHCKEJWKGGKZCFJ9IVQC98TF,5,6
246,1,object_05,object_03,270.69999999925,1,1,357.30000000075,0.1111111111111111,1,object_09,5,3039,0,1,6,desert_5,2,memory-2step-stake-s,742,3497387,0.0-19.0-0.1-0.246,A2CEGS0NVDBCPT,3YGE63DIOBDQKTHDUYZ9OUNPB7QW00,33L7PJKHCKEJWKGGKZCFJ9IVQC98TF,1,2
247,2,object_06,object_04,470.19999999925,4,1,305.30000000075,0.5555555555555556,2,object_08,1,3044,0,2,5,forest_8,2,memory-2step-stake-s,743,3505413,0.0-19.0-0.1-0.247,A2CEGS0NVDBCPT,3YGE63DIOBDQKTHDUYZ9OUNPB7QW00,33L7PJKHCKEJWKGGKZCFJ9IVQC98TF,4,3
248,4,object_07,object_02,-1.0,-1,-1,-1.0,0.0,-,0,1,3044,0,1,2,restaurant_3,2,memory-2step-stake-s,744,3511946,0.0-19.0-0.1-0.248,A2CEGS0NVDBCPT,3YGE63DIOBDQKTHDUYZ9OUNPB7QW00,33L7PJKHCKEJWKGGKZCFJ9IVQC98TF,7,8
249,2,object_06,object_04,275.5,3,2,1262.9000000004,0.0,1,object_09,5,3044,0,0,5,forest_6,2,memory-2step-stake-s,745,3520422,0.0-19.0-0.1-0.249,A2CEGS0NVDBCPT,3YGE63DIOBDQKTHDUYZ9OUNPB7QW00,33L7PJKHCKEJWKGGKZCFJ9IVQC98TF,4,3
250,3,object_10,object_01,379.39999999851,6,1,258.69999999925,0.6666666666666666,2,object_08,1,3050,0,3,6,library_1,2,memory-2step-stake-s,746,3528503,0.0-19.0-0.1-0.250,A2CEGS0NVDBCPT,3YGE63DIOBDQKTHDUYZ9OUNPB7QW00,33L7PJKHCKEJWKGGKZCFJ9IVQC98TF,6,5
251,2,object_04,object_06,259.0,3,1,252.19999999925,0.1111111111111111,1,object_09,5,3055,0,1,7,forest_1,2,memory-2step-stake-s,747,3536069,0.0-19.0-0.1-0.251,A2CEGS0NVDBCPT,3YGE63DIOBDQKTHDUYZ9OUNPB7QW00,33L7PJKHCKEJWKGGKZCFJ9IVQC98TF,3,4
252,3,object_10,object_01,303.79999999888,6,1,301.70000000112,0.8888888888888888,2,object_08,5,3095,0,1,8,library_6,2,memory-2step-stake-s,748,3544393,0.0-19.0-0.1-0.252,A2CEGS0NVDBCPT,3YGE63DIOBDQKTHDUYZ9OUNPB7QW00,33L7PJKHCKEJWKGGKZCFJ9IVQC98TF,6,5
253,4,object_07,object_02,242.89999999851,7,1,289.70000000112,0.2222222222222222,1,object_09,1,3097,0,2,5,restaurant_7,2,memory-2step-stake-s,749,3552105,0.0-19.0-0.1-0.253,A2CEGS0NVDBCPT,3YGE63DIOBDQKTHDUYZ9OUNPB7QW00,33L7PJKHCKEJWKGGKZCFJ9IVQC98TF,7,8
254,3,object_10,object_01,256.89999999851,5,2,359.19999999925,0.2222222222222222,1,object_09,5,3107,0,2,6,library_1,2,memory-2step-stake-s,750,3559884,0.0-19.0-0.1-0.254,A2CEGS0NVDBCPT,3YGE63DIOBDQKTHDUYZ9OUNPB7QW00,33L7PJKHCKEJWKGGKZCFJ9IVQC98TF,6,5
255,1,object_05,object_03,262.40000000037,1,1,206.59999999963,0.2222222222222222,1,object_09,5,3117,0,2,2,desert_2,2,memory-2step-stake-s,751,3567510,0.0-19.0-0.1-0.255,A2CEGS0NVDBCPT,3YGE63DIOBDQKTHDUYZ9OUNPB7QW00,33L7PJKHCKEJWKGGKZCFJ9IVQC98TF,1,2
