,state1,stim_left,stim_right,rt_1,choice1,response1,rt_2,points,state2,stim_state2,stake,score,practice,rews1,rews2,background,high_arm,trial_type,trial_index,time_elapsed,internal_node_id,subid,hitid,assignmentid,stim_left_num,stim_right_num
0,1,object_09,object_08,860.30000019073,2,2,-1.0,0.0,2,object_07,1,0,0,1,0,desert_3,1,memory-2step-stake-s,500,1129118,0.0-19.0-0.0-0.0,A1PVL74S10WYD7,3B623HUYK76FV1575X2NKKQMM9B8SL,3G0WWMR1UZ0R7BBS9X73W1X3NSNQNX,1,2
1,3,object_01,object_04,796.0,6,1,440.19999980927,0.2222222222222222,2,object_07,5,10,0,2,2,library_1,1,memory-2step-stake-s,501,1137010,0.0-19.0-0.0-0.1,A1PVL74S10WYD7,3B623HUYK76FV1575X2NKKQMM9B8SL,3G0WWMR1UZ0R7BBS9X73W1X3NSNQNX,6,5
2,4,object_05,object_02,823.0,8,2,664.80000019073,0.4444444444444444,2,object_07,5,30,0,3,4,restaurant_6,1,memory-2step-stake-s,502,1145351,0.0-19.0-0.0-0.2,A1PVL74S10WYD7,3B623HUYK76FV1575X2NKKQMM9B8SL,3G0WWMR1UZ0R7BBS9X73W1X3NSNQNX,7,8
3,3,object_01,object_04,420.20000076294,6,1,473.60000038147,0.3333333333333333,2,object_07,5,45,0,4,3,library_7,1,memory-2step-stake-s,503,1153410,0.0-19.0-0.0-0.3,A1PVL74S10WYD7,3B623HUYK76FV1575X2NKKQMM9B8SL,3G0WWMR1UZ0R7BBS9X73W1X3NSNQNX,6,5
4,3,object_01,object_04,1004.5,5,2,645.60000038147,0.8888888888888888,1,object_10,1,53,0,8,4,library_7,1,memory-2step-stake-s,504,1162147,0.0-19.0-0.0-0.4,A1PVL74S10WYD7,3B623HUYK76FV1575X2NKKQMM9B8SL,3G0WWMR1UZ0R7BBS9X73W1X3NSNQNX,6,5
5,4,object_02,object_05,698.39999961853,8,1,632.5,0.2222222222222222,2,object_07,1,55,0,7,2,restaurant_2,1,memory-2step-stake-s,505,1170231,0.0-19.0-0.0-0.5,A1PVL74S10WYD7,3B623HUYK76FV1575X2NKKQMM9B8SL,3G0WWMR1UZ0R7BBS9X73W1X3NSNQNX,8,7
6,1,object_09,object_08,1200.7000007629,1,1,513.80000019073,0.8888888888888888,1,object_10,1,63,0,8,4,desert_5,1,memory-2step-stake-s,506,1178850,0.0-19.0-0.0-0.6,A1PVL74S10WYD7,3B623HUYK76FV1575X2NKKQMM9B8SL,3G0WWMR1UZ0R7BBS9X73W1X3NSNQNX,1,2
7,3,object_01,object_04,850.5,5,2,561.4000005722,0.6666666666666666,1,object_10,5,93,0,6,5,library_7,1,memory-2step-stake-s,507,1187298,0.0-19.0-0.0-0.7,A1PVL74S10WYD7,3B623HUYK76FV1575X2NKKQMM9B8SL,3G0WWMR1UZ0R7BBS9X73W1X3NSNQNX,6,5
8,2,object_03,object_06,483.60000038147,4,1,583.10000038147,0.6666666666666666,2,object_07,1,99,0,7,6,forest_3,1,memory-2step-stake-s,508,1195747,0.0-19.0-0.0-0.8,A1PVL74S10WYD7,3B623HUYK76FV1575X2NKKQMM9B8SL,3G0WWMR1UZ0R7BBS9X73W1X3NSNQNX,4,3
9,1,object_09,object_08,733.79999923706,1,1,404.5999994278,0.5555555555555556,1,object_10,1,104,0,5,4,desert_1,1,memory-2step-stake-s,509,1203913,0.0-19.0-0.0-0.9,A1PVL74S10WYD7,3B623HUYK76FV1575X2NKKQMM9B8SL,3G0WWMR1UZ0R7BBS9X73W1X3NSNQNX,1,2
10,3,object_04,object_01,595.20000076294,5,1,339.89999961853,0.5555555555555556,1,object_10,5,129,0,5,2,library_4,1,memory-2step-stake-s,510,1212024,0.0-19.0-0.0-0.10,A1PVL74S10WYD7,3B623HUYK76FV1575X2NKKQMM9B8SL,3G0WWMR1UZ0R7BBS9X73W1X3NSNQNX,5,6
11,4,object_05,object_02,910.20000076294,7,1,525.30000019073,0.5555555555555556,1,object_10,1,134,0,5,2,restaurant_3,1,memory-2step-stake-s,511,1220323,0.0-19.0-0.0-0.11,A1PVL74S10WYD7,3B623HUYK76FV1575X2NKKQMM9B8SL,3G0WWMR1UZ0R7BBS9X73W1X3NSNQNX,7,8
12,4,object_02,object_05,648.0999994278,8,1,453.0999994278,0.2222222222222222,2,object_07,5,144,0,5,2,restaurant_1,1,memory-2step-stake-s,512,1228234,0.0-19.0-0.0-0.12,A1PVL74S10WYD7,3B623HUYK76FV1575X2NKKQMM9B8SL,3G0WWMR1UZ0R7BBS9X73W1X3NSNQNX,8,7
13,3,object_01,object_04,694.19999980927,5,2,417.89999961853,0.7777777777777778,1,object_10,5,179,0,7,1,library_1,1,memory-2step-stake-s,513,1236635,0.0-19.0-0.0-0.13,A1PVL74S10WYD7,3B623HUYK76FV1575X2NKKQMM9B8SL,3G0WWMR1UZ0R7BBS9X73W1X3NSNQNX,6,5
14,2,object_03,object_06,1165.8999996185,4,1,517.80000019073,0.0,2,object_07,1,179,0,5,0,forest_4,1,memory-2step-stake-s,514,1244405,0.0-19.0-0.0-0.14,A1PVL74S10WYD7,3B623HUYK76FV1575X2NKKQMM9B8SL,3G0WWMR1UZ0R7BBS9X73W1X3NSNQNX,4,3
15,3,object_04,object_01,813.4000005722,5,1,418.80000019073,0.8888888888888888,1,object_10,5,219,0,8,3,library_4,1,memory-2step-stake-s,515,1252899,0.0-19.0-0.0-0.15,A1PVL74S10WYD7,3B623HUYK76FV1575X2NKKQMM9B8SL,3G0WWMR1UZ0R7BBS9X73W1X3NSNQNX,5,6
16,3,object_01,object_04,710.0,5,2,383.4000005722,0.7777777777777778,1,object_10,5,254,0,7,3,library_2,1,memory-2step-stake-s,516,1261255,0.0-19.0-0.0-0.16,A1PVL74S10WYD7,3B623HUYK76FV1575X2NKKQMM9B8SL,3G0WWMR1UZ0R7BBS9X73W1X3NSNQNX,6,5
17,1,object_09,object_08,879.5999994278,1,1,742.39999961853,0.7777777777777778,1,object_10,5,289,0,7,4,desert_5,1,memory-2step-stake-s,517,1269978,0.0-19.0-0.0-0.17,A1PVL74S10WYD7,3B623HUYK76FV1575X2NKKQMM9B8SL,3G0WWMR1UZ0R7BBS9X73W1X3NSNQNX,1,2
18,3,object_01,object_04,754.0999994278,5,2,320.0,1.0,1,object_10,5,334,0,9,2,library_7,1,memory-2step-stake-s,518,1278499,0.0-19.0-0.0-0.18,A1PVL74S10WYD7,3B623HUYK76FV1575X2NKKQMM9B8SL,3G0WWMR1UZ0R7BBS9X73W1X3NSNQNX,6,5
19,1,object_08,object_09,574.89999961853,1,2,454.9000005722,1.0,1,object_10,1,343,0,9,5,desert_1,1,memory-2step-stake-s,519,1287150,0.0-19.0-0.0-0.19,A1PVL74S10WYD7,3B623HUYK76FV1575X2NKKQMM9B8SL,3G0WWMR1UZ0R7BBS9X73W1X3NSNQNX,2,1
20,3,object_04,object_01,967.30000019073,5,1,703.80000019073,1.0,1,object_10,5,388,0,9,5,library_2,1,memory-2step-stake-s,520,1296032,0.0-19.0-0.0-0.20,A1PVL74S10WYD7,3B623HUYK76FV1575X2NKKQMM9B8SL,3G0WWMR1UZ0R7BBS9X73W1X3NSNQNX,5,6
21,2,object_03,object_06,992.5,4,1,648.4000005722,1.0,2,object_07,1,397,0,8,9,forest_7,1,memory-2step-stake-s,521,1304866,0.0-19.0-0.0-0.21,A1PVL74S10WYD7,3B623HUYK76FV1575X2NKKQMM9B8SL,3G0WWMR1UZ0R7BBS9X73W1X3NSNQNX,4,3
22,1,object_08,object_09,953.80000019073,1,2,708.19999980927,0.4444444444444444,1,object_10,1,401,0,4,8,desert_5,1,memory-2step-stake-s,522,1313246,0.0-19.0-0.0-0.22,A1PVL74S10WYD7,3B623HUYK76FV1575X2NKKQMM9B8SL,3G0WWMR1UZ0R7BBS9X73W1X3NSNQNX,2,1
23,4,object_02,object_05,1094.6999998093,8,1,565.79999923706,0.6666666666666666,2,object_07,5,431,0,8,6,restaurant_6,1,memory-2step-stake-s,523,1321688,0.0-19.0-0.0-0.23,A1PVL74S10WYD7,3B623HUYK76FV1575X2NKKQMM9B8SL,3G0WWMR1UZ0R7BBS9X73W1X3NSNQNX,8,7
24,1,object_08,object_09,792.80000019073,1,2,657.5,0.7777777777777778,1,object_10,1,438,0,7,8,desert_5,1,memory-2step-stake-s,524,1330326,0.0-19.0-0.0-0.24,A1PVL74S10WYD7,3B623HUYK76FV1575X2NKKQMM9B8SL,3G0WWMR1UZ0R7BBS9X73W1X3NSNQNX,2,1
25,4,object_02,object_05,819.89999961853,7,2,669.69999980927,0.6666666666666666,1,object_10,5,468,0,6,8,restaurant_1,1,memory-2step-stake-s,525,1338872,0.0-19.0-0.0-0.25,A1PVL74S10WYD7,3B623HUYK76FV1575X2NKKQMM9B8SL,3G0WWMR1UZ0R7BBS9X73W1X3NSNQNX,8,7
26,1,object_09,object_08,485.80000019073,1,1,433.10000038147,0.6666666666666666,1,object_10,1,474,0,6,5,desert_6,1,memory-2step-stake-s,526,1347185,0.0-19.0-0.0-0.26,A1PVL74S10WYD7,3B623HUYK76FV1575X2NKKQMM9B8SL,3G0WWMR1UZ0R7BBS9X73W1X3NSNQNX,1,2
27,2,object_06,object_03,772.0999994278,4,2,811.0,0.4444444444444444,2,object_07,1,478,0,7,4,forest_4,1,memory-2step-stake-s,527,1355656,0.0-19.0-0.0-0.27,A1PVL74S10WYD7,3B623HUYK76FV1575X2NKKQMM9B8SL,3G0WWMR1UZ0R7BBS9X73W1X3NSNQNX,3,4
28,1,object_09,object_08,992.19999980927,1,1,468.80000019073,0.4444444444444444,1,object_10,5,498,0,4,3,desert_3,1,memory-2step-stake-s,528,1363800,0.0-19.0-0.0-0.28,A1PVL74S10WYD7,3B623HUYK76FV1575X2NKKQMM9B8SL,3G0WWMR1UZ0R7BBS9X73W1X3NSNQNX,1,2
29,2,object_06,object_03,763.19999980927,3,1,547.39999961853,0.6666666666666666,1,object_10,1,504,0,6,1,forest_3,1,memory-2step-stake-s,529,1372223,0.0-19.0-0.0-0.29,A1PVL74S10WYD7,3B623HUYK76FV1575X2NKKQMM9B8SL,3G0WWMR1UZ0R7BBS9X73W1X3NSNQNX,3,4
30,1,object_09,object_08,592.5999994278,1,1,531.9000005722,0.8888888888888888,1,object_10,1,512,0,8,1,desert_3,1,memory-2step-stake-s,530,1380839,0.0-19.0-0.0-0.30,A1PVL74S10WYD7,3B623HUYK76FV1575X2NKKQMM9B8SL,3G0WWMR1UZ0R7BBS9X73W1X3NSNQNX,1,2
31,3,object_04,object_01,665.80000019073,5,1,674.80000019073,0.8888888888888888,1,object_10,1,520,0,8,2,library_7,1,memory-2step-stake-s,531,1389595,0.0-19.0-0.0-0.31,A1PVL74S10WYD7,3B623HUYK76FV1575X2NKKQMM9B8SL,3G0WWMR1UZ0R7BBS9X73W1X3NSNQNX,5,6
32,3,object_01,object_04,757.5,5,2,1174.1000003815,0.5555555555555556,1,object_10,5,545,0,5,2,library_2,1,memory-2step-stake-s,532,1398539,0.0-19.0-0.0-0.32,A1PVL74S10WYD7,3B623HUYK76FV1575X2NKKQMM9B8SL,3G0WWMR1UZ0R7BBS9X73W1X3NSNQNX,6,5
33,3,object_04,object_01,573.79999923706,5,1,612.30000019073,0.8888888888888888,1,object_10,5,585,0,8,4,library_7,1,memory-2step-stake-s,533,1407243,0.0-19.0-0.0-0.33,A1PVL74S10WYD7,3B623HUYK76FV1575X2NKKQMM9B8SL,3G0WWMR1UZ0R7BBS9X73W1X3NSNQNX,5,6
34,2,object_03,object_06,817.19999980927,3,2,612.0999994278,0.8888888888888888,1,object_10,1,593,0,8,4,forest_5,1,memory-2step-stake-s,534,1415946,0.0-19.0-0.0-0.34,A1PVL74S10WYD7,3B623HUYK76FV1575X2NKKQMM9B8SL,3G0WWMR1UZ0R7BBS9X73W1X3NSNQNX,4,3
35,4,object_05,object_02,926.19999980927,7,1,768.69999980927,0.7777777777777778,1,object_10,5,628,0,7,3,restaurant_1,1,memory-2step-stake-s,535,1424707,0.0-19.0-0.0-0.35,A1PVL74S10WYD7,3B623HUYK76FV1575X2NKKQMM9B8SL,3G0WWMR1UZ0R7BBS9X73W1X3NSNQNX,7,8
36,4,object_05,object_02,693.69999980927,7,1,1098.0,0.1111111111111111,1,object_10,5,633,0,1,3,restaurant_3,1,memory-2step-stake-s,536,1433161,0.0-19.0-0.0-0.36,A1PVL74S10WYD7,3B623HUYK76FV1575X2NKKQMM9B8SL,3G0WWMR1UZ0R7BBS9X73W1X3NSNQNX,7,8
37,1,object_09,object_08,560.10000038147,1,1,408.89999961853,0.0,1,object_10,1,633,0,0,5,desert_6,1,memory-2step-stake-s,537,1440813,0.0-19.0-0.0-0.37,A1PVL74S10WYD7,3B623HUYK76FV1575X2NKKQMM9B8SL,3G0WWMR1UZ0R7BBS9X73W1X3NSNQNX,1,2
38,2,object_06,object_03,1009.7000007629,4,2,341.69999980927,1.0,2,object_07,1,642,0,1,9,forest_7,1,memory-2step-stake-s,538,1449341,0.0-19.0-0.0-0.38,A1PVL74S10WYD7,3B623HUYK76FV1575X2NKKQMM9B8SL,3G0WWMR1UZ0R7BBS9X73W1X3NSNQNX,3,4
39,2,object_06,object_03,1227.8000001907,4,2,516.30000019073,0.8888888888888888,2,object_07,1,650,0,1,8,forest_5,1,memory-2step-stake-s,539,1457943,0.0-19.0-0.0-0.39,A1PVL74S10WYD7,3B623HUYK76FV1575X2NKKQMM9B8SL,3G0WWMR1UZ0R7BBS9X73W1X3NSNQNX,3,4
40,1,object_09,object_08,1114.5,2,2,404.69999980927,0.7777777777777778,2,object_07,5,685,0,5,7,desert_1,1,memory-2step-stake-s,540,1466339,0.0-19.0-0.0-0.40,A1PVL74S10WYD7,3B623HUYK76FV1575X2NKKQMM9B8SL,3G0WWMR1UZ0R7BBS9X73W1X3NSNQNX,1,2
41,2,object_03,object_06,756.30000019073,4,1,637.69999980927,0.7777777777777778,2,object_07,5,720,0,8,7,forest_4,1,memory-2step-stake-s,541,1474952,0.0-19.0-0.0-0.41,A1PVL74S10WYD7,3B623HUYK76FV1575X2NKKQMM9B8SL,3G0WWMR1UZ0R7BBS9X73W1X3NSNQNX,4,3
42,4,object_05,object_02,689.60000038147,8,2,1059.1000003815,0.8888888888888888,2,object_07,5,760,0,9,8,restaurant_1,1,memory-2step-stake-s,542,1484107,0.0-19.0-0.0-0.42,A1PVL74S10WYD7,3B623HUYK76FV1575X2NKKQMM9B8SL,3G0WWMR1UZ0R7BBS9X73W1X3NSNQNX,7,8
43,1,object_09,object_08,852.5,2,2,458.4000005722,0.8888888888888888,2,object_07,1,768,0,7,8,desert_6,1,memory-2step-stake-s,543,1492674,0.0-19.0-0.0-0.43,A1PVL74S10WYD7,3B623HUYK76FV1575X2NKKQMM9B8SL,3G0WWMR1UZ0R7BBS9X73W1X3NSNQNX,1,2
44,2,object_03,object_06,1000.1000003815,4,1,540.39999961853,0.7777777777777778,2,object_07,1,775,0,5,7,forest_5,1,memory-2step-stake-s,544,1501197,0.0-19.0-0.0-0.44,A1PVL74S10WYD7,3B623HUYK76FV1575X2NKKQMM9B8SL,3G0WWMR1UZ0R7BBS9X73W1X3NSNQNX,4,3
45,1,object_08,object_09,-1.0,-1,-1,-1.0,0.0,-,0,5,775,0,8,6,desert_3,1,memory-2step-stake-s,545,1507735,0.0-19.0-0.0-0.45,A1PVL74S10WYD7,3B623HUYK76FV1575X2NKKQMM9B8SL,3G0WWMR1UZ0R7BBS9X73W1X3NSNQNX,2,1
46,3,object_01,object_04,894.30000019073,6,1,459.39999961853,0.8888888888888888,2,object_07,5,815,0,8,8,library_1,1,memory-2step-stake-s,546,1516285,0.0-19.0-0.0-0.46,A1PVL74S10WYD7,3B623HUYK76FV1575X2NKKQMM9B8SL,3G0WWMR1UZ0R7BBS9X73W1X3NSNQNX,6,5
47,1,object_09,object_08,703.89999961853,2,2,-1.0,0.0,2,object_07,1,815,0,8,6,desert_1,1,memory-2step-stake-s,547,1524837,0.0-19.0-0.0-0.47,A1PVL74S10WYD7,3B623HUYK76FV1575X2NKKQMM9B8SL,3G0WWMR1UZ0R7BBS9X73W1X3NSNQNX,1,2
48,3,object_01,object_04,625.89999961853,5,2,309.30000019073,0.8888888888888888,1,object_10,5,855,0,8,5,library_1,1,memory-2step-stake-s,548,1533251,0.0-19.0-0.0-0.48,A1PVL74S10WYD7,3B623HUYK76FV1575X2NKKQMM9B8SL,3G0WWMR1UZ0R7BBS9X73W1X3NSNQNX,6,5
49,4,object_05,object_02,578.0,7,1,294.5,1.0,1,object_10,5,900,0,9,7,restaurant_2,1,memory-2step-stake-s,549,1541748,0.0-19.0-0.0-0.49,A1PVL74S10WYD7,3B623HUYK76FV1575X2NKKQMM9B8SL,3G0WWMR1UZ0R7BBS9X73W1X3NSNQNX,7,8
50,2,object_03,object_06,597.39999961853,4,1,298.80000019073,0.6666666666666666,2,object_07,1,906,0,9,6,forest_4,1,memory-2step-stake-s,550,1549934,0.0-19.0-0.0-0.50,A1PVL74S10WYD7,3B623HUYK76FV1575X2NKKQMM9B8SL,3G0WWMR1UZ0R7BBS9X73W1X3NSNQNX,4,3
51,2,object_06,object_03,1088.7000007629,3,1,840.5999994278,0.7777777777777778,1,object_10,1,913,0,7,9,forest_5,1,memory-2step-stake-s,551,1558760,0.0-19.0-0.0-0.51,A1PVL74S10WYD7,3B623HUYK76FV1575X2NKKQMM9B8SL,3G0WWMR1UZ0R7BBS9X73W1X3NSNQNX,3,4
52,4,object_05,object_02,825.10000038147,7,1,438.20000076294,0.6666666666666666,1,object_10,5,943,0,6,7,restaurant_3,1,memory-2step-stake-s,552,1567097,0.0-19.0-0.0-0.52,A1PVL74S10WYD7,3B623HUYK76FV1575X2NKKQMM9B8SL,3G0WWMR1UZ0R7BBS9X73W1X3NSNQNX,7,8
53,2,object_06,object_03,813.70000076294,4,2,427.69999980927,0.4444444444444444,2,object_07,5,963,0,7,4,forest_3,1,memory-2step-stake-s,553,1575204,0.0-19.0-0.0-0.53,A1PVL74S10WYD7,3B623HUYK76FV1575X2NKKQMM9B8SL,3G0WWMR1UZ0R7BBS9X73W1X3NSNQNX,3,4
54,1,object_09,object_08,617.0999994278,1,1,400.39999961853,0.8888888888888888,1,object_10,5,1003,0,8,4,desert_1,1,memory-2step-stake-s,554,1583695,0.0-19.0-0.0-0.54,A1PVL74S10WYD7,3B623HUYK76FV1575X2NKKQMM9B8SL,3G0WWMR1UZ0R7BBS9X73W1X3NSNQNX,1,2
55,2,object_03,object_06,925.69999980927,3,2,341.0,0.5555555555555556,1,object_10,1,1008,0,5,4,forest_5,1,memory-2step-stake-s,555,1591818,0.0-19.0-0.0-0.55,A1PVL74S10WYD7,3B623HUYK76FV1575X2NKKQMM9B8SL,3G0WWMR1UZ0R7BBS9X73W1X3NSNQNX,4,3
56,1,object_08,object_09,590.70000076294,1,2,346.69999980927,0.5555555555555556,1,object_10,1,1013,0,5,1,desert_6,1,memory-2step-stake-s,556,1599944,0.0-19.0-0.0-0.56,A1PVL74S10WYD7,3B623HUYK76FV1575X2NKKQMM9B8SL,3G0WWMR1UZ0R7BBS9X73W1X3NSNQNX,2,1
57,4,object_05,object_02,755.0,7,1,319.80000019073,0.5555555555555556,1,object_10,5,1038,0,5,3,restaurant_6,1,memory-2step-stake-s,557,1608047,0.0-19.0-0.0-0.57,A1PVL74S10WYD7,3B623HUYK76FV1575X2NKKQMM9B8SL,3G0WWMR1UZ0R7BBS9X73W1X3NSNQNX,7,8
58,2,object_03,object_06,826.30000019073,4,1,427.69999980927,0.4444444444444444,2,object_07,1,1042,0,8,4,forest_4,1,memory-2step-stake-s,558,1616159,0.0-19.0-0.0-0.58,A1PVL74S10WYD7,3B623HUYK76FV1575X2NKKQMM9B8SL,3G0WWMR1UZ0R7BBS9X73W1X3NSNQNX,4,3
59,3,object_04,object_01,773.60000038147,5,1,522.4000005722,0.8888888888888888,1,object_10,5,1082,0,8,4,library_4,1,memory-2step-stake-s,559,1624782,0.0-19.0-0.0-0.59,A1PVL74S10WYD7,3B623HUYK76FV1575X2NKKQMM9B8SL,3G0WWMR1UZ0R7BBS9X73W1X3NSNQNX,5,6
60,4,object_05,object_02,613.30000019073,7,1,311.10000038147,0.7777777777777778,1,object_10,5,1117,0,7,4,restaurant_6,1,memory-2step-stake-s,560,1633081,0.0-19.0-0.0-0.60,A1PVL74S10WYD7,3B623HUYK76FV1575X2NKKQMM9B8SL,3G0WWMR1UZ0R7BBS9X73W1X3NSNQNX,7,8
61,4,object_05,object_02,515.19999980927,7,1,449.5,0.6666666666666666,1,object_10,5,1147,0,6,0,restaurant_3,1,memory-2step-stake-s,561,1641413,0.0-19.0-0.0-0.61,A1PVL74S10WYD7,3B623HUYK76FV1575X2NKKQMM9B8SL,3G0WWMR1UZ0R7BBS9X73W1X3NSNQNX,7,8
62,3,object_01,object_04,996.30000019073,5,2,589.5,0.8888888888888888,1,object_10,5,1187,0,8,4,library_2,1,memory-2step-stake-s,562,1650088,0.0-19.0-0.0-0.62,A1PVL74S10WYD7,3B623HUYK76FV1575X2NKKQMM9B8SL,3G0WWMR1UZ0R7BBS9X73W1X3NSNQNX,6,5
63,2,object_06,object_03,804.60000038147,3,1,712.60000038147,0.8888888888888888,1,object_10,1,1195,0,8,4,forest_4,1,memory-2step-stake-s,563,1658901,0.0-19.0-0.0-0.63,A1PVL74S10WYD7,3B623HUYK76FV1575X2NKKQMM9B8SL,3G0WWMR1UZ0R7BBS9X73W1X3NSNQNX,3,4
64,2,object_03,object_06,810.39999961853,3,2,590.5,1.0,1,object_10,1,1204,0,9,6,forest_3,1,memory-2step-stake-s,564,1667698,0.0-19.0-0.0-0.64,A1PVL74S10WYD7,3B623HUYK76FV1575X2NKKQMM9B8SL,3G0WWMR1UZ0R7BBS9X73W1X3NSNQNX,4,3
65,4,object_05,object_02,604.70000076294,7,1,403.10000038147,1.0,1,object_10,5,1249,0,9,8,restaurant_2,1,memory-2step-stake-s,565,1676312,0.0-19.0-0.0-0.65,A1PVL74S10WYD7,3B623HUYK76FV1575X2NKKQMM9B8SL,3G0WWMR1UZ0R7BBS9X73W1X3NSNQNX,7,8
66,2,object_06,object_03,674.10000038147,3,1,451.19999980927,0.5555555555555556,1,object_10,1,1254,0,5,9,forest_3,1,memory-2step-stake-s,566,1684550,0.0-19.0-0.0-0.66,A1PVL74S10WYD7,3B623HUYK76FV1575X2NKKQMM9B8SL,3G0WWMR1UZ0R7BBS9X73W1X3NSNQNX,3,4
67,4,object_05,object_02,881.60000038147,7,1,835.79999923706,0.5555555555555556,1,object_10,5,1279,0,5,8,restaurant_2,1,memory-2step-stake-s,567,1693174,0.0-19.0-0.0-0.67,A1PVL74S10WYD7,3B623HUYK76FV1575X2NKKQMM9B8SL,3G0WWMR1UZ0R7BBS9X73W1X3NSNQNX,7,8
68,3,object_04,object_01,575.60000038147,6,2,601.19999980927,0.8888888888888888,2,object_07,1,1287,0,5,8,library_4,1,memory-2step-stake-s,568,1701877,0.0-19.0-0.0-0.68,A1PVL74S10WYD7,3B623HUYK76FV1575X2NKKQMM9B8SL,3G0WWMR1UZ0R7BBS9X73W1X3NSNQNX,5,6
69,3,object_01,object_04,789.29999923706,5,2,708.60000038147,0.4444444444444444,1,object_10,5,1307,0,4,8,library_1,1,memory-2step-stake-s,569,1710263,0.0-19.0-0.0-0.69,A1PVL74S10WYD7,3B623HUYK76FV1575X2NKKQMM9B8SL,3G0WWMR1UZ0R7BBS9X73W1X3NSNQNX,6,5
70,2,object_03,object_06,708.80000019073,3,2,299.5,0.4444444444444444,1,object_10,5,1327,0,4,6,forest_7,1,memory-2step-stake-s,570,1718251,0.0-19.0-0.0-0.70,A1PVL74S10WYD7,3B623HUYK76FV1575X2NKKQMM9B8SL,3G0WWMR1UZ0R7BBS9X73W1X3NSNQNX,4,3
71,3,object_04,object_01,569.79999923706,5,1,544.9000005722,0.3333333333333333,1,object_10,1,1330,0,3,3,library_2,1,memory-2step-stake-s,571,1726368,0.0-19.0-0.0-0.71,A1PVL74S10WYD7,3B623HUYK76FV1575X2NKKQMM9B8SL,3G0WWMR1UZ0R7BBS9X73W1X3NSNQNX,5,6
72,1,object_08,object_09,587.39999961853,2,1,380.60000038147,0.2222222222222222,2,object_07,1,1332,0,4,2,desert_5,1,memory-2step-stake-s,572,1734215,0.0-19.0-0.0-0.72,A1PVL74S10WYD7,3B623HUYK76FV1575X2NKKQMM9B8SL,3G0WWMR1UZ0R7BBS9X73W1X3NSNQNX,2,1
73,1,object_09,object_08,468.79999923706,1,1,503.0,0.1111111111111111,1,object_10,1,1333,0,1,2,desert_5,1,memory-2step-stake-s,573,1742075,0.0-19.0-0.0-0.73,A1PVL74S10WYD7,3B623HUYK76FV1575X2NKKQMM9B8SL,3G0WWMR1UZ0R7BBS9X73W1X3NSNQNX,1,2
74,4,object_05,object_02,707.60000038147,7,1,413.80000019073,0.2222222222222222,1,object_10,5,1343,0,2,0,restaurant_2,1,memory-2step-stake-s,574,1749959,0.0-19.0-0.0-0.74,A1PVL74S10WYD7,3B623HUYK76FV1575X2NKKQMM9B8SL,3G0WWMR1UZ0R7BBS9X73W1X3NSNQNX,7,8
75,4,object_02,object_05,691.0999994278,7,2,549.0,0.0,1,object_10,5,1343,0,0,1,restaurant_2,1,memory-2step-stake-s,575,1757761,0.0-19.0-0.0-0.75,A1PVL74S10WYD7,3B623HUYK76FV1575X2NKKQMM9B8SL,3G0WWMR1UZ0R7BBS9X73W1X3NSNQNX,8,7
76,3,object_01,object_04,493.19999980927,6,1,293.30000019073,0.3333333333333333,2,object_07,5,1358,0,2,3,library_4,1,memory-2step-stake-s,576,1765625,0.0-19.0-0.0-0.76,A1PVL74S10WYD7,3B623HUYK76FV1575X2NKKQMM9B8SL,3G0WWMR1UZ0R7BBS9X73W1X3NSNQNX,6,5
77,4,object_05,object_02,601.5,8,2,706.30000019073,0.6666666666666666,2,object_07,5,1388,0,1,6,restaurant_6,1,memory-2step-stake-s,577,1774201,0.0-19.0-0.0-0.77,A1PVL74S10WYD7,3B623HUYK76FV1575X2NKKQMM9B8SL,3G0WWMR1UZ0R7BBS9X73W1X3NSNQNX,7,8
78,2,object_03,object_06,813.5,4,1,415.5999994278,0.6666666666666666,2,object_07,1,1394,0,1,6,forest_4,1,memory-2step-stake-s,578,1782476,0.0-19.0-0.0-0.78,A1PVL74S10WYD7,3B623HUYK76FV1575X2NKKQMM9B8SL,3G0WWMR1UZ0R7BBS9X73W1X3NSNQNX,4,3
79,1,object_09,object_08,451.5,2,2,424.79999923706,0.7777777777777778,2,object_07,1,1401,0,5,7,desert_3,1,memory-2step-stake-s,579,1790864,0.0-19.0-0.0-0.79,A1PVL74S10WYD7,3B623HUYK76FV1575X2NKKQMM9B8SL,3G0WWMR1UZ0R7BBS9X73W1X3NSNQNX,1,2
80,3,object_04,object_01,675.5,5,1,725.89999961853,0.5555555555555556,1,object_10,5,1426,0,5,8,library_2,1,memory-2step-stake-s,580,1799352,0.0-19.0-0.0-0.80,A1PVL74S10WYD7,3B623HUYK76FV1575X2NKKQMM9B8SL,3G0WWMR1UZ0R7BBS9X73W1X3NSNQNX,5,6
81,2,object_06,object_03,999.30000019073,4,2,935.80000019073,0.7777777777777778,2,object_07,1,1433,0,7,7,forest_7,1,memory-2step-stake-s,581,1808251,0.0-19.0-0.0-0.81,A1PVL74S10WYD7,3B623HUYK76FV1575X2NKKQMM9B8SL,3G0WWMR1UZ0R7BBS9X73W1X3NSNQNX,3,4
82,2,object_03,object_06,719.60000038147,4,1,427.5,0.6666666666666666,2,object_07,1,1439,0,6,6,forest_7,1,memory-2step-stake-s,582,1816541,0.0-19.0-0.0-0.82,A1PVL74S10WYD7,3B623HUYK76FV1575X2NKKQMM9B8SL,3G0WWMR1UZ0R7BBS9X73W1X3NSNQNX,4,3
83,1,object_09,object_08,613.5999994278,1,1,323.39999961853,1.0,1,object_10,1,1448,0,9,5,desert_6,1,memory-2step-stake-s,583,1825018,0.0-19.0-0.0-0.83,A1PVL74S10WYD7,3B623HUYK76FV1575X2NKKQMM9B8SL,3G0WWMR1UZ0R7BBS9X73W1X3NSNQNX,1,2
84,3,object_04,object_01,1168.4000005722,5,1,495.4000005722,1.0,1,object_10,5,1493,0,9,6,library_7,1,memory-2step-stake-s,584,1833696,0.0-19.0-0.0-0.84,A1PVL74S10WYD7,3B623HUYK76FV1575X2NKKQMM9B8SL,3G0WWMR1UZ0R7BBS9X73W1X3NSNQNX,5,6
85,1,object_09,object_08,1392.8000001907,1,1,710.60000038147,0.5555555555555556,1,object_10,1,1498,0,5,9,desert_3,1,memory-2step-stake-s,585,1842174,0.0-19.0-0.0-0.85,A1PVL74S10WYD7,3B623HUYK76FV1575X2NKKQMM9B8SL,3G0WWMR1UZ0R7BBS9X73W1X3NSNQNX,1,2
86,3,object_04,object_01,670.39999961853,5,1,294.39999961853,0.8888888888888888,1,object_10,5,1538,0,8,5,library_2,1,memory-2step-stake-s,586,1850543,0.0-19.0-0.0-0.86,A1PVL74S10WYD7,3B623HUYK76FV1575X2NKKQMM9B8SL,3G0WWMR1UZ0R7BBS9X73W1X3NSNQNX,5,6
87,2,object_06,object_03,828.19999980927,4,2,581.5,0.6666666666666666,2,object_07,1,1544,0,8,6,forest_5,1,memory-2step-stake-s,587,1858982,0.0-19.0-0.0-0.87,A1PVL74S10WYD7,3B623HUYK76FV1575X2NKKQMM9B8SL,3G0WWMR1UZ0R7BBS9X73W1X3NSNQNX,3,4
88,3,object_01,object_04,552.5999994278,6,1,549.69999980927,0.5555555555555556,2,object_07,5,1569,0,8,5,library_1,1,memory-2step-stake-s,588,1867292,0.0-19.0-0.0-0.88,A1PVL74S10WYD7,3B623HUYK76FV1575X2NKKQMM9B8SL,3G0WWMR1UZ0R7BBS9X73W1X3NSNQNX,6,5
89,2,object_06,object_03,442.5,3,1,344.20000076294,0.5555555555555556,1,object_10,1,1574,0,5,6,forest_7,1,memory-2step-stake-s,589,1875406,0.0-19.0-0.0-0.89,A1PVL74S10WYD7,3B623HUYK76FV1575X2NKKQMM9B8SL,3G0WWMR1UZ0R7BBS9X73W1X3NSNQNX,3,4
90,3,object_04,object_01,592.80000019073,6,2,474.0,0.8888888888888888,2,object_07,5,1614,0,6,8,library_4,1,memory-2step-stake-s,590,1883972,0.0-19.0-0.0-0.90,A1PVL74S10WYD7,3B623HUYK76FV1575X2NKKQMM9B8SL,3G0WWMR1UZ0R7BBS9X73W1X3NSNQNX,5,6
91,4,object_02,object_05,702.69999980927,8,1,439.30000019073,0.7777777777777778,2,object_07,1,1621,0,4,7,restaurant_2,1,memory-2step-stake-s,591,1892385,0.0-19.0-0.0-0.91,A1PVL74S10WYD7,3B623HUYK76FV1575X2NKKQMM9B8SL,3G0WWMR1UZ0R7BBS9X73W1X3NSNQNX,8,7
92,1,object_08,object_09,694.89999961853,2,1,355.10000038147,0.7777777777777778,2,object_07,1,1628,0,4,7,desert_5,1,memory-2step-stake-s,592,1900716,0.0-19.0-0.0-0.92,A1PVL74S10WYD7,3B623HUYK76FV1575X2NKKQMM9B8SL,3G0WWMR1UZ0R7BBS9X73W1X3NSNQNX,2,1
93,1,object_08,object_09,659.60000038147,2,1,679.0,1.0,2,object_07,1,1637,0,2,9,desert_3,1,memory-2step-stake-s,593,1909586,0.0-19.0-0.0-0.93,A1PVL74S10WYD7,3B623HUYK76FV1575X2NKKQMM9B8SL,3G0WWMR1UZ0R7BBS9X73W1X3NSNQNX,2,1
94,1,object_08,object_09,489.60000038147,2,1,581.19999980927,1.0,2,object_07,1,1646,0,2,9,desert_5,1,memory-2step-stake-s,594,1918370,0.0-19.0-0.0-0.94,A1PVL74S10WYD7,3B623HUYK76FV1575X2NKKQMM9B8SL,3G0WWMR1UZ0R7BBS9X73W1X3NSNQNX,2,1
95,1,object_08,object_09,621.4000005722,1,2,586.89999961853,0.2222222222222222,1,object_10,5,1656,0,2,9,desert_3,1,memory-2step-stake-s,595,1926413,0.0-19.0-0.0-0.95,A1PVL74S10WYD7,3B623HUYK76FV1575X2NKKQMM9B8SL,3G0WWMR1UZ0R7BBS9X73W1X3NSNQNX,2,1
96,1,object_09,object_08,374.89999961853,1,1,429.5,0.3333333333333333,1,object_10,5,1671,0,3,9,desert_5,1,memory-2step-stake-s,596,1934413,0.0-19.0-0.0-0.96,A1PVL74S10WYD7,3B623HUYK76FV1575X2NKKQMM9B8SL,3G0WWMR1UZ0R7BBS9X73W1X3NSNQNX,1,2
97,4,object_02,object_05,763.0,8,1,309.0,0.7777777777777778,2,object_07,5,1706,0,4,7,restaurant_1,1,memory-2step-stake-s,597,1942705,0.0-19.0-0.0-0.97,A1PVL74S10WYD7,3B623HUYK76FV1575X2NKKQMM9B8SL,3G0WWMR1UZ0R7BBS9X73W1X3NSNQNX,8,7
98,4,object_02,object_05,454.69999980927,8,1,871.80000019073,1.0,2,object_07,1,1715,0,5,9,restaurant_3,1,memory-2step-stake-s,598,1951766,0.0-19.0-0.0-0.98,A1PVL74S10WYD7,3B623HUYK76FV1575X2NKKQMM9B8SL,3G0WWMR1UZ0R7BBS9X73W1X3NSNQNX,8,7
99,3,object_01,object_04,719.89999961853,6,1,399.29999923706,0.5555555555555556,2,object_07,5,1740,0,5,5,library_1,1,memory-2step-stake-s,599,1959933,0.0-19.0-0.0-0.99,A1PVL74S10WYD7,3B623HUYK76FV1575X2NKKQMM9B8SL,3G0WWMR1UZ0R7BBS9X73W1X3NSNQNX,6,5
100,4,object_02,object_05,675.30000019073,7,2,244.60000038147,0.5555555555555556,1,object_10,5,1765,0,5,6,restaurant_3,1,memory-2step-stake-s,600,1967945,0.0-19.0-0.0-0.100,A1PVL74S10WYD7,3B623HUYK76FV1575X2NKKQMM9B8SL,3G0WWMR1UZ0R7BBS9X73W1X3NSNQNX,8,7
101,2,object_03,object_06,447.80000019073,4,1,404.5,0.2222222222222222,2,object_07,1,1767,0,3,2,forest_4,1,memory-2step-stake-s,601,1975800,0.0-19.0-0.0-0.101,A1PVL74S10WYD7,3B623HUYK76FV1575X2NKKQMM9B8SL,3G0WWMR1UZ0R7BBS9X73W1X3NSNQNX,4,3
102,3,object_04,object_01,702.5,6,2,520.5,0.1111111111111111,2,object_07,5,1772,0,6,1,library_7,1,memory-2step-stake-s,602,1983673,0.0-19.0-0.0-0.102,A1PVL74S10WYD7,3B623HUYK76FV1575X2NKKQMM9B8SL,3G0WWMR1UZ0R7BBS9X73W1X3NSNQNX,5,6
103,2,object_06,object_03,674.30000019073,3,1,458.89999961853,0.6666666666666666,1,object_10,1,1778,0,6,3,forest_3,1,memory-2step-stake-s,603,1991999,0.0-19.0-0.0-0.103,A1PVL74S10WYD7,3B623HUYK76FV1575X2NKKQMM9B8SL,3G0WWMR1UZ0R7BBS9X73W1X3NSNQNX,3,4
104,2,object_06,object_03,696.0999994278,4,2,312.0,0.4444444444444444,2,object_07,1,1782,0,5,4,forest_4,1,memory-2step-stake-s,604,1999971,0.0-19.0-0.0-0.104,A1PVL74S10WYD7,3B623HUYK76FV1575X2NKKQMM9B8SL,3G0WWMR1UZ0R7BBS9X73W1X3NSNQNX,3,4
105,4,object_02,object_05,1044.3000001907,8,1,539.19999980927,0.2222222222222222,2,object_07,1,1784,0,1,2,restaurant_3,1,memory-2step-stake-s,605,2007971,0.0-19.0-0.0-0.105,A1PVL74S10WYD7,3B623HUYK76FV1575X2NKKQMM9B8SL,3G0WWMR1UZ0R7BBS9X73W1X3NSNQNX,8,7
106,2,object_06,object_03,917.5999994278,3,1,297.60000038147,0.0,1,object_10,5,1784,0,0,0,forest_4,1,memory-2step-stake-s,606,2015514,0.0-19.0-0.0-0.106,A1PVL74S10WYD7,3B623HUYK76FV1575X2NKKQMM9B8SL,3G0WWMR1UZ0R7BBS9X73W1X3NSNQNX,3,4
107,1,object_08,object_09,537.5,2,1,374.39999961853,0.2222222222222222,2,object_07,1,1786,0,0,2,desert_5,1,memory-2step-stake-s,607,2023346,0.0-19.0-0.0-0.107,A1PVL74S10WYD7,3B623HUYK76FV1575X2NKKQMM9B8SL,3G0WWMR1UZ0R7BBS9X73W1X3NSNQNX,2,1
108,4,object_05,object_02,698.80000019073,7,1,271.39999961853,0.1111111111111111,1,object_10,5,1791,0,1,3,restaurant_3,1,memory-2step-stake-s,608,2030970,0.0-19.0-0.0-0.108,A1PVL74S10WYD7,3B623HUYK76FV1575X2NKKQMM9B8SL,3G0WWMR1UZ0R7BBS9X73W1X3NSNQNX,7,8
109,3,object_04,object_01,619.39999961853,6,2,461.89999961853,0.1111111111111111,2,object_07,1,1792,0,1,1,library_2,1,memory-2step-stake-s,609,2038784,0.0-19.0-0.0-0.109,A1PVL74S10WYD7,3B623HUYK76FV1575X2NKKQMM9B8SL,3G0WWMR1UZ0R7BBS9X73W1X3NSNQNX,5,6
110,3,object_01,object_04,681.5999994278,6,1,502.30000019073,0.3333333333333333,2,object_07,5,1807,0,3,3,library_4,1,memory-2step-stake-s,610,2046833,0.0-19.0-0.0-0.110,A1PVL74S10WYD7,3B623HUYK76FV1575X2NKKQMM9B8SL,3G0WWMR1UZ0R7BBS9X73W1X3NSNQNX,6,5
111,2,object_06,object_03,787.0999994278,3,1,309.5999994278,0.3333333333333333,1,object_10,1,1810,0,3,1,forest_3,1,memory-2step-stake-s,611,2054701,0.0-19.0-0.0-0.111,A1PVL74S10WYD7,3B623HUYK76FV1575X2NKKQMM9B8SL,3G0WWMR1UZ0R7BBS9X73W1X3NSNQNX,3,4
112,3,object_04,object_01,407.5999994278,6,2,343.10000038147,0.2222222222222222,2,object_07,5,1820,0,5,2,library_2,1,memory-2step-stake-s,612,2062500,0.0-19.0-0.0-0.112,A1PVL74S10WYD7,3B623HUYK76FV1575X2NKKQMM9B8SL,3G0WWMR1UZ0R7BBS9X73W1X3NSNQNX,5,6
113,3,object_01,object_04,513.19999980927,6,1,259.80000019073,0.0,2,object_07,5,1820,0,7,0,library_4,1,memory-2step-stake-s,613,2070008,0.0-19.0-0.0-0.113,A1PVL74S10WYD7,3B623HUYK76FV1575X2NKKQMM9B8SL,3G0WWMR1UZ0R7BBS9X73W1X3NSNQNX,6,5
114,3,object_04,object_01,671.89999961853,5,1,570.5,0.5555555555555556,1,object_10,1,1825,0,5,0,library_1,1,memory-2step-stake-s,614,2078336,0.0-19.0-0.0-0.114,A1PVL74S10WYD7,3B623HUYK76FV1575X2NKKQMM9B8SL,3G0WWMR1UZ0R7BBS9X73W1X3NSNQNX,5,6
115,2,object_03,object_06,669.39999961853,4,1,454.10000038147,0.0,2,object_07,1,1825,0,7,0,forest_3,1,memory-2step-stake-s,615,2086046,0.0-19.0-0.0-0.115,A1PVL74S10WYD7,3B623HUYK76FV1575X2NKKQMM9B8SL,3G0WWMR1UZ0R7BBS9X73W1X3NSNQNX,4,3
116,3,object_01,object_04,718.69999980927,5,2,386.69999980927,0.1111111111111111,1,object_10,5,1830,0,1,1,library_1,1,memory-2step-stake-s,616,2093778,0.0-19.0-0.0-0.116,A1PVL74S10WYD7,3B623HUYK76FV1575X2NKKQMM9B8SL,3G0WWMR1UZ0R7BBS9X73W1X3NSNQNX,6,5
117,1,object_08,object_09,1046.6000003815,1,2,397.0999994278,0.1111111111111111,1,object_10,5,1835,0,1,0,desert_6,1,memory-2step-stake-s,617,2101532,0.0-19.0-0.0-0.117,A1PVL74S10WYD7,3B623HUYK76FV1575X2NKKQMM9B8SL,3G0WWMR1UZ0R7BBS9X73W1X3NSNQNX,2,1
118,1,object_08,object_09,460.79999923706,1,2,299.5,0.1111111111111111,1,object_10,1,1836,0,1,0,desert_3,1,memory-2step-stake-s,618,2109188,0.0-19.0-0.0-0.118,A1PVL74S10WYD7,3B623HUYK76FV1575X2NKKQMM9B8SL,3G0WWMR1UZ0R7BBS9X73W1X3NSNQNX,2,1
119,4,object_02,object_05,588.20000076294,8,1,510.39999961853,0.2222222222222222,2,object_07,5,1846,0,1,2,restaurant_6,1,memory-2step-stake-s,619,2117153,0.0-19.0-0.0-0.119,A1PVL74S10WYD7,3B623HUYK76FV1575X2NKKQMM9B8SL,3G0WWMR1UZ0R7BBS9X73W1X3NSNQNX,8,7
120,4,object_02,object_05,696.80000019073,7,2,675.69999980927,0.0,1,object_10,5,1846,0,0,2,restaurant_6,1,memory-2step-stake-s,620,2125073,0.0-19.0-0.0-0.120,A1PVL74S10WYD7,3B623HUYK76FV1575X2NKKQMM9B8SL,3G0WWMR1UZ0R7BBS9X73W1X3NSNQNX,8,7
121,3,object_01,object_04,429.5999994278,6,1,338.5,0.3333333333333333,2,object_07,1,1849,0,3,3,library_1,1,memory-2step-stake-s,621,2132974,0.0-19.0-0.0-0.121,A1PVL74S10WYD7,3B623HUYK76FV1575X2NKKQMM9B8SL,3G0WWMR1UZ0R7BBS9X73W1X3NSNQNX,6,5
122,2,object_06,object_03,713.0,4,2,587.19999980927,0.1111111111111111,2,object_07,1,1850,0,2,1,forest_4,1,memory-2step-stake-s,622,2140915,0.0-19.0-0.0-0.122,A1PVL74S10WYD7,3B623HUYK76FV1575X2NKKQMM9B8SL,3G0WWMR1UZ0R7BBS9X73W1X3NSNQNX,3,4
123,1,object_08,object_09,554.10000038147,1,2,400.5,0.2222222222222222,1,object_10,1,1852,0,2,0,desert_3,1,memory-2step-stake-s,623,2148776,0.0-19.0-0.0-0.123,A1PVL74S10WYD7,3B623HUYK76FV1575X2NKKQMM9B8SL,3G0WWMR1UZ0R7BBS9X73W1X3NSNQNX,2,1
124,1,object_08,object_09,658.5999994278,1,2,406.0,0.3333333333333333,1,object_10,1,1855,0,3,1,desert_1,1,memory-2step-stake-s,624,2156744,0.0-19.0-0.0-0.124,A1PVL74S10WYD7,3B623HUYK76FV1575X2NKKQMM9B8SL,3G0WWMR1UZ0R7BBS9X73W1X3NSNQNX,2,1
125,2,object_06,object_03,728.10000038147,3,1,1108.0,0.3333333333333333,1,object_10,1,1858,0,3,1,forest_5,1,memory-2step-stake-s,625,2165409,0.0-19.0-0.0-0.125,A1PVL74S10WYD7,3B623HUYK76FV1575X2NKKQMM9B8SL,3G0WWMR1UZ0R7BBS9X73W1X3NSNQNX,3,4
126,2,object_03,object_06,702.29999923706,3,2,747.9000005722,0.4444444444444444,1,object_10,1,1862,0,4,2,forest_7,1,memory-2step-stake-s,626,2173830,0.0-19.0-0.0-0.126,A1PVL74S10WYD7,3B623HUYK76FV1575X2NKKQMM9B8SL,3G0WWMR1UZ0R7BBS9X73W1X3NSNQNX,4,3
127,2,object_03,object_06,664.5,3,2,446.0999994278,0.4444444444444444,1,object_10,1,1866,0,4,2,forest_5,1,memory-2step-stake-s,627,2181951,0.0-19.0-0.0-0.127,A1PVL74S10WYD7,3B623HUYK76FV1575X2NKKQMM9B8SL,3G0WWMR1UZ0R7BBS9X73W1X3NSNQNX,4,3
128,4,object_02,object_05,694.19999980927,7,2,310.89999961853,0.3333333333333333,1,object_10,5,1881,0,3,4,restaurant_1,1,memory-2step-stake-s,629,2225178,0.0-19.0-0.1-0.128,A1PVL74S10WYD7,3B623HUYK76FV1575X2NKKQMM9B8SL,3G0WWMR1UZ0R7BBS9X73W1X3NSNQNX,8,7
129,2,object_06,object_03,645.0,3,1,428.5999994278,0.2222222222222222,1,object_10,1,1883,0,2,1,forest_5,1,memory-2step-stake-s,630,2233070,0.0-19.0-0.1-0.129,A1PVL74S10WYD7,3B623HUYK76FV1575X2NKKQMM9B8SL,3G0WWMR1UZ0R7BBS9X73W1X3NSNQNX,3,4
130,4,object_05,object_02,570.5,8,2,367.0999994278,0.2222222222222222,2,object_07,5,1893,0,1,2,restaurant_3,1,memory-2step-stake-s,631,2240898,0.0-19.0-0.1-0.130,A1PVL74S10WYD7,3B623HUYK76FV1575X2NKKQMM9B8SL,3G0WWMR1UZ0R7BBS9X73W1X3NSNQNX,7,8
131,3,object_01,object_04,622.0999994278,6,1,651.30000019073,0.0,2,object_07,5,1893,0,0,0,library_7,1,memory-2step-stake-s,632,2248797,0.0-19.0-0.1-0.131,A1PVL74S10WYD7,3B623HUYK76FV1575X2NKKQMM9B8SL,3G0WWMR1UZ0R7BBS9X73W1X3NSNQNX,6,5
132,2,object_06,object_03,629.70000076294,3,1,354.0,0.0,1,object_10,1,1893,0,0,0,forest_7,1,memory-2step-stake-s,633,2256403,0.0-19.0-0.1-0.132,A1PVL74S10WYD7,3B623HUYK76FV1575X2NKKQMM9B8SL,3G0WWMR1UZ0R7BBS9X73W1X3NSNQNX,3,4
133,4,object_05,object_02,758.39999961853,7,1,303.0,0.4444444444444444,1,object_10,5,1913,0,4,2,restaurant_1,1,memory-2step-stake-s,634,2264373,0.0-19.0-0.1-0.133,A1PVL74S10WYD7,3B623HUYK76FV1575X2NKKQMM9B8SL,3G0WWMR1UZ0R7BBS9X73W1X3NSNQNX,7,8
134,1,object_08,object_09,499.9000005722,1,2,644.80000019073,0.3333333333333333,1,object_10,1,1916,0,3,1,desert_6,1,memory-2step-stake-s,635,2272594,0.0-19.0-0.1-0.134,A1PVL74S10WYD7,3B623HUYK76FV1575X2NKKQMM9B8SL,3G0WWMR1UZ0R7BBS9X73W1X3NSNQNX,2,1
135,4,object_02,object_05,710.4000005722,7,2,534.39999961853,0.3333333333333333,1,object_10,5,1931,0,3,1,restaurant_1,1,memory-2step-stake-s,636,2280686,0.0-19.0-0.1-0.135,A1PVL74S10WYD7,3B623HUYK76FV1575X2NKKQMM9B8SL,3G0WWMR1UZ0R7BBS9X73W1X3NSNQNX,8,7
136,1,object_08,object_09,497.20000076294,1,2,445.4000005722,0.1111111111111111,1,object_10,5,1936,0,1,1,desert_3,1,memory-2step-stake-s,637,2288502,0.0-19.0-0.1-0.136,A1PVL74S10WYD7,3B623HUYK76FV1575X2NKKQMM9B8SL,3G0WWMR1UZ0R7BBS9X73W1X3NSNQNX,2,1
137,4,object_05,object_02,327.89999961853,7,1,330.5,0.1111111111111111,1,object_10,5,1941,0,1,3,restaurant_6,1,memory-2step-stake-s,638,2296191,0.0-19.0-0.1-0.137,A1PVL74S10WYD7,3B623HUYK76FV1575X2NKKQMM9B8SL,3G0WWMR1UZ0R7BBS9X73W1X3NSNQNX,7,8
138,4,object_02,object_05,554.4000005722,7,2,253.69999980927,0.1111111111111111,1,object_10,5,1946,0,1,4,restaurant_1,1,memory-2step-stake-s,639,2303800,0.0-19.0-0.1-0.138,A1PVL74S10WYD7,3B623HUYK76FV1575X2NKKQMM9B8SL,3G0WWMR1UZ0R7BBS9X73W1X3NSNQNX,8,7
139,2,object_06,object_03,643.20000076294,4,2,366.5,0.2222222222222222,2,object_07,1,1948,0,1,2,forest_5,1,memory-2step-stake-s,640,2311628,0.0-19.0-0.1-0.139,A1PVL74S10WYD7,3B623HUYK76FV1575X2NKKQMM9B8SL,3G0WWMR1UZ0R7BBS9X73W1X3NSNQNX,3,4
140,3,object_04,object_01,659.60000038147,5,1,409.0,0.1111111111111111,1,object_10,1,1949,0,1,1,library_7,1,memory-2step-stake-s,641,2319388,0.0-19.0-0.1-0.140,A1PVL74S10WYD7,3B623HUYK76FV1575X2NKKQMM9B8SL,3G0WWMR1UZ0R7BBS9X73W1X3NSNQNX,5,6
141,2,object_06,object_03,561.9000005722,4,2,453.69999980927,0.0,2,object_07,1,1949,0,2,0,forest_3,1,memory-2step-stake-s,642,2327090,0.0-19.0-0.1-0.141,A1PVL74S10WYD7,3B623HUYK76FV1575X2NKKQMM9B8SL,3G0WWMR1UZ0R7BBS9X73W1X3NSNQNX,3,4
142,3,object_01,object_04,629.0,6,1,276.80000019073,0.2222222222222222,2,object_07,5,1959,0,7,2,library_1,1,memory-2step-stake-s,643,2334814,0.0-19.0-0.1-0.142,A1PVL74S10WYD7,3B623HUYK76FV1575X2NKKQMM9B8SL,3G0WWMR1UZ0R7BBS9X73W1X3NSNQNX,6,5
143,1,object_08,object_09,804.89999961853,1,2,386.10000038147,0.7777777777777778,1,object_10,1,1966,0,7,1,desert_1,1,memory-2step-stake-s,644,2343195,0.0-19.0-0.1-0.143,A1PVL74S10WYD7,3B623HUYK76FV1575X2NKKQMM9B8SL,3G0WWMR1UZ0R7BBS9X73W1X3NSNQNX,2,1
144,4,object_02,object_05,562.5999994278,7,2,-1.0,0.0,1,object_10,5,1966,0,8,3,restaurant_2,1,memory-2step-stake-s,645,2351751,0.0-19.0-0.1-0.144,A1PVL74S10WYD7,3B623HUYK76FV1575X2NKKQMM9B8SL,3G0WWMR1UZ0R7BBS9X73W1X3NSNQNX,8,7
145,1,object_08,object_09,486.0999994278,1,2,261.4000005722,1.0,1,object_10,1,1975,0,9,3,desert_1,1,memory-2step-stake-s,646,2360203,0.0-19.0-0.1-0.145,A1PVL74S10WYD7,3B623HUYK76FV1575X2NKKQMM9B8SL,3G0WWMR1UZ0R7BBS9X73W1X3NSNQNX,2,1
146,4,object_02,object_05,995.80000019073,7,2,451.0999994278,1.0,1,object_10,5,2020,0,9,5,restaurant_3,1,memory-2step-stake-s,647,2368842,0.0-19.0-0.1-0.146,A1PVL74S10WYD7,3B623HUYK76FV1575X2NKKQMM9B8SL,3G0WWMR1UZ0R7BBS9X73W1X3NSNQNX,8,7
147,2,object_06,object_03,599.5,3,1,308.80000019073,1.0,1,object_10,1,2029,0,9,3,forest_3,1,memory-2step-stake-s,648,2377357,0.0-19.0-0.1-0.147,A1PVL74S10WYD7,3B623HUYK76FV1575X2NKKQMM9B8SL,3G0WWMR1UZ0R7BBS9X73W1X3NSNQNX,3,4
148,2,object_06,object_03,442.60000038147,4,2,278.5999994278,0.2222222222222222,2,object_07,1,2031,0,9,2,forest_7,1,memory-2step-stake-s,649,2385085,0.0-19.0-0.1-0.148,A1PVL74S10WYD7,3B623HUYK76FV1575X2NKKQMM9B8SL,3G0WWMR1UZ0R7BBS9X73W1X3NSNQNX,3,4
149,3,object_04,object_01,502.89999961853,5,1,654.4000005722,0.7777777777777778,1,object_10,5,2066,0,7,3,library_1,1,memory-2step-stake-s,650,2393740,0.0-19.0-0.1-0.149,A1PVL74S10WYD7,3B623HUYK76FV1575X2NKKQMM9B8SL,3G0WWMR1UZ0R7BBS9X73W1X3NSNQNX,5,6
150,3,object_01,object_04,574.60000038147,5,2,391.5,1.0,1,object_10,5,2111,0,9,3,library_7,1,memory-2step-stake-s,651,2402325,0.0-19.0-0.1-0.150,A1PVL74S10WYD7,3B623HUYK76FV1575X2NKKQMM9B8SL,3G0WWMR1UZ0R7BBS9X73W1X3NSNQNX,6,5
151,3,object_01,object_04,658.19999980927,5,2,454.69999980927,0.8888888888888888,1,object_10,5,2151,0,8,2,library_2,1,memory-2step-stake-s,652,2410863,0.0-19.0-0.1-0.151,A1PVL74S10WYD7,3B623HUYK76FV1575X2NKKQMM9B8SL,3G0WWMR1UZ0R7BBS9X73W1X3NSNQNX,6,5
152,3,object_04,object_01,563.10000038147,5,1,786.30000019073,0.8888888888888888,1,object_10,5,2191,0,8,3,library_4,1,memory-2step-stake-s,653,2419733,0.0-19.0-0.1-0.152,A1PVL74S10WYD7,3B623HUYK76FV1575X2NKKQMM9B8SL,3G0WWMR1UZ0R7BBS9X73W1X3NSNQNX,5,6
153,1,object_09,object_08,476.5,1,1,363.80000019073,0.6666666666666666,1,object_10,1,2197,0,6,3,desert_3,1,memory-2step-stake-s,654,2427983,0.0-19.0-0.1-0.153,A1PVL74S10WYD7,3B623HUYK76FV1575X2NKKQMM9B8SL,3G0WWMR1UZ0R7BBS9X73W1X3NSNQNX,1,2
154,4,object_05,object_02,1376.1999998093,8,2,451.10000038147,0.5555555555555556,2,object_07,5,2222,0,6,5,restaurant_3,1,memory-2step-stake-s,655,2436208,0.0-19.0-0.1-0.154,A1PVL74S10WYD7,3B623HUYK76FV1575X2NKKQMM9B8SL,3G0WWMR1UZ0R7BBS9X73W1X3NSNQNX,7,8
155,4,object_02,object_05,782.5,7,2,421.69999980927,0.7777777777777778,1,object_10,5,2257,0,7,4,restaurant_1,1,memory-2step-stake-s,656,2444614,0.0-19.0-0.1-0.155,A1PVL74S10WYD7,3B623HUYK76FV1575X2NKKQMM9B8SL,3G0WWMR1UZ0R7BBS9X73W1X3NSNQNX,8,7
156,1,object_08,object_09,850.0999994278,1,2,1106.6999998093,0.7777777777777778,1,object_10,1,2264,0,7,0,desert_6,1,memory-2step-stake-s,657,2453709,0.0-19.0-0.1-0.156,A1PVL74S10WYD7,3B623HUYK76FV1575X2NKKQMM9B8SL,3G0WWMR1UZ0R7BBS9X73W1X3NSNQNX,2,1
157,4,object_02,object_05,423.5,7,2,497.0999994278,0.5555555555555556,1,object_10,5,2289,0,5,3,restaurant_2,1,memory-2step-stake-s,658,2461992,0.0-19.0-0.1-0.157,A1PVL74S10WYD7,3B623HUYK76FV1575X2NKKQMM9B8SL,3G0WWMR1UZ0R7BBS9X73W1X3NSNQNX,8,7
158,4,object_02,object_05,1164.6000003815,7,2,288.69999980927,0.6666666666666666,1,object_10,1,2295,0,6,2,restaurant_2,1,memory-2step-stake-s,659,2470167,0.0-19.0-0.1-0.158,A1PVL74S10WYD7,3B623HUYK76FV1575X2NKKQMM9B8SL,3G0WWMR1UZ0R7BBS9X73W1X3NSNQNX,8,7
159,4,object_05,object_02,642.60000038147,7,1,313.80000019073,0.5555555555555556,1,object_10,5,2320,0,5,1,restaurant_1,1,memory-2step-stake-s,660,2478244,0.0-19.0-0.1-0.159,A1PVL74S10WYD7,3B623HUYK76FV1575X2NKKQMM9B8SL,3G0WWMR1UZ0R7BBS9X73W1X3NSNQNX,7,8
160,1,object_08,object_09,487.80000019073,2,1,392.10000038147,0.1111111111111111,2,object_07,1,2321,0,4,1,desert_5,1,memory-2step-stake-s,661,2485981,0.0-19.0-0.1-0.160,A1PVL74S10WYD7,3B623HUYK76FV1575X2NKKQMM9B8SL,3G0WWMR1UZ0R7BBS9X73W1X3NSNQNX,2,1
161,2,object_06,object_03,578.5,3,1,561.4000005722,0.2222222222222222,1,object_10,1,2323,0,2,0,forest_7,1,memory-2step-stake-s,662,2493998,0.0-19.0-0.1-0.161,A1PVL74S10WYD7,3B623HUYK76FV1575X2NKKQMM9B8SL,3G0WWMR1UZ0R7BBS9X73W1X3NSNQNX,3,4
162,3,object_01,object_04,575.5,6,1,530.69999980927,0.5555555555555556,2,object_07,5,2348,0,1,5,library_7,1,memory-2step-stake-s,663,2502298,0.0-19.0-0.1-0.162,A1PVL74S10WYD7,3B623HUYK76FV1575X2NKKQMM9B8SL,3G0WWMR1UZ0R7BBS9X73W1X3NSNQNX,6,5
163,2,object_06,object_03,554.30000019073,3,1,559.60000038147,0.2222222222222222,1,object_10,1,2350,0,2,4,forest_7,1,memory-2step-stake-s,664,2510312,0.0-19.0-0.1-0.163,A1PVL74S10WYD7,3B623HUYK76FV1575X2NKKQMM9B8SL,3G0WWMR1UZ0R7BBS9X73W1X3NSNQNX,3,4
164,1,object_09,object_08,607.5999994278,2,2,450.89999961853,0.0,2,object_07,1,2350,0,3,0,desert_1,1,memory-2step-stake-s,665,2518009,0.0-19.0-0.1-0.164,A1PVL74S10WYD7,3B623HUYK76FV1575X2NKKQMM9B8SL,3G0WWMR1UZ0R7BBS9X73W1X3NSNQNX,1,2
165,1,object_09,object_08,638.80000019073,1,1,361.19999980927,0.1111111111111111,1,object_10,1,2351,0,1,1,desert_1,1,memory-2step-stake-s,666,2525722,0.0-19.0-0.1-0.165,A1PVL74S10WYD7,3B623HUYK76FV1575X2NKKQMM9B8SL,3G0WWMR1UZ0R7BBS9X73W1X3NSNQNX,1,2
166,4,object_05,object_02,580.39999961853,7,1,374.30000019073,0.2222222222222222,1,object_10,5,2361,0,2,1,restaurant_6,1,memory-2step-stake-s,667,2533530,0.0-19.0-0.1-0.166,A1PVL74S10WYD7,3B623HUYK76FV1575X2NKKQMM9B8SL,3G0WWMR1UZ0R7BBS9X73W1X3NSNQNX,7,8
167,2,object_06,object_03,1077.8999996185,3,1,356.19999980927,0.4444444444444444,1,object_10,1,2365,0,4,1,forest_5,1,memory-2step-stake-s,668,2541537,0.0-19.0-0.1-0.167,A1PVL74S10WYD7,3B623HUYK76FV1575X2NKKQMM9B8SL,3G0WWMR1UZ0R7BBS9X73W1X3NSNQNX,3,4
168,4,object_05,object_02,602.10000038147,7,1,383.30000019073,0.6666666666666666,1,object_10,1,2371,0,6,1,restaurant_2,1,memory-2step-stake-s,669,2549783,0.0-19.0-0.1-0.168,A1PVL74S10WYD7,3B623HUYK76FV1575X2NKKQMM9B8SL,3G0WWMR1UZ0R7BBS9X73W1X3NSNQNX,7,8
169,2,object_03,object_06,785.19999980927,3,2,434.80000019073,0.6666666666666666,1,object_10,1,2377,0,6,3,forest_3,1,memory-2step-stake-s,670,2558080,0.0-19.0-0.1-0.169,A1PVL74S10WYD7,3B623HUYK76FV1575X2NKKQMM9B8SL,3G0WWMR1UZ0R7BBS9X73W1X3NSNQNX,4,3
170,4,object_05,object_02,727.39999961853,7,1,498.19999980927,0.6666666666666666,1,object_10,5,2407,0,6,4,restaurant_6,1,memory-2step-stake-s,671,2566447,0.0-19.0-0.1-0.170,A1PVL74S10WYD7,3B623HUYK76FV1575X2NKKQMM9B8SL,3G0WWMR1UZ0R7BBS9X73W1X3NSNQNX,7,8
171,2,object_03,object_06,410.39999961853,4,1,245.60000038147,0.4444444444444444,2,object_07,5,2427,0,8,4,forest_7,1,memory-2step-stake-s,672,2574357,0.0-19.0-0.1-0.171,A1PVL74S10WYD7,3B623HUYK76FV1575X2NKKQMM9B8SL,3G0WWMR1UZ0R7BBS9X73W1X3NSNQNX,4,3
172,1,object_09,object_08,642.5,1,1,343.19999980927,1.0,1,object_10,5,2472,0,9,4,desert_5,1,memory-2step-stake-s,673,2582887,0.0-19.0-0.1-0.172,A1PVL74S10WYD7,3B623HUYK76FV1575X2NKKQMM9B8SL,3G0WWMR1UZ0R7BBS9X73W1X3NSNQNX,1,2
173,1,object_09,object_08,541.39999961853,1,1,460.5999994278,0.7777777777777778,1,object_10,1,2479,0,7,1,desert_6,1,memory-2step-stake-s,674,2591328,0.0-19.0-0.1-0.173,A1PVL74S10WYD7,3B623HUYK76FV1575X2NKKQMM9B8SL,3G0WWMR1UZ0R7BBS9X73W1X3NSNQNX,1,2
174,4,object_05,object_02,618.70000076294,7,1,516.69999980927,0.8888888888888888,1,object_10,5,2519,0,8,3,restaurant_6,1,memory-2step-stake-s,675,2599929,0.0-19.0-0.1-0.174,A1PVL74S10WYD7,3B623HUYK76FV1575X2NKKQMM9B8SL,3G0WWMR1UZ0R7BBS9X73W1X3NSNQNX,7,8
175,4,object_02,object_05,-1.0,-1,-1,-1.0,0.0,-,0,1,2519,0,6,3,restaurant_3,1,memory-2step-stake-s,676,2606462,0.0-19.0-0.1-0.175,A1PVL74S10WYD7,3B623HUYK76FV1575X2NKKQMM9B8SL,3G0WWMR1UZ0R7BBS9X73W1X3NSNQNX,8,7
176,1,object_09,object_08,367.0,1,1,359.60000038147,0.7777777777777778,1,object_10,1,2526,0,7,3,desert_3,1,memory-2step-stake-s,677,2614800,0.0-19.0-0.1-0.176,A1PVL74S10WYD7,3B623HUYK76FV1575X2NKKQMM9B8SL,3G0WWMR1UZ0R7BBS9X73W1X3NSNQNX,1,2
177,1,object_09,object_08,386.0,1,1,539.5999994278,0.6666666666666666,1,object_10,1,2532,0,6,3,desert_5,1,memory-2step-stake-s,678,2623220,0.0-19.0-0.1-0.177,A1PVL74S10WYD7,3B623HUYK76FV1575X2NKKQMM9B8SL,3G0WWMR1UZ0R7BBS9X73W1X3NSNQNX,1,2
178,2,object_03,object_06,477.69999980927,4,1,294.69999980927,0.1111111111111111,2,object_07,5,2537,0,6,1,forest_4,1,memory-2step-stake-s,679,2630867,0.0-19.0-0.1-0.178,A1PVL74S10WYD7,3B623HUYK76FV1575X2NKKQMM9B8SL,3G0WWMR1UZ0R7BBS9X73W1X3NSNQNX,4,3
179,2,object_03,object_06,429.39999961853,4,1,346.19999980927,0.1111111111111111,2,object_07,1,2538,0,6,1,forest_3,1,memory-2step-stake-s,680,2638564,0.0-19.0-0.1-0.179,A1PVL74S10WYD7,3B623HUYK76FV1575X2NKKQMM9B8SL,3G0WWMR1UZ0R7BBS9X73W1X3NSNQNX,4,3
180,4,object_02,object_05,619.5999994278,7,2,472.5999994278,0.4444444444444444,1,object_10,5,2558,0,4,1,restaurant_2,1,memory-2step-stake-s,681,2646694,0.0-19.0-0.1-0.180,A1PVL74S10WYD7,3B623HUYK76FV1575X2NKKQMM9B8SL,3G0WWMR1UZ0R7BBS9X73W1X3NSNQNX,8,7
181,1,object_08,object_09,615.30000019073,1,2,432.10000038147,0.4444444444444444,1,object_10,1,2562,0,4,1,desert_6,1,memory-2step-stake-s,682,2654793,0.0-19.0-0.1-0.181,A1PVL74S10WYD7,3B623HUYK76FV1575X2NKKQMM9B8SL,3G0WWMR1UZ0R7BBS9X73W1X3NSNQNX,2,1
182,3,object_04,object_01,405.0,5,1,471.20000076294,0.2222222222222222,1,object_10,5,2572,0,2,1,library_2,1,memory-2step-stake-s,683,2662719,0.0-19.0-0.1-0.182,A1PVL74S10WYD7,3B623HUYK76FV1575X2NKKQMM9B8SL,3G0WWMR1UZ0R7BBS9X73W1X3NSNQNX,5,6
183,3,object_04,object_01,529.80000019073,5,1,373.89999961853,0.2222222222222222,1,object_10,5,2582,0,2,0,library_7,1,memory-2step-stake-s,684,2670558,0.0-19.0-0.1-0.183,A1PVL74S10WYD7,3B623HUYK76FV1575X2NKKQMM9B8SL,3G0WWMR1UZ0R7BBS9X73W1X3NSNQNX,5,6
184,1,object_08,object_09,-1.0,-1,-1,-1.0,0.0,-,0,1,2582,0,1,2,desert_6,1,memory-2step-stake-s,685,2677084,0.0-19.0-0.1-0.184,A1PVL74S10WYD7,3B623HUYK76FV1575X2NKKQMM9B8SL,3G0WWMR1UZ0R7BBS9X73W1X3NSNQNX,2,1
185,3,object_01,object_04,801.5,5,2,410.5999994278,0.5555555555555556,1,object_10,5,2607,0,5,5,library_4,1,memory-2step-stake-s,686,2685271,0.0-19.0-0.1-0.185,A1PVL74S10WYD7,3B623HUYK76FV1575X2NKKQMM9B8SL,3G0WWMR1UZ0R7BBS9X73W1X3NSNQNX,6,5
186,4,object_05,object_02,556.30000019073,7,1,401.5,0.5555555555555556,1,object_10,1,2612,0,5,6,restaurant_2,1,memory-2step-stake-s,687,2693438,0.0-19.0-0.1-0.186,A1PVL74S10WYD7,3B623HUYK76FV1575X2NKKQMM9B8SL,3G0WWMR1UZ0R7BBS9X73W1X3NSNQNX,7,8
187,2,object_03,object_06,513.9000005722,3,2,568.39999961853,0.5555555555555556,1,object_10,1,2617,0,5,5,forest_3,1,memory-2step-stake-s,688,2701776,0.0-19.0-0.1-0.187,A1PVL74S10WYD7,3B623HUYK76FV1575X2NKKQMM9B8SL,3G0WWMR1UZ0R7BBS9X73W1X3NSNQNX,4,3
188,1,object_09,object_08,546.39999961853,1,1,706.30000019073,0.7777777777777778,1,object_10,1,2624,0,7,7,desert_5,1,memory-2step-stake-s,689,2710470,0.0-19.0-0.1-0.188,A1PVL74S10WYD7,3B623HUYK76FV1575X2NKKQMM9B8SL,3G0WWMR1UZ0R7BBS9X73W1X3NSNQNX,1,2
189,2,object_03,object_06,442.79999923706,4,1,271.39999961853,1.0,2,object_07,1,2633,0,5,9,forest_7,1,memory-2step-stake-s,690,2718936,0.0-19.0-0.1-0.189,A1PVL74S10WYD7,3B623HUYK76FV1575X2NKKQMM9B8SL,3G0WWMR1UZ0R7BBS9X73W1X3NSNQNX,4,3
190,2,object_03,object_06,540.70000076294,4,1,306.60000038147,0.7777777777777778,2,object_07,1,2640,0,5,7,forest_7,1,memory-2step-stake-s,691,2727212,0.0-19.0-0.1-0.190,A1PVL74S10WYD7,3B623HUYK76FV1575X2NKKQMM9B8SL,3G0WWMR1UZ0R7BBS9X73W1X3NSNQNX,4,3
191,3,object_01,object_04,552.19999980927,5,2,344.19999980927,0.4444444444444444,1,object_10,5,2660,0,4,9,library_4,1,memory-2step-stake-s,692,2735222,0.0-19.0-0.1-0.191,A1PVL74S10WYD7,3B623HUYK76FV1575X2NKKQMM9B8SL,3G0WWMR1UZ0R7BBS9X73W1X3NSNQNX,6,5
192,2,object_03,object_06,737.5,3,2,575.0999994278,0.5555555555555556,1,object_10,1,2665,0,5,7,forest_7,1,memory-2step-stake-s,693,2743571,0.0-19.0-0.1-0.192,A1PVL74S10WYD7,3B623HUYK76FV1575X2NKKQMM9B8SL,3G0WWMR1UZ0R7BBS9X73W1X3NSNQNX,4,3
193,3,object_01,object_04,691.19999980927,5,2,282.5,0.3333333333333333,1,object_10,5,2680,0,3,8,library_1,1,memory-2step-stake-s,694,2751425,0.0-19.0-0.1-0.193,A1PVL74S10WYD7,3B623HUYK76FV1575X2NKKQMM9B8SL,3G0WWMR1UZ0R7BBS9X73W1X3NSNQNX,6,5
194,1,object_08,object_09,736.0999994278,1,2,358.10000038147,0.6666666666666666,1,object_10,5,2710,0,6,9,desert_1,1,memory-2step-stake-s,695,2759669,0.0-19.0-0.1-0.194,A1PVL74S10WYD7,3B623HUYK76FV1575X2NKKQMM9B8SL,3G0WWMR1UZ0R7BBS9X73W1X3NSNQNX,2,1
195,1,object_09,object_08,466.19999980927,1,1,369.4000005722,0.3333333333333333,1,object_10,5,2725,0,3,6,desert_6,1,memory-2step-stake-s,696,2767602,0.0-19.0-0.1-0.195,A1PVL74S10WYD7,3B623HUYK76FV1575X2NKKQMM9B8SL,3G0WWMR1UZ0R7BBS9X73W1X3NSNQNX,1,2
196,1,object_08,object_09,548.19999980927,2,1,337.80000019073,0.8888888888888888,2,object_07,1,2733,0,5,8,desert_3,1,memory-2step-stake-s,697,2776052,0.0-19.0-0.1-0.196,A1PVL74S10WYD7,3B623HUYK76FV1575X2NKKQMM9B8SL,3G0WWMR1UZ0R7BBS9X73W1X3NSNQNX,2,1
197,2,object_06,object_03,812.30000019073,4,2,401.9000005722,0.7777777777777778,2,object_07,1,2740,0,3,7,forest_5,1,memory-2step-stake-s,698,2784429,0.0-19.0-0.1-0.197,A1PVL74S10WYD7,3B623HUYK76FV1575X2NKKQMM9B8SL,3G0WWMR1UZ0R7BBS9X73W1X3NSNQNX,3,4
198,2,object_06,object_03,706.19999980927,4,2,258.30000019073,0.8888888888888888,2,object_07,1,2748,0,3,8,forest_5,1,memory-2step-stake-s,699,2792787,0.0-19.0-0.1-0.198,A1PVL74S10WYD7,3B623HUYK76FV1575X2NKKQMM9B8SL,3G0WWMR1UZ0R7BBS9X73W1X3NSNQNX,3,4
199,2,object_06,object_03,612.69999980927,4,2,731.10000038147,0.7777777777777778,2,object_07,1,2755,0,0,7,forest_5,1,memory-2step-stake-s,700,2801502,0.0-19.0-0.1-0.199,A1PVL74S10WYD7,3B623HUYK76FV1575X2NKKQMM9B8SL,3G0WWMR1UZ0R7BBS9X73W1X3NSNQNX,3,4
200,3,object_01,object_04,966.80000019073,5,2,339.10000038147,0.1111111111111111,1,object_10,5,2760,0,1,4,library_7,1,memory-2step-stake-s,701,2809184,0.0-19.0-0.1-0.200,A1PVL74S10WYD7,3B623HUYK76FV1575X2NKKQMM9B8SL,3G0WWMR1UZ0R7BBS9X73W1X3NSNQNX,6,5
201,1,object_09,object_08,679.5999994278,1,1,338.69999980927,0.1111111111111111,1,object_10,1,2761,0,1,2,desert_5,1,memory-2step-stake-s,702,2816875,0.0-19.0-0.1-0.201,A1PVL74S10WYD7,3B623HUYK76FV1575X2NKKQMM9B8SL,3G0WWMR1UZ0R7BBS9X73W1X3NSNQNX,1,2
202,2,object_03,object_06,471.39999961853,4,1,265.0,0.0,2,object_07,5,2761,0,1,0,forest_3,1,memory-2step-stake-s,703,2824389,0.0-19.0-0.1-0.202,A1PVL74S10WYD7,3B623HUYK76FV1575X2NKKQMM9B8SL,3G0WWMR1UZ0R7BBS9X73W1X3NSNQNX,4,3
203,4,object_02,object_05,519.30000019073,7,2,315.0,0.1111111111111111,1,object_10,5,2766,0,1,1,restaurant_2,1,memory-2step-stake-s,704,2832048,0.0-19.0-0.1-0.203,A1PVL74S10WYD7,3B623HUYK76FV1575X2NKKQMM9B8SL,3G0WWMR1UZ0R7BBS9X73W1X3NSNQNX,8,7
204,4,object_05,object_02,738.19999980927,7,1,294.69999980927,0.2222222222222222,1,object_10,1,2768,0,2,3,restaurant_1,1,memory-2step-stake-s,705,2839804,0.0-19.0-0.1-0.204,A1PVL74S10WYD7,3B623HUYK76FV1575X2NKKQMM9B8SL,3G0WWMR1UZ0R7BBS9X73W1X3NSNQNX,7,8
205,4,object_05,object_02,552.69999980927,7,1,379.9000005722,0.2222222222222222,1,object_10,1,2770,0,2,1,restaurant_2,1,memory-2step-stake-s,706,2847636,0.0-19.0-0.1-0.205,A1PVL74S10WYD7,3B623HUYK76FV1575X2NKKQMM9B8SL,3G0WWMR1UZ0R7BBS9X73W1X3NSNQNX,7,8
206,3,object_01,object_04,628.20000076294,5,2,327.69999980927,0.3333333333333333,1,object_10,5,2785,0,3,1,library_4,1,memory-2step-stake-s,707,2855529,0.0-19.0-0.1-0.206,A1PVL74S10WYD7,3B623HUYK76FV1575X2NKKQMM9B8SL,3G0WWMR1UZ0R7BBS9X73W1X3NSNQNX,6,5
207,4,object_02,object_05,516.80000019073,8,1,353.4000005722,0.4444444444444444,2,object_07,5,2805,0,4,4,restaurant_1,1,memory-2step-stake-s,708,2863551,0.0-19.0-0.1-0.207,A1PVL74S10WYD7,3B623HUYK76FV1575X2NKKQMM9B8SL,3G0WWMR1UZ0R7BBS9X73W1X3NSNQNX,8,7
208,4,object_02,object_05,425.89999961853,8,1,286.4000005722,0.1111111111111111,2,object_07,5,2810,0,5,1,restaurant_1,1,memory-2step-stake-s,709,2871193,0.0-19.0-0.1-0.208,A1PVL74S10WYD7,3B623HUYK76FV1575X2NKKQMM9B8SL,3G0WWMR1UZ0R7BBS9X73W1X3NSNQNX,8,7
209,3,object_04,object_01,587.19999980927,5,1,520.39999961853,0.1111111111111111,1,object_10,5,2815,0,1,1,library_4,1,memory-2step-stake-s,710,2879072,0.0-19.0-0.1-0.209,A1PVL74S10WYD7,3B623HUYK76FV1575X2NKKQMM9B8SL,3G0WWMR1UZ0R7BBS9X73W1X3NSNQNX,5,6
210,2,object_06,object_03,988.19999980927,4,2,602.19999980927,0.1111111111111111,2,object_07,1,2816,0,1,1,forest_4,1,memory-2step-stake-s,711,2887036,0.0-19.0-0.1-0.210,A1PVL74S10WYD7,3B623HUYK76FV1575X2NKKQMM9B8SL,3G0WWMR1UZ0R7BBS9X73W1X3NSNQNX,3,4
211,4,object_05,object_02,461.20000076294,7,1,292.80000019073,0.1111111111111111,1,object_10,1,2817,0,1,3,restaurant_6,1,memory-2step-stake-s,712,2894688,0.0-19.0-0.1-0.211,A1PVL74S10WYD7,3B623HUYK76FV1575X2NKKQMM9B8SL,3G0WWMR1UZ0R7BBS9X73W1X3NSNQNX,7,8
212,1,object_08,object_09,497.79999923706,1,2,453.0999994278,0.2222222222222222,1,object_10,1,2819,0,2,3,desert_3,1,memory-2step-stake-s,713,2902612,0.0-19.0-0.1-0.212,A1PVL74S10WYD7,3B623HUYK76FV1575X2NKKQMM9B8SL,3G0WWMR1UZ0R7BBS9X73W1X3NSNQNX,2,1
213,3,object_04,object_01,588.39999961853,5,1,514.0,0.5555555555555556,1,object_10,5,2844,0,5,4,library_7,1,memory-2step-stake-s,714,2910898,0.0-19.0-0.1-0.213,A1PVL74S10WYD7,3B623HUYK76FV1575X2NKKQMM9B8SL,3G0WWMR1UZ0R7BBS9X73W1X3NSNQNX,5,6
214,1,object_09,object_08,633.69999980927,1,1,309.5,0.0,1,object_10,1,2844,0,0,3,desert_6,1,memory-2step-stake-s,715,2918453,0.0-19.0-0.1-0.214,A1PVL74S10WYD7,3B623HUYK76FV1575X2NKKQMM9B8SL,3G0WWMR1UZ0R7BBS9X73W1X3NSNQNX,1,2
215,1,object_08,object_09,749.10000038147,1,2,379.4000005722,0.0,1,object_10,1,2844,0,0,2,desert_1,1,memory-2step-stake-s,716,2926084,0.0-19.0-0.1-0.215,A1PVL74S10WYD7,3B623HUYK76FV1575X2NKKQMM9B8SL,3G0WWMR1UZ0R7BBS9X73W1X3NSNQNX,2,1
216,1,object_09,object_08,607.89999961853,1,1,365.69999980927,0.3333333333333333,1,object_10,1,2847,0,3,2,desert_6,1,memory-2step-stake-s,717,2934025,0.0-19.0-0.1-0.216,A1PVL74S10WYD7,3B623HUYK76FV1575X2NKKQMM9B8SL,3G0WWMR1UZ0R7BBS9X73W1X3NSNQNX,1,2
217,1,object_08,object_09,625.70000076294,1,2,269.5999994278,0.5555555555555556,1,object_10,5,2872,0,5,1,desert_1,1,memory-2step-stake-s,718,2942072,0.0-19.0-0.1-0.217,A1PVL74S10WYD7,3B623HUYK76FV1575X2NKKQMM9B8SL,3G0WWMR1UZ0R7BBS9X73W1X3NSNQNX,2,1
218,2,object_03,object_06,1018.7999992371,3,2,449.69999980927,0.3333333333333333,1,object_10,1,2875,0,3,3,forest_7,1,memory-2step-stake-s,719,2950095,0.0-19.0-0.1-0.218,A1PVL74S10WYD7,3B623HUYK76FV1575X2NKKQMM9B8SL,3G0WWMR1UZ0R7BBS9X73W1X3NSNQNX,4,3
219,2,object_03,object_06,494.39999961853,4,1,322.39999961853,0.3333333333333333,2,object_07,1,2878,0,3,3,forest_3,1,memory-2step-stake-s,720,2957988,0.0-19.0-0.1-0.219,A1PVL74S10WYD7,3B623HUYK76FV1575X2NKKQMM9B8SL,3G0WWMR1UZ0R7BBS9X73W1X3NSNQNX,4,3
220,3,object_04,object_01,484.69999980927,5,1,308.30000019073,0.3333333333333333,1,object_10,1,2881,0,3,5,library_4,1,memory-2step-stake-s,721,2965863,0.0-19.0-0.1-0.220,A1PVL74S10WYD7,3B623HUYK76FV1575X2NKKQMM9B8SL,3G0WWMR1UZ0R7BBS9X73W1X3NSNQNX,5,6
221,1,object_09,object_08,853.89999961853,1,1,515.4000005722,0.5555555555555556,1,object_10,1,2886,0,5,4,desert_1,1,memory-2step-stake-s,722,2974147,0.0-19.0-0.1-0.221,A1PVL74S10WYD7,3B623HUYK76FV1575X2NKKQMM9B8SL,3G0WWMR1UZ0R7BBS9X73W1X3NSNQNX,1,2
222,3,object_01,object_04,667.19999980927,5,2,922.5,0.5555555555555556,1,object_10,5,2911,0,5,6,library_2,1,memory-2step-stake-s,723,2982857,0.0-19.0-0.1-0.222,A1PVL74S10WYD7,3B623HUYK76FV1575X2NKKQMM9B8SL,3G0WWMR1UZ0R7BBS9X73W1X3NSNQNX,6,5
223,4,object_05,object_02,621.20000076294,8,2,421.0,0.5555555555555556,2,object_07,5,2936,0,4,5,restaurant_6,1,memory-2step-stake-s,724,2991061,0.0-19.0-0.1-0.223,A1PVL74S10WYD7,3B623HUYK76FV1575X2NKKQMM9B8SL,3G0WWMR1UZ0R7BBS9X73W1X3NSNQNX,7,8
224,4,object_02,object_05,767.39999961853,8,1,234.80000019073,0.4444444444444444,2,object_07,5,2956,0,2,4,restaurant_6,1,memory-2step-stake-s,725,2998959,0.0-19.0-0.1-0.224,A1PVL74S10WYD7,3B623HUYK76FV1575X2NKKQMM9B8SL,3G0WWMR1UZ0R7BBS9X73W1X3NSNQNX,8,7
225,4,object_05,object_02,532.39999961853,8,2,335.80000019073,0.5555555555555556,2,object_07,1,2961,0,2,5,restaurant_1,1,memory-2step-stake-s,726,3007075,0.0-19.0-0.1-0.225,A1PVL74S10WYD7,3B623HUYK76FV1575X2NKKQMM9B8SL,3G0WWMR1UZ0R7BBS9X73W1X3NSNQNX,7,8
226,4,object_05,object_02,564.5,7,1,462.80000019073,0.7777777777777778,1,object_10,5,2996,0,7,4,restaurant_6,1,memory-2step-stake-s,727,3015522,0.0-19.0-0.1-0.226,A1PVL74S10WYD7,3B623HUYK76FV1575X2NKKQMM9B8SL,3G0WWMR1UZ0R7BBS9X73W1X3NSNQNX,7,8
227,4,object_02,object_05,965.19999980927,7,2,361.5,0.7777777777777778,1,object_10,5,3031,0,7,4,restaurant_1,1,memory-2step-stake-s,728,3023865,0.0-19.0-0.1-0.227,A1PVL74S10WYD7,3B623HUYK76FV1575X2NKKQMM9B8SL,3G0WWMR1UZ0R7BBS9X73W1X3NSNQNX,8,7
228,3,object_04,object_01,463.5999994278,5,1,436.4000005722,0.6666666666666666,1,object_10,5,3061,0,6,2,library_2,1,memory-2step-stake-s,729,3032171,0.0-19.0-0.1-0.228,A1PVL74S10WYD7,3B623HUYK76FV1575X2NKKQMM9B8SL,3G0WWMR1UZ0R7BBS9X73W1X3NSNQNX,5,6
229,1,object_09,object_08,542.5,1,1,-1.0,0.0,1,object_10,1,3061,0,6,0,desert_3,1,memory-2step-stake-s,730,3040715,0.0-19.0-0.1-0.229,A1PVL74S10WYD7,3B623HUYK76FV1575X2NKKQMM9B8SL,3G0WWMR1UZ0R7BBS9X73W1X3NSNQNX,1,2
230,3,object_01,object_04,562.10000038147,5,2,329.19999980927,0.7777777777777778,1,object_10,5,3096,0,7,2,library_7,1,memory-2step-stake-s,731,3049025,0.0-19.0-0.1-0.230,A1PVL74S10WYD7,3B623HUYK76FV1575X2NKKQMM9B8SL,3G0WWMR1UZ0R7BBS9X73W1X3NSNQNX,6,5
231,4,object_02,object_05,802.29999923706,7,2,287.19999980927,0.4444444444444444,1,object_10,5,3116,0,4,2,restaurant_3,1,memory-2step-stake-s,732,3056983,0.0-19.0-0.1-0.231,A1PVL74S10WYD7,3B623HUYK76FV1575X2NKKQMM9B8SL,3G0WWMR1UZ0R7BBS9X73W1X3NSNQNX,8,7
232,2,object_03,object_06,574.19999980927,4,1,388.69999980927,0.1111111111111111,2,object_07,5,3121,0,3,1,forest_4,1,memory-2step-stake-s,733,3064733,0.0-19.0-0.1-0.232,A1PVL74S10WYD7,3B623HUYK76FV1575X2NKKQMM9B8SL,3G0WWMR1UZ0R7BBS9X73W1X3NSNQNX,4,3
233,3,object_01,object_04,610.10000038147,5,2,404.89999961853,0.6666666666666666,1,object_10,5,3151,0,6,1,library_1,1,memory-2step-stake-s,734,3072999,0.0-19.0-0.1-0.233,A1PVL74S10WYD7,3B623HUYK76FV1575X2NKKQMM9B8SL,3G0WWMR1UZ0R7BBS9X73W1X3NSNQNX,6,5
234,2,object_03,object_06,675.30000019073,4,1,434.5,0.0,2,object_07,1,3151,0,8,0,forest_5,1,memory-2step-stake-s,735,3080681,0.0-19.0-0.1-0.234,A1PVL74S10WYD7,3B623HUYK76FV1575X2NKKQMM9B8SL,3G0WWMR1UZ0R7BBS9X73W1X3NSNQNX,4,3
235,3,object_04,object_01,620.19999980927,5,1,403.30000019073,0.8888888888888888,1,object_10,5,3191,0,8,0,library_4,1,memory-2step-stake-s,736,3089181,0.0-19.0-0.1-0.235,A1PVL74S10WYD7,3B623HUYK76FV1575X2NKKQMM9B8SL,3G0WWMR1UZ0R7BBS9X73W1X3NSNQNX,5,6
236,3,object_01,object_04,779.80000019073,5,2,410.10000038147,0.6666666666666666,1,object_10,5,3221,0,6,2,library_1,1,memory-2step-stake-s,737,3097475,0.0-19.0-0.1-0.236,A1PVL74S10WYD7,3B623HUYK76FV1575X2NKKQMM9B8SL,3G0WWMR1UZ0R7BBS9X73W1X3NSNQNX,6,5
237,4,object_05,object_02,692.20000076294,7,1,492.89999961853,0.3333333333333333,1,object_10,5,3236,0,3,1,restaurant_3,1,memory-2step-stake-s,738,3105528,0.0-19.0-0.1-0.237,A1PVL74S10WYD7,3B623HUYK76FV1575X2NKKQMM9B8SL,3G0WWMR1UZ0R7BBS9X73W1X3NSNQNX,7,8
238,2,object_03,object_06,492.4000005722,3,2,336.39999961853,0.4444444444444444,1,object_10,1,3240,0,4,1,forest_5,1,memory-2step-stake-s,739,3113543,0.0-19.0-0.1-0.238,A1PVL74S10WYD7,3B623HUYK76FV1575X2NKKQMM9B8SL,3G0WWMR1UZ0R7BBS9X73W1X3NSNQNX,4,3
239,4,object_02,object_05,689.69999980927,7,2,314.39999961853,0.5555555555555556,1,object_10,5,3265,0,5,0,restaurant_3,1,memory-2step-stake-s,740,3121634,0.0-19.0-0.1-0.239,A1PVL74S10WYD7,3B623HUYK76FV1575X2NKKQMM9B8SL,3G0WWMR1UZ0R7BBS9X73W1X3NSNQNX,8,7
240,3,object_01,object_04,733.79999923706,6,1,558.89999961853,0.0,2,object_07,1,3265,0,6,0,library_2,1,memory-2step-stake-s,741,3129448,0.0-19.0-0.1-0.240,A1PVL74S10WYD7,3B623HUYK76FV1575X2NKKQMM9B8SL,3G0WWMR1UZ0R7BBS9X73W1X3NSNQNX,6,5
241,3,object_01,object_04,701.5,5,2,313.60000038147,0.5555555555555556,1,object_10,5,3290,0,5,2,library_2,1,memory-2step-stake-s,742,3137549,0.0-19.0-0.1-0.241,A1PVL74S10WYD7,3B623HUYK76FV1575X2NKKQMM9B8SL,3G0WWMR1UZ0R7BBS9X73W1X3NSNQNX,6,5
242,1,object_09,object_08,536.5,1,1,470.79999923706,0.1111111111111111,1,object_10,1,3291,0,1,4,desert_1,1,memory-2step-stake-s,743,3145378,0.0-19.0-0.1-0.242,A1PVL74S10WYD7,3B623HUYK76FV1575X2NKKQMM9B8SL,3G0WWMR1UZ0R7BBS9X73W1X3NSNQNX,1,2
243,3,object_01,object_04,448.0,6,1,294.80000019073,0.5555555555555556,2,object_07,5,3316,0,2,5,library_2,1,memory-2step-stake-s,744,3153439,0.0-19.0-0.1-0.243,A1PVL74S10WYD7,3B623HUYK76FV1575X2NKKQMM9B8SL,3G0WWMR1UZ0R7BBS9X73W1X3NSNQNX,6,5
244,2,object_03,object_06,552.80000019073,4,1,334.10000038147,0.8888888888888888,2,object_07,1,3324,0,0,8,forest_4,1,memory-2step-stake-s,745,3161851,0.0-19.0-0.1-0.244,A1PVL74S10WYD7,3B623HUYK76FV1575X2NKKQMM9B8SL,3G0WWMR1UZ0R7BBS9X73W1X3NSNQNX,4,3
245,4,object_02,object_05,609.4000005722,7,2,373.5,0.2222222222222222,1,object_10,5,3334,0,2,9,restaurant_6,1,memory-2step-stake-s,746,3169703,0.0-19.0-0.1-0.245,A1PVL74S10WYD7,3B623HUYK76FV1575X2NKKQMM9B8SL,3G0WWMR1UZ0R7BBS9X73W1X3NSNQNX,8,7
246,4,object_02,object_05,553.80000019073,8,1,382.5,0.7777777777777778,2,object_07,5,3369,0,3,7,restaurant_2,1,memory-2step-stake-s,747,3178050,0.0-19.0-0.1-0.246,A1PVL74S10WYD7,3B623HUYK76FV1575X2NKKQMM9B8SL,3G0WWMR1UZ0R7BBS9X73W1X3NSNQNX,8,7
247,1,object_08,object_09,551.0999994278,1,2,454.5999994278,0.4444444444444444,1,object_10,5,3389,0,4,6,desert_6,1,memory-2step-stake-s,748,3186168,0.0-19.0-0.1-0.247,A1PVL74S10WYD7,3B623HUYK76FV1575X2NKKQMM9B8SL,3G0WWMR1UZ0R7BBS9X73W1X3NSNQNX,2,1
248,3,object_01,object_04,603.5,6,1,368.10000038147,0.6666666666666666,2,object_07,5,3419,0,8,6,library_1,1,memory-2step-stake-s,749,3194400,0.0-19.0-0.1-0.248,A1PVL74S10WYD7,3B623HUYK76FV1575X2NKKQMM9B8SL,3G0WWMR1UZ0R7BBS9X73W1X3NSNQNX,6,5
249,4,object_02,object_05,520.5,7,2,288.0,0.7777777777777778,1,object_10,1,3426,0,7,4,restaurant_3,1,memory-2step-stake-s,750,3202659,0.0-19.0-0.1-0.249,A1PVL74S10WYD7,3B623HUYK76FV1575X2NKKQMM9B8SL,3G0WWMR1UZ0R7BBS9X73W1X3NSNQNX,8,7
250,1,object_09,object_08,972.10000038147,2,2,454.5,0.3333333333333333,2,object_07,1,3429,0,5,3,desert_5,1,memory-2step-stake-s,751,3210671,0.0-19.0-0.1-0.250,A1PVL74S10WYD7,3B623HUYK76FV1575X2NKKQMM9B8SL,3G0WWMR1UZ0R7BBS9X73W1X3NSNQNX,1,2
251,1,object_08,object_09,453.10000038147,1,2,899.0,0.7777777777777778,1,object_10,1,3436,0,7,2,desert_1,1,memory-2step-stake-s,752,3219548,0.0-19.0-0.1-0.251,A1PVL74S10WYD7,3B623HUYK76FV1575X2NKKQMM9B8SL,3G0WWMR1UZ0R7BBS9X73W1X3NSNQNX,2,1
252,3,object_01,object_04,724.19999980927,5,2,901.30000019073,0.3333333333333333,1,object_10,5,3451,0,3,1,library_4,1,memory-2step-stake-s,753,3228005,0.0-19.0-0.1-0.252,A1PVL74S10WYD7,3B623HUYK76FV1575X2NKKQMM9B8SL,3G0WWMR1UZ0R7BBS9X73W1X3NSNQNX,6,5
253,2,object_03,object_06,568.10000038147,4,1,296.30000019073,0.0,2,object_07,1,3451,0,7,0,forest_3,1,memory-2step-stake-s,754,3235544,0.0-19.0-0.1-0.253,A1PVL74S10WYD7,3B623HUYK76FV1575X2NKKQMM9B8SL,3G0WWMR1UZ0R7BBS9X73W1X3NSNQNX,4,3
254,1,object_08,object_09,565.0999994278,1,2,444.0,0.5555555555555556,1,object_10,1,3456,0,5,0,desert_6,1,memory-2step-stake-s,755,3243734,0.0-19.0-0.1-0.254,A1PVL74S10WYD7,3B623HUYK76FV1575X2NKKQMM9B8SL,3G0WWMR1UZ0R7BBS9X73W1X3NSNQNX,2,1
255,2,object_06,object_03,565.89999961853,3,1,490.5,0.8888888888888888,1,object_10,1,3464,0,8,2,forest_4,1,memory-2step-stake-s,756,3252288,0.0-19.0-0.1-0.255,A1PVL74S10WYD7,3B623HUYK76FV1575X2NKKQMM9B8SL,3G0WWMR1UZ0R7BBS9X73W1X3NSNQNX,3,4
