,state1,stim_left,stim_right,rt_1,choice1,response1,rt_2,points,state2,stim_state2,stake,score,practice,rews1,rews2,background,high_arm,trial_type,trial_index,time_elapsed,internal_node_id,subid,hitid,assignmentid,stim_left_num,stim_right_num
0,3,object_03,object_04,945.89999999851,6,1,475.30000000075,0.6666666666666666,2,object_08,5,30,0,1,6,library_1,1,memory-2step-stake-s,578,2868552,0.0-19.0-0.0-0.0,A3D2U4QF7821ZW,382GHPVPIV7ASJXQ3FB9V025S7G34H,3ZDAD0O1T5T9BLHOS7O7Z8ZO9DWTXY,6,5
1,2,object_07,object_05,533.0,4,2,424.5,0.1111111111111111,2,object_08,1,31,0,1,1,forest_8,1,memory-2step-stake-s,579,2876305,0.0-19.0-0.0-0.1,A3D2U4QF7821ZW,382GHPVPIV7ASJXQ3FB9V025S7G34H,3ZDAD0O1T5T9BLHOS7O7Z8ZO9DWTXY,3,4
2,2,object_05,object_07,549.5,4,1,1360.8000000007,0.1111111111111111,2,object_08,1,32,0,0,1,forest_2,1,memory-2step-stake-s,580,2884980,0.0-19.0-0.0-0.2,A3D2U4QF7821ZW,382GHPVPIV7ASJXQ3FB9V025S7G34H,3ZDAD0O1T5T9BLHOS7O7Z8ZO9DWTXY,4,3
3,2,object_07,object_05,745.39999999851,4,2,453.19999999925,0.5555555555555556,2,object_08,1,37,0,2,5,forest_8,1,memory-2step-stake-s,581,2893155,0.0-19.0-0.0-0.3,A3D2U4QF7821ZW,382GHPVPIV7ASJXQ3FB9V025S7G34H,3ZDAD0O1T5T9BLHOS7O7Z8ZO9DWTXY,3,4
4,4,object_10,object_06,1260.8999999985,8,2,600.5,0.3333333333333333,2,object_08,5,52,0,3,3,restaurant_1,1,memory-2step-stake-s,582,2901276,0.0-19.0-0.0-0.4,A3D2U4QF7821ZW,382GHPVPIV7ASJXQ3FB9V025S7G34H,3ZDAD0O1T5T9BLHOS7O7Z8ZO9DWTXY,7,8
5,1,object_01,object_02,1027.3999999985,2,2,-1.0,0.0,2,object_08,1,52,0,2,2,desert_2,1,memory-2step-stake-s,583,2909787,0.0-19.0-0.0-0.5,A3D2U4QF7821ZW,382GHPVPIV7ASJXQ3FB9V025S7G34H,3ZDAD0O1T5T9BLHOS7O7Z8ZO9DWTXY,1,2
6,2,object_05,object_07,681.19999999925,4,1,317.80000000075,0.4444444444444444,2,object_08,1,56,0,2,4,forest_1,1,memory-2step-stake-s,584,2917722,0.0-19.0-0.0-0.6,A3D2U4QF7821ZW,382GHPVPIV7ASJXQ3FB9V025S7G34H,3ZDAD0O1T5T9BLHOS7O7Z8ZO9DWTXY,4,3
7,3,object_04,object_03,882.09999999776,6,2,349.59999999776,0.3333333333333333,2,object_08,5,71,0,3,3,library_1,1,memory-2step-stake-s,585,2925588,0.0-19.0-0.0-0.7,A3D2U4QF7821ZW,382GHPVPIV7ASJXQ3FB9V025S7G34H,3ZDAD0O1T5T9BLHOS7O7Z8ZO9DWTXY,5,6
8,2,object_05,object_07,753.80000000075,4,1,548.69999999925,0.6666666666666666,2,object_08,1,77,0,2,6,forest_8,1,memory-2step-stake-s,586,2933972,0.0-19.0-0.0-0.8,A3D2U4QF7821ZW,382GHPVPIV7ASJXQ3FB9V025S7G34H,3ZDAD0O1T5T9BLHOS7O7Z8ZO9DWTXY,4,3
9,3,object_03,object_04,480.10000000149,6,1,354.19999999925,0.8888888888888888,2,object_08,5,117,0,1,8,library_6,1,memory-2step-stake-s,587,2942363,0.0-19.0-0.0-0.9,A3D2U4QF7821ZW,382GHPVPIV7ASJXQ3FB9V025S7G34H,3ZDAD0O1T5T9BLHOS7O7Z8ZO9DWTXY,6,5
10,3,object_04,object_03,564.09999999776,6,2,350.89999999851,0.6666666666666666,2,object_08,5,147,0,1,6,library_3,1,memory-2step-stake-s,588,2950559,0.0-19.0-0.0-0.10,A3D2U4QF7821ZW,382GHPVPIV7ASJXQ3FB9V025S7G34H,3ZDAD0O1T5T9BLHOS7O7Z8ZO9DWTXY,5,6
11,1,object_01,object_02,1319.0999999978,2,2,346.39999999851,0.6666666666666666,2,object_08,5,177,0,0,6,desert_4,1,memory-2step-stake-s,589,2958740,0.0-19.0-0.0-0.11,A3D2U4QF7821ZW,382GHPVPIV7ASJXQ3FB9V025S7G34H,3ZDAD0O1T5T9BLHOS7O7Z8ZO9DWTXY,1,2
12,1,object_01,object_02,713.19999999925,2,2,341.10000000149,0.7777777777777778,2,object_08,1,184,0,1,7,desert_6,1,memory-2step-stake-s,590,2967004,0.0-19.0-0.0-0.12,A3D2U4QF7821ZW,382GHPVPIV7ASJXQ3FB9V025S7G34H,3ZDAD0O1T5T9BLHOS7O7Z8ZO9DWTXY,1,2
13,4,object_10,object_06,1242.1999999993,8,2,662.59999999776,0.7777777777777778,2,object_08,1,191,0,3,7,restaurant_8,1,memory-2step-stake-s,591,2975587,0.0-19.0-0.0-0.13,A3D2U4QF7821ZW,382GHPVPIV7ASJXQ3FB9V025S7G34H,3ZDAD0O1T5T9BLHOS7O7Z8ZO9DWTXY,7,8
14,2,object_05,object_07,842.5,4,1,964.40000000224,0.5555555555555556,2,object_08,5,216,0,2,5,forest_3,1,memory-2step-stake-s,592,2984273,0.0-19.0-0.0-0.14,A3D2U4QF7821ZW,382GHPVPIV7ASJXQ3FB9V025S7G34H,3ZDAD0O1T5T9BLHOS7O7Z8ZO9DWTXY,4,3
15,2,object_07,object_05,614.0,4,2,441.0,0.2222222222222222,2,object_08,5,226,0,1,2,forest_8,1,memory-2step-stake-s,593,2992130,0.0-19.0-0.0-0.15,A3D2U4QF7821ZW,382GHPVPIV7ASJXQ3FB9V025S7G34H,3ZDAD0O1T5T9BLHOS7O7Z8ZO9DWTXY,3,4
16,4,object_06,object_10,1107.3000000007,8,1,405.59999999776,0.1111111111111111,2,object_08,5,231,0,1,1,restaurant_5,1,memory-2step-stake-s,594,2999851,0.0-19.0-0.0-0.16,A3D2U4QF7821ZW,382GHPVPIV7ASJXQ3FB9V025S7G34H,3ZDAD0O1T5T9BLHOS7O7Z8ZO9DWTXY,8,7
17,2,object_05,object_07,540.09999999776,4,1,1062.799999997,0.5555555555555556,2,object_08,1,236,0,1,5,forest_2,1,memory-2step-stake-s,595,3008633,0.0-19.0-0.0-0.17,A3D2U4QF7821ZW,382GHPVPIV7ASJXQ3FB9V025S7G34H,3ZDAD0O1T5T9BLHOS7O7Z8ZO9DWTXY,4,3
18,4,object_06,object_10,637.20000000298,8,1,777.0,0.3333333333333333,2,object_08,5,251,0,3,3,restaurant_8,1,memory-2step-stake-s,596,3016927,0.0-19.0-0.0-0.18,A3D2U4QF7821ZW,382GHPVPIV7ASJXQ3FB9V025S7G34H,3ZDAD0O1T5T9BLHOS7O7Z8ZO9DWTXY,8,7
19,1,object_01,object_02,630.0,2,2,537.09999999776,0.3333333333333333,2,object_08,5,266,0,1,3,desert_2,1,memory-2step-stake-s,597,3024983,0.0-19.0-0.0-0.19,A3D2U4QF7821ZW,382GHPVPIV7ASJXQ3FB9V025S7G34H,3ZDAD0O1T5T9BLHOS7O7Z8ZO9DWTXY,1,2
20,4,object_06,object_10,639.39999999851,8,1,377.80000000075,0.4444444444444444,2,object_08,1,270,0,0,4,restaurant_1,1,memory-2step-stake-s,598,3032976,0.0-19.0-0.0-0.20,A3D2U4QF7821ZW,382GHPVPIV7ASJXQ3FB9V025S7G34H,3ZDAD0O1T5T9BLHOS7O7Z8ZO9DWTXY,8,7
21,1,object_01,object_02,702.79999999702,2,2,705.69999999925,0.3333333333333333,2,object_08,1,273,0,0,3,desert_6,1,memory-2step-stake-s,599,3041198,0.0-19.0-0.0-0.21,A3D2U4QF7821ZW,382GHPVPIV7ASJXQ3FB9V025S7G34H,3ZDAD0O1T5T9BLHOS7O7Z8ZO9DWTXY,1,2
22,2,object_05,object_07,728.69999999925,3,2,555.59999999776,0.1111111111111111,1,object_09,1,274,0,1,5,forest_1,1,memory-2step-stake-s,600,3049083,0.0-19.0-0.0-0.22,A3D2U4QF7821ZW,382GHPVPIV7ASJXQ3FB9V025S7G34H,3ZDAD0O1T5T9BLHOS7O7Z8ZO9DWTXY,4,3
23,1,object_02,object_01,859.39999999851,2,1,407.60000000149,0.5555555555555556,2,object_08,1,279,0,0,5,desert_2,1,memory-2step-stake-s,601,3057210,0.0-19.0-0.0-0.23,A3D2U4QF7821ZW,382GHPVPIV7ASJXQ3FB9V025S7G34H,3ZDAD0O1T5T9BLHOS7O7Z8ZO9DWTXY,2,1
24,3,object_03,object_04,819.80000000075,6,1,1117.4000000022,0.4444444444444444,2,object_08,5,299,0,0,4,library_6,1,memory-2step-stake-s,602,3065946,0.0-19.0-0.0-0.24,A3D2U4QF7821ZW,382GHPVPIV7ASJXQ3FB9V025S7G34H,3ZDAD0O1T5T9BLHOS7O7Z8ZO9DWTXY,6,5
25,3,object_03,object_04,644.40000000224,6,1,751.39999999851,0.5555555555555556,2,object_08,1,304,0,1,5,library_7,1,memory-2step-stake-s,603,3074424,0.0-19.0-0.0-0.25,A3D2U4QF7821ZW,382GHPVPIV7ASJXQ3FB9V025S7G34H,3ZDAD0O1T5T9BLHOS7O7Z8ZO9DWTXY,6,5
26,2,object_05,object_07,709.10000000149,4,1,384.69999999925,0.4444444444444444,2,object_08,1,308,0,2,4,forest_1,1,memory-2step-stake-s,604,3082430,0.0-19.0-0.0-0.26,A3D2U4QF7821ZW,382GHPVPIV7ASJXQ3FB9V025S7G34H,3ZDAD0O1T5T9BLHOS7O7Z8ZO9DWTXY,4,3
27,1,object_01,object_02,653.80000000075,2,2,544.5,0.4444444444444444,2,object_08,5,328,0,0,4,desert_4,1,memory-2step-stake-s,605,3090609,0.0-19.0-0.0-0.27,A3D2U4QF7821ZW,382GHPVPIV7ASJXQ3FB9V025S7G34H,3ZDAD0O1T5T9BLHOS7O7Z8ZO9DWTXY,1,2
28,3,object_03,object_04,661.30000000075,6,1,415.30000000075,0.4444444444444444,2,object_08,5,348,0,1,4,library_6,1,memory-2step-stake-s,606,3098644,0.0-19.0-0.0-0.28,A3D2U4QF7821ZW,382GHPVPIV7ASJXQ3FB9V025S7G34H,3ZDAD0O1T5T9BLHOS7O7Z8ZO9DWTXY,6,5
29,3,object_03,object_04,608.40000000224,6,1,394.0,0.5555555555555556,2,object_08,5,373,0,2,5,library_3,1,memory-2step-stake-s,607,3106761,0.0-19.0-0.0-0.29,A3D2U4QF7821ZW,382GHPVPIV7ASJXQ3FB9V025S7G34H,3ZDAD0O1T5T9BLHOS7O7Z8ZO9DWTXY,6,5
30,2,object_07,object_05,673.0,4,2,363.0,0.7777777777777778,2,object_08,1,380,0,3,7,forest_1,1,memory-2step-stake-s,608,3115060,0.0-19.0-0.0-0.30,A3D2U4QF7821ZW,382GHPVPIV7ASJXQ3FB9V025S7G34H,3ZDAD0O1T5T9BLHOS7O7Z8ZO9DWTXY,3,4
31,2,object_05,object_07,544.20000000298,4,1,518.09999999776,0.7777777777777778,2,object_08,1,387,0,3,7,forest_2,1,memory-2step-stake-s,609,3123506,0.0-19.0-0.0-0.31,A3D2U4QF7821ZW,382GHPVPIV7ASJXQ3FB9V025S7G34H,3ZDAD0O1T5T9BLHOS7O7Z8ZO9DWTXY,4,3
32,4,object_06,object_10,907.39999999851,8,1,423.0,0.7777777777777778,2,object_08,5,422,0,2,7,restaurant_5,1,memory-2step-stake-s,610,3131848,0.0-19.0-0.0-0.32,A3D2U4QF7821ZW,382GHPVPIV7ASJXQ3FB9V025S7G34H,3ZDAD0O1T5T9BLHOS7O7Z8ZO9DWTXY,8,7
33,4,object_10,object_06,613.80000000075,8,2,304.5,0.7777777777777778,2,object_08,5,457,0,4,7,restaurant_7,1,memory-2step-stake-s,611,3140076,0.0-19.0-0.0-0.33,A3D2U4QF7821ZW,382GHPVPIV7ASJXQ3FB9V025S7G34H,3ZDAD0O1T5T9BLHOS7O7Z8ZO9DWTXY,7,8
34,2,object_07,object_05,698.30000000075,4,2,422.69999999925,0.5555555555555556,2,object_08,1,462,0,2,5,forest_2,1,memory-2step-stake-s,612,3148217,0.0-19.0-0.0-0.34,A3D2U4QF7821ZW,382GHPVPIV7ASJXQ3FB9V025S7G34H,3ZDAD0O1T5T9BLHOS7O7Z8ZO9DWTXY,3,4
35,4,object_06,object_10,701.0,8,1,545.0,0.5555555555555556,2,object_08,5,487,0,0,5,restaurant_7,1,memory-2step-stake-s,613,3156501,0.0-19.0-0.0-0.35,A3D2U4QF7821ZW,382GHPVPIV7ASJXQ3FB9V025S7G34H,3ZDAD0O1T5T9BLHOS7O7Z8ZO9DWTXY,8,7
36,1,object_02,object_01,1009.6999999993,1,2,396.20000000298,0.2222222222222222,1,object_09,1,489,0,2,7,desert_4,1,memory-2step-stake-s,614,3164319,0.0-19.0-0.0-0.36,A3D2U4QF7821ZW,382GHPVPIV7ASJXQ3FB9V025S7G34H,3ZDAD0O1T5T9BLHOS7O7Z8ZO9DWTXY,2,1
37,2,object_07,object_05,526.70000000298,4,2,1049.8000000007,0.5555555555555556,2,object_08,1,494,0,0,5,forest_8,1,memory-2step-stake-s,615,3173098,0.0-19.0-0.0-0.37,A3D2U4QF7821ZW,382GHPVPIV7ASJXQ3FB9V025S7G34H,3ZDAD0O1T5T9BLHOS7O7Z8ZO9DWTXY,3,4
38,3,object_04,object_03,1042.6999999993,6,2,757.90000000224,0.8888888888888888,2,object_08,1,502,0,1,8,library_7,1,memory-2step-stake-s,616,3181883,0.0-19.0-0.0-0.38,A3D2U4QF7821ZW,382GHPVPIV7ASJXQ3FB9V025S7G34H,3ZDAD0O1T5T9BLHOS7O7Z8ZO9DWTXY,5,6
39,3,object_04,object_03,-1.0,-1,-1,-1.0,0.0,-,0,5,502,0,1,6,library_3,1,memory-2step-stake-s,617,3188404,0.0-19.0-0.0-0.39,A3D2U4QF7821ZW,382GHPVPIV7ASJXQ3FB9V025S7G34H,3ZDAD0O1T5T9BLHOS7O7Z8ZO9DWTXY,5,6
40,3,object_03,object_04,874.19999999925,6,1,949.89999999851,0.5555555555555556,2,object_08,1,507,0,2,5,library_7,1,memory-2step-stake-s,618,3197077,0.0-19.0-0.0-0.40,A3D2U4QF7821ZW,382GHPVPIV7ASJXQ3FB9V025S7G34H,3ZDAD0O1T5T9BLHOS7O7Z8ZO9DWTXY,6,5
41,2,object_07,object_05,1480.8999999985,4,2,491.89999999851,0.7777777777777778,2,object_08,1,514,0,0,7,forest_8,1,memory-2step-stake-s,619,3205492,0.0-19.0-0.0-0.41,A3D2U4QF7821ZW,382GHPVPIV7ASJXQ3FB9V025S7G34H,3ZDAD0O1T5T9BLHOS7O7Z8ZO9DWTXY,3,4
42,3,object_03,object_04,-1.0,-1,-1,-1.0,0.0,-,0,5,514,0,1,6,library_7,1,memory-2step-stake-s,620,3212013,0.0-19.0-0.0-0.42,A3D2U4QF7821ZW,382GHPVPIV7ASJXQ3FB9V025S7G34H,3ZDAD0O1T5T9BLHOS7O7Z8ZO9DWTXY,6,5
43,3,object_03,object_04,497.10000000149,6,1,357.19999999925,0.8888888888888888,2,object_08,5,554,0,2,8,library_6,1,memory-2step-stake-s,621,3220389,0.0-19.0-0.0-0.43,A3D2U4QF7821ZW,382GHPVPIV7ASJXQ3FB9V025S7G34H,3ZDAD0O1T5T9BLHOS7O7Z8ZO9DWTXY,6,5
44,2,object_05,object_07,607.19999999925,4,1,330.09999999776,1.0,2,object_08,1,563,0,2,9,forest_2,1,memory-2step-stake-s,622,3228856,0.0-19.0-0.0-0.44,A3D2U4QF7821ZW,382GHPVPIV7ASJXQ3FB9V025S7G34H,3ZDAD0O1T5T9BLHOS7O7Z8ZO9DWTXY,4,3
45,4,object_10,object_06,854.10000000149,8,2,361.70000000298,0.8888888888888888,2,object_08,5,603,0,2,8,restaurant_8,1,memory-2step-stake-s,623,3237241,0.0-19.0-0.0-0.45,A3D2U4QF7821ZW,382GHPVPIV7ASJXQ3FB9V025S7G34H,3ZDAD0O1T5T9BLHOS7O7Z8ZO9DWTXY,7,8
46,4,object_06,object_10,579.80000000075,8,1,340.39999999851,0.4444444444444444,2,object_08,1,607,0,3,4,restaurant_1,1,memory-2step-stake-s,624,3245209,0.0-19.0-0.0-0.46,A3D2U4QF7821ZW,382GHPVPIV7ASJXQ3FB9V025S7G34H,3ZDAD0O1T5T9BLHOS7O7Z8ZO9DWTXY,8,7
47,3,object_03,object_04,636.20000000298,6,1,367.79999999702,0.6666666666666666,2,object_08,5,637,0,2,6,library_1,1,memory-2step-stake-s,625,3253396,0.0-19.0-0.0-0.47,A3D2U4QF7821ZW,382GHPVPIV7ASJXQ3FB9V025S7G34H,3ZDAD0O1T5T9BLHOS7O7Z8ZO9DWTXY,6,5
48,1,object_02,object_01,697.5,2,1,371.70000000298,0.3333333333333333,2,object_08,5,652,0,1,3,desert_2,1,memory-2step-stake-s,626,3261289,0.0-19.0-0.0-0.48,A3D2U4QF7821ZW,382GHPVPIV7ASJXQ3FB9V025S7G34H,3ZDAD0O1T5T9BLHOS7O7Z8ZO9DWTXY,2,1
49,2,object_07,object_05,747.0,4,2,686.30000000075,0.6666666666666666,2,object_08,1,658,0,4,6,forest_2,1,memory-2step-stake-s,627,3269801,0.0-19.0-0.0-0.49,A3D2U4QF7821ZW,382GHPVPIV7ASJXQ3FB9V025S7G34H,3ZDAD0O1T5T9BLHOS7O7Z8ZO9DWTXY,3,4
50,4,object_10,object_06,668.30000000075,8,2,439.10000000149,0.5555555555555556,2,object_08,5,683,0,5,5,restaurant_8,1,memory-2step-stake-s,628,3277972,0.0-19.0-0.0-0.50,A3D2U4QF7821ZW,382GHPVPIV7ASJXQ3FB9V025S7G34H,3ZDAD0O1T5T9BLHOS7O7Z8ZO9DWTXY,7,8
51,4,object_06,object_10,689.0,8,1,388.10000000149,0.4444444444444444,2,object_08,5,703,0,1,4,restaurant_8,1,memory-2step-stake-s,629,3285986,0.0-19.0-0.0-0.51,A3D2U4QF7821ZW,382GHPVPIV7ASJXQ3FB9V025S7G34H,3ZDAD0O1T5T9BLHOS7O7Z8ZO9DWTXY,8,7
52,2,object_07,object_05,715.30000000075,4,2,941.30000000075,0.6666666666666666,2,object_08,1,709,0,6,6,forest_1,1,memory-2step-stake-s,630,3294761,0.0-19.0-0.0-0.52,A3D2U4QF7821ZW,382GHPVPIV7ASJXQ3FB9V025S7G34H,3ZDAD0O1T5T9BLHOS7O7Z8ZO9DWTXY,3,4
53,3,object_03,object_04,659.30000000075,6,1,350.40000000224,0.7777777777777778,2,object_08,1,716,0,4,7,library_7,1,memory-2step-stake-s,631,3303045,0.0-19.0-0.0-0.53,A3D2U4QF7821ZW,382GHPVPIV7ASJXQ3FB9V025S7G34H,3ZDAD0O1T5T9BLHOS7O7Z8ZO9DWTXY,6,5
54,3,object_04,object_03,975.5,6,2,395.0,0.5555555555555556,2,object_08,1,721,0,6,5,library_1,1,memory-2step-stake-s,632,3311162,0.0-19.0-0.0-0.54,A3D2U4QF7821ZW,382GHPVPIV7ASJXQ3FB9V025S7G34H,3ZDAD0O1T5T9BLHOS7O7Z8ZO9DWTXY,5,6
55,4,object_06,object_10,722.5,8,1,621.19999999925,0.6666666666666666,2,object_08,5,751,0,5,6,restaurant_1,1,memory-2step-stake-s,633,3319605,0.0-19.0-0.0-0.55,A3D2U4QF7821ZW,382GHPVPIV7ASJXQ3FB9V025S7G34H,3ZDAD0O1T5T9BLHOS7O7Z8ZO9DWTXY,8,7
56,2,object_07,object_05,855.69999999925,4,2,450.60000000149,0.5555555555555556,2,object_08,1,756,0,4,5,forest_1,1,memory-2step-stake-s,634,3327777,0.0-19.0-0.0-0.56,A3D2U4QF7821ZW,382GHPVPIV7ASJXQ3FB9V025S7G34H,3ZDAD0O1T5T9BLHOS7O7Z8ZO9DWTXY,3,4
57,2,object_05,object_07,683.89999999851,4,1,407.30000000075,0.8888888888888888,2,object_08,1,764,0,5,8,forest_8,1,memory-2step-stake-s,635,3336257,0.0-19.0-0.0-0.57,A3D2U4QF7821ZW,382GHPVPIV7ASJXQ3FB9V025S7G34H,3ZDAD0O1T5T9BLHOS7O7Z8ZO9DWTXY,4,3
58,3,object_03,object_04,629.89999999851,6,1,400.19999999925,0.7777777777777778,2,object_08,5,799,0,5,7,library_3,1,memory-2step-stake-s,636,3344601,0.0-19.0-0.0-0.58,A3D2U4QF7821ZW,382GHPVPIV7ASJXQ3FB9V025S7G34H,3ZDAD0O1T5T9BLHOS7O7Z8ZO9DWTXY,6,5
59,2,object_07,object_05,690.80000000075,4,2,406.30000000075,0.6666666666666666,2,object_08,1,805,0,5,6,forest_2,1,memory-2step-stake-s,637,3352833,0.0-19.0-0.0-0.59,A3D2U4QF7821ZW,382GHPVPIV7ASJXQ3FB9V025S7G34H,3ZDAD0O1T5T9BLHOS7O7Z8ZO9DWTXY,3,4
60,1,object_01,object_02,644.69999999925,2,2,462.30000000075,0.6666666666666666,2,object_08,5,835,0,5,6,desert_4,1,memory-2step-stake-s,638,3361117,0.0-19.0-0.0-0.60,A3D2U4QF7821ZW,382GHPVPIV7ASJXQ3FB9V025S7G34H,3ZDAD0O1T5T9BLHOS7O7Z8ZO9DWTXY,1,2
61,1,object_02,object_01,602.30000000075,1,2,348.19999999925,0.3333333333333333,1,object_09,1,838,0,3,7,desert_6,1,memory-2step-stake-s,639,3368983,0.0-19.0-0.0-0.61,A3D2U4QF7821ZW,382GHPVPIV7ASJXQ3FB9V025S7G34H,3ZDAD0O1T5T9BLHOS7O7Z8ZO9DWTXY,2,1
62,1,object_01,object_02,854.5,2,2,474.30000000075,0.5555555555555556,2,object_08,1,843,0,1,5,desert_2,1,memory-2step-stake-s,640,3377179,0.0-19.0-0.0-0.62,A3D2U4QF7821ZW,382GHPVPIV7ASJXQ3FB9V025S7G34H,3ZDAD0O1T5T9BLHOS7O7Z8ZO9DWTXY,1,2
63,3,object_03,object_04,675.5,6,1,622.19999999925,0.6666666666666666,2,object_08,5,873,0,1,6,library_1,1,memory-2step-stake-s,641,3385632,0.0-19.0-0.0-0.63,A3D2U4QF7821ZW,382GHPVPIV7ASJXQ3FB9V025S7G34H,3ZDAD0O1T5T9BLHOS7O7Z8ZO9DWTXY,6,5
64,3,object_04,object_03,686.09999999776,6,2,481.39999999851,0.8888888888888888,2,object_08,5,913,0,0,8,library_3,1,memory-2step-stake-s,642,3394148,0.0-19.0-0.0-0.64,A3D2U4QF7821ZW,382GHPVPIV7ASJXQ3FB9V025S7G34H,3ZDAD0O1T5T9BLHOS7O7Z8ZO9DWTXY,5,6
65,4,object_10,object_06,808.09999999776,8,2,499.19999999925,0.7777777777777778,2,object_08,5,948,0,1,7,restaurant_1,1,memory-2step-stake-s,643,3402579,0.0-19.0-0.0-0.65,A3D2U4QF7821ZW,382GHPVPIV7ASJXQ3FB9V025S7G34H,3ZDAD0O1T5T9BLHOS7O7Z8ZO9DWTXY,7,8
66,1,object_02,object_01,1211.6000000015,2,1,-1.0,0.0,2,object_08,1,948,0,2,2,desert_7,1,memory-2step-stake-s,644,3411091,0.0-19.0-0.0-0.66,A3D2U4QF7821ZW,382GHPVPIV7ASJXQ3FB9V025S7G34H,3ZDAD0O1T5T9BLHOS7O7Z8ZO9DWTXY,2,1
67,1,object_02,object_01,675.40000000224,2,1,1078.6999999993,0.2222222222222222,2,object_08,1,950,0,2,2,desert_7,1,memory-2step-stake-s,645,3419594,0.0-19.0-0.0-0.67,A3D2U4QF7821ZW,382GHPVPIV7ASJXQ3FB9V025S7G34H,3ZDAD0O1T5T9BLHOS7O7Z8ZO9DWTXY,2,1
68,1,object_01,object_02,618.89999999851,2,2,390.5,0.0,2,object_08,1,950,0,1,0,desert_6,1,memory-2step-stake-s,646,3427196,0.0-19.0-0.0-0.68,A3D2U4QF7821ZW,382GHPVPIV7ASJXQ3FB9V025S7G34H,3ZDAD0O1T5T9BLHOS7O7Z8ZO9DWTXY,1,2
69,4,object_06,object_10,890.89999999851,7,2,397.19999999925,0.1111111111111111,1,object_09,5,955,0,1,0,restaurant_7,1,memory-2step-stake-s,647,3434906,0.0-19.0-0.0-0.69,A3D2U4QF7821ZW,382GHPVPIV7ASJXQ3FB9V025S7G34H,3ZDAD0O1T5T9BLHOS7O7Z8ZO9DWTXY,8,7
70,1,object_02,object_01,686.0,1,2,257.60000000149,0.4444444444444444,1,object_09,1,959,0,4,2,desert_7,1,memory-2step-stake-s,648,3442826,0.0-19.0-0.0-0.70,A3D2U4QF7821ZW,382GHPVPIV7ASJXQ3FB9V025S7G34H,3ZDAD0O1T5T9BLHOS7O7Z8ZO9DWTXY,2,1
71,3,object_03,object_04,748.0,5,2,302.5,0.1111111111111111,1,object_09,5,964,0,1,1,library_1,1,memory-2step-stake-s,649,3450441,0.0-19.0-0.0-0.71,A3D2U4QF7821ZW,382GHPVPIV7ASJXQ3FB9V025S7G34H,3ZDAD0O1T5T9BLHOS7O7Z8ZO9DWTXY,6,5
72,2,object_07,object_05,1020.5,3,1,496.10000000149,0.3333333333333333,1,object_09,1,967,0,3,2,forest_2,1,memory-2step-stake-s,650,3458461,0.0-19.0-0.0-0.72,A3D2U4QF7821ZW,382GHPVPIV7ASJXQ3FB9V025S7G34H,3ZDAD0O1T5T9BLHOS7O7Z8ZO9DWTXY,3,4
73,1,object_01,object_02,841.5,1,1,461.0,0.1111111111111111,1,object_09,5,972,0,1,1,desert_6,1,memory-2step-stake-s,651,3466236,0.0-19.0-0.0-0.73,A3D2U4QF7821ZW,382GHPVPIV7ASJXQ3FB9V025S7G34H,3ZDAD0O1T5T9BLHOS7O7Z8ZO9DWTXY,1,2
74,4,object_06,object_10,920.80000000075,7,2,556.30000000075,0.3333333333333333,1,object_09,5,987,0,3,0,restaurant_1,1,memory-2step-stake-s,652,3474317,0.0-19.0-0.0-0.74,A3D2U4QF7821ZW,382GHPVPIV7ASJXQ3FB9V025S7G34H,3ZDAD0O1T5T9BLHOS7O7Z8ZO9DWTXY,8,7
75,3,object_04,object_03,1184.8000000007,5,1,393.5,0.5555555555555556,1,object_09,1,992,0,5,1,library_1,1,memory-2step-stake-s,653,3482440,0.0-19.0-0.0-0.75,A3D2U4QF7821ZW,382GHPVPIV7ASJXQ3FB9V025S7G34H,3ZDAD0O1T5T9BLHOS7O7Z8ZO9DWTXY,5,6
76,1,object_01,object_02,957.89999999851,1,1,368.19999999925,0.4444444444444444,1,object_09,1,996,0,4,5,desert_2,1,memory-2step-stake-s,654,3490440,0.0-19.0-0.0-0.76,A3D2U4QF7821ZW,382GHPVPIV7ASJXQ3FB9V025S7G34H,3ZDAD0O1T5T9BLHOS7O7Z8ZO9DWTXY,1,2
77,4,object_06,object_10,928.80000000075,7,2,332.29999999702,0.3333333333333333,1,object_09,5,1011,0,3,5,restaurant_1,1,memory-2step-stake-s,655,3498295,0.0-19.0-0.0-0.77,A3D2U4QF7821ZW,382GHPVPIV7ASJXQ3FB9V025S7G34H,3ZDAD0O1T5T9BLHOS7O7Z8ZO9DWTXY,8,7
78,4,object_10,object_06,1054.299999997,7,1,513.29999999702,0.6666666666666666,1,object_09,5,1041,0,6,7,restaurant_1,1,memory-2step-stake-s,656,3506630,0.0-19.0-0.0-0.78,A3D2U4QF7821ZW,382GHPVPIV7ASJXQ3FB9V025S7G34H,3ZDAD0O1T5T9BLHOS7O7Z8ZO9DWTXY,7,8
79,4,object_10,object_06,1046.9000000022,7,1,386.69999999925,0.2222222222222222,1,object_09,5,1051,0,2,7,restaurant_5,1,memory-2step-stake-s,657,3514432,0.0-19.0-0.0-0.79,A3D2U4QF7821ZW,382GHPVPIV7ASJXQ3FB9V025S7G34H,3ZDAD0O1T5T9BLHOS7O7Z8ZO9DWTXY,7,8
80,3,object_03,object_04,966.10000000149,5,2,345.39999999851,0.0,1,object_09,1,1051,0,0,8,library_3,1,memory-2step-stake-s,658,3521988,0.0-19.0-0.0-0.80,A3D2U4QF7821ZW,382GHPVPIV7ASJXQ3FB9V025S7G34H,3ZDAD0O1T5T9BLHOS7O7Z8ZO9DWTXY,6,5
81,2,object_05,object_07,743.70000000298,3,2,457.40000000224,0.2222222222222222,1,object_09,1,1053,0,2,8,forest_8,1,memory-2step-stake-s,659,3529863,0.0-19.0-0.0-0.81,A3D2U4QF7821ZW,382GHPVPIV7ASJXQ3FB9V025S7G34H,3ZDAD0O1T5T9BLHOS7O7Z8ZO9DWTXY,4,3
82,2,object_07,object_05,790.60000000149,3,1,409.40000000224,0.6666666666666666,1,object_09,1,1059,0,6,7,forest_3,1,memory-2step-stake-s,660,3538102,0.0-19.0-0.0-0.82,A3D2U4QF7821ZW,382GHPVPIV7ASJXQ3FB9V025S7G34H,3ZDAD0O1T5T9BLHOS7O7Z8ZO9DWTXY,3,4
83,4,object_06,object_10,853.70000000298,7,2,176.19999999925,0.6666666666666666,1,object_09,5,1089,0,6,7,restaurant_8,1,memory-2step-stake-s,661,3546110,0.0-19.0-0.0-0.83,A3D2U4QF7821ZW,382GHPVPIV7ASJXQ3FB9V025S7G34H,3ZDAD0O1T5T9BLHOS7O7Z8ZO9DWTXY,8,7
84,2,object_07,object_05,814.0,3,1,318.69999999925,0.5555555555555556,1,object_09,1,1094,0,5,6,forest_3,1,memory-2step-stake-s,662,3554168,0.0-19.0-0.0-0.84,A3D2U4QF7821ZW,382GHPVPIV7ASJXQ3FB9V025S7G34H,3ZDAD0O1T5T9BLHOS7O7Z8ZO9DWTXY,3,4
85,3,object_04,object_03,797.30000000075,5,1,391.19999999925,0.7777777777777778,1,object_09,5,1129,0,7,8,library_7,1,memory-2step-stake-s,663,3562483,0.0-19.0-0.0-0.85,A3D2U4QF7821ZW,382GHPVPIV7ASJXQ3FB9V025S7G34H,3ZDAD0O1T5T9BLHOS7O7Z8ZO9DWTXY,5,6
86,2,object_05,object_07,682.19999999925,3,2,358.19999999925,0.4444444444444444,1,object_09,1,1133,0,4,8,forest_3,1,memory-2step-stake-s,664,3570456,0.0-19.0-0.0-0.86,A3D2U4QF7821ZW,382GHPVPIV7ASJXQ3FB9V025S7G34H,3ZDAD0O1T5T9BLHOS7O7Z8ZO9DWTXY,4,3
87,4,object_06,object_10,1226.5999999978,8,1,325.19999999925,1.0,2,object_08,5,1178,0,8,9,restaurant_7,1,memory-2step-stake-s,665,3578912,0.0-19.0-0.0-0.87,A3D2U4QF7821ZW,382GHPVPIV7ASJXQ3FB9V025S7G34H,3ZDAD0O1T5T9BLHOS7O7Z8ZO9DWTXY,8,7
88,1,object_02,object_01,886.10000000149,1,2,377.90000000224,1.0,1,object_09,5,1223,0,9,7,desert_7,1,memory-2step-stake-s,666,3587414,0.0-19.0-0.0-0.88,A3D2U4QF7821ZW,382GHPVPIV7ASJXQ3FB9V025S7G34H,3ZDAD0O1T5T9BLHOS7O7Z8ZO9DWTXY,2,1
89,4,object_10,object_06,767.0,7,1,481.09999999776,0.7777777777777778,1,object_09,5,1258,0,7,5,restaurant_1,1,memory-2step-stake-s,667,3595843,0.0-19.0-0.0-0.89,A3D2U4QF7821ZW,382GHPVPIV7ASJXQ3FB9V025S7G34H,3ZDAD0O1T5T9BLHOS7O7Z8ZO9DWTXY,7,8
90,3,object_04,object_03,987.30000000075,6,2,272.70000000298,0.3333333333333333,2,object_08,5,1273,0,5,3,library_7,1,memory-2step-stake-s,668,3603628,0.0-19.0-0.0-0.90,A3D2U4QF7821ZW,382GHPVPIV7ASJXQ3FB9V025S7G34H,3ZDAD0O1T5T9BLHOS7O7Z8ZO9DWTXY,5,6
91,3,object_04,object_03,1201.3000000007,6,2,347.89999999851,0.5555555555555556,2,object_08,5,1298,0,1,5,library_1,1,memory-2step-stake-s,669,3611699,0.0-19.0-0.0-0.91,A3D2U4QF7821ZW,382GHPVPIV7ASJXQ3FB9V025S7G34H,3ZDAD0O1T5T9BLHOS7O7Z8ZO9DWTXY,5,6
92,2,object_07,object_05,435.0,3,1,317.90000000224,0.2222222222222222,1,object_09,5,1308,0,2,3,forest_2,1,memory-2step-stake-s,670,3619433,0.0-19.0-0.0-0.92,A3D2U4QF7821ZW,382GHPVPIV7ASJXQ3FB9V025S7G34H,3ZDAD0O1T5T9BLHOS7O7Z8ZO9DWTXY,3,4
93,2,object_07,object_05,636.20000000298,3,1,399.0,0.2222222222222222,1,object_09,1,1310,0,2,1,forest_1,1,memory-2step-stake-s,671,3627245,0.0-19.0-0.0-0.93,A3D2U4QF7821ZW,382GHPVPIV7ASJXQ3FB9V025S7G34H,3ZDAD0O1T5T9BLHOS7O7Z8ZO9DWTXY,3,4
94,2,object_05,object_07,795.10000000149,4,1,313.30000000075,0.0,2,object_08,1,1310,0,4,0,forest_3,1,memory-2step-stake-s,672,3634798,0.0-19.0-0.0-0.94,A3D2U4QF7821ZW,382GHPVPIV7ASJXQ3FB9V025S7G34H,3ZDAD0O1T5T9BLHOS7O7Z8ZO9DWTXY,4,3
95,1,object_01,object_02,590.0,2,2,577.59999999776,0.3333333333333333,2,object_08,1,1313,0,3,3,desert_2,1,memory-2step-stake-s,673,3642923,0.0-19.0-0.0-0.95,A3D2U4QF7821ZW,382GHPVPIV7ASJXQ3FB9V025S7G34H,3ZDAD0O1T5T9BLHOS7O7Z8ZO9DWTXY,1,2
96,4,object_06,object_10,683.10000000149,7,2,335.30000000075,0.3333333333333333,1,object_09,5,1328,0,3,4,restaurant_8,1,memory-2step-stake-s,674,3650771,0.0-19.0-0.0-0.96,A3D2U4QF7821ZW,382GHPVPIV7ASJXQ3FB9V025S7G34H,3ZDAD0O1T5T9BLHOS7O7Z8ZO9DWTXY,8,7
97,3,object_03,object_04,851.09999999776,5,2,349.69999999925,0.2222222222222222,1,object_09,5,1338,0,2,7,library_3,1,memory-2step-stake-s,675,3658538,0.0-19.0-0.0-0.97,A3D2U4QF7821ZW,382GHPVPIV7ASJXQ3FB9V025S7G34H,3ZDAD0O1T5T9BLHOS7O7Z8ZO9DWTXY,6,5
98,2,object_05,object_07,1191.3999999985,3,2,402.0,0.6666666666666666,1,object_09,1,1344,0,6,7,forest_3,1,memory-2step-stake-s,676,3666771,0.0-19.0-0.0-0.98,A3D2U4QF7821ZW,382GHPVPIV7ASJXQ3FB9V025S7G34H,3ZDAD0O1T5T9BLHOS7O7Z8ZO9DWTXY,4,3
99,4,object_06,object_10,1027.6000000015,7,2,670.40000000224,0.8888888888888888,1,object_09,5,1384,0,8,7,restaurant_5,1,memory-2step-stake-s,677,3675479,0.0-19.0-0.0-0.99,A3D2U4QF7821ZW,382GHPVPIV7ASJXQ3FB9V025S7G34H,3ZDAD0O1T5T9BLHOS7O7Z8ZO9DWTXY,8,7
100,3,object_04,object_03,758.10000000149,5,1,473.39999999851,0.8888888888888888,1,object_09,5,1424,0,8,7,library_1,1,memory-2step-stake-s,678,3683985,0.0-19.0-0.0-0.100,A3D2U4QF7821ZW,382GHPVPIV7ASJXQ3FB9V025S7G34H,3ZDAD0O1T5T9BLHOS7O7Z8ZO9DWTXY,5,6
101,1,object_02,object_01,1115.200000003,1,2,398.80000000075,1.0,1,object_09,5,1469,0,9,6,desert_2,1,memory-2step-stake-s,679,3692544,0.0-19.0-0.0-0.101,A3D2U4QF7821ZW,382GHPVPIV7ASJXQ3FB9V025S7G34H,3ZDAD0O1T5T9BLHOS7O7Z8ZO9DWTXY,2,1
102,2,object_07,object_05,1277.8000000007,3,1,406.20000000298,0.7777777777777778,1,object_09,1,1476,0,7,4,forest_3,1,memory-2step-stake-s,680,3700875,0.0-19.0-0.0-0.102,A3D2U4QF7821ZW,382GHPVPIV7ASJXQ3FB9V025S7G34H,3ZDAD0O1T5T9BLHOS7O7Z8ZO9DWTXY,3,4
103,4,object_06,object_10,971.39999999851,8,1,388.5,0.4444444444444444,2,object_08,5,1496,0,6,4,restaurant_8,1,memory-2step-stake-s,681,3708888,0.0-19.0-0.0-0.103,A3D2U4QF7821ZW,382GHPVPIV7ASJXQ3FB9V025S7G34H,3ZDAD0O1T5T9BLHOS7O7Z8ZO9DWTXY,8,7
104,1,object_01,object_02,645.20000000298,2,2,377.5,0.1111111111111111,2,object_08,1,1497,0,8,1,desert_6,1,memory-2step-stake-s,682,3716578,0.0-19.0-0.0-0.104,A3D2U4QF7821ZW,382GHPVPIV7ASJXQ3FB9V025S7G34H,3ZDAD0O1T5T9BLHOS7O7Z8ZO9DWTXY,1,2
105,1,object_01,object_02,1091.0,2,2,413.60000000149,0.4444444444444444,2,object_08,5,1517,0,7,4,desert_4,1,memory-2step-stake-s,683,3724610,0.0-19.0-0.0-0.105,A3D2U4QF7821ZW,382GHPVPIV7ASJXQ3FB9V025S7G34H,3ZDAD0O1T5T9BLHOS7O7Z8ZO9DWTXY,1,2
106,1,object_01,object_02,947.30000000075,2,2,69.20000000298,0.2222222222222222,2,object_08,1,1519,0,4,2,desert_6,1,memory-2step-stake-s,684,3732098,0.0-19.0-0.0-0.106,A3D2U4QF7821ZW,382GHPVPIV7ASJXQ3FB9V025S7G34H,3ZDAD0O1T5T9BLHOS7O7Z8ZO9DWTXY,1,2
107,3,object_03,object_04,1196.5,5,2,335.19999999925,0.6666666666666666,1,object_09,1,1525,0,6,2,library_7,1,memory-2step-stake-s,685,3740267,0.0-19.0-0.0-0.107,A3D2U4QF7821ZW,382GHPVPIV7ASJXQ3FB9V025S7G34H,3ZDAD0O1T5T9BLHOS7O7Z8ZO9DWTXY,6,5
108,2,object_07,object_05,1178.8000000007,4,2,325.30000000075,0.4444444444444444,2,object_08,1,1529,0,8,4,forest_8,1,memory-2step-stake-s,686,3748211,0.0-19.0-0.0-0.108,A3D2U4QF7821ZW,382GHPVPIV7ASJXQ3FB9V025S7G34H,3ZDAD0O1T5T9BLHOS7O7Z8ZO9DWTXY,3,4
109,2,object_07,object_05,764.0,3,1,478.0,0.7777777777777778,1,object_09,1,1536,0,7,4,forest_3,1,memory-2step-stake-s,687,3756616,0.0-19.0-0.0-0.109,A3D2U4QF7821ZW,382GHPVPIV7ASJXQ3FB9V025S7G34H,3ZDAD0O1T5T9BLHOS7O7Z8ZO9DWTXY,3,4
110,3,object_03,object_04,1222.8000000007,5,2,584.59999999776,0.4444444444444444,1,object_09,5,1556,0,4,4,library_6,1,memory-2step-stake-s,688,3764816,0.0-19.0-0.0-0.110,A3D2U4QF7821ZW,382GHPVPIV7ASJXQ3FB9V025S7G34H,3ZDAD0O1T5T9BLHOS7O7Z8ZO9DWTXY,6,5
111,4,object_10,object_06,1246.0,7,1,191.30000000075,0.6666666666666666,1,object_09,5,1586,0,6,5,restaurant_7,1,memory-2step-stake-s,689,3772833,0.0-19.0-0.0-0.111,A3D2U4QF7821ZW,382GHPVPIV7ASJXQ3FB9V025S7G34H,3ZDAD0O1T5T9BLHOS7O7Z8ZO9DWTXY,7,8
112,3,object_04,object_03,1204.6999999993,5,1,431.0,0.8888888888888888,1,object_09,5,1626,0,8,3,library_7,1,memory-2step-stake-s,690,3781290,0.0-19.0-0.0-0.112,A3D2U4QF7821ZW,382GHPVPIV7ASJXQ3FB9V025S7G34H,3ZDAD0O1T5T9BLHOS7O7Z8ZO9DWTXY,5,6
113,2,object_05,object_07,731.0,3,2,349.69999999925,0.6666666666666666,1,object_09,1,1632,0,6,6,forest_2,1,memory-2step-stake-s,691,3789466,0.0-19.0-0.0-0.113,A3D2U4QF7821ZW,382GHPVPIV7ASJXQ3FB9V025S7G34H,3ZDAD0O1T5T9BLHOS7O7Z8ZO9DWTXY,4,3
114,4,object_06,object_10,1148.3000000007,7,2,430.09999999776,0.2222222222222222,1,object_09,5,1642,0,2,5,restaurant_1,1,memory-2step-stake-s,692,3797318,0.0-19.0-0.0-0.114,A3D2U4QF7821ZW,382GHPVPIV7ASJXQ3FB9V025S7G34H,3ZDAD0O1T5T9BLHOS7O7Z8ZO9DWTXY,8,7
115,2,object_05,object_07,856.90000000224,3,2,320.60000000149,0.2222222222222222,1,object_09,1,1644,0,2,7,forest_8,1,memory-2step-stake-s,693,3805065,0.0-19.0-0.0-0.115,A3D2U4QF7821ZW,382GHPVPIV7ASJXQ3FB9V025S7G34H,3ZDAD0O1T5T9BLHOS7O7Z8ZO9DWTXY,4,3
116,3,object_04,object_03,1004.1999999993,6,2,263.20000000298,1.0,2,object_08,5,1689,0,3,9,library_3,1,memory-2step-stake-s,694,3813468,0.0-19.0-0.0-0.116,A3D2U4QF7821ZW,382GHPVPIV7ASJXQ3FB9V025S7G34H,3ZDAD0O1T5T9BLHOS7O7Z8ZO9DWTXY,5,6
117,3,object_04,object_03,768.89999999851,6,2,411.69999999925,1.0,2,object_08,5,1734,0,1,9,library_7,1,memory-2step-stake-s,695,3822010,0.0-19.0-0.0-0.117,A3D2U4QF7821ZW,382GHPVPIV7ASJXQ3FB9V025S7G34H,3ZDAD0O1T5T9BLHOS7O7Z8ZO9DWTXY,5,6
118,1,object_01,object_02,970.89999999851,2,2,325.89999999851,0.8888888888888888,2,object_08,1,1742,0,2,8,desert_4,1,memory-2step-stake-s,696,3830361,0.0-19.0-0.0-0.118,A3D2U4QF7821ZW,382GHPVPIV7ASJXQ3FB9V025S7G34H,3ZDAD0O1T5T9BLHOS7O7Z8ZO9DWTXY,1,2
119,1,object_01,object_02,1230.1999999993,2,2,-1.0,0.0,2,object_08,5,1742,0,2,6,desert_4,1,memory-2step-stake-s,697,3838873,0.0-19.0-0.0-0.119,A3D2U4QF7821ZW,382GHPVPIV7ASJXQ3FB9V025S7G34H,3ZDAD0O1T5T9BLHOS7O7Z8ZO9DWTXY,1,2
120,1,object_01,object_02,604.10000000149,2,2,279.89999999851,0.4444444444444444,2,object_08,1,1746,0,1,4,desert_7,1,memory-2step-stake-s,698,3846773,0.0-19.0-0.0-0.120,A3D2U4QF7821ZW,382GHPVPIV7ASJXQ3FB9V025S7G34H,3ZDAD0O1T5T9BLHOS7O7Z8ZO9DWTXY,1,2
121,4,object_10,object_06,809.5,8,2,299.70000000298,0.5555555555555556,2,object_08,5,1771,0,0,5,restaurant_7,1,memory-2step-stake-s,699,3854795,0.0-19.0-0.0-0.121,A3D2U4QF7821ZW,382GHPVPIV7ASJXQ3FB9V025S7G34H,3ZDAD0O1T5T9BLHOS7O7Z8ZO9DWTXY,7,8
122,4,object_06,object_10,787.89999999851,8,1,287.5,0.4444444444444444,2,object_08,5,1791,0,2,4,restaurant_8,1,memory-2step-stake-s,700,3862702,0.0-19.0-0.0-0.122,A3D2U4QF7821ZW,382GHPVPIV7ASJXQ3FB9V025S7G34H,3ZDAD0O1T5T9BLHOS7O7Z8ZO9DWTXY,8,7
123,2,object_05,object_07,1111.3999999985,4,1,262.0,0.6666666666666666,2,object_08,1,1797,0,2,6,forest_8,1,memory-2step-stake-s,701,3870807,0.0-19.0-0.0-0.123,A3D2U4QF7821ZW,382GHPVPIV7ASJXQ3FB9V025S7G34H,3ZDAD0O1T5T9BLHOS7O7Z8ZO9DWTXY,4,3
124,1,object_01,object_02,686.19999999925,2,2,346.79999999702,0.7777777777777778,2,object_08,1,1804,0,5,7,desert_2,1,memory-2step-stake-s,702,3879073,0.0-19.0-0.0-0.124,A3D2U4QF7821ZW,382GHPVPIV7ASJXQ3FB9V025S7G34H,3ZDAD0O1T5T9BLHOS7O7Z8ZO9DWTXY,1,2
125,1,object_01,object_02,613.0,2,2,351.30000000075,0.7777777777777778,2,object_08,1,1811,0,1,7,desert_7,1,memory-2step-stake-s,703,3887355,0.0-19.0-0.0-0.125,A3D2U4QF7821ZW,382GHPVPIV7ASJXQ3FB9V025S7G34H,3ZDAD0O1T5T9BLHOS7O7Z8ZO9DWTXY,1,2
126,4,object_10,object_06,1049.5,8,2,324.5,0.4444444444444444,2,object_08,1,1815,0,2,4,restaurant_8,1,memory-2step-stake-s,704,3895298,0.0-19.0-0.0-0.126,A3D2U4QF7821ZW,382GHPVPIV7ASJXQ3FB9V025S7G34H,3ZDAD0O1T5T9BLHOS7O7Z8ZO9DWTXY,7,8
127,1,object_01,object_02,771.0,2,2,364.39999999851,0.3333333333333333,2,object_08,1,1818,0,2,3,desert_6,1,memory-2step-stake-s,705,3903181,0.0-19.0-0.0-0.127,A3D2U4QF7821ZW,382GHPVPIV7ASJXQ3FB9V025S7G34H,3ZDAD0O1T5T9BLHOS7O7Z8ZO9DWTXY,1,2
128,2,object_05,object_07,735.89999999851,4,1,283.0,0.0,2,object_08,1,1818,0,4,0,forest_2,1,memory-2step-stake-s,707,3924205,0.0-19.0-0.1-0.128,A3D2U4QF7821ZW,382GHPVPIV7ASJXQ3FB9V025S7G34H,3ZDAD0O1T5T9BLHOS7O7Z8ZO9DWTXY,4,3
129,3,object_04,object_03,928.59999999776,5,1,262.30000000075,0.6666666666666666,1,object_09,5,1848,0,6,2,library_6,1,memory-2step-stake-s,708,3932302,0.0-19.0-0.1-0.129,A3D2U4QF7821ZW,382GHPVPIV7ASJXQ3FB9V025S7G34H,3ZDAD0O1T5T9BLHOS7O7Z8ZO9DWTXY,5,6
130,1,object_01,object_02,831.60000000149,1,1,345.69999999925,0.7777777777777778,1,object_09,1,1855,0,7,1,desert_2,1,memory-2step-stake-s,709,3940588,0.0-19.0-0.1-0.130,A3D2U4QF7821ZW,382GHPVPIV7ASJXQ3FB9V025S7G34H,3ZDAD0O1T5T9BLHOS7O7Z8ZO9DWTXY,1,2
131,3,object_03,object_04,873.30000000075,5,2,314.79999999702,1.0,1,object_09,5,1900,0,9,2,library_1,1,memory-2step-stake-s,710,3949048,0.0-19.0-0.1-0.131,A3D2U4QF7821ZW,382GHPVPIV7ASJXQ3FB9V025S7G34H,3ZDAD0O1T5T9BLHOS7O7Z8ZO9DWTXY,6,5
132,1,object_02,object_01,821.80000000075,1,2,417.39999999851,0.7777777777777778,1,object_09,1,1907,0,7,3,desert_7,1,memory-2step-stake-s,711,3957386,0.0-19.0-0.1-0.132,A3D2U4QF7821ZW,382GHPVPIV7ASJXQ3FB9V025S7G34H,3ZDAD0O1T5T9BLHOS7O7Z8ZO9DWTXY,2,1
133,1,object_01,object_02,893.5,1,1,369.09999999776,0.6666666666666666,1,object_09,1,1913,0,6,6,desert_7,1,memory-2step-stake-s,712,3965580,0.0-19.0-0.1-0.133,A3D2U4QF7821ZW,382GHPVPIV7ASJXQ3FB9V025S7G34H,3ZDAD0O1T5T9BLHOS7O7Z8ZO9DWTXY,1,2
134,4,object_10,object_06,992.0,7,1,371.0,0.8888888888888888,1,object_09,5,1953,0,8,6,restaurant_7,1,memory-2step-stake-s,713,3973980,0.0-19.0-0.1-0.134,A3D2U4QF7821ZW,382GHPVPIV7ASJXQ3FB9V025S7G34H,3ZDAD0O1T5T9BLHOS7O7Z8ZO9DWTXY,7,8
135,3,object_04,object_03,1144.8000000007,5,1,313.69999999925,0.7777777777777778,1,object_09,5,1988,0,7,7,library_3,1,memory-2step-stake-s,714,3982221,0.0-19.0-0.1-0.135,A3D2U4QF7821ZW,382GHPVPIV7ASJXQ3FB9V025S7G34H,3ZDAD0O1T5T9BLHOS7O7Z8ZO9DWTXY,5,6
136,2,object_05,object_07,839.59999999776,3,2,279.5,0.5555555555555556,1,object_09,1,1993,0,5,9,forest_3,1,memory-2step-stake-s,715,3990222,0.0-19.0-0.1-0.136,A3D2U4QF7821ZW,382GHPVPIV7ASJXQ3FB9V025S7G34H,3ZDAD0O1T5T9BLHOS7O7Z8ZO9DWTXY,4,3
137,3,object_04,object_03,718.39999999851,5,1,73.5,0.6666666666666666,1,object_09,5,2023,0,6,8,library_1,1,memory-2step-stake-s,716,3998117,0.0-19.0-0.1-0.137,A3D2U4QF7821ZW,382GHPVPIV7ASJXQ3FB9V025S7G34H,3ZDAD0O1T5T9BLHOS7O7Z8ZO9DWTXY,5,6
138,4,object_10,object_06,711.09999999776,7,1,586.30000000075,1.0,1,object_09,5,2068,0,9,9,restaurant_5,1,memory-2step-stake-s,717,4006829,0.0-19.0-0.1-0.138,A3D2U4QF7821ZW,382GHPVPIV7ASJXQ3FB9V025S7G34H,3ZDAD0O1T5T9BLHOS7O7Z8ZO9DWTXY,7,8
139,4,object_10,object_06,798.89999999851,7,1,120.39999999851,0.6666666666666666,1,object_09,5,2098,0,6,6,restaurant_5,1,memory-2step-stake-s,718,4014780,0.0-19.0-0.1-0.139,A3D2U4QF7821ZW,382GHPVPIV7ASJXQ3FB9V025S7G34H,3ZDAD0O1T5T9BLHOS7O7Z8ZO9DWTXY,7,8
140,3,object_04,object_03,879.69999999925,5,1,410.39999999851,0.5555555555555556,1,object_09,1,2103,0,5,4,library_6,1,memory-2step-stake-s,719,4022919,0.0-19.0-0.1-0.140,A3D2U4QF7821ZW,382GHPVPIV7ASJXQ3FB9V025S7G34H,3ZDAD0O1T5T9BLHOS7O7Z8ZO9DWTXY,5,6
141,4,object_06,object_10,725.19999999925,7,2,561.0,0.5555555555555556,1,object_09,5,2128,0,5,5,restaurant_8,1,memory-2step-stake-s,720,4031200,0.0-19.0-0.1-0.141,A3D2U4QF7821ZW,382GHPVPIV7ASJXQ3FB9V025S7G34H,3ZDAD0O1T5T9BLHOS7O7Z8ZO9DWTXY,8,7
142,3,object_03,object_04,748.29999999702,5,2,330.80000000075,0.2222222222222222,1,object_09,5,2138,0,2,5,library_7,1,memory-2step-stake-s,721,4038961,0.0-19.0-0.1-0.142,A3D2U4QF7821ZW,382GHPVPIV7ASJXQ3FB9V025S7G34H,3ZDAD0O1T5T9BLHOS7O7Z8ZO9DWTXY,6,5
143,4,object_06,object_10,882.89999999851,7,2,660.89999999851,0.1111111111111111,1,object_09,5,2143,0,1,8,restaurant_1,1,memory-2step-stake-s,722,4046945,0.0-19.0-0.1-0.143,A3D2U4QF7821ZW,382GHPVPIV7ASJXQ3FB9V025S7G34H,3ZDAD0O1T5T9BLHOS7O7Z8ZO9DWTXY,8,7
144,1,object_01,object_02,699.19999999925,1,1,565.10000000149,0.1111111111111111,1,object_09,1,2144,0,1,9,desert_4,1,memory-2step-stake-s,723,4054826,0.0-19.0-0.1-0.144,A3D2U4QF7821ZW,382GHPVPIV7ASJXQ3FB9V025S7G34H,3ZDAD0O1T5T9BLHOS7O7Z8ZO9DWTXY,1,2
145,3,object_04,object_03,674.90000000224,5,1,965.39999999851,0.0,1,object_09,5,2144,0,0,7,library_6,1,memory-2step-stake-s,724,4063005,0.0-19.0-0.1-0.145,A3D2U4QF7821ZW,382GHPVPIV7ASJXQ3FB9V025S7G34H,3ZDAD0O1T5T9BLHOS7O7Z8ZO9DWTXY,5,6
146,4,object_10,object_06,694.69999999925,8,2,297.69999999925,0.3333333333333333,2,object_08,5,2159,0,4,3,restaurant_7,1,memory-2step-stake-s,725,4070822,0.0-19.0-0.1-0.146,A3D2U4QF7821ZW,382GHPVPIV7ASJXQ3FB9V025S7G34H,3ZDAD0O1T5T9BLHOS7O7Z8ZO9DWTXY,7,8
147,2,object_05,object_07,931.89999999851,3,2,302.40000000224,0.5555555555555556,1,object_09,5,2184,0,5,1,forest_3,1,memory-2step-stake-s,726,4078857,0.0-19.0-0.1-0.147,A3D2U4QF7821ZW,382GHPVPIV7ASJXQ3FB9V025S7G34H,3ZDAD0O1T5T9BLHOS7O7Z8ZO9DWTXY,4,3
148,1,object_02,object_01,1027.0999999978,2,1,335.09999999776,0.2222222222222222,2,object_08,5,2194,0,3,2,desert_4,1,memory-2step-stake-s,727,4086612,0.0-19.0-0.1-0.148,A3D2U4QF7821ZW,382GHPVPIV7ASJXQ3FB9V025S7G34H,3ZDAD0O1T5T9BLHOS7O7Z8ZO9DWTXY,2,1
149,1,object_02,object_01,536.69999999925,2,1,291.60000000149,0.3333333333333333,2,object_08,1,2197,0,0,3,desert_7,1,memory-2step-stake-s,728,4094420,0.0-19.0-0.1-0.149,A3D2U4QF7821ZW,382GHPVPIV7ASJXQ3FB9V025S7G34H,3ZDAD0O1T5T9BLHOS7O7Z8ZO9DWTXY,2,1
150,4,object_10,object_06,1103.0,8,2,369.0,0.1111111111111111,2,object_08,5,2202,0,3,1,restaurant_8,1,memory-2step-stake-s,729,4102105,0.0-19.0-0.1-0.150,A3D2U4QF7821ZW,382GHPVPIV7ASJXQ3FB9V025S7G34H,3ZDAD0O1T5T9BLHOS7O7Z8ZO9DWTXY,7,8
151,4,object_10,object_06,809.90000000224,8,2,309.39999999851,0.0,2,object_08,5,2202,0,3,0,restaurant_7,1,memory-2step-stake-s,730,4109628,0.0-19.0-0.1-0.151,A3D2U4QF7821ZW,382GHPVPIV7ASJXQ3FB9V025S7G34H,3ZDAD0O1T5T9BLHOS7O7Z8ZO9DWTXY,7,8
152,4,object_06,object_10,886.19999999925,7,2,305.39999999851,0.4444444444444444,1,object_09,5,2222,0,4,2,restaurant_5,1,memory-2step-stake-s,731,4117553,0.0-19.0-0.1-0.152,A3D2U4QF7821ZW,382GHPVPIV7ASJXQ3FB9V025S7G34H,3ZDAD0O1T5T9BLHOS7O7Z8ZO9DWTXY,8,7
153,3,object_03,object_04,780.89999999851,6,1,46.900000002235,0.1111111111111111,2,object_08,5,2227,0,5,1,library_6,1,memory-2step-stake-s,732,4124913,0.0-19.0-0.1-0.153,A3D2U4QF7821ZW,382GHPVPIV7ASJXQ3FB9V025S7G34H,3ZDAD0O1T5T9BLHOS7O7Z8ZO9DWTXY,6,5
154,3,object_03,object_04,722.0,5,2,299.90000000224,0.3333333333333333,1,object_09,5,2242,0,3,1,library_7,1,memory-2step-stake-s,733,4132733,0.0-19.0-0.1-0.154,A3D2U4QF7821ZW,382GHPVPIV7ASJXQ3FB9V025S7G34H,3ZDAD0O1T5T9BLHOS7O7Z8ZO9DWTXY,6,5
155,1,object_02,object_01,-1.0,-1,-1,-1.0,0.0,-,0,5,2242,0,5,0,desert_4,1,memory-2step-stake-s,734,4139242,0.0-19.0-0.1-0.155,A3D2U4QF7821ZW,382GHPVPIV7ASJXQ3FB9V025S7G34H,3ZDAD0O1T5T9BLHOS7O7Z8ZO9DWTXY,2,1
156,3,object_04,object_03,1020.3000000007,6,2,328.0,0.4444444444444444,2,object_08,5,2262,0,1,4,library_3,1,memory-2step-stake-s,735,4147187,0.0-19.0-0.1-0.156,A3D2U4QF7821ZW,382GHPVPIV7ASJXQ3FB9V025S7G34H,3ZDAD0O1T5T9BLHOS7O7Z8ZO9DWTXY,5,6
157,3,object_04,object_03,593.70000000298,6,2,379.5,0.3333333333333333,2,object_08,5,2277,0,4,3,library_7,1,memory-2step-stake-s,736,4155087,0.0-19.0-0.1-0.157,A3D2U4QF7821ZW,382GHPVPIV7ASJXQ3FB9V025S7G34H,3ZDAD0O1T5T9BLHOS7O7Z8ZO9DWTXY,5,6
158,3,object_03,object_04,679.59999999776,6,1,379.20000000298,0.2222222222222222,2,object_08,5,2287,0,2,2,library_1,1,memory-2step-stake-s,737,4162889,0.0-19.0-0.1-0.158,A3D2U4QF7821ZW,382GHPVPIV7ASJXQ3FB9V025S7G34H,3ZDAD0O1T5T9BLHOS7O7Z8ZO9DWTXY,6,5
159,1,object_01,object_02,724.20000000298,2,2,384.30000000075,0.1111111111111111,2,object_08,5,2292,0,3,1,desert_2,1,memory-2step-stake-s,738,4170587,0.0-19.0-0.1-0.159,A3D2U4QF7821ZW,382GHPVPIV7ASJXQ3FB9V025S7G34H,3ZDAD0O1T5T9BLHOS7O7Z8ZO9DWTXY,1,2
160,4,object_10,object_06,691.0,7,1,356.19999999925,0.1111111111111111,1,object_09,5,2297,0,1,4,restaurant_7,1,memory-2step-stake-s,739,4178267,0.0-19.0-0.1-0.160,A3D2U4QF7821ZW,382GHPVPIV7ASJXQ3FB9V025S7G34H,3ZDAD0O1T5T9BLHOS7O7Z8ZO9DWTXY,7,8
161,4,object_10,object_06,770.5,7,1,237.39999999851,0.2222222222222222,1,object_09,5,2307,0,2,2,restaurant_5,1,memory-2step-stake-s,740,4185948,0.0-19.0-0.1-0.161,A3D2U4QF7821ZW,382GHPVPIV7ASJXQ3FB9V025S7G34H,3ZDAD0O1T5T9BLHOS7O7Z8ZO9DWTXY,7,8
162,3,object_03,object_04,888.09999999776,5,2,300.10000000149,0.2222222222222222,1,object_09,5,2317,0,2,1,library_7,1,memory-2step-stake-s,741,4193672,0.0-19.0-0.1-0.162,A3D2U4QF7821ZW,382GHPVPIV7ASJXQ3FB9V025S7G34H,3ZDAD0O1T5T9BLHOS7O7Z8ZO9DWTXY,6,5
163,2,object_05,object_07,741.39999999851,4,1,272.90000000224,0.3333333333333333,2,object_08,1,2320,0,2,3,forest_1,1,memory-2step-stake-s,742,4201462,0.0-19.0-0.1-0.163,A3D2U4QF7821ZW,382GHPVPIV7ASJXQ3FB9V025S7G34H,3ZDAD0O1T5T9BLHOS7O7Z8ZO9DWTXY,4,3
164,3,object_04,object_03,1429.8000000007,5,1,311.5,0.4444444444444444,1,object_09,5,2340,0,4,2,library_6,1,memory-2step-stake-s,743,4209394,0.0-19.0-0.1-0.164,A3D2U4QF7821ZW,382GHPVPIV7ASJXQ3FB9V025S7G34H,3ZDAD0O1T5T9BLHOS7O7Z8ZO9DWTXY,5,6
165,4,object_10,object_06,1162.8999999985,8,2,222.60000000149,0.3333333333333333,2,object_08,5,2355,0,2,3,restaurant_5,1,memory-2step-stake-s,744,4217132,0.0-19.0-0.1-0.165,A3D2U4QF7821ZW,382GHPVPIV7ASJXQ3FB9V025S7G34H,3ZDAD0O1T5T9BLHOS7O7Z8ZO9DWTXY,7,8
166,1,object_02,object_01,873.39999999851,2,1,371.10000000149,0.4444444444444444,2,object_08,5,2375,0,2,4,desert_2,1,memory-2step-stake-s,745,4225121,0.0-19.0-0.1-0.166,A3D2U4QF7821ZW,382GHPVPIV7ASJXQ3FB9V025S7G34H,3ZDAD0O1T5T9BLHOS7O7Z8ZO9DWTXY,2,1
167,4,object_06,object_10,1290.700000003,8,1,302.30000000075,0.2222222222222222,2,object_08,5,2385,0,6,2,restaurant_8,1,memory-2step-stake-s,746,4232841,0.0-19.0-0.1-0.167,A3D2U4QF7821ZW,382GHPVPIV7ASJXQ3FB9V025S7G34H,3ZDAD0O1T5T9BLHOS7O7Z8ZO9DWTXY,8,7
168,2,object_07,object_05,1116.8000000007,3,1,661.59999999776,0.5555555555555556,1,object_09,1,2390,0,5,0,forest_3,1,memory-2step-stake-s,747,4241233,0.0-19.0-0.1-0.168,A3D2U4QF7821ZW,382GHPVPIV7ASJXQ3FB9V025S7G34H,3ZDAD0O1T5T9BLHOS7O7Z8ZO9DWTXY,3,4
169,1,object_01,object_02,-1.0,-1,-1,-1.0,0.0,-,0,1,2390,0,7,5,desert_6,1,memory-2step-stake-s,748,4247797,0.0-19.0-0.1-0.169,A3D2U4QF7821ZW,382GHPVPIV7ASJXQ3FB9V025S7G34H,3ZDAD0O1T5T9BLHOS7O7Z8ZO9DWTXY,1,2
170,2,object_07,object_05,735.70000000298,4,2,106.90000000224,0.8888888888888888,2,object_08,5,2430,0,6,8,forest_8,1,memory-2step-stake-s,749,4255940,0.0-19.0-0.1-0.170,A3D2U4QF7821ZW,382GHPVPIV7ASJXQ3FB9V025S7G34H,3ZDAD0O1T5T9BLHOS7O7Z8ZO9DWTXY,3,4
171,4,object_06,object_10,785.09999999776,7,2,316.80000000075,0.4444444444444444,1,object_09,5,2450,0,4,9,restaurant_8,1,memory-2step-stake-s,750,4263874,0.0-19.0-0.1-0.171,A3D2U4QF7821ZW,382GHPVPIV7ASJXQ3FB9V025S7G34H,3ZDAD0O1T5T9BLHOS7O7Z8ZO9DWTXY,8,7
172,3,object_03,object_04,716.0,6,1,445.09999999776,0.5555555555555556,2,object_08,5,2475,0,3,5,library_3,1,memory-2step-stake-s,751,4272038,0.0-19.0-0.1-0.172,A3D2U4QF7821ZW,382GHPVPIV7ASJXQ3FB9V025S7G34H,3ZDAD0O1T5T9BLHOS7O7Z8ZO9DWTXY,6,5
173,3,object_03,object_04,672.39999999851,6,1,364.30000000075,0.5555555555555556,2,object_08,5,2500,0,5,5,library_6,1,memory-2step-stake-s,752,4280128,0.0-19.0-0.1-0.173,A3D2U4QF7821ZW,382GHPVPIV7ASJXQ3FB9V025S7G34H,3ZDAD0O1T5T9BLHOS7O7Z8ZO9DWTXY,6,5
174,2,object_07,object_05,1252.299999997,4,2,1279.6000000015,0.5555555555555556,2,object_08,5,2525,0,2,5,forest_8,1,memory-2step-stake-s,753,4289136,0.0-19.0-0.1-0.174,A3D2U4QF7821ZW,382GHPVPIV7ASJXQ3FB9V025S7G34H,3ZDAD0O1T5T9BLHOS7O7Z8ZO9DWTXY,3,4
175,4,object_06,object_10,643.10000000149,8,1,293.79999999702,0.4444444444444444,2,object_08,5,2545,0,2,4,restaurant_1,1,memory-2step-stake-s,754,4297060,0.0-19.0-0.1-0.175,A3D2U4QF7821ZW,382GHPVPIV7ASJXQ3FB9V025S7G34H,3ZDAD0O1T5T9BLHOS7O7Z8ZO9DWTXY,8,7
176,2,object_05,object_07,464.69999999925,4,1,331.60000000149,0.6666666666666666,2,object_08,1,2551,0,3,6,forest_2,1,memory-2step-stake-s,755,4305213,0.0-19.0-0.1-0.176,A3D2U4QF7821ZW,382GHPVPIV7ASJXQ3FB9V025S7G34H,3ZDAD0O1T5T9BLHOS7O7Z8ZO9DWTXY,4,3
177,1,object_02,object_01,925.69999999925,2,1,281.10000000149,0.6666666666666666,2,object_08,1,2557,0,1,6,desert_4,1,memory-2step-stake-s,756,4313315,0.0-19.0-0.1-0.177,A3D2U4QF7821ZW,382GHPVPIV7ASJXQ3FB9V025S7G34H,3ZDAD0O1T5T9BLHOS7O7Z8ZO9DWTXY,2,1
178,4,object_06,object_10,744.10000000149,8,1,370.29999999702,0.7777777777777778,2,object_08,5,2592,0,2,7,restaurant_5,1,memory-2step-stake-s,757,4321611,0.0-19.0-0.1-0.178,A3D2U4QF7821ZW,382GHPVPIV7ASJXQ3FB9V025S7G34H,3ZDAD0O1T5T9BLHOS7O7Z8ZO9DWTXY,8,7
179,4,object_10,object_06,833.19999999925,8,2,396.89999999851,1.0,2,object_08,5,2637,0,3,9,restaurant_1,1,memory-2step-stake-s,758,4330148,0.0-19.0-0.1-0.179,A3D2U4QF7821ZW,382GHPVPIV7ASJXQ3FB9V025S7G34H,3ZDAD0O1T5T9BLHOS7O7Z8ZO9DWTXY,7,8
180,4,object_10,object_06,1280.5,8,2,547.70000000298,0.8888888888888888,2,object_08,5,2677,0,4,8,restaurant_1,1,memory-2step-stake-s,759,4338721,0.0-19.0-0.1-0.180,A3D2U4QF7821ZW,382GHPVPIV7ASJXQ3FB9V025S7G34H,3ZDAD0O1T5T9BLHOS7O7Z8ZO9DWTXY,7,8
181,1,object_02,object_01,642.09999999776,2,1,381.40000000224,0.7777777777777778,2,object_08,1,2684,0,4,7,desert_4,1,memory-2step-stake-s,760,4347029,0.0-19.0-0.1-0.181,A3D2U4QF7821ZW,382GHPVPIV7ASJXQ3FB9V025S7G34H,3ZDAD0O1T5T9BLHOS7O7Z8ZO9DWTXY,2,1
182,3,object_04,object_03,1152.6000000015,5,1,276.89999999851,0.4444444444444444,1,object_09,5,2704,0,4,5,library_1,1,memory-2step-stake-s,761,4354919,0.0-19.0-0.1-0.182,A3D2U4QF7821ZW,382GHPVPIV7ASJXQ3FB9V025S7G34H,3ZDAD0O1T5T9BLHOS7O7Z8ZO9DWTXY,5,6
183,4,object_06,object_10,822.0,8,1,328.30000000075,0.7777777777777778,2,object_08,5,2739,0,4,7,restaurant_5,1,memory-2step-stake-s,762,4363182,0.0-19.0-0.1-0.183,A3D2U4QF7821ZW,382GHPVPIV7ASJXQ3FB9V025S7G34H,3ZDAD0O1T5T9BLHOS7O7Z8ZO9DWTXY,8,7
184,2,object_07,object_05,951.10000000149,4,2,210.30000000075,0.8888888888888888,2,object_08,1,2747,0,4,8,forest_8,1,memory-2step-stake-s,763,4371418,0.0-19.0-0.1-0.184,A3D2U4QF7821ZW,382GHPVPIV7ASJXQ3FB9V025S7G34H,3ZDAD0O1T5T9BLHOS7O7Z8ZO9DWTXY,3,4
185,4,object_10,object_06,714.0,8,2,316.5,1.0,2,object_08,5,2792,0,5,9,restaurant_1,1,memory-2step-stake-s,764,4379871,0.0-19.0-0.1-0.185,A3D2U4QF7821ZW,382GHPVPIV7ASJXQ3FB9V025S7G34H,3ZDAD0O1T5T9BLHOS7O7Z8ZO9DWTXY,7,8
186,3,object_04,object_03,700.10000000149,6,2,352.20000000298,0.7777777777777778,2,object_08,5,2827,0,5,7,library_3,1,memory-2step-stake-s,765,4388153,0.0-19.0-0.1-0.186,A3D2U4QF7821ZW,382GHPVPIV7ASJXQ3FB9V025S7G34H,3ZDAD0O1T5T9BLHOS7O7Z8ZO9DWTXY,5,6
187,3,object_03,object_04,1477.0,5,2,376.0,0.3333333333333333,1,object_09,1,2830,0,3,9,library_7,1,memory-2step-stake-s,766,4396044,0.0-19.0-0.1-0.187,A3D2U4QF7821ZW,382GHPVPIV7ASJXQ3FB9V025S7G34H,3ZDAD0O1T5T9BLHOS7O7Z8ZO9DWTXY,6,5
188,2,object_05,object_07,800.30000000075,4,1,212.0,0.8888888888888888,2,object_08,1,2838,0,2,8,forest_2,1,memory-2step-stake-s,767,4404282,0.0-19.0-0.1-0.188,A3D2U4QF7821ZW,382GHPVPIV7ASJXQ3FB9V025S7G34H,3ZDAD0O1T5T9BLHOS7O7Z8ZO9DWTXY,4,3
189,3,object_04,object_03,770.0,6,2,404.5,0.8888888888888888,2,object_08,5,2878,0,4,8,library_6,1,memory-2step-stake-s,768,4412728,0.0-19.0-0.1-0.189,A3D2U4QF7821ZW,382GHPVPIV7ASJXQ3FB9V025S7G34H,3ZDAD0O1T5T9BLHOS7O7Z8ZO9DWTXY,5,6
190,3,object_03,object_04,693.59999999776,6,1,392.5,0.8888888888888888,2,object_08,5,2918,0,3,8,library_6,1,memory-2step-stake-s,769,4421155,0.0-19.0-0.1-0.190,A3D2U4QF7821ZW,382GHPVPIV7ASJXQ3FB9V025S7G34H,3ZDAD0O1T5T9BLHOS7O7Z8ZO9DWTXY,6,5
191,4,object_10,object_06,1384.200000003,8,2,307.5,0.8888888888888888,2,object_08,5,2958,0,4,8,restaurant_5,1,memory-2step-stake-s,770,4429493,0.0-19.0-0.1-0.191,A3D2U4QF7821ZW,382GHPVPIV7ASJXQ3FB9V025S7G34H,3ZDAD0O1T5T9BLHOS7O7Z8ZO9DWTXY,7,8
192,3,object_03,object_04,800.80000000075,6,1,179.80000000075,1.0,2,object_08,5,3003,0,5,9,library_7,1,memory-2step-stake-s,771,4437796,0.0-19.0-0.1-0.192,A3D2U4QF7821ZW,382GHPVPIV7ASJXQ3FB9V025S7G34H,3ZDAD0O1T5T9BLHOS7O7Z8ZO9DWTXY,6,5
193,2,object_05,object_07,687.40000000224,4,1,371.0,1.0,2,object_08,1,3012,0,6,9,forest_3,1,memory-2step-stake-s,772,4446290,0.0-19.0-0.1-0.193,A3D2U4QF7821ZW,382GHPVPIV7ASJXQ3FB9V025S7G34H,3ZDAD0O1T5T9BLHOS7O7Z8ZO9DWTXY,4,3
194,1,object_02,object_01,1130.6999999993,2,1,301.39999999851,0.7777777777777778,2,object_08,5,3047,0,7,7,desert_2,1,memory-2step-stake-s,773,4454523,0.0-19.0-0.1-0.194,A3D2U4QF7821ZW,382GHPVPIV7ASJXQ3FB9V025S7G34H,3ZDAD0O1T5T9BLHOS7O7Z8ZO9DWTXY,2,1
195,2,object_07,object_05,785.0,4,2,324.19999999925,0.8888888888888888,2,object_08,1,3055,0,8,8,forest_2,1,memory-2step-stake-s,774,4462872,0.0-19.0-0.1-0.195,A3D2U4QF7821ZW,382GHPVPIV7ASJXQ3FB9V025S7G34H,3ZDAD0O1T5T9BLHOS7O7Z8ZO9DWTXY,3,4
196,4,object_10,object_06,796.79999999702,8,2,327.19999999925,0.5555555555555556,2,object_08,5,3080,0,8,5,restaurant_1,1,memory-2step-stake-s,775,4470918,0.0-19.0-0.1-0.196,A3D2U4QF7821ZW,382GHPVPIV7ASJXQ3FB9V025S7G34H,3ZDAD0O1T5T9BLHOS7O7Z8ZO9DWTXY,7,8
197,2,object_05,object_07,1077.0,4,1,-1.0,0.0,2,object_08,5,3080,0,9,7,forest_1,1,memory-2step-stake-s,776,4479432,0.0-19.0-0.1-0.197,A3D2U4QF7821ZW,382GHPVPIV7ASJXQ3FB9V025S7G34H,3ZDAD0O1T5T9BLHOS7O7Z8ZO9DWTXY,4,3
198,4,object_10,object_06,773.0,8,2,80.39999999851,0.6666666666666666,2,object_08,5,3110,0,9,6,restaurant_5,1,memory-2step-stake-s,777,4487331,0.0-19.0-0.1-0.198,A3D2U4QF7821ZW,382GHPVPIV7ASJXQ3FB9V025S7G34H,3ZDAD0O1T5T9BLHOS7O7Z8ZO9DWTXY,7,8
199,4,object_06,object_10,690.5,8,1,100.19999999925,0.6666666666666666,2,object_08,5,3140,0,9,6,restaurant_7,1,memory-2step-stake-s,778,4495252,0.0-19.0-0.1-0.199,A3D2U4QF7821ZW,382GHPVPIV7ASJXQ3FB9V025S7G34H,3ZDAD0O1T5T9BLHOS7O7Z8ZO9DWTXY,8,7
200,1,object_02,object_01,985.89999999851,2,1,404.40000000224,0.5555555555555556,2,object_08,1,3145,0,8,5,desert_7,1,memory-2step-stake-s,779,4503397,0.0-19.0-0.1-0.200,A3D2U4QF7821ZW,382GHPVPIV7ASJXQ3FB9V025S7G34H,3ZDAD0O1T5T9BLHOS7O7Z8ZO9DWTXY,2,1
201,2,object_05,object_07,615.30000000075,4,1,353.09999999776,0.5555555555555556,2,object_08,1,3150,0,8,5,forest_3,1,memory-2step-stake-s,780,4511489,0.0-19.0-0.1-0.201,A3D2U4QF7821ZW,382GHPVPIV7ASJXQ3FB9V025S7G34H,3ZDAD0O1T5T9BLHOS7O7Z8ZO9DWTXY,4,3
202,1,object_02,object_01,586.89999999851,2,1,686.10000000149,0.6666666666666666,2,object_08,1,3156,0,6,6,desert_7,1,memory-2step-stake-s,781,4520000,0.0-19.0-0.1-0.202,A3D2U4QF7821ZW,382GHPVPIV7ASJXQ3FB9V025S7G34H,3ZDAD0O1T5T9BLHOS7O7Z8ZO9DWTXY,2,1
203,1,object_02,object_01,931.69999999925,2,1,415.19999999925,0.6666666666666666,2,object_08,1,3162,0,6,6,desert_7,1,memory-2step-stake-s,782,4528235,0.0-19.0-0.1-0.203,A3D2U4QF7821ZW,382GHPVPIV7ASJXQ3FB9V025S7G34H,3ZDAD0O1T5T9BLHOS7O7Z8ZO9DWTXY,2,1
204,4,object_06,object_10,641.10000000149,8,1,45.599999997765,0.7777777777777778,2,object_08,5,3197,0,8,7,restaurant_5,1,memory-2step-stake-s,783,4536215,0.0-19.0-0.1-0.204,A3D2U4QF7821ZW,382GHPVPIV7ASJXQ3FB9V025S7G34H,3ZDAD0O1T5T9BLHOS7O7Z8ZO9DWTXY,8,7
205,2,object_07,object_05,1321.5999999978,4,2,308.69999999925,0.5555555555555556,2,object_08,1,3202,0,7,5,forest_1,1,memory-2step-stake-s,784,4544245,0.0-19.0-0.1-0.205,A3D2U4QF7821ZW,382GHPVPIV7ASJXQ3FB9V025S7G34H,3ZDAD0O1T5T9BLHOS7O7Z8ZO9DWTXY,3,4
206,4,object_10,object_06,644.30000000075,8,2,335.20000000298,0.8888888888888888,2,object_08,1,3210,0,8,8,restaurant_7,1,memory-2step-stake-s,785,4552611,0.0-19.0-0.1-0.206,A3D2U4QF7821ZW,382GHPVPIV7ASJXQ3FB9V025S7G34H,3ZDAD0O1T5T9BLHOS7O7Z8ZO9DWTXY,7,8
207,1,object_01,object_02,793.09999999776,1,1,557.19999999925,1.0,1,object_09,1,3219,0,9,9,desert_4,1,memory-2step-stake-s,786,4561294,0.0-19.0-0.1-0.207,A3D2U4QF7821ZW,382GHPVPIV7ASJXQ3FB9V025S7G34H,3ZDAD0O1T5T9BLHOS7O7Z8ZO9DWTXY,1,2
208,1,object_01,object_02,742.30000000075,2,2,169.5,0.8888888888888888,2,object_08,1,3227,0,6,8,desert_2,1,memory-2step-stake-s,787,4569523,0.0-19.0-0.1-0.208,A3D2U4QF7821ZW,382GHPVPIV7ASJXQ3FB9V025S7G34H,3ZDAD0O1T5T9BLHOS7O7Z8ZO9DWTXY,1,2
209,1,object_02,object_01,801.5,2,1,388.19999999925,0.7777777777777778,2,object_08,1,3234,0,5,7,desert_6,1,memory-2step-stake-s,788,4577834,0.0-19.0-0.1-0.209,A3D2U4QF7821ZW,382GHPVPIV7ASJXQ3FB9V025S7G34H,3ZDAD0O1T5T9BLHOS7O7Z8ZO9DWTXY,2,1
210,4,object_06,object_10,793.69999999925,8,1,396.40000000224,0.7777777777777778,2,object_08,5,3269,0,4,7,restaurant_7,1,memory-2step-stake-s,789,4586155,0.0-19.0-0.1-0.210,A3D2U4QF7821ZW,382GHPVPIV7ASJXQ3FB9V025S7G34H,3ZDAD0O1T5T9BLHOS7O7Z8ZO9DWTXY,8,7
211,1,object_02,object_01,873.19999999925,2,1,348.39999999851,0.3333333333333333,2,object_08,5,3284,0,4,3,desert_6,1,memory-2step-stake-s,790,4594020,0.0-19.0-0.1-0.211,A3D2U4QF7821ZW,382GHPVPIV7ASJXQ3FB9V025S7G34H,3ZDAD0O1T5T9BLHOS7O7Z8ZO9DWTXY,2,1
212,2,object_05,object_07,1152.8000000007,4,1,732.19999999925,0.3333333333333333,2,object_08,1,3287,0,8,3,forest_3,1,memory-2step-stake-s,791,4602269,0.0-19.0-0.1-0.212,A3D2U4QF7821ZW,382GHPVPIV7ASJXQ3FB9V025S7G34H,3ZDAD0O1T5T9BLHOS7O7Z8ZO9DWTXY,4,3
213,3,object_04,object_03,1065.0999999978,5,1,436.20000000298,0.5555555555555556,1,object_09,5,3312,0,5,4,library_1,1,memory-2step-stake-s,792,4610425,0.0-19.0-0.1-0.213,A3D2U4QF7821ZW,382GHPVPIV7ASJXQ3FB9V025S7G34H,3ZDAD0O1T5T9BLHOS7O7Z8ZO9DWTXY,5,6
214,1,object_01,object_02,740.19999999925,1,1,720.39999999851,0.7777777777777778,1,object_09,1,3319,0,7,5,desert_6,1,memory-2step-stake-s,793,4619067,0.0-19.0-0.1-0.214,A3D2U4QF7821ZW,382GHPVPIV7ASJXQ3FB9V025S7G34H,3ZDAD0O1T5T9BLHOS7O7Z8ZO9DWTXY,1,2
215,1,object_02,object_01,610.39999999851,1,2,421.59999999776,0.4444444444444444,1,object_09,1,3323,0,4,4,desert_6,1,memory-2step-stake-s,794,4627110,0.0-19.0-0.1-0.215,A3D2U4QF7821ZW,382GHPVPIV7ASJXQ3FB9V025S7G34H,3ZDAD0O1T5T9BLHOS7O7Z8ZO9DWTXY,2,1
216,4,object_10,object_06,1096.5,8,2,420.30000000075,0.6666666666666666,2,object_08,5,3353,0,3,6,restaurant_5,1,memory-2step-stake-s,795,4635353,0.0-19.0-0.1-0.216,A3D2U4QF7821ZW,382GHPVPIV7ASJXQ3FB9V025S7G34H,3ZDAD0O1T5T9BLHOS7O7Z8ZO9DWTXY,7,8
217,3,object_03,object_04,781.0,6,1,344.0,0.4444444444444444,2,object_08,5,3373,0,4,4,library_1,1,memory-2step-stake-s,796,4643335,0.0-19.0-0.1-0.217,A3D2U4QF7821ZW,382GHPVPIV7ASJXQ3FB9V025S7G34H,3ZDAD0O1T5T9BLHOS7O7Z8ZO9DWTXY,6,5
218,3,object_03,object_04,975.0,5,2,369.89999999851,0.3333333333333333,1,object_09,5,3388,0,3,2,library_3,1,memory-2step-stake-s,797,4651221,0.0-19.0-0.1-0.218,A3D2U4QF7821ZW,382GHPVPIV7ASJXQ3FB9V025S7G34H,3ZDAD0O1T5T9BLHOS7O7Z8ZO9DWTXY,6,5
219,3,object_04,object_03,992.80000000075,5,1,307.89999999851,0.4444444444444444,1,object_09,5,3408,0,4,8,library_6,1,memory-2step-stake-s,798,4659145,0.0-19.0-0.1-0.219,A3D2U4QF7821ZW,382GHPVPIV7ASJXQ3FB9V025S7G34H,3ZDAD0O1T5T9BLHOS7O7Z8ZO9DWTXY,5,6
220,1,object_02,object_01,644.19999999925,1,2,303.5,0.5555555555555556,1,object_09,1,3413,0,5,9,desert_7,1,memory-2step-stake-s,799,4667184,0.0-19.0-0.1-0.220,A3D2U4QF7821ZW,382GHPVPIV7ASJXQ3FB9V025S7G34H,3ZDAD0O1T5T9BLHOS7O7Z8ZO9DWTXY,2,1
221,1,object_01,object_02,645.60000000149,1,1,481.59999999776,0.6666666666666666,1,object_09,1,3419,0,6,6,desert_6,1,memory-2step-stake-s,800,4675485,0.0-19.0-0.1-0.221,A3D2U4QF7821ZW,382GHPVPIV7ASJXQ3FB9V025S7G34H,3ZDAD0O1T5T9BLHOS7O7Z8ZO9DWTXY,1,2
222,2,object_07,object_05,823.40000000224,4,2,328.80000000075,0.4444444444444444,2,object_08,1,3423,0,8,4,forest_1,1,memory-2step-stake-s,801,4683450,0.0-19.0-0.1-0.222,A3D2U4QF7821ZW,382GHPVPIV7ASJXQ3FB9V025S7G34H,3ZDAD0O1T5T9BLHOS7O7Z8ZO9DWTXY,3,4
223,3,object_03,object_04,1267.3999999985,6,1,318.39999999851,0.1111111111111111,2,object_08,5,3428,0,5,1,library_1,1,memory-2step-stake-s,802,4691083,0.0-19.0-0.1-0.223,A3D2U4QF7821ZW,382GHPVPIV7ASJXQ3FB9V025S7G34H,3ZDAD0O1T5T9BLHOS7O7Z8ZO9DWTXY,6,5
224,2,object_05,object_07,538.5,3,2,357.0,0.4444444444444444,1,object_09,5,3448,0,4,1,forest_8,1,memory-2step-stake-s,803,4699059,0.0-19.0-0.1-0.224,A3D2U4QF7821ZW,382GHPVPIV7ASJXQ3FB9V025S7G34H,3ZDAD0O1T5T9BLHOS7O7Z8ZO9DWTXY,4,3
225,1,object_01,object_02,1025.8000000007,1,1,635.40000000224,0.7777777777777778,1,object_09,5,3483,0,7,1,desert_7,1,memory-2step-stake-s,804,4707617,0.0-19.0-0.1-0.225,A3D2U4QF7821ZW,382GHPVPIV7ASJXQ3FB9V025S7G34H,3ZDAD0O1T5T9BLHOS7O7Z8ZO9DWTXY,1,2
226,2,object_05,object_07,635.19999999925,3,2,365.89999999851,0.6666666666666666,1,object_09,1,3489,0,6,1,forest_2,1,memory-2step-stake-s,805,4715808,0.0-19.0-0.1-0.226,A3D2U4QF7821ZW,382GHPVPIV7ASJXQ3FB9V025S7G34H,3ZDAD0O1T5T9BLHOS7O7Z8ZO9DWTXY,4,3
227,1,object_01,object_02,625.90000000224,1,1,1092.8000000007,1.0,1,object_09,5,3534,0,9,3,desert_4,1,memory-2step-stake-s,806,4725029,0.0-19.0-0.1-0.227,A3D2U4QF7821ZW,382GHPVPIV7ASJXQ3FB9V025S7G34H,3ZDAD0O1T5T9BLHOS7O7Z8ZO9DWTXY,1,2
228,1,object_02,object_01,631.80000000075,1,2,11.20000000298,0.5555555555555556,1,object_09,1,3539,0,5,1,desert_6,1,memory-2step-stake-s,807,4732759,0.0-19.0-0.1-0.228,A3D2U4QF7821ZW,382GHPVPIV7ASJXQ3FB9V025S7G34H,3ZDAD0O1T5T9BLHOS7O7Z8ZO9DWTXY,2,1
229,4,object_10,object_06,701.19999999925,8,2,265.19999999925,0.1111111111111111,2,object_08,1,3540,0,3,1,restaurant_7,1,memory-2step-stake-s,808,4740338,0.0-19.0-0.1-0.229,A3D2U4QF7821ZW,382GHPVPIV7ASJXQ3FB9V025S7G34H,3ZDAD0O1T5T9BLHOS7O7Z8ZO9DWTXY,7,8
230,1,object_01,object_02,1001.0,1,1,377.79999999702,0.3333333333333333,1,object_09,5,3555,0,3,2,desert_6,1,memory-2step-stake-s,809,4748235,0.0-19.0-0.1-0.230,A3D2U4QF7821ZW,382GHPVPIV7ASJXQ3FB9V025S7G34H,3ZDAD0O1T5T9BLHOS7O7Z8ZO9DWTXY,1,2
231,1,object_01,object_02,1154.1000000015,2,2,268.59999999776,0.3333333333333333,2,object_08,1,3558,0,1,3,desert_7,1,memory-2step-stake-s,810,4756021,0.0-19.0-0.1-0.231,A3D2U4QF7821ZW,382GHPVPIV7ASJXQ3FB9V025S7G34H,3ZDAD0O1T5T9BLHOS7O7Z8ZO9DWTXY,1,2
232,3,object_04,object_03,936.19999999925,6,2,308.10000000149,0.5555555555555556,2,object_08,5,3583,0,3,5,library_6,1,memory-2step-stake-s,811,4764059,0.0-19.0-0.1-0.232,A3D2U4QF7821ZW,382GHPVPIV7ASJXQ3FB9V025S7G34H,3ZDAD0O1T5T9BLHOS7O7Z8ZO9DWTXY,5,6
233,4,object_10,object_06,1096.8999999985,7,1,570.5,0.0,1,object_09,5,3583,0,0,6,restaurant_7,1,memory-2step-stake-s,812,4771844,0.0-19.0-0.1-0.233,A3D2U4QF7821ZW,382GHPVPIV7ASJXQ3FB9V025S7G34H,3ZDAD0O1T5T9BLHOS7O7Z8ZO9DWTXY,7,8
234,1,object_02,object_01,871.90000000224,1,2,417.19999999925,0.1111111111111111,1,object_09,5,3588,0,1,1,desert_2,1,memory-2step-stake-s,813,4779577,0.0-19.0-0.1-0.234,A3D2U4QF7821ZW,382GHPVPIV7ASJXQ3FB9V025S7G34H,3ZDAD0O1T5T9BLHOS7O7Z8ZO9DWTXY,2,1
235,2,object_07,object_05,939.80000000075,3,1,-1.0,0.0,1,object_09,1,3588,0,1,0,forest_1,1,memory-2step-stake-s,814,4788092,0.0-19.0-0.1-0.235,A3D2U4QF7821ZW,382GHPVPIV7ASJXQ3FB9V025S7G34H,3ZDAD0O1T5T9BLHOS7O7Z8ZO9DWTXY,3,4
236,1,object_01,object_02,888.5,1,1,436.5,0.2222222222222222,1,object_09,1,3590,0,2,0,desert_4,1,memory-2step-stake-s,815,4795940,0.0-19.0-0.1-0.236,A3D2U4QF7821ZW,382GHPVPIV7ASJXQ3FB9V025S7G34H,3ZDAD0O1T5T9BLHOS7O7Z8ZO9DWTXY,1,2
237,3,object_04,object_03,567.0,6,2,312.80000000075,0.2222222222222222,2,object_08,1,3592,0,2,2,library_3,1,memory-2step-stake-s,816,4803673,0.0-19.0-0.1-0.237,A3D2U4QF7821ZW,382GHPVPIV7ASJXQ3FB9V025S7G34H,3ZDAD0O1T5T9BLHOS7O7Z8ZO9DWTXY,5,6
238,3,object_04,object_03,859.60000000149,5,1,469.39999999851,0.3333333333333333,1,object_09,1,3595,0,3,2,library_3,1,memory-2step-stake-s,817,4811659,0.0-19.0-0.1-0.238,A3D2U4QF7821ZW,382GHPVPIV7ASJXQ3FB9V025S7G34H,3ZDAD0O1T5T9BLHOS7O7Z8ZO9DWTXY,5,6
239,2,object_05,object_07,1000.1999999993,3,2,395.5,0.1111111111111111,1,object_09,5,3600,0,1,3,forest_1,1,memory-2step-stake-s,818,4819369,0.0-19.0-0.1-0.239,A3D2U4QF7821ZW,382GHPVPIV7ASJXQ3FB9V025S7G34H,3ZDAD0O1T5T9BLHOS7O7Z8ZO9DWTXY,4,3
240,2,object_05,object_07,916.80000000075,4,1,455.5,0.3333333333333333,2,object_08,1,3603,0,1,3,forest_1,1,memory-2step-stake-s,819,4827344,0.0-19.0-0.1-0.240,A3D2U4QF7821ZW,382GHPVPIV7ASJXQ3FB9V025S7G34H,3ZDAD0O1T5T9BLHOS7O7Z8ZO9DWTXY,4,3
241,2,object_07,object_05,899.30000000075,3,1,-1.0,0.0,1,object_09,5,3603,0,1,5,forest_1,1,memory-2step-stake-s,820,4835856,0.0-19.0-0.1-0.241,A3D2U4QF7821ZW,382GHPVPIV7ASJXQ3FB9V025S7G34H,3ZDAD0O1T5T9BLHOS7O7Z8ZO9DWTXY,3,4
242,2,object_07,object_05,721.80000000075,3,1,419.90000000224,0.0,1,object_09,1,3603,0,0,5,forest_3,1,memory-2step-stake-s,821,4843492,0.0-19.0-0.1-0.242,A3D2U4QF7821ZW,382GHPVPIV7ASJXQ3FB9V025S7G34H,3ZDAD0O1T5T9BLHOS7O7Z8ZO9DWTXY,3,4
243,1,object_01,object_02,848.60000000149,2,2,322.79999999702,0.5555555555555556,2,object_08,1,3608,0,1,5,desert_4,1,memory-2step-stake-s,822,4851533,0.0-19.0-0.1-0.243,A3D2U4QF7821ZW,382GHPVPIV7ASJXQ3FB9V025S7G34H,3ZDAD0O1T5T9BLHOS7O7Z8ZO9DWTXY,1,2
244,3,object_03,object_04,981.10000000149,5,2,337.09999999776,0.2222222222222222,1,object_09,5,3618,0,2,3,library_3,1,memory-2step-stake-s,823,4859297,0.0-19.0-0.1-0.244,A3D2U4QF7821ZW,382GHPVPIV7ASJXQ3FB9V025S7G34H,3ZDAD0O1T5T9BLHOS7O7Z8ZO9DWTXY,6,5
245,4,object_10,object_06,1322.3000000007,8,2,436.29999999702,0.4444444444444444,2,object_08,5,3638,0,3,4,restaurant_7,1,memory-2step-stake-s,824,4867352,0.0-19.0-0.1-0.245,A3D2U4QF7821ZW,382GHPVPIV7ASJXQ3FB9V025S7G34H,3ZDAD0O1T5T9BLHOS7O7Z8ZO9DWTXY,7,8
246,4,object_06,object_10,955.80000000075,8,1,638.19999999925,0.0,2,object_08,5,3638,0,2,0,restaurant_8,1,memory-2step-stake-s,825,4875203,0.0-19.0-0.1-0.246,A3D2U4QF7821ZW,382GHPVPIV7ASJXQ3FB9V025S7G34H,3ZDAD0O1T5T9BLHOS7O7Z8ZO9DWTXY,8,7
247,1,object_02,object_01,719.69999999925,1,2,379.29999999702,0.3333333333333333,1,object_09,5,3653,0,3,0,desert_7,1,memory-2step-stake-s,826,4883107,0.0-19.0-0.1-0.247,A3D2U4QF7821ZW,382GHPVPIV7ASJXQ3FB9V025S7G34H,3ZDAD0O1T5T9BLHOS7O7Z8ZO9DWTXY,2,1
248,4,object_10,object_06,740.5,8,2,359.19999999925,0.4444444444444444,2,object_08,5,3673,0,3,4,restaurant_5,1,memory-2step-stake-s,827,4891086,0.0-19.0-0.1-0.248,A3D2U4QF7821ZW,382GHPVPIV7ASJXQ3FB9V025S7G34H,3ZDAD0O1T5T9BLHOS7O7Z8ZO9DWTXY,7,8
249,3,object_04,object_03,1102.5,6,2,584.30000000075,0.8888888888888888,2,object_08,5,3713,0,3,8,library_6,1,memory-2step-stake-s,828,4899716,0.0-19.0-0.1-0.249,A3D2U4QF7821ZW,382GHPVPIV7ASJXQ3FB9V025S7G34H,3ZDAD0O1T5T9BLHOS7O7Z8ZO9DWTXY,5,6
250,4,object_10,object_06,688.0,8,2,307.10000000149,0.8888888888888888,2,object_08,1,3721,0,3,8,restaurant_8,1,memory-2step-stake-s,829,4908065,0.0-19.0-0.1-0.250,A3D2U4QF7821ZW,382GHPVPIV7ASJXQ3FB9V025S7G34H,3ZDAD0O1T5T9BLHOS7O7Z8ZO9DWTXY,7,8
251,2,object_07,object_05,659.10000000149,4,2,319.5,0.8888888888888888,2,object_08,1,3729,0,4,8,forest_3,1,memory-2step-stake-s,830,4916406,0.0-19.0-0.1-0.251,A3D2U4QF7821ZW,382GHPVPIV7ASJXQ3FB9V025S7G34H,3ZDAD0O1T5T9BLHOS7O7Z8ZO9DWTXY,3,4
252,2,object_07,object_05,525.89999999851,4,2,307.20000000298,1.0,2,object_08,1,3738,0,2,9,forest_1,1,memory-2step-stake-s,831,4924865,0.0-19.0-0.1-0.252,A3D2U4QF7821ZW,382GHPVPIV7ASJXQ3FB9V025S7G34H,3ZDAD0O1T5T9BLHOS7O7Z8ZO9DWTXY,3,4
253,2,object_05,object_07,427.5,4,1,328.0,0.7777777777777778,2,object_08,1,3745,0,0,7,forest_2,1,memory-2step-stake-s,832,4933124,0.0-19.0-0.1-0.253,A3D2U4QF7821ZW,382GHPVPIV7ASJXQ3FB9V025S7G34H,3ZDAD0O1T5T9BLHOS7O7Z8ZO9DWTXY,4,3
254,1,object_01,object_02,712.60000000149,2,2,372.5,1.0,2,object_08,1,3754,0,1,9,desert_2,1,memory-2step-stake-s,833,4941619,0.0-19.0-0.1-0.254,A3D2U4QF7821ZW,382GHPVPIV7ASJXQ3FB9V025S7G34H,3ZDAD0O1T5T9BLHOS7O7Z8ZO9DWTXY,1,2
255,2,object_05,object_07,984.19999999925,4,1,548.40000000224,0.8888888888888888,2,object_08,5,3794,0,1,8,forest_8,1,memory-2step-stake-s,834,4950192,0.0-19.0-0.1-0.255,A3D2U4QF7821ZW,382GHPVPIV7ASJXQ3FB9V025S7G34H,3ZDAD0O1T5T9BLHOS7O7Z8ZO9DWTXY,4,3
