,state1,stim_left,stim_right,rt_1,choice1,response1,rt_2,points,state2,stim_state2,stake,score,practice,rews1,rews2,background,high_arm,trial_type,trial_index,time_elapsed,internal_node_id,subid,hitid,assignmentid,stim_left_num,stim_right_num
0,4,object_07,object_10,1214.1000000015,8,1,-1.0,0.0,2,object_06,1,0,0,7,0,restaurant_8,2,memory-2step-stake-s,500,1349824,0.0-19.0-0.0-0.0,A5K108EWACHK5,382GHPVPIV7ASJXQ3FB9V025S7G34H,3SBEHTYCWRJ82CRN3RB54F4O032IY6,8,7
1,3,object_01,object_09,1269.6999999993,6,1,885.0,0.2222222222222222,2,object_06,1,2,0,7,2,library_6,2,memory-2step-stake-s,501,1358177,0.0-19.0-0.0-0.1,A5K108EWACHK5,382GHPVPIV7ASJXQ3FB9V025S7G34H,3SBEHTYCWRJ82CRN3RB54F4O032IY6,6,5
2,1,object_08,object_02,1110.8000000007,2,2,995.59999999776,0.1111111111111111,2,object_06,5,7,0,9,1,desert_5,2,memory-2step-stake-s,502,1366523,0.0-19.0-0.0-0.2,A5K108EWACHK5,382GHPVPIV7ASJXQ3FB9V025S7G34H,3SBEHTYCWRJ82CRN3RB54F4O032IY6,1,2
3,3,object_09,object_01,1074.8999999985,5,1,1417.1000000015,0.7777777777777778,1,object_05,5,42,0,7,4,library_6,2,memory-2step-stake-s,503,1375914,0.0-19.0-0.0-0.3,A5K108EWACHK5,382GHPVPIV7ASJXQ3FB9V025S7G34H,3SBEHTYCWRJ82CRN3RB54F4O032IY6,5,6
4,4,object_10,object_07,1407.6999999993,8,2,971.5,0.7777777777777778,2,object_06,1,49,0,3,7,restaurant_3,2,memory-2step-stake-s,504,1384846,0.0-19.0-0.0-0.4,A5K108EWACHK5,382GHPVPIV7ASJXQ3FB9V025S7G34H,3SBEHTYCWRJ82CRN3RB54F4O032IY6,7,8
5,2,object_03,object_04,995.39999999851,4,2,-1.0,0.0,2,object_06,5,49,0,3,5,forest_7,2,memory-2step-stake-s,505,1393394,0.0-19.0-0.0-0.5,A5K108EWACHK5,382GHPVPIV7ASJXQ3FB9V025S7G34H,3SBEHTYCWRJ82CRN3RB54F4O032IY6,3,4
6,1,object_08,object_02,919.0,2,2,793.0,0.6666666666666666,2,object_06,5,79,0,2,6,desert_8,2,memory-2step-stake-s,506,1402065,0.0-19.0-0.0-0.6,A5K108EWACHK5,382GHPVPIV7ASJXQ3FB9V025S7G34H,3SBEHTYCWRJ82CRN3RB54F4O032IY6,1,2
7,2,object_03,object_04,1000.0,4,2,547.69999999925,0.8888888888888888,2,object_06,5,119,0,3,8,forest_7,2,memory-2step-stake-s,507,1410700,0.0-19.0-0.0-0.7,A5K108EWACHK5,382GHPVPIV7ASJXQ3FB9V025S7G34H,3SBEHTYCWRJ82CRN3RB54F4O032IY6,3,4
8,4,object_07,object_10,1197.1999999993,8,1,539.80000000075,0.6666666666666666,2,object_06,5,149,0,2,6,restaurant_3,2,memory-2step-stake-s,508,1419108,0.0-19.0-0.0-0.8,A5K108EWACHK5,382GHPVPIV7ASJXQ3FB9V025S7G34H,3SBEHTYCWRJ82CRN3RB54F4O032IY6,8,7
9,2,object_04,object_03,990.89999999851,4,1,400.09999999776,0.5555555555555556,2,object_06,5,174,0,1,5,forest_5,2,memory-2step-stake-s,509,1427279,0.0-19.0-0.0-0.9,A5K108EWACHK5,382GHPVPIV7ASJXQ3FB9V025S7G34H,3SBEHTYCWRJ82CRN3RB54F4O032IY6,4,3
10,1,object_08,object_02,927.60000000149,2,2,444.09999999776,0.5555555555555556,2,object_06,5,199,0,1,5,desert_6,2,memory-2step-stake-s,510,1435496,0.0-19.0-0.0-0.10,A5K108EWACHK5,382GHPVPIV7ASJXQ3FB9V025S7G34H,3SBEHTYCWRJ82CRN3RB54F4O032IY6,1,2
11,3,object_09,object_01,1162.5,5,1,687.0,0.1111111111111111,1,object_05,1,200,0,1,5,library_1,2,memory-2step-stake-s,511,1443534,0.0-19.0-0.0-0.11,A5K108EWACHK5,382GHPVPIV7ASJXQ3FB9V025S7G34H,3SBEHTYCWRJ82CRN3RB54F4O032IY6,5,6
12,1,object_02,object_08,1010.8999999985,2,1,504.40000000224,0.8888888888888888,2,object_06,1,208,0,1,8,desert_3,2,memory-2step-stake-s,512,1452116,0.0-19.0-0.0-0.12,A5K108EWACHK5,382GHPVPIV7ASJXQ3FB9V025S7G34H,3SBEHTYCWRJ82CRN3RB54F4O032IY6,2,1
13,4,object_10,object_07,1372.1000000015,8,2,694.89999999851,0.8888888888888888,2,object_06,1,216,0,2,8,restaurant_3,2,memory-2step-stake-s,513,1460890,0.0-19.0-0.0-0.13,A5K108EWACHK5,382GHPVPIV7ASJXQ3FB9V025S7G34H,3SBEHTYCWRJ82CRN3RB54F4O032IY6,7,8
14,2,object_04,object_03,1166.3000000007,4,1,722.30000000075,0.6666666666666666,2,object_06,5,246,0,3,6,forest_3,2,memory-2step-stake-s,514,1469479,0.0-19.0-0.0-0.14,A5K108EWACHK5,382GHPVPIV7ASJXQ3FB9V025S7G34H,3SBEHTYCWRJ82CRN3RB54F4O032IY6,4,3
15,2,object_03,object_04,1085.1999999993,4,2,550.80000000075,0.4444444444444444,2,object_06,5,266,0,4,4,forest_3,2,memory-2step-stake-s,515,1477704,0.0-19.0-0.0-0.15,A5K108EWACHK5,382GHPVPIV7ASJXQ3FB9V025S7G34H,3SBEHTYCWRJ82CRN3RB54F4O032IY6,3,4
16,3,object_01,object_09,1309.0,6,1,707.19999999925,0.5555555555555556,2,object_06,1,271,0,6,5,library_5,2,memory-2step-stake-s,516,1486190,0.0-19.0-0.0-0.16,A5K108EWACHK5,382GHPVPIV7ASJXQ3FB9V025S7G34H,3SBEHTYCWRJ82CRN3RB54F4O032IY6,6,5
17,4,object_07,object_10,1082.3999999985,7,2,566.19999999925,0.6666666666666666,1,object_05,5,301,0,6,7,restaurant_3,2,memory-2step-stake-s,517,1494630,0.0-19.0-0.0-0.17,A5K108EWACHK5,382GHPVPIV7ASJXQ3FB9V025S7G34H,3SBEHTYCWRJ82CRN3RB54F4O032IY6,8,7
18,2,object_04,object_03,981.19999999925,3,2,-1.0,0.0,1,object_05,5,301,0,8,6,forest_4,2,memory-2step-stake-s,518,1503184,0.0-19.0-0.0-0.18,A5K108EWACHK5,382GHPVPIV7ASJXQ3FB9V025S7G34H,3SBEHTYCWRJ82CRN3RB54F4O032IY6,4,3
19,3,object_09,object_01,1339.799999997,5,1,574.30000000075,1.0,1,object_05,1,310,0,9,3,library_1,2,memory-2step-stake-s,519,1511950,0.0-19.0-0.0-0.19,A5K108EWACHK5,382GHPVPIV7ASJXQ3FB9V025S7G34H,3SBEHTYCWRJ82CRN3RB54F4O032IY6,5,6
20,2,object_03,object_04,1051.9000000022,3,1,617.5,0.5555555555555556,1,object_05,1,315,0,5,5,forest_5,2,memory-2step-stake-s,520,1520350,0.0-19.0-0.0-0.20,A5K108EWACHK5,382GHPVPIV7ASJXQ3FB9V025S7G34H,3SBEHTYCWRJ82CRN3RB54F4O032IY6,3,4
21,4,object_07,object_10,1208.1000000015,7,2,684.10000000149,0.4444444444444444,1,object_05,5,335,0,4,6,restaurant_3,2,memory-2step-stake-s,521,1528701,0.0-19.0-0.0-0.21,A5K108EWACHK5,382GHPVPIV7ASJXQ3FB9V025S7G34H,3SBEHTYCWRJ82CRN3RB54F4O032IY6,8,7
22,4,object_07,object_10,1370.5999999978,8,1,480.0,0.7777777777777778,2,object_06,5,370,0,0,7,restaurant_5,2,memory-2step-stake-s,522,1537162,0.0-19.0-0.0-0.22,A5K108EWACHK5,382GHPVPIV7ASJXQ3FB9V025S7G34H,3SBEHTYCWRJ82CRN3RB54F4O032IY6,8,7
23,4,object_07,object_10,1159.8999999985,8,1,623.30000000075,0.6666666666666666,2,object_06,1,376,0,4,6,restaurant_7,2,memory-2step-stake-s,523,1545670,0.0-19.0-0.0-0.23,A5K108EWACHK5,382GHPVPIV7ASJXQ3FB9V025S7G34H,3SBEHTYCWRJ82CRN3RB54F4O032IY6,8,7
24,3,object_09,object_01,1291.3000000007,6,2,781.10000000149,0.3333333333333333,2,object_06,1,379,0,4,3,library_6,2,memory-2step-stake-s,524,1554018,0.0-19.0-0.0-0.24,A5K108EWACHK5,382GHPVPIV7ASJXQ3FB9V025S7G34H,3SBEHTYCWRJ82CRN3RB54F4O032IY6,5,6
25,3,object_01,object_09,1414.8000000007,5,2,776.60000000149,0.3333333333333333,1,object_05,1,382,0,3,5,library_5,2,memory-2step-stake-s,525,1562368,0.0-19.0-0.0-0.25,A5K108EWACHK5,382GHPVPIV7ASJXQ3FB9V025S7G34H,3SBEHTYCWRJ82CRN3RB54F4O032IY6,6,5
26,2,object_04,object_03,1012.3000000007,3,2,798.39999999851,0.3333333333333333,1,object_05,5,397,0,3,8,forest_5,2,memory-2step-stake-s,526,1570733,0.0-19.0-0.0-0.26,A5K108EWACHK5,382GHPVPIV7ASJXQ3FB9V025S7G34H,3SBEHTYCWRJ82CRN3RB54F4O032IY6,4,3
27,3,object_01,object_09,965.60000000149,6,1,657.30000000075,1.0,2,object_06,1,406,0,4,9,library_5,2,memory-2step-stake-s,527,1579589,0.0-19.0-0.0-0.27,A5K108EWACHK5,382GHPVPIV7ASJXQ3FB9V025S7G34H,3SBEHTYCWRJ82CRN3RB54F4O032IY6,6,5
28,4,object_10,object_07,1169.1999999993,7,1,531.39999999851,0.3333333333333333,1,object_05,1,409,0,3,7,restaurant_7,2,memory-2step-stake-s,528,1587700,0.0-19.0-0.0-0.28,A5K108EWACHK5,382GHPVPIV7ASJXQ3FB9V025S7G34H,3SBEHTYCWRJ82CRN3RB54F4O032IY6,7,8
29,2,object_04,object_03,1018.0,3,2,-1.0,0.0,1,object_05,1,409,0,4,7,forest_5,2,memory-2step-stake-s,529,1596246,0.0-19.0-0.0-0.29,A5K108EWACHK5,382GHPVPIV7ASJXQ3FB9V025S7G34H,3SBEHTYCWRJ82CRN3RB54F4O032IY6,4,3
30,2,object_03,object_04,847.0,3,1,492.59999999776,0.3333333333333333,1,object_05,5,424,0,3,5,forest_7,2,memory-2step-stake-s,530,1604310,0.0-19.0-0.0-0.30,A5K108EWACHK5,382GHPVPIV7ASJXQ3FB9V025S7G34H,3SBEHTYCWRJ82CRN3RB54F4O032IY6,3,4
31,4,object_07,object_10,1379.0999999978,7,2,568.10000000149,0.2222222222222222,1,object_05,1,426,0,2,8,restaurant_7,2,memory-2step-stake-s,531,1612342,0.0-19.0-0.0-0.31,A5K108EWACHK5,382GHPVPIV7ASJXQ3FB9V025S7G34H,3SBEHTYCWRJ82CRN3RB54F4O032IY6,8,7
32,3,object_09,object_01,1035.3000000007,6,2,-1.0,0.0,2,object_06,5,426,0,4,6,library_6,2,memory-2step-stake-s,532,1620903,0.0-19.0-0.0-0.32,A5K108EWACHK5,382GHPVPIV7ASJXQ3FB9V025S7G34H,3SBEHTYCWRJ82CRN3RB54F4O032IY6,5,6
33,2,object_03,object_04,1046.6999999993,3,1,814.79999999702,0.2222222222222222,1,object_05,5,436,0,2,6,forest_4,2,memory-2step-stake-s,533,1629177,0.0-19.0-0.0-0.33,A5K108EWACHK5,382GHPVPIV7ASJXQ3FB9V025S7G34H,3SBEHTYCWRJ82CRN3RB54F4O032IY6,3,4
34,1,object_02,object_08,917.10000000149,2,1,725.10000000149,0.4444444444444444,2,object_06,5,456,0,5,4,desert_8,2,memory-2step-stake-s,534,1637581,0.0-19.0-0.0-0.34,A5K108EWACHK5,382GHPVPIV7ASJXQ3FB9V025S7G34H,3SBEHTYCWRJ82CRN3RB54F4O032IY6,2,1
35,4,object_07,object_10,874.0,8,1,849.10000000149,0.1111111111111111,2,object_06,1,457,0,4,1,restaurant_7,2,memory-2step-stake-s,535,1645784,0.0-19.0-0.0-0.35,A5K108EWACHK5,382GHPVPIV7ASJXQ3FB9V025S7G34H,3SBEHTYCWRJ82CRN3RB54F4O032IY6,8,7
36,1,object_02,object_08,847.90000000224,2,1,781.10000000149,0.1111111111111111,2,object_06,5,462,0,4,1,desert_3,2,memory-2step-stake-s,536,1653926,0.0-19.0-0.0-0.36,A5K108EWACHK5,382GHPVPIV7ASJXQ3FB9V025S7G34H,3SBEHTYCWRJ82CRN3RB54F4O032IY6,2,1
37,3,object_01,object_09,1255.5,5,2,739.0,0.3333333333333333,1,object_05,1,465,0,3,0,library_6,2,memory-2step-stake-s,537,1662248,0.0-19.0-0.0-0.37,A5K108EWACHK5,382GHPVPIV7ASJXQ3FB9V025S7G34H,3SBEHTYCWRJ82CRN3RB54F4O032IY6,6,5
38,3,object_01,object_09,946.60000000149,5,2,1153.1000000015,0.1111111111111111,1,object_05,1,466,0,1,1,library_1,2,memory-2step-stake-s,538,1670766,0.0-19.0-0.0-0.38,A5K108EWACHK5,382GHPVPIV7ASJXQ3FB9V025S7G34H,3SBEHTYCWRJ82CRN3RB54F4O032IY6,6,5
39,2,object_04,object_03,929.89999999851,3,2,620.80000000075,0.1111111111111111,1,object_05,5,471,0,1,1,forest_3,2,memory-2step-stake-s,539,1678751,0.0-19.0-0.0-0.39,A5K108EWACHK5,382GHPVPIV7ASJXQ3FB9V025S7G34H,3SBEHTYCWRJ82CRN3RB54F4O032IY6,4,3
40,4,object_07,object_10,1211.799999997,7,2,707.60000000149,0.2222222222222222,1,object_05,1,473,0,2,1,restaurant_7,2,memory-2step-stake-s,540,1686934,0.0-19.0-0.0-0.40,A5K108EWACHK5,382GHPVPIV7ASJXQ3FB9V025S7G34H,3SBEHTYCWRJ82CRN3RB54F4O032IY6,8,7
41,1,object_08,object_02,1336.5,2,2,653.0,0.1111111111111111,2,object_06,1,474,0,1,1,desert_8,2,memory-2step-stake-s,541,1694963,0.0-19.0-0.0-0.41,A5K108EWACHK5,382GHPVPIV7ASJXQ3FB9V025S7G34H,3SBEHTYCWRJ82CRN3RB54F4O032IY6,1,2
42,1,object_08,object_02,709.89999999851,2,2,633.69999999925,0.1111111111111111,2,object_06,5,479,0,0,1,desert_6,2,memory-2step-stake-s,542,1702969,0.0-19.0-0.0-0.42,A5K108EWACHK5,382GHPVPIV7ASJXQ3FB9V025S7G34H,3SBEHTYCWRJ82CRN3RB54F4O032IY6,1,2
43,4,object_10,object_07,1004.6999999993,7,1,750.30000000075,0.2222222222222222,1,object_05,1,481,0,2,1,restaurant_3,2,memory-2step-stake-s,543,1711187,0.0-19.0-0.0-0.43,A5K108EWACHK5,382GHPVPIV7ASJXQ3FB9V025S7G34H,3SBEHTYCWRJ82CRN3RB54F4O032IY6,7,8
44,2,object_03,object_04,881.39999999851,3,1,568.90000000224,0.0,1,object_05,5,481,0,0,2,forest_3,2,memory-2step-stake-s,544,1719013,0.0-19.0-0.0-0.44,A5K108EWACHK5,382GHPVPIV7ASJXQ3FB9V025S7G34H,3SBEHTYCWRJ82CRN3RB54F4O032IY6,3,4
45,3,object_01,object_09,1053.8000000007,5,2,639.79999999702,0.2222222222222222,1,object_05,1,483,0,2,2,library_4,2,memory-2step-stake-s,545,1727124,0.0-19.0-0.0-0.45,A5K108EWACHK5,382GHPVPIV7ASJXQ3FB9V025S7G34H,3SBEHTYCWRJ82CRN3RB54F4O032IY6,6,5
46,2,object_04,object_03,961.19999999925,3,2,980.20000000298,0.1111111111111111,1,object_05,1,484,0,1,0,forest_3,2,memory-2step-stake-s,546,1735471,0.0-19.0-0.0-0.46,A5K108EWACHK5,382GHPVPIV7ASJXQ3FB9V025S7G34H,3SBEHTYCWRJ82CRN3RB54F4O032IY6,4,3
47,2,object_04,object_03,1190.0999999978,4,1,556.19999999925,0.2222222222222222,2,object_06,1,486,0,2,2,forest_7,2,memory-2step-stake-s,547,1743487,0.0-19.0-0.0-0.47,A5K108EWACHK5,382GHPVPIV7ASJXQ3FB9V025S7G34H,3SBEHTYCWRJ82CRN3RB54F4O032IY6,4,3
48,1,object_02,object_08,750.90000000224,2,1,-1.0,0.0,2,object_06,5,486,0,2,4,desert_6,2,memory-2step-stake-s,548,1752056,0.0-19.0-0.0-0.48,A5K108EWACHK5,382GHPVPIV7ASJXQ3FB9V025S7G34H,3SBEHTYCWRJ82CRN3RB54F4O032IY6,2,1
49,3,object_09,object_01,1183.8000000007,5,1,574.30000000075,0.2222222222222222,1,object_05,1,488,0,2,7,library_4,2,memory-2step-stake-s,549,1760105,0.0-19.0-0.0-0.49,A5K108EWACHK5,382GHPVPIV7ASJXQ3FB9V025S7G34H,3SBEHTYCWRJ82CRN3RB54F4O032IY6,5,6
50,4,object_07,object_10,908.40000000224,8,1,-1.0,0.0,2,object_06,1,488,0,1,4,restaurant_7,2,memory-2step-stake-s,550,1768669,0.0-19.0-0.0-0.50,A5K108EWACHK5,382GHPVPIV7ASJXQ3FB9V025S7G34H,3SBEHTYCWRJ82CRN3RB54F4O032IY6,8,7
51,3,object_09,object_01,837.89999999851,6,2,845.90000000224,0.5555555555555556,2,object_06,5,513,0,1,5,library_5,2,memory-2step-stake-s,551,1777297,0.0-19.0-0.0-0.51,A5K108EWACHK5,382GHPVPIV7ASJXQ3FB9V025S7G34H,3SBEHTYCWRJ82CRN3RB54F4O032IY6,5,6
52,2,object_04,object_03,911.70000000298,4,1,652.0,0.4444444444444444,2,object_06,1,517,0,2,4,forest_3,2,memory-2step-stake-s,552,1785631,0.0-19.0-0.0-0.52,A5K108EWACHK5,382GHPVPIV7ASJXQ3FB9V025S7G34H,3SBEHTYCWRJ82CRN3RB54F4O032IY6,4,3
53,3,object_01,object_09,1405.9000000022,6,1,1144.1999999993,0.7777777777777778,2,object_06,1,524,0,2,7,library_1,2,memory-2step-stake-s,553,1794772,0.0-19.0-0.0-0.53,A5K108EWACHK5,382GHPVPIV7ASJXQ3FB9V025S7G34H,3SBEHTYCWRJ82CRN3RB54F4O032IY6,6,5
54,2,object_04,object_03,1147.6999999993,4,1,750.89999999851,0.7777777777777778,2,object_06,5,559,0,2,7,forest_4,2,memory-2step-stake-s,554,1803530,0.0-19.0-0.0-0.54,A5K108EWACHK5,382GHPVPIV7ASJXQ3FB9V025S7G34H,3SBEHTYCWRJ82CRN3RB54F4O032IY6,4,3
55,4,object_10,object_07,1117.8000000007,8,2,1380.5,0.5555555555555556,2,object_06,1,564,0,4,5,restaurant_5,2,memory-2step-stake-s,555,1812708,0.0-19.0-0.0-0.55,A5K108EWACHK5,382GHPVPIV7ASJXQ3FB9V025S7G34H,3SBEHTYCWRJ82CRN3RB54F4O032IY6,7,8
56,1,object_08,object_02,742.10000000149,1,1,812.09999999776,0.4444444444444444,1,object_05,5,584,0,4,5,desert_8,2,memory-2step-stake-s,556,1821204,0.0-19.0-0.0-0.56,A5K108EWACHK5,382GHPVPIV7ASJXQ3FB9V025S7G34H,3SBEHTYCWRJ82CRN3RB54F4O032IY6,1,2
57,3,object_01,object_09,972.29999999702,5,2,935.0,0.3333333333333333,1,object_05,1,587,0,3,3,library_1,2,memory-2step-stake-s,557,1829719,0.0-19.0-0.0-0.57,A5K108EWACHK5,382GHPVPIV7ASJXQ3FB9V025S7G34H,3SBEHTYCWRJ82CRN3RB54F4O032IY6,6,5
58,3,object_01,object_09,782.39999999851,6,1,721.40000000224,0.4444444444444444,2,object_06,1,591,0,2,4,library_1,2,memory-2step-stake-s,558,1838140,0.0-19.0-0.0-0.58,A5K108EWACHK5,382GHPVPIV7ASJXQ3FB9V025S7G34H,3SBEHTYCWRJ82CRN3RB54F4O032IY6,6,5
59,2,object_04,object_03,684.69999999925,4,1,-1.0,0.0,2,object_06,5,591,0,1,4,forest_3,2,memory-2step-stake-s,559,1846705,0.0-19.0-0.0-0.59,A5K108EWACHK5,382GHPVPIV7ASJXQ3FB9V025S7G34H,3SBEHTYCWRJ82CRN3RB54F4O032IY6,4,3
60,2,object_03,object_04,1062.4000000022,4,2,802.5,0.7777777777777778,2,object_06,5,626,0,1,7,forest_4,2,memory-2step-stake-s,560,1855516,0.0-19.0-0.0-0.60,A5K108EWACHK5,382GHPVPIV7ASJXQ3FB9V025S7G34H,3SBEHTYCWRJ82CRN3RB54F4O032IY6,3,4
61,4,object_10,object_07,902.39999999851,8,2,692.30000000075,0.6666666666666666,2,object_06,5,656,0,2,6,restaurant_5,2,memory-2step-stake-s,561,1864087,0.0-19.0-0.0-0.61,A5K108EWACHK5,382GHPVPIV7ASJXQ3FB9V025S7G34H,3SBEHTYCWRJ82CRN3RB54F4O032IY6,7,8
62,4,object_10,object_07,710.0,8,2,1091.1999999993,0.6666666666666666,2,object_06,1,662,0,2,6,restaurant_5,2,memory-2step-stake-s,562,1873082,0.0-19.0-0.0-0.62,A5K108EWACHK5,382GHPVPIV7ASJXQ3FB9V025S7G34H,3SBEHTYCWRJ82CRN3RB54F4O032IY6,7,8
63,2,object_04,object_03,-1.0,-1,-1,-1.0,0.0,-,0,5,662,0,1,4,forest_4,2,memory-2step-stake-s,563,1879632,0.0-19.0-0.0-0.63,A5K108EWACHK5,382GHPVPIV7ASJXQ3FB9V025S7G34H,3SBEHTYCWRJ82CRN3RB54F4O032IY6,4,3
64,3,object_09,object_01,722.09999999776,5,1,-1.0,0.0,1,object_05,1,662,0,0,6,library_6,2,memory-2step-stake-s,564,1888196,0.0-19.0-0.0-0.64,A5K108EWACHK5,382GHPVPIV7ASJXQ3FB9V025S7G34H,3SBEHTYCWRJ82CRN3RB54F4O032IY6,5,6
65,2,object_04,object_03,566.09999999776,4,1,607.69999999925,0.3333333333333333,2,object_06,5,677,0,1,3,forest_3,2,memory-2step-stake-s,565,1896390,0.0-19.0-0.0-0.65,A5K108EWACHK5,382GHPVPIV7ASJXQ3FB9V025S7G34H,3SBEHTYCWRJ82CRN3RB54F4O032IY6,4,3
66,4,object_07,object_10,860.10000000149,8,1,807.30000000075,0.4444444444444444,2,object_06,1,681,0,2,4,restaurant_7,2,memory-2step-stake-s,566,1904887,0.0-19.0-0.0-0.66,A5K108EWACHK5,382GHPVPIV7ASJXQ3FB9V025S7G34H,3SBEHTYCWRJ82CRN3RB54F4O032IY6,8,7
67,2,object_03,object_04,763.29999999702,4,2,659.40000000224,0.3333333333333333,2,object_06,5,696,0,1,3,forest_5,2,memory-2step-stake-s,567,1913131,0.0-19.0-0.0-0.67,A5K108EWACHK5,382GHPVPIV7ASJXQ3FB9V025S7G34H,3SBEHTYCWRJ82CRN3RB54F4O032IY6,3,4
68,3,object_01,object_09,744.0,6,1,806.79999999702,0.7777777777777778,2,object_06,1,703,0,4,7,library_1,2,memory-2step-stake-s,568,1921949,0.0-19.0-0.0-0.68,A5K108EWACHK5,382GHPVPIV7ASJXQ3FB9V025S7G34H,3SBEHTYCWRJ82CRN3RB54F4O032IY6,6,5
69,4,object_07,object_10,642.40000000224,8,1,800.5,0.8888888888888888,2,object_06,1,711,0,3,8,restaurant_7,2,memory-2step-stake-s,569,1930871,0.0-19.0-0.0-0.69,A5K108EWACHK5,382GHPVPIV7ASJXQ3FB9V025S7G34H,3SBEHTYCWRJ82CRN3RB54F4O032IY6,8,7
70,4,object_10,object_07,669.80000000075,8,2,659.5,0.6666666666666666,2,object_06,1,717,0,2,6,restaurant_5,2,memory-2step-stake-s,570,1939427,0.0-19.0-0.0-0.70,A5K108EWACHK5,382GHPVPIV7ASJXQ3FB9V025S7G34H,3SBEHTYCWRJ82CRN3RB54F4O032IY6,7,8
71,3,object_09,object_01,639.89999999851,5,1,615.39999999851,0.2222222222222222,1,object_05,1,719,0,2,5,library_6,2,memory-2step-stake-s,571,1947521,0.0-19.0-0.0-0.71,A5K108EWACHK5,382GHPVPIV7ASJXQ3FB9V025S7G34H,3SBEHTYCWRJ82CRN3RB54F4O032IY6,5,6
72,4,object_10,object_07,595.59999999776,8,2,651.29999999702,0.4444444444444444,2,object_06,1,723,0,3,4,restaurant_5,2,memory-2step-stake-s,572,1955878,0.0-19.0-0.0-0.72,A5K108EWACHK5,382GHPVPIV7ASJXQ3FB9V025S7G34H,3SBEHTYCWRJ82CRN3RB54F4O032IY6,7,8
73,2,object_03,object_04,917.69999999925,4,2,847.0,0.2222222222222222,2,object_06,5,733,0,4,2,forest_4,2,memory-2step-stake-s,573,1964203,0.0-19.0-0.0-0.73,A5K108EWACHK5,382GHPVPIV7ASJXQ3FB9V025S7G34H,3SBEHTYCWRJ82CRN3RB54F4O032IY6,3,4
74,2,object_04,object_03,786.89999999851,3,2,777.0,0.4444444444444444,1,object_05,5,753,0,4,4,forest_5,2,memory-2step-stake-s,574,1972674,0.0-19.0-0.0-0.74,A5K108EWACHK5,382GHPVPIV7ASJXQ3FB9V025S7G34H,3SBEHTYCWRJ82CRN3RB54F4O032IY6,4,3
75,1,object_08,object_02,795.90000000224,1,1,1361.1999999993,0.5555555555555556,1,object_05,1,758,0,5,4,desert_5,2,memory-2step-stake-s,575,1981821,0.0-19.0-0.0-0.75,A5K108EWACHK5,382GHPVPIV7ASJXQ3FB9V025S7G34H,3SBEHTYCWRJ82CRN3RB54F4O032IY6,1,2
76,4,object_07,object_10,660.5,7,2,551.5,0.8888888888888888,1,object_05,1,766,0,8,3,restaurant_8,2,memory-2step-stake-s,576,1990499,0.0-19.0-0.0-0.76,A5K108EWACHK5,382GHPVPIV7ASJXQ3FB9V025S7G34H,3SBEHTYCWRJ82CRN3RB54F4O032IY6,8,7
77,1,object_02,object_08,779.19999999925,2,1,788.39999999851,0.2222222222222222,2,object_06,5,776,0,8,2,desert_3,2,memory-2step-stake-s,577,1998759,0.0-19.0-0.0-0.77,A5K108EWACHK5,382GHPVPIV7ASJXQ3FB9V025S7G34H,3SBEHTYCWRJ82CRN3RB54F4O032IY6,2,1
78,2,object_04,object_03,744.80000000075,3,2,644.19999999925,0.8888888888888888,1,object_05,5,816,0,8,1,forest_7,2,memory-2step-stake-s,578,2007532,0.0-19.0-0.0-0.78,A5K108EWACHK5,382GHPVPIV7ASJXQ3FB9V025S7G34H,3SBEHTYCWRJ82CRN3RB54F4O032IY6,4,3
79,1,object_08,object_02,1077.8999999985,1,1,778.39999999851,1.0,1,object_05,5,861,0,9,4,desert_6,2,memory-2step-stake-s,579,2016538,0.0-19.0-0.0-0.79,A5K108EWACHK5,382GHPVPIV7ASJXQ3FB9V025S7G34H,3SBEHTYCWRJ82CRN3RB54F4O032IY6,1,2
80,3,object_01,object_09,878.40000000224,5,2,844.60000000149,0.7777777777777778,1,object_05,1,868,0,7,0,library_6,2,memory-2step-stake-s,580,2025409,0.0-19.0-0.0-0.80,A5K108EWACHK5,382GHPVPIV7ASJXQ3FB9V025S7G34H,3SBEHTYCWRJ82CRN3RB54F4O032IY6,6,5
81,4,object_10,object_07,955.30000000075,7,1,-1.0,0.0,1,object_05,1,868,0,8,0,restaurant_8,2,memory-2step-stake-s,581,2033977,0.0-19.0-0.0-0.81,A5K108EWACHK5,382GHPVPIV7ASJXQ3FB9V025S7G34H,3SBEHTYCWRJ82CRN3RB54F4O032IY6,7,8
82,2,object_03,object_04,857.69999999925,3,1,441.5,0.5555555555555556,1,object_05,5,893,0,5,2,forest_4,2,memory-2step-stake-s,582,2042230,0.0-19.0-0.0-0.82,A5K108EWACHK5,382GHPVPIV7ASJXQ3FB9V025S7G34H,3SBEHTYCWRJ82CRN3RB54F4O032IY6,3,4
83,3,object_09,object_01,666.5,5,1,937.69999999925,0.8888888888888888,1,object_05,1,901,0,8,0,library_4,2,memory-2step-stake-s,583,2051291,0.0-19.0-0.0-0.83,A5K108EWACHK5,382GHPVPIV7ASJXQ3FB9V025S7G34H,3SBEHTYCWRJ82CRN3RB54F4O032IY6,5,6
84,4,object_07,object_10,890.80000000075,7,2,742.80000000075,1.0,1,object_05,1,910,0,9,0,restaurant_7,2,memory-2step-stake-s,584,2060266,0.0-19.0-0.0-0.84,A5K108EWACHK5,382GHPVPIV7ASJXQ3FB9V025S7G34H,3SBEHTYCWRJ82CRN3RB54F4O032IY6,8,7
85,2,object_03,object_04,784.10000000149,3,1,742.30000000075,0.5555555555555556,1,object_05,5,935,0,5,0,forest_4,2,memory-2step-stake-s,585,2068807,0.0-19.0-0.0-0.85,A5K108EWACHK5,382GHPVPIV7ASJXQ3FB9V025S7G34H,3SBEHTYCWRJ82CRN3RB54F4O032IY6,3,4
86,2,object_04,object_03,892.89999999851,3,2,708.90000000224,0.6666666666666666,1,object_05,1,941,0,6,4,forest_3,2,memory-2step-stake-s,586,2077431,0.0-19.0-0.0-0.86,A5K108EWACHK5,382GHPVPIV7ASJXQ3FB9V025S7G34H,3SBEHTYCWRJ82CRN3RB54F4O032IY6,4,3
87,1,object_08,object_02,864.30000000075,1,1,842.60000000149,0.1111111111111111,1,object_05,1,942,0,1,5,desert_6,2,memory-2step-stake-s,587,2085659,0.0-19.0-0.0-0.87,A5K108EWACHK5,382GHPVPIV7ASJXQ3FB9V025S7G34H,3SBEHTYCWRJ82CRN3RB54F4O032IY6,1,2
88,3,object_01,object_09,738.30000000075,5,2,885.70000000298,0.2222222222222222,1,object_05,5,952,0,2,5,library_6,2,memory-2step-stake-s,588,2094025,0.0-19.0-0.0-0.88,A5K108EWACHK5,382GHPVPIV7ASJXQ3FB9V025S7G34H,3SBEHTYCWRJ82CRN3RB54F4O032IY6,6,5
89,1,object_02,object_08,759.80000000075,1,2,502.09999999776,0.2222222222222222,1,object_05,5,962,0,2,5,desert_5,2,memory-2step-stake-s,589,2102011,0.0-19.0-0.0-0.89,A5K108EWACHK5,382GHPVPIV7ASJXQ3FB9V025S7G34H,3SBEHTYCWRJ82CRN3RB54F4O032IY6,2,1
90,2,object_03,object_04,993.10000000149,3,1,796.80000000075,0.5555555555555556,1,object_05,5,987,0,5,3,forest_5,2,memory-2step-stake-s,590,2110604,0.0-19.0-0.0-0.90,A5K108EWACHK5,382GHPVPIV7ASJXQ3FB9V025S7G34H,3SBEHTYCWRJ82CRN3RB54F4O032IY6,3,4
91,1,object_02,object_08,784.89999999851,2,1,646.5,0.8888888888888888,2,object_06,1,995,0,4,8,desert_8,2,memory-2step-stake-s,591,2119390,0.0-19.0-0.0-0.91,A5K108EWACHK5,382GHPVPIV7ASJXQ3FB9V025S7G34H,3SBEHTYCWRJ82CRN3RB54F4O032IY6,2,1
92,1,object_02,object_08,630.80000000075,2,1,625.19999999925,0.7777777777777778,2,object_06,5,1030,0,2,7,desert_5,2,memory-2step-stake-s,592,2128042,0.0-19.0-0.0-0.92,A5K108EWACHK5,382GHPVPIV7ASJXQ3FB9V025S7G34H,3SBEHTYCWRJ82CRN3RB54F4O032IY6,2,1
93,4,object_07,object_10,801.39999999851,8,1,764.80000000075,0.4444444444444444,2,object_06,1,1034,0,1,4,restaurant_5,2,memory-2step-stake-s,593,2136510,0.0-19.0-0.0-0.93,A5K108EWACHK5,382GHPVPIV7ASJXQ3FB9V025S7G34H,3SBEHTYCWRJ82CRN3RB54F4O032IY6,8,7
94,2,object_04,object_03,860.59999999776,4,1,880.80000000075,0.3333333333333333,2,object_06,5,1049,0,3,3,forest_3,2,memory-2step-stake-s,594,2144986,0.0-19.0-0.0-0.94,A5K108EWACHK5,382GHPVPIV7ASJXQ3FB9V025S7G34H,3SBEHTYCWRJ82CRN3RB54F4O032IY6,4,3
95,4,object_10,object_07,776.09999999776,8,2,701.19999999925,0.3333333333333333,2,object_06,1,1052,0,1,3,restaurant_7,2,memory-2step-stake-s,595,2153287,0.0-19.0-0.0-0.95,A5K108EWACHK5,382GHPVPIV7ASJXQ3FB9V025S7G34H,3SBEHTYCWRJ82CRN3RB54F4O032IY6,7,8
96,3,object_09,object_01,698.10000000149,5,1,598.5,0.1111111111111111,1,object_05,1,1053,0,1,3,library_5,2,memory-2step-stake-s,596,2161272,0.0-19.0-0.0-0.96,A5K108EWACHK5,382GHPVPIV7ASJXQ3FB9V025S7G34H,3SBEHTYCWRJ82CRN3RB54F4O032IY6,5,6
97,1,object_08,object_02,757.80000000075,1,1,710.80000000075,0.4444444444444444,1,object_05,5,1073,0,4,2,desert_8,2,memory-2step-stake-s,597,2169692,0.0-19.0-0.0-0.97,A5K108EWACHK5,382GHPVPIV7ASJXQ3FB9V025S7G34H,3SBEHTYCWRJ82CRN3RB54F4O032IY6,1,2
98,1,object_02,object_08,640.30000000075,2,1,632.19999999925,0.2222222222222222,2,object_06,5,1083,0,7,2,desert_3,2,memory-2step-stake-s,598,2177812,0.0-19.0-0.0-0.98,A5K108EWACHK5,382GHPVPIV7ASJXQ3FB9V025S7G34H,3SBEHTYCWRJ82CRN3RB54F4O032IY6,2,1
99,4,object_10,object_07,1056.6999999993,8,2,678.10000000149,0.2222222222222222,2,object_06,1,1085,0,5,2,restaurant_5,2,memory-2step-stake-s,599,2185989,0.0-19.0-0.0-0.99,A5K108EWACHK5,382GHPVPIV7ASJXQ3FB9V025S7G34H,3SBEHTYCWRJ82CRN3RB54F4O032IY6,7,8
100,3,object_01,object_09,827.19999999925,6,1,756.19999999925,0.3333333333333333,2,object_06,1,1088,0,4,3,library_4,2,memory-2step-stake-s,600,2194352,0.0-19.0-0.0-0.100,A5K108EWACHK5,382GHPVPIV7ASJXQ3FB9V025S7G34H,3SBEHTYCWRJ82CRN3RB54F4O032IY6,6,5
101,2,object_04,object_03,862.89999999851,3,2,669.29999999702,0.5555555555555556,1,object_05,1,1093,0,5,1,forest_4,2,memory-2step-stake-s,601,2202842,0.0-19.0-0.0-0.101,A5K108EWACHK5,382GHPVPIV7ASJXQ3FB9V025S7G34H,3SBEHTYCWRJ82CRN3RB54F4O032IY6,4,3
102,4,object_07,object_10,1006.1000000015,7,2,619.59999999776,0.4444444444444444,1,object_05,1,1097,0,4,0,restaurant_5,2,memory-2step-stake-s,602,2211173,0.0-19.0-0.0-0.102,A5K108EWACHK5,382GHPVPIV7ASJXQ3FB9V025S7G34H,3SBEHTYCWRJ82CRN3RB54F4O032IY6,8,7
103,4,object_07,object_10,866.59999999776,7,2,912.69999999925,0.1111111111111111,1,object_05,5,1102,0,1,4,restaurant_5,2,memory-2step-stake-s,603,2219489,0.0-19.0-0.0-0.103,A5K108EWACHK5,382GHPVPIV7ASJXQ3FB9V025S7G34H,3SBEHTYCWRJ82CRN3RB54F4O032IY6,8,7
104,2,object_04,object_03,738.30000000075,3,2,850.69999999925,0.1111111111111111,1,object_05,5,1107,0,1,7,forest_7,2,memory-2step-stake-s,604,2227726,0.0-19.0-0.0-0.104,A5K108EWACHK5,382GHPVPIV7ASJXQ3FB9V025S7G34H,3SBEHTYCWRJ82CRN3RB54F4O032IY6,4,3
105,4,object_10,object_07,974.60000000149,8,2,931.30000000075,0.7777777777777778,2,object_06,1,1114,0,0,7,restaurant_8,2,memory-2step-stake-s,605,2236705,0.0-19.0-0.0-0.105,A5K108EWACHK5,382GHPVPIV7ASJXQ3FB9V025S7G34H,3SBEHTYCWRJ82CRN3RB54F4O032IY6,7,8
106,3,object_01,object_09,1019.5,6,1,694.29999999702,0.7777777777777778,2,object_06,5,1149,0,2,7,library_6,2,memory-2step-stake-s,606,2245445,0.0-19.0-0.0-0.106,A5K108EWACHK5,382GHPVPIV7ASJXQ3FB9V025S7G34H,3SBEHTYCWRJ82CRN3RB54F4O032IY6,6,5
107,1,object_02,object_08,628.69999999925,2,1,731.19999999925,0.6666666666666666,2,object_06,5,1179,0,3,6,desert_6,2,memory-2step-stake-s,607,2254108,0.0-19.0-0.0-0.107,A5K108EWACHK5,382GHPVPIV7ASJXQ3FB9V025S7G34H,3SBEHTYCWRJ82CRN3RB54F4O032IY6,2,1
108,4,object_10,object_07,737.99999999627,8,2,647.30000000447,0.6666666666666666,2,object_06,1,1185,0,1,6,restaurant_7,2,memory-2step-stake-s,608,2262690,0.0-19.0-0.0-0.108,A5K108EWACHK5,382GHPVPIV7ASJXQ3FB9V025S7G34H,3SBEHTYCWRJ82CRN3RB54F4O032IY6,7,8
109,3,object_09,object_01,761.29999999702,6,2,1275.200000003,0.8888888888888888,2,object_06,1,1193,0,2,8,library_1,2,memory-2step-stake-s,609,2272108,0.0-19.0-0.0-0.109,A5K108EWACHK5,382GHPVPIV7ASJXQ3FB9V025S7G34H,3SBEHTYCWRJ82CRN3RB54F4O032IY6,5,6
110,4,object_07,object_10,868.10000000149,8,1,692.10000000149,0.5555555555555556,2,object_06,1,1198,0,6,5,restaurant_8,2,memory-2step-stake-s,610,2280611,0.0-19.0-0.0-0.110,A5K108EWACHK5,382GHPVPIV7ASJXQ3FB9V025S7G34H,3SBEHTYCWRJ82CRN3RB54F4O032IY6,8,7
111,1,object_08,object_02,929.10000000149,1,1,577.29999999702,0.6666666666666666,1,object_05,5,1228,0,6,5,desert_6,2,memory-2step-stake-s,611,2289070,0.0-19.0-0.0-0.111,A5K108EWACHK5,382GHPVPIV7ASJXQ3FB9V025S7G34H,3SBEHTYCWRJ82CRN3RB54F4O032IY6,1,2
112,2,object_04,object_03,752.5,3,2,620.19999999553,1.0,1,object_05,5,1273,0,9,5,forest_3,2,memory-2step-stake-s,612,2297858,0.0-19.0-0.0-0.112,A5K108EWACHK5,382GHPVPIV7ASJXQ3FB9V025S7G34H,3SBEHTYCWRJ82CRN3RB54F4O032IY6,4,3
113,2,object_04,object_03,877.79999999702,3,2,1126.700000003,0.8888888888888888,1,object_05,5,1313,0,8,7,forest_7,2,memory-2step-stake-s,613,2307060,0.0-19.0-0.0-0.113,A5K108EWACHK5,382GHPVPIV7ASJXQ3FB9V025S7G34H,3SBEHTYCWRJ82CRN3RB54F4O032IY6,4,3
114,2,object_03,object_04,840.0,3,1,939.0,0.6666666666666666,1,object_05,5,1343,0,6,7,forest_4,2,memory-2step-stake-s,614,2315859,0.0-19.0-0.0-0.114,A5K108EWACHK5,382GHPVPIV7ASJXQ3FB9V025S7G34H,3SBEHTYCWRJ82CRN3RB54F4O032IY6,3,4
115,3,object_09,object_01,715.70000000298,6,2,642.5,1.0,2,object_06,1,1352,0,6,9,library_5,2,memory-2step-stake-s,615,2324681,0.0-19.0-0.0-0.115,A5K108EWACHK5,382GHPVPIV7ASJXQ3FB9V025S7G34H,3SBEHTYCWRJ82CRN3RB54F4O032IY6,5,6
116,1,object_02,object_08,771.09999999404,2,1,-1.0,0.0,2,object_06,5,1352,0,4,8,desert_3,2,memory-2step-stake-s,616,2333225,0.0-19.0-0.0-0.116,A5K108EWACHK5,382GHPVPIV7ASJXQ3FB9V025S7G34H,3SBEHTYCWRJ82CRN3RB54F4O032IY6,2,1
117,2,object_04,object_03,831.29999999702,4,1,635.0,0.4444444444444444,2,object_06,1,1356,0,5,4,forest_7,2,memory-2step-stake-s,617,2341520,0.0-19.0-0.0-0.117,A5K108EWACHK5,382GHPVPIV7ASJXQ3FB9V025S7G34H,3SBEHTYCWRJ82CRN3RB54F4O032IY6,4,3
118,2,object_03,object_04,661.80000000447,4,2,605.0,0.3333333333333333,2,object_06,1,1359,0,6,3,forest_5,2,memory-2step-stake-s,618,2349679,0.0-19.0-0.0-0.118,A5K108EWACHK5,382GHPVPIV7ASJXQ3FB9V025S7G34H,3SBEHTYCWRJ82CRN3RB54F4O032IY6,3,4
119,1,object_08,object_02,827.39999999851,1,1,664.19999999553,0.5555555555555556,1,object_05,1,1364,0,5,3,desert_5,2,memory-2step-stake-s,619,2358107,0.0-19.0-0.0-0.119,A5K108EWACHK5,382GHPVPIV7ASJXQ3FB9V025S7G34H,3SBEHTYCWRJ82CRN3RB54F4O032IY6,1,2
120,1,object_08,object_02,1126.099999994,1,1,749.29999999702,0.4444444444444444,1,object_05,5,1384,0,4,5,desert_8,2,memory-2step-stake-s,620,2366520,0.0-19.0-0.0-0.120,A5K108EWACHK5,382GHPVPIV7ASJXQ3FB9V025S7G34H,3SBEHTYCWRJ82CRN3RB54F4O032IY6,1,2
121,1,object_08,object_02,958.89999999851,1,1,738.39999999851,0.1111111111111111,1,object_05,1,1385,0,1,1,desert_5,2,memory-2step-stake-s,621,2374609,0.0-19.0-0.0-0.121,A5K108EWACHK5,382GHPVPIV7ASJXQ3FB9V025S7G34H,3SBEHTYCWRJ82CRN3RB54F4O032IY6,1,2
122,3,object_09,object_01,868.70000000298,6,2,851.10000000149,0.3333333333333333,2,object_06,1,1388,0,4,3,library_4,2,memory-2step-stake-s,622,2383022,0.0-19.0-0.0-0.122,A5K108EWACHK5,382GHPVPIV7ASJXQ3FB9V025S7G34H,3SBEHTYCWRJ82CRN3RB54F4O032IY6,5,6
123,2,object_03,object_04,869.5,4,2,1007.5,0.4444444444444444,2,object_06,5,1408,0,1,4,forest_4,2,memory-2step-stake-s,623,2391692,0.0-19.0-0.0-0.123,A5K108EWACHK5,382GHPVPIV7ASJXQ3FB9V025S7G34H,3SBEHTYCWRJ82CRN3RB54F4O032IY6,3,4
124,4,object_07,object_10,1143.1000000015,8,1,1030.8999999985,0.5555555555555556,2,object_06,1,1413,0,5,5,restaurant_3,2,memory-2step-stake-s,624,2400496,0.0-19.0-0.0-0.124,A5K108EWACHK5,382GHPVPIV7ASJXQ3FB9V025S7G34H,3SBEHTYCWRJ82CRN3RB54F4O032IY6,8,7
125,3,object_01,object_09,775.0,6,1,758.79999999702,0.2222222222222222,2,object_06,1,1415,0,6,2,library_4,2,memory-2step-stake-s,625,2408720,0.0-19.0-0.0-0.125,A5K108EWACHK5,382GHPVPIV7ASJXQ3FB9V025S7G34H,3SBEHTYCWRJ82CRN3RB54F4O032IY6,6,5
126,4,object_07,object_10,1009.200000003,8,1,853.10000000149,0.2222222222222222,2,object_06,1,1417,0,8,2,restaurant_3,2,memory-2step-stake-s,626,2417033,0.0-19.0-0.0-0.126,A5K108EWACHK5,382GHPVPIV7ASJXQ3FB9V025S7G34H,3SBEHTYCWRJ82CRN3RB54F4O032IY6,8,7
127,3,object_01,object_09,837.70000000298,6,1,668.20000000298,0.3333333333333333,2,object_06,5,1432,0,8,3,library_1,2,memory-2step-stake-s,627,2425266,0.0-19.0-0.0-0.127,A5K108EWACHK5,382GHPVPIV7ASJXQ3FB9V025S7G34H,3SBEHTYCWRJ82CRN3RB54F4O032IY6,6,5
128,1,object_02,object_08,758.5,2,1,748.10000000149,0.7777777777777778,2,object_06,5,1467,0,4,7,desert_8,2,memory-2step-stake-s,629,2521611,0.0-19.0-0.1-0.128,A5K108EWACHK5,382GHPVPIV7ASJXQ3FB9V025S7G34H,3SBEHTYCWRJ82CRN3RB54F4O032IY6,2,1
129,4,object_07,object_10,1068.8000000045,8,1,518.60000000149,0.6666666666666666,2,object_06,1,1473,0,1,6,restaurant_8,2,memory-2step-stake-s,630,2530005,0.0-19.0-0.1-0.129,A5K108EWACHK5,382GHPVPIV7ASJXQ3FB9V025S7G34H,3SBEHTYCWRJ82CRN3RB54F4O032IY6,8,7
130,3,object_09,object_01,625.39999999851,6,2,675.20000000298,0.8888888888888888,2,object_06,1,1481,0,0,8,library_1,2,memory-2step-stake-s,631,2538765,0.0-19.0-0.1-0.130,A5K108EWACHK5,382GHPVPIV7ASJXQ3FB9V025S7G34H,3SBEHTYCWRJ82CRN3RB54F4O032IY6,5,6
131,2,object_03,object_04,938.0,4,2,1175.5,0.6666666666666666,2,object_06,5,1511,0,3,6,forest_7,2,memory-2step-stake-s,632,2547820,0.0-19.0-0.1-0.131,A5K108EWACHK5,382GHPVPIV7ASJXQ3FB9V025S7G34H,3SBEHTYCWRJ82CRN3RB54F4O032IY6,3,4
132,1,object_02,object_08,818.80000000447,2,1,1266.5,0.6666666666666666,2,object_06,5,1541,0,4,6,desert_6,2,memory-2step-stake-s,633,2556961,0.0-19.0-0.1-0.132,A5K108EWACHK5,382GHPVPIV7ASJXQ3FB9V025S7G34H,3SBEHTYCWRJ82CRN3RB54F4O032IY6,2,1
133,2,object_03,object_04,939.5,4,2,-1.0,0.0,2,object_06,5,1541,0,6,7,forest_3,2,memory-2step-stake-s,634,2565506,0.0-19.0-0.1-0.133,A5K108EWACHK5,382GHPVPIV7ASJXQ3FB9V025S7G34H,3SBEHTYCWRJ82CRN3RB54F4O032IY6,3,4
134,4,object_10,object_07,754.0,8,2,1155.799999997,0.4444444444444444,2,object_06,1,1545,0,5,4,restaurant_5,2,memory-2step-stake-s,635,2574323,0.0-19.0-0.1-0.134,A5K108EWACHK5,382GHPVPIV7ASJXQ3FB9V025S7G34H,3SBEHTYCWRJ82CRN3RB54F4O032IY6,7,8
135,2,object_04,object_03,810.5,4,1,1068.5,0.6666666666666666,2,object_06,5,1575,0,2,6,forest_5,2,memory-2step-stake-s,636,2583259,0.0-19.0-0.1-0.135,A5K108EWACHK5,382GHPVPIV7ASJXQ3FB9V025S7G34H,3SBEHTYCWRJ82CRN3RB54F4O032IY6,4,3
136,1,object_02,object_08,756.20000000298,2,1,805.30000000447,0.3333333333333333,2,object_06,5,1590,0,2,3,desert_3,2,memory-2step-stake-s,637,2591635,0.0-19.0-0.1-0.136,A5K108EWACHK5,382GHPVPIV7ASJXQ3FB9V025S7G34H,3SBEHTYCWRJ82CRN3RB54F4O032IY6,2,1
137,4,object_10,object_07,854.5,8,2,833.60000000149,0.3333333333333333,2,object_06,1,1593,0,2,3,restaurant_5,2,memory-2step-stake-s,638,2600046,0.0-19.0-0.1-0.137,A5K108EWACHK5,382GHPVPIV7ASJXQ3FB9V025S7G34H,3SBEHTYCWRJ82CRN3RB54F4O032IY6,7,8
138,3,object_01,object_09,773.89999999851,6,1,828.39999999851,0.2222222222222222,2,object_06,1,1595,0,3,2,library_6,2,memory-2step-stake-s,639,2608342,0.0-19.0-0.1-0.138,A5K108EWACHK5,382GHPVPIV7ASJXQ3FB9V025S7G34H,3SBEHTYCWRJ82CRN3RB54F4O032IY6,6,5
139,3,object_09,object_01,925.30000000447,5,1,841.79999999702,0.8888888888888888,1,object_05,1,1603,0,8,1,library_5,2,memory-2step-stake-s,640,2617276,0.0-19.0-0.1-0.139,A5K108EWACHK5,382GHPVPIV7ASJXQ3FB9V025S7G34H,3SBEHTYCWRJ82CRN3RB54F4O032IY6,5,6
140,2,object_03,object_04,771.80000000447,3,1,799.20000000298,0.5555555555555556,1,object_05,5,1628,0,5,2,forest_4,2,memory-2step-stake-s,641,2625859,0.0-19.0-0.1-0.140,A5K108EWACHK5,382GHPVPIV7ASJXQ3FB9V025S7G34H,3SBEHTYCWRJ82CRN3RB54F4O032IY6,3,4
141,1,object_02,object_08,859.89999999851,1,2,758.30000000447,0.5555555555555556,1,object_05,5,1653,0,5,1,desert_8,2,memory-2step-stake-s,642,2634394,0.0-19.0-0.1-0.141,A5K108EWACHK5,382GHPVPIV7ASJXQ3FB9V025S7G34H,3SBEHTYCWRJ82CRN3RB54F4O032IY6,2,1
142,4,object_07,object_10,838.0,7,2,630.79999999702,0.4444444444444444,1,object_05,1,1657,0,4,2,restaurant_7,2,memory-2step-stake-s,643,2642704,0.0-19.0-0.1-0.142,A5K108EWACHK5,382GHPVPIV7ASJXQ3FB9V025S7G34H,3SBEHTYCWRJ82CRN3RB54F4O032IY6,8,7
143,3,object_09,object_01,819.0,5,1,811.39999999851,0.5555555555555556,1,object_05,1,1662,0,5,1,library_1,2,memory-2step-stake-s,644,2651300,0.0-19.0-0.1-0.143,A5K108EWACHK5,382GHPVPIV7ASJXQ3FB9V025S7G34H,3SBEHTYCWRJ82CRN3RB54F4O032IY6,5,6
144,4,object_07,object_10,759.10000000149,7,2,1009.700000003,0.0,1,object_05,1,1662,0,0,1,restaurant_3,2,memory-2step-stake-s,645,2659567,0.0-19.0-0.1-0.144,A5K108EWACHK5,382GHPVPIV7ASJXQ3FB9V025S7G34H,3SBEHTYCWRJ82CRN3RB54F4O032IY6,8,7
145,2,object_04,object_03,770.39999999851,3,2,587.80000000447,0.2222222222222222,1,object_05,5,1672,0,2,1,forest_7,2,memory-2step-stake-s,646,2667625,0.0-19.0-0.1-0.145,A5K108EWACHK5,382GHPVPIV7ASJXQ3FB9V025S7G34H,3SBEHTYCWRJ82CRN3RB54F4O032IY6,4,3
146,2,object_04,object_03,699.60000000149,3,2,606.0,0.1111111111111111,1,object_05,5,1677,0,1,3,forest_7,2,memory-2step-stake-s,647,2675596,0.0-19.0-0.1-0.146,A5K108EWACHK5,382GHPVPIV7ASJXQ3FB9V025S7G34H,3SBEHTYCWRJ82CRN3RB54F4O032IY6,4,3
147,4,object_10,object_07,1378.8999999985,7,1,753.10000000149,0.2222222222222222,1,object_05,5,1687,0,2,4,restaurant_7,2,memory-2step-stake-s,648,2683813,0.0-19.0-0.1-0.147,A5K108EWACHK5,382GHPVPIV7ASJXQ3FB9V025S7G34H,3SBEHTYCWRJ82CRN3RB54F4O032IY6,7,8
148,3,object_09,object_01,853.0,6,2,449.39999999851,0.1111111111111111,2,object_06,1,1688,0,0,1,library_5,2,memory-2step-stake-s,649,2691627,0.0-19.0-0.1-0.148,A5K108EWACHK5,382GHPVPIV7ASJXQ3FB9V025S7G34H,3SBEHTYCWRJ82CRN3RB54F4O032IY6,5,6
149,2,object_03,object_04,1055.200000003,4,2,662.60000000149,0.1111111111111111,2,object_06,5,1693,0,1,1,forest_7,2,memory-2step-stake-s,650,2699649,0.0-19.0-0.1-0.149,A5K108EWACHK5,382GHPVPIV7ASJXQ3FB9V025S7G34H,3SBEHTYCWRJ82CRN3RB54F4O032IY6,3,4
150,1,object_02,object_08,999.10000000149,2,1,-1.0,0.0,2,object_06,5,1693,0,1,0,desert_5,2,memory-2step-stake-s,651,2708210,0.0-19.0-0.1-0.150,A5K108EWACHK5,382GHPVPIV7ASJXQ3FB9V025S7G34H,3SBEHTYCWRJ82CRN3RB54F4O032IY6,2,1
151,1,object_08,object_02,896.5,2,2,656.0,0.1111111111111111,2,object_06,5,1698,0,3,1,desert_8,2,memory-2step-stake-s,652,2716230,0.0-19.0-0.1-0.151,A5K108EWACHK5,382GHPVPIV7ASJXQ3FB9V025S7G34H,3SBEHTYCWRJ82CRN3RB54F4O032IY6,1,2
152,4,object_10,object_07,894.79999999702,7,1,661.09999999404,0.4444444444444444,1,object_05,1,1702,0,4,3,restaurant_5,2,memory-2step-stake-s,653,2724578,0.0-19.0-0.1-0.152,A5K108EWACHK5,382GHPVPIV7ASJXQ3FB9V025S7G34H,3SBEHTYCWRJ82CRN3RB54F4O032IY6,7,8
153,2,object_04,object_03,856.40000000596,3,2,654.69999999553,0.4444444444444444,1,object_05,5,1722,0,4,4,forest_4,2,memory-2step-stake-s,654,2732916,0.0-19.0-0.1-0.153,A5K108EWACHK5,382GHPVPIV7ASJXQ3FB9V025S7G34H,3SBEHTYCWRJ82CRN3RB54F4O032IY6,4,3
154,2,object_04,object_03,790.39999999851,3,2,556.39999999851,0.5555555555555556,1,object_05,1,1727,0,5,1,forest_7,2,memory-2step-stake-s,655,2741275,0.0-19.0-0.1-0.154,A5K108EWACHK5,382GHPVPIV7ASJXQ3FB9V025S7G34H,3SBEHTYCWRJ82CRN3RB54F4O032IY6,4,3
155,1,object_08,object_02,980.89999999851,1,1,537.79999999702,0.3333333333333333,1,object_05,5,1742,0,3,2,desert_3,2,memory-2step-stake-s,656,2749381,0.0-19.0-0.1-0.155,A5K108EWACHK5,382GHPVPIV7ASJXQ3FB9V025S7G34H,3SBEHTYCWRJ82CRN3RB54F4O032IY6,1,2
156,1,object_02,object_08,876.30000000447,1,2,423.60000000149,0.3333333333333333,1,object_05,5,1757,0,3,4,desert_8,2,memory-2step-stake-s,657,2757370,0.0-19.0-0.1-0.156,A5K108EWACHK5,382GHPVPIV7ASJXQ3FB9V025S7G34H,3SBEHTYCWRJ82CRN3RB54F4O032IY6,2,1
157,1,object_02,object_08,659.80000000447,1,2,655.39999999851,0.3333333333333333,1,object_05,5,1772,0,3,5,desert_6,2,memory-2step-stake-s,658,2765607,0.0-19.0-0.1-0.157,A5K108EWACHK5,382GHPVPIV7ASJXQ3FB9V025S7G34H,3SBEHTYCWRJ82CRN3RB54F4O032IY6,2,1
158,1,object_02,object_08,704.09999999404,1,2,510.89999999851,0.2222222222222222,1,object_05,5,1782,0,2,6,desert_6,2,memory-2step-stake-s,659,2773592,0.0-19.0-0.1-0.158,A5K108EWACHK5,382GHPVPIV7ASJXQ3FB9V025S7G34H,3SBEHTYCWRJ82CRN3RB54F4O032IY6,2,1
159,2,object_04,object_03,771.10000000149,4,1,11.5,0.5555555555555556,2,object_06,5,1807,0,1,5,forest_3,2,memory-2step-stake-s,660,2781412,0.0-19.0-0.1-0.159,A5K108EWACHK5,382GHPVPIV7ASJXQ3FB9V025S7G34H,3SBEHTYCWRJ82CRN3RB54F4O032IY6,4,3
160,3,object_01,object_09,796.30000000447,6,1,958.39999999851,0.8888888888888888,2,object_06,1,1815,0,1,8,library_1,2,memory-2step-stake-s,661,2790478,0.0-19.0-0.1-0.160,A5K108EWACHK5,382GHPVPIV7ASJXQ3FB9V025S7G34H,3SBEHTYCWRJ82CRN3RB54F4O032IY6,6,5
161,1,object_02,object_08,635.10000000149,2,1,876.70000000298,0.4444444444444444,2,object_06,5,1835,0,1,4,desert_3,2,memory-2step-stake-s,662,2799029,0.0-19.0-0.1-0.161,A5K108EWACHK5,382GHPVPIV7ASJXQ3FB9V025S7G34H,3SBEHTYCWRJ82CRN3RB54F4O032IY6,2,1
162,3,object_01,object_09,669.29999999702,6,1,851.70000000298,0.2222222222222222,2,object_06,1,1837,0,3,2,library_4,2,memory-2step-stake-s,663,2807355,0.0-19.0-0.1-0.162,A5K108EWACHK5,382GHPVPIV7ASJXQ3FB9V025S7G34H,3SBEHTYCWRJ82CRN3RB54F4O032IY6,6,5
163,3,object_01,object_09,731.20000000298,5,2,735.70000000298,0.4444444444444444,1,object_05,5,1857,0,4,0,library_5,2,memory-2step-stake-s,664,2815782,0.0-19.0-0.1-0.163,A5K108EWACHK5,382GHPVPIV7ASJXQ3FB9V025S7G34H,3SBEHTYCWRJ82CRN3RB54F4O032IY6,6,5
164,3,object_09,object_01,704.89999999851,5,1,570.19999999553,0.4444444444444444,1,object_05,1,1861,0,4,3,library_4,2,memory-2step-stake-s,665,2824037,0.0-19.0-0.1-0.164,A5K108EWACHK5,382GHPVPIV7ASJXQ3FB9V025S7G34H,3SBEHTYCWRJ82CRN3RB54F4O032IY6,5,6
165,1,object_08,object_02,1010.1000000015,1,1,689.20000000298,0.2222222222222222,1,object_05,1,1863,0,2,1,desert_8,2,memory-2step-stake-s,666,2832199,0.0-19.0-0.1-0.165,A5K108EWACHK5,382GHPVPIV7ASJXQ3FB9V025S7G34H,3SBEHTYCWRJ82CRN3RB54F4O032IY6,1,2
166,3,object_09,object_01,658.59999999404,6,2,802.60000000149,0.0,2,object_06,1,1863,0,4,0,library_1,2,memory-2step-stake-s,667,2840274,0.0-19.0-0.1-0.166,A5K108EWACHK5,382GHPVPIV7ASJXQ3FB9V025S7G34H,3SBEHTYCWRJ82CRN3RB54F4O032IY6,5,6
167,1,object_08,object_02,719.60000000149,2,2,835.10000000149,0.0,2,object_06,5,1863,0,4,0,desert_3,2,memory-2step-stake-s,668,2848369,0.0-19.0-0.1-0.167,A5K108EWACHK5,382GHPVPIV7ASJXQ3FB9V025S7G34H,3SBEHTYCWRJ82CRN3RB54F4O032IY6,1,2
168,1,object_08,object_02,897.70000000298,1,1,824.30000000447,0.4444444444444444,1,object_05,5,1883,0,4,2,desert_3,2,memory-2step-stake-s,669,2856882,0.0-19.0-0.1-0.168,A5K108EWACHK5,382GHPVPIV7ASJXQ3FB9V025S7G34H,3SBEHTYCWRJ82CRN3RB54F4O032IY6,1,2
169,3,object_09,object_01,981.29999999702,5,1,602.0,0.4444444444444444,1,object_05,1,1887,0,4,3,library_4,2,memory-2step-stake-s,670,2865179,0.0-19.0-0.1-0.169,A5K108EWACHK5,382GHPVPIV7ASJXQ3FB9V025S7G34H,3SBEHTYCWRJ82CRN3RB54F4O032IY6,5,6
170,3,object_01,object_09,832.89999999851,5,2,897.60000000149,0.1111111111111111,1,object_05,1,1888,0,1,3,library_5,2,memory-2step-stake-s,671,2873445,0.0-19.0-0.1-0.170,A5K108EWACHK5,382GHPVPIV7ASJXQ3FB9V025S7G34H,3SBEHTYCWRJ82CRN3RB54F4O032IY6,6,5
171,4,object_07,object_10,944.89999999851,7,2,1002.6000000015,0.2222222222222222,1,object_05,1,1890,0,2,3,restaurant_5,2,memory-2step-stake-s,672,2881919,0.0-19.0-0.1-0.171,A5K108EWACHK5,382GHPVPIV7ASJXQ3FB9V025S7G34H,3SBEHTYCWRJ82CRN3RB54F4O032IY6,8,7
172,1,object_08,object_02,1026.0,1,1,795.70000000298,0.5555555555555556,1,object_05,5,1915,0,5,3,desert_6,2,memory-2step-stake-s,673,2890511,0.0-19.0-0.1-0.172,A5K108EWACHK5,382GHPVPIV7ASJXQ3FB9V025S7G34H,3SBEHTYCWRJ82CRN3RB54F4O032IY6,1,2
173,1,object_02,object_08,760.89999999851,2,1,842.39999999851,0.1111111111111111,2,object_06,1,1916,0,3,1,desert_6,2,memory-2step-stake-s,674,2898712,0.0-19.0-0.1-0.173,A5K108EWACHK5,382GHPVPIV7ASJXQ3FB9V025S7G34H,3SBEHTYCWRJ82CRN3RB54F4O032IY6,2,1
174,4,object_07,object_10,715.80000000447,8,1,1057.700000003,0.2222222222222222,2,object_06,1,1918,0,0,2,restaurant_8,2,memory-2step-stake-s,675,2907241,0.0-19.0-0.1-0.174,A5K108EWACHK5,382GHPVPIV7ASJXQ3FB9V025S7G34H,3SBEHTYCWRJ82CRN3RB54F4O032IY6,8,7
175,3,object_09,object_01,917.20000000298,6,2,1058.799999997,0.1111111111111111,2,object_06,1,1919,0,0,1,library_6,2,memory-2step-stake-s,676,2915665,0.0-19.0-0.1-0.175,A5K108EWACHK5,382GHPVPIV7ASJXQ3FB9V025S7G34H,3SBEHTYCWRJ82CRN3RB54F4O032IY6,5,6
176,3,object_01,object_09,730.60000000149,5,2,1021.3000000045,0.3333333333333333,1,object_05,1,1922,0,3,1,library_6,2,memory-2step-stake-s,677,2924258,0.0-19.0-0.1-0.176,A5K108EWACHK5,382GHPVPIV7ASJXQ3FB9V025S7G34H,3SBEHTYCWRJ82CRN3RB54F4O032IY6,6,5
177,1,object_02,object_08,755.20000000298,1,2,684.39999999851,0.3333333333333333,1,object_05,5,1937,0,3,1,desert_5,2,memory-2step-stake-s,678,2932528,0.0-19.0-0.1-0.177,A5K108EWACHK5,382GHPVPIV7ASJXQ3FB9V025S7G34H,3SBEHTYCWRJ82CRN3RB54F4O032IY6,2,1
178,4,object_10,object_07,845.59999999404,8,2,808.0,0.4444444444444444,2,object_06,1,1941,0,4,4,restaurant_3,2,memory-2step-stake-s,679,2941024,0.0-19.0-0.1-0.178,A5K108EWACHK5,382GHPVPIV7ASJXQ3FB9V025S7G34H,3SBEHTYCWRJ82CRN3RB54F4O032IY6,7,8
179,3,object_01,object_09,890.89999999851,6,1,1190.3000000045,0.7777777777777778,2,object_06,1,1948,0,4,7,library_1,2,memory-2step-stake-s,680,2950220,0.0-19.0-0.1-0.179,A5K108EWACHK5,382GHPVPIV7ASJXQ3FB9V025S7G34H,3SBEHTYCWRJ82CRN3RB54F4O032IY6,6,5
180,2,object_03,object_04,1449.8999999985,3,1,1106.0,0.7777777777777778,1,object_05,5,1983,0,7,4,forest_3,2,memory-2step-stake-s,681,2959332,0.0-19.0-0.1-0.180,A5K108EWACHK5,382GHPVPIV7ASJXQ3FB9V025S7G34H,3SBEHTYCWRJ82CRN3RB54F4O032IY6,3,4
181,1,object_02,object_08,776.0,2,1,994.39999999851,0.5555555555555556,2,object_06,5,2008,0,4,5,desert_5,2,memory-2step-stake-s,682,2968135,0.0-19.0-0.1-0.181,A5K108EWACHK5,382GHPVPIV7ASJXQ3FB9V025S7G34H,3SBEHTYCWRJ82CRN3RB54F4O032IY6,2,1
182,4,object_10,object_07,857.29999999702,8,2,1041.799999997,0.1111111111111111,2,object_06,1,2009,0,4,1,restaurant_8,2,memory-2step-stake-s,683,2976553,0.0-19.0-0.1-0.182,A5K108EWACHK5,382GHPVPIV7ASJXQ3FB9V025S7G34H,3SBEHTYCWRJ82CRN3RB54F4O032IY6,7,8
183,1,object_02,object_08,578.09999999404,2,1,1030.6000000015,0.0,2,object_06,1,2009,0,4,0,desert_8,2,memory-2step-stake-s,684,2984850,0.0-19.0-0.1-0.183,A5K108EWACHK5,382GHPVPIV7ASJXQ3FB9V025S7G34H,3SBEHTYCWRJ82CRN3RB54F4O032IY6,2,1
184,4,object_07,object_10,873.19999999553,8,1,990.5,0.0,2,object_06,5,2009,0,3,0,restaurant_7,2,memory-2step-stake-s,685,2993104,0.0-19.0-0.1-0.184,A5K108EWACHK5,382GHPVPIV7ASJXQ3FB9V025S7G34H,3SBEHTYCWRJ82CRN3RB54F4O032IY6,8,7
185,4,object_07,object_10,818.5,7,2,624.29999999702,0.3333333333333333,1,object_05,5,2024,0,3,5,restaurant_8,2,memory-2step-stake-s,686,3001315,0.0-19.0-0.1-0.185,A5K108EWACHK5,382GHPVPIV7ASJXQ3FB9V025S7G34H,3SBEHTYCWRJ82CRN3RB54F4O032IY6,8,7
186,3,object_01,object_09,996.0,5,2,1160.6999999955,0.4444444444444444,1,object_05,1,2028,0,4,3,library_4,2,memory-2step-stake-s,687,3010163,0.0-19.0-0.1-0.186,A5K108EWACHK5,382GHPVPIV7ASJXQ3FB9V025S7G34H,3SBEHTYCWRJ82CRN3RB54F4O032IY6,6,5
187,4,object_10,object_07,1423.0,7,1,1052.3000000045,0.5555555555555556,1,object_05,5,2053,0,5,2,restaurant_7,2,memory-2step-stake-s,688,3019023,0.0-19.0-0.1-0.187,A5K108EWACHK5,382GHPVPIV7ASJXQ3FB9V025S7G34H,3SBEHTYCWRJ82CRN3RB54F4O032IY6,7,8
188,1,object_08,object_02,928.69999999553,1,1,783.59999999404,0.4444444444444444,1,object_05,5,2073,0,4,1,desert_8,2,memory-2step-stake-s,689,3027495,0.0-19.0-0.1-0.188,A5K108EWACHK5,382GHPVPIV7ASJXQ3FB9V025S7G34H,3SBEHTYCWRJ82CRN3RB54F4O032IY6,1,2
189,1,object_02,object_08,700.89999999851,1,2,904.70000000298,0.7777777777777778,1,object_05,5,2108,0,7,3,desert_3,2,memory-2step-stake-s,690,3036417,0.0-19.0-0.1-0.189,A5K108EWACHK5,382GHPVPIV7ASJXQ3FB9V025S7G34H,3SBEHTYCWRJ82CRN3RB54F4O032IY6,2,1
190,2,object_03,object_04,958.39999999851,4,2,719.20000000298,0.4444444444444444,2,object_06,5,2128,0,8,4,forest_5,2,memory-2step-stake-s,691,3044833,0.0-19.0-0.1-0.190,A5K108EWACHK5,382GHPVPIV7ASJXQ3FB9V025S7G34H,3SBEHTYCWRJ82CRN3RB54F4O032IY6,3,4
191,4,object_07,object_10,1183.5,8,1,928.90000000596,0.1111111111111111,2,object_06,1,2129,0,8,1,restaurant_8,2,memory-2step-stake-s,692,3053141,0.0-19.0-0.1-0.191,A5K108EWACHK5,382GHPVPIV7ASJXQ3FB9V025S7G34H,3SBEHTYCWRJ82CRN3RB54F4O032IY6,8,7
192,2,object_04,object_03,874.5,3,2,766.5,1.0,1,object_05,5,2174,0,9,1,forest_5,2,memory-2step-stake-s,693,3062150,0.0-19.0-0.1-0.192,A5K108EWACHK5,382GHPVPIV7ASJXQ3FB9V025S7G34H,3SBEHTYCWRJ82CRN3RB54F4O032IY6,4,3
193,4,object_10,object_07,865.60000000149,7,1,489.60000000149,1.0,1,object_05,5,2219,0,9,2,restaurant_8,2,memory-2step-stake-s,694,3070873,0.0-19.0-0.1-0.193,A5K108EWACHK5,382GHPVPIV7ASJXQ3FB9V025S7G34H,3SBEHTYCWRJ82CRN3RB54F4O032IY6,7,8
194,4,object_07,object_10,900.60000000149,7,2,687.0,0.8888888888888888,1,object_05,1,2227,0,8,0,restaurant_7,2,memory-2step-stake-s,695,3079686,0.0-19.0-0.1-0.194,A5K108EWACHK5,382GHPVPIV7ASJXQ3FB9V025S7G34H,3SBEHTYCWRJ82CRN3RB54F4O032IY6,8,7
195,2,object_03,object_04,1127.3999999985,3,1,1001.1000000015,0.6666666666666666,1,object_05,5,2257,0,6,3,forest_5,2,memory-2step-stake-s,696,3088600,0.0-19.0-0.1-0.195,A5K108EWACHK5,382GHPVPIV7ASJXQ3FB9V025S7G34H,3SBEHTYCWRJ82CRN3RB54F4O032IY6,3,4
196,1,object_08,object_02,979.40000000596,1,1,975.10000000149,0.4444444444444444,1,object_05,5,2277,0,4,3,desert_5,2,memory-2step-stake-s,697,3097271,0.0-19.0-0.1-0.196,A5K108EWACHK5,382GHPVPIV7ASJXQ3FB9V025S7G34H,3SBEHTYCWRJ82CRN3RB54F4O032IY6,1,2
197,3,object_09,object_01,892.29999999702,5,1,585.39999999851,0.1111111111111111,1,object_05,1,2278,0,1,8,library_5,2,memory-2step-stake-s,698,3105232,0.0-19.0-0.1-0.197,A5K108EWACHK5,382GHPVPIV7ASJXQ3FB9V025S7G34H,3SBEHTYCWRJ82CRN3RB54F4O032IY6,5,6
198,2,object_04,object_03,-1.0,-1,-1,-1.0,0.0,-,0,5,2278,0,1,8,forest_3,2,memory-2step-stake-s,699,3111786,0.0-19.0-0.1-0.198,A5K108EWACHK5,382GHPVPIV7ASJXQ3FB9V025S7G34H,3SBEHTYCWRJ82CRN3RB54F4O032IY6,4,3
199,4,object_07,object_10,760.60000000149,7,2,641.20000000298,0.0,1,object_05,1,2278,0,0,8,restaurant_3,2,memory-2step-stake-s,700,3119686,0.0-19.0-0.1-0.199,A5K108EWACHK5,382GHPVPIV7ASJXQ3FB9V025S7G34H,3SBEHTYCWRJ82CRN3RB54F4O032IY6,8,7
200,3,object_09,object_01,625.09999999404,5,1,572.80000000447,0.2222222222222222,1,object_05,1,2280,0,2,8,library_6,2,memory-2step-stake-s,701,3127743,0.0-19.0-0.1-0.200,A5K108EWACHK5,382GHPVPIV7ASJXQ3FB9V025S7G34H,3SBEHTYCWRJ82CRN3RB54F4O032IY6,5,6
201,4,object_07,object_10,710.19999999553,7,2,643.29999999702,0.1111111111111111,1,object_05,1,2281,0,1,5,restaurant_5,2,memory-2step-stake-s,702,3135763,0.0-19.0-0.1-0.201,A5K108EWACHK5,382GHPVPIV7ASJXQ3FB9V025S7G34H,3SBEHTYCWRJ82CRN3RB54F4O032IY6,8,7
202,3,object_09,object_01,828.39999999851,5,1,585.70000000298,0.0,1,object_05,1,2281,0,0,2,library_4,2,memory-2step-stake-s,703,3143615,0.0-19.0-0.1-0.202,A5K108EWACHK5,382GHPVPIV7ASJXQ3FB9V025S7G34H,3SBEHTYCWRJ82CRN3RB54F4O032IY6,5,6
203,3,object_01,object_09,715.79999999702,6,1,643.80000000447,0.2222222222222222,2,object_06,1,2283,0,1,2,library_1,2,memory-2step-stake-s,704,3151757,0.0-19.0-0.1-0.203,A5K108EWACHK5,382GHPVPIV7ASJXQ3FB9V025S7G34H,3SBEHTYCWRJ82CRN3RB54F4O032IY6,6,5
204,2,object_03,object_04,680.10000000149,3,1,574.79999999702,0.5555555555555556,1,object_05,1,2288,0,5,1,forest_5,2,memory-2step-stake-s,705,3160151,0.0-19.0-0.1-0.204,A5K108EWACHK5,382GHPVPIV7ASJXQ3FB9V025S7G34H,3SBEHTYCWRJ82CRN3RB54F4O032IY6,3,4
205,3,object_09,object_01,700.10000000149,5,1,671.59999999404,0.7777777777777778,1,object_05,1,2295,0,7,3,library_1,2,memory-2step-stake-s,706,3168855,0.0-19.0-0.1-0.205,A5K108EWACHK5,382GHPVPIV7ASJXQ3FB9V025S7G34H,3SBEHTYCWRJ82CRN3RB54F4O032IY6,5,6
206,3,object_09,object_01,605.60000000149,5,1,789.89999999851,0.6666666666666666,1,object_05,5,2325,0,6,5,library_5,2,memory-2step-stake-s,707,3177547,0.0-19.0-0.1-0.206,A5K108EWACHK5,382GHPVPIV7ASJXQ3FB9V025S7G34H,3SBEHTYCWRJ82CRN3RB54F4O032IY6,5,6
207,1,object_08,object_02,1461.3999999985,1,1,711.10000000149,0.4444444444444444,1,object_05,5,2345,0,4,4,desert_5,2,memory-2step-stake-s,708,3185965,0.0-19.0-0.1-0.207,A5K108EWACHK5,382GHPVPIV7ASJXQ3FB9V025S7G34H,3SBEHTYCWRJ82CRN3RB54F4O032IY6,1,2
208,1,object_02,object_08,776.10000000149,2,1,641.0,0.2222222222222222,2,object_06,5,2355,0,7,2,desert_8,2,memory-2step-stake-s,709,3194098,0.0-19.0-0.1-0.208,A5K108EWACHK5,382GHPVPIV7ASJXQ3FB9V025S7G34H,3SBEHTYCWRJ82CRN3RB54F4O032IY6,2,1
209,4,object_07,object_10,852.10000000149,7,2,928.20000000298,0.7777777777777778,1,object_05,5,2390,0,7,2,restaurant_8,2,memory-2step-stake-s,710,3203065,0.0-19.0-0.1-0.209,A5K108EWACHK5,382GHPVPIV7ASJXQ3FB9V025S7G34H,3SBEHTYCWRJ82CRN3RB54F4O032IY6,8,7
210,1,object_02,object_08,749.5,2,1,997.30000000447,0.3333333333333333,2,object_06,5,2405,0,3,3,desert_5,2,memory-2step-stake-s,711,3211668,0.0-19.0-0.1-0.210,A5K108EWACHK5,382GHPVPIV7ASJXQ3FB9V025S7G34H,3SBEHTYCWRJ82CRN3RB54F4O032IY6,2,1
211,3,object_01,object_09,820.5,5,2,955.10000000149,0.7777777777777778,1,object_05,1,2412,0,7,3,library_5,2,memory-2step-stake-s,712,3220664,0.0-19.0-0.1-0.211,A5K108EWACHK5,382GHPVPIV7ASJXQ3FB9V025S7G34H,3SBEHTYCWRJ82CRN3RB54F4O032IY6,6,5
212,2,object_03,object_04,125.20000000298,3,1,532.89999999851,0.7777777777777778,1,object_05,5,2447,0,7,7,forest_5,2,memory-2step-stake-s,713,3229238,0.0-19.0-0.1-0.212,A5K108EWACHK5,382GHPVPIV7ASJXQ3FB9V025S7G34H,3SBEHTYCWRJ82CRN3RB54F4O032IY6,3,4
213,2,object_04,object_03,710.60000000149,3,2,765.60000000149,0.6666666666666666,1,object_05,5,2477,0,6,6,forest_4,2,memory-2step-stake-s,714,3237929,0.0-19.0-0.1-0.213,A5K108EWACHK5,382GHPVPIV7ASJXQ3FB9V025S7G34H,3SBEHTYCWRJ82CRN3RB54F4O032IY6,4,3
214,2,object_04,object_03,1143.900000006,3,2,743.90000000596,0.6666666666666666,1,object_05,5,2507,0,6,1,forest_5,2,memory-2step-stake-s,715,3246611,0.0-19.0-0.1-0.214,A5K108EWACHK5,382GHPVPIV7ASJXQ3FB9V025S7G34H,3SBEHTYCWRJ82CRN3RB54F4O032IY6,4,3
215,4,object_10,object_07,900.89999999851,8,2,499.0,0.1111111111111111,2,object_06,1,2508,0,8,1,restaurant_8,2,memory-2step-stake-s,716,3254503,0.0-19.0-0.1-0.215,A5K108EWACHK5,382GHPVPIV7ASJXQ3FB9V025S7G34H,3SBEHTYCWRJ82CRN3RB54F4O032IY6,7,8
216,3,object_01,object_09,813.10000000149,5,2,666.20000000298,0.5555555555555556,1,object_05,1,2513,0,5,2,library_5,2,memory-2step-stake-s,717,3262978,0.0-19.0-0.1-0.216,A5K108EWACHK5,382GHPVPIV7ASJXQ3FB9V025S7G34H,3SBEHTYCWRJ82CRN3RB54F4O032IY6,6,5
217,4,object_07,object_10,897.0,8,1,612.39999999851,0.1111111111111111,2,object_06,1,2514,0,5,1,restaurant_3,2,memory-2step-stake-s,718,3270978,0.0-19.0-0.1-0.217,A5K108EWACHK5,382GHPVPIV7ASJXQ3FB9V025S7G34H,3SBEHTYCWRJ82CRN3RB54F4O032IY6,8,7
218,3,object_09,object_01,787.79999999702,5,1,1059.6999999955,0.8888888888888888,1,object_05,5,2554,0,8,1,library_4,2,memory-2step-stake-s,719,3280185,0.0-19.0-0.1-0.218,A5K108EWACHK5,382GHPVPIV7ASJXQ3FB9V025S7G34H,3SBEHTYCWRJ82CRN3RB54F4O032IY6,5,6
219,1,object_02,object_08,673.89999999851,1,2,1229.799999997,0.8888888888888888,1,object_05,5,2594,0,8,1,desert_5,2,memory-2step-stake-s,720,3289559,0.0-19.0-0.1-0.219,A5K108EWACHK5,382GHPVPIV7ASJXQ3FB9V025S7G34H,3SBEHTYCWRJ82CRN3RB54F4O032IY6,2,1
220,4,object_07,object_10,916.5,7,2,597.5,0.6666666666666666,1,object_05,5,2624,0,6,0,restaurant_8,2,memory-2step-stake-s,721,3298090,0.0-19.0-0.1-0.220,A5K108EWACHK5,382GHPVPIV7ASJXQ3FB9V025S7G34H,3SBEHTYCWRJ82CRN3RB54F4O032IY6,8,7
221,3,object_09,object_01,811.60000000149,5,1,772.90000000596,0.8888888888888888,1,object_05,1,2632,0,8,2,library_6,2,memory-2step-stake-s,722,3306993,0.0-19.0-0.1-0.221,A5K108EWACHK5,382GHPVPIV7ASJXQ3FB9V025S7G34H,3SBEHTYCWRJ82CRN3RB54F4O032IY6,5,6
222,1,object_08,object_02,814.89999999851,1,1,618.70000000298,0.7777777777777778,1,object_05,5,2667,0,7,3,desert_8,2,memory-2step-stake-s,723,3315651,0.0-19.0-0.1-0.222,A5K108EWACHK5,382GHPVPIV7ASJXQ3FB9V025S7G34H,3SBEHTYCWRJ82CRN3RB54F4O032IY6,1,2
223,1,object_08,object_02,663.0,1,1,969.89999999851,0.6666666666666666,1,object_05,5,2697,0,6,4,desert_3,2,memory-2step-stake-s,724,3324475,0.0-19.0-0.1-0.223,A5K108EWACHK5,382GHPVPIV7ASJXQ3FB9V025S7G34H,3SBEHTYCWRJ82CRN3RB54F4O032IY6,1,2
224,2,object_04,object_03,814.79999999702,3,2,843.10000000149,0.5555555555555556,1,object_05,5,2722,0,5,4,forest_5,2,memory-2step-stake-s,725,3333075,0.0-19.0-0.1-0.224,A5K108EWACHK5,382GHPVPIV7ASJXQ3FB9V025S7G34H,3SBEHTYCWRJ82CRN3RB54F4O032IY6,4,3
225,4,object_07,object_10,904.5,7,2,699.89999999851,0.0,1,object_05,1,2722,0,0,0,restaurant_3,2,memory-2step-stake-s,726,3341019,0.0-19.0-0.1-0.225,A5K108EWACHK5,382GHPVPIV7ASJXQ3FB9V025S7G34H,3SBEHTYCWRJ82CRN3RB54F4O032IY6,8,7
226,1,object_08,object_02,785.60000000149,2,2,1054.3999999985,0.0,2,object_06,5,2722,0,2,0,desert_6,2,memory-2step-stake-s,727,3349321,0.0-19.0-0.1-0.226,A5K108EWACHK5,382GHPVPIV7ASJXQ3FB9V025S7G34H,3SBEHTYCWRJ82CRN3RB54F4O032IY6,1,2
227,3,object_01,object_09,1108.0,5,2,705.39999999851,0.3333333333333333,1,object_05,1,2725,0,3,4,library_6,2,memory-2step-stake-s,728,3357581,0.0-19.0-0.1-0.227,A5K108EWACHK5,382GHPVPIV7ASJXQ3FB9V025S7G34H,3SBEHTYCWRJ82CRN3RB54F4O032IY6,6,5
228,1,object_02,object_08,742.80000000447,2,1,981.20000000298,0.2222222222222222,2,object_06,5,2735,0,4,2,desert_6,2,memory-2step-stake-s,729,3366013,0.0-19.0-0.1-0.228,A5K108EWACHK5,382GHPVPIV7ASJXQ3FB9V025S7G34H,3SBEHTYCWRJ82CRN3RB54F4O032IY6,2,1
229,1,object_08,object_02,829.20000000298,2,2,903.79999999702,0.3333333333333333,2,object_06,1,2738,0,0,3,desert_3,2,memory-2step-stake-s,730,3374475,0.0-19.0-0.1-0.229,A5K108EWACHK5,382GHPVPIV7ASJXQ3FB9V025S7G34H,3SBEHTYCWRJ82CRN3RB54F4O032IY6,1,2
230,3,object_09,object_01,813.60000000149,5,1,1235.799999997,0.1111111111111111,1,object_05,1,2739,0,1,5,library_5,2,memory-2step-stake-s,731,3383061,0.0-19.0-0.1-0.230,A5K108EWACHK5,382GHPVPIV7ASJXQ3FB9V025S7G34H,3SBEHTYCWRJ82CRN3RB54F4O032IY6,5,6
231,1,object_02,object_08,607.20000000298,2,1,833.20000000298,1.0,2,object_06,5,2784,0,1,9,desert_3,2,memory-2step-stake-s,732,3392070,0.0-19.0-0.1-0.231,A5K108EWACHK5,382GHPVPIV7ASJXQ3FB9V025S7G34H,3SBEHTYCWRJ82CRN3RB54F4O032IY6,2,1
232,1,object_02,object_08,661.20000000298,2,1,702.29999999702,1.0,2,object_06,5,2829,0,4,9,desert_3,2,memory-2step-stake-s,733,3400950,0.0-19.0-0.1-0.232,A5K108EWACHK5,382GHPVPIV7ASJXQ3FB9V025S7G34H,3SBEHTYCWRJ82CRN3RB54F4O032IY6,2,1
233,4,object_10,object_07,949.80000000447,8,2,1222.200000003,0.6666666666666666,2,object_06,1,2835,0,4,6,restaurant_8,2,memory-2step-stake-s,734,3410039,0.0-19.0-0.1-0.233,A5K108EWACHK5,382GHPVPIV7ASJXQ3FB9V025S7G34H,3SBEHTYCWRJ82CRN3RB54F4O032IY6,7,8
234,1,object_02,object_08,771.80000000447,2,1,910.70000000298,0.8888888888888888,2,object_06,1,2843,0,3,8,desert_6,2,memory-2step-stake-s,735,3419022,0.0-19.0-0.1-0.234,A5K108EWACHK5,382GHPVPIV7ASJXQ3FB9V025S7G34H,3SBEHTYCWRJ82CRN3RB54F4O032IY6,2,1
235,1,object_08,object_02,712.20000000298,2,2,810.60000000149,0.8888888888888888,2,object_06,5,2883,0,8,8,desert_5,2,memory-2step-stake-s,736,3427909,0.0-19.0-0.1-0.235,A5K108EWACHK5,382GHPVPIV7ASJXQ3FB9V025S7G34H,3SBEHTYCWRJ82CRN3RB54F4O032IY6,1,2
236,4,object_07,object_10,1128.799999997,8,1,1084.700000003,0.3333333333333333,2,object_06,5,2898,0,9,3,restaurant_8,2,memory-2step-stake-s,737,3436561,0.0-19.0-0.1-0.236,A5K108EWACHK5,382GHPVPIV7ASJXQ3FB9V025S7G34H,3SBEHTYCWRJ82CRN3RB54F4O032IY6,8,7
237,4,object_07,object_10,765.10000000149,7,2,636.39999999851,0.6666666666666666,1,object_05,1,2904,0,6,1,restaurant_3,2,memory-2step-stake-s,738,3445055,0.0-19.0-0.1-0.237,A5K108EWACHK5,382GHPVPIV7ASJXQ3FB9V025S7G34H,3SBEHTYCWRJ82CRN3RB54F4O032IY6,8,7
238,2,object_04,object_03,810.79999999702,3,2,596.10000000149,0.4444444444444444,1,object_05,5,2924,0,4,6,forest_4,2,memory-2step-stake-s,739,3453318,0.0-19.0-0.1-0.238,A5K108EWACHK5,382GHPVPIV7ASJXQ3FB9V025S7G34H,3SBEHTYCWRJ82CRN3RB54F4O032IY6,4,3
239,4,object_07,object_10,1126.299999997,8,1,822.29999999702,0.8888888888888888,2,object_06,5,2964,0,4,8,restaurant_3,2,memory-2step-stake-s,740,3462229,0.0-19.0-0.1-0.239,A5K108EWACHK5,382GHPVPIV7ASJXQ3FB9V025S7G34H,3SBEHTYCWRJ82CRN3RB54F4O032IY6,8,7
240,3,object_09,object_01,826.60000000149,6,2,1021.5,0.7777777777777778,2,object_06,1,2971,0,3,7,library_4,2,memory-2step-stake-s,741,3471230,0.0-19.0-0.1-0.240,A5K108EWACHK5,382GHPVPIV7ASJXQ3FB9V025S7G34H,3SBEHTYCWRJ82CRN3RB54F4O032IY6,5,6
241,4,object_07,object_10,781.60000000149,8,1,1031.299999997,0.8888888888888888,2,object_06,5,3011,0,7,8,restaurant_5,2,memory-2step-stake-s,742,3480322,0.0-19.0-0.1-0.241,A5K108EWACHK5,382GHPVPIV7ASJXQ3FB9V025S7G34H,3SBEHTYCWRJ82CRN3RB54F4O032IY6,8,7
242,1,object_08,object_02,784.80000000447,2,2,586.10000000149,1.0,2,object_06,5,3056,0,6,9,desert_3,2,memory-2step-stake-s,743,3489096,0.0-19.0-0.1-0.242,A5K108EWACHK5,382GHPVPIV7ASJXQ3FB9V025S7G34H,3SBEHTYCWRJ82CRN3RB54F4O032IY6,1,2
243,2,object_04,object_03,841.29999999702,4,1,693.39999999851,0.6666666666666666,2,object_06,1,3062,0,6,6,forest_7,2,memory-2step-stake-s,744,3497661,0.0-19.0-0.1-0.243,A5K108EWACHK5,382GHPVPIV7ASJXQ3FB9V025S7G34H,3SBEHTYCWRJ82CRN3RB54F4O032IY6,4,3
244,3,object_01,object_09,604.69999999553,6,1,912.90000000596,0.4444444444444444,2,object_06,1,3066,0,7,4,library_4,2,memory-2step-stake-s,745,3506247,0.0-19.0-0.1-0.244,A5K108EWACHK5,382GHPVPIV7ASJXQ3FB9V025S7G34H,3SBEHTYCWRJ82CRN3RB54F4O032IY6,6,5
245,3,object_01,object_09,856.69999999553,5,2,744.5,0.4444444444444444,1,object_05,1,3070,0,4,8,library_4,2,memory-2step-stake-s,746,3514661,0.0-19.0-0.1-0.245,A5K108EWACHK5,382GHPVPIV7ASJXQ3FB9V025S7G34H,3SBEHTYCWRJ82CRN3RB54F4O032IY6,6,5
246,1,object_08,object_02,793.39999999851,2,2,588.39999999851,0.8888888888888888,2,object_06,5,3110,0,3,8,desert_6,2,memory-2step-stake-s,747,3523346,0.0-19.0-0.1-0.246,A5K108EWACHK5,382GHPVPIV7ASJXQ3FB9V025S7G34H,3SBEHTYCWRJ82CRN3RB54F4O032IY6,1,2
247,3,object_01,object_09,701.19999999553,5,2,645.70000000298,0.3333333333333333,1,object_05,1,3113,0,3,7,library_4,2,memory-2step-stake-s,748,3531566,0.0-19.0-0.1-0.247,A5K108EWACHK5,382GHPVPIV7ASJXQ3FB9V025S7G34H,3SBEHTYCWRJ82CRN3RB54F4O032IY6,6,5
248,3,object_09,object_01,688.10000000149,5,1,765.20000000298,0.3333333333333333,1,object_05,5,3128,0,3,6,library_5,2,memory-2step-stake-s,749,3539903,0.0-19.0-0.1-0.248,A5K108EWACHK5,382GHPVPIV7ASJXQ3FB9V025S7G34H,3SBEHTYCWRJ82CRN3RB54F4O032IY6,5,6
249,4,object_10,object_07,1052.700000003,8,2,554.30000000447,0.5555555555555556,2,object_06,1,3133,0,4,5,restaurant_3,2,memory-2step-stake-s,750,3548235,0.0-19.0-0.1-0.249,A5K108EWACHK5,382GHPVPIV7ASJXQ3FB9V025S7G34H,3SBEHTYCWRJ82CRN3RB54F4O032IY6,7,8
250,2,object_03,object_04,1143.0,4,2,653.40000000596,0.5555555555555556,2,object_06,5,3158,0,4,5,forest_3,2,memory-2step-stake-s,751,3556666,0.0-19.0-0.1-0.250,A5K108EWACHK5,382GHPVPIV7ASJXQ3FB9V025S7G34H,3SBEHTYCWRJ82CRN3RB54F4O032IY6,3,4
251,2,object_03,object_04,748.79999999702,4,2,625.10000000149,0.5555555555555556,2,object_06,1,3163,0,2,5,forest_7,2,memory-2step-stake-s,752,3565072,0.0-19.0-0.1-0.251,A5K108EWACHK5,382GHPVPIV7ASJXQ3FB9V025S7G34H,3SBEHTYCWRJ82CRN3RB54F4O032IY6,3,4
252,1,object_02,object_08,850.29999999702,2,1,741.79999999702,0.0,2,object_06,1,3163,0,1,0,desert_5,2,memory-2step-stake-s,753,3573067,0.0-19.0-0.1-0.252,A5K108EWACHK5,382GHPVPIV7ASJXQ3FB9V025S7G34H,3SBEHTYCWRJ82CRN3RB54F4O032IY6,2,1
253,1,object_02,object_08,1019.5,2,1,738.89999999851,0.1111111111111111,2,object_06,5,3168,0,2,1,desert_5,2,memory-2step-stake-s,754,3581168,0.0-19.0-0.1-0.253,A5K108EWACHK5,382GHPVPIV7ASJXQ3FB9V025S7G34H,3SBEHTYCWRJ82CRN3RB54F4O032IY6,2,1
254,2,object_03,object_04,765.70000000298,4,2,704.39999999851,0.4444444444444444,2,object_06,5,3188,0,4,4,forest_4,2,memory-2step-stake-s,755,3589549,0.0-19.0-0.1-0.254,A5K108EWACHK5,382GHPVPIV7ASJXQ3FB9V025S7G34H,3SBEHTYCWRJ82CRN3RB54F4O032IY6,3,4
255,2,object_04,object_03,804.0,3,2,507.69999999553,0.3333333333333333,1,object_05,5,3203,0,3,3,forest_7,2,memory-2step-stake-s,756,3597634,0.0-19.0-0.1-0.255,A5K108EWACHK5,382GHPVPIV7ASJXQ3FB9V025S7G34H,3SBEHTYCWRJ82CRN3RB54F4O032IY6,4,3
