,state1,stim_left,stim_right,rt_1,choice1,response1,rt_2,points,state2,stim_state2,stake,score,practice,rews1,rews2,background,high_arm,trial_type,trial_index,time_elapsed,internal_node_id,subid,hitid,assignmentid,stim_left_num,stim_right_num
0,1,object_04,object_05,666.60000002384,2,2,426.80000007153,0.5555555555555556,2,object_06,1,5,0,1,5,desert_1,2,memory-2step-stake-s,496,883492,0.0-19.0-0.0-0.0,AOMFEAWQHU3D8,3X2LT8FDIZY82IMGP2COH9T7SM78W0,3PH3VY7DJPDQ8XLXOUH3JDMYL7CWZO,1,2
1,2,object_01,object_09,415.0,4,1,346.80000007153,0.5555555555555556,2,object_06,1,10,0,1,5,forest_4,2,memory-2step-stake-s,497,891598,0.0-19.0-0.0-0.1,AOMFEAWQHU3D8,3X2LT8FDIZY82IMGP2COH9T7SM78W0,3PH3VY7DJPDQ8XLXOUH3JDMYL7CWZO,4,3
2,2,object_01,object_09,559.39999997616,3,2,280.5,0.3333333333333333,1,object_02,1,13,0,3,7,forest_7,2,memory-2step-stake-s,498,899434,0.0-19.0-0.0-0.2,AOMFEAWQHU3D8,3X2LT8FDIZY82IMGP2COH9T7SM78W0,3PH3VY7DJPDQ8XLXOUH3JDMYL7CWZO,4,3
3,4,object_08,object_07,643.39999997616,7,2,307.40000009537,0.5555555555555556,1,object_02,1,18,0,5,7,restaurant_6,2,memory-2step-stake-s,499,907508,0.0-19.0-0.0-0.3,AOMFEAWQHU3D8,3X2LT8FDIZY82IMGP2COH9T7SM78W0,3PH3VY7DJPDQ8XLXOUH3JDMYL7CWZO,8,7
4,2,object_09,object_01,209.80000007153,3,1,434.20000004768,0.4444444444444444,1,object_02,1,22,0,4,5,forest_5,2,memory-2step-stake-s,500,915600,0.0-19.0-0.0-0.4,AOMFEAWQHU3D8,3X2LT8FDIZY82IMGP2COH9T7SM78W0,3PH3VY7DJPDQ8XLXOUH3JDMYL7CWZO,3,4
5,3,object_10,object_03,381.0,6,2,456.10000002384,0.4444444444444444,2,object_06,1,26,0,5,4,library_1,2,memory-2step-stake-s,501,923712,0.0-19.0-0.0-0.5,AOMFEAWQHU3D8,3X2LT8FDIZY82IMGP2COH9T7SM78W0,3PH3VY7DJPDQ8XLXOUH3JDMYL7CWZO,5,6
6,4,object_08,object_07,784.60000002384,7,2,244.79999995232,0.5555555555555556,1,object_02,5,51,0,5,4,restaurant_2,2,memory-2step-stake-s,502,931712,0.0-19.0-0.0-0.6,AOMFEAWQHU3D8,3X2LT8FDIZY82IMGP2COH9T7SM78W0,3PH3VY7DJPDQ8XLXOUH3JDMYL7CWZO,8,7
7,1,object_05,object_04,793.89999997616,1,2,475.5,0.6666666666666666,1,object_02,5,81,0,6,2,desert_1,2,memory-2step-stake-s,503,940049,0.0-19.0-0.0-0.7,AOMFEAWQHU3D8,3X2LT8FDIZY82IMGP2COH9T7SM78W0,3PH3VY7DJPDQ8XLXOUH3JDMYL7CWZO,2,1
8,1,object_05,object_04,274.29999995232,2,1,447.80000007153,0.4444444444444444,2,object_06,1,85,0,6,4,desert_4,2,memory-2step-stake-s,504,948141,0.0-19.0-0.0-0.8,AOMFEAWQHU3D8,3X2LT8FDIZY82IMGP2COH9T7SM78W0,3PH3VY7DJPDQ8XLXOUH3JDMYL7CWZO,2,1
9,1,object_05,object_04,528.20000004768,1,2,331.0,0.5555555555555556,1,object_02,5,110,0,5,1,desert_4,2,memory-2step-stake-s,505,956205,0.0-19.0-0.0-0.9,AOMFEAWQHU3D8,3X2LT8FDIZY82IMGP2COH9T7SM78W0,3PH3VY7DJPDQ8XLXOUH3JDMYL7CWZO,2,1
10,2,object_01,object_09,552.5,4,1,360.80000007153,0.2222222222222222,2,object_06,5,120,0,4,2,forest_4,2,memory-2step-stake-s,506,963989,0.0-19.0-0.0-0.10,AOMFEAWQHU3D8,3X2LT8FDIZY82IMGP2COH9T7SM78W0,3PH3VY7DJPDQ8XLXOUH3JDMYL7CWZO,4,3
11,4,object_08,object_07,732.89999997616,7,2,356.19999992847,0.3333333333333333,1,object_02,1,123,0,3,1,restaurant_1,2,memory-2step-stake-s,507,971884,0.0-19.0-0.0-0.11,AOMFEAWQHU3D8,3X2LT8FDIZY82IMGP2COH9T7SM78W0,3PH3VY7DJPDQ8XLXOUH3JDMYL7CWZO,8,7
12,2,object_01,object_09,289.5,3,2,370.60000002384,0.4444444444444444,1,object_02,5,143,0,4,3,forest_5,2,memory-2step-stake-s,508,979888,0.0-19.0-0.0-0.12,AOMFEAWQHU3D8,3X2LT8FDIZY82IMGP2COH9T7SM78W0,3PH3VY7DJPDQ8XLXOUH3JDMYL7CWZO,4,3
13,2,object_09,object_01,594.80000007153,4,2,321.39999997616,0.7777777777777778,2,object_06,5,178,0,7,7,forest_7,2,memory-2step-stake-s,509,988161,0.0-19.0-0.0-0.13,AOMFEAWQHU3D8,3X2LT8FDIZY82IMGP2COH9T7SM78W0,3PH3VY7DJPDQ8XLXOUH3JDMYL7CWZO,3,4
14,2,object_09,object_01,663.0,4,2,367.09999990463,0.6666666666666666,2,object_06,5,208,0,5,6,forest_4,2,memory-2step-stake-s,510,996374,0.0-19.0-0.0-0.14,AOMFEAWQHU3D8,3X2LT8FDIZY82IMGP2COH9T7SM78W0,3PH3VY7DJPDQ8XLXOUH3JDMYL7CWZO,3,4
15,1,object_04,object_05,530.70000004768,1,1,254.20000004768,0.7777777777777778,1,object_02,5,243,0,7,7,desert_2,2,memory-2step-stake-s,511,1004584,0.0-19.0-0.0-0.15,AOMFEAWQHU3D8,3X2LT8FDIZY82IMGP2COH9T7SM78W0,3PH3VY7DJPDQ8XLXOUH3JDMYL7CWZO,1,2
16,4,object_08,object_07,733.09999990463,7,2,412.19999992847,0.7777777777777778,1,object_02,1,250,0,7,5,restaurant_2,2,memory-2step-stake-s,512,1012947,0.0-19.0-0.0-0.16,AOMFEAWQHU3D8,3X2LT8FDIZY82IMGP2COH9T7SM78W0,3PH3VY7DJPDQ8XLXOUH3JDMYL7CWZO,8,7
17,4,object_08,object_07,823.79999995232,7,2,519.60000002384,0.8888888888888888,1,object_02,1,258,0,8,6,restaurant_6,2,memory-2step-stake-s,513,1021513,0.0-19.0-0.0-0.17,AOMFEAWQHU3D8,3X2LT8FDIZY82IMGP2COH9T7SM78W0,3PH3VY7DJPDQ8XLXOUH3JDMYL7CWZO,8,7
18,2,object_09,object_01,583.10000002384,4,2,262.0,0.5555555555555556,2,object_06,5,283,0,6,5,forest_6,2,memory-2step-stake-s,514,1029519,0.0-19.0-0.0-0.18,AOMFEAWQHU3D8,3X2LT8FDIZY82IMGP2COH9T7SM78W0,3PH3VY7DJPDQ8XLXOUH3JDMYL7CWZO,3,4
19,2,object_01,object_09,539.70000004768,4,1,374.19999992847,0.6666666666666666,2,object_06,5,313,0,5,6,forest_4,2,memory-2step-stake-s,515,1037746,0.0-19.0-0.0-0.19,AOMFEAWQHU3D8,3X2LT8FDIZY82IMGP2COH9T7SM78W0,3PH3VY7DJPDQ8XLXOUH3JDMYL7CWZO,4,3
20,4,object_08,object_07,785.70000004768,7,2,311.70000004768,0.5555555555555556,1,object_02,5,338,0,5,7,restaurant_2,2,memory-2step-stake-s,516,1045802,0.0-19.0-0.0-0.20,AOMFEAWQHU3D8,3X2LT8FDIZY82IMGP2COH9T7SM78W0,3PH3VY7DJPDQ8XLXOUH3JDMYL7CWZO,8,7
21,3,object_10,object_03,704.19999992847,5,1,621.5,0.2222222222222222,1,object_02,1,340,0,2,4,library_1,2,memory-2step-stake-s,517,1053857,0.0-19.0-0.0-0.21,AOMFEAWQHU3D8,3X2LT8FDIZY82IMGP2COH9T7SM78W0,3PH3VY7DJPDQ8XLXOUH3JDMYL7CWZO,5,6
22,3,object_10,object_03,966.40000009537,6,2,342.69999992847,0.5555555555555556,2,object_06,1,345,0,3,5,library_1,2,memory-2step-stake-s,518,1061935,0.0-19.0-0.0-0.22,AOMFEAWQHU3D8,3X2LT8FDIZY82IMGP2COH9T7SM78W0,3PH3VY7DJPDQ8XLXOUH3JDMYL7CWZO,5,6
23,2,object_01,object_09,560.19999992847,4,1,371.20000004768,0.5555555555555556,2,object_06,1,350,0,1,5,forest_7,2,memory-2step-stake-s,519,1070057,0.0-19.0-0.0-0.23,AOMFEAWQHU3D8,3X2LT8FDIZY82IMGP2COH9T7SM78W0,3PH3VY7DJPDQ8XLXOUH3JDMYL7CWZO,4,3
24,2,object_09,object_01,779.80000007153,3,1,385.40000009537,0.1111111111111111,1,object_02,1,351,0,1,4,forest_6,2,memory-2step-stake-s,520,1077771,0.0-19.0-0.0-0.24,AOMFEAWQHU3D8,3X2LT8FDIZY82IMGP2COH9T7SM78W0,3PH3VY7DJPDQ8XLXOUH3JDMYL7CWZO,3,4
25,3,object_10,object_03,921.29999995232,5,1,364.5,0.1111111111111111,1,object_02,1,352,0,1,5,library_6,2,memory-2step-stake-s,521,1085471,0.0-19.0-0.0-0.25,AOMFEAWQHU3D8,3X2LT8FDIZY82IMGP2COH9T7SM78W0,3PH3VY7DJPDQ8XLXOUH3JDMYL7CWZO,5,6
26,4,object_07,object_08,969.0,7,1,353.60000002384,0.1111111111111111,1,object_02,1,353,0,1,3,restaurant_1,2,memory-2step-stake-s,522,1093152,0.0-19.0-0.0-0.26,AOMFEAWQHU3D8,3X2LT8FDIZY82IMGP2COH9T7SM78W0,3PH3VY7DJPDQ8XLXOUH3JDMYL7CWZO,7,8
27,2,object_01,object_09,690.5,3,2,359.69999992847,0.1111111111111111,1,object_02,5,358,0,1,4,forest_6,2,memory-2step-stake-s,523,1100847,0.0-19.0-0.0-0.27,AOMFEAWQHU3D8,3X2LT8FDIZY82IMGP2COH9T7SM78W0,3PH3VY7DJPDQ8XLXOUH3JDMYL7CWZO,4,3
28,2,object_01,object_09,-1.0,-1,-1,-1.0,0.0,-,0,5,358,0,1,3,forest_5,2,memory-2step-stake-s,524,1107366,0.0-19.0-0.0-0.28,AOMFEAWQHU3D8,3X2LT8FDIZY82IMGP2COH9T7SM78W0,3PH3VY7DJPDQ8XLXOUH3JDMYL7CWZO,4,3
29,3,object_03,object_10,944.70000004768,6,1,345.79999995232,0.2222222222222222,2,object_06,1,360,0,1,2,library_4,2,memory-2step-stake-s,525,1115137,0.0-19.0-0.0-0.29,AOMFEAWQHU3D8,3X2LT8FDIZY82IMGP2COH9T7SM78W0,3PH3VY7DJPDQ8XLXOUH3JDMYL7CWZO,6,5
30,1,object_04,object_05,601.29999995232,2,2,215.60000002384,0.3333333333333333,2,object_06,5,375,0,2,3,desert_2,2,memory-2step-stake-s,526,1122887,0.0-19.0-0.0-0.30,AOMFEAWQHU3D8,3X2LT8FDIZY82IMGP2COH9T7SM78W0,3PH3VY7DJPDQ8XLXOUH3JDMYL7CWZO,1,2
31,2,object_01,object_09,677.60000002384,3,2,251.70000004768,0.3333333333333333,1,object_02,1,378,0,3,5,forest_4,2,memory-2step-stake-s,527,1130682,0.0-19.0-0.0-0.31,AOMFEAWQHU3D8,3X2LT8FDIZY82IMGP2COH9T7SM78W0,3PH3VY7DJPDQ8XLXOUH3JDMYL7CWZO,4,3
32,1,object_04,object_05,674.0,2,2,232.10000002384,0.7777777777777778,2,object_06,1,385,0,1,7,desert_2,2,memory-2step-stake-s,528,1138877,0.0-19.0-0.0-0.32,AOMFEAWQHU3D8,3X2LT8FDIZY82IMGP2COH9T7SM78W0,3PH3VY7DJPDQ8XLXOUH3JDMYL7CWZO,1,2
33,2,object_09,object_01,602.39999997616,3,1,283.79999995232,0.1111111111111111,1,object_02,1,386,0,1,8,forest_6,2,memory-2step-stake-s,529,1146487,0.0-19.0-0.0-0.33,AOMFEAWQHU3D8,3X2LT8FDIZY82IMGP2COH9T7SM78W0,3PH3VY7DJPDQ8XLXOUH3JDMYL7CWZO,3,4
34,2,object_09,object_01,520.19999992847,4,2,348.5,0.7777777777777778,2,object_06,5,421,0,2,7,forest_4,2,memory-2step-stake-s,530,1154796,0.0-19.0-0.0-0.34,AOMFEAWQHU3D8,3X2LT8FDIZY82IMGP2COH9T7SM78W0,3PH3VY7DJPDQ8XLXOUH3JDMYL7CWZO,3,4
35,3,object_10,object_03,923.39999997616,6,2,367.5,0.4444444444444444,2,object_06,1,425,0,0,4,library_8,2,memory-2step-stake-s,531,1162801,0.0-19.0-0.0-0.35,AOMFEAWQHU3D8,3X2LT8FDIZY82IMGP2COH9T7SM78W0,3PH3VY7DJPDQ8XLXOUH3JDMYL7CWZO,5,6
36,4,object_08,object_07,756.10000002384,8,1,715.39999997616,0.8888888888888888,2,object_06,5,465,0,0,8,restaurant_5,2,memory-2step-stake-s,532,1171581,0.0-19.0-0.0-0.36,AOMFEAWQHU3D8,3X2LT8FDIZY82IMGP2COH9T7SM78W0,3PH3VY7DJPDQ8XLXOUH3JDMYL7CWZO,8,7
37,4,object_07,object_08,580.89999997616,7,1,348.70000004768,0.1111111111111111,1,object_02,5,470,0,1,7,restaurant_5,2,memory-2step-stake-s,533,1179259,0.0-19.0-0.0-0.37,AOMFEAWQHU3D8,3X2LT8FDIZY82IMGP2COH9T7SM78W0,3PH3VY7DJPDQ8XLXOUH3JDMYL7CWZO,7,8
38,2,object_01,object_09,792.39999997616,3,2,412.20000004768,0.3333333333333333,1,object_02,5,485,0,3,8,forest_5,2,memory-2step-stake-s,534,1187212,0.0-19.0-0.0-0.38,AOMFEAWQHU3D8,3X2LT8FDIZY82IMGP2COH9T7SM78W0,3PH3VY7DJPDQ8XLXOUH3JDMYL7CWZO,4,3
39,1,object_04,object_05,770.0,2,2,402.0,0.8888888888888888,2,object_06,1,493,0,1,8,desert_1,2,memory-2step-stake-s,535,1195666,0.0-19.0-0.0-0.39,AOMFEAWQHU3D8,3X2LT8FDIZY82IMGP2COH9T7SM78W0,3PH3VY7DJPDQ8XLXOUH3JDMYL7CWZO,1,2
40,4,object_07,object_08,678.0,8,2,330.19999992847,0.5555555555555556,2,object_06,1,498,0,0,5,restaurant_2,2,memory-2step-stake-s,536,1203731,0.0-19.0-0.0-0.40,AOMFEAWQHU3D8,3X2LT8FDIZY82IMGP2COH9T7SM78W0,3PH3VY7DJPDQ8XLXOUH3JDMYL7CWZO,7,8
41,2,object_01,object_09,834.69999992847,4,1,315.0,0.2222222222222222,2,object_06,5,508,0,1,2,forest_7,2,memory-2step-stake-s,537,1211490,0.0-19.0-0.0-0.41,AOMFEAWQHU3D8,3X2LT8FDIZY82IMGP2COH9T7SM78W0,3PH3VY7DJPDQ8XLXOUH3JDMYL7CWZO,4,3
42,4,object_07,object_08,691.30000007153,8,2,568.29999995232,0.4444444444444444,2,object_06,1,512,0,1,4,restaurant_1,2,memory-2step-stake-s,538,1219703,0.0-19.0-0.0-0.42,AOMFEAWQHU3D8,3X2LT8FDIZY82IMGP2COH9T7SM78W0,3PH3VY7DJPDQ8XLXOUH3JDMYL7CWZO,7,8
43,2,object_01,object_09,645.20000004768,3,2,436.70000004768,0.2222222222222222,1,object_02,1,514,0,2,4,forest_6,2,memory-2step-stake-s,539,1227576,0.0-19.0-0.0-0.43,AOMFEAWQHU3D8,3X2LT8FDIZY82IMGP2COH9T7SM78W0,3PH3VY7DJPDQ8XLXOUH3JDMYL7CWZO,4,3
44,3,object_10,object_03,668.60000002384,6,2,258.60000002384,0.4444444444444444,2,object_06,5,534,0,5,4,library_8,2,memory-2step-stake-s,540,1235475,0.0-19.0-0.0-0.44,AOMFEAWQHU3D8,3X2LT8FDIZY82IMGP2COH9T7SM78W0,3PH3VY7DJPDQ8XLXOUH3JDMYL7CWZO,5,6
45,1,object_05,object_04,319.10000002384,2,1,542.70000004768,0.4444444444444444,2,object_06,5,554,0,4,4,desert_5,2,memory-2step-stake-s,541,1243666,0.0-19.0-0.0-0.45,AOMFEAWQHU3D8,3X2LT8FDIZY82IMGP2COH9T7SM78W0,3PH3VY7DJPDQ8XLXOUH3JDMYL7CWZO,2,1
46,3,object_03,object_10,236.79999995232,5,2,477.70000004768,0.5555555555555556,1,object_02,1,559,0,5,5,library_4,2,memory-2step-stake-s,542,1251890,0.0-19.0-0.0-0.46,AOMFEAWQHU3D8,3X2LT8FDIZY82IMGP2COH9T7SM78W0,3PH3VY7DJPDQ8XLXOUH3JDMYL7CWZO,6,5
47,4,object_08,object_07,745.89999997616,7,2,463.09999990463,0.5555555555555556,1,object_02,1,564,0,5,7,restaurant_1,2,memory-2step-stake-s,543,1260097,0.0-19.0-0.0-0.47,AOMFEAWQHU3D8,3X2LT8FDIZY82IMGP2COH9T7SM78W0,3PH3VY7DJPDQ8XLXOUH3JDMYL7CWZO,8,7
48,2,object_09,object_01,1088.9000000954,4,2,357.10000002384,0.7777777777777778,2,object_06,5,599,0,4,7,forest_6,2,memory-2step-stake-s,544,1268407,0.0-19.0-0.0-0.48,AOMFEAWQHU3D8,3X2LT8FDIZY82IMGP2COH9T7SM78W0,3PH3VY7DJPDQ8XLXOUH3JDMYL7CWZO,3,4
49,2,object_09,object_01,1008.6000000238,4,2,518.5,0.8888888888888888,2,object_06,5,639,0,5,8,forest_6,2,memory-2step-stake-s,545,1276978,0.0-19.0-0.0-0.49,AOMFEAWQHU3D8,3X2LT8FDIZY82IMGP2COH9T7SM78W0,3PH3VY7DJPDQ8XLXOUH3JDMYL7CWZO,3,4
50,1,object_05,object_04,738.60000002384,1,2,434.19999992847,0.6666666666666666,1,object_02,5,669,0,6,8,desert_2,2,memory-2step-stake-s,546,1285269,0.0-19.0-0.0-0.50,AOMFEAWQHU3D8,3X2LT8FDIZY82IMGP2COH9T7SM78W0,3PH3VY7DJPDQ8XLXOUH3JDMYL7CWZO,2,1
51,2,object_09,object_01,907.0,4,2,701.5,1.0,2,object_06,5,714,0,5,9,forest_6,2,memory-2step-stake-s,547,1294141,0.0-19.0-0.0-0.51,AOMFEAWQHU3D8,3X2LT8FDIZY82IMGP2COH9T7SM78W0,3PH3VY7DJPDQ8XLXOUH3JDMYL7CWZO,3,4
52,2,object_09,object_01,640.20000004768,4,2,463.30000007153,0.6666666666666666,2,object_06,5,744,0,5,6,forest_7,2,memory-2step-stake-s,548,1302452,0.0-19.0-0.0-0.52,AOMFEAWQHU3D8,3X2LT8FDIZY82IMGP2COH9T7SM78W0,3PH3VY7DJPDQ8XLXOUH3JDMYL7CWZO,3,4
53,1,object_05,object_04,873.59999990463,1,2,464.90000009537,0.4444444444444444,1,object_02,5,764,0,4,8,desert_2,2,memory-2step-stake-s,549,1310564,0.0-19.0-0.0-0.53,AOMFEAWQHU3D8,3X2LT8FDIZY82IMGP2COH9T7SM78W0,3PH3VY7DJPDQ8XLXOUH3JDMYL7CWZO,2,1
54,1,object_04,object_05,987.29999995232,1,1,446.20000004768,0.6666666666666666,1,object_02,1,770,0,6,8,desert_2,2,memory-2step-stake-s,550,1318856,0.0-19.0-0.0-0.54,AOMFEAWQHU3D8,3X2LT8FDIZY82IMGP2COH9T7SM78W0,3PH3VY7DJPDQ8XLXOUH3JDMYL7CWZO,1,2
55,1,object_05,object_04,663.70000004768,1,2,542.0,0.7777777777777778,1,object_02,1,777,0,7,6,desert_5,2,memory-2step-stake-s,551,1327356,0.0-19.0-0.0-0.55,AOMFEAWQHU3D8,3X2LT8FDIZY82IMGP2COH9T7SM78W0,3PH3VY7DJPDQ8XLXOUH3JDMYL7CWZO,2,1
56,3,object_10,object_03,848.69999992847,5,1,283.60000002384,0.8888888888888888,1,object_02,5,817,0,8,8,library_8,2,memory-2step-stake-s,552,1335706,0.0-19.0-0.0-0.56,AOMFEAWQHU3D8,3X2LT8FDIZY82IMGP2COH9T7SM78W0,3PH3VY7DJPDQ8XLXOUH3JDMYL7CWZO,5,6
57,1,object_04,object_05,837.60000002384,1,1,773.39999997616,1.0,1,object_02,5,862,0,9,6,desert_2,2,memory-2step-stake-s,553,1344647,0.0-19.0-0.0-0.57,AOMFEAWQHU3D8,3X2LT8FDIZY82IMGP2COH9T7SM78W0,3PH3VY7DJPDQ8XLXOUH3JDMYL7CWZO,1,2
58,1,object_04,object_05,686.20000004768,1,1,257.5,0.8888888888888888,1,object_02,1,870,0,8,4,desert_4,2,memory-2step-stake-s,554,1352963,0.0-19.0-0.0-0.58,AOMFEAWQHU3D8,3X2LT8FDIZY82IMGP2COH9T7SM78W0,3PH3VY7DJPDQ8XLXOUH3JDMYL7CWZO,1,2
59,1,object_05,object_04,680.5,1,2,360.70000004768,0.8888888888888888,1,object_02,5,910,0,8,1,desert_5,2,memory-2step-stake-s,555,1361393,0.0-19.0-0.0-0.59,AOMFEAWQHU3D8,3X2LT8FDIZY82IMGP2COH9T7SM78W0,3PH3VY7DJPDQ8XLXOUH3JDMYL7CWZO,2,1
60,4,object_08,object_07,741.79999995232,7,2,394.40000009537,0.8888888888888888,1,object_02,1,918,0,8,2,restaurant_2,2,memory-2step-stake-s,556,1369838,0.0-19.0-0.0-0.60,AOMFEAWQHU3D8,3X2LT8FDIZY82IMGP2COH9T7SM78W0,3PH3VY7DJPDQ8XLXOUH3JDMYL7CWZO,8,7
61,1,object_05,object_04,565.79999995232,1,2,327.19999992847,0.6666666666666666,1,object_02,5,948,0,6,4,desert_1,2,memory-2step-stake-s,557,1378008,0.0-19.0-0.0-0.61,AOMFEAWQHU3D8,3X2LT8FDIZY82IMGP2COH9T7SM78W0,3PH3VY7DJPDQ8XLXOUH3JDMYL7CWZO,2,1
62,1,object_05,object_04,550.5,1,2,314.19999992847,0.4444444444444444,1,object_02,5,968,0,4,6,desert_4,2,memory-2step-stake-s,558,1385968,0.0-19.0-0.0-0.62,AOMFEAWQHU3D8,3X2LT8FDIZY82IMGP2COH9T7SM78W0,3PH3VY7DJPDQ8XLXOUH3JDMYL7CWZO,2,1
63,1,object_04,object_05,580.30000007153,2,2,215.60000002384,0.7777777777777778,2,object_06,5,1003,0,4,7,desert_1,2,memory-2step-stake-s,559,1394137,0.0-19.0-0.0-0.63,AOMFEAWQHU3D8,3X2LT8FDIZY82IMGP2COH9T7SM78W0,3PH3VY7DJPDQ8XLXOUH3JDMYL7CWZO,1,2
64,4,object_08,object_07,654.30000007153,7,2,570.60000002384,0.5555555555555556,1,object_02,1,1008,0,5,7,restaurant_1,2,memory-2step-stake-s,560,1402446,0.0-19.0-0.0-0.64,AOMFEAWQHU3D8,3X2LT8FDIZY82IMGP2COH9T7SM78W0,3PH3VY7DJPDQ8XLXOUH3JDMYL7CWZO,8,7
65,3,object_10,object_03,621.0,6,2,537.30000007153,0.7777777777777778,2,object_06,1,1015,0,3,7,library_4,2,memory-2step-stake-s,561,1410937,0.0-19.0-0.0-0.65,AOMFEAWQHU3D8,3X2LT8FDIZY82IMGP2COH9T7SM78W0,3PH3VY7DJPDQ8XLXOUH3JDMYL7CWZO,5,6
66,2,object_09,object_01,515.0,3,1,381.0,0.4444444444444444,1,object_02,5,1035,0,4,5,forest_5,2,memory-2step-stake-s,562,1418974,0.0-19.0-0.0-0.66,AOMFEAWQHU3D8,3X2LT8FDIZY82IMGP2COH9T7SM78W0,3PH3VY7DJPDQ8XLXOUH3JDMYL7CWZO,3,4
67,3,object_10,object_03,617.70000004768,6,2,300.0,0.5555555555555556,2,object_06,1,1040,0,4,5,library_6,2,memory-2step-stake-s,563,1427023,0.0-19.0-0.0-0.67,AOMFEAWQHU3D8,3X2LT8FDIZY82IMGP2COH9T7SM78W0,3PH3VY7DJPDQ8XLXOUH3JDMYL7CWZO,5,6
68,1,object_05,object_04,671.79999995232,1,2,500.39999997616,0.1111111111111111,1,object_02,5,1045,0,1,3,desert_5,2,memory-2step-stake-s,564,1434866,0.0-19.0-0.0-0.68,AOMFEAWQHU3D8,3X2LT8FDIZY82IMGP2COH9T7SM78W0,3PH3VY7DJPDQ8XLXOUH3JDMYL7CWZO,2,1
69,1,object_04,object_05,356.09999990463,1,1,427.69999992847,0.1111111111111111,1,object_02,1,1046,0,1,3,desert_5,2,memory-2step-stake-s,565,1442630,0.0-19.0-0.0-0.69,AOMFEAWQHU3D8,3X2LT8FDIZY82IMGP2COH9T7SM78W0,3PH3VY7DJPDQ8XLXOUH3JDMYL7CWZO,1,2
70,2,object_09,object_01,642.20000004768,4,2,262.60000002384,0.0,2,object_06,5,1046,0,3,0,forest_5,2,memory-2step-stake-s,566,1450114,0.0-19.0-0.0-0.70,AOMFEAWQHU3D8,3X2LT8FDIZY82IMGP2COH9T7SM78W0,3PH3VY7DJPDQ8XLXOUH3JDMYL7CWZO,3,4
71,2,object_09,object_01,574.70000004768,3,1,249.89999997616,0.1111111111111111,1,object_02,1,1047,0,1,1,forest_4,2,memory-2step-stake-s,567,1457704,0.0-19.0-0.0-0.71,AOMFEAWQHU3D8,3X2LT8FDIZY82IMGP2COH9T7SM78W0,3PH3VY7DJPDQ8XLXOUH3JDMYL7CWZO,3,4
72,3,object_10,object_03,845.10000002384,5,1,278.89999997616,0.1111111111111111,1,object_02,1,1048,0,1,4,library_1,2,memory-2step-stake-s,568,1465320,0.0-19.0-0.0-0.72,AOMFEAWQHU3D8,3X2LT8FDIZY82IMGP2COH9T7SM78W0,3PH3VY7DJPDQ8XLXOUH3JDMYL7CWZO,5,6
73,3,object_10,object_03,684.79999995232,6,2,317.29999995232,0.2222222222222222,2,object_06,1,1050,0,1,2,library_6,2,memory-2step-stake-s,569,1473080,0.0-19.0-0.0-0.73,AOMFEAWQHU3D8,3X2LT8FDIZY82IMGP2COH9T7SM78W0,3PH3VY7DJPDQ8XLXOUH3JDMYL7CWZO,5,6
74,4,object_07,object_08,713.39999997616,8,2,330.10000002384,0.0,2,object_06,1,1050,0,3,0,restaurant_2,2,memory-2step-stake-s,570,1480645,0.0-19.0-0.0-0.74,AOMFEAWQHU3D8,3X2LT8FDIZY82IMGP2COH9T7SM78W0,3PH3VY7DJPDQ8XLXOUH3JDMYL7CWZO,7,8
75,3,object_10,object_03,623.5,5,1,447.39999997616,0.5555555555555556,1,object_02,1,1055,0,5,0,library_1,2,memory-2step-stake-s,571,1488838,0.0-19.0-0.0-0.75,AOMFEAWQHU3D8,3X2LT8FDIZY82IMGP2COH9T7SM78W0,3PH3VY7DJPDQ8XLXOUH3JDMYL7CWZO,5,6
76,3,object_10,object_03,699.20000004768,5,1,82.800000071526,0.6666666666666666,1,object_02,1,1061,0,6,1,library_6,2,memory-2step-stake-s,572,1496771,0.0-19.0-0.0-0.76,AOMFEAWQHU3D8,3X2LT8FDIZY82IMGP2COH9T7SM78W0,3PH3VY7DJPDQ8XLXOUH3JDMYL7CWZO,5,6
77,3,object_10,object_03,601.40000009537,5,1,189.09999990463,0.4444444444444444,1,object_02,5,1081,0,4,4,library_6,2,memory-2step-stake-s,573,1504606,0.0-19.0-0.0-0.77,AOMFEAWQHU3D8,3X2LT8FDIZY82IMGP2COH9T7SM78W0,3PH3VY7DJPDQ8XLXOUH3JDMYL7CWZO,5,6
78,2,object_09,object_01,939.5,3,1,630.39999997616,0.4444444444444444,1,object_02,5,1101,0,4,3,forest_7,2,memory-2step-stake-s,574,1512873,0.0-19.0-0.0-0.78,AOMFEAWQHU3D8,3X2LT8FDIZY82IMGP2COH9T7SM78W0,3PH3VY7DJPDQ8XLXOUH3JDMYL7CWZO,3,4
79,1,object_04,object_05,935.5,1,1,290.70000004768,0.6666666666666666,1,object_02,5,1131,0,6,2,desert_5,2,memory-2step-stake-s,575,1521014,0.0-19.0-0.0-0.79,AOMFEAWQHU3D8,3X2LT8FDIZY82IMGP2COH9T7SM78W0,3PH3VY7DJPDQ8XLXOUH3JDMYL7CWZO,1,2
80,3,object_10,object_03,1013.3999999762,6,2,430.60000002384,0.2222222222222222,2,object_06,5,1141,0,7,2,library_4,2,memory-2step-stake-s,576,1528889,0.0-19.0-0.0-0.80,AOMFEAWQHU3D8,3X2LT8FDIZY82IMGP2COH9T7SM78W0,3PH3VY7DJPDQ8XLXOUH3JDMYL7CWZO,5,6
81,4,object_07,object_08,737.39999997616,7,1,-1.0,0.0,1,object_02,5,1141,0,8,0,restaurant_5,2,memory-2step-stake-s,577,1537424,0.0-19.0-0.0-0.81,AOMFEAWQHU3D8,3X2LT8FDIZY82IMGP2COH9T7SM78W0,3PH3VY7DJPDQ8XLXOUH3JDMYL7CWZO,7,8
82,2,object_09,object_01,449.10000002384,4,2,412.19999992847,0.0,2,object_06,5,1141,0,7,0,forest_4,2,memory-2step-stake-s,578,1545069,0.0-19.0-0.0-0.82,AOMFEAWQHU3D8,3X2LT8FDIZY82IMGP2COH9T7SM78W0,3PH3VY7DJPDQ8XLXOUH3JDMYL7CWZO,3,4
83,4,object_07,object_08,696.60000002384,7,1,432.0,0.8888888888888888,1,object_02,1,1149,0,8,3,restaurant_1,2,memory-2step-stake-s,579,1553569,0.0-19.0-0.0-0.83,AOMFEAWQHU3D8,3X2LT8FDIZY82IMGP2COH9T7SM78W0,3PH3VY7DJPDQ8XLXOUH3JDMYL7CWZO,7,8
84,2,object_09,object_01,732.29999995232,3,1,407.20000004768,0.8888888888888888,1,object_02,5,1189,0,8,2,forest_5,2,memory-2step-stake-s,580,1562042,0.0-19.0-0.0-0.84,AOMFEAWQHU3D8,3X2LT8FDIZY82IMGP2COH9T7SM78W0,3PH3VY7DJPDQ8XLXOUH3JDMYL7CWZO,3,4
85,4,object_07,object_08,812.89999997616,7,1,420.59999990463,0.6666666666666666,1,object_02,5,1219,0,6,1,restaurant_6,2,memory-2step-stake-s,581,1570310,0.0-19.0-0.0-0.85,AOMFEAWQHU3D8,3X2LT8FDIZY82IMGP2COH9T7SM78W0,3PH3VY7DJPDQ8XLXOUH3JDMYL7CWZO,7,8
86,4,object_07,object_08,684.60000002384,7,1,365.29999995232,0.8888888888888888,1,object_02,1,1227,0,8,6,restaurant_2,2,memory-2step-stake-s,582,1578734,0.0-19.0-0.0-0.86,AOMFEAWQHU3D8,3X2LT8FDIZY82IMGP2COH9T7SM78W0,3PH3VY7DJPDQ8XLXOUH3JDMYL7CWZO,7,8
87,2,object_01,object_09,925.30000007153,3,2,332.69999992847,0.6666666666666666,1,object_02,1,1233,0,6,2,forest_4,2,memory-2step-stake-s,583,1586916,0.0-19.0-0.0-0.87,AOMFEAWQHU3D8,3X2LT8FDIZY82IMGP2COH9T7SM78W0,3PH3VY7DJPDQ8XLXOUH3JDMYL7CWZO,4,3
88,1,object_05,object_04,1013.6000000238,2,1,307.60000002384,0.4444444444444444,2,object_06,5,1253,0,7,4,desert_2,2,memory-2step-stake-s,584,1594861,0.0-19.0-0.0-0.88,AOMFEAWQHU3D8,3X2LT8FDIZY82IMGP2COH9T7SM78W0,3PH3VY7DJPDQ8XLXOUH3JDMYL7CWZO,2,1
89,1,object_04,object_05,1020.5,1,1,356.0,0.6666666666666666,1,object_02,5,1283,0,6,6,desert_4,2,memory-2step-stake-s,585,1603065,0.0-19.0-0.0-0.89,AOMFEAWQHU3D8,3X2LT8FDIZY82IMGP2COH9T7SM78W0,3PH3VY7DJPDQ8XLXOUH3JDMYL7CWZO,1,2
90,3,object_03,object_10,679.70000004768,5,2,247.89999997616,0.5555555555555556,1,object_02,5,1308,0,5,2,library_8,2,memory-2step-stake-s,586,1611059,0.0-19.0-0.0-0.90,AOMFEAWQHU3D8,3X2LT8FDIZY82IMGP2COH9T7SM78W0,3PH3VY7DJPDQ8XLXOUH3JDMYL7CWZO,6,5
91,3,object_10,object_03,406.40000009537,5,1,263.90000009537,0.4444444444444444,1,object_02,1,1312,0,4,5,library_6,2,memory-2step-stake-s,587,1618970,0.0-19.0-0.0-0.91,AOMFEAWQHU3D8,3X2LT8FDIZY82IMGP2COH9T7SM78W0,3PH3VY7DJPDQ8XLXOUH3JDMYL7CWZO,5,6
92,4,object_07,object_08,557.0,7,1,286.40000009537,0.1111111111111111,1,object_02,1,1313,0,1,5,restaurant_6,2,memory-2step-stake-s,588,1626591,0.0-19.0-0.0-0.92,AOMFEAWQHU3D8,3X2LT8FDIZY82IMGP2COH9T7SM78W0,3PH3VY7DJPDQ8XLXOUH3JDMYL7CWZO,7,8
93,1,object_04,object_05,633.10000002384,2,2,242.5,0.8888888888888888,2,object_06,5,1353,0,2,8,desert_4,2,memory-2step-stake-s,589,1634896,0.0-19.0-0.0-0.93,AOMFEAWQHU3D8,3X2LT8FDIZY82IMGP2COH9T7SM78W0,3PH3VY7DJPDQ8XLXOUH3JDMYL7CWZO,1,2
94,3,object_03,object_10,605.70000004768,6,1,428.10000002384,0.6666666666666666,2,object_06,1,1359,0,1,6,library_6,2,memory-2step-stake-s,590,1643178,0.0-19.0-0.0-0.94,AOMFEAWQHU3D8,3X2LT8FDIZY82IMGP2COH9T7SM78W0,3PH3VY7DJPDQ8XLXOUH3JDMYL7CWZO,6,5
95,2,object_09,object_01,722.29999995232,3,1,220.10000002384,0.4444444444444444,1,object_02,5,1379,0,4,4,forest_5,2,memory-2step-stake-s,591,1651040,0.0-19.0-0.0-0.95,AOMFEAWQHU3D8,3X2LT8FDIZY82IMGP2COH9T7SM78W0,3PH3VY7DJPDQ8XLXOUH3JDMYL7CWZO,3,4
96,4,object_07,object_08,-1.0,-1,-1,-1.0,0.0,-,0,1,1379,0,4,3,restaurant_5,2,memory-2step-stake-s,592,1657566,0.0-19.0-0.0-0.96,AOMFEAWQHU3D8,3X2LT8FDIZY82IMGP2COH9T7SM78W0,3PH3VY7DJPDQ8XLXOUH3JDMYL7CWZO,7,8
97,3,object_03,object_10,606.0,5,2,393.10000002384,0.4444444444444444,1,object_02,5,1399,0,4,4,library_1,2,memory-2step-stake-s,593,1665600,0.0-19.0-0.0-0.97,AOMFEAWQHU3D8,3X2LT8FDIZY82IMGP2COH9T7SM78W0,3PH3VY7DJPDQ8XLXOUH3JDMYL7CWZO,6,5
98,3,object_10,object_03,559.70000004768,5,1,292.5,0.5555555555555556,1,object_02,5,1424,0,5,7,library_4,2,memory-2step-stake-s,594,1673640,0.0-19.0-0.0-0.98,AOMFEAWQHU3D8,3X2LT8FDIZY82IMGP2COH9T7SM78W0,3PH3VY7DJPDQ8XLXOUH3JDMYL7CWZO,5,6
99,1,object_04,object_05,678.79999995232,2,2,253.29999995232,0.8888888888888888,2,object_06,5,1464,0,8,8,desert_1,2,memory-2step-stake-s,595,1681955,0.0-19.0-0.0-0.99,AOMFEAWQHU3D8,3X2LT8FDIZY82IMGP2COH9T7SM78W0,3PH3VY7DJPDQ8XLXOUH3JDMYL7CWZO,1,2
100,1,object_04,object_05,816.60000002384,2,2,233.19999992847,0.8888888888888888,2,object_06,5,1504,0,7,8,desert_5,2,memory-2step-stake-s,596,1690266,0.0-19.0-0.0-0.100,AOMFEAWQHU3D8,3X2LT8FDIZY82IMGP2COH9T7SM78W0,3PH3VY7DJPDQ8XLXOUH3JDMYL7CWZO,1,2
101,3,object_03,object_10,626.60000002384,6,1,333.30000007153,0.6666666666666666,2,object_06,1,1510,0,8,6,library_4,2,memory-2step-stake-s,597,1698456,0.0-19.0-0.0-0.101,AOMFEAWQHU3D8,3X2LT8FDIZY82IMGP2COH9T7SM78W0,3PH3VY7DJPDQ8XLXOUH3JDMYL7CWZO,6,5
102,3,object_03,object_10,739.10000002384,5,2,324.39999997616,0.7777777777777778,1,object_02,1,1517,0,7,8,library_8,2,memory-2step-stake-s,598,1706726,0.0-19.0-0.0-0.102,AOMFEAWQHU3D8,3X2LT8FDIZY82IMGP2COH9T7SM78W0,3PH3VY7DJPDQ8XLXOUH3JDMYL7CWZO,6,5
103,3,object_10,object_03,566.10000002384,5,1,249.19999992847,0.7777777777777778,1,object_02,1,1524,0,7,7,library_8,2,memory-2step-stake-s,599,1714929,0.0-19.0-0.0-0.103,AOMFEAWQHU3D8,3X2LT8FDIZY82IMGP2COH9T7SM78W0,3PH3VY7DJPDQ8XLXOUH3JDMYL7CWZO,5,6
104,4,object_08,object_07,739.90000009537,8,1,369.20000004768,1.0,2,object_06,1,1533,0,8,9,restaurant_2,2,memory-2step-stake-s,600,1723442,0.0-19.0-0.0-0.104,AOMFEAWQHU3D8,3X2LT8FDIZY82IMGP2COH9T7SM78W0,3PH3VY7DJPDQ8XLXOUH3JDMYL7CWZO,8,7
105,1,object_04,object_05,858.0,2,2,180.5,1.0,2,object_06,5,1578,0,8,9,desert_5,2,memory-2step-stake-s,601,1731766,0.0-19.0-0.0-0.105,AOMFEAWQHU3D8,3X2LT8FDIZY82IMGP2COH9T7SM78W0,3PH3VY7DJPDQ8XLXOUH3JDMYL7CWZO,1,2
106,2,object_09,object_01,624.29999995232,4,2,455.89999997616,0.6666666666666666,2,object_06,5,1608,0,7,6,forest_6,2,memory-2step-stake-s,602,1740054,0.0-19.0-0.0-0.106,AOMFEAWQHU3D8,3X2LT8FDIZY82IMGP2COH9T7SM78W0,3PH3VY7DJPDQ8XLXOUH3JDMYL7CWZO,3,4
107,4,object_07,object_08,692.69999992847,7,1,8.5,0.4444444444444444,1,object_02,5,1628,0,4,6,restaurant_5,2,memory-2step-stake-s,603,1747706,0.0-19.0-0.0-0.107,AOMFEAWQHU3D8,3X2LT8FDIZY82IMGP2COH9T7SM78W0,3PH3VY7DJPDQ8XLXOUH3JDMYL7CWZO,7,8
108,2,object_09,object_01,480.10000002384,4,2,297.90000009537,0.7777777777777778,2,object_06,5,1663,0,4,7,forest_6,2,memory-2step-stake-s,604,1755950,0.0-19.0-0.0-0.108,AOMFEAWQHU3D8,3X2LT8FDIZY82IMGP2COH9T7SM78W0,3PH3VY7DJPDQ8XLXOUH3JDMYL7CWZO,3,4
109,3,object_03,object_10,588.20000004768,5,2,727.5,0.3333333333333333,1,object_02,5,1678,0,3,7,library_1,2,memory-2step-stake-s,605,1764203,0.0-19.0-0.0-0.109,AOMFEAWQHU3D8,3X2LT8FDIZY82IMGP2COH9T7SM78W0,3PH3VY7DJPDQ8XLXOUH3JDMYL7CWZO,6,5
110,2,object_01,object_09,450.60000002384,3,2,244.89999997616,0.5555555555555556,1,object_02,5,1703,0,5,9,forest_7,2,memory-2step-stake-s,606,1772191,0.0-19.0-0.0-0.110,AOMFEAWQHU3D8,3X2LT8FDIZY82IMGP2COH9T7SM78W0,3PH3VY7DJPDQ8XLXOUH3JDMYL7CWZO,4,3
111,1,object_04,object_05,631.40000009537,2,2,259.20000004768,0.7777777777777778,2,object_06,5,1738,0,7,7,desert_1,2,memory-2step-stake-s,607,1780401,0.0-19.0-0.0-0.111,AOMFEAWQHU3D8,3X2LT8FDIZY82IMGP2COH9T7SM78W0,3PH3VY7DJPDQ8XLXOUH3JDMYL7CWZO,1,2
112,3,object_10,object_03,589.5,5,1,925.70000004768,0.5555555555555556,1,object_02,1,1743,0,5,6,library_1,2,memory-2step-stake-s,608,1789070,0.0-19.0-0.0-0.112,AOMFEAWQHU3D8,3X2LT8FDIZY82IMGP2COH9T7SM78W0,3PH3VY7DJPDQ8XLXOUH3JDMYL7CWZO,5,6
113,4,object_07,object_08,600.39999997616,7,1,20.599999904633,0.4444444444444444,1,object_02,5,1763,0,4,5,restaurant_6,2,memory-2step-stake-s,609,1796726,0.0-19.0-0.0-0.113,AOMFEAWQHU3D8,3X2LT8FDIZY82IMGP2COH9T7SM78W0,3PH3VY7DJPDQ8XLXOUH3JDMYL7CWZO,7,8
114,2,object_09,object_01,426.60000002384,4,2,519.10000002384,0.5555555555555556,2,object_06,1,1768,0,6,5,forest_7,2,memory-2step-stake-s,610,1804987,0.0-19.0-0.0-0.114,AOMFEAWQHU3D8,3X2LT8FDIZY82IMGP2COH9T7SM78W0,3PH3VY7DJPDQ8XLXOUH3JDMYL7CWZO,3,4
115,1,object_05,object_04,580.10000002384,1,2,411.0,0.5555555555555556,1,object_02,5,1793,0,5,6,desert_4,2,memory-2step-stake-s,611,1813144,0.0-19.0-0.0-0.115,AOMFEAWQHU3D8,3X2LT8FDIZY82IMGP2COH9T7SM78W0,3PH3VY7DJPDQ8XLXOUH3JDMYL7CWZO,2,1
116,4,object_07,object_08,359.90000009537,7,1,233.39999997616,0.6666666666666666,1,object_02,1,1799,0,6,7,restaurant_5,2,memory-2step-stake-s,612,1821215,0.0-19.0-0.0-0.116,AOMFEAWQHU3D8,3X2LT8FDIZY82IMGP2COH9T7SM78W0,3PH3VY7DJPDQ8XLXOUH3JDMYL7CWZO,7,8
117,3,object_10,object_03,612.60000002384,5,1,140.10000002384,0.8888888888888888,1,object_02,1,1807,0,8,6,library_4,2,memory-2step-stake-s,613,1829401,0.0-19.0-0.0-0.117,AOMFEAWQHU3D8,3X2LT8FDIZY82IMGP2COH9T7SM78W0,3PH3VY7DJPDQ8XLXOUH3JDMYL7CWZO,5,6
118,3,object_03,object_10,463.0,5,2,257.89999997616,0.7777777777777778,1,object_02,1,1814,0,7,4,library_6,2,memory-2step-stake-s,614,1837613,0.0-19.0-0.0-0.118,AOMFEAWQHU3D8,3X2LT8FDIZY82IMGP2COH9T7SM78W0,3PH3VY7DJPDQ8XLXOUH3JDMYL7CWZO,6,5
119,4,object_07,object_08,490.70000004768,7,1,171.29999995232,0.7777777777777778,1,object_02,1,1821,0,7,6,restaurant_6,2,memory-2step-stake-s,615,1845741,0.0-19.0-0.0-0.119,AOMFEAWQHU3D8,3X2LT8FDIZY82IMGP2COH9T7SM78W0,3PH3VY7DJPDQ8XLXOUH3JDMYL7CWZO,7,8
120,4,object_08,object_07,756.69999992847,7,2,381.89999997616,0.7777777777777778,1,object_02,5,1856,0,7,5,restaurant_5,2,memory-2step-stake-s,616,1854066,0.0-19.0-0.0-0.120,AOMFEAWQHU3D8,3X2LT8FDIZY82IMGP2COH9T7SM78W0,3PH3VY7DJPDQ8XLXOUH3JDMYL7CWZO,8,7
121,3,object_10,object_03,464.0,5,1,245.20000004768,0.5555555555555556,1,object_02,1,1861,0,5,5,library_6,2,memory-2step-stake-s,617,1862055,0.0-19.0-0.0-0.121,AOMFEAWQHU3D8,3X2LT8FDIZY82IMGP2COH9T7SM78W0,3PH3VY7DJPDQ8XLXOUH3JDMYL7CWZO,5,6
122,2,object_01,object_09,613.0,4,1,314.40000009537,0.3333333333333333,2,object_06,5,1876,0,3,3,forest_4,2,memory-2step-stake-s,618,1869913,0.0-19.0-0.0-0.122,AOMFEAWQHU3D8,3X2LT8FDIZY82IMGP2COH9T7SM78W0,3PH3VY7DJPDQ8XLXOUH3JDMYL7CWZO,4,3
123,2,object_09,object_01,867.29999995232,3,1,661.30000007153,0.2222222222222222,1,object_02,5,1886,0,2,1,forest_5,2,memory-2step-stake-s,619,1878012,0.0-19.0-0.0-0.123,AOMFEAWQHU3D8,3X2LT8FDIZY82IMGP2COH9T7SM78W0,3PH3VY7DJPDQ8XLXOUH3JDMYL7CWZO,3,4
124,2,object_01,object_09,1153.5,3,2,202.69999992847,0.3333333333333333,1,object_02,1,1889,0,3,0,forest_7,2,memory-2step-stake-s,620,1885746,0.0-19.0-0.0-0.124,AOMFEAWQHU3D8,3X2LT8FDIZY82IMGP2COH9T7SM78W0,3PH3VY7DJPDQ8XLXOUH3JDMYL7CWZO,4,3
125,1,object_04,object_05,921.20000004768,1,1,285.20000004768,0.6666666666666666,1,object_02,5,1919,0,6,0,desert_4,2,memory-2step-stake-s,621,1893884,0.0-19.0-0.0-0.125,AOMFEAWQHU3D8,3X2LT8FDIZY82IMGP2COH9T7SM78W0,3PH3VY7DJPDQ8XLXOUH3JDMYL7CWZO,1,2
126,3,object_10,object_03,970.60000002384,6,2,194.20000004768,0.0,2,object_06,1,1919,0,8,0,library_8,2,memory-2step-stake-s,622,1901297,0.0-19.0-0.0-0.126,AOMFEAWQHU3D8,3X2LT8FDIZY82IMGP2COH9T7SM78W0,3PH3VY7DJPDQ8XLXOUH3JDMYL7CWZO,5,6
127,2,object_09,object_01,630.30000007153,3,1,753.09999990463,0.3333333333333333,1,object_02,1,1922,0,3,1,forest_5,2,memory-2step-stake-s,623,1909583,0.0-19.0-0.0-0.127,AOMFEAWQHU3D8,3X2LT8FDIZY82IMGP2COH9T7SM78W0,3PH3VY7DJPDQ8XLXOUH3JDMYL7CWZO,3,4
128,3,object_10,object_03,518.70000004768,5,1,230.60000002384,0.4444444444444444,1,object_02,1,1926,0,4,0,library_4,2,memory-2step-stake-s,625,4573199,0.0-19.0-0.1-0.128,AOMFEAWQHU3D8,3X2LT8FDIZY82IMGP2COH9T7SM78W0,3PH3VY7DJPDQ8XLXOUH3JDMYL7CWZO,5,6
129,1,object_05,object_04,461.40000009537,1,2,278.0,0.6666666666666666,1,object_02,5,1956,0,6,7,desert_4,2,memory-2step-stake-s,626,4581322,0.0-19.0-0.1-0.129,AOMFEAWQHU3D8,3X2LT8FDIZY82IMGP2COH9T7SM78W0,3PH3VY7DJPDQ8XLXOUH3JDMYL7CWZO,2,1
130,2,object_09,object_01,656.69999992847,4,2,306.5,0.8888888888888888,2,object_06,5,1996,0,2,8,forest_7,2,memory-2step-stake-s,627,4589686,0.0-19.0-0.1-0.130,AOMFEAWQHU3D8,3X2LT8FDIZY82IMGP2COH9T7SM78W0,3PH3VY7DJPDQ8XLXOUH3JDMYL7CWZO,3,4
131,1,object_04,object_05,507.30000007153,1,1,511.29999995232,0.2222222222222222,1,object_02,5,2006,0,2,7,desert_4,2,memory-2step-stake-s,628,4597630,0.0-19.0-0.1-0.131,AOMFEAWQHU3D8,3X2LT8FDIZY82IMGP2COH9T7SM78W0,3PH3VY7DJPDQ8XLXOUH3JDMYL7CWZO,1,2
132,1,object_05,object_04,474.5,1,2,267.89999997616,0.3333333333333333,1,object_02,1,2009,0,3,6,desert_2,2,memory-2step-stake-s,629,4605429,0.0-19.0-0.1-0.132,AOMFEAWQHU3D8,3X2LT8FDIZY82IMGP2COH9T7SM78W0,3PH3VY7DJPDQ8XLXOUH3JDMYL7CWZO,2,1
133,2,object_09,object_01,508.30000007153,4,2,289.5,0.5555555555555556,2,object_06,5,2034,0,1,5,forest_7,2,memory-2step-stake-s,630,4613451,0.0-19.0-0.1-0.133,AOMFEAWQHU3D8,3X2LT8FDIZY82IMGP2COH9T7SM78W0,3PH3VY7DJPDQ8XLXOUH3JDMYL7CWZO,3,4
134,1,object_04,object_05,561.10000002384,1,1,221.79999995232,0.1111111111111111,1,object_02,5,2039,0,1,4,desert_4,2,memory-2step-stake-s,631,4621176,0.0-19.0-0.1-0.134,AOMFEAWQHU3D8,3X2LT8FDIZY82IMGP2COH9T7SM78W0,3PH3VY7DJPDQ8XLXOUH3JDMYL7CWZO,1,2
135,4,object_07,object_08,252.0,8,2,341.80000007153,0.4444444444444444,2,object_06,1,2043,0,2,4,restaurant_6,2,memory-2step-stake-s,632,4629156,0.0-19.0-0.1-0.135,AOMFEAWQHU3D8,3X2LT8FDIZY82IMGP2COH9T7SM78W0,3PH3VY7DJPDQ8XLXOUH3JDMYL7CWZO,7,8
136,4,object_07,object_08,468.69999992847,7,1,709.60000002384,0.4444444444444444,1,object_02,1,2047,0,4,4,restaurant_6,2,memory-2step-stake-s,633,4637506,0.0-19.0-0.1-0.136,AOMFEAWQHU3D8,3X2LT8FDIZY82IMGP2COH9T7SM78W0,3PH3VY7DJPDQ8XLXOUH3JDMYL7CWZO,7,8
137,4,object_08,object_07,135.10000002384,8,1,312.39999997616,0.6666666666666666,2,object_06,5,2077,0,4,6,restaurant_2,2,memory-2step-stake-s,634,4645659,0.0-19.0-0.1-0.137,AOMFEAWQHU3D8,3X2LT8FDIZY82IMGP2COH9T7SM78W0,3PH3VY7DJPDQ8XLXOUH3JDMYL7CWZO,8,7
138,2,object_09,object_01,355.70000004768,4,2,667.30000007153,0.7777777777777778,2,object_06,5,2112,0,6,7,forest_4,2,memory-2step-stake-s,635,4654276,0.0-19.0-0.1-0.138,AOMFEAWQHU3D8,3X2LT8FDIZY82IMGP2COH9T7SM78W0,3PH3VY7DJPDQ8XLXOUH3JDMYL7CWZO,3,4
139,3,object_10,object_03,689.10000002384,6,2,410.29999995232,0.7777777777777778,2,object_06,1,2119,0,7,7,library_8,2,memory-2step-stake-s,636,4662642,0.0-19.0-0.1-0.139,AOMFEAWQHU3D8,3X2LT8FDIZY82IMGP2COH9T7SM78W0,3PH3VY7DJPDQ8XLXOUH3JDMYL7CWZO,5,6
140,3,object_10,object_03,521.60000002384,6,2,222.20000004768,1.0,2,object_06,1,2128,0,6,9,library_4,2,memory-2step-stake-s,637,4671013,0.0-19.0-0.1-0.140,AOMFEAWQHU3D8,3X2LT8FDIZY82IMGP2COH9T7SM78W0,3PH3VY7DJPDQ8XLXOUH3JDMYL7CWZO,5,6
141,1,object_05,object_04,706.90000009537,2,1,304.5,0.7777777777777778,2,object_06,5,2163,0,4,7,desert_5,2,memory-2step-stake-s,638,4679261,0.0-19.0-0.1-0.141,AOMFEAWQHU3D8,3X2LT8FDIZY82IMGP2COH9T7SM78W0,3PH3VY7DJPDQ8XLXOUH3JDMYL7CWZO,2,1
142,1,object_05,object_04,824.20000004768,2,1,302.79999995232,1.0,2,object_06,5,2208,0,5,9,desert_2,2,memory-2step-stake-s,639,4687708,0.0-19.0-0.1-0.142,AOMFEAWQHU3D8,3X2LT8FDIZY82IMGP2COH9T7SM78W0,3PH3VY7DJPDQ8XLXOUH3JDMYL7CWZO,2,1
143,4,object_08,object_07,916.20000004768,8,1,245.69999992847,0.7777777777777778,2,object_06,1,2215,0,7,7,restaurant_2,2,memory-2step-stake-s,640,4695907,0.0-19.0-0.1-0.143,AOMFEAWQHU3D8,3X2LT8FDIZY82IMGP2COH9T7SM78W0,3PH3VY7DJPDQ8XLXOUH3JDMYL7CWZO,8,7
144,3,object_10,object_03,312.29999995232,6,2,907.0,0.8888888888888888,2,object_06,1,2223,0,6,8,library_6,2,memory-2step-stake-s,641,4704874,0.0-19.0-0.1-0.144,AOMFEAWQHU3D8,3X2LT8FDIZY82IMGP2COH9T7SM78W0,3PH3VY7DJPDQ8XLXOUH3JDMYL7CWZO,5,6
145,2,object_09,object_01,534.5,3,1,209.70000004768,0.8888888888888888,1,object_02,5,2263,0,8,9,forest_7,2,memory-2step-stake-s,642,4713162,0.0-19.0-0.1-0.145,AOMFEAWQHU3D8,3X2LT8FDIZY82IMGP2COH9T7SM78W0,3PH3VY7DJPDQ8XLXOUH3JDMYL7CWZO,3,4
146,4,object_07,object_08,646.29999995232,7,1,393.09999990463,0.8888888888888888,1,object_02,1,2271,0,8,8,restaurant_1,2,memory-2step-stake-s,643,4721619,0.0-19.0-0.1-0.146,AOMFEAWQHU3D8,3X2LT8FDIZY82IMGP2COH9T7SM78W0,3PH3VY7DJPDQ8XLXOUH3JDMYL7CWZO,7,8
147,1,object_05,object_04,164.89999997616,1,2,186.10000002384,0.5555555555555556,1,object_02,5,2296,0,5,8,desert_1,2,memory-2step-stake-s,644,4729557,0.0-19.0-0.1-0.147,AOMFEAWQHU3D8,3X2LT8FDIZY82IMGP2COH9T7SM78W0,3PH3VY7DJPDQ8XLXOUH3JDMYL7CWZO,2,1
148,3,object_03,object_10,613.29999995232,5,2,292.60000002384,0.5555555555555556,1,object_02,1,2301,0,5,6,library_8,2,memory-2step-stake-s,645,4737603,0.0-19.0-0.1-0.148,AOMFEAWQHU3D8,3X2LT8FDIZY82IMGP2COH9T7SM78W0,3PH3VY7DJPDQ8XLXOUH3JDMYL7CWZO,6,5
149,1,object_05,object_04,727.79999995232,2,1,251.60000002384,0.8888888888888888,2,object_06,5,2341,0,5,8,desert_2,2,memory-2step-stake-s,646,4745913,0.0-19.0-0.1-0.149,AOMFEAWQHU3D8,3X2LT8FDIZY82IMGP2COH9T7SM78W0,3PH3VY7DJPDQ8XLXOUH3JDMYL7CWZO,2,1
150,4,object_08,object_07,640.70000004768,7,2,314.59999990463,0.4444444444444444,1,object_02,5,2361,0,4,7,restaurant_5,2,memory-2step-stake-s,647,4753878,0.0-19.0-0.1-0.150,AOMFEAWQHU3D8,3X2LT8FDIZY82IMGP2COH9T7SM78W0,3PH3VY7DJPDQ8XLXOUH3JDMYL7CWZO,8,7
151,2,object_09,object_01,441.69999992847,3,1,393.80000007153,0.0,1,object_02,5,2361,0,0,7,forest_7,2,memory-2step-stake-s,648,4761501,0.0-19.0-0.1-0.151,AOMFEAWQHU3D8,3X2LT8FDIZY82IMGP2COH9T7SM78W0,3PH3VY7DJPDQ8XLXOUH3JDMYL7CWZO,3,4
152,4,object_07,object_08,599.29999995232,7,1,404.89999997616,0.0,1,object_02,5,2361,0,0,5,restaurant_1,2,memory-2step-stake-s,649,4769128,0.0-19.0-0.1-0.152,AOMFEAWQHU3D8,3X2LT8FDIZY82IMGP2COH9T7SM78W0,3PH3VY7DJPDQ8XLXOUH3JDMYL7CWZO,7,8
153,1,object_04,object_05,898.39999997616,1,1,458.5,0.0,1,object_02,5,2361,0,0,4,desert_4,2,memory-2step-stake-s,650,4776816,0.0-19.0-0.1-0.153,AOMFEAWQHU3D8,3X2LT8FDIZY82IMGP2COH9T7SM78W0,3PH3VY7DJPDQ8XLXOUH3JDMYL7CWZO,1,2
154,2,object_01,object_09,881.10000002384,4,1,243.79999995232,0.3333333333333333,2,object_06,5,2376,0,0,3,forest_6,2,memory-2step-stake-s,651,4784608,0.0-19.0-0.1-0.154,AOMFEAWQHU3D8,3X2LT8FDIZY82IMGP2COH9T7SM78W0,3PH3VY7DJPDQ8XLXOUH3JDMYL7CWZO,4,3
155,4,object_07,object_08,768.89999997616,8,2,317.0,0.1111111111111111,2,object_06,1,2377,0,1,1,restaurant_1,2,memory-2step-stake-s,652,4792263,0.0-19.0-0.1-0.155,AOMFEAWQHU3D8,3X2LT8FDIZY82IMGP2COH9T7SM78W0,3PH3VY7DJPDQ8XLXOUH3JDMYL7CWZO,7,8
156,3,object_03,object_10,238.59999990463,6,1,428.20000004768,0.2222222222222222,2,object_06,5,2387,0,2,2,library_4,2,memory-2step-stake-s,653,4800123,0.0-19.0-0.1-0.156,AOMFEAWQHU3D8,3X2LT8FDIZY82IMGP2COH9T7SM78W0,3PH3VY7DJPDQ8XLXOUH3JDMYL7CWZO,6,5
157,4,object_07,object_08,398.0,7,1,219.29999995232,0.0,1,object_02,1,2387,0,0,2,restaurant_5,2,memory-2step-stake-s,654,4807568,0.0-19.0-0.1-0.157,AOMFEAWQHU3D8,3X2LT8FDIZY82IMGP2COH9T7SM78W0,3PH3VY7DJPDQ8XLXOUH3JDMYL7CWZO,7,8
158,3,object_10,object_03,462.70000004768,6,2,226.79999995232,0.5555555555555556,2,object_06,5,2412,0,1,5,library_6,2,memory-2step-stake-s,655,4815549,0.0-19.0-0.1-0.158,AOMFEAWQHU3D8,3X2LT8FDIZY82IMGP2COH9T7SM78W0,3PH3VY7DJPDQ8XLXOUH3JDMYL7CWZO,5,6
159,3,object_10,object_03,507.5,6,2,584.19999992847,0.3333333333333333,2,object_06,1,2415,0,3,3,library_8,2,memory-2step-stake-s,656,4823676,0.0-19.0-0.1-0.159,AOMFEAWQHU3D8,3X2LT8FDIZY82IMGP2COH9T7SM78W0,3PH3VY7DJPDQ8XLXOUH3JDMYL7CWZO,5,6
160,1,object_05,object_04,410.10000002384,2,1,308.89999997616,0.2222222222222222,2,object_06,5,2425,0,3,2,desert_1,2,memory-2step-stake-s,657,4831422,0.0-19.0-0.1-0.160,AOMFEAWQHU3D8,3X2LT8FDIZY82IMGP2COH9T7SM78W0,3PH3VY7DJPDQ8XLXOUH3JDMYL7CWZO,2,1
161,1,object_05,object_04,640.39999997616,2,1,284.0,0.0,2,object_06,5,2425,0,2,0,desert_4,2,memory-2step-stake-s,658,4838939,0.0-19.0-0.1-0.161,AOMFEAWQHU3D8,3X2LT8FDIZY82IMGP2COH9T7SM78W0,3PH3VY7DJPDQ8XLXOUH3JDMYL7CWZO,2,1
162,2,object_01,object_09,1008.5999999046,4,1,592.5,0.3333333333333333,2,object_06,5,2440,0,3,3,forest_6,2,memory-2step-stake-s,659,4847074,0.0-19.0-0.1-0.162,AOMFEAWQHU3D8,3X2LT8FDIZY82IMGP2COH9T7SM78W0,3PH3VY7DJPDQ8XLXOUH3JDMYL7CWZO,4,3
163,3,object_03,object_10,769.69999992847,5,2,618.10000002384,0.3333333333333333,1,object_02,5,2455,0,3,0,library_8,2,memory-2step-stake-s,660,4855239,0.0-19.0-0.1-0.163,AOMFEAWQHU3D8,3X2LT8FDIZY82IMGP2COH9T7SM78W0,3PH3VY7DJPDQ8XLXOUH3JDMYL7CWZO,6,5
164,4,object_08,object_07,495.19999992847,7,2,322.5,0.3333333333333333,1,object_02,5,2470,0,3,4,restaurant_1,2,memory-2step-stake-s,661,4863103,0.0-19.0-0.1-0.164,AOMFEAWQHU3D8,3X2LT8FDIZY82IMGP2COH9T7SM78W0,3PH3VY7DJPDQ8XLXOUH3JDMYL7CWZO,8,7
165,4,object_07,object_08,483.0,7,1,383.5,0.4444444444444444,1,object_02,1,2474,0,4,8,restaurant_6,2,memory-2step-stake-s,662,4871136,0.0-19.0-0.1-0.165,AOMFEAWQHU3D8,3X2LT8FDIZY82IMGP2COH9T7SM78W0,3PH3VY7DJPDQ8XLXOUH3JDMYL7CWZO,7,8
166,1,object_05,object_04,514.69999992847,2,1,226.19999992847,0.8888888888888888,2,object_06,5,2514,0,2,8,desert_2,2,memory-2step-stake-s,663,4879432,0.0-19.0-0.1-0.166,AOMFEAWQHU3D8,3X2LT8FDIZY82IMGP2COH9T7SM78W0,3PH3VY7DJPDQ8XLXOUH3JDMYL7CWZO,2,1
167,4,object_07,object_08,525.80000007153,7,1,54.400000095367,0.3333333333333333,1,object_02,1,2517,0,3,7,restaurant_1,2,memory-2step-stake-s,664,4887029,0.0-19.0-0.1-0.167,AOMFEAWQHU3D8,3X2LT8FDIZY82IMGP2COH9T7SM78W0,3PH3VY7DJPDQ8XLXOUH3JDMYL7CWZO,7,8
168,3,object_10,object_03,492.0,6,2,243.70000004768,0.8888888888888888,2,object_06,1,2525,0,1,8,library_1,2,memory-2step-stake-s,665,4895341,0.0-19.0-0.1-0.168,AOMFEAWQHU3D8,3X2LT8FDIZY82IMGP2COH9T7SM78W0,3PH3VY7DJPDQ8XLXOUH3JDMYL7CWZO,5,6
169,4,object_08,object_07,743.09999990463,8,1,305.60000002384,0.8888888888888888,2,object_06,1,2533,0,5,8,restaurant_2,2,memory-2step-stake-s,666,4903705,0.0-19.0-0.1-0.169,AOMFEAWQHU3D8,3X2LT8FDIZY82IMGP2COH9T7SM78W0,3PH3VY7DJPDQ8XLXOUH3JDMYL7CWZO,8,7
170,2,object_09,object_01,653.60000002384,3,1,423.5,0.5555555555555556,1,object_02,5,2558,0,5,6,forest_4,2,memory-2step-stake-s,667,4911877,0.0-19.0-0.1-0.170,AOMFEAWQHU3D8,3X2LT8FDIZY82IMGP2COH9T7SM78W0,3PH3VY7DJPDQ8XLXOUH3JDMYL7CWZO,3,4
171,1,object_05,object_04,660.60000002384,2,1,334.60000002384,0.5555555555555556,2,object_06,5,2583,0,8,5,desert_2,2,memory-2step-stake-s,668,4919965,0.0-19.0-0.1-0.171,AOMFEAWQHU3D8,3X2LT8FDIZY82IMGP2COH9T7SM78W0,3PH3VY7DJPDQ8XLXOUH3JDMYL7CWZO,2,1
172,4,object_07,object_08,224.40000009537,8,2,552.0,0.7777777777777778,2,object_06,5,2618,0,6,7,restaurant_6,2,memory-2step-stake-s,669,4928469,0.0-19.0-0.1-0.172,AOMFEAWQHU3D8,3X2LT8FDIZY82IMGP2COH9T7SM78W0,3PH3VY7DJPDQ8XLXOUH3JDMYL7CWZO,7,8
173,3,object_03,object_10,533.09999990463,6,1,538.20000004768,0.8888888888888888,2,object_06,1,2626,0,5,8,library_4,2,memory-2step-stake-s,670,4937074,0.0-19.0-0.1-0.173,AOMFEAWQHU3D8,3X2LT8FDIZY82IMGP2COH9T7SM78W0,3PH3VY7DJPDQ8XLXOUH3JDMYL7CWZO,6,5
174,2,object_09,object_01,649.70000004768,4,2,249.10000002384,1.0,2,object_06,1,2635,0,3,9,forest_4,2,memory-2step-stake-s,671,4945489,0.0-19.0-0.1-0.174,AOMFEAWQHU3D8,3X2LT8FDIZY82IMGP2COH9T7SM78W0,3PH3VY7DJPDQ8XLXOUH3JDMYL7CWZO,3,4
175,4,object_07,object_08,862.80000007153,8,2,-1.0,0.0,2,object_06,1,2635,0,7,8,restaurant_5,2,memory-2step-stake-s,672,4954018,0.0-19.0-0.1-0.175,AOMFEAWQHU3D8,3X2LT8FDIZY82IMGP2COH9T7SM78W0,3PH3VY7DJPDQ8XLXOUH3JDMYL7CWZO,7,8
176,1,object_04,object_05,219.70000004768,1,1,373.69999992847,0.7777777777777778,1,object_02,5,2670,0,7,7,desert_2,2,memory-2step-stake-s,673,4962347,0.0-19.0-0.1-0.176,AOMFEAWQHU3D8,3X2LT8FDIZY82IMGP2COH9T7SM78W0,3PH3VY7DJPDQ8XLXOUH3JDMYL7CWZO,1,2
177,4,object_08,object_07,398.60000002384,8,1,-1.0,0.0,2,object_06,1,2670,0,9,0,restaurant_6,2,memory-2step-stake-s,674,4970873,0.0-19.0-0.1-0.177,AOMFEAWQHU3D8,3X2LT8FDIZY82IMGP2COH9T7SM78W0,3PH3VY7DJPDQ8XLXOUH3JDMYL7CWZO,8,7
178,4,object_07,object_08,384.10000002384,8,2,259.79999995232,0.2222222222222222,2,object_06,1,2672,0,7,2,restaurant_1,2,memory-2step-stake-s,675,4978576,0.0-19.0-0.1-0.178,AOMFEAWQHU3D8,3X2LT8FDIZY82IMGP2COH9T7SM78W0,3PH3VY7DJPDQ8XLXOUH3JDMYL7CWZO,7,8
179,3,object_03,object_10,250.29999995232,6,1,580.89999997616,0.0,2,object_06,1,2672,0,8,0,library_8,2,memory-2step-stake-s,676,4986384,0.0-19.0-0.1-0.179,AOMFEAWQHU3D8,3X2LT8FDIZY82IMGP2COH9T7SM78W0,3PH3VY7DJPDQ8XLXOUH3JDMYL7CWZO,6,5
180,1,object_05,object_04,363.79999995232,2,1,421.89999997616,0.1111111111111111,2,object_06,5,2677,0,8,1,desert_5,2,memory-2step-stake-s,677,4994139,0.0-19.0-0.1-0.180,AOMFEAWQHU3D8,3X2LT8FDIZY82IMGP2COH9T7SM78W0,3PH3VY7DJPDQ8XLXOUH3JDMYL7CWZO,2,1
181,3,object_10,object_03,456.89999997616,5,1,371.30000007153,0.8888888888888888,1,object_02,1,2685,0,8,2,library_4,2,memory-2step-stake-s,678,5002566,0.0-19.0-0.1-0.181,AOMFEAWQHU3D8,3X2LT8FDIZY82IMGP2COH9T7SM78W0,3PH3VY7DJPDQ8XLXOUH3JDMYL7CWZO,5,6
182,4,object_07,object_08,1015.6000000238,8,2,753.0,0.4444444444444444,2,object_06,1,2689,0,7,4,restaurant_5,2,memory-2step-stake-s,679,5010961,0.0-19.0-0.1-0.182,AOMFEAWQHU3D8,3X2LT8FDIZY82IMGP2COH9T7SM78W0,3PH3VY7DJPDQ8XLXOUH3JDMYL7CWZO,7,8
183,2,object_01,object_09,256.60000002384,4,1,358.5,0.5555555555555556,2,object_06,5,2714,0,8,5,forest_5,2,memory-2step-stake-s,680,5019067,0.0-19.0-0.1-0.183,AOMFEAWQHU3D8,3X2LT8FDIZY82IMGP2COH9T7SM78W0,3PH3VY7DJPDQ8XLXOUH3JDMYL7CWZO,4,3
184,2,object_01,object_09,312.20000004768,3,2,535.5,1.0,1,object_02,5,2759,0,9,7,forest_4,2,memory-2step-stake-s,681,5027776,0.0-19.0-0.1-0.184,AOMFEAWQHU3D8,3X2LT8FDIZY82IMGP2COH9T7SM78W0,3PH3VY7DJPDQ8XLXOUH3JDMYL7CWZO,4,3
185,4,object_07,object_08,698.19999992847,7,1,1191.0,0.7777777777777778,1,object_02,1,2766,0,7,6,restaurant_6,2,memory-2step-stake-s,682,5036938,0.0-19.0-0.1-0.185,AOMFEAWQHU3D8,3X2LT8FDIZY82IMGP2COH9T7SM78W0,3PH3VY7DJPDQ8XLXOUH3JDMYL7CWZO,7,8
186,2,object_01,object_09,389.29999995232,3,2,885.5,0.7777777777777778,1,object_02,5,2801,0,7,5,forest_4,2,memory-2step-stake-s,683,5045785,0.0-19.0-0.1-0.186,AOMFEAWQHU3D8,3X2LT8FDIZY82IMGP2COH9T7SM78W0,3PH3VY7DJPDQ8XLXOUH3JDMYL7CWZO,4,3
187,1,object_05,object_04,958.89999997616,1,2,671.89999997616,0.5555555555555556,1,object_02,5,2826,0,5,2,desert_1,2,memory-2step-stake-s,684,5054221,0.0-19.0-0.1-0.187,AOMFEAWQHU3D8,3X2LT8FDIZY82IMGP2COH9T7SM78W0,3PH3VY7DJPDQ8XLXOUH3JDMYL7CWZO,2,1
188,2,object_01,object_09,782.60000002384,4,1,394.5,0.0,2,object_06,5,2826,0,4,0,forest_5,2,memory-2step-stake-s,685,5061856,0.0-19.0-0.1-0.188,AOMFEAWQHU3D8,3X2LT8FDIZY82IMGP2COH9T7SM78W0,3PH3VY7DJPDQ8XLXOUH3JDMYL7CWZO,4,3
189,3,object_10,object_03,494.60000002384,5,1,701.69999992847,0.3333333333333333,1,object_02,1,2829,0,3,1,library_6,2,memory-2step-stake-s,686,5070108,0.0-19.0-0.1-0.189,AOMFEAWQHU3D8,3X2LT8FDIZY82IMGP2COH9T7SM78W0,3PH3VY7DJPDQ8XLXOUH3JDMYL7CWZO,5,6
190,2,object_01,object_09,396.39999997616,3,2,1475.0,0.3333333333333333,1,object_02,1,2832,0,3,2,forest_7,2,memory-2step-stake-s,687,5079135,0.0-19.0-0.1-0.190,AOMFEAWQHU3D8,3X2LT8FDIZY82IMGP2COH9T7SM78W0,3PH3VY7DJPDQ8XLXOUH3JDMYL7CWZO,4,3
191,4,object_07,object_08,605.10000002384,7,1,568.0,0.6666666666666666,1,object_02,1,2838,0,6,1,restaurant_1,2,memory-2step-stake-s,688,5087559,0.0-19.0-0.1-0.191,AOMFEAWQHU3D8,3X2LT8FDIZY82IMGP2COH9T7SM78W0,3PH3VY7DJPDQ8XLXOUH3JDMYL7CWZO,7,8
192,4,object_08,object_07,436.0,7,2,888.39999997616,0.8888888888888888,1,object_02,1,2846,0,8,1,restaurant_5,2,memory-2step-stake-s,689,5096511,0.0-19.0-0.1-0.192,AOMFEAWQHU3D8,3X2LT8FDIZY82IMGP2COH9T7SM78W0,3PH3VY7DJPDQ8XLXOUH3JDMYL7CWZO,8,7
193,4,object_08,object_07,497.70000004768,7,2,408.80000007153,0.7777777777777778,1,object_02,5,2881,0,7,1,restaurant_6,2,memory-2step-stake-s,690,5105494,0.0-19.0-0.1-0.193,AOMFEAWQHU3D8,3X2LT8FDIZY82IMGP2COH9T7SM78W0,3PH3VY7DJPDQ8XLXOUH3JDMYL7CWZO,8,7
194,2,object_09,object_01,535.39999997616,4,2,1441.2999999523,0.1111111111111111,2,object_06,1,2882,0,6,1,forest_7,2,memory-2step-stake-s,691,5114272,0.0-19.0-0.1-0.194,AOMFEAWQHU3D8,3X2LT8FDIZY82IMGP2COH9T7SM78W0,3PH3VY7DJPDQ8XLXOUH3JDMYL7CWZO,3,4
195,2,object_09,object_01,339.60000002384,3,1,326.70000004768,0.4444444444444444,1,object_02,5,2902,0,4,3,forest_5,2,memory-2step-stake-s,692,5122251,0.0-19.0-0.1-0.195,AOMFEAWQHU3D8,3X2LT8FDIZY82IMGP2COH9T7SM78W0,3PH3VY7DJPDQ8XLXOUH3JDMYL7CWZO,3,4
196,1,object_05,object_04,797.79999995232,1,2,356.39999997616,0.1111111111111111,1,object_02,5,2907,0,1,0,desert_1,2,memory-2step-stake-s,693,5129947,0.0-19.0-0.1-0.196,AOMFEAWQHU3D8,3X2LT8FDIZY82IMGP2COH9T7SM78W0,3PH3VY7DJPDQ8XLXOUH3JDMYL7CWZO,2,1
197,3,object_10,object_03,295.20000004768,5,1,336.80000007153,0.2222222222222222,1,object_02,1,2909,0,2,1,library_1,2,memory-2step-stake-s,694,5137729,0.0-19.0-0.1-0.197,AOMFEAWQHU3D8,3X2LT8FDIZY82IMGP2COH9T7SM78W0,3PH3VY7DJPDQ8XLXOUH3JDMYL7CWZO,5,6
198,2,object_01,object_09,235.29999995232,3,2,943.79999995232,0.2222222222222222,1,object_02,1,2911,0,2,2,forest_5,2,memory-2step-stake-s,695,5146124,0.0-19.0-0.1-0.198,AOMFEAWQHU3D8,3X2LT8FDIZY82IMGP2COH9T7SM78W0,3PH3VY7DJPDQ8XLXOUH3JDMYL7CWZO,4,3
199,3,object_10,object_03,225.30000007153,5,1,275.89999997616,0.0,1,object_02,5,2911,0,0,0,library_4,2,memory-2step-stake-s,696,5153630,0.0-19.0-0.1-0.199,AOMFEAWQHU3D8,3X2LT8FDIZY82IMGP2COH9T7SM78W0,3PH3VY7DJPDQ8XLXOUH3JDMYL7CWZO,5,6
200,3,object_03,object_10,610.5,6,1,342.40000009537,0.0,2,object_06,1,2911,0,1,0,library_1,2,memory-2step-stake-s,697,5161210,0.0-19.0-0.1-0.200,AOMFEAWQHU3D8,3X2LT8FDIZY82IMGP2COH9T7SM78W0,3PH3VY7DJPDQ8XLXOUH3JDMYL7CWZO,6,5
201,4,object_08,object_07,533.0,7,2,282.0,0.0,1,object_02,1,2911,0,0,1,restaurant_5,2,memory-2step-stake-s,698,5168734,0.0-19.0-0.1-0.201,AOMFEAWQHU3D8,3X2LT8FDIZY82IMGP2COH9T7SM78W0,3PH3VY7DJPDQ8XLXOUH3JDMYL7CWZO,8,7
202,4,object_07,object_08,590.5,7,1,-1.0,0.0,1,object_02,1,2911,0,3,4,restaurant_5,2,memory-2step-stake-s,699,5177272,0.0-19.0-0.1-0.202,AOMFEAWQHU3D8,3X2LT8FDIZY82IMGP2COH9T7SM78W0,3PH3VY7DJPDQ8XLXOUH3JDMYL7CWZO,7,8
203,3,object_03,object_10,210.29999995232,5,2,1069.1000000238,0.6666666666666666,1,object_02,1,2917,0,6,4,library_4,2,memory-2step-stake-s,700,5187190,0.0-19.0-0.1-0.203,AOMFEAWQHU3D8,3X2LT8FDIZY82IMGP2COH9T7SM78W0,3PH3VY7DJPDQ8XLXOUH3JDMYL7CWZO,6,5
204,3,object_03,object_10,246.89999997616,6,1,540.20000004768,0.6666666666666666,2,object_06,1,2923,0,4,6,library_1,2,memory-2step-stake-s,701,5197464,0.0-19.0-0.1-0.204,AOMFEAWQHU3D8,3X2LT8FDIZY82IMGP2COH9T7SM78W0,3PH3VY7DJPDQ8XLXOUH3JDMYL7CWZO,6,5
205,3,object_03,object_10,317.0,5,2,360.19999992847,1.0,1,object_02,1,2932,0,9,9,library_1,2,memory-2step-stake-s,702,5208719,0.0-19.0-0.1-0.205,AOMFEAWQHU3D8,3X2LT8FDIZY82IMGP2COH9T7SM78W0,3PH3VY7DJPDQ8XLXOUH3JDMYL7CWZO,6,5
206,1,object_05,object_04,246.29999995232,2,1,342.20000004768,1.0,2,object_06,5,2977,0,9,9,desert_2,2,memory-2step-stake-s,703,5217227,0.0-19.0-0.1-0.206,AOMFEAWQHU3D8,3X2LT8FDIZY82IMGP2COH9T7SM78W0,3PH3VY7DJPDQ8XLXOUH3JDMYL7CWZO,2,1
207,4,object_08,object_07,261.0,7,2,990.5,1.0,1,object_02,1,2986,0,9,8,restaurant_1,2,memory-2step-stake-s,704,5226400,0.0-19.0-0.1-0.207,AOMFEAWQHU3D8,3X2LT8FDIZY82IMGP2COH9T7SM78W0,3PH3VY7DJPDQ8XLXOUH3JDMYL7CWZO,8,7
208,3,object_10,object_03,434.10000002384,5,1,394.40000009537,1.0,1,object_02,1,2995,0,9,6,library_1,2,memory-2step-stake-s,705,5234970,0.0-19.0-0.1-0.208,AOMFEAWQHU3D8,3X2LT8FDIZY82IMGP2COH9T7SM78W0,3PH3VY7DJPDQ8XLXOUH3JDMYL7CWZO,5,6
209,4,object_08,object_07,881.39999997616,7,2,295.29999995232,0.6666666666666666,1,object_02,1,3001,0,6,6,restaurant_5,2,memory-2step-stake-s,706,5243130,0.0-19.0-0.1-0.209,AOMFEAWQHU3D8,3X2LT8FDIZY82IMGP2COH9T7SM78W0,3PH3VY7DJPDQ8XLXOUH3JDMYL7CWZO,8,7
210,1,object_05,object_04,1056.7999999523,2,1,429.70000004768,0.8888888888888888,2,object_06,5,3041,0,3,8,desert_5,2,memory-2step-stake-s,707,5251625,0.0-19.0-0.1-0.210,AOMFEAWQHU3D8,3X2LT8FDIZY82IMGP2COH9T7SM78W0,3PH3VY7DJPDQ8XLXOUH3JDMYL7CWZO,2,1
211,3,object_10,object_03,481.0,5,1,777.20000004768,0.1111111111111111,1,object_02,1,3042,0,1,9,library_8,2,memory-2step-stake-s,708,5259740,0.0-19.0-0.1-0.211,AOMFEAWQHU3D8,3X2LT8FDIZY82IMGP2COH9T7SM78W0,3PH3VY7DJPDQ8XLXOUH3JDMYL7CWZO,5,6
212,4,object_08,object_07,582.5,8,1,682.80000007153,0.7777777777777778,2,object_06,1,3049,0,1,7,restaurant_6,2,memory-2step-stake-s,709,5268399,0.0-19.0-0.1-0.212,AOMFEAWQHU3D8,3X2LT8FDIZY82IMGP2COH9T7SM78W0,3PH3VY7DJPDQ8XLXOUH3JDMYL7CWZO,8,7
213,2,object_01,object_09,866.29999995232,4,1,451.5,0.5555555555555556,2,object_06,1,3054,0,4,5,forest_6,2,memory-2step-stake-s,710,5276615,0.0-19.0-0.1-0.213,AOMFEAWQHU3D8,3X2LT8FDIZY82IMGP2COH9T7SM78W0,3PH3VY7DJPDQ8XLXOUH3JDMYL7CWZO,4,3
214,2,object_09,object_01,919.10000002384,4,2,502.59999990463,0.4444444444444444,2,object_06,5,3074,0,6,4,forest_5,2,memory-2step-stake-s,711,5284765,0.0-19.0-0.1-0.214,AOMFEAWQHU3D8,3X2LT8FDIZY82IMGP2COH9T7SM78W0,3PH3VY7DJPDQ8XLXOUH3JDMYL7CWZO,3,4
215,3,object_10,object_03,439.29999995232,5,1,340.70000004768,0.4444444444444444,1,object_02,1,3078,0,4,6,library_6,2,memory-2step-stake-s,712,5292765,0.0-19.0-0.1-0.215,AOMFEAWQHU3D8,3X2LT8FDIZY82IMGP2COH9T7SM78W0,3PH3VY7DJPDQ8XLXOUH3JDMYL7CWZO,5,6
216,1,object_05,object_04,547.0,2,1,573.29999995232,0.3333333333333333,2,object_06,1,3081,0,5,3,desert_5,2,memory-2step-stake-s,713,5300886,0.0-19.0-0.1-0.216,AOMFEAWQHU3D8,3X2LT8FDIZY82IMGP2COH9T7SM78W0,3PH3VY7DJPDQ8XLXOUH3JDMYL7CWZO,2,1
217,3,object_10,object_03,398.70000004768,5,1,296.79999995232,0.5555555555555556,1,object_02,1,3086,0,5,2,library_4,2,memory-2step-stake-s,714,5308939,0.0-19.0-0.1-0.217,AOMFEAWQHU3D8,3X2LT8FDIZY82IMGP2COH9T7SM78W0,3PH3VY7DJPDQ8XLXOUH3JDMYL7CWZO,5,6
218,3,object_10,object_03,552.0,5,1,563.5,0.5555555555555556,1,object_02,1,3091,0,5,5,library_6,2,memory-2step-stake-s,715,5317262,0.0-19.0-0.1-0.218,AOMFEAWQHU3D8,3X2LT8FDIZY82IMGP2COH9T7SM78W0,3PH3VY7DJPDQ8XLXOUH3JDMYL7CWZO,5,6
219,1,object_05,object_04,681.69999992847,2,1,381.80000007153,0.7777777777777778,2,object_06,5,3126,0,6,7,desert_4,2,memory-2step-stake-s,716,5325607,0.0-19.0-0.1-0.219,AOMFEAWQHU3D8,3X2LT8FDIZY82IMGP2COH9T7SM78W0,3PH3VY7DJPDQ8XLXOUH3JDMYL7CWZO,2,1
220,4,object_08,object_07,1133.0,7,2,367.79999995232,0.6666666666666666,1,object_02,1,3132,0,6,6,restaurant_2,2,memory-2step-stake-s,717,5333842,0.0-19.0-0.1-0.220,AOMFEAWQHU3D8,3X2LT8FDIZY82IMGP2COH9T7SM78W0,3PH3VY7DJPDQ8XLXOUH3JDMYL7CWZO,8,7
221,2,object_01,object_09,1117.7999999523,3,2,369.89999997616,0.7777777777777778,1,object_02,5,3167,0,7,6,forest_6,2,memory-2step-stake-s,718,5342170,0.0-19.0-0.1-0.221,AOMFEAWQHU3D8,3X2LT8FDIZY82IMGP2COH9T7SM78W0,3PH3VY7DJPDQ8XLXOUH3JDMYL7CWZO,4,3
222,4,object_07,object_08,546.70000004768,7,1,480.70000004768,0.8888888888888888,1,object_02,1,3175,0,8,6,restaurant_2,2,memory-2step-stake-s,719,5350701,0.0-19.0-0.1-0.222,AOMFEAWQHU3D8,3X2LT8FDIZY82IMGP2COH9T7SM78W0,3PH3VY7DJPDQ8XLXOUH3JDMYL7CWZO,7,8
223,3,object_10,object_03,513.79999995232,5,1,618.60000002384,0.7777777777777778,1,object_02,1,3182,0,7,8,library_1,2,memory-2step-stake-s,720,5359267,0.0-19.0-0.1-0.223,AOMFEAWQHU3D8,3X2LT8FDIZY82IMGP2COH9T7SM78W0,3PH3VY7DJPDQ8XLXOUH3JDMYL7CWZO,5,6
224,1,object_04,object_05,1155.6000000238,2,2,514.10000002384,0.8888888888888888,2,object_06,5,3222,0,8,8,desert_1,2,memory-2step-stake-s,721,5367831,0.0-19.0-0.1-0.224,AOMFEAWQHU3D8,3X2LT8FDIZY82IMGP2COH9T7SM78W0,3PH3VY7DJPDQ8XLXOUH3JDMYL7CWZO,1,2
225,3,object_10,object_03,969.70000004768,5,1,1090.8000000715,0.8888888888888888,1,object_02,5,3262,0,8,7,library_6,2,memory-2step-stake-s,722,5376970,0.0-19.0-0.1-0.225,AOMFEAWQHU3D8,3X2LT8FDIZY82IMGP2COH9T7SM78W0,3PH3VY7DJPDQ8XLXOUH3JDMYL7CWZO,5,6
226,4,object_07,object_08,343.80000007153,7,1,240.29999995232,0.8888888888888888,1,object_02,5,3302,0,8,4,restaurant_1,2,memory-2step-stake-s,723,5385270,0.0-19.0-0.1-0.226,AOMFEAWQHU3D8,3X2LT8FDIZY82IMGP2COH9T7SM78W0,3PH3VY7DJPDQ8XLXOUH3JDMYL7CWZO,7,8
227,3,object_03,object_10,731.39999997616,6,1,1158.1000000238,0.3333333333333333,2,object_06,1,3305,0,9,3,library_1,2,memory-2step-stake-s,724,5393957,0.0-19.0-0.1-0.227,AOMFEAWQHU3D8,3X2LT8FDIZY82IMGP2COH9T7SM78W0,3PH3VY7DJPDQ8XLXOUH3JDMYL7CWZO,6,5
228,2,object_01,object_09,914.90000009537,3,2,326.80000007153,0.8888888888888888,1,object_02,5,3345,0,8,1,forest_6,2,memory-2step-stake-s,725,5402335,0.0-19.0-0.1-0.228,AOMFEAWQHU3D8,3X2LT8FDIZY82IMGP2COH9T7SM78W0,3PH3VY7DJPDQ8XLXOUH3JDMYL7CWZO,4,3
229,1,object_04,object_05,325.30000007153,1,1,371.79999995232,0.8888888888888888,1,object_02,5,3385,0,8,0,desert_1,2,memory-2step-stake-s,726,5410761,0.0-19.0-0.1-0.229,AOMFEAWQHU3D8,3X2LT8FDIZY82IMGP2COH9T7SM78W0,3PH3VY7DJPDQ8XLXOUH3JDMYL7CWZO,1,2
230,3,object_10,object_03,504.89999997616,5,1,389.39999997616,0.7777777777777778,1,object_02,1,3392,0,7,0,library_8,2,memory-2step-stake-s,727,5419101,0.0-19.0-0.1-0.230,AOMFEAWQHU3D8,3X2LT8FDIZY82IMGP2COH9T7SM78W0,3PH3VY7DJPDQ8XLXOUH3JDMYL7CWZO,5,6
231,1,object_05,object_04,729.70000004768,1,2,239.0,0.6666666666666666,1,object_02,5,3422,0,6,2,desert_2,2,memory-2step-stake-s,728,5427186,0.0-19.0-0.1-0.231,AOMFEAWQHU3D8,3X2LT8FDIZY82IMGP2COH9T7SM78W0,3PH3VY7DJPDQ8XLXOUH3JDMYL7CWZO,2,1
232,1,object_04,object_05,375.5,1,1,479.5,0.8888888888888888,1,object_02,5,3462,0,8,1,desert_1,2,memory-2step-stake-s,729,5435710,0.0-19.0-0.1-0.232,AOMFEAWQHU3D8,3X2LT8FDIZY82IMGP2COH9T7SM78W0,3PH3VY7DJPDQ8XLXOUH3JDMYL7CWZO,1,2
233,1,object_04,object_05,367.70000004768,1,1,798.10000002384,0.4444444444444444,1,object_02,5,3482,0,4,1,desert_5,2,memory-2step-stake-s,730,5444156,0.0-19.0-0.1-0.233,AOMFEAWQHU3D8,3X2LT8FDIZY82IMGP2COH9T7SM78W0,3PH3VY7DJPDQ8XLXOUH3JDMYL7CWZO,1,2
234,4,object_07,object_08,273.89999997616,7,1,696.59999990463,0.3333333333333333,1,object_02,1,3485,0,3,2,restaurant_6,2,memory-2step-stake-s,731,5452399,0.0-19.0-0.1-0.234,AOMFEAWQHU3D8,3X2LT8FDIZY82IMGP2COH9T7SM78W0,3PH3VY7DJPDQ8XLXOUH3JDMYL7CWZO,7,8
235,2,object_09,object_01,965.10000002384,4,2,390.39999997616,0.4444444444444444,2,object_06,5,3505,0,5,4,forest_7,2,memory-2step-stake-s,732,5460424,0.0-19.0-0.1-0.235,AOMFEAWQHU3D8,3X2LT8FDIZY82IMGP2COH9T7SM78W0,3PH3VY7DJPDQ8XLXOUH3JDMYL7CWZO,3,4
236,4,object_08,object_07,534.29999995232,8,1,383.70000004768,0.5555555555555556,2,object_06,1,3510,0,7,5,restaurant_5,2,memory-2step-stake-s,733,5468549,0.0-19.0-0.1-0.236,AOMFEAWQHU3D8,3X2LT8FDIZY82IMGP2COH9T7SM78W0,3PH3VY7DJPDQ8XLXOUH3JDMYL7CWZO,8,7
237,1,object_04,object_05,487.10000002384,1,1,645.20000004768,0.7777777777777778,1,object_02,5,3545,0,7,1,desert_5,2,memory-2step-stake-s,734,5477155,0.0-19.0-0.1-0.237,AOMFEAWQHU3D8,3X2LT8FDIZY82IMGP2COH9T7SM78W0,3PH3VY7DJPDQ8XLXOUH3JDMYL7CWZO,1,2
238,2,object_01,object_09,791.19999992847,4,1,501.89999997616,0.0,2,object_06,5,3545,0,7,0,forest_6,2,memory-2step-stake-s,735,5484893,0.0-19.0-0.1-0.238,AOMFEAWQHU3D8,3X2LT8FDIZY82IMGP2COH9T7SM78W0,3PH3VY7DJPDQ8XLXOUH3JDMYL7CWZO,4,3
239,1,object_04,object_05,847.10000002384,2,2,256.10000002384,0.1111111111111111,2,object_06,5,3550,0,9,1,desert_1,2,memory-2step-stake-s,736,5492484,0.0-19.0-0.1-0.239,AOMFEAWQHU3D8,3X2LT8FDIZY82IMGP2COH9T7SM78W0,3PH3VY7DJPDQ8XLXOUH3JDMYL7CWZO,1,2
240,3,object_10,object_03,195.20000004768,5,1,459.39999997616,0.7777777777777778,1,object_02,1,3557,0,7,1,library_8,2,memory-2step-stake-s,737,5500904,0.0-19.0-0.1-0.240,AOMFEAWQHU3D8,3X2LT8FDIZY82IMGP2COH9T7SM78W0,3PH3VY7DJPDQ8XLXOUH3JDMYL7CWZO,5,6
241,4,object_08,object_07,705.39999997616,8,1,286.0,0.3333333333333333,2,object_06,5,3572,0,7,3,restaurant_1,2,memory-2step-stake-s,738,5508731,0.0-19.0-0.1-0.241,AOMFEAWQHU3D8,3X2LT8FDIZY82IMGP2COH9T7SM78W0,3PH3VY7DJPDQ8XLXOUH3JDMYL7CWZO,8,7
242,2,object_01,object_09,968.10000002384,4,1,547.70000004768,0.3333333333333333,2,object_06,5,3587,0,6,3,forest_4,2,memory-2step-stake-s,739,5516818,0.0-19.0-0.1-0.242,AOMFEAWQHU3D8,3X2LT8FDIZY82IMGP2COH9T7SM78W0,3PH3VY7DJPDQ8XLXOUH3JDMYL7CWZO,4,3
243,4,object_07,object_08,614.60000002384,7,1,245.60000002384,0.6666666666666666,1,object_02,1,3593,0,6,2,restaurant_6,2,memory-2step-stake-s,740,5524919,0.0-19.0-0.1-0.243,AOMFEAWQHU3D8,3X2LT8FDIZY82IMGP2COH9T7SM78W0,3PH3VY7DJPDQ8XLXOUH3JDMYL7CWZO,7,8
244,2,object_09,object_01,790.10000002384,4,2,648.10000002384,0.7777777777777778,2,object_06,5,3628,0,7,7,forest_5,2,memory-2step-stake-s,741,5533526,0.0-19.0-0.1-0.244,AOMFEAWQHU3D8,3X2LT8FDIZY82IMGP2COH9T7SM78W0,3PH3VY7DJPDQ8XLXOUH3JDMYL7CWZO,3,4
245,1,object_04,object_05,569.19999992847,2,2,319.10000002384,1.0,2,object_06,5,3673,0,7,9,desert_1,2,memory-2step-stake-s,742,5542016,0.0-19.0-0.1-0.245,AOMFEAWQHU3D8,3X2LT8FDIZY82IMGP2COH9T7SM78W0,3PH3VY7DJPDQ8XLXOUH3JDMYL7CWZO,1,2
246,4,object_08,object_07,801.60000002384,7,2,572.20000004768,0.7777777777777778,1,object_02,1,3680,0,7,7,restaurant_2,2,memory-2step-stake-s,743,5550553,0.0-19.0-0.1-0.246,AOMFEAWQHU3D8,3X2LT8FDIZY82IMGP2COH9T7SM78W0,3PH3VY7DJPDQ8XLXOUH3JDMYL7CWZO,8,7
247,1,object_05,object_04,392.29999995232,2,1,367.0,0.6666666666666666,2,object_06,5,3710,0,8,6,desert_5,2,memory-2step-stake-s,744,5558784,0.0-19.0-0.1-0.247,AOMFEAWQHU3D8,3X2LT8FDIZY82IMGP2COH9T7SM78W0,3PH3VY7DJPDQ8XLXOUH3JDMYL7CWZO,2,1
248,1,object_05,object_04,499.40000009537,1,2,1277.7999999523,0.8888888888888888,1,object_02,1,3718,0,8,5,desert_4,2,memory-2step-stake-s,745,5568132,0.0-19.0-0.1-0.248,AOMFEAWQHU3D8,3X2LT8FDIZY82IMGP2COH9T7SM78W0,3PH3VY7DJPDQ8XLXOUH3JDMYL7CWZO,2,1
249,3,object_10,object_03,825.0,5,1,377.5,0.7777777777777778,1,object_02,1,3725,0,7,5,library_8,2,memory-2step-stake-s,746,5576469,0.0-19.0-0.1-0.249,AOMFEAWQHU3D8,3X2LT8FDIZY82IMGP2COH9T7SM78W0,3PH3VY7DJPDQ8XLXOUH3JDMYL7CWZO,5,6
250,4,object_08,object_07,244.0,7,2,302.19999992847,0.7777777777777778,1,object_02,1,3732,0,7,5,restaurant_2,2,memory-2step-stake-s,747,5584738,0.0-19.0-0.1-0.250,AOMFEAWQHU3D8,3X2LT8FDIZY82IMGP2COH9T7SM78W0,3PH3VY7DJPDQ8XLXOUH3JDMYL7CWZO,8,7
251,1,object_04,object_05,864.0,1,1,1099.2999999523,0.8888888888888888,1,object_02,1,3740,0,8,5,desert_5,2,memory-2step-stake-s,748,5593898,0.0-19.0-0.1-0.251,AOMFEAWQHU3D8,3X2LT8FDIZY82IMGP2COH9T7SM78W0,3PH3VY7DJPDQ8XLXOUH3JDMYL7CWZO,1,2
252,3,object_03,object_10,267.10000002384,5,2,447.69999992847,1.0,1,object_02,1,3749,0,9,3,library_6,2,memory-2step-stake-s,749,5602489,0.0-19.0-0.1-0.252,AOMFEAWQHU3D8,3X2LT8FDIZY82IMGP2COH9T7SM78W0,3PH3VY7DJPDQ8XLXOUH3JDMYL7CWZO,6,5
253,4,object_08,object_07,498.70000004768,7,2,520.70000004768,0.8888888888888888,1,object_02,1,3757,0,8,1,restaurant_2,2,memory-2step-stake-s,750,5611069,0.0-19.0-0.1-0.253,AOMFEAWQHU3D8,3X2LT8FDIZY82IMGP2COH9T7SM78W0,3PH3VY7DJPDQ8XLXOUH3JDMYL7CWZO,8,7
254,3,object_10,object_03,336.89999997616,5,1,637.29999995232,0.8888888888888888,1,object_02,1,3765,0,8,2,library_4,2,memory-2step-stake-s,751,5619768,0.0-19.0-0.1-0.254,AOMFEAWQHU3D8,3X2LT8FDIZY82IMGP2COH9T7SM78W0,3PH3VY7DJPDQ8XLXOUH3JDMYL7CWZO,5,6
255,1,object_04,object_05,470.79999995232,2,2,-1.0,0.0,2,object_06,5,3765,0,9,1,desert_4,2,memory-2step-stake-s,752,5628295,0.0-19.0-0.1-0.255,AOMFEAWQHU3D8,3X2LT8FDIZY82IMGP2COH9T7SM78W0,3PH3VY7DJPDQ8XLXOUH3JDMYL7CWZO,1,2
