,state1,stim_left,stim_right,rt_1,choice1,response1,rt_2,points,state2,stim_state2,stake,score,practice,rews1,rews2,background,high_arm,trial_type,trial_index,time_elapsed,internal_node_id,subid,hitid,assignmentid,stim_left_num,stim_right_num
0,2,object_09,object_05,632.20000004768,4,1,-1.0,0.0,2,object_10,5,0,0,1,9,forest_5,2,memory-2step-stake-s,509,1529769,0.0-19.0-0.0-0.0,A2R9OK4M877ZCC,3A3KKYU7Q6XNN7OKJ3M7MRU2CR5MWB,31LM9EDVOP8ALO7FE7NUZ0LH9ZDJNL,4,3
1,3,object_07,object_01,661.39999997616,6,2,890.0,1.0,2,object_10,1,9,0,2,9,library_3,2,memory-2step-stake-s,510,1538809,0.0-19.0-0.0-0.1,A2R9OK4M877ZCC,3A3KKYU7Q6XNN7OKJ3M7MRU2CR5MWB,31LM9EDVOP8ALO7FE7NUZ0LH9ZDJNL,5,6
2,1,object_03,object_06,687.59999990463,1,2,459.0,0.1111111111111111,1,object_08,5,14,0,1,5,desert_1,2,memory-2step-stake-s,511,1546611,0.0-19.0-0.0-0.2,A2R9OK4M877ZCC,3A3KKYU7Q6XNN7OKJ3M7MRU2CR5MWB,31LM9EDVOP8ALO7FE7NUZ0LH9ZDJNL,2,1
3,3,object_07,object_01,940.0,6,2,704.19999992847,0.5555555555555556,2,object_10,1,19,0,4,5,library_6,2,memory-2step-stake-s,512,1555057,0.0-19.0-0.0-0.3,A2R9OK4M877ZCC,3A3KKYU7Q6XNN7OKJ3M7MRU2CR5MWB,31LM9EDVOP8ALO7FE7NUZ0LH9ZDJNL,5,6
4,4,object_02,object_04,1073.6000000238,7,1,79.200000047684,0.6666666666666666,1,object_08,1,25,0,6,6,restaurant_5,2,memory-2step-stake-s,513,1562978,0.0-19.0-0.0-0.4,A2R9OK4M877ZCC,3A3KKYU7Q6XNN7OKJ3M7MRU2CR5MWB,31LM9EDVOP8ALO7FE7NUZ0LH9ZDJNL,7,8
5,3,object_01,object_07,678.20000004768,6,1,140.19999992847,0.4444444444444444,2,object_10,1,29,0,5,4,library_1,2,memory-2step-stake-s,514,1570753,0.0-19.0-0.0-0.5,A2R9OK4M877ZCC,3A3KKYU7Q6XNN7OKJ3M7MRU2CR5MWB,31LM9EDVOP8ALO7FE7NUZ0LH9ZDJNL,6,5
6,2,object_05,object_09,1088.0,4,2,515.79999995232,0.5555555555555556,2,object_10,5,54,0,6,5,forest_4,2,memory-2step-stake-s,515,1579016,0.0-19.0-0.0-0.6,A2R9OK4M877ZCC,3A3KKYU7Q6XNN7OKJ3M7MRU2CR5MWB,31LM9EDVOP8ALO7FE7NUZ0LH9ZDJNL,3,4
7,3,object_01,object_07,702.60000002384,6,1,382.89999997616,0.6666666666666666,2,object_10,1,60,0,5,6,library_8,2,memory-2step-stake-s,516,1587251,0.0-19.0-0.0-0.7,A2R9OK4M877ZCC,3A3KKYU7Q6XNN7OKJ3M7MRU2CR5MWB,31LM9EDVOP8ALO7FE7NUZ0LH9ZDJNL,6,5
8,1,object_03,object_06,953.5,1,2,411.39999997616,0.5555555555555556,1,object_08,5,85,0,5,3,desert_2,2,memory-2step-stake-s,517,1595399,0.0-19.0-0.0-0.8,A2R9OK4M877ZCC,3A3KKYU7Q6XNN7OKJ3M7MRU2CR5MWB,31LM9EDVOP8ALO7FE7NUZ0LH9ZDJNL,2,1
9,1,object_06,object_03,944.5,1,1,292.69999992847,0.5555555555555556,1,object_08,5,110,0,5,5,desert_4,2,memory-2step-stake-s,518,1603437,0.0-19.0-0.0-0.9,A2R9OK4M877ZCC,3A3KKYU7Q6XNN7OKJ3M7MRU2CR5MWB,31LM9EDVOP8ALO7FE7NUZ0LH9ZDJNL,1,2
10,1,object_03,object_06,920.90000009537,1,2,578.20000004768,0.4444444444444444,1,object_08,5,130,0,4,5,desert_2,2,memory-2step-stake-s,519,1611658,0.0-19.0-0.0-0.10,A2R9OK4M877ZCC,3A3KKYU7Q6XNN7OKJ3M7MRU2CR5MWB,31LM9EDVOP8ALO7FE7NUZ0LH9ZDJNL,2,1
11,4,object_04,object_02,1111.7999999523,7,2,424.80000007153,0.6666666666666666,1,object_08,5,160,0,6,2,restaurant_4,2,memory-2step-stake-s,520,1619941,0.0-19.0-0.0-0.11,A2R9OK4M877ZCC,3A3KKYU7Q6XNN7OKJ3M7MRU2CR5MWB,31LM9EDVOP8ALO7FE7NUZ0LH9ZDJNL,8,7
12,1,object_03,object_06,767.90000009537,1,2,433.80000007153,0.5555555555555556,1,object_08,1,165,0,5,1,desert_4,2,memory-2step-stake-s,521,1628126,0.0-19.0-0.0-0.12,A2R9OK4M877ZCC,3A3KKYU7Q6XNN7OKJ3M7MRU2CR5MWB,31LM9EDVOP8ALO7FE7NUZ0LH9ZDJNL,2,1
13,2,object_09,object_05,1113.1999999285,4,1,419.5,0.1111111111111111,2,object_10,5,170,0,7,1,forest_7,2,memory-2step-stake-s,522,1635871,0.0-19.0-0.0-0.13,A2R9OK4M877ZCC,3A3KKYU7Q6XNN7OKJ3M7MRU2CR5MWB,31LM9EDVOP8ALO7FE7NUZ0LH9ZDJNL,4,3
14,2,object_09,object_05,1252.3999999762,4,1,459.39999997616,0.2222222222222222,2,object_10,5,180,0,8,2,forest_6,2,memory-2step-stake-s,523,1643767,0.0-19.0-0.0-0.14,A2R9OK4M877ZCC,3A3KKYU7Q6XNN7OKJ3M7MRU2CR5MWB,31LM9EDVOP8ALO7FE7NUZ0LH9ZDJNL,4,3
15,1,object_03,object_06,884.89999997616,1,2,314.29999995232,0.8888888888888888,1,object_08,1,188,0,8,2,desert_2,2,memory-2step-stake-s,524,1652142,0.0-19.0-0.0-0.15,A2R9OK4M877ZCC,3A3KKYU7Q6XNN7OKJ3M7MRU2CR5MWB,31LM9EDVOP8ALO7FE7NUZ0LH9ZDJNL,2,1
16,4,object_04,object_02,634.80000007153,7,2,173.29999995232,0.8888888888888888,1,object_08,1,196,0,8,3,restaurant_5,2,memory-2step-stake-s,525,1660378,0.0-19.0-0.0-0.16,A2R9OK4M877ZCC,3A3KKYU7Q6XNN7OKJ3M7MRU2CR5MWB,31LM9EDVOP8ALO7FE7NUZ0LH9ZDJNL,8,7
17,4,object_02,object_04,769.19999992847,7,1,325.10000002384,0.7777777777777778,1,object_08,1,203,0,7,2,restaurant_4,2,memory-2step-stake-s,526,1668666,0.0-19.0-0.0-0.17,A2R9OK4M877ZCC,3A3KKYU7Q6XNN7OKJ3M7MRU2CR5MWB,31LM9EDVOP8ALO7FE7NUZ0LH9ZDJNL,7,8
18,1,object_03,object_06,1161.8999999762,1,2,910.40000009537,0.5555555555555556,1,object_08,5,228,0,5,2,desert_4,2,memory-2step-stake-s,527,1677304,0.0-19.0-0.0-0.18,A2R9OK4M877ZCC,3A3KKYU7Q6XNN7OKJ3M7MRU2CR5MWB,31LM9EDVOP8ALO7FE7NUZ0LH9ZDJNL,2,1
19,3,object_07,object_01,593.10000002384,6,2,542.5,0.3333333333333333,2,object_10,5,243,0,2,3,library_8,2,memory-2step-stake-s,528,1685368,0.0-19.0-0.0-0.19,A2R9OK4M877ZCC,3A3KKYU7Q6XNN7OKJ3M7MRU2CR5MWB,31LM9EDVOP8ALO7FE7NUZ0LH9ZDJNL,5,6
20,1,object_06,object_03,1076.8000000715,1,1,588.30000007153,0.1111111111111111,1,object_08,5,248,0,1,6,desert_2,2,memory-2step-stake-s,529,1693273,0.0-19.0-0.0-0.20,A2R9OK4M877ZCC,3A3KKYU7Q6XNN7OKJ3M7MRU2CR5MWB,31LM9EDVOP8ALO7FE7NUZ0LH9ZDJNL,1,2
21,2,object_09,object_05,976.10000002384,4,1,247.20000004768,0.5555555555555556,2,object_10,1,253,0,0,5,forest_5,2,memory-2step-stake-s,530,1701251,0.0-19.0-0.0-0.21,A2R9OK4M877ZCC,3A3KKYU7Q6XNN7OKJ3M7MRU2CR5MWB,31LM9EDVOP8ALO7FE7NUZ0LH9ZDJNL,4,3
22,1,object_03,object_06,826.5,1,2,706.60000002384,0.3333333333333333,1,object_08,5,268,0,3,5,desert_4,2,memory-2step-stake-s,531,1709489,0.0-19.0-0.0-0.22,A2R9OK4M877ZCC,3A3KKYU7Q6XNN7OKJ3M7MRU2CR5MWB,31LM9EDVOP8ALO7FE7NUZ0LH9ZDJNL,2,1
23,2,object_05,object_09,922.70000004768,4,2,561.19999992847,0.7777777777777778,2,object_10,5,303,0,4,7,forest_5,2,memory-2step-stake-s,532,1718006,0.0-19.0-0.0-0.23,A2R9OK4M877ZCC,3A3KKYU7Q6XNN7OKJ3M7MRU2CR5MWB,31LM9EDVOP8ALO7FE7NUZ0LH9ZDJNL,3,4
24,1,object_03,object_06,609.79999995232,1,2,935.19999992847,0.7777777777777778,1,object_08,1,310,0,7,9,desert_1,2,memory-2step-stake-s,533,1726867,0.0-19.0-0.0-0.24,A2R9OK4M877ZCC,3A3KKYU7Q6XNN7OKJ3M7MRU2CR5MWB,31LM9EDVOP8ALO7FE7NUZ0LH9ZDJNL,2,1
25,4,object_02,object_04,914.70000004768,7,1,243.29999995232,0.6666666666666666,1,object_08,1,316,0,6,8,restaurant_3,2,memory-2step-stake-s,534,1734943,0.0-19.0-0.0-0.25,A2R9OK4M877ZCC,3A3KKYU7Q6XNN7OKJ3M7MRU2CR5MWB,31LM9EDVOP8ALO7FE7NUZ0LH9ZDJNL,7,8
26,3,object_01,object_07,833.0,6,1,420.29999995232,0.8888888888888888,2,object_10,1,324,0,5,8,library_3,2,memory-2step-stake-s,535,1743399,0.0-19.0-0.0-0.26,A2R9OK4M877ZCC,3A3KKYU7Q6XNN7OKJ3M7MRU2CR5MWB,31LM9EDVOP8ALO7FE7NUZ0LH9ZDJNL,6,5
27,1,object_03,object_06,-1.0,-1,-1,-1.0,0.0,-,0,5,324,0,5,7,desert_8,2,memory-2step-stake-s,536,1749913,0.0-19.0-0.0-0.27,A2R9OK4M877ZCC,3A3KKYU7Q6XNN7OKJ3M7MRU2CR5MWB,31LM9EDVOP8ALO7FE7NUZ0LH9ZDJNL,2,1
28,1,object_03,object_06,606.39999997616,1,2,374.29999995232,1.0,1,object_08,5,369,0,9,5,desert_2,2,memory-2step-stake-s,537,1758431,0.0-19.0-0.0-0.28,A2R9OK4M877ZCC,3A3KKYU7Q6XNN7OKJ3M7MRU2CR5MWB,31LM9EDVOP8ALO7FE7NUZ0LH9ZDJNL,2,1
29,4,object_02,object_04,1294.6000000238,7,1,666.10000002384,0.7777777777777778,1,object_08,5,404,0,7,6,restaurant_3,2,memory-2step-stake-s,538,1767033,0.0-19.0-0.0-0.29,A2R9OK4M877ZCC,3A3KKYU7Q6XNN7OKJ3M7MRU2CR5MWB,31LM9EDVOP8ALO7FE7NUZ0LH9ZDJNL,7,8
30,3,object_07,object_01,673.80000007153,6,2,283.70000004768,0.3333333333333333,2,object_10,1,407,0,4,3,library_6,2,memory-2step-stake-s,539,1774843,0.0-19.0-0.0-0.30,A2R9OK4M877ZCC,3A3KKYU7Q6XNN7OKJ3M7MRU2CR5MWB,31LM9EDVOP8ALO7FE7NUZ0LH9ZDJNL,5,6
31,3,object_07,object_01,697.79999995232,6,2,923.0,0.4444444444444444,2,object_10,1,411,0,6,4,library_8,2,memory-2step-stake-s,540,1783394,0.0-19.0-0.0-0.31,A2R9OK4M877ZCC,3A3KKYU7Q6XNN7OKJ3M7MRU2CR5MWB,31LM9EDVOP8ALO7FE7NUZ0LH9ZDJNL,5,6
32,2,object_09,object_05,749.09999990463,4,1,264.40000009537,0.5555555555555556,2,object_10,5,436,0,8,5,forest_4,2,memory-2step-stake-s,541,1791386,0.0-19.0-0.0-0.32,A2R9OK4M877ZCC,3A3KKYU7Q6XNN7OKJ3M7MRU2CR5MWB,31LM9EDVOP8ALO7FE7NUZ0LH9ZDJNL,4,3
33,4,object_04,object_02,736.10000002384,7,2,1194.0,0.7777777777777778,1,object_08,1,443,0,7,2,restaurant_4,2,memory-2step-stake-s,542,1800519,0.0-19.0-0.0-0.33,A2R9OK4M877ZCC,3A3KKYU7Q6XNN7OKJ3M7MRU2CR5MWB,31LM9EDVOP8ALO7FE7NUZ0LH9ZDJNL,8,7
34,3,object_01,object_07,1050.8999999762,6,1,260.10000002384,0.2222222222222222,2,object_10,1,445,0,7,2,library_3,2,memory-2step-stake-s,543,1808211,0.0-19.0-0.0-0.34,A2R9OK4M877ZCC,3A3KKYU7Q6XNN7OKJ3M7MRU2CR5MWB,31LM9EDVOP8ALO7FE7NUZ0LH9ZDJNL,6,5
35,4,object_02,object_04,676.89999997616,7,1,-1.0,0.0,1,object_08,1,445,0,7,0,restaurant_1,2,memory-2step-stake-s,544,1816732,0.0-19.0-0.0-0.35,A2R9OK4M877ZCC,3A3KKYU7Q6XNN7OKJ3M7MRU2CR5MWB,31LM9EDVOP8ALO7FE7NUZ0LH9ZDJNL,7,8
36,2,object_05,object_09,839.60000002384,4,2,335.20000004768,0.3333333333333333,2,object_10,1,448,0,6,3,forest_7,2,memory-2step-stake-s,545,1824605,0.0-19.0-0.0-0.36,A2R9OK4M877ZCC,3A3KKYU7Q6XNN7OKJ3M7MRU2CR5MWB,31LM9EDVOP8ALO7FE7NUZ0LH9ZDJNL,3,4
37,2,object_09,object_05,974.30000007153,4,1,428.5,0.2222222222222222,2,object_10,5,458,0,5,2,forest_5,2,memory-2step-stake-s,546,1832461,0.0-19.0-0.0-0.37,A2R9OK4M877ZCC,3A3KKYU7Q6XNN7OKJ3M7MRU2CR5MWB,31LM9EDVOP8ALO7FE7NUZ0LH9ZDJNL,4,3
38,2,object_05,object_09,1302.6999999285,4,2,406.89999997616,0.4444444444444444,2,object_10,5,478,0,5,4,forest_5,2,memory-2step-stake-s,547,1840509,0.0-19.0-0.0-0.38,A2R9OK4M877ZCC,3A3KKYU7Q6XNN7OKJ3M7MRU2CR5MWB,31LM9EDVOP8ALO7FE7NUZ0LH9ZDJNL,3,4
39,4,object_02,object_04,686.79999995232,7,1,283.5,0.4444444444444444,1,object_08,5,498,0,4,5,restaurant_5,2,memory-2step-stake-s,548,1848435,0.0-19.0-0.0-0.39,A2R9OK4M877ZCC,3A3KKYU7Q6XNN7OKJ3M7MRU2CR5MWB,31LM9EDVOP8ALO7FE7NUZ0LH9ZDJNL,7,8
40,2,object_05,object_09,951.10000002384,4,2,-1.0,0.0,2,object_10,5,498,0,3,6,forest_7,2,memory-2step-stake-s,549,1856962,0.0-19.0-0.0-0.40,A2R9OK4M877ZCC,3A3KKYU7Q6XNN7OKJ3M7MRU2CR5MWB,31LM9EDVOP8ALO7FE7NUZ0LH9ZDJNL,3,4
41,2,object_09,object_05,1101.7000000477,3,2,304.29999995232,0.3333333333333333,1,object_08,5,513,0,3,6,forest_7,2,memory-2step-stake-s,550,1864799,0.0-19.0-0.0-0.41,A2R9OK4M877ZCC,3A3KKYU7Q6XNN7OKJ3M7MRU2CR5MWB,31LM9EDVOP8ALO7FE7NUZ0LH9ZDJNL,4,3
42,1,object_03,object_06,1259.1000000238,2,1,292.0,0.6666666666666666,2,object_10,1,519,0,5,6,desert_4,2,memory-2step-stake-s,551,1872924,0.0-19.0-0.0-0.42,A2R9OK4M877ZCC,3A3KKYU7Q6XNN7OKJ3M7MRU2CR5MWB,31LM9EDVOP8ALO7FE7NUZ0LH9ZDJNL,2,1
43,1,object_03,object_06,869.30000007153,2,1,59.400000095367,0.3333333333333333,2,object_10,5,534,0,4,3,desert_1,2,memory-2step-stake-s,552,1880514,0.0-19.0-0.0-0.43,A2R9OK4M877ZCC,3A3KKYU7Q6XNN7OKJ3M7MRU2CR5MWB,31LM9EDVOP8ALO7FE7NUZ0LH9ZDJNL,2,1
44,2,object_09,object_05,-1.0,-1,-1,-1.0,0.0,-,0,5,534,0,3,2,forest_7,2,memory-2step-stake-s,553,1887028,0.0-19.0-0.0-0.44,A2R9OK4M877ZCC,3A3KKYU7Q6XNN7OKJ3M7MRU2CR5MWB,31LM9EDVOP8ALO7FE7NUZ0LH9ZDJNL,4,3
45,1,object_03,object_06,865.29999995232,2,1,425.70000004768,0.3333333333333333,2,object_10,5,549,0,1,3,desert_1,2,memory-2step-stake-s,554,1894978,0.0-19.0-0.0-0.45,A2R9OK4M877ZCC,3A3KKYU7Q6XNN7OKJ3M7MRU2CR5MWB,31LM9EDVOP8ALO7FE7NUZ0LH9ZDJNL,2,1
46,2,object_09,object_05,1038.7999999523,3,2,638.10000002384,0.2222222222222222,1,object_08,5,559,0,2,6,forest_7,2,memory-2step-stake-s,555,1903037,0.0-19.0-0.0-0.46,A2R9OK4M877ZCC,3A3KKYU7Q6XNN7OKJ3M7MRU2CR5MWB,31LM9EDVOP8ALO7FE7NUZ0LH9ZDJNL,4,3
47,1,object_03,object_06,1380.7999999523,2,1,491.10000002384,0.8888888888888888,2,object_10,5,599,0,5,8,desert_2,2,memory-2step-stake-s,556,1911565,0.0-19.0-0.0-0.47,A2R9OK4M877ZCC,3A3KKYU7Q6XNN7OKJ3M7MRU2CR5MWB,31LM9EDVOP8ALO7FE7NUZ0LH9ZDJNL,2,1
48,4,object_04,object_02,1139.5,8,1,374.19999992847,1.0,2,object_10,1,608,0,6,9,restaurant_3,2,memory-2step-stake-s,557,1920101,0.0-19.0-0.0-0.48,A2R9OK4M877ZCC,3A3KKYU7Q6XNN7OKJ3M7MRU2CR5MWB,31LM9EDVOP8ALO7FE7NUZ0LH9ZDJNL,8,7
49,2,object_05,object_09,769.70000004768,3,1,744.29999995232,1.0,1,object_08,5,653,0,9,8,forest_4,2,memory-2step-stake-s,558,1928979,0.0-19.0-0.0-0.49,A2R9OK4M877ZCC,3A3KKYU7Q6XNN7OKJ3M7MRU2CR5MWB,31LM9EDVOP8ALO7FE7NUZ0LH9ZDJNL,3,4
50,1,object_03,object_06,783.0,2,1,1079.3999999762,0.6666666666666666,2,object_10,1,659,0,8,6,desert_8,2,memory-2step-stake-s,559,1937904,0.0-19.0-0.0-0.50,A2R9OK4M877ZCC,3A3KKYU7Q6XNN7OKJ3M7MRU2CR5MWB,31LM9EDVOP8ALO7FE7NUZ0LH9ZDJNL,2,1
51,1,object_03,object_06,792.0,2,1,-1.0,0.0,2,object_10,5,659,0,9,7,desert_1,2,memory-2step-stake-s,560,1946425,0.0-19.0-0.0-0.51,A2R9OK4M877ZCC,3A3KKYU7Q6XNN7OKJ3M7MRU2CR5MWB,31LM9EDVOP8ALO7FE7NUZ0LH9ZDJNL,2,1
52,1,object_06,object_03,-1.0,-1,-1,-1.0,0.0,-,0,5,659,0,8,8,desert_8,2,memory-2step-stake-s,561,1952942,0.0-19.0-0.0-0.52,A2R9OK4M877ZCC,3A3KKYU7Q6XNN7OKJ3M7MRU2CR5MWB,31LM9EDVOP8ALO7FE7NUZ0LH9ZDJNL,1,2
53,4,object_02,object_04,1070.3999999762,8,2,940.29999995232,0.7777777777777778,2,object_10,1,666,0,9,7,restaurant_5,2,memory-2step-stake-s,562,1961843,0.0-19.0-0.0-0.53,A2R9OK4M877ZCC,3A3KKYU7Q6XNN7OKJ3M7MRU2CR5MWB,31LM9EDVOP8ALO7FE7NUZ0LH9ZDJNL,7,8
54,4,object_02,object_04,881.60000002384,8,2,240.60000002384,1.0,2,object_10,5,711,0,9,9,restaurant_1,2,memory-2step-stake-s,563,1970229,0.0-19.0-0.0-0.54,A2R9OK4M877ZCC,3A3KKYU7Q6XNN7OKJ3M7MRU2CR5MWB,31LM9EDVOP8ALO7FE7NUZ0LH9ZDJNL,7,8
55,4,object_04,object_02,823.30000007153,8,1,543.0,0.6666666666666666,2,object_10,1,717,0,7,6,restaurant_1,2,memory-2step-stake-s,564,1978614,0.0-19.0-0.0-0.55,A2R9OK4M877ZCC,3A3KKYU7Q6XNN7OKJ3M7MRU2CR5MWB,31LM9EDVOP8ALO7FE7NUZ0LH9ZDJNL,8,7
56,2,object_09,object_05,1197.9000000954,3,2,166.40000009537,0.6666666666666666,1,object_08,1,723,0,6,7,forest_4,2,memory-2step-stake-s,565,1986618,0.0-19.0-0.0-0.56,A2R9OK4M877ZCC,3A3KKYU7Q6XNN7OKJ3M7MRU2CR5MWB,31LM9EDVOP8ALO7FE7NUZ0LH9ZDJNL,4,3
57,4,object_04,object_02,823.39999997616,8,1,509.70000004768,0.7777777777777778,2,object_10,1,730,0,5,7,restaurant_1,2,memory-2step-stake-s,566,1995078,0.0-19.0-0.0-0.57,A2R9OK4M877ZCC,3A3KKYU7Q6XNN7OKJ3M7MRU2CR5MWB,31LM9EDVOP8ALO7FE7NUZ0LH9ZDJNL,8,7
58,3,object_01,object_07,1151.0,5,2,239.10000002384,0.5555555555555556,1,object_08,1,735,0,5,3,library_8,2,memory-2step-stake-s,567,2003052,0.0-19.0-0.0-0.58,A2R9OK4M877ZCC,3A3KKYU7Q6XNN7OKJ3M7MRU2CR5MWB,31LM9EDVOP8ALO7FE7NUZ0LH9ZDJNL,6,5
59,1,object_06,object_03,943.39999997616,2,2,255.60000002384,0.0,2,object_10,5,735,0,6,0,desert_8,2,memory-2step-stake-s,568,2010536,0.0-19.0-0.0-0.59,A2R9OK4M877ZCC,3A3KKYU7Q6XNN7OKJ3M7MRU2CR5MWB,31LM9EDVOP8ALO7FE7NUZ0LH9ZDJNL,1,2
60,1,object_06,object_03,1139.1999999285,1,1,80.799999952316,0.6666666666666666,1,object_08,5,765,0,6,2,desert_1,2,memory-2step-stake-s,569,2018473,0.0-19.0-0.0-0.60,A2R9OK4M877ZCC,3A3KKYU7Q6XNN7OKJ3M7MRU2CR5MWB,31LM9EDVOP8ALO7FE7NUZ0LH9ZDJNL,1,2
61,2,object_09,object_05,747.10000002384,4,1,56.5,0.2222222222222222,2,object_10,1,767,0,4,2,forest_5,2,memory-2step-stake-s,570,2025962,0.0-19.0-0.0-0.61,A2R9OK4M877ZCC,3A3KKYU7Q6XNN7OKJ3M7MRU2CR5MWB,31LM9EDVOP8ALO7FE7NUZ0LH9ZDJNL,4,3
62,2,object_05,object_09,1047.5999999046,4,2,601.80000007153,0.3333333333333333,2,object_10,5,782,0,0,3,forest_5,2,memory-2step-stake-s,571,2034091,0.0-19.0-0.0-0.62,A2R9OK4M877ZCC,3A3KKYU7Q6XNN7OKJ3M7MRU2CR5MWB,31LM9EDVOP8ALO7FE7NUZ0LH9ZDJNL,3,4
63,4,object_02,object_04,920.19999992847,8,2,332.29999995232,0.3333333333333333,2,object_10,1,785,0,0,3,restaurant_1,2,memory-2step-stake-s,572,2041952,0.0-19.0-0.0-0.63,A2R9OK4M877ZCC,3A3KKYU7Q6XNN7OKJ3M7MRU2CR5MWB,31LM9EDVOP8ALO7FE7NUZ0LH9ZDJNL,7,8
64,3,object_01,object_07,876.79999995232,5,2,18.799999952316,0.2222222222222222,1,object_08,5,795,0,2,2,library_1,2,memory-2step-stake-s,573,2049406,0.0-19.0-0.0-0.64,A2R9OK4M877ZCC,3A3KKYU7Q6XNN7OKJ3M7MRU2CR5MWB,31LM9EDVOP8ALO7FE7NUZ0LH9ZDJNL,6,5
65,1,object_06,object_03,798.30000007153,1,1,-1.0,0.0,1,object_08,5,795,0,1,1,desert_4,2,memory-2step-stake-s,574,2057952,0.0-19.0-0.0-0.65,A2R9OK4M877ZCC,3A3KKYU7Q6XNN7OKJ3M7MRU2CR5MWB,31LM9EDVOP8ALO7FE7NUZ0LH9ZDJNL,1,2
66,4,object_02,object_04,1149.7999999523,7,1,278.80000007153,0.3333333333333333,1,object_08,1,798,0,3,1,restaurant_4,2,memory-2step-stake-s,575,2065762,0.0-19.0-0.0-0.66,A2R9OK4M877ZCC,3A3KKYU7Q6XNN7OKJ3M7MRU2CR5MWB,31LM9EDVOP8ALO7FE7NUZ0LH9ZDJNL,7,8
67,4,object_02,object_04,863.0,7,1,256.09999990463,0.2222222222222222,1,object_08,1,800,0,2,2,restaurant_4,2,memory-2step-stake-s,576,2073444,0.0-19.0-0.0-0.67,A2R9OK4M877ZCC,3A3KKYU7Q6XNN7OKJ3M7MRU2CR5MWB,31LM9EDVOP8ALO7FE7NUZ0LH9ZDJNL,7,8
68,4,object_04,object_02,912.5,7,2,1315.1000000238,0.2222222222222222,1,object_08,5,810,0,2,4,restaurant_1,2,memory-2step-stake-s,577,2082181,0.0-19.0-0.0-0.68,A2R9OK4M877ZCC,3A3KKYU7Q6XNN7OKJ3M7MRU2CR5MWB,31LM9EDVOP8ALO7FE7NUZ0LH9ZDJNL,8,7
69,4,object_04,object_02,863.39999997616,8,1,-1.0,0.0,2,object_10,5,810,0,1,5,restaurant_4,2,memory-2step-stake-s,578,2090723,0.0-19.0-0.0-0.69,A2R9OK4M877ZCC,3A3KKYU7Q6XNN7OKJ3M7MRU2CR5MWB,31LM9EDVOP8ALO7FE7NUZ0LH9ZDJNL,8,7
70,3,object_01,object_07,1198.1999999285,5,2,113.60000002384,0.2222222222222222,1,object_08,5,820,0,2,7,library_1,2,memory-2step-stake-s,579,2098263,0.0-19.0-0.0-0.70,A2R9OK4M877ZCC,3A3KKYU7Q6XNN7OKJ3M7MRU2CR5MWB,31LM9EDVOP8ALO7FE7NUZ0LH9ZDJNL,6,5
71,1,object_03,object_06,1078.2000000477,2,1,608.20000004768,1.0,2,object_10,5,865,0,4,9,desert_4,2,memory-2step-stake-s,580,2107034,0.0-19.0-0.0-0.71,A2R9OK4M877ZCC,3A3KKYU7Q6XNN7OKJ3M7MRU2CR5MWB,31LM9EDVOP8ALO7FE7NUZ0LH9ZDJNL,2,1
72,2,object_05,object_09,873.89999997616,3,1,1480.3999999762,0.8888888888888888,1,object_08,1,873,0,8,7,forest_7,2,memory-2step-stake-s,581,2116564,0.0-19.0-0.0-0.72,A2R9OK4M877ZCC,3A3KKYU7Q6XNN7OKJ3M7MRU2CR5MWB,31LM9EDVOP8ALO7FE7NUZ0LH9ZDJNL,3,4
73,4,object_04,object_02,857.59999990463,7,2,1218.1000000238,0.7777777777777778,1,object_08,1,880,0,7,8,restaurant_5,2,memory-2step-stake-s,582,2125710,0.0-19.0-0.0-0.73,A2R9OK4M877ZCC,3A3KKYU7Q6XNN7OKJ3M7MRU2CR5MWB,31LM9EDVOP8ALO7FE7NUZ0LH9ZDJNL,8,7
74,1,object_06,object_03,603.19999992847,1,1,668.89999997616,0.6666666666666666,1,object_08,5,910,0,6,6,desert_1,2,memory-2step-stake-s,583,2134215,0.0-19.0-0.0-0.74,A2R9OK4M877ZCC,3A3KKYU7Q6XNN7OKJ3M7MRU2CR5MWB,31LM9EDVOP8ALO7FE7NUZ0LH9ZDJNL,1,2
75,3,object_01,object_07,808.40000009537,5,2,43.100000023842,0.3333333333333333,1,object_08,1,913,0,3,8,library_6,2,memory-2step-stake-s,584,2141787,0.0-19.0-0.0-0.75,A2R9OK4M877ZCC,3A3KKYU7Q6XNN7OKJ3M7MRU2CR5MWB,31LM9EDVOP8ALO7FE7NUZ0LH9ZDJNL,6,5
76,3,object_01,object_07,830.79999995232,6,1,343.10000002384,1.0,2,object_10,5,958,0,7,9,library_3,2,memory-2step-stake-s,585,2150281,0.0-19.0-0.0-0.76,A2R9OK4M877ZCC,3A3KKYU7Q6XNN7OKJ3M7MRU2CR5MWB,31LM9EDVOP8ALO7FE7NUZ0LH9ZDJNL,6,5
77,3,object_01,object_07,850.39999997616,5,2,469.60000002384,0.6666666666666666,1,object_08,1,964,0,6,5,library_6,2,memory-2step-stake-s,586,2158581,0.0-19.0-0.0-0.77,A2R9OK4M877ZCC,3A3KKYU7Q6XNN7OKJ3M7MRU2CR5MWB,31LM9EDVOP8ALO7FE7NUZ0LH9ZDJNL,6,5
78,4,object_04,object_02,900.80000007153,7,2,-1.0,0.0,1,object_08,5,964,0,5,6,restaurant_5,2,memory-2step-stake-s,587,2167098,0.0-19.0-0.0-0.78,A2R9OK4M877ZCC,3A3KKYU7Q6XNN7OKJ3M7MRU2CR5MWB,31LM9EDVOP8ALO7FE7NUZ0LH9ZDJNL,8,7
79,4,object_04,object_02,1398.6000000238,8,1,458.5,0.8888888888888888,2,object_10,1,972,0,6,8,restaurant_4,2,memory-2step-stake-s,588,2175595,0.0-19.0-0.0-0.79,A2R9OK4M877ZCC,3A3KKYU7Q6XNN7OKJ3M7MRU2CR5MWB,31LM9EDVOP8ALO7FE7NUZ0LH9ZDJNL,8,7
80,4,object_02,object_04,1338.6000000238,7,1,367.79999995232,0.6666666666666666,1,object_08,1,978,0,6,8,restaurant_3,2,memory-2step-stake-s,589,2183788,0.0-19.0-0.0-0.80,A2R9OK4M877ZCC,3A3KKYU7Q6XNN7OKJ3M7MRU2CR5MWB,31LM9EDVOP8ALO7FE7NUZ0LH9ZDJNL,7,8
81,2,object_09,object_05,747.0,3,2,61.600000023842,0.7777777777777778,1,object_08,5,1013,0,7,8,forest_7,2,memory-2step-stake-s,590,2191776,0.0-19.0-0.0-0.81,A2R9OK4M877ZCC,3A3KKYU7Q6XNN7OKJ3M7MRU2CR5MWB,31LM9EDVOP8ALO7FE7NUZ0LH9ZDJNL,4,3
82,2,object_05,object_09,1207.1000000238,3,1,229.80000007153,0.7777777777777778,1,object_08,5,1048,0,7,9,forest_5,2,memory-2step-stake-s,591,2199943,0.0-19.0-0.0-0.82,A2R9OK4M877ZCC,3A3KKYU7Q6XNN7OKJ3M7MRU2CR5MWB,31LM9EDVOP8ALO7FE7NUZ0LH9ZDJNL,3,4
83,2,object_05,object_09,1347.5,3,1,459.5,0.5555555555555556,1,object_08,5,1073,0,5,9,forest_6,2,memory-2step-stake-s,592,2208134,0.0-19.0-0.0-0.83,A2R9OK4M877ZCC,3A3KKYU7Q6XNN7OKJ3M7MRU2CR5MWB,31LM9EDVOP8ALO7FE7NUZ0LH9ZDJNL,3,4
84,3,object_07,object_01,1216.8999999762,5,1,439.0,0.6666666666666666,1,object_08,5,1103,0,6,9,library_1,2,memory-2step-stake-s,593,2216412,0.0-19.0-0.0-0.84,A2R9OK4M877ZCC,3A3KKYU7Q6XNN7OKJ3M7MRU2CR5MWB,31LM9EDVOP8ALO7FE7NUZ0LH9ZDJNL,5,6
85,4,object_04,object_02,1112.1999999285,8,1,28.100000023842,0.7777777777777778,2,object_10,1,1110,0,7,7,restaurant_3,2,memory-2step-stake-s,594,2224370,0.0-19.0-0.0-0.85,A2R9OK4M877ZCC,3A3KKYU7Q6XNN7OKJ3M7MRU2CR5MWB,31LM9EDVOP8ALO7FE7NUZ0LH9ZDJNL,8,7
86,3,object_07,object_01,861.70000004768,5,1,1201.4000000954,1.0,1,object_08,1,1119,0,9,6,library_3,2,memory-2step-stake-s,595,2233710,0.0-19.0-0.0-0.86,A2R9OK4M877ZCC,3A3KKYU7Q6XNN7OKJ3M7MRU2CR5MWB,31LM9EDVOP8ALO7FE7NUZ0LH9ZDJNL,5,6
87,2,object_09,object_05,1219.6000000238,3,2,342.89999997616,0.7777777777777778,1,object_08,5,1154,0,7,8,forest_6,2,memory-2step-stake-s,596,2241984,0.0-19.0-0.0-0.87,A2R9OK4M877ZCC,3A3KKYU7Q6XNN7OKJ3M7MRU2CR5MWB,31LM9EDVOP8ALO7FE7NUZ0LH9ZDJNL,4,3
88,2,object_09,object_05,-1.0,-1,-1,-1.0,0.0,-,0,5,1154,0,4,7,forest_5,2,memory-2step-stake-s,597,2248511,0.0-19.0-0.0-0.88,A2R9OK4M877ZCC,3A3KKYU7Q6XNN7OKJ3M7MRU2CR5MWB,31LM9EDVOP8ALO7FE7NUZ0LH9ZDJNL,4,3
89,3,object_01,object_07,935.90000009537,6,1,248.40000009537,0.6666666666666666,2,object_10,1,1160,0,3,6,library_3,2,memory-2step-stake-s,598,2256609,0.0-19.0-0.0-0.89,A2R9OK4M877ZCC,3A3KKYU7Q6XNN7OKJ3M7MRU2CR5MWB,31LM9EDVOP8ALO7FE7NUZ0LH9ZDJNL,6,5
90,4,object_04,object_02,1202.5,7,2,202.79999995232,0.3333333333333333,1,object_08,1,1163,0,3,6,restaurant_4,2,memory-2step-stake-s,599,2264341,0.0-19.0-0.0-0.90,A2R9OK4M877ZCC,3A3KKYU7Q6XNN7OKJ3M7MRU2CR5MWB,31LM9EDVOP8ALO7FE7NUZ0LH9ZDJNL,8,7
91,4,object_04,object_02,926.89999997616,8,1,289.29999995232,0.6666666666666666,2,object_10,5,1193,0,4,6,restaurant_5,2,memory-2step-stake-s,600,2272480,0.0-19.0-0.0-0.91,A2R9OK4M877ZCC,3A3KKYU7Q6XNN7OKJ3M7MRU2CR5MWB,31LM9EDVOP8ALO7FE7NUZ0LH9ZDJNL,8,7
92,2,object_09,object_05,1348.0,3,2,197.89999997616,0.1111111111111111,1,object_08,5,1198,0,1,9,forest_5,2,memory-2step-stake-s,601,2280005,0.0-19.0-0.0-0.92,A2R9OK4M877ZCC,3A3KKYU7Q6XNN7OKJ3M7MRU2CR5MWB,31LM9EDVOP8ALO7FE7NUZ0LH9ZDJNL,4,3
93,1,object_03,object_06,746.89999997616,2,1,266.79999995232,0.8888888888888888,2,object_10,5,1238,0,1,8,desert_2,2,memory-2step-stake-s,602,2288314,0.0-19.0-0.0-0.93,A2R9OK4M877ZCC,3A3KKYU7Q6XNN7OKJ3M7MRU2CR5MWB,31LM9EDVOP8ALO7FE7NUZ0LH9ZDJNL,2,1
94,4,object_02,object_04,1393.3999999762,7,1,206.69999992847,0.3333333333333333,1,object_08,1,1241,0,3,9,restaurant_1,2,memory-2step-stake-s,603,2296065,0.0-19.0-0.0-0.94,A2R9OK4M877ZCC,3A3KKYU7Q6XNN7OKJ3M7MRU2CR5MWB,31LM9EDVOP8ALO7FE7NUZ0LH9ZDJNL,7,8
95,4,object_04,object_02,635.80000007153,7,2,371.89999997616,0.0,1,object_08,1,1241,0,0,7,restaurant_1,2,memory-2step-stake-s,604,2303660,0.0-19.0-0.0-0.95,A2R9OK4M877ZCC,3A3KKYU7Q6XNN7OKJ3M7MRU2CR5MWB,31LM9EDVOP8ALO7FE7NUZ0LH9ZDJNL,8,7
96,3,object_07,object_01,863.19999992847,5,1,319.19999992847,0.1111111111111111,1,object_08,5,1246,0,1,6,library_1,2,memory-2step-stake-s,605,2311316,0.0-19.0-0.0-0.96,A2R9OK4M877ZCC,3A3KKYU7Q6XNN7OKJ3M7MRU2CR5MWB,31LM9EDVOP8ALO7FE7NUZ0LH9ZDJNL,5,6
97,4,object_04,object_02,1054.1000000238,8,1,185.60000002384,0.7777777777777778,2,object_10,5,1281,0,1,7,restaurant_3,2,memory-2step-stake-s,606,2319444,0.0-19.0-0.0-0.97,A2R9OK4M877ZCC,3A3KKYU7Q6XNN7OKJ3M7MRU2CR5MWB,31LM9EDVOP8ALO7FE7NUZ0LH9ZDJNL,8,7
98,4,object_04,object_02,774.0,8,1,79.300000071526,0.4444444444444444,2,object_10,5,1301,0,2,4,restaurant_5,2,memory-2step-stake-s,607,2327164,0.0-19.0-0.0-0.98,A2R9OK4M877ZCC,3A3KKYU7Q6XNN7OKJ3M7MRU2CR5MWB,31LM9EDVOP8ALO7FE7NUZ0LH9ZDJNL,8,7
99,1,object_06,object_03,828.89999997616,2,2,2.7000000476837,0.6666666666666666,2,object_10,5,1331,0,1,6,desert_8,2,memory-2step-stake-s,608,2335014,0.0-19.0-0.0-0.99,A2R9OK4M877ZCC,3A3KKYU7Q6XNN7OKJ3M7MRU2CR5MWB,31LM9EDVOP8ALO7FE7NUZ0LH9ZDJNL,1,2
100,1,object_03,object_06,842.10000002384,1,2,53.599999904633,0.0,1,object_08,5,1331,0,0,5,desert_4,2,memory-2step-stake-s,609,2342288,0.0-19.0-0.0-0.100,A2R9OK4M877ZCC,3A3KKYU7Q6XNN7OKJ3M7MRU2CR5MWB,31LM9EDVOP8ALO7FE7NUZ0LH9ZDJNL,2,1
101,4,object_04,object_02,838.79999995232,8,1,261.5,0.3333333333333333,2,object_10,1,1334,0,2,3,restaurant_5,2,memory-2step-stake-s,610,2350085,0.0-19.0-0.0-0.101,A2R9OK4M877ZCC,3A3KKYU7Q6XNN7OKJ3M7MRU2CR5MWB,31LM9EDVOP8ALO7FE7NUZ0LH9ZDJNL,8,7
102,1,object_03,object_06,682.89999997616,2,1,457.89999997616,0.2222222222222222,2,object_10,1,1336,0,6,2,desert_8,2,memory-2step-stake-s,611,2357972,0.0-19.0-0.0-0.102,A2R9OK4M877ZCC,3A3KKYU7Q6XNN7OKJ3M7MRU2CR5MWB,31LM9EDVOP8ALO7FE7NUZ0LH9ZDJNL,2,1
103,3,object_01,object_07,1151.2999999523,6,1,207.29999995232,0.5555555555555556,2,object_10,1,1341,0,5,5,library_6,2,memory-2step-stake-s,612,2365905,0.0-19.0-0.0-0.103,A2R9OK4M877ZCC,3A3KKYU7Q6XNN7OKJ3M7MRU2CR5MWB,31LM9EDVOP8ALO7FE7NUZ0LH9ZDJNL,6,5
104,2,object_05,object_09,-1.0,-1,-1,-1.0,0.0,-,0,1,1341,0,5,3,forest_6,2,memory-2step-stake-s,613,2372419,0.0-19.0-0.0-0.104,A2R9OK4M877ZCC,3A3KKYU7Q6XNN7OKJ3M7MRU2CR5MWB,31LM9EDVOP8ALO7FE7NUZ0LH9ZDJNL,3,4
105,4,object_04,object_02,649.60000002384,7,2,141.5,1.0,1,object_08,1,1350,0,9,3,restaurant_3,2,memory-2step-stake-s,614,2380699,0.0-19.0-0.0-0.105,A2R9OK4M877ZCC,3A3KKYU7Q6XNN7OKJ3M7MRU2CR5MWB,31LM9EDVOP8ALO7FE7NUZ0LH9ZDJNL,8,7
106,2,object_05,object_09,837.20000004768,4,2,-1.0,0.0,2,object_10,5,1350,0,8,4,forest_6,2,memory-2step-stake-s,615,2389218,0.0-19.0-0.0-0.106,A2R9OK4M877ZCC,3A3KKYU7Q6XNN7OKJ3M7MRU2CR5MWB,31LM9EDVOP8ALO7FE7NUZ0LH9ZDJNL,3,4
107,3,object_07,object_01,595.79999995232,5,1,120.39999997616,0.8888888888888888,1,object_08,5,1390,0,8,7,library_6,2,memory-2step-stake-s,616,2397372,0.0-19.0-0.0-0.107,A2R9OK4M877ZCC,3A3KKYU7Q6XNN7OKJ3M7MRU2CR5MWB,31LM9EDVOP8ALO7FE7NUZ0LH9ZDJNL,5,6
108,4,object_02,object_04,810.60000002384,8,2,379.59999990463,0.5555555555555556,2,object_10,1,1395,0,9,5,restaurant_3,2,memory-2step-stake-s,617,2405476,0.0-19.0-0.0-0.108,A2R9OK4M877ZCC,3A3KKYU7Q6XNN7OKJ3M7MRU2CR5MWB,31LM9EDVOP8ALO7FE7NUZ0LH9ZDJNL,7,8
109,2,object_05,object_09,874.10000002384,4,2,237.60000002384,0.5555555555555556,2,object_10,1,1400,0,6,5,forest_4,2,memory-2step-stake-s,618,2413452,0.0-19.0-0.0-0.109,A2R9OK4M877ZCC,3A3KKYU7Q6XNN7OKJ3M7MRU2CR5MWB,31LM9EDVOP8ALO7FE7NUZ0LH9ZDJNL,3,4
110,4,object_04,object_02,823.79999995232,8,1,439.10000002384,0.5555555555555556,2,object_10,1,1405,0,3,5,restaurant_4,2,memory-2step-stake-s,619,2421636,0.0-19.0-0.0-0.110,A2R9OK4M877ZCC,3A3KKYU7Q6XNN7OKJ3M7MRU2CR5MWB,31LM9EDVOP8ALO7FE7NUZ0LH9ZDJNL,8,7
111,3,object_01,object_07,829.0,5,2,197.0,0.7777777777777778,1,object_08,1,1412,0,7,7,library_3,2,memory-2step-stake-s,620,2429769,0.0-19.0-0.0-0.111,A2R9OK4M877ZCC,3A3KKYU7Q6XNN7OKJ3M7MRU2CR5MWB,31LM9EDVOP8ALO7FE7NUZ0LH9ZDJNL,6,5
112,4,object_04,object_02,736.70000004768,8,1,-1.0,0.0,2,object_10,1,1412,0,8,6,restaurant_5,2,memory-2step-stake-s,621,2438305,0.0-19.0-0.0-0.112,A2R9OK4M877ZCC,3A3KKYU7Q6XNN7OKJ3M7MRU2CR5MWB,31LM9EDVOP8ALO7FE7NUZ0LH9ZDJNL,8,7
113,1,object_03,object_06,687.60000002384,2,1,462.20000004768,1.0,2,object_10,5,1457,0,8,9,desert_8,2,memory-2step-stake-s,622,2446904,0.0-19.0-0.0-0.113,A2R9OK4M877ZCC,3A3KKYU7Q6XNN7OKJ3M7MRU2CR5MWB,31LM9EDVOP8ALO7FE7NUZ0LH9ZDJNL,2,1
114,3,object_07,object_01,664.30000007153,5,1,118.89999997616,0.8888888888888888,1,object_08,1,1465,0,8,9,library_3,2,memory-2step-stake-s,623,2455058,0.0-19.0-0.0-0.114,A2R9OK4M877ZCC,3A3KKYU7Q6XNN7OKJ3M7MRU2CR5MWB,31LM9EDVOP8ALO7FE7NUZ0LH9ZDJNL,5,6
115,2,object_05,object_09,808.0,3,1,469.20000004768,0.5555555555555556,1,object_08,5,1490,0,5,8,forest_4,2,memory-2step-stake-s,624,2463260,0.0-19.0-0.0-0.115,A2R9OK4M877ZCC,3A3KKYU7Q6XNN7OKJ3M7MRU2CR5MWB,31LM9EDVOP8ALO7FE7NUZ0LH9ZDJNL,3,4
116,2,object_09,object_05,825.0,3,2,484.39999997616,0.2222222222222222,1,object_08,5,1500,0,2,8,forest_6,2,memory-2step-stake-s,625,2471171,0.0-19.0-0.0-0.116,A2R9OK4M877ZCC,3A3KKYU7Q6XNN7OKJ3M7MRU2CR5MWB,31LM9EDVOP8ALO7FE7NUZ0LH9ZDJNL,4,3
117,3,object_07,object_01,700.60000002384,5,1,74.5,0.0,1,object_08,1,1500,0,0,1,library_6,2,memory-2step-stake-s,626,2478471,0.0-19.0-0.0-0.117,A2R9OK4M877ZCC,3A3KKYU7Q6XNN7OKJ3M7MRU2CR5MWB,31LM9EDVOP8ALO7FE7NUZ0LH9ZDJNL,5,6
118,3,object_01,object_07,749.79999995232,6,1,172.79999995232,0.0,2,object_10,1,1500,0,1,0,library_1,2,memory-2step-stake-s,627,2485866,0.0-19.0-0.0-0.118,A2R9OK4M877ZCC,3A3KKYU7Q6XNN7OKJ3M7MRU2CR5MWB,31LM9EDVOP8ALO7FE7NUZ0LH9ZDJNL,6,5
119,4,object_02,object_04,879.10000002384,8,2,101.10000002384,0.0,2,object_10,1,1500,0,2,0,restaurant_1,2,memory-2step-stake-s,628,2493195,0.0-19.0-0.0-0.119,A2R9OK4M877ZCC,3A3KKYU7Q6XNN7OKJ3M7MRU2CR5MWB,31LM9EDVOP8ALO7FE7NUZ0LH9ZDJNL,7,8
120,1,object_03,object_06,883.5,2,1,148.10000002384,0.0,2,object_10,1,1500,0,1,0,desert_1,2,memory-2step-stake-s,629,2500564,0.0-19.0-0.0-0.120,A2R9OK4M877ZCC,3A3KKYU7Q6XNN7OKJ3M7MRU2CR5MWB,31LM9EDVOP8ALO7FE7NUZ0LH9ZDJNL,2,1
121,2,object_09,object_05,1399.5,4,1,562.89999997616,0.1111111111111111,2,object_10,5,1505,0,0,1,forest_7,2,memory-2step-stake-s,630,2508462,0.0-19.0-0.0-0.121,A2R9OK4M877ZCC,3A3KKYU7Q6XNN7OKJ3M7MRU2CR5MWB,31LM9EDVOP8ALO7FE7NUZ0LH9ZDJNL,4,3
122,1,object_06,object_03,826.10000002384,1,1,283.0,0.2222222222222222,1,object_08,5,1515,0,2,1,desert_2,2,memory-2step-stake-s,631,2516191,0.0-19.0-0.0-0.122,A2R9OK4M877ZCC,3A3KKYU7Q6XNN7OKJ3M7MRU2CR5MWB,31LM9EDVOP8ALO7FE7NUZ0LH9ZDJNL,1,2
123,2,object_05,object_09,1360.1000000238,3,1,79.100000023842,0.0,1,object_08,5,1515,0,0,2,forest_4,2,memory-2step-stake-s,632,2523507,0.0-19.0-0.0-0.123,A2R9OK4M877ZCC,3A3KKYU7Q6XNN7OKJ3M7MRU2CR5MWB,31LM9EDVOP8ALO7FE7NUZ0LH9ZDJNL,3,4
124,2,object_05,object_09,750.20000004768,4,2,114.89999997616,0.0,2,object_10,5,1515,0,2,0,forest_4,2,memory-2step-stake-s,633,2530849,0.0-19.0-0.0-0.124,A2R9OK4M877ZCC,3A3KKYU7Q6XNN7OKJ3M7MRU2CR5MWB,31LM9EDVOP8ALO7FE7NUZ0LH9ZDJNL,3,4
125,2,object_05,object_09,702.0,3,1,296.19999992847,0.4444444444444444,1,object_08,5,1535,0,4,1,forest_7,2,memory-2step-stake-s,634,2538778,0.0-19.0-0.0-0.125,A2R9OK4M877ZCC,3A3KKYU7Q6XNN7OKJ3M7MRU2CR5MWB,31LM9EDVOP8ALO7FE7NUZ0LH9ZDJNL,3,4
126,3,object_07,object_01,868.39999997616,5,1,-1.0,0.0,1,object_08,1,1535,0,2,5,library_8,2,memory-2step-stake-s,635,2547301,0.0-19.0-0.0-0.126,A2R9OK4M877ZCC,3A3KKYU7Q6XNN7OKJ3M7MRU2CR5MWB,31LM9EDVOP8ALO7FE7NUZ0LH9ZDJNL,5,6
127,1,object_06,object_03,859.10000002384,1,1,457.79999995232,0.2222222222222222,1,object_08,5,1545,0,2,5,desert_1,2,memory-2step-stake-s,636,2555184,0.0-19.0-0.0-0.127,A2R9OK4M877ZCC,3A3KKYU7Q6XNN7OKJ3M7MRU2CR5MWB,31LM9EDVOP8ALO7FE7NUZ0LH9ZDJNL,1,2
128,2,object_05,object_09,894.09999990463,4,2,193.10000002384,0.4444444444444444,2,object_10,5,1565,0,2,4,forest_5,2,memory-2step-stake-s,638,3254846,0.0-19.0-0.1-0.128,A2R9OK4M877ZCC,3A3KKYU7Q6XNN7OKJ3M7MRU2CR5MWB,31LM9EDVOP8ALO7FE7NUZ0LH9ZDJNL,3,4
129,3,object_07,object_01,909.60000002384,5,1,97.200000047684,0.3333333333333333,1,object_08,1,1568,0,3,3,library_6,2,memory-2step-stake-s,639,3262481,0.0-19.0-0.1-0.129,A2R9OK4M877ZCC,3A3KKYU7Q6XNN7OKJ3M7MRU2CR5MWB,31LM9EDVOP8ALO7FE7NUZ0LH9ZDJNL,5,6
130,2,object_05,object_09,1164.7999999523,4,2,794.69999992847,0.4444444444444444,2,object_10,1,1572,0,3,4,forest_7,2,memory-2step-stake-s,640,3270908,0.0-19.0-0.1-0.130,A2R9OK4M877ZCC,3A3KKYU7Q6XNN7OKJ3M7MRU2CR5MWB,31LM9EDVOP8ALO7FE7NUZ0LH9ZDJNL,3,4
131,3,object_01,object_07,943.39999997616,6,1,260.20000004768,0.1111111111111111,2,object_10,1,1573,0,6,1,library_8,2,memory-2step-stake-s,641,3278493,0.0-19.0-0.1-0.131,A2R9OK4M877ZCC,3A3KKYU7Q6XNN7OKJ3M7MRU2CR5MWB,31LM9EDVOP8ALO7FE7NUZ0LH9ZDJNL,6,5
132,1,object_03,object_06,925.0,2,1,298.5,0.1111111111111111,2,object_10,5,1578,0,7,1,desert_4,2,memory-2step-stake-s,642,3286118,0.0-19.0-0.1-0.132,A2R9OK4M877ZCC,3A3KKYU7Q6XNN7OKJ3M7MRU2CR5MWB,31LM9EDVOP8ALO7FE7NUZ0LH9ZDJNL,2,1
133,2,object_09,object_05,1260.1000000238,4,1,612.39999997616,0.1111111111111111,2,object_10,5,1583,0,6,1,forest_5,2,memory-2step-stake-s,643,3294050,0.0-19.0-0.1-0.133,A2R9OK4M877ZCC,3A3KKYU7Q6XNN7OKJ3M7MRU2CR5MWB,31LM9EDVOP8ALO7FE7NUZ0LH9ZDJNL,4,3
134,2,object_09,object_05,1207.0,3,2,153.0,1.0,1,object_08,5,1628,0,9,0,forest_6,2,memory-2step-stake-s,644,3302333,0.0-19.0-0.1-0.134,A2R9OK4M877ZCC,3A3KKYU7Q6XNN7OKJ3M7MRU2CR5MWB,31LM9EDVOP8ALO7FE7NUZ0LH9ZDJNL,4,3
135,3,object_07,object_01,890.10000002384,5,1,533.80000007153,0.8888888888888888,1,object_08,1,1636,0,8,1,library_6,2,memory-2step-stake-s,645,3310922,0.0-19.0-0.1-0.135,A2R9OK4M877ZCC,3A3KKYU7Q6XNN7OKJ3M7MRU2CR5MWB,31LM9EDVOP8ALO7FE7NUZ0LH9ZDJNL,5,6
136,4,object_04,object_02,1052.6999999285,8,1,1328.2000000477,0.2222222222222222,2,object_10,1,1638,0,6,2,restaurant_5,2,memory-2step-stake-s,646,3319682,0.0-19.0-0.1-0.136,A2R9OK4M877ZCC,3A3KKYU7Q6XNN7OKJ3M7MRU2CR5MWB,31LM9EDVOP8ALO7FE7NUZ0LH9ZDJNL,8,7
137,1,object_03,object_06,896.20000004768,2,1,-1.0,0.0,2,object_10,5,1638,0,6,1,desert_1,2,memory-2step-stake-s,647,3328214,0.0-19.0-0.1-0.137,A2R9OK4M877ZCC,3A3KKYU7Q6XNN7OKJ3M7MRU2CR5MWB,31LM9EDVOP8ALO7FE7NUZ0LH9ZDJNL,2,1
138,3,object_07,object_01,769.0,6,2,974.0,0.2222222222222222,2,object_10,1,1640,0,6,2,library_8,2,memory-2step-stake-s,648,3336611,0.0-19.0-0.1-0.138,A2R9OK4M877ZCC,3A3KKYU7Q6XNN7OKJ3M7MRU2CR5MWB,31LM9EDVOP8ALO7FE7NUZ0LH9ZDJNL,5,6
139,3,object_07,object_01,1316.5,5,1,189.0,0.5555555555555556,1,object_08,1,1645,0,5,5,library_1,2,memory-2step-stake-s,649,3344543,0.0-19.0-0.1-0.139,A2R9OK4M877ZCC,3A3KKYU7Q6XNN7OKJ3M7MRU2CR5MWB,31LM9EDVOP8ALO7FE7NUZ0LH9ZDJNL,5,6
140,1,object_03,object_06,685.29999995232,2,1,1107.9000000954,0.2222222222222222,2,object_10,5,1655,0,2,2,desert_4,2,memory-2step-stake-s,650,3353082,0.0-19.0-0.1-0.140,A2R9OK4M877ZCC,3A3KKYU7Q6XNN7OKJ3M7MRU2CR5MWB,31LM9EDVOP8ALO7FE7NUZ0LH9ZDJNL,2,1
141,4,object_02,object_04,940.10000002384,8,2,596.0,0.2222222222222222,2,object_10,1,1657,0,2,2,restaurant_5,2,memory-2step-stake-s,651,3361112,0.0-19.0-0.1-0.141,A2R9OK4M877ZCC,3A3KKYU7Q6XNN7OKJ3M7MRU2CR5MWB,31LM9EDVOP8ALO7FE7NUZ0LH9ZDJNL,7,8
142,3,object_07,object_01,645.0,5,1,134.60000002384,0.2222222222222222,1,object_08,5,1667,0,2,0,library_8,2,memory-2step-stake-s,652,3368689,0.0-19.0-0.1-0.142,A2R9OK4M877ZCC,3A3KKYU7Q6XNN7OKJ3M7MRU2CR5MWB,31LM9EDVOP8ALO7FE7NUZ0LH9ZDJNL,5,6
143,1,object_06,object_03,625.20000004768,2,2,75.199999928474,0.3333333333333333,2,object_10,5,1682,0,3,3,desert_2,2,memory-2step-stake-s,653,3376289,0.0-19.0-0.1-0.143,A2R9OK4M877ZCC,3A3KKYU7Q6XNN7OKJ3M7MRU2CR5MWB,31LM9EDVOP8ALO7FE7NUZ0LH9ZDJNL,1,2
144,2,object_05,object_09,703.19999992847,3,1,455.89999997616,0.2222222222222222,1,object_08,5,1692,0,2,2,forest_6,2,memory-2step-stake-s,654,3384169,0.0-19.0-0.1-0.144,A2R9OK4M877ZCC,3A3KKYU7Q6XNN7OKJ3M7MRU2CR5MWB,31LM9EDVOP8ALO7FE7NUZ0LH9ZDJNL,3,4
145,4,object_02,object_04,1432.1000000238,8,2,1102.8999999762,0.1111111111111111,2,object_10,5,1697,0,6,1,restaurant_5,2,memory-2step-stake-s,655,3392605,0.0-19.0-0.1-0.145,A2R9OK4M877ZCC,3A3KKYU7Q6XNN7OKJ3M7MRU2CR5MWB,31LM9EDVOP8ALO7FE7NUZ0LH9ZDJNL,7,8
146,1,object_06,object_03,787.5,1,1,1262.8000000715,0.4444444444444444,1,object_08,1,1701,0,4,0,desert_8,2,memory-2step-stake-s,656,3401510,0.0-19.0-0.1-0.146,A2R9OK4M877ZCC,3A3KKYU7Q6XNN7OKJ3M7MRU2CR5MWB,31LM9EDVOP8ALO7FE7NUZ0LH9ZDJNL,1,2
147,1,object_03,object_06,516.5,1,2,-1.0,0.0,1,object_08,5,1701,0,3,1,desert_2,2,memory-2step-stake-s,657,3410075,0.0-19.0-0.1-0.147,A2R9OK4M877ZCC,3A3KKYU7Q6XNN7OKJ3M7MRU2CR5MWB,31LM9EDVOP8ALO7FE7NUZ0LH9ZDJNL,2,1
148,3,object_01,object_07,765.60000002384,6,1,871.0,0.0,2,object_10,1,1701,0,6,0,library_1,2,memory-2step-stake-s,658,3418175,0.0-19.0-0.1-0.148,A2R9OK4M877ZCC,3A3KKYU7Q6XNN7OKJ3M7MRU2CR5MWB,31LM9EDVOP8ALO7FE7NUZ0LH9ZDJNL,6,5
149,4,object_04,object_02,865.19999992847,7,2,491.5,0.4444444444444444,1,object_08,1,1705,0,4,1,restaurant_3,2,memory-2step-stake-s,659,3426301,0.0-19.0-0.1-0.149,A2R9OK4M877ZCC,3A3KKYU7Q6XNN7OKJ3M7MRU2CR5MWB,31LM9EDVOP8ALO7FE7NUZ0LH9ZDJNL,8,7
150,4,object_02,object_04,-1.0,-1,-1,-1.0,0.0,-,0,1,1705,0,3,2,restaurant_4,2,memory-2step-stake-s,660,3432815,0.0-19.0-0.1-0.150,A2R9OK4M877ZCC,3A3KKYU7Q6XNN7OKJ3M7MRU2CR5MWB,31LM9EDVOP8ALO7FE7NUZ0LH9ZDJNL,7,8
151,3,object_01,object_07,768.29999995232,5,2,-1.0,0.0,1,object_08,1,1705,0,5,4,library_3,2,memory-2step-stake-s,661,3441340,0.0-19.0-0.1-0.151,A2R9OK4M877ZCC,3A3KKYU7Q6XNN7OKJ3M7MRU2CR5MWB,31LM9EDVOP8ALO7FE7NUZ0LH9ZDJNL,6,5
152,1,object_03,object_06,730.69999992847,1,2,-1.0,0.0,1,object_08,5,1705,0,9,3,desert_4,2,memory-2step-stake-s,662,3449861,0.0-19.0-0.1-0.152,A2R9OK4M877ZCC,3A3KKYU7Q6XNN7OKJ3M7MRU2CR5MWB,31LM9EDVOP8ALO7FE7NUZ0LH9ZDJNL,2,1
153,3,object_01,object_07,706.89999997616,6,1,294.60000002384,0.4444444444444444,2,object_10,1,1709,0,8,4,library_1,2,memory-2step-stake-s,663,3457790,0.0-19.0-0.1-0.153,A2R9OK4M877ZCC,3A3KKYU7Q6XNN7OKJ3M7MRU2CR5MWB,31LM9EDVOP8ALO7FE7NUZ0LH9ZDJNL,6,5
154,2,object_09,object_05,978.5,4,1,30.0,0.5555555555555556,2,object_10,5,1734,0,7,5,forest_6,2,memory-2step-stake-s,664,3465565,0.0-19.0-0.1-0.154,A2R9OK4M877ZCC,3A3KKYU7Q6XNN7OKJ3M7MRU2CR5MWB,31LM9EDVOP8ALO7FE7NUZ0LH9ZDJNL,4,3
155,3,object_07,object_01,670.10000002384,6,2,235.20000004768,0.3333333333333333,2,object_10,5,1749,0,9,3,library_3,2,memory-2step-stake-s,665,3473345,0.0-19.0-0.1-0.155,A2R9OK4M877ZCC,3A3KKYU7Q6XNN7OKJ3M7MRU2CR5MWB,31LM9EDVOP8ALO7FE7NUZ0LH9ZDJNL,5,6
156,4,object_04,object_02,900.10000002384,8,1,427.0,0.4444444444444444,2,object_10,5,1769,0,9,4,restaurant_3,2,memory-2step-stake-s,666,3481419,0.0-19.0-0.1-0.156,A2R9OK4M877ZCC,3A3KKYU7Q6XNN7OKJ3M7MRU2CR5MWB,31LM9EDVOP8ALO7FE7NUZ0LH9ZDJNL,8,7
157,2,object_05,object_09,759.0,4,2,402.10000002384,0.4444444444444444,2,object_10,5,1789,0,5,4,forest_5,2,memory-2step-stake-s,667,3489460,0.0-19.0-0.1-0.157,A2R9OK4M877ZCC,3A3KKYU7Q6XNN7OKJ3M7MRU2CR5MWB,31LM9EDVOP8ALO7FE7NUZ0LH9ZDJNL,3,4
158,1,object_06,object_03,318.89999997616,1,1,468.80000007153,0.8888888888888888,1,object_08,5,1829,0,8,4,desert_8,2,memory-2step-stake-s,668,3497965,0.0-19.0-0.1-0.158,A2R9OK4M877ZCC,3A3KKYU7Q6XNN7OKJ3M7MRU2CR5MWB,31LM9EDVOP8ALO7FE7NUZ0LH9ZDJNL,1,2
159,4,object_02,object_04,-1.0,-1,-1,-1.0,0.0,-,0,1,1829,0,8,3,restaurant_1,2,memory-2step-stake-s,669,3504488,0.0-19.0-0.1-0.159,A2R9OK4M877ZCC,3A3KKYU7Q6XNN7OKJ3M7MRU2CR5MWB,31LM9EDVOP8ALO7FE7NUZ0LH9ZDJNL,7,8
160,3,object_07,object_01,640.09999990463,5,1,1306.5,0.7777777777777778,1,object_08,1,1836,0,7,2,library_8,2,memory-2step-stake-s,670,3513739,0.0-19.0-0.1-0.160,A2R9OK4M877ZCC,3A3KKYU7Q6XNN7OKJ3M7MRU2CR5MWB,31LM9EDVOP8ALO7FE7NUZ0LH9ZDJNL,5,6
161,1,object_03,object_06,680.10000002384,1,2,232.5,0.7777777777777778,1,object_08,5,1871,0,7,7,desert_8,2,memory-2step-stake-s,671,3521913,0.0-19.0-0.1-0.161,A2R9OK4M877ZCC,3A3KKYU7Q6XNN7OKJ3M7MRU2CR5MWB,31LM9EDVOP8ALO7FE7NUZ0LH9ZDJNL,2,1
162,2,object_09,object_05,836.5,3,2,196.0,0.6666666666666666,1,object_08,5,1901,0,6,5,forest_7,2,memory-2step-stake-s,672,3529973,0.0-19.0-0.1-0.162,A2R9OK4M877ZCC,3A3KKYU7Q6XNN7OKJ3M7MRU2CR5MWB,31LM9EDVOP8ALO7FE7NUZ0LH9ZDJNL,4,3
163,2,object_09,object_05,1081.6000000238,3,2,362.0,0.3333333333333333,1,object_08,1,1904,0,3,9,forest_6,2,memory-2step-stake-s,673,3537876,0.0-19.0-0.1-0.163,A2R9OK4M877ZCC,3A3KKYU7Q6XNN7OKJ3M7MRU2CR5MWB,31LM9EDVOP8ALO7FE7NUZ0LH9ZDJNL,4,3
164,4,object_04,object_02,350.0,7,2,1484.7000000477,0.2222222222222222,1,object_08,1,1906,0,2,9,restaurant_5,2,memory-2step-stake-s,674,3546785,0.0-19.0-0.1-0.164,A2R9OK4M877ZCC,3A3KKYU7Q6XNN7OKJ3M7MRU2CR5MWB,31LM9EDVOP8ALO7FE7NUZ0LH9ZDJNL,8,7
165,4,object_02,object_04,667.0,8,2,-1.0,0.0,2,object_10,1,1906,0,0,5,restaurant_1,2,memory-2step-stake-s,675,3555301,0.0-19.0-0.1-0.165,A2R9OK4M877ZCC,3A3KKYU7Q6XNN7OKJ3M7MRU2CR5MWB,31LM9EDVOP8ALO7FE7NUZ0LH9ZDJNL,7,8
166,3,object_01,object_07,1127.8000000715,5,2,165.30000007153,0.0,1,object_08,1,1906,0,0,4,library_8,2,memory-2step-stake-s,676,3562696,0.0-19.0-0.1-0.166,A2R9OK4M877ZCC,3A3KKYU7Q6XNN7OKJ3M7MRU2CR5MWB,31LM9EDVOP8ALO7FE7NUZ0LH9ZDJNL,6,5
167,1,object_03,object_06,1007.5,2,1,-1.0,0.0,2,object_10,5,1906,0,3,5,desert_2,2,memory-2step-stake-s,677,3571233,0.0-19.0-0.1-0.167,A2R9OK4M877ZCC,3A3KKYU7Q6XNN7OKJ3M7MRU2CR5MWB,31LM9EDVOP8ALO7FE7NUZ0LH9ZDJNL,2,1
168,2,object_05,object_09,883.60000002384,4,2,-1.0,0.0,2,object_10,5,1906,0,3,6,forest_4,2,memory-2step-stake-s,678,3579753,0.0-19.0-0.1-0.168,A2R9OK4M877ZCC,3A3KKYU7Q6XNN7OKJ3M7MRU2CR5MWB,31LM9EDVOP8ALO7FE7NUZ0LH9ZDJNL,3,4
169,3,object_01,object_07,707.30000007153,5,2,49.699999928474,0.6666666666666666,1,object_08,1,1912,0,6,5,library_1,2,memory-2step-stake-s,679,3587673,0.0-19.0-0.1-0.169,A2R9OK4M877ZCC,3A3KKYU7Q6XNN7OKJ3M7MRU2CR5MWB,31LM9EDVOP8ALO7FE7NUZ0LH9ZDJNL,6,5
170,1,object_06,object_03,885.10000002384,2,2,287.40000009537,0.7777777777777778,2,object_10,5,1947,0,8,7,desert_4,2,memory-2step-stake-s,680,3595893,0.0-19.0-0.1-0.170,A2R9OK4M877ZCC,3A3KKYU7Q6XNN7OKJ3M7MRU2CR5MWB,31LM9EDVOP8ALO7FE7NUZ0LH9ZDJNL,1,2
171,4,object_02,object_04,1088.7000000477,8,2,95.899999976158,1.0,2,object_10,1,1956,0,8,9,restaurant_4,2,memory-2step-stake-s,681,3604138,0.0-19.0-0.1-0.171,A2R9OK4M877ZCC,3A3KKYU7Q6XNN7OKJ3M7MRU2CR5MWB,31LM9EDVOP8ALO7FE7NUZ0LH9ZDJNL,7,8
172,4,object_04,object_02,-1.0,-1,-1,-1.0,0.0,-,0,1,1956,0,8,8,restaurant_5,2,memory-2step-stake-s,682,3610653,0.0-19.0-0.1-0.172,A2R9OK4M877ZCC,3A3KKYU7Q6XNN7OKJ3M7MRU2CR5MWB,31LM9EDVOP8ALO7FE7NUZ0LH9ZDJNL,8,7
173,4,object_04,object_02,733.10000002384,8,1,94.300000071526,0.6666666666666666,2,object_10,1,1962,0,7,6,restaurant_1,2,memory-2step-stake-s,683,3618576,0.0-19.0-0.1-0.173,A2R9OK4M877ZCC,3A3KKYU7Q6XNN7OKJ3M7MRU2CR5MWB,31LM9EDVOP8ALO7FE7NUZ0LH9ZDJNL,8,7
174,3,object_07,object_01,692.10000002384,6,2,229.20000004768,0.6666666666666666,2,object_10,1,1968,0,6,6,library_8,2,memory-2step-stake-s,684,3626634,0.0-19.0-0.1-0.174,A2R9OK4M877ZCC,3A3KKYU7Q6XNN7OKJ3M7MRU2CR5MWB,31LM9EDVOP8ALO7FE7NUZ0LH9ZDJNL,5,6
175,3,object_07,object_01,680.89999997616,5,1,13.799999952316,0.4444444444444444,1,object_08,5,1988,0,4,7,library_8,2,memory-2step-stake-s,685,3634268,0.0-19.0-0.1-0.175,A2R9OK4M877ZCC,3A3KKYU7Q6XNN7OKJ3M7MRU2CR5MWB,31LM9EDVOP8ALO7FE7NUZ0LH9ZDJNL,5,6
176,4,object_04,object_02,754.10000002384,8,1,76.199999928474,0.4444444444444444,2,object_10,1,1992,0,4,4,restaurant_1,2,memory-2step-stake-s,686,3641969,0.0-19.0-0.1-0.176,A2R9OK4M877ZCC,3A3KKYU7Q6XNN7OKJ3M7MRU2CR5MWB,31LM9EDVOP8ALO7FE7NUZ0LH9ZDJNL,8,7
177,4,object_04,object_02,949.5,7,2,202.39999997616,0.4444444444444444,1,object_08,1,1996,0,4,8,restaurant_5,2,memory-2step-stake-s,687,3649819,0.0-19.0-0.1-0.177,A2R9OK4M877ZCC,3A3KKYU7Q6XNN7OKJ3M7MRU2CR5MWB,31LM9EDVOP8ALO7FE7NUZ0LH9ZDJNL,8,7
178,3,object_01,object_07,1123.2000000477,5,2,-1.0,0.0,1,object_08,1,1996,0,4,6,library_6,2,memory-2step-stake-s,688,3658339,0.0-19.0-0.1-0.178,A2R9OK4M877ZCC,3A3KKYU7Q6XNN7OKJ3M7MRU2CR5MWB,31LM9EDVOP8ALO7FE7NUZ0LH9ZDJNL,6,5
179,2,object_05,object_09,890.29999995232,4,2,-1.0,0.0,2,object_10,5,1996,0,2,8,forest_6,2,memory-2step-stake-s,689,3666875,0.0-19.0-0.1-0.179,A2R9OK4M877ZCC,3A3KKYU7Q6XNN7OKJ3M7MRU2CR5MWB,31LM9EDVOP8ALO7FE7NUZ0LH9ZDJNL,3,4
180,3,object_01,object_07,1108.0,6,1,636.89999997616,0.8888888888888888,2,object_10,1,2004,0,1,8,library_3,2,memory-2step-stake-s,690,3675546,0.0-19.0-0.1-0.180,A2R9OK4M877ZCC,3A3KKYU7Q6XNN7OKJ3M7MRU2CR5MWB,31LM9EDVOP8ALO7FE7NUZ0LH9ZDJNL,6,5
181,1,object_03,object_06,802.70000004768,1,2,765.29999995232,0.1111111111111111,1,object_08,5,2009,0,1,8,desert_1,2,memory-2step-stake-s,691,3683660,0.0-19.0-0.1-0.181,A2R9OK4M877ZCC,3A3KKYU7Q6XNN7OKJ3M7MRU2CR5MWB,31LM9EDVOP8ALO7FE7NUZ0LH9ZDJNL,2,1
182,4,object_04,object_02,812.19999992847,7,2,529.30000007153,0.0,1,object_08,5,2009,0,0,6,restaurant_3,2,memory-2step-stake-s,692,3691418,0.0-19.0-0.1-0.182,A2R9OK4M877ZCC,3A3KKYU7Q6XNN7OKJ3M7MRU2CR5MWB,31LM9EDVOP8ALO7FE7NUZ0LH9ZDJNL,8,7
183,3,object_01,object_07,1140.1999999285,6,1,420.89999997616,0.6666666666666666,2,object_10,1,2015,0,1,6,library_1,2,memory-2step-stake-s,693,3699700,0.0-19.0-0.1-0.183,A2R9OK4M877ZCC,3A3KKYU7Q6XNN7OKJ3M7MRU2CR5MWB,31LM9EDVOP8ALO7FE7NUZ0LH9ZDJNL,6,5
184,2,object_05,object_09,-1.0,-1,-1,-1.0,0.0,-,0,5,2015,0,0,3,forest_6,2,memory-2step-stake-s,694,3706215,0.0-19.0-0.1-0.184,A2R9OK4M877ZCC,3A3KKYU7Q6XNN7OKJ3M7MRU2CR5MWB,31LM9EDVOP8ALO7FE7NUZ0LH9ZDJNL,3,4
185,4,object_04,object_02,793.79999995232,8,1,215.60000002384,0.6666666666666666,2,object_10,1,2021,0,1,6,restaurant_3,2,memory-2step-stake-s,695,3714280,0.0-19.0-0.1-0.185,A2R9OK4M877ZCC,3A3KKYU7Q6XNN7OKJ3M7MRU2CR5MWB,31LM9EDVOP8ALO7FE7NUZ0LH9ZDJNL,8,7
186,1,object_06,object_03,859.5,1,1,338.0,0.2222222222222222,1,object_08,5,2031,0,2,6,desert_1,2,memory-2step-stake-s,696,3722046,0.0-19.0-0.1-0.186,A2R9OK4M877ZCC,3A3KKYU7Q6XNN7OKJ3M7MRU2CR5MWB,31LM9EDVOP8ALO7FE7NUZ0LH9ZDJNL,1,2
187,4,object_04,object_02,742.10000002384,7,2,754.20000004768,0.3333333333333333,1,object_08,1,2034,0,3,2,restaurant_3,2,memory-2step-stake-s,697,3730331,0.0-19.0-0.1-0.187,A2R9OK4M877ZCC,3A3KKYU7Q6XNN7OKJ3M7MRU2CR5MWB,31LM9EDVOP8ALO7FE7NUZ0LH9ZDJNL,8,7
188,2,object_05,object_09,826.0,4,2,98.299999952316,0.2222222222222222,2,object_10,5,2044,0,1,2,forest_4,2,memory-2step-stake-s,698,3737851,0.0-19.0-0.1-0.188,A2R9OK4M877ZCC,3A3KKYU7Q6XNN7OKJ3M7MRU2CR5MWB,31LM9EDVOP8ALO7FE7NUZ0LH9ZDJNL,3,4
189,3,object_07,object_01,547.79999995232,5,1,351.5,0.1111111111111111,1,object_08,1,2045,0,1,3,library_1,2,memory-2step-stake-s,699,3745529,0.0-19.0-0.1-0.189,A2R9OK4M877ZCC,3A3KKYU7Q6XNN7OKJ3M7MRU2CR5MWB,31LM9EDVOP8ALO7FE7NUZ0LH9ZDJNL,5,6
190,2,object_05,object_09,617.79999995232,4,2,372.70000004768,0.0,2,object_10,1,2045,0,1,0,forest_7,2,memory-2step-stake-s,700,3753143,0.0-19.0-0.1-0.190,A2R9OK4M877ZCC,3A3KKYU7Q6XNN7OKJ3M7MRU2CR5MWB,31LM9EDVOP8ALO7FE7NUZ0LH9ZDJNL,3,4
191,2,object_09,object_05,727.0,4,1,502.90000009537,0.4444444444444444,2,object_10,5,2065,0,1,4,forest_6,2,memory-2step-stake-s,701,3761284,0.0-19.0-0.1-0.191,A2R9OK4M877ZCC,3A3KKYU7Q6XNN7OKJ3M7MRU2CR5MWB,31LM9EDVOP8ALO7FE7NUZ0LH9ZDJNL,4,3
192,3,object_07,object_01,354.89999997616,5,1,-1.0,0.0,1,object_08,1,2065,0,3,6,library_1,2,memory-2step-stake-s,702,3769803,0.0-19.0-0.1-0.192,A2R9OK4M877ZCC,3A3KKYU7Q6XNN7OKJ3M7MRU2CR5MWB,31LM9EDVOP8ALO7FE7NUZ0LH9ZDJNL,5,6
193,1,object_03,object_06,913.39999997616,1,2,161.70000004768,0.0,1,object_08,5,2065,0,0,8,desert_1,2,memory-2step-stake-s,703,3777182,0.0-19.0-0.1-0.193,A2R9OK4M877ZCC,3A3KKYU7Q6XNN7OKJ3M7MRU2CR5MWB,31LM9EDVOP8ALO7FE7NUZ0LH9ZDJNL,2,1
194,4,object_04,object_02,-1.0,-1,-1,-1.0,0.0,-,0,5,2065,0,2,5,restaurant_4,2,memory-2step-stake-s,704,3783694,0.0-19.0-0.1-0.194,A2R9OK4M877ZCC,3A3KKYU7Q6XNN7OKJ3M7MRU2CR5MWB,31LM9EDVOP8ALO7FE7NUZ0LH9ZDJNL,8,7
195,1,object_03,object_06,644.79999995232,2,1,275.0,0.6666666666666666,2,object_10,1,2071,0,1,6,desert_2,2,memory-2step-stake-s,705,3791800,0.0-19.0-0.1-0.195,A2R9OK4M877ZCC,3A3KKYU7Q6XNN7OKJ3M7MRU2CR5MWB,31LM9EDVOP8ALO7FE7NUZ0LH9ZDJNL,2,1
196,4,object_04,object_02,995.80000007153,7,2,179.5,0.2222222222222222,1,object_08,1,2073,0,2,8,restaurant_3,2,memory-2step-stake-s,706,3799418,0.0-19.0-0.1-0.196,A2R9OK4M877ZCC,3A3KKYU7Q6XNN7OKJ3M7MRU2CR5MWB,31LM9EDVOP8ALO7FE7NUZ0LH9ZDJNL,8,7
197,3,object_07,object_01,572.29999995232,5,1,206.29999995232,0.2222222222222222,1,object_08,1,2075,0,2,8,library_6,2,memory-2step-stake-s,707,3807063,0.0-19.0-0.1-0.197,A2R9OK4M877ZCC,3A3KKYU7Q6XNN7OKJ3M7MRU2CR5MWB,31LM9EDVOP8ALO7FE7NUZ0LH9ZDJNL,5,6
198,1,object_03,object_06,559.89999997616,1,2,430.89999997616,0.2222222222222222,1,object_08,5,2085,0,2,8,desert_4,2,memory-2step-stake-s,708,3814942,0.0-19.0-0.1-0.198,A2R9OK4M877ZCC,3A3KKYU7Q6XNN7OKJ3M7MRU2CR5MWB,31LM9EDVOP8ALO7FE7NUZ0LH9ZDJNL,2,1
199,2,object_09,object_05,338.70000004768,4,1,601.29999995232,0.7777777777777778,2,object_10,5,2120,0,0,7,forest_5,2,memory-2step-stake-s,709,3823479,0.0-19.0-0.1-0.199,A2R9OK4M877ZCC,3A3KKYU7Q6XNN7OKJ3M7MRU2CR5MWB,31LM9EDVOP8ALO7FE7NUZ0LH9ZDJNL,4,3
200,3,object_01,object_07,767.19999992847,6,1,157.89999997616,0.8888888888888888,2,object_10,1,2128,0,4,8,library_6,2,memory-2step-stake-s,710,3831672,0.0-19.0-0.1-0.200,A2R9OK4M877ZCC,3A3KKYU7Q6XNN7OKJ3M7MRU2CR5MWB,31LM9EDVOP8ALO7FE7NUZ0LH9ZDJNL,6,5
201,1,object_06,object_03,1029.7000000477,1,1,131.30000007153,0.4444444444444444,1,object_08,5,2148,0,4,9,desert_8,2,memory-2step-stake-s,711,3839431,0.0-19.0-0.1-0.201,A2R9OK4M877ZCC,3A3KKYU7Q6XNN7OKJ3M7MRU2CR5MWB,31LM9EDVOP8ALO7FE7NUZ0LH9ZDJNL,1,2
202,1,object_03,object_06,-1.0,-1,-1,-1.0,0.0,-,0,1,2148,0,3,9,desert_1,2,memory-2step-stake-s,712,3845947,0.0-19.0-0.1-0.202,A2R9OK4M877ZCC,3A3KKYU7Q6XNN7OKJ3M7MRU2CR5MWB,31LM9EDVOP8ALO7FE7NUZ0LH9ZDJNL,2,1
203,1,object_06,object_03,722.0,1,1,333.69999992847,0.7777777777777778,1,object_08,5,2183,0,7,7,desert_2,2,memory-2step-stake-s,713,3854283,0.0-19.0-0.1-0.203,A2R9OK4M877ZCC,3A3KKYU7Q6XNN7OKJ3M7MRU2CR5MWB,31LM9EDVOP8ALO7FE7NUZ0LH9ZDJNL,1,2
204,1,object_06,object_03,767.09999990463,2,2,916.10000002384,0.4444444444444444,2,object_10,5,2203,0,6,4,desert_4,2,memory-2step-stake-s,714,3862835,0.0-19.0-0.1-0.204,A2R9OK4M877ZCC,3A3KKYU7Q6XNN7OKJ3M7MRU2CR5MWB,31LM9EDVOP8ALO7FE7NUZ0LH9ZDJNL,1,2
205,3,object_07,object_01,779.10000002384,5,1,-1.0,0.0,1,object_08,1,2203,0,6,1,library_8,2,memory-2step-stake-s,715,3871357,0.0-19.0-0.1-0.205,A2R9OK4M877ZCC,3A3KKYU7Q6XNN7OKJ3M7MRU2CR5MWB,31LM9EDVOP8ALO7FE7NUZ0LH9ZDJNL,5,6
206,1,object_06,object_03,792.5,2,2,82.899999976158,0.5555555555555556,2,object_10,5,2228,0,5,5,desert_1,2,memory-2step-stake-s,716,3879197,0.0-19.0-0.1-0.206,A2R9OK4M877ZCC,3A3KKYU7Q6XNN7OKJ3M7MRU2CR5MWB,31LM9EDVOP8ALO7FE7NUZ0LH9ZDJNL,1,2
207,1,object_06,object_03,887.0,1,1,473.19999992847,0.5555555555555556,1,object_08,5,2253,0,5,5,desert_8,2,memory-2step-stake-s,717,3887423,0.0-19.0-0.1-0.207,A2R9OK4M877ZCC,3A3KKYU7Q6XNN7OKJ3M7MRU2CR5MWB,31LM9EDVOP8ALO7FE7NUZ0LH9ZDJNL,1,2
208,1,object_03,object_06,627.29999995232,1,2,155.0,0.5555555555555556,1,object_08,5,2278,0,5,7,desert_4,2,memory-2step-stake-s,718,3895325,0.0-19.0-0.1-0.208,A2R9OK4M877ZCC,3A3KKYU7Q6XNN7OKJ3M7MRU2CR5MWB,31LM9EDVOP8ALO7FE7NUZ0LH9ZDJNL,2,1
209,2,object_05,object_09,755.69999992847,3,1,-1.0,0.0,1,object_08,5,2278,0,6,6,forest_6,2,memory-2step-stake-s,719,3903871,0.0-19.0-0.1-0.209,A2R9OK4M877ZCC,3A3KKYU7Q6XNN7OKJ3M7MRU2CR5MWB,31LM9EDVOP8ALO7FE7NUZ0LH9ZDJNL,3,4
210,4,object_04,object_02,880.40000009537,7,2,203.10000002384,0.6666666666666666,1,object_08,1,2284,0,6,8,restaurant_1,2,memory-2step-stake-s,720,3911912,0.0-19.0-0.1-0.210,A2R9OK4M877ZCC,3A3KKYU7Q6XNN7OKJ3M7MRU2CR5MWB,31LM9EDVOP8ALO7FE7NUZ0LH9ZDJNL,8,7
211,4,object_02,object_04,829.5,8,2,162.70000004768,0.6666666666666666,2,object_10,5,2314,0,8,6,restaurant_4,2,memory-2step-stake-s,721,3919934,0.0-19.0-0.1-0.211,A2R9OK4M877ZCC,3A3KKYU7Q6XNN7OKJ3M7MRU2CR5MWB,31LM9EDVOP8ALO7FE7NUZ0LH9ZDJNL,7,8
212,2,object_05,object_09,729.19999992847,3,1,62.0,0.8888888888888888,1,object_08,5,2354,0,8,6,forest_4,2,memory-2step-stake-s,722,3928036,0.0-19.0-0.1-0.212,A2R9OK4M877ZCC,3A3KKYU7Q6XNN7OKJ3M7MRU2CR5MWB,31LM9EDVOP8ALO7FE7NUZ0LH9ZDJNL,3,4
213,1,object_03,object_06,629.0,1,2,232.89999997616,0.5555555555555556,1,object_08,5,2379,0,5,1,desert_4,2,memory-2step-stake-s,723,3936026,0.0-19.0-0.1-0.213,A2R9OK4M877ZCC,3A3KKYU7Q6XNN7OKJ3M7MRU2CR5MWB,31LM9EDVOP8ALO7FE7NUZ0LH9ZDJNL,2,1
214,2,object_09,object_05,815.80000007153,4,1,253.29999995232,0.3333333333333333,2,object_10,5,2394,0,8,3,forest_5,2,memory-2step-stake-s,724,3943810,0.0-19.0-0.1-0.214,A2R9OK4M877ZCC,3A3KKYU7Q6XNN7OKJ3M7MRU2CR5MWB,31LM9EDVOP8ALO7FE7NUZ0LH9ZDJNL,4,3
215,4,object_04,object_02,641.0,7,2,89.399999976158,0.8888888888888888,1,object_08,1,2402,0,8,5,restaurant_3,2,memory-2step-stake-s,725,3951964,0.0-19.0-0.1-0.215,A2R9OK4M877ZCC,3A3KKYU7Q6XNN7OKJ3M7MRU2CR5MWB,31LM9EDVOP8ALO7FE7NUZ0LH9ZDJNL,8,7
216,4,object_04,object_02,767.20000004768,7,2,102.39999997616,0.4444444444444444,1,object_08,5,2422,0,4,8,restaurant_3,2,memory-2step-stake-s,726,3959700,0.0-19.0-0.1-0.216,A2R9OK4M877ZCC,3A3KKYU7Q6XNN7OKJ3M7MRU2CR5MWB,31LM9EDVOP8ALO7FE7NUZ0LH9ZDJNL,8,7
217,2,object_09,object_05,804.70000004768,3,2,350.40000009537,0.4444444444444444,1,object_08,5,2442,0,4,6,forest_4,2,memory-2step-stake-s,727,3967693,0.0-19.0-0.1-0.217,A2R9OK4M877ZCC,3A3KKYU7Q6XNN7OKJ3M7MRU2CR5MWB,31LM9EDVOP8ALO7FE7NUZ0LH9ZDJNL,4,3
218,3,object_07,object_01,742.0,6,2,-1.0,0.0,2,object_10,1,2442,0,0,3,library_3,2,memory-2step-stake-s,728,3976211,0.0-19.0-0.1-0.218,A2R9OK4M877ZCC,3A3KKYU7Q6XNN7OKJ3M7MRU2CR5MWB,31LM9EDVOP8ALO7FE7NUZ0LH9ZDJNL,5,6
219,3,object_07,object_01,784.79999995232,6,2,342.89999997616,0.6666666666666666,2,object_10,1,2448,0,3,6,library_8,2,memory-2step-stake-s,729,3984393,0.0-19.0-0.1-0.219,A2R9OK4M877ZCC,3A3KKYU7Q6XNN7OKJ3M7MRU2CR5MWB,31LM9EDVOP8ALO7FE7NUZ0LH9ZDJNL,5,6
220,1,object_06,object_03,826.39999997616,2,2,131.79999995232,0.7777777777777778,2,object_10,5,2483,0,3,7,desert_8,2,memory-2step-stake-s,730,3992466,0.0-19.0-0.1-0.220,A2R9OK4M877ZCC,3A3KKYU7Q6XNN7OKJ3M7MRU2CR5MWB,31LM9EDVOP8ALO7FE7NUZ0LH9ZDJNL,1,2
221,3,object_07,object_01,652.70000004768,5,1,215.5,0.0,1,object_08,1,2483,0,0,8,library_1,2,memory-2step-stake-s,731,3999919,0.0-19.0-0.1-0.221,A2R9OK4M877ZCC,3A3KKYU7Q6XNN7OKJ3M7MRU2CR5MWB,31LM9EDVOP8ALO7FE7NUZ0LH9ZDJNL,5,6
222,4,object_04,object_02,736.20000004768,7,2,-1.0,0.0,1,object_08,1,2483,0,3,9,restaurant_4,2,memory-2step-stake-s,732,4008456,0.0-19.0-0.1-0.222,A2R9OK4M877ZCC,3A3KKYU7Q6XNN7OKJ3M7MRU2CR5MWB,31LM9EDVOP8ALO7FE7NUZ0LH9ZDJNL,8,7
223,4,object_04,object_02,646.10000002384,8,1,1055.7000000477,0.7777777777777778,2,object_10,1,2490,0,3,7,restaurant_1,2,memory-2step-stake-s,733,4017443,0.0-19.0-0.1-0.223,A2R9OK4M877ZCC,3A3KKYU7Q6XNN7OKJ3M7MRU2CR5MWB,31LM9EDVOP8ALO7FE7NUZ0LH9ZDJNL,8,7
224,2,object_05,object_09,757.29999995232,4,2,59.599999904633,0.8888888888888888,2,object_10,5,2530,0,3,8,forest_4,2,memory-2step-stake-s,734,4025544,0.0-19.0-0.1-0.224,A2R9OK4M877ZCC,3A3KKYU7Q6XNN7OKJ3M7MRU2CR5MWB,31LM9EDVOP8ALO7FE7NUZ0LH9ZDJNL,3,4
225,3,object_01,object_07,704.5,5,2,95.700000047684,0.3333333333333333,1,object_08,5,2545,0,3,3,library_3,2,memory-2step-stake-s,735,4033183,0.0-19.0-0.1-0.225,A2R9OK4M877ZCC,3A3KKYU7Q6XNN7OKJ3M7MRU2CR5MWB,31LM9EDVOP8ALO7FE7NUZ0LH9ZDJNL,6,5
226,3,object_01,object_07,468.0,6,1,60.5,0.3333333333333333,2,object_10,1,2548,0,8,3,library_3,2,memory-2step-stake-s,736,4040776,0.0-19.0-0.1-0.226,A2R9OK4M877ZCC,3A3KKYU7Q6XNN7OKJ3M7MRU2CR5MWB,31LM9EDVOP8ALO7FE7NUZ0LH9ZDJNL,6,5
227,3,object_07,object_01,430.10000002384,6,2,84.099999904633,0.6666666666666666,2,object_10,1,2554,0,4,6,library_6,2,memory-2step-stake-s,737,4048691,0.0-19.0-0.1-0.227,A2R9OK4M877ZCC,3A3KKYU7Q6XNN7OKJ3M7MRU2CR5MWB,31LM9EDVOP8ALO7FE7NUZ0LH9ZDJNL,5,6
228,1,object_06,object_03,627.79999995232,2,2,42.900000095367,0.2222222222222222,2,object_10,5,2564,0,6,2,desert_2,2,memory-2step-stake-s,738,4056159,0.0-19.0-0.1-0.228,A2R9OK4M877ZCC,3A3KKYU7Q6XNN7OKJ3M7MRU2CR5MWB,31LM9EDVOP8ALO7FE7NUZ0LH9ZDJNL,1,2
229,1,object_03,object_06,556.70000004768,2,1,163.0,0.3333333333333333,2,object_10,5,2579,0,9,3,desert_1,2,memory-2step-stake-s,739,4063845,0.0-19.0-0.1-0.229,A2R9OK4M877ZCC,3A3KKYU7Q6XNN7OKJ3M7MRU2CR5MWB,31LM9EDVOP8ALO7FE7NUZ0LH9ZDJNL,2,1
230,2,object_05,object_09,731.29999995232,4,2,-1.0,0.0,2,object_10,5,2579,0,2,4,forest_6,2,memory-2step-stake-s,740,4072365,0.0-19.0-0.1-0.230,A2R9OK4M877ZCC,3A3KKYU7Q6XNN7OKJ3M7MRU2CR5MWB,31LM9EDVOP8ALO7FE7NUZ0LH9ZDJNL,3,4
231,3,object_07,object_01,1058.1000000238,5,1,824.60000002384,0.3333333333333333,1,object_08,1,2582,0,3,3,library_1,2,memory-2step-stake-s,741,4080728,0.0-19.0-0.1-0.231,A2R9OK4M877ZCC,3A3KKYU7Q6XNN7OKJ3M7MRU2CR5MWB,31LM9EDVOP8ALO7FE7NUZ0LH9ZDJNL,5,6
232,3,object_07,object_01,721.5,6,2,176.10000002384,0.4444444444444444,2,object_10,5,2602,0,3,4,library_6,2,memory-2step-stake-s,742,4088563,0.0-19.0-0.1-0.232,A2R9OK4M877ZCC,3A3KKYU7Q6XNN7OKJ3M7MRU2CR5MWB,31LM9EDVOP8ALO7FE7NUZ0LH9ZDJNL,5,6
233,3,object_01,object_07,696.60000002384,6,1,310.69999992847,0.5555555555555556,2,object_10,1,2607,0,2,5,library_6,2,memory-2step-stake-s,743,4096613,0.0-19.0-0.1-0.233,A2R9OK4M877ZCC,3A3KKYU7Q6XNN7OKJ3M7MRU2CR5MWB,31LM9EDVOP8ALO7FE7NUZ0LH9ZDJNL,6,5
234,2,object_09,object_05,779.20000004768,3,2,95.600000023842,0.2222222222222222,1,object_08,5,2617,0,2,7,forest_7,2,memory-2step-stake-s,744,4104149,0.0-19.0-0.1-0.234,A2R9OK4M877ZCC,3A3KKYU7Q6XNN7OKJ3M7MRU2CR5MWB,31LM9EDVOP8ALO7FE7NUZ0LH9ZDJNL,4,3
235,1,object_06,object_03,524.20000004768,1,1,6.2999999523163,0.1111111111111111,1,object_08,5,2622,0,1,5,desert_8,2,memory-2step-stake-s,745,4111481,0.0-19.0-0.1-0.235,A2R9OK4M877ZCC,3A3KKYU7Q6XNN7OKJ3M7MRU2CR5MWB,31LM9EDVOP8ALO7FE7NUZ0LH9ZDJNL,1,2
236,3,object_07,object_01,708.29999995232,6,2,163.19999992847,0.4444444444444444,2,object_10,5,2642,0,4,4,library_8,2,memory-2step-stake-s,746,4119270,0.0-19.0-0.1-0.236,A2R9OK4M877ZCC,3A3KKYU7Q6XNN7OKJ3M7MRU2CR5MWB,31LM9EDVOP8ALO7FE7NUZ0LH9ZDJNL,5,6
237,1,object_06,object_03,623.39999997616,1,1,394.5,0.4444444444444444,1,object_08,5,2662,0,4,3,desert_8,2,memory-2step-stake-s,747,4127313,0.0-19.0-0.1-0.237,A2R9OK4M877ZCC,3A3KKYU7Q6XNN7OKJ3M7MRU2CR5MWB,31LM9EDVOP8ALO7FE7NUZ0LH9ZDJNL,1,2
238,1,object_06,object_03,442.39999997616,2,2,131.29999995232,0.5555555555555556,2,object_10,1,2667,0,6,5,desert_2,2,memory-2step-stake-s,748,4135195,0.0-19.0-0.1-0.238,A2R9OK4M877ZCC,3A3KKYU7Q6XNN7OKJ3M7MRU2CR5MWB,31LM9EDVOP8ALO7FE7NUZ0LH9ZDJNL,1,2
239,2,object_05,object_09,601.19999992847,3,1,291.39999997616,0.7777777777777778,1,object_08,5,2702,0,7,7,forest_7,2,memory-2step-stake-s,749,4143415,0.0-19.0-0.1-0.239,A2R9OK4M877ZCC,3A3KKYU7Q6XNN7OKJ3M7MRU2CR5MWB,31LM9EDVOP8ALO7FE7NUZ0LH9ZDJNL,3,4
240,3,object_01,object_07,934.0,5,2,230.09999990463,0.4444444444444444,1,object_08,1,2706,0,4,8,library_8,2,memory-2step-stake-s,750,4151286,0.0-19.0-0.1-0.240,A2R9OK4M877ZCC,3A3KKYU7Q6XNN7OKJ3M7MRU2CR5MWB,31LM9EDVOP8ALO7FE7NUZ0LH9ZDJNL,6,5
241,2,object_09,object_05,683.60000002384,4,1,218.09999990463,0.5555555555555556,2,object_10,5,2731,0,4,5,forest_4,2,memory-2step-stake-s,751,4159239,0.0-19.0-0.1-0.241,A2R9OK4M877ZCC,3A3KKYU7Q6XNN7OKJ3M7MRU2CR5MWB,31LM9EDVOP8ALO7FE7NUZ0LH9ZDJNL,4,3
242,1,object_06,object_03,94.699999928474,2,2,-1.0,0.0,2,object_10,5,2731,0,2,4,desert_8,2,memory-2step-stake-s,752,4167768,0.0-19.0-0.1-0.242,A2R9OK4M877ZCC,3A3KKYU7Q6XNN7OKJ3M7MRU2CR5MWB,31LM9EDVOP8ALO7FE7NUZ0LH9ZDJNL,1,2
243,2,object_09,object_05,390.39999997616,4,1,1177.8000000715,0.3333333333333333,2,object_10,1,2734,0,1,3,forest_5,2,memory-2step-stake-s,753,4176468,0.0-19.0-0.1-0.243,A2R9OK4M877ZCC,3A3KKYU7Q6XNN7OKJ3M7MRU2CR5MWB,31LM9EDVOP8ALO7FE7NUZ0LH9ZDJNL,4,3
244,2,object_09,object_05,426.39999997616,3,2,319.60000002384,0.2222222222222222,1,object_08,5,2744,0,2,4,forest_4,2,memory-2step-stake-s,754,4184239,0.0-19.0-0.1-0.244,A2R9OK4M877ZCC,3A3KKYU7Q6XNN7OKJ3M7MRU2CR5MWB,31LM9EDVOP8ALO7FE7NUZ0LH9ZDJNL,4,3
245,1,object_06,object_03,894.39999997616,1,1,329.0,0.1111111111111111,1,object_08,1,2745,0,1,6,desert_2,2,memory-2step-stake-s,755,4191896,0.0-19.0-0.1-0.245,A2R9OK4M877ZCC,3A3KKYU7Q6XNN7OKJ3M7MRU2CR5MWB,31LM9EDVOP8ALO7FE7NUZ0LH9ZDJNL,1,2
246,4,object_02,object_04,1088.1000000238,8,2,227.90000009537,1.0,2,object_10,1,2754,0,3,9,restaurant_1,2,memory-2step-stake-s,756,4200281,0.0-19.0-0.1-0.246,A2R9OK4M877ZCC,3A3KKYU7Q6XNN7OKJ3M7MRU2CR5MWB,31LM9EDVOP8ALO7FE7NUZ0LH9ZDJNL,7,8
247,4,object_04,object_02,690.29999995232,8,1,16.399999976158,0.8888888888888888,2,object_10,1,2762,0,2,8,restaurant_4,2,memory-2step-stake-s,757,4208371,0.0-19.0-0.1-0.247,A2R9OK4M877ZCC,3A3KKYU7Q6XNN7OKJ3M7MRU2CR5MWB,31LM9EDVOP8ALO7FE7NUZ0LH9ZDJNL,8,7
248,2,object_05,object_09,-1.0,-1,-1,-1.0,0.0,-,0,1,2762,0,1,6,forest_7,2,memory-2step-stake-s,758,4214884,0.0-19.0-0.1-0.248,A2R9OK4M877ZCC,3A3KKYU7Q6XNN7OKJ3M7MRU2CR5MWB,31LM9EDVOP8ALO7FE7NUZ0LH9ZDJNL,3,4
249,4,object_04,object_02,537.5,8,1,39.099999904633,0.5555555555555556,2,object_10,5,2787,0,2,5,restaurant_4,2,memory-2step-stake-s,759,4222657,0.0-19.0-0.1-0.249,A2R9OK4M877ZCC,3A3KKYU7Q6XNN7OKJ3M7MRU2CR5MWB,31LM9EDVOP8ALO7FE7NUZ0LH9ZDJNL,8,7
250,3,object_07,object_01,839.90000009537,5,1,183.29999995232,0.5555555555555556,1,object_08,1,2792,0,5,7,library_3,2,memory-2step-stake-s,760,4230585,0.0-19.0-0.1-0.250,A2R9OK4M877ZCC,3A3KKYU7Q6XNN7OKJ3M7MRU2CR5MWB,31LM9EDVOP8ALO7FE7NUZ0LH9ZDJNL,5,6
251,3,object_07,object_01,676.79999995232,5,1,247.19999992847,0.4444444444444444,1,object_08,1,2796,0,4,8,library_3,2,memory-2step-stake-s,761,4238468,0.0-19.0-0.1-0.251,A2R9OK4M877ZCC,3A3KKYU7Q6XNN7OKJ3M7MRU2CR5MWB,31LM9EDVOP8ALO7FE7NUZ0LH9ZDJNL,5,6
252,3,object_01,object_07,923.5,5,2,45.399999976158,0.2222222222222222,1,object_08,1,2798,0,2,8,library_1,2,memory-2step-stake-s,762,4245972,0.0-19.0-0.1-0.252,A2R9OK4M877ZCC,3A3KKYU7Q6XNN7OKJ3M7MRU2CR5MWB,31LM9EDVOP8ALO7FE7NUZ0LH9ZDJNL,6,5
253,2,object_09,object_05,656.79999995232,4,1,529.59999990463,0.8888888888888888,2,object_10,1,2806,0,1,8,forest_4,2,memory-2step-stake-s,763,4254564,0.0-19.0-0.1-0.253,A2R9OK4M877ZCC,3A3KKYU7Q6XNN7OKJ3M7MRU2CR5MWB,31LM9EDVOP8ALO7FE7NUZ0LH9ZDJNL,4,3
254,2,object_05,object_09,-1.0,-1,-1,-1.0,0.0,-,0,5,2806,0,0,8,forest_6,2,memory-2step-stake-s,764,4261087,0.0-19.0-0.1-0.254,A2R9OK4M877ZCC,3A3KKYU7Q6XNN7OKJ3M7MRU2CR5MWB,31LM9EDVOP8ALO7FE7NUZ0LH9ZDJNL,3,4
255,3,object_07,object_01,956.39999997616,5,1,1433.7000000477,0.0,1,object_08,1,2806,0,0,7,library_6,2,memory-2step-stake-s,765,4269742,0.0-19.0-0.1-0.255,A2R9OK4M877ZCC,3A3KKYU7Q6XNN7OKJ3M7MRU2CR5MWB,31LM9EDVOP8ALO7FE7NUZ0LH9ZDJNL,5,6
