,state1,stim_left,stim_right,rt_1,choice1,response1,rt_2,points,state2,stim_state2,stake,score,practice,rews1,rews2,background,high_arm,trial_type,trial_index,time_elapsed,internal_node_id,subid,hitid,assignmentid,stim_left_num,stim_right_num
0,1,object_03,object_10,795.5,1,1,-1.0,0.0,1,object_04,1,0,0,5,5,desert_3,2,memory-2step-stake-s,494,1110588,0.0-19.0-0.0-0.0,A10T0161B70BXP,3SNR5F7RA597AOC2DOU98SGLOEGIEB,3ZV9H2YQQHNPN4E43NMUFCHJ6EDW3V,1,2
1,3,object_09,object_02,104.40000152588,5,2,507.5,0.5555555555555556,1,object_04,1,5,0,5,3,library_8,2,memory-2step-stake-s,495,1118840,0.0-19.0-0.0-0.1,A10T0161B70BXP,3SNR5F7RA597AOC2DOU98SGLOEGIEB,3ZV9H2YQQHNPN4E43NMUFCHJ6EDW3V,6,5
2,1,object_10,object_03,588.09999847412,2,1,834.5,0.1111111111111111,2,object_08,1,6,0,6,1,desert_6,2,memory-2step-stake-s,496,1127019,0.0-19.0-0.0-0.2,A10T0161B70BXP,3SNR5F7RA597AOC2DOU98SGLOEGIEB,3ZV9H2YQQHNPN4E43NMUFCHJ6EDW3V,2,1
3,4,object_01,object_06,324.79999923706,7,2,554.29999923706,0.2222222222222222,1,object_04,5,16,0,2,1,restaurant_8,2,memory-2step-stake-s,497,1135012,0.0-19.0-0.0-0.3,A10T0161B70BXP,3SNR5F7RA597AOC2DOU98SGLOEGIEB,3ZV9H2YQQHNPN4E43NMUFCHJ6EDW3V,8,7
4,2,object_07,object_05,704.5,4,2,1174.5,0.1111111111111111,2,object_08,5,21,0,3,1,forest_8,2,memory-2step-stake-s,498,1143514,0.0-19.0-0.0-0.4,A10T0161B70BXP,3SNR5F7RA597AOC2DOU98SGLOEGIEB,3ZV9H2YQQHNPN4E43NMUFCHJ6EDW3V,3,4
5,3,object_02,object_09,645.19999885559,5,1,733.20000076294,0.0,1,object_04,1,21,0,0,2,library_6,2,memory-2step-stake-s,499,1151476,0.0-19.0-0.0-0.5,A10T0161B70BXP,3SNR5F7RA597AOC2DOU98SGLOEGIEB,3ZV9H2YQQHNPN4E43NMUFCHJ6EDW3V,5,6
6,3,object_09,object_02,728.39999961853,6,1,777.20000076294,0.2222222222222222,2,object_08,1,23,0,1,2,library_8,2,memory-2step-stake-s,500,1159711,0.0-19.0-0.0-0.6,A10T0161B70BXP,3SNR5F7RA597AOC2DOU98SGLOEGIEB,3ZV9H2YQQHNPN4E43NMUFCHJ6EDW3V,6,5
7,1,object_03,object_10,750.89999961853,2,2,-1.0,0.0,2,object_08,1,23,0,2,2,desert_3,2,memory-2step-stake-s,501,1168242,0.0-19.0-0.0-0.7,A10T0161B70BXP,3SNR5F7RA597AOC2DOU98SGLOEGIEB,3ZV9H2YQQHNPN4E43NMUFCHJ6EDW3V,1,2
8,3,object_02,object_09,618.5,5,1,593.09999847412,0.3333333333333333,1,object_04,1,26,0,3,2,library_1,2,memory-2step-stake-s,502,1176373,0.0-19.0-0.0-0.8,A10T0161B70BXP,3SNR5F7RA597AOC2DOU98SGLOEGIEB,3ZV9H2YQQHNPN4E43NMUFCHJ6EDW3V,5,6
9,2,object_05,object_07,601.0,3,2,763.59999847412,0.2222222222222222,1,object_04,5,36,0,2,5,forest_5,2,memory-2step-stake-s,503,1184573,0.0-19.0-0.0-0.9,A10T0161B70BXP,3SNR5F7RA597AOC2DOU98SGLOEGIEB,3ZV9H2YQQHNPN4E43NMUFCHJ6EDW3V,4,3
10,3,object_02,object_09,576.39999961853,5,1,596.69999885559,0.1111111111111111,1,object_04,1,37,0,1,3,library_6,2,memory-2step-stake-s,504,1192503,0.0-19.0-0.0-0.10,A10T0161B70BXP,3SNR5F7RA597AOC2DOU98SGLOEGIEB,3ZV9H2YQQHNPN4E43NMUFCHJ6EDW3V,5,6
11,1,object_03,object_10,890.39999961853,1,1,565.39999961853,0.1111111111111111,1,object_04,5,42,0,1,3,desert_6,2,memory-2step-stake-s,505,1200385,0.0-19.0-0.0-0.11,A10T0161B70BXP,3SNR5F7RA597AOC2DOU98SGLOEGIEB,3ZV9H2YQQHNPN4E43NMUFCHJ6EDW3V,1,2
12,4,object_01,object_06,736.19999885559,8,1,425.29999923706,0.3333333333333333,2,object_08,1,45,0,1,3,restaurant_7,2,memory-2step-stake-s,506,1208329,0.0-19.0-0.0-0.12,A10T0161B70BXP,3SNR5F7RA597AOC2DOU98SGLOEGIEB,3ZV9H2YQQHNPN4E43NMUFCHJ6EDW3V,8,7
13,4,object_01,object_06,502.70000076294,7,2,449.60000038147,0.0,1,object_04,1,45,0,0,2,restaurant_6,2,memory-2step-stake-s,507,1215995,0.0-19.0-0.0-0.13,A10T0161B70BXP,3SNR5F7RA597AOC2DOU98SGLOEGIEB,3ZV9H2YQQHNPN4E43NMUFCHJ6EDW3V,8,7
14,1,object_10,object_03,742.10000038147,1,2,480.70000076294,0.1111111111111111,1,object_04,1,46,0,1,0,desert_6,2,memory-2step-stake-s,508,1223791,0.0-19.0-0.0-0.14,A10T0161B70BXP,3SNR5F7RA597AOC2DOU98SGLOEGIEB,3ZV9H2YQQHNPN4E43NMUFCHJ6EDW3V,2,1
15,1,object_03,object_10,959.40000152588,2,2,408.19999885559,0.2222222222222222,2,object_08,5,56,0,3,2,desert_1,2,memory-2step-stake-s,509,1231656,0.0-19.0-0.0-0.15,A10T0161B70BXP,3SNR5F7RA597AOC2DOU98SGLOEGIEB,3ZV9H2YQQHNPN4E43NMUFCHJ6EDW3V,1,2
16,1,object_03,object_10,868.59999847412,1,1,382.89999961853,0.2222222222222222,1,object_04,5,66,0,2,3,desert_6,2,memory-2step-stake-s,510,1239458,0.0-19.0-0.0-0.16,A10T0161B70BXP,3SNR5F7RA597AOC2DOU98SGLOEGIEB,3ZV9H2YQQHNPN4E43NMUFCHJ6EDW3V,1,2
17,2,object_05,object_07,769.30000114441,4,1,770.0,0.3333333333333333,2,object_08,5,81,0,4,3,forest_6,2,memory-2step-stake-s,511,1247767,0.0-19.0-0.0-0.17,A10T0161B70BXP,3SNR5F7RA597AOC2DOU98SGLOEGIEB,3ZV9H2YQQHNPN4E43NMUFCHJ6EDW3V,4,3
18,4,object_06,object_01,819.39999961853,7,1,675.80000114441,0.7777777777777778,1,object_04,1,88,0,7,2,restaurant_6,2,memory-2step-stake-s,512,1256398,0.0-19.0-0.0-0.18,A10T0161B70BXP,3SNR5F7RA597AOC2DOU98SGLOEGIEB,3ZV9H2YQQHNPN4E43NMUFCHJ6EDW3V,7,8
19,1,object_03,object_10,782.0,2,2,567.5,0.0,2,object_08,5,88,0,7,0,desert_5,2,memory-2step-stake-s,513,1264182,0.0-19.0-0.0-0.19,A10T0161B70BXP,3SNR5F7RA597AOC2DOU98SGLOEGIEB,3ZV9H2YQQHNPN4E43NMUFCHJ6EDW3V,1,2
20,3,object_09,object_02,308.19999885559,6,1,457.69999885559,0.4444444444444444,2,object_08,5,108,0,9,4,library_3,2,memory-2step-stake-s,514,1272264,0.0-19.0-0.0-0.20,A10T0161B70BXP,3SNR5F7RA597AOC2DOU98SGLOEGIEB,3ZV9H2YQQHNPN4E43NMUFCHJ6EDW3V,6,5
21,2,object_07,object_05,738.39999961853,4,2,508.10000038147,0.6666666666666666,2,object_08,5,138,0,7,6,forest_6,2,memory-2step-stake-s,515,1280594,0.0-19.0-0.0-0.21,A10T0161B70BXP,3SNR5F7RA597AOC2DOU98SGLOEGIEB,3ZV9H2YQQHNPN4E43NMUFCHJ6EDW3V,3,4
22,3,object_02,object_09,774.39999961853,6,2,-1.0,0.0,2,object_08,1,138,0,7,7,library_6,2,memory-2step-stake-s,516,1289111,0.0-19.0-0.0-0.22,A10T0161B70BXP,3SNR5F7RA597AOC2DOU98SGLOEGIEB,3ZV9H2YQQHNPN4E43NMUFCHJ6EDW3V,5,6
23,3,object_09,object_02,769.29999923706,6,1,779.89999961853,0.8888888888888888,2,object_08,1,146,0,5,8,library_6,2,memory-2step-stake-s,517,1297915,0.0-19.0-0.0-0.23,A10T0161B70BXP,3SNR5F7RA597AOC2DOU98SGLOEGIEB,3ZV9H2YQQHNPN4E43NMUFCHJ6EDW3V,6,5
24,2,object_05,object_07,478.0,3,2,376.09999847412,0.8888888888888888,1,object_04,1,154,0,8,7,forest_8,2,memory-2step-stake-s,518,1306315,0.0-19.0-0.0-0.24,A10T0161B70BXP,3SNR5F7RA597AOC2DOU98SGLOEGIEB,3ZV9H2YQQHNPN4E43NMUFCHJ6EDW3V,4,3
25,1,object_03,object_10,716.19999885559,2,2,472.10000038147,0.5555555555555556,2,object_08,5,179,0,7,5,desert_5,2,memory-2step-stake-s,519,1314507,0.0-19.0-0.0-0.25,A10T0161B70BXP,3SNR5F7RA597AOC2DOU98SGLOEGIEB,3ZV9H2YQQHNPN4E43NMUFCHJ6EDW3V,1,2
26,1,object_10,object_03,1145.1000003815,2,1,1172.2000007629,0.4444444444444444,2,object_08,5,199,0,4,4,desert_6,2,memory-2step-stake-s,520,1323311,0.0-19.0-0.0-0.26,A10T0161B70BXP,3SNR5F7RA597AOC2DOU98SGLOEGIEB,3ZV9H2YQQHNPN4E43NMUFCHJ6EDW3V,2,1
27,1,object_10,object_03,723.89999961853,1,2,383.19999885559,0.6666666666666666,1,object_04,5,229,0,6,6,desert_3,2,memory-2step-stake-s,521,1331516,0.0-19.0-0.0-0.27,A10T0161B70BXP,3SNR5F7RA597AOC2DOU98SGLOEGIEB,3ZV9H2YQQHNPN4E43NMUFCHJ6EDW3V,2,1
28,4,object_01,object_06,646.89999961853,8,1,521.30000114441,0.8888888888888888,2,object_08,1,237,0,6,8,restaurant_6,2,memory-2step-stake-s,522,1340088,0.0-19.0-0.0-0.28,A10T0161B70BXP,3SNR5F7RA597AOC2DOU98SGLOEGIEB,3ZV9H2YQQHNPN4E43NMUFCHJ6EDW3V,8,7
29,4,object_06,object_01,521.60000038147,8,2,83.60000038147,0.4444444444444444,2,object_08,1,241,0,6,4,restaurant_8,2,memory-2step-stake-s,523,1347792,0.0-19.0-0.0-0.29,A10T0161B70BXP,3SNR5F7RA597AOC2DOU98SGLOEGIEB,3ZV9H2YQQHNPN4E43NMUFCHJ6EDW3V,7,8
30,1,object_10,object_03,625.5,2,1,298.5,0.2222222222222222,2,object_08,5,251,0,7,2,desert_5,2,memory-2step-stake-s,524,1355545,0.0-19.0-0.0-0.30,A10T0161B70BXP,3SNR5F7RA597AOC2DOU98SGLOEGIEB,3ZV9H2YQQHNPN4E43NMUFCHJ6EDW3V,2,1
31,2,object_07,object_05,999.5,4,2,511.40000152588,0.5555555555555556,2,object_08,5,276,0,5,5,forest_5,2,memory-2step-stake-s,525,1363780,0.0-19.0-0.0-0.31,A10T0161B70BXP,3SNR5F7RA597AOC2DOU98SGLOEGIEB,3ZV9H2YQQHNPN4E43NMUFCHJ6EDW3V,3,4
32,1,object_10,object_03,908.19999885559,2,1,917.5,0.3333333333333333,2,object_08,5,291,0,6,3,desert_5,2,memory-2step-stake-s,526,1372217,0.0-19.0-0.0-0.32,A10T0161B70BXP,3SNR5F7RA597AOC2DOU98SGLOEGIEB,3ZV9H2YQQHNPN4E43NMUFCHJ6EDW3V,2,1
33,2,object_05,object_07,678.69999885559,4,1,641.39999961853,0.4444444444444444,2,object_08,5,311,0,6,4,forest_5,2,memory-2step-stake-s,527,1380478,0.0-19.0-0.0-0.33,A10T0161B70BXP,3SNR5F7RA597AOC2DOU98SGLOEGIEB,3ZV9H2YQQHNPN4E43NMUFCHJ6EDW3V,4,3
34,1,object_03,object_10,560.0,2,2,-1.0,0.0,2,object_08,5,311,0,4,1,desert_1,2,memory-2step-stake-s,528,1388992,0.0-19.0-0.0-0.34,A10T0161B70BXP,3SNR5F7RA597AOC2DOU98SGLOEGIEB,3ZV9H2YQQHNPN4E43NMUFCHJ6EDW3V,1,2
35,2,object_07,object_05,683.79999923706,4,2,481.60000038147,0.3333333333333333,2,object_08,1,314,0,6,3,forest_3,2,memory-2step-stake-s,529,1396997,0.0-19.0-0.0-0.35,A10T0161B70BXP,3SNR5F7RA597AOC2DOU98SGLOEGIEB,3ZV9H2YQQHNPN4E43NMUFCHJ6EDW3V,3,4
36,4,object_06,object_01,532.80000114441,7,1,767.60000038147,0.7777777777777778,1,object_04,1,321,0,7,1,restaurant_3,2,memory-2step-stake-s,530,1405696,0.0-19.0-0.0-0.36,A10T0161B70BXP,3SNR5F7RA597AOC2DOU98SGLOEGIEB,3ZV9H2YQQHNPN4E43NMUFCHJ6EDW3V,7,8
37,2,object_07,object_05,648.79999923706,4,2,242.70000076294,0.1111111111111111,2,object_08,1,322,0,7,1,forest_5,2,memory-2step-stake-s,531,1413277,0.0-19.0-0.0-0.37,A10T0161B70BXP,3SNR5F7RA597AOC2DOU98SGLOEGIEB,3ZV9H2YQQHNPN4E43NMUFCHJ6EDW3V,3,4
38,2,object_07,object_05,701.29999923706,4,2,198.70000076294,0.4444444444444444,2,object_08,5,342,0,6,4,forest_5,2,memory-2step-stake-s,532,1421095,0.0-19.0-0.0-0.38,A10T0161B70BXP,3SNR5F7RA597AOC2DOU98SGLOEGIEB,3ZV9H2YQQHNPN4E43NMUFCHJ6EDW3V,3,4
39,4,object_06,object_01,801.89999961853,7,1,971.30000114441,0.8888888888888888,1,object_04,1,350,0,8,8,restaurant_3,2,memory-2step-stake-s,533,1430093,0.0-19.0-0.0-0.39,A10T0161B70BXP,3SNR5F7RA597AOC2DOU98SGLOEGIEB,3ZV9H2YQQHNPN4E43NMUFCHJ6EDW3V,7,8
40,2,object_07,object_05,684.19999885559,4,2,373.80000114441,1.0,2,object_08,5,395,0,7,9,forest_3,2,memory-2step-stake-s,534,1438592,0.0-19.0-0.0-0.40,A10T0161B70BXP,3SNR5F7RA597AOC2DOU98SGLOEGIEB,3ZV9H2YQQHNPN4E43NMUFCHJ6EDW3V,3,4
41,2,object_07,object_05,679.89999961853,4,2,593.10000038147,0.6666666666666666,2,object_08,1,401,0,8,6,forest_3,2,memory-2step-stake-s,535,1447006,0.0-19.0-0.0-0.41,A10T0161B70BXP,3SNR5F7RA597AOC2DOU98SGLOEGIEB,3ZV9H2YQQHNPN4E43NMUFCHJ6EDW3V,3,4
42,2,object_05,object_07,597.79999923706,4,1,352.39999961853,0.8888888888888888,2,object_08,5,441,0,8,8,forest_5,2,memory-2step-stake-s,536,1455385,0.0-19.0-0.0-0.42,A10T0161B70BXP,3SNR5F7RA597AOC2DOU98SGLOEGIEB,3ZV9H2YQQHNPN4E43NMUFCHJ6EDW3V,4,3
43,2,object_07,object_05,682.19999885559,4,2,227.80000114441,0.7777777777777778,2,object_08,5,476,0,6,7,forest_3,2,memory-2step-stake-s,537,1463538,0.0-19.0-0.0-0.43,A10T0161B70BXP,3SNR5F7RA597AOC2DOU98SGLOEGIEB,3ZV9H2YQQHNPN4E43NMUFCHJ6EDW3V,3,4
44,1,object_03,object_10,817.79999923706,2,2,325.09999847412,0.8888888888888888,2,object_08,5,516,0,7,8,desert_5,2,memory-2step-stake-s,538,1471915,0.0-19.0-0.0-0.44,A10T0161B70BXP,3SNR5F7RA597AOC2DOU98SGLOEGIEB,3ZV9H2YQQHNPN4E43NMUFCHJ6EDW3V,1,2
45,2,object_07,object_05,775.0,4,2,369.09999847412,0.6666666666666666,2,object_08,5,546,0,8,6,forest_3,2,memory-2step-stake-s,539,1480108,0.0-19.0-0.0-0.45,A10T0161B70BXP,3SNR5F7RA597AOC2DOU98SGLOEGIEB,3ZV9H2YQQHNPN4E43NMUFCHJ6EDW3V,3,4
46,3,object_09,object_02,1159.0,5,2,383.39999961853,1.0,1,object_04,5,591,0,9,4,library_6,2,memory-2step-stake-s,540,1488619,0.0-19.0-0.0-0.46,A10T0161B70BXP,3SNR5F7RA597AOC2DOU98SGLOEGIEB,3ZV9H2YQQHNPN4E43NMUFCHJ6EDW3V,6,5
47,1,object_10,object_03,805.29999923706,2,1,638.29999923706,0.6666666666666666,2,object_08,5,621,0,8,6,desert_6,2,memory-2step-stake-s,541,1497083,0.0-19.0-0.0-0.47,A10T0161B70BXP,3SNR5F7RA597AOC2DOU98SGLOEGIEB,3ZV9H2YQQHNPN4E43NMUFCHJ6EDW3V,2,1
48,4,object_06,object_01,885.19999885559,7,1,461.0,0.8888888888888888,1,object_04,1,629,0,8,6,restaurant_7,2,memory-2step-stake-s,542,1505584,0.0-19.0-0.0-0.48,A10T0161B70BXP,3SNR5F7RA597AOC2DOU98SGLOEGIEB,3ZV9H2YQQHNPN4E43NMUFCHJ6EDW3V,7,8
49,4,object_01,object_06,874.5,7,2,725.0,0.7777777777777778,1,object_04,1,636,0,7,8,restaurant_3,2,memory-2step-stake-s,543,1514235,0.0-19.0-0.0-0.49,A10T0161B70BXP,3SNR5F7RA597AOC2DOU98SGLOEGIEB,3ZV9H2YQQHNPN4E43NMUFCHJ6EDW3V,8,7
50,2,object_05,object_07,832.5,4,1,954.0,0.5555555555555556,2,object_08,5,661,0,7,5,forest_3,2,memory-2step-stake-s,544,1522913,0.0-19.0-0.0-0.50,A10T0161B70BXP,3SNR5F7RA597AOC2DOU98SGLOEGIEB,3ZV9H2YQQHNPN4E43NMUFCHJ6EDW3V,4,3
51,3,object_09,object_02,1034.3999996185,5,2,498.0,0.8888888888888888,1,object_04,5,701,0,8,6,library_8,2,memory-2step-stake-s,545,1531452,0.0-19.0-0.0-0.51,A10T0161B70BXP,3SNR5F7RA597AOC2DOU98SGLOEGIEB,3ZV9H2YQQHNPN4E43NMUFCHJ6EDW3V,6,5
52,1,object_10,object_03,781.20000076294,2,1,23.800001144409,0.7777777777777778,2,object_08,5,736,0,8,7,desert_6,2,memory-2step-stake-s,546,1539404,0.0-19.0-0.0-0.52,A10T0161B70BXP,3SNR5F7RA597AOC2DOU98SGLOEGIEB,3ZV9H2YQQHNPN4E43NMUFCHJ6EDW3V,2,1
53,1,object_03,object_10,591.10000038147,2,2,632.39999961853,0.7777777777777778,2,object_08,5,771,0,5,7,desert_6,2,memory-2step-stake-s,547,1547963,0.0-19.0-0.0-0.53,A10T0161B70BXP,3SNR5F7RA597AOC2DOU98SGLOEGIEB,3ZV9H2YQQHNPN4E43NMUFCHJ6EDW3V,1,2
54,1,object_10,object_03,638.60000038147,2,1,488.10000038147,0.6666666666666666,2,object_08,1,777,0,6,6,desert_3,2,memory-2step-stake-s,548,1556279,0.0-19.0-0.0-0.54,A10T0161B70BXP,3SNR5F7RA597AOC2DOU98SGLOEGIEB,3ZV9H2YQQHNPN4E43NMUFCHJ6EDW3V,2,1
55,4,object_06,object_01,722.69999885559,8,2,379.60000038147,0.5555555555555556,2,object_08,1,782,0,7,5,restaurant_3,2,memory-2step-stake-s,549,1564379,0.0-19.0-0.0-0.55,A10T0161B70BXP,3SNR5F7RA597AOC2DOU98SGLOEGIEB,3ZV9H2YQQHNPN4E43NMUFCHJ6EDW3V,7,8
56,2,object_05,object_07,649.29999923706,4,1,241.5,0.5555555555555556,2,object_08,5,807,0,8,5,forest_8,2,memory-2step-stake-s,550,1572347,0.0-19.0-0.0-0.56,A10T0161B70BXP,3SNR5F7RA597AOC2DOU98SGLOEGIEB,3ZV9H2YQQHNPN4E43NMUFCHJ6EDW3V,4,3
57,1,object_03,object_10,617.40000152588,2,2,755.39999961853,0.4444444444444444,2,object_08,5,827,0,7,4,desert_1,2,memory-2step-stake-s,551,1580728,0.0-19.0-0.0-0.57,A10T0161B70BXP,3SNR5F7RA597AOC2DOU98SGLOEGIEB,3ZV9H2YQQHNPN4E43NMUFCHJ6EDW3V,1,2
58,1,object_10,object_03,617.60000038147,2,1,674.39999961853,0.7777777777777778,2,object_08,5,862,0,8,7,desert_1,2,memory-2step-stake-s,552,1589339,0.0-19.0-0.0-0.58,A10T0161B70BXP,3SNR5F7RA597AOC2DOU98SGLOEGIEB,3ZV9H2YQQHNPN4E43NMUFCHJ6EDW3V,2,1
59,1,object_03,object_10,649.20000076294,2,2,753.70000076294,0.5555555555555556,2,object_08,5,887,0,8,5,desert_3,2,memory-2step-stake-s,553,1597820,0.0-19.0-0.0-0.59,A10T0161B70BXP,3SNR5F7RA597AOC2DOU98SGLOEGIEB,3ZV9H2YQQHNPN4E43NMUFCHJ6EDW3V,1,2
60,3,object_02,object_09,1254.3999996185,5,1,783.60000038147,0.6666666666666666,1,object_04,5,917,0,6,6,library_1,2,memory-2step-stake-s,554,1606432,0.0-19.0-0.0-0.60,A10T0161B70BXP,3SNR5F7RA597AOC2DOU98SGLOEGIEB,3ZV9H2YQQHNPN4E43NMUFCHJ6EDW3V,5,6
61,1,object_10,object_03,690.39999961853,2,1,507.79999923706,0.8888888888888888,2,object_08,5,957,0,7,8,desert_1,2,memory-2step-stake-s,555,1614971,0.0-19.0-0.0-0.61,A10T0161B70BXP,3SNR5F7RA597AOC2DOU98SGLOEGIEB,3ZV9H2YQQHNPN4E43NMUFCHJ6EDW3V,2,1
62,2,object_05,object_07,660.80000114441,4,1,285.70000076294,0.8888888888888888,2,object_08,5,997,0,9,8,forest_6,2,memory-2step-stake-s,556,1623292,0.0-19.0-0.0-0.62,A10T0161B70BXP,3SNR5F7RA597AOC2DOU98SGLOEGIEB,3ZV9H2YQQHNPN4E43NMUFCHJ6EDW3V,4,3
63,4,object_06,object_01,1013.3999996185,8,2,847.5,0.5555555555555556,2,object_08,1,1002,0,8,5,restaurant_8,2,memory-2step-stake-s,557,1631863,0.0-19.0-0.0-0.63,A10T0161B70BXP,3SNR5F7RA597AOC2DOU98SGLOEGIEB,3ZV9H2YQQHNPN4E43NMUFCHJ6EDW3V,7,8
64,2,object_05,object_07,836.5,4,1,351.10000038147,0.3333333333333333,2,object_08,5,1017,0,6,3,forest_8,2,memory-2step-stake-s,558,1639743,0.0-19.0-0.0-0.64,A10T0161B70BXP,3SNR5F7RA597AOC2DOU98SGLOEGIEB,3ZV9H2YQQHNPN4E43NMUFCHJ6EDW3V,4,3
65,1,object_10,object_03,1246.3999996185,2,1,471.0,0.2222222222222222,2,object_08,5,1027,0,9,2,desert_5,2,memory-2step-stake-s,559,1647636,0.0-19.0-0.0-0.65,A10T0161B70BXP,3SNR5F7RA597AOC2DOU98SGLOEGIEB,3ZV9H2YQQHNPN4E43NMUFCHJ6EDW3V,2,1
66,1,object_03,object_10,647.20000076294,2,2,607.80000114441,0.4444444444444444,2,object_08,5,1047,0,7,4,desert_1,2,memory-2step-stake-s,560,1655870,0.0-19.0-0.0-0.66,A10T0161B70BXP,3SNR5F7RA597AOC2DOU98SGLOEGIEB,3ZV9H2YQQHNPN4E43NMUFCHJ6EDW3V,1,2
67,1,object_10,object_03,684.29999923706,2,1,628.90000152588,0.7777777777777778,2,object_08,5,1082,0,9,7,desert_3,2,memory-2step-stake-s,561,1664433,0.0-19.0-0.0-0.67,A10T0161B70BXP,3SNR5F7RA597AOC2DOU98SGLOEGIEB,3ZV9H2YQQHNPN4E43NMUFCHJ6EDW3V,2,1
68,2,object_05,object_07,682.70000076294,4,1,548.90000152588,0.6666666666666666,2,object_08,1,1088,0,6,6,forest_3,2,memory-2step-stake-s,562,1672811,0.0-19.0-0.0-0.68,A10T0161B70BXP,3SNR5F7RA597AOC2DOU98SGLOEGIEB,3ZV9H2YQQHNPN4E43NMUFCHJ6EDW3V,4,3
69,4,object_06,object_01,1006.6999988556,8,2,469.09999847412,1.0,2,object_08,5,1133,0,8,9,restaurant_6,2,memory-2step-stake-s,563,1681431,0.0-19.0-0.0-0.69,A10T0161B70BXP,3SNR5F7RA597AOC2DOU98SGLOEGIEB,3ZV9H2YQQHNPN4E43NMUFCHJ6EDW3V,7,8
70,3,object_09,object_02,1044.6000003815,5,2,491.30000114441,1.0,1,object_04,1,1142,0,9,8,library_3,2,memory-2step-stake-s,564,1690104,0.0-19.0-0.0-0.70,A10T0161B70BXP,3SNR5F7RA597AOC2DOU98SGLOEGIEB,3ZV9H2YQQHNPN4E43NMUFCHJ6EDW3V,6,5
71,2,object_05,object_07,604.09999847412,4,1,422.5,0.7777777777777778,2,object_08,5,1177,0,9,7,forest_5,2,memory-2step-stake-s,565,1698459,0.0-19.0-0.0-0.71,A10T0161B70BXP,3SNR5F7RA597AOC2DOU98SGLOEGIEB,3ZV9H2YQQHNPN4E43NMUFCHJ6EDW3V,4,3
72,4,object_06,object_01,713.80000114441,8,2,222.80000114441,1.0,2,object_08,5,1222,0,6,9,restaurant_3,2,memory-2step-stake-s,566,1706823,0.0-19.0-0.0-0.72,A10T0161B70BXP,3SNR5F7RA597AOC2DOU98SGLOEGIEB,3ZV9H2YQQHNPN4E43NMUFCHJ6EDW3V,7,8
73,3,object_02,object_09,796.89999961853,5,1,729.70000076294,0.6666666666666666,1,object_04,1,1228,0,6,8,library_3,2,memory-2step-stake-s,567,1715384,0.0-19.0-0.0-0.73,A10T0161B70BXP,3SNR5F7RA597AOC2DOU98SGLOEGIEB,3ZV9H2YQQHNPN4E43NMUFCHJ6EDW3V,5,6
74,2,object_05,object_07,745.89999961853,4,1,225.10000038147,0.7777777777777778,2,object_08,5,1263,0,4,7,forest_6,2,memory-2step-stake-s,568,1723545,0.0-19.0-0.0-0.74,A10T0161B70BXP,3SNR5F7RA597AOC2DOU98SGLOEGIEB,3ZV9H2YQQHNPN4E43NMUFCHJ6EDW3V,4,3
75,1,object_10,object_03,681.69999885559,2,1,481.19999885559,0.7777777777777778,2,object_08,1,1270,0,2,7,desert_5,2,memory-2step-stake-s,569,1731961,0.0-19.0-0.0-0.75,A10T0161B70BXP,3SNR5F7RA597AOC2DOU98SGLOEGIEB,3ZV9H2YQQHNPN4E43NMUFCHJ6EDW3V,2,1
76,3,object_02,object_09,631.69999885559,5,1,351.89999961853,0.2222222222222222,1,object_04,1,1272,0,2,8,library_8,2,memory-2step-stake-s,570,1739740,0.0-19.0-0.0-0.76,A10T0161B70BXP,3SNR5F7RA597AOC2DOU98SGLOEGIEB,3ZV9H2YQQHNPN4E43NMUFCHJ6EDW3V,5,6
77,3,object_02,object_09,709.0,5,1,733.19999885559,0.4444444444444444,1,object_04,1,1276,0,4,8,library_1,2,memory-2step-stake-s,571,1748112,0.0-19.0-0.0-0.77,A10T0161B70BXP,3SNR5F7RA597AOC2DOU98SGLOEGIEB,3ZV9H2YQQHNPN4E43NMUFCHJ6EDW3V,5,6
78,1,object_10,object_03,635.79999923706,2,1,355.19999885559,0.8888888888888888,2,object_08,5,1316,0,7,8,desert_6,2,memory-2step-stake-s,572,1756510,0.0-19.0-0.0-0.78,A10T0161B70BXP,3SNR5F7RA597AOC2DOU98SGLOEGIEB,3ZV9H2YQQHNPN4E43NMUFCHJ6EDW3V,2,1
79,3,object_09,object_02,678.30000114441,5,2,1112.0,0.8888888888888888,1,object_04,5,1356,0,8,9,library_1,2,memory-2step-stake-s,573,1765666,0.0-19.0-0.0-0.79,A10T0161B70BXP,3SNR5F7RA597AOC2DOU98SGLOEGIEB,3ZV9H2YQQHNPN4E43NMUFCHJ6EDW3V,6,5
80,3,object_02,object_09,586.89999961853,5,1,753.5,0.5555555555555556,1,object_04,1,1361,0,5,9,library_8,2,memory-2step-stake-s,574,1774153,0.0-19.0-0.0-0.80,A10T0161B70BXP,3SNR5F7RA597AOC2DOU98SGLOEGIEB,3ZV9H2YQQHNPN4E43NMUFCHJ6EDW3V,5,6
81,2,object_07,object_05,579.10000038147,4,2,539.29999923706,0.7777777777777778,2,object_08,5,1396,0,5,7,forest_8,2,memory-2step-stake-s,575,1782628,0.0-19.0-0.0-0.81,A10T0161B70BXP,3SNR5F7RA597AOC2DOU98SGLOEGIEB,3ZV9H2YQQHNPN4E43NMUFCHJ6EDW3V,3,4
82,1,object_03,object_10,551.20000076294,2,2,257.5,1.0,2,object_08,5,1441,0,4,9,desert_6,2,memory-2step-stake-s,576,1791025,0.0-19.0-0.0-0.82,A10T0161B70BXP,3SNR5F7RA597AOC2DOU98SGLOEGIEB,3ZV9H2YQQHNPN4E43NMUFCHJ6EDW3V,1,2
83,3,object_09,object_02,602.0,6,1,375.39999961853,1.0,2,object_08,1,1450,0,0,9,library_8,2,memory-2step-stake-s,577,1799544,0.0-19.0-0.0-0.83,A10T0161B70BXP,3SNR5F7RA597AOC2DOU98SGLOEGIEB,3ZV9H2YQQHNPN4E43NMUFCHJ6EDW3V,6,5
84,2,object_07,object_05,691.89999961853,4,2,92.60000038147,0.4444444444444444,2,object_08,5,1470,0,0,4,forest_5,2,memory-2step-stake-s,578,1807270,0.0-19.0-0.0-0.84,A10T0161B70BXP,3SNR5F7RA597AOC2DOU98SGLOEGIEB,3ZV9H2YQQHNPN4E43NMUFCHJ6EDW3V,3,4
85,4,object_06,object_01,1054.8000011444,8,2,471.70000076294,0.6666666666666666,2,object_08,1,1476,0,2,6,restaurant_7,2,memory-2step-stake-s,579,1815588,0.0-19.0-0.0-0.85,A10T0161B70BXP,3SNR5F7RA597AOC2DOU98SGLOEGIEB,3ZV9H2YQQHNPN4E43NMUFCHJ6EDW3V,7,8
86,3,object_09,object_02,855.70000076294,5,2,431.79999923706,0.6666666666666666,1,object_04,1,1482,0,6,4,library_1,2,memory-2step-stake-s,580,1823860,0.0-19.0-0.0-0.86,A10T0161B70BXP,3SNR5F7RA597AOC2DOU98SGLOEGIEB,3ZV9H2YQQHNPN4E43NMUFCHJ6EDW3V,6,5
87,2,object_05,object_07,1158.0,4,1,448.89999961853,0.2222222222222222,2,object_08,5,1492,0,7,2,forest_6,2,memory-2step-stake-s,581,1831731,0.0-19.0-0.0-0.87,A10T0161B70BXP,3SNR5F7RA597AOC2DOU98SGLOEGIEB,3ZV9H2YQQHNPN4E43NMUFCHJ6EDW3V,4,3
88,3,object_09,object_02,744.5,6,1,323.0,0.3333333333333333,2,object_08,5,1507,0,8,3,library_6,2,memory-2step-stake-s,582,1839570,0.0-19.0-0.0-0.88,A10T0161B70BXP,3SNR5F7RA597AOC2DOU98SGLOEGIEB,3ZV9H2YQQHNPN4E43NMUFCHJ6EDW3V,6,5
89,3,object_09,object_02,614.40000152588,5,2,657.0,0.8888888888888888,1,object_04,1,1515,0,8,7,library_3,2,memory-2step-stake-s,583,1848264,0.0-19.0-0.0-0.89,A10T0161B70BXP,3SNR5F7RA597AOC2DOU98SGLOEGIEB,3ZV9H2YQQHNPN4E43NMUFCHJ6EDW3V,6,5
90,2,object_05,object_07,785.70000076294,4,1,252.10000038147,0.5555555555555556,2,object_08,5,1540,0,8,5,forest_8,2,memory-2step-stake-s,584,1856246,0.0-19.0-0.0-0.90,A10T0161B70BXP,3SNR5F7RA597AOC2DOU98SGLOEGIEB,3ZV9H2YQQHNPN4E43NMUFCHJ6EDW3V,4,3
91,1,object_03,object_10,690.60000038147,2,2,443.70000076294,0.8888888888888888,2,object_08,1,1548,0,7,8,desert_3,2,memory-2step-stake-s,585,1864742,0.0-19.0-0.0-0.91,A10T0161B70BXP,3SNR5F7RA597AOC2DOU98SGLOEGIEB,3ZV9H2YQQHNPN4E43NMUFCHJ6EDW3V,1,2
92,2,object_07,object_05,787.19999885559,4,2,406.90000152588,0.7777777777777778,2,object_08,5,1583,0,8,7,forest_3,2,memory-2step-stake-s,586,1873078,0.0-19.0-0.0-0.92,A10T0161B70BXP,3SNR5F7RA597AOC2DOU98SGLOEGIEB,3ZV9H2YQQHNPN4E43NMUFCHJ6EDW3V,3,4
93,4,object_06,object_01,797.80000114441,7,1,1416.6000003815,0.7777777777777778,1,object_04,1,1590,0,7,3,restaurant_7,2,memory-2step-stake-s,587,1882419,0.0-19.0-0.0-0.93,A10T0161B70BXP,3SNR5F7RA597AOC2DOU98SGLOEGIEB,3ZV9H2YQQHNPN4E43NMUFCHJ6EDW3V,7,8
94,2,object_05,object_07,944.80000114441,3,2,381.20000076294,0.5555555555555556,1,object_04,5,1615,0,5,6,forest_6,2,memory-2step-stake-s,588,1890522,0.0-19.0-0.0-0.94,A10T0161B70BXP,3SNR5F7RA597AOC2DOU98SGLOEGIEB,3ZV9H2YQQHNPN4E43NMUFCHJ6EDW3V,4,3
95,3,object_09,object_02,1290.1999988556,6,1,1090.6000003815,0.7777777777777778,2,object_08,1,1622,0,4,7,library_8,2,memory-2step-stake-s,589,1899546,0.0-19.0-0.0-0.95,A10T0161B70BXP,3SNR5F7RA597AOC2DOU98SGLOEGIEB,3ZV9H2YQQHNPN4E43NMUFCHJ6EDW3V,6,5
96,3,object_09,object_02,714.19999885559,5,2,291.0,0.5555555555555556,1,object_04,5,1647,0,5,7,library_3,2,memory-2step-stake-s,590,1907562,0.0-19.0-0.0-0.96,A10T0161B70BXP,3SNR5F7RA597AOC2DOU98SGLOEGIEB,3ZV9H2YQQHNPN4E43NMUFCHJ6EDW3V,6,5
97,1,object_03,object_10,754.0,2,2,-1.0,0.0,2,object_08,5,1647,0,6,5,desert_1,2,memory-2step-stake-s,591,1916091,0.0-19.0-0.0-0.97,A10T0161B70BXP,3SNR5F7RA597AOC2DOU98SGLOEGIEB,3ZV9H2YQQHNPN4E43NMUFCHJ6EDW3V,1,2
98,4,object_01,object_06,680.60000038147,8,1,236.39999961853,0.4444444444444444,2,object_08,1,1651,0,4,4,restaurant_3,2,memory-2step-stake-s,592,1923953,0.0-19.0-0.0-0.98,A10T0161B70BXP,3SNR5F7RA597AOC2DOU98SGLOEGIEB,3ZV9H2YQQHNPN4E43NMUFCHJ6EDW3V,8,7
99,4,object_01,object_06,784.40000152588,8,1,236.79999923706,0.4444444444444444,2,object_08,1,1655,0,4,4,restaurant_6,2,memory-2step-stake-s,593,1931805,0.0-19.0-0.0-0.99,A10T0161B70BXP,3SNR5F7RA597AOC2DOU98SGLOEGIEB,3ZV9H2YQQHNPN4E43NMUFCHJ6EDW3V,8,7
100,1,object_10,object_03,720.09999847412,2,1,281.89999961853,0.2222222222222222,2,object_08,5,1665,0,6,2,desert_3,2,memory-2step-stake-s,594,1939560,0.0-19.0-0.0-0.100,A10T0161B70BXP,3SNR5F7RA597AOC2DOU98SGLOEGIEB,3ZV9H2YQQHNPN4E43NMUFCHJ6EDW3V,2,1
101,1,object_10,object_03,640.80000114441,1,2,379.40000152588,0.3333333333333333,1,object_04,5,1680,0,3,6,desert_3,2,memory-2step-stake-s,595,1947462,0.0-19.0-0.0-0.101,A10T0161B70BXP,3SNR5F7RA597AOC2DOU98SGLOEGIEB,3ZV9H2YQQHNPN4E43NMUFCHJ6EDW3V,2,1
102,2,object_05,object_07,586.19999885559,3,2,355.60000038147,0.3333333333333333,1,object_04,5,1695,0,3,8,forest_5,2,memory-2step-stake-s,596,1955357,0.0-19.0-0.0-0.102,A10T0161B70BXP,3SNR5F7RA597AOC2DOU98SGLOEGIEB,3ZV9H2YQQHNPN4E43NMUFCHJ6EDW3V,4,3
103,1,object_03,object_10,815.09999847412,2,2,-1.0,0.0,2,object_08,5,1695,0,4,7,desert_5,2,memory-2step-stake-s,597,1963877,0.0-19.0-0.0-0.103,A10T0161B70BXP,3SNR5F7RA597AOC2DOU98SGLOEGIEB,3ZV9H2YQQHNPN4E43NMUFCHJ6EDW3V,1,2
104,3,object_09,object_02,807.39999961853,6,1,351.5,0.6666666666666666,2,object_08,1,1701,0,7,6,library_6,2,memory-2step-stake-s,598,1972067,0.0-19.0-0.0-0.104,A10T0161B70BXP,3SNR5F7RA597AOC2DOU98SGLOEGIEB,3ZV9H2YQQHNPN4E43NMUFCHJ6EDW3V,6,5
105,4,object_06,object_01,679.09999847412,8,2,529.5,0.2222222222222222,2,object_08,5,1711,0,6,2,restaurant_7,2,memory-2step-stake-s,599,1980028,0.0-19.0-0.0-0.105,A10T0161B70BXP,3SNR5F7RA597AOC2DOU98SGLOEGIEB,3ZV9H2YQQHNPN4E43NMUFCHJ6EDW3V,7,8
106,1,object_03,object_10,669.5,1,1,438.5,0.6666666666666666,1,object_04,1,1717,0,6,3,desert_1,2,memory-2step-stake-s,600,1988290,0.0-19.0-0.0-0.106,A10T0161B70BXP,3SNR5F7RA597AOC2DOU98SGLOEGIEB,3ZV9H2YQQHNPN4E43NMUFCHJ6EDW3V,1,2
107,1,object_10,object_03,514.0,1,2,155.5,0.8888888888888888,1,object_04,1,1725,0,8,0,desert_3,2,memory-2step-stake-s,601,1996473,0.0-19.0-0.0-0.107,A10T0161B70BXP,3SNR5F7RA597AOC2DOU98SGLOEGIEB,3ZV9H2YQQHNPN4E43NMUFCHJ6EDW3V,2,1
108,3,object_09,object_02,668.69999885559,6,1,1013.8999996185,0.2222222222222222,2,object_08,1,1727,0,8,2,library_6,2,memory-2step-stake-s,602,2004905,0.0-19.0-0.0-0.108,A10T0161B70BXP,3SNR5F7RA597AOC2DOU98SGLOEGIEB,3ZV9H2YQQHNPN4E43NMUFCHJ6EDW3V,6,5
109,1,object_03,object_10,186.80000114441,2,2,213.80000114441,0.6666666666666666,2,object_08,1,1733,0,9,6,desert_5,2,memory-2step-stake-s,603,2012942,0.0-19.0-0.0-0.109,A10T0161B70BXP,3SNR5F7RA597AOC2DOU98SGLOEGIEB,3ZV9H2YQQHNPN4E43NMUFCHJ6EDW3V,1,2
110,4,object_06,object_01,310.29999923706,7,1,254.20000076294,0.8888888888888888,1,object_04,1,1741,0,8,9,restaurant_6,2,memory-2step-stake-s,604,2021230,0.0-19.0-0.0-0.110,A10T0161B70BXP,3SNR5F7RA597AOC2DOU98SGLOEGIEB,3ZV9H2YQQHNPN4E43NMUFCHJ6EDW3V,7,8
111,3,object_09,object_02,757.89999961853,5,2,655.20000076294,0.5555555555555556,1,object_04,5,1766,0,5,7,library_1,2,memory-2step-stake-s,605,2029608,0.0-19.0-0.0-0.111,A10T0161B70BXP,3SNR5F7RA597AOC2DOU98SGLOEGIEB,3ZV9H2YQQHNPN4E43NMUFCHJ6EDW3V,6,5
112,4,object_01,object_06,602.29999923706,8,1,499.60000038147,0.8888888888888888,2,object_08,5,1806,0,5,8,restaurant_6,2,memory-2step-stake-s,606,2038136,0.0-19.0-0.0-0.112,A10T0161B70BXP,3SNR5F7RA597AOC2DOU98SGLOEGIEB,3ZV9H2YQQHNPN4E43NMUFCHJ6EDW3V,8,7
113,2,object_07,object_05,586.0,4,2,563.20000076294,0.8888888888888888,2,object_08,5,1846,0,5,8,forest_3,2,memory-2step-stake-s,607,2046726,0.0-19.0-0.0-0.113,A10T0161B70BXP,3SNR5F7RA597AOC2DOU98SGLOEGIEB,3ZV9H2YQQHNPN4E43NMUFCHJ6EDW3V,3,4
114,4,object_01,object_06,636.79999923706,8,1,582.20000076294,0.7777777777777778,2,object_08,1,1853,0,5,7,restaurant_3,2,memory-2step-stake-s,608,2055250,0.0-19.0-0.0-0.114,A10T0161B70BXP,3SNR5F7RA597AOC2DOU98SGLOEGIEB,3ZV9H2YQQHNPN4E43NMUFCHJ6EDW3V,8,7
115,2,object_05,object_07,491.09999847412,3,2,646.10000038147,0.4444444444444444,1,object_04,5,1873,0,4,4,forest_5,2,memory-2step-stake-s,609,2063538,0.0-19.0-0.0-0.115,A10T0161B70BXP,3SNR5F7RA597AOC2DOU98SGLOEGIEB,3ZV9H2YQQHNPN4E43NMUFCHJ6EDW3V,4,3
116,1,object_03,object_10,635.0,1,1,83.799999237061,0.3333333333333333,1,object_04,5,1888,0,3,3,desert_6,2,memory-2step-stake-s,610,2071154,0.0-19.0-0.0-0.116,A10T0161B70BXP,3SNR5F7RA597AOC2DOU98SGLOEGIEB,3ZV9H2YQQHNPN4E43NMUFCHJ6EDW3V,1,2
117,3,object_09,object_02,690.0,5,2,490.30000114441,0.4444444444444444,1,object_04,1,1892,0,4,4,library_6,2,memory-2step-stake-s,611,2079277,0.0-19.0-0.0-0.117,A10T0161B70BXP,3SNR5F7RA597AOC2DOU98SGLOEGIEB,3ZV9H2YQQHNPN4E43NMUFCHJ6EDW3V,6,5
118,3,object_02,object_09,718.29999923706,5,1,151.70000076294,0.7777777777777778,1,object_04,1,1899,0,7,4,library_3,2,memory-2step-stake-s,612,2087374,0.0-19.0-0.0-0.118,A10T0161B70BXP,3SNR5F7RA597AOC2DOU98SGLOEGIEB,3ZV9H2YQQHNPN4E43NMUFCHJ6EDW3V,5,6
119,4,object_06,object_01,510.10000038147,8,2,342.30000114441,0.5555555555555556,2,object_08,1,1904,0,7,5,restaurant_8,2,memory-2step-stake-s,613,2095461,0.0-19.0-0.0-0.119,A10T0161B70BXP,3SNR5F7RA597AOC2DOU98SGLOEGIEB,3ZV9H2YQQHNPN4E43NMUFCHJ6EDW3V,7,8
120,2,object_05,object_07,533.39999961853,4,1,302.69999885559,0.4444444444444444,2,object_08,5,1924,0,8,4,forest_6,2,memory-2step-stake-s,614,2103391,0.0-19.0-0.0-0.120,A10T0161B70BXP,3SNR5F7RA597AOC2DOU98SGLOEGIEB,3ZV9H2YQQHNPN4E43NMUFCHJ6EDW3V,4,3
121,1,object_03,object_10,523.30000114441,2,2,186.20000076294,0.5555555555555556,2,object_08,1,1929,0,7,5,desert_1,2,memory-2step-stake-s,615,2111550,0.0-19.0-0.0-0.121,A10T0161B70BXP,3SNR5F7RA597AOC2DOU98SGLOEGIEB,3ZV9H2YQQHNPN4E43NMUFCHJ6EDW3V,1,2
122,4,object_06,object_01,696.60000038147,7,1,334.80000114441,0.5555555555555556,1,object_04,1,1934,0,5,6,restaurant_8,2,memory-2step-stake-s,616,2119643,0.0-19.0-0.0-0.122,A10T0161B70BXP,3SNR5F7RA597AOC2DOU98SGLOEGIEB,3ZV9H2YQQHNPN4E43NMUFCHJ6EDW3V,7,8
123,4,object_06,object_01,763.29999923706,8,2,342.10000038147,0.3333333333333333,2,object_08,1,1937,0,6,3,restaurant_8,2,memory-2step-stake-s,617,2127511,0.0-19.0-0.0-0.123,A10T0161B70BXP,3SNR5F7RA597AOC2DOU98SGLOEGIEB,3ZV9H2YQQHNPN4E43NMUFCHJ6EDW3V,7,8
124,4,object_01,object_06,669.70000076294,8,1,278.69999885559,0.3333333333333333,2,object_08,1,1940,0,5,3,restaurant_7,2,memory-2step-stake-s,618,2135336,0.0-19.0-0.0-0.124,A10T0161B70BXP,3SNR5F7RA597AOC2DOU98SGLOEGIEB,3ZV9H2YQQHNPN4E43NMUFCHJ6EDW3V,8,7
125,3,object_09,object_02,672.60000038147,6,1,409.10000038147,0.6666666666666666,2,object_08,1,1946,0,5,6,library_8,2,memory-2step-stake-s,619,2143571,0.0-19.0-0.0-0.125,A10T0161B70BXP,3SNR5F7RA597AOC2DOU98SGLOEGIEB,3ZV9H2YQQHNPN4E43NMUFCHJ6EDW3V,6,5
126,4,object_06,object_01,563.20000076294,8,2,1067.5,0.8888888888888888,2,object_08,1,1954,0,4,8,restaurant_7,2,memory-2step-stake-s,620,2152673,0.0-19.0-0.0-0.126,A10T0161B70BXP,3SNR5F7RA597AOC2DOU98SGLOEGIEB,3ZV9H2YQQHNPN4E43NMUFCHJ6EDW3V,7,8
127,2,object_07,object_05,306.39999961853,4,2,332.5,0.8888888888888888,2,object_08,5,1994,0,6,8,forest_3,2,memory-2step-stake-s,621,2161041,0.0-19.0-0.0-0.127,A10T0161B70BXP,3SNR5F7RA597AOC2DOU98SGLOEGIEB,3ZV9H2YQQHNPN4E43NMUFCHJ6EDW3V,3,4
128,3,object_09,object_02,766.19999885559,6,1,524.70000076294,1.0,2,object_08,1,2003,0,5,9,library_1,2,memory-2step-stake-s,623,2174322,0.0-19.0-0.1-0.128,A10T0161B70BXP,3SNR5F7RA597AOC2DOU98SGLOEGIEB,3ZV9H2YQQHNPN4E43NMUFCHJ6EDW3V,6,5
129,3,object_09,object_02,487.39999961853,5,2,448.5,0.1111111111111111,1,object_04,1,2004,0,1,6,library_1,2,memory-2step-stake-s,624,2182093,0.0-19.0-0.1-0.129,A10T0161B70BXP,3SNR5F7RA597AOC2DOU98SGLOEGIEB,3ZV9H2YQQHNPN4E43NMUFCHJ6EDW3V,6,5
130,4,object_01,object_06,685.29999923706,8,1,113.5,0.5555555555555556,2,object_08,1,2009,0,1,5,restaurant_6,2,memory-2step-stake-s,625,2189941,0.0-19.0-0.1-0.130,A10T0161B70BXP,3SNR5F7RA597AOC2DOU98SGLOEGIEB,3ZV9H2YQQHNPN4E43NMUFCHJ6EDW3V,8,7
131,3,object_02,object_09,393.5,6,2,542.60000038147,0.5555555555555556,2,object_08,1,2014,0,0,5,library_3,2,memory-2step-stake-s,626,2198233,0.0-19.0-0.1-0.131,A10T0161B70BXP,3SNR5F7RA597AOC2DOU98SGLOEGIEB,3ZV9H2YQQHNPN4E43NMUFCHJ6EDW3V,5,6
132,2,object_07,object_05,666.80000114441,4,2,770.90000152588,0.6666666666666666,2,object_08,5,2044,0,1,6,forest_6,2,memory-2step-stake-s,627,2206864,0.0-19.0-0.1-0.132,A10T0161B70BXP,3SNR5F7RA597AOC2DOU98SGLOEGIEB,3ZV9H2YQQHNPN4E43NMUFCHJ6EDW3V,3,4
133,3,object_02,object_09,648.80000114441,5,1,242.30000114441,0.2222222222222222,1,object_04,5,2054,0,2,7,library_3,2,memory-2step-stake-s,628,2214529,0.0-19.0-0.1-0.133,A10T0161B70BXP,3SNR5F7RA597AOC2DOU98SGLOEGIEB,3ZV9H2YQQHNPN4E43NMUFCHJ6EDW3V,5,6
134,3,object_02,object_09,128.79999923706,6,2,114.30000114441,0.7777777777777778,2,object_08,5,2089,0,3,7,library_8,2,memory-2step-stake-s,629,2222586,0.0-19.0-0.1-0.134,A10T0161B70BXP,3SNR5F7RA597AOC2DOU98SGLOEGIEB,3ZV9H2YQQHNPN4E43NMUFCHJ6EDW3V,5,6
135,1,object_10,object_03,408.29999923706,1,2,757.59999847412,0.1111111111111111,1,object_04,5,2094,0,1,9,desert_5,2,memory-2step-stake-s,630,2230901,0.0-19.0-0.1-0.135,A10T0161B70BXP,3SNR5F7RA597AOC2DOU98SGLOEGIEB,3ZV9H2YQQHNPN4E43NMUFCHJ6EDW3V,2,1
136,2,object_05,object_07,678.60000038147,4,1,602.19999885559,0.6666666666666666,2,object_08,5,2124,0,1,6,forest_5,2,memory-2step-stake-s,631,2239340,0.0-19.0-0.1-0.136,A10T0161B70BXP,3SNR5F7RA597AOC2DOU98SGLOEGIEB,3ZV9H2YQQHNPN4E43NMUFCHJ6EDW3V,4,3
137,2,object_05,object_07,850.5,4,1,27.0,0.8888888888888888,2,object_08,5,2164,0,2,8,forest_5,2,memory-2step-stake-s,632,2247427,0.0-19.0-0.1-0.137,A10T0161B70BXP,3SNR5F7RA597AOC2DOU98SGLOEGIEB,3ZV9H2YQQHNPN4E43NMUFCHJ6EDW3V,4,3
138,1,object_03,object_10,446.0,2,2,118.10000038147,0.6666666666666666,2,object_08,5,2194,0,0,6,desert_3,2,memory-2step-stake-s,633,2255394,0.0-19.0-0.1-0.138,A10T0161B70BXP,3SNR5F7RA597AOC2DOU98SGLOEGIEB,3ZV9H2YQQHNPN4E43NMUFCHJ6EDW3V,1,2
139,1,object_03,object_10,379.90000152588,1,1,275.10000038147,0.2222222222222222,1,object_04,5,2204,0,2,3,desert_6,2,memory-2step-stake-s,634,2263145,0.0-19.0-0.1-0.139,A10T0161B70BXP,3SNR5F7RA597AOC2DOU98SGLOEGIEB,3ZV9H2YQQHNPN4E43NMUFCHJ6EDW3V,1,2
140,4,object_06,object_01,755.60000038147,8,2,153.89999961853,0.5555555555555556,2,object_08,5,2229,0,3,5,restaurant_3,2,memory-2step-stake-s,635,2271078,0.0-19.0-0.1-0.140,A10T0161B70BXP,3SNR5F7RA597AOC2DOU98SGLOEGIEB,3ZV9H2YQQHNPN4E43NMUFCHJ6EDW3V,7,8
141,1,object_03,object_10,727.70000076294,1,1,240.29999923706,0.2222222222222222,1,object_04,1,2231,0,2,3,desert_3,2,memory-2step-stake-s,636,2278742,0.0-19.0-0.1-0.141,A10T0161B70BXP,3SNR5F7RA597AOC2DOU98SGLOEGIEB,3ZV9H2YQQHNPN4E43NMUFCHJ6EDW3V,1,2
142,4,object_06,object_01,677.60000038147,8,2,173.20000076294,0.6666666666666666,2,object_08,5,2261,0,3,6,restaurant_3,2,memory-2step-stake-s,637,2286748,0.0-19.0-0.1-0.142,A10T0161B70BXP,3SNR5F7RA597AOC2DOU98SGLOEGIEB,3ZV9H2YQQHNPN4E43NMUFCHJ6EDW3V,7,8
143,3,object_02,object_09,927.10000038147,5,1,135.90000152588,0.5555555555555556,1,object_04,1,2266,0,5,6,library_1,2,memory-2step-stake-s,638,2294850,0.0-19.0-0.1-0.143,A10T0161B70BXP,3SNR5F7RA597AOC2DOU98SGLOEGIEB,3ZV9H2YQQHNPN4E43NMUFCHJ6EDW3V,5,6
144,3,object_09,object_02,757.69999885559,5,2,72.5,0.5555555555555556,1,object_04,1,2271,0,5,9,library_1,2,memory-2step-stake-s,639,2302681,0.0-19.0-0.1-0.144,A10T0161B70BXP,3SNR5F7RA597AOC2DOU98SGLOEGIEB,3ZV9H2YQQHNPN4E43NMUFCHJ6EDW3V,6,5
145,2,object_05,object_07,631.0,4,1,0.19999885559082,0.6666666666666666,2,object_08,1,2277,0,8,6,forest_8,2,memory-2step-stake-s,640,2310517,0.0-19.0-0.1-0.145,A10T0161B70BXP,3SNR5F7RA597AOC2DOU98SGLOEGIEB,3ZV9H2YQQHNPN4E43NMUFCHJ6EDW3V,4,3
146,4,object_01,object_06,600.80000114441,7,2,192.5,0.7777777777777778,1,object_04,1,2284,0,7,5,restaurant_8,2,memory-2step-stake-s,641,2318665,0.0-19.0-0.1-0.146,A10T0161B70BXP,3SNR5F7RA597AOC2DOU98SGLOEGIEB,3ZV9H2YQQHNPN4E43NMUFCHJ6EDW3V,8,7
147,1,object_03,object_10,-1.0,-1,-1,-1.0,0.0,-,0,5,2284,0,4,4,desert_1,2,memory-2step-stake-s,642,2325180,0.0-19.0-0.1-0.147,A10T0161B70BXP,3SNR5F7RA597AOC2DOU98SGLOEGIEB,3ZV9H2YQQHNPN4E43NMUFCHJ6EDW3V,1,2
148,4,object_06,object_01,581.89999961853,8,2,522.90000152588,0.8888888888888888,2,object_08,5,2324,0,4,8,restaurant_7,2,memory-2step-stake-s,643,2333760,0.0-19.0-0.1-0.148,A10T0161B70BXP,3SNR5F7RA597AOC2DOU98SGLOEGIEB,3ZV9H2YQQHNPN4E43NMUFCHJ6EDW3V,7,8
149,4,object_06,object_01,811.30000114441,7,1,21.39999961853,0.6666666666666666,1,object_04,5,2354,0,6,5,restaurant_6,2,memory-2step-stake-s,644,2341618,0.0-19.0-0.1-0.149,A10T0161B70BXP,3SNR5F7RA597AOC2DOU98SGLOEGIEB,3ZV9H2YQQHNPN4E43NMUFCHJ6EDW3V,7,8
150,4,object_01,object_06,358.89999961853,7,2,703.69999885559,0.8888888888888888,1,object_04,1,2362,0,8,2,restaurant_7,2,memory-2step-stake-s,645,2350395,0.0-19.0-0.1-0.150,A10T0161B70BXP,3SNR5F7RA597AOC2DOU98SGLOEGIEB,3ZV9H2YQQHNPN4E43NMUFCHJ6EDW3V,8,7
151,4,object_06,object_01,782.39999961853,7,1,44.10000038147,0.5555555555555556,1,object_04,1,2367,0,5,2,restaurant_8,2,memory-2step-stake-s,646,2358437,0.0-19.0-0.1-0.151,A10T0161B70BXP,3SNR5F7RA597AOC2DOU98SGLOEGIEB,3ZV9H2YQQHNPN4E43NMUFCHJ6EDW3V,7,8
152,1,object_03,object_10,499.0,2,2,289.60000038147,0.1111111111111111,2,object_08,5,2372,0,3,1,desert_1,2,memory-2step-stake-s,647,2366051,0.0-19.0-0.1-0.152,A10T0161B70BXP,3SNR5F7RA597AOC2DOU98SGLOEGIEB,3ZV9H2YQQHNPN4E43NMUFCHJ6EDW3V,1,2
153,4,object_01,object_06,723.60000038147,7,2,107.39999961853,0.7777777777777778,1,object_04,5,2407,0,7,1,restaurant_7,2,memory-2step-stake-s,648,2374098,0.0-19.0-0.1-0.153,A10T0161B70BXP,3SNR5F7RA597AOC2DOU98SGLOEGIEB,3ZV9H2YQQHNPN4E43NMUFCHJ6EDW3V,8,7
154,3,object_02,object_09,260.79999923706,5,1,0.19999885559082,0.5555555555555556,1,object_04,1,2412,0,5,1,library_1,2,memory-2step-stake-s,649,2381831,0.0-19.0-0.1-0.154,A10T0161B70BXP,3SNR5F7RA597AOC2DOU98SGLOEGIEB,3ZV9H2YQQHNPN4E43NMUFCHJ6EDW3V,5,6
155,3,object_09,object_02,575.90000152588,5,2,7.2000007629395,0.3333333333333333,1,object_04,1,2415,0,3,1,library_8,2,memory-2step-stake-s,650,2389368,0.0-19.0-0.1-0.155,A10T0161B70BXP,3SNR5F7RA597AOC2DOU98SGLOEGIEB,3ZV9H2YQQHNPN4E43NMUFCHJ6EDW3V,6,5
156,1,object_03,object_10,782.5,2,2,230.80000114441,0.2222222222222222,2,object_08,5,2425,0,3,2,desert_5,2,memory-2step-stake-s,651,2397025,0.0-19.0-0.1-0.156,A10T0161B70BXP,3SNR5F7RA597AOC2DOU98SGLOEGIEB,3ZV9H2YQQHNPN4E43NMUFCHJ6EDW3V,1,2
157,4,object_06,object_01,821.29999923706,8,2,125.70000076294,0.3333333333333333,2,object_08,1,2428,0,1,3,restaurant_3,2,memory-2step-stake-s,652,2404677,0.0-19.0-0.1-0.157,A10T0161B70BXP,3SNR5F7RA597AOC2DOU98SGLOEGIEB,3ZV9H2YQQHNPN4E43NMUFCHJ6EDW3V,7,8
158,1,object_03,object_10,27.300001144409,2,2,71.89999961853,0.4444444444444444,2,object_08,5,2448,0,0,4,desert_3,2,memory-2step-stake-s,653,2412465,0.0-19.0-0.1-0.158,A10T0161B70BXP,3SNR5F7RA597AOC2DOU98SGLOEGIEB,3ZV9H2YQQHNPN4E43NMUFCHJ6EDW3V,1,2
159,4,object_01,object_06,28.60000038147,7,2,62.0,0.1111111111111111,1,object_04,1,2449,0,1,1,restaurant_3,2,memory-2step-stake-s,654,2419851,0.0-19.0-0.1-0.159,A10T0161B70BXP,3SNR5F7RA597AOC2DOU98SGLOEGIEB,3ZV9H2YQQHNPN4E43NMUFCHJ6EDW3V,8,7
160,2,object_07,object_05,40.299999237061,4,2,195.79999923706,0.2222222222222222,2,object_08,1,2451,0,1,2,forest_3,2,memory-2step-stake-s,655,2427522,0.0-19.0-0.1-0.160,A10T0161B70BXP,3SNR5F7RA597AOC2DOU98SGLOEGIEB,3ZV9H2YQQHNPN4E43NMUFCHJ6EDW3V,3,4
161,4,object_01,object_06,65.700000762939,7,2,11.5,0.1111111111111111,1,object_04,1,2452,0,1,2,restaurant_6,2,memory-2step-stake-s,656,2434860,0.0-19.0-0.1-0.161,A10T0161B70BXP,3SNR5F7RA597AOC2DOU98SGLOEGIEB,3ZV9H2YQQHNPN4E43NMUFCHJ6EDW3V,8,7
162,3,object_02,object_09,76.0,5,1,55.700000762939,0.2222222222222222,1,object_04,1,2454,0,2,2,library_3,2,memory-2step-stake-s,657,2442367,0.0-19.0-0.1-0.162,A10T0161B70BXP,3SNR5F7RA597AOC2DOU98SGLOEGIEB,3ZV9H2YQQHNPN4E43NMUFCHJ6EDW3V,5,6
163,4,object_01,object_06,164.39999961853,7,2,125.5,0.6666666666666666,1,object_04,1,2460,0,6,5,restaurant_7,2,memory-2step-stake-s,658,2450336,0.0-19.0-0.1-0.163,A10T0161B70BXP,3SNR5F7RA597AOC2DOU98SGLOEGIEB,3ZV9H2YQQHNPN4E43NMUFCHJ6EDW3V,8,7
164,4,object_06,object_01,18.5,8,2,73.799999237061,0.5555555555555556,2,object_08,1,2465,0,5,5,restaurant_3,2,memory-2step-stake-s,659,2458147,0.0-19.0-0.1-0.164,A10T0161B70BXP,3SNR5F7RA597AOC2DOU98SGLOEGIEB,3ZV9H2YQQHNPN4E43NMUFCHJ6EDW3V,7,8
165,3,object_02,object_09,64.5,6,2,116.39999961853,0.8888888888888888,2,object_08,1,2473,0,2,8,library_6,2,memory-2step-stake-s,660,2466313,0.0-19.0-0.1-0.165,A10T0161B70BXP,3SNR5F7RA597AOC2DOU98SGLOEGIEB,3ZV9H2YQQHNPN4E43NMUFCHJ6EDW3V,5,6
166,4,object_06,object_01,121.89999961853,7,1,99.800001144409,0.4444444444444444,1,object_04,1,2477,0,4,7,restaurant_8,2,memory-2step-stake-s,661,2474188,0.0-19.0-0.1-0.166,A10T0161B70BXP,3SNR5F7RA597AOC2DOU98SGLOEGIEB,3ZV9H2YQQHNPN4E43NMUFCHJ6EDW3V,7,8
167,4,object_01,object_06,27.39999961853,7,2,28.0,0.1111111111111111,1,object_04,1,2478,0,1,8,restaurant_8,2,memory-2step-stake-s,662,2481545,0.0-19.0-0.1-0.167,A10T0161B70BXP,3SNR5F7RA597AOC2DOU98SGLOEGIEB,3ZV9H2YQQHNPN4E43NMUFCHJ6EDW3V,8,7
168,1,object_03,object_10,41.10000038147,2,2,282.39999961853,0.8888888888888888,2,object_08,5,2518,0,2,8,desert_1,2,memory-2step-stake-s,663,2489887,0.0-19.0-0.1-0.168,A10T0161B70BXP,3SNR5F7RA597AOC2DOU98SGLOEGIEB,3ZV9H2YQQHNPN4E43NMUFCHJ6EDW3V,1,2
169,2,object_05,object_07,49.60000038147,3,2,482.69999885559,0.1111111111111111,1,object_04,5,2523,0,1,7,forest_6,2,memory-2step-stake-s,664,2497734,0.0-19.0-0.1-0.169,A10T0161B70BXP,3SNR5F7RA597AOC2DOU98SGLOEGIEB,3ZV9H2YQQHNPN4E43NMUFCHJ6EDW3V,4,3
170,2,object_07,object_05,74.699998855591,4,2,79.0,0.5555555555555556,2,object_08,1,2528,0,1,5,forest_6,2,memory-2step-stake-s,665,2505575,0.0-19.0-0.1-0.170,A10T0161B70BXP,3SNR5F7RA597AOC2DOU98SGLOEGIEB,3ZV9H2YQQHNPN4E43NMUFCHJ6EDW3V,3,4
171,2,object_05,object_07,-1.0,-1,-1,-1.0,0.0,-,0,5,2528,0,2,5,forest_5,2,memory-2step-stake-s,666,2512145,0.0-19.0-0.1-0.171,A10T0161B70BXP,3SNR5F7RA597AOC2DOU98SGLOEGIEB,3ZV9H2YQQHNPN4E43NMUFCHJ6EDW3V,4,3
172,4,object_06,object_01,335.80000114441,7,1,130.69999885559,0.2222222222222222,1,object_04,1,2530,0,2,7,restaurant_7,2,memory-2step-stake-s,667,2519708,0.0-19.0-0.1-0.172,A10T0161B70BXP,3SNR5F7RA597AOC2DOU98SGLOEGIEB,3ZV9H2YQQHNPN4E43NMUFCHJ6EDW3V,7,8
173,2,object_05,object_07,63.60000038147,3,2,55.700000762939,0.2222222222222222,1,object_04,1,2532,0,2,8,forest_8,2,memory-2step-stake-s,668,2527222,0.0-19.0-0.1-0.173,A10T0161B70BXP,3SNR5F7RA597AOC2DOU98SGLOEGIEB,3ZV9H2YQQHNPN4E43NMUFCHJ6EDW3V,4,3
174,1,object_03,object_10,409.30000114441,1,1,393.60000038147,0.4444444444444444,1,object_04,5,2552,0,4,5,desert_5,2,memory-2step-stake-s,669,2535338,0.0-19.0-0.1-0.174,A10T0161B70BXP,3SNR5F7RA597AOC2DOU98SGLOEGIEB,3ZV9H2YQQHNPN4E43NMUFCHJ6EDW3V,1,2
175,4,object_06,object_01,1302.1000003815,8,2,365.80000114441,0.4444444444444444,2,object_08,1,2556,0,3,4,restaurant_6,2,memory-2step-stake-s,670,2543369,0.0-19.0-0.1-0.175,A10T0161B70BXP,3SNR5F7RA597AOC2DOU98SGLOEGIEB,3ZV9H2YQQHNPN4E43NMUFCHJ6EDW3V,7,8
176,4,object_01,object_06,1190.2999992371,8,1,61.89999961853,0.5555555555555556,2,object_08,1,2561,0,4,5,restaurant_6,2,memory-2step-stake-s,671,2551197,0.0-19.0-0.1-0.176,A10T0161B70BXP,3SNR5F7RA597AOC2DOU98SGLOEGIEB,3ZV9H2YQQHNPN4E43NMUFCHJ6EDW3V,8,7
177,2,object_05,object_07,183.29999923706,4,1,44.39999961853,0.6666666666666666,2,object_08,5,2591,0,3,6,forest_3,2,memory-2step-stake-s,672,2559113,0.0-19.0-0.1-0.177,A10T0161B70BXP,3SNR5F7RA597AOC2DOU98SGLOEGIEB,3ZV9H2YQQHNPN4E43NMUFCHJ6EDW3V,4,3
178,1,object_03,object_10,179.70000076294,1,1,119.69999885559,0.4444444444444444,1,object_04,5,2611,0,4,7,desert_6,2,memory-2step-stake-s,673,2566900,0.0-19.0-0.1-0.178,A10T0161B70BXP,3SNR5F7RA597AOC2DOU98SGLOEGIEB,3ZV9H2YQQHNPN4E43NMUFCHJ6EDW3V,1,2
179,4,object_06,object_01,-1.0,-1,-1,-1.0,0.0,-,0,5,2611,0,4,9,restaurant_6,2,memory-2step-stake-s,674,2573430,0.0-19.0-0.1-0.179,A10T0161B70BXP,3SNR5F7RA597AOC2DOU98SGLOEGIEB,3ZV9H2YQQHNPN4E43NMUFCHJ6EDW3V,7,8
180,3,object_09,object_02,562.29999923706,5,2,11.0,0.3333333333333333,1,object_04,1,2614,0,3,8,library_8,2,memory-2step-stake-s,675,2580998,0.0-19.0-0.1-0.180,A10T0161B70BXP,3SNR5F7RA597AOC2DOU98SGLOEGIEB,3ZV9H2YQQHNPN4E43NMUFCHJ6EDW3V,6,5
181,2,object_07,object_05,344.10000038147,3,1,271.39999961853,0.5555555555555556,1,object_04,1,2619,0,5,9,forest_6,2,memory-2step-stake-s,676,2589011,0.0-19.0-0.1-0.181,A10T0161B70BXP,3SNR5F7RA597AOC2DOU98SGLOEGIEB,3ZV9H2YQQHNPN4E43NMUFCHJ6EDW3V,3,4
182,1,object_10,object_03,127.80000114441,2,1,110.70000076294,0.8888888888888888,2,object_08,1,2627,0,6,8,desert_1,2,memory-2step-stake-s,677,2597367,0.0-19.0-0.1-0.182,A10T0161B70BXP,3SNR5F7RA597AOC2DOU98SGLOEGIEB,3ZV9H2YQQHNPN4E43NMUFCHJ6EDW3V,2,1
183,4,object_06,object_01,280.5,8,2,126.5,0.8888888888888888,2,object_08,1,2635,0,6,8,restaurant_3,2,memory-2step-stake-s,678,2605537,0.0-19.0-0.1-0.183,A10T0161B70BXP,3SNR5F7RA597AOC2DOU98SGLOEGIEB,3ZV9H2YQQHNPN4E43NMUFCHJ6EDW3V,7,8
184,2,object_05,object_07,348.60000038147,4,1,99.5,0.7777777777777778,2,object_08,5,2670,0,7,7,forest_8,2,memory-2step-stake-s,679,2613579,0.0-19.0-0.1-0.184,A10T0161B70BXP,3SNR5F7RA597AOC2DOU98SGLOEGIEB,3ZV9H2YQQHNPN4E43NMUFCHJ6EDW3V,4,3
185,1,object_03,object_10,1040.9000015259,2,2,181.70000076294,0.7777777777777778,2,object_08,5,2705,0,6,7,desert_5,2,memory-2step-stake-s,680,2621706,0.0-19.0-0.1-0.185,A10T0161B70BXP,3SNR5F7RA597AOC2DOU98SGLOEGIEB,3ZV9H2YQQHNPN4E43NMUFCHJ6EDW3V,1,2
186,3,object_02,object_09,723.39999961853,5,1,73.5,0.2222222222222222,1,object_04,1,2707,0,2,6,library_1,2,memory-2step-stake-s,681,2629211,0.0-19.0-0.1-0.186,A10T0161B70BXP,3SNR5F7RA597AOC2DOU98SGLOEGIEB,3ZV9H2YQQHNPN4E43NMUFCHJ6EDW3V,5,6
187,3,object_09,object_02,513.79999923706,6,1,200.0,0.6666666666666666,2,object_08,1,2713,0,2,6,library_1,2,memory-2step-stake-s,682,2637263,0.0-19.0-0.1-0.187,A10T0161B70BXP,3SNR5F7RA597AOC2DOU98SGLOEGIEB,3ZV9H2YQQHNPN4E43NMUFCHJ6EDW3V,6,5
188,2,object_07,object_05,-1.0,-1,-1,-1.0,0.0,-,0,5,2713,0,4,3,forest_8,2,memory-2step-stake-s,683,2643796,0.0-19.0-0.1-0.188,A10T0161B70BXP,3SNR5F7RA597AOC2DOU98SGLOEGIEB,3ZV9H2YQQHNPN4E43NMUFCHJ6EDW3V,3,4
189,1,object_10,object_03,71.700000762939,1,2,197.60000038147,0.3333333333333333,1,object_04,1,2716,0,3,1,desert_6,2,memory-2step-stake-s,684,2651552,0.0-19.0-0.1-0.189,A10T0161B70BXP,3SNR5F7RA597AOC2DOU98SGLOEGIEB,3ZV9H2YQQHNPN4E43NMUFCHJ6EDW3V,2,1
190,4,object_06,object_01,491.0,7,1,99.300001144409,0.7777777777777778,1,object_04,1,2723,0,7,2,restaurant_7,2,memory-2step-stake-s,685,2659679,0.0-19.0-0.1-0.190,A10T0161B70BXP,3SNR5F7RA597AOC2DOU98SGLOEGIEB,3ZV9H2YQQHNPN4E43NMUFCHJ6EDW3V,7,8
191,4,object_01,object_06,461.5,7,2,67.39999961853,0.5555555555555556,1,object_04,1,2728,0,5,4,restaurant_6,2,memory-2step-stake-s,686,2667516,0.0-19.0-0.1-0.191,A10T0161B70BXP,3SNR5F7RA597AOC2DOU98SGLOEGIEB,3ZV9H2YQQHNPN4E43NMUFCHJ6EDW3V,8,7
192,1,object_10,object_03,572.89999961853,2,1,129.79999923706,0.1111111111111111,2,object_08,5,2733,0,1,1,desert_3,2,memory-2step-stake-s,687,2674984,0.0-19.0-0.1-0.192,A10T0161B70BXP,3SNR5F7RA597AOC2DOU98SGLOEGIEB,3ZV9H2YQQHNPN4E43NMUFCHJ6EDW3V,2,1
193,1,object_10,object_03,449.79999923706,2,1,359.0,0.1111111111111111,2,object_08,5,2738,0,0,1,desert_6,2,memory-2step-stake-s,688,2682673,0.0-19.0-0.1-0.193,A10T0161B70BXP,3SNR5F7RA597AOC2DOU98SGLOEGIEB,3ZV9H2YQQHNPN4E43NMUFCHJ6EDW3V,2,1
194,2,object_05,object_07,216.89999961853,4,1,301.90000152588,0.1111111111111111,2,object_08,5,2743,0,2,1,forest_5,2,memory-2step-stake-s,689,2690331,0.0-19.0-0.1-0.194,A10T0161B70BXP,3SNR5F7RA597AOC2DOU98SGLOEGIEB,3ZV9H2YQQHNPN4E43NMUFCHJ6EDW3V,4,3
195,2,object_07,object_05,285.79999923706,4,2,131.5,0.5555555555555556,2,object_08,5,2768,0,0,5,forest_3,2,memory-2step-stake-s,690,2698203,0.0-19.0-0.1-0.195,A10T0161B70BXP,3SNR5F7RA597AOC2DOU98SGLOEGIEB,3ZV9H2YQQHNPN4E43NMUFCHJ6EDW3V,3,4
196,4,object_06,object_01,331.69999885559,7,1,290.29999923706,0.4444444444444444,1,object_04,1,2772,0,4,6,restaurant_6,2,memory-2step-stake-s,691,2706131,0.0-19.0-0.1-0.196,A10T0161B70BXP,3SNR5F7RA597AOC2DOU98SGLOEGIEB,3ZV9H2YQQHNPN4E43NMUFCHJ6EDW3V,7,8
197,4,object_06,object_01,209.19999885559,8,2,167.19999885559,0.8888888888888888,2,object_08,5,2812,0,2,8,restaurant_3,2,memory-2step-stake-s,692,2714346,0.0-19.0-0.1-0.197,A10T0161B70BXP,3SNR5F7RA597AOC2DOU98SGLOEGIEB,3ZV9H2YQQHNPN4E43NMUFCHJ6EDW3V,7,8
198,1,object_03,object_10,572.10000038147,2,2,34.5,0.8888888888888888,2,object_08,5,2852,0,3,8,desert_5,2,memory-2step-stake-s,693,2722479,0.0-19.0-0.1-0.198,A10T0161B70BXP,3SNR5F7RA597AOC2DOU98SGLOEGIEB,3ZV9H2YQQHNPN4E43NMUFCHJ6EDW3V,1,2
199,2,object_07,object_05,753.5,3,1,216.0,0.0,1,object_04,5,2852,0,0,6,forest_5,2,memory-2step-stake-s,694,2729941,0.0-19.0-0.1-0.199,A10T0161B70BXP,3SNR5F7RA597AOC2DOU98SGLOEGIEB,3ZV9H2YQQHNPN4E43NMUFCHJ6EDW3V,3,4
200,3,object_02,object_09,634.10000038147,6,2,72.299999237061,0.7777777777777778,2,object_08,1,2859,0,2,7,library_3,2,memory-2step-stake-s,695,2737970,0.0-19.0-0.1-0.200,A10T0161B70BXP,3SNR5F7RA597AOC2DOU98SGLOEGIEB,3ZV9H2YQQHNPN4E43NMUFCHJ6EDW3V,5,6
201,2,object_05,object_07,672.5,4,1,598.5,0.7777777777777778,2,object_08,5,2894,0,4,7,forest_3,2,memory-2step-stake-s,696,2746566,0.0-19.0-0.1-0.201,A10T0161B70BXP,3SNR5F7RA597AOC2DOU98SGLOEGIEB,3ZV9H2YQQHNPN4E43NMUFCHJ6EDW3V,4,3
202,3,object_02,object_09,184.80000114441,6,2,191.89999961853,0.4444444444444444,2,object_08,1,2898,0,5,4,library_8,2,memory-2step-stake-s,697,2754428,0.0-19.0-0.1-0.202,A10T0161B70BXP,3SNR5F7RA597AOC2DOU98SGLOEGIEB,3ZV9H2YQQHNPN4E43NMUFCHJ6EDW3V,5,6
203,3,object_09,object_02,79.299999237061,5,2,69.5,0.3333333333333333,1,object_04,1,2901,0,3,7,library_6,2,memory-2step-stake-s,698,2762038,0.0-19.0-0.1-0.203,A10T0161B70BXP,3SNR5F7RA597AOC2DOU98SGLOEGIEB,3ZV9H2YQQHNPN4E43NMUFCHJ6EDW3V,6,5
204,3,object_02,object_09,584.10000038147,5,1,366.79999923706,0.2222222222222222,1,object_04,1,2903,0,2,3,library_3,2,memory-2step-stake-s,699,2769867,0.0-19.0-0.1-0.204,A10T0161B70BXP,3SNR5F7RA597AOC2DOU98SGLOEGIEB,3ZV9H2YQQHNPN4E43NMUFCHJ6EDW3V,5,6
205,3,object_09,object_02,353.79999923706,5,2,66.400001525879,0.1111111111111111,1,object_04,1,2904,0,1,4,library_3,2,memory-2step-stake-s,700,2777308,0.0-19.0-0.1-0.205,A10T0161B70BXP,3SNR5F7RA597AOC2DOU98SGLOEGIEB,3ZV9H2YQQHNPN4E43NMUFCHJ6EDW3V,6,5
206,2,object_07,object_05,136.59999847412,3,1,30.299999237061,0.5555555555555556,1,object_04,5,2929,0,5,1,forest_8,2,memory-2step-stake-s,701,2785085,0.0-19.0-0.1-0.206,A10T0161B70BXP,3SNR5F7RA597AOC2DOU98SGLOEGIEB,3ZV9H2YQQHNPN4E43NMUFCHJ6EDW3V,3,4
207,3,object_09,object_02,200.20000076294,5,2,381.79999923706,0.6666666666666666,1,object_04,5,2959,0,6,2,library_6,2,memory-2step-stake-s,702,2793326,0.0-19.0-0.1-0.207,A10T0161B70BXP,3SNR5F7RA597AOC2DOU98SGLOEGIEB,3ZV9H2YQQHNPN4E43NMUFCHJ6EDW3V,6,5
208,4,object_06,object_01,19.700000762939,8,2,219.0,0.1111111111111111,2,object_08,1,2960,0,8,1,restaurant_8,2,memory-2step-stake-s,703,2800910,0.0-19.0-0.1-0.208,A10T0161B70BXP,3SNR5F7RA597AOC2DOU98SGLOEGIEB,3ZV9H2YQQHNPN4E43NMUFCHJ6EDW3V,7,8
209,2,object_05,object_07,257.5,4,1,91.10000038147,0.0,2,object_08,5,2960,0,8,0,forest_8,2,memory-2step-stake-s,704,2808253,0.0-19.0-0.1-0.209,A10T0161B70BXP,3SNR5F7RA597AOC2DOU98SGLOEGIEB,3ZV9H2YQQHNPN4E43NMUFCHJ6EDW3V,4,3
210,1,object_03,object_10,270.10000038147,2,2,100.5,0.2222222222222222,2,object_08,1,2962,0,7,2,desert_1,2,memory-2step-stake-s,705,2815949,0.0-19.0-0.1-0.210,A10T0161B70BXP,3SNR5F7RA597AOC2DOU98SGLOEGIEB,3ZV9H2YQQHNPN4E43NMUFCHJ6EDW3V,1,2
211,3,object_09,object_02,141.29999923706,6,1,36.299999237061,0.1111111111111111,2,object_08,1,2963,0,3,1,library_8,2,memory-2step-stake-s,706,2823401,0.0-19.0-0.1-0.211,A10T0161B70BXP,3SNR5F7RA597AOC2DOU98SGLOEGIEB,3ZV9H2YQQHNPN4E43NMUFCHJ6EDW3V,6,5
212,4,object_01,object_06,168.39999961853,7,2,41.0,0.2222222222222222,1,object_04,1,2965,0,2,5,restaurant_8,2,memory-2step-stake-s,707,2830902,0.0-19.0-0.1-0.212,A10T0161B70BXP,3SNR5F7RA597AOC2DOU98SGLOEGIEB,3ZV9H2YQQHNPN4E43NMUFCHJ6EDW3V,8,7
213,4,object_01,object_06,157.79999923706,8,1,114.70000076294,0.6666666666666666,2,object_08,5,2995,0,3,6,restaurant_3,2,memory-2step-stake-s,708,2838921,0.0-19.0-0.1-0.213,A10T0161B70BXP,3SNR5F7RA597AOC2DOU98SGLOEGIEB,3ZV9H2YQQHNPN4E43NMUFCHJ6EDW3V,8,7
214,1,object_03,object_10,38.60000038147,2,2,203.70000076294,0.4444444444444444,2,object_08,5,3015,0,6,4,desert_1,2,memory-2step-stake-s,709,2847484,0.0-19.0-0.1-0.214,A10T0161B70BXP,3SNR5F7RA597AOC2DOU98SGLOEGIEB,3ZV9H2YQQHNPN4E43NMUFCHJ6EDW3V,1,2
215,2,object_07,object_05,1012.1000003815,4,2,277.89999961853,0.6666666666666666,2,object_08,5,3045,0,7,6,forest_8,2,memory-2step-stake-s,710,2857104,0.0-19.0-0.1-0.215,A10T0161B70BXP,3SNR5F7RA597AOC2DOU98SGLOEGIEB,3ZV9H2YQQHNPN4E43NMUFCHJ6EDW3V,3,4
216,3,object_09,object_02,398.0,5,2,103.0,0.8888888888888888,1,object_04,1,3053,0,8,4,library_1,2,memory-2step-stake-s,711,2865277,0.0-19.0-0.1-0.216,A10T0161B70BXP,3SNR5F7RA597AOC2DOU98SGLOEGIEB,3ZV9H2YQQHNPN4E43NMUFCHJ6EDW3V,6,5
217,1,object_03,object_10,223.69999885559,1,1,68.5,0.6666666666666666,1,object_04,5,3083,0,6,1,desert_5,2,memory-2step-stake-s,712,2873191,0.0-19.0-0.1-0.217,A10T0161B70BXP,3SNR5F7RA597AOC2DOU98SGLOEGIEB,3ZV9H2YQQHNPN4E43NMUFCHJ6EDW3V,1,2
218,4,object_06,object_01,101.5,8,2,71.799999237061,0.2222222222222222,2,object_08,5,3093,0,6,2,restaurant_7,2,memory-2step-stake-s,713,2880700,0.0-19.0-0.1-0.218,A10T0161B70BXP,3SNR5F7RA597AOC2DOU98SGLOEGIEB,3ZV9H2YQQHNPN4E43NMUFCHJ6EDW3V,7,8
219,4,object_01,object_06,63.60000038147,8,1,94.0,0.2222222222222222,2,object_08,1,3095,0,6,2,restaurant_8,2,memory-2step-stake-s,714,2888242,0.0-19.0-0.1-0.219,A10T0161B70BXP,3SNR5F7RA597AOC2DOU98SGLOEGIEB,3ZV9H2YQQHNPN4E43NMUFCHJ6EDW3V,8,7
220,1,object_03,object_10,40.799999237061,2,2,43.200000762939,0.3333333333333333,2,object_08,5,3110,0,2,3,desert_3,2,memory-2step-stake-s,715,2895827,0.0-19.0-0.1-0.220,A10T0161B70BXP,3SNR5F7RA597AOC2DOU98SGLOEGIEB,3ZV9H2YQQHNPN4E43NMUFCHJ6EDW3V,1,2
221,4,object_01,object_06,48.5,8,1,145.5,0.0,2,object_08,1,3110,0,0,0,restaurant_8,2,memory-2step-stake-s,716,2903241,0.0-19.0-0.1-0.221,A10T0161B70BXP,3SNR5F7RA597AOC2DOU98SGLOEGIEB,3ZV9H2YQQHNPN4E43NMUFCHJ6EDW3V,8,7
222,3,object_09,object_02,278.30000114441,5,2,6.3999996185303,0.2222222222222222,1,object_04,1,3112,0,2,0,library_3,2,memory-2step-stake-s,717,2910694,0.0-19.0-0.1-0.222,A10T0161B70BXP,3SNR5F7RA597AOC2DOU98SGLOEGIEB,3ZV9H2YQQHNPN4E43NMUFCHJ6EDW3V,6,5
223,1,object_03,object_10,272.19999885559,2,2,65.39999961853,0.0,2,object_08,1,3112,0,6,0,desert_1,2,memory-2step-stake-s,718,2918017,0.0-19.0-0.1-0.223,A10T0161B70BXP,3SNR5F7RA597AOC2DOU98SGLOEGIEB,3ZV9H2YQQHNPN4E43NMUFCHJ6EDW3V,1,2
224,4,object_01,object_06,141.0,7,2,70.299999237061,0.5555555555555556,1,object_04,1,3117,0,5,2,restaurant_8,2,memory-2step-stake-s,719,2925858,0.0-19.0-0.1-0.224,A10T0161B70BXP,3SNR5F7RA597AOC2DOU98SGLOEGIEB,3ZV9H2YQQHNPN4E43NMUFCHJ6EDW3V,8,7
225,1,object_03,object_10,476.39999961853,2,2,182.29999923706,0.2222222222222222,2,object_08,1,3119,0,5,2,desert_5,2,memory-2step-stake-s,720,2933457,0.0-19.0-0.1-0.225,A10T0161B70BXP,3SNR5F7RA597AOC2DOU98SGLOEGIEB,3ZV9H2YQQHNPN4E43NMUFCHJ6EDW3V,1,2
226,1,object_10,object_03,459.59999847412,1,2,134.5,0.5555555555555556,1,object_04,5,3144,0,5,0,desert_3,2,memory-2step-stake-s,721,2941313,0.0-19.0-0.1-0.226,A10T0161B70BXP,3SNR5F7RA597AOC2DOU98SGLOEGIEB,3ZV9H2YQQHNPN4E43NMUFCHJ6EDW3V,2,1
227,4,object_01,object_06,-1.0,-1,-1,-1.0,0.0,-,0,1,3144,0,4,0,restaurant_7,2,memory-2step-stake-s,722,2947823,0.0-19.0-0.1-0.227,A10T0161B70BXP,3SNR5F7RA597AOC2DOU98SGLOEGIEB,3ZV9H2YQQHNPN4E43NMUFCHJ6EDW3V,8,7
228,3,object_02,object_09,-1.0,-1,-1,-1.0,0.0,-,0,1,3144,0,1,2,library_1,2,memory-2step-stake-s,723,2954336,0.0-19.0-0.1-0.228,A10T0161B70BXP,3SNR5F7RA597AOC2DOU98SGLOEGIEB,3ZV9H2YQQHNPN4E43NMUFCHJ6EDW3V,5,6
229,3,object_02,object_09,604.70000076294,6,2,183.5,0.2222222222222222,2,object_08,5,3154,0,2,2,library_8,2,memory-2step-stake-s,724,2961960,0.0-19.0-0.1-0.229,A10T0161B70BXP,3SNR5F7RA597AOC2DOU98SGLOEGIEB,3ZV9H2YQQHNPN4E43NMUFCHJ6EDW3V,5,6
230,3,object_02,object_09,-1.0,-1,-1,-1.0,0.0,-,0,1,3154,0,3,0,library_3,2,memory-2step-stake-s,725,2968471,0.0-19.0-0.1-0.230,A10T0161B70BXP,3SNR5F7RA597AOC2DOU98SGLOEGIEB,3ZV9H2YQQHNPN4E43NMUFCHJ6EDW3V,5,6
231,2,object_07,object_05,428.20000076294,4,2,212.20000076294,0.2222222222222222,2,object_08,5,3164,0,0,2,forest_8,2,memory-2step-stake-s,726,2976103,0.0-19.0-0.1-0.231,A10T0161B70BXP,3SNR5F7RA597AOC2DOU98SGLOEGIEB,3ZV9H2YQQHNPN4E43NMUFCHJ6EDW3V,3,4
232,2,object_07,object_05,107.79999923706,4,2,150.5,0.2222222222222222,2,object_08,5,3174,0,1,2,forest_8,2,memory-2step-stake-s,727,2983671,0.0-19.0-0.1-0.232,A10T0161B70BXP,3SNR5F7RA597AOC2DOU98SGLOEGIEB,3ZV9H2YQQHNPN4E43NMUFCHJ6EDW3V,3,4
233,3,object_02,object_09,-1.0,-1,-1,-1.0,0.0,-,0,1,3174,0,1,3,library_6,2,memory-2step-stake-s,728,2990183,0.0-19.0-0.1-0.233,A10T0161B70BXP,3SNR5F7RA597AOC2DOU98SGLOEGIEB,3ZV9H2YQQHNPN4E43NMUFCHJ6EDW3V,5,6
234,2,object_07,object_05,366.5,4,2,212.89999961853,0.3333333333333333,2,object_08,5,3189,0,1,3,forest_8,2,memory-2step-stake-s,729,2997914,0.0-19.0-0.1-0.234,A10T0161B70BXP,3SNR5F7RA597AOC2DOU98SGLOEGIEB,3ZV9H2YQQHNPN4E43NMUFCHJ6EDW3V,3,4
235,3,object_09,object_02,-1.0,-1,-1,-1.0,0.0,-,0,1,3189,0,2,0,library_1,2,memory-2step-stake-s,730,3004427,0.0-19.0-0.1-0.235,A10T0161B70BXP,3SNR5F7RA597AOC2DOU98SGLOEGIEB,3ZV9H2YQQHNPN4E43NMUFCHJ6EDW3V,6,5
236,3,object_09,object_02,1383.4000015259,6,1,175.89999961853,0.0,2,object_08,1,3189,0,1,0,library_6,2,memory-2step-stake-s,731,3011820,0.0-19.0-0.1-0.236,A10T0161B70BXP,3SNR5F7RA597AOC2DOU98SGLOEGIEB,3ZV9H2YQQHNPN4E43NMUFCHJ6EDW3V,6,5
237,2,object_05,object_07,258.89999961853,4,1,141.60000038147,0.1111111111111111,2,object_08,5,3194,0,5,1,forest_6,2,memory-2step-stake-s,732,3019280,0.0-19.0-0.1-0.237,A10T0161B70BXP,3SNR5F7RA597AOC2DOU98SGLOEGIEB,3ZV9H2YQQHNPN4E43NMUFCHJ6EDW3V,4,3
238,2,object_07,object_05,160.19999885559,4,2,185.60000038147,0.1111111111111111,2,object_08,5,3199,0,5,1,forest_3,2,memory-2step-stake-s,733,3026801,0.0-19.0-0.1-0.238,A10T0161B70BXP,3SNR5F7RA597AOC2DOU98SGLOEGIEB,3ZV9H2YQQHNPN4E43NMUFCHJ6EDW3V,3,4
239,2,object_05,object_07,1495.5,3,2,128.89999961853,0.6666666666666666,1,object_04,5,3229,0,6,3,forest_6,2,memory-2step-stake-s,734,3034753,0.0-19.0-0.1-0.239,A10T0161B70BXP,3SNR5F7RA597AOC2DOU98SGLOEGIEB,3ZV9H2YQQHNPN4E43NMUFCHJ6EDW3V,4,3
240,3,object_09,object_02,-1.0,-1,-1,-1.0,0.0,-,0,1,3229,0,8,3,library_3,2,memory-2step-stake-s,735,3041265,0.0-19.0-0.1-0.240,A10T0161B70BXP,3SNR5F7RA597AOC2DOU98SGLOEGIEB,3ZV9H2YQQHNPN4E43NMUFCHJ6EDW3V,6,5
241,2,object_07,object_05,406.10000038147,4,2,127.29999923706,0.1111111111111111,2,object_08,1,3230,0,9,1,forest_6,2,memory-2step-stake-s,736,3048715,0.0-19.0-0.1-0.241,A10T0161B70BXP,3SNR5F7RA597AOC2DOU98SGLOEGIEB,3ZV9H2YQQHNPN4E43NMUFCHJ6EDW3V,3,4
242,2,object_07,object_05,-1.0,-1,-1,-1.0,0.0,-,0,1,3230,0,7,5,forest_3,2,memory-2step-stake-s,737,3055226,0.0-19.0-0.1-0.242,A10T0161B70BXP,3SNR5F7RA597AOC2DOU98SGLOEGIEB,3ZV9H2YQQHNPN4E43NMUFCHJ6EDW3V,3,4
243,4,object_06,object_01,-1.0,-1,-1,-1.0,0.0,-,0,1,3230,0,8,7,restaurant_7,2,memory-2step-stake-s,738,3061738,0.0-19.0-0.1-0.243,A10T0161B70BXP,3SNR5F7RA597AOC2DOU98SGLOEGIEB,3ZV9H2YQQHNPN4E43NMUFCHJ6EDW3V,7,8
244,4,object_01,object_06,-1.0,-1,-1,-1.0,0.0,-,0,1,3230,0,6,8,restaurant_8,2,memory-2step-stake-s,739,3068249,0.0-19.0-0.1-0.244,A10T0161B70BXP,3SNR5F7RA597AOC2DOU98SGLOEGIEB,3ZV9H2YQQHNPN4E43NMUFCHJ6EDW3V,8,7
245,3,object_09,object_02,73.60000038147,5,2,275.80000114441,0.5555555555555556,1,object_04,1,3235,0,5,5,library_8,2,memory-2step-stake-s,740,3076248,0.0-19.0-0.1-0.245,A10T0161B70BXP,3SNR5F7RA597AOC2DOU98SGLOEGIEB,3ZV9H2YQQHNPN4E43NMUFCHJ6EDW3V,6,5
246,3,object_09,object_02,621.89999961853,5,2,101.0,0.5555555555555556,1,object_04,1,3240,0,5,5,library_8,2,memory-2step-stake-s,741,3084081,0.0-19.0-0.1-0.246,A10T0161B70BXP,3SNR5F7RA597AOC2DOU98SGLOEGIEB,3ZV9H2YQQHNPN4E43NMUFCHJ6EDW3V,6,5
247,2,object_07,object_05,-1.0,-1,-1,-1.0,0.0,-,0,1,3240,0,4,6,forest_6,2,memory-2step-stake-s,742,3090634,0.0-19.0-0.1-0.247,A10T0161B70BXP,3SNR5F7RA597AOC2DOU98SGLOEGIEB,3ZV9H2YQQHNPN4E43NMUFCHJ6EDW3V,3,4
248,3,object_09,object_02,-1.0,-1,-1,-1.0,0.0,-,0,1,3240,0,4,4,library_6,2,memory-2step-stake-s,743,3097146,0.0-19.0-0.1-0.248,A10T0161B70BXP,3SNR5F7RA597AOC2DOU98SGLOEGIEB,3ZV9H2YQQHNPN4E43NMUFCHJ6EDW3V,6,5
249,3,object_02,object_09,756.10000038147,5,1,130.10000038147,0.2222222222222222,1,object_04,5,3250,0,2,2,library_3,2,memory-2step-stake-s,744,3104736,0.0-19.0-0.1-0.249,A10T0161B70BXP,3SNR5F7RA597AOC2DOU98SGLOEGIEB,3ZV9H2YQQHNPN4E43NMUFCHJ6EDW3V,5,6
250,2,object_07,object_05,532.79999923706,3,1,158.89999961853,0.3333333333333333,1,object_04,5,3265,0,3,0,forest_6,2,memory-2step-stake-s,745,3112422,0.0-19.0-0.1-0.250,A10T0161B70BXP,3SNR5F7RA597AOC2DOU98SGLOEGIEB,3ZV9H2YQQHNPN4E43NMUFCHJ6EDW3V,3,4
251,4,object_01,object_06,582.39999961853,7,2,127.80000114441,0.4444444444444444,1,object_04,1,3269,0,4,1,restaurant_6,2,memory-2step-stake-s,746,3120205,0.0-19.0-0.1-0.251,A10T0161B70BXP,3SNR5F7RA597AOC2DOU98SGLOEGIEB,3ZV9H2YQQHNPN4E43NMUFCHJ6EDW3V,8,7
252,1,object_10,object_03,106.0,2,1,62.200000762939,0.3333333333333333,2,object_08,5,3284,0,4,3,desert_6,2,memory-2step-stake-s,747,3127796,0.0-19.0-0.1-0.252,A10T0161B70BXP,3SNR5F7RA597AOC2DOU98SGLOEGIEB,3ZV9H2YQQHNPN4E43NMUFCHJ6EDW3V,2,1
253,3,object_02,object_09,168.10000038147,5,1,33.60000038147,0.2222222222222222,1,object_04,5,3294,0,2,7,library_6,2,memory-2step-stake-s,748,3135276,0.0-19.0-0.1-0.253,A10T0161B70BXP,3SNR5F7RA597AOC2DOU98SGLOEGIEB,3ZV9H2YQQHNPN4E43NMUFCHJ6EDW3V,5,6
254,2,object_07,object_05,127.59999847412,3,1,106.0,0.5555555555555556,1,object_04,5,3319,0,5,5,forest_5,2,memory-2step-stake-s,749,3143126,0.0-19.0-0.1-0.254,A10T0161B70BXP,3SNR5F7RA597AOC2DOU98SGLOEGIEB,3ZV9H2YQQHNPN4E43NMUFCHJ6EDW3V,3,4
255,4,object_01,object_06,1285.0999984741,8,1,302.90000152588,0.5555555555555556,2,object_08,1,3324,0,4,5,restaurant_3,2,memory-2step-stake-s,750,3151219,0.0-19.0-0.1-0.255,A10T0161B70BXP,3SNR5F7RA597AOC2DOU98SGLOEGIEB,3ZV9H2YQQHNPN4E43NMUFCHJ6EDW3V,8,7
