,state1,stim_left,stim_right,rt_1,choice1,response1,rt_2,points,state2,stim_state2,stake,score,practice,rews1,rews2,background,high_arm,trial_type,trial_index,time_elapsed,internal_node_id,subid,hitid,assignmentid,stim_left_num,stim_right_num
0,3,object_04,object_06,865.5,6,1,1223.200000003,0.1111111111111111,2,object_01,1,1,0,2,1,library_1,2,memory-2step-stake-s,494,731653,0.0-19.0-0.0-0.0,A2C8CPT60DE5V8,382GHPVPIV7ASJXQ3FB9V025S7G34H,337RC3OW09ITOJ4OJJLYPWSMZP2LVK,6,5
1,3,object_04,object_06,701.29999999702,6,1,589.09999999404,0.2222222222222222,2,object_01,1,3,0,2,2,library_2,2,memory-2step-stake-s,495,739729,0.0-19.0-0.0-0.1,A2C8CPT60DE5V8,382GHPVPIV7ASJXQ3FB9V025S7G34H,337RC3OW09ITOJ4OJJLYPWSMZP2LVK,6,5
2,3,object_06,object_04,897.29999999702,5,1,541.59999999404,0.0,1,object_08,1,3,0,0,0,library_2,2,memory-2step-stake-s,496,747532,0.0-19.0-0.0-0.2,A2C8CPT60DE5V8,382GHPVPIV7ASJXQ3FB9V025S7G34H,337RC3OW09ITOJ4OJJLYPWSMZP2LVK,5,6
3,1,object_09,object_10,899.20000000298,2,1,514.09999999404,0.1111111111111111,2,object_01,5,8,0,3,1,desert_6,2,memory-2step-stake-s,497,755405,0.0-19.0-0.0-0.3,A2C8CPT60DE5V8,382GHPVPIV7ASJXQ3FB9V025S7G34H,337RC3OW09ITOJ4OJJLYPWSMZP2LVK,2,1
4,4,object_05,object_02,796.0,8,1,1248.799999997,0.2222222222222222,2,object_01,1,10,0,6,2,restaurant_5,2,memory-2step-stake-s,498,764146,0.0-19.0-0.0-0.4,A2C8CPT60DE5V8,382GHPVPIV7ASJXQ3FB9V025S7G34H,337RC3OW09ITOJ4OJJLYPWSMZP2LVK,8,7
5,2,object_03,object_07,864.59999999404,4,2,688.79999999702,0.3333333333333333,2,object_01,1,13,0,3,3,forest_4,2,memory-2step-stake-s,499,772424,0.0-19.0-0.0-0.5,A2C8CPT60DE5V8,382GHPVPIV7ASJXQ3FB9V025S7G34H,337RC3OW09ITOJ4OJJLYPWSMZP2LVK,3,4
6,3,object_06,object_04,1242.6000000089,6,2,543.40000000596,0.3333333333333333,2,object_01,1,16,0,2,3,library_3,2,memory-2step-stake-s,500,780555,0.0-19.0-0.0-0.6,A2C8CPT60DE5V8,382GHPVPIV7ASJXQ3FB9V025S7G34H,337RC3OW09ITOJ4OJJLYPWSMZP2LVK,5,6
7,2,object_03,object_07,841.60000000894,4,2,622.60000000894,0.0,2,object_01,5,16,0,2,0,forest_4,2,memory-2step-stake-s,501,788431,0.0-19.0-0.0-0.7,A2C8CPT60DE5V8,382GHPVPIV7ASJXQ3FB9V025S7G34H,337RC3OW09ITOJ4OJJLYPWSMZP2LVK,3,4
8,4,object_02,object_05,1211.400000006,7,1,373.10000000894,0.1111111111111111,1,object_08,1,17,0,1,1,restaurant_5,2,memory-2step-stake-s,502,796192,0.0-19.0-0.0-0.8,A2C8CPT60DE5V8,382GHPVPIV7ASJXQ3FB9V025S7G34H,337RC3OW09ITOJ4OJJLYPWSMZP2LVK,7,8
9,2,object_03,object_07,503.5,3,1,469.69999998808,0.0,1,object_08,1,17,0,0,3,forest_6,2,memory-2step-stake-s,503,803914,0.0-19.0-0.0-0.9,A2C8CPT60DE5V8,382GHPVPIV7ASJXQ3FB9V025S7G34H,337RC3OW09ITOJ4OJJLYPWSMZP2LVK,3,4
10,3,object_04,object_06,777.79999999702,6,1,344.70000000298,0.1111111111111111,2,object_01,5,22,0,2,1,library_3,2,memory-2step-stake-s,504,811620,0.0-19.0-0.0-0.10,A2C8CPT60DE5V8,382GHPVPIV7ASJXQ3FB9V025S7G34H,337RC3OW09ITOJ4OJJLYPWSMZP2LVK,6,5
11,2,object_07,object_03,640.29999999702,4,1,398.0,0.0,2,object_01,5,22,0,4,0,forest_4,2,memory-2step-stake-s,505,819278,0.0-19.0-0.0-0.11,A2C8CPT60DE5V8,382GHPVPIV7ASJXQ3FB9V025S7G34H,337RC3OW09ITOJ4OJJLYPWSMZP2LVK,4,3
12,4,object_02,object_05,944.79999999702,7,1,400.0,0.4444444444444444,1,object_08,1,26,0,4,1,restaurant_2,2,memory-2step-stake-s,506,827390,0.0-19.0-0.0-0.12,A2C8CPT60DE5V8,382GHPVPIV7ASJXQ3FB9V025S7G34H,337RC3OW09ITOJ4OJJLYPWSMZP2LVK,7,8
13,3,object_04,object_06,698.69999998808,5,2,421.29999999702,0.0,1,object_08,1,26,0,0,1,library_2,2,memory-2step-stake-s,507,835094,0.0-19.0-0.0-0.13,A2C8CPT60DE5V8,382GHPVPIV7ASJXQ3FB9V025S7G34H,337RC3OW09ITOJ4OJJLYPWSMZP2LVK,6,5
14,1,object_10,object_09,1214.5,1,1,745.89999999106,0.1111111111111111,1,object_08,1,27,0,1,0,desert_8,2,memory-2step-stake-s,508,843223,0.0-19.0-0.0-0.14,A2C8CPT60DE5V8,382GHPVPIV7ASJXQ3FB9V025S7G34H,337RC3OW09ITOJ4OJJLYPWSMZP2LVK,1,2
15,2,object_03,object_07,1465.5,4,2,556.90000000596,0.1111111111111111,2,object_01,1,28,0,3,1,forest_7,2,memory-2step-stake-s,509,851143,0.0-19.0-0.0-0.15,A2C8CPT60DE5V8,382GHPVPIV7ASJXQ3FB9V025S7G34H,337RC3OW09ITOJ4OJJLYPWSMZP2LVK,3,4
16,3,object_06,object_04,-1.0,-1,-1,-1.0,0.0,-,0,1,28,0,3,0,library_3,2,memory-2step-stake-s,510,857693,0.0-19.0-0.0-0.16,A2C8CPT60DE5V8,382GHPVPIV7ASJXQ3FB9V025S7G34H,337RC3OW09ITOJ4OJJLYPWSMZP2LVK,5,6
17,3,object_04,object_06,569.39999999106,5,2,-1.0,0.0,1,object_08,1,28,0,5,2,library_1,2,memory-2step-stake-s,511,866253,0.0-19.0-0.0-0.17,A2C8CPT60DE5V8,382GHPVPIV7ASJXQ3FB9V025S7G34H,337RC3OW09ITOJ4OJJLYPWSMZP2LVK,6,5
18,2,object_07,object_03,348.70000000298,4,1,367.79999999702,0.2222222222222222,2,object_01,5,38,0,5,2,forest_3,2,memory-2step-stake-s,512,874116,0.0-19.0-0.0-0.18,A2C8CPT60DE5V8,382GHPVPIV7ASJXQ3FB9V025S7G34H,337RC3OW09ITOJ4OJJLYPWSMZP2LVK,4,3
19,4,object_02,object_05,615.70000000298,8,2,421.79999999702,0.3333333333333333,2,object_01,1,41,0,9,3,restaurant_3,2,memory-2step-stake-s,513,882118,0.0-19.0-0.0-0.19,A2C8CPT60DE5V8,382GHPVPIV7ASJXQ3FB9V025S7G34H,337RC3OW09ITOJ4OJJLYPWSMZP2LVK,7,8
20,1,object_10,object_09,834.09999999404,1,1,336.5,0.3333333333333333,1,object_08,5,56,0,3,2,desert_6,2,memory-2step-stake-s,514,890038,0.0-19.0-0.0-0.20,A2C8CPT60DE5V8,382GHPVPIV7ASJXQ3FB9V025S7G34H,337RC3OW09ITOJ4OJJLYPWSMZP2LVK,1,2
21,2,object_03,object_07,577.29999999702,4,2,359.5,0.1111111111111111,2,object_01,5,61,0,2,1,forest_4,2,memory-2step-stake-s,515,897771,0.0-19.0-0.0-0.21,A2C8CPT60DE5V8,382GHPVPIV7ASJXQ3FB9V025S7G34H,337RC3OW09ITOJ4OJJLYPWSMZP2LVK,3,4
22,1,object_09,object_10,577.59999999404,1,2,326.5,0.2222222222222222,1,object_08,5,71,0,2,1,desert_7,2,memory-2step-stake-s,516,905560,0.0-19.0-0.0-0.22,A2C8CPT60DE5V8,382GHPVPIV7ASJXQ3FB9V025S7G34H,337RC3OW09ITOJ4OJJLYPWSMZP2LVK,2,1
23,1,object_09,object_10,442.0,1,2,325.5,0.2222222222222222,1,object_08,5,81,0,2,1,desert_8,2,memory-2step-stake-s,517,913356,0.0-19.0-0.0-0.23,A2C8CPT60DE5V8,382GHPVPIV7ASJXQ3FB9V025S7G34H,337RC3OW09ITOJ4OJJLYPWSMZP2LVK,2,1
24,4,object_05,object_02,742.70000000298,7,2,347.39999999106,0.3333333333333333,1,object_08,1,84,0,3,1,restaurant_5,2,memory-2step-stake-s,518,921290,0.0-19.0-0.0-0.24,A2C8CPT60DE5V8,382GHPVPIV7ASJXQ3FB9V025S7G34H,337RC3OW09ITOJ4OJJLYPWSMZP2LVK,8,7
25,1,object_10,object_09,774.20000000298,2,2,339.40000000596,0.1111111111111111,2,object_01,5,89,0,4,1,desert_8,2,memory-2step-stake-s,519,928997,0.0-19.0-0.0-0.25,A2C8CPT60DE5V8,382GHPVPIV7ASJXQ3FB9V025S7G34H,337RC3OW09ITOJ4OJJLYPWSMZP2LVK,1,2
26,2,object_03,object_07,785.5,3,1,286.70000000298,0.6666666666666666,1,object_08,5,119,0,6,0,forest_4,2,memory-2step-stake-s,520,937238,0.0-19.0-0.0-0.26,A2C8CPT60DE5V8,382GHPVPIV7ASJXQ3FB9V025S7G34H,337RC3OW09ITOJ4OJJLYPWSMZP2LVK,3,4
27,3,object_04,object_06,824.10000000894,5,2,348.79999999702,0.7777777777777778,1,object_08,1,126,0,7,1,library_4,2,memory-2step-stake-s,521,945619,0.0-19.0-0.0-0.27,A2C8CPT60DE5V8,382GHPVPIV7ASJXQ3FB9V025S7G34H,337RC3OW09ITOJ4OJJLYPWSMZP2LVK,6,5
28,1,object_10,object_09,513.0,2,2,377.39999999106,0.0,2,object_01,5,126,0,3,0,desert_6,2,memory-2step-stake-s,522,953251,0.0-19.0-0.0-0.28,A2C8CPT60DE5V8,382GHPVPIV7ASJXQ3FB9V025S7G34H,337RC3OW09ITOJ4OJJLYPWSMZP2LVK,1,2
29,4,object_05,object_02,764.5,7,2,422.29999999702,0.6666666666666666,1,object_08,1,132,0,6,3,restaurant_5,2,memory-2step-stake-s,523,961626,0.0-19.0-0.0-0.29,A2C8CPT60DE5V8,382GHPVPIV7ASJXQ3FB9V025S7G34H,337RC3OW09ITOJ4OJJLYPWSMZP2LVK,8,7
30,2,object_03,object_07,618.5,4,2,294.39999999106,0.1111111111111111,2,object_01,5,137,0,7,1,forest_6,2,memory-2step-stake-s,524,969289,0.0-19.0-0.0-0.30,A2C8CPT60DE5V8,382GHPVPIV7ASJXQ3FB9V025S7G34H,337RC3OW09ITOJ4OJJLYPWSMZP2LVK,3,4
31,4,object_02,object_05,748.59999999404,7,1,577.30000001192,0.8888888888888888,1,object_08,1,145,0,8,4,restaurant_6,2,memory-2step-stake-s,525,978032,0.0-19.0-0.0-0.31,A2C8CPT60DE5V8,382GHPVPIV7ASJXQ3FB9V025S7G34H,337RC3OW09ITOJ4OJJLYPWSMZP2LVK,7,8
32,2,object_07,object_03,781.40000000596,3,2,343.5,0.5555555555555556,1,object_08,5,170,0,5,3,forest_7,2,memory-2step-stake-s,526,986207,0.0-19.0-0.0-0.32,A2C8CPT60DE5V8,382GHPVPIV7ASJXQ3FB9V025S7G34H,337RC3OW09ITOJ4OJJLYPWSMZP2LVK,4,3
33,1,object_10,object_09,911.79999999702,2,2,411.10000000894,0.3333333333333333,2,object_01,5,185,0,8,3,desert_8,2,memory-2step-stake-s,527,994228,0.0-19.0-0.0-0.33,A2C8CPT60DE5V8,382GHPVPIV7ASJXQ3FB9V025S7G34H,337RC3OW09ITOJ4OJJLYPWSMZP2LVK,1,2
34,1,object_10,object_09,467.89999999106,1,1,339.5,0.6666666666666666,1,object_08,1,191,0,6,1,desert_7,2,memory-2step-stake-s,528,1002472,0.0-19.0-0.0-0.34,A2C8CPT60DE5V8,382GHPVPIV7ASJXQ3FB9V025S7G34H,337RC3OW09ITOJ4OJJLYPWSMZP2LVK,1,2
35,1,object_09,object_10,592.89999999106,1,2,286.20000000298,0.6666666666666666,1,object_08,5,221,0,6,0,desert_7,2,memory-2step-stake-s,529,1010687,0.0-19.0-0.0-0.35,A2C8CPT60DE5V8,382GHPVPIV7ASJXQ3FB9V025S7G34H,337RC3OW09ITOJ4OJJLYPWSMZP2LVK,2,1
36,1,object_10,object_09,422.60000000894,1,1,346.90000000596,1.0,1,object_08,5,266,0,9,0,desert_6,2,memory-2step-stake-s,530,1019274,0.0-19.0-0.0-0.36,A2C8CPT60DE5V8,382GHPVPIV7ASJXQ3FB9V025S7G34H,337RC3OW09ITOJ4OJJLYPWSMZP2LVK,1,2
37,1,object_10,object_09,376.79999999702,1,1,422.89999999106,0.5555555555555556,1,object_08,5,291,0,5,0,desert_3,2,memory-2step-stake-s,531,1027487,0.0-19.0-0.0-0.37,A2C8CPT60DE5V8,382GHPVPIV7ASJXQ3FB9V025S7G34H,337RC3OW09ITOJ4OJJLYPWSMZP2LVK,1,2
38,2,object_03,object_07,491.39999999106,4,2,334.19999998808,0.1111111111111111,2,object_01,5,296,0,5,1,forest_7,2,memory-2step-stake-s,532,1035197,0.0-19.0-0.0-0.38,A2C8CPT60DE5V8,382GHPVPIV7ASJXQ3FB9V025S7G34H,337RC3OW09ITOJ4OJJLYPWSMZP2LVK,3,4
39,3,object_04,object_06,783.40000000596,5,2,324.0,0.7777777777777778,1,object_08,1,303,0,7,3,library_1,2,memory-2step-stake-s,533,1043554,0.0-19.0-0.0-0.39,A2C8CPT60DE5V8,382GHPVPIV7ASJXQ3FB9V025S7G34H,337RC3OW09ITOJ4OJJLYPWSMZP2LVK,6,5
40,4,object_02,object_05,982.90000000596,8,2,419.70000000298,0.2222222222222222,2,object_01,1,305,0,7,2,restaurant_6,2,memory-2step-stake-s,534,1051464,0.0-19.0-0.0-0.40,A2C8CPT60DE5V8,382GHPVPIV7ASJXQ3FB9V025S7G34H,337RC3OW09ITOJ4OJJLYPWSMZP2LVK,7,8
41,3,object_06,object_04,795.5,5,1,629.5,0.8888888888888888,1,object_08,1,313,0,8,0,library_4,2,memory-2step-stake-s,535,1060231,0.0-19.0-0.0-0.41,A2C8CPT60DE5V8,382GHPVPIV7ASJXQ3FB9V025S7G34H,337RC3OW09ITOJ4OJJLYPWSMZP2LVK,5,6
42,4,object_02,object_05,724.59999999404,7,1,340.20000000298,0.6666666666666666,1,object_08,1,319,0,6,0,restaurant_6,2,memory-2step-stake-s,536,1068514,0.0-19.0-0.0-0.42,A2C8CPT60DE5V8,382GHPVPIV7ASJXQ3FB9V025S7G34H,337RC3OW09ITOJ4OJJLYPWSMZP2LVK,7,8
43,1,object_10,object_09,416.10000000894,1,1,360.70000000298,0.8888888888888888,1,object_08,5,359,0,8,0,desert_6,2,memory-2step-stake-s,537,1077035,0.0-19.0-0.0-0.43,A2C8CPT60DE5V8,382GHPVPIV7ASJXQ3FB9V025S7G34H,337RC3OW09ITOJ4OJJLYPWSMZP2LVK,1,2
44,4,object_05,object_02,860.90000000596,7,2,389.79999999702,1.0,1,object_08,1,368,0,9,1,restaurant_5,2,memory-2step-stake-s,538,1085683,0.0-19.0-0.0-0.44,A2C8CPT60DE5V8,382GHPVPIV7ASJXQ3FB9V025S7G34H,337RC3OW09ITOJ4OJJLYPWSMZP2LVK,8,7
45,2,object_07,object_03,752.80000001192,3,2,495.10000000894,0.8888888888888888,1,object_08,1,376,0,8,3,forest_7,2,memory-2step-stake-s,539,1094320,0.0-19.0-0.0-0.45,A2C8CPT60DE5V8,382GHPVPIV7ASJXQ3FB9V025S7G34H,337RC3OW09ITOJ4OJJLYPWSMZP2LVK,4,3
46,4,object_02,object_05,606.5,7,1,531.40000000596,0.7777777777777778,1,object_08,1,383,0,7,4,restaurant_3,2,memory-2step-stake-s,540,1102887,0.0-19.0-0.0-0.46,A2C8CPT60DE5V8,382GHPVPIV7ASJXQ3FB9V025S7G34H,337RC3OW09ITOJ4OJJLYPWSMZP2LVK,7,8
47,1,object_09,object_10,746.5,1,2,346.5,0.6666666666666666,1,object_08,1,389,0,6,4,desert_3,2,memory-2step-stake-s,541,1111138,0.0-19.0-0.0-0.47,A2C8CPT60DE5V8,382GHPVPIV7ASJXQ3FB9V025S7G34H,337RC3OW09ITOJ4OJJLYPWSMZP2LVK,2,1
48,1,object_09,object_10,469.20000000298,1,2,5.1999999880791,0.5555555555555556,1,object_08,5,414,0,5,4,desert_3,2,memory-2step-stake-s,542,1118947,0.0-19.0-0.0-0.48,A2C8CPT60DE5V8,382GHPVPIV7ASJXQ3FB9V025S7G34H,337RC3OW09ITOJ4OJJLYPWSMZP2LVK,2,1
49,4,object_02,object_05,654.5,7,1,308.20000000298,0.4444444444444444,1,object_08,5,434,0,4,3,restaurant_2,2,memory-2step-stake-s,543,1126941,0.0-19.0-0.0-0.49,A2C8CPT60DE5V8,382GHPVPIV7ASJXQ3FB9V025S7G34H,337RC3OW09ITOJ4OJJLYPWSMZP2LVK,7,8
50,1,object_09,object_10,526.59999999404,1,2,318.0,0.2222222222222222,1,object_08,5,444,0,2,0,desert_8,2,memory-2step-stake-s,544,1134732,0.0-19.0-0.0-0.50,A2C8CPT60DE5V8,382GHPVPIV7ASJXQ3FB9V025S7G34H,337RC3OW09ITOJ4OJJLYPWSMZP2LVK,2,1
51,3,object_06,object_04,421.0,6,2,400.90000000596,0.2222222222222222,2,object_01,1,446,0,6,2,library_2,2,memory-2step-stake-s,545,1142618,0.0-19.0-0.0-0.51,A2C8CPT60DE5V8,382GHPVPIV7ASJXQ3FB9V025S7G34H,337RC3OW09ITOJ4OJJLYPWSMZP2LVK,5,6
52,3,object_06,object_04,523.70000000298,6,2,418.0,0.3333333333333333,2,object_01,1,449,0,7,3,library_3,2,memory-2step-stake-s,546,1150634,0.0-19.0-0.0-0.52,A2C8CPT60DE5V8,382GHPVPIV7ASJXQ3FB9V025S7G34H,337RC3OW09ITOJ4OJJLYPWSMZP2LVK,5,6
53,1,object_10,object_09,746.29999999702,1,1,327.20000000298,0.6666666666666666,1,object_08,5,479,0,6,4,desert_8,2,memory-2step-stake-s,547,1158874,0.0-19.0-0.0-0.53,A2C8CPT60DE5V8,382GHPVPIV7ASJXQ3FB9V025S7G34H,337RC3OW09ITOJ4OJJLYPWSMZP2LVK,1,2
54,4,object_05,object_02,618.20000000298,7,2,571.59999999404,0.1111111111111111,1,object_08,1,480,0,1,4,restaurant_3,2,memory-2step-stake-s,548,1166818,0.0-19.0-0.0-0.54,A2C8CPT60DE5V8,382GHPVPIV7ASJXQ3FB9V025S7G34H,337RC3OW09ITOJ4OJJLYPWSMZP2LVK,8,7
55,2,object_07,object_03,867.59999999404,3,2,352.10000000894,0.1111111111111111,1,object_08,5,485,0,1,5,forest_6,2,memory-2step-stake-s,549,1174564,0.0-19.0-0.0-0.55,A2C8CPT60DE5V8,382GHPVPIV7ASJXQ3FB9V025S7G34H,337RC3OW09ITOJ4OJJLYPWSMZP2LVK,4,3
56,1,object_09,object_10,497.0,2,1,259.0,0.3333333333333333,2,object_01,5,500,0,1,3,desert_6,2,memory-2step-stake-s,550,1182437,0.0-19.0-0.0-0.56,A2C8CPT60DE5V8,382GHPVPIV7ASJXQ3FB9V025S7G34H,337RC3OW09ITOJ4OJJLYPWSMZP2LVK,2,1
57,1,object_09,object_10,570.20000000298,1,2,159.90000000596,0.1111111111111111,1,object_08,5,505,0,1,1,desert_8,2,memory-2step-stake-s,551,1189958,0.0-19.0-0.0-0.57,A2C8CPT60DE5V8,382GHPVPIV7ASJXQ3FB9V025S7G34H,337RC3OW09ITOJ4OJJLYPWSMZP2LVK,2,1
58,3,object_04,object_06,769.40000000596,6,1,338.80000001192,0.0,2,object_01,1,505,0,0,0,library_1,2,memory-2step-stake-s,552,1197575,0.0-19.0-0.0-0.58,A2C8CPT60DE5V8,382GHPVPIV7ASJXQ3FB9V025S7G34H,337RC3OW09ITOJ4OJJLYPWSMZP2LVK,6,5
59,4,object_05,object_02,789.29999999702,8,1,322.60000000894,0.6666666666666666,2,object_01,1,511,0,1,6,restaurant_6,2,memory-2step-stake-s,553,1205833,0.0-19.0-0.0-0.59,A2C8CPT60DE5V8,382GHPVPIV7ASJXQ3FB9V025S7G34H,337RC3OW09ITOJ4OJJLYPWSMZP2LVK,8,7
60,3,object_04,object_06,786.40000000596,5,2,422.5,0.2222222222222222,1,object_08,1,513,0,2,8,library_2,2,memory-2step-stake-s,554,1213731,0.0-19.0-0.0-0.60,A2C8CPT60DE5V8,382GHPVPIV7ASJXQ3FB9V025S7G34H,337RC3OW09ITOJ4OJJLYPWSMZP2LVK,6,5
61,3,object_06,object_04,903.29999999702,6,2,343.79999999702,0.6666666666666666,2,object_01,1,519,0,3,6,library_3,2,memory-2step-stake-s,555,1221992,0.0-19.0-0.0-0.61,A2C8CPT60DE5V8,382GHPVPIV7ASJXQ3FB9V025S7G34H,337RC3OW09ITOJ4OJJLYPWSMZP2LVK,5,6
62,1,object_09,object_10,771.70000000298,2,1,261.0,0.6666666666666666,2,object_01,5,549,0,2,6,desert_3,2,memory-2step-stake-s,556,1230187,0.0-19.0-0.0-0.62,A2C8CPT60DE5V8,382GHPVPIV7ASJXQ3FB9V025S7G34H,337RC3OW09ITOJ4OJJLYPWSMZP2LVK,2,1
63,4,object_02,object_05,758.29999999702,8,2,306.70000000298,0.8888888888888888,2,object_01,1,557,0,0,8,restaurant_3,2,memory-2step-stake-s,557,1238638,0.0-19.0-0.0-0.63,A2C8CPT60DE5V8,382GHPVPIV7ASJXQ3FB9V025S7G34H,337RC3OW09ITOJ4OJJLYPWSMZP2LVK,7,8
64,3,object_04,object_06,741.5,5,2,534.39999999106,0.1111111111111111,1,object_08,1,558,0,1,6,library_3,2,memory-2step-stake-s,558,1246546,0.0-19.0-0.0-0.64,A2C8CPT60DE5V8,382GHPVPIV7ASJXQ3FB9V025S7G34H,337RC3OW09ITOJ4OJJLYPWSMZP2LVK,6,5
65,4,object_02,object_05,829.30000001192,8,2,343.70000000298,0.4444444444444444,2,object_01,1,562,0,3,4,restaurant_3,2,memory-2step-stake-s,559,1254603,0.0-19.0-0.0-0.65,A2C8CPT60DE5V8,382GHPVPIV7ASJXQ3FB9V025S7G34H,337RC3OW09ITOJ4OJJLYPWSMZP2LVK,7,8
66,4,object_05,object_02,866.29999999702,8,1,322.29999999702,0.5555555555555556,2,object_01,1,567,0,5,5,restaurant_2,2,memory-2step-stake-s,560,1262729,0.0-19.0-0.0-0.66,A2C8CPT60DE5V8,382GHPVPIV7ASJXQ3FB9V025S7G34H,337RC3OW09ITOJ4OJJLYPWSMZP2LVK,8,7
67,4,object_05,object_02,698.10000000894,8,1,264.30000001192,0.7777777777777778,2,object_01,5,602,0,3,7,restaurant_5,2,memory-2step-stake-s,561,1271044,0.0-19.0-0.0-0.67,A2C8CPT60DE5V8,382GHPVPIV7ASJXQ3FB9V025S7G34H,337RC3OW09ITOJ4OJJLYPWSMZP2LVK,8,7
68,2,object_03,object_07,646.09999999404,3,1,365.39999999106,0.3333333333333333,1,object_08,5,617,0,3,7,forest_4,2,memory-2step-stake-s,562,1279008,0.0-19.0-0.0-0.68,A2C8CPT60DE5V8,382GHPVPIV7ASJXQ3FB9V025S7G34H,337RC3OW09ITOJ4OJJLYPWSMZP2LVK,3,4
69,3,object_04,object_06,901.60000000894,6,1,353.40000000596,0.7777777777777778,2,object_01,1,624,0,3,7,library_3,2,memory-2step-stake-s,563,1287398,0.0-19.0-0.0-0.69,A2C8CPT60DE5V8,382GHPVPIV7ASJXQ3FB9V025S7G34H,337RC3OW09ITOJ4OJJLYPWSMZP2LVK,6,5
70,2,object_03,object_07,736.0,4,2,341.59999999404,0.7777777777777778,2,object_01,5,659,0,6,7,forest_3,2,memory-2step-stake-s,564,1295764,0.0-19.0-0.0-0.70,A2C8CPT60DE5V8,382GHPVPIV7ASJXQ3FB9V025S7G34H,337RC3OW09ITOJ4OJJLYPWSMZP2LVK,3,4
71,1,object_10,object_09,960.90000000596,2,2,675.20000000298,0.6666666666666666,2,object_01,1,665,0,7,6,desert_6,2,memory-2step-stake-s,565,1304367,0.0-19.0-0.0-0.71,A2C8CPT60DE5V8,382GHPVPIV7ASJXQ3FB9V025S7G34H,337RC3OW09ITOJ4OJJLYPWSMZP2LVK,1,2
72,2,object_07,object_03,1192.5,4,1,497.20000000298,0.7777777777777778,2,object_01,5,700,0,7,7,forest_3,2,memory-2step-stake-s,566,1312874,0.0-19.0-0.0-0.72,A2C8CPT60DE5V8,382GHPVPIV7ASJXQ3FB9V025S7G34H,337RC3OW09ITOJ4OJJLYPWSMZP2LVK,4,3
73,2,object_07,object_03,521.69999998808,4,1,397.79999999702,0.6666666666666666,2,object_01,5,730,0,7,6,forest_4,2,memory-2step-stake-s,567,1321169,0.0-19.0-0.0-0.73,A2C8CPT60DE5V8,382GHPVPIV7ASJXQ3FB9V025S7G34H,337RC3OW09ITOJ4OJJLYPWSMZP2LVK,4,3
74,4,object_02,object_05,622.90000000596,8,2,349.59999999404,0.6666666666666666,2,object_01,1,736,0,6,6,restaurant_2,2,memory-2step-stake-s,568,1329446,0.0-19.0-0.0-0.74,A2C8CPT60DE5V8,382GHPVPIV7ASJXQ3FB9V025S7G34H,337RC3OW09ITOJ4OJJLYPWSMZP2LVK,7,8
75,4,object_05,object_02,780.0,8,1,380.10000000894,0.6666666666666666,2,object_01,5,766,0,9,6,restaurant_6,2,memory-2step-stake-s,569,1337751,0.0-19.0-0.0-0.75,A2C8CPT60DE5V8,382GHPVPIV7ASJXQ3FB9V025S7G34H,337RC3OW09ITOJ4OJJLYPWSMZP2LVK,8,7
76,4,object_05,object_02,584.59999999404,8,1,478.40000000596,0.5555555555555556,2,object_01,1,771,0,6,5,restaurant_2,2,memory-2step-stake-s,570,1346050,0.0-19.0-0.0-0.76,A2C8CPT60DE5V8,382GHPVPIV7ASJXQ3FB9V025S7G34H,337RC3OW09ITOJ4OJJLYPWSMZP2LVK,8,7
77,2,object_07,object_03,850.10000000894,4,1,530.10000000894,0.0,2,object_01,5,771,0,8,0,forest_4,2,memory-2step-stake-s,571,1353837,0.0-19.0-0.0-0.77,A2C8CPT60DE5V8,382GHPVPIV7ASJXQ3FB9V025S7G34H,337RC3OW09ITOJ4OJJLYPWSMZP2LVK,4,3
78,3,object_06,object_04,700.10000000894,5,1,302.20000000298,0.8888888888888888,1,object_08,5,811,0,8,3,library_1,2,memory-2step-stake-s,572,1362264,0.0-19.0-0.0-0.78,A2C8CPT60DE5V8,382GHPVPIV7ASJXQ3FB9V025S7G34H,337RC3OW09ITOJ4OJJLYPWSMZP2LVK,5,6
79,2,object_07,object_03,516.69999998808,3,2,227.89999999106,0.6666666666666666,1,object_08,5,841,0,6,6,forest_6,2,memory-2step-stake-s,573,1370405,0.0-19.0-0.0-0.79,A2C8CPT60DE5V8,382GHPVPIV7ASJXQ3FB9V025S7G34H,337RC3OW09ITOJ4OJJLYPWSMZP2LVK,4,3
80,4,object_05,object_02,904.40000000596,7,2,543.30000001192,0.5555555555555556,1,object_08,1,846,0,5,2,restaurant_6,2,memory-2step-stake-s,574,1378783,0.0-19.0-0.0-0.80,A2C8CPT60DE5V8,382GHPVPIV7ASJXQ3FB9V025S7G34H,337RC3OW09ITOJ4OJJLYPWSMZP2LVK,8,7
81,1,object_09,object_10,609.79999999702,1,2,315.5,0.7777777777777778,1,object_08,5,881,0,7,2,desert_3,2,memory-2step-stake-s,575,1387126,0.0-19.0-0.0-0.81,A2C8CPT60DE5V8,382GHPVPIV7ASJXQ3FB9V025S7G34H,337RC3OW09ITOJ4OJJLYPWSMZP2LVK,2,1
82,2,object_07,object_03,680.39999999106,3,2,305.20000000298,0.6666666666666666,1,object_08,5,911,0,6,1,forest_6,2,memory-2step-stake-s,576,1395353,0.0-19.0-0.0-0.82,A2C8CPT60DE5V8,382GHPVPIV7ASJXQ3FB9V025S7G34H,337RC3OW09ITOJ4OJJLYPWSMZP2LVK,4,3
83,4,object_02,object_05,694.79999999702,7,1,409.0,0.5555555555555556,1,object_08,1,916,0,5,2,restaurant_6,2,memory-2step-stake-s,577,1403563,0.0-19.0-0.0-0.83,A2C8CPT60DE5V8,382GHPVPIV7ASJXQ3FB9V025S7G34H,337RC3OW09ITOJ4OJJLYPWSMZP2LVK,7,8
84,1,object_10,object_09,731.29999999702,1,1,391.70000000298,0.7777777777777778,1,object_08,1,923,0,7,1,desert_8,2,memory-2step-stake-s,578,1411996,0.0-19.0-0.0-0.84,A2C8CPT60DE5V8,382GHPVPIV7ASJXQ3FB9V025S7G34H,337RC3OW09ITOJ4OJJLYPWSMZP2LVK,1,2
85,1,object_10,object_09,581.29999999702,1,1,379.70000000298,0.8888888888888888,1,object_08,5,963,0,8,1,desert_8,2,memory-2step-stake-s,579,1420520,0.0-19.0-0.0-0.85,A2C8CPT60DE5V8,382GHPVPIV7ASJXQ3FB9V025S7G34H,337RC3OW09ITOJ4OJJLYPWSMZP2LVK,1,2
86,1,object_10,object_09,565.09999999404,1,1,407.5,1.0,1,object_08,1,972,0,9,2,desert_3,2,memory-2step-stake-s,580,1429152,0.0-19.0-0.0-0.86,A2C8CPT60DE5V8,382GHPVPIV7ASJXQ3FB9V025S7G34H,337RC3OW09ITOJ4OJJLYPWSMZP2LVK,1,2
87,4,object_02,object_05,623.0,7,1,414.20000000298,0.7777777777777778,1,object_08,1,979,0,7,6,restaurant_5,2,memory-2step-stake-s,581,1437607,0.0-19.0-0.0-0.87,A2C8CPT60DE5V8,382GHPVPIV7ASJXQ3FB9V025S7G34H,337RC3OW09ITOJ4OJJLYPWSMZP2LVK,7,8
88,1,object_09,object_10,781.09999999404,1,2,549.59999999404,0.6666666666666666,1,object_08,1,985,0,6,3,desert_6,2,memory-2step-stake-s,582,1446086,0.0-19.0-0.0-0.88,A2C8CPT60DE5V8,382GHPVPIV7ASJXQ3FB9V025S7G34H,337RC3OW09ITOJ4OJJLYPWSMZP2LVK,2,1
89,4,object_02,object_05,571.79999999702,7,1,415.0,0.6666666666666666,1,object_08,1,991,0,6,4,restaurant_6,2,memory-2step-stake-s,583,1454428,0.0-19.0-0.0-0.89,A2C8CPT60DE5V8,382GHPVPIV7ASJXQ3FB9V025S7G34H,337RC3OW09ITOJ4OJJLYPWSMZP2LVK,7,8
90,1,object_09,object_10,507.5,1,2,343.89999999106,0.3333333333333333,1,object_08,5,1006,0,3,8,desert_7,2,memory-2step-stake-s,584,1462379,0.0-19.0-0.0-0.90,A2C8CPT60DE5V8,382GHPVPIV7ASJXQ3FB9V025S7G34H,337RC3OW09ITOJ4OJJLYPWSMZP2LVK,2,1
91,1,object_10,object_09,619.0,2,2,385.29999999702,0.7777777777777778,2,object_01,5,1041,0,5,7,desert_3,2,memory-2step-stake-s,585,1470821,0.0-19.0-0.0-0.91,A2C8CPT60DE5V8,382GHPVPIV7ASJXQ3FB9V025S7G34H,337RC3OW09ITOJ4OJJLYPWSMZP2LVK,1,2
92,2,object_07,object_03,471.09999999404,3,2,340.09999999404,0.6666666666666666,1,object_08,5,1071,0,6,8,forest_3,2,memory-2step-stake-s,586,1479068,0.0-19.0-0.0-0.92,A2C8CPT60DE5V8,382GHPVPIV7ASJXQ3FB9V025S7G34H,337RC3OW09ITOJ4OJJLYPWSMZP2LVK,4,3
93,1,object_09,object_10,759.5,2,1,397.90000000596,0.8888888888888888,2,object_01,1,1079,0,8,8,desert_8,2,memory-2step-stake-s,587,1487612,0.0-19.0-0.0-0.93,A2C8CPT60DE5V8,382GHPVPIV7ASJXQ3FB9V025S7G34H,337RC3OW09ITOJ4OJJLYPWSMZP2LVK,2,1
94,3,object_06,object_04,863.90000000596,6,2,449.80000001192,1.0,2,object_01,1,1088,0,8,9,library_1,2,memory-2step-stake-s,588,1496329,0.0-19.0-0.0-0.94,A2C8CPT60DE5V8,382GHPVPIV7ASJXQ3FB9V025S7G34H,337RC3OW09ITOJ4OJJLYPWSMZP2LVK,5,6
95,1,object_09,object_10,1084.6000000089,2,1,422.70000000298,0.8888888888888888,2,object_01,5,1128,0,6,8,desert_3,2,memory-2step-stake-s,589,1504912,0.0-19.0-0.0-0.95,A2C8CPT60DE5V8,382GHPVPIV7ASJXQ3FB9V025S7G34H,337RC3OW09ITOJ4OJJLYPWSMZP2LVK,2,1
96,3,object_04,object_06,618.70000000298,6,1,384.20000000298,0.6666666666666666,2,object_01,1,1134,0,6,6,library_1,2,memory-2step-stake-s,590,1513220,0.0-19.0-0.0-0.96,A2C8CPT60DE5V8,382GHPVPIV7ASJXQ3FB9V025S7G34H,337RC3OW09ITOJ4OJJLYPWSMZP2LVK,6,5
97,2,object_03,object_07,963.0,3,1,384.79999999702,0.8888888888888888,1,object_08,5,1174,0,8,8,forest_6,2,memory-2step-stake-s,591,1521721,0.0-19.0-0.0-0.97,A2C8CPT60DE5V8,382GHPVPIV7ASJXQ3FB9V025S7G34H,337RC3OW09ITOJ4OJJLYPWSMZP2LVK,3,4
98,3,object_06,object_04,854.0,6,2,368.89999999106,0.8888888888888888,2,object_01,1,1182,0,7,8,library_2,2,memory-2step-stake-s,592,1530240,0.0-19.0-0.0-0.98,A2C8CPT60DE5V8,382GHPVPIV7ASJXQ3FB9V025S7G34H,337RC3OW09ITOJ4OJJLYPWSMZP2LVK,5,6
99,1,object_10,object_09,880.29999999702,1,1,297.10000000894,0.4444444444444444,1,object_08,5,1202,0,4,4,desert_3,2,memory-2step-stake-s,593,1538217,0.0-19.0-0.0-0.99,A2C8CPT60DE5V8,382GHPVPIV7ASJXQ3FB9V025S7G34H,337RC3OW09ITOJ4OJJLYPWSMZP2LVK,1,2
100,3,object_06,object_04,1166.599999994,6,2,395.79999999702,0.5555555555555556,2,object_01,5,1227,0,1,5,library_1,2,memory-2step-stake-s,594,1546426,0.0-19.0-0.0-0.100,A2C8CPT60DE5V8,382GHPVPIV7ASJXQ3FB9V025S7G34H,337RC3OW09ITOJ4OJJLYPWSMZP2LVK,5,6
101,3,object_04,object_06,856.29999999702,5,2,479.60000000894,0.2222222222222222,1,object_08,1,1229,0,2,5,library_3,2,memory-2step-stake-s,595,1554393,0.0-19.0-0.0-0.101,A2C8CPT60DE5V8,382GHPVPIV7ASJXQ3FB9V025S7G34H,337RC3OW09ITOJ4OJJLYPWSMZP2LVK,6,5
102,2,object_03,object_07,1247.5,3,1,473.79999999702,0.4444444444444444,1,object_08,5,1249,0,4,3,forest_3,2,memory-2step-stake-s,596,1562559,0.0-19.0-0.0-0.102,A2C8CPT60DE5V8,382GHPVPIV7ASJXQ3FB9V025S7G34H,337RC3OW09ITOJ4OJJLYPWSMZP2LVK,3,4
103,2,object_07,object_03,742.70000000298,4,1,418.40000000596,0.5555555555555556,2,object_01,5,1274,0,7,5,forest_7,2,memory-2step-stake-s,597,1570811,0.0-19.0-0.0-0.103,A2C8CPT60DE5V8,382GHPVPIV7ASJXQ3FB9V025S7G34H,337RC3OW09ITOJ4OJJLYPWSMZP2LVK,4,3
104,2,object_03,object_07,640.89999999106,4,2,647.0,0.3333333333333333,2,object_01,1,1277,0,7,3,forest_3,2,memory-2step-stake-s,598,1579070,0.0-19.0-0.0-0.104,A2C8CPT60DE5V8,382GHPVPIV7ASJXQ3FB9V025S7G34H,337RC3OW09ITOJ4OJJLYPWSMZP2LVK,3,4
105,1,object_10,object_09,923.89999999106,1,1,385.0,1.0,1,object_08,5,1322,0,9,2,desert_7,2,memory-2step-stake-s,599,1587663,0.0-19.0-0.0-0.105,A2C8CPT60DE5V8,382GHPVPIV7ASJXQ3FB9V025S7G34H,337RC3OW09ITOJ4OJJLYPWSMZP2LVK,1,2
106,3,object_06,object_04,602.09999999404,5,1,759.30000001192,0.6666666666666666,1,object_08,1,1328,0,6,1,library_3,2,memory-2step-stake-s,600,1596348,0.0-19.0-0.0-0.106,A2C8CPT60DE5V8,382GHPVPIV7ASJXQ3FB9V025S7G34H,337RC3OW09ITOJ4OJJLYPWSMZP2LVK,5,6
107,4,object_05,object_02,559.20000000298,7,2,303.29999999702,0.6666666666666666,1,object_08,1,1334,0,6,1,restaurant_5,2,memory-2step-stake-s,601,1604562,0.0-19.0-0.0-0.107,A2C8CPT60DE5V8,382GHPVPIV7ASJXQ3FB9V025S7G34H,337RC3OW09ITOJ4OJJLYPWSMZP2LVK,8,7
108,1,object_09,object_10,740.5,1,2,330.5,0.4444444444444444,1,object_08,1,1338,0,4,2,desert_7,2,memory-2step-stake-s,602,1612586,0.0-19.0-0.0-0.108,A2C8CPT60DE5V8,382GHPVPIV7ASJXQ3FB9V025S7G34H,337RC3OW09ITOJ4OJJLYPWSMZP2LVK,2,1
109,3,object_06,object_04,442.10000000894,6,2,342.59999999404,0.1111111111111111,2,object_01,1,1339,0,8,1,library_3,2,memory-2step-stake-s,603,1620290,0.0-19.0-0.0-0.109,A2C8CPT60DE5V8,382GHPVPIV7ASJXQ3FB9V025S7G34H,337RC3OW09ITOJ4OJJLYPWSMZP2LVK,5,6
110,4,object_02,object_05,507.0,7,1,380.90000000596,0.7777777777777778,1,object_08,1,1346,0,7,2,restaurant_2,2,memory-2step-stake-s,604,1628703,0.0-19.0-0.0-0.110,A2C8CPT60DE5V8,382GHPVPIV7ASJXQ3FB9V025S7G34H,337RC3OW09ITOJ4OJJLYPWSMZP2LVK,7,8
111,4,object_02,object_05,490.69999998808,7,1,502.79999999702,0.6666666666666666,1,object_08,1,1352,0,6,3,restaurant_2,2,memory-2step-stake-s,605,1637135,0.0-19.0-0.0-0.111,A2C8CPT60DE5V8,382GHPVPIV7ASJXQ3FB9V025S7G34H,337RC3OW09ITOJ4OJJLYPWSMZP2LVK,7,8
112,4,object_02,object_05,416.20000000298,7,1,136.5,0.7777777777777778,1,object_08,1,1359,0,7,3,restaurant_6,2,memory-2step-stake-s,606,1645294,0.0-19.0-0.0-0.112,A2C8CPT60DE5V8,382GHPVPIV7ASJXQ3FB9V025S7G34H,337RC3OW09ITOJ4OJJLYPWSMZP2LVK,7,8
113,2,object_03,object_07,1016.5,3,1,344.60000000894,0.5555555555555556,1,object_08,5,1384,0,5,0,forest_3,2,memory-2step-stake-s,607,1653440,0.0-19.0-0.0-0.113,A2C8CPT60DE5V8,382GHPVPIV7ASJXQ3FB9V025S7G34H,337RC3OW09ITOJ4OJJLYPWSMZP2LVK,3,4
114,2,object_03,object_07,494.0,3,1,507.40000000596,0.4444444444444444,1,object_08,5,1404,0,4,1,forest_7,2,memory-2step-stake-s,608,1661638,0.0-19.0-0.0-0.114,A2C8CPT60DE5V8,382GHPVPIV7ASJXQ3FB9V025S7G34H,337RC3OW09ITOJ4OJJLYPWSMZP2LVK,3,4
115,1,object_10,object_09,1004.799999997,2,2,364.0,0.3333333333333333,2,object_01,5,1419,0,3,3,desert_6,2,memory-2step-stake-s,609,1669604,0.0-19.0-0.0-0.115,A2C8CPT60DE5V8,382GHPVPIV7ASJXQ3FB9V025S7G34H,337RC3OW09ITOJ4OJJLYPWSMZP2LVK,1,2
116,1,object_09,object_10,698.79999999702,1,2,321.70000000298,1.0,1,object_08,1,1428,0,9,1,desert_6,2,memory-2step-stake-s,610,1678206,0.0-19.0-0.0-0.116,A2C8CPT60DE5V8,382GHPVPIV7ASJXQ3FB9V025S7G34H,337RC3OW09ITOJ4OJJLYPWSMZP2LVK,2,1
117,2,object_07,object_03,894.69999998808,3,2,265.19999998808,0.5555555555555556,1,object_08,1,1433,0,5,2,forest_6,2,memory-2step-stake-s,611,1686270,0.0-19.0-0.0-0.117,A2C8CPT60DE5V8,382GHPVPIV7ASJXQ3FB9V025S7G34H,337RC3OW09ITOJ4OJJLYPWSMZP2LVK,4,3
118,2,object_03,object_07,812.70000000298,3,1,396.5,0.7777777777777778,1,object_08,5,1468,0,7,1,forest_7,2,memory-2step-stake-s,612,1694691,0.0-19.0-0.0-0.118,A2C8CPT60DE5V8,382GHPVPIV7ASJXQ3FB9V025S7G34H,337RC3OW09ITOJ4OJJLYPWSMZP2LVK,3,4
119,4,object_05,object_02,475.20000000298,7,2,300.59999999404,1.0,1,object_08,1,1477,0,9,2,restaurant_2,2,memory-2step-stake-s,613,1703263,0.0-19.0-0.0-0.119,A2C8CPT60DE5V8,382GHPVPIV7ASJXQ3FB9V025S7G34H,337RC3OW09ITOJ4OJJLYPWSMZP2LVK,8,7
120,3,object_06,object_04,525.90000000596,5,1,622.09999999404,0.8888888888888888,1,object_08,1,1485,0,8,4,library_4,2,memory-2step-stake-s,614,1711989,0.0-19.0-0.0-0.120,A2C8CPT60DE5V8,382GHPVPIV7ASJXQ3FB9V025S7G34H,337RC3OW09ITOJ4OJJLYPWSMZP2LVK,5,6
121,2,object_03,object_07,837.5,3,1,297.70000000298,0.6666666666666666,1,object_08,5,1515,0,6,5,forest_6,2,memory-2step-stake-s,615,1720245,0.0-19.0-0.0-0.121,A2C8CPT60DE5V8,382GHPVPIV7ASJXQ3FB9V025S7G34H,337RC3OW09ITOJ4OJJLYPWSMZP2LVK,3,4
122,3,object_04,object_06,577.5,5,2,339.40000000596,0.7777777777777778,1,object_08,1,1522,0,7,1,library_1,2,memory-2step-stake-s,616,1728591,0.0-19.0-0.0-0.122,A2C8CPT60DE5V8,382GHPVPIV7ASJXQ3FB9V025S7G34H,337RC3OW09ITOJ4OJJLYPWSMZP2LVK,6,5
123,4,object_05,object_02,446.20000000298,7,2,343.5,0.7777777777777778,1,object_08,1,1529,0,7,2,restaurant_5,2,memory-2step-stake-s,617,1736982,0.0-19.0-0.0-0.123,A2C8CPT60DE5V8,382GHPVPIV7ASJXQ3FB9V025S7G34H,337RC3OW09ITOJ4OJJLYPWSMZP2LVK,8,7
124,1,object_09,object_10,947.29999999702,2,1,346.89999999106,0.2222222222222222,2,object_01,1,1531,0,9,2,desert_3,2,memory-2step-stake-s,618,1744839,0.0-19.0-0.0-0.124,A2C8CPT60DE5V8,382GHPVPIV7ASJXQ3FB9V025S7G34H,337RC3OW09ITOJ4OJJLYPWSMZP2LVK,2,1
125,4,object_05,object_02,437.70000000298,7,2,333.40000000596,1.0,1,object_08,5,1576,0,9,1,restaurant_2,2,memory-2step-stake-s,619,1753419,0.0-19.0-0.0-0.125,A2C8CPT60DE5V8,382GHPVPIV7ASJXQ3FB9V025S7G34H,337RC3OW09ITOJ4OJJLYPWSMZP2LVK,8,7
126,3,object_04,object_06,650.5,5,2,412.09999999404,0.7777777777777778,1,object_08,1,1583,0,7,1,library_4,2,memory-2step-stake-s,620,1761870,0.0-19.0-0.0-0.126,A2C8CPT60DE5V8,382GHPVPIV7ASJXQ3FB9V025S7G34H,337RC3OW09ITOJ4OJJLYPWSMZP2LVK,6,5
127,3,object_04,object_06,500.79999999702,5,2,347.20000000298,0.8888888888888888,1,object_08,1,1591,0,8,0,library_4,2,memory-2step-stake-s,621,1770370,0.0-19.0-0.0-0.127,A2C8CPT60DE5V8,382GHPVPIV7ASJXQ3FB9V025S7G34H,337RC3OW09ITOJ4OJJLYPWSMZP2LVK,6,5
128,2,object_03,object_07,1020.5,3,1,1068.799999997,0.8888888888888888,1,object_08,5,1631,0,8,4,forest_7,2,memory-2step-stake-s,623,1826520,0.0-19.0-0.1-0.128,A2C8CPT60DE5V8,382GHPVPIV7ASJXQ3FB9V025S7G34H,337RC3OW09ITOJ4OJJLYPWSMZP2LVK,3,4
129,1,object_10,object_09,751.29999999702,1,1,530.09999999404,1.0,1,object_08,5,1676,0,9,2,desert_3,2,memory-2step-stake-s,624,1835316,0.0-19.0-0.1-0.129,A2C8CPT60DE5V8,382GHPVPIV7ASJXQ3FB9V025S7G34H,337RC3OW09ITOJ4OJJLYPWSMZP2LVK,1,2
130,3,object_06,object_04,625.40000000596,5,1,1170.799999997,0.5555555555555556,1,object_08,1,1681,0,5,1,library_4,2,memory-2step-stake-s,625,1844276,0.0-19.0-0.1-0.130,A2C8CPT60DE5V8,382GHPVPIV7ASJXQ3FB9V025S7G34H,337RC3OW09ITOJ4OJJLYPWSMZP2LVK,5,6
131,2,object_03,object_07,823.5,3,1,392.70000000298,0.8888888888888888,1,object_08,1,1689,0,8,7,forest_6,2,memory-2step-stake-s,626,1852847,0.0-19.0-0.1-0.131,A2C8CPT60DE5V8,382GHPVPIV7ASJXQ3FB9V025S7G34H,337RC3OW09ITOJ4OJJLYPWSMZP2LVK,3,4
132,4,object_02,object_05,714.70000000298,7,1,211.40000000596,1.0,1,object_08,1,1698,0,9,7,restaurant_3,2,memory-2step-stake-s,627,1861337,0.0-19.0-0.1-0.132,A2C8CPT60DE5V8,382GHPVPIV7ASJXQ3FB9V025S7G34H,337RC3OW09ITOJ4OJJLYPWSMZP2LVK,7,8
133,2,object_07,object_03,905.40000000596,3,2,407.69999998808,0.8888888888888888,1,object_08,1,1706,0,8,8,forest_4,2,memory-2step-stake-s,628,1869884,0.0-19.0-0.1-0.133,A2C8CPT60DE5V8,382GHPVPIV7ASJXQ3FB9V025S7G34H,337RC3OW09ITOJ4OJJLYPWSMZP2LVK,4,3
134,4,object_02,object_05,626.70000000298,7,1,951.79999999702,0.7777777777777778,1,object_08,1,1713,0,7,7,restaurant_5,2,memory-2step-stake-s,629,1878869,0.0-19.0-0.1-0.134,A2C8CPT60DE5V8,382GHPVPIV7ASJXQ3FB9V025S7G34H,337RC3OW09ITOJ4OJJLYPWSMZP2LVK,7,8
135,3,object_04,object_06,697.29999999702,5,2,481.89999999106,0.7777777777777778,1,object_08,5,1748,0,7,8,library_3,2,memory-2step-stake-s,630,1887404,0.0-19.0-0.1-0.135,A2C8CPT60DE5V8,382GHPVPIV7ASJXQ3FB9V025S7G34H,337RC3OW09ITOJ4OJJLYPWSMZP2LVK,6,5
136,1,object_10,object_09,790.40000000596,1,1,493.60000000894,0.6666666666666666,1,object_08,1,1754,0,6,7,desert_3,2,memory-2step-stake-s,631,1895814,0.0-19.0-0.1-0.136,A2C8CPT60DE5V8,382GHPVPIV7ASJXQ3FB9V025S7G34H,337RC3OW09ITOJ4OJJLYPWSMZP2LVK,1,2
137,2,object_07,object_03,961.20000000298,3,2,341.10000000894,0.4444444444444444,1,object_08,5,1774,0,4,3,forest_6,2,memory-2step-stake-s,632,1903864,0.0-19.0-0.1-0.137,A2C8CPT60DE5V8,382GHPVPIV7ASJXQ3FB9V025S7G34H,337RC3OW09ITOJ4OJJLYPWSMZP2LVK,4,3
138,1,object_09,object_10,941.69999998808,1,2,351.89999999106,0.4444444444444444,1,object_08,5,1794,0,4,2,desert_3,2,memory-2step-stake-s,633,1911938,0.0-19.0-0.1-0.138,A2C8CPT60DE5V8,382GHPVPIV7ASJXQ3FB9V025S7G34H,337RC3OW09ITOJ4OJJLYPWSMZP2LVK,2,1
139,1,object_09,object_10,832.0,2,1,288.29999999702,0.1111111111111111,2,object_01,5,1799,0,6,1,desert_7,2,memory-2step-stake-s,634,1919578,0.0-19.0-0.1-0.139,A2C8CPT60DE5V8,382GHPVPIV7ASJXQ3FB9V025S7G34H,337RC3OW09ITOJ4OJJLYPWSMZP2LVK,2,1
140,3,object_04,object_06,1150.3999999911,5,2,439.5,0.5555555555555556,1,object_08,1,1804,0,5,0,library_4,2,memory-2step-stake-s,635,1927791,0.0-19.0-0.1-0.140,A2C8CPT60DE5V8,382GHPVPIV7ASJXQ3FB9V025S7G34H,337RC3OW09ITOJ4OJJLYPWSMZP2LVK,6,5
141,3,object_04,object_06,719.5,5,2,917.10000000894,0.7777777777777778,1,object_08,1,1811,0,7,0,library_3,2,memory-2step-stake-s,636,1936763,0.0-19.0-0.1-0.141,A2C8CPT60DE5V8,382GHPVPIV7ASJXQ3FB9V025S7G34H,337RC3OW09ITOJ4OJJLYPWSMZP2LVK,6,5
142,4,object_02,object_05,542.30000001192,7,1,378.5,0.6666666666666666,1,object_08,1,1817,0,6,1,restaurant_3,2,memory-2step-stake-s,637,1945069,0.0-19.0-0.1-0.142,A2C8CPT60DE5V8,382GHPVPIV7ASJXQ3FB9V025S7G34H,337RC3OW09ITOJ4OJJLYPWSMZP2LVK,7,8
143,3,object_04,object_06,805.70000000298,6,1,455.70000000298,0.1111111111111111,2,object_01,1,1818,0,9,1,library_4,2,memory-2step-stake-s,638,1952897,0.0-19.0-0.1-0.143,A2C8CPT60DE5V8,382GHPVPIV7ASJXQ3FB9V025S7G34H,337RC3OW09ITOJ4OJJLYPWSMZP2LVK,6,5
144,4,object_05,object_02,710.90000000596,7,2,591.60000000894,1.0,1,object_08,1,1827,0,9,1,restaurant_3,2,memory-2step-stake-s,639,1961723,0.0-19.0-0.1-0.144,A2C8CPT60DE5V8,382GHPVPIV7ASJXQ3FB9V025S7G34H,337RC3OW09ITOJ4OJJLYPWSMZP2LVK,8,7
145,4,object_05,object_02,566.09999999404,7,2,373.29999999702,1.0,1,object_08,1,1836,0,9,2,restaurant_6,2,memory-2step-stake-s,640,1970337,0.0-19.0-0.1-0.145,A2C8CPT60DE5V8,382GHPVPIV7ASJXQ3FB9V025S7G34H,337RC3OW09ITOJ4OJJLYPWSMZP2LVK,8,7
146,1,object_10,object_09,700.5,1,1,368.79999999702,0.8888888888888888,1,object_08,5,1876,0,8,2,desert_8,2,memory-2step-stake-s,641,1978823,0.0-19.0-0.1-0.146,A2C8CPT60DE5V8,382GHPVPIV7ASJXQ3FB9V025S7G34H,337RC3OW09ITOJ4OJJLYPWSMZP2LVK,1,2
147,2,object_07,object_03,754.59999999404,3,2,312.0,0.8888888888888888,1,object_08,5,1916,0,8,3,forest_3,2,memory-2step-stake-s,642,1987291,0.0-19.0-0.1-0.147,A2C8CPT60DE5V8,382GHPVPIV7ASJXQ3FB9V025S7G34H,337RC3OW09ITOJ4OJJLYPWSMZP2LVK,4,3
148,2,object_07,object_03,709.90000000596,3,2,303.40000000596,1.0,1,object_08,1,1925,0,9,5,forest_4,2,memory-2step-stake-s,643,1995848,0.0-19.0-0.1-0.148,A2C8CPT60DE5V8,382GHPVPIV7ASJXQ3FB9V025S7G34H,337RC3OW09ITOJ4OJJLYPWSMZP2LVK,4,3
149,3,object_04,object_06,632.5,5,2,403.09999999404,0.8888888888888888,1,object_08,1,1933,0,8,6,library_2,2,memory-2step-stake-s,644,2004378,0.0-19.0-0.1-0.149,A2C8CPT60DE5V8,382GHPVPIV7ASJXQ3FB9V025S7G34H,337RC3OW09ITOJ4OJJLYPWSMZP2LVK,6,5
150,2,object_07,object_03,596.70000000298,3,2,430.90000000596,0.3333333333333333,1,object_08,5,1948,0,3,6,forest_4,2,memory-2step-stake-s,645,2012395,0.0-19.0-0.1-0.150,A2C8CPT60DE5V8,382GHPVPIV7ASJXQ3FB9V025S7G34H,337RC3OW09ITOJ4OJJLYPWSMZP2LVK,4,3
151,1,object_09,object_10,702.89999999106,1,2,377.40000000596,0.2222222222222222,1,object_08,5,1958,0,2,2,desert_7,2,memory-2step-stake-s,646,2020253,0.0-19.0-0.1-0.151,A2C8CPT60DE5V8,382GHPVPIV7ASJXQ3FB9V025S7G34H,337RC3OW09ITOJ4OJJLYPWSMZP2LVK,2,1
152,3,object_04,object_06,-1.0,-1,-1,-1.0,0.0,-,0,5,1958,0,0,4,library_1,2,memory-2step-stake-s,647,2026807,0.0-19.0-0.1-0.152,A2C8CPT60DE5V8,382GHPVPIV7ASJXQ3FB9V025S7G34H,337RC3OW09ITOJ4OJJLYPWSMZP2LVK,6,5
153,2,object_07,object_03,622.19999998808,4,1,250.89999999106,0.5555555555555556,2,object_01,5,1983,0,2,5,forest_4,2,memory-2step-stake-s,648,2034877,0.0-19.0-0.1-0.153,A2C8CPT60DE5V8,382GHPVPIV7ASJXQ3FB9V025S7G34H,337RC3OW09ITOJ4OJJLYPWSMZP2LVK,4,3
154,2,object_07,object_03,711.70000000298,4,1,327.5,0.2222222222222222,2,object_01,5,1993,0,1,2,forest_7,2,memory-2step-stake-s,649,2042664,0.0-19.0-0.1-0.154,A2C8CPT60DE5V8,382GHPVPIV7ASJXQ3FB9V025S7G34H,337RC3OW09ITOJ4OJJLYPWSMZP2LVK,4,3
155,1,object_10,object_09,668.0,1,1,351.20000000298,0.2222222222222222,1,object_08,1,1995,0,2,3,desert_6,2,memory-2step-stake-s,650,2050502,0.0-19.0-0.1-0.155,A2C8CPT60DE5V8,382GHPVPIV7ASJXQ3FB9V025S7G34H,337RC3OW09ITOJ4OJJLYPWSMZP2LVK,1,2
156,3,object_06,object_04,800.10000000894,6,2,309.5,0.4444444444444444,2,object_01,1,1999,0,3,4,library_4,2,memory-2step-stake-s,651,2058493,0.0-19.0-0.1-0.156,A2C8CPT60DE5V8,382GHPVPIV7ASJXQ3FB9V025S7G34H,337RC3OW09ITOJ4OJJLYPWSMZP2LVK,5,6
157,1,object_09,object_10,670.40000000596,2,1,334.40000000596,0.3333333333333333,2,object_01,1,2002,0,2,3,desert_7,2,memory-2step-stake-s,652,2066409,0.0-19.0-0.1-0.157,A2C8CPT60DE5V8,382GHPVPIV7ASJXQ3FB9V025S7G34H,337RC3OW09ITOJ4OJJLYPWSMZP2LVK,2,1
158,3,object_06,object_04,686.5,5,1,328.89999999106,0.0,1,object_08,1,2002,0,0,4,library_3,2,memory-2step-stake-s,653,2074005,0.0-19.0-0.1-0.158,A2C8CPT60DE5V8,382GHPVPIV7ASJXQ3FB9V025S7G34H,337RC3OW09ITOJ4OJJLYPWSMZP2LVK,5,6
159,1,object_09,object_10,700.0,2,1,320.29999999702,0.4444444444444444,2,object_01,5,2022,0,1,4,desert_6,2,memory-2step-stake-s,654,2082034,0.0-19.0-0.1-0.159,A2C8CPT60DE5V8,382GHPVPIV7ASJXQ3FB9V025S7G34H,337RC3OW09ITOJ4OJJLYPWSMZP2LVK,2,1
160,4,object_05,object_02,660.5,8,1,302.5,0.4444444444444444,2,object_01,5,2042,0,4,4,restaurant_3,2,memory-2step-stake-s,655,2090058,0.0-19.0-0.1-0.160,A2C8CPT60DE5V8,382GHPVPIV7ASJXQ3FB9V025S7G34H,337RC3OW09ITOJ4OJJLYPWSMZP2LVK,8,7
161,2,object_03,object_07,715.20000000298,4,2,278.90000000596,0.3333333333333333,2,object_01,5,2057,0,4,3,forest_6,2,memory-2step-stake-s,656,2097904,0.0-19.0-0.1-0.161,A2C8CPT60DE5V8,382GHPVPIV7ASJXQ3FB9V025S7G34H,337RC3OW09ITOJ4OJJLYPWSMZP2LVK,3,4
162,1,object_10,object_09,692.40000000596,2,2,342.59999999404,0.0,2,object_01,5,2057,0,8,0,desert_6,2,memory-2step-stake-s,657,2105512,0.0-19.0-0.1-0.162,A2C8CPT60DE5V8,382GHPVPIV7ASJXQ3FB9V025S7G34H,337RC3OW09ITOJ4OJJLYPWSMZP2LVK,1,2
163,2,object_07,object_03,703.20000000298,3,2,302.5,0.6666666666666666,1,object_08,5,2087,0,6,2,forest_3,2,memory-2step-stake-s,658,2113745,0.0-19.0-0.1-0.163,A2C8CPT60DE5V8,382GHPVPIV7ASJXQ3FB9V025S7G34H,337RC3OW09ITOJ4OJJLYPWSMZP2LVK,4,3
164,1,object_10,object_09,964.40000000596,1,1,278.79999999702,0.7777777777777778,1,object_08,5,2122,0,7,3,desert_7,2,memory-2step-stake-s,659,2122057,0.0-19.0-0.1-0.164,A2C8CPT60DE5V8,382GHPVPIV7ASJXQ3FB9V025S7G34H,337RC3OW09ITOJ4OJJLYPWSMZP2LVK,1,2
165,4,object_05,object_02,642.60000000894,7,2,389.59999999404,1.0,1,object_08,1,2131,0,9,6,restaurant_6,2,memory-2step-stake-s,660,2130702,0.0-19.0-0.1-0.165,A2C8CPT60DE5V8,382GHPVPIV7ASJXQ3FB9V025S7G34H,337RC3OW09ITOJ4OJJLYPWSMZP2LVK,8,7
166,2,object_07,object_03,645.59999999404,3,2,364.90000000596,0.5555555555555556,1,object_08,1,2136,0,5,4,forest_6,2,memory-2step-stake-s,661,2138869,0.0-19.0-0.1-0.166,A2C8CPT60DE5V8,382GHPVPIV7ASJXQ3FB9V025S7G34H,337RC3OW09ITOJ4OJJLYPWSMZP2LVK,4,3
167,4,object_05,object_02,504.89999999106,7,2,320.09999999404,0.6666666666666666,1,object_08,1,2142,0,6,3,restaurant_5,2,memory-2step-stake-s,662,2147143,0.0-19.0-0.1-0.167,A2C8CPT60DE5V8,382GHPVPIV7ASJXQ3FB9V025S7G34H,337RC3OW09ITOJ4OJJLYPWSMZP2LVK,8,7
168,2,object_03,object_07,664.5,3,1,500.80000001192,0.8888888888888888,1,object_08,1,2150,0,8,4,forest_7,2,memory-2step-stake-s,663,2155809,0.0-19.0-0.1-0.168,A2C8CPT60DE5V8,382GHPVPIV7ASJXQ3FB9V025S7G34H,337RC3OW09ITOJ4OJJLYPWSMZP2LVK,3,4
169,1,object_10,object_09,755.89999999106,1,1,266.70000000298,0.4444444444444444,1,object_08,5,2170,0,4,4,desert_6,2,memory-2step-stake-s,664,2163790,0.0-19.0-0.1-0.169,A2C8CPT60DE5V8,382GHPVPIV7ASJXQ3FB9V025S7G34H,337RC3OW09ITOJ4OJJLYPWSMZP2LVK,1,2
170,1,object_09,object_10,720.39999999106,1,2,236.59999999404,0.6666666666666666,1,object_08,5,2200,0,6,2,desert_3,2,memory-2step-stake-s,665,2171944,0.0-19.0-0.1-0.170,A2C8CPT60DE5V8,382GHPVPIV7ASJXQ3FB9V025S7G34H,337RC3OW09ITOJ4OJJLYPWSMZP2LVK,2,1
171,4,object_02,object_05,631.39999999106,7,1,420.79999999702,0.7777777777777778,1,object_08,1,2207,0,7,5,restaurant_5,2,memory-2step-stake-s,666,2180416,0.0-19.0-0.1-0.171,A2C8CPT60DE5V8,382GHPVPIV7ASJXQ3FB9V025S7G34H,337RC3OW09ITOJ4OJJLYPWSMZP2LVK,7,8
172,1,object_09,object_10,685.5,1,2,355.70000000298,0.8888888888888888,1,object_08,5,2247,0,8,6,desert_3,2,memory-2step-stake-s,667,2188902,0.0-19.0-0.1-0.172,A2C8CPT60DE5V8,382GHPVPIV7ASJXQ3FB9V025S7G34H,337RC3OW09ITOJ4OJJLYPWSMZP2LVK,2,1
173,2,object_07,object_03,488.0,3,2,103.79999999702,0.5555555555555556,1,object_08,1,2252,0,5,5,forest_7,2,memory-2step-stake-s,668,2196829,0.0-19.0-0.1-0.173,A2C8CPT60DE5V8,382GHPVPIV7ASJXQ3FB9V025S7G34H,337RC3OW09ITOJ4OJJLYPWSMZP2LVK,4,3
174,4,object_02,object_05,657.0,7,1,849.60000000894,0.0,1,object_08,1,2252,0,0,4,restaurant_6,2,memory-2step-stake-s,669,2204953,0.0-19.0-0.1-0.174,A2C8CPT60DE5V8,382GHPVPIV7ASJXQ3FB9V025S7G34H,337RC3OW09ITOJ4OJJLYPWSMZP2LVK,7,8
175,4,object_02,object_05,423.90000000596,8,2,372.70000000298,0.4444444444444444,2,object_01,5,2272,0,3,4,restaurant_3,2,memory-2step-stake-s,670,2213024,0.0-19.0-0.1-0.175,A2C8CPT60DE5V8,382GHPVPIV7ASJXQ3FB9V025S7G34H,337RC3OW09ITOJ4OJJLYPWSMZP2LVK,7,8
176,3,object_04,object_06,594.19999998808,5,2,339.40000000596,0.0,1,object_08,1,2272,0,0,5,library_2,2,memory-2step-stake-s,671,2220624,0.0-19.0-0.1-0.176,A2C8CPT60DE5V8,382GHPVPIV7ASJXQ3FB9V025S7G34H,337RC3OW09ITOJ4OJJLYPWSMZP2LVK,6,5
177,2,object_07,object_03,692.5,3,2,293.69999998808,0.1111111111111111,1,object_08,5,2277,0,1,5,forest_3,2,memory-2step-stake-s,672,2228317,0.0-19.0-0.1-0.177,A2C8CPT60DE5V8,382GHPVPIV7ASJXQ3FB9V025S7G34H,337RC3OW09ITOJ4OJJLYPWSMZP2LVK,4,3
178,3,object_06,object_04,718.0,6,2,313.20000000298,0.6666666666666666,2,object_01,1,2283,0,0,6,library_1,2,memory-2step-stake-s,673,2236557,0.0-19.0-0.1-0.178,A2C8CPT60DE5V8,382GHPVPIV7ASJXQ3FB9V025S7G34H,337RC3OW09ITOJ4OJJLYPWSMZP2LVK,5,6
179,4,object_05,object_02,612.80000001192,8,1,272.20000000298,0.7777777777777778,2,object_01,1,2290,0,0,7,restaurant_3,2,memory-2step-stake-s,674,2244878,0.0-19.0-0.1-0.179,A2C8CPT60DE5V8,382GHPVPIV7ASJXQ3FB9V025S7G34H,337RC3OW09ITOJ4OJJLYPWSMZP2LVK,8,7
180,3,object_06,object_04,462.79999999702,6,2,312.90000000596,0.6666666666666666,2,object_01,1,2296,0,1,6,library_1,2,memory-2step-stake-s,675,2253133,0.0-19.0-0.1-0.180,A2C8CPT60DE5V8,382GHPVPIV7ASJXQ3FB9V025S7G34H,337RC3OW09ITOJ4OJJLYPWSMZP2LVK,5,6
181,2,object_07,object_03,756.59999999404,3,2,349.80000001192,0.2222222222222222,1,object_08,1,2298,0,2,1,forest_3,2,memory-2step-stake-s,676,2260940,0.0-19.0-0.1-0.181,A2C8CPT60DE5V8,382GHPVPIV7ASJXQ3FB9V025S7G34H,337RC3OW09ITOJ4OJJLYPWSMZP2LVK,4,3
182,3,object_04,object_06,683.29999999702,6,1,385.0,0.1111111111111111,2,object_01,1,2299,0,3,1,library_1,2,memory-2step-stake-s,677,2268674,0.0-19.0-0.1-0.182,A2C8CPT60DE5V8,382GHPVPIV7ASJXQ3FB9V025S7G34H,337RC3OW09ITOJ4OJJLYPWSMZP2LVK,6,5
183,2,object_03,object_07,645.19999998808,3,1,249.89999999106,0.3333333333333333,1,object_08,1,2302,0,3,0,forest_7,2,memory-2step-stake-s,678,2276522,0.0-19.0-0.1-0.183,A2C8CPT60DE5V8,382GHPVPIV7ASJXQ3FB9V025S7G34H,337RC3OW09ITOJ4OJJLYPWSMZP2LVK,3,4
184,4,object_05,object_02,823.29999999702,7,2,416.0,0.5555555555555556,1,object_08,1,2307,0,5,4,restaurant_2,2,memory-2step-stake-s,679,2284759,0.0-19.0-0.1-0.184,A2C8CPT60DE5V8,382GHPVPIV7ASJXQ3FB9V025S7G34H,337RC3OW09ITOJ4OJJLYPWSMZP2LVK,8,7
185,3,object_04,object_06,460.69999998808,5,2,301.90000000596,1.0,1,object_08,1,2316,0,9,4,library_4,2,memory-2step-stake-s,680,2293326,0.0-19.0-0.1-0.185,A2C8CPT60DE5V8,382GHPVPIV7ASJXQ3FB9V025S7G34H,337RC3OW09ITOJ4OJJLYPWSMZP2LVK,6,5
186,4,object_05,object_02,376.40000000596,7,2,373.09999999404,0.8888888888888888,1,object_08,5,2356,0,8,6,restaurant_5,2,memory-2step-stake-s,681,2301847,0.0-19.0-0.1-0.186,A2C8CPT60DE5V8,382GHPVPIV7ASJXQ3FB9V025S7G34H,337RC3OW09ITOJ4OJJLYPWSMZP2LVK,8,7
187,3,object_04,object_06,643.09999999404,5,2,305.39999999106,0.7777777777777778,1,object_08,1,2363,0,7,6,library_4,2,memory-2step-stake-s,682,2310205,0.0-19.0-0.1-0.187,A2C8CPT60DE5V8,382GHPVPIV7ASJXQ3FB9V025S7G34H,337RC3OW09ITOJ4OJJLYPWSMZP2LVK,6,5
188,1,object_10,object_09,674.20000000298,1,1,362.90000000596,0.6666666666666666,1,object_08,5,2393,0,6,9,desert_3,2,memory-2step-stake-s,683,2318469,0.0-19.0-0.1-0.188,A2C8CPT60DE5V8,382GHPVPIV7ASJXQ3FB9V025S7G34H,337RC3OW09ITOJ4OJJLYPWSMZP2LVK,1,2
189,2,object_07,object_03,675.10000000894,3,2,344.29999999702,0.6666666666666666,1,object_08,5,2423,0,6,8,forest_7,2,memory-2step-stake-s,684,2326724,0.0-19.0-0.1-0.189,A2C8CPT60DE5V8,382GHPVPIV7ASJXQ3FB9V025S7G34H,337RC3OW09ITOJ4OJJLYPWSMZP2LVK,4,3
190,4,object_02,object_05,524.29999999702,7,1,537.70000000298,1.0,1,object_08,1,2432,0,9,7,restaurant_3,2,memory-2step-stake-s,685,2335530,0.0-19.0-0.1-0.190,A2C8CPT60DE5V8,382GHPVPIV7ASJXQ3FB9V025S7G34H,337RC3OW09ITOJ4OJJLYPWSMZP2LVK,7,8
191,4,object_02,object_05,529.59999999404,7,1,389.0,0.7777777777777778,1,object_08,1,2439,0,7,7,restaurant_2,2,memory-2step-stake-s,686,2343964,0.0-19.0-0.1-0.191,A2C8CPT60DE5V8,382GHPVPIV7ASJXQ3FB9V025S7G34H,337RC3OW09ITOJ4OJJLYPWSMZP2LVK,7,8
192,3,object_06,object_04,770.69999998808,5,1,295.5,0.8888888888888888,1,object_08,1,2447,0,8,8,library_2,2,memory-2step-stake-s,687,2352391,0.0-19.0-0.1-0.192,A2C8CPT60DE5V8,382GHPVPIV7ASJXQ3FB9V025S7G34H,337RC3OW09ITOJ4OJJLYPWSMZP2LVK,5,6
193,4,object_05,object_02,414.60000000894,7,2,409.5,1.0,1,object_08,1,2456,0,9,6,restaurant_2,2,memory-2step-stake-s,688,2361077,0.0-19.0-0.1-0.193,A2C8CPT60DE5V8,382GHPVPIV7ASJXQ3FB9V025S7G34H,337RC3OW09ITOJ4OJJLYPWSMZP2LVK,8,7
194,2,object_03,object_07,373.29999999702,3,1,1036.799999997,0.7777777777777778,1,object_08,5,2491,0,7,8,forest_7,2,memory-2step-stake-s,689,2370136,0.0-19.0-0.1-0.194,A2C8CPT60DE5V8,382GHPVPIV7ASJXQ3FB9V025S7G34H,337RC3OW09ITOJ4OJJLYPWSMZP2LVK,3,4
195,1,object_10,object_09,691.5,1,1,439.29999999702,0.8888888888888888,1,object_08,1,2499,0,8,6,desert_7,2,memory-2step-stake-s,690,2378727,0.0-19.0-0.1-0.195,A2C8CPT60DE5V8,382GHPVPIV7ASJXQ3FB9V025S7G34H,337RC3OW09ITOJ4OJJLYPWSMZP2LVK,1,2
196,2,object_03,object_07,670.09999999404,3,1,393.89999999106,0.2222222222222222,1,object_08,5,2509,0,2,5,forest_3,2,memory-2step-stake-s,691,2386593,0.0-19.0-0.1-0.196,A2C8CPT60DE5V8,382GHPVPIV7ASJXQ3FB9V025S7G34H,337RC3OW09ITOJ4OJJLYPWSMZP2LVK,3,4
197,1,object_10,object_09,380.0,2,2,403.40000000596,0.5555555555555556,2,object_01,1,2514,0,1,5,desert_8,2,memory-2step-stake-s,692,2394816,0.0-19.0-0.1-0.197,A2C8CPT60DE5V8,382GHPVPIV7ASJXQ3FB9V025S7G34H,337RC3OW09ITOJ4OJJLYPWSMZP2LVK,1,2
198,1,object_09,object_10,722.10000000894,2,1,281.09999999404,1.0,2,object_01,5,2559,0,4,9,desert_7,2,memory-2step-stake-s,693,2403380,0.0-19.0-0.1-0.198,A2C8CPT60DE5V8,382GHPVPIV7ASJXQ3FB9V025S7G34H,337RC3OW09ITOJ4OJJLYPWSMZP2LVK,2,1
199,2,object_03,object_07,780.0,4,2,322.60000000894,0.7777777777777778,2,object_01,1,2566,0,2,7,forest_4,2,memory-2step-stake-s,694,2411737,0.0-19.0-0.1-0.199,A2C8CPT60DE5V8,382GHPVPIV7ASJXQ3FB9V025S7G34H,337RC3OW09ITOJ4OJJLYPWSMZP2LVK,3,4
200,4,object_02,object_05,494.20000000298,8,2,328.80000001192,1.0,2,object_01,1,2575,0,2,9,restaurant_5,2,memory-2step-stake-s,695,2420338,0.0-19.0-0.1-0.200,A2C8CPT60DE5V8,382GHPVPIV7ASJXQ3FB9V025S7G34H,337RC3OW09ITOJ4OJJLYPWSMZP2LVK,7,8
201,3,object_06,object_04,512.59999999404,6,2,348.69999998808,0.8888888888888888,2,object_01,1,2583,0,1,8,library_3,2,memory-2step-stake-s,696,2428843,0.0-19.0-0.1-0.201,A2C8CPT60DE5V8,382GHPVPIV7ASJXQ3FB9V025S7G34H,337RC3OW09ITOJ4OJJLYPWSMZP2LVK,5,6
202,1,object_09,object_10,648.29999999702,2,1,257.29999999702,0.7777777777777778,2,object_01,5,2618,0,0,7,desert_7,2,memory-2step-stake-s,697,2437115,0.0-19.0-0.1-0.202,A2C8CPT60DE5V8,382GHPVPIV7ASJXQ3FB9V025S7G34H,337RC3OW09ITOJ4OJJLYPWSMZP2LVK,2,1
203,1,object_10,object_09,896.79999999702,2,2,386.70000000298,0.6666666666666666,2,object_01,5,2648,0,1,6,desert_8,2,memory-2step-stake-s,698,2445424,0.0-19.0-0.1-0.203,A2C8CPT60DE5V8,382GHPVPIV7ASJXQ3FB9V025S7G34H,337RC3OW09ITOJ4OJJLYPWSMZP2LVK,1,2
204,3,object_04,object_06,637.79999999702,6,1,384.29999999702,0.2222222222222222,2,object_01,5,2658,0,0,2,library_2,2,memory-2step-stake-s,699,2453310,0.0-19.0-0.1-0.204,A2C8CPT60DE5V8,382GHPVPIV7ASJXQ3FB9V025S7G34H,337RC3OW09ITOJ4OJJLYPWSMZP2LVK,6,5
205,3,object_06,object_04,587.90000000596,5,1,263.89999999106,0.6666666666666666,1,object_08,1,2664,0,6,1,library_2,2,memory-2step-stake-s,700,2461476,0.0-19.0-0.1-0.205,A2C8CPT60DE5V8,382GHPVPIV7ASJXQ3FB9V025S7G34H,337RC3OW09ITOJ4OJJLYPWSMZP2LVK,5,6
206,2,object_03,object_07,663.19999998808,3,1,302.90000000596,0.7777777777777778,1,object_08,5,2699,0,7,1,forest_3,2,memory-2step-stake-s,701,2469834,0.0-19.0-0.1-0.206,A2C8CPT60DE5V8,382GHPVPIV7ASJXQ3FB9V025S7G34H,337RC3OW09ITOJ4OJJLYPWSMZP2LVK,3,4
207,2,object_07,object_03,656.40000000596,3,2,288.70000000298,0.6666666666666666,1,object_08,5,2729,0,6,4,forest_7,2,memory-2step-stake-s,702,2478054,0.0-19.0-0.1-0.207,A2C8CPT60DE5V8,382GHPVPIV7ASJXQ3FB9V025S7G34H,337RC3OW09ITOJ4OJJLYPWSMZP2LVK,4,3
208,4,object_02,object_05,620.40000000596,7,1,278.10000000894,0.5555555555555556,1,object_08,1,2734,0,5,4,restaurant_3,2,memory-2step-stake-s,703,2486130,0.0-19.0-0.1-0.208,A2C8CPT60DE5V8,382GHPVPIV7ASJXQ3FB9V025S7G34H,337RC3OW09ITOJ4OJJLYPWSMZP2LVK,7,8
209,1,object_09,object_10,586.0,1,2,362.39999999106,0.3333333333333333,1,object_08,5,2749,0,3,4,desert_6,2,memory-2step-stake-s,704,2494104,0.0-19.0-0.1-0.209,A2C8CPT60DE5V8,382GHPVPIV7ASJXQ3FB9V025S7G34H,337RC3OW09ITOJ4OJJLYPWSMZP2LVK,2,1
210,3,object_04,object_06,605.39999999106,6,1,291.0,0.6666666666666666,2,object_01,5,2779,0,7,6,library_1,2,memory-2step-stake-s,705,2502320,0.0-19.0-0.1-0.210,A2C8CPT60DE5V8,382GHPVPIV7ASJXQ3FB9V025S7G34H,337RC3OW09ITOJ4OJJLYPWSMZP2LVK,6,5
211,3,object_06,object_04,442.10000000894,6,2,245.0,0.3333333333333333,2,object_01,1,2782,0,2,3,library_3,2,memory-2step-stake-s,706,2510171,0.0-19.0-0.1-0.211,A2C8CPT60DE5V8,382GHPVPIV7ASJXQ3FB9V025S7G34H,337RC3OW09ITOJ4OJJLYPWSMZP2LVK,5,6
212,3,object_06,object_04,640.5,5,1,356.70000000298,0.3333333333333333,1,object_08,1,2785,0,3,3,library_4,2,memory-2step-stake-s,707,2518136,0.0-19.0-0.1-0.212,A2C8CPT60DE5V8,382GHPVPIV7ASJXQ3FB9V025S7G34H,337RC3OW09ITOJ4OJJLYPWSMZP2LVK,5,6
213,4,object_02,object_05,516.5,8,2,429.19999998808,0.5555555555555556,2,object_01,1,2790,0,2,5,restaurant_5,2,memory-2step-stake-s,708,2526375,0.0-19.0-0.1-0.213,A2C8CPT60DE5V8,382GHPVPIV7ASJXQ3FB9V025S7G34H,337RC3OW09ITOJ4OJJLYPWSMZP2LVK,7,8
214,4,object_05,object_02,594.70000000298,8,1,292.09999999404,0.8888888888888888,2,object_01,5,2830,0,0,8,restaurant_6,2,memory-2step-stake-s,709,2534834,0.0-19.0-0.1-0.214,A2C8CPT60DE5V8,382GHPVPIV7ASJXQ3FB9V025S7G34H,337RC3OW09ITOJ4OJJLYPWSMZP2LVK,8,7
215,3,object_06,object_04,440.59999999404,6,2,298.29999999702,0.8888888888888888,2,object_01,5,2870,0,4,8,library_4,2,memory-2step-stake-s,710,2543248,0.0-19.0-0.1-0.215,A2C8CPT60DE5V8,382GHPVPIV7ASJXQ3FB9V025S7G34H,337RC3OW09ITOJ4OJJLYPWSMZP2LVK,5,6
216,3,object_04,object_06,592.89999999106,6,1,351.5,0.5555555555555556,2,object_01,1,2875,0,6,5,library_2,2,memory-2step-stake-s,711,2551420,0.0-19.0-0.1-0.216,A2C8CPT60DE5V8,382GHPVPIV7ASJXQ3FB9V025S7G34H,337RC3OW09ITOJ4OJJLYPWSMZP2LVK,6,5
217,4,object_02,object_05,603.70000000298,8,2,277.89999999106,0.5555555555555556,2,object_01,5,2900,0,6,5,restaurant_3,2,memory-2step-stake-s,712,2559484,0.0-19.0-0.1-0.217,A2C8CPT60DE5V8,382GHPVPIV7ASJXQ3FB9V025S7G34H,337RC3OW09ITOJ4OJJLYPWSMZP2LVK,7,8
218,2,object_07,object_03,621.89999999106,3,2,379.5,0.8888888888888888,1,object_08,5,2940,0,8,5,forest_4,2,memory-2step-stake-s,713,2568014,0.0-19.0-0.1-0.218,A2C8CPT60DE5V8,382GHPVPIV7ASJXQ3FB9V025S7G34H,337RC3OW09ITOJ4OJJLYPWSMZP2LVK,4,3
219,3,object_04,object_06,495.29999999702,5,2,327.29999999702,0.6666666666666666,1,object_08,1,2946,0,6,7,library_4,2,memory-2step-stake-s,714,2576281,0.0-19.0-0.1-0.219,A2C8CPT60DE5V8,382GHPVPIV7ASJXQ3FB9V025S7G34H,337RC3OW09ITOJ4OJJLYPWSMZP2LVK,6,5
220,3,object_06,object_04,946.40000000596,5,1,1322.0,0.6666666666666666,1,object_08,1,2952,0,6,8,library_1,2,memory-2step-stake-s,715,2585518,0.0-19.0-0.1-0.220,A2C8CPT60DE5V8,382GHPVPIV7ASJXQ3FB9V025S7G34H,337RC3OW09ITOJ4OJJLYPWSMZP2LVK,5,6
221,1,object_10,object_09,624.0,1,1,278.40000000596,0.4444444444444444,1,object_08,5,2972,0,4,6,desert_8,2,memory-2step-stake-s,716,2593488,0.0-19.0-0.1-0.221,A2C8CPT60DE5V8,382GHPVPIV7ASJXQ3FB9V025S7G34H,337RC3OW09ITOJ4OJJLYPWSMZP2LVK,1,2
222,1,object_10,object_09,404.10000000894,2,2,225.5,0.7777777777777778,2,object_01,5,3007,0,5,7,desert_7,2,memory-2step-stake-s,717,2601753,0.0-19.0-0.1-0.222,A2C8CPT60DE5V8,382GHPVPIV7ASJXQ3FB9V025S7G34H,337RC3OW09ITOJ4OJJLYPWSMZP2LVK,1,2
223,4,object_02,object_05,436.69999998808,8,2,353.90000000596,0.6666666666666666,2,object_01,1,3013,0,7,6,restaurant_2,2,memory-2step-stake-s,718,2610039,0.0-19.0-0.1-0.223,A2C8CPT60DE5V8,382GHPVPIV7ASJXQ3FB9V025S7G34H,337RC3OW09ITOJ4OJJLYPWSMZP2LVK,7,8
224,3,object_06,object_04,416.5,5,1,279.80000001192,0.5555555555555556,1,object_08,1,3018,0,5,7,library_2,2,memory-2step-stake-s,719,2618121,0.0-19.0-0.1-0.224,A2C8CPT60DE5V8,382GHPVPIV7ASJXQ3FB9V025S7G34H,337RC3OW09ITOJ4OJJLYPWSMZP2LVK,5,6
225,2,object_03,object_07,467.59999999404,3,1,262.09999999404,1.0,1,object_08,1,3027,0,9,7,forest_7,2,memory-2step-stake-s,720,2626604,0.0-19.0-0.1-0.225,A2C8CPT60DE5V8,382GHPVPIV7ASJXQ3FB9V025S7G34H,337RC3OW09ITOJ4OJJLYPWSMZP2LVK,3,4
226,3,object_06,object_04,449.59999999404,5,1,321.0,0.4444444444444444,1,object_08,5,3047,0,4,8,library_2,2,memory-2step-stake-s,721,2634662,0.0-19.0-0.1-0.226,A2C8CPT60DE5V8,382GHPVPIV7ASJXQ3FB9V025S7G34H,337RC3OW09ITOJ4OJJLYPWSMZP2LVK,5,6
227,3,object_06,object_04,510.59999999404,5,1,334.90000000596,0.7777777777777778,1,object_08,1,3054,0,7,8,library_4,2,memory-2step-stake-s,722,2643045,0.0-19.0-0.1-0.227,A2C8CPT60DE5V8,382GHPVPIV7ASJXQ3FB9V025S7G34H,337RC3OW09ITOJ4OJJLYPWSMZP2LVK,5,6
228,2,object_07,object_03,358.90000000596,3,2,252.60000000894,1.0,1,object_08,5,3099,0,9,7,forest_3,2,memory-2step-stake-s,723,2651558,0.0-19.0-0.1-0.228,A2C8CPT60DE5V8,382GHPVPIV7ASJXQ3FB9V025S7G34H,337RC3OW09ITOJ4OJJLYPWSMZP2LVK,4,3
229,2,object_07,object_03,366.0,3,2,304.10000000894,0.8888888888888888,1,object_08,5,3139,0,8,5,forest_4,2,memory-2step-stake-s,724,2659999,0.0-19.0-0.1-0.229,A2C8CPT60DE5V8,382GHPVPIV7ASJXQ3FB9V025S7G34H,337RC3OW09ITOJ4OJJLYPWSMZP2LVK,4,3
230,1,object_09,object_10,403.79999999702,1,2,285.29999999702,0.7777777777777778,1,object_08,5,3174,0,7,6,desert_7,2,memory-2step-stake-s,725,2668317,0.0-19.0-0.1-0.230,A2C8CPT60DE5V8,382GHPVPIV7ASJXQ3FB9V025S7G34H,337RC3OW09ITOJ4OJJLYPWSMZP2LVK,2,1
231,2,object_03,object_07,463.40000000596,3,1,323.69999998808,1.0,1,object_08,5,3219,0,9,2,forest_6,2,memory-2step-stake-s,726,2676893,0.0-19.0-0.1-0.231,A2C8CPT60DE5V8,382GHPVPIV7ASJXQ3FB9V025S7G34H,337RC3OW09ITOJ4OJJLYPWSMZP2LVK,3,4
232,3,object_06,object_04,400.40000000596,5,1,547.60000000894,0.8888888888888888,1,object_08,1,3227,0,8,2,library_2,2,memory-2step-stake-s,727,2685561,0.0-19.0-0.1-0.232,A2C8CPT60DE5V8,382GHPVPIV7ASJXQ3FB9V025S7G34H,337RC3OW09ITOJ4OJJLYPWSMZP2LVK,5,6
233,3,object_06,object_04,369.5,5,1,372.5,0.7777777777777778,1,object_08,1,3234,0,7,1,library_2,2,memory-2step-stake-s,728,2693974,0.0-19.0-0.1-0.233,A2C8CPT60DE5V8,382GHPVPIV7ASJXQ3FB9V025S7G34H,337RC3OW09ITOJ4OJJLYPWSMZP2LVK,5,6
234,4,object_02,object_05,430.59999999404,7,1,279.90000000596,0.8888888888888888,1,object_08,1,3242,0,8,0,restaurant_3,2,memory-2step-stake-s,729,2702388,0.0-19.0-0.1-0.234,A2C8CPT60DE5V8,382GHPVPIV7ASJXQ3FB9V025S7G34H,337RC3OW09ITOJ4OJJLYPWSMZP2LVK,7,8
235,3,object_04,object_06,460.70000000298,5,2,366.89999999106,0.6666666666666666,1,object_08,1,3248,0,6,0,library_1,2,memory-2step-stake-s,730,2710680,0.0-19.0-0.1-0.235,A2C8CPT60DE5V8,382GHPVPIV7ASJXQ3FB9V025S7G34H,337RC3OW09ITOJ4OJJLYPWSMZP2LVK,6,5
236,4,object_02,object_05,494.70000000298,7,1,485.70000000298,0.6666666666666666,1,object_08,1,3254,0,6,2,restaurant_6,2,memory-2step-stake-s,731,2719080,0.0-19.0-0.1-0.236,A2C8CPT60DE5V8,382GHPVPIV7ASJXQ3FB9V025S7G34H,337RC3OW09ITOJ4OJJLYPWSMZP2LVK,7,8
237,4,object_02,object_05,399.19999998808,7,1,348.79999999702,0.3333333333333333,1,object_08,1,3257,0,3,3,restaurant_5,2,memory-2step-stake-s,732,2727018,0.0-19.0-0.1-0.237,A2C8CPT60DE5V8,382GHPVPIV7ASJXQ3FB9V025S7G34H,337RC3OW09ITOJ4OJJLYPWSMZP2LVK,7,8
238,1,object_10,object_09,402.0,2,2,253.59999999404,0.2222222222222222,2,object_01,1,3259,0,4,2,desert_8,2,memory-2step-stake-s,733,2734757,0.0-19.0-0.1-0.238,A2C8CPT60DE5V8,382GHPVPIV7ASJXQ3FB9V025S7G34H,337RC3OW09ITOJ4OJJLYPWSMZP2LVK,1,2
239,4,object_02,object_05,404.89999999106,8,2,273.69999998808,0.2222222222222222,2,object_01,1,3261,0,5,2,restaurant_2,2,memory-2step-stake-s,734,2742494,0.0-19.0-0.1-0.239,A2C8CPT60DE5V8,382GHPVPIV7ASJXQ3FB9V025S7G34H,337RC3OW09ITOJ4OJJLYPWSMZP2LVK,7,8
240,2,object_07,object_03,385.0,3,2,272.40000000596,0.5555555555555556,1,object_08,5,3286,0,5,4,forest_3,2,memory-2step-stake-s,735,2750591,0.0-19.0-0.1-0.240,A2C8CPT60DE5V8,382GHPVPIV7ASJXQ3FB9V025S7G34H,337RC3OW09ITOJ4OJJLYPWSMZP2LVK,4,3
241,2,object_03,object_07,501.79999999702,3,1,303.09999999404,0.7777777777777778,1,object_08,1,3293,0,7,4,forest_6,2,memory-2step-stake-s,736,2758940,0.0-19.0-0.1-0.241,A2C8CPT60DE5V8,382GHPVPIV7ASJXQ3FB9V025S7G34H,337RC3OW09ITOJ4OJJLYPWSMZP2LVK,3,4
242,1,object_10,object_09,491.89999999106,1,1,341.40000000596,0.8888888888888888,1,object_08,5,3333,0,8,8,desert_7,2,memory-2step-stake-s,737,2767434,0.0-19.0-0.1-0.242,A2C8CPT60DE5V8,382GHPVPIV7ASJXQ3FB9V025S7G34H,337RC3OW09ITOJ4OJJLYPWSMZP2LVK,1,2
243,2,object_07,object_03,664.0,3,2,308.09999999404,0.8888888888888888,1,object_08,5,3373,0,8,8,forest_6,2,memory-2step-stake-s,738,2775882,0.0-19.0-0.1-0.243,A2C8CPT60DE5V8,382GHPVPIV7ASJXQ3FB9V025S7G34H,337RC3OW09ITOJ4OJJLYPWSMZP2LVK,4,3
244,4,object_02,object_05,433.59999999404,7,1,473.20000000298,0.7777777777777778,1,object_08,1,3380,0,7,6,restaurant_6,2,memory-2step-stake-s,739,2784367,0.0-19.0-0.1-0.244,A2C8CPT60DE5V8,382GHPVPIV7ASJXQ3FB9V025S7G34H,337RC3OW09ITOJ4OJJLYPWSMZP2LVK,7,8
245,2,object_03,object_07,392.5,3,1,545.19999998808,0.8888888888888888,1,object_08,1,3388,0,8,5,forest_6,2,memory-2step-stake-s,740,2793058,0.0-19.0-0.1-0.245,A2C8CPT60DE5V8,382GHPVPIV7ASJXQ3FB9V025S7G34H,337RC3OW09ITOJ4OJJLYPWSMZP2LVK,3,4
246,4,object_02,object_05,378.70000000298,7,1,427.70000000298,0.6666666666666666,1,object_08,1,3394,0,6,5,restaurant_2,2,memory-2step-stake-s,741,2801409,0.0-19.0-0.1-0.246,A2C8CPT60DE5V8,382GHPVPIV7ASJXQ3FB9V025S7G34H,337RC3OW09ITOJ4OJJLYPWSMZP2LVK,7,8
247,3,object_06,object_04,557.79999999702,5,1,317.40000000596,0.8888888888888888,1,object_08,1,3402,0,8,4,library_4,2,memory-2step-stake-s,742,2809872,0.0-19.0-0.1-0.247,A2C8CPT60DE5V8,382GHPVPIV7ASJXQ3FB9V025S7G34H,337RC3OW09ITOJ4OJJLYPWSMZP2LVK,5,6
248,1,object_09,object_10,534.70000000298,1,2,411.29999999702,0.7777777777777778,1,object_08,5,3437,0,7,4,desert_8,2,memory-2step-stake-s,743,2818315,0.0-19.0-0.1-0.248,A2C8CPT60DE5V8,382GHPVPIV7ASJXQ3FB9V025S7G34H,337RC3OW09ITOJ4OJJLYPWSMZP2LVK,2,1
249,4,object_02,object_05,403.5,7,1,397.90000000596,0.5555555555555556,1,object_08,1,3442,0,5,6,restaurant_2,2,memory-2step-stake-s,744,2826513,0.0-19.0-0.1-0.249,A2C8CPT60DE5V8,382GHPVPIV7ASJXQ3FB9V025S7G34H,337RC3OW09ITOJ4OJJLYPWSMZP2LVK,7,8
250,4,object_02,object_05,540.40000000596,7,1,316.09999999404,0.6666666666666666,1,object_08,5,3472,0,6,4,restaurant_3,2,memory-2step-stake-s,745,2834747,0.0-19.0-0.1-0.250,A2C8CPT60DE5V8,382GHPVPIV7ASJXQ3FB9V025S7G34H,337RC3OW09ITOJ4OJJLYPWSMZP2LVK,7,8
251,4,object_02,object_05,400.5,7,1,350.79999999702,0.7777777777777778,1,object_08,5,3507,0,7,4,restaurant_6,2,memory-2step-stake-s,746,2843138,0.0-19.0-0.1-0.251,A2C8CPT60DE5V8,382GHPVPIV7ASJXQ3FB9V025S7G34H,337RC3OW09ITOJ4OJJLYPWSMZP2LVK,7,8
252,3,object_04,object_06,502.69999998808,5,2,326.5,0.6666666666666666,1,object_08,5,3537,0,6,6,library_3,2,memory-2step-stake-s,747,2851387,0.0-19.0-0.1-0.252,A2C8CPT60DE5V8,382GHPVPIV7ASJXQ3FB9V025S7G34H,337RC3OW09ITOJ4OJJLYPWSMZP2LVK,6,5
253,2,object_03,object_07,601.40000000596,3,1,411.79999999702,0.4444444444444444,1,object_08,5,3557,0,4,5,forest_3,2,memory-2step-stake-s,748,2859506,0.0-19.0-0.1-0.253,A2C8CPT60DE5V8,382GHPVPIV7ASJXQ3FB9V025S7G34H,337RC3OW09ITOJ4OJJLYPWSMZP2LVK,3,4
254,1,object_09,object_10,706.80000001192,2,1,331.10000000894,0.3333333333333333,2,object_01,5,3572,0,3,3,desert_6,2,memory-2step-stake-s,749,2867419,0.0-19.0-0.1-0.254,A2C8CPT60DE5V8,382GHPVPIV7ASJXQ3FB9V025S7G34H,337RC3OW09ITOJ4OJJLYPWSMZP2LVK,2,1
255,2,object_07,object_03,404.70000000298,3,2,309.70000000298,0.4444444444444444,1,object_08,5,3592,0,4,2,forest_4,2,memory-2step-stake-s,750,2875434,0.0-19.0-0.1-0.255,A2C8CPT60DE5V8,382GHPVPIV7ASJXQ3FB9V025S7G34H,337RC3OW09ITOJ4OJJLYPWSMZP2LVK,4,3
