,state1,stim_left,stim_right,rt_1,choice1,response1,rt_2,points,state2,stim_state2,stake,score,practice,rews1,rews2,background,high_arm,trial_type,trial_index,time_elapsed,internal_node_id,subid,hitid,assignmentid,stim_left_num,stim_right_num
0,4,object_06,object_01,807.0,8,1,1416.6000000015,0.2222222222222222,2,object_07,5,10,0,3,2,restaurant_1,1,memory-2step-stake-s,497,825326,0.0-19.0-0.0-0.0,A3191G66DZEGEB,32CXT5U15JJVAEXBU2XNZL8A76W8U1,3ERET4BTVQPK7693VI41IEQAJXF9KQ,8,7
1,4,object_06,object_01,536.10000000149,7,2,594.89999999851,0.2222222222222222,1,object_09,5,20,0,2,1,restaurant_4,1,memory-2step-stake-s,498,833333,0.0-19.0-0.0-0.1,A3191G66DZEGEB,32CXT5U15JJVAEXBU2XNZL8A76W8U1,3ERET4BTVQPK7693VI41IEQAJXF9KQ,8,7
2,3,object_03,object_04,136.19999999925,6,1,484.5,0.2222222222222222,2,object_07,5,30,0,2,2,library_3,1,memory-2step-stake-s,499,841233,0.0-19.0-0.0-0.2,A3191G66DZEGEB,32CXT5U15JJVAEXBU2XNZL8A76W8U1,3ERET4BTVQPK7693VI41IEQAJXF9KQ,6,5
3,1,object_02,object_08,816.59999999776,1,1,730.80000000075,0.2222222222222222,1,object_09,5,40,0,2,0,desert_2,1,memory-2step-stake-s,500,849386,0.0-19.0-0.0-0.3,A3191G66DZEGEB,32CXT5U15JJVAEXBU2XNZL8A76W8U1,3ERET4BTVQPK7693VI41IEQAJXF9KQ,1,2
4,4,object_06,object_01,50.10000000149,8,1,555.10000000149,0.2222222222222222,2,object_07,5,50,0,2,2,restaurant_7,1,memory-2step-stake-s,501,857356,0.0-19.0-0.0-0.4,A3191G66DZEGEB,32CXT5U15JJVAEXBU2XNZL8A76W8U1,3ERET4BTVQPK7693VI41IEQAJXF9KQ,8,7
5,3,object_03,object_04,438.29999999702,5,2,497.19999999925,0.1111111111111111,1,object_09,5,55,0,1,1,library_2,1,memory-2step-stake-s,502,865173,0.0-19.0-0.0-0.5,A3191G66DZEGEB,32CXT5U15JJVAEXBU2XNZL8A76W8U1,3ERET4BTVQPK7693VI41IEQAJXF9KQ,6,5
6,4,object_06,object_01,388.10000000149,7,2,417.0,0.1111111111111111,1,object_09,5,60,0,1,5,restaurant_5,1,memory-2step-stake-s,503,872909,0.0-19.0-0.0-0.6,A3191G66DZEGEB,32CXT5U15JJVAEXBU2XNZL8A76W8U1,3ERET4BTVQPK7693VI41IEQAJXF9KQ,8,7
7,3,object_04,object_03,303.60000000149,5,1,459.59999999776,0.1111111111111111,1,object_09,1,61,0,1,1,library_2,1,memory-2step-stake-s,504,880683,0.0-19.0-0.0-0.7,A3191G66DZEGEB,32CXT5U15JJVAEXBU2XNZL8A76W8U1,3ERET4BTVQPK7693VI41IEQAJXF9KQ,5,6
8,2,object_10,object_05,682.29999999702,3,2,498.5,0.3333333333333333,1,object_09,1,64,0,3,1,forest_6,1,memory-2step-stake-s,505,888703,0.0-19.0-0.0-0.8,A3191G66DZEGEB,32CXT5U15JJVAEXBU2XNZL8A76W8U1,3ERET4BTVQPK7693VI41IEQAJXF9KQ,4,3
9,2,object_10,object_05,630.5,3,2,665.89999999851,0.3333333333333333,1,object_09,1,67,0,3,1,forest_7,1,memory-2step-stake-s,506,896885,0.0-19.0-0.0-0.9,A3191G66DZEGEB,32CXT5U15JJVAEXBU2XNZL8A76W8U1,3ERET4BTVQPK7693VI41IEQAJXF9KQ,4,3
10,4,object_01,object_06,670.90000000224,7,1,424.30000000075,0.6666666666666666,1,object_09,5,97,0,6,2,restaurant_1,1,memory-2step-stake-s,507,905133,0.0-19.0-0.0-0.10,A3191G66DZEGEB,32CXT5U15JJVAEXBU2XNZL8A76W8U1,3ERET4BTVQPK7693VI41IEQAJXF9KQ,7,8
11,1,object_02,object_08,1055.700000003,2,2,561.19999999925,0.3333333333333333,2,object_07,1,100,0,4,3,desert_8,1,memory-2step-stake-s,508,913216,0.0-19.0-0.0-0.11,A3191G66DZEGEB,32CXT5U15JJVAEXBU2XNZL8A76W8U1,3ERET4BTVQPK7693VI41IEQAJXF9KQ,1,2
12,2,object_10,object_05,332.10000000149,3,2,430.80000000075,0.2222222222222222,1,object_09,1,102,0,2,2,forest_7,1,memory-2step-stake-s,509,921073,0.0-19.0-0.0-0.12,A3191G66DZEGEB,32CXT5U15JJVAEXBU2XNZL8A76W8U1,3ERET4BTVQPK7693VI41IEQAJXF9KQ,4,3
13,2,object_10,object_05,501.10000000149,4,1,507.10000000149,0.3333333333333333,2,object_07,1,105,0,3,3,forest_2,1,memory-2step-stake-s,510,929104,0.0-19.0-0.0-0.13,A3191G66DZEGEB,32CXT5U15JJVAEXBU2XNZL8A76W8U1,3ERET4BTVQPK7693VI41IEQAJXF9KQ,4,3
14,2,object_10,object_05,512.80000000075,3,2,371.40000000224,0.0,1,object_09,1,105,0,0,3,forest_7,1,memory-2step-stake-s,511,936695,0.0-19.0-0.0-0.14,A3191G66DZEGEB,32CXT5U15JJVAEXBU2XNZL8A76W8U1,3ERET4BTVQPK7693VI41IEQAJXF9KQ,4,3
15,1,object_02,object_08,711.5,2,2,353.5,0.1111111111111111,2,object_07,5,110,0,1,1,desert_5,1,memory-2step-stake-s,512,944361,0.0-19.0-0.0-0.15,A3191G66DZEGEB,32CXT5U15JJVAEXBU2XNZL8A76W8U1,3ERET4BTVQPK7693VI41IEQAJXF9KQ,1,2
16,4,object_06,object_01,564.19999999925,7,2,408.5,0.0,1,object_09,5,110,0,0,4,restaurant_7,1,memory-2step-stake-s,513,951982,0.0-19.0-0.0-0.16,A3191G66DZEGEB,32CXT5U15JJVAEXBU2XNZL8A76W8U1,3ERET4BTVQPK7693VI41IEQAJXF9KQ,8,7
17,2,object_10,object_05,608.69999999925,3,2,451.0,0.2222222222222222,1,object_09,1,112,0,2,3,forest_7,1,memory-2step-stake-s,514,959850,0.0-19.0-0.0-0.17,A3191G66DZEGEB,32CXT5U15JJVAEXBU2XNZL8A76W8U1,3ERET4BTVQPK7693VI41IEQAJXF9KQ,4,3
18,2,object_05,object_10,403.90000000224,3,1,470.09999999776,0.3333333333333333,1,object_09,1,115,0,3,2,forest_2,1,memory-2step-stake-s,515,967839,0.0-19.0-0.0-0.18,A3191G66DZEGEB,32CXT5U15JJVAEXBU2XNZL8A76W8U1,3ERET4BTVQPK7693VI41IEQAJXF9KQ,3,4
19,4,object_01,object_06,639.79999999702,7,1,528.69999999925,0.2222222222222222,1,object_09,5,125,0,2,4,restaurant_7,1,memory-2step-stake-s,516,975786,0.0-19.0-0.0-0.19,A3191G66DZEGEB,32CXT5U15JJVAEXBU2XNZL8A76W8U1,3ERET4BTVQPK7693VI41IEQAJXF9KQ,7,8
20,1,object_08,object_02,565.0,2,1,479.19999999925,0.3333333333333333,2,object_07,5,140,0,0,3,desert_8,1,memory-2step-stake-s,517,983779,0.0-19.0-0.0-0.20,A3191G66DZEGEB,32CXT5U15JJVAEXBU2XNZL8A76W8U1,3ERET4BTVQPK7693VI41IEQAJXF9KQ,2,1
21,2,object_05,object_10,380.39999999851,4,2,630.60000000149,0.3333333333333333,2,object_07,1,143,0,1,3,forest_3,1,memory-2step-stake-s,518,991924,0.0-19.0-0.0-0.21,A3191G66DZEGEB,32CXT5U15JJVAEXBU2XNZL8A76W8U1,3ERET4BTVQPK7693VI41IEQAJXF9KQ,3,4
22,1,object_02,object_08,312.59999999776,2,2,604.60000000149,0.1111111111111111,2,object_07,1,144,0,0,1,desert_7,1,memory-2step-stake-s,519,999845,0.0-19.0-0.0-0.22,A3191G66DZEGEB,32CXT5U15JJVAEXBU2XNZL8A76W8U1,3ERET4BTVQPK7693VI41IEQAJXF9KQ,1,2
23,3,object_04,object_03,649.30000000075,5,1,461.5,0.0,1,object_09,5,144,0,0,0,library_2,1,memory-2step-stake-s,520,1007519,0.0-19.0-0.0-0.23,A3191G66DZEGEB,32CXT5U15JJVAEXBU2XNZL8A76W8U1,3ERET4BTVQPK7693VI41IEQAJXF9KQ,5,6
24,2,object_10,object_05,535.0,3,2,456.30000000075,0.3333333333333333,1,object_09,1,147,0,3,0,forest_6,1,memory-2step-stake-s,521,1015493,0.0-19.0-0.0-0.24,A3191G66DZEGEB,32CXT5U15JJVAEXBU2XNZL8A76W8U1,3ERET4BTVQPK7693VI41IEQAJXF9KQ,4,3
25,2,object_05,object_10,744.70000000298,3,1,467.60000000149,0.3333333333333333,1,object_09,1,150,0,3,1,forest_2,1,memory-2step-stake-s,522,1023479,0.0-19.0-0.0-0.25,A3191G66DZEGEB,32CXT5U15JJVAEXBU2XNZL8A76W8U1,3ERET4BTVQPK7693VI41IEQAJXF9KQ,3,4
26,4,object_01,object_06,723.29999999702,7,1,417.80000000075,0.0,1,object_09,5,150,0,0,0,restaurant_1,1,memory-2step-stake-s,523,1031122,0.0-19.0-0.0-0.26,A3191G66DZEGEB,32CXT5U15JJVAEXBU2XNZL8A76W8U1,3ERET4BTVQPK7693VI41IEQAJXF9KQ,7,8
27,1,object_02,object_08,559.5,2,2,425.79999999702,0.0,2,object_07,1,150,0,0,0,desert_2,1,memory-2step-stake-s,524,1038766,0.0-19.0-0.0-0.27,A3191G66DZEGEB,32CXT5U15JJVAEXBU2XNZL8A76W8U1,3ERET4BTVQPK7693VI41IEQAJXF9KQ,1,2
28,1,object_08,object_02,675.89999999851,1,2,511.0,0.3333333333333333,1,object_09,1,153,0,3,0,desert_7,1,memory-2step-stake-s,525,1046798,0.0-19.0-0.0-0.28,A3191G66DZEGEB,32CXT5U15JJVAEXBU2XNZL8A76W8U1,3ERET4BTVQPK7693VI41IEQAJXF9KQ,2,1
29,2,object_05,object_10,394.39999999851,3,1,508.19999999925,0.3333333333333333,1,object_09,5,168,0,3,2,forest_3,1,memory-2step-stake-s,526,1054834,0.0-19.0-0.0-0.29,A3191G66DZEGEB,32CXT5U15JJVAEXBU2XNZL8A76W8U1,3ERET4BTVQPK7693VI41IEQAJXF9KQ,3,4
30,4,object_06,object_01,496.90000000224,8,1,718.40000000224,0.2222222222222222,2,object_07,5,178,0,2,2,restaurant_4,1,memory-2step-stake-s,527,1062970,0.0-19.0-0.0-0.30,A3191G66DZEGEB,32CXT5U15JJVAEXBU2XNZL8A76W8U1,3ERET4BTVQPK7693VI41IEQAJXF9KQ,8,7
31,3,object_03,object_04,446.40000000224,6,1,555.69999999925,0.4444444444444444,2,object_07,5,198,0,2,4,library_8,1,memory-2step-stake-s,528,1071155,0.0-19.0-0.0-0.31,A3191G66DZEGEB,32CXT5U15JJVAEXBU2XNZL8A76W8U1,3ERET4BTVQPK7693VI41IEQAJXF9KQ,6,5
32,3,object_04,object_03,476.19999999925,6,2,511.60000000149,0.3333333333333333,2,object_07,1,201,0,1,3,library_4,1,memory-2step-stake-s,529,1079192,0.0-19.0-0.0-0.32,A3191G66DZEGEB,32CXT5U15JJVAEXBU2XNZL8A76W8U1,3ERET4BTVQPK7693VI41IEQAJXF9KQ,5,6
33,3,object_03,object_04,508.30000000075,6,1,826.79999999702,0.2222222222222222,2,object_07,5,211,0,4,2,library_4,1,memory-2step-stake-s,530,1087443,0.0-19.0-0.0-0.33,A3191G66DZEGEB,32CXT5U15JJVAEXBU2XNZL8A76W8U1,3ERET4BTVQPK7693VI41IEQAJXF9KQ,6,5
34,1,object_02,object_08,585.5,2,2,774.5,0.1111111111111111,2,object_07,5,216,0,2,1,desert_5,1,memory-2step-stake-s,531,1095539,0.0-19.0-0.0-0.34,A3191G66DZEGEB,32CXT5U15JJVAEXBU2XNZL8A76W8U1,3ERET4BTVQPK7693VI41IEQAJXF9KQ,1,2
35,1,object_08,object_02,580.80000000075,2,1,410.0,0.1111111111111111,2,object_07,1,217,0,0,1,desert_7,1,memory-2step-stake-s,532,1103275,0.0-19.0-0.0-0.35,A3191G66DZEGEB,32CXT5U15JJVAEXBU2XNZL8A76W8U1,3ERET4BTVQPK7693VI41IEQAJXF9KQ,2,1
36,1,object_02,object_08,549.19999999925,2,2,340.09999999776,0.4444444444444444,2,object_07,1,221,0,2,4,desert_5,1,memory-2step-stake-s,533,1111240,0.0-19.0-0.0-0.36,A3191G66DZEGEB,32CXT5U15JJVAEXBU2XNZL8A76W8U1,3ERET4BTVQPK7693VI41IEQAJXF9KQ,1,2
37,4,object_06,object_01,446.5,8,1,369.29999999702,0.4444444444444444,2,object_07,1,225,0,4,4,restaurant_1,1,memory-2step-stake-s,534,1119228,0.0-19.0-0.0-0.37,A3191G66DZEGEB,32CXT5U15JJVAEXBU2XNZL8A76W8U1,3ERET4BTVQPK7693VI41IEQAJXF9KQ,8,7
38,2,object_10,object_05,723.40000000224,4,1,820.90000000224,0.7777777777777778,2,object_07,1,232,0,3,7,forest_2,1,memory-2step-stake-s,535,1127973,0.0-19.0-0.0-0.38,A3191G66DZEGEB,32CXT5U15JJVAEXBU2XNZL8A76W8U1,3ERET4BTVQPK7693VI41IEQAJXF9KQ,4,3
39,4,object_06,object_01,457.10000000149,8,1,526.19999999925,0.6666666666666666,2,object_07,5,262,0,3,6,restaurant_5,1,memory-2step-stake-s,536,1136322,0.0-19.0-0.0-0.39,A3191G66DZEGEB,32CXT5U15JJVAEXBU2XNZL8A76W8U1,3ERET4BTVQPK7693VI41IEQAJXF9KQ,8,7
40,4,object_06,object_01,443.69999999925,7,2,446.79999999702,0.1111111111111111,1,object_09,5,267,0,1,7,restaurant_4,1,memory-2step-stake-s,537,1144084,0.0-19.0-0.0-0.40,A3191G66DZEGEB,32CXT5U15JJVAEXBU2XNZL8A76W8U1,3ERET4BTVQPK7693VI41IEQAJXF9KQ,8,7
41,2,object_05,object_10,801.69999999925,3,1,731.40000000224,0.0,1,object_09,1,267,0,0,4,forest_6,1,memory-2step-stake-s,538,1152031,0.0-19.0-0.0-0.41,A3191G66DZEGEB,32CXT5U15JJVAEXBU2XNZL8A76W8U1,3ERET4BTVQPK7693VI41IEQAJXF9KQ,3,4
42,1,object_02,object_08,438.5,2,2,624.0,0.3333333333333333,2,object_07,1,270,0,1,3,desert_2,1,memory-2step-stake-s,539,1160174,0.0-19.0-0.0-0.42,A3191G66DZEGEB,32CXT5U15JJVAEXBU2XNZL8A76W8U1,3ERET4BTVQPK7693VI41IEQAJXF9KQ,1,2
43,1,object_08,object_02,367.10000000149,2,1,491.10000000149,0.2222222222222222,2,object_07,1,272,0,2,2,desert_2,1,memory-2step-stake-s,540,1168082,0.0-19.0-0.0-0.43,A3191G66DZEGEB,32CXT5U15JJVAEXBU2XNZL8A76W8U1,3ERET4BTVQPK7693VI41IEQAJXF9KQ,2,1
44,3,object_03,object_04,660.30000000075,6,1,497.90000000224,0.2222222222222222,2,object_07,5,282,0,1,2,library_8,1,memory-2step-stake-s,541,1175995,0.0-19.0-0.0-0.44,A3191G66DZEGEB,32CXT5U15JJVAEXBU2XNZL8A76W8U1,3ERET4BTVQPK7693VI41IEQAJXF9KQ,6,5
45,3,object_04,object_03,547.30000000075,6,2,382.69999999925,0.3333333333333333,2,object_07,5,297,0,1,3,library_8,1,memory-2step-stake-s,542,1183894,0.0-19.0-0.0-0.45,A3191G66DZEGEB,32CXT5U15JJVAEXBU2XNZL8A76W8U1,3ERET4BTVQPK7693VI41IEQAJXF9KQ,5,6
46,1,object_02,object_08,576.5,1,1,417.40000000224,0.1111111111111111,1,object_09,1,298,0,1,2,desert_5,1,memory-2step-stake-s,543,1191629,0.0-19.0-0.0-0.46,A3191G66DZEGEB,32CXT5U15JJVAEXBU2XNZL8A76W8U1,3ERET4BTVQPK7693VI41IEQAJXF9KQ,1,2
47,3,object_03,object_04,1385.0,5,2,522.39999999851,0.0,1,object_09,5,298,0,0,1,library_4,1,memory-2step-stake-s,544,1199367,0.0-19.0-0.0-0.47,A3191G66DZEGEB,32CXT5U15JJVAEXBU2XNZL8A76W8U1,3ERET4BTVQPK7693VI41IEQAJXF9KQ,6,5
48,4,object_06,object_01,751.5,8,1,1012.3999999985,0.2222222222222222,2,object_07,5,308,0,1,2,restaurant_1,1,memory-2step-stake-s,545,1207803,0.0-19.0-0.0-0.48,A3191G66DZEGEB,32CXT5U15JJVAEXBU2XNZL8A76W8U1,3ERET4BTVQPK7693VI41IEQAJXF9KQ,8,7
49,2,object_05,object_10,648.80000000075,4,2,950.90000000224,0.1111111111111111,2,object_07,5,313,0,5,1,forest_7,1,memory-2step-stake-s,546,1216075,0.0-19.0-0.0-0.49,A3191G66DZEGEB,32CXT5U15JJVAEXBU2XNZL8A76W8U1,3ERET4BTVQPK7693VI41IEQAJXF9KQ,3,4
50,2,object_05,object_10,756.5,3,1,594.5,0.1111111111111111,1,object_09,1,314,0,1,1,forest_6,1,memory-2step-stake-s,547,1223997,0.0-19.0-0.0-0.50,A3191G66DZEGEB,32CXT5U15JJVAEXBU2XNZL8A76W8U1,3ERET4BTVQPK7693VI41IEQAJXF9KQ,3,4
51,2,object_05,object_10,463.30000000075,4,2,403.39999999851,0.4444444444444444,2,object_07,5,334,0,1,4,forest_6,1,memory-2step-stake-s,548,1232031,0.0-19.0-0.0-0.51,A3191G66DZEGEB,32CXT5U15JJVAEXBU2XNZL8A76W8U1,3ERET4BTVQPK7693VI41IEQAJXF9KQ,3,4
52,1,object_02,object_08,556.5,1,1,470.80000000075,0.2222222222222222,1,object_09,5,344,0,2,2,desert_5,1,memory-2step-stake-s,549,1239928,0.0-19.0-0.0-0.52,A3191G66DZEGEB,32CXT5U15JJVAEXBU2XNZL8A76W8U1,3ERET4BTVQPK7693VI41IEQAJXF9KQ,1,2
53,4,object_01,object_06,828.19999999925,7,1,429.19999999925,0.0,1,object_09,5,344,0,0,5,restaurant_4,1,memory-2step-stake-s,550,1247574,0.0-19.0-0.0-0.53,A3191G66DZEGEB,32CXT5U15JJVAEXBU2XNZL8A76W8U1,3ERET4BTVQPK7693VI41IEQAJXF9KQ,7,8
54,2,object_05,object_10,397.39999999851,4,2,394.39999999851,0.4444444444444444,2,object_07,1,348,0,1,4,forest_3,1,memory-2step-stake-s,551,1255601,0.0-19.0-0.0-0.54,A3191G66DZEGEB,32CXT5U15JJVAEXBU2XNZL8A76W8U1,3ERET4BTVQPK7693VI41IEQAJXF9KQ,3,4
55,2,object_10,object_05,441.69999999925,4,1,387.80000000075,0.3333333333333333,2,object_07,1,351,0,2,3,forest_7,1,memory-2step-stake-s,552,1263515,0.0-19.0-0.0-0.55,A3191G66DZEGEB,32CXT5U15JJVAEXBU2XNZL8A76W8U1,3ERET4BTVQPK7693VI41IEQAJXF9KQ,4,3
56,2,object_10,object_05,636.39999999851,3,2,348.0,0.1111111111111111,1,object_09,1,352,0,1,5,forest_3,1,memory-2step-stake-s,553,1271184,0.0-19.0-0.0-0.56,A3191G66DZEGEB,32CXT5U15JJVAEXBU2XNZL8A76W8U1,3ERET4BTVQPK7693VI41IEQAJXF9KQ,4,3
57,3,object_03,object_04,378.90000000224,6,1,566.0,0.7777777777777778,2,object_07,1,359,0,4,7,library_2,1,memory-2step-stake-s,554,1279678,0.0-19.0-0.0-0.57,A3191G66DZEGEB,32CXT5U15JJVAEXBU2XNZL8A76W8U1,3ERET4BTVQPK7693VI41IEQAJXF9KQ,6,5
58,4,object_06,object_01,561.79999999702,8,1,374.5,1.0,2,object_07,5,404,0,4,9,restaurant_1,1,memory-2step-stake-s,555,1288193,0.0-19.0-0.0-0.58,A3191G66DZEGEB,32CXT5U15JJVAEXBU2XNZL8A76W8U1,3ERET4BTVQPK7693VI41IEQAJXF9KQ,8,7
59,2,object_10,object_05,588.19999999925,4,1,749.0,1.0,2,object_07,5,449,0,5,9,forest_7,1,memory-2step-stake-s,556,1297071,0.0-19.0-0.0-0.59,A3191G66DZEGEB,32CXT5U15JJVAEXBU2XNZL8A76W8U1,3ERET4BTVQPK7693VI41IEQAJXF9KQ,4,3
60,2,object_05,object_10,-1.0,-1,-1,-1.0,0.0,-,0,1,449,0,8,9,forest_6,1,memory-2step-stake-s,557,1303591,0.0-19.0-0.0-0.60,A3191G66DZEGEB,32CXT5U15JJVAEXBU2XNZL8A76W8U1,3ERET4BTVQPK7693VI41IEQAJXF9KQ,3,4
61,1,object_02,object_08,270.30000000075,1,1,457.40000000224,0.7777777777777778,1,object_09,1,456,0,7,9,desert_5,1,memory-2step-stake-s,558,1311975,0.0-19.0-0.0-0.61,A3191G66DZEGEB,32CXT5U15JJVAEXBU2XNZL8A76W8U1,3ERET4BTVQPK7693VI41IEQAJXF9KQ,1,2
62,4,object_01,object_06,568.5,8,2,535.5,0.4444444444444444,2,object_07,5,476,0,6,4,restaurant_4,1,memory-2step-stake-s,559,1320133,0.0-19.0-0.0-0.62,A3191G66DZEGEB,32CXT5U15JJVAEXBU2XNZL8A76W8U1,3ERET4BTVQPK7693VI41IEQAJXF9KQ,7,8
63,2,object_05,object_10,760.89999999851,3,1,644.09999999776,0.5555555555555556,1,object_09,1,481,0,5,5,forest_2,1,memory-2step-stake-s,560,1328498,0.0-19.0-0.0-0.63,A3191G66DZEGEB,32CXT5U15JJVAEXBU2XNZL8A76W8U1,3ERET4BTVQPK7693VI41IEQAJXF9KQ,3,4
64,3,object_04,object_03,508.80000000075,6,2,327.0,0.7777777777777778,2,object_07,5,516,0,6,7,library_4,1,memory-2step-stake-s,561,1336750,0.0-19.0-0.0-0.64,A3191G66DZEGEB,32CXT5U15JJVAEXBU2XNZL8A76W8U1,3ERET4BTVQPK7693VI41IEQAJXF9KQ,5,6
65,1,object_08,object_02,368.30000000075,1,2,442.30000000075,0.6666666666666666,1,object_09,1,522,0,6,8,desert_7,1,memory-2step-stake-s,562,1345016,0.0-19.0-0.0-0.65,A3191G66DZEGEB,32CXT5U15JJVAEXBU2XNZL8A76W8U1,3ERET4BTVQPK7693VI41IEQAJXF9KQ,2,1
66,2,object_05,object_10,476.69999999925,3,1,311.5,0.5555555555555556,1,object_09,5,547,0,5,8,forest_3,1,memory-2step-stake-s,563,1353052,0.0-19.0-0.0-0.66,A3191G66DZEGEB,32CXT5U15JJVAEXBU2XNZL8A76W8U1,3ERET4BTVQPK7693VI41IEQAJXF9KQ,3,4
67,1,object_08,object_02,704.79999999702,1,2,506.19999999925,0.5555555555555556,1,object_09,1,552,0,5,8,desert_8,1,memory-2step-stake-s,564,1361283,0.0-19.0-0.0-0.67,A3191G66DZEGEB,32CXT5U15JJVAEXBU2XNZL8A76W8U1,3ERET4BTVQPK7693VI41IEQAJXF9KQ,2,1
68,4,object_06,object_01,409.89999999851,8,1,425.09999999776,0.6666666666666666,2,object_07,5,582,0,6,6,restaurant_5,1,memory-2step-stake-s,565,1369534,0.0-19.0-0.0-0.68,A3191G66DZEGEB,32CXT5U15JJVAEXBU2XNZL8A76W8U1,3ERET4BTVQPK7693VI41IEQAJXF9KQ,8,7
69,4,object_01,object_06,415.29999999702,8,2,530.80000000075,0.7777777777777778,2,object_07,5,617,0,3,7,restaurant_5,1,memory-2step-stake-s,566,1377991,0.0-19.0-0.0-0.69,A3191G66DZEGEB,32CXT5U15JJVAEXBU2XNZL8A76W8U1,3ERET4BTVQPK7693VI41IEQAJXF9KQ,7,8
70,3,object_04,object_03,502.40000000224,6,2,488.5,0.8888888888888888,2,object_07,5,657,0,1,8,library_2,1,memory-2step-stake-s,567,1386514,0.0-19.0-0.0-0.70,A3191G66DZEGEB,32CXT5U15JJVAEXBU2XNZL8A76W8U1,3ERET4BTVQPK7693VI41IEQAJXF9KQ,5,6
71,2,object_10,object_05,514.30000000075,4,1,434.5,1.0,2,object_07,1,666,0,4,9,forest_7,1,memory-2step-stake-s,568,1395088,0.0-19.0-0.0-0.71,A3191G66DZEGEB,32CXT5U15JJVAEXBU2XNZL8A76W8U1,3ERET4BTVQPK7693VI41IEQAJXF9KQ,4,3
72,3,object_04,object_03,310.5,6,2,451.19999999925,0.8888888888888888,2,object_07,5,706,0,2,8,library_3,1,memory-2step-stake-s,569,1403573,0.0-19.0-0.0-0.72,A3191G66DZEGEB,32CXT5U15JJVAEXBU2XNZL8A76W8U1,3ERET4BTVQPK7693VI41IEQAJXF9KQ,5,6
73,1,object_02,object_08,385.0,1,1,382.39999999851,0.3333333333333333,1,object_09,1,709,0,3,8,desert_2,1,memory-2step-stake-s,570,1411491,0.0-19.0-0.0-0.73,A3191G66DZEGEB,32CXT5U15JJVAEXBU2XNZL8A76W8U1,3ERET4BTVQPK7693VI41IEQAJXF9KQ,1,2
74,4,object_01,object_06,287.89999999851,8,2,516.60000000149,0.6666666666666666,2,object_07,1,715,0,4,6,restaurant_4,1,memory-2step-stake-s,571,1419840,0.0-19.0-0.0-0.74,A3191G66DZEGEB,32CXT5U15JJVAEXBU2XNZL8A76W8U1,3ERET4BTVQPK7693VI41IEQAJXF9KQ,7,8
75,3,object_03,object_04,277.69999999925,6,1,525.80000000075,0.6666666666666666,2,object_07,5,745,0,6,6,library_3,1,memory-2step-stake-s,572,1428194,0.0-19.0-0.0-0.75,A3191G66DZEGEB,32CXT5U15JJVAEXBU2XNZL8A76W8U1,3ERET4BTVQPK7693VI41IEQAJXF9KQ,6,5
76,1,object_08,object_02,518.60000000149,2,1,689.5,0.8888888888888888,2,object_07,5,785,0,1,8,desert_5,1,memory-2step-stake-s,573,1436922,0.0-19.0-0.0-0.76,A3191G66DZEGEB,32CXT5U15JJVAEXBU2XNZL8A76W8U1,3ERET4BTVQPK7693VI41IEQAJXF9KQ,2,1
77,1,object_02,object_08,644.90000000224,2,2,703.59999999776,0.8888888888888888,2,object_07,1,793,0,4,8,desert_2,1,memory-2step-stake-s,574,1445665,0.0-19.0-0.0-0.77,A3191G66DZEGEB,32CXT5U15JJVAEXBU2XNZL8A76W8U1,3ERET4BTVQPK7693VI41IEQAJXF9KQ,1,2
78,1,object_02,object_08,-1.0,-1,-1,-1.0,0.0,-,0,1,793,0,2,5,desert_2,1,memory-2step-stake-s,575,1452180,0.0-19.0-0.0-0.78,A3191G66DZEGEB,32CXT5U15JJVAEXBU2XNZL8A76W8U1,3ERET4BTVQPK7693VI41IEQAJXF9KQ,1,2
79,1,object_08,object_02,482.59999999776,2,1,752.19999999925,0.5555555555555556,2,object_07,1,798,0,2,5,desert_8,1,memory-2step-stake-s,576,1460669,0.0-19.0-0.0-0.79,A3191G66DZEGEB,32CXT5U15JJVAEXBU2XNZL8A76W8U1,3ERET4BTVQPK7693VI41IEQAJXF9KQ,2,1
80,1,object_08,object_02,316.0,2,1,476.60000000149,0.3333333333333333,2,object_07,1,801,0,2,3,desert_2,1,memory-2step-stake-s,577,1468683,0.0-19.0-0.0-0.80,A3191G66DZEGEB,32CXT5U15JJVAEXBU2XNZL8A76W8U1,3ERET4BTVQPK7693VI41IEQAJXF9KQ,2,1
81,2,object_10,object_05,321.09999999776,3,2,426.19999999925,0.1111111111111111,1,object_09,1,802,0,1,3,forest_7,1,memory-2step-stake-s,578,1476439,0.0-19.0-0.0-0.81,A3191G66DZEGEB,32CXT5U15JJVAEXBU2XNZL8A76W8U1,3ERET4BTVQPK7693VI41IEQAJXF9KQ,4,3
82,4,object_01,object_06,357.39999999851,7,1,414.80000000075,0.2222222222222222,1,object_09,5,812,0,2,3,restaurant_7,1,memory-2step-stake-s,579,1484275,0.0-19.0-0.0-0.82,A3191G66DZEGEB,32CXT5U15JJVAEXBU2XNZL8A76W8U1,3ERET4BTVQPK7693VI41IEQAJXF9KQ,7,8
83,3,object_04,object_03,425.80000000075,5,1,442.69999999925,0.1111111111111111,1,object_09,5,817,0,1,4,library_4,1,memory-2step-stake-s,580,1492038,0.0-19.0-0.0-0.83,A3191G66DZEGEB,32CXT5U15JJVAEXBU2XNZL8A76W8U1,3ERET4BTVQPK7693VI41IEQAJXF9KQ,5,6
84,1,object_08,object_02,471.5,1,2,569.19999999925,0.1111111111111111,1,object_09,1,818,0,1,7,desert_7,1,memory-2step-stake-s,581,1499925,0.0-19.0-0.0-0.84,A3191G66DZEGEB,32CXT5U15JJVAEXBU2XNZL8A76W8U1,3ERET4BTVQPK7693VI41IEQAJXF9KQ,2,1
85,3,object_03,object_04,433.0,6,1,377.30000000075,0.6666666666666666,2,object_07,5,848,0,1,6,library_2,1,memory-2step-stake-s,582,1508128,0.0-19.0-0.0-0.85,A3191G66DZEGEB,32CXT5U15JJVAEXBU2XNZL8A76W8U1,3ERET4BTVQPK7693VI41IEQAJXF9KQ,6,5
86,4,object_01,object_06,612.5,7,1,310.90000000224,0.2222222222222222,1,object_09,1,850,0,2,8,restaurant_5,1,memory-2step-stake-s,583,1515861,0.0-19.0-0.0-0.86,A3191G66DZEGEB,32CXT5U15JJVAEXBU2XNZL8A76W8U1,3ERET4BTVQPK7693VI41IEQAJXF9KQ,7,8
87,1,object_02,object_08,375.09999999776,1,1,584.5,0.1111111111111111,1,object_09,5,855,0,1,7,desert_7,1,memory-2step-stake-s,584,1523763,0.0-19.0-0.0-0.87,A3191G66DZEGEB,32CXT5U15JJVAEXBU2XNZL8A76W8U1,3ERET4BTVQPK7693VI41IEQAJXF9KQ,1,2
88,3,object_03,object_04,355.10000000149,5,2,412.30000000075,0.3333333333333333,1,object_09,5,870,0,3,7,library_3,1,memory-2step-stake-s,585,1531696,0.0-19.0-0.0-0.88,A3191G66DZEGEB,32CXT5U15JJVAEXBU2XNZL8A76W8U1,3ERET4BTVQPK7693VI41IEQAJXF9KQ,6,5
89,4,object_01,object_06,324.90000000224,7,1,374.39999999851,0.0,1,object_09,5,870,0,0,7,restaurant_5,1,memory-2step-stake-s,586,1539286,0.0-19.0-0.0-0.89,A3191G66DZEGEB,32CXT5U15JJVAEXBU2XNZL8A76W8U1,3ERET4BTVQPK7693VI41IEQAJXF9KQ,7,8
90,2,object_05,object_10,375.80000000075,4,2,438.80000000075,0.7777777777777778,2,object_07,1,877,0,4,7,forest_3,1,memory-2step-stake-s,587,1547655,0.0-19.0-0.0-0.90,A3191G66DZEGEB,32CXT5U15JJVAEXBU2XNZL8A76W8U1,3ERET4BTVQPK7693VI41IEQAJXF9KQ,3,4
91,4,object_01,object_06,421.70000000298,7,1,354.09999999776,0.7777777777777778,1,object_09,5,912,0,7,7,restaurant_1,1,memory-2step-stake-s,588,1555938,0.0-19.0-0.0-0.91,A3191G66DZEGEB,32CXT5U15JJVAEXBU2XNZL8A76W8U1,3ERET4BTVQPK7693VI41IEQAJXF9KQ,7,8
92,1,object_08,object_02,489.90000000224,2,1,316.5,0.5555555555555556,2,object_07,5,937,0,7,5,desert_7,1,memory-2step-stake-s,589,1563984,0.0-19.0-0.0-0.92,A3191G66DZEGEB,32CXT5U15JJVAEXBU2XNZL8A76W8U1,3ERET4BTVQPK7693VI41IEQAJXF9KQ,2,1
93,4,object_06,object_01,547.30000000075,7,2,372.5,0.6666666666666666,1,object_09,5,967,0,6,3,restaurant_4,1,memory-2step-stake-s,590,1572190,0.0-19.0-0.0-0.93,A3191G66DZEGEB,32CXT5U15JJVAEXBU2XNZL8A76W8U1,3ERET4BTVQPK7693VI41IEQAJXF9KQ,8,7
94,2,object_05,object_10,628.30000000075,4,2,763.60000000149,0.3333333333333333,2,object_07,1,970,0,7,3,forest_3,1,memory-2step-stake-s,591,1580490,0.0-19.0-0.0-0.94,A3191G66DZEGEB,32CXT5U15JJVAEXBU2XNZL8A76W8U1,3ERET4BTVQPK7693VI41IEQAJXF9KQ,3,4
95,3,object_03,object_04,555.20000000298,5,2,558.5,0.7777777777777778,1,object_09,5,1005,0,7,1,library_8,1,memory-2step-stake-s,592,1588980,0.0-19.0-0.0-0.95,A3191G66DZEGEB,32CXT5U15JJVAEXBU2XNZL8A76W8U1,3ERET4BTVQPK7693VI41IEQAJXF9KQ,6,5
96,4,object_06,object_01,445.30000000075,8,1,493.90000000224,0.2222222222222222,2,object_07,5,1015,0,8,2,restaurant_1,1,memory-2step-stake-s,593,1596898,0.0-19.0-0.0-0.96,A3191G66DZEGEB,32CXT5U15JJVAEXBU2XNZL8A76W8U1,3ERET4BTVQPK7693VI41IEQAJXF9KQ,8,7
97,1,object_02,object_08,500.60000000149,1,1,478.0,1.0,1,object_09,5,1060,0,9,1,desert_8,1,memory-2step-stake-s,594,1605500,0.0-19.0-0.0-0.97,A3191G66DZEGEB,32CXT5U15JJVAEXBU2XNZL8A76W8U1,3ERET4BTVQPK7693VI41IEQAJXF9KQ,1,2
98,4,object_06,object_01,334.19999999925,8,1,389.39999999851,0.2222222222222222,2,object_07,1,1062,0,8,2,restaurant_1,1,memory-2step-stake-s,595,1613304,0.0-19.0-0.0-0.98,A3191G66DZEGEB,32CXT5U15JJVAEXBU2XNZL8A76W8U1,3ERET4BTVQPK7693VI41IEQAJXF9KQ,8,7
99,2,object_10,object_05,-1.0,-1,-1,-1.0,0.0,-,0,1,1062,0,7,6,forest_7,1,memory-2step-stake-s,596,1619815,0.0-19.0-0.0-0.99,A3191G66DZEGEB,32CXT5U15JJVAEXBU2XNZL8A76W8U1,3ERET4BTVQPK7693VI41IEQAJXF9KQ,4,3
100,2,object_05,object_10,251.5,4,2,258.79999999702,0.8888888888888888,2,object_07,1,1070,0,9,8,forest_7,1,memory-2step-stake-s,597,1628097,0.0-19.0-0.0-0.100,A3191G66DZEGEB,32CXT5U15JJVAEXBU2XNZL8A76W8U1,3ERET4BTVQPK7693VI41IEQAJXF9KQ,3,4
101,2,object_10,object_05,301.5,4,1,339.20000000298,0.8888888888888888,2,object_07,5,1110,0,6,8,forest_6,1,memory-2step-stake-s,598,1636459,0.0-19.0-0.0-0.101,A3191G66DZEGEB,32CXT5U15JJVAEXBU2XNZL8A76W8U1,3ERET4BTVQPK7693VI41IEQAJXF9KQ,4,3
102,2,object_10,object_05,297.5,4,1,428.59999999776,0.7777777777777778,2,object_07,1,1117,0,4,7,forest_3,1,memory-2step-stake-s,599,1644815,0.0-19.0-0.0-0.102,A3191G66DZEGEB,32CXT5U15JJVAEXBU2XNZL8A76W8U1,3ERET4BTVQPK7693VI41IEQAJXF9KQ,4,3
103,3,object_04,object_03,423.30000000075,6,2,304.0,0.7777777777777778,2,object_07,5,1152,0,5,7,library_4,1,memory-2step-stake-s,600,1653046,0.0-19.0-0.0-0.103,A3191G66DZEGEB,32CXT5U15JJVAEXBU2XNZL8A76W8U1,3ERET4BTVQPK7693VI41IEQAJXF9KQ,5,6
104,1,object_08,object_02,360.30000000075,2,1,358.20000000298,0.5555555555555556,2,object_07,1,1157,0,3,5,desert_8,1,memory-2step-stake-s,601,1661123,0.0-19.0-0.0-0.104,A3191G66DZEGEB,32CXT5U15JJVAEXBU2XNZL8A76W8U1,3ERET4BTVQPK7693VI41IEQAJXF9KQ,2,1
105,2,object_10,object_05,331.5,3,2,333.90000000224,0.6666666666666666,1,object_09,5,1187,0,6,2,forest_3,1,memory-2step-stake-s,602,1669277,0.0-19.0-0.0-0.105,A3191G66DZEGEB,32CXT5U15JJVAEXBU2XNZL8A76W8U1,3ERET4BTVQPK7693VI41IEQAJXF9KQ,4,3
106,1,object_08,object_02,290.90000000224,2,1,387.0,0.6666666666666666,2,object_07,1,1193,0,6,6,desert_2,1,memory-2step-stake-s,603,1677489,0.0-19.0-0.0-0.106,A3191G66DZEGEB,32CXT5U15JJVAEXBU2XNZL8A76W8U1,3ERET4BTVQPK7693VI41IEQAJXF9KQ,2,1
107,4,object_06,object_01,324.80000000075,7,2,375.89999999851,0.6666666666666666,1,object_09,1,1199,0,6,1,restaurant_1,1,memory-2step-stake-s,604,1685685,0.0-19.0-0.0-0.107,A3191G66DZEGEB,32CXT5U15JJVAEXBU2XNZL8A76W8U1,3ERET4BTVQPK7693VI41IEQAJXF9KQ,8,7
108,3,object_03,object_04,329.40000000224,6,1,578.89999999851,0.1111111111111111,2,object_07,5,1204,0,9,1,library_4,1,memory-2step-stake-s,605,1693578,0.0-19.0-0.0-0.108,A3191G66DZEGEB,32CXT5U15JJVAEXBU2XNZL8A76W8U1,3ERET4BTVQPK7693VI41IEQAJXF9KQ,6,5
109,4,object_01,object_06,300.79999999702,7,1,518.69999999925,1.0,1,object_09,5,1249,0,9,1,restaurant_5,1,memory-2step-stake-s,606,1702225,0.0-19.0-0.0-0.109,A3191G66DZEGEB,32CXT5U15JJVAEXBU2XNZL8A76W8U1,3ERET4BTVQPK7693VI41IEQAJXF9KQ,7,8
110,3,object_04,object_03,302.39999999851,6,2,395.69999999925,0.2222222222222222,2,object_07,1,1251,0,9,2,library_8,1,memory-2step-stake-s,607,1710033,0.0-19.0-0.0-0.110,A3191G66DZEGEB,32CXT5U15JJVAEXBU2XNZL8A76W8U1,3ERET4BTVQPK7693VI41IEQAJXF9KQ,5,6
111,3,object_04,object_03,349.10000000149,5,1,399.59999999776,0.7777777777777778,1,object_09,5,1286,0,7,2,library_2,1,memory-2step-stake-s,608,1718353,0.0-19.0-0.0-0.111,A3191G66DZEGEB,32CXT5U15JJVAEXBU2XNZL8A76W8U1,3ERET4BTVQPK7693VI41IEQAJXF9KQ,5,6
112,1,object_08,object_02,268.69999999925,2,1,400.19999999925,0.3333333333333333,2,object_07,1,1289,0,7,3,desert_7,1,memory-2step-stake-s,609,1726270,0.0-19.0-0.0-0.112,A3191G66DZEGEB,32CXT5U15JJVAEXBU2XNZL8A76W8U1,3ERET4BTVQPK7693VI41IEQAJXF9KQ,2,1
113,1,object_08,object_02,345.10000000149,1,2,485.19999999925,0.4444444444444444,1,object_09,1,1293,0,4,5,desert_8,1,memory-2step-stake-s,610,1734376,0.0-19.0-0.0-0.113,A3191G66DZEGEB,32CXT5U15JJVAEXBU2XNZL8A76W8U1,3ERET4BTVQPK7693VI41IEQAJXF9KQ,2,1
114,3,object_04,object_03,406.30000000075,5,1,361.0,0.6666666666666666,1,object_09,5,1323,0,6,6,library_3,1,memory-2step-stake-s,611,1742560,0.0-19.0-0.0-0.114,A3191G66DZEGEB,32CXT5U15JJVAEXBU2XNZL8A76W8U1,3ERET4BTVQPK7693VI41IEQAJXF9KQ,5,6
115,4,object_06,object_01,408.79999999702,7,2,390.89999999851,0.5555555555555556,1,object_09,5,1348,0,5,4,restaurant_7,1,memory-2step-stake-s,612,1750674,0.0-19.0-0.0-0.115,A3191G66DZEGEB,32CXT5U15JJVAEXBU2XNZL8A76W8U1,3ERET4BTVQPK7693VI41IEQAJXF9KQ,8,7
116,3,object_04,object_03,438.30000000075,5,1,499.10000000149,0.7777777777777778,1,object_09,1,1355,0,7,4,library_2,1,memory-2step-stake-s,613,1759104,0.0-19.0-0.0-0.116,A3191G66DZEGEB,32CXT5U15JJVAEXBU2XNZL8A76W8U1,3ERET4BTVQPK7693VI41IEQAJXF9KQ,5,6
117,3,object_03,object_04,436.0,5,2,330.90000000224,0.8888888888888888,1,object_09,5,1395,0,8,7,library_4,1,memory-2step-stake-s,614,1767466,0.0-19.0-0.0-0.117,A3191G66DZEGEB,32CXT5U15JJVAEXBU2XNZL8A76W8U1,3ERET4BTVQPK7693VI41IEQAJXF9KQ,6,5
118,1,object_02,object_08,288.5,1,1,301.69999999925,0.8888888888888888,1,object_09,5,1435,0,8,6,desert_7,1,memory-2step-stake-s,615,1775796,0.0-19.0-0.0-0.118,A3191G66DZEGEB,32CXT5U15JJVAEXBU2XNZL8A76W8U1,3ERET4BTVQPK7693VI41IEQAJXF9KQ,1,2
119,1,object_02,object_08,373.79999999702,2,2,356.0,0.6666666666666666,2,object_07,5,1465,0,7,6,desert_5,1,memory-2step-stake-s,616,1783981,0.0-19.0-0.0-0.119,A3191G66DZEGEB,32CXT5U15JJVAEXBU2XNZL8A76W8U1,3ERET4BTVQPK7693VI41IEQAJXF9KQ,1,2
120,2,object_10,object_05,316.60000000149,4,1,461.0,0.3333333333333333,2,object_07,5,1480,0,9,3,forest_6,1,memory-2step-stake-s,617,1791967,0.0-19.0-0.0-0.120,A3191G66DZEGEB,32CXT5U15JJVAEXBU2XNZL8A76W8U1,3ERET4BTVQPK7693VI41IEQAJXF9KQ,4,3
121,1,object_02,object_08,351.30000000075,2,2,373.59999999776,0.0,2,object_07,1,1480,0,8,0,desert_8,1,memory-2step-stake-s,618,1799558,0.0-19.0-0.0-0.121,A3191G66DZEGEB,32CXT5U15JJVAEXBU2XNZL8A76W8U1,3ERET4BTVQPK7693VI41IEQAJXF9KQ,1,2
122,1,object_02,object_08,427.0,1,1,356.59999999776,0.8888888888888888,1,object_09,5,1520,0,8,0,desert_2,1,memory-2step-stake-s,619,1807947,0.0-19.0-0.0-0.122,A3191G66DZEGEB,32CXT5U15JJVAEXBU2XNZL8A76W8U1,3ERET4BTVQPK7693VI41IEQAJXF9KQ,1,2
123,4,object_01,object_06,401.80000000075,7,1,714.30000000075,0.8888888888888888,1,object_09,5,1560,0,8,0,restaurant_4,1,memory-2step-stake-s,620,1816689,0.0-19.0-0.0-0.123,A3191G66DZEGEB,32CXT5U15JJVAEXBU2XNZL8A76W8U1,3ERET4BTVQPK7693VI41IEQAJXF9KQ,7,8
124,4,object_06,object_01,377.19999999925,7,2,386.10000000149,0.7777777777777778,1,object_09,5,1595,0,7,2,restaurant_5,1,memory-2step-stake-s,621,1825000,0.0-19.0-0.0-0.124,A3191G66DZEGEB,32CXT5U15JJVAEXBU2XNZL8A76W8U1,3ERET4BTVQPK7693VI41IEQAJXF9KQ,8,7
125,3,object_03,object_04,329.5,6,1,577.10000000149,0.3333333333333333,2,object_07,5,1610,0,8,3,library_3,1,memory-2step-stake-s,622,1833104,0.0-19.0-0.0-0.125,A3191G66DZEGEB,32CXT5U15JJVAEXBU2XNZL8A76W8U1,3ERET4BTVQPK7693VI41IEQAJXF9KQ,6,5
126,3,object_03,object_04,334.60000000149,5,2,624.80000000075,0.8888888888888888,1,object_09,1,1618,0,8,2,library_4,1,memory-2step-stake-s,623,1841749,0.0-19.0-0.0-0.126,A3191G66DZEGEB,32CXT5U15JJVAEXBU2XNZL8A76W8U1,3ERET4BTVQPK7693VI41IEQAJXF9KQ,6,5
127,1,object_08,object_02,368.0,2,1,349.09999999776,0.2222222222222222,2,object_07,1,1620,0,7,2,desert_5,1,memory-2step-stake-s,624,1849515,0.0-19.0-0.0-0.127,A3191G66DZEGEB,32CXT5U15JJVAEXBU2XNZL8A76W8U1,3ERET4BTVQPK7693VI41IEQAJXF9KQ,2,1
128,3,object_03,object_04,429.59999999776,6,1,369.70000000298,0.4444444444444444,2,object_07,1,1624,0,8,4,library_8,1,memory-2step-stake-s,626,1869587,0.0-19.0-0.1-0.128,A3191G66DZEGEB,32CXT5U15JJVAEXBU2XNZL8A76W8U1,3ERET4BTVQPK7693VI41IEQAJXF9KQ,6,5
129,2,object_10,object_05,298.0,3,2,365.09999999776,0.5555555555555556,1,object_09,1,1629,0,5,3,forest_3,1,memory-2step-stake-s,627,1877675,0.0-19.0-0.1-0.129,A3191G66DZEGEB,32CXT5U15JJVAEXBU2XNZL8A76W8U1,3ERET4BTVQPK7693VI41IEQAJXF9KQ,4,3
130,3,object_03,object_04,306.79999999702,6,1,318.30000000075,0.5555555555555556,2,object_07,5,1654,0,5,5,library_8,1,memory-2step-stake-s,628,1885712,0.0-19.0-0.1-0.130,A3191G66DZEGEB,32CXT5U15JJVAEXBU2XNZL8A76W8U1,3ERET4BTVQPK7693VI41IEQAJXF9KQ,6,5
131,4,object_01,object_06,381.0,8,2,590.19999999925,0.5555555555555556,2,object_07,5,1679,0,5,5,restaurant_4,1,memory-2step-stake-s,629,1894024,0.0-19.0-0.1-0.131,A3191G66DZEGEB,32CXT5U15JJVAEXBU2XNZL8A76W8U1,3ERET4BTVQPK7693VI41IEQAJXF9KQ,7,8
132,4,object_01,object_06,492.29999999702,7,1,496.20000000298,0.4444444444444444,1,object_09,5,1699,0,4,6,restaurant_7,1,memory-2step-stake-s,630,1902139,0.0-19.0-0.1-0.132,A3191G66DZEGEB,32CXT5U15JJVAEXBU2XNZL8A76W8U1,3ERET4BTVQPK7693VI41IEQAJXF9KQ,7,8
133,1,object_02,object_08,497.89999999851,2,2,748.19999999925,0.6666666666666666,2,object_07,1,1705,0,4,6,desert_8,1,memory-2step-stake-s,631,1910710,0.0-19.0-0.1-0.133,A3191G66DZEGEB,32CXT5U15JJVAEXBU2XNZL8A76W8U1,3ERET4BTVQPK7693VI41IEQAJXF9KQ,1,2
134,1,object_08,object_02,917.39999999851,2,1,816.5,0.6666666666666666,2,object_07,1,1711,0,2,6,desert_7,1,memory-2step-stake-s,632,1919349,0.0-19.0-0.1-0.134,A3191G66DZEGEB,32CXT5U15JJVAEXBU2XNZL8A76W8U1,3ERET4BTVQPK7693VI41IEQAJXF9KQ,2,1
135,1,object_02,object_08,343.5,2,2,324.10000000149,0.5555555555555556,2,object_07,5,1736,0,4,5,desert_8,1,memory-2step-stake-s,633,1927399,0.0-19.0-0.1-0.135,A3191G66DZEGEB,32CXT5U15JJVAEXBU2XNZL8A76W8U1,3ERET4BTVQPK7693VI41IEQAJXF9KQ,1,2
136,3,object_04,object_03,328.60000000149,6,2,441.5,0.7777777777777778,2,object_07,5,1771,0,4,7,library_4,1,memory-2step-stake-s,634,1935770,0.0-19.0-0.1-0.136,A3191G66DZEGEB,32CXT5U15JJVAEXBU2XNZL8A76W8U1,3ERET4BTVQPK7693VI41IEQAJXF9KQ,5,6
137,3,object_04,object_03,458.5,6,2,329.5,0.5555555555555556,2,object_07,5,1796,0,6,5,library_2,1,memory-2step-stake-s,635,1943826,0.0-19.0-0.1-0.137,A3191G66DZEGEB,32CXT5U15JJVAEXBU2XNZL8A76W8U1,3ERET4BTVQPK7693VI41IEQAJXF9KQ,5,6
138,4,object_06,object_01,638.5,8,1,313.30000000075,0.4444444444444444,2,object_07,1,1800,0,3,4,restaurant_7,1,memory-2step-stake-s,636,1951764,0.0-19.0-0.1-0.138,A3191G66DZEGEB,32CXT5U15JJVAEXBU2XNZL8A76W8U1,3ERET4BTVQPK7693VI41IEQAJXF9KQ,8,7
139,4,object_01,object_06,322.80000000075,8,2,541.5,0.2222222222222222,2,object_07,5,1810,0,4,2,restaurant_7,1,memory-2step-stake-s,637,1959732,0.0-19.0-0.1-0.139,A3191G66DZEGEB,32CXT5U15JJVAEXBU2XNZL8A76W8U1,3ERET4BTVQPK7693VI41IEQAJXF9KQ,7,8
140,4,object_06,object_01,375.89999999851,8,1,495.60000000149,0.4444444444444444,2,object_07,5,1830,0,4,4,restaurant_1,1,memory-2step-stake-s,638,1967849,0.0-19.0-0.1-0.140,A3191G66DZEGEB,32CXT5U15JJVAEXBU2XNZL8A76W8U1,3ERET4BTVQPK7693VI41IEQAJXF9KQ,8,7
141,3,object_04,object_03,441.59999999776,6,2,619.80000000075,0.4444444444444444,2,object_07,5,1850,0,1,4,library_2,1,memory-2step-stake-s,639,1976094,0.0-19.0-0.1-0.141,A3191G66DZEGEB,32CXT5U15JJVAEXBU2XNZL8A76W8U1,3ERET4BTVQPK7693VI41IEQAJXF9KQ,5,6
142,1,object_02,object_08,707.90000000224,1,1,463.70000000298,0.2222222222222222,1,object_09,1,1852,0,2,3,desert_7,1,memory-2step-stake-s,640,1983985,0.0-19.0-0.1-0.142,A3191G66DZEGEB,32CXT5U15JJVAEXBU2XNZL8A76W8U1,3ERET4BTVQPK7693VI41IEQAJXF9KQ,1,2
143,4,object_01,object_06,452.89999999851,8,2,285.30000000075,0.4444444444444444,2,object_07,5,1872,0,5,4,restaurant_4,1,memory-2step-stake-s,641,1991899,0.0-19.0-0.1-0.143,A3191G66DZEGEB,32CXT5U15JJVAEXBU2XNZL8A76W8U1,3ERET4BTVQPK7693VI41IEQAJXF9KQ,7,8
144,4,object_01,object_06,375.59999999776,8,2,348.90000000224,0.3333333333333333,2,object_07,1,1875,0,2,3,restaurant_7,1,memory-2step-stake-s,642,1999774,0.0-19.0-0.1-0.144,A3191G66DZEGEB,32CXT5U15JJVAEXBU2XNZL8A76W8U1,3ERET4BTVQPK7693VI41IEQAJXF9KQ,7,8
145,2,object_10,object_05,416.30000000075,3,2,289.30000000075,0.2222222222222222,1,object_09,1,1877,0,2,2,forest_7,1,memory-2step-stake-s,643,2007490,0.0-19.0-0.1-0.145,A3191G66DZEGEB,32CXT5U15JJVAEXBU2XNZL8A76W8U1,3ERET4BTVQPK7693VI41IEQAJXF9KQ,4,3
146,4,object_01,object_06,262.30000000075,7,1,290.09999999776,0.1111111111111111,1,object_09,5,1882,0,1,2,restaurant_7,1,memory-2step-stake-s,644,2015098,0.0-19.0-0.1-0.146,A3191G66DZEGEB,32CXT5U15JJVAEXBU2XNZL8A76W8U1,3ERET4BTVQPK7693VI41IEQAJXF9KQ,7,8
147,4,object_06,object_01,489.30000000075,7,2,356.80000000075,0.1111111111111111,1,object_09,5,1887,0,1,0,restaurant_4,1,memory-2step-stake-s,645,2022770,0.0-19.0-0.1-0.147,A3191G66DZEGEB,32CXT5U15JJVAEXBU2XNZL8A76W8U1,3ERET4BTVQPK7693VI41IEQAJXF9KQ,8,7
148,4,object_06,object_01,473.89999999851,7,2,346.89999999851,0.2222222222222222,1,object_09,1,1889,0,2,2,restaurant_1,1,memory-2step-stake-s,646,2030537,0.0-19.0-0.1-0.148,A3191G66DZEGEB,32CXT5U15JJVAEXBU2XNZL8A76W8U1,3ERET4BTVQPK7693VI41IEQAJXF9KQ,8,7
149,1,object_08,object_02,386.5,2,1,374.80000000075,0.4444444444444444,2,object_07,1,1893,0,4,4,desert_5,1,memory-2step-stake-s,647,2038529,0.0-19.0-0.1-0.149,A3191G66DZEGEB,32CXT5U15JJVAEXBU2XNZL8A76W8U1,3ERET4BTVQPK7693VI41IEQAJXF9KQ,2,1
150,4,object_01,object_06,508.39999999851,8,2,454.0,0.3333333333333333,2,object_07,1,1896,0,2,3,restaurant_7,1,memory-2step-stake-s,648,2046501,0.0-19.0-0.1-0.150,A3191G66DZEGEB,32CXT5U15JJVAEXBU2XNZL8A76W8U1,3ERET4BTVQPK7693VI41IEQAJXF9KQ,7,8
151,2,object_10,object_05,326.10000000149,4,1,377.40000000224,0.4444444444444444,2,object_07,1,1900,0,0,4,forest_2,1,memory-2step-stake-s,649,2054499,0.0-19.0-0.1-0.151,A3191G66DZEGEB,32CXT5U15JJVAEXBU2XNZL8A76W8U1,3ERET4BTVQPK7693VI41IEQAJXF9KQ,4,3
152,2,object_05,object_10,416.69999999925,4,2,506.80000000075,0.2222222222222222,2,object_07,1,1902,0,3,2,forest_2,1,memory-2step-stake-s,650,2062423,0.0-19.0-0.1-0.152,A3191G66DZEGEB,32CXT5U15JJVAEXBU2XNZL8A76W8U1,3ERET4BTVQPK7693VI41IEQAJXF9KQ,3,4
153,4,object_01,object_06,547.0,7,1,460.90000000224,0.2222222222222222,1,object_09,1,1904,0,2,4,restaurant_4,1,memory-2step-stake-s,651,2070303,0.0-19.0-0.1-0.153,A3191G66DZEGEB,32CXT5U15JJVAEXBU2XNZL8A76W8U1,3ERET4BTVQPK7693VI41IEQAJXF9KQ,7,8
154,4,object_01,object_06,507.89999999851,8,2,309.19999999925,0.5555555555555556,2,object_07,5,1929,0,2,5,restaurant_5,1,memory-2step-stake-s,652,2078335,0.0-19.0-0.1-0.154,A3191G66DZEGEB,32CXT5U15JJVAEXBU2XNZL8A76W8U1,3ERET4BTVQPK7693VI41IEQAJXF9KQ,7,8
155,4,object_01,object_06,307.20000000298,8,2,504.0,0.2222222222222222,2,object_07,5,1939,0,3,2,restaurant_5,1,memory-2step-stake-s,653,2086256,0.0-19.0-0.1-0.155,A3191G66DZEGEB,32CXT5U15JJVAEXBU2XNZL8A76W8U1,3ERET4BTVQPK7693VI41IEQAJXF9KQ,7,8
156,3,object_04,object_03,329.90000000224,5,1,396.30000000075,0.5555555555555556,1,object_09,1,1944,0,5,2,library_2,1,memory-2step-stake-s,654,2094374,0.0-19.0-0.1-0.156,A3191G66DZEGEB,32CXT5U15JJVAEXBU2XNZL8A76W8U1,3ERET4BTVQPK7693VI41IEQAJXF9KQ,5,6
157,3,object_04,object_03,237.79999999702,6,2,334.79999999702,0.3333333333333333,2,object_07,5,1959,0,3,3,library_8,1,memory-2step-stake-s,655,2102228,0.0-19.0-0.1-0.157,A3191G66DZEGEB,32CXT5U15JJVAEXBU2XNZL8A76W8U1,3ERET4BTVQPK7693VI41IEQAJXF9KQ,5,6
158,2,object_05,object_10,307.89999999851,4,2,413.20000000298,0.1111111111111111,2,object_07,1,1960,0,5,1,forest_6,1,memory-2step-stake-s,656,2109967,0.0-19.0-0.1-0.158,A3191G66DZEGEB,32CXT5U15JJVAEXBU2XNZL8A76W8U1,3ERET4BTVQPK7693VI41IEQAJXF9KQ,3,4
159,3,object_04,object_03,284.80000000075,5,1,309.60000000149,0.3333333333333333,1,object_09,5,1975,0,3,1,library_2,1,memory-2step-stake-s,657,2117807,0.0-19.0-0.1-0.159,A3191G66DZEGEB,32CXT5U15JJVAEXBU2XNZL8A76W8U1,3ERET4BTVQPK7693VI41IEQAJXF9KQ,5,6
160,2,object_05,object_10,576.80000000075,4,2,301.5,0.4444444444444444,2,object_07,5,1995,0,1,4,forest_2,1,memory-2step-stake-s,658,2125744,0.0-19.0-0.1-0.160,A3191G66DZEGEB,32CXT5U15JJVAEXBU2XNZL8A76W8U1,3ERET4BTVQPK7693VI41IEQAJXF9KQ,3,4
161,1,object_02,object_08,669.5,1,1,312.0,0.0,1,object_09,5,1995,0,0,4,desert_5,1,memory-2step-stake-s,659,2133278,0.0-19.0-0.1-0.161,A3191G66DZEGEB,32CXT5U15JJVAEXBU2XNZL8A76W8U1,3ERET4BTVQPK7693VI41IEQAJXF9KQ,1,2
162,2,object_10,object_05,395.19999999925,3,2,450.60000000149,0.0,1,object_09,1,1995,0,0,5,forest_7,1,memory-2step-stake-s,660,2140949,0.0-19.0-0.1-0.162,A3191G66DZEGEB,32CXT5U15JJVAEXBU2XNZL8A76W8U1,3ERET4BTVQPK7693VI41IEQAJXF9KQ,4,3
163,3,object_03,object_04,295.0,5,2,327.69999999925,0.1111111111111111,1,object_09,1,1996,0,1,2,library_8,1,memory-2step-stake-s,661,2148603,0.0-19.0-0.1-0.163,A3191G66DZEGEB,32CXT5U15JJVAEXBU2XNZL8A76W8U1,3ERET4BTVQPK7693VI41IEQAJXF9KQ,6,5
164,2,object_10,object_05,318.5,4,1,346.39999999851,0.1111111111111111,2,object_07,1,1997,0,0,1,forest_2,1,memory-2step-stake-s,662,2156275,0.0-19.0-0.1-0.164,A3191G66DZEGEB,32CXT5U15JJVAEXBU2XNZL8A76W8U1,3ERET4BTVQPK7693VI41IEQAJXF9KQ,4,3
165,4,object_06,object_01,394.90000000224,8,1,602.20000000298,0.0,2,object_07,5,1997,0,2,0,restaurant_7,1,memory-2step-stake-s,663,2164101,0.0-19.0-0.1-0.165,A3191G66DZEGEB,32CXT5U15JJVAEXBU2XNZL8A76W8U1,3ERET4BTVQPK7693VI41IEQAJXF9KQ,8,7
166,2,object_10,object_05,480.10000000149,3,2,1394.799999997,0.5555555555555556,1,object_09,1,2002,0,5,0,forest_3,1,memory-2step-stake-s,664,2173226,0.0-19.0-0.1-0.166,A3191G66DZEGEB,32CXT5U15JJVAEXBU2XNZL8A76W8U1,3ERET4BTVQPK7693VI41IEQAJXF9KQ,4,3
167,2,object_05,object_10,589.09999999776,4,2,560.80000000075,0.1111111111111111,2,object_07,5,2007,0,5,1,forest_2,1,memory-2step-stake-s,665,2181110,0.0-19.0-0.1-0.167,A3191G66DZEGEB,32CXT5U15JJVAEXBU2XNZL8A76W8U1,3ERET4BTVQPK7693VI41IEQAJXF9KQ,3,4
168,3,object_03,object_04,557.5,6,1,964.89999999851,0.1111111111111111,2,object_07,5,2012,0,6,1,library_3,1,memory-2step-stake-s,666,2189403,0.0-19.0-0.1-0.168,A3191G66DZEGEB,32CXT5U15JJVAEXBU2XNZL8A76W8U1,3ERET4BTVQPK7693VI41IEQAJXF9KQ,6,5
169,4,object_06,object_01,491.80000000075,7,2,417.30000000075,1.0,1,object_09,1,2021,0,9,1,restaurant_4,1,memory-2step-stake-s,667,2197950,0.0-19.0-0.1-0.169,A3191G66DZEGEB,32CXT5U15JJVAEXBU2XNZL8A76W8U1,3ERET4BTVQPK7693VI41IEQAJXF9KQ,8,7
170,2,object_10,object_05,515.5,4,1,631.70000000298,0.2222222222222222,2,object_07,5,2031,0,7,2,forest_6,1,memory-2step-stake-s,668,2206001,0.0-19.0-0.1-0.170,A3191G66DZEGEB,32CXT5U15JJVAEXBU2XNZL8A76W8U1,3ERET4BTVQPK7693VI41IEQAJXF9KQ,4,3
171,3,object_03,object_04,545.80000000075,5,2,564.19999999925,0.7777777777777778,1,object_09,5,2066,0,7,3,library_8,1,memory-2step-stake-s,669,2214488,0.0-19.0-0.1-0.171,A3191G66DZEGEB,32CXT5U15JJVAEXBU2XNZL8A76W8U1,3ERET4BTVQPK7693VI41IEQAJXF9KQ,6,5
172,1,object_08,object_02,507.60000000149,2,1,659.89999999851,0.2222222222222222,2,object_07,1,2068,0,8,2,desert_5,1,memory-2step-stake-s,670,2222566,0.0-19.0-0.1-0.172,A3191G66DZEGEB,32CXT5U15JJVAEXBU2XNZL8A76W8U1,3ERET4BTVQPK7693VI41IEQAJXF9KQ,2,1
173,1,object_08,object_02,363.59999999776,1,2,558.89999999851,0.4444444444444444,1,object_09,1,2072,0,4,5,desert_2,1,memory-2step-stake-s,671,2230747,0.0-19.0-0.1-0.173,A3191G66DZEGEB,32CXT5U15JJVAEXBU2XNZL8A76W8U1,3ERET4BTVQPK7693VI41IEQAJXF9KQ,2,1
174,3,object_03,object_04,325.80000000075,6,1,375.10000000149,0.5555555555555556,2,object_07,5,2097,0,1,5,library_3,1,memory-2step-stake-s,672,2238845,0.0-19.0-0.1-0.174,A3191G66DZEGEB,32CXT5U15JJVAEXBU2XNZL8A76W8U1,3ERET4BTVQPK7693VI41IEQAJXF9KQ,6,5
175,2,object_05,object_10,652.60000000149,4,2,607.19999999925,0.5555555555555556,2,object_07,1,2102,0,1,5,forest_6,1,memory-2step-stake-s,673,2247174,0.0-19.0-0.1-0.175,A3191G66DZEGEB,32CXT5U15JJVAEXBU2XNZL8A76W8U1,3ERET4BTVQPK7693VI41IEQAJXF9KQ,3,4
176,3,object_03,object_04,742.0,6,1,485.69999999925,0.6666666666666666,2,object_07,5,2132,0,3,6,library_3,1,memory-2step-stake-s,674,2255483,0.0-19.0-0.1-0.176,A3191G66DZEGEB,32CXT5U15JJVAEXBU2XNZL8A76W8U1,3ERET4BTVQPK7693VI41IEQAJXF9KQ,6,5
177,2,object_05,object_10,430.69999999925,4,2,674.80000000075,0.4444444444444444,2,object_07,5,2152,0,2,4,forest_3,1,memory-2step-stake-s,675,2263779,0.0-19.0-0.1-0.177,A3191G66DZEGEB,32CXT5U15JJVAEXBU2XNZL8A76W8U1,3ERET4BTVQPK7693VI41IEQAJXF9KQ,3,4
178,3,object_04,object_03,414.5,5,1,376.19999999925,0.1111111111111111,1,object_09,5,2157,0,1,5,library_3,1,memory-2step-stake-s,676,2271473,0.0-19.0-0.1-0.178,A3191G66DZEGEB,32CXT5U15JJVAEXBU2XNZL8A76W8U1,3ERET4BTVQPK7693VI41IEQAJXF9KQ,5,6
179,1,object_02,object_08,473.79999999702,2,2,385.60000000149,0.6666666666666666,2,object_07,1,2163,0,1,6,desert_5,1,memory-2step-stake-s,677,2279683,0.0-19.0-0.1-0.179,A3191G66DZEGEB,32CXT5U15JJVAEXBU2XNZL8A76W8U1,3ERET4BTVQPK7693VI41IEQAJXF9KQ,1,2
180,3,object_04,object_03,419.39999999851,6,2,505.90000000224,0.6666666666666666,2,object_07,5,2193,0,0,6,library_3,1,memory-2step-stake-s,678,2288022,0.0-19.0-0.1-0.180,A3191G66DZEGEB,32CXT5U15JJVAEXBU2XNZL8A76W8U1,3ERET4BTVQPK7693VI41IEQAJXF9KQ,5,6
181,1,object_08,object_02,403.40000000224,2,1,1003.1999999993,0.7777777777777778,2,object_07,1,2200,0,0,7,desert_2,1,memory-2step-stake-s,679,2296966,0.0-19.0-0.1-0.181,A3191G66DZEGEB,32CXT5U15JJVAEXBU2XNZL8A76W8U1,3ERET4BTVQPK7693VI41IEQAJXF9KQ,2,1
182,4,object_01,object_06,-1.0,-1,-1,-1.0,0.0,-,0,1,2200,0,0,7,restaurant_1,1,memory-2step-stake-s,680,2303487,0.0-19.0-0.1-0.182,A3191G66DZEGEB,32CXT5U15JJVAEXBU2XNZL8A76W8U1,3ERET4BTVQPK7693VI41IEQAJXF9KQ,7,8
183,4,object_06,object_01,277.19999999925,7,2,420.10000000149,0.2222222222222222,1,object_09,5,2210,0,2,2,restaurant_1,1,memory-2step-stake-s,681,2311336,0.0-19.0-0.1-0.183,A3191G66DZEGEB,32CXT5U15JJVAEXBU2XNZL8A76W8U1,3ERET4BTVQPK7693VI41IEQAJXF9KQ,8,7
184,1,object_08,object_02,391.30000000075,2,1,970.29999999702,0.5555555555555556,2,object_07,1,2215,0,5,5,desert_5,1,memory-2step-stake-s,682,2320043,0.0-19.0-0.1-0.184,A3191G66DZEGEB,32CXT5U15JJVAEXBU2XNZL8A76W8U1,3ERET4BTVQPK7693VI41IEQAJXF9KQ,2,1
185,4,object_01,object_06,447.29999999702,8,2,425.89999999851,0.5555555555555556,2,object_07,5,2240,0,4,5,restaurant_5,1,memory-2step-stake-s,683,2328205,0.0-19.0-0.1-0.185,A3191G66DZEGEB,32CXT5U15JJVAEXBU2XNZL8A76W8U1,3ERET4BTVQPK7693VI41IEQAJXF9KQ,7,8
186,4,object_06,object_01,331.19999999925,7,2,401.60000000149,0.2222222222222222,1,object_09,5,2250,0,2,5,restaurant_5,1,memory-2step-stake-s,684,2336042,0.0-19.0-0.1-0.186,A3191G66DZEGEB,32CXT5U15JJVAEXBU2XNZL8A76W8U1,3ERET4BTVQPK7693VI41IEQAJXF9KQ,8,7
187,1,object_08,object_02,339.80000000075,2,1,556.19999999925,0.6666666666666666,2,object_07,1,2256,0,1,6,desert_8,1,memory-2step-stake-s,685,2344435,0.0-19.0-0.1-0.187,A3191G66DZEGEB,32CXT5U15JJVAEXBU2XNZL8A76W8U1,3ERET4BTVQPK7693VI41IEQAJXF9KQ,2,1
188,2,object_10,object_05,526.10000000149,3,2,419.19999999925,0.3333333333333333,1,object_09,5,2271,0,3,8,forest_3,1,memory-2step-stake-s,686,2352390,0.0-19.0-0.1-0.188,A3191G66DZEGEB,32CXT5U15JJVAEXBU2XNZL8A76W8U1,3ERET4BTVQPK7693VI41IEQAJXF9KQ,4,3
189,1,object_08,object_02,311.39999999851,2,1,649.39999999851,0.8888888888888888,2,object_07,1,2279,0,4,8,desert_2,1,memory-2step-stake-s,687,2361076,0.0-19.0-0.1-0.189,A3191G66DZEGEB,32CXT5U15JJVAEXBU2XNZL8A76W8U1,3ERET4BTVQPK7693VI41IEQAJXF9KQ,2,1
190,1,object_02,object_08,354.0,2,2,657.10000000149,0.7777777777777778,2,object_07,5,2314,0,3,7,desert_5,1,memory-2step-stake-s,688,2369668,0.0-19.0-0.1-0.190,A3191G66DZEGEB,32CXT5U15JJVAEXBU2XNZL8A76W8U1,3ERET4BTVQPK7693VI41IEQAJXF9KQ,1,2
191,2,object_05,object_10,417.19999999925,4,2,1161.5999999978,0.6666666666666666,2,object_07,1,2320,0,2,6,forest_6,1,memory-2step-stake-s,689,2378659,0.0-19.0-0.1-0.191,A3191G66DZEGEB,32CXT5U15JJVAEXBU2XNZL8A76W8U1,3ERET4BTVQPK7693VI41IEQAJXF9KQ,3,4
192,1,object_02,object_08,469.89999999851,1,1,471.10000000149,0.2222222222222222,1,object_09,5,2330,0,2,9,desert_2,1,memory-2step-stake-s,690,2386550,0.0-19.0-0.1-0.192,A3191G66DZEGEB,32CXT5U15JJVAEXBU2XNZL8A76W8U1,3ERET4BTVQPK7693VI41IEQAJXF9KQ,1,2
193,3,object_04,object_03,435.0,6,2,571.29999999702,0.5555555555555556,2,object_07,5,2355,0,1,5,library_8,1,memory-2step-stake-s,691,2394846,0.0-19.0-0.1-0.193,A3191G66DZEGEB,32CXT5U15JJVAEXBU2XNZL8A76W8U1,3ERET4BTVQPK7693VI41IEQAJXF9KQ,5,6
194,4,object_01,object_06,322.5,8,2,340.60000000149,0.8888888888888888,2,object_07,5,2395,0,3,8,restaurant_4,1,memory-2step-stake-s,692,2403218,0.0-19.0-0.1-0.194,A3191G66DZEGEB,32CXT5U15JJVAEXBU2XNZL8A76W8U1,3ERET4BTVQPK7693VI41IEQAJXF9KQ,7,8
195,1,object_08,object_02,311.59999999776,1,2,355.19999999925,0.3333333333333333,1,object_09,1,2398,0,3,4,desert_7,1,memory-2step-stake-s,693,2411093,0.0-19.0-0.1-0.195,A3191G66DZEGEB,32CXT5U15JJVAEXBU2XNZL8A76W8U1,3ERET4BTVQPK7693VI41IEQAJXF9KQ,2,1
196,1,object_08,object_02,604.5,2,1,390.29999999702,0.5555555555555556,2,object_07,5,2423,0,8,5,desert_2,1,memory-2step-stake-s,694,2419206,0.0-19.0-0.1-0.196,A3191G66DZEGEB,32CXT5U15JJVAEXBU2XNZL8A76W8U1,3ERET4BTVQPK7693VI41IEQAJXF9KQ,2,1
197,2,object_05,object_10,347.30000000075,3,1,549.70000000298,1.0,1,object_09,5,2468,0,9,6,forest_6,1,memory-2step-stake-s,695,2427884,0.0-19.0-0.1-0.197,A3191G66DZEGEB,32CXT5U15JJVAEXBU2XNZL8A76W8U1,3ERET4BTVQPK7693VI41IEQAJXF9KQ,3,4
198,1,object_08,object_02,410.09999999776,1,2,326.10000000149,0.6666666666666666,1,object_09,1,2474,0,6,7,desert_7,1,memory-2step-stake-s,696,2436034,0.0-19.0-0.1-0.198,A3191G66DZEGEB,32CXT5U15JJVAEXBU2XNZL8A76W8U1,3ERET4BTVQPK7693VI41IEQAJXF9KQ,2,1
199,1,object_08,object_02,306.30000000075,2,1,187.80000000075,0.7777777777777778,2,object_07,5,2509,0,7,7,desert_7,1,memory-2step-stake-s,697,2444145,0.0-19.0-0.1-0.199,A3191G66DZEGEB,32CXT5U15JJVAEXBU2XNZL8A76W8U1,3ERET4BTVQPK7693VI41IEQAJXF9KQ,2,1
200,3,object_03,object_04,546.29999999702,6,1,304.0,0.5555555555555556,2,object_07,5,2534,0,7,5,library_4,1,memory-2step-stake-s,698,2452165,0.0-19.0-0.1-0.200,A3191G66DZEGEB,32CXT5U15JJVAEXBU2XNZL8A76W8U1,3ERET4BTVQPK7693VI41IEQAJXF9KQ,6,5
201,3,object_03,object_04,604.59999999776,5,2,496.30000000075,0.5555555555555556,1,object_09,5,2559,0,5,6,library_4,1,memory-2step-stake-s,699,2460382,0.0-19.0-0.1-0.201,A3191G66DZEGEB,32CXT5U15JJVAEXBU2XNZL8A76W8U1,3ERET4BTVQPK7693VI41IEQAJXF9KQ,6,5
202,4,object_06,object_01,680.30000000075,7,2,524.90000000224,0.5555555555555556,1,object_09,5,2584,0,5,9,restaurant_7,1,memory-2step-stake-s,700,2468627,0.0-19.0-0.1-0.202,A3191G66DZEGEB,32CXT5U15JJVAEXBU2XNZL8A76W8U1,3ERET4BTVQPK7693VI41IEQAJXF9KQ,8,7
203,2,object_05,object_10,356.89999999851,3,1,399.60000000149,0.4444444444444444,1,object_09,1,2588,0,4,6,forest_6,1,memory-2step-stake-s,701,2476649,0.0-19.0-0.1-0.203,A3191G66DZEGEB,32CXT5U15JJVAEXBU2XNZL8A76W8U1,3ERET4BTVQPK7693VI41IEQAJXF9KQ,3,4
204,4,object_06,object_01,416.10000000149,7,2,306.69999999925,0.3333333333333333,1,object_09,5,2603,0,3,4,restaurant_5,1,memory-2step-stake-s,702,2484474,0.0-19.0-0.1-0.204,A3191G66DZEGEB,32CXT5U15JJVAEXBU2XNZL8A76W8U1,3ERET4BTVQPK7693VI41IEQAJXF9KQ,8,7
205,3,object_03,object_04,457.10000000149,5,2,348.40000000224,0.5555555555555556,1,object_09,5,2628,0,5,6,library_2,1,memory-2step-stake-s,703,2492540,0.0-19.0-0.1-0.205,A3191G66DZEGEB,32CXT5U15JJVAEXBU2XNZL8A76W8U1,3ERET4BTVQPK7693VI41IEQAJXF9KQ,6,5
206,4,object_01,object_06,350.89999999851,7,1,289.30000000075,0.4444444444444444,1,object_09,1,2632,0,4,8,restaurant_5,1,memory-2step-stake-s,704,2500449,0.0-19.0-0.1-0.206,A3191G66DZEGEB,32CXT5U15JJVAEXBU2XNZL8A76W8U1,3ERET4BTVQPK7693VI41IEQAJXF9KQ,7,8
207,2,object_10,object_05,445.0,3,2,295.59999999776,0.6666666666666666,1,object_09,1,2638,0,6,8,forest_7,1,memory-2step-stake-s,705,2508570,0.0-19.0-0.1-0.207,A3191G66DZEGEB,32CXT5U15JJVAEXBU2XNZL8A76W8U1,3ERET4BTVQPK7693VI41IEQAJXF9KQ,4,3
208,3,object_04,object_03,283.5,6,2,387.59999999776,1.0,2,object_07,5,2683,0,8,9,library_3,1,memory-2step-stake-s,706,2517081,0.0-19.0-0.1-0.208,A3191G66DZEGEB,32CXT5U15JJVAEXBU2XNZL8A76W8U1,3ERET4BTVQPK7693VI41IEQAJXF9KQ,5,6
209,2,object_10,object_05,461.30000000075,4,1,280.10000000149,0.5555555555555556,2,object_07,5,2708,0,7,5,forest_2,1,memory-2step-stake-s,707,2525083,0.0-19.0-0.1-0.209,A3191G66DZEGEB,32CXT5U15JJVAEXBU2XNZL8A76W8U1,3ERET4BTVQPK7693VI41IEQAJXF9KQ,4,3
210,2,object_10,object_05,676.39999999851,4,1,669.59999999776,0.3333333333333333,2,object_07,5,2723,0,6,3,forest_7,1,memory-2step-stake-s,708,2533274,0.0-19.0-0.1-0.210,A3191G66DZEGEB,32CXT5U15JJVAEXBU2XNZL8A76W8U1,3ERET4BTVQPK7693VI41IEQAJXF9KQ,4,3
211,2,object_10,object_05,411.69999999925,3,2,417.39999999851,0.7777777777777778,1,object_09,1,2730,0,7,3,forest_2,1,memory-2step-stake-s,709,2541614,0.0-19.0-0.1-0.211,A3191G66DZEGEB,32CXT5U15JJVAEXBU2XNZL8A76W8U1,3ERET4BTVQPK7693VI41IEQAJXF9KQ,4,3
212,3,object_03,object_04,364.09999999776,6,1,475.60000000149,0.2222222222222222,2,object_07,1,2732,0,1,2,library_2,1,memory-2step-stake-s,710,2549506,0.0-19.0-0.1-0.212,A3191G66DZEGEB,32CXT5U15JJVAEXBU2XNZL8A76W8U1,3ERET4BTVQPK7693VI41IEQAJXF9KQ,6,5
213,3,object_04,object_03,370.70000000298,6,2,372.10000000149,0.2222222222222222,2,object_07,5,2742,0,3,2,library_3,1,memory-2step-stake-s,711,2557293,0.0-19.0-0.1-0.213,A3191G66DZEGEB,32CXT5U15JJVAEXBU2XNZL8A76W8U1,3ERET4BTVQPK7693VI41IEQAJXF9KQ,5,6
214,3,object_03,object_04,317.5,6,1,318.70000000298,0.1111111111111111,2,object_07,1,2743,0,0,1,library_4,1,memory-2step-stake-s,712,2564929,0.0-19.0-0.1-0.214,A3191G66DZEGEB,32CXT5U15JJVAEXBU2XNZL8A76W8U1,3ERET4BTVQPK7693VI41IEQAJXF9KQ,6,5
215,1,object_08,object_02,472.40000000224,1,2,316.0,0.1111111111111111,1,object_09,1,2744,0,1,0,desert_7,1,memory-2step-stake-s,713,2572561,0.0-19.0-0.1-0.215,A3191G66DZEGEB,32CXT5U15JJVAEXBU2XNZL8A76W8U1,3ERET4BTVQPK7693VI41IEQAJXF9KQ,2,1
216,3,object_03,object_04,539.10000000149,6,1,477.20000000298,0.1111111111111111,2,object_07,1,2745,0,0,1,library_2,1,memory-2step-stake-s,714,2580351,0.0-19.0-0.1-0.216,A3191G66DZEGEB,32CXT5U15JJVAEXBU2XNZL8A76W8U1,3ERET4BTVQPK7693VI41IEQAJXF9KQ,6,5
217,4,object_01,object_06,388.69999999925,8,2,40.20000000298,0.3333333333333333,2,object_07,5,2760,0,0,3,restaurant_7,1,memory-2step-stake-s,715,2587905,0.0-19.0-0.1-0.217,A3191G66DZEGEB,32CXT5U15JJVAEXBU2XNZL8A76W8U1,3ERET4BTVQPK7693VI41IEQAJXF9KQ,7,8
218,4,object_01,object_06,529.80000000075,8,2,443.10000000149,0.2222222222222222,2,object_07,5,2770,0,3,2,restaurant_7,1,memory-2step-stake-s,716,2595764,0.0-19.0-0.1-0.218,A3191G66DZEGEB,32CXT5U15JJVAEXBU2XNZL8A76W8U1,3ERET4BTVQPK7693VI41IEQAJXF9KQ,7,8
219,4,object_01,object_06,557.80000000075,7,1,312.89999999851,0.4444444444444444,1,object_09,5,2790,0,4,2,restaurant_1,1,memory-2step-stake-s,717,2603694,0.0-19.0-0.1-0.219,A3191G66DZEGEB,32CXT5U15JJVAEXBU2XNZL8A76W8U1,3ERET4BTVQPK7693VI41IEQAJXF9KQ,7,8
220,3,object_03,object_04,365.10000000149,6,1,215.0,0.2222222222222222,2,object_07,5,2800,0,6,2,library_3,1,memory-2step-stake-s,718,2611325,0.0-19.0-0.1-0.220,A3191G66DZEGEB,32CXT5U15JJVAEXBU2XNZL8A76W8U1,3ERET4BTVQPK7693VI41IEQAJXF9KQ,6,5
221,1,object_08,object_02,236.60000000149,1,2,767.60000000149,0.5555555555555556,1,object_09,1,2805,0,5,3,desert_8,1,memory-2step-stake-s,719,2619812,0.0-19.0-0.1-0.221,A3191G66DZEGEB,32CXT5U15JJVAEXBU2XNZL8A76W8U1,3ERET4BTVQPK7693VI41IEQAJXF9KQ,2,1
222,2,object_10,object_05,500.80000000075,4,1,406.80000000075,0.5555555555555556,2,object_07,1,2810,0,2,5,forest_7,1,memory-2step-stake-s,720,2627940,0.0-19.0-0.1-0.222,A3191G66DZEGEB,32CXT5U15JJVAEXBU2XNZL8A76W8U1,3ERET4BTVQPK7693VI41IEQAJXF9KQ,4,3
223,4,object_01,object_06,519.10000000149,8,2,233.09999999776,0.2222222222222222,2,object_07,1,2812,0,2,2,restaurant_7,1,memory-2step-stake-s,721,2635589,0.0-19.0-0.1-0.223,A3191G66DZEGEB,32CXT5U15JJVAEXBU2XNZL8A76W8U1,3ERET4BTVQPK7693VI41IEQAJXF9KQ,7,8
224,4,object_06,object_01,307.19999999925,8,1,366.39999999851,0.2222222222222222,2,object_07,5,2822,0,3,2,restaurant_1,1,memory-2step-stake-s,722,2643370,0.0-19.0-0.1-0.224,A3191G66DZEGEB,32CXT5U15JJVAEXBU2XNZL8A76W8U1,3ERET4BTVQPK7693VI41IEQAJXF9KQ,8,7
225,3,object_03,object_04,463.30000000075,5,2,527.60000000149,0.2222222222222222,1,object_09,5,2832,0,2,1,library_4,1,memory-2step-stake-s,723,2651318,0.0-19.0-0.1-0.225,A3191G66DZEGEB,32CXT5U15JJVAEXBU2XNZL8A76W8U1,3ERET4BTVQPK7693VI41IEQAJXF9KQ,6,5
226,3,object_03,object_04,386.0,6,1,560.39999999851,0.2222222222222222,2,object_07,5,2842,0,2,2,library_8,1,memory-2step-stake-s,724,2659298,0.0-19.0-0.1-0.226,A3191G66DZEGEB,32CXT5U15JJVAEXBU2XNZL8A76W8U1,3ERET4BTVQPK7693VI41IEQAJXF9KQ,6,5
227,2,object_10,object_05,667.89999999851,3,2,235.79999999702,0.1111111111111111,1,object_09,1,2843,0,1,6,forest_3,1,memory-2step-stake-s,725,2666855,0.0-19.0-0.1-0.227,A3191G66DZEGEB,32CXT5U15JJVAEXBU2XNZL8A76W8U1,3ERET4BTVQPK7693VI41IEQAJXF9KQ,4,3
228,1,object_08,object_02,323.39999999851,2,1,336.79999999702,0.8888888888888888,2,object_07,5,2883,0,1,8,desert_8,1,memory-2step-stake-s,726,2675222,0.0-19.0-0.1-0.228,A3191G66DZEGEB,32CXT5U15JJVAEXBU2XNZL8A76W8U1,3ERET4BTVQPK7693VI41IEQAJXF9KQ,2,1
229,1,object_08,object_02,1049.1999999993,2,1,399.5,0.7777777777777778,2,object_07,1,2890,0,3,7,desert_5,1,memory-2step-stake-s,727,2683548,0.0-19.0-0.1-0.229,A3191G66DZEGEB,32CXT5U15JJVAEXBU2XNZL8A76W8U1,3ERET4BTVQPK7693VI41IEQAJXF9KQ,2,1
230,2,object_10,object_05,470.89999999851,4,1,424.30000000075,0.2222222222222222,2,object_07,1,2892,0,3,2,forest_3,1,memory-2step-stake-s,728,2691391,0.0-19.0-0.1-0.230,A3191G66DZEGEB,32CXT5U15JJVAEXBU2XNZL8A76W8U1,3ERET4BTVQPK7693VI41IEQAJXF9KQ,4,3
231,2,object_05,object_10,870.09999999776,4,2,471.80000000075,0.2222222222222222,2,object_07,1,2894,0,4,2,forest_3,1,memory-2step-stake-s,729,2699286,0.0-19.0-0.1-0.231,A3191G66DZEGEB,32CXT5U15JJVAEXBU2XNZL8A76W8U1,3ERET4BTVQPK7693VI41IEQAJXF9KQ,3,4
232,2,object_10,object_05,382.29999999702,3,2,431.90000000224,0.4444444444444444,1,object_09,1,2898,0,4,1,forest_6,1,memory-2step-stake-s,730,2707346,0.0-19.0-0.1-0.232,A3191G66DZEGEB,32CXT5U15JJVAEXBU2XNZL8A76W8U1,3ERET4BTVQPK7693VI41IEQAJXF9KQ,4,3
233,3,object_03,object_04,369.0,6,1,274.69999999925,0.3333333333333333,2,object_07,5,2913,0,7,3,library_4,1,memory-2step-stake-s,731,2715141,0.0-19.0-0.1-0.233,A3191G66DZEGEB,32CXT5U15JJVAEXBU2XNZL8A76W8U1,3ERET4BTVQPK7693VI41IEQAJXF9KQ,6,5
234,1,object_02,object_08,267.90000000224,2,2,269.19999999925,0.3333333333333333,2,object_07,1,2916,0,8,3,desert_7,1,memory-2step-stake-s,732,2722933,0.0-19.0-0.1-0.234,A3191G66DZEGEB,32CXT5U15JJVAEXBU2XNZL8A76W8U1,3ERET4BTVQPK7693VI41IEQAJXF9KQ,1,2
235,3,object_04,object_03,390.39999999851,6,2,363.10000000149,0.2222222222222222,2,object_07,5,2926,0,9,2,library_8,1,memory-2step-stake-s,733,2730717,0.0-19.0-0.1-0.235,A3191G66DZEGEB,32CXT5U15JJVAEXBU2XNZL8A76W8U1,3ERET4BTVQPK7693VI41IEQAJXF9KQ,5,6
236,3,object_04,object_03,498.40000000224,6,2,341.80000000075,0.1111111111111111,2,object_07,5,2931,0,8,1,library_8,1,memory-2step-stake-s,734,2738377,0.0-19.0-0.1-0.236,A3191G66DZEGEB,32CXT5U15JJVAEXBU2XNZL8A76W8U1,3ERET4BTVQPK7693VI41IEQAJXF9KQ,5,6
237,1,object_02,object_08,314.30000000075,1,1,508.19999999925,0.7777777777777778,1,object_09,1,2938,0,7,0,desert_8,1,memory-2step-stake-s,735,2746808,0.0-19.0-0.1-0.237,A3191G66DZEGEB,32CXT5U15JJVAEXBU2XNZL8A76W8U1,3ERET4BTVQPK7693VI41IEQAJXF9KQ,1,2
238,2,object_10,object_05,538.20000000298,3,2,407.19999999925,0.8888888888888888,1,object_09,1,2946,0,8,2,forest_2,1,memory-2step-stake-s,736,2755241,0.0-19.0-0.1-0.238,A3191G66DZEGEB,32CXT5U15JJVAEXBU2XNZL8A76W8U1,3ERET4BTVQPK7693VI41IEQAJXF9KQ,4,3
239,4,object_01,object_06,345.69999999925,8,2,284.20000000298,0.0,2,object_07,5,2946,0,7,0,restaurant_5,1,memory-2step-stake-s,737,2762740,0.0-19.0-0.1-0.239,A3191G66DZEGEB,32CXT5U15JJVAEXBU2XNZL8A76W8U1,3ERET4BTVQPK7693VI41IEQAJXF9KQ,7,8
240,1,object_02,object_08,470.69999999925,1,1,296.80000000075,0.8888888888888888,1,object_09,1,2954,0,8,2,desert_8,1,memory-2step-stake-s,738,2771061,0.0-19.0-0.1-0.240,A3191G66DZEGEB,32CXT5U15JJVAEXBU2XNZL8A76W8U1,3ERET4BTVQPK7693VI41IEQAJXF9KQ,1,2
241,2,object_10,object_05,412.59999999776,3,2,39.800000000745,1.0,1,object_09,5,2999,0,9,1,forest_6,1,memory-2step-stake-s,739,2779227,0.0-19.0-0.1-0.241,A3191G66DZEGEB,32CXT5U15JJVAEXBU2XNZL8A76W8U1,3ERET4BTVQPK7693VI41IEQAJXF9KQ,4,3
242,3,object_04,object_03,594.0,6,2,466.89999999851,0.0,2,object_07,5,2999,0,6,0,library_3,1,memory-2step-stake-s,740,2786909,0.0-19.0-0.1-0.242,A3191G66DZEGEB,32CXT5U15JJVAEXBU2XNZL8A76W8U1,3ERET4BTVQPK7693VI41IEQAJXF9KQ,5,6
243,1,object_08,object_02,383.0,1,2,385.10000000149,0.2222222222222222,1,object_09,1,3001,0,2,2,desert_2,1,memory-2step-stake-s,741,2794711,0.0-19.0-0.1-0.243,A3191G66DZEGEB,32CXT5U15JJVAEXBU2XNZL8A76W8U1,3ERET4BTVQPK7693VI41IEQAJXF9KQ,2,1
244,3,object_04,object_03,588.69999999925,5,1,334.0,0.2222222222222222,1,object_09,5,3011,0,2,1,library_8,1,memory-2step-stake-s,742,2802462,0.0-19.0-0.1-0.244,A3191G66DZEGEB,32CXT5U15JJVAEXBU2XNZL8A76W8U1,3ERET4BTVQPK7693VI41IEQAJXF9KQ,5,6
245,2,object_10,object_05,493.0,3,2,271.80000000075,0.1111111111111111,1,object_09,1,3012,0,1,0,forest_2,1,memory-2step-stake-s,743,2810051,0.0-19.0-0.1-0.245,A3191G66DZEGEB,32CXT5U15JJVAEXBU2XNZL8A76W8U1,3ERET4BTVQPK7693VI41IEQAJXF9KQ,4,3
246,1,object_08,object_02,626.69999999925,2,1,565.40000000224,0.1111111111111111,2,object_07,1,3013,0,3,1,desert_8,1,memory-2step-stake-s,744,2817929,0.0-19.0-0.1-0.246,A3191G66DZEGEB,32CXT5U15JJVAEXBU2XNZL8A76W8U1,3ERET4BTVQPK7693VI41IEQAJXF9KQ,2,1
247,4,object_06,object_01,330.30000000075,7,2,451.69999999925,0.3333333333333333,1,object_09,5,3028,0,3,2,restaurant_5,1,memory-2step-stake-s,745,2825901,0.0-19.0-0.1-0.247,A3191G66DZEGEB,32CXT5U15JJVAEXBU2XNZL8A76W8U1,3ERET4BTVQPK7693VI41IEQAJXF9KQ,8,7
248,3,object_04,object_03,946.10000000149,6,2,479.80000000075,0.1111111111111111,2,object_07,1,3029,0,1,1,library_2,1,memory-2step-stake-s,746,2833705,0.0-19.0-0.1-0.248,A3191G66DZEGEB,32CXT5U15JJVAEXBU2XNZL8A76W8U1,3ERET4BTVQPK7693VI41IEQAJXF9KQ,5,6
249,4,object_06,object_01,960.0,8,1,823.89999999851,0.4444444444444444,2,object_07,1,3033,0,4,4,restaurant_4,1,memory-2step-stake-s,747,2842157,0.0-19.0-0.1-0.249,A3191G66DZEGEB,32CXT5U15JJVAEXBU2XNZL8A76W8U1,3ERET4BTVQPK7693VI41IEQAJXF9KQ,8,7
250,2,object_10,object_05,433.30000000075,3,2,408.0,0.8888888888888888,1,object_09,1,3041,0,8,6,forest_2,1,memory-2step-stake-s,748,2850595,0.0-19.0-0.1-0.250,A3191G66DZEGEB,32CXT5U15JJVAEXBU2XNZL8A76W8U1,3ERET4BTVQPK7693VI41IEQAJXF9KQ,4,3
251,4,object_06,object_01,708.10000000149,7,2,450.0,0.7777777777777778,1,object_09,5,3076,0,7,7,restaurant_4,1,memory-2step-stake-s,749,2858977,0.0-19.0-0.1-0.251,A3191G66DZEGEB,32CXT5U15JJVAEXBU2XNZL8A76W8U1,3ERET4BTVQPK7693VI41IEQAJXF9KQ,8,7
252,3,object_04,object_03,541.40000000224,5,1,126.0,0.5555555555555556,1,object_09,5,3101,0,5,8,library_4,1,memory-2step-stake-s,750,2866834,0.0-19.0-0.1-0.252,A3191G66DZEGEB,32CXT5U15JJVAEXBU2XNZL8A76W8U1,3ERET4BTVQPK7693VI41IEQAJXF9KQ,5,6
253,3,object_04,object_03,525.19999999925,6,2,426.90000000224,0.6666666666666666,2,object_07,5,3131,0,4,6,library_3,1,memory-2step-stake-s,751,2875086,0.0-19.0-0.1-0.253,A3191G66DZEGEB,32CXT5U15JJVAEXBU2XNZL8A76W8U1,3ERET4BTVQPK7693VI41IEQAJXF9KQ,5,6
254,3,object_03,object_04,338.69999999925,6,1,178.10000000149,0.3333333333333333,2,object_07,5,3146,0,4,3,library_8,1,memory-2step-stake-s,752,2882791,0.0-19.0-0.1-0.254,A3191G66DZEGEB,32CXT5U15JJVAEXBU2XNZL8A76W8U1,3ERET4BTVQPK7693VI41IEQAJXF9KQ,6,5
255,2,object_05,object_10,391.19999999925,4,2,288.60000000149,0.0,2,object_07,1,3146,0,5,0,forest_2,1,memory-2step-stake-s,753,2890293,0.0-19.0-0.1-0.255,A3191G66DZEGEB,32CXT5U15JJVAEXBU2XNZL8A76W8U1,3ERET4BTVQPK7693VI41IEQAJXF9KQ,3,4
