,state1,stim_left,stim_right,rt_1,choice1,response1,rt_2,points,state2,stim_state2,stake,score,practice,rews1,rews2,background,high_arm,trial_type,trial_index,time_elapsed,internal_node_id,subid,hitid,assignmentid,stim_left_num,stim_right_num
0,2,object_01,object_06,416.4550001733,3,2,-1.0,0.0,1,object_05,5,0,0,2,7,forest_8,1,memory-2step-stake-s,507,877422,0.0-19.0-0.0-0.0,A2KRFL7H6AA8FZ,3VGZ74AYUJWEHZMTR9OBXS32OP2GCF,33JKGHPFYGA0MWD0H40MFSDYDRRMN7,4,3
1,1,object_10,object_07,411.645000102,1,1,-1.0,0.0,1,object_05,1,0,0,4,8,desert_4,1,memory-2step-stake-s,508,885970,0.0-19.0-0.0-0.1,A2KRFL7H6AA8FZ,3VGZ74AYUJWEHZMTR9OBXS32OP2GCF,33JKGHPFYGA0MWD0H40MFSDYDRRMN7,1,2
2,2,object_06,object_01,645.17999999225,4,2,778.36000011303,0.8888888888888888,2,object_08,5,40,0,3,8,forest_3,1,memory-2step-stake-s,509,894821,0.0-19.0-0.0-0.2,A2KRFL7H6AA8FZ,3VGZ74AYUJWEHZMTR9OBXS32OP2GCF,33JKGHPFYGA0MWD0H40MFSDYDRRMN7,3,4
3,3,object_09,object_04,598.48000016063,6,2,871.93999998271,0.7777777777777778,2,object_08,5,75,0,5,7,library_6,1,memory-2step-stake-s,510,903692,0.0-19.0-0.0-0.3,A2KRFL7H6AA8FZ,3VGZ74AYUJWEHZMTR9OBXS32OP2GCF,33JKGHPFYGA0MWD0H40MFSDYDRRMN7,5,6
4,2,object_06,object_01,397.64999994077,3,1,717.3049999401,0.3333333333333333,1,object_05,1,78,0,3,7,forest_4,1,memory-2step-stake-s,511,911994,0.0-19.0-0.0-0.4,A2KRFL7H6AA8FZ,3VGZ74AYUJWEHZMTR9OBXS32OP2GCF,33JKGHPFYGA0MWD0H40MFSDYDRRMN7,3,4
5,2,object_06,object_01,424.67999993823,3,1,292.4949999433,0.6666666666666666,1,object_05,1,84,0,6,7,forest_8,1,memory-2step-stake-s,512,920153,0.0-19.0-0.0-0.5,A2KRFL7H6AA8FZ,3VGZ74AYUJWEHZMTR9OBXS32OP2GCF,33JKGHPFYGA0MWD0H40MFSDYDRRMN7,3,4
6,3,object_04,object_09,297.31999989599,6,1,358.6550001055,0.6666666666666666,2,object_08,1,90,0,6,6,library_3,1,memory-2step-stake-s,513,928386,0.0-19.0-0.0-0.6,A2KRFL7H6AA8FZ,3VGZ74AYUJWEHZMTR9OBXS32OP2GCF,33JKGHPFYGA0MWD0H40MFSDYDRRMN7,6,5
7,4,object_02,object_03,338.28499983065,7,1,354.02999981306,0.6666666666666666,1,object_05,5,120,0,6,6,restaurant_4,1,memory-2step-stake-s,514,936626,0.0-19.0-0.0-0.7,A2KRFL7H6AA8FZ,3VGZ74AYUJWEHZMTR9OBXS32OP2GCF,33JKGHPFYGA0MWD0H40MFSDYDRRMN7,7,8
8,4,object_02,object_03,386.77500002086,8,2,594.50999996625,1.0,2,object_08,5,165,0,6,9,restaurant_7,1,memory-2step-stake-s,515,945389,0.0-19.0-0.0-0.8,A2KRFL7H6AA8FZ,3VGZ74AYUJWEHZMTR9OBXS32OP2GCF,33JKGHPFYGA0MWD0H40MFSDYDRRMN7,7,8
9,3,object_04,object_09,508.01500002854,5,2,388.20499996655,0.6666666666666666,1,object_05,5,195,0,6,5,library_7,1,memory-2step-stake-s,516,953670,0.0-19.0-0.0-0.9,A2KRFL7H6AA8FZ,3VGZ74AYUJWEHZMTR9OBXS32OP2GCF,33JKGHPFYGA0MWD0H40MFSDYDRRMN7,6,5
10,2,object_06,object_01,468.38500001468,4,2,482.83999995328,0.3333333333333333,2,object_08,1,198,0,8,3,forest_5,1,memory-2step-stake-s,517,961734,0.0-19.0-0.0-0.10,A2KRFL7H6AA8FZ,3VGZ74AYUJWEHZMTR9OBXS32OP2GCF,33JKGHPFYGA0MWD0H40MFSDYDRRMN7,3,4
11,2,object_06,object_01,404.86000012606,3,1,685.5800000485,0.8888888888888888,1,object_05,1,206,0,8,2,forest_3,1,memory-2step-stake-s,518,970539,0.0-19.0-0.0-0.11,A2KRFL7H6AA8FZ,3VGZ74AYUJWEHZMTR9OBXS32OP2GCF,33JKGHPFYGA0MWD0H40MFSDYDRRMN7,3,4
12,1,object_10,object_07,432.77500011027,2,2,315.09499996901,0.0,2,object_08,1,206,0,6,0,desert_1,1,memory-2step-stake-s,519,978100,0.0-19.0-0.0-0.12,A2KRFL7H6AA8FZ,3VGZ74AYUJWEHZMTR9OBXS32OP2GCF,33JKGHPFYGA0MWD0H40MFSDYDRRMN7,1,2
13,1,object_07,object_10,393.90499982983,2,1,322.35499983653,0.2222222222222222,2,object_08,1,208,0,8,2,desert_4,1,memory-2step-stake-s,520,985893,0.0-19.0-0.0-0.13,A2KRFL7H6AA8FZ,3VGZ74AYUJWEHZMTR9OBXS32OP2GCF,33JKGHPFYGA0MWD0H40MFSDYDRRMN7,2,1
14,3,object_09,object_04,500.30499999411,6,2,418.25999994762,0.0,2,object_08,5,208,0,7,0,library_7,1,memory-2step-stake-s,521,993591,0.0-19.0-0.0-0.14,A2KRFL7H6AA8FZ,3VGZ74AYUJWEHZMTR9OBXS32OP2GCF,33JKGHPFYGA0MWD0H40MFSDYDRRMN7,5,6
15,4,object_03,object_02,251.28500000574,8,1,513.82500003092,0.2222222222222222,2,object_08,1,210,0,5,2,restaurant_4,1,memory-2step-stake-s,522,1001582,0.0-19.0-0.0-0.15,A2KRFL7H6AA8FZ,3VGZ74AYUJWEHZMTR9OBXS32OP2GCF,33JKGHPFYGA0MWD0H40MFSDYDRRMN7,8,7
16,1,object_10,object_07,284.26499990746,1,1,341.35999996215,0.5555555555555556,1,object_05,1,215,0,5,5,desert_4,1,memory-2step-stake-s,523,1009709,0.0-19.0-0.0-0.16,A2KRFL7H6AA8FZ,3VGZ74AYUJWEHZMTR9OBXS32OP2GCF,33JKGHPFYGA0MWD0H40MFSDYDRRMN7,1,2
17,4,object_02,object_03,279.46999995038,8,2,388.56999995187,0.6666666666666666,2,object_08,5,245,0,6,6,restaurant_2,1,memory-2step-stake-s,524,1017991,0.0-19.0-0.0-0.17,A2KRFL7H6AA8FZ,3VGZ74AYUJWEHZMTR9OBXS32OP2GCF,33JKGHPFYGA0MWD0H40MFSDYDRRMN7,7,8
18,1,object_10,object_07,538.11999992467,2,2,565.81500009634,0.6666666666666666,2,object_08,1,251,0,5,6,desert_6,1,memory-2step-stake-s,525,1026428,0.0-19.0-0.0-0.18,A2KRFL7H6AA8FZ,3VGZ74AYUJWEHZMTR9OBXS32OP2GCF,33JKGHPFYGA0MWD0H40MFSDYDRRMN7,1,2
19,1,object_10,object_07,421.6899999883,1,1,409.5100001432,0.6666666666666666,1,object_05,1,257,0,6,5,desert_4,1,memory-2step-stake-s,526,1034701,0.0-19.0-0.0-0.19,A2KRFL7H6AA8FZ,3VGZ74AYUJWEHZMTR9OBXS32OP2GCF,33JKGHPFYGA0MWD0H40MFSDYDRRMN7,1,2
20,2,object_06,object_01,322.1950000152,4,2,652.93500013649,0.4444444444444444,2,object_08,5,277,0,8,4,forest_8,1,memory-2step-stake-s,527,1043014,0.0-19.0-0.0-0.20,A2KRFL7H6AA8FZ,3VGZ74AYUJWEHZMTR9OBXS32OP2GCF,33JKGHPFYGA0MWD0H40MFSDYDRRMN7,3,4
21,2,object_06,object_01,615.09999982081,4,2,573.95000010729,0.4444444444444444,2,object_08,5,297,0,9,4,forest_3,1,memory-2step-stake-s,528,1051267,0.0-19.0-0.0-0.21,A2KRFL7H6AA8FZ,3VGZ74AYUJWEHZMTR9OBXS32OP2GCF,33JKGHPFYGA0MWD0H40MFSDYDRRMN7,3,4
22,4,object_03,object_02,281.41999989748,7,2,484.64499996044,0.7777777777777778,1,object_05,5,332,0,7,2,restaurant_7,1,memory-2step-stake-s,529,1059733,0.0-19.0-0.0-0.22,A2KRFL7H6AA8FZ,3VGZ74AYUJWEHZMTR9OBXS32OP2GCF,33JKGHPFYGA0MWD0H40MFSDYDRRMN7,8,7
23,2,object_06,object_01,394.83499992639,3,1,448.36000003852,0.8888888888888888,1,object_05,5,372,0,8,0,forest_8,1,memory-2step-stake-s,530,1068273,0.0-19.0-0.0-0.23,A2KRFL7H6AA8FZ,3VGZ74AYUJWEHZMTR9OBXS32OP2GCF,33JKGHPFYGA0MWD0H40MFSDYDRRMN7,3,4
24,4,object_02,object_03,437.1500001289,8,2,338.10500008985,0.2222222222222222,2,object_08,5,382,0,8,2,restaurant_2,1,memory-2step-stake-s,531,1076095,0.0-19.0-0.0-0.24,A2KRFL7H6AA8FZ,3VGZ74AYUJWEHZMTR9OBXS32OP2GCF,33JKGHPFYGA0MWD0H40MFSDYDRRMN7,7,8
25,4,object_03,object_02,642.63499993831,7,2,557.19000007957,0.6666666666666666,1,object_05,5,412,0,6,2,restaurant_6,1,memory-2step-stake-s,532,1084543,0.0-19.0-0.0-0.25,A2KRFL7H6AA8FZ,3VGZ74AYUJWEHZMTR9OBXS32OP2GCF,33JKGHPFYGA0MWD0H40MFSDYDRRMN7,8,7
26,3,object_04,object_09,655.0199999474,6,1,567.15000001714,0.1111111111111111,2,object_08,5,417,0,8,1,library_4,1,memory-2step-stake-s,533,1092492,0.0-19.0-0.0-0.26,A2KRFL7H6AA8FZ,3VGZ74AYUJWEHZMTR9OBXS32OP2GCF,33JKGHPFYGA0MWD0H40MFSDYDRRMN7,6,5
27,3,object_04,object_09,472.74500015192,5,2,360.95499992371,0.8888888888888888,1,object_05,5,457,0,8,1,library_7,1,memory-2step-stake-s,534,1100929,0.0-19.0-0.0-0.27,A2KRFL7H6AA8FZ,3VGZ74AYUJWEHZMTR9OBXS32OP2GCF,33JKGHPFYGA0MWD0H40MFSDYDRRMN7,6,5
28,1,object_10,object_07,661.55999992043,1,1,422.06500004977,0.8888888888888888,1,object_05,1,465,0,8,0,desert_4,1,memory-2step-stake-s,535,1109452,0.0-19.0-0.0-0.28,A2KRFL7H6AA8FZ,3VGZ74AYUJWEHZMTR9OBXS32OP2GCF,33JKGHPFYGA0MWD0H40MFSDYDRRMN7,1,2
29,1,object_10,object_07,510.44999994338,1,1,502.98499991186,0.6666666666666666,1,object_05,1,471,0,6,1,desert_5,1,memory-2step-stake-s,536,1117841,0.0-19.0-0.0-0.29,A2KRFL7H6AA8FZ,3VGZ74AYUJWEHZMTR9OBXS32OP2GCF,33JKGHPFYGA0MWD0H40MFSDYDRRMN7,1,2
30,1,object_10,object_07,505.01500000246,1,1,326.91500009969,0.6666666666666666,1,object_05,1,477,0,6,1,desert_1,1,memory-2step-stake-s,537,1126048,0.0-19.0-0.0-0.30,A2KRFL7H6AA8FZ,3VGZ74AYUJWEHZMTR9OBXS32OP2GCF,33JKGHPFYGA0MWD0H40MFSDYDRRMN7,1,2
31,2,object_01,object_06,879.38499986194,4,1,391.48500002921,0.2222222222222222,2,object_08,1,479,0,7,2,forest_3,1,memory-2step-stake-s,538,1133905,0.0-19.0-0.0-0.31,A2KRFL7H6AA8FZ,3VGZ74AYUJWEHZMTR9OBXS32OP2GCF,33JKGHPFYGA0MWD0H40MFSDYDRRMN7,4,3
32,4,object_02,object_03,715.25999996811,8,2,413.83500001393,0.2222222222222222,2,object_08,1,481,0,5,2,restaurant_2,1,memory-2step-stake-s,539,1141778,0.0-19.0-0.0-0.32,A2KRFL7H6AA8FZ,3VGZ74AYUJWEHZMTR9OBXS32OP2GCF,33JKGHPFYGA0MWD0H40MFSDYDRRMN7,7,8
33,3,object_09,object_04,1122.2849998157,6,2,411.61500010639,0.2222222222222222,2,object_08,5,491,0,3,2,library_3,1,memory-2step-stake-s,540,1149633,0.0-19.0-0.0-0.33,A2KRFL7H6AA8FZ,3VGZ74AYUJWEHZMTR9OBXS32OP2GCF,33JKGHPFYGA0MWD0H40MFSDYDRRMN7,5,6
34,1,object_10,object_07,568.5100001283,1,1,407.52499992959,0.6666666666666666,1,object_05,1,497,0,6,2,desert_5,1,memory-2step-stake-s,541,1157942,0.0-19.0-0.0-0.34,A2KRFL7H6AA8FZ,3VGZ74AYUJWEHZMTR9OBXS32OP2GCF,33JKGHPFYGA0MWD0H40MFSDYDRRMN7,1,2
35,1,object_10,object_07,589.0200000722,1,1,367.95999994501,0.7777777777777778,1,object_05,5,532,0,7,1,desert_5,1,memory-2step-stake-s,542,1166292,0.0-19.0-0.0-0.35,A2KRFL7H6AA8FZ,3VGZ74AYUJWEHZMTR9OBXS32OP2GCF,33JKGHPFYGA0MWD0H40MFSDYDRRMN7,1,2
36,2,object_01,object_06,727.18499996699,3,2,462.54500001669,0.5555555555555556,1,object_05,1,537,0,5,2,forest_4,1,memory-2step-stake-s,543,1174562,0.0-19.0-0.0-0.36,A2KRFL7H6AA8FZ,3VGZ74AYUJWEHZMTR9OBXS32OP2GCF,33JKGHPFYGA0MWD0H40MFSDYDRRMN7,4,3
37,4,object_02,object_03,886.88500015996,7,1,462.0949998498,0.6666666666666666,1,object_05,5,567,0,6,2,restaurant_7,1,memory-2step-stake-s,544,1182912,0.0-19.0-0.0-0.37,A2KRFL7H6AA8FZ,3VGZ74AYUJWEHZMTR9OBXS32OP2GCF,33JKGHPFYGA0MWD0H40MFSDYDRRMN7,7,8
38,4,object_02,object_03,636.70499995351,7,1,368.62000008114,0.5555555555555556,1,object_05,5,592,0,5,1,restaurant_6,1,memory-2step-stake-s,545,1191039,0.0-19.0-0.0-0.38,A2KRFL7H6AA8FZ,3VGZ74AYUJWEHZMTR9OBXS32OP2GCF,33JKGHPFYGA0MWD0H40MFSDYDRRMN7,7,8
39,3,object_04,object_09,587.72499999031,5,2,399.17499991134,0.7777777777777778,1,object_05,5,627,0,7,2,library_4,1,memory-2step-stake-s,546,1199408,0.0-19.0-0.0-0.39,A2KRFL7H6AA8FZ,3VGZ74AYUJWEHZMTR9OBXS32OP2GCF,33JKGHPFYGA0MWD0H40MFSDYDRRMN7,6,5
40,1,object_10,object_07,598.20499992929,1,1,434.97999990359,0.8888888888888888,1,object_05,1,635,0,8,3,desert_4,1,memory-2step-stake-s,547,1207940,0.0-19.0-0.0-0.40,A2KRFL7H6AA8FZ,3VGZ74AYUJWEHZMTR9OBXS32OP2GCF,33JKGHPFYGA0MWD0H40MFSDYDRRMN7,1,2
41,3,object_09,object_04,734.73999998532,5,1,357.23500000313,0.8888888888888888,1,object_05,5,675,0,8,4,library_6,1,memory-2step-stake-s,548,1216349,0.0-19.0-0.0-0.41,A2KRFL7H6AA8FZ,3VGZ74AYUJWEHZMTR9OBXS32OP2GCF,33JKGHPFYGA0MWD0H40MFSDYDRRMN7,5,6
42,4,object_02,object_03,633.94000008702,7,1,278.77500001341,0.4444444444444444,1,object_05,5,695,0,4,5,restaurant_2,1,memory-2step-stake-s,549,1224332,0.0-19.0-0.0-0.42,A2KRFL7H6AA8FZ,3VGZ74AYUJWEHZMTR9OBXS32OP2GCF,33JKGHPFYGA0MWD0H40MFSDYDRRMN7,7,8
43,2,object_06,object_01,1120.3349998686,3,1,409.46999983862,0.5555555555555556,1,object_05,1,700,0,5,4,forest_3,1,memory-2step-stake-s,550,1232541,0.0-19.0-0.0-0.43,A2KRFL7H6AA8FZ,3VGZ74AYUJWEHZMTR9OBXS32OP2GCF,33JKGHPFYGA0MWD0H40MFSDYDRRMN7,3,4
44,4,object_03,object_02,758.59000021592,7,2,461.89999999478,0.7777777777777778,1,object_05,5,735,0,7,4,restaurant_4,1,memory-2step-stake-s,551,1241003,0.0-19.0-0.0-0.44,A2KRFL7H6AA8FZ,3VGZ74AYUJWEHZMTR9OBXS32OP2GCF,33JKGHPFYGA0MWD0H40MFSDYDRRMN7,8,7
45,4,object_03,object_02,786.07999999076,7,2,438.77500016242,0.7777777777777778,1,object_05,1,742,0,7,4,restaurant_4,1,memory-2step-stake-s,552,1249446,0.0-19.0-0.0-0.45,A2KRFL7H6AA8FZ,3VGZ74AYUJWEHZMTR9OBXS32OP2GCF,33JKGHPFYGA0MWD0H40MFSDYDRRMN7,8,7
46,1,object_07,object_10,667.71000018343,1,2,506.67499983683,0.5555555555555556,1,object_05,5,767,0,5,4,desert_6,1,memory-2step-stake-s,553,1257754,0.0-19.0-0.0-0.46,A2KRFL7H6AA8FZ,3VGZ74AYUJWEHZMTR9OBXS32OP2GCF,33JKGHPFYGA0MWD0H40MFSDYDRRMN7,2,1
47,1,object_10,object_07,571.34500006214,1,1,482.39000001922,0.5555555555555556,1,object_05,5,792,0,5,5,desert_4,1,memory-2step-stake-s,554,1265985,0.0-19.0-0.0-0.47,A2KRFL7H6AA8FZ,3VGZ74AYUJWEHZMTR9OBXS32OP2GCF,33JKGHPFYGA0MWD0H40MFSDYDRRMN7,1,2
48,4,object_03,object_02,672.76000021957,7,2,498.2650000602,0.5555555555555556,1,object_05,5,817,0,5,4,restaurant_4,1,memory-2step-stake-s,555,1274263,0.0-19.0-0.0-0.48,A2KRFL7H6AA8FZ,3VGZ74AYUJWEHZMTR9OBXS32OP2GCF,33JKGHPFYGA0MWD0H40MFSDYDRRMN7,8,7
49,4,object_02,object_03,716.2950001657,7,1,398.93500017934,0.7777777777777778,1,object_05,5,852,0,7,1,restaurant_7,1,memory-2step-stake-s,556,1282657,0.0-19.0-0.0-0.49,A2KRFL7H6AA8FZ,3VGZ74AYUJWEHZMTR9OBXS32OP2GCF,33JKGHPFYGA0MWD0H40MFSDYDRRMN7,7,8
50,4,object_03,object_02,642.81499991193,7,2,462.50499994494,0.6666666666666666,1,object_05,5,882,0,6,4,restaurant_4,1,memory-2step-stake-s,557,1291009,0.0-19.0-0.0-0.50,A2KRFL7H6AA8FZ,3VGZ74AYUJWEHZMTR9OBXS32OP2GCF,33JKGHPFYGA0MWD0H40MFSDYDRRMN7,8,7
51,1,object_10,object_07,567.84999999218,1,1,348.60999998637,0.7777777777777778,1,object_05,1,889,0,7,6,desert_4,1,memory-2step-stake-s,558,1299359,0.0-19.0-0.0-0.51,A2KRFL7H6AA8FZ,3VGZ74AYUJWEHZMTR9OBXS32OP2GCF,33JKGHPFYGA0MWD0H40MFSDYDRRMN7,1,2
52,1,object_10,object_07,593.44999981113,1,1,441.40499993227,0.5555555555555556,1,object_05,1,894,0,5,5,desert_4,1,memory-2step-stake-s,559,1307577,0.0-19.0-0.0-0.52,A2KRFL7H6AA8FZ,3VGZ74AYUJWEHZMTR9OBXS32OP2GCF,33JKGHPFYGA0MWD0H40MFSDYDRRMN7,1,2
53,4,object_02,object_03,689.58999984898,7,1,451.40500017442,0.5555555555555556,1,object_05,1,899,0,5,4,restaurant_2,1,memory-2step-stake-s,560,1315809,0.0-19.0-0.0-0.53,A2KRFL7H6AA8FZ,3VGZ74AYUJWEHZMTR9OBXS32OP2GCF,33JKGHPFYGA0MWD0H40MFSDYDRRMN7,7,8
54,2,object_01,object_06,1227.7899999171,3,2,464.66499986127,0.6666666666666666,1,object_05,1,905,0,6,1,forest_5,1,memory-2step-stake-s,561,1324163,0.0-19.0-0.0-0.54,A2KRFL7H6AA8FZ,3VGZ74AYUJWEHZMTR9OBXS32OP2GCF,33JKGHPFYGA0MWD0H40MFSDYDRRMN7,4,3
55,2,object_06,object_01,-1.0,-1,-1,-1.0,0.0,-,0,1,905,0,4,2,forest_8,1,memory-2step-stake-s,562,1330708,0.0-19.0-0.0-0.55,A2KRFL7H6AA8FZ,3VGZ74AYUJWEHZMTR9OBXS32OP2GCF,33JKGHPFYGA0MWD0H40MFSDYDRRMN7,3,4
56,1,object_07,object_10,696.54999999329,1,2,421.20500002056,0.4444444444444444,1,object_05,1,909,0,4,2,desert_6,1,memory-2step-stake-s,563,1338811,0.0-19.0-0.0-0.56,A2KRFL7H6AA8FZ,3VGZ74AYUJWEHZMTR9OBXS32OP2GCF,33JKGHPFYGA0MWD0H40MFSDYDRRMN7,2,1
57,2,object_01,object_06,515.63000003807,3,2,506.71500014141,0.5555555555555556,1,object_05,1,914,0,5,0,forest_5,1,memory-2step-stake-s,564,1347128,0.0-19.0-0.0-0.57,A2KRFL7H6AA8FZ,3VGZ74AYUJWEHZMTR9OBXS32OP2GCF,33JKGHPFYGA0MWD0H40MFSDYDRRMN7,4,3
58,3,object_04,object_09,795.21999997087,5,2,534.65500008315,0.5555555555555556,1,object_05,5,939,0,5,0,library_3,1,memory-2step-stake-s,565,1355426,0.0-19.0-0.0-0.58,A2KRFL7H6AA8FZ,3VGZ74AYUJWEHZMTR9OBXS32OP2GCF,33JKGHPFYGA0MWD0H40MFSDYDRRMN7,6,5
59,1,object_07,object_10,521.63999993354,1,2,278.08000007644,0.7777777777777778,1,object_05,1,946,0,7,0,desert_5,1,memory-2step-stake-s,566,1363701,0.0-19.0-0.0-0.59,A2KRFL7H6AA8FZ,3VGZ74AYUJWEHZMTR9OBXS32OP2GCF,33JKGHPFYGA0MWD0H40MFSDYDRRMN7,2,1
60,2,object_01,object_06,658.65499991924,3,2,418.74000011012,0.6666666666666666,1,object_05,1,952,0,6,1,forest_3,1,memory-2step-stake-s,567,1371987,0.0-19.0-0.0-0.60,A2KRFL7H6AA8FZ,3VGZ74AYUJWEHZMTR9OBXS32OP2GCF,33JKGHPFYGA0MWD0H40MFSDYDRRMN7,4,3
61,2,object_06,object_01,796.13000014797,3,1,339.82500014827,0.5555555555555556,1,object_05,1,957,0,5,0,forest_5,1,memory-2step-stake-s,568,1380095,0.0-19.0-0.0-0.61,A2KRFL7H6AA8FZ,3VGZ74AYUJWEHZMTR9OBXS32OP2GCF,33JKGHPFYGA0MWD0H40MFSDYDRRMN7,3,4
62,2,object_01,object_06,601.20999999344,3,2,375.51499996334,0.3333333333333333,1,object_05,1,960,0,3,2,forest_5,1,memory-2step-stake-s,569,1388037,0.0-19.0-0.0-0.62,A2KRFL7H6AA8FZ,3VGZ74AYUJWEHZMTR9OBXS32OP2GCF,33JKGHPFYGA0MWD0H40MFSDYDRRMN7,4,3
63,1,object_10,object_07,603.340000147,1,1,353.49499993026,0.2222222222222222,1,object_05,1,962,0,2,0,desert_6,1,memory-2step-stake-s,570,1395844,0.0-19.0-0.0-0.63,A2KRFL7H6AA8FZ,3VGZ74AYUJWEHZMTR9OBXS32OP2GCF,33JKGHPFYGA0MWD0H40MFSDYDRRMN7,1,2
64,4,object_02,object_03,862.45999997482,8,2,553.70000004768,0.1111111111111111,2,object_08,5,967,0,4,1,restaurant_2,1,memory-2step-stake-s,571,1403749,0.0-19.0-0.0-0.64,A2KRFL7H6AA8FZ,3VGZ74AYUJWEHZMTR9OBXS32OP2GCF,33JKGHPFYGA0MWD0H40MFSDYDRRMN7,7,8
65,1,object_07,object_10,595.43500002474,1,2,388.65499990061,0.1111111111111111,1,object_05,1,968,0,1,2,desert_1,1,memory-2step-stake-s,572,1411471,0.0-19.0-0.0-0.65,A2KRFL7H6AA8FZ,3VGZ74AYUJWEHZMTR9OBXS32OP2GCF,33JKGHPFYGA0MWD0H40MFSDYDRRMN7,2,1
66,3,object_04,object_09,948.00999993458,5,2,396.35500009172,0.1111111111111111,1,object_05,5,973,0,1,1,library_4,1,memory-2step-stake-s,573,1419225,0.0-19.0-0.0-0.66,A2KRFL7H6AA8FZ,3VGZ74AYUJWEHZMTR9OBXS32OP2GCF,33JKGHPFYGA0MWD0H40MFSDYDRRMN7,6,5
67,1,object_07,object_10,840.85000003688,2,1,542.45999990962,0.2222222222222222,2,object_08,1,975,0,1,2,desert_6,1,memory-2step-stake-s,574,1427237,0.0-19.0-0.0-0.67,A2KRFL7H6AA8FZ,3VGZ74AYUJWEHZMTR9OBXS32OP2GCF,33JKGHPFYGA0MWD0H40MFSDYDRRMN7,2,1
68,1,object_07,object_10,576.94000005722,2,1,286.67999990284,0.1111111111111111,2,object_08,1,976,0,2,1,desert_1,1,memory-2step-stake-s,575,1434909,0.0-19.0-0.0-0.68,A2KRFL7H6AA8FZ,3VGZ74AYUJWEHZMTR9OBXS32OP2GCF,33JKGHPFYGA0MWD0H40MFSDYDRRMN7,2,1
69,4,object_03,object_02,703.13500007614,7,2,317.93000013568,0.1111111111111111,1,object_05,5,981,0,1,1,restaurant_7,1,memory-2step-stake-s,576,1442594,0.0-19.0-0.0-0.69,A2KRFL7H6AA8FZ,3VGZ74AYUJWEHZMTR9OBXS32OP2GCF,33JKGHPFYGA0MWD0H40MFSDYDRRMN7,8,7
70,3,object_09,object_04,1050.5800000392,6,2,460.30999999493,0.4444444444444444,2,object_08,1,985,0,2,4,library_4,1,memory-2step-stake-s,577,1450729,0.0-19.0-0.0-0.70,A2KRFL7H6AA8FZ,3VGZ74AYUJWEHZMTR9OBXS32OP2GCF,33JKGHPFYGA0MWD0H40MFSDYDRRMN7,5,6
71,3,object_09,object_04,644.87499999814,6,2,347.24000003189,0.7777777777777778,2,object_08,5,1020,0,0,7,library_6,1,memory-2step-stake-s,578,1459046,0.0-19.0-0.0-0.71,A2KRFL7H6AA8FZ,3VGZ74AYUJWEHZMTR9OBXS32OP2GCF,33JKGHPFYGA0MWD0H40MFSDYDRRMN7,5,6
72,3,object_09,object_04,469.13000009954,6,2,285.42499989271,0.7777777777777778,2,object_08,5,1055,0,4,7,library_4,1,memory-2step-stake-s,579,1467299,0.0-19.0-0.0-0.72,A2KRFL7H6AA8FZ,3VGZ74AYUJWEHZMTR9OBXS32OP2GCF,33JKGHPFYGA0MWD0H40MFSDYDRRMN7,5,6
73,3,object_04,object_09,588.90500012785,6,1,400.02999990247,0.7777777777777778,2,object_08,5,1090,0,3,7,library_4,1,memory-2step-stake-s,580,1475691,0.0-19.0-0.0-0.73,A2KRFL7H6AA8FZ,3VGZ74AYUJWEHZMTR9OBXS32OP2GCF,33JKGHPFYGA0MWD0H40MFSDYDRRMN7,6,5
74,3,object_04,object_09,450.33000013791,6,1,345.08000011556,0.6666666666666666,2,object_08,5,1120,0,2,6,library_3,1,memory-2step-stake-s,581,1483915,0.0-19.0-0.0-0.74,A2KRFL7H6AA8FZ,3VGZ74AYUJWEHZMTR9OBXS32OP2GCF,33JKGHPFYGA0MWD0H40MFSDYDRRMN7,6,5
75,3,object_09,object_04,474.69500009902,6,2,356.1149998568,0.7777777777777778,2,object_08,5,1155,0,1,7,library_6,1,memory-2step-stake-s,582,1492259,0.0-19.0-0.0-0.75,A2KRFL7H6AA8FZ,3VGZ74AYUJWEHZMTR9OBXS32OP2GCF,33JKGHPFYGA0MWD0H40MFSDYDRRMN7,5,6
76,1,object_10,object_07,1025.6400001235,2,2,368.17499995232,0.6666666666666666,2,object_08,1,1161,0,2,6,desert_6,1,memory-2step-stake-s,583,1500556,0.0-19.0-0.0-0.76,A2KRFL7H6AA8FZ,3VGZ74AYUJWEHZMTR9OBXS32OP2GCF,33JKGHPFYGA0MWD0H40MFSDYDRRMN7,1,2
77,3,object_09,object_04,1100.2950000111,6,2,448.26500001363,0.6666666666666666,2,object_08,5,1191,0,1,6,library_4,1,memory-2step-stake-s,584,1508888,0.0-19.0-0.0-0.77,A2KRFL7H6AA8FZ,3VGZ74AYUJWEHZMTR9OBXS32OP2GCF,33JKGHPFYGA0MWD0H40MFSDYDRRMN7,5,6
78,2,object_06,object_01,609.02999993414,3,1,415.67000001669,0.1111111111111111,1,object_05,1,1192,0,1,5,forest_5,1,memory-2step-stake-s,585,1516656,0.0-19.0-0.0-0.78,A2KRFL7H6AA8FZ,3VGZ74AYUJWEHZMTR9OBXS32OP2GCF,33JKGHPFYGA0MWD0H40MFSDYDRRMN7,3,4
79,3,object_09,object_04,827.49000005424,6,2,436.77500006743,0.5555555555555556,2,object_08,5,1217,0,1,5,library_3,1,memory-2step-stake-s,586,1524859,0.0-19.0-0.0-0.79,A2KRFL7H6AA8FZ,3VGZ74AYUJWEHZMTR9OBXS32OP2GCF,33JKGHPFYGA0MWD0H40MFSDYDRRMN7,5,6
80,1,object_10,object_07,874.0599998273,2,2,369.96499984525,0.7777777777777778,2,object_08,1,1224,0,1,7,desert_6,1,memory-2step-stake-s,587,1533242,0.0-19.0-0.0-0.80,A2KRFL7H6AA8FZ,3VGZ74AYUJWEHZMTR9OBXS32OP2GCF,33JKGHPFYGA0MWD0H40MFSDYDRRMN7,1,2
81,2,object_01,object_06,673.13499981537,3,2,407.37499995157,0.3333333333333333,1,object_05,5,1239,0,3,7,forest_3,1,memory-2step-stake-s,588,1541228,0.0-19.0-0.0-0.81,A2KRFL7H6AA8FZ,3VGZ74AYUJWEHZMTR9OBXS32OP2GCF,33JKGHPFYGA0MWD0H40MFSDYDRRMN7,4,3
82,1,object_07,object_10,866.82500015013,2,1,446.59499987029,0.7777777777777778,2,object_08,5,1274,0,5,7,desert_4,1,memory-2step-stake-s,589,1549666,0.0-19.0-0.0-0.82,A2KRFL7H6AA8FZ,3VGZ74AYUJWEHZMTR9OBXS32OP2GCF,33JKGHPFYGA0MWD0H40MFSDYDRRMN7,2,1
83,2,object_01,object_06,647.91499986313,4,1,428.72000019997,0.7777777777777778,2,object_08,1,1281,0,4,7,forest_3,1,memory-2step-stake-s,590,1558083,0.0-19.0-0.0-0.83,A2KRFL7H6AA8FZ,3VGZ74AYUJWEHZMTR9OBXS32OP2GCF,33JKGHPFYGA0MWD0H40MFSDYDRRMN7,4,3
84,4,object_03,object_02,691.94999989122,8,1,478.96500001661,0.4444444444444444,2,object_08,5,1301,0,2,4,restaurant_2,1,memory-2step-stake-s,591,1566229,0.0-19.0-0.0-0.84,A2KRFL7H6AA8FZ,3VGZ74AYUJWEHZMTR9OBXS32OP2GCF,33JKGHPFYGA0MWD0H40MFSDYDRRMN7,8,7
85,3,object_09,object_04,537.37500007264,5,1,371.14000017755,0.1111111111111111,1,object_05,5,1306,0,1,7,library_6,1,memory-2step-stake-s,592,1573951,0.0-19.0-0.0-0.85,A2KRFL7H6AA8FZ,3VGZ74AYUJWEHZMTR9OBXS32OP2GCF,33JKGHPFYGA0MWD0H40MFSDYDRRMN7,5,6
86,2,object_01,object_06,1276.9749998115,4,1,488.56500000693,0.5555555555555556,2,object_08,1,1311,0,0,5,forest_8,1,memory-2step-stake-s,593,1582207,0.0-19.0-0.0-0.86,A2KRFL7H6AA8FZ,3VGZ74AYUJWEHZMTR9OBXS32OP2GCF,33JKGHPFYGA0MWD0H40MFSDYDRRMN7,4,3
87,2,object_06,object_01,935.75499998406,4,2,385.4449999053,0.7777777777777778,2,object_08,1,1318,0,2,7,forest_4,1,memory-2step-stake-s,594,1590591,0.0-19.0-0.0-0.87,A2KRFL7H6AA8FZ,3VGZ74AYUJWEHZMTR9OBXS32OP2GCF,33JKGHPFYGA0MWD0H40MFSDYDRRMN7,3,4
88,4,object_02,object_03,754.58499998786,8,2,418.43500011601,0.8888888888888888,2,object_08,5,1358,0,4,8,restaurant_4,1,memory-2step-stake-s,595,1599117,0.0-19.0-0.0-0.88,A2KRFL7H6AA8FZ,3VGZ74AYUJWEHZMTR9OBXS32OP2GCF,33JKGHPFYGA0MWD0H40MFSDYDRRMN7,7,8
89,4,object_02,object_03,684.52999996953,8,2,385.26999996975,0.7777777777777778,2,object_08,1,1365,0,3,7,restaurant_2,1,memory-2step-stake-s,596,1607497,0.0-19.0-0.0-0.89,A2KRFL7H6AA8FZ,3VGZ74AYUJWEHZMTR9OBXS32OP2GCF,33JKGHPFYGA0MWD0H40MFSDYDRRMN7,7,8
90,3,object_09,object_04,699.5749999769,6,2,448.50499997847,1.0,2,object_08,5,1410,0,2,9,library_3,1,memory-2step-stake-s,597,1616138,0.0-19.0-0.0-0.90,A2KRFL7H6AA8FZ,3VGZ74AYUJWEHZMTR9OBXS32OP2GCF,33JKGHPFYGA0MWD0H40MFSDYDRRMN7,5,6
91,3,object_04,object_09,673.29999990761,6,1,411.27000004053,0.8888888888888888,2,object_08,5,1450,0,2,8,library_7,1,memory-2step-stake-s,598,1624644,0.0-19.0-0.0-0.91,A2KRFL7H6AA8FZ,3VGZ74AYUJWEHZMTR9OBXS32OP2GCF,33JKGHPFYGA0MWD0H40MFSDYDRRMN7,6,5
92,3,object_09,object_04,574.43999988027,6,2,419.2050001584,1.0,2,object_08,5,1495,0,6,9,library_6,1,memory-2step-stake-s,599,1633278,0.0-19.0-0.0-0.92,A2KRFL7H6AA8FZ,3VGZ74AYUJWEHZMTR9OBXS32OP2GCF,33JKGHPFYGA0MWD0H40MFSDYDRRMN7,5,6
93,2,object_01,object_06,961.75000001676,4,1,449.29999997839,0.8888888888888888,2,object_08,1,1503,0,8,8,forest_8,1,memory-2step-stake-s,600,1641807,0.0-19.0-0.0-0.93,A2KRFL7H6AA8FZ,3VGZ74AYUJWEHZMTR9OBXS32OP2GCF,33JKGHPFYGA0MWD0H40MFSDYDRRMN7,4,3
94,2,object_06,object_01,890.24500013329,4,2,370.67499989644,0.8888888888888888,2,object_08,1,1511,0,8,8,forest_3,1,memory-2step-stake-s,601,1650280,0.0-19.0-0.0-0.94,A2KRFL7H6AA8FZ,3VGZ74AYUJWEHZMTR9OBXS32OP2GCF,33JKGHPFYGA0MWD0H40MFSDYDRRMN7,3,4
95,3,object_09,object_04,803.40499989688,6,2,354.50999997556,0.6666666666666666,2,object_08,5,1541,0,7,6,library_3,1,memory-2step-stake-s,602,1658517,0.0-19.0-0.0-0.95,A2KRFL7H6AA8FZ,3VGZ74AYUJWEHZMTR9OBXS32OP2GCF,33JKGHPFYGA0MWD0H40MFSDYDRRMN7,5,6
96,2,object_01,object_06,1170.174999861,3,2,751.91000010818,0.7777777777777778,1,object_05,1,1548,0,7,8,forest_3,1,memory-2step-stake-s,603,1667246,0.0-19.0-0.0-0.96,A2KRFL7H6AA8FZ,3VGZ74AYUJWEHZMTR9OBXS32OP2GCF,33JKGHPFYGA0MWD0H40MFSDYDRRMN7,4,3
97,1,object_07,object_10,1048.9799999632,2,1,377.11500003934,0.6666666666666666,2,object_08,1,1554,0,7,6,desert_4,1,memory-2step-stake-s,604,1675505,0.0-19.0-0.0-0.97,A2KRFL7H6AA8FZ,3VGZ74AYUJWEHZMTR9OBXS32OP2GCF,33JKGHPFYGA0MWD0H40MFSDYDRRMN7,2,1
98,2,object_06,object_01,1038.8549999334,4,2,463.9699999243,0.7777777777777778,2,object_08,1,1561,0,8,7,forest_5,1,memory-2step-stake-s,605,1683966,0.0-19.0-0.0-0.98,A2KRFL7H6AA8FZ,3VGZ74AYUJWEHZMTR9OBXS32OP2GCF,33JKGHPFYGA0MWD0H40MFSDYDRRMN7,3,4
99,2,object_06,object_01,529.09500012174,3,1,327.66499998979,1.0,1,object_05,1,1570,0,9,8,forest_3,1,memory-2step-stake-s,606,1692505,0.0-19.0-0.0-0.99,A2KRFL7H6AA8FZ,3VGZ74AYUJWEHZMTR9OBXS32OP2GCF,33JKGHPFYGA0MWD0H40MFSDYDRRMN7,3,4
100,4,object_03,object_02,1201.5150000807,7,2,365.6750000082,0.8888888888888888,1,object_05,5,1610,0,8,9,restaurant_4,1,memory-2step-stake-s,607,1700923,0.0-19.0-0.0-0.100,A2KRFL7H6AA8FZ,3VGZ74AYUJWEHZMTR9OBXS32OP2GCF,33JKGHPFYGA0MWD0H40MFSDYDRRMN7,8,7
101,3,object_09,object_04,652.09500002675,6,2,298.2900000643,0.8888888888888888,2,object_08,5,1650,0,5,8,library_4,1,memory-2step-stake-s,608,1709312,0.0-19.0-0.0-0.101,A2KRFL7H6AA8FZ,3VGZ74AYUJWEHZMTR9OBXS32OP2GCF,33JKGHPFYGA0MWD0H40MFSDYDRRMN7,5,6
102,3,object_04,object_09,459.92999989539,6,1,265.55999997072,0.6666666666666666,2,object_08,5,1680,0,5,6,library_7,1,memory-2step-stake-s,609,1717454,0.0-19.0-0.0-0.102,A2KRFL7H6AA8FZ,3VGZ74AYUJWEHZMTR9OBXS32OP2GCF,33JKGHPFYGA0MWD0H40MFSDYDRRMN7,6,5
103,4,object_03,object_02,1098.5050001182,7,2,377.78500001878,0.4444444444444444,1,object_05,1,1684,0,4,3,restaurant_6,1,memory-2step-stake-s,610,1725498,0.0-19.0-0.0-0.103,A2KRFL7H6AA8FZ,3VGZ74AYUJWEHZMTR9OBXS32OP2GCF,33JKGHPFYGA0MWD0H40MFSDYDRRMN7,8,7
104,3,object_04,object_09,832.45999994688,5,2,346.0250000935,0.6666666666666666,1,object_05,5,1714,0,6,7,library_7,1,memory-2step-stake-s,611,1733728,0.0-19.0-0.0-0.104,A2KRFL7H6AA8FZ,3VGZ74AYUJWEHZMTR9OBXS32OP2GCF,33JKGHPFYGA0MWD0H40MFSDYDRRMN7,6,5
105,4,object_03,object_02,1004.5899997931,7,2,354.68499991111,0.6666666666666666,1,object_05,5,1744,0,6,8,restaurant_7,1,memory-2step-stake-s,612,1741980,0.0-19.0-0.0-0.105,A2KRFL7H6AA8FZ,3VGZ74AYUJWEHZMTR9OBXS32OP2GCF,33JKGHPFYGA0MWD0H40MFSDYDRRMN7,8,7
106,2,object_06,object_01,455.1550000906,3,1,388.82999983616,0.3333333333333333,1,object_05,1,1747,0,3,8,forest_5,1,memory-2step-stake-s,613,1749940,0.0-19.0-0.0-0.106,A2KRFL7H6AA8FZ,3VGZ74AYUJWEHZMTR9OBXS32OP2GCF,33JKGHPFYGA0MWD0H40MFSDYDRRMN7,3,4
107,1,object_10,object_07,624.39499981701,2,2,300.10999995284,0.8888888888888888,2,object_08,1,1755,0,1,8,desert_1,1,memory-2step-stake-s,614,1758363,0.0-19.0-0.0-0.107,A2KRFL7H6AA8FZ,3VGZ74AYUJWEHZMTR9OBXS32OP2GCF,33JKGHPFYGA0MWD0H40MFSDYDRRMN7,1,2
108,2,object_01,object_06,850.13999999501,3,2,325.15499996953,0.5555555555555556,1,object_05,1,1760,0,5,6,forest_3,1,memory-2step-stake-s,615,1766463,0.0-19.0-0.0-0.108,A2KRFL7H6AA8FZ,3VGZ74AYUJWEHZMTR9OBXS32OP2GCF,33JKGHPFYGA0MWD0H40MFSDYDRRMN7,4,3
109,2,object_06,object_01,599.26999988966,4,2,301.50500009768,0.5555555555555556,2,object_08,1,1765,0,4,5,forest_4,1,memory-2step-stake-s,616,1774550,0.0-19.0-0.0-0.109,A2KRFL7H6AA8FZ,3VGZ74AYUJWEHZMTR9OBXS32OP2GCF,33JKGHPFYGA0MWD0H40MFSDYDRRMN7,3,4
110,3,object_04,object_09,471.32500004955,6,1,284.40499980934,0.3333333333333333,2,object_08,1,1768,0,4,3,library_3,1,memory-2step-stake-s,617,1782402,0.0-19.0-0.0-0.110,A2KRFL7H6AA8FZ,3VGZ74AYUJWEHZMTR9OBXS32OP2GCF,33JKGHPFYGA0MWD0H40MFSDYDRRMN7,6,5
111,3,object_04,object_09,469.91500002332,5,2,289.06000009738,0.4444444444444444,1,object_05,1,1772,0,4,2,library_6,1,memory-2step-stake-s,618,1790377,0.0-19.0-0.0-0.111,A2KRFL7H6AA8FZ,3VGZ74AYUJWEHZMTR9OBXS32OP2GCF,33JKGHPFYGA0MWD0H40MFSDYDRRMN7,6,5
112,3,object_09,object_04,516.46999991499,5,1,437.03499995172,0.4444444444444444,1,object_05,5,1792,0,4,1,library_7,1,memory-2step-stake-s,619,1798475,0.0-19.0-0.0-0.112,A2KRFL7H6AA8FZ,3VGZ74AYUJWEHZMTR9OBXS32OP2GCF,33JKGHPFYGA0MWD0H40MFSDYDRRMN7,5,6
113,2,object_06,object_01,709.59000010043,3,1,706.19000005536,0.3333333333333333,1,object_05,1,1795,0,3,5,forest_8,1,memory-2step-stake-s,620,1806759,0.0-19.0-0.0-0.113,A2KRFL7H6AA8FZ,3VGZ74AYUJWEHZMTR9OBXS32OP2GCF,33JKGHPFYGA0MWD0H40MFSDYDRRMN7,3,4
114,2,object_06,object_01,671.13999999128,4,2,329.67000012286,0.2222222222222222,2,object_08,1,1797,0,2,2,forest_8,1,memory-2step-stake-s,621,1814556,0.0-19.0-0.0-0.114,A2KRFL7H6AA8FZ,3VGZ74AYUJWEHZMTR9OBXS32OP2GCF,33JKGHPFYGA0MWD0H40MFSDYDRRMN7,3,4
115,2,object_01,object_06,621.48999981582,3,2,330.16500016674,0.3333333333333333,1,object_05,1,1800,0,3,5,forest_4,1,memory-2step-stake-s,622,1822451,0.0-19.0-0.0-0.115,A2KRFL7H6AA8FZ,3VGZ74AYUJWEHZMTR9OBXS32OP2GCF,33JKGHPFYGA0MWD0H40MFSDYDRRMN7,4,3
116,4,object_03,object_02,731.71500000171,8,1,355.34999985248,0.3333333333333333,2,object_08,5,1815,0,2,3,restaurant_6,1,memory-2step-stake-s,623,1830367,0.0-19.0-0.0-0.116,A2KRFL7H6AA8FZ,3VGZ74AYUJWEHZMTR9OBXS32OP2GCF,33JKGHPFYGA0MWD0H40MFSDYDRRMN7,8,7
117,1,object_07,object_10,634.28000011481,1,2,274.68499983661,0.3333333333333333,1,object_05,1,1818,0,3,5,desert_6,1,memory-2step-stake-s,624,1838204,0.0-19.0-0.0-0.117,A2KRFL7H6AA8FZ,3VGZ74AYUJWEHZMTR9OBXS32OP2GCF,33JKGHPFYGA0MWD0H40MFSDYDRRMN7,2,1
118,3,object_09,object_04,640.22500021383,5,1,591.23499994166,0.4444444444444444,1,object_05,5,1838,0,4,6,library_3,1,memory-2step-stake-s,625,1846480,0.0-19.0-0.0-0.118,A2KRFL7H6AA8FZ,3VGZ74AYUJWEHZMTR9OBXS32OP2GCF,33JKGHPFYGA0MWD0H40MFSDYDRRMN7,5,6
119,3,object_09,object_04,649.69999995083,5,1,354.77499989793,0.3333333333333333,1,object_05,5,1853,0,3,5,library_4,1,memory-2step-stake-s,626,1854413,0.0-19.0-0.0-0.119,A2KRFL7H6AA8FZ,3VGZ74AYUJWEHZMTR9OBXS32OP2GCF,33JKGHPFYGA0MWD0H40MFSDYDRRMN7,5,6
120,2,object_01,object_06,485.83999997936,3,2,287.57000016049,0.3333333333333333,1,object_05,1,1856,0,3,3,forest_4,1,memory-2step-stake-s,627,1862267,0.0-19.0-0.0-0.120,A2KRFL7H6AA8FZ,3VGZ74AYUJWEHZMTR9OBXS32OP2GCF,33JKGHPFYGA0MWD0H40MFSDYDRRMN7,4,3
121,4,object_03,object_02,865.95000000671,7,2,282.26000000723,0.4444444444444444,1,object_05,5,1876,0,4,0,restaurant_6,1,memory-2step-stake-s,628,1870205,0.0-19.0-0.0-0.121,A2KRFL7H6AA8FZ,3VGZ74AYUJWEHZMTR9OBXS32OP2GCF,33JKGHPFYGA0MWD0H40MFSDYDRRMN7,8,7
122,3,object_09,object_04,966.32499992847,6,2,375.43999985792,0.1111111111111111,2,object_08,5,1881,0,1,1,library_3,1,memory-2step-stake-s,629,1877952,0.0-19.0-0.0-0.122,A2KRFL7H6AA8FZ,3VGZ74AYUJWEHZMTR9OBXS32OP2GCF,33JKGHPFYGA0MWD0H40MFSDYDRRMN7,5,6
123,1,object_07,object_10,820.16000011936,2,1,447.17000005767,0.2222222222222222,2,object_08,1,1883,0,1,2,desert_4,1,memory-2step-stake-s,630,1885863,0.0-19.0-0.0-0.123,A2KRFL7H6AA8FZ,3VGZ74AYUJWEHZMTR9OBXS32OP2GCF,33JKGHPFYGA0MWD0H40MFSDYDRRMN7,2,1
124,1,object_07,object_10,453.4749998711,1,2,351.35000012815,0.2222222222222222,1,object_05,5,1893,0,2,1,desert_5,1,memory-2step-stake-s,631,1893687,0.0-19.0-0.0-0.124,A2KRFL7H6AA8FZ,3VGZ74AYUJWEHZMTR9OBXS32OP2GCF,33JKGHPFYGA0MWD0H40MFSDYDRRMN7,2,1
125,1,object_10,object_07,538.08999992907,2,2,390.98499994725,0.4444444444444444,2,object_08,1,1897,0,3,4,desert_1,1,memory-2step-stake-s,632,1901764,0.0-19.0-0.0-0.125,A2KRFL7H6AA8FZ,3VGZ74AYUJWEHZMTR9OBXS32OP2GCF,33JKGHPFYGA0MWD0H40MFSDYDRRMN7,1,2
126,3,object_09,object_04,383.09999997728,5,1,380.84500003606,0.5555555555555556,1,object_05,5,1922,0,5,3,library_7,1,memory-2step-stake-s,633,1909918,0.0-19.0-0.0-0.126,A2KRFL7H6AA8FZ,3VGZ74AYUJWEHZMTR9OBXS32OP2GCF,33JKGHPFYGA0MWD0H40MFSDYDRRMN7,5,6
127,3,object_09,object_04,537.15500002727,5,1,404.48000002652,0.7777777777777778,1,object_05,5,1957,0,7,1,library_3,1,memory-2step-stake-s,634,1918321,0.0-19.0-0.0-0.127,A2KRFL7H6AA8FZ,3VGZ74AYUJWEHZMTR9OBXS32OP2GCF,33JKGHPFYGA0MWD0H40MFSDYDRRMN7,5,6
128,3,object_09,object_04,586.96499979123,5,1,611.0350000672,1.0,1,object_05,5,2002,0,9,3,library_7,1,memory-2step-stake-s,636,1948357,0.0-19.0-0.1-0.128,A2KRFL7H6AA8FZ,3VGZ74AYUJWEHZMTR9OBXS32OP2GCF,33JKGHPFYGA0MWD0H40MFSDYDRRMN7,5,6
129,1,object_07,object_10,598.07499987073,1,2,292.40499995649,0.8888888888888888,1,object_05,1,2010,0,8,7,desert_5,1,memory-2step-stake-s,637,1956777,0.0-19.0-0.1-0.129,A2KRFL7H6AA8FZ,3VGZ74AYUJWEHZMTR9OBXS32OP2GCF,33JKGHPFYGA0MWD0H40MFSDYDRRMN7,2,1
130,2,object_01,object_06,598.75499992631,4,1,283.7349998299,0.7777777777777778,2,object_08,1,2017,0,3,7,forest_5,1,memory-2step-stake-s,638,1965044,0.0-19.0-0.1-0.130,A2KRFL7H6AA8FZ,3VGZ74AYUJWEHZMTR9OBXS32OP2GCF,33JKGHPFYGA0MWD0H40MFSDYDRRMN7,4,3
131,4,object_03,object_02,592.95000019483,7,2,456.86499984004,0.7777777777777778,1,object_05,5,2052,0,7,5,restaurant_6,1,memory-2step-stake-s,639,1973490,0.0-19.0-0.1-0.131,A2KRFL7H6AA8FZ,3VGZ74AYUJWEHZMTR9OBXS32OP2GCF,33JKGHPFYGA0MWD0H40MFSDYDRRMN7,8,7
132,2,object_06,object_01,418.15000004135,3,1,307.91499977931,0.7777777777777778,1,object_05,1,2059,0,7,6,forest_3,1,memory-2step-stake-s,640,1981820,0.0-19.0-0.1-0.132,A2KRFL7H6AA8FZ,3VGZ74AYUJWEHZMTR9OBXS32OP2GCF,33JKGHPFYGA0MWD0H40MFSDYDRRMN7,3,4
133,2,object_06,object_01,515.06999996491,3,1,327.04499992542,0.8888888888888888,1,object_05,1,2067,0,8,4,forest_4,1,memory-2step-stake-s,641,1990252,0.0-19.0-0.1-0.133,A2KRFL7H6AA8FZ,3VGZ74AYUJWEHZMTR9OBXS32OP2GCF,33JKGHPFYGA0MWD0H40MFSDYDRRMN7,3,4
134,1,object_07,object_10,643.96500005387,1,2,292.04500000924,1.0,1,object_05,1,2076,0,9,7,desert_4,1,memory-2step-stake-s,642,1998735,0.0-19.0-0.1-0.134,A2KRFL7H6AA8FZ,3VGZ74AYUJWEHZMTR9OBXS32OP2GCF,33JKGHPFYGA0MWD0H40MFSDYDRRMN7,2,1
135,4,object_02,object_03,695.9949999582,7,1,408.68499991484,0.8888888888888888,1,object_05,5,2116,0,8,8,restaurant_7,1,memory-2step-stake-s,643,2007257,0.0-19.0-0.1-0.135,A2KRFL7H6AA8FZ,3VGZ74AYUJWEHZMTR9OBXS32OP2GCF,33JKGHPFYGA0MWD0H40MFSDYDRRMN7,7,8
136,1,object_10,object_07,486.67999985628,1,1,321.06500002556,0.8888888888888888,1,object_05,1,2124,0,8,5,desert_6,1,memory-2step-stake-s,644,2015655,0.0-19.0-0.1-0.136,A2KRFL7H6AA8FZ,3VGZ74AYUJWEHZMTR9OBXS32OP2GCF,33JKGHPFYGA0MWD0H40MFSDYDRRMN7,1,2
137,1,object_07,object_10,629.63499990292,1,2,359.12999999709,0.7777777777777778,1,object_05,5,2159,0,7,4,desert_6,1,memory-2step-stake-s,645,2023985,0.0-19.0-0.1-0.137,A2KRFL7H6AA8FZ,3VGZ74AYUJWEHZMTR9OBXS32OP2GCF,33JKGHPFYGA0MWD0H40MFSDYDRRMN7,2,1
138,1,object_10,object_07,545.08000006899,1,1,384.43000009283,0.8888888888888888,1,object_05,1,2167,0,8,1,desert_1,1,memory-2step-stake-s,646,2032474,0.0-19.0-0.1-0.138,A2KRFL7H6AA8FZ,3VGZ74AYUJWEHZMTR9OBXS32OP2GCF,33JKGHPFYGA0MWD0H40MFSDYDRRMN7,1,2
139,3,object_09,object_04,658.20499998517,5,1,326.6050000675,0.8888888888888888,1,object_05,5,2207,0,8,2,library_3,1,memory-2step-stake-s,647,2040890,0.0-19.0-0.1-0.139,A2KRFL7H6AA8FZ,3VGZ74AYUJWEHZMTR9OBXS32OP2GCF,33JKGHPFYGA0MWD0H40MFSDYDRRMN7,5,6
140,3,object_09,object_04,730.78500013798,5,1,292.10000019521,0.6666666666666666,1,object_05,5,2237,0,6,1,library_6,1,memory-2step-stake-s,648,2049048,0.0-19.0-0.1-0.140,A2KRFL7H6AA8FZ,3VGZ74AYUJWEHZMTR9OBXS32OP2GCF,33JKGHPFYGA0MWD0H40MFSDYDRRMN7,5,6
141,4,object_02,object_03,629.65500005521,7,1,422.7050000336,0.8888888888888888,1,object_05,1,2245,0,8,0,restaurant_7,1,memory-2step-stake-s,649,2057571,0.0-19.0-0.1-0.141,A2KRFL7H6AA8FZ,3VGZ74AYUJWEHZMTR9OBXS32OP2GCF,33JKGHPFYGA0MWD0H40MFSDYDRRMN7,7,8
142,2,object_06,object_01,893.6700001359,3,1,-1.0,0.0,1,object_05,5,2245,0,8,2,forest_8,1,memory-2step-stake-s,650,2066141,0.0-19.0-0.1-0.142,A2KRFL7H6AA8FZ,3VGZ74AYUJWEHZMTR9OBXS32OP2GCF,33JKGHPFYGA0MWD0H40MFSDYDRRMN7,3,4
143,4,object_03,object_02,629.02499991469,7,2,366.72999989241,0.7777777777777778,1,object_05,1,2252,0,7,0,restaurant_2,1,memory-2step-stake-s,651,2074516,0.0-19.0-0.1-0.143,A2KRFL7H6AA8FZ,3VGZ74AYUJWEHZMTR9OBXS32OP2GCF,33JKGHPFYGA0MWD0H40MFSDYDRRMN7,8,7
144,1,object_10,object_07,554.99999993481,1,1,386.72499987297,0.5555555555555556,1,object_05,1,2257,0,5,1,desert_1,1,memory-2step-stake-s,652,2082709,0.0-19.0-0.1-0.144,A2KRFL7H6AA8FZ,3VGZ74AYUJWEHZMTR9OBXS32OP2GCF,33JKGHPFYGA0MWD0H40MFSDYDRRMN7,1,2
145,4,object_02,object_03,650.17500007525,7,1,281.71000001021,0.4444444444444444,1,object_05,5,2277,0,4,1,restaurant_4,1,memory-2step-stake-s,653,2090668,0.0-19.0-0.1-0.145,A2KRFL7H6AA8FZ,3VGZ74AYUJWEHZMTR9OBXS32OP2GCF,33JKGHPFYGA0MWD0H40MFSDYDRRMN7,7,8
146,1,object_07,object_10,558.14499990083,1,2,409.17500015348,0.4444444444444444,1,object_05,1,2281,0,4,0,desert_1,1,memory-2step-stake-s,654,2098746,0.0-19.0-0.1-0.146,A2KRFL7H6AA8FZ,3VGZ74AYUJWEHZMTR9OBXS32OP2GCF,33JKGHPFYGA0MWD0H40MFSDYDRRMN7,2,1
147,1,object_07,object_10,1082.2550000157,2,1,364.45500003174,0.1111111111111111,2,object_08,1,2282,0,6,1,desert_4,1,memory-2step-stake-s,655,2106491,0.0-19.0-0.1-0.147,A2KRFL7H6AA8FZ,3VGZ74AYUJWEHZMTR9OBXS32OP2GCF,33JKGHPFYGA0MWD0H40MFSDYDRRMN7,2,1
148,3,object_09,object_04,784.07000005245,5,1,416.63000010885,0.6666666666666666,1,object_05,5,2312,0,6,1,library_6,1,memory-2step-stake-s,656,2114784,0.0-19.0-0.1-0.148,A2KRFL7H6AA8FZ,3VGZ74AYUJWEHZMTR9OBXS32OP2GCF,33JKGHPFYGA0MWD0H40MFSDYDRRMN7,5,6
149,4,object_02,object_03,535.5799999088,7,1,369.70500019379,0.6666666666666666,1,object_05,5,2342,0,6,1,restaurant_4,1,memory-2step-stake-s,657,2123064,0.0-19.0-0.1-0.149,A2KRFL7H6AA8FZ,3VGZ74AYUJWEHZMTR9OBXS32OP2GCF,33JKGHPFYGA0MWD0H40MFSDYDRRMN7,7,8
150,1,object_10,object_07,835.4700000491,1,1,420.44000001624,0.6666666666666666,1,object_05,1,2348,0,6,0,desert_5,1,memory-2step-stake-s,658,2131377,0.0-19.0-0.1-0.150,A2KRFL7H6AA8FZ,3VGZ74AYUJWEHZMTR9OBXS32OP2GCF,33JKGHPFYGA0MWD0H40MFSDYDRRMN7,1,2
151,2,object_01,object_06,555.85999996401,3,2,299.06999995001,0.6666666666666666,1,object_05,1,2354,0,6,3,forest_4,1,memory-2step-stake-s,659,2139573,0.0-19.0-0.1-0.151,A2KRFL7H6AA8FZ,3VGZ74AYUJWEHZMTR9OBXS32OP2GCF,33JKGHPFYGA0MWD0H40MFSDYDRRMN7,4,3
152,3,object_04,object_09,517.13999989443,6,1,245.28999999166,0.3333333333333333,2,object_08,5,2369,0,8,3,library_7,1,memory-2step-stake-s,660,2147385,0.0-19.0-0.1-0.152,A2KRFL7H6AA8FZ,3VGZ74AYUJWEHZMTR9OBXS32OP2GCF,33JKGHPFYGA0MWD0H40MFSDYDRRMN7,6,5
153,4,object_02,object_03,775.23000002839,7,1,402.43000001647,0.4444444444444444,1,object_05,5,2389,0,4,2,restaurant_7,1,memory-2step-stake-s,661,2155470,0.0-19.0-0.1-0.153,A2KRFL7H6AA8FZ,3VGZ74AYUJWEHZMTR9OBXS32OP2GCF,33JKGHPFYGA0MWD0H40MFSDYDRRMN7,7,8
154,1,object_07,object_10,728.15000009723,1,2,357.40000009537,0.6666666666666666,1,object_05,1,2395,0,6,0,desert_1,1,memory-2step-stake-s,662,2163726,0.0-19.0-0.1-0.154,A2KRFL7H6AA8FZ,3VGZ74AYUJWEHZMTR9OBXS32OP2GCF,33JKGHPFYGA0MWD0H40MFSDYDRRMN7,2,1
155,4,object_03,object_02,602.99000004306,7,2,297.53000009805,0.3333333333333333,1,object_05,5,2410,0,3,1,restaurant_6,1,memory-2step-stake-s,663,2171584,0.0-19.0-0.1-0.155,A2KRFL7H6AA8FZ,3VGZ74AYUJWEHZMTR9OBXS32OP2GCF,33JKGHPFYGA0MWD0H40MFSDYDRRMN7,8,7
156,2,object_06,object_01,1213.2349999156,3,1,503.05499997921,0.2222222222222222,1,object_05,1,2412,0,2,0,forest_5,1,memory-2step-stake-s,664,2179556,0.0-19.0-0.1-0.156,A2KRFL7H6AA8FZ,3VGZ74AYUJWEHZMTR9OBXS32OP2GCF,33JKGHPFYGA0MWD0H40MFSDYDRRMN7,3,4
157,2,object_06,object_01,843.77499995753,4,2,328.02999997512,0.2222222222222222,2,object_08,1,2414,0,3,2,forest_4,1,memory-2step-stake-s,665,2187334,0.0-19.0-0.1-0.157,A2KRFL7H6AA8FZ,3VGZ74AYUJWEHZMTR9OBXS32OP2GCF,33JKGHPFYGA0MWD0H40MFSDYDRRMN7,3,4
158,3,object_04,object_09,687.08499986678,5,2,408.7849999778,0.7777777777777778,1,object_05,5,2449,0,7,2,library_7,1,memory-2step-stake-s,666,2195740,0.0-19.0-0.1-0.158,A2KRFL7H6AA8FZ,3VGZ74AYUJWEHZMTR9OBXS32OP2GCF,33JKGHPFYGA0MWD0H40MFSDYDRRMN7,6,5
159,4,object_02,object_03,568.9400001429,7,1,386.18499995209,0.7777777777777778,1,object_05,5,2484,0,7,4,restaurant_2,1,memory-2step-stake-s,667,2204114,0.0-19.0-0.1-0.159,A2KRFL7H6AA8FZ,3VGZ74AYUJWEHZMTR9OBXS32OP2GCF,33JKGHPFYGA0MWD0H40MFSDYDRRMN7,7,8
160,4,object_03,object_02,566.57999986783,7,2,295.72499985807,0.6666666666666666,1,object_05,5,2514,0,6,1,restaurant_4,1,memory-2step-stake-s,668,2212315,0.0-19.0-0.1-0.160,A2KRFL7H6AA8FZ,3VGZ74AYUJWEHZMTR9OBXS32OP2GCF,33JKGHPFYGA0MWD0H40MFSDYDRRMN7,8,7
161,3,object_09,object_04,739.88500004634,5,1,340.88499983773,0.6666666666666666,1,object_05,5,2544,0,6,0,library_6,1,memory-2step-stake-s,669,2220516,0.0-19.0-0.1-0.161,A2KRFL7H6AA8FZ,3VGZ74AYUJWEHZMTR9OBXS32OP2GCF,33JKGHPFYGA0MWD0H40MFSDYDRRMN7,5,6
162,1,object_10,object_07,805.24000013247,1,1,280.9000001289,0.6666666666666666,1,object_05,1,2550,0,6,0,desert_1,1,memory-2step-stake-s,670,2228683,0.0-19.0-0.1-0.162,A2KRFL7H6AA8FZ,3VGZ74AYUJWEHZMTR9OBXS32OP2GCF,33JKGHPFYGA0MWD0H40MFSDYDRRMN7,1,2
163,3,object_04,object_09,487.7100000158,6,1,419.29499991238,0.2222222222222222,2,object_08,1,2552,0,6,2,library_4,1,memory-2step-stake-s,671,2236574,0.0-19.0-0.1-0.163,A2KRFL7H6AA8FZ,3VGZ74AYUJWEHZMTR9OBXS32OP2GCF,33JKGHPFYGA0MWD0H40MFSDYDRRMN7,6,5
164,3,object_04,object_09,446.02499995381,5,2,323.34000011906,0.8888888888888888,1,object_05,5,2592,0,8,3,library_7,1,memory-2step-stake-s,672,2244994,0.0-19.0-0.1-0.164,A2KRFL7H6AA8FZ,3VGZ74AYUJWEHZMTR9OBXS32OP2GCF,33JKGHPFYGA0MWD0H40MFSDYDRRMN7,6,5
165,1,object_10,object_07,729.92499987595,1,1,376.45999994129,0.8888888888888888,1,object_05,5,2632,0,8,3,desert_1,1,memory-2step-stake-s,673,2253468,0.0-19.0-0.1-0.165,A2KRFL7H6AA8FZ,3VGZ74AYUJWEHZMTR9OBXS32OP2GCF,33JKGHPFYGA0MWD0H40MFSDYDRRMN7,1,2
166,2,object_01,object_06,773.83500011638,3,2,320.36500005051,1.0,1,object_05,1,2641,0,9,0,forest_5,1,memory-2step-stake-s,674,2261990,0.0-19.0-0.1-0.166,A2KRFL7H6AA8FZ,3VGZ74AYUJWEHZMTR9OBXS32OP2GCF,33JKGHPFYGA0MWD0H40MFSDYDRRMN7,4,3
167,2,object_06,object_01,627.47499998659,3,1,340.61499987729,1.0,1,object_05,1,2650,0,9,1,forest_4,1,memory-2step-stake-s,675,2270503,0.0-19.0-0.1-0.167,A2KRFL7H6AA8FZ,3VGZ74AYUJWEHZMTR9OBXS32OP2GCF,33JKGHPFYGA0MWD0H40MFSDYDRRMN7,3,4
168,3,object_04,object_09,767.80999987386,5,2,326.20999985375,1.0,1,object_05,5,2695,0,9,1,library_6,1,memory-2step-stake-s,676,2278996,0.0-19.0-0.1-0.168,A2KRFL7H6AA8FZ,3VGZ74AYUJWEHZMTR9OBXS32OP2GCF,33JKGHPFYGA0MWD0H40MFSDYDRRMN7,6,5
169,2,object_01,object_06,463.71500007808,3,2,327.2200000938,1.0,1,object_05,1,2704,0,9,0,forest_4,1,memory-2step-stake-s,677,2287494,0.0-19.0-0.1-0.169,A2KRFL7H6AA8FZ,3VGZ74AYUJWEHZMTR9OBXS32OP2GCF,33JKGHPFYGA0MWD0H40MFSDYDRRMN7,4,3
170,1,object_10,object_07,691.96500000544,1,1,330.76000004075,1.0,1,object_05,5,2749,0,9,0,desert_5,1,memory-2step-stake-s,678,2296008,0.0-19.0-0.1-0.170,A2KRFL7H6AA8FZ,3VGZ74AYUJWEHZMTR9OBXS32OP2GCF,33JKGHPFYGA0MWD0H40MFSDYDRRMN7,1,2
171,3,object_04,object_09,629.84499987215,6,1,727.73499996401,0.1111111111111111,2,object_08,5,2754,0,7,1,library_4,1,memory-2step-stake-s,679,2304096,0.0-19.0-0.1-0.171,A2KRFL7H6AA8FZ,3VGZ74AYUJWEHZMTR9OBXS32OP2GCF,33JKGHPFYGA0MWD0H40MFSDYDRRMN7,6,5
172,4,object_02,object_03,652.2699999623,7,1,299.36000006273,0.7777777777777778,1,object_05,1,2761,0,7,4,restaurant_6,1,memory-2step-stake-s,680,2312406,0.0-19.0-0.1-0.172,A2KRFL7H6AA8FZ,3VGZ74AYUJWEHZMTR9OBXS32OP2GCF,33JKGHPFYGA0MWD0H40MFSDYDRRMN7,7,8
173,1,object_10,object_07,755.20000001416,1,1,280.03500006162,0.8888888888888888,1,object_05,5,2801,0,8,3,desert_5,1,memory-2step-stake-s,681,2320807,0.0-19.0-0.1-0.173,A2KRFL7H6AA8FZ,3VGZ74AYUJWEHZMTR9OBXS32OP2GCF,33JKGHPFYGA0MWD0H40MFSDYDRRMN7,1,2
174,3,object_04,object_09,522.98499993049,5,2,298.85999998078,0.8888888888888888,1,object_05,5,2841,0,8,4,library_3,1,memory-2step-stake-s,682,2329199,0.0-19.0-0.1-0.174,A2KRFL7H6AA8FZ,3VGZ74AYUJWEHZMTR9OBXS32OP2GCF,33JKGHPFYGA0MWD0H40MFSDYDRRMN7,6,5
175,4,object_03,object_02,638.26000015251,7,2,329.15999996476,0.4444444444444444,1,object_05,1,2845,0,4,5,restaurant_2,1,memory-2step-stake-s,683,2337212,0.0-19.0-0.1-0.175,A2KRFL7H6AA8FZ,3VGZ74AYUJWEHZMTR9OBXS32OP2GCF,33JKGHPFYGA0MWD0H40MFSDYDRRMN7,8,7
176,1,object_10,object_07,608.24499977753,1,1,326.32999983616,0.5555555555555556,1,object_05,5,2870,0,5,4,desert_6,1,memory-2step-stake-s,684,2345342,0.0-19.0-0.1-0.176,A2KRFL7H6AA8FZ,3VGZ74AYUJWEHZMTR9OBXS32OP2GCF,33JKGHPFYGA0MWD0H40MFSDYDRRMN7,1,2
177,3,object_09,object_04,948.7449999433,5,1,295.65999982879,0.6666666666666666,1,object_05,1,2876,0,6,2,library_7,1,memory-2step-stake-s,685,2353541,0.0-19.0-0.1-0.177,A2KRFL7H6AA8FZ,3VGZ74AYUJWEHZMTR9OBXS32OP2GCF,33JKGHPFYGA0MWD0H40MFSDYDRRMN7,5,6
178,1,object_07,object_10,595.74000001885,1,2,281.56500007026,1.0,1,object_05,1,2885,0,9,3,desert_5,1,memory-2step-stake-s,686,2362015,0.0-19.0-0.1-0.178,A2KRFL7H6AA8FZ,3VGZ74AYUJWEHZMTR9OBXS32OP2GCF,33JKGHPFYGA0MWD0H40MFSDYDRRMN7,2,1
179,2,object_06,object_01,1240.465000039,3,1,290.79500003718,0.8888888888888888,1,object_05,1,2893,0,8,5,forest_5,1,memory-2step-stake-s,687,2370388,0.0-19.0-0.1-0.179,A2KRFL7H6AA8FZ,3VGZ74AYUJWEHZMTR9OBXS32OP2GCF,33JKGHPFYGA0MWD0H40MFSDYDRRMN7,3,4
180,1,object_07,object_10,575.53500006907,1,2,306.33500008844,0.8888888888888888,1,object_05,1,2901,0,8,2,desert_6,1,memory-2step-stake-s,688,2378788,0.0-19.0-0.1-0.180,A2KRFL7H6AA8FZ,3VGZ74AYUJWEHZMTR9OBXS32OP2GCF,33JKGHPFYGA0MWD0H40MFSDYDRRMN7,2,1
181,4,object_03,object_02,583.68999999948,7,2,282.98999997787,0.5555555555555556,1,object_05,5,2926,0,5,2,restaurant_6,1,memory-2step-stake-s,689,2386830,0.0-19.0-0.1-0.181,A2KRFL7H6AA8FZ,3VGZ74AYUJWEHZMTR9OBXS32OP2GCF,33JKGHPFYGA0MWD0H40MFSDYDRRMN7,8,7
182,1,object_10,object_07,700.82499994896,1,1,291.57000011764,0.7777777777777778,1,object_05,1,2933,0,7,1,desert_4,1,memory-2step-stake-s,690,2395096,0.0-19.0-0.1-0.182,A2KRFL7H6AA8FZ,3VGZ74AYUJWEHZMTR9OBXS32OP2GCF,33JKGHPFYGA0MWD0H40MFSDYDRRMN7,1,2
183,4,object_03,object_02,609.23999990337,7,2,346.23500006273,0.7777777777777778,1,object_05,5,2968,0,7,2,restaurant_7,1,memory-2step-stake-s,691,2403434,0.0-19.0-0.1-0.183,A2KRFL7H6AA8FZ,3VGZ74AYUJWEHZMTR9OBXS32OP2GCF,33JKGHPFYGA0MWD0H40MFSDYDRRMN7,8,7
184,2,object_01,object_06,494.66000008397,3,2,311.8100001011,0.7777777777777778,1,object_05,5,3003,0,7,1,forest_4,1,memory-2step-stake-s,692,2411737,0.0-19.0-0.1-0.184,A2KRFL7H6AA8FZ,3VGZ74AYUJWEHZMTR9OBXS32OP2GCF,33JKGHPFYGA0MWD0H40MFSDYDRRMN7,4,3
185,1,object_07,object_10,575.60499990359,1,2,339.11499986425,0.4444444444444444,1,object_05,5,3023,0,4,1,desert_1,1,memory-2step-stake-s,693,2419764,0.0-19.0-0.1-0.185,A2KRFL7H6AA8FZ,3VGZ74AYUJWEHZMTR9OBXS32OP2GCF,33JKGHPFYGA0MWD0H40MFSDYDRRMN7,2,1
186,2,object_06,object_01,619.21499995515,3,1,297.25500009954,0.2222222222222222,1,object_05,1,3025,0,2,2,forest_8,1,memory-2step-stake-s,694,2427541,0.0-19.0-0.1-0.186,A2KRFL7H6AA8FZ,3VGZ74AYUJWEHZMTR9OBXS32OP2GCF,33JKGHPFYGA0MWD0H40MFSDYDRRMN7,3,4
187,2,object_01,object_06,946.31000002846,4,1,362.58000019006,0.2222222222222222,2,object_08,5,3035,0,6,2,forest_8,1,memory-2step-stake-s,695,2435365,0.0-19.0-0.1-0.187,A2KRFL7H6AA8FZ,3VGZ74AYUJWEHZMTR9OBXS32OP2GCF,33JKGHPFYGA0MWD0H40MFSDYDRRMN7,4,3
188,4,object_03,object_02,584.35999997891,7,2,257.27499998175,0.6666666666666666,1,object_05,5,3065,0,6,3,restaurant_6,1,memory-2step-stake-s,696,2443537,0.0-19.0-0.1-0.188,A2KRFL7H6AA8FZ,3VGZ74AYUJWEHZMTR9OBXS32OP2GCF,33JKGHPFYGA0MWD0H40MFSDYDRRMN7,8,7
189,4,object_02,object_03,1061.7849999107,7,1,541.45999997854,0.4444444444444444,1,object_05,5,3085,0,4,5,restaurant_2,1,memory-2step-stake-s,697,2451737,0.0-19.0-0.1-0.189,A2KRFL7H6AA8FZ,3VGZ74AYUJWEHZMTR9OBXS32OP2GCF,33JKGHPFYGA0MWD0H40MFSDYDRRMN7,7,8
190,2,object_06,object_01,662.98500006087,3,1,369.41499984823,0.5555555555555556,1,object_05,1,3090,0,5,3,forest_5,1,memory-2step-stake-s,698,2459880,0.0-19.0-0.1-0.190,A2KRFL7H6AA8FZ,3VGZ74AYUJWEHZMTR9OBXS32OP2GCF,33JKGHPFYGA0MWD0H40MFSDYDRRMN7,3,4
191,2,object_06,object_01,661.31499991752,3,1,299.02999987826,0.5555555555555556,1,object_05,1,3095,0,5,2,forest_5,1,memory-2step-stake-s,699,2467974,0.0-19.0-0.1-0.191,A2KRFL7H6AA8FZ,3VGZ74AYUJWEHZMTR9OBXS32OP2GCF,33JKGHPFYGA0MWD0H40MFSDYDRRMN7,3,4
192,3,object_09,object_04,783.33000000566,5,1,364.9850001093,0.3333333333333333,1,object_05,5,3110,0,3,0,library_6,1,memory-2step-stake-s,700,2475892,0.0-19.0-0.1-0.192,A2KRFL7H6AA8FZ,3VGZ74AYUJWEHZMTR9OBXS32OP2GCF,33JKGHPFYGA0MWD0H40MFSDYDRRMN7,5,6
193,4,object_02,object_03,1410.789999878,7,1,793.91999985091,0.6666666666666666,1,object_05,5,3140,0,6,1,restaurant_6,1,memory-2step-stake-s,701,2484575,0.0-19.0-0.1-0.193,A2KRFL7H6AA8FZ,3VGZ74AYUJWEHZMTR9OBXS32OP2GCF,33JKGHPFYGA0MWD0H40MFSDYDRRMN7,7,8
194,3,object_09,object_04,684.39999991097,5,1,290.45500000939,0.7777777777777778,1,object_05,5,3175,0,7,2,library_6,1,memory-2step-stake-s,702,2492863,0.0-19.0-0.1-0.194,A2KRFL7H6AA8FZ,3VGZ74AYUJWEHZMTR9OBXS32OP2GCF,33JKGHPFYGA0MWD0H40MFSDYDRRMN7,5,6
195,3,object_09,object_04,565.24500017986,5,1,514.87999991514,0.5555555555555556,1,object_05,5,3200,0,5,1,library_3,1,memory-2step-stake-s,703,2501139,0.0-19.0-0.1-0.195,A2KRFL7H6AA8FZ,3VGZ74AYUJWEHZMTR9OBXS32OP2GCF,33JKGHPFYGA0MWD0H40MFSDYDRRMN7,5,6
196,1,object_07,object_10,659.47500010952,1,2,356.0399999842,0.5555555555555556,1,object_05,5,3225,0,5,0,desert_1,1,memory-2step-stake-s,704,2509264,0.0-19.0-0.1-0.196,A2KRFL7H6AA8FZ,3VGZ74AYUJWEHZMTR9OBXS32OP2GCF,33JKGHPFYGA0MWD0H40MFSDYDRRMN7,2,1
197,4,object_02,object_03,617.39500006661,7,1,511.78500009701,0.5555555555555556,1,object_05,1,3230,0,5,1,restaurant_4,1,memory-2step-stake-s,705,2517574,0.0-19.0-0.1-0.197,A2KRFL7H6AA8FZ,3VGZ74AYUJWEHZMTR9OBXS32OP2GCF,33JKGHPFYGA0MWD0H40MFSDYDRRMN7,7,8
198,3,object_09,object_04,932.18000000343,5,1,696.1050000973,0.6666666666666666,1,object_05,5,3260,0,6,3,library_3,1,memory-2step-stake-s,706,2526146,0.0-19.0-0.1-0.198,A2KRFL7H6AA8FZ,3VGZ74AYUJWEHZMTR9OBXS32OP2GCF,33JKGHPFYGA0MWD0H40MFSDYDRRMN7,5,6
199,4,object_03,object_02,891.6700000409,7,2,469.33999983594,0.3333333333333333,1,object_05,5,3275,0,3,2,restaurant_2,1,memory-2step-stake-s,707,2534169,0.0-19.0-0.1-0.199,A2KRFL7H6AA8FZ,3VGZ74AYUJWEHZMTR9OBXS32OP2GCF,33JKGHPFYGA0MWD0H40MFSDYDRRMN7,8,7
200,2,object_01,object_06,804.6449997928,3,2,439.89500007592,0.2222222222222222,1,object_05,1,3277,0,2,6,forest_8,1,memory-2step-stake-s,708,2542070,0.0-19.0-0.1-0.200,A2KRFL7H6AA8FZ,3VGZ74AYUJWEHZMTR9OBXS32OP2GCF,33JKGHPFYGA0MWD0H40MFSDYDRRMN7,4,3
201,4,object_03,object_02,642.69999996759,7,2,498.4500000719,0.2222222222222222,1,object_05,5,3287,0,2,6,restaurant_4,1,memory-2step-stake-s,709,2550044,0.0-19.0-0.1-0.201,A2KRFL7H6AA8FZ,3VGZ74AYUJWEHZMTR9OBXS32OP2GCF,33JKGHPFYGA0MWD0H40MFSDYDRRMN7,8,7
202,2,object_06,object_01,643.82000011392,3,1,655.75499995612,0.4444444444444444,1,object_05,5,3307,0,4,5,forest_4,1,memory-2step-stake-s,710,2558379,0.0-19.0-0.1-0.202,A2KRFL7H6AA8FZ,3VGZ74AYUJWEHZMTR9OBXS32OP2GCF,33JKGHPFYGA0MWD0H40MFSDYDRRMN7,3,4
203,4,object_03,object_02,563.12999990769,7,2,474.92499998771,0.1111111111111111,1,object_05,5,3312,0,1,5,restaurant_6,1,memory-2step-stake-s,711,2566207,0.0-19.0-0.1-0.203,A2KRFL7H6AA8FZ,3VGZ74AYUJWEHZMTR9OBXS32OP2GCF,33JKGHPFYGA0MWD0H40MFSDYDRRMN7,8,7
204,4,object_02,object_03,583.82999990135,7,1,540.83000007086,0.1111111111111111,1,object_05,5,3317,0,1,8,restaurant_7,1,memory-2step-stake-s,712,2574129,0.0-19.0-0.1-0.204,A2KRFL7H6AA8FZ,3VGZ74AYUJWEHZMTR9OBXS32OP2GCF,33JKGHPFYGA0MWD0H40MFSDYDRRMN7,7,8
205,4,object_03,object_02,603.00999996252,7,2,318.60000011511,0.3333333333333333,1,object_05,1,3320,0,3,8,restaurant_4,1,memory-2step-stake-s,713,2582013,0.0-19.0-0.1-0.205,A2KRFL7H6AA8FZ,3VGZ74AYUJWEHZMTR9OBXS32OP2GCF,33JKGHPFYGA0MWD0H40MFSDYDRRMN7,8,7
206,4,object_02,object_03,627.94500007294,7,1,324.71000007354,0.3333333333333333,1,object_05,1,3323,0,3,8,restaurant_6,1,memory-2step-stake-s,714,2589879,0.0-19.0-0.1-0.206,A2KRFL7H6AA8FZ,3VGZ74AYUJWEHZMTR9OBXS32OP2GCF,33JKGHPFYGA0MWD0H40MFSDYDRRMN7,7,8
207,1,object_07,object_10,920.1100000646,1,2,602.22000000067,0.3333333333333333,1,object_05,1,3326,0,3,6,desert_6,1,memory-2step-stake-s,715,2598050,0.0-19.0-0.1-0.207,A2KRFL7H6AA8FZ,3VGZ74AYUJWEHZMTR9OBXS32OP2GCF,33JKGHPFYGA0MWD0H40MFSDYDRRMN7,2,1
208,3,object_09,object_04,759.2949999962,5,1,834.96999996714,0.3333333333333333,1,object_05,5,3341,0,3,5,library_4,1,memory-2step-stake-s,716,2606444,0.0-19.0-0.1-0.208,A2KRFL7H6AA8FZ,3VGZ74AYUJWEHZMTR9OBXS32OP2GCF,33JKGHPFYGA0MWD0H40MFSDYDRRMN7,5,6
209,2,object_06,object_01,569.9799999129,3,1,681.12999992445,0.3333333333333333,1,object_05,1,3344,0,3,5,forest_4,1,memory-2step-stake-s,717,2614702,0.0-19.0-0.1-0.209,A2KRFL7H6AA8FZ,3VGZ74AYUJWEHZMTR9OBXS32OP2GCF,33JKGHPFYGA0MWD0H40MFSDYDRRMN7,3,4
210,1,object_07,object_10,618.43500006944,1,2,328.55999981984,0.3333333333333333,1,object_05,1,3347,0,3,5,desert_6,1,memory-2step-stake-s,718,2622582,0.0-19.0-0.1-0.210,A2KRFL7H6AA8FZ,3VGZ74AYUJWEHZMTR9OBXS32OP2GCF,33JKGHPFYGA0MWD0H40MFSDYDRRMN7,2,1
211,3,object_09,object_04,510.7100000605,5,1,267.76499999687,0.1111111111111111,1,object_05,1,3348,0,1,5,library_4,1,memory-2step-stake-s,719,2630207,0.0-19.0-0.1-0.211,A2KRFL7H6AA8FZ,3VGZ74AYUJWEHZMTR9OBXS32OP2GCF,33JKGHPFYGA0MWD0H40MFSDYDRRMN7,5,6
212,1,object_07,object_10,846.07000020333,2,1,354.93499995209,0.3333333333333333,2,object_08,1,3351,0,2,3,desert_1,1,memory-2step-stake-s,720,2638124,0.0-19.0-0.1-0.212,A2KRFL7H6AA8FZ,3VGZ74AYUJWEHZMTR9OBXS32OP2GCF,33JKGHPFYGA0MWD0H40MFSDYDRRMN7,2,1
213,2,object_06,object_01,752.05000001006,4,2,304.47999993339,0.4444444444444444,2,object_08,1,3355,0,3,4,forest_8,1,memory-2step-stake-s,721,2646119,0.0-19.0-0.1-0.213,A2KRFL7H6AA8FZ,3VGZ74AYUJWEHZMTR9OBXS32OP2GCF,33JKGHPFYGA0MWD0H40MFSDYDRRMN7,3,4
214,2,object_01,object_06,689.17999998666,3,2,280.25999991223,0.1111111111111111,1,object_05,5,3360,0,1,4,forest_3,1,memory-2step-stake-s,722,2653780,0.0-19.0-0.1-0.214,A2KRFL7H6AA8FZ,3VGZ74AYUJWEHZMTR9OBXS32OP2GCF,33JKGHPFYGA0MWD0H40MFSDYDRRMN7,4,3
215,2,object_01,object_06,603.17000001669,4,1,243.80499986,0.2222222222222222,2,object_08,1,3362,0,1,2,forest_4,1,memory-2step-stake-s,723,2661478,0.0-19.0-0.1-0.215,A2KRFL7H6AA8FZ,3VGZ74AYUJWEHZMTR9OBXS32OP2GCF,33JKGHPFYGA0MWD0H40MFSDYDRRMN7,4,3
216,4,object_03,object_02,841.39000019059,8,1,266.70500007458,0.6666666666666666,2,object_08,1,3368,0,4,6,restaurant_6,1,memory-2step-stake-s,724,2669606,0.0-19.0-0.1-0.216,A2KRFL7H6AA8FZ,3VGZ74AYUJWEHZMTR9OBXS32OP2GCF,33JKGHPFYGA0MWD0H40MFSDYDRRMN7,8,7
217,1,object_07,object_10,927.99500003457,2,1,276.59999998286,0.7777777777777778,2,object_08,1,3375,0,2,7,desert_5,1,memory-2step-stake-s,725,2677875,0.0-19.0-0.1-0.217,A2KRFL7H6AA8FZ,3VGZ74AYUJWEHZMTR9OBXS32OP2GCF,33JKGHPFYGA0MWD0H40MFSDYDRRMN7,2,1
218,4,object_02,object_03,643.72500008903,8,2,136.25500001945,0.8888888888888888,2,object_08,5,3415,0,3,8,restaurant_6,1,memory-2step-stake-s,726,2686104,0.0-19.0-0.1-0.218,A2KRFL7H6AA8FZ,3VGZ74AYUJWEHZMTR9OBXS32OP2GCF,33JKGHPFYGA0MWD0H40MFSDYDRRMN7,7,8
219,4,object_02,object_03,502.32500000857,8,2,269.00999993086,0.8888888888888888,2,object_08,1,3423,0,4,8,restaurant_2,1,memory-2step-stake-s,727,2694446,0.0-19.0-0.1-0.219,A2KRFL7H6AA8FZ,3VGZ74AYUJWEHZMTR9OBXS32OP2GCF,33JKGHPFYGA0MWD0H40MFSDYDRRMN7,7,8
220,3,object_04,object_09,836.51000005193,5,2,265.4099999927,0.2222222222222222,1,object_05,5,3433,0,2,5,library_4,1,memory-2step-stake-s,728,2702187,0.0-19.0-0.1-0.220,A2KRFL7H6AA8FZ,3VGZ74AYUJWEHZMTR9OBXS32OP2GCF,33JKGHPFYGA0MWD0H40MFSDYDRRMN7,6,5
221,4,object_02,object_03,712.42499980144,8,2,282.14999986812,0.4444444444444444,2,object_08,5,3453,0,0,4,restaurant_7,1,memory-2step-stake-s,729,2710158,0.0-19.0-0.1-0.221,A2KRFL7H6AA8FZ,3VGZ74AYUJWEHZMTR9OBXS32OP2GCF,33JKGHPFYGA0MWD0H40MFSDYDRRMN7,7,8
222,1,object_07,object_10,625.62500010245,2,1,232.73999989033,0.4444444444444444,2,object_08,1,3457,0,1,4,desert_5,1,memory-2step-stake-s,730,2718076,0.0-19.0-0.1-0.222,A2KRFL7H6AA8FZ,3VGZ74AYUJWEHZMTR9OBXS32OP2GCF,33JKGHPFYGA0MWD0H40MFSDYDRRMN7,2,1
223,1,object_10,object_07,818.58500000089,2,2,283.67999987677,1.0,2,object_08,1,3466,0,0,9,desert_4,1,memory-2step-stake-s,731,2726587,0.0-19.0-0.1-0.223,A2KRFL7H6AA8FZ,3VGZ74AYUJWEHZMTR9OBXS32OP2GCF,33JKGHPFYGA0MWD0H40MFSDYDRRMN7,1,2
224,4,object_02,object_03,622.44499986991,8,2,321.81999995373,0.6666666666666666,2,object_08,1,3472,0,4,6,restaurant_7,1,memory-2step-stake-s,732,2734813,0.0-19.0-0.1-0.224,A2KRFL7H6AA8FZ,3VGZ74AYUJWEHZMTR9OBXS32OP2GCF,33JKGHPFYGA0MWD0H40MFSDYDRRMN7,7,8
225,1,object_07,object_10,783.18000002764,2,1,748.56500001624,0.5555555555555556,2,object_08,1,3477,0,5,5,desert_5,1,memory-2step-stake-s,733,2743340,0.0-19.0-0.1-0.225,A2KRFL7H6AA8FZ,3VGZ74AYUJWEHZMTR9OBXS32OP2GCF,33JKGHPFYGA0MWD0H40MFSDYDRRMN7,2,1
226,3,object_04,object_09,982.40500013344,6,1,293.40999992564,0.6666666666666666,2,object_08,1,3483,0,7,6,library_3,1,memory-2step-stake-s,734,2751520,0.0-19.0-0.1-0.226,A2KRFL7H6AA8FZ,3VGZ74AYUJWEHZMTR9OBXS32OP2GCF,33JKGHPFYGA0MWD0H40MFSDYDRRMN7,6,5
227,1,object_10,object_07,764.39999998547,2,2,276.13999997266,0.5555555555555556,2,object_08,1,3488,0,6,5,desert_5,1,memory-2step-stake-s,735,2759555,0.0-19.0-0.1-0.227,A2KRFL7H6AA8FZ,3VGZ74AYUJWEHZMTR9OBXS32OP2GCF,33JKGHPFYGA0MWD0H40MFSDYDRRMN7,1,2
228,2,object_01,object_06,953.07500008494,4,1,335.75000008568,0.1111111111111111,2,object_08,1,3489,0,4,1,forest_3,1,memory-2step-stake-s,736,2767236,0.0-19.0-0.1-0.228,A2KRFL7H6AA8FZ,3VGZ74AYUJWEHZMTR9OBXS32OP2GCF,33JKGHPFYGA0MWD0H40MFSDYDRRMN7,4,3
229,4,object_03,object_02,641.89000008628,8,1,256.47499994375,0.6666666666666666,2,object_08,5,3519,0,2,6,restaurant_7,1,memory-2step-stake-s,737,2775376,0.0-19.0-0.1-0.229,A2KRFL7H6AA8FZ,3VGZ74AYUJWEHZMTR9OBXS32OP2GCF,33JKGHPFYGA0MWD0H40MFSDYDRRMN7,8,7
230,1,object_10,object_07,819.07500000671,2,2,525.79499990679,1.0,2,object_08,1,3528,0,0,9,desert_5,1,memory-2step-stake-s,738,2784081,0.0-19.0-0.1-0.230,A2KRFL7H6AA8FZ,3VGZ74AYUJWEHZMTR9OBXS32OP2GCF,33JKGHPFYGA0MWD0H40MFSDYDRRMN7,1,2
231,4,object_03,object_02,626.09999999404,8,1,404.12999992259,0.7777777777777778,2,object_08,5,3563,0,2,7,restaurant_4,1,memory-2step-stake-s,739,2792467,0.0-19.0-0.1-0.231,A2KRFL7H6AA8FZ,3VGZ74AYUJWEHZMTR9OBXS32OP2GCF,33JKGHPFYGA0MWD0H40MFSDYDRRMN7,8,7
232,1,object_10,object_07,608.30500000156,2,2,387.03499990515,0.5555555555555556,2,object_08,5,3588,0,4,5,desert_5,1,memory-2step-stake-s,740,2800620,0.0-19.0-0.1-0.232,A2KRFL7H6AA8FZ,3VGZ74AYUJWEHZMTR9OBXS32OP2GCF,33JKGHPFYGA0MWD0H40MFSDYDRRMN7,1,2
233,1,object_10,object_07,538.61499996856,2,2,285.15499993227,0.5555555555555556,2,object_08,1,3593,0,8,5,desert_6,1,memory-2step-stake-s,741,2808703,0.0-19.0-0.1-0.233,A2KRFL7H6AA8FZ,3VGZ74AYUJWEHZMTR9OBXS32OP2GCF,33JKGHPFYGA0MWD0H40MFSDYDRRMN7,1,2
234,4,object_02,object_03,572.84499984235,8,2,366.73999996856,0.7777777777777778,2,object_08,5,3628,0,6,7,restaurant_2,1,memory-2step-stake-s,742,2817038,0.0-19.0-0.1-0.234,A2KRFL7H6AA8FZ,3VGZ74AYUJWEHZMTR9OBXS32OP2GCF,33JKGHPFYGA0MWD0H40MFSDYDRRMN7,7,8
235,2,object_01,object_06,842.39999996498,3,2,509.6650000196,0.8888888888888888,1,object_05,5,3668,0,8,5,forest_5,1,memory-2step-stake-s,743,2825656,0.0-19.0-0.1-0.235,A2KRFL7H6AA8FZ,3VGZ74AYUJWEHZMTR9OBXS32OP2GCF,33JKGHPFYGA0MWD0H40MFSDYDRRMN7,4,3
236,4,object_02,object_03,610.15000008047,8,2,385.07500011474,0.2222222222222222,2,object_08,5,3678,0,7,2,restaurant_2,1,memory-2step-stake-s,744,2833478,0.0-19.0-0.1-0.236,A2KRFL7H6AA8FZ,3VGZ74AYUJWEHZMTR9OBXS32OP2GCF,33JKGHPFYGA0MWD0H40MFSDYDRRMN7,7,8
237,3,object_04,object_09,1251.8250001594,6,1,420.28500000015,0.5555555555555556,2,object_08,5,3703,0,7,5,library_7,1,memory-2step-stake-s,745,2841678,0.0-19.0-0.1-0.237,A2KRFL7H6AA8FZ,3VGZ74AYUJWEHZMTR9OBXS32OP2GCF,33JKGHPFYGA0MWD0H40MFSDYDRRMN7,6,5
238,2,object_01,object_06,610.74999999255,3,2,273.85499980301,0.8888888888888888,1,object_05,1,3711,0,8,5,forest_4,1,memory-2step-stake-s,746,2850034,0.0-19.0-0.1-0.238,A2KRFL7H6AA8FZ,3VGZ74AYUJWEHZMTR9OBXS32OP2GCF,33JKGHPFYGA0MWD0H40MFSDYDRRMN7,4,3
239,3,object_04,object_09,622.36999999732,6,1,255.20999985747,0.2222222222222222,2,object_08,5,3721,0,6,2,library_4,1,memory-2step-stake-s,747,2857755,0.0-19.0-0.1-0.239,A2KRFL7H6AA8FZ,3VGZ74AYUJWEHZMTR9OBXS32OP2GCF,33JKGHPFYGA0MWD0H40MFSDYDRRMN7,6,5
240,4,object_02,object_03,608.86500007473,8,2,286.48500004783,0.3333333333333333,2,object_08,1,3724,0,8,3,restaurant_4,1,memory-2step-stake-s,748,2865602,0.0-19.0-0.1-0.240,A2KRFL7H6AA8FZ,3VGZ74AYUJWEHZMTR9OBXS32OP2GCF,33JKGHPFYGA0MWD0H40MFSDYDRRMN7,7,8
241,3,object_04,object_09,456.8099998869,5,2,298.81999990903,0.8888888888888888,1,object_05,5,3764,0,8,0,library_7,1,memory-2step-stake-s,749,2873975,0.0-19.0-0.1-0.241,A2KRFL7H6AA8FZ,3VGZ74AYUJWEHZMTR9OBXS32OP2GCF,33JKGHPFYGA0MWD0H40MFSDYDRRMN7,6,5
242,2,object_01,object_06,639.42999998108,3,2,279.92499992251,1.0,1,object_05,1,3773,0,9,2,forest_3,1,memory-2step-stake-s,750,2882452,0.0-19.0-0.1-0.242,A2KRFL7H6AA8FZ,3VGZ74AYUJWEHZMTR9OBXS32OP2GCF,33JKGHPFYGA0MWD0H40MFSDYDRRMN7,4,3
243,3,object_04,object_09,997.15499999002,5,2,479.80000008829,0.6666666666666666,1,object_05,5,3803,0,6,0,library_6,1,memory-2step-stake-s,751,2890819,0.0-19.0-0.1-0.243,A2KRFL7H6AA8FZ,3VGZ74AYUJWEHZMTR9OBXS32OP2GCF,33JKGHPFYGA0MWD0H40MFSDYDRRMN7,6,5
244,2,object_06,object_01,570.30500005931,3,1,261.4599999506,0.8888888888888888,1,object_05,1,3811,0,8,2,forest_8,1,memory-2step-stake-s,752,2899146,0.0-19.0-0.1-0.244,A2KRFL7H6AA8FZ,3VGZ74AYUJWEHZMTR9OBXS32OP2GCF,33JKGHPFYGA0MWD0H40MFSDYDRRMN7,3,4
245,3,object_09,object_04,584.10500013269,5,1,178.50499995984,0.8888888888888888,1,object_05,5,3851,0,8,1,library_6,1,memory-2step-stake-s,753,2907410,0.0-19.0-0.1-0.245,A2KRFL7H6AA8FZ,3VGZ74AYUJWEHZMTR9OBXS32OP2GCF,33JKGHPFYGA0MWD0H40MFSDYDRRMN7,5,6
246,4,object_03,object_02,612.19500005245,7,2,376.85999996029,0.7777777777777778,1,object_05,5,3886,0,7,2,restaurant_7,1,memory-2step-stake-s,754,2915788,0.0-19.0-0.1-0.246,A2KRFL7H6AA8FZ,3VGZ74AYUJWEHZMTR9OBXS32OP2GCF,33JKGHPFYGA0MWD0H40MFSDYDRRMN7,8,7
247,3,object_04,object_09,635.60999999754,5,2,277.02999999747,0.7777777777777778,1,object_05,1,3893,0,7,4,library_7,1,memory-2step-stake-s,755,2924032,0.0-19.0-0.1-0.247,A2KRFL7H6AA8FZ,3VGZ74AYUJWEHZMTR9OBXS32OP2GCF,33JKGHPFYGA0MWD0H40MFSDYDRRMN7,6,5
248,1,object_10,object_07,749.63499978185,2,2,253.86000005528,0.1111111111111111,2,object_08,5,3898,0,8,1,desert_1,1,memory-2step-stake-s,756,2931654,0.0-19.0-0.1-0.248,A2KRFL7H6AA8FZ,3VGZ74AYUJWEHZMTR9OBXS32OP2GCF,33JKGHPFYGA0MWD0H40MFSDYDRRMN7,1,2
249,2,object_06,object_01,587.41499995813,3,1,369.73500018939,0.7777777777777778,1,object_05,1,3905,0,7,3,forest_5,1,memory-2step-stake-s,757,2940014,0.0-19.0-0.1-0.249,A2KRFL7H6AA8FZ,3VGZ74AYUJWEHZMTR9OBXS32OP2GCF,33JKGHPFYGA0MWD0H40MFSDYDRRMN7,3,4
250,1,object_07,object_10,756.49000005797,2,1,261.34500000626,0.1111111111111111,2,object_08,1,3906,0,7,1,desert_6,1,memory-2step-stake-s,758,2947640,0.0-19.0-0.1-0.250,A2KRFL7H6AA8FZ,3VGZ74AYUJWEHZMTR9OBXS32OP2GCF,33JKGHPFYGA0MWD0H40MFSDYDRRMN7,2,1
251,3,object_04,object_09,749.67000004835,5,2,322.94999994338,0.7777777777777778,1,object_05,1,3913,0,7,1,library_6,1,memory-2step-stake-s,759,2955970,0.0-19.0-0.1-0.251,A2KRFL7H6AA8FZ,3VGZ74AYUJWEHZMTR9OBXS32OP2GCF,33JKGHPFYGA0MWD0H40MFSDYDRRMN7,6,5
252,4,object_02,object_03,774.87499988638,7,1,342.16500003822,0.7777777777777778,1,object_05,5,3948,0,7,3,restaurant_6,1,memory-2step-stake-s,760,2964284,0.0-19.0-0.1-0.252,A2KRFL7H6AA8FZ,3VGZ74AYUJWEHZMTR9OBXS32OP2GCF,33JKGHPFYGA0MWD0H40MFSDYDRRMN7,7,8
253,3,object_09,object_04,696.5050001163,5,1,275.62500000931,0.6666666666666666,1,object_05,5,3978,0,6,7,library_4,1,memory-2step-stake-s,761,2972439,0.0-19.0-0.1-0.253,A2KRFL7H6AA8FZ,3VGZ74AYUJWEHZMTR9OBXS32OP2GCF,33JKGHPFYGA0MWD0H40MFSDYDRRMN7,5,6
254,4,object_02,object_03,681.2749998644,7,1,280.51499999128,1.0,1,object_05,5,4023,0,9,6,restaurant_7,1,memory-2step-stake-s,762,2980939,0.0-19.0-0.1-0.254,A2KRFL7H6AA8FZ,3VGZ74AYUJWEHZMTR9OBXS32OP2GCF,33JKGHPFYGA0MWD0H40MFSDYDRRMN7,7,8
255,2,object_01,object_06,779.24499986693,3,2,276.29499998875,0.8888888888888888,1,object_05,1,4031,0,8,8,forest_8,1,memory-2step-stake-s,763,2989311,0.0-19.0-0.1-0.255,A2KRFL7H6AA8FZ,3VGZ74AYUJWEHZMTR9OBXS32OP2GCF,33JKGHPFYGA0MWD0H40MFSDYDRRMN7,4,3
