,state1,stim_left,stim_right,rt_1,choice1,response1,rt_2,points,state2,stim_state2,stake,score,practice,rews1,rews2,background,high_arm,trial_type,trial_index,time_elapsed,internal_node_id,subid,hitid,assignmentid,stim_left_num,stim_right_num
0,4,object_05,object_06,1010.3149999996,7,1,-1.0,0.0,1,object_01,1,0,0,2,7,restaurant_3,2,memory-2step-stake-s,498,978302,0.0-19.0-0.0-0.0,A33XAJW8WGY3O9,31KPKEKW5DTYWQJ2Z73D1GA4ZNDB00,3A4TN5196OYV3EFY1HBV7CBQX1DHCA,7,8
1,3,object_07,object_08,464.19000000064,6,1,736.97499999974,1.0,2,object_09,1,9,0,3,9,library_2,2,memory-2step-stake-s,499,987304,0.0-19.0-0.0-0.1,A33XAJW8WGY3O9,31KPKEKW5DTYWQJ2Z73D1GA4ZNDB00,3A4TN5196OYV3EFY1HBV7CBQX1DHCA,6,5
2,2,object_04,object_03,555.77500000072,4,1,-1.0,0.0,2,object_09,1,9,0,2,6,forest_6,2,memory-2step-stake-s,500,995878,0.0-19.0-0.0-0.2,A33XAJW8WGY3O9,31KPKEKW5DTYWQJ2Z73D1GA4ZNDB00,3A4TN5196OYV3EFY1HBV7CBQX1DHCA,4,3
3,4,object_05,object_06,-1.0,-1,-1,-1.0,0.0,-,0,1,9,0,2,5,restaurant_3,2,memory-2step-stake-s,501,1002444,0.0-19.0-0.0-0.3,A33XAJW8WGY3O9,31KPKEKW5DTYWQJ2Z73D1GA4ZNDB00,3A4TN5196OYV3EFY1HBV7CBQX1DHCA,7,8
4,1,object_02,object_10,595.43499999924,2,2,-1.0,0.0,2,object_09,5,9,0,6,5,desert_3,2,memory-2step-stake-s,502,1011016,0.0-19.0-0.0-0.4,A33XAJW8WGY3O9,31KPKEKW5DTYWQJ2Z73D1GA4ZNDB00,3A4TN5196OYV3EFY1HBV7CBQX1DHCA,1,2
5,3,object_08,object_07,423.53000000003,5,1,-1.0,0.0,1,object_01,1,9,0,3,4,library_3,2,memory-2step-stake-s,503,1019595,0.0-19.0-0.0-0.5,A33XAJW8WGY3O9,31KPKEKW5DTYWQJ2Z73D1GA4ZNDB00,3A4TN5196OYV3EFY1HBV7CBQX1DHCA,5,6
6,1,object_10,object_02,540.14500000083,2,1,-1.0,0.0,2,object_09,5,9,0,4,3,desert_8,2,memory-2step-stake-s,504,1028161,0.0-19.0-0.0-0.6,A33XAJW8WGY3O9,31KPKEKW5DTYWQJ2Z73D1GA4ZNDB00,3A4TN5196OYV3EFY1HBV7CBQX1DHCA,2,1
7,3,object_07,object_08,552.72499999951,5,2,-1.0,0.0,1,object_01,1,9,0,4,1,library_2,2,memory-2step-stake-s,505,1036753,0.0-19.0-0.0-0.7,A33XAJW8WGY3O9,31KPKEKW5DTYWQJ2Z73D1GA4ZNDB00,3A4TN5196OYV3EFY1HBV7CBQX1DHCA,6,5
8,1,object_02,object_10,512.23000000045,1,1,-1.0,0.0,1,object_01,1,9,0,0,1,desert_6,2,memory-2step-stake-s,506,1045337,0.0-19.0-0.0-0.8,A33XAJW8WGY3O9,31KPKEKW5DTYWQJ2Z73D1GA4ZNDB00,3A4TN5196OYV3EFY1HBV7CBQX1DHCA,1,2
9,2,object_04,object_03,609.94000000041,4,1,-1.0,0.0,2,object_09,5,9,0,1,2,forest_8,2,memory-2step-stake-s,507,1053909,0.0-19.0-0.0-0.9,A33XAJW8WGY3O9,31KPKEKW5DTYWQJ2Z73D1GA4ZNDB00,3A4TN5196OYV3EFY1HBV7CBQX1DHCA,4,3
10,4,object_05,object_06,140.0449999983,7,1,-1.0,0.0,1,object_01,1,9,0,2,4,restaurant_5,2,memory-2step-stake-s,508,1062470,0.0-19.0-0.0-0.10,A33XAJW8WGY3O9,31KPKEKW5DTYWQJ2Z73D1GA4ZNDB00,3A4TN5196OYV3EFY1HBV7CBQX1DHCA,7,8
11,3,object_07,object_08,551.13499999978,6,1,510.60499999952,0.4444444444444444,2,object_09,1,13,0,2,4,library_6,2,memory-2step-stake-s,509,1070675,0.0-19.0-0.0-0.11,A33XAJW8WGY3O9,31KPKEKW5DTYWQJ2Z73D1GA4ZNDB00,3A4TN5196OYV3EFY1HBV7CBQX1DHCA,6,5
12,4,object_06,object_05,-1.0,-1,-1,-1.0,0.0,-,0,1,13,0,6,3,restaurant_5,2,memory-2step-stake-s,510,1077234,0.0-19.0-0.0-0.12,A33XAJW8WGY3O9,31KPKEKW5DTYWQJ2Z73D1GA4ZNDB00,3A4TN5196OYV3EFY1HBV7CBQX1DHCA,8,7
13,4,object_06,object_05,482.61499999906,7,2,-1.0,0.0,1,object_01,1,13,0,5,3,restaurant_1,2,memory-2step-stake-s,511,1085829,0.0-19.0-0.0-0.13,A33XAJW8WGY3O9,31KPKEKW5DTYWQJ2Z73D1GA4ZNDB00,3A4TN5196OYV3EFY1HBV7CBQX1DHCA,8,7
14,3,object_08,object_07,920.16499999957,6,2,1331.6099999992,0.2222222222222222,2,object_09,1,15,0,5,2,library_1,2,memory-2step-stake-s,512,1094649,0.0-19.0-0.0-0.14,A33XAJW8WGY3O9,31KPKEKW5DTYWQJ2Z73D1GA4ZNDB00,3A4TN5196OYV3EFY1HBV7CBQX1DHCA,5,6
15,2,object_04,object_03,1333.8250000016,3,2,43.189999998547,0.7777777777777778,1,object_01,5,50,0,7,3,forest_8,2,memory-2step-stake-s,513,1102714,0.0-19.0-0.0-0.15,A33XAJW8WGY3O9,31KPKEKW5DTYWQJ2Z73D1GA4ZNDB00,3A4TN5196OYV3EFY1HBV7CBQX1DHCA,4,3
16,1,object_10,object_02,1105.0049999994,2,1,75.490000001155,0.3333333333333333,2,object_09,5,65,0,7,3,desert_6,2,memory-2step-stake-s,514,1110413,0.0-19.0-0.0-0.16,A33XAJW8WGY3O9,31KPKEKW5DTYWQJ2Z73D1GA4ZNDB00,3A4TN5196OYV3EFY1HBV7CBQX1DHCA,2,1
17,4,object_06,object_05,1367.1900000009,8,1,1459.0950000002,0.3333333333333333,2,object_09,1,68,0,7,3,restaurant_1,2,memory-2step-stake-s,515,1119447,0.0-19.0-0.0-0.17,A33XAJW8WGY3O9,31KPKEKW5DTYWQJ2Z73D1GA4ZNDB00,3A4TN5196OYV3EFY1HBV7CBQX1DHCA,8,7
18,2,object_04,object_03,772.72499999893,4,1,-1.0,0.0,2,object_09,5,68,0,6,5,forest_2,2,memory-2step-stake-s,516,1128028,0.0-19.0-0.0-0.18,A33XAJW8WGY3O9,31KPKEKW5DTYWQJ2Z73D1GA4ZNDB00,3A4TN5196OYV3EFY1HBV7CBQX1DHCA,4,3
19,2,object_03,object_04,1215.0199999998,3,1,-1.0,0.0,1,object_01,1,68,0,6,2,forest_4,2,memory-2step-stake-s,517,1136602,0.0-19.0-0.0-0.19,A33XAJW8WGY3O9,31KPKEKW5DTYWQJ2Z73D1GA4ZNDB00,3A4TN5196OYV3EFY1HBV7CBQX1DHCA,3,4
20,2,object_03,object_04,523.21500000102,3,1,-1.0,0.0,1,object_01,5,68,0,6,7,forest_4,2,memory-2step-stake-s,518,1145186,0.0-19.0-0.0-0.20,A33XAJW8WGY3O9,31KPKEKW5DTYWQJ2Z73D1GA4ZNDB00,3A4TN5196OYV3EFY1HBV7CBQX1DHCA,3,4
21,1,object_10,object_02,640.94000000111,2,1,-1.0,0.0,2,object_09,5,68,0,5,5,desert_8,2,memory-2step-stake-s,519,1153766,0.0-19.0-0.0-0.21,A33XAJW8WGY3O9,31KPKEKW5DTYWQJ2Z73D1GA4ZNDB00,3A4TN5196OYV3EFY1HBV7CBQX1DHCA,2,1
22,4,object_06,object_05,-1.0,-1,-1,-1.0,0.0,-,0,1,68,0,6,4,restaurant_3,2,memory-2step-stake-s,520,1160863,0.0-19.0-0.0-0.22,A33XAJW8WGY3O9,31KPKEKW5DTYWQJ2Z73D1GA4ZNDB00,3A4TN5196OYV3EFY1HBV7CBQX1DHCA,8,7
23,4,object_06,object_05,1282.3200000003,8,1,1106.4200000002,0.4444444444444444,2,object_09,1,72,0,8,4,restaurant_5,2,memory-2step-stake-s,521,1169670,0.0-19.0-0.0-0.23,A33XAJW8WGY3O9,31KPKEKW5DTYWQJ2Z73D1GA4ZNDB00,3A4TN5196OYV3EFY1HBV7CBQX1DHCA,8,7
24,1,object_10,object_02,900.55000000028,2,1,985.16999999993,0.4444444444444444,2,object_09,5,92,0,6,4,desert_8,2,memory-2step-stake-s,522,1178345,0.0-19.0-0.0-0.24,A33XAJW8WGY3O9,31KPKEKW5DTYWQJ2Z73D1GA4ZNDB00,3A4TN5196OYV3EFY1HBV7CBQX1DHCA,2,1
25,3,object_08,object_07,1016.2550000004,6,2,28.56500000041,0.6666666666666666,2,object_09,1,98,0,7,6,library_1,2,memory-2step-stake-s,523,1186299,0.0-19.0-0.0-0.25,A33XAJW8WGY3O9,31KPKEKW5DTYWQJ2Z73D1GA4ZNDB00,3A4TN5196OYV3EFY1HBV7CBQX1DHCA,5,6
26,2,object_04,object_03,-1.0,-1,-1,-1.0,0.0,-,0,1,98,0,7,9,forest_4,2,memory-2step-stake-s,524,1193357,0.0-19.0-0.0-0.26,A33XAJW8WGY3O9,31KPKEKW5DTYWQJ2Z73D1GA4ZNDB00,3A4TN5196OYV3EFY1HBV7CBQX1DHCA,4,3
27,3,object_07,object_08,321.68500000075,6,1,530.06499999901,0.8888888888888888,2,object_09,1,106,0,7,8,library_1,2,memory-2step-stake-s,525,1202037,0.0-19.0-0.0-0.27,A33XAJW8WGY3O9,31KPKEKW5DTYWQJ2Z73D1GA4ZNDB00,3A4TN5196OYV3EFY1HBV7CBQX1DHCA,6,5
28,1,object_02,object_10,856.78000000003,1,1,901.53999999887,0.8888888888888888,1,object_01,5,146,0,8,8,desert_7,2,memory-2step-stake-s,526,1211080,0.0-19.0-0.0-0.28,A33XAJW8WGY3O9,31KPKEKW5DTYWQJ2Z73D1GA4ZNDB00,3A4TN5196OYV3EFY1HBV7CBQX1DHCA,1,2
29,1,object_02,object_10,744.4450000003,1,1,145.43499999843,0.5555555555555556,1,object_01,5,171,0,5,5,desert_3,2,memory-2step-stake-s,527,1219066,0.0-19.0-0.0-0.29,A33XAJW8WGY3O9,31KPKEKW5DTYWQJ2Z73D1GA4ZNDB00,3A4TN5196OYV3EFY1HBV7CBQX1DHCA,1,2
30,4,object_06,object_05,-1.0,-1,-1,-1.0,0.0,-,0,1,171,0,6,4,restaurant_1,2,memory-2step-stake-s,528,1225627,0.0-19.0-0.0-0.30,A33XAJW8WGY3O9,31KPKEKW5DTYWQJ2Z73D1GA4ZNDB00,3A4TN5196OYV3EFY1HBV7CBQX1DHCA,8,7
31,4,object_05,object_06,-1.0,-1,-1,-1.0,0.0,-,0,1,171,0,5,5,restaurant_4,2,memory-2step-stake-s,529,1232198,0.0-19.0-0.0-0.31,A33XAJW8WGY3O9,31KPKEKW5DTYWQJ2Z73D1GA4ZNDB00,3A4TN5196OYV3EFY1HBV7CBQX1DHCA,7,8
32,2,object_03,object_04,1081.3200000012,4,2,-1.0,0.0,2,object_09,5,171,0,3,4,forest_8,2,memory-2step-stake-s,530,1240769,0.0-19.0-0.0-0.32,A33XAJW8WGY3O9,31KPKEKW5DTYWQJ2Z73D1GA4ZNDB00,3A4TN5196OYV3EFY1HBV7CBQX1DHCA,3,4
33,3,object_07,object_08,553.70500000031,6,1,170.11999999895,0.4444444444444444,2,object_09,1,175,0,3,4,library_2,2,memory-2step-stake-s,531,1249358,0.0-19.0-0.0-0.33,A33XAJW8WGY3O9,31KPKEKW5DTYWQJ2Z73D1GA4ZNDB00,3A4TN5196OYV3EFY1HBV7CBQX1DHCA,6,5
34,4,object_06,object_05,561.06499999994,8,1,519.77499999874,0.3333333333333333,2,object_09,1,178,0,5,3,restaurant_5,2,memory-2step-stake-s,532,1257470,0.0-19.0-0.0-0.34,A33XAJW8WGY3O9,31KPKEKW5DTYWQJ2Z73D1GA4ZNDB00,3A4TN5196OYV3EFY1HBV7CBQX1DHCA,8,7
35,2,object_04,object_03,786.50000000023,4,1,950.45000000019,0.2222222222222222,2,object_09,5,188,0,8,2,forest_8,2,memory-2step-stake-s,533,1265916,0.0-19.0-0.0-0.35,A33XAJW8WGY3O9,31KPKEKW5DTYWQJ2Z73D1GA4ZNDB00,3A4TN5196OYV3EFY1HBV7CBQX1DHCA,4,3
36,2,object_03,object_04,1045.2100000002,3,1,806.19499999913,0.4444444444444444,1,object_01,1,192,0,4,1,forest_2,2,memory-2step-stake-s,534,1274433,0.0-19.0-0.0-0.36,A33XAJW8WGY3O9,31KPKEKW5DTYWQJ2Z73D1GA4ZNDB00,3A4TN5196OYV3EFY1HBV7CBQX1DHCA,3,4
37,1,object_10,object_02,993.86999999825,2,1,684.27999999956,0.4444444444444444,2,object_09,1,196,0,1,4,desert_6,2,memory-2step-stake-s,535,1282838,0.0-19.0-0.0-0.37,A33XAJW8WGY3O9,31KPKEKW5DTYWQJ2Z73D1GA4ZNDB00,3A4TN5196OYV3EFY1HBV7CBQX1DHCA,2,1
38,1,object_02,object_10,768.84500000044,1,1,807.82999999984,0.1111111111111111,1,object_01,5,201,0,1,0,desert_8,2,memory-2step-stake-s,536,1291018,0.0-19.0-0.0-0.38,A33XAJW8WGY3O9,31KPKEKW5DTYWQJ2Z73D1GA4ZNDB00,3A4TN5196OYV3EFY1HBV7CBQX1DHCA,1,2
39,1,object_10,object_02,521.70999999903,2,1,835.15000000084,0.2222222222222222,2,object_09,5,211,0,2,2,desert_3,2,memory-2step-stake-s,537,1299349,0.0-19.0-0.0-0.39,A33XAJW8WGY3O9,31KPKEKW5DTYWQJ2Z73D1GA4ZNDB00,3A4TN5196OYV3EFY1HBV7CBQX1DHCA,2,1
40,1,object_02,object_10,-1.0,-1,-1,-1.0,0.0,-,0,5,211,0,2,1,desert_6,2,memory-2step-stake-s,538,1306859,0.0-19.0-0.0-0.40,A33XAJW8WGY3O9,31KPKEKW5DTYWQJ2Z73D1GA4ZNDB00,3A4TN5196OYV3EFY1HBV7CBQX1DHCA,1,2
41,1,object_10,object_02,34.364999999525,2,1,800.12999999966,0.0,2,object_09,1,211,0,1,0,desert_3,2,memory-2step-stake-s,539,1314942,0.0-19.0-0.0-0.41,A33XAJW8WGY3O9,31KPKEKW5DTYWQJ2Z73D1GA4ZNDB00,3A4TN5196OYV3EFY1HBV7CBQX1DHCA,2,1
42,1,object_02,object_10,484.10500000138,1,1,567.24000000022,0.2222222222222222,1,object_01,5,221,0,2,2,desert_3,2,memory-2step-stake-s,540,1323014,0.0-19.0-0.0-0.42,A33XAJW8WGY3O9,31KPKEKW5DTYWQJ2Z73D1GA4ZNDB00,3A4TN5196OYV3EFY1HBV7CBQX1DHCA,1,2
43,1,object_10,object_02,488.53500000038,2,1,545.63000000059,0.0,2,object_09,5,221,0,3,0,desert_6,2,memory-2step-stake-s,541,1330844,0.0-19.0-0.0-0.43,A33XAJW8WGY3O9,31KPKEKW5DTYWQJ2Z73D1GA4ZNDB00,3A4TN5196OYV3EFY1HBV7CBQX1DHCA,2,1
44,1,object_02,object_10,626.92000000062,1,1,394.76999999885,0.2222222222222222,1,object_01,1,223,0,2,4,desert_6,2,memory-2step-stake-s,542,1338705,0.0-19.0-0.0-0.44,A33XAJW8WGY3O9,31KPKEKW5DTYWQJ2Z73D1GA4ZNDB00,3A4TN5196OYV3EFY1HBV7CBQX1DHCA,1,2
45,4,object_06,object_05,339.44999999949,8,1,729.10500000045,0.1111111111111111,2,object_09,1,224,0,3,1,restaurant_1,2,memory-2step-stake-s,543,1346811,0.0-19.0-0.0-0.45,A33XAJW8WGY3O9,31KPKEKW5DTYWQJ2Z73D1GA4ZNDB00,3A4TN5196OYV3EFY1HBV7CBQX1DHCA,8,7
46,3,object_08,object_07,548.90000000154,6,2,3.9550000000745,0.1111111111111111,2,object_09,1,225,0,6,1,library_2,2,memory-2step-stake-s,544,1354178,0.0-19.0-0.0-0.46,A33XAJW8WGY3O9,31KPKEKW5DTYWQJ2Z73D1GA4ZNDB00,3A4TN5196OYV3EFY1HBV7CBQX1DHCA,5,6
47,2,object_03,object_04,411.9150000005,3,1,729.27499999967,0.6666666666666666,1,object_01,5,255,0,6,3,forest_6,2,memory-2step-stake-s,545,1362867,0.0-19.0-0.0-0.47,A33XAJW8WGY3O9,31KPKEKW5DTYWQJ2Z73D1GA4ZNDB00,3A4TN5196OYV3EFY1HBV7CBQX1DHCA,3,4
48,1,object_02,object_10,471.89500000048,1,1,1455.3600000001,0.8888888888888888,1,object_01,5,295,0,8,2,desert_8,2,memory-2step-stake-s,546,1372459,0.0-19.0-0.0-0.48,A33XAJW8WGY3O9,31KPKEKW5DTYWQJ2Z73D1GA4ZNDB00,3A4TN5196OYV3EFY1HBV7CBQX1DHCA,1,2
49,4,object_06,object_05,737.62500000163,8,1,682.11499999976,0.0,2,object_09,1,295,0,8,0,restaurant_1,2,memory-2step-stake-s,547,1380445,0.0-19.0-0.0-0.49,A33XAJW8WGY3O9,31KPKEKW5DTYWQJ2Z73D1GA4ZNDB00,3A4TN5196OYV3EFY1HBV7CBQX1DHCA,8,7
50,2,object_04,object_03,347.56499999994,4,1,583.13000000082,0.2222222222222222,2,object_09,5,305,0,9,2,forest_6,2,memory-2step-stake-s,548,1388503,0.0-19.0-0.0-0.50,A33XAJW8WGY3O9,31KPKEKW5DTYWQJ2Z73D1GA4ZNDB00,3A4TN5196OYV3EFY1HBV7CBQX1DHCA,4,3
51,2,object_03,object_04,688.95000000158,4,2,494.55499999924,0.3333333333333333,2,object_09,5,320,0,4,3,forest_6,2,memory-2step-stake-s,549,1396601,0.0-19.0-0.0-0.51,A33XAJW8WGY3O9,31KPKEKW5DTYWQJ2Z73D1GA4ZNDB00,3A4TN5196OYV3EFY1HBV7CBQX1DHCA,3,4
52,4,object_06,object_05,918.72999999928,8,1,889.90000000014,0.4444444444444444,2,object_09,1,324,0,5,4,restaurant_5,2,memory-2step-stake-s,550,1405208,0.0-19.0-0.0-0.52,A33XAJW8WGY3O9,31KPKEKW5DTYWQJ2Z73D1GA4ZNDB00,3A4TN5196OYV3EFY1HBV7CBQX1DHCA,8,7
53,3,object_08,object_07,1056.9849999994,6,2,658.74000000092,0.4444444444444444,2,object_09,1,328,0,4,4,library_2,2,memory-2step-stake-s,551,1413587,0.0-19.0-0.0-0.53,A33XAJW8WGY3O9,31KPKEKW5DTYWQJ2Z73D1GA4ZNDB00,3A4TN5196OYV3EFY1HBV7CBQX1DHCA,5,6
54,4,object_05,object_06,654.78999999864,8,2,594.99000000139,0.2222222222222222,2,object_09,5,338,0,4,2,restaurant_3,2,memory-2step-stake-s,552,1421666,0.0-19.0-0.0-0.54,A33XAJW8WGY3O9,31KPKEKW5DTYWQJ2Z73D1GA4ZNDB00,3A4TN5196OYV3EFY1HBV7CBQX1DHCA,7,8
55,3,object_07,object_08,416.87500000093,5,2,11.379999999888,0.3333333333333333,1,object_01,1,341,0,3,2,library_6,2,memory-2step-stake-s,553,1429280,0.0-19.0-0.0-0.55,A33XAJW8WGY3O9,31KPKEKW5DTYWQJ2Z73D1GA4ZNDB00,3A4TN5196OYV3EFY1HBV7CBQX1DHCA,6,5
56,3,object_07,object_08,655.99499999918,6,1,509.93999999971,0.3333333333333333,2,object_09,1,344,0,3,3,library_3,2,memory-2step-stake-s,554,1437380,0.0-19.0-0.0-0.56,A33XAJW8WGY3O9,31KPKEKW5DTYWQJ2Z73D1GA4ZNDB00,3A4TN5196OYV3EFY1HBV7CBQX1DHCA,6,5
57,1,object_10,object_02,528.9599999995,2,1,465.25500000105,0.3333333333333333,2,object_09,5,359,0,1,3,desert_8,2,memory-2step-stake-s,555,1445438,0.0-19.0-0.0-0.57,A33XAJW8WGY3O9,31KPKEKW5DTYWQJ2Z73D1GA4ZNDB00,3A4TN5196OYV3EFY1HBV7CBQX1DHCA,2,1
58,1,object_02,object_10,149.73500000103,2,2,446.54500000062,0.3333333333333333,2,object_09,5,374,0,1,3,desert_8,2,memory-2step-stake-s,556,1453508,0.0-19.0-0.0-0.58,A33XAJW8WGY3O9,31KPKEKW5DTYWQJ2Z73D1GA4ZNDB00,3A4TN5196OYV3EFY1HBV7CBQX1DHCA,1,2
59,1,object_02,object_10,630.8450000016,1,1,746.24500000011,0.1111111111111111,1,object_01,5,379,0,1,5,desert_7,2,memory-2step-stake-s,557,1461617,0.0-19.0-0.0-0.59,A33XAJW8WGY3O9,31KPKEKW5DTYWQJ2Z73D1GA4ZNDB00,3A4TN5196OYV3EFY1HBV7CBQX1DHCA,1,2
60,2,object_03,object_04,305.00000000023,4,2,438.85500000021,0.2222222222222222,2,object_09,5,389,0,1,2,forest_4,2,memory-2step-stake-s,558,1469538,0.0-19.0-0.0-0.60,A33XAJW8WGY3O9,31KPKEKW5DTYWQJ2Z73D1GA4ZNDB00,3A4TN5196OYV3EFY1HBV7CBQX1DHCA,3,4
61,3,object_07,object_08,422.67499999981,5,2,639.1399999992,0.1111111111111111,1,object_01,1,390,0,1,2,library_6,2,memory-2step-stake-s,559,1477559,0.0-19.0-0.0-0.61,A33XAJW8WGY3O9,31KPKEKW5DTYWQJ2Z73D1GA4ZNDB00,3A4TN5196OYV3EFY1HBV7CBQX1DHCA,6,5
62,2,object_03,object_04,788.2900000005,3,1,534.17000000086,0.3333333333333333,1,object_01,5,405,0,3,2,forest_6,2,memory-2step-stake-s,560,1485762,0.0-19.0-0.0-0.62,A33XAJW8WGY3O9,31KPKEKW5DTYWQJ2Z73D1GA4ZNDB00,3A4TN5196OYV3EFY1HBV7CBQX1DHCA,3,4
63,4,object_05,object_06,583.17499999981,7,1,62.434999999823,0.3333333333333333,1,object_01,1,408,0,3,0,restaurant_4,2,memory-2step-stake-s,561,1493392,0.0-19.0-0.0-0.63,A33XAJW8WGY3O9,31KPKEKW5DTYWQJ2Z73D1GA4ZNDB00,3A4TN5196OYV3EFY1HBV7CBQX1DHCA,7,8
64,2,object_04,object_03,114.42499999981,4,1,657.40000000014,0.1111111111111111,2,object_09,5,413,0,4,1,forest_2,2,memory-2step-stake-s,562,1501454,0.0-19.0-0.0-0.64,A33XAJW8WGY3O9,31KPKEKW5DTYWQJ2Z73D1GA4ZNDB00,3A4TN5196OYV3EFY1HBV7CBQX1DHCA,4,3
65,2,object_03,object_04,746.30500000063,4,2,904.96999999974,0.0,2,object_09,5,413,0,3,0,forest_2,2,memory-2step-stake-s,563,1509604,0.0-19.0-0.0-0.65,A33XAJW8WGY3O9,31KPKEKW5DTYWQJ2Z73D1GA4ZNDB00,3A4TN5196OYV3EFY1HBV7CBQX1DHCA,3,4
66,3,object_08,object_07,923.12999999919,5,1,-1.0,0.0,1,object_01,5,413,0,3,0,library_1,2,memory-2step-stake-s,564,1518172,0.0-19.0-0.0-0.66,A33XAJW8WGY3O9,31KPKEKW5DTYWQJ2Z73D1GA4ZNDB00,3A4TN5196OYV3EFY1HBV7CBQX1DHCA,5,6
67,3,object_07,object_08,-1.0,-1,-1,-1.0,0.0,-,0,1,413,0,5,2,library_2,2,memory-2step-stake-s,565,1524731,0.0-19.0-0.0-0.67,A33XAJW8WGY3O9,31KPKEKW5DTYWQJ2Z73D1GA4ZNDB00,3A4TN5196OYV3EFY1HBV7CBQX1DHCA,6,5
68,2,object_03,object_04,-1.0,-1,-1,-1.0,0.0,-,0,5,413,0,6,4,forest_8,2,memory-2step-stake-s,566,1531309,0.0-19.0-0.0-0.68,A33XAJW8WGY3O9,31KPKEKW5DTYWQJ2Z73D1GA4ZNDB00,3A4TN5196OYV3EFY1HBV7CBQX1DHCA,3,4
69,2,object_03,object_04,479.35499999952,3,1,54.25499999919,1.0,1,object_01,1,422,0,9,7,forest_4,2,memory-2step-stake-s,567,1539626,0.0-19.0-0.0-0.69,A33XAJW8WGY3O9,31KPKEKW5DTYWQJ2Z73D1GA4ZNDB00,3A4TN5196OYV3EFY1HBV7CBQX1DHCA,3,4
70,4,object_06,object_05,879.34999999939,7,2,652.49500000034,0.5555555555555556,1,object_01,1,427,0,5,6,restaurant_3,2,memory-2step-stake-s,568,1548091,0.0-19.0-0.0-0.70,A33XAJW8WGY3O9,31KPKEKW5DTYWQJ2Z73D1GA4ZNDB00,3A4TN5196OYV3EFY1HBV7CBQX1DHCA,8,7
71,2,object_03,object_04,496.14999999898,3,1,516.58000000147,0.6666666666666666,1,object_01,5,457,0,6,4,forest_6,2,memory-2step-stake-s,569,1556522,0.0-19.0-0.0-0.71,A33XAJW8WGY3O9,31KPKEKW5DTYWQJ2Z73D1GA4ZNDB00,3A4TN5196OYV3EFY1HBV7CBQX1DHCA,3,4
72,4,object_05,object_06,791.00500000082,7,1,880.18999999994,0.5555555555555556,1,object_01,1,462,0,5,3,restaurant_5,2,memory-2step-stake-s,570,1565197,0.0-19.0-0.0-0.72,A33XAJW8WGY3O9,31KPKEKW5DTYWQJ2Z73D1GA4ZNDB00,3A4TN5196OYV3EFY1HBV7CBQX1DHCA,7,8
73,3,object_08,object_07,888.66500000027,6,2,613.50999999931,0.4444444444444444,2,object_09,1,466,0,2,4,library_6,2,memory-2step-stake-s,571,1573523,0.0-19.0-0.0-0.73,A33XAJW8WGY3O9,31KPKEKW5DTYWQJ2Z73D1GA4ZNDB00,3A4TN5196OYV3EFY1HBV7CBQX1DHCA,5,6
74,4,object_05,object_06,687.98499999871,7,1,909.3050000011,0.2222222222222222,1,object_01,1,468,0,2,4,restaurant_1,2,memory-2step-stake-s,572,1581945,0.0-19.0-0.0-0.74,A33XAJW8WGY3O9,31KPKEKW5DTYWQJ2Z73D1GA4ZNDB00,3A4TN5196OYV3EFY1HBV7CBQX1DHCA,7,8
75,1,object_10,object_02,1404.6450000005,2,1,500.7499999993,0.6666666666666666,2,object_09,5,498,0,5,6,desert_7,2,memory-2step-stake-s,573,1590418,0.0-19.0-0.0-0.75,A33XAJW8WGY3O9,31KPKEKW5DTYWQJ2Z73D1GA4ZNDB00,3A4TN5196OYV3EFY1HBV7CBQX1DHCA,2,1
76,1,object_10,object_02,593.76999999932,2,1,736.91999999923,0.5555555555555556,2,object_09,5,523,0,7,5,desert_8,2,memory-2step-stake-s,574,1598987,0.0-19.0-0.0-0.76,A33XAJW8WGY3O9,31KPKEKW5DTYWQJ2Z73D1GA4ZNDB00,3A4TN5196OYV3EFY1HBV7CBQX1DHCA,2,1
77,4,object_06,object_05,672.70999999903,7,2,704.40999999852,1.0,1,object_01,1,532,0,9,8,restaurant_5,2,memory-2step-stake-s,575,1607952,0.0-19.0-0.0-0.77,A33XAJW8WGY3O9,31KPKEKW5DTYWQJ2Z73D1GA4ZNDB00,3A4TN5196OYV3EFY1HBV7CBQX1DHCA,8,7
78,3,object_08,object_07,850.7900000005,6,2,773.28999999911,0.5555555555555556,2,object_09,1,537,0,6,5,library_3,2,memory-2step-stake-s,576,1616550,0.0-19.0-0.0-0.78,A33XAJW8WGY3O9,31KPKEKW5DTYWQJ2Z73D1GA4ZNDB00,3A4TN5196OYV3EFY1HBV7CBQX1DHCA,5,6
79,3,object_07,object_08,1222.6150000005,6,1,939.13000000059,0.8888888888888888,2,object_09,1,545,0,6,8,library_6,2,memory-2step-stake-s,577,1625618,0.0-19.0-0.0-0.79,A33XAJW8WGY3O9,31KPKEKW5DTYWQJ2Z73D1GA4ZNDB00,3A4TN5196OYV3EFY1HBV7CBQX1DHCA,6,5
80,1,object_02,object_10,1038.5900000001,2,2,784.51000000141,0.5555555555555556,2,object_09,5,570,0,5,5,desert_7,2,memory-2step-stake-s,578,1634209,0.0-19.0-0.0-0.80,A33XAJW8WGY3O9,31KPKEKW5DTYWQJ2Z73D1GA4ZNDB00,3A4TN5196OYV3EFY1HBV7CBQX1DHCA,1,2
81,4,object_05,object_06,762.28999999864,7,1,444.08999999915,0.8888888888888888,1,object_01,5,610,0,8,6,restaurant_5,2,memory-2step-stake-s,579,1642782,0.0-19.0-0.0-0.81,A33XAJW8WGY3O9,31KPKEKW5DTYWQJ2Z73D1GA4ZNDB00,3A4TN5196OYV3EFY1HBV7CBQX1DHCA,7,8
82,3,object_07,object_08,1101.595,6,1,-1.0,0.0,2,object_09,1,610,0,9,9,library_6,2,memory-2step-stake-s,580,1651357,0.0-19.0-0.0-0.82,A33XAJW8WGY3O9,31KPKEKW5DTYWQJ2Z73D1GA4ZNDB00,3A4TN5196OYV3EFY1HBV7CBQX1DHCA,6,5
83,2,object_03,object_04,-1.0,-1,-1,-1.0,0.0,-,0,5,610,0,8,8,forest_6,2,memory-2step-stake-s,581,1657932,0.0-19.0-0.0-0.83,A33XAJW8WGY3O9,31KPKEKW5DTYWQJ2Z73D1GA4ZNDB00,3A4TN5196OYV3EFY1HBV7CBQX1DHCA,3,4
84,4,object_06,object_05,881.8350000002,8,1,803.75499999896,0.8888888888888888,2,object_09,1,618,0,8,8,restaurant_1,2,memory-2step-stake-s,582,1666879,0.0-19.0-0.0-0.84,A33XAJW8WGY3O9,31KPKEKW5DTYWQJ2Z73D1GA4ZNDB00,3A4TN5196OYV3EFY1HBV7CBQX1DHCA,8,7
85,2,object_04,object_03,841.67499999958,3,2,519.9850000008,0.4444444444444444,1,object_01,1,622,0,4,7,forest_6,2,memory-2step-stake-s,583,1675106,0.0-19.0-0.0-0.85,A33XAJW8WGY3O9,31KPKEKW5DTYWQJ2Z73D1GA4ZNDB00,3A4TN5196OYV3EFY1HBV7CBQX1DHCA,4,3
86,4,object_06,object_05,1260.7450000015,8,1,597.95000000112,1.0,2,object_09,5,667,0,5,9,restaurant_1,2,memory-2step-stake-s,584,1683945,0.0-19.0-0.0-0.86,A33XAJW8WGY3O9,31KPKEKW5DTYWQJ2Z73D1GA4ZNDB00,3A4TN5196OYV3EFY1HBV7CBQX1DHCA,8,7
87,4,object_06,object_05,1289.7149999989,7,2,673.0000000007,0.4444444444444444,1,object_01,1,671,0,4,5,restaurant_1,2,memory-2step-stake-s,585,1692302,0.0-19.0-0.0-0.87,A33XAJW8WGY3O9,31KPKEKW5DTYWQJ2Z73D1GA4ZNDB00,3A4TN5196OYV3EFY1HBV7CBQX1DHCA,8,7
88,2,object_03,object_04,626.7499999993,3,1,434.23499999894,0.1111111111111111,1,object_01,1,672,0,1,8,forest_2,2,memory-2step-stake-s,586,1700118,0.0-19.0-0.0-0.88,A33XAJW8WGY3O9,31KPKEKW5DTYWQJ2Z73D1GA4ZNDB00,3A4TN5196OYV3EFY1HBV7CBQX1DHCA,3,4
89,3,object_08,object_07,472.90000000061,5,1,465.80999999959,0.1111111111111111,1,object_01,1,673,0,1,7,library_2,2,memory-2step-stake-s,587,1707959,0.0-19.0-0.0-0.89,A33XAJW8WGY3O9,31KPKEKW5DTYWQJ2Z73D1GA4ZNDB00,3A4TN5196OYV3EFY1HBV7CBQX1DHCA,5,6
90,2,object_03,object_04,-1.0,-1,-1,-1.0,0.0,-,0,5,673,0,2,7,forest_4,2,memory-2step-stake-s,588,1714539,0.0-19.0-0.0-0.90,A33XAJW8WGY3O9,31KPKEKW5DTYWQJ2Z73D1GA4ZNDB00,3A4TN5196OYV3EFY1HBV7CBQX1DHCA,3,4
91,3,object_08,object_07,1230.5149999992,5,1,758.09499999927,0.2222222222222222,1,object_01,1,675,0,2,8,library_3,2,memory-2step-stake-s,589,1722773,0.0-19.0-0.0-0.91,A33XAJW8WGY3O9,31KPKEKW5DTYWQJ2Z73D1GA4ZNDB00,3A4TN5196OYV3EFY1HBV7CBQX1DHCA,5,6
92,2,object_04,object_03,1150.9850000001,4,1,770.35500000045,0.8888888888888888,2,object_09,5,715,0,1,8,forest_8,2,memory-2step-stake-s,590,1731672,0.0-19.0-0.0-0.92,A33XAJW8WGY3O9,31KPKEKW5DTYWQJ2Z73D1GA4ZNDB00,3A4TN5196OYV3EFY1HBV7CBQX1DHCA,4,3
93,2,object_03,object_04,980.19000000018,4,2,584.45999999996,0.8888888888888888,2,object_09,5,755,0,1,8,forest_6,2,memory-2step-stake-s,591,1740428,0.0-19.0-0.0-0.93,A33XAJW8WGY3O9,31KPKEKW5DTYWQJ2Z73D1GA4ZNDB00,3A4TN5196OYV3EFY1HBV7CBQX1DHCA,3,4
94,2,object_04,object_03,794.02500000107,4,1,480.60500000068,1.0,2,object_09,1,764,0,1,9,forest_8,2,memory-2step-stake-s,592,1749186,0.0-19.0-0.0-0.94,A33XAJW8WGY3O9,31KPKEKW5DTYWQJ2Z73D1GA4ZNDB00,3A4TN5196OYV3EFY1HBV7CBQX1DHCA,4,3
95,3,object_08,object_07,950.10499999998,5,1,986.84499999951,0.4444444444444444,1,object_01,1,768,0,4,9,library_1,2,memory-2step-stake-s,593,1757888,0.0-19.0-0.0-0.95,A33XAJW8WGY3O9,31KPKEKW5DTYWQJ2Z73D1GA4ZNDB00,3A4TN5196OYV3EFY1HBV7CBQX1DHCA,5,6
96,2,object_03,object_04,708.27999999886,3,1,572.05000000075,0.6666666666666666,1,object_01,1,774,0,6,8,forest_8,2,memory-2step-stake-s,594,1766404,0.0-19.0-0.0-0.96,A33XAJW8WGY3O9,31KPKEKW5DTYWQJ2Z73D1GA4ZNDB00,3A4TN5196OYV3EFY1HBV7CBQX1DHCA,3,4
97,2,object_04,object_03,786.08499999973,4,1,673.75999999954,1.0,2,object_09,5,819,0,4,9,forest_2,2,memory-2step-stake-s,595,1775329,0.0-19.0-0.0-0.97,A33XAJW8WGY3O9,31KPKEKW5DTYWQJ2Z73D1GA4ZNDB00,3A4TN5196OYV3EFY1HBV7CBQX1DHCA,4,3
98,2,object_04,object_03,1420.9199999985,4,1,22.91999999946,0.8888888888888888,2,object_09,5,859,0,3,8,forest_6,2,memory-2step-stake-s,596,1783501,0.0-19.0-0.0-0.98,A33XAJW8WGY3O9,31KPKEKW5DTYWQJ2Z73D1GA4ZNDB00,3A4TN5196OYV3EFY1HBV7CBQX1DHCA,4,3
99,1,object_02,object_10,689.71500000032,1,1,-1.0,0.0,1,object_01,5,859,0,1,7,desert_6,2,memory-2step-stake-s,597,1794362,0.0-19.0-0.0-0.99,A33XAJW8WGY3O9,31KPKEKW5DTYWQJ2Z73D1GA4ZNDB00,3A4TN5196OYV3EFY1HBV7CBQX1DHCA,1,2
100,3,object_07,object_08,-1.0,-1,-1,-1.0,0.0,-,0,1,859,0,1,5,library_6,2,memory-2step-stake-s,598,1804350,0.0-19.0-0.0-0.100,A33XAJW8WGY3O9,31KPKEKW5DTYWQJ2Z73D1GA4ZNDB00,3A4TN5196OYV3EFY1HBV7CBQX1DHCA,6,5
101,1,object_02,object_10,-1.0,-1,-1,-1.0,0.0,-,0,5,859,0,0,6,desert_3,2,memory-2step-stake-s,599,1814350,0.0-19.0-0.0-0.101,A33XAJW8WGY3O9,31KPKEKW5DTYWQJ2Z73D1GA4ZNDB00,3A4TN5196OYV3EFY1HBV7CBQX1DHCA,1,2
102,4,object_05,object_06,-1.0,-1,-1,-1.0,0.0,-,0,5,859,0,1,9,restaurant_1,2,memory-2step-stake-s,600,1821813,0.0-19.0-0.0-0.102,A33XAJW8WGY3O9,31KPKEKW5DTYWQJ2Z73D1GA4ZNDB00,3A4TN5196OYV3EFY1HBV7CBQX1DHCA,7,8
103,3,object_07,object_08,696.0250000013,6,1,744.23999999999,0.8888888888888888,2,object_09,1,867,0,2,8,library_6,2,memory-2step-stake-s,601,1830704,0.0-19.0-0.0-0.103,A33XAJW8WGY3O9,31KPKEKW5DTYWQJ2Z73D1GA4ZNDB00,3A4TN5196OYV3EFY1HBV7CBQX1DHCA,6,5
104,1,object_02,object_10,966.56499999878,1,1,512.4000000013,0.2222222222222222,1,object_01,5,877,0,2,9,desert_8,2,memory-2step-stake-s,602,1838703,0.0-19.0-0.0-0.104,A33XAJW8WGY3O9,31KPKEKW5DTYWQJ2Z73D1GA4ZNDB00,3A4TN5196OYV3EFY1HBV7CBQX1DHCA,1,2
105,2,object_04,object_03,931.13500000071,4,1,503.75,0.7777777777777778,2,object_09,5,912,0,1,7,forest_6,2,memory-2step-stake-s,603,1847248,0.0-19.0-0.0-0.105,A33XAJW8WGY3O9,31KPKEKW5DTYWQJ2Z73D1GA4ZNDB00,3A4TN5196OYV3EFY1HBV7CBQX1DHCA,4,3
106,2,object_04,object_03,706.22499999986,4,1,135.9550000017,0.5555555555555556,2,object_09,1,917,0,1,5,forest_6,2,memory-2step-stake-s,604,1855206,0.0-19.0-0.0-0.106,A33XAJW8WGY3O9,31KPKEKW5DTYWQJ2Z73D1GA4ZNDB00,3A4TN5196OYV3EFY1HBV7CBQX1DHCA,4,3
107,2,object_03,object_04,1268.2750000004,3,1,512.16500000004,0.0,1,object_01,5,917,0,0,3,forest_6,2,memory-2step-stake-s,605,1863003,0.0-19.0-0.0-0.107,A33XAJW8WGY3O9,31KPKEKW5DTYWQJ2Z73D1GA4ZNDB00,3A4TN5196OYV3EFY1HBV7CBQX1DHCA,3,4
108,3,object_08,object_07,436.76000000047,5,1,339.39000000106,0.4444444444444444,1,object_01,5,937,0,4,5,library_3,2,memory-2step-stake-s,606,1871049,0.0-19.0-0.0-0.108,A33XAJW8WGY3O9,31KPKEKW5DTYWQJ2Z73D1GA4ZNDB00,3A4TN5196OYV3EFY1HBV7CBQX1DHCA,5,6
109,1,object_02,object_10,1022.7549999999,1,1,429.91499999887,0.0,1,object_01,5,937,0,0,3,desert_7,2,memory-2step-stake-s,607,1878742,0.0-19.0-0.0-0.109,A33XAJW8WGY3O9,31KPKEKW5DTYWQJ2Z73D1GA4ZNDB00,3A4TN5196OYV3EFY1HBV7CBQX1DHCA,1,2
110,4,object_06,object_05,443.50999999931,8,1,405.32999999961,0.4444444444444444,2,object_09,1,941,0,0,4,restaurant_1,2,memory-2step-stake-s,608,1886841,0.0-19.0-0.0-0.110,A33XAJW8WGY3O9,31KPKEKW5DTYWQJ2Z73D1GA4ZNDB00,3A4TN5196OYV3EFY1HBV7CBQX1DHCA,8,7
111,4,object_06,object_05,388.13999999897,8,1,612.88000000059,0.7777777777777778,2,object_09,1,948,0,1,7,restaurant_5,2,memory-2step-stake-s,609,1895502,0.0-19.0-0.0-0.111,A33XAJW8WGY3O9,31KPKEKW5DTYWQJ2Z73D1GA4ZNDB00,3A4TN5196OYV3EFY1HBV7CBQX1DHCA,8,7
112,4,object_05,object_06,436.49000000022,8,2,285.43499999982,0.6666666666666666,2,object_09,1,954,0,4,6,restaurant_1,2,memory-2step-stake-s,610,1903726,0.0-19.0-0.0-0.112,A33XAJW8WGY3O9,31KPKEKW5DTYWQJ2Z73D1GA4ZNDB00,3A4TN5196OYV3EFY1HBV7CBQX1DHCA,7,8
113,4,object_06,object_05,-1.0,-1,-1,-1.0,0.0,-,0,1,954,0,6,2,restaurant_1,2,memory-2step-stake-s,611,1910290,0.0-19.0-0.0-0.113,A33XAJW8WGY3O9,31KPKEKW5DTYWQJ2Z73D1GA4ZNDB00,3A4TN5196OYV3EFY1HBV7CBQX1DHCA,8,7
114,2,object_03,object_04,-1.0,-1,-1,-1.0,0.0,-,0,5,954,0,5,0,forest_4,2,memory-2step-stake-s,612,1916838,0.0-19.0-0.0-0.114,A33XAJW8WGY3O9,31KPKEKW5DTYWQJ2Z73D1GA4ZNDB00,3A4TN5196OYV3EFY1HBV7CBQX1DHCA,3,4
115,3,object_07,object_08,-1.0,-1,-1,-1.0,0.0,-,0,1,954,0,6,1,library_6,2,memory-2step-stake-s,613,1923401,0.0-19.0-0.0-0.115,A33XAJW8WGY3O9,31KPKEKW5DTYWQJ2Z73D1GA4ZNDB00,3A4TN5196OYV3EFY1HBV7CBQX1DHCA,6,5
116,3,object_08,object_07,389.99500000128,6,2,814.5400000012,0.2222222222222222,2,object_09,1,956,0,6,2,library_1,2,memory-2step-stake-s,614,1931708,0.0-19.0-0.0-0.116,A33XAJW8WGY3O9,31KPKEKW5DTYWQJ2Z73D1GA4ZNDB00,3A4TN5196OYV3EFY1HBV7CBQX1DHCA,5,6
117,3,object_08,object_07,493.51500000013,6,2,423.23500000034,0.1111111111111111,2,object_09,1,957,0,5,1,library_3,2,memory-2step-stake-s,615,1939533,0.0-19.0-0.0-0.117,A33XAJW8WGY3O9,31KPKEKW5DTYWQJ2Z73D1GA4ZNDB00,3A4TN5196OYV3EFY1HBV7CBQX1DHCA,5,6
118,3,object_07,object_08,379.64500000072,5,2,526.72499999963,0.8888888888888888,1,object_01,1,965,0,8,2,library_2,2,memory-2step-stake-s,616,1948200,0.0-19.0-0.0-0.118,A33XAJW8WGY3O9,31KPKEKW5DTYWQJ2Z73D1GA4ZNDB00,3A4TN5196OYV3EFY1HBV7CBQX1DHCA,6,5
119,2,object_04,object_03,464.3349999988,3,2,48.914999999572,1.0,1,object_01,5,1010,0,9,1,forest_2,2,memory-2step-stake-s,617,1956503,0.0-19.0-0.0-0.119,A33XAJW8WGY3O9,31KPKEKW5DTYWQJ2Z73D1GA4ZNDB00,3A4TN5196OYV3EFY1HBV7CBQX1DHCA,4,3
120,3,object_07,object_08,699.15000000037,5,2,12.174999999814,0.8888888888888888,1,object_01,5,1050,0,8,3,library_1,2,memory-2step-stake-s,618,1964677,0.0-19.0-0.0-0.120,A33XAJW8WGY3O9,31KPKEKW5DTYWQJ2Z73D1GA4ZNDB00,3A4TN5196OYV3EFY1HBV7CBQX1DHCA,6,5
121,1,object_10,object_02,365.04500000039,1,2,100.23499999987,0.6666666666666666,1,object_01,5,1080,0,6,4,desert_7,2,memory-2step-stake-s,619,1973230,0.0-19.0-0.0-0.121,A33XAJW8WGY3O9,31KPKEKW5DTYWQJ2Z73D1GA4ZNDB00,3A4TN5196OYV3EFY1HBV7CBQX1DHCA,2,1
122,3,object_07,object_08,640.92500000144,5,2,462.07500000135,0.4444444444444444,1,object_01,1,1084,0,4,0,library_1,2,memory-2step-stake-s,620,1981400,0.0-19.0-0.0-0.122,A33XAJW8WGY3O9,31KPKEKW5DTYWQJ2Z73D1GA4ZNDB00,3A4TN5196OYV3EFY1HBV7CBQX1DHCA,6,5
123,1,object_10,object_02,602.429999999,2,1,65.780000000726,0.0,2,object_09,5,1084,0,5,0,desert_3,2,memory-2step-stake-s,621,1988742,0.0-19.0-0.0-0.123,A33XAJW8WGY3O9,31KPKEKW5DTYWQJ2Z73D1GA4ZNDB00,3A4TN5196OYV3EFY1HBV7CBQX1DHCA,2,1
124,2,object_03,object_04,444.92499999958,4,2,599.57500000019,0.0,2,object_09,1,1084,0,9,0,forest_2,2,memory-2step-stake-s,622,1996613,0.0-19.0-0.0-0.124,A33XAJW8WGY3O9,31KPKEKW5DTYWQJ2Z73D1GA4ZNDB00,3A4TN5196OYV3EFY1HBV7CBQX1DHCA,3,4
125,2,object_03,object_04,774.14499999932,3,1,405.70499999938,0.8888888888888888,1,object_01,5,1124,0,8,2,forest_6,2,memory-2step-stake-s,623,2005182,0.0-19.0-0.0-0.125,A33XAJW8WGY3O9,31KPKEKW5DTYWQJ2Z73D1GA4ZNDB00,3A4TN5196OYV3EFY1HBV7CBQX1DHCA,3,4
126,4,object_05,object_06,654.11500000115,7,1,787.74499999965,0.5555555555555556,1,object_01,1,1129,0,5,4,restaurant_4,2,memory-2step-stake-s,624,2013767,0.0-19.0-0.0-0.126,A33XAJW8WGY3O9,31KPKEKW5DTYWQJ2Z73D1GA4ZNDB00,3A4TN5196OYV3EFY1HBV7CBQX1DHCA,7,8
127,2,object_03,object_04,575.39000000013,3,1,522.97499999986,0.2222222222222222,1,object_01,1,1131,0,2,6,forest_4,2,memory-2step-stake-s,625,2021799,0.0-19.0-0.0-0.127,A33XAJW8WGY3O9,31KPKEKW5DTYWQJ2Z73D1GA4ZNDB00,3A4TN5196OYV3EFY1HBV7CBQX1DHCA,3,4
128,2,object_03,object_04,1016.8899999987,3,1,17.925000000279,0.1111111111111111,1,object_01,1,1132,0,1,9,forest_8,2,memory-2step-stake-s,627,3296018,0.0-19.0-0.1-0.128,A33XAJW8WGY3O9,31KPKEKW5DTYWQJ2Z73D1GA4ZNDB00,3A4TN5196OYV3EFY1HBV7CBQX1DHCA,3,4
129,3,object_08,object_07,609.62500000093,6,2,28.744999999646,1.0,2,object_09,1,1141,0,2,9,library_3,2,memory-2step-stake-s,628,3304300,0.0-19.0-0.1-0.129,A33XAJW8WGY3O9,31KPKEKW5DTYWQJ2Z73D1GA4ZNDB00,3A4TN5196OYV3EFY1HBV7CBQX1DHCA,5,6
130,2,object_03,object_04,610.28000000073,4,2,584.22000000067,0.8888888888888888,2,object_09,1,1149,0,1,8,forest_2,2,memory-2step-stake-s,629,3313050,0.0-19.0-0.1-0.130,A33XAJW8WGY3O9,31KPKEKW5DTYWQJ2Z73D1GA4ZNDB00,3A4TN5196OYV3EFY1HBV7CBQX1DHCA,3,4
131,4,object_05,object_06,485.21999999881,8,2,15.160000002477,0.5555555555555556,2,object_09,1,1154,0,3,5,restaurant_5,2,memory-2step-stake-s,630,3320891,0.0-19.0-0.1-0.131,A33XAJW8WGY3O9,31KPKEKW5DTYWQJ2Z73D1GA4ZNDB00,3A4TN5196OYV3EFY1HBV7CBQX1DHCA,7,8
132,4,object_05,object_06,416.40500000026,8,2,518.38000000129,0.1111111111111111,2,object_09,1,1155,0,1,1,restaurant_3,2,memory-2step-stake-s,631,3328798,0.0-19.0-0.1-0.132,A33XAJW8WGY3O9,31KPKEKW5DTYWQJ2Z73D1GA4ZNDB00,3A4TN5196OYV3EFY1HBV7CBQX1DHCA,7,8
133,1,object_10,object_02,638.35499999905,2,1,689.97999999905,0.2222222222222222,2,object_09,5,1165,0,3,2,desert_3,2,memory-2step-stake-s,632,3336972,0.0-19.0-0.1-0.133,A33XAJW8WGY3O9,31KPKEKW5DTYWQJ2Z73D1GA4ZNDB00,3A4TN5196OYV3EFY1HBV7CBQX1DHCA,2,1
134,4,object_05,object_06,389.60000000242,8,2,707.55500000063,0.1111111111111111,2,object_09,5,1170,0,3,1,restaurant_1,2,memory-2step-stake-s,633,3345061,0.0-19.0-0.1-0.134,A33XAJW8WGY3O9,31KPKEKW5DTYWQJ2Z73D1GA4ZNDB00,3A4TN5196OYV3EFY1HBV7CBQX1DHCA,7,8
135,2,object_03,object_04,478.68499999866,3,1,787.32500000112,0.2222222222222222,1,object_01,5,1180,0,2,2,forest_2,2,memory-2step-stake-s,634,3353328,0.0-19.0-0.1-0.135,A33XAJW8WGY3O9,31KPKEKW5DTYWQJ2Z73D1GA4ZNDB00,3A4TN5196OYV3EFY1HBV7CBQX1DHCA,3,4
136,3,object_08,object_07,554.38499999931,6,2,626.06500000041,0.3333333333333333,2,object_09,1,1183,0,0,3,library_6,2,memory-2step-stake-s,635,3361581,0.0-19.0-0.1-0.136,A33XAJW8WGY3O9,31KPKEKW5DTYWQJ2Z73D1GA4ZNDB00,3A4TN5196OYV3EFY1HBV7CBQX1DHCA,5,6
137,1,object_10,object_02,474.82500000112,2,1,1316.2300000004,0.3333333333333333,2,object_09,5,1198,0,0,3,desert_7,2,memory-2step-stake-s,636,3370484,0.0-19.0-0.1-0.137,A33XAJW8WGY3O9,31KPKEKW5DTYWQJ2Z73D1GA4ZNDB00,3A4TN5196OYV3EFY1HBV7CBQX1DHCA,2,1
138,4,object_06,object_05,638.98500000173,8,1,123.0699999975,0.5555555555555556,2,object_09,1,1203,0,2,5,restaurant_3,2,memory-2step-stake-s,637,3378410,0.0-19.0-0.1-0.138,A33XAJW8WGY3O9,31KPKEKW5DTYWQJ2Z73D1GA4ZNDB00,3A4TN5196OYV3EFY1HBV7CBQX1DHCA,8,7
139,2,object_03,object_04,554.56000000052,3,1,755.3450000016,0.1111111111111111,1,object_01,5,1208,0,1,4,forest_2,2,memory-2step-stake-s,638,3386565,0.0-19.0-0.1-0.139,A33XAJW8WGY3O9,31KPKEKW5DTYWQJ2Z73D1GA4ZNDB00,3A4TN5196OYV3EFY1HBV7CBQX1DHCA,3,4
140,1,object_02,object_10,387.95499999868,1,1,1010.0999999992,0.2222222222222222,1,object_01,5,1218,0,2,5,desert_7,2,memory-2step-stake-s,639,3395059,0.0-19.0-0.1-0.140,A33XAJW8WGY3O9,31KPKEKW5DTYWQJ2Z73D1GA4ZNDB00,3A4TN5196OYV3EFY1HBV7CBQX1DHCA,1,2
141,4,object_05,object_06,407.3349999995,8,2,474.30000000168,0.6666666666666666,2,object_09,1,1224,0,5,6,restaurant_4,2,memory-2step-stake-s,640,3403461,0.0-19.0-0.1-0.141,A33XAJW8WGY3O9,31KPKEKW5DTYWQJ2Z73D1GA4ZNDB00,3A4TN5196OYV3EFY1HBV7CBQX1DHCA,7,8
142,1,object_10,object_02,401.82500000065,2,1,1044.4349999996,0.2222222222222222,2,object_09,5,1234,0,5,2,desert_3,2,memory-2step-stake-s,641,3411967,0.0-19.0-0.1-0.142,A33XAJW8WGY3O9,31KPKEKW5DTYWQJ2Z73D1GA4ZNDB00,3A4TN5196OYV3EFY1HBV7CBQX1DHCA,2,1
143,4,object_05,object_06,602.3600000008,7,1,798.99500000104,0.4444444444444444,1,object_01,1,1238,0,4,1,restaurant_3,2,memory-2step-stake-s,642,3420497,0.0-19.0-0.1-0.143,A33XAJW8WGY3O9,31KPKEKW5DTYWQJ2Z73D1GA4ZNDB00,3A4TN5196OYV3EFY1HBV7CBQX1DHCA,7,8
144,2,object_04,object_03,527.75499999942,4,1,708.01500000013,0.4444444444444444,2,object_09,5,1258,0,1,4,forest_8,2,memory-2step-stake-s,643,3428942,0.0-19.0-0.1-0.144,A33XAJW8WGY3O9,31KPKEKW5DTYWQJ2Z73D1GA4ZNDB00,3A4TN5196OYV3EFY1HBV7CBQX1DHCA,4,3
145,3,object_07,object_08,459.31000000238,6,1,-1.0,0.0,2,object_09,1,1258,0,1,5,library_2,2,memory-2step-stake-s,644,3437507,0.0-19.0-0.1-0.145,A33XAJW8WGY3O9,31KPKEKW5DTYWQJ2Z73D1GA4ZNDB00,3A4TN5196OYV3EFY1HBV7CBQX1DHCA,6,5
146,3,object_08,object_07,318.80499999877,6,2,524.17000000086,0.8888888888888888,2,object_09,1,1266,0,3,8,library_2,2,memory-2step-stake-s,645,3446187,0.0-19.0-0.1-0.146,A33XAJW8WGY3O9,31KPKEKW5DTYWQJ2Z73D1GA4ZNDB00,3A4TN5196OYV3EFY1HBV7CBQX1DHCA,5,6
147,4,object_06,object_05,368.86500000022,8,1,432.58499999857,0.4444444444444444,2,object_09,1,1270,0,1,4,restaurant_3,2,memory-2step-stake-s,646,3454340,0.0-19.0-0.1-0.147,A33XAJW8WGY3O9,31KPKEKW5DTYWQJ2Z73D1GA4ZNDB00,3A4TN5196OYV3EFY1HBV7CBQX1DHCA,8,7
148,1,object_02,object_10,732.89000000292,1,1,429.67499999935,0.0,1,object_01,5,1270,0,0,2,desert_8,2,memory-2step-stake-s,647,3462034,0.0-19.0-0.1-0.148,A33XAJW8WGY3O9,31KPKEKW5DTYWQJ2Z73D1GA4ZNDB00,3A4TN5196OYV3EFY1HBV7CBQX1DHCA,1,2
149,3,object_08,object_07,416.91500000143,5,1,854.93999999715,0.1111111111111111,1,object_01,1,1271,0,1,2,library_6,2,memory-2step-stake-s,648,3470245,0.0-19.0-0.1-0.149,A33XAJW8WGY3O9,31KPKEKW5DTYWQJ2Z73D1GA4ZNDB00,3A4TN5196OYV3EFY1HBV7CBQX1DHCA,5,6
150,4,object_06,object_05,436.42499999981,8,1,779.59999999823,0.4444444444444444,2,object_09,5,1291,0,2,4,restaurant_3,2,memory-2step-stake-s,649,3478686,0.0-19.0-0.1-0.150,A33XAJW8WGY3O9,31KPKEKW5DTYWQJ2Z73D1GA4ZNDB00,3A4TN5196OYV3EFY1HBV7CBQX1DHCA,8,7
151,3,object_07,object_08,445.3450000002,6,1,373.04500000039,0.4444444444444444,2,object_09,1,1295,0,1,4,library_3,2,memory-2step-stake-s,650,3486752,0.0-19.0-0.1-0.151,A33XAJW8WGY3O9,31KPKEKW5DTYWQJ2Z73D1GA4ZNDB00,3A4TN5196OYV3EFY1HBV7CBQX1DHCA,6,5
152,4,object_05,object_06,393.5700000003,7,1,-1.0,0.0,1,object_01,1,1295,0,2,1,restaurant_5,2,memory-2step-stake-s,651,3496858,0.0-19.0-0.1-0.152,A33XAJW8WGY3O9,31KPKEKW5DTYWQJ2Z73D1GA4ZNDB00,3A4TN5196OYV3EFY1HBV7CBQX1DHCA,7,8
153,1,object_10,object_02,348.58999999752,2,1,400.47000000067,0.2222222222222222,2,object_09,5,1305,0,3,2,desert_8,2,memory-2step-stake-s,652,3504731,0.0-19.0-0.1-0.153,A33XAJW8WGY3O9,31KPKEKW5DTYWQJ2Z73D1GA4ZNDB00,3A4TN5196OYV3EFY1HBV7CBQX1DHCA,2,1
154,2,object_04,object_03,450.89999999944,4,1,360.01000000024,0.3333333333333333,2,object_09,5,1320,0,1,3,forest_2,2,memory-2step-stake-s,653,3514411,0.0-19.0-0.1-0.154,A33XAJW8WGY3O9,31KPKEKW5DTYWQJ2Z73D1GA4ZNDB00,3A4TN5196OYV3EFY1HBV7CBQX1DHCA,4,3
155,3,object_08,object_07,428.33999999845,5,1,865.07999999961,0.1111111111111111,1,object_01,1,1321,0,1,3,library_2,2,memory-2step-stake-s,654,3522655,0.0-19.0-0.1-0.155,A33XAJW8WGY3O9,31KPKEKW5DTYWQJ2Z73D1GA4ZNDB00,3A4TN5196OYV3EFY1HBV7CBQX1DHCA,5,6
156,4,object_06,object_05,883.96500000125,8,1,602.75000000186,0.5555555555555556,2,object_09,1,1326,0,4,5,restaurant_4,2,memory-2step-stake-s,655,3531096,0.0-19.0-0.1-0.156,A33XAJW8WGY3O9,31KPKEKW5DTYWQJ2Z73D1GA4ZNDB00,3A4TN5196OYV3EFY1HBV7CBQX1DHCA,8,7
157,3,object_07,object_08,352.36499999883,6,1,593.76999999955,0.1111111111111111,2,object_09,1,1327,0,5,1,library_2,2,memory-2step-stake-s,656,3539081,0.0-19.0-0.1-0.157,A33XAJW8WGY3O9,31KPKEKW5DTYWQJ2Z73D1GA4ZNDB00,3A4TN5196OYV3EFY1HBV7CBQX1DHCA,6,5
158,1,object_02,object_10,961.96500000264,1,1,467.6399999992,0.5555555555555556,1,object_01,5,1352,0,5,1,desert_6,2,memory-2step-stake-s,657,3547380,0.0-19.0-0.1-0.158,A33XAJW8WGY3O9,31KPKEKW5DTYWQJ2Z73D1GA4ZNDB00,3A4TN5196OYV3EFY1HBV7CBQX1DHCA,1,2
159,4,object_06,object_05,340.15499999793,8,1,557.31499999855,0.0,2,object_09,1,1352,0,4,0,restaurant_4,2,memory-2step-stake-s,658,3555232,0.0-19.0-0.1-0.159,A33XAJW8WGY3O9,31KPKEKW5DTYWQJ2Z73D1GA4ZNDB00,3A4TN5196OYV3EFY1HBV7CBQX1DHCA,8,7
160,3,object_07,object_08,274.37999999896,6,1,195.49000000162,0.0,2,object_09,1,1352,0,2,0,library_3,2,memory-2step-stake-s,659,3562692,0.0-19.0-0.1-0.160,A33XAJW8WGY3O9,31KPKEKW5DTYWQJ2Z73D1GA4ZNDB00,3A4TN5196OYV3EFY1HBV7CBQX1DHCA,6,5
161,2,object_04,object_03,499.70000000019,3,2,497.60500000045,0.3333333333333333,1,object_01,5,1367,0,3,2,forest_8,2,memory-2step-stake-s,660,3570793,0.0-19.0-0.1-0.161,A33XAJW8WGY3O9,31KPKEKW5DTYWQJ2Z73D1GA4ZNDB00,3A4TN5196OYV3EFY1HBV7CBQX1DHCA,4,3
162,1,object_02,object_10,389.44999999879,1,1,467.1549999984,0.3333333333333333,1,object_01,5,1382,0,3,2,desert_7,2,memory-2step-stake-s,661,3578863,0.0-19.0-0.1-0.162,A33XAJW8WGY3O9,31KPKEKW5DTYWQJ2Z73D1GA4ZNDB00,3A4TN5196OYV3EFY1HBV7CBQX1DHCA,1,2
163,1,object_02,object_10,448.18999999948,1,1,281.09499999834,0.3333333333333333,1,object_01,5,1397,0,3,1,desert_8,2,memory-2step-stake-s,662,3586726,0.0-19.0-0.1-0.163,A33XAJW8WGY3O9,31KPKEKW5DTYWQJ2Z73D1GA4ZNDB00,3A4TN5196OYV3EFY1HBV7CBQX1DHCA,1,2
164,1,object_02,object_10,248.02499999711,1,1,799.16999999806,0.1111111111111111,1,object_01,5,1402,0,1,4,desert_3,2,memory-2step-stake-s,663,3594917,0.0-19.0-0.1-0.164,A33XAJW8WGY3O9,31KPKEKW5DTYWQJ2Z73D1GA4ZNDB00,3A4TN5196OYV3EFY1HBV7CBQX1DHCA,1,2
165,3,object_07,object_08,368.87999999849,6,1,396.57000000076,0.4444444444444444,2,object_09,1,1406,0,1,4,library_1,2,memory-2step-stake-s,664,3603015,0.0-19.0-0.1-0.165,A33XAJW8WGY3O9,31KPKEKW5DTYWQJ2Z73D1GA4ZNDB00,3A4TN5196OYV3EFY1HBV7CBQX1DHCA,6,5
166,1,object_10,object_02,426.29500000132,2,1,478.49999999767,0.2222222222222222,2,object_09,5,1416,0,4,2,desert_6,2,memory-2step-stake-s,665,3610991,0.0-19.0-0.1-0.166,A33XAJW8WGY3O9,31KPKEKW5DTYWQJ2Z73D1GA4ZNDB00,3A4TN5196OYV3EFY1HBV7CBQX1DHCA,2,1
167,2,object_04,object_03,422.06999999657,3,2,426.94999999739,0.4444444444444444,1,object_01,5,1436,0,4,1,forest_6,2,memory-2step-stake-s,666,3619127,0.0-19.0-0.1-0.167,A33XAJW8WGY3O9,31KPKEKW5DTYWQJ2Z73D1GA4ZNDB00,3A4TN5196OYV3EFY1HBV7CBQX1DHCA,4,3
168,3,object_07,object_08,371.53500000248,6,1,542.03000000026,0.1111111111111111,2,object_09,1,1437,0,2,1,library_6,2,memory-2step-stake-s,667,3627045,0.0-19.0-0.1-0.168,A33XAJW8WGY3O9,31KPKEKW5DTYWQJ2Z73D1GA4ZNDB00,3A4TN5196OYV3EFY1HBV7CBQX1DHCA,6,5
169,4,object_05,object_06,574.83000000101,7,1,496.35500000324,0.2222222222222222,1,object_01,1,1439,0,2,1,restaurant_3,2,memory-2step-stake-s,668,3635056,0.0-19.0-0.1-0.169,A33XAJW8WGY3O9,31KPKEKW5DTYWQJ2Z73D1GA4ZNDB00,3A4TN5196OYV3EFY1HBV7CBQX1DHCA,7,8
170,4,object_06,object_05,1162.4850000008,8,1,570.82499999879,0.0,2,object_09,1,1439,0,2,0,restaurant_4,2,memory-2step-stake-s,669,3642920,0.0-19.0-0.1-0.170,A33XAJW8WGY3O9,31KPKEKW5DTYWQJ2Z73D1GA4ZNDB00,3A4TN5196OYV3EFY1HBV7CBQX1DHCA,8,7
171,2,object_04,object_03,276.54000000283,3,2,471.43999999762,0.5555555555555556,1,object_01,5,1464,0,5,0,forest_4,2,memory-2step-stake-s,670,3651195,0.0-19.0-0.1-0.171,A33XAJW8WGY3O9,31KPKEKW5DTYWQJ2Z73D1GA4ZNDB00,3A4TN5196OYV3EFY1HBV7CBQX1DHCA,4,3
172,2,object_03,object_04,770.92999999877,4,2,160.11499999883,0.0,2,object_09,5,1464,0,6,0,forest_8,2,memory-2step-stake-s,671,3658639,0.0-19.0-0.1-0.172,A33XAJW8WGY3O9,31KPKEKW5DTYWQJ2Z73D1GA4ZNDB00,3A4TN5196OYV3EFY1HBV7CBQX1DHCA,3,4
173,1,object_10,object_02,892.79999999795,1,2,423.49499999918,0.3333333333333333,1,object_01,5,1479,0,3,2,desert_3,2,memory-2step-stake-s,672,3666653,0.0-19.0-0.1-0.173,A33XAJW8WGY3O9,31KPKEKW5DTYWQJ2Z73D1GA4ZNDB00,3A4TN5196OYV3EFY1HBV7CBQX1DHCA,2,1
174,1,object_10,object_02,648.62000000011,2,1,487.71999999741,0.3333333333333333,2,object_09,5,1494,0,3,3,desert_8,2,memory-2step-stake-s,673,3674765,0.0-19.0-0.1-0.174,A33XAJW8WGY3O9,31KPKEKW5DTYWQJ2Z73D1GA4ZNDB00,3A4TN5196OYV3EFY1HBV7CBQX1DHCA,2,1
175,1,object_10,object_02,909.11499999883,1,2,509.42500000028,0.0,1,object_01,5,1494,0,0,4,desert_6,2,memory-2step-stake-s,674,3682568,0.0-19.0-0.1-0.175,A33XAJW8WGY3O9,31KPKEKW5DTYWQJ2Z73D1GA4ZNDB00,3A4TN5196OYV3EFY1HBV7CBQX1DHCA,2,1
176,1,object_10,object_02,540.0800000024,1,2,417.34000000032,0.0,1,object_01,5,1494,0,0,2,desert_7,2,memory-2step-stake-s,675,3690251,0.0-19.0-0.1-0.176,A33XAJW8WGY3O9,31KPKEKW5DTYWQJ2Z73D1GA4ZNDB00,3A4TN5196OYV3EFY1HBV7CBQX1DHCA,2,1
177,3,object_07,object_08,655.95499999821,6,1,129.57499999925,0.2222222222222222,2,object_09,1,1496,0,1,2,library_3,2,memory-2step-stake-s,676,3697871,0.0-19.0-0.1-0.177,A33XAJW8WGY3O9,31KPKEKW5DTYWQJ2Z73D1GA4ZNDB00,3A4TN5196OYV3EFY1HBV7CBQX1DHCA,6,5
178,3,object_08,object_07,534.3199999989,5,1,488.65499999747,0.1111111111111111,1,object_01,1,1497,0,1,3,library_3,2,memory-2step-stake-s,677,3705751,0.0-19.0-0.1-0.178,A33XAJW8WGY3O9,31KPKEKW5DTYWQJ2Z73D1GA4ZNDB00,3A4TN5196OYV3EFY1HBV7CBQX1DHCA,5,6
179,4,object_06,object_05,635.31000000145,8,1,448.87500000186,0.5555555555555556,2,object_09,1,1502,0,1,5,restaurant_1,2,memory-2step-stake-s,678,3714036,0.0-19.0-0.1-0.179,A33XAJW8WGY3O9,31KPKEKW5DTYWQJ2Z73D1GA4ZNDB00,3A4TN5196OYV3EFY1HBV7CBQX1DHCA,8,7
180,2,object_03,object_04,541.50499999756,3,1,371.80499999877,0.2222222222222222,1,object_01,1,1504,0,2,3,forest_2,2,memory-2step-stake-s,679,3721895,0.0-19.0-0.1-0.180,A33XAJW8WGY3O9,31KPKEKW5DTYWQJ2Z73D1GA4ZNDB00,3A4TN5196OYV3EFY1HBV7CBQX1DHCA,3,4
181,1,object_02,object_10,299.61500000022,1,1,601.15000000224,0.2222222222222222,1,object_01,5,1514,0,2,3,desert_6,2,memory-2step-stake-s,680,3729994,0.0-19.0-0.1-0.181,A33XAJW8WGY3O9,31KPKEKW5DTYWQJ2Z73D1GA4ZNDB00,3A4TN5196OYV3EFY1HBV7CBQX1DHCA,1,2
182,3,object_07,object_08,57.329999999609,5,2,564.08999999985,0.0,1,object_01,1,1514,0,0,4,library_2,2,memory-2step-stake-s,681,3737838,0.0-19.0-0.1-0.182,A33XAJW8WGY3O9,31KPKEKW5DTYWQJ2Z73D1GA4ZNDB00,3A4TN5196OYV3EFY1HBV7CBQX1DHCA,6,5
183,4,object_06,object_05,886.38500000164,7,2,238.56000000145,0.1111111111111111,1,object_01,1,1515,0,1,4,restaurant_4,2,memory-2step-stake-s,682,3745447,0.0-19.0-0.1-0.183,A33XAJW8WGY3O9,31KPKEKW5DTYWQJ2Z73D1GA4ZNDB00,3A4TN5196OYV3EFY1HBV7CBQX1DHCA,8,7
184,1,object_02,object_10,594.78500000108,1,1,236.53500000015,0.4444444444444444,1,object_01,5,1535,0,4,6,desert_6,2,memory-2step-stake-s,683,3753377,0.0-19.0-0.1-0.184,A33XAJW8WGY3O9,31KPKEKW5DTYWQJ2Z73D1GA4ZNDB00,3A4TN5196OYV3EFY1HBV7CBQX1DHCA,1,2
185,3,object_08,object_07,445.81000000099,5,1,1008.319999997,0.4444444444444444,1,object_01,1,1539,0,4,8,library_1,2,memory-2step-stake-s,684,3762079,0.0-19.0-0.1-0.185,A33XAJW8WGY3O9,31KPKEKW5DTYWQJ2Z73D1GA4ZNDB00,3A4TN5196OYV3EFY1HBV7CBQX1DHCA,5,6
186,1,object_02,object_10,831.1549999998,1,1,584.6949999975,0.3333333333333333,1,object_01,5,1554,0,3,7,desert_3,2,memory-2step-stake-s,685,3770257,0.0-19.0-0.1-0.186,A33XAJW8WGY3O9,31KPKEKW5DTYWQJ2Z73D1GA4ZNDB00,3A4TN5196OYV3EFY1HBV7CBQX1DHCA,1,2
187,3,object_08,object_07,336.62000000151,6,2,463.32499999693,0.5555555555555556,2,object_09,1,1559,0,4,5,library_2,2,memory-2step-stake-s,686,3778536,0.0-19.0-0.1-0.187,A33XAJW8WGY3O9,31KPKEKW5DTYWQJ2Z73D1GA4ZNDB00,3A4TN5196OYV3EFY1HBV7CBQX1DHCA,5,6
188,2,object_04,object_03,534.79000000143,3,2,414.6799999983,0.3333333333333333,1,object_01,5,1574,0,3,2,forest_2,2,memory-2step-stake-s,687,3786561,0.0-19.0-0.1-0.188,A33XAJW8WGY3O9,31KPKEKW5DTYWQJ2Z73D1GA4ZNDB00,3A4TN5196OYV3EFY1HBV7CBQX1DHCA,4,3
189,4,object_05,object_06,658.20499999961,7,1,675.9449999989,0.7777777777777778,1,object_01,5,1609,0,7,2,restaurant_3,2,memory-2step-stake-s,688,3795307,0.0-19.0-0.1-0.189,A33XAJW8WGY3O9,31KPKEKW5DTYWQJ2Z73D1GA4ZNDB00,3A4TN5196OYV3EFY1HBV7CBQX1DHCA,7,8
190,3,object_07,object_08,329.30499999924,6,1,425.625,0.1111111111111111,2,object_09,1,1610,0,8,1,library_6,2,memory-2step-stake-s,689,3803104,0.0-19.0-0.1-0.190,A33XAJW8WGY3O9,31KPKEKW5DTYWQJ2Z73D1GA4ZNDB00,3A4TN5196OYV3EFY1HBV7CBQX1DHCA,6,5
191,1,object_10,object_02,1032.4750000001,1,2,416.66500000097,0.7777777777777778,1,object_01,5,1645,0,7,5,desert_7,2,memory-2step-stake-s,690,3811573,0.0-19.0-0.1-0.191,A33XAJW8WGY3O9,31KPKEKW5DTYWQJ2Z73D1GA4ZNDB00,3A4TN5196OYV3EFY1HBV7CBQX1DHCA,2,1
192,4,object_05,object_06,298.61999999778,7,1,375.56000000052,0.5555555555555556,1,object_01,1,1650,0,5,4,restaurant_4,2,memory-2step-stake-s,691,3819786,0.0-19.0-0.1-0.192,A33XAJW8WGY3O9,31KPKEKW5DTYWQJ2Z73D1GA4ZNDB00,3A4TN5196OYV3EFY1HBV7CBQX1DHCA,7,8
193,1,object_10,object_02,531.91499999957,2,1,620.17499999981,0.6666666666666666,2,object_09,1,1656,0,5,6,desert_7,2,memory-2step-stake-s,692,3828333,0.0-19.0-0.1-0.193,A33XAJW8WGY3O9,31KPKEKW5DTYWQJ2Z73D1GA4ZNDB00,3A4TN5196OYV3EFY1HBV7CBQX1DHCA,2,1
194,2,object_03,object_04,976.4450000003,3,1,419.6350000021,0.5555555555555556,1,object_01,5,1681,0,5,5,forest_8,2,memory-2step-stake-s,693,3836574,0.0-19.0-0.1-0.194,A33XAJW8WGY3O9,31KPKEKW5DTYWQJ2Z73D1GA4ZNDB00,3A4TN5196OYV3EFY1HBV7CBQX1DHCA,3,4
195,1,object_02,object_10,483.30999999959,1,1,185.36999999918,0.0,1,object_01,1,1681,0,0,4,desert_7,2,memory-2step-stake-s,694,3844046,0.0-19.0-0.1-0.195,A33XAJW8WGY3O9,31KPKEKW5DTYWQJ2Z73D1GA4ZNDB00,3A4TN5196OYV3EFY1HBV7CBQX1DHCA,1,2
196,4,object_06,object_05,366.65999999968,7,2,116.20000000065,0.0,1,object_01,1,1681,0,0,6,restaurant_5,2,memory-2step-stake-s,695,3851434,0.0-19.0-0.1-0.196,A33XAJW8WGY3O9,31KPKEKW5DTYWQJ2Z73D1GA4ZNDB00,3A4TN5196OYV3EFY1HBV7CBQX1DHCA,8,7
197,2,object_03,object_04,358.57500000205,3,1,511.50499999849,0.1111111111111111,1,object_01,5,1686,0,1,4,forest_2,2,memory-2step-stake-s,696,3859330,0.0-19.0-0.1-0.197,A33XAJW8WGY3O9,31KPKEKW5DTYWQJ2Z73D1GA4ZNDB00,3A4TN5196OYV3EFY1HBV7CBQX1DHCA,3,4
198,3,object_07,object_08,551.69000000041,6,1,527.93999999994,0.3333333333333333,2,object_09,5,1701,0,5,3,library_6,2,memory-2step-stake-s,697,3867477,0.0-19.0-0.1-0.198,A33XAJW8WGY3O9,31KPKEKW5DTYWQJ2Z73D1GA4ZNDB00,3A4TN5196OYV3EFY1HBV7CBQX1DHCA,6,5
199,4,object_05,object_06,282.65500000259,7,1,414.27000000142,0.5555555555555556,1,object_01,1,1706,0,5,4,restaurant_3,2,memory-2step-stake-s,698,3875732,0.0-19.0-0.1-0.199,A33XAJW8WGY3O9,31KPKEKW5DTYWQJ2Z73D1GA4ZNDB00,3A4TN5196OYV3EFY1HBV7CBQX1DHCA,7,8
200,4,object_05,object_06,310.64500000142,8,2,451.20000000345,0.3333333333333333,2,object_09,1,1709,0,6,3,restaurant_4,2,memory-2step-stake-s,699,3883794,0.0-19.0-0.1-0.200,A33XAJW8WGY3O9,31KPKEKW5DTYWQJ2Z73D1GA4ZNDB00,3A4TN5196OYV3EFY1HBV7CBQX1DHCA,7,8
201,2,object_03,object_04,724.20499999821,4,2,395.42000000086,0.2222222222222222,2,object_09,5,1719,0,5,2,forest_4,2,memory-2step-stake-s,700,3891685,0.0-19.0-0.1-0.201,A33XAJW8WGY3O9,31KPKEKW5DTYWQJ2Z73D1GA4ZNDB00,3A4TN5196OYV3EFY1HBV7CBQX1DHCA,3,4
202,2,object_03,object_04,499.66499999911,3,1,368.98999999929,0.3333333333333333,1,object_01,5,1734,0,3,2,forest_4,2,memory-2step-stake-s,701,3899653,0.0-19.0-0.1-0.202,A33XAJW8WGY3O9,31KPKEKW5DTYWQJ2Z73D1GA4ZNDB00,3A4TN5196OYV3EFY1HBV7CBQX1DHCA,3,4
203,4,object_05,object_06,644.4450000017,7,1,111.58500000276,0.1111111111111111,1,object_01,1,1735,0,1,3,restaurant_4,2,memory-2step-stake-s,702,3907147,0.0-19.0-0.1-0.203,A33XAJW8WGY3O9,31KPKEKW5DTYWQJ2Z73D1GA4ZNDB00,3A4TN5196OYV3EFY1HBV7CBQX1DHCA,7,8
204,2,object_04,object_03,1437.305000003,4,1,528.22999999998,0.5555555555555556,2,object_09,5,1760,0,0,5,forest_4,2,memory-2step-stake-s,703,3915473,0.0-19.0-0.1-0.204,A33XAJW8WGY3O9,31KPKEKW5DTYWQJ2Z73D1GA4ZNDB00,3A4TN5196OYV3EFY1HBV7CBQX1DHCA,4,3
205,2,object_03,object_04,-1.0,-1,-1,-1.0,0.0,-,0,5,1760,0,2,6,forest_6,2,memory-2step-stake-s,704,3922045,0.0-19.0-0.1-0.205,A33XAJW8WGY3O9,31KPKEKW5DTYWQJ2Z73D1GA4ZNDB00,3A4TN5196OYV3EFY1HBV7CBQX1DHCA,3,4
206,1,object_02,object_10,-1.0,-1,-1,-1.0,0.0,-,0,5,1760,0,8,6,desert_6,2,memory-2step-stake-s,705,3928612,0.0-19.0-0.1-0.206,A33XAJW8WGY3O9,31KPKEKW5DTYWQJ2Z73D1GA4ZNDB00,3A4TN5196OYV3EFY1HBV7CBQX1DHCA,1,2
207,4,object_06,object_05,-1.0,-1,-1,-1.0,0.0,-,0,5,1760,0,7,5,restaurant_1,2,memory-2step-stake-s,706,3935161,0.0-19.0-0.1-0.207,A33XAJW8WGY3O9,31KPKEKW5DTYWQJ2Z73D1GA4ZNDB00,3A4TN5196OYV3EFY1HBV7CBQX1DHCA,8,7
208,4,object_05,object_06,969.59000000078,7,1,189.51000000024,0.6666666666666666,1,object_01,5,1790,0,6,5,restaurant_4,2,memory-2step-stake-s,707,3943304,0.0-19.0-0.1-0.208,A33XAJW8WGY3O9,31KPKEKW5DTYWQJ2Z73D1GA4ZNDB00,3A4TN5196OYV3EFY1HBV7CBQX1DHCA,7,8
209,1,object_10,object_02,424.59999999823,2,1,-1.0,0.0,2,object_09,5,1790,0,5,7,desert_3,2,memory-2step-stake-s,708,3951894,0.0-19.0-0.1-0.209,A33XAJW8WGY3O9,31KPKEKW5DTYWQJ2Z73D1GA4ZNDB00,3A4TN5196OYV3EFY1HBV7CBQX1DHCA,2,1
210,4,object_05,object_06,486.24500000011,7,1,584.10000000009,0.6666666666666666,1,object_01,1,1796,0,6,8,restaurant_3,2,memory-2step-stake-s,709,3960423,0.0-19.0-0.1-0.210,A33XAJW8WGY3O9,31KPKEKW5DTYWQJ2Z73D1GA4ZNDB00,3A4TN5196OYV3EFY1HBV7CBQX1DHCA,7,8
211,3,object_07,object_08,277.91000000061,6,1,929.83499999903,0.8888888888888888,2,object_09,1,1804,0,4,8,library_3,2,memory-2step-stake-s,710,3969514,0.0-19.0-0.1-0.211,A33XAJW8WGY3O9,31KPKEKW5DTYWQJ2Z73D1GA4ZNDB00,3A4TN5196OYV3EFY1HBV7CBQX1DHCA,6,5
212,1,object_10,object_02,0.25500000268221,2,1,285.64000000199,0.8888888888888888,2,object_09,5,1844,0,3,8,desert_7,2,memory-2step-stake-s,711,3977981,0.0-19.0-0.1-0.212,A33XAJW8WGY3O9,31KPKEKW5DTYWQJ2Z73D1GA4ZNDB00,3A4TN5196OYV3EFY1HBV7CBQX1DHCA,2,1
213,1,object_10,object_02,372.52499999851,2,1,636.91000000108,0.8888888888888888,2,object_09,5,1884,0,4,8,desert_6,2,memory-2step-stake-s,712,3986806,0.0-19.0-0.1-0.213,A33XAJW8WGY3O9,31KPKEKW5DTYWQJ2Z73D1GA4ZNDB00,3A4TN5196OYV3EFY1HBV7CBQX1DHCA,2,1
214,3,object_08,object_07,137.19999999739,5,1,528.47000000114,0.5555555555555556,1,object_01,5,1909,0,5,8,library_3,2,memory-2step-stake-s,713,3995196,0.0-19.0-0.1-0.214,A33XAJW8WGY3O9,31KPKEKW5DTYWQJ2Z73D1GA4ZNDB00,3A4TN5196OYV3EFY1HBV7CBQX1DHCA,5,6
215,2,object_04,object_03,442.88000000268,4,1,86.979999999981,0.7777777777777778,2,object_09,1,1916,0,3,7,forest_8,2,memory-2step-stake-s,714,4003299,0.0-19.0-0.1-0.215,A33XAJW8WGY3O9,31KPKEKW5DTYWQJ2Z73D1GA4ZNDB00,3A4TN5196OYV3EFY1HBV7CBQX1DHCA,4,3
216,3,object_08,object_07,367.95499999775,5,1,392.81000000145,0.3333333333333333,1,object_01,5,1931,0,3,5,library_1,2,memory-2step-stake-s,715,4011330,0.0-19.0-0.1-0.216,A33XAJW8WGY3O9,31KPKEKW5DTYWQJ2Z73D1GA4ZNDB00,3A4TN5196OYV3EFY1HBV7CBQX1DHCA,5,6
217,1,object_02,object_10,425.96000000043,1,1,456.14500000002,0.4444444444444444,1,object_01,5,1951,0,4,5,desert_8,2,memory-2step-stake-s,716,4019507,0.0-19.0-0.1-0.217,A33XAJW8WGY3O9,31KPKEKW5DTYWQJ2Z73D1GA4ZNDB00,3A4TN5196OYV3EFY1HBV7CBQX1DHCA,1,2
218,3,object_07,object_08,755.28500000248,6,1,171.6900000032,0.2222222222222222,2,object_09,5,1961,0,1,2,library_3,2,memory-2step-stake-s,717,4027173,0.0-19.0-0.1-0.218,A33XAJW8WGY3O9,31KPKEKW5DTYWQJ2Z73D1GA4ZNDB00,3A4TN5196OYV3EFY1HBV7CBQX1DHCA,6,5
219,4,object_06,object_05,366.06500000181,8,1,409.27499999804,0.2222222222222222,2,object_09,1,1963,0,2,2,restaurant_3,2,memory-2step-stake-s,718,4035080,0.0-19.0-0.1-0.219,A33XAJW8WGY3O9,31KPKEKW5DTYWQJ2Z73D1GA4ZNDB00,3A4TN5196OYV3EFY1HBV7CBQX1DHCA,8,7
220,3,object_07,object_08,461.67499999888,6,1,817.71000000322,0.1111111111111111,2,object_09,1,1964,0,1,1,library_1,2,memory-2step-stake-s,719,4043299,0.0-19.0-0.1-0.220,A33XAJW8WGY3O9,31KPKEKW5DTYWQJ2Z73D1GA4ZNDB00,3A4TN5196OYV3EFY1HBV7CBQX1DHCA,6,5
221,3,object_08,object_07,300.99499999778,5,1,436.95499999728,0.2222222222222222,1,object_01,1,1966,0,2,0,library_2,2,memory-2step-stake-s,720,4051246,0.0-19.0-0.1-0.221,A33XAJW8WGY3O9,31KPKEKW5DTYWQJ2Z73D1GA4ZNDB00,3A4TN5196OYV3EFY1HBV7CBQX1DHCA,5,6
222,2,object_03,object_04,427.92000000179,3,1,172.75499999942,0.2222222222222222,1,object_01,5,1976,0,2,1,forest_4,2,memory-2step-stake-s,721,4058906,0.0-19.0-0.1-0.222,A33XAJW8WGY3O9,31KPKEKW5DTYWQJ2Z73D1GA4ZNDB00,3A4TN5196OYV3EFY1HBV7CBQX1DHCA,3,4
223,4,object_06,object_05,266.05500000017,8,1,399.88000000082,0.4444444444444444,2,object_09,5,1996,0,4,4,restaurant_4,2,memory-2step-stake-s,722,4067035,0.0-19.0-0.1-0.223,A33XAJW8WGY3O9,31KPKEKW5DTYWQJ2Z73D1GA4ZNDB00,3A4TN5196OYV3EFY1HBV7CBQX1DHCA,8,7
224,4,object_05,object_06,245.29500000039,7,1,451.80500000063,0.6666666666666666,1,object_01,1,2002,0,6,6,restaurant_5,2,memory-2step-stake-s,723,4075418,0.0-19.0-0.1-0.224,A33XAJW8WGY3O9,31KPKEKW5DTYWQJ2Z73D1GA4ZNDB00,3A4TN5196OYV3EFY1HBV7CBQX1DHCA,7,8
225,2,object_03,object_04,476.74500000011,3,1,444.79000000143,0.6666666666666666,1,object_01,5,2032,0,6,7,forest_8,2,memory-2step-stake-s,724,4083802,0.0-19.0-0.1-0.225,A33XAJW8WGY3O9,31KPKEKW5DTYWQJ2Z73D1GA4ZNDB00,3A4TN5196OYV3EFY1HBV7CBQX1DHCA,3,4
226,4,object_05,object_06,39.469999999739,7,1,-1.0,0.0,1,object_01,1,2032,0,6,5,restaurant_4,2,memory-2step-stake-s,725,4092353,0.0-19.0-0.1-0.226,A33XAJW8WGY3O9,31KPKEKW5DTYWQJ2Z73D1GA4ZNDB00,3A4TN5196OYV3EFY1HBV7CBQX1DHCA,7,8
227,1,object_02,object_10,320.24499999918,1,1,-1.0,0.0,1,object_01,5,2032,0,4,7,desert_8,2,memory-2step-stake-s,726,4100941,0.0-19.0-0.1-0.227,A33XAJW8WGY3O9,31KPKEKW5DTYWQJ2Z73D1GA4ZNDB00,3A4TN5196OYV3EFY1HBV7CBQX1DHCA,1,2
228,2,object_04,object_03,32.00500000082,4,1,23.840000001714,0.6666666666666666,2,object_09,5,2062,0,2,6,forest_4,2,memory-2step-stake-s,727,4108898,0.0-19.0-0.1-0.228,A33XAJW8WGY3O9,31KPKEKW5DTYWQJ2Z73D1GA4ZNDB00,3A4TN5196OYV3EFY1HBV7CBQX1DHCA,4,3
229,4,object_06,object_05,564.74499999965,8,1,577.68500000052,0.3333333333333333,2,object_09,1,2065,0,3,3,restaurant_4,2,memory-2step-stake-s,728,4117103,0.0-19.0-0.1-0.229,A33XAJW8WGY3O9,31KPKEKW5DTYWQJ2Z73D1GA4ZNDB00,3A4TN5196OYV3EFY1HBV7CBQX1DHCA,8,7
230,1,object_02,object_10,289.55499999924,2,2,792.07999999914,0.2222222222222222,2,object_09,5,2075,0,3,2,desert_6,2,memory-2step-stake-s,729,4125414,0.0-19.0-0.1-0.230,A33XAJW8WGY3O9,31KPKEKW5DTYWQJ2Z73D1GA4ZNDB00,3A4TN5196OYV3EFY1HBV7CBQX1DHCA,1,2
231,1,object_02,object_10,401.02499999944,1,1,188.58000000147,0.4444444444444444,1,object_01,5,2095,0,4,1,desert_7,2,memory-2step-stake-s,730,4133329,0.0-19.0-0.1-0.231,A33XAJW8WGY3O9,31KPKEKW5DTYWQJ2Z73D1GA4ZNDB00,3A4TN5196OYV3EFY1HBV7CBQX1DHCA,1,2
232,4,object_06,object_05,303.72499999823,8,1,568.0400000019,0.3333333333333333,2,object_09,1,2098,0,5,3,restaurant_5,2,memory-2step-stake-s,731,4141495,0.0-19.0-0.1-0.232,A33XAJW8WGY3O9,31KPKEKW5DTYWQJ2Z73D1GA4ZNDB00,3A4TN5196OYV3EFY1HBV7CBQX1DHCA,8,7
233,4,object_05,object_06,431.52999999793,7,1,534.35000000196,0.4444444444444444,1,object_01,1,2102,0,4,2,restaurant_4,2,memory-2step-stake-s,732,4149757,0.0-19.0-0.1-0.233,A33XAJW8WGY3O9,31KPKEKW5DTYWQJ2Z73D1GA4ZNDB00,3A4TN5196OYV3EFY1HBV7CBQX1DHCA,7,8
234,3,object_07,object_08,444.57500000158,6,1,495.36499999883,0.3333333333333333,2,object_09,1,2105,0,5,3,library_1,2,memory-2step-stake-s,733,4157847,0.0-19.0-0.1-0.234,A33XAJW8WGY3O9,31KPKEKW5DTYWQJ2Z73D1GA4ZNDB00,3A4TN5196OYV3EFY1HBV7CBQX1DHCA,6,5
235,3,object_08,object_07,334.9700000002,5,1,540.44499999844,0.5555555555555556,1,object_01,1,2110,0,5,4,library_6,2,memory-2step-stake-s,734,4166213,0.0-19.0-0.1-0.235,A33XAJW8WGY3O9,31KPKEKW5DTYWQJ2Z73D1GA4ZNDB00,3A4TN5196OYV3EFY1HBV7CBQX1DHCA,5,6
236,2,object_03,object_04,347.52500000084,3,1,446.83500000229,0.3333333333333333,1,object_01,1,2113,0,3,5,forest_2,2,memory-2step-stake-s,735,4174261,0.0-19.0-0.1-0.236,A33XAJW8WGY3O9,31KPKEKW5DTYWQJ2Z73D1GA4ZNDB00,3A4TN5196OYV3EFY1HBV7CBQX1DHCA,3,4
237,1,object_02,object_10,-1.0,-1,-1,-1.0,0.0,-,0,5,2113,0,4,1,desert_8,2,memory-2step-stake-s,736,4181388,0.0-19.0-0.1-0.237,A33XAJW8WGY3O9,31KPKEKW5DTYWQJ2Z73D1GA4ZNDB00,3A4TN5196OYV3EFY1HBV7CBQX1DHCA,1,2
238,1,object_02,object_10,-1.0,-1,-1,-1.0,0.0,-,0,5,2113,0,4,0,desert_3,2,memory-2step-stake-s,737,4188374,0.0-19.0-0.1-0.238,A33XAJW8WGY3O9,31KPKEKW5DTYWQJ2Z73D1GA4ZNDB00,3A4TN5196OYV3EFY1HBV7CBQX1DHCA,1,2
239,3,object_07,object_08,5.9750000005588,6,1,630.77000000048,0.2222222222222222,2,object_09,1,2115,0,6,2,library_2,2,memory-2step-stake-s,738,4196491,0.0-19.0-0.1-0.239,A33XAJW8WGY3O9,31KPKEKW5DTYWQJ2Z73D1GA4ZNDB00,3A4TN5196OYV3EFY1HBV7CBQX1DHCA,6,5
240,3,object_08,object_07,-1.0,-1,-1,-1.0,0.0,-,0,1,2115,0,7,3,library_3,2,memory-2step-stake-s,739,4203037,0.0-19.0-0.1-0.240,A33XAJW8WGY3O9,31KPKEKW5DTYWQJ2Z73D1GA4ZNDB00,3A4TN5196OYV3EFY1HBV7CBQX1DHCA,5,6
241,2,object_04,object_03,-1.0,-1,-1,-1.0,0.0,-,0,5,2115,0,4,3,forest_4,2,memory-2step-stake-s,740,4209608,0.0-19.0-0.1-0.241,A33XAJW8WGY3O9,31KPKEKW5DTYWQJ2Z73D1GA4ZNDB00,3A4TN5196OYV3EFY1HBV7CBQX1DHCA,4,3
242,2,object_03,object_04,455.12999999803,3,1,754.1799999997,0.3333333333333333,1,object_01,5,2130,0,3,2,forest_8,2,memory-2step-stake-s,741,4217994,0.0-19.0-0.1-0.242,A33XAJW8WGY3O9,31KPKEKW5DTYWQJ2Z73D1GA4ZNDB00,3A4TN5196OYV3EFY1HBV7CBQX1DHCA,3,4
243,3,object_08,object_07,565.54000000004,5,1,902.37499999814,1.0,1,object_01,1,2139,0,9,1,library_6,2,memory-2step-stake-s,742,4227154,0.0-19.0-0.1-0.243,A33XAJW8WGY3O9,31KPKEKW5DTYWQJ2Z73D1GA4ZNDB00,3A4TN5196OYV3EFY1HBV7CBQX1DHCA,5,6
244,3,object_07,object_08,413.30999999959,6,1,109.2099999981,0.3333333333333333,2,object_09,5,2154,0,9,3,library_1,2,memory-2step-stake-s,743,4234852,0.0-19.0-0.1-0.244,A33XAJW8WGY3O9,31KPKEKW5DTYWQJ2Z73D1GA4ZNDB00,3A4TN5196OYV3EFY1HBV7CBQX1DHCA,6,5
245,3,object_07,object_08,573.99499999918,6,1,470.00499999989,0.0,2,object_09,1,2154,0,8,0,library_3,2,memory-2step-stake-s,744,4242580,0.0-19.0-0.1-0.245,A33XAJW8WGY3O9,31KPKEKW5DTYWQJ2Z73D1GA4ZNDB00,3A4TN5196OYV3EFY1HBV7CBQX1DHCA,6,5
246,3,object_07,object_08,319.12000000011,6,1,593.02000000048,0.3333333333333333,2,object_09,1,2157,0,5,3,library_1,2,memory-2step-stake-s,745,4250766,0.0-19.0-0.1-0.246,A33XAJW8WGY3O9,31KPKEKW5DTYWQJ2Z73D1GA4ZNDB00,3A4TN5196OYV3EFY1HBV7CBQX1DHCA,6,5
247,1,object_02,object_10,532.32500000019,2,2,88.205000000075,0.3333333333333333,2,object_09,5,2172,0,7,3,desert_6,2,memory-2step-stake-s,746,4258479,0.0-19.0-0.1-0.247,A33XAJW8WGY3O9,31KPKEKW5DTYWQJ2Z73D1GA4ZNDB00,3A4TN5196OYV3EFY1HBV7CBQX1DHCA,1,2
248,2,object_03,object_04,553.72999999952,3,1,229.26999999955,0.7777777777777778,1,object_01,5,2207,0,7,4,forest_4,2,memory-2step-stake-s,747,4266743,0.0-19.0-0.1-0.248,A33XAJW8WGY3O9,31KPKEKW5DTYWQJ2Z73D1GA4ZNDB00,3A4TN5196OYV3EFY1HBV7CBQX1DHCA,3,4
249,1,object_10,object_02,747.8599999994,2,1,573.74500000104,0.1111111111111111,2,object_09,5,2212,0,8,1,desert_7,2,memory-2step-stake-s,748,4274706,0.0-19.0-0.1-0.249,A33XAJW8WGY3O9,31KPKEKW5DTYWQJ2Z73D1GA4ZNDB00,3A4TN5196OYV3EFY1HBV7CBQX1DHCA,2,1
250,3,object_07,object_08,468.10500000045,6,1,-1.0,0.0,2,object_09,1,2212,0,6,1,library_1,2,memory-2step-stake-s,749,4283278,0.0-19.0-0.1-0.250,A33XAJW8WGY3O9,31KPKEKW5DTYWQJ2Z73D1GA4ZNDB00,3A4TN5196OYV3EFY1HBV7CBQX1DHCA,6,5
251,1,object_02,object_10,314.67500000168,1,1,442.20000000112,0.6666666666666666,1,object_01,5,2242,0,6,1,desert_3,2,memory-2step-stake-s,750,4291637,0.0-19.0-0.1-0.251,A33XAJW8WGY3O9,31KPKEKW5DTYWQJ2Z73D1GA4ZNDB00,3A4TN5196OYV3EFY1HBV7CBQX1DHCA,1,2
252,1,object_02,object_10,96.544999999925,2,2,514.46500000078,0.1111111111111111,2,object_09,5,2247,0,4,1,desert_3,2,memory-2step-stake-s,751,4299559,0.0-19.0-0.1-0.252,A33XAJW8WGY3O9,31KPKEKW5DTYWQJ2Z73D1GA4ZNDB00,3A4TN5196OYV3EFY1HBV7CBQX1DHCA,1,2
253,4,object_05,object_06,567.24499999825,8,2,95.929999998771,0.2222222222222222,2,object_09,1,2249,0,3,2,restaurant_3,2,memory-2step-stake-s,752,4307168,0.0-19.0-0.1-0.253,A33XAJW8WGY3O9,31KPKEKW5DTYWQJ2Z73D1GA4ZNDB00,3A4TN5196OYV3EFY1HBV7CBQX1DHCA,7,8
254,4,object_05,object_06,432.53999999817,8,2,136.85500000045,0.3333333333333333,2,object_09,1,2252,0,4,3,restaurant_5,2,memory-2step-stake-s,753,4314926,0.0-19.0-0.1-0.254,A33XAJW8WGY3O9,31KPKEKW5DTYWQJ2Z73D1GA4ZNDB00,3A4TN5196OYV3EFY1HBV7CBQX1DHCA,7,8
255,4,object_06,object_05,362.87999999989,8,1,197.73000000045,0.5555555555555556,2,object_09,5,2277,0,3,5,restaurant_5,2,memory-2step-stake-s,754,4322957,0.0-19.0-0.1-0.255,A33XAJW8WGY3O9,31KPKEKW5DTYWQJ2Z73D1GA4ZNDB00,3A4TN5196OYV3EFY1HBV7CBQX1DHCA,8,7
