,state1,stim_left,stim_right,rt_1,choice1,response1,rt_2,points,state2,stim_state2,stake,score,practice,rews1,rews2,background,high_arm,trial_type,trial_index,time_elapsed,internal_node_id,subid,hitid,assignmentid,stim_left_num,stim_right_num
0,1,object_09,object_01,1208.3000000715,2,2,920.60000002384,0.8888888888888888,2,object_02,1,8,0,4,8,desert_7,1,memory-2step-stake-s,492,899405,0.0-19.0-0.0-0.0,A3KFFIBJZVM0J2,3HRWUH63RXIZS6U0Z3EY966PXK25N4,3EF8EXOTT5B77H0Q9KPW2T8E6WSJ1T,1,2
1,3,object_03,object_07,1085.8999999762,5,2,794.70000004768,0.6666666666666666,1,object_10,5,38,0,6,6,library_6,1,memory-2step-stake-s,493,908089,0.0-19.0-0.0-0.1,A3KFFIBJZVM0J2,3HRWUH63RXIZS6U0Z3EY966PXK25N4,3EF8EXOTT5B77H0Q9KPW2T8E6WSJ1T,6,5
2,1,object_09,object_01,703.20000004768,2,2,400.30000007153,0.5555555555555556,2,object_02,1,43,0,9,5,desert_3,1,memory-2step-stake-s,494,916288,0.0-19.0-0.0-0.2,A3KFFIBJZVM0J2,3HRWUH63RXIZS6U0Z3EY966PXK25N4,3EF8EXOTT5B77H0Q9KPW2T8E6WSJ1T,1,2
3,4,object_08,object_06,1148.6000000238,8,2,735.70000004768,0.5555555555555556,2,object_02,5,68,0,5,5,restaurant_4,1,memory-2step-stake-s,495,924800,0.0-19.0-0.0-0.3,A3KFFIBJZVM0J2,3HRWUH63RXIZS6U0Z3EY966PXK25N4,3EF8EXOTT5B77H0Q9KPW2T8E6WSJ1T,7,8
4,3,object_07,object_03,609.60000002384,5,1,446.0,1.0,1,object_10,5,113,0,9,4,library_6,1,memory-2step-stake-s,496,934241,0.0-19.0-0.0-0.4,A3KFFIBJZVM0J2,3HRWUH63RXIZS6U0Z3EY966PXK25N4,3EF8EXOTT5B77H0Q9KPW2T8E6WSJ1T,5,6
5,2,object_05,object_04,719.30000007153,3,2,398.59999990463,0.7777777777777778,1,object_10,1,120,0,7,3,forest_6,1,memory-2step-stake-s,497,942636,0.0-19.0-0.0-0.5,A3KFFIBJZVM0J2,3HRWUH63RXIZS6U0Z3EY966PXK25N4,3EF8EXOTT5B77H0Q9KPW2T8E6WSJ1T,4,3
6,2,object_04,object_05,730.89999997616,3,1,359.89999997616,0.7777777777777778,1,object_10,1,127,0,7,3,forest_7,1,memory-2step-stake-s,498,950993,0.0-19.0-0.0-0.6,A3KFFIBJZVM0J2,3HRWUH63RXIZS6U0Z3EY966PXK25N4,3EF8EXOTT5B77H0Q9KPW2T8E6WSJ1T,3,4
7,1,object_01,object_09,774.0,2,1,555.20000004768,0.4444444444444444,2,object_02,1,131,0,7,4,desert_8,1,memory-2step-stake-s,499,959218,0.0-19.0-0.0-0.7,A3KFFIBJZVM0J2,3HRWUH63RXIZS6U0Z3EY966PXK25N4,3EF8EXOTT5B77H0Q9KPW2T8E6WSJ1T,2,1
8,1,object_09,object_01,597.60000002384,2,2,417.10000002384,0.7777777777777778,2,object_02,1,138,0,8,7,desert_7,1,memory-2step-stake-s,500,967614,0.0-19.0-0.0-0.8,A3KFFIBJZVM0J2,3HRWUH63RXIZS6U0Z3EY966PXK25N4,3EF8EXOTT5B77H0Q9KPW2T8E6WSJ1T,1,2
9,2,object_05,object_04,627.5,3,2,341.79999995232,0.6666666666666666,1,object_10,5,168,0,6,5,forest_6,1,memory-2step-stake-s,501,975860,0.0-19.0-0.0-0.9,A3KFFIBJZVM0J2,3HRWUH63RXIZS6U0Z3EY966PXK25N4,3EF8EXOTT5B77H0Q9KPW2T8E6WSJ1T,4,3
10,1,object_09,object_01,526.5,2,2,306.10000002384,0.7777777777777778,2,object_02,1,175,0,5,7,desert_3,1,memory-2step-stake-s,502,984135,0.0-19.0-0.0-0.10,A3KFFIBJZVM0J2,3HRWUH63RXIZS6U0Z3EY966PXK25N4,3EF8EXOTT5B77H0Q9KPW2T8E6WSJ1T,1,2
11,3,object_03,object_07,625.89999997616,5,2,358.79999995232,0.5555555555555556,1,object_10,5,200,0,5,6,library_7,1,memory-2step-stake-s,503,992262,0.0-19.0-0.0-0.11,A3KFFIBJZVM0J2,3HRWUH63RXIZS6U0Z3EY966PXK25N4,3EF8EXOTT5B77H0Q9KPW2T8E6WSJ1T,6,5
12,3,object_07,object_03,689.70000004768,5,1,471.20000004768,0.6666666666666666,1,object_10,5,230,0,6,7,library_4,1,memory-2step-stake-s,504,1000605,0.0-19.0-0.0-0.12,A3KFFIBJZVM0J2,3HRWUH63RXIZS6U0Z3EY966PXK25N4,3EF8EXOTT5B77H0Q9KPW2T8E6WSJ1T,5,6
13,4,object_08,object_06,666.30000007153,8,2,1006.1000000238,1.0,2,object_02,5,275,0,8,9,restaurant_2,1,memory-2step-stake-s,505,1009808,0.0-19.0-0.0-0.13,A3KFFIBJZVM0J2,3HRWUH63RXIZS6U0Z3EY966PXK25N4,3EF8EXOTT5B77H0Q9KPW2T8E6WSJ1T,7,8
14,2,object_05,object_04,569.29999995232,3,2,474.40000009537,0.7777777777777778,1,object_10,1,282,0,7,8,forest_1,1,memory-2step-stake-s,506,1018272,0.0-19.0-0.0-0.14,A3KFFIBJZVM0J2,3HRWUH63RXIZS6U0Z3EY966PXK25N4,3EF8EXOTT5B77H0Q9KPW2T8E6WSJ1T,4,3
15,3,object_07,object_03,607.39999997616,5,1,360.60000002384,0.6666666666666666,1,object_10,5,312,0,6,8,library_2,1,memory-2step-stake-s,507,1026509,0.0-19.0-0.0-0.15,A3KFFIBJZVM0J2,3HRWUH63RXIZS6U0Z3EY966PXK25N4,3EF8EXOTT5B77H0Q9KPW2T8E6WSJ1T,5,6
16,1,object_01,object_09,617.39999997616,2,1,460.10000002384,0.8888888888888888,2,object_02,1,320,0,8,8,desert_3,1,memory-2step-stake-s,508,1035077,0.0-19.0-0.0-0.16,A3KFFIBJZVM0J2,3HRWUH63RXIZS6U0Z3EY966PXK25N4,3EF8EXOTT5B77H0Q9KPW2T8E6WSJ1T,2,1
17,2,object_05,object_04,638.09999990463,3,2,534.10000002384,0.8888888888888888,1,object_10,1,328,0,8,8,forest_3,1,memory-2step-stake-s,509,1043692,0.0-19.0-0.0-0.17,A3KFFIBJZVM0J2,3HRWUH63RXIZS6U0Z3EY966PXK25N4,3EF8EXOTT5B77H0Q9KPW2T8E6WSJ1T,4,3
18,2,object_04,object_05,601.29999995232,3,1,398.79999995232,1.0,1,object_10,1,337,0,9,8,forest_7,1,memory-2step-stake-s,510,1052263,0.0-19.0-0.0-0.18,A3KFFIBJZVM0J2,3HRWUH63RXIZS6U0Z3EY966PXK25N4,3EF8EXOTT5B77H0Q9KPW2T8E6WSJ1T,3,4
19,1,object_09,object_01,480.0,2,2,428.39999997616,0.6666666666666666,2,object_02,1,343,0,8,6,desert_3,1,memory-2step-stake-s,511,1060557,0.0-19.0-0.0-0.19,A3KFFIBJZVM0J2,3HRWUH63RXIZS6U0Z3EY966PXK25N4,3EF8EXOTT5B77H0Q9KPW2T8E6WSJ1T,1,2
20,3,object_03,object_07,433.90000009537,5,2,389.79999995232,0.6666666666666666,1,object_10,5,373,0,6,6,library_2,1,memory-2step-stake-s,512,1068814,0.0-19.0-0.0-0.20,A3KFFIBJZVM0J2,3HRWUH63RXIZS6U0Z3EY966PXK25N4,3EF8EXOTT5B77H0Q9KPW2T8E6WSJ1T,6,5
21,2,object_05,object_04,489.89999997616,3,2,606.59999990463,0.7777777777777778,1,object_10,1,380,0,7,7,forest_3,1,memory-2step-stake-s,513,1077397,0.0-19.0-0.0-0.21,A3KFFIBJZVM0J2,3HRWUH63RXIZS6U0Z3EY966PXK25N4,3EF8EXOTT5B77H0Q9KPW2T8E6WSJ1T,4,3
22,2,object_05,object_04,493.60000002384,3,2,437.39999997616,0.3333333333333333,1,object_10,5,395,0,3,6,forest_1,1,memory-2step-stake-s,514,1085384,0.0-19.0-0.0-0.22,A3KFFIBJZVM0J2,3HRWUH63RXIZS6U0Z3EY966PXK25N4,3EF8EXOTT5B77H0Q9KPW2T8E6WSJ1T,4,3
23,4,object_08,object_06,526.5,8,2,317.29999995232,0.5555555555555556,2,object_02,5,420,0,4,5,restaurant_1,1,memory-2step-stake-s,515,1093500,0.0-19.0-0.0-0.23,A3KFFIBJZVM0J2,3HRWUH63RXIZS6U0Z3EY966PXK25N4,3EF8EXOTT5B77H0Q9KPW2T8E6WSJ1T,7,8
24,1,object_01,object_09,532.79999995232,2,1,507.39999997616,0.7777777777777778,2,object_02,1,427,0,7,7,desert_7,1,memory-2step-stake-s,516,1101990,0.0-19.0-0.0-0.24,A3KFFIBJZVM0J2,3HRWUH63RXIZS6U0Z3EY966PXK25N4,3EF8EXOTT5B77H0Q9KPW2T8E6WSJ1T,2,1
25,2,object_04,object_05,600.29999995232,3,1,475.39999997616,0.6666666666666666,1,object_10,1,433,0,6,4,forest_1,1,memory-2step-stake-s,517,1110380,0.0-19.0-0.0-0.25,A3KFFIBJZVM0J2,3HRWUH63RXIZS6U0Z3EY966PXK25N4,3EF8EXOTT5B77H0Q9KPW2T8E6WSJ1T,3,4
26,2,object_04,object_05,483.60000002384,3,1,448.60000002384,1.0,1,object_10,1,442,0,9,2,forest_3,1,memory-2step-stake-s,518,1119004,0.0-19.0-0.0-0.26,A3KFFIBJZVM0J2,3HRWUH63RXIZS6U0Z3EY966PXK25N4,3EF8EXOTT5B77H0Q9KPW2T8E6WSJ1T,3,4
27,1,object_09,object_01,583.5,2,2,575.60000002384,0.2222222222222222,2,object_02,1,444,0,8,2,desert_3,1,memory-2step-stake-s,519,1127043,0.0-19.0-0.0-0.27,A3KFFIBJZVM0J2,3HRWUH63RXIZS6U0Z3EY966PXK25N4,3EF8EXOTT5B77H0Q9KPW2T8E6WSJ1T,1,2
28,3,object_07,object_03,671.29999995232,5,1,445.79999995232,0.7777777777777778,1,object_10,1,451,0,7,2,library_4,1,memory-2step-stake-s,520,1135456,0.0-19.0-0.0-0.28,A3KFFIBJZVM0J2,3HRWUH63RXIZS6U0Z3EY966PXK25N4,3EF8EXOTT5B77H0Q9KPW2T8E6WSJ1T,5,6
29,4,object_08,object_06,646.69999992847,8,2,378.5,0.1111111111111111,2,object_02,5,456,0,8,1,restaurant_2,1,memory-2step-stake-s,521,1143199,0.0-19.0-0.0-0.29,A3KFFIBJZVM0J2,3HRWUH63RXIZS6U0Z3EY966PXK25N4,3EF8EXOTT5B77H0Q9KPW2T8E6WSJ1T,7,8
30,3,object_03,object_07,517.5,5,2,494.0,0.5555555555555556,1,object_10,1,461,0,5,3,library_2,1,memory-2step-stake-s,522,1151487,0.0-19.0-0.0-0.30,A3KFFIBJZVM0J2,3HRWUH63RXIZS6U0Z3EY966PXK25N4,3EF8EXOTT5B77H0Q9KPW2T8E6WSJ1T,6,5
31,3,object_07,object_03,534.0,5,1,416.5,0.8888888888888888,1,object_10,1,469,0,8,6,library_4,1,memory-2step-stake-s,523,1160026,0.0-19.0-0.0-0.31,A3KFFIBJZVM0J2,3HRWUH63RXIZS6U0Z3EY966PXK25N4,3EF8EXOTT5B77H0Q9KPW2T8E6WSJ1T,5,6
32,3,object_07,object_03,554.79999995232,5,1,444.0,0.8888888888888888,1,object_10,5,509,0,8,7,library_6,1,memory-2step-stake-s,524,1168563,0.0-19.0-0.0-0.32,A3KFFIBJZVM0J2,3HRWUH63RXIZS6U0Z3EY966PXK25N4,3EF8EXOTT5B77H0Q9KPW2T8E6WSJ1T,5,6
33,2,object_05,object_04,830.0,3,2,580.0,1.0,1,object_10,1,518,0,9,5,forest_3,1,memory-2step-stake-s,525,1177316,0.0-19.0-0.0-0.33,A3KFFIBJZVM0J2,3HRWUH63RXIZS6U0Z3EY966PXK25N4,3EF8EXOTT5B77H0Q9KPW2T8E6WSJ1T,4,3
34,2,object_04,object_05,580.20000004768,3,1,347.0,0.6666666666666666,1,object_10,1,524,0,6,2,forest_6,1,memory-2step-stake-s,526,1185536,0.0-19.0-0.0-0.34,A3KFFIBJZVM0J2,3HRWUH63RXIZS6U0Z3EY966PXK25N4,3EF8EXOTT5B77H0Q9KPW2T8E6WSJ1T,3,4
35,4,object_08,object_06,437.70000004768,8,2,380.5,0.1111111111111111,2,object_02,5,529,0,8,1,restaurant_2,1,memory-2step-stake-s,527,1193272,0.0-19.0-0.0-0.35,A3KFFIBJZVM0J2,3HRWUH63RXIZS6U0Z3EY966PXK25N4,3EF8EXOTT5B77H0Q9KPW2T8E6WSJ1T,7,8
36,2,object_05,object_04,523.0,3,2,432.70000004768,0.6666666666666666,1,object_10,5,559,0,6,3,forest_3,1,memory-2step-stake-s,528,1201586,0.0-19.0-0.0-0.36,A3KFFIBJZVM0J2,3HRWUH63RXIZS6U0Z3EY966PXK25N4,3EF8EXOTT5B77H0Q9KPW2T8E6WSJ1T,4,3
37,1,object_01,object_09,549.90000009537,2,1,415.60000002384,0.1111111111111111,2,object_02,1,560,0,9,1,desert_8,1,memory-2step-stake-s,529,1209370,0.0-19.0-0.0-0.37,A3KFFIBJZVM0J2,3HRWUH63RXIZS6U0Z3EY966PXK25N4,3EF8EXOTT5B77H0Q9KPW2T8E6WSJ1T,2,1
38,4,object_08,object_06,444.5,8,2,381.5,0.0,2,object_02,5,560,0,7,0,restaurant_7,1,memory-2step-stake-s,530,1216996,0.0-19.0-0.0-0.38,A3KFFIBJZVM0J2,3HRWUH63RXIZS6U0Z3EY966PXK25N4,3EF8EXOTT5B77H0Q9KPW2T8E6WSJ1T,7,8
39,1,object_09,object_01,564.20000004768,2,2,458.10000002384,0.1111111111111111,2,object_02,5,565,0,6,1,desert_3,1,memory-2step-stake-s,531,1224815,0.0-19.0-0.0-0.39,A3KFFIBJZVM0J2,3HRWUH63RXIZS6U0Z3EY966PXK25N4,3EF8EXOTT5B77H0Q9KPW2T8E6WSJ1T,1,2
40,1,object_09,object_01,741.5,1,1,327.0,0.5555555555555556,1,object_10,1,570,0,5,3,desert_8,1,memory-2step-stake-s,532,1232919,0.0-19.0-0.0-0.40,A3KFFIBJZVM0J2,3HRWUH63RXIZS6U0Z3EY966PXK25N4,3EF8EXOTT5B77H0Q9KPW2T8E6WSJ1T,1,2
41,3,object_03,object_07,624.70000004768,6,1,319.69999992847,0.0,2,object_02,5,570,0,3,0,library_7,1,memory-2step-stake-s,533,1240514,0.0-19.0-0.0-0.41,A3KFFIBJZVM0J2,3HRWUH63RXIZS6U0Z3EY966PXK25N4,3EF8EXOTT5B77H0Q9KPW2T8E6WSJ1T,6,5
42,3,object_03,object_07,868.70000004768,5,2,312.10000002384,0.6666666666666666,1,object_10,5,600,0,6,2,library_2,1,memory-2step-stake-s,534,1248726,0.0-19.0-0.0-0.42,A3KFFIBJZVM0J2,3HRWUH63RXIZS6U0Z3EY966PXK25N4,3EF8EXOTT5B77H0Q9KPW2T8E6WSJ1T,6,5
43,4,object_08,object_06,541.90000009537,8,2,369.39999997616,0.2222222222222222,2,object_02,5,610,0,5,2,restaurant_2,1,memory-2step-stake-s,535,1256549,0.0-19.0-0.0-0.43,A3KFFIBJZVM0J2,3HRWUH63RXIZS6U0Z3EY966PXK25N4,3EF8EXOTT5B77H0Q9KPW2T8E6WSJ1T,7,8
44,2,object_05,object_04,868.5,3,2,283.60000002384,0.3333333333333333,1,object_10,5,625,0,3,1,forest_6,1,memory-2step-stake-s,536,1264419,0.0-19.0-0.0-0.44,A3KFFIBJZVM0J2,3HRWUH63RXIZS6U0Z3EY966PXK25N4,3EF8EXOTT5B77H0Q9KPW2T8E6WSJ1T,4,3
45,1,object_01,object_09,642.10000002384,2,1,559.0,0.4444444444444444,2,object_02,5,645,0,2,4,desert_7,1,memory-2step-stake-s,537,1272686,0.0-19.0-0.0-0.45,A3KFFIBJZVM0J2,3HRWUH63RXIZS6U0Z3EY966PXK25N4,3EF8EXOTT5B77H0Q9KPW2T8E6WSJ1T,2,1
46,4,object_08,object_06,838.89999997616,8,2,378.19999992847,0.3333333333333333,2,object_02,1,648,0,2,3,restaurant_1,1,memory-2step-stake-s,538,1280638,0.0-19.0-0.0-0.46,A3KFFIBJZVM0J2,3HRWUH63RXIZS6U0Z3EY966PXK25N4,3EF8EXOTT5B77H0Q9KPW2T8E6WSJ1T,7,8
47,4,object_06,object_08,733.89999997616,8,1,292.20000004768,0.1111111111111111,2,object_02,5,653,0,0,1,restaurant_7,1,memory-2step-stake-s,539,1288299,0.0-19.0-0.0-0.47,A3KFFIBJZVM0J2,3HRWUH63RXIZS6U0Z3EY966PXK25N4,3EF8EXOTT5B77H0Q9KPW2T8E6WSJ1T,8,7
48,3,object_03,object_07,764.80000007153,5,2,412.20000004768,0.2222222222222222,1,object_10,5,663,0,2,3,library_2,1,memory-2step-stake-s,540,1296187,0.0-19.0-0.0-0.48,A3KFFIBJZVM0J2,3HRWUH63RXIZS6U0Z3EY966PXK25N4,3EF8EXOTT5B77H0Q9KPW2T8E6WSJ1T,6,5
49,3,object_03,object_07,705.79999995232,5,2,372.0,0.1111111111111111,1,object_10,5,668,0,1,3,library_7,1,memory-2step-stake-s,541,1303938,0.0-19.0-0.0-0.49,A3KFFIBJZVM0J2,3HRWUH63RXIZS6U0Z3EY966PXK25N4,3EF8EXOTT5B77H0Q9KPW2T8E6WSJ1T,6,5
50,1,object_01,object_09,661.10000002384,1,2,344.20000004768,0.1111111111111111,1,object_10,1,669,0,1,3,desert_3,1,memory-2step-stake-s,542,1311624,0.0-19.0-0.0-0.50,A3KFFIBJZVM0J2,3HRWUH63RXIZS6U0Z3EY966PXK25N4,3EF8EXOTT5B77H0Q9KPW2T8E6WSJ1T,2,1
51,4,object_06,object_08,702.40000009537,8,1,322.59999990463,0.3333333333333333,2,object_02,5,684,0,2,3,restaurant_2,1,memory-2step-stake-s,543,1319494,0.0-19.0-0.0-0.51,A3KFFIBJZVM0J2,3HRWUH63RXIZS6U0Z3EY966PXK25N4,3EF8EXOTT5B77H0Q9KPW2T8E6WSJ1T,8,7
52,4,object_08,object_06,881.5,7,1,401.5,0.1111111111111111,1,object_10,5,689,0,1,4,restaurant_1,1,memory-2step-stake-s,544,1327253,0.0-19.0-0.0-0.52,A3KFFIBJZVM0J2,3HRWUH63RXIZS6U0Z3EY966PXK25N4,3EF8EXOTT5B77H0Q9KPW2T8E6WSJ1T,7,8
53,3,object_07,object_03,770.10000002384,5,1,355.89999997616,0.2222222222222222,1,object_10,1,691,0,2,8,library_6,1,memory-2step-stake-s,545,1335070,0.0-19.0-0.0-0.53,A3KFFIBJZVM0J2,3HRWUH63RXIZS6U0Z3EY966PXK25N4,3EF8EXOTT5B77H0Q9KPW2T8E6WSJ1T,5,6
54,4,object_08,object_06,849.0,8,2,301.70000004768,0.8888888888888888,2,object_02,5,731,0,3,8,restaurant_7,1,memory-2step-stake-s,546,1343493,0.0-19.0-0.0-0.54,A3KFFIBJZVM0J2,3HRWUH63RXIZS6U0Z3EY966PXK25N4,3EF8EXOTT5B77H0Q9KPW2T8E6WSJ1T,7,8
55,3,object_07,object_03,622.30000007153,5,1,337.70000004768,0.0,1,object_10,5,731,0,0,9,library_4,1,memory-2step-stake-s,547,1351092,0.0-19.0-0.0-0.55,A3KFFIBJZVM0J2,3HRWUH63RXIZS6U0Z3EY966PXK25N4,3EF8EXOTT5B77H0Q9KPW2T8E6WSJ1T,5,6
56,2,object_04,object_05,1088.7999999523,3,1,387.5,0.1111111111111111,1,object_10,5,736,0,1,8,forest_6,1,memory-2step-stake-s,548,1358821,0.0-19.0-0.0-0.56,A3KFFIBJZVM0J2,3HRWUH63RXIZS6U0Z3EY966PXK25N4,3EF8EXOTT5B77H0Q9KPW2T8E6WSJ1T,3,4
57,2,object_05,object_04,1102.2000000477,4,1,342.0,0.7777777777777778,2,object_02,1,743,0,0,7,forest_3,1,memory-2step-stake-s,549,1367152,0.0-19.0-0.0-0.57,A3KFFIBJZVM0J2,3HRWUH63RXIZS6U0Z3EY966PXK25N4,3EF8EXOTT5B77H0Q9KPW2T8E6WSJ1T,4,3
58,1,object_01,object_09,1233.6000000238,1,2,510.5,0.1111111111111111,1,object_10,1,744,0,1,6,desert_1,1,memory-2step-stake-s,550,1375036,0.0-19.0-0.0-0.58,A3KFFIBJZVM0J2,3HRWUH63RXIZS6U0Z3EY966PXK25N4,3EF8EXOTT5B77H0Q9KPW2T8E6WSJ1T,2,1
59,2,object_05,object_04,808.20000004768,4,1,311.09999990463,0.4444444444444444,2,object_02,1,748,0,0,4,forest_7,1,memory-2step-stake-s,551,1383031,0.0-19.0-0.0-0.59,A3KFFIBJZVM0J2,3HRWUH63RXIZS6U0Z3EY966PXK25N4,3EF8EXOTT5B77H0Q9KPW2T8E6WSJ1T,4,3
60,2,object_05,object_04,785.5,4,1,324.39999997616,0.5555555555555556,2,object_02,5,773,0,3,5,forest_6,1,memory-2step-stake-s,552,1391119,0.0-19.0-0.0-0.60,A3KFFIBJZVM0J2,3HRWUH63RXIZS6U0Z3EY966PXK25N4,3EF8EXOTT5B77H0Q9KPW2T8E6WSJ1T,4,3
61,4,object_06,object_08,855.89999997616,8,1,423.10000002384,0.3333333333333333,2,object_02,5,788,0,0,3,restaurant_1,1,memory-2step-stake-s,553,1399131,0.0-19.0-0.0-0.61,A3KFFIBJZVM0J2,3HRWUH63RXIZS6U0Z3EY966PXK25N4,3EF8EXOTT5B77H0Q9KPW2T8E6WSJ1T,8,7
62,2,object_05,object_04,733.79999995232,4,1,383.89999997616,0.4444444444444444,2,object_02,1,792,0,0,4,forest_6,1,memory-2step-stake-s,554,1407197,0.0-19.0-0.0-0.62,A3KFFIBJZVM0J2,3HRWUH63RXIZS6U0Z3EY966PXK25N4,3EF8EXOTT5B77H0Q9KPW2T8E6WSJ1T,4,3
63,3,object_03,object_07,732.60000002384,5,2,442.39999997616,0.3333333333333333,1,object_10,5,807,0,3,1,library_4,1,memory-2step-stake-s,555,1415224,0.0-19.0-0.0-0.63,A3KFFIBJZVM0J2,3HRWUH63RXIZS6U0Z3EY966PXK25N4,3EF8EXOTT5B77H0Q9KPW2T8E6WSJ1T,6,5
64,1,object_09,object_01,798.90000009537,1,1,422.20000004768,0.2222222222222222,1,object_10,1,809,0,2,3,desert_7,1,memory-2step-stake-s,556,1423105,0.0-19.0-0.0-0.64,A3KFFIBJZVM0J2,3HRWUH63RXIZS6U0Z3EY966PXK25N4,3EF8EXOTT5B77H0Q9KPW2T8E6WSJ1T,1,2
65,4,object_06,object_08,614.60000002384,8,1,554.20000004768,0.2222222222222222,2,object_02,5,819,0,1,2,restaurant_1,1,memory-2step-stake-s,557,1431135,0.0-19.0-0.0-0.65,A3KFFIBJZVM0J2,3HRWUH63RXIZS6U0Z3EY966PXK25N4,3EF8EXOTT5B77H0Q9KPW2T8E6WSJ1T,8,7
66,1,object_09,object_01,764.80000007153,2,2,693.09999990463,0.1111111111111111,2,object_02,1,820,0,1,1,desert_7,1,memory-2step-stake-s,558,1439195,0.0-19.0-0.0-0.66,A3KFFIBJZVM0J2,3HRWUH63RXIZS6U0Z3EY966PXK25N4,3EF8EXOTT5B77H0Q9KPW2T8E6WSJ1T,1,2
67,1,object_09,object_01,1091.2000000477,2,2,709.80000007153,0.1111111111111111,2,object_02,5,825,0,2,1,desert_8,1,memory-2step-stake-s,559,1447281,0.0-19.0-0.0-0.67,A3KFFIBJZVM0J2,3HRWUH63RXIZS6U0Z3EY966PXK25N4,3EF8EXOTT5B77H0Q9KPW2T8E6WSJ1T,1,2
68,2,object_05,object_04,678.60000002384,4,1,393.59999990463,0.3333333333333333,2,object_02,1,828,0,4,3,forest_1,1,memory-2step-stake-s,560,1455262,0.0-19.0-0.0-0.68,A3KFFIBJZVM0J2,3HRWUH63RXIZS6U0Z3EY966PXK25N4,3EF8EXOTT5B77H0Q9KPW2T8E6WSJ1T,4,3
69,1,object_09,object_01,1389.1000000238,1,1,366.10000002384,0.2222222222222222,1,object_10,5,838,0,2,3,desert_8,1,memory-2step-stake-s,561,1463102,0.0-19.0-0.0-0.69,A3KFFIBJZVM0J2,3HRWUH63RXIZS6U0Z3EY966PXK25N4,3EF8EXOTT5B77H0Q9KPW2T8E6WSJ1T,1,2
70,2,object_04,object_05,859.89999997616,4,2,571.0,0.3333333333333333,2,object_02,1,841,0,0,3,forest_1,1,memory-2step-stake-s,562,1471273,0.0-19.0-0.0-0.70,A3KFFIBJZVM0J2,3HRWUH63RXIZS6U0Z3EY966PXK25N4,3EF8EXOTT5B77H0Q9KPW2T8E6WSJ1T,3,4
71,2,object_04,object_05,665.90000009537,4,2,1340.8999999762,0.3333333333333333,2,object_02,1,844,0,3,3,forest_3,1,memory-2step-stake-s,563,1480209,0.0-19.0-0.0-0.71,A3KFFIBJZVM0J2,3HRWUH63RXIZS6U0Z3EY966PXK25N4,3EF8EXOTT5B77H0Q9KPW2T8E6WSJ1T,3,4
72,1,object_09,object_01,734.89999997616,2,2,1045.3000000715,0.3333333333333333,2,object_02,1,847,0,3,3,desert_8,1,memory-2step-stake-s,564,1488837,0.0-19.0-0.0-0.72,A3KFFIBJZVM0J2,3HRWUH63RXIZS6U0Z3EY966PXK25N4,3EF8EXOTT5B77H0Q9KPW2T8E6WSJ1T,1,2
73,3,object_03,object_07,816.80000007153,5,2,721.0,0.6666666666666666,1,object_10,5,877,0,6,4,library_4,1,memory-2step-stake-s,565,1497759,0.0-19.0-0.0-0.73,A3KFFIBJZVM0J2,3HRWUH63RXIZS6U0Z3EY966PXK25N4,3EF8EXOTT5B77H0Q9KPW2T8E6WSJ1T,6,5
74,1,object_09,object_01,820.70000004768,2,2,657.79999995232,0.2222222222222222,2,object_02,5,887,0,7,2,desert_1,1,memory-2step-stake-s,566,1505888,0.0-19.0-0.0-0.74,A3KFFIBJZVM0J2,3HRWUH63RXIZS6U0Z3EY966PXK25N4,3EF8EXOTT5B77H0Q9KPW2T8E6WSJ1T,1,2
75,3,object_07,object_03,635.20000004768,5,1,524.89999997616,0.7777777777777778,1,object_10,5,922,0,7,2,library_2,1,memory-2step-stake-s,567,1514424,0.0-19.0-0.0-0.75,A3KFFIBJZVM0J2,3HRWUH63RXIZS6U0Z3EY966PXK25N4,3EF8EXOTT5B77H0Q9KPW2T8E6WSJ1T,5,6
76,3,object_03,object_07,594.19999992847,5,2,530.5,0.6666666666666666,1,object_10,5,952,0,6,6,library_2,1,memory-2step-stake-s,568,1522854,0.0-19.0-0.0-0.76,A3KFFIBJZVM0J2,3HRWUH63RXIZS6U0Z3EY966PXK25N4,3EF8EXOTT5B77H0Q9KPW2T8E6WSJ1T,6,5
77,4,object_06,object_08,622.79999995232,8,1,423.70000004768,0.6666666666666666,2,object_02,1,958,0,5,6,restaurant_7,1,memory-2step-stake-s,569,1531173,0.0-19.0-0.0-0.77,A3KFFIBJZVM0J2,3HRWUH63RXIZS6U0Z3EY966PXK25N4,3EF8EXOTT5B77H0Q9KPW2T8E6WSJ1T,8,7
78,4,object_06,object_08,883.30000007153,8,1,713.0,0.7777777777777778,2,object_02,1,965,0,8,7,restaurant_2,1,memory-2step-stake-s,570,1539875,0.0-19.0-0.0-0.78,A3KFFIBJZVM0J2,3HRWUH63RXIZS6U0Z3EY966PXK25N4,3EF8EXOTT5B77H0Q9KPW2T8E6WSJ1T,8,7
79,1,object_01,object_09,546.79999995232,1,2,311.0,0.6666666666666666,1,object_10,1,971,0,6,8,desert_1,1,memory-2step-stake-s,571,1548087,0.0-19.0-0.0-0.79,A3KFFIBJZVM0J2,3HRWUH63RXIZS6U0Z3EY966PXK25N4,3EF8EXOTT5B77H0Q9KPW2T8E6WSJ1T,2,1
80,1,object_09,object_01,830.70000004768,1,1,469.70000004768,0.5555555555555556,1,object_10,1,976,0,5,7,desert_7,1,memory-2step-stake-s,572,1556322,0.0-19.0-0.0-0.80,A3KFFIBJZVM0J2,3HRWUH63RXIZS6U0Z3EY966PXK25N4,3EF8EXOTT5B77H0Q9KPW2T8E6WSJ1T,1,2
81,2,object_05,object_04,834.39999997616,4,1,682.79999995232,0.8888888888888888,2,object_02,1,984,0,4,8,forest_1,1,memory-2step-stake-s,573,1565074,0.0-19.0-0.0-0.81,A3KFFIBJZVM0J2,3HRWUH63RXIZS6U0Z3EY966PXK25N4,3EF8EXOTT5B77H0Q9KPW2T8E6WSJ1T,4,3
82,2,object_04,object_05,625.69999992847,4,2,474.10000002384,0.6666666666666666,2,object_02,1,990,0,6,6,forest_7,1,memory-2step-stake-s,574,1573412,0.0-19.0-0.0-0.82,A3KFFIBJZVM0J2,3HRWUH63RXIZS6U0Z3EY966PXK25N4,3EF8EXOTT5B77H0Q9KPW2T8E6WSJ1T,3,4
83,4,object_08,object_06,709.60000002384,8,2,442.0,0.6666666666666666,2,object_02,5,1020,0,6,6,restaurant_2,1,memory-2step-stake-s,575,1581743,0.0-19.0-0.0-0.83,A3KFFIBJZVM0J2,3HRWUH63RXIZS6U0Z3EY966PXK25N4,3EF8EXOTT5B77H0Q9KPW2T8E6WSJ1T,7,8
84,3,object_07,object_03,1107.5,5,1,964.60000002384,0.7777777777777778,1,object_10,5,1055,0,7,7,library_7,1,memory-2step-stake-s,576,1590680,0.0-19.0-0.0-0.84,A3KFFIBJZVM0J2,3HRWUH63RXIZS6U0Z3EY966PXK25N4,3EF8EXOTT5B77H0Q9KPW2T8E6WSJ1T,5,6
85,1,object_01,object_09,748.39999997616,1,2,1146.1000000238,1.0,1,object_10,1,1064,0,9,7,desert_1,1,memory-2step-stake-s,577,1600005,0.0-19.0-0.0-0.85,A3KFFIBJZVM0J2,3HRWUH63RXIZS6U0Z3EY966PXK25N4,3EF8EXOTT5B77H0Q9KPW2T8E6WSJ1T,2,1
86,1,object_09,object_01,991.79999995232,1,1,879.39999997616,0.8888888888888888,1,object_10,1,1072,0,8,9,desert_3,1,memory-2step-stake-s,578,1609004,0.0-19.0-0.0-0.86,A3KFFIBJZVM0J2,3HRWUH63RXIZS6U0Z3EY966PXK25N4,3EF8EXOTT5B77H0Q9KPW2T8E6WSJ1T,1,2
87,1,object_01,object_09,952.89999997616,1,2,975.29999995232,0.7777777777777778,1,object_10,1,1079,0,7,9,desert_8,1,memory-2step-stake-s,579,1617915,0.0-19.0-0.0-0.87,A3KFFIBJZVM0J2,3HRWUH63RXIZS6U0Z3EY966PXK25N4,3EF8EXOTT5B77H0Q9KPW2T8E6WSJ1T,2,1
88,2,object_04,object_05,653.70000004768,4,2,403.09999990463,0.6666666666666666,2,object_02,5,1109,0,8,6,forest_1,1,memory-2step-stake-s,580,1626218,0.0-19.0-0.0-0.88,A3KFFIBJZVM0J2,3HRWUH63RXIZS6U0Z3EY966PXK25N4,3EF8EXOTT5B77H0Q9KPW2T8E6WSJ1T,3,4
89,4,object_08,object_06,696.80000007153,8,2,333.39999997616,0.6666666666666666,2,object_02,5,1139,0,8,6,restaurant_2,1,memory-2step-stake-s,581,1634446,0.0-19.0-0.0-0.89,A3KFFIBJZVM0J2,3HRWUH63RXIZS6U0Z3EY966PXK25N4,3EF8EXOTT5B77H0Q9KPW2T8E6WSJ1T,7,8
90,2,object_05,object_04,1191.5,4,1,808.90000009537,0.3333333333333333,2,object_02,1,1142,0,6,3,forest_7,1,memory-2step-stake-s,582,1642844,0.0-19.0-0.0-0.90,A3KFFIBJZVM0J2,3HRWUH63RXIZS6U0Z3EY966PXK25N4,3EF8EXOTT5B77H0Q9KPW2T8E6WSJ1T,4,3
91,3,object_03,object_07,648.20000004768,5,2,364.20000004768,0.5555555555555556,1,object_10,5,1167,0,5,3,library_6,1,memory-2step-stake-s,583,1650967,0.0-19.0-0.0-0.91,A3KFFIBJZVM0J2,3HRWUH63RXIZS6U0Z3EY966PXK25N4,3EF8EXOTT5B77H0Q9KPW2T8E6WSJ1T,6,5
92,4,object_06,object_08,1314.0,8,1,484.30000007153,0.2222222222222222,2,object_02,1,1169,0,6,2,restaurant_7,1,memory-2step-stake-s,584,1658917,0.0-19.0-0.0-0.92,A3KFFIBJZVM0J2,3HRWUH63RXIZS6U0Z3EY966PXK25N4,3EF8EXOTT5B77H0Q9KPW2T8E6WSJ1T,8,7
93,3,object_07,object_03,647.0,5,1,542.10000002384,0.6666666666666666,1,object_10,5,1199,0,6,4,library_7,1,memory-2step-stake-s,585,1667356,0.0-19.0-0.0-0.93,A3KFFIBJZVM0J2,3HRWUH63RXIZS6U0Z3EY966PXK25N4,3EF8EXOTT5B77H0Q9KPW2T8E6WSJ1T,5,6
94,3,object_03,object_07,630.0,5,2,648.89999997616,0.7777777777777778,1,object_10,5,1234,0,7,2,library_2,1,memory-2step-stake-s,586,1676013,0.0-19.0-0.0-0.94,A3KFFIBJZVM0J2,3HRWUH63RXIZS6U0Z3EY966PXK25N4,3EF8EXOTT5B77H0Q9KPW2T8E6WSJ1T,6,5
95,3,object_07,object_03,715.79999995232,5,1,436.10000002384,0.5555555555555556,1,object_10,5,1259,0,5,4,library_4,1,memory-2step-stake-s,587,1684250,0.0-19.0-0.0-0.95,A3KFFIBJZVM0J2,3HRWUH63RXIZS6U0Z3EY966PXK25N4,3EF8EXOTT5B77H0Q9KPW2T8E6WSJ1T,5,6
96,1,object_09,object_01,1256.8999999762,1,1,1116.0,0.5555555555555556,1,object_10,1,1264,0,5,3,desert_1,1,memory-2step-stake-s,588,1693158,0.0-19.0-0.0-0.96,A3KFFIBJZVM0J2,3HRWUH63RXIZS6U0Z3EY966PXK25N4,3EF8EXOTT5B77H0Q9KPW2T8E6WSJ1T,1,2
97,3,object_07,object_03,672.29999995232,5,1,1380.2000000477,0.2222222222222222,1,object_10,5,1274,0,2,2,library_4,1,memory-2step-stake-s,589,1702003,0.0-19.0-0.0-0.97,A3KFFIBJZVM0J2,3HRWUH63RXIZS6U0Z3EY966PXK25N4,3EF8EXOTT5B77H0Q9KPW2T8E6WSJ1T,5,6
98,2,object_05,object_04,994.79999995232,4,1,1207.1000000238,0.1111111111111111,2,object_02,1,1275,0,2,1,forest_7,1,memory-2step-stake-s,590,1710589,0.0-19.0-0.0-0.98,A3KFFIBJZVM0J2,3HRWUH63RXIZS6U0Z3EY966PXK25N4,3EF8EXOTT5B77H0Q9KPW2T8E6WSJ1T,4,3
99,3,object_07,object_03,602.39999997616,5,1,491.69999992847,0.4444444444444444,1,object_10,5,1295,0,4,2,library_7,1,memory-2step-stake-s,591,1718771,0.0-19.0-0.0-0.99,A3KFFIBJZVM0J2,3HRWUH63RXIZS6U0Z3EY966PXK25N4,3EF8EXOTT5B77H0Q9KPW2T8E6WSJ1T,5,6
100,3,object_03,object_07,607.20000004768,5,2,673.29999995232,0.8888888888888888,1,object_10,5,1335,0,8,3,library_6,1,memory-2step-stake-s,592,1727539,0.0-19.0-0.0-0.100,A3KFFIBJZVM0J2,3HRWUH63RXIZS6U0Z3EY966PXK25N4,3EF8EXOTT5B77H0Q9KPW2T8E6WSJ1T,6,5
101,3,object_07,object_03,512.70000004768,5,1,850.29999995232,1.0,1,object_10,1,1344,0,9,2,library_4,1,memory-2step-stake-s,593,1736578,0.0-19.0-0.0-0.101,A3KFFIBJZVM0J2,3HRWUH63RXIZS6U0Z3EY966PXK25N4,3EF8EXOTT5B77H0Q9KPW2T8E6WSJ1T,5,6
102,3,object_07,object_03,786.0,5,1,505.39999997616,0.7777777777777778,1,object_10,1,1351,0,7,1,library_7,1,memory-2step-stake-s,594,1745075,0.0-19.0-0.0-0.102,A3KFFIBJZVM0J2,3HRWUH63RXIZS6U0Z3EY966PXK25N4,3EF8EXOTT5B77H0Q9KPW2T8E6WSJ1T,5,6
103,2,object_05,object_04,655.60000002384,3,2,341.70000004768,0.8888888888888888,1,object_10,5,1391,0,8,1,forest_7,1,memory-2step-stake-s,595,1753506,0.0-19.0-0.0-0.103,A3KFFIBJZVM0J2,3HRWUH63RXIZS6U0Z3EY966PXK25N4,3EF8EXOTT5B77H0Q9KPW2T8E6WSJ1T,4,3
104,1,object_09,object_01,-1.0,-1,-1,-1.0,0.0,-,0,1,1391,0,7,0,desert_8,1,memory-2step-stake-s,596,1760051,0.0-19.0-0.0-0.104,A3KFFIBJZVM0J2,3HRWUH63RXIZS6U0Z3EY966PXK25N4,3EF8EXOTT5B77H0Q9KPW2T8E6WSJ1T,1,2
105,1,object_09,object_01,858.20000004768,2,2,539.29999995232,0.1111111111111111,2,object_02,1,1392,0,9,1,desert_8,1,memory-2step-stake-s,597,1767954,0.0-19.0-0.0-0.105,A3KFFIBJZVM0J2,3HRWUH63RXIZS6U0Z3EY966PXK25N4,3EF8EXOTT5B77H0Q9KPW2T8E6WSJ1T,1,2
106,3,object_03,object_07,710.10000002384,5,2,710.0,0.8888888888888888,1,object_10,1,1400,0,8,0,library_7,1,memory-2step-stake-s,598,1776746,0.0-19.0-0.0-0.106,A3KFFIBJZVM0J2,3HRWUH63RXIZS6U0Z3EY966PXK25N4,3EF8EXOTT5B77H0Q9KPW2T8E6WSJ1T,6,5
107,4,object_06,object_08,690.90000009537,8,1,668.89999997616,0.0,2,object_02,5,1400,0,7,0,restaurant_2,1,memory-2step-stake-s,599,1784679,0.0-19.0-0.0-0.107,A3KFFIBJZVM0J2,3HRWUH63RXIZS6U0Z3EY966PXK25N4,3EF8EXOTT5B77H0Q9KPW2T8E6WSJ1T,8,7
108,4,object_06,object_08,717.0,8,1,353.79999995232,0.2222222222222222,2,object_02,5,1410,0,5,2,restaurant_4,1,memory-2step-stake-s,600,1792473,0.0-19.0-0.0-0.108,A3KFFIBJZVM0J2,3HRWUH63RXIZS6U0Z3EY966PXK25N4,3EF8EXOTT5B77H0Q9KPW2T8E6WSJ1T,8,7
109,4,object_08,object_06,843.89999997616,8,2,544.30000007153,0.1111111111111111,2,object_02,1,1411,0,5,1,restaurant_7,1,memory-2step-stake-s,601,1800387,0.0-19.0-0.0-0.109,A3KFFIBJZVM0J2,3HRWUH63RXIZS6U0Z3EY966PXK25N4,3EF8EXOTT5B77H0Q9KPW2T8E6WSJ1T,7,8
110,2,object_05,object_04,1272.5,4,1,428.90000009537,0.1111111111111111,2,object_02,1,1412,0,1,1,forest_1,1,memory-2step-stake-s,602,1808171,0.0-19.0-0.0-0.110,A3KFFIBJZVM0J2,3HRWUH63RXIZS6U0Z3EY966PXK25N4,3EF8EXOTT5B77H0Q9KPW2T8E6WSJ1T,4,3
111,4,object_06,object_08,618.5,8,1,513.10000002384,0.3333333333333333,2,object_02,5,1427,0,2,3,restaurant_2,1,memory-2step-stake-s,603,1816258,0.0-19.0-0.0-0.111,A3KFFIBJZVM0J2,3HRWUH63RXIZS6U0Z3EY966PXK25N4,3EF8EXOTT5B77H0Q9KPW2T8E6WSJ1T,8,7
112,2,object_05,object_04,808.69999992847,4,1,338.5,0.2222222222222222,2,object_02,1,1429,0,3,2,forest_7,1,memory-2step-stake-s,604,1824053,0.0-19.0-0.0-0.112,A3KFFIBJZVM0J2,3HRWUH63RXIZS6U0Z3EY966PXK25N4,3EF8EXOTT5B77H0Q9KPW2T8E6WSJ1T,4,3
113,1,object_01,object_09,1438.5,1,2,369.0,0.5555555555555556,1,object_10,1,1434,0,5,0,desert_1,1,memory-2step-stake-s,605,1832195,0.0-19.0-0.0-0.113,A3KFFIBJZVM0J2,3HRWUH63RXIZS6U0Z3EY966PXK25N4,3EF8EXOTT5B77H0Q9KPW2T8E6WSJ1T,2,1
114,2,object_04,object_05,1078.5,4,2,547.59999990463,0.3333333333333333,2,object_02,1,1437,0,9,3,forest_3,1,memory-2step-stake-s,606,1840331,0.0-19.0-0.0-0.114,A3KFFIBJZVM0J2,3HRWUH63RXIZS6U0Z3EY966PXK25N4,3EF8EXOTT5B77H0Q9KPW2T8E6WSJ1T,3,4
115,3,object_07,object_03,625.5,5,1,640.70000004768,0.5555555555555556,1,object_10,1,1442,0,5,1,library_4,1,memory-2step-stake-s,607,1848741,0.0-19.0-0.0-0.115,A3KFFIBJZVM0J2,3HRWUH63RXIZS6U0Z3EY966PXK25N4,3EF8EXOTT5B77H0Q9KPW2T8E6WSJ1T,5,6
116,3,object_07,object_03,549.80000007153,5,1,399.79999995232,0.6666666666666666,1,object_10,1,1448,0,6,3,library_7,1,memory-2step-stake-s,608,1857616,0.0-19.0-0.0-0.116,A3KFFIBJZVM0J2,3HRWUH63RXIZS6U0Z3EY966PXK25N4,3EF8EXOTT5B77H0Q9KPW2T8E6WSJ1T,5,6
117,1,object_09,object_01,1115.4000000954,2,2,573.89999997616,0.1111111111111111,2,object_02,1,1449,0,5,1,desert_1,1,memory-2step-stake-s,609,1865551,0.0-19.0-0.0-0.117,A3KFFIBJZVM0J2,3HRWUH63RXIZS6U0Z3EY966PXK25N4,3EF8EXOTT5B77H0Q9KPW2T8E6WSJ1T,1,2
118,1,object_09,object_01,747.89999997616,1,1,397.29999995232,0.7777777777777778,1,object_10,1,1456,0,7,3,desert_1,1,memory-2step-stake-s,610,1873940,0.0-19.0-0.0-0.118,A3KFFIBJZVM0J2,3HRWUH63RXIZS6U0Z3EY966PXK25N4,3EF8EXOTT5B77H0Q9KPW2T8E6WSJ1T,1,2
119,2,object_05,object_04,923.5,4,1,709.59999990463,0.3333333333333333,2,object_02,1,1459,0,9,3,forest_7,1,memory-2step-stake-s,611,1882209,0.0-19.0-0.0-0.119,A3KFFIBJZVM0J2,3HRWUH63RXIZS6U0Z3EY966PXK25N4,3EF8EXOTT5B77H0Q9KPW2T8E6WSJ1T,4,3
120,1,object_01,object_09,1041.8000000715,1,2,367.80000007153,0.7777777777777778,1,object_10,5,1494,0,7,2,desert_1,1,memory-2step-stake-s,612,1890576,0.0-19.0-0.0-0.120,A3KFFIBJZVM0J2,3HRWUH63RXIZS6U0Z3EY966PXK25N4,3EF8EXOTT5B77H0Q9KPW2T8E6WSJ1T,2,1
121,1,object_09,object_01,964.89999997616,1,1,349.10000002384,0.7777777777777778,1,object_10,1,1501,0,7,0,desert_8,1,memory-2step-stake-s,613,1898926,0.0-19.0-0.0-0.121,A3KFFIBJZVM0J2,3HRWUH63RXIZS6U0Z3EY966PXK25N4,3EF8EXOTT5B77H0Q9KPW2T8E6WSJ1T,1,2
122,4,object_08,object_06,647.10000002384,8,2,529.10000002384,0.2222222222222222,2,object_02,5,1511,0,4,2,restaurant_4,1,memory-2step-stake-s,614,1906904,0.0-19.0-0.0-0.122,A3KFFIBJZVM0J2,3HRWUH63RXIZS6U0Z3EY966PXK25N4,3EF8EXOTT5B77H0Q9KPW2T8E6WSJ1T,7,8
123,1,object_09,object_01,659.10000002384,1,1,483.39999997616,0.3333333333333333,1,object_10,1,1514,0,3,1,desert_8,1,memory-2step-stake-s,615,1914976,0.0-19.0-0.0-0.123,A3KFFIBJZVM0J2,3HRWUH63RXIZS6U0Z3EY966PXK25N4,3EF8EXOTT5B77H0Q9KPW2T8E6WSJ1T,1,2
124,4,object_06,object_08,611.29999995232,8,1,564.5,0.1111111111111111,2,object_02,5,1519,0,2,1,restaurant_4,1,memory-2step-stake-s,616,1922925,0.0-19.0-0.0-0.124,A3KFFIBJZVM0J2,3HRWUH63RXIZS6U0Z3EY966PXK25N4,3EF8EXOTT5B77H0Q9KPW2T8E6WSJ1T,8,7
125,3,object_03,object_07,600.60000002384,5,2,489.5,0.0,1,object_10,5,1519,0,0,2,library_2,1,memory-2step-stake-s,617,1930697,0.0-19.0-0.0-0.125,A3KFFIBJZVM0J2,3HRWUH63RXIZS6U0Z3EY966PXK25N4,3EF8EXOTT5B77H0Q9KPW2T8E6WSJ1T,6,5
126,4,object_08,object_06,613.5,8,2,427.90000009537,0.1111111111111111,2,object_02,1,1520,0,1,1,restaurant_7,1,memory-2step-stake-s,618,1938476,0.0-19.0-0.0-0.126,A3KFFIBJZVM0J2,3HRWUH63RXIZS6U0Z3EY966PXK25N4,3EF8EXOTT5B77H0Q9KPW2T8E6WSJ1T,7,8
127,4,object_08,object_06,730.89999997616,8,2,494.79999995232,0.4444444444444444,2,object_02,5,1540,0,2,4,restaurant_1,1,memory-2step-stake-s,619,1946658,0.0-19.0-0.0-0.127,A3KFFIBJZVM0J2,3HRWUH63RXIZS6U0Z3EY966PXK25N4,3EF8EXOTT5B77H0Q9KPW2T8E6WSJ1T,7,8
128,2,object_04,object_05,1404.3000000715,4,2,368.70000004768,0.4444444444444444,2,object_02,1,1544,0,1,4,forest_6,1,memory-2step-stake-s,621,2377693,0.0-19.0-0.1-0.128,A3KFFIBJZVM0J2,3HRWUH63RXIZS6U0Z3EY966PXK25N4,3EF8EXOTT5B77H0Q9KPW2T8E6WSJ1T,3,4
129,2,object_05,object_04,755.79999995232,4,1,371.10000002384,0.4444444444444444,2,object_02,1,1548,0,0,4,forest_6,1,memory-2step-stake-s,622,2385758,0.0-19.0-0.1-0.129,A3KFFIBJZVM0J2,3HRWUH63RXIZS6U0Z3EY966PXK25N4,3EF8EXOTT5B77H0Q9KPW2T8E6WSJ1T,4,3
130,4,object_06,object_08,665.20000004768,8,1,318.29999995232,0.2222222222222222,2,object_02,1,1550,0,0,2,restaurant_4,1,memory-2step-stake-s,623,2393553,0.0-19.0-0.1-0.130,A3KFFIBJZVM0J2,3HRWUH63RXIZS6U0Z3EY966PXK25N4,3EF8EXOTT5B77H0Q9KPW2T8E6WSJ1T,8,7
131,2,object_05,object_04,838.10000002384,4,1,342.10000002384,0.6666666666666666,2,object_02,1,1556,0,2,6,forest_1,1,memory-2step-stake-s,624,2401781,0.0-19.0-0.1-0.131,A3KFFIBJZVM0J2,3HRWUH63RXIZS6U0Z3EY966PXK25N4,3EF8EXOTT5B77H0Q9KPW2T8E6WSJ1T,4,3
132,3,object_07,object_03,729.89999997616,5,1,612.20000004768,0.3333333333333333,1,object_10,5,1571,0,3,6,library_4,1,memory-2step-stake-s,625,2409968,0.0-19.0-0.1-0.132,A3KFFIBJZVM0J2,3HRWUH63RXIZS6U0Z3EY966PXK25N4,3EF8EXOTT5B77H0Q9KPW2T8E6WSJ1T,5,6
133,3,object_07,object_03,637.79999995232,5,1,-1.0,0.0,1,object_10,5,1571,0,2,3,library_6,1,memory-2step-stake-s,626,2418531,0.0-19.0-0.1-0.133,A3KFFIBJZVM0J2,3HRWUH63RXIZS6U0Z3EY966PXK25N4,3EF8EXOTT5B77H0Q9KPW2T8E6WSJ1T,5,6
134,1,object_09,object_01,742.39999997616,2,2,367.89999997616,0.4444444444444444,2,object_02,1,1575,0,2,4,desert_3,1,memory-2step-stake-s,627,2426590,0.0-19.0-0.1-0.134,A3KFFIBJZVM0J2,3HRWUH63RXIZS6U0Z3EY966PXK25N4,3EF8EXOTT5B77H0Q9KPW2T8E6WSJ1T,1,2
135,4,object_06,object_08,601.60000002384,8,1,381.29999995232,0.6666666666666666,2,object_02,5,1605,0,0,6,restaurant_4,1,memory-2step-stake-s,628,2434851,0.0-19.0-0.1-0.135,A3KFFIBJZVM0J2,3HRWUH63RXIZS6U0Z3EY966PXK25N4,3EF8EXOTT5B77H0Q9KPW2T8E6WSJ1T,8,7
136,2,object_05,object_04,687.0,4,1,367.29999995232,0.4444444444444444,2,object_02,5,1625,0,1,4,forest_6,1,memory-2step-stake-s,629,2442887,0.0-19.0-0.1-0.136,A3KFFIBJZVM0J2,3HRWUH63RXIZS6U0Z3EY966PXK25N4,3EF8EXOTT5B77H0Q9KPW2T8E6WSJ1T,4,3
137,1,object_01,object_09,813.80000007153,2,1,306.69999992847,0.2222222222222222,2,object_02,1,1627,0,0,2,desert_7,1,memory-2step-stake-s,630,2450653,0.0-19.0-0.1-0.137,A3KFFIBJZVM0J2,3HRWUH63RXIZS6U0Z3EY966PXK25N4,3EF8EXOTT5B77H0Q9KPW2T8E6WSJ1T,2,1
138,2,object_05,object_04,713.39999997616,4,1,361.70000004768,0.3333333333333333,2,object_02,1,1630,0,2,3,forest_3,1,memory-2step-stake-s,631,2458616,0.0-19.0-0.1-0.138,A3KFFIBJZVM0J2,3HRWUH63RXIZS6U0Z3EY966PXK25N4,3EF8EXOTT5B77H0Q9KPW2T8E6WSJ1T,4,3
139,2,object_04,object_05,937.89999997616,4,2,366.10000002384,0.4444444444444444,2,object_02,5,1650,0,2,4,forest_1,1,memory-2step-stake-s,632,2466660,0.0-19.0-0.1-0.139,A3KFFIBJZVM0J2,3HRWUH63RXIZS6U0Z3EY966PXK25N4,3EF8EXOTT5B77H0Q9KPW2T8E6WSJ1T,3,4
140,3,object_03,object_07,781.20000004768,5,2,324.29999995232,0.4444444444444444,1,object_10,5,1670,0,4,4,library_7,1,memory-2step-stake-s,633,2474644,0.0-19.0-0.1-0.140,A3KFFIBJZVM0J2,3HRWUH63RXIZS6U0Z3EY966PXK25N4,3EF8EXOTT5B77H0Q9KPW2T8E6WSJ1T,6,5
141,3,object_07,object_03,665.29999995232,5,1,550.59999990463,0.4444444444444444,1,object_10,1,1674,0,4,3,library_2,1,memory-2step-stake-s,634,2482917,0.0-19.0-0.1-0.141,A3KFFIBJZVM0J2,3HRWUH63RXIZS6U0Z3EY966PXK25N4,3EF8EXOTT5B77H0Q9KPW2T8E6WSJ1T,5,6
142,3,object_03,object_07,683.79999995232,5,2,999.79999995232,0.6666666666666666,1,object_10,5,1704,0,6,2,library_6,1,memory-2step-stake-s,635,2491817,0.0-19.0-0.1-0.142,A3KFFIBJZVM0J2,3HRWUH63RXIZS6U0Z3EY966PXK25N4,3EF8EXOTT5B77H0Q9KPW2T8E6WSJ1T,6,5
143,1,object_01,object_09,684.29999995232,2,1,429.10000002384,0.4444444444444444,2,object_02,1,1708,0,7,4,desert_3,1,memory-2step-stake-s,636,2499921,0.0-19.0-0.1-0.143,A3KFFIBJZVM0J2,3HRWUH63RXIZS6U0Z3EY966PXK25N4,3EF8EXOTT5B77H0Q9KPW2T8E6WSJ1T,2,1
144,4,object_08,object_06,546.5,8,2,457.60000002384,0.7777777777777778,2,object_02,5,1743,0,5,7,restaurant_2,1,memory-2step-stake-s,637,2508373,0.0-19.0-0.1-0.144,A3KFFIBJZVM0J2,3HRWUH63RXIZS6U0Z3EY966PXK25N4,3EF8EXOTT5B77H0Q9KPW2T8E6WSJ1T,7,8
145,2,object_04,object_05,958.09999990463,3,1,414.20000004768,0.4444444444444444,1,object_10,1,1747,0,4,6,forest_3,1,memory-2step-stake-s,638,2516491,0.0-19.0-0.1-0.145,A3KFFIBJZVM0J2,3HRWUH63RXIZS6U0Z3EY966PXK25N4,3EF8EXOTT5B77H0Q9KPW2T8E6WSJ1T,3,4
146,2,object_05,object_04,1063.2999999523,3,2,421.70000004768,0.4444444444444444,1,object_10,1,1751,0,4,3,forest_3,1,memory-2step-stake-s,639,2524615,0.0-19.0-0.1-0.146,A3KFFIBJZVM0J2,3HRWUH63RXIZS6U0Z3EY966PXK25N4,3EF8EXOTT5B77H0Q9KPW2T8E6WSJ1T,4,3
147,4,object_06,object_08,827.10000002384,8,1,862.0,0.3333333333333333,2,object_02,1,1754,0,5,3,restaurant_7,1,memory-2step-stake-s,640,2533056,0.0-19.0-0.1-0.147,A3KFFIBJZVM0J2,3HRWUH63RXIZS6U0Z3EY966PXK25N4,3EF8EXOTT5B77H0Q9KPW2T8E6WSJ1T,8,7
148,1,object_01,object_09,926.39999997616,1,2,471.0,0.5555555555555556,1,object_10,1,1759,0,5,2,desert_1,1,memory-2step-stake-s,641,2541311,0.0-19.0-0.1-0.148,A3KFFIBJZVM0J2,3HRWUH63RXIZS6U0Z3EY966PXK25N4,3EF8EXOTT5B77H0Q9KPW2T8E6WSJ1T,2,1
149,2,object_05,object_04,802.70000004768,3,2,298.29999995232,0.5555555555555556,1,object_10,5,1784,0,5,1,forest_7,1,memory-2step-stake-s,642,2549404,0.0-19.0-0.1-0.149,A3KFFIBJZVM0J2,3HRWUH63RXIZS6U0Z3EY966PXK25N4,3EF8EXOTT5B77H0Q9KPW2T8E6WSJ1T,4,3
150,3,object_03,object_07,699.70000004768,5,2,306.20000004768,0.7777777777777778,1,object_10,5,1819,0,7,0,library_6,1,memory-2step-stake-s,643,2557680,0.0-19.0-0.1-0.150,A3KFFIBJZVM0J2,3HRWUH63RXIZS6U0Z3EY966PXK25N4,3EF8EXOTT5B77H0Q9KPW2T8E6WSJ1T,6,5
151,4,object_06,object_08,625.10000002384,8,1,618.0,0.0,2,object_02,5,1819,0,9,0,restaurant_4,1,memory-2step-stake-s,644,2565552,0.0-19.0-0.1-0.151,A3KFFIBJZVM0J2,3HRWUH63RXIZS6U0Z3EY966PXK25N4,3EF8EXOTT5B77H0Q9KPW2T8E6WSJ1T,8,7
152,1,object_01,object_09,967.5,1,2,707.60000002384,0.7777777777777778,1,object_10,1,1826,0,7,4,desert_7,1,memory-2step-stake-s,645,2574257,0.0-19.0-0.1-0.152,A3KFFIBJZVM0J2,3HRWUH63RXIZS6U0Z3EY966PXK25N4,3EF8EXOTT5B77H0Q9KPW2T8E6WSJ1T,2,1
153,2,object_05,object_04,883.30000007153,3,2,349.5,0.8888888888888888,1,object_10,1,1834,0,8,4,forest_3,1,memory-2step-stake-s,646,2582732,0.0-19.0-0.1-0.153,A3KFFIBJZVM0J2,3HRWUH63RXIZS6U0Z3EY966PXK25N4,3EF8EXOTT5B77H0Q9KPW2T8E6WSJ1T,4,3
154,2,object_04,object_05,694.69999992847,3,1,315.79999995232,0.6666666666666666,1,object_10,1,1840,0,6,6,forest_1,1,memory-2step-stake-s,647,2590931,0.0-19.0-0.1-0.154,A3KFFIBJZVM0J2,3HRWUH63RXIZS6U0Z3EY966PXK25N4,3EF8EXOTT5B77H0Q9KPW2T8E6WSJ1T,3,4
155,3,object_07,object_03,598.29999995232,5,1,431.0,0.6666666666666666,1,object_10,5,1870,0,6,8,library_4,1,memory-2step-stake-s,648,2599253,0.0-19.0-0.1-0.155,A3KFFIBJZVM0J2,3HRWUH63RXIZS6U0Z3EY966PXK25N4,3EF8EXOTT5B77H0Q9KPW2T8E6WSJ1T,5,6
156,4,object_06,object_08,737.5,8,1,582.0,0.7777777777777778,2,object_02,5,1905,0,6,7,restaurant_4,1,memory-2step-stake-s,649,2607839,0.0-19.0-0.1-0.156,A3KFFIBJZVM0J2,3HRWUH63RXIZS6U0Z3EY966PXK25N4,3EF8EXOTT5B77H0Q9KPW2T8E6WSJ1T,8,7
157,1,object_01,object_09,917.80000007153,1,2,522.5,0.0,1,object_10,1,1905,0,0,7,desert_3,1,memory-2step-stake-s,650,2615619,0.0-19.0-0.1-0.157,A3KFFIBJZVM0J2,3HRWUH63RXIZS6U0Z3EY966PXK25N4,3EF8EXOTT5B77H0Q9KPW2T8E6WSJ1T,2,1
158,4,object_08,object_06,696.5,8,2,428.0,0.8888888888888888,2,object_02,5,1945,0,1,8,restaurant_4,1,memory-2step-stake-s,651,2624129,0.0-19.0-0.1-0.158,A3KFFIBJZVM0J2,3HRWUH63RXIZS6U0Z3EY966PXK25N4,3EF8EXOTT5B77H0Q9KPW2T8E6WSJ1T,7,8
159,2,object_04,object_05,589.5,3,1,325.69999992847,0.1111111111111111,1,object_10,1,1946,0,1,5,forest_3,1,memory-2step-stake-s,652,2631811,0.0-19.0-0.1-0.159,A3KFFIBJZVM0J2,3HRWUH63RXIZS6U0Z3EY966PXK25N4,3EF8EXOTT5B77H0Q9KPW2T8E6WSJ1T,3,4
160,1,object_01,object_09,673.89999997616,1,2,300.10000002384,0.5555555555555556,1,object_10,1,1951,0,5,3,desert_3,1,memory-2step-stake-s,653,2639869,0.0-19.0-0.1-0.160,A3KFFIBJZVM0J2,3HRWUH63RXIZS6U0Z3EY966PXK25N4,3EF8EXOTT5B77H0Q9KPW2T8E6WSJ1T,2,1
161,3,object_03,object_07,606.60000002384,5,2,453.70000004768,0.3333333333333333,1,object_10,5,1966,0,3,6,library_4,1,memory-2step-stake-s,654,2647901,0.0-19.0-0.1-0.161,A3KFFIBJZVM0J2,3HRWUH63RXIZS6U0Z3EY966PXK25N4,3EF8EXOTT5B77H0Q9KPW2T8E6WSJ1T,6,5
162,1,object_01,object_09,818.60000002384,1,2,491.29999995232,0.3333333333333333,1,object_10,1,1969,0,3,4,desert_7,1,memory-2step-stake-s,655,2655964,0.0-19.0-0.1-0.162,A3KFFIBJZVM0J2,3HRWUH63RXIZS6U0Z3EY966PXK25N4,3EF8EXOTT5B77H0Q9KPW2T8E6WSJ1T,2,1
163,4,object_06,object_08,587.10000002384,8,1,452.5,0.6666666666666666,2,object_02,5,1999,0,4,6,restaurant_4,1,memory-2step-stake-s,656,2664271,0.0-19.0-0.1-0.163,A3KFFIBJZVM0J2,3HRWUH63RXIZS6U0Z3EY966PXK25N4,3EF8EXOTT5B77H0Q9KPW2T8E6WSJ1T,8,7
164,2,object_05,object_04,821.0,4,1,347.10000002384,0.3333333333333333,2,object_02,1,2002,0,6,3,forest_1,1,memory-2step-stake-s,657,2672187,0.0-19.0-0.1-0.164,A3KFFIBJZVM0J2,3HRWUH63RXIZS6U0Z3EY966PXK25N4,3EF8EXOTT5B77H0Q9KPW2T8E6WSJ1T,4,3
165,4,object_08,object_06,1033.3999999762,8,2,492.5,0.4444444444444444,2,object_02,5,2022,0,6,4,restaurant_7,1,memory-2step-stake-s,658,2680324,0.0-19.0-0.1-0.165,A3KFFIBJZVM0J2,3HRWUH63RXIZS6U0Z3EY966PXK25N4,3EF8EXOTT5B77H0Q9KPW2T8E6WSJ1T,7,8
166,1,object_01,object_09,934.60000002384,1,2,991.89999997616,0.5555555555555556,1,object_10,1,2027,0,5,4,desert_8,1,memory-2step-stake-s,659,2689084,0.0-19.0-0.1-0.166,A3KFFIBJZVM0J2,3HRWUH63RXIZS6U0Z3EY966PXK25N4,3EF8EXOTT5B77H0Q9KPW2T8E6WSJ1T,2,1
167,3,object_03,object_07,565.70000004768,5,2,454.39999997616,0.6666666666666666,1,object_10,5,2057,0,6,8,library_2,1,memory-2step-stake-s,660,2697431,0.0-19.0-0.1-0.167,A3KFFIBJZVM0J2,3HRWUH63RXIZS6U0Z3EY966PXK25N4,3EF8EXOTT5B77H0Q9KPW2T8E6WSJ1T,6,5
168,3,object_03,object_07,1132.3999999762,5,2,454.40000009537,0.3333333333333333,1,object_10,5,2072,0,3,8,library_7,1,memory-2step-stake-s,661,2705458,0.0-19.0-0.1-0.168,A3KFFIBJZVM0J2,3HRWUH63RXIZS6U0Z3EY966PXK25N4,3EF8EXOTT5B77H0Q9KPW2T8E6WSJ1T,6,5
169,1,object_09,object_01,694.39999997616,2,2,469.39999997616,0.4444444444444444,2,object_02,1,2076,0,3,4,desert_7,1,memory-2step-stake-s,662,2713609,0.0-19.0-0.1-0.169,A3KFFIBJZVM0J2,3HRWUH63RXIZS6U0Z3EY966PXK25N4,3EF8EXOTT5B77H0Q9KPW2T8E6WSJ1T,1,2
170,4,object_08,object_06,641.70000004768,8,2,516.5,0.5555555555555556,2,object_02,5,2101,0,2,5,restaurant_7,1,memory-2step-stake-s,663,2721898,0.0-19.0-0.1-0.170,A3KFFIBJZVM0J2,3HRWUH63RXIZS6U0Z3EY966PXK25N4,3EF8EXOTT5B77H0Q9KPW2T8E6WSJ1T,7,8
171,1,object_09,object_01,648.69999992847,2,2,400.70000004768,0.5555555555555556,2,object_02,1,2106,0,3,5,desert_1,1,memory-2step-stake-s,664,2730093,0.0-19.0-0.1-0.171,A3KFFIBJZVM0J2,3HRWUH63RXIZS6U0Z3EY966PXK25N4,3EF8EXOTT5B77H0Q9KPW2T8E6WSJ1T,1,2
172,2,object_05,object_04,928.70000004768,4,1,421.69999992847,0.8888888888888888,2,object_02,1,2114,0,5,8,forest_7,1,memory-2step-stake-s,665,2738588,0.0-19.0-0.1-0.172,A3KFFIBJZVM0J2,3HRWUH63RXIZS6U0Z3EY966PXK25N4,3EF8EXOTT5B77H0Q9KPW2T8E6WSJ1T,4,3
173,4,object_06,object_08,694.0,8,1,403.39999997616,0.7777777777777778,2,object_02,5,2149,0,4,7,restaurant_1,1,memory-2step-stake-s,666,2746995,0.0-19.0-0.1-0.173,A3KFFIBJZVM0J2,3HRWUH63RXIZS6U0Z3EY966PXK25N4,3EF8EXOTT5B77H0Q9KPW2T8E6WSJ1T,8,7
174,3,object_03,object_07,606.89999997616,5,2,376.10000002384,0.4444444444444444,1,object_10,5,2169,0,4,2,library_6,1,memory-2step-stake-s,667,2755049,0.0-19.0-0.1-0.174,A3KFFIBJZVM0J2,3HRWUH63RXIZS6U0Z3EY966PXK25N4,3EF8EXOTT5B77H0Q9KPW2T8E6WSJ1T,6,5
175,3,object_03,object_07,583.10000002384,5,2,487.09999990463,0.6666666666666666,1,object_10,5,2199,0,6,1,library_7,1,memory-2step-stake-s,668,2763416,0.0-19.0-0.1-0.175,A3KFFIBJZVM0J2,3HRWUH63RXIZS6U0Z3EY966PXK25N4,3EF8EXOTT5B77H0Q9KPW2T8E6WSJ1T,6,5
176,4,object_06,object_08,697.20000004768,8,1,491.59999990463,0.1111111111111111,2,object_02,1,2200,0,7,1,restaurant_7,1,memory-2step-stake-s,669,2771274,0.0-19.0-0.1-0.176,A3KFFIBJZVM0J2,3HRWUH63RXIZS6U0Z3EY966PXK25N4,3EF8EXOTT5B77H0Q9KPW2T8E6WSJ1T,8,7
177,2,object_05,object_04,660.20000004768,3,2,335.5,0.7777777777777778,1,object_10,5,2235,0,7,6,forest_7,1,memory-2step-stake-s,670,2779595,0.0-19.0-0.1-0.177,A3KFFIBJZVM0J2,3HRWUH63RXIZS6U0Z3EY966PXK25N4,3EF8EXOTT5B77H0Q9KPW2T8E6WSJ1T,4,3
178,1,object_01,object_09,623.0,2,1,477.29999995232,0.4444444444444444,2,object_02,1,2239,0,6,4,desert_1,1,memory-2step-stake-s,671,2787734,0.0-19.0-0.1-0.178,A3KFFIBJZVM0J2,3HRWUH63RXIZS6U0Z3EY966PXK25N4,3EF8EXOTT5B77H0Q9KPW2T8E6WSJ1T,2,1
179,4,object_06,object_08,690.79999995232,8,1,738.5,0.2222222222222222,2,object_02,1,2241,0,7,2,restaurant_4,1,memory-2step-stake-s,672,2795956,0.0-19.0-0.1-0.179,A3KFFIBJZVM0J2,3HRWUH63RXIZS6U0Z3EY966PXK25N4,3EF8EXOTT5B77H0Q9KPW2T8E6WSJ1T,8,7
180,4,object_08,object_06,642.39999997616,8,2,594.5,0.6666666666666666,2,object_02,5,2271,0,2,6,restaurant_7,1,memory-2step-stake-s,673,2804455,0.0-19.0-0.1-0.180,A3KFFIBJZVM0J2,3HRWUH63RXIZS6U0Z3EY966PXK25N4,3EF8EXOTT5B77H0Q9KPW2T8E6WSJ1T,7,8
181,4,object_06,object_08,606.10000002384,8,1,463.5,0.3333333333333333,2,object_02,5,2286,0,0,3,restaurant_2,1,memory-2step-stake-s,674,2812490,0.0-19.0-0.1-0.181,A3KFFIBJZVM0J2,3HRWUH63RXIZS6U0Z3EY966PXK25N4,3EF8EXOTT5B77H0Q9KPW2T8E6WSJ1T,8,7
182,3,object_07,object_03,568.5,5,1,385.60000002384,0.0,1,object_10,5,2286,0,0,2,library_4,1,memory-2step-stake-s,675,2820126,0.0-19.0-0.1-0.182,A3KFFIBJZVM0J2,3HRWUH63RXIZS6U0Z3EY966PXK25N4,3EF8EXOTT5B77H0Q9KPW2T8E6WSJ1T,5,6
183,1,object_01,object_09,621.5,1,2,353.10000002384,0.3333333333333333,1,object_10,1,2289,0,3,1,desert_8,1,memory-2step-stake-s,676,2828049,0.0-19.0-0.1-0.183,A3KFFIBJZVM0J2,3HRWUH63RXIZS6U0Z3EY966PXK25N4,3EF8EXOTT5B77H0Q9KPW2T8E6WSJ1T,2,1
184,1,object_09,object_01,662.20000004768,2,2,261.39999997616,0.0,2,object_02,1,2289,0,4,0,desert_8,1,memory-2step-stake-s,677,2835591,0.0-19.0-0.1-0.184,A3KFFIBJZVM0J2,3HRWUH63RXIZS6U0Z3EY966PXK25N4,3EF8EXOTT5B77H0Q9KPW2T8E6WSJ1T,1,2
185,4,object_08,object_06,698.80000007153,8,2,334.80000007153,0.1111111111111111,2,object_02,5,2294,0,4,1,restaurant_7,1,memory-2step-stake-s,678,2843313,0.0-19.0-0.1-0.185,A3KFFIBJZVM0J2,3HRWUH63RXIZS6U0Z3EY966PXK25N4,3EF8EXOTT5B77H0Q9KPW2T8E6WSJ1T,7,8
186,3,object_07,object_03,628.30000007153,5,1,342.10000002384,0.4444444444444444,1,object_10,5,2314,0,4,1,library_7,1,memory-2step-stake-s,679,2851341,0.0-19.0-0.1-0.186,A3KFFIBJZVM0J2,3HRWUH63RXIZS6U0Z3EY966PXK25N4,3EF8EXOTT5B77H0Q9KPW2T8E6WSJ1T,5,6
187,2,object_04,object_05,712.89999997616,4,2,375.70000004768,0.1111111111111111,2,object_02,1,2315,0,1,1,forest_1,1,memory-2step-stake-s,680,2859099,0.0-19.0-0.1-0.187,A3KFFIBJZVM0J2,3HRWUH63RXIZS6U0Z3EY966PXK25N4,3EF8EXOTT5B77H0Q9KPW2T8E6WSJ1T,3,4
188,2,object_05,object_04,812.39999997616,4,1,618.89999997616,0.5555555555555556,2,object_02,1,2320,0,5,5,forest_1,1,memory-2step-stake-s,681,2867532,0.0-19.0-0.1-0.188,A3KFFIBJZVM0J2,3HRWUH63RXIZS6U0Z3EY966PXK25N4,3EF8EXOTT5B77H0Q9KPW2T8E6WSJ1T,4,3
189,4,object_06,object_08,773.69999992847,7,2,313.89999997616,0.3333333333333333,1,object_10,5,2335,0,3,4,restaurant_1,1,memory-2step-stake-s,682,2875422,0.0-19.0-0.1-0.189,A3KFFIBJZVM0J2,3HRWUH63RXIZS6U0Z3EY966PXK25N4,3EF8EXOTT5B77H0Q9KPW2T8E6WSJ1T,8,7
190,1,object_01,object_09,950.80000007153,1,2,271.80000007153,0.5555555555555556,1,object_10,1,2340,0,5,4,desert_3,1,memory-2step-stake-s,683,2883466,0.0-19.0-0.1-0.190,A3KFFIBJZVM0J2,3HRWUH63RXIZS6U0Z3EY966PXK25N4,3EF8EXOTT5B77H0Q9KPW2T8E6WSJ1T,2,1
191,2,object_04,object_05,711.19999992847,3,1,510.89999997616,0.7777777777777778,1,object_10,5,2375,0,7,0,forest_3,1,memory-2step-stake-s,684,2891972,0.0-19.0-0.1-0.191,A3KFFIBJZVM0J2,3HRWUH63RXIZS6U0Z3EY966PXK25N4,3EF8EXOTT5B77H0Q9KPW2T8E6WSJ1T,3,4
192,2,object_05,object_04,849.10000002384,4,1,309.20000004768,0.1111111111111111,2,object_02,1,2376,0,5,1,forest_6,1,memory-2step-stake-s,685,2899659,0.0-19.0-0.1-0.192,A3KFFIBJZVM0J2,3HRWUH63RXIZS6U0Z3EY966PXK25N4,3EF8EXOTT5B77H0Q9KPW2T8E6WSJ1T,4,3
193,1,object_01,object_09,811.10000002384,1,2,309.60000002384,0.5555555555555556,1,object_10,1,2381,0,5,1,desert_7,1,memory-2step-stake-s,686,2907750,0.0-19.0-0.1-0.193,A3KFFIBJZVM0J2,3HRWUH63RXIZS6U0Z3EY966PXK25N4,3EF8EXOTT5B77H0Q9KPW2T8E6WSJ1T,2,1
194,2,object_04,object_05,1242.8000000715,4,2,459.30000007153,0.1111111111111111,2,object_02,5,2386,0,8,1,forest_3,1,memory-2step-stake-s,687,2915574,0.0-19.0-0.1-0.194,A3KFFIBJZVM0J2,3HRWUH63RXIZS6U0Z3EY966PXK25N4,3EF8EXOTT5B77H0Q9KPW2T8E6WSJ1T,3,4
195,1,object_09,object_01,685.80000007153,1,1,456.20000004768,0.8888888888888888,1,object_10,1,2394,0,8,2,desert_8,1,memory-2step-stake-s,688,2924080,0.0-19.0-0.1-0.195,A3KFFIBJZVM0J2,3HRWUH63RXIZS6U0Z3EY966PXK25N4,3EF8EXOTT5B77H0Q9KPW2T8E6WSJ1T,1,2
196,3,object_03,object_07,669.20000004768,5,2,356.19999992847,1.0,1,object_10,5,2439,0,9,1,library_2,1,memory-2step-stake-s,689,2932607,0.0-19.0-0.1-0.196,A3KFFIBJZVM0J2,3HRWUH63RXIZS6U0Z3EY966PXK25N4,3EF8EXOTT5B77H0Q9KPW2T8E6WSJ1T,6,5
197,3,object_03,object_07,738.70000004768,5,2,446.20000004768,0.7777777777777778,1,object_10,5,2474,0,7,0,library_2,1,memory-2step-stake-s,690,2941037,0.0-19.0-0.1-0.197,A3KFFIBJZVM0J2,3HRWUH63RXIZS6U0Z3EY966PXK25N4,3EF8EXOTT5B77H0Q9KPW2T8E6WSJ1T,6,5
198,3,object_07,object_03,846.5,5,1,335.80000007153,0.8888888888888888,1,object_10,5,2514,0,8,2,library_7,1,memory-2step-stake-s,691,2949478,0.0-19.0-0.1-0.198,A3KFFIBJZVM0J2,3HRWUH63RXIZS6U0Z3EY966PXK25N4,3EF8EXOTT5B77H0Q9KPW2T8E6WSJ1T,5,6
199,4,object_08,object_06,571.60000002384,8,2,416.20000004768,0.2222222222222222,2,object_02,1,2516,0,9,2,restaurant_1,1,memory-2step-stake-s,692,2957350,0.0-19.0-0.1-0.199,A3KFFIBJZVM0J2,3HRWUH63RXIZS6U0Z3EY966PXK25N4,3EF8EXOTT5B77H0Q9KPW2T8E6WSJ1T,7,8
200,4,object_08,object_06,700.70000004768,8,2,706.0,0.4444444444444444,2,object_02,5,2536,0,9,4,restaurant_7,1,memory-2step-stake-s,693,2965732,0.0-19.0-0.1-0.200,A3KFFIBJZVM0J2,3HRWUH63RXIZS6U0Z3EY966PXK25N4,3EF8EXOTT5B77H0Q9KPW2T8E6WSJ1T,7,8
201,2,object_05,object_04,906.69999992847,4,1,336.20000004768,0.2222222222222222,2,object_02,5,2546,0,7,2,forest_6,1,memory-2step-stake-s,694,2973540,0.0-19.0-0.1-0.201,A3KFFIBJZVM0J2,3HRWUH63RXIZS6U0Z3EY966PXK25N4,3EF8EXOTT5B77H0Q9KPW2T8E6WSJ1T,4,3
202,3,object_07,object_03,669.79999995232,5,1,369.0,0.8888888888888888,1,object_10,5,2586,0,8,3,library_2,1,memory-2step-stake-s,695,2982012,0.0-19.0-0.1-0.202,A3KFFIBJZVM0J2,3HRWUH63RXIZS6U0Z3EY966PXK25N4,3EF8EXOTT5B77H0Q9KPW2T8E6WSJ1T,5,6
203,2,object_04,object_05,980.5,3,1,313.5,0.8888888888888888,1,object_10,1,2594,0,8,0,forest_1,1,memory-2step-stake-s,696,2990425,0.0-19.0-0.1-0.203,A3KFFIBJZVM0J2,3HRWUH63RXIZS6U0Z3EY966PXK25N4,3EF8EXOTT5B77H0Q9KPW2T8E6WSJ1T,3,4
204,4,object_06,object_08,699.89999997616,8,1,401.90000009537,0.1111111111111111,2,object_02,5,2599,0,5,1,restaurant_7,1,memory-2step-stake-s,697,2998191,0.0-19.0-0.1-0.204,A3KFFIBJZVM0J2,3HRWUH63RXIZS6U0Z3EY966PXK25N4,3EF8EXOTT5B77H0Q9KPW2T8E6WSJ1T,8,7
205,1,object_01,object_09,764.19999992847,1,2,315.5,0.6666666666666666,1,object_10,1,2605,0,6,2,desert_1,1,memory-2step-stake-s,698,3006426,0.0-19.0-0.1-0.205,A3KFFIBJZVM0J2,3HRWUH63RXIZS6U0Z3EY966PXK25N4,3EF8EXOTT5B77H0Q9KPW2T8E6WSJ1T,2,1
206,4,object_08,object_06,681.60000002384,8,2,283.20000004768,0.3333333333333333,2,object_02,5,2620,0,4,3,restaurant_4,1,memory-2step-stake-s,699,3014305,0.0-19.0-0.1-0.206,A3KFFIBJZVM0J2,3HRWUH63RXIZS6U0Z3EY966PXK25N4,3EF8EXOTT5B77H0Q9KPW2T8E6WSJ1T,7,8
207,3,object_03,object_07,971.70000004768,5,2,358.0,0.4444444444444444,1,object_10,5,2640,0,4,3,library_6,1,memory-2step-stake-s,700,3022330,0.0-19.0-0.1-0.207,A3KFFIBJZVM0J2,3HRWUH63RXIZS6U0Z3EY966PXK25N4,3EF8EXOTT5B77H0Q9KPW2T8E6WSJ1T,6,5
208,3,object_03,object_07,776.5,5,2,496.90000009537,0.3333333333333333,1,object_10,5,2655,0,3,6,library_2,1,memory-2step-stake-s,701,3030377,0.0-19.0-0.1-0.208,A3KFFIBJZVM0J2,3HRWUH63RXIZS6U0Z3EY966PXK25N4,3EF8EXOTT5B77H0Q9KPW2T8E6WSJ1T,6,5
209,4,object_08,object_06,627.5,8,2,363.40000009537,0.5555555555555556,2,object_02,5,2680,0,5,5,restaurant_1,1,memory-2step-stake-s,702,3038497,0.0-19.0-0.1-0.209,A3KFFIBJZVM0J2,3HRWUH63RXIZS6U0Z3EY966PXK25N4,3EF8EXOTT5B77H0Q9KPW2T8E6WSJ1T,7,8
210,1,object_01,object_09,690.39999997616,2,1,326.60000002384,0.5555555555555556,2,object_02,1,2685,0,8,5,desert_1,1,memory-2step-stake-s,703,3046611,0.0-19.0-0.1-0.210,A3KFFIBJZVM0J2,3HRWUH63RXIZS6U0Z3EY966PXK25N4,3EF8EXOTT5B77H0Q9KPW2T8E6WSJ1T,2,1
211,1,object_09,object_01,761.30000007153,2,2,331.30000007153,0.5555555555555556,2,object_02,5,2710,0,8,5,desert_7,1,memory-2step-stake-s,704,3054736,0.0-19.0-0.1-0.211,A3KFFIBJZVM0J2,3HRWUH63RXIZS6U0Z3EY966PXK25N4,3EF8EXOTT5B77H0Q9KPW2T8E6WSJ1T,1,2
212,4,object_08,object_06,600.39999997616,8,2,1004.1000000238,0.4444444444444444,2,object_02,1,2714,0,6,4,restaurant_7,1,memory-2step-stake-s,705,3063435,0.0-19.0-0.1-0.212,A3KFFIBJZVM0J2,3HRWUH63RXIZS6U0Z3EY966PXK25N4,3EF8EXOTT5B77H0Q9KPW2T8E6WSJ1T,7,8
213,3,object_07,object_03,659.89999997616,5,1,487.0,0.2222222222222222,1,object_10,5,2724,0,2,4,library_7,1,memory-2step-stake-s,706,3071370,0.0-19.0-0.1-0.213,A3KFFIBJZVM0J2,3HRWUH63RXIZS6U0Z3EY966PXK25N4,3EF8EXOTT5B77H0Q9KPW2T8E6WSJ1T,5,6
214,4,object_06,object_08,1005.1999999285,8,1,364.20000004768,0.2222222222222222,2,object_02,5,2734,0,0,2,restaurant_2,1,memory-2step-stake-s,707,3079195,0.0-19.0-0.1-0.214,A3KFFIBJZVM0J2,3HRWUH63RXIZS6U0Z3EY966PXK25N4,3EF8EXOTT5B77H0Q9KPW2T8E6WSJ1T,8,7
215,3,object_03,object_07,807.29999995232,6,1,323.30000007153,0.5555555555555556,2,object_02,5,2759,0,3,5,library_4,1,memory-2step-stake-s,708,3087280,0.0-19.0-0.1-0.215,A3KFFIBJZVM0J2,3HRWUH63RXIZS6U0Z3EY966PXK25N4,3EF8EXOTT5B77H0Q9KPW2T8E6WSJ1T,6,5
216,3,object_03,object_07,646.20000004768,6,1,504.0,0.8888888888888888,2,object_02,5,2799,0,3,8,library_2,1,memory-2step-stake-s,709,3095855,0.0-19.0-0.1-0.216,A3KFFIBJZVM0J2,3HRWUH63RXIZS6U0Z3EY966PXK25N4,3EF8EXOTT5B77H0Q9KPW2T8E6WSJ1T,6,5
217,2,object_05,object_04,832.20000004768,4,1,755.0,0.7777777777777778,2,object_02,1,2806,0,3,7,forest_6,1,memory-2step-stake-s,710,3104599,0.0-19.0-0.1-0.217,A3KFFIBJZVM0J2,3HRWUH63RXIZS6U0Z3EY966PXK25N4,3EF8EXOTT5B77H0Q9KPW2T8E6WSJ1T,4,3
218,1,object_01,object_09,848.60000002384,2,1,732.5,0.8888888888888888,2,object_02,1,2814,0,3,8,desert_3,1,memory-2step-stake-s,711,3113437,0.0-19.0-0.1-0.218,A3KFFIBJZVM0J2,3HRWUH63RXIZS6U0Z3EY966PXK25N4,3EF8EXOTT5B77H0Q9KPW2T8E6WSJ1T,2,1
219,4,object_08,object_06,729.60000002384,8,2,641.5,0.8888888888888888,2,object_02,5,2854,0,5,8,restaurant_1,1,memory-2step-stake-s,712,3122154,0.0-19.0-0.1-0.219,A3KFFIBJZVM0J2,3HRWUH63RXIZS6U0Z3EY966PXK25N4,3EF8EXOTT5B77H0Q9KPW2T8E6WSJ1T,7,8
220,4,object_08,object_06,1209.6000000238,7,1,-1.0,0.0,1,object_10,1,2854,0,3,8,restaurant_1,1,memory-2step-stake-s,713,3130720,0.0-19.0-0.1-0.220,A3KFFIBJZVM0J2,3HRWUH63RXIZS6U0Z3EY966PXK25N4,3EF8EXOTT5B77H0Q9KPW2T8E6WSJ1T,7,8
221,1,object_01,object_09,777.60000002384,2,1,342.40000009537,0.7777777777777778,2,object_02,1,2861,0,0,7,desert_1,1,memory-2step-stake-s,714,3139062,0.0-19.0-0.1-0.221,A3KFFIBJZVM0J2,3HRWUH63RXIZS6U0Z3EY966PXK25N4,3EF8EXOTT5B77H0Q9KPW2T8E6WSJ1T,2,1
222,1,object_09,object_01,718.10000002384,1,1,310.90000009537,0.1111111111111111,1,object_10,1,2862,0,1,3,desert_3,1,memory-2step-stake-s,715,3146742,0.0-19.0-0.1-0.222,A3KFFIBJZVM0J2,3HRWUH63RXIZS6U0Z3EY966PXK25N4,3EF8EXOTT5B77H0Q9KPW2T8E6WSJ1T,1,2
223,4,object_06,object_08,655.80000007153,8,1,590.40000009537,0.3333333333333333,2,object_02,1,2865,0,1,3,restaurant_2,1,memory-2step-stake-s,716,3154921,0.0-19.0-0.1-0.223,A3KFFIBJZVM0J2,3HRWUH63RXIZS6U0Z3EY966PXK25N4,3EF8EXOTT5B77H0Q9KPW2T8E6WSJ1T,8,7
224,1,object_01,object_09,734.39999997616,2,1,360.0,0.6666666666666666,2,object_02,1,2871,0,2,6,desert_7,1,memory-2step-stake-s,717,3163169,0.0-19.0-0.1-0.224,A3KFFIBJZVM0J2,3HRWUH63RXIZS6U0Z3EY966PXK25N4,3EF8EXOTT5B77H0Q9KPW2T8E6WSJ1T,2,1
225,3,object_07,object_03,934.39999997616,6,2,564.29999995232,0.2222222222222222,2,object_02,1,2873,0,1,2,library_7,1,memory-2step-stake-s,718,3171318,0.0-19.0-0.1-0.225,A3KFFIBJZVM0J2,3HRWUH63RXIZS6U0Z3EY966PXK25N4,3EF8EXOTT5B77H0Q9KPW2T8E6WSJ1T,5,6
226,2,object_04,object_05,1083.3999999762,3,1,515.5,0.4444444444444444,1,object_10,1,2877,0,4,2,forest_7,1,memory-2step-stake-s,719,3179512,0.0-19.0-0.1-0.226,A3KFFIBJZVM0J2,3HRWUH63RXIZS6U0Z3EY966PXK25N4,3EF8EXOTT5B77H0Q9KPW2T8E6WSJ1T,3,4
227,4,object_08,object_06,921.39999997616,7,1,348.30000007153,0.4444444444444444,1,object_10,5,2897,0,4,0,restaurant_1,1,memory-2step-stake-s,720,3187531,0.0-19.0-0.1-0.227,A3KFFIBJZVM0J2,3HRWUH63RXIZS6U0Z3EY966PXK25N4,3EF8EXOTT5B77H0Q9KPW2T8E6WSJ1T,7,8
228,4,object_08,object_06,923.59999990463,8,2,691.29999995232,0.1111111111111111,2,object_02,5,2902,0,4,1,restaurant_1,1,memory-2step-stake-s,721,3195579,0.0-19.0-0.1-0.228,A3KFFIBJZVM0J2,3HRWUH63RXIZS6U0Z3EY966PXK25N4,3EF8EXOTT5B77H0Q9KPW2T8E6WSJ1T,7,8
229,1,object_09,object_01,953.0,2,2,397.10000002384,0.2222222222222222,2,object_02,1,2904,0,4,2,desert_3,1,memory-2step-stake-s,722,3203445,0.0-19.0-0.1-0.229,A3KFFIBJZVM0J2,3HRWUH63RXIZS6U0Z3EY966PXK25N4,3EF8EXOTT5B77H0Q9KPW2T8E6WSJ1T,1,2
230,4,object_06,object_08,963.5,7,2,366.89999997616,0.4444444444444444,1,object_10,5,2924,0,4,1,restaurant_4,1,memory-2step-stake-s,723,3211467,0.0-19.0-0.1-0.230,A3KFFIBJZVM0J2,3HRWUH63RXIZS6U0Z3EY966PXK25N4,3EF8EXOTT5B77H0Q9KPW2T8E6WSJ1T,8,7
231,4,object_08,object_06,680.10000002384,7,1,354.39999997616,0.7777777777777778,1,object_10,1,2931,0,7,0,restaurant_4,1,memory-2step-stake-s,724,3219791,0.0-19.0-0.1-0.231,A3KFFIBJZVM0J2,3HRWUH63RXIZS6U0Z3EY966PXK25N4,3EF8EXOTT5B77H0Q9KPW2T8E6WSJ1T,7,8
232,1,object_09,object_01,1030.1999999285,1,1,450.10000002384,0.7777777777777778,1,object_10,5,2966,0,7,3,desert_1,1,memory-2step-stake-s,725,3228258,0.0-19.0-0.1-0.232,A3KFFIBJZVM0J2,3HRWUH63RXIZS6U0Z3EY966PXK25N4,3EF8EXOTT5B77H0Q9KPW2T8E6WSJ1T,1,2
233,3,object_07,object_03,738.80000007153,6,2,408.40000009537,0.2222222222222222,2,object_02,5,2976,0,7,2,library_6,1,memory-2step-stake-s,726,3236131,0.0-19.0-0.1-0.233,A3KFFIBJZVM0J2,3HRWUH63RXIZS6U0Z3EY966PXK25N4,3EF8EXOTT5B77H0Q9KPW2T8E6WSJ1T,5,6
234,2,object_05,object_04,754.20000004768,4,1,474.29999995232,0.2222222222222222,2,object_02,1,2978,0,6,2,forest_6,1,memory-2step-stake-s,727,3244057,0.0-19.0-0.1-0.234,A3KFFIBJZVM0J2,3HRWUH63RXIZS6U0Z3EY966PXK25N4,3EF8EXOTT5B77H0Q9KPW2T8E6WSJ1T,4,3
235,2,object_05,object_04,702.10000002384,4,1,469.0,0.2222222222222222,2,object_02,1,2980,0,7,2,forest_7,1,memory-2step-stake-s,728,3251979,0.0-19.0-0.1-0.235,A3KFFIBJZVM0J2,3HRWUH63RXIZS6U0Z3EY966PXK25N4,3EF8EXOTT5B77H0Q9KPW2T8E6WSJ1T,4,3
236,2,object_04,object_05,784.20000004768,4,2,320.70000004768,0.5555555555555556,2,object_02,1,2985,0,8,5,forest_7,1,memory-2step-stake-s,729,3260092,0.0-19.0-0.1-0.236,A3KFFIBJZVM0J2,3HRWUH63RXIZS6U0Z3EY966PXK25N4,3EF8EXOTT5B77H0Q9KPW2T8E6WSJ1T,3,4
237,4,object_06,object_08,824.69999992847,7,2,453.89999997616,0.4444444444444444,1,object_10,5,3005,0,4,7,restaurant_4,1,memory-2step-stake-s,730,3268213,0.0-19.0-0.1-0.237,A3KFFIBJZVM0J2,3HRWUH63RXIZS6U0Z3EY966PXK25N4,3EF8EXOTT5B77H0Q9KPW2T8E6WSJ1T,8,7
238,4,object_06,object_08,610.40000009537,7,2,472.70000004768,0.4444444444444444,1,object_10,5,3025,0,4,8,restaurant_2,1,memory-2step-stake-s,731,3276334,0.0-19.0-0.1-0.238,A3KFFIBJZVM0J2,3HRWUH63RXIZS6U0Z3EY966PXK25N4,3EF8EXOTT5B77H0Q9KPW2T8E6WSJ1T,8,7
239,2,object_04,object_05,757.0,4,2,371.69999992847,0.6666666666666666,2,object_02,5,3055,0,1,6,forest_3,1,memory-2step-stake-s,732,3284575,0.0-19.0-0.1-0.239,A3KFFIBJZVM0J2,3HRWUH63RXIZS6U0Z3EY966PXK25N4,3EF8EXOTT5B77H0Q9KPW2T8E6WSJ1T,3,4
240,1,object_01,object_09,790.5,1,2,125.19999992847,0.0,1,object_10,1,3055,0,0,5,desert_8,1,memory-2step-stake-s,733,3291959,0.0-19.0-0.1-0.240,A3KFFIBJZVM0J2,3HRWUH63RXIZS6U0Z3EY966PXK25N4,3EF8EXOTT5B77H0Q9KPW2T8E6WSJ1T,2,1
241,4,object_08,object_06,947.80000007153,7,1,629.29999995232,0.0,1,object_10,5,3055,0,0,8,restaurant_1,1,memory-2step-stake-s,734,3299874,0.0-19.0-0.1-0.241,A3KFFIBJZVM0J2,3HRWUH63RXIZS6U0Z3EY966PXK25N4,3EF8EXOTT5B77H0Q9KPW2T8E6WSJ1T,7,8
242,3,object_07,object_03,721.20000004768,6,2,363.29999995232,0.8888888888888888,2,object_02,5,3095,0,2,8,library_6,1,memory-2step-stake-s,735,3308336,0.0-19.0-0.1-0.242,A3KFFIBJZVM0J2,3HRWUH63RXIZS6U0Z3EY966PXK25N4,3EF8EXOTT5B77H0Q9KPW2T8E6WSJ1T,5,6
243,2,object_05,object_04,901.29999995232,3,2,389.90000009537,0.2222222222222222,1,object_10,1,3097,0,2,6,forest_7,1,memory-2step-stake-s,736,3316209,0.0-19.0-0.1-0.243,A3KFFIBJZVM0J2,3HRWUH63RXIZS6U0Z3EY966PXK25N4,3EF8EXOTT5B77H0Q9KPW2T8E6WSJ1T,4,3
244,2,object_04,object_05,794.30000007153,4,2,295.90000009537,0.7777777777777778,2,object_02,1,3104,0,2,7,forest_6,1,memory-2step-stake-s,737,3324509,0.0-19.0-0.1-0.244,A3KFFIBJZVM0J2,3HRWUH63RXIZS6U0Z3EY966PXK25N4,3EF8EXOTT5B77H0Q9KPW2T8E6WSJ1T,3,4
245,1,object_09,object_01,631.69999992847,1,1,505.09999990463,0.3333333333333333,1,object_10,1,3107,0,3,7,desert_7,1,memory-2step-stake-s,738,3332595,0.0-19.0-0.1-0.245,A3KFFIBJZVM0J2,3HRWUH63RXIZS6U0Z3EY966PXK25N4,3EF8EXOTT5B77H0Q9KPW2T8E6WSJ1T,1,2
246,4,object_08,object_06,982.5,7,1,567.5,0.1111111111111111,1,object_10,5,3112,0,1,6,restaurant_4,1,memory-2step-stake-s,739,3340516,0.0-19.0-0.1-0.246,A3KFFIBJZVM0J2,3HRWUH63RXIZS6U0Z3EY966PXK25N4,3EF8EXOTT5B77H0Q9KPW2T8E6WSJ1T,7,8
247,3,object_03,object_07,869.0,6,1,518.89999997616,0.3333333333333333,2,object_02,1,3115,0,2,3,library_6,1,memory-2step-stake-s,740,3348597,0.0-19.0-0.1-0.247,A3KFFIBJZVM0J2,3HRWUH63RXIZS6U0Z3EY966PXK25N4,3EF8EXOTT5B77H0Q9KPW2T8E6WSJ1T,6,5
248,2,object_04,object_05,1048.3000000715,3,1,373.5,0.1111111111111111,1,object_10,1,3116,0,1,4,forest_1,1,memory-2step-stake-s,741,3356355,0.0-19.0-0.1-0.248,A3KFFIBJZVM0J2,3HRWUH63RXIZS6U0Z3EY966PXK25N4,3EF8EXOTT5B77H0Q9KPW2T8E6WSJ1T,3,4
249,3,object_07,object_03,710.10000002384,6,2,303.5,0.4444444444444444,2,object_02,5,3136,0,4,4,library_4,1,memory-2step-stake-s,742,3364327,0.0-19.0-0.1-0.249,A3KFFIBJZVM0J2,3HRWUH63RXIZS6U0Z3EY966PXK25N4,3EF8EXOTT5B77H0Q9KPW2T8E6WSJ1T,5,6
250,1,object_01,object_09,784.70000004768,2,1,294.39999997616,0.5555555555555556,2,object_02,1,3141,0,1,5,desert_7,1,memory-2step-stake-s,743,3372397,0.0-19.0-0.1-0.250,A3KFFIBJZVM0J2,3HRWUH63RXIZS6U0Z3EY966PXK25N4,3EF8EXOTT5B77H0Q9KPW2T8E6WSJ1T,2,1
251,3,object_03,object_07,888.89999997616,6,1,298.10000002384,0.4444444444444444,2,object_02,5,3161,0,2,4,library_6,1,memory-2step-stake-s,744,3380373,0.0-19.0-0.1-0.251,A3KFFIBJZVM0J2,3HRWUH63RXIZS6U0Z3EY966PXK25N4,3EF8EXOTT5B77H0Q9KPW2T8E6WSJ1T,6,5
252,4,object_06,object_08,718.60000002384,7,2,502.10000002384,0.1111111111111111,1,object_10,5,3166,0,1,2,restaurant_2,1,memory-2step-stake-s,745,3388225,0.0-19.0-0.1-0.252,A3KFFIBJZVM0J2,3HRWUH63RXIZS6U0Z3EY966PXK25N4,3EF8EXOTT5B77H0Q9KPW2T8E6WSJ1T,8,7
253,3,object_03,object_07,858.29999995232,5,2,303.0,0.5555555555555556,1,object_10,5,3191,0,5,0,library_6,1,memory-2step-stake-s,746,3396303,0.0-19.0-0.1-0.253,A3KFFIBJZVM0J2,3HRWUH63RXIZS6U0Z3EY966PXK25N4,3EF8EXOTT5B77H0Q9KPW2T8E6WSJ1T,6,5
254,4,object_06,object_08,570.69999992847,7,2,602.69999992847,0.4444444444444444,1,object_10,5,3211,0,4,2,restaurant_1,1,memory-2step-stake-s,747,3404593,0.0-19.0-0.1-0.254,A3KFFIBJZVM0J2,3HRWUH63RXIZS6U0Z3EY966PXK25N4,3EF8EXOTT5B77H0Q9KPW2T8E6WSJ1T,8,7
255,2,object_05,object_04,594.20000004768,4,1,327.09999990463,0.0,2,object_02,5,3211,0,2,0,forest_6,1,memory-2step-stake-s,748,3412190,0.0-19.0-0.1-0.255,A3KFFIBJZVM0J2,3HRWUH63RXIZS6U0Z3EY966PXK25N4,3EF8EXOTT5B77H0Q9KPW2T8E6WSJ1T,4,3
