,state1,stim_left,stim_right,rt_1,choice1,response1,rt_2,points,state2,stim_state2,stake,score,practice,rews1,rews2,background,high_arm,trial_type,trial_index,time_elapsed,internal_node_id,subid,hitid,assignmentid,stim_left_num,stim_right_num
0,3,object_04,object_09,699.40000003576,5,1,-1.0,0.0,1,object_06,5,0,0,8,2,library_1,1,memory-2step-stake-s,492,988524,0.0-19.0-0.0-0.0,A252P9NJHP5QOZ,3A3KKYU7Q6XNN7OKJ3M7MRU2CR5MWB,31Q0U3WYDTVENMZO8B0ZZ335F3771T,5,6
1,4,object_03,object_10,708.0,7,2,-1.0,0.0,1,object_06,1,0,0,9,3,restaurant_7,1,memory-2step-stake-s,493,997126,0.0-19.0-0.0-0.1,A252P9NJHP5QOZ,3A3KKYU7Q6XNN7OKJ3M7MRU2CR5MWB,31Q0U3WYDTVENMZO8B0ZZ335F3771T,8,7
2,2,object_07,object_08,842.40000003576,4,2,-1.0,0.0,2,object_05,1,0,0,9,3,forest_2,1,memory-2step-stake-s,494,1005726,0.0-19.0-0.0-0.2,A252P9NJHP5QOZ,3A3KKYU7Q6XNN7OKJ3M7MRU2CR5MWB,31Q0U3WYDTVENMZO8B0ZZ335F3771T,3,4
3,2,object_07,object_08,846.80000001192,3,1,-1.0,0.0,1,object_06,1,0,0,7,8,forest_3,1,memory-2step-stake-s,495,1014355,0.0-19.0-0.0-0.3,A252P9NJHP5QOZ,3A3KKYU7Q6XNN7OKJ3M7MRU2CR5MWB,31Q0U3WYDTVENMZO8B0ZZ335F3771T,3,4
4,4,object_10,object_03,990.59999996424,8,2,-1.0,0.0,2,object_05,5,0,0,9,7,restaurant_4,1,memory-2step-stake-s,496,1022955,0.0-19.0-0.0-0.4,A252P9NJHP5QOZ,3A3KKYU7Q6XNN7OKJ3M7MRU2CR5MWB,31Q0U3WYDTVENMZO8B0ZZ335F3771T,7,8
5,1,object_02,object_01,543.5,2,1,368.89999997616,0.8888888888888888,2,object_05,1,8,0,7,8,desert_2,1,memory-2step-stake-s,497,1031556,0.0-19.0-0.0-0.5,A252P9NJHP5QOZ,3A3KKYU7Q6XNN7OKJ3M7MRU2CR5MWB,31Q0U3WYDTVENMZO8B0ZZ335F3771T,2,1
6,4,object_10,object_03,321.39999997616,8,2,354.89999997616,0.7777777777777778,2,object_05,5,43,0,7,7,restaurant_1,1,memory-2step-stake-s,498,1040029,0.0-19.0-0.0-0.6,A252P9NJHP5QOZ,3A3KKYU7Q6XNN7OKJ3M7MRU2CR5MWB,31Q0U3WYDTVENMZO8B0ZZ335F3771T,7,8
7,1,object_01,object_02,635.39999997616,2,2,640.60000002384,0.4444444444444444,2,object_05,1,47,0,6,4,desert_4,1,memory-2step-stake-s,499,1048442,0.0-19.0-0.0-0.7,A252P9NJHP5QOZ,3A3KKYU7Q6XNN7OKJ3M7MRU2CR5MWB,31Q0U3WYDTVENMZO8B0ZZ335F3771T,1,2
8,4,object_03,object_10,678.39999997616,8,1,486.80000001192,0.2222222222222222,2,object_05,1,49,0,8,2,restaurant_4,1,memory-2step-stake-s,500,1056489,0.0-19.0-0.0-0.8,A252P9NJHP5QOZ,3A3KKYU7Q6XNN7OKJ3M7MRU2CR5MWB,31Q0U3WYDTVENMZO8B0ZZ335F3771T,8,7
9,2,object_07,object_08,746.39999997616,4,2,357.19999998808,0.4444444444444444,2,object_05,1,53,0,9,4,forest_6,1,memory-2step-stake-s,501,1064613,0.0-19.0-0.0-0.9,A252P9NJHP5QOZ,3A3KKYU7Q6XNN7OKJ3M7MRU2CR5MWB,31Q0U3WYDTVENMZO8B0ZZ335F3771T,3,4
10,3,object_09,object_04,908.19999998808,6,1,403.0,0.5555555555555556,2,object_05,5,78,0,8,5,library_7,1,memory-2step-stake-s,502,1072859,0.0-19.0-0.0-0.10,A252P9NJHP5QOZ,3A3KKYU7Q6XNN7OKJ3M7MRU2CR5MWB,31Q0U3WYDTVENMZO8B0ZZ335F3771T,6,5
11,4,object_03,object_10,897.69999998808,7,2,638.80000001192,0.7777777777777778,1,object_06,5,113,0,7,6,restaurant_7,1,memory-2step-stake-s,503,1081607,0.0-19.0-0.0-0.11,A252P9NJHP5QOZ,3A3KKYU7Q6XNN7OKJ3M7MRU2CR5MWB,31Q0U3WYDTVENMZO8B0ZZ335F3771T,8,7
12,4,object_10,object_03,765.39999997616,7,1,455.10000002384,0.8888888888888888,1,object_06,5,153,0,8,6,restaurant_4,1,memory-2step-stake-s,504,1090242,0.0-19.0-0.0-0.12,A252P9NJHP5QOZ,3A3KKYU7Q6XNN7OKJ3M7MRU2CR5MWB,31Q0U3WYDTVENMZO8B0ZZ335F3771T,7,8
13,1,object_02,object_01,568.0,1,2,408.09999996424,0.2222222222222222,1,object_06,5,163,0,2,8,desert_7,1,memory-2step-stake-s,505,1098156,0.0-19.0-0.0-0.13,A252P9NJHP5QOZ,3A3KKYU7Q6XNN7OKJ3M7MRU2CR5MWB,31Q0U3WYDTVENMZO8B0ZZ335F3771T,2,1
14,1,object_01,object_02,816.20000004768,2,2,369.39999997616,0.6666666666666666,2,object_05,5,193,0,0,6,desert_7,1,memory-2step-stake-s,506,1106525,0.0-19.0-0.0-0.14,A252P9NJHP5QOZ,3A3KKYU7Q6XNN7OKJ3M7MRU2CR5MWB,31Q0U3WYDTVENMZO8B0ZZ335F3771T,1,2
15,4,object_03,object_10,737.80000001192,8,1,527.40000003576,0.3333333333333333,2,object_05,5,208,0,1,3,restaurant_4,1,memory-2step-stake-s,507,1114668,0.0-19.0-0.0-0.15,A252P9NJHP5QOZ,3A3KKYU7Q6XNN7OKJ3M7MRU2CR5MWB,31Q0U3WYDTVENMZO8B0ZZ335F3771T,8,7
16,1,object_01,object_02,829.39999997616,2,2,374.10000002384,0.5555555555555556,2,object_05,1,213,0,2,5,desert_2,1,memory-2step-stake-s,508,1122894,0.0-19.0-0.0-0.16,A252P9NJHP5QOZ,3A3KKYU7Q6XNN7OKJ3M7MRU2CR5MWB,31Q0U3WYDTVENMZO8B0ZZ335F3771T,1,2
17,2,object_08,object_07,886.89999997616,4,1,362.29999995232,0.4444444444444444,2,object_05,1,217,0,0,4,forest_3,1,memory-2step-stake-s,509,1131008,0.0-19.0-0.0-0.17,A252P9NJHP5QOZ,3A3KKYU7Q6XNN7OKJ3M7MRU2CR5MWB,31Q0U3WYDTVENMZO8B0ZZ335F3771T,4,3
18,1,object_01,object_02,815.89999997616,1,1,386.90000003576,0.0,1,object_06,1,217,0,0,2,desert_6,1,memory-2step-stake-s,510,1138726,0.0-19.0-0.0-0.18,A252P9NJHP5QOZ,3A3KKYU7Q6XNN7OKJ3M7MRU2CR5MWB,31Q0U3WYDTVENMZO8B0ZZ335F3771T,1,2
19,4,object_10,object_03,546.20000004768,8,2,503.60000002384,0.2222222222222222,2,object_05,5,227,0,1,2,restaurant_8,1,memory-2step-stake-s,511,1146764,0.0-19.0-0.0-0.19,A252P9NJHP5QOZ,3A3KKYU7Q6XNN7OKJ3M7MRU2CR5MWB,31Q0U3WYDTVENMZO8B0ZZ335F3771T,7,8
20,2,object_08,object_07,718.39999997616,3,2,505.30000001192,0.4444444444444444,1,object_06,1,231,0,4,0,forest_3,1,memory-2step-stake-s,512,1155035,0.0-19.0-0.0-0.20,A252P9NJHP5QOZ,3A3KKYU7Q6XNN7OKJ3M7MRU2CR5MWB,31Q0U3WYDTVENMZO8B0ZZ335F3771T,4,3
21,3,object_09,object_04,762.79999995232,6,1,656.19999998808,0.2222222222222222,2,object_05,1,233,0,6,2,library_4,1,memory-2step-stake-s,513,1163214,0.0-19.0-0.0-0.21,A252P9NJHP5QOZ,3A3KKYU7Q6XNN7OKJ3M7MRU2CR5MWB,31Q0U3WYDTVENMZO8B0ZZ335F3771T,6,5
22,1,object_02,object_01,867.30000001192,1,2,413.69999998808,0.5555555555555556,1,object_06,5,258,0,5,3,desert_7,1,memory-2step-stake-s,514,1171538,0.0-19.0-0.0-0.22,A252P9NJHP5QOZ,3A3KKYU7Q6XNN7OKJ3M7MRU2CR5MWB,31Q0U3WYDTVENMZO8B0ZZ335F3771T,2,1
23,4,object_10,object_03,697.0,8,2,376.5,0.4444444444444444,2,object_05,5,278,0,4,4,restaurant_8,1,memory-2step-stake-s,515,1179664,0.0-19.0-0.0-0.23,A252P9NJHP5QOZ,3A3KKYU7Q6XNN7OKJ3M7MRU2CR5MWB,31Q0U3WYDTVENMZO8B0ZZ335F3771T,7,8
24,3,object_09,object_04,416.0,6,1,514.0,0.3333333333333333,2,object_05,5,293,0,5,3,library_7,1,memory-2step-stake-s,516,1187794,0.0-19.0-0.0-0.24,A252P9NJHP5QOZ,3A3KKYU7Q6XNN7OKJ3M7MRU2CR5MWB,31Q0U3WYDTVENMZO8B0ZZ335F3771T,6,5
25,4,object_03,object_10,422.40000003576,7,2,462.39999997616,0.2222222222222222,1,object_06,5,303,0,2,3,restaurant_7,1,memory-2step-stake-s,517,1195741,0.0-19.0-0.0-0.25,A252P9NJHP5QOZ,3A3KKYU7Q6XNN7OKJ3M7MRU2CR5MWB,31Q0U3WYDTVENMZO8B0ZZ335F3771T,8,7
26,2,object_08,object_07,836.79999995232,4,1,461.19999998808,0.1111111111111111,2,object_05,5,308,0,1,1,forest_6,1,memory-2step-stake-s,518,1203601,0.0-19.0-0.0-0.26,A252P9NJHP5QOZ,3A3KKYU7Q6XNN7OKJ3M7MRU2CR5MWB,31Q0U3WYDTVENMZO8B0ZZ335F3771T,4,3
27,1,object_01,object_02,1156.1999999881,1,1,395.30000001192,0.0,1,object_06,5,308,0,0,1,desert_7,1,memory-2step-stake-s,519,1211269,0.0-19.0-0.0-0.27,A252P9NJHP5QOZ,3A3KKYU7Q6XNN7OKJ3M7MRU2CR5MWB,31Q0U3WYDTVENMZO8B0ZZ335F3771T,1,2
28,4,object_10,object_03,687.19999998808,8,2,434.40000003576,0.0,2,object_05,5,308,0,2,0,restaurant_7,1,memory-2step-stake-s,520,1218976,0.0-19.0-0.0-0.28,A252P9NJHP5QOZ,3A3KKYU7Q6XNN7OKJ3M7MRU2CR5MWB,31Q0U3WYDTVENMZO8B0ZZ335F3771T,7,8
29,3,object_09,object_04,965.19999998808,5,2,379.59999996424,0.1111111111111111,1,object_06,5,313,0,1,3,library_4,1,memory-2step-stake-s,521,1226756,0.0-19.0-0.0-0.29,A252P9NJHP5QOZ,3A3KKYU7Q6XNN7OKJ3M7MRU2CR5MWB,31Q0U3WYDTVENMZO8B0ZZ335F3771T,6,5
30,1,object_01,object_02,1062.6999999881,1,1,559.0,0.2222222222222222,1,object_06,5,323,0,2,5,desert_2,1,memory-2step-stake-s,522,1234820,0.0-19.0-0.0-0.30,A252P9NJHP5QOZ,3A3KKYU7Q6XNN7OKJ3M7MRU2CR5MWB,31Q0U3WYDTVENMZO8B0ZZ335F3771T,1,2
31,2,object_07,object_08,1180.1999999881,4,2,505.09999996424,0.5555555555555556,2,object_05,1,328,0,4,5,forest_2,1,memory-2step-stake-s,523,1243151,0.0-19.0-0.0-0.31,A252P9NJHP5QOZ,3A3KKYU7Q6XNN7OKJ3M7MRU2CR5MWB,31Q0U3WYDTVENMZO8B0ZZ335F3771T,3,4
32,3,object_04,object_09,980.19999998808,6,2,411.89999997616,0.2222222222222222,2,object_05,1,330,0,2,2,library_7,1,memory-2step-stake-s,524,1251077,0.0-19.0-0.0-0.32,A252P9NJHP5QOZ,3A3KKYU7Q6XNN7OKJ3M7MRU2CR5MWB,31Q0U3WYDTVENMZO8B0ZZ335F3771T,5,6
33,2,object_08,object_07,836.39999997616,4,1,387.60000002384,0.6666666666666666,2,object_05,1,336,0,0,6,forest_8,1,memory-2step-stake-s,525,1259434,0.0-19.0-0.0-0.33,A252P9NJHP5QOZ,3A3KKYU7Q6XNN7OKJ3M7MRU2CR5MWB,31Q0U3WYDTVENMZO8B0ZZ335F3771T,4,3
34,1,object_02,object_01,910.89999997616,2,1,407.20000004768,0.8888888888888888,2,object_05,1,344,0,1,8,desert_6,1,memory-2step-stake-s,526,1268026,0.0-19.0-0.0-0.34,A252P9NJHP5QOZ,3A3KKYU7Q6XNN7OKJ3M7MRU2CR5MWB,31Q0U3WYDTVENMZO8B0ZZ335F3771T,2,1
35,3,object_04,object_09,630.80000001192,6,2,433.10000002384,0.7777777777777778,2,object_05,1,351,0,0,7,library_1,1,memory-2step-stake-s,527,1276533,0.0-19.0-0.0-0.35,A252P9NJHP5QOZ,3A3KKYU7Q6XNN7OKJ3M7MRU2CR5MWB,31Q0U3WYDTVENMZO8B0ZZ335F3771T,5,6
36,2,object_08,object_07,871.60000002384,3,2,403.69999998808,0.2222222222222222,1,object_06,1,353,0,2,6,forest_3,1,memory-2step-stake-s,528,1284444,0.0-19.0-0.0-0.36,A252P9NJHP5QOZ,3A3KKYU7Q6XNN7OKJ3M7MRU2CR5MWB,31Q0U3WYDTVENMZO8B0ZZ335F3771T,4,3
37,2,object_07,object_08,844.90000003576,4,2,330.5,0.4444444444444444,2,object_05,1,357,0,2,4,forest_3,1,memory-2step-stake-s,529,1292557,0.0-19.0-0.0-0.37,A252P9NJHP5QOZ,3A3KKYU7Q6XNN7OKJ3M7MRU2CR5MWB,31Q0U3WYDTVENMZO8B0ZZ335F3771T,3,4
38,2,object_08,object_07,591.19999998808,4,1,485.0,0.3333333333333333,2,object_05,1,360,0,3,3,forest_6,1,memory-2step-stake-s,530,1300662,0.0-19.0-0.0-0.38,A252P9NJHP5QOZ,3A3KKYU7Q6XNN7OKJ3M7MRU2CR5MWB,31Q0U3WYDTVENMZO8B0ZZ335F3771T,4,3
39,2,object_08,object_07,241.09999996424,3,2,378.89999997616,0.0,1,object_06,1,360,0,0,2,forest_2,1,memory-2step-stake-s,531,1308317,0.0-19.0-0.0-0.39,A252P9NJHP5QOZ,3A3KKYU7Q6XNN7OKJ3M7MRU2CR5MWB,31Q0U3WYDTVENMZO8B0ZZ335F3771T,4,3
40,2,object_07,object_08,865.69999998808,4,2,411.79999995232,0.3333333333333333,2,object_05,1,363,0,2,3,forest_2,1,memory-2step-stake-s,532,1316334,0.0-19.0-0.0-0.40,A252P9NJHP5QOZ,3A3KKYU7Q6XNN7OKJ3M7MRU2CR5MWB,31Q0U3WYDTVENMZO8B0ZZ335F3771T,3,4
41,4,object_03,object_10,660.80000001192,8,1,466.39999997616,0.0,2,object_05,5,363,0,2,0,restaurant_1,1,memory-2step-stake-s,533,1324092,0.0-19.0-0.0-0.41,A252P9NJHP5QOZ,3A3KKYU7Q6XNN7OKJ3M7MRU2CR5MWB,31Q0U3WYDTVENMZO8B0ZZ335F3771T,8,7
42,4,object_03,object_10,788.5,7,2,402.80000001192,0.1111111111111111,1,object_06,5,368,0,1,3,restaurant_4,1,memory-2step-stake-s,534,1331902,0.0-19.0-0.0-0.42,A252P9NJHP5QOZ,3A3KKYU7Q6XNN7OKJ3M7MRU2CR5MWB,31Q0U3WYDTVENMZO8B0ZZ335F3771T,8,7
43,2,object_08,object_07,879.69999998808,3,2,376.0,0.4444444444444444,1,object_06,5,388,0,4,5,forest_2,1,memory-2step-stake-s,535,1340004,0.0-19.0-0.0-0.43,A252P9NJHP5QOZ,3A3KKYU7Q6XNN7OKJ3M7MRU2CR5MWB,31Q0U3WYDTVENMZO8B0ZZ335F3771T,4,3
44,3,object_04,object_09,855.29999995232,6,2,442.40000003576,0.2222222222222222,2,object_05,5,398,0,5,2,library_5,1,memory-2step-stake-s,536,1347954,0.0-19.0-0.0-0.44,A252P9NJHP5QOZ,3A3KKYU7Q6XNN7OKJ3M7MRU2CR5MWB,31Q0U3WYDTVENMZO8B0ZZ335F3771T,5,6
45,1,object_02,object_01,290.79999995232,2,1,1371.8000000119,0.1111111111111111,2,object_05,1,399,0,4,1,desert_7,1,memory-2step-stake-s,537,1356727,0.0-19.0-0.0-0.45,A252P9NJHP5QOZ,3A3KKYU7Q6XNN7OKJ3M7MRU2CR5MWB,31Q0U3WYDTVENMZO8B0ZZ335F3771T,2,1
46,3,object_04,object_09,478.69999998808,6,2,442.19999998808,0.3333333333333333,2,object_05,1,402,0,2,3,library_5,1,memory-2step-stake-s,538,1364803,0.0-19.0-0.0-0.46,A252P9NJHP5QOZ,3A3KKYU7Q6XNN7OKJ3M7MRU2CR5MWB,31Q0U3WYDTVENMZO8B0ZZ335F3771T,5,6
47,4,object_03,object_10,978.30000001192,8,1,585.79999995232,0.1111111111111111,2,object_05,1,403,0,0,1,restaurant_4,1,memory-2step-stake-s,539,1372766,0.0-19.0-0.0-0.47,A252P9NJHP5QOZ,3A3KKYU7Q6XNN7OKJ3M7MRU2CR5MWB,31Q0U3WYDTVENMZO8B0ZZ335F3771T,8,7
48,2,object_07,object_08,850.60000002384,3,1,433.69999998808,0.1111111111111111,1,object_06,1,404,0,1,1,forest_8,1,memory-2step-stake-s,540,1380573,0.0-19.0-0.0-0.48,A252P9NJHP5QOZ,3A3KKYU7Q6XNN7OKJ3M7MRU2CR5MWB,31Q0U3WYDTVENMZO8B0ZZ335F3771T,3,4
49,1,object_01,object_02,399.69999998808,2,2,312.19999998808,0.1111111111111111,2,object_05,1,405,0,2,1,desert_4,1,memory-2step-stake-s,541,1388284,0.0-19.0-0.0-0.49,A252P9NJHP5QOZ,3A3KKYU7Q6XNN7OKJ3M7MRU2CR5MWB,31Q0U3WYDTVENMZO8B0ZZ335F3771T,1,2
50,4,object_10,object_03,779.10000002384,7,1,404.0,0.1111111111111111,1,object_06,5,410,0,1,4,restaurant_7,1,memory-2step-stake-s,542,1396083,0.0-19.0-0.0-0.50,A252P9NJHP5QOZ,3A3KKYU7Q6XNN7OKJ3M7MRU2CR5MWB,31Q0U3WYDTVENMZO8B0ZZ335F3771T,7,8
51,4,object_03,object_10,840.80000001192,8,1,455.89999997616,0.6666666666666666,2,object_05,5,440,0,3,6,restaurant_4,1,memory-2step-stake-s,543,1404490,0.0-19.0-0.0-0.51,A252P9NJHP5QOZ,3A3KKYU7Q6XNN7OKJ3M7MRU2CR5MWB,31Q0U3WYDTVENMZO8B0ZZ335F3771T,8,7
52,2,object_08,object_07,671.0,4,1,342.19999998808,0.3333333333333333,2,object_05,1,443,0,5,3,forest_6,1,memory-2step-stake-s,544,1412450,0.0-19.0-0.0-0.52,A252P9NJHP5QOZ,3A3KKYU7Q6XNN7OKJ3M7MRU2CR5MWB,31Q0U3WYDTVENMZO8B0ZZ335F3771T,4,3
53,1,object_01,object_02,710.40000003576,2,2,1187.8999999762,0.2222222222222222,2,object_05,5,453,0,3,2,desert_7,1,memory-2step-stake-s,545,1421167,0.0-19.0-0.0-0.53,A252P9NJHP5QOZ,3A3KKYU7Q6XNN7OKJ3M7MRU2CR5MWB,31Q0U3WYDTVENMZO8B0ZZ335F3771T,1,2
54,2,object_08,object_07,859.10000002384,3,2,336.5,0.1111111111111111,1,object_06,1,454,0,1,1,forest_3,1,memory-2step-stake-s,546,1428887,0.0-19.0-0.0-0.54,A252P9NJHP5QOZ,3A3KKYU7Q6XNN7OKJ3M7MRU2CR5MWB,31Q0U3WYDTVENMZO8B0ZZ335F3771T,4,3
55,3,object_09,object_04,808.39999997616,6,1,512.60000002384,0.0,2,object_05,1,454,0,1,0,library_4,1,memory-2step-stake-s,547,1436721,0.0-19.0-0.0-0.55,A252P9NJHP5QOZ,3A3KKYU7Q6XNN7OKJ3M7MRU2CR5MWB,31Q0U3WYDTVENMZO8B0ZZ335F3771T,6,5
56,1,object_02,object_01,775.5,1,2,391.0,0.1111111111111111,1,object_06,1,455,0,1,1,desert_6,1,memory-2step-stake-s,548,1444510,0.0-19.0-0.0-0.56,A252P9NJHP5QOZ,3A3KKYU7Q6XNN7OKJ3M7MRU2CR5MWB,31Q0U3WYDTVENMZO8B0ZZ335F3771T,2,1
57,3,object_04,object_09,925.09999996424,5,1,373.90000003576,0.2222222222222222,1,object_06,5,465,0,2,0,library_5,1,memory-2step-stake-s,549,1452374,0.0-19.0-0.0-0.57,A252P9NJHP5QOZ,3A3KKYU7Q6XNN7OKJ3M7MRU2CR5MWB,31Q0U3WYDTVENMZO8B0ZZ335F3771T,5,6
58,2,object_08,object_07,744.0,3,2,754.10000002384,0.1111111111111111,1,object_06,1,466,0,1,1,forest_8,1,memory-2step-stake-s,550,1460504,0.0-19.0-0.0-0.58,A252P9NJHP5QOZ,3A3KKYU7Q6XNN7OKJ3M7MRU2CR5MWB,31Q0U3WYDTVENMZO8B0ZZ335F3771T,4,3
59,1,object_02,object_01,506.0,1,2,366.0,0.4444444444444444,1,object_06,5,486,0,4,2,desert_4,1,memory-2step-stake-s,551,1468584,0.0-19.0-0.0-0.59,A252P9NJHP5QOZ,3A3KKYU7Q6XNN7OKJ3M7MRU2CR5MWB,31Q0U3WYDTVENMZO8B0ZZ335F3771T,2,1
60,1,object_02,object_01,733.90000003576,2,1,522.5,0.3333333333333333,2,object_05,5,501,0,0,3,desert_4,1,memory-2step-stake-s,552,1476698,0.0-19.0-0.0-0.60,A252P9NJHP5QOZ,3A3KKYU7Q6XNN7OKJ3M7MRU2CR5MWB,31Q0U3WYDTVENMZO8B0ZZ335F3771T,2,1
61,3,object_09,object_04,674.30000001192,5,2,620.09999996424,0.0,1,object_06,5,501,0,0,3,library_1,1,memory-2step-stake-s,553,1484609,0.0-19.0-0.0-0.61,A252P9NJHP5QOZ,3A3KKYU7Q6XNN7OKJ3M7MRU2CR5MWB,31Q0U3WYDTVENMZO8B0ZZ335F3771T,6,5
62,3,object_04,object_09,1395.3000000119,5,1,486.39999997616,0.1111111111111111,1,object_06,5,506,0,1,3,library_7,1,memory-2step-stake-s,554,1492508,0.0-19.0-0.0-0.62,A252P9NJHP5QOZ,3A3KKYU7Q6XNN7OKJ3M7MRU2CR5MWB,31Q0U3WYDTVENMZO8B0ZZ335F3771T,5,6
63,1,object_01,object_02,872.80000001192,1,1,595.79999995232,0.2222222222222222,1,object_06,1,508,0,2,1,desert_7,1,memory-2step-stake-s,555,1500626,0.0-19.0-0.0-0.63,A252P9NJHP5QOZ,3A3KKYU7Q6XNN7OKJ3M7MRU2CR5MWB,31Q0U3WYDTVENMZO8B0ZZ335F3771T,1,2
64,1,object_02,object_01,693.80000001192,1,2,766.69999998808,0.6666666666666666,1,object_06,1,514,0,6,2,desert_2,1,memory-2step-stake-s,556,1509320,0.0-19.0-0.0-0.64,A252P9NJHP5QOZ,3A3KKYU7Q6XNN7OKJ3M7MRU2CR5MWB,31Q0U3WYDTVENMZO8B0ZZ335F3771T,2,1
65,4,object_10,object_03,682.80000001192,7,1,544.0,0.6666666666666666,1,object_06,5,544,0,6,2,restaurant_1,1,memory-2step-stake-s,557,1517858,0.0-19.0-0.0-0.65,A252P9NJHP5QOZ,3A3KKYU7Q6XNN7OKJ3M7MRU2CR5MWB,31Q0U3WYDTVENMZO8B0ZZ335F3771T,7,8
66,3,object_04,object_09,937.30000001192,6,2,434.09999996424,0.2222222222222222,2,object_05,5,554,0,7,2,library_4,1,memory-2step-stake-s,558,1525811,0.0-19.0-0.0-0.66,A252P9NJHP5QOZ,3A3KKYU7Q6XNN7OKJ3M7MRU2CR5MWB,31Q0U3WYDTVENMZO8B0ZZ335F3771T,5,6
67,3,object_09,object_04,1265.3000000119,5,2,469.0,0.4444444444444444,1,object_06,5,574,0,4,4,library_7,1,memory-2step-stake-s,559,1534034,0.0-19.0-0.0-0.67,A252P9NJHP5QOZ,3A3KKYU7Q6XNN7OKJ3M7MRU2CR5MWB,31Q0U3WYDTVENMZO8B0ZZ335F3771T,6,5
68,1,object_01,object_02,579.80000001192,1,1,386.0,0.4444444444444444,1,object_06,1,578,0,4,4,desert_6,1,memory-2step-stake-s,560,1542155,0.0-19.0-0.0-0.68,A252P9NJHP5QOZ,3A3KKYU7Q6XNN7OKJ3M7MRU2CR5MWB,31Q0U3WYDTVENMZO8B0ZZ335F3771T,1,2
69,3,object_04,object_09,573.89999997616,6,2,460.19999998808,0.2222222222222222,2,object_05,5,588,0,6,2,library_1,1,memory-2step-stake-s,561,1550094,0.0-19.0-0.0-0.69,A252P9NJHP5QOZ,3A3KKYU7Q6XNN7OKJ3M7MRU2CR5MWB,31Q0U3WYDTVENMZO8B0ZZ335F3771T,5,6
70,2,object_08,object_07,407.60000002384,4,1,724.79999995232,0.2222222222222222,2,object_05,1,590,0,7,2,forest_2,1,memory-2step-stake-s,562,1558336,0.0-19.0-0.0-0.70,A252P9NJHP5QOZ,3A3KKYU7Q6XNN7OKJ3M7MRU2CR5MWB,31Q0U3WYDTVENMZO8B0ZZ335F3771T,4,3
71,3,object_09,object_04,377.09999996424,5,2,632.39999997616,0.7777777777777778,1,object_06,5,625,0,7,3,library_1,1,memory-2step-stake-s,563,1567025,0.0-19.0-0.0-0.71,A252P9NJHP5QOZ,3A3KKYU7Q6XNN7OKJ3M7MRU2CR5MWB,31Q0U3WYDTVENMZO8B0ZZ335F3771T,6,5
72,4,object_03,object_10,955.0,8,1,495.19999998808,0.3333333333333333,2,object_05,5,640,0,9,3,restaurant_1,1,memory-2step-stake-s,564,1575139,0.0-19.0-0.0-0.72,A252P9NJHP5QOZ,3A3KKYU7Q6XNN7OKJ3M7MRU2CR5MWB,31Q0U3WYDTVENMZO8B0ZZ335F3771T,8,7
73,3,object_09,object_04,422.80000001192,5,2,340.80000001192,0.7777777777777778,1,object_06,5,675,0,7,5,library_4,1,memory-2step-stake-s,565,1583554,0.0-19.0-0.0-0.73,A252P9NJHP5QOZ,3A3KKYU7Q6XNN7OKJ3M7MRU2CR5MWB,31Q0U3WYDTVENMZO8B0ZZ335F3771T,6,5
74,2,object_08,object_07,402.80000001192,3,2,407.89999997616,0.8888888888888888,1,object_06,1,683,0,8,5,forest_2,1,memory-2step-stake-s,566,1592197,0.0-19.0-0.0-0.74,A252P9NJHP5QOZ,3A3KKYU7Q6XNN7OKJ3M7MRU2CR5MWB,31Q0U3WYDTVENMZO8B0ZZ335F3771T,4,3
75,2,object_08,object_07,407.89999997616,3,2,514.19999998808,0.5555555555555556,1,object_06,5,708,0,5,6,forest_6,1,memory-2step-stake-s,567,1600566,0.0-19.0-0.0-0.75,A252P9NJHP5QOZ,3A3KKYU7Q6XNN7OKJ3M7MRU2CR5MWB,31Q0U3WYDTVENMZO8B0ZZ335F3771T,4,3
76,2,object_07,object_08,388.79999995232,3,1,728.39999997616,0.6666666666666666,1,object_06,1,714,0,6,5,forest_2,1,memory-2step-stake-s,568,1609244,0.0-19.0-0.0-0.76,A252P9NJHP5QOZ,3A3KKYU7Q6XNN7OKJ3M7MRU2CR5MWB,31Q0U3WYDTVENMZO8B0ZZ335F3771T,3,4
77,1,object_02,object_01,528.30000001192,2,1,863.89999997616,0.0,2,object_05,5,714,0,6,0,desert_7,1,memory-2step-stake-s,569,1617381,0.0-19.0-0.0-0.77,A252P9NJHP5QOZ,3A3KKYU7Q6XNN7OKJ3M7MRU2CR5MWB,31Q0U3WYDTVENMZO8B0ZZ335F3771T,2,1
78,2,object_08,object_07,397.30000001192,3,2,359.69999998808,0.4444444444444444,1,object_06,1,718,0,4,3,forest_2,1,memory-2step-stake-s,570,1625505,0.0-19.0-0.0-0.78,A252P9NJHP5QOZ,3A3KKYU7Q6XNN7OKJ3M7MRU2CR5MWB,31Q0U3WYDTVENMZO8B0ZZ335F3771T,4,3
79,2,object_08,object_07,-1.0,-1,-1,-1.0,0.0,-,0,1,718,0,6,2,forest_6,1,memory-2step-stake-s,571,1632079,0.0-19.0-0.0-0.79,A252P9NJHP5QOZ,3A3KKYU7Q6XNN7OKJ3M7MRU2CR5MWB,31Q0U3WYDTVENMZO8B0ZZ335F3771T,4,3
80,4,object_10,object_03,628.69999998808,8,2,701.69999998808,0.1111111111111111,2,object_05,5,723,0,2,1,restaurant_8,1,memory-2step-stake-s,572,1640180,0.0-19.0-0.0-0.80,A252P9NJHP5QOZ,3A3KKYU7Q6XNN7OKJ3M7MRU2CR5MWB,31Q0U3WYDTVENMZO8B0ZZ335F3771T,7,8
81,4,object_03,object_10,415.5,8,1,599.10000002384,0.0,2,object_05,5,723,0,2,0,restaurant_4,1,memory-2step-stake-s,573,1648082,0.0-19.0-0.0-0.81,A252P9NJHP5QOZ,3A3KKYU7Q6XNN7OKJ3M7MRU2CR5MWB,31Q0U3WYDTVENMZO8B0ZZ335F3771T,8,7
82,4,object_10,object_03,763.69999998808,7,1,341.39999997616,0.0,1,object_06,1,723,0,0,2,restaurant_1,1,memory-2step-stake-s,574,1655718,0.0-19.0-0.0-0.82,A252P9NJHP5QOZ,3A3KKYU7Q6XNN7OKJ3M7MRU2CR5MWB,31Q0U3WYDTVENMZO8B0ZZ335F3771T,7,8
83,3,object_09,object_04,587.69999998808,6,1,359.69999998808,0.1111111111111111,2,object_05,1,724,0,1,1,library_4,1,memory-2step-stake-s,575,1663504,0.0-19.0-0.0-0.83,A252P9NJHP5QOZ,3A3KKYU7Q6XNN7OKJ3M7MRU2CR5MWB,31Q0U3WYDTVENMZO8B0ZZ335F3771T,6,5
84,3,object_04,object_09,261.5,6,2,133.69999998808,0.1111111111111111,2,object_05,5,729,0,2,1,library_1,1,memory-2step-stake-s,576,1671046,0.0-19.0-0.0-0.84,A252P9NJHP5QOZ,3A3KKYU7Q6XNN7OKJ3M7MRU2CR5MWB,31Q0U3WYDTVENMZO8B0ZZ335F3771T,5,6
85,4,object_10,object_03,482.59999996424,7,1,604.60000002384,0.2222222222222222,1,object_06,5,739,0,2,2,restaurant_1,1,memory-2step-stake-s,577,1679170,0.0-19.0-0.0-0.85,A252P9NJHP5QOZ,3A3KKYU7Q6XNN7OKJ3M7MRU2CR5MWB,31Q0U3WYDTVENMZO8B0ZZ335F3771T,7,8
86,1,object_01,object_02,308.89999997616,1,1,352.59999996424,0.2222222222222222,1,object_06,1,741,0,2,1,desert_4,1,memory-2step-stake-s,578,1687042,0.0-19.0-0.0-0.86,A252P9NJHP5QOZ,3A3KKYU7Q6XNN7OKJ3M7MRU2CR5MWB,31Q0U3WYDTVENMZO8B0ZZ335F3771T,1,2
87,4,object_10,object_03,575.30000001192,8,2,486.90000003576,0.2222222222222222,2,object_05,5,751,0,1,2,restaurant_7,1,memory-2step-stake-s,579,1695060,0.0-19.0-0.0-0.87,A252P9NJHP5QOZ,3A3KKYU7Q6XNN7OKJ3M7MRU2CR5MWB,31Q0U3WYDTVENMZO8B0ZZ335F3771T,7,8
88,3,object_04,object_09,362.0,5,1,-1.0,0.0,1,object_06,5,751,0,2,7,library_1,1,memory-2step-stake-s,580,1703648,0.0-19.0-0.0-0.88,A252P9NJHP5QOZ,3A3KKYU7Q6XNN7OKJ3M7MRU2CR5MWB,31Q0U3WYDTVENMZO8B0ZZ335F3771T,5,6
89,2,object_07,object_08,374.0,4,2,454.80000001192,0.8888888888888888,2,object_05,1,759,0,1,8,forest_3,1,memory-2step-stake-s,581,1712283,0.0-19.0-0.0-0.89,A252P9NJHP5QOZ,3A3KKYU7Q6XNN7OKJ3M7MRU2CR5MWB,31Q0U3WYDTVENMZO8B0ZZ335F3771T,3,4
90,4,object_10,object_03,623.19999998808,7,1,386.10000002384,0.0,1,object_06,1,759,0,0,8,restaurant_1,1,memory-2step-stake-s,582,1719969,0.0-19.0-0.0-0.90,A252P9NJHP5QOZ,3A3KKYU7Q6XNN7OKJ3M7MRU2CR5MWB,31Q0U3WYDTVENMZO8B0ZZ335F3771T,7,8
91,3,object_04,object_09,469.5,6,2,425.19999998808,0.8888888888888888,2,object_05,1,767,0,4,8,library_7,1,memory-2step-stake-s,583,1728581,0.0-19.0-0.0-0.91,A252P9NJHP5QOZ,3A3KKYU7Q6XNN7OKJ3M7MRU2CR5MWB,31Q0U3WYDTVENMZO8B0ZZ335F3771T,5,6
92,1,object_02,object_01,246.89999997616,1,2,1470.4000000358,0.6666666666666666,1,object_06,1,773,0,6,3,desert_7,1,memory-2step-stake-s,584,1737970,0.0-19.0-0.0-0.92,A252P9NJHP5QOZ,3A3KKYU7Q6XNN7OKJ3M7MRU2CR5MWB,31Q0U3WYDTVENMZO8B0ZZ335F3771T,2,1
93,1,object_01,object_02,537.39999997616,1,1,760.5,0.8888888888888888,1,object_06,1,781,0,8,7,desert_7,1,memory-2step-stake-s,585,1746852,0.0-19.0-0.0-0.93,A252P9NJHP5QOZ,3A3KKYU7Q6XNN7OKJ3M7MRU2CR5MWB,31Q0U3WYDTVENMZO8B0ZZ335F3771T,1,2
94,1,object_01,object_02,451.09999996424,2,2,384.5,0.8888888888888888,2,object_05,1,789,0,5,8,desert_7,1,memory-2step-stake-s,586,1755406,0.0-19.0-0.0-0.94,A252P9NJHP5QOZ,3A3KKYU7Q6XNN7OKJ3M7MRU2CR5MWB,31Q0U3WYDTVENMZO8B0ZZ335F3771T,1,2
95,3,object_09,object_04,491.89999997616,5,2,445.5,0.6666666666666666,1,object_06,5,819,0,6,6,library_7,1,memory-2step-stake-s,587,1763801,0.0-19.0-0.0-0.95,A252P9NJHP5QOZ,3A3KKYU7Q6XNN7OKJ3M7MRU2CR5MWB,31Q0U3WYDTVENMZO8B0ZZ335F3771T,6,5
96,1,object_02,object_01,954.69999998808,2,1,435.29999995232,0.8888888888888888,2,object_05,1,827,0,8,8,desert_6,1,memory-2step-stake-s,588,1772440,0.0-19.0-0.0-0.96,A252P9NJHP5QOZ,3A3KKYU7Q6XNN7OKJ3M7MRU2CR5MWB,31Q0U3WYDTVENMZO8B0ZZ335F3771T,2,1
97,2,object_08,object_07,913.10000002384,4,1,520.19999998808,0.6666666666666666,2,object_05,1,833,0,9,6,forest_3,1,memory-2step-stake-s,589,1780922,0.0-19.0-0.0-0.97,A252P9NJHP5QOZ,3A3KKYU7Q6XNN7OKJ3M7MRU2CR5MWB,31Q0U3WYDTVENMZO8B0ZZ335F3771T,4,3
98,3,object_04,object_09,468.40000003576,5,1,369.69999998808,1.0,1,object_06,5,878,0,9,6,library_5,1,memory-2step-stake-s,590,1789564,0.0-19.0-0.0-0.98,A252P9NJHP5QOZ,3A3KKYU7Q6XNN7OKJ3M7MRU2CR5MWB,31Q0U3WYDTVENMZO8B0ZZ335F3771T,5,6
99,2,object_07,object_08,928.30000001192,3,1,380.90000003576,0.8888888888888888,1,object_06,1,886,0,8,7,forest_6,1,memory-2step-stake-s,591,1798128,0.0-19.0-0.0-0.99,A252P9NJHP5QOZ,3A3KKYU7Q6XNN7OKJ3M7MRU2CR5MWB,31Q0U3WYDTVENMZO8B0ZZ335F3771T,3,4
100,3,object_04,object_09,585.60000002384,5,1,369.40000003576,0.8888888888888888,1,object_06,5,926,0,8,6,library_5,1,memory-2step-stake-s,592,1806660,0.0-19.0-0.0-0.100,A252P9NJHP5QOZ,3A3KKYU7Q6XNN7OKJ3M7MRU2CR5MWB,31Q0U3WYDTVENMZO8B0ZZ335F3771T,5,6
101,1,object_01,object_02,689.30000001192,2,2,352.89999997616,0.5555555555555556,2,object_05,5,951,0,3,5,desert_4,1,memory-2step-stake-s,593,1814884,0.0-19.0-0.0-0.101,A252P9NJHP5QOZ,3A3KKYU7Q6XNN7OKJ3M7MRU2CR5MWB,31Q0U3WYDTVENMZO8B0ZZ335F3771T,1,2
102,1,object_02,object_01,600.39999997616,2,1,379.80000001192,0.4444444444444444,2,object_05,1,955,0,1,4,desert_7,1,memory-2step-stake-s,594,1823010,0.0-19.0-0.0-0.102,A252P9NJHP5QOZ,3A3KKYU7Q6XNN7OKJ3M7MRU2CR5MWB,31Q0U3WYDTVENMZO8B0ZZ335F3771T,2,1
103,3,object_04,object_09,651.5,5,1,393.19999998808,0.4444444444444444,1,object_06,5,975,0,4,3,library_7,1,memory-2step-stake-s,595,1831147,0.0-19.0-0.0-0.103,A252P9NJHP5QOZ,3A3KKYU7Q6XNN7OKJ3M7MRU2CR5MWB,31Q0U3WYDTVENMZO8B0ZZ335F3771T,5,6
104,3,object_04,object_09,726.29999995232,5,1,373.5,0.6666666666666666,1,object_06,5,1005,0,6,4,library_7,1,memory-2step-stake-s,596,1839475,0.0-19.0-0.0-0.104,A252P9NJHP5QOZ,3A3KKYU7Q6XNN7OKJ3M7MRU2CR5MWB,31Q0U3WYDTVENMZO8B0ZZ335F3771T,5,6
105,1,object_02,object_01,420.40000003576,2,1,799.40000003576,0.4444444444444444,2,object_05,5,1025,0,3,4,desert_4,1,memory-2step-stake-s,597,1847998,0.0-19.0-0.0-0.105,A252P9NJHP5QOZ,3A3KKYU7Q6XNN7OKJ3M7MRU2CR5MWB,31Q0U3WYDTVENMZO8B0ZZ335F3771T,2,1
106,1,object_02,object_01,491.5,1,2,490.19999998808,0.2222222222222222,1,object_06,1,1027,0,2,2,desert_2,1,memory-2step-stake-s,598,1855992,0.0-19.0-0.0-0.106,A252P9NJHP5QOZ,3A3KKYU7Q6XNN7OKJ3M7MRU2CR5MWB,31Q0U3WYDTVENMZO8B0ZZ335F3771T,2,1
107,2,object_07,object_08,723.0,3,1,444.30000001192,0.0,1,object_06,1,1027,0,0,4,forest_6,1,memory-2step-stake-s,599,1863707,0.0-19.0-0.0-0.107,A252P9NJHP5QOZ,3A3KKYU7Q6XNN7OKJ3M7MRU2CR5MWB,31Q0U3WYDTVENMZO8B0ZZ335F3771T,3,4
108,4,object_03,object_10,694.30000001192,7,2,346.89999997616,0.2222222222222222,1,object_06,1,1029,0,2,2,restaurant_8,1,memory-2step-stake-s,600,1871575,0.0-19.0-0.0-0.108,A252P9NJHP5QOZ,3A3KKYU7Q6XNN7OKJ3M7MRU2CR5MWB,31Q0U3WYDTVENMZO8B0ZZ335F3771T,8,7
109,2,object_08,object_07,820.0,4,1,454.0,0.1111111111111111,2,object_05,1,1030,0,2,1,forest_6,1,memory-2step-stake-s,601,1879428,0.0-19.0-0.0-0.109,A252P9NJHP5QOZ,3A3KKYU7Q6XNN7OKJ3M7MRU2CR5MWB,31Q0U3WYDTVENMZO8B0ZZ335F3771T,4,3
110,3,object_09,object_04,696.10000002384,5,2,421.80000001192,0.0,1,object_06,5,1030,0,0,2,library_4,1,memory-2step-stake-s,602,1887174,0.0-19.0-0.0-0.110,A252P9NJHP5QOZ,3A3KKYU7Q6XNN7OKJ3M7MRU2CR5MWB,31Q0U3WYDTVENMZO8B0ZZ335F3771T,6,5
111,2,object_07,object_08,922.30000001192,3,1,490.89999997616,0.1111111111111111,1,object_06,5,1035,0,1,0,forest_2,1,memory-2step-stake-s,603,1895076,0.0-19.0-0.0-0.111,A252P9NJHP5QOZ,3A3KKYU7Q6XNN7OKJ3M7MRU2CR5MWB,31Q0U3WYDTVENMZO8B0ZZ335F3771T,3,4
112,4,object_03,object_10,821.30000001192,8,1,507.20000004768,0.2222222222222222,2,object_05,5,1045,0,2,2,restaurant_1,1,memory-2step-stake-s,604,1903105,0.0-19.0-0.0-0.112,A252P9NJHP5QOZ,3A3KKYU7Q6XNN7OKJ3M7MRU2CR5MWB,31Q0U3WYDTVENMZO8B0ZZ335F3771T,8,7
113,2,object_07,object_08,699.39999997616,3,1,350.80000001192,0.7777777777777778,1,object_06,5,1080,0,7,1,forest_3,1,memory-2step-stake-s,605,1911577,0.0-19.0-0.0-0.113,A252P9NJHP5QOZ,3A3KKYU7Q6XNN7OKJ3M7MRU2CR5MWB,31Q0U3WYDTVENMZO8B0ZZ335F3771T,3,4
114,4,object_10,object_03,954.59999996424,7,1,453.30000001192,0.5555555555555556,1,object_06,5,1105,0,5,0,restaurant_1,1,memory-2step-stake-s,606,1919896,0.0-19.0-0.0-0.114,A252P9NJHP5QOZ,3A3KKYU7Q6XNN7OKJ3M7MRU2CR5MWB,31Q0U3WYDTVENMZO8B0ZZ335F3771T,7,8
115,4,object_10,object_03,388.10000002384,7,1,407.19999998808,0.0,1,object_06,1,1105,0,0,2,restaurant_8,1,memory-2step-stake-s,607,1927594,0.0-19.0-0.0-0.115,A252P9NJHP5QOZ,3A3KKYU7Q6XNN7OKJ3M7MRU2CR5MWB,31Q0U3WYDTVENMZO8B0ZZ335F3771T,7,8
116,1,object_01,object_02,300.89999997616,2,2,1151.3000000119,0.1111111111111111,2,object_05,1,1106,0,4,1,desert_2,1,memory-2step-stake-s,608,1936122,0.0-19.0-0.0-0.116,A252P9NJHP5QOZ,3A3KKYU7Q6XNN7OKJ3M7MRU2CR5MWB,31Q0U3WYDTVENMZO8B0ZZ335F3771T,1,2
117,1,object_01,object_02,888.39999997616,1,1,428.20000004768,0.4444444444444444,1,object_06,1,1110,0,4,3,desert_6,1,memory-2step-stake-s,609,1944272,0.0-19.0-0.0-0.117,A252P9NJHP5QOZ,3A3KKYU7Q6XNN7OKJ3M7MRU2CR5MWB,31Q0U3WYDTVENMZO8B0ZZ335F3771T,1,2
118,4,object_10,object_03,780.10000002384,8,2,424.69999998808,0.3333333333333333,2,object_05,1,1113,0,3,3,restaurant_7,1,memory-2step-stake-s,610,1952355,0.0-19.0-0.0-0.118,A252P9NJHP5QOZ,3A3KKYU7Q6XNN7OKJ3M7MRU2CR5MWB,31Q0U3WYDTVENMZO8B0ZZ335F3771T,7,8
119,4,object_03,object_10,581.0,8,1,463.19999998808,0.3333333333333333,2,object_05,5,1128,0,5,3,restaurant_4,1,memory-2step-stake-s,611,1960415,0.0-19.0-0.0-0.119,A252P9NJHP5QOZ,3A3KKYU7Q6XNN7OKJ3M7MRU2CR5MWB,31Q0U3WYDTVENMZO8B0ZZ335F3771T,8,7
120,1,object_01,object_02,519.5,2,2,314.5,0.5555555555555556,2,object_05,5,1153,0,6,5,desert_4,1,memory-2step-stake-s,612,1968564,0.0-19.0-0.0-0.120,A252P9NJHP5QOZ,3A3KKYU7Q6XNN7OKJ3M7MRU2CR5MWB,31Q0U3WYDTVENMZO8B0ZZ335F3771T,1,2
121,1,object_01,object_02,898.70000004768,1,1,300.40000003576,0.4444444444444444,1,object_06,1,1157,0,4,3,desert_2,1,memory-2step-stake-s,613,1976614,0.0-19.0-0.0-0.121,A252P9NJHP5QOZ,3A3KKYU7Q6XNN7OKJ3M7MRU2CR5MWB,31Q0U3WYDTVENMZO8B0ZZ335F3771T,1,2
122,2,object_08,object_07,715.5,4,1,354.5,0.4444444444444444,2,object_05,5,1177,0,5,4,forest_2,1,memory-2step-stake-s,614,1984715,0.0-19.0-0.0-0.122,A252P9NJHP5QOZ,3A3KKYU7Q6XNN7OKJ3M7MRU2CR5MWB,31Q0U3WYDTVENMZO8B0ZZ335F3771T,4,3
123,4,object_03,object_10,673.80000001192,8,1,370.89999997616,0.3333333333333333,2,object_05,5,1192,0,6,3,restaurant_8,1,memory-2step-stake-s,615,1992717,0.0-19.0-0.0-0.123,A252P9NJHP5QOZ,3A3KKYU7Q6XNN7OKJ3M7MRU2CR5MWB,31Q0U3WYDTVENMZO8B0ZZ335F3771T,8,7
124,4,object_10,object_03,954.0,8,2,591.09999996424,0.2222222222222222,2,object_05,1,1194,0,4,2,restaurant_8,1,memory-2step-stake-s,616,2000846,0.0-19.0-0.0-0.124,A252P9NJHP5QOZ,3A3KKYU7Q6XNN7OKJ3M7MRU2CR5MWB,31Q0U3WYDTVENMZO8B0ZZ335F3771T,7,8
125,2,object_08,object_07,851.69999998808,3,2,331.69999998808,0.4444444444444444,1,object_06,5,1214,0,4,4,forest_2,1,memory-2step-stake-s,617,2008914,0.0-19.0-0.0-0.125,A252P9NJHP5QOZ,3A3KKYU7Q6XNN7OKJ3M7MRU2CR5MWB,31Q0U3WYDTVENMZO8B0ZZ335F3771T,4,3
126,2,object_07,object_08,586.10000002384,4,2,529.30000001192,0.3333333333333333,2,object_05,1,1217,0,3,3,forest_2,1,memory-2step-stake-s,618,2017086,0.0-19.0-0.0-0.126,A252P9NJHP5QOZ,3A3KKYU7Q6XNN7OKJ3M7MRU2CR5MWB,31Q0U3WYDTVENMZO8B0ZZ335F3771T,3,4
127,1,object_02,object_01,665.19999998808,2,1,401.10000002384,0.4444444444444444,2,object_05,1,1221,0,4,4,desert_7,1,memory-2step-stake-s,619,2025208,0.0-19.0-0.0-0.127,A252P9NJHP5QOZ,3A3KKYU7Q6XNN7OKJ3M7MRU2CR5MWB,31Q0U3WYDTVENMZO8B0ZZ335F3771T,2,1
128,1,object_02,object_01,599.5,2,1,359.19999998808,0.2222222222222222,2,object_05,5,1231,0,6,2,desert_2,1,memory-2step-stake-s,621,2038963,0.0-19.0-0.1-0.128,A252P9NJHP5QOZ,3A3KKYU7Q6XNN7OKJ3M7MRU2CR5MWB,31Q0U3WYDTVENMZO8B0ZZ335F3771T,2,1
129,1,object_02,object_01,375.19999998808,2,1,395.0,0.7777777777777778,2,object_05,5,1266,0,7,7,desert_2,1,memory-2step-stake-s,622,2047388,0.0-19.0-0.1-0.129,A252P9NJHP5QOZ,3A3KKYU7Q6XNN7OKJ3M7MRU2CR5MWB,31Q0U3WYDTVENMZO8B0ZZ335F3771T,2,1
130,4,object_10,object_03,895.69999998808,8,2,622.60000002384,0.5555555555555556,2,object_05,5,1291,0,6,5,restaurant_8,1,memory-2step-stake-s,623,2055849,0.0-19.0-0.1-0.130,A252P9NJHP5QOZ,3A3KKYU7Q6XNN7OKJ3M7MRU2CR5MWB,31Q0U3WYDTVENMZO8B0ZZ335F3771T,7,8
131,2,object_08,object_07,619.5,4,1,406.39999997616,0.7777777777777778,2,object_05,1,1298,0,6,7,forest_3,1,memory-2step-stake-s,624,2064318,0.0-19.0-0.1-0.131,A252P9NJHP5QOZ,3A3KKYU7Q6XNN7OKJ3M7MRU2CR5MWB,31Q0U3WYDTVENMZO8B0ZZ335F3771T,4,3
132,2,object_07,object_08,748.0,3,1,306.30000001192,0.6666666666666666,1,object_06,1,1304,0,6,5,forest_6,1,memory-2step-stake-s,625,2072594,0.0-19.0-0.1-0.132,A252P9NJHP5QOZ,3A3KKYU7Q6XNN7OKJ3M7MRU2CR5MWB,31Q0U3WYDTVENMZO8B0ZZ335F3771T,3,4
133,4,object_03,object_10,375.0,7,2,544.60000002384,0.4444444444444444,1,object_06,5,1324,0,4,3,restaurant_8,1,memory-2step-stake-s,626,2080862,0.0-19.0-0.1-0.133,A252P9NJHP5QOZ,3A3KKYU7Q6XNN7OKJ3M7MRU2CR5MWB,31Q0U3WYDTVENMZO8B0ZZ335F3771T,8,7
134,3,object_04,object_09,445.90000003576,5,1,404.39999997616,0.3333333333333333,1,object_06,5,1339,0,3,3,library_1,1,memory-2step-stake-s,627,2088877,0.0-19.0-0.1-0.134,A252P9NJHP5QOZ,3A3KKYU7Q6XNN7OKJ3M7MRU2CR5MWB,31Q0U3WYDTVENMZO8B0ZZ335F3771T,5,6
135,3,object_04,object_09,578.90000003576,6,2,398.90000003576,0.4444444444444444,2,object_05,5,1359,0,5,4,library_4,1,memory-2step-stake-s,628,2096996,0.0-19.0-0.1-0.135,A252P9NJHP5QOZ,3A3KKYU7Q6XNN7OKJ3M7MRU2CR5MWB,31Q0U3WYDTVENMZO8B0ZZ335F3771T,5,6
136,1,object_01,object_02,468.60000002384,1,1,319.5,0.3333333333333333,1,object_06,1,1362,0,3,1,desert_4,1,memory-2step-stake-s,629,2104960,0.0-19.0-0.1-0.136,A252P9NJHP5QOZ,3A3KKYU7Q6XNN7OKJ3M7MRU2CR5MWB,31Q0U3WYDTVENMZO8B0ZZ335F3771T,1,2
137,2,object_07,object_08,712.29999995232,4,2,418.0,0.0,2,object_05,1,1362,0,3,0,forest_2,1,memory-2step-stake-s,630,2112673,0.0-19.0-0.1-0.137,A252P9NJHP5QOZ,3A3KKYU7Q6XNN7OKJ3M7MRU2CR5MWB,31Q0U3WYDTVENMZO8B0ZZ335F3771T,3,4
138,4,object_10,object_03,654.10000002384,7,1,425.80000001192,0.4444444444444444,1,object_06,5,1382,0,4,2,restaurant_1,1,memory-2step-stake-s,631,2120802,0.0-19.0-0.1-0.138,A252P9NJHP5QOZ,3A3KKYU7Q6XNN7OKJ3M7MRU2CR5MWB,31Q0U3WYDTVENMZO8B0ZZ335F3771T,7,8
139,2,object_08,object_07,742.90000003576,4,1,320.0,0.2222222222222222,2,object_05,1,1384,0,4,2,forest_6,1,memory-2step-stake-s,632,2128636,0.0-19.0-0.1-0.139,A252P9NJHP5QOZ,3A3KKYU7Q6XNN7OKJ3M7MRU2CR5MWB,31Q0U3WYDTVENMZO8B0ZZ335F3771T,4,3
140,4,object_03,object_10,1194.0999999642,7,2,416.09999996424,0.3333333333333333,1,object_06,5,1399,0,3,4,restaurant_7,1,memory-2step-stake-s,633,2136653,0.0-19.0-0.1-0.140,A252P9NJHP5QOZ,3A3KKYU7Q6XNN7OKJ3M7MRU2CR5MWB,31Q0U3WYDTVENMZO8B0ZZ335F3771T,8,7
141,4,object_10,object_03,-1.0,-1,-1,-1.0,0.0,-,0,5,1399,0,2,5,restaurant_8,1,memory-2step-stake-s,634,2143233,0.0-19.0-0.1-0.141,A252P9NJHP5QOZ,3A3KKYU7Q6XNN7OKJ3M7MRU2CR5MWB,31Q0U3WYDTVENMZO8B0ZZ335F3771T,7,8
142,4,object_03,object_10,506.0,8,1,423.90000003576,0.5555555555555556,2,object_05,5,1424,0,5,5,restaurant_8,1,memory-2step-stake-s,635,2151462,0.0-19.0-0.1-0.142,A252P9NJHP5QOZ,3A3KKYU7Q6XNN7OKJ3M7MRU2CR5MWB,31Q0U3WYDTVENMZO8B0ZZ335F3771T,8,7
143,2,object_08,object_07,251.90000003576,3,2,379.89999997616,0.1111111111111111,1,object_06,1,1425,0,1,8,forest_3,1,memory-2step-stake-s,636,2159203,0.0-19.0-0.1-0.143,A252P9NJHP5QOZ,3A3KKYU7Q6XNN7OKJ3M7MRU2CR5MWB,31Q0U3WYDTVENMZO8B0ZZ335F3771T,4,3
144,4,object_03,object_10,751.30000001192,8,1,627.40000003576,0.8888888888888888,2,object_05,5,1465,0,1,8,restaurant_1,1,memory-2step-stake-s,637,2168001,0.0-19.0-0.1-0.144,A252P9NJHP5QOZ,3A3KKYU7Q6XNN7OKJ3M7MRU2CR5MWB,31Q0U3WYDTVENMZO8B0ZZ335F3771T,8,7
145,1,object_02,object_01,278.20000004768,1,2,611.30000001192,0.0,1,object_06,1,1465,0,0,7,desert_7,1,memory-2step-stake-s,638,2175878,0.0-19.0-0.1-0.145,A252P9NJHP5QOZ,3A3KKYU7Q6XNN7OKJ3M7MRU2CR5MWB,31Q0U3WYDTVENMZO8B0ZZ335F3771T,2,1
146,2,object_08,object_07,571.60000002384,4,1,297.39999997616,0.5555555555555556,2,object_05,1,1470,0,2,5,forest_3,1,memory-2step-stake-s,639,2184037,0.0-19.0-0.1-0.146,A252P9NJHP5QOZ,3A3KKYU7Q6XNN7OKJ3M7MRU2CR5MWB,31Q0U3WYDTVENMZO8B0ZZ335F3771T,4,3
147,2,object_08,object_07,527.19999998808,3,2,449.10000002384,0.2222222222222222,1,object_06,1,1472,0,2,5,forest_8,1,memory-2step-stake-s,640,2191995,0.0-19.0-0.1-0.147,A252P9NJHP5QOZ,3A3KKYU7Q6XNN7OKJ3M7MRU2CR5MWB,31Q0U3WYDTVENMZO8B0ZZ335F3771T,4,3
148,2,object_07,object_08,554.0,3,1,530.10000002384,0.4444444444444444,1,object_06,1,1476,0,4,6,forest_8,1,memory-2step-stake-s,641,2200266,0.0-19.0-0.1-0.148,A252P9NJHP5QOZ,3A3KKYU7Q6XNN7OKJ3M7MRU2CR5MWB,31Q0U3WYDTVENMZO8B0ZZ335F3771T,3,4
149,2,object_08,object_07,302.80000001192,3,2,545.70000004768,0.2222222222222222,1,object_06,1,1478,0,2,3,forest_8,1,memory-2step-stake-s,642,2208303,0.0-19.0-0.1-0.149,A252P9NJHP5QOZ,3A3KKYU7Q6XNN7OKJ3M7MRU2CR5MWB,31Q0U3WYDTVENMZO8B0ZZ335F3771T,4,3
150,3,object_09,object_04,350.90000003576,6,1,445.69999998808,0.1111111111111111,2,object_05,5,1483,0,2,1,library_1,1,memory-2step-stake-s,643,2216169,0.0-19.0-0.1-0.150,A252P9NJHP5QOZ,3A3KKYU7Q6XNN7OKJ3M7MRU2CR5MWB,31Q0U3WYDTVENMZO8B0ZZ335F3771T,6,5
151,1,object_01,object_02,274.5,1,1,922.69999998808,0.6666666666666666,1,object_06,1,1489,0,6,3,desert_2,1,memory-2step-stake-s,644,2225019,0.0-19.0-0.1-0.151,A252P9NJHP5QOZ,3A3KKYU7Q6XNN7OKJ3M7MRU2CR5MWB,31Q0U3WYDTVENMZO8B0ZZ335F3771T,1,2
152,2,object_07,object_08,434.0,4,2,833.80000001192,0.3333333333333333,2,object_05,1,1492,0,6,3,forest_3,1,memory-2step-stake-s,645,2233502,0.0-19.0-0.1-0.152,A252P9NJHP5QOZ,3A3KKYU7Q6XNN7OKJ3M7MRU2CR5MWB,31Q0U3WYDTVENMZO8B0ZZ335F3771T,3,4
153,4,object_03,object_10,354.59999996424,8,1,562.19999998808,0.5555555555555556,2,object_05,5,1517,0,4,5,restaurant_4,1,memory-2step-stake-s,646,2241897,0.0-19.0-0.1-0.153,A252P9NJHP5QOZ,3A3KKYU7Q6XNN7OKJ3M7MRU2CR5MWB,31Q0U3WYDTVENMZO8B0ZZ335F3771T,8,7
154,2,object_08,object_07,228.40000003576,4,1,449.80000001192,0.5555555555555556,2,object_05,1,1522,0,0,5,forest_8,1,memory-2step-stake-s,647,2250180,0.0-19.0-0.1-0.154,A252P9NJHP5QOZ,3A3KKYU7Q6XNN7OKJ3M7MRU2CR5MWB,31Q0U3WYDTVENMZO8B0ZZ335F3771T,4,3
155,4,object_10,object_03,372.60000002384,8,2,673.59999996424,0.6666666666666666,2,object_05,5,1552,0,3,6,restaurant_1,1,memory-2step-stake-s,648,2258819,0.0-19.0-0.1-0.155,A252P9NJHP5QOZ,3A3KKYU7Q6XNN7OKJ3M7MRU2CR5MWB,31Q0U3WYDTVENMZO8B0ZZ335F3771T,7,8
156,2,object_07,object_08,371.39999997616,4,2,906.30000001192,0.6666666666666666,2,object_05,1,1558,0,2,6,forest_2,1,memory-2step-stake-s,649,2267675,0.0-19.0-0.1-0.156,A252P9NJHP5QOZ,3A3KKYU7Q6XNN7OKJ3M7MRU2CR5MWB,31Q0U3WYDTVENMZO8B0ZZ335F3771T,3,4
157,1,object_01,object_02,430.60000002384,1,1,518.70000004768,0.1111111111111111,1,object_06,1,1559,0,1,2,desert_2,1,memory-2step-stake-s,650,2275587,0.0-19.0-0.1-0.157,A252P9NJHP5QOZ,3A3KKYU7Q6XNN7OKJ3M7MRU2CR5MWB,31Q0U3WYDTVENMZO8B0ZZ335F3771T,1,2
158,1,object_01,object_02,343.5,2,2,743.79999995232,0.2222222222222222,2,object_05,1,1561,0,3,2,desert_2,1,memory-2step-stake-s,651,2283821,0.0-19.0-0.1-0.158,A252P9NJHP5QOZ,3A3KKYU7Q6XNN7OKJ3M7MRU2CR5MWB,31Q0U3WYDTVENMZO8B0ZZ335F3771T,1,2
159,3,object_09,object_04,374.60000002384,6,1,511.60000002384,0.1111111111111111,2,object_05,1,1562,0,4,1,library_4,1,memory-2step-stake-s,652,2291726,0.0-19.0-0.1-0.159,A252P9NJHP5QOZ,3A3KKYU7Q6XNN7OKJ3M7MRU2CR5MWB,31Q0U3WYDTVENMZO8B0ZZ335F3771T,6,5
160,1,object_01,object_02,252.0,1,1,320.69999998808,0.1111111111111111,1,object_06,1,1563,0,1,5,desert_6,1,memory-2step-stake-s,653,2299428,0.0-19.0-0.1-0.160,A252P9NJHP5QOZ,3A3KKYU7Q6XNN7OKJ3M7MRU2CR5MWB,31Q0U3WYDTVENMZO8B0ZZ335F3771T,1,2
161,2,object_08,object_07,389.10000002384,3,2,422.59999996424,0.1111111111111111,1,object_06,5,1568,0,1,3,forest_3,1,memory-2step-stake-s,654,2307267,0.0-19.0-0.1-0.161,A252P9NJHP5QOZ,3A3KKYU7Q6XNN7OKJ3M7MRU2CR5MWB,31Q0U3WYDTVENMZO8B0ZZ335F3771T,4,3
162,2,object_08,object_07,683.19999998808,4,1,309.60000002384,0.1111111111111111,2,object_05,1,1569,0,1,1,forest_8,1,memory-2step-stake-s,655,2314965,0.0-19.0-0.1-0.162,A252P9NJHP5QOZ,3A3KKYU7Q6XNN7OKJ3M7MRU2CR5MWB,31Q0U3WYDTVENMZO8B0ZZ335F3771T,4,3
163,4,object_03,object_10,644.19999998808,8,1,507.59999996424,0.5555555555555556,2,object_05,5,1594,0,2,5,restaurant_8,1,memory-2step-stake-s,656,2323300,0.0-19.0-0.1-0.163,A252P9NJHP5QOZ,3A3KKYU7Q6XNN7OKJ3M7MRU2CR5MWB,31Q0U3WYDTVENMZO8B0ZZ335F3771T,8,7
164,2,object_08,object_07,964.19999998808,3,2,294.69999998808,0.3333333333333333,1,object_06,1,1597,0,3,5,forest_8,1,memory-2step-stake-s,657,2331235,0.0-19.0-0.1-0.164,A252P9NJHP5QOZ,3A3KKYU7Q6XNN7OKJ3M7MRU2CR5MWB,31Q0U3WYDTVENMZO8B0ZZ335F3771T,4,3
165,3,object_09,object_04,404.09999996424,6,1,717.19999998808,0.6666666666666666,2,object_05,5,1627,0,1,6,library_1,1,memory-2step-stake-s,658,2339920,0.0-19.0-0.1-0.165,A252P9NJHP5QOZ,3A3KKYU7Q6XNN7OKJ3M7MRU2CR5MWB,31Q0U3WYDTVENMZO8B0ZZ335F3771T,6,5
166,2,object_08,object_07,664.5,3,2,258.69999998808,0.2222222222222222,1,object_06,1,1629,0,2,4,forest_8,1,memory-2step-stake-s,659,2347666,0.0-19.0-0.1-0.166,A252P9NJHP5QOZ,3A3KKYU7Q6XNN7OKJ3M7MRU2CR5MWB,31Q0U3WYDTVENMZO8B0ZZ335F3771T,4,3
167,2,object_08,object_07,573.30000001192,3,2,383.70000004768,0.0,1,object_06,1,1629,0,0,5,forest_8,1,memory-2step-stake-s,660,2355341,0.0-19.0-0.1-0.167,A252P9NJHP5QOZ,3A3KKYU7Q6XNN7OKJ3M7MRU2CR5MWB,31Q0U3WYDTVENMZO8B0ZZ335F3771T,4,3
168,4,object_03,object_10,302.60000002384,8,1,307.20000004768,0.2222222222222222,2,object_05,1,1631,0,4,2,restaurant_8,1,memory-2step-stake-s,661,2363165,0.0-19.0-0.1-0.168,A252P9NJHP5QOZ,3A3KKYU7Q6XNN7OKJ3M7MRU2CR5MWB,31Q0U3WYDTVENMZO8B0ZZ335F3771T,8,7
169,3,object_09,object_04,311.5,5,2,300.30000001192,0.1111111111111111,1,object_06,5,1636,0,1,6,library_5,1,memory-2step-stake-s,662,2370858,0.0-19.0-0.1-0.169,A252P9NJHP5QOZ,3A3KKYU7Q6XNN7OKJ3M7MRU2CR5MWB,31Q0U3WYDTVENMZO8B0ZZ335F3771T,6,5
170,1,object_01,object_02,240.69999998808,2,2,468.60000002384,0.6666666666666666,2,object_05,1,1642,0,0,6,desert_4,1,memory-2step-stake-s,663,2379333,0.0-19.0-0.1-0.170,A252P9NJHP5QOZ,3A3KKYU7Q6XNN7OKJ3M7MRU2CR5MWB,31Q0U3WYDTVENMZO8B0ZZ335F3771T,1,2
171,4,object_03,object_10,702.5,8,1,718.60000002384,0.3333333333333333,2,object_05,5,1657,0,1,3,restaurant_4,1,memory-2step-stake-s,664,2387663,0.0-19.0-0.1-0.171,A252P9NJHP5QOZ,3A3KKYU7Q6XNN7OKJ3M7MRU2CR5MWB,31Q0U3WYDTVENMZO8B0ZZ335F3771T,8,7
172,4,object_03,object_10,556.69999998808,8,1,365.19999998808,0.5555555555555556,2,object_05,5,1682,0,2,5,restaurant_4,1,memory-2step-stake-s,665,2395865,0.0-19.0-0.1-0.172,A252P9NJHP5QOZ,3A3KKYU7Q6XNN7OKJ3M7MRU2CR5MWB,31Q0U3WYDTVENMZO8B0ZZ335F3771T,8,7
173,1,object_01,object_02,461.5,1,1,324.39999997616,0.4444444444444444,1,object_06,1,1686,0,4,3,desert_2,1,memory-2step-stake-s,666,2403950,0.0-19.0-0.1-0.173,A252P9NJHP5QOZ,3A3KKYU7Q6XNN7OKJ3M7MRU2CR5MWB,31Q0U3WYDTVENMZO8B0ZZ335F3771T,1,2
174,1,object_01,object_02,839.19999998808,2,2,682.19999998808,0.3333333333333333,2,object_05,1,1689,0,3,3,desert_4,1,memory-2step-stake-s,667,2412265,0.0-19.0-0.1-0.174,A252P9NJHP5QOZ,3A3KKYU7Q6XNN7OKJ3M7MRU2CR5MWB,31Q0U3WYDTVENMZO8B0ZZ335F3771T,1,2
175,2,object_08,object_07,1252.4000000358,3,2,741.30000001192,0.1111111111111111,1,object_06,1,1690,0,1,5,forest_6,1,memory-2step-stake-s,668,2420397,0.0-19.0-0.1-0.175,A252P9NJHP5QOZ,3A3KKYU7Q6XNN7OKJ3M7MRU2CR5MWB,31Q0U3WYDTVENMZO8B0ZZ335F3771T,4,3
176,3,object_04,object_09,524.69999998808,5,1,536.29999995232,0.4444444444444444,1,object_06,5,1710,0,4,6,library_5,1,memory-2step-stake-s,669,2428676,0.0-19.0-0.1-0.176,A252P9NJHP5QOZ,3A3KKYU7Q6XNN7OKJ3M7MRU2CR5MWB,31Q0U3WYDTVENMZO8B0ZZ335F3771T,5,6
177,3,object_09,object_04,578.0,5,2,356.10000002384,0.2222222222222222,1,object_06,5,1720,0,2,5,library_5,1,memory-2step-stake-s,670,2436533,0.0-19.0-0.1-0.177,A252P9NJHP5QOZ,3A3KKYU7Q6XNN7OKJ3M7MRU2CR5MWB,31Q0U3WYDTVENMZO8B0ZZ335F3771T,6,5
178,1,object_01,object_02,685.89999997616,2,2,330.60000002384,0.4444444444444444,2,object_05,1,1724,0,4,4,desert_6,1,memory-2step-stake-s,671,2444584,0.0-19.0-0.1-0.178,A252P9NJHP5QOZ,3A3KKYU7Q6XNN7OKJ3M7MRU2CR5MWB,31Q0U3WYDTVENMZO8B0ZZ335F3771T,1,2
179,3,object_04,object_09,679.5,6,2,330.69999998808,0.3333333333333333,2,object_05,5,1739,0,5,3,library_4,1,memory-2step-stake-s,672,2452526,0.0-19.0-0.1-0.179,A252P9NJHP5QOZ,3A3KKYU7Q6XNN7OKJ3M7MRU2CR5MWB,31Q0U3WYDTVENMZO8B0ZZ335F3771T,5,6
180,4,object_03,object_10,587.5,8,1,420.80000001192,0.4444444444444444,2,object_05,1,1743,0,6,4,restaurant_1,1,memory-2step-stake-s,673,2460649,0.0-19.0-0.1-0.180,A252P9NJHP5QOZ,3A3KKYU7Q6XNN7OKJ3M7MRU2CR5MWB,31Q0U3WYDTVENMZO8B0ZZ335F3771T,8,7
181,3,object_09,object_04,646.10000002384,6,1,282.60000002384,0.4444444444444444,2,object_05,5,1763,0,8,4,library_5,1,memory-2step-stake-s,674,2468649,0.0-19.0-0.1-0.181,A252P9NJHP5QOZ,3A3KKYU7Q6XNN7OKJ3M7MRU2CR5MWB,31Q0U3WYDTVENMZO8B0ZZ335F3771T,6,5
182,4,object_10,object_03,477.19999998808,8,2,340.39999997616,0.1111111111111111,2,object_05,1,1764,0,6,1,restaurant_7,1,memory-2step-stake-s,675,2476375,0.0-19.0-0.1-0.182,A252P9NJHP5QOZ,3A3KKYU7Q6XNN7OKJ3M7MRU2CR5MWB,31Q0U3WYDTVENMZO8B0ZZ335F3771T,7,8
183,2,object_08,object_07,427.69999998808,4,1,269.80000001192,0.5555555555555556,2,object_05,1,1769,0,7,5,forest_6,1,memory-2step-stake-s,676,2484492,0.0-19.0-0.1-0.183,A252P9NJHP5QOZ,3A3KKYU7Q6XNN7OKJ3M7MRU2CR5MWB,31Q0U3WYDTVENMZO8B0ZZ335F3771T,4,3
184,2,object_07,object_08,355.89999997616,4,2,526.10000002384,0.4444444444444444,2,object_05,1,1773,0,6,4,forest_8,1,memory-2step-stake-s,677,2492745,0.0-19.0-0.1-0.184,A252P9NJHP5QOZ,3A3KKYU7Q6XNN7OKJ3M7MRU2CR5MWB,31Q0U3WYDTVENMZO8B0ZZ335F3771T,3,4
185,3,object_04,object_09,322.5,5,1,297.60000002384,0.6666666666666666,1,object_06,5,1803,0,6,5,library_7,1,memory-2step-stake-s,678,2500957,0.0-19.0-0.1-0.185,A252P9NJHP5QOZ,3A3KKYU7Q6XNN7OKJ3M7MRU2CR5MWB,31Q0U3WYDTVENMZO8B0ZZ335F3771T,5,6
186,2,object_08,object_07,386.0,3,2,456.70000004768,0.3333333333333333,1,object_06,1,1806,0,3,5,forest_8,1,memory-2step-stake-s,679,2509036,0.0-19.0-0.1-0.186,A252P9NJHP5QOZ,3A3KKYU7Q6XNN7OKJ3M7MRU2CR5MWB,31Q0U3WYDTVENMZO8B0ZZ335F3771T,4,3
187,1,object_02,object_01,559.80000001192,2,1,791.40000003576,0.6666666666666666,2,object_05,1,1812,0,2,6,desert_7,1,memory-2step-stake-s,680,2517769,0.0-19.0-0.1-0.187,A252P9NJHP5QOZ,3A3KKYU7Q6XNN7OKJ3M7MRU2CR5MWB,31Q0U3WYDTVENMZO8B0ZZ335F3771T,2,1
188,1,object_02,object_01,579.10000002384,2,1,530.69999998808,0.7777777777777778,2,object_05,5,1847,0,0,7,desert_6,1,memory-2step-stake-s,681,2526376,0.0-19.0-0.1-0.188,A252P9NJHP5QOZ,3A3KKYU7Q6XNN7OKJ3M7MRU2CR5MWB,31Q0U3WYDTVENMZO8B0ZZ335F3771T,2,1
189,2,object_07,object_08,772.19999998808,3,1,653.80000001192,0.0,1,object_06,1,1847,0,0,7,forest_8,1,memory-2step-stake-s,682,2534320,0.0-19.0-0.1-0.189,A252P9NJHP5QOZ,3A3KKYU7Q6XNN7OKJ3M7MRU2CR5MWB,31Q0U3WYDTVENMZO8B0ZZ335F3771T,3,4
190,4,object_10,object_03,408.09999996424,8,2,509.0,0.4444444444444444,2,object_05,5,1867,0,2,4,restaurant_7,1,memory-2step-stake-s,683,2542601,0.0-19.0-0.1-0.190,A252P9NJHP5QOZ,3A3KKYU7Q6XNN7OKJ3M7MRU2CR5MWB,31Q0U3WYDTVENMZO8B0ZZ335F3771T,7,8
191,3,object_09,object_04,478.0,6,1,378.0,0.2222222222222222,2,object_05,5,1877,0,3,2,library_5,1,memory-2step-stake-s,684,2550481,0.0-19.0-0.1-0.191,A252P9NJHP5QOZ,3A3KKYU7Q6XNN7OKJ3M7MRU2CR5MWB,31Q0U3WYDTVENMZO8B0ZZ335F3771T,6,5
192,1,object_02,object_01,668.30000001192,2,1,343.89999997616,0.1111111111111111,2,object_05,1,1878,0,1,1,desert_2,1,memory-2step-stake-s,685,2558218,0.0-19.0-0.1-0.192,A252P9NJHP5QOZ,3A3KKYU7Q6XNN7OKJ3M7MRU2CR5MWB,31Q0U3WYDTVENMZO8B0ZZ335F3771T,2,1
193,1,object_02,object_01,396.19999998808,1,2,282.39999997616,0.0,1,object_06,1,1878,0,0,2,desert_6,1,memory-2step-stake-s,686,2565789,0.0-19.0-0.1-0.193,A252P9NJHP5QOZ,3A3KKYU7Q6XNN7OKJ3M7MRU2CR5MWB,31Q0U3WYDTVENMZO8B0ZZ335F3771T,2,1
194,3,object_09,object_04,643.5,6,1,511.69999998808,0.3333333333333333,2,object_05,5,1893,0,4,3,library_7,1,memory-2step-stake-s,687,2573932,0.0-19.0-0.1-0.194,A252P9NJHP5QOZ,3A3KKYU7Q6XNN7OKJ3M7MRU2CR5MWB,31Q0U3WYDTVENMZO8B0ZZ335F3771T,6,5
195,3,object_09,object_04,842.40000003576,6,1,379.09999996424,0.4444444444444444,2,object_05,5,1913,0,1,4,library_5,1,memory-2step-stake-s,688,2582071,0.0-19.0-0.1-0.195,A252P9NJHP5QOZ,3A3KKYU7Q6XNN7OKJ3M7MRU2CR5MWB,31Q0U3WYDTVENMZO8B0ZZ335F3771T,6,5
196,1,object_02,object_01,624.69999998808,1,2,455.60000002384,0.1111111111111111,1,object_06,5,1918,0,1,3,desert_4,1,memory-2step-stake-s,689,2589905,0.0-19.0-0.1-0.196,A252P9NJHP5QOZ,3A3KKYU7Q6XNN7OKJ3M7MRU2CR5MWB,31Q0U3WYDTVENMZO8B0ZZ335F3771T,2,1
197,2,object_07,object_08,472.29999995232,3,1,399.69999998808,0.3333333333333333,1,object_06,1,1921,0,3,6,forest_6,1,memory-2step-stake-s,690,2597938,0.0-19.0-0.1-0.197,A252P9NJHP5QOZ,3A3KKYU7Q6XNN7OKJ3M7MRU2CR5MWB,31Q0U3WYDTVENMZO8B0ZZ335F3771T,3,4
198,3,object_04,object_09,427.69999998808,6,2,323.20000004768,0.7777777777777778,2,object_05,5,1956,0,2,7,library_5,1,memory-2step-stake-s,691,2606323,0.0-19.0-0.1-0.198,A252P9NJHP5QOZ,3A3KKYU7Q6XNN7OKJ3M7MRU2CR5MWB,31Q0U3WYDTVENMZO8B0ZZ335F3771T,5,6
199,3,object_09,object_04,596.40000003576,6,1,562.19999998808,0.6666666666666666,2,object_05,5,1986,0,3,6,library_7,1,memory-2step-stake-s,692,2614898,0.0-19.0-0.1-0.199,A252P9NJHP5QOZ,3A3KKYU7Q6XNN7OKJ3M7MRU2CR5MWB,31Q0U3WYDTVENMZO8B0ZZ335F3771T,6,5
200,2,object_08,object_07,677.60000002384,3,2,640.40000003576,0.2222222222222222,1,object_06,5,1996,0,2,6,forest_8,1,memory-2step-stake-s,693,2623053,0.0-19.0-0.1-0.200,A252P9NJHP5QOZ,3A3KKYU7Q6XNN7OKJ3M7MRU2CR5MWB,31Q0U3WYDTVENMZO8B0ZZ335F3771T,4,3
201,3,object_04,object_09,428.0,5,1,242.30000001192,0.5555555555555556,1,object_06,5,2021,0,5,7,library_5,1,memory-2step-stake-s,694,2631137,0.0-19.0-0.1-0.201,A252P9NJHP5QOZ,3A3KKYU7Q6XNN7OKJ3M7MRU2CR5MWB,31Q0U3WYDTVENMZO8B0ZZ335F3771T,5,6
202,1,object_02,object_01,340.30000001192,1,2,299.0,0.6666666666666666,1,object_06,1,2027,0,6,9,desert_6,1,memory-2step-stake-s,695,2639378,0.0-19.0-0.1-0.202,A252P9NJHP5QOZ,3A3KKYU7Q6XNN7OKJ3M7MRU2CR5MWB,31Q0U3WYDTVENMZO8B0ZZ335F3771T,2,1
203,1,object_02,object_01,560.40000003576,1,2,310.40000003576,0.7777777777777778,1,object_06,1,2034,0,7,9,desert_7,1,memory-2step-stake-s,696,2647745,0.0-19.0-0.1-0.203,A252P9NJHP5QOZ,3A3KKYU7Q6XNN7OKJ3M7MRU2CR5MWB,31Q0U3WYDTVENMZO8B0ZZ335F3771T,2,1
204,3,object_09,object_04,457.39999997616,6,1,299.10000002384,0.4444444444444444,2,object_05,5,2054,0,7,4,library_7,1,memory-2step-stake-s,697,2655788,0.0-19.0-0.1-0.204,A252P9NJHP5QOZ,3A3KKYU7Q6XNN7OKJ3M7MRU2CR5MWB,31Q0U3WYDTVENMZO8B0ZZ335F3771T,6,5
205,1,object_02,object_01,361.09999996424,1,2,300.69999998808,0.6666666666666666,1,object_06,1,2060,0,6,2,desert_6,1,memory-2step-stake-s,698,2664061,0.0-19.0-0.1-0.205,A252P9NJHP5QOZ,3A3KKYU7Q6XNN7OKJ3M7MRU2CR5MWB,31Q0U3WYDTVENMZO8B0ZZ335F3771T,2,1
206,3,object_04,object_09,535.60000002384,5,1,254.19999998808,0.5555555555555556,1,object_06,1,2065,0,5,4,library_5,1,memory-2step-stake-s,699,2672133,0.0-19.0-0.1-0.206,A252P9NJHP5QOZ,3A3KKYU7Q6XNN7OKJ3M7MRU2CR5MWB,31Q0U3WYDTVENMZO8B0ZZ335F3771T,5,6
207,4,object_03,object_10,647.59999996424,8,1,438.39999997616,0.7777777777777778,2,object_05,5,2100,0,5,7,restaurant_4,1,memory-2step-stake-s,700,2680612,0.0-19.0-0.1-0.207,A252P9NJHP5QOZ,3A3KKYU7Q6XNN7OKJ3M7MRU2CR5MWB,31Q0U3WYDTVENMZO8B0ZZ335F3771T,8,7
208,3,object_09,object_04,482.39999997616,6,1,269.10000002384,0.6666666666666666,2,object_05,5,2130,0,3,6,library_1,1,memory-2step-stake-s,701,2688852,0.0-19.0-0.1-0.208,A252P9NJHP5QOZ,3A3KKYU7Q6XNN7OKJ3M7MRU2CR5MWB,31Q0U3WYDTVENMZO8B0ZZ335F3771T,6,5
209,4,object_10,object_03,516.79999995232,8,2,368.5,0.7777777777777778,2,object_05,5,2165,0,1,7,restaurant_7,1,memory-2step-stake-s,702,2697310,0.0-19.0-0.1-0.209,A252P9NJHP5QOZ,3A3KKYU7Q6XNN7OKJ3M7MRU2CR5MWB,31Q0U3WYDTVENMZO8B0ZZ335F3771T,7,8
210,1,object_02,object_01,486.5,1,2,253.29999995232,0.0,1,object_06,1,2165,0,0,9,desert_6,1,memory-2step-stake-s,703,2704850,0.0-19.0-0.1-0.210,A252P9NJHP5QOZ,3A3KKYU7Q6XNN7OKJ3M7MRU2CR5MWB,31Q0U3WYDTVENMZO8B0ZZ335F3771T,2,1
211,3,object_09,object_04,445.10000002384,6,1,319.0,0.8888888888888888,2,object_05,5,2205,0,0,8,library_1,1,memory-2step-stake-s,704,2713364,0.0-19.0-0.1-0.211,A252P9NJHP5QOZ,3A3KKYU7Q6XNN7OKJ3M7MRU2CR5MWB,31Q0U3WYDTVENMZO8B0ZZ335F3771T,6,5
212,2,object_08,object_07,970.09999996424,3,2,410.80000001192,0.2222222222222222,1,object_06,1,2207,0,2,8,forest_3,1,memory-2step-stake-s,705,2721296,0.0-19.0-0.1-0.212,A252P9NJHP5QOZ,3A3KKYU7Q6XNN7OKJ3M7MRU2CR5MWB,31Q0U3WYDTVENMZO8B0ZZ335F3771T,4,3
213,4,object_03,object_10,732.40000003576,8,1,373.39999997616,0.8888888888888888,2,object_05,5,2247,0,1,8,restaurant_8,1,memory-2step-stake-s,706,2729821,0.0-19.0-0.1-0.213,A252P9NJHP5QOZ,3A3KKYU7Q6XNN7OKJ3M7MRU2CR5MWB,31Q0U3WYDTVENMZO8B0ZZ335F3771T,8,7
214,3,object_04,object_09,434.40000003576,6,2,429.5,0.8888888888888888,2,object_05,5,2287,0,2,8,library_5,1,memory-2step-stake-s,707,2738406,0.0-19.0-0.1-0.214,A252P9NJHP5QOZ,3A3KKYU7Q6XNN7OKJ3M7MRU2CR5MWB,31Q0U3WYDTVENMZO8B0ZZ335F3771T,5,6
215,1,object_01,object_02,891.60000002384,1,1,433.30000001192,0.5555555555555556,1,object_06,1,2292,0,5,8,desert_4,1,memory-2step-stake-s,708,2746680,0.0-19.0-0.1-0.215,A252P9NJHP5QOZ,3A3KKYU7Q6XNN7OKJ3M7MRU2CR5MWB,31Q0U3WYDTVENMZO8B0ZZ335F3771T,1,2
216,1,object_01,object_02,706.79999995232,1,1,1026.6999999881,0.7777777777777778,1,object_06,1,2299,0,7,8,desert_4,1,memory-2step-stake-s,709,2755743,0.0-19.0-0.1-0.216,A252P9NJHP5QOZ,3A3KKYU7Q6XNN7OKJ3M7MRU2CR5MWB,31Q0U3WYDTVENMZO8B0ZZ335F3771T,1,2
217,3,object_09,object_04,432.19999998808,6,1,1067.5,0.8888888888888888,2,object_05,5,2339,0,7,8,library_1,1,memory-2step-stake-s,710,2765001,0.0-19.0-0.1-0.217,A252P9NJHP5QOZ,3A3KKYU7Q6XNN7OKJ3M7MRU2CR5MWB,31Q0U3WYDTVENMZO8B0ZZ335F3771T,6,5
218,4,object_10,object_03,964.19999998808,8,2,436.10000002384,0.7777777777777778,2,object_05,5,2374,0,7,7,restaurant_8,1,memory-2step-stake-s,711,2773525,0.0-19.0-0.1-0.218,A252P9NJHP5QOZ,3A3KKYU7Q6XNN7OKJ3M7MRU2CR5MWB,31Q0U3WYDTVENMZO8B0ZZ335F3771T,7,8
219,3,object_04,object_09,478.59999996424,6,2,361.80000001192,1.0,2,object_05,5,2419,0,9,9,library_4,1,memory-2step-stake-s,712,2782215,0.0-19.0-0.1-0.219,A252P9NJHP5QOZ,3A3KKYU7Q6XNN7OKJ3M7MRU2CR5MWB,31Q0U3WYDTVENMZO8B0ZZ335F3771T,5,6
220,1,object_01,object_02,1078.9000000358,2,2,380.5,0.7777777777777778,2,object_05,5,2454,0,7,7,desert_4,1,memory-2step-stake-s,713,2790657,0.0-19.0-0.1-0.220,A252P9NJHP5QOZ,3A3KKYU7Q6XNN7OKJ3M7MRU2CR5MWB,31Q0U3WYDTVENMZO8B0ZZ335F3771T,1,2
221,3,object_09,object_04,452.0,5,2,287.0,0.8888888888888888,1,object_06,1,2462,0,8,7,library_1,1,memory-2step-stake-s,714,2799155,0.0-19.0-0.1-0.221,A252P9NJHP5QOZ,3A3KKYU7Q6XNN7OKJ3M7MRU2CR5MWB,31Q0U3WYDTVENMZO8B0ZZ335F3771T,6,5
222,3,object_04,object_09,900.09999996424,6,2,296.30000001192,0.8888888888888888,2,object_05,5,2502,0,9,8,library_4,1,memory-2step-stake-s,715,2807664,0.0-19.0-0.1-0.222,A252P9NJHP5QOZ,3A3KKYU7Q6XNN7OKJ3M7MRU2CR5MWB,31Q0U3WYDTVENMZO8B0ZZ335F3771T,5,6
223,3,object_04,object_09,412.0,6,2,302.10000002384,0.4444444444444444,2,object_05,5,2522,0,7,4,library_7,1,memory-2step-stake-s,716,2815704,0.0-19.0-0.1-0.223,A252P9NJHP5QOZ,3A3KKYU7Q6XNN7OKJ3M7MRU2CR5MWB,31Q0U3WYDTVENMZO8B0ZZ335F3771T,5,6
224,4,object_03,object_10,654.10000002384,8,1,387.5,0.5555555555555556,2,object_05,5,2547,0,4,5,restaurant_7,1,memory-2step-stake-s,717,2823962,0.0-19.0-0.1-0.224,A252P9NJHP5QOZ,3A3KKYU7Q6XNN7OKJ3M7MRU2CR5MWB,31Q0U3WYDTVENMZO8B0ZZ335F3771T,8,7
225,4,object_03,object_10,965.60000002384,7,2,385.29999995232,0.5555555555555556,1,object_06,1,2552,0,5,5,restaurant_7,1,memory-2step-stake-s,718,2832204,0.0-19.0-0.1-0.225,A252P9NJHP5QOZ,3A3KKYU7Q6XNN7OKJ3M7MRU2CR5MWB,31Q0U3WYDTVENMZO8B0ZZ335F3771T,8,7
226,4,object_10,object_03,875.80000001192,8,2,270.0,0.7777777777777778,2,object_05,1,2559,0,6,7,restaurant_1,1,memory-2step-stake-s,719,2840540,0.0-19.0-0.1-0.226,A252P9NJHP5QOZ,3A3KKYU7Q6XNN7OKJ3M7MRU2CR5MWB,31Q0U3WYDTVENMZO8B0ZZ335F3771T,7,8
227,4,object_03,object_10,495.59999996424,8,1,253.09999996424,0.6666666666666666,2,object_05,5,2589,0,7,6,restaurant_7,1,memory-2step-stake-s,720,2848714,0.0-19.0-0.1-0.227,A252P9NJHP5QOZ,3A3KKYU7Q6XNN7OKJ3M7MRU2CR5MWB,31Q0U3WYDTVENMZO8B0ZZ335F3771T,8,7
228,4,object_03,object_10,758.79999995232,8,1,465.19999998808,0.6666666666666666,2,object_05,5,2619,0,7,6,restaurant_4,1,memory-2step-stake-s,721,2857097,0.0-19.0-0.1-0.228,A252P9NJHP5QOZ,3A3KKYU7Q6XNN7OKJ3M7MRU2CR5MWB,31Q0U3WYDTVENMZO8B0ZZ335F3771T,8,7
229,1,object_01,object_02,915.80000001192,1,1,-1.0,0.0,1,object_06,1,2619,0,7,8,desert_6,1,memory-2step-stake-s,722,2865710,0.0-19.0-0.1-0.229,A252P9NJHP5QOZ,3A3KKYU7Q6XNN7OKJ3M7MRU2CR5MWB,31Q0U3WYDTVENMZO8B0ZZ335F3771T,1,2
230,1,object_01,object_02,476.0,2,2,362.5,0.8888888888888888,2,object_05,5,2659,0,6,8,desert_2,1,memory-2step-stake-s,723,2874250,0.0-19.0-0.1-0.230,A252P9NJHP5QOZ,3A3KKYU7Q6XNN7OKJ3M7MRU2CR5MWB,31Q0U3WYDTVENMZO8B0ZZ335F3771T,1,2
231,4,object_10,object_03,717.19999998808,8,2,608.19999998808,0.8888888888888888,2,object_05,5,2699,0,6,8,restaurant_4,1,memory-2step-stake-s,724,2883064,0.0-19.0-0.1-0.231,A252P9NJHP5QOZ,3A3KKYU7Q6XNN7OKJ3M7MRU2CR5MWB,31Q0U3WYDTVENMZO8B0ZZ335F3771T,7,8
232,2,object_08,object_07,581.5,4,1,336.29999995232,0.8888888888888888,2,object_05,5,2739,0,2,8,forest_6,1,memory-2step-stake-s,725,2891581,0.0-19.0-0.1-0.232,A252P9NJHP5QOZ,3A3KKYU7Q6XNN7OKJ3M7MRU2CR5MWB,31Q0U3WYDTVENMZO8B0ZZ335F3771T,4,3
233,3,object_09,object_04,386.0,6,1,405.40000003576,0.8888888888888888,2,object_05,5,2779,0,1,8,library_5,1,memory-2step-stake-s,726,2900133,0.0-19.0-0.1-0.233,A252P9NJHP5QOZ,3A3KKYU7Q6XNN7OKJ3M7MRU2CR5MWB,31Q0U3WYDTVENMZO8B0ZZ335F3771T,6,5
234,4,object_03,object_10,490.59999996424,8,1,412.80000001192,0.7777777777777778,2,object_05,5,2814,0,3,7,restaurant_4,1,memory-2step-stake-s,727,2908622,0.0-19.0-0.1-0.234,A252P9NJHP5QOZ,3A3KKYU7Q6XNN7OKJ3M7MRU2CR5MWB,31Q0U3WYDTVENMZO8B0ZZ335F3771T,8,7
235,2,object_07,object_08,725.89999997616,3,1,325.10000002384,0.5555555555555556,1,object_06,1,2819,0,5,4,forest_8,1,memory-2step-stake-s,728,2916736,0.0-19.0-0.1-0.235,A252P9NJHP5QOZ,3A3KKYU7Q6XNN7OKJ3M7MRU2CR5MWB,31Q0U3WYDTVENMZO8B0ZZ335F3771T,3,4
236,3,object_09,object_04,472.5,6,1,368.5,0.4444444444444444,2,object_05,5,2839,0,5,4,library_1,1,memory-2step-stake-s,729,2924829,0.0-19.0-0.1-0.236,A252P9NJHP5QOZ,3A3KKYU7Q6XNN7OKJ3M7MRU2CR5MWB,31Q0U3WYDTVENMZO8B0ZZ335F3771T,6,5
237,3,object_09,object_04,254.69999998808,5,2,291.19999998808,0.3333333333333333,1,object_06,1,2842,0,3,5,library_4,1,memory-2step-stake-s,730,2932732,0.0-19.0-0.1-0.237,A252P9NJHP5QOZ,3A3KKYU7Q6XNN7OKJ3M7MRU2CR5MWB,31Q0U3WYDTVENMZO8B0ZZ335F3771T,6,5
238,2,object_07,object_08,519.69999998808,3,1,323.60000002384,0.5555555555555556,1,object_06,1,2847,0,5,2,forest_2,1,memory-2step-stake-s,731,2940912,0.0-19.0-0.1-0.238,A252P9NJHP5QOZ,3A3KKYU7Q6XNN7OKJ3M7MRU2CR5MWB,31Q0U3WYDTVENMZO8B0ZZ335F3771T,3,4
239,1,object_02,object_01,401.40000003576,1,2,295.40000003576,0.3333333333333333,1,object_06,1,2850,0,3,2,desert_2,1,memory-2step-stake-s,732,2948828,0.0-19.0-0.1-0.239,A252P9NJHP5QOZ,3A3KKYU7Q6XNN7OKJ3M7MRU2CR5MWB,31Q0U3WYDTVENMZO8B0ZZ335F3771T,2,1
240,4,object_03,object_10,526.30000001192,8,1,455.0,0.1111111111111111,2,object_05,5,2855,0,3,1,restaurant_1,1,memory-2step-stake-s,733,2956669,0.0-19.0-0.1-0.240,A252P9NJHP5QOZ,3A3KKYU7Q6XNN7OKJ3M7MRU2CR5MWB,31Q0U3WYDTVENMZO8B0ZZ335F3771T,8,7
241,3,object_04,object_09,480.0,5,1,777.0,0.2222222222222222,1,object_06,1,2857,0,2,3,library_7,1,memory-2step-stake-s,734,2964994,0.0-19.0-0.1-0.241,A252P9NJHP5QOZ,3A3KKYU7Q6XNN7OKJ3M7MRU2CR5MWB,31Q0U3WYDTVENMZO8B0ZZ335F3771T,5,6
242,3,object_09,object_04,327.30000001192,6,1,437.5,0.4444444444444444,2,object_05,1,2861,0,1,4,library_1,1,memory-2step-stake-s,735,2973153,0.0-19.0-0.1-0.242,A252P9NJHP5QOZ,3A3KKYU7Q6XNN7OKJ3M7MRU2CR5MWB,31Q0U3WYDTVENMZO8B0ZZ335F3771T,6,5
243,4,object_10,object_03,1280.6999999881,8,2,1473.3000000119,0.6666666666666666,2,object_05,5,2891,0,1,6,restaurant_1,1,memory-2step-stake-s,736,2982587,0.0-19.0-0.1-0.243,A252P9NJHP5QOZ,3A3KKYU7Q6XNN7OKJ3M7MRU2CR5MWB,31Q0U3WYDTVENMZO8B0ZZ335F3771T,7,8
244,3,object_04,object_09,403.5,6,2,880.69999998808,0.4444444444444444,2,object_05,5,2911,0,0,4,library_7,1,memory-2step-stake-s,737,2991268,0.0-19.0-0.1-0.244,A252P9NJHP5QOZ,3A3KKYU7Q6XNN7OKJ3M7MRU2CR5MWB,31Q0U3WYDTVENMZO8B0ZZ335F3771T,5,6
245,4,object_03,object_10,945.30000001192,8,1,328.30000001192,0.5555555555555556,2,object_05,5,2936,0,1,5,restaurant_7,1,memory-2step-stake-s,738,2999455,0.0-19.0-0.1-0.245,A252P9NJHP5QOZ,3A3KKYU7Q6XNN7OKJ3M7MRU2CR5MWB,31Q0U3WYDTVENMZO8B0ZZ335F3771T,8,7
246,2,object_07,object_08,632.30000001192,4,2,566.19999998808,0.7777777777777778,2,object_05,5,2971,0,1,7,forest_6,1,memory-2step-stake-s,739,3008101,0.0-19.0-0.1-0.246,A252P9NJHP5QOZ,3A3KKYU7Q6XNN7OKJ3M7MRU2CR5MWB,31Q0U3WYDTVENMZO8B0ZZ335F3771T,3,4
247,2,object_07,object_08,400.5,4,2,299.0,0.8888888888888888,2,object_05,1,2979,0,2,8,forest_3,1,memory-2step-stake-s,740,3016608,0.0-19.0-0.1-0.247,A252P9NJHP5QOZ,3A3KKYU7Q6XNN7OKJ3M7MRU2CR5MWB,31Q0U3WYDTVENMZO8B0ZZ335F3771T,3,4
248,3,object_04,object_09,647.30000001192,6,2,349.10000002384,0.7777777777777778,2,object_05,5,3014,0,4,7,library_4,1,memory-2step-stake-s,741,3025036,0.0-19.0-0.1-0.248,A252P9NJHP5QOZ,3A3KKYU7Q6XNN7OKJ3M7MRU2CR5MWB,31Q0U3WYDTVENMZO8B0ZZ335F3771T,5,6
249,3,object_04,object_09,739.80000001192,6,2,238.89999997616,0.8888888888888888,2,object_05,1,3022,0,2,8,library_4,1,memory-2step-stake-s,742,3033433,0.0-19.0-0.1-0.249,A252P9NJHP5QOZ,3A3KKYU7Q6XNN7OKJ3M7MRU2CR5MWB,31Q0U3WYDTVENMZO8B0ZZ335F3771T,5,6
250,1,object_01,object_02,317.30000001192,2,2,387.30000001192,0.6666666666666666,2,object_05,1,3028,0,0,6,desert_6,1,memory-2step-stake-s,743,3041764,0.0-19.0-0.1-0.250,A252P9NJHP5QOZ,3A3KKYU7Q6XNN7OKJ3M7MRU2CR5MWB,31Q0U3WYDTVENMZO8B0ZZ335F3771T,1,2
251,4,object_10,object_03,654.89999997616,8,2,283.5,0.5555555555555556,2,object_05,5,3053,0,1,5,restaurant_8,1,memory-2step-stake-s,744,3049899,0.0-19.0-0.1-0.251,A252P9NJHP5QOZ,3A3KKYU7Q6XNN7OKJ3M7MRU2CR5MWB,31Q0U3WYDTVENMZO8B0ZZ335F3771T,7,8
252,1,object_01,object_02,398.19999998808,1,1,372.30000001192,0.0,1,object_06,1,3053,0,0,4,desert_4,1,memory-2step-stake-s,745,3057526,0.0-19.0-0.1-0.252,A252P9NJHP5QOZ,3A3KKYU7Q6XNN7OKJ3M7MRU2CR5MWB,31Q0U3WYDTVENMZO8B0ZZ335F3771T,1,2
253,4,object_10,object_03,390.80000001192,8,2,337.10000002384,0.5555555555555556,2,object_05,5,3078,0,4,5,restaurant_7,1,memory-2step-stake-s,746,3065709,0.0-19.0-0.1-0.253,A252P9NJHP5QOZ,3A3KKYU7Q6XNN7OKJ3M7MRU2CR5MWB,31Q0U3WYDTVENMZO8B0ZZ335F3771T,7,8
254,3,object_09,object_04,426.30000001192,6,1,424.80000001192,0.3333333333333333,2,object_05,5,3093,0,4,3,library_4,1,memory-2step-stake-s,747,3073764,0.0-19.0-0.1-0.254,A252P9NJHP5QOZ,3A3KKYU7Q6XNN7OKJ3M7MRU2CR5MWB,31Q0U3WYDTVENMZO8B0ZZ335F3771T,6,5
255,1,object_02,object_01,651.79999995232,1,2,301.19999998808,0.8888888888888888,1,object_06,5,3133,0,8,2,desert_6,1,memory-2step-stake-s,748,3082276,0.0-19.0-0.1-0.255,A252P9NJHP5QOZ,3A3KKYU7Q6XNN7OKJ3M7MRU2CR5MWB,31Q0U3WYDTVENMZO8B0ZZ335F3771T,2,1
