,state1,stim_left,stim_right,rt_1,choice1,response1,rt_2,points,state2,stim_state2,stake,score,practice,rews1,rews2,background,high_arm,trial_type,trial_index,time_elapsed,internal_node_id,subid,hitid,assignmentid,stim_left_num,stim_right_num
0,1,object_08,object_01,-1.0,-1,-1,-1.0,0.0,-,0,5,0,0,8,1,desert_6,2,memory-2step-stake-s,497,1097220,0.0-19.0-0.0-0.0,A30RTQC0LLY19K,3B623HUYK76FV1575X2NKKQMM9B8SL,3A0EX8ZRNC4YF4DHXHJOIS0B5CQYBJ,1,2
1,4,object_02,object_07,334.40000003576,8,1,1169.3000000119,0.2222222222222222,2,object_10,5,10,0,7,2,restaurant_3,2,memory-2step-stake-s,498,1105833,0.0-19.0-0.0-0.1,A30RTQC0LLY19K,3B623HUYK76FV1575X2NKKQMM9B8SL,3A0EX8ZRNC4YF4DHXHJOIS0B5CQYBJ,8,7
2,1,object_08,object_01,810.69999998808,2,2,803.39999997616,0.3333333333333333,2,object_10,5,25,0,7,3,desert_6,2,memory-2step-stake-s,499,1114174,0.0-19.0-0.0-0.2,A30RTQC0LLY19K,3B623HUYK76FV1575X2NKKQMM9B8SL,3A0EX8ZRNC4YF4DHXHJOIS0B5CQYBJ,1,2
3,2,object_09,object_06,519.29999995232,4,1,805.80000001192,0.4444444444444444,2,object_10,5,45,0,5,4,forest_4,2,memory-2step-stake-s,500,1122627,0.0-19.0-0.0-0.3,A30RTQC0LLY19K,3B623HUYK76FV1575X2NKKQMM9B8SL,3A0EX8ZRNC4YF4DHXHJOIS0B5CQYBJ,4,3
4,2,object_09,object_06,465.60000002384,3,2,585.89999997616,0.7777777777777778,1,object_03,5,80,0,7,4,forest_1,2,memory-2step-stake-s,501,1131158,0.0-19.0-0.0-0.4,A30RTQC0LLY19K,3B623HUYK76FV1575X2NKKQMM9B8SL,3A0EX8ZRNC4YF4DHXHJOIS0B5CQYBJ,4,3
5,2,object_06,object_09,380.80000001192,3,1,468.59999996424,1.0,1,object_03,5,125,0,9,0,forest_4,2,memory-2step-stake-s,502,1139796,0.0-19.0-0.0-0.5,A30RTQC0LLY19K,3B623HUYK76FV1575X2NKKQMM9B8SL,3A0EX8ZRNC4YF4DHXHJOIS0B5CQYBJ,3,4
6,2,object_09,object_06,285.80000001192,3,2,381.0,0.8888888888888888,1,object_03,5,165,0,8,1,forest_4,2,memory-2step-stake-s,503,1148228,0.0-19.0-0.0-0.6,A30RTQC0LLY19K,3B623HUYK76FV1575X2NKKQMM9B8SL,3A0EX8ZRNC4YF4DHXHJOIS0B5CQYBJ,4,3
7,4,object_07,object_02,309.69999998808,7,1,614.89999997616,0.8888888888888888,1,object_03,1,173,0,8,0,restaurant_5,2,memory-2step-stake-s,504,1156898,0.0-19.0-0.0-0.7,A30RTQC0LLY19K,3B623HUYK76FV1575X2NKKQMM9B8SL,3A0EX8ZRNC4YF4DHXHJOIS0B5CQYBJ,7,8
8,4,object_02,object_07,310.69999998808,7,2,634.10000002384,0.7777777777777778,1,object_03,1,180,0,7,1,restaurant_5,2,memory-2step-stake-s,505,1165479,0.0-19.0-0.0-0.8,A30RTQC0LLY19K,3B623HUYK76FV1575X2NKKQMM9B8SL,3A0EX8ZRNC4YF4DHXHJOIS0B5CQYBJ,8,7
9,4,object_07,object_02,259.90000003576,7,1,571.30000001192,0.7777777777777778,1,object_03,1,187,0,7,0,restaurant_7,2,memory-2step-stake-s,506,1174001,0.0-19.0-0.0-0.9,A30RTQC0LLY19K,3B623HUYK76FV1575X2NKKQMM9B8SL,3A0EX8ZRNC4YF4DHXHJOIS0B5CQYBJ,7,8
10,3,object_05,object_04,318.30000001192,6,2,438.90000003576,0.1111111111111111,2,object_10,1,188,0,7,1,library_2,2,memory-2step-stake-s,507,1181777,0.0-19.0-0.0-0.10,A30RTQC0LLY19K,3B623HUYK76FV1575X2NKKQMM9B8SL,3A0EX8ZRNC4YF4DHXHJOIS0B5CQYBJ,5,6
11,4,object_07,object_02,291.39999997616,7,1,352.09999996424,0.7777777777777778,1,object_03,1,195,0,7,2,restaurant_5,2,memory-2step-stake-s,508,1190076,0.0-19.0-0.0-0.11,A30RTQC0LLY19K,3B623HUYK76FV1575X2NKKQMM9B8SL,3A0EX8ZRNC4YF4DHXHJOIS0B5CQYBJ,7,8
12,2,object_06,object_09,327.10000002384,3,1,428.80000001192,0.4444444444444444,1,object_03,5,215,0,4,4,forest_6,2,memory-2step-stake-s,509,1198148,0.0-19.0-0.0-0.12,A30RTQC0LLY19K,3B623HUYK76FV1575X2NKKQMM9B8SL,3A0EX8ZRNC4YF4DHXHJOIS0B5CQYBJ,3,4
13,2,object_06,object_09,225.80000001192,4,2,411.30000001192,0.3333333333333333,2,object_10,5,230,0,4,3,forest_4,2,memory-2step-stake-s,510,1206105,0.0-19.0-0.0-0.13,A30RTQC0LLY19K,3B623HUYK76FV1575X2NKKQMM9B8SL,3A0EX8ZRNC4YF4DHXHJOIS0B5CQYBJ,3,4
14,1,object_01,object_08,293.19999998808,2,1,486.90000003576,0.4444444444444444,2,object_10,5,250,0,2,4,desert_3,2,memory-2step-stake-s,511,1214247,0.0-19.0-0.0-0.14,A30RTQC0LLY19K,3B623HUYK76FV1575X2NKKQMM9B8SL,3A0EX8ZRNC4YF4DHXHJOIS0B5CQYBJ,2,1
15,4,object_02,object_07,351.5,7,2,944.0,0.0,1,object_03,1,250,0,0,2,restaurant_5,2,memory-2step-stake-s,512,1222430,0.0-19.0-0.0-0.15,A30RTQC0LLY19K,3B623HUYK76FV1575X2NKKQMM9B8SL,3A0EX8ZRNC4YF4DHXHJOIS0B5CQYBJ,8,7
16,3,object_04,object_05,256.79999995232,5,2,1220.8999999762,0.2222222222222222,1,object_03,1,252,0,2,4,library_4,2,memory-2step-stake-s,513,1231088,0.0-19.0-0.0-0.16,A30RTQC0LLY19K,3B623HUYK76FV1575X2NKKQMM9B8SL,3A0EX8ZRNC4YF4DHXHJOIS0B5CQYBJ,6,5
17,1,object_01,object_08,297.60000002384,2,1,438.19999998808,0.4444444444444444,2,object_10,5,272,0,3,4,desert_7,2,memory-2step-stake-s,514,1239173,0.0-19.0-0.0-0.17,A30RTQC0LLY19K,3B623HUYK76FV1575X2NKKQMM9B8SL,3A0EX8ZRNC4YF4DHXHJOIS0B5CQYBJ,2,1
18,3,object_04,object_05,491.69999998808,5,2,600.59999996424,0.1111111111111111,1,object_03,1,273,0,1,5,library_2,2,memory-2step-stake-s,515,1247109,0.0-19.0-0.0-0.18,A30RTQC0LLY19K,3B623HUYK76FV1575X2NKKQMM9B8SL,3A0EX8ZRNC4YF4DHXHJOIS0B5CQYBJ,6,5
19,4,object_02,object_07,288.19999998808,8,1,349.10000002384,0.6666666666666666,2,object_10,1,279,0,2,6,restaurant_3,2,memory-2step-stake-s,516,1255313,0.0-19.0-0.0-0.19,A30RTQC0LLY19K,3B623HUYK76FV1575X2NKKQMM9B8SL,3A0EX8ZRNC4YF4DHXHJOIS0B5CQYBJ,8,7
20,4,object_07,object_02,327.0,8,2,638.39999997616,0.7777777777777778,2,object_10,1,286,0,1,7,restaurant_5,2,memory-2step-stake-s,517,1263914,0.0-19.0-0.0-0.20,A30RTQC0LLY19K,3B623HUYK76FV1575X2NKKQMM9B8SL,3A0EX8ZRNC4YF4DHXHJOIS0B5CQYBJ,7,8
21,3,object_05,object_04,305.59999996424,5,1,406.10000002384,0.2222222222222222,1,object_03,1,288,0,2,5,library_4,2,memory-2step-stake-s,518,1271765,0.0-19.0-0.0-0.21,A30RTQC0LLY19K,3B623HUYK76FV1575X2NKKQMM9B8SL,3A0EX8ZRNC4YF4DHXHJOIS0B5CQYBJ,5,6
22,1,object_01,object_08,387.5,1,2,681.60000002384,0.1111111111111111,1,object_03,1,289,0,1,6,desert_3,2,memory-2step-stake-s,519,1279786,0.0-19.0-0.0-0.22,A30RTQC0LLY19K,3B623HUYK76FV1575X2NKKQMM9B8SL,3A0EX8ZRNC4YF4DHXHJOIS0B5CQYBJ,2,1
23,3,object_05,object_04,334.80000001192,5,1,995.0,0.2222222222222222,1,object_03,1,291,0,2,5,library_5,2,memory-2step-stake-s,520,1288223,0.0-19.0-0.0-0.23,A30RTQC0LLY19K,3B623HUYK76FV1575X2NKKQMM9B8SL,3A0EX8ZRNC4YF4DHXHJOIS0B5CQYBJ,5,6
24,1,object_08,object_01,310.5,1,1,379.10000002384,0.2222222222222222,1,object_03,5,301,0,2,6,desert_7,2,memory-2step-stake-s,521,1296047,0.0-19.0-0.0-0.24,A30RTQC0LLY19K,3B623HUYK76FV1575X2NKKQMM9B8SL,3A0EX8ZRNC4YF4DHXHJOIS0B5CQYBJ,1,2
25,4,object_02,object_07,344.19999998808,7,2,432.19999998808,0.3333333333333333,1,object_03,5,316,0,3,6,restaurant_5,2,memory-2step-stake-s,522,1304025,0.0-19.0-0.0-0.25,A30RTQC0LLY19K,3B623HUYK76FV1575X2NKKQMM9B8SL,3A0EX8ZRNC4YF4DHXHJOIS0B5CQYBJ,8,7
26,4,object_02,object_07,339.10000002384,8,1,444.60000002384,0.4444444444444444,2,object_10,1,320,0,7,4,restaurant_5,2,memory-2step-stake-s,523,1312126,0.0-19.0-0.0-0.26,A30RTQC0LLY19K,3B623HUYK76FV1575X2NKKQMM9B8SL,3A0EX8ZRNC4YF4DHXHJOIS0B5CQYBJ,8,7
27,4,object_07,object_02,322.30000001192,8,2,954.39999997616,0.3333333333333333,2,object_10,1,323,0,5,3,restaurant_7,2,memory-2step-stake-s,524,1320622,0.0-19.0-0.0-0.27,A30RTQC0LLY19K,3B623HUYK76FV1575X2NKKQMM9B8SL,3A0EX8ZRNC4YF4DHXHJOIS0B5CQYBJ,7,8
28,4,object_07,object_02,343.69999998808,7,1,1004.1999999881,0.3333333333333333,1,object_03,1,326,0,3,4,restaurant_5,2,memory-2step-stake-s,525,1329171,0.0-19.0-0.0-0.28,A30RTQC0LLY19K,3B623HUYK76FV1575X2NKKQMM9B8SL,3A0EX8ZRNC4YF4DHXHJOIS0B5CQYBJ,7,8
29,1,object_08,object_01,331.30000001192,2,2,578.30000001192,0.5555555555555556,2,object_10,5,351,0,4,5,desert_7,2,memory-2step-stake-s,526,1337507,0.0-19.0-0.0-0.29,A30RTQC0LLY19K,3B623HUYK76FV1575X2NKKQMM9B8SL,3A0EX8ZRNC4YF4DHXHJOIS0B5CQYBJ,1,2
30,2,object_06,object_09,296.80000001192,3,1,424.0,0.6666666666666666,1,object_03,5,381,0,6,5,forest_4,2,memory-2step-stake-s,527,1345790,0.0-19.0-0.0-0.30,A30RTQC0LLY19K,3B623HUYK76FV1575X2NKKQMM9B8SL,3A0EX8ZRNC4YF4DHXHJOIS0B5CQYBJ,3,4
31,1,object_01,object_08,238.89999997616,1,2,361.19999998808,0.8888888888888888,1,object_03,5,421,0,8,3,desert_1,2,memory-2step-stake-s,528,1354216,0.0-19.0-0.0-0.31,A30RTQC0LLY19K,3B623HUYK76FV1575X2NKKQMM9B8SL,3A0EX8ZRNC4YF4DHXHJOIS0B5CQYBJ,2,1
32,3,object_04,object_05,323.5,6,1,412.69999998808,0.0,2,object_10,5,421,0,9,0,library_2,2,memory-2step-stake-s,529,1361869,0.0-19.0-0.0-0.32,A30RTQC0LLY19K,3B623HUYK76FV1575X2NKKQMM9B8SL,3A0EX8ZRNC4YF4DHXHJOIS0B5CQYBJ,6,5
33,1,object_08,object_01,321.0,2,2,432.0,0.1111111111111111,2,object_10,1,422,0,8,1,desert_6,2,memory-2step-stake-s,530,1369645,0.0-19.0-0.0-0.33,A30RTQC0LLY19K,3B623HUYK76FV1575X2NKKQMM9B8SL,3A0EX8ZRNC4YF4DHXHJOIS0B5CQYBJ,1,2
34,3,object_05,object_04,279.5,5,1,423.79999995232,0.6666666666666666,1,object_03,5,452,0,6,2,library_5,2,memory-2step-stake-s,531,1377922,0.0-19.0-0.0-0.34,A30RTQC0LLY19K,3B623HUYK76FV1575X2NKKQMM9B8SL,3A0EX8ZRNC4YF4DHXHJOIS0B5CQYBJ,5,6
35,1,object_01,object_08,289.70000004768,1,2,908.19999998808,0.6666666666666666,1,object_03,5,482,0,6,0,desert_3,2,memory-2step-stake-s,532,1386690,0.0-19.0-0.0-0.35,A30RTQC0LLY19K,3B623HUYK76FV1575X2NKKQMM9B8SL,3A0EX8ZRNC4YF4DHXHJOIS0B5CQYBJ,2,1
36,1,object_08,object_01,327.09999996424,1,1,414.69999998808,0.4444444444444444,1,object_03,5,502,0,4,1,desert_6,2,memory-2step-stake-s,533,1394761,0.0-19.0-0.0-0.36,A30RTQC0LLY19K,3B623HUYK76FV1575X2NKKQMM9B8SL,3A0EX8ZRNC4YF4DHXHJOIS0B5CQYBJ,1,2
37,4,object_07,object_02,367.30000001192,8,2,682.40000003576,0.1111111111111111,2,object_10,1,503,0,5,1,restaurant_8,2,memory-2step-stake-s,534,1402780,0.0-19.0-0.0-0.37,A30RTQC0LLY19K,3B623HUYK76FV1575X2NKKQMM9B8SL,3A0EX8ZRNC4YF4DHXHJOIS0B5CQYBJ,7,8
38,4,object_07,object_02,634.5,7,1,421.30000001192,0.6666666666666666,1,object_03,5,533,0,6,1,restaurant_8,2,memory-2step-stake-s,535,1411063,0.0-19.0-0.0-0.38,A30RTQC0LLY19K,3B623HUYK76FV1575X2NKKQMM9B8SL,3A0EX8ZRNC4YF4DHXHJOIS0B5CQYBJ,7,8
39,2,object_06,object_09,419.0,4,2,407.89999997616,0.1111111111111111,2,object_10,1,534,0,7,1,forest_8,2,memory-2step-stake-s,536,1418819,0.0-19.0-0.0-0.39,A30RTQC0LLY19K,3B623HUYK76FV1575X2NKKQMM9B8SL,3A0EX8ZRNC4YF4DHXHJOIS0B5CQYBJ,3,4
40,3,object_05,object_04,341.60000002384,5,1,420.89999997616,0.8888888888888888,1,object_03,1,542,0,8,1,library_1,2,memory-2step-stake-s,537,1427313,0.0-19.0-0.0-0.40,A30RTQC0LLY19K,3B623HUYK76FV1575X2NKKQMM9B8SL,3A0EX8ZRNC4YF4DHXHJOIS0B5CQYBJ,5,6
41,4,object_02,object_07,535.20000004768,7,2,433.5,0.7777777777777778,1,object_03,1,549,0,7,3,restaurant_8,2,memory-2step-stake-s,538,1435718,0.0-19.0-0.0-0.41,A30RTQC0LLY19K,3B623HUYK76FV1575X2NKKQMM9B8SL,3A0EX8ZRNC4YF4DHXHJOIS0B5CQYBJ,8,7
42,2,object_09,object_06,323.40000003576,4,1,380.39999997616,0.1111111111111111,2,object_10,1,550,0,8,1,forest_8,2,memory-2step-stake-s,539,1443442,0.0-19.0-0.0-0.42,A30RTQC0LLY19K,3B623HUYK76FV1575X2NKKQMM9B8SL,3A0EX8ZRNC4YF4DHXHJOIS0B5CQYBJ,4,3
43,2,object_09,object_06,329.29999995232,3,2,542.5,0.8888888888888888,1,object_03,5,590,0,8,1,forest_1,2,memory-2step-stake-s,540,1452050,0.0-19.0-0.0-0.43,A30RTQC0LLY19K,3B623HUYK76FV1575X2NKKQMM9B8SL,3A0EX8ZRNC4YF4DHXHJOIS0B5CQYBJ,4,3
44,1,object_08,object_01,319.60000002384,1,1,502.90000003576,1.0,1,object_03,5,635,0,9,3,desert_6,2,memory-2step-stake-s,541,1460736,0.0-19.0-0.0-0.44,A30RTQC0LLY19K,3B623HUYK76FV1575X2NKKQMM9B8SL,3A0EX8ZRNC4YF4DHXHJOIS0B5CQYBJ,1,2
45,4,object_07,object_02,333.69999998808,7,1,505.69999998808,0.6666666666666666,1,object_03,5,665,0,6,1,restaurant_3,2,memory-2step-stake-s,542,1469111,0.0-19.0-0.0-0.45,A30RTQC0LLY19K,3B623HUYK76FV1575X2NKKQMM9B8SL,3A0EX8ZRNC4YF4DHXHJOIS0B5CQYBJ,7,8
46,1,object_01,object_08,315.0,2,1,433.90000003576,0.1111111111111111,2,object_10,5,670,0,7,1,desert_3,2,memory-2step-stake-s,543,1476894,0.0-19.0-0.0-0.46,A30RTQC0LLY19K,3B623HUYK76FV1575X2NKKQMM9B8SL,3A0EX8ZRNC4YF4DHXHJOIS0B5CQYBJ,2,1
47,1,object_01,object_08,299.0,1,2,506.09999996424,0.8888888888888888,1,object_03,5,710,0,8,0,desert_6,2,memory-2step-stake-s,544,1485485,0.0-19.0-0.0-0.47,A30RTQC0LLY19K,3B623HUYK76FV1575X2NKKQMM9B8SL,3A0EX8ZRNC4YF4DHXHJOIS0B5CQYBJ,2,1
48,2,object_09,object_06,296.5,4,1,412.80000001192,0.2222222222222222,2,object_10,5,720,0,9,2,forest_6,2,memory-2step-stake-s,545,1493348,0.0-19.0-0.0-0.48,A30RTQC0LLY19K,3B623HUYK76FV1575X2NKKQMM9B8SL,3A0EX8ZRNC4YF4DHXHJOIS0B5CQYBJ,4,3
49,1,object_01,object_08,666.19999998808,1,2,-1.0,0.0,1,object_03,5,720,0,6,5,desert_1,2,memory-2step-stake-s,546,1501890,0.0-19.0-0.0-0.49,A30RTQC0LLY19K,3B623HUYK76FV1575X2NKKQMM9B8SL,3A0EX8ZRNC4YF4DHXHJOIS0B5CQYBJ,2,1
50,4,object_02,object_07,402.69999998808,7,2,635.30000001192,0.7777777777777778,1,object_03,1,727,0,7,5,restaurant_8,2,memory-2step-stake-s,547,1510515,0.0-19.0-0.0-0.50,A30RTQC0LLY19K,3B623HUYK76FV1575X2NKKQMM9B8SL,3A0EX8ZRNC4YF4DHXHJOIS0B5CQYBJ,8,7
51,1,object_01,object_08,327.89999997616,2,1,1235.6999999881,0.6666666666666666,2,object_10,5,757,0,5,6,desert_3,2,memory-2step-stake-s,548,1519623,0.0-19.0-0.0-0.51,A30RTQC0LLY19K,3B623HUYK76FV1575X2NKKQMM9B8SL,3A0EX8ZRNC4YF4DHXHJOIS0B5CQYBJ,2,1
52,3,object_05,object_04,322.60000002384,6,2,336.40000003576,0.5555555555555556,2,object_10,1,762,0,0,5,library_1,2,memory-2step-stake-s,549,1527721,0.0-19.0-0.0-0.52,A30RTQC0LLY19K,3B623HUYK76FV1575X2NKKQMM9B8SL,3A0EX8ZRNC4YF4DHXHJOIS0B5CQYBJ,5,6
53,3,object_05,object_04,289.90000003576,5,1,335.30000001192,0.1111111111111111,1,object_03,1,763,0,1,7,library_4,2,memory-2step-stake-s,550,1535400,0.0-19.0-0.0-0.53,A30RTQC0LLY19K,3B623HUYK76FV1575X2NKKQMM9B8SL,3A0EX8ZRNC4YF4DHXHJOIS0B5CQYBJ,5,6
54,4,object_07,object_02,309.0,8,2,490.29999995232,0.6666666666666666,2,object_10,1,769,0,4,6,restaurant_5,2,memory-2step-stake-s,551,1543753,0.0-19.0-0.0-0.54,A30RTQC0LLY19K,3B623HUYK76FV1575X2NKKQMM9B8SL,3A0EX8ZRNC4YF4DHXHJOIS0B5CQYBJ,7,8
55,3,object_04,object_05,279.80000001192,6,1,360.5,0.4444444444444444,2,object_10,1,773,0,3,4,library_1,2,memory-2step-stake-s,552,1551777,0.0-19.0-0.0-0.55,A30RTQC0LLY19K,3B623HUYK76FV1575X2NKKQMM9B8SL,3A0EX8ZRNC4YF4DHXHJOIS0B5CQYBJ,6,5
56,4,object_07,object_02,419.20000004768,8,2,427.80000001192,0.2222222222222222,2,object_10,1,775,0,2,2,restaurant_8,2,memory-2step-stake-s,553,1559661,0.0-19.0-0.0-0.56,A30RTQC0LLY19K,3B623HUYK76FV1575X2NKKQMM9B8SL,3A0EX8ZRNC4YF4DHXHJOIS0B5CQYBJ,7,8
57,3,object_04,object_05,346.60000002384,6,1,409.90000003576,0.4444444444444444,2,object_10,1,779,0,2,4,library_2,2,memory-2step-stake-s,554,1567731,0.0-19.0-0.0-0.57,A30RTQC0LLY19K,3B623HUYK76FV1575X2NKKQMM9B8SL,3A0EX8ZRNC4YF4DHXHJOIS0B5CQYBJ,6,5
58,1,object_01,object_08,279.0,1,2,477.80000001192,0.3333333333333333,1,object_03,5,794,0,3,3,desert_6,2,memory-2step-stake-s,555,1575760,0.0-19.0-0.0-0.58,A30RTQC0LLY19K,3B623HUYK76FV1575X2NKKQMM9B8SL,3A0EX8ZRNC4YF4DHXHJOIS0B5CQYBJ,2,1
59,2,object_06,object_09,337.80000001192,3,1,328.80000001192,0.2222222222222222,1,object_03,1,796,0,2,2,forest_4,2,memory-2step-stake-s,556,1583544,0.0-19.0-0.0-0.59,A30RTQC0LLY19K,3B623HUYK76FV1575X2NKKQMM9B8SL,3A0EX8ZRNC4YF4DHXHJOIS0B5CQYBJ,3,4
60,2,object_09,object_06,344.69999998808,4,1,352.30000001192,0.2222222222222222,2,object_10,5,806,0,2,2,forest_6,2,memory-2step-stake-s,557,1591349,0.0-19.0-0.0-0.60,A30RTQC0LLY19K,3B623HUYK76FV1575X2NKKQMM9B8SL,3A0EX8ZRNC4YF4DHXHJOIS0B5CQYBJ,4,3
61,3,object_05,object_04,341.39999997616,6,2,376.70000004768,0.0,2,object_10,5,806,0,3,0,library_5,2,memory-2step-stake-s,558,1598967,0.0-19.0-0.0-0.61,A30RTQC0LLY19K,3B623HUYK76FV1575X2NKKQMM9B8SL,3A0EX8ZRNC4YF4DHXHJOIS0B5CQYBJ,5,6
62,1,object_01,object_08,303.60000002384,1,2,461.60000002384,0.5555555555555556,1,object_03,5,831,0,5,0,desert_3,2,memory-2step-stake-s,559,1607186,0.0-19.0-0.0-0.62,A30RTQC0LLY19K,3B623HUYK76FV1575X2NKKQMM9B8SL,3A0EX8ZRNC4YF4DHXHJOIS0B5CQYBJ,2,1
63,4,object_02,object_07,1222.0,8,1,546.59999996424,0.4444444444444444,2,object_10,5,851,0,5,4,restaurant_3,2,memory-2step-stake-s,560,1615375,0.0-19.0-0.0-0.63,A30RTQC0LLY19K,3B623HUYK76FV1575X2NKKQMM9B8SL,3A0EX8ZRNC4YF4DHXHJOIS0B5CQYBJ,8,7
64,3,object_05,object_04,334.69999998808,6,2,505.89999997616,0.4444444444444444,2,object_10,1,855,0,9,4,library_1,2,memory-2step-stake-s,561,1623530,0.0-19.0-0.0-0.64,A30RTQC0LLY19K,3B623HUYK76FV1575X2NKKQMM9B8SL,3A0EX8ZRNC4YF4DHXHJOIS0B5CQYBJ,5,6
65,3,object_05,object_04,296.5,5,1,392.39999997616,0.7777777777777778,1,object_03,1,862,0,7,3,library_4,2,memory-2step-stake-s,562,1631862,0.0-19.0-0.0-0.65,A30RTQC0LLY19K,3B623HUYK76FV1575X2NKKQMM9B8SL,3A0EX8ZRNC4YF4DHXHJOIS0B5CQYBJ,5,6
66,2,object_06,object_09,465.39999997616,4,2,416.40000003576,0.4444444444444444,2,object_10,5,882,0,7,4,forest_8,2,memory-2step-stake-s,563,1639921,0.0-19.0-0.0-0.66,A30RTQC0LLY19K,3B623HUYK76FV1575X2NKKQMM9B8SL,3A0EX8ZRNC4YF4DHXHJOIS0B5CQYBJ,3,4
67,1,object_01,object_08,438.0,2,1,371.60000002384,0.4444444444444444,2,object_10,1,886,0,8,4,desert_1,2,memory-2step-stake-s,564,1647931,0.0-19.0-0.0-0.67,A30RTQC0LLY19K,3B623HUYK76FV1575X2NKKQMM9B8SL,3A0EX8ZRNC4YF4DHXHJOIS0B5CQYBJ,2,1
68,3,object_05,object_04,345.5,5,1,397.69999998808,0.8888888888888888,1,object_03,1,894,0,8,3,library_5,2,memory-2step-stake-s,565,1656385,0.0-19.0-0.0-0.68,A30RTQC0LLY19K,3B623HUYK76FV1575X2NKKQMM9B8SL,3A0EX8ZRNC4YF4DHXHJOIS0B5CQYBJ,5,6
69,1,object_01,object_08,340.89999997616,1,2,362.10000002384,0.6666666666666666,1,object_03,5,924,0,6,5,desert_3,2,memory-2step-stake-s,566,1664592,0.0-19.0-0.0-0.69,A30RTQC0LLY19K,3B623HUYK76FV1575X2NKKQMM9B8SL,3A0EX8ZRNC4YF4DHXHJOIS0B5CQYBJ,2,1
70,4,object_02,object_07,391.0,7,2,419.80000001192,0.7777777777777778,1,object_03,1,931,0,7,5,restaurant_5,2,memory-2step-stake-s,567,1672965,0.0-19.0-0.0-0.70,A30RTQC0LLY19K,3B623HUYK76FV1575X2NKKQMM9B8SL,3A0EX8ZRNC4YF4DHXHJOIS0B5CQYBJ,8,7
71,4,object_02,object_07,202.89999997616,7,2,381.5,0.3333333333333333,1,object_03,1,934,0,3,3,restaurant_7,2,memory-2step-stake-s,568,1680891,0.0-19.0-0.0-0.71,A30RTQC0LLY19K,3B623HUYK76FV1575X2NKKQMM9B8SL,3A0EX8ZRNC4YF4DHXHJOIS0B5CQYBJ,8,7
72,3,object_04,object_05,336.60000002384,6,1,585.59999996424,0.5555555555555556,2,object_10,5,959,0,2,5,library_5,2,memory-2step-stake-s,569,1689221,0.0-19.0-0.0-0.72,A30RTQC0LLY19K,3B623HUYK76FV1575X2NKKQMM9B8SL,3A0EX8ZRNC4YF4DHXHJOIS0B5CQYBJ,6,5
73,1,object_08,object_01,593.30000001192,2,2,945.0,0.5555555555555556,2,object_10,1,964,0,1,5,desert_7,2,memory-2step-stake-s,570,1697917,0.0-19.0-0.0-0.73,A30RTQC0LLY19K,3B623HUYK76FV1575X2NKKQMM9B8SL,3A0EX8ZRNC4YF4DHXHJOIS0B5CQYBJ,1,2
74,2,object_06,object_09,540.5,3,1,706.89999997616,0.1111111111111111,1,object_03,5,969,0,1,4,forest_6,2,memory-2step-stake-s,571,1705962,0.0-19.0-0.0-0.74,A30RTQC0LLY19K,3B623HUYK76FV1575X2NKKQMM9B8SL,3A0EX8ZRNC4YF4DHXHJOIS0B5CQYBJ,3,4
75,3,object_05,object_04,393.20000004768,6,2,563.79999995232,0.3333333333333333,2,object_10,1,972,0,2,3,library_4,2,memory-2step-stake-s,572,1714065,0.0-19.0-0.0-0.75,A30RTQC0LLY19K,3B623HUYK76FV1575X2NKKQMM9B8SL,3A0EX8ZRNC4YF4DHXHJOIS0B5CQYBJ,5,6
76,3,object_05,object_04,545.10000002384,5,1,448.40000003576,0.3333333333333333,1,object_03,1,975,0,3,1,library_1,2,memory-2step-stake-s,573,1722058,0.0-19.0-0.0-0.76,A30RTQC0LLY19K,3B623HUYK76FV1575X2NKKQMM9B8SL,3A0EX8ZRNC4YF4DHXHJOIS0B5CQYBJ,5,6
77,4,object_02,object_07,555.80000001192,8,1,771.89999997616,0.4444444444444444,2,object_10,1,979,0,7,4,restaurant_8,2,memory-2step-stake-s,574,1730479,0.0-19.0-0.0-0.77,A30RTQC0LLY19K,3B623HUYK76FV1575X2NKKQMM9B8SL,3A0EX8ZRNC4YF4DHXHJOIS0B5CQYBJ,8,7
78,3,object_04,object_05,571.69999998808,5,2,395.69999998808,0.6666666666666666,1,object_03,1,985,0,6,4,library_5,2,memory-2step-stake-s,575,1738720,0.0-19.0-0.0-0.78,A30RTQC0LLY19K,3B623HUYK76FV1575X2NKKQMM9B8SL,3A0EX8ZRNC4YF4DHXHJOIS0B5CQYBJ,6,5
79,4,object_07,object_02,390.19999998808,7,1,460.10000002384,0.5555555555555556,1,object_03,1,990,0,5,4,restaurant_3,2,memory-2step-stake-s,576,1746928,0.0-19.0-0.0-0.79,A30RTQC0LLY19K,3B623HUYK76FV1575X2NKKQMM9B8SL,3A0EX8ZRNC4YF4DHXHJOIS0B5CQYBJ,7,8
80,1,object_01,object_08,307.0,1,2,471.0,0.2222222222222222,1,object_03,5,1000,0,2,4,desert_6,2,memory-2step-stake-s,577,1754837,0.0-19.0-0.0-0.80,A30RTQC0LLY19K,3B623HUYK76FV1575X2NKKQMM9B8SL,3A0EX8ZRNC4YF4DHXHJOIS0B5CQYBJ,2,1
81,4,object_07,object_02,384.5,7,1,343.10000002384,0.2222222222222222,1,object_03,1,1002,0,2,3,restaurant_7,2,memory-2step-stake-s,578,1762622,0.0-19.0-0.0-0.81,A30RTQC0LLY19K,3B623HUYK76FV1575X2NKKQMM9B8SL,3A0EX8ZRNC4YF4DHXHJOIS0B5CQYBJ,7,8
82,4,object_07,object_02,299.90000003576,8,2,333.30000001192,0.3333333333333333,2,object_10,5,1017,0,1,3,restaurant_3,2,memory-2step-stake-s,579,1770506,0.0-19.0-0.0-0.82,A30RTQC0LLY19K,3B623HUYK76FV1575X2NKKQMM9B8SL,3A0EX8ZRNC4YF4DHXHJOIS0B5CQYBJ,7,8
83,2,object_06,object_09,412.5,3,1,600.5,0.1111111111111111,1,object_03,5,1022,0,1,6,forest_1,2,memory-2step-stake-s,580,1778447,0.0-19.0-0.0-0.83,A30RTQC0LLY19K,3B623HUYK76FV1575X2NKKQMM9B8SL,3A0EX8ZRNC4YF4DHXHJOIS0B5CQYBJ,3,4
84,1,object_01,object_08,333.90000003576,1,2,318.09999996424,0.1111111111111111,1,object_03,1,1023,0,1,9,desert_6,2,memory-2step-stake-s,581,1786104,0.0-19.0-0.0-0.84,A30RTQC0LLY19K,3B623HUYK76FV1575X2NKKQMM9B8SL,3A0EX8ZRNC4YF4DHXHJOIS0B5CQYBJ,2,1
85,4,object_02,object_07,363.69999998808,8,1,301.80000001192,0.7777777777777778,2,object_10,5,1058,0,2,7,restaurant_7,2,memory-2step-stake-s,582,1794360,0.0-19.0-0.0-0.85,A30RTQC0LLY19K,3B623HUYK76FV1575X2NKKQMM9B8SL,3A0EX8ZRNC4YF4DHXHJOIS0B5CQYBJ,8,7
86,4,object_07,object_02,319.0,8,2,300.39999997616,0.7777777777777778,2,object_10,1,1065,0,6,7,restaurant_7,2,memory-2step-stake-s,583,1802621,0.0-19.0-0.0-0.86,A30RTQC0LLY19K,3B623HUYK76FV1575X2NKKQMM9B8SL,3A0EX8ZRNC4YF4DHXHJOIS0B5CQYBJ,7,8
87,3,object_05,object_04,358.79999995232,5,1,554.19999998808,0.8888888888888888,1,object_03,5,1105,0,8,9,library_1,2,memory-2step-stake-s,584,1811229,0.0-19.0-0.0-0.87,A30RTQC0LLY19K,3B623HUYK76FV1575X2NKKQMM9B8SL,3A0EX8ZRNC4YF4DHXHJOIS0B5CQYBJ,5,6
88,2,object_09,object_06,479.5,4,1,362.0,0.7777777777777778,2,object_10,5,1140,0,7,7,forest_8,2,memory-2step-stake-s,585,1819543,0.0-19.0-0.0-0.88,A30RTQC0LLY19K,3B623HUYK76FV1575X2NKKQMM9B8SL,3A0EX8ZRNC4YF4DHXHJOIS0B5CQYBJ,4,3
89,3,object_04,object_05,253.90000003576,5,2,596.39999997616,0.8888888888888888,1,object_03,1,1148,0,8,6,library_5,2,memory-2step-stake-s,586,1828210,0.0-19.0-0.0-0.89,A30RTQC0LLY19K,3B623HUYK76FV1575X2NKKQMM9B8SL,3A0EX8ZRNC4YF4DHXHJOIS0B5CQYBJ,6,5
90,2,object_09,object_06,351.60000002384,4,1,363.79999995232,0.4444444444444444,2,object_10,5,1168,0,6,4,forest_1,2,memory-2step-stake-s,587,1836226,0.0-19.0-0.0-0.90,A30RTQC0LLY19K,3B623HUYK76FV1575X2NKKQMM9B8SL,3A0EX8ZRNC4YF4DHXHJOIS0B5CQYBJ,4,3
91,2,object_09,object_06,419.0,3,2,438.80000001192,0.4444444444444444,1,object_03,5,1188,0,4,5,forest_8,2,memory-2step-stake-s,588,1844305,0.0-19.0-0.0-0.91,A30RTQC0LLY19K,3B623HUYK76FV1575X2NKKQMM9B8SL,3A0EX8ZRNC4YF4DHXHJOIS0B5CQYBJ,4,3
92,1,object_08,object_01,294.29999995232,1,1,285.10000002384,0.3333333333333333,1,object_03,5,1203,0,3,9,desert_3,2,memory-2step-stake-s,589,1852140,0.0-19.0-0.0-0.92,A30RTQC0LLY19K,3B623HUYK76FV1575X2NKKQMM9B8SL,3A0EX8ZRNC4YF4DHXHJOIS0B5CQYBJ,1,2
93,4,object_07,object_02,543.10000002384,8,2,469.69999998808,1.0,2,object_10,1,1212,0,5,9,restaurant_5,2,memory-2step-stake-s,590,1860769,0.0-19.0-0.0-0.93,A30RTQC0LLY19K,3B623HUYK76FV1575X2NKKQMM9B8SL,3A0EX8ZRNC4YF4DHXHJOIS0B5CQYBJ,7,8
94,3,object_04,object_05,730.0,5,2,279.39999997616,0.8888888888888888,1,object_03,5,1252,0,8,9,library_5,2,memory-2step-stake-s,591,1869110,0.0-19.0-0.0-0.94,A30RTQC0LLY19K,3B623HUYK76FV1575X2NKKQMM9B8SL,3A0EX8ZRNC4YF4DHXHJOIS0B5CQYBJ,6,5
95,3,object_05,object_04,401.19999998808,5,1,460.80000001192,0.8888888888888888,1,object_03,1,1260,0,8,7,library_1,2,memory-2step-stake-s,592,1877632,0.0-19.0-0.0-0.95,A30RTQC0LLY19K,3B623HUYK76FV1575X2NKKQMM9B8SL,3A0EX8ZRNC4YF4DHXHJOIS0B5CQYBJ,5,6
96,3,object_04,object_05,584.5,5,2,393.80000001192,0.6666666666666666,1,object_03,5,1290,0,6,8,library_1,2,memory-2step-stake-s,593,1885883,0.0-19.0-0.0-0.96,A30RTQC0LLY19K,3B623HUYK76FV1575X2NKKQMM9B8SL,3A0EX8ZRNC4YF4DHXHJOIS0B5CQYBJ,6,5
97,2,object_09,object_06,830.80000001192,3,2,336.59999996424,0.4444444444444444,1,object_03,5,1310,0,4,8,forest_6,2,memory-2step-stake-s,594,1893861,0.0-19.0-0.0-0.97,A30RTQC0LLY19K,3B623HUYK76FV1575X2NKKQMM9B8SL,3A0EX8ZRNC4YF4DHXHJOIS0B5CQYBJ,4,3
98,1,object_01,object_08,652.39999997616,2,1,342.80000001192,0.8888888888888888,2,object_10,5,1350,0,3,8,desert_1,2,memory-2step-stake-s,595,1902272,0.0-19.0-0.0-0.98,A30RTQC0LLY19K,3B623HUYK76FV1575X2NKKQMM9B8SL,3A0EX8ZRNC4YF4DHXHJOIS0B5CQYBJ,2,1
99,2,object_06,object_09,621.69999998808,3,1,313.30000001192,0.0,1,object_03,5,1350,0,0,9,forest_8,2,memory-2step-stake-s,596,1909824,0.0-19.0-0.0-0.99,A30RTQC0LLY19K,3B623HUYK76FV1575X2NKKQMM9B8SL,3A0EX8ZRNC4YF4DHXHJOIS0B5CQYBJ,3,4
100,1,object_01,object_08,473.5,1,2,1114.5999999642,0.6666666666666666,1,object_03,5,1380,0,6,9,desert_1,2,memory-2step-stake-s,597,1918800,0.0-19.0-0.0-0.100,A30RTQC0LLY19K,3B623HUYK76FV1575X2NKKQMM9B8SL,3A0EX8ZRNC4YF4DHXHJOIS0B5CQYBJ,2,1
101,3,object_05,object_04,540.60000002384,6,2,672.79999995232,0.7777777777777778,2,object_10,1,1387,0,6,7,library_1,2,memory-2step-stake-s,598,1927434,0.0-19.0-0.0-0.101,A30RTQC0LLY19K,3B623HUYK76FV1575X2NKKQMM9B8SL,3A0EX8ZRNC4YF4DHXHJOIS0B5CQYBJ,5,6
102,4,object_02,object_07,476.89999997616,7,2,771.40000003576,0.8888888888888888,1,object_03,1,1395,0,8,7,restaurant_5,2,memory-2step-stake-s,599,1936271,0.0-19.0-0.0-0.102,A30RTQC0LLY19K,3B623HUYK76FV1575X2NKKQMM9B8SL,3A0EX8ZRNC4YF4DHXHJOIS0B5CQYBJ,8,7
103,4,object_02,object_07,348.09999996424,8,1,458.39999997616,0.3333333333333333,2,object_10,1,1398,0,5,3,restaurant_5,2,memory-2step-stake-s,600,1944282,0.0-19.0-0.0-0.103,A30RTQC0LLY19K,3B623HUYK76FV1575X2NKKQMM9B8SL,3A0EX8ZRNC4YF4DHXHJOIS0B5CQYBJ,8,7
104,4,object_02,object_07,348.80000001192,7,2,319.19999998808,0.5555555555555556,1,object_03,5,1423,0,5,5,restaurant_7,2,memory-2step-stake-s,601,1952351,0.0-19.0-0.0-0.104,A30RTQC0LLY19K,3B623HUYK76FV1575X2NKKQMM9B8SL,3A0EX8ZRNC4YF4DHXHJOIS0B5CQYBJ,8,7
105,2,object_09,object_06,644.59999996424,3,2,310.30000001192,0.5555555555555556,1,object_03,5,1448,0,5,3,forest_6,2,memory-2step-stake-s,602,1960409,0.0-19.0-0.0-0.105,A30RTQC0LLY19K,3B623HUYK76FV1575X2NKKQMM9B8SL,3A0EX8ZRNC4YF4DHXHJOIS0B5CQYBJ,4,3
106,1,object_08,object_01,772.19999998808,2,2,362.80000001192,0.6666666666666666,2,object_10,5,1478,0,4,6,desert_6,2,memory-2step-stake-s,603,1968628,0.0-19.0-0.0-0.106,A30RTQC0LLY19K,3B623HUYK76FV1575X2NKKQMM9B8SL,3A0EX8ZRNC4YF4DHXHJOIS0B5CQYBJ,1,2
107,2,object_09,object_06,676.0,3,2,271.30000001192,0.0,1,object_03,5,1478,0,0,8,forest_8,2,memory-2step-stake-s,604,1976138,0.0-19.0-0.0-0.107,A30RTQC0LLY19K,3B623HUYK76FV1575X2NKKQMM9B8SL,3A0EX8ZRNC4YF4DHXHJOIS0B5CQYBJ,4,3
108,4,object_07,object_02,366.5,7,1,-1.0,0.0,1,object_03,1,1478,0,3,5,restaurant_3,2,memory-2step-stake-s,605,1984675,0.0-19.0-0.0-0.108,A30RTQC0LLY19K,3B623HUYK76FV1575X2NKKQMM9B8SL,3A0EX8ZRNC4YF4DHXHJOIS0B5CQYBJ,7,8
109,4,object_02,object_07,414.5,7,2,385.5,0.3333333333333333,1,object_03,5,1493,0,3,4,restaurant_3,2,memory-2step-stake-s,606,1992616,0.0-19.0-0.0-0.109,A30RTQC0LLY19K,3B623HUYK76FV1575X2NKKQMM9B8SL,3A0EX8ZRNC4YF4DHXHJOIS0B5CQYBJ,8,7
110,1,object_08,object_01,354.30000001192,1,1,409.10000002384,0.2222222222222222,1,object_03,5,1503,0,2,6,desert_3,2,memory-2step-stake-s,607,2000472,0.0-19.0-0.0-0.110,A30RTQC0LLY19K,3B623HUYK76FV1575X2NKKQMM9B8SL,3A0EX8ZRNC4YF4DHXHJOIS0B5CQYBJ,1,2
111,4,object_07,object_02,399.60000002384,8,2,450.69999998808,0.8888888888888888,2,object_10,1,1511,0,1,8,restaurant_3,2,memory-2step-stake-s,608,2009000,0.0-19.0-0.0-0.111,A30RTQC0LLY19K,3B623HUYK76FV1575X2NKKQMM9B8SL,3A0EX8ZRNC4YF4DHXHJOIS0B5CQYBJ,7,8
112,1,object_01,object_08,397.60000002384,2,1,376.30000001192,0.7777777777777778,2,object_10,5,1546,0,1,7,desert_7,2,memory-2step-stake-s,609,2017341,0.0-19.0-0.0-0.112,A30RTQC0LLY19K,3B623HUYK76FV1575X2NKKQMM9B8SL,3A0EX8ZRNC4YF4DHXHJOIS0B5CQYBJ,2,1
113,3,object_05,object_04,408.5,6,2,321.90000003576,1.0,2,object_10,5,1591,0,3,9,library_4,2,memory-2step-stake-s,610,2025848,0.0-19.0-0.0-0.113,A30RTQC0LLY19K,3B623HUYK76FV1575X2NKKQMM9B8SL,3A0EX8ZRNC4YF4DHXHJOIS0B5CQYBJ,5,6
114,3,object_04,object_05,355.0,6,1,275.5,1.0,2,object_10,1,1600,0,1,9,library_2,2,memory-2step-stake-s,611,2034306,0.0-19.0-0.0-0.114,A30RTQC0LLY19K,3B623HUYK76FV1575X2NKKQMM9B8SL,3A0EX8ZRNC4YF4DHXHJOIS0B5CQYBJ,6,5
115,3,object_04,object_05,902.0,5,2,311.40000003576,0.0,1,object_03,1,1600,0,0,9,library_5,2,memory-2step-stake-s,612,2041858,0.0-19.0-0.0-0.115,A30RTQC0LLY19K,3B623HUYK76FV1575X2NKKQMM9B8SL,3A0EX8ZRNC4YF4DHXHJOIS0B5CQYBJ,6,5
116,2,object_09,object_06,412.59999996424,4,1,502.80000001192,1.0,2,object_10,5,1645,0,2,9,forest_4,2,memory-2step-stake-s,613,2050547,0.0-19.0-0.0-0.116,A30RTQC0LLY19K,3B623HUYK76FV1575X2NKKQMM9B8SL,3A0EX8ZRNC4YF4DHXHJOIS0B5CQYBJ,4,3
117,3,object_05,object_04,557.39999997616,6,2,306.39999997616,0.8888888888888888,2,object_10,1,1653,0,3,8,library_5,2,memory-2step-stake-s,614,2058935,0.0-19.0-0.0-0.117,A30RTQC0LLY19K,3B623HUYK76FV1575X2NKKQMM9B8SL,3A0EX8ZRNC4YF4DHXHJOIS0B5CQYBJ,5,6
118,2,object_09,object_06,456.69999998808,4,1,-1.0,0.0,2,object_10,5,1653,0,2,3,forest_6,2,memory-2step-stake-s,615,2067473,0.0-19.0-0.0-0.118,A30RTQC0LLY19K,3B623HUYK76FV1575X2NKKQMM9B8SL,3A0EX8ZRNC4YF4DHXHJOIS0B5CQYBJ,4,3
119,2,object_09,object_06,293.5,3,2,305.5,0.4444444444444444,1,object_03,5,1673,0,4,5,forest_8,2,memory-2step-stake-s,616,2075437,0.0-19.0-0.0-0.119,A30RTQC0LLY19K,3B623HUYK76FV1575X2NKKQMM9B8SL,3A0EX8ZRNC4YF4DHXHJOIS0B5CQYBJ,4,3
120,3,object_05,object_04,384.80000001192,5,1,305.0,0.2222222222222222,1,object_03,5,1683,0,2,8,library_1,2,memory-2step-stake-s,617,2083190,0.0-19.0-0.0-0.120,A30RTQC0LLY19K,3B623HUYK76FV1575X2NKKQMM9B8SL,3A0EX8ZRNC4YF4DHXHJOIS0B5CQYBJ,5,6
121,2,object_09,object_06,469.10000002384,3,2,406.0,0.0,1,object_03,5,1683,0,0,8,forest_1,2,memory-2step-stake-s,618,2090840,0.0-19.0-0.0-0.121,A30RTQC0LLY19K,3B623HUYK76FV1575X2NKKQMM9B8SL,3A0EX8ZRNC4YF4DHXHJOIS0B5CQYBJ,4,3
122,2,object_06,object_09,323.80000001192,3,1,418.79999995232,0.2222222222222222,1,object_03,5,1693,0,2,9,forest_1,2,memory-2step-stake-s,619,2098715,0.0-19.0-0.0-0.122,A30RTQC0LLY19K,3B623HUYK76FV1575X2NKKQMM9B8SL,3A0EX8ZRNC4YF4DHXHJOIS0B5CQYBJ,3,4
123,3,object_05,object_04,282.30000001192,6,2,312.80000001192,0.7777777777777778,2,object_10,1,1700,0,0,7,library_2,2,memory-2step-stake-s,620,2107003,0.0-19.0-0.0-0.123,A30RTQC0LLY19K,3B623HUYK76FV1575X2NKKQMM9B8SL,3A0EX8ZRNC4YF4DHXHJOIS0B5CQYBJ,5,6
124,3,object_04,object_05,699.0,5,2,293.79999995232,0.3333333333333333,1,object_03,5,1715,0,3,9,library_1,2,memory-2step-stake-s,621,2114849,0.0-19.0-0.0-0.124,A30RTQC0LLY19K,3B623HUYK76FV1575X2NKKQMM9B8SL,3A0EX8ZRNC4YF4DHXHJOIS0B5CQYBJ,6,5
125,4,object_02,object_07,379.10000002384,8,1,514.80000001192,0.5555555555555556,2,object_10,1,1720,0,1,5,restaurant_8,2,memory-2step-stake-s,622,2123133,0.0-19.0-0.0-0.125,A30RTQC0LLY19K,3B623HUYK76FV1575X2NKKQMM9B8SL,3A0EX8ZRNC4YF4DHXHJOIS0B5CQYBJ,8,7
126,1,object_08,object_01,380.20000004768,2,2,316.19999998808,0.4444444444444444,2,object_10,1,1724,0,2,4,desert_3,2,memory-2step-stake-s,623,2131093,0.0-19.0-0.0-0.126,A30RTQC0LLY19K,3B623HUYK76FV1575X2NKKQMM9B8SL,3A0EX8ZRNC4YF4DHXHJOIS0B5CQYBJ,1,2
127,3,object_04,object_05,354.59999996424,6,1,728.70000004768,0.6666666666666666,2,object_10,1,1730,0,3,6,library_4,2,memory-2step-stake-s,624,2139661,0.0-19.0-0.0-0.127,A30RTQC0LLY19K,3B623HUYK76FV1575X2NKKQMM9B8SL,3A0EX8ZRNC4YF4DHXHJOIS0B5CQYBJ,6,5
128,3,object_05,object_04,704.69999998808,6,2,316.0,0.7777777777777778,2,object_10,1,1737,0,1,7,library_2,2,memory-2step-stake-s,626,2261356,0.0-19.0-0.1-0.128,A30RTQC0LLY19K,3B623HUYK76FV1575X2NKKQMM9B8SL,3A0EX8ZRNC4YF4DHXHJOIS0B5CQYBJ,5,6
129,1,object_01,object_08,325.90000003576,2,1,520.40000003576,1.0,2,object_10,5,1782,0,2,9,desert_3,2,memory-2step-stake-s,627,2270042,0.0-19.0-0.1-0.129,A30RTQC0LLY19K,3B623HUYK76FV1575X2NKKQMM9B8SL,3A0EX8ZRNC4YF4DHXHJOIS0B5CQYBJ,2,1
130,3,object_04,object_05,303.40000003576,5,2,301.30000001192,0.1111111111111111,1,object_03,5,1787,0,1,9,library_5,2,memory-2step-stake-s,628,2277675,0.0-19.0-0.1-0.130,A30RTQC0LLY19K,3B623HUYK76FV1575X2NKKQMM9B8SL,3A0EX8ZRNC4YF4DHXHJOIS0B5CQYBJ,6,5
131,2,object_09,object_06,351.60000002384,4,1,352.80000001192,0.8888888888888888,2,object_10,1,1795,0,1,8,forest_4,2,memory-2step-stake-s,629,2286090,0.0-19.0-0.1-0.131,A30RTQC0LLY19K,3B623HUYK76FV1575X2NKKQMM9B8SL,3A0EX8ZRNC4YF4DHXHJOIS0B5CQYBJ,4,3
132,2,object_09,object_06,497.70000004768,4,1,323.19999998808,0.8888888888888888,2,object_10,5,1835,0,3,8,forest_8,2,memory-2step-stake-s,630,2294470,0.0-19.0-0.1-0.132,A30RTQC0LLY19K,3B623HUYK76FV1575X2NKKQMM9B8SL,3A0EX8ZRNC4YF4DHXHJOIS0B5CQYBJ,4,3
133,1,object_08,object_01,529.60000002384,2,2,375.60000002384,0.6666666666666666,2,object_10,5,1865,0,3,6,desert_7,2,memory-2step-stake-s,631,2302694,0.0-19.0-0.1-0.133,A30RTQC0LLY19K,3B623HUYK76FV1575X2NKKQMM9B8SL,3A0EX8ZRNC4YF4DHXHJOIS0B5CQYBJ,1,2
134,1,object_08,object_01,550.59999996424,1,1,365.5,0.5555555555555556,1,object_03,5,1890,0,5,7,desert_3,2,memory-2step-stake-s,632,2310826,0.0-19.0-0.1-0.134,A30RTQC0LLY19K,3B623HUYK76FV1575X2NKKQMM9B8SL,3A0EX8ZRNC4YF4DHXHJOIS0B5CQYBJ,1,2
135,3,object_04,object_05,388.80000001192,5,2,528.5,0.7777777777777778,1,object_03,1,1897,0,7,9,library_4,2,memory-2step-stake-s,633,2319302,0.0-19.0-0.1-0.135,A30RTQC0LLY19K,3B623HUYK76FV1575X2NKKQMM9B8SL,3A0EX8ZRNC4YF4DHXHJOIS0B5CQYBJ,6,5
136,3,object_05,object_04,373.80000001192,5,1,402.39999997616,0.8888888888888888,1,object_03,5,1937,0,8,8,library_2,2,memory-2step-stake-s,634,2327776,0.0-19.0-0.1-0.136,A30RTQC0LLY19K,3B623HUYK76FV1575X2NKKQMM9B8SL,3A0EX8ZRNC4YF4DHXHJOIS0B5CQYBJ,5,6
137,2,object_06,object_09,430.69999998808,3,1,417.19999998808,0.5555555555555556,1,object_03,5,1962,0,5,8,forest_8,2,memory-2step-stake-s,635,2335936,0.0-19.0-0.1-0.137,A30RTQC0LLY19K,3B623HUYK76FV1575X2NKKQMM9B8SL,3A0EX8ZRNC4YF4DHXHJOIS0B5CQYBJ,3,4
138,4,object_07,object_02,319.80000001192,7,1,341.80000001192,0.5555555555555556,1,object_03,1,1967,0,5,9,restaurant_7,2,memory-2step-stake-s,636,2344028,0.0-19.0-0.1-0.138,A30RTQC0LLY19K,3B623HUYK76FV1575X2NKKQMM9B8SL,3A0EX8ZRNC4YF4DHXHJOIS0B5CQYBJ,7,8
139,2,object_06,object_09,668.89999997616,4,2,338.40000003576,0.7777777777777778,2,object_10,5,2002,0,8,7,forest_1,2,memory-2step-stake-s,637,2352322,0.0-19.0-0.1-0.139,A30RTQC0LLY19K,3B623HUYK76FV1575X2NKKQMM9B8SL,3A0EX8ZRNC4YF4DHXHJOIS0B5CQYBJ,3,4
140,4,object_02,object_07,328.19999998808,8,1,411.0,0.4444444444444444,2,object_10,5,2022,0,9,4,restaurant_7,2,memory-2step-stake-s,638,2360379,0.0-19.0-0.1-0.140,A30RTQC0LLY19K,3B623HUYK76FV1575X2NKKQMM9B8SL,3A0EX8ZRNC4YF4DHXHJOIS0B5CQYBJ,8,7
141,2,object_06,object_09,324.5,4,2,351.39999997616,0.6666666666666666,2,object_10,5,2052,0,9,6,forest_1,2,memory-2step-stake-s,639,2368597,0.0-19.0-0.1-0.141,A30RTQC0LLY19K,3B623HUYK76FV1575X2NKKQMM9B8SL,3A0EX8ZRNC4YF4DHXHJOIS0B5CQYBJ,3,4
142,2,object_09,object_06,285.59999996424,4,1,479.09999996424,0.7777777777777778,2,object_10,5,2087,0,8,7,forest_1,2,memory-2step-stake-s,640,2377023,0.0-19.0-0.1-0.142,A30RTQC0LLY19K,3B623HUYK76FV1575X2NKKQMM9B8SL,3A0EX8ZRNC4YF4DHXHJOIS0B5CQYBJ,4,3
143,1,object_01,object_08,457.19999998808,1,2,569.19999998808,0.7777777777777778,1,object_03,5,2122,0,7,6,desert_6,2,memory-2step-stake-s,641,2385551,0.0-19.0-0.1-0.143,A30RTQC0LLY19K,3B623HUYK76FV1575X2NKKQMM9B8SL,3A0EX8ZRNC4YF4DHXHJOIS0B5CQYBJ,2,1
144,2,object_06,object_09,312.39999997616,3,1,350.90000003576,0.4444444444444444,1,object_03,5,2142,0,4,5,forest_1,2,memory-2step-stake-s,642,2393545,0.0-19.0-0.1-0.144,A30RTQC0LLY19K,3B623HUYK76FV1575X2NKKQMM9B8SL,3A0EX8ZRNC4YF4DHXHJOIS0B5CQYBJ,3,4
145,3,object_04,object_05,694.10000002384,5,2,468.90000003576,0.3333333333333333,1,object_03,1,2145,0,3,6,library_4,2,memory-2step-stake-s,643,2401557,0.0-19.0-0.1-0.145,A30RTQC0LLY19K,3B623HUYK76FV1575X2NKKQMM9B8SL,3A0EX8ZRNC4YF4DHXHJOIS0B5CQYBJ,6,5
146,2,object_09,object_06,507.30000001192,4,1,364.30000001192,0.6666666666666666,2,object_10,5,2175,0,2,6,forest_1,2,memory-2step-stake-s,644,2409774,0.0-19.0-0.1-0.146,A30RTQC0LLY19K,3B623HUYK76FV1575X2NKKQMM9B8SL,3A0EX8ZRNC4YF4DHXHJOIS0B5CQYBJ,4,3
147,4,object_02,object_07,299.69999998808,7,2,403.20000004768,0.1111111111111111,1,object_03,1,2176,0,1,5,restaurant_8,2,memory-2step-stake-s,645,2417518,0.0-19.0-0.1-0.147,A30RTQC0LLY19K,3B623HUYK76FV1575X2NKKQMM9B8SL,3A0EX8ZRNC4YF4DHXHJOIS0B5CQYBJ,8,7
148,2,object_06,object_09,284.19999998808,3,1,435.19999998808,0.3333333333333333,1,object_03,5,2191,0,3,1,forest_6,2,memory-2step-stake-s,646,2425507,0.0-19.0-0.1-0.148,A30RTQC0LLY19K,3B623HUYK76FV1575X2NKKQMM9B8SL,3A0EX8ZRNC4YF4DHXHJOIS0B5CQYBJ,3,4
149,4,object_07,object_02,330.80000001192,8,2,386.09999996424,0.1111111111111111,2,object_10,1,2192,0,2,1,restaurant_3,2,memory-2step-stake-s,647,2433232,0.0-19.0-0.1-0.149,A30RTQC0LLY19K,3B623HUYK76FV1575X2NKKQMM9B8SL,3A0EX8ZRNC4YF4DHXHJOIS0B5CQYBJ,7,8
150,4,object_07,object_02,350.59999996424,7,1,349.30000001192,0.5555555555555556,1,object_03,1,2197,0,5,1,restaurant_3,2,memory-2step-stake-s,648,2441336,0.0-19.0-0.1-0.150,A30RTQC0LLY19K,3B623HUYK76FV1575X2NKKQMM9B8SL,3A0EX8ZRNC4YF4DHXHJOIS0B5CQYBJ,7,8
151,4,object_02,object_07,290.5,7,2,274.5,0.8888888888888888,1,object_03,5,2237,0,8,1,restaurant_3,2,memory-2step-stake-s,649,2449675,0.0-19.0-0.1-0.151,A30RTQC0LLY19K,3B623HUYK76FV1575X2NKKQMM9B8SL,3A0EX8ZRNC4YF4DHXHJOIS0B5CQYBJ,8,7
152,2,object_06,object_09,347.19999998808,3,1,287.39999997616,0.7777777777777778,1,object_03,5,2272,0,7,2,forest_4,2,memory-2step-stake-s,650,2457912,0.0-19.0-0.1-0.152,A30RTQC0LLY19K,3B623HUYK76FV1575X2NKKQMM9B8SL,3A0EX8ZRNC4YF4DHXHJOIS0B5CQYBJ,3,4
153,2,object_09,object_06,299.69999998808,4,1,391.10000002384,0.2222222222222222,2,object_10,5,2282,0,7,2,forest_1,2,memory-2step-stake-s,651,2465741,0.0-19.0-0.1-0.153,A30RTQC0LLY19K,3B623HUYK76FV1575X2NKKQMM9B8SL,3A0EX8ZRNC4YF4DHXHJOIS0B5CQYBJ,4,3
154,2,object_09,object_06,401.5,3,2,493.80000001192,0.8888888888888888,1,object_03,5,2322,0,8,2,forest_8,2,memory-2step-stake-s,652,2474304,0.0-19.0-0.1-0.154,A30RTQC0LLY19K,3B623HUYK76FV1575X2NKKQMM9B8SL,3A0EX8ZRNC4YF4DHXHJOIS0B5CQYBJ,4,3
155,3,object_05,object_04,313.59999996424,5,1,389.89999997616,0.8888888888888888,1,object_03,5,2362,0,8,1,library_4,2,memory-2step-stake-s,653,2482743,0.0-19.0-0.1-0.155,A30RTQC0LLY19K,3B623HUYK76FV1575X2NKKQMM9B8SL,3A0EX8ZRNC4YF4DHXHJOIS0B5CQYBJ,5,6
156,2,object_06,object_09,287.59999996424,4,2,385.5,0.5555555555555556,2,object_10,1,2367,0,5,5,forest_1,2,memory-2step-stake-s,654,2490876,0.0-19.0-0.1-0.156,A30RTQC0LLY19K,3B623HUYK76FV1575X2NKKQMM9B8SL,3A0EX8ZRNC4YF4DHXHJOIS0B5CQYBJ,3,4
157,3,object_05,object_04,294.19999998808,5,1,368.69999998808,0.3333333333333333,1,object_03,1,2370,0,3,3,library_4,2,memory-2step-stake-s,655,2498791,0.0-19.0-0.1-0.157,A30RTQC0LLY19K,3B623HUYK76FV1575X2NKKQMM9B8SL,3A0EX8ZRNC4YF4DHXHJOIS0B5CQYBJ,5,6
158,2,object_06,object_09,247.19999998808,4,2,500.20000004768,0.1111111111111111,2,object_10,5,2375,0,6,1,forest_8,2,memory-2step-stake-s,656,2506636,0.0-19.0-0.1-0.158,A30RTQC0LLY19K,3B623HUYK76FV1575X2NKKQMM9B8SL,3A0EX8ZRNC4YF4DHXHJOIS0B5CQYBJ,3,4
159,2,object_06,object_09,347.60000002384,3,1,290.19999998808,0.5555555555555556,1,object_03,5,2400,0,5,4,forest_4,2,memory-2step-stake-s,657,2514668,0.0-19.0-0.1-0.159,A30RTQC0LLY19K,3B623HUYK76FV1575X2NKKQMM9B8SL,3A0EX8ZRNC4YF4DHXHJOIS0B5CQYBJ,3,4
160,2,object_09,object_06,313.80000001192,3,2,488.29999995232,0.5555555555555556,1,object_03,5,2425,0,5,3,forest_4,2,memory-2step-stake-s,658,2522914,0.0-19.0-0.1-0.160,A30RTQC0LLY19K,3B623HUYK76FV1575X2NKKQMM9B8SL,3A0EX8ZRNC4YF4DHXHJOIS0B5CQYBJ,4,3
161,4,object_02,object_07,589.5,8,1,294.39999997616,0.1111111111111111,2,object_10,1,2426,0,5,1,restaurant_8,2,memory-2step-stake-s,659,2530550,0.0-19.0-0.1-0.161,A30RTQC0LLY19K,3B623HUYK76FV1575X2NKKQMM9B8SL,3A0EX8ZRNC4YF4DHXHJOIS0B5CQYBJ,8,7
162,2,object_06,object_09,400.09999996424,4,2,449.5,0.2222222222222222,2,object_10,1,2428,0,4,2,forest_4,2,memory-2step-stake-s,660,2538452,0.0-19.0-0.1-0.162,A30RTQC0LLY19K,3B623HUYK76FV1575X2NKKQMM9B8SL,3A0EX8ZRNC4YF4DHXHJOIS0B5CQYBJ,3,4
163,3,object_04,object_05,314.80000001192,6,1,327.19999998808,0.3333333333333333,2,object_10,1,2431,0,3,3,library_4,2,memory-2step-stake-s,661,2546326,0.0-19.0-0.1-0.163,A30RTQC0LLY19K,3B623HUYK76FV1575X2NKKQMM9B8SL,3A0EX8ZRNC4YF4DHXHJOIS0B5CQYBJ,6,5
164,3,object_04,object_05,220.89999997616,5,2,341.59999996424,0.7777777777777778,1,object_03,1,2438,0,7,0,library_4,2,memory-2step-stake-s,662,2554635,0.0-19.0-0.1-0.164,A30RTQC0LLY19K,3B623HUYK76FV1575X2NKKQMM9B8SL,3A0EX8ZRNC4YF4DHXHJOIS0B5CQYBJ,6,5
165,2,object_06,object_09,302.69999998808,3,1,379.90000003576,0.7777777777777778,1,object_03,5,2473,0,7,4,forest_6,2,memory-2step-stake-s,663,2562981,0.0-19.0-0.1-0.165,A30RTQC0LLY19K,3B623HUYK76FV1575X2NKKQMM9B8SL,3A0EX8ZRNC4YF4DHXHJOIS0B5CQYBJ,3,4
166,1,object_01,object_08,830.10000002384,1,2,336.69999998808,0.4444444444444444,1,object_03,5,2493,0,4,2,desert_1,2,memory-2step-stake-s,664,2570977,0.0-19.0-0.1-0.166,A30RTQC0LLY19K,3B623HUYK76FV1575X2NKKQMM9B8SL,3A0EX8ZRNC4YF4DHXHJOIS0B5CQYBJ,2,1
167,2,object_06,object_09,375.69999998808,3,1,309.70000004768,0.3333333333333333,1,object_03,5,2508,0,3,2,forest_6,2,memory-2step-stake-s,665,2578831,0.0-19.0-0.1-0.167,A30RTQC0LLY19K,3B623HUYK76FV1575X2NKKQMM9B8SL,3A0EX8ZRNC4YF4DHXHJOIS0B5CQYBJ,3,4
168,2,object_09,object_06,482.80000001192,3,2,425.30000001192,0.4444444444444444,1,object_03,5,2528,0,4,0,forest_6,2,memory-2step-stake-s,666,2586911,0.0-19.0-0.1-0.168,A30RTQC0LLY19K,3B623HUYK76FV1575X2NKKQMM9B8SL,3A0EX8ZRNC4YF4DHXHJOIS0B5CQYBJ,4,3
169,4,object_07,object_02,538.10000002384,7,1,317.19999998808,0.4444444444444444,1,object_03,1,2532,0,4,0,restaurant_8,2,memory-2step-stake-s,667,2594887,0.0-19.0-0.1-0.169,A30RTQC0LLY19K,3B623HUYK76FV1575X2NKKQMM9B8SL,3A0EX8ZRNC4YF4DHXHJOIS0B5CQYBJ,7,8
170,4,object_02,object_07,83.100000023842,7,2,395.70000004768,0.4444444444444444,1,object_03,1,2536,0,4,2,restaurant_7,2,memory-2step-stake-s,668,2602948,0.0-19.0-0.1-0.170,A30RTQC0LLY19K,3B623HUYK76FV1575X2NKKQMM9B8SL,3A0EX8ZRNC4YF4DHXHJOIS0B5CQYBJ,8,7
171,3,object_05,object_04,304.40000003576,5,1,321.19999998808,0.0,1,object_03,5,2536,0,0,2,library_2,2,memory-2step-stake-s,669,2610511,0.0-19.0-0.1-0.171,A30RTQC0LLY19K,3B623HUYK76FV1575X2NKKQMM9B8SL,3A0EX8ZRNC4YF4DHXHJOIS0B5CQYBJ,5,6
172,1,object_08,object_01,370.10000002384,2,2,305.69999998808,0.4444444444444444,2,object_10,1,2540,0,1,4,desert_7,2,memory-2step-stake-s,670,2618473,0.0-19.0-0.1-0.172,A30RTQC0LLY19K,3B623HUYK76FV1575X2NKKQMM9B8SL,3A0EX8ZRNC4YF4DHXHJOIS0B5CQYBJ,1,2
173,1,object_01,object_08,284.69999998808,2,1,328.0,0.6666666666666666,2,object_10,5,2570,0,2,6,desert_7,2,memory-2step-stake-s,671,2626670,0.0-19.0-0.1-0.173,A30RTQC0LLY19K,3B623HUYK76FV1575X2NKKQMM9B8SL,3A0EX8ZRNC4YF4DHXHJOIS0B5CQYBJ,2,1
174,4,object_07,object_02,569.89999997616,7,1,296.90000003576,0.4444444444444444,1,object_03,5,2590,0,4,8,restaurant_7,2,memory-2step-stake-s,672,2634623,0.0-19.0-0.1-0.174,A30RTQC0LLY19K,3B623HUYK76FV1575X2NKKQMM9B8SL,3A0EX8ZRNC4YF4DHXHJOIS0B5CQYBJ,7,8
175,2,object_06,object_09,815.19999998808,4,2,430.80000001192,0.8888888888888888,2,object_10,5,2630,0,7,8,forest_4,2,memory-2step-stake-s,673,2643134,0.0-19.0-0.1-0.175,A30RTQC0LLY19K,3B623HUYK76FV1575X2NKKQMM9B8SL,3A0EX8ZRNC4YF4DHXHJOIS0B5CQYBJ,3,4
176,4,object_02,object_07,421.59999996424,8,1,322.90000003576,1.0,2,object_10,1,2639,0,9,9,restaurant_3,2,memory-2step-stake-s,674,2651640,0.0-19.0-0.1-0.176,A30RTQC0LLY19K,3B623HUYK76FV1575X2NKKQMM9B8SL,3A0EX8ZRNC4YF4DHXHJOIS0B5CQYBJ,8,7
177,2,object_09,object_06,335.60000002384,3,2,331.19999998808,0.7777777777777778,1,object_03,5,2674,0,7,9,forest_1,2,memory-2step-stake-s,675,2659944,0.0-19.0-0.1-0.177,A30RTQC0LLY19K,3B623HUYK76FV1575X2NKKQMM9B8SL,3A0EX8ZRNC4YF4DHXHJOIS0B5CQYBJ,4,3
178,3,object_05,object_04,311.60000002384,5,1,339.5,1.0,1,object_03,5,2719,0,9,7,library_2,2,memory-2step-stake-s,676,2668456,0.0-19.0-0.1-0.178,A30RTQC0LLY19K,3B623HUYK76FV1575X2NKKQMM9B8SL,3A0EX8ZRNC4YF4DHXHJOIS0B5CQYBJ,5,6
179,4,object_02,object_07,332.80000001192,7,2,280.30000001192,0.6666666666666666,1,object_03,1,2725,0,6,8,restaurant_5,2,memory-2step-stake-s,677,2676594,0.0-19.0-0.1-0.179,A30RTQC0LLY19K,3B623HUYK76FV1575X2NKKQMM9B8SL,3A0EX8ZRNC4YF4DHXHJOIS0B5CQYBJ,8,7
180,3,object_04,object_05,301.5,6,1,320.60000002384,0.6666666666666666,2,object_10,1,2731,0,5,6,library_5,2,memory-2step-stake-s,678,2684792,0.0-19.0-0.1-0.180,A30RTQC0LLY19K,3B623HUYK76FV1575X2NKKQMM9B8SL,3A0EX8ZRNC4YF4DHXHJOIS0B5CQYBJ,6,5
181,1,object_01,object_08,324.09999996424,1,2,410.10000002384,0.5555555555555556,1,object_03,5,2756,0,5,5,desert_3,2,memory-2step-stake-s,679,2692974,0.0-19.0-0.1-0.181,A30RTQC0LLY19K,3B623HUYK76FV1575X2NKKQMM9B8SL,3A0EX8ZRNC4YF4DHXHJOIS0B5CQYBJ,2,1
182,4,object_02,object_07,388.80000001192,8,1,311.19999998808,0.5555555555555556,2,object_10,1,2761,0,1,5,restaurant_8,2,memory-2step-stake-s,680,2701058,0.0-19.0-0.1-0.182,A30RTQC0LLY19K,3B623HUYK76FV1575X2NKKQMM9B8SL,3A0EX8ZRNC4YF4DHXHJOIS0B5CQYBJ,8,7
183,4,object_07,object_02,296.19999998808,8,2,394.89999997616,0.6666666666666666,2,object_10,1,2767,0,1,6,restaurant_3,2,memory-2step-stake-s,681,2709319,0.0-19.0-0.1-0.183,A30RTQC0LLY19K,3B623HUYK76FV1575X2NKKQMM9B8SL,3A0EX8ZRNC4YF4DHXHJOIS0B5CQYBJ,7,8
184,3,object_05,object_04,598.40000003576,5,1,425.40000003576,0.2222222222222222,1,object_03,1,2769,0,2,7,library_1,2,memory-2step-stake-s,682,2717194,0.0-19.0-0.1-0.184,A30RTQC0LLY19K,3B623HUYK76FV1575X2NKKQMM9B8SL,3A0EX8ZRNC4YF4DHXHJOIS0B5CQYBJ,5,6
185,3,object_05,object_04,349.29999995232,6,2,333.59999996424,0.7777777777777778,2,object_10,5,2804,0,5,7,library_5,2,memory-2step-stake-s,683,2725473,0.0-19.0-0.1-0.185,A30RTQC0LLY19K,3B623HUYK76FV1575X2NKKQMM9B8SL,3A0EX8ZRNC4YF4DHXHJOIS0B5CQYBJ,5,6
186,1,object_01,object_08,294.40000003576,2,1,352.69999998808,0.7777777777777778,2,object_10,5,2839,0,2,7,desert_6,2,memory-2step-stake-s,684,2733782,0.0-19.0-0.1-0.186,A30RTQC0LLY19K,3B623HUYK76FV1575X2NKKQMM9B8SL,3A0EX8ZRNC4YF4DHXHJOIS0B5CQYBJ,2,1
187,3,object_04,object_05,235.30000001192,5,2,366.0,0.2222222222222222,1,object_03,1,2841,0,2,7,library_4,2,memory-2step-stake-s,685,2741588,0.0-19.0-0.1-0.187,A30RTQC0LLY19K,3B623HUYK76FV1575X2NKKQMM9B8SL,3A0EX8ZRNC4YF4DHXHJOIS0B5CQYBJ,6,5
188,3,object_05,object_04,332.30000001192,5,1,386.89999997616,0.2222222222222222,1,object_03,5,2851,0,2,7,library_2,2,memory-2step-stake-s,686,2749414,0.0-19.0-0.1-0.188,A30RTQC0LLY19K,3B623HUYK76FV1575X2NKKQMM9B8SL,3A0EX8ZRNC4YF4DHXHJOIS0B5CQYBJ,5,6
189,2,object_06,object_09,444.19999998808,4,2,275.0,0.5555555555555556,2,object_10,5,2876,0,2,5,forest_6,2,memory-2step-stake-s,687,2757425,0.0-19.0-0.1-0.189,A30RTQC0LLY19K,3B623HUYK76FV1575X2NKKQMM9B8SL,3A0EX8ZRNC4YF4DHXHJOIS0B5CQYBJ,3,4
190,1,object_08,object_01,401.40000003576,1,1,358.69999998808,0.1111111111111111,1,object_03,5,2881,0,1,7,desert_7,2,memory-2step-stake-s,688,2765121,0.0-19.0-0.1-0.190,A30RTQC0LLY19K,3B623HUYK76FV1575X2NKKQMM9B8SL,3A0EX8ZRNC4YF4DHXHJOIS0B5CQYBJ,1,2
191,2,object_09,object_06,437.40000003576,3,2,369.90000003576,0.2222222222222222,1,object_03,5,2891,0,2,7,forest_4,2,memory-2step-stake-s,689,2772933,0.0-19.0-0.1-0.191,A30RTQC0LLY19K,3B623HUYK76FV1575X2NKKQMM9B8SL,3A0EX8ZRNC4YF4DHXHJOIS0B5CQYBJ,4,3
192,4,object_07,object_02,312.0,7,1,434.5,0.0,1,object_03,5,2891,0,0,6,restaurant_5,2,memory-2step-stake-s,690,2780606,0.0-19.0-0.1-0.192,A30RTQC0LLY19K,3B623HUYK76FV1575X2NKKQMM9B8SL,3A0EX8ZRNC4YF4DHXHJOIS0B5CQYBJ,7,8
193,4,object_07,object_02,299.39999997616,8,2,434.70000004768,0.4444444444444444,2,object_10,1,2895,0,3,4,restaurant_5,2,memory-2step-stake-s,691,2788685,0.0-19.0-0.1-0.193,A30RTQC0LLY19K,3B623HUYK76FV1575X2NKKQMM9B8SL,3A0EX8ZRNC4YF4DHXHJOIS0B5CQYBJ,7,8
194,2,object_09,object_06,274.30000001192,4,1,317.5,0.6666666666666666,2,object_10,5,2925,0,5,6,forest_6,2,memory-2step-stake-s,692,2796858,0.0-19.0-0.1-0.194,A30RTQC0LLY19K,3B623HUYK76FV1575X2NKKQMM9B8SL,3A0EX8ZRNC4YF4DHXHJOIS0B5CQYBJ,4,3
195,4,object_02,object_07,323.30000001192,7,2,270.70000004768,0.6666666666666666,1,object_03,1,2931,0,6,8,restaurant_8,2,memory-2step-stake-s,693,2804980,0.0-19.0-0.1-0.195,A30RTQC0LLY19K,3B623HUYK76FV1575X2NKKQMM9B8SL,3A0EX8ZRNC4YF4DHXHJOIS0B5CQYBJ,8,7
196,3,object_04,object_05,328.19999998808,6,1,292.90000003576,1.0,2,object_10,1,2940,0,8,9,library_1,2,memory-2step-stake-s,694,2813434,0.0-19.0-0.1-0.196,A30RTQC0LLY19K,3B623HUYK76FV1575X2NKKQMM9B8SL,3A0EX8ZRNC4YF4DHXHJOIS0B5CQYBJ,6,5
197,3,object_04,object_05,597.5,6,1,286.0,1.0,2,object_10,5,2985,0,5,9,library_1,2,memory-2step-stake-s,695,2821884,0.0-19.0-0.1-0.197,A30RTQC0LLY19K,3B623HUYK76FV1575X2NKKQMM9B8SL,3A0EX8ZRNC4YF4DHXHJOIS0B5CQYBJ,6,5
198,3,object_05,object_04,429.19999998808,6,2,316.10000002384,0.4444444444444444,2,object_10,5,3005,0,5,4,library_2,2,memory-2step-stake-s,696,2829844,0.0-19.0-0.1-0.198,A30RTQC0LLY19K,3B623HUYK76FV1575X2NKKQMM9B8SL,3A0EX8ZRNC4YF4DHXHJOIS0B5CQYBJ,5,6
199,3,object_04,object_05,514.80000001192,6,1,334.19999998808,0.3333333333333333,2,object_10,1,3008,0,5,3,library_2,2,memory-2step-stake-s,697,2837726,0.0-19.0-0.1-0.199,A30RTQC0LLY19K,3B623HUYK76FV1575X2NKKQMM9B8SL,3A0EX8ZRNC4YF4DHXHJOIS0B5CQYBJ,6,5
200,4,object_07,object_02,257.39999997616,8,2,747.0,0.5555555555555556,2,object_10,1,3013,0,7,5,restaurant_7,2,memory-2step-stake-s,698,2846217,0.0-19.0-0.1-0.200,A30RTQC0LLY19K,3B623HUYK76FV1575X2NKKQMM9B8SL,3A0EX8ZRNC4YF4DHXHJOIS0B5CQYBJ,7,8
201,2,object_06,object_09,335.60000002384,3,1,417.39999997616,0.6666666666666666,1,object_03,5,3043,0,6,5,forest_8,2,memory-2step-stake-s,699,2854483,0.0-19.0-0.1-0.201,A30RTQC0LLY19K,3B623HUYK76FV1575X2NKKQMM9B8SL,3A0EX8ZRNC4YF4DHXHJOIS0B5CQYBJ,3,4
202,4,object_02,object_07,489.89999997616,7,2,338.20000004768,0.6666666666666666,1,object_03,1,3049,0,6,8,restaurant_7,2,memory-2step-stake-s,700,2862694,0.0-19.0-0.1-0.202,A30RTQC0LLY19K,3B623HUYK76FV1575X2NKKQMM9B8SL,3A0EX8ZRNC4YF4DHXHJOIS0B5CQYBJ,8,7
203,1,object_01,object_08,296.79999995232,2,1,386.0,0.5555555555555556,2,object_10,5,3074,0,7,5,desert_6,2,memory-2step-stake-s,701,2870824,0.0-19.0-0.1-0.203,A30RTQC0LLY19K,3B623HUYK76FV1575X2NKKQMM9B8SL,3A0EX8ZRNC4YF4DHXHJOIS0B5CQYBJ,2,1
204,1,object_01,object_08,444.39999997616,1,2,562.30000001192,0.6666666666666666,1,object_03,5,3104,0,6,5,desert_1,2,memory-2step-stake-s,702,2879240,0.0-19.0-0.1-0.204,A30RTQC0LLY19K,3B623HUYK76FV1575X2NKKQMM9B8SL,3A0EX8ZRNC4YF4DHXHJOIS0B5CQYBJ,2,1
205,3,object_04,object_05,468.5,6,1,295.39999997616,0.6666666666666666,2,object_10,1,3110,0,7,6,library_5,2,memory-2step-stake-s,703,2887397,0.0-19.0-0.1-0.205,A30RTQC0LLY19K,3B623HUYK76FV1575X2NKKQMM9B8SL,3A0EX8ZRNC4YF4DHXHJOIS0B5CQYBJ,6,5
206,3,object_05,object_04,377.69999998808,6,2,380.5,0.5555555555555556,2,object_10,1,3115,0,6,5,library_1,2,memory-2step-stake-s,704,2895528,0.0-19.0-0.1-0.206,A30RTQC0LLY19K,3B623HUYK76FV1575X2NKKQMM9B8SL,3A0EX8ZRNC4YF4DHXHJOIS0B5CQYBJ,5,6
207,2,object_09,object_06,602.30000001192,4,1,343.30000001192,0.4444444444444444,2,object_10,5,3135,0,5,4,forest_8,2,memory-2step-stake-s,705,2903527,0.0-19.0-0.1-0.207,A30RTQC0LLY19K,3B623HUYK76FV1575X2NKKQMM9B8SL,3A0EX8ZRNC4YF4DHXHJOIS0B5CQYBJ,4,3
208,2,object_09,object_06,76.0,3,2,330.59999996424,0.2222222222222222,1,object_03,5,3145,0,2,1,forest_8,2,memory-2step-stake-s,706,2911300,0.0-19.0-0.1-0.208,A30RTQC0LLY19K,3B623HUYK76FV1575X2NKKQMM9B8SL,3A0EX8ZRNC4YF4DHXHJOIS0B5CQYBJ,4,3
209,1,object_08,object_01,372.30000001192,1,1,223.20000004768,0.0,1,object_03,5,3145,0,0,0,desert_7,2,memory-2step-stake-s,707,2918759,0.0-19.0-0.1-0.209,A30RTQC0LLY19K,3B623HUYK76FV1575X2NKKQMM9B8SL,3A0EX8ZRNC4YF4DHXHJOIS0B5CQYBJ,1,2
210,2,object_09,object_06,311.80000001192,4,1,313.90000003576,0.1111111111111111,2,object_10,5,3150,0,1,1,forest_6,2,memory-2step-stake-s,708,2926412,0.0-19.0-0.1-0.210,A30RTQC0LLY19K,3B623HUYK76FV1575X2NKKQMM9B8SL,3A0EX8ZRNC4YF4DHXHJOIS0B5CQYBJ,4,3
211,4,object_02,object_07,376.0,7,2,356.5,0.1111111111111111,1,object_03,5,3155,0,1,1,restaurant_8,2,memory-2step-stake-s,709,2934114,0.0-19.0-0.1-0.211,A30RTQC0LLY19K,3B623HUYK76FV1575X2NKKQMM9B8SL,3A0EX8ZRNC4YF4DHXHJOIS0B5CQYBJ,8,7
212,1,object_08,object_01,456.79999995232,1,1,324.20000004768,0.1111111111111111,1,object_03,5,3160,0,1,2,desert_1,2,memory-2step-stake-s,710,2941777,0.0-19.0-0.1-0.212,A30RTQC0LLY19K,3B623HUYK76FV1575X2NKKQMM9B8SL,3A0EX8ZRNC4YF4DHXHJOIS0B5CQYBJ,1,2
213,4,object_02,object_07,367.19999998808,7,2,325.39999997616,0.0,1,object_03,1,3160,0,0,3,restaurant_8,2,memory-2step-stake-s,711,2949343,0.0-19.0-0.1-0.213,A30RTQC0LLY19K,3B623HUYK76FV1575X2NKKQMM9B8SL,3A0EX8ZRNC4YF4DHXHJOIS0B5CQYBJ,8,7
214,3,object_05,object_04,450.19999998808,5,1,347.39999997616,0.1111111111111111,1,object_03,1,3161,0,1,0,library_2,2,memory-2step-stake-s,712,2957036,0.0-19.0-0.1-0.214,A30RTQC0LLY19K,3B623HUYK76FV1575X2NKKQMM9B8SL,3A0EX8ZRNC4YF4DHXHJOIS0B5CQYBJ,5,6
215,1,object_08,object_01,317.0,2,2,532.40000003576,0.2222222222222222,2,object_10,1,3163,0,1,2,desert_7,2,memory-2step-stake-s,713,2965014,0.0-19.0-0.1-0.215,A30RTQC0LLY19K,3B623HUYK76FV1575X2NKKQMM9B8SL,3A0EX8ZRNC4YF4DHXHJOIS0B5CQYBJ,1,2
216,1,object_08,object_01,543.80000001192,1,1,484.19999998808,0.3333333333333333,1,object_03,5,3178,0,3,1,desert_3,2,memory-2step-stake-s,714,2973046,0.0-19.0-0.1-0.216,A30RTQC0LLY19K,3B623HUYK76FV1575X2NKKQMM9B8SL,3A0EX8ZRNC4YF4DHXHJOIS0B5CQYBJ,1,2
217,2,object_09,object_06,342.0,3,2,693.19999998808,0.4444444444444444,1,object_03,5,3198,0,4,1,forest_8,2,memory-2step-stake-s,715,2981393,0.0-19.0-0.1-0.217,A30RTQC0LLY19K,3B623HUYK76FV1575X2NKKQMM9B8SL,3A0EX8ZRNC4YF4DHXHJOIS0B5CQYBJ,4,3
218,2,object_09,object_06,317.0,3,2,374.89999997616,0.6666666666666666,1,object_03,5,3228,0,6,3,forest_4,2,memory-2step-stake-s,716,2989625,0.0-19.0-0.1-0.218,A30RTQC0LLY19K,3B623HUYK76FV1575X2NKKQMM9B8SL,3A0EX8ZRNC4YF4DHXHJOIS0B5CQYBJ,4,3
219,4,object_02,object_07,327.10000002384,8,1,427.39999997616,0.7777777777777778,2,object_10,5,3263,0,5,7,restaurant_8,2,memory-2step-stake-s,717,2998030,0.0-19.0-0.1-0.219,A30RTQC0LLY19K,3B623HUYK76FV1575X2NKKQMM9B8SL,3A0EX8ZRNC4YF4DHXHJOIS0B5CQYBJ,8,7
220,1,object_08,object_01,260.69999998808,2,2,23.900000035763,0.7777777777777778,2,object_10,5,3298,0,6,7,desert_1,2,memory-2step-stake-s,718,3006027,0.0-19.0-0.1-0.220,A30RTQC0LLY19K,3B623HUYK76FV1575X2NKKQMM9B8SL,3A0EX8ZRNC4YF4DHXHJOIS0B5CQYBJ,1,2
221,1,object_08,object_01,138.30000001192,1,1,301.09999996424,0.8888888888888888,1,object_03,5,3338,0,8,8,desert_6,2,memory-2step-stake-s,719,3014400,0.0-19.0-0.1-0.221,A30RTQC0LLY19K,3B623HUYK76FV1575X2NKKQMM9B8SL,3A0EX8ZRNC4YF4DHXHJOIS0B5CQYBJ,1,2
222,1,object_08,object_01,690.10000002384,2,2,417.5,0.8888888888888888,2,object_10,5,3378,0,7,8,desert_1,2,memory-2step-stake-s,720,3022900,0.0-19.0-0.1-0.222,A30RTQC0LLY19K,3B623HUYK76FV1575X2NKKQMM9B8SL,3A0EX8ZRNC4YF4DHXHJOIS0B5CQYBJ,1,2
223,1,object_08,object_01,273.60000002384,1,1,136.80000001192,0.6666666666666666,1,object_03,5,3408,0,6,8,desert_1,2,memory-2step-stake-s,721,3030901,0.0-19.0-0.1-0.223,A30RTQC0LLY19K,3B623HUYK76FV1575X2NKKQMM9B8SL,3A0EX8ZRNC4YF4DHXHJOIS0B5CQYBJ,1,2
224,3,object_04,object_05,515.10000002384,5,2,295.70000004768,0.7777777777777778,1,object_03,1,3415,0,7,6,library_5,2,memory-2step-stake-s,722,3039170,0.0-19.0-0.1-0.224,A30RTQC0LLY19K,3B623HUYK76FV1575X2NKKQMM9B8SL,3A0EX8ZRNC4YF4DHXHJOIS0B5CQYBJ,6,5
225,1,object_01,object_08,325.0,2,1,343.69999998808,0.3333333333333333,2,object_10,1,3418,0,7,3,desert_7,2,memory-2step-stake-s,723,3047066,0.0-19.0-0.1-0.225,A30RTQC0LLY19K,3B623HUYK76FV1575X2NKKQMM9B8SL,3A0EX8ZRNC4YF4DHXHJOIS0B5CQYBJ,2,1
226,1,object_08,object_01,301.19999998808,2,2,272.89999997616,0.1111111111111111,2,object_10,5,3423,0,8,1,desert_3,2,memory-2step-stake-s,724,3054677,0.0-19.0-0.1-0.226,A30RTQC0LLY19K,3B623HUYK76FV1575X2NKKQMM9B8SL,3A0EX8ZRNC4YF4DHXHJOIS0B5CQYBJ,1,2
227,4,object_02,object_07,459.89999997616,8,1,259.79999995232,0.3333333333333333,2,object_10,1,3426,0,8,3,restaurant_7,2,memory-2step-stake-s,725,3062494,0.0-19.0-0.1-0.227,A30RTQC0LLY19K,3B623HUYK76FV1575X2NKKQMM9B8SL,3A0EX8ZRNC4YF4DHXHJOIS0B5CQYBJ,8,7
228,3,object_04,object_05,249.5,5,2,362.10000002384,0.6666666666666666,1,object_03,1,3432,0,6,1,library_4,2,memory-2step-stake-s,726,3070724,0.0-19.0-0.1-0.228,A30RTQC0LLY19K,3B623HUYK76FV1575X2NKKQMM9B8SL,3A0EX8ZRNC4YF4DHXHJOIS0B5CQYBJ,6,5
229,1,object_08,object_01,300.0,1,1,458.30000001192,0.7777777777777778,1,object_03,5,3467,0,7,0,desert_1,2,memory-2step-stake-s,727,3079163,0.0-19.0-0.1-0.229,A30RTQC0LLY19K,3B623HUYK76FV1575X2NKKQMM9B8SL,3A0EX8ZRNC4YF4DHXHJOIS0B5CQYBJ,1,2
230,1,object_08,object_01,163.79999995232,2,2,389.30000001192,0.0,2,object_10,5,3467,0,7,0,desert_6,2,memory-2step-stake-s,728,3086788,0.0-19.0-0.1-0.230,A30RTQC0LLY19K,3B623HUYK76FV1575X2NKKQMM9B8SL,3A0EX8ZRNC4YF4DHXHJOIS0B5CQYBJ,1,2
231,4,object_07,object_02,387.0,7,1,297.59999996424,0.6666666666666666,1,object_03,1,3473,0,6,1,restaurant_3,2,memory-2step-stake-s,729,3094956,0.0-19.0-0.1-0.231,A30RTQC0LLY19K,3B623HUYK76FV1575X2NKKQMM9B8SL,3A0EX8ZRNC4YF4DHXHJOIS0B5CQYBJ,7,8
232,2,object_09,object_06,73.400000035763,3,2,321.80000001192,0.3333333333333333,1,object_03,5,3488,0,3,0,forest_1,2,memory-2step-stake-s,730,3102836,0.0-19.0-0.1-0.232,A30RTQC0LLY19K,3B623HUYK76FV1575X2NKKQMM9B8SL,3A0EX8ZRNC4YF4DHXHJOIS0B5CQYBJ,4,3
233,1,object_01,object_08,275.60000002384,2,1,242.69999998808,0.4444444444444444,2,object_10,5,3508,0,3,4,desert_7,2,memory-2step-stake-s,731,3110745,0.0-19.0-0.1-0.233,A30RTQC0LLY19K,3B623HUYK76FV1575X2NKKQMM9B8SL,3A0EX8ZRNC4YF4DHXHJOIS0B5CQYBJ,2,1
234,2,object_06,object_09,318.5,3,1,380.69999998808,0.1111111111111111,1,object_03,5,3513,0,1,6,forest_6,2,memory-2step-stake-s,732,3118473,0.0-19.0-0.1-0.234,A30RTQC0LLY19K,3B623HUYK76FV1575X2NKKQMM9B8SL,3A0EX8ZRNC4YF4DHXHJOIS0B5CQYBJ,3,4
235,4,object_07,object_02,263.0,8,2,419.5,0.7777777777777778,2,object_10,1,3520,0,3,7,restaurant_8,2,memory-2step-stake-s,733,3126866,0.0-19.0-0.1-0.235,A30RTQC0LLY19K,3B623HUYK76FV1575X2NKKQMM9B8SL,3A0EX8ZRNC4YF4DHXHJOIS0B5CQYBJ,7,8
236,4,object_02,object_07,375.90000003576,8,1,914.80000001192,0.8888888888888888,2,object_10,1,3528,0,1,8,restaurant_3,2,memory-2step-stake-s,734,3136488,0.0-19.0-0.1-0.236,A30RTQC0LLY19K,3B623HUYK76FV1575X2NKKQMM9B8SL,3A0EX8ZRNC4YF4DHXHJOIS0B5CQYBJ,8,7
237,1,object_01,object_08,361.60000002384,2,1,300.39999997616,0.8888888888888888,2,object_10,5,3568,0,1,8,desert_1,2,memory-2step-stake-s,735,3144871,0.0-19.0-0.1-0.237,A30RTQC0LLY19K,3B623HUYK76FV1575X2NKKQMM9B8SL,3A0EX8ZRNC4YF4DHXHJOIS0B5CQYBJ,2,1
238,3,object_05,object_04,337.59999996424,6,2,344.79999995232,0.8888888888888888,2,object_10,1,3576,0,3,8,library_2,2,memory-2step-stake-s,736,3153314,0.0-19.0-0.1-0.238,A30RTQC0LLY19K,3B623HUYK76FV1575X2NKKQMM9B8SL,3A0EX8ZRNC4YF4DHXHJOIS0B5CQYBJ,5,6
239,2,object_09,object_06,285.30000001192,3,2,322.90000003576,0.2222222222222222,1,object_03,5,3586,0,2,4,forest_6,2,memory-2step-stake-s,737,3161085,0.0-19.0-0.1-0.239,A30RTQC0LLY19K,3B623HUYK76FV1575X2NKKQMM9B8SL,3A0EX8ZRNC4YF4DHXHJOIS0B5CQYBJ,4,3
240,1,object_08,object_01,274.0,2,2,284.59999996424,0.3333333333333333,2,object_10,5,3601,0,5,3,desert_1,2,memory-2step-stake-s,738,3168909,0.0-19.0-0.1-0.240,A30RTQC0LLY19K,3B623HUYK76FV1575X2NKKQMM9B8SL,3A0EX8ZRNC4YF4DHXHJOIS0B5CQYBJ,1,2
241,1,object_01,object_08,264.10000002384,2,1,238.5,0.1111111111111111,2,object_10,5,3606,0,5,1,desert_7,2,memory-2step-stake-s,739,3176477,0.0-19.0-0.1-0.241,A30RTQC0LLY19K,3B623HUYK76FV1575X2NKKQMM9B8SL,3A0EX8ZRNC4YF4DHXHJOIS0B5CQYBJ,2,1
242,3,object_05,object_04,563.69999998808,6,2,52.300000011921,0.4444444444444444,2,object_10,1,3610,0,1,4,library_5,2,memory-2step-stake-s,740,3184173,0.0-19.0-0.1-0.242,A30RTQC0LLY19K,3B623HUYK76FV1575X2NKKQMM9B8SL,3A0EX8ZRNC4YF4DHXHJOIS0B5CQYBJ,5,6
243,1,object_08,object_01,480.80000001192,1,1,336.89999997616,0.2222222222222222,1,object_03,5,3620,0,2,4,desert_1,2,memory-2step-stake-s,741,3191943,0.0-19.0-0.1-0.243,A30RTQC0LLY19K,3B623HUYK76FV1575X2NKKQMM9B8SL,3A0EX8ZRNC4YF4DHXHJOIS0B5CQYBJ,1,2
244,3,object_05,object_04,366.89999997616,5,1,369.39999997616,0.3333333333333333,1,object_03,1,3623,0,3,2,library_2,2,memory-2step-stake-s,742,3199845,0.0-19.0-0.1-0.244,A30RTQC0LLY19K,3B623HUYK76FV1575X2NKKQMM9B8SL,3A0EX8ZRNC4YF4DHXHJOIS0B5CQYBJ,5,6
245,1,object_01,object_08,336.80000001192,2,1,326.39999997616,0.0,2,object_10,5,3623,0,4,0,desert_7,2,memory-2step-stake-s,743,3207404,0.0-19.0-0.1-0.245,A30RTQC0LLY19K,3B623HUYK76FV1575X2NKKQMM9B8SL,3A0EX8ZRNC4YF4DHXHJOIS0B5CQYBJ,2,1
246,4,object_02,object_07,440.69999998808,7,2,394.5,0.4444444444444444,1,object_03,1,3627,0,4,1,restaurant_7,2,memory-2step-stake-s,744,3215436,0.0-19.0-0.1-0.246,A30RTQC0LLY19K,3B623HUYK76FV1575X2NKKQMM9B8SL,3A0EX8ZRNC4YF4DHXHJOIS0B5CQYBJ,8,7
247,1,object_08,object_01,421.5,1,1,317.30000001192,0.2222222222222222,1,object_03,5,3637,0,2,3,desert_1,2,memory-2step-stake-s,745,3223182,0.0-19.0-0.1-0.247,A30RTQC0LLY19K,3B623HUYK76FV1575X2NKKQMM9B8SL,3A0EX8ZRNC4YF4DHXHJOIS0B5CQYBJ,1,2
248,1,object_08,object_01,493.20000004768,2,2,252.30000001192,0.2222222222222222,2,object_10,5,3647,0,4,2,desert_6,2,memory-2step-stake-s,746,3230871,0.0-19.0-0.1-0.248,A30RTQC0LLY19K,3B623HUYK76FV1575X2NKKQMM9B8SL,3A0EX8ZRNC4YF4DHXHJOIS0B5CQYBJ,1,2
249,2,object_09,object_06,435.0,4,1,307.19999998808,0.3333333333333333,2,object_10,1,3650,0,6,3,forest_4,2,memory-2step-stake-s,747,3238716,0.0-19.0-0.1-0.249,A30RTQC0LLY19K,3B623HUYK76FV1575X2NKKQMM9B8SL,3A0EX8ZRNC4YF4DHXHJOIS0B5CQYBJ,4,3
250,4,object_07,object_02,438.19999998808,8,2,304.0,0.2222222222222222,2,object_10,1,3652,0,5,2,restaurant_7,2,memory-2step-stake-s,748,3246463,0.0-19.0-0.1-0.250,A30RTQC0LLY19K,3B623HUYK76FV1575X2NKKQMM9B8SL,3A0EX8ZRNC4YF4DHXHJOIS0B5CQYBJ,7,8
251,3,object_04,object_05,421.0,6,1,377.0,0.4444444444444444,2,object_10,1,3656,0,8,4,library_4,2,memory-2step-stake-s,749,3254481,0.0-19.0-0.1-0.251,A30RTQC0LLY19K,3B623HUYK76FV1575X2NKKQMM9B8SL,3A0EX8ZRNC4YF4DHXHJOIS0B5CQYBJ,6,5
252,1,object_01,object_08,644.89999997616,2,1,308.60000002384,0.2222222222222222,2,object_10,5,3666,0,6,2,desert_3,2,memory-2step-stake-s,750,3262219,0.0-19.0-0.1-0.252,A30RTQC0LLY19K,3B623HUYK76FV1575X2NKKQMM9B8SL,3A0EX8ZRNC4YF4DHXHJOIS0B5CQYBJ,2,1
253,2,object_06,object_09,344.10000002384,4,2,331.40000003576,0.1111111111111111,2,object_10,5,3671,0,5,1,forest_1,2,memory-2step-stake-s,751,3269883,0.0-19.0-0.1-0.253,A30RTQC0LLY19K,3B623HUYK76FV1575X2NKKQMM9B8SL,3A0EX8ZRNC4YF4DHXHJOIS0B5CQYBJ,3,4
254,3,object_05,object_04,448.59999996424,5,1,156.39999997616,0.5555555555555556,1,object_03,1,3676,0,5,3,library_1,2,memory-2step-stake-s,752,3277796,0.0-19.0-0.1-0.254,A30RTQC0LLY19K,3B623HUYK76FV1575X2NKKQMM9B8SL,3A0EX8ZRNC4YF4DHXHJOIS0B5CQYBJ,5,6
255,1,object_08,object_01,407.59999996424,2,2,336.09999996424,0.4444444444444444,2,object_10,5,3696,0,3,4,desert_7,2,memory-2step-stake-s,753,3285782,0.0-19.0-0.1-0.255,A30RTQC0LLY19K,3B623HUYK76FV1575X2NKKQMM9B8SL,3A0EX8ZRNC4YF4DHXHJOIS0B5CQYBJ,1,2
