,state1,stim_left,stim_right,rt_1,choice1,response1,rt_2,points,state2,stim_state2,stake,score,practice,rews1,rews2,background,high_arm,trial_type,trial_index,time_elapsed,internal_node_id,subid,hitid,assignmentid,stim_left_num,stim_right_num
0,2,object_05,object_03,854.20000004768,4,2,1460.5999999046,0.7777777777777778,2,object_02,5,35,0,1,7,forest_7,2,memory-2step-stake-s,490,796984,0.0-19.0-0.0-0.0,A21OS9KG7JNHR7,3YO4AH2FQG0L0WLRIP03W553LNE0Q1,3L4D84MIL38IBSL4B9SHUGOLNLRHJT,3,4
1,3,object_07,object_04,725.5,6,1,967.60000002384,0.7777777777777778,2,object_02,5,70,0,3,7,library_6,2,memory-2step-stake-s,491,805878,0.0-19.0-0.0-0.1,A21OS9KG7JNHR7,3YO4AH2FQG0L0WLRIP03W553LNE0Q1,3L4D84MIL38IBSL4B9SHUGOLNLRHJT,6,5
2,3,object_04,object_07,1310.0,6,2,819.10000002384,0.4444444444444444,2,object_02,1,74,0,2,4,library_6,2,memory-2step-stake-s,492,814321,0.0-19.0-0.0-0.2,A21OS9KG7JNHR7,3YO4AH2FQG0L0WLRIP03W553LNE0Q1,3L4D84MIL38IBSL4B9SHUGOLNLRHJT,5,6
3,2,object_05,object_03,807.0,4,2,572.09999990463,0.1111111111111111,2,object_02,5,79,0,2,1,forest_2,2,memory-2step-stake-s,493,822220,0.0-19.0-0.0-0.3,A21OS9KG7JNHR7,3YO4AH2FQG0L0WLRIP03W553LNE0Q1,3L4D84MIL38IBSL4B9SHUGOLNLRHJT,3,4
4,1,object_10,object_09,1211.6999999285,1,1,708.69999992847,0.0,1,object_01,5,79,0,0,1,desert_6,2,memory-2step-stake-s,494,830148,0.0-19.0-0.0-0.4,A21OS9KG7JNHR7,3YO4AH2FQG0L0WLRIP03W553LNE0Q1,3L4D84MIL38IBSL4B9SHUGOLNLRHJT,1,2
5,1,object_09,object_10,1072.9000000954,1,2,486.39999997616,0.3333333333333333,1,object_01,5,94,0,3,3,desert_7,2,memory-2step-stake-s,495,838159,0.0-19.0-0.0-0.5,A21OS9KG7JNHR7,3YO4AH2FQG0L0WLRIP03W553LNE0Q1,3L4D84MIL38IBSL4B9SHUGOLNLRHJT,2,1
6,2,object_03,object_05,1082.5,3,2,555.89999997616,0.7777777777777778,1,object_01,5,129,0,7,5,forest_5,2,memory-2step-stake-s,496,846647,0.0-19.0-0.0-0.6,A21OS9KG7JNHR7,3YO4AH2FQG0L0WLRIP03W553LNE0Q1,3L4D84MIL38IBSL4B9SHUGOLNLRHJT,4,3
7,3,object_07,object_04,1084.7999999523,6,1,670.90000009537,0.3333333333333333,2,object_02,1,132,0,5,3,library_2,2,memory-2step-stake-s,497,854835,0.0-19.0-0.0-0.7,A21OS9KG7JNHR7,3YO4AH2FQG0L0WLRIP03W553LNE0Q1,3L4D84MIL38IBSL4B9SHUGOLNLRHJT,6,5
8,2,object_03,object_05,838.10000002384,4,1,438.30000007153,0.4444444444444444,2,object_02,5,152,0,8,4,forest_2,2,memory-2step-stake-s,498,862898,0.0-19.0-0.0-0.8,A21OS9KG7JNHR7,3YO4AH2FQG0L0WLRIP03W553LNE0Q1,3L4D84MIL38IBSL4B9SHUGOLNLRHJT,4,3
9,1,object_10,object_09,978.60000002384,2,2,613.10000002384,0.4444444444444444,2,object_02,5,172,0,8,4,desert_4,2,memory-2step-stake-s,499,871132,0.0-19.0-0.0-0.9,A21OS9KG7JNHR7,3YO4AH2FQG0L0WLRIP03W553LNE0Q1,3L4D84MIL38IBSL4B9SHUGOLNLRHJT,1,2
10,4,object_06,object_08,1043.5,7,1,533.19999992847,0.8888888888888888,1,object_01,1,180,0,8,6,restaurant_5,2,memory-2step-stake-s,500,879693,0.0-19.0-0.0-0.10,A21OS9KG7JNHR7,3YO4AH2FQG0L0WLRIP03W553LNE0Q1,3L4D84MIL38IBSL4B9SHUGOLNLRHJT,7,8
11,4,object_06,object_08,1466.2999999523,8,2,444.60000002384,0.5555555555555556,2,object_02,1,185,0,5,5,restaurant_6,2,memory-2step-stake-s,501,887864,0.0-19.0-0.0-0.11,A21OS9KG7JNHR7,3YO4AH2FQG0L0WLRIP03W553LNE0Q1,3L4D84MIL38IBSL4B9SHUGOLNLRHJT,7,8
12,2,object_03,object_05,-1.0,-1,-1,-1.0,0.0,-,0,5,185,0,4,3,forest_3,2,memory-2step-stake-s,502,894377,0.0-19.0-0.0-0.12,A21OS9KG7JNHR7,3YO4AH2FQG0L0WLRIP03W553LNE0Q1,3L4D84MIL38IBSL4B9SHUGOLNLRHJT,4,3
13,4,object_06,object_08,549.39999997616,7,1,520.79999995232,0.8888888888888888,1,object_01,1,193,0,8,2,restaurant_5,2,memory-2step-stake-s,503,902929,0.0-19.0-0.0-0.13,A21OS9KG7JNHR7,3YO4AH2FQG0L0WLRIP03W553LNE0Q1,3L4D84MIL38IBSL4B9SHUGOLNLRHJT,7,8
14,2,object_05,object_03,547.5,4,2,478.70000004768,0.4444444444444444,2,object_02,5,213,0,6,4,forest_5,2,memory-2step-stake-s,504,911030,0.0-19.0-0.0-0.14,A21OS9KG7JNHR7,3YO4AH2FQG0L0WLRIP03W553LNE0Q1,3L4D84MIL38IBSL4B9SHUGOLNLRHJT,3,4
15,4,object_08,object_06,746.20000004768,8,1,589.90000009537,0.4444444444444444,2,object_02,5,233,0,6,4,restaurant_6,2,memory-2step-stake-s,505,919240,0.0-19.0-0.0-0.15,A21OS9KG7JNHR7,3YO4AH2FQG0L0WLRIP03W553LNE0Q1,3L4D84MIL38IBSL4B9SHUGOLNLRHJT,8,7
16,4,object_08,object_06,1019.2000000477,8,1,297.60000002384,0.5555555555555556,2,object_02,1,238,0,6,5,restaurant_4,2,memory-2step-stake-s,506,927262,0.0-19.0-0.0-0.16,A21OS9KG7JNHR7,3YO4AH2FQG0L0WLRIP03W553LNE0Q1,3L4D84MIL38IBSL4B9SHUGOLNLRHJT,8,7
17,4,object_08,object_06,1360.6000000238,8,1,529.5,0.7777777777777778,2,object_02,1,245,0,6,7,restaurant_5,2,memory-2step-stake-s,507,935720,0.0-19.0-0.0-0.17,A21OS9KG7JNHR7,3YO4AH2FQG0L0WLRIP03W553LNE0Q1,3L4D84MIL38IBSL4B9SHUGOLNLRHJT,8,7
18,1,object_09,object_10,831.79999995232,1,2,553.29999995232,0.5555555555555556,1,object_01,5,270,0,5,6,desert_7,2,memory-2step-stake-s,508,944000,0.0-19.0-0.0-0.18,A21OS9KG7JNHR7,3YO4AH2FQG0L0WLRIP03W553LNE0Q1,3L4D84MIL38IBSL4B9SHUGOLNLRHJT,2,1
19,2,object_03,object_05,999.20000004768,4,1,344.0,0.6666666666666666,2,object_02,5,300,0,4,6,forest_7,2,memory-2step-stake-s,509,952173,0.0-19.0-0.0-0.19,A21OS9KG7JNHR7,3YO4AH2FQG0L0WLRIP03W553LNE0Q1,3L4D84MIL38IBSL4B9SHUGOLNLRHJT,4,3
20,2,object_03,object_05,745.40000009537,4,1,485.39999997616,0.4444444444444444,2,object_02,5,320,0,3,4,forest_7,2,memory-2step-stake-s,510,960288,0.0-19.0-0.0-0.20,A21OS9KG7JNHR7,3YO4AH2FQG0L0WLRIP03W553LNE0Q1,3L4D84MIL38IBSL4B9SHUGOLNLRHJT,4,3
21,3,object_07,object_04,839.0,6,1,504.60000002384,0.3333333333333333,2,object_02,1,323,0,1,3,library_8,2,memory-2step-stake-s,511,968315,0.0-19.0-0.0-0.21,A21OS9KG7JNHR7,3YO4AH2FQG0L0WLRIP03W553LNE0Q1,3L4D84MIL38IBSL4B9SHUGOLNLRHJT,6,5
22,4,object_06,object_08,601.39999997616,8,2,396.20000004768,0.2222222222222222,2,object_02,5,333,0,0,2,restaurant_4,2,memory-2step-stake-s,512,976146,0.0-19.0-0.0-0.22,A21OS9KG7JNHR7,3YO4AH2FQG0L0WLRIP03W553LNE0Q1,3L4D84MIL38IBSL4B9SHUGOLNLRHJT,7,8
23,1,object_10,object_09,803.0,1,1,572.39999997616,0.0,1,object_01,5,333,0,0,4,desert_6,2,memory-2step-stake-s,513,983934,0.0-19.0-0.0-0.23,A21OS9KG7JNHR7,3YO4AH2FQG0L0WLRIP03W553LNE0Q1,3L4D84MIL38IBSL4B9SHUGOLNLRHJT,1,2
24,4,object_08,object_06,736.89999997616,8,1,465.59999990463,0.3333333333333333,2,object_02,1,336,0,0,3,restaurant_6,2,memory-2step-stake-s,514,991939,0.0-19.0-0.0-0.24,A21OS9KG7JNHR7,3YO4AH2FQG0L0WLRIP03W553LNE0Q1,3L4D84MIL38IBSL4B9SHUGOLNLRHJT,8,7
25,3,object_04,object_07,599.29999995232,6,2,573.10000002384,0.5555555555555556,2,object_02,1,341,0,4,5,library_6,2,memory-2step-stake-s,515,1000251,0.0-19.0-0.0-0.25,A21OS9KG7JNHR7,3YO4AH2FQG0L0WLRIP03W553LNE0Q1,3L4D84MIL38IBSL4B9SHUGOLNLRHJT,5,6
26,3,object_04,object_07,618.89999997616,5,1,361.89999997616,0.3333333333333333,1,object_01,1,344,0,3,5,library_8,2,memory-2step-stake-s,516,1008132,0.0-19.0-0.0-0.26,A21OS9KG7JNHR7,3YO4AH2FQG0L0WLRIP03W553LNE0Q1,3L4D84MIL38IBSL4B9SHUGOLNLRHJT,5,6
27,4,object_06,object_08,788.30000007153,8,2,505.59999990463,0.7777777777777778,2,object_02,1,351,0,3,7,restaurant_6,2,memory-2step-stake-s,517,1016566,0.0-19.0-0.0-0.27,A21OS9KG7JNHR7,3YO4AH2FQG0L0WLRIP03W553LNE0Q1,3L4D84MIL38IBSL4B9SHUGOLNLRHJT,7,8
28,2,object_05,object_03,665.5,4,2,401.29999995232,0.7777777777777778,2,object_02,5,386,0,6,7,forest_3,2,memory-2step-stake-s,518,1024898,0.0-19.0-0.0-0.28,A21OS9KG7JNHR7,3YO4AH2FQG0L0WLRIP03W553LNE0Q1,3L4D84MIL38IBSL4B9SHUGOLNLRHJT,3,4
29,4,object_06,object_08,883.29999995232,7,1,377.0,0.5555555555555556,1,object_01,1,391,0,5,8,restaurant_5,2,memory-2step-stake-s,519,1033001,0.0-19.0-0.0-0.29,A21OS9KG7JNHR7,3YO4AH2FQG0L0WLRIP03W553LNE0Q1,3L4D84MIL38IBSL4B9SHUGOLNLRHJT,7,8
30,3,object_07,object_04,567.69999992847,5,2,434.60000002384,0.2222222222222222,1,object_01,1,393,0,2,7,library_8,2,memory-2step-stake-s,520,1040850,0.0-19.0-0.0-0.30,A21OS9KG7JNHR7,3YO4AH2FQG0L0WLRIP03W553LNE0Q1,3L4D84MIL38IBSL4B9SHUGOLNLRHJT,6,5
31,3,object_04,object_07,802.10000002384,5,1,493.10000002384,0.1111111111111111,1,object_01,1,394,0,1,8,library_8,2,memory-2step-stake-s,521,1048662,0.0-19.0-0.0-0.31,A21OS9KG7JNHR7,3YO4AH2FQG0L0WLRIP03W553LNE0Q1,3L4D84MIL38IBSL4B9SHUGOLNLRHJT,5,6
32,2,object_03,object_05,616.70000004768,4,1,423.29999995232,0.7777777777777778,2,object_02,5,429,0,2,7,forest_7,2,memory-2step-stake-s,522,1057010,0.0-19.0-0.0-0.32,A21OS9KG7JNHR7,3YO4AH2FQG0L0WLRIP03W553LNE0Q1,3L4D84MIL38IBSL4B9SHUGOLNLRHJT,4,3
33,3,object_07,object_04,533.39999997616,6,1,380.39999997616,0.7777777777777778,2,object_02,5,464,0,2,7,library_8,2,memory-2step-stake-s,523,1065309,0.0-19.0-0.0-0.33,A21OS9KG7JNHR7,3YO4AH2FQG0L0WLRIP03W553LNE0Q1,3L4D84MIL38IBSL4B9SHUGOLNLRHJT,6,5
34,3,object_07,object_04,793.29999995232,5,2,400.39999997616,0.4444444444444444,1,object_01,1,468,0,4,6,library_4,2,memory-2step-stake-s,524,1073325,0.0-19.0-0.0-0.34,A21OS9KG7JNHR7,3YO4AH2FQG0L0WLRIP03W553LNE0Q1,3L4D84MIL38IBSL4B9SHUGOLNLRHJT,6,5
35,1,object_10,object_09,921.0,1,1,405.39999997616,0.5555555555555556,1,object_01,1,473,0,5,8,desert_7,2,memory-2step-stake-s,525,1081457,0.0-19.0-0.0-0.35,A21OS9KG7JNHR7,3YO4AH2FQG0L0WLRIP03W553LNE0Q1,3L4D84MIL38IBSL4B9SHUGOLNLRHJT,1,2
36,2,object_05,object_03,562.70000004768,4,2,412.5,0.7777777777777778,2,object_02,5,508,0,2,7,forest_3,2,memory-2step-stake-s,526,1089808,0.0-19.0-0.0-0.36,A21OS9KG7JNHR7,3YO4AH2FQG0L0WLRIP03W553LNE0Q1,3L4D84MIL38IBSL4B9SHUGOLNLRHJT,3,4
37,1,object_10,object_09,813.29999995232,2,2,617.10000002384,0.8888888888888888,2,object_02,5,548,0,2,8,desert_1,2,memory-2step-stake-s,527,1098450,0.0-19.0-0.0-0.37,A21OS9KG7JNHR7,3YO4AH2FQG0L0WLRIP03W553LNE0Q1,3L4D84MIL38IBSL4B9SHUGOLNLRHJT,1,2
38,1,object_09,object_10,482.90000009537,2,1,486.0,1.0,2,object_02,5,593,0,3,9,desert_1,2,memory-2step-stake-s,528,1107060,0.0-19.0-0.0-0.38,A21OS9KG7JNHR7,3YO4AH2FQG0L0WLRIP03W553LNE0Q1,3L4D84MIL38IBSL4B9SHUGOLNLRHJT,2,1
39,1,object_09,object_10,447.60000002384,1,2,360.10000002384,0.1111111111111111,1,object_01,1,594,0,1,7,desert_1,2,memory-2step-stake-s,529,1114741,0.0-19.0-0.0-0.39,A21OS9KG7JNHR7,3YO4AH2FQG0L0WLRIP03W553LNE0Q1,3L4D84MIL38IBSL4B9SHUGOLNLRHJT,2,1
40,2,object_03,object_05,662.0,4,1,388.10000002384,0.6666666666666666,2,object_02,5,624,0,1,6,forest_3,2,memory-2step-stake-s,530,1122960,0.0-19.0-0.0-0.40,A21OS9KG7JNHR7,3YO4AH2FQG0L0WLRIP03W553LNE0Q1,3L4D84MIL38IBSL4B9SHUGOLNLRHJT,4,3
41,3,object_07,object_04,610.5,5,2,483.60000002384,0.4444444444444444,1,object_01,1,628,0,4,5,library_2,2,memory-2step-stake-s,531,1131066,0.0-19.0-0.0-0.41,A21OS9KG7JNHR7,3YO4AH2FQG0L0WLRIP03W553LNE0Q1,3L4D84MIL38IBSL4B9SHUGOLNLRHJT,6,5
42,3,object_07,object_04,687.39999997616,6,1,522.20000004768,0.7777777777777778,2,object_02,5,663,0,3,7,library_4,2,memory-2step-stake-s,532,1139516,0.0-19.0-0.0-0.42,A21OS9KG7JNHR7,3YO4AH2FQG0L0WLRIP03W553LNE0Q1,3L4D84MIL38IBSL4B9SHUGOLNLRHJT,6,5
43,1,object_10,object_09,917.29999995232,2,2,468.90000009537,0.4444444444444444,2,object_02,5,683,0,0,4,desert_6,2,memory-2step-stake-s,533,1147599,0.0-19.0-0.0-0.43,A21OS9KG7JNHR7,3YO4AH2FQG0L0WLRIP03W553LNE0Q1,3L4D84MIL38IBSL4B9SHUGOLNLRHJT,1,2
44,2,object_05,object_03,550.89999997616,3,1,408.70000004768,0.1111111111111111,1,object_01,5,688,0,1,8,forest_2,2,memory-2step-stake-s,534,1155322,0.0-19.0-0.0-0.44,A21OS9KG7JNHR7,3YO4AH2FQG0L0WLRIP03W553LNE0Q1,3L4D84MIL38IBSL4B9SHUGOLNLRHJT,3,4
45,2,object_03,object_05,963.89999997616,4,1,437.80000007153,1.0,2,object_02,1,697,0,0,9,forest_3,2,memory-2step-stake-s,535,1163899,0.0-19.0-0.0-0.45,A21OS9KG7JNHR7,3YO4AH2FQG0L0WLRIP03W553LNE0Q1,3L4D84MIL38IBSL4B9SHUGOLNLRHJT,4,3
46,3,object_07,object_04,710.0,6,1,371.60000002384,0.6666666666666666,2,object_02,1,703,0,1,6,library_4,2,memory-2step-stake-s,536,1172095,0.0-19.0-0.0-0.46,A21OS9KG7JNHR7,3YO4AH2FQG0L0WLRIP03W553LNE0Q1,3L4D84MIL38IBSL4B9SHUGOLNLRHJT,6,5
47,1,object_09,object_10,722.19999992847,2,1,423.39999997616,0.8888888888888888,2,object_02,5,743,0,3,8,desert_4,2,memory-2step-stake-s,537,1180558,0.0-19.0-0.0-0.47,A21OS9KG7JNHR7,3YO4AH2FQG0L0WLRIP03W553LNE0Q1,3L4D84MIL38IBSL4B9SHUGOLNLRHJT,2,1
48,1,object_10,object_09,578.5,1,1,456.80000007153,0.3333333333333333,1,object_01,1,746,0,3,8,desert_1,2,memory-2step-stake-s,538,1188530,0.0-19.0-0.0-0.48,A21OS9KG7JNHR7,3YO4AH2FQG0L0WLRIP03W553LNE0Q1,3L4D84MIL38IBSL4B9SHUGOLNLRHJT,1,2
49,3,object_04,object_07,641.70000004768,5,1,402.39999997616,0.5555555555555556,1,object_01,1,751,0,5,7,library_4,2,memory-2step-stake-s,539,1196661,0.0-19.0-0.0-0.49,A21OS9KG7JNHR7,3YO4AH2FQG0L0WLRIP03W553LNE0Q1,3L4D84MIL38IBSL4B9SHUGOLNLRHJT,5,6
50,4,object_06,object_08,815.20000004768,7,1,502.5,0.4444444444444444,1,object_01,1,755,0,4,8,restaurant_6,2,memory-2step-stake-s,540,1204785,0.0-19.0-0.0-0.50,A21OS9KG7JNHR7,3YO4AH2FQG0L0WLRIP03W553LNE0Q1,3L4D84MIL38IBSL4B9SHUGOLNLRHJT,7,8
51,3,object_07,object_04,860.30000007153,6,1,418.0,0.5555555555555556,2,object_02,1,760,0,3,5,library_8,2,memory-2step-stake-s,541,1212934,0.0-19.0-0.0-0.51,A21OS9KG7JNHR7,3YO4AH2FQG0L0WLRIP03W553LNE0Q1,3L4D84MIL38IBSL4B9SHUGOLNLRHJT,6,5
52,2,object_03,object_05,486.70000004768,4,1,426.39999997616,0.3333333333333333,2,object_02,5,775,0,2,3,forest_5,2,memory-2step-stake-s,542,1220879,0.0-19.0-0.0-0.52,A21OS9KG7JNHR7,3YO4AH2FQG0L0WLRIP03W553LNE0Q1,3L4D84MIL38IBSL4B9SHUGOLNLRHJT,4,3
53,4,object_06,object_08,884.89999997616,8,2,410.89999997616,0.3333333333333333,2,object_02,1,778,0,0,3,restaurant_6,2,memory-2step-stake-s,543,1228808,0.0-19.0-0.0-0.53,A21OS9KG7JNHR7,3YO4AH2FQG0L0WLRIP03W553LNE0Q1,3L4D84MIL38IBSL4B9SHUGOLNLRHJT,7,8
54,4,object_08,object_06,885.10000002384,7,2,314.5,0.0,1,object_01,1,778,0,0,4,restaurant_4,2,memory-2step-stake-s,544,1236339,0.0-19.0-0.0-0.54,A21OS9KG7JNHR7,3YO4AH2FQG0L0WLRIP03W553LNE0Q1,3L4D84MIL38IBSL4B9SHUGOLNLRHJT,8,7
55,1,object_10,object_09,776.80000007153,1,1,598.10000002384,0.2222222222222222,1,object_01,1,780,0,2,6,desert_6,2,memory-2step-stake-s,545,1244359,0.0-19.0-0.0-0.55,A21OS9KG7JNHR7,3YO4AH2FQG0L0WLRIP03W553LNE0Q1,3L4D84MIL38IBSL4B9SHUGOLNLRHJT,1,2
56,3,object_04,object_07,813.0,6,2,510.80000007153,0.6666666666666666,2,object_02,1,786,0,5,6,library_4,2,memory-2step-stake-s,546,1252697,0.0-19.0-0.0-0.56,A21OS9KG7JNHR7,3YO4AH2FQG0L0WLRIP03W553LNE0Q1,3L4D84MIL38IBSL4B9SHUGOLNLRHJT,5,6
57,1,object_10,object_09,741.19999992847,2,2,424.60000002384,0.6666666666666666,2,object_02,5,816,0,6,6,desert_7,2,memory-2step-stake-s,547,1260959,0.0-19.0-0.0-0.57,A21OS9KG7JNHR7,3YO4AH2FQG0L0WLRIP03W553LNE0Q1,3L4D84MIL38IBSL4B9SHUGOLNLRHJT,1,2
58,4,object_06,object_08,865.20000004768,7,1,598.5,0.7777777777777778,1,object_01,1,823,0,7,6,restaurant_2,2,memory-2step-stake-s,548,1269485,0.0-19.0-0.0-0.58,A21OS9KG7JNHR7,3YO4AH2FQG0L0WLRIP03W553LNE0Q1,3L4D84MIL38IBSL4B9SHUGOLNLRHJT,7,8
59,3,object_07,object_04,715.20000004768,6,1,391.5,0.8888888888888888,2,object_02,1,831,0,9,8,library_2,2,memory-2step-stake-s,549,1277920,0.0-19.0-0.0-0.59,A21OS9KG7JNHR7,3YO4AH2FQG0L0WLRIP03W553LNE0Q1,3L4D84MIL38IBSL4B9SHUGOLNLRHJT,6,5
60,2,object_05,object_03,663.20000004768,4,2,401.5,0.7777777777777778,2,object_02,5,866,0,7,7,forest_2,2,memory-2step-stake-s,550,1286249,0.0-19.0-0.0-0.60,A21OS9KG7JNHR7,3YO4AH2FQG0L0WLRIP03W553LNE0Q1,3L4D84MIL38IBSL4B9SHUGOLNLRHJT,3,4
61,4,object_08,object_06,831.0,8,1,484.0,0.6666666666666666,2,object_02,1,872,0,6,6,restaurant_2,2,memory-2step-stake-s,551,1294561,0.0-19.0-0.0-0.61,A21OS9KG7JNHR7,3YO4AH2FQG0L0WLRIP03W553LNE0Q1,3L4D84MIL38IBSL4B9SHUGOLNLRHJT,8,7
62,4,object_06,object_08,845.70000004768,8,2,495.0,0.4444444444444444,2,object_02,1,876,0,6,4,restaurant_2,2,memory-2step-stake-s,552,1302683,0.0-19.0-0.0-0.62,A21OS9KG7JNHR7,3YO4AH2FQG0L0WLRIP03W553LNE0Q1,3L4D84MIL38IBSL4B9SHUGOLNLRHJT,7,8
63,2,object_03,object_05,574.89999997616,4,1,402.19999992847,0.5555555555555556,2,object_02,1,881,0,7,5,forest_7,2,memory-2step-stake-s,553,1310809,0.0-19.0-0.0-0.63,A21OS9KG7JNHR7,3YO4AH2FQG0L0WLRIP03W553LNE0Q1,3L4D84MIL38IBSL4B9SHUGOLNLRHJT,4,3
64,1,object_10,object_09,572.69999992847,1,1,408.79999995232,1.0,1,object_01,5,926,0,9,6,desert_1,2,memory-2step-stake-s,554,1319347,0.0-19.0-0.0-0.64,A21OS9KG7JNHR7,3YO4AH2FQG0L0WLRIP03W553LNE0Q1,3L4D84MIL38IBSL4B9SHUGOLNLRHJT,1,2
65,1,object_10,object_09,659.0,1,1,360.10000002384,0.7777777777777778,1,object_01,5,961,0,7,5,desert_6,2,memory-2step-stake-s,555,1327638,0.0-19.0-0.0-0.65,A21OS9KG7JNHR7,3YO4AH2FQG0L0WLRIP03W553LNE0Q1,3L4D84MIL38IBSL4B9SHUGOLNLRHJT,1,2
66,2,object_03,object_05,659.39999997616,3,2,383.40000009537,0.8888888888888888,1,object_01,5,1001,0,8,5,forest_7,2,memory-2step-stake-s,556,1336054,0.0-19.0-0.0-0.66,A21OS9KG7JNHR7,3YO4AH2FQG0L0WLRIP03W553LNE0Q1,3L4D84MIL38IBSL4B9SHUGOLNLRHJT,4,3
67,3,object_04,object_07,786.80000007153,6,2,360.5,0.5555555555555556,2,object_02,1,1006,0,8,5,library_2,2,memory-2step-stake-s,557,1344138,0.0-19.0-0.0-0.67,A21OS9KG7JNHR7,3YO4AH2FQG0L0WLRIP03W553LNE0Q1,3L4D84MIL38IBSL4B9SHUGOLNLRHJT,5,6
68,3,object_04,object_07,607.79999995232,6,2,426.89999997616,0.8888888888888888,2,object_02,1,1014,0,9,8,library_2,2,memory-2step-stake-s,558,1352584,0.0-19.0-0.0-0.68,A21OS9KG7JNHR7,3YO4AH2FQG0L0WLRIP03W553LNE0Q1,3L4D84MIL38IBSL4B9SHUGOLNLRHJT,5,6
69,1,object_10,object_09,657.19999992847,1,1,400.5,0.8888888888888888,1,object_01,1,1022,0,8,9,desert_6,2,memory-2step-stake-s,559,1361008,0.0-19.0-0.0-0.69,A21OS9KG7JNHR7,3YO4AH2FQG0L0WLRIP03W553LNE0Q1,3L4D84MIL38IBSL4B9SHUGOLNLRHJT,1,2
70,3,object_04,object_07,655.0,5,1,405.80000007153,1.0,1,object_01,1,1031,0,9,8,library_8,2,memory-2step-stake-s,560,1369538,0.0-19.0-0.0-0.70,A21OS9KG7JNHR7,3YO4AH2FQG0L0WLRIP03W553LNE0Q1,3L4D84MIL38IBSL4B9SHUGOLNLRHJT,5,6
71,4,object_08,object_06,712.0,8,1,463.10000002384,0.7777777777777778,2,object_02,1,1038,0,8,7,restaurant_6,2,memory-2step-stake-s,561,1377924,0.0-19.0-0.0-0.71,A21OS9KG7JNHR7,3YO4AH2FQG0L0WLRIP03W553LNE0Q1,3L4D84MIL38IBSL4B9SHUGOLNLRHJT,8,7
72,2,object_05,object_03,725.09999990463,3,1,360.60000002384,0.7777777777777778,1,object_01,5,1073,0,7,6,forest_7,2,memory-2step-stake-s,562,1386214,0.0-19.0-0.0-0.72,A21OS9KG7JNHR7,3YO4AH2FQG0L0WLRIP03W553LNE0Q1,3L4D84MIL38IBSL4B9SHUGOLNLRHJT,3,4
73,2,object_03,object_05,598.89999997616,4,1,379.30000007153,0.6666666666666666,2,object_02,5,1103,0,5,6,forest_7,2,memory-2step-stake-s,563,1394419,0.0-19.0-0.0-0.73,A21OS9KG7JNHR7,3YO4AH2FQG0L0WLRIP03W553LNE0Q1,3L4D84MIL38IBSL4B9SHUGOLNLRHJT,4,3
74,1,object_09,object_10,763.30000007153,1,2,510.5,0.6666666666666666,1,object_01,5,1133,0,6,5,desert_7,2,memory-2step-stake-s,564,1402752,0.0-19.0-0.0-0.74,A21OS9KG7JNHR7,3YO4AH2FQG0L0WLRIP03W553LNE0Q1,3L4D84MIL38IBSL4B9SHUGOLNLRHJT,2,1
75,2,object_05,object_03,576.10000002384,4,2,435.5,0.6666666666666666,2,object_02,5,1163,0,3,6,forest_2,2,memory-2step-stake-s,565,1411008,0.0-19.0-0.0-0.75,A21OS9KG7JNHR7,3YO4AH2FQG0L0WLRIP03W553LNE0Q1,3L4D84MIL38IBSL4B9SHUGOLNLRHJT,3,4
76,4,object_06,object_08,746.39999997616,7,1,360.40000009537,0.3333333333333333,1,object_01,1,1166,0,3,4,restaurant_4,2,memory-2step-stake-s,566,1418885,0.0-19.0-0.0-0.76,A21OS9KG7JNHR7,3YO4AH2FQG0L0WLRIP03W553LNE0Q1,3L4D84MIL38IBSL4B9SHUGOLNLRHJT,7,8
77,1,object_09,object_10,725.0,2,1,370.19999992847,0.4444444444444444,2,object_02,5,1186,0,3,4,desert_1,2,memory-2step-stake-s,567,1426876,0.0-19.0-0.0-0.77,A21OS9KG7JNHR7,3YO4AH2FQG0L0WLRIP03W553LNE0Q1,3L4D84MIL38IBSL4B9SHUGOLNLRHJT,2,1
78,1,object_10,object_09,695.19999992847,1,1,436.59999990463,0.2222222222222222,1,object_01,5,1196,0,2,2,desert_7,2,memory-2step-stake-s,568,1434733,0.0-19.0-0.0-0.78,A21OS9KG7JNHR7,3YO4AH2FQG0L0WLRIP03W553LNE0Q1,3L4D84MIL38IBSL4B9SHUGOLNLRHJT,1,2
79,3,object_07,object_04,885.19999992847,5,2,531.70000004768,0.2222222222222222,1,object_01,1,1198,0,2,4,library_6,2,memory-2step-stake-s,569,1442683,0.0-19.0-0.0-0.79,A21OS9KG7JNHR7,3YO4AH2FQG0L0WLRIP03W553LNE0Q1,3L4D84MIL38IBSL4B9SHUGOLNLRHJT,6,5
80,3,object_04,object_07,722.60000002384,5,1,472.80000007153,0.0,1,object_01,1,1198,0,0,0,library_2,2,memory-2step-stake-s,570,1450370,0.0-19.0-0.0-0.80,A21OS9KG7JNHR7,3YO4AH2FQG0L0WLRIP03W553LNE0Q1,3L4D84MIL38IBSL4B9SHUGOLNLRHJT,5,6
81,2,object_03,object_05,664.10000002384,4,1,438.0,0.1111111111111111,2,object_02,5,1203,0,1,1,forest_2,2,memory-2step-stake-s,571,1458124,0.0-19.0-0.0-0.81,A21OS9KG7JNHR7,3YO4AH2FQG0L0WLRIP03W553LNE0Q1,3L4D84MIL38IBSL4B9SHUGOLNLRHJT,4,3
82,3,object_07,object_04,681.69999992847,5,2,410.89999997616,0.0,1,object_01,1,1203,0,0,1,library_6,2,memory-2step-stake-s,572,1465749,0.0-19.0-0.0-0.82,A21OS9KG7JNHR7,3YO4AH2FQG0L0WLRIP03W553LNE0Q1,3L4D84MIL38IBSL4B9SHUGOLNLRHJT,6,5
83,3,object_04,object_07,1345.0,5,1,631.89999997616,0.0,1,object_01,1,1203,0,0,2,library_6,2,memory-2step-stake-s,573,1473595,0.0-19.0-0.0-0.83,A21OS9KG7JNHR7,3YO4AH2FQG0L0WLRIP03W553LNE0Q1,3L4D84MIL38IBSL4B9SHUGOLNLRHJT,5,6
84,4,object_06,object_08,690.30000007153,8,2,453.60000002384,0.3333333333333333,2,object_02,1,1206,0,1,3,restaurant_2,2,memory-2step-stake-s,574,1481566,0.0-19.0-0.0-0.84,A21OS9KG7JNHR7,3YO4AH2FQG0L0WLRIP03W553LNE0Q1,3L4D84MIL38IBSL4B9SHUGOLNLRHJT,7,8
85,4,object_06,object_08,677.79999995232,8,2,439.79999995232,0.2222222222222222,2,object_02,5,1216,0,1,2,restaurant_6,2,memory-2step-stake-s,575,1489427,0.0-19.0-0.0-0.85,A21OS9KG7JNHR7,3YO4AH2FQG0L0WLRIP03W553LNE0Q1,3L4D84MIL38IBSL4B9SHUGOLNLRHJT,7,8
86,3,object_04,object_07,1038.3999999762,6,2,440.79999995232,0.6666666666666666,2,object_02,5,1246,0,1,6,library_4,2,memory-2step-stake-s,576,1497695,0.0-19.0-0.0-0.86,A21OS9KG7JNHR7,3YO4AH2FQG0L0WLRIP03W553LNE0Q1,3L4D84MIL38IBSL4B9SHUGOLNLRHJT,5,6
87,3,object_04,object_07,622.80000007153,5,1,467.39999997616,0.2222222222222222,1,object_01,1,1248,0,2,7,library_6,2,memory-2step-stake-s,577,1505583,0.0-19.0-0.0-0.87,A21OS9KG7JNHR7,3YO4AH2FQG0L0WLRIP03W553LNE0Q1,3L4D84MIL38IBSL4B9SHUGOLNLRHJT,5,6
88,1,object_10,object_09,472.39999997616,2,2,342.60000002384,0.8888888888888888,2,object_02,5,1288,0,6,8,desert_1,2,memory-2step-stake-s,578,1513951,0.0-19.0-0.0-0.88,A21OS9KG7JNHR7,3YO4AH2FQG0L0WLRIP03W553LNE0Q1,3L4D84MIL38IBSL4B9SHUGOLNLRHJT,1,2
89,4,object_08,object_06,751.09999990463,7,2,506.79999995232,0.6666666666666666,1,object_01,1,1294,0,6,9,restaurant_4,2,memory-2step-stake-s,579,1522283,0.0-19.0-0.0-0.89,A21OS9KG7JNHR7,3YO4AH2FQG0L0WLRIP03W553LNE0Q1,3L4D84MIL38IBSL4B9SHUGOLNLRHJT,8,7
90,3,object_07,object_04,971.20000004768,5,2,349.59999990463,0.5555555555555556,1,object_01,1,1299,0,5,8,library_6,2,memory-2step-stake-s,580,1530356,0.0-19.0-0.0-0.90,A21OS9KG7JNHR7,3YO4AH2FQG0L0WLRIP03W553LNE0Q1,3L4D84MIL38IBSL4B9SHUGOLNLRHJT,6,5
91,1,object_10,object_09,472.10000002384,2,2,491.5,0.6666666666666666,2,object_02,5,1329,0,5,6,desert_1,2,memory-2step-stake-s,581,1538670,0.0-19.0-0.0-0.91,A21OS9KG7JNHR7,3YO4AH2FQG0L0WLRIP03W553LNE0Q1,3L4D84MIL38IBSL4B9SHUGOLNLRHJT,1,2
92,3,object_07,object_04,829.10000002384,5,2,396.0,0.8888888888888888,1,object_01,1,1337,0,8,2,library_2,2,memory-2step-stake-s,582,1547095,0.0-19.0-0.0-0.92,A21OS9KG7JNHR7,3YO4AH2FQG0L0WLRIP03W553LNE0Q1,3L4D84MIL38IBSL4B9SHUGOLNLRHJT,6,5
93,4,object_08,object_06,892.80000007153,7,2,411.79999995232,0.7777777777777778,1,object_01,5,1372,0,7,5,restaurant_6,2,memory-2step-stake-s,583,1555441,0.0-19.0-0.0-0.93,A21OS9KG7JNHR7,3YO4AH2FQG0L0WLRIP03W553LNE0Q1,3L4D84MIL38IBSL4B9SHUGOLNLRHJT,8,7
94,4,object_06,object_08,1036.9000000954,8,2,385.39999997616,0.5555555555555556,2,object_02,1,1377,0,7,5,restaurant_5,2,memory-2step-stake-s,584,1563550,0.0-19.0-0.0-0.94,A21OS9KG7JNHR7,3YO4AH2FQG0L0WLRIP03W553LNE0Q1,3L4D84MIL38IBSL4B9SHUGOLNLRHJT,7,8
95,1,object_09,object_10,797.60000002384,1,2,561.20000004768,0.6666666666666666,1,object_01,5,1407,0,6,5,desert_4,2,memory-2step-stake-s,585,1571936,0.0-19.0-0.0-0.95,A21OS9KG7JNHR7,3YO4AH2FQG0L0WLRIP03W553LNE0Q1,3L4D84MIL38IBSL4B9SHUGOLNLRHJT,2,1
96,1,object_09,object_10,568.10000002384,2,1,347.29999995232,0.4444444444444444,2,object_02,1,1411,0,5,4,desert_6,2,memory-2step-stake-s,586,1579909,0.0-19.0-0.0-0.96,A21OS9KG7JNHR7,3YO4AH2FQG0L0WLRIP03W553LNE0Q1,3L4D84MIL38IBSL4B9SHUGOLNLRHJT,2,1
97,4,object_06,object_08,667.19999992847,8,2,419.0,0.3333333333333333,2,object_02,1,1414,0,5,3,restaurant_4,2,memory-2step-stake-s,587,1587852,0.0-19.0-0.0-0.97,A21OS9KG7JNHR7,3YO4AH2FQG0L0WLRIP03W553LNE0Q1,3L4D84MIL38IBSL4B9SHUGOLNLRHJT,7,8
98,1,object_09,object_10,594.89999997616,1,2,404.19999992847,0.8888888888888888,1,object_01,5,1454,0,8,5,desert_4,2,memory-2step-stake-s,588,1596293,0.0-19.0-0.0-0.98,A21OS9KG7JNHR7,3YO4AH2FQG0L0WLRIP03W553LNE0Q1,3L4D84MIL38IBSL4B9SHUGOLNLRHJT,2,1
99,1,object_10,object_09,880.60000002384,2,2,368.5,0.3333333333333333,2,object_02,1,1457,0,9,3,desert_1,2,memory-2step-stake-s,589,1604201,0.0-19.0-0.0-0.99,A21OS9KG7JNHR7,3YO4AH2FQG0L0WLRIP03W553LNE0Q1,3L4D84MIL38IBSL4B9SHUGOLNLRHJT,1,2
100,1,object_10,object_09,875.10000002384,1,1,461.89999997616,1.0,1,object_01,5,1502,0,9,1,desert_6,2,memory-2step-stake-s,590,1612795,0.0-19.0-0.0-0.100,A21OS9KG7JNHR7,3YO4AH2FQG0L0WLRIP03W553LNE0Q1,3L4D84MIL38IBSL4B9SHUGOLNLRHJT,1,2
101,1,object_10,object_09,563.0,1,1,428.29999995232,0.5555555555555556,1,object_01,5,1527,0,5,3,desert_7,2,memory-2step-stake-s,591,1620954,0.0-19.0-0.0-0.101,A21OS9KG7JNHR7,3YO4AH2FQG0L0WLRIP03W553LNE0Q1,3L4D84MIL38IBSL4B9SHUGOLNLRHJT,1,2
102,2,object_03,object_05,473.5,4,1,358.79999995232,0.2222222222222222,2,object_02,5,1537,0,8,2,forest_5,2,memory-2step-stake-s,592,1628734,0.0-19.0-0.0-0.102,A21OS9KG7JNHR7,3YO4AH2FQG0L0WLRIP03W553LNE0Q1,3L4D84MIL38IBSL4B9SHUGOLNLRHJT,4,3
103,4,object_08,object_06,976.80000007153,7,2,365.70000004768,0.8888888888888888,1,object_01,1,1545,0,8,4,restaurant_6,2,memory-2step-stake-s,593,1637130,0.0-19.0-0.0-0.103,A21OS9KG7JNHR7,3YO4AH2FQG0L0WLRIP03W553LNE0Q1,3L4D84MIL38IBSL4B9SHUGOLNLRHJT,8,7
104,2,object_05,object_03,494.10000002384,4,2,384.80000007153,0.2222222222222222,2,object_02,1,1547,0,8,2,forest_7,2,memory-2step-stake-s,594,1644935,0.0-19.0-0.0-0.104,A21OS9KG7JNHR7,3YO4AH2FQG0L0WLRIP03W553LNE0Q1,3L4D84MIL38IBSL4B9SHUGOLNLRHJT,3,4
105,3,object_04,object_07,856.10000002384,5,1,536.80000007153,0.5555555555555556,1,object_01,1,1552,0,5,4,library_2,2,memory-2step-stake-s,595,1653198,0.0-19.0-0.0-0.105,A21OS9KG7JNHR7,3YO4AH2FQG0L0WLRIP03W553LNE0Q1,3L4D84MIL38IBSL4B9SHUGOLNLRHJT,5,6
106,2,object_05,object_03,1051.6000000238,3,1,388.80000007153,0.5555555555555556,1,object_01,5,1577,0,5,2,forest_7,2,memory-2step-stake-s,596,1661313,0.0-19.0-0.0-0.106,A21OS9KG7JNHR7,3YO4AH2FQG0L0WLRIP03W553LNE0Q1,3L4D84MIL38IBSL4B9SHUGOLNLRHJT,3,4
107,1,object_10,object_09,665.29999995232,2,2,326.10000002384,0.2222222222222222,2,object_02,5,1587,0,5,2,desert_7,2,memory-2step-stake-s,597,1669050,0.0-19.0-0.0-0.107,A21OS9KG7JNHR7,3YO4AH2FQG0L0WLRIP03W553LNE0Q1,3L4D84MIL38IBSL4B9SHUGOLNLRHJT,1,2
108,3,object_04,object_07,879.29999995232,5,1,409.39999997616,0.7777777777777778,1,object_01,5,1622,0,7,1,library_4,2,memory-2step-stake-s,598,1677400,0.0-19.0-0.0-0.108,A21OS9KG7JNHR7,3YO4AH2FQG0L0WLRIP03W553LNE0Q1,3L4D84MIL38IBSL4B9SHUGOLNLRHJT,5,6
109,2,object_03,object_05,566.69999992847,3,2,429.70000004768,0.5555555555555556,1,object_01,5,1647,0,5,2,forest_3,2,memory-2step-stake-s,599,1685556,0.0-19.0-0.0-0.109,A21OS9KG7JNHR7,3YO4AH2FQG0L0WLRIP03W553LNE0Q1,3L4D84MIL38IBSL4B9SHUGOLNLRHJT,4,3
110,4,object_06,object_08,670.89999997616,8,2,387.60000002384,0.5555555555555556,2,object_02,1,1652,0,7,5,restaurant_2,2,memory-2step-stake-s,600,1693661,0.0-19.0-0.0-0.110,A21OS9KG7JNHR7,3YO4AH2FQG0L0WLRIP03W553LNE0Q1,3L4D84MIL38IBSL4B9SHUGOLNLRHJT,7,8
111,4,object_06,object_08,608.89999997616,8,2,353.0,0.5555555555555556,2,object_02,5,1677,0,8,5,restaurant_6,2,memory-2step-stake-s,601,1701730,0.0-19.0-0.0-0.111,A21OS9KG7JNHR7,3YO4AH2FQG0L0WLRIP03W553LNE0Q1,3L4D84MIL38IBSL4B9SHUGOLNLRHJT,7,8
112,4,object_08,object_06,880.5,7,2,579.79999995232,0.8888888888888888,1,object_01,1,1685,0,8,6,restaurant_2,2,memory-2step-stake-s,602,1710331,0.0-19.0-0.0-0.112,A21OS9KG7JNHR7,3YO4AH2FQG0L0WLRIP03W553LNE0Q1,3L4D84MIL38IBSL4B9SHUGOLNLRHJT,8,7
113,1,object_10,object_09,511.60000002384,2,2,383.29999995232,0.5555555555555556,2,object_02,1,1690,0,8,5,desert_6,2,memory-2step-stake-s,603,1718446,0.0-19.0-0.0-0.113,A21OS9KG7JNHR7,3YO4AH2FQG0L0WLRIP03W553LNE0Q1,3L4D84MIL38IBSL4B9SHUGOLNLRHJT,1,2
114,3,object_07,object_04,813.20000004768,6,1,398.79999995232,0.5555555555555556,2,object_02,1,1695,0,8,5,library_8,2,memory-2step-stake-s,604,1726564,0.0-19.0-0.0-0.114,A21OS9KG7JNHR7,3YO4AH2FQG0L0WLRIP03W553LNE0Q1,3L4D84MIL38IBSL4B9SHUGOLNLRHJT,6,5
115,1,object_10,object_09,532.89999997616,1,1,314.29999995232,0.7777777777777778,1,object_01,5,1730,0,7,5,desert_1,2,memory-2step-stake-s,605,1734801,0.0-19.0-0.0-0.115,A21OS9KG7JNHR7,3YO4AH2FQG0L0WLRIP03W553LNE0Q1,3L4D84MIL38IBSL4B9SHUGOLNLRHJT,1,2
116,1,object_10,object_09,624.70000004768,1,1,423.0,0.6666666666666666,1,object_01,5,1760,0,6,6,desert_4,2,memory-2step-stake-s,606,1743055,0.0-19.0-0.0-0.116,A21OS9KG7JNHR7,3YO4AH2FQG0L0WLRIP03W553LNE0Q1,3L4D84MIL38IBSL4B9SHUGOLNLRHJT,1,2
117,2,object_03,object_05,449.5,3,2,452.70000004768,0.3333333333333333,1,object_01,5,1775,0,3,4,forest_3,2,memory-2step-stake-s,607,1751037,0.0-19.0-0.0-0.117,A21OS9KG7JNHR7,3YO4AH2FQG0L0WLRIP03W553LNE0Q1,3L4D84MIL38IBSL4B9SHUGOLNLRHJT,4,3
118,2,object_03,object_05,459.5,4,1,374.39999997616,0.2222222222222222,2,object_02,5,1785,0,3,2,forest_3,2,memory-2step-stake-s,608,1758829,0.0-19.0-0.0-0.118,A21OS9KG7JNHR7,3YO4AH2FQG0L0WLRIP03W553LNE0Q1,3L4D84MIL38IBSL4B9SHUGOLNLRHJT,4,3
119,4,object_08,object_06,680.0,7,2,364.80000007153,0.4444444444444444,1,object_01,5,1805,0,4,2,restaurant_5,2,memory-2step-stake-s,609,1766816,0.0-19.0-0.0-0.119,A21OS9KG7JNHR7,3YO4AH2FQG0L0WLRIP03W553LNE0Q1,3L4D84MIL38IBSL4B9SHUGOLNLRHJT,8,7
120,1,object_10,object_09,440.10000002384,2,2,352.60000002384,0.2222222222222222,2,object_02,1,1807,0,4,2,desert_7,2,memory-2step-stake-s,610,1774592,0.0-19.0-0.0-0.120,A21OS9KG7JNHR7,3YO4AH2FQG0L0WLRIP03W553LNE0Q1,3L4D84MIL38IBSL4B9SHUGOLNLRHJT,1,2
121,4,object_06,object_08,624.39999997616,8,2,358.5,0.2222222222222222,2,object_02,1,1809,0,4,2,restaurant_6,2,memory-2step-stake-s,611,1782370,0.0-19.0-0.0-0.121,A21OS9KG7JNHR7,3YO4AH2FQG0L0WLRIP03W553LNE0Q1,3L4D84MIL38IBSL4B9SHUGOLNLRHJT,7,8
122,4,object_08,object_06,602.39999997616,8,1,402.59999990463,0.1111111111111111,2,object_02,1,1810,0,4,1,restaurant_2,2,memory-2step-stake-s,612,1790088,0.0-19.0-0.0-0.122,A21OS9KG7JNHR7,3YO4AH2FQG0L0WLRIP03W553LNE0Q1,3L4D84MIL38IBSL4B9SHUGOLNLRHJT,8,7
123,2,object_05,object_03,997.5,3,1,389.19999992847,0.5555555555555556,1,object_01,5,1835,0,5,1,forest_3,2,memory-2step-stake-s,613,1798204,0.0-19.0-0.0-0.123,A21OS9KG7JNHR7,3YO4AH2FQG0L0WLRIP03W553LNE0Q1,3L4D84MIL38IBSL4B9SHUGOLNLRHJT,3,4
124,1,object_09,object_10,717.5,1,2,468.69999992847,0.7777777777777778,1,object_01,5,1870,0,7,0,desert_6,2,memory-2step-stake-s,614,1806595,0.0-19.0-0.0-0.124,A21OS9KG7JNHR7,3YO4AH2FQG0L0WLRIP03W553LNE0Q1,3L4D84MIL38IBSL4B9SHUGOLNLRHJT,2,1
125,2,object_03,object_05,659.0,3,2,585.39999997616,0.8888888888888888,1,object_01,5,1910,0,8,1,forest_3,2,memory-2step-stake-s,615,1815205,0.0-19.0-0.0-0.125,A21OS9KG7JNHR7,3YO4AH2FQG0L0WLRIP03W553LNE0Q1,3L4D84MIL38IBSL4B9SHUGOLNLRHJT,4,3
126,2,object_03,object_05,660.59999990463,3,2,444.89999997616,1.0,1,object_01,5,1955,0,9,1,forest_5,2,memory-2step-stake-s,616,1823778,0.0-19.0-0.0-0.126,A21OS9KG7JNHR7,3YO4AH2FQG0L0WLRIP03W553LNE0Q1,3L4D84MIL38IBSL4B9SHUGOLNLRHJT,4,3
127,2,object_05,object_03,486.70000004768,4,2,354.39999997616,0.0,2,object_02,1,1955,0,8,0,forest_5,2,memory-2step-stake-s,617,1831347,0.0-19.0-0.0-0.127,A21OS9KG7JNHR7,3YO4AH2FQG0L0WLRIP03W553LNE0Q1,3L4D84MIL38IBSL4B9SHUGOLNLRHJT,3,4
128,1,object_09,object_10,719.10000002384,2,1,457.29999995232,0.3333333333333333,2,object_02,1,1958,0,8,3,desert_6,2,memory-2step-stake-s,619,1897145,0.0-19.0-0.1-0.128,A21OS9KG7JNHR7,3YO4AH2FQG0L0WLRIP03W553LNE0Q1,3L4D84MIL38IBSL4B9SHUGOLNLRHJT,2,1
129,3,object_07,object_04,847.20000004768,5,2,468.69999992847,1.0,1,object_01,1,1967,0,9,4,library_2,2,memory-2step-stake-s,620,1905743,0.0-19.0-0.1-0.129,A21OS9KG7JNHR7,3YO4AH2FQG0L0WLRIP03W553LNE0Q1,3L4D84MIL38IBSL4B9SHUGOLNLRHJT,6,5
130,1,object_10,object_09,403.29999995232,1,1,501.19999992847,0.8888888888888888,1,object_01,5,2007,0,8,0,desert_4,2,memory-2step-stake-s,621,1914268,0.0-19.0-0.1-0.130,A21OS9KG7JNHR7,3YO4AH2FQG0L0WLRIP03W553LNE0Q1,3L4D84MIL38IBSL4B9SHUGOLNLRHJT,1,2
131,3,object_07,object_04,1318.8999999762,6,1,473.90000009537,0.3333333333333333,2,object_02,1,2010,0,5,3,library_8,2,memory-2step-stake-s,622,1922270,0.0-19.0-0.1-0.131,A21OS9KG7JNHR7,3YO4AH2FQG0L0WLRIP03W553LNE0Q1,3L4D84MIL38IBSL4B9SHUGOLNLRHJT,6,5
132,1,object_10,object_09,418.20000004768,1,1,277.30000007153,0.5555555555555556,1,object_01,5,2035,0,5,3,desert_4,2,memory-2step-stake-s,623,1930272,0.0-19.0-0.1-0.132,A21OS9KG7JNHR7,3YO4AH2FQG0L0WLRIP03W553LNE0Q1,3L4D84MIL38IBSL4B9SHUGOLNLRHJT,1,2
133,4,object_06,object_08,611.79999995232,8,2,365.70000004768,0.3333333333333333,2,object_02,1,2038,0,5,3,restaurant_4,2,memory-2step-stake-s,624,1938158,0.0-19.0-0.1-0.133,A21OS9KG7JNHR7,3YO4AH2FQG0L0WLRIP03W553LNE0Q1,3L4D84MIL38IBSL4B9SHUGOLNLRHJT,7,8
134,4,object_08,object_06,771.5,7,2,371.80000007153,0.6666666666666666,1,object_01,1,2044,0,6,1,restaurant_2,2,memory-2step-stake-s,625,1946365,0.0-19.0-0.1-0.134,A21OS9KG7JNHR7,3YO4AH2FQG0L0WLRIP03W553LNE0Q1,3L4D84MIL38IBSL4B9SHUGOLNLRHJT,8,7
135,1,object_09,object_10,744.90000009537,2,1,442.89999997616,0.2222222222222222,2,object_02,5,2054,0,2,2,desert_7,2,memory-2step-stake-s,626,1954230,0.0-19.0-0.1-0.135,A21OS9KG7JNHR7,3YO4AH2FQG0L0WLRIP03W553LNE0Q1,3L4D84MIL38IBSL4B9SHUGOLNLRHJT,2,1
136,4,object_06,object_08,477.0,8,2,339.29999995232,0.4444444444444444,2,object_02,1,2058,0,2,4,restaurant_4,2,memory-2step-stake-s,627,1962191,0.0-19.0-0.1-0.136,A21OS9KG7JNHR7,3YO4AH2FQG0L0WLRIP03W553LNE0Q1,3L4D84MIL38IBSL4B9SHUGOLNLRHJT,7,8
137,1,object_10,object_09,548.80000007153,1,1,329.29999995232,0.4444444444444444,1,object_01,5,2078,0,4,5,desert_4,2,memory-2step-stake-s,628,1970145,0.0-19.0-0.1-0.137,A21OS9KG7JNHR7,3YO4AH2FQG0L0WLRIP03W553LNE0Q1,3L4D84MIL38IBSL4B9SHUGOLNLRHJT,1,2
138,1,object_10,object_09,418.89999997616,2,2,364.0,0.6666666666666666,2,object_02,5,2108,0,4,6,desert_6,2,memory-2step-stake-s,629,1978339,0.0-19.0-0.1-0.138,A21OS9KG7JNHR7,3YO4AH2FQG0L0WLRIP03W553LNE0Q1,3L4D84MIL38IBSL4B9SHUGOLNLRHJT,1,2
139,2,object_05,object_03,647.10000002384,4,2,452.59999990463,0.3333333333333333,2,object_02,5,2123,0,7,3,forest_2,2,memory-2step-stake-s,630,1986322,0.0-19.0-0.1-0.139,A21OS9KG7JNHR7,3YO4AH2FQG0L0WLRIP03W553LNE0Q1,3L4D84MIL38IBSL4B9SHUGOLNLRHJT,3,4
140,4,object_06,object_08,631.89999997616,7,1,361.60000002384,0.6666666666666666,1,object_01,1,2129,0,6,1,restaurant_5,2,memory-2step-stake-s,631,1994515,0.0-19.0-0.1-0.140,A21OS9KG7JNHR7,3YO4AH2FQG0L0WLRIP03W553LNE0Q1,3L4D84MIL38IBSL4B9SHUGOLNLRHJT,7,8
141,3,object_04,object_07,897.09999990463,6,2,479.19999992847,0.1111111111111111,2,object_02,1,2130,0,5,1,library_8,2,memory-2step-stake-s,632,2002314,0.0-19.0-0.1-0.141,A21OS9KG7JNHR7,3YO4AH2FQG0L0WLRIP03W553LNE0Q1,3L4D84MIL38IBSL4B9SHUGOLNLRHJT,5,6
142,4,object_08,object_06,622.5,8,1,460.60000002384,0.1111111111111111,2,object_02,1,2131,0,4,1,restaurant_2,2,memory-2step-stake-s,633,2010105,0.0-19.0-0.1-0.142,A21OS9KG7JNHR7,3YO4AH2FQG0L0WLRIP03W553LNE0Q1,3L4D84MIL38IBSL4B9SHUGOLNLRHJT,8,7
143,1,object_10,object_09,338.59999990463,1,1,316.0,0.5555555555555556,1,object_01,5,2156,0,5,4,desert_6,2,memory-2step-stake-s,634,2018148,0.0-19.0-0.1-0.143,A21OS9KG7JNHR7,3YO4AH2FQG0L0WLRIP03W553LNE0Q1,3L4D84MIL38IBSL4B9SHUGOLNLRHJT,1,2
144,2,object_05,object_03,531.5,4,2,319.79999995232,0.6666666666666666,2,object_02,1,2162,0,8,6,forest_7,2,memory-2step-stake-s,635,2026297,0.0-19.0-0.1-0.144,A21OS9KG7JNHR7,3YO4AH2FQG0L0WLRIP03W553LNE0Q1,3L4D84MIL38IBSL4B9SHUGOLNLRHJT,3,4
145,3,object_07,object_04,817.29999995232,6,1,442.69999992847,0.5555555555555556,2,object_02,5,2187,0,7,5,library_6,2,memory-2step-stake-s,636,2034459,0.0-19.0-0.1-0.145,A21OS9KG7JNHR7,3YO4AH2FQG0L0WLRIP03W553LNE0Q1,3L4D84MIL38IBSL4B9SHUGOLNLRHJT,6,5
146,2,object_03,object_05,759.70000004768,3,2,334.70000004768,0.6666666666666666,1,object_01,1,2193,0,6,4,forest_2,2,memory-2step-stake-s,637,2042612,0.0-19.0-0.1-0.146,A21OS9KG7JNHR7,3YO4AH2FQG0L0WLRIP03W553LNE0Q1,3L4D84MIL38IBSL4B9SHUGOLNLRHJT,4,3
147,3,object_04,object_07,446.89999997616,5,1,309.20000004768,0.7777777777777778,1,object_01,5,2228,0,7,3,library_2,2,memory-2step-stake-s,638,2050844,0.0-19.0-0.1-0.147,A21OS9KG7JNHR7,3YO4AH2FQG0L0WLRIP03W553LNE0Q1,3L4D84MIL38IBSL4B9SHUGOLNLRHJT,5,6
148,3,object_04,object_07,749.10000002384,5,1,370.39999997616,0.6666666666666666,1,object_01,1,2234,0,6,3,library_8,2,memory-2step-stake-s,639,2059034,0.0-19.0-0.1-0.148,A21OS9KG7JNHR7,3YO4AH2FQG0L0WLRIP03W553LNE0Q1,3L4D84MIL38IBSL4B9SHUGOLNLRHJT,5,6
149,1,object_09,object_10,575.29999995232,2,1,420.20000004768,0.2222222222222222,2,object_02,5,2244,0,6,2,desert_4,2,memory-2step-stake-s,640,2066871,0.0-19.0-0.1-0.149,A21OS9KG7JNHR7,3YO4AH2FQG0L0WLRIP03W553LNE0Q1,3L4D84MIL38IBSL4B9SHUGOLNLRHJT,2,1
150,1,object_10,object_09,658.70000004768,1,1,381.39999997616,0.8888888888888888,1,object_01,5,2284,0,8,1,desert_1,2,memory-2step-stake-s,641,2075274,0.0-19.0-0.1-0.150,A21OS9KG7JNHR7,3YO4AH2FQG0L0WLRIP03W553LNE0Q1,3L4D84MIL38IBSL4B9SHUGOLNLRHJT,1,2
151,4,object_08,object_06,644.79999995232,8,1,358.29999995232,0.2222222222222222,2,object_02,1,2286,0,9,2,restaurant_2,2,memory-2step-stake-s,642,2083063,0.0-19.0-0.1-0.151,A21OS9KG7JNHR7,3YO4AH2FQG0L0WLRIP03W553LNE0Q1,3L4D84MIL38IBSL4B9SHUGOLNLRHJT,8,7
152,1,object_09,object_10,587.29999995232,1,2,310.5,0.5555555555555556,1,object_01,5,2311,0,5,2,desert_1,2,memory-2step-stake-s,643,2091093,0.0-19.0-0.1-0.152,A21OS9KG7JNHR7,3YO4AH2FQG0L0WLRIP03W553LNE0Q1,3L4D84MIL38IBSL4B9SHUGOLNLRHJT,2,1
153,3,object_07,object_04,702.20000004768,6,1,451.5,0.5555555555555556,2,object_02,1,2316,0,2,5,library_4,2,memory-2step-stake-s,644,2099262,0.0-19.0-0.1-0.153,A21OS9KG7JNHR7,3YO4AH2FQG0L0WLRIP03W553LNE0Q1,3L4D84MIL38IBSL4B9SHUGOLNLRHJT,6,5
154,2,object_03,object_05,376.89999997616,4,1,377.09999990463,0.8888888888888888,2,object_02,5,2356,0,0,8,forest_3,2,memory-2step-stake-s,645,2107663,0.0-19.0-0.1-0.154,A21OS9KG7JNHR7,3YO4AH2FQG0L0WLRIP03W553LNE0Q1,3L4D84MIL38IBSL4B9SHUGOLNLRHJT,4,3
155,2,object_05,object_03,410.79999995232,4,2,308.20000004768,1.0,2,object_02,5,2401,0,2,9,forest_2,2,memory-2step-stake-s,646,2116098,0.0-19.0-0.1-0.155,A21OS9KG7JNHR7,3YO4AH2FQG0L0WLRIP03W553LNE0Q1,3L4D84MIL38IBSL4B9SHUGOLNLRHJT,3,4
156,3,object_07,object_04,616.39999997616,5,2,307.39999997616,0.1111111111111111,1,object_01,1,2402,0,1,9,library_8,2,memory-2step-stake-s,647,2123721,0.0-19.0-0.1-0.156,A21OS9KG7JNHR7,3YO4AH2FQG0L0WLRIP03W553LNE0Q1,3L4D84MIL38IBSL4B9SHUGOLNLRHJT,6,5
157,4,object_08,object_06,723.79999995232,7,2,381.0,0.1111111111111111,1,object_01,1,2403,0,1,9,restaurant_5,2,memory-2step-stake-s,648,2131417,0.0-19.0-0.1-0.157,A21OS9KG7JNHR7,3YO4AH2FQG0L0WLRIP03W553LNE0Q1,3L4D84MIL38IBSL4B9SHUGOLNLRHJT,8,7
158,2,object_03,object_05,376.70000004768,4,1,350.0,0.7777777777777778,2,object_02,5,2438,0,1,7,forest_7,2,memory-2step-stake-s,649,2139693,0.0-19.0-0.1-0.158,A21OS9KG7JNHR7,3YO4AH2FQG0L0WLRIP03W553LNE0Q1,3L4D84MIL38IBSL4B9SHUGOLNLRHJT,4,3
159,4,object_06,object_08,668.60000002384,8,2,350.39999997616,0.8888888888888888,2,object_02,5,2478,0,0,8,restaurant_4,2,memory-2step-stake-s,650,2148068,0.0-19.0-0.1-0.159,A21OS9KG7JNHR7,3YO4AH2FQG0L0WLRIP03W553LNE0Q1,3L4D84MIL38IBSL4B9SHUGOLNLRHJT,7,8
160,3,object_07,object_04,725.0,5,2,418.29999995232,0.4444444444444444,1,object_01,1,2482,0,4,9,library_4,2,memory-2step-stake-s,651,2156110,0.0-19.0-0.1-0.160,A21OS9KG7JNHR7,3YO4AH2FQG0L0WLRIP03W553LNE0Q1,3L4D84MIL38IBSL4B9SHUGOLNLRHJT,6,5
161,3,object_04,object_07,581.09999990463,5,1,363.79999995232,0.6666666666666666,1,object_01,1,2488,0,6,6,library_6,2,memory-2step-stake-s,652,2164298,0.0-19.0-0.1-0.161,A21OS9KG7JNHR7,3YO4AH2FQG0L0WLRIP03W553LNE0Q1,3L4D84MIL38IBSL4B9SHUGOLNLRHJT,5,6
162,2,object_05,object_03,491.89999997616,4,2,355.79999995232,0.8888888888888888,2,object_02,1,2496,0,7,8,forest_2,2,memory-2step-stake-s,653,2172676,0.0-19.0-0.1-0.162,A21OS9KG7JNHR7,3YO4AH2FQG0L0WLRIP03W553LNE0Q1,3L4D84MIL38IBSL4B9SHUGOLNLRHJT,3,4
163,3,object_04,object_07,448.0,5,1,362.29999995232,0.4444444444444444,1,object_01,1,2500,0,4,6,library_8,2,memory-2step-stake-s,654,2180664,0.0-19.0-0.1-0.163,A21OS9KG7JNHR7,3YO4AH2FQG0L0WLRIP03W553LNE0Q1,3L4D84MIL38IBSL4B9SHUGOLNLRHJT,5,6
164,3,object_04,object_07,443.79999995232,5,1,381.20000004768,0.8888888888888888,1,object_01,1,2508,0,8,5,library_8,2,memory-2step-stake-s,655,2189083,0.0-19.0-0.1-0.164,A21OS9KG7JNHR7,3YO4AH2FQG0L0WLRIP03W553LNE0Q1,3L4D84MIL38IBSL4B9SHUGOLNLRHJT,5,6
165,1,object_09,object_10,390.19999992847,1,2,291.60000002384,0.7777777777777778,1,object_01,5,2543,0,7,8,desert_4,2,memory-2step-stake-s,656,2197301,0.0-19.0-0.1-0.165,A21OS9KG7JNHR7,3YO4AH2FQG0L0WLRIP03W553LNE0Q1,3L4D84MIL38IBSL4B9SHUGOLNLRHJT,2,1
166,2,object_05,object_03,464.60000002384,4,2,363.0,0.6666666666666666,2,object_02,5,2573,0,7,6,forest_5,2,memory-2step-stake-s,657,2205510,0.0-19.0-0.1-0.166,A21OS9KG7JNHR7,3YO4AH2FQG0L0WLRIP03W553LNE0Q1,3L4D84MIL38IBSL4B9SHUGOLNLRHJT,3,4
167,1,object_10,object_09,662.69999992847,1,1,311.19999992847,0.8888888888888888,1,object_01,5,2613,0,8,6,desert_7,2,memory-2step-stake-s,658,2213848,0.0-19.0-0.1-0.167,A21OS9KG7JNHR7,3YO4AH2FQG0L0WLRIP03W553LNE0Q1,3L4D84MIL38IBSL4B9SHUGOLNLRHJT,1,2
168,4,object_08,object_06,712.5,7,2,345.89999997616,0.7777777777777778,1,object_01,1,2620,0,7,5,restaurant_5,2,memory-2step-stake-s,659,2222116,0.0-19.0-0.1-0.168,A21OS9KG7JNHR7,3YO4AH2FQG0L0WLRIP03W553LNE0Q1,3L4D84MIL38IBSL4B9SHUGOLNLRHJT,8,7
169,2,object_03,object_05,526.5,4,1,412.29999995232,0.8888888888888888,2,object_02,5,2660,0,6,8,forest_5,2,memory-2step-stake-s,660,2230569,0.0-19.0-0.1-0.169,A21OS9KG7JNHR7,3YO4AH2FQG0L0WLRIP03W553LNE0Q1,3L4D84MIL38IBSL4B9SHUGOLNLRHJT,4,3
170,1,object_09,object_10,531.10000002384,2,1,423.80000007153,0.8888888888888888,2,object_02,5,2700,0,4,8,desert_7,2,memory-2step-stake-s,661,2239035,0.0-19.0-0.1-0.170,A21OS9KG7JNHR7,3YO4AH2FQG0L0WLRIP03W553LNE0Q1,3L4D84MIL38IBSL4B9SHUGOLNLRHJT,2,1
171,2,object_03,object_05,411.60000002384,4,1,404.0,0.8888888888888888,2,object_02,5,2740,0,7,8,forest_5,2,memory-2step-stake-s,662,2247468,0.0-19.0-0.1-0.171,A21OS9KG7JNHR7,3YO4AH2FQG0L0WLRIP03W553LNE0Q1,3L4D84MIL38IBSL4B9SHUGOLNLRHJT,4,3
172,1,object_09,object_10,400.39999997616,2,1,343.70000004768,0.8888888888888888,2,object_02,5,2780,0,6,8,desert_1,2,memory-2step-stake-s,663,2255837,0.0-19.0-0.1-0.172,A21OS9KG7JNHR7,3YO4AH2FQG0L0WLRIP03W553LNE0Q1,3L4D84MIL38IBSL4B9SHUGOLNLRHJT,2,1
173,2,object_05,object_03,626.09999990463,4,2,347.10000002384,0.8888888888888888,2,object_02,5,2820,0,8,8,forest_5,2,memory-2step-stake-s,664,2264212,0.0-19.0-0.1-0.173,A21OS9KG7JNHR7,3YO4AH2FQG0L0WLRIP03W553LNE0Q1,3L4D84MIL38IBSL4B9SHUGOLNLRHJT,3,4
174,1,object_09,object_10,382.89999997616,2,1,481.10000002384,0.8888888888888888,2,object_02,5,2860,0,8,8,desert_7,2,memory-2step-stake-s,665,2272722,0.0-19.0-0.1-0.174,A21OS9KG7JNHR7,3YO4AH2FQG0L0WLRIP03W553LNE0Q1,3L4D84MIL38IBSL4B9SHUGOLNLRHJT,2,1
175,1,object_09,object_10,527.39999997616,2,1,361.5,0.6666666666666666,2,object_02,5,2890,0,8,6,desert_6,2,memory-2step-stake-s,666,2280911,0.0-19.0-0.1-0.175,A21OS9KG7JNHR7,3YO4AH2FQG0L0WLRIP03W553LNE0Q1,3L4D84MIL38IBSL4B9SHUGOLNLRHJT,2,1
176,1,object_09,object_10,499.80000007153,1,2,357.0,0.6666666666666666,1,object_01,5,2920,0,6,6,desert_4,2,memory-2step-stake-s,667,2289096,0.0-19.0-0.1-0.176,A21OS9KG7JNHR7,3YO4AH2FQG0L0WLRIP03W553LNE0Q1,3L4D84MIL38IBSL4B9SHUGOLNLRHJT,2,1
177,4,object_06,object_08,693.5,7,1,368.5,0.8888888888888888,1,object_01,1,2928,0,8,9,restaurant_5,2,memory-2step-stake-s,668,2297503,0.0-19.0-0.1-0.177,A21OS9KG7JNHR7,3YO4AH2FQG0L0WLRIP03W553LNE0Q1,3L4D84MIL38IBSL4B9SHUGOLNLRHJT,7,8
178,4,object_08,object_06,667.20000004768,8,1,357.79999995232,0.7777777777777778,2,object_02,1,2935,0,6,7,restaurant_5,2,memory-2step-stake-s,669,2305790,0.0-19.0-0.1-0.178,A21OS9KG7JNHR7,3YO4AH2FQG0L0WLRIP03W553LNE0Q1,3L4D84MIL38IBSL4B9SHUGOLNLRHJT,8,7
179,1,object_10,object_09,699.69999992847,2,2,318.69999992847,0.7777777777777778,2,object_02,5,2970,0,4,7,desert_4,2,memory-2step-stake-s,670,2314038,0.0-19.0-0.1-0.179,A21OS9KG7JNHR7,3YO4AH2FQG0L0WLRIP03W553LNE0Q1,3L4D84MIL38IBSL4B9SHUGOLNLRHJT,1,2
180,2,object_03,object_05,942.79999995232,3,2,416.20000004768,0.3333333333333333,1,object_01,5,2985,0,3,3,forest_5,2,memory-2step-stake-s,671,2321977,0.0-19.0-0.1-0.180,A21OS9KG7JNHR7,3YO4AH2FQG0L0WLRIP03W553LNE0Q1,3L4D84MIL38IBSL4B9SHUGOLNLRHJT,4,3
181,3,object_04,object_07,467.29999995232,5,1,426.0,0.1111111111111111,1,object_01,1,2986,0,1,3,library_4,2,memory-2step-stake-s,672,2329721,0.0-19.0-0.1-0.181,A21OS9KG7JNHR7,3YO4AH2FQG0L0WLRIP03W553LNE0Q1,3L4D84MIL38IBSL4B9SHUGOLNLRHJT,5,6
182,4,object_08,object_06,656.5,7,2,319.39999997616,0.1111111111111111,1,object_01,1,2987,0,1,4,restaurant_2,2,memory-2step-stake-s,673,2337355,0.0-19.0-0.1-0.182,A21OS9KG7JNHR7,3YO4AH2FQG0L0WLRIP03W553LNE0Q1,3L4D84MIL38IBSL4B9SHUGOLNLRHJT,8,7
183,4,object_08,object_06,939.19999992847,7,2,337.39999997616,0.1111111111111111,1,object_01,1,2988,0,1,3,restaurant_5,2,memory-2step-stake-s,674,2345006,0.0-19.0-0.1-0.183,A21OS9KG7JNHR7,3YO4AH2FQG0L0WLRIP03W553LNE0Q1,3L4D84MIL38IBSL4B9SHUGOLNLRHJT,8,7
184,4,object_08,object_06,695.29999995232,8,1,374.5,0.3333333333333333,2,object_02,5,3003,0,3,3,restaurant_5,2,memory-2step-stake-s,675,2352898,0.0-19.0-0.1-0.184,A21OS9KG7JNHR7,3YO4AH2FQG0L0WLRIP03W553LNE0Q1,3L4D84MIL38IBSL4B9SHUGOLNLRHJT,8,7
185,4,object_06,object_08,654.0,7,1,318.0,0.2222222222222222,1,object_01,1,3005,0,2,4,restaurant_6,2,memory-2step-stake-s,676,2360637,0.0-19.0-0.1-0.185,A21OS9KG7JNHR7,3YO4AH2FQG0L0WLRIP03W553LNE0Q1,3L4D84MIL38IBSL4B9SHUGOLNLRHJT,7,8
186,3,object_07,object_04,648.29999995232,6,1,359.39999997616,0.6666666666666666,2,object_02,5,3035,0,0,6,library_4,2,memory-2step-stake-s,677,2368817,0.0-19.0-0.1-0.186,A21OS9KG7JNHR7,3YO4AH2FQG0L0WLRIP03W553LNE0Q1,3L4D84MIL38IBSL4B9SHUGOLNLRHJT,6,5
187,1,object_09,object_10,629.70000004768,1,2,336.60000002384,0.3333333333333333,1,object_01,1,3038,0,3,3,desert_4,2,memory-2step-stake-s,678,2376686,0.0-19.0-0.1-0.187,A21OS9KG7JNHR7,3YO4AH2FQG0L0WLRIP03W553LNE0Q1,3L4D84MIL38IBSL4B9SHUGOLNLRHJT,2,1
188,2,object_03,object_05,395.09999990463,4,1,303.30000007153,0.7777777777777778,2,object_02,5,3073,0,1,7,forest_2,2,memory-2step-stake-s,679,2384911,0.0-19.0-0.1-0.188,A21OS9KG7JNHR7,3YO4AH2FQG0L0WLRIP03W553LNE0Q1,3L4D84MIL38IBSL4B9SHUGOLNLRHJT,4,3
189,3,object_07,object_04,602.80000007153,5,2,378.60000002384,0.1111111111111111,1,object_01,1,3074,0,1,8,library_2,2,memory-2step-stake-s,680,2392603,0.0-19.0-0.1-0.189,A21OS9KG7JNHR7,3YO4AH2FQG0L0WLRIP03W553LNE0Q1,3L4D84MIL38IBSL4B9SHUGOLNLRHJT,6,5
190,1,object_09,object_10,412.60000002384,2,1,411.30000007153,0.6666666666666666,2,object_02,5,3104,0,0,6,desert_7,2,memory-2step-stake-s,681,2400834,0.0-19.0-0.1-0.190,A21OS9KG7JNHR7,3YO4AH2FQG0L0WLRIP03W553LNE0Q1,3L4D84MIL38IBSL4B9SHUGOLNLRHJT,2,1
191,4,object_06,object_08,846.20000004768,7,1,369.0,0.4444444444444444,1,object_01,1,3108,0,4,3,restaurant_4,2,memory-2step-stake-s,682,2408824,0.0-19.0-0.1-0.191,A21OS9KG7JNHR7,3YO4AH2FQG0L0WLRIP03W553LNE0Q1,3L4D84MIL38IBSL4B9SHUGOLNLRHJT,7,8
192,3,object_04,object_07,739.19999992847,6,2,315.80000007153,0.8888888888888888,2,object_02,5,3148,0,5,8,library_8,2,memory-2step-stake-s,683,2417180,0.0-19.0-0.1-0.192,A21OS9KG7JNHR7,3YO4AH2FQG0L0WLRIP03W553LNE0Q1,3L4D84MIL38IBSL4B9SHUGOLNLRHJT,5,6
193,1,object_09,object_10,488.0,2,1,397.90000009537,0.8888888888888888,2,object_02,5,3188,0,5,8,desert_7,2,memory-2step-stake-s,684,2425598,0.0-19.0-0.1-0.193,A21OS9KG7JNHR7,3YO4AH2FQG0L0WLRIP03W553LNE0Q1,3L4D84MIL38IBSL4B9SHUGOLNLRHJT,2,1
194,3,object_04,object_07,534.40000009537,5,1,406.10000002384,0.7777777777777778,1,object_01,1,3195,0,7,8,library_6,2,memory-2step-stake-s,685,2433934,0.0-19.0-0.1-0.194,A21OS9KG7JNHR7,3YO4AH2FQG0L0WLRIP03W553LNE0Q1,3L4D84MIL38IBSL4B9SHUGOLNLRHJT,5,6
195,2,object_03,object_05,778.69999992847,3,2,369.79999995232,0.8888888888888888,1,object_01,5,3235,0,8,7,forest_2,2,memory-2step-stake-s,686,2442328,0.0-19.0-0.1-0.195,A21OS9KG7JNHR7,3YO4AH2FQG0L0WLRIP03W553LNE0Q1,3L4D84MIL38IBSL4B9SHUGOLNLRHJT,4,3
196,2,object_03,object_05,367.20000004768,4,1,322.19999992847,0.6666666666666666,2,object_02,5,3265,0,6,6,forest_7,2,memory-2step-stake-s,687,2450473,0.0-19.0-0.1-0.196,A21OS9KG7JNHR7,3YO4AH2FQG0L0WLRIP03W553LNE0Q1,3L4D84MIL38IBSL4B9SHUGOLNLRHJT,4,3
197,2,object_03,object_05,578.80000007153,4,1,350.0,0.4444444444444444,2,object_02,1,3269,0,5,4,forest_5,2,memory-2step-stake-s,688,2458446,0.0-19.0-0.1-0.197,A21OS9KG7JNHR7,3YO4AH2FQG0L0WLRIP03W553LNE0Q1,3L4D84MIL38IBSL4B9SHUGOLNLRHJT,4,3
198,4,object_06,object_08,631.29999995232,8,2,305.90000009537,0.0,2,object_02,1,3269,0,5,0,restaurant_6,2,memory-2step-stake-s,689,2465966,0.0-19.0-0.1-0.198,A21OS9KG7JNHR7,3YO4AH2FQG0L0WLRIP03W553LNE0Q1,3L4D84MIL38IBSL4B9SHUGOLNLRHJT,7,8
199,4,object_08,object_06,795.60000002384,7,2,346.10000002384,0.4444444444444444,1,object_01,5,3289,0,4,2,restaurant_4,2,memory-2step-stake-s,690,2473935,0.0-19.0-0.1-0.199,A21OS9KG7JNHR7,3YO4AH2FQG0L0WLRIP03W553LNE0Q1,3L4D84MIL38IBSL4B9SHUGOLNLRHJT,8,7
200,2,object_03,object_05,704.30000007153,3,2,300.10000002384,0.6666666666666666,1,object_01,1,3295,0,6,3,forest_3,2,memory-2step-stake-s,691,2482071,0.0-19.0-0.1-0.200,A21OS9KG7JNHR7,3YO4AH2FQG0L0WLRIP03W553LNE0Q1,3L4D84MIL38IBSL4B9SHUGOLNLRHJT,4,3
201,1,object_09,object_10,472.60000002384,1,2,294.79999995232,1.0,1,object_01,5,3340,0,9,5,desert_7,2,memory-2step-stake-s,692,2490494,0.0-19.0-0.1-0.201,A21OS9KG7JNHR7,3YO4AH2FQG0L0WLRIP03W553LNE0Q1,3L4D84MIL38IBSL4B9SHUGOLNLRHJT,2,1
202,4,object_06,object_08,655.69999992847,8,2,297.20000004768,0.1111111111111111,2,object_02,1,3341,0,7,1,restaurant_6,2,memory-2step-stake-s,693,2498108,0.0-19.0-0.1-0.202,A21OS9KG7JNHR7,3YO4AH2FQG0L0WLRIP03W553LNE0Q1,3L4D84MIL38IBSL4B9SHUGOLNLRHJT,7,8
203,3,object_07,object_04,775.59999990463,6,1,452.90000009537,0.0,2,object_02,1,3341,0,8,0,library_4,2,memory-2step-stake-s,694,2505778,0.0-19.0-0.1-0.203,A21OS9KG7JNHR7,3YO4AH2FQG0L0WLRIP03W553LNE0Q1,3L4D84MIL38IBSL4B9SHUGOLNLRHJT,6,5
204,3,object_07,object_04,416.79999995232,6,1,361.70000004768,0.0,2,object_02,1,3341,0,8,0,library_2,2,memory-2step-stake-s,695,2513359,0.0-19.0-0.1-0.204,A21OS9KG7JNHR7,3YO4AH2FQG0L0WLRIP03W553LNE0Q1,3L4D84MIL38IBSL4B9SHUGOLNLRHJT,6,5
205,4,object_06,object_08,728.0,7,1,287.5,0.7777777777777778,1,object_01,5,3376,0,7,0,restaurant_2,2,memory-2step-stake-s,696,2521585,0.0-19.0-0.1-0.205,A21OS9KG7JNHR7,3YO4AH2FQG0L0WLRIP03W553LNE0Q1,3L4D84MIL38IBSL4B9SHUGOLNLRHJT,7,8
206,2,object_05,object_03,603.10000002384,3,1,368.89999997616,0.4444444444444444,1,object_01,5,3396,0,4,0,forest_3,2,memory-2step-stake-s,697,2529575,0.0-19.0-0.1-0.206,A21OS9KG7JNHR7,3YO4AH2FQG0L0WLRIP03W553LNE0Q1,3L4D84MIL38IBSL4B9SHUGOLNLRHJT,3,4
207,3,object_04,object_07,1155.3999999762,6,2,390.20000004768,0.1111111111111111,2,object_02,5,3401,0,3,1,library_2,2,memory-2step-stake-s,698,2537284,0.0-19.0-0.1-0.207,A21OS9KG7JNHR7,3YO4AH2FQG0L0WLRIP03W553LNE0Q1,3L4D84MIL38IBSL4B9SHUGOLNLRHJT,5,6
208,2,object_03,object_05,457.39999997616,4,1,323.69999992847,0.0,2,object_02,1,3401,0,0,0,forest_5,2,memory-2step-stake-s,699,2544822,0.0-19.0-0.1-0.208,A21OS9KG7JNHR7,3YO4AH2FQG0L0WLRIP03W553LNE0Q1,3L4D84MIL38IBSL4B9SHUGOLNLRHJT,4,3
209,1,object_09,object_10,524.70000004768,1,2,358.90000009537,0.2222222222222222,1,object_01,5,3411,0,2,0,desert_1,2,memory-2step-stake-s,700,2552600,0.0-19.0-0.1-0.209,A21OS9KG7JNHR7,3YO4AH2FQG0L0WLRIP03W553LNE0Q1,3L4D84MIL38IBSL4B9SHUGOLNLRHJT,2,1
210,2,object_05,object_03,671.0,3,1,316.0,0.5555555555555556,1,object_01,5,3436,0,5,4,forest_5,2,memory-2step-stake-s,701,2560641,0.0-19.0-0.1-0.210,A21OS9KG7JNHR7,3YO4AH2FQG0L0WLRIP03W553LNE0Q1,3L4D84MIL38IBSL4B9SHUGOLNLRHJT,3,4
211,3,object_04,object_07,605.90000009537,6,2,372.30000007153,0.4444444444444444,2,object_02,1,3440,0,4,4,library_6,2,memory-2step-stake-s,702,2568636,0.0-19.0-0.1-0.211,A21OS9KG7JNHR7,3YO4AH2FQG0L0WLRIP03W553LNE0Q1,3L4D84MIL38IBSL4B9SHUGOLNLRHJT,5,6
212,3,object_07,object_04,734.89999997616,5,2,300.0,0.3333333333333333,1,object_01,1,3443,0,3,4,library_4,2,memory-2step-stake-s,703,2576470,0.0-19.0-0.1-0.212,A21OS9KG7JNHR7,3YO4AH2FQG0L0WLRIP03W553LNE0Q1,3L4D84MIL38IBSL4B9SHUGOLNLRHJT,6,5
213,4,object_08,object_06,682.70000004768,7,2,348.5,0.0,1,object_01,1,3443,0,0,3,restaurant_4,2,memory-2step-stake-s,704,2584032,0.0-19.0-0.1-0.213,A21OS9KG7JNHR7,3YO4AH2FQG0L0WLRIP03W553LNE0Q1,3L4D84MIL38IBSL4B9SHUGOLNLRHJT,8,7
214,1,object_09,object_10,688.79999995232,1,2,423.20000004768,0.2222222222222222,1,object_01,1,3445,0,2,0,desert_6,2,memory-2step-stake-s,705,2591873,0.0-19.0-0.1-0.214,A21OS9KG7JNHR7,3YO4AH2FQG0L0WLRIP03W553LNE0Q1,3L4D84MIL38IBSL4B9SHUGOLNLRHJT,2,1
215,4,object_08,object_06,708.0,8,1,306.30000007153,0.1111111111111111,2,object_02,1,3446,0,6,1,restaurant_5,2,memory-2step-stake-s,706,2599504,0.0-19.0-0.1-0.215,A21OS9KG7JNHR7,3YO4AH2FQG0L0WLRIP03W553LNE0Q1,3L4D84MIL38IBSL4B9SHUGOLNLRHJT,8,7
216,1,object_10,object_09,553.20000004768,1,1,370.29999995232,0.4444444444444444,1,object_01,5,3466,0,4,2,desert_4,2,memory-2step-stake-s,707,2607498,0.0-19.0-0.1-0.216,A21OS9KG7JNHR7,3YO4AH2FQG0L0WLRIP03W553LNE0Q1,3L4D84MIL38IBSL4B9SHUGOLNLRHJT,1,2
217,4,object_06,object_08,373.19999992847,8,2,296.10000002384,0.1111111111111111,2,object_02,1,3467,0,2,1,restaurant_2,2,memory-2step-stake-s,708,2615114,0.0-19.0-0.1-0.217,A21OS9KG7JNHR7,3YO4AH2FQG0L0WLRIP03W553LNE0Q1,3L4D84MIL38IBSL4B9SHUGOLNLRHJT,7,8
218,4,object_08,object_06,514.29999995232,8,1,434.0,0.0,2,object_02,1,3467,0,4,0,restaurant_2,2,memory-2step-stake-s,709,2622766,0.0-19.0-0.1-0.218,A21OS9KG7JNHR7,3YO4AH2FQG0L0WLRIP03W553LNE0Q1,3L4D84MIL38IBSL4B9SHUGOLNLRHJT,8,7
219,3,object_04,object_07,688.10000002384,6,2,328.40000009537,0.1111111111111111,2,object_02,1,3468,0,4,1,library_6,2,memory-2step-stake-s,710,2630408,0.0-19.0-0.1-0.219,A21OS9KG7JNHR7,3YO4AH2FQG0L0WLRIP03W553LNE0Q1,3L4D84MIL38IBSL4B9SHUGOLNLRHJT,5,6
220,3,object_04,object_07,540.80000007153,6,2,527.89999997616,0.1111111111111111,2,object_02,1,3469,0,2,1,library_2,2,memory-2step-stake-s,711,2638251,0.0-19.0-0.1-0.220,A21OS9KG7JNHR7,3YO4AH2FQG0L0WLRIP03W553LNE0Q1,3L4D84MIL38IBSL4B9SHUGOLNLRHJT,5,6
221,1,object_09,object_10,654.5,2,1,424.29999995232,0.0,2,object_02,1,3469,0,2,0,desert_6,2,memory-2step-stake-s,712,2645893,0.0-19.0-0.1-0.221,A21OS9KG7JNHR7,3YO4AH2FQG0L0WLRIP03W553LNE0Q1,3L4D84MIL38IBSL4B9SHUGOLNLRHJT,2,1
222,3,object_04,object_07,680.0,5,1,350.70000004768,0.3333333333333333,1,object_01,1,3472,0,3,0,library_4,2,memory-2step-stake-s,713,2653762,0.0-19.0-0.1-0.222,A21OS9KG7JNHR7,3YO4AH2FQG0L0WLRIP03W553LNE0Q1,3L4D84MIL38IBSL4B9SHUGOLNLRHJT,5,6
223,2,object_03,object_05,660.5,4,1,315.39999997616,0.1111111111111111,2,object_02,1,3473,0,3,1,forest_2,2,memory-2step-stake-s,714,2661391,0.0-19.0-0.1-0.223,A21OS9KG7JNHR7,3YO4AH2FQG0L0WLRIP03W553LNE0Q1,3L4D84MIL38IBSL4B9SHUGOLNLRHJT,4,3
224,2,object_05,object_03,379.30000007153,4,2,357.90000009537,0.5555555555555556,2,object_02,1,3478,0,2,5,forest_5,2,memory-2step-stake-s,715,2669467,0.0-19.0-0.1-0.224,A21OS9KG7JNHR7,3YO4AH2FQG0L0WLRIP03W553LNE0Q1,3L4D84MIL38IBSL4B9SHUGOLNLRHJT,3,4
225,3,object_07,object_04,597.39999997616,6,1,352.60000002384,0.3333333333333333,2,object_02,5,3493,0,5,3,library_4,2,memory-2step-stake-s,716,2677346,0.0-19.0-0.1-0.225,A21OS9KG7JNHR7,3YO4AH2FQG0L0WLRIP03W553LNE0Q1,3L4D84MIL38IBSL4B9SHUGOLNLRHJT,6,5
226,4,object_08,object_06,676.19999992847,7,2,294.0,0.3333333333333333,1,object_01,1,3496,0,3,2,restaurant_5,2,memory-2step-stake-s,717,2685180,0.0-19.0-0.1-0.226,A21OS9KG7JNHR7,3YO4AH2FQG0L0WLRIP03W553LNE0Q1,3L4D84MIL38IBSL4B9SHUGOLNLRHJT,8,7
227,4,object_06,object_08,880.60000002384,7,1,346.29999995232,0.1111111111111111,1,object_01,1,3497,0,1,3,restaurant_4,2,memory-2step-stake-s,718,2692842,0.0-19.0-0.1-0.227,A21OS9KG7JNHR7,3YO4AH2FQG0L0WLRIP03W553LNE0Q1,3L4D84MIL38IBSL4B9SHUGOLNLRHJT,7,8
228,3,object_07,object_04,886.0,6,1,326.20000004768,0.3333333333333333,2,object_02,1,3500,0,1,3,library_2,2,memory-2step-stake-s,719,2700690,0.0-19.0-0.1-0.228,A21OS9KG7JNHR7,3YO4AH2FQG0L0WLRIP03W553LNE0Q1,3L4D84MIL38IBSL4B9SHUGOLNLRHJT,6,5
229,2,object_05,object_03,464.30000007153,4,2,307.0,0.5555555555555556,2,object_02,5,3525,0,0,5,forest_2,2,memory-2step-stake-s,720,2708716,0.0-19.0-0.1-0.229,A21OS9KG7JNHR7,3YO4AH2FQG0L0WLRIP03W553LNE0Q1,3L4D84MIL38IBSL4B9SHUGOLNLRHJT,3,4
230,3,object_04,object_07,453.70000004768,5,1,432.70000004768,0.1111111111111111,1,object_01,1,3526,0,1,4,library_4,2,memory-2step-stake-s,721,2716463,0.0-19.0-0.1-0.230,A21OS9KG7JNHR7,3YO4AH2FQG0L0WLRIP03W553LNE0Q1,3L4D84MIL38IBSL4B9SHUGOLNLRHJT,5,6
231,3,object_04,object_07,504.79999995232,5,1,331.29999995232,0.0,1,object_01,1,3526,0,0,2,library_6,2,memory-2step-stake-s,722,2724019,0.0-19.0-0.1-0.231,A21OS9KG7JNHR7,3YO4AH2FQG0L0WLRIP03W553LNE0Q1,3L4D84MIL38IBSL4B9SHUGOLNLRHJT,5,6
232,2,object_03,object_05,401.89999997616,4,1,284.69999992847,0.1111111111111111,2,object_02,5,3531,0,1,1,forest_2,2,memory-2step-stake-s,723,2731620,0.0-19.0-0.1-0.232,A21OS9KG7JNHR7,3YO4AH2FQG0L0WLRIP03W553LNE0Q1,3L4D84MIL38IBSL4B9SHUGOLNLRHJT,4,3
233,4,object_06,object_08,653.19999992847,7,1,319.0,0.1111111111111111,1,object_01,1,3532,0,1,1,restaurant_6,2,memory-2step-stake-s,724,2739256,0.0-19.0-0.1-0.233,A21OS9KG7JNHR7,3YO4AH2FQG0L0WLRIP03W553LNE0Q1,3L4D84MIL38IBSL4B9SHUGOLNLRHJT,7,8
234,4,object_06,object_08,561.80000007153,7,1,296.79999995232,0.2222222222222222,1,object_01,1,3534,0,2,5,restaurant_5,2,memory-2step-stake-s,725,2746968,0.0-19.0-0.1-0.234,A21OS9KG7JNHR7,3YO4AH2FQG0L0WLRIP03W553LNE0Q1,3L4D84MIL38IBSL4B9SHUGOLNLRHJT,7,8
235,3,object_04,object_07,753.19999992847,6,2,401.79999995232,0.6666666666666666,2,object_02,5,3564,0,4,6,library_2,2,memory-2step-stake-s,726,2755207,0.0-19.0-0.1-0.235,A21OS9KG7JNHR7,3YO4AH2FQG0L0WLRIP03W553LNE0Q1,3L4D84MIL38IBSL4B9SHUGOLNLRHJT,5,6
236,1,object_09,object_10,384.60000002384,2,1,321.29999995232,0.5555555555555556,2,object_02,5,3589,0,4,5,desert_1,2,memory-2step-stake-s,727,2763248,0.0-19.0-0.1-0.236,A21OS9KG7JNHR7,3YO4AH2FQG0L0WLRIP03W553LNE0Q1,3L4D84MIL38IBSL4B9SHUGOLNLRHJT,2,1
237,1,object_10,object_09,391.60000002384,2,2,342.89999997616,0.4444444444444444,2,object_02,5,3609,0,7,4,desert_1,2,memory-2step-stake-s,728,2771212,0.0-19.0-0.1-0.237,A21OS9KG7JNHR7,3YO4AH2FQG0L0WLRIP03W553LNE0Q1,3L4D84MIL38IBSL4B9SHUGOLNLRHJT,1,2
238,2,object_05,object_03,784.10000002384,4,2,311.0,0.7777777777777778,2,object_02,5,3644,0,5,7,forest_3,2,memory-2step-stake-s,729,2779446,0.0-19.0-0.1-0.238,A21OS9KG7JNHR7,3YO4AH2FQG0L0WLRIP03W553LNE0Q1,3L4D84MIL38IBSL4B9SHUGOLNLRHJT,3,4
239,2,object_05,object_03,401.60000002384,4,2,348.70000004768,0.8888888888888888,2,object_02,5,3684,0,9,8,forest_2,2,memory-2step-stake-s,730,2787820,0.0-19.0-0.1-0.239,A21OS9KG7JNHR7,3YO4AH2FQG0L0WLRIP03W553LNE0Q1,3L4D84MIL38IBSL4B9SHUGOLNLRHJT,3,4
240,4,object_06,object_08,678.20000004768,7,1,395.5,0.7777777777777778,1,object_01,1,3691,0,7,7,restaurant_2,2,memory-2step-stake-s,731,2796138,0.0-19.0-0.1-0.240,A21OS9KG7JNHR7,3YO4AH2FQG0L0WLRIP03W553LNE0Q1,3L4D84MIL38IBSL4B9SHUGOLNLRHJT,7,8
241,2,object_03,object_05,445.39999997616,4,1,281.30000007153,1.0,2,object_02,5,3736,0,8,9,forest_3,2,memory-2step-stake-s,732,2804547,0.0-19.0-0.1-0.241,A21OS9KG7JNHR7,3YO4AH2FQG0L0WLRIP03W553LNE0Q1,3L4D84MIL38IBSL4B9SHUGOLNLRHJT,4,3
242,2,object_05,object_03,414.70000004768,4,2,354.5,0.8888888888888888,2,object_02,5,3776,0,6,8,forest_5,2,memory-2step-stake-s,733,2812923,0.0-19.0-0.1-0.242,A21OS9KG7JNHR7,3YO4AH2FQG0L0WLRIP03W553LNE0Q1,3L4D84MIL38IBSL4B9SHUGOLNLRHJT,3,4
243,2,object_05,object_03,534.29999995232,4,2,301.0,0.7777777777777778,2,object_02,5,3811,0,6,7,forest_7,2,memory-2step-stake-s,734,2821152,0.0-19.0-0.1-0.243,A21OS9KG7JNHR7,3YO4AH2FQG0L0WLRIP03W553LNE0Q1,3L4D84MIL38IBSL4B9SHUGOLNLRHJT,3,4
244,2,object_05,object_03,371.39999997616,4,2,379.70000004768,1.0,2,object_02,5,3856,0,7,9,forest_7,2,memory-2step-stake-s,735,2829663,0.0-19.0-0.1-0.244,A21OS9KG7JNHR7,3YO4AH2FQG0L0WLRIP03W553LNE0Q1,3L4D84MIL38IBSL4B9SHUGOLNLRHJT,3,4
245,2,object_03,object_05,533.69999992847,3,2,349.0,0.8888888888888888,1,object_01,1,3864,0,8,5,forest_3,2,memory-2step-stake-s,736,2838037,0.0-19.0-0.1-0.245,A21OS9KG7JNHR7,3YO4AH2FQG0L0WLRIP03W553LNE0Q1,3L4D84MIL38IBSL4B9SHUGOLNLRHJT,4,3
246,1,object_10,object_09,429.5,2,2,305.70000004768,0.4444444444444444,2,object_02,5,3884,0,9,4,desert_4,2,memory-2step-stake-s,737,2845978,0.0-19.0-0.1-0.246,A21OS9KG7JNHR7,3YO4AH2FQG0L0WLRIP03W553LNE0Q1,3L4D84MIL38IBSL4B9SHUGOLNLRHJT,1,2
247,4,object_08,object_06,753.19999992847,8,1,347.5,0.2222222222222222,2,object_02,1,3886,0,7,2,restaurant_4,2,memory-2step-stake-s,738,2853745,0.0-19.0-0.1-0.247,A21OS9KG7JNHR7,3YO4AH2FQG0L0WLRIP03W553LNE0Q1,3L4D84MIL38IBSL4B9SHUGOLNLRHJT,8,7
248,4,object_06,object_08,767.0,8,2,391.69999992847,0.1111111111111111,2,object_02,1,3887,0,9,1,restaurant_4,2,memory-2step-stake-s,739,2861470,0.0-19.0-0.1-0.248,A21OS9KG7JNHR7,3YO4AH2FQG0L0WLRIP03W553LNE0Q1,3L4D84MIL38IBSL4B9SHUGOLNLRHJT,7,8
249,3,object_07,object_04,553.89999997616,6,1,326.60000002384,0.1111111111111111,2,object_02,1,3888,0,8,1,library_8,2,memory-2step-stake-s,740,2869115,0.0-19.0-0.1-0.249,A21OS9KG7JNHR7,3YO4AH2FQG0L0WLRIP03W553LNE0Q1,3L4D84MIL38IBSL4B9SHUGOLNLRHJT,6,5
250,2,object_05,object_03,540.60000002384,3,1,513.10000002384,1.0,1,object_01,5,3933,0,9,0,forest_7,2,memory-2step-stake-s,741,2877759,0.0-19.0-0.1-0.250,A21OS9KG7JNHR7,3YO4AH2FQG0L0WLRIP03W553LNE0Q1,3L4D84MIL38IBSL4B9SHUGOLNLRHJT,3,4
251,4,object_06,object_08,630.29999995232,8,2,313.0,0.0,2,object_02,1,3933,0,7,0,restaurant_2,2,memory-2step-stake-s,742,2885285,0.0-19.0-0.1-0.251,A21OS9KG7JNHR7,3YO4AH2FQG0L0WLRIP03W553LNE0Q1,3L4D84MIL38IBSL4B9SHUGOLNLRHJT,7,8
252,4,object_08,object_06,645.5,7,2,335.89999997616,1.0,1,object_01,5,3978,0,9,0,restaurant_4,2,memory-2step-stake-s,743,2893742,0.0-19.0-0.1-0.252,A21OS9KG7JNHR7,3YO4AH2FQG0L0WLRIP03W553LNE0Q1,3L4D84MIL38IBSL4B9SHUGOLNLRHJT,8,7
253,3,object_07,object_04,815.20000004768,5,2,362.5,0.7777777777777778,1,object_01,1,3985,0,7,1,library_6,2,memory-2step-stake-s,744,2902025,0.0-19.0-0.1-0.253,A21OS9KG7JNHR7,3YO4AH2FQG0L0WLRIP03W553LNE0Q1,3L4D84MIL38IBSL4B9SHUGOLNLRHJT,6,5
254,3,object_07,object_04,455.19999992847,6,1,291.0,0.1111111111111111,2,object_02,1,3986,0,8,1,library_6,2,memory-2step-stake-s,745,2909639,0.0-19.0-0.1-0.254,A21OS9KG7JNHR7,3YO4AH2FQG0L0WLRIP03W553LNE0Q1,3L4D84MIL38IBSL4B9SHUGOLNLRHJT,6,5
255,1,object_10,object_09,448.5,1,1,270.80000007153,0.4444444444444444,1,object_01,5,4006,0,4,2,desert_4,2,memory-2step-stake-s,746,2917529,0.0-19.0-0.1-0.255,A21OS9KG7JNHR7,3YO4AH2FQG0L0WLRIP03W553LNE0Q1,3L4D84MIL38IBSL4B9SHUGOLNLRHJT,1,2
