,state1,stim_left,stim_right,rt_1,choice1,response1,rt_2,points,state2,stim_state2,stake,score,practice,rews1,rews2,background,high_arm,trial_type,trial_index,time_elapsed,internal_node_id,subid,hitid,assignmentid,stim_left_num,stim_right_num
0,1,object_08,object_04,501.09999999404,1,2,-1.0,0.0,1,object_10,1,0,0,2,8,desert_3,1,memory-2step-stake-s,518,945295,0.0-19.0-0.0-0.0,A2E0LU8V4EUX5C,391FPZIE5F2O3PY4X6RTCY19AQ3HU8,3Y5140Z9D1WETYZMC4FMROBCWAMPIU,2,1
1,4,object_05,object_01,500.0,7,1,534.29999999702,0.3333333333333333,1,object_10,1,3,0,3,9,restaurant_7,1,memory-2step-stake-s,519,953352,0.0-19.0-0.0-0.1,A2E0LU8V4EUX5C,391FPZIE5F2O3PY4X6RTCY19AQ3HU8,3Y5140Z9D1WETYZMC4FMROBCWAMPIU,7,8
2,4,object_05,object_01,379.60000000894,8,2,516.09999999404,0.6666666666666666,2,object_02,5,33,0,5,6,restaurant_3,1,memory-2step-stake-s,520,961696,0.0-19.0-0.0-0.2,A2E0LU8V4EUX5C,391FPZIE5F2O3PY4X6RTCY19AQ3HU8,3Y5140Z9D1WETYZMC4FMROBCWAMPIU,7,8
3,2,object_06,object_09,407.79999999702,3,1,670.40000000596,0.4444444444444444,1,object_10,1,37,0,4,7,forest_4,1,memory-2step-stake-s,521,969989,0.0-19.0-0.0-0.3,A2E0LU8V4EUX5C,391FPZIE5F2O3PY4X6RTCY19AQ3HU8,3Y5140Z9D1WETYZMC4FMROBCWAMPIU,3,4
4,1,object_08,object_04,321.70000000298,1,2,486.70000000298,0.6666666666666666,1,object_10,1,43,0,6,8,desert_5,1,memory-2step-stake-s,522,978294,0.0-19.0-0.0-0.4,A2E0LU8V4EUX5C,391FPZIE5F2O3PY4X6RTCY19AQ3HU8,3Y5140Z9D1WETYZMC4FMROBCWAMPIU,2,1
5,4,object_01,object_05,432.70000000298,8,1,338.70000000298,0.7777777777777778,2,object_02,5,78,0,5,7,restaurant_4,1,memory-2step-stake-s,523,986552,0.0-19.0-0.0-0.5,A2E0LU8V4EUX5C,391FPZIE5F2O3PY4X6RTCY19AQ3HU8,3Y5140Z9D1WETYZMC4FMROBCWAMPIU,8,7
6,1,object_08,object_04,322.89999999106,1,2,707.90000000596,0.4444444444444444,1,object_10,5,98,0,4,8,desert_3,1,memory-2step-stake-s,524,994885,0.0-19.0-0.0-0.6,A2E0LU8V4EUX5C,391FPZIE5F2O3PY4X6RTCY19AQ3HU8,3Y5140Z9D1WETYZMC4FMROBCWAMPIU,2,1
7,1,object_04,object_08,312.70000000298,1,1,458.40000000596,0.5555555555555556,1,object_10,1,103,0,5,4,desert_7,1,memory-2step-stake-s,525,1003066,0.0-19.0-0.0-0.7,A2E0LU8V4EUX5C,391FPZIE5F2O3PY4X6RTCY19AQ3HU8,3Y5140Z9D1WETYZMC4FMROBCWAMPIU,1,2
8,3,object_07,object_03,377.90000000596,6,2,762.5,0.7777777777777778,2,object_02,1,110,0,6,7,library_8,1,memory-2step-stake-s,526,1011757,0.0-19.0-0.0-0.8,A2E0LU8V4EUX5C,391FPZIE5F2O3PY4X6RTCY19AQ3HU8,3Y5140Z9D1WETYZMC4FMROBCWAMPIU,5,6
9,4,object_05,object_01,272.79999999702,7,1,538.5,0.7777777777777778,1,object_10,5,145,0,7,6,restaurant_7,1,memory-2step-stake-s,527,1020220,0.0-19.0-0.0-0.9,A2E0LU8V4EUX5C,391FPZIE5F2O3PY4X6RTCY19AQ3HU8,3Y5140Z9D1WETYZMC4FMROBCWAMPIU,7,8
10,2,object_09,object_06,586.39999999106,3,2,572.69999998808,0.6666666666666666,1,object_10,5,175,0,6,3,forest_4,1,memory-2step-stake-s,528,1028616,0.0-19.0-0.0-0.10,A2E0LU8V4EUX5C,391FPZIE5F2O3PY4X6RTCY19AQ3HU8,3Y5140Z9D1WETYZMC4FMROBCWAMPIU,4,3
11,1,object_08,object_04,358.20000000298,2,1,560.30000001192,0.3333333333333333,2,object_02,5,190,0,4,3,desert_5,1,memory-2step-stake-s,529,1036696,0.0-19.0-0.0-0.11,A2E0LU8V4EUX5C,391FPZIE5F2O3PY4X6RTCY19AQ3HU8,3Y5140Z9D1WETYZMC4FMROBCWAMPIU,2,1
12,4,object_05,object_01,437.29999999702,8,2,422.30000001192,0.2222222222222222,2,object_02,5,200,0,4,2,restaurant_3,1,memory-2step-stake-s,530,1044539,0.0-19.0-0.0-0.12,A2E0LU8V4EUX5C,391FPZIE5F2O3PY4X6RTCY19AQ3HU8,3Y5140Z9D1WETYZMC4FMROBCWAMPIU,7,8
13,1,object_08,object_04,447.70000000298,1,2,538.0,0.5555555555555556,1,object_10,5,225,0,5,4,desert_7,1,memory-2step-stake-s,531,1052802,0.0-19.0-0.0-0.13,A2E0LU8V4EUX5C,391FPZIE5F2O3PY4X6RTCY19AQ3HU8,3Y5140Z9D1WETYZMC4FMROBCWAMPIU,2,1
14,1,object_04,object_08,441.39999999106,1,1,931.30000001192,0.2222222222222222,1,object_10,1,227,0,2,0,desert_1,1,memory-2step-stake-s,532,1061156,0.0-19.0-0.0-0.14,A2E0LU8V4EUX5C,391FPZIE5F2O3PY4X6RTCY19AQ3HU8,3Y5140Z9D1WETYZMC4FMROBCWAMPIU,1,2
15,1,object_08,object_04,279.20000000298,1,2,474.40000000596,0.7777777777777778,1,object_10,1,234,0,7,2,desert_3,1,memory-2step-stake-s,533,1069556,0.0-19.0-0.0-0.15,A2E0LU8V4EUX5C,391FPZIE5F2O3PY4X6RTCY19AQ3HU8,3Y5140Z9D1WETYZMC4FMROBCWAMPIU,2,1
16,2,object_09,object_06,323.19999998808,4,1,531.29999999702,0.1111111111111111,2,object_02,1,235,0,7,1,forest_6,1,memory-2step-stake-s,534,1077404,0.0-19.0-0.0-0.16,A2E0LU8V4EUX5C,391FPZIE5F2O3PY4X6RTCY19AQ3HU8,3Y5140Z9D1WETYZMC4FMROBCWAMPIU,4,3
17,4,object_01,object_05,249.20000000298,7,2,434.90000000596,1.0,1,object_10,5,280,0,9,1,restaurant_6,1,memory-2step-stake-s,535,1085967,0.0-19.0-0.0-0.17,A2E0LU8V4EUX5C,391FPZIE5F2O3PY4X6RTCY19AQ3HU8,3Y5140Z9D1WETYZMC4FMROBCWAMPIU,8,7
18,2,object_06,object_09,317.39999999106,3,1,517.59999999404,0.8888888888888888,1,object_10,1,288,0,8,1,forest_4,1,memory-2step-stake-s,536,1094511,0.0-19.0-0.0-0.18,A2E0LU8V4EUX5C,391FPZIE5F2O3PY4X6RTCY19AQ3HU8,3Y5140Z9D1WETYZMC4FMROBCWAMPIU,3,4
19,4,object_01,object_05,297.80000001192,7,2,540.5,0.7777777777777778,1,object_10,1,295,0,7,2,restaurant_7,1,memory-2step-stake-s,537,1102983,0.0-19.0-0.0-0.19,A2E0LU8V4EUX5C,391FPZIE5F2O3PY4X6RTCY19AQ3HU8,3Y5140Z9D1WETYZMC4FMROBCWAMPIU,8,7
20,1,object_08,object_04,1092.799999997,1,2,943.5,1.0,1,object_10,1,304,0,9,1,desert_3,1,memory-2step-stake-s,538,1112056,0.0-19.0-0.0-0.20,A2E0LU8V4EUX5C,391FPZIE5F2O3PY4X6RTCY19AQ3HU8,3Y5140Z9D1WETYZMC4FMROBCWAMPIU,2,1
21,2,object_06,object_09,236.39999999106,3,1,362.90000000596,0.8888888888888888,1,object_10,1,312,0,8,1,forest_7,1,memory-2step-stake-s,539,1120450,0.0-19.0-0.0-0.21,A2E0LU8V4EUX5C,391FPZIE5F2O3PY4X6RTCY19AQ3HU8,3Y5140Z9D1WETYZMC4FMROBCWAMPIU,3,4
22,4,object_05,object_01,313.60000000894,8,2,731.20000000298,0.1111111111111111,2,object_02,5,317,0,6,1,restaurant_4,1,memory-2step-stake-s,540,1128501,0.0-19.0-0.0-0.22,A2E0LU8V4EUX5C,391FPZIE5F2O3PY4X6RTCY19AQ3HU8,3Y5140Z9D1WETYZMC4FMROBCWAMPIU,7,8
23,1,object_04,object_08,272.0,1,1,450.5,0.8888888888888888,1,object_10,1,325,0,8,2,desert_5,1,memory-2step-stake-s,541,1136980,0.0-19.0-0.0-0.23,A2E0LU8V4EUX5C,391FPZIE5F2O3PY4X6RTCY19AQ3HU8,3Y5140Z9D1WETYZMC4FMROBCWAMPIU,1,2
24,2,object_06,object_09,288.20000000298,4,2,391.0,0.1111111111111111,2,object_02,1,326,0,9,1,forest_7,1,memory-2step-stake-s,542,1144691,0.0-19.0-0.0-0.24,A2E0LU8V4EUX5C,391FPZIE5F2O3PY4X6RTCY19AQ3HU8,3Y5140Z9D1WETYZMC4FMROBCWAMPIU,3,4
25,1,object_08,object_04,259.89999999106,2,1,347.79999999702,0.0,2,object_02,1,326,0,9,0,desert_7,1,memory-2step-stake-s,543,1152254,0.0-19.0-0.0-0.25,A2E0LU8V4EUX5C,391FPZIE5F2O3PY4X6RTCY19AQ3HU8,3Y5140Z9D1WETYZMC4FMROBCWAMPIU,2,1
26,4,object_05,object_01,285.59999999404,7,1,716.20000000298,0.7777777777777778,1,object_10,5,361,0,7,2,restaurant_7,1,memory-2step-stake-s,544,1160900,0.0-19.0-0.0-0.26,A2E0LU8V4EUX5C,391FPZIE5F2O3PY4X6RTCY19AQ3HU8,3Y5140Z9D1WETYZMC4FMROBCWAMPIU,7,8
27,1,object_08,object_04,289.59999999404,2,1,594.10000000894,0.2222222222222222,2,object_02,1,363,0,8,2,desert_5,1,memory-2step-stake-s,545,1168915,0.0-19.0-0.0-0.27,A2E0LU8V4EUX5C,391FPZIE5F2O3PY4X6RTCY19AQ3HU8,3Y5140Z9D1WETYZMC4FMROBCWAMPIU,2,1
28,3,object_03,object_07,290.70000000298,6,1,387.29999999702,0.5555555555555556,2,object_02,1,368,0,8,5,library_5,1,memory-2step-stake-s,546,1177026,0.0-19.0-0.0-0.28,A2E0LU8V4EUX5C,391FPZIE5F2O3PY4X6RTCY19AQ3HU8,3Y5140Z9D1WETYZMC4FMROBCWAMPIU,6,5
29,3,object_03,object_07,537.0,5,2,504.89999999106,0.8888888888888888,1,object_10,5,408,0,8,5,library_6,1,memory-2step-stake-s,547,1185562,0.0-19.0-0.0-0.29,A2E0LU8V4EUX5C,391FPZIE5F2O3PY4X6RTCY19AQ3HU8,3Y5140Z9D1WETYZMC4FMROBCWAMPIU,6,5
30,4,object_01,object_05,289.0,7,2,-1.0,0.0,1,object_10,5,408,0,7,5,restaurant_7,1,memory-2step-stake-s,548,1194082,0.0-19.0-0.0-0.30,A2E0LU8V4EUX5C,391FPZIE5F2O3PY4X6RTCY19AQ3HU8,3Y5140Z9D1WETYZMC4FMROBCWAMPIU,8,7
31,4,object_01,object_05,363.20000000298,8,1,571.40000000596,0.4444444444444444,2,object_02,5,428,0,6,4,restaurant_7,1,memory-2step-stake-s,549,1202278,0.0-19.0-0.0-0.31,A2E0LU8V4EUX5C,391FPZIE5F2O3PY4X6RTCY19AQ3HU8,3Y5140Z9D1WETYZMC4FMROBCWAMPIU,8,7
32,2,object_09,object_06,269.0,3,2,373.39999999106,0.6666666666666666,1,object_10,1,434,0,6,5,forest_6,1,memory-2step-stake-s,550,1210478,0.0-19.0-0.0-0.32,A2E0LU8V4EUX5C,391FPZIE5F2O3PY4X6RTCY19AQ3HU8,3Y5140Z9D1WETYZMC4FMROBCWAMPIU,4,3
33,1,object_04,object_08,333.20000000298,2,2,461.5,0.3333333333333333,2,object_02,1,437,0,8,3,desert_7,1,memory-2step-stake-s,551,1218463,0.0-19.0-0.0-0.33,A2E0LU8V4EUX5C,391FPZIE5F2O3PY4X6RTCY19AQ3HU8,3Y5140Z9D1WETYZMC4FMROBCWAMPIU,1,2
34,2,object_09,object_06,274.5,4,1,379.0,0.2222222222222222,2,object_02,1,439,0,6,2,forest_4,1,memory-2step-stake-s,552,1226264,0.0-19.0-0.0-0.34,A2E0LU8V4EUX5C,391FPZIE5F2O3PY4X6RTCY19AQ3HU8,3Y5140Z9D1WETYZMC4FMROBCWAMPIU,4,3
35,1,object_04,object_08,268.29999999702,2,2,412.80000001192,0.0,2,object_02,1,439,0,4,0,desert_1,1,memory-2step-stake-s,553,1233896,0.0-19.0-0.0-0.35,A2E0LU8V4EUX5C,391FPZIE5F2O3PY4X6RTCY19AQ3HU8,3Y5140Z9D1WETYZMC4FMROBCWAMPIU,1,2
36,1,object_04,object_08,279.79999999702,1,1,455.20000000298,0.4444444444444444,1,object_10,1,443,0,4,0,desert_3,1,memory-2step-stake-s,554,1241975,0.0-19.0-0.0-0.36,A2E0LU8V4EUX5C,391FPZIE5F2O3PY4X6RTCY19AQ3HU8,3Y5140Z9D1WETYZMC4FMROBCWAMPIU,1,2
37,3,object_03,object_07,476.10000000894,6,1,420.60000000894,0.2222222222222222,2,object_02,5,453,0,2,2,library_8,1,memory-2step-stake-s,555,1249819,0.0-19.0-0.0-0.37,A2E0LU8V4EUX5C,391FPZIE5F2O3PY4X6RTCY19AQ3HU8,3Y5140Z9D1WETYZMC4FMROBCWAMPIU,6,5
38,3,object_07,object_03,-1.0,-1,-1,-1.0,0.0,-,0,5,453,0,1,5,library_5,1,memory-2step-stake-s,556,1256333,0.0-19.0-0.0-0.38,A2E0LU8V4EUX5C,391FPZIE5F2O3PY4X6RTCY19AQ3HU8,3Y5140Z9D1WETYZMC4FMROBCWAMPIU,5,6
39,1,object_08,object_04,359.39999999106,2,1,399.80000001192,0.3333333333333333,2,object_02,1,456,0,2,3,desert_5,1,memory-2step-stake-s,557,1264255,0.0-19.0-0.0-0.39,A2E0LU8V4EUX5C,391FPZIE5F2O3PY4X6RTCY19AQ3HU8,3Y5140Z9D1WETYZMC4FMROBCWAMPIU,2,1
40,3,object_03,object_07,323.79999999702,5,2,409.40000000596,0.0,1,object_10,5,456,0,0,5,library_6,1,memory-2step-stake-s,558,1271889,0.0-19.0-0.0-0.40,A2E0LU8V4EUX5C,391FPZIE5F2O3PY4X6RTCY19AQ3HU8,3Y5140Z9D1WETYZMC4FMROBCWAMPIU,6,5
41,4,object_05,object_01,1034.299999997,7,1,495.79999999702,0.3333333333333333,1,object_10,1,459,0,3,5,restaurant_3,1,memory-2step-stake-s,559,1279914,0.0-19.0-0.0-0.41,A2E0LU8V4EUX5C,391FPZIE5F2O3PY4X6RTCY19AQ3HU8,3Y5140Z9D1WETYZMC4FMROBCWAMPIU,7,8
42,1,object_08,object_04,475.59999999404,1,2,324.5,0.3333333333333333,1,object_10,1,462,0,3,7,desert_7,1,memory-2step-stake-s,560,1287762,0.0-19.0-0.0-0.42,A2E0LU8V4EUX5C,391FPZIE5F2O3PY4X6RTCY19AQ3HU8,3Y5140Z9D1WETYZMC4FMROBCWAMPIU,2,1
43,1,object_08,object_04,320.79999999702,2,1,400.5,0.8888888888888888,2,object_02,1,470,0,3,8,desert_1,1,memory-2step-stake-s,561,1296194,0.0-19.0-0.0-0.43,A2E0LU8V4EUX5C,391FPZIE5F2O3PY4X6RTCY19AQ3HU8,3Y5140Z9D1WETYZMC4FMROBCWAMPIU,2,1
44,3,object_03,object_07,265.40000000596,5,2,779.79999999702,0.4444444444444444,1,object_10,5,490,0,4,9,library_8,1,memory-2step-stake-s,562,1304600,0.0-19.0-0.0-0.44,A2E0LU8V4EUX5C,391FPZIE5F2O3PY4X6RTCY19AQ3HU8,3Y5140Z9D1WETYZMC4FMROBCWAMPIU,6,5
45,2,object_09,object_06,385.5,4,1,545.5,0.7777777777777778,2,object_02,1,497,0,4,7,forest_7,1,memory-2step-stake-s,563,1313078,0.0-19.0-0.0-0.45,A2E0LU8V4EUX5C,391FPZIE5F2O3PY4X6RTCY19AQ3HU8,3Y5140Z9D1WETYZMC4FMROBCWAMPIU,4,3
46,2,object_09,object_06,303.5,3,2,399.29999999702,0.7777777777777778,1,object_10,1,504,0,7,5,forest_7,1,memory-2step-stake-s,564,1321406,0.0-19.0-0.0-0.46,A2E0LU8V4EUX5C,391FPZIE5F2O3PY4X6RTCY19AQ3HU8,3Y5140Z9D1WETYZMC4FMROBCWAMPIU,4,3
47,4,object_01,object_05,260.29999999702,8,1,437.20000000298,0.8888888888888888,2,object_02,5,544,0,6,8,restaurant_4,1,memory-2step-stake-s,565,1329876,0.0-19.0-0.0-0.47,A2E0LU8V4EUX5C,391FPZIE5F2O3PY4X6RTCY19AQ3HU8,3Y5140Z9D1WETYZMC4FMROBCWAMPIU,8,7
48,4,object_01,object_05,558.89999999106,8,1,460.80000001192,0.6666666666666666,2,object_02,5,574,0,5,6,restaurant_3,1,memory-2step-stake-s,566,1338167,0.0-19.0-0.0-0.48,A2E0LU8V4EUX5C,391FPZIE5F2O3PY4X6RTCY19AQ3HU8,3Y5140Z9D1WETYZMC4FMROBCWAMPIU,8,7
49,3,object_03,object_07,-1.0,-1,-1,-1.0,0.0,-,0,5,574,0,7,8,library_3,1,memory-2step-stake-s,567,1344684,0.0-19.0-0.0-0.49,A2E0LU8V4EUX5C,391FPZIE5F2O3PY4X6RTCY19AQ3HU8,3Y5140Z9D1WETYZMC4FMROBCWAMPIU,6,5
50,3,object_07,object_03,345.79999999702,6,2,473.90000000596,1.0,2,object_02,5,619,0,8,9,library_3,1,memory-2step-stake-s,568,1353292,0.0-19.0-0.0-0.50,A2E0LU8V4EUX5C,391FPZIE5F2O3PY4X6RTCY19AQ3HU8,3Y5140Z9D1WETYZMC4FMROBCWAMPIU,5,6
51,4,object_05,object_01,276.89999999106,7,1,516.40000000596,0.3333333333333333,1,object_10,5,634,0,3,8,restaurant_3,1,memory-2step-stake-s,569,1361338,0.0-19.0-0.0-0.51,A2E0LU8V4EUX5C,391FPZIE5F2O3PY4X6RTCY19AQ3HU8,3Y5140Z9D1WETYZMC4FMROBCWAMPIU,7,8
52,3,object_07,object_03,250.29999999702,6,2,506.5,0.7777777777777778,2,object_02,1,641,0,2,7,library_3,1,memory-2step-stake-s,570,1369774,0.0-19.0-0.0-0.52,A2E0LU8V4EUX5C,391FPZIE5F2O3PY4X6RTCY19AQ3HU8,3Y5140Z9D1WETYZMC4FMROBCWAMPIU,5,6
53,2,object_06,object_09,274.29999999702,4,2,515.29999999702,1.0,2,object_02,1,650,0,1,9,forest_6,1,memory-2step-stake-s,571,1378425,0.0-19.0-0.0-0.53,A2E0LU8V4EUX5C,391FPZIE5F2O3PY4X6RTCY19AQ3HU8,3Y5140Z9D1WETYZMC4FMROBCWAMPIU,3,4
54,3,object_07,object_03,567.20000000298,5,1,625.0,0.0,1,object_10,5,650,0,0,8,library_6,1,memory-2step-stake-s,572,1386264,0.0-19.0-0.0-0.54,A2E0LU8V4EUX5C,391FPZIE5F2O3PY4X6RTCY19AQ3HU8,3Y5140Z9D1WETYZMC4FMROBCWAMPIU,5,6
55,3,object_03,object_07,461.79999999702,6,1,568.10000000894,0.8888888888888888,2,object_02,5,690,0,1,8,library_8,1,memory-2step-stake-s,573,1394855,0.0-19.0-0.0-0.55,A2E0LU8V4EUX5C,391FPZIE5F2O3PY4X6RTCY19AQ3HU8,3Y5140Z9D1WETYZMC4FMROBCWAMPIU,6,5
56,4,object_01,object_05,101.20000000298,8,1,800.0,0.5555555555555556,2,object_02,1,695,0,0,5,restaurant_6,1,memory-2step-stake-s,574,1403378,0.0-19.0-0.0-0.56,A2E0LU8V4EUX5C,391FPZIE5F2O3PY4X6RTCY19AQ3HU8,3Y5140Z9D1WETYZMC4FMROBCWAMPIU,8,7
57,4,object_01,object_05,371.59999999404,8,1,645.79999999702,0.4444444444444444,2,object_02,5,715,0,0,4,restaurant_4,1,memory-2step-stake-s,575,1411645,0.0-19.0-0.0-0.57,A2E0LU8V4EUX5C,391FPZIE5F2O3PY4X6RTCY19AQ3HU8,3Y5140Z9D1WETYZMC4FMROBCWAMPIU,8,7
58,1,object_04,object_08,368.10000000894,2,2,434.60000000894,0.4444444444444444,2,object_02,1,719,0,1,4,desert_5,1,memory-2step-stake-s,576,1419699,0.0-19.0-0.0-0.58,A2E0LU8V4EUX5C,391FPZIE5F2O3PY4X6RTCY19AQ3HU8,3Y5140Z9D1WETYZMC4FMROBCWAMPIU,1,2
59,2,object_06,object_09,474.10000000894,4,2,668.70000000298,0.3333333333333333,2,object_02,1,722,0,2,3,forest_6,1,memory-2step-stake-s,577,1427886,0.0-19.0-0.0-0.59,A2E0LU8V4EUX5C,391FPZIE5F2O3PY4X6RTCY19AQ3HU8,3Y5140Z9D1WETYZMC4FMROBCWAMPIU,3,4
60,1,object_08,object_04,785.79999999702,2,1,457.79999999702,0.1111111111111111,2,object_02,1,723,0,7,1,desert_7,1,memory-2step-stake-s,578,1435661,0.0-19.0-0.0-0.60,A2E0LU8V4EUX5C,391FPZIE5F2O3PY4X6RTCY19AQ3HU8,3Y5140Z9D1WETYZMC4FMROBCWAMPIU,2,1
61,3,object_07,object_03,473.29999999702,6,2,498.79999999702,0.3333333333333333,2,object_02,5,738,0,5,3,library_8,1,memory-2step-stake-s,579,1443680,0.0-19.0-0.0-0.61,A2E0LU8V4EUX5C,391FPZIE5F2O3PY4X6RTCY19AQ3HU8,3Y5140Z9D1WETYZMC4FMROBCWAMPIU,5,6
62,1,object_04,object_08,350.0,1,1,134.09999999404,0.4444444444444444,1,object_10,1,742,0,4,3,desert_1,1,memory-2step-stake-s,580,1451436,0.0-19.0-0.0-0.62,A2E0LU8V4EUX5C,391FPZIE5F2O3PY4X6RTCY19AQ3HU8,3Y5140Z9D1WETYZMC4FMROBCWAMPIU,1,2
63,4,object_01,object_05,272.60000000894,7,2,649.09999999404,0.4444444444444444,1,object_10,5,762,0,4,5,restaurant_3,1,memory-2step-stake-s,581,1459709,0.0-19.0-0.0-0.63,A2E0LU8V4EUX5C,391FPZIE5F2O3PY4X6RTCY19AQ3HU8,3Y5140Z9D1WETYZMC4FMROBCWAMPIU,8,7
64,4,object_01,object_05,615.5,7,2,400.79999999702,0.2222222222222222,1,object_10,5,772,0,2,7,restaurant_4,1,memory-2step-stake-s,582,1467530,0.0-19.0-0.0-0.64,A2E0LU8V4EUX5C,391FPZIE5F2O3PY4X6RTCY19AQ3HU8,3Y5140Z9D1WETYZMC4FMROBCWAMPIU,8,7
65,2,object_06,object_09,292.70000000298,3,1,436.19999998808,0.2222222222222222,1,object_10,1,774,0,2,4,forest_7,1,memory-2step-stake-s,583,1475384,0.0-19.0-0.0-0.65,A2E0LU8V4EUX5C,391FPZIE5F2O3PY4X6RTCY19AQ3HU8,3Y5140Z9D1WETYZMC4FMROBCWAMPIU,3,4
66,1,object_04,object_08,359.09999999404,2,2,521.40000000596,0.2222222222222222,2,object_02,5,784,0,1,2,desert_3,1,memory-2step-stake-s,584,1483322,0.0-19.0-0.0-0.66,A2E0LU8V4EUX5C,391FPZIE5F2O3PY4X6RTCY19AQ3HU8,3Y5140Z9D1WETYZMC4FMROBCWAMPIU,1,2
67,2,object_06,object_09,252.59999999404,3,1,357.90000000596,0.2222222222222222,1,object_10,5,794,0,2,1,forest_4,1,memory-2step-stake-s,585,1491098,0.0-19.0-0.0-0.67,A2E0LU8V4EUX5C,391FPZIE5F2O3PY4X6RTCY19AQ3HU8,3Y5140Z9D1WETYZMC4FMROBCWAMPIU,3,4
68,1,object_04,object_08,300.69999998808,2,2,590.20000000298,0.3333333333333333,2,object_02,1,797,0,2,3,desert_3,1,memory-2step-stake-s,586,1499208,0.0-19.0-0.0-0.68,A2E0LU8V4EUX5C,391FPZIE5F2O3PY4X6RTCY19AQ3HU8,3Y5140Z9D1WETYZMC4FMROBCWAMPIU,1,2
69,4,object_01,object_05,452.29999999702,8,1,549.29999999702,0.1111111111111111,2,object_02,5,802,0,3,1,restaurant_7,1,memory-2step-stake-s,587,1507078,0.0-19.0-0.0-0.69,A2E0LU8V4EUX5C,391FPZIE5F2O3PY4X6RTCY19AQ3HU8,3Y5140Z9D1WETYZMC4FMROBCWAMPIU,8,7
70,1,object_04,object_08,590.5,2,2,1167.099999994,0.1111111111111111,2,object_02,5,807,0,5,1,desert_1,1,memory-2step-stake-s,588,1515564,0.0-19.0-0.0-0.70,A2E0LU8V4EUX5C,391FPZIE5F2O3PY4X6RTCY19AQ3HU8,3Y5140Z9D1WETYZMC4FMROBCWAMPIU,1,2
71,2,object_06,object_09,626.30000001192,3,1,644.59999999404,0.7777777777777778,1,object_10,1,814,0,7,2,forest_4,1,memory-2step-stake-s,589,1524134,0.0-19.0-0.0-0.71,A2E0LU8V4EUX5C,391FPZIE5F2O3PY4X6RTCY19AQ3HU8,3Y5140Z9D1WETYZMC4FMROBCWAMPIU,3,4
72,4,object_05,object_01,535.29999999702,8,2,495.29999999702,0.0,2,object_02,5,814,0,8,0,restaurant_4,1,memory-2step-stake-s,590,1531849,0.0-19.0-0.0-0.72,A2E0LU8V4EUX5C,391FPZIE5F2O3PY4X6RTCY19AQ3HU8,3Y5140Z9D1WETYZMC4FMROBCWAMPIU,7,8
73,1,object_08,object_04,493.29999999702,2,1,469.60000000894,0.1111111111111111,2,object_02,1,815,0,8,1,desert_5,1,memory-2step-stake-s,591,1539636,0.0-19.0-0.0-0.73,A2E0LU8V4EUX5C,391FPZIE5F2O3PY4X6RTCY19AQ3HU8,3Y5140Z9D1WETYZMC4FMROBCWAMPIU,2,1
74,3,object_03,object_07,425.5,6,1,505.20000000298,0.6666666666666666,2,object_02,5,845,0,6,6,library_3,1,memory-2step-stake-s,592,1547967,0.0-19.0-0.0-0.74,A2E0LU8V4EUX5C,391FPZIE5F2O3PY4X6RTCY19AQ3HU8,3Y5140Z9D1WETYZMC4FMROBCWAMPIU,6,5
75,2,object_09,object_06,366.5,3,2,784.60000000894,0.8888888888888888,1,object_10,1,853,0,8,7,forest_8,1,memory-2step-stake-s,593,1556779,0.0-19.0-0.0-0.75,A2E0LU8V4EUX5C,391FPZIE5F2O3PY4X6RTCY19AQ3HU8,3Y5140Z9D1WETYZMC4FMROBCWAMPIU,4,3
76,4,object_05,object_01,604.10000000894,7,1,613.20000000298,0.8888888888888888,1,object_10,5,893,0,8,5,restaurant_4,1,memory-2step-stake-s,594,1565417,0.0-19.0-0.0-0.76,A2E0LU8V4EUX5C,391FPZIE5F2O3PY4X6RTCY19AQ3HU8,3Y5140Z9D1WETYZMC4FMROBCWAMPIU,7,8
77,1,object_04,object_08,295.5,2,2,698.5,0.4444444444444444,2,object_02,1,897,0,6,4,desert_3,1,memory-2step-stake-s,595,1573744,0.0-19.0-0.0-0.77,A2E0LU8V4EUX5C,391FPZIE5F2O3PY4X6RTCY19AQ3HU8,3Y5140Z9D1WETYZMC4FMROBCWAMPIU,1,2
78,3,object_07,object_03,349.79999999702,5,1,453.70000000298,1.0,1,object_10,5,942,0,9,7,library_5,1,memory-2step-stake-s,596,1582332,0.0-19.0-0.0-0.78,A2E0LU8V4EUX5C,391FPZIE5F2O3PY4X6RTCY19AQ3HU8,3Y5140Z9D1WETYZMC4FMROBCWAMPIU,5,6
79,4,object_01,object_05,242.5,8,1,450.70000000298,1.0,2,object_02,1,951,0,7,9,restaurant_3,1,memory-2step-stake-s,597,1590911,0.0-19.0-0.0-0.79,A2E0LU8V4EUX5C,391FPZIE5F2O3PY4X6RTCY19AQ3HU8,3Y5140Z9D1WETYZMC4FMROBCWAMPIU,8,7
80,1,object_04,object_08,325.60000000894,2,2,541.29999999702,0.8888888888888888,2,object_02,1,959,0,5,8,desert_3,1,memory-2step-stake-s,598,1599488,0.0-19.0-0.0-0.80,A2E0LU8V4EUX5C,391FPZIE5F2O3PY4X6RTCY19AQ3HU8,3Y5140Z9D1WETYZMC4FMROBCWAMPIU,1,2
81,1,object_04,object_08,392.09999999404,2,2,415.90000000596,0.7777777777777778,2,object_02,1,966,0,5,7,desert_7,1,memory-2step-stake-s,599,1607828,0.0-19.0-0.0-0.81,A2E0LU8V4EUX5C,391FPZIE5F2O3PY4X6RTCY19AQ3HU8,3Y5140Z9D1WETYZMC4FMROBCWAMPIU,1,2
82,1,object_08,object_04,436.79999999702,2,1,917.69999998808,0.7777777777777778,2,object_02,5,1001,0,2,7,desert_5,1,memory-2step-stake-s,600,1616669,0.0-19.0-0.0-0.82,A2E0LU8V4EUX5C,391FPZIE5F2O3PY4X6RTCY19AQ3HU8,3Y5140Z9D1WETYZMC4FMROBCWAMPIU,2,1
83,1,object_08,object_04,548.79999999702,2,1,310.5,0.6666666666666666,2,object_02,1,1007,0,1,6,desert_1,1,memory-2step-stake-s,601,1624809,0.0-19.0-0.0-0.83,A2E0LU8V4EUX5C,391FPZIE5F2O3PY4X6RTCY19AQ3HU8,3Y5140Z9D1WETYZMC4FMROBCWAMPIU,2,1
84,1,object_08,object_04,227.5,1,2,300.60000000894,0.1111111111111111,1,object_10,1,1008,0,1,3,desert_7,1,memory-2step-stake-s,602,1632431,0.0-19.0-0.0-0.84,A2E0LU8V4EUX5C,391FPZIE5F2O3PY4X6RTCY19AQ3HU8,3Y5140Z9D1WETYZMC4FMROBCWAMPIU,2,1
85,1,object_08,object_04,341.60000000894,2,1,397.39999999106,0.0,2,object_02,1,1008,0,1,0,desert_5,1,memory-2step-stake-s,603,1640048,0.0-19.0-0.0-0.85,A2E0LU8V4EUX5C,391FPZIE5F2O3PY4X6RTCY19AQ3HU8,3Y5140Z9D1WETYZMC4FMROBCWAMPIU,2,1
86,2,object_06,object_09,247.40000000596,4,2,400.5,0.1111111111111111,2,object_02,5,1013,0,3,1,forest_4,1,memory-2step-stake-s,604,1647768,0.0-19.0-0.0-0.86,A2E0LU8V4EUX5C,391FPZIE5F2O3PY4X6RTCY19AQ3HU8,3Y5140Z9D1WETYZMC4FMROBCWAMPIU,3,4
87,1,object_04,object_08,381.70000000298,2,2,592.19999998808,0.1111111111111111,2,object_02,1,1014,0,4,1,desert_1,1,memory-2step-stake-s,605,1655679,0.0-19.0-0.0-0.87,A2E0LU8V4EUX5C,391FPZIE5F2O3PY4X6RTCY19AQ3HU8,3Y5140Z9D1WETYZMC4FMROBCWAMPIU,1,2
88,3,object_07,object_03,262.0,5,1,476.5,0.2222222222222222,1,object_10,5,1024,0,2,0,library_6,1,memory-2step-stake-s,606,1663581,0.0-19.0-0.0-0.88,A2E0LU8V4EUX5C,391FPZIE5F2O3PY4X6RTCY19AQ3HU8,3Y5140Z9D1WETYZMC4FMROBCWAMPIU,5,6
89,1,object_04,object_08,440.5,2,2,881.39999999106,0.1111111111111111,2,object_02,1,1025,0,5,1,desert_5,1,memory-2step-stake-s,607,1671785,0.0-19.0-0.0-0.89,A2E0LU8V4EUX5C,391FPZIE5F2O3PY4X6RTCY19AQ3HU8,3Y5140Z9D1WETYZMC4FMROBCWAMPIU,1,2
90,2,object_06,object_09,459.90000000596,3,1,365.30000001192,0.4444444444444444,1,object_10,1,1029,0,4,1,forest_6,1,memory-2step-stake-s,608,1679773,0.0-19.0-0.0-0.90,A2E0LU8V4EUX5C,391FPZIE5F2O3PY4X6RTCY19AQ3HU8,3Y5140Z9D1WETYZMC4FMROBCWAMPIU,3,4
91,2,object_09,object_06,279.79999999702,3,2,412.79999999702,0.5555555555555556,1,object_10,1,1034,0,5,0,forest_8,1,memory-2step-stake-s,609,1687909,0.0-19.0-0.0-0.91,A2E0LU8V4EUX5C,391FPZIE5F2O3PY4X6RTCY19AQ3HU8,3Y5140Z9D1WETYZMC4FMROBCWAMPIU,4,3
92,4,object_05,object_01,264.0,7,1,487.90000000596,0.8888888888888888,1,object_10,5,1074,0,8,2,restaurant_4,1,memory-2step-stake-s,610,1696430,0.0-19.0-0.0-0.92,A2E0LU8V4EUX5C,391FPZIE5F2O3PY4X6RTCY19AQ3HU8,3Y5140Z9D1WETYZMC4FMROBCWAMPIU,7,8
93,3,object_07,object_03,414.10000000894,5,1,422.39999999106,0.8888888888888888,1,object_10,5,1114,0,8,2,library_3,1,memory-2step-stake-s,611,1704884,0.0-19.0-0.0-0.93,A2E0LU8V4EUX5C,391FPZIE5F2O3PY4X6RTCY19AQ3HU8,3Y5140Z9D1WETYZMC4FMROBCWAMPIU,5,6
94,3,object_07,object_03,535.20000000298,6,2,542.5,0.4444444444444444,2,object_02,1,1118,0,8,4,library_6,1,memory-2step-stake-s,612,1713054,0.0-19.0-0.0-0.94,A2E0LU8V4EUX5C,391FPZIE5F2O3PY4X6RTCY19AQ3HU8,3Y5140Z9D1WETYZMC4FMROBCWAMPIU,5,6
95,1,object_08,object_04,-1.0,-1,-1,-1.0,0.0,-,0,1,1118,0,9,5,desert_5,1,memory-2step-stake-s,613,1719566,0.0-19.0-0.0-0.95,A2E0LU8V4EUX5C,391FPZIE5F2O3PY4X6RTCY19AQ3HU8,3Y5140Z9D1WETYZMC4FMROBCWAMPIU,2,1
96,4,object_01,object_05,-1.0,-1,-1,-1.0,0.0,-,0,5,1118,0,8,4,restaurant_3,1,memory-2step-stake-s,614,1726080,0.0-19.0-0.0-0.96,A2E0LU8V4EUX5C,391FPZIE5F2O3PY4X6RTCY19AQ3HU8,3Y5140Z9D1WETYZMC4FMROBCWAMPIU,8,7
97,4,object_01,object_05,363.40000000596,7,2,419.09999999404,1.0,1,object_10,1,1127,0,9,5,restaurant_7,1,memory-2step-stake-s,615,1734631,0.0-19.0-0.0-0.97,A2E0LU8V4EUX5C,391FPZIE5F2O3PY4X6RTCY19AQ3HU8,3Y5140Z9D1WETYZMC4FMROBCWAMPIU,8,7
98,3,object_03,object_07,228.70000000298,6,1,444.29999999702,0.6666666666666666,2,object_02,5,1157,0,7,6,library_8,1,memory-2step-stake-s,616,1742906,0.0-19.0-0.0-0.98,A2E0LU8V4EUX5C,391FPZIE5F2O3PY4X6RTCY19AQ3HU8,3Y5140Z9D1WETYZMC4FMROBCWAMPIU,6,5
99,2,object_09,object_06,352.09999999404,4,1,336.09999999404,0.7777777777777778,2,object_02,5,1192,0,6,7,forest_6,1,memory-2step-stake-s,617,1751177,0.0-19.0-0.0-0.99,A2E0LU8V4EUX5C,391FPZIE5F2O3PY4X6RTCY19AQ3HU8,3Y5140Z9D1WETYZMC4FMROBCWAMPIU,4,3
100,3,object_07,object_03,976.0,6,2,273.79999999702,0.4444444444444444,2,object_02,5,1212,0,5,4,library_8,1,memory-2step-stake-s,618,1759079,0.0-19.0-0.0-0.100,A2E0LU8V4EUX5C,391FPZIE5F2O3PY4X6RTCY19AQ3HU8,3Y5140Z9D1WETYZMC4FMROBCWAMPIU,5,6
101,3,object_03,object_07,338.5,6,1,529.5,0.4444444444444444,2,object_02,5,1232,0,1,4,library_8,1,memory-2step-stake-s,619,1767240,0.0-19.0-0.0-0.101,A2E0LU8V4EUX5C,391FPZIE5F2O3PY4X6RTCY19AQ3HU8,3Y5140Z9D1WETYZMC4FMROBCWAMPIU,6,5
102,2,object_06,object_09,388.09999999404,3,1,1165.0,0.1111111111111111,1,object_10,5,1237,0,1,4,forest_8,1,memory-2step-stake-s,620,1775726,0.0-19.0-0.0-0.102,A2E0LU8V4EUX5C,391FPZIE5F2O3PY4X6RTCY19AQ3HU8,3Y5140Z9D1WETYZMC4FMROBCWAMPIU,3,4
103,4,object_05,object_01,516.59999999404,8,2,636.5,0.4444444444444444,2,object_02,1,1241,0,1,4,restaurant_7,1,memory-2step-stake-s,621,1783992,0.0-19.0-0.0-0.103,A2E0LU8V4EUX5C,391FPZIE5F2O3PY4X6RTCY19AQ3HU8,3Y5140Z9D1WETYZMC4FMROBCWAMPIU,7,8
104,1,object_08,object_04,248.0,1,2,355.10000000894,0.1111111111111111,1,object_10,1,1242,0,1,8,desert_7,1,memory-2step-stake-s,622,1791670,0.0-19.0-0.0-0.104,A2E0LU8V4EUX5C,391FPZIE5F2O3PY4X6RTCY19AQ3HU8,3Y5140Z9D1WETYZMC4FMROBCWAMPIU,2,1
105,2,object_06,object_09,271.70000000298,4,2,371.40000000596,0.8888888888888888,2,object_02,1,1250,0,4,8,forest_7,1,memory-2step-stake-s,623,1800079,0.0-19.0-0.0-0.105,A2E0LU8V4EUX5C,391FPZIE5F2O3PY4X6RTCY19AQ3HU8,3Y5140Z9D1WETYZMC4FMROBCWAMPIU,3,4
106,2,object_09,object_06,503.20000000298,4,1,479.0,0.6666666666666666,2,object_02,1,1256,0,2,6,forest_8,1,memory-2step-stake-s,624,1808384,0.0-19.0-0.0-0.106,A2E0LU8V4EUX5C,391FPZIE5F2O3PY4X6RTCY19AQ3HU8,3Y5140Z9D1WETYZMC4FMROBCWAMPIU,4,3
107,2,object_09,object_06,266.40000000596,4,1,500.90000000596,0.7777777777777778,2,object_02,1,1263,0,0,7,forest_6,1,memory-2step-stake-s,625,1816816,0.0-19.0-0.0-0.107,A2E0LU8V4EUX5C,391FPZIE5F2O3PY4X6RTCY19AQ3HU8,3Y5140Z9D1WETYZMC4FMROBCWAMPIU,4,3
108,4,object_01,object_05,226.70000000298,7,2,953.29999999702,0.0,1,object_10,5,1263,0,0,8,restaurant_6,1,memory-2step-stake-s,626,1824993,0.0-19.0-0.0-0.108,A2E0LU8V4EUX5C,391FPZIE5F2O3PY4X6RTCY19AQ3HU8,3Y5140Z9D1WETYZMC4FMROBCWAMPIU,8,7
109,4,object_05,object_01,284.59999999404,7,1,333.09999999404,0.1111111111111111,1,object_10,5,1268,0,1,9,restaurant_6,1,memory-2step-stake-s,627,1832648,0.0-19.0-0.0-0.109,A2E0LU8V4EUX5C,391FPZIE5F2O3PY4X6RTCY19AQ3HU8,3Y5140Z9D1WETYZMC4FMROBCWAMPIU,7,8
110,4,object_05,object_01,281.39999999106,8,2,635.0,0.6666666666666666,2,object_02,5,1298,0,0,6,restaurant_6,1,memory-2step-stake-s,628,1841119,0.0-19.0-0.0-0.110,A2E0LU8V4EUX5C,391FPZIE5F2O3PY4X6RTCY19AQ3HU8,3Y5140Z9D1WETYZMC4FMROBCWAMPIU,7,8
111,2,object_06,object_09,260.09999999404,3,1,333.10000000894,0.1111111111111111,1,object_10,1,1299,0,1,6,forest_8,1,memory-2step-stake-s,629,1848775,0.0-19.0-0.0-0.111,A2E0LU8V4EUX5C,391FPZIE5F2O3PY4X6RTCY19AQ3HU8,3Y5140Z9D1WETYZMC4FMROBCWAMPIU,3,4
112,3,object_03,object_07,275.5,5,2,436.40000000596,0.0,1,object_10,5,1299,0,0,4,library_5,1,memory-2step-stake-s,630,1856432,0.0-19.0-0.0-0.112,A2E0LU8V4EUX5C,391FPZIE5F2O3PY4X6RTCY19AQ3HU8,3Y5140Z9D1WETYZMC4FMROBCWAMPIU,6,5
113,4,object_05,object_01,267.20000000298,7,1,443.79999999702,0.1111111111111111,1,object_10,5,1304,0,1,0,restaurant_6,1,memory-2step-stake-s,631,1864200,0.0-19.0-0.0-0.113,A2E0LU8V4EUX5C,391FPZIE5F2O3PY4X6RTCY19AQ3HU8,3Y5140Z9D1WETYZMC4FMROBCWAMPIU,7,8
114,4,object_05,object_01,353.29999999702,7,1,796.09999999404,0.2222222222222222,1,object_10,5,1314,0,2,1,restaurant_6,1,memory-2step-stake-s,632,1872422,0.0-19.0-0.0-0.114,A2E0LU8V4EUX5C,391FPZIE5F2O3PY4X6RTCY19AQ3HU8,3Y5140Z9D1WETYZMC4FMROBCWAMPIU,7,8
115,2,object_06,object_09,357.5,4,2,477.70000000298,0.2222222222222222,2,object_02,1,1316,0,2,2,forest_6,1,memory-2step-stake-s,633,1880321,0.0-19.0-0.0-0.115,A2E0LU8V4EUX5C,391FPZIE5F2O3PY4X6RTCY19AQ3HU8,3Y5140Z9D1WETYZMC4FMROBCWAMPIU,3,4
116,1,object_04,object_08,563.40000000596,1,1,422.10000000894,0.5555555555555556,1,object_10,1,1321,0,5,1,desert_7,1,memory-2step-stake-s,634,1888465,0.0-19.0-0.0-0.116,A2E0LU8V4EUX5C,391FPZIE5F2O3PY4X6RTCY19AQ3HU8,3Y5140Z9D1WETYZMC4FMROBCWAMPIU,1,2
117,4,object_05,object_01,255.0,7,1,505.0,0.8888888888888888,1,object_10,5,1361,0,8,2,restaurant_3,1,memory-2step-stake-s,635,1896995,0.0-19.0-0.0-0.117,A2E0LU8V4EUX5C,391FPZIE5F2O3PY4X6RTCY19AQ3HU8,3Y5140Z9D1WETYZMC4FMROBCWAMPIU,7,8
118,2,object_09,object_06,259.90000000596,4,1,924.30000001192,0.5555555555555556,2,object_02,5,1386,0,8,5,forest_7,1,memory-2step-stake-s,636,1905645,0.0-19.0-0.0-0.118,A2E0LU8V4EUX5C,391FPZIE5F2O3PY4X6RTCY19AQ3HU8,3Y5140Z9D1WETYZMC4FMROBCWAMPIU,4,3
119,2,object_09,object_06,412.5,4,1,525.20000000298,0.3333333333333333,2,object_02,1,1389,0,9,3,forest_7,1,memory-2step-stake-s,637,1913687,0.0-19.0-0.0-0.119,A2E0LU8V4EUX5C,391FPZIE5F2O3PY4X6RTCY19AQ3HU8,3Y5140Z9D1WETYZMC4FMROBCWAMPIU,4,3
120,4,object_05,object_01,224.19999998808,8,2,1217.8999999911,0.4444444444444444,2,object_02,1,1393,0,7,4,restaurant_6,1,memory-2step-stake-s,638,1922523,0.0-19.0-0.0-0.120,A2E0LU8V4EUX5C,391FPZIE5F2O3PY4X6RTCY19AQ3HU8,3Y5140Z9D1WETYZMC4FMROBCWAMPIU,7,8
121,2,object_09,object_06,215.40000000596,4,1,632.40000000596,0.8888888888888888,2,object_02,1,1401,0,8,8,forest_6,1,memory-2step-stake-s,639,1931178,0.0-19.0-0.0-0.121,A2E0LU8V4EUX5C,391FPZIE5F2O3PY4X6RTCY19AQ3HU8,3Y5140Z9D1WETYZMC4FMROBCWAMPIU,4,3
122,4,object_01,object_05,252.59999999404,7,2,390.10000000894,0.8888888888888888,1,object_10,5,1441,0,8,7,restaurant_4,1,memory-2step-stake-s,640,1939594,0.0-19.0-0.0-0.122,A2E0LU8V4EUX5C,391FPZIE5F2O3PY4X6RTCY19AQ3HU8,3Y5140Z9D1WETYZMC4FMROBCWAMPIU,8,7
123,2,object_09,object_06,693.30000001192,3,2,407.29999999702,0.7777777777777778,1,object_10,1,1448,0,7,7,forest_7,1,memory-2step-stake-s,641,1947927,0.0-19.0-0.0-0.123,A2E0LU8V4EUX5C,391FPZIE5F2O3PY4X6RTCY19AQ3HU8,3Y5140Z9D1WETYZMC4FMROBCWAMPIU,4,3
124,3,object_07,object_03,182.59999999404,5,1,463.89999999106,0.5555555555555556,1,object_10,5,1473,0,5,8,library_8,1,memory-2step-stake-s,642,1956116,0.0-19.0-0.0-0.124,A2E0LU8V4EUX5C,391FPZIE5F2O3PY4X6RTCY19AQ3HU8,3Y5140Z9D1WETYZMC4FMROBCWAMPIU,5,6
125,3,object_07,object_03,354.09999999404,6,2,643.60000000894,0.8888888888888888,2,object_02,5,1513,0,4,8,library_6,1,memory-2step-stake-s,643,1964788,0.0-19.0-0.0-0.125,A2E0LU8V4EUX5C,391FPZIE5F2O3PY4X6RTCY19AQ3HU8,3Y5140Z9D1WETYZMC4FMROBCWAMPIU,5,6
126,2,object_09,object_06,353.20000000298,4,1,412.10000000894,0.8888888888888888,2,object_02,5,1553,0,6,8,forest_7,1,memory-2step-stake-s,644,1973224,0.0-19.0-0.0-0.126,A2E0LU8V4EUX5C,391FPZIE5F2O3PY4X6RTCY19AQ3HU8,3Y5140Z9D1WETYZMC4FMROBCWAMPIU,4,3
127,3,object_03,object_07,143.29999999702,6,1,399.0,1.0,2,object_02,5,1598,0,8,9,library_6,1,memory-2step-stake-s,645,1981752,0.0-19.0-0.0-0.127,A2E0LU8V4EUX5C,391FPZIE5F2O3PY4X6RTCY19AQ3HU8,3Y5140Z9D1WETYZMC4FMROBCWAMPIU,6,5
128,1,object_04,object_08,356.79999999702,1,1,560.0,0.8888888888888888,1,object_10,1,1606,0,8,7,desert_1,1,memory-2step-stake-s,647,2089640,0.0-19.0-0.1-0.128,A2E0LU8V4EUX5C,391FPZIE5F2O3PY4X6RTCY19AQ3HU8,3Y5140Z9D1WETYZMC4FMROBCWAMPIU,1,2
129,3,object_07,object_03,302.70000000298,6,2,527.5,0.8888888888888888,2,object_02,5,1646,0,9,8,library_5,1,memory-2step-stake-s,648,2098193,0.0-19.0-0.1-0.129,A2E0LU8V4EUX5C,391FPZIE5F2O3PY4X6RTCY19AQ3HU8,3Y5140Z9D1WETYZMC4FMROBCWAMPIU,5,6
130,4,object_01,object_05,298.39999999106,8,1,438.09999999404,0.5555555555555556,2,object_02,5,1671,0,4,5,restaurant_6,1,memory-2step-stake-s,649,2106356,0.0-19.0-0.1-0.130,A2E0LU8V4EUX5C,391FPZIE5F2O3PY4X6RTCY19AQ3HU8,3Y5140Z9D1WETYZMC4FMROBCWAMPIU,8,7
131,1,object_04,object_08,329.20000000298,2,2,450.29999999702,0.6666666666666666,2,object_02,1,1677,0,6,6,desert_3,1,memory-2step-stake-s,650,2114631,0.0-19.0-0.1-0.131,A2E0LU8V4EUX5C,391FPZIE5F2O3PY4X6RTCY19AQ3HU8,3Y5140Z9D1WETYZMC4FMROBCWAMPIU,1,2
132,1,object_04,object_08,294.20000000298,2,2,446.10000000894,0.7777777777777778,2,object_02,1,1684,0,7,7,desert_7,1,memory-2step-stake-s,651,2123010,0.0-19.0-0.1-0.132,A2E0LU8V4EUX5C,391FPZIE5F2O3PY4X6RTCY19AQ3HU8,3Y5140Z9D1WETYZMC4FMROBCWAMPIU,1,2
133,4,object_01,object_05,370.60000000894,8,1,428.40000000596,0.8888888888888888,2,object_02,5,1724,0,7,8,restaurant_4,1,memory-2step-stake-s,652,2131467,0.0-19.0-0.1-0.133,A2E0LU8V4EUX5C,391FPZIE5F2O3PY4X6RTCY19AQ3HU8,3Y5140Z9D1WETYZMC4FMROBCWAMPIU,8,7
134,1,object_04,object_08,303.10000000894,2,2,538.30000001192,0.7777777777777778,2,object_02,1,1731,0,6,7,desert_7,1,memory-2step-stake-s,653,2139935,0.0-19.0-0.1-0.134,A2E0LU8V4EUX5C,391FPZIE5F2O3PY4X6RTCY19AQ3HU8,3Y5140Z9D1WETYZMC4FMROBCWAMPIU,1,2
135,2,object_09,object_06,237.59999999404,3,2,399.0,0.7777777777777778,1,object_10,5,1766,0,7,5,forest_4,1,memory-2step-stake-s,654,2148263,0.0-19.0-0.1-0.135,A2E0LU8V4EUX5C,391FPZIE5F2O3PY4X6RTCY19AQ3HU8,3Y5140Z9D1WETYZMC4FMROBCWAMPIU,4,3
136,2,object_09,object_06,1110.0,3,2,604.79999999702,1.0,1,object_10,1,1775,0,9,7,forest_7,1,memory-2step-stake-s,655,2157003,0.0-19.0-0.1-0.136,A2E0LU8V4EUX5C,391FPZIE5F2O3PY4X6RTCY19AQ3HU8,3Y5140Z9D1WETYZMC4FMROBCWAMPIU,4,3
137,2,object_06,object_09,305.70000000298,4,2,441.70000000298,0.6666666666666666,2,object_02,1,1781,0,8,6,forest_7,1,memory-2step-stake-s,656,2165271,0.0-19.0-0.1-0.137,A2E0LU8V4EUX5C,391FPZIE5F2O3PY4X6RTCY19AQ3HU8,3Y5140Z9D1WETYZMC4FMROBCWAMPIU,3,4
138,1,object_08,object_04,356.0,2,1,788.0,0.4444444444444444,2,object_02,1,1785,0,6,4,desert_1,1,memory-2step-stake-s,657,2173685,0.0-19.0-0.1-0.138,A2E0LU8V4EUX5C,391FPZIE5F2O3PY4X6RTCY19AQ3HU8,3Y5140Z9D1WETYZMC4FMROBCWAMPIU,2,1
139,1,object_08,object_04,271.09999999404,2,1,393.5,0.6666666666666666,2,object_02,1,1791,0,9,6,desert_1,1,memory-2step-stake-s,658,2181905,0.0-19.0-0.1-0.139,A2E0LU8V4EUX5C,391FPZIE5F2O3PY4X6RTCY19AQ3HU8,3Y5140Z9D1WETYZMC4FMROBCWAMPIU,2,1
140,2,object_09,object_06,340.60000000894,3,2,507.40000000596,0.7777777777777778,1,object_10,1,1798,0,7,7,forest_6,1,memory-2step-stake-s,659,2190341,0.0-19.0-0.1-0.140,A2E0LU8V4EUX5C,391FPZIE5F2O3PY4X6RTCY19AQ3HU8,3Y5140Z9D1WETYZMC4FMROBCWAMPIU,4,3
141,2,object_06,object_09,251.09999999404,3,1,418.70000000298,0.8888888888888888,1,object_10,1,1806,0,8,7,forest_4,1,memory-2step-stake-s,660,2198788,0.0-19.0-0.1-0.141,A2E0LU8V4EUX5C,391FPZIE5F2O3PY4X6RTCY19AQ3HU8,3Y5140Z9D1WETYZMC4FMROBCWAMPIU,3,4
142,3,object_03,object_07,358.30000001192,5,2,505.0,1.0,1,object_10,5,1851,0,9,6,library_6,1,memory-2step-stake-s,661,2207428,0.0-19.0-0.1-0.142,A2E0LU8V4EUX5C,391FPZIE5F2O3PY4X6RTCY19AQ3HU8,3Y5140Z9D1WETYZMC4FMROBCWAMPIU,6,5
143,4,object_01,object_05,383.0,8,1,465.20000000298,0.5555555555555556,2,object_02,1,1856,0,9,5,restaurant_6,1,memory-2step-stake-s,662,2215623,0.0-19.0-0.1-0.143,A2E0LU8V4EUX5C,391FPZIE5F2O3PY4X6RTCY19AQ3HU8,3Y5140Z9D1WETYZMC4FMROBCWAMPIU,8,7
144,3,object_07,object_03,277.90000000596,6,2,501.70000000298,0.3333333333333333,2,object_02,5,1871,0,9,3,library_5,1,memory-2step-stake-s,663,2223646,0.0-19.0-0.1-0.144,A2E0LU8V4EUX5C,391FPZIE5F2O3PY4X6RTCY19AQ3HU8,3Y5140Z9D1WETYZMC4FMROBCWAMPIU,5,6
145,2,object_09,object_06,267.0,4,1,795.5,0.3333333333333333,2,object_02,1,1874,0,8,3,forest_8,1,memory-2step-stake-s,664,2231969,0.0-19.0-0.1-0.145,A2E0LU8V4EUX5C,391FPZIE5F2O3PY4X6RTCY19AQ3HU8,3Y5140Z9D1WETYZMC4FMROBCWAMPIU,4,3
146,2,object_09,object_06,347.5,3,2,482.40000000596,0.6666666666666666,1,object_10,1,1880,0,6,0,forest_8,1,memory-2step-stake-s,665,2240281,0.0-19.0-0.1-0.146,A2E0LU8V4EUX5C,391FPZIE5F2O3PY4X6RTCY19AQ3HU8,3Y5140Z9D1WETYZMC4FMROBCWAMPIU,4,3
147,1,object_08,object_04,276.09999999404,2,1,492.70000000298,0.4444444444444444,2,object_02,1,1884,0,7,4,desert_1,1,memory-2step-stake-s,666,2248399,0.0-19.0-0.1-0.147,A2E0LU8V4EUX5C,391FPZIE5F2O3PY4X6RTCY19AQ3HU8,3Y5140Z9D1WETYZMC4FMROBCWAMPIU,2,1
148,3,object_03,object_07,309.80000001192,6,1,749.40000000596,0.2222222222222222,2,object_02,5,1894,0,8,2,library_6,1,memory-2step-stake-s,667,2256572,0.0-19.0-0.1-0.148,A2E0LU8V4EUX5C,391FPZIE5F2O3PY4X6RTCY19AQ3HU8,3Y5140Z9D1WETYZMC4FMROBCWAMPIU,6,5
149,4,object_01,object_05,393.30000001192,8,1,746.0,0.6666666666666666,2,object_02,5,1924,0,5,6,restaurant_6,1,memory-2step-stake-s,668,2265146,0.0-19.0-0.1-0.149,A2E0LU8V4EUX5C,391FPZIE5F2O3PY4X6RTCY19AQ3HU8,3Y5140Z9D1WETYZMC4FMROBCWAMPIU,8,7
150,4,object_05,object_01,384.5,7,1,619.09999999404,0.7777777777777778,1,object_10,5,1959,0,7,5,restaurant_3,1,memory-2step-stake-s,669,2273695,0.0-19.0-0.1-0.150,A2E0LU8V4EUX5C,391FPZIE5F2O3PY4X6RTCY19AQ3HU8,3Y5140Z9D1WETYZMC4FMROBCWAMPIU,7,8
151,4,object_01,object_05,422.20000000298,7,2,415.59999999404,0.6666666666666666,1,object_10,5,1989,0,6,5,restaurant_7,1,memory-2step-stake-s,670,2281937,0.0-19.0-0.1-0.151,A2E0LU8V4EUX5C,391FPZIE5F2O3PY4X6RTCY19AQ3HU8,3Y5140Z9D1WETYZMC4FMROBCWAMPIU,8,7
152,4,object_01,object_05,283.29999999702,8,1,530.09999999404,0.6666666666666666,2,object_02,5,2019,0,9,6,restaurant_4,1,memory-2step-stake-s,671,2290302,0.0-19.0-0.1-0.152,A2E0LU8V4EUX5C,391FPZIE5F2O3PY4X6RTCY19AQ3HU8,3Y5140Z9D1WETYZMC4FMROBCWAMPIU,8,7
153,1,object_04,object_08,475.60000000894,1,1,451.20000000298,0.8888888888888888,1,object_10,5,2059,0,8,7,desert_5,1,memory-2step-stake-s,672,2298789,0.0-19.0-0.1-0.153,A2E0LU8V4EUX5C,391FPZIE5F2O3PY4X6RTCY19AQ3HU8,3Y5140Z9D1WETYZMC4FMROBCWAMPIU,1,2
154,4,object_05,object_01,294.5,7,1,469.40000000596,0.7777777777777778,1,object_10,1,2066,0,7,3,restaurant_4,1,memory-2step-stake-s,673,2307190,0.0-19.0-0.1-0.154,A2E0LU8V4EUX5C,391FPZIE5F2O3PY4X6RTCY19AQ3HU8,3Y5140Z9D1WETYZMC4FMROBCWAMPIU,7,8
155,3,object_07,object_03,398.09999999404,5,1,637.79999999702,0.5555555555555556,1,object_10,5,2091,0,5,1,library_5,1,memory-2step-stake-s,674,2315553,0.0-19.0-0.1-0.155,A2E0LU8V4EUX5C,391FPZIE5F2O3PY4X6RTCY19AQ3HU8,3Y5140Z9D1WETYZMC4FMROBCWAMPIU,5,6
156,3,object_03,object_07,418.40000000596,5,2,499.5,0.8888888888888888,1,object_10,5,2131,0,8,4,library_3,1,memory-2step-stake-s,675,2324089,0.0-19.0-0.1-0.156,A2E0LU8V4EUX5C,391FPZIE5F2O3PY4X6RTCY19AQ3HU8,3Y5140Z9D1WETYZMC4FMROBCWAMPIU,6,5
157,2,object_09,object_06,274.20000000298,3,2,483.70000000298,0.8888888888888888,1,object_10,1,2139,0,8,3,forest_7,1,memory-2step-stake-s,676,2332606,0.0-19.0-0.1-0.157,A2E0LU8V4EUX5C,391FPZIE5F2O3PY4X6RTCY19AQ3HU8,3Y5140Z9D1WETYZMC4FMROBCWAMPIU,4,3
158,1,object_04,object_08,324.70000000298,2,2,436.40000000596,0.0,2,object_02,1,2139,0,8,0,desert_1,1,memory-2step-stake-s,677,2340264,0.0-19.0-0.1-0.158,A2E0LU8V4EUX5C,391FPZIE5F2O3PY4X6RTCY19AQ3HU8,3Y5140Z9D1WETYZMC4FMROBCWAMPIU,1,2
159,4,object_05,object_01,331.0,8,2,472.5,0.1111111111111111,2,object_02,5,2144,0,9,1,restaurant_3,1,memory-2step-stake-s,678,2348062,0.0-19.0-0.1-0.159,A2E0LU8V4EUX5C,391FPZIE5F2O3PY4X6RTCY19AQ3HU8,3Y5140Z9D1WETYZMC4FMROBCWAMPIU,7,8
160,4,object_01,object_05,435.69999998808,7,2,594.19999998808,0.8888888888888888,1,object_10,5,2184,0,8,1,restaurant_6,1,memory-2step-stake-s,679,2356694,0.0-19.0-0.1-0.160,A2E0LU8V4EUX5C,391FPZIE5F2O3PY4X6RTCY19AQ3HU8,3Y5140Z9D1WETYZMC4FMROBCWAMPIU,8,7
161,3,object_07,object_03,317.29999999702,6,2,509.89999999106,0.3333333333333333,2,object_02,5,2199,0,7,3,library_3,1,memory-2step-stake-s,680,2364730,0.0-19.0-0.1-0.161,A2E0LU8V4EUX5C,391FPZIE5F2O3PY4X6RTCY19AQ3HU8,3Y5140Z9D1WETYZMC4FMROBCWAMPIU,5,6
162,3,object_07,object_03,281.09999999404,5,1,447.5,0.8888888888888888,1,object_10,5,2239,0,8,4,library_3,1,memory-2step-stake-s,681,2373215,0.0-19.0-0.1-0.162,A2E0LU8V4EUX5C,391FPZIE5F2O3PY4X6RTCY19AQ3HU8,3Y5140Z9D1WETYZMC4FMROBCWAMPIU,5,6
163,3,object_07,object_03,319.70000000298,6,2,800.5,0.4444444444444444,2,object_02,5,2259,0,8,4,library_3,1,memory-2step-stake-s,682,2381638,0.0-19.0-0.1-0.163,A2E0LU8V4EUX5C,391FPZIE5F2O3PY4X6RTCY19AQ3HU8,3Y5140Z9D1WETYZMC4FMROBCWAMPIU,5,6
164,3,object_03,object_07,308.29999999702,6,1,573.20000000298,0.5555555555555556,2,object_02,5,2284,0,8,5,library_5,1,memory-2step-stake-s,683,2389941,0.0-19.0-0.1-0.164,A2E0LU8V4EUX5C,391FPZIE5F2O3PY4X6RTCY19AQ3HU8,3Y5140Z9D1WETYZMC4FMROBCWAMPIU,6,5
165,2,object_09,object_06,291.5,3,2,475.70000000298,1.0,1,object_10,1,2293,0,9,6,forest_7,1,memory-2step-stake-s,684,2398550,0.0-19.0-0.1-0.165,A2E0LU8V4EUX5C,391FPZIE5F2O3PY4X6RTCY19AQ3HU8,3Y5140Z9D1WETYZMC4FMROBCWAMPIU,4,3
166,3,object_03,object_07,420.29999999702,5,2,444.69999998808,1.0,1,object_10,5,2338,0,9,6,library_5,1,memory-2step-stake-s,685,2407118,0.0-19.0-0.1-0.166,A2E0LU8V4EUX5C,391FPZIE5F2O3PY4X6RTCY19AQ3HU8,3Y5140Z9D1WETYZMC4FMROBCWAMPIU,6,5
167,2,object_09,object_06,444.79999999702,4,1,855.70000000298,0.8888888888888888,2,object_02,1,2346,0,8,8,forest_4,1,memory-2step-stake-s,686,2415993,0.0-19.0-0.1-0.167,A2E0LU8V4EUX5C,391FPZIE5F2O3PY4X6RTCY19AQ3HU8,3Y5140Z9D1WETYZMC4FMROBCWAMPIU,4,3
168,3,object_07,object_03,284.40000000596,6,2,454.09999999404,0.6666666666666666,2,object_02,5,2376,0,8,6,library_6,1,memory-2step-stake-s,687,2424272,0.0-19.0-0.1-0.168,A2E0LU8V4EUX5C,391FPZIE5F2O3PY4X6RTCY19AQ3HU8,3Y5140Z9D1WETYZMC4FMROBCWAMPIU,5,6
169,3,object_07,object_03,328.09999999404,6,2,479.5,0.8888888888888888,2,object_02,5,2416,0,6,8,library_3,1,memory-2step-stake-s,688,2432779,0.0-19.0-0.1-0.169,A2E0LU8V4EUX5C,391FPZIE5F2O3PY4X6RTCY19AQ3HU8,3Y5140Z9D1WETYZMC4FMROBCWAMPIU,5,6
170,1,object_08,object_04,484.39999999106,2,1,701.79999999702,0.4444444444444444,2,object_02,1,2420,0,6,4,desert_5,1,memory-2step-stake-s,689,2441102,0.0-19.0-0.1-0.170,A2E0LU8V4EUX5C,391FPZIE5F2O3PY4X6RTCY19AQ3HU8,3Y5140Z9D1WETYZMC4FMROBCWAMPIU,2,1
171,2,object_09,object_06,352.79999999702,4,1,338.39999999106,0.4444444444444444,2,object_02,1,2424,0,7,4,forest_8,1,memory-2step-stake-s,690,2449062,0.0-19.0-0.1-0.171,A2E0LU8V4EUX5C,391FPZIE5F2O3PY4X6RTCY19AQ3HU8,3Y5140Z9D1WETYZMC4FMROBCWAMPIU,4,3
172,1,object_08,object_04,289.09999999404,2,1,1099.299999997,0.6666666666666666,2,object_02,1,2430,0,9,6,desert_1,1,memory-2step-stake-s,691,2457982,0.0-19.0-0.1-0.172,A2E0LU8V4EUX5C,391FPZIE5F2O3PY4X6RTCY19AQ3HU8,3Y5140Z9D1WETYZMC4FMROBCWAMPIU,2,1
173,4,object_05,object_01,295.29999999702,7,1,465.70000000298,0.6666666666666666,1,object_10,5,2460,0,6,5,restaurant_6,1,memory-2step-stake-s,692,2466271,0.0-19.0-0.1-0.173,A2E0LU8V4EUX5C,391FPZIE5F2O3PY4X6RTCY19AQ3HU8,3Y5140Z9D1WETYZMC4FMROBCWAMPIU,7,8
174,4,object_05,object_01,256.29999999702,7,1,363.5,0.4444444444444444,1,object_10,5,2480,0,4,5,restaurant_4,1,memory-2step-stake-s,693,2474253,0.0-19.0-0.1-0.174,A2E0LU8V4EUX5C,391FPZIE5F2O3PY4X6RTCY19AQ3HU8,3Y5140Z9D1WETYZMC4FMROBCWAMPIU,7,8
175,2,object_09,object_06,313.90000000596,3,2,434.39999999106,0.2222222222222222,1,object_10,1,2482,0,2,7,forest_8,1,memory-2step-stake-s,694,2482107,0.0-19.0-0.1-0.175,A2E0LU8V4EUX5C,391FPZIE5F2O3PY4X6RTCY19AQ3HU8,3Y5140Z9D1WETYZMC4FMROBCWAMPIU,4,3
176,2,object_06,object_09,274.59999999404,3,1,419.0,0.6666666666666666,1,object_10,5,2512,0,6,6,forest_6,1,memory-2step-stake-s,695,2490361,0.0-19.0-0.1-0.176,A2E0LU8V4EUX5C,391FPZIE5F2O3PY4X6RTCY19AQ3HU8,3Y5140Z9D1WETYZMC4FMROBCWAMPIU,3,4
177,1,object_04,object_08,311.79999999702,2,2,512.39999999106,0.7777777777777778,2,object_02,1,2519,0,7,7,desert_7,1,memory-2step-stake-s,696,2498797,0.0-19.0-0.1-0.177,A2E0LU8V4EUX5C,391FPZIE5F2O3PY4X6RTCY19AQ3HU8,3Y5140Z9D1WETYZMC4FMROBCWAMPIU,1,2
178,4,object_01,object_05,279.79999999702,8,1,393.20000000298,0.8888888888888888,2,object_02,1,2527,0,7,8,restaurant_7,1,memory-2step-stake-s,697,2507221,0.0-19.0-0.1-0.178,A2E0LU8V4EUX5C,391FPZIE5F2O3PY4X6RTCY19AQ3HU8,3Y5140Z9D1WETYZMC4FMROBCWAMPIU,8,7
179,1,object_08,object_04,407.70000000298,2,1,440.40000000596,0.7777777777777778,2,object_02,1,2534,0,8,7,desert_3,1,memory-2step-stake-s,698,2515587,0.0-19.0-0.1-0.179,A2E0LU8V4EUX5C,391FPZIE5F2O3PY4X6RTCY19AQ3HU8,3Y5140Z9D1WETYZMC4FMROBCWAMPIU,2,1
180,2,object_09,object_06,268.5,4,1,342.29999999702,0.6666666666666666,2,object_02,5,2564,0,9,6,forest_8,1,memory-2step-stake-s,699,2523753,0.0-19.0-0.1-0.180,A2E0LU8V4EUX5C,391FPZIE5F2O3PY4X6RTCY19AQ3HU8,3Y5140Z9D1WETYZMC4FMROBCWAMPIU,4,3
181,3,object_03,object_07,412.5,5,2,510.29999999702,1.0,1,object_10,5,2609,0,9,5,library_5,1,memory-2step-stake-s,700,2532392,0.0-19.0-0.1-0.181,A2E0LU8V4EUX5C,391FPZIE5F2O3PY4X6RTCY19AQ3HU8,3Y5140Z9D1WETYZMC4FMROBCWAMPIU,6,5
182,4,object_05,object_01,269.0,8,2,573.69999998808,1.0,2,object_02,5,2654,0,8,9,restaurant_6,1,memory-2step-stake-s,701,2541099,0.0-19.0-0.1-0.182,A2E0LU8V4EUX5C,391FPZIE5F2O3PY4X6RTCY19AQ3HU8,3Y5140Z9D1WETYZMC4FMROBCWAMPIU,7,8
183,3,object_03,object_07,497.70000000298,5,2,409.29999999702,0.7777777777777778,1,object_10,1,2661,0,7,7,library_3,1,memory-2step-stake-s,702,2549437,0.0-19.0-0.1-0.183,A2E0LU8V4EUX5C,391FPZIE5F2O3PY4X6RTCY19AQ3HU8,3Y5140Z9D1WETYZMC4FMROBCWAMPIU,6,5
184,1,object_04,object_08,296.5,1,1,434.20000000298,0.4444444444444444,1,object_10,1,2665,0,4,7,desert_5,1,memory-2step-stake-s,703,2557493,0.0-19.0-0.1-0.184,A2E0LU8V4EUX5C,391FPZIE5F2O3PY4X6RTCY19AQ3HU8,3Y5140Z9D1WETYZMC4FMROBCWAMPIU,1,2
185,2,object_06,object_09,272.70000000298,4,2,501.10000000894,0.2222222222222222,2,object_02,5,2675,0,2,2,forest_4,1,memory-2step-stake-s,704,2565413,0.0-19.0-0.1-0.185,A2E0LU8V4EUX5C,391FPZIE5F2O3PY4X6RTCY19AQ3HU8,3Y5140Z9D1WETYZMC4FMROBCWAMPIU,3,4
186,3,object_07,object_03,391.09999999404,5,1,881.59999999404,0.0,1,object_10,5,2675,0,0,5,library_3,1,memory-2step-stake-s,705,2573514,0.0-19.0-0.1-0.186,A2E0LU8V4EUX5C,391FPZIE5F2O3PY4X6RTCY19AQ3HU8,3Y5140Z9D1WETYZMC4FMROBCWAMPIU,5,6
187,2,object_09,object_06,636.70000000298,4,1,429.70000000298,0.6666666666666666,2,object_02,1,2681,0,1,6,forest_6,1,memory-2step-stake-s,706,2581771,0.0-19.0-0.1-0.187,A2E0LU8V4EUX5C,391FPZIE5F2O3PY4X6RTCY19AQ3HU8,3Y5140Z9D1WETYZMC4FMROBCWAMPIU,4,3
188,3,object_07,object_03,298.70000000298,5,1,267.09999999404,0.4444444444444444,1,object_10,5,2701,0,4,5,library_3,1,memory-2step-stake-s,707,2589658,0.0-19.0-0.1-0.188,A2E0LU8V4EUX5C,391FPZIE5F2O3PY4X6RTCY19AQ3HU8,3Y5140Z9D1WETYZMC4FMROBCWAMPIU,5,6
189,2,object_06,object_09,354.40000000596,4,2,381.59999999404,0.8888888888888888,2,object_02,1,2709,0,6,8,forest_8,1,memory-2step-stake-s,708,2598067,0.0-19.0-0.1-0.189,A2E0LU8V4EUX5C,391FPZIE5F2O3PY4X6RTCY19AQ3HU8,3Y5140Z9D1WETYZMC4FMROBCWAMPIU,3,4
190,2,object_09,object_06,419.40000000596,3,2,338.90000000596,0.8888888888888888,1,object_10,1,2717,0,8,9,forest_4,1,memory-2step-stake-s,709,2606436,0.0-19.0-0.1-0.190,A2E0LU8V4EUX5C,391FPZIE5F2O3PY4X6RTCY19AQ3HU8,3Y5140Z9D1WETYZMC4FMROBCWAMPIU,4,3
191,3,object_07,object_03,216.09999999404,5,1,360.59999999404,0.7777777777777778,1,object_10,5,2752,0,7,7,library_8,1,memory-2step-stake-s,710,2614725,0.0-19.0-0.1-0.191,A2E0LU8V4EUX5C,391FPZIE5F2O3PY4X6RTCY19AQ3HU8,3Y5140Z9D1WETYZMC4FMROBCWAMPIU,5,6
192,3,object_07,object_03,333.70000000298,6,2,286.90000000596,0.5555555555555556,2,object_02,5,2777,0,7,5,library_8,1,memory-2step-stake-s,711,2622739,0.0-19.0-0.1-0.192,A2E0LU8V4EUX5C,391FPZIE5F2O3PY4X6RTCY19AQ3HU8,3Y5140Z9D1WETYZMC4FMROBCWAMPIU,5,6
193,4,object_01,object_05,313.0,8,1,424.89999999106,0.7777777777777778,2,object_02,5,2812,0,5,7,restaurant_7,1,memory-2step-stake-s,712,2631094,0.0-19.0-0.1-0.193,A2E0LU8V4EUX5C,391FPZIE5F2O3PY4X6RTCY19AQ3HU8,3Y5140Z9D1WETYZMC4FMROBCWAMPIU,8,7
194,2,object_09,object_06,248.29999999702,3,2,344.20000000298,0.5555555555555556,1,object_10,5,2837,0,5,6,forest_6,1,memory-2step-stake-s,713,2639160,0.0-19.0-0.1-0.194,A2E0LU8V4EUX5C,391FPZIE5F2O3PY4X6RTCY19AQ3HU8,3Y5140Z9D1WETYZMC4FMROBCWAMPIU,4,3
195,4,object_01,object_05,195.5,8,1,410.70000000298,0.7777777777777778,2,object_02,1,2844,0,6,7,restaurant_3,1,memory-2step-stake-s,714,2647503,0.0-19.0-0.1-0.195,A2E0LU8V4EUX5C,391FPZIE5F2O3PY4X6RTCY19AQ3HU8,3Y5140Z9D1WETYZMC4FMROBCWAMPIU,8,7
196,2,object_06,object_09,277.0,4,2,190.20000000298,0.6666666666666666,2,object_02,1,2850,0,4,6,forest_8,1,memory-2step-stake-s,715,2655520,0.0-19.0-0.1-0.196,A2E0LU8V4EUX5C,391FPZIE5F2O3PY4X6RTCY19AQ3HU8,3Y5140Z9D1WETYZMC4FMROBCWAMPIU,3,4
197,3,object_07,object_03,275.40000000596,6,2,610.40000000596,0.6666666666666666,2,object_02,5,2880,0,3,6,library_6,1,memory-2step-stake-s,716,2663959,0.0-19.0-0.1-0.197,A2E0LU8V4EUX5C,391FPZIE5F2O3PY4X6RTCY19AQ3HU8,3Y5140Z9D1WETYZMC4FMROBCWAMPIU,5,6
198,4,object_01,object_05,255.40000000596,8,1,656.10000000894,0.8888888888888888,2,object_02,5,2920,0,1,8,restaurant_4,1,memory-2step-stake-s,717,2672645,0.0-19.0-0.1-0.198,A2E0LU8V4EUX5C,391FPZIE5F2O3PY4X6RTCY19AQ3HU8,3Y5140Z9D1WETYZMC4FMROBCWAMPIU,8,7
199,3,object_03,object_07,1111.0,5,2,421.60000000894,0.2222222222222222,1,object_10,1,2922,0,2,8,library_6,1,memory-2step-stake-s,718,2680493,0.0-19.0-0.1-0.199,A2E0LU8V4EUX5C,391FPZIE5F2O3PY4X6RTCY19AQ3HU8,3Y5140Z9D1WETYZMC4FMROBCWAMPIU,6,5
200,4,object_05,object_01,324.69999998808,8,2,375.90000000596,0.8888888888888888,2,object_02,5,2962,0,1,8,restaurant_6,1,memory-2step-stake-s,719,2688903,0.0-19.0-0.1-0.200,A2E0LU8V4EUX5C,391FPZIE5F2O3PY4X6RTCY19AQ3HU8,3Y5140Z9D1WETYZMC4FMROBCWAMPIU,7,8
201,3,object_03,object_07,348.0,5,2,867.5,0.3333333333333333,1,object_10,5,2977,0,3,9,library_8,1,memory-2step-stake-s,720,2697297,0.0-19.0-0.1-0.201,A2E0LU8V4EUX5C,391FPZIE5F2O3PY4X6RTCY19AQ3HU8,3Y5140Z9D1WETYZMC4FMROBCWAMPIU,6,5
202,3,object_07,object_03,82.29999999702,5,1,378.0,0.1111111111111111,1,object_10,5,2982,0,1,8,library_8,1,memory-2step-stake-s,721,2704998,0.0-19.0-0.1-0.202,A2E0LU8V4EUX5C,391FPZIE5F2O3PY4X6RTCY19AQ3HU8,3Y5140Z9D1WETYZMC4FMROBCWAMPIU,5,6
203,4,object_05,object_01,261.5,8,2,469.39999999106,0.8888888888888888,2,object_02,5,3022,0,1,8,restaurant_4,1,memory-2step-stake-s,722,2713500,0.0-19.0-0.1-0.203,A2E0LU8V4EUX5C,391FPZIE5F2O3PY4X6RTCY19AQ3HU8,3Y5140Z9D1WETYZMC4FMROBCWAMPIU,7,8
204,2,object_06,object_09,263.89999999106,4,2,390.59999999404,0.8888888888888888,2,object_02,5,3062,0,3,8,forest_8,1,memory-2step-stake-s,723,2721925,0.0-19.0-0.1-0.204,A2E0LU8V4EUX5C,391FPZIE5F2O3PY4X6RTCY19AQ3HU8,3Y5140Z9D1WETYZMC4FMROBCWAMPIU,3,4
205,4,object_01,object_05,261.59999999404,8,1,126.90000000596,0.8888888888888888,2,object_02,5,3102,0,4,8,restaurant_7,1,memory-2step-stake-s,724,2730084,0.0-19.0-0.1-0.205,A2E0LU8V4EUX5C,391FPZIE5F2O3PY4X6RTCY19AQ3HU8,3Y5140Z9D1WETYZMC4FMROBCWAMPIU,8,7
206,4,object_01,object_05,543.0,7,2,870.0,0.2222222222222222,1,object_10,5,3112,0,2,7,restaurant_3,1,memory-2step-stake-s,725,2738381,0.0-19.0-0.1-0.206,A2E0LU8V4EUX5C,391FPZIE5F2O3PY4X6RTCY19AQ3HU8,3Y5140Z9D1WETYZMC4FMROBCWAMPIU,8,7
207,3,object_07,object_03,-1.0,-1,-1,-1.0,0.0,-,0,5,3112,0,4,3,library_8,1,memory-2step-stake-s,726,2744894,0.0-19.0-0.1-0.207,A2E0LU8V4EUX5C,391FPZIE5F2O3PY4X6RTCY19AQ3HU8,3Y5140Z9D1WETYZMC4FMROBCWAMPIU,5,6
208,2,object_06,object_09,492.20000000298,4,2,389.0,0.2222222222222222,2,object_02,5,3122,0,5,2,forest_7,1,memory-2step-stake-s,727,2752709,0.0-19.0-0.1-0.208,A2E0LU8V4EUX5C,391FPZIE5F2O3PY4X6RTCY19AQ3HU8,3Y5140Z9D1WETYZMC4FMROBCWAMPIU,3,4
209,1,object_04,object_08,291.20000000298,1,1,453.20000000298,0.5555555555555556,1,object_10,5,3147,0,5,2,desert_7,1,memory-2step-stake-s,728,2760895,0.0-19.0-0.1-0.209,A2E0LU8V4EUX5C,391FPZIE5F2O3PY4X6RTCY19AQ3HU8,3Y5140Z9D1WETYZMC4FMROBCWAMPIU,1,2
210,2,object_09,object_06,346.69999998808,3,2,632.19999998808,0.5555555555555556,1,object_10,1,3152,0,5,3,forest_6,1,memory-2step-stake-s,729,2769260,0.0-19.0-0.1-0.210,A2E0LU8V4EUX5C,391FPZIE5F2O3PY4X6RTCY19AQ3HU8,3Y5140Z9D1WETYZMC4FMROBCWAMPIU,4,3
211,1,object_04,object_08,310.60000000894,1,1,357.79999999702,0.8888888888888888,1,object_10,5,3192,0,8,2,desert_3,1,memory-2step-stake-s,730,2777651,0.0-19.0-0.1-0.211,A2E0LU8V4EUX5C,391FPZIE5F2O3PY4X6RTCY19AQ3HU8,3Y5140Z9D1WETYZMC4FMROBCWAMPIU,1,2
212,3,object_03,object_07,298.20000000298,5,2,378.5,0.7777777777777778,1,object_10,5,3227,0,7,2,library_5,1,memory-2step-stake-s,731,2785959,0.0-19.0-0.1-0.212,A2E0LU8V4EUX5C,391FPZIE5F2O3PY4X6RTCY19AQ3HU8,3Y5140Z9D1WETYZMC4FMROBCWAMPIU,6,5
213,4,object_01,object_05,-1.0,-1,-1,-1.0,0.0,-,0,5,3227,0,7,2,restaurant_3,1,memory-2step-stake-s,732,2792474,0.0-19.0-0.1-0.213,A2E0LU8V4EUX5C,391FPZIE5F2O3PY4X6RTCY19AQ3HU8,3Y5140Z9D1WETYZMC4FMROBCWAMPIU,8,7
214,3,object_07,object_03,353.70000000298,5,1,355.09999999404,0.5555555555555556,1,object_10,5,3252,0,5,1,library_5,1,memory-2step-stake-s,733,2800557,0.0-19.0-0.1-0.214,A2E0LU8V4EUX5C,391FPZIE5F2O3PY4X6RTCY19AQ3HU8,3Y5140Z9D1WETYZMC4FMROBCWAMPIU,5,6
215,3,object_03,object_07,296.29999999702,5,2,359.70000000298,0.8888888888888888,1,object_10,5,3292,0,8,6,library_3,1,memory-2step-stake-s,734,2808948,0.0-19.0-0.1-0.215,A2E0LU8V4EUX5C,391FPZIE5F2O3PY4X6RTCY19AQ3HU8,3Y5140Z9D1WETYZMC4FMROBCWAMPIU,6,5
216,4,object_05,object_01,362.09999999404,7,1,601.89999999106,1.0,1,object_10,5,3337,0,9,2,restaurant_7,1,memory-2step-stake-s,735,2817686,0.0-19.0-0.1-0.216,A2E0LU8V4EUX5C,391FPZIE5F2O3PY4X6RTCY19AQ3HU8,3Y5140Z9D1WETYZMC4FMROBCWAMPIU,7,8
217,3,object_07,object_03,237.5,6,2,285.60000000894,0.4444444444444444,2,object_02,1,3341,0,9,4,library_8,1,memory-2step-stake-s,736,2825601,0.0-19.0-0.1-0.217,A2E0LU8V4EUX5C,391FPZIE5F2O3PY4X6RTCY19AQ3HU8,3Y5140Z9D1WETYZMC4FMROBCWAMPIU,5,6
218,4,object_01,object_05,418.60000000894,8,1,873.60000000894,0.1111111111111111,2,object_02,1,3342,0,4,1,restaurant_3,1,memory-2step-stake-s,737,2833799,0.0-19.0-0.1-0.218,A2E0LU8V4EUX5C,391FPZIE5F2O3PY4X6RTCY19AQ3HU8,3Y5140Z9D1WETYZMC4FMROBCWAMPIU,8,7
219,2,object_06,object_09,364.80000001192,4,2,405.29999999702,0.0,2,object_02,5,3342,0,5,0,forest_8,1,memory-2step-stake-s,738,2841425,0.0-19.0-0.1-0.219,A2E0LU8V4EUX5C,391FPZIE5F2O3PY4X6RTCY19AQ3HU8,3Y5140Z9D1WETYZMC4FMROBCWAMPIU,3,4
220,2,object_09,object_06,884.10000000894,4,1,323.39999999106,0.2222222222222222,2,object_02,1,3344,0,7,2,forest_6,1,memory-2step-stake-s,739,2849173,0.0-19.0-0.1-0.220,A2E0LU8V4EUX5C,391FPZIE5F2O3PY4X6RTCY19AQ3HU8,3Y5140Z9D1WETYZMC4FMROBCWAMPIU,4,3
221,1,object_08,object_04,558.09999999404,1,2,-1.0,0.0,1,object_10,1,3344,0,8,0,desert_3,1,memory-2step-stake-s,740,2857694,0.0-19.0-0.1-0.221,A2E0LU8V4EUX5C,391FPZIE5F2O3PY4X6RTCY19AQ3HU8,3Y5140Z9D1WETYZMC4FMROBCWAMPIU,2,1
222,3,object_07,object_03,286.5,5,1,373.19999998808,0.7777777777777778,1,object_10,5,3379,0,7,1,library_8,1,memory-2step-stake-s,741,2866000,0.0-19.0-0.1-0.222,A2E0LU8V4EUX5C,391FPZIE5F2O3PY4X6RTCY19AQ3HU8,3Y5140Z9D1WETYZMC4FMROBCWAMPIU,5,6
223,2,object_06,object_09,283.0,4,2,448.29999999702,0.2222222222222222,2,object_02,1,3381,0,6,2,forest_7,1,memory-2step-stake-s,742,2873874,0.0-19.0-0.1-0.223,A2E0LU8V4EUX5C,391FPZIE5F2O3PY4X6RTCY19AQ3HU8,3Y5140Z9D1WETYZMC4FMROBCWAMPIU,3,4
224,1,object_04,object_08,349.39999999106,1,1,351.20000000298,0.5555555555555556,1,object_10,1,3386,0,5,1,desert_7,1,memory-2step-stake-s,743,2881948,0.0-19.0-0.1-0.224,A2E0LU8V4EUX5C,391FPZIE5F2O3PY4X6RTCY19AQ3HU8,3Y5140Z9D1WETYZMC4FMROBCWAMPIU,1,2
225,3,object_03,object_07,260.0,5,2,461.29999999702,0.8888888888888888,1,object_10,5,3426,0,8,5,library_6,1,memory-2step-stake-s,744,2890435,0.0-19.0-0.1-0.225,A2E0LU8V4EUX5C,391FPZIE5F2O3PY4X6RTCY19AQ3HU8,3Y5140Z9D1WETYZMC4FMROBCWAMPIU,6,5
226,3,object_07,object_03,435.20000000298,5,1,365.5,0.8888888888888888,1,object_10,5,3466,0,8,5,library_5,1,memory-2step-stake-s,745,2898823,0.0-19.0-0.1-0.226,A2E0LU8V4EUX5C,391FPZIE5F2O3PY4X6RTCY19AQ3HU8,3Y5140Z9D1WETYZMC4FMROBCWAMPIU,5,6
227,4,object_01,object_05,761.40000000596,8,1,476.09999999404,0.3333333333333333,2,object_02,5,3481,0,9,3,restaurant_6,1,memory-2step-stake-s,746,2906819,0.0-19.0-0.1-0.227,A2E0LU8V4EUX5C,391FPZIE5F2O3PY4X6RTCY19AQ3HU8,3Y5140Z9D1WETYZMC4FMROBCWAMPIU,8,7
228,3,object_07,object_03,292.20000000298,6,2,461.59999999404,0.5555555555555556,2,object_02,5,3506,0,6,5,library_6,1,memory-2step-stake-s,747,2915002,0.0-19.0-0.1-0.228,A2E0LU8V4EUX5C,391FPZIE5F2O3PY4X6RTCY19AQ3HU8,3Y5140Z9D1WETYZMC4FMROBCWAMPIU,5,6
229,2,object_09,object_06,397.09999999404,4,1,383.20000000298,0.6666666666666666,2,object_02,5,3536,0,8,6,forest_8,1,memory-2step-stake-s,748,2923204,0.0-19.0-0.1-0.229,A2E0LU8V4EUX5C,391FPZIE5F2O3PY4X6RTCY19AQ3HU8,3Y5140Z9D1WETYZMC4FMROBCWAMPIU,4,3
230,2,object_09,object_06,411.89999999106,3,2,515.20000000298,0.7777777777777778,1,object_10,1,3543,0,7,6,forest_4,1,memory-2step-stake-s,749,2931645,0.0-19.0-0.1-0.230,A2E0LU8V4EUX5C,391FPZIE5F2O3PY4X6RTCY19AQ3HU8,3Y5140Z9D1WETYZMC4FMROBCWAMPIU,4,3
231,2,object_06,object_09,587.20000000298,4,2,622.09999999404,0.8888888888888888,2,object_02,1,3551,0,6,8,forest_4,1,memory-2step-stake-s,750,2940289,0.0-19.0-0.1-0.231,A2E0LU8V4EUX5C,391FPZIE5F2O3PY4X6RTCY19AQ3HU8,3Y5140Z9D1WETYZMC4FMROBCWAMPIU,3,4
232,1,object_04,object_08,936.09999999404,2,2,345.20000000298,0.8888888888888888,2,object_02,1,3559,0,8,8,desert_7,1,memory-2step-stake-s,751,2948659,0.0-19.0-0.1-0.232,A2E0LU8V4EUX5C,391FPZIE5F2O3PY4X6RTCY19AQ3HU8,3Y5140Z9D1WETYZMC4FMROBCWAMPIU,1,2
233,3,object_03,object_07,356.5,5,2,318.59999999404,0.8888888888888888,1,object_10,1,3567,0,8,8,library_5,1,memory-2step-stake-s,752,2957003,0.0-19.0-0.1-0.233,A2E0LU8V4EUX5C,391FPZIE5F2O3PY4X6RTCY19AQ3HU8,3Y5140Z9D1WETYZMC4FMROBCWAMPIU,6,5
234,4,object_05,object_01,262.29999999702,7,1,429.5,0.5555555555555556,1,object_10,1,3572,0,5,4,restaurant_3,1,memory-2step-stake-s,753,2965155,0.0-19.0-0.1-0.234,A2E0LU8V4EUX5C,391FPZIE5F2O3PY4X6RTCY19AQ3HU8,3Y5140Z9D1WETYZMC4FMROBCWAMPIU,7,8
235,1,object_04,object_08,298.09999999404,1,1,362.89999999106,0.7777777777777778,1,object_10,1,3579,0,7,1,desert_3,1,memory-2step-stake-s,754,2973444,0.0-19.0-0.1-0.235,A2E0LU8V4EUX5C,391FPZIE5F2O3PY4X6RTCY19AQ3HU8,3Y5140Z9D1WETYZMC4FMROBCWAMPIU,1,2
236,3,object_07,object_03,234.90000000596,5,1,417.5,0.4444444444444444,1,object_10,5,3599,0,4,2,library_3,1,memory-2step-stake-s,755,2981487,0.0-19.0-0.1-0.236,A2E0LU8V4EUX5C,391FPZIE5F2O3PY4X6RTCY19AQ3HU8,3Y5140Z9D1WETYZMC4FMROBCWAMPIU,5,6
237,2,object_06,object_09,440.70000000298,4,2,46.09999999404,0.0,2,object_02,1,3599,0,3,0,forest_8,1,memory-2step-stake-s,756,2988750,0.0-19.0-0.1-0.237,A2E0LU8V4EUX5C,391FPZIE5F2O3PY4X6RTCY19AQ3HU8,3Y5140Z9D1WETYZMC4FMROBCWAMPIU,3,4
238,2,object_09,object_06,518.79999999702,4,1,838.59999999404,0.2222222222222222,2,object_02,5,3609,0,1,2,forest_4,1,memory-2step-stake-s,757,2997010,0.0-19.0-0.1-0.238,A2E0LU8V4EUX5C,391FPZIE5F2O3PY4X6RTCY19AQ3HU8,3Y5140Z9D1WETYZMC4FMROBCWAMPIU,4,3
239,2,object_09,object_06,980.70000000298,4,1,605.79999999702,0.6666666666666666,2,object_02,1,3615,0,4,6,forest_6,1,memory-2step-stake-s,758,3005440,0.0-19.0-0.1-0.239,A2E0LU8V4EUX5C,391FPZIE5F2O3PY4X6RTCY19AQ3HU8,3Y5140Z9D1WETYZMC4FMROBCWAMPIU,4,3
240,4,object_01,object_05,1126.400000006,8,1,418.0,0.5555555555555556,2,object_02,5,3640,0,1,5,restaurant_7,1,memory-2step-stake-s,759,3013579,0.0-19.0-0.1-0.240,A2E0LU8V4EUX5C,391FPZIE5F2O3PY4X6RTCY19AQ3HU8,3Y5140Z9D1WETYZMC4FMROBCWAMPIU,8,7
241,1,object_08,object_04,586.79999999702,2,1,459.79999999702,0.5555555555555556,2,object_02,1,3645,0,2,5,desert_5,1,memory-2step-stake-s,760,3021763,0.0-19.0-0.1-0.241,A2E0LU8V4EUX5C,391FPZIE5F2O3PY4X6RTCY19AQ3HU8,3Y5140Z9D1WETYZMC4FMROBCWAMPIU,2,1
242,3,object_03,object_07,3.9000000059605,6,1,412.90000000596,0.3333333333333333,2,object_02,5,3660,0,3,3,library_3,1,memory-2step-stake-s,761,3029696,0.0-19.0-0.1-0.242,A2E0LU8V4EUX5C,391FPZIE5F2O3PY4X6RTCY19AQ3HU8,3Y5140Z9D1WETYZMC4FMROBCWAMPIU,6,5
243,1,object_08,object_04,246.09999999404,2,1,311.5,0.4444444444444444,2,object_02,1,3664,0,4,4,desert_1,1,memory-2step-stake-s,762,3037632,0.0-19.0-0.1-0.243,A2E0LU8V4EUX5C,391FPZIE5F2O3PY4X6RTCY19AQ3HU8,3Y5140Z9D1WETYZMC4FMROBCWAMPIU,2,1
244,3,object_07,object_03,453.59999999404,6,2,528.0,0.5555555555555556,2,object_02,5,3689,0,0,5,library_6,1,memory-2step-stake-s,763,3045881,0.0-19.0-0.1-0.244,A2E0LU8V4EUX5C,391FPZIE5F2O3PY4X6RTCY19AQ3HU8,3Y5140Z9D1WETYZMC4FMROBCWAMPIU,5,6
245,4,object_05,object_01,308.0,8,2,670.40000000596,0.8888888888888888,2,object_02,1,3697,0,0,8,restaurant_4,1,memory-2step-stake-s,764,3054578,0.0-19.0-0.1-0.245,A2E0LU8V4EUX5C,391FPZIE5F2O3PY4X6RTCY19AQ3HU8,3Y5140Z9D1WETYZMC4FMROBCWAMPIU,7,8
246,1,object_08,object_04,264.89999999106,2,1,314.30000001192,0.8888888888888888,2,object_02,1,3705,0,0,8,desert_5,1,memory-2step-stake-s,765,3062924,0.0-19.0-0.1-0.246,A2E0LU8V4EUX5C,391FPZIE5F2O3PY4X6RTCY19AQ3HU8,3Y5140Z9D1WETYZMC4FMROBCWAMPIU,2,1
247,1,object_04,object_08,272.29999999702,1,1,570.29999999702,0.2222222222222222,1,object_10,1,3707,0,2,6,desert_3,1,memory-2step-stake-s,766,3070915,0.0-19.0-0.1-0.247,A2E0LU8V4EUX5C,391FPZIE5F2O3PY4X6RTCY19AQ3HU8,3Y5140Z9D1WETYZMC4FMROBCWAMPIU,1,2
248,1,object_04,object_08,336.5,1,1,529.20000000298,0.2222222222222222,1,object_10,1,3709,0,2,8,desert_1,1,memory-2step-stake-s,767,3078868,0.0-19.0-0.1-0.248,A2E0LU8V4EUX5C,391FPZIE5F2O3PY4X6RTCY19AQ3HU8,3Y5140Z9D1WETYZMC4FMROBCWAMPIU,1,2
249,1,object_04,object_08,263.5,1,1,385.59999999404,0.2222222222222222,1,object_10,1,3711,0,2,6,desert_3,1,memory-2step-stake-s,768,3086676,0.0-19.0-0.1-0.249,A2E0LU8V4EUX5C,391FPZIE5F2O3PY4X6RTCY19AQ3HU8,3Y5140Z9D1WETYZMC4FMROBCWAMPIU,1,2
250,3,object_03,object_07,433.70000000298,6,1,731.5,0.7777777777777778,2,object_02,5,3746,0,4,7,library_5,1,memory-2step-stake-s,769,3095335,0.0-19.0-0.1-0.250,A2E0LU8V4EUX5C,391FPZIE5F2O3PY4X6RTCY19AQ3HU8,3Y5140Z9D1WETYZMC4FMROBCWAMPIU,6,5
251,1,object_08,object_04,-1.0,-1,-1,-1.0,0.0,-,0,1,3746,0,4,5,desert_1,1,memory-2step-stake-s,770,3101844,0.0-19.0-0.1-0.251,A2E0LU8V4EUX5C,391FPZIE5F2O3PY4X6RTCY19AQ3HU8,3Y5140Z9D1WETYZMC4FMROBCWAMPIU,2,1
252,3,object_07,object_03,306.70000000298,5,1,254.0,0.1111111111111111,1,object_10,5,3751,0,1,4,library_6,1,memory-2step-stake-s,771,3109415,0.0-19.0-0.1-0.252,A2E0LU8V4EUX5C,391FPZIE5F2O3PY4X6RTCY19AQ3HU8,3Y5140Z9D1WETYZMC4FMROBCWAMPIU,5,6
253,4,object_01,object_05,1094.599999994,8,1,647.0,0.5555555555555556,2,object_02,5,3776,0,0,5,restaurant_7,1,memory-2step-stake-s,772,3117789,0.0-19.0-0.1-0.253,A2E0LU8V4EUX5C,391FPZIE5F2O3PY4X6RTCY19AQ3HU8,3Y5140Z9D1WETYZMC4FMROBCWAMPIU,8,7
254,3,object_03,object_07,529.09999999404,6,1,554.90000000596,0.5555555555555556,2,object_02,1,3781,0,4,5,library_5,1,memory-2step-stake-s,773,3126070,0.0-19.0-0.1-0.254,A2E0LU8V4EUX5C,391FPZIE5F2O3PY4X6RTCY19AQ3HU8,3Y5140Z9D1WETYZMC4FMROBCWAMPIU,6,5
255,2,object_06,object_09,331.40000000596,3,1,366.59999999404,0.5555555555555556,1,object_10,1,3786,0,5,5,forest_4,1,memory-2step-stake-s,774,3134156,0.0-19.0-0.1-0.255,A2E0LU8V4EUX5C,391FPZIE5F2O3PY4X6RTCY19AQ3HU8,3Y5140Z9D1WETYZMC4FMROBCWAMPIU,3,4
