,state1,stim_left,stim_right,rt_1,choice1,response1,rt_2,points,state2,stim_state2,stake,score,practice,rews1,rews2,background,high_arm,trial_type,trial_index,time_elapsed,internal_node_id,subid,hitid,assignmentid,stim_left_num,stim_right_num
0,2,object_10,object_04,278.60000002384,3,1,-1.0,0.0,1,object_01,5,0,0,3,7,forest_5,2,memory-2step-stake-s,488,1426357,0.0-19.0-0.0-0.0,A1W7I6FN183I8F,3QGHA0EA1MGR4GKNSEWY8BJ80SRWBM,3GLB5JMZF1BR8AQ1H7OO6IH731CGDA,3,4
1,4,object_08,object_06,331.60000002384,7,2,433.40000009537,0.4444444444444444,1,object_01,5,20,0,4,9,restaurant_8,2,memory-2step-stake-s,489,1434425,0.0-19.0-0.0-0.1,A1W7I6FN183I8F,3QGHA0EA1MGR4GKNSEWY8BJ80SRWBM,3GLB5JMZF1BR8AQ1H7OO6IH731CGDA,8,7
2,2,object_04,object_10,553.5,4,1,520.40000009537,0.6666666666666666,2,object_07,5,50,0,5,6,forest_2,2,memory-2step-stake-s,490,1442807,0.0-19.0-0.0-0.2,A1W7I6FN183I8F,3QGHA0EA1MGR4GKNSEWY8BJ80SRWBM,3GLB5JMZF1BR8AQ1H7OO6IH731CGDA,4,3
3,1,object_02,object_03,644.30000007153,2,2,394.39999997616,0.4444444444444444,2,object_07,5,70,0,6,4,desert_4,2,memory-2step-stake-s,491,1450856,0.0-19.0-0.0-0.3,A1W7I6FN183I8F,3QGHA0EA1MGR4GKNSEWY8BJ80SRWBM,3GLB5JMZF1BR8AQ1H7OO6IH731CGDA,1,2
4,4,object_06,object_08,476.70000004768,7,1,578.5,0.7777777777777778,1,object_01,1,77,0,7,6,restaurant_6,2,memory-2step-stake-s,492,1459386,0.0-19.0-0.0-0.4,A1W7I6FN183I8F,3QGHA0EA1MGR4GKNSEWY8BJ80SRWBM,3GLB5JMZF1BR8AQ1H7OO6IH731CGDA,7,8
5,1,object_02,object_03,443.29999995232,2,2,331.70000004768,0.6666666666666666,2,object_07,5,107,0,7,6,desert_1,2,memory-2step-stake-s,493,1467556,0.0-19.0-0.0-0.5,A1W7I6FN183I8F,3QGHA0EA1MGR4GKNSEWY8BJ80SRWBM,3GLB5JMZF1BR8AQ1H7OO6IH731CGDA,1,2
6,1,object_03,object_02,626.20000004768,2,1,469.0,0.2222222222222222,2,object_07,5,117,0,3,2,desert_4,2,memory-2step-stake-s,494,1475465,0.0-19.0-0.0-0.6,A1W7I6FN183I8F,3QGHA0EA1MGR4GKNSEWY8BJ80SRWBM,3GLB5JMZF1BR8AQ1H7OO6IH731CGDA,2,1
7,3,object_05,object_09,354.5,6,2,-1.0,0.0,2,object_07,1,117,0,4,1,library_5,2,memory-2step-stake-s,495,1483983,0.0-19.0-0.0-0.7,A1W7I6FN183I8F,3QGHA0EA1MGR4GKNSEWY8BJ80SRWBM,3GLB5JMZF1BR8AQ1H7OO6IH731CGDA,5,6
8,4,object_06,object_08,524.09999990463,8,2,346.79999995232,0.0,2,object_07,1,117,0,4,0,restaurant_2,2,memory-2step-stake-s,496,1491545,0.0-19.0-0.0-0.8,A1W7I6FN183I8F,3QGHA0EA1MGR4GKNSEWY8BJ80SRWBM,3GLB5JMZF1BR8AQ1H7OO6IH731CGDA,7,8
9,2,object_10,object_04,898.5,4,2,225.59999990463,0.3333333333333333,2,object_07,5,132,0,7,3,forest_8,2,memory-2step-stake-s,497,1499291,0.0-19.0-0.0-0.9,A1W7I6FN183I8F,3QGHA0EA1MGR4GKNSEWY8BJ80SRWBM,3GLB5JMZF1BR8AQ1H7OO6IH731CGDA,3,4
10,3,object_09,object_05,321.89999997616,6,1,409.90000009537,0.2222222222222222,2,object_07,1,134,0,9,2,library_7,2,memory-2step-stake-s,498,1507128,0.0-19.0-0.0-0.10,A1W7I6FN183I8F,3QGHA0EA1MGR4GKNSEWY8BJ80SRWBM,3GLB5JMZF1BR8AQ1H7OO6IH731CGDA,6,5
11,3,object_05,object_09,323.10000002384,6,2,315.30000007153,0.3333333333333333,2,object_07,1,137,0,6,3,library_7,2,memory-2step-stake-s,499,1515633,0.0-19.0-0.0-0.11,A1W7I6FN183I8F,3QGHA0EA1MGR4GKNSEWY8BJ80SRWBM,3GLB5JMZF1BR8AQ1H7OO6IH731CGDA,5,6
12,1,object_03,object_02,508.40000009537,2,1,266.59999990463,0.6666666666666666,2,object_07,5,167,0,5,6,desert_4,2,memory-2step-stake-s,500,1523734,0.0-19.0-0.0-0.12,A1W7I6FN183I8F,3QGHA0EA1MGR4GKNSEWY8BJ80SRWBM,3GLB5JMZF1BR8AQ1H7OO6IH731CGDA,2,1
13,1,object_03,object_02,809.39999997616,1,2,416.30000007153,0.3333333333333333,1,object_01,5,182,0,3,8,desert_4,2,memory-2step-stake-s,501,1531685,0.0-19.0-0.0-0.13,A1W7I6FN183I8F,3QGHA0EA1MGR4GKNSEWY8BJ80SRWBM,3GLB5JMZF1BR8AQ1H7OO6IH731CGDA,2,1
14,4,object_08,object_06,909.10000002384,7,2,488.29999995232,0.7777777777777778,1,object_01,1,189,0,7,7,restaurant_8,2,memory-2step-stake-s,502,1540103,0.0-19.0-0.0-0.14,A1W7I6FN183I8F,3QGHA0EA1MGR4GKNSEWY8BJ80SRWBM,3GLB5JMZF1BR8AQ1H7OO6IH731CGDA,8,7
15,3,object_09,object_05,1473.3999999762,6,1,387.70000004768,0.5555555555555556,2,object_07,1,194,0,7,5,library_5,2,memory-2step-stake-s,503,1548226,0.0-19.0-0.0-0.15,A1W7I6FN183I8F,3QGHA0EA1MGR4GKNSEWY8BJ80SRWBM,3GLB5JMZF1BR8AQ1H7OO6IH731CGDA,6,5
16,4,object_08,object_06,288.40000009537,7,2,310.5,0.7777777777777778,1,object_01,1,201,0,7,5,restaurant_2,2,memory-2step-stake-s,504,1556465,0.0-19.0-0.0-0.16,A1W7I6FN183I8F,3QGHA0EA1MGR4GKNSEWY8BJ80SRWBM,3GLB5JMZF1BR8AQ1H7OO6IH731CGDA,8,7
17,3,object_09,object_05,-1.0,-1,-1,-1.0,0.0,-,0,1,201,0,9,3,library_7,2,memory-2step-stake-s,505,1562982,0.0-19.0-0.0-0.17,A1W7I6FN183I8F,3QGHA0EA1MGR4GKNSEWY8BJ80SRWBM,3GLB5JMZF1BR8AQ1H7OO6IH731CGDA,6,5
18,1,object_03,object_02,414.69999992847,2,1,20.0,0.5555555555555556,2,object_07,5,226,0,8,5,desert_8,2,memory-2step-stake-s,506,1570742,0.0-19.0-0.0-0.18,A1W7I6FN183I8F,3QGHA0EA1MGR4GKNSEWY8BJ80SRWBM,3GLB5JMZF1BR8AQ1H7OO6IH731CGDA,2,1
19,3,object_05,object_09,744.69999992847,6,2,93.5,0.2222222222222222,2,object_07,1,228,0,3,2,library_7,2,memory-2step-stake-s,507,1578260,0.0-19.0-0.0-0.19,A1W7I6FN183I8F,3QGHA0EA1MGR4GKNSEWY8BJ80SRWBM,3GLB5JMZF1BR8AQ1H7OO6IH731CGDA,5,6
20,1,object_02,object_03,491.89999997616,2,2,150.79999995232,0.2222222222222222,2,object_07,5,238,0,8,2,desert_8,2,memory-2step-stake-s,508,1585836,0.0-19.0-0.0-0.20,A1W7I6FN183I8F,3QGHA0EA1MGR4GKNSEWY8BJ80SRWBM,3GLB5JMZF1BR8AQ1H7OO6IH731CGDA,1,2
21,2,object_10,object_04,758.0,3,1,370.60000002384,0.8888888888888888,1,object_01,5,278,0,8,1,forest_5,2,memory-2step-stake-s,509,1594244,0.0-19.0-0.0-0.21,A1W7I6FN183I8F,3QGHA0EA1MGR4GKNSEWY8BJ80SRWBM,3GLB5JMZF1BR8AQ1H7OO6IH731CGDA,3,4
22,3,object_05,object_09,599.0,6,2,30.0,0.1111111111111111,2,object_07,1,279,0,9,1,library_7,2,memory-2step-stake-s,510,1601602,0.0-19.0-0.0-0.22,A1W7I6FN183I8F,3QGHA0EA1MGR4GKNSEWY8BJ80SRWBM,3GLB5JMZF1BR8AQ1H7OO6IH731CGDA,5,6
23,3,object_09,object_05,864.10000002384,5,2,238.39999997616,0.8888888888888888,1,object_01,1,287,0,8,1,library_4,2,memory-2step-stake-s,511,1609875,0.0-19.0-0.0-0.23,A1W7I6FN183I8F,3QGHA0EA1MGR4GKNSEWY8BJ80SRWBM,3GLB5JMZF1BR8AQ1H7OO6IH731CGDA,6,5
24,3,object_09,object_05,790.0,5,2,144.40000009537,0.7777777777777778,1,object_01,5,322,0,7,0,library_4,2,memory-2step-stake-s,512,1617958,0.0-19.0-0.0-0.24,A1W7I6FN183I8F,3QGHA0EA1MGR4GKNSEWY8BJ80SRWBM,3GLB5JMZF1BR8AQ1H7OO6IH731CGDA,6,5
25,4,object_06,object_08,860.30000007153,8,2,278.69999992847,0.2222222222222222,2,object_07,1,324,0,8,2,restaurant_3,2,memory-2step-stake-s,513,1625665,0.0-19.0-0.0-0.25,A1W7I6FN183I8F,3QGHA0EA1MGR4GKNSEWY8BJ80SRWBM,3GLB5JMZF1BR8AQ1H7OO6IH731CGDA,7,8
26,1,object_03,object_02,1141.8999999762,1,2,149.29999995232,0.7777777777777778,1,object_01,1,331,0,7,0,desert_8,2,memory-2step-stake-s,514,1633750,0.0-19.0-0.0-0.26,A1W7I6FN183I8F,3QGHA0EA1MGR4GKNSEWY8BJ80SRWBM,3GLB5JMZF1BR8AQ1H7OO6IH731CGDA,2,1
27,2,object_10,object_04,999.60000002384,4,2,101.5,0.0,2,object_07,5,331,0,5,0,forest_5,2,memory-2step-stake-s,515,1641075,0.0-19.0-0.0-0.27,A1W7I6FN183I8F,3QGHA0EA1MGR4GKNSEWY8BJ80SRWBM,3GLB5JMZF1BR8AQ1H7OO6IH731CGDA,3,4
28,1,object_03,object_02,861.60000002384,2,1,229.0,0.0,2,object_07,5,331,0,5,0,desert_4,2,memory-2step-stake-s,516,1648530,0.0-19.0-0.0-0.28,A1W7I6FN183I8F,3QGHA0EA1MGR4GKNSEWY8BJ80SRWBM,3GLB5JMZF1BR8AQ1H7OO6IH731CGDA,2,1
29,4,object_08,object_06,539.69999992847,7,2,36.0,0.5555555555555556,1,object_01,1,336,0,5,2,restaurant_6,2,memory-2step-stake-s,517,1656311,0.0-19.0-0.0-0.29,A1W7I6FN183I8F,3QGHA0EA1MGR4GKNSEWY8BJ80SRWBM,3GLB5JMZF1BR8AQ1H7OO6IH731CGDA,8,7
30,1,object_03,object_02,610.89999997616,1,2,87.399999976158,0.4444444444444444,1,object_01,5,356,0,4,3,desert_4,2,memory-2step-stake-s,518,1664023,0.0-19.0-0.0-0.30,A1W7I6FN183I8F,3QGHA0EA1MGR4GKNSEWY8BJ80SRWBM,3GLB5JMZF1BR8AQ1H7OO6IH731CGDA,2,1
31,2,object_10,object_04,920.30000007153,3,1,247.5,0.3333333333333333,1,object_01,5,371,0,3,3,forest_2,2,memory-2step-stake-s,519,1671805,0.0-19.0-0.0-0.31,A1W7I6FN183I8F,3QGHA0EA1MGR4GKNSEWY8BJ80SRWBM,3GLB5JMZF1BR8AQ1H7OO6IH731CGDA,3,4
32,1,object_02,object_03,974.5,2,2,274.0,0.0,2,object_07,5,371,0,1,0,desert_1,2,memory-2step-stake-s,520,1679302,0.0-19.0-0.0-0.32,A1W7I6FN183I8F,3QGHA0EA1MGR4GKNSEWY8BJ80SRWBM,3GLB5JMZF1BR8AQ1H7OO6IH731CGDA,1,2
33,4,object_06,object_08,865.10000002384,8,2,134.60000002384,0.0,2,object_07,1,371,0,0,0,restaurant_2,2,memory-2step-stake-s,521,1686654,0.0-19.0-0.0-0.33,A1W7I6FN183I8F,3QGHA0EA1MGR4GKNSEWY8BJ80SRWBM,3GLB5JMZF1BR8AQ1H7OO6IH731CGDA,7,8
34,1,object_02,object_03,712.09999990463,1,1,93.100000023842,0.1111111111111111,1,object_01,5,376,0,1,1,desert_1,2,memory-2step-stake-s,522,1694080,0.0-19.0-0.0-0.34,A1W7I6FN183I8F,3QGHA0EA1MGR4GKNSEWY8BJ80SRWBM,3GLB5JMZF1BR8AQ1H7OO6IH731CGDA,1,2
35,2,object_04,object_10,760.10000002384,3,2,245.70000004768,0.0,1,object_01,1,376,0,0,1,forest_6,2,memory-2step-stake-s,523,1701544,0.0-19.0-0.0-0.35,A1W7I6FN183I8F,3QGHA0EA1MGR4GKNSEWY8BJ80SRWBM,3GLB5JMZF1BR8AQ1H7OO6IH731CGDA,4,3
36,3,object_05,object_09,1027.0,5,1,197.40000009537,0.2222222222222222,1,object_01,1,378,0,2,3,library_4,2,memory-2step-stake-s,524,1709160,0.0-19.0-0.0-0.36,A1W7I6FN183I8F,3QGHA0EA1MGR4GKNSEWY8BJ80SRWBM,3GLB5JMZF1BR8AQ1H7OO6IH731CGDA,5,6
37,2,object_10,object_04,1014.1000000238,3,1,341.40000009537,0.7777777777777778,1,object_01,5,413,0,7,5,forest_2,2,memory-2step-stake-s,525,1717431,0.0-19.0-0.0-0.37,A1W7I6FN183I8F,3QGHA0EA1MGR4GKNSEWY8BJ80SRWBM,3GLB5JMZF1BR8AQ1H7OO6IH731CGDA,3,4
38,3,object_09,object_05,1054.2000000477,6,1,222.5,0.6666666666666666,2,object_07,1,419,0,5,6,library_7,2,memory-2step-stake-s,526,1725476,0.0-19.0-0.0-0.38,A1W7I6FN183I8F,3QGHA0EA1MGR4GKNSEWY8BJ80SRWBM,3GLB5JMZF1BR8AQ1H7OO6IH731CGDA,6,5
39,3,object_05,object_09,1037.1999999285,6,2,111.30000007153,0.7777777777777778,2,object_07,1,426,0,6,7,library_4,2,memory-2step-stake-s,527,1733517,0.0-19.0-0.0-0.39,A1W7I6FN183I8F,3QGHA0EA1MGR4GKNSEWY8BJ80SRWBM,3GLB5JMZF1BR8AQ1H7OO6IH731CGDA,5,6
40,4,object_06,object_08,1041.0,7,1,65.5,0.3333333333333333,1,object_01,1,429,0,3,8,restaurant_3,2,memory-2step-stake-s,528,1741104,0.0-19.0-0.0-0.40,A1W7I6FN183I8F,3QGHA0EA1MGR4GKNSEWY8BJ80SRWBM,3GLB5JMZF1BR8AQ1H7OO6IH731CGDA,7,8
41,2,object_10,object_04,1050.5,3,1,245.70000004768,0.1111111111111111,1,object_01,5,434,0,1,9,forest_8,2,memory-2step-stake-s,529,1748672,0.0-19.0-0.0-0.41,A1W7I6FN183I8F,3QGHA0EA1MGR4GKNSEWY8BJ80SRWBM,3GLB5JMZF1BR8AQ1H7OO6IH731CGDA,3,4
42,3,object_05,object_09,807.5,6,2,105.60000002384,0.8888888888888888,2,object_07,1,442,0,0,8,library_5,2,memory-2step-stake-s,530,1756810,0.0-19.0-0.0-0.42,A1W7I6FN183I8F,3QGHA0EA1MGR4GKNSEWY8BJ80SRWBM,3GLB5JMZF1BR8AQ1H7OO6IH731CGDA,5,6
43,4,object_06,object_08,-1.0,-1,-1,-1.0,0.0,-,0,1,442,0,1,7,restaurant_8,2,memory-2step-stake-s,531,1763322,0.0-19.0-0.0-0.43,A1W7I6FN183I8F,3QGHA0EA1MGR4GKNSEWY8BJ80SRWBM,3GLB5JMZF1BR8AQ1H7OO6IH731CGDA,7,8
44,2,object_10,object_04,165.29999995232,3,1,129.0,0.2222222222222222,1,object_01,5,452,0,2,8,forest_6,2,memory-2step-stake-s,532,1770884,0.0-19.0-0.0-0.44,A1W7I6FN183I8F,3QGHA0EA1MGR4GKNSEWY8BJ80SRWBM,3GLB5JMZF1BR8AQ1H7OO6IH731CGDA,3,4
45,1,object_03,object_02,279.89999997616,1,2,416.40000009537,0.1111111111111111,1,object_01,5,457,0,1,7,desert_4,2,memory-2step-stake-s,533,1778621,0.0-19.0-0.0-0.45,A1W7I6FN183I8F,3QGHA0EA1MGR4GKNSEWY8BJ80SRWBM,3GLB5JMZF1BR8AQ1H7OO6IH731CGDA,2,1
46,3,object_05,object_09,187.0,5,1,190.59999990463,0.2222222222222222,1,object_01,5,467,0,2,4,library_5,2,memory-2step-stake-s,534,1786238,0.0-19.0-0.0-0.46,A1W7I6FN183I8F,3QGHA0EA1MGR4GKNSEWY8BJ80SRWBM,3GLB5JMZF1BR8AQ1H7OO6IH731CGDA,5,6
47,3,object_09,object_05,187.10000002384,5,2,156.70000004768,0.2222222222222222,1,object_01,5,477,0,2,4,library_5,2,memory-2step-stake-s,535,1793829,0.0-19.0-0.0-0.47,A1W7I6FN183I8F,3QGHA0EA1MGR4GKNSEWY8BJ80SRWBM,3GLB5JMZF1BR8AQ1H7OO6IH731CGDA,6,5
48,2,object_04,object_10,32.899999976158,4,1,175.79999995232,0.6666666666666666,2,object_07,5,507,0,0,6,forest_8,2,memory-2step-stake-s,536,1801829,0.0-19.0-0.0-0.48,A1W7I6FN183I8F,3QGHA0EA1MGR4GKNSEWY8BJ80SRWBM,3GLB5JMZF1BR8AQ1H7OO6IH731CGDA,4,3
49,2,object_04,object_10,375.29999995232,4,1,151.70000004768,0.5555555555555556,2,object_07,1,512,0,1,5,forest_2,2,memory-2step-stake-s,537,1809725,0.0-19.0-0.0-0.49,A1W7I6FN183I8F,3QGHA0EA1MGR4GKNSEWY8BJ80SRWBM,3GLB5JMZF1BR8AQ1H7OO6IH731CGDA,4,3
50,4,object_06,object_08,591.0,7,1,65.299999952316,0.0,1,object_01,1,512,0,0,1,restaurant_3,2,memory-2step-stake-s,538,1817010,0.0-19.0-0.0-0.50,A1W7I6FN183I8F,3QGHA0EA1MGR4GKNSEWY8BJ80SRWBM,3GLB5JMZF1BR8AQ1H7OO6IH731CGDA,7,8
51,4,object_08,object_06,93.200000047684,7,2,91.0,0.0,1,object_01,1,512,0,0,2,restaurant_6,2,memory-2step-stake-s,539,1824322,0.0-19.0-0.0-0.51,A1W7I6FN183I8F,3QGHA0EA1MGR4GKNSEWY8BJ80SRWBM,3GLB5JMZF1BR8AQ1H7OO6IH731CGDA,8,7
52,1,object_02,object_03,92.399999976158,1,1,3.6999999284744,0.1111111111111111,1,object_01,1,513,0,1,2,desert_8,2,memory-2step-stake-s,540,1831649,0.0-19.0-0.0-0.52,A1W7I6FN183I8F,3QGHA0EA1MGR4GKNSEWY8BJ80SRWBM,3GLB5JMZF1BR8AQ1H7OO6IH731CGDA,1,2
53,4,object_06,object_08,513.79999995232,8,2,468.0,0.1111111111111111,2,object_07,1,514,0,1,1,restaurant_2,2,memory-2step-stake-s,541,1839438,0.0-19.0-0.0-0.53,A1W7I6FN183I8F,3QGHA0EA1MGR4GKNSEWY8BJ80SRWBM,3GLB5JMZF1BR8AQ1H7OO6IH731CGDA,7,8
54,3,object_05,object_09,210.80000007153,5,1,256.0,0.0,1,object_01,1,514,0,0,3,library_5,2,memory-2step-stake-s,542,1846923,0.0-19.0-0.0-0.54,A1W7I6FN183I8F,3QGHA0EA1MGR4GKNSEWY8BJ80SRWBM,3GLB5JMZF1BR8AQ1H7OO6IH731CGDA,5,6
55,3,object_05,object_09,560.10000002384,6,2,175.29999995232,0.0,2,object_07,1,514,0,1,0,library_7,2,memory-2step-stake-s,543,1854326,0.0-19.0-0.0-0.55,A1W7I6FN183I8F,3QGHA0EA1MGR4GKNSEWY8BJ80SRWBM,3GLB5JMZF1BR8AQ1H7OO6IH731CGDA,5,6
56,3,object_05,object_09,240.69999992847,5,1,18.299999952316,0.1111111111111111,1,object_01,5,519,0,1,2,library_6,2,memory-2step-stake-s,544,1861663,0.0-19.0-0.0-0.56,A1W7I6FN183I8F,3QGHA0EA1MGR4GKNSEWY8BJ80SRWBM,3GLB5JMZF1BR8AQ1H7OO6IH731CGDA,5,6
57,3,object_05,object_09,294.29999995232,6,2,297.89999997616,0.1111111111111111,2,object_07,1,520,0,3,1,library_4,2,memory-2step-stake-s,545,1869282,0.0-19.0-0.0-0.57,A1W7I6FN183I8F,3QGHA0EA1MGR4GKNSEWY8BJ80SRWBM,3GLB5JMZF1BR8AQ1H7OO6IH731CGDA,5,6
58,1,object_03,object_02,610.5,2,1,4.5,0.0,2,object_07,5,520,0,3,0,desert_6,2,memory-2step-stake-s,546,1876506,0.0-19.0-0.0-0.58,A1W7I6FN183I8F,3QGHA0EA1MGR4GKNSEWY8BJ80SRWBM,3GLB5JMZF1BR8AQ1H7OO6IH731CGDA,2,1
59,2,object_04,object_10,499.79999995232,4,1,166.89999997616,0.1111111111111111,2,object_07,5,525,0,3,1,forest_2,2,memory-2step-stake-s,547,1883997,0.0-19.0-0.0-0.59,A1W7I6FN183I8F,3QGHA0EA1MGR4GKNSEWY8BJ80SRWBM,3GLB5JMZF1BR8AQ1H7OO6IH731CGDA,4,3
60,2,object_04,object_10,-1.0,-1,-1,-1.0,0.0,-,0,5,525,0,1,1,forest_2,2,memory-2step-stake-s,548,1890513,0.0-19.0-0.0-0.60,A1W7I6FN183I8F,3QGHA0EA1MGR4GKNSEWY8BJ80SRWBM,3GLB5JMZF1BR8AQ1H7OO6IH731CGDA,4,3
61,3,object_09,object_05,261.20000004768,5,2,223.0,0.1111111111111111,1,object_01,1,526,0,1,1,library_7,2,memory-2step-stake-s,549,1898065,0.0-19.0-0.0-0.61,A1W7I6FN183I8F,3QGHA0EA1MGR4GKNSEWY8BJ80SRWBM,3GLB5JMZF1BR8AQ1H7OO6IH731CGDA,6,5
62,2,object_04,object_10,5.5,4,1,208.5,0.0,2,object_07,5,526,0,2,0,forest_6,2,memory-2step-stake-s,550,1905489,0.0-19.0-0.0-0.62,A1W7I6FN183I8F,3QGHA0EA1MGR4GKNSEWY8BJ80SRWBM,3GLB5JMZF1BR8AQ1H7OO6IH731CGDA,4,3
63,4,object_08,object_06,266.69999992847,7,2,1485.3000000715,0.2222222222222222,1,object_01,1,528,0,2,2,restaurant_3,2,memory-2step-stake-s,551,1914391,0.0-19.0-0.0-0.63,A1W7I6FN183I8F,3QGHA0EA1MGR4GKNSEWY8BJ80SRWBM,3GLB5JMZF1BR8AQ1H7OO6IH731CGDA,8,7
64,3,object_09,object_05,484.5,6,1,674.70000004768,0.3333333333333333,2,object_07,1,531,0,2,3,library_7,2,memory-2step-stake-s,552,1922587,0.0-19.0-0.0-0.64,A1W7I6FN183I8F,3QGHA0EA1MGR4GKNSEWY8BJ80SRWBM,3GLB5JMZF1BR8AQ1H7OO6IH731CGDA,6,5
65,3,object_05,object_09,339.89999997616,5,1,306.60000002384,0.2222222222222222,1,object_01,5,541,0,2,4,library_6,2,memory-2step-stake-s,553,1930312,0.0-19.0-0.0-0.65,A1W7I6FN183I8F,3QGHA0EA1MGR4GKNSEWY8BJ80SRWBM,3GLB5JMZF1BR8AQ1H7OO6IH731CGDA,5,6
66,2,object_04,object_10,785.79999995232,3,2,47.5,0.0,1,object_01,5,541,0,0,3,forest_5,2,memory-2step-stake-s,554,1937577,0.0-19.0-0.0-0.66,A1W7I6FN183I8F,3QGHA0EA1MGR4GKNSEWY8BJ80SRWBM,3GLB5JMZF1BR8AQ1H7OO6IH731CGDA,4,3
67,3,object_09,object_05,797.60000002384,6,1,184.60000002384,0.5555555555555556,2,object_07,1,546,0,2,5,library_6,2,memory-2step-stake-s,555,1945486,0.0-19.0-0.0-0.67,A1W7I6FN183I8F,3QGHA0EA1MGR4GKNSEWY8BJ80SRWBM,3GLB5JMZF1BR8AQ1H7OO6IH731CGDA,6,5
68,4,object_06,object_08,848.39999997616,8,2,44.099999904633,0.6666666666666666,2,object_07,1,552,0,3,6,restaurant_3,2,memory-2step-stake-s,556,1953357,0.0-19.0-0.0-0.68,A1W7I6FN183I8F,3QGHA0EA1MGR4GKNSEWY8BJ80SRWBM,3GLB5JMZF1BR8AQ1H7OO6IH731CGDA,7,8
69,4,object_06,object_08,739.0,7,1,142.60000002384,0.2222222222222222,1,object_01,1,554,0,2,4,restaurant_6,2,memory-2step-stake-s,557,1960920,0.0-19.0-0.0-0.69,A1W7I6FN183I8F,3QGHA0EA1MGR4GKNSEWY8BJ80SRWBM,3GLB5JMZF1BR8AQ1H7OO6IH731CGDA,7,8
70,4,object_06,object_08,529.10000002384,8,2,194.79999995232,0.3333333333333333,2,object_07,1,557,0,1,3,restaurant_2,2,memory-2step-stake-s,558,1968635,0.0-19.0-0.0-0.70,A1W7I6FN183I8F,3QGHA0EA1MGR4GKNSEWY8BJ80SRWBM,3GLB5JMZF1BR8AQ1H7OO6IH731CGDA,7,8
71,4,object_08,object_06,532.5,8,1,52.600000023842,0.2222222222222222,2,object_07,1,559,0,3,2,restaurant_3,2,memory-2step-stake-s,559,1976121,0.0-19.0-0.0-0.71,A1W7I6FN183I8F,3QGHA0EA1MGR4GKNSEWY8BJ80SRWBM,3GLB5JMZF1BR8AQ1H7OO6IH731CGDA,8,7
72,3,object_05,object_09,1235.1999999285,5,1,81.900000095367,0.4444444444444444,1,object_01,1,563,0,4,1,library_5,2,memory-2step-stake-s,560,1983828,0.0-19.0-0.0-0.72,A1W7I6FN183I8F,3QGHA0EA1MGR4GKNSEWY8BJ80SRWBM,3GLB5JMZF1BR8AQ1H7OO6IH731CGDA,5,6
73,3,object_05,object_09,373.20000004768,6,2,256.89999997616,0.1111111111111111,2,object_07,1,564,0,4,1,library_7,2,memory-2step-stake-s,561,1991406,0.0-19.0-0.0-0.73,A1W7I6FN183I8F,3QGHA0EA1MGR4GKNSEWY8BJ80SRWBM,3GLB5JMZF1BR8AQ1H7OO6IH731CGDA,5,6
74,1,object_03,object_02,554.90000009537,2,1,162.70000004768,0.1111111111111111,2,object_07,5,569,0,5,1,desert_6,2,memory-2step-stake-s,562,1998887,0.0-19.0-0.0-0.74,A1W7I6FN183I8F,3QGHA0EA1MGR4GKNSEWY8BJ80SRWBM,3GLB5JMZF1BR8AQ1H7OO6IH731CGDA,2,1
75,1,object_02,object_03,455.70000004768,2,2,129.79999995232,0.2222222222222222,2,object_07,5,579,0,8,2,desert_1,2,memory-2step-stake-s,563,2006449,0.0-19.0-0.0-0.75,A1W7I6FN183I8F,3QGHA0EA1MGR4GKNSEWY8BJ80SRWBM,3GLB5JMZF1BR8AQ1H7OO6IH731CGDA,1,2
76,1,object_03,object_02,641.20000004768,1,2,305.60000002384,0.6666666666666666,1,object_01,5,609,0,6,1,desert_1,2,memory-2step-stake-s,564,2014598,0.0-19.0-0.0-0.76,A1W7I6FN183I8F,3QGHA0EA1MGR4GKNSEWY8BJ80SRWBM,3GLB5JMZF1BR8AQ1H7OO6IH731CGDA,2,1
77,1,object_02,object_03,540.69999992847,1,1,498.5,0.3333333333333333,1,object_01,5,624,0,3,1,desert_8,2,memory-2step-stake-s,565,2022623,0.0-19.0-0.0-0.77,A1W7I6FN183I8F,3QGHA0EA1MGR4GKNSEWY8BJ80SRWBM,3GLB5JMZF1BR8AQ1H7OO6IH731CGDA,1,2
78,2,object_04,object_10,754.89999997616,3,2,388.30000007153,0.4444444444444444,1,object_01,5,644,0,4,2,forest_8,2,memory-2step-stake-s,566,2030647,0.0-19.0-0.0-0.78,A1W7I6FN183I8F,3QGHA0EA1MGR4GKNSEWY8BJ80SRWBM,3GLB5JMZF1BR8AQ1H7OO6IH731CGDA,4,3
79,2,object_10,object_04,555.19999992847,4,2,78.299999952316,0.4444444444444444,2,object_07,5,664,0,5,4,forest_5,2,memory-2step-stake-s,567,2038359,0.0-19.0-0.0-0.79,A1W7I6FN183I8F,3QGHA0EA1MGR4GKNSEWY8BJ80SRWBM,3GLB5JMZF1BR8AQ1H7OO6IH731CGDA,3,4
80,2,object_04,object_10,378.60000002384,3,2,318.79999995232,0.3333333333333333,1,object_01,5,679,0,3,3,forest_8,2,memory-2step-stake-s,568,2046202,0.0-19.0-0.0-0.80,A1W7I6FN183I8F,3QGHA0EA1MGR4GKNSEWY8BJ80SRWBM,3GLB5JMZF1BR8AQ1H7OO6IH731CGDA,4,3
81,3,object_09,object_05,482.19999992847,6,1,265.69999992847,0.3333333333333333,2,object_07,1,682,0,1,3,library_5,2,memory-2step-stake-s,569,2054009,0.0-19.0-0.0-0.81,A1W7I6FN183I8F,3QGHA0EA1MGR4GKNSEWY8BJ80SRWBM,3GLB5JMZF1BR8AQ1H7OO6IH731CGDA,6,5
82,4,object_08,object_06,767.39999997616,7,2,146.69999992847,0.1111111111111111,1,object_01,1,683,0,1,3,restaurant_2,2,memory-2step-stake-s,570,2061481,0.0-19.0-0.0-0.82,A1W7I6FN183I8F,3QGHA0EA1MGR4GKNSEWY8BJ80SRWBM,3GLB5JMZF1BR8AQ1H7OO6IH731CGDA,8,7
83,1,object_03,object_02,730.39999997616,2,1,28.099999904633,0.1111111111111111,2,object_07,5,688,0,2,1,desert_4,2,memory-2step-stake-s,571,2068834,0.0-19.0-0.0-0.83,A1W7I6FN183I8F,3QGHA0EA1MGR4GKNSEWY8BJ80SRWBM,3GLB5JMZF1BR8AQ1H7OO6IH731CGDA,2,1
84,1,object_02,object_03,325.79999995232,2,2,4.7999999523163,0.3333333333333333,2,object_07,5,703,0,3,3,desert_6,2,memory-2step-stake-s,572,2076371,0.0-19.0-0.0-0.84,A1W7I6FN183I8F,3QGHA0EA1MGR4GKNSEWY8BJ80SRWBM,3GLB5JMZF1BR8AQ1H7OO6IH731CGDA,1,2
85,1,object_02,object_03,630.39999997616,1,1,30.599999904633,0.1111111111111111,1,object_01,5,708,0,1,1,desert_4,2,memory-2step-stake-s,573,2083728,0.0-19.0-0.0-0.85,A1W7I6FN183I8F,3QGHA0EA1MGR4GKNSEWY8BJ80SRWBM,3GLB5JMZF1BR8AQ1H7OO6IH731CGDA,1,2
86,2,object_10,object_04,335.10000002384,4,2,80.699999928474,0.2222222222222222,2,object_07,1,710,0,3,2,forest_5,2,memory-2step-stake-s,574,2091256,0.0-19.0-0.0-0.86,A1W7I6FN183I8F,3QGHA0EA1MGR4GKNSEWY8BJ80SRWBM,3GLB5JMZF1BR8AQ1H7OO6IH731CGDA,3,4
87,2,object_04,object_10,-1.0,-1,-1,-1.0,0.0,-,0,5,710,0,5,0,forest_5,2,memory-2step-stake-s,575,2097786,0.0-19.0-0.0-0.87,A1W7I6FN183I8F,3QGHA0EA1MGR4GKNSEWY8BJ80SRWBM,3GLB5JMZF1BR8AQ1H7OO6IH731CGDA,4,3
88,1,object_02,object_03,216.20000004768,1,1,300.30000007153,0.3333333333333333,1,object_01,1,713,0,3,1,desert_6,2,memory-2step-stake-s,576,2105618,0.0-19.0-0.0-0.88,A1W7I6FN183I8F,3QGHA0EA1MGR4GKNSEWY8BJ80SRWBM,3GLB5JMZF1BR8AQ1H7OO6IH731CGDA,1,2
89,2,object_10,object_04,169.5,4,2,92.399999976158,0.1111111111111111,2,object_07,5,718,0,8,1,forest_6,2,memory-2step-stake-s,577,2113042,0.0-19.0-0.0-0.89,A1W7I6FN183I8F,3QGHA0EA1MGR4GKNSEWY8BJ80SRWBM,3GLB5JMZF1BR8AQ1H7OO6IH731CGDA,3,4
90,4,object_06,object_08,36.700000047684,7,1,262.29999995232,0.7777777777777778,1,object_01,1,725,0,7,3,restaurant_6,2,memory-2step-stake-s,578,2121228,0.0-19.0-0.0-0.90,A1W7I6FN183I8F,3QGHA0EA1MGR4GKNSEWY8BJ80SRWBM,3GLB5JMZF1BR8AQ1H7OO6IH731CGDA,7,8
91,1,object_02,object_03,407.89999997616,2,2,175.10000002384,0.1111111111111111,2,object_07,5,730,0,4,1,desert_1,2,memory-2step-stake-s,579,2128723,0.0-19.0-0.0-0.91,A1W7I6FN183I8F,3QGHA0EA1MGR4GKNSEWY8BJ80SRWBM,3GLB5JMZF1BR8AQ1H7OO6IH731CGDA,1,2
92,4,object_08,object_06,258.69999992847,8,1,447.70000004768,0.1111111111111111,2,object_07,1,731,0,3,1,restaurant_8,2,memory-2step-stake-s,580,2136496,0.0-19.0-0.0-0.92,A1W7I6FN183I8F,3QGHA0EA1MGR4GKNSEWY8BJ80SRWBM,3GLB5JMZF1BR8AQ1H7OO6IH731CGDA,8,7
93,4,object_06,object_08,14.300000071526,8,2,270.5,0.4444444444444444,2,object_07,1,735,0,1,4,restaurant_6,2,memory-2step-stake-s,581,2144390,0.0-19.0-0.0-0.93,A1W7I6FN183I8F,3QGHA0EA1MGR4GKNSEWY8BJ80SRWBM,3GLB5JMZF1BR8AQ1H7OO6IH731CGDA,7,8
94,3,object_05,object_09,527.0,5,1,27.0,0.1111111111111111,1,object_01,1,736,0,1,9,library_5,2,memory-2step-stake-s,582,2151735,0.0-19.0-0.0-0.94,A1W7I6FN183I8F,3QGHA0EA1MGR4GKNSEWY8BJ80SRWBM,3GLB5JMZF1BR8AQ1H7OO6IH731CGDA,5,6
95,2,object_04,object_10,354.80000007153,3,2,216.20000004768,0.2222222222222222,1,object_01,5,746,0,2,7,forest_5,2,memory-2step-stake-s,583,2159366,0.0-19.0-0.0-0.95,A1W7I6FN183I8F,3QGHA0EA1MGR4GKNSEWY8BJ80SRWBM,3GLB5JMZF1BR8AQ1H7OO6IH731CGDA,4,3
96,2,object_10,object_04,343.89999997616,4,2,220.69999992847,0.5555555555555556,2,object_07,5,771,0,4,5,forest_6,2,memory-2step-stake-s,584,2167315,0.0-19.0-0.0-0.96,A1W7I6FN183I8F,3QGHA0EA1MGR4GKNSEWY8BJ80SRWBM,3GLB5JMZF1BR8AQ1H7OO6IH731CGDA,3,4
97,3,object_09,object_05,435.69999992847,6,1,351.89999997616,0.8888888888888888,2,object_07,1,779,0,6,8,library_5,2,memory-2step-stake-s,585,2175693,0.0-19.0-0.0-0.97,A1W7I6FN183I8F,3QGHA0EA1MGR4GKNSEWY8BJ80SRWBM,3GLB5JMZF1BR8AQ1H7OO6IH731CGDA,6,5
98,3,object_05,object_09,719.80000007153,6,2,253.89999997616,0.8888888888888888,2,object_07,5,819,0,5,8,library_6,2,memory-2step-stake-s,586,2183986,0.0-19.0-0.0-0.98,A1W7I6FN183I8F,3QGHA0EA1MGR4GKNSEWY8BJ80SRWBM,3GLB5JMZF1BR8AQ1H7OO6IH731CGDA,5,6
99,1,object_02,object_03,387.60000002384,1,1,177.19999992847,0.6666666666666666,1,object_01,1,825,0,6,8,desert_6,2,memory-2step-stake-s,587,2191989,0.0-19.0-0.0-0.99,A1W7I6FN183I8F,3QGHA0EA1MGR4GKNSEWY8BJ80SRWBM,3GLB5JMZF1BR8AQ1H7OO6IH731CGDA,1,2
100,1,object_02,object_03,341.0,2,2,354.09999990463,0.8888888888888888,2,object_07,5,865,0,7,8,desert_6,2,memory-2step-stake-s,588,2200389,0.0-19.0-0.0-0.100,A1W7I6FN183I8F,3QGHA0EA1MGR4GKNSEWY8BJ80SRWBM,3GLB5JMZF1BR8AQ1H7OO6IH731CGDA,1,2
101,1,object_03,object_02,409.39999997616,2,1,-1.0,0.0,2,object_07,1,865,0,8,7,desert_8,2,memory-2step-stake-s,589,2208911,0.0-19.0-0.0-0.101,A1W7I6FN183I8F,3QGHA0EA1MGR4GKNSEWY8BJ80SRWBM,3GLB5JMZF1BR8AQ1H7OO6IH731CGDA,2,1
102,2,object_10,object_04,242.30000007153,3,1,275.09999990463,1.0,1,object_01,5,910,0,9,8,forest_2,2,memory-2step-stake-s,590,2217315,0.0-19.0-0.0-0.102,A1W7I6FN183I8F,3QGHA0EA1MGR4GKNSEWY8BJ80SRWBM,3GLB5JMZF1BR8AQ1H7OO6IH731CGDA,3,4
103,1,object_02,object_03,337.20000004768,2,2,140.69999992847,0.6666666666666666,2,object_07,5,940,0,6,6,desert_8,2,memory-2step-stake-s,591,2225288,0.0-19.0-0.0-0.103,A1W7I6FN183I8F,3QGHA0EA1MGR4GKNSEWY8BJ80SRWBM,3GLB5JMZF1BR8AQ1H7OO6IH731CGDA,1,2
104,3,object_05,object_09,519.20000004768,5,1,117.19999992847,0.4444444444444444,1,object_01,1,944,0,4,5,library_4,2,memory-2step-stake-s,592,2233034,0.0-19.0-0.0-0.104,A1W7I6FN183I8F,3QGHA0EA1MGR4GKNSEWY8BJ80SRWBM,3GLB5JMZF1BR8AQ1H7OO6IH731CGDA,5,6
105,4,object_08,object_06,133.0,8,1,493.0,0.6666666666666666,2,object_07,1,950,0,7,6,restaurant_8,2,memory-2step-stake-s,593,2241362,0.0-19.0-0.0-0.105,A1W7I6FN183I8F,3QGHA0EA1MGR4GKNSEWY8BJ80SRWBM,3GLB5JMZF1BR8AQ1H7OO6IH731CGDA,8,7
106,4,object_08,object_06,845.90000009537,8,1,288.60000002384,0.7777777777777778,2,object_07,5,985,0,5,7,restaurant_2,2,memory-2step-stake-s,594,2249598,0.0-19.0-0.0-0.106,A1W7I6FN183I8F,3QGHA0EA1MGR4GKNSEWY8BJ80SRWBM,3GLB5JMZF1BR8AQ1H7OO6IH731CGDA,8,7
107,4,object_06,object_08,1049.1999999285,8,2,87.300000071526,0.6666666666666666,2,object_07,1,991,0,8,6,restaurant_3,2,memory-2step-stake-s,595,2257526,0.0-19.0-0.0-0.107,A1W7I6FN183I8F,3QGHA0EA1MGR4GKNSEWY8BJ80SRWBM,3GLB5JMZF1BR8AQ1H7OO6IH731CGDA,7,8
108,4,object_08,object_06,932.20000004768,8,1,457.80000007153,0.7777777777777778,2,object_07,1,998,0,8,7,restaurant_8,2,memory-2step-stake-s,596,2265917,0.0-19.0-0.0-0.108,A1W7I6FN183I8F,3QGHA0EA1MGR4GKNSEWY8BJ80SRWBM,3GLB5JMZF1BR8AQ1H7OO6IH731CGDA,8,7
109,1,object_03,object_02,680.10000002384,2,1,50.300000071526,0.6666666666666666,2,object_07,5,1028,0,8,6,desert_1,2,memory-2step-stake-s,597,2273793,0.0-19.0-0.0-0.109,A1W7I6FN183I8F,3QGHA0EA1MGR4GKNSEWY8BJ80SRWBM,3GLB5JMZF1BR8AQ1H7OO6IH731CGDA,2,1
110,4,object_06,object_08,854.70000004768,8,2,53.899999976158,0.8888888888888888,2,object_07,5,1068,0,6,8,restaurant_3,2,memory-2step-stake-s,598,2281883,0.0-19.0-0.0-0.110,A1W7I6FN183I8F,3QGHA0EA1MGR4GKNSEWY8BJ80SRWBM,3GLB5JMZF1BR8AQ1H7OO6IH731CGDA,7,8
111,2,object_04,object_10,1083.6000000238,4,1,137.10000002384,1.0,2,object_07,5,1113,0,7,9,forest_6,2,memory-2step-stake-s,599,2290155,0.0-19.0-0.0-0.111,A1W7I6FN183I8F,3QGHA0EA1MGR4GKNSEWY8BJ80SRWBM,3GLB5JMZF1BR8AQ1H7OO6IH731CGDA,4,3
112,4,object_06,object_08,664.29999995232,8,2,75.799999952316,1.0,2,object_07,5,1158,0,8,9,restaurant_3,2,memory-2step-stake-s,600,2298379,0.0-19.0-0.0-0.112,A1W7I6FN183I8F,3QGHA0EA1MGR4GKNSEWY8BJ80SRWBM,3GLB5JMZF1BR8AQ1H7OO6IH731CGDA,7,8
113,2,object_04,object_10,1109.8999999762,4,1,173.5,0.8888888888888888,2,object_07,5,1198,0,9,8,forest_2,2,memory-2step-stake-s,601,2306594,0.0-19.0-0.0-0.113,A1W7I6FN183I8F,3QGHA0EA1MGR4GKNSEWY8BJ80SRWBM,3GLB5JMZF1BR8AQ1H7OO6IH731CGDA,4,3
114,4,object_08,object_06,871.0,8,1,34.900000095367,0.8888888888888888,2,object_07,1,1206,0,8,8,restaurant_8,2,memory-2step-stake-s,602,2314688,0.0-19.0-0.0-0.114,A1W7I6FN183I8F,3QGHA0EA1MGR4GKNSEWY8BJ80SRWBM,3GLB5JMZF1BR8AQ1H7OO6IH731CGDA,8,7
115,3,object_05,object_09,855.69999992847,6,2,228.09999990463,0.6666666666666666,2,object_07,5,1236,0,8,6,library_7,2,memory-2step-stake-s,603,2322782,0.0-19.0-0.0-0.115,A1W7I6FN183I8F,3QGHA0EA1MGR4GKNSEWY8BJ80SRWBM,3GLB5JMZF1BR8AQ1H7OO6IH731CGDA,5,6
116,2,object_04,object_10,757.0,4,1,218.5,1.0,2,object_07,5,1281,0,8,9,forest_6,2,memory-2step-stake-s,604,2331132,0.0-19.0-0.0-0.116,A1W7I6FN183I8F,3QGHA0EA1MGR4GKNSEWY8BJ80SRWBM,3GLB5JMZF1BR8AQ1H7OO6IH731CGDA,4,3
117,1,object_02,object_03,807.30000007153,2,2,269.69999992847,0.8888888888888888,2,object_07,5,1321,0,8,8,desert_1,2,memory-2step-stake-s,605,2339436,0.0-19.0-0.0-0.117,A1W7I6FN183I8F,3QGHA0EA1MGR4GKNSEWY8BJ80SRWBM,3GLB5JMZF1BR8AQ1H7OO6IH731CGDA,1,2
118,3,object_05,object_09,854.20000004768,6,2,122.29999995232,0.6666666666666666,2,object_07,1,1327,0,7,6,library_5,2,memory-2step-stake-s,606,2347381,0.0-19.0-0.0-0.118,A1W7I6FN183I8F,3QGHA0EA1MGR4GKNSEWY8BJ80SRWBM,3GLB5JMZF1BR8AQ1H7OO6IH731CGDA,5,6
119,2,object_04,object_10,743.29999995232,4,1,236.70000004768,0.5555555555555556,2,object_07,1,1332,0,6,5,forest_8,2,memory-2step-stake-s,607,2355342,0.0-19.0-0.0-0.119,A1W7I6FN183I8F,3QGHA0EA1MGR4GKNSEWY8BJ80SRWBM,3GLB5JMZF1BR8AQ1H7OO6IH731CGDA,4,3
120,1,object_02,object_03,1164.0,2,2,48.199999928474,0.3333333333333333,2,object_07,5,1347,0,3,3,desert_6,2,memory-2step-stake-s,608,2362915,0.0-19.0-0.0-0.120,A1W7I6FN183I8F,3QGHA0EA1MGR4GKNSEWY8BJ80SRWBM,3GLB5JMZF1BR8AQ1H7OO6IH731CGDA,1,2
121,2,object_10,object_04,831.20000004768,4,2,19.100000023842,0.3333333333333333,2,object_07,1,1350,0,2,3,forest_5,2,memory-2step-stake-s,609,2370454,0.0-19.0-0.0-0.121,A1W7I6FN183I8F,3QGHA0EA1MGR4GKNSEWY8BJ80SRWBM,3GLB5JMZF1BR8AQ1H7OO6IH731CGDA,3,4
122,1,object_03,object_02,837.60000002384,1,2,229.20000004768,0.4444444444444444,1,object_01,5,1370,0,4,2,desert_1,2,memory-2step-stake-s,610,2378301,0.0-19.0-0.0-0.122,A1W7I6FN183I8F,3QGHA0EA1MGR4GKNSEWY8BJ80SRWBM,3GLB5JMZF1BR8AQ1H7OO6IH731CGDA,2,1
123,2,object_04,object_10,853.0,3,2,37.899999976158,0.8888888888888888,1,object_01,1,1378,0,8,1,forest_6,2,memory-2step-stake-s,611,2386367,0.0-19.0-0.0-0.123,A1W7I6FN183I8F,3QGHA0EA1MGR4GKNSEWY8BJ80SRWBM,3GLB5JMZF1BR8AQ1H7OO6IH731CGDA,4,3
124,4,object_08,object_06,1172.6999999285,7,2,114.19999992847,0.8888888888888888,1,object_01,1,1386,0,8,1,restaurant_6,2,memory-2step-stake-s,612,2394508,0.0-19.0-0.0-0.124,A1W7I6FN183I8F,3QGHA0EA1MGR4GKNSEWY8BJ80SRWBM,3GLB5JMZF1BR8AQ1H7OO6IH731CGDA,8,7
125,3,object_09,object_05,1165.5,5,2,325.39999997616,0.8888888888888888,1,object_01,5,1426,0,8,0,library_4,2,memory-2step-stake-s,613,2402879,0.0-19.0-0.0-0.125,A1W7I6FN183I8F,3QGHA0EA1MGR4GKNSEWY8BJ80SRWBM,3GLB5JMZF1BR8AQ1H7OO6IH731CGDA,6,5
126,4,object_08,object_06,903.59999990463,7,2,285.20000004768,0.8888888888888888,1,object_01,1,1434,0,8,1,restaurant_2,2,memory-2step-stake-s,614,2411199,0.0-19.0-0.0-0.126,A1W7I6FN183I8F,3QGHA0EA1MGR4GKNSEWY8BJ80SRWBM,3GLB5JMZF1BR8AQ1H7OO6IH731CGDA,8,7
127,1,object_02,object_03,1136.0,1,1,43.600000023842,0.8888888888888888,1,object_01,5,1474,0,8,1,desert_4,2,memory-2step-stake-s,615,2419272,0.0-19.0-0.0-0.127,A1W7I6FN183I8F,3QGHA0EA1MGR4GKNSEWY8BJ80SRWBM,3GLB5JMZF1BR8AQ1H7OO6IH731CGDA,1,2
128,3,object_09,object_05,916.60000002384,5,2,54.700000047684,0.6666666666666666,1,object_01,1,1480,0,6,2,library_5,2,memory-2step-stake-s,617,2429408,0.0-19.0-0.1-0.128,A1W7I6FN183I8F,3QGHA0EA1MGR4GKNSEWY8BJ80SRWBM,3GLB5JMZF1BR8AQ1H7OO6IH731CGDA,6,5
129,4,object_08,object_06,782.39999997616,7,2,252.89999997616,0.7777777777777778,1,object_01,1,1487,0,7,3,restaurant_3,2,memory-2step-stake-s,618,2437586,0.0-19.0-0.1-0.129,A1W7I6FN183I8F,3QGHA0EA1MGR4GKNSEWY8BJ80SRWBM,3GLB5JMZF1BR8AQ1H7OO6IH731CGDA,8,7
130,4,object_06,object_08,816.70000004768,7,1,21.600000023842,0.8888888888888888,1,object_01,1,1495,0,8,0,restaurant_2,2,memory-2step-stake-s,619,2445650,0.0-19.0-0.1-0.130,A1W7I6FN183I8F,3QGHA0EA1MGR4GKNSEWY8BJ80SRWBM,3GLB5JMZF1BR8AQ1H7OO6IH731CGDA,7,8
131,2,object_10,object_04,1046.3999999762,3,1,292.39999997616,0.8888888888888888,1,object_01,1,1503,0,8,2,forest_5,2,memory-2step-stake-s,620,2453972,0.0-19.0-0.1-0.131,A1W7I6FN183I8F,3QGHA0EA1MGR4GKNSEWY8BJ80SRWBM,3GLB5JMZF1BR8AQ1H7OO6IH731CGDA,3,4
132,3,object_09,object_05,971.70000004768,6,1,119.0,0.7777777777777778,2,object_07,1,1510,0,6,7,library_4,2,memory-2step-stake-s,621,2462036,0.0-19.0-0.1-0.132,A1W7I6FN183I8F,3QGHA0EA1MGR4GKNSEWY8BJ80SRWBM,3GLB5JMZF1BR8AQ1H7OO6IH731CGDA,6,5
133,1,object_02,object_03,748.70000004768,1,1,126.29999995232,0.4444444444444444,1,object_01,5,1530,0,4,6,desert_6,2,memory-2step-stake-s,622,2469788,0.0-19.0-0.1-0.133,A1W7I6FN183I8F,3QGHA0EA1MGR4GKNSEWY8BJ80SRWBM,3GLB5JMZF1BR8AQ1H7OO6IH731CGDA,1,2
134,2,object_10,object_04,1328.5,3,1,42.700000047684,0.5555555555555556,1,object_01,5,1555,0,5,4,forest_2,2,memory-2step-stake-s,623,2477560,0.0-19.0-0.1-0.134,A1W7I6FN183I8F,3QGHA0EA1MGR4GKNSEWY8BJ80SRWBM,3GLB5JMZF1BR8AQ1H7OO6IH731CGDA,3,4
135,1,object_03,object_02,1043.2999999523,2,1,98.600000023842,0.5555555555555556,2,object_07,5,1580,0,2,5,desert_8,2,memory-2step-stake-s,624,2485389,0.0-19.0-0.1-0.135,A1W7I6FN183I8F,3QGHA0EA1MGR4GKNSEWY8BJ80SRWBM,3GLB5JMZF1BR8AQ1H7OO6IH731CGDA,2,1
136,2,object_04,object_10,986.59999990463,4,1,6.5999999046326,0.4444444444444444,2,object_07,5,1600,0,1,4,forest_6,2,memory-2step-stake-s,625,2493025,0.0-19.0-0.1-0.136,A1W7I6FN183I8F,3QGHA0EA1MGR4GKNSEWY8BJ80SRWBM,3GLB5JMZF1BR8AQ1H7OO6IH731CGDA,4,3
137,2,object_04,object_10,1006.8000000715,3,2,176.19999992847,0.1111111111111111,1,object_01,5,1605,0,1,3,forest_6,2,memory-2step-stake-s,626,2500530,0.0-19.0-0.1-0.137,A1W7I6FN183I8F,3QGHA0EA1MGR4GKNSEWY8BJ80SRWBM,3GLB5JMZF1BR8AQ1H7OO6IH731CGDA,4,3
138,3,object_09,object_05,923.5,5,2,48.400000095367,0.3333333333333333,1,object_01,5,1620,0,3,1,library_6,2,memory-2step-stake-s,627,2508124,0.0-19.0-0.1-0.138,A1W7I6FN183I8F,3QGHA0EA1MGR4GKNSEWY8BJ80SRWBM,3GLB5JMZF1BR8AQ1H7OO6IH731CGDA,6,5
139,4,object_08,object_06,1290.3999999762,8,1,2.0,0.1111111111111111,2,object_07,1,1621,0,2,1,restaurant_2,2,memory-2step-stake-s,628,2515468,0.0-19.0-0.1-0.139,A1W7I6FN183I8F,3QGHA0EA1MGR4GKNSEWY8BJ80SRWBM,3GLB5JMZF1BR8AQ1H7OO6IH731CGDA,8,7
140,1,object_02,object_03,532.79999995232,2,2,40.899999976158,0.0,2,object_07,5,1621,0,2,0,desert_6,2,memory-2step-stake-s,629,2522731,0.0-19.0-0.1-0.140,A1W7I6FN183I8F,3QGHA0EA1MGR4GKNSEWY8BJ80SRWBM,3GLB5JMZF1BR8AQ1H7OO6IH731CGDA,1,2
141,3,object_09,object_05,713.79999995232,6,1,152.89999997616,0.4444444444444444,2,object_07,1,1625,0,2,4,library_4,2,memory-2step-stake-s,630,2530510,0.0-19.0-0.1-0.141,A1W7I6FN183I8F,3QGHA0EA1MGR4GKNSEWY8BJ80SRWBM,3GLB5JMZF1BR8AQ1H7OO6IH731CGDA,6,5
142,4,object_08,object_06,727.0,7,2,170.0,0.3333333333333333,1,object_01,1,1628,0,3,4,restaurant_2,2,memory-2step-stake-s,631,2538225,0.0-19.0-0.1-0.142,A1W7I6FN183I8F,3QGHA0EA1MGR4GKNSEWY8BJ80SRWBM,3GLB5JMZF1BR8AQ1H7OO6IH731CGDA,8,7
143,4,object_08,object_06,597.69999992847,8,1,112.39999997616,0.6666666666666666,2,object_07,1,1634,0,2,6,restaurant_8,2,memory-2step-stake-s,632,2546168,0.0-19.0-0.1-0.143,A1W7I6FN183I8F,3QGHA0EA1MGR4GKNSEWY8BJ80SRWBM,3GLB5JMZF1BR8AQ1H7OO6IH731CGDA,8,7
144,2,object_04,object_10,658.60000002384,3,2,175.89999997616,0.0,1,object_01,5,1634,0,0,5,forest_2,2,memory-2step-stake-s,633,2553569,0.0-19.0-0.1-0.144,A1W7I6FN183I8F,3QGHA0EA1MGR4GKNSEWY8BJ80SRWBM,3GLB5JMZF1BR8AQ1H7OO6IH731CGDA,4,3
145,2,object_04,object_10,910.89999997616,4,1,335.0,0.3333333333333333,2,object_07,5,1649,0,2,3,forest_8,2,memory-2step-stake-s,634,2561425,0.0-19.0-0.1-0.145,A1W7I6FN183I8F,3QGHA0EA1MGR4GKNSEWY8BJ80SRWBM,3GLB5JMZF1BR8AQ1H7OO6IH731CGDA,4,3
146,2,object_04,object_10,765.70000004768,3,2,87.899999976158,0.4444444444444444,1,object_01,5,1669,0,4,2,forest_8,2,memory-2step-stake-s,635,2569150,0.0-19.0-0.1-0.146,A1W7I6FN183I8F,3QGHA0EA1MGR4GKNSEWY8BJ80SRWBM,3GLB5JMZF1BR8AQ1H7OO6IH731CGDA,4,3
147,4,object_08,object_06,621.20000004768,8,1,84.800000071526,0.3333333333333333,2,object_07,5,1684,0,2,3,restaurant_6,2,memory-2step-stake-s,636,2576767,0.0-19.0-0.1-0.147,A1W7I6FN183I8F,3QGHA0EA1MGR4GKNSEWY8BJ80SRWBM,3GLB5JMZF1BR8AQ1H7OO6IH731CGDA,8,7
148,1,object_03,object_02,782.5,2,1,165.70000004768,0.5555555555555556,2,object_07,1,1689,0,2,5,desert_1,2,memory-2step-stake-s,637,2584653,0.0-19.0-0.1-0.148,A1W7I6FN183I8F,3QGHA0EA1MGR4GKNSEWY8BJ80SRWBM,3GLB5JMZF1BR8AQ1H7OO6IH731CGDA,2,1
149,1,object_02,object_03,438.60000002384,2,2,16.800000071526,0.5555555555555556,2,object_07,1,1694,0,3,5,desert_8,2,memory-2step-stake-s,638,2592413,0.0-19.0-0.1-0.149,A1W7I6FN183I8F,3QGHA0EA1MGR4GKNSEWY8BJ80SRWBM,3GLB5JMZF1BR8AQ1H7OO6IH731CGDA,1,2
150,2,object_10,object_04,662.79999995232,3,1,68.299999952316,0.2222222222222222,1,object_01,5,1704,0,2,4,forest_6,2,memory-2step-stake-s,639,2599910,0.0-19.0-0.1-0.150,A1W7I6FN183I8F,3QGHA0EA1MGR4GKNSEWY8BJ80SRWBM,3GLB5JMZF1BR8AQ1H7OO6IH731CGDA,3,4
151,3,object_05,object_09,716.39999997616,6,2,212.39999997616,0.4444444444444444,2,object_07,1,1708,0,6,4,library_5,2,memory-2step-stake-s,640,2607743,0.0-19.0-0.1-0.151,A1W7I6FN183I8F,3QGHA0EA1MGR4GKNSEWY8BJ80SRWBM,3GLB5JMZF1BR8AQ1H7OO6IH731CGDA,5,6
152,4,object_08,object_06,637.39999997616,8,1,265.10000002384,0.1111111111111111,2,object_07,1,1709,0,4,1,restaurant_3,2,memory-2step-stake-s,641,2615326,0.0-19.0-0.1-0.152,A1W7I6FN183I8F,3QGHA0EA1MGR4GKNSEWY8BJ80SRWBM,3GLB5JMZF1BR8AQ1H7OO6IH731CGDA,8,7
153,4,object_08,object_06,430.30000007153,7,2,422.5,0.7777777777777778,1,object_01,1,1716,0,7,1,restaurant_3,2,memory-2step-stake-s,642,2623677,0.0-19.0-0.1-0.153,A1W7I6FN183I8F,3QGHA0EA1MGR4GKNSEWY8BJ80SRWBM,3GLB5JMZF1BR8AQ1H7OO6IH731CGDA,8,7
154,2,object_04,object_10,692.5,3,2,32.100000023842,1.0,1,object_01,5,1761,0,9,2,forest_2,2,memory-2step-stake-s,643,2631839,0.0-19.0-0.1-0.154,A1W7I6FN183I8F,3QGHA0EA1MGR4GKNSEWY8BJ80SRWBM,3GLB5JMZF1BR8AQ1H7OO6IH731CGDA,4,3
155,2,object_04,object_10,1109.0,4,1,97.299999952316,0.4444444444444444,2,object_07,5,1781,0,8,4,forest_8,2,memory-2step-stake-s,644,2639573,0.0-19.0-0.1-0.155,A1W7I6FN183I8F,3QGHA0EA1MGR4GKNSEWY8BJ80SRWBM,3GLB5JMZF1BR8AQ1H7OO6IH731CGDA,4,3
156,4,object_08,object_06,998.80000007153,8,1,17.099999904633,0.6666666666666666,2,object_07,5,1811,0,9,6,restaurant_3,2,memory-2step-stake-s,645,2647432,0.0-19.0-0.1-0.156,A1W7I6FN183I8F,3QGHA0EA1MGR4GKNSEWY8BJ80SRWBM,3GLB5JMZF1BR8AQ1H7OO6IH731CGDA,8,7
157,2,object_04,object_10,865.29999995232,3,2,128.0,0.6666666666666666,1,object_01,5,1841,0,6,7,forest_5,2,memory-2step-stake-s,646,2655385,0.0-19.0-0.1-0.157,A1W7I6FN183I8F,3QGHA0EA1MGR4GKNSEWY8BJ80SRWBM,3GLB5JMZF1BR8AQ1H7OO6IH731CGDA,4,3
158,3,object_05,object_09,833.0,5,1,99.100000023842,0.3333333333333333,1,object_01,1,1844,0,3,6,library_5,2,memory-2step-stake-s,647,2663006,0.0-19.0-0.1-0.158,A1W7I6FN183I8F,3QGHA0EA1MGR4GKNSEWY8BJ80SRWBM,3GLB5JMZF1BR8AQ1H7OO6IH731CGDA,5,6
159,2,object_10,object_04,854.39999997616,3,1,121.39999997616,0.2222222222222222,1,object_01,5,1854,0,2,5,forest_8,2,memory-2step-stake-s,648,2670552,0.0-19.0-0.1-0.159,A1W7I6FN183I8F,3QGHA0EA1MGR4GKNSEWY8BJ80SRWBM,3GLB5JMZF1BR8AQ1H7OO6IH731CGDA,3,4
160,1,object_03,object_02,955.60000002384,1,2,63.0,0.3333333333333333,1,object_01,5,1869,0,3,3,desert_1,2,memory-2step-stake-s,649,2678146,0.0-19.0-0.1-0.160,A1W7I6FN183I8F,3QGHA0EA1MGR4GKNSEWY8BJ80SRWBM,3GLB5JMZF1BR8AQ1H7OO6IH731CGDA,2,1
161,2,object_04,object_10,884.10000002384,4,1,265.39999997616,0.1111111111111111,2,object_07,5,1874,0,1,1,forest_2,2,memory-2step-stake-s,650,2685733,0.0-19.0-0.1-0.161,A1W7I6FN183I8F,3QGHA0EA1MGR4GKNSEWY8BJ80SRWBM,3GLB5JMZF1BR8AQ1H7OO6IH731CGDA,4,3
162,3,object_09,object_05,996.39999997616,6,1,83.800000071526,0.4444444444444444,2,object_07,1,1878,0,3,4,library_5,2,memory-2step-stake-s,651,2693444,0.0-19.0-0.1-0.162,A1W7I6FN183I8F,3QGHA0EA1MGR4GKNSEWY8BJ80SRWBM,3GLB5JMZF1BR8AQ1H7OO6IH731CGDA,6,5
163,3,object_05,object_09,726.5,6,2,58.600000023842,0.4444444444444444,2,object_07,5,1898,0,8,4,library_6,2,memory-2step-stake-s,652,2701144,0.0-19.0-0.1-0.163,A1W7I6FN183I8F,3QGHA0EA1MGR4GKNSEWY8BJ80SRWBM,3GLB5JMZF1BR8AQ1H7OO6IH731CGDA,5,6
164,1,object_02,object_03,718.10000002384,2,2,47.700000047684,0.5555555555555556,2,object_07,5,1923,0,5,5,desert_6,2,memory-2step-stake-s,653,2708934,0.0-19.0-0.1-0.164,A1W7I6FN183I8F,3QGHA0EA1MGR4GKNSEWY8BJ80SRWBM,3GLB5JMZF1BR8AQ1H7OO6IH731CGDA,1,2
165,4,object_06,object_08,689.19999992847,7,1,103.79999995232,0.7777777777777778,1,object_01,1,1930,0,7,3,restaurant_8,2,memory-2step-stake-s,654,2716981,0.0-19.0-0.1-0.165,A1W7I6FN183I8F,3QGHA0EA1MGR4GKNSEWY8BJ80SRWBM,3GLB5JMZF1BR8AQ1H7OO6IH731CGDA,7,8
166,1,object_03,object_02,733.39999997616,2,1,8.2000000476837,0.0,2,object_07,5,1930,0,8,0,desert_6,2,memory-2step-stake-s,655,2724210,0.0-19.0-0.1-0.166,A1W7I6FN183I8F,3QGHA0EA1MGR4GKNSEWY8BJ80SRWBM,3GLB5JMZF1BR8AQ1H7OO6IH731CGDA,2,1
167,4,object_06,object_08,550.5,8,2,178.69999992847,0.2222222222222222,2,object_07,1,1932,0,5,2,restaurant_8,2,memory-2step-stake-s,656,2731822,0.0-19.0-0.1-0.167,A1W7I6FN183I8F,3QGHA0EA1MGR4GKNSEWY8BJ80SRWBM,3GLB5JMZF1BR8AQ1H7OO6IH731CGDA,7,8
168,1,object_02,object_03,806.29999995232,1,1,167.10000002384,0.3333333333333333,1,object_01,5,1947,0,3,4,desert_4,2,memory-2step-stake-s,657,2739516,0.0-19.0-0.1-0.168,A1W7I6FN183I8F,3QGHA0EA1MGR4GKNSEWY8BJ80SRWBM,3GLB5JMZF1BR8AQ1H7OO6IH731CGDA,1,2
169,3,object_09,object_05,748.70000004768,5,2,117.5,0.1111111111111111,1,object_01,1,1948,0,1,5,library_4,2,memory-2step-stake-s,658,2746956,0.0-19.0-0.1-0.169,A1W7I6FN183I8F,3QGHA0EA1MGR4GKNSEWY8BJ80SRWBM,3GLB5JMZF1BR8AQ1H7OO6IH731CGDA,6,5
170,3,object_09,object_05,432.19999992847,6,1,160.5,0.3333333333333333,2,object_07,1,1951,0,3,3,library_6,2,memory-2step-stake-s,659,2754645,0.0-19.0-0.1-0.170,A1W7I6FN183I8F,3QGHA0EA1MGR4GKNSEWY8BJ80SRWBM,3GLB5JMZF1BR8AQ1H7OO6IH731CGDA,6,5
171,3,object_09,object_05,369.60000002384,5,2,230.09999990463,0.3333333333333333,1,object_01,1,1954,0,3,0,library_6,2,memory-2step-stake-s,660,2762399,0.0-19.0-0.1-0.171,A1W7I6FN183I8F,3QGHA0EA1MGR4GKNSEWY8BJ80SRWBM,3GLB5JMZF1BR8AQ1H7OO6IH731CGDA,6,5
172,2,object_04,object_10,642.39999997616,3,2,93.800000071526,0.2222222222222222,1,object_01,5,1964,0,2,2,forest_6,2,memory-2step-stake-s,661,2769918,0.0-19.0-0.1-0.172,A1W7I6FN183I8F,3QGHA0EA1MGR4GKNSEWY8BJ80SRWBM,3GLB5JMZF1BR8AQ1H7OO6IH731CGDA,4,3
173,4,object_08,object_06,453.70000004768,8,1,293.10000002384,0.0,2,object_07,1,1964,0,1,0,restaurant_6,2,memory-2step-stake-s,662,2777433,0.0-19.0-0.1-0.173,A1W7I6FN183I8F,3QGHA0EA1MGR4GKNSEWY8BJ80SRWBM,3GLB5JMZF1BR8AQ1H7OO6IH731CGDA,8,7
174,2,object_10,object_04,659.10000002384,3,1,174.5,0.1111111111111111,1,object_01,1,1965,0,1,0,forest_8,2,memory-2step-stake-s,663,2784929,0.0-19.0-0.1-0.174,A1W7I6FN183I8F,3QGHA0EA1MGR4GKNSEWY8BJ80SRWBM,3GLB5JMZF1BR8AQ1H7OO6IH731CGDA,3,4
175,3,object_09,object_05,772.89999997616,6,1,925.70000004768,0.3333333333333333,2,object_07,1,1968,0,1,3,library_6,2,memory-2step-stake-s,664,2793379,0.0-19.0-0.1-0.175,A1W7I6FN183I8F,3QGHA0EA1MGR4GKNSEWY8BJ80SRWBM,3GLB5JMZF1BR8AQ1H7OO6IH731CGDA,6,5
176,3,object_05,object_09,513.40000009537,6,2,618.10000002384,0.6666666666666666,2,object_07,1,1974,0,1,6,library_6,2,memory-2step-stake-s,665,2801838,0.0-19.0-0.1-0.176,A1W7I6FN183I8F,3QGHA0EA1MGR4GKNSEWY8BJ80SRWBM,3GLB5JMZF1BR8AQ1H7OO6IH731CGDA,5,6
177,1,object_02,object_03,382.39999997616,1,1,56.600000023842,0.1111111111111111,1,object_01,5,1979,0,1,9,desert_1,2,memory-2step-stake-s,666,2809225,0.0-19.0-0.1-0.177,A1W7I6FN183I8F,3QGHA0EA1MGR4GKNSEWY8BJ80SRWBM,3GLB5JMZF1BR8AQ1H7OO6IH731CGDA,1,2
178,3,object_09,object_05,320.5,5,2,239.10000002384,0.4444444444444444,1,object_01,1,1983,0,4,7,library_6,2,memory-2step-stake-s,667,2817093,0.0-19.0-0.1-0.178,A1W7I6FN183I8F,3QGHA0EA1MGR4GKNSEWY8BJ80SRWBM,3GLB5JMZF1BR8AQ1H7OO6IH731CGDA,6,5
179,1,object_03,object_02,315.60000002384,2,1,173.70000004768,0.5555555555555556,2,object_07,5,2008,0,3,5,desert_6,2,memory-2step-stake-s,668,2825012,0.0-19.0-0.1-0.179,A1W7I6FN183I8F,3QGHA0EA1MGR4GKNSEWY8BJ80SRWBM,3GLB5JMZF1BR8AQ1H7OO6IH731CGDA,2,1
180,4,object_06,object_08,383.29999995232,8,2,59.5,0.4444444444444444,2,object_07,1,2012,0,4,4,restaurant_3,2,memory-2step-stake-s,669,2832695,0.0-19.0-0.1-0.180,A1W7I6FN183I8F,3QGHA0EA1MGR4GKNSEWY8BJ80SRWBM,3GLB5JMZF1BR8AQ1H7OO6IH731CGDA,7,8
181,1,object_03,object_02,530.89999997616,2,1,354.0,0.3333333333333333,2,object_07,5,2027,0,5,3,desert_1,2,memory-2step-stake-s,670,2840589,0.0-19.0-0.1-0.181,A1W7I6FN183I8F,3QGHA0EA1MGR4GKNSEWY8BJ80SRWBM,3GLB5JMZF1BR8AQ1H7OO6IH731CGDA,2,1
182,2,object_10,object_04,447.60000002384,4,2,182.60000002384,0.3333333333333333,2,object_07,5,2042,0,3,3,forest_6,2,memory-2step-stake-s,671,2848292,0.0-19.0-0.1-0.182,A1W7I6FN183I8F,3QGHA0EA1MGR4GKNSEWY8BJ80SRWBM,3GLB5JMZF1BR8AQ1H7OO6IH731CGDA,3,4
183,2,object_10,object_04,609.69999992847,4,2,103.60000002384,0.2222222222222222,2,object_07,5,2052,0,3,2,forest_5,2,memory-2step-stake-s,672,2855819,0.0-19.0-0.1-0.183,A1W7I6FN183I8F,3QGHA0EA1MGR4GKNSEWY8BJ80SRWBM,3GLB5JMZF1BR8AQ1H7OO6IH731CGDA,3,4
184,4,object_06,object_08,626.20000004768,7,1,161.5,0.1111111111111111,1,object_01,1,2053,0,1,1,restaurant_8,2,memory-2step-stake-s,673,2863296,0.0-19.0-0.1-0.184,A1W7I6FN183I8F,3QGHA0EA1MGR4GKNSEWY8BJ80SRWBM,3GLB5JMZF1BR8AQ1H7OO6IH731CGDA,7,8
185,2,object_10,object_04,421.39999997616,4,2,125.19999992847,0.2222222222222222,2,object_07,1,2055,0,2,2,forest_2,2,memory-2step-stake-s,674,2870852,0.0-19.0-0.1-0.185,A1W7I6FN183I8F,3QGHA0EA1MGR4GKNSEWY8BJ80SRWBM,3GLB5JMZF1BR8AQ1H7OO6IH731CGDA,3,4
186,3,object_05,object_09,339.39999997616,5,1,85.699999928474,0.4444444444444444,1,object_01,1,2059,0,4,5,library_4,2,memory-2step-stake-s,675,2878572,0.0-19.0-0.1-0.186,A1W7I6FN183I8F,3QGHA0EA1MGR4GKNSEWY8BJ80SRWBM,3GLB5JMZF1BR8AQ1H7OO6IH731CGDA,5,6
187,3,object_05,object_09,464.39999997616,6,2,174.79999995232,0.4444444444444444,2,object_07,1,2063,0,5,4,library_6,2,memory-2step-stake-s,676,2886369,0.0-19.0-0.1-0.187,A1W7I6FN183I8F,3QGHA0EA1MGR4GKNSEWY8BJ80SRWBM,3GLB5JMZF1BR8AQ1H7OO6IH731CGDA,5,6
188,2,object_04,object_10,307.89999997616,4,1,30.100000023842,0.6666666666666666,2,object_07,5,2093,0,5,6,forest_2,2,memory-2step-stake-s,677,2894228,0.0-19.0-0.1-0.188,A1W7I6FN183I8F,3QGHA0EA1MGR4GKNSEWY8BJ80SRWBM,3GLB5JMZF1BR8AQ1H7OO6IH731CGDA,4,3
189,4,object_08,object_06,460.5,7,2,97.600000023842,0.6666666666666666,1,object_01,1,2099,0,6,5,restaurant_6,2,memory-2step-stake-s,678,2902154,0.0-19.0-0.1-0.189,A1W7I6FN183I8F,3QGHA0EA1MGR4GKNSEWY8BJ80SRWBM,3GLB5JMZF1BR8AQ1H7OO6IH731CGDA,8,7
190,1,object_03,object_02,925.10000002384,2,1,100.80000007153,0.2222222222222222,2,object_07,5,2109,0,9,2,desert_1,2,memory-2step-stake-s,679,2909683,0.0-19.0-0.1-0.190,A1W7I6FN183I8F,3QGHA0EA1MGR4GKNSEWY8BJ80SRWBM,3GLB5JMZF1BR8AQ1H7OO6IH731CGDA,2,1
191,1,object_02,object_03,517.29999995232,2,2,101.29999995232,0.0,2,object_07,5,2109,0,7,0,desert_8,2,memory-2step-stake-s,680,2917005,0.0-19.0-0.1-0.191,A1W7I6FN183I8F,3QGHA0EA1MGR4GKNSEWY8BJ80SRWBM,3GLB5JMZF1BR8AQ1H7OO6IH731CGDA,1,2
192,3,object_09,object_05,848.0,6,1,197.39999997616,0.1111111111111111,2,object_07,1,2110,0,8,1,library_4,2,memory-2step-stake-s,681,2924524,0.0-19.0-0.1-0.192,A1W7I6FN183I8F,3QGHA0EA1MGR4GKNSEWY8BJ80SRWBM,3GLB5JMZF1BR8AQ1H7OO6IH731CGDA,6,5
193,4,object_08,object_06,1140.0,7,2,125.89999997616,0.7777777777777778,1,object_01,5,2145,0,7,2,restaurant_2,2,memory-2step-stake-s,682,2932576,0.0-19.0-0.1-0.193,A1W7I6FN183I8F,3QGHA0EA1MGR4GKNSEWY8BJ80SRWBM,3GLB5JMZF1BR8AQ1H7OO6IH731CGDA,8,7
194,4,object_08,object_06,1272.2999999523,8,1,220.5,0.5555555555555556,2,object_07,1,2150,0,6,5,restaurant_3,2,memory-2step-stake-s,683,2940530,0.0-19.0-0.1-0.194,A1W7I6FN183I8F,3QGHA0EA1MGR4GKNSEWY8BJ80SRWBM,3GLB5JMZF1BR8AQ1H7OO6IH731CGDA,8,7
195,4,object_06,object_08,796.10000002384,7,1,228.80000007153,0.5555555555555556,1,object_01,1,2155,0,5,7,restaurant_8,2,memory-2step-stake-s,684,2948485,0.0-19.0-0.1-0.195,A1W7I6FN183I8F,3QGHA0EA1MGR4GKNSEWY8BJ80SRWBM,3GLB5JMZF1BR8AQ1H7OO6IH731CGDA,7,8
196,3,object_05,object_09,768.29999995232,5,1,30.299999952316,0.4444444444444444,1,object_01,5,2175,0,4,7,library_6,2,memory-2step-stake-s,685,2956145,0.0-19.0-0.1-0.196,A1W7I6FN183I8F,3QGHA0EA1MGR4GKNSEWY8BJ80SRWBM,3GLB5JMZF1BR8AQ1H7OO6IH731CGDA,5,6
197,3,object_09,object_05,370.40000009537,5,2,112.90000009537,0.4444444444444444,1,object_01,5,2195,0,4,6,library_5,2,memory-2step-stake-s,686,2963894,0.0-19.0-0.1-0.197,A1W7I6FN183I8F,3QGHA0EA1MGR4GKNSEWY8BJ80SRWBM,3GLB5JMZF1BR8AQ1H7OO6IH731CGDA,6,5
198,1,object_03,object_02,766.30000007153,1,2,451.20000004768,0.2222222222222222,1,object_01,5,2205,0,2,8,desert_8,2,memory-2step-stake-s,687,2971768,0.0-19.0-0.1-0.198,A1W7I6FN183I8F,3QGHA0EA1MGR4GKNSEWY8BJ80SRWBM,3GLB5JMZF1BR8AQ1H7OO6IH731CGDA,2,1
199,2,object_10,object_04,904.0,3,1,20.600000023842,0.1111111111111111,1,object_01,5,2210,0,1,7,forest_8,2,memory-2step-stake-s,688,2979122,0.0-19.0-0.1-0.199,A1W7I6FN183I8F,3QGHA0EA1MGR4GKNSEWY8BJ80SRWBM,3GLB5JMZF1BR8AQ1H7OO6IH731CGDA,3,4
200,3,object_09,object_05,564.19999992847,5,2,257.20000004768,0.1111111111111111,1,object_01,1,2211,0,1,6,library_7,2,memory-2step-stake-s,689,2986711,0.0-19.0-0.1-0.200,A1W7I6FN183I8F,3QGHA0EA1MGR4GKNSEWY8BJ80SRWBM,3GLB5JMZF1BR8AQ1H7OO6IH731CGDA,6,5
201,3,object_09,object_05,275.69999992847,6,1,126.39999997616,0.8888888888888888,2,object_07,5,2251,0,4,8,library_7,2,memory-2step-stake-s,690,2994885,0.0-19.0-0.1-0.201,A1W7I6FN183I8F,3QGHA0EA1MGR4GKNSEWY8BJ80SRWBM,3GLB5JMZF1BR8AQ1H7OO6IH731CGDA,6,5
202,3,object_05,object_09,843.60000002384,5,1,220.30000007153,0.4444444444444444,1,object_01,5,2271,0,4,7,library_7,2,memory-2step-stake-s,691,3002733,0.0-19.0-0.1-0.202,A1W7I6FN183I8F,3QGHA0EA1MGR4GKNSEWY8BJ80SRWBM,3GLB5JMZF1BR8AQ1H7OO6IH731CGDA,5,6
203,4,object_08,object_06,426.29999995232,7,2,128.60000002384,0.7777777777777778,1,object_01,1,2278,0,7,7,restaurant_2,2,memory-2step-stake-s,692,3010790,0.0-19.0-0.1-0.203,A1W7I6FN183I8F,3QGHA0EA1MGR4GKNSEWY8BJ80SRWBM,3GLB5JMZF1BR8AQ1H7OO6IH731CGDA,8,7
204,1,object_02,object_03,981.70000004768,1,1,64.799999952316,0.8888888888888888,1,object_01,1,2286,0,8,6,desert_4,2,memory-2step-stake-s,693,3018880,0.0-19.0-0.1-0.204,A1W7I6FN183I8F,3QGHA0EA1MGR4GKNSEWY8BJ80SRWBM,3GLB5JMZF1BR8AQ1H7OO6IH731CGDA,1,2
205,4,object_08,object_06,634.10000002384,8,1,216.39999997616,1.0,2,object_07,1,2295,0,4,9,restaurant_8,2,memory-2step-stake-s,694,3027227,0.0-19.0-0.1-0.205,A1W7I6FN183I8F,3QGHA0EA1MGR4GKNSEWY8BJ80SRWBM,3GLB5JMZF1BR8AQ1H7OO6IH731CGDA,8,7
206,4,object_08,object_06,702.70000004768,7,2,7.5,0.3333333333333333,1,object_01,1,2298,0,3,8,restaurant_6,2,memory-2step-stake-s,695,3034757,0.0-19.0-0.1-0.206,A1W7I6FN183I8F,3QGHA0EA1MGR4GKNSEWY8BJ80SRWBM,3GLB5JMZF1BR8AQ1H7OO6IH731CGDA,8,7
207,3,object_09,object_05,528.29999995232,6,1,25.0,0.8888888888888888,2,object_07,1,2306,0,3,8,library_6,2,memory-2step-stake-s,696,3042815,0.0-19.0-0.1-0.207,A1W7I6FN183I8F,3QGHA0EA1MGR4GKNSEWY8BJ80SRWBM,3GLB5JMZF1BR8AQ1H7OO6IH731CGDA,6,5
208,3,object_05,object_09,330.5,6,2,604.89999997616,0.7777777777777778,2,object_07,1,2313,0,1,7,library_6,2,memory-2step-stake-s,697,3051351,0.0-19.0-0.1-0.208,A1W7I6FN183I8F,3QGHA0EA1MGR4GKNSEWY8BJ80SRWBM,3GLB5JMZF1BR8AQ1H7OO6IH731CGDA,5,6
209,4,object_06,object_08,827.40000009537,7,1,135.70000004768,0.1111111111111111,1,object_01,5,2318,0,1,6,restaurant_2,2,memory-2step-stake-s,698,3058808,0.0-19.0-0.1-0.209,A1W7I6FN183I8F,3QGHA0EA1MGR4GKNSEWY8BJ80SRWBM,3GLB5JMZF1BR8AQ1H7OO6IH731CGDA,7,8
210,1,object_03,object_02,772.39999997616,1,2,80.299999952316,0.0,1,object_01,5,2318,0,0,5,desert_8,2,memory-2step-stake-s,699,3066106,0.0-19.0-0.1-0.210,A1W7I6FN183I8F,3QGHA0EA1MGR4GKNSEWY8BJ80SRWBM,3GLB5JMZF1BR8AQ1H7OO6IH731CGDA,2,1
211,1,object_02,object_03,787.89999997616,2,2,4.1000000238419,0.4444444444444444,2,object_07,5,2338,0,2,4,desert_8,2,memory-2step-stake-s,700,3073732,0.0-19.0-0.1-0.211,A1W7I6FN183I8F,3QGHA0EA1MGR4GKNSEWY8BJ80SRWBM,3GLB5JMZF1BR8AQ1H7OO6IH731CGDA,1,2
212,4,object_06,object_08,897.89999997616,8,2,48.200000047684,0.3333333333333333,2,object_07,1,2341,0,2,3,restaurant_8,2,memory-2step-stake-s,701,3081298,0.0-19.0-0.1-0.212,A1W7I6FN183I8F,3QGHA0EA1MGR4GKNSEWY8BJ80SRWBM,3GLB5JMZF1BR8AQ1H7OO6IH731CGDA,7,8
213,1,object_03,object_02,464.69999992847,2,1,117.0,0.4444444444444444,2,object_07,5,2361,0,4,4,desert_8,2,memory-2step-stake-s,702,3089044,0.0-19.0-0.1-0.213,A1W7I6FN183I8F,3QGHA0EA1MGR4GKNSEWY8BJ80SRWBM,3GLB5JMZF1BR8AQ1H7OO6IH731CGDA,2,1
214,4,object_06,object_08,503.40000009537,8,2,69.899999976158,0.4444444444444444,2,object_07,1,2365,0,6,4,restaurant_3,2,memory-2step-stake-s,703,3096742,0.0-19.0-0.1-0.214,A1W7I6FN183I8F,3QGHA0EA1MGR4GKNSEWY8BJ80SRWBM,3GLB5JMZF1BR8AQ1H7OO6IH731CGDA,7,8
215,4,object_06,object_08,472.0,8,2,104.5,0.3333333333333333,2,object_07,1,2368,0,6,3,restaurant_6,2,memory-2step-stake-s,704,3104386,0.0-19.0-0.1-0.215,A1W7I6FN183I8F,3QGHA0EA1MGR4GKNSEWY8BJ80SRWBM,3GLB5JMZF1BR8AQ1H7OO6IH731CGDA,7,8
216,3,object_05,object_09,564.40000009537,5,1,54.699999928474,0.5555555555555556,1,object_01,1,2373,0,5,3,library_7,2,memory-2step-stake-s,705,3112171,0.0-19.0-0.1-0.216,A1W7I6FN183I8F,3QGHA0EA1MGR4GKNSEWY8BJ80SRWBM,3GLB5JMZF1BR8AQ1H7OO6IH731CGDA,5,6
217,1,object_03,object_02,599.19999992847,2,1,259.20000004768,0.3333333333333333,2,object_07,5,2388,0,5,3,desert_6,2,memory-2step-stake-s,706,3119975,0.0-19.0-0.1-0.217,A1W7I6FN183I8F,3QGHA0EA1MGR4GKNSEWY8BJ80SRWBM,3GLB5JMZF1BR8AQ1H7OO6IH731CGDA,2,1
218,2,object_10,object_04,821.09999990463,4,2,175.10000002384,0.5555555555555556,2,object_07,5,2413,0,5,5,forest_8,2,memory-2step-stake-s,707,3127881,0.0-19.0-0.1-0.218,A1W7I6FN183I8F,3QGHA0EA1MGR4GKNSEWY8BJ80SRWBM,3GLB5JMZF1BR8AQ1H7OO6IH731CGDA,3,4
219,2,object_04,object_10,476.29999995232,4,1,88.5,0.4444444444444444,2,object_07,5,2433,0,4,4,forest_2,2,memory-2step-stake-s,708,3135597,0.0-19.0-0.1-0.219,A1W7I6FN183I8F,3QGHA0EA1MGR4GKNSEWY8BJ80SRWBM,3GLB5JMZF1BR8AQ1H7OO6IH731CGDA,4,3
220,1,object_02,object_03,964.29999995232,1,1,100.29999995232,0.3333333333333333,1,object_01,5,2448,0,3,6,desert_4,2,memory-2step-stake-s,709,3143238,0.0-19.0-0.1-0.220,A1W7I6FN183I8F,3QGHA0EA1MGR4GKNSEWY8BJ80SRWBM,3GLB5JMZF1BR8AQ1H7OO6IH731CGDA,1,2
221,2,object_10,object_04,618.69999992847,4,2,72.399999976158,0.7777777777777778,2,object_07,1,2455,0,3,7,forest_2,2,memory-2step-stake-s,710,3151243,0.0-19.0-0.1-0.221,A1W7I6FN183I8F,3QGHA0EA1MGR4GKNSEWY8BJ80SRWBM,3GLB5JMZF1BR8AQ1H7OO6IH731CGDA,3,4
222,4,object_08,object_06,817.0,8,1,81.100000023842,0.6666666666666666,2,object_07,5,2485,0,3,6,restaurant_8,2,memory-2step-stake-s,711,3159158,0.0-19.0-0.1-0.222,A1W7I6FN183I8F,3QGHA0EA1MGR4GKNSEWY8BJ80SRWBM,3GLB5JMZF1BR8AQ1H7OO6IH731CGDA,8,7
223,4,object_08,object_06,766.40000009537,7,2,252.5,0.5555555555555556,1,object_01,5,2510,0,5,4,restaurant_2,2,memory-2step-stake-s,712,3167144,0.0-19.0-0.1-0.223,A1W7I6FN183I8F,3QGHA0EA1MGR4GKNSEWY8BJ80SRWBM,3GLB5JMZF1BR8AQ1H7OO6IH731CGDA,8,7
224,3,object_05,object_09,654.29999995232,5,1,109.30000007153,0.5555555555555556,1,object_01,5,2535,0,5,4,library_6,2,memory-2step-stake-s,713,3175007,0.0-19.0-0.1-0.224,A1W7I6FN183I8F,3QGHA0EA1MGR4GKNSEWY8BJ80SRWBM,3GLB5JMZF1BR8AQ1H7OO6IH731CGDA,5,6
225,2,object_04,object_10,824.5,3,2,11.400000095367,0.4444444444444444,1,object_01,5,2555,0,4,2,forest_6,2,memory-2step-stake-s,714,3182648,0.0-19.0-0.1-0.225,A1W7I6FN183I8F,3QGHA0EA1MGR4GKNSEWY8BJ80SRWBM,3GLB5JMZF1BR8AQ1H7OO6IH731CGDA,4,3
226,3,object_09,object_05,584.10000002384,6,1,14.699999928474,0.0,2,object_07,1,2555,0,3,0,library_4,2,memory-2step-stake-s,715,3189879,0.0-19.0-0.1-0.226,A1W7I6FN183I8F,3QGHA0EA1MGR4GKNSEWY8BJ80SRWBM,3GLB5JMZF1BR8AQ1H7OO6IH731CGDA,6,5
227,1,object_02,object_03,720.0,1,1,1.6000000238419,0.2222222222222222,1,object_01,5,2565,0,2,2,desert_1,2,memory-2step-stake-s,716,3197306,0.0-19.0-0.1-0.227,A1W7I6FN183I8F,3QGHA0EA1MGR4GKNSEWY8BJ80SRWBM,3GLB5JMZF1BR8AQ1H7OO6IH731CGDA,1,2
228,2,object_10,object_04,809.20000004768,3,1,344.29999995232,0.4444444444444444,1,object_01,5,2585,0,4,1,forest_6,2,memory-2step-stake-s,717,3205279,0.0-19.0-0.1-0.228,A1W7I6FN183I8F,3QGHA0EA1MGR4GKNSEWY8BJ80SRWBM,3GLB5JMZF1BR8AQ1H7OO6IH731CGDA,3,4
229,4,object_06,object_08,452.5,8,2,219.89999997616,0.1111111111111111,2,object_07,1,2586,0,1,1,restaurant_8,2,memory-2step-stake-s,718,3212815,0.0-19.0-0.1-0.229,A1W7I6FN183I8F,3QGHA0EA1MGR4GKNSEWY8BJ80SRWBM,3GLB5JMZF1BR8AQ1H7OO6IH731CGDA,7,8
230,2,object_10,object_04,640.0,3,1,241.19999992847,0.3333333333333333,1,object_01,5,2601,0,3,5,forest_8,2,memory-2step-stake-s,719,3220607,0.0-19.0-0.1-0.230,A1W7I6FN183I8F,3QGHA0EA1MGR4GKNSEWY8BJ80SRWBM,3GLB5JMZF1BR8AQ1H7OO6IH731CGDA,3,4
231,1,object_02,object_03,487.5,2,2,147.80000007153,0.3333333333333333,2,object_07,5,2616,0,1,3,desert_6,2,memory-2step-stake-s,720,3228288,0.0-19.0-0.1-0.231,A1W7I6FN183I8F,3QGHA0EA1MGR4GKNSEWY8BJ80SRWBM,3GLB5JMZF1BR8AQ1H7OO6IH731CGDA,1,2
232,4,object_06,object_08,659.39999997616,7,1,72.199999928474,0.1111111111111111,1,object_01,1,2617,0,1,4,restaurant_6,2,memory-2step-stake-s,721,3235690,0.0-19.0-0.1-0.232,A1W7I6FN183I8F,3QGHA0EA1MGR4GKNSEWY8BJ80SRWBM,3GLB5JMZF1BR8AQ1H7OO6IH731CGDA,7,8
233,2,object_10,object_04,498.0,4,2,191.89999997616,0.1111111111111111,2,object_07,5,2622,0,2,1,forest_5,2,memory-2step-stake-s,722,3243200,0.0-19.0-0.1-0.233,A1W7I6FN183I8F,3QGHA0EA1MGR4GKNSEWY8BJ80SRWBM,3GLB5JMZF1BR8AQ1H7OO6IH731CGDA,3,4
234,1,object_03,object_02,797.10000002384,1,2,89.700000047684,0.1111111111111111,1,object_01,5,2627,0,1,0,desert_6,2,memory-2step-stake-s,723,3250611,0.0-19.0-0.1-0.234,A1W7I6FN183I8F,3QGHA0EA1MGR4GKNSEWY8BJ80SRWBM,3GLB5JMZF1BR8AQ1H7OO6IH731CGDA,2,1
235,1,object_02,object_03,687.79999995232,2,2,93.5,0.2222222222222222,2,object_07,5,2637,0,5,2,desert_4,2,memory-2step-stake-s,724,3258127,0.0-19.0-0.1-0.235,A1W7I6FN183I8F,3QGHA0EA1MGR4GKNSEWY8BJ80SRWBM,3GLB5JMZF1BR8AQ1H7OO6IH731CGDA,1,2
236,4,object_06,object_08,415.10000002384,7,1,209.39999997616,0.4444444444444444,1,object_01,1,2641,0,4,1,restaurant_2,2,memory-2step-stake-s,725,3265964,0.0-19.0-0.1-0.236,A1W7I6FN183I8F,3QGHA0EA1MGR4GKNSEWY8BJ80SRWBM,3GLB5JMZF1BR8AQ1H7OO6IH731CGDA,7,8
237,1,object_02,object_03,310.89999997616,2,2,209.39999997616,0.1111111111111111,2,object_07,5,2646,0,1,1,desert_8,2,memory-2step-stake-s,726,3273494,0.0-19.0-0.1-0.237,A1W7I6FN183I8F,3QGHA0EA1MGR4GKNSEWY8BJ80SRWBM,3GLB5JMZF1BR8AQ1H7OO6IH731CGDA,1,2
238,3,object_09,object_05,1304.2999999523,6,1,12.600000023842,0.2222222222222222,2,object_07,1,2648,0,2,2,library_4,2,memory-2step-stake-s,727,3280924,0.0-19.0-0.1-0.238,A1W7I6FN183I8F,3QGHA0EA1MGR4GKNSEWY8BJ80SRWBM,3GLB5JMZF1BR8AQ1H7OO6IH731CGDA,6,5
239,1,object_03,object_02,828.20000004768,2,1,82.399999976158,0.1111111111111111,2,object_07,5,2653,0,0,1,desert_4,2,memory-2step-stake-s,728,3288336,0.0-19.0-0.1-0.239,A1W7I6FN183I8F,3QGHA0EA1MGR4GKNSEWY8BJ80SRWBM,3GLB5JMZF1BR8AQ1H7OO6IH731CGDA,2,1
240,4,object_06,object_08,1084.2000000477,8,2,78.700000047684,0.3333333333333333,2,object_07,1,2656,0,3,3,restaurant_6,2,memory-2step-stake-s,729,3295952,0.0-19.0-0.1-0.240,A1W7I6FN183I8F,3QGHA0EA1MGR4GKNSEWY8BJ80SRWBM,3GLB5JMZF1BR8AQ1H7OO6IH731CGDA,7,8
241,3,object_09,object_05,1348.2000000477,6,1,238.0,0.3333333333333333,2,object_07,1,2659,0,4,3,library_7,2,memory-2step-stake-s,730,3303738,0.0-19.0-0.1-0.241,A1W7I6FN183I8F,3QGHA0EA1MGR4GKNSEWY8BJ80SRWBM,3GLB5JMZF1BR8AQ1H7OO6IH731CGDA,6,5
242,4,object_08,object_06,314.69999992847,7,2,255.40000009537,1.0,1,object_01,1,2668,0,9,3,restaurant_6,2,memory-2step-stake-s,731,3312131,0.0-19.0-0.1-0.242,A1W7I6FN183I8F,3QGHA0EA1MGR4GKNSEWY8BJ80SRWBM,3GLB5JMZF1BR8AQ1H7OO6IH731CGDA,8,7
243,1,object_02,object_03,876.89999997616,1,1,64.700000047684,0.8888888888888888,1,object_01,5,2708,0,8,2,desert_8,2,memory-2step-stake-s,732,3320239,0.0-19.0-0.1-0.243,A1W7I6FN183I8F,3QGHA0EA1MGR4GKNSEWY8BJ80SRWBM,3GLB5JMZF1BR8AQ1H7OO6IH731CGDA,1,2
244,1,object_02,object_03,655.60000002384,1,1,0.19999992847443,0.7777777777777778,1,object_01,5,2743,0,7,1,desert_4,2,memory-2step-stake-s,733,3328164,0.0-19.0-0.1-0.244,A1W7I6FN183I8F,3QGHA0EA1MGR4GKNSEWY8BJ80SRWBM,3GLB5JMZF1BR8AQ1H7OO6IH731CGDA,1,2
245,2,object_10,object_04,352.0,4,2,91.100000023842,0.4444444444444444,2,object_07,1,2747,0,8,4,forest_5,2,memory-2step-stake-s,734,3335880,0.0-19.0-0.1-0.245,A1W7I6FN183I8F,3QGHA0EA1MGR4GKNSEWY8BJ80SRWBM,3GLB5JMZF1BR8AQ1H7OO6IH731CGDA,3,4
246,2,object_10,object_04,887.5,3,1,116.29999995232,0.7777777777777778,1,object_01,5,2782,0,7,1,forest_5,2,memory-2step-stake-s,735,3343924,0.0-19.0-0.1-0.246,A1W7I6FN183I8F,3QGHA0EA1MGR4GKNSEWY8BJ80SRWBM,3GLB5JMZF1BR8AQ1H7OO6IH731CGDA,3,4
247,3,object_05,object_09,397.5,6,2,171.10000002384,0.1111111111111111,2,object_07,1,2783,0,9,1,library_4,2,memory-2step-stake-s,736,3351413,0.0-19.0-0.1-0.247,A1W7I6FN183I8F,3QGHA0EA1MGR4GKNSEWY8BJ80SRWBM,3GLB5JMZF1BR8AQ1H7OO6IH731CGDA,5,6
248,1,object_03,object_02,628.30000007153,2,1,304.30000007153,0.1111111111111111,2,object_07,5,2788,0,8,1,desert_6,2,memory-2step-stake-s,737,3359054,0.0-19.0-0.1-0.248,A1W7I6FN183I8F,3QGHA0EA1MGR4GKNSEWY8BJ80SRWBM,3GLB5JMZF1BR8AQ1H7OO6IH731CGDA,2,1
249,1,object_03,object_02,496.19999992847,1,2,160.10000002384,0.8888888888888888,1,object_01,5,2828,0,8,0,desert_1,2,memory-2step-stake-s,738,3367255,0.0-19.0-0.1-0.249,A1W7I6FN183I8F,3QGHA0EA1MGR4GKNSEWY8BJ80SRWBM,3GLB5JMZF1BR8AQ1H7OO6IH731CGDA,2,1
250,2,object_10,object_04,1071.3000000715,3,1,56.0,0.7777777777777778,1,object_01,5,2863,0,7,0,forest_8,2,memory-2step-stake-s,739,3375256,0.0-19.0-0.1-0.250,A1W7I6FN183I8F,3QGHA0EA1MGR4GKNSEWY8BJ80SRWBM,3GLB5JMZF1BR8AQ1H7OO6IH731CGDA,3,4
251,2,object_10,object_04,727.39999997616,3,1,7.7999999523163,0.8888888888888888,1,object_01,5,2903,0,8,3,forest_5,2,memory-2step-stake-s,740,3383306,0.0-19.0-0.1-0.251,A1W7I6FN183I8F,3QGHA0EA1MGR4GKNSEWY8BJ80SRWBM,3GLB5JMZF1BR8AQ1H7OO6IH731CGDA,3,4
252,2,object_10,object_04,657.20000004768,3,1,187.29999995232,0.8888888888888888,1,object_01,5,2943,0,8,5,forest_8,2,memory-2step-stake-s,741,3391535,0.0-19.0-0.1-0.252,A1W7I6FN183I8F,3QGHA0EA1MGR4GKNSEWY8BJ80SRWBM,3GLB5JMZF1BR8AQ1H7OO6IH731CGDA,3,4
253,3,object_05,object_09,699.69999992847,6,2,66.200000047684,0.1111111111111111,2,object_07,1,2944,0,9,1,library_4,2,memory-2step-stake-s,742,3398929,0.0-19.0-0.1-0.253,A1W7I6FN183I8F,3QGHA0EA1MGR4GKNSEWY8BJ80SRWBM,3GLB5JMZF1BR8AQ1H7OO6IH731CGDA,5,6
254,4,object_08,object_06,409.60000002384,8,1,11.300000071526,0.0,2,object_07,1,2944,0,7,0,restaurant_6,2,memory-2step-stake-s,743,3406163,0.0-19.0-0.1-0.254,A1W7I6FN183I8F,3QGHA0EA1MGR4GKNSEWY8BJ80SRWBM,3GLB5JMZF1BR8AQ1H7OO6IH731CGDA,8,7
255,2,object_10,object_04,1135.8999999762,3,1,67.200000047684,0.8888888888888888,1,object_01,5,2984,0,8,1,forest_6,2,memory-2step-stake-s,744,3414278,0.0-19.0-0.1-0.255,A1W7I6FN183I8F,3QGHA0EA1MGR4GKNSEWY8BJ80SRWBM,3GLB5JMZF1BR8AQ1H7OO6IH731CGDA,3,4
