,state1,stim_left,stim_right,rt_1,choice1,response1,rt_2,points,state2,stim_state2,stake,score,practice,rews1,rews2,background,high_arm,trial_type,trial_index,time_elapsed,internal_node_id,subid,hitid,assignmentid,stim_left_num,stim_right_num
0,2,object_07,object_09,1058.8999999762,3,2,-1.0,0.0,1,object_04,5,0,0,1,5,forest_6,2,memory-2step-stake-s,493,916750,0.0-19.0-0.0-0.0,A36P1ZQ0GYF567,371DNNCG57IGA1IMUX7DUPM8OSP8TA,3X73LLYYQ5UEUICPQ7K9NN52W5TNH0,4,3
1,2,object_07,object_09,646.39999997616,3,2,444.09999996424,0.2222222222222222,1,object_04,5,10,0,2,4,forest_2,2,memory-2step-stake-s,494,924743,0.0-19.0-0.0-0.1,A36P1ZQ0GYF567,371DNNCG57IGA1IMUX7DUPM8OSP8TA,3X73LLYYQ5UEUICPQ7K9NN52W5TNH0,4,3
2,4,object_02,object_01,486.0,7,1,440.5,0.3333333333333333,1,object_04,1,13,0,3,4,restaurant_4,2,memory-2step-stake-s,495,932840,0.0-19.0-0.0-0.2,A36P1ZQ0GYF567,371DNNCG57IGA1IMUX7DUPM8OSP8TA,3X73LLYYQ5UEUICPQ7K9NN52W5TNH0,7,8
3,1,object_03,object_05,632.30000001192,1,1,404.90000003576,0.4444444444444444,1,object_04,5,33,0,4,4,desert_5,2,memory-2step-stake-s,496,940966,0.0-19.0-0.0-0.3,A36P1ZQ0GYF567,371DNNCG57IGA1IMUX7DUPM8OSP8TA,3X73LLYYQ5UEUICPQ7K9NN52W5TNH0,1,2
4,2,object_07,object_09,570.5,3,2,393.30000001192,0.3333333333333333,1,object_04,5,48,0,3,3,forest_1,2,memory-2step-stake-s,497,948997,0.0-19.0-0.0-0.4,A36P1ZQ0GYF567,371DNNCG57IGA1IMUX7DUPM8OSP8TA,3X73LLYYQ5UEUICPQ7K9NN52W5TNH0,4,3
5,4,object_02,object_01,533.69999998808,8,2,390.40000003576,0.1111111111111111,2,object_08,1,49,0,3,1,restaurant_5,2,memory-2step-stake-s,498,956791,0.0-19.0-0.0-0.5,A36P1ZQ0GYF567,371DNNCG57IGA1IMUX7DUPM8OSP8TA,3X73LLYYQ5UEUICPQ7K9NN52W5TNH0,7,8
6,3,object_06,object_10,356.30000001192,6,1,324.10000002384,0.3333333333333333,2,object_08,1,52,0,3,3,library_2,2,memory-2step-stake-s,499,964756,0.0-19.0-0.0-0.6,A36P1ZQ0GYF567,371DNNCG57IGA1IMUX7DUPM8OSP8TA,3X73LLYYQ5UEUICPQ7K9NN52W5TNH0,6,5
7,2,object_07,object_09,313.19999998808,4,1,425.59999996424,0.2222222222222222,2,object_08,5,62,0,1,2,forest_2,2,memory-2step-stake-s,500,972675,0.0-19.0-0.0-0.7,A36P1ZQ0GYF567,371DNNCG57IGA1IMUX7DUPM8OSP8TA,3X73LLYYQ5UEUICPQ7K9NN52W5TNH0,4,3
8,4,object_01,object_02,588.30000001192,7,2,317.09999996424,0.1111111111111111,1,object_04,1,63,0,1,5,restaurant_4,2,memory-2step-stake-s,501,980380,0.0-19.0-0.0-0.8,A36P1ZQ0GYF567,371DNNCG57IGA1IMUX7DUPM8OSP8TA,3X73LLYYQ5UEUICPQ7K9NN52W5TNH0,8,7
9,2,object_07,object_09,726.30000001192,4,1,287.60000002384,0.4444444444444444,2,object_08,5,83,0,1,4,forest_6,2,memory-2step-stake-s,502,988407,0.0-19.0-0.0-0.9,A36P1ZQ0GYF567,371DNNCG57IGA1IMUX7DUPM8OSP8TA,3X73LLYYQ5UEUICPQ7K9NN52W5TNH0,4,3
10,4,object_02,object_01,995.90000003576,8,2,497.09999996424,0.4444444444444444,2,object_08,1,87,0,2,4,restaurant_7,2,memory-2step-stake-s,503,996603,0.0-19.0-0.0-0.10,A36P1ZQ0GYF567,371DNNCG57IGA1IMUX7DUPM8OSP8TA,3X73LLYYQ5UEUICPQ7K9NN52W5TNH0,7,8
11,3,object_10,object_06,722.80000001192,6,2,343.19999998808,0.2222222222222222,2,object_08,1,89,0,4,2,library_4,2,memory-2step-stake-s,504,1004441,0.0-19.0-0.0-0.11,A36P1ZQ0GYF567,371DNNCG57IGA1IMUX7DUPM8OSP8TA,3X73LLYYQ5UEUICPQ7K9NN52W5TNH0,5,6
12,3,object_10,object_06,895.89999997616,5,1,289.90000003576,0.1111111111111111,1,object_04,1,90,0,1,8,library_3,2,memory-2step-stake-s,505,1012104,0.0-19.0-0.0-0.12,A36P1ZQ0GYF567,371DNNCG57IGA1IMUX7DUPM8OSP8TA,3X73LLYYQ5UEUICPQ7K9NN52W5TNH0,5,6
13,2,object_07,object_09,689.19999998808,4,1,443.30000001192,1.0,2,object_08,5,135,0,0,9,forest_5,2,memory-2step-stake-s,506,1020838,0.0-19.0-0.0-0.13,A36P1ZQ0GYF567,371DNNCG57IGA1IMUX7DUPM8OSP8TA,3X73LLYYQ5UEUICPQ7K9NN52W5TNH0,4,3
14,3,object_06,object_10,473.5,5,2,313.69999998808,0.2222222222222222,1,object_04,1,137,0,2,9,library_3,2,memory-2step-stake-s,507,1028627,0.0-19.0-0.0-0.14,A36P1ZQ0GYF567,371DNNCG57IGA1IMUX7DUPM8OSP8TA,3X73LLYYQ5UEUICPQ7K9NN52W5TNH0,6,5
15,4,object_02,object_01,740.89999997616,8,2,360.30000001192,0.4444444444444444,2,object_08,1,141,0,4,4,restaurant_8,2,memory-2step-stake-s,508,1036726,0.0-19.0-0.0-0.15,A36P1ZQ0GYF567,371DNNCG57IGA1IMUX7DUPM8OSP8TA,3X73LLYYQ5UEUICPQ7K9NN52W5TNH0,7,8
16,4,object_01,object_02,397.90000003576,7,2,496.80000001192,0.1111111111111111,1,object_04,5,146,0,1,6,restaurant_7,2,memory-2step-stake-s,509,1044620,0.0-19.0-0.0-0.16,A36P1ZQ0GYF567,371DNNCG57IGA1IMUX7DUPM8OSP8TA,3X73LLYYQ5UEUICPQ7K9NN52W5TNH0,8,7
17,3,object_06,object_10,463.89999997616,5,2,582.60000002384,0.3333333333333333,1,object_04,1,149,0,3,5,library_1,2,memory-2step-stake-s,510,1052813,0.0-19.0-0.0-0.17,A36P1ZQ0GYF567,371DNNCG57IGA1IMUX7DUPM8OSP8TA,3X73LLYYQ5UEUICPQ7K9NN52W5TNH0,6,5
18,2,object_07,object_09,507.39999997616,4,1,364.09999996424,0.6666666666666666,2,object_08,5,179,0,3,6,forest_1,2,memory-2step-stake-s,511,1061140,0.0-19.0-0.0-0.18,A36P1ZQ0GYF567,371DNNCG57IGA1IMUX7DUPM8OSP8TA,3X73LLYYQ5UEUICPQ7K9NN52W5TNH0,4,3
19,2,object_07,object_09,562.10000002384,4,1,437.5,0.8888888888888888,2,object_08,5,219,0,3,8,forest_5,2,memory-2step-stake-s,512,1069770,0.0-19.0-0.0-0.19,A36P1ZQ0GYF567,371DNNCG57IGA1IMUX7DUPM8OSP8TA,3X73LLYYQ5UEUICPQ7K9NN52W5TNH0,4,3
20,2,object_09,object_07,377.5,4,2,282.0,0.6666666666666666,2,object_08,1,225,0,4,6,forest_6,2,memory-2step-stake-s,513,1077998,0.0-19.0-0.0-0.20,A36P1ZQ0GYF567,371DNNCG57IGA1IMUX7DUPM8OSP8TA,3X73LLYYQ5UEUICPQ7K9NN52W5TNH0,3,4
21,2,object_09,object_07,345.10000002384,4,2,702.60000002384,0.7777777777777778,2,object_08,1,232,0,1,7,forest_1,2,memory-2step-stake-s,514,1086764,0.0-19.0-0.0-0.21,A36P1ZQ0GYF567,371DNNCG57IGA1IMUX7DUPM8OSP8TA,3X73LLYYQ5UEUICPQ7K9NN52W5TNH0,3,4
22,1,object_03,object_05,787.5,1,1,495.10000002384,0.3333333333333333,1,object_04,5,247,0,3,8,desert_4,2,memory-2step-stake-s,515,1094876,0.0-19.0-0.0-0.22,A36P1ZQ0GYF567,371DNNCG57IGA1IMUX7DUPM8OSP8TA,3X73LLYYQ5UEUICPQ7K9NN52W5TNH0,1,2
23,4,object_01,object_02,453.90000003576,8,1,393.39999997616,0.8888888888888888,2,object_08,1,255,0,5,8,restaurant_7,2,memory-2step-stake-s,516,1103459,0.0-19.0-0.0-0.23,A36P1ZQ0GYF567,371DNNCG57IGA1IMUX7DUPM8OSP8TA,3X73LLYYQ5UEUICPQ7K9NN52W5TNH0,8,7
24,1,object_03,object_05,396.69999998808,2,2,307.59999996424,0.4444444444444444,2,object_08,5,275,0,1,4,desert_2,2,memory-2step-stake-s,517,1111487,0.0-19.0-0.0-0.24,A36P1ZQ0GYF567,371DNNCG57IGA1IMUX7DUPM8OSP8TA,3X73LLYYQ5UEUICPQ7K9NN52W5TNH0,1,2
25,1,object_03,object_05,404.29999995232,2,2,415.5,0.4444444444444444,2,object_08,5,295,0,6,4,desert_2,2,memory-2step-stake-s,518,1119661,0.0-19.0-0.0-0.25,A36P1ZQ0GYF567,371DNNCG57IGA1IMUX7DUPM8OSP8TA,3X73LLYYQ5UEUICPQ7K9NN52W5TNH0,1,2
26,4,object_02,object_01,428.59999996424,8,2,404.89999997616,0.4444444444444444,2,object_08,5,315,0,6,4,restaurant_7,2,memory-2step-stake-s,519,1127824,0.0-19.0-0.0-0.26,A36P1ZQ0GYF567,371DNNCG57IGA1IMUX7DUPM8OSP8TA,3X73LLYYQ5UEUICPQ7K9NN52W5TNH0,7,8
27,3,object_06,object_10,310.89999997616,6,1,234.69999998808,0.3333333333333333,2,object_08,1,318,0,6,3,library_3,2,memory-2step-stake-s,520,1135685,0.0-19.0-0.0-0.27,A36P1ZQ0GYF567,371DNNCG57IGA1IMUX7DUPM8OSP8TA,3X73LLYYQ5UEUICPQ7K9NN52W5TNH0,6,5
28,3,object_06,object_10,660.79999995232,6,1,291.89999997616,0.1111111111111111,2,object_08,5,323,0,4,1,library_1,2,memory-2step-stake-s,521,1143357,0.0-19.0-0.0-0.28,A36P1ZQ0GYF567,371DNNCG57IGA1IMUX7DUPM8OSP8TA,3X73LLYYQ5UEUICPQ7K9NN52W5TNH0,6,5
29,3,object_06,object_10,935.59999996424,6,1,540.80000001192,0.1111111111111111,2,object_08,1,324,0,5,1,library_4,2,memory-2step-stake-s,522,1151299,0.0-19.0-0.0-0.29,A36P1ZQ0GYF567,371DNNCG57IGA1IMUX7DUPM8OSP8TA,3X73LLYYQ5UEUICPQ7K9NN52W5TNH0,6,5
30,1,object_05,object_03,619.10000002384,2,1,497.10000002384,0.0,2,object_08,5,324,0,6,0,desert_2,2,memory-2step-stake-s,523,1159068,0.0-19.0-0.0-0.30,A36P1ZQ0GYF567,371DNNCG57IGA1IMUX7DUPM8OSP8TA,3X73LLYYQ5UEUICPQ7K9NN52W5TNH0,2,1
31,4,object_02,object_01,456.0,8,2,406.0,0.1111111111111111,2,object_08,1,325,0,8,1,restaurant_5,2,memory-2step-stake-s,524,1166863,0.0-19.0-0.0-0.31,A36P1ZQ0GYF567,371DNNCG57IGA1IMUX7DUPM8OSP8TA,3X73LLYYQ5UEUICPQ7K9NN52W5TNH0,7,8
32,2,object_09,object_07,720.19999998808,3,1,274.29999995232,0.8888888888888888,1,object_04,5,365,0,8,4,forest_5,2,memory-2step-stake-s,525,1175360,0.0-19.0-0.0-0.32,A36P1ZQ0GYF567,371DNNCG57IGA1IMUX7DUPM8OSP8TA,3X73LLYYQ5UEUICPQ7K9NN52W5TNH0,3,4
33,1,object_03,object_05,727.09999996424,2,2,326.89999997616,0.6666666666666666,2,object_08,1,371,0,8,6,desert_6,2,memory-2step-stake-s,526,1183649,0.0-19.0-0.0-0.33,A36P1ZQ0GYF567,371DNNCG57IGA1IMUX7DUPM8OSP8TA,3X73LLYYQ5UEUICPQ7K9NN52W5TNH0,1,2
34,3,object_06,object_10,733.90000003576,5,2,461.30000001192,1.0,1,object_04,1,380,0,9,7,library_3,2,memory-2step-stake-s,527,1192384,0.0-19.0-0.0-0.34,A36P1ZQ0GYF567,371DNNCG57IGA1IMUX7DUPM8OSP8TA,3X73LLYYQ5UEUICPQ7K9NN52W5TNH0,6,5
35,2,object_09,object_07,839.40000003576,3,1,430.59999996424,0.6666666666666666,1,object_04,5,410,0,6,8,forest_1,2,memory-2step-stake-s,528,1200778,0.0-19.0-0.0-0.35,A36P1ZQ0GYF567,371DNNCG57IGA1IMUX7DUPM8OSP8TA,3X73LLYYQ5UEUICPQ7K9NN52W5TNH0,3,4
36,4,object_02,object_01,747.5,7,1,249.10000002384,0.5555555555555556,1,object_04,5,435,0,5,7,restaurant_7,2,memory-2step-stake-s,529,1208874,0.0-19.0-0.0-0.36,A36P1ZQ0GYF567,371DNNCG57IGA1IMUX7DUPM8OSP8TA,3X73LLYYQ5UEUICPQ7K9NN52W5TNH0,7,8
37,2,object_09,object_07,611.89999997616,4,2,309.59999996424,0.3333333333333333,2,object_08,1,438,0,5,3,forest_5,2,memory-2step-stake-s,530,1216772,0.0-19.0-0.0-0.37,A36P1ZQ0GYF567,371DNNCG57IGA1IMUX7DUPM8OSP8TA,3X73LLYYQ5UEUICPQ7K9NN52W5TNH0,3,4
38,4,object_01,object_02,725.0,7,2,478.90000003576,0.4444444444444444,1,object_04,5,458,0,4,0,restaurant_8,2,memory-2step-stake-s,531,1225009,0.0-19.0-0.0-0.38,A36P1ZQ0GYF567,371DNNCG57IGA1IMUX7DUPM8OSP8TA,3X73LLYYQ5UEUICPQ7K9NN52W5TNH0,8,7
39,3,object_06,object_10,658.80000001192,5,2,352.39999997616,0.5555555555555556,1,object_04,5,483,0,5,2,library_2,2,memory-2step-stake-s,532,1233187,0.0-19.0-0.0-0.39,A36P1ZQ0GYF567,371DNNCG57IGA1IMUX7DUPM8OSP8TA,3X73LLYYQ5UEUICPQ7K9NN52W5TNH0,6,5
40,3,object_06,object_10,461.30000001192,6,1,320.0,0.2222222222222222,2,object_08,1,485,0,5,2,library_2,2,memory-2step-stake-s,533,1240986,0.0-19.0-0.0-0.40,A36P1ZQ0GYF567,371DNNCG57IGA1IMUX7DUPM8OSP8TA,3X73LLYYQ5UEUICPQ7K9NN52W5TNH0,6,5
41,3,object_10,object_06,905.39999997616,5,1,647.10000002384,0.5555555555555556,1,object_04,1,490,0,5,1,library_4,2,memory-2step-stake-s,534,1249457,0.0-19.0-0.0-0.41,A36P1ZQ0GYF567,371DNNCG57IGA1IMUX7DUPM8OSP8TA,3X73LLYYQ5UEUICPQ7K9NN52W5TNH0,5,6
42,2,object_07,object_09,748.30000001192,4,1,433.89999997616,0.0,2,object_08,5,490,0,3,0,forest_2,2,memory-2step-stake-s,535,1257189,0.0-19.0-0.0-0.42,A36P1ZQ0GYF567,371DNNCG57IGA1IMUX7DUPM8OSP8TA,3X73LLYYQ5UEUICPQ7K9NN52W5TNH0,4,3
43,1,object_05,object_03,918.30000001192,1,2,285.60000002384,0.0,1,object_04,5,490,0,0,0,desert_4,2,memory-2step-stake-s,536,1264747,0.0-19.0-0.0-0.43,A36P1ZQ0GYF567,371DNNCG57IGA1IMUX7DUPM8OSP8TA,3X73LLYYQ5UEUICPQ7K9NN52W5TNH0,2,1
44,3,object_06,object_10,762.0,5,2,349.0,0.0,1,object_04,1,490,0,0,0,library_1,2,memory-2step-stake-s,537,1272371,0.0-19.0-0.0-0.44,A36P1ZQ0GYF567,371DNNCG57IGA1IMUX7DUPM8OSP8TA,3X73LLYYQ5UEUICPQ7K9NN52W5TNH0,6,5
45,3,object_10,object_06,-1.0,-1,-1,-1.0,0.0,-,0,1,490,0,3,2,library_1,2,memory-2step-stake-s,538,1278963,0.0-19.0-0.0-0.45,A36P1ZQ0GYF567,371DNNCG57IGA1IMUX7DUPM8OSP8TA,3X73LLYYQ5UEUICPQ7K9NN52W5TNH0,5,6
46,1,object_03,object_05,760.10000002384,2,2,385.30000001192,0.1111111111111111,2,object_08,1,491,0,5,1,desert_6,2,memory-2step-stake-s,539,1286745,0.0-19.0-0.0-0.46,A36P1ZQ0GYF567,371DNNCG57IGA1IMUX7DUPM8OSP8TA,3X73LLYYQ5UEUICPQ7K9NN52W5TNH0,1,2
47,1,object_05,object_03,578.20000004768,1,2,480.39999997616,0.6666666666666666,1,object_04,5,521,0,6,0,desert_4,2,memory-2step-stake-s,540,1295190,0.0-19.0-0.0-0.47,A36P1ZQ0GYF567,371DNNCG57IGA1IMUX7DUPM8OSP8TA,3X73LLYYQ5UEUICPQ7K9NN52W5TNH0,2,1
48,1,object_05,object_03,418.90000003576,1,2,293.30000001192,0.7777777777777778,1,object_04,5,556,0,7,0,desert_4,2,memory-2step-stake-s,541,1303574,0.0-19.0-0.0-0.48,A36P1ZQ0GYF567,371DNNCG57IGA1IMUX7DUPM8OSP8TA,3X73LLYYQ5UEUICPQ7K9NN52W5TNH0,2,1
49,3,object_10,object_06,487.10000002384,6,2,295.69999998808,0.2222222222222222,2,object_08,5,566,0,9,2,library_1,2,memory-2step-stake-s,542,1311370,0.0-19.0-0.0-0.49,A36P1ZQ0GYF567,371DNNCG57IGA1IMUX7DUPM8OSP8TA,3X73LLYYQ5UEUICPQ7K9NN52W5TNH0,5,6
50,4,object_01,object_02,717.5,8,1,372.89999997616,0.4444444444444444,2,object_08,1,570,0,6,4,restaurant_4,2,memory-2step-stake-s,543,1319429,0.0-19.0-0.0-0.50,A36P1ZQ0GYF567,371DNNCG57IGA1IMUX7DUPM8OSP8TA,3X73LLYYQ5UEUICPQ7K9NN52W5TNH0,8,7
51,3,object_10,object_06,404.29999995232,6,2,287.30000001192,0.4444444444444444,2,object_08,1,574,0,6,4,library_1,2,memory-2step-stake-s,544,1327441,0.0-19.0-0.0-0.51,A36P1ZQ0GYF567,371DNNCG57IGA1IMUX7DUPM8OSP8TA,3X73LLYYQ5UEUICPQ7K9NN52W5TNH0,5,6
52,3,object_10,object_06,350.0,6,2,506.80000001192,0.1111111111111111,2,object_08,1,575,0,7,1,library_4,2,memory-2step-stake-s,545,1335368,0.0-19.0-0.0-0.52,A36P1ZQ0GYF567,371DNNCG57IGA1IMUX7DUPM8OSP8TA,3X73LLYYQ5UEUICPQ7K9NN52W5TNH0,5,6
53,1,object_05,object_03,659.59999996424,1,2,437.90000003576,0.8888888888888888,1,object_04,5,615,0,8,4,desert_2,2,memory-2step-stake-s,546,1343981,0.0-19.0-0.0-0.53,A36P1ZQ0GYF567,371DNNCG57IGA1IMUX7DUPM8OSP8TA,3X73LLYYQ5UEUICPQ7K9NN52W5TNH0,2,1
54,2,object_09,object_07,269.5,3,1,504.69999998808,0.8888888888888888,1,object_04,1,623,0,8,7,forest_2,2,memory-2step-stake-s,547,1352686,0.0-19.0-0.0-0.54,A36P1ZQ0GYF567,371DNNCG57IGA1IMUX7DUPM8OSP8TA,3X73LLYYQ5UEUICPQ7K9NN52W5TNH0,3,4
55,2,object_09,object_07,293.30000001192,3,1,437.19999998808,1.0,1,object_04,1,632,0,9,7,forest_1,2,memory-2step-stake-s,548,1361441,0.0-19.0-0.0-0.55,A36P1ZQ0GYF567,371DNNCG57IGA1IMUX7DUPM8OSP8TA,3X73LLYYQ5UEUICPQ7K9NN52W5TNH0,3,4
56,4,object_01,object_02,303.30000001192,7,2,310.40000003576,1.0,1,object_04,1,641,0,9,3,restaurant_7,2,memory-2step-stake-s,549,1370059,0.0-19.0-0.0-0.56,A36P1ZQ0GYF567,371DNNCG57IGA1IMUX7DUPM8OSP8TA,3X73LLYYQ5UEUICPQ7K9NN52W5TNH0,8,7
57,1,object_05,object_03,495.80000001192,1,2,378.69999998808,0.8888888888888888,1,object_04,5,681,0,8,1,desert_6,2,memory-2step-stake-s,550,1378661,0.0-19.0-0.0-0.57,A36P1ZQ0GYF567,371DNNCG57IGA1IMUX7DUPM8OSP8TA,3X73LLYYQ5UEUICPQ7K9NN52W5TNH0,2,1
58,2,object_07,object_09,370.0,3,2,298.0,0.6666666666666666,1,object_04,1,687,0,6,1,forest_6,2,memory-2step-stake-s,551,1386927,0.0-19.0-0.0-0.58,A36P1ZQ0GYF567,371DNNCG57IGA1IMUX7DUPM8OSP8TA,3X73LLYYQ5UEUICPQ7K9NN52W5TNH0,4,3
59,4,object_02,object_01,454.89999997616,8,2,564.89999997616,0.1111111111111111,2,object_08,5,692,0,7,1,restaurant_5,2,memory-2step-stake-s,552,1394865,0.0-19.0-0.0-0.59,A36P1ZQ0GYF567,371DNNCG57IGA1IMUX7DUPM8OSP8TA,3X73LLYYQ5UEUICPQ7K9NN52W5TNH0,7,8
60,4,object_02,object_01,562.69999998808,7,1,335.39999997616,0.4444444444444444,1,object_04,1,696,0,4,1,restaurant_4,2,memory-2step-stake-s,553,1402897,0.0-19.0-0.0-0.60,A36P1ZQ0GYF567,371DNNCG57IGA1IMUX7DUPM8OSP8TA,3X73LLYYQ5UEUICPQ7K9NN52W5TNH0,7,8
61,2,object_09,object_07,492.10000002384,4,2,268.60000002384,0.2222222222222222,2,object_08,5,706,0,2,2,forest_6,2,memory-2step-stake-s,554,1410653,0.0-19.0-0.0-0.61,A36P1ZQ0GYF567,371DNNCG57IGA1IMUX7DUPM8OSP8TA,3X73LLYYQ5UEUICPQ7K9NN52W5TNH0,3,4
62,3,object_06,object_10,465.40000003576,6,1,285.80000001192,0.4444444444444444,2,object_08,1,710,0,4,4,library_1,2,memory-2step-stake-s,555,1418655,0.0-19.0-0.0-0.62,A36P1ZQ0GYF567,371DNNCG57IGA1IMUX7DUPM8OSP8TA,3X73LLYYQ5UEUICPQ7K9NN52W5TNH0,6,5
63,4,object_01,object_02,314.90000003576,8,1,309.0,0.4444444444444444,2,object_08,1,714,0,1,4,restaurant_8,2,memory-2step-stake-s,556,1426742,0.0-19.0-0.0-0.63,A36P1ZQ0GYF567,371DNNCG57IGA1IMUX7DUPM8OSP8TA,3X73LLYYQ5UEUICPQ7K9NN52W5TNH0,8,7
64,2,object_07,object_09,717.09999996424,4,1,421.0,0.1111111111111111,2,object_08,5,719,0,1,1,forest_6,2,memory-2step-stake-s,557,1434559,0.0-19.0-0.0-0.64,A36P1ZQ0GYF567,371DNNCG57IGA1IMUX7DUPM8OSP8TA,3X73LLYYQ5UEUICPQ7K9NN52W5TNH0,4,3
65,3,object_10,object_06,460.5,6,2,1084.0,0.1111111111111111,2,object_08,1,720,0,2,1,library_4,2,memory-2step-stake-s,558,1443044,0.0-19.0-0.0-0.65,A36P1ZQ0GYF567,371DNNCG57IGA1IMUX7DUPM8OSP8TA,3X73LLYYQ5UEUICPQ7K9NN52W5TNH0,5,6
66,3,object_10,object_06,610.30000001192,6,2,408.39999997616,0.1111111111111111,2,object_08,1,721,0,1,1,library_2,2,memory-2step-stake-s,559,1450840,0.0-19.0-0.0-0.66,A36P1ZQ0GYF567,371DNNCG57IGA1IMUX7DUPM8OSP8TA,3X73LLYYQ5UEUICPQ7K9NN52W5TNH0,5,6
67,2,object_07,object_09,701.0,4,1,408.0,0.2222222222222222,2,object_08,5,731,0,1,2,forest_1,2,memory-2step-stake-s,560,1458752,0.0-19.0-0.0-0.67,A36P1ZQ0GYF567,371DNNCG57IGA1IMUX7DUPM8OSP8TA,3X73LLYYQ5UEUICPQ7K9NN52W5TNH0,4,3
68,2,object_07,object_09,351.10000002384,3,2,339.0,0.1111111111111111,1,object_04,5,736,0,1,0,forest_5,2,memory-2step-stake-s,561,1466476,0.0-19.0-0.0-0.68,A36P1ZQ0GYF567,371DNNCG57IGA1IMUX7DUPM8OSP8TA,3X73LLYYQ5UEUICPQ7K9NN52W5TNH0,4,3
69,1,object_05,object_03,415.5,2,1,302.90000003576,0.1111111111111111,2,object_08,5,741,0,0,1,desert_4,2,memory-2step-stake-s,562,1474173,0.0-19.0-0.0-0.69,A36P1ZQ0GYF567,371DNNCG57IGA1IMUX7DUPM8OSP8TA,3X73LLYYQ5UEUICPQ7K9NN52W5TNH0,2,1
70,4,object_01,object_02,-1.0,-1,-1,-1.0,0.0,-,0,1,741,0,2,0,restaurant_7,2,memory-2step-stake-s,563,1480729,0.0-19.0-0.0-0.70,A36P1ZQ0GYF567,371DNNCG57IGA1IMUX7DUPM8OSP8TA,3X73LLYYQ5UEUICPQ7K9NN52W5TNH0,8,7
71,3,object_06,object_10,305.79999995232,6,1,497.90000003576,0.4444444444444444,2,object_08,1,745,0,2,4,library_2,2,memory-2step-stake-s,564,1488982,0.0-19.0-0.0-0.71,A36P1ZQ0GYF567,371DNNCG57IGA1IMUX7DUPM8OSP8TA,3X73LLYYQ5UEUICPQ7K9NN52W5TNH0,6,5
72,1,object_03,object_05,618.70000004768,1,1,434.90000003576,0.0,1,object_04,1,745,0,0,2,desert_6,2,memory-2step-stake-s,565,1496694,0.0-19.0-0.0-0.72,A36P1ZQ0GYF567,371DNNCG57IGA1IMUX7DUPM8OSP8TA,3X73LLYYQ5UEUICPQ7K9NN52W5TNH0,1,2
73,4,object_01,object_02,310.19999998808,8,1,455.69999998808,0.0,2,object_08,1,745,0,0,0,restaurant_5,2,memory-2step-stake-s,566,1504436,0.0-19.0-0.0-0.73,A36P1ZQ0GYF567,371DNNCG57IGA1IMUX7DUPM8OSP8TA,3X73LLYYQ5UEUICPQ7K9NN52W5TNH0,8,7
74,4,object_02,object_01,563.19999998808,8,2,511.0,0.3333333333333333,2,object_08,1,748,0,0,3,restaurant_5,2,memory-2step-stake-s,567,1512580,0.0-19.0-0.0-0.74,A36P1ZQ0GYF567,371DNNCG57IGA1IMUX7DUPM8OSP8TA,3X73LLYYQ5UEUICPQ7K9NN52W5TNH0,7,8
75,1,object_05,object_03,464.60000002384,1,2,444.19999998808,0.1111111111111111,1,object_04,5,753,0,1,6,desert_5,2,memory-2step-stake-s,568,1520429,0.0-19.0-0.0-0.75,A36P1ZQ0GYF567,371DNNCG57IGA1IMUX7DUPM8OSP8TA,3X73LLYYQ5UEUICPQ7K9NN52W5TNH0,2,1
76,3,object_06,object_10,569.69999998808,5,2,280.5,0.1111111111111111,1,object_04,5,758,0,1,8,library_3,2,memory-2step-stake-s,569,1528139,0.0-19.0-0.0-0.76,A36P1ZQ0GYF567,371DNNCG57IGA1IMUX7DUPM8OSP8TA,3X73LLYYQ5UEUICPQ7K9NN52W5TNH0,6,5
77,2,object_09,object_07,523.59999996424,4,2,257.40000003576,0.8888888888888888,2,object_08,5,798,0,4,8,forest_5,2,memory-2step-stake-s,570,1536605,0.0-19.0-0.0-0.77,A36P1ZQ0GYF567,371DNNCG57IGA1IMUX7DUPM8OSP8TA,3X73LLYYQ5UEUICPQ7K9NN52W5TNH0,3,4
78,1,object_05,object_03,675.0,2,1,300.10000002384,1.0,2,object_08,5,843,0,3,9,desert_6,2,memory-2step-stake-s,571,1545213,0.0-19.0-0.0-0.78,A36P1ZQ0GYF567,371DNNCG57IGA1IMUX7DUPM8OSP8TA,3X73LLYYQ5UEUICPQ7K9NN52W5TNH0,2,1
79,3,object_06,object_10,628.40000003576,6,1,637.40000003576,0.8888888888888888,2,object_08,5,883,0,1,8,library_2,2,memory-2step-stake-s,572,1554040,0.0-19.0-0.0-0.79,A36P1ZQ0GYF567,371DNNCG57IGA1IMUX7DUPM8OSP8TA,3X73LLYYQ5UEUICPQ7K9NN52W5TNH0,6,5
80,1,object_05,object_03,477.0,2,1,141.30000001192,0.7777777777777778,2,object_08,1,890,0,1,7,desert_5,2,memory-2step-stake-s,573,1562275,0.0-19.0-0.0-0.80,A36P1ZQ0GYF567,371DNNCG57IGA1IMUX7DUPM8OSP8TA,3X73LLYYQ5UEUICPQ7K9NN52W5TNH0,2,1
81,1,object_05,object_03,560.30000001192,2,1,240.0,0.8888888888888888,2,object_08,5,930,0,1,8,desert_2,2,memory-2step-stake-s,574,1570701,0.0-19.0-0.0-0.81,A36P1ZQ0GYF567,371DNNCG57IGA1IMUX7DUPM8OSP8TA,3X73LLYYQ5UEUICPQ7K9NN52W5TNH0,2,1
82,1,object_05,object_03,413.30000001192,2,1,52.800000011921,0.8888888888888888,2,object_08,1,938,0,2,8,desert_4,2,memory-2step-stake-s,575,1578931,0.0-19.0-0.0-0.82,A36P1ZQ0GYF567,371DNNCG57IGA1IMUX7DUPM8OSP8TA,3X73LLYYQ5UEUICPQ7K9NN52W5TNH0,2,1
83,3,object_06,object_10,313.70000004768,5,2,281.80000001192,0.4444444444444444,1,object_04,1,942,0,4,5,library_3,2,memory-2step-stake-s,576,1586905,0.0-19.0-0.0-0.83,A36P1ZQ0GYF567,371DNNCG57IGA1IMUX7DUPM8OSP8TA,3X73LLYYQ5UEUICPQ7K9NN52W5TNH0,6,5
84,2,object_07,object_09,554.19999998808,3,2,298.89999997616,0.5555555555555556,1,object_04,5,967,0,5,5,forest_1,2,memory-2step-stake-s,577,1595001,0.0-19.0-0.0-0.84,A36P1ZQ0GYF567,371DNNCG57IGA1IMUX7DUPM8OSP8TA,3X73LLYYQ5UEUICPQ7K9NN52W5TNH0,4,3
85,3,object_10,object_06,696.69999998808,6,2,545.59999996424,0.7777777777777778,2,object_08,5,1002,0,4,7,library_4,2,memory-2step-stake-s,578,1603596,0.0-19.0-0.0-0.85,A36P1ZQ0GYF567,371DNNCG57IGA1IMUX7DUPM8OSP8TA,3X73LLYYQ5UEUICPQ7K9NN52W5TNH0,5,6
86,3,object_06,object_10,384.69999998808,5,2,411.90000003576,0.3333333333333333,1,object_04,1,1005,0,3,5,library_4,2,memory-2step-stake-s,579,1611594,0.0-19.0-0.0-0.86,A36P1ZQ0GYF567,371DNNCG57IGA1IMUX7DUPM8OSP8TA,3X73LLYYQ5UEUICPQ7K9NN52W5TNH0,6,5
87,2,object_09,object_07,523.80000001192,4,2,287.29999995232,0.5555555555555556,2,object_08,5,1030,0,1,5,forest_5,2,memory-2step-stake-s,580,1619737,0.0-19.0-0.0-0.87,A36P1ZQ0GYF567,371DNNCG57IGA1IMUX7DUPM8OSP8TA,3X73LLYYQ5UEUICPQ7K9NN52W5TNH0,3,4
88,1,object_03,object_05,474.0,2,2,605.89999997616,0.5555555555555556,2,object_08,5,1055,0,1,5,desert_4,2,memory-2step-stake-s,581,1628186,0.0-19.0-0.0-0.88,A36P1ZQ0GYF567,371DNNCG57IGA1IMUX7DUPM8OSP8TA,3X73LLYYQ5UEUICPQ7K9NN52W5TNH0,1,2
89,3,object_10,object_06,616.09999996424,5,1,288.19999998808,0.1111111111111111,1,object_04,5,1060,0,1,6,library_2,2,memory-2step-stake-s,582,1635846,0.0-19.0-0.0-0.89,A36P1ZQ0GYF567,371DNNCG57IGA1IMUX7DUPM8OSP8TA,3X73LLYYQ5UEUICPQ7K9NN52W5TNH0,5,6
90,2,object_09,object_07,902.0,4,2,668.30000001192,0.5555555555555556,2,object_08,5,1085,0,4,5,forest_6,2,memory-2step-stake-s,583,1644378,0.0-19.0-0.0-0.90,A36P1ZQ0GYF567,371DNNCG57IGA1IMUX7DUPM8OSP8TA,3X73LLYYQ5UEUICPQ7K9NN52W5TNH0,3,4
91,2,object_09,object_07,407.80000001192,4,2,538.89999997616,0.6666666666666666,2,object_08,5,1115,0,5,6,forest_1,2,memory-2step-stake-s,584,1652860,0.0-19.0-0.0-0.91,A36P1ZQ0GYF567,371DNNCG57IGA1IMUX7DUPM8OSP8TA,3X73LLYYQ5UEUICPQ7K9NN52W5TNH0,3,4
92,1,object_03,object_05,575.40000003576,1,1,286.60000002384,0.3333333333333333,1,object_04,5,1130,0,3,2,desert_6,2,memory-2step-stake-s,585,1660741,0.0-19.0-0.0-0.92,A36P1ZQ0GYF567,371DNNCG57IGA1IMUX7DUPM8OSP8TA,3X73LLYYQ5UEUICPQ7K9NN52W5TNH0,1,2
93,3,object_10,object_06,403.60000002384,5,1,433.5,0.6666666666666666,1,object_04,1,1136,0,6,4,library_3,2,memory-2step-stake-s,586,1669154,0.0-19.0-0.0-0.93,A36P1ZQ0GYF567,371DNNCG57IGA1IMUX7DUPM8OSP8TA,3X73LLYYQ5UEUICPQ7K9NN52W5TNH0,5,6
94,4,object_02,object_01,613.79999995232,7,1,422.80000001192,0.8888888888888888,1,object_04,1,1144,0,8,6,restaurant_4,2,memory-2step-stake-s,587,1677769,0.0-19.0-0.0-0.94,A36P1ZQ0GYF567,371DNNCG57IGA1IMUX7DUPM8OSP8TA,3X73LLYYQ5UEUICPQ7K9NN52W5TNH0,7,8
95,2,object_09,object_07,349.40000003576,4,2,289.30000001192,0.2222222222222222,2,object_08,1,1146,0,8,2,forest_5,2,memory-2step-stake-s,588,1685582,0.0-19.0-0.0-0.95,A36P1ZQ0GYF567,371DNNCG57IGA1IMUX7DUPM8OSP8TA,3X73LLYYQ5UEUICPQ7K9NN52W5TNH0,3,4
96,4,object_01,object_02,436.69999998808,7,2,321.89999997616,1.0,1,object_04,5,1191,0,9,5,restaurant_5,2,memory-2step-stake-s,589,1694179,0.0-19.0-0.0-0.96,A36P1ZQ0GYF567,371DNNCG57IGA1IMUX7DUPM8OSP8TA,3X73LLYYQ5UEUICPQ7K9NN52W5TNH0,8,7
97,2,object_09,object_07,611.60000002384,4,2,344.30000001192,0.6666666666666666,2,object_08,5,1221,0,9,6,forest_2,2,memory-2step-stake-s,590,1702466,0.0-19.0-0.0-0.97,A36P1ZQ0GYF567,371DNNCG57IGA1IMUX7DUPM8OSP8TA,3X73LLYYQ5UEUICPQ7K9NN52W5TNH0,3,4
98,3,object_10,object_06,572.80000001192,6,2,367.90000003576,0.4444444444444444,2,object_08,5,1241,0,8,4,library_2,2,memory-2step-stake-s,591,1710601,0.0-19.0-0.0-0.98,A36P1ZQ0GYF567,371DNNCG57IGA1IMUX7DUPM8OSP8TA,3X73LLYYQ5UEUICPQ7K9NN52W5TNH0,5,6
99,1,object_05,object_03,586.30000001192,2,1,276.5,0.2222222222222222,2,object_08,5,1251,0,9,2,desert_4,2,memory-2step-stake-s,592,1718373,0.0-19.0-0.0-0.99,A36P1ZQ0GYF567,371DNNCG57IGA1IMUX7DUPM8OSP8TA,3X73LLYYQ5UEUICPQ7K9NN52W5TNH0,2,1
100,4,object_02,object_01,342.89999997616,7,1,302.59999996424,0.4444444444444444,1,object_04,1,1255,0,4,4,restaurant_4,2,memory-2step-stake-s,593,1726401,0.0-19.0-0.0-0.100,A36P1ZQ0GYF567,371DNNCG57IGA1IMUX7DUPM8OSP8TA,3X73LLYYQ5UEUICPQ7K9NN52W5TNH0,7,8
101,1,object_03,object_05,620.0,2,2,307.10000002384,0.4444444444444444,2,object_08,5,1275,0,2,4,desert_6,2,memory-2step-stake-s,594,1734436,0.0-19.0-0.0-0.101,A36P1ZQ0GYF567,371DNNCG57IGA1IMUX7DUPM8OSP8TA,3X73LLYYQ5UEUICPQ7K9NN52W5TNH0,1,2
102,1,object_03,object_05,487.30000001192,1,1,249.30000001192,0.1111111111111111,1,object_04,5,1280,0,1,5,desert_5,2,memory-2step-stake-s,595,1742077,0.0-19.0-0.0-0.102,A36P1ZQ0GYF567,371DNNCG57IGA1IMUX7DUPM8OSP8TA,3X73LLYYQ5UEUICPQ7K9NN52W5TNH0,1,2
103,1,object_05,object_03,378.80000001192,2,1,522.80000001192,0.8888888888888888,2,object_08,5,1320,0,2,8,desert_5,2,memory-2step-stake-s,596,1750776,0.0-19.0-0.0-0.103,A36P1ZQ0GYF567,371DNNCG57IGA1IMUX7DUPM8OSP8TA,3X73LLYYQ5UEUICPQ7K9NN52W5TNH0,2,1
104,2,object_09,object_07,530.0,4,2,246.0,0.8888888888888888,2,object_08,5,1360,0,3,8,forest_5,2,memory-2step-stake-s,597,1759204,0.0-19.0-0.0-0.104,A36P1ZQ0GYF567,371DNNCG57IGA1IMUX7DUPM8OSP8TA,3X73LLYYQ5UEUICPQ7K9NN52W5TNH0,3,4
105,2,object_09,object_07,396.59999996424,4,2,265.89999997616,1.0,2,object_08,1,1369,0,6,9,forest_5,2,memory-2step-stake-s,598,1767732,0.0-19.0-0.0-0.105,A36P1ZQ0GYF567,371DNNCG57IGA1IMUX7DUPM8OSP8TA,3X73LLYYQ5UEUICPQ7K9NN52W5TNH0,3,4
106,4,object_01,object_02,445.69999998808,8,1,337.5,0.7777777777777778,2,object_08,1,1376,0,4,7,restaurant_8,2,memory-2step-stake-s,599,1776106,0.0-19.0-0.0-0.106,A36P1ZQ0GYF567,371DNNCG57IGA1IMUX7DUPM8OSP8TA,3X73LLYYQ5UEUICPQ7K9NN52W5TNH0,8,7
107,1,object_03,object_05,469.80000001192,1,1,331.19999998808,0.7777777777777778,1,object_04,1,1383,0,7,4,desert_2,2,memory-2step-stake-s,600,1784511,0.0-19.0-0.0-0.107,A36P1ZQ0GYF567,371DNNCG57IGA1IMUX7DUPM8OSP8TA,3X73LLYYQ5UEUICPQ7K9NN52W5TNH0,1,2
108,4,object_02,object_01,475.0,8,2,334.89999997616,0.3333333333333333,2,object_08,1,1386,0,8,3,restaurant_8,2,memory-2step-stake-s,601,1792455,0.0-19.0-0.0-0.108,A36P1ZQ0GYF567,371DNNCG57IGA1IMUX7DUPM8OSP8TA,3X73LLYYQ5UEUICPQ7K9NN52W5TNH0,7,8
109,4,object_02,object_01,441.69999998808,7,1,264.90000003576,0.5555555555555556,1,object_04,1,1391,0,5,1,restaurant_8,2,memory-2step-stake-s,602,1800548,0.0-19.0-0.0-0.109,A36P1ZQ0GYF567,371DNNCG57IGA1IMUX7DUPM8OSP8TA,3X73LLYYQ5UEUICPQ7K9NN52W5TNH0,7,8
110,4,object_01,object_02,547.30000001192,8,1,308.30000001192,0.2222222222222222,2,object_08,1,1393,0,5,2,restaurant_5,2,memory-2step-stake-s,603,1808345,0.0-19.0-0.0-0.110,A36P1ZQ0GYF567,371DNNCG57IGA1IMUX7DUPM8OSP8TA,3X73LLYYQ5UEUICPQ7K9NN52W5TNH0,8,7
111,4,object_02,object_01,398.90000003576,7,1,269.69999998808,1.0,1,object_04,1,1402,0,9,3,restaurant_7,2,memory-2step-stake-s,604,1816905,0.0-19.0-0.0-0.111,A36P1ZQ0GYF567,371DNNCG57IGA1IMUX7DUPM8OSP8TA,3X73LLYYQ5UEUICPQ7K9NN52W5TNH0,7,8
112,2,object_09,object_07,891.30000001192,4,2,417.30000001192,0.5555555555555556,2,object_08,5,1427,0,9,5,forest_2,2,memory-2step-stake-s,605,1825146,0.0-19.0-0.0-0.112,A36P1ZQ0GYF567,371DNNCG57IGA1IMUX7DUPM8OSP8TA,3X73LLYYQ5UEUICPQ7K9NN52W5TNH0,3,4
113,1,object_03,object_05,330.5,1,1,127.60000002384,0.5555555555555556,1,object_04,1,1432,0,5,2,desert_4,2,memory-2step-stake-s,606,1833180,0.0-19.0-0.0-0.113,A36P1ZQ0GYF567,371DNNCG57IGA1IMUX7DUPM8OSP8TA,3X73LLYYQ5UEUICPQ7K9NN52W5TNH0,1,2
114,2,object_07,object_09,471.5,4,1,311.09999996424,0.6666666666666666,2,object_08,5,1462,0,6,6,forest_6,2,memory-2step-stake-s,607,1841471,0.0-19.0-0.0-0.114,A36P1ZQ0GYF567,371DNNCG57IGA1IMUX7DUPM8OSP8TA,3X73LLYYQ5UEUICPQ7K9NN52W5TNH0,4,3
115,4,object_01,object_02,449.5,7,2,306.39999997616,0.5555555555555556,1,object_04,1,1467,0,5,4,restaurant_4,2,memory-2step-stake-s,608,1849633,0.0-19.0-0.0-0.115,A36P1ZQ0GYF567,371DNNCG57IGA1IMUX7DUPM8OSP8TA,3X73LLYYQ5UEUICPQ7K9NN52W5TNH0,8,7
116,4,object_02,object_01,583.30000001192,7,1,39.0,0.4444444444444444,1,object_04,1,1471,0,4,2,restaurant_5,2,memory-2step-stake-s,609,1857392,0.0-19.0-0.0-0.116,A36P1ZQ0GYF567,371DNNCG57IGA1IMUX7DUPM8OSP8TA,3X73LLYYQ5UEUICPQ7K9NN52W5TNH0,7,8
117,1,object_03,object_05,823.0,1,1,286.30000001192,0.7777777777777778,1,object_04,5,1506,0,7,3,desert_2,2,memory-2step-stake-s,610,1865758,0.0-19.0-0.0-0.117,A36P1ZQ0GYF567,371DNNCG57IGA1IMUX7DUPM8OSP8TA,3X73LLYYQ5UEUICPQ7K9NN52W5TNH0,1,2
118,1,object_05,object_03,359.19999998808,1,2,472.89999997616,0.8888888888888888,1,object_04,1,1514,0,8,2,desert_2,2,memory-2step-stake-s,611,1874436,0.0-19.0-0.0-0.118,A36P1ZQ0GYF567,371DNNCG57IGA1IMUX7DUPM8OSP8TA,3X73LLYYQ5UEUICPQ7K9NN52W5TNH0,2,1
119,1,object_03,object_05,847.30000001192,1,1,312.19999998808,0.3333333333333333,1,object_04,1,1517,0,3,0,desert_4,2,memory-2step-stake-s,612,1882369,0.0-19.0-0.0-0.119,A36P1ZQ0GYF567,371DNNCG57IGA1IMUX7DUPM8OSP8TA,3X73LLYYQ5UEUICPQ7K9NN52W5TNH0,1,2
120,1,object_05,object_03,470.5,1,2,263.60000002384,0.3333333333333333,1,object_04,5,1532,0,3,0,desert_5,2,memory-2step-stake-s,613,1890246,0.0-19.0-0.0-0.120,A36P1ZQ0GYF567,371DNNCG57IGA1IMUX7DUPM8OSP8TA,3X73LLYYQ5UEUICPQ7K9NN52W5TNH0,2,1
121,1,object_05,object_03,488.19999998808,2,1,127.10000002384,0.2222222222222222,2,object_08,5,1542,0,8,2,desert_2,2,memory-2step-stake-s,614,1897862,0.0-19.0-0.0-0.121,A36P1ZQ0GYF567,371DNNCG57IGA1IMUX7DUPM8OSP8TA,3X73LLYYQ5UEUICPQ7K9NN52W5TNH0,2,1
122,3,object_06,object_10,315.5,6,1,241.69999998808,0.1111111111111111,2,object_08,5,1547,0,5,1,library_2,2,memory-2step-stake-s,615,1905509,0.0-19.0-0.0-0.122,A36P1ZQ0GYF567,371DNNCG57IGA1IMUX7DUPM8OSP8TA,3X73LLYYQ5UEUICPQ7K9NN52W5TNH0,6,5
123,4,object_01,object_02,408.0,7,2,301.5,0.7777777777777778,1,object_04,1,1554,0,7,3,restaurant_8,2,memory-2step-stake-s,616,1913884,0.0-19.0-0.0-0.123,A36P1ZQ0GYF567,371DNNCG57IGA1IMUX7DUPM8OSP8TA,3X73LLYYQ5UEUICPQ7K9NN52W5TNH0,8,7
124,1,object_03,object_05,412.80000001192,2,2,263.29999995232,0.3333333333333333,2,object_08,5,1569,0,6,3,desert_6,2,memory-2step-stake-s,617,1921766,0.0-19.0-0.0-0.124,A36P1ZQ0GYF567,371DNNCG57IGA1IMUX7DUPM8OSP8TA,3X73LLYYQ5UEUICPQ7K9NN52W5TNH0,1,2
125,3,object_10,object_06,477.39999997616,6,2,307.5,0.1111111111111111,2,object_08,5,1574,0,5,1,library_1,2,memory-2step-stake-s,618,1929478,0.0-19.0-0.0-0.125,A36P1ZQ0GYF567,371DNNCG57IGA1IMUX7DUPM8OSP8TA,3X73LLYYQ5UEUICPQ7K9NN52W5TNH0,5,6
126,4,object_01,object_02,330.19999998808,7,2,599.10000002384,0.6666666666666666,1,object_04,1,1580,0,6,1,restaurant_5,2,memory-2step-stake-s,619,1938060,0.0-19.0-0.0-0.126,A36P1ZQ0GYF567,371DNNCG57IGA1IMUX7DUPM8OSP8TA,3X73LLYYQ5UEUICPQ7K9NN52W5TNH0,8,7
127,2,object_09,object_07,636.80000001192,3,1,386.30000001192,0.4444444444444444,1,object_04,5,1600,0,4,1,forest_1,2,memory-2step-stake-s,620,1946184,0.0-19.0-0.0-0.127,A36P1ZQ0GYF567,371DNNCG57IGA1IMUX7DUPM8OSP8TA,3X73LLYYQ5UEUICPQ7K9NN52W5TNH0,3,4
128,4,object_02,object_01,714.30000001192,8,2,513.89999997616,0.1111111111111111,2,object_08,1,1601,0,1,1,restaurant_4,2,memory-2step-stake-s,622,2019366,0.0-19.0-0.1-0.128,A36P1ZQ0GYF567,371DNNCG57IGA1IMUX7DUPM8OSP8TA,3X73LLYYQ5UEUICPQ7K9NN52W5TNH0,7,8
129,2,object_07,object_09,458.80000001192,4,1,479.29999995232,0.2222222222222222,2,object_08,5,1611,0,3,2,forest_2,2,memory-2step-stake-s,623,2027354,0.0-19.0-0.1-0.129,A36P1ZQ0GYF567,371DNNCG57IGA1IMUX7DUPM8OSP8TA,3X73LLYYQ5UEUICPQ7K9NN52W5TNH0,4,3
130,2,object_09,object_07,567.0,3,1,544.19999998808,0.2222222222222222,1,object_04,5,1621,0,2,2,forest_5,2,memory-2step-stake-s,624,2035354,0.0-19.0-0.1-0.130,A36P1ZQ0GYF567,371DNNCG57IGA1IMUX7DUPM8OSP8TA,3X73LLYYQ5UEUICPQ7K9NN52W5TNH0,3,4
131,3,object_06,object_10,382.59999996424,5,2,345.69999998808,0.0,1,object_04,1,1621,0,0,1,library_4,2,memory-2step-stake-s,625,2042964,0.0-19.0-0.1-0.131,A36P1ZQ0GYF567,371DNNCG57IGA1IMUX7DUPM8OSP8TA,3X73LLYYQ5UEUICPQ7K9NN52W5TNH0,6,5
132,2,object_09,object_07,909.19999998808,4,2,352.30000001192,0.2222222222222222,2,object_08,5,1631,0,5,2,forest_1,2,memory-2step-stake-s,626,2050838,0.0-19.0-0.1-0.132,A36P1ZQ0GYF567,371DNNCG57IGA1IMUX7DUPM8OSP8TA,3X73LLYYQ5UEUICPQ7K9NN52W5TNH0,3,4
133,1,object_05,object_03,301.70000004768,1,2,345.89999997616,0.5555555555555556,1,object_04,5,1656,0,5,2,desert_2,2,memory-2step-stake-s,627,2059021,0.0-19.0-0.1-0.133,A36P1ZQ0GYF567,371DNNCG57IGA1IMUX7DUPM8OSP8TA,3X73LLYYQ5UEUICPQ7K9NN52W5TNH0,2,1
134,4,object_01,object_02,332.30000001192,8,1,299.80000001192,0.2222222222222222,2,object_08,1,1658,0,7,2,restaurant_7,2,memory-2step-stake-s,628,2066830,0.0-19.0-0.1-0.134,A36P1ZQ0GYF567,371DNNCG57IGA1IMUX7DUPM8OSP8TA,3X73LLYYQ5UEUICPQ7K9NN52W5TNH0,8,7
135,3,object_10,object_06,382.39999997616,5,1,316.0,0.8888888888888888,1,object_04,1,1666,0,8,4,library_2,2,memory-2step-stake-s,629,2075346,0.0-19.0-0.1-0.135,A36P1ZQ0GYF567,371DNNCG57IGA1IMUX7DUPM8OSP8TA,3X73LLYYQ5UEUICPQ7K9NN52W5TNH0,5,6
136,3,object_10,object_06,461.30000001192,6,2,167.30000001192,0.5555555555555556,2,object_08,1,1671,0,9,5,library_3,2,memory-2step-stake-s,630,2083330,0.0-19.0-0.1-0.136,A36P1ZQ0GYF567,371DNNCG57IGA1IMUX7DUPM8OSP8TA,3X73LLYYQ5UEUICPQ7K9NN52W5TNH0,5,6
137,1,object_05,object_03,1010.0,2,1,1391.0,0.6666666666666666,2,object_08,1,1677,0,6,6,desert_5,2,memory-2step-stake-s,631,2092666,0.0-19.0-0.1-0.137,A36P1ZQ0GYF567,371DNNCG57IGA1IMUX7DUPM8OSP8TA,3X73LLYYQ5UEUICPQ7K9NN52W5TNH0,2,1
138,1,object_03,object_05,621.70000004768,2,2,1164.9000000358,0.8888888888888888,2,object_08,5,1717,0,8,8,desert_5,2,memory-2step-stake-s,632,2101991,0.0-19.0-0.1-0.138,A36P1ZQ0GYF567,371DNNCG57IGA1IMUX7DUPM8OSP8TA,3X73LLYYQ5UEUICPQ7K9NN52W5TNH0,1,2
139,1,object_03,object_05,588.10000002384,2,2,419.80000001192,0.8888888888888888,2,object_08,5,1757,0,8,8,desert_2,2,memory-2step-stake-s,633,2110547,0.0-19.0-0.1-0.139,A36P1ZQ0GYF567,371DNNCG57IGA1IMUX7DUPM8OSP8TA,3X73LLYYQ5UEUICPQ7K9NN52W5TNH0,1,2
140,4,object_02,object_01,482.09999996424,7,1,529.69999998808,0.7777777777777778,1,object_04,1,1764,0,7,8,restaurant_5,2,memory-2step-stake-s,634,2119146,0.0-19.0-0.1-0.140,A36P1ZQ0GYF567,371DNNCG57IGA1IMUX7DUPM8OSP8TA,3X73LLYYQ5UEUICPQ7K9NN52W5TNH0,7,8
141,2,object_09,object_07,1047.2999999523,4,2,817.40000003576,0.8888888888888888,2,object_08,5,1804,0,7,8,forest_2,2,memory-2step-stake-s,635,2128135,0.0-19.0-0.1-0.141,A36P1ZQ0GYF567,371DNNCG57IGA1IMUX7DUPM8OSP8TA,3X73LLYYQ5UEUICPQ7K9NN52W5TNH0,3,4
142,2,object_07,object_09,583.60000002384,4,1,461.0,0.7777777777777778,2,object_08,5,1839,0,5,7,forest_2,2,memory-2step-stake-s,636,2136671,0.0-19.0-0.1-0.142,A36P1ZQ0GYF567,371DNNCG57IGA1IMUX7DUPM8OSP8TA,3X73LLYYQ5UEUICPQ7K9NN52W5TNH0,4,3
143,1,object_05,object_03,372.39999997616,2,1,351.60000002384,0.6666666666666666,2,object_08,5,1869,0,5,6,desert_5,2,memory-2step-stake-s,637,2144966,0.0-19.0-0.1-0.143,A36P1ZQ0GYF567,371DNNCG57IGA1IMUX7DUPM8OSP8TA,3X73LLYYQ5UEUICPQ7K9NN52W5TNH0,2,1
144,3,object_10,object_06,639.80000001192,5,1,349.30000001192,0.4444444444444444,1,object_04,1,1873,0,4,5,library_4,2,memory-2step-stake-s,638,2153011,0.0-19.0-0.1-0.144,A36P1ZQ0GYF567,371DNNCG57IGA1IMUX7DUPM8OSP8TA,3X73LLYYQ5UEUICPQ7K9NN52W5TNH0,5,6
145,2,object_07,object_09,560.79999995232,4,1,295.5,0.3333333333333333,2,object_08,5,1888,0,6,3,forest_1,2,memory-2step-stake-s,639,2160907,0.0-19.0-0.1-0.145,A36P1ZQ0GYF567,371DNNCG57IGA1IMUX7DUPM8OSP8TA,3X73LLYYQ5UEUICPQ7K9NN52W5TNH0,4,3
146,3,object_06,object_10,580.5,5,2,396.19999998808,0.6666666666666666,1,object_04,1,1894,0,6,6,library_4,2,memory-2step-stake-s,640,2169226,0.0-19.0-0.1-0.146,A36P1ZQ0GYF567,371DNNCG57IGA1IMUX7DUPM8OSP8TA,3X73LLYYQ5UEUICPQ7K9NN52W5TNH0,6,5
147,1,object_05,object_03,477.30000001192,2,1,684.80000001192,0.5555555555555556,2,object_08,5,1919,0,7,5,desert_4,2,memory-2step-stake-s,641,2177777,0.0-19.0-0.1-0.147,A36P1ZQ0GYF567,371DNNCG57IGA1IMUX7DUPM8OSP8TA,3X73LLYYQ5UEUICPQ7K9NN52W5TNH0,2,1
148,4,object_01,object_02,841.69999998808,7,2,414.39999997616,0.8888888888888888,1,object_04,1,1927,0,8,6,restaurant_5,2,memory-2step-stake-s,642,2186345,0.0-19.0-0.1-0.148,A36P1ZQ0GYF567,371DNNCG57IGA1IMUX7DUPM8OSP8TA,3X73LLYYQ5UEUICPQ7K9NN52W5TNH0,8,7
149,4,object_02,object_01,483.0,7,1,360.20000004768,1.0,1,object_04,1,1936,0,9,7,restaurant_7,2,memory-2step-stake-s,643,2194978,0.0-19.0-0.1-0.149,A36P1ZQ0GYF567,371DNNCG57IGA1IMUX7DUPM8OSP8TA,3X73LLYYQ5UEUICPQ7K9NN52W5TNH0,7,8
150,4,object_02,object_01,864.30000001192,7,1,446.10000002384,0.6666666666666666,1,object_04,1,1942,0,6,6,restaurant_8,2,memory-2step-stake-s,644,2203390,0.0-19.0-0.1-0.150,A36P1ZQ0GYF567,371DNNCG57IGA1IMUX7DUPM8OSP8TA,3X73LLYYQ5UEUICPQ7K9NN52W5TNH0,7,8
151,3,object_10,object_06,993.30000001192,6,2,1043.6999999881,0.6666666666666666,2,object_08,1,1948,0,6,6,library_4,2,memory-2step-stake-s,645,2212357,0.0-19.0-0.1-0.151,A36P1ZQ0GYF567,371DNNCG57IGA1IMUX7DUPM8OSP8TA,3X73LLYYQ5UEUICPQ7K9NN52W5TNH0,5,6
152,4,object_02,object_01,752.80000001192,7,1,536.80000001192,0.4444444444444444,1,object_04,1,1952,0,4,8,restaurant_8,2,memory-2step-stake-s,646,2220597,0.0-19.0-0.1-0.152,A36P1ZQ0GYF567,371DNNCG57IGA1IMUX7DUPM8OSP8TA,3X73LLYYQ5UEUICPQ7K9NN52W5TNH0,7,8
153,3,object_10,object_06,574.30000001192,6,2,408.0,1.0,2,object_08,1,1961,0,4,9,library_3,2,memory-2step-stake-s,647,2229258,0.0-19.0-0.1-0.153,A36P1ZQ0GYF567,371DNNCG57IGA1IMUX7DUPM8OSP8TA,3X73LLYYQ5UEUICPQ7K9NN52W5TNH0,5,6
154,2,object_09,object_07,707.5,3,1,754.79999995232,0.3333333333333333,1,object_04,5,1976,0,3,5,forest_1,2,memory-2step-stake-s,648,2237652,0.0-19.0-0.1-0.154,A36P1ZQ0GYF567,371DNNCG57IGA1IMUX7DUPM8OSP8TA,3X73LLYYQ5UEUICPQ7K9NN52W5TNH0,3,4
155,2,object_07,object_09,641.79999995232,4,1,548.30000001192,0.3333333333333333,2,object_08,5,1991,0,8,3,forest_1,2,memory-2step-stake-s,649,2245822,0.0-19.0-0.1-0.155,A36P1ZQ0GYF567,371DNNCG57IGA1IMUX7DUPM8OSP8TA,3X73LLYYQ5UEUICPQ7K9NN52W5TNH0,4,3
156,2,object_09,object_07,444.30000001192,3,1,249.5,0.6666666666666666,1,object_04,5,2021,0,6,2,forest_6,2,memory-2step-stake-s,650,2253986,0.0-19.0-0.1-0.156,A36P1ZQ0GYF567,371DNNCG57IGA1IMUX7DUPM8OSP8TA,3X73LLYYQ5UEUICPQ7K9NN52W5TNH0,3,4
157,3,object_06,object_10,537.80000001192,5,2,322.0,0.7777777777777778,1,object_04,1,2028,0,7,1,library_2,2,memory-2step-stake-s,651,2262385,0.0-19.0-0.1-0.157,A36P1ZQ0GYF567,371DNNCG57IGA1IMUX7DUPM8OSP8TA,3X73LLYYQ5UEUICPQ7K9NN52W5TNH0,6,5
158,4,object_02,object_01,480.0,7,1,263.0,0.4444444444444444,1,object_04,1,2032,0,4,0,restaurant_8,2,memory-2step-stake-s,652,2270376,0.0-19.0-0.1-0.158,A36P1ZQ0GYF567,371DNNCG57IGA1IMUX7DUPM8OSP8TA,3X73LLYYQ5UEUICPQ7K9NN52W5TNH0,7,8
159,3,object_10,object_06,842.89999997616,6,2,629.10000002384,0.3333333333333333,2,object_08,1,2035,0,4,3,library_1,2,memory-2step-stake-s,653,2278602,0.0-19.0-0.1-0.159,A36P1ZQ0GYF567,371DNNCG57IGA1IMUX7DUPM8OSP8TA,3X73LLYYQ5UEUICPQ7K9NN52W5TNH0,5,6
160,4,object_02,object_01,1315.0,8,2,-1.0,0.0,2,object_08,1,2035,0,7,7,restaurant_4,2,memory-2step-stake-s,654,2287211,0.0-19.0-0.1-0.160,A36P1ZQ0GYF567,371DNNCG57IGA1IMUX7DUPM8OSP8TA,3X73LLYYQ5UEUICPQ7K9NN52W5TNH0,7,8
161,4,object_01,object_02,435.30000001192,8,1,445.69999998808,0.8888888888888888,2,object_08,1,2043,0,9,8,restaurant_5,2,memory-2step-stake-s,655,2295790,0.0-19.0-0.1-0.161,A36P1ZQ0GYF567,371DNNCG57IGA1IMUX7DUPM8OSP8TA,3X73LLYYQ5UEUICPQ7K9NN52W5TNH0,8,7
162,1,object_03,object_05,497.40000003576,2,2,243.19999998808,0.8888888888888888,2,object_08,5,2083,0,7,8,desert_5,2,memory-2step-stake-s,656,2304245,0.0-19.0-0.1-0.162,A36P1ZQ0GYF567,371DNNCG57IGA1IMUX7DUPM8OSP8TA,3X73LLYYQ5UEUICPQ7K9NN52W5TNH0,1,2
163,2,object_07,object_09,464.69999998808,3,2,430.29999995232,0.8888888888888888,1,object_04,5,2123,0,8,5,forest_6,2,memory-2step-stake-s,657,2312860,0.0-19.0-0.1-0.163,A36P1ZQ0GYF567,371DNNCG57IGA1IMUX7DUPM8OSP8TA,3X73LLYYQ5UEUICPQ7K9NN52W5TNH0,4,3
164,4,object_02,object_01,515.0,8,2,328.19999998808,0.6666666666666666,2,object_08,1,2129,0,8,6,restaurant_8,2,memory-2step-stake-s,658,2321180,0.0-19.0-0.1-0.164,A36P1ZQ0GYF567,371DNNCG57IGA1IMUX7DUPM8OSP8TA,3X73LLYYQ5UEUICPQ7K9NN52W5TNH0,7,8
165,1,object_05,object_03,492.0,2,1,225.30000001192,0.5555555555555556,2,object_08,5,2154,0,7,5,desert_6,2,memory-2step-stake-s,659,2329276,0.0-19.0-0.1-0.165,A36P1ZQ0GYF567,371DNNCG57IGA1IMUX7DUPM8OSP8TA,3X73LLYYQ5UEUICPQ7K9NN52W5TNH0,2,1
166,3,object_10,object_06,397.09999996424,6,2,1384.5999999642,0.7777777777777778,2,object_08,1,2161,0,7,7,library_3,2,memory-2step-stake-s,660,2338784,0.0-19.0-0.1-0.166,A36P1ZQ0GYF567,371DNNCG57IGA1IMUX7DUPM8OSP8TA,3X73LLYYQ5UEUICPQ7K9NN52W5TNH0,5,6
167,1,object_03,object_05,365.69999998808,2,2,380.40000003576,1.0,2,object_08,5,2206,0,7,9,desert_6,2,memory-2step-stake-s,661,2347426,0.0-19.0-0.1-0.167,A36P1ZQ0GYF567,371DNNCG57IGA1IMUX7DUPM8OSP8TA,3X73LLYYQ5UEUICPQ7K9NN52W5TNH0,1,2
168,3,object_10,object_06,-1.0,-1,-1,-1.0,0.0,-,0,1,2206,0,8,9,library_1,2,memory-2step-stake-s,662,2354002,0.0-19.0-0.1-0.168,A36P1ZQ0GYF567,371DNNCG57IGA1IMUX7DUPM8OSP8TA,3X73LLYYQ5UEUICPQ7K9NN52W5TNH0,5,6
169,4,object_01,object_02,606.60000002384,7,2,618.0,0.3333333333333333,1,object_04,1,2209,0,3,9,restaurant_4,2,memory-2step-stake-s,663,2362242,0.0-19.0-0.1-0.169,A36P1ZQ0GYF567,371DNNCG57IGA1IMUX7DUPM8OSP8TA,3X73LLYYQ5UEUICPQ7K9NN52W5TNH0,8,7
170,2,object_09,object_07,442.10000002384,3,1,423.19999998808,0.0,1,object_04,5,2209,0,0,5,forest_2,2,memory-2step-stake-s,664,2369954,0.0-19.0-0.1-0.170,A36P1ZQ0GYF567,371DNNCG57IGA1IMUX7DUPM8OSP8TA,3X73LLYYQ5UEUICPQ7K9NN52W5TNH0,3,4
171,1,object_03,object_05,450.80000001192,1,1,604.0,0.2222222222222222,1,object_04,1,2211,0,2,5,desert_5,2,memory-2step-stake-s,665,2378098,0.0-19.0-0.1-0.171,A36P1ZQ0GYF567,371DNNCG57IGA1IMUX7DUPM8OSP8TA,3X73LLYYQ5UEUICPQ7K9NN52W5TNH0,1,2
172,1,object_05,object_03,535.70000004768,2,1,252.30000001192,0.8888888888888888,2,object_08,5,2251,0,0,8,desert_4,2,memory-2step-stake-s,666,2386552,0.0-19.0-0.1-0.172,A36P1ZQ0GYF567,371DNNCG57IGA1IMUX7DUPM8OSP8TA,3X73LLYYQ5UEUICPQ7K9NN52W5TNH0,2,1
173,2,object_07,object_09,554.89999997616,3,2,680.60000002384,0.2222222222222222,1,object_04,1,2253,0,2,7,forest_2,2,memory-2step-stake-s,667,2394762,0.0-19.0-0.1-0.173,A36P1ZQ0GYF567,371DNNCG57IGA1IMUX7DUPM8OSP8TA,3X73LLYYQ5UEUICPQ7K9NN52W5TNH0,4,3
174,3,object_06,object_10,462.19999998808,5,2,674.69999998808,0.0,1,object_04,1,2253,0,0,9,library_1,2,memory-2step-stake-s,668,2402718,0.0-19.0-0.1-0.174,A36P1ZQ0GYF567,371DNNCG57IGA1IMUX7DUPM8OSP8TA,3X73LLYYQ5UEUICPQ7K9NN52W5TNH0,6,5
175,1,object_03,object_05,540.0,2,2,302.0,0.8888888888888888,2,object_08,5,2293,0,1,8,desert_6,2,memory-2step-stake-s,669,2411184,0.0-19.0-0.1-0.175,A36P1ZQ0GYF567,371DNNCG57IGA1IMUX7DUPM8OSP8TA,3X73LLYYQ5UEUICPQ7K9NN52W5TNH0,1,2
176,3,object_10,object_06,776.09999996424,6,2,704.0,0.5555555555555556,2,object_08,1,2298,0,1,5,library_3,2,memory-2step-stake-s,670,2419727,0.0-19.0-0.1-0.176,A36P1ZQ0GYF567,371DNNCG57IGA1IMUX7DUPM8OSP8TA,3X73LLYYQ5UEUICPQ7K9NN52W5TNH0,5,6
177,3,object_10,object_06,714.10000002384,6,2,556.5,1.0,2,object_08,1,2307,0,3,9,library_1,2,memory-2step-stake-s,671,2428540,0.0-19.0-0.1-0.177,A36P1ZQ0GYF567,371DNNCG57IGA1IMUX7DUPM8OSP8TA,3X73LLYYQ5UEUICPQ7K9NN52W5TNH0,5,6
178,4,object_02,object_01,489.60000002384,8,2,366.60000002384,0.6666666666666666,2,object_08,5,2337,0,4,6,restaurant_7,2,memory-2step-stake-s,672,2436834,0.0-19.0-0.1-0.178,A36P1ZQ0GYF567,371DNNCG57IGA1IMUX7DUPM8OSP8TA,3X73LLYYQ5UEUICPQ7K9NN52W5TNH0,7,8
179,4,object_01,object_02,685.69999998808,7,2,870.69999998808,0.4444444444444444,1,object_04,1,2341,0,4,8,restaurant_8,2,memory-2step-stake-s,673,2445455,0.0-19.0-0.1-0.179,A36P1ZQ0GYF567,371DNNCG57IGA1IMUX7DUPM8OSP8TA,3X73LLYYQ5UEUICPQ7K9NN52W5TNH0,8,7
180,4,object_01,object_02,422.69999998808,8,1,402.0,0.7777777777777778,2,object_08,1,2348,0,5,7,restaurant_7,2,memory-2step-stake-s,674,2453942,0.0-19.0-0.1-0.180,A36P1ZQ0GYF567,371DNNCG57IGA1IMUX7DUPM8OSP8TA,3X73LLYYQ5UEUICPQ7K9NN52W5TNH0,8,7
181,4,object_01,object_02,508.10000002384,8,1,553.30000001192,0.7777777777777778,2,object_08,5,2383,0,4,7,restaurant_5,2,memory-2step-stake-s,675,2462573,0.0-19.0-0.1-0.181,A36P1ZQ0GYF567,371DNNCG57IGA1IMUX7DUPM8OSP8TA,3X73LLYYQ5UEUICPQ7K9NN52W5TNH0,8,7
182,3,object_10,object_06,315.10000002384,5,1,290.19999998808,0.6666666666666666,1,object_04,1,2389,0,6,7,library_2,2,memory-2step-stake-s,676,2470812,0.0-19.0-0.1-0.182,A36P1ZQ0GYF567,371DNNCG57IGA1IMUX7DUPM8OSP8TA,3X73LLYYQ5UEUICPQ7K9NN52W5TNH0,5,6
183,1,object_05,object_03,720.29999995232,2,1,278.30000001192,0.6666666666666666,2,object_08,5,2419,0,7,6,desert_2,2,memory-2step-stake-s,677,2479029,0.0-19.0-0.1-0.183,A36P1ZQ0GYF567,371DNNCG57IGA1IMUX7DUPM8OSP8TA,3X73LLYYQ5UEUICPQ7K9NN52W5TNH0,2,1
184,4,object_02,object_01,466.19999998808,8,2,284.5,0.6666666666666666,2,object_08,1,2425,0,5,6,restaurant_5,2,memory-2step-stake-s,678,2487240,0.0-19.0-0.1-0.184,A36P1ZQ0GYF567,371DNNCG57IGA1IMUX7DUPM8OSP8TA,3X73LLYYQ5UEUICPQ7K9NN52W5TNH0,7,8
185,4,object_02,object_01,577.69999998808,8,2,493.69999998808,0.6666666666666666,2,object_08,1,2431,0,5,6,restaurant_5,2,memory-2step-stake-s,679,2495648,0.0-19.0-0.1-0.185,A36P1ZQ0GYF567,371DNNCG57IGA1IMUX7DUPM8OSP8TA,3X73LLYYQ5UEUICPQ7K9NN52W5TNH0,7,8
186,2,object_09,object_07,980.39999997616,4,2,282.5,1.0,2,object_08,1,2440,0,4,9,forest_2,2,memory-2step-stake-s,680,2504234,0.0-19.0-0.1-0.186,A36P1ZQ0GYF567,371DNNCG57IGA1IMUX7DUPM8OSP8TA,3X73LLYYQ5UEUICPQ7K9NN52W5TNH0,3,4
187,4,object_01,object_02,380.69999998808,8,1,454.5,0.8888888888888888,2,object_08,1,2448,0,5,8,restaurant_4,2,memory-2step-stake-s,681,2512844,0.0-19.0-0.1-0.187,A36P1ZQ0GYF567,371DNNCG57IGA1IMUX7DUPM8OSP8TA,3X73LLYYQ5UEUICPQ7K9NN52W5TNH0,8,7
188,1,object_03,object_05,472.19999998808,2,2,341.90000003576,0.8888888888888888,2,object_08,1,2456,0,4,8,desert_2,2,memory-2step-stake-s,682,2521368,0.0-19.0-0.1-0.188,A36P1ZQ0GYF567,371DNNCG57IGA1IMUX7DUPM8OSP8TA,3X73LLYYQ5UEUICPQ7K9NN52W5TNH0,1,2
189,2,object_07,object_09,607.0,4,1,468.30000001192,0.5555555555555556,2,object_08,5,2481,0,3,5,forest_5,2,memory-2step-stake-s,683,2529663,0.0-19.0-0.1-0.189,A36P1ZQ0GYF567,371DNNCG57IGA1IMUX7DUPM8OSP8TA,3X73LLYYQ5UEUICPQ7K9NN52W5TNH0,4,3
190,3,object_10,object_06,637.89999997616,6,2,267.10000002384,0.5555555555555556,2,object_08,5,2506,0,1,5,library_2,2,memory-2step-stake-s,684,2537705,0.0-19.0-0.1-0.190,A36P1ZQ0GYF567,371DNNCG57IGA1IMUX7DUPM8OSP8TA,3X73LLYYQ5UEUICPQ7K9NN52W5TNH0,5,6
191,2,object_09,object_07,419.80000001192,4,2,292.40000003576,0.6666666666666666,2,object_08,5,2536,0,1,6,forest_5,2,memory-2step-stake-s,685,2545925,0.0-19.0-0.1-0.191,A36P1ZQ0GYF567,371DNNCG57IGA1IMUX7DUPM8OSP8TA,3X73LLYYQ5UEUICPQ7K9NN52W5TNH0,3,4
192,3,object_06,object_10,889.90000003576,5,2,-1.0,0.0,1,object_04,1,2536,0,2,7,library_1,2,memory-2step-stake-s,686,2554518,0.0-19.0-0.1-0.192,A36P1ZQ0GYF567,371DNNCG57IGA1IMUX7DUPM8OSP8TA,3X73LLYYQ5UEUICPQ7K9NN52W5TNH0,6,5
193,1,object_03,object_05,470.60000002384,2,2,277.70000004768,1.0,2,object_08,5,2581,0,3,9,desert_4,2,memory-2step-stake-s,687,2563070,0.0-19.0-0.1-0.193,A36P1ZQ0GYF567,371DNNCG57IGA1IMUX7DUPM8OSP8TA,3X73LLYYQ5UEUICPQ7K9NN52W5TNH0,1,2
194,2,object_09,object_07,690.0,4,2,670.10000002384,0.7777777777777778,2,object_08,5,2616,0,6,7,forest_6,2,memory-2step-stake-s,688,2571806,0.0-19.0-0.1-0.194,A36P1ZQ0GYF567,371DNNCG57IGA1IMUX7DUPM8OSP8TA,3X73LLYYQ5UEUICPQ7K9NN52W5TNH0,3,4
195,1,object_05,object_03,550.69999998808,2,1,893.69999998808,0.3333333333333333,2,object_08,1,2619,0,7,3,desert_5,2,memory-2step-stake-s,689,2580334,0.0-19.0-0.1-0.195,A36P1ZQ0GYF567,371DNNCG57IGA1IMUX7DUPM8OSP8TA,3X73LLYYQ5UEUICPQ7K9NN52W5TNH0,2,1
196,1,object_03,object_05,544.69999998808,1,1,-1.0,0.0,1,object_04,1,2619,0,7,5,desert_5,2,memory-2step-stake-s,690,2588913,0.0-19.0-0.1-0.196,A36P1ZQ0GYF567,371DNNCG57IGA1IMUX7DUPM8OSP8TA,3X73LLYYQ5UEUICPQ7K9NN52W5TNH0,1,2
197,3,object_06,object_10,592.89999997616,5,2,336.90000003576,0.8888888888888888,1,object_04,5,2659,0,8,5,library_3,2,memory-2step-stake-s,691,2597378,0.0-19.0-0.1-0.197,A36P1ZQ0GYF567,371DNNCG57IGA1IMUX7DUPM8OSP8TA,3X73LLYYQ5UEUICPQ7K9NN52W5TNH0,6,5
198,1,object_05,object_03,400.19999998808,1,2,294.0,1.0,1,object_04,5,2704,0,9,5,desert_4,2,memory-2step-stake-s,692,2605921,0.0-19.0-0.1-0.198,A36P1ZQ0GYF567,371DNNCG57IGA1IMUX7DUPM8OSP8TA,3X73LLYYQ5UEUICPQ7K9NN52W5TNH0,2,1
199,2,object_07,object_09,569.10000002384,3,2,255.5,1.0,1,object_04,1,2713,0,9,4,forest_1,2,memory-2step-stake-s,693,2614395,0.0-19.0-0.1-0.199,A36P1ZQ0GYF567,371DNNCG57IGA1IMUX7DUPM8OSP8TA,3X73LLYYQ5UEUICPQ7K9NN52W5TNH0,4,3
200,2,object_07,object_09,778.19999998808,3,2,324.69999998808,0.6666666666666666,1,object_04,5,2743,0,6,2,forest_2,2,memory-2step-stake-s,694,2622676,0.0-19.0-0.1-0.200,A36P1ZQ0GYF567,371DNNCG57IGA1IMUX7DUPM8OSP8TA,3X73LLYYQ5UEUICPQ7K9NN52W5TNH0,4,3
201,3,object_10,object_06,501.29999995232,5,1,278.30000001192,0.4444444444444444,1,object_04,1,2747,0,4,5,library_4,2,memory-2step-stake-s,695,2630678,0.0-19.0-0.1-0.201,A36P1ZQ0GYF567,371DNNCG57IGA1IMUX7DUPM8OSP8TA,3X73LLYYQ5UEUICPQ7K9NN52W5TNH0,5,6
202,1,object_03,object_05,475.90000003576,1,1,343.0,0.3333333333333333,1,object_04,5,2762,0,3,6,desert_6,2,memory-2step-stake-s,696,2638610,0.0-19.0-0.1-0.202,A36P1ZQ0GYF567,371DNNCG57IGA1IMUX7DUPM8OSP8TA,3X73LLYYQ5UEUICPQ7K9NN52W5TNH0,1,2
203,2,object_07,object_09,644.10000002384,3,2,1209.9000000358,0.2222222222222222,1,object_04,1,2764,0,2,8,forest_6,2,memory-2step-stake-s,697,2647312,0.0-19.0-0.1-0.203,A36P1ZQ0GYF567,371DNNCG57IGA1IMUX7DUPM8OSP8TA,3X73LLYYQ5UEUICPQ7K9NN52W5TNH0,4,3
204,4,object_01,object_02,387.60000002384,8,1,677.60000002384,0.7777777777777778,2,object_08,1,2771,0,1,7,restaurant_7,2,memory-2step-stake-s,698,2656056,0.0-19.0-0.1-0.204,A36P1ZQ0GYF567,371DNNCG57IGA1IMUX7DUPM8OSP8TA,3X73LLYYQ5UEUICPQ7K9NN52W5TNH0,8,7
205,2,object_09,object_07,512.59999996424,4,2,375.40000003576,0.7777777777777778,2,object_08,5,2806,0,1,7,forest_5,2,memory-2step-stake-s,699,2664507,0.0-19.0-0.1-0.205,A36P1ZQ0GYF567,371DNNCG57IGA1IMUX7DUPM8OSP8TA,3X73LLYYQ5UEUICPQ7K9NN52W5TNH0,3,4
206,3,object_06,object_10,665.70000004768,5,2,498.30000001192,0.1111111111111111,1,object_04,5,2811,0,1,6,library_1,2,memory-2step-stake-s,700,2672411,0.0-19.0-0.1-0.206,A36P1ZQ0GYF567,371DNNCG57IGA1IMUX7DUPM8OSP8TA,3X73LLYYQ5UEUICPQ7K9NN52W5TNH0,6,5
207,1,object_03,object_05,650.09999996424,1,1,94.400000035763,0.1111111111111111,1,object_04,5,2816,0,1,7,desert_4,2,memory-2step-stake-s,701,2679900,0.0-19.0-0.1-0.207,A36P1ZQ0GYF567,371DNNCG57IGA1IMUX7DUPM8OSP8TA,3X73LLYYQ5UEUICPQ7K9NN52W5TNH0,1,2
208,1,object_03,object_05,438.90000003576,2,2,-1.0,0.0,2,object_08,5,2816,0,1,5,desert_5,2,memory-2step-stake-s,702,2688490,0.0-19.0-0.1-0.208,A36P1ZQ0GYF567,371DNNCG57IGA1IMUX7DUPM8OSP8TA,3X73LLYYQ5UEUICPQ7K9NN52W5TNH0,1,2
209,4,object_01,object_02,575.80000001192,8,1,394.79999995232,0.3333333333333333,2,object_08,1,2819,0,2,3,restaurant_4,2,memory-2step-stake-s,703,2696473,0.0-19.0-0.1-0.209,A36P1ZQ0GYF567,371DNNCG57IGA1IMUX7DUPM8OSP8TA,3X73LLYYQ5UEUICPQ7K9NN52W5TNH0,8,7
210,1,object_03,object_05,411.30000001192,2,2,531.89999997616,0.3333333333333333,2,object_08,5,2834,0,3,3,desert_2,2,memory-2step-stake-s,704,2704653,0.0-19.0-0.1-0.210,A36P1ZQ0GYF567,371DNNCG57IGA1IMUX7DUPM8OSP8TA,3X73LLYYQ5UEUICPQ7K9NN52W5TNH0,1,2
211,2,object_07,object_09,522.5,3,2,525.69999998808,0.3333333333333333,1,object_04,1,2837,0,3,5,forest_6,2,memory-2step-stake-s,705,2712778,0.0-19.0-0.1-0.211,A36P1ZQ0GYF567,371DNNCG57IGA1IMUX7DUPM8OSP8TA,3X73LLYYQ5UEUICPQ7K9NN52W5TNH0,4,3
212,1,object_05,object_03,548.39999997616,1,2,249.30000001192,0.6666666666666666,1,object_04,5,2867,0,6,5,desert_2,2,memory-2step-stake-s,706,2720956,0.0-19.0-0.1-0.212,A36P1ZQ0GYF567,371DNNCG57IGA1IMUX7DUPM8OSP8TA,3X73LLYYQ5UEUICPQ7K9NN52W5TNH0,2,1
213,1,object_05,object_03,355.40000003576,1,2,257.70000004768,0.6666666666666666,1,object_04,5,2897,0,6,6,desert_2,2,memory-2step-stake-s,707,2729158,0.0-19.0-0.1-0.213,A36P1ZQ0GYF567,371DNNCG57IGA1IMUX7DUPM8OSP8TA,3X73LLYYQ5UEUICPQ7K9NN52W5TNH0,2,1
214,2,object_07,object_09,461.30000001192,4,1,395.39999997616,0.5555555555555556,2,object_08,5,2922,0,4,5,forest_6,2,memory-2step-stake-s,708,2737394,0.0-19.0-0.1-0.214,A36P1ZQ0GYF567,371DNNCG57IGA1IMUX7DUPM8OSP8TA,3X73LLYYQ5UEUICPQ7K9NN52W5TNH0,4,3
215,4,object_02,object_01,642.19999998808,8,2,374.60000002384,0.5555555555555556,2,object_08,1,2927,0,4,5,restaurant_4,2,memory-2step-stake-s,709,2745598,0.0-19.0-0.1-0.215,A36P1ZQ0GYF567,371DNNCG57IGA1IMUX7DUPM8OSP8TA,3X73LLYYQ5UEUICPQ7K9NN52W5TNH0,7,8
216,3,object_10,object_06,504.40000003576,6,2,247.89999997616,0.5555555555555556,2,object_08,5,2952,0,7,5,library_3,2,memory-2step-stake-s,710,2753676,0.0-19.0-0.1-0.216,A36P1ZQ0GYF567,371DNNCG57IGA1IMUX7DUPM8OSP8TA,3X73LLYYQ5UEUICPQ7K9NN52W5TNH0,5,6
217,2,object_07,object_09,469.89999997616,4,1,277.30000001192,0.5555555555555556,2,object_08,1,2957,0,9,5,forest_6,2,memory-2step-stake-s,711,2761795,0.0-19.0-0.1-0.217,A36P1ZQ0GYF567,371DNNCG57IGA1IMUX7DUPM8OSP8TA,3X73LLYYQ5UEUICPQ7K9NN52W5TNH0,4,3
218,2,object_07,object_09,395.10000002384,4,1,265.90000003576,0.4444444444444444,2,object_08,5,2977,0,4,4,forest_5,2,memory-2step-stake-s,712,2769798,0.0-19.0-0.1-0.218,A36P1ZQ0GYF567,371DNNCG57IGA1IMUX7DUPM8OSP8TA,3X73LLYYQ5UEUICPQ7K9NN52W5TNH0,4,3
219,4,object_02,object_01,569.60000002384,8,2,245.5,0.1111111111111111,2,object_08,1,2978,0,3,1,restaurant_8,2,memory-2step-stake-s,713,2777449,0.0-19.0-0.1-0.219,A36P1ZQ0GYF567,371DNNCG57IGA1IMUX7DUPM8OSP8TA,3X73LLYYQ5UEUICPQ7K9NN52W5TNH0,7,8
220,2,object_07,object_09,283.30000001192,3,2,589.0,0.2222222222222222,1,object_04,1,2980,0,2,0,forest_1,2,memory-2step-stake-s,714,2785575,0.0-19.0-0.1-0.220,A36P1ZQ0GYF567,371DNNCG57IGA1IMUX7DUPM8OSP8TA,3X73LLYYQ5UEUICPQ7K9NN52W5TNH0,4,3
221,3,object_06,object_10,237.5,5,2,361.80000001192,0.4444444444444444,1,object_04,1,2984,0,4,1,library_1,2,memory-2step-stake-s,715,2793675,0.0-19.0-0.1-0.221,A36P1ZQ0GYF567,371DNNCG57IGA1IMUX7DUPM8OSP8TA,3X73LLYYQ5UEUICPQ7K9NN52W5TNH0,6,5
222,3,object_10,object_06,372.60000002384,5,1,429.10000002384,0.5555555555555556,1,object_04,1,2989,0,5,1,library_1,2,memory-2step-stake-s,716,2801960,0.0-19.0-0.1-0.222,A36P1ZQ0GYF567,371DNNCG57IGA1IMUX7DUPM8OSP8TA,3X73LLYYQ5UEUICPQ7K9NN52W5TNH0,5,6
223,3,object_06,object_10,421.5,5,2,220.89999997616,0.2222222222222222,1,object_04,1,2991,0,2,2,library_4,2,memory-2step-stake-s,717,2809700,0.0-19.0-0.1-0.223,A36P1ZQ0GYF567,371DNNCG57IGA1IMUX7DUPM8OSP8TA,3X73LLYYQ5UEUICPQ7K9NN52W5TNH0,6,5
224,4,object_01,object_02,464.10000002384,7,2,249.29999995232,0.0,1,object_04,1,2991,0,0,4,restaurant_4,2,memory-2step-stake-s,718,2817251,0.0-19.0-0.1-0.224,A36P1ZQ0GYF567,371DNNCG57IGA1IMUX7DUPM8OSP8TA,3X73LLYYQ5UEUICPQ7K9NN52W5TNH0,8,7
225,4,object_02,object_01,601.80000001192,7,1,261.30000001192,0.1111111111111111,1,object_04,5,2996,0,1,4,restaurant_5,2,memory-2step-stake-s,719,2824900,0.0-19.0-0.1-0.225,A36P1ZQ0GYF567,371DNNCG57IGA1IMUX7DUPM8OSP8TA,3X73LLYYQ5UEUICPQ7K9NN52W5TNH0,7,8
226,4,object_01,object_02,666.60000002384,8,1,280.69999998808,0.8888888888888888,2,object_08,1,3004,0,0,8,restaurant_8,2,memory-2step-stake-s,720,2833337,0.0-19.0-0.1-0.226,A36P1ZQ0GYF567,371DNNCG57IGA1IMUX7DUPM8OSP8TA,3X73LLYYQ5UEUICPQ7K9NN52W5TNH0,8,7
227,4,object_02,object_01,420.10000002384,8,2,329.60000002384,0.8888888888888888,2,object_08,1,3012,0,2,8,restaurant_8,2,memory-2step-stake-s,721,2841841,0.0-19.0-0.1-0.227,A36P1ZQ0GYF567,371DNNCG57IGA1IMUX7DUPM8OSP8TA,3X73LLYYQ5UEUICPQ7K9NN52W5TNH0,7,8
228,4,object_01,object_02,390.60000002384,8,1,437.10000002384,0.8888888888888888,2,object_08,1,3020,0,3,8,restaurant_8,2,memory-2step-stake-s,722,2850432,0.0-19.0-0.1-0.228,A36P1ZQ0GYF567,371DNNCG57IGA1IMUX7DUPM8OSP8TA,3X73LLYYQ5UEUICPQ7K9NN52W5TNH0,8,7
229,2,object_09,object_07,465.20000004768,4,2,386.60000002384,0.7777777777777778,2,object_08,1,3027,0,3,7,forest_2,2,memory-2step-stake-s,723,2858868,0.0-19.0-0.1-0.229,A36P1ZQ0GYF567,371DNNCG57IGA1IMUX7DUPM8OSP8TA,3X73LLYYQ5UEUICPQ7K9NN52W5TNH0,3,4
230,2,object_09,object_07,923.40000003576,4,2,603.60000002384,0.6666666666666666,2,object_08,5,3057,0,3,6,forest_2,2,memory-2step-stake-s,724,2867401,0.0-19.0-0.1-0.230,A36P1ZQ0GYF567,371DNNCG57IGA1IMUX7DUPM8OSP8TA,3X73LLYYQ5UEUICPQ7K9NN52W5TNH0,3,4
231,3,object_10,object_06,564.69999998808,6,2,352.69999998808,0.6666666666666666,2,object_08,5,3087,0,4,6,library_3,2,memory-2step-stake-s,725,2875718,0.0-19.0-0.1-0.231,A36P1ZQ0GYF567,371DNNCG57IGA1IMUX7DUPM8OSP8TA,3X73LLYYQ5UEUICPQ7K9NN52W5TNH0,5,6
232,4,object_02,object_01,528.19999998808,8,2,419.39999997616,0.5555555555555556,2,object_08,1,3092,0,8,5,restaurant_4,2,memory-2step-stake-s,726,2883974,0.0-19.0-0.1-0.232,A36P1ZQ0GYF567,371DNNCG57IGA1IMUX7DUPM8OSP8TA,3X73LLYYQ5UEUICPQ7K9NN52W5TNH0,7,8
233,2,object_09,object_07,441.39999997616,3,1,664.60000002384,0.8888888888888888,1,object_04,5,3132,0,8,5,forest_6,2,memory-2step-stake-s,727,2892774,0.0-19.0-0.1-0.233,A36P1ZQ0GYF567,371DNNCG57IGA1IMUX7DUPM8OSP8TA,3X73LLYYQ5UEUICPQ7K9NN52W5TNH0,3,4
234,3,object_06,object_10,560.89999997616,5,2,459.19999998808,0.8888888888888888,1,object_04,1,3140,0,8,5,library_4,2,memory-2step-stake-s,728,2901419,0.0-19.0-0.1-0.234,A36P1ZQ0GYF567,371DNNCG57IGA1IMUX7DUPM8OSP8TA,3X73LLYYQ5UEUICPQ7K9NN52W5TNH0,6,5
235,3,object_06,object_10,473.80000001192,6,1,224.30000001192,0.2222222222222222,2,object_08,5,3150,0,6,2,library_2,2,memory-2step-stake-s,729,2909173,0.0-19.0-0.1-0.235,A36P1ZQ0GYF567,371DNNCG57IGA1IMUX7DUPM8OSP8TA,3X73LLYYQ5UEUICPQ7K9NN52W5TNH0,6,5
236,4,object_02,object_01,463.89999997616,8,2,390.09999996424,0.2222222222222222,2,object_08,5,3160,0,3,2,restaurant_7,2,memory-2step-stake-s,730,2917071,0.0-19.0-0.1-0.236,A36P1ZQ0GYF567,371DNNCG57IGA1IMUX7DUPM8OSP8TA,3X73LLYYQ5UEUICPQ7K9NN52W5TNH0,7,8
237,1,object_03,object_05,388.60000002384,1,1,248.19999998808,0.1111111111111111,1,object_04,5,3165,0,1,2,desert_4,2,memory-2step-stake-s,731,2924726,0.0-19.0-0.1-0.237,A36P1ZQ0GYF567,371DNNCG57IGA1IMUX7DUPM8OSP8TA,3X73LLYYQ5UEUICPQ7K9NN52W5TNH0,1,2
238,3,object_10,object_06,554.69999998808,5,1,549.10000002384,0.1111111111111111,1,object_04,1,3166,0,1,1,library_3,2,memory-2step-stake-s,732,2932721,0.0-19.0-0.1-0.238,A36P1ZQ0GYF567,371DNNCG57IGA1IMUX7DUPM8OSP8TA,3X73LLYYQ5UEUICPQ7K9NN52W5TNH0,5,6
239,2,object_07,object_09,632.20000004768,3,2,527.0,0.1111111111111111,1,object_04,5,3171,0,1,0,forest_1,2,memory-2step-stake-s,733,2940654,0.0-19.0-0.1-0.239,A36P1ZQ0GYF567,371DNNCG57IGA1IMUX7DUPM8OSP8TA,3X73LLYYQ5UEUICPQ7K9NN52W5TNH0,4,3
240,1,object_05,object_03,501.69999998808,2,1,256.19999998808,0.1111111111111111,2,object_08,5,3176,0,0,1,desert_6,2,memory-2step-stake-s,734,2948322,0.0-19.0-0.1-0.240,A36P1ZQ0GYF567,371DNNCG57IGA1IMUX7DUPM8OSP8TA,3X73LLYYQ5UEUICPQ7K9NN52W5TNH0,2,1
241,1,object_03,object_05,421.39999997616,1,1,261.80000001192,0.0,1,object_04,5,3176,0,0,3,desert_5,2,memory-2step-stake-s,735,2955852,0.0-19.0-0.1-0.241,A36P1ZQ0GYF567,371DNNCG57IGA1IMUX7DUPM8OSP8TA,3X73LLYYQ5UEUICPQ7K9NN52W5TNH0,1,2
242,1,object_05,object_03,613.20000004768,2,1,239.0,0.1111111111111111,2,object_08,5,3181,0,1,1,desert_6,2,memory-2step-stake-s,736,2963531,0.0-19.0-0.1-0.242,A36P1ZQ0GYF567,371DNNCG57IGA1IMUX7DUPM8OSP8TA,3X73LLYYQ5UEUICPQ7K9NN52W5TNH0,2,1
243,4,object_01,object_02,385.0,7,2,226.09999996424,0.4444444444444444,1,object_04,1,3185,0,4,2,restaurant_4,2,memory-2step-stake-s,737,2971495,0.0-19.0-0.1-0.243,A36P1ZQ0GYF567,371DNNCG57IGA1IMUX7DUPM8OSP8TA,3X73LLYYQ5UEUICPQ7K9NN52W5TNH0,8,7
244,1,object_03,object_05,249.69999998808,2,2,273.40000003576,0.1111111111111111,2,object_08,5,3190,0,6,1,desert_6,2,memory-2step-stake-s,738,2979171,0.0-19.0-0.1-0.244,A36P1ZQ0GYF567,371DNNCG57IGA1IMUX7DUPM8OSP8TA,3X73LLYYQ5UEUICPQ7K9NN52W5TNH0,1,2
245,2,object_09,object_07,349.89999997616,3,1,266.60000002384,0.6666666666666666,1,object_04,5,3220,0,6,2,forest_2,2,memory-2step-stake-s,739,2987358,0.0-19.0-0.1-0.245,A36P1ZQ0GYF567,371DNNCG57IGA1IMUX7DUPM8OSP8TA,3X73LLYYQ5UEUICPQ7K9NN52W5TNH0,3,4
246,3,object_10,object_06,305.89999997616,6,2,506.89999997616,0.3333333333333333,2,object_08,1,3223,0,6,3,library_4,2,memory-2step-stake-s,740,2995472,0.0-19.0-0.1-0.246,A36P1ZQ0GYF567,371DNNCG57IGA1IMUX7DUPM8OSP8TA,3X73LLYYQ5UEUICPQ7K9NN52W5TNH0,5,6
247,1,object_03,object_05,336.80000001192,2,2,453.5,0.1111111111111111,2,object_08,5,3228,0,7,1,desert_6,2,memory-2step-stake-s,741,3003292,0.0-19.0-0.1-0.247,A36P1ZQ0GYF567,371DNNCG57IGA1IMUX7DUPM8OSP8TA,3X73LLYYQ5UEUICPQ7K9NN52W5TNH0,1,2
248,1,object_05,object_03,504.10000002384,2,1,295.30000001192,0.2222222222222222,2,object_08,5,3238,0,9,2,desert_5,2,memory-2step-stake-s,742,3011085,0.0-19.0-0.1-0.248,A36P1ZQ0GYF567,371DNNCG57IGA1IMUX7DUPM8OSP8TA,3X73LLYYQ5UEUICPQ7K9NN52W5TNH0,2,1
249,3,object_10,object_06,521.30000001192,6,2,298.39999997616,0.0,2,object_08,1,3238,0,9,0,library_2,2,memory-2step-stake-s,743,3018656,0.0-19.0-0.1-0.249,A36P1ZQ0GYF567,371DNNCG57IGA1IMUX7DUPM8OSP8TA,3X73LLYYQ5UEUICPQ7K9NN52W5TNH0,5,6
250,3,object_10,object_06,417.19999998808,5,1,272.0,0.8888888888888888,1,object_04,1,3246,0,8,1,library_2,2,memory-2step-stake-s,744,3027066,0.0-19.0-0.1-0.250,A36P1ZQ0GYF567,371DNNCG57IGA1IMUX7DUPM8OSP8TA,3X73LLYYQ5UEUICPQ7K9NN52W5TNH0,5,6
251,2,object_09,object_07,582.19999998808,4,2,264.30000001192,0.1111111111111111,2,object_08,5,3251,0,7,1,forest_5,2,memory-2step-stake-s,745,3034714,0.0-19.0-0.1-0.251,A36P1ZQ0GYF567,371DNNCG57IGA1IMUX7DUPM8OSP8TA,3X73LLYYQ5UEUICPQ7K9NN52W5TNH0,3,4
252,4,object_01,object_02,678.30000001192,7,2,453.30000001192,0.3333333333333333,1,object_04,1,3254,0,3,2,restaurant_7,2,memory-2step-stake-s,746,3042772,0.0-19.0-0.1-0.252,A36P1ZQ0GYF567,371DNNCG57IGA1IMUX7DUPM8OSP8TA,3X73LLYYQ5UEUICPQ7K9NN52W5TNH0,8,7
253,3,object_06,object_10,372.29999995232,5,2,274.40000003576,0.6666666666666666,1,object_04,5,3284,0,6,1,library_3,2,memory-2step-stake-s,747,3051017,0.0-19.0-0.1-0.253,A36P1ZQ0GYF567,371DNNCG57IGA1IMUX7DUPM8OSP8TA,3X73LLYYQ5UEUICPQ7K9NN52W5TNH0,6,5
254,3,object_10,object_06,416.39999997616,5,1,272.69999998808,0.7777777777777778,1,object_04,1,3291,0,7,1,library_4,2,memory-2step-stake-s,748,3059317,0.0-19.0-0.1-0.254,A36P1ZQ0GYF567,371DNNCG57IGA1IMUX7DUPM8OSP8TA,3X73LLYYQ5UEUICPQ7K9NN52W5TNH0,5,6
255,4,object_02,object_01,530.40000003576,7,1,318.19999998808,0.5555555555555556,1,object_04,1,3296,0,5,2,restaurant_7,2,memory-2step-stake-s,749,3067465,0.0-19.0-0.1-0.255,A36P1ZQ0GYF567,371DNNCG57IGA1IMUX7DUPM8OSP8TA,3X73LLYYQ5UEUICPQ7K9NN52W5TNH0,7,8
