,state1,stim_left,stim_right,rt_1,choice1,response1,rt_2,points,state2,stim_state2,stake,score,practice,rews1,rews2,background,high_arm,trial_type,trial_index,time_elapsed,internal_node_id,subid,hitid,assignmentid,stim_left_num,stim_right_num
0,2,object_06,object_09,1130.8999999762,3,2,1452.4000000358,0.5555555555555556,1,object_10,1,5,0,5,2,forest_7,2,memory-2step-stake-s,488,1169683,0.0-19.0-0.0-0.0,AVCOBHDVXZOZL,3SA4EMRVKYI00KKCICLEW0FTGRS0PA,3KJYX6QCMDRNTTGOGY9L9HFUV0YJVH,4,3
1,2,object_09,object_06,980.59999996424,3,1,707.80000001192,0.5555555555555556,1,object_10,5,30,0,5,2,forest_3,2,memory-2step-stake-s,489,1178126,0.0-19.0-0.0-0.1,AVCOBHDVXZOZL,3SA4EMRVKYI00KKCICLEW0FTGRS0PA,3KJYX6QCMDRNTTGOGY9L9HFUV0YJVH,3,4
2,2,object_06,object_09,1246.8999999762,3,2,535.39999997616,0.7777777777777778,1,object_10,5,65,0,7,5,forest_7,2,memory-2step-stake-s,490,1186687,0.0-19.0-0.0-0.2,AVCOBHDVXZOZL,3SA4EMRVKYI00KKCICLEW0FTGRS0PA,3KJYX6QCMDRNTTGOGY9L9HFUV0YJVH,4,3
3,2,object_09,object_06,624.40000003576,3,1,437.30000001192,0.7777777777777778,1,object_10,5,100,0,7,9,forest_7,2,memory-2step-stake-s,491,1195093,0.0-19.0-0.0-0.3,AVCOBHDVXZOZL,3SA4EMRVKYI00KKCICLEW0FTGRS0PA,3KJYX6QCMDRNTTGOGY9L9HFUV0YJVH,3,4
4,4,object_07,object_03,1114.0999999642,7,1,643.89999997616,0.8888888888888888,1,object_10,5,140,0,8,9,restaurant_4,2,memory-2step-stake-s,492,1203802,0.0-19.0-0.0-0.4,AVCOBHDVXZOZL,3SA4EMRVKYI00KKCICLEW0FTGRS0PA,3KJYX6QCMDRNTTGOGY9L9HFUV0YJVH,7,8
5,3,object_04,object_02,1454.4000000358,6,1,704.19999998808,0.7777777777777778,2,object_01,1,147,0,9,7,library_2,2,memory-2step-stake-s,493,1212451,0.0-19.0-0.0-0.5,AVCOBHDVXZOZL,3SA4EMRVKYI00KKCICLEW0FTGRS0PA,3KJYX6QCMDRNTTGOGY9L9HFUV0YJVH,6,5
6,3,object_04,object_02,763.79999995232,5,2,483.29999995232,0.8888888888888888,1,object_10,1,155,0,8,6,library_4,2,memory-2step-stake-s,494,1220984,0.0-19.0-0.0-0.6,AVCOBHDVXZOZL,3SA4EMRVKYI00KKCICLEW0FTGRS0PA,3KJYX6QCMDRNTTGOGY9L9HFUV0YJVH,6,5
7,2,object_06,object_09,865.0,3,2,355.40000003576,0.6666666666666666,1,object_10,5,185,0,6,3,forest_4,2,memory-2step-stake-s,495,1229206,0.0-19.0-0.0-0.7,AVCOBHDVXZOZL,3SA4EMRVKYI00KKCICLEW0FTGRS0PA,3KJYX6QCMDRNTTGOGY9L9HFUV0YJVH,4,3
8,1,object_08,object_05,1231.8000000119,1,1,578.69999998808,0.8888888888888888,1,object_10,5,225,0,8,5,desert_3,2,memory-2step-stake-s,496,1237824,0.0-19.0-0.0-0.8,AVCOBHDVXZOZL,3SA4EMRVKYI00KKCICLEW0FTGRS0PA,3KJYX6QCMDRNTTGOGY9L9HFUV0YJVH,1,2
9,1,object_08,object_05,928.39999997616,1,1,370.59999996424,0.7777777777777778,1,object_10,5,260,0,7,6,desert_5,2,memory-2step-stake-s,497,1246142,0.0-19.0-0.0-0.9,AVCOBHDVXZOZL,3SA4EMRVKYI00KKCICLEW0FTGRS0PA,3KJYX6QCMDRNTTGOGY9L9HFUV0YJVH,1,2
10,4,object_07,object_03,959.10000002384,8,2,439.0,1.0,2,object_01,1,269,0,8,9,restaurant_2,2,memory-2step-stake-s,498,1254715,0.0-19.0-0.0-0.10,AVCOBHDVXZOZL,3SA4EMRVKYI00KKCICLEW0FTGRS0PA,3KJYX6QCMDRNTTGOGY9L9HFUV0YJVH,7,8
11,2,object_06,object_09,1016.1999999881,4,1,332.80000001192,1.0,2,object_01,1,278,0,9,9,forest_4,2,memory-2step-stake-s,499,1263209,0.0-19.0-0.0-0.11,AVCOBHDVXZOZL,3SA4EMRVKYI00KKCICLEW0FTGRS0PA,3KJYX6QCMDRNTTGOGY9L9HFUV0YJVH,4,3
12,3,object_04,object_02,1185.1999999881,5,2,390.30000001192,0.8888888888888888,1,object_10,5,318,0,8,8,library_2,2,memory-2step-stake-s,500,1271647,0.0-19.0-0.0-0.12,AVCOBHDVXZOZL,3SA4EMRVKYI00KKCICLEW0FTGRS0PA,3KJYX6QCMDRNTTGOGY9L9HFUV0YJVH,6,5
13,2,object_09,object_06,1174.2999999523,4,2,377.59999996424,0.7777777777777778,2,object_01,5,353,0,7,7,forest_7,2,memory-2step-stake-s,501,1279957,0.0-19.0-0.0-0.13,AVCOBHDVXZOZL,3SA4EMRVKYI00KKCICLEW0FTGRS0PA,3KJYX6QCMDRNTTGOGY9L9HFUV0YJVH,3,4
14,3,object_02,object_04,727.5,5,1,396.80000001192,0.5555555555555556,1,object_10,1,358,0,5,3,library_8,2,memory-2step-stake-s,502,1288098,0.0-19.0-0.0-0.14,AVCOBHDVXZOZL,3SA4EMRVKYI00KKCICLEW0FTGRS0PA,3KJYX6QCMDRNTTGOGY9L9HFUV0YJVH,5,6
15,1,object_05,object_08,1035.0,2,1,354.0,0.4444444444444444,2,object_01,5,378,0,7,4,desert_5,2,memory-2step-stake-s,503,1296080,0.0-19.0-0.0-0.15,AVCOBHDVXZOZL,3SA4EMRVKYI00KKCICLEW0FTGRS0PA,3KJYX6QCMDRNTTGOGY9L9HFUV0YJVH,2,1
16,2,object_06,object_09,1131.0,4,1,332.60000002384,0.5555555555555556,2,object_01,1,383,0,7,5,forest_4,2,memory-2step-stake-s,504,1304141,0.0-19.0-0.0-0.16,AVCOBHDVXZOZL,3SA4EMRVKYI00KKCICLEW0FTGRS0PA,3KJYX6QCMDRNTTGOGY9L9HFUV0YJVH,4,3
17,4,object_07,object_03,837.5,8,2,401.59999996424,0.5555555555555556,2,object_01,1,388,0,6,5,restaurant_4,2,memory-2step-stake-s,505,1312272,0.0-19.0-0.0-0.17,AVCOBHDVXZOZL,3SA4EMRVKYI00KKCICLEW0FTGRS0PA,3KJYX6QCMDRNTTGOGY9L9HFUV0YJVH,7,8
18,1,object_05,object_08,827.30000001192,2,1,392.69999998808,0.6666666666666666,2,object_01,5,418,0,7,6,desert_1,2,memory-2step-stake-s,506,1320507,0.0-19.0-0.0-0.18,AVCOBHDVXZOZL,3SA4EMRVKYI00KKCICLEW0FTGRS0PA,3KJYX6QCMDRNTTGOGY9L9HFUV0YJVH,2,1
19,4,object_07,object_03,721.39999997616,8,2,296.89999997616,0.5555555555555556,2,object_01,1,423,0,9,5,restaurant_1,2,memory-2step-stake-s,507,1328543,0.0-19.0-0.0-0.19,AVCOBHDVXZOZL,3SA4EMRVKYI00KKCICLEW0FTGRS0PA,3KJYX6QCMDRNTTGOGY9L9HFUV0YJVH,7,8
20,4,object_07,object_03,651.0,8,2,116.5,1.0,2,object_01,1,432,0,9,9,restaurant_7,2,memory-2step-stake-s,508,1336819,0.0-19.0-0.0-0.20,AVCOBHDVXZOZL,3SA4EMRVKYI00KKCICLEW0FTGRS0PA,3KJYX6QCMDRNTTGOGY9L9HFUV0YJVH,7,8
21,1,object_05,object_08,929.10000002384,2,1,351.80000001192,0.8888888888888888,2,object_01,5,472,0,8,8,desert_3,2,memory-2step-stake-s,509,1345239,0.0-19.0-0.0-0.21,AVCOBHDVXZOZL,3SA4EMRVKYI00KKCICLEW0FTGRS0PA,3KJYX6QCMDRNTTGOGY9L9HFUV0YJVH,2,1
22,1,object_05,object_08,1108.6999999881,2,1,294.90000003576,0.7777777777777778,2,object_01,5,507,0,6,7,desert_4,2,memory-2step-stake-s,510,1353514,0.0-19.0-0.0-0.22,AVCOBHDVXZOZL,3SA4EMRVKYI00KKCICLEW0FTGRS0PA,3KJYX6QCMDRNTTGOGY9L9HFUV0YJVH,2,1
23,1,object_08,object_05,748.79999995232,1,1,476.39999997616,0.7777777777777778,1,object_10,5,542,0,7,7,desert_1,2,memory-2step-stake-s,511,1361949,0.0-19.0-0.0-0.23,AVCOBHDVXZOZL,3SA4EMRVKYI00KKCICLEW0FTGRS0PA,3KJYX6QCMDRNTTGOGY9L9HFUV0YJVH,1,2
24,3,object_04,object_02,991.5,6,1,338.0,0.8888888888888888,2,object_01,5,582,0,8,8,library_6,2,memory-2step-stake-s,512,1370319,0.0-19.0-0.0-0.24,AVCOBHDVXZOZL,3SA4EMRVKYI00KKCICLEW0FTGRS0PA,3KJYX6QCMDRNTTGOGY9L9HFUV0YJVH,6,5
25,4,object_03,object_07,271.19999998808,7,2,339.60000002384,0.7777777777777778,1,object_10,1,589,0,7,8,restaurant_1,2,memory-2step-stake-s,513,1378606,0.0-19.0-0.0-0.25,AVCOBHDVXZOZL,3SA4EMRVKYI00KKCICLEW0FTGRS0PA,3KJYX6QCMDRNTTGOGY9L9HFUV0YJVH,8,7
26,2,object_09,object_06,465.10000002384,3,1,419.39999997616,0.7777777777777778,1,object_10,5,624,0,7,7,forest_4,2,memory-2step-stake-s,514,1386969,0.0-19.0-0.0-0.26,AVCOBHDVXZOZL,3SA4EMRVKYI00KKCICLEW0FTGRS0PA,3KJYX6QCMDRNTTGOGY9L9HFUV0YJVH,3,4
27,3,object_04,object_02,693.19999998808,5,2,454.90000003576,1.0,1,object_10,1,633,0,9,7,library_2,2,memory-2step-stake-s,515,1395557,0.0-19.0-0.0-0.27,AVCOBHDVXZOZL,3SA4EMRVKYI00KKCICLEW0FTGRS0PA,3KJYX6QCMDRNTTGOGY9L9HFUV0YJVH,6,5
28,4,object_03,object_07,118.80000001192,8,1,686.80000001192,0.7777777777777778,2,object_01,1,640,0,8,7,restaurant_2,2,memory-2step-stake-s,516,1404176,0.0-19.0-0.0-0.28,AVCOBHDVXZOZL,3SA4EMRVKYI00KKCICLEW0FTGRS0PA,3KJYX6QCMDRNTTGOGY9L9HFUV0YJVH,8,7
29,3,object_04,object_02,467.80000001192,5,2,403.60000002384,0.6666666666666666,1,object_10,1,646,0,6,7,library_6,2,memory-2step-stake-s,517,1412418,0.0-19.0-0.0-0.29,AVCOBHDVXZOZL,3SA4EMRVKYI00KKCICLEW0FTGRS0PA,3KJYX6QCMDRNTTGOGY9L9HFUV0YJVH,6,5
30,1,object_05,object_08,297.0,2,1,366.40000003576,0.8888888888888888,2,object_01,5,686,0,4,8,desert_1,2,memory-2step-stake-s,518,1420817,0.0-19.0-0.0-0.30,AVCOBHDVXZOZL,3SA4EMRVKYI00KKCICLEW0FTGRS0PA,3KJYX6QCMDRNTTGOGY9L9HFUV0YJVH,2,1
31,2,object_09,object_06,410.19999998808,4,2,340.90000003576,0.8888888888888888,2,object_01,5,726,0,4,8,forest_2,2,memory-2step-stake-s,519,1429207,0.0-19.0-0.0-0.31,AVCOBHDVXZOZL,3SA4EMRVKYI00KKCICLEW0FTGRS0PA,3KJYX6QCMDRNTTGOGY9L9HFUV0YJVH,3,4
32,1,object_05,object_08,262.20000004768,2,1,316.5,0.8888888888888888,2,object_01,1,734,0,2,8,desert_1,2,memory-2step-stake-s,520,1437563,0.0-19.0-0.0-0.32,AVCOBHDVXZOZL,3SA4EMRVKYI00KKCICLEW0FTGRS0PA,3KJYX6QCMDRNTTGOGY9L9HFUV0YJVH,2,1
33,3,object_02,object_04,344.70000004768,6,2,404.89999997616,0.7777777777777778,2,object_01,1,741,0,4,7,library_8,2,memory-2step-stake-s,521,1445917,0.0-19.0-0.0-0.33,AVCOBHDVXZOZL,3SA4EMRVKYI00KKCICLEW0FTGRS0PA,3KJYX6QCMDRNTTGOGY9L9HFUV0YJVH,5,6
34,2,object_09,object_06,88.5,3,1,407.80000001192,0.4444444444444444,1,object_10,5,761,0,4,7,forest_3,2,memory-2step-stake-s,522,1453954,0.0-19.0-0.0-0.34,AVCOBHDVXZOZL,3SA4EMRVKYI00KKCICLEW0FTGRS0PA,3KJYX6QCMDRNTTGOGY9L9HFUV0YJVH,3,4
35,1,object_08,object_05,425.5,2,2,385.10000002384,0.8888888888888888,2,object_01,5,801,0,4,8,desert_4,2,memory-2step-stake-s,523,1462382,0.0-19.0-0.0-0.35,AVCOBHDVXZOZL,3SA4EMRVKYI00KKCICLEW0FTGRS0PA,3KJYX6QCMDRNTTGOGY9L9HFUV0YJVH,1,2
36,4,object_03,object_07,591.19999998808,8,1,344.60000002384,0.8888888888888888,2,object_01,5,841,0,7,8,restaurant_2,2,memory-2step-stake-s,524,1470764,0.0-19.0-0.0-0.36,AVCOBHDVXZOZL,3SA4EMRVKYI00KKCICLEW0FTGRS0PA,3KJYX6QCMDRNTTGOGY9L9HFUV0YJVH,8,7
37,3,object_04,object_02,552.5,5,2,382.69999998808,0.5555555555555556,1,object_10,1,846,0,5,5,library_6,2,memory-2step-stake-s,525,1478891,0.0-19.0-0.0-0.37,AVCOBHDVXZOZL,3SA4EMRVKYI00KKCICLEW0FTGRS0PA,3KJYX6QCMDRNTTGOGY9L9HFUV0YJVH,6,5
38,1,object_08,object_05,457.89999997616,1,1,348.0,0.4444444444444444,1,object_10,5,866,0,4,8,desert_1,2,memory-2step-stake-s,526,1486868,0.0-19.0-0.0-0.38,AVCOBHDVXZOZL,3SA4EMRVKYI00KKCICLEW0FTGRS0PA,3KJYX6QCMDRNTTGOGY9L9HFUV0YJVH,1,2
39,3,object_04,object_02,97.5,5,2,317.0,0.4444444444444444,1,object_10,5,886,0,4,9,library_2,2,memory-2step-stake-s,527,1494805,0.0-19.0-0.0-0.39,AVCOBHDVXZOZL,3SA4EMRVKYI00KKCICLEW0FTGRS0PA,3KJYX6QCMDRNTTGOGY9L9HFUV0YJVH,6,5
40,4,object_07,object_03,671.0,7,1,306.39999997616,0.6666666666666666,1,object_10,1,892,0,6,7,restaurant_2,2,memory-2step-stake-s,528,1502949,0.0-19.0-0.0-0.40,AVCOBHDVXZOZL,3SA4EMRVKYI00KKCICLEW0FTGRS0PA,3KJYX6QCMDRNTTGOGY9L9HFUV0YJVH,7,8
41,3,object_02,object_04,708.39999997616,5,1,505.5,0.7777777777777778,1,object_10,5,927,0,7,8,library_8,2,memory-2step-stake-s,529,1511394,0.0-19.0-0.0-0.41,AVCOBHDVXZOZL,3SA4EMRVKYI00KKCICLEW0FTGRS0PA,3KJYX6QCMDRNTTGOGY9L9HFUV0YJVH,5,6
42,1,object_08,object_05,922.39999997616,2,2,313.69999998808,1.0,2,object_01,5,972,0,7,9,desert_1,2,memory-2step-stake-s,530,1519864,0.0-19.0-0.0-0.42,AVCOBHDVXZOZL,3SA4EMRVKYI00KKCICLEW0FTGRS0PA,3KJYX6QCMDRNTTGOGY9L9HFUV0YJVH,1,2
43,3,object_04,object_02,858.0,5,2,282.60000002384,0.6666666666666666,1,object_10,1,978,0,6,9,library_8,2,memory-2step-stake-s,531,1527984,0.0-19.0-0.0-0.43,AVCOBHDVXZOZL,3SA4EMRVKYI00KKCICLEW0FTGRS0PA,3KJYX6QCMDRNTTGOGY9L9HFUV0YJVH,6,5
44,3,object_04,object_02,777.89999997616,5,2,293.19999998808,0.6666666666666666,1,object_10,5,1008,0,6,5,library_8,2,memory-2step-stake-s,532,1536109,0.0-19.0-0.0-0.44,AVCOBHDVXZOZL,3SA4EMRVKYI00KKCICLEW0FTGRS0PA,3KJYX6QCMDRNTTGOGY9L9HFUV0YJVH,6,5
45,4,object_07,object_03,720.5,7,1,357.0,0.8888888888888888,1,object_10,1,1016,0,8,3,restaurant_1,2,memory-2step-stake-s,533,1544489,0.0-19.0-0.0-0.45,AVCOBHDVXZOZL,3SA4EMRVKYI00KKCICLEW0FTGRS0PA,3KJYX6QCMDRNTTGOGY9L9HFUV0YJVH,7,8
46,2,object_09,object_06,373.30000001192,4,2,281.0,0.1111111111111111,2,object_01,1,1017,0,4,1,forest_4,2,memory-2step-stake-s,534,1552095,0.0-19.0-0.0-0.46,AVCOBHDVXZOZL,3SA4EMRVKYI00KKCICLEW0FTGRS0PA,3KJYX6QCMDRNTTGOGY9L9HFUV0YJVH,3,4
47,2,object_06,object_09,791.80000001192,3,2,400.10000002384,0.1111111111111111,1,object_10,5,1022,0,1,3,forest_4,2,memory-2step-stake-s,535,1559814,0.0-19.0-0.0-0.47,AVCOBHDVXZOZL,3SA4EMRVKYI00KKCICLEW0FTGRS0PA,3KJYX6QCMDRNTTGOGY9L9HFUV0YJVH,4,3
48,2,object_09,object_06,1426.5,3,1,532.60000002384,0.3333333333333333,1,object_10,5,1037,0,3,5,forest_4,2,memory-2step-stake-s,536,1567878,0.0-19.0-0.0-0.48,AVCOBHDVXZOZL,3SA4EMRVKYI00KKCICLEW0FTGRS0PA,3KJYX6QCMDRNTTGOGY9L9HFUV0YJVH,3,4
49,1,object_08,object_05,1351.5,1,1,666.10000002384,0.5555555555555556,1,object_10,5,1062,0,5,7,desert_5,2,memory-2step-stake-s,537,1576282,0.0-19.0-0.0-0.49,AVCOBHDVXZOZL,3SA4EMRVKYI00KKCICLEW0FTGRS0PA,3KJYX6QCMDRNTTGOGY9L9HFUV0YJVH,1,2
50,1,object_08,object_05,694.0,2,2,327.0,0.4444444444444444,2,object_01,5,1082,0,2,4,desert_5,2,memory-2step-stake-s,538,1584238,0.0-19.0-0.0-0.50,AVCOBHDVXZOZL,3SA4EMRVKYI00KKCICLEW0FTGRS0PA,3KJYX6QCMDRNTTGOGY9L9HFUV0YJVH,1,2
51,1,object_05,object_08,901.69999998808,1,2,293.69999998808,0.1111111111111111,1,object_10,5,1087,0,1,4,desert_5,2,memory-2step-stake-s,539,1591853,0.0-19.0-0.0-0.51,AVCOBHDVXZOZL,3SA4EMRVKYI00KKCICLEW0FTGRS0PA,3KJYX6QCMDRNTTGOGY9L9HFUV0YJVH,2,1
52,3,object_04,object_02,910.89999997616,6,1,420.0,0.7777777777777778,2,object_01,1,1094,0,3,7,library_2,2,memory-2step-stake-s,540,1600231,0.0-19.0-0.0-0.52,AVCOBHDVXZOZL,3SA4EMRVKYI00KKCICLEW0FTGRS0PA,3KJYX6QCMDRNTTGOGY9L9HFUV0YJVH,6,5
53,4,object_03,object_07,258.10000002384,7,2,291.09999996424,0.3333333333333333,1,object_10,1,1097,0,3,6,restaurant_2,2,memory-2step-stake-s,541,1608059,0.0-19.0-0.0-0.53,AVCOBHDVXZOZL,3SA4EMRVKYI00KKCICLEW0FTGRS0PA,3KJYX6QCMDRNTTGOGY9L9HFUV0YJVH,8,7
54,1,object_05,object_08,1031.1999999881,2,1,303.0,0.8888888888888888,2,object_01,5,1137,0,5,8,desert_1,2,memory-2step-stake-s,542,1616426,0.0-19.0-0.0-0.54,AVCOBHDVXZOZL,3SA4EMRVKYI00KKCICLEW0FTGRS0PA,3KJYX6QCMDRNTTGOGY9L9HFUV0YJVH,2,1
55,2,object_09,object_06,843.0,3,1,441.30000001192,0.5555555555555556,1,object_10,5,1162,0,5,7,forest_7,2,memory-2step-stake-s,543,1624595,0.0-19.0-0.0-0.55,AVCOBHDVXZOZL,3SA4EMRVKYI00KKCICLEW0FTGRS0PA,3KJYX6QCMDRNTTGOGY9L9HFUV0YJVH,3,4
56,3,object_04,object_02,724.80000001192,5,2,385.90000003576,0.7777777777777778,1,object_10,5,1197,0,7,7,library_4,2,memory-2step-stake-s,544,1632933,0.0-19.0-0.0-0.56,AVCOBHDVXZOZL,3SA4EMRVKYI00KKCICLEW0FTGRS0PA,3KJYX6QCMDRNTTGOGY9L9HFUV0YJVH,6,5
57,4,object_03,object_07,471.70000004768,8,1,289.30000001192,0.6666666666666666,2,object_01,1,1203,0,6,6,restaurant_7,2,memory-2step-stake-s,545,1641077,0.0-19.0-0.0-0.57,AVCOBHDVXZOZL,3SA4EMRVKYI00KKCICLEW0FTGRS0PA,3KJYX6QCMDRNTTGOGY9L9HFUV0YJVH,8,7
58,1,object_08,object_05,535.60000002384,2,2,909.89999997616,0.6666666666666666,2,object_01,5,1233,0,4,6,desert_5,2,memory-2step-stake-s,546,1649836,0.0-19.0-0.0-0.58,AVCOBHDVXZOZL,3SA4EMRVKYI00KKCICLEW0FTGRS0PA,3KJYX6QCMDRNTTGOGY9L9HFUV0YJVH,1,2
59,4,object_03,object_07,637.80000001192,8,1,263.0,0.5555555555555556,2,object_01,1,1238,0,1,5,restaurant_2,2,memory-2step-stake-s,547,1657830,0.0-19.0-0.0-0.59,AVCOBHDVXZOZL,3SA4EMRVKYI00KKCICLEW0FTGRS0PA,3KJYX6QCMDRNTTGOGY9L9HFUV0YJVH,8,7
60,2,object_09,object_06,823.60000002384,4,2,426.89999997616,0.2222222222222222,2,object_01,5,1248,0,6,2,forest_2,2,memory-2step-stake-s,548,1665674,0.0-19.0-0.0-0.60,AVCOBHDVXZOZL,3SA4EMRVKYI00KKCICLEW0FTGRS0PA,3KJYX6QCMDRNTTGOGY9L9HFUV0YJVH,3,4
61,4,object_07,object_03,264.79999995232,7,1,249.0,0.5555555555555556,1,object_10,1,1253,0,5,5,restaurant_2,2,memory-2step-stake-s,549,1673665,0.0-19.0-0.0-0.61,AVCOBHDVXZOZL,3SA4EMRVKYI00KKCICLEW0FTGRS0PA,3KJYX6QCMDRNTTGOGY9L9HFUV0YJVH,7,8
62,2,object_06,object_09,292.69999998808,3,2,275.69999998808,0.8888888888888888,1,object_10,5,1293,0,8,9,forest_7,2,memory-2step-stake-s,550,1681994,0.0-19.0-0.0-0.62,AVCOBHDVXZOZL,3SA4EMRVKYI00KKCICLEW0FTGRS0PA,3KJYX6QCMDRNTTGOGY9L9HFUV0YJVH,4,3
63,2,object_06,object_09,465.79999995232,4,1,477.80000001192,0.7777777777777778,2,object_01,1,1300,0,6,7,forest_4,2,memory-2step-stake-s,551,1690412,0.0-19.0-0.0-0.63,AVCOBHDVXZOZL,3SA4EMRVKYI00KKCICLEW0FTGRS0PA,3KJYX6QCMDRNTTGOGY9L9HFUV0YJVH,4,3
64,3,object_04,object_02,293.10000002384,5,2,116.80000001192,0.6666666666666666,1,object_10,1,1306,0,6,5,library_6,2,memory-2step-stake-s,552,1698360,0.0-19.0-0.0-0.64,AVCOBHDVXZOZL,3SA4EMRVKYI00KKCICLEW0FTGRS0PA,3KJYX6QCMDRNTTGOGY9L9HFUV0YJVH,6,5
65,3,object_04,object_02,192.5,6,1,327.0,0.6666666666666666,2,object_01,1,1312,0,2,6,library_2,2,memory-2step-stake-s,553,1706524,0.0-19.0-0.0-0.65,AVCOBHDVXZOZL,3SA4EMRVKYI00KKCICLEW0FTGRS0PA,3KJYX6QCMDRNTTGOGY9L9HFUV0YJVH,6,5
66,4,object_07,object_03,8.1999999880791,8,2,323.59999996424,0.2222222222222222,2,object_01,1,1314,0,2,2,restaurant_4,2,memory-2step-stake-s,554,1714266,0.0-19.0-0.0-0.66,AVCOBHDVXZOZL,3SA4EMRVKYI00KKCICLEW0FTGRS0PA,3KJYX6QCMDRNTTGOGY9L9HFUV0YJVH,7,8
67,1,object_05,object_08,467.5,2,1,410.69999998808,0.2222222222222222,2,object_01,5,1324,0,3,2,desert_1,2,memory-2step-stake-s,555,1722102,0.0-19.0-0.0-0.67,AVCOBHDVXZOZL,3SA4EMRVKYI00KKCICLEW0FTGRS0PA,3KJYX6QCMDRNTTGOGY9L9HFUV0YJVH,2,1
68,4,object_07,object_03,798.10000002384,8,2,360.29999995232,0.4444444444444444,2,object_01,5,1344,0,5,4,restaurant_1,2,memory-2step-stake-s,556,1730093,0.0-19.0-0.0-0.68,AVCOBHDVXZOZL,3SA4EMRVKYI00KKCICLEW0FTGRS0PA,3KJYX6QCMDRNTTGOGY9L9HFUV0YJVH,7,8
69,2,object_09,object_06,974.39999997616,4,2,526.39999997616,0.5555555555555556,2,object_01,1,1349,0,4,5,forest_3,2,memory-2step-stake-s,557,1738358,0.0-19.0-0.0-0.69,AVCOBHDVXZOZL,3SA4EMRVKYI00KKCICLEW0FTGRS0PA,3KJYX6QCMDRNTTGOGY9L9HFUV0YJVH,3,4
70,2,object_06,object_09,70.5,4,1,8.5,0.7777777777777778,2,object_01,1,1356,0,7,7,forest_7,2,memory-2step-stake-s,558,1746300,0.0-19.0-0.0-0.70,AVCOBHDVXZOZL,3SA4EMRVKYI00KKCICLEW0FTGRS0PA,3KJYX6QCMDRNTTGOGY9L9HFUV0YJVH,4,3
71,1,object_05,object_08,762.30000001192,1,2,261.09999996424,0.8888888888888888,1,object_10,5,1396,0,8,8,desert_3,2,memory-2step-stake-s,559,1754590,0.0-19.0-0.0-0.71,AVCOBHDVXZOZL,3SA4EMRVKYI00KKCICLEW0FTGRS0PA,3KJYX6QCMDRNTTGOGY9L9HFUV0YJVH,2,1
72,3,object_02,object_04,551.5,5,1,154.80000001192,0.5555555555555556,1,object_10,1,1401,0,5,6,library_6,2,memory-2step-stake-s,560,1762476,0.0-19.0-0.0-0.72,AVCOBHDVXZOZL,3SA4EMRVKYI00KKCICLEW0FTGRS0PA,3KJYX6QCMDRNTTGOGY9L9HFUV0YJVH,5,6
73,3,object_04,object_02,513.40000003576,5,2,50.899999976158,0.3333333333333333,1,object_10,1,1404,0,3,7,library_4,2,memory-2step-stake-s,561,1770059,0.0-19.0-0.0-0.73,AVCOBHDVXZOZL,3SA4EMRVKYI00KKCICLEW0FTGRS0PA,3KJYX6QCMDRNTTGOGY9L9HFUV0YJVH,6,5
74,3,object_02,object_04,320.0,6,2,306.60000002384,0.5555555555555556,2,object_01,1,1409,0,0,5,library_8,2,memory-2step-stake-s,562,1778094,0.0-19.0-0.0-0.74,AVCOBHDVXZOZL,3SA4EMRVKYI00KKCICLEW0FTGRS0PA,3KJYX6QCMDRNTTGOGY9L9HFUV0YJVH,5,6
75,4,object_07,object_03,1440.1999999881,8,2,387.80000001192,0.6666666666666666,2,object_01,5,1439,0,2,6,restaurant_2,2,memory-2step-stake-s,563,1786319,0.0-19.0-0.0-0.75,AVCOBHDVXZOZL,3SA4EMRVKYI00KKCICLEW0FTGRS0PA,3KJYX6QCMDRNTTGOGY9L9HFUV0YJVH,7,8
76,4,object_03,object_07,333.0,8,1,331.20000004768,0.4444444444444444,2,object_01,1,1443,0,3,4,restaurant_4,2,memory-2step-stake-s,564,1794280,0.0-19.0-0.0-0.76,AVCOBHDVXZOZL,3SA4EMRVKYI00KKCICLEW0FTGRS0PA,3KJYX6QCMDRNTTGOGY9L9HFUV0YJVH,8,7
77,1,object_08,object_05,412.69999998808,2,2,47.399999976158,0.4444444444444444,2,object_01,5,1463,0,4,4,desert_4,2,memory-2step-stake-s,565,1801950,0.0-19.0-0.0-0.77,AVCOBHDVXZOZL,3SA4EMRVKYI00KKCICLEW0FTGRS0PA,3KJYX6QCMDRNTTGOGY9L9HFUV0YJVH,1,2
78,4,object_07,object_03,256.69999998808,7,1,402.5,0.4444444444444444,1,object_10,1,1467,0,4,2,restaurant_7,2,memory-2step-stake-s,566,1809997,0.0-19.0-0.0-0.78,AVCOBHDVXZOZL,3SA4EMRVKYI00KKCICLEW0FTGRS0PA,3KJYX6QCMDRNTTGOGY9L9HFUV0YJVH,7,8
79,4,object_07,object_03,310.59999996424,8,2,256.69999998808,0.0,2,object_01,1,1467,0,5,0,restaurant_4,2,memory-2step-stake-s,567,1817467,0.0-19.0-0.0-0.79,AVCOBHDVXZOZL,3SA4EMRVKYI00KKCICLEW0FTGRS0PA,3KJYX6QCMDRNTTGOGY9L9HFUV0YJVH,7,8
80,3,object_02,object_04,613.69999998808,5,1,499.40000003576,0.3333333333333333,1,object_10,1,1470,0,3,2,library_4,2,memory-2step-stake-s,568,1825500,0.0-19.0-0.0-0.80,AVCOBHDVXZOZL,3SA4EMRVKYI00KKCICLEW0FTGRS0PA,3KJYX6QCMDRNTTGOGY9L9HFUV0YJVH,5,6
81,1,object_08,object_05,1111.6000000238,1,1,536.90000003576,0.4444444444444444,1,object_10,5,1490,0,4,4,desert_5,2,memory-2step-stake-s,569,1833668,0.0-19.0-0.0-0.81,AVCOBHDVXZOZL,3SA4EMRVKYI00KKCICLEW0FTGRS0PA,3KJYX6QCMDRNTTGOGY9L9HFUV0YJVH,1,2
82,4,object_07,object_03,996.10000002384,8,2,355.10000002384,0.3333333333333333,2,object_01,5,1505,0,1,3,restaurant_4,2,memory-2step-stake-s,570,1841559,0.0-19.0-0.0-0.82,AVCOBHDVXZOZL,3SA4EMRVKYI00KKCICLEW0FTGRS0PA,3KJYX6QCMDRNTTGOGY9L9HFUV0YJVH,7,8
83,1,object_05,object_08,365.79999995232,2,1,319.29999995232,0.3333333333333333,2,object_01,5,1520,0,2,3,desert_4,2,memory-2step-stake-s,571,1849435,0.0-19.0-0.0-0.83,AVCOBHDVXZOZL,3SA4EMRVKYI00KKCICLEW0FTGRS0PA,3KJYX6QCMDRNTTGOGY9L9HFUV0YJVH,2,1
84,1,object_05,object_08,562.30000001192,2,1,450.80000001192,0.4444444444444444,2,object_01,5,1540,0,1,4,desert_4,2,memory-2step-stake-s,572,1857518,0.0-19.0-0.0-0.84,AVCOBHDVXZOZL,3SA4EMRVKYI00KKCICLEW0FTGRS0PA,3KJYX6QCMDRNTTGOGY9L9HFUV0YJVH,2,1
85,2,object_09,object_06,669.19999998808,4,2,278.29999995232,0.5555555555555556,2,object_01,5,1565,0,1,5,forest_3,2,memory-2step-stake-s,573,1865539,0.0-19.0-0.0-0.85,AVCOBHDVXZOZL,3SA4EMRVKYI00KKCICLEW0FTGRS0PA,3KJYX6QCMDRNTTGOGY9L9HFUV0YJVH,3,4
86,4,object_07,object_03,358.29999995232,7,1,279.69999998808,0.4444444444444444,1,object_10,1,1569,0,4,3,restaurant_7,2,memory-2step-stake-s,574,1873488,0.0-19.0-0.0-0.86,AVCOBHDVXZOZL,3SA4EMRVKYI00KKCICLEW0FTGRS0PA,3KJYX6QCMDRNTTGOGY9L9HFUV0YJVH,7,8
87,1,object_08,object_05,748.89999997616,1,1,238.10000002384,0.5555555555555556,1,object_10,5,1594,0,5,5,desert_4,2,memory-2step-stake-s,575,1881485,0.0-19.0-0.0-0.87,AVCOBHDVXZOZL,3SA4EMRVKYI00KKCICLEW0FTGRS0PA,3KJYX6QCMDRNTTGOGY9L9HFUV0YJVH,1,2
88,1,object_05,object_08,711.69999998808,2,1,329.39999997616,0.7777777777777778,2,object_01,5,1629,0,6,7,desert_5,2,memory-2step-stake-s,576,1889739,0.0-19.0-0.0-0.88,AVCOBHDVXZOZL,3SA4EMRVKYI00KKCICLEW0FTGRS0PA,3KJYX6QCMDRNTTGOGY9L9HFUV0YJVH,2,1
89,4,object_07,object_03,1118.6000000238,8,2,343.0,0.7777777777777778,2,object_01,1,1636,0,6,7,restaurant_7,2,memory-2step-stake-s,577,1898016,0.0-19.0-0.0-0.89,AVCOBHDVXZOZL,3SA4EMRVKYI00KKCICLEW0FTGRS0PA,3KJYX6QCMDRNTTGOGY9L9HFUV0YJVH,7,8
90,1,object_05,object_08,588.89999997616,2,1,182.79999995232,0.5555555555555556,2,object_01,5,1661,0,6,5,desert_4,2,memory-2step-stake-s,578,1905920,0.0-19.0-0.0-0.90,AVCOBHDVXZOZL,3SA4EMRVKYI00KKCICLEW0FTGRS0PA,3KJYX6QCMDRNTTGOGY9L9HFUV0YJVH,2,1
91,1,object_08,object_05,717.79999995232,1,1,234.30000001192,0.5555555555555556,1,object_10,5,1686,0,5,3,desert_3,2,memory-2step-stake-s,579,1913897,0.0-19.0-0.0-0.91,AVCOBHDVXZOZL,3SA4EMRVKYI00KKCICLEW0FTGRS0PA,3KJYX6QCMDRNTTGOGY9L9HFUV0YJVH,1,2
92,1,object_08,object_05,496.40000003576,2,2,268.09999996424,0.3333333333333333,2,object_01,5,1701,0,5,3,desert_1,2,memory-2step-stake-s,580,1921687,0.0-19.0-0.0-0.92,AVCOBHDVXZOZL,3SA4EMRVKYI00KKCICLEW0FTGRS0PA,3KJYX6QCMDRNTTGOGY9L9HFUV0YJVH,1,2
93,4,object_03,object_07,993.80000001192,7,2,455.19999998808,0.4444444444444444,1,object_10,1,1705,0,4,3,restaurant_2,2,memory-2step-stake-s,581,1929779,0.0-19.0-0.0-0.93,AVCOBHDVXZOZL,3SA4EMRVKYI00KKCICLEW0FTGRS0PA,3KJYX6QCMDRNTTGOGY9L9HFUV0YJVH,8,7
94,3,object_04,object_02,817.0,6,1,378.5,0.1111111111111111,2,object_01,5,1710,0,3,1,library_4,2,memory-2step-stake-s,582,1937518,0.0-19.0-0.0-0.94,AVCOBHDVXZOZL,3SA4EMRVKYI00KKCICLEW0FTGRS0PA,3KJYX6QCMDRNTTGOGY9L9HFUV0YJVH,6,5
95,4,object_03,object_07,1181.9000000358,7,2,1007.7000000477,0.6666666666666666,1,object_10,1,1716,0,6,1,restaurant_2,2,memory-2step-stake-s,583,1946360,0.0-19.0-0.0-0.95,AVCOBHDVXZOZL,3SA4EMRVKYI00KKCICLEW0FTGRS0PA,3KJYX6QCMDRNTTGOGY9L9HFUV0YJVH,8,7
96,2,object_06,object_09,465.60000002384,4,1,374.69999998808,0.2222222222222222,2,object_01,1,1718,0,6,2,forest_2,2,memory-2step-stake-s,584,1954162,0.0-19.0-0.0-0.96,AVCOBHDVXZOZL,3SA4EMRVKYI00KKCICLEW0FTGRS0PA,3KJYX6QCMDRNTTGOGY9L9HFUV0YJVH,4,3
97,4,object_03,object_07,1322.3999999762,8,1,324.60000002384,0.3333333333333333,2,object_01,1,1721,0,5,3,restaurant_1,2,memory-2step-stake-s,585,1962008,0.0-19.0-0.0-0.97,AVCOBHDVXZOZL,3SA4EMRVKYI00KKCICLEW0FTGRS0PA,3KJYX6QCMDRNTTGOGY9L9HFUV0YJVH,8,7
98,2,object_09,object_06,-1.0,-1,-1,-1.0,0.0,-,0,1,1721,0,4,0,forest_4,2,memory-2step-stake-s,586,1968516,0.0-19.0-0.0-0.98,AVCOBHDVXZOZL,3SA4EMRVKYI00KKCICLEW0FTGRS0PA,3KJYX6QCMDRNTTGOGY9L9HFUV0YJVH,3,4
99,2,object_06,object_09,331.5,4,1,452.39999997616,0.4444444444444444,2,object_01,1,1725,0,1,4,forest_4,2,memory-2step-stake-s,587,1976609,0.0-19.0-0.0-0.99,AVCOBHDVXZOZL,3SA4EMRVKYI00KKCICLEW0FTGRS0PA,3KJYX6QCMDRNTTGOGY9L9HFUV0YJVH,4,3
100,4,object_07,object_03,266.59999996424,8,2,331.10000002384,0.0,2,object_01,1,1725,0,3,0,restaurant_1,2,memory-2step-stake-s,588,1984173,0.0-19.0-0.0-0.100,AVCOBHDVXZOZL,3SA4EMRVKYI00KKCICLEW0FTGRS0PA,3KJYX6QCMDRNTTGOGY9L9HFUV0YJVH,7,8
101,2,object_09,object_06,779.60000002384,3,1,323.5,0.5555555555555556,1,object_10,5,1750,0,5,0,forest_2,2,memory-2step-stake-s,589,1992226,0.0-19.0-0.0-0.101,AVCOBHDVXZOZL,3SA4EMRVKYI00KKCICLEW0FTGRS0PA,3KJYX6QCMDRNTTGOGY9L9HFUV0YJVH,3,4
102,3,object_04,object_02,566.89999997616,5,2,502.5,1.0,1,object_10,1,1759,0,9,4,library_6,2,memory-2step-stake-s,590,2000873,0.0-19.0-0.0-0.102,AVCOBHDVXZOZL,3SA4EMRVKYI00KKCICLEW0FTGRS0PA,3KJYX6QCMDRNTTGOGY9L9HFUV0YJVH,6,5
103,4,object_07,object_03,752.30000001192,7,1,471.69999998808,0.8888888888888888,1,object_10,1,1767,0,8,6,restaurant_7,2,memory-2step-stake-s,591,2009386,0.0-19.0-0.0-0.103,AVCOBHDVXZOZL,3SA4EMRVKYI00KKCICLEW0FTGRS0PA,3KJYX6QCMDRNTTGOGY9L9HFUV0YJVH,7,8
104,4,object_03,object_07,119.19999998808,7,2,331.19999998808,0.7777777777777778,1,object_10,1,1774,0,7,7,restaurant_4,2,memory-2step-stake-s,592,2017657,0.0-19.0-0.0-0.104,AVCOBHDVXZOZL,3SA4EMRVKYI00KKCICLEW0FTGRS0PA,3KJYX6QCMDRNTTGOGY9L9HFUV0YJVH,8,7
105,4,object_03,object_07,328.5,8,1,289.5,0.3333333333333333,2,object_01,1,1777,0,7,3,restaurant_1,2,memory-2step-stake-s,593,2025482,0.0-19.0-0.0-0.105,AVCOBHDVXZOZL,3SA4EMRVKYI00KKCICLEW0FTGRS0PA,3KJYX6QCMDRNTTGOGY9L9HFUV0YJVH,8,7
106,2,object_06,object_09,1110.9000000358,3,2,468.5,0.7777777777777778,1,object_10,5,1812,0,7,1,forest_3,2,memory-2step-stake-s,594,2033890,0.0-19.0-0.0-0.106,AVCOBHDVXZOZL,3SA4EMRVKYI00KKCICLEW0FTGRS0PA,3KJYX6QCMDRNTTGOGY9L9HFUV0YJVH,4,3
107,2,object_06,object_09,958.09999996424,3,2,286.10000002384,0.6666666666666666,1,object_10,5,1842,0,6,1,forest_2,2,memory-2step-stake-s,595,2042024,0.0-19.0-0.0-0.107,AVCOBHDVXZOZL,3SA4EMRVKYI00KKCICLEW0FTGRS0PA,3KJYX6QCMDRNTTGOGY9L9HFUV0YJVH,4,3
108,2,object_06,object_09,727.80000001192,3,2,282.29999995232,0.3333333333333333,1,object_10,5,1857,0,3,2,forest_2,2,memory-2step-stake-s,596,2049829,0.0-19.0-0.0-0.108,AVCOBHDVXZOZL,3SA4EMRVKYI00KKCICLEW0FTGRS0PA,3KJYX6QCMDRNTTGOGY9L9HFUV0YJVH,4,3
109,1,object_05,object_08,703.90000003576,2,1,319.10000002384,0.2222222222222222,2,object_01,5,1867,0,1,2,desert_1,2,memory-2step-stake-s,597,2057578,0.0-19.0-0.0-0.109,AVCOBHDVXZOZL,3SA4EMRVKYI00KKCICLEW0FTGRS0PA,3KJYX6QCMDRNTTGOGY9L9HFUV0YJVH,2,1
110,4,object_07,object_03,662.10000002384,7,1,326.0,0.1111111111111111,1,object_10,1,1868,0,1,0,restaurant_4,2,memory-2step-stake-s,598,2065249,0.0-19.0-0.0-0.110,AVCOBHDVXZOZL,3SA4EMRVKYI00KKCICLEW0FTGRS0PA,3KJYX6QCMDRNTTGOGY9L9HFUV0YJVH,7,8
111,2,object_06,object_09,312.20000004768,3,2,354.80000001192,0.1111111111111111,1,object_10,1,1869,0,1,2,forest_4,2,memory-2step-stake-s,599,2072923,0.0-19.0-0.0-0.111,AVCOBHDVXZOZL,3SA4EMRVKYI00KKCICLEW0FTGRS0PA,3KJYX6QCMDRNTTGOGY9L9HFUV0YJVH,4,3
112,4,object_07,object_03,357.39999997616,7,1,319.19999998808,0.1111111111111111,1,object_10,1,1870,0,1,1,restaurant_1,2,memory-2step-stake-s,600,2080564,0.0-19.0-0.0-0.112,AVCOBHDVXZOZL,3SA4EMRVKYI00KKCICLEW0FTGRS0PA,3KJYX6QCMDRNTTGOGY9L9HFUV0YJVH,7,8
113,2,object_09,object_06,790.0,4,2,285.40000003576,0.1111111111111111,2,object_01,5,1875,0,2,1,forest_2,2,memory-2step-stake-s,601,2088191,0.0-19.0-0.0-0.113,AVCOBHDVXZOZL,3SA4EMRVKYI00KKCICLEW0FTGRS0PA,3KJYX6QCMDRNTTGOGY9L9HFUV0YJVH,3,4
114,2,object_06,object_09,554.69999998808,4,1,286.20000004768,0.3333333333333333,2,object_01,5,1890,0,1,3,forest_3,2,memory-2step-stake-s,602,2096003,0.0-19.0-0.0-0.114,AVCOBHDVXZOZL,3SA4EMRVKYI00KKCICLEW0FTGRS0PA,3KJYX6QCMDRNTTGOGY9L9HFUV0YJVH,4,3
115,1,object_05,object_08,734.69999998808,2,1,252.30000001192,0.5555555555555556,2,object_01,5,1915,0,1,5,desert_3,2,memory-2step-stake-s,603,2103988,0.0-19.0-0.0-0.115,AVCOBHDVXZOZL,3SA4EMRVKYI00KKCICLEW0FTGRS0PA,3KJYX6QCMDRNTTGOGY9L9HFUV0YJVH,2,1
116,3,object_02,object_04,1035.4000000358,5,1,406.0,0.1111111111111111,1,object_10,1,1916,0,1,6,library_4,2,memory-2step-stake-s,604,2111753,0.0-19.0-0.0-0.116,AVCOBHDVXZOZL,3SA4EMRVKYI00KKCICLEW0FTGRS0PA,3KJYX6QCMDRNTTGOGY9L9HFUV0YJVH,5,6
117,2,object_09,object_06,674.39999997616,4,2,305.60000002384,1.0,2,object_01,5,1961,0,1,9,forest_7,2,memory-2step-stake-s,605,2120208,0.0-19.0-0.0-0.117,AVCOBHDVXZOZL,3SA4EMRVKYI00KKCICLEW0FTGRS0PA,3KJYX6QCMDRNTTGOGY9L9HFUV0YJVH,3,4
118,4,object_03,object_07,995.0,7,2,29.199999988079,0.1111111111111111,1,object_10,1,1962,0,1,8,restaurant_2,2,memory-2step-stake-s,606,2127557,0.0-19.0-0.0-0.118,AVCOBHDVXZOZL,3SA4EMRVKYI00KKCICLEW0FTGRS0PA,3KJYX6QCMDRNTTGOGY9L9HFUV0YJVH,8,7
119,2,object_09,object_06,906.0,4,2,269.60000002384,1.0,2,object_01,5,2007,0,1,9,forest_2,2,memory-2step-stake-s,607,2135969,0.0-19.0-0.0-0.119,AVCOBHDVXZOZL,3SA4EMRVKYI00KKCICLEW0FTGRS0PA,3KJYX6QCMDRNTTGOGY9L9HFUV0YJVH,3,4
120,4,object_03,object_07,1023.8999999762,7,2,298.89999997616,0.2222222222222222,1,object_10,1,2009,0,2,5,restaurant_4,2,memory-2step-stake-s,608,2143712,0.0-19.0-0.0-0.120,AVCOBHDVXZOZL,3SA4EMRVKYI00KKCICLEW0FTGRS0PA,3KJYX6QCMDRNTTGOGY9L9HFUV0YJVH,8,7
121,4,object_07,object_03,674.80000001192,7,1,337.60000002384,0.7777777777777778,1,object_10,1,2016,0,7,3,restaurant_2,2,memory-2step-stake-s,609,2151986,0.0-19.0-0.0-0.121,AVCOBHDVXZOZL,3SA4EMRVKYI00KKCICLEW0FTGRS0PA,3KJYX6QCMDRNTTGOGY9L9HFUV0YJVH,7,8
122,4,object_07,object_03,664.80000001192,7,1,295.10000002384,0.6666666666666666,1,object_10,1,2022,0,6,3,restaurant_4,2,memory-2step-stake-s,610,2160121,0.0-19.0-0.0-0.122,AVCOBHDVXZOZL,3SA4EMRVKYI00KKCICLEW0FTGRS0PA,3KJYX6QCMDRNTTGOGY9L9HFUV0YJVH,7,8
123,1,object_08,object_05,921.39999997616,1,1,284.39999997616,0.5555555555555556,1,object_10,5,2047,0,5,4,desert_3,2,memory-2step-stake-s,611,2168135,0.0-19.0-0.0-0.123,AVCOBHDVXZOZL,3SA4EMRVKYI00KKCICLEW0FTGRS0PA,3KJYX6QCMDRNTTGOGY9L9HFUV0YJVH,1,2
124,3,object_02,object_04,1081.5999999642,5,1,367.89999997616,0.5555555555555556,1,object_10,1,2052,0,5,7,library_2,2,memory-2step-stake-s,612,2176242,0.0-19.0-0.0-0.124,AVCOBHDVXZOZL,3SA4EMRVKYI00KKCICLEW0FTGRS0PA,3KJYX6QCMDRNTTGOGY9L9HFUV0YJVH,5,6
125,1,object_08,object_05,760.39999997616,2,2,326.89999997616,1.0,2,object_01,5,2097,0,5,9,desert_5,2,memory-2step-stake-s,613,2184716,0.0-19.0-0.0-0.125,AVCOBHDVXZOZL,3SA4EMRVKYI00KKCICLEW0FTGRS0PA,3KJYX6QCMDRNTTGOGY9L9HFUV0YJVH,1,2
126,4,object_03,object_07,888.19999998808,7,2,282.69999998808,0.6666666666666666,1,object_10,1,2103,0,6,8,restaurant_7,2,memory-2step-stake-s,614,2192860,0.0-19.0-0.0-0.126,AVCOBHDVXZOZL,3SA4EMRVKYI00KKCICLEW0FTGRS0PA,3KJYX6QCMDRNTTGOGY9L9HFUV0YJVH,8,7
127,4,object_07,object_03,965.39999997616,8,2,269.89999997616,0.8888888888888888,2,object_01,5,2143,0,3,8,restaurant_7,2,memory-2step-stake-s,615,2201170,0.0-19.0-0.0-0.127,AVCOBHDVXZOZL,3SA4EMRVKYI00KKCICLEW0FTGRS0PA,3KJYX6QCMDRNTTGOGY9L9HFUV0YJVH,7,8
128,1,object_08,object_05,1159.8999999762,2,2,1051.6999999881,0.3333333333333333,2,object_01,5,2158,0,1,3,desert_5,2,memory-2step-stake-s,617,2381434,0.0-19.0-0.1-0.128,AVCOBHDVXZOZL,3SA4EMRVKYI00KKCICLEW0FTGRS0PA,3KJYX6QCMDRNTTGOGY9L9HFUV0YJVH,1,2
129,1,object_05,object_08,335.60000002384,2,1,345.80000001192,0.4444444444444444,2,object_01,5,2178,0,1,4,desert_4,2,memory-2step-stake-s,618,2389417,0.0-19.0-0.1-0.129,AVCOBHDVXZOZL,3SA4EMRVKYI00KKCICLEW0FTGRS0PA,3KJYX6QCMDRNTTGOGY9L9HFUV0YJVH,2,1
130,3,object_04,object_02,560.90000003576,6,1,-1.0,0.0,2,object_01,5,2178,0,2,3,library_6,2,memory-2step-stake-s,619,2397945,0.0-19.0-0.1-0.130,AVCOBHDVXZOZL,3SA4EMRVKYI00KKCICLEW0FTGRS0PA,3KJYX6QCMDRNTTGOGY9L9HFUV0YJVH,6,5
131,1,object_08,object_05,364.89999997616,2,2,357.80000001192,0.3333333333333333,2,object_01,5,2193,0,5,3,desert_1,2,memory-2step-stake-s,620,2405829,0.0-19.0-0.1-0.131,AVCOBHDVXZOZL,3SA4EMRVKYI00KKCICLEW0FTGRS0PA,3KJYX6QCMDRNTTGOGY9L9HFUV0YJVH,1,2
132,2,object_06,object_09,1030.3999999762,3,2,437.60000002384,0.6666666666666666,1,object_10,5,2223,0,6,3,forest_4,2,memory-2step-stake-s,621,2414090,0.0-19.0-0.1-0.132,AVCOBHDVXZOZL,3SA4EMRVKYI00KKCICLEW0FTGRS0PA,3KJYX6QCMDRNTTGOGY9L9HFUV0YJVH,4,3
133,1,object_08,object_05,1004.6000000238,2,2,303.5,0.1111111111111111,2,object_01,5,2228,0,7,1,desert_4,2,memory-2step-stake-s,622,2421712,0.0-19.0-0.1-0.133,AVCOBHDVXZOZL,3SA4EMRVKYI00KKCICLEW0FTGRS0PA,3KJYX6QCMDRNTTGOGY9L9HFUV0YJVH,1,2
134,3,object_04,object_02,1040.6999999881,5,2,624.39999997616,0.8888888888888888,1,object_10,5,2268,0,8,2,library_6,2,memory-2step-stake-s,623,2430383,0.0-19.0-0.1-0.134,AVCOBHDVXZOZL,3SA4EMRVKYI00KKCICLEW0FTGRS0PA,3KJYX6QCMDRNTTGOGY9L9HFUV0YJVH,6,5
135,2,object_06,object_09,586.5,3,2,255.10000002384,0.8888888888888888,1,object_10,5,2308,0,8,3,forest_7,2,memory-2step-stake-s,624,2438673,0.0-19.0-0.1-0.135,AVCOBHDVXZOZL,3SA4EMRVKYI00KKCICLEW0FTGRS0PA,3KJYX6QCMDRNTTGOGY9L9HFUV0YJVH,4,3
136,3,object_04,object_02,764.5,6,1,267.29999995232,0.1111111111111111,2,object_01,1,2309,0,8,1,library_6,2,memory-2step-stake-s,625,2446264,0.0-19.0-0.1-0.136,AVCOBHDVXZOZL,3SA4EMRVKYI00KKCICLEW0FTGRS0PA,3KJYX6QCMDRNTTGOGY9L9HFUV0YJVH,6,5
137,4,object_07,object_03,1474.9000000358,7,1,501.5,0.8888888888888888,1,object_10,1,2317,0,8,1,restaurant_1,2,memory-2step-stake-s,626,2454838,0.0-19.0-0.1-0.137,AVCOBHDVXZOZL,3SA4EMRVKYI00KKCICLEW0FTGRS0PA,3KJYX6QCMDRNTTGOGY9L9HFUV0YJVH,7,8
138,4,object_07,object_03,848.30000001192,7,1,413.19999998808,0.8888888888888888,1,object_10,5,2357,0,8,4,restaurant_2,2,memory-2step-stake-s,627,2463279,0.0-19.0-0.1-0.138,AVCOBHDVXZOZL,3SA4EMRVKYI00KKCICLEW0FTGRS0PA,3KJYX6QCMDRNTTGOGY9L9HFUV0YJVH,7,8
139,3,object_04,object_02,-1.0,-1,-1,-1.0,0.0,-,0,1,2357,0,7,5,library_8,2,memory-2step-stake-s,628,2469806,0.0-19.0-0.1-0.139,AVCOBHDVXZOZL,3SA4EMRVKYI00KKCICLEW0FTGRS0PA,3KJYX6QCMDRNTTGOGY9L9HFUV0YJVH,6,5
140,2,object_09,object_06,1050.8000000119,3,1,325.19999998808,0.6666666666666666,1,object_10,5,2387,0,6,8,forest_3,2,memory-2step-stake-s,629,2477962,0.0-19.0-0.1-0.140,AVCOBHDVXZOZL,3SA4EMRVKYI00KKCICLEW0FTGRS0PA,3KJYX6QCMDRNTTGOGY9L9HFUV0YJVH,3,4
141,3,object_04,object_02,768.60000002384,6,1,280.30000001192,1.0,2,object_01,1,2396,0,7,9,library_2,2,memory-2step-stake-s,630,2486388,0.0-19.0-0.1-0.141,AVCOBHDVXZOZL,3SA4EMRVKYI00KKCICLEW0FTGRS0PA,3KJYX6QCMDRNTTGOGY9L9HFUV0YJVH,6,5
142,4,object_07,object_03,854.0,7,1,291.5,0.5555555555555556,1,object_10,1,2401,0,5,7,restaurant_7,2,memory-2step-stake-s,631,2494408,0.0-19.0-0.1-0.142,AVCOBHDVXZOZL,3SA4EMRVKYI00KKCICLEW0FTGRS0PA,3KJYX6QCMDRNTTGOGY9L9HFUV0YJVH,7,8
143,3,object_02,object_04,983.40000003576,5,1,192.59999996424,0.6666666666666666,1,object_10,1,2407,0,6,8,library_4,2,memory-2step-stake-s,632,2502440,0.0-19.0-0.1-0.143,AVCOBHDVXZOZL,3SA4EMRVKYI00KKCICLEW0FTGRS0PA,3KJYX6QCMDRNTTGOGY9L9HFUV0YJVH,5,6
144,2,object_09,object_06,776.89999997616,3,1,210.39999997616,0.7777777777777778,1,object_10,1,2414,0,7,8,forest_2,2,memory-2step-stake-s,633,2510594,0.0-19.0-0.1-0.144,AVCOBHDVXZOZL,3SA4EMRVKYI00KKCICLEW0FTGRS0PA,3KJYX6QCMDRNTTGOGY9L9HFUV0YJVH,3,4
145,3,object_04,object_02,1052.8999999762,6,1,275.39999997616,0.6666666666666666,2,object_01,5,2444,0,8,6,library_6,2,memory-2step-stake-s,634,2518704,0.0-19.0-0.1-0.145,AVCOBHDVXZOZL,3SA4EMRVKYI00KKCICLEW0FTGRS0PA,3KJYX6QCMDRNTTGOGY9L9HFUV0YJVH,6,5
146,3,object_02,object_04,895.30000001192,5,1,191.89999997616,0.6666666666666666,1,object_10,1,2450,0,6,6,library_6,2,memory-2step-stake-s,635,2526724,0.0-19.0-0.1-0.146,AVCOBHDVXZOZL,3SA4EMRVKYI00KKCICLEW0FTGRS0PA,3KJYX6QCMDRNTTGOGY9L9HFUV0YJVH,5,6
147,2,object_09,object_06,1082.2000000477,3,1,277.40000003576,0.8888888888888888,1,object_10,5,2490,0,8,4,forest_2,2,memory-2step-stake-s,636,2535054,0.0-19.0-0.1-0.147,AVCOBHDVXZOZL,3SA4EMRVKYI00KKCICLEW0FTGRS0PA,3KJYX6QCMDRNTTGOGY9L9HFUV0YJVH,3,4
148,2,object_09,object_06,794.39999997616,3,1,297.69999998808,0.8888888888888888,1,object_10,5,2530,0,8,2,forest_2,2,memory-2step-stake-s,637,2543386,0.0-19.0-0.1-0.148,AVCOBHDVXZOZL,3SA4EMRVKYI00KKCICLEW0FTGRS0PA,3KJYX6QCMDRNTTGOGY9L9HFUV0YJVH,3,4
149,4,object_07,object_03,835.90000003576,8,2,263.09999996424,0.3333333333333333,2,object_01,1,2533,0,9,3,restaurant_1,2,memory-2step-stake-s,638,2551219,0.0-19.0-0.1-0.149,AVCOBHDVXZOZL,3SA4EMRVKYI00KKCICLEW0FTGRS0PA,3KJYX6QCMDRNTTGOGY9L9HFUV0YJVH,7,8
150,3,object_02,object_04,1066.8999999762,6,2,451.30000001192,0.1111111111111111,2,object_01,1,2534,0,8,1,library_8,2,memory-2step-stake-s,639,2558991,0.0-19.0-0.1-0.150,AVCOBHDVXZOZL,3SA4EMRVKYI00KKCICLEW0FTGRS0PA,3KJYX6QCMDRNTTGOGY9L9HFUV0YJVH,5,6
151,2,object_09,object_06,714.80000001192,3,1,262.40000003576,0.8888888888888888,1,object_10,5,2574,0,8,2,forest_4,2,memory-2step-stake-s,640,2567283,0.0-19.0-0.1-0.151,AVCOBHDVXZOZL,3SA4EMRVKYI00KKCICLEW0FTGRS0PA,3KJYX6QCMDRNTTGOGY9L9HFUV0YJVH,3,4
152,3,object_02,object_04,681.69999998808,6,2,252.80000001192,0.1111111111111111,2,object_01,1,2575,0,8,1,library_8,2,memory-2step-stake-s,641,2574857,0.0-19.0-0.1-0.152,AVCOBHDVXZOZL,3SA4EMRVKYI00KKCICLEW0FTGRS0PA,3KJYX6QCMDRNTTGOGY9L9HFUV0YJVH,5,6
153,4,object_07,object_03,1038.3999999762,8,2,392.80000001192,0.3333333333333333,2,object_01,1,2578,0,9,3,restaurant_7,2,memory-2step-stake-s,642,2582772,0.0-19.0-0.1-0.153,AVCOBHDVXZOZL,3SA4EMRVKYI00KKCICLEW0FTGRS0PA,3KJYX6QCMDRNTTGOGY9L9HFUV0YJVH,7,8
154,2,object_06,object_09,1195.2999999523,3,2,330.30000001192,0.8888888888888888,1,object_10,5,2618,0,8,5,forest_3,2,memory-2step-stake-s,643,2591147,0.0-19.0-0.1-0.154,AVCOBHDVXZOZL,3SA4EMRVKYI00KKCICLEW0FTGRS0PA,3KJYX6QCMDRNTTGOGY9L9HFUV0YJVH,4,3
155,3,object_02,object_04,950.0,5,1,364.80000001192,0.7777777777777778,1,object_10,5,2653,0,7,4,library_4,2,memory-2step-stake-s,644,2599442,0.0-19.0-0.1-0.155,AVCOBHDVXZOZL,3SA4EMRVKYI00KKCICLEW0FTGRS0PA,3KJYX6QCMDRNTTGOGY9L9HFUV0YJVH,5,6
156,3,object_04,object_02,844.29999995232,5,2,411.0,1.0,1,object_10,1,2662,0,9,5,library_4,2,memory-2step-stake-s,645,2608001,0.0-19.0-0.1-0.156,AVCOBHDVXZOZL,3SA4EMRVKYI00KKCICLEW0FTGRS0PA,3KJYX6QCMDRNTTGOGY9L9HFUV0YJVH,6,5
157,2,object_06,object_09,1069.3999999762,3,2,464.30000001192,0.8888888888888888,1,object_10,5,2702,0,8,5,forest_7,2,memory-2step-stake-s,646,2616523,0.0-19.0-0.1-0.157,AVCOBHDVXZOZL,3SA4EMRVKYI00KKCICLEW0FTGRS0PA,3KJYX6QCMDRNTTGOGY9L9HFUV0YJVH,4,3
158,3,object_02,object_04,984.89999997616,6,2,324.5,0.7777777777777778,2,object_01,1,2709,0,8,7,library_4,2,memory-2step-stake-s,647,2624787,0.0-19.0-0.1-0.158,AVCOBHDVXZOZL,3SA4EMRVKYI00KKCICLEW0FTGRS0PA,3KJYX6QCMDRNTTGOGY9L9HFUV0YJVH,5,6
159,2,object_06,object_09,710.40000003576,3,2,296.79999995232,1.0,1,object_10,5,2754,0,9,7,forest_2,2,memory-2step-stake-s,648,2633241,0.0-19.0-0.1-0.159,AVCOBHDVXZOZL,3SA4EMRVKYI00KKCICLEW0FTGRS0PA,3KJYX6QCMDRNTTGOGY9L9HFUV0YJVH,4,3
160,1,object_08,object_05,821.30000001192,1,1,278.5,0.6666666666666666,1,object_10,5,2784,0,6,5,desert_3,2,memory-2step-stake-s,649,2641344,0.0-19.0-0.1-0.160,AVCOBHDVXZOZL,3SA4EMRVKYI00KKCICLEW0FTGRS0PA,3KJYX6QCMDRNTTGOGY9L9HFUV0YJVH,1,2
161,1,object_05,object_08,629.40000003576,2,1,284.19999998808,0.6666666666666666,2,object_01,5,2814,0,5,6,desert_3,2,memory-2step-stake-s,650,2649466,0.0-19.0-0.1-0.161,AVCOBHDVXZOZL,3SA4EMRVKYI00KKCICLEW0FTGRS0PA,3KJYX6QCMDRNTTGOGY9L9HFUV0YJVH,2,1
162,2,object_09,object_06,823.30000001192,3,1,285.09999996424,0.3333333333333333,1,object_10,5,2829,0,3,5,forest_7,2,memory-2step-stake-s,651,2657274,0.0-19.0-0.1-0.162,AVCOBHDVXZOZL,3SA4EMRVKYI00KKCICLEW0FTGRS0PA,3KJYX6QCMDRNTTGOGY9L9HFUV0YJVH,3,4
163,1,object_05,object_08,1116.5999999642,1,2,269.0,0.3333333333333333,1,object_10,5,2844,0,3,6,desert_3,2,memory-2step-stake-s,652,2665068,0.0-19.0-0.1-0.163,AVCOBHDVXZOZL,3SA4EMRVKYI00KKCICLEW0FTGRS0PA,3KJYX6QCMDRNTTGOGY9L9HFUV0YJVH,2,1
164,1,object_05,object_08,624.60000002384,2,1,334.69999998808,0.5555555555555556,2,object_01,5,2869,0,4,5,desert_4,2,memory-2step-stake-s,653,2673146,0.0-19.0-0.1-0.164,AVCOBHDVXZOZL,3SA4EMRVKYI00KKCICLEW0FTGRS0PA,3KJYX6QCMDRNTTGOGY9L9HFUV0YJVH,2,1
165,1,object_08,object_05,523.0,2,2,378.30000001192,0.0,2,object_01,5,2869,0,5,0,desert_3,2,memory-2step-stake-s,654,2680746,0.0-19.0-0.1-0.165,AVCOBHDVXZOZL,3SA4EMRVKYI00KKCICLEW0FTGRS0PA,3KJYX6QCMDRNTTGOGY9L9HFUV0YJVH,1,2
166,1,object_05,object_08,818.39999997616,1,2,360.10000002384,0.4444444444444444,1,object_10,5,2889,0,4,0,desert_3,2,memory-2step-stake-s,655,2688747,0.0-19.0-0.1-0.166,AVCOBHDVXZOZL,3SA4EMRVKYI00KKCICLEW0FTGRS0PA,3KJYX6QCMDRNTTGOGY9L9HFUV0YJVH,2,1
167,4,object_03,object_07,978.39999997616,7,2,369.5,0.5555555555555556,1,object_10,1,2894,0,5,2,restaurant_1,2,memory-2step-stake-s,656,2696871,0.0-19.0-0.1-0.167,AVCOBHDVXZOZL,3SA4EMRVKYI00KKCICLEW0FTGRS0PA,3KJYX6QCMDRNTTGOGY9L9HFUV0YJVH,8,7
168,4,object_07,object_03,405.20000004768,7,1,357.80000001192,0.3333333333333333,1,object_10,1,2897,0,3,3,restaurant_4,2,memory-2step-stake-s,657,2704768,0.0-19.0-0.1-0.168,AVCOBHDVXZOZL,3SA4EMRVKYI00KKCICLEW0FTGRS0PA,3KJYX6QCMDRNTTGOGY9L9HFUV0YJVH,7,8
169,1,object_05,object_08,862.69999998808,2,1,297.80000001192,0.3333333333333333,2,object_01,5,2912,0,4,3,desert_1,2,memory-2step-stake-s,658,2712641,0.0-19.0-0.1-0.169,AVCOBHDVXZOZL,3SA4EMRVKYI00KKCICLEW0FTGRS0PA,3KJYX6QCMDRNTTGOGY9L9HFUV0YJVH,2,1
170,2,object_06,object_09,429.60000002384,3,2,339.80000001192,0.5555555555555556,1,object_10,5,2937,0,5,2,forest_7,2,memory-2step-stake-s,659,2720719,0.0-19.0-0.1-0.170,AVCOBHDVXZOZL,3SA4EMRVKYI00KKCICLEW0FTGRS0PA,3KJYX6QCMDRNTTGOGY9L9HFUV0YJVH,4,3
171,1,object_08,object_05,376.5,2,2,43.5,0.5555555555555556,2,object_01,5,2962,0,9,5,desert_3,2,memory-2step-stake-s,660,2728498,0.0-19.0-0.1-0.171,AVCOBHDVXZOZL,3SA4EMRVKYI00KKCICLEW0FTGRS0PA,3KJYX6QCMDRNTTGOGY9L9HFUV0YJVH,1,2
172,3,object_04,object_02,260.69999998808,6,1,284.29999995232,0.8888888888888888,2,object_01,1,2970,0,9,8,library_2,2,memory-2step-stake-s,661,2736816,0.0-19.0-0.1-0.172,AVCOBHDVXZOZL,3SA4EMRVKYI00KKCICLEW0FTGRS0PA,3KJYX6QCMDRNTTGOGY9L9HFUV0YJVH,6,5
173,1,object_05,object_08,598.19999998808,2,1,706.0,1.0,2,object_01,5,3015,0,8,9,desert_3,2,memory-2step-stake-s,662,2745660,0.0-19.0-0.1-0.173,AVCOBHDVXZOZL,3SA4EMRVKYI00KKCICLEW0FTGRS0PA,3KJYX6QCMDRNTTGOGY9L9HFUV0YJVH,2,1
174,2,object_06,object_09,994.5,4,1,260.19999998808,1.0,2,object_01,5,3060,0,7,9,forest_3,2,memory-2step-stake-s,663,2754054,0.0-19.0-0.1-0.174,AVCOBHDVXZOZL,3SA4EMRVKYI00KKCICLEW0FTGRS0PA,3KJYX6QCMDRNTTGOGY9L9HFUV0YJVH,4,3
175,3,object_04,object_02,1001.0999999642,6,1,353.90000003576,0.7777777777777778,2,object_01,5,3095,0,9,7,library_4,2,memory-2step-stake-s,664,2762334,0.0-19.0-0.1-0.175,AVCOBHDVXZOZL,3SA4EMRVKYI00KKCICLEW0FTGRS0PA,3KJYX6QCMDRNTTGOGY9L9HFUV0YJVH,6,5
176,2,object_09,object_06,724.20000004768,4,2,331.30000001192,0.8888888888888888,2,object_01,5,3135,0,8,8,forest_7,2,memory-2step-stake-s,665,2770707,0.0-19.0-0.1-0.176,AVCOBHDVXZOZL,3SA4EMRVKYI00KKCICLEW0FTGRS0PA,3KJYX6QCMDRNTTGOGY9L9HFUV0YJVH,3,4
177,3,object_04,object_02,569.30000001192,5,2,482.69999998808,1.0,1,object_10,1,3144,0,9,7,library_8,2,memory-2step-stake-s,666,2779362,0.0-19.0-0.1-0.177,AVCOBHDVXZOZL,3SA4EMRVKYI00KKCICLEW0FTGRS0PA,3KJYX6QCMDRNTTGOGY9L9HFUV0YJVH,6,5
178,4,object_03,object_07,908.59999996424,7,2,315.90000003576,0.7777777777777778,1,object_10,5,3179,0,7,7,restaurant_4,2,memory-2step-stake-s,667,2787621,0.0-19.0-0.1-0.178,AVCOBHDVXZOZL,3SA4EMRVKYI00KKCICLEW0FTGRS0PA,3KJYX6QCMDRNTTGOGY9L9HFUV0YJVH,8,7
179,1,object_05,object_08,1013.8000000119,2,1,426.19999998808,0.7777777777777778,2,object_01,1,3186,0,6,7,desert_3,2,memory-2step-stake-s,668,2798458,0.0-19.0-0.1-0.179,AVCOBHDVXZOZL,3SA4EMRVKYI00KKCICLEW0FTGRS0PA,3KJYX6QCMDRNTTGOGY9L9HFUV0YJVH,2,1
180,1,object_08,object_05,789.40000003576,2,2,336.19999998808,0.5555555555555556,2,object_01,5,3211,0,7,5,desert_4,2,memory-2step-stake-s,669,2806540,0.0-19.0-0.1-0.180,AVCOBHDVXZOZL,3SA4EMRVKYI00KKCICLEW0FTGRS0PA,3KJYX6QCMDRNTTGOGY9L9HFUV0YJVH,1,2
181,1,object_08,object_05,886.5,1,1,285.80000001192,0.8888888888888888,1,object_10,5,3251,0,8,5,desert_4,2,memory-2step-stake-s,670,2814852,0.0-19.0-0.1-0.181,AVCOBHDVXZOZL,3SA4EMRVKYI00KKCICLEW0FTGRS0PA,3KJYX6QCMDRNTTGOGY9L9HFUV0YJVH,1,2
182,4,object_07,object_03,884.40000003576,7,1,283.60000002384,0.8888888888888888,1,object_10,1,3259,0,8,4,restaurant_2,2,memory-2step-stake-s,671,2823188,0.0-19.0-0.1-0.182,AVCOBHDVXZOZL,3SA4EMRVKYI00KKCICLEW0FTGRS0PA,3KJYX6QCMDRNTTGOGY9L9HFUV0YJVH,7,8
183,3,object_04,object_02,1338.0,6,1,280.09999996424,0.5555555555555556,2,object_01,1,3264,0,8,5,library_8,2,memory-2step-stake-s,672,2831196,0.0-19.0-0.1-0.183,AVCOBHDVXZOZL,3SA4EMRVKYI00KKCICLEW0FTGRS0PA,3KJYX6QCMDRNTTGOGY9L9HFUV0YJVH,6,5
184,2,object_06,object_09,812.69999998808,4,1,395.70000004768,0.7777777777777778,2,object_01,5,3299,0,8,7,forest_3,2,memory-2step-stake-s,673,2839519,0.0-19.0-0.1-0.184,AVCOBHDVXZOZL,3SA4EMRVKYI00KKCICLEW0FTGRS0PA,3KJYX6QCMDRNTTGOGY9L9HFUV0YJVH,4,3
185,1,object_08,object_05,1273.8000000119,2,2,312.40000003576,0.2222222222222222,2,object_01,5,3309,0,9,2,desert_4,2,memory-2step-stake-s,674,2847259,0.0-19.0-0.1-0.185,AVCOBHDVXZOZL,3SA4EMRVKYI00KKCICLEW0FTGRS0PA,3KJYX6QCMDRNTTGOGY9L9HFUV0YJVH,1,2
186,1,object_08,object_05,930.10000002384,1,1,286.5,0.8888888888888888,1,object_10,5,3349,0,8,3,desert_5,2,memory-2step-stake-s,675,2855590,0.0-19.0-0.1-0.186,AVCOBHDVXZOZL,3SA4EMRVKYI00KKCICLEW0FTGRS0PA,3KJYX6QCMDRNTTGOGY9L9HFUV0YJVH,1,2
187,1,object_05,object_08,1374.5,1,2,309.5,0.7777777777777778,1,object_10,5,3384,0,7,5,desert_5,2,memory-2step-stake-s,676,2863843,0.0-19.0-0.1-0.187,AVCOBHDVXZOZL,3SA4EMRVKYI00KKCICLEW0FTGRS0PA,3KJYX6QCMDRNTTGOGY9L9HFUV0YJVH,2,1
188,4,object_03,object_07,1061.1000000238,7,2,265.0,0.5555555555555556,1,object_10,1,3389,0,5,7,restaurant_1,2,memory-2step-stake-s,677,2871836,0.0-19.0-0.1-0.188,AVCOBHDVXZOZL,3SA4EMRVKYI00KKCICLEW0FTGRS0PA,3KJYX6QCMDRNTTGOGY9L9HFUV0YJVH,8,7
189,3,object_04,object_02,1154.8000000119,6,1,263.09999996424,0.8888888888888888,2,object_01,1,3397,0,6,8,library_6,2,memory-2step-stake-s,678,2880159,0.0-19.0-0.1-0.189,AVCOBHDVXZOZL,3SA4EMRVKYI00KKCICLEW0FTGRS0PA,3KJYX6QCMDRNTTGOGY9L9HFUV0YJVH,6,5
190,1,object_05,object_08,804.5,2,1,336.5,0.8888888888888888,2,object_01,5,3437,0,9,8,desert_1,2,memory-2step-stake-s,679,2888544,0.0-19.0-0.1-0.190,AVCOBHDVXZOZL,3SA4EMRVKYI00KKCICLEW0FTGRS0PA,3KJYX6QCMDRNTTGOGY9L9HFUV0YJVH,2,1
191,3,object_04,object_02,853.80000001192,5,2,279.60000002384,0.8888888888888888,1,object_10,1,3445,0,8,8,library_8,2,memory-2step-stake-s,680,2896872,0.0-19.0-0.1-0.191,AVCOBHDVXZOZL,3SA4EMRVKYI00KKCICLEW0FTGRS0PA,3KJYX6QCMDRNTTGOGY9L9HFUV0YJVH,6,5
192,3,object_02,object_04,-1.0,-1,-1,-1.0,0.0,-,0,5,3445,0,6,7,library_2,2,memory-2step-stake-s,681,2903387,0.0-19.0-0.1-0.192,AVCOBHDVXZOZL,3SA4EMRVKYI00KKCICLEW0FTGRS0PA,3KJYX6QCMDRNTTGOGY9L9HFUV0YJVH,5,6
193,3,object_02,object_04,486.29999995232,5,1,320.30000001192,0.6666666666666666,1,object_10,5,3475,0,6,6,library_2,2,memory-2step-stake-s,682,2911533,0.0-19.0-0.1-0.193,AVCOBHDVXZOZL,3SA4EMRVKYI00KKCICLEW0FTGRS0PA,3KJYX6QCMDRNTTGOGY9L9HFUV0YJVH,5,6
194,4,object_07,object_03,585.19999998808,8,2,337.69999998808,0.4444444444444444,2,object_01,1,3479,0,5,4,restaurant_4,2,memory-2step-stake-s,683,2923282,0.0-19.0-0.1-0.194,AVCOBHDVXZOZL,3SA4EMRVKYI00KKCICLEW0FTGRS0PA,3KJYX6QCMDRNTTGOGY9L9HFUV0YJVH,7,8
195,3,object_02,object_04,135.80000001192,5,1,947.80000001192,0.6666666666666666,1,object_10,1,3485,0,6,5,library_2,2,memory-2step-stake-s,684,2932059,0.0-19.0-0.1-0.195,AVCOBHDVXZOZL,3SA4EMRVKYI00KKCICLEW0FTGRS0PA,3KJYX6QCMDRNTTGOGY9L9HFUV0YJVH,5,6
196,3,object_04,object_02,636.89999997616,5,2,458.5,0.7777777777777778,1,object_10,5,3520,0,7,3,library_4,2,memory-2step-stake-s,685,2940470,0.0-19.0-0.1-0.196,AVCOBHDVXZOZL,3SA4EMRVKYI00KKCICLEW0FTGRS0PA,3KJYX6QCMDRNTTGOGY9L9HFUV0YJVH,6,5
197,3,object_02,object_04,1071.4000000358,5,1,269.39999997616,0.5555555555555556,1,object_10,1,3525,0,5,4,library_4,2,memory-2step-stake-s,686,2948550,0.0-19.0-0.1-0.197,AVCOBHDVXZOZL,3SA4EMRVKYI00KKCICLEW0FTGRS0PA,3KJYX6QCMDRNTTGOGY9L9HFUV0YJVH,5,6
198,2,object_09,object_06,198.89999997616,3,1,294.80000001192,0.6666666666666666,1,object_10,5,3555,0,6,3,forest_3,2,memory-2step-stake-s,687,2956700,0.0-19.0-0.1-0.198,AVCOBHDVXZOZL,3SA4EMRVKYI00KKCICLEW0FTGRS0PA,3KJYX6QCMDRNTTGOGY9L9HFUV0YJVH,3,4
199,4,object_07,object_03,1478.0,7,1,300.89999997616,0.4444444444444444,1,object_10,1,3559,0,4,6,restaurant_7,2,memory-2step-stake-s,688,2964648,0.0-19.0-0.1-0.199,AVCOBHDVXZOZL,3SA4EMRVKYI00KKCICLEW0FTGRS0PA,3KJYX6QCMDRNTTGOGY9L9HFUV0YJVH,7,8
200,4,object_07,object_03,461.09999996424,8,2,-1.0,0.0,2,object_01,1,3559,0,3,0,restaurant_7,2,memory-2step-stake-s,689,2973171,0.0-19.0-0.1-0.200,AVCOBHDVXZOZL,3SA4EMRVKYI00KKCICLEW0FTGRS0PA,3KJYX6QCMDRNTTGOGY9L9HFUV0YJVH,7,8
201,3,object_02,object_04,-1.0,-1,-1,-1.0,0.0,-,0,5,3559,0,3,0,library_6,2,memory-2step-stake-s,690,2979709,0.0-19.0-0.1-0.201,AVCOBHDVXZOZL,3SA4EMRVKYI00KKCICLEW0FTGRS0PA,3KJYX6QCMDRNTTGOGY9L9HFUV0YJVH,5,6
202,4,object_07,object_03,465.40000003576,7,1,8.0999999642372,0.2222222222222222,1,object_10,1,3561,0,2,3,restaurant_1,2,memory-2step-stake-s,691,2987139,0.0-19.0-0.1-0.202,AVCOBHDVXZOZL,3SA4EMRVKYI00KKCICLEW0FTGRS0PA,3KJYX6QCMDRNTTGOGY9L9HFUV0YJVH,7,8
203,1,object_05,object_08,417.10000002384,1,2,38.100000023842,0.5555555555555556,1,object_10,5,3586,0,5,6,desert_1,2,memory-2step-stake-s,692,2994915,0.0-19.0-0.1-0.203,AVCOBHDVXZOZL,3SA4EMRVKYI00KKCICLEW0FTGRS0PA,3KJYX6QCMDRNTTGOGY9L9HFUV0YJVH,2,1
204,3,object_02,object_04,452.89999997616,5,1,4.6000000238419,0.2222222222222222,1,object_10,1,3588,0,2,6,library_4,2,memory-2step-stake-s,693,3002341,0.0-19.0-0.1-0.204,AVCOBHDVXZOZL,3SA4EMRVKYI00KKCICLEW0FTGRS0PA,3KJYX6QCMDRNTTGOGY9L9HFUV0YJVH,5,6
205,2,object_06,object_09,511.5,3,2,327.0,0.0,1,object_10,5,3588,0,0,6,forest_3,2,memory-2step-stake-s,694,3009894,0.0-19.0-0.1-0.205,AVCOBHDVXZOZL,3SA4EMRVKYI00KKCICLEW0FTGRS0PA,3KJYX6QCMDRNTTGOGY9L9HFUV0YJVH,4,3
206,1,object_08,object_05,949.80000001192,2,2,263.69999998808,0.6666666666666666,2,object_01,5,3618,0,5,6,desert_3,2,memory-2step-stake-s,695,3018029,0.0-19.0-0.1-0.206,AVCOBHDVXZOZL,3SA4EMRVKYI00KKCICLEW0FTGRS0PA,3KJYX6QCMDRNTTGOGY9L9HFUV0YJVH,1,2
207,2,object_09,object_06,801.80000001192,4,2,289.80000001192,0.6666666666666666,2,object_01,5,3648,0,5,6,forest_7,2,memory-2step-stake-s,696,3026151,0.0-19.0-0.1-0.207,AVCOBHDVXZOZL,3SA4EMRVKYI00KKCICLEW0FTGRS0PA,3KJYX6QCMDRNTTGOGY9L9HFUV0YJVH,3,4
208,2,object_06,object_09,903.79999995232,4,1,266.10000002384,0.5555555555555556,2,object_01,5,3673,0,7,5,forest_3,2,memory-2step-stake-s,697,3034166,0.0-19.0-0.1-0.208,AVCOBHDVXZOZL,3SA4EMRVKYI00KKCICLEW0FTGRS0PA,3KJYX6QCMDRNTTGOGY9L9HFUV0YJVH,4,3
209,4,object_03,object_07,469.5,7,2,597.5,0.8888888888888888,1,object_10,1,3681,0,8,6,restaurant_4,2,memory-2step-stake-s,698,3042806,0.0-19.0-0.1-0.209,AVCOBHDVXZOZL,3SA4EMRVKYI00KKCICLEW0FTGRS0PA,3KJYX6QCMDRNTTGOGY9L9HFUV0YJVH,8,7
210,2,object_09,object_06,719.10000002384,3,1,337.19999998808,0.8888888888888888,1,object_10,5,3721,0,8,7,forest_7,2,memory-2step-stake-s,699,3051204,0.0-19.0-0.1-0.210,AVCOBHDVXZOZL,3SA4EMRVKYI00KKCICLEW0FTGRS0PA,3KJYX6QCMDRNTTGOGY9L9HFUV0YJVH,3,4
211,1,object_05,object_08,777.69999998808,2,1,294.89999997616,0.8888888888888888,2,object_01,5,3761,0,6,8,desert_4,2,memory-2step-stake-s,700,3059569,0.0-19.0-0.1-0.211,AVCOBHDVXZOZL,3SA4EMRVKYI00KKCICLEW0FTGRS0PA,3KJYX6QCMDRNTTGOGY9L9HFUV0YJVH,2,1
212,2,object_06,object_09,840.5,3,2,306.30000001192,0.8888888888888888,1,object_10,5,3801,0,8,7,forest_3,2,memory-2step-stake-s,701,3067922,0.0-19.0-0.1-0.212,AVCOBHDVXZOZL,3SA4EMRVKYI00KKCICLEW0FTGRS0PA,3KJYX6QCMDRNTTGOGY9L9HFUV0YJVH,4,3
213,1,object_08,object_05,939.89999997616,2,2,451.60000002384,1.0,2,object_01,5,3846,0,8,9,desert_4,2,memory-2step-stake-s,702,3076508,0.0-19.0-0.1-0.213,AVCOBHDVXZOZL,3SA4EMRVKYI00KKCICLEW0FTGRS0PA,3KJYX6QCMDRNTTGOGY9L9HFUV0YJVH,1,2
214,2,object_09,object_06,913.90000003576,3,1,370.30000001192,0.7777777777777778,1,object_10,5,3881,0,7,6,forest_2,2,memory-2step-stake-s,703,3084808,0.0-19.0-0.1-0.214,AVCOBHDVXZOZL,3SA4EMRVKYI00KKCICLEW0FTGRS0PA,3KJYX6QCMDRNTTGOGY9L9HFUV0YJVH,3,4
215,2,object_06,object_09,1218.6999999881,3,2,325.19999998808,0.8888888888888888,1,object_10,5,3921,0,8,5,forest_2,2,memory-2step-stake-s,704,3093173,0.0-19.0-0.1-0.215,AVCOBHDVXZOZL,3SA4EMRVKYI00KKCICLEW0FTGRS0PA,3KJYX6QCMDRNTTGOGY9L9HFUV0YJVH,4,3
216,1,object_08,object_05,895.69999998808,2,2,289.39999997616,0.4444444444444444,2,object_01,5,3941,0,7,4,desert_5,2,memory-2step-stake-s,705,3101098,0.0-19.0-0.1-0.216,AVCOBHDVXZOZL,3SA4EMRVKYI00KKCICLEW0FTGRS0PA,3KJYX6QCMDRNTTGOGY9L9HFUV0YJVH,1,2
217,1,object_08,object_05,772.90000003576,2,2,108.0,0.3333333333333333,2,object_01,5,3956,0,8,3,desert_4,2,memory-2step-stake-s,706,3108758,0.0-19.0-0.1-0.217,AVCOBHDVXZOZL,3SA4EMRVKYI00KKCICLEW0FTGRS0PA,3KJYX6QCMDRNTTGOGY9L9HFUV0YJVH,1,2
218,3,object_02,object_04,685.19999998808,5,1,310.0,0.5555555555555556,1,object_10,1,3961,0,5,4,library_2,2,memory-2step-stake-s,707,3116795,0.0-19.0-0.1-0.218,AVCOBHDVXZOZL,3SA4EMRVKYI00KKCICLEW0FTGRS0PA,3KJYX6QCMDRNTTGOGY9L9HFUV0YJVH,5,6
219,4,object_03,object_07,595.10000002384,7,2,217.20000004768,0.6666666666666666,1,object_10,1,3967,0,6,4,restaurant_1,2,memory-2step-stake-s,708,3124851,0.0-19.0-0.1-0.219,AVCOBHDVXZOZL,3SA4EMRVKYI00KKCICLEW0FTGRS0PA,3KJYX6QCMDRNTTGOGY9L9HFUV0YJVH,8,7
220,2,object_09,object_06,1133.1999999881,3,1,310.0,0.5555555555555556,1,object_10,5,3992,0,5,6,forest_7,2,memory-2step-stake-s,709,3132931,0.0-19.0-0.1-0.220,AVCOBHDVXZOZL,3SA4EMRVKYI00KKCICLEW0FTGRS0PA,3KJYX6QCMDRNTTGOGY9L9HFUV0YJVH,3,4
221,3,object_02,object_04,95.399999976158,6,2,111.0,0.7777777777777778,2,object_01,1,3999,0,4,7,library_8,2,memory-2step-stake-s,710,3140976,0.0-19.0-0.1-0.221,AVCOBHDVXZOZL,3SA4EMRVKYI00KKCICLEW0FTGRS0PA,3KJYX6QCMDRNTTGOGY9L9HFUV0YJVH,5,6
222,4,object_07,object_03,297.70000004768,7,1,266.40000003576,0.8888888888888888,1,object_10,1,4007,0,8,4,restaurant_7,2,memory-2step-stake-s,711,3149300,0.0-19.0-0.1-0.222,AVCOBHDVXZOZL,3SA4EMRVKYI00KKCICLEW0FTGRS0PA,3KJYX6QCMDRNTTGOGY9L9HFUV0YJVH,7,8
223,2,object_09,object_06,299.09999996424,4,2,158.19999998808,0.1111111111111111,2,object_01,1,4008,0,9,1,forest_4,2,memory-2step-stake-s,712,3156781,0.0-19.0-0.1-0.223,AVCOBHDVXZOZL,3SA4EMRVKYI00KKCICLEW0FTGRS0PA,3KJYX6QCMDRNTTGOGY9L9HFUV0YJVH,3,4
224,4,object_03,object_07,462.39999997616,8,1,374.30000001192,0.2222222222222222,2,object_01,1,4010,0,8,2,restaurant_7,2,memory-2step-stake-s,713,3164595,0.0-19.0-0.1-0.224,AVCOBHDVXZOZL,3SA4EMRVKYI00KKCICLEW0FTGRS0PA,3KJYX6QCMDRNTTGOGY9L9HFUV0YJVH,8,7
225,4,object_03,object_07,369.30000001192,7,2,713.80000001192,0.6666666666666666,1,object_10,1,4016,0,6,1,restaurant_4,2,memory-2step-stake-s,714,3173174,0.0-19.0-0.1-0.225,AVCOBHDVXZOZL,3SA4EMRVKYI00KKCICLEW0FTGRS0PA,3KJYX6QCMDRNTTGOGY9L9HFUV0YJVH,8,7
226,1,object_08,object_05,817.59999996424,1,1,359.29999995232,0.4444444444444444,1,object_10,5,4036,0,4,1,desert_1,2,memory-2step-stake-s,715,3181170,0.0-19.0-0.1-0.226,AVCOBHDVXZOZL,3SA4EMRVKYI00KKCICLEW0FTGRS0PA,3KJYX6QCMDRNTTGOGY9L9HFUV0YJVH,1,2
227,3,object_04,object_02,193.5,5,2,66.100000023842,0.0,1,object_10,1,4036,0,0,1,library_2,2,memory-2step-stake-s,716,3188457,0.0-19.0-0.1-0.227,AVCOBHDVXZOZL,3SA4EMRVKYI00KKCICLEW0FTGRS0PA,3KJYX6QCMDRNTTGOGY9L9HFUV0YJVH,6,5
228,3,object_04,object_02,1090.6999999881,5,2,374.0,0.1111111111111111,1,object_10,5,4041,0,1,1,library_6,2,memory-2step-stake-s,717,3196151,0.0-19.0-0.1-0.228,AVCOBHDVXZOZL,3SA4EMRVKYI00KKCICLEW0FTGRS0PA,3KJYX6QCMDRNTTGOGY9L9HFUV0YJVH,6,5
229,2,object_09,object_06,762.59999996424,4,2,284.10000002384,0.4444444444444444,2,object_01,5,4061,0,5,4,forest_4,2,memory-2step-stake-s,718,3204066,0.0-19.0-0.1-0.229,AVCOBHDVXZOZL,3SA4EMRVKYI00KKCICLEW0FTGRS0PA,3KJYX6QCMDRNTTGOGY9L9HFUV0YJVH,3,4
230,2,object_09,object_06,900.59999996424,3,1,234.10000002384,0.6666666666666666,1,object_10,5,4091,0,6,2,forest_3,2,memory-2step-stake-s,719,3212130,0.0-19.0-0.1-0.230,AVCOBHDVXZOZL,3SA4EMRVKYI00KKCICLEW0FTGRS0PA,3KJYX6QCMDRNTTGOGY9L9HFUV0YJVH,3,4
231,2,object_06,object_09,458.20000004768,3,2,324.60000002384,0.7777777777777778,1,object_10,5,4126,0,7,3,forest_4,2,memory-2step-stake-s,720,3220391,0.0-19.0-0.1-0.231,AVCOBHDVXZOZL,3SA4EMRVKYI00KKCICLEW0FTGRS0PA,3KJYX6QCMDRNTTGOGY9L9HFUV0YJVH,4,3
232,3,object_02,object_04,294.30000001192,5,1,215.19999998808,0.7777777777777778,1,object_10,1,4133,0,7,4,library_4,2,memory-2step-stake-s,721,3228559,0.0-19.0-0.1-0.232,AVCOBHDVXZOZL,3SA4EMRVKYI00KKCICLEW0FTGRS0PA,3KJYX6QCMDRNTTGOGY9L9HFUV0YJVH,5,6
233,4,object_07,object_03,192.19999998808,8,2,399.90000003576,0.2222222222222222,2,object_01,1,4135,0,6,2,restaurant_7,2,memory-2step-stake-s,722,3236401,0.0-19.0-0.1-0.233,AVCOBHDVXZOZL,3SA4EMRVKYI00KKCICLEW0FTGRS0PA,3KJYX6QCMDRNTTGOGY9L9HFUV0YJVH,7,8
234,1,object_05,object_08,730.0,2,1,310.0,0.4444444444444444,2,object_01,5,4155,0,6,4,desert_5,2,memory-2step-stake-s,723,3245903,0.0-19.0-0.1-0.234,AVCOBHDVXZOZL,3SA4EMRVKYI00KKCICLEW0FTGRS0PA,3KJYX6QCMDRNTTGOGY9L9HFUV0YJVH,2,1
235,4,object_03,object_07,374.39999997616,8,1,347.70000004768,0.2222222222222222,2,object_01,1,4157,0,0,2,restaurant_1,2,memory-2step-stake-s,724,3253702,0.0-19.0-0.1-0.235,AVCOBHDVXZOZL,3SA4EMRVKYI00KKCICLEW0FTGRS0PA,3KJYX6QCMDRNTTGOGY9L9HFUV0YJVH,8,7
236,3,object_04,object_02,697.90000003576,5,2,283.0,0.2222222222222222,1,object_10,5,4167,0,2,1,library_6,2,memory-2step-stake-s,725,3261401,0.0-19.0-0.1-0.236,AVCOBHDVXZOZL,3SA4EMRVKYI00KKCICLEW0FTGRS0PA,3KJYX6QCMDRNTTGOGY9L9HFUV0YJVH,6,5
237,1,object_05,object_08,1379.5,2,1,355.89999997616,0.0,2,object_01,1,4167,0,3,0,desert_5,2,memory-2step-stake-s,726,3268976,0.0-19.0-0.1-0.237,AVCOBHDVXZOZL,3SA4EMRVKYI00KKCICLEW0FTGRS0PA,3KJYX6QCMDRNTTGOGY9L9HFUV0YJVH,2,1
238,2,object_06,object_09,617.30000001192,3,2,221.40000003576,0.2222222222222222,1,object_10,5,4177,0,2,1,forest_2,2,memory-2step-stake-s,727,3276628,0.0-19.0-0.1-0.238,AVCOBHDVXZOZL,3SA4EMRVKYI00KKCICLEW0FTGRS0PA,3KJYX6QCMDRNTTGOGY9L9HFUV0YJVH,4,3
239,2,object_06,object_09,785.69999998808,4,1,342.70000004768,0.5555555555555556,2,object_01,5,4202,0,4,5,forest_2,2,memory-2step-stake-s,728,3284689,0.0-19.0-0.1-0.239,AVCOBHDVXZOZL,3SA4EMRVKYI00KKCICLEW0FTGRS0PA,3KJYX6QCMDRNTTGOGY9L9HFUV0YJVH,4,3
240,3,object_04,object_02,314.69999998808,5,2,155.39999997616,0.6666666666666666,1,object_10,1,4208,0,6,4,library_2,2,memory-2step-stake-s,729,3292747,0.0-19.0-0.1-0.240,AVCOBHDVXZOZL,3SA4EMRVKYI00KKCICLEW0FTGRS0PA,3KJYX6QCMDRNTTGOGY9L9HFUV0YJVH,6,5
241,3,object_04,object_02,287.40000003576,6,1,297.0,0.3333333333333333,2,object_01,1,4211,0,8,3,library_4,2,memory-2step-stake-s,730,3300587,0.0-19.0-0.1-0.241,AVCOBHDVXZOZL,3SA4EMRVKYI00KKCICLEW0FTGRS0PA,3KJYX6QCMDRNTTGOGY9L9HFUV0YJVH,6,5
242,4,object_03,object_07,640.89999997616,7,2,306.10000002384,1.0,1,object_10,1,4220,0,9,1,restaurant_7,2,memory-2step-stake-s,731,3309032,0.0-19.0-0.1-0.242,AVCOBHDVXZOZL,3SA4EMRVKYI00KKCICLEW0FTGRS0PA,3KJYX6QCMDRNTTGOGY9L9HFUV0YJVH,8,7
243,3,object_04,object_02,289.69999998808,6,1,266.5,0.2222222222222222,2,object_01,1,4222,0,6,2,library_8,2,memory-2step-stake-s,732,3316722,0.0-19.0-0.1-0.243,AVCOBHDVXZOZL,3SA4EMRVKYI00KKCICLEW0FTGRS0PA,3KJYX6QCMDRNTTGOGY9L9HFUV0YJVH,6,5
244,2,object_06,object_09,730.0,3,2,306.5,0.8888888888888888,1,object_10,5,4262,0,8,4,forest_3,2,memory-2step-stake-s,733,3325069,0.0-19.0-0.1-0.244,AVCOBHDVXZOZL,3SA4EMRVKYI00KKCICLEW0FTGRS0PA,3KJYX6QCMDRNTTGOGY9L9HFUV0YJVH,4,3
245,4,object_07,object_03,959.09999996424,8,2,272.80000001192,0.6666666666666666,2,object_01,1,4268,0,9,6,restaurant_2,2,memory-2step-stake-s,734,3333194,0.0-19.0-0.1-0.245,AVCOBHDVXZOZL,3SA4EMRVKYI00KKCICLEW0FTGRS0PA,3KJYX6QCMDRNTTGOGY9L9HFUV0YJVH,7,8
246,1,object_05,object_08,710.10000002384,2,1,502.89999997616,0.2222222222222222,2,object_01,5,4278,0,7,2,desert_3,2,memory-2step-stake-s,735,3341123,0.0-19.0-0.1-0.246,AVCOBHDVXZOZL,3SA4EMRVKYI00KKCICLEW0FTGRS0PA,3KJYX6QCMDRNTTGOGY9L9HFUV0YJVH,2,1
247,4,object_03,object_07,455.0,8,1,127.19999998808,0.1111111111111111,2,object_01,1,4279,0,6,1,restaurant_4,2,memory-2step-stake-s,736,3348603,0.0-19.0-0.1-0.247,AVCOBHDVXZOZL,3SA4EMRVKYI00KKCICLEW0FTGRS0PA,3KJYX6QCMDRNTTGOGY9L9HFUV0YJVH,8,7
248,3,object_04,object_02,833.09999996424,6,1,121.5,0.3333333333333333,2,object_01,1,4282,0,8,3,library_6,2,memory-2step-stake-s,737,3356256,0.0-19.0-0.1-0.248,AVCOBHDVXZOZL,3SA4EMRVKYI00KKCICLEW0FTGRS0PA,3KJYX6QCMDRNTTGOGY9L9HFUV0YJVH,6,5
249,3,object_04,object_02,916.5,6,1,500.90000003576,0.2222222222222222,2,object_01,5,4292,0,9,2,library_2,2,memory-2step-stake-s,738,3364198,0.0-19.0-0.1-0.249,AVCOBHDVXZOZL,3SA4EMRVKYI00KKCICLEW0FTGRS0PA,3KJYX6QCMDRNTTGOGY9L9HFUV0YJVH,6,5
250,1,object_08,object_05,1344.3999999762,1,1,399.60000002384,0.6666666666666666,1,object_10,5,4322,0,6,1,desert_1,2,memory-2step-stake-s,739,3372440,0.0-19.0-0.1-0.250,AVCOBHDVXZOZL,3SA4EMRVKYI00KKCICLEW0FTGRS0PA,3KJYX6QCMDRNTTGOGY9L9HFUV0YJVH,1,2
251,4,object_07,object_03,1116.8999999762,8,2,742.0,0.2222222222222222,2,object_01,1,4324,0,5,2,restaurant_2,2,memory-2step-stake-s,740,3380610,0.0-19.0-0.1-0.251,AVCOBHDVXZOZL,3SA4EMRVKYI00KKCICLEW0FTGRS0PA,3KJYX6QCMDRNTTGOGY9L9HFUV0YJVH,7,8
252,1,object_08,object_05,777.80000001192,1,1,296.90000003576,0.8888888888888888,1,object_10,5,4364,0,8,1,desert_5,2,memory-2step-stake-s,741,3388958,0.0-19.0-0.1-0.252,AVCOBHDVXZOZL,3SA4EMRVKYI00KKCICLEW0FTGRS0PA,3KJYX6QCMDRNTTGOGY9L9HFUV0YJVH,1,2
253,3,object_04,object_02,979.09999996424,6,1,310.19999998808,0.2222222222222222,2,object_01,1,4366,0,6,2,library_8,2,memory-2step-stake-s,742,3396707,0.0-19.0-0.1-0.253,AVCOBHDVXZOZL,3SA4EMRVKYI00KKCICLEW0FTGRS0PA,3KJYX6QCMDRNTTGOGY9L9HFUV0YJVH,6,5
254,4,object_03,object_07,879.30000001192,7,2,146.60000002384,0.7777777777777778,1,object_10,1,4373,0,7,1,restaurant_1,2,memory-2step-stake-s,743,3404794,0.0-19.0-0.1-0.254,AVCOBHDVXZOZL,3SA4EMRVKYI00KKCICLEW0FTGRS0PA,3KJYX6QCMDRNTTGOGY9L9HFUV0YJVH,8,7
255,3,object_02,object_04,863.40000003576,6,2,250.89999997616,0.2222222222222222,2,object_01,1,4375,0,8,2,library_8,2,memory-2step-stake-s,744,3412467,0.0-19.0-0.1-0.255,AVCOBHDVXZOZL,3SA4EMRVKYI00KKCICLEW0FTGRS0PA,3KJYX6QCMDRNTTGOGY9L9HFUV0YJVH,5,6
