,state1,stim_left,stim_right,rt_1,choice1,response1,rt_2,points,state2,stim_state2,stake,score,practice,rews1,rews2,background,high_arm,trial_type,trial_index,time_elapsed,internal_node_id,subid,hitid,assignmentid,stim_left_num,stim_right_num
0,4,object_10,object_04,608.0,7,2,523.0,0.1111111111111111,1,object_09,5,5,0,1,8,restaurant_7,1,memory-2step-stake-s,493,1363700,0.0-19.0-0.0-0.0,AXKTYKCT9NGHS,391FPZIE5F2O3PY4X6RTCY19AQ3HU8,3S0TNUHWKXYCFVKJY9C0E509FWT8D8,8,7
1,2,object_07,object_01,672.0,3,1,649.0,0.0,1,object_09,1,5,0,0,7,forest_1,1,memory-2step-stake-s,494,1371642,0.0-19.0-0.0-0.1,AXKTYKCT9NGHS,391FPZIE5F2O3PY4X6RTCY19AQ3HU8,3S0TNUHWKXYCFVKJY9C0E509FWT8D8,3,4
2,3,object_05,object_08,801.0,6,1,355.0,1.0,2,object_02,5,50,0,3,9,library_1,1,memory-2step-stake-s,495,1380246,0.0-19.0-0.0-0.2,AXKTYKCT9NGHS,391FPZIE5F2O3PY4X6RTCY19AQ3HU8,3S0TNUHWKXYCFVKJY9C0E509FWT8D8,6,5
3,4,object_10,object_04,863.0,8,1,535.0,0.5555555555555556,2,object_02,5,75,0,2,5,restaurant_6,1,memory-2step-stake-s,496,1388592,0.0-19.0-0.0-0.3,AXKTYKCT9NGHS,391FPZIE5F2O3PY4X6RTCY19AQ3HU8,3S0TNUHWKXYCFVKJY9C0E509FWT8D8,8,7
4,2,object_01,object_07,913.0,3,2,711.0,0.0,1,object_09,1,75,0,0,6,forest_3,1,memory-2step-stake-s,497,1396572,0.0-19.0-0.0-0.4,AXKTYKCT9NGHS,391FPZIE5F2O3PY4X6RTCY19AQ3HU8,3S0TNUHWKXYCFVKJY9C0E509FWT8D8,4,3
5,2,object_07,object_01,603.0,3,1,379.0,0.2222222222222222,1,object_09,1,77,0,2,6,forest_2,1,memory-2step-stake-s,498,1404428,0.0-19.0-0.0-0.5,AXKTYKCT9NGHS,391FPZIE5F2O3PY4X6RTCY19AQ3HU8,3S0TNUHWKXYCFVKJY9C0E509FWT8D8,3,4
6,3,object_05,object_08,743.0,6,1,578.0,0.7777777777777778,2,object_02,1,84,0,4,7,library_1,1,memory-2step-stake-s,499,1413056,0.0-19.0-0.0-0.6,AXKTYKCT9NGHS,391FPZIE5F2O3PY4X6RTCY19AQ3HU8,3S0TNUHWKXYCFVKJY9C0E509FWT8D8,6,5
7,1,object_06,object_03,840.0,2,2,491.0,0.7777777777777778,2,object_02,1,91,0,5,7,desert_8,1,memory-2step-stake-s,500,1421584,0.0-19.0-0.0-0.7,AXKTYKCT9NGHS,391FPZIE5F2O3PY4X6RTCY19AQ3HU8,3S0TNUHWKXYCFVKJY9C0E509FWT8D8,1,2
8,3,object_05,object_08,732.0,6,1,362.0,0.8888888888888888,2,object_02,5,131,0,5,8,library_1,1,memory-2step-stake-s,501,1430088,0.0-19.0-0.0-0.8,AXKTYKCT9NGHS,391FPZIE5F2O3PY4X6RTCY19AQ3HU8,3S0TNUHWKXYCFVKJY9C0E509FWT8D8,6,5
9,3,object_05,object_08,861.0,6,1,369.0,0.8888888888888888,2,object_02,5,171,0,4,8,library_6,1,memory-2step-stake-s,502,1438633,0.0-19.0-0.0-0.9,AXKTYKCT9NGHS,391FPZIE5F2O3PY4X6RTCY19AQ3HU8,3S0TNUHWKXYCFVKJY9C0E509FWT8D8,6,5
10,1,object_03,object_06,1042.0,1,2,418.0,0.7777777777777778,1,object_09,1,178,0,7,7,desert_8,1,memory-2step-stake-s,503,1447054,0.0-19.0-0.0-0.10,AXKTYKCT9NGHS,391FPZIE5F2O3PY4X6RTCY19AQ3HU8,3S0TNUHWKXYCFVKJY9C0E509FWT8D8,2,1
11,3,object_08,object_05,783.0,5,1,345.0,0.3333333333333333,1,object_09,1,181,0,3,8,library_1,1,memory-2step-stake-s,504,1454995,0.0-19.0-0.0-0.11,AXKTYKCT9NGHS,391FPZIE5F2O3PY4X6RTCY19AQ3HU8,3S0TNUHWKXYCFVKJY9C0E509FWT8D8,5,6
12,3,object_08,object_05,658.0,6,2,369.0,0.8888888888888888,2,object_02,1,189,0,3,8,library_3,1,memory-2step-stake-s,505,1463556,0.0-19.0-0.0-0.12,AXKTYKCT9NGHS,391FPZIE5F2O3PY4X6RTCY19AQ3HU8,3S0TNUHWKXYCFVKJY9C0E509FWT8D8,5,6
13,1,object_03,object_06,808.0,2,1,409.0,1.0,2,object_02,1,198,0,6,9,desert_1,1,memory-2step-stake-s,506,1472198,0.0-19.0-0.0-0.13,AXKTYKCT9NGHS,391FPZIE5F2O3PY4X6RTCY19AQ3HU8,3S0TNUHWKXYCFVKJY9C0E509FWT8D8,2,1
14,3,object_05,object_08,663.0,6,1,370.0,1.0,2,object_02,1,207,0,6,9,library_6,1,memory-2step-stake-s,507,1480814,0.0-19.0-0.0-0.14,AXKTYKCT9NGHS,391FPZIE5F2O3PY4X6RTCY19AQ3HU8,3S0TNUHWKXYCFVKJY9C0E509FWT8D8,6,5
15,4,object_04,object_10,1063.0,8,2,406.0,1.0,2,object_02,5,252,0,4,9,restaurant_7,1,memory-2step-stake-s,508,1489458,0.0-19.0-0.0-0.15,AXKTYKCT9NGHS,391FPZIE5F2O3PY4X6RTCY19AQ3HU8,3S0TNUHWKXYCFVKJY9C0E509FWT8D8,7,8
16,1,object_06,object_03,819.0,2,2,370.0,0.8888888888888888,2,object_02,1,260,0,7,8,desert_2,1,memory-2step-stake-s,509,1497973,0.0-19.0-0.0-0.16,AXKTYKCT9NGHS,391FPZIE5F2O3PY4X6RTCY19AQ3HU8,3S0TNUHWKXYCFVKJY9C0E509FWT8D8,1,2
17,1,object_06,object_03,818.0,2,2,-1.0,0.0,2,object_02,1,260,0,7,5,desert_2,1,memory-2step-stake-s,510,1506538,0.0-19.0-0.0-0.17,AXKTYKCT9NGHS,391FPZIE5F2O3PY4X6RTCY19AQ3HU8,3S0TNUHWKXYCFVKJY9C0E509FWT8D8,1,2
18,1,object_06,object_03,615.0,2,2,450.0,0.2222222222222222,2,object_02,1,262,0,6,2,desert_1,1,memory-2step-stake-s,511,1514472,0.0-19.0-0.0-0.18,AXKTYKCT9NGHS,391FPZIE5F2O3PY4X6RTCY19AQ3HU8,3S0TNUHWKXYCFVKJY9C0E509FWT8D8,1,2
19,4,object_04,object_10,958.0,8,2,501.0,0.1111111111111111,2,object_02,5,267,0,5,1,restaurant_7,1,memory-2step-stake-s,512,1522348,0.0-19.0-0.0-0.19,AXKTYKCT9NGHS,391FPZIE5F2O3PY4X6RTCY19AQ3HU8,3S0TNUHWKXYCFVKJY9C0E509FWT8D8,7,8
20,3,object_05,object_08,719.0,6,1,467.0,0.1111111111111111,2,object_02,1,268,0,8,1,library_6,1,memory-2step-stake-s,513,1530180,0.0-19.0-0.0-0.20,AXKTYKCT9NGHS,391FPZIE5F2O3PY4X6RTCY19AQ3HU8,3S0TNUHWKXYCFVKJY9C0E509FWT8D8,6,5
21,4,object_10,object_04,786.0,7,2,373.0,0.7777777777777778,1,object_09,1,275,0,7,1,restaurant_7,1,memory-2step-stake-s,514,1538617,0.0-19.0-0.0-0.21,AXKTYKCT9NGHS,391FPZIE5F2O3PY4X6RTCY19AQ3HU8,3S0TNUHWKXYCFVKJY9C0E509FWT8D8,8,7
22,3,object_05,object_08,844.0,5,2,409.0,0.6666666666666666,1,object_09,1,281,0,6,2,library_3,1,memory-2step-stake-s,515,1546958,0.0-19.0-0.0-0.22,AXKTYKCT9NGHS,391FPZIE5F2O3PY4X6RTCY19AQ3HU8,3S0TNUHWKXYCFVKJY9C0E509FWT8D8,6,5
23,3,object_08,object_05,629.0,6,2,422.0,0.1111111111111111,2,object_02,5,286,0,7,1,library_1,1,memory-2step-stake-s,516,1554728,0.0-19.0-0.0-0.23,AXKTYKCT9NGHS,391FPZIE5F2O3PY4X6RTCY19AQ3HU8,3S0TNUHWKXYCFVKJY9C0E509FWT8D8,5,6
24,1,object_03,object_06,805.0,1,2,344.0,0.3333333333333333,1,object_09,1,289,0,3,1,desert_6,1,memory-2step-stake-s,517,1562686,0.0-19.0-0.0-0.24,AXKTYKCT9NGHS,391FPZIE5F2O3PY4X6RTCY19AQ3HU8,3S0TNUHWKXYCFVKJY9C0E509FWT8D8,2,1
25,4,object_10,object_04,854.0,8,1,376.0,0.2222222222222222,2,object_02,5,299,0,4,2,restaurant_2,1,memory-2step-stake-s,518,1570560,0.0-19.0-0.0-0.25,AXKTYKCT9NGHS,391FPZIE5F2O3PY4X6RTCY19AQ3HU8,3S0TNUHWKXYCFVKJY9C0E509FWT8D8,8,7
26,2,object_07,object_01,903.0,4,2,428.0,0.2222222222222222,2,object_02,1,301,0,4,2,forest_8,1,memory-2step-stake-s,519,1578467,0.0-19.0-0.0-0.26,AXKTYKCT9NGHS,391FPZIE5F2O3PY4X6RTCY19AQ3HU8,3S0TNUHWKXYCFVKJY9C0E509FWT8D8,3,4
27,2,object_01,object_07,996.0,3,2,339.0,0.6666666666666666,1,object_09,1,307,0,6,0,forest_3,1,memory-2step-stake-s,520,1586708,0.0-19.0-0.0-0.27,AXKTYKCT9NGHS,391FPZIE5F2O3PY4X6RTCY19AQ3HU8,3S0TNUHWKXYCFVKJY9C0E509FWT8D8,4,3
28,4,object_10,object_04,1249.0,8,1,361.0,0.1111111111111111,2,object_02,5,312,0,7,1,restaurant_2,1,memory-2step-stake-s,521,1594445,0.0-19.0-0.0-0.28,AXKTYKCT9NGHS,391FPZIE5F2O3PY4X6RTCY19AQ3HU8,3S0TNUHWKXYCFVKJY9C0E509FWT8D8,8,7
29,4,object_04,object_10,894.0,8,2,309.0,0.0,2,object_02,5,312,0,7,0,restaurant_7,1,memory-2step-stake-s,522,1602025,0.0-19.0-0.0-0.29,AXKTYKCT9NGHS,391FPZIE5F2O3PY4X6RTCY19AQ3HU8,3S0TNUHWKXYCFVKJY9C0E509FWT8D8,7,8
30,1,object_06,object_03,766.0,2,2,401.0,0.5555555555555556,2,object_02,1,317,0,4,5,desert_1,1,memory-2step-stake-s,523,1610246,0.0-19.0-0.0-0.30,AXKTYKCT9NGHS,391FPZIE5F2O3PY4X6RTCY19AQ3HU8,3S0TNUHWKXYCFVKJY9C0E509FWT8D8,1,2
31,3,object_05,object_08,1009.0,5,2,360.0,0.3333333333333333,1,object_09,1,320,0,3,1,library_7,1,memory-2step-stake-s,524,1618192,0.0-19.0-0.0-0.31,AXKTYKCT9NGHS,391FPZIE5F2O3PY4X6RTCY19AQ3HU8,3S0TNUHWKXYCFVKJY9C0E509FWT8D8,6,5
32,1,object_03,object_06,886.0,2,1,413.0,0.1111111111111111,2,object_02,1,321,0,2,1,desert_6,1,memory-2step-stake-s,525,1625973,0.0-19.0-0.0-0.32,AXKTYKCT9NGHS,391FPZIE5F2O3PY4X6RTCY19AQ3HU8,3S0TNUHWKXYCFVKJY9C0E509FWT8D8,2,1
33,4,object_10,object_04,840.0,7,2,318.0,0.3333333333333333,1,object_09,5,336,0,3,5,restaurant_5,1,memory-2step-stake-s,526,1633877,0.0-19.0-0.0-0.33,AXKTYKCT9NGHS,391FPZIE5F2O3PY4X6RTCY19AQ3HU8,3S0TNUHWKXYCFVKJY9C0E509FWT8D8,8,7
34,3,object_08,object_05,889.0,5,1,368.0,0.2222222222222222,1,object_09,5,346,0,2,4,library_1,1,memory-2step-stake-s,527,1641743,0.0-19.0-0.0-0.34,AXKTYKCT9NGHS,391FPZIE5F2O3PY4X6RTCY19AQ3HU8,3S0TNUHWKXYCFVKJY9C0E509FWT8D8,5,6
35,3,object_05,object_08,757.0,5,2,337.0,0.2222222222222222,1,object_09,5,356,0,2,9,library_3,1,memory-2step-stake-s,528,1649578,0.0-19.0-0.0-0.35,AXKTYKCT9NGHS,391FPZIE5F2O3PY4X6RTCY19AQ3HU8,3S0TNUHWKXYCFVKJY9C0E509FWT8D8,6,5
36,4,object_04,object_10,1116.0,7,1,346.0,0.4444444444444444,1,object_09,5,376,0,4,8,restaurant_6,1,memory-2step-stake-s,529,1657651,0.0-19.0-0.0-0.36,AXKTYKCT9NGHS,391FPZIE5F2O3PY4X6RTCY19AQ3HU8,3S0TNUHWKXYCFVKJY9C0E509FWT8D8,7,8
37,2,object_01,object_07,1111.0,3,2,332.0,0.4444444444444444,1,object_09,1,380,0,4,6,forest_3,1,memory-2step-stake-s,530,1665650,0.0-19.0-0.0-0.37,AXKTYKCT9NGHS,391FPZIE5F2O3PY4X6RTCY19AQ3HU8,3S0TNUHWKXYCFVKJY9C0E509FWT8D8,4,3
38,3,object_05,object_08,993.0,6,1,303.0,0.7777777777777778,2,object_02,5,415,0,4,7,library_3,1,memory-2step-stake-s,531,1674018,0.0-19.0-0.0-0.38,AXKTYKCT9NGHS,391FPZIE5F2O3PY4X6RTCY19AQ3HU8,3S0TNUHWKXYCFVKJY9C0E509FWT8D8,6,5
39,1,object_03,object_06,829.0,2,1,377.0,0.6666666666666666,2,object_02,1,421,0,2,6,desert_6,1,memory-2step-stake-s,532,1682294,0.0-19.0-0.0-0.39,AXKTYKCT9NGHS,391FPZIE5F2O3PY4X6RTCY19AQ3HU8,3S0TNUHWKXYCFVKJY9C0E509FWT8D8,2,1
40,1,object_06,object_03,967.0,1,1,319.0,0.1111111111111111,1,object_09,1,422,0,1,8,desert_6,1,memory-2step-stake-s,533,1690005,0.0-19.0-0.0-0.40,AXKTYKCT9NGHS,391FPZIE5F2O3PY4X6RTCY19AQ3HU8,3S0TNUHWKXYCFVKJY9C0E509FWT8D8,1,2
41,1,object_06,object_03,695.0,2,2,399.0,0.7777777777777778,2,object_02,1,429,0,3,7,desert_6,1,memory-2step-stake-s,534,1698450,0.0-19.0-0.0-0.41,AXKTYKCT9NGHS,391FPZIE5F2O3PY4X6RTCY19AQ3HU8,3S0TNUHWKXYCFVKJY9C0E509FWT8D8,1,2
42,2,object_01,object_07,773.0,3,2,350.0,0.0,1,object_09,1,429,0,0,5,forest_3,1,memory-2step-stake-s,535,1706087,0.0-19.0-0.0-0.42,AXKTYKCT9NGHS,391FPZIE5F2O3PY4X6RTCY19AQ3HU8,3S0TNUHWKXYCFVKJY9C0E509FWT8D8,4,3
43,4,object_04,object_10,842.0,7,1,345.0,0.1111111111111111,1,object_09,1,430,0,1,6,restaurant_6,1,memory-2step-stake-s,536,1713819,0.0-19.0-0.0-0.43,AXKTYKCT9NGHS,391FPZIE5F2O3PY4X6RTCY19AQ3HU8,3S0TNUHWKXYCFVKJY9C0E509FWT8D8,7,8
44,1,object_03,object_06,673.0,2,1,535.0,1.0,2,object_02,5,475,0,2,9,desert_8,1,memory-2step-stake-s,537,1722613,0.0-19.0-0.0-0.44,AXKTYKCT9NGHS,391FPZIE5F2O3PY4X6RTCY19AQ3HU8,3S0TNUHWKXYCFVKJY9C0E509FWT8D8,2,1
45,1,object_03,object_06,776.0,2,1,404.0,0.7777777777777778,2,object_02,5,510,0,0,7,desert_8,1,memory-2step-stake-s,538,1731065,0.0-19.0-0.0-0.45,AXKTYKCT9NGHS,391FPZIE5F2O3PY4X6RTCY19AQ3HU8,3S0TNUHWKXYCFVKJY9C0E509FWT8D8,2,1
46,1,object_06,object_03,675.0,2,2,355.0,0.8888888888888888,2,object_02,1,518,0,2,8,desert_2,1,memory-2step-stake-s,539,1739598,0.0-19.0-0.0-0.46,AXKTYKCT9NGHS,391FPZIE5F2O3PY4X6RTCY19AQ3HU8,3S0TNUHWKXYCFVKJY9C0E509FWT8D8,1,2
47,3,object_05,object_08,707.0,6,1,426.0,0.6666666666666666,2,object_02,1,524,0,3,6,library_7,1,memory-2step-stake-s,540,1747973,0.0-19.0-0.0-0.47,AXKTYKCT9NGHS,391FPZIE5F2O3PY4X6RTCY19AQ3HU8,3S0TNUHWKXYCFVKJY9C0E509FWT8D8,6,5
48,2,object_01,object_07,684.0,3,2,520.0,0.4444444444444444,1,object_09,1,528,0,4,3,forest_8,1,memory-2step-stake-s,541,1756212,0.0-19.0-0.0-0.48,AXKTYKCT9NGHS,391FPZIE5F2O3PY4X6RTCY19AQ3HU8,3S0TNUHWKXYCFVKJY9C0E509FWT8D8,4,3
49,1,object_06,object_03,678.0,2,2,573.0,0.2222222222222222,2,object_02,1,530,0,3,2,desert_6,1,memory-2step-stake-s,542,1764272,0.0-19.0-0.0-0.49,AXKTYKCT9NGHS,391FPZIE5F2O3PY4X6RTCY19AQ3HU8,3S0TNUHWKXYCFVKJY9C0E509FWT8D8,1,2
50,1,object_03,object_06,704.0,2,1,399.0,0.2222222222222222,2,object_02,1,532,0,4,2,desert_1,1,memory-2step-stake-s,543,1772151,0.0-19.0-0.0-0.50,AXKTYKCT9NGHS,391FPZIE5F2O3PY4X6RTCY19AQ3HU8,3S0TNUHWKXYCFVKJY9C0E509FWT8D8,2,1
51,4,object_10,object_04,793.0,7,2,376.0,0.6666666666666666,1,object_09,5,562,0,6,4,restaurant_2,1,memory-2step-stake-s,544,1780454,0.0-19.0-0.0-0.51,AXKTYKCT9NGHS,391FPZIE5F2O3PY4X6RTCY19AQ3HU8,3S0TNUHWKXYCFVKJY9C0E509FWT8D8,8,7
52,2,object_07,object_01,817.0,3,1,595.0,0.7777777777777778,1,object_09,1,569,0,7,5,forest_2,1,memory-2step-stake-s,545,1789085,0.0-19.0-0.0-0.52,AXKTYKCT9NGHS,391FPZIE5F2O3PY4X6RTCY19AQ3HU8,3S0TNUHWKXYCFVKJY9C0E509FWT8D8,3,4
53,2,object_07,object_01,1121.0,3,1,403.0,1.0,1,object_09,5,614,0,9,8,forest_3,1,memory-2step-stake-s,546,1797739,0.0-19.0-0.0-0.53,AXKTYKCT9NGHS,391FPZIE5F2O3PY4X6RTCY19AQ3HU8,3S0TNUHWKXYCFVKJY9C0E509FWT8D8,3,4
54,4,object_10,object_04,978.0,7,2,333.0,0.6666666666666666,1,object_09,5,644,0,6,6,restaurant_6,1,memory-2step-stake-s,547,1805990,0.0-19.0-0.0-0.54,AXKTYKCT9NGHS,391FPZIE5F2O3PY4X6RTCY19AQ3HU8,3S0TNUHWKXYCFVKJY9C0E509FWT8D8,8,7
55,2,object_07,object_01,715.0,4,2,422.0,0.4444444444444444,2,object_02,1,648,0,7,4,forest_8,1,memory-2step-stake-s,548,1814132,0.0-19.0-0.0-0.55,AXKTYKCT9NGHS,391FPZIE5F2O3PY4X6RTCY19AQ3HU8,3S0TNUHWKXYCFVKJY9C0E509FWT8D8,3,4
56,3,object_08,object_05,658.0,6,2,389.0,0.5555555555555556,2,object_02,1,653,0,9,5,library_3,1,memory-2step-stake-s,549,1822334,0.0-19.0-0.0-0.56,AXKTYKCT9NGHS,391FPZIE5F2O3PY4X6RTCY19AQ3HU8,3S0TNUHWKXYCFVKJY9C0E509FWT8D8,5,6
57,1,object_03,object_06,762.0,2,1,403.0,0.1111111111111111,2,object_02,1,654,0,8,1,desert_1,1,memory-2step-stake-s,550,1830127,0.0-19.0-0.0-0.57,AXKTYKCT9NGHS,391FPZIE5F2O3PY4X6RTCY19AQ3HU8,3S0TNUHWKXYCFVKJY9C0E509FWT8D8,2,1
58,4,object_10,object_04,1032.0,8,1,380.0,0.2222222222222222,2,object_02,5,664,0,7,2,restaurant_5,1,memory-2step-stake-s,551,1837994,0.0-19.0-0.0-0.58,AXKTYKCT9NGHS,391FPZIE5F2O3PY4X6RTCY19AQ3HU8,3S0TNUHWKXYCFVKJY9C0E509FWT8D8,8,7
59,4,object_04,object_10,890.0,8,2,384.0,0.1111111111111111,2,object_02,1,665,0,7,1,restaurant_5,1,memory-2step-stake-s,552,1845761,0.0-19.0-0.0-0.59,AXKTYKCT9NGHS,391FPZIE5F2O3PY4X6RTCY19AQ3HU8,3S0TNUHWKXYCFVKJY9C0E509FWT8D8,7,8
60,2,object_07,object_01,913.0,3,1,415.0,0.6666666666666666,1,object_09,1,671,0,6,2,forest_3,1,memory-2step-stake-s,553,1854093,0.0-19.0-0.0-0.60,AXKTYKCT9NGHS,391FPZIE5F2O3PY4X6RTCY19AQ3HU8,3S0TNUHWKXYCFVKJY9C0E509FWT8D8,3,4
61,1,object_06,object_03,697.0,2,2,314.0,0.2222222222222222,2,object_02,1,673,0,9,2,desert_1,1,memory-2step-stake-s,554,1861894,0.0-19.0-0.0-0.61,AXKTYKCT9NGHS,391FPZIE5F2O3PY4X6RTCY19AQ3HU8,3S0TNUHWKXYCFVKJY9C0E509FWT8D8,1,2
62,1,object_06,object_03,515.0,1,1,330.0,0.7777777777777778,1,object_09,1,680,0,7,3,desert_8,1,memory-2step-stake-s,555,1870255,0.0-19.0-0.0-0.62,AXKTYKCT9NGHS,391FPZIE5F2O3PY4X6RTCY19AQ3HU8,3S0TNUHWKXYCFVKJY9C0E509FWT8D8,1,2
63,1,object_03,object_06,610.0,2,1,392.0,0.6666666666666666,2,object_02,1,686,0,8,6,desert_2,1,memory-2step-stake-s,556,1878560,0.0-19.0-0.0-0.63,AXKTYKCT9NGHS,391FPZIE5F2O3PY4X6RTCY19AQ3HU8,3S0TNUHWKXYCFVKJY9C0E509FWT8D8,2,1
64,3,object_05,object_08,1207.0,6,1,494.0,0.2222222222222222,2,object_02,1,688,0,7,2,library_7,1,memory-2step-stake-s,557,1886516,0.0-19.0-0.0-0.64,AXKTYKCT9NGHS,391FPZIE5F2O3PY4X6RTCY19AQ3HU8,3S0TNUHWKXYCFVKJY9C0E509FWT8D8,6,5
65,2,object_01,object_07,940.0,3,2,396.0,0.8888888888888888,1,object_09,5,728,0,8,2,forest_8,1,memory-2step-stake-s,558,1895051,0.0-19.0-0.0-0.65,AXKTYKCT9NGHS,391FPZIE5F2O3PY4X6RTCY19AQ3HU8,3S0TNUHWKXYCFVKJY9C0E509FWT8D8,4,3
66,2,object_01,object_07,946.0,3,2,366.0,0.8888888888888888,1,object_09,1,736,0,8,2,forest_1,1,memory-2step-stake-s,559,1903549,0.0-19.0-0.0-0.66,AXKTYKCT9NGHS,391FPZIE5F2O3PY4X6RTCY19AQ3HU8,3S0TNUHWKXYCFVKJY9C0E509FWT8D8,4,3
67,3,object_05,object_08,813.0,5,2,363.0,1.0,1,object_09,1,745,0,9,7,library_1,1,memory-2step-stake-s,560,1912171,0.0-19.0-0.0-0.67,AXKTYKCT9NGHS,391FPZIE5F2O3PY4X6RTCY19AQ3HU8,3S0TNUHWKXYCFVKJY9C0E509FWT8D8,6,5
68,3,object_08,object_05,688.0,5,1,392.0,0.6666666666666666,1,object_09,5,775,0,6,6,library_3,1,memory-2step-stake-s,561,1920476,0.0-19.0-0.0-0.68,AXKTYKCT9NGHS,391FPZIE5F2O3PY4X6RTCY19AQ3HU8,3S0TNUHWKXYCFVKJY9C0E509FWT8D8,5,6
69,4,object_10,object_04,778.0,7,2,401.0,0.8888888888888888,1,object_09,1,783,0,8,8,restaurant_7,1,memory-2step-stake-s,562,1929029,0.0-19.0-0.0-0.69,AXKTYKCT9NGHS,391FPZIE5F2O3PY4X6RTCY19AQ3HU8,3S0TNUHWKXYCFVKJY9C0E509FWT8D8,8,7
70,1,object_06,object_03,866.0,1,1,305.0,0.6666666666666666,1,object_09,1,789,0,6,7,desert_2,1,memory-2step-stake-s,563,1937294,0.0-19.0-0.0-0.70,AXKTYKCT9NGHS,391FPZIE5F2O3PY4X6RTCY19AQ3HU8,3S0TNUHWKXYCFVKJY9C0E509FWT8D8,1,2
71,1,object_06,object_03,1038.0,1,1,362.0,0.7777777777777778,1,object_09,5,824,0,7,6,desert_2,1,memory-2step-stake-s,564,1945679,0.0-19.0-0.0-0.71,AXKTYKCT9NGHS,391FPZIE5F2O3PY4X6RTCY19AQ3HU8,3S0TNUHWKXYCFVKJY9C0E509FWT8D8,1,2
72,4,object_04,object_10,1115.0,7,1,622.0,0.8888888888888888,1,object_09,5,864,0,8,6,restaurant_2,1,memory-2step-stake-s,565,1954443,0.0-19.0-0.0-0.72,AXKTYKCT9NGHS,391FPZIE5F2O3PY4X6RTCY19AQ3HU8,3S0TNUHWKXYCFVKJY9C0E509FWT8D8,7,8
73,1,object_03,object_06,802.0,1,2,383.0,0.6666666666666666,1,object_09,1,870,0,6,9,desert_1,1,memory-2step-stake-s,566,1962726,0.0-19.0-0.0-0.73,AXKTYKCT9NGHS,391FPZIE5F2O3PY4X6RTCY19AQ3HU8,3S0TNUHWKXYCFVKJY9C0E509FWT8D8,2,1
74,3,object_08,object_05,1333.0,5,1,454.0,0.1111111111111111,1,object_09,5,875,0,1,9,library_6,1,memory-2step-stake-s,567,1970553,0.0-19.0-0.0-0.74,AXKTYKCT9NGHS,391FPZIE5F2O3PY4X6RTCY19AQ3HU8,3S0TNUHWKXYCFVKJY9C0E509FWT8D8,5,6
75,2,object_01,object_07,845.0,3,2,407.0,0.1111111111111111,1,object_09,1,876,0,1,9,forest_2,1,memory-2step-stake-s,568,1978346,0.0-19.0-0.0-0.75,AXKTYKCT9NGHS,391FPZIE5F2O3PY4X6RTCY19AQ3HU8,3S0TNUHWKXYCFVKJY9C0E509FWT8D8,4,3
76,4,object_04,object_10,940.0,7,1,355.0,0.1111111111111111,1,object_09,5,881,0,1,8,restaurant_2,1,memory-2step-stake-s,569,1986060,0.0-19.0-0.0-0.76,AXKTYKCT9NGHS,391FPZIE5F2O3PY4X6RTCY19AQ3HU8,3S0TNUHWKXYCFVKJY9C0E509FWT8D8,7,8
77,3,object_08,object_05,552.0,6,2,471.0,0.7777777777777778,2,object_02,1,888,0,4,7,library_3,1,memory-2step-stake-s,570,1994582,0.0-19.0-0.0-0.77,AXKTYKCT9NGHS,391FPZIE5F2O3PY4X6RTCY19AQ3HU8,3S0TNUHWKXYCFVKJY9C0E509FWT8D8,5,6
78,2,object_01,object_07,858.0,4,1,423.0,0.7777777777777778,2,object_02,1,895,0,6,7,forest_1,1,memory-2step-stake-s,571,2003011,0.0-19.0-0.0-0.78,AXKTYKCT9NGHS,391FPZIE5F2O3PY4X6RTCY19AQ3HU8,3S0TNUHWKXYCFVKJY9C0E509FWT8D8,4,3
79,1,object_06,object_03,1180.0,2,2,404.0,0.8888888888888888,2,object_02,1,903,0,8,8,desert_6,1,memory-2step-stake-s,572,2011581,0.0-19.0-0.0-0.79,AXKTYKCT9NGHS,391FPZIE5F2O3PY4X6RTCY19AQ3HU8,3S0TNUHWKXYCFVKJY9C0E509FWT8D8,1,2
80,2,object_07,object_01,867.0,4,2,369.0,0.8888888888888888,2,object_02,5,943,0,6,8,forest_2,1,memory-2step-stake-s,573,2020095,0.0-19.0-0.0-0.80,AXKTYKCT9NGHS,391FPZIE5F2O3PY4X6RTCY19AQ3HU8,3S0TNUHWKXYCFVKJY9C0E509FWT8D8,3,4
81,4,object_04,object_10,918.0,7,1,293.0,0.2222222222222222,1,object_09,1,945,0,2,4,restaurant_5,1,memory-2step-stake-s,574,2027875,0.0-19.0-0.0-0.81,AXKTYKCT9NGHS,391FPZIE5F2O3PY4X6RTCY19AQ3HU8,3S0TNUHWKXYCFVKJY9C0E509FWT8D8,7,8
82,1,object_06,object_03,768.0,2,2,384.0,0.8888888888888888,2,object_02,5,985,0,2,8,desert_8,1,memory-2step-stake-s,575,2036410,0.0-19.0-0.0-0.82,AXKTYKCT9NGHS,391FPZIE5F2O3PY4X6RTCY19AQ3HU8,3S0TNUHWKXYCFVKJY9C0E509FWT8D8,1,2
83,4,object_10,object_04,912.0,8,1,352.0,0.7777777777777778,2,object_02,5,1020,0,2,7,restaurant_7,1,memory-2step-stake-s,576,2044795,0.0-19.0-0.0-0.83,AXKTYKCT9NGHS,391FPZIE5F2O3PY4X6RTCY19AQ3HU8,3S0TNUHWKXYCFVKJY9C0E509FWT8D8,8,7
84,4,object_04,object_10,785.0,8,2,384.0,0.7777777777777778,2,object_02,1,1027,0,0,7,restaurant_6,1,memory-2step-stake-s,577,2053209,0.0-19.0-0.0-0.84,AXKTYKCT9NGHS,391FPZIE5F2O3PY4X6RTCY19AQ3HU8,3S0TNUHWKXYCFVKJY9C0E509FWT8D8,7,8
85,3,object_08,object_05,663.0,6,2,398.0,0.6666666666666666,2,object_02,5,1057,0,3,6,library_3,1,memory-2step-stake-s,578,2061543,0.0-19.0-0.0-0.85,AXKTYKCT9NGHS,391FPZIE5F2O3PY4X6RTCY19AQ3HU8,3S0TNUHWKXYCFVKJY9C0E509FWT8D8,5,6
86,2,object_01,object_07,693.0,4,1,553.0,0.5555555555555556,2,object_02,5,1082,0,5,5,forest_2,1,memory-2step-stake-s,579,2069918,0.0-19.0-0.0-0.86,AXKTYKCT9NGHS,391FPZIE5F2O3PY4X6RTCY19AQ3HU8,3S0TNUHWKXYCFVKJY9C0E509FWT8D8,4,3
87,2,object_01,object_07,814.0,3,2,308.0,0.7777777777777778,1,object_09,1,1089,0,7,2,forest_2,1,memory-2step-stake-s,580,2078253,0.0-19.0-0.0-0.87,AXKTYKCT9NGHS,391FPZIE5F2O3PY4X6RTCY19AQ3HU8,3S0TNUHWKXYCFVKJY9C0E509FWT8D8,4,3
88,4,object_10,object_04,983.0,8,1,355.0,0.1111111111111111,2,object_02,5,1094,0,7,1,restaurant_2,1,memory-2step-stake-s,581,2085994,0.0-19.0-0.0-0.88,AXKTYKCT9NGHS,391FPZIE5F2O3PY4X6RTCY19AQ3HU8,3S0TNUHWKXYCFVKJY9C0E509FWT8D8,8,7
89,4,object_04,object_10,985.0,7,1,370.0,0.7777777777777778,1,object_09,5,1129,0,7,1,restaurant_7,1,memory-2step-stake-s,582,2094378,0.0-19.0-0.0-0.89,AXKTYKCT9NGHS,391FPZIE5F2O3PY4X6RTCY19AQ3HU8,3S0TNUHWKXYCFVKJY9C0E509FWT8D8,7,8
90,4,object_10,object_04,601.0,7,2,371.0,0.6666666666666666,1,object_09,5,1159,0,6,0,restaurant_2,1,memory-2step-stake-s,583,2102681,0.0-19.0-0.0-0.90,AXKTYKCT9NGHS,391FPZIE5F2O3PY4X6RTCY19AQ3HU8,3S0TNUHWKXYCFVKJY9C0E509FWT8D8,8,7
91,2,object_01,object_07,1305.0,4,1,441.0,0.1111111111111111,2,object_02,1,1160,0,4,1,forest_2,1,memory-2step-stake-s,584,2110512,0.0-19.0-0.0-0.91,AXKTYKCT9NGHS,391FPZIE5F2O3PY4X6RTCY19AQ3HU8,3S0TNUHWKXYCFVKJY9C0E509FWT8D8,4,3
92,1,object_06,object_03,780.0,2,2,306.0,0.3333333333333333,2,object_02,1,1163,0,5,3,desert_8,1,memory-2step-stake-s,585,2118420,0.0-19.0-0.0-0.92,AXKTYKCT9NGHS,391FPZIE5F2O3PY4X6RTCY19AQ3HU8,3S0TNUHWKXYCFVKJY9C0E509FWT8D8,1,2
93,3,object_08,object_05,855.0,6,2,330.0,0.5555555555555556,2,object_02,5,1188,0,8,5,library_7,1,memory-2step-stake-s,586,2126571,0.0-19.0-0.0-0.93,AXKTYKCT9NGHS,391FPZIE5F2O3PY4X6RTCY19AQ3HU8,3S0TNUHWKXYCFVKJY9C0E509FWT8D8,5,6
94,4,object_04,object_10,904.0,7,1,378.0,1.0,1,object_09,5,1233,0,9,0,restaurant_6,1,memory-2step-stake-s,587,2135188,0.0-19.0-0.0-0.94,AXKTYKCT9NGHS,391FPZIE5F2O3PY4X6RTCY19AQ3HU8,3S0TNUHWKXYCFVKJY9C0E509FWT8D8,7,8
95,1,object_06,object_03,896.0,1,1,356.0,1.0,1,object_09,1,1242,0,9,1,desert_1,1,memory-2step-stake-s,588,2143779,0.0-19.0-0.0-0.95,AXKTYKCT9NGHS,391FPZIE5F2O3PY4X6RTCY19AQ3HU8,3S0TNUHWKXYCFVKJY9C0E509FWT8D8,1,2
96,2,object_01,object_07,1192.0,4,1,409.0,0.4444444444444444,2,object_02,1,1246,0,8,4,forest_2,1,memory-2step-stake-s,589,2151855,0.0-19.0-0.0-0.96,AXKTYKCT9NGHS,391FPZIE5F2O3PY4X6RTCY19AQ3HU8,3S0TNUHWKXYCFVKJY9C0E509FWT8D8,4,3
97,4,object_04,object_10,902.0,7,1,333.0,0.7777777777777778,1,object_09,5,1281,0,7,5,restaurant_2,1,memory-2step-stake-s,590,2160227,0.0-19.0-0.0-0.97,AXKTYKCT9NGHS,391FPZIE5F2O3PY4X6RTCY19AQ3HU8,3S0TNUHWKXYCFVKJY9C0E509FWT8D8,7,8
98,2,object_01,object_07,752.0,3,2,105.0,0.4444444444444444,1,object_09,1,1285,0,4,5,forest_2,1,memory-2step-stake-s,591,2168029,0.0-19.0-0.0-0.98,AXKTYKCT9NGHS,391FPZIE5F2O3PY4X6RTCY19AQ3HU8,3S0TNUHWKXYCFVKJY9C0E509FWT8D8,4,3
99,2,object_07,object_01,1015.0,3,1,349.0,0.2222222222222222,1,object_09,5,1295,0,2,4,forest_1,1,memory-2step-stake-s,592,2175865,0.0-19.0-0.0-0.99,AXKTYKCT9NGHS,391FPZIE5F2O3PY4X6RTCY19AQ3HU8,3S0TNUHWKXYCFVKJY9C0E509FWT8D8,3,4
100,1,object_06,object_03,913.0,2,2,305.0,0.2222222222222222,2,object_02,1,1297,0,2,2,desert_2,1,memory-2step-stake-s,593,2183628,0.0-19.0-0.0-0.100,AXKTYKCT9NGHS,391FPZIE5F2O3PY4X6RTCY19AQ3HU8,3S0TNUHWKXYCFVKJY9C0E509FWT8D8,1,2
101,4,object_04,object_10,1015.0,8,2,325.0,0.1111111111111111,2,object_02,5,1302,0,1,1,restaurant_5,1,memory-2step-stake-s,594,2191329,0.0-19.0-0.0-0.101,AXKTYKCT9NGHS,391FPZIE5F2O3PY4X6RTCY19AQ3HU8,3S0TNUHWKXYCFVKJY9C0E509FWT8D8,7,8
102,4,object_04,object_10,905.0,7,1,373.0,0.2222222222222222,1,object_09,5,1312,0,2,2,restaurant_5,1,memory-2step-stake-s,595,2199165,0.0-19.0-0.0-0.102,AXKTYKCT9NGHS,391FPZIE5F2O3PY4X6RTCY19AQ3HU8,3S0TNUHWKXYCFVKJY9C0E509FWT8D8,7,8
103,4,object_10,object_04,969.0,7,2,348.0,0.1111111111111111,1,object_09,5,1317,0,1,1,restaurant_6,1,memory-2step-stake-s,596,2206884,0.0-19.0-0.0-0.103,AXKTYKCT9NGHS,391FPZIE5F2O3PY4X6RTCY19AQ3HU8,3S0TNUHWKXYCFVKJY9C0E509FWT8D8,8,7
104,3,object_08,object_05,1085.0,6,2,416.0,0.0,2,object_02,1,1317,0,1,0,library_7,1,memory-2step-stake-s,597,2214560,0.0-19.0-0.0-0.104,AXKTYKCT9NGHS,391FPZIE5F2O3PY4X6RTCY19AQ3HU8,3S0TNUHWKXYCFVKJY9C0E509FWT8D8,5,6
105,3,object_05,object_08,900.0,5,2,468.0,0.2222222222222222,1,object_09,5,1327,0,2,4,library_1,1,memory-2step-stake-s,598,2222499,0.0-19.0-0.0-0.105,AXKTYKCT9NGHS,391FPZIE5F2O3PY4X6RTCY19AQ3HU8,3S0TNUHWKXYCFVKJY9C0E509FWT8D8,6,5
106,4,object_04,object_10,1223.0,7,1,447.0,0.2222222222222222,1,object_09,5,1337,0,2,2,restaurant_7,1,memory-2step-stake-s,599,2230432,0.0-19.0-0.0-0.106,AXKTYKCT9NGHS,391FPZIE5F2O3PY4X6RTCY19AQ3HU8,3S0TNUHWKXYCFVKJY9C0E509FWT8D8,7,8
107,1,object_06,object_03,969.0,2,2,307.0,0.2222222222222222,2,object_02,1,1339,0,3,2,desert_2,1,memory-2step-stake-s,600,2238223,0.0-19.0-0.0-0.107,AXKTYKCT9NGHS,391FPZIE5F2O3PY4X6RTCY19AQ3HU8,3S0TNUHWKXYCFVKJY9C0E509FWT8D8,1,2
108,3,object_05,object_08,1194.0,5,2,383.0,0.1111111111111111,1,object_09,5,1344,0,1,0,library_1,1,memory-2step-stake-s,601,2245998,0.0-19.0-0.0-0.108,AXKTYKCT9NGHS,391FPZIE5F2O3PY4X6RTCY19AQ3HU8,3S0TNUHWKXYCFVKJY9C0E509FWT8D8,6,5
109,3,object_05,object_08,532.0,6,1,401.0,0.1111111111111111,2,object_02,1,1345,0,1,1,library_3,1,memory-2step-stake-s,602,2253808,0.0-19.0-0.0-0.109,AXKTYKCT9NGHS,391FPZIE5F2O3PY4X6RTCY19AQ3HU8,3S0TNUHWKXYCFVKJY9C0E509FWT8D8,6,5
110,2,object_01,object_07,924.0,3,2,87.0,0.4444444444444444,1,object_09,1,1349,0,4,3,forest_1,1,memory-2step-stake-s,603,2261595,0.0-19.0-0.0-0.110,AXKTYKCT9NGHS,391FPZIE5F2O3PY4X6RTCY19AQ3HU8,3S0TNUHWKXYCFVKJY9C0E509FWT8D8,4,3
111,3,object_05,object_08,1271.0,5,2,392.0,0.6666666666666666,1,object_09,5,1379,0,6,1,library_1,1,memory-2step-stake-s,604,2269896,0.0-19.0-0.0-0.111,AXKTYKCT9NGHS,391FPZIE5F2O3PY4X6RTCY19AQ3HU8,3S0TNUHWKXYCFVKJY9C0E509FWT8D8,6,5
112,4,object_04,object_10,894.0,7,1,337.0,0.3333333333333333,1,object_09,5,1394,0,3,1,restaurant_5,1,memory-2step-stake-s,605,2277818,0.0-19.0-0.0-0.112,AXKTYKCT9NGHS,391FPZIE5F2O3PY4X6RTCY19AQ3HU8,3S0TNUHWKXYCFVKJY9C0E509FWT8D8,7,8
113,2,object_01,object_07,918.0,4,1,326.0,0.0,2,object_02,1,1394,0,1,0,forest_3,1,memory-2step-stake-s,606,2285413,0.0-19.0-0.0-0.113,AXKTYKCT9NGHS,391FPZIE5F2O3PY4X6RTCY19AQ3HU8,3S0TNUHWKXYCFVKJY9C0E509FWT8D8,4,3
114,3,object_08,object_05,930.0,6,2,304.0,0.1111111111111111,2,object_02,5,1399,0,1,1,library_6,1,memory-2step-stake-s,607,2293089,0.0-19.0-0.0-0.114,AXKTYKCT9NGHS,391FPZIE5F2O3PY4X6RTCY19AQ3HU8,3S0TNUHWKXYCFVKJY9C0E509FWT8D8,5,6
115,3,object_05,object_08,796.0,5,2,397.0,0.3333333333333333,1,object_09,5,1414,0,3,0,library_6,1,memory-2step-stake-s,608,2301075,0.0-19.0-0.0-0.115,AXKTYKCT9NGHS,391FPZIE5F2O3PY4X6RTCY19AQ3HU8,3S0TNUHWKXYCFVKJY9C0E509FWT8D8,6,5
116,1,object_03,object_06,782.0,2,1,330.0,0.1111111111111111,2,object_02,1,1415,0,3,1,desert_6,1,memory-2step-stake-s,609,2308759,0.0-19.0-0.0-0.116,AXKTYKCT9NGHS,391FPZIE5F2O3PY4X6RTCY19AQ3HU8,3S0TNUHWKXYCFVKJY9C0E509FWT8D8,2,1
117,2,object_07,object_01,982.0,3,1,351.0,0.0,1,object_09,1,1415,0,0,1,forest_8,1,memory-2step-stake-s,610,2316395,0.0-19.0-0.0-0.117,AXKTYKCT9NGHS,391FPZIE5F2O3PY4X6RTCY19AQ3HU8,3S0TNUHWKXYCFVKJY9C0E509FWT8D8,3,4
118,4,object_10,object_04,871.0,7,2,70.0,0.2222222222222222,1,object_09,1,1417,0,2,1,restaurant_5,1,memory-2step-stake-s,611,2323949,0.0-19.0-0.0-0.118,AXKTYKCT9NGHS,391FPZIE5F2O3PY4X6RTCY19AQ3HU8,3S0TNUHWKXYCFVKJY9C0E509FWT8D8,8,7
119,3,object_05,object_08,861.0,6,1,345.0,0.1111111111111111,2,object_02,5,1422,0,3,1,library_6,1,memory-2step-stake-s,612,2331660,0.0-19.0-0.0-0.119,AXKTYKCT9NGHS,391FPZIE5F2O3PY4X6RTCY19AQ3HU8,3S0TNUHWKXYCFVKJY9C0E509FWT8D8,6,5
120,4,object_04,object_10,767.0,8,2,206.0,0.2222222222222222,2,object_02,1,1424,0,5,2,restaurant_6,1,memory-2step-stake-s,613,2339353,0.0-19.0-0.0-0.120,AXKTYKCT9NGHS,391FPZIE5F2O3PY4X6RTCY19AQ3HU8,3S0TNUHWKXYCFVKJY9C0E509FWT8D8,7,8
121,2,object_01,object_07,1020.0,3,2,373.0,0.8888888888888888,1,object_09,1,1432,0,8,1,forest_3,1,memory-2step-stake-s,614,2347878,0.0-19.0-0.0-0.121,AXKTYKCT9NGHS,391FPZIE5F2O3PY4X6RTCY19AQ3HU8,3S0TNUHWKXYCFVKJY9C0E509FWT8D8,4,3
122,4,object_04,object_10,726.0,8,2,355.0,0.0,2,object_02,1,1432,0,6,0,restaurant_2,1,memory-2step-stake-s,615,2355498,0.0-19.0-0.0-0.122,AXKTYKCT9NGHS,391FPZIE5F2O3PY4X6RTCY19AQ3HU8,3S0TNUHWKXYCFVKJY9C0E509FWT8D8,7,8
123,4,object_04,object_10,869.0,7,1,352.0,0.6666666666666666,1,object_09,5,1462,0,6,2,restaurant_2,1,memory-2step-stake-s,616,2363770,0.0-19.0-0.0-0.123,AXKTYKCT9NGHS,391FPZIE5F2O3PY4X6RTCY19AQ3HU8,3S0TNUHWKXYCFVKJY9C0E509FWT8D8,7,8
124,4,object_04,object_10,914.0,7,1,390.0,0.7777777777777778,1,object_09,1,1469,0,7,0,restaurant_5,1,memory-2step-stake-s,617,2372204,0.0-19.0-0.0-0.124,AXKTYKCT9NGHS,391FPZIE5F2O3PY4X6RTCY19AQ3HU8,3S0TNUHWKXYCFVKJY9C0E509FWT8D8,7,8
125,3,object_05,object_08,893.0,5,2,338.0,0.8888888888888888,1,object_09,5,1509,0,8,1,library_7,1,memory-2step-stake-s,618,2380690,0.0-19.0-0.0-0.125,AXKTYKCT9NGHS,391FPZIE5F2O3PY4X6RTCY19AQ3HU8,3S0TNUHWKXYCFVKJY9C0E509FWT8D8,6,5
126,2,object_01,object_07,741.0,3,2,286.0,0.6666666666666666,1,object_09,1,1515,0,6,1,forest_1,1,memory-2step-stake-s,619,2388888,0.0-19.0-0.0-0.126,AXKTYKCT9NGHS,391FPZIE5F2O3PY4X6RTCY19AQ3HU8,3S0TNUHWKXYCFVKJY9C0E509FWT8D8,4,3
127,4,object_10,object_04,734.0,7,2,361.0,0.6666666666666666,1,object_09,1,1521,0,6,0,restaurant_5,1,memory-2step-stake-s,620,2397172,0.0-19.0-0.0-0.127,AXKTYKCT9NGHS,391FPZIE5F2O3PY4X6RTCY19AQ3HU8,3S0TNUHWKXYCFVKJY9C0E509FWT8D8,8,7
128,1,object_06,object_03,678.0,2,2,827.0,0.2222222222222222,2,object_02,1,1523,0,3,2,desert_8,1,memory-2step-stake-s,622,2419491,0.0-19.0-0.1-0.128,AXKTYKCT9NGHS,391FPZIE5F2O3PY4X6RTCY19AQ3HU8,3S0TNUHWKXYCFVKJY9C0E509FWT8D8,1,2
129,2,object_01,object_07,762.0,3,2,365.0,0.1111111111111111,1,object_09,1,1524,0,1,3,forest_1,1,memory-2step-stake-s,623,2427217,0.0-19.0-0.1-0.129,AXKTYKCT9NGHS,391FPZIE5F2O3PY4X6RTCY19AQ3HU8,3S0TNUHWKXYCFVKJY9C0E509FWT8D8,4,3
130,3,object_08,object_05,850.0,5,1,336.0,0.3333333333333333,1,object_09,5,1539,0,3,1,library_1,1,memory-2step-stake-s,624,2435161,0.0-19.0-0.1-0.130,AXKTYKCT9NGHS,391FPZIE5F2O3PY4X6RTCY19AQ3HU8,3S0TNUHWKXYCFVKJY9C0E509FWT8D8,5,6
131,2,object_01,object_07,723.0,3,2,323.0,0.3333333333333333,1,object_09,1,1542,0,3,2,forest_8,1,memory-2step-stake-s,625,2443091,0.0-19.0-0.1-0.131,AXKTYKCT9NGHS,391FPZIE5F2O3PY4X6RTCY19AQ3HU8,3S0TNUHWKXYCFVKJY9C0E509FWT8D8,4,3
132,1,object_03,object_06,959.0,1,2,343.0,0.2222222222222222,1,object_09,1,1544,0,2,2,desert_2,1,memory-2step-stake-s,626,2450921,0.0-19.0-0.1-0.132,AXKTYKCT9NGHS,391FPZIE5F2O3PY4X6RTCY19AQ3HU8,3S0TNUHWKXYCFVKJY9C0E509FWT8D8,2,1
133,4,object_10,object_04,682.0,7,2,301.0,0.6666666666666666,1,object_09,5,1574,0,6,5,restaurant_6,1,memory-2step-stake-s,627,2459132,0.0-19.0-0.1-0.133,AXKTYKCT9NGHS,391FPZIE5F2O3PY4X6RTCY19AQ3HU8,3S0TNUHWKXYCFVKJY9C0E509FWT8D8,8,7
134,3,object_05,object_08,754.0,6,1,280.0,0.3333333333333333,2,object_02,1,1577,0,7,3,library_1,1,memory-2step-stake-s,628,2467039,0.0-19.0-0.1-0.134,AXKTYKCT9NGHS,391FPZIE5F2O3PY4X6RTCY19AQ3HU8,3S0TNUHWKXYCFVKJY9C0E509FWT8D8,6,5
135,4,object_04,object_10,817.0,7,1,336.0,0.8888888888888888,1,object_09,5,1617,0,8,2,restaurant_7,1,memory-2step-stake-s,629,2475526,0.0-19.0-0.1-0.135,AXKTYKCT9NGHS,391FPZIE5F2O3PY4X6RTCY19AQ3HU8,3S0TNUHWKXYCFVKJY9C0E509FWT8D8,7,8
136,1,object_03,object_06,831.0,1,2,330.0,0.8888888888888888,1,object_09,1,1625,0,8,3,desert_2,1,memory-2step-stake-s,630,2484009,0.0-19.0-0.1-0.136,AXKTYKCT9NGHS,391FPZIE5F2O3PY4X6RTCY19AQ3HU8,3S0TNUHWKXYCFVKJY9C0E509FWT8D8,2,1
137,2,object_01,object_07,697.0,3,2,250.0,0.8888888888888888,1,object_09,1,1633,0,8,7,forest_2,1,memory-2step-stake-s,631,2492409,0.0-19.0-0.1-0.137,AXKTYKCT9NGHS,391FPZIE5F2O3PY4X6RTCY19AQ3HU8,3S0TNUHWKXYCFVKJY9C0E509FWT8D8,4,3
138,1,object_03,object_06,1025.0,1,2,413.0,0.8888888888888888,1,object_09,1,1641,0,8,9,desert_1,1,memory-2step-stake-s,632,2500948,0.0-19.0-0.1-0.138,AXKTYKCT9NGHS,391FPZIE5F2O3PY4X6RTCY19AQ3HU8,3S0TNUHWKXYCFVKJY9C0E509FWT8D8,2,1
139,1,object_03,object_06,839.0,1,2,370.0,0.8888888888888888,1,object_09,1,1649,0,8,7,desert_2,1,memory-2step-stake-s,633,2509440,0.0-19.0-0.1-0.139,AXKTYKCT9NGHS,391FPZIE5F2O3PY4X6RTCY19AQ3HU8,3S0TNUHWKXYCFVKJY9C0E509FWT8D8,2,1
140,1,object_06,object_03,948.0,1,1,425.0,1.0,1,object_09,1,1658,0,9,6,desert_6,1,memory-2step-stake-s,634,2518148,0.0-19.0-0.1-0.140,AXKTYKCT9NGHS,391FPZIE5F2O3PY4X6RTCY19AQ3HU8,3S0TNUHWKXYCFVKJY9C0E509FWT8D8,1,2
141,1,object_06,object_03,667.0,1,1,377.0,0.6666666666666666,1,object_09,5,1688,0,6,7,desert_1,1,memory-2step-stake-s,635,2526435,0.0-19.0-0.1-0.141,AXKTYKCT9NGHS,391FPZIE5F2O3PY4X6RTCY19AQ3HU8,3S0TNUHWKXYCFVKJY9C0E509FWT8D8,1,2
142,3,object_08,object_05,1228.0,6,2,375.0,0.5555555555555556,2,object_02,5,1713,0,4,5,library_6,1,memory-2step-stake-s,636,2534628,0.0-19.0-0.1-0.142,AXKTYKCT9NGHS,391FPZIE5F2O3PY4X6RTCY19AQ3HU8,3S0TNUHWKXYCFVKJY9C0E509FWT8D8,5,6
143,1,object_03,object_06,573.0,1,2,25.0,0.4444444444444444,1,object_09,5,1733,0,4,4,desert_8,1,memory-2step-stake-s,637,2542374,0.0-19.0-0.1-0.143,AXKTYKCT9NGHS,391FPZIE5F2O3PY4X6RTCY19AQ3HU8,3S0TNUHWKXYCFVKJY9C0E509FWT8D8,2,1
144,4,object_10,object_04,1143.0,7,2,348.0,0.6666666666666666,1,object_09,5,1763,0,6,2,restaurant_7,1,memory-2step-stake-s,638,2550640,0.0-19.0-0.1-0.144,AXKTYKCT9NGHS,391FPZIE5F2O3PY4X6RTCY19AQ3HU8,3S0TNUHWKXYCFVKJY9C0E509FWT8D8,8,7
145,2,object_01,object_07,731.0,4,1,333.0,0.3333333333333333,2,object_02,1,1766,0,4,3,forest_3,1,memory-2step-stake-s,639,2558550,0.0-19.0-0.1-0.145,AXKTYKCT9NGHS,391FPZIE5F2O3PY4X6RTCY19AQ3HU8,3S0TNUHWKXYCFVKJY9C0E509FWT8D8,4,3
146,4,object_10,object_04,706.0,7,2,353.0,0.5555555555555556,1,object_09,5,1791,0,5,3,restaurant_2,1,memory-2step-stake-s,640,2566718,0.0-19.0-0.1-0.146,AXKTYKCT9NGHS,391FPZIE5F2O3PY4X6RTCY19AQ3HU8,3S0TNUHWKXYCFVKJY9C0E509FWT8D8,8,7
147,3,object_05,object_08,1008.0,5,2,353.0,0.4444444444444444,1,object_09,5,1811,0,4,4,library_6,1,memory-2step-stake-s,641,2574769,0.0-19.0-0.1-0.147,AXKTYKCT9NGHS,391FPZIE5F2O3PY4X6RTCY19AQ3HU8,3S0TNUHWKXYCFVKJY9C0E509FWT8D8,6,5
148,4,object_04,object_10,848.0,7,1,308.0,0.4444444444444444,1,object_09,5,1831,0,4,0,restaurant_2,1,memory-2step-stake-s,642,2582776,0.0-19.0-0.1-0.148,AXKTYKCT9NGHS,391FPZIE5F2O3PY4X6RTCY19AQ3HU8,3S0TNUHWKXYCFVKJY9C0E509FWT8D8,7,8
149,3,object_08,object_05,765.0,6,2,299.0,0.3333333333333333,2,object_02,5,1846,0,3,3,library_6,1,memory-2step-stake-s,643,2590685,0.0-19.0-0.1-0.149,AXKTYKCT9NGHS,391FPZIE5F2O3PY4X6RTCY19AQ3HU8,3S0TNUHWKXYCFVKJY9C0E509FWT8D8,5,6
150,3,object_05,object_08,840.0,6,1,456.0,0.0,2,object_02,5,1846,0,3,0,library_6,1,memory-2step-stake-s,644,2598398,0.0-19.0-0.1-0.150,AXKTYKCT9NGHS,391FPZIE5F2O3PY4X6RTCY19AQ3HU8,3S0TNUHWKXYCFVKJY9C0E509FWT8D8,6,5
151,3,object_08,object_05,813.0,5,1,296.0,0.3333333333333333,1,object_09,1,1849,0,3,2,library_7,1,memory-2step-stake-s,645,2606298,0.0-19.0-0.1-0.151,AXKTYKCT9NGHS,391FPZIE5F2O3PY4X6RTCY19AQ3HU8,3S0TNUHWKXYCFVKJY9C0E509FWT8D8,5,6
152,3,object_08,object_05,630.0,5,1,338.0,0.5555555555555556,1,object_09,5,1874,0,5,2,library_6,1,memory-2step-stake-s,646,2614428,0.0-19.0-0.1-0.152,AXKTYKCT9NGHS,391FPZIE5F2O3PY4X6RTCY19AQ3HU8,3S0TNUHWKXYCFVKJY9C0E509FWT8D8,5,6
153,2,object_07,object_01,981.0,3,1,368.0,0.1111111111111111,1,object_09,1,1875,0,1,4,forest_8,1,memory-2step-stake-s,647,2622163,0.0-19.0-0.1-0.153,AXKTYKCT9NGHS,391FPZIE5F2O3PY4X6RTCY19AQ3HU8,3S0TNUHWKXYCFVKJY9C0E509FWT8D8,3,4
154,1,object_03,object_06,773.0,1,2,335.0,0.1111111111111111,1,object_09,1,1876,0,1,3,desert_2,1,memory-2step-stake-s,648,2629863,0.0-19.0-0.1-0.154,AXKTYKCT9NGHS,391FPZIE5F2O3PY4X6RTCY19AQ3HU8,3S0TNUHWKXYCFVKJY9C0E509FWT8D8,2,1
155,4,object_10,object_04,1032.0,8,1,369.0,0.1111111111111111,2,object_02,5,1881,0,1,1,restaurant_5,1,memory-2step-stake-s,649,2637598,0.0-19.0-0.1-0.155,AXKTYKCT9NGHS,391FPZIE5F2O3PY4X6RTCY19AQ3HU8,3S0TNUHWKXYCFVKJY9C0E509FWT8D8,8,7
156,2,object_07,object_01,862.0,3,1,415.0,0.2222222222222222,1,object_09,1,1883,0,2,0,forest_8,1,memory-2step-stake-s,650,2645515,0.0-19.0-0.1-0.156,AXKTYKCT9NGHS,391FPZIE5F2O3PY4X6RTCY19AQ3HU8,3S0TNUHWKXYCFVKJY9C0E509FWT8D8,3,4
157,1,object_03,object_06,803.0,1,2,163.0,0.4444444444444444,1,object_09,5,1903,0,4,1,desert_6,1,memory-2step-stake-s,651,2653363,0.0-19.0-0.1-0.157,AXKTYKCT9NGHS,391FPZIE5F2O3PY4X6RTCY19AQ3HU8,3S0TNUHWKXYCFVKJY9C0E509FWT8D8,2,1
158,4,object_04,object_10,1059.0,7,1,378.0,0.1111111111111111,1,object_09,5,1908,0,1,2,restaurant_7,1,memory-2step-stake-s,652,2661142,0.0-19.0-0.1-0.158,AXKTYKCT9NGHS,391FPZIE5F2O3PY4X6RTCY19AQ3HU8,3S0TNUHWKXYCFVKJY9C0E509FWT8D8,7,8
159,3,object_08,object_05,-1.0,-1,-1,-1.0,0.0,-,0,5,1908,0,1,1,library_3,1,memory-2step-stake-s,653,2667688,0.0-19.0-0.1-0.159,AXKTYKCT9NGHS,391FPZIE5F2O3PY4X6RTCY19AQ3HU8,3S0TNUHWKXYCFVKJY9C0E509FWT8D8,5,6
160,1,object_03,object_06,895.0,2,1,426.0,0.3333333333333333,2,object_02,5,1923,0,1,3,desert_1,1,memory-2step-stake-s,654,2675716,0.0-19.0-0.1-0.160,AXKTYKCT9NGHS,391FPZIE5F2O3PY4X6RTCY19AQ3HU8,3S0TNUHWKXYCFVKJY9C0E509FWT8D8,2,1
161,3,object_05,object_08,851.0,5,2,370.0,0.1111111111111111,1,object_09,5,1928,0,1,4,library_3,1,memory-2step-stake-s,655,2683471,0.0-19.0-0.1-0.161,AXKTYKCT9NGHS,391FPZIE5F2O3PY4X6RTCY19AQ3HU8,3S0TNUHWKXYCFVKJY9C0E509FWT8D8,6,5
162,1,object_03,object_06,714.0,2,1,330.0,0.4444444444444444,2,object_02,1,1932,0,0,4,desert_1,1,memory-2step-stake-s,656,2691526,0.0-19.0-0.1-0.162,AXKTYKCT9NGHS,391FPZIE5F2O3PY4X6RTCY19AQ3HU8,3S0TNUHWKXYCFVKJY9C0E509FWT8D8,2,1
163,2,object_01,object_07,692.0,3,2,401.0,0.1111111111111111,1,object_09,1,1933,0,1,3,forest_1,1,memory-2step-stake-s,657,2699295,0.0-19.0-0.1-0.163,AXKTYKCT9NGHS,391FPZIE5F2O3PY4X6RTCY19AQ3HU8,3S0TNUHWKXYCFVKJY9C0E509FWT8D8,4,3
164,1,object_03,object_06,667.0,2,1,356.0,0.0,2,object_02,1,1933,0,1,0,desert_8,1,memory-2step-stake-s,658,2706924,0.0-19.0-0.1-0.164,AXKTYKCT9NGHS,391FPZIE5F2O3PY4X6RTCY19AQ3HU8,3S0TNUHWKXYCFVKJY9C0E509FWT8D8,2,1
165,4,object_04,object_10,811.0,7,1,328.0,0.2222222222222222,1,object_09,5,1943,0,2,1,restaurant_6,1,memory-2step-stake-s,659,2714740,0.0-19.0-0.1-0.165,AXKTYKCT9NGHS,391FPZIE5F2O3PY4X6RTCY19AQ3HU8,3S0TNUHWKXYCFVKJY9C0E509FWT8D8,7,8
166,2,object_01,object_07,697.0,3,2,322.0,0.1111111111111111,1,object_09,5,1948,0,1,0,forest_8,1,memory-2step-stake-s,660,2722423,0.0-19.0-0.1-0.166,AXKTYKCT9NGHS,391FPZIE5F2O3PY4X6RTCY19AQ3HU8,3S0TNUHWKXYCFVKJY9C0E509FWT8D8,4,3
167,3,object_05,object_08,806.0,6,1,306.0,0.2222222222222222,2,object_02,1,1950,0,4,2,library_7,1,memory-2step-stake-s,661,2730210,0.0-19.0-0.1-0.167,AXKTYKCT9NGHS,391FPZIE5F2O3PY4X6RTCY19AQ3HU8,3S0TNUHWKXYCFVKJY9C0E509FWT8D8,6,5
168,2,object_07,object_01,789.0,4,2,338.0,0.3333333333333333,2,object_02,1,1953,0,4,3,forest_2,1,memory-2step-stake-s,662,2738147,0.0-19.0-0.1-0.168,AXKTYKCT9NGHS,391FPZIE5F2O3PY4X6RTCY19AQ3HU8,3S0TNUHWKXYCFVKJY9C0E509FWT8D8,3,4
169,3,object_08,object_05,627.0,5,1,320.0,0.6666666666666666,1,object_09,5,1983,0,6,3,library_7,1,memory-2step-stake-s,663,2746390,0.0-19.0-0.1-0.169,AXKTYKCT9NGHS,391FPZIE5F2O3PY4X6RTCY19AQ3HU8,3S0TNUHWKXYCFVKJY9C0E509FWT8D8,5,6
170,3,object_08,object_05,549.0,5,1,280.0,1.0,1,object_09,5,2028,0,9,4,library_6,1,memory-2step-stake-s,664,2754922,0.0-19.0-0.1-0.170,AXKTYKCT9NGHS,391FPZIE5F2O3PY4X6RTCY19AQ3HU8,3S0TNUHWKXYCFVKJY9C0E509FWT8D8,5,6
171,2,object_07,object_01,804.0,4,2,190.0,0.3333333333333333,2,object_02,1,2031,0,7,3,forest_1,1,memory-2step-stake-s,665,2762726,0.0-19.0-0.1-0.171,AXKTYKCT9NGHS,391FPZIE5F2O3PY4X6RTCY19AQ3HU8,3S0TNUHWKXYCFVKJY9C0E509FWT8D8,3,4
172,4,object_10,object_04,720.0,7,2,339.0,0.6666666666666666,1,object_09,5,2061,0,6,1,restaurant_2,1,memory-2step-stake-s,666,2771002,0.0-19.0-0.1-0.172,AXKTYKCT9NGHS,391FPZIE5F2O3PY4X6RTCY19AQ3HU8,3S0TNUHWKXYCFVKJY9C0E509FWT8D8,8,7
173,3,object_08,object_05,878.0,5,1,341.0,0.6666666666666666,1,object_09,1,2067,0,6,0,library_6,1,memory-2step-stake-s,667,2779263,0.0-19.0-0.1-0.173,AXKTYKCT9NGHS,391FPZIE5F2O3PY4X6RTCY19AQ3HU8,3S0TNUHWKXYCFVKJY9C0E509FWT8D8,5,6
174,3,object_05,object_08,727.0,5,2,359.0,0.3333333333333333,1,object_09,1,2070,0,3,1,library_3,1,memory-2step-stake-s,668,2787208,0.0-19.0-0.1-0.174,AXKTYKCT9NGHS,391FPZIE5F2O3PY4X6RTCY19AQ3HU8,3S0TNUHWKXYCFVKJY9C0E509FWT8D8,6,5
175,4,object_04,object_10,706.0,7,1,328.0,0.6666666666666666,1,object_09,5,2100,0,6,2,restaurant_6,1,memory-2step-stake-s,669,2795477,0.0-19.0-0.1-0.175,AXKTYKCT9NGHS,391FPZIE5F2O3PY4X6RTCY19AQ3HU8,3S0TNUHWKXYCFVKJY9C0E509FWT8D8,7,8
176,3,object_08,object_05,538.0,6,2,364.0,0.0,2,object_02,5,2100,0,6,0,library_7,1,memory-2step-stake-s,670,2803084,0.0-19.0-0.1-0.176,AXKTYKCT9NGHS,391FPZIE5F2O3PY4X6RTCY19AQ3HU8,3S0TNUHWKXYCFVKJY9C0E509FWT8D8,5,6
177,2,object_01,object_07,663.0,4,1,323.0,0.0,2,object_02,1,2100,0,5,0,forest_8,1,memory-2step-stake-s,671,2810655,0.0-19.0-0.1-0.177,AXKTYKCT9NGHS,391FPZIE5F2O3PY4X6RTCY19AQ3HU8,3S0TNUHWKXYCFVKJY9C0E509FWT8D8,4,3
178,4,object_10,object_04,678.0,7,2,147.0,0.5555555555555556,1,object_09,5,2125,0,5,2,restaurant_5,1,memory-2step-stake-s,672,2818643,0.0-19.0-0.1-0.178,AXKTYKCT9NGHS,391FPZIE5F2O3PY4X6RTCY19AQ3HU8,3S0TNUHWKXYCFVKJY9C0E509FWT8D8,8,7
179,1,object_03,object_06,767.0,2,1,293.0,0.2222222222222222,2,object_02,1,2127,0,7,2,desert_1,1,memory-2step-stake-s,673,2826419,0.0-19.0-0.1-0.179,AXKTYKCT9NGHS,391FPZIE5F2O3PY4X6RTCY19AQ3HU8,3S0TNUHWKXYCFVKJY9C0E509FWT8D8,2,1
180,4,object_04,object_10,998.0,8,2,384.0,0.1111111111111111,2,object_02,5,2132,0,3,1,restaurant_5,1,memory-2step-stake-s,674,2834193,0.0-19.0-0.1-0.180,AXKTYKCT9NGHS,391FPZIE5F2O3PY4X6RTCY19AQ3HU8,3S0TNUHWKXYCFVKJY9C0E509FWT8D8,7,8
181,1,object_03,object_06,770.0,1,2,314.0,0.5555555555555556,1,object_09,1,2137,0,5,2,desert_2,1,memory-2step-stake-s,675,2842318,0.0-19.0-0.1-0.181,AXKTYKCT9NGHS,391FPZIE5F2O3PY4X6RTCY19AQ3HU8,3S0TNUHWKXYCFVKJY9C0E509FWT8D8,2,1
182,1,object_03,object_06,537.0,1,2,385.0,1.0,1,object_09,1,2146,0,9,1,desert_8,1,memory-2step-stake-s,676,2850964,0.0-19.0-0.1-0.182,AXKTYKCT9NGHS,391FPZIE5F2O3PY4X6RTCY19AQ3HU8,3S0TNUHWKXYCFVKJY9C0E509FWT8D8,2,1
183,2,object_07,object_01,725.0,3,1,352.0,0.8888888888888888,1,object_09,1,2154,0,8,1,forest_1,1,memory-2step-stake-s,677,2859457,0.0-19.0-0.1-0.183,AXKTYKCT9NGHS,391FPZIE5F2O3PY4X6RTCY19AQ3HU8,3S0TNUHWKXYCFVKJY9C0E509FWT8D8,3,4
184,2,object_01,object_07,738.0,3,2,363.0,0.8888888888888888,1,object_09,1,2162,0,8,2,forest_2,1,memory-2step-stake-s,678,2867959,0.0-19.0-0.1-0.184,AXKTYKCT9NGHS,391FPZIE5F2O3PY4X6RTCY19AQ3HU8,3S0TNUHWKXYCFVKJY9C0E509FWT8D8,4,3
185,2,object_07,object_01,841.0,3,1,883.0,0.6666666666666666,1,object_09,1,2168,0,6,0,forest_1,1,memory-2step-stake-s,679,2876757,0.0-19.0-0.1-0.185,AXKTYKCT9NGHS,391FPZIE5F2O3PY4X6RTCY19AQ3HU8,3S0TNUHWKXYCFVKJY9C0E509FWT8D8,3,4
186,4,object_10,object_04,623.0,7,2,336.0,0.7777777777777778,1,object_09,5,2203,0,7,3,restaurant_7,1,memory-2step-stake-s,680,2885099,0.0-19.0-0.1-0.186,AXKTYKCT9NGHS,391FPZIE5F2O3PY4X6RTCY19AQ3HU8,3S0TNUHWKXYCFVKJY9C0E509FWT8D8,8,7
187,2,object_07,object_01,637.0,4,2,343.0,0.5555555555555556,2,object_02,1,2208,0,8,5,forest_1,1,memory-2step-stake-s,681,2893259,0.0-19.0-0.1-0.187,AXKTYKCT9NGHS,391FPZIE5F2O3PY4X6RTCY19AQ3HU8,3S0TNUHWKXYCFVKJY9C0E509FWT8D8,3,4
188,3,object_05,object_08,824.0,6,1,381.0,0.3333333333333333,2,object_02,5,2223,0,5,3,library_7,1,memory-2step-stake-s,682,2901243,0.0-19.0-0.1-0.188,AXKTYKCT9NGHS,391FPZIE5F2O3PY4X6RTCY19AQ3HU8,3S0TNUHWKXYCFVKJY9C0E509FWT8D8,6,5
189,2,object_01,object_07,627.0,3,2,326.0,0.8888888888888888,1,object_09,5,2263,0,8,2,forest_8,1,memory-2step-stake-s,683,2909693,0.0-19.0-0.1-0.189,AXKTYKCT9NGHS,391FPZIE5F2O3PY4X6RTCY19AQ3HU8,3S0TNUHWKXYCFVKJY9C0E509FWT8D8,4,3
190,3,object_05,object_08,542.0,5,2,376.0,0.6666666666666666,1,object_09,1,2269,0,6,2,library_3,1,memory-2step-stake-s,684,2917967,0.0-19.0-0.1-0.190,AXKTYKCT9NGHS,391FPZIE5F2O3PY4X6RTCY19AQ3HU8,3S0TNUHWKXYCFVKJY9C0E509FWT8D8,6,5
191,2,object_07,object_01,763.0,3,1,383.0,0.7777777777777778,1,object_09,1,2276,0,7,0,forest_8,1,memory-2step-stake-s,685,2926393,0.0-19.0-0.1-0.191,AXKTYKCT9NGHS,391FPZIE5F2O3PY4X6RTCY19AQ3HU8,3S0TNUHWKXYCFVKJY9C0E509FWT8D8,3,4
192,2,object_01,object_07,682.0,4,1,324.0,0.4444444444444444,2,object_02,1,2280,0,6,4,forest_3,1,memory-2step-stake-s,686,2934387,0.0-19.0-0.1-0.192,AXKTYKCT9NGHS,391FPZIE5F2O3PY4X6RTCY19AQ3HU8,3S0TNUHWKXYCFVKJY9C0E509FWT8D8,4,3
193,4,object_10,object_04,661.0,7,2,306.0,0.7777777777777778,1,object_09,5,2315,0,7,2,restaurant_2,1,memory-2step-stake-s,687,2942737,0.0-19.0-0.1-0.193,AXKTYKCT9NGHS,391FPZIE5F2O3PY4X6RTCY19AQ3HU8,3S0TNUHWKXYCFVKJY9C0E509FWT8D8,8,7
194,2,object_01,object_07,671.0,3,2,397.0,0.3333333333333333,1,object_09,1,2318,0,3,4,forest_1,1,memory-2step-stake-s,688,2950761,0.0-19.0-0.1-0.194,AXKTYKCT9NGHS,391FPZIE5F2O3PY4X6RTCY19AQ3HU8,3S0TNUHWKXYCFVKJY9C0E509FWT8D8,4,3
195,2,object_07,object_01,869.0,3,1,979.0,0.3333333333333333,1,object_09,1,2321,0,3,5,forest_3,1,memory-2step-stake-s,689,2959330,0.0-19.0-0.1-0.195,AXKTYKCT9NGHS,391FPZIE5F2O3PY4X6RTCY19AQ3HU8,3S0TNUHWKXYCFVKJY9C0E509FWT8D8,3,4
196,2,object_07,object_01,678.0,3,1,289.0,0.4444444444444444,1,object_09,1,2325,0,4,4,forest_8,1,memory-2step-stake-s,690,2967287,0.0-19.0-0.1-0.196,AXKTYKCT9NGHS,391FPZIE5F2O3PY4X6RTCY19AQ3HU8,3S0TNUHWKXYCFVKJY9C0E509FWT8D8,3,4
197,1,object_03,object_06,764.0,1,2,360.0,0.1111111111111111,1,object_09,5,2330,0,1,3,desert_8,1,memory-2step-stake-s,691,2975028,0.0-19.0-0.1-0.197,AXKTYKCT9NGHS,391FPZIE5F2O3PY4X6RTCY19AQ3HU8,3S0TNUHWKXYCFVKJY9C0E509FWT8D8,2,1
198,1,object_06,object_03,710.0,1,1,179.0,0.1111111111111111,1,object_09,1,2331,0,1,5,desert_1,1,memory-2step-stake-s,692,2982601,0.0-19.0-0.1-0.198,AXKTYKCT9NGHS,391FPZIE5F2O3PY4X6RTCY19AQ3HU8,3S0TNUHWKXYCFVKJY9C0E509FWT8D8,1,2
199,2,object_01,object_07,837.0,4,1,287.0,0.7777777777777778,2,object_02,1,2338,0,4,7,forest_3,1,memory-2step-stake-s,693,2990910,0.0-19.0-0.1-0.199,AXKTYKCT9NGHS,391FPZIE5F2O3PY4X6RTCY19AQ3HU8,3S0TNUHWKXYCFVKJY9C0E509FWT8D8,4,3
200,2,object_07,object_01,989.0,4,2,344.0,0.4444444444444444,2,object_02,5,2358,0,3,4,forest_1,1,memory-2step-stake-s,694,2998969,0.0-19.0-0.1-0.200,AXKTYKCT9NGHS,391FPZIE5F2O3PY4X6RTCY19AQ3HU8,3S0TNUHWKXYCFVKJY9C0E509FWT8D8,3,4
201,1,object_06,object_03,791.0,2,2,334.0,0.3333333333333333,2,object_02,5,2373,0,2,3,desert_6,1,memory-2step-stake-s,695,3006895,0.0-19.0-0.1-0.201,AXKTYKCT9NGHS,391FPZIE5F2O3PY4X6RTCY19AQ3HU8,3S0TNUHWKXYCFVKJY9C0E509FWT8D8,1,2
202,3,object_08,object_05,600.0,5,1,343.0,0.2222222222222222,1,object_09,5,2383,0,2,5,library_7,1,memory-2step-stake-s,696,3014705,0.0-19.0-0.1-0.202,AXKTYKCT9NGHS,391FPZIE5F2O3PY4X6RTCY19AQ3HU8,3S0TNUHWKXYCFVKJY9C0E509FWT8D8,5,6
203,1,object_03,object_06,810.0,2,1,264.0,1.0,2,object_02,1,2392,0,2,9,desert_6,1,memory-2step-stake-s,697,3023240,0.0-19.0-0.1-0.203,AXKTYKCT9NGHS,391FPZIE5F2O3PY4X6RTCY19AQ3HU8,3S0TNUHWKXYCFVKJY9C0E509FWT8D8,2,1
204,1,object_06,object_03,801.0,2,2,363.0,0.8888888888888888,2,object_02,1,2400,0,6,8,desert_1,1,memory-2step-stake-s,698,3031740,0.0-19.0-0.1-0.204,AXKTYKCT9NGHS,391FPZIE5F2O3PY4X6RTCY19AQ3HU8,3S0TNUHWKXYCFVKJY9C0E509FWT8D8,1,2
205,1,object_03,object_06,893.0,2,1,313.0,0.7777777777777778,2,object_02,1,2407,0,6,7,desert_8,1,memory-2step-stake-s,699,3040093,0.0-19.0-0.1-0.205,AXKTYKCT9NGHS,391FPZIE5F2O3PY4X6RTCY19AQ3HU8,3S0TNUHWKXYCFVKJY9C0E509FWT8D8,2,1
206,3,object_08,object_05,625.0,6,2,274.0,0.7777777777777778,2,object_02,5,2442,0,7,7,library_7,1,memory-2step-stake-s,700,3048391,0.0-19.0-0.1-0.206,AXKTYKCT9NGHS,391FPZIE5F2O3PY4X6RTCY19AQ3HU8,3S0TNUHWKXYCFVKJY9C0E509FWT8D8,5,6
207,4,object_10,object_04,719.0,7,2,317.0,0.6666666666666666,1,object_09,5,2472,0,6,5,restaurant_5,1,memory-2step-stake-s,701,3056614,0.0-19.0-0.1-0.207,AXKTYKCT9NGHS,391FPZIE5F2O3PY4X6RTCY19AQ3HU8,3S0TNUHWKXYCFVKJY9C0E509FWT8D8,8,7
208,2,object_07,object_01,876.0,3,1,294.0,0.7777777777777778,1,object_09,1,2479,0,7,6,forest_2,1,memory-2step-stake-s,702,3064936,0.0-19.0-0.1-0.208,AXKTYKCT9NGHS,391FPZIE5F2O3PY4X6RTCY19AQ3HU8,3S0TNUHWKXYCFVKJY9C0E509FWT8D8,3,4
209,2,object_07,object_01,609.0,3,1,329.0,0.5555555555555556,1,object_09,1,2484,0,5,7,forest_1,1,memory-2step-stake-s,703,3073068,0.0-19.0-0.1-0.209,AXKTYKCT9NGHS,391FPZIE5F2O3PY4X6RTCY19AQ3HU8,3S0TNUHWKXYCFVKJY9C0E509FWT8D8,3,4
210,4,object_10,object_04,673.0,7,2,334.0,0.4444444444444444,1,object_09,1,2488,0,4,9,restaurant_5,1,memory-2step-stake-s,704,3081117,0.0-19.0-0.1-0.210,AXKTYKCT9NGHS,391FPZIE5F2O3PY4X6RTCY19AQ3HU8,3S0TNUHWKXYCFVKJY9C0E509FWT8D8,8,7
211,4,object_10,object_04,719.0,7,2,284.0,0.1111111111111111,1,object_09,5,2493,0,1,8,restaurant_7,1,memory-2step-stake-s,705,3088773,0.0-19.0-0.1-0.211,AXKTYKCT9NGHS,391FPZIE5F2O3PY4X6RTCY19AQ3HU8,3S0TNUHWKXYCFVKJY9C0E509FWT8D8,8,7
212,3,object_08,object_05,1041.0,5,1,402.0,0.1111111111111111,1,object_09,5,2498,0,1,8,library_3,1,memory-2step-stake-s,706,3096529,0.0-19.0-0.1-0.212,AXKTYKCT9NGHS,391FPZIE5F2O3PY4X6RTCY19AQ3HU8,3S0TNUHWKXYCFVKJY9C0E509FWT8D8,5,6
213,4,object_10,object_04,800.0,8,1,329.0,0.7777777777777778,2,object_02,5,2533,0,4,7,restaurant_2,1,memory-2step-stake-s,707,3104897,0.0-19.0-0.1-0.213,AXKTYKCT9NGHS,391FPZIE5F2O3PY4X6RTCY19AQ3HU8,3S0TNUHWKXYCFVKJY9C0E509FWT8D8,8,7
214,2,object_01,object_07,777.0,3,2,281.0,0.2222222222222222,1,object_09,1,2535,0,2,8,forest_2,1,memory-2step-stake-s,708,3112668,0.0-19.0-0.1-0.214,AXKTYKCT9NGHS,391FPZIE5F2O3PY4X6RTCY19AQ3HU8,3S0TNUHWKXYCFVKJY9C0E509FWT8D8,4,3
215,2,object_01,object_07,808.0,3,2,212.0,0.3333333333333333,1,object_09,1,2538,0,3,7,forest_3,1,memory-2step-stake-s,709,3120472,0.0-19.0-0.1-0.215,AXKTYKCT9NGHS,391FPZIE5F2O3PY4X6RTCY19AQ3HU8,3S0TNUHWKXYCFVKJY9C0E509FWT8D8,4,3
216,2,object_07,object_01,751.0,3,1,307.0,0.1111111111111111,1,object_09,1,2539,0,1,6,forest_8,1,memory-2step-stake-s,710,3128155,0.0-19.0-0.1-0.216,AXKTYKCT9NGHS,391FPZIE5F2O3PY4X6RTCY19AQ3HU8,3S0TNUHWKXYCFVKJY9C0E509FWT8D8,3,4
217,2,object_07,object_01,567.0,4,2,275.0,0.5555555555555556,2,object_02,1,2544,0,1,5,forest_2,1,memory-2step-stake-s,711,3136226,0.0-19.0-0.1-0.217,AXKTYKCT9NGHS,391FPZIE5F2O3PY4X6RTCY19AQ3HU8,3S0TNUHWKXYCFVKJY9C0E509FWT8D8,3,4
218,2,object_07,object_01,546.0,4,2,259.0,0.4444444444444444,2,object_02,1,2548,0,1,4,forest_3,1,memory-2step-stake-s,712,3144178,0.0-19.0-0.1-0.218,AXKTYKCT9NGHS,391FPZIE5F2O3PY4X6RTCY19AQ3HU8,3S0TNUHWKXYCFVKJY9C0E509FWT8D8,3,4
219,1,object_06,object_03,790.0,2,2,320.0,0.6666666666666666,2,object_02,1,2554,0,2,6,desert_2,1,memory-2step-stake-s,713,3152411,0.0-19.0-0.1-0.219,AXKTYKCT9NGHS,391FPZIE5F2O3PY4X6RTCY19AQ3HU8,3S0TNUHWKXYCFVKJY9C0E509FWT8D8,1,2
220,4,object_10,object_04,772.0,8,1,149.0,0.6666666666666666,2,object_02,1,2560,0,2,6,restaurant_6,1,memory-2step-stake-s,714,3160478,0.0-19.0-0.1-0.220,AXKTYKCT9NGHS,391FPZIE5F2O3PY4X6RTCY19AQ3HU8,3S0TNUHWKXYCFVKJY9C0E509FWT8D8,8,7
221,1,object_06,object_03,818.0,1,1,332.0,0.1111111111111111,1,object_09,1,2561,0,1,4,desert_8,1,memory-2step-stake-s,715,3168206,0.0-19.0-0.1-0.221,AXKTYKCT9NGHS,391FPZIE5F2O3PY4X6RTCY19AQ3HU8,3S0TNUHWKXYCFVKJY9C0E509FWT8D8,1,2
222,1,object_03,object_06,690.0,2,1,315.0,0.6666666666666666,2,object_02,1,2567,0,4,6,desert_6,1,memory-2step-stake-s,716,3176465,0.0-19.0-0.1-0.222,AXKTYKCT9NGHS,391FPZIE5F2O3PY4X6RTCY19AQ3HU8,3S0TNUHWKXYCFVKJY9C0E509FWT8D8,2,1
223,4,object_10,object_04,767.0,7,2,355.0,0.6666666666666666,1,object_09,5,2597,0,6,5,restaurant_5,1,memory-2step-stake-s,717,3184740,0.0-19.0-0.1-0.223,AXKTYKCT9NGHS,391FPZIE5F2O3PY4X6RTCY19AQ3HU8,3S0TNUHWKXYCFVKJY9C0E509FWT8D8,8,7
224,3,object_05,object_08,971.0,6,1,347.0,0.5555555555555556,2,object_02,5,2622,0,8,5,library_6,1,memory-2step-stake-s,718,3192895,0.0-19.0-0.1-0.224,AXKTYKCT9NGHS,391FPZIE5F2O3PY4X6RTCY19AQ3HU8,3S0TNUHWKXYCFVKJY9C0E509FWT8D8,6,5
225,1,object_06,object_03,731.0,2,2,310.0,0.6666666666666666,2,object_02,5,2652,0,7,6,desert_6,1,memory-2step-stake-s,719,3201144,0.0-19.0-0.1-0.225,AXKTYKCT9NGHS,391FPZIE5F2O3PY4X6RTCY19AQ3HU8,3S0TNUHWKXYCFVKJY9C0E509FWT8D8,1,2
226,1,object_06,object_03,841.0,1,1,275.0,0.2222222222222222,1,object_09,1,2654,0,2,5,desert_8,1,memory-2step-stake-s,720,3208911,0.0-19.0-0.1-0.226,AXKTYKCT9NGHS,391FPZIE5F2O3PY4X6RTCY19AQ3HU8,3S0TNUHWKXYCFVKJY9C0E509FWT8D8,1,2
227,3,object_05,object_08,835.0,5,2,255.0,0.0,1,object_09,1,2654,0,0,5,library_7,1,memory-2step-stake-s,721,3216449,0.0-19.0-0.1-0.227,AXKTYKCT9NGHS,391FPZIE5F2O3PY4X6RTCY19AQ3HU8,3S0TNUHWKXYCFVKJY9C0E509FWT8D8,6,5
228,1,object_03,object_06,633.0,2,1,85.0,0.8888888888888888,2,object_02,1,2662,0,3,8,desert_8,1,memory-2step-stake-s,722,3224684,0.0-19.0-0.1-0.228,AXKTYKCT9NGHS,391FPZIE5F2O3PY4X6RTCY19AQ3HU8,3S0TNUHWKXYCFVKJY9C0E509FWT8D8,2,1
229,3,object_08,object_05,683.0,6,2,323.0,0.6666666666666666,2,object_02,5,2692,0,2,6,library_3,1,memory-2step-stake-s,723,3232901,0.0-19.0-0.1-0.229,AXKTYKCT9NGHS,391FPZIE5F2O3PY4X6RTCY19AQ3HU8,3S0TNUHWKXYCFVKJY9C0E509FWT8D8,5,6
230,3,object_08,object_05,598.0,6,2,800.0,0.3333333333333333,2,object_02,5,2707,0,0,3,library_7,1,memory-2step-stake-s,724,3241310,0.0-19.0-0.1-0.230,AXKTYKCT9NGHS,391FPZIE5F2O3PY4X6RTCY19AQ3HU8,3S0TNUHWKXYCFVKJY9C0E509FWT8D8,5,6
231,3,object_08,object_05,609.0,6,2,156.0,0.6666666666666666,2,object_02,5,2737,0,0,6,library_3,1,memory-2step-stake-s,725,3249395,0.0-19.0-0.1-0.231,AXKTYKCT9NGHS,391FPZIE5F2O3PY4X6RTCY19AQ3HU8,3S0TNUHWKXYCFVKJY9C0E509FWT8D8,5,6
232,3,object_08,object_05,475.0,5,1,306.0,0.3333333333333333,1,object_09,1,2740,0,3,6,library_1,1,memory-2step-stake-s,726,3257322,0.0-19.0-0.1-0.232,AXKTYKCT9NGHS,391FPZIE5F2O3PY4X6RTCY19AQ3HU8,3S0TNUHWKXYCFVKJY9C0E509FWT8D8,5,6
233,2,object_07,object_01,650.0,4,2,398.0,0.6666666666666666,2,object_02,1,2746,0,6,6,forest_3,1,memory-2step-stake-s,727,3265654,0.0-19.0-0.1-0.233,AXKTYKCT9NGHS,391FPZIE5F2O3PY4X6RTCY19AQ3HU8,3S0TNUHWKXYCFVKJY9C0E509FWT8D8,3,4
234,4,object_04,object_10,709.0,7,1,243.0,0.5555555555555556,1,object_09,5,2771,0,5,8,restaurant_7,1,memory-2step-stake-s,728,3273729,0.0-19.0-0.1-0.234,AXKTYKCT9NGHS,391FPZIE5F2O3PY4X6RTCY19AQ3HU8,3S0TNUHWKXYCFVKJY9C0E509FWT8D8,7,8
235,1,object_03,object_06,586.0,2,1,296.0,0.7777777777777778,2,object_02,5,2806,0,4,7,desert_1,1,memory-2step-stake-s,729,3282055,0.0-19.0-0.1-0.235,AXKTYKCT9NGHS,391FPZIE5F2O3PY4X6RTCY19AQ3HU8,3S0TNUHWKXYCFVKJY9C0E509FWT8D8,2,1
236,4,object_04,object_10,696.0,8,2,294.0,1.0,2,object_02,5,2851,0,3,9,restaurant_6,1,memory-2step-stake-s,730,3290604,0.0-19.0-0.1-0.236,AXKTYKCT9NGHS,391FPZIE5F2O3PY4X6RTCY19AQ3HU8,3S0TNUHWKXYCFVKJY9C0E509FWT8D8,7,8
237,3,object_08,object_05,726.0,6,2,320.0,0.8888888888888888,2,object_02,5,2891,0,3,8,library_1,1,memory-2step-stake-s,731,3299075,0.0-19.0-0.1-0.237,AXKTYKCT9NGHS,391FPZIE5F2O3PY4X6RTCY19AQ3HU8,3S0TNUHWKXYCFVKJY9C0E509FWT8D8,5,6
238,2,object_01,object_07,805.0,4,1,342.0,0.7777777777777778,2,object_02,1,2898,0,3,7,forest_1,1,memory-2step-stake-s,732,3307455,0.0-19.0-0.1-0.238,AXKTYKCT9NGHS,391FPZIE5F2O3PY4X6RTCY19AQ3HU8,3S0TNUHWKXYCFVKJY9C0E509FWT8D8,4,3
239,4,object_04,object_10,691.0,8,2,331.0,1.0,2,object_02,5,2943,0,2,9,restaurant_6,1,memory-2step-stake-s,733,3316054,0.0-19.0-0.1-0.239,AXKTYKCT9NGHS,391FPZIE5F2O3PY4X6RTCY19AQ3HU8,3S0TNUHWKXYCFVKJY9C0E509FWT8D8,7,8
240,3,object_08,object_05,667.0,6,2,358.0,0.7777777777777778,2,object_02,5,2978,0,1,7,library_1,1,memory-2step-stake-s,734,3324450,0.0-19.0-0.1-0.240,AXKTYKCT9NGHS,391FPZIE5F2O3PY4X6RTCY19AQ3HU8,3S0TNUHWKXYCFVKJY9C0E509FWT8D8,5,6
241,4,object_04,object_10,814.0,8,2,330.0,0.8888888888888888,2,object_02,5,3018,0,2,8,restaurant_2,1,memory-2step-stake-s,735,3332899,0.0-19.0-0.1-0.241,AXKTYKCT9NGHS,391FPZIE5F2O3PY4X6RTCY19AQ3HU8,3S0TNUHWKXYCFVKJY9C0E509FWT8D8,7,8
242,1,object_06,object_03,649.0,2,2,323.0,0.8888888888888888,2,object_02,1,3026,0,2,8,desert_6,1,memory-2step-stake-s,736,3341349,0.0-19.0-0.1-0.242,AXKTYKCT9NGHS,391FPZIE5F2O3PY4X6RTCY19AQ3HU8,3S0TNUHWKXYCFVKJY9C0E509FWT8D8,1,2
243,2,object_01,object_07,734.0,4,1,274.0,0.5555555555555556,2,object_02,1,3031,0,4,5,forest_3,1,memory-2step-stake-s,737,3349433,0.0-19.0-0.1-0.243,AXKTYKCT9NGHS,391FPZIE5F2O3PY4X6RTCY19AQ3HU8,3S0TNUHWKXYCFVKJY9C0E509FWT8D8,4,3
244,4,object_10,object_04,774.0,7,2,315.0,0.1111111111111111,1,object_09,1,3032,0,1,3,restaurant_6,1,memory-2step-stake-s,738,3357132,0.0-19.0-0.1-0.244,AXKTYKCT9NGHS,391FPZIE5F2O3PY4X6RTCY19AQ3HU8,3S0TNUHWKXYCFVKJY9C0E509FWT8D8,8,7
245,2,object_01,object_07,827.0,3,2,293.0,0.3333333333333333,1,object_09,1,3035,0,3,1,forest_8,1,memory-2step-stake-s,739,3365018,0.0-19.0-0.1-0.245,AXKTYKCT9NGHS,391FPZIE5F2O3PY4X6RTCY19AQ3HU8,3S0TNUHWKXYCFVKJY9C0E509FWT8D8,4,3
246,3,object_08,object_05,744.0,6,2,312.0,0.0,2,object_02,5,3035,0,1,0,library_7,1,memory-2step-stake-s,740,3372579,0.0-19.0-0.1-0.246,AXKTYKCT9NGHS,391FPZIE5F2O3PY4X6RTCY19AQ3HU8,3S0TNUHWKXYCFVKJY9C0E509FWT8D8,5,6
247,3,object_08,object_05,525.0,5,1,347.0,0.3333333333333333,1,object_09,5,3050,0,3,0,library_6,1,memory-2step-stake-s,741,3380503,0.0-19.0-0.1-0.247,AXKTYKCT9NGHS,391FPZIE5F2O3PY4X6RTCY19AQ3HU8,3S0TNUHWKXYCFVKJY9C0E509FWT8D8,5,6
248,1,object_03,object_06,745.0,2,1,366.0,0.2222222222222222,2,object_02,1,3052,0,5,2,desert_2,1,memory-2step-stake-s,742,3388342,0.0-19.0-0.1-0.248,AXKTYKCT9NGHS,391FPZIE5F2O3PY4X6RTCY19AQ3HU8,3S0TNUHWKXYCFVKJY9C0E509FWT8D8,2,1
249,4,object_04,object_10,846.0,7,1,277.0,0.5555555555555556,1,object_09,5,3077,0,5,0,restaurant_6,1,memory-2step-stake-s,743,3396447,0.0-19.0-0.1-0.249,AXKTYKCT9NGHS,391FPZIE5F2O3PY4X6RTCY19AQ3HU8,3S0TNUHWKXYCFVKJY9C0E509FWT8D8,7,8
250,2,object_01,object_07,780.0,3,2,121.0,0.4444444444444444,1,object_09,1,3081,0,4,1,forest_2,1,memory-2step-stake-s,744,3404243,0.0-19.0-0.1-0.250,AXKTYKCT9NGHS,391FPZIE5F2O3PY4X6RTCY19AQ3HU8,3S0TNUHWKXYCFVKJY9C0E509FWT8D8,4,3
251,1,object_06,object_03,713.0,1,1,292.0,0.5555555555555556,1,object_09,1,3086,0,5,1,desert_2,1,memory-2step-stake-s,745,3412343,0.0-19.0-0.1-0.251,AXKTYKCT9NGHS,391FPZIE5F2O3PY4X6RTCY19AQ3HU8,3S0TNUHWKXYCFVKJY9C0E509FWT8D8,1,2
252,2,object_07,object_01,716.0,4,2,323.0,0.2222222222222222,2,object_02,1,3088,0,5,2,forest_8,1,memory-2step-stake-s,746,3420157,0.0-19.0-0.1-0.252,AXKTYKCT9NGHS,391FPZIE5F2O3PY4X6RTCY19AQ3HU8,3S0TNUHWKXYCFVKJY9C0E509FWT8D8,3,4
253,3,object_05,object_08,867.0,6,1,280.0,0.0,2,object_02,5,3088,0,4,0,library_1,1,memory-2step-stake-s,747,3427707,0.0-19.0-0.1-0.253,AXKTYKCT9NGHS,391FPZIE5F2O3PY4X6RTCY19AQ3HU8,3S0TNUHWKXYCFVKJY9C0E509FWT8D8,6,5
254,1,object_06,object_03,734.0,2,2,448.0,0.1111111111111111,2,object_02,1,3089,0,5,1,desert_6,1,memory-2step-stake-s,748,3435532,0.0-19.0-0.1-0.254,AXKTYKCT9NGHS,391FPZIE5F2O3PY4X6RTCY19AQ3HU8,3S0TNUHWKXYCFVKJY9C0E509FWT8D8,1,2
255,4,object_04,object_10,695.0,7,1,273.0,0.6666666666666666,1,object_09,1,3095,0,6,3,restaurant_7,1,memory-2step-stake-s,749,3443751,0.0-19.0-0.1-0.255,AXKTYKCT9NGHS,391FPZIE5F2O3PY4X6RTCY19AQ3HU8,3S0TNUHWKXYCFVKJY9C0E509FWT8D8,7,8
