,state1,stim_left,stim_right,rt_1,choice1,response1,rt_2,points,state2,stim_state2,stake,score,practice,rews1,rews2,background,high_arm,trial_type,trial_index,time_elapsed,internal_node_id,subid,hitid,assignmentid,stim_left_num,stim_right_num
0,3,object_02,object_08,989.80000007153,6,2,1463.6000000238,0.1111111111111111,2,object_10,5,5,0,5,1,library_7,1,memory-2step-stake-s,488,756789,0.0-19.0-0.0-0.0,ARB8SJAWXUWTD,3SNR5F7RA597AOC2DOU98SGLOEGIEB,39PAAFCODQGH7WCTSSNPBN23T48TVJ,5,6
1,4,object_06,object_04,991.60000002384,8,1,719.20000004768,0.1111111111111111,2,object_10,5,10,0,5,1,restaurant_8,1,memory-2step-stake-s,489,764833,0.0-19.0-0.0-0.1,ARB8SJAWXUWTD,3SNR5F7RA597AOC2DOU98SGLOEGIEB,39PAAFCODQGH7WCTSSNPBN23T48TVJ,8,7
2,2,object_03,object_09,863.20000004768,4,1,791.70000004768,0.5555555555555556,2,object_10,1,15,0,6,5,forest_3,1,memory-2step-stake-s,490,773356,0.0-19.0-0.0-0.2,ARB8SJAWXUWTD,3SNR5F7RA597AOC2DOU98SGLOEGIEB,39PAAFCODQGH7WCTSSNPBN23T48TVJ,4,3
3,1,object_05,object_07,1103.0,1,2,715.10000002384,0.4444444444444444,1,object_01,1,19,0,4,3,desert_4,1,memory-2step-stake-s,491,781695,0.0-19.0-0.0-0.3,ARB8SJAWXUWTD,3SNR5F7RA597AOC2DOU98SGLOEGIEB,39PAAFCODQGH7WCTSSNPBN23T48TVJ,2,1
4,1,object_05,object_07,615.60000002384,1,2,300.09999990463,0.5555555555555556,1,object_01,1,24,0,5,4,desert_4,1,memory-2step-stake-s,492,789721,0.0-19.0-0.0-0.4,ARB8SJAWXUWTD,3SNR5F7RA597AOC2DOU98SGLOEGIEB,39PAAFCODQGH7WCTSSNPBN23T48TVJ,2,1
5,4,object_04,object_06,929.79999995232,8,2,536.30000007153,0.3333333333333333,2,object_10,1,27,0,3,3,restaurant_4,1,memory-2step-stake-s,493,797785,0.0-19.0-0.0-0.5,ARB8SJAWXUWTD,3SNR5F7RA597AOC2DOU98SGLOEGIEB,39PAAFCODQGH7WCTSSNPBN23T48TVJ,7,8
6,2,object_09,object_03,934.89999997616,4,2,453.60000002384,0.2222222222222222,2,object_10,1,29,0,3,2,forest_3,1,memory-2step-stake-s,494,805654,0.0-19.0-0.0-0.6,ARB8SJAWXUWTD,3SNR5F7RA597AOC2DOU98SGLOEGIEB,39PAAFCODQGH7WCTSSNPBN23T48TVJ,3,4
7,3,object_02,object_08,958.10000002384,6,2,580.69999992847,0.1111111111111111,2,object_10,5,34,0,2,1,library_1,1,memory-2step-stake-s,495,813555,0.0-19.0-0.0-0.7,ARB8SJAWXUWTD,3SNR5F7RA597AOC2DOU98SGLOEGIEB,39PAAFCODQGH7WCTSSNPBN23T48TVJ,5,6
8,1,object_05,object_07,1193.2000000477,1,2,535.5,0.3333333333333333,1,object_01,1,37,0,3,1,desert_6,1,memory-2step-stake-s,496,821624,0.0-19.0-0.0-0.8,ARB8SJAWXUWTD,3SNR5F7RA597AOC2DOU98SGLOEGIEB,39PAAFCODQGH7WCTSSNPBN23T48TVJ,2,1
9,3,object_08,object_02,1006.8999999762,5,2,416.29999995232,0.8888888888888888,1,object_01,5,77,0,8,2,library_6,1,memory-2step-stake-s,497,830071,0.0-19.0-0.0-0.9,ARB8SJAWXUWTD,3SNR5F7RA597AOC2DOU98SGLOEGIEB,39PAAFCODQGH7WCTSSNPBN23T48TVJ,6,5
10,1,object_05,object_07,936.40000009537,1,2,510.60000002384,0.7777777777777778,1,object_01,1,84,0,7,1,desert_6,1,memory-2step-stake-s,498,838506,0.0-19.0-0.0-0.10,ARB8SJAWXUWTD,3SNR5F7RA597AOC2DOU98SGLOEGIEB,39PAAFCODQGH7WCTSSNPBN23T48TVJ,2,1
11,2,object_03,object_09,1097.5999999046,3,2,294.89999997616,1.0,1,object_01,1,93,0,9,1,forest_4,1,memory-2step-stake-s,499,846929,0.0-19.0-0.0-0.11,ARB8SJAWXUWTD,3SNR5F7RA597AOC2DOU98SGLOEGIEB,39PAAFCODQGH7WCTSSNPBN23T48TVJ,4,3
12,3,object_08,object_02,1011.1000000238,5,2,283.20000004768,0.5555555555555556,1,object_01,5,118,0,5,1,library_1,1,memory-2step-stake-s,500,854941,0.0-19.0-0.0-0.12,ARB8SJAWXUWTD,3SNR5F7RA597AOC2DOU98SGLOEGIEB,39PAAFCODQGH7WCTSSNPBN23T48TVJ,6,5
13,1,object_05,object_07,1107.8999999762,1,2,328.0,0.8888888888888888,1,object_01,1,126,0,8,1,desert_6,1,memory-2step-stake-s,501,863305,0.0-19.0-0.0-0.13,ARB8SJAWXUWTD,3SNR5F7RA597AOC2DOU98SGLOEGIEB,39PAAFCODQGH7WCTSSNPBN23T48TVJ,2,1
14,1,object_07,object_05,624.30000007153,1,1,556.20000004768,1.0,1,object_01,1,135,0,9,2,desert_5,1,memory-2step-stake-s,502,871993,0.0-19.0-0.0-0.14,ARB8SJAWXUWTD,3SNR5F7RA597AOC2DOU98SGLOEGIEB,39PAAFCODQGH7WCTSSNPBN23T48TVJ,1,2
15,1,object_05,object_07,554.5,1,2,462.5,0.6666666666666666,1,object_01,1,141,0,6,2,desert_5,1,memory-2step-stake-s,503,880284,0.0-19.0-0.0-0.15,ARB8SJAWXUWTD,3SNR5F7RA597AOC2DOU98SGLOEGIEB,39PAAFCODQGH7WCTSSNPBN23T48TVJ,2,1
16,3,object_08,object_02,836.30000007153,5,2,263.70000004768,0.7777777777777778,1,object_01,5,176,0,7,2,library_2,1,memory-2step-stake-s,504,888477,0.0-19.0-0.0-0.16,ARB8SJAWXUWTD,3SNR5F7RA597AOC2DOU98SGLOEGIEB,39PAAFCODQGH7WCTSSNPBN23T48TVJ,6,5
17,2,object_03,object_09,912.0,3,2,295.69999992847,0.5555555555555556,1,object_01,1,181,0,5,7,forest_2,1,memory-2step-stake-s,505,896517,0.0-19.0-0.0-0.17,ARB8SJAWXUWTD,3SNR5F7RA597AOC2DOU98SGLOEGIEB,39PAAFCODQGH7WCTSSNPBN23T48TVJ,4,3
18,1,object_05,object_07,575.60000002384,1,2,333.30000007153,0.6666666666666666,1,object_01,1,187,0,6,8,desert_4,1,memory-2step-stake-s,506,904687,0.0-19.0-0.0-0.18,ARB8SJAWXUWTD,3SNR5F7RA597AOC2DOU98SGLOEGIEB,39PAAFCODQGH7WCTSSNPBN23T48TVJ,2,1
19,3,object_02,object_08,746.0,5,1,222.60000002384,0.7777777777777778,1,object_01,1,194,0,7,5,library_2,1,memory-2step-stake-s,507,912836,0.0-19.0-0.0-0.19,ARB8SJAWXUWTD,3SNR5F7RA597AOC2DOU98SGLOEGIEB,39PAAFCODQGH7WCTSSNPBN23T48TVJ,5,6
20,2,object_03,object_09,945.30000007153,3,2,430.5,0.8888888888888888,1,object_01,1,202,0,8,7,forest_7,1,memory-2step-stake-s,508,921315,0.0-19.0-0.0-0.20,ARB8SJAWXUWTD,3SNR5F7RA597AOC2DOU98SGLOEGIEB,39PAAFCODQGH7WCTSSNPBN23T48TVJ,4,3
21,4,object_04,object_06,1427.9000000954,7,1,347.80000007153,0.7777777777777778,1,object_01,5,237,0,7,9,restaurant_4,1,memory-2step-stake-s,509,929588,0.0-19.0-0.0-0.21,ARB8SJAWXUWTD,3SNR5F7RA597AOC2DOU98SGLOEGIEB,39PAAFCODQGH7WCTSSNPBN23T48TVJ,7,8
22,2,object_03,object_09,683.5,3,2,275.0,0.5555555555555556,1,object_01,5,262,0,5,8,forest_4,1,memory-2step-stake-s,510,937586,0.0-19.0-0.0-0.22,ARB8SJAWXUWTD,3SNR5F7RA597AOC2DOU98SGLOEGIEB,39PAAFCODQGH7WCTSSNPBN23T48TVJ,4,3
23,3,object_02,object_08,870.60000002384,5,1,349.30000007153,0.4444444444444444,1,object_01,5,282,0,4,8,library_2,1,memory-2step-stake-s,511,945569,0.0-19.0-0.0-0.23,ARB8SJAWXUWTD,3SNR5F7RA597AOC2DOU98SGLOEGIEB,39PAAFCODQGH7WCTSSNPBN23T48TVJ,5,6
24,4,object_06,object_04,890.80000007153,7,2,289.60000002384,0.1111111111111111,1,object_01,5,287,0,1,8,restaurant_4,1,memory-2step-stake-s,512,953174,0.0-19.0-0.0-0.24,ARB8SJAWXUWTD,3SNR5F7RA597AOC2DOU98SGLOEGIEB,39PAAFCODQGH7WCTSSNPBN23T48TVJ,8,7
25,1,object_05,object_07,706.70000004768,2,1,291.60000002384,0.7777777777777778,2,object_10,1,294,0,2,7,desert_5,1,memory-2step-stake-s,513,961388,0.0-19.0-0.0-0.25,ARB8SJAWXUWTD,3SNR5F7RA597AOC2DOU98SGLOEGIEB,39PAAFCODQGH7WCTSSNPBN23T48TVJ,2,1
26,4,object_04,object_06,1047.1000000238,7,1,409.89999997616,0.1111111111111111,1,object_01,5,299,0,1,9,restaurant_4,1,memory-2step-stake-s,514,969120,0.0-19.0-0.0-0.26,ARB8SJAWXUWTD,3SNR5F7RA597AOC2DOU98SGLOEGIEB,39PAAFCODQGH7WCTSSNPBN23T48TVJ,7,8
27,3,object_02,object_08,1001.2000000477,6,2,253.29999995232,0.8888888888888888,2,object_10,1,307,0,0,8,library_1,1,memory-2step-stake-s,515,977401,0.0-19.0-0.0-0.27,ARB8SJAWXUWTD,3SNR5F7RA597AOC2DOU98SGLOEGIEB,39PAAFCODQGH7WCTSSNPBN23T48TVJ,5,6
28,2,object_09,object_03,1110.5,4,2,285.60000002384,0.8888888888888888,2,object_10,1,315,0,1,8,forest_7,1,memory-2step-stake-s,516,985721,0.0-19.0-0.0-0.28,ARB8SJAWXUWTD,3SNR5F7RA597AOC2DOU98SGLOEGIEB,39PAAFCODQGH7WCTSSNPBN23T48TVJ,3,4
29,1,object_07,object_05,792.0,2,2,306.0,0.6666666666666666,2,object_10,1,321,0,0,6,desert_5,1,memory-2step-stake-s,517,993889,0.0-19.0-0.0-0.29,ARB8SJAWXUWTD,3SNR5F7RA597AOC2DOU98SGLOEGIEB,39PAAFCODQGH7WCTSSNPBN23T48TVJ,1,2
30,1,object_07,object_05,620.0,2,2,251.10000002384,0.7777777777777778,2,object_10,1,328,0,2,7,desert_4,1,memory-2step-stake-s,518,1002068,0.0-19.0-0.0-0.30,ARB8SJAWXUWTD,3SNR5F7RA597AOC2DOU98SGLOEGIEB,39PAAFCODQGH7WCTSSNPBN23T48TVJ,1,2
31,3,object_02,object_08,1097.7000000477,6,2,375.39999997616,1.0,2,object_10,5,373,0,5,9,library_7,1,memory-2step-stake-s,519,1010576,0.0-19.0-0.0-0.31,ARB8SJAWXUWTD,3SNR5F7RA597AOC2DOU98SGLOEGIEB,39PAAFCODQGH7WCTSSNPBN23T48TVJ,5,6
32,3,object_08,object_02,1162.7999999523,6,1,344.39999997616,0.7777777777777778,2,object_10,5,408,0,6,7,library_1,1,memory-2step-stake-s,520,1018847,0.0-19.0-0.0-0.32,ARB8SJAWXUWTD,3SNR5F7RA597AOC2DOU98SGLOEGIEB,39PAAFCODQGH7WCTSSNPBN23T48TVJ,6,5
33,1,object_05,object_07,992.5,2,1,222.5,0.8888888888888888,2,object_10,1,416,0,8,8,desert_6,1,memory-2step-stake-s,521,1027094,0.0-19.0-0.0-0.33,ARB8SJAWXUWTD,3SNR5F7RA597AOC2DOU98SGLOEGIEB,39PAAFCODQGH7WCTSSNPBN23T48TVJ,2,1
34,2,object_09,object_03,1119.6000000238,4,2,266.39999997616,0.7777777777777778,2,object_10,5,451,0,8,7,forest_2,1,memory-2step-stake-s,522,1035298,0.0-19.0-0.0-0.34,ARB8SJAWXUWTD,3SNR5F7RA597AOC2DOU98SGLOEGIEB,39PAAFCODQGH7WCTSSNPBN23T48TVJ,3,4
35,2,object_03,object_09,1200.8999999762,4,1,427.60000002384,0.5555555555555556,2,object_10,1,456,0,6,5,forest_2,1,memory-2step-stake-s,523,1043451,0.0-19.0-0.0-0.35,ARB8SJAWXUWTD,3SNR5F7RA597AOC2DOU98SGLOEGIEB,39PAAFCODQGH7WCTSSNPBN23T48TVJ,4,3
36,1,object_07,object_05,831.29999995232,2,2,232.20000004768,0.3333333333333333,2,object_10,1,459,0,6,3,desert_5,1,memory-2step-stake-s,524,1051218,0.0-19.0-0.0-0.36,ARB8SJAWXUWTD,3SNR5F7RA597AOC2DOU98SGLOEGIEB,39PAAFCODQGH7WCTSSNPBN23T48TVJ,1,2
37,4,object_06,object_04,1327.6000000238,7,2,285.5,1.0,1,object_01,5,504,0,9,2,restaurant_5,1,memory-2step-stake-s,525,1059648,0.0-19.0-0.0-0.37,ARB8SJAWXUWTD,3SNR5F7RA597AOC2DOU98SGLOEGIEB,39PAAFCODQGH7WCTSSNPBN23T48TVJ,8,7
38,3,object_08,object_02,1472.2999999523,5,2,368.10000002384,0.7777777777777778,1,object_01,5,539,0,7,4,library_6,1,memory-2step-stake-s,526,1067949,0.0-19.0-0.0-0.38,ARB8SJAWXUWTD,3SNR5F7RA597AOC2DOU98SGLOEGIEB,39PAAFCODQGH7WCTSSNPBN23T48TVJ,6,5
39,1,object_07,object_05,995.89999997616,1,1,309.5,0.8888888888888888,1,object_01,1,547,0,8,1,desert_5,1,memory-2step-stake-s,527,1076286,0.0-19.0-0.0-0.39,ARB8SJAWXUWTD,3SNR5F7RA597AOC2DOU98SGLOEGIEB,39PAAFCODQGH7WCTSSNPBN23T48TVJ,1,2
40,1,object_07,object_05,1254.7999999523,1,1,389.5,0.7777777777777778,1,object_01,1,554,0,7,2,desert_4,1,memory-2step-stake-s,528,1084617,0.0-19.0-0.0-0.40,ARB8SJAWXUWTD,3SNR5F7RA597AOC2DOU98SGLOEGIEB,39PAAFCODQGH7WCTSSNPBN23T48TVJ,1,2
41,2,object_03,object_09,-1.0,-1,-1,-1.0,0.0,-,0,1,554,0,7,3,forest_2,1,memory-2step-stake-s,529,1091138,0.0-19.0-0.0-0.41,ARB8SJAWXUWTD,3SNR5F7RA597AOC2DOU98SGLOEGIEB,39PAAFCODQGH7WCTSSNPBN23T48TVJ,4,3
42,4,object_04,object_06,1223.2000000477,7,1,391.20000004768,0.7777777777777778,1,object_01,5,589,0,7,4,restaurant_8,1,memory-2step-stake-s,530,1099451,0.0-19.0-0.0-0.42,ARB8SJAWXUWTD,3SNR5F7RA597AOC2DOU98SGLOEGIEB,39PAAFCODQGH7WCTSSNPBN23T48TVJ,7,8
43,3,object_08,object_02,1234.1000000238,5,2,296.89999997616,0.8888888888888888,1,object_01,5,629,0,8,0,library_1,1,memory-2step-stake-s,531,1107780,0.0-19.0-0.0-0.43,ARB8SJAWXUWTD,3SNR5F7RA597AOC2DOU98SGLOEGIEB,39PAAFCODQGH7WCTSSNPBN23T48TVJ,6,5
44,3,object_02,object_08,1022.3999999762,5,1,262.10000002384,0.8888888888888888,1,object_01,5,669,0,8,2,library_7,1,memory-2step-stake-s,532,1116074,0.0-19.0-0.0-0.44,ARB8SJAWXUWTD,3SNR5F7RA597AOC2DOU98SGLOEGIEB,39PAAFCODQGH7WCTSSNPBN23T48TVJ,5,6
45,2,object_09,object_03,1174.1000000238,3,1,238.60000002384,0.7777777777777778,1,object_01,1,676,0,7,1,forest_3,1,memory-2step-stake-s,533,1124232,0.0-19.0-0.0-0.45,ARB8SJAWXUWTD,3SNR5F7RA597AOC2DOU98SGLOEGIEB,39PAAFCODQGH7WCTSSNPBN23T48TVJ,3,4
46,4,object_06,object_04,965.09999990463,7,2,385.30000007153,0.6666666666666666,1,object_01,1,682,0,6,0,restaurant_2,1,memory-2step-stake-s,534,1132440,0.0-19.0-0.0-0.46,ARB8SJAWXUWTD,3SNR5F7RA597AOC2DOU98SGLOEGIEB,39PAAFCODQGH7WCTSSNPBN23T48TVJ,8,7
47,4,object_06,object_04,788.80000007153,7,2,235.20000004768,0.8888888888888888,1,object_01,5,722,0,8,1,restaurant_8,1,memory-2step-stake-s,535,1140726,0.0-19.0-0.0-0.47,ARB8SJAWXUWTD,3SNR5F7RA597AOC2DOU98SGLOEGIEB,39PAAFCODQGH7WCTSSNPBN23T48TVJ,8,7
48,2,object_09,object_03,886.5,3,1,561.39999997616,0.8888888888888888,1,object_01,5,762,0,8,0,forest_4,1,memory-2step-stake-s,536,1149311,0.0-19.0-0.0-0.48,ARB8SJAWXUWTD,3SNR5F7RA597AOC2DOU98SGLOEGIEB,39PAAFCODQGH7WCTSSNPBN23T48TVJ,3,4
49,4,object_04,object_06,727.39999997616,7,1,242.60000002384,0.6666666666666666,1,object_01,5,792,0,6,0,restaurant_8,1,memory-2step-stake-s,537,1157375,0.0-19.0-0.0-0.49,ARB8SJAWXUWTD,3SNR5F7RA597AOC2DOU98SGLOEGIEB,39PAAFCODQGH7WCTSSNPBN23T48TVJ,7,8
50,4,object_06,object_04,882.60000002384,7,2,224.60000002384,0.6666666666666666,1,object_01,1,798,0,6,5,restaurant_2,1,memory-2step-stake-s,538,1165424,0.0-19.0-0.0-0.50,ARB8SJAWXUWTD,3SNR5F7RA597AOC2DOU98SGLOEGIEB,39PAAFCODQGH7WCTSSNPBN23T48TVJ,8,7
51,4,object_04,object_06,823.29999995232,7,1,230.79999995232,0.5555555555555556,1,object_01,5,823,0,5,5,restaurant_4,1,memory-2step-stake-s,539,1173387,0.0-19.0-0.0-0.51,ARB8SJAWXUWTD,3SNR5F7RA597AOC2DOU98SGLOEGIEB,39PAAFCODQGH7WCTSSNPBN23T48TVJ,7,8
52,2,object_03,object_09,883.20000004768,3,2,275.69999992847,0.4444444444444444,1,object_01,1,827,0,4,3,forest_2,1,memory-2step-stake-s,540,1181285,0.0-19.0-0.0-0.52,ARB8SJAWXUWTD,3SNR5F7RA597AOC2DOU98SGLOEGIEB,39PAAFCODQGH7WCTSSNPBN23T48TVJ,4,3
53,3,object_02,object_08,1484.6000000238,6,2,627.59999990463,0.5555555555555556,2,object_10,5,852,0,6,5,library_2,1,memory-2step-stake-s,541,1189628,0.0-19.0-0.0-0.53,ARB8SJAWXUWTD,3SNR5F7RA597AOC2DOU98SGLOEGIEB,39PAAFCODQGH7WCTSSNPBN23T48TVJ,5,6
54,4,object_06,object_04,767.10000002384,8,1,276.0,0.6666666666666666,2,object_10,5,882,0,3,6,restaurant_5,1,memory-2step-stake-s,542,1197735,0.0-19.0-0.0-0.54,ARB8SJAWXUWTD,3SNR5F7RA597AOC2DOU98SGLOEGIEB,39PAAFCODQGH7WCTSSNPBN23T48TVJ,8,7
55,1,object_07,object_05,1070.1000000238,2,2,265.59999990463,0.4444444444444444,2,object_10,1,886,0,4,4,desert_3,1,memory-2step-stake-s,543,1205619,0.0-19.0-0.0-0.55,ARB8SJAWXUWTD,3SNR5F7RA597AOC2DOU98SGLOEGIEB,39PAAFCODQGH7WCTSSNPBN23T48TVJ,1,2
56,1,object_05,object_07,963.5,2,1,256.19999992847,0.6666666666666666,2,object_10,1,892,0,6,6,desert_6,1,memory-2step-stake-s,544,1213696,0.0-19.0-0.0-0.56,ARB8SJAWXUWTD,3SNR5F7RA597AOC2DOU98SGLOEGIEB,39PAAFCODQGH7WCTSSNPBN23T48TVJ,2,1
57,1,object_07,object_05,668.10000002384,2,2,232.29999995232,0.7777777777777778,2,object_10,5,927,0,2,7,desert_6,1,memory-2step-stake-s,545,1221849,0.0-19.0-0.0-0.57,ARB8SJAWXUWTD,3SNR5F7RA597AOC2DOU98SGLOEGIEB,39PAAFCODQGH7WCTSSNPBN23T48TVJ,1,2
58,1,object_05,object_07,585.30000007153,2,1,255.29999995232,0.8888888888888888,2,object_10,1,935,0,0,8,desert_6,1,memory-2step-stake-s,546,1230124,0.0-19.0-0.0-0.58,ARB8SJAWXUWTD,3SNR5F7RA597AOC2DOU98SGLOEGIEB,39PAAFCODQGH7WCTSSNPBN23T48TVJ,2,1
59,1,object_07,object_05,575.10000002384,2,2,255.19999992847,0.7777777777777778,2,object_10,1,942,0,0,7,desert_6,1,memory-2step-stake-s,547,1238306,0.0-19.0-0.0-0.59,ARB8SJAWXUWTD,3SNR5F7RA597AOC2DOU98SGLOEGIEB,39PAAFCODQGH7WCTSSNPBN23T48TVJ,1,2
60,4,object_04,object_06,835.60000002384,8,2,273.20000004768,0.7777777777777778,2,object_10,1,949,0,2,7,restaurant_2,1,memory-2step-stake-s,548,1246500,0.0-19.0-0.0-0.60,ARB8SJAWXUWTD,3SNR5F7RA597AOC2DOU98SGLOEGIEB,39PAAFCODQGH7WCTSSNPBN23T48TVJ,7,8
61,1,object_07,object_05,542.89999997616,2,2,259.39999997616,0.3333333333333333,2,object_10,1,952,0,1,3,desert_5,1,memory-2step-stake-s,549,1254279,0.0-19.0-0.0-0.61,ARB8SJAWXUWTD,3SNR5F7RA597AOC2DOU98SGLOEGIEB,39PAAFCODQGH7WCTSSNPBN23T48TVJ,1,2
62,3,object_08,object_02,938.89999997616,5,2,251.0,0.2222222222222222,1,object_01,5,962,0,2,3,library_2,1,memory-2step-stake-s,550,1261947,0.0-19.0-0.0-0.62,ARB8SJAWXUWTD,3SNR5F7RA597AOC2DOU98SGLOEGIEB,39PAAFCODQGH7WCTSSNPBN23T48TVJ,6,5
63,4,object_04,object_06,904.69999992847,8,2,283.60000002384,0.6666666666666666,2,object_10,5,992,0,1,6,restaurant_8,1,memory-2step-stake-s,551,1270052,0.0-19.0-0.0-0.63,ARB8SJAWXUWTD,3SNR5F7RA597AOC2DOU98SGLOEGIEB,39PAAFCODQGH7WCTSSNPBN23T48TVJ,7,8
64,4,object_04,object_06,727.60000002384,8,2,815.90000009537,0.6666666666666666,2,object_10,1,998,0,1,6,restaurant_2,1,memory-2step-stake-s,552,1278691,0.0-19.0-0.0-0.64,ARB8SJAWXUWTD,3SNR5F7RA597AOC2DOU98SGLOEGIEB,39PAAFCODQGH7WCTSSNPBN23T48TVJ,7,8
65,2,object_03,object_09,1304.5,4,1,333.20000004768,0.2222222222222222,2,object_10,1,1000,0,3,2,forest_7,1,memory-2step-stake-s,553,1286452,0.0-19.0-0.0-0.65,ARB8SJAWXUWTD,3SNR5F7RA597AOC2DOU98SGLOEGIEB,39PAAFCODQGH7WCTSSNPBN23T48TVJ,4,3
66,3,object_08,object_02,696.10000002384,5,2,264.0,0.3333333333333333,1,object_01,5,1015,0,3,2,library_2,1,memory-2step-stake-s,554,1294231,0.0-19.0-0.0-0.66,ARB8SJAWXUWTD,3SNR5F7RA597AOC2DOU98SGLOEGIEB,39PAAFCODQGH7WCTSSNPBN23T48TVJ,6,5
67,1,object_05,object_07,1028.0,2,1,297.39999997616,0.0,2,object_10,1,1015,0,1,0,desert_3,1,memory-2step-stake-s,555,1301741,0.0-19.0-0.0-0.67,ARB8SJAWXUWTD,3SNR5F7RA597AOC2DOU98SGLOEGIEB,39PAAFCODQGH7WCTSSNPBN23T48TVJ,2,1
68,3,object_02,object_08,899.69999992847,5,1,286.39999997616,0.5555555555555556,1,object_01,5,1040,0,5,1,library_1,1,memory-2step-stake-s,556,1309772,0.0-19.0-0.0-0.68,ARB8SJAWXUWTD,3SNR5F7RA597AOC2DOU98SGLOEGIEB,39PAAFCODQGH7WCTSSNPBN23T48TVJ,5,6
69,1,object_07,object_05,768.10000002384,1,1,609.60000002384,0.5555555555555556,1,object_01,1,1045,0,5,1,desert_4,1,memory-2step-stake-s,557,1318101,0.0-19.0-0.0-0.69,ARB8SJAWXUWTD,3SNR5F7RA597AOC2DOU98SGLOEGIEB,39PAAFCODQGH7WCTSSNPBN23T48TVJ,1,2
70,4,object_06,object_04,801.5,7,2,288.70000004768,0.4444444444444444,1,object_01,5,1065,0,4,3,restaurant_8,1,memory-2step-stake-s,558,1326034,0.0-19.0-0.0-0.70,ARB8SJAWXUWTD,3SNR5F7RA597AOC2DOU98SGLOEGIEB,39PAAFCODQGH7WCTSSNPBN23T48TVJ,8,7
71,3,object_02,object_08,1085.9000000954,5,1,348.89999997616,0.5555555555555556,1,object_01,5,1090,0,5,4,library_6,1,memory-2step-stake-s,559,1334113,0.0-19.0-0.0-0.71,ARB8SJAWXUWTD,3SNR5F7RA597AOC2DOU98SGLOEGIEB,39PAAFCODQGH7WCTSSNPBN23T48TVJ,5,6
72,3,object_02,object_08,650.0,5,1,433.10000002384,0.1111111111111111,1,object_01,5,1095,0,1,3,library_2,1,memory-2step-stake-s,560,1341860,0.0-19.0-0.0-0.72,ARB8SJAWXUWTD,3SNR5F7RA597AOC2DOU98SGLOEGIEB,39PAAFCODQGH7WCTSSNPBN23T48TVJ,5,6
73,1,object_05,object_07,882.10000002384,2,1,328.29999995232,0.4444444444444444,2,object_10,1,1099,0,3,4,desert_5,1,memory-2step-stake-s,561,1349811,0.0-19.0-0.0-0.73,ARB8SJAWXUWTD,3SNR5F7RA597AOC2DOU98SGLOEGIEB,39PAAFCODQGH7WCTSSNPBN23T48TVJ,2,1
74,1,object_07,object_05,586.10000002384,2,2,273.70000004768,0.5555555555555556,2,object_10,1,1104,0,8,5,desert_3,1,memory-2step-stake-s,562,1357807,0.0-19.0-0.0-0.74,ARB8SJAWXUWTD,3SNR5F7RA597AOC2DOU98SGLOEGIEB,39PAAFCODQGH7WCTSSNPBN23T48TVJ,1,2
75,4,object_04,object_06,1047.3999999762,8,2,262.39999997616,0.7777777777777778,2,object_10,5,1139,0,7,7,restaurant_4,1,memory-2step-stake-s,563,1365987,0.0-19.0-0.0-0.75,ARB8SJAWXUWTD,3SNR5F7RA597AOC2DOU98SGLOEGIEB,39PAAFCODQGH7WCTSSNPBN23T48TVJ,7,8
76,3,object_08,object_02,912.39999997616,6,1,457.69999992847,0.5555555555555556,2,object_10,5,1164,0,6,5,library_1,1,memory-2step-stake-s,564,1374168,0.0-19.0-0.0-0.76,ARB8SJAWXUWTD,3SNR5F7RA597AOC2DOU98SGLOEGIEB,39PAAFCODQGH7WCTSSNPBN23T48TVJ,6,5
77,2,object_03,object_09,1362.7999999523,4,1,328.29999995232,0.1111111111111111,2,object_10,5,1169,0,5,1,forest_4,1,memory-2step-stake-s,565,1381811,0.0-19.0-0.0-0.77,ARB8SJAWXUWTD,3SNR5F7RA597AOC2DOU98SGLOEGIEB,39PAAFCODQGH7WCTSSNPBN23T48TVJ,4,3
78,2,object_09,object_03,621.60000002384,4,2,426.69999992847,0.2222222222222222,2,object_10,5,1179,0,3,2,forest_7,1,memory-2step-stake-s,566,1389657,0.0-19.0-0.0-0.78,ARB8SJAWXUWTD,3SNR5F7RA597AOC2DOU98SGLOEGIEB,39PAAFCODQGH7WCTSSNPBN23T48TVJ,3,4
79,1,object_05,object_07,1162.3999999762,1,2,252.0,0.1111111111111111,1,object_01,1,1180,0,1,1,desert_3,1,memory-2step-stake-s,567,1397244,0.0-19.0-0.0-0.79,ARB8SJAWXUWTD,3SNR5F7RA597AOC2DOU98SGLOEGIEB,39PAAFCODQGH7WCTSSNPBN23T48TVJ,2,1
80,4,object_06,object_04,1006.7000000477,7,2,497.10000002384,0.1111111111111111,1,object_01,1,1181,0,1,2,restaurant_8,1,memory-2step-stake-s,568,1405058,0.0-19.0-0.0-0.80,ARB8SJAWXUWTD,3SNR5F7RA597AOC2DOU98SGLOEGIEB,39PAAFCODQGH7WCTSSNPBN23T48TVJ,8,7
81,3,object_08,object_02,1219.3999999762,6,1,268.69999992847,0.3333333333333333,2,object_10,5,1196,0,2,3,library_1,1,memory-2step-stake-s,569,1412844,0.0-19.0-0.0-0.81,ARB8SJAWXUWTD,3SNR5F7RA597AOC2DOU98SGLOEGIEB,39PAAFCODQGH7WCTSSNPBN23T48TVJ,6,5
82,2,object_09,object_03,-1.0,-1,-1,-1.0,0.0,-,0,1,1196,0,1,6,forest_4,1,memory-2step-stake-s,570,1419353,0.0-19.0-0.0-0.82,ARB8SJAWXUWTD,3SNR5F7RA597AOC2DOU98SGLOEGIEB,39PAAFCODQGH7WCTSSNPBN23T48TVJ,3,4
83,2,object_09,object_03,641.0,3,1,339.0,0.3333333333333333,1,object_01,1,1199,0,3,8,forest_2,1,memory-2step-stake-s,571,1427209,0.0-19.0-0.0-0.83,ARB8SJAWXUWTD,3SNR5F7RA597AOC2DOU98SGLOEGIEB,39PAAFCODQGH7WCTSSNPBN23T48TVJ,3,4
84,3,object_08,object_02,671.29999995232,5,2,478.89999997616,0.5555555555555556,1,object_01,5,1224,0,5,5,library_1,1,memory-2step-stake-s,572,1435409,0.0-19.0-0.0-0.84,ARB8SJAWXUWTD,3SNR5F7RA597AOC2DOU98SGLOEGIEB,39PAAFCODQGH7WCTSSNPBN23T48TVJ,6,5
85,4,object_04,object_06,1307.7000000477,7,1,437.10000002384,0.8888888888888888,1,object_01,5,1264,0,8,4,restaurant_4,1,memory-2step-stake-s,573,1443880,0.0-19.0-0.0-0.85,ARB8SJAWXUWTD,3SNR5F7RA597AOC2DOU98SGLOEGIEB,39PAAFCODQGH7WCTSSNPBN23T48TVJ,7,8
86,2,object_09,object_03,968.60000002384,3,1,274.5,0.6666666666666666,1,object_01,1,1270,0,6,3,forest_4,1,memory-2step-stake-s,574,1451985,0.0-19.0-0.0-0.86,ARB8SJAWXUWTD,3SNR5F7RA597AOC2DOU98SGLOEGIEB,39PAAFCODQGH7WCTSSNPBN23T48TVJ,3,4
87,3,object_02,object_08,1088.0999999046,5,1,285.29999995232,0.6666666666666666,1,object_01,5,1300,0,6,3,library_2,1,memory-2step-stake-s,575,1460106,0.0-19.0-0.0-0.87,ARB8SJAWXUWTD,3SNR5F7RA597AOC2DOU98SGLOEGIEB,39PAAFCODQGH7WCTSSNPBN23T48TVJ,5,6
88,1,object_05,object_07,930.19999992847,1,2,305.29999995232,0.4444444444444444,1,object_01,1,1304,0,4,1,desert_3,1,memory-2step-stake-s,576,1468029,0.0-19.0-0.0-0.88,ARB8SJAWXUWTD,3SNR5F7RA597AOC2DOU98SGLOEGIEB,39PAAFCODQGH7WCTSSNPBN23T48TVJ,2,1
89,2,object_09,object_03,965.20000004768,3,1,227.0,0.4444444444444444,1,object_01,5,1324,0,4,2,forest_3,1,memory-2step-stake-s,577,1475873,0.0-19.0-0.0-0.89,ARB8SJAWXUWTD,3SNR5F7RA597AOC2DOU98SGLOEGIEB,39PAAFCODQGH7WCTSSNPBN23T48TVJ,3,4
90,4,object_04,object_06,-1.0,-1,-1,-1.0,0.0,-,0,5,1324,0,4,2,restaurant_2,1,memory-2step-stake-s,578,1482383,0.0-19.0-0.0-0.90,ARB8SJAWXUWTD,3SNR5F7RA597AOC2DOU98SGLOEGIEB,39PAAFCODQGH7WCTSSNPBN23T48TVJ,7,8
91,3,object_02,object_08,1250.1000000238,5,1,482.70000004768,0.3333333333333333,1,object_01,5,1339,0,3,2,library_2,1,memory-2step-stake-s,579,1490387,0.0-19.0-0.0-0.91,ARB8SJAWXUWTD,3SNR5F7RA597AOC2DOU98SGLOEGIEB,39PAAFCODQGH7WCTSSNPBN23T48TVJ,5,6
92,2,object_03,object_09,697.39999997616,3,2,297.09999990463,0.3333333333333333,1,object_01,1,1342,0,3,5,forest_3,1,memory-2step-stake-s,580,1498213,0.0-19.0-0.0-0.92,ARB8SJAWXUWTD,3SNR5F7RA597AOC2DOU98SGLOEGIEB,39PAAFCODQGH7WCTSSNPBN23T48TVJ,4,3
93,1,object_07,object_05,1041.8999999762,2,2,298.69999992847,0.5555555555555556,2,object_10,1,1347,0,0,5,desert_4,1,memory-2step-stake-s,581,1506245,0.0-19.0-0.0-0.93,ARB8SJAWXUWTD,3SNR5F7RA597AOC2DOU98SGLOEGIEB,39PAAFCODQGH7WCTSSNPBN23T48TVJ,1,2
94,1,object_07,object_05,903.69999992847,2,2,298.09999990463,0.5555555555555556,2,object_10,1,1352,0,0,5,desert_6,1,memory-2step-stake-s,582,1514271,0.0-19.0-0.0-0.94,ARB8SJAWXUWTD,3SNR5F7RA597AOC2DOU98SGLOEGIEB,39PAAFCODQGH7WCTSSNPBN23T48TVJ,1,2
95,4,object_06,object_04,799.70000004768,8,1,349.10000002384,0.5555555555555556,2,object_10,5,1377,0,1,5,restaurant_2,1,memory-2step-stake-s,583,1522338,0.0-19.0-0.0-0.95,ARB8SJAWXUWTD,3SNR5F7RA597AOC2DOU98SGLOEGIEB,39PAAFCODQGH7WCTSSNPBN23T48TVJ,8,7
96,2,object_03,object_09,882.20000004768,4,1,253.79999995232,0.3333333333333333,2,object_10,1,1380,0,0,3,forest_7,1,memory-2step-stake-s,584,1530109,0.0-19.0-0.0-0.96,ARB8SJAWXUWTD,3SNR5F7RA597AOC2DOU98SGLOEGIEB,39PAAFCODQGH7WCTSSNPBN23T48TVJ,4,3
97,3,object_02,object_08,902.10000002384,6,2,403.5,0.2222222222222222,2,object_10,5,1390,0,1,2,library_6,1,memory-2step-stake-s,585,1537927,0.0-19.0-0.0-0.97,ARB8SJAWXUWTD,3SNR5F7RA597AOC2DOU98SGLOEGIEB,39PAAFCODQGH7WCTSSNPBN23T48TVJ,5,6
98,3,object_02,object_08,798.5,5,1,414.80000007153,0.0,1,object_01,5,1390,0,0,4,library_7,1,memory-2step-stake-s,586,1545580,0.0-19.0-0.0-0.98,ARB8SJAWXUWTD,3SNR5F7RA597AOC2DOU98SGLOEGIEB,39PAAFCODQGH7WCTSSNPBN23T48TVJ,5,6
99,2,object_03,object_09,849.10000002384,4,1,253.59999990463,0.3333333333333333,2,object_10,1,1393,0,1,3,forest_3,1,memory-2step-stake-s,587,1553351,0.0-19.0-0.0-0.99,ARB8SJAWXUWTD,3SNR5F7RA597AOC2DOU98SGLOEGIEB,39PAAFCODQGH7WCTSSNPBN23T48TVJ,4,3
100,2,object_09,object_03,1189.2000000477,4,2,339.69999992847,0.2222222222222222,2,object_10,1,1395,0,6,2,forest_2,1,memory-2step-stake-s,588,1561108,0.0-19.0-0.0-0.100,ARB8SJAWXUWTD,3SNR5F7RA597AOC2DOU98SGLOEGIEB,39PAAFCODQGH7WCTSSNPBN23T48TVJ,3,4
101,3,object_02,object_08,865.89999997616,6,2,337.5,0.0,2,object_10,5,1395,0,4,0,library_6,1,memory-2step-stake-s,589,1568660,0.0-19.0-0.0-0.101,ARB8SJAWXUWTD,3SNR5F7RA597AOC2DOU98SGLOEGIEB,39PAAFCODQGH7WCTSSNPBN23T48TVJ,5,6
102,4,object_04,object_06,687.5,7,1,310.70000004768,0.1111111111111111,1,object_01,5,1400,0,1,1,restaurant_2,1,memory-2step-stake-s,590,1576287,0.0-19.0-0.0-0.102,ARB8SJAWXUWTD,3SNR5F7RA597AOC2DOU98SGLOEGIEB,39PAAFCODQGH7WCTSSNPBN23T48TVJ,7,8
103,4,object_04,object_06,651.89999997616,7,1,273.39999997616,0.1111111111111111,1,object_01,5,1405,0,1,1,restaurant_5,1,memory-2step-stake-s,591,1583877,0.0-19.0-0.0-0.103,ARB8SJAWXUWTD,3SNR5F7RA597AOC2DOU98SGLOEGIEB,39PAAFCODQGH7WCTSSNPBN23T48TVJ,7,8
104,4,object_04,object_06,379.09999990463,7,1,275.5,0.0,1,object_01,1,1405,0,0,2,restaurant_4,1,memory-2step-stake-s,592,1591363,0.0-19.0-0.0-0.104,ARB8SJAWXUWTD,3SNR5F7RA597AOC2DOU98SGLOEGIEB,39PAAFCODQGH7WCTSSNPBN23T48TVJ,7,8
105,3,object_02,object_08,861.29999995232,6,2,313.60000002384,0.0,2,object_10,5,1405,0,0,0,library_1,1,memory-2step-stake-s,593,1598894,0.0-19.0-0.0-0.105,ARB8SJAWXUWTD,3SNR5F7RA597AOC2DOU98SGLOEGIEB,39PAAFCODQGH7WCTSSNPBN23T48TVJ,5,6
106,3,object_02,object_08,370.29999995232,5,1,485.39999997616,0.2222222222222222,1,object_01,5,1415,0,2,2,library_6,1,memory-2step-stake-s,594,1606796,0.0-19.0-0.0-0.106,ARB8SJAWXUWTD,3SNR5F7RA597AOC2DOU98SGLOEGIEB,39PAAFCODQGH7WCTSSNPBN23T48TVJ,5,6
107,1,object_07,object_05,387.29999995232,2,2,449.0,0.6666666666666666,2,object_10,1,1421,0,5,6,desert_3,1,memory-2step-stake-s,595,1615065,0.0-19.0-0.0-0.107,ARB8SJAWXUWTD,3SNR5F7RA597AOC2DOU98SGLOEGIEB,39PAAFCODQGH7WCTSSNPBN23T48TVJ,1,2
108,2,object_09,object_03,995.60000002384,4,2,296.59999990463,0.4444444444444444,2,object_10,5,1441,0,5,4,forest_7,1,memory-2step-stake-s,596,1622976,0.0-19.0-0.0-0.108,ARB8SJAWXUWTD,3SNR5F7RA597AOC2DOU98SGLOEGIEB,39PAAFCODQGH7WCTSSNPBN23T48TVJ,3,4
109,1,object_05,object_07,591.09999990463,2,1,255.79999995232,0.3333333333333333,2,object_10,1,1444,0,4,3,desert_3,1,memory-2step-stake-s,597,1630764,0.0-19.0-0.0-0.109,ARB8SJAWXUWTD,3SNR5F7RA597AOC2DOU98SGLOEGIEB,39PAAFCODQGH7WCTSSNPBN23T48TVJ,2,1
110,3,object_08,object_02,752.60000002384,6,1,246.20000004768,0.1111111111111111,2,object_10,5,1449,0,1,1,library_6,1,memory-2step-stake-s,598,1638328,0.0-19.0-0.0-0.110,ARB8SJAWXUWTD,3SNR5F7RA597AOC2DOU98SGLOEGIEB,39PAAFCODQGH7WCTSSNPBN23T48TVJ,6,5
111,2,object_09,object_03,1265.2000000477,3,1,313.10000002384,0.1111111111111111,1,object_01,1,1450,0,1,3,forest_2,1,memory-2step-stake-s,599,1645953,0.0-19.0-0.0-0.111,ARB8SJAWXUWTD,3SNR5F7RA597AOC2DOU98SGLOEGIEB,39PAAFCODQGH7WCTSSNPBN23T48TVJ,3,4
112,1,object_07,object_05,604.5,1,1,459.20000004768,0.1111111111111111,1,object_01,1,1451,0,1,5,desert_5,1,memory-2step-stake-s,600,1653723,0.0-19.0-0.0-0.112,ARB8SJAWXUWTD,3SNR5F7RA597AOC2DOU98SGLOEGIEB,39PAAFCODQGH7WCTSSNPBN23T48TVJ,1,2
113,1,object_07,object_05,528.79999995232,2,2,398.0,0.4444444444444444,2,object_10,1,1455,0,3,4,desert_3,1,memory-2step-stake-s,601,1661742,0.0-19.0-0.0-0.113,ARB8SJAWXUWTD,3SNR5F7RA597AOC2DOU98SGLOEGIEB,39PAAFCODQGH7WCTSSNPBN23T48TVJ,1,2
114,1,object_07,object_05,553.29999995232,2,2,632.39999997616,0.2222222222222222,2,object_10,5,1465,0,1,2,desert_4,1,memory-2step-stake-s,602,1669817,0.0-19.0-0.0-0.114,ARB8SJAWXUWTD,3SNR5F7RA597AOC2DOU98SGLOEGIEB,39PAAFCODQGH7WCTSSNPBN23T48TVJ,1,2
115,4,object_06,object_04,654.29999995232,7,2,603.29999995232,0.2222222222222222,1,object_01,5,1475,0,2,2,restaurant_5,1,memory-2step-stake-s,603,1677843,0.0-19.0-0.0-0.115,ARB8SJAWXUWTD,3SNR5F7RA597AOC2DOU98SGLOEGIEB,39PAAFCODQGH7WCTSSNPBN23T48TVJ,8,7
116,3,object_08,object_02,280.20000004768,6,1,658.40000009537,0.3333333333333333,2,object_10,1,1478,0,1,3,library_1,1,memory-2step-stake-s,604,1686020,0.0-19.0-0.0-0.116,ARB8SJAWXUWTD,3SNR5F7RA597AOC2DOU98SGLOEGIEB,39PAAFCODQGH7WCTSSNPBN23T48TVJ,6,5
117,4,object_06,object_04,347.29999995232,7,2,701.80000007153,0.2222222222222222,1,object_01,5,1488,0,2,0,restaurant_8,1,memory-2step-stake-s,605,1694154,0.0-19.0-0.0-0.117,ARB8SJAWXUWTD,3SNR5F7RA597AOC2DOU98SGLOEGIEB,39PAAFCODQGH7WCTSSNPBN23T48TVJ,8,7
118,1,object_07,object_05,94.200000047684,1,1,308.80000007153,0.1111111111111111,1,object_01,1,1489,0,1,0,desert_4,1,memory-2step-stake-s,606,1701782,0.0-19.0-0.0-0.118,ARB8SJAWXUWTD,3SNR5F7RA597AOC2DOU98SGLOEGIEB,39PAAFCODQGH7WCTSSNPBN23T48TVJ,1,2
119,2,object_03,object_09,333.0,3,2,393.89999997616,0.0,1,object_01,1,1489,0,0,1,forest_2,1,memory-2step-stake-s,607,1709405,0.0-19.0-0.0-0.119,ARB8SJAWXUWTD,3SNR5F7RA597AOC2DOU98SGLOEGIEB,39PAAFCODQGH7WCTSSNPBN23T48TVJ,4,3
120,2,object_03,object_09,65.5,4,1,414.79999995232,0.1111111111111111,2,object_10,1,1490,0,3,1,forest_4,1,memory-2step-stake-s,608,1717137,0.0-19.0-0.0-0.120,ARB8SJAWXUWTD,3SNR5F7RA597AOC2DOU98SGLOEGIEB,39PAAFCODQGH7WCTSSNPBN23T48TVJ,4,3
121,4,object_06,object_04,229.69999992847,7,2,270.10000002384,0.4444444444444444,1,object_01,1,1494,0,4,2,restaurant_8,1,memory-2step-stake-s,609,1725038,0.0-19.0-0.0-0.121,ARB8SJAWXUWTD,3SNR5F7RA597AOC2DOU98SGLOEGIEB,39PAAFCODQGH7WCTSSNPBN23T48TVJ,8,7
122,1,object_05,object_07,775.0,1,2,241.79999995232,0.3333333333333333,1,object_01,1,1497,0,3,2,desert_6,1,memory-2step-stake-s,610,1732794,0.0-19.0-0.0-0.122,ARB8SJAWXUWTD,3SNR5F7RA597AOC2DOU98SGLOEGIEB,39PAAFCODQGH7WCTSSNPBN23T48TVJ,2,1
123,2,object_09,object_03,800.39999997616,4,2,248.40000009537,0.3333333333333333,2,object_10,1,1500,0,4,3,forest_2,1,memory-2step-stake-s,611,1740559,0.0-19.0-0.0-0.123,ARB8SJAWXUWTD,3SNR5F7RA597AOC2DOU98SGLOEGIEB,39PAAFCODQGH7WCTSSNPBN23T48TVJ,3,4
124,2,object_03,object_09,580.60000002384,3,2,300.29999995232,0.7777777777777778,1,object_01,1,1507,0,7,4,forest_4,1,memory-2step-stake-s,612,1748795,0.0-19.0-0.0-0.124,ARB8SJAWXUWTD,3SNR5F7RA597AOC2DOU98SGLOEGIEB,39PAAFCODQGH7WCTSSNPBN23T48TVJ,4,3
125,3,object_02,object_08,973.90000009537,5,1,307.90000009537,0.7777777777777778,1,object_01,5,1542,0,7,4,library_1,1,memory-2step-stake-s,613,1757031,0.0-19.0-0.0-0.125,ARB8SJAWXUWTD,3SNR5F7RA597AOC2DOU98SGLOEGIEB,39PAAFCODQGH7WCTSSNPBN23T48TVJ,5,6
126,4,object_04,object_06,856.39999997616,7,1,259.19999992847,0.8888888888888888,1,object_01,5,1582,0,8,5,restaurant_4,1,memory-2step-stake-s,614,1765326,0.0-19.0-0.0-0.126,ARB8SJAWXUWTD,3SNR5F7RA597AOC2DOU98SGLOEGIEB,39PAAFCODQGH7WCTSSNPBN23T48TVJ,7,8
127,4,object_06,object_04,803.79999995232,7,2,477.39999997616,0.8888888888888888,1,object_01,5,1622,0,8,6,restaurant_4,1,memory-2step-stake-s,615,1773826,0.0-19.0-0.0-0.127,ARB8SJAWXUWTD,3SNR5F7RA597AOC2DOU98SGLOEGIEB,39PAAFCODQGH7WCTSSNPBN23T48TVJ,8,7
128,1,object_07,object_05,437.89999997616,2,2,434.80000007153,0.4444444444444444,2,object_10,1,1626,0,6,4,desert_5,1,memory-2step-stake-s,617,1867937,0.0-19.0-0.1-0.128,ARB8SJAWXUWTD,3SNR5F7RA597AOC2DOU98SGLOEGIEB,39PAAFCODQGH7WCTSSNPBN23T48TVJ,1,2
129,3,object_02,object_08,766.10000002384,5,1,465.09999990463,1.0,1,object_01,5,1671,0,9,5,library_7,1,memory-2step-stake-s,618,1876528,0.0-19.0-0.1-0.129,ARB8SJAWXUWTD,3SNR5F7RA597AOC2DOU98SGLOEGIEB,39PAAFCODQGH7WCTSSNPBN23T48TVJ,5,6
130,3,object_08,object_02,837.39999997616,5,2,524.79999995232,0.5555555555555556,1,object_01,5,1696,0,5,6,library_7,1,memory-2step-stake-s,619,1884790,0.0-19.0-0.1-0.130,ARB8SJAWXUWTD,3SNR5F7RA597AOC2DOU98SGLOEGIEB,39PAAFCODQGH7WCTSSNPBN23T48TVJ,6,5
131,2,object_09,object_03,965.70000004768,3,1,417.10000002384,0.3333333333333333,1,object_01,1,1699,0,3,6,forest_4,1,memory-2step-stake-s,620,1892726,0.0-19.0-0.1-0.131,ARB8SJAWXUWTD,3SNR5F7RA597AOC2DOU98SGLOEGIEB,39PAAFCODQGH7WCTSSNPBN23T48TVJ,3,4
132,3,object_08,object_02,765.5,5,2,300.89999997616,0.7777777777777778,1,object_01,5,1734,0,7,5,library_6,1,memory-2step-stake-s,621,1900948,0.0-19.0-0.1-0.132,ARB8SJAWXUWTD,3SNR5F7RA597AOC2DOU98SGLOEGIEB,39PAAFCODQGH7WCTSSNPBN23T48TVJ,6,5
133,4,object_06,object_04,703.09999990463,7,2,1068.8000000715,0.6666666666666666,1,object_01,5,1764,0,6,6,restaurant_8,1,memory-2step-stake-s,622,1909834,0.0-19.0-0.1-0.133,ARB8SJAWXUWTD,3SNR5F7RA597AOC2DOU98SGLOEGIEB,39PAAFCODQGH7WCTSSNPBN23T48TVJ,8,7
134,3,object_02,object_08,959.39999997616,5,1,551.5,0.0,1,object_01,5,1764,0,0,9,library_7,1,memory-2step-stake-s,623,1917598,0.0-19.0-0.1-0.134,ARB8SJAWXUWTD,3SNR5F7RA597AOC2DOU98SGLOEGIEB,39PAAFCODQGH7WCTSSNPBN23T48TVJ,5,6
135,3,object_08,object_02,780.89999997616,5,2,676.10000002384,0.1111111111111111,1,object_01,5,1769,0,1,7,library_1,1,memory-2step-stake-s,624,1925592,0.0-19.0-0.1-0.135,ARB8SJAWXUWTD,3SNR5F7RA597AOC2DOU98SGLOEGIEB,39PAAFCODQGH7WCTSSNPBN23T48TVJ,6,5
136,2,object_09,object_03,1195.8000000715,3,1,395.80000007153,0.1111111111111111,1,object_01,1,1770,0,1,8,forest_7,1,memory-2step-stake-s,625,1933307,0.0-19.0-0.1-0.136,ARB8SJAWXUWTD,3SNR5F7RA597AOC2DOU98SGLOEGIEB,39PAAFCODQGH7WCTSSNPBN23T48TVJ,3,4
137,4,object_06,object_04,788.5,8,1,391.10000002384,0.8888888888888888,2,object_10,5,1810,0,1,8,restaurant_4,1,memory-2step-stake-s,626,1941724,0.0-19.0-0.1-0.137,ARB8SJAWXUWTD,3SNR5F7RA597AOC2DOU98SGLOEGIEB,39PAAFCODQGH7WCTSSNPBN23T48TVJ,8,7
138,4,object_06,object_04,766.70000004768,8,1,282.89999997616,0.7777777777777778,2,object_10,5,1845,0,4,7,restaurant_5,1,memory-2step-stake-s,627,1949933,0.0-19.0-0.1-0.138,ARB8SJAWXUWTD,3SNR5F7RA597AOC2DOU98SGLOEGIEB,39PAAFCODQGH7WCTSSNPBN23T48TVJ,8,7
139,1,object_05,object_07,821.30000007153,2,1,465.30000007153,0.7777777777777778,2,object_10,1,1852,0,4,7,desert_3,1,memory-2step-stake-s,628,1958318,0.0-19.0-0.1-0.139,ARB8SJAWXUWTD,3SNR5F7RA597AOC2DOU98SGLOEGIEB,39PAAFCODQGH7WCTSSNPBN23T48TVJ,2,1
140,3,object_02,object_08,929.0,6,2,415.0,0.7777777777777778,2,object_10,5,1887,0,0,7,library_2,1,memory-2step-stake-s,629,1966671,0.0-19.0-0.1-0.140,ARB8SJAWXUWTD,3SNR5F7RA597AOC2DOU98SGLOEGIEB,39PAAFCODQGH7WCTSSNPBN23T48TVJ,5,6
141,1,object_05,object_07,700.5,2,1,220.80000007153,0.7777777777777778,2,object_10,1,1894,0,1,7,desert_5,1,memory-2step-stake-s,630,1974819,0.0-19.0-0.1-0.141,ARB8SJAWXUWTD,3SNR5F7RA597AOC2DOU98SGLOEGIEB,39PAAFCODQGH7WCTSSNPBN23T48TVJ,2,1
142,4,object_04,object_06,738.19999992847,8,2,439.0,0.7777777777777778,2,object_10,5,1929,0,1,7,restaurant_5,1,memory-2step-stake-s,631,1983181,0.0-19.0-0.1-0.142,ARB8SJAWXUWTD,3SNR5F7RA597AOC2DOU98SGLOEGIEB,39PAAFCODQGH7WCTSSNPBN23T48TVJ,7,8
143,1,object_07,object_05,813.0,2,2,240.79999995232,0.4444444444444444,2,object_10,1,1933,0,0,4,desert_5,1,memory-2step-stake-s,632,1991043,0.0-19.0-0.1-0.143,ARB8SJAWXUWTD,3SNR5F7RA597AOC2DOU98SGLOEGIEB,39PAAFCODQGH7WCTSSNPBN23T48TVJ,1,2
144,4,object_04,object_06,813.59999990463,8,2,282.39999997616,0.2222222222222222,2,object_10,5,1943,0,0,2,restaurant_4,1,memory-2step-stake-s,633,1998742,0.0-19.0-0.1-0.144,ARB8SJAWXUWTD,3SNR5F7RA597AOC2DOU98SGLOEGIEB,39PAAFCODQGH7WCTSSNPBN23T48TVJ,7,8
145,1,object_07,object_05,1370.2999999523,1,1,545.5,0.2222222222222222,1,object_01,5,1953,0,2,2,desert_4,1,memory-2step-stake-s,634,2006702,0.0-19.0-0.1-0.145,ARB8SJAWXUWTD,3SNR5F7RA597AOC2DOU98SGLOEGIEB,39PAAFCODQGH7WCTSSNPBN23T48TVJ,1,2
146,4,object_04,object_06,1017.3999999762,7,1,314.80000007153,0.0,1,object_01,5,1953,0,0,0,restaurant_5,1,memory-2step-stake-s,635,2014233,0.0-19.0-0.1-0.146,ARB8SJAWXUWTD,3SNR5F7RA597AOC2DOU98SGLOEGIEB,39PAAFCODQGH7WCTSSNPBN23T48TVJ,7,8
147,1,object_07,object_05,546.40000009537,1,1,249.30000007153,0.0,1,object_01,1,1953,0,0,1,desert_4,1,memory-2step-stake-s,636,2021697,0.0-19.0-0.1-0.147,ARB8SJAWXUWTD,3SNR5F7RA597AOC2DOU98SGLOEGIEB,39PAAFCODQGH7WCTSSNPBN23T48TVJ,1,2
148,4,object_06,object_04,784.40000009537,8,1,305.60000002384,0.1111111111111111,2,object_10,5,1958,0,1,1,restaurant_5,1,memory-2step-stake-s,637,2029318,0.0-19.0-0.1-0.148,ARB8SJAWXUWTD,3SNR5F7RA597AOC2DOU98SGLOEGIEB,39PAAFCODQGH7WCTSSNPBN23T48TVJ,8,7
149,1,object_07,object_05,248.60000002384,1,1,271.5,0.1111111111111111,1,object_01,1,1959,0,1,1,desert_3,1,memory-2step-stake-s,638,2036907,0.0-19.0-0.1-0.149,ARB8SJAWXUWTD,3SNR5F7RA597AOC2DOU98SGLOEGIEB,39PAAFCODQGH7WCTSSNPBN23T48TVJ,1,2
150,3,object_02,object_08,1494.6000000238,5,1,315.19999992847,0.1111111111111111,1,object_01,5,1964,0,1,2,library_1,1,memory-2step-stake-s,639,2044553,0.0-19.0-0.1-0.150,ARB8SJAWXUWTD,3SNR5F7RA597AOC2DOU98SGLOEGIEB,39PAAFCODQGH7WCTSSNPBN23T48TVJ,5,6
151,2,object_03,object_09,281.20000004768,4,1,481.10000002384,0.3333333333333333,2,object_10,1,1967,0,3,3,forest_3,1,memory-2step-stake-s,640,2052571,0.0-19.0-0.1-0.151,ARB8SJAWXUWTD,3SNR5F7RA597AOC2DOU98SGLOEGIEB,39PAAFCODQGH7WCTSSNPBN23T48TVJ,4,3
152,1,object_07,object_05,260.40000009537,1,1,299.70000004768,0.5555555555555556,1,object_01,1,1972,0,5,2,desert_3,1,memory-2step-stake-s,641,2060609,0.0-19.0-0.1-0.152,ARB8SJAWXUWTD,3SNR5F7RA597AOC2DOU98SGLOEGIEB,39PAAFCODQGH7WCTSSNPBN23T48TVJ,1,2
153,2,object_03,object_09,892.59999990463,3,2,365.79999995232,0.5555555555555556,1,object_01,1,1977,0,5,1,forest_7,1,memory-2step-stake-s,642,2068723,0.0-19.0-0.1-0.153,ARB8SJAWXUWTD,3SNR5F7RA597AOC2DOU98SGLOEGIEB,39PAAFCODQGH7WCTSSNPBN23T48TVJ,4,3
154,4,object_04,object_06,625.0,7,1,282.30000007153,0.4444444444444444,1,object_01,5,1997,0,4,6,restaurant_5,1,memory-2step-stake-s,643,2076631,0.0-19.0-0.1-0.154,ARB8SJAWXUWTD,3SNR5F7RA597AOC2DOU98SGLOEGIEB,39PAAFCODQGH7WCTSSNPBN23T48TVJ,7,8
155,1,object_07,object_05,270.29999995232,1,1,330.10000002384,0.5555555555555556,1,object_01,1,2002,0,5,8,desert_5,1,memory-2step-stake-s,644,2084714,0.0-19.0-0.1-0.155,ARB8SJAWXUWTD,3SNR5F7RA597AOC2DOU98SGLOEGIEB,39PAAFCODQGH7WCTSSNPBN23T48TVJ,1,2
156,3,object_08,object_02,324.89999997616,6,1,209.39999997616,0.7777777777777778,2,object_10,5,2037,0,2,7,library_2,1,memory-2step-stake-s,645,2092879,0.0-19.0-0.1-0.156,ARB8SJAWXUWTD,3SNR5F7RA597AOC2DOU98SGLOEGIEB,39PAAFCODQGH7WCTSSNPBN23T48TVJ,6,5
157,4,object_04,object_06,740.10000002384,8,2,279.29999995232,0.5555555555555556,2,object_10,5,2062,0,2,5,restaurant_8,1,memory-2step-stake-s,646,2100889,0.0-19.0-0.1-0.157,ARB8SJAWXUWTD,3SNR5F7RA597AOC2DOU98SGLOEGIEB,39PAAFCODQGH7WCTSSNPBN23T48TVJ,7,8
158,3,object_02,object_08,863.69999992847,6,2,224.39999997616,0.6666666666666666,2,object_10,5,2092,0,0,6,library_7,1,memory-2step-stake-s,647,2108933,0.0-19.0-0.1-0.158,ARB8SJAWXUWTD,3SNR5F7RA597AOC2DOU98SGLOEGIEB,39PAAFCODQGH7WCTSSNPBN23T48TVJ,5,6
159,2,object_09,object_03,1054.2000000477,4,2,267.0,0.4444444444444444,2,object_10,1,2096,0,0,4,forest_2,1,memory-2step-stake-s,648,2116818,0.0-19.0-0.1-0.159,ARB8SJAWXUWTD,3SNR5F7RA597AOC2DOU98SGLOEGIEB,39PAAFCODQGH7WCTSSNPBN23T48TVJ,3,4
160,4,object_04,object_06,682.79999995232,8,2,247.89999997616,0.5555555555555556,2,object_10,5,2121,0,1,5,restaurant_4,1,memory-2step-stake-s,649,2124786,0.0-19.0-0.1-0.160,ARB8SJAWXUWTD,3SNR5F7RA597AOC2DOU98SGLOEGIEB,39PAAFCODQGH7WCTSSNPBN23T48TVJ,7,8
161,2,object_03,object_09,225.60000002384,3,2,37.100000023842,0.1111111111111111,1,object_01,1,2122,0,1,2,forest_3,1,memory-2step-stake-s,650,2132138,0.0-19.0-0.1-0.161,ARB8SJAWXUWTD,3SNR5F7RA597AOC2DOU98SGLOEGIEB,39PAAFCODQGH7WCTSSNPBN23T48TVJ,4,3
162,4,object_06,object_04,819.89999997616,8,1,251.59999990463,0.1111111111111111,2,object_10,5,2127,0,0,1,restaurant_2,1,memory-2step-stake-s,651,2139704,0.0-19.0-0.1-0.162,ARB8SJAWXUWTD,3SNR5F7RA597AOC2DOU98SGLOEGIEB,39PAAFCODQGH7WCTSSNPBN23T48TVJ,8,7
163,1,object_05,object_07,704.0,2,1,369.79999995232,0.1111111111111111,2,object_10,1,2128,0,0,1,desert_4,1,memory-2step-stake-s,652,2147389,0.0-19.0-0.1-0.163,ARB8SJAWXUWTD,3SNR5F7RA597AOC2DOU98SGLOEGIEB,39PAAFCODQGH7WCTSSNPBN23T48TVJ,2,1
164,2,object_03,object_09,1052.1000000238,4,1,224.39999997616,0.0,2,object_10,1,2128,0,2,0,forest_4,1,memory-2step-stake-s,653,2154828,0.0-19.0-0.1-0.164,ARB8SJAWXUWTD,3SNR5F7RA597AOC2DOU98SGLOEGIEB,39PAAFCODQGH7WCTSSNPBN23T48TVJ,4,3
165,1,object_05,object_07,487.70000004768,2,1,414.30000007153,0.1111111111111111,2,object_10,1,2129,0,3,1,desert_6,1,memory-2step-stake-s,654,2162571,0.0-19.0-0.1-0.165,ARB8SJAWXUWTD,3SNR5F7RA597AOC2DOU98SGLOEGIEB,39PAAFCODQGH7WCTSSNPBN23T48TVJ,2,1
166,3,object_08,object_02,447.79999995232,6,1,-1.0,0.0,2,object_10,1,2129,0,3,3,library_2,1,memory-2step-stake-s,655,2171087,0.0-19.0-0.1-0.166,ARB8SJAWXUWTD,3SNR5F7RA597AOC2DOU98SGLOEGIEB,39PAAFCODQGH7WCTSSNPBN23T48TVJ,6,5
167,4,object_06,object_04,628.5,7,2,597.89999997616,0.2222222222222222,1,object_01,5,2139,0,2,5,restaurant_5,1,memory-2step-stake-s,656,2179117,0.0-19.0-0.1-0.167,ARB8SJAWXUWTD,3SNR5F7RA597AOC2DOU98SGLOEGIEB,39PAAFCODQGH7WCTSSNPBN23T48TVJ,8,7
168,4,object_04,object_06,773.60000002384,8,2,283.60000002384,0.3333333333333333,2,object_10,1,2142,0,1,3,restaurant_8,1,memory-2step-stake-s,657,2186926,0.0-19.0-0.1-0.168,ARB8SJAWXUWTD,3SNR5F7RA597AOC2DOU98SGLOEGIEB,39PAAFCODQGH7WCTSSNPBN23T48TVJ,7,8
169,2,object_03,object_09,878.89999997616,4,1,741.70000004768,0.4444444444444444,2,object_10,1,2146,0,0,4,forest_3,1,memory-2step-stake-s,658,2195289,0.0-19.0-0.1-0.169,ARB8SJAWXUWTD,3SNR5F7RA597AOC2DOU98SGLOEGIEB,39PAAFCODQGH7WCTSSNPBN23T48TVJ,4,3
170,3,object_02,object_08,593.39999997616,6,2,917.0,0.3333333333333333,2,object_10,5,2161,0,4,3,library_6,1,memory-2step-stake-s,659,2203725,0.0-19.0-0.1-0.170,ARB8SJAWXUWTD,3SNR5F7RA597AOC2DOU98SGLOEGIEB,39PAAFCODQGH7WCTSSNPBN23T48TVJ,5,6
171,4,object_06,object_04,1114.2000000477,8,1,317.70000004768,0.3333333333333333,2,object_10,5,2176,0,4,3,restaurant_2,1,memory-2step-stake-s,660,2211559,0.0-19.0-0.1-0.171,ARB8SJAWXUWTD,3SNR5F7RA597AOC2DOU98SGLOEGIEB,39PAAFCODQGH7WCTSSNPBN23T48TVJ,8,7
172,1,object_07,object_05,613.79999995232,2,2,338.30000007153,0.4444444444444444,2,object_10,5,2196,0,2,4,desert_5,1,memory-2step-stake-s,661,2219525,0.0-19.0-0.1-0.172,ARB8SJAWXUWTD,3SNR5F7RA597AOC2DOU98SGLOEGIEB,39PAAFCODQGH7WCTSSNPBN23T48TVJ,1,2
173,1,object_05,object_07,269.5,2,1,426.0,0.0,2,object_10,1,2196,0,1,0,desert_3,1,memory-2step-stake-s,662,2227169,0.0-19.0-0.1-0.173,ARB8SJAWXUWTD,3SNR5F7RA597AOC2DOU98SGLOEGIEB,39PAAFCODQGH7WCTSSNPBN23T48TVJ,2,1
174,1,object_07,object_05,503.70000004768,2,2,344.79999995232,0.0,2,object_10,1,2196,0,0,0,desert_4,1,memory-2step-stake-s,663,2234728,0.0-19.0-0.1-0.174,ARB8SJAWXUWTD,3SNR5F7RA597AOC2DOU98SGLOEGIEB,39PAAFCODQGH7WCTSSNPBN23T48TVJ,1,2
175,3,object_08,object_02,821.10000002384,5,2,696.69999992847,0.1111111111111111,1,object_01,5,2201,0,1,0,library_7,1,memory-2step-stake-s,664,2242737,0.0-19.0-0.1-0.175,ARB8SJAWXUWTD,3SNR5F7RA597AOC2DOU98SGLOEGIEB,39PAAFCODQGH7WCTSSNPBN23T48TVJ,6,5
176,2,object_09,object_03,1016.8999999762,3,1,724.70000004768,0.0,1,object_01,1,2201,0,0,2,forest_3,1,memory-2step-stake-s,665,2250674,0.0-19.0-0.1-0.176,ARB8SJAWXUWTD,3SNR5F7RA597AOC2DOU98SGLOEGIEB,39PAAFCODQGH7WCTSSNPBN23T48TVJ,3,4
177,1,object_05,object_07,644.5,1,2,1149.1999999285,0.3333333333333333,1,object_01,1,2204,0,3,2,desert_4,1,memory-2step-stake-s,666,2259341,0.0-19.0-0.1-0.177,ARB8SJAWXUWTD,3SNR5F7RA597AOC2DOU98SGLOEGIEB,39PAAFCODQGH7WCTSSNPBN23T48TVJ,2,1
178,3,object_08,object_02,-1.0,-1,-1,-1.0,0.0,-,0,1,2204,0,1,2,library_6,1,memory-2step-stake-s,667,2265852,0.0-19.0-0.1-0.178,ARB8SJAWXUWTD,3SNR5F7RA597AOC2DOU98SGLOEGIEB,39PAAFCODQGH7WCTSSNPBN23T48TVJ,6,5
179,3,object_02,object_08,812.70000004768,5,1,434.39999997616,0.1111111111111111,1,object_01,5,2209,0,1,2,library_6,1,memory-2step-stake-s,668,2273601,0.0-19.0-0.1-0.179,ARB8SJAWXUWTD,3SNR5F7RA597AOC2DOU98SGLOEGIEB,39PAAFCODQGH7WCTSSNPBN23T48TVJ,5,6
180,2,object_03,object_09,527.0,3,2,337.10000002384,0.3333333333333333,1,object_01,1,2212,0,3,6,forest_3,1,memory-2step-stake-s,669,2281468,0.0-19.0-0.1-0.180,ARB8SJAWXUWTD,3SNR5F7RA597AOC2DOU98SGLOEGIEB,39PAAFCODQGH7WCTSSNPBN23T48TVJ,4,3
181,3,object_08,object_02,916.79999995232,5,2,361.79999995232,0.1111111111111111,1,object_01,5,2217,0,1,5,library_7,1,memory-2step-stake-s,670,2289161,0.0-19.0-0.1-0.181,ARB8SJAWXUWTD,3SNR5F7RA597AOC2DOU98SGLOEGIEB,39PAAFCODQGH7WCTSSNPBN23T48TVJ,6,5
182,4,object_04,object_06,748.90000009537,8,2,304.10000002384,0.4444444444444444,2,object_10,5,2237,0,1,4,restaurant_4,1,memory-2step-stake-s,671,2297086,0.0-19.0-0.1-0.182,ARB8SJAWXUWTD,3SNR5F7RA597AOC2DOU98SGLOEGIEB,39PAAFCODQGH7WCTSSNPBN23T48TVJ,7,8
183,4,object_04,object_06,575.79999995232,8,2,300.70000004768,0.0,2,object_10,5,2237,0,2,0,restaurant_4,1,memory-2step-stake-s,672,2304603,0.0-19.0-0.1-0.183,ARB8SJAWXUWTD,3SNR5F7RA597AOC2DOU98SGLOEGIEB,39PAAFCODQGH7WCTSSNPBN23T48TVJ,7,8
184,3,object_02,object_08,1317.6999999285,5,1,391.80000007153,0.0,1,object_01,5,2237,0,0,2,library_7,1,memory-2step-stake-s,673,2312209,0.0-19.0-0.1-0.184,ARB8SJAWXUWTD,3SNR5F7RA597AOC2DOU98SGLOEGIEB,39PAAFCODQGH7WCTSSNPBN23T48TVJ,5,6
185,4,object_06,object_04,252.20000004768,7,2,407.89999997616,0.3333333333333333,1,object_01,5,2252,0,3,3,restaurant_2,1,memory-2step-stake-s,674,2320133,0.0-19.0-0.1-0.185,ARB8SJAWXUWTD,3SNR5F7RA597AOC2DOU98SGLOEGIEB,39PAAFCODQGH7WCTSSNPBN23T48TVJ,8,7
186,2,object_09,object_03,200.10000002384,3,1,338.20000004768,0.3333333333333333,1,object_01,1,2255,0,3,1,forest_4,1,memory-2step-stake-s,675,2327985,0.0-19.0-0.1-0.186,ARB8SJAWXUWTD,3SNR5F7RA597AOC2DOU98SGLOEGIEB,39PAAFCODQGH7WCTSSNPBN23T48TVJ,3,4
187,2,object_03,object_09,134.80000007153,3,2,300.89999997616,0.6666666666666666,1,object_01,1,2261,0,6,0,forest_3,1,memory-2step-stake-s,676,2336111,0.0-19.0-0.1-0.187,ARB8SJAWXUWTD,3SNR5F7RA597AOC2DOU98SGLOEGIEB,39PAAFCODQGH7WCTSSNPBN23T48TVJ,4,3
188,2,object_09,object_03,958.20000004768,3,1,295.69999992847,0.5555555555555556,1,object_01,1,2266,0,5,0,forest_4,1,memory-2step-stake-s,677,2344128,0.0-19.0-0.1-0.188,ARB8SJAWXUWTD,3SNR5F7RA597AOC2DOU98SGLOEGIEB,39PAAFCODQGH7WCTSSNPBN23T48TVJ,3,4
189,2,object_03,object_09,662.79999995232,3,2,246.29999995232,0.6666666666666666,1,object_01,5,2296,0,6,0,forest_2,1,memory-2step-stake-s,678,2352208,0.0-19.0-0.1-0.189,ARB8SJAWXUWTD,3SNR5F7RA597AOC2DOU98SGLOEGIEB,39PAAFCODQGH7WCTSSNPBN23T48TVJ,4,3
190,2,object_09,object_03,678.5,3,1,-1.0,0.0,1,object_01,1,2296,0,5,0,forest_2,1,memory-2step-stake-s,679,2360739,0.0-19.0-0.1-0.190,ARB8SJAWXUWTD,3SNR5F7RA597AOC2DOU98SGLOEGIEB,39PAAFCODQGH7WCTSSNPBN23T48TVJ,3,4
191,2,object_03,object_09,701.20000004768,3,2,437.89999997616,0.7777777777777778,1,object_01,1,2303,0,7,0,forest_2,1,memory-2step-stake-s,680,2369110,0.0-19.0-0.1-0.191,ARB8SJAWXUWTD,3SNR5F7RA597AOC2DOU98SGLOEGIEB,39PAAFCODQGH7WCTSSNPBN23T48TVJ,4,3
192,2,object_03,object_09,493.69999992847,3,2,290.10000002384,0.7777777777777778,1,object_01,1,2310,0,7,1,forest_7,1,memory-2step-stake-s,681,2377327,0.0-19.0-0.1-0.192,ARB8SJAWXUWTD,3SNR5F7RA597AOC2DOU98SGLOEGIEB,39PAAFCODQGH7WCTSSNPBN23T48TVJ,4,3
193,3,object_08,object_02,962.89999997616,5,2,541.0,0.6666666666666666,1,object_01,5,2340,0,6,1,library_6,1,memory-2step-stake-s,682,2385697,0.0-19.0-0.1-0.193,ARB8SJAWXUWTD,3SNR5F7RA597AOC2DOU98SGLOEGIEB,39PAAFCODQGH7WCTSSNPBN23T48TVJ,6,5
194,4,object_06,object_04,890.79999995232,7,2,646.60000002384,0.8888888888888888,1,object_01,1,2348,0,8,2,restaurant_2,1,memory-2step-stake-s,683,2394371,0.0-19.0-0.1-0.194,ARB8SJAWXUWTD,3SNR5F7RA597AOC2DOU98SGLOEGIEB,39PAAFCODQGH7WCTSSNPBN23T48TVJ,8,7
195,4,object_06,object_04,885.60000002384,7,2,388.80000007153,1.0,1,object_01,5,2393,0,9,0,restaurant_5,1,memory-2step-stake-s,684,2402896,0.0-19.0-0.1-0.195,ARB8SJAWXUWTD,3SNR5F7RA597AOC2DOU98SGLOEGIEB,39PAAFCODQGH7WCTSSNPBN23T48TVJ,8,7
196,4,object_06,object_04,899.79999995232,7,2,284.29999995232,0.5555555555555556,1,object_01,5,2418,0,5,2,restaurant_8,1,memory-2step-stake-s,685,2410936,0.0-19.0-0.1-0.196,ARB8SJAWXUWTD,3SNR5F7RA597AOC2DOU98SGLOEGIEB,39PAAFCODQGH7WCTSSNPBN23T48TVJ,8,7
197,3,object_02,object_08,781.60000002384,5,1,301.79999995232,0.3333333333333333,1,object_01,5,2433,0,3,1,library_6,1,memory-2step-stake-s,686,2418762,0.0-19.0-0.1-0.197,ARB8SJAWXUWTD,3SNR5F7RA597AOC2DOU98SGLOEGIEB,39PAAFCODQGH7WCTSSNPBN23T48TVJ,5,6
198,3,object_08,object_02,994.10000002384,6,1,350.0,0.2222222222222222,2,object_10,1,2435,0,2,2,library_6,1,memory-2step-stake-s,687,2426541,0.0-19.0-0.1-0.198,ARB8SJAWXUWTD,3SNR5F7RA597AOC2DOU98SGLOEGIEB,39PAAFCODQGH7WCTSSNPBN23T48TVJ,6,5
199,4,object_06,object_04,754.30000007153,8,1,260.79999995232,0.1111111111111111,2,object_10,5,2440,0,0,1,restaurant_5,1,memory-2step-stake-s,688,2434117,0.0-19.0-0.1-0.199,ARB8SJAWXUWTD,3SNR5F7RA597AOC2DOU98SGLOEGIEB,39PAAFCODQGH7WCTSSNPBN23T48TVJ,8,7
200,1,object_07,object_05,795.39999997616,2,2,161.39999997616,0.3333333333333333,2,object_10,1,2443,0,3,3,desert_3,1,memory-2step-stake-s,689,2441795,0.0-19.0-0.1-0.200,ARB8SJAWXUWTD,3SNR5F7RA597AOC2DOU98SGLOEGIEB,39PAAFCODQGH7WCTSSNPBN23T48TVJ,1,2
201,2,object_03,object_09,861.19999992847,3,2,275.69999992847,0.3333333333333333,1,object_01,1,2446,0,3,3,forest_2,1,memory-2step-stake-s,690,2449588,0.0-19.0-0.1-0.201,ARB8SJAWXUWTD,3SNR5F7RA597AOC2DOU98SGLOEGIEB,39PAAFCODQGH7WCTSSNPBN23T48TVJ,4,3
202,4,object_04,object_06,1072.7999999523,7,1,326.60000002384,0.4444444444444444,1,object_01,5,2466,0,4,4,restaurant_2,1,memory-2step-stake-s,691,2457534,0.0-19.0-0.1-0.202,ARB8SJAWXUWTD,3SNR5F7RA597AOC2DOU98SGLOEGIEB,39PAAFCODQGH7WCTSSNPBN23T48TVJ,7,8
203,4,object_06,object_04,701.60000002384,7,2,459.89999997616,0.6666666666666666,1,object_01,5,2496,0,6,4,restaurant_8,1,memory-2step-stake-s,692,2465817,0.0-19.0-0.1-0.203,ARB8SJAWXUWTD,3SNR5F7RA597AOC2DOU98SGLOEGIEB,39PAAFCODQGH7WCTSSNPBN23T48TVJ,8,7
204,3,object_08,object_02,356.10000002384,6,1,385.60000002384,0.5555555555555556,2,object_10,1,2501,0,9,5,library_6,1,memory-2step-stake-s,693,2473939,0.0-19.0-0.1-0.204,ARB8SJAWXUWTD,3SNR5F7RA597AOC2DOU98SGLOEGIEB,39PAAFCODQGH7WCTSSNPBN23T48TVJ,6,5
205,1,object_05,object_07,675.70000004768,2,1,300.69999992847,0.3333333333333333,2,object_10,1,2504,0,6,3,desert_3,1,memory-2step-stake-s,694,2481763,0.0-19.0-0.1-0.205,ARB8SJAWXUWTD,3SNR5F7RA597AOC2DOU98SGLOEGIEB,39PAAFCODQGH7WCTSSNPBN23T48TVJ,2,1
206,3,object_08,object_02,307.70000004768,5,2,302.29999995232,0.5555555555555556,1,object_01,1,2509,0,5,6,library_7,1,memory-2step-stake-s,695,2489786,0.0-19.0-0.1-0.206,ARB8SJAWXUWTD,3SNR5F7RA597AOC2DOU98SGLOEGIEB,39PAAFCODQGH7WCTSSNPBN23T48TVJ,6,5
207,2,object_09,object_03,635.40000009537,3,1,409.0,0.5555555555555556,1,object_01,1,2514,0,5,7,forest_7,1,memory-2step-stake-s,696,2497922,0.0-19.0-0.1-0.207,ARB8SJAWXUWTD,3SNR5F7RA597AOC2DOU98SGLOEGIEB,39PAAFCODQGH7WCTSSNPBN23T48TVJ,3,4
208,4,object_06,object_04,313.89999997616,8,1,213.0,0.6666666666666666,2,object_10,5,2544,0,6,6,restaurant_2,1,memory-2step-stake-s,697,2505961,0.0-19.0-0.1-0.208,ARB8SJAWXUWTD,3SNR5F7RA597AOC2DOU98SGLOEGIEB,39PAAFCODQGH7WCTSSNPBN23T48TVJ,8,7
209,4,object_04,object_06,967.60000002384,7,1,424.70000004768,0.4444444444444444,1,object_01,1,2548,0,4,5,restaurant_4,1,memory-2step-stake-s,698,2514007,0.0-19.0-0.1-0.209,ARB8SJAWXUWTD,3SNR5F7RA597AOC2DOU98SGLOEGIEB,39PAAFCODQGH7WCTSSNPBN23T48TVJ,7,8
210,4,object_04,object_06,368.89999997616,7,1,280.5,0.7777777777777778,1,object_01,5,2583,0,7,2,restaurant_2,1,memory-2step-stake-s,699,2522227,0.0-19.0-0.1-0.210,ARB8SJAWXUWTD,3SNR5F7RA597AOC2DOU98SGLOEGIEB,39PAAFCODQGH7WCTSSNPBN23T48TVJ,7,8
211,3,object_08,object_02,899.5,6,1,461.0,0.4444444444444444,2,object_10,5,2603,0,4,4,library_7,1,memory-2step-stake-s,700,2530316,0.0-19.0-0.1-0.211,ARB8SJAWXUWTD,3SNR5F7RA597AOC2DOU98SGLOEGIEB,39PAAFCODQGH7WCTSSNPBN23T48TVJ,6,5
212,1,object_07,object_05,7.2999999523163,1,1,771.19999992847,0.3333333333333333,1,object_01,1,2606,0,3,4,desert_5,1,memory-2step-stake-s,701,2538606,0.0-19.0-0.1-0.212,ARB8SJAWXUWTD,3SNR5F7RA597AOC2DOU98SGLOEGIEB,39PAAFCODQGH7WCTSSNPBN23T48TVJ,1,2
213,2,object_09,object_03,217.79999995232,3,1,440.80000007153,0.2222222222222222,1,object_01,1,2608,0,2,2,forest_4,1,memory-2step-stake-s,702,2546471,0.0-19.0-0.1-0.213,ARB8SJAWXUWTD,3SNR5F7RA597AOC2DOU98SGLOEGIEB,39PAAFCODQGH7WCTSSNPBN23T48TVJ,3,4
214,1,object_05,object_07,1124.2999999523,2,1,581.80000007153,0.7777777777777778,2,object_10,1,2615,0,3,7,desert_4,1,memory-2step-stake-s,703,2554985,0.0-19.0-0.1-0.214,ARB8SJAWXUWTD,3SNR5F7RA597AOC2DOU98SGLOEGIEB,39PAAFCODQGH7WCTSSNPBN23T48TVJ,2,1
215,3,object_08,object_02,348.69999992847,6,1,408.29999995232,0.7777777777777778,2,object_10,5,2650,0,3,7,library_7,1,memory-2step-stake-s,704,2563315,0.0-19.0-0.1-0.215,ARB8SJAWXUWTD,3SNR5F7RA597AOC2DOU98SGLOEGIEB,39PAAFCODQGH7WCTSSNPBN23T48TVJ,6,5
216,1,object_05,object_07,766.79999995232,1,2,707.70000004768,0.7777777777777778,1,object_01,1,2657,0,7,3,desert_3,1,memory-2step-stake-s,705,2571946,0.0-19.0-0.1-0.216,ARB8SJAWXUWTD,3SNR5F7RA597AOC2DOU98SGLOEGIEB,39PAAFCODQGH7WCTSSNPBN23T48TVJ,2,1
217,2,object_03,object_09,320.09999990463,3,2,299.39999997616,0.7777777777777778,1,object_01,1,2664,0,7,4,forest_7,1,memory-2step-stake-s,706,2580183,0.0-19.0-0.1-0.217,ARB8SJAWXUWTD,3SNR5F7RA597AOC2DOU98SGLOEGIEB,39PAAFCODQGH7WCTSSNPBN23T48TVJ,4,3
218,2,object_03,object_09,352.89999997616,3,2,472.0,0.8888888888888888,1,object_01,5,2704,0,8,5,forest_7,1,memory-2step-stake-s,707,2588696,0.0-19.0-0.1-0.218,ARB8SJAWXUWTD,3SNR5F7RA597AOC2DOU98SGLOEGIEB,39PAAFCODQGH7WCTSSNPBN23T48TVJ,4,3
219,2,object_03,object_09,342.79999995232,3,2,300.20000004768,0.8888888888888888,1,object_01,1,2712,0,8,6,forest_4,1,memory-2step-stake-s,708,2597024,0.0-19.0-0.1-0.219,ARB8SJAWXUWTD,3SNR5F7RA597AOC2DOU98SGLOEGIEB,39PAAFCODQGH7WCTSSNPBN23T48TVJ,4,3
220,4,object_04,object_06,927.59999990463,7,1,419.80000007153,0.8888888888888888,1,object_01,5,2752,0,8,8,restaurant_5,1,memory-2step-stake-s,709,2605469,0.0-19.0-0.1-0.220,ARB8SJAWXUWTD,3SNR5F7RA597AOC2DOU98SGLOEGIEB,39PAAFCODQGH7WCTSSNPBN23T48TVJ,7,8
221,3,object_08,object_02,615.19999992847,5,2,376.0,0.4444444444444444,1,object_01,5,2772,0,4,7,library_7,1,memory-2step-stake-s,710,2613474,0.0-19.0-0.1-0.221,ARB8SJAWXUWTD,3SNR5F7RA597AOC2DOU98SGLOEGIEB,39PAAFCODQGH7WCTSSNPBN23T48TVJ,6,5
222,4,object_04,object_06,723.70000004768,7,1,498.10000002384,0.3333333333333333,1,object_01,5,2787,0,3,4,restaurant_5,1,memory-2step-stake-s,711,2621491,0.0-19.0-0.1-0.222,ARB8SJAWXUWTD,3SNR5F7RA597AOC2DOU98SGLOEGIEB,39PAAFCODQGH7WCTSSNPBN23T48TVJ,7,8
223,2,object_09,object_03,794.89999997616,3,1,404.79999995232,0.1111111111111111,1,object_01,1,2788,0,1,4,forest_3,1,memory-2step-stake-s,712,2629217,0.0-19.0-0.1-0.223,ARB8SJAWXUWTD,3SNR5F7RA597AOC2DOU98SGLOEGIEB,39PAAFCODQGH7WCTSSNPBN23T48TVJ,3,4
224,1,object_05,object_07,731.60000002384,2,1,285.10000002384,0.7777777777777778,2,object_10,1,2795,0,0,7,desert_6,1,memory-2step-stake-s,713,2637421,0.0-19.0-0.1-0.224,ARB8SJAWXUWTD,3SNR5F7RA597AOC2DOU98SGLOEGIEB,39PAAFCODQGH7WCTSSNPBN23T48TVJ,2,1
225,3,object_08,object_02,798.0,6,1,259.0,0.6666666666666666,2,object_10,5,2825,0,4,6,library_2,1,memory-2step-stake-s,714,2645516,0.0-19.0-0.1-0.225,ARB8SJAWXUWTD,3SNR5F7RA597AOC2DOU98SGLOEGIEB,39PAAFCODQGH7WCTSSNPBN23T48TVJ,6,5
226,2,object_09,object_03,825.70000004768,4,2,273.39999997616,0.7777777777777778,2,object_10,5,2860,0,4,7,forest_7,1,memory-2step-stake-s,715,2653720,0.0-19.0-0.1-0.226,ARB8SJAWXUWTD,3SNR5F7RA597AOC2DOU98SGLOEGIEB,39PAAFCODQGH7WCTSSNPBN23T48TVJ,3,4
227,3,object_08,object_02,940.0,6,1,384.5,0.8888888888888888,2,object_10,5,2900,0,2,8,library_2,1,memory-2step-stake-s,716,2662136,0.0-19.0-0.1-0.227,ARB8SJAWXUWTD,3SNR5F7RA597AOC2DOU98SGLOEGIEB,39PAAFCODQGH7WCTSSNPBN23T48TVJ,6,5
228,4,object_06,object_04,725.59999990463,8,1,313.0,0.4444444444444444,2,object_10,1,2904,0,2,4,restaurant_2,1,memory-2step-stake-s,717,2670096,0.0-19.0-0.1-0.228,ARB8SJAWXUWTD,3SNR5F7RA597AOC2DOU98SGLOEGIEB,39PAAFCODQGH7WCTSSNPBN23T48TVJ,8,7
229,3,object_08,object_02,1026.0,5,2,588.0,0.4444444444444444,1,object_01,1,2908,0,4,0,library_1,1,memory-2step-stake-s,718,2678302,0.0-19.0-0.1-0.229,ARB8SJAWXUWTD,3SNR5F7RA597AOC2DOU98SGLOEGIEB,39PAAFCODQGH7WCTSSNPBN23T48TVJ,6,5
230,2,object_09,object_03,1262.2000000477,3,1,640.19999992847,0.2222222222222222,1,object_01,1,2910,0,2,1,forest_3,1,memory-2step-stake-s,719,2686359,0.0-19.0-0.1-0.230,ARB8SJAWXUWTD,3SNR5F7RA597AOC2DOU98SGLOEGIEB,39PAAFCODQGH7WCTSSNPBN23T48TVJ,3,4
231,1,object_07,object_05,768.89999997616,1,1,207.0,0.2222222222222222,1,object_01,1,2912,0,2,2,desert_6,1,memory-2step-stake-s,720,2693991,0.0-19.0-0.1-0.231,ARB8SJAWXUWTD,3SNR5F7RA597AOC2DOU98SGLOEGIEB,39PAAFCODQGH7WCTSSNPBN23T48TVJ,1,2
232,1,object_07,object_05,402.0,2,2,39.399999976158,0.4444444444444444,2,object_10,1,2916,0,4,4,desert_6,1,memory-2step-stake-s,721,2701652,0.0-19.0-0.1-0.232,ARB8SJAWXUWTD,3SNR5F7RA597AOC2DOU98SGLOEGIEB,39PAAFCODQGH7WCTSSNPBN23T48TVJ,1,2
233,4,object_06,object_04,735.30000007153,8,1,260.89999997616,0.2222222222222222,2,object_10,5,2926,0,7,2,restaurant_2,1,memory-2step-stake-s,722,2709332,0.0-19.0-0.1-0.233,ARB8SJAWXUWTD,3SNR5F7RA597AOC2DOU98SGLOEGIEB,39PAAFCODQGH7WCTSSNPBN23T48TVJ,8,7
234,2,object_03,object_09,641.29999995232,3,2,455.0,0.7777777777777778,1,object_01,1,2933,0,7,3,forest_3,1,memory-2step-stake-s,723,2717718,0.0-19.0-0.1-0.234,ARB8SJAWXUWTD,3SNR5F7RA597AOC2DOU98SGLOEGIEB,39PAAFCODQGH7WCTSSNPBN23T48TVJ,4,3
235,2,object_03,object_09,581.5,3,2,942.5,0.6666666666666666,1,object_01,1,2939,0,6,2,forest_2,1,memory-2step-stake-s,724,2726482,0.0-19.0-0.1-0.235,ARB8SJAWXUWTD,3SNR5F7RA597AOC2DOU98SGLOEGIEB,39PAAFCODQGH7WCTSSNPBN23T48TVJ,4,3
236,3,object_08,object_02,1069.2000000477,5,2,344.5,0.3333333333333333,1,object_01,5,2954,0,3,0,library_6,1,memory-2step-stake-s,725,2734345,0.0-19.0-0.1-0.236,ARB8SJAWXUWTD,3SNR5F7RA597AOC2DOU98SGLOEGIEB,39PAAFCODQGH7WCTSSNPBN23T48TVJ,6,5
237,3,object_02,object_08,1012.7999999523,5,1,394.10000002384,0.1111111111111111,1,object_01,1,2955,0,1,1,library_2,1,memory-2step-stake-s,726,2742052,0.0-19.0-0.1-0.237,ARB8SJAWXUWTD,3SNR5F7RA597AOC2DOU98SGLOEGIEB,39PAAFCODQGH7WCTSSNPBN23T48TVJ,5,6
238,1,object_07,object_05,640.29999995232,2,2,1324.7999999523,0.6666666666666666,2,object_10,1,2961,0,4,6,desert_5,1,memory-2step-stake-s,727,2751201,0.0-19.0-0.1-0.238,ARB8SJAWXUWTD,3SNR5F7RA597AOC2DOU98SGLOEGIEB,39PAAFCODQGH7WCTSSNPBN23T48TVJ,1,2
239,2,object_09,object_03,824.20000004768,3,1,-1.0,0.0,1,object_01,1,2961,0,2,5,forest_4,1,memory-2step-stake-s,728,2759714,0.0-19.0-0.1-0.239,ARB8SJAWXUWTD,3SNR5F7RA597AOC2DOU98SGLOEGIEB,39PAAFCODQGH7WCTSSNPBN23T48TVJ,3,4
240,2,object_03,object_09,318.20000004768,4,1,275.70000004768,0.3333333333333333,2,object_10,1,2964,0,3,3,forest_7,1,memory-2step-stake-s,729,2767518,0.0-19.0-0.1-0.240,ARB8SJAWXUWTD,3SNR5F7RA597AOC2DOU98SGLOEGIEB,39PAAFCODQGH7WCTSSNPBN23T48TVJ,4,3
241,2,object_09,object_03,414.0,4,2,1265.8999999762,0.1111111111111111,2,object_10,1,2965,0,3,1,forest_7,1,memory-2step-stake-s,730,2776098,0.0-19.0-0.1-0.241,ARB8SJAWXUWTD,3SNR5F7RA597AOC2DOU98SGLOEGIEB,39PAAFCODQGH7WCTSSNPBN23T48TVJ,3,4
242,4,object_04,object_06,553.5,8,2,-1.0,0.0,2,object_10,5,2965,0,1,1,restaurant_5,1,memory-2step-stake-s,731,2784613,0.0-19.0-0.1-0.242,ARB8SJAWXUWTD,3SNR5F7RA597AOC2DOU98SGLOEGIEB,39PAAFCODQGH7WCTSSNPBN23T48TVJ,7,8
243,4,object_04,object_06,815.89999997616,8,2,736.0,0.2222222222222222,2,object_10,5,2975,0,6,2,restaurant_8,1,memory-2step-stake-s,732,2792768,0.0-19.0-0.1-0.243,ARB8SJAWXUWTD,3SNR5F7RA597AOC2DOU98SGLOEGIEB,39PAAFCODQGH7WCTSSNPBN23T48TVJ,7,8
244,3,object_08,object_02,460.20000004768,5,2,618.89999997616,0.6666666666666666,1,object_01,5,3005,0,6,3,library_2,1,memory-2step-stake-s,733,2801207,0.0-19.0-0.1-0.244,ARB8SJAWXUWTD,3SNR5F7RA597AOC2DOU98SGLOEGIEB,39PAAFCODQGH7WCTSSNPBN23T48TVJ,6,5
245,2,object_03,object_09,396.30000007153,3,2,442.20000004768,1.0,1,object_01,1,3014,0,9,1,forest_4,1,memory-2step-stake-s,734,2809775,0.0-19.0-0.1-0.245,ARB8SJAWXUWTD,3SNR5F7RA597AOC2DOU98SGLOEGIEB,39PAAFCODQGH7WCTSSNPBN23T48TVJ,4,3
246,4,object_06,object_04,349.20000004768,7,2,544.79999995232,0.6666666666666666,1,object_01,5,3044,0,6,1,restaurant_8,1,memory-2step-stake-s,735,2818138,0.0-19.0-0.1-0.246,ARB8SJAWXUWTD,3SNR5F7RA597AOC2DOU98SGLOEGIEB,39PAAFCODQGH7WCTSSNPBN23T48TVJ,8,7
247,1,object_05,object_07,689.80000007153,1,2,-1.0,0.0,1,object_01,1,3044,0,5,1,desert_6,1,memory-2step-stake-s,736,2826667,0.0-19.0-0.1-0.247,ARB8SJAWXUWTD,3SNR5F7RA597AOC2DOU98SGLOEGIEB,39PAAFCODQGH7WCTSSNPBN23T48TVJ,2,1
248,3,object_08,object_02,101.70000004768,5,2,-1.0,0.0,1,object_01,5,3044,0,4,1,library_1,1,memory-2step-stake-s,737,2835188,0.0-19.0-0.1-0.248,ARB8SJAWXUWTD,3SNR5F7RA597AOC2DOU98SGLOEGIEB,39PAAFCODQGH7WCTSSNPBN23T48TVJ,6,5
249,1,object_05,object_07,206.40000009537,1,2,343.19999992847,0.3333333333333333,1,object_01,1,3047,0,3,4,desert_3,1,memory-2step-stake-s,738,2843067,0.0-19.0-0.1-0.249,ARB8SJAWXUWTD,3SNR5F7RA597AOC2DOU98SGLOEGIEB,39PAAFCODQGH7WCTSSNPBN23T48TVJ,2,1
250,4,object_06,object_04,99.799999952316,7,2,296.19999992847,0.1111111111111111,1,object_01,1,3048,0,1,5,restaurant_5,1,memory-2step-stake-s,739,2850686,0.0-19.0-0.1-0.250,ARB8SJAWXUWTD,3SNR5F7RA597AOC2DOU98SGLOEGIEB,39PAAFCODQGH7WCTSSNPBN23T48TVJ,8,7
251,2,object_03,object_09,504.60000002384,4,1,501.69999992847,0.5555555555555556,2,object_10,1,3053,0,2,5,forest_3,1,memory-2step-stake-s,740,2858907,0.0-19.0-0.1-0.251,ARB8SJAWXUWTD,3SNR5F7RA597AOC2DOU98SGLOEGIEB,39PAAFCODQGH7WCTSSNPBN23T48TVJ,4,3
252,3,object_08,object_02,164.10000002384,5,2,782.79999995232,0.3333333333333333,1,object_01,1,3056,0,3,8,library_7,1,memory-2step-stake-s,741,2867214,0.0-19.0-0.1-0.252,ARB8SJAWXUWTD,3SNR5F7RA597AOC2DOU98SGLOEGIEB,39PAAFCODQGH7WCTSSNPBN23T48TVJ,6,5
253,2,object_09,object_03,1301.7000000477,3,1,999.90000009537,0.4444444444444444,1,object_01,1,3060,0,4,7,forest_7,1,memory-2step-stake-s,742,2875832,0.0-19.0-0.1-0.253,ARB8SJAWXUWTD,3SNR5F7RA597AOC2DOU98SGLOEGIEB,39PAAFCODQGH7WCTSSNPBN23T48TVJ,3,4
254,1,object_05,object_07,673.0,1,2,738.10000002384,0.2222222222222222,1,object_01,5,3070,0,2,7,desert_4,1,memory-2step-stake-s,743,2883990,0.0-19.0-0.1-0.254,ARB8SJAWXUWTD,3SNR5F7RA597AOC2DOU98SGLOEGIEB,39PAAFCODQGH7WCTSSNPBN23T48TVJ,2,1
255,1,object_05,object_07,-1.0,-1,-1,-1.0,0.0,-,0,5,3070,0,2,7,desert_6,1,memory-2step-stake-s,744,2890499,0.0-19.0-0.1-0.255,ARB8SJAWXUWTD,3SNR5F7RA597AOC2DOU98SGLOEGIEB,39PAAFCODQGH7WCTSSNPBN23T48TVJ,2,1
