,state1,stim_left,stim_right,rt_1,choice1,response1,rt_2,points,state2,stim_state2,stake,score,practice,rews1,rews2,background,high_arm,trial_type,trial_index,time_elapsed,internal_node_id,subid,hitid,assignmentid,stim_left_num,stim_right_num
0,3,object_05,object_02,694.20499994885,6,1,601.11499996856,0.6666666666666666,2,object_07,1,6,0,1,6,library_3,2,memory-2step-stake-s,497,944341,0.0-19.0-0.0-0.0,AWAHIWLMQ0HUQ,3YO4AH2FQG0L0WLRIP03W553LNE0Q1,3KB8R4ZV1INYTDSH3BXIBST70G2BG0,6,5
1,2,object_08,object_09,855.32999993302,3,2,567.26000003982,0.5555555555555556,1,object_01,5,31,0,5,6,forest_4,2,memory-2step-stake-s,498,952645,0.0-19.0-0.0-0.1,AWAHIWLMQ0HUQ,3YO4AH2FQG0L0WLRIP03W553LNE0Q1,3KB8R4ZV1INYTDSH3BXIBST70G2BG0,4,3
2,4,object_04,object_06,800.51000008825,7,1,931.22499994934,0.5555555555555556,1,object_01,1,36,0,5,6,restaurant_8,2,memory-2step-stake-s,499,961312,0.0-19.0-0.0-0.2,AWAHIWLMQ0HUQ,3YO4AH2FQG0L0WLRIP03W553LNE0Q1,3KB8R4ZV1INYTDSH3BXIBST70G2BG0,7,8
3,4,object_06,object_04,1422.8150000563,7,2,399.13999999408,0.5555555555555556,1,object_01,1,41,0,5,8,restaurant_1,2,memory-2step-stake-s,500,969451,0.0-19.0-0.0-0.3,AWAHIWLMQ0HUQ,3YO4AH2FQG0L0WLRIP03W553LNE0Q1,3KB8R4ZV1INYTDSH3BXIBST70G2BG0,8,7
4,3,object_05,object_02,1388.2150000427,5,2,408.83500000928,0.3333333333333333,1,object_01,1,44,0,3,8,library_3,2,memory-2step-stake-s,501,977392,0.0-19.0-0.0-0.4,AWAHIWLMQ0HUQ,3YO4AH2FQG0L0WLRIP03W553LNE0Q1,3KB8R4ZV1INYTDSH3BXIBST70G2BG0,6,5
5,4,object_06,object_04,929.44999993779,7,2,429.88499999046,0.1111111111111111,1,object_01,1,45,0,1,6,restaurant_7,2,memory-2step-stake-s,502,985147,0.0-19.0-0.0-0.5,AWAHIWLMQ0HUQ,3YO4AH2FQG0L0WLRIP03W553LNE0Q1,3KB8R4ZV1INYTDSH3BXIBST70G2BG0,8,7
6,4,object_04,object_06,1298.9600000437,8,2,492.83500004094,0.0,2,object_07,1,45,0,0,0,restaurant_7,2,memory-2step-stake-s,503,992865,0.0-19.0-0.0-0.6,AWAHIWLMQ0HUQ,3YO4AH2FQG0L0WLRIP03W553LNE0Q1,3KB8R4ZV1INYTDSH3BXIBST70G2BG0,7,8
7,1,object_10,object_03,1450.8950000163,1,1,548.88999997638,0.1111111111111111,1,object_01,5,50,0,1,0,desert_3,2,memory-2step-stake-s,504,1000748,0.0-19.0-0.0-0.7,AWAHIWLMQ0HUQ,3YO4AH2FQG0L0WLRIP03W553LNE0Q1,3KB8R4ZV1INYTDSH3BXIBST70G2BG0,1,2
8,3,object_02,object_05,1270.0549999718,5,1,632.64000008348,0.0,1,object_01,5,50,0,0,2,library_2,2,memory-2step-stake-s,505,1008615,0.0-19.0-0.0-0.8,AWAHIWLMQ0HUQ,3YO4AH2FQG0L0WLRIP03W553LNE0Q1,3KB8R4ZV1INYTDSH3BXIBST70G2BG0,5,6
9,1,object_03,object_10,1393.0350000737,2,1,544.22499996144,0.1111111111111111,2,object_07,5,55,0,0,1,desert_2,2,memory-2step-stake-s,506,1016487,0.0-19.0-0.0-0.9,AWAHIWLMQ0HUQ,3YO4AH2FQG0L0WLRIP03W553LNE0Q1,3KB8R4ZV1INYTDSH3BXIBST70G2BG0,2,1
10,2,object_08,object_09,1401.6200000187,4,1,406.01000003517,0.3333333333333333,2,object_07,5,70,0,2,3,forest_4,2,memory-2step-stake-s,507,1024423,0.0-19.0-0.0-0.10,AWAHIWLMQ0HUQ,3YO4AH2FQG0L0WLRIP03W553LNE0Q1,3KB8R4ZV1INYTDSH3BXIBST70G2BG0,4,3
11,3,object_02,object_05,602.33000002336,6,2,398.25500000734,0.3333333333333333,2,object_07,1,73,0,2,3,library_2,2,memory-2step-stake-s,508,1032349,0.0-19.0-0.0-0.11,AWAHIWLMQ0HUQ,3YO4AH2FQG0L0WLRIP03W553LNE0Q1,3KB8R4ZV1INYTDSH3BXIBST70G2BG0,5,6
12,3,object_02,object_05,1348.3400000259,5,1,395.7549999468,0.0,1,object_01,5,73,0,0,7,library_5,2,memory-2step-stake-s,509,1039970,0.0-19.0-0.0-0.12,AWAHIWLMQ0HUQ,3YO4AH2FQG0L0WLRIP03W553LNE0Q1,3KB8R4ZV1INYTDSH3BXIBST70G2BG0,5,6
13,3,object_02,object_05,1328.0299999751,5,1,297.00000002049,0.1111111111111111,1,object_01,1,74,0,1,6,library_8,2,memory-2step-stake-s,510,1047592,0.0-19.0-0.0-0.13,AWAHIWLMQ0HUQ,3YO4AH2FQG0L0WLRIP03W553LNE0Q1,3KB8R4ZV1INYTDSH3BXIBST70G2BG0,5,6
14,4,object_06,object_04,627.50999990385,8,1,394.22500005458,0.7777777777777778,2,object_07,1,81,0,0,7,restaurant_7,2,memory-2step-stake-s,511,1055923,0.0-19.0-0.0-0.14,AWAHIWLMQ0HUQ,3YO4AH2FQG0L0WLRIP03W553LNE0Q1,3KB8R4ZV1INYTDSH3BXIBST70G2BG0,8,7
15,2,object_08,object_09,1236.2399999984,4,1,321.02499995381,0.7777777777777778,2,object_07,5,116,0,1,7,forest_7,2,memory-2step-stake-s,512,1064184,0.0-19.0-0.0-0.15,AWAHIWLMQ0HUQ,3YO4AH2FQG0L0WLRIP03W553LNE0Q1,3KB8R4ZV1INYTDSH3BXIBST70G2BG0,4,3
16,3,object_05,object_02,1225.9750000667,6,1,387.6450000098,0.6666666666666666,2,object_07,1,122,0,1,6,library_8,2,memory-2step-stake-s,513,1072408,0.0-19.0-0.0-0.16,AWAHIWLMQ0HUQ,3YO4AH2FQG0L0WLRIP03W553LNE0Q1,3KB8R4ZV1INYTDSH3BXIBST70G2BG0,6,5
17,3,object_02,object_05,820.09500009008,6,2,379.82000003103,0.8888888888888888,2,object_07,1,130,0,6,8,library_8,2,memory-2step-stake-s,514,1080825,0.0-19.0-0.0-0.17,AWAHIWLMQ0HUQ,3YO4AH2FQG0L0WLRIP03W553LNE0Q1,3KB8R4ZV1INYTDSH3BXIBST70G2BG0,5,6
18,3,object_02,object_05,652.07499999087,6,2,402.34000002965,0.5555555555555556,2,object_07,1,135,0,5,5,library_3,2,memory-2step-stake-s,515,1088964,0.0-19.0-0.0-0.18,AWAHIWLMQ0HUQ,3YO4AH2FQG0L0WLRIP03W553LNE0Q1,3KB8R4ZV1INYTDSH3BXIBST70G2BG0,5,6
19,2,object_09,object_08,-1.0,-1,-1,-1.0,0.0,-,0,5,135,0,5,5,forest_1,2,memory-2step-stake-s,516,1095492,0.0-19.0-0.0-0.19,AWAHIWLMQ0HUQ,3YO4AH2FQG0L0WLRIP03W553LNE0Q1,3KB8R4ZV1INYTDSH3BXIBST70G2BG0,3,4
20,4,object_04,object_06,811.77499995101,8,2,454.88500001375,0.5555555555555556,2,object_07,5,160,0,5,5,restaurant_6,2,memory-2step-stake-s,517,1103679,0.0-19.0-0.0-0.20,AWAHIWLMQ0HUQ,3YO4AH2FQG0L0WLRIP03W553LNE0Q1,3KB8R4ZV1INYTDSH3BXIBST70G2BG0,7,8
21,3,object_02,object_05,746.55000003986,5,1,298.56000002474,0.7777777777777778,1,object_01,5,195,0,7,8,library_2,2,memory-2step-stake-s,518,1111908,0.0-19.0-0.0-0.21,AWAHIWLMQ0HUQ,3YO4AH2FQG0L0WLRIP03W553LNE0Q1,3KB8R4ZV1INYTDSH3BXIBST70G2BG0,5,6
22,3,object_05,object_02,561.22000003234,5,2,311.48999999277,0.7777777777777778,1,object_01,1,202,0,7,8,library_5,2,memory-2step-stake-s,519,1120154,0.0-19.0-0.0-0.22,AWAHIWLMQ0HUQ,3YO4AH2FQG0L0WLRIP03W553LNE0Q1,3KB8R4ZV1INYTDSH3BXIBST70G2BG0,6,5
23,4,object_06,object_04,854.30000000633,7,2,281.2649999978,0.8888888888888888,1,object_01,1,210,0,8,4,restaurant_1,2,memory-2step-stake-s,520,1128469,0.0-19.0-0.0-0.23,AWAHIWLMQ0HUQ,3YO4AH2FQG0L0WLRIP03W553LNE0Q1,3KB8R4ZV1INYTDSH3BXIBST70G2BG0,8,7
24,1,object_03,object_10,903.52000005078,2,1,431.585000013,0.4444444444444444,2,object_07,1,214,0,6,4,desert_3,2,memory-2step-stake-s,521,1136533,0.0-19.0-0.0-0.24,AWAHIWLMQ0HUQ,3YO4AH2FQG0L0WLRIP03W553LNE0Q1,3KB8R4ZV1INYTDSH3BXIBST70G2BG0,2,1
25,3,object_05,object_02,675.32999999821,5,2,400.81500005908,0.8888888888888888,1,object_01,1,222,0,8,3,library_3,2,memory-2step-stake-s,522,1144971,0.0-19.0-0.0-0.25,AWAHIWLMQ0HUQ,3YO4AH2FQG0L0WLRIP03W553LNE0Q1,3KB8R4ZV1INYTDSH3BXIBST70G2BG0,6,5
26,4,object_06,object_04,694.71499999054,7,2,253.63000005018,0.7777777777777778,1,object_01,1,229,0,7,5,restaurant_8,2,memory-2step-stake-s,523,1153158,0.0-19.0-0.0-0.26,AWAHIWLMQ0HUQ,3YO4AH2FQG0L0WLRIP03W553LNE0Q1,3KB8R4ZV1INYTDSH3BXIBST70G2BG0,8,7
27,2,object_08,object_09,873.43999999575,4,1,392.67999993172,0.6666666666666666,2,object_07,1,235,0,7,6,forest_7,2,memory-2step-stake-s,524,1161382,0.0-19.0-0.0-0.27,AWAHIWLMQ0HUQ,3YO4AH2FQG0L0WLRIP03W553LNE0Q1,3KB8R4ZV1INYTDSH3BXIBST70G2BG0,4,3
28,4,object_06,object_04,691.89999997616,7,2,286.55499999877,0.6666666666666666,1,object_01,1,241,0,6,6,restaurant_1,2,memory-2step-stake-s,525,1169499,0.0-19.0-0.0-0.28,AWAHIWLMQ0HUQ,3YO4AH2FQG0L0WLRIP03W553LNE0Q1,3KB8R4ZV1INYTDSH3BXIBST70G2BG0,8,7
29,3,object_02,object_05,599.99000001699,5,1,361.18999996688,0.6666666666666666,1,object_01,1,247,0,6,7,library_3,2,memory-2step-stake-s,526,1177702,0.0-19.0-0.0-0.29,AWAHIWLMQ0HUQ,3YO4AH2FQG0L0WLRIP03W553LNE0Q1,3KB8R4ZV1INYTDSH3BXIBST70G2BG0,5,6
30,1,object_10,object_03,1081.3899999484,1,1,364.64500008151,0.7777777777777778,1,object_01,5,282,0,7,9,desert_3,2,memory-2step-stake-s,527,1186007,0.0-19.0-0.0-0.30,AWAHIWLMQ0HUQ,3YO4AH2FQG0L0WLRIP03W553LNE0Q1,3KB8R4ZV1INYTDSH3BXIBST70G2BG0,1,2
31,3,object_02,object_05,642.08999997936,5,1,265.47500002198,0.5555555555555556,1,object_01,1,287,0,5,8,library_2,2,memory-2step-stake-s,528,1194012,0.0-19.0-0.0-0.31,AWAHIWLMQ0HUQ,3YO4AH2FQG0L0WLRIP03W553LNE0Q1,3KB8R4ZV1INYTDSH3BXIBST70G2BG0,5,6
32,2,object_09,object_08,808.08500002604,4,2,282.98000001814,0.5555555555555556,2,object_07,5,312,0,3,5,forest_2,2,memory-2step-stake-s,529,1202028,0.0-19.0-0.0-0.32,AWAHIWLMQ0HUQ,3YO4AH2FQG0L0WLRIP03W553LNE0Q1,3KB8R4ZV1INYTDSH3BXIBST70G2BG0,3,4
33,2,object_08,object_09,769.02500004508,4,1,116.15000001621,0.5555555555555556,2,object_07,1,317,0,5,5,forest_1,2,memory-2step-stake-s,530,1209879,0.0-19.0-0.0-0.33,AWAHIWLMQ0HUQ,3YO4AH2FQG0L0WLRIP03W553LNE0Q1,3KB8R4ZV1INYTDSH3BXIBST70G2BG0,4,3
34,1,object_03,object_10,1088.9899999602,1,2,298.03499998525,0.3333333333333333,1,object_01,5,332,0,3,5,desert_2,2,memory-2step-stake-s,531,1217704,0.0-19.0-0.0-0.34,AWAHIWLMQ0HUQ,3YO4AH2FQG0L0WLRIP03W553LNE0Q1,3KB8R4ZV1INYTDSH3BXIBST70G2BG0,2,1
35,4,object_06,object_04,800.69000006188,7,2,261.80500001647,0.3333333333333333,1,object_01,1,335,0,3,7,restaurant_1,2,memory-2step-stake-s,532,1225501,0.0-19.0-0.0-0.35,AWAHIWLMQ0HUQ,3YO4AH2FQG0L0WLRIP03W553LNE0Q1,3KB8R4ZV1INYTDSH3BXIBST70G2BG0,8,7
36,2,object_08,object_09,845.44999990612,3,2,433.75999992713,0.3333333333333333,1,object_01,5,350,0,3,5,forest_4,2,memory-2step-stake-s,533,1233464,0.0-19.0-0.0-0.36,AWAHIWLMQ0HUQ,3YO4AH2FQG0L0WLRIP03W553LNE0Q1,3KB8R4ZV1INYTDSH3BXIBST70G2BG0,4,3
37,1,object_03,object_10,882.14000000153,2,1,401.94000001065,0.4444444444444444,2,object_07,5,370,0,4,4,desert_3,2,memory-2step-stake-s,534,1241503,0.0-19.0-0.0-0.37,AWAHIWLMQ0HUQ,3YO4AH2FQG0L0WLRIP03W553LNE0Q1,3KB8R4ZV1INYTDSH3BXIBST70G2BG0,2,1
38,2,object_09,object_08,958.520000102,3,1,381.04000000749,0.1111111111111111,1,object_01,5,375,0,1,5,forest_1,2,memory-2step-stake-s,535,1249218,0.0-19.0-0.0-0.38,AWAHIWLMQ0HUQ,3YO4AH2FQG0L0WLRIP03W553LNE0Q1,3KB8R4ZV1INYTDSH3BXIBST70G2BG0,3,4
39,1,object_03,object_10,713.72999995947,1,2,265.28499997221,0.0,1,object_01,5,375,0,0,5,desert_3,2,memory-2step-stake-s,536,1256713,0.0-19.0-0.0-0.39,AWAHIWLMQ0HUQ,3YO4AH2FQG0L0WLRIP03W553LNE0Q1,3KB8R4ZV1INYTDSH3BXIBST70G2BG0,2,1
40,3,object_05,object_02,785.85500002373,5,2,481.50999995414,0.1111111111111111,1,object_01,1,376,0,1,6,library_3,2,memory-2step-stake-s,537,1264528,0.0-19.0-0.0-0.40,AWAHIWLMQ0HUQ,3YO4AH2FQG0L0WLRIP03W553LNE0Q1,3KB8R4ZV1INYTDSH3BXIBST70G2BG0,6,5
41,4,object_06,object_04,607.71999997087,8,1,333.30000005662,0.3333333333333333,2,object_07,5,391,0,0,3,restaurant_8,2,memory-2step-stake-s,538,1272390,0.0-19.0-0.0-0.41,AWAHIWLMQ0HUQ,3YO4AH2FQG0L0WLRIP03W553LNE0Q1,3KB8R4ZV1INYTDSH3BXIBST70G2BG0,8,7
42,3,object_05,object_02,857.27000003681,6,1,1155.5599999847,0.2222222222222222,2,object_07,1,393,0,1,2,library_3,2,memory-2step-stake-s,539,1280983,0.0-19.0-0.0-0.42,AWAHIWLMQ0HUQ,3YO4AH2FQG0L0WLRIP03W553LNE0Q1,3KB8R4ZV1INYTDSH3BXIBST70G2BG0,6,5
43,4,object_06,object_04,695.30499994289,8,1,270.74000006542,0.1111111111111111,2,object_07,1,394,0,0,1,restaurant_6,2,memory-2step-stake-s,540,1288583,0.0-19.0-0.0-0.43,AWAHIWLMQ0HUQ,3YO4AH2FQG0L0WLRIP03W553LNE0Q1,3KB8R4ZV1INYTDSH3BXIBST70G2BG0,8,7
44,2,object_08,object_09,958.36499996949,3,2,268.00999999978,0.2222222222222222,1,object_01,5,404,0,2,2,forest_4,2,memory-2step-stake-s,541,1296279,0.0-19.0-0.0-0.44,AWAHIWLMQ0HUQ,3YO4AH2FQG0L0WLRIP03W553LNE0Q1,3KB8R4ZV1INYTDSH3BXIBST70G2BG0,4,3
45,2,object_08,object_09,846.66999999899,4,1,279.24499998335,0.0,2,object_07,5,404,0,2,0,forest_4,2,memory-2step-stake-s,542,1303784,0.0-19.0-0.0-0.45,AWAHIWLMQ0HUQ,3YO4AH2FQG0L0WLRIP03W553LNE0Q1,3KB8R4ZV1INYTDSH3BXIBST70G2BG0,4,3
46,2,object_09,object_08,938.92500002403,4,2,303.71500004549,0.1111111111111111,2,object_07,5,409,0,2,1,forest_2,2,memory-2step-stake-s,543,1311416,0.0-19.0-0.0-0.46,AWAHIWLMQ0HUQ,3YO4AH2FQG0L0WLRIP03W553LNE0Q1,3KB8R4ZV1INYTDSH3BXIBST70G2BG0,3,4
47,2,object_09,object_08,588.92999996897,3,1,252.5499999756,0.1111111111111111,1,object_01,1,410,0,1,1,forest_2,2,memory-2step-stake-s,544,1319000,0.0-19.0-0.0-0.47,AWAHIWLMQ0HUQ,3YO4AH2FQG0L0WLRIP03W553LNE0Q1,3KB8R4ZV1INYTDSH3BXIBST70G2BG0,3,4
48,3,object_02,object_05,836.09999995679,5,1,767.85499998368,0.2222222222222222,1,object_01,1,412,0,2,1,library_2,2,memory-2step-stake-s,545,1327198,0.0-19.0-0.0-0.48,AWAHIWLMQ0HUQ,3YO4AH2FQG0L0WLRIP03W553LNE0Q1,3KB8R4ZV1INYTDSH3BXIBST70G2BG0,5,6
49,2,object_08,object_09,978.17500005476,4,1,318.74999997672,0.2222222222222222,2,object_07,5,422,0,3,2,forest_7,2,memory-2step-stake-s,546,1334947,0.0-19.0-0.0-0.49,AWAHIWLMQ0HUQ,3YO4AH2FQG0L0WLRIP03W553LNE0Q1,3KB8R4ZV1INYTDSH3BXIBST70G2BG0,4,3
50,1,object_10,object_03,923.4399999259,2,2,593.60999998171,0.3333333333333333,2,object_07,5,437,0,5,3,desert_7,2,memory-2step-stake-s,547,1343070,0.0-19.0-0.0-0.50,AWAHIWLMQ0HUQ,3YO4AH2FQG0L0WLRIP03W553LNE0Q1,3KB8R4ZV1INYTDSH3BXIBST70G2BG0,1,2
51,4,object_06,object_04,585.68999997806,8,1,386.23500009999,0.3333333333333333,2,object_07,5,452,0,5,3,restaurant_7,2,memory-2step-stake-s,548,1350985,0.0-19.0-0.0-0.51,AWAHIWLMQ0HUQ,3YO4AH2FQG0L0WLRIP03W553LNE0Q1,3KB8R4ZV1INYTDSH3BXIBST70G2BG0,8,7
52,1,object_10,object_03,652.95500005595,2,2,172.32999997213,0.4444444444444444,2,object_07,1,456,0,4,4,desert_7,2,memory-2step-stake-s,549,1358788,0.0-19.0-0.0-0.52,AWAHIWLMQ0HUQ,3YO4AH2FQG0L0WLRIP03W553LNE0Q1,3KB8R4ZV1INYTDSH3BXIBST70G2BG0,1,2
53,4,object_04,object_06,136.85500004794,7,1,475.83500004839,0.6666666666666666,1,object_01,1,462,0,6,5,restaurant_1,2,memory-2step-stake-s,550,1367103,0.0-19.0-0.0-0.53,AWAHIWLMQ0HUQ,3YO4AH2FQG0L0WLRIP03W553LNE0Q1,3KB8R4ZV1INYTDSH3BXIBST70G2BG0,7,8
54,2,object_08,object_09,823.50499997847,4,1,267.23500003573,0.3333333333333333,2,object_07,5,477,0,8,3,forest_7,2,memory-2step-stake-s,551,1374906,0.0-19.0-0.0-0.54,AWAHIWLMQ0HUQ,3YO4AH2FQG0L0WLRIP03W553LNE0Q1,3KB8R4ZV1INYTDSH3BXIBST70G2BG0,4,3
55,3,object_02,object_05,711.08499995898,5,1,333.80500006024,0.8888888888888888,1,object_01,1,485,0,8,2,library_2,2,memory-2step-stake-s,552,1383280,0.0-19.0-0.0-0.55,AWAHIWLMQ0HUQ,3YO4AH2FQG0L0WLRIP03W553LNE0Q1,3KB8R4ZV1INYTDSH3BXIBST70G2BG0,5,6
56,4,object_06,object_04,605.42999999598,7,2,462.36500004306,0.4444444444444444,1,object_01,1,489,0,4,0,restaurant_6,2,memory-2step-stake-s,553,1391376,0.0-19.0-0.0-0.56,AWAHIWLMQ0HUQ,3YO4AH2FQG0L0WLRIP03W553LNE0Q1,3KB8R4ZV1INYTDSH3BXIBST70G2BG0,8,7
57,3,object_05,object_02,701.61999994889,5,2,262.74999999441,0.2222222222222222,1,object_01,1,491,0,2,3,library_8,2,memory-2step-stake-s,554,1399067,0.0-19.0-0.0-0.57,AWAHIWLMQ0HUQ,3YO4AH2FQG0L0WLRIP03W553LNE0Q1,3KB8R4ZV1INYTDSH3BXIBST70G2BG0,6,5
58,3,object_05,object_02,630.55500003975,5,2,274.22499994282,0.0,1,object_01,5,491,0,0,0,library_5,2,memory-2step-stake-s,555,1406566,0.0-19.0-0.0-0.58,AWAHIWLMQ0HUQ,3YO4AH2FQG0L0WLRIP03W553LNE0Q1,3KB8R4ZV1INYTDSH3BXIBST70G2BG0,6,5
59,2,object_08,object_09,949.42000007723,3,2,284.30499997921,0.1111111111111111,1,object_01,5,496,0,1,1,forest_1,2,memory-2step-stake-s,556,1414176,0.0-19.0-0.0-0.59,AWAHIWLMQ0HUQ,3YO4AH2FQG0L0WLRIP03W553LNE0Q1,3KB8R4ZV1INYTDSH3BXIBST70G2BG0,4,3
60,1,object_03,object_10,923.07999997865,2,1,333.44499999657,0.3333333333333333,2,object_07,5,511,0,1,3,desert_7,2,memory-2step-stake-s,557,1422038,0.0-19.0-0.0-0.60,AWAHIWLMQ0HUQ,3YO4AH2FQG0L0WLRIP03W553LNE0Q1,3KB8R4ZV1INYTDSH3BXIBST70G2BG0,2,1
61,1,object_03,object_10,923.79000002984,1,2,396.67499996722,0.2222222222222222,1,object_01,5,521,0,2,3,desert_7,2,memory-2step-stake-s,558,1429862,0.0-19.0-0.0-0.61,AWAHIWLMQ0HUQ,3YO4AH2FQG0L0WLRIP03W553LNE0Q1,3KB8R4ZV1INYTDSH3BXIBST70G2BG0,2,1
62,2,object_09,object_08,1129.6899999725,4,2,345.20999994129,0.4444444444444444,2,object_07,5,541,0,2,4,forest_2,2,memory-2step-stake-s,559,1437841,0.0-19.0-0.0-0.62,AWAHIWLMQ0HUQ,3YO4AH2FQG0L0WLRIP03W553LNE0Q1,3KB8R4ZV1INYTDSH3BXIBST70G2BG0,3,4
63,1,object_10,object_03,770.13499999885,1,1,262.45000003837,0.1111111111111111,1,object_01,5,546,0,1,3,desert_7,2,memory-2step-stake-s,560,1445431,0.0-19.0-0.0-0.63,AWAHIWLMQ0HUQ,3YO4AH2FQG0L0WLRIP03W553LNE0Q1,3KB8R4ZV1INYTDSH3BXIBST70G2BG0,1,2
64,1,object_10,object_03,662.70499990787,1,1,401.24999999534,0.6666666666666666,1,object_01,5,576,0,6,3,desert_1,2,memory-2step-stake-s,561,1453671,0.0-19.0-0.0-0.64,AWAHIWLMQ0HUQ,3YO4AH2FQG0L0WLRIP03W553LNE0Q1,3KB8R4ZV1INYTDSH3BXIBST70G2BG0,1,2
65,1,object_10,object_03,753.84500005748,1,1,289.27000006661,0.3333333333333333,1,object_01,5,591,0,3,4,desert_1,2,memory-2step-stake-s,562,1461490,0.0-19.0-0.0-0.65,AWAHIWLMQ0HUQ,3YO4AH2FQG0L0WLRIP03W553LNE0Q1,3KB8R4ZV1INYTDSH3BXIBST70G2BG0,1,2
66,2,object_08,object_09,965.36000003107,3,2,387.88499997463,0.3333333333333333,1,object_01,5,606,0,3,6,forest_4,2,memory-2step-stake-s,563,1469410,0.0-19.0-0.0-0.66,AWAHIWLMQ0HUQ,3YO4AH2FQG0L0WLRIP03W553LNE0Q1,3KB8R4ZV1INYTDSH3BXIBST70G2BG0,4,3
67,1,object_03,object_10,875.71500008926,1,2,379.21499996446,0.2222222222222222,1,object_01,5,616,0,2,6,desert_2,2,memory-2step-stake-s,564,1477218,0.0-19.0-0.0-0.67,AWAHIWLMQ0HUQ,3YO4AH2FQG0L0WLRIP03W553LNE0Q1,3KB8R4ZV1INYTDSH3BXIBST70G2BG0,2,1
68,3,object_05,object_02,753.95499996375,5,2,392.96999992803,0.3333333333333333,1,object_01,1,619,0,3,6,library_2,2,memory-2step-stake-s,565,1485139,0.0-19.0-0.0-0.68,AWAHIWLMQ0HUQ,3YO4AH2FQG0L0WLRIP03W553LNE0Q1,3KB8R4ZV1INYTDSH3BXIBST70G2BG0,6,5
69,2,object_09,object_08,964.435000089,3,1,446.65000005625,0.2222222222222222,1,object_01,5,629,0,2,5,forest_1,2,memory-2step-stake-s,566,1493011,0.0-19.0-0.0-0.69,AWAHIWLMQ0HUQ,3YO4AH2FQG0L0WLRIP03W553LNE0Q1,3KB8R4ZV1INYTDSH3BXIBST70G2BG0,3,4
70,3,object_05,object_02,602.99499996472,5,2,341.66999999434,0.3333333333333333,1,object_01,5,644,0,3,3,library_2,2,memory-2step-stake-s,567,1500883,0.0-19.0-0.0-0.70,AWAHIWLMQ0HUQ,3YO4AH2FQG0L0WLRIP03W553LNE0Q1,3KB8R4ZV1INYTDSH3BXIBST70G2BG0,6,5
71,1,object_03,object_10,729.60500000045,1,2,356.13999993075,0.3333333333333333,1,object_01,5,659,0,3,1,desert_1,2,memory-2step-stake-s,568,1508766,0.0-19.0-0.0-0.71,AWAHIWLMQ0HUQ,3YO4AH2FQG0L0WLRIP03W553LNE0Q1,3KB8R4ZV1INYTDSH3BXIBST70G2BG0,2,1
72,1,object_10,object_03,814.81000001077,1,1,299.25999999978,0.4444444444444444,1,object_01,5,679,0,4,0,desert_7,2,memory-2step-stake-s,569,1516696,0.0-19.0-0.0-0.72,AWAHIWLMQ0HUQ,3YO4AH2FQG0L0WLRIP03W553LNE0Q1,3KB8R4ZV1INYTDSH3BXIBST70G2BG0,1,2
73,2,object_09,object_08,1042.5149999792,4,2,282.81999996398,0.1111111111111111,2,object_07,5,684,0,3,1,forest_2,2,memory-2step-stake-s,570,1524309,0.0-19.0-0.0-0.73,AWAHIWLMQ0HUQ,3YO4AH2FQG0L0WLRIP03W553LNE0Q1,3KB8R4ZV1INYTDSH3BXIBST70G2BG0,3,4
74,1,object_03,object_10,697.44999997783,1,2,274.66500003356,0.6666666666666666,1,object_01,5,714,0,6,3,desert_2,2,memory-2step-stake-s,571,1532420,0.0-19.0-0.0-0.74,AWAHIWLMQ0HUQ,3YO4AH2FQG0L0WLRIP03W553LNE0Q1,3KB8R4ZV1INYTDSH3BXIBST70G2BG0,2,1
75,3,object_05,object_02,668.079999974,5,2,329.71499999985,0.6666666666666666,1,object_01,5,744,0,6,4,library_5,2,memory-2step-stake-s,572,1540586,0.0-19.0-0.0-0.75,AWAHIWLMQ0HUQ,3YO4AH2FQG0L0WLRIP03W553LNE0Q1,3KB8R4ZV1INYTDSH3BXIBST70G2BG0,6,5
76,1,object_10,object_03,635.08499995805,1,1,-1.0,0.0,1,object_01,5,744,0,4,1,desert_3,2,memory-2step-stake-s,573,1549109,0.0-19.0-0.0-0.76,AWAHIWLMQ0HUQ,3YO4AH2FQG0L0WLRIP03W553LNE0Q1,3KB8R4ZV1INYTDSH3BXIBST70G2BG0,1,2
77,3,object_02,object_05,630.26999996509,5,1,441.39500008896,0.5555555555555556,1,object_01,1,749,0,5,1,library_5,2,memory-2step-stake-s,574,1557285,0.0-19.0-0.0-0.77,AWAHIWLMQ0HUQ,3YO4AH2FQG0L0WLRIP03W553LNE0Q1,3KB8R4ZV1INYTDSH3BXIBST70G2BG0,5,6
78,1,object_10,object_03,684.87999995705,1,1,308.76499996521,0.8888888888888888,1,object_01,1,757,0,8,3,desert_2,2,memory-2step-stake-s,575,1565637,0.0-19.0-0.0-0.78,AWAHIWLMQ0HUQ,3YO4AH2FQG0L0WLRIP03W553LNE0Q1,3KB8R4ZV1INYTDSH3BXIBST70G2BG0,1,2
79,1,object_03,object_10,564.51499997638,1,2,258.35500005633,0.6666666666666666,1,object_01,5,787,0,6,3,desert_7,2,memory-2step-stake-s,576,1573728,0.0-19.0-0.0-0.79,AWAHIWLMQ0HUQ,3YO4AH2FQG0L0WLRIP03W553LNE0Q1,3KB8R4ZV1INYTDSH3BXIBST70G2BG0,2,1
80,2,object_09,object_08,655.8649999788,3,1,334.02999991085,0.3333333333333333,1,object_01,5,802,0,3,5,forest_1,2,memory-2step-stake-s,577,1581590,0.0-19.0-0.0-0.80,AWAHIWLMQ0HUQ,3YO4AH2FQG0L0WLRIP03W553LNE0Q1,3KB8R4ZV1INYTDSH3BXIBST70G2BG0,3,4
81,4,object_04,object_06,700.99499996286,7,1,282.90500002913,0.1111111111111111,1,object_01,5,807,0,1,7,restaurant_7,2,memory-2step-stake-s,578,1589200,0.0-19.0-0.0-0.81,AWAHIWLMQ0HUQ,3YO4AH2FQG0L0WLRIP03W553LNE0Q1,3KB8R4ZV1INYTDSH3BXIBST70G2BG0,7,8
82,1,object_10,object_03,716.93500003312,1,1,324.43999999668,0.1111111111111111,1,object_01,1,808,0,1,8,desert_1,2,memory-2step-stake-s,579,1596854,0.0-19.0-0.0-0.82,AWAHIWLMQ0HUQ,3YO4AH2FQG0L0WLRIP03W553LNE0Q1,3KB8R4ZV1INYTDSH3BXIBST70G2BG0,1,2
83,2,object_08,object_09,1038.184999954,4,1,345.27000004891,0.7777777777777778,2,object_07,5,843,0,2,7,forest_4,2,memory-2step-stake-s,580,1605142,0.0-19.0-0.0-0.83,AWAHIWLMQ0HUQ,3YO4AH2FQG0L0WLRIP03W553LNE0Q1,3KB8R4ZV1INYTDSH3BXIBST70G2BG0,4,3
84,3,object_02,object_05,503.48000007216,5,1,259.39499994274,0.3333333333333333,1,object_01,5,858,0,3,8,library_5,2,memory-2step-stake-s,581,1612934,0.0-19.0-0.0-0.84,AWAHIWLMQ0HUQ,3YO4AH2FQG0L0WLRIP03W553LNE0Q1,3KB8R4ZV1INYTDSH3BXIBST70G2BG0,5,6
85,3,object_02,object_05,619.62000001222,5,1,415.83499999251,0.2222222222222222,1,object_01,1,860,0,2,8,library_8,2,memory-2step-stake-s,582,1620780,0.0-19.0-0.0-0.85,AWAHIWLMQ0HUQ,3YO4AH2FQG0L0WLRIP03W553LNE0Q1,3KB8R4ZV1INYTDSH3BXIBST70G2BG0,5,6
86,4,object_06,object_04,724.13999994751,7,2,371.65499990806,0.1111111111111111,1,object_01,1,861,0,1,6,restaurant_8,2,memory-2step-stake-s,583,1628476,0.0-19.0-0.0-0.86,AWAHIWLMQ0HUQ,3YO4AH2FQG0L0WLRIP03W553LNE0Q1,3KB8R4ZV1INYTDSH3BXIBST70G2BG0,8,7
87,3,object_02,object_05,609.83999993186,5,1,434.63999999221,0.1111111111111111,1,object_01,5,866,0,1,7,library_3,2,memory-2step-stake-s,584,1636236,0.0-19.0-0.0-0.87,AWAHIWLMQ0HUQ,3YO4AH2FQG0L0WLRIP03W553LNE0Q1,3KB8R4ZV1INYTDSH3BXIBST70G2BG0,5,6
88,3,object_02,object_05,515.15000010841,5,1,298.02500002552,0.0,1,object_01,5,866,0,0,8,library_8,2,memory-2step-stake-s,585,1643757,0.0-19.0-0.0-0.88,AWAHIWLMQ0HUQ,3YO4AH2FQG0L0WLRIP03W553LNE0Q1,3KB8R4ZV1INYTDSH3BXIBST70G2BG0,5,6
89,1,object_03,object_10,663.18999999203,1,2,358.04999992251,0.6666666666666666,1,object_01,5,896,0,6,8,desert_1,2,memory-2step-stake-s,586,1651954,0.0-19.0-0.0-0.89,AWAHIWLMQ0HUQ,3YO4AH2FQG0L0WLRIP03W553LNE0Q1,3KB8R4ZV1INYTDSH3BXIBST70G2BG0,2,1
90,1,object_10,object_03,677.52500006463,1,1,346.06000001077,0.7777777777777778,1,object_01,5,931,0,7,8,desert_2,2,memory-2step-stake-s,587,1660237,0.0-19.0-0.0-0.90,AWAHIWLMQ0HUQ,3YO4AH2FQG0L0WLRIP03W553LNE0Q1,3KB8R4ZV1INYTDSH3BXIBST70G2BG0,1,2
91,2,object_09,object_08,785.88499990292,4,2,339.87499994691,0.8888888888888888,2,object_07,1,939,0,5,8,forest_2,2,memory-2step-stake-s,588,1668621,0.0-19.0-0.0-0.91,AWAHIWLMQ0HUQ,3YO4AH2FQG0L0WLRIP03W553LNE0Q1,3KB8R4ZV1INYTDSH3BXIBST70G2BG0,3,4
92,3,object_02,object_05,602.17000008561,5,1,374.33499994222,0.3333333333333333,1,object_01,5,954,0,3,8,library_5,2,memory-2step-stake-s,589,1676526,0.0-19.0-0.0-0.92,AWAHIWLMQ0HUQ,3YO4AH2FQG0L0WLRIP03W553LNE0Q1,3KB8R4ZV1INYTDSH3BXIBST70G2BG0,5,6
93,4,object_06,object_04,711.08999999706,7,2,315.16500003636,0.3333333333333333,1,object_01,1,957,0,3,9,restaurant_7,2,memory-2step-stake-s,590,1684371,0.0-19.0-0.0-0.93,AWAHIWLMQ0HUQ,3YO4AH2FQG0L0WLRIP03W553LNE0Q1,3KB8R4ZV1INYTDSH3BXIBST70G2BG0,8,7
94,2,object_09,object_08,789.97000004165,4,2,792.57000004873,0.8888888888888888,2,object_07,5,997,0,4,8,forest_7,2,memory-2step-stake-s,591,1693209,0.0-19.0-0.0-0.94,AWAHIWLMQ0HUQ,3YO4AH2FQG0L0WLRIP03W553LNE0Q1,3KB8R4ZV1INYTDSH3BXIBST70G2BG0,3,4
95,3,object_05,object_02,688.29499999993,5,2,865.8900000155,0.0,1,object_01,1,997,0,0,8,library_8,2,memory-2step-stake-s,592,1701300,0.0-19.0-0.0-0.95,AWAHIWLMQ0HUQ,3YO4AH2FQG0L0WLRIP03W553LNE0Q1,3KB8R4ZV1INYTDSH3BXIBST70G2BG0,6,5
96,4,object_04,object_06,700.73000004049,7,1,333.20000011008,0.1111111111111111,1,object_01,5,1002,0,1,7,restaurant_8,2,memory-2step-stake-s,593,1708959,0.0-19.0-0.0-0.96,AWAHIWLMQ0HUQ,3YO4AH2FQG0L0WLRIP03W553LNE0Q1,3KB8R4ZV1INYTDSH3BXIBST70G2BG0,7,8
97,2,object_09,object_08,454.2449999135,4,2,387.31000002008,0.7777777777777778,2,object_07,5,1037,0,2,7,forest_4,2,memory-2step-stake-s,594,1717292,0.0-19.0-0.0-0.97,AWAHIWLMQ0HUQ,3YO4AH2FQG0L0WLRIP03W553LNE0Q1,3KB8R4ZV1INYTDSH3BXIBST70G2BG0,3,4
98,4,object_04,object_06,587.13999995962,8,2,354.41999998875,0.7777777777777778,2,object_07,1,1044,0,1,7,restaurant_7,2,memory-2step-stake-s,595,1725589,0.0-19.0-0.0-0.98,AWAHIWLMQ0HUQ,3YO4AH2FQG0L0WLRIP03W553LNE0Q1,3KB8R4ZV1INYTDSH3BXIBST70G2BG0,7,8
99,4,object_06,object_04,607.65000001993,8,1,264.74999997299,1.0,2,object_07,1,1053,0,1,9,restaurant_1,2,memory-2step-stake-s,596,1733994,0.0-19.0-0.0-0.99,AWAHIWLMQ0HUQ,3YO4AH2FQG0L0WLRIP03W553LNE0Q1,3KB8R4ZV1INYTDSH3BXIBST70G2BG0,8,7
100,4,object_06,object_04,679.90500002634,8,1,405.6349999737,0.6666666666666666,2,object_07,1,1059,0,0,6,restaurant_8,2,memory-2step-stake-s,597,1742235,0.0-19.0-0.0-0.100,AWAHIWLMQ0HUQ,3YO4AH2FQG0L0WLRIP03W553LNE0Q1,3KB8R4ZV1INYTDSH3BXIBST70G2BG0,8,7
101,4,object_04,object_06,703.45999998972,7,1,422.01499990188,0.2222222222222222,1,object_01,1,1061,0,2,2,restaurant_1,2,memory-2step-stake-s,598,1750091,0.0-19.0-0.0-0.101,AWAHIWLMQ0HUQ,3YO4AH2FQG0L0WLRIP03W553LNE0Q1,3KB8R4ZV1INYTDSH3BXIBST70G2BG0,7,8
102,4,object_04,object_06,605.01500009559,8,2,403.03499996662,0.3333333333333333,2,object_07,1,1064,0,2,3,restaurant_7,2,memory-2step-stake-s,599,1758021,0.0-19.0-0.0-0.102,AWAHIWLMQ0HUQ,3YO4AH2FQG0L0WLRIP03W553LNE0Q1,3KB8R4ZV1INYTDSH3BXIBST70G2BG0,7,8
103,4,object_06,object_04,569.98000002932,7,2,374.43500000518,0.0,1,object_01,1,1064,0,0,1,restaurant_7,2,memory-2step-stake-s,600,1765622,0.0-19.0-0.0-0.103,AWAHIWLMQ0HUQ,3YO4AH2FQG0L0WLRIP03W553LNE0Q1,3KB8R4ZV1INYTDSH3BXIBST70G2BG0,8,7
104,3,object_05,object_02,835.54500003811,5,2,360.48500007018,0.1111111111111111,1,object_01,1,1065,0,1,2,library_5,2,memory-2step-stake-s,601,1773307,0.0-19.0-0.0-0.104,AWAHIWLMQ0HUQ,3YO4AH2FQG0L0WLRIP03W553LNE0Q1,3KB8R4ZV1INYTDSH3BXIBST70G2BG0,6,5
105,4,object_06,object_04,621.37000006624,7,2,706.49999997113,0.0,1,object_01,1,1065,0,0,4,restaurant_7,2,memory-2step-stake-s,602,1781238,0.0-19.0-0.0-0.105,AWAHIWLMQ0HUQ,3YO4AH2FQG0L0WLRIP03W553LNE0Q1,3KB8R4ZV1INYTDSH3BXIBST70G2BG0,8,7
106,4,object_04,object_06,757.38500000443,8,2,416.65999998804,0.1111111111111111,2,object_07,1,1066,0,2,1,restaurant_8,2,memory-2step-stake-s,603,1788983,0.0-19.0-0.0-0.106,AWAHIWLMQ0HUQ,3YO4AH2FQG0L0WLRIP03W553LNE0Q1,3KB8R4ZV1INYTDSH3BXIBST70G2BG0,7,8
107,2,object_08,object_09,674.73500000779,4,1,311.58500001766,0.0,2,object_07,5,1066,0,3,0,forest_2,2,memory-2step-stake-s,604,1796525,0.0-19.0-0.0-0.107,AWAHIWLMQ0HUQ,3YO4AH2FQG0L0WLRIP03W553LNE0Q1,3KB8R4ZV1INYTDSH3BXIBST70G2BG0,4,3
108,1,object_10,object_03,959.78999999352,2,2,361.78500007372,0.1111111111111111,2,object_07,1,1067,0,6,1,desert_3,2,memory-2step-stake-s,605,1804220,0.0-19.0-0.0-0.108,AWAHIWLMQ0HUQ,3YO4AH2FQG0L0WLRIP03W553LNE0Q1,3KB8R4ZV1INYTDSH3BXIBST70G2BG0,1,2
109,2,object_08,object_09,635.30500000343,3,2,392.60000002105,0.5555555555555556,1,object_01,5,1092,0,5,1,forest_7,2,memory-2step-stake-s,606,1812348,0.0-19.0-0.0-0.109,AWAHIWLMQ0HUQ,3YO4AH2FQG0L0WLRIP03W553LNE0Q1,3KB8R4ZV1INYTDSH3BXIBST70G2BG0,4,3
110,1,object_03,object_10,536.93000006024,1,2,301.11000000034,0.5555555555555556,1,object_01,1,1097,0,5,0,desert_7,2,memory-2step-stake-s,607,1820386,0.0-19.0-0.0-0.110,AWAHIWLMQ0HUQ,3YO4AH2FQG0L0WLRIP03W553LNE0Q1,3KB8R4ZV1INYTDSH3BXIBST70G2BG0,2,1
111,3,object_02,object_05,741.93499993999,5,1,455.77000000048,0.3333333333333333,1,object_01,1,1100,0,3,3,library_3,2,memory-2step-stake-s,608,1828370,0.0-19.0-0.0-0.111,AWAHIWLMQ0HUQ,3YO4AH2FQG0L0WLRIP03W553LNE0Q1,3KB8R4ZV1INYTDSH3BXIBST70G2BG0,5,6
112,4,object_04,object_06,636.98499999009,8,2,576.06500003021,0.3333333333333333,2,object_07,1,1103,0,6,3,restaurant_1,2,memory-2step-stake-s,609,1836477,0.0-19.0-0.0-0.112,AWAHIWLMQ0HUQ,3YO4AH2FQG0L0WLRIP03W553LNE0Q1,3KB8R4ZV1INYTDSH3BXIBST70G2BG0,7,8
113,1,object_10,object_03,656.99499996845,1,1,374.60999994073,0.4444444444444444,1,object_01,5,1123,0,4,1,desert_1,2,memory-2step-stake-s,610,1844483,0.0-19.0-0.0-0.113,AWAHIWLMQ0HUQ,3YO4AH2FQG0L0WLRIP03W553LNE0Q1,3KB8R4ZV1INYTDSH3BXIBST70G2BG0,1,2
114,4,object_06,object_04,617.34500003513,7,2,417.81499993522,0.5555555555555556,1,object_01,1,1128,0,5,0,restaurant_7,2,memory-2step-stake-s,611,1852638,0.0-19.0-0.0-0.114,AWAHIWLMQ0HUQ,3YO4AH2FQG0L0WLRIP03W553LNE0Q1,3KB8R4ZV1INYTDSH3BXIBST70G2BG0,8,7
115,1,object_03,object_10,641.70999999624,1,2,365.91499997303,0.8888888888888888,1,object_01,1,1136,0,8,1,desert_7,2,memory-2step-stake-s,612,1861038,0.0-19.0-0.0-0.115,AWAHIWLMQ0HUQ,3YO4AH2FQG0L0WLRIP03W553LNE0Q1,3KB8R4ZV1INYTDSH3BXIBST70G2BG0,2,1
116,1,object_03,object_10,592.00500010047,1,2,284.15999992285,0.5555555555555556,1,object_01,5,1161,0,5,2,desert_7,2,memory-2step-stake-s,613,1869059,0.0-19.0-0.0-0.116,AWAHIWLMQ0HUQ,3YO4AH2FQG0L0WLRIP03W553LNE0Q1,3KB8R4ZV1INYTDSH3BXIBST70G2BG0,2,1
117,3,object_02,object_05,608.72000001837,6,2,317.21500004642,0.2222222222222222,2,object_07,1,1163,0,7,2,library_5,2,memory-2step-stake-s,614,1876809,0.0-19.0-0.0-0.117,AWAHIWLMQ0HUQ,3YO4AH2FQG0L0WLRIP03W553LNE0Q1,3KB8R4ZV1INYTDSH3BXIBST70G2BG0,5,6
118,4,object_04,object_06,748.9549999591,7,1,230.96999991685,0.8888888888888888,1,object_01,1,1171,0,8,1,restaurant_6,2,memory-2step-stake-s,615,1885076,0.0-19.0-0.0-0.118,AWAHIWLMQ0HUQ,3YO4AH2FQG0L0WLRIP03W553LNE0Q1,3KB8R4ZV1INYTDSH3BXIBST70G2BG0,7,8
119,2,object_08,object_09,787.22499997821,3,2,225.93999991659,0.5555555555555556,1,object_01,1,1176,0,5,2,forest_1,2,memory-2step-stake-s,616,1893040,0.0-19.0-0.0-0.119,AWAHIWLMQ0HUQ,3YO4AH2FQG0L0WLRIP03W553LNE0Q1,3KB8R4ZV1INYTDSH3BXIBST70G2BG0,4,3
120,3,object_02,object_05,852.75499999989,6,2,261.73999998719,0.2222222222222222,2,object_07,1,1178,0,6,2,library_2,2,memory-2step-stake-s,617,1900735,0.0-19.0-0.0-0.120,AWAHIWLMQ0HUQ,3YO4AH2FQG0L0WLRIP03W553LNE0Q1,3KB8R4ZV1INYTDSH3BXIBST70G2BG0,5,6
121,4,object_04,object_06,681.74999998882,7,1,308.16000001505,0.8888888888888888,1,object_01,1,1186,0,8,3,restaurant_8,2,memory-2step-stake-s,618,1909082,0.0-19.0-0.0-0.121,AWAHIWLMQ0HUQ,3YO4AH2FQG0L0WLRIP03W553LNE0Q1,3KB8R4ZV1INYTDSH3BXIBST70G2BG0,7,8
122,2,object_09,object_08,685.11500000022,3,1,324.03000001796,0.8888888888888888,1,object_01,5,1226,0,8,4,forest_1,2,memory-2step-stake-s,619,1917450,0.0-19.0-0.0-0.122,AWAHIWLMQ0HUQ,3YO4AH2FQG0L0WLRIP03W553LNE0Q1,3KB8R4ZV1INYTDSH3BXIBST70G2BG0,3,4
123,4,object_06,object_04,668.22499991395,7,2,336.07499999925,0.8888888888888888,1,object_01,1,1234,0,8,5,restaurant_6,2,memory-2step-stake-s,620,1925824,0.0-19.0-0.0-0.123,AWAHIWLMQ0HUQ,3YO4AH2FQG0L0WLRIP03W553LNE0Q1,3KB8R4ZV1INYTDSH3BXIBST70G2BG0,8,7
124,1,object_03,object_10,686.97000003885,1,2,287.26000001188,0.6666666666666666,1,object_01,1,1240,0,6,3,desert_2,2,memory-2step-stake-s,621,1933952,0.0-19.0-0.0-0.124,AWAHIWLMQ0HUQ,3YO4AH2FQG0L0WLRIP03W553LNE0Q1,3KB8R4ZV1INYTDSH3BXIBST70G2BG0,2,1
125,1,object_03,object_10,610.43000000063,1,2,453.7550000241,0.5555555555555556,1,object_01,5,1265,0,5,2,desert_1,2,memory-2step-stake-s,622,1942139,0.0-19.0-0.0-0.125,AWAHIWLMQ0HUQ,3YO4AH2FQG0L0WLRIP03W553LNE0Q1,3KB8R4ZV1INYTDSH3BXIBST70G2BG0,2,1
126,1,object_03,object_10,511.86500000767,1,2,436.93500000518,0.8888888888888888,1,object_01,5,1305,0,8,2,desert_1,2,memory-2step-stake-s,623,1950619,0.0-19.0-0.0-0.126,AWAHIWLMQ0HUQ,3YO4AH2FQG0L0WLRIP03W553LNE0Q1,3KB8R4ZV1INYTDSH3BXIBST70G2BG0,2,1
127,3,object_05,object_02,708.07000005152,5,2,435.03499997314,0.7777777777777778,1,object_01,1,1312,0,7,2,library_2,2,memory-2step-stake-s,624,1958987,0.0-19.0-0.0-0.127,AWAHIWLMQ0HUQ,3YO4AH2FQG0L0WLRIP03W553LNE0Q1,3KB8R4ZV1INYTDSH3BXIBST70G2BG0,6,5
128,2,object_09,object_08,527.33499999158,4,2,380.47500001267,0.1111111111111111,2,object_07,5,1317,0,4,1,forest_7,2,memory-2step-stake-s,626,2012525,0.0-19.0-0.1-0.128,AWAHIWLMQ0HUQ,3YO4AH2FQG0L0WLRIP03W553LNE0Q1,3KB8R4ZV1INYTDSH3BXIBST70G2BG0,3,4
129,2,object_09,object_08,537.43999998551,3,1,280.93499992974,0.5555555555555556,1,object_01,5,1342,0,5,0,forest_7,2,memory-2step-stake-s,627,2020536,0.0-19.0-0.1-0.129,AWAHIWLMQ0HUQ,3YO4AH2FQG0L0WLRIP03W553LNE0Q1,3KB8R4ZV1INYTDSH3BXIBST70G2BG0,3,4
130,4,object_06,object_04,570.85500005633,7,2,342.25500002503,0.3333333333333333,1,object_01,1,1345,0,3,0,restaurant_6,2,memory-2step-stake-s,628,2028408,0.0-19.0-0.1-0.130,AWAHIWLMQ0HUQ,3YO4AH2FQG0L0WLRIP03W553LNE0Q1,3KB8R4ZV1INYTDSH3BXIBST70G2BG0,8,7
131,2,object_08,object_09,1003.8250000216,4,1,321.43000001088,0.1111111111111111,2,object_07,5,1350,0,1,1,forest_7,2,memory-2step-stake-s,629,2036056,0.0-19.0-0.1-0.131,AWAHIWLMQ0HUQ,3YO4AH2FQG0L0WLRIP03W553LNE0Q1,3KB8R4ZV1INYTDSH3BXIBST70G2BG0,4,3
132,1,object_10,object_03,753.96999996156,1,1,730.3649999667,0.1111111111111111,1,object_01,5,1355,0,1,4,desert_2,2,memory-2step-stake-s,630,2044115,0.0-19.0-0.1-0.132,AWAHIWLMQ0HUQ,3YO4AH2FQG0L0WLRIP03W553LNE0Q1,3KB8R4ZV1INYTDSH3BXIBST70G2BG0,1,2
133,1,object_10,object_03,692.75499996729,2,2,294.0950000193,0.3333333333333333,2,object_07,5,1370,0,1,3,desert_1,2,memory-2step-stake-s,631,2051940,0.0-19.0-0.1-0.133,AWAHIWLMQ0HUQ,3YO4AH2FQG0L0WLRIP03W553LNE0Q1,3KB8R4ZV1INYTDSH3BXIBST70G2BG0,1,2
134,2,object_08,object_09,614.15499995928,3,2,359.88000000361,0.1111111111111111,1,object_01,1,1371,0,1,2,forest_7,2,memory-2step-stake-s,632,2059625,0.0-19.0-0.1-0.134,AWAHIWLMQ0HUQ,3YO4AH2FQG0L0WLRIP03W553LNE0Q1,3KB8R4ZV1INYTDSH3BXIBST70G2BG0,4,3
135,3,object_05,object_02,773.21500005201,6,1,321.57499995083,0.7777777777777778,2,object_07,1,1378,0,1,7,library_8,2,memory-2step-stake-s,633,2067887,0.0-19.0-0.1-0.135,AWAHIWLMQ0HUQ,3YO4AH2FQG0L0WLRIP03W553LNE0Q1,3KB8R4ZV1INYTDSH3BXIBST70G2BG0,6,5
136,1,object_03,object_10,815.91500004288,2,1,-1.0,0.0,2,object_07,5,1378,0,1,7,desert_1,2,memory-2step-stake-s,634,2076415,0.0-19.0-0.1-0.136,AWAHIWLMQ0HUQ,3YO4AH2FQG0L0WLRIP03W553LNE0Q1,3KB8R4ZV1INYTDSH3BXIBST70G2BG0,2,1
137,1,object_10,object_03,598.92000001855,2,2,293.16999996081,1.0,2,object_07,1,1387,0,2,9,desert_2,2,memory-2step-stake-s,635,2084847,0.0-19.0-0.1-0.137,AWAHIWLMQ0HUQ,3YO4AH2FQG0L0WLRIP03W553LNE0Q1,3KB8R4ZV1INYTDSH3BXIBST70G2BG0,1,2
138,2,object_09,object_08,841.40999999363,3,1,274.41000007093,0.1111111111111111,1,object_01,1,1388,0,1,5,forest_1,2,memory-2step-stake-s,636,2092447,0.0-19.0-0.1-0.138,AWAHIWLMQ0HUQ,3YO4AH2FQG0L0WLRIP03W553LNE0Q1,3KB8R4ZV1INYTDSH3BXIBST70G2BG0,3,4
139,4,object_04,object_06,703.79000005778,8,2,277.8849999886,0.5555555555555556,2,object_07,1,1393,0,2,5,restaurant_1,2,memory-2step-stake-s,637,2100458,0.0-19.0-0.1-0.139,AWAHIWLMQ0HUQ,3YO4AH2FQG0L0WLRIP03W553LNE0Q1,3KB8R4ZV1INYTDSH3BXIBST70G2BG0,7,8
140,2,object_08,object_09,610.09000008926,3,2,334.00999999139,0.0,1,object_01,5,1393,0,0,5,forest_1,2,memory-2step-stake-s,638,2108016,0.0-19.0-0.1-0.140,AWAHIWLMQ0HUQ,3YO4AH2FQG0L0WLRIP03W553LNE0Q1,3KB8R4ZV1INYTDSH3BXIBST70G2BG0,4,3
141,2,object_08,object_09,692.87500006612,4,1,275.82500001881,0.6666666666666666,2,object_07,1,1399,0,3,6,forest_2,2,memory-2step-stake-s,639,2116133,0.0-19.0-0.1-0.141,AWAHIWLMQ0HUQ,3YO4AH2FQG0L0WLRIP03W553LNE0Q1,3KB8R4ZV1INYTDSH3BXIBST70G2BG0,4,3
142,3,object_02,object_05,556.88000004739,6,2,445.76999999117,0.4444444444444444,2,object_07,5,1419,0,1,4,library_8,2,memory-2step-stake-s,640,2124214,0.0-19.0-0.1-0.142,AWAHIWLMQ0HUQ,3YO4AH2FQG0L0WLRIP03W553LNE0Q1,3KB8R4ZV1INYTDSH3BXIBST70G2BG0,5,6
143,4,object_04,object_06,595.43500002474,8,2,318.66500002798,0.4444444444444444,2,object_07,1,1423,0,3,4,restaurant_8,2,memory-2step-stake-s,641,2132171,0.0-19.0-0.1-0.143,AWAHIWLMQ0HUQ,3YO4AH2FQG0L0WLRIP03W553LNE0Q1,3KB8R4ZV1INYTDSH3BXIBST70G2BG0,7,8
144,3,object_05,object_02,631.44000002649,6,1,369.13999996614,0.5555555555555556,2,object_07,1,1428,0,5,5,library_5,2,memory-2step-stake-s,642,2140273,0.0-19.0-0.1-0.144,AWAHIWLMQ0HUQ,3YO4AH2FQG0L0WLRIP03W553LNE0Q1,3KB8R4ZV1INYTDSH3BXIBST70G2BG0,6,5
145,3,object_02,object_05,651.88500005752,6,2,87.61000004597,0.5555555555555556,2,object_07,1,1433,0,5,5,library_8,2,memory-2step-stake-s,643,2148103,0.0-19.0-0.1-0.145,AWAHIWLMQ0HUQ,3YO4AH2FQG0L0WLRIP03W553LNE0Q1,3KB8R4ZV1INYTDSH3BXIBST70G2BG0,5,6
146,1,object_10,object_03,741.6399999056,1,1,384.9400000181,0.7777777777777778,1,object_01,1,1440,0,7,5,desert_3,2,memory-2step-stake-s,644,2156423,0.0-19.0-0.1-0.146,AWAHIWLMQ0HUQ,3YO4AH2FQG0L0WLRIP03W553LNE0Q1,3KB8R4ZV1INYTDSH3BXIBST70G2BG0,1,2
147,4,object_04,object_06,768.98500008974,7,1,349.57999992184,0.3333333333333333,1,object_01,1,1443,0,3,5,restaurant_1,2,memory-2step-stake-s,645,2164300,0.0-19.0-0.1-0.147,AWAHIWLMQ0HUQ,3YO4AH2FQG0L0WLRIP03W553LNE0Q1,3KB8R4ZV1INYTDSH3BXIBST70G2BG0,7,8
148,2,object_09,object_08,945.73999999557,3,1,83.560000057332,0.3333333333333333,1,object_01,5,1458,0,3,3,forest_1,2,memory-2step-stake-s,646,2171911,0.0-19.0-0.1-0.148,AWAHIWLMQ0HUQ,3YO4AH2FQG0L0WLRIP03W553LNE0Q1,3KB8R4ZV1INYTDSH3BXIBST70G2BG0,3,4
149,1,object_03,object_10,651.8849999411,1,2,313.75999993179,0.4444444444444444,1,object_01,5,1478,0,4,1,desert_2,2,memory-2step-stake-s,647,2179863,0.0-19.0-0.1-0.149,AWAHIWLMQ0HUQ,3YO4AH2FQG0L0WLRIP03W553LNE0Q1,3KB8R4ZV1INYTDSH3BXIBST70G2BG0,2,1
150,4,object_04,object_06,732.71999997087,8,2,328.67000007536,0.0,2,object_07,1,1478,0,3,0,restaurant_6,2,memory-2step-stake-s,648,2187421,0.0-19.0-0.1-0.150,AWAHIWLMQ0HUQ,3YO4AH2FQG0L0WLRIP03W553LNE0Q1,3KB8R4ZV1INYTDSH3BXIBST70G2BG0,7,8
151,1,object_03,object_10,956.55500004068,1,2,258.01000010688,0.6666666666666666,1,object_01,5,1508,0,6,2,desert_1,2,memory-2step-stake-s,649,2195512,0.0-19.0-0.1-0.151,AWAHIWLMQ0HUQ,3YO4AH2FQG0L0WLRIP03W553LNE0Q1,3KB8R4ZV1INYTDSH3BXIBST70G2BG0,2,1
152,2,object_08,object_09,890.22500009742,4,1,299.32999995071,0.3333333333333333,2,object_07,5,1523,0,3,3,forest_4,2,memory-2step-stake-s,650,2203336,0.0-19.0-0.1-0.152,AWAHIWLMQ0HUQ,3YO4AH2FQG0L0WLRIP03W553LNE0Q1,3KB8R4ZV1INYTDSH3BXIBST70G2BG0,4,3
153,3,object_05,object_02,779.41000007559,5,2,395.31000005081,0.2222222222222222,1,object_01,5,1533,0,2,3,library_5,2,memory-2step-stake-s,651,2211160,0.0-19.0-0.1-0.153,AWAHIWLMQ0HUQ,3YO4AH2FQG0L0WLRIP03W553LNE0Q1,3KB8R4ZV1INYTDSH3BXIBST70G2BG0,6,5
154,4,object_04,object_06,523.82000000216,7,1,315.4649999924,0.2222222222222222,1,object_01,1,1535,0,2,6,restaurant_6,2,memory-2step-stake-s,652,2218913,0.0-19.0-0.1-0.154,AWAHIWLMQ0HUQ,3YO4AH2FQG0L0WLRIP03W553LNE0Q1,3KB8R4ZV1INYTDSH3BXIBST70G2BG0,7,8
155,3,object_05,object_02,748.74499998987,6,1,329.83000006061,0.7777777777777778,2,object_07,1,1542,0,5,7,library_5,2,memory-2step-stake-s,653,2227182,0.0-19.0-0.1-0.155,AWAHIWLMQ0HUQ,3YO4AH2FQG0L0WLRIP03W553LNE0Q1,3KB8R4ZV1INYTDSH3BXIBST70G2BG0,6,5
156,2,object_09,object_08,1089.5249999594,4,2,326.07499998994,0.6666666666666666,2,object_07,5,1572,0,7,6,forest_4,2,memory-2step-stake-s,654,2235342,0.0-19.0-0.1-0.156,AWAHIWLMQ0HUQ,3YO4AH2FQG0L0WLRIP03W553LNE0Q1,3KB8R4ZV1INYTDSH3BXIBST70G2BG0,3,4
157,2,object_08,object_09,905.49499995541,3,2,256.04000000749,1.0,1,object_01,5,1617,0,9,5,forest_7,2,memory-2step-stake-s,655,2243748,0.0-19.0-0.1-0.157,AWAHIWLMQ0HUQ,3YO4AH2FQG0L0WLRIP03W553LNE0Q1,3KB8R4ZV1INYTDSH3BXIBST70G2BG0,4,3
158,3,object_05,object_02,662.16999990866,5,2,251.93000002764,0.7777777777777778,1,object_01,1,1624,0,7,3,library_3,2,memory-2step-stake-s,656,2251935,0.0-19.0-0.1-0.158,AWAHIWLMQ0HUQ,3YO4AH2FQG0L0WLRIP03W553LNE0Q1,3KB8R4ZV1INYTDSH3BXIBST70G2BG0,6,5
159,4,object_04,object_06,644.58500000183,7,1,362.09499998949,0.8888888888888888,1,object_01,1,1632,0,8,2,restaurant_6,2,memory-2step-stake-s,657,2260335,0.0-19.0-0.1-0.159,AWAHIWLMQ0HUQ,3YO4AH2FQG0L0WLRIP03W553LNE0Q1,3KB8R4ZV1INYTDSH3BXIBST70G2BG0,7,8
160,3,object_05,object_02,596.84500005096,5,2,401.97499992792,0.8888888888888888,1,object_01,1,1640,0,8,2,library_3,2,memory-2step-stake-s,658,2268773,0.0-19.0-0.1-0.160,AWAHIWLMQ0HUQ,3YO4AH2FQG0L0WLRIP03W553LNE0Q1,3KB8R4ZV1INYTDSH3BXIBST70G2BG0,6,5
161,1,object_10,object_03,723.92000001855,1,1,292.87000000477,0.8888888888888888,1,object_01,1,1648,0,8,4,desert_3,2,memory-2step-stake-s,659,2277104,0.0-19.0-0.1-0.161,AWAHIWLMQ0HUQ,3YO4AH2FQG0L0WLRIP03W553LNE0Q1,3KB8R4ZV1INYTDSH3BXIBST70G2BG0,1,2
162,3,object_02,object_05,726.88999993261,5,1,256.23499997891,0.6666666666666666,1,object_01,1,1654,0,6,4,library_8,2,memory-2step-stake-s,660,2285195,0.0-19.0-0.1-0.162,AWAHIWLMQ0HUQ,3YO4AH2FQG0L0WLRIP03W553LNE0Q1,3KB8R4ZV1INYTDSH3BXIBST70G2BG0,5,6
163,4,object_04,object_06,812.78499995824,7,1,231.59999994095,0.6666666666666666,1,object_01,1,1660,0,6,8,restaurant_1,2,memory-2step-stake-s,661,2293260,0.0-19.0-0.1-0.163,AWAHIWLMQ0HUQ,3YO4AH2FQG0L0WLRIP03W553LNE0Q1,3KB8R4ZV1INYTDSH3BXIBST70G2BG0,7,8
164,3,object_02,object_05,468.49500003736,5,1,325.88499994017,0.8888888888888888,1,object_01,1,1668,0,8,8,library_3,2,memory-2step-stake-s,662,2301626,0.0-19.0-0.1-0.164,AWAHIWLMQ0HUQ,3YO4AH2FQG0L0WLRIP03W553LNE0Q1,3KB8R4ZV1INYTDSH3BXIBST70G2BG0,5,6
165,2,object_09,object_08,1040.5999999493,3,1,297.37499996554,0.7777777777777778,1,object_01,5,1703,0,7,7,forest_2,2,memory-2step-stake-s,663,2309862,0.0-19.0-0.1-0.165,AWAHIWLMQ0HUQ,3YO4AH2FQG0L0WLRIP03W553LNE0Q1,3KB8R4ZV1INYTDSH3BXIBST70G2BG0,3,4
166,4,object_04,object_06,618.66499995813,7,1,363.14999999013,0.3333333333333333,1,object_01,1,1706,0,3,4,restaurant_7,2,memory-2step-stake-s,664,2317761,0.0-19.0-0.1-0.166,AWAHIWLMQ0HUQ,3YO4AH2FQG0L0WLRIP03W553LNE0Q1,3KB8R4ZV1INYTDSH3BXIBST70G2BG0,7,8
167,2,object_09,object_08,300.61999999452,4,2,-1.0,0.0,2,object_07,1,1706,0,5,6,forest_1,2,memory-2step-stake-s,665,2326285,0.0-19.0-0.1-0.167,AWAHIWLMQ0HUQ,3YO4AH2FQG0L0WLRIP03W553LNE0Q1,3KB8R4ZV1INYTDSH3BXIBST70G2BG0,3,4
168,3,object_02,object_05,674.21999992803,6,2,231.58499994315,0.5555555555555556,2,object_07,5,1731,0,8,5,library_3,2,memory-2step-stake-s,666,2334249,0.0-19.0-0.1-0.168,AWAHIWLMQ0HUQ,3YO4AH2FQG0L0WLRIP03W553LNE0Q1,3KB8R4ZV1INYTDSH3BXIBST70G2BG0,5,6
169,4,object_04,object_06,566.78500003181,8,2,289.74999999627,0.3333333333333333,2,object_07,5,1746,0,7,3,restaurant_7,2,memory-2step-stake-s,667,2342073,0.0-19.0-0.1-0.169,AWAHIWLMQ0HUQ,3YO4AH2FQG0L0WLRIP03W553LNE0Q1,3KB8R4ZV1INYTDSH3BXIBST70G2BG0,7,8
170,1,object_03,object_10,684.24999993294,1,2,259.07500006724,0.4444444444444444,1,object_01,1,1750,0,4,4,desert_1,2,memory-2step-stake-s,668,2349972,0.0-19.0-0.1-0.170,AWAHIWLMQ0HUQ,3YO4AH2FQG0L0WLRIP03W553LNE0Q1,3KB8R4ZV1INYTDSH3BXIBST70G2BG0,2,1
171,4,object_06,object_04,615.36499997601,7,2,272.17500004917,0.8888888888888888,1,object_01,1,1758,0,8,4,restaurant_8,2,memory-2step-stake-s,669,2358287,0.0-19.0-0.1-0.171,AWAHIWLMQ0HUQ,3YO4AH2FQG0L0WLRIP03W553LNE0Q1,3KB8R4ZV1INYTDSH3BXIBST70G2BG0,8,7
172,1,object_10,object_03,607.77500004042,1,1,259.78999992367,0.7777777777777778,1,object_01,5,1793,0,7,3,desert_1,2,memory-2step-stake-s,670,2366479,0.0-19.0-0.1-0.172,AWAHIWLMQ0HUQ,3YO4AH2FQG0L0WLRIP03W553LNE0Q1,3KB8R4ZV1INYTDSH3BXIBST70G2BG0,1,2
173,3,object_02,object_05,752.90000007953,6,2,235.57000001892,0.4444444444444444,2,object_07,1,1797,0,8,4,library_3,2,memory-2step-stake-s,671,2374346,0.0-19.0-0.1-0.173,AWAHIWLMQ0HUQ,3YO4AH2FQG0L0WLRIP03W553LNE0Q1,3KB8R4ZV1INYTDSH3BXIBST70G2BG0,5,6
174,2,object_09,object_08,747.54500004929,3,1,239.28500001784,0.8888888888888888,1,object_01,5,1837,0,8,3,forest_2,2,memory-2step-stake-s,672,2382630,0.0-19.0-0.1-0.174,AWAHIWLMQ0HUQ,3YO4AH2FQG0L0WLRIP03W553LNE0Q1,3KB8R4ZV1INYTDSH3BXIBST70G2BG0,3,4
175,4,object_06,object_04,618.22499998379,7,2,419.75000000093,0.5555555555555556,1,object_01,1,1842,0,5,1,restaurant_1,2,memory-2step-stake-s,673,2390789,0.0-19.0-0.1-0.175,AWAHIWLMQ0HUQ,3YO4AH2FQG0L0WLRIP03W553LNE0Q1,3KB8R4ZV1INYTDSH3BXIBST70G2BG0,8,7
176,4,object_04,object_06,570.11500000954,7,1,535.81999999005,0.7777777777777778,1,object_01,1,1849,0,7,1,restaurant_1,2,memory-2step-stake-s,674,2399264,0.0-19.0-0.1-0.176,AWAHIWLMQ0HUQ,3YO4AH2FQG0L0WLRIP03W553LNE0Q1,3KB8R4ZV1INYTDSH3BXIBST70G2BG0,7,8
177,3,object_02,object_05,725.44000006747,5,1,262.56000006106,0.6666666666666666,1,object_01,1,1855,0,6,1,library_2,2,memory-2step-stake-s,675,2407360,0.0-19.0-0.1-0.177,AWAHIWLMQ0HUQ,3YO4AH2FQG0L0WLRIP03W553LNE0Q1,3KB8R4ZV1INYTDSH3BXIBST70G2BG0,5,6
178,3,object_05,object_02,522.55999995396,5,2,443.13999998849,0.4444444444444444,1,object_01,1,1859,0,4,1,library_5,2,memory-2step-stake-s,676,2415435,0.0-19.0-0.1-0.178,AWAHIWLMQ0HUQ,3YO4AH2FQG0L0WLRIP03W553LNE0Q1,3KB8R4ZV1INYTDSH3BXIBST70G2BG0,6,5
179,4,object_06,object_04,583.63000000827,7,2,357.41499997675,0.4444444444444444,1,object_01,1,1863,0,4,2,restaurant_6,2,memory-2step-stake-s,677,2423430,0.0-19.0-0.1-0.179,AWAHIWLMQ0HUQ,3YO4AH2FQG0L0WLRIP03W553LNE0Q1,3KB8R4ZV1INYTDSH3BXIBST70G2BG0,8,7
180,2,object_08,object_09,769.64499999303,3,2,279.2349999072,0.3333333333333333,1,object_01,5,1878,0,3,1,forest_2,2,memory-2step-stake-s,678,2431238,0.0-19.0-0.1-0.180,AWAHIWLMQ0HUQ,3YO4AH2FQG0L0WLRIP03W553LNE0Q1,3KB8R4ZV1INYTDSH3BXIBST70G2BG0,4,3
181,2,object_09,object_08,635.54499996826,3,1,254.59999998566,0.0,1,object_01,5,1878,0,0,2,forest_4,2,memory-2step-stake-s,679,2438721,0.0-19.0-0.1-0.181,AWAHIWLMQ0HUQ,3YO4AH2FQG0L0WLRIP03W553LNE0Q1,3KB8R4ZV1INYTDSH3BXIBST70G2BG0,3,4
182,4,object_04,object_06,615.08000001777,8,2,250.10499998461,0.2222222222222222,2,object_07,5,1888,0,3,2,restaurant_6,2,memory-2step-stake-s,680,2446396,0.0-19.0-0.1-0.182,AWAHIWLMQ0HUQ,3YO4AH2FQG0L0WLRIP03W553LNE0Q1,3KB8R4ZV1INYTDSH3BXIBST70G2BG0,7,8
183,1,object_10,object_03,740.46500003897,2,2,274.50999990106,0.5555555555555556,2,object_07,5,1913,0,5,5,desert_3,2,memory-2step-stake-s,681,2454402,0.0-19.0-0.1-0.183,AWAHIWLMQ0HUQ,3YO4AH2FQG0L0WLRIP03W553LNE0Q1,3KB8R4ZV1INYTDSH3BXIBST70G2BG0,1,2
184,2,object_09,object_08,898.45500001684,4,2,439.3300000811,0.7777777777777778,2,object_07,5,1948,0,4,7,forest_4,2,memory-2step-stake-s,682,2462781,0.0-19.0-0.1-0.184,AWAHIWLMQ0HUQ,3YO4AH2FQG0L0WLRIP03W553LNE0Q1,3KB8R4ZV1INYTDSH3BXIBST70G2BG0,3,4
185,3,object_05,object_02,732.80999995768,6,1,374.27999998908,0.7777777777777778,2,object_07,5,1983,0,2,7,library_5,2,memory-2step-stake-s,683,2471090,0.0-19.0-0.1-0.185,AWAHIWLMQ0HUQ,3YO4AH2FQG0L0WLRIP03W553LNE0Q1,3KB8R4ZV1INYTDSH3BXIBST70G2BG0,6,5
186,1,object_10,object_03,700.84499998484,2,2,368.31499997061,0.4444444444444444,2,object_07,5,2003,0,1,4,desert_2,2,memory-2step-stake-s,684,2479096,0.0-19.0-0.1-0.186,AWAHIWLMQ0HUQ,3YO4AH2FQG0L0WLRIP03W553LNE0Q1,3KB8R4ZV1INYTDSH3BXIBST70G2BG0,1,2
187,3,object_05,object_02,698.34500004072,6,1,365.20499992184,0.2222222222222222,2,object_07,1,2005,0,3,2,library_5,2,memory-2step-stake-s,685,2486888,0.0-19.0-0.1-0.187,AWAHIWLMQ0HUQ,3YO4AH2FQG0L0WLRIP03W553LNE0Q1,3KB8R4ZV1INYTDSH3BXIBST70G2BG0,6,5
188,2,object_09,object_08,696.91500009503,3,1,282.72000001743,0.5555555555555556,1,object_01,5,2030,0,5,4,forest_4,2,memory-2step-stake-s,686,2494915,0.0-19.0-0.1-0.188,AWAHIWLMQ0HUQ,3YO4AH2FQG0L0WLRIP03W553LNE0Q1,3KB8R4ZV1INYTDSH3BXIBST70G2BG0,3,4
189,1,object_10,object_03,770.18999995198,1,1,349.67000002507,0.1111111111111111,1,object_01,5,2035,0,1,2,desert_1,2,memory-2step-stake-s,687,2502591,0.0-19.0-0.1-0.189,AWAHIWLMQ0HUQ,3YO4AH2FQG0L0WLRIP03W553LNE0Q1,3KB8R4ZV1INYTDSH3BXIBST70G2BG0,1,2
190,2,object_09,object_08,916.43999994267,3,1,290.00500007533,0.2222222222222222,1,object_01,5,2045,0,2,0,forest_4,2,memory-2step-stake-s,688,2510309,0.0-19.0-0.1-0.190,AWAHIWLMQ0HUQ,3YO4AH2FQG0L0WLRIP03W553LNE0Q1,3KB8R4ZV1INYTDSH3BXIBST70G2BG0,3,4
191,2,object_09,object_08,804.97499997728,4,2,296.51000001468,0.2222222222222222,2,object_07,5,2055,0,2,2,forest_7,2,memory-2step-stake-s,689,2518036,0.0-19.0-0.1-0.191,AWAHIWLMQ0HUQ,3YO4AH2FQG0L0WLRIP03W553LNE0Q1,3KB8R4ZV1INYTDSH3BXIBST70G2BG0,3,4
192,3,object_02,object_05,577.31500000227,5,1,264.88999999128,0.0,1,object_01,1,2055,0,0,1,library_2,2,memory-2step-stake-s,690,2525519,0.0-19.0-0.1-0.192,AWAHIWLMQ0HUQ,3YO4AH2FQG0L0WLRIP03W553LNE0Q1,3KB8R4ZV1INYTDSH3BXIBST70G2BG0,5,6
193,2,object_08,object_09,743.71499998961,4,1,291.92000010516,0.0,2,object_07,5,2055,0,0,0,forest_1,2,memory-2step-stake-s,691,2533034,0.0-19.0-0.1-0.193,AWAHIWLMQ0HUQ,3YO4AH2FQG0L0WLRIP03W553LNE0Q1,3KB8R4ZV1INYTDSH3BXIBST70G2BG0,4,3
194,1,object_10,object_03,599.22000009101,1,1,232.01499995776,0.1111111111111111,1,object_01,5,2060,0,1,0,desert_7,2,memory-2step-stake-s,692,2540591,0.0-19.0-0.1-0.194,AWAHIWLMQ0HUQ,3YO4AH2FQG0L0WLRIP03W553LNE0Q1,3KB8R4ZV1INYTDSH3BXIBST70G2BG0,1,2
195,3,object_05,object_02,596.61499992944,5,2,332.58500008378,0.2222222222222222,1,object_01,1,2062,0,2,3,library_5,2,memory-2step-stake-s,693,2548351,0.0-19.0-0.1-0.195,AWAHIWLMQ0HUQ,3YO4AH2FQG0L0WLRIP03W553LNE0Q1,3KB8R4ZV1INYTDSH3BXIBST70G2BG0,6,5
196,2,object_08,object_09,712.99500006717,3,2,316.22000003699,0.2222222222222222,1,object_01,5,2072,0,2,3,forest_1,2,memory-2step-stake-s,694,2556095,0.0-19.0-0.1-0.196,AWAHIWLMQ0HUQ,3YO4AH2FQG0L0WLRIP03W553LNE0Q1,3KB8R4ZV1INYTDSH3BXIBST70G2BG0,4,3
197,1,object_10,object_03,608.13999990933,1,1,278.2700000098,0.1111111111111111,1,object_01,5,2077,0,1,1,desert_2,2,memory-2step-stake-s,695,2563701,0.0-19.0-0.1-0.197,AWAHIWLMQ0HUQ,3YO4AH2FQG0L0WLRIP03W553LNE0Q1,3KB8R4ZV1INYTDSH3BXIBST70G2BG0,1,2
198,1,object_10,object_03,575.24999999441,1,1,384.7250000108,0.2222222222222222,1,object_01,5,2087,0,2,4,desert_2,2,memory-2step-stake-s,696,2571520,0.0-19.0-0.1-0.198,AWAHIWLMQ0HUQ,3YO4AH2FQG0L0WLRIP03W553LNE0Q1,3KB8R4ZV1INYTDSH3BXIBST70G2BG0,1,2
199,2,object_08,object_09,786.1199999461,3,2,130.78500004485,0.1111111111111111,1,object_01,5,2092,0,1,2,forest_4,2,memory-2step-stake-s,697,2578976,0.0-19.0-0.1-0.199,AWAHIWLMQ0HUQ,3YO4AH2FQG0L0WLRIP03W553LNE0Q1,3KB8R4ZV1INYTDSH3BXIBST70G2BG0,4,3
200,4,object_06,object_04,563.55000007898,8,1,281.44499997143,0.6666666666666666,2,object_07,1,2098,0,3,6,restaurant_6,2,memory-2step-stake-s,698,2587099,0.0-19.0-0.1-0.200,AWAHIWLMQ0HUQ,3YO4AH2FQG0L0WLRIP03W553LNE0Q1,3KB8R4ZV1INYTDSH3BXIBST70G2BG0,8,7
201,1,object_10,object_03,643.4049999807,2,2,391.41999999993,0.3333333333333333,2,object_07,5,2113,0,5,3,desert_1,2,memory-2step-stake-s,699,2595019,0.0-19.0-0.1-0.201,AWAHIWLMQ0HUQ,3YO4AH2FQG0L0WLRIP03W553LNE0Q1,3KB8R4ZV1INYTDSH3BXIBST70G2BG0,1,2
202,3,object_02,object_05,633.18499992602,6,2,409.17999995872,0.1111111111111111,2,object_07,1,2114,0,5,1,library_8,2,memory-2step-stake-s,700,2602758,0.0-19.0-0.1-0.202,AWAHIWLMQ0HUQ,3YO4AH2FQG0L0WLRIP03W553LNE0Q1,3KB8R4ZV1INYTDSH3BXIBST70G2BG0,5,6
203,1,object_10,object_03,738.22499997914,2,2,361.03000002913,0.0,2,object_07,5,2114,0,2,0,desert_2,2,memory-2step-stake-s,701,2610343,0.0-19.0-0.1-0.203,AWAHIWLMQ0HUQ,3YO4AH2FQG0L0WLRIP03W553LNE0Q1,3KB8R4ZV1INYTDSH3BXIBST70G2BG0,1,2
204,1,object_03,object_10,695.39999996778,2,1,353.43500005547,0.2222222222222222,2,object_07,5,2124,0,0,2,desert_7,2,memory-2step-stake-s,702,2618129,0.0-19.0-0.1-0.204,AWAHIWLMQ0HUQ,3YO4AH2FQG0L0WLRIP03W553LNE0Q1,3KB8R4ZV1INYTDSH3BXIBST70G2BG0,2,1
205,4,object_04,object_06,779.51000002213,7,1,430.49499997869,0.3333333333333333,1,object_01,1,2127,0,3,0,restaurant_7,2,memory-2step-stake-s,703,2626092,0.0-19.0-0.1-0.205,AWAHIWLMQ0HUQ,3YO4AH2FQG0L0WLRIP03W553LNE0Q1,3KB8R4ZV1INYTDSH3BXIBST70G2BG0,7,8
206,1,object_03,object_10,576.12999994308,1,2,340.42999998201,0.5555555555555556,1,object_01,5,2152,0,5,2,desert_3,2,memory-2step-stake-s,704,2634167,0.0-19.0-0.1-0.206,AWAHIWLMQ0HUQ,3YO4AH2FQG0L0WLRIP03W553LNE0Q1,3KB8R4ZV1INYTDSH3BXIBST70G2BG0,2,1
207,3,object_05,object_02,704.12499993108,5,2,418.06000005454,0.3333333333333333,1,object_01,1,2155,0,3,1,library_2,2,memory-2step-stake-s,705,2642114,0.0-19.0-0.1-0.207,AWAHIWLMQ0HUQ,3YO4AH2FQG0L0WLRIP03W553LNE0Q1,3KB8R4ZV1INYTDSH3BXIBST70G2BG0,6,5
208,2,object_09,object_08,740.22000003606,3,1,266.33500005119,0.2222222222222222,1,object_01,5,2165,0,2,1,forest_2,2,memory-2step-stake-s,706,2649810,0.0-19.0-0.1-0.208,AWAHIWLMQ0HUQ,3YO4AH2FQG0L0WLRIP03W553LNE0Q1,3KB8R4ZV1INYTDSH3BXIBST70G2BG0,3,4
209,4,object_06,object_04,583.65000004414,7,2,441.07000005897,0.5555555555555556,1,object_01,1,2170,0,5,3,restaurant_8,2,memory-2step-stake-s,707,2657987,0.0-19.0-0.1-0.209,AWAHIWLMQ0HUQ,3YO4AH2FQG0L0WLRIP03W553LNE0Q1,3KB8R4ZV1INYTDSH3BXIBST70G2BG0,8,7
210,2,object_08,object_09,805.21499994211,3,2,354.09500007518,0.5555555555555556,1,object_01,5,2195,0,5,1,forest_1,2,memory-2step-stake-s,708,2666078,0.0-19.0-0.1-0.210,AWAHIWLMQ0HUQ,3YO4AH2FQG0L0WLRIP03W553LNE0Q1,3KB8R4ZV1INYTDSH3BXIBST70G2BG0,4,3
211,4,object_06,object_04,597.71000000183,7,2,638.28000007197,0.5555555555555556,1,object_01,1,2200,0,5,2,restaurant_8,2,memory-2step-stake-s,709,2674446,0.0-19.0-0.1-0.211,AWAHIWLMQ0HUQ,3YO4AH2FQG0L0WLRIP03W553LNE0Q1,3KB8R4ZV1INYTDSH3BXIBST70G2BG0,8,7
212,1,object_03,object_10,538.80000009667,1,2,375.05000003148,0.6666666666666666,1,object_01,5,2230,0,6,4,desert_3,2,memory-2step-stake-s,710,2682654,0.0-19.0-0.1-0.212,AWAHIWLMQ0HUQ,3YO4AH2FQG0L0WLRIP03W553LNE0Q1,3KB8R4ZV1INYTDSH3BXIBST70G2BG0,2,1
213,3,object_02,object_05,545.95499997959,5,1,175.2550000092,0.6666666666666666,1,object_01,5,2260,0,6,6,library_8,2,memory-2step-stake-s,711,2690665,0.0-19.0-0.1-0.213,AWAHIWLMQ0HUQ,3YO4AH2FQG0L0WLRIP03W553LNE0Q1,3KB8R4ZV1INYTDSH3BXIBST70G2BG0,5,6
214,3,object_05,object_02,164.84499990474,5,2,236.39500001445,1.0,1,object_01,1,2269,0,9,7,library_3,2,memory-2step-stake-s,712,2699044,0.0-19.0-0.1-0.214,AWAHIWLMQ0HUQ,3YO4AH2FQG0L0WLRIP03W553LNE0Q1,3KB8R4ZV1INYTDSH3BXIBST70G2BG0,6,5
215,1,object_03,object_10,529.07500008587,1,2,303.74499992467,0.8888888888888888,1,object_01,5,2309,0,8,8,desert_1,2,memory-2step-stake-s,713,2707380,0.0-19.0-0.1-0.215,AWAHIWLMQ0HUQ,3YO4AH2FQG0L0WLRIP03W553LNE0Q1,3KB8R4ZV1INYTDSH3BXIBST70G2BG0,2,1
216,2,object_09,object_08,686.43000000156,3,1,305.72000006214,0.6666666666666666,1,object_01,5,2339,0,6,8,forest_2,2,memory-2step-stake-s,714,2715519,0.0-19.0-0.1-0.216,AWAHIWLMQ0HUQ,3YO4AH2FQG0L0WLRIP03W553LNE0Q1,3KB8R4ZV1INYTDSH3BXIBST70G2BG0,3,4
217,2,object_08,object_09,788.64499996416,3,2,444.55000001471,0.7777777777777778,1,object_01,5,2374,0,7,8,forest_7,2,memory-2step-stake-s,715,2723898,0.0-19.0-0.1-0.217,AWAHIWLMQ0HUQ,3YO4AH2FQG0L0WLRIP03W553LNE0Q1,3KB8R4ZV1INYTDSH3BXIBST70G2BG0,4,3
218,4,object_06,object_04,650.57499997783,7,2,327.9099999927,0.5555555555555556,1,object_01,1,2379,0,5,8,restaurant_7,2,memory-2step-stake-s,716,2731957,0.0-19.0-0.1-0.218,AWAHIWLMQ0HUQ,3YO4AH2FQG0L0WLRIP03W553LNE0Q1,3KB8R4ZV1INYTDSH3BXIBST70G2BG0,8,7
219,1,object_03,object_10,481.96500004269,1,2,285.34499998204,0.8888888888888888,1,object_01,5,2419,0,8,8,desert_7,2,memory-2step-stake-s,717,2740277,0.0-19.0-0.1-0.219,AWAHIWLMQ0HUQ,3YO4AH2FQG0L0WLRIP03W553LNE0Q1,3KB8R4ZV1INYTDSH3BXIBST70G2BG0,2,1
220,3,object_05,object_02,535.28499999084,5,2,83.519999985583,1.0,1,object_01,1,2428,0,9,8,library_8,2,memory-2step-stake-s,718,2748496,0.0-19.0-0.1-0.220,AWAHIWLMQ0HUQ,3YO4AH2FQG0L0WLRIP03W553LNE0Q1,3KB8R4ZV1INYTDSH3BXIBST70G2BG0,6,5
221,1,object_10,object_03,407.36000007018,1,1,421.80500004906,0.8888888888888888,1,object_01,5,2468,0,8,5,desert_2,2,memory-2step-stake-s,719,2756966,0.0-19.0-0.1-0.221,AWAHIWLMQ0HUQ,3YO4AH2FQG0L0WLRIP03W553LNE0Q1,3KB8R4ZV1INYTDSH3BXIBST70G2BG0,1,2
222,4,object_04,object_06,644.90499999374,7,1,278.33500003908,0.8888888888888888,1,object_01,1,2476,0,8,5,restaurant_8,2,memory-2step-stake-s,720,2765291,0.0-19.0-0.1-0.222,AWAHIWLMQ0HUQ,3YO4AH2FQG0L0WLRIP03W553LNE0Q1,3KB8R4ZV1INYTDSH3BXIBST70G2BG0,7,8
223,4,object_06,object_04,531.99499996845,7,2,392.29500002693,0.7777777777777778,1,object_01,1,2483,0,7,4,restaurant_6,2,memory-2step-stake-s,721,2773617,0.0-19.0-0.1-0.223,AWAHIWLMQ0HUQ,3YO4AH2FQG0L0WLRIP03W553LNE0Q1,3KB8R4ZV1INYTDSH3BXIBST70G2BG0,8,7
224,2,object_09,object_08,847.02500002459,3,1,302.15500004124,0.3333333333333333,1,object_01,5,2498,0,3,4,forest_2,2,memory-2step-stake-s,722,2781446,0.0-19.0-0.1-0.224,AWAHIWLMQ0HUQ,3YO4AH2FQG0L0WLRIP03W553LNE0Q1,3KB8R4ZV1INYTDSH3BXIBST70G2BG0,3,4
225,2,object_08,object_09,615.00499991234,3,2,307.9199999338,0.1111111111111111,1,object_01,5,2503,0,1,7,forest_7,2,memory-2step-stake-s,723,2789084,0.0-19.0-0.1-0.225,AWAHIWLMQ0HUQ,3YO4AH2FQG0L0WLRIP03W553LNE0Q1,3KB8R4ZV1INYTDSH3BXIBST70G2BG0,4,3
226,4,object_04,object_06,625.48000004608,7,1,297.02000005636,0.2222222222222222,1,object_01,5,2513,0,2,3,restaurant_6,2,memory-2step-stake-s,724,2796807,0.0-19.0-0.1-0.226,AWAHIWLMQ0HUQ,3YO4AH2FQG0L0WLRIP03W553LNE0Q1,3KB8R4ZV1INYTDSH3BXIBST70G2BG0,7,8
227,2,object_09,object_08,611.38999997638,3,1,18.984999973327,0.3333333333333333,1,object_01,5,2528,0,3,3,forest_7,2,memory-2step-stake-s,725,2804353,0.0-19.0-0.1-0.227,AWAHIWLMQ0HUQ,3YO4AH2FQG0L0WLRIP03W553LNE0Q1,3KB8R4ZV1INYTDSH3BXIBST70G2BG0,3,4
228,1,object_03,object_10,636.99000002816,1,2,350.18000006676,0.4444444444444444,1,object_01,5,2548,0,4,2,desert_7,2,memory-2step-stake-s,726,2812334,0.0-19.0-0.1-0.228,AWAHIWLMQ0HUQ,3YO4AH2FQG0L0WLRIP03W553LNE0Q1,3KB8R4ZV1INYTDSH3BXIBST70G2BG0,2,1
229,4,object_04,object_06,537.55999996793,7,1,369.47999999393,0.5555555555555556,1,object_01,1,2553,0,5,7,restaurant_8,2,memory-2step-stake-s,727,2820440,0.0-19.0-0.1-0.229,AWAHIWLMQ0HUQ,3YO4AH2FQG0L0WLRIP03W553LNE0Q1,3KB8R4ZV1INYTDSH3BXIBST70G2BG0,7,8
230,4,object_04,object_06,540.5150000006,7,1,372.2500000149,0.6666666666666666,1,object_01,1,2559,0,6,7,restaurant_8,2,memory-2step-stake-s,728,2828649,0.0-19.0-0.1-0.230,AWAHIWLMQ0HUQ,3YO4AH2FQG0L0WLRIP03W553LNE0Q1,3KB8R4ZV1INYTDSH3BXIBST70G2BG0,7,8
231,4,object_04,object_06,551.62499996368,7,1,289.16499996558,0.8888888888888888,1,object_01,1,2567,0,8,6,restaurant_1,2,memory-2step-stake-s,729,2836984,0.0-19.0-0.1-0.231,AWAHIWLMQ0HUQ,3YO4AH2FQG0L0WLRIP03W553LNE0Q1,3KB8R4ZV1INYTDSH3BXIBST70G2BG0,7,8
232,1,object_03,object_10,647.34499994665,1,2,348.05499995127,0.8888888888888888,1,object_01,5,2607,0,8,7,desert_7,2,memory-2step-stake-s,730,2845368,0.0-19.0-0.1-0.232,AWAHIWLMQ0HUQ,3YO4AH2FQG0L0WLRIP03W553LNE0Q1,3KB8R4ZV1INYTDSH3BXIBST70G2BG0,2,1
233,3,object_02,object_05,575.67500008736,5,1,302.59500001557,0.8888888888888888,1,object_01,1,2615,0,8,7,library_2,2,memory-2step-stake-s,731,2853705,0.0-19.0-0.1-0.233,AWAHIWLMQ0HUQ,3YO4AH2FQG0L0WLRIP03W553LNE0Q1,3KB8R4ZV1INYTDSH3BXIBST70G2BG0,5,6
234,1,object_10,object_03,604.91500003263,1,1,258.22499999776,1.0,1,object_01,5,2660,0,9,6,desert_2,2,memory-2step-stake-s,732,2862099,0.0-19.0-0.1-0.234,AWAHIWLMQ0HUQ,3YO4AH2FQG0L0WLRIP03W553LNE0Q1,3KB8R4ZV1INYTDSH3BXIBST70G2BG0,1,2
235,3,object_05,object_02,516.47999999113,5,2,336.99500001967,0.8888888888888888,1,object_01,1,2668,0,8,7,library_8,2,memory-2step-stake-s,733,2870484,0.0-19.0-0.1-0.235,AWAHIWLMQ0HUQ,3YO4AH2FQG0L0WLRIP03W553LNE0Q1,3KB8R4ZV1INYTDSH3BXIBST70G2BG0,6,5
236,4,object_04,object_06,583.50000006612,7,1,324.41000000108,1.0,1,object_01,1,2677,0,9,9,restaurant_6,2,memory-2step-stake-s,734,2878954,0.0-19.0-0.1-0.236,AWAHIWLMQ0HUQ,3YO4AH2FQG0L0WLRIP03W553LNE0Q1,3KB8R4ZV1INYTDSH3BXIBST70G2BG0,7,8
237,2,object_08,object_09,808.56499995571,3,2,382.74000003003,0.7777777777777778,1,object_01,5,2712,0,7,9,forest_4,2,memory-2step-stake-s,735,2887289,0.0-19.0-0.1-0.237,AWAHIWLMQ0HUQ,3YO4AH2FQG0L0WLRIP03W553LNE0Q1,3KB8R4ZV1INYTDSH3BXIBST70G2BG0,4,3
238,2,object_09,object_08,759.25499992445,3,1,362.04499995802,0.5555555555555556,1,object_01,5,2737,0,5,7,forest_1,2,memory-2step-stake-s,736,2895397,0.0-19.0-0.1-0.238,AWAHIWLMQ0HUQ,3YO4AH2FQG0L0WLRIP03W553LNE0Q1,3KB8R4ZV1INYTDSH3BXIBST70G2BG0,3,4
239,2,object_09,object_08,637.53499998711,3,1,276.07000002172,0.6666666666666666,1,object_01,1,2743,0,6,6,forest_2,2,memory-2step-stake-s,737,2903509,0.0-19.0-0.1-0.239,AWAHIWLMQ0HUQ,3YO4AH2FQG0L0WLRIP03W553LNE0Q1,3KB8R4ZV1INYTDSH3BXIBST70G2BG0,3,4
240,4,object_06,object_04,638.83499999065,7,2,265.01500001177,0.4444444444444444,1,object_01,1,2747,0,4,7,restaurant_7,2,memory-2step-stake-s,738,2911408,0.0-19.0-0.1-0.240,AWAHIWLMQ0HUQ,3YO4AH2FQG0L0WLRIP03W553LNE0Q1,3KB8R4ZV1INYTDSH3BXIBST70G2BG0,8,7
241,1,object_10,object_03,569.95500007179,1,1,490.22999999579,0.3333333333333333,1,object_01,5,2762,0,3,8,desert_7,2,memory-2step-stake-s,739,2919429,0.0-19.0-0.1-0.241,AWAHIWLMQ0HUQ,3YO4AH2FQG0L0WLRIP03W553LNE0Q1,3KB8R4ZV1INYTDSH3BXIBST70G2BG0,1,2
242,4,object_06,object_04,624.72000007983,8,1,347.56999998353,0.8888888888888888,2,object_07,5,2802,0,6,8,restaurant_8,2,memory-2step-stake-s,740,2927813,0.0-19.0-0.1-0.242,AWAHIWLMQ0HUQ,3YO4AH2FQG0L0WLRIP03W553LNE0Q1,3KB8R4ZV1INYTDSH3BXIBST70G2BG0,8,7
243,2,object_08,object_09,933.82999999449,3,2,341.77999990061,0.6666666666666666,1,object_01,5,2832,0,6,7,forest_7,2,memory-2step-stake-s,741,2935990,0.0-19.0-0.1-0.243,AWAHIWLMQ0HUQ,3YO4AH2FQG0L0WLRIP03W553LNE0Q1,3KB8R4ZV1INYTDSH3BXIBST70G2BG0,4,3
244,1,object_03,object_10,663.27000001911,2,1,316.63000001572,0.8888888888888888,2,object_07,5,2872,0,3,8,desert_3,2,memory-2step-stake-s,742,2944342,0.0-19.0-0.1-0.244,AWAHIWLMQ0HUQ,3YO4AH2FQG0L0WLRIP03W553LNE0Q1,3KB8R4ZV1INYTDSH3BXIBST70G2BG0,2,1
245,1,object_10,object_03,789.66500004753,2,2,270.09000000544,0.5555555555555556,2,object_07,5,2897,0,1,5,desert_3,2,memory-2step-stake-s,743,2952347,0.0-19.0-0.1-0.245,AWAHIWLMQ0HUQ,3YO4AH2FQG0L0WLRIP03W553LNE0Q1,3KB8R4ZV1INYTDSH3BXIBST70G2BG0,1,2
246,1,object_03,object_10,620.21500000264,1,2,273.18000001833,0.1111111111111111,1,object_01,5,2902,0,1,3,desert_3,2,memory-2step-stake-s,744,2959948,0.0-19.0-0.1-0.246,AWAHIWLMQ0HUQ,3YO4AH2FQG0L0WLRIP03W553LNE0Q1,3KB8R4ZV1INYTDSH3BXIBST70G2BG0,2,1
247,3,object_05,object_02,625.24500000291,5,2,237.99499997403,0.2222222222222222,1,object_01,1,2904,0,2,4,library_8,2,memory-2step-stake-s,745,2967612,0.0-19.0-0.1-0.247,AWAHIWLMQ0HUQ,3YO4AH2FQG0L0WLRIP03W553LNE0Q1,3KB8R4ZV1INYTDSH3BXIBST70G2BG0,6,5
248,4,object_04,object_06,734.30999997072,8,2,239.58000005223,0.4444444444444444,2,object_07,5,2924,0,2,4,restaurant_6,2,memory-2step-stake-s,746,2975484,0.0-19.0-0.1-0.248,AWAHIWLMQ0HUQ,3YO4AH2FQG0L0WLRIP03W553LNE0Q1,3KB8R4ZV1INYTDSH3BXIBST70G2BG0,7,8
249,3,object_02,object_05,614.07000001054,6,2,360.37999996915,0.1111111111111111,2,object_07,1,2925,0,5,1,library_2,2,memory-2step-stake-s,747,2983170,0.0-19.0-0.1-0.249,AWAHIWLMQ0HUQ,3YO4AH2FQG0L0WLRIP03W553LNE0Q1,3KB8R4ZV1INYTDSH3BXIBST70G2BG0,5,6
250,4,object_04,object_06,579.3400000548,7,1,240.66999997012,0.4444444444444444,1,object_01,5,2945,0,4,3,restaurant_1,2,memory-2step-stake-s,748,2991042,0.0-19.0-0.1-0.250,AWAHIWLMQ0HUQ,3YO4AH2FQG0L0WLRIP03W553LNE0Q1,3KB8R4ZV1INYTDSH3BXIBST70G2BG0,7,8
251,4,object_06,object_04,556.72500003129,7,2,301.61000008229,0.4444444444444444,1,object_01,5,2965,0,4,6,restaurant_1,2,memory-2step-stake-s,749,2998973,0.0-19.0-0.1-0.251,AWAHIWLMQ0HUQ,3YO4AH2FQG0L0WLRIP03W553LNE0Q1,3KB8R4ZV1INYTDSH3BXIBST70G2BG0,8,7
252,3,object_02,object_05,571.58999994863,5,1,251.16999994498,0.1111111111111111,1,object_01,5,2970,0,1,8,library_2,2,memory-2step-stake-s,750,3006552,0.0-19.0-0.1-0.252,AWAHIWLMQ0HUQ,3YO4AH2FQG0L0WLRIP03W553LNE0Q1,3KB8R4ZV1INYTDSH3BXIBST70G2BG0,5,6
253,1,object_03,object_10,569.06499993056,1,2,342.26499998476,0.3333333333333333,1,object_01,5,2985,0,3,9,desert_3,2,memory-2step-stake-s,751,3014424,0.0-19.0-0.1-0.253,AWAHIWLMQ0HUQ,3YO4AH2FQG0L0WLRIP03W553LNE0Q1,3KB8R4ZV1INYTDSH3BXIBST70G2BG0,2,1
254,2,object_08,object_09,778.42500002589,4,1,568.16999998409,0.6666666666666666,2,object_07,5,3015,0,9,6,forest_2,2,memory-2step-stake-s,752,3022830,0.0-19.0-0.1-0.254,AWAHIWLMQ0HUQ,3YO4AH2FQG0L0WLRIP03W553LNE0Q1,3KB8R4ZV1INYTDSH3BXIBST70G2BG0,4,3
255,3,object_02,object_05,239.10500004422,6,2,358.66999998689,0.7777777777777778,2,object_07,1,3022,0,5,7,library_3,2,memory-2step-stake-s,753,3031123,0.0-19.0-0.1-0.255,AWAHIWLMQ0HUQ,3YO4AH2FQG0L0WLRIP03W553LNE0Q1,3KB8R4ZV1INYTDSH3BXIBST70G2BG0,5,6
