,state1,stim_left,stim_right,rt_1,choice1,response1,rt_2,points,state2,stim_state2,stake,score,practice,rews1,rews2,background,high_arm,trial_type,trial_index,time_elapsed,internal_node_id,subid,hitid,assignmentid,stim_left_num,stim_right_num
0,4,object_01,object_08,584.5,7,2,394.79999995232,0.0,1,object_03,5,0,0,0,2,restaurant_3,1,memory-2step-stake-s,499,1302150,0.0-19.0-0.0-0.0,A1Z3NTRGIUZ240,32CXT5U15JJVAEXBU2XNZL8A76W8U1,3RGU30DZTEO436MF268UMLWH47AMJR,8,7
1,1,object_05,object_07,633.80000019073,1,2,504.20000004768,0.1111111111111111,1,object_03,1,1,0,1,0,desert_3,1,memory-2step-stake-s,500,1309967,0.0-19.0-0.0-0.1,A1Z3NTRGIUZ240,32CXT5U15JJVAEXBU2XNZL8A76W8U1,3RGU30DZTEO436MF268UMLWH47AMJR,2,1
2,4,object_08,object_01,389.0,7,1,391.79999995232,0.0,1,object_03,5,1,0,0,3,restaurant_4,1,memory-2step-stake-s,501,1317574,0.0-19.0-0.0-0.2,A1Z3NTRGIUZ240,32CXT5U15JJVAEXBU2XNZL8A76W8U1,3RGU30DZTEO436MF268UMLWH47AMJR,7,8
3,4,object_08,object_01,580.09999990463,8,2,805.70000004768,0.5555555555555556,2,object_10,1,6,0,2,5,restaurant_1,1,memory-2step-stake-s,502,1326102,0.0-19.0-0.0-0.3,A1Z3NTRGIUZ240,32CXT5U15JJVAEXBU2XNZL8A76W8U1,3RGU30DZTEO436MF268UMLWH47AMJR,7,8
4,1,object_05,object_07,555.5,1,2,506.0,0.1111111111111111,1,object_03,1,7,0,1,3,desert_2,1,memory-2step-stake-s,503,1333924,0.0-19.0-0.0-0.4,A1Z3NTRGIUZ240,32CXT5U15JJVAEXBU2XNZL8A76W8U1,3RGU30DZTEO436MF268UMLWH47AMJR,2,1
5,1,object_07,object_05,566.89999985695,1,1,242.79999995232,0.1111111111111111,1,object_03,1,8,0,1,1,desert_5,1,memory-2step-stake-s,504,1341483,0.0-19.0-0.0-0.5,A1Z3NTRGIUZ240,32CXT5U15JJVAEXBU2XNZL8A76W8U1,3RGU30DZTEO436MF268UMLWH47AMJR,1,2
6,2,object_09,object_06,686.79999995232,4,1,361.60000014305,0.0,2,object_10,1,8,0,3,0,forest_8,1,memory-2step-stake-s,505,1349059,0.0-19.0-0.0-0.6,A1Z3NTRGIUZ240,32CXT5U15JJVAEXBU2XNZL8A76W8U1,3RGU30DZTEO436MF268UMLWH47AMJR,4,3
7,3,object_02,object_04,864.59999990463,6,2,291.5,0.1111111111111111,2,object_10,5,13,0,2,1,library_5,1,memory-2step-stake-s,506,1356664,0.0-19.0-0.0-0.7,A1Z3NTRGIUZ240,32CXT5U15JJVAEXBU2XNZL8A76W8U1,3RGU30DZTEO436MF268UMLWH47AMJR,5,6
8,4,object_01,object_08,811.5,8,1,414.29999995232,0.2222222222222222,2,object_10,5,23,0,3,2,restaurant_3,1,memory-2step-stake-s,507,1364496,0.0-19.0-0.0-0.8,A1Z3NTRGIUZ240,32CXT5U15JJVAEXBU2XNZL8A76W8U1,3RGU30DZTEO436MF268UMLWH47AMJR,8,7
9,1,object_07,object_05,665.29999995232,2,2,549.20000004768,0.2222222222222222,2,object_10,1,25,0,4,2,desert_3,1,memory-2step-stake-s,508,1372474,0.0-19.0-0.0-0.9,A1Z3NTRGIUZ240,32CXT5U15JJVAEXBU2XNZL8A76W8U1,3RGU30DZTEO436MF268UMLWH47AMJR,1,2
10,4,object_01,object_08,488.0,7,2,357.5,0.8888888888888888,1,object_03,5,65,0,8,1,restaurant_1,1,memory-2step-stake-s,509,1380858,0.0-19.0-0.0-0.10,A1Z3NTRGIUZ240,32CXT5U15JJVAEXBU2XNZL8A76W8U1,3RGU30DZTEO436MF268UMLWH47AMJR,8,7
11,4,object_08,object_01,598.90000009537,8,2,377.89999985695,0.0,2,object_10,5,65,0,5,0,restaurant_3,1,memory-2step-stake-s,510,1388447,0.0-19.0-0.0-0.11,A1Z3NTRGIUZ240,32CXT5U15JJVAEXBU2XNZL8A76W8U1,3RGU30DZTEO436MF268UMLWH47AMJR,7,8
12,3,object_04,object_02,626.5,5,2,372.29999995232,0.8888888888888888,1,object_03,5,105,0,8,0,library_6,1,memory-2step-stake-s,511,1396841,0.0-19.0-0.0-0.12,A1Z3NTRGIUZ240,32CXT5U15JJVAEXBU2XNZL8A76W8U1,3RGU30DZTEO436MF268UMLWH47AMJR,6,5
13,2,object_09,object_06,622.70000004768,3,2,405.20000004768,0.8888888888888888,1,object_03,1,113,0,8,2,forest_3,1,memory-2step-stake-s,512,1405282,0.0-19.0-0.0-0.13,A1Z3NTRGIUZ240,32CXT5U15JJVAEXBU2XNZL8A76W8U1,3RGU30DZTEO436MF268UMLWH47AMJR,4,3
14,3,object_02,object_04,542.70000004768,6,2,285.79999995232,0.1111111111111111,2,object_10,5,118,0,9,1,library_5,1,memory-2step-stake-s,513,1412891,0.0-19.0-0.0-0.14,A1Z3NTRGIUZ240,32CXT5U15JJVAEXBU2XNZL8A76W8U1,3RGU30DZTEO436MF268UMLWH47AMJR,5,6
15,3,object_04,object_02,669.70000004768,5,2,858.29999995232,0.7777777777777778,1,object_03,1,125,0,7,2,library_2,1,memory-2step-stake-s,514,1421673,0.0-19.0-0.0-0.15,A1Z3NTRGIUZ240,32CXT5U15JJVAEXBU2XNZL8A76W8U1,3RGU30DZTEO436MF268UMLWH47AMJR,6,5
16,3,object_04,object_02,541.20000004768,5,2,350.10000014305,0.6666666666666666,1,object_03,5,155,0,6,1,library_2,1,memory-2step-stake-s,515,1429847,0.0-19.0-0.0-0.16,A1Z3NTRGIUZ240,32CXT5U15JJVAEXBU2XNZL8A76W8U1,3RGU30DZTEO436MF268UMLWH47AMJR,6,5
17,4,object_08,object_01,546.60000014305,8,2,291.0,0.1111111111111111,2,object_10,5,160,0,4,1,restaurant_7,1,memory-2step-stake-s,516,1437450,0.0-19.0-0.0-0.17,A1Z3NTRGIUZ240,32CXT5U15JJVAEXBU2XNZL8A76W8U1,3RGU30DZTEO436MF268UMLWH47AMJR,7,8
18,3,object_02,object_04,663.20000004768,5,1,556.70000004768,0.5555555555555556,1,object_03,5,185,0,5,0,library_2,1,memory-2step-stake-s,517,1445728,0.0-19.0-0.0-0.18,A1Z3NTRGIUZ240,32CXT5U15JJVAEXBU2XNZL8A76W8U1,3RGU30DZTEO436MF268UMLWH47AMJR,5,6
19,3,object_04,object_02,470.39999985695,5,2,202.09999990463,0.6666666666666666,1,object_03,5,215,0,6,1,library_6,1,memory-2step-stake-s,518,1453750,0.0-19.0-0.0-0.19,A1Z3NTRGIUZ240,32CXT5U15JJVAEXBU2XNZL8A76W8U1,3RGU30DZTEO436MF268UMLWH47AMJR,6,5
20,3,object_04,object_02,484.20000004768,5,2,418.30000019073,0.7777777777777778,1,object_03,5,250,0,7,0,library_6,1,memory-2step-stake-s,519,1462089,0.0-19.0-0.0-0.20,A1Z3NTRGIUZ240,32CXT5U15JJVAEXBU2XNZL8A76W8U1,3RGU30DZTEO436MF268UMLWH47AMJR,6,5
21,4,object_08,object_01,-1.0,-1,-1,-1.0,0.0,-,0,1,250,0,9,0,restaurant_1,1,memory-2step-stake-s,520,1468597,0.0-19.0-0.0-0.21,A1Z3NTRGIUZ240,32CXT5U15JJVAEXBU2XNZL8A76W8U1,3RGU30DZTEO436MF268UMLWH47AMJR,7,8
22,4,object_01,object_08,281.29999995232,7,2,280.70000004768,0.7777777777777778,1,object_03,5,285,0,7,0,restaurant_1,1,memory-2step-stake-s,521,1476815,0.0-19.0-0.0-0.22,A1Z3NTRGIUZ240,32CXT5U15JJVAEXBU2XNZL8A76W8U1,3RGU30DZTEO436MF268UMLWH47AMJR,8,7
23,4,object_01,object_08,433.29999995232,7,2,250.59999990463,0.5555555555555556,1,object_03,5,310,0,5,2,restaurant_3,1,memory-2step-stake-s,522,1484789,0.0-19.0-0.0-0.23,A1Z3NTRGIUZ240,32CXT5U15JJVAEXBU2XNZL8A76W8U1,3RGU30DZTEO436MF268UMLWH47AMJR,8,7
24,2,object_09,object_06,385.40000009537,4,1,-1.0,0.0,2,object_10,1,310,0,2,1,forest_3,1,memory-2step-stake-s,523,1493313,0.0-19.0-0.0-0.24,A1Z3NTRGIUZ240,32CXT5U15JJVAEXBU2XNZL8A76W8U1,3RGU30DZTEO436MF268UMLWH47AMJR,4,3
25,1,object_05,object_07,402.10000014305,1,2,317.29999995232,0.1111111111111111,1,object_03,5,315,0,1,2,desert_2,1,memory-2step-stake-s,524,1500944,0.0-19.0-0.0-0.25,A1Z3NTRGIUZ240,32CXT5U15JJVAEXBU2XNZL8A76W8U1,3RGU30DZTEO436MF268UMLWH47AMJR,2,1
26,3,object_02,object_04,482.5,5,1,342.20000004768,0.4444444444444444,1,object_03,5,335,0,4,3,library_2,1,memory-2step-stake-s,525,1508915,0.0-19.0-0.0-0.26,A1Z3NTRGIUZ240,32CXT5U15JJVAEXBU2XNZL8A76W8U1,3RGU30DZTEO436MF268UMLWH47AMJR,5,6
27,3,object_04,object_02,508.10000014305,5,2,375.40000009537,0.5555555555555556,1,object_03,5,360,0,5,3,library_8,1,memory-2step-stake-s,526,1517020,0.0-19.0-0.0-0.27,A1Z3NTRGIUZ240,32CXT5U15JJVAEXBU2XNZL8A76W8U1,3RGU30DZTEO436MF268UMLWH47AMJR,6,5
28,3,object_02,object_04,265.0,5,1,317.09999990463,0.0,1,object_03,5,360,0,0,3,library_6,1,memory-2step-stake-s,527,1524551,0.0-19.0-0.0-0.28,A1Z3NTRGIUZ240,32CXT5U15JJVAEXBU2XNZL8A76W8U1,3RGU30DZTEO436MF268UMLWH47AMJR,5,6
29,2,object_06,object_09,323.0,4,2,425.29999995232,0.7777777777777778,2,object_10,5,395,0,1,7,forest_3,1,memory-2step-stake-s,528,1532896,0.0-19.0-0.0-0.29,A1Z3NTRGIUZ240,32CXT5U15JJVAEXBU2XNZL8A76W8U1,3RGU30DZTEO436MF268UMLWH47AMJR,3,4
30,1,object_07,object_05,289.40000009537,2,2,408.0,0.7777777777777778,2,object_10,1,402,0,4,7,desert_5,1,memory-2step-stake-s,529,1541222,0.0-19.0-0.0-0.30,A1Z3NTRGIUZ240,32CXT5U15JJVAEXBU2XNZL8A76W8U1,3RGU30DZTEO436MF268UMLWH47AMJR,1,2
31,1,object_07,object_05,385.60000014305,2,2,312.40000009537,0.5555555555555556,2,object_10,1,407,0,5,5,desert_4,1,memory-2step-stake-s,530,1549264,0.0-19.0-0.0-0.31,A1Z3NTRGIUZ240,32CXT5U15JJVAEXBU2XNZL8A76W8U1,3RGU30DZTEO436MF268UMLWH47AMJR,1,2
32,4,object_01,object_08,427.90000009537,7,2,479.59999990463,0.5555555555555556,1,object_03,1,412,0,5,4,restaurant_7,1,memory-2step-stake-s,531,1557465,0.0-19.0-0.0-0.32,A1Z3NTRGIUZ240,32CXT5U15JJVAEXBU2XNZL8A76W8U1,3RGU30DZTEO436MF268UMLWH47AMJR,8,7
33,3,object_02,object_04,1305.7000000477,5,1,577.19999980927,0.4444444444444444,1,object_03,5,432,0,4,2,library_8,1,memory-2step-stake-s,532,1565665,0.0-19.0-0.0-0.33,A1Z3NTRGIUZ240,32CXT5U15JJVAEXBU2XNZL8A76W8U1,3RGU30DZTEO436MF268UMLWH47AMJR,5,6
34,1,object_05,object_07,506.09999990463,1,2,471.90000009537,0.3333333333333333,1,object_03,1,435,0,3,0,desert_3,1,memory-2step-stake-s,533,1573653,0.0-19.0-0.0-0.34,A1Z3NTRGIUZ240,32CXT5U15JJVAEXBU2XNZL8A76W8U1,3RGU30DZTEO436MF268UMLWH47AMJR,2,1
35,3,object_04,object_02,752.5,5,2,358.0,0.1111111111111111,1,object_03,1,436,0,1,2,library_8,1,memory-2step-stake-s,534,1581324,0.0-19.0-0.0-0.35,A1Z3NTRGIUZ240,32CXT5U15JJVAEXBU2XNZL8A76W8U1,3RGU30DZTEO436MF268UMLWH47AMJR,6,5
36,4,object_08,object_01,503.29999995232,7,1,438.39999985695,0.1111111111111111,1,object_03,5,441,0,1,4,restaurant_3,1,memory-2step-stake-s,535,1589073,0.0-19.0-0.0-0.36,A1Z3NTRGIUZ240,32CXT5U15JJVAEXBU2XNZL8A76W8U1,3RGU30DZTEO436MF268UMLWH47AMJR,7,8
37,1,object_05,object_07,324.0,2,1,342.79999995232,0.1111111111111111,2,object_10,5,446,0,2,1,desert_2,1,memory-2step-stake-s,536,1596732,0.0-19.0-0.0-0.37,A1Z3NTRGIUZ240,32CXT5U15JJVAEXBU2XNZL8A76W8U1,3RGU30DZTEO436MF268UMLWH47AMJR,2,1
38,3,object_04,object_02,178.40000009537,6,1,486.90000009537,0.1111111111111111,2,object_10,1,447,0,3,1,library_2,1,memory-2step-stake-s,537,1604554,0.0-19.0-0.0-0.38,A1Z3NTRGIUZ240,32CXT5U15JJVAEXBU2XNZL8A76W8U1,3RGU30DZTEO436MF268UMLWH47AMJR,6,5
39,2,object_06,object_09,321.5,4,2,233.0,0.2222222222222222,2,object_10,5,457,0,4,2,forest_2,1,memory-2step-stake-s,538,1612202,0.0-19.0-0.0-0.39,A1Z3NTRGIUZ240,32CXT5U15JJVAEXBU2XNZL8A76W8U1,3RGU30DZTEO436MF268UMLWH47AMJR,3,4
40,2,object_09,object_06,80.400000095367,4,1,294.90000009537,0.1111111111111111,2,object_10,1,458,0,3,1,forest_3,1,memory-2step-stake-s,539,1619809,0.0-19.0-0.0-0.40,A1Z3NTRGIUZ240,32CXT5U15JJVAEXBU2XNZL8A76W8U1,3RGU30DZTEO436MF268UMLWH47AMJR,4,3
41,3,object_04,object_02,253.59999990463,5,2,402.5,0.1111111111111111,1,object_03,1,459,0,1,0,library_8,1,memory-2step-stake-s,540,1627532,0.0-19.0-0.0-0.41,A1Z3NTRGIUZ240,32CXT5U15JJVAEXBU2XNZL8A76W8U1,3RGU30DZTEO436MF268UMLWH47AMJR,6,5
42,2,object_06,object_09,761.29999995232,3,1,373.0,0.1111111111111111,1,object_03,1,460,0,1,1,forest_6,1,memory-2step-stake-s,541,1635234,0.0-19.0-0.0-0.42,A1Z3NTRGIUZ240,32CXT5U15JJVAEXBU2XNZL8A76W8U1,3RGU30DZTEO436MF268UMLWH47AMJR,3,4
43,1,object_07,object_05,520.40000009537,2,2,356.80000019073,0.0,2,object_10,1,460,0,2,0,desert_4,1,memory-2step-stake-s,542,1642800,0.0-19.0-0.0-0.43,A1Z3NTRGIUZ240,32CXT5U15JJVAEXBU2XNZL8A76W8U1,3RGU30DZTEO436MF268UMLWH47AMJR,1,2
44,1,object_05,object_07,225.19999980927,1,2,426.89999985695,0.4444444444444444,1,object_03,1,464,0,4,2,desert_4,1,memory-2step-stake-s,543,1650844,0.0-19.0-0.0-0.44,A1Z3NTRGIUZ240,32CXT5U15JJVAEXBU2XNZL8A76W8U1,3RGU30DZTEO436MF268UMLWH47AMJR,2,1
45,4,object_01,object_08,233.0,7,2,222.70000004768,0.4444444444444444,1,object_03,5,484,0,4,2,restaurant_7,1,memory-2step-stake-s,544,1658697,0.0-19.0-0.0-0.45,A1Z3NTRGIUZ240,32CXT5U15JJVAEXBU2XNZL8A76W8U1,3RGU30DZTEO436MF268UMLWH47AMJR,8,7
46,3,object_02,object_04,503.0,6,2,414.40000009537,0.1111111111111111,2,object_10,5,489,0,7,1,library_5,1,memory-2step-stake-s,545,1666427,0.0-19.0-0.0-0.46,A1Z3NTRGIUZ240,32CXT5U15JJVAEXBU2XNZL8A76W8U1,3RGU30DZTEO436MF268UMLWH47AMJR,5,6
47,4,object_01,object_08,535.10000014305,7,2,205.0,0.5555555555555556,1,object_03,5,514,0,5,2,restaurant_1,1,memory-2step-stake-s,546,1674356,0.0-19.0-0.0-0.47,A1Z3NTRGIUZ240,32CXT5U15JJVAEXBU2XNZL8A76W8U1,3RGU30DZTEO436MF268UMLWH47AMJR,8,7
48,1,object_05,object_07,487.90000009537,2,1,368.70000004768,0.0,2,object_10,1,514,0,6,0,desert_4,1,memory-2step-stake-s,547,1681941,0.0-19.0-0.0-0.48,A1Z3NTRGIUZ240,32CXT5U15JJVAEXBU2XNZL8A76W8U1,3RGU30DZTEO436MF268UMLWH47AMJR,2,1
49,4,object_08,object_01,524.09999990463,8,2,390.70000004768,0.0,2,object_10,5,514,0,6,0,restaurant_1,1,memory-2step-stake-s,548,1689543,0.0-19.0-0.0-0.49,A1Z3NTRGIUZ240,32CXT5U15JJVAEXBU2XNZL8A76W8U1,3RGU30DZTEO436MF268UMLWH47AMJR,7,8
50,4,object_01,object_08,237.5,8,1,354.60000014305,0.1111111111111111,2,object_10,1,515,0,9,1,restaurant_7,1,memory-2step-stake-s,549,1697212,0.0-19.0-0.0-0.50,A1Z3NTRGIUZ240,32CXT5U15JJVAEXBU2XNZL8A76W8U1,3RGU30DZTEO436MF268UMLWH47AMJR,8,7
51,4,object_08,object_01,559.89999985695,8,2,976.20000004768,0.3333333333333333,2,object_10,5,530,0,7,3,restaurant_4,1,memory-2step-stake-s,550,1705713,0.0-19.0-0.0-0.51,A1Z3NTRGIUZ240,32CXT5U15JJVAEXBU2XNZL8A76W8U1,3RGU30DZTEO436MF268UMLWH47AMJR,7,8
52,4,object_08,object_01,437.0,8,2,568.5,0.7777777777777778,2,object_10,5,565,0,7,7,restaurant_3,1,memory-2step-stake-s,551,1714209,0.0-19.0-0.0-0.52,A1Z3NTRGIUZ240,32CXT5U15JJVAEXBU2XNZL8A76W8U1,3RGU30DZTEO436MF268UMLWH47AMJR,7,8
53,1,object_05,object_07,231.09999990463,2,1,394.09999990463,1.0,2,object_10,1,574,0,9,9,desert_3,1,memory-2step-stake-s,552,1722726,0.0-19.0-0.0-0.53,A1Z3NTRGIUZ240,32CXT5U15JJVAEXBU2XNZL8A76W8U1,3RGU30DZTEO436MF268UMLWH47AMJR,2,1
54,3,object_02,object_04,597.29999995232,6,2,482.29999995232,0.8888888888888888,2,object_10,5,614,0,9,8,library_6,1,memory-2step-stake-s,553,1731230,0.0-19.0-0.0-0.54,A1Z3NTRGIUZ240,32CXT5U15JJVAEXBU2XNZL8A76W8U1,3RGU30DZTEO436MF268UMLWH47AMJR,5,6
55,3,object_04,object_02,336.70000004768,5,2,375.89999985695,0.6666666666666666,1,object_03,5,644,0,6,8,library_2,1,memory-2step-stake-s,554,1739425,0.0-19.0-0.0-0.55,A1Z3NTRGIUZ240,32CXT5U15JJVAEXBU2XNZL8A76W8U1,3RGU30DZTEO436MF268UMLWH47AMJR,6,5
56,3,object_02,object_04,506.70000004768,6,2,301.40000009537,0.8888888888888888,2,object_10,5,684,0,4,8,library_6,1,memory-2step-stake-s,555,1747746,0.0-19.0-0.0-0.56,A1Z3NTRGIUZ240,32CXT5U15JJVAEXBU2XNZL8A76W8U1,3RGU30DZTEO436MF268UMLWH47AMJR,5,6
57,3,object_02,object_04,292.70000004768,5,1,682.40000009537,0.3333333333333333,1,object_03,5,699,0,3,6,library_6,1,memory-2step-stake-s,556,1755943,0.0-19.0-0.0-0.57,A1Z3NTRGIUZ240,32CXT5U15JJVAEXBU2XNZL8A76W8U1,3RGU30DZTEO436MF268UMLWH47AMJR,5,6
58,1,object_05,object_07,451.59999990463,2,1,-1.0,0.0,2,object_10,1,699,0,3,4,desert_2,1,memory-2step-stake-s,557,1764458,0.0-19.0-0.0-0.58,A1Z3NTRGIUZ240,32CXT5U15JJVAEXBU2XNZL8A76W8U1,3RGU30DZTEO436MF268UMLWH47AMJR,2,1
59,1,object_07,object_05,365.69999980927,1,1,2.3000001907349,0.4444444444444444,1,object_03,1,703,0,4,3,desert_5,1,memory-2step-stake-s,558,1772081,0.0-19.0-0.0-0.59,A1Z3NTRGIUZ240,32CXT5U15JJVAEXBU2XNZL8A76W8U1,3RGU30DZTEO436MF268UMLWH47AMJR,1,2
60,4,object_01,object_08,235.70000004768,8,1,466.09999990463,0.3333333333333333,2,object_10,1,706,0,3,3,restaurant_3,1,memory-2step-stake-s,559,1780062,0.0-19.0-0.0-0.60,A1Z3NTRGIUZ240,32CXT5U15JJVAEXBU2XNZL8A76W8U1,3RGU30DZTEO436MF268UMLWH47AMJR,8,7
61,2,object_06,object_09,202.40000009537,3,1,1296.6999998093,0.4444444444444444,1,object_03,1,710,0,4,4,forest_3,1,memory-2step-stake-s,560,1788977,0.0-19.0-0.0-0.61,A1Z3NTRGIUZ240,32CXT5U15JJVAEXBU2XNZL8A76W8U1,3RGU30DZTEO436MF268UMLWH47AMJR,3,4
62,3,object_04,object_02,713.20000004768,6,1,330.89999985695,0.1111111111111111,2,object_10,5,715,0,5,1,library_8,1,memory-2step-stake-s,561,1796622,0.0-19.0-0.0-0.62,A1Z3NTRGIUZ240,32CXT5U15JJVAEXBU2XNZL8A76W8U1,3RGU30DZTEO436MF268UMLWH47AMJR,6,5
63,2,object_06,object_09,507.20000004768,3,1,397.09999990463,0.6666666666666666,1,object_03,5,745,0,6,5,forest_2,1,memory-2step-stake-s,562,1804839,0.0-19.0-0.0-0.63,A1Z3NTRGIUZ240,32CXT5U15JJVAEXBU2XNZL8A76W8U1,3RGU30DZTEO436MF268UMLWH47AMJR,3,4
64,1,object_07,object_05,382.10000014305,2,2,340.29999995232,0.7777777777777778,2,object_10,5,780,0,4,7,desert_4,1,memory-2step-stake-s,563,1813122,0.0-19.0-0.0-0.64,A1Z3NTRGIUZ240,32CXT5U15JJVAEXBU2XNZL8A76W8U1,3RGU30DZTEO436MF268UMLWH47AMJR,1,2
65,3,object_02,object_04,537.29999995232,5,1,416.5,0.3333333333333333,1,object_03,5,795,0,3,7,library_2,1,memory-2step-stake-s,564,1821055,0.0-19.0-0.0-0.65,A1Z3NTRGIUZ240,32CXT5U15JJVAEXBU2XNZL8A76W8U1,3RGU30DZTEO436MF268UMLWH47AMJR,5,6
66,2,object_09,object_06,780.70000004768,3,2,562.09999990463,0.4444444444444444,1,object_03,1,799,0,4,6,forest_8,1,memory-2step-stake-s,565,1829234,0.0-19.0-0.0-0.66,A1Z3NTRGIUZ240,32CXT5U15JJVAEXBU2XNZL8A76W8U1,3RGU30DZTEO436MF268UMLWH47AMJR,4,3
67,3,object_04,object_02,248.90000009537,6,1,478.59999990463,0.5555555555555556,2,object_10,5,824,0,2,5,library_5,1,memory-2step-stake-s,566,1837431,0.0-19.0-0.0-0.67,A1Z3NTRGIUZ240,32CXT5U15JJVAEXBU2XNZL8A76W8U1,3RGU30DZTEO436MF268UMLWH47AMJR,6,5
68,3,object_04,object_02,229.79999995232,6,1,497.70000004768,0.0,2,object_10,5,824,0,4,0,library_8,1,memory-2step-stake-s,567,1845152,0.0-19.0-0.0-0.68,A1Z3NTRGIUZ240,32CXT5U15JJVAEXBU2XNZL8A76W8U1,3RGU30DZTEO436MF268UMLWH47AMJR,6,5
69,2,object_09,object_06,648.5,3,2,390.29999995232,0.6666666666666666,1,object_03,1,830,0,6,1,forest_6,1,memory-2step-stake-s,568,1853361,0.0-19.0-0.0-0.69,A1Z3NTRGIUZ240,32CXT5U15JJVAEXBU2XNZL8A76W8U1,3RGU30DZTEO436MF268UMLWH47AMJR,4,3
70,1,object_07,object_05,231.60000014305,1,1,645.09999990463,0.8888888888888888,1,object_03,5,870,0,8,1,desert_2,1,memory-2step-stake-s,569,1862030,0.0-19.0-0.0-0.70,A1Z3NTRGIUZ240,32CXT5U15JJVAEXBU2XNZL8A76W8U1,3RGU30DZTEO436MF268UMLWH47AMJR,1,2
71,4,object_08,object_01,223.79999995232,8,2,579.09999990463,0.1111111111111111,2,object_10,5,875,0,5,1,restaurant_3,1,memory-2step-stake-s,570,1869949,0.0-19.0-0.0-0.71,A1Z3NTRGIUZ240,32CXT5U15JJVAEXBU2XNZL8A76W8U1,3RGU30DZTEO436MF268UMLWH47AMJR,7,8
72,4,object_08,object_01,270.09999990463,7,1,532.19999980927,0.4444444444444444,1,object_03,5,895,0,4,1,restaurant_4,1,memory-2step-stake-s,571,1878100,0.0-19.0-0.0-0.72,A1Z3NTRGIUZ240,32CXT5U15JJVAEXBU2XNZL8A76W8U1,3RGU30DZTEO436MF268UMLWH47AMJR,7,8
73,2,object_06,object_09,95.200000047684,3,1,415.39999985695,0.3333333333333333,1,object_03,5,910,0,3,1,forest_2,1,memory-2step-stake-s,572,1886029,0.0-19.0-0.0-0.73,A1Z3NTRGIUZ240,32CXT5U15JJVAEXBU2XNZL8A76W8U1,3RGU30DZTEO436MF268UMLWH47AMJR,3,4
74,3,object_04,object_02,237.59999990463,5,2,705.59999990463,0.4444444444444444,1,object_03,5,930,0,4,0,library_5,1,memory-2step-stake-s,573,1894352,0.0-19.0-0.0-0.74,A1Z3NTRGIUZ240,32CXT5U15JJVAEXBU2XNZL8A76W8U1,3RGU30DZTEO436MF268UMLWH47AMJR,6,5
75,3,object_02,object_04,146.59999990463,6,2,36.799999952316,0.3333333333333333,2,object_10,5,945,0,4,3,library_8,1,memory-2step-stake-s,574,1901912,0.0-19.0-0.0-0.75,A1Z3NTRGIUZ240,32CXT5U15JJVAEXBU2XNZL8A76W8U1,3RGU30DZTEO436MF268UMLWH47AMJR,5,6
76,4,object_01,object_08,132.69999980927,8,1,487.0,0.5555555555555556,2,object_10,5,970,0,3,5,restaurant_1,1,memory-2step-stake-s,575,1910121,0.0-19.0-0.0-0.76,A1Z3NTRGIUZ240,32CXT5U15JJVAEXBU2XNZL8A76W8U1,3RGU30DZTEO436MF268UMLWH47AMJR,8,7
77,2,object_09,object_06,219.79999995232,3,2,372.5,0.3333333333333333,1,object_03,1,973,0,3,7,forest_6,1,memory-2step-stake-s,576,1918007,0.0-19.0-0.0-0.77,A1Z3NTRGIUZ240,32CXT5U15JJVAEXBU2XNZL8A76W8U1,3RGU30DZTEO436MF268UMLWH47AMJR,4,3
78,1,object_05,object_07,178.30000019073,2,1,344.29999995232,0.6666666666666666,2,object_10,1,979,0,2,6,desert_3,1,memory-2step-stake-s,577,1926170,0.0-19.0-0.0-0.78,A1Z3NTRGIUZ240,32CXT5U15JJVAEXBU2XNZL8A76W8U1,3RGU30DZTEO436MF268UMLWH47AMJR,2,1
79,1,object_05,object_07,438.60000014305,2,1,394.70000004768,0.5555555555555556,2,object_10,5,1004,0,4,5,desert_3,1,memory-2step-stake-s,578,1934283,0.0-19.0-0.0-0.79,A1Z3NTRGIUZ240,32CXT5U15JJVAEXBU2XNZL8A76W8U1,3RGU30DZTEO436MF268UMLWH47AMJR,2,1
80,1,object_05,object_07,380.59999990463,1,2,409.59999990463,0.5555555555555556,1,object_03,1,1009,0,5,4,desert_2,1,memory-2step-stake-s,579,1942413,0.0-19.0-0.0-0.80,A1Z3NTRGIUZ240,32CXT5U15JJVAEXBU2XNZL8A76W8U1,3RGU30DZTEO436MF268UMLWH47AMJR,2,1
81,4,object_01,object_08,317.70000004768,8,1,369.70000004768,0.1111111111111111,2,object_10,5,1014,0,7,1,restaurant_4,1,memory-2step-stake-s,580,1950096,0.0-19.0-0.0-0.81,A1Z3NTRGIUZ240,32CXT5U15JJVAEXBU2XNZL8A76W8U1,3RGU30DZTEO436MF268UMLWH47AMJR,8,7
82,1,object_05,object_07,292.20000004768,2,1,844.29999995232,0.1111111111111111,2,object_10,1,1015,0,6,1,desert_3,1,memory-2step-stake-s,581,1958256,0.0-19.0-0.0-0.82,A1Z3NTRGIUZ240,32CXT5U15JJVAEXBU2XNZL8A76W8U1,3RGU30DZTEO436MF268UMLWH47AMJR,2,1
83,4,object_01,object_08,1064.7000000477,8,1,-1.0,0.0,2,object_10,5,1015,0,6,2,restaurant_4,1,memory-2step-stake-s,582,1966772,0.0-19.0-0.0-0.83,A1Z3NTRGIUZ240,32CXT5U15JJVAEXBU2XNZL8A76W8U1,3RGU30DZTEO436MF268UMLWH47AMJR,8,7
84,2,object_09,object_06,840.09999990463,4,1,356.79999995232,0.3333333333333333,2,object_10,1,1018,0,7,3,forest_2,1,memory-2step-stake-s,583,1974648,0.0-19.0-0.0-0.84,A1Z3NTRGIUZ240,32CXT5U15JJVAEXBU2XNZL8A76W8U1,3RGU30DZTEO436MF268UMLWH47AMJR,4,3
85,3,object_04,object_02,88.5,5,2,385.79999995232,0.6666666666666666,1,object_03,5,1048,0,6,2,library_8,1,memory-2step-stake-s,584,1982853,0.0-19.0-0.0-0.85,A1Z3NTRGIUZ240,32CXT5U15JJVAEXBU2XNZL8A76W8U1,3RGU30DZTEO436MF268UMLWH47AMJR,6,5
86,2,object_06,object_09,303.10000014305,3,1,434.20000004768,0.5555555555555556,1,object_03,1,1053,0,5,1,forest_8,1,memory-2step-stake-s,585,1991021,0.0-19.0-0.0-0.86,A1Z3NTRGIUZ240,32CXT5U15JJVAEXBU2XNZL8A76W8U1,3RGU30DZTEO436MF268UMLWH47AMJR,3,4
87,4,object_01,object_08,310.89999985695,8,1,518.5,0.1111111111111111,2,object_10,5,1058,0,5,1,restaurant_3,1,memory-2step-stake-s,586,1998856,0.0-19.0-0.0-0.87,A1Z3NTRGIUZ240,32CXT5U15JJVAEXBU2XNZL8A76W8U1,3RGU30DZTEO436MF268UMLWH47AMJR,8,7
88,3,object_02,object_04,193.59999990463,6,2,490.09999990463,0.1111111111111111,2,object_10,1,1059,0,5,1,library_8,1,memory-2step-stake-s,587,2006657,0.0-19.0-0.0-0.88,A1Z3NTRGIUZ240,32CXT5U15JJVAEXBU2XNZL8A76W8U1,3RGU30DZTEO436MF268UMLWH47AMJR,5,6
89,2,object_06,object_09,243.0,3,1,583.10000014305,0.5555555555555556,1,object_03,1,1064,0,5,0,forest_2,1,memory-2step-stake-s,588,2014959,0.0-19.0-0.0-0.89,A1Z3NTRGIUZ240,32CXT5U15JJVAEXBU2XNZL8A76W8U1,3RGU30DZTEO436MF268UMLWH47AMJR,3,4
90,1,object_07,object_05,290.60000014305,1,1,915.20000004768,0.5555555555555556,1,object_03,1,1069,0,5,1,desert_2,1,memory-2step-stake-s,589,2023606,0.0-19.0-0.0-0.90,A1Z3NTRGIUZ240,32CXT5U15JJVAEXBU2XNZL8A76W8U1,3RGU30DZTEO436MF268UMLWH47AMJR,1,2
91,1,object_05,object_07,513.0,2,1,1464.2000000477,0.1111111111111111,2,object_10,1,1070,0,5,1,desert_4,1,memory-2step-stake-s,590,2032395,0.0-19.0-0.0-0.91,A1Z3NTRGIUZ240,32CXT5U15JJVAEXBU2XNZL8A76W8U1,3RGU30DZTEO436MF268UMLWH47AMJR,2,1
92,4,object_01,object_08,266.40000009537,8,1,446.79999995232,0.1111111111111111,2,object_10,5,1075,0,5,1,restaurant_3,1,memory-2step-stake-s,591,2040153,0.0-19.0-0.0-0.92,A1Z3NTRGIUZ240,32CXT5U15JJVAEXBU2XNZL8A76W8U1,3RGU30DZTEO436MF268UMLWH47AMJR,8,7
93,4,object_08,object_01,151.29999995232,7,1,-1.0,0.0,1,object_03,1,1075,0,8,0,restaurant_4,1,memory-2step-stake-s,592,2048667,0.0-19.0-0.0-0.93,A1Z3NTRGIUZ240,32CXT5U15JJVAEXBU2XNZL8A76W8U1,3RGU30DZTEO436MF268UMLWH47AMJR,7,8
94,2,object_09,object_06,375.89999985695,4,1,425.79999995232,0.2222222222222222,2,object_10,1,1077,0,9,2,forest_6,1,memory-2step-stake-s,593,2056507,0.0-19.0-0.0-0.94,A1Z3NTRGIUZ240,32CXT5U15JJVAEXBU2XNZL8A76W8U1,3RGU30DZTEO436MF268UMLWH47AMJR,4,3
95,2,object_06,object_09,191.5,4,2,452.29999995232,0.3333333333333333,2,object_10,1,1080,0,7,3,forest_6,1,memory-2step-stake-s,594,2064472,0.0-19.0-0.0-0.95,A1Z3NTRGIUZ240,32CXT5U15JJVAEXBU2XNZL8A76W8U1,3RGU30DZTEO436MF268UMLWH47AMJR,3,4
96,1,object_07,object_05,261.20000004768,1,1,572.19999980927,0.7777777777777778,1,object_03,1,1087,0,7,0,desert_4,1,memory-2step-stake-s,595,2072964,0.0-19.0-0.0-0.96,A1Z3NTRGIUZ240,32CXT5U15JJVAEXBU2XNZL8A76W8U1,3RGU30DZTEO436MF268UMLWH47AMJR,1,2
97,2,object_09,object_06,456.30000019073,3,2,417.39999985695,0.5555555555555556,1,object_03,1,1092,0,5,0,forest_2,1,memory-2step-stake-s,596,2081103,0.0-19.0-0.0-0.97,A1Z3NTRGIUZ240,32CXT5U15JJVAEXBU2XNZL8A76W8U1,3RGU30DZTEO436MF268UMLWH47AMJR,4,3
98,1,object_07,object_05,251.79999995232,1,1,-1.0,0.0,1,object_03,1,1092,0,4,1,desert_3,1,memory-2step-stake-s,597,2089616,0.0-19.0-0.0-0.98,A1Z3NTRGIUZ240,32CXT5U15JJVAEXBU2XNZL8A76W8U1,3RGU30DZTEO436MF268UMLWH47AMJR,1,2
99,4,object_08,object_01,291.59999990463,8,2,427.29999995232,0.3333333333333333,2,object_10,5,1107,0,4,3,restaurant_7,1,memory-2step-stake-s,598,2097560,0.0-19.0-0.0-0.99,A1Z3NTRGIUZ240,32CXT5U15JJVAEXBU2XNZL8A76W8U1,3RGU30DZTEO436MF268UMLWH47AMJR,7,8
100,4,object_08,object_01,412.0,8,2,446.0,0.1111111111111111,2,object_10,5,1112,0,7,1,restaurant_3,1,memory-2step-stake-s,599,2105320,0.0-19.0-0.0-0.100,A1Z3NTRGIUZ240,32CXT5U15JJVAEXBU2XNZL8A76W8U1,3RGU30DZTEO436MF268UMLWH47AMJR,7,8
101,1,object_05,object_07,583.40000009537,1,2,394.0,0.6666666666666666,1,object_03,1,1118,0,6,3,desert_4,1,memory-2step-stake-s,600,2113543,0.0-19.0-0.0-0.101,A1Z3NTRGIUZ240,32CXT5U15JJVAEXBU2XNZL8A76W8U1,3RGU30DZTEO436MF268UMLWH47AMJR,2,1
102,4,object_08,object_01,301.40000009537,8,2,321.10000014305,0.2222222222222222,2,object_10,5,1128,0,4,2,restaurant_1,1,memory-2step-stake-s,601,2121279,0.0-19.0-0.0-0.102,A1Z3NTRGIUZ240,32CXT5U15JJVAEXBU2XNZL8A76W8U1,3RGU30DZTEO436MF268UMLWH47AMJR,7,8
103,2,object_06,object_09,309.59999990463,4,2,356.30000019073,0.0,2,object_10,1,1128,0,4,0,forest_6,1,memory-2step-stake-s,602,2128846,0.0-19.0-0.0-0.103,A1Z3NTRGIUZ240,32CXT5U15JJVAEXBU2XNZL8A76W8U1,3RGU30DZTEO436MF268UMLWH47AMJR,3,4
104,2,object_09,object_06,401.59999990463,3,2,383.20000004768,0.3333333333333333,1,object_03,1,1131,0,3,2,forest_8,1,memory-2step-stake-s,603,2136743,0.0-19.0-0.0-0.104,A1Z3NTRGIUZ240,32CXT5U15JJVAEXBU2XNZL8A76W8U1,3RGU30DZTEO436MF268UMLWH47AMJR,4,3
105,3,object_02,object_04,829.70000004768,5,1,341.79999995232,0.3333333333333333,1,object_03,5,1146,0,3,1,library_5,1,memory-2step-stake-s,604,2144601,0.0-19.0-0.0-0.105,A1Z3NTRGIUZ240,32CXT5U15JJVAEXBU2XNZL8A76W8U1,3RGU30DZTEO436MF268UMLWH47AMJR,5,6
106,1,object_05,object_07,683.29999995232,2,1,785.40000009537,0.0,2,object_10,1,1146,0,7,0,desert_5,1,memory-2step-stake-s,605,2152599,0.0-19.0-0.0-0.106,A1Z3NTRGIUZ240,32CXT5U15JJVAEXBU2XNZL8A76W8U1,3RGU30DZTEO436MF268UMLWH47AMJR,2,1
107,4,object_08,object_01,480.29999995232,8,2,350.0,0.1111111111111111,2,object_10,5,1151,0,5,1,restaurant_1,1,memory-2step-stake-s,606,2160261,0.0-19.0-0.0-0.107,A1Z3NTRGIUZ240,32CXT5U15JJVAEXBU2XNZL8A76W8U1,3RGU30DZTEO436MF268UMLWH47AMJR,7,8
108,3,object_02,object_04,313.40000009537,5,1,410.80000019073,0.6666666666666666,1,object_03,5,1181,0,6,4,library_5,1,memory-2step-stake-s,607,2168488,0.0-19.0-0.0-0.108,A1Z3NTRGIUZ240,32CXT5U15JJVAEXBU2XNZL8A76W8U1,3RGU30DZTEO436MF268UMLWH47AMJR,5,6
109,2,object_09,object_06,519.59999990463,3,2,502.60000014305,0.7777777777777778,1,object_03,1,1188,0,7,3,forest_8,1,memory-2step-stake-s,608,2176928,0.0-19.0-0.0-0.109,A1Z3NTRGIUZ240,32CXT5U15JJVAEXBU2XNZL8A76W8U1,3RGU30DZTEO436MF268UMLWH47AMJR,4,3
110,1,object_05,object_07,759.5,1,2,579.5,0.8888888888888888,1,object_03,1,1196,0,8,3,desert_3,1,memory-2step-stake-s,609,2185532,0.0-19.0-0.0-0.110,A1Z3NTRGIUZ240,32CXT5U15JJVAEXBU2XNZL8A76W8U1,3RGU30DZTEO436MF268UMLWH47AMJR,2,1
111,4,object_01,object_08,269.39999985695,8,1,414.29999995232,0.1111111111111111,2,object_10,5,1201,0,8,1,restaurant_1,1,memory-2step-stake-s,610,2193261,0.0-19.0-0.0-0.111,A1Z3NTRGIUZ240,32CXT5U15JJVAEXBU2XNZL8A76W8U1,3RGU30DZTEO436MF268UMLWH47AMJR,8,7
112,4,object_01,object_08,707.5,8,1,241.69999980927,0.3333333333333333,2,object_10,5,1216,0,6,3,restaurant_4,1,memory-2step-stake-s,611,2201021,0.0-19.0-0.0-0.112,A1Z3NTRGIUZ240,32CXT5U15JJVAEXBU2XNZL8A76W8U1,3RGU30DZTEO436MF268UMLWH47AMJR,8,7
113,2,object_06,object_09,286.29999995232,3,1,268.5,0.5555555555555556,1,object_03,1,1221,0,5,2,forest_3,1,memory-2step-stake-s,612,2209009,0.0-19.0-0.0-0.113,A1Z3NTRGIUZ240,32CXT5U15JJVAEXBU2XNZL8A76W8U1,3RGU30DZTEO436MF268UMLWH47AMJR,3,4
114,2,object_06,object_09,725.79999995232,3,1,238.09999990463,0.6666666666666666,1,object_03,5,1251,0,6,0,forest_8,1,memory-2step-stake-s,613,2217089,0.0-19.0-0.0-0.114,A1Z3NTRGIUZ240,32CXT5U15JJVAEXBU2XNZL8A76W8U1,3RGU30DZTEO436MF268UMLWH47AMJR,3,4
115,2,object_06,object_09,465.59999990463,3,1,616.70000004768,0.5555555555555556,1,object_03,1,1256,0,5,0,forest_8,1,memory-2step-stake-s,614,2225426,0.0-19.0-0.0-0.115,A1Z3NTRGIUZ240,32CXT5U15JJVAEXBU2XNZL8A76W8U1,3RGU30DZTEO436MF268UMLWH47AMJR,3,4
116,3,object_04,object_02,788.60000014305,5,2,319.29999995232,0.6666666666666666,1,object_03,5,1286,0,6,2,library_5,1,memory-2step-stake-s,615,2233579,0.0-19.0-0.0-0.116,A1Z3NTRGIUZ240,32CXT5U15JJVAEXBU2XNZL8A76W8U1,3RGU30DZTEO436MF268UMLWH47AMJR,6,5
117,4,object_01,object_08,678.70000004768,7,2,605.20000004768,0.7777777777777778,1,object_03,5,1321,0,7,4,restaurant_1,1,memory-2step-stake-s,616,2242120,0.0-19.0-0.0-0.117,A1Z3NTRGIUZ240,32CXT5U15JJVAEXBU2XNZL8A76W8U1,3RGU30DZTEO436MF268UMLWH47AMJR,8,7
118,4,object_08,object_01,724.5,7,1,444.40000009537,0.7777777777777778,1,object_03,5,1356,0,7,5,restaurant_1,1,memory-2step-stake-s,617,2250484,0.0-19.0-0.0-0.118,A1Z3NTRGIUZ240,32CXT5U15JJVAEXBU2XNZL8A76W8U1,3RGU30DZTEO436MF268UMLWH47AMJR,7,8
119,1,object_07,object_05,682.20000004768,2,2,358.5,0.3333333333333333,2,object_10,1,1359,0,8,3,desert_3,1,memory-2step-stake-s,618,2258372,0.0-19.0-0.0-0.119,A1Z3NTRGIUZ240,32CXT5U15JJVAEXBU2XNZL8A76W8U1,3RGU30DZTEO436MF268UMLWH47AMJR,1,2
120,2,object_06,object_09,731.0,3,1,227.90000009537,0.7777777777777778,1,object_03,5,1394,0,7,4,forest_6,1,memory-2step-stake-s,619,2266532,0.0-19.0-0.0-0.120,A1Z3NTRGIUZ240,32CXT5U15JJVAEXBU2XNZL8A76W8U1,3RGU30DZTEO436MF268UMLWH47AMJR,3,4
121,1,object_05,object_07,668.70000004768,1,2,430.79999995232,0.3333333333333333,1,object_03,1,1397,0,3,3,desert_2,1,memory-2step-stake-s,620,2274483,0.0-19.0-0.0-0.121,A1Z3NTRGIUZ240,32CXT5U15JJVAEXBU2XNZL8A76W8U1,3RGU30DZTEO436MF268UMLWH47AMJR,2,1
122,2,object_09,object_06,590.10000014305,3,2,298.89999985695,0.6666666666666666,1,object_03,5,1427,0,6,4,forest_6,1,memory-2step-stake-s,621,2282629,0.0-19.0-0.0-0.122,A1Z3NTRGIUZ240,32CXT5U15JJVAEXBU2XNZL8A76W8U1,3RGU30DZTEO436MF268UMLWH47AMJR,4,3
123,1,object_05,object_07,410.79999995232,1,2,315.5,1.0,1,object_03,1,1436,0,9,6,desert_3,1,memory-2step-stake-s,622,2291066,0.0-19.0-0.0-0.123,A1Z3NTRGIUZ240,32CXT5U15JJVAEXBU2XNZL8A76W8U1,3RGU30DZTEO436MF268UMLWH47AMJR,2,1
124,4,object_08,object_01,587.89999985695,7,1,438.89999985695,0.8888888888888888,1,object_03,5,1476,0,8,4,restaurant_3,1,memory-2step-stake-s,623,2299538,0.0-19.0-0.0-0.124,A1Z3NTRGIUZ240,32CXT5U15JJVAEXBU2XNZL8A76W8U1,3RGU30DZTEO436MF268UMLWH47AMJR,7,8
125,3,object_02,object_04,928.69999980927,6,2,-1.0,0.0,2,object_10,1,1476,0,9,7,library_8,1,memory-2step-stake-s,624,2308054,0.0-19.0-0.0-0.125,A1Z3NTRGIUZ240,32CXT5U15JJVAEXBU2XNZL8A76W8U1,3RGU30DZTEO436MF268UMLWH47AMJR,5,6
126,1,object_07,object_05,802.59999990463,1,1,588.60000014305,1.0,1,object_03,1,1485,0,9,5,desert_2,1,memory-2step-stake-s,625,2316762,0.0-19.0-0.0-0.126,A1Z3NTRGIUZ240,32CXT5U15JJVAEXBU2XNZL8A76W8U1,3RGU30DZTEO436MF268UMLWH47AMJR,1,2
127,3,object_02,object_04,552.70000004768,5,1,448.0,1.0,1,object_03,5,1530,0,9,7,library_8,1,memory-2step-stake-s,626,2325336,0.0-19.0-0.0-0.127,A1Z3NTRGIUZ240,32CXT5U15JJVAEXBU2XNZL8A76W8U1,3RGU30DZTEO436MF268UMLWH47AMJR,5,6
128,3,object_04,object_02,-1.0,-1,-1,-1.0,0.0,-,0,1,1530,0,7,4,library_2,1,memory-2step-stake-s,628,3422962,0.0-19.0-0.1-0.128,A1Z3NTRGIUZ240,32CXT5U15JJVAEXBU2XNZL8A76W8U1,3RGU30DZTEO436MF268UMLWH47AMJR,6,5
129,4,object_01,object_08,247.5,8,1,300.29999995232,0.4444444444444444,2,object_10,5,1550,0,7,4,restaurant_1,1,memory-2step-stake-s,629,3430880,0.0-19.0-0.1-0.129,A1Z3NTRGIUZ240,32CXT5U15JJVAEXBU2XNZL8A76W8U1,3RGU30DZTEO436MF268UMLWH47AMJR,8,7
130,3,object_02,object_04,799.39999985695,5,1,296.40000009537,0.8888888888888888,1,object_03,5,1590,0,8,3,library_5,1,memory-2step-stake-s,630,3439220,0.0-19.0-0.1-0.130,A1Z3NTRGIUZ240,32CXT5U15JJVAEXBU2XNZL8A76W8U1,3RGU30DZTEO436MF268UMLWH47AMJR,5,6
131,1,object_07,object_05,848.70000004768,1,1,357.79999995232,0.7777777777777778,1,object_03,1,1597,0,7,5,desert_3,1,memory-2step-stake-s,631,3447498,0.0-19.0-0.1-0.131,A1Z3NTRGIUZ240,32CXT5U15JJVAEXBU2XNZL8A76W8U1,3RGU30DZTEO436MF268UMLWH47AMJR,1,2
132,3,object_04,object_02,1055.2999999523,5,2,305.59999990463,1.0,1,object_03,5,1642,0,9,4,library_2,1,memory-2step-stake-s,632,3455939,0.0-19.0-0.1-0.132,A1Z3NTRGIUZ240,32CXT5U15JJVAEXBU2XNZL8A76W8U1,3RGU30DZTEO436MF268UMLWH47AMJR,6,5
133,2,object_09,object_06,693.5,3,2,311.09999990463,0.7777777777777778,1,object_03,1,1649,0,7,5,forest_6,1,memory-2step-stake-s,633,3464189,0.0-19.0-0.1-0.133,A1Z3NTRGIUZ240,32CXT5U15JJVAEXBU2XNZL8A76W8U1,3RGU30DZTEO436MF268UMLWH47AMJR,4,3
134,3,object_02,object_04,957.30000019073,5,1,445.59999990463,0.5555555555555556,1,object_03,5,1674,0,5,6,library_2,1,memory-2step-stake-s,634,3472352,0.0-19.0-0.1-0.134,A1Z3NTRGIUZ240,32CXT5U15JJVAEXBU2XNZL8A76W8U1,3RGU30DZTEO436MF268UMLWH47AMJR,5,6
135,4,object_01,object_08,472.09999990463,7,2,574.5,0.6666666666666666,1,object_03,1,1680,0,6,8,restaurant_4,1,memory-2step-stake-s,635,3480749,0.0-19.0-0.1-0.135,A1Z3NTRGIUZ240,32CXT5U15JJVAEXBU2XNZL8A76W8U1,3RGU30DZTEO436MF268UMLWH47AMJR,8,7
136,1,object_05,object_07,536.09999990463,1,2,516.10000014305,0.8888888888888888,1,object_03,1,1688,0,8,8,desert_5,1,memory-2step-stake-s,636,3489303,0.0-19.0-0.1-0.136,A1Z3NTRGIUZ240,32CXT5U15JJVAEXBU2XNZL8A76W8U1,3RGU30DZTEO436MF268UMLWH47AMJR,2,1
137,3,object_04,object_02,664.89999985695,5,2,291.40000009537,0.8888888888888888,1,object_03,5,1728,0,8,9,library_6,1,memory-2step-stake-s,637,3497625,0.0-19.0-0.1-0.137,A1Z3NTRGIUZ240,32CXT5U15JJVAEXBU2XNZL8A76W8U1,3RGU30DZTEO436MF268UMLWH47AMJR,6,5
138,4,object_01,object_08,433.70000004768,7,2,628.5,0.6666666666666666,1,object_03,1,1734,0,6,8,restaurant_3,1,memory-2step-stake-s,638,3506077,0.0-19.0-0.1-0.138,A1Z3NTRGIUZ240,32CXT5U15JJVAEXBU2XNZL8A76W8U1,3RGU30DZTEO436MF268UMLWH47AMJR,8,7
139,1,object_05,object_07,518.0,1,2,431.59999990463,0.6666666666666666,1,object_03,5,1764,0,6,8,desert_4,1,memory-2step-stake-s,639,3514351,0.0-19.0-0.1-0.139,A1Z3NTRGIUZ240,32CXT5U15JJVAEXBU2XNZL8A76W8U1,3RGU30DZTEO436MF268UMLWH47AMJR,2,1
140,1,object_05,object_07,660.29999995232,1,2,534.0,0.7777777777777778,1,object_03,1,1771,0,7,7,desert_5,1,memory-2step-stake-s,640,3522809,0.0-19.0-0.1-0.140,A1Z3NTRGIUZ240,32CXT5U15JJVAEXBU2XNZL8A76W8U1,3RGU30DZTEO436MF268UMLWH47AMJR,2,1
141,1,object_05,object_07,381.90000009537,1,2,371.90000009537,1.0,1,object_03,5,1816,0,9,8,desert_5,1,memory-2step-stake-s,641,3531308,0.0-19.0-0.1-0.141,A1Z3NTRGIUZ240,32CXT5U15JJVAEXBU2XNZL8A76W8U1,3RGU30DZTEO436MF268UMLWH47AMJR,2,1
142,4,object_08,object_01,601.09999990463,8,2,265.29999995232,0.7777777777777778,2,object_10,5,1851,0,7,7,restaurant_7,1,memory-2step-stake-s,642,3539494,0.0-19.0-0.1-0.142,A1Z3NTRGIUZ240,32CXT5U15JJVAEXBU2XNZL8A76W8U1,3RGU30DZTEO436MF268UMLWH47AMJR,7,8
143,1,object_05,object_07,515.20000004768,1,2,638.89999985695,0.7777777777777778,1,object_03,1,1858,0,7,7,desert_4,1,memory-2step-stake-s,643,3548058,0.0-19.0-0.1-0.143,A1Z3NTRGIUZ240,32CXT5U15JJVAEXBU2XNZL8A76W8U1,3RGU30DZTEO436MF268UMLWH47AMJR,2,1
144,1,object_07,object_05,402.0,1,1,590.89999985695,0.8888888888888888,1,object_03,1,1866,0,8,5,desert_3,1,memory-2step-stake-s,644,3556672,0.0-19.0-0.1-0.144,A1Z3NTRGIUZ240,32CXT5U15JJVAEXBU2XNZL8A76W8U1,3RGU30DZTEO436MF268UMLWH47AMJR,1,2
145,4,object_08,object_01,857.59999990463,7,1,526.39999985695,0.8888888888888888,1,object_03,5,1906,0,8,4,restaurant_7,1,memory-2step-stake-s,645,3565217,0.0-19.0-0.1-0.145,A1Z3NTRGIUZ240,32CXT5U15JJVAEXBU2XNZL8A76W8U1,3RGU30DZTEO436MF268UMLWH47AMJR,7,8
146,4,object_08,object_01,444.5,7,1,287.90000009537,0.8888888888888888,1,object_03,5,1946,0,8,4,restaurant_4,1,memory-2step-stake-s,646,3573526,0.0-19.0-0.1-0.146,A1Z3NTRGIUZ240,32CXT5U15JJVAEXBU2XNZL8A76W8U1,3RGU30DZTEO436MF268UMLWH47AMJR,7,8
147,1,object_07,object_05,423.90000009537,1,1,291.89999985695,0.7777777777777778,1,object_03,1,1953,0,7,4,desert_5,1,memory-2step-stake-s,647,3581738,0.0-19.0-0.1-0.147,A1Z3NTRGIUZ240,32CXT5U15JJVAEXBU2XNZL8A76W8U1,3RGU30DZTEO436MF268UMLWH47AMJR,1,2
148,3,object_02,object_04,640.10000014305,5,1,491.5,0.5555555555555556,1,object_03,5,1978,0,5,5,library_2,1,memory-2step-stake-s,648,3589944,0.0-19.0-0.1-0.148,A1Z3NTRGIUZ240,32CXT5U15JJVAEXBU2XNZL8A76W8U1,3RGU30DZTEO436MF268UMLWH47AMJR,5,6
149,2,object_09,object_06,558.0,3,2,386.09999990463,0.8888888888888888,1,object_03,1,1986,0,8,5,forest_3,1,memory-2step-stake-s,649,3598362,0.0-19.0-0.1-0.149,A1Z3NTRGIUZ240,32CXT5U15JJVAEXBU2XNZL8A76W8U1,3RGU30DZTEO436MF268UMLWH47AMJR,4,3
150,2,object_09,object_06,490.09999990463,3,2,399.79999995232,1.0,1,object_03,1,1995,0,9,5,forest_8,1,memory-2step-stake-s,650,3606889,0.0-19.0-0.1-0.150,A1Z3NTRGIUZ240,32CXT5U15JJVAEXBU2XNZL8A76W8U1,3RGU30DZTEO436MF268UMLWH47AMJR,4,3
151,2,object_06,object_09,589.20000004768,3,1,456.59999990463,0.6666666666666666,1,object_03,5,2025,0,6,6,forest_3,1,memory-2step-stake-s,651,3615167,0.0-19.0-0.1-0.151,A1Z3NTRGIUZ240,32CXT5U15JJVAEXBU2XNZL8A76W8U1,3RGU30DZTEO436MF268UMLWH47AMJR,3,4
152,2,object_09,object_06,550.59999990463,4,1,396.29999995232,0.0,2,object_10,1,2025,0,6,0,forest_2,1,memory-2step-stake-s,652,3622780,0.0-19.0-0.1-0.152,A1Z3NTRGIUZ240,32CXT5U15JJVAEXBU2XNZL8A76W8U1,3RGU30DZTEO436MF268UMLWH47AMJR,4,3
153,4,object_01,object_08,907.29999995232,7,2,394.40000009537,0.8888888888888888,1,object_03,5,2065,0,8,3,restaurant_1,1,memory-2step-stake-s,653,3631195,0.0-19.0-0.1-0.153,A1Z3NTRGIUZ240,32CXT5U15JJVAEXBU2XNZL8A76W8U1,3RGU30DZTEO436MF268UMLWH47AMJR,8,7
154,3,object_02,object_04,746.79999995232,5,1,463.90000009537,0.8888888888888888,1,object_03,1,2073,0,8,3,library_8,1,memory-2step-stake-s,654,3639679,0.0-19.0-0.1-0.154,A1Z3NTRGIUZ240,32CXT5U15JJVAEXBU2XNZL8A76W8U1,3RGU30DZTEO436MF268UMLWH47AMJR,5,6
155,1,object_05,object_07,433.29999995232,1,2,427.29999995232,0.4444444444444444,1,object_03,1,2077,0,4,1,desert_4,1,memory-2step-stake-s,655,3647723,0.0-19.0-0.1-0.155,A1Z3NTRGIUZ240,32CXT5U15JJVAEXBU2XNZL8A76W8U1,3RGU30DZTEO436MF268UMLWH47AMJR,2,1
156,2,object_06,object_09,640.70000004768,3,1,440.70000004768,0.3333333333333333,1,object_03,1,2080,0,3,1,forest_2,1,memory-2step-stake-s,656,3655678,0.0-19.0-0.1-0.156,A1Z3NTRGIUZ240,32CXT5U15JJVAEXBU2XNZL8A76W8U1,3RGU30DZTEO436MF268UMLWH47AMJR,3,4
157,4,object_08,object_01,488.29999995232,7,1,439.79999995232,0.5555555555555556,1,object_03,1,2085,0,5,0,restaurant_3,1,memory-2step-stake-s,657,3663835,0.0-19.0-0.1-0.157,A1Z3NTRGIUZ240,32CXT5U15JJVAEXBU2XNZL8A76W8U1,3RGU30DZTEO436MF268UMLWH47AMJR,7,8
158,2,object_09,object_06,488.70000004768,3,2,405.29999995232,0.5555555555555556,1,object_03,1,2090,0,5,0,forest_3,1,memory-2step-stake-s,658,3671962,0.0-19.0-0.1-0.158,A1Z3NTRGIUZ240,32CXT5U15JJVAEXBU2XNZL8A76W8U1,3RGU30DZTEO436MF268UMLWH47AMJR,4,3
159,4,object_08,object_01,431.69999980927,7,1,344.0,0.6666666666666666,1,object_03,5,2120,0,6,2,restaurant_1,1,memory-2step-stake-s,659,3680127,0.0-19.0-0.1-0.159,A1Z3NTRGIUZ240,32CXT5U15JJVAEXBU2XNZL8A76W8U1,3RGU30DZTEO436MF268UMLWH47AMJR,7,8
160,1,object_05,object_07,686.10000014305,1,2,486.09999990463,0.5555555555555556,1,object_03,5,2145,0,5,2,desert_4,1,memory-2step-stake-s,660,3688332,0.0-19.0-0.1-0.160,A1Z3NTRGIUZ240,32CXT5U15JJVAEXBU2XNZL8A76W8U1,3RGU30DZTEO436MF268UMLWH47AMJR,2,1
161,1,object_07,object_05,599.20000004768,1,1,462.5,0.5555555555555556,1,object_03,1,2150,0,5,4,desert_2,1,memory-2step-stake-s,661,3696513,0.0-19.0-0.1-0.161,A1Z3NTRGIUZ240,32CXT5U15JJVAEXBU2XNZL8A76W8U1,3RGU30DZTEO436MF268UMLWH47AMJR,1,2
162,2,object_09,object_06,428.09999990463,3,2,-1.0,0.0,1,object_03,1,2150,0,5,2,forest_3,1,memory-2step-stake-s,662,3705027,0.0-19.0-0.1-0.162,A1Z3NTRGIUZ240,32CXT5U15JJVAEXBU2XNZL8A76W8U1,3RGU30DZTEO436MF268UMLWH47AMJR,4,3
163,4,object_08,object_01,365.29999995232,7,1,1038.4000000954,0.7777777777777778,1,object_03,5,2185,0,7,1,restaurant_7,1,memory-2step-stake-s,663,3713995,0.0-19.0-0.1-0.163,A1Z3NTRGIUZ240,32CXT5U15JJVAEXBU2XNZL8A76W8U1,3RGU30DZTEO436MF268UMLWH47AMJR,7,8
164,2,object_09,object_06,405.29999995232,3,2,566.30000019073,0.4444444444444444,1,object_03,1,2189,0,4,0,forest_8,1,memory-2step-stake-s,664,3722189,0.0-19.0-0.1-0.164,A1Z3NTRGIUZ240,32CXT5U15JJVAEXBU2XNZL8A76W8U1,3RGU30DZTEO436MF268UMLWH47AMJR,4,3
165,4,object_08,object_01,532.59999990463,7,1,347.09999990463,0.5555555555555556,1,object_03,5,2214,0,5,1,restaurant_3,1,memory-2step-stake-s,665,3730255,0.0-19.0-0.1-0.165,A1Z3NTRGIUZ240,32CXT5U15JJVAEXBU2XNZL8A76W8U1,3RGU30DZTEO436MF268UMLWH47AMJR,7,8
166,2,object_09,object_06,428.20000004768,3,2,509.70000004768,0.6666666666666666,1,object_03,5,2244,0,6,3,forest_6,1,memory-2step-stake-s,666,3738603,0.0-19.0-0.1-0.166,A1Z3NTRGIUZ240,32CXT5U15JJVAEXBU2XNZL8A76W8U1,3RGU30DZTEO436MF268UMLWH47AMJR,4,3
167,2,object_09,object_06,850.79999995232,3,2,389.19999980927,0.7777777777777778,1,object_03,1,2251,0,7,3,forest_6,1,memory-2step-stake-s,667,3746914,0.0-19.0-0.1-0.167,A1Z3NTRGIUZ240,32CXT5U15JJVAEXBU2XNZL8A76W8U1,3RGU30DZTEO436MF268UMLWH47AMJR,4,3
168,2,object_06,object_09,498.59999990463,3,1,391.5,0.6666666666666666,1,object_03,1,2257,0,6,3,forest_8,1,memory-2step-stake-s,668,3755127,0.0-19.0-0.1-0.168,A1Z3NTRGIUZ240,32CXT5U15JJVAEXBU2XNZL8A76W8U1,3RGU30DZTEO436MF268UMLWH47AMJR,3,4
169,1,object_05,object_07,583.40000009537,1,2,456.60000014305,0.5555555555555556,1,object_03,1,2262,0,5,2,desert_3,1,memory-2step-stake-s,669,3763300,0.0-19.0-0.1-0.169,A1Z3NTRGIUZ240,32CXT5U15JJVAEXBU2XNZL8A76W8U1,3RGU30DZTEO436MF268UMLWH47AMJR,2,1
170,2,object_06,object_09,488.59999990463,4,2,364.5,0.4444444444444444,2,object_10,1,2266,0,7,4,forest_6,1,memory-2step-stake-s,670,3771280,0.0-19.0-0.1-0.170,A1Z3NTRGIUZ240,32CXT5U15JJVAEXBU2XNZL8A76W8U1,3RGU30DZTEO436MF268UMLWH47AMJR,3,4
171,2,object_06,object_09,539.80000019073,3,1,732.79999995232,0.7777777777777778,1,object_03,5,2301,0,7,5,forest_2,1,memory-2step-stake-s,671,3779933,0.0-19.0-0.1-0.171,A1Z3NTRGIUZ240,32CXT5U15JJVAEXBU2XNZL8A76W8U1,3RGU30DZTEO436MF268UMLWH47AMJR,3,4
172,4,object_08,object_01,402.70000004768,7,1,331.0,0.8888888888888888,1,object_03,1,2309,0,8,6,restaurant_7,1,memory-2step-stake-s,672,3788302,0.0-19.0-0.1-0.172,A1Z3NTRGIUZ240,32CXT5U15JJVAEXBU2XNZL8A76W8U1,3RGU30DZTEO436MF268UMLWH47AMJR,7,8
173,1,object_05,object_07,408.59999990463,1,2,802.59999990463,0.6666666666666666,1,object_03,1,2315,0,6,5,desert_2,1,memory-2step-stake-s,673,3796933,0.0-19.0-0.1-0.173,A1Z3NTRGIUZ240,32CXT5U15JJVAEXBU2XNZL8A76W8U1,3RGU30DZTEO436MF268UMLWH47AMJR,2,1
174,1,object_07,object_05,414.59999990463,1,1,772.39999985695,0.4444444444444444,1,object_03,1,2319,0,4,7,desert_5,1,memory-2step-stake-s,674,3805324,0.0-19.0-0.1-0.174,A1Z3NTRGIUZ240,32CXT5U15JJVAEXBU2XNZL8A76W8U1,3RGU30DZTEO436MF268UMLWH47AMJR,1,2
175,2,object_06,object_09,508.20000004768,3,1,450.79999995232,0.7777777777777778,1,object_03,1,2326,0,7,7,forest_2,1,memory-2step-stake-s,675,3813729,0.0-19.0-0.1-0.175,A1Z3NTRGIUZ240,32CXT5U15JJVAEXBU2XNZL8A76W8U1,3RGU30DZTEO436MF268UMLWH47AMJR,3,4
176,1,object_07,object_05,756.20000004768,1,1,1163.8000001907,0.7777777777777778,1,object_03,1,2333,0,7,9,desert_5,1,memory-2step-stake-s,676,3822824,0.0-19.0-0.1-0.176,A1Z3NTRGIUZ240,32CXT5U15JJVAEXBU2XNZL8A76W8U1,3RGU30DZTEO436MF268UMLWH47AMJR,1,2
177,4,object_08,object_01,442.30000019073,7,1,363.5,0.6666666666666666,1,object_03,5,2363,0,6,6,restaurant_4,1,memory-2step-stake-s,677,3831006,0.0-19.0-0.1-0.177,A1Z3NTRGIUZ240,32CXT5U15JJVAEXBU2XNZL8A76W8U1,3RGU30DZTEO436MF268UMLWH47AMJR,7,8
178,2,object_06,object_09,553.40000009537,3,1,388.89999985695,0.3333333333333333,1,object_03,1,2366,0,3,6,forest_6,1,memory-2step-stake-s,678,3838913,0.0-19.0-0.1-0.178,A1Z3NTRGIUZ240,32CXT5U15JJVAEXBU2XNZL8A76W8U1,3RGU30DZTEO436MF268UMLWH47AMJR,3,4
179,3,object_02,object_04,673.89999985695,5,1,-1.0,0.0,1,object_03,5,2366,0,5,8,library_6,1,memory-2step-stake-s,679,3847426,0.0-19.0-0.1-0.179,A1Z3NTRGIUZ240,32CXT5U15JJVAEXBU2XNZL8A76W8U1,3RGU30DZTEO436MF268UMLWH47AMJR,5,6
180,2,object_09,object_06,550.69999980927,3,2,435.19999980927,0.7777777777777778,1,object_03,5,2401,0,7,5,forest_8,1,memory-2step-stake-s,680,3855798,0.0-19.0-0.1-0.180,A1Z3NTRGIUZ240,32CXT5U15JJVAEXBU2XNZL8A76W8U1,3RGU30DZTEO436MF268UMLWH47AMJR,4,3
181,3,object_04,object_02,667.40000009537,5,2,403.0,0.8888888888888888,1,object_03,5,2441,0,8,5,library_6,1,memory-2step-stake-s,681,3864225,0.0-19.0-0.1-0.181,A1Z3NTRGIUZ240,32CXT5U15JJVAEXBU2XNZL8A76W8U1,3RGU30DZTEO436MF268UMLWH47AMJR,6,5
182,3,object_04,object_02,571.70000004768,6,1,762.0,0.3333333333333333,2,object_10,5,2456,0,9,3,library_2,1,memory-2step-stake-s,682,3872503,0.0-19.0-0.1-0.182,A1Z3NTRGIUZ240,32CXT5U15JJVAEXBU2XNZL8A76W8U1,3RGU30DZTEO436MF268UMLWH47AMJR,6,5
183,3,object_04,object_02,563.70000004768,5,2,432.20000004768,0.8888888888888888,1,object_03,1,2464,0,8,2,library_5,1,memory-2step-stake-s,683,3880958,0.0-19.0-0.1-0.183,A1Z3NTRGIUZ240,32CXT5U15JJVAEXBU2XNZL8A76W8U1,3RGU30DZTEO436MF268UMLWH47AMJR,6,5
184,4,object_08,object_01,493.20000004768,7,1,297.20000004768,0.7777777777777778,1,object_03,5,2499,0,7,0,restaurant_3,1,memory-2step-stake-s,684,3889176,0.0-19.0-0.1-0.184,A1Z3NTRGIUZ240,32CXT5U15JJVAEXBU2XNZL8A76W8U1,3RGU30DZTEO436MF268UMLWH47AMJR,7,8
185,2,object_06,object_09,524.40000009537,4,2,366.39999985695,0.0,2,object_10,5,2499,0,5,0,forest_2,1,memory-2step-stake-s,685,3896756,0.0-19.0-0.1-0.185,A1Z3NTRGIUZ240,32CXT5U15JJVAEXBU2XNZL8A76W8U1,3RGU30DZTEO436MF268UMLWH47AMJR,3,4
186,4,object_08,object_01,475.29999995232,7,1,297.0,0.5555555555555556,1,object_03,1,2504,0,5,0,restaurant_7,1,memory-2step-stake-s,686,3904772,0.0-19.0-0.1-0.186,A1Z3NTRGIUZ240,32CXT5U15JJVAEXBU2XNZL8A76W8U1,3RGU30DZTEO436MF268UMLWH47AMJR,7,8
187,2,object_06,object_09,657.10000014305,3,1,355.60000014305,0.3333333333333333,1,object_03,1,2507,0,3,1,forest_6,1,memory-2step-stake-s,687,3912644,0.0-19.0-0.1-0.187,A1Z3NTRGIUZ240,32CXT5U15JJVAEXBU2XNZL8A76W8U1,3RGU30DZTEO436MF268UMLWH47AMJR,3,4
188,1,object_07,object_05,810.29999995232,1,1,613.90000009537,0.4444444444444444,1,object_03,5,2527,0,4,2,desert_5,1,memory-2step-stake-s,688,3920871,0.0-19.0-0.1-0.188,A1Z3NTRGIUZ240,32CXT5U15JJVAEXBU2XNZL8A76W8U1,3RGU30DZTEO436MF268UMLWH47AMJR,1,2
189,4,object_08,object_01,448.20000004768,7,1,450.79999995232,0.5555555555555556,1,object_03,5,2552,0,5,1,restaurant_7,1,memory-2step-stake-s,689,3929064,0.0-19.0-0.1-0.189,A1Z3NTRGIUZ240,32CXT5U15JJVAEXBU2XNZL8A76W8U1,3RGU30DZTEO436MF268UMLWH47AMJR,7,8
190,2,object_06,object_09,650.39999985695,3,1,574.60000014305,0.8888888888888888,1,object_03,1,2560,0,8,2,forest_8,1,memory-2step-stake-s,690,3937659,0.0-19.0-0.1-0.190,A1Z3NTRGIUZ240,32CXT5U15JJVAEXBU2XNZL8A76W8U1,3RGU30DZTEO436MF268UMLWH47AMJR,3,4
191,2,object_06,object_09,519.0,3,1,775.79999995232,0.5555555555555556,1,object_03,1,2565,0,5,2,forest_2,1,memory-2step-stake-s,691,3946153,0.0-19.0-0.1-0.191,A1Z3NTRGIUZ240,32CXT5U15JJVAEXBU2XNZL8A76W8U1,3RGU30DZTEO436MF268UMLWH47AMJR,3,4
192,3,object_04,object_02,788.90000009537,6,1,303.79999995232,0.2222222222222222,2,object_10,1,2567,0,4,2,library_5,1,memory-2step-stake-s,692,3953874,0.0-19.0-0.1-0.192,A1Z3NTRGIUZ240,32CXT5U15JJVAEXBU2XNZL8A76W8U1,3RGU30DZTEO436MF268UMLWH47AMJR,6,5
193,1,object_05,object_07,-1.0,-1,-1,-1.0,0.0,-,0,1,2567,0,7,2,desert_4,1,memory-2step-stake-s,693,3960384,0.0-19.0-0.1-0.193,A1Z3NTRGIUZ240,32CXT5U15JJVAEXBU2XNZL8A76W8U1,3RGU30DZTEO436MF268UMLWH47AMJR,2,1
194,1,object_05,object_07,439.40000009537,1,2,332.39999985695,0.8888888888888888,1,object_03,1,2575,0,8,4,desert_4,1,memory-2step-stake-s,694,3968736,0.0-19.0-0.1-0.194,A1Z3NTRGIUZ240,32CXT5U15JJVAEXBU2XNZL8A76W8U1,3RGU30DZTEO436MF268UMLWH47AMJR,2,1
195,1,object_05,object_07,972.20000004768,1,2,327.5,0.7777777777777778,1,object_03,1,2582,0,7,4,desert_2,1,memory-2step-stake-s,695,3976984,0.0-19.0-0.1-0.195,A1Z3NTRGIUZ240,32CXT5U15JJVAEXBU2XNZL8A76W8U1,3RGU30DZTEO436MF268UMLWH47AMJR,2,1
196,1,object_07,object_05,456.89999985695,1,1,351.79999995232,0.7777777777777778,1,object_03,1,2589,0,7,2,desert_3,1,memory-2step-stake-s,696,3985254,0.0-19.0-0.1-0.196,A1Z3NTRGIUZ240,32CXT5U15JJVAEXBU2XNZL8A76W8U1,3RGU30DZTEO436MF268UMLWH47AMJR,1,2
197,2,object_09,object_06,525.20000004768,3,2,376.69999980927,0.6666666666666666,1,object_03,1,2595,0,6,1,forest_2,1,memory-2step-stake-s,697,3993448,0.0-19.0-0.1-0.197,A1Z3NTRGIUZ240,32CXT5U15JJVAEXBU2XNZL8A76W8U1,3RGU30DZTEO436MF268UMLWH47AMJR,4,3
198,3,object_02,object_04,670.89999985695,5,1,200.0,0.8888888888888888,1,object_03,5,2635,0,8,3,library_2,1,memory-2step-stake-s,698,4001667,0.0-19.0-0.1-0.198,A1Z3NTRGIUZ240,32CXT5U15JJVAEXBU2XNZL8A76W8U1,3RGU30DZTEO436MF268UMLWH47AMJR,5,6
199,4,object_01,object_08,580.89999985695,7,2,389.0,0.7777777777777778,1,object_03,5,2670,0,7,3,restaurant_4,1,memory-2step-stake-s,699,4009978,0.0-19.0-0.1-0.199,A1Z3NTRGIUZ240,32CXT5U15JJVAEXBU2XNZL8A76W8U1,3RGU30DZTEO436MF268UMLWH47AMJR,8,7
200,4,object_01,object_08,429.79999995232,7,2,432.59999990463,0.7777777777777778,1,object_03,5,2705,0,7,5,restaurant_4,1,memory-2step-stake-s,700,4018332,0.0-19.0-0.1-0.200,A1Z3NTRGIUZ240,32CXT5U15JJVAEXBU2XNZL8A76W8U1,3RGU30DZTEO436MF268UMLWH47AMJR,8,7
201,1,object_07,object_05,515.29999995232,1,1,380.5,0.8888888888888888,1,object_03,1,2713,0,8,5,desert_2,1,memory-2step-stake-s,701,4026733,0.0-19.0-0.1-0.201,A1Z3NTRGIUZ240,32CXT5U15JJVAEXBU2XNZL8A76W8U1,3RGU30DZTEO436MF268UMLWH47AMJR,1,2
202,2,object_06,object_09,571.5,3,1,417.29999995232,0.6666666666666666,1,object_03,1,2719,0,6,6,forest_6,1,memory-2step-stake-s,702,4034983,0.0-19.0-0.1-0.202,A1Z3NTRGIUZ240,32CXT5U15JJVAEXBU2XNZL8A76W8U1,3RGU30DZTEO436MF268UMLWH47AMJR,3,4
203,4,object_08,object_01,449.5,7,1,552.70000004768,0.5555555555555556,1,object_03,1,2724,0,5,6,restaurant_7,1,memory-2step-stake-s,703,4043257,0.0-19.0-0.1-0.203,A1Z3NTRGIUZ240,32CXT5U15JJVAEXBU2XNZL8A76W8U1,3RGU30DZTEO436MF268UMLWH47AMJR,7,8
204,3,object_02,object_04,950.60000014305,5,1,401.70000004768,0.4444444444444444,1,object_03,5,2744,0,4,7,library_5,1,memory-2step-stake-s,704,4051277,0.0-19.0-0.1-0.204,A1Z3NTRGIUZ240,32CXT5U15JJVAEXBU2XNZL8A76W8U1,3RGU30DZTEO436MF268UMLWH47AMJR,5,6
205,1,object_05,object_07,550.20000004768,1,2,444.09999990463,0.4444444444444444,1,object_03,1,2748,0,4,6,desert_5,1,memory-2step-stake-s,705,4059336,0.0-19.0-0.1-0.205,A1Z3NTRGIUZ240,32CXT5U15JJVAEXBU2XNZL8A76W8U1,3RGU30DZTEO436MF268UMLWH47AMJR,2,1
206,2,object_06,object_09,694.39999985695,3,1,320.10000014305,0.0,1,object_03,5,2748,0,0,8,forest_3,1,memory-2step-stake-s,706,4066868,0.0-19.0-0.1-0.206,A1Z3NTRGIUZ240,32CXT5U15JJVAEXBU2XNZL8A76W8U1,3RGU30DZTEO436MF268UMLWH47AMJR,3,4
207,2,object_06,object_09,479.5,3,1,341.5,0.1111111111111111,1,object_03,1,2749,0,1,8,forest_2,1,memory-2step-stake-s,707,4074523,0.0-19.0-0.1-0.207,A1Z3NTRGIUZ240,32CXT5U15JJVAEXBU2XNZL8A76W8U1,3RGU30DZTEO436MF268UMLWH47AMJR,3,4
208,4,object_01,object_08,753.5,8,1,235.29999995232,0.8888888888888888,2,object_10,5,2789,0,1,8,restaurant_4,1,memory-2step-stake-s,708,4082779,0.0-19.0-0.1-0.208,A1Z3NTRGIUZ240,32CXT5U15JJVAEXBU2XNZL8A76W8U1,3RGU30DZTEO436MF268UMLWH47AMJR,8,7
209,2,object_09,object_06,706.79999995232,4,1,323.89999985695,0.7777777777777778,2,object_10,1,2796,0,1,7,forest_8,1,memory-2step-stake-s,709,4091021,0.0-19.0-0.1-0.209,A1Z3NTRGIUZ240,32CXT5U15JJVAEXBU2XNZL8A76W8U1,3RGU30DZTEO436MF268UMLWH47AMJR,4,3
210,2,object_06,object_09,634.5,4,2,368.79999995232,0.7777777777777778,2,object_10,5,2831,0,1,7,forest_3,1,memory-2step-stake-s,710,4099320,0.0-19.0-0.1-0.210,A1Z3NTRGIUZ240,32CXT5U15JJVAEXBU2XNZL8A76W8U1,3RGU30DZTEO436MF268UMLWH47AMJR,3,4
211,1,object_07,object_05,675.40000009537,1,1,213.10000014305,0.3333333333333333,1,object_03,1,2834,0,3,8,desert_4,1,memory-2step-stake-s,711,4107049,0.0-19.0-0.1-0.211,A1Z3NTRGIUZ240,32CXT5U15JJVAEXBU2XNZL8A76W8U1,3RGU30DZTEO436MF268UMLWH47AMJR,1,2
212,4,object_08,object_01,595.69999980927,8,2,226.09999990463,0.8888888888888888,2,object_10,5,2874,0,6,8,restaurant_7,1,memory-2step-stake-s,712,4115304,0.0-19.0-0.1-0.212,A1Z3NTRGIUZ240,32CXT5U15JJVAEXBU2XNZL8A76W8U1,3RGU30DZTEO436MF268UMLWH47AMJR,7,8
213,3,object_02,object_04,755.10000014305,5,1,227.90000009537,0.5555555555555556,1,object_03,1,2879,0,5,6,library_6,1,memory-2step-stake-s,713,4123250,0.0-19.0-0.1-0.213,A1Z3NTRGIUZ240,32CXT5U15JJVAEXBU2XNZL8A76W8U1,3RGU30DZTEO436MF268UMLWH47AMJR,5,6
214,4,object_08,object_01,744.80000019073,8,2,332.70000004768,1.0,2,object_10,5,2924,0,2,9,restaurant_4,1,memory-2step-stake-s,714,4131707,0.0-19.0-0.1-0.214,A1Z3NTRGIUZ240,32CXT5U15JJVAEXBU2XNZL8A76W8U1,3RGU30DZTEO436MF268UMLWH47AMJR,7,8
215,3,object_04,object_02,637.5,5,2,258.90000009537,0.4444444444444444,1,object_03,5,2944,0,4,6,library_5,1,memory-2step-stake-s,715,4139584,0.0-19.0-0.1-0.215,A1Z3NTRGIUZ240,32CXT5U15JJVAEXBU2XNZL8A76W8U1,3RGU30DZTEO436MF268UMLWH47AMJR,6,5
216,3,object_04,object_02,659.20000004768,5,2,358.09999990463,0.2222222222222222,1,object_03,5,2954,0,2,6,library_6,1,memory-2step-stake-s,716,4147357,0.0-19.0-0.1-0.216,A1Z3NTRGIUZ240,32CXT5U15JJVAEXBU2XNZL8A76W8U1,3RGU30DZTEO436MF268UMLWH47AMJR,6,5
217,4,object_08,object_01,823.40000009537,8,2,335.39999985695,0.6666666666666666,2,object_10,5,2984,0,2,6,restaurant_7,1,memory-2step-stake-s,717,4155537,0.0-19.0-0.1-0.217,A1Z3NTRGIUZ240,32CXT5U15JJVAEXBU2XNZL8A76W8U1,3RGU30DZTEO436MF268UMLWH47AMJR,7,8
218,1,object_07,object_05,854.20000004768,2,2,636.0,0.8888888888888888,2,object_10,1,2992,0,3,8,desert_5,1,memory-2step-stake-s,718,4164208,0.0-19.0-0.1-0.218,A1Z3NTRGIUZ240,32CXT5U15JJVAEXBU2XNZL8A76W8U1,3RGU30DZTEO436MF268UMLWH47AMJR,1,2
219,2,object_06,object_09,657.0,4,2,389.89999985695,0.8888888888888888,2,object_10,5,3032,0,6,8,forest_8,1,memory-2step-stake-s,719,4172621,0.0-19.0-0.1-0.219,A1Z3NTRGIUZ240,32CXT5U15JJVAEXBU2XNZL8A76W8U1,3RGU30DZTEO436MF268UMLWH47AMJR,3,4
220,2,object_06,object_09,593.0,4,2,316.39999985695,0.7777777777777778,2,object_10,5,3067,0,6,7,forest_6,1,memory-2step-stake-s,720,4180878,0.0-19.0-0.1-0.220,A1Z3NTRGIUZ240,32CXT5U15JJVAEXBU2XNZL8A76W8U1,3RGU30DZTEO436MF268UMLWH47AMJR,3,4
221,1,object_05,object_07,637.79999995232,2,1,251.10000014305,0.7777777777777778,2,object_10,5,3102,0,5,7,desert_5,1,memory-2step-stake-s,721,4189051,0.0-19.0-0.1-0.221,A1Z3NTRGIUZ240,32CXT5U15JJVAEXBU2XNZL8A76W8U1,3RGU30DZTEO436MF268UMLWH47AMJR,2,1
222,3,object_04,object_02,1319.2000000477,5,2,262.40000009537,0.4444444444444444,1,object_03,5,3122,0,4,6,library_6,1,memory-2step-stake-s,722,4196930,0.0-19.0-0.1-0.222,A1Z3NTRGIUZ240,32CXT5U15JJVAEXBU2XNZL8A76W8U1,3RGU30DZTEO436MF268UMLWH47AMJR,6,5
223,1,object_07,object_05,671.80000019073,1,1,252.39999985695,0.1111111111111111,1,object_03,1,3123,0,1,5,desert_2,1,memory-2step-stake-s,723,4204499,0.0-19.0-0.1-0.223,A1Z3NTRGIUZ240,32CXT5U15JJVAEXBU2XNZL8A76W8U1,3RGU30DZTEO436MF268UMLWH47AMJR,1,2
224,3,object_02,object_04,686.20000004768,6,2,242.79999995232,0.7777777777777778,2,object_10,5,3158,0,3,7,library_5,1,memory-2step-stake-s,724,4212673,0.0-19.0-0.1-0.224,A1Z3NTRGIUZ240,32CXT5U15JJVAEXBU2XNZL8A76W8U1,3RGU30DZTEO436MF268UMLWH47AMJR,5,6
225,2,object_06,object_09,699.89999985695,4,2,261.79999995232,0.8888888888888888,2,object_10,1,3166,0,4,8,forest_8,1,memory-2step-stake-s,725,4220956,0.0-19.0-0.1-0.225,A1Z3NTRGIUZ240,32CXT5U15JJVAEXBU2XNZL8A76W8U1,3RGU30DZTEO436MF268UMLWH47AMJR,3,4
226,3,object_02,object_04,592.5,6,2,452.69999980927,0.8888888888888888,2,object_10,1,3174,0,5,8,library_5,1,memory-2step-stake-s,726,4229428,0.0-19.0-0.1-0.226,A1Z3NTRGIUZ240,32CXT5U15JJVAEXBU2XNZL8A76W8U1,3RGU30DZTEO436MF268UMLWH47AMJR,5,6
227,3,object_04,object_02,660.40000009537,6,1,232.29999995232,0.6666666666666666,2,object_10,1,3180,0,1,6,library_8,1,memory-2step-stake-s,727,4237490,0.0-19.0-0.1-0.227,A1Z3NTRGIUZ240,32CXT5U15JJVAEXBU2XNZL8A76W8U1,3RGU30DZTEO436MF268UMLWH47AMJR,6,5
228,2,object_06,object_09,853.70000004768,4,2,222.90000009537,0.6666666666666666,2,object_10,1,3186,0,2,6,forest_3,1,memory-2step-stake-s,728,4245532,0.0-19.0-0.1-0.228,A1Z3NTRGIUZ240,32CXT5U15JJVAEXBU2XNZL8A76W8U1,3RGU30DZTEO436MF268UMLWH47AMJR,3,4
229,3,object_04,object_02,528.79999995232,6,1,255.39999985695,0.5555555555555556,2,object_10,5,3211,0,1,5,library_2,1,memory-2step-stake-s,729,4253517,0.0-19.0-0.1-0.229,A1Z3NTRGIUZ240,32CXT5U15JJVAEXBU2XNZL8A76W8U1,3RGU30DZTEO436MF268UMLWH47AMJR,6,5
230,2,object_09,object_06,695.09999990463,3,2,201.70000004768,0.1111111111111111,1,object_03,1,3212,0,1,6,forest_3,1,memory-2step-stake-s,730,4261034,0.0-19.0-0.1-0.230,A1Z3NTRGIUZ240,32CXT5U15JJVAEXBU2XNZL8A76W8U1,3RGU30DZTEO436MF268UMLWH47AMJR,4,3
231,1,object_05,object_07,781.5,2,1,409.10000014305,0.5555555555555556,2,object_10,5,3237,0,1,5,desert_3,1,memory-2step-stake-s,731,4269196,0.0-19.0-0.1-0.231,A1Z3NTRGIUZ240,32CXT5U15JJVAEXBU2XNZL8A76W8U1,3RGU30DZTEO436MF268UMLWH47AMJR,2,1
232,1,object_05,object_07,636.70000004768,2,1,247.5,0.7777777777777778,2,object_10,1,3244,0,1,7,desert_2,1,memory-2step-stake-s,732,4277366,0.0-19.0-0.1-0.232,A1Z3NTRGIUZ240,32CXT5U15JJVAEXBU2XNZL8A76W8U1,3RGU30DZTEO436MF268UMLWH47AMJR,2,1
233,4,object_01,object_08,694.5,8,1,319.09999990463,0.5555555555555556,2,object_10,1,3249,0,1,5,restaurant_4,1,memory-2step-stake-s,733,4285403,0.0-19.0-0.1-0.233,A1Z3NTRGIUZ240,32CXT5U15JJVAEXBU2XNZL8A76W8U1,3RGU30DZTEO436MF268UMLWH47AMJR,8,7
234,3,object_02,object_04,762.5,6,2,336.70000004768,0.5555555555555556,2,object_10,5,3274,0,2,5,library_2,1,memory-2step-stake-s,734,4293470,0.0-19.0-0.1-0.234,A1Z3NTRGIUZ240,32CXT5U15JJVAEXBU2XNZL8A76W8U1,3RGU30DZTEO436MF268UMLWH47AMJR,5,6
235,2,object_06,object_09,804.10000014305,4,2,356.60000014305,1.0,2,object_10,1,3283,0,3,9,forest_2,1,memory-2step-stake-s,735,4301949,0.0-19.0-0.1-0.235,A1Z3NTRGIUZ240,32CXT5U15JJVAEXBU2XNZL8A76W8U1,3RGU30DZTEO436MF268UMLWH47AMJR,3,4
236,1,object_05,object_07,602.39999985695,2,1,336.20000004768,0.6666666666666666,2,object_10,1,3289,0,5,6,desert_5,1,memory-2step-stake-s,736,4310107,0.0-19.0-0.1-0.236,A1Z3NTRGIUZ240,32CXT5U15JJVAEXBU2XNZL8A76W8U1,3RGU30DZTEO436MF268UMLWH47AMJR,2,1
237,3,object_02,object_04,617.09999990463,6,2,332.59999990463,0.4444444444444444,2,object_10,5,3309,0,5,4,library_2,1,memory-2step-stake-s,737,4318055,0.0-19.0-0.1-0.237,A1Z3NTRGIUZ240,32CXT5U15JJVAEXBU2XNZL8A76W8U1,3RGU30DZTEO436MF268UMLWH47AMJR,5,6
238,3,object_02,object_04,651.0,6,2,331.79999995232,0.4444444444444444,2,object_10,5,3329,0,7,4,library_8,1,memory-2step-stake-s,738,4326020,0.0-19.0-0.1-0.238,A1Z3NTRGIUZ240,32CXT5U15JJVAEXBU2XNZL8A76W8U1,3RGU30DZTEO436MF268UMLWH47AMJR,5,6
239,2,object_09,object_06,652.59999990463,4,1,395.29999995232,0.4444444444444444,2,object_10,1,3333,0,5,4,forest_2,1,memory-2step-stake-s,739,4334034,0.0-19.0-0.1-0.239,A1Z3NTRGIUZ240,32CXT5U15JJVAEXBU2XNZL8A76W8U1,3RGU30DZTEO436MF268UMLWH47AMJR,4,3
240,2,object_06,object_09,420.90000009537,4,2,451.5,0.5555555555555556,2,object_10,1,3338,0,5,5,forest_8,1,memory-2step-stake-s,740,4342209,0.0-19.0-0.1-0.240,A1Z3NTRGIUZ240,32CXT5U15JJVAEXBU2XNZL8A76W8U1,3RGU30DZTEO436MF268UMLWH47AMJR,3,4
241,3,object_02,object_04,564.5,6,2,484.20000004768,0.7777777777777778,2,object_10,1,3345,0,3,7,library_6,1,memory-2step-stake-s,741,4350623,0.0-19.0-0.1-0.241,A1Z3NTRGIUZ240,32CXT5U15JJVAEXBU2XNZL8A76W8U1,3RGU30DZTEO436MF268UMLWH47AMJR,5,6
242,4,object_08,object_01,763.70000004768,8,2,475.70000004768,0.6666666666666666,2,object_10,5,3375,0,4,6,restaurant_4,1,memory-2step-stake-s,742,4358919,0.0-19.0-0.1-0.242,A1Z3NTRGIUZ240,32CXT5U15JJVAEXBU2XNZL8A76W8U1,3RGU30DZTEO436MF268UMLWH47AMJR,7,8
243,4,object_08,object_01,539.40000009537,7,1,463.09999990463,0.7777777777777778,1,object_03,5,3410,0,7,8,restaurant_1,1,memory-2step-stake-s,743,4367316,0.0-19.0-0.1-0.243,A1Z3NTRGIUZ240,32CXT5U15JJVAEXBU2XNZL8A76W8U1,3RGU30DZTEO436MF268UMLWH47AMJR,7,8
244,3,object_04,object_02,592.09999990463,6,1,443.0,0.7777777777777778,2,object_10,5,3445,0,6,7,library_6,1,memory-2step-stake-s,744,4375685,0.0-19.0-0.1-0.244,A1Z3NTRGIUZ240,32CXT5U15JJVAEXBU2XNZL8A76W8U1,3RGU30DZTEO436MF268UMLWH47AMJR,6,5
245,4,object_08,object_01,536.20000004768,7,1,404.30000019073,0.4444444444444444,1,object_03,5,3465,0,4,7,restaurant_7,1,memory-2step-stake-s,745,4383711,0.0-19.0-0.1-0.245,A1Z3NTRGIUZ240,32CXT5U15JJVAEXBU2XNZL8A76W8U1,3RGU30DZTEO436MF268UMLWH47AMJR,7,8
246,2,object_06,object_09,807.29999995232,3,1,313.20000004768,0.4444444444444444,1,object_03,1,3469,0,4,1,forest_3,1,memory-2step-stake-s,746,4391643,0.0-19.0-0.1-0.246,A1Z3NTRGIUZ240,32CXT5U15JJVAEXBU2XNZL8A76W8U1,3RGU30DZTEO436MF268UMLWH47AMJR,3,4
247,3,object_04,object_02,728.09999990463,6,1,348.60000014305,0.1111111111111111,2,object_10,5,3474,0,4,1,library_8,1,memory-2step-stake-s,747,4399318,0.0-19.0-0.1-0.247,A1Z3NTRGIUZ240,32CXT5U15JJVAEXBU2XNZL8A76W8U1,3RGU30DZTEO436MF268UMLWH47AMJR,6,5
248,1,object_07,object_05,901.40000009537,2,2,286.09999990463,0.2222222222222222,2,object_10,1,3476,0,1,2,desert_5,1,memory-2step-stake-s,748,4407020,0.0-19.0-0.1-0.248,A1Z3NTRGIUZ240,32CXT5U15JJVAEXBU2XNZL8A76W8U1,3RGU30DZTEO436MF268UMLWH47AMJR,1,2
249,3,object_02,object_04,624.70000004768,6,2,454.10000014305,0.2222222222222222,2,object_10,5,3486,0,3,2,library_6,1,memory-2step-stake-s,749,4414889,0.0-19.0-0.1-0.249,A1Z3NTRGIUZ240,32CXT5U15JJVAEXBU2XNZL8A76W8U1,3RGU30DZTEO436MF268UMLWH47AMJR,5,6
250,1,object_07,object_05,804.29999995232,2,2,261.0,0.2222222222222222,2,object_10,5,3496,0,1,2,desert_2,1,memory-2step-stake-s,750,4422567,0.0-19.0-0.1-0.250,A1Z3NTRGIUZ240,32CXT5U15JJVAEXBU2XNZL8A76W8U1,3RGU30DZTEO436MF268UMLWH47AMJR,1,2
251,3,object_04,object_02,590.09999990463,6,1,351.29999995232,0.2222222222222222,2,object_10,1,3498,0,2,2,library_8,1,memory-2step-stake-s,751,4430334,0.0-19.0-0.1-0.251,A1Z3NTRGIUZ240,32CXT5U15JJVAEXBU2XNZL8A76W8U1,3RGU30DZTEO436MF268UMLWH47AMJR,6,5
252,3,object_02,object_04,481.0,6,2,432.5,0.4444444444444444,2,object_10,5,3518,0,0,4,library_5,1,memory-2step-stake-s,752,4438384,0.0-19.0-0.1-0.252,A1Z3NTRGIUZ240,32CXT5U15JJVAEXBU2XNZL8A76W8U1,3RGU30DZTEO436MF268UMLWH47AMJR,5,6
253,2,object_09,object_06,706.20000004768,4,1,448.70000004768,0.6666666666666666,2,object_10,1,3524,0,1,6,forest_3,1,memory-2step-stake-s,753,4446658,0.0-19.0-0.1-0.253,A1Z3NTRGIUZ240,32CXT5U15JJVAEXBU2XNZL8A76W8U1,3RGU30DZTEO436MF268UMLWH47AMJR,4,3
254,1,object_07,object_05,648.5,2,2,334.5,0.6666666666666666,2,object_10,1,3530,0,2,6,desert_4,1,memory-2step-stake-s,754,4454824,0.0-19.0-0.1-0.254,A1Z3NTRGIUZ240,32CXT5U15JJVAEXBU2XNZL8A76W8U1,3RGU30DZTEO436MF268UMLWH47AMJR,1,2
255,4,object_08,object_01,735.59999990463,8,2,294.09999990463,1.0,2,object_10,5,3575,0,2,9,restaurant_7,1,memory-2step-stake-s,755,4463283,0.0-19.0-0.1-0.255,A1Z3NTRGIUZ240,32CXT5U15JJVAEXBU2XNZL8A76W8U1,3RGU30DZTEO436MF268UMLWH47AMJR,7,8
