,state1,stim_left,stim_right,rt_1,choice1,response1,rt_2,points,state2,stim_state2,stake,score,practice,rews1,rews2,background,high_arm,trial_type,trial_index,time_elapsed,internal_node_id,subid,hitid,assignmentid,stim_left_num,stim_right_num
0,3,object_07,object_09,683.0,5,1,-1.0,0.0,1,object_08,1,0,0,1,9,library_8,2,memory-2step-stake-s,488,790076,0.0-19.0-0.0-0.0,A1P47Q6LZPLQ6P,3VGZ74AYUJWEHZMTR9OBXS32OP2GCF,33IZTU6J85H8WL4937JHP3327UHSX7,5,6
1,4,object_04,object_03,517.0,7,1,563.0,0.1111111111111111,1,object_08,1,1,0,1,7,restaurant_4,2,memory-2step-stake-s,489,797946,0.0-19.0-0.0-0.1,A1P47Q6LZPLQ6P,3VGZ74AYUJWEHZMTR9OBXS32OP2GCF,33IZTU6J85H8WL4937JHP3327UHSX7,7,8
2,4,object_03,object_04,558.0,8,1,409.0,0.8888888888888888,2,object_06,1,9,0,2,8,restaurant_2,2,memory-2step-stake-s,490,806368,0.0-19.0-0.0-0.2,A1P47Q6LZPLQ6P,3VGZ74AYUJWEHZMTR9OBXS32OP2GCF,33IZTU6J85H8WL4937JHP3327UHSX7,8,7
3,1,object_01,object_10,499.0,1,2,608.0,0.0,1,object_08,5,9,0,0,8,desert_5,2,memory-2step-stake-s,491,814190,0.0-19.0-0.0-0.3,A1P47Q6LZPLQ6P,3VGZ74AYUJWEHZMTR9OBXS32OP2GCF,33IZTU6J85H8WL4937JHP3327UHSX7,2,1
4,2,object_02,object_05,505.0,4,1,443.0,1.0,2,object_06,5,54,0,2,9,forest_8,2,memory-2step-stake-s,492,822746,0.0-19.0-0.0-0.4,A1P47Q6LZPLQ6P,3VGZ74AYUJWEHZMTR9OBXS32OP2GCF,33IZTU6J85H8WL4937JHP3327UHSX7,4,3
5,3,object_07,object_09,615.0,6,2,350.0,0.8888888888888888,2,object_06,1,62,0,2,8,library_8,2,memory-2step-stake-s,493,831108,0.0-19.0-0.0-0.5,A1P47Q6LZPLQ6P,3VGZ74AYUJWEHZMTR9OBXS32OP2GCF,33IZTU6J85H8WL4937JHP3327UHSX7,5,6
6,2,object_05,object_02,502.0,4,2,270.0,0.8888888888888888,2,object_06,5,102,0,1,8,forest_4,2,memory-2step-stake-s,494,839391,0.0-19.0-0.0-0.6,A1P47Q6LZPLQ6P,3VGZ74AYUJWEHZMTR9OBXS32OP2GCF,33IZTU6J85H8WL4937JHP3327UHSX7,3,4
7,1,object_10,object_01,670.0,2,2,409.0,0.7777777777777778,2,object_06,5,137,0,0,7,desert_7,2,memory-2step-stake-s,495,847719,0.0-19.0-0.0-0.7,A1P47Q6LZPLQ6P,3VGZ74AYUJWEHZMTR9OBXS32OP2GCF,33IZTU6J85H8WL4937JHP3327UHSX7,1,2
8,3,object_07,object_09,575.0,6,2,316.0,0.7777777777777778,2,object_06,5,172,0,2,7,library_5,2,memory-2step-stake-s,496,855946,0.0-19.0-0.0-0.8,A1P47Q6LZPLQ6P,3VGZ74AYUJWEHZMTR9OBXS32OP2GCF,33IZTU6J85H8WL4937JHP3327UHSX7,5,6
9,4,object_04,object_03,638.0,8,2,407.0,0.7777777777777778,2,object_06,1,179,0,1,7,restaurant_2,2,memory-2step-stake-s,497,864264,0.0-19.0-0.0-0.9,A1P47Q6LZPLQ6P,3VGZ74AYUJWEHZMTR9OBXS32OP2GCF,33IZTU6J85H8WL4937JHP3327UHSX7,7,8
10,1,object_10,object_01,574.0,2,2,334.0,0.8888888888888888,2,object_06,1,187,0,1,8,desert_5,2,memory-2step-stake-s,498,872610,0.0-19.0-0.0-0.10,A1P47Q6LZPLQ6P,3VGZ74AYUJWEHZMTR9OBXS32OP2GCF,33IZTU6J85H8WL4937JHP3327UHSX7,1,2
11,3,object_07,object_09,364.0,6,2,348.0,1.0,2,object_06,1,196,0,1,9,library_1,2,memory-2step-stake-s,499,881073,0.0-19.0-0.0-0.11,A1P47Q6LZPLQ6P,3VGZ74AYUJWEHZMTR9OBXS32OP2GCF,33IZTU6J85H8WL4937JHP3327UHSX7,5,6
12,4,object_04,object_03,623.0,8,2,372.0,0.7777777777777778,2,object_06,5,231,0,1,7,restaurant_4,2,memory-2step-stake-s,500,889355,0.0-19.0-0.0-0.12,A1P47Q6LZPLQ6P,3VGZ74AYUJWEHZMTR9OBXS32OP2GCF,33IZTU6J85H8WL4937JHP3327UHSX7,7,8
13,2,object_05,object_02,562.0,4,2,291.0,0.8888888888888888,2,object_06,1,239,0,1,8,forest_8,2,memory-2step-stake-s,501,897665,0.0-19.0-0.0-0.13,A1P47Q6LZPLQ6P,3VGZ74AYUJWEHZMTR9OBXS32OP2GCF,33IZTU6J85H8WL4937JHP3327UHSX7,3,4
14,4,object_04,object_03,592.0,8,2,280.0,0.8888888888888888,2,object_06,5,279,0,3,8,restaurant_2,2,memory-2step-stake-s,502,905959,0.0-19.0-0.0-0.14,A1P47Q6LZPLQ6P,3VGZ74AYUJWEHZMTR9OBXS32OP2GCF,33IZTU6J85H8WL4937JHP3327UHSX7,7,8
15,3,object_09,object_07,600.0,6,1,253.0,0.7777777777777778,2,object_06,1,286,0,4,7,library_8,2,memory-2step-stake-s,503,914125,0.0-19.0-0.0-0.15,A1P47Q6LZPLQ6P,3VGZ74AYUJWEHZMTR9OBXS32OP2GCF,33IZTU6J85H8WL4937JHP3327UHSX7,6,5
16,1,object_01,object_10,719.0,2,1,270.0,0.6666666666666666,2,object_06,1,292,0,6,6,desert_5,2,memory-2step-stake-s,504,922208,0.0-19.0-0.0-0.16,A1P47Q6LZPLQ6P,3VGZ74AYUJWEHZMTR9OBXS32OP2GCF,33IZTU6J85H8WL4937JHP3327UHSX7,2,1
17,4,object_03,object_04,826.0,8,1,255.0,0.7777777777777778,2,object_06,1,299,0,6,7,restaurant_5,2,memory-2step-stake-s,505,930377,0.0-19.0-0.0-0.17,A1P47Q6LZPLQ6P,3VGZ74AYUJWEHZMTR9OBXS32OP2GCF,33IZTU6J85H8WL4937JHP3327UHSX7,8,7
18,3,object_07,object_09,676.0,6,2,276.0,0.6666666666666666,2,object_06,5,329,0,5,6,library_5,2,memory-2step-stake-s,506,938462,0.0-19.0-0.0-0.18,A1P47Q6LZPLQ6P,3VGZ74AYUJWEHZMTR9OBXS32OP2GCF,33IZTU6J85H8WL4937JHP3327UHSX7,5,6
19,4,object_03,object_04,625.0,8,1,426.0,0.8888888888888888,2,object_06,1,337,0,1,8,restaurant_4,2,memory-2step-stake-s,507,946903,0.0-19.0-0.0-0.19,A1P47Q6LZPLQ6P,3VGZ74AYUJWEHZMTR9OBXS32OP2GCF,33IZTU6J85H8WL4937JHP3327UHSX7,8,7
20,3,object_07,object_09,440.0,6,2,272.0,0.7777777777777778,2,object_06,1,344,0,2,7,library_1,2,memory-2step-stake-s,508,955088,0.0-19.0-0.0-0.20,A1P47Q6LZPLQ6P,3VGZ74AYUJWEHZMTR9OBXS32OP2GCF,33IZTU6J85H8WL4937JHP3327UHSX7,5,6
21,1,object_10,object_01,603.0,2,2,276.0,0.6666666666666666,2,object_06,5,374,0,0,6,desert_6,2,memory-2step-stake-s,509,963177,0.0-19.0-0.0-0.21,A1P47Q6LZPLQ6P,3VGZ74AYUJWEHZMTR9OBXS32OP2GCF,33IZTU6J85H8WL4937JHP3327UHSX7,1,2
22,4,object_03,object_04,592.0,8,1,353.0,0.5555555555555556,2,object_06,1,379,0,0,5,restaurant_4,2,memory-2step-stake-s,510,971242,0.0-19.0-0.0-0.22,A1P47Q6LZPLQ6P,3VGZ74AYUJWEHZMTR9OBXS32OP2GCF,33IZTU6J85H8WL4937JHP3327UHSX7,8,7
23,2,object_02,object_05,695.0,4,1,269.0,0.4444444444444444,2,object_06,5,399,0,1,4,forest_1,2,memory-2step-stake-s,511,979117,0.0-19.0-0.0-0.23,A1P47Q6LZPLQ6P,3VGZ74AYUJWEHZMTR9OBXS32OP2GCF,33IZTU6J85H8WL4937JHP3327UHSX7,4,3
24,2,object_05,object_02,759.0,3,1,280.0,0.2222222222222222,1,object_08,5,409,0,2,1,forest_7,2,memory-2step-stake-s,512,986805,0.0-19.0-0.0-0.24,A1P47Q6LZPLQ6P,3VGZ74AYUJWEHZMTR9OBXS32OP2GCF,33IZTU6J85H8WL4937JHP3327UHSX7,3,4
25,2,object_02,object_05,749.0,4,1,305.0,0.2222222222222222,2,object_06,5,419,0,1,2,forest_8,2,memory-2step-stake-s,513,994518,0.0-19.0-0.0-0.25,A1P47Q6LZPLQ6P,3VGZ74AYUJWEHZMTR9OBXS32OP2GCF,33IZTU6J85H8WL4937JHP3327UHSX7,4,3
26,1,object_01,object_10,493.0,1,2,294.0,0.1111111111111111,1,object_08,5,424,0,1,1,desert_6,2,memory-2step-stake-s,514,1002123,0.0-19.0-0.0-0.26,A1P47Q6LZPLQ6P,3VGZ74AYUJWEHZMTR9OBXS32OP2GCF,33IZTU6J85H8WL4937JHP3327UHSX7,2,1
27,1,object_10,object_01,575.0,2,2,302.0,0.3333333333333333,2,object_06,5,439,0,3,3,desert_6,2,memory-2step-stake-s,515,1009937,0.0-19.0-0.0-0.27,A1P47Q6LZPLQ6P,3VGZ74AYUJWEHZMTR9OBXS32OP2GCF,33IZTU6J85H8WL4937JHP3327UHSX7,1,2
28,4,object_04,object_03,805.0,8,2,292.0,0.1111111111111111,2,object_06,1,440,0,1,1,restaurant_4,2,memory-2step-stake-s,516,1017538,0.0-19.0-0.0-0.28,A1P47Q6LZPLQ6P,3VGZ74AYUJWEHZMTR9OBXS32OP2GCF,33IZTU6J85H8WL4937JHP3327UHSX7,7,8
29,2,object_05,object_02,638.0,3,1,250.0,0.3333333333333333,1,object_08,5,455,0,3,1,forest_4,2,memory-2step-stake-s,517,1025299,0.0-19.0-0.0-0.29,A1P47Q6LZPLQ6P,3VGZ74AYUJWEHZMTR9OBXS32OP2GCF,33IZTU6J85H8WL4937JHP3327UHSX7,3,4
30,2,object_02,object_05,927.0,3,2,294.0,0.2222222222222222,1,object_08,5,465,0,2,3,forest_8,2,memory-2step-stake-s,518,1033005,0.0-19.0-0.0-0.30,A1P47Q6LZPLQ6P,3VGZ74AYUJWEHZMTR9OBXS32OP2GCF,33IZTU6J85H8WL4937JHP3327UHSX7,4,3
31,1,object_10,object_01,502.0,1,1,247.0,0.2222222222222222,1,object_08,5,475,0,2,2,desert_7,2,memory-2step-stake-s,519,1040661,0.0-19.0-0.0-0.31,A1P47Q6LZPLQ6P,3VGZ74AYUJWEHZMTR9OBXS32OP2GCF,33IZTU6J85H8WL4937JHP3327UHSX7,1,2
32,3,object_09,object_07,652.0,6,1,286.0,0.5555555555555556,2,object_06,5,500,0,2,5,library_7,2,memory-2step-stake-s,520,1048660,0.0-19.0-0.0-0.32,A1P47Q6LZPLQ6P,3VGZ74AYUJWEHZMTR9OBXS32OP2GCF,33IZTU6J85H8WL4937JHP3327UHSX7,6,5
33,3,object_07,object_09,491.0,6,2,249.0,0.5555555555555556,2,object_06,5,525,0,2,5,library_5,2,memory-2step-stake-s,521,1056622,0.0-19.0-0.0-0.33,A1P47Q6LZPLQ6P,3VGZ74AYUJWEHZMTR9OBXS32OP2GCF,33IZTU6J85H8WL4937JHP3327UHSX7,5,6
34,2,object_02,object_05,592.0,4,1,274.0,0.3333333333333333,2,object_06,5,540,0,6,3,forest_8,2,memory-2step-stake-s,522,1064408,0.0-19.0-0.0-0.34,A1P47Q6LZPLQ6P,3VGZ74AYUJWEHZMTR9OBXS32OP2GCF,33IZTU6J85H8WL4937JHP3327UHSX7,4,3
35,4,object_03,object_04,725.0,7,2,248.0,0.6666666666666666,1,object_08,1,546,0,6,2,restaurant_5,2,memory-2step-stake-s,523,1072466,0.0-19.0-0.0-0.35,A1P47Q6LZPLQ6P,3VGZ74AYUJWEHZMTR9OBXS32OP2GCF,33IZTU6J85H8WL4937JHP3327UHSX7,8,7
36,2,object_05,object_02,700.0,3,1,246.0,0.7777777777777778,1,object_08,5,581,0,7,2,forest_4,2,memory-2step-stake-s,524,1080626,0.0-19.0-0.0-0.36,A1P47Q6LZPLQ6P,3VGZ74AYUJWEHZMTR9OBXS32OP2GCF,33IZTU6J85H8WL4937JHP3327UHSX7,3,4
37,4,object_04,object_03,748.0,7,1,273.0,0.8888888888888888,1,object_08,1,589,0,8,4,restaurant_5,2,memory-2step-stake-s,525,1088912,0.0-19.0-0.0-0.37,A1P47Q6LZPLQ6P,3VGZ74AYUJWEHZMTR9OBXS32OP2GCF,33IZTU6J85H8WL4937JHP3327UHSX7,7,8
38,4,object_04,object_03,721.0,7,1,272.0,0.7777777777777778,1,object_08,1,596,0,7,4,restaurant_6,2,memory-2step-stake-s,526,1097097,0.0-19.0-0.0-0.38,A1P47Q6LZPLQ6P,3VGZ74AYUJWEHZMTR9OBXS32OP2GCF,33IZTU6J85H8WL4937JHP3327UHSX7,7,8
39,2,object_02,object_05,647.0,3,2,358.0,0.5555555555555556,1,object_08,1,601,0,5,2,forest_8,2,memory-2step-stake-s,527,1105171,0.0-19.0-0.0-0.39,A1P47Q6LZPLQ6P,3VGZ74AYUJWEHZMTR9OBXS32OP2GCF,33IZTU6J85H8WL4937JHP3327UHSX7,4,3
40,3,object_09,object_07,777.0,6,1,260.0,0.1111111111111111,2,object_06,1,602,0,5,1,library_5,2,memory-2step-stake-s,528,1112739,0.0-19.0-0.0-0.40,A1P47Q6LZPLQ6P,3VGZ74AYUJWEHZMTR9OBXS32OP2GCF,33IZTU6J85H8WL4937JHP3327UHSX7,6,5
41,2,object_05,object_02,554.0,3,1,250.0,0.6666666666666666,1,object_08,5,632,0,6,1,forest_8,2,memory-2step-stake-s,529,1120798,0.0-19.0-0.0-0.41,A1P47Q6LZPLQ6P,3VGZ74AYUJWEHZMTR9OBXS32OP2GCF,33IZTU6J85H8WL4937JHP3327UHSX7,3,4
42,4,object_04,object_03,796.0,7,1,341.0,0.7777777777777778,1,object_08,1,639,0,7,1,restaurant_4,2,memory-2step-stake-s,530,1129051,0.0-19.0-0.0-0.42,A1P47Q6LZPLQ6P,3VGZ74AYUJWEHZMTR9OBXS32OP2GCF,33IZTU6J85H8WL4937JHP3327UHSX7,7,8
43,1,object_01,object_10,947.0,2,1,264.0,0.3333333333333333,2,object_06,1,642,0,8,3,desert_1,2,memory-2step-stake-s,531,1136827,0.0-19.0-0.0-0.43,A1P47Q6LZPLQ6P,3VGZ74AYUJWEHZMTR9OBXS32OP2GCF,33IZTU6J85H8WL4937JHP3327UHSX7,2,1
44,1,object_01,object_10,438.0,1,2,302.0,0.5555555555555556,1,object_08,1,647,0,5,2,desert_7,2,memory-2step-stake-s,532,1144841,0.0-19.0-0.0-0.44,A1P47Q6LZPLQ6P,3VGZ74AYUJWEHZMTR9OBXS32OP2GCF,33IZTU6J85H8WL4937JHP3327UHSX7,2,1
45,2,object_02,object_05,675.0,3,2,367.0,0.3333333333333333,1,object_08,5,662,0,3,5,forest_4,2,memory-2step-stake-s,533,1152717,0.0-19.0-0.0-0.45,A1P47Q6LZPLQ6P,3VGZ74AYUJWEHZMTR9OBXS32OP2GCF,33IZTU6J85H8WL4937JHP3327UHSX7,4,3
46,3,object_09,object_07,728.0,5,2,481.0,0.0,1,object_08,1,662,0,0,3,library_1,2,memory-2step-stake-s,534,1160402,0.0-19.0-0.0-0.46,A1P47Q6LZPLQ6P,3VGZ74AYUJWEHZMTR9OBXS32OP2GCF,33IZTU6J85H8WL4937JHP3327UHSX7,6,5
47,4,object_04,object_03,794.0,8,2,368.0,0.6666666666666666,2,object_06,5,692,0,1,6,restaurant_5,2,memory-2step-stake-s,535,1168582,0.0-19.0-0.0-0.47,A1P47Q6LZPLQ6P,3VGZ74AYUJWEHZMTR9OBXS32OP2GCF,33IZTU6J85H8WL4937JHP3327UHSX7,7,8
48,3,object_09,object_07,772.0,6,1,252.0,0.7777777777777778,2,object_06,1,699,0,3,7,library_7,2,memory-2step-stake-s,536,1176745,0.0-19.0-0.0-0.48,A1P47Q6LZPLQ6P,3VGZ74AYUJWEHZMTR9OBXS32OP2GCF,33IZTU6J85H8WL4937JHP3327UHSX7,6,5
49,4,object_04,object_03,953.0,8,2,510.0,1.0,2,object_06,1,708,0,0,9,restaurant_5,2,memory-2step-stake-s,537,1185368,0.0-19.0-0.0-0.49,A1P47Q6LZPLQ6P,3VGZ74AYUJWEHZMTR9OBXS32OP2GCF,33IZTU6J85H8WL4937JHP3327UHSX7,7,8
50,2,object_05,object_02,611.0,4,2,293.0,0.7777777777777778,2,object_06,5,743,0,0,7,forest_1,2,memory-2step-stake-s,538,1193571,0.0-19.0-0.0-0.50,A1P47Q6LZPLQ6P,3VGZ74AYUJWEHZMTR9OBXS32OP2GCF,33IZTU6J85H8WL4937JHP3327UHSX7,3,4
51,4,object_03,object_04,635.0,8,1,262.0,1.0,2,object_06,1,752,0,0,9,restaurant_6,2,memory-2step-stake-s,539,1201947,0.0-19.0-0.0-0.51,A1P47Q6LZPLQ6P,3VGZ74AYUJWEHZMTR9OBXS32OP2GCF,33IZTU6J85H8WL4937JHP3327UHSX7,8,7
52,4,object_03,object_04,689.0,8,1,496.0,0.7777777777777778,2,object_06,1,759,0,4,7,restaurant_2,2,memory-2step-stake-s,540,1210356,0.0-19.0-0.0-0.52,A1P47Q6LZPLQ6P,3VGZ74AYUJWEHZMTR9OBXS32OP2GCF,33IZTU6J85H8WL4937JHP3327UHSX7,8,7
53,3,object_09,object_07,1335.0,6,1,553.0,0.5555555555555556,2,object_06,5,784,0,2,5,library_5,2,memory-2step-stake-s,541,1218619,0.0-19.0-0.0-0.53,A1P47Q6LZPLQ6P,3VGZ74AYUJWEHZMTR9OBXS32OP2GCF,33IZTU6J85H8WL4937JHP3327UHSX7,6,5
54,2,object_05,object_02,1152.0,4,2,361.0,0.6666666666666666,2,object_06,1,790,0,1,6,forest_4,2,memory-2step-stake-s,542,1226793,0.0-19.0-0.0-0.54,A1P47Q6LZPLQ6P,3VGZ74AYUJWEHZMTR9OBXS32OP2GCF,33IZTU6J85H8WL4937JHP3327UHSX7,3,4
55,2,object_02,object_05,646.0,4,1,387.0,0.6666666666666666,2,object_06,1,796,0,1,6,forest_7,2,memory-2step-stake-s,543,1234993,0.0-19.0-0.0-0.55,A1P47Q6LZPLQ6P,3VGZ74AYUJWEHZMTR9OBXS32OP2GCF,33IZTU6J85H8WL4937JHP3327UHSX7,4,3
56,4,object_04,object_03,619.0,8,2,373.0,0.7777777777777778,2,object_06,1,803,0,0,7,restaurant_2,2,memory-2step-stake-s,544,1243279,0.0-19.0-0.0-0.56,A1P47Q6LZPLQ6P,3VGZ74AYUJWEHZMTR9OBXS32OP2GCF,33IZTU6J85H8WL4937JHP3327UHSX7,7,8
57,4,object_04,object_03,882.0,7,1,277.0,0.1111111111111111,1,object_08,1,804,0,1,8,restaurant_4,2,memory-2step-stake-s,545,1250863,0.0-19.0-0.0-0.57,A1P47Q6LZPLQ6P,3VGZ74AYUJWEHZMTR9OBXS32OP2GCF,33IZTU6J85H8WL4937JHP3327UHSX7,7,8
58,1,object_01,object_10,547.0,2,1,292.0,0.7777777777777778,2,object_06,5,839,0,3,7,desert_5,2,memory-2step-stake-s,546,1259068,0.0-19.0-0.0-0.58,A1P47Q6LZPLQ6P,3VGZ74AYUJWEHZMTR9OBXS32OP2GCF,33IZTU6J85H8WL4937JHP3327UHSX7,2,1
59,2,object_05,object_02,600.0,4,2,374.0,0.8888888888888888,2,object_06,1,847,0,0,8,forest_1,2,memory-2step-stake-s,547,1267456,0.0-19.0-0.0-0.59,A1P47Q6LZPLQ6P,3VGZ74AYUJWEHZMTR9OBXS32OP2GCF,33IZTU6J85H8WL4937JHP3327UHSX7,3,4
60,2,object_05,object_02,634.0,4,2,471.0,0.5555555555555556,2,object_06,5,872,0,1,5,forest_1,2,memory-2step-stake-s,548,1275638,0.0-19.0-0.0-0.60,A1P47Q6LZPLQ6P,3VGZ74AYUJWEHZMTR9OBXS32OP2GCF,33IZTU6J85H8WL4937JHP3327UHSX7,3,4
61,2,object_05,object_02,493.0,4,2,283.0,0.4444444444444444,2,object_06,5,892,0,1,4,forest_1,2,memory-2step-stake-s,549,1283533,0.0-19.0-0.0-0.61,A1P47Q6LZPLQ6P,3VGZ74AYUJWEHZMTR9OBXS32OP2GCF,33IZTU6J85H8WL4937JHP3327UHSX7,3,4
62,4,object_03,object_04,708.0,7,2,292.0,0.1111111111111111,1,object_08,1,893,0,1,4,restaurant_6,2,memory-2step-stake-s,550,1291134,0.0-19.0-0.0-0.62,A1P47Q6LZPLQ6P,3VGZ74AYUJWEHZMTR9OBXS32OP2GCF,33IZTU6J85H8WL4937JHP3327UHSX7,8,7
63,2,object_05,object_02,591.0,4,2,350.0,0.4444444444444444,2,object_06,5,913,0,2,4,forest_4,2,memory-2step-stake-s,551,1299095,0.0-19.0-0.0-0.63,A1P47Q6LZPLQ6P,3VGZ74AYUJWEHZMTR9OBXS32OP2GCF,33IZTU6J85H8WL4937JHP3327UHSX7,3,4
64,4,object_04,object_03,788.0,7,1,255.0,0.1111111111111111,1,object_08,1,914,0,1,6,restaurant_6,2,memory-2step-stake-s,552,1306657,0.0-19.0-0.0-0.64,A1P47Q6LZPLQ6P,3VGZ74AYUJWEHZMTR9OBXS32OP2GCF,33IZTU6J85H8WL4937JHP3327UHSX7,7,8
65,3,object_09,object_07,640.0,6,1,445.0,0.6666666666666666,2,object_06,5,944,0,2,6,library_8,2,memory-2step-stake-s,553,1314910,0.0-19.0-0.0-0.65,A1P47Q6LZPLQ6P,3VGZ74AYUJWEHZMTR9OBXS32OP2GCF,33IZTU6J85H8WL4937JHP3327UHSX7,6,5
66,4,object_04,object_03,606.0,8,2,296.0,0.8888888888888888,2,object_06,1,952,0,2,8,restaurant_6,2,memory-2step-stake-s,554,1323221,0.0-19.0-0.0-0.66,A1P47Q6LZPLQ6P,3VGZ74AYUJWEHZMTR9OBXS32OP2GCF,33IZTU6J85H8WL4937JHP3327UHSX7,7,8
67,3,object_07,object_09,599.0,5,1,202.0,0.0,1,object_08,1,952,0,0,6,library_8,2,memory-2step-stake-s,555,1330634,0.0-19.0-0.0-0.67,A1P47Q6LZPLQ6P,3VGZ74AYUJWEHZMTR9OBXS32OP2GCF,33IZTU6J85H8WL4937JHP3327UHSX7,5,6
68,1,object_10,object_01,410.0,2,2,244.0,0.5555555555555556,2,object_06,1,957,0,0,5,desert_1,2,memory-2step-stake-s,556,1338587,0.0-19.0-0.0-0.68,A1P47Q6LZPLQ6P,3VGZ74AYUJWEHZMTR9OBXS32OP2GCF,33IZTU6J85H8WL4937JHP3327UHSX7,1,2
69,3,object_09,object_07,795.0,6,1,239.0,0.8888888888888888,2,object_06,1,965,0,3,8,library_7,2,memory-2step-stake-s,557,1346835,0.0-19.0-0.0-0.69,A1P47Q6LZPLQ6P,3VGZ74AYUJWEHZMTR9OBXS32OP2GCF,33IZTU6J85H8WL4937JHP3327UHSX7,6,5
70,4,object_03,object_04,588.0,8,1,228.0,0.6666666666666666,2,object_06,1,971,0,3,6,restaurant_6,2,memory-2step-stake-s,558,1354874,0.0-19.0-0.0-0.70,A1P47Q6LZPLQ6P,3VGZ74AYUJWEHZMTR9OBXS32OP2GCF,33IZTU6J85H8WL4937JHP3327UHSX7,8,7
71,2,object_02,object_05,678.0,4,1,259.0,0.5555555555555556,2,object_06,5,996,0,2,5,forest_4,2,memory-2step-stake-s,559,1362846,0.0-19.0-0.0-0.71,A1P47Q6LZPLQ6P,3VGZ74AYUJWEHZMTR9OBXS32OP2GCF,33IZTU6J85H8WL4937JHP3327UHSX7,4,3
72,4,object_03,object_04,577.0,8,1,272.0,0.5555555555555556,2,object_06,1,1001,0,3,5,restaurant_6,2,memory-2step-stake-s,560,1370834,0.0-19.0-0.0-0.72,A1P47Q6LZPLQ6P,3VGZ74AYUJWEHZMTR9OBXS32OP2GCF,33IZTU6J85H8WL4937JHP3327UHSX7,8,7
73,1,object_10,object_01,338.0,2,2,283.0,0.7777777777777778,2,object_06,5,1036,0,3,7,desert_5,2,memory-2step-stake-s,561,1379032,0.0-19.0-0.0-0.73,A1P47Q6LZPLQ6P,3VGZ74AYUJWEHZMTR9OBXS32OP2GCF,33IZTU6J85H8WL4937JHP3327UHSX7,1,2
74,2,object_05,object_02,637.0,4,2,291.0,0.5555555555555556,2,object_06,5,1061,0,2,5,forest_7,2,memory-2step-stake-s,562,1387035,0.0-19.0-0.0-0.74,A1P47Q6LZPLQ6P,3VGZ74AYUJWEHZMTR9OBXS32OP2GCF,33IZTU6J85H8WL4937JHP3327UHSX7,3,4
75,2,object_02,object_05,597.0,4,1,376.0,0.4444444444444444,2,object_06,5,1081,0,5,4,forest_8,2,memory-2step-stake-s,563,1395026,0.0-19.0-0.0-0.75,A1P47Q6LZPLQ6P,3VGZ74AYUJWEHZMTR9OBXS32OP2GCF,33IZTU6J85H8WL4937JHP3327UHSX7,4,3
76,1,object_01,object_10,413.0,1,2,247.0,0.3333333333333333,1,object_08,1,1084,0,3,7,desert_1,2,memory-2step-stake-s,564,1402782,0.0-19.0-0.0-0.76,A1P47Q6LZPLQ6P,3VGZ74AYUJWEHZMTR9OBXS32OP2GCF,33IZTU6J85H8WL4937JHP3327UHSX7,2,1
77,4,object_04,object_03,668.0,8,2,278.0,0.4444444444444444,2,object_06,1,1088,0,4,4,restaurant_2,2,memory-2step-stake-s,565,1410671,0.0-19.0-0.0-0.77,A1P47Q6LZPLQ6P,3VGZ74AYUJWEHZMTR9OBXS32OP2GCF,33IZTU6J85H8WL4937JHP3327UHSX7,7,8
78,4,object_03,object_04,703.0,7,2,240.0,0.2222222222222222,1,object_08,1,1090,0,2,9,restaurant_4,2,memory-2step-stake-s,566,1418320,0.0-19.0-0.0-0.78,A1P47Q6LZPLQ6P,3VGZ74AYUJWEHZMTR9OBXS32OP2GCF,33IZTU6J85H8WL4937JHP3327UHSX7,8,7
79,2,object_02,object_05,670.0,4,1,269.0,0.7777777777777778,2,object_06,5,1125,0,0,7,forest_7,2,memory-2step-stake-s,567,1426498,0.0-19.0-0.0-0.79,A1P47Q6LZPLQ6P,3VGZ74AYUJWEHZMTR9OBXS32OP2GCF,33IZTU6J85H8WL4937JHP3327UHSX7,4,3
80,1,object_10,object_01,570.0,2,2,360.0,0.2222222222222222,2,object_06,5,1135,0,1,2,desert_6,2,memory-2step-stake-s,568,1434269,0.0-19.0-0.0-0.80,A1P47Q6LZPLQ6P,3VGZ74AYUJWEHZMTR9OBXS32OP2GCF,33IZTU6J85H8WL4937JHP3327UHSX7,1,2
81,2,object_02,object_05,638.0,4,1,260.0,0.1111111111111111,2,object_06,5,1140,0,3,1,forest_1,2,memory-2step-stake-s,569,1441838,0.0-19.0-0.0-0.81,A1P47Q6LZPLQ6P,3VGZ74AYUJWEHZMTR9OBXS32OP2GCF,33IZTU6J85H8WL4937JHP3327UHSX7,4,3
82,2,object_05,object_02,800.0,3,1,274.0,0.1111111111111111,1,object_08,5,1145,0,1,2,forest_7,2,memory-2step-stake-s,570,1449418,0.0-19.0-0.0-0.82,A1P47Q6LZPLQ6P,3VGZ74AYUJWEHZMTR9OBXS32OP2GCF,33IZTU6J85H8WL4937JHP3327UHSX7,3,4
83,2,object_02,object_05,743.0,4,1,306.0,0.4444444444444444,2,object_06,5,1165,0,0,4,forest_4,2,memory-2step-stake-s,571,1457336,0.0-19.0-0.0-0.83,A1P47Q6LZPLQ6P,3VGZ74AYUJWEHZMTR9OBXS32OP2GCF,33IZTU6J85H8WL4937JHP3327UHSX7,4,3
84,4,object_03,object_04,697.0,7,2,253.0,0.2222222222222222,1,object_08,1,1167,0,2,1,restaurant_2,2,memory-2step-stake-s,572,1464996,0.0-19.0-0.0-0.84,A1P47Q6LZPLQ6P,3VGZ74AYUJWEHZMTR9OBXS32OP2GCF,33IZTU6J85H8WL4937JHP3327UHSX7,8,7
85,3,object_07,object_09,673.0,6,2,341.0,0.2222222222222222,2,object_06,1,1169,0,2,2,library_1,2,memory-2step-stake-s,573,1472747,0.0-19.0-0.0-0.85,A1P47Q6LZPLQ6P,3VGZ74AYUJWEHZMTR9OBXS32OP2GCF,33IZTU6J85H8WL4937JHP3327UHSX7,5,6
86,4,object_03,object_04,740.0,8,1,300.0,0.1111111111111111,2,object_06,1,1170,0,3,1,restaurant_6,2,memory-2step-stake-s,574,1480353,0.0-19.0-0.0-0.86,A1P47Q6LZPLQ6P,3VGZ74AYUJWEHZMTR9OBXS32OP2GCF,33IZTU6J85H8WL4937JHP3327UHSX7,8,7
87,1,object_01,object_10,683.0,1,2,260.0,0.1111111111111111,1,object_08,5,1175,0,1,3,desert_6,2,memory-2step-stake-s,575,1487919,0.0-19.0-0.0-0.87,A1P47Q6LZPLQ6P,3VGZ74AYUJWEHZMTR9OBXS32OP2GCF,33IZTU6J85H8WL4937JHP3327UHSX7,2,1
88,2,object_02,object_05,458.0,4,1,241.0,0.4444444444444444,2,object_06,5,1195,0,4,4,forest_8,2,memory-2step-stake-s,576,1495774,0.0-19.0-0.0-0.88,A1P47Q6LZPLQ6P,3VGZ74AYUJWEHZMTR9OBXS32OP2GCF,33IZTU6J85H8WL4937JHP3327UHSX7,4,3
89,1,object_01,object_10,579.0,2,1,369.0,0.2222222222222222,2,object_06,5,1205,0,5,2,desert_5,2,memory-2step-stake-s,577,1503553,0.0-19.0-0.0-0.89,A1P47Q6LZPLQ6P,3VGZ74AYUJWEHZMTR9OBXS32OP2GCF,33IZTU6J85H8WL4937JHP3327UHSX7,2,1
90,2,object_02,object_05,579.0,4,1,359.0,0.0,2,object_06,5,1205,0,2,0,forest_1,2,memory-2step-stake-s,578,1511118,0.0-19.0-0.0-0.90,A1P47Q6LZPLQ6P,3VGZ74AYUJWEHZMTR9OBXS32OP2GCF,33IZTU6J85H8WL4937JHP3327UHSX7,4,3
91,3,object_09,object_07,578.0,5,2,317.0,0.1111111111111111,1,object_08,1,1206,0,1,0,library_1,2,memory-2step-stake-s,579,1518742,0.0-19.0-0.0-0.91,A1P47Q6LZPLQ6P,3VGZ74AYUJWEHZMTR9OBXS32OP2GCF,33IZTU6J85H8WL4937JHP3327UHSX7,6,5
92,2,object_02,object_05,675.0,4,1,329.0,0.3333333333333333,2,object_06,5,1221,0,1,3,forest_8,2,memory-2step-stake-s,580,1526584,0.0-19.0-0.0-0.92,A1P47Q6LZPLQ6P,3VGZ74AYUJWEHZMTR9OBXS32OP2GCF,33IZTU6J85H8WL4937JHP3327UHSX7,4,3
93,2,object_02,object_05,578.0,3,2,346.0,0.4444444444444444,1,object_08,1,1225,0,4,3,forest_1,2,memory-2step-stake-s,581,1534543,0.0-19.0-0.0-0.93,A1P47Q6LZPLQ6P,3VGZ74AYUJWEHZMTR9OBXS32OP2GCF,33IZTU6J85H8WL4937JHP3327UHSX7,4,3
94,1,object_01,object_10,633.0,1,2,333.0,0.3333333333333333,1,object_08,5,1240,0,3,4,desert_7,2,memory-2step-stake-s,582,1542386,0.0-19.0-0.0-0.94,A1P47Q6LZPLQ6P,3VGZ74AYUJWEHZMTR9OBXS32OP2GCF,33IZTU6J85H8WL4937JHP3327UHSX7,2,1
95,4,object_03,object_04,609.0,8,1,279.0,0.5555555555555556,2,object_06,1,1245,0,1,5,restaurant_5,2,memory-2step-stake-s,583,1550377,0.0-19.0-0.0-0.95,A1P47Q6LZPLQ6P,3VGZ74AYUJWEHZMTR9OBXS32OP2GCF,33IZTU6J85H8WL4937JHP3327UHSX7,8,7
96,2,object_05,object_02,550.0,4,2,318.0,0.3333333333333333,2,object_06,5,1260,0,1,3,forest_4,2,memory-2step-stake-s,584,1558203,0.0-19.0-0.0-0.96,A1P47Q6LZPLQ6P,3VGZ74AYUJWEHZMTR9OBXS32OP2GCF,33IZTU6J85H8WL4937JHP3327UHSX7,3,4
97,2,object_05,object_02,556.0,4,2,361.0,0.5555555555555556,2,object_06,5,1285,0,1,5,forest_4,2,memory-2step-stake-s,585,1566278,0.0-19.0-0.0-0.97,A1P47Q6LZPLQ6P,3VGZ74AYUJWEHZMTR9OBXS32OP2GCF,33IZTU6J85H8WL4937JHP3327UHSX7,3,4
98,2,object_02,object_05,665.0,3,2,268.0,0.0,1,object_08,1,1285,0,0,3,forest_1,2,memory-2step-stake-s,586,1573756,0.0-19.0-0.0-0.98,A1P47Q6LZPLQ6P,3VGZ74AYUJWEHZMTR9OBXS32OP2GCF,33IZTU6J85H8WL4937JHP3327UHSX7,4,3
99,2,object_02,object_05,602.0,4,1,400.0,0.1111111111111111,2,object_06,5,1290,0,2,1,forest_1,2,memory-2step-stake-s,587,1581465,0.0-19.0-0.0-0.99,A1P47Q6LZPLQ6P,3VGZ74AYUJWEHZMTR9OBXS32OP2GCF,33IZTU6J85H8WL4937JHP3327UHSX7,4,3
100,4,object_03,object_04,500.0,8,1,278.0,0.1111111111111111,2,object_06,1,1291,0,4,1,restaurant_6,2,memory-2step-stake-s,588,1589052,0.0-19.0-0.0-0.100,A1P47Q6LZPLQ6P,3VGZ74AYUJWEHZMTR9OBXS32OP2GCF,33IZTU6J85H8WL4937JHP3327UHSX7,8,7
101,3,object_07,object_09,731.0,5,1,373.0,0.3333333333333333,1,object_08,1,1294,0,3,2,library_7,2,memory-2step-stake-s,589,1596934,0.0-19.0-0.0-0.101,A1P47Q6LZPLQ6P,3VGZ74AYUJWEHZMTR9OBXS32OP2GCF,33IZTU6J85H8WL4937JHP3327UHSX7,5,6
102,1,object_01,object_10,653.0,1,2,270.0,0.5555555555555556,1,object_08,5,1319,0,5,5,desert_1,2,memory-2step-stake-s,590,1604913,0.0-19.0-0.0-0.102,A1P47Q6LZPLQ6P,3VGZ74AYUJWEHZMTR9OBXS32OP2GCF,33IZTU6J85H8WL4937JHP3327UHSX7,2,1
103,1,object_10,object_01,628.0,1,1,242.0,0.5555555555555556,1,object_08,5,1344,0,5,2,desert_7,2,memory-2step-stake-s,591,1612866,0.0-19.0-0.0-0.103,A1P47Q6LZPLQ6P,3VGZ74AYUJWEHZMTR9OBXS32OP2GCF,33IZTU6J85H8WL4937JHP3327UHSX7,1,2
104,3,object_09,object_07,931.0,6,1,295.0,0.2222222222222222,2,object_06,1,1346,0,4,2,library_5,2,memory-2step-stake-s,592,1620568,0.0-19.0-0.0-0.104,A1P47Q6LZPLQ6P,3VGZ74AYUJWEHZMTR9OBXS32OP2GCF,33IZTU6J85H8WL4937JHP3327UHSX7,6,5
105,1,object_01,object_10,561.0,1,2,318.0,0.7777777777777778,1,object_08,5,1381,0,7,1,desert_1,2,memory-2step-stake-s,593,1628797,0.0-19.0-0.0-0.105,A1P47Q6LZPLQ6P,3VGZ74AYUJWEHZMTR9OBXS32OP2GCF,33IZTU6J85H8WL4937JHP3327UHSX7,2,1
106,2,object_05,object_02,572.0,3,1,282.0,0.5555555555555556,1,object_08,1,1386,0,5,3,forest_8,2,memory-2step-stake-s,594,1636790,0.0-19.0-0.0-0.106,A1P47Q6LZPLQ6P,3VGZ74AYUJWEHZMTR9OBXS32OP2GCF,33IZTU6J85H8WL4937JHP3327UHSX7,3,4
107,4,object_03,object_04,642.0,7,2,273.0,0.5555555555555556,1,object_08,1,1391,0,5,4,restaurant_4,2,memory-2step-stake-s,595,1644775,0.0-19.0-0.0-0.107,A1P47Q6LZPLQ6P,3VGZ74AYUJWEHZMTR9OBXS32OP2GCF,33IZTU6J85H8WL4937JHP3327UHSX7,8,7
108,3,object_09,object_07,721.0,6,1,231.0,0.2222222222222222,2,object_06,1,1393,0,3,2,library_5,2,memory-2step-stake-s,596,1652415,0.0-19.0-0.0-0.108,A1P47Q6LZPLQ6P,3VGZ74AYUJWEHZMTR9OBXS32OP2GCF,33IZTU6J85H8WL4937JHP3327UHSX7,6,5
109,3,object_09,object_07,701.0,5,2,256.0,0.3333333333333333,1,object_08,1,1396,0,3,4,library_7,2,memory-2step-stake-s,597,1660180,0.0-19.0-0.0-0.109,A1P47Q6LZPLQ6P,3VGZ74AYUJWEHZMTR9OBXS32OP2GCF,33IZTU6J85H8WL4937JHP3327UHSX7,6,5
110,4,object_03,object_04,342.0,8,1,267.0,0.5555555555555556,2,object_06,1,1401,0,2,5,restaurant_6,2,memory-2step-stake-s,598,1668159,0.0-19.0-0.0-0.110,A1P47Q6LZPLQ6P,3VGZ74AYUJWEHZMTR9OBXS32OP2GCF,33IZTU6J85H8WL4937JHP3327UHSX7,8,7
111,1,object_10,object_01,572.0,2,2,269.0,0.5555555555555556,2,object_06,5,1426,0,6,5,desert_7,2,memory-2step-stake-s,599,1676140,0.0-19.0-0.0-0.111,A1P47Q6LZPLQ6P,3VGZ74AYUJWEHZMTR9OBXS32OP2GCF,33IZTU6J85H8WL4937JHP3327UHSX7,1,2
112,2,object_05,object_02,402.0,4,2,358.0,0.8888888888888888,2,object_06,5,1466,0,5,8,forest_8,2,memory-2step-stake-s,600,1684512,0.0-19.0-0.0-0.112,A1P47Q6LZPLQ6P,3VGZ74AYUJWEHZMTR9OBXS32OP2GCF,33IZTU6J85H8WL4937JHP3327UHSX7,3,4
113,4,object_04,object_03,692.0,8,2,226.0,0.6666666666666666,2,object_06,5,1496,0,6,6,restaurant_5,2,memory-2step-stake-s,601,1692551,0.0-19.0-0.0-0.113,A1P47Q6LZPLQ6P,3VGZ74AYUJWEHZMTR9OBXS32OP2GCF,33IZTU6J85H8WL4937JHP3327UHSX7,7,8
114,4,object_03,object_04,564.0,7,2,195.0,0.6666666666666666,1,object_08,1,1502,0,6,4,restaurant_5,2,memory-2step-stake-s,602,1700555,0.0-19.0-0.0-0.114,A1P47Q6LZPLQ6P,3VGZ74AYUJWEHZMTR9OBXS32OP2GCF,33IZTU6J85H8WL4937JHP3327UHSX7,8,7
115,3,object_09,object_07,667.0,6,1,107.0,0.5555555555555556,2,object_06,1,1507,0,5,5,library_7,2,memory-2step-stake-s,603,1708370,0.0-19.0-0.0-0.115,A1P47Q6LZPLQ6P,3VGZ74AYUJWEHZMTR9OBXS32OP2GCF,33IZTU6J85H8WL4937JHP3327UHSX7,6,5
116,4,object_03,object_04,488.0,7,2,243.0,0.3333333333333333,1,object_08,1,1510,0,3,5,restaurant_2,2,memory-2step-stake-s,604,1716121,0.0-19.0-0.0-0.116,A1P47Q6LZPLQ6P,3VGZ74AYUJWEHZMTR9OBXS32OP2GCF,33IZTU6J85H8WL4937JHP3327UHSX7,8,7
117,2,object_02,object_05,409.0,4,1,232.0,0.7777777777777778,2,object_06,5,1545,0,6,7,forest_7,2,memory-2step-stake-s,605,1724267,0.0-19.0-0.0-0.117,A1P47Q6LZPLQ6P,3VGZ74AYUJWEHZMTR9OBXS32OP2GCF,33IZTU6J85H8WL4937JHP3327UHSX7,4,3
118,2,object_05,object_02,394.0,4,2,270.0,0.6666666666666666,2,object_06,5,1575,0,5,6,forest_8,2,memory-2step-stake-s,606,1732352,0.0-19.0-0.0-0.118,A1P47Q6LZPLQ6P,3VGZ74AYUJWEHZMTR9OBXS32OP2GCF,33IZTU6J85H8WL4937JHP3327UHSX7,3,4
119,1,object_10,object_01,628.0,2,2,237.0,0.4444444444444444,2,object_06,1,1579,0,6,4,desert_1,2,memory-2step-stake-s,607,1740202,0.0-19.0-0.0-0.119,A1P47Q6LZPLQ6P,3VGZ74AYUJWEHZMTR9OBXS32OP2GCF,33IZTU6J85H8WL4937JHP3327UHSX7,1,2
120,2,object_05,object_02,548.0,4,2,235.0,0.4444444444444444,2,object_06,5,1599,0,8,4,forest_7,2,memory-2step-stake-s,608,1748049,0.0-19.0-0.0-0.120,A1P47Q6LZPLQ6P,3VGZ74AYUJWEHZMTR9OBXS32OP2GCF,33IZTU6J85H8WL4937JHP3327UHSX7,3,4
121,1,object_10,object_01,550.0,1,1,309.0,1.0,1,object_08,1,1608,0,9,4,desert_1,2,memory-2step-stake-s,609,1756472,0.0-19.0-0.0-0.121,A1P47Q6LZPLQ6P,3VGZ74AYUJWEHZMTR9OBXS32OP2GCF,33IZTU6J85H8WL4937JHP3327UHSX7,1,2
122,3,object_09,object_07,586.0,5,2,243.0,0.8888888888888888,1,object_08,1,1616,0,8,4,library_8,2,memory-2step-stake-s,610,1764727,0.0-19.0-0.0-0.122,A1P47Q6LZPLQ6P,3VGZ74AYUJWEHZMTR9OBXS32OP2GCF,33IZTU6J85H8WL4937JHP3327UHSX7,6,5
123,2,object_02,object_05,371.0,3,2,390.0,0.8888888888888888,1,object_08,5,1656,0,8,5,forest_1,2,memory-2step-stake-s,611,1773133,0.0-19.0-0.0-0.123,A1P47Q6LZPLQ6P,3VGZ74AYUJWEHZMTR9OBXS32OP2GCF,33IZTU6J85H8WL4937JHP3327UHSX7,4,3
124,1,object_01,object_10,710.0,1,2,282.0,0.6666666666666666,1,object_08,5,1686,0,6,2,desert_5,2,memory-2step-stake-s,612,1781231,0.0-19.0-0.0-0.124,A1P47Q6LZPLQ6P,3VGZ74AYUJWEHZMTR9OBXS32OP2GCF,33IZTU6J85H8WL4937JHP3327UHSX7,2,1
125,4,object_03,object_04,727.0,7,2,376.0,0.3333333333333333,1,object_08,5,1701,0,3,2,restaurant_5,2,memory-2step-stake-s,613,1789117,0.0-19.0-0.0-0.125,A1P47Q6LZPLQ6P,3VGZ74AYUJWEHZMTR9OBXS32OP2GCF,33IZTU6J85H8WL4937JHP3327UHSX7,8,7
126,3,object_07,object_09,524.0,6,2,347.0,0.1111111111111111,2,object_06,1,1702,0,3,1,library_8,2,memory-2step-stake-s,614,1796776,0.0-19.0-0.0-0.126,A1P47Q6LZPLQ6P,3VGZ74AYUJWEHZMTR9OBXS32OP2GCF,33IZTU6J85H8WL4937JHP3327UHSX7,5,6
127,3,object_09,object_07,547.0,5,2,328.0,0.3333333333333333,1,object_08,1,1705,0,3,1,library_1,2,memory-2step-stake-s,615,1804611,0.0-19.0-0.0-0.127,A1P47Q6LZPLQ6P,3VGZ74AYUJWEHZMTR9OBXS32OP2GCF,33IZTU6J85H8WL4937JHP3327UHSX7,6,5
128,1,object_01,object_10,772.0,1,2,259.0,0.2222222222222222,1,object_08,1,1707,0,2,1,desert_5,2,memory-2step-stake-s,617,2074365,0.0-19.0-0.1-0.128,A1P47Q6LZPLQ6P,3VGZ74AYUJWEHZMTR9OBXS32OP2GCF,33IZTU6J85H8WL4937JHP3327UHSX7,2,1
129,4,object_03,object_04,653.0,8,1,239.0,0.2222222222222222,2,object_06,1,1709,0,2,2,restaurant_4,2,memory-2step-stake-s,618,2082010,0.0-19.0-0.1-0.129,A1P47Q6LZPLQ6P,3VGZ74AYUJWEHZMTR9OBXS32OP2GCF,33IZTU6J85H8WL4937JHP3327UHSX7,8,7
130,4,object_03,object_04,556.0,8,1,311.0,0.5555555555555556,2,object_06,1,1714,0,3,5,restaurant_6,2,memory-2step-stake-s,619,2090032,0.0-19.0-0.1-0.130,A1P47Q6LZPLQ6P,3VGZ74AYUJWEHZMTR9OBXS32OP2GCF,33IZTU6J85H8WL4937JHP3327UHSX7,8,7
131,3,object_09,object_07,1007.0,6,1,435.0,0.5555555555555556,2,object_06,1,1719,0,4,5,library_7,2,memory-2step-stake-s,620,2098177,0.0-19.0-0.1-0.131,A1P47Q6LZPLQ6P,3VGZ74AYUJWEHZMTR9OBXS32OP2GCF,33IZTU6J85H8WL4937JHP3327UHSX7,6,5
132,2,object_05,object_02,590.0,4,2,293.0,0.5555555555555556,2,object_06,5,1744,0,5,5,forest_1,2,memory-2step-stake-s,621,2106182,0.0-19.0-0.1-0.132,A1P47Q6LZPLQ6P,3VGZ74AYUJWEHZMTR9OBXS32OP2GCF,33IZTU6J85H8WL4937JHP3327UHSX7,3,4
133,1,object_10,object_01,531.0,2,2,373.0,0.5555555555555556,2,object_06,5,1769,0,4,5,desert_1,2,memory-2step-stake-s,622,2114264,0.0-19.0-0.1-0.133,A1P47Q6LZPLQ6P,3VGZ74AYUJWEHZMTR9OBXS32OP2GCF,33IZTU6J85H8WL4937JHP3327UHSX7,1,2
134,4,object_04,object_03,558.0,8,2,365.0,0.7777777777777778,2,object_06,5,1804,0,5,7,restaurant_2,2,memory-2step-stake-s,623,2122540,0.0-19.0-0.1-0.134,A1P47Q6LZPLQ6P,3VGZ74AYUJWEHZMTR9OBXS32OP2GCF,33IZTU6J85H8WL4937JHP3327UHSX7,7,8
135,4,object_04,object_03,673.0,7,1,252.0,0.4444444444444444,1,object_08,1,1808,0,4,8,restaurant_6,2,memory-2step-stake-s,624,2130400,0.0-19.0-0.1-0.135,A1P47Q6LZPLQ6P,3VGZ74AYUJWEHZMTR9OBXS32OP2GCF,33IZTU6J85H8WL4937JHP3327UHSX7,7,8
136,1,object_01,object_10,550.0,2,1,253.0,0.6666666666666666,2,object_06,5,1838,0,3,6,desert_7,2,memory-2step-stake-s,625,2138463,0.0-19.0-0.1-0.136,A1P47Q6LZPLQ6P,3VGZ74AYUJWEHZMTR9OBXS32OP2GCF,33IZTU6J85H8WL4937JHP3327UHSX7,2,1
137,1,object_01,object_10,548.0,2,1,266.0,0.5555555555555556,2,object_06,5,1863,0,2,5,desert_5,2,memory-2step-stake-s,626,2146440,0.0-19.0-0.1-0.137,A1P47Q6LZPLQ6P,3VGZ74AYUJWEHZMTR9OBXS32OP2GCF,33IZTU6J85H8WL4937JHP3327UHSX7,2,1
138,2,object_02,object_05,468.0,3,2,251.0,0.2222222222222222,1,object_08,5,1873,0,2,7,forest_7,2,memory-2step-stake-s,627,2154097,0.0-19.0-0.1-0.138,A1P47Q6LZPLQ6P,3VGZ74AYUJWEHZMTR9OBXS32OP2GCF,33IZTU6J85H8WL4937JHP3327UHSX7,4,3
139,2,object_02,object_05,468.0,4,1,209.0,0.4444444444444444,2,object_06,1,1877,0,2,4,forest_1,2,memory-2step-stake-s,628,2161916,0.0-19.0-0.1-0.139,A1P47Q6LZPLQ6P,3VGZ74AYUJWEHZMTR9OBXS32OP2GCF,33IZTU6J85H8WL4937JHP3327UHSX7,4,3
140,3,object_07,object_09,667.0,6,2,234.0,0.3333333333333333,2,object_06,1,1880,0,3,3,library_8,2,memory-2step-stake-s,629,2169660,0.0-19.0-0.1-0.140,A1P47Q6LZPLQ6P,3VGZ74AYUJWEHZMTR9OBXS32OP2GCF,33IZTU6J85H8WL4937JHP3327UHSX7,5,6
141,3,object_07,object_09,567.0,5,1,255.0,0.3333333333333333,1,object_08,1,1883,0,3,6,library_1,2,memory-2step-stake-s,630,2177423,0.0-19.0-0.1-0.141,A1P47Q6LZPLQ6P,3VGZ74AYUJWEHZMTR9OBXS32OP2GCF,33IZTU6J85H8WL4937JHP3327UHSX7,5,6
142,3,object_07,object_09,723.0,5,1,262.0,0.4444444444444444,1,object_08,1,1887,0,4,9,library_5,2,memory-2step-stake-s,631,2185298,0.0-19.0-0.1-0.142,A1P47Q6LZPLQ6P,3VGZ74AYUJWEHZMTR9OBXS32OP2GCF,33IZTU6J85H8WL4937JHP3327UHSX7,5,6
143,4,object_03,object_04,605.0,8,1,256.0,1.0,2,object_06,1,1896,0,8,9,restaurant_5,2,memory-2step-stake-s,632,2193666,0.0-19.0-0.1-0.143,A1P47Q6LZPLQ6P,3VGZ74AYUJWEHZMTR9OBXS32OP2GCF,33IZTU6J85H8WL4937JHP3327UHSX7,8,7
144,4,object_04,object_03,592.0,8,2,282.0,0.6666666666666666,2,object_06,5,1926,0,9,6,restaurant_5,2,memory-2step-stake-s,633,2201758,0.0-19.0-0.1-0.144,A1P47Q6LZPLQ6P,3VGZ74AYUJWEHZMTR9OBXS32OP2GCF,33IZTU6J85H8WL4937JHP3327UHSX7,7,8
145,2,object_05,object_02,579.0,4,2,305.0,0.6666666666666666,2,object_06,5,1956,0,9,6,forest_7,2,memory-2step-stake-s,634,2209876,0.0-19.0-0.1-0.145,A1P47Q6LZPLQ6P,3VGZ74AYUJWEHZMTR9OBXS32OP2GCF,33IZTU6J85H8WL4937JHP3327UHSX7,3,4
146,3,object_09,object_07,563.0,5,2,259.0,0.7777777777777778,1,object_08,1,1963,0,7,2,library_7,2,memory-2step-stake-s,635,2218045,0.0-19.0-0.1-0.146,A1P47Q6LZPLQ6P,3VGZ74AYUJWEHZMTR9OBXS32OP2GCF,33IZTU6J85H8WL4937JHP3327UHSX7,6,5
147,3,object_07,object_09,504.0,5,1,326.0,0.8888888888888888,1,object_08,1,1971,0,8,2,library_1,2,memory-2step-stake-s,636,2226387,0.0-19.0-0.1-0.147,A1P47Q6LZPLQ6P,3VGZ74AYUJWEHZMTR9OBXS32OP2GCF,33IZTU6J85H8WL4937JHP3327UHSX7,5,6
148,3,object_09,object_07,466.0,5,2,341.0,0.8888888888888888,1,object_08,1,1979,0,8,1,library_7,2,memory-2step-stake-s,637,2234737,0.0-19.0-0.1-0.148,A1P47Q6LZPLQ6P,3VGZ74AYUJWEHZMTR9OBXS32OP2GCF,33IZTU6J85H8WL4937JHP3327UHSX7,6,5
149,3,object_07,object_09,441.0,5,1,300.0,0.8888888888888888,1,object_08,1,1987,0,8,1,library_1,2,memory-2step-stake-s,638,2243046,0.0-19.0-0.1-0.149,A1P47Q6LZPLQ6P,3VGZ74AYUJWEHZMTR9OBXS32OP2GCF,33IZTU6J85H8WL4937JHP3327UHSX7,5,6
150,4,object_03,object_04,669.0,7,2,255.0,0.8888888888888888,1,object_08,5,2027,0,8,2,restaurant_4,2,memory-2step-stake-s,639,2251316,0.0-19.0-0.1-0.150,A1P47Q6LZPLQ6P,3VGZ74AYUJWEHZMTR9OBXS32OP2GCF,33IZTU6J85H8WL4937JHP3327UHSX7,8,7
151,1,object_10,object_01,681.0,1,1,252.0,0.7777777777777778,1,object_08,1,2034,0,7,7,desert_1,2,memory-2step-stake-s,640,2259480,0.0-19.0-0.1-0.151,A1P47Q6LZPLQ6P,3VGZ74AYUJWEHZMTR9OBXS32OP2GCF,33IZTU6J85H8WL4937JHP3327UHSX7,1,2
152,1,object_01,object_10,471.0,1,2,235.0,0.7777777777777778,1,object_08,5,2069,0,7,9,desert_7,2,memory-2step-stake-s,641,2267630,0.0-19.0-0.1-0.152,A1P47Q6LZPLQ6P,3VGZ74AYUJWEHZMTR9OBXS32OP2GCF,33IZTU6J85H8WL4937JHP3327UHSX7,2,1
153,3,object_09,object_07,515.0,5,2,373.0,0.5555555555555556,1,object_08,1,2074,0,5,7,library_8,2,memory-2step-stake-s,642,2275717,0.0-19.0-0.1-0.153,A1P47Q6LZPLQ6P,3VGZ74AYUJWEHZMTR9OBXS32OP2GCF,33IZTU6J85H8WL4937JHP3327UHSX7,6,5
154,3,object_07,object_09,468.0,5,1,397.0,0.2222222222222222,1,object_08,1,2076,0,2,4,library_1,2,memory-2step-stake-s,643,2283526,0.0-19.0-0.1-0.154,A1P47Q6LZPLQ6P,3VGZ74AYUJWEHZMTR9OBXS32OP2GCF,33IZTU6J85H8WL4937JHP3327UHSX7,5,6
155,1,object_10,object_01,672.0,2,2,228.0,0.1111111111111111,2,object_06,5,2081,0,0,1,desert_1,2,memory-2step-stake-s,644,2291065,0.0-19.0-0.1-0.155,A1P47Q6LZPLQ6P,3VGZ74AYUJWEHZMTR9OBXS32OP2GCF,33IZTU6J85H8WL4937JHP3327UHSX7,1,2
156,1,object_01,object_10,615.0,1,2,245.0,0.2222222222222222,1,object_08,5,2091,0,2,1,desert_6,2,memory-2step-stake-s,645,2298715,0.0-19.0-0.1-0.156,A1P47Q6LZPLQ6P,3VGZ74AYUJWEHZMTR9OBXS32OP2GCF,33IZTU6J85H8WL4937JHP3327UHSX7,2,1
157,4,object_04,object_03,762.0,8,2,254.0,0.1111111111111111,2,object_06,1,2092,0,0,1,restaurant_2,2,memory-2step-stake-s,646,2306276,0.0-19.0-0.1-0.157,A1P47Q6LZPLQ6P,3VGZ74AYUJWEHZMTR9OBXS32OP2GCF,33IZTU6J85H8WL4937JHP3327UHSX7,7,8
158,2,object_02,object_05,724.0,3,2,300.0,0.1111111111111111,1,object_08,5,2097,0,1,1,forest_1,2,memory-2step-stake-s,647,2313887,0.0-19.0-0.1-0.158,A1P47Q6LZPLQ6P,3VGZ74AYUJWEHZMTR9OBXS32OP2GCF,33IZTU6J85H8WL4937JHP3327UHSX7,4,3
159,1,object_10,object_01,595.0,2,2,299.0,0.0,2,object_06,1,2097,0,0,0,desert_5,2,memory-2step-stake-s,648,2321394,0.0-19.0-0.1-0.159,A1P47Q6LZPLQ6P,3VGZ74AYUJWEHZMTR9OBXS32OP2GCF,33IZTU6J85H8WL4937JHP3327UHSX7,1,2
160,2,object_05,object_02,653.0,3,1,343.0,0.1111111111111111,1,object_08,1,2098,0,1,3,forest_8,2,memory-2step-stake-s,649,2329046,0.0-19.0-0.1-0.160,A1P47Q6LZPLQ6P,3VGZ74AYUJWEHZMTR9OBXS32OP2GCF,33IZTU6J85H8WL4937JHP3327UHSX7,3,4
161,3,object_07,object_09,428.0,6,2,322.0,0.5555555555555556,2,object_06,1,2103,0,1,5,library_1,2,memory-2step-stake-s,650,2337076,0.0-19.0-0.1-0.161,A1P47Q6LZPLQ6P,3VGZ74AYUJWEHZMTR9OBXS32OP2GCF,33IZTU6J85H8WL4937JHP3327UHSX7,5,6
162,3,object_07,object_09,469.0,6,2,359.0,0.5555555555555556,2,object_06,1,2108,0,4,5,library_8,2,memory-2step-stake-s,651,2345153,0.0-19.0-0.1-0.162,A1P47Q6LZPLQ6P,3VGZ74AYUJWEHZMTR9OBXS32OP2GCF,33IZTU6J85H8WL4937JHP3327UHSX7,5,6
163,2,object_02,object_05,561.0,4,1,300.0,0.5555555555555556,2,object_06,5,2133,0,3,5,forest_7,2,memory-2step-stake-s,652,2353165,0.0-19.0-0.1-0.163,A1P47Q6LZPLQ6P,3VGZ74AYUJWEHZMTR9OBXS32OP2GCF,33IZTU6J85H8WL4937JHP3327UHSX7,4,3
164,1,object_10,object_01,636.0,2,2,324.0,0.7777777777777778,2,object_06,5,2168,0,5,7,desert_1,2,memory-2step-stake-s,653,2361400,0.0-19.0-0.1-0.164,A1P47Q6LZPLQ6P,3VGZ74AYUJWEHZMTR9OBXS32OP2GCF,33IZTU6J85H8WL4937JHP3327UHSX7,1,2
165,2,object_05,object_02,534.0,4,2,339.0,0.5555555555555556,2,object_06,5,2193,0,5,5,forest_7,2,memory-2step-stake-s,654,2369448,0.0-19.0-0.1-0.165,A1P47Q6LZPLQ6P,3VGZ74AYUJWEHZMTR9OBXS32OP2GCF,33IZTU6J85H8WL4937JHP3327UHSX7,3,4
166,4,object_04,object_03,661.0,8,2,319.0,0.6666666666666666,2,object_06,5,2223,0,7,6,restaurant_5,2,memory-2step-stake-s,655,2377577,0.0-19.0-0.1-0.166,A1P47Q6LZPLQ6P,3VGZ74AYUJWEHZMTR9OBXS32OP2GCF,33IZTU6J85H8WL4937JHP3327UHSX7,7,8
167,1,object_01,object_10,561.0,2,1,246.0,0.5555555555555556,2,object_06,5,2248,0,5,5,desert_7,2,memory-2step-stake-s,656,2385531,0.0-19.0-0.1-0.167,A1P47Q6LZPLQ6P,3VGZ74AYUJWEHZMTR9OBXS32OP2GCF,33IZTU6J85H8WL4937JHP3327UHSX7,2,1
168,1,object_01,object_10,591.0,1,2,247.0,0.5555555555555556,1,object_08,1,2253,0,5,1,desert_6,2,memory-2step-stake-s,657,2393487,0.0-19.0-0.1-0.168,A1P47Q6LZPLQ6P,3VGZ74AYUJWEHZMTR9OBXS32OP2GCF,33IZTU6J85H8WL4937JHP3327UHSX7,2,1
169,3,object_09,object_07,562.0,6,1,318.0,0.2222222222222222,2,object_06,1,2255,0,4,2,library_1,2,memory-2step-stake-s,658,2401216,0.0-19.0-0.1-0.169,A1P47Q6LZPLQ6P,3VGZ74AYUJWEHZMTR9OBXS32OP2GCF,33IZTU6J85H8WL4937JHP3327UHSX7,6,5
170,1,object_01,object_10,599.0,1,2,238.0,0.3333333333333333,1,object_08,5,2270,0,3,3,desert_1,2,memory-2step-stake-s,659,2408963,0.0-19.0-0.1-0.170,A1P47Q6LZPLQ6P,3VGZ74AYUJWEHZMTR9OBXS32OP2GCF,33IZTU6J85H8WL4937JHP3327UHSX7,2,1
171,1,object_10,object_01,412.0,1,1,401.0,0.3333333333333333,1,object_08,5,2285,0,3,3,desert_1,2,memory-2step-stake-s,660,2416875,0.0-19.0-0.1-0.171,A1P47Q6LZPLQ6P,3VGZ74AYUJWEHZMTR9OBXS32OP2GCF,33IZTU6J85H8WL4937JHP3327UHSX7,1,2
172,2,object_05,object_02,632.0,4,2,253.0,0.5555555555555556,2,object_06,5,2310,0,3,5,forest_7,2,memory-2step-stake-s,661,2424837,0.0-19.0-0.1-0.172,A1P47Q6LZPLQ6P,3VGZ74AYUJWEHZMTR9OBXS32OP2GCF,33IZTU6J85H8WL4937JHP3327UHSX7,3,4
173,2,object_02,object_05,519.0,4,1,289.0,0.7777777777777778,2,object_06,1,2317,0,3,7,forest_4,2,memory-2step-stake-s,662,2433040,0.0-19.0-0.1-0.173,A1P47Q6LZPLQ6P,3VGZ74AYUJWEHZMTR9OBXS32OP2GCF,33IZTU6J85H8WL4937JHP3327UHSX7,4,3
174,1,object_01,object_10,498.0,2,1,328.0,0.4444444444444444,2,object_06,5,2337,0,4,4,desert_5,2,memory-2step-stake-s,663,2440984,0.0-19.0-0.1-0.174,A1P47Q6LZPLQ6P,3VGZ74AYUJWEHZMTR9OBXS32OP2GCF,33IZTU6J85H8WL4937JHP3327UHSX7,2,1
175,3,object_07,object_09,588.0,6,2,293.0,0.1111111111111111,2,object_06,5,2342,0,8,1,library_8,2,memory-2step-stake-s,664,2448586,0.0-19.0-0.1-0.175,A1P47Q6LZPLQ6P,3VGZ74AYUJWEHZMTR9OBXS32OP2GCF,33IZTU6J85H8WL4937JHP3327UHSX7,5,6
176,1,object_10,object_01,482.0,1,1,285.0,0.7777777777777778,1,object_08,5,2377,0,7,1,desert_6,2,memory-2step-stake-s,665,2456785,0.0-19.0-0.1-0.176,A1P47Q6LZPLQ6P,3VGZ74AYUJWEHZMTR9OBXS32OP2GCF,33IZTU6J85H8WL4937JHP3327UHSX7,1,2
177,1,object_01,object_10,626.0,1,2,278.0,0.8888888888888888,1,object_08,1,2385,0,8,1,desert_5,2,memory-2step-stake-s,666,2465079,0.0-19.0-0.1-0.177,A1P47Q6LZPLQ6P,3VGZ74AYUJWEHZMTR9OBXS32OP2GCF,33IZTU6J85H8WL4937JHP3327UHSX7,2,1
178,4,object_03,object_04,608.0,7,2,245.0,0.7777777777777778,1,object_08,1,2392,0,7,2,restaurant_6,2,memory-2step-stake-s,667,2473239,0.0-19.0-0.1-0.178,A1P47Q6LZPLQ6P,3VGZ74AYUJWEHZMTR9OBXS32OP2GCF,33IZTU6J85H8WL4937JHP3327UHSX7,8,7
179,2,object_02,object_05,697.0,3,2,278.0,0.4444444444444444,1,object_08,5,2412,0,4,5,forest_4,2,memory-2step-stake-s,668,2481130,0.0-19.0-0.1-0.179,A1P47Q6LZPLQ6P,3VGZ74AYUJWEHZMTR9OBXS32OP2GCF,33IZTU6J85H8WL4937JHP3327UHSX7,4,3
180,3,object_09,object_07,455.0,6,1,261.0,0.5555555555555556,2,object_06,1,2417,0,8,5,library_5,2,memory-2step-stake-s,669,2489100,0.0-19.0-0.1-0.180,A1P47Q6LZPLQ6P,3VGZ74AYUJWEHZMTR9OBXS32OP2GCF,33IZTU6J85H8WL4937JHP3327UHSX7,6,5
181,1,object_10,object_01,564.0,2,2,263.0,0.7777777777777778,2,object_06,5,2452,0,8,7,desert_5,2,memory-2step-stake-s,670,2497272,0.0-19.0-0.1-0.181,A1P47Q6LZPLQ6P,3VGZ74AYUJWEHZMTR9OBXS32OP2GCF,33IZTU6J85H8WL4937JHP3327UHSX7,1,2
182,2,object_05,object_02,540.0,4,2,454.0,0.8888888888888888,2,object_06,5,2492,0,8,8,forest_1,2,memory-2step-stake-s,671,2505740,0.0-19.0-0.1-0.182,A1P47Q6LZPLQ6P,3VGZ74AYUJWEHZMTR9OBXS32OP2GCF,33IZTU6J85H8WL4937JHP3327UHSX7,3,4
183,1,object_10,object_01,736.0,2,2,361.0,0.6666666666666666,2,object_06,5,2522,0,8,6,desert_7,2,memory-2step-stake-s,672,2513912,0.0-19.0-0.1-0.183,A1P47Q6LZPLQ6P,3VGZ74AYUJWEHZMTR9OBXS32OP2GCF,33IZTU6J85H8WL4937JHP3327UHSX7,1,2
184,1,object_01,object_10,529.0,2,1,347.0,0.5555555555555556,2,object_06,5,2547,0,7,5,desert_6,2,memory-2step-stake-s,673,2521970,0.0-19.0-0.1-0.184,A1P47Q6LZPLQ6P,3VGZ74AYUJWEHZMTR9OBXS32OP2GCF,33IZTU6J85H8WL4937JHP3327UHSX7,2,1
185,4,object_03,object_04,716.0,7,2,296.0,0.6666666666666666,1,object_08,1,2553,0,6,2,restaurant_2,2,memory-2step-stake-s,674,2530079,0.0-19.0-0.1-0.185,A1P47Q6LZPLQ6P,3VGZ74AYUJWEHZMTR9OBXS32OP2GCF,33IZTU6J85H8WL4937JHP3327UHSX7,8,7
186,4,object_04,object_03,726.0,7,1,282.0,0.4444444444444444,1,object_08,5,2573,0,4,2,restaurant_5,2,memory-2step-stake-s,675,2537973,0.0-19.0-0.1-0.186,A1P47Q6LZPLQ6P,3VGZ74AYUJWEHZMTR9OBXS32OP2GCF,33IZTU6J85H8WL4937JHP3327UHSX7,7,8
187,2,object_02,object_05,497.0,4,1,267.0,0.4444444444444444,2,object_06,5,2593,0,8,4,forest_4,2,memory-2step-stake-s,676,2545851,0.0-19.0-0.1-0.187,A1P47Q6LZPLQ6P,3VGZ74AYUJWEHZMTR9OBXS32OP2GCF,33IZTU6J85H8WL4937JHP3327UHSX7,4,3
188,1,object_01,object_10,605.0,1,2,247.0,0.6666666666666666,1,object_08,5,2623,0,6,6,desert_1,2,memory-2step-stake-s,677,2553913,0.0-19.0-0.1-0.188,A1P47Q6LZPLQ6P,3VGZ74AYUJWEHZMTR9OBXS32OP2GCF,33IZTU6J85H8WL4937JHP3327UHSX7,2,1
189,1,object_10,object_01,581.0,1,1,427.0,0.5555555555555556,1,object_08,5,2648,0,5,8,desert_6,2,memory-2step-stake-s,678,2562052,0.0-19.0-0.1-0.189,A1P47Q6LZPLQ6P,3VGZ74AYUJWEHZMTR9OBXS32OP2GCF,33IZTU6J85H8WL4937JHP3327UHSX7,1,2
190,1,object_01,object_10,416.0,1,2,326.0,0.5555555555555556,1,object_08,5,2673,0,5,8,desert_6,2,memory-2step-stake-s,679,2570090,0.0-19.0-0.1-0.190,A1P47Q6LZPLQ6P,3VGZ74AYUJWEHZMTR9OBXS32OP2GCF,33IZTU6J85H8WL4937JHP3327UHSX7,2,1
191,4,object_04,object_03,400.0,8,2,268.0,0.6666666666666666,2,object_06,1,2679,0,4,6,restaurant_6,2,memory-2step-stake-s,680,2578168,0.0-19.0-0.1-0.191,A1P47Q6LZPLQ6P,3VGZ74AYUJWEHZMTR9OBXS32OP2GCF,33IZTU6J85H8WL4937JHP3327UHSX7,7,8
192,3,object_07,object_09,655.0,5,1,325.0,0.3333333333333333,1,object_08,1,2682,0,3,6,library_8,2,memory-2step-stake-s,681,2586002,0.0-19.0-0.1-0.192,A1P47Q6LZPLQ6P,3VGZ74AYUJWEHZMTR9OBXS32OP2GCF,33IZTU6J85H8WL4937JHP3327UHSX7,5,6
193,3,object_09,object_07,616.0,6,1,305.0,0.7777777777777778,2,object_06,1,2689,0,4,7,library_7,2,memory-2step-stake-s,682,2594223,0.0-19.0-0.1-0.193,A1P47Q6LZPLQ6P,3VGZ74AYUJWEHZMTR9OBXS32OP2GCF,33IZTU6J85H8WL4937JHP3327UHSX7,6,5
194,4,object_04,object_03,594.0,8,2,345.0,0.8888888888888888,2,object_06,1,2697,0,5,8,restaurant_2,2,memory-2step-stake-s,683,2602577,0.0-19.0-0.1-0.194,A1P47Q6LZPLQ6P,3VGZ74AYUJWEHZMTR9OBXS32OP2GCF,33IZTU6J85H8WL4937JHP3327UHSX7,7,8
195,2,object_02,object_05,586.0,4,1,246.0,1.0,2,object_06,5,2742,0,0,9,forest_4,2,memory-2step-stake-s,684,2610938,0.0-19.0-0.1-0.195,A1P47Q6LZPLQ6P,3VGZ74AYUJWEHZMTR9OBXS32OP2GCF,33IZTU6J85H8WL4937JHP3327UHSX7,4,3
196,1,object_10,object_01,578.0,2,2,380.0,0.6666666666666666,2,object_06,5,2772,0,3,6,desert_7,2,memory-2step-stake-s,685,2619133,0.0-19.0-0.1-0.196,A1P47Q6LZPLQ6P,3VGZ74AYUJWEHZMTR9OBXS32OP2GCF,33IZTU6J85H8WL4937JHP3327UHSX7,1,2
197,3,object_07,object_09,537.0,5,1,273.0,0.4444444444444444,1,object_08,1,2776,0,4,8,library_5,2,memory-2step-stake-s,686,2627018,0.0-19.0-0.1-0.197,A1P47Q6LZPLQ6P,3VGZ74AYUJWEHZMTR9OBXS32OP2GCF,33IZTU6J85H8WL4937JHP3327UHSX7,5,6
198,4,object_03,object_04,567.0,8,1,327.0,0.7777777777777778,2,object_06,1,2783,0,7,7,restaurant_4,2,memory-2step-stake-s,687,2635262,0.0-19.0-0.1-0.198,A1P47Q6LZPLQ6P,3VGZ74AYUJWEHZMTR9OBXS32OP2GCF,33IZTU6J85H8WL4937JHP3327UHSX7,8,7
199,4,object_04,object_03,581.0,8,2,315.0,1.0,2,object_06,5,2828,0,6,9,restaurant_5,2,memory-2step-stake-s,688,2643692,0.0-19.0-0.1-0.199,A1P47Q6LZPLQ6P,3VGZ74AYUJWEHZMTR9OBXS32OP2GCF,33IZTU6J85H8WL4937JHP3327UHSX7,7,8
200,4,object_03,object_04,539.0,8,1,282.0,0.7777777777777778,2,object_06,1,2835,0,7,7,restaurant_5,2,memory-2step-stake-s,689,2651885,0.0-19.0-0.1-0.200,A1P47Q6LZPLQ6P,3VGZ74AYUJWEHZMTR9OBXS32OP2GCF,33IZTU6J85H8WL4937JHP3327UHSX7,8,7
201,1,object_10,object_01,510.0,2,2,254.0,0.7777777777777778,2,object_06,5,2870,0,8,7,desert_6,2,memory-2step-stake-s,690,2660050,0.0-19.0-0.1-0.201,A1P47Q6LZPLQ6P,3VGZ74AYUJWEHZMTR9OBXS32OP2GCF,33IZTU6J85H8WL4937JHP3327UHSX7,1,2
202,2,object_05,object_02,549.0,4,2,292.0,0.7777777777777778,2,object_06,5,2905,0,8,7,forest_7,2,memory-2step-stake-s,691,2668257,0.0-19.0-0.1-0.202,A1P47Q6LZPLQ6P,3VGZ74AYUJWEHZMTR9OBXS32OP2GCF,33IZTU6J85H8WL4937JHP3327UHSX7,3,4
203,1,object_10,object_01,575.0,2,2,346.0,0.7777777777777778,2,object_06,5,2940,0,6,7,desert_6,2,memory-2step-stake-s,692,2676516,0.0-19.0-0.1-0.203,A1P47Q6LZPLQ6P,3VGZ74AYUJWEHZMTR9OBXS32OP2GCF,33IZTU6J85H8WL4937JHP3327UHSX7,1,2
204,1,object_10,object_01,502.0,2,2,431.0,0.6666666666666666,2,object_06,5,2970,0,6,6,desert_6,2,memory-2step-stake-s,693,2684760,0.0-19.0-0.1-0.204,A1P47Q6LZPLQ6P,3VGZ74AYUJWEHZMTR9OBXS32OP2GCF,33IZTU6J85H8WL4937JHP3327UHSX7,1,2
205,3,object_07,object_09,620.0,6,2,277.0,0.5555555555555556,2,object_06,5,2995,0,9,5,library_1,2,memory-2step-stake-s,694,2692749,0.0-19.0-0.1-0.205,A1P47Q6LZPLQ6P,3VGZ74AYUJWEHZMTR9OBXS32OP2GCF,33IZTU6J85H8WL4937JHP3327UHSX7,5,6
206,1,object_01,object_10,555.0,2,1,315.0,0.5555555555555556,2,object_06,5,3020,0,9,5,desert_1,2,memory-2step-stake-s,695,2700776,0.0-19.0-0.1-0.206,A1P47Q6LZPLQ6P,3VGZ74AYUJWEHZMTR9OBXS32OP2GCF,33IZTU6J85H8WL4937JHP3327UHSX7,2,1
207,3,object_07,object_09,436.0,5,1,347.0,1.0,1,object_08,1,3029,0,9,4,library_8,2,memory-2step-stake-s,696,2709237,0.0-19.0-0.1-0.207,A1P47Q6LZPLQ6P,3VGZ74AYUJWEHZMTR9OBXS32OP2GCF,33IZTU6J85H8WL4937JHP3327UHSX7,5,6
208,3,object_07,object_09,425.0,5,1,245.0,0.8888888888888888,1,object_08,1,3037,0,8,7,library_7,2,memory-2step-stake-s,697,2717495,0.0-19.0-0.1-0.208,A1P47Q6LZPLQ6P,3VGZ74AYUJWEHZMTR9OBXS32OP2GCF,33IZTU6J85H8WL4937JHP3327UHSX7,5,6
209,1,object_10,object_01,569.0,1,1,257.0,0.8888888888888888,1,object_08,5,3077,0,8,8,desert_7,2,memory-2step-stake-s,698,2725770,0.0-19.0-0.1-0.209,A1P47Q6LZPLQ6P,3VGZ74AYUJWEHZMTR9OBXS32OP2GCF,33IZTU6J85H8WL4937JHP3327UHSX7,1,2
210,1,object_10,object_01,548.0,1,1,290.0,0.7777777777777778,1,object_08,5,3112,0,7,7,desert_1,2,memory-2step-stake-s,699,2733972,0.0-19.0-0.1-0.210,A1P47Q6LZPLQ6P,3VGZ74AYUJWEHZMTR9OBXS32OP2GCF,33IZTU6J85H8WL4937JHP3327UHSX7,1,2
211,2,object_05,object_02,733.0,3,1,311.0,0.7777777777777778,1,object_08,5,3147,0,7,8,forest_7,2,memory-2step-stake-s,700,2742195,0.0-19.0-0.1-0.211,A1P47Q6LZPLQ6P,3VGZ74AYUJWEHZMTR9OBXS32OP2GCF,33IZTU6J85H8WL4937JHP3327UHSX7,3,4
212,3,object_09,object_07,552.0,5,2,297.0,0.8888888888888888,1,object_08,1,3155,0,8,5,library_5,2,memory-2step-stake-s,701,2750502,0.0-19.0-0.1-0.212,A1P47Q6LZPLQ6P,3VGZ74AYUJWEHZMTR9OBXS32OP2GCF,33IZTU6J85H8WL4937JHP3327UHSX7,6,5
213,4,object_03,object_04,719.0,7,2,249.0,0.8888888888888888,1,object_08,5,3195,0,8,7,restaurant_6,2,memory-2step-stake-s,702,2758768,0.0-19.0-0.1-0.213,A1P47Q6LZPLQ6P,3VGZ74AYUJWEHZMTR9OBXS32OP2GCF,33IZTU6J85H8WL4937JHP3327UHSX7,8,7
214,2,object_05,object_02,773.0,3,1,285.0,1.0,1,object_08,5,3240,0,9,7,forest_1,2,memory-2step-stake-s,703,2767168,0.0-19.0-0.1-0.214,A1P47Q6LZPLQ6P,3VGZ74AYUJWEHZMTR9OBXS32OP2GCF,33IZTU6J85H8WL4937JHP3327UHSX7,3,4
215,1,object_01,object_10,644.0,1,2,313.0,0.7777777777777778,1,object_08,5,3275,0,7,7,desert_7,2,memory-2step-stake-s,704,2775395,0.0-19.0-0.1-0.215,A1P47Q6LZPLQ6P,3VGZ74AYUJWEHZMTR9OBXS32OP2GCF,33IZTU6J85H8WL4937JHP3327UHSX7,2,1
216,1,object_10,object_01,485.0,1,1,281.0,0.7777777777777778,1,object_08,5,3310,0,7,7,desert_5,2,memory-2step-stake-s,705,2783590,0.0-19.0-0.1-0.216,A1P47Q6LZPLQ6P,3VGZ74AYUJWEHZMTR9OBXS32OP2GCF,33IZTU6J85H8WL4937JHP3327UHSX7,1,2
217,4,object_04,object_03,1075.0,8,2,270.0,0.4444444444444444,2,object_06,1,3314,0,7,4,restaurant_2,2,memory-2step-stake-s,706,2791482,0.0-19.0-0.1-0.217,A1P47Q6LZPLQ6P,3VGZ74AYUJWEHZMTR9OBXS32OP2GCF,33IZTU6J85H8WL4937JHP3327UHSX7,7,8
218,3,object_09,object_07,630.0,5,2,281.0,1.0,1,object_08,1,3323,0,9,3,library_8,2,memory-2step-stake-s,707,2799876,0.0-19.0-0.1-0.218,A1P47Q6LZPLQ6P,3VGZ74AYUJWEHZMTR9OBXS32OP2GCF,33IZTU6J85H8WL4937JHP3327UHSX7,6,5
219,1,object_10,object_01,633.0,1,1,303.0,0.6666666666666666,1,object_08,5,3353,0,6,3,desert_7,2,memory-2step-stake-s,708,2807994,0.0-19.0-0.1-0.219,A1P47Q6LZPLQ6P,3VGZ74AYUJWEHZMTR9OBXS32OP2GCF,33IZTU6J85H8WL4937JHP3327UHSX7,1,2
220,3,object_07,object_09,836.0,5,1,542.0,0.6666666666666666,1,object_08,1,3359,0,6,1,library_1,2,memory-2step-stake-s,709,2816350,0.0-19.0-0.1-0.220,A1P47Q6LZPLQ6P,3VGZ74AYUJWEHZMTR9OBXS32OP2GCF,33IZTU6J85H8WL4937JHP3327UHSX7,5,6
221,1,object_10,object_01,476.0,1,1,454.0,1.0,1,object_08,1,3368,0,9,3,desert_7,2,memory-2step-stake-s,710,2824919,0.0-19.0-0.1-0.221,A1P47Q6LZPLQ6P,3VGZ74AYUJWEHZMTR9OBXS32OP2GCF,33IZTU6J85H8WL4937JHP3327UHSX7,1,2
222,1,object_01,object_10,480.0,1,2,269.0,0.8888888888888888,1,object_08,5,3408,0,8,0,desert_7,2,memory-2step-stake-s,711,2833202,0.0-19.0-0.1-0.222,A1P47Q6LZPLQ6P,3VGZ74AYUJWEHZMTR9OBXS32OP2GCF,33IZTU6J85H8WL4937JHP3327UHSX7,2,1
223,4,object_03,object_04,750.0,7,2,254.0,0.7777777777777778,1,object_08,1,3415,0,7,2,restaurant_2,2,memory-2step-stake-s,712,2841366,0.0-19.0-0.1-0.223,A1P47Q6LZPLQ6P,3VGZ74AYUJWEHZMTR9OBXS32OP2GCF,33IZTU6J85H8WL4937JHP3327UHSX7,8,7
224,3,object_07,object_09,527.0,5,1,260.0,0.8888888888888888,1,object_08,5,3455,0,8,5,library_5,2,memory-2step-stake-s,713,2849640,0.0-19.0-0.1-0.224,A1P47Q6LZPLQ6P,3VGZ74AYUJWEHZMTR9OBXS32OP2GCF,33IZTU6J85H8WL4937JHP3327UHSX7,5,6
225,1,object_01,object_10,445.0,1,2,248.0,1.0,1,object_08,5,3500,0,9,5,desert_5,2,memory-2step-stake-s,714,2858007,0.0-19.0-0.1-0.225,A1P47Q6LZPLQ6P,3VGZ74AYUJWEHZMTR9OBXS32OP2GCF,33IZTU6J85H8WL4937JHP3327UHSX7,2,1
226,3,object_07,object_09,431.0,5,1,284.0,0.7777777777777778,1,object_08,1,3507,0,7,8,library_7,2,memory-2step-stake-s,715,2866203,0.0-19.0-0.1-0.226,A1P47Q6LZPLQ6P,3VGZ74AYUJWEHZMTR9OBXS32OP2GCF,33IZTU6J85H8WL4937JHP3327UHSX7,5,6
227,4,object_04,object_03,698.0,7,1,317.0,0.8888888888888888,1,object_08,1,3515,0,8,8,restaurant_4,2,memory-2step-stake-s,716,2874530,0.0-19.0-0.1-0.227,A1P47Q6LZPLQ6P,3VGZ74AYUJWEHZMTR9OBXS32OP2GCF,33IZTU6J85H8WL4937JHP3327UHSX7,7,8
228,3,object_09,object_07,489.0,5,2,314.0,0.8888888888888888,1,object_08,1,3523,0,8,8,library_5,2,memory-2step-stake-s,717,2882860,0.0-19.0-0.1-0.228,A1P47Q6LZPLQ6P,3VGZ74AYUJWEHZMTR9OBXS32OP2GCF,33IZTU6J85H8WL4937JHP3327UHSX7,6,5
229,3,object_09,object_07,381.0,5,2,256.0,0.4444444444444444,1,object_08,1,3527,0,4,7,library_1,2,memory-2step-stake-s,718,2890727,0.0-19.0-0.1-0.229,A1P47Q6LZPLQ6P,3VGZ74AYUJWEHZMTR9OBXS32OP2GCF,33IZTU6J85H8WL4937JHP3327UHSX7,6,5
230,3,object_09,object_07,591.0,5,2,258.0,0.7777777777777778,1,object_08,1,3534,0,7,8,library_7,2,memory-2step-stake-s,719,2898894,0.0-19.0-0.1-0.230,A1P47Q6LZPLQ6P,3VGZ74AYUJWEHZMTR9OBXS32OP2GCF,33IZTU6J85H8WL4937JHP3327UHSX7,6,5
231,3,object_07,object_09,427.0,5,1,229.0,0.6666666666666666,1,object_08,5,3564,0,6,9,library_7,2,memory-2step-stake-s,720,2906934,0.0-19.0-0.1-0.231,A1P47Q6LZPLQ6P,3VGZ74AYUJWEHZMTR9OBXS32OP2GCF,33IZTU6J85H8WL4937JHP3327UHSX7,5,6
232,3,object_07,object_09,568.0,5,1,40.0,0.1111111111111111,1,object_08,1,3565,0,1,6,library_5,2,memory-2step-stake-s,721,2914283,0.0-19.0-0.1-0.232,A1P47Q6LZPLQ6P,3VGZ74AYUJWEHZMTR9OBXS32OP2GCF,33IZTU6J85H8WL4937JHP3327UHSX7,5,6
233,4,object_03,object_04,414.0,8,1,214.0,0.5555555555555556,2,object_06,1,3570,0,1,5,restaurant_4,2,memory-2step-stake-s,722,2922210,0.0-19.0-0.1-0.233,A1P47Q6LZPLQ6P,3VGZ74AYUJWEHZMTR9OBXS32OP2GCF,33IZTU6J85H8WL4937JHP3327UHSX7,8,7
234,2,object_02,object_05,698.0,4,1,278.0,0.7777777777777778,2,object_06,5,3605,0,2,7,forest_7,2,memory-2step-stake-s,723,2930402,0.0-19.0-0.1-0.234,A1P47Q6LZPLQ6P,3VGZ74AYUJWEHZMTR9OBXS32OP2GCF,33IZTU6J85H8WL4937JHP3327UHSX7,4,3
235,1,object_01,object_10,533.0,2,1,333.0,0.8888888888888888,2,object_06,5,3645,0,1,8,desert_6,2,memory-2step-stake-s,724,2938753,0.0-19.0-0.1-0.235,A1P47Q6LZPLQ6P,3VGZ74AYUJWEHZMTR9OBXS32OP2GCF,33IZTU6J85H8WL4937JHP3327UHSX7,2,1
236,3,object_07,object_09,646.0,6,2,271.0,0.6666666666666666,2,object_06,1,3651,0,2,6,library_5,2,memory-2step-stake-s,725,2946837,0.0-19.0-0.1-0.236,A1P47Q6LZPLQ6P,3VGZ74AYUJWEHZMTR9OBXS32OP2GCF,33IZTU6J85H8WL4937JHP3327UHSX7,5,6
237,3,object_07,object_09,534.0,6,2,304.0,0.5555555555555556,2,object_06,5,3676,0,0,5,library_5,2,memory-2step-stake-s,726,2954853,0.0-19.0-0.1-0.237,A1P47Q6LZPLQ6P,3VGZ74AYUJWEHZMTR9OBXS32OP2GCF,33IZTU6J85H8WL4937JHP3327UHSX7,5,6
238,1,object_01,object_10,511.0,2,1,265.0,0.3333333333333333,2,object_06,5,3691,0,1,3,desert_5,2,memory-2step-stake-s,727,2962628,0.0-19.0-0.1-0.238,A1P47Q6LZPLQ6P,3VGZ74AYUJWEHZMTR9OBXS32OP2GCF,33IZTU6J85H8WL4937JHP3327UHSX7,2,1
239,4,object_04,object_03,789.0,7,1,307.0,0.1111111111111111,1,object_08,5,3696,0,1,4,restaurant_5,2,memory-2step-stake-s,728,2970240,0.0-19.0-0.1-0.239,A1P47Q6LZPLQ6P,3VGZ74AYUJWEHZMTR9OBXS32OP2GCF,33IZTU6J85H8WL4937JHP3327UHSX7,7,8
240,1,object_01,object_10,523.0,2,1,259.0,0.2222222222222222,2,object_06,5,3706,0,1,2,desert_6,2,memory-2step-stake-s,729,2977906,0.0-19.0-0.1-0.240,A1P47Q6LZPLQ6P,3VGZ74AYUJWEHZMTR9OBXS32OP2GCF,33IZTU6J85H8WL4937JHP3327UHSX7,2,1
241,3,object_07,object_09,477.0,5,1,307.0,0.3333333333333333,1,object_08,1,3709,0,3,4,library_7,2,memory-2step-stake-s,730,2985719,0.0-19.0-0.1-0.241,A1P47Q6LZPLQ6P,3VGZ74AYUJWEHZMTR9OBXS32OP2GCF,33IZTU6J85H8WL4937JHP3327UHSX7,5,6
242,2,object_02,object_05,715.0,3,2,292.0,0.1111111111111111,1,object_08,5,3714,0,1,7,forest_8,2,memory-2step-stake-s,731,2993320,0.0-19.0-0.1-0.242,A1P47Q6LZPLQ6P,3VGZ74AYUJWEHZMTR9OBXS32OP2GCF,33IZTU6J85H8WL4937JHP3327UHSX7,4,3
243,4,object_04,object_03,640.0,8,2,331.0,1.0,2,object_06,1,3723,0,1,9,restaurant_6,2,memory-2step-stake-s,732,3001765,0.0-19.0-0.1-0.243,A1P47Q6LZPLQ6P,3VGZ74AYUJWEHZMTR9OBXS32OP2GCF,33IZTU6J85H8WL4937JHP3327UHSX7,7,8
244,4,object_03,object_04,393.0,8,1,259.0,0.7777777777777778,2,object_06,5,3758,0,4,7,restaurant_4,2,memory-2step-stake-s,733,3009934,0.0-19.0-0.1-0.244,A1P47Q6LZPLQ6P,3VGZ74AYUJWEHZMTR9OBXS32OP2GCF,33IZTU6J85H8WL4937JHP3327UHSX7,8,7
245,2,object_05,object_02,626.0,4,2,347.0,0.7777777777777778,2,object_06,5,3793,0,5,7,forest_4,2,memory-2step-stake-s,734,3018192,0.0-19.0-0.1-0.245,A1P47Q6LZPLQ6P,3VGZ74AYUJWEHZMTR9OBXS32OP2GCF,33IZTU6J85H8WL4937JHP3327UHSX7,3,4
246,2,object_02,object_05,655.0,4,1,318.0,0.6666666666666666,2,object_06,5,3823,0,3,6,forest_7,2,memory-2step-stake-s,735,3026317,0.0-19.0-0.1-0.246,A1P47Q6LZPLQ6P,3VGZ74AYUJWEHZMTR9OBXS32OP2GCF,33IZTU6J85H8WL4937JHP3327UHSX7,4,3
247,2,object_05,object_02,407.0,4,2,257.0,0.6666666666666666,2,object_06,5,3853,0,3,6,forest_4,2,memory-2step-stake-s,736,3034391,0.0-19.0-0.1-0.247,A1P47Q6LZPLQ6P,3VGZ74AYUJWEHZMTR9OBXS32OP2GCF,33IZTU6J85H8WL4937JHP3327UHSX7,3,4
248,4,object_03,object_04,622.0,8,1,287.0,0.3333333333333333,2,object_06,1,3856,0,2,3,restaurant_4,2,memory-2step-stake-s,737,3042185,0.0-19.0-0.1-0.248,A1P47Q6LZPLQ6P,3VGZ74AYUJWEHZMTR9OBXS32OP2GCF,33IZTU6J85H8WL4937JHP3327UHSX7,8,7
249,3,object_07,object_09,520.0,5,1,264.0,0.2222222222222222,1,object_08,1,3858,0,2,2,library_8,2,memory-2step-stake-s,738,3049861,0.0-19.0-0.1-0.249,A1P47Q6LZPLQ6P,3VGZ74AYUJWEHZMTR9OBXS32OP2GCF,33IZTU6J85H8WL4937JHP3327UHSX7,5,6
250,3,object_07,object_09,509.0,6,2,307.0,0.1111111111111111,2,object_06,1,3859,0,4,1,library_1,2,memory-2step-stake-s,739,3057476,0.0-19.0-0.1-0.250,A1P47Q6LZPLQ6P,3VGZ74AYUJWEHZMTR9OBXS32OP2GCF,33IZTU6J85H8WL4937JHP3327UHSX7,5,6
251,4,object_04,object_03,557.0,7,1,251.0,0.5555555555555556,1,object_08,1,3864,0,5,1,restaurant_2,2,memory-2step-stake-s,740,3065435,0.0-19.0-0.1-0.251,A1P47Q6LZPLQ6P,3VGZ74AYUJWEHZMTR9OBXS32OP2GCF,33IZTU6J85H8WL4937JHP3327UHSX7,7,8
252,2,object_02,object_05,601.0,3,2,272.0,0.2222222222222222,1,object_08,5,3874,0,2,2,forest_8,2,memory-2step-stake-s,741,3073117,0.0-19.0-0.1-0.252,A1P47Q6LZPLQ6P,3VGZ74AYUJWEHZMTR9OBXS32OP2GCF,33IZTU6J85H8WL4937JHP3327UHSX7,4,3
253,3,object_09,object_07,480.0,6,1,257.0,0.3333333333333333,2,object_06,1,3877,0,2,3,library_7,2,memory-2step-stake-s,742,3080881,0.0-19.0-0.1-0.253,A1P47Q6LZPLQ6P,3VGZ74AYUJWEHZMTR9OBXS32OP2GCF,33IZTU6J85H8WL4937JHP3327UHSX7,6,5
254,3,object_09,object_07,556.0,6,1,249.0,0.4444444444444444,2,object_06,5,3897,0,1,4,library_8,2,memory-2step-stake-s,743,3088742,0.0-19.0-0.1-0.254,A1P47Q6LZPLQ6P,3VGZ74AYUJWEHZMTR9OBXS32OP2GCF,33IZTU6J85H8WL4937JHP3327UHSX7,6,5
255,4,object_04,object_03,728.0,7,1,265.0,0.0,1,object_08,1,3897,0,0,1,restaurant_2,2,memory-2step-stake-s,744,3096214,0.0-19.0-0.1-0.255,A1P47Q6LZPLQ6P,3VGZ74AYUJWEHZMTR9OBXS32OP2GCF,33IZTU6J85H8WL4937JHP3327UHSX7,7,8
