,state1,stim_left,stim_right,rt_1,choice1,response1,rt_2,points,state2,stim_state2,stake,score,practice,rews1,rews2,background,high_arm,trial_type,trial_index,time_elapsed,internal_node_id,subid,hitid,assignmentid,stim_left_num,stim_right_num
0,4,object_01,object_02,932.0,7,1,930.09999990463,0.4444444444444444,1,object_06,1,4,0,4,0,restaurant_8,1,memory-2step-stake-s,505,1170067,0.0-19.0-0.0-0.0,A1M1E62KXCDNL0,3DW3BNF1HKYVNTMBZS7SV7ATLD58VQ,37WLF8U1WT6XPN75XB1PY4Z8TW6K6P,7,8
1,4,object_01,object_02,856.89999997616,7,1,609.20000004768,0.1111111111111111,1,object_06,5,9,0,1,0,restaurant_7,1,memory-2step-stake-s,506,1178008,0.0-19.0-0.0-0.1,A1M1E62KXCDNL0,3DW3BNF1HKYVNTMBZS7SV7ATLD58VQ,37WLF8U1WT6XPN75XB1PY4Z8TW6K6P,7,8
2,3,object_10,object_03,974.90000009537,6,2,1131.7000000477,0.2222222222222222,2,object_08,5,19,0,0,2,library_2,1,memory-2step-stake-s,507,1186559,0.0-19.0-0.0-0.2,A1M1E62KXCDNL0,3DW3BNF1HKYVNTMBZS7SV7ATLD58VQ,37WLF8U1WT6XPN75XB1PY4Z8TW6K6P,5,6
3,2,object_09,object_07,940.39999997616,4,1,766.30000007153,0.1111111111111111,2,object_08,1,20,0,1,1,forest_3,1,memory-2step-stake-s,508,1194650,0.0-19.0-0.0-0.3,A1M1E62KXCDNL0,3DW3BNF1HKYVNTMBZS7SV7ATLD58VQ,37WLF8U1WT6XPN75XB1PY4Z8TW6K6P,4,3
4,3,object_10,object_03,939.89999997616,5,1,674.89999997616,0.1111111111111111,1,object_06,5,25,0,1,1,library_4,1,memory-2step-stake-s,509,1202650,0.0-19.0-0.0-0.4,A1M1E62KXCDNL0,3DW3BNF1HKYVNTMBZS7SV7ATLD58VQ,37WLF8U1WT6XPN75XB1PY4Z8TW6K6P,5,6
5,4,object_01,object_02,840.0,8,2,740.39999997616,0.2222222222222222,2,object_08,5,35,0,0,2,restaurant_1,1,memory-2step-stake-s,510,1210838,0.0-19.0-0.0-0.5,A1M1E62KXCDNL0,3DW3BNF1HKYVNTMBZS7SV7ATLD58VQ,37WLF8U1WT6XPN75XB1PY4Z8TW6K6P,7,8
6,1,object_05,object_04,1172.2000000477,2,2,716.0,0.2222222222222222,2,object_08,1,37,0,1,2,desert_3,1,memory-2step-stake-s,511,1218990,0.0-19.0-0.0-0.6,A1M1E62KXCDNL0,3DW3BNF1HKYVNTMBZS7SV7ATLD58VQ,37WLF8U1WT6XPN75XB1PY4Z8TW6K6P,1,2
7,2,object_07,object_09,1085.4000000954,3,1,534.39999997616,0.3333333333333333,1,object_06,5,52,0,3,2,forest_4,1,memory-2step-stake-s,512,1227060,0.0-19.0-0.0-0.7,A1M1E62KXCDNL0,3DW3BNF1HKYVNTMBZS7SV7ATLD58VQ,37WLF8U1WT6XPN75XB1PY4Z8TW6K6P,3,4
8,3,object_10,object_03,1160.1999999285,5,1,952.70000004768,0.2222222222222222,1,object_06,1,54,0,2,4,library_7,1,memory-2step-stake-s,513,1235447,0.0-19.0-0.0-0.8,A1M1E62KXCDNL0,3DW3BNF1HKYVNTMBZS7SV7ATLD58VQ,37WLF8U1WT6XPN75XB1PY4Z8TW6K6P,5,6
9,3,object_03,object_10,1312.2999999523,6,1,452.20000004768,0.0,2,object_08,1,54,0,0,0,library_7,1,memory-2step-stake-s,514,1243115,0.0-19.0-0.0-0.9,A1M1E62KXCDNL0,3DW3BNF1HKYVNTMBZS7SV7ATLD58VQ,37WLF8U1WT6XPN75XB1PY4Z8TW6K6P,6,5
10,2,object_07,object_09,-1.0,-1,-1,-1.0,0.0,-,0,5,54,0,3,1,forest_3,1,memory-2step-stake-s,515,1249627,0.0-19.0-0.0-0.10,A1M1E62KXCDNL0,3DW3BNF1HKYVNTMBZS7SV7ATLD58VQ,37WLF8U1WT6XPN75XB1PY4Z8TW6K6P,3,4
11,4,object_02,object_01,1064.3000000715,7,2,563.60000002384,0.6666666666666666,1,object_06,5,84,0,6,0,restaurant_1,1,memory-2step-stake-s,516,1258018,0.0-19.0-0.0-0.11,A1M1E62KXCDNL0,3DW3BNF1HKYVNTMBZS7SV7ATLD58VQ,37WLF8U1WT6XPN75XB1PY4Z8TW6K6P,8,7
12,2,object_07,object_09,1153.1999999285,4,2,711.80000007153,0.3333333333333333,2,object_08,5,99,0,6,3,forest_7,1,memory-2step-stake-s,517,1266253,0.0-19.0-0.0-0.12,A1M1E62KXCDNL0,3DW3BNF1HKYVNTMBZS7SV7ATLD58VQ,37WLF8U1WT6XPN75XB1PY4Z8TW6K6P,3,4
13,2,object_09,object_07,1050.1999999285,4,1,322.10000002384,0.5555555555555556,2,object_08,5,124,0,6,5,forest_7,1,memory-2step-stake-s,518,1274325,0.0-19.0-0.0-0.13,A1M1E62KXCDNL0,3DW3BNF1HKYVNTMBZS7SV7ATLD58VQ,37WLF8U1WT6XPN75XB1PY4Z8TW6K6P,4,3
14,1,object_05,object_04,1007.3999999762,1,1,488.39999997616,0.3333333333333333,1,object_06,1,127,0,3,7,desert_6,1,memory-2step-stake-s,519,1282337,0.0-19.0-0.0-0.14,A1M1E62KXCDNL0,3DW3BNF1HKYVNTMBZS7SV7ATLD58VQ,37WLF8U1WT6XPN75XB1PY4Z8TW6K6P,1,2
15,4,object_02,object_01,979.20000004768,7,2,436.5,0.3333333333333333,1,object_06,5,142,0,3,8,restaurant_4,1,memory-2step-stake-s,520,1290299,0.0-19.0-0.0-0.15,A1M1E62KXCDNL0,3DW3BNF1HKYVNTMBZS7SV7ATLD58VQ,37WLF8U1WT6XPN75XB1PY4Z8TW6K6P,8,7
16,2,object_07,object_09,991.20000004768,4,2,545.30000007153,0.7777777777777778,2,object_08,5,177,0,1,7,forest_3,1,memory-2step-stake-s,521,1298775,0.0-19.0-0.0-0.16,A1M1E62KXCDNL0,3DW3BNF1HKYVNTMBZS7SV7ATLD58VQ,37WLF8U1WT6XPN75XB1PY4Z8TW6K6P,3,4
17,2,object_07,object_09,1175.1000000238,4,2,375.39999997616,0.7777777777777778,2,object_08,1,184,0,3,7,forest_7,1,memory-2step-stake-s,522,1307090,0.0-19.0-0.0-0.17,A1M1E62KXCDNL0,3DW3BNF1HKYVNTMBZS7SV7ATLD58VQ,37WLF8U1WT6XPN75XB1PY4Z8TW6K6P,3,4
18,2,object_07,object_09,928.79999995232,3,1,471.30000007153,0.6666666666666666,1,object_06,1,190,0,6,5,forest_7,1,memory-2step-stake-s,523,1315415,0.0-19.0-0.0-0.18,A1M1E62KXCDNL0,3DW3BNF1HKYVNTMBZS7SV7ATLD58VQ,37WLF8U1WT6XPN75XB1PY4Z8TW6K6P,3,4
19,4,object_02,object_01,878.10000002384,8,1,616.70000004768,0.4444444444444444,2,object_08,1,194,0,9,4,restaurant_7,1,memory-2step-stake-s,524,1323671,0.0-19.0-0.0-0.19,A1M1E62KXCDNL0,3DW3BNF1HKYVNTMBZS7SV7ATLD58VQ,37WLF8U1WT6XPN75XB1PY4Z8TW6K6P,8,7
20,1,object_05,object_04,1185.5,1,1,581.0,0.8888888888888888,1,object_06,1,202,0,8,7,desert_1,1,memory-2step-stake-s,525,1332323,0.0-19.0-0.0-0.20,A1M1E62KXCDNL0,3DW3BNF1HKYVNTMBZS7SV7ATLD58VQ,37WLF8U1WT6XPN75XB1PY4Z8TW6K6P,1,2
21,4,object_02,object_01,1193.5,7,2,450.20000004768,0.5555555555555556,1,object_06,5,227,0,5,6,restaurant_7,1,memory-2step-stake-s,526,1340497,0.0-19.0-0.0-0.21,A1M1E62KXCDNL0,3DW3BNF1HKYVNTMBZS7SV7ATLD58VQ,37WLF8U1WT6XPN75XB1PY4Z8TW6K6P,8,7
22,3,object_10,object_03,1186.5,5,1,515.29999995232,0.4444444444444444,1,object_06,5,247,0,4,4,library_7,1,memory-2step-stake-s,527,1348634,0.0-19.0-0.0-0.22,A1M1E62KXCDNL0,3DW3BNF1HKYVNTMBZS7SV7ATLD58VQ,37WLF8U1WT6XPN75XB1PY4Z8TW6K6P,5,6
23,1,object_04,object_05,896.10000002384,2,1,721.10000002384,0.5555555555555556,2,object_08,1,252,0,4,5,desert_1,1,memory-2step-stake-s,528,1357095,0.0-19.0-0.0-0.23,A1M1E62KXCDNL0,3DW3BNF1HKYVNTMBZS7SV7ATLD58VQ,37WLF8U1WT6XPN75XB1PY4Z8TW6K6P,2,1
24,3,object_03,object_10,924.59999990463,6,1,978.70000004768,0.3333333333333333,2,object_08,1,255,0,5,3,library_7,1,memory-2step-stake-s,529,1365592,0.0-19.0-0.0-0.24,A1M1E62KXCDNL0,3DW3BNF1HKYVNTMBZS7SV7ATLD58VQ,37WLF8U1WT6XPN75XB1PY4Z8TW6K6P,6,5
25,4,object_02,object_01,967.20000004768,7,2,650.60000002384,0.4444444444444444,1,object_06,5,275,0,4,4,restaurant_8,1,memory-2step-stake-s,530,1373897,0.0-19.0-0.0-0.25,A1M1E62KXCDNL0,3DW3BNF1HKYVNTMBZS7SV7ATLD58VQ,37WLF8U1WT6XPN75XB1PY4Z8TW6K6P,8,7
26,3,object_03,object_10,1311.0,5,2,842.5,0.6666666666666666,1,object_06,5,305,0,6,5,library_7,1,memory-2step-stake-s,531,1382580,0.0-19.0-0.0-0.26,A1M1E62KXCDNL0,3DW3BNF1HKYVNTMBZS7SV7ATLD58VQ,37WLF8U1WT6XPN75XB1PY4Z8TW6K6P,6,5
27,3,object_03,object_10,1151.5999999046,6,1,519.20000004768,0.2222222222222222,2,object_08,1,307,0,7,2,library_5,1,memory-2step-stake-s,532,1390517,0.0-19.0-0.0-0.27,A1M1E62KXCDNL0,3DW3BNF1HKYVNTMBZS7SV7ATLD58VQ,37WLF8U1WT6XPN75XB1PY4Z8TW6K6P,6,5
28,4,object_01,object_02,948.90000009537,8,2,707.39999997616,0.4444444444444444,2,object_08,1,311,0,8,4,restaurant_8,1,memory-2step-stake-s,533,1398859,0.0-19.0-0.0-0.28,A1M1E62KXCDNL0,3DW3BNF1HKYVNTMBZS7SV7ATLD58VQ,37WLF8U1WT6XPN75XB1PY4Z8TW6K6P,7,8
29,4,object_02,object_01,1309.1000000238,7,2,616.5,1.0,1,object_06,5,356,0,9,7,restaurant_4,1,memory-2step-stake-s,534,1407611,0.0-19.0-0.0-0.29,A1M1E62KXCDNL0,3DW3BNF1HKYVNTMBZS7SV7ATLD58VQ,37WLF8U1WT6XPN75XB1PY4Z8TW6K6P,8,7
30,2,object_07,object_09,1216.2999999523,4,2,770.90000009537,0.8888888888888888,2,object_08,1,364,0,8,8,forest_3,1,memory-2step-stake-s,535,1416409,0.0-19.0-0.0-0.30,A1M1E62KXCDNL0,3DW3BNF1HKYVNTMBZS7SV7ATLD58VQ,37WLF8U1WT6XPN75XB1PY4Z8TW6K6P,3,4
31,3,object_10,object_03,1373.1000000238,5,1,487.39999997616,0.8888888888888888,1,object_06,5,404,0,8,9,library_2,1,memory-2step-stake-s,536,1424933,0.0-19.0-0.0-0.31,A1M1E62KXCDNL0,3DW3BNF1HKYVNTMBZS7SV7ATLD58VQ,37WLF8U1WT6XPN75XB1PY4Z8TW6K6P,5,6
32,3,object_10,object_03,1257.7999999523,5,1,454.39999997616,0.8888888888888888,1,object_06,5,444,0,8,8,library_5,1,memory-2step-stake-s,537,1433440,0.0-19.0-0.0-0.32,A1M1E62KXCDNL0,3DW3BNF1HKYVNTMBZS7SV7ATLD58VQ,37WLF8U1WT6XPN75XB1PY4Z8TW6K6P,5,6
33,4,object_01,object_02,1184.3000000715,7,1,459.70000004768,0.6666666666666666,1,object_06,5,474,0,6,6,restaurant_1,1,memory-2step-stake-s,538,1441724,0.0-19.0-0.0-0.33,A1M1E62KXCDNL0,3DW3BNF1HKYVNTMBZS7SV7ATLD58VQ,37WLF8U1WT6XPN75XB1PY4Z8TW6K6P,7,8
34,1,object_05,object_04,1144.3999999762,1,1,631.29999995232,0.5555555555555556,1,object_06,1,479,0,5,7,desert_3,1,memory-2step-stake-s,539,1450092,0.0-19.0-0.0-0.34,A1M1E62KXCDNL0,3DW3BNF1HKYVNTMBZS7SV7ATLD58VQ,37WLF8U1WT6XPN75XB1PY4Z8TW6K6P,1,2
35,3,object_03,object_10,1163.8999999762,5,2,480.59999990463,0.4444444444444444,1,object_06,5,499,0,4,8,library_5,1,memory-2step-stake-s,540,1458199,0.0-19.0-0.0-0.35,A1M1E62KXCDNL0,3DW3BNF1HKYVNTMBZS7SV7ATLD58VQ,37WLF8U1WT6XPN75XB1PY4Z8TW6K6P,6,5
36,3,object_10,object_03,976.40000009537,6,2,683.90000009537,0.6666666666666666,2,object_08,5,529,0,3,6,library_5,1,memory-2step-stake-s,541,1466717,0.0-19.0-0.0-0.36,A1M1E62KXCDNL0,3DW3BNF1HKYVNTMBZS7SV7ATLD58VQ,37WLF8U1WT6XPN75XB1PY4Z8TW6K6P,5,6
37,2,object_09,object_07,1160.1999999285,4,1,760.10000002384,0.4444444444444444,2,object_08,1,533,0,5,4,forest_4,1,memory-2step-stake-s,542,1475117,0.0-19.0-0.0-0.37,A1M1E62KXCDNL0,3DW3BNF1HKYVNTMBZS7SV7ATLD58VQ,37WLF8U1WT6XPN75XB1PY4Z8TW6K6P,4,3
38,3,object_10,object_03,901.19999992847,5,1,409.79999995232,0.4444444444444444,1,object_06,5,553,0,4,3,library_4,1,memory-2step-stake-s,543,1483172,0.0-19.0-0.0-0.38,A1M1E62KXCDNL0,3DW3BNF1HKYVNTMBZS7SV7ATLD58VQ,37WLF8U1WT6XPN75XB1PY4Z8TW6K6P,5,6
39,4,object_02,object_01,1146.5,8,1,828.0,0.2222222222222222,2,object_08,5,563,0,8,2,restaurant_8,1,memory-2step-stake-s,544,1491422,0.0-19.0-0.0-0.39,A1M1E62KXCDNL0,3DW3BNF1HKYVNTMBZS7SV7ATLD58VQ,37WLF8U1WT6XPN75XB1PY4Z8TW6K6P,8,7
40,4,object_01,object_02,1220.6000000238,7,1,426.5,0.8888888888888888,1,object_06,5,603,0,8,2,restaurant_1,1,memory-2step-stake-s,545,1499881,0.0-19.0-0.0-0.40,A1M1E62KXCDNL0,3DW3BNF1HKYVNTMBZS7SV7ATLD58VQ,37WLF8U1WT6XPN75XB1PY4Z8TW6K6P,7,8
41,1,object_04,object_05,1141.0,2,1,1480.6000000238,0.2222222222222222,2,object_08,1,605,0,8,2,desert_4,1,memory-2step-stake-s,546,1508790,0.0-19.0-0.0-0.41,A1M1E62KXCDNL0,3DW3BNF1HKYVNTMBZS7SV7ATLD58VQ,37WLF8U1WT6XPN75XB1PY4Z8TW6K6P,2,1
42,3,object_03,object_10,1307.3999999762,5,2,675.60000002384,0.8888888888888888,1,object_06,5,645,0,8,3,library_5,1,memory-2step-stake-s,547,1517511,0.0-19.0-0.0-0.42,A1M1E62KXCDNL0,3DW3BNF1HKYVNTMBZS7SV7ATLD58VQ,37WLF8U1WT6XPN75XB1PY4Z8TW6K6P,6,5
43,4,object_02,object_01,1209.6999999285,7,2,358.70000004768,0.7777777777777778,1,object_06,5,680,0,7,6,restaurant_7,1,memory-2step-stake-s,548,1525805,0.0-19.0-0.0-0.43,A1M1E62KXCDNL0,3DW3BNF1HKYVNTMBZS7SV7ATLD58VQ,37WLF8U1WT6XPN75XB1PY4Z8TW6K6P,8,7
44,2,object_07,object_09,984.89999997616,4,2,575.20000004768,0.6666666666666666,2,object_08,1,686,0,6,6,forest_4,1,memory-2step-stake-s,549,1534215,0.0-19.0-0.0-0.44,A1M1E62KXCDNL0,3DW3BNF1HKYVNTMBZS7SV7ATLD58VQ,37WLF8U1WT6XPN75XB1PY4Z8TW6K6P,3,4
45,1,object_05,object_04,1425.3999999762,1,1,596.10000002384,0.4444444444444444,1,object_06,1,690,0,4,5,desert_6,1,memory-2step-stake-s,550,1542450,0.0-19.0-0.0-0.45,A1M1E62KXCDNL0,3DW3BNF1HKYVNTMBZS7SV7ATLD58VQ,37WLF8U1WT6XPN75XB1PY4Z8TW6K6P,1,2
46,4,object_02,object_01,997.19999992847,7,2,338.29999995232,0.4444444444444444,1,object_06,5,710,0,4,0,restaurant_7,1,memory-2step-stake-s,551,1550427,0.0-19.0-0.0-0.46,A1M1E62KXCDNL0,3DW3BNF1HKYVNTMBZS7SV7ATLD58VQ,37WLF8U1WT6XPN75XB1PY4Z8TW6K6P,8,7
47,2,object_07,object_09,1145.0,3,1,698.10000002384,0.2222222222222222,1,object_06,5,720,0,2,1,forest_7,1,memory-2step-stake-s,552,1558547,0.0-19.0-0.0-0.47,A1M1E62KXCDNL0,3DW3BNF1HKYVNTMBZS7SV7ATLD58VQ,37WLF8U1WT6XPN75XB1PY4Z8TW6K6P,3,4
48,1,object_05,object_04,1274.3999999762,1,1,691.5,0.2222222222222222,1,object_06,5,730,0,2,1,desert_1,1,memory-2step-stake-s,553,1566669,0.0-19.0-0.0-0.48,A1M1E62KXCDNL0,3DW3BNF1HKYVNTMBZS7SV7ATLD58VQ,37WLF8U1WT6XPN75XB1PY4Z8TW6K6P,1,2
49,2,object_07,object_09,1075.0,4,2,385.39999997616,0.3333333333333333,2,object_08,1,733,0,0,3,forest_7,1,memory-2step-stake-s,554,1574591,0.0-19.0-0.0-0.49,A1M1E62KXCDNL0,3DW3BNF1HKYVNTMBZS7SV7ATLD58VQ,37WLF8U1WT6XPN75XB1PY4Z8TW6K6P,3,4
50,2,object_07,object_09,1065.8999999762,4,2,485.89999997616,0.6666666666666666,2,object_08,1,739,0,2,6,forest_4,1,memory-2step-stake-s,555,1582903,0.0-19.0-0.0-0.50,A1M1E62KXCDNL0,3DW3BNF1HKYVNTMBZS7SV7ATLD58VQ,37WLF8U1WT6XPN75XB1PY4Z8TW6K6P,3,4
51,1,object_04,object_05,1220.9000000954,1,2,393.39999997616,0.3333333333333333,1,object_06,5,754,0,3,5,desert_1,1,memory-2step-stake-s,556,1590815,0.0-19.0-0.0-0.51,A1M1E62KXCDNL0,3DW3BNF1HKYVNTMBZS7SV7ATLD58VQ,37WLF8U1WT6XPN75XB1PY4Z8TW6K6P,2,1
52,4,object_02,object_01,928.5,8,1,344.60000002384,0.6666666666666666,2,object_08,5,784,0,2,6,restaurant_1,1,memory-2step-stake-s,557,1598992,0.0-19.0-0.0-0.52,A1M1E62KXCDNL0,3DW3BNF1HKYVNTMBZS7SV7ATLD58VQ,37WLF8U1WT6XPN75XB1PY4Z8TW6K6P,8,7
53,1,object_04,object_05,1036.2999999523,2,1,438.80000007153,0.3333333333333333,2,object_08,1,787,0,4,3,desert_3,1,memory-2step-stake-s,558,1606956,0.0-19.0-0.0-0.53,A1M1E62KXCDNL0,3DW3BNF1HKYVNTMBZS7SV7ATLD58VQ,37WLF8U1WT6XPN75XB1PY4Z8TW6K6P,2,1
54,3,object_03,object_10,988.89999997616,6,1,666.89999997616,0.3333333333333333,2,object_08,5,802,0,2,3,library_5,1,memory-2step-stake-s,559,1615155,0.0-19.0-0.0-0.54,A1M1E62KXCDNL0,3DW3BNF1HKYVNTMBZS7SV7ATLD58VQ,37WLF8U1WT6XPN75XB1PY4Z8TW6K6P,6,5
55,2,object_07,object_09,997.39999997616,3,1,602.89999997616,0.4444444444444444,1,object_06,1,806,0,4,5,forest_3,1,memory-2step-stake-s,560,1623386,0.0-19.0-0.0-0.55,A1M1E62KXCDNL0,3DW3BNF1HKYVNTMBZS7SV7ATLD58VQ,37WLF8U1WT6XPN75XB1PY4Z8TW6K6P,3,4
56,4,object_02,object_01,758.0,8,1,518.20000004768,0.7777777777777778,2,object_08,1,813,0,5,7,restaurant_8,1,memory-2step-stake-s,561,1631855,0.0-19.0-0.0-0.56,A1M1E62KXCDNL0,3DW3BNF1HKYVNTMBZS7SV7ATLD58VQ,37WLF8U1WT6XPN75XB1PY4Z8TW6K6P,8,7
57,4,object_02,object_01,1138.1000000238,8,1,775.10000002384,1.0,2,object_08,5,858,0,8,9,restaurant_8,1,memory-2step-stake-s,562,1640777,0.0-19.0-0.0-0.57,A1M1E62KXCDNL0,3DW3BNF1HKYVNTMBZS7SV7ATLD58VQ,37WLF8U1WT6XPN75XB1PY4Z8TW6K6P,8,7
58,2,object_07,object_09,1073.8000000715,4,2,984.79999995232,1.0,2,object_08,1,867,0,3,9,forest_4,1,memory-2step-stake-s,563,1649907,0.0-19.0-0.0-0.58,A1M1E62KXCDNL0,3DW3BNF1HKYVNTMBZS7SV7ATLD58VQ,37WLF8U1WT6XPN75XB1PY4Z8TW6K6P,3,4
59,3,object_03,object_10,382.70000004768,6,1,852.80000007153,1.0,2,object_08,1,876,0,3,9,library_7,1,memory-2step-stake-s,564,1658903,0.0-19.0-0.0-0.59,A1M1E62KXCDNL0,3DW3BNF1HKYVNTMBZS7SV7ATLD58VQ,37WLF8U1WT6XPN75XB1PY4Z8TW6K6P,6,5
60,3,object_03,object_10,1082.5,6,1,620.60000002384,0.8888888888888888,2,object_08,1,884,0,0,8,library_4,1,memory-2step-stake-s,565,1667567,0.0-19.0-0.0-0.60,A1M1E62KXCDNL0,3DW3BNF1HKYVNTMBZS7SV7ATLD58VQ,37WLF8U1WT6XPN75XB1PY4Z8TW6K6P,6,5
61,4,object_02,object_01,915.10000002384,8,1,421.0,0.7777777777777778,2,object_08,5,919,0,1,7,restaurant_8,1,memory-2step-stake-s,566,1675923,0.0-19.0-0.0-0.61,A1M1E62KXCDNL0,3DW3BNF1HKYVNTMBZS7SV7ATLD58VQ,37WLF8U1WT6XPN75XB1PY4Z8TW6K6P,8,7
62,2,object_07,object_09,1303.2000000477,4,2,554.29999995232,0.8888888888888888,2,object_08,1,927,0,2,8,forest_8,1,memory-2step-stake-s,567,1684504,0.0-19.0-0.0-0.62,A1M1E62KXCDNL0,3DW3BNF1HKYVNTMBZS7SV7ATLD58VQ,37WLF8U1WT6XPN75XB1PY4Z8TW6K6P,3,4
63,3,object_03,object_10,1039.8999999762,6,1,504.69999992847,0.7777777777777778,2,object_08,1,934,0,0,7,library_5,1,memory-2step-stake-s,568,1692956,0.0-19.0-0.0-0.63,A1M1E62KXCDNL0,3DW3BNF1HKYVNTMBZS7SV7ATLD58VQ,37WLF8U1WT6XPN75XB1PY4Z8TW6K6P,6,5
64,3,object_10,object_03,1062.3999999762,6,2,470.70000004768,0.7777777777777778,2,object_08,5,969,0,1,7,library_4,1,memory-2step-stake-s,569,1701375,0.0-19.0-0.0-0.64,A1M1E62KXCDNL0,3DW3BNF1HKYVNTMBZS7SV7ATLD58VQ,37WLF8U1WT6XPN75XB1PY4Z8TW6K6P,5,6
65,1,object_05,object_04,1289.1000000238,2,2,534.89999997616,0.8888888888888888,2,object_08,5,1009,0,2,8,desert_1,1,memory-2step-stake-s,570,1709944,0.0-19.0-0.0-0.65,A1M1E62KXCDNL0,3DW3BNF1HKYVNTMBZS7SV7ATLD58VQ,37WLF8U1WT6XPN75XB1PY4Z8TW6K6P,1,2
66,3,object_10,object_03,934.5,6,2,379.0,1.0,2,object_08,5,1054,0,2,9,library_2,1,memory-2step-stake-s,571,1718515,0.0-19.0-0.0-0.66,A1M1E62KXCDNL0,3DW3BNF1HKYVNTMBZS7SV7ATLD58VQ,37WLF8U1WT6XPN75XB1PY4Z8TW6K6P,5,6
67,3,object_10,object_03,840.0,6,2,958.60000002384,0.8888888888888888,2,object_08,5,1094,0,4,8,library_4,1,memory-2step-stake-s,572,1727523,0.0-19.0-0.0-0.67,A1M1E62KXCDNL0,3DW3BNF1HKYVNTMBZS7SV7ATLD58VQ,37WLF8U1WT6XPN75XB1PY4Z8TW6K6P,5,6
68,1,object_04,object_05,1130.7999999523,1,2,380.30000007153,0.1111111111111111,1,object_06,1,1095,0,1,8,desert_3,1,memory-2step-stake-s,573,1735222,0.0-19.0-0.0-0.68,A1M1E62KXCDNL0,3DW3BNF1HKYVNTMBZS7SV7ATLD58VQ,37WLF8U1WT6XPN75XB1PY4Z8TW6K6P,2,1
69,4,object_01,object_02,1155.8000000715,8,2,372.70000004768,0.7777777777777778,2,object_08,5,1130,0,2,7,restaurant_4,1,memory-2step-stake-s,574,1743527,0.0-19.0-0.0-0.69,A1M1E62KXCDNL0,3DW3BNF1HKYVNTMBZS7SV7ATLD58VQ,37WLF8U1WT6XPN75XB1PY4Z8TW6K6P,7,8
70,1,object_05,object_04,-1.0,-1,-1,-1.0,0.0,-,0,5,1130,0,2,7,desert_1,1,memory-2step-stake-s,575,1750037,0.0-19.0-0.0-0.70,A1M1E62KXCDNL0,3DW3BNF1HKYVNTMBZS7SV7ATLD58VQ,37WLF8U1WT6XPN75XB1PY4Z8TW6K6P,1,2
71,4,object_01,object_02,782.10000002384,8,2,498.60000002384,1.0,2,object_08,5,1175,0,4,9,restaurant_4,1,memory-2step-stake-s,576,1758702,0.0-19.0-0.0-0.71,A1M1E62KXCDNL0,3DW3BNF1HKYVNTMBZS7SV7ATLD58VQ,37WLF8U1WT6XPN75XB1PY4Z8TW6K6P,7,8
72,3,object_10,object_03,811.19999992847,6,2,981.20000004768,1.0,2,object_08,5,1220,0,7,9,library_2,1,memory-2step-stake-s,577,1767824,0.0-19.0-0.0-0.72,A1M1E62KXCDNL0,3DW3BNF1HKYVNTMBZS7SV7ATLD58VQ,37WLF8U1WT6XPN75XB1PY4Z8TW6K6P,5,6
73,4,object_02,object_01,838.10000002384,8,1,412.0,1.0,2,object_08,5,1265,0,4,9,restaurant_8,1,memory-2step-stake-s,578,1776371,0.0-19.0-0.0-0.73,A1M1E62KXCDNL0,3DW3BNF1HKYVNTMBZS7SV7ATLD58VQ,37WLF8U1WT6XPN75XB1PY4Z8TW6K6P,8,7
74,4,object_01,object_02,714.39999997616,8,2,579.70000004768,0.5555555555555556,2,object_08,5,1290,0,7,5,restaurant_1,1,memory-2step-stake-s,579,1784702,0.0-19.0-0.0-0.74,A1M1E62KXCDNL0,3DW3BNF1HKYVNTMBZS7SV7ATLD58VQ,37WLF8U1WT6XPN75XB1PY4Z8TW6K6P,7,8
75,2,object_07,object_09,805.69999992847,3,1,402.20000004768,0.4444444444444444,1,object_06,1,1294,0,4,2,forest_7,1,memory-2step-stake-s,580,1792738,0.0-19.0-0.0-0.75,A1M1E62KXCDNL0,3DW3BNF1HKYVNTMBZS7SV7ATLD58VQ,37WLF8U1WT6XPN75XB1PY4Z8TW6K6P,3,4
76,2,object_09,object_07,1008.6000000238,3,2,372.20000004768,0.2222222222222222,1,object_06,1,1296,0,2,1,forest_3,1,memory-2step-stake-s,581,1800531,0.0-19.0-0.0-0.76,A1M1E62KXCDNL0,3DW3BNF1HKYVNTMBZS7SV7ATLD58VQ,37WLF8U1WT6XPN75XB1PY4Z8TW6K6P,4,3
77,2,object_09,object_07,962.29999995232,3,2,428.19999992847,0.1111111111111111,1,object_06,1,1297,0,1,2,forest_3,1,memory-2step-stake-s,582,1808277,0.0-19.0-0.0-0.77,A1M1E62KXCDNL0,3DW3BNF1HKYVNTMBZS7SV7ATLD58VQ,37WLF8U1WT6XPN75XB1PY4Z8TW6K6P,4,3
78,4,object_01,object_02,980.60000002384,8,2,369.5,0.1111111111111111,2,object_08,5,1302,0,2,1,restaurant_7,1,memory-2step-stake-s,583,1815965,0.0-19.0-0.0-0.78,A1M1E62KXCDNL0,3DW3BNF1HKYVNTMBZS7SV7ATLD58VQ,37WLF8U1WT6XPN75XB1PY4Z8TW6K6P,7,8
79,1,object_05,object_04,1200.4000000954,1,1,423.89999997616,0.3333333333333333,1,object_06,1,1305,0,3,3,desert_6,1,memory-2step-stake-s,584,1823909,0.0-19.0-0.0-0.79,A1M1E62KXCDNL0,3DW3BNF1HKYVNTMBZS7SV7ATLD58VQ,37WLF8U1WT6XPN75XB1PY4Z8TW6K6P,1,2
80,1,object_04,object_05,1089.5,1,2,367.10000002384,0.6666666666666666,1,object_06,1,1311,0,6,5,desert_6,1,memory-2step-stake-s,585,1832135,0.0-19.0-0.0-0.80,A1M1E62KXCDNL0,3DW3BNF1HKYVNTMBZS7SV7ATLD58VQ,37WLF8U1WT6XPN75XB1PY4Z8TW6K6P,2,1
81,4,object_01,object_02,979.29999995232,7,1,47.699999928474,0.8888888888888888,1,object_06,5,1351,0,8,5,restaurant_8,1,memory-2step-stake-s,586,1840219,0.0-19.0-0.0-0.81,A1M1E62KXCDNL0,3DW3BNF1HKYVNTMBZS7SV7ATLD58VQ,37WLF8U1WT6XPN75XB1PY4Z8TW6K6P,7,8
82,3,object_10,object_03,995.5,6,2,329.10000002384,0.4444444444444444,2,object_08,5,1371,0,8,4,library_7,1,memory-2step-stake-s,587,1848182,0.0-19.0-0.0-0.82,A1M1E62KXCDNL0,3DW3BNF1HKYVNTMBZS7SV7ATLD58VQ,37WLF8U1WT6XPN75XB1PY4Z8TW6K6P,5,6
83,4,object_01,object_02,1121.6999999285,7,1,675.70000004768,0.8888888888888888,1,object_06,5,1411,0,8,0,restaurant_4,1,memory-2step-stake-s,588,1856926,0.0-19.0-0.0-0.83,A1M1E62KXCDNL0,3DW3BNF1HKYVNTMBZS7SV7ATLD58VQ,37WLF8U1WT6XPN75XB1PY4Z8TW6K6P,7,8
84,2,object_09,object_07,1209.3000000715,3,2,426.70000004768,0.6666666666666666,1,object_06,1,1417,0,6,2,forest_8,1,memory-2step-stake-s,589,1865184,0.0-19.0-0.0-0.84,A1M1E62KXCDNL0,3DW3BNF1HKYVNTMBZS7SV7ATLD58VQ,37WLF8U1WT6XPN75XB1PY4Z8TW6K6P,4,3
85,2,object_07,object_09,1052.1000000238,3,1,492.79999995232,0.6666666666666666,1,object_06,1,1423,0,6,1,forest_3,1,memory-2step-stake-s,590,1873510,0.0-19.0-0.0-0.85,A1M1E62KXCDNL0,3DW3BNF1HKYVNTMBZS7SV7ATLD58VQ,37WLF8U1WT6XPN75XB1PY4Z8TW6K6P,3,4
86,1,object_04,object_05,1182.8999999762,2,1,367.19999992847,0.4444444444444444,2,object_08,5,1443,0,4,4,desert_4,1,memory-2step-stake-s,591,1881497,0.0-19.0-0.0-0.86,A1M1E62KXCDNL0,3DW3BNF1HKYVNTMBZS7SV7ATLD58VQ,37WLF8U1WT6XPN75XB1PY4Z8TW6K6P,2,1
87,4,object_02,object_01,1081.8000000715,7,2,357.70000004768,0.0,1,object_06,5,1443,0,0,6,restaurant_7,1,memory-2step-stake-s,592,1889096,0.0-19.0-0.0-0.87,A1M1E62KXCDNL0,3DW3BNF1HKYVNTMBZS7SV7ATLD58VQ,37WLF8U1WT6XPN75XB1PY4Z8TW6K6P,8,7
88,4,object_01,object_02,934.39999997616,8,2,243.79999995232,0.8888888888888888,2,object_08,5,1483,0,2,8,restaurant_4,1,memory-2step-stake-s,593,1897395,0.0-19.0-0.0-0.88,A1M1E62KXCDNL0,3DW3BNF1HKYVNTMBZS7SV7ATLD58VQ,37WLF8U1WT6XPN75XB1PY4Z8TW6K6P,7,8
89,2,object_07,object_09,985.59999990463,4,2,681.10000002384,0.5555555555555556,2,object_08,1,1488,0,1,5,forest_3,1,memory-2step-stake-s,594,1905799,0.0-19.0-0.0-0.89,A1M1E62KXCDNL0,3DW3BNF1HKYVNTMBZS7SV7ATLD58VQ,37WLF8U1WT6XPN75XB1PY4Z8TW6K6P,3,4
90,2,object_09,object_07,1096.9000000954,4,1,451.29999995232,0.2222222222222222,2,object_08,1,1490,0,4,2,forest_4,1,memory-2step-stake-s,595,1913682,0.0-19.0-0.0-0.90,A1M1E62KXCDNL0,3DW3BNF1HKYVNTMBZS7SV7ATLD58VQ,37WLF8U1WT6XPN75XB1PY4Z8TW6K6P,4,3
91,1,object_04,object_05,1175.6000000238,2,1,484.0,0.0,2,object_08,1,1490,0,3,0,desert_4,1,memory-2step-stake-s,596,1921380,0.0-19.0-0.0-0.91,A1M1E62KXCDNL0,3DW3BNF1HKYVNTMBZS7SV7ATLD58VQ,37WLF8U1WT6XPN75XB1PY4Z8TW6K6P,2,1
92,1,object_05,object_04,-1.0,-1,-1,-1.0,0.0,-,0,1,1490,0,5,1,desert_4,1,memory-2step-stake-s,597,1927897,0.0-19.0-0.0-0.92,A1M1E62KXCDNL0,3DW3BNF1HKYVNTMBZS7SV7ATLD58VQ,37WLF8U1WT6XPN75XB1PY4Z8TW6K6P,1,2
93,1,object_04,object_05,900.80000007153,2,1,435.60000002384,0.3333333333333333,2,object_08,1,1493,0,5,3,desert_6,1,memory-2step-stake-s,598,1935863,0.0-19.0-0.0-0.93,A1M1E62KXCDNL0,3DW3BNF1HKYVNTMBZS7SV7ATLD58VQ,37WLF8U1WT6XPN75XB1PY4Z8TW6K6P,2,1
94,3,object_03,object_10,842.0,6,1,474.29999995232,0.3333333333333333,2,object_08,5,1508,0,3,3,library_7,1,memory-2step-stake-s,599,1943863,0.0-19.0-0.0-0.94,A1M1E62KXCDNL0,3DW3BNF1HKYVNTMBZS7SV7ATLD58VQ,37WLF8U1WT6XPN75XB1PY4Z8TW6K6P,6,5
95,3,object_10,object_03,984.90000009537,6,2,344.10000002384,0.3333333333333333,2,object_08,5,1523,0,4,3,library_4,1,memory-2step-stake-s,600,1951732,0.0-19.0-0.0-0.95,A1M1E62KXCDNL0,3DW3BNF1HKYVNTMBZS7SV7ATLD58VQ,37WLF8U1WT6XPN75XB1PY4Z8TW6K6P,5,6
96,1,object_05,object_04,1246.3999999762,1,1,550.79999995232,0.1111111111111111,1,object_06,1,1524,0,1,3,desert_3,1,memory-2step-stake-s,601,1959610,0.0-19.0-0.0-0.96,A1M1E62KXCDNL0,3DW3BNF1HKYVNTMBZS7SV7ATLD58VQ,37WLF8U1WT6XPN75XB1PY4Z8TW6K6P,1,2
97,2,object_07,object_09,839.5,3,1,346.29999995232,0.1111111111111111,1,object_06,1,1525,0,1,2,forest_3,1,memory-2step-stake-s,602,1967276,0.0-19.0-0.0-0.97,A1M1E62KXCDNL0,3DW3BNF1HKYVNTMBZS7SV7ATLD58VQ,37WLF8U1WT6XPN75XB1PY4Z8TW6K6P,3,4
98,1,object_05,object_04,1453.7999999523,2,2,523.30000007153,0.3333333333333333,2,object_08,1,1528,0,3,3,desert_6,1,memory-2step-stake-s,603,1975323,0.0-19.0-0.0-0.98,A1M1E62KXCDNL0,3DW3BNF1HKYVNTMBZS7SV7ATLD58VQ,37WLF8U1WT6XPN75XB1PY4Z8TW6K6P,1,2
99,3,object_03,object_10,829.09999990463,6,1,631.19999992847,0.2222222222222222,2,object_08,5,1538,0,2,2,library_2,1,memory-2step-stake-s,604,1983371,0.0-19.0-0.0-0.99,A1M1E62KXCDNL0,3DW3BNF1HKYVNTMBZS7SV7ATLD58VQ,37WLF8U1WT6XPN75XB1PY4Z8TW6K6P,6,5
100,4,object_02,object_01,873.80000007153,8,1,423.09999990463,0.4444444444444444,2,object_08,1,1542,0,1,4,restaurant_4,1,memory-2step-stake-s,605,1991431,0.0-19.0-0.0-0.100,A1M1E62KXCDNL0,3DW3BNF1HKYVNTMBZS7SV7ATLD58VQ,37WLF8U1WT6XPN75XB1PY4Z8TW6K6P,8,7
101,2,object_09,object_07,731.5,4,1,489.09999990463,0.3333333333333333,2,object_08,1,1545,0,1,3,forest_3,1,memory-2step-stake-s,606,1999471,0.0-19.0-0.0-0.101,A1M1E62KXCDNL0,3DW3BNF1HKYVNTMBZS7SV7ATLD58VQ,37WLF8U1WT6XPN75XB1PY4Z8TW6K6P,4,3
102,2,object_07,object_09,742.69999992847,3,1,461.29999995232,0.3333333333333333,1,object_06,1,1548,0,3,3,forest_8,1,memory-2step-stake-s,607,2007459,0.0-19.0-0.0-0.102,A1M1E62KXCDNL0,3DW3BNF1HKYVNTMBZS7SV7ATLD58VQ,37WLF8U1WT6XPN75XB1PY4Z8TW6K6P,3,4
103,4,object_02,object_01,836.89999997616,7,2,726.69999992847,0.4444444444444444,1,object_06,5,1568,0,4,3,restaurant_1,1,memory-2step-stake-s,608,2015817,0.0-19.0-0.0-0.103,A1M1E62KXCDNL0,3DW3BNF1HKYVNTMBZS7SV7ATLD58VQ,37WLF8U1WT6XPN75XB1PY4Z8TW6K6P,8,7
104,3,object_03,object_10,770.79999995232,6,1,432.10000002384,0.3333333333333333,2,object_08,5,1583,0,6,3,library_7,1,memory-2step-stake-s,609,2023774,0.0-19.0-0.0-0.104,A1M1E62KXCDNL0,3DW3BNF1HKYVNTMBZS7SV7ATLD58VQ,37WLF8U1WT6XPN75XB1PY4Z8TW6K6P,6,5
105,2,object_07,object_09,899.89999997616,3,1,391.19999992847,0.7777777777777778,1,object_06,1,1590,0,7,4,forest_4,1,memory-2step-stake-s,610,2032095,0.0-19.0-0.0-0.105,A1M1E62KXCDNL0,3DW3BNF1HKYVNTMBZS7SV7ATLD58VQ,37WLF8U1WT6XPN75XB1PY4Z8TW6K6P,3,4
106,4,object_02,object_01,1023.0999999046,7,2,348.79999995232,0.6666666666666666,1,object_06,5,1620,0,6,1,restaurant_4,1,memory-2step-stake-s,611,2040270,0.0-19.0-0.0-0.106,A1M1E62KXCDNL0,3DW3BNF1HKYVNTMBZS7SV7ATLD58VQ,37WLF8U1WT6XPN75XB1PY4Z8TW6K6P,8,7
107,4,object_02,object_01,886.79999995232,7,2,739.20000004768,0.5555555555555556,1,object_06,5,1645,0,5,1,restaurant_4,1,memory-2step-stake-s,612,2048737,0.0-19.0-0.0-0.107,A1M1E62KXCDNL0,3DW3BNF1HKYVNTMBZS7SV7ATLD58VQ,37WLF8U1WT6XPN75XB1PY4Z8TW6K6P,8,7
108,1,object_05,object_04,1173.1000000238,2,2,475.60000002384,0.4444444444444444,2,object_08,5,1665,0,6,4,desert_1,1,memory-2step-stake-s,613,2056834,0.0-19.0-0.0-0.108,A1M1E62KXCDNL0,3DW3BNF1HKYVNTMBZS7SV7ATLD58VQ,37WLF8U1WT6XPN75XB1PY4Z8TW6K6P,1,2
109,4,object_01,object_02,805.10000002384,7,1,567.29999995232,0.7777777777777778,1,object_06,5,1700,0,7,4,restaurant_7,1,memory-2step-stake-s,614,2065336,0.0-19.0-0.0-0.109,A1M1E62KXCDNL0,3DW3BNF1HKYVNTMBZS7SV7ATLD58VQ,37WLF8U1WT6XPN75XB1PY4Z8TW6K6P,7,8
110,3,object_03,object_10,1043.0,5,2,456.5,0.6666666666666666,1,object_06,5,1730,0,6,6,library_5,1,memory-2step-stake-s,615,2073619,0.0-19.0-0.0-0.110,A1M1E62KXCDNL0,3DW3BNF1HKYVNTMBZS7SV7ATLD58VQ,37WLF8U1WT6XPN75XB1PY4Z8TW6K6P,6,5
111,1,object_05,object_04,841.80000007153,1,1,530.60000002384,0.3333333333333333,1,object_06,1,1733,0,3,8,desert_6,1,memory-2step-stake-s,616,2081681,0.0-19.0-0.0-0.111,A1M1E62KXCDNL0,3DW3BNF1HKYVNTMBZS7SV7ATLD58VQ,37WLF8U1WT6XPN75XB1PY4Z8TW6K6P,1,2
112,2,object_07,object_09,1075.8999999762,3,1,1484.4000000954,0.5555555555555556,1,object_06,1,1738,0,5,8,forest_7,1,memory-2step-stake-s,617,2090916,0.0-19.0-0.0-0.112,A1M1E62KXCDNL0,3DW3BNF1HKYVNTMBZS7SV7ATLD58VQ,37WLF8U1WT6XPN75XB1PY4Z8TW6K6P,3,4
113,1,object_05,object_04,919.79999995232,2,2,707.70000004768,0.6666666666666666,2,object_08,1,1744,0,8,6,desert_6,1,memory-2step-stake-s,618,2099484,0.0-19.0-0.0-0.113,A1M1E62KXCDNL0,3DW3BNF1HKYVNTMBZS7SV7ATLD58VQ,37WLF8U1WT6XPN75XB1PY4Z8TW6K6P,1,2
114,4,object_02,object_01,908.79999995232,8,1,597.29999995232,0.5555555555555556,2,object_08,5,1769,0,8,5,restaurant_1,1,memory-2step-stake-s,619,2107825,0.0-19.0-0.0-0.114,A1M1E62KXCDNL0,3DW3BNF1HKYVNTMBZS7SV7ATLD58VQ,37WLF8U1WT6XPN75XB1PY4Z8TW6K6P,8,7
115,4,object_01,object_02,925.20000004768,8,2,604.19999992847,0.8888888888888888,2,object_08,5,1809,0,3,8,restaurant_1,1,memory-2step-stake-s,620,2116458,0.0-19.0-0.0-0.115,A1M1E62KXCDNL0,3DW3BNF1HKYVNTMBZS7SV7ATLD58VQ,37WLF8U1WT6XPN75XB1PY4Z8TW6K6P,7,8
116,4,object_01,object_02,739.0,8,2,158.59999990463,0.7777777777777778,2,object_08,1,1816,0,0,7,restaurant_7,1,memory-2step-stake-s,621,2124578,0.0-19.0-0.0-0.116,A1M1E62KXCDNL0,3DW3BNF1HKYVNTMBZS7SV7ATLD58VQ,37WLF8U1WT6XPN75XB1PY4Z8TW6K6P,7,8
117,3,object_03,object_10,1205.7000000477,6,1,152.0,0.6666666666666666,2,object_08,5,1846,0,2,6,library_4,1,memory-2step-stake-s,622,2132573,0.0-19.0-0.0-0.117,A1M1E62KXCDNL0,3DW3BNF1HKYVNTMBZS7SV7ATLD58VQ,37WLF8U1WT6XPN75XB1PY4Z8TW6K6P,6,5
118,1,object_04,object_05,981.79999995232,1,2,436.30000007153,0.0,1,object_06,1,1846,0,0,6,desert_4,1,memory-2step-stake-s,623,2140238,0.0-19.0-0.0-0.118,A1M1E62KXCDNL0,3DW3BNF1HKYVNTMBZS7SV7ATLD58VQ,37WLF8U1WT6XPN75XB1PY4Z8TW6K6P,2,1
119,1,object_04,object_05,1233.7999999523,1,2,375.0,0.3333333333333333,1,object_06,1,1849,0,3,8,desert_4,1,memory-2step-stake-s,624,2148139,0.0-19.0-0.0-0.119,A1M1E62KXCDNL0,3DW3BNF1HKYVNTMBZS7SV7ATLD58VQ,37WLF8U1WT6XPN75XB1PY4Z8TW6K6P,2,1
120,1,object_05,object_04,885.69999992847,1,1,391.09999990463,0.3333333333333333,1,object_06,5,1864,0,3,9,desert_4,1,memory-2step-stake-s,625,2156069,0.0-19.0-0.0-0.120,A1M1E62KXCDNL0,3DW3BNF1HKYVNTMBZS7SV7ATLD58VQ,37WLF8U1WT6XPN75XB1PY4Z8TW6K6P,1,2
121,1,object_05,object_04,868.70000004768,2,2,557.10000002384,0.4444444444444444,2,object_08,1,1868,0,5,4,desert_3,1,memory-2step-stake-s,626,2164274,0.0-19.0-0.0-0.121,A1M1E62KXCDNL0,3DW3BNF1HKYVNTMBZS7SV7ATLD58VQ,37WLF8U1WT6XPN75XB1PY4Z8TW6K6P,1,2
122,3,object_10,object_03,818.20000004768,6,2,704.60000002384,0.5555555555555556,2,object_08,1,1873,0,5,5,library_5,1,memory-2step-stake-s,627,2172701,0.0-19.0-0.0-0.122,A1M1E62KXCDNL0,3DW3BNF1HKYVNTMBZS7SV7ATLD58VQ,37WLF8U1WT6XPN75XB1PY4Z8TW6K6P,5,6
123,2,object_09,object_07,996.60000002384,4,1,715.89999997616,0.6666666666666666,2,object_08,1,1879,0,1,6,forest_8,1,memory-2step-stake-s,628,2181276,0.0-19.0-0.0-0.123,A1M1E62KXCDNL0,3DW3BNF1HKYVNTMBZS7SV7ATLD58VQ,37WLF8U1WT6XPN75XB1PY4Z8TW6K6P,4,3
124,1,object_05,object_04,1254.4000000954,2,2,660.29999995232,0.5555555555555556,2,object_08,1,1884,0,1,5,desert_6,1,memory-2step-stake-s,629,2189661,0.0-19.0-0.0-0.124,A1M1E62KXCDNL0,3DW3BNF1HKYVNTMBZS7SV7ATLD58VQ,37WLF8U1WT6XPN75XB1PY4Z8TW6K6P,1,2
125,2,object_09,object_07,819.80000007153,4,1,524.69999992847,0.7777777777777778,2,object_08,1,1891,0,2,7,forest_8,1,memory-2step-stake-s,630,2198157,0.0-19.0-0.0-0.125,A1M1E62KXCDNL0,3DW3BNF1HKYVNTMBZS7SV7ATLD58VQ,37WLF8U1WT6XPN75XB1PY4Z8TW6K6P,4,3
126,1,object_04,object_05,834.70000004768,1,2,12.200000047684,0.1111111111111111,1,object_06,1,1892,0,1,7,desert_3,1,memory-2step-stake-s,631,2205488,0.0-19.0-0.0-0.126,A1M1E62KXCDNL0,3DW3BNF1HKYVNTMBZS7SV7ATLD58VQ,37WLF8U1WT6XPN75XB1PY4Z8TW6K6P,2,1
127,2,object_09,object_07,1025.7000000477,4,1,439.90000009537,0.8888888888888888,2,object_08,5,1932,0,2,8,forest_3,1,memory-2step-stake-s,632,2213968,0.0-19.0-0.0-0.127,A1M1E62KXCDNL0,3DW3BNF1HKYVNTMBZS7SV7ATLD58VQ,37WLF8U1WT6XPN75XB1PY4Z8TW6K6P,4,3
128,3,object_10,object_03,711.40000009537,5,1,576.39999997616,0.3333333333333333,1,object_06,5,1947,0,3,7,library_2,1,memory-2step-stake-s,634,2369060,0.0-19.0-0.1-0.128,A1M1E62KXCDNL0,3DW3BNF1HKYVNTMBZS7SV7ATLD58VQ,37WLF8U1WT6XPN75XB1PY4Z8TW6K6P,5,6
129,4,object_01,object_02,910.40000009537,8,2,467.79999995232,0.5555555555555556,2,object_08,5,1972,0,1,5,restaurant_7,1,memory-2step-stake-s,635,2377270,0.0-19.0-0.1-0.129,A1M1E62KXCDNL0,3DW3BNF1HKYVNTMBZS7SV7ATLD58VQ,37WLF8U1WT6XPN75XB1PY4Z8TW6K6P,7,8
130,3,object_10,object_03,834.70000004768,5,1,503.0,0.1111111111111111,1,object_06,5,1977,0,1,4,library_4,1,memory-2step-stake-s,636,2385092,0.0-19.0-0.1-0.130,A1M1E62KXCDNL0,3DW3BNF1HKYVNTMBZS7SV7ATLD58VQ,37WLF8U1WT6XPN75XB1PY4Z8TW6K6P,5,6
131,4,object_02,object_01,661.69999992847,8,1,454.60000002384,0.5555555555555556,2,object_08,1,1982,0,1,5,restaurant_1,1,memory-2step-stake-s,637,2393280,0.0-19.0-0.1-0.131,A1M1E62KXCDNL0,3DW3BNF1HKYVNTMBZS7SV7ATLD58VQ,37WLF8U1WT6XPN75XB1PY4Z8TW6K6P,8,7
132,1,object_05,object_04,1140.3999999762,1,1,391.0,0.0,1,object_06,1,1982,0,0,7,desert_6,1,memory-2step-stake-s,638,2400894,0.0-19.0-0.1-0.132,A1M1E62KXCDNL0,3DW3BNF1HKYVNTMBZS7SV7ATLD58VQ,37WLF8U1WT6XPN75XB1PY4Z8TW6K6P,1,2
133,2,object_07,object_09,867.20000004768,4,2,571.10000002384,0.7777777777777778,2,object_08,5,2017,0,2,7,forest_3,1,memory-2step-stake-s,639,2409413,0.0-19.0-0.1-0.133,A1M1E62KXCDNL0,3DW3BNF1HKYVNTMBZS7SV7ATLD58VQ,37WLF8U1WT6XPN75XB1PY4Z8TW6K6P,3,4
134,1,object_04,object_05,1016.6000000238,2,1,458.60000002384,0.7777777777777778,2,object_08,1,2024,0,1,7,desert_4,1,memory-2step-stake-s,640,2417811,0.0-19.0-0.1-0.134,A1M1E62KXCDNL0,3DW3BNF1HKYVNTMBZS7SV7ATLD58VQ,37WLF8U1WT6XPN75XB1PY4Z8TW6K6P,2,1
135,1,object_05,object_04,1057.8999999762,2,2,428.30000007153,0.7777777777777778,2,object_08,1,2031,0,1,7,desert_6,1,memory-2step-stake-s,641,2426180,0.0-19.0-0.1-0.135,A1M1E62KXCDNL0,3DW3BNF1HKYVNTMBZS7SV7ATLD58VQ,37WLF8U1WT6XPN75XB1PY4Z8TW6K6P,1,2
136,2,object_07,object_09,1052.3999999762,4,2,440.30000007153,1.0,2,object_08,1,2040,0,2,9,forest_4,1,memory-2step-stake-s,642,2434752,0.0-19.0-0.1-0.136,A1M1E62KXCDNL0,3DW3BNF1HKYVNTMBZS7SV7ATLD58VQ,37WLF8U1WT6XPN75XB1PY4Z8TW6K6P,3,4
137,3,object_10,object_03,1033.3999999762,6,2,511.39999997616,0.7777777777777778,2,object_08,5,2075,0,0,7,library_2,1,memory-2step-stake-s,643,2443198,0.0-19.0-0.1-0.137,A1M1E62KXCDNL0,3DW3BNF1HKYVNTMBZS7SV7ATLD58VQ,37WLF8U1WT6XPN75XB1PY4Z8TW6K6P,5,6
138,4,object_02,object_01,1178.7999999523,8,1,366.10000002384,0.8888888888888888,2,object_08,5,2115,0,2,8,restaurant_4,1,memory-2step-stake-s,644,2451604,0.0-19.0-0.1-0.138,A1M1E62KXCDNL0,3DW3BNF1HKYVNTMBZS7SV7ATLD58VQ,37WLF8U1WT6XPN75XB1PY4Z8TW6K6P,8,7
139,2,object_07,object_09,924.89999997616,4,2,814.89999997616,0.8888888888888888,2,object_08,5,2155,0,2,8,forest_4,1,memory-2step-stake-s,645,2460450,0.0-19.0-0.1-0.139,A1M1E62KXCDNL0,3DW3BNF1HKYVNTMBZS7SV7ATLD58VQ,37WLF8U1WT6XPN75XB1PY4Z8TW6K6P,3,4
140,3,object_03,object_10,861.60000002384,6,1,736.0,0.8888888888888888,2,object_08,5,2195,0,3,8,library_2,1,memory-2step-stake-s,646,2469243,0.0-19.0-0.1-0.140,A1M1E62KXCDNL0,3DW3BNF1HKYVNTMBZS7SV7ATLD58VQ,37WLF8U1WT6XPN75XB1PY4Z8TW6K6P,6,5
141,2,object_07,object_09,880.29999995232,4,2,638.20000004768,0.6666666666666666,2,object_08,5,2225,0,0,6,forest_8,1,memory-2step-stake-s,647,2477725,0.0-19.0-0.1-0.141,A1M1E62KXCDNL0,3DW3BNF1HKYVNTMBZS7SV7ATLD58VQ,37WLF8U1WT6XPN75XB1PY4Z8TW6K6P,3,4
142,4,object_02,object_01,956.79999995232,8,1,501.90000009537,0.3333333333333333,2,object_08,1,2228,0,2,3,restaurant_8,1,memory-2step-stake-s,648,2485756,0.0-19.0-0.1-0.142,A1M1E62KXCDNL0,3DW3BNF1HKYVNTMBZS7SV7ATLD58VQ,37WLF8U1WT6XPN75XB1PY4Z8TW6K6P,8,7
143,3,object_03,object_10,941.29999995232,6,1,495.80000007153,0.4444444444444444,2,object_08,1,2232,0,4,4,library_2,1,memory-2step-stake-s,649,2493880,0.0-19.0-0.1-0.143,A1M1E62KXCDNL0,3DW3BNF1HKYVNTMBZS7SV7ATLD58VQ,37WLF8U1WT6XPN75XB1PY4Z8TW6K6P,6,5
144,3,object_10,object_03,787.0,6,2,437.39999997616,0.8888888888888888,2,object_08,5,2272,0,6,8,library_5,1,memory-2step-stake-s,650,2502368,0.0-19.0-0.1-0.144,A1M1E62KXCDNL0,3DW3BNF1HKYVNTMBZS7SV7ATLD58VQ,37WLF8U1WT6XPN75XB1PY4Z8TW6K6P,5,6
145,2,object_07,object_09,719.90000009537,4,2,383.19999992847,1.0,2,object_08,1,2281,0,3,9,forest_8,1,memory-2step-stake-s,651,2510894,0.0-19.0-0.1-0.145,A1M1E62KXCDNL0,3DW3BNF1HKYVNTMBZS7SV7ATLD58VQ,37WLF8U1WT6XPN75XB1PY4Z8TW6K6P,3,4
146,1,object_04,object_05,1207.0,2,1,521.79999995232,0.8888888888888888,2,object_08,1,2289,0,6,8,desert_4,1,memory-2step-stake-s,652,2519472,0.0-19.0-0.1-0.146,A1M1E62KXCDNL0,3DW3BNF1HKYVNTMBZS7SV7ATLD58VQ,37WLF8U1WT6XPN75XB1PY4Z8TW6K6P,2,1
147,1,object_05,object_04,1201.2999999523,2,2,432.69999992847,0.8888888888888888,2,object_08,5,2329,0,4,8,desert_3,1,memory-2step-stake-s,653,2527946,0.0-19.0-0.1-0.147,A1M1E62KXCDNL0,3DW3BNF1HKYVNTMBZS7SV7ATLD58VQ,37WLF8U1WT6XPN75XB1PY4Z8TW6K6P,1,2
148,3,object_10,object_03,1062.0,6,2,450.5,0.6666666666666666,2,object_08,5,2359,0,4,6,library_4,1,memory-2step-stake-s,654,2536228,0.0-19.0-0.1-0.148,A1M1E62KXCDNL0,3DW3BNF1HKYVNTMBZS7SV7ATLD58VQ,37WLF8U1WT6XPN75XB1PY4Z8TW6K6P,5,6
149,4,object_02,object_01,855.40000009537,8,1,475.5,0.4444444444444444,2,object_08,5,2379,0,4,4,restaurant_4,1,memory-2step-stake-s,655,2544347,0.0-19.0-0.1-0.149,A1M1E62KXCDNL0,3DW3BNF1HKYVNTMBZS7SV7ATLD58VQ,37WLF8U1WT6XPN75XB1PY4Z8TW6K6P,8,7
150,4,object_01,object_02,674.30000007153,8,2,413.20000004768,0.3333333333333333,2,object_08,5,2394,0,6,3,restaurant_8,1,memory-2step-stake-s,656,2552295,0.0-19.0-0.1-0.150,A1M1E62KXCDNL0,3DW3BNF1HKYVNTMBZS7SV7ATLD58VQ,37WLF8U1WT6XPN75XB1PY4Z8TW6K6P,7,8
151,3,object_03,object_10,792.60000002384,5,2,91.300000071526,0.8888888888888888,1,object_06,5,2434,0,8,2,library_2,1,memory-2step-stake-s,657,2560426,0.0-19.0-0.1-0.151,A1M1E62KXCDNL0,3DW3BNF1HKYVNTMBZS7SV7ATLD58VQ,37WLF8U1WT6XPN75XB1PY4Z8TW6K6P,6,5
152,1,object_04,object_05,905.5,1,2,395.5,0.7777777777777778,1,object_06,5,2469,0,7,5,desert_1,1,memory-2step-stake-s,658,2568782,0.0-19.0-0.1-0.152,A1M1E62KXCDNL0,3DW3BNF1HKYVNTMBZS7SV7ATLD58VQ,37WLF8U1WT6XPN75XB1PY4Z8TW6K6P,2,1
153,2,object_09,object_07,924.0,3,2,447.5,0.7777777777777778,1,object_06,1,2476,0,7,5,forest_4,1,memory-2step-stake-s,659,2577176,0.0-19.0-0.1-0.153,A1M1E62KXCDNL0,3DW3BNF1HKYVNTMBZS7SV7ATLD58VQ,37WLF8U1WT6XPN75XB1PY4Z8TW6K6P,4,3
154,3,object_03,object_10,1065.0,5,2,779.29999995232,0.7777777777777778,1,object_06,5,2511,0,7,5,library_4,1,memory-2step-stake-s,660,2585890,0.0-19.0-0.1-0.154,A1M1E62KXCDNL0,3DW3BNF1HKYVNTMBZS7SV7ATLD58VQ,37WLF8U1WT6XPN75XB1PY4Z8TW6K6P,6,5
155,1,object_04,object_05,1115.2000000477,1,2,624.5,0.8888888888888888,1,object_06,1,2519,0,8,6,desert_3,1,memory-2step-stake-s,661,2594573,0.0-19.0-0.1-0.155,A1M1E62KXCDNL0,3DW3BNF1HKYVNTMBZS7SV7ATLD58VQ,37WLF8U1WT6XPN75XB1PY4Z8TW6K6P,2,1
156,3,object_03,object_10,932.79999995232,5,2,495.0,0.8888888888888888,1,object_06,5,2559,0,8,6,library_7,1,memory-2step-stake-s,662,2603121,0.0-19.0-0.1-0.156,A1M1E62KXCDNL0,3DW3BNF1HKYVNTMBZS7SV7ATLD58VQ,37WLF8U1WT6XPN75XB1PY4Z8TW6K6P,6,5
157,2,object_07,object_09,1080.3999999762,3,1,414.20000004768,0.6666666666666666,1,object_06,1,2565,0,6,4,forest_7,1,memory-2step-stake-s,663,2611396,0.0-19.0-0.1-0.157,A1M1E62KXCDNL0,3DW3BNF1HKYVNTMBZS7SV7ATLD58VQ,37WLF8U1WT6XPN75XB1PY4Z8TW6K6P,3,4
158,2,object_07,object_09,818.5,3,1,515.0,0.7777777777777778,1,object_06,1,2572,0,7,0,forest_3,1,memory-2step-stake-s,664,2619853,0.0-19.0-0.1-0.158,A1M1E62KXCDNL0,3DW3BNF1HKYVNTMBZS7SV7ATLD58VQ,37WLF8U1WT6XPN75XB1PY4Z8TW6K6P,3,4
159,2,object_09,object_07,1227.1999999285,3,2,648.0,0.7777777777777778,1,object_06,1,2579,0,7,1,forest_3,1,memory-2step-stake-s,665,2628436,0.0-19.0-0.1-0.159,A1M1E62KXCDNL0,3DW3BNF1HKYVNTMBZS7SV7ATLD58VQ,37WLF8U1WT6XPN75XB1PY4Z8TW6K6P,4,3
160,4,object_02,object_01,942.60000002384,7,2,332.90000009537,0.6666666666666666,1,object_06,5,2609,0,6,2,restaurant_8,1,memory-2step-stake-s,666,2636616,0.0-19.0-0.1-0.160,A1M1E62KXCDNL0,3DW3BNF1HKYVNTMBZS7SV7ATLD58VQ,37WLF8U1WT6XPN75XB1PY4Z8TW6K6P,8,7
161,3,object_10,object_03,1117.9000000954,5,1,446.20000004768,0.2222222222222222,1,object_06,5,2619,0,2,0,library_7,1,memory-2step-stake-s,667,2644493,0.0-19.0-0.1-0.161,A1M1E62KXCDNL0,3DW3BNF1HKYVNTMBZS7SV7ATLD58VQ,37WLF8U1WT6XPN75XB1PY4Z8TW6K6P,5,6
162,1,object_04,object_05,1151.6000000238,1,2,475.39999997616,0.7777777777777778,1,object_06,1,2626,0,7,5,desert_4,1,memory-2step-stake-s,668,2652905,0.0-19.0-0.1-0.162,A1M1E62KXCDNL0,3DW3BNF1HKYVNTMBZS7SV7ATLD58VQ,37WLF8U1WT6XPN75XB1PY4Z8TW6K6P,2,1
163,3,object_03,object_10,993.30000007153,6,1,370.5,0.3333333333333333,2,object_08,5,2641,0,5,3,library_2,1,memory-2step-stake-s,669,2660809,0.0-19.0-0.1-0.163,A1M1E62KXCDNL0,3DW3BNF1HKYVNTMBZS7SV7ATLD58VQ,37WLF8U1WT6XPN75XB1PY4Z8TW6K6P,6,5
164,2,object_09,object_07,1179.7000000477,3,2,342.20000004768,0.6666666666666666,1,object_06,1,2647,0,6,0,forest_4,1,memory-2step-stake-s,670,2668996,0.0-19.0-0.1-0.164,A1M1E62KXCDNL0,3DW3BNF1HKYVNTMBZS7SV7ATLD58VQ,37WLF8U1WT6XPN75XB1PY4Z8TW6K6P,4,3
165,1,object_05,object_04,1022.2000000477,1,1,-1.0,0.0,1,object_06,1,2647,0,7,2,desert_1,1,memory-2step-stake-s,671,2677528,0.0-19.0-0.1-0.165,A1M1E62KXCDNL0,3DW3BNF1HKYVNTMBZS7SV7ATLD58VQ,37WLF8U1WT6XPN75XB1PY4Z8TW6K6P,1,2
166,2,object_09,object_07,1301.2999999523,3,2,399.60000002384,0.6666666666666666,1,object_06,1,2653,0,6,1,forest_4,1,memory-2step-stake-s,672,2685767,0.0-19.0-0.1-0.166,A1M1E62KXCDNL0,3DW3BNF1HKYVNTMBZS7SV7ATLD58VQ,37WLF8U1WT6XPN75XB1PY4Z8TW6K6P,4,3
167,1,object_05,object_04,981.10000002384,1,1,360.39999997616,0.5555555555555556,1,object_06,5,2678,0,5,1,desert_6,1,memory-2step-stake-s,673,2693865,0.0-19.0-0.1-0.167,A1M1E62KXCDNL0,3DW3BNF1HKYVNTMBZS7SV7ATLD58VQ,37WLF8U1WT6XPN75XB1PY4Z8TW6K6P,1,2
168,4,object_01,object_02,898.20000004768,7,1,439.70000004768,0.4444444444444444,1,object_06,5,2698,0,4,3,restaurant_8,1,memory-2step-stake-s,674,2701941,0.0-19.0-0.1-0.168,A1M1E62KXCDNL0,3DW3BNF1HKYVNTMBZS7SV7ATLD58VQ,37WLF8U1WT6XPN75XB1PY4Z8TW6K6P,7,8
169,3,object_03,object_10,935.60000002384,6,1,326.40000009537,0.3333333333333333,2,object_08,5,2713,0,4,3,library_2,1,memory-2step-stake-s,675,2709799,0.0-19.0-0.1-0.169,A1M1E62KXCDNL0,3DW3BNF1HKYVNTMBZS7SV7ATLD58VQ,37WLF8U1WT6XPN75XB1PY4Z8TW6K6P,6,5
170,2,object_09,object_07,870.39999997616,3,2,426.09999990463,0.3333333333333333,1,object_06,1,2716,0,3,4,forest_7,1,memory-2step-stake-s,676,2717763,0.0-19.0-0.1-0.170,A1M1E62KXCDNL0,3DW3BNF1HKYVNTMBZS7SV7ATLD58VQ,37WLF8U1WT6XPN75XB1PY4Z8TW6K6P,4,3
171,3,object_10,object_03,1052.2999999523,5,1,375.5,0.0,1,object_06,5,2716,0,0,4,library_4,1,memory-2step-stake-s,677,2725375,0.0-19.0-0.1-0.171,A1M1E62KXCDNL0,3DW3BNF1HKYVNTMBZS7SV7ATLD58VQ,37WLF8U1WT6XPN75XB1PY4Z8TW6K6P,5,6
172,2,object_09,object_07,816.89999997616,4,1,18.100000023842,1.0,2,object_08,1,2725,0,2,9,forest_8,1,memory-2step-stake-s,678,2733536,0.0-19.0-0.1-0.172,A1M1E62KXCDNL0,3DW3BNF1HKYVNTMBZS7SV7ATLD58VQ,37WLF8U1WT6XPN75XB1PY4Z8TW6K6P,4,3
173,2,object_09,object_07,694.5,4,1,539.5,0.6666666666666666,2,object_08,1,2731,0,4,6,forest_4,1,memory-2step-stake-s,679,2741924,0.0-19.0-0.1-0.173,A1M1E62KXCDNL0,3DW3BNF1HKYVNTMBZS7SV7ATLD58VQ,37WLF8U1WT6XPN75XB1PY4Z8TW6K6P,4,3
174,4,object_01,object_02,946.19999992847,8,2,335.79999995232,0.3333333333333333,2,object_08,5,2746,0,6,3,restaurant_1,1,memory-2step-stake-s,680,2749799,0.0-19.0-0.1-0.174,A1M1E62KXCDNL0,3DW3BNF1HKYVNTMBZS7SV7ATLD58VQ,37WLF8U1WT6XPN75XB1PY4Z8TW6K6P,7,8
175,3,object_03,object_10,732.39999997616,6,1,42.800000071526,0.4444444444444444,2,object_08,1,2750,0,8,4,library_4,1,memory-2step-stake-s,681,2757482,0.0-19.0-0.1-0.175,A1M1E62KXCDNL0,3DW3BNF1HKYVNTMBZS7SV7ATLD58VQ,37WLF8U1WT6XPN75XB1PY4Z8TW6K6P,6,5
176,1,object_04,object_05,1029.1000000238,2,1,441.30000007153,0.2222222222222222,2,object_08,1,2752,0,7,2,desert_3,1,memory-2step-stake-s,682,2765357,0.0-19.0-0.1-0.176,A1M1E62KXCDNL0,3DW3BNF1HKYVNTMBZS7SV7ATLD58VQ,37WLF8U1WT6XPN75XB1PY4Z8TW6K6P,2,1
177,4,object_02,object_01,845.5,7,2,348.89999997616,0.5555555555555556,1,object_06,5,2777,0,5,2,restaurant_7,1,memory-2step-stake-s,683,2773465,0.0-19.0-0.1-0.177,A1M1E62KXCDNL0,3DW3BNF1HKYVNTMBZS7SV7ATLD58VQ,37WLF8U1WT6XPN75XB1PY4Z8TW6K6P,8,7
178,1,object_04,object_05,1040.7000000477,1,2,352.79999995232,0.7777777777777778,1,object_06,5,2812,0,7,4,desert_6,1,memory-2step-stake-s,684,2781768,0.0-19.0-0.1-0.178,A1M1E62KXCDNL0,3DW3BNF1HKYVNTMBZS7SV7ATLD58VQ,37WLF8U1WT6XPN75XB1PY4Z8TW6K6P,2,1
179,4,object_01,object_02,1017.0,7,1,409.10000002384,0.7777777777777778,1,object_06,5,2847,0,7,3,restaurant_7,1,memory-2step-stake-s,685,2790128,0.0-19.0-0.1-0.179,A1M1E62KXCDNL0,3DW3BNF1HKYVNTMBZS7SV7ATLD58VQ,37WLF8U1WT6XPN75XB1PY4Z8TW6K6P,7,8
180,2,object_07,object_09,943.29999995232,3,1,410.39999997616,1.0,1,object_06,1,2856,0,9,2,forest_8,1,memory-2step-stake-s,686,2798690,0.0-19.0-0.1-0.180,A1M1E62KXCDNL0,3DW3BNF1HKYVNTMBZS7SV7ATLD58VQ,37WLF8U1WT6XPN75XB1PY4Z8TW6K6P,3,4
181,3,object_03,object_10,1143.7000000477,5,2,600.30000007153,0.8888888888888888,1,object_06,5,2896,0,8,3,library_4,1,memory-2step-stake-s,687,2807336,0.0-19.0-0.1-0.181,A1M1E62KXCDNL0,3DW3BNF1HKYVNTMBZS7SV7ATLD58VQ,37WLF8U1WT6XPN75XB1PY4Z8TW6K6P,6,5
182,2,object_07,object_09,914.89999997616,3,1,543.29999995232,0.5555555555555556,1,object_06,5,2921,0,5,6,forest_8,1,memory-2step-stake-s,688,2815633,0.0-19.0-0.1-0.182,A1M1E62KXCDNL0,3DW3BNF1HKYVNTMBZS7SV7ATLD58VQ,37WLF8U1WT6XPN75XB1PY4Z8TW6K6P,3,4
183,2,object_09,object_07,848.79999995232,3,2,551.60000002384,0.4444444444444444,1,object_06,1,2925,0,4,6,forest_7,1,memory-2step-stake-s,689,2823812,0.0-19.0-0.1-0.183,A1M1E62KXCDNL0,3DW3BNF1HKYVNTMBZS7SV7ATLD58VQ,37WLF8U1WT6XPN75XB1PY4Z8TW6K6P,4,3
184,4,object_02,object_01,1073.6000000238,7,2,444.5,0.2222222222222222,1,object_06,5,2935,0,2,0,restaurant_7,1,memory-2step-stake-s,690,2831685,0.0-19.0-0.1-0.184,A1M1E62KXCDNL0,3DW3BNF1HKYVNTMBZS7SV7ATLD58VQ,37WLF8U1WT6XPN75XB1PY4Z8TW6K6P,8,7
185,1,object_04,object_05,899.20000004768,2,1,394.59999990463,0.0,2,object_08,1,2935,0,4,0,desert_1,1,memory-2step-stake-s,691,2839306,0.0-19.0-0.1-0.185,A1M1E62KXCDNL0,3DW3BNF1HKYVNTMBZS7SV7ATLD58VQ,37WLF8U1WT6XPN75XB1PY4Z8TW6K6P,2,1
186,1,object_04,object_05,1167.3000000715,1,2,733.39999997616,0.5555555555555556,1,object_06,1,2940,0,5,0,desert_1,1,memory-2step-stake-s,692,2847791,0.0-19.0-0.1-0.186,A1M1E62KXCDNL0,3DW3BNF1HKYVNTMBZS7SV7ATLD58VQ,37WLF8U1WT6XPN75XB1PY4Z8TW6K6P,2,1
187,2,object_09,object_07,1269.2000000477,4,1,471.89999997616,0.1111111111111111,2,object_08,1,2941,0,5,1,forest_7,1,memory-2step-stake-s,693,2855590,0.0-19.0-0.1-0.187,A1M1E62KXCDNL0,3DW3BNF1HKYVNTMBZS7SV7ATLD58VQ,37WLF8U1WT6XPN75XB1PY4Z8TW6K6P,4,3
188,2,object_09,object_07,1160.6000000238,3,2,374.30000007153,0.7777777777777778,1,object_06,1,2948,0,7,1,forest_8,1,memory-2step-stake-s,694,2863903,0.0-19.0-0.1-0.188,A1M1E62KXCDNL0,3DW3BNF1HKYVNTMBZS7SV7ATLD58VQ,37WLF8U1WT6XPN75XB1PY4Z8TW6K6P,4,3
189,1,object_05,object_04,830.0,1,1,337.10000002384,1.0,1,object_06,1,2957,0,9,1,desert_4,1,memory-2step-stake-s,695,2872409,0.0-19.0-0.1-0.189,A1M1E62KXCDNL0,3DW3BNF1HKYVNTMBZS7SV7ATLD58VQ,37WLF8U1WT6XPN75XB1PY4Z8TW6K6P,1,2
190,2,object_07,object_09,682.19999992847,3,1,979.10000002384,0.7777777777777778,1,object_06,1,2964,0,7,0,forest_3,1,memory-2step-stake-s,696,2881321,0.0-19.0-0.1-0.190,A1M1E62KXCDNL0,3DW3BNF1HKYVNTMBZS7SV7ATLD58VQ,37WLF8U1WT6XPN75XB1PY4Z8TW6K6P,3,4
191,4,object_01,object_02,1000.0,7,1,377.39999997616,0.4444444444444444,1,object_06,5,2984,0,4,3,restaurant_4,1,memory-2step-stake-s,697,2889343,0.0-19.0-0.1-0.191,A1M1E62KXCDNL0,3DW3BNF1HKYVNTMBZS7SV7ATLD58VQ,37WLF8U1WT6XPN75XB1PY4Z8TW6K6P,7,8
192,3,object_03,object_10,817.69999992847,5,2,358.60000002384,0.4444444444444444,1,object_06,5,3004,0,4,2,library_4,1,memory-2step-stake-s,698,2897333,0.0-19.0-0.1-0.192,A1M1E62KXCDNL0,3DW3BNF1HKYVNTMBZS7SV7ATLD58VQ,37WLF8U1WT6XPN75XB1PY4Z8TW6K6P,6,5
193,1,object_05,object_04,885.5,1,1,358.69999992847,0.4444444444444444,1,object_06,1,3008,0,4,1,desert_4,1,memory-2step-stake-s,699,2905342,0.0-19.0-0.1-0.193,A1M1E62KXCDNL0,3DW3BNF1HKYVNTMBZS7SV7ATLD58VQ,37WLF8U1WT6XPN75XB1PY4Z8TW6K6P,1,2
194,4,object_02,object_01,1176.5,7,2,461.5,0.5555555555555556,1,object_06,5,3033,0,5,1,restaurant_4,1,memory-2step-stake-s,700,2913542,0.0-19.0-0.1-0.194,A1M1E62KXCDNL0,3DW3BNF1HKYVNTMBZS7SV7ATLD58VQ,37WLF8U1WT6XPN75XB1PY4Z8TW6K6P,8,7
195,1,object_04,object_05,694.40000009537,2,1,494.5,0.2222222222222222,2,object_08,1,3035,0,7,2,desert_1,1,memory-2step-stake-s,701,2921481,0.0-19.0-0.1-0.195,A1M1E62KXCDNL0,3DW3BNF1HKYVNTMBZS7SV7ATLD58VQ,37WLF8U1WT6XPN75XB1PY4Z8TW6K6P,2,1
196,4,object_01,object_02,797.10000002384,7,1,476.19999992847,0.5555555555555556,1,object_06,5,3060,0,5,2,restaurant_4,1,memory-2step-stake-s,702,2929713,0.0-19.0-0.1-0.196,A1M1E62KXCDNL0,3DW3BNF1HKYVNTMBZS7SV7ATLD58VQ,37WLF8U1WT6XPN75XB1PY4Z8TW6K6P,7,8
197,3,object_10,object_03,1049.2000000477,5,1,585.5,0.7777777777777778,1,object_06,5,3095,0,7,1,library_4,1,memory-2step-stake-s,703,2938236,0.0-19.0-0.1-0.197,A1M1E62KXCDNL0,3DW3BNF1HKYVNTMBZS7SV7ATLD58VQ,37WLF8U1WT6XPN75XB1PY4Z8TW6K6P,5,6
198,3,object_03,object_10,1156.0,6,1,190.39999997616,0.2222222222222222,2,object_08,5,3105,0,7,2,library_2,1,memory-2step-stake-s,704,2945856,0.0-19.0-0.1-0.198,A1M1E62KXCDNL0,3DW3BNF1HKYVNTMBZS7SV7ATLD58VQ,37WLF8U1WT6XPN75XB1PY4Z8TW6K6P,6,5
199,2,object_09,object_07,1213.2000000477,3,2,-1.0,0.0,1,object_06,1,3105,0,6,4,forest_8,1,memory-2step-stake-s,705,2954387,0.0-19.0-0.1-0.199,A1M1E62KXCDNL0,3DW3BNF1HKYVNTMBZS7SV7ATLD58VQ,37WLF8U1WT6XPN75XB1PY4Z8TW6K6P,4,3
200,3,object_10,object_03,1012.5999999046,5,1,345.19999992847,0.5555555555555556,1,object_06,5,3130,0,5,5,library_7,1,memory-2step-stake-s,706,2962474,0.0-19.0-0.1-0.200,A1M1E62KXCDNL0,3DW3BNF1HKYVNTMBZS7SV7ATLD58VQ,37WLF8U1WT6XPN75XB1PY4Z8TW6K6P,5,6
201,4,object_02,object_01,860.29999995232,7,2,600.89999997616,0.5555555555555556,1,object_06,5,3155,0,5,6,restaurant_7,1,memory-2step-stake-s,707,2970826,0.0-19.0-0.1-0.201,A1M1E62KXCDNL0,3DW3BNF1HKYVNTMBZS7SV7ATLD58VQ,37WLF8U1WT6XPN75XB1PY4Z8TW6K6P,8,7
202,2,object_07,object_09,652.39999997616,3,1,371.0,0.8888888888888888,1,object_06,1,3163,0,8,9,forest_4,1,memory-2step-stake-s,708,2979243,0.0-19.0-0.1-0.202,A1M1E62KXCDNL0,3DW3BNF1HKYVNTMBZS7SV7ATLD58VQ,37WLF8U1WT6XPN75XB1PY4Z8TW6K6P,3,4
203,3,object_10,object_03,739.60000002384,5,1,540.20000004768,0.8888888888888888,1,object_06,5,3203,0,8,8,library_5,1,memory-2step-stake-s,709,2987828,0.0-19.0-0.1-0.203,A1M1E62KXCDNL0,3DW3BNF1HKYVNTMBZS7SV7ATLD58VQ,37WLF8U1WT6XPN75XB1PY4Z8TW6K6P,5,6
204,4,object_02,object_01,1016.2000000477,8,1,372.39999997616,0.8888888888888888,2,object_08,1,3211,0,8,8,restaurant_4,1,memory-2step-stake-s,710,2996254,0.0-19.0-0.1-0.204,A1M1E62KXCDNL0,3DW3BNF1HKYVNTMBZS7SV7ATLD58VQ,37WLF8U1WT6XPN75XB1PY4Z8TW6K6P,8,7
205,3,object_10,object_03,680.79999995232,6,2,344.60000002384,1.0,2,object_08,5,3256,0,8,9,library_7,1,memory-2step-stake-s,711,3004743,0.0-19.0-0.1-0.205,A1M1E62KXCDNL0,3DW3BNF1HKYVNTMBZS7SV7ATLD58VQ,37WLF8U1WT6XPN75XB1PY4Z8TW6K6P,5,6
206,1,object_05,object_04,836.20000004768,2,2,464.20000004768,0.4444444444444444,2,object_08,1,3260,0,5,4,desert_3,1,memory-2step-stake-s,712,3012854,0.0-19.0-0.1-0.206,A1M1E62KXCDNL0,3DW3BNF1HKYVNTMBZS7SV7ATLD58VQ,37WLF8U1WT6XPN75XB1PY4Z8TW6K6P,1,2
207,3,object_10,object_03,844.20000004768,6,2,191.79999995232,0.4444444444444444,2,object_08,5,3280,0,7,4,library_5,1,memory-2step-stake-s,713,3020674,0.0-19.0-0.1-0.207,A1M1E62KXCDNL0,3DW3BNF1HKYVNTMBZS7SV7ATLD58VQ,37WLF8U1WT6XPN75XB1PY4Z8TW6K6P,5,6
208,3,object_03,object_10,675.5,6,1,82.799999952316,0.4444444444444444,2,object_08,5,3300,0,8,4,library_7,1,memory-2step-stake-s,714,3028387,0.0-19.0-0.1-0.208,A1M1E62KXCDNL0,3DW3BNF1HKYVNTMBZS7SV7ATLD58VQ,37WLF8U1WT6XPN75XB1PY4Z8TW6K6P,6,5
209,1,object_04,object_05,915.20000004768,1,2,383.90000009537,0.7777777777777778,1,object_06,5,3335,0,7,2,desert_3,1,memory-2step-stake-s,715,3036708,0.0-19.0-0.1-0.209,A1M1E62KXCDNL0,3DW3BNF1HKYVNTMBZS7SV7ATLD58VQ,37WLF8U1WT6XPN75XB1PY4Z8TW6K6P,2,1
210,2,object_09,object_07,918.20000004768,3,2,411.20000004768,0.6666666666666666,1,object_06,5,3365,0,6,0,forest_8,1,memory-2step-stake-s,716,3044974,0.0-19.0-0.1-0.210,A1M1E62KXCDNL0,3DW3BNF1HKYVNTMBZS7SV7ATLD58VQ,37WLF8U1WT6XPN75XB1PY4Z8TW6K6P,4,3
211,1,object_05,object_04,783.5,1,1,414.10000002384,0.4444444444444444,1,object_06,1,3369,0,4,3,desert_4,1,memory-2step-stake-s,717,3053025,0.0-19.0-0.1-0.211,A1M1E62KXCDNL0,3DW3BNF1HKYVNTMBZS7SV7ATLD58VQ,37WLF8U1WT6XPN75XB1PY4Z8TW6K6P,1,2
212,4,object_01,object_02,798.0,8,2,417.5,0.4444444444444444,2,object_08,5,3389,0,2,4,restaurant_7,1,memory-2step-stake-s,718,3061087,0.0-19.0-0.1-0.212,A1M1E62KXCDNL0,3DW3BNF1HKYVNTMBZS7SV7ATLD58VQ,37WLF8U1WT6XPN75XB1PY4Z8TW6K6P,7,8
213,2,object_09,object_07,896.60000002384,3,2,359.79999995232,0.1111111111111111,1,object_06,1,3390,0,1,2,forest_7,1,memory-2step-stake-s,719,3068776,0.0-19.0-0.1-0.213,A1M1E62KXCDNL0,3DW3BNF1HKYVNTMBZS7SV7ATLD58VQ,37WLF8U1WT6XPN75XB1PY4Z8TW6K6P,4,3
214,3,object_03,object_10,821.10000002384,6,1,403.60000002384,0.1111111111111111,2,object_08,1,3391,0,1,1,library_7,1,memory-2step-stake-s,720,3076505,0.0-19.0-0.1-0.214,A1M1E62KXCDNL0,3DW3BNF1HKYVNTMBZS7SV7ATLD58VQ,37WLF8U1WT6XPN75XB1PY4Z8TW6K6P,6,5
215,1,object_05,object_04,746.70000004768,1,1,366.80000007153,0.1111111111111111,1,object_06,1,3392,0,1,4,desert_6,1,memory-2step-stake-s,721,3084199,0.0-19.0-0.1-0.215,A1M1E62KXCDNL0,3DW3BNF1HKYVNTMBZS7SV7ATLD58VQ,37WLF8U1WT6XPN75XB1PY4Z8TW6K6P,1,2
216,1,object_05,object_04,943.79999995232,2,2,358.20000004768,0.3333333333333333,2,object_08,1,3395,0,1,3,desert_1,1,memory-2step-stake-s,722,3092089,0.0-19.0-0.1-0.216,A1M1E62KXCDNL0,3DW3BNF1HKYVNTMBZS7SV7ATLD58VQ,37WLF8U1WT6XPN75XB1PY4Z8TW6K6P,1,2
217,1,object_04,object_05,912.39999997616,2,1,86.699999928474,0.3333333333333333,2,object_08,1,3398,0,3,3,desert_3,1,memory-2step-stake-s,723,3099705,0.0-19.0-0.1-0.217,A1M1E62KXCDNL0,3DW3BNF1HKYVNTMBZS7SV7ATLD58VQ,37WLF8U1WT6XPN75XB1PY4Z8TW6K6P,2,1
218,2,object_09,object_07,1014.6999999285,4,1,385.39999997616,0.4444444444444444,2,object_08,5,3418,0,2,4,forest_8,1,memory-2step-stake-s,724,3107737,0.0-19.0-0.1-0.218,A1M1E62KXCDNL0,3DW3BNF1HKYVNTMBZS7SV7ATLD58VQ,37WLF8U1WT6XPN75XB1PY4Z8TW6K6P,4,3
219,4,object_01,object_02,854.70000004768,7,1,342.29999995232,0.4444444444444444,1,object_06,5,3438,0,4,1,restaurant_7,1,memory-2step-stake-s,725,3115729,0.0-19.0-0.1-0.219,A1M1E62KXCDNL0,3DW3BNF1HKYVNTMBZS7SV7ATLD58VQ,37WLF8U1WT6XPN75XB1PY4Z8TW6K6P,7,8
220,2,object_07,object_09,612.5,3,1,419.0,0.1111111111111111,1,object_06,1,3439,0,1,1,forest_4,1,memory-2step-stake-s,726,3123469,0.0-19.0-0.1-0.220,A1M1E62KXCDNL0,3DW3BNF1HKYVNTMBZS7SV7ATLD58VQ,37WLF8U1WT6XPN75XB1PY4Z8TW6K6P,3,4
221,3,object_10,object_03,1172.5,6,2,401.0,0.1111111111111111,2,object_08,5,3444,0,2,1,library_5,1,memory-2step-stake-s,727,3131199,0.0-19.0-0.1-0.221,A1M1E62KXCDNL0,3DW3BNF1HKYVNTMBZS7SV7ATLD58VQ,37WLF8U1WT6XPN75XB1PY4Z8TW6K6P,5,6
222,1,object_05,object_04,986.29999995232,1,1,392.69999992847,0.0,1,object_06,1,3444,0,0,1,desert_6,1,memory-2step-stake-s,728,3138812,0.0-19.0-0.1-0.222,A1M1E62KXCDNL0,3DW3BNF1HKYVNTMBZS7SV7ATLD58VQ,37WLF8U1WT6XPN75XB1PY4Z8TW6K6P,1,2
223,1,object_04,object_05,994.10000002384,1,2,339.80000007153,0.3333333333333333,1,object_06,1,3447,0,3,1,desert_4,1,memory-2step-stake-s,729,3146691,0.0-19.0-0.1-0.223,A1M1E62KXCDNL0,3DW3BNF1HKYVNTMBZS7SV7ATLD58VQ,37WLF8U1WT6XPN75XB1PY4Z8TW6K6P,2,1
224,3,object_03,object_10,682.80000007153,6,1,106.59999990463,0.3333333333333333,2,object_08,5,3462,0,3,3,library_2,1,memory-2step-stake-s,730,3154324,0.0-19.0-0.1-0.224,A1M1E62KXCDNL0,3DW3BNF1HKYVNTMBZS7SV7ATLD58VQ,37WLF8U1WT6XPN75XB1PY4Z8TW6K6P,6,5
225,1,object_04,object_05,1054.8999999762,1,2,301.29999995232,0.0,1,object_06,1,3462,0,0,6,desert_3,1,memory-2step-stake-s,731,3161856,0.0-19.0-0.1-0.225,A1M1E62KXCDNL0,3DW3BNF1HKYVNTMBZS7SV7ATLD58VQ,37WLF8U1WT6XPN75XB1PY4Z8TW6K6P,2,1
226,1,object_04,object_05,1058.7000000477,2,1,372.09999990463,0.7777777777777778,2,object_08,1,3469,0,3,7,desert_3,1,memory-2step-stake-s,732,3170170,0.0-19.0-0.1-0.226,A1M1E62KXCDNL0,3DW3BNF1HKYVNTMBZS7SV7ATLD58VQ,37WLF8U1WT6XPN75XB1PY4Z8TW6K6P,2,1
227,4,object_02,object_01,926.09999990463,8,1,346.70000004768,0.8888888888888888,2,object_08,5,3509,0,7,8,restaurant_1,1,memory-2step-stake-s,733,3178562,0.0-19.0-0.1-0.227,A1M1E62KXCDNL0,3DW3BNF1HKYVNTMBZS7SV7ATLD58VQ,37WLF8U1WT6XPN75XB1PY4Z8TW6K6P,8,7
228,2,object_07,object_09,1054.1999999285,4,2,466.79999995232,0.8888888888888888,2,object_08,1,3517,0,7,8,forest_7,1,memory-2step-stake-s,734,3187095,0.0-19.0-0.1-0.228,A1M1E62KXCDNL0,3DW3BNF1HKYVNTMBZS7SV7ATLD58VQ,37WLF8U1WT6XPN75XB1PY4Z8TW6K6P,3,4
229,4,object_01,object_02,862.79999995232,8,2,487.39999997616,0.8888888888888888,2,object_08,5,3557,0,5,8,restaurant_1,1,memory-2step-stake-s,735,3195634,0.0-19.0-0.1-0.229,A1M1E62KXCDNL0,3DW3BNF1HKYVNTMBZS7SV7ATLD58VQ,37WLF8U1WT6XPN75XB1PY4Z8TW6K6P,7,8
230,3,object_03,object_10,643.89999997616,6,1,502.89999997616,0.7777777777777778,2,object_08,5,3592,0,4,7,library_2,1,memory-2step-stake-s,736,3204087,0.0-19.0-0.1-0.230,A1M1E62KXCDNL0,3DW3BNF1HKYVNTMBZS7SV7ATLD58VQ,37WLF8U1WT6XPN75XB1PY4Z8TW6K6P,6,5
231,1,object_05,object_04,1068.8999999762,2,2,406.39999997616,0.4444444444444444,2,object_08,1,3596,0,3,4,desert_4,1,memory-2step-stake-s,737,3212127,0.0-19.0-0.1-0.231,A1M1E62KXCDNL0,3DW3BNF1HKYVNTMBZS7SV7ATLD58VQ,37WLF8U1WT6XPN75XB1PY4Z8TW6K6P,1,2
232,3,object_10,object_03,907.89999997616,6,2,213.5,0.1111111111111111,2,object_08,1,3597,0,4,1,library_5,1,memory-2step-stake-s,738,3219675,0.0-19.0-0.1-0.232,A1M1E62KXCDNL0,3DW3BNF1HKYVNTMBZS7SV7ATLD58VQ,37WLF8U1WT6XPN75XB1PY4Z8TW6K6P,5,6
233,4,object_02,object_01,863.70000004768,7,2,369.30000007153,0.3333333333333333,1,object_06,5,3612,0,3,5,restaurant_4,1,memory-2step-stake-s,739,3227569,0.0-19.0-0.1-0.233,A1M1E62KXCDNL0,3DW3BNF1HKYVNTMBZS7SV7ATLD58VQ,37WLF8U1WT6XPN75XB1PY4Z8TW6K6P,8,7
234,4,object_02,object_01,663.29999995232,7,2,374.70000004768,0.8888888888888888,1,object_06,5,3652,0,8,5,restaurant_8,1,memory-2step-stake-s,740,3235985,0.0-19.0-0.1-0.234,A1M1E62KXCDNL0,3DW3BNF1HKYVNTMBZS7SV7ATLD58VQ,37WLF8U1WT6XPN75XB1PY4Z8TW6K6P,8,7
235,1,object_04,object_05,847.30000007153,1,2,341.5,0.8888888888888888,1,object_06,5,3692,0,8,7,desert_4,1,memory-2step-stake-s,741,3244381,0.0-19.0-0.1-0.235,A1M1E62KXCDNL0,3DW3BNF1HKYVNTMBZS7SV7ATLD58VQ,37WLF8U1WT6XPN75XB1PY4Z8TW6K6P,2,1
236,3,object_03,object_10,957.80000007153,5,2,467.30000007153,0.7777777777777778,1,object_06,5,3727,0,7,6,library_2,1,memory-2step-stake-s,742,3252785,0.0-19.0-0.1-0.236,A1M1E62KXCDNL0,3DW3BNF1HKYVNTMBZS7SV7ATLD58VQ,37WLF8U1WT6XPN75XB1PY4Z8TW6K6P,6,5
237,2,object_07,object_09,1407.2999999523,3,1,405.10000002384,0.4444444444444444,1,object_06,1,3731,0,4,2,forest_8,1,memory-2step-stake-s,743,3260838,0.0-19.0-0.1-0.237,A1M1E62KXCDNL0,3DW3BNF1HKYVNTMBZS7SV7ATLD58VQ,37WLF8U1WT6XPN75XB1PY4Z8TW6K6P,3,4
238,4,object_01,object_02,882.20000004768,7,1,384.0,0.7777777777777778,1,object_06,5,3766,0,7,1,restaurant_8,1,memory-2step-stake-s,744,3269163,0.0-19.0-0.1-0.238,A1M1E62KXCDNL0,3DW3BNF1HKYVNTMBZS7SV7ATLD58VQ,37WLF8U1WT6XPN75XB1PY4Z8TW6K6P,7,8
239,4,object_02,object_01,771.5,7,2,427.19999992847,0.7777777777777778,1,object_06,5,3801,0,7,3,restaurant_1,1,memory-2step-stake-s,745,3277552,0.0-19.0-0.1-0.239,A1M1E62KXCDNL0,3DW3BNF1HKYVNTMBZS7SV7ATLD58VQ,37WLF8U1WT6XPN75XB1PY4Z8TW6K6P,8,7
240,4,object_01,object_02,672.0,7,1,639.39999997616,0.6666666666666666,1,object_06,5,3831,0,6,6,restaurant_1,1,memory-2step-stake-s,746,3286030,0.0-19.0-0.1-0.240,A1M1E62KXCDNL0,3DW3BNF1HKYVNTMBZS7SV7ATLD58VQ,37WLF8U1WT6XPN75XB1PY4Z8TW6K6P,7,8
241,2,object_09,object_07,855.40000009537,3,2,600.70000004768,0.4444444444444444,1,object_06,1,3835,0,4,6,forest_7,1,memory-2step-stake-s,747,3294283,0.0-19.0-0.1-0.241,A1M1E62KXCDNL0,3DW3BNF1HKYVNTMBZS7SV7ATLD58VQ,37WLF8U1WT6XPN75XB1PY4Z8TW6K6P,4,3
242,2,object_09,object_07,856.70000004768,3,2,504.20000004768,0.6666666666666666,1,object_06,1,3841,0,6,9,forest_8,1,memory-2step-stake-s,748,3302630,0.0-19.0-0.1-0.242,A1M1E62KXCDNL0,3DW3BNF1HKYVNTMBZS7SV7ATLD58VQ,37WLF8U1WT6XPN75XB1PY4Z8TW6K6P,4,3
243,3,object_03,object_10,1041.6000000238,5,2,806.29999995232,0.6666666666666666,1,object_06,1,3847,0,6,8,library_5,1,memory-2step-stake-s,749,3311278,0.0-19.0-0.1-0.243,A1M1E62KXCDNL0,3DW3BNF1HKYVNTMBZS7SV7ATLD58VQ,37WLF8U1WT6XPN75XB1PY4Z8TW6K6P,6,5
244,1,object_05,object_04,1045.1000000238,1,1,503.0,0.6666666666666666,1,object_06,1,3853,0,6,6,desert_1,1,memory-2step-stake-s,750,3319624,0.0-19.0-0.1-0.244,A1M1E62KXCDNL0,3DW3BNF1HKYVNTMBZS7SV7ATLD58VQ,37WLF8U1WT6XPN75XB1PY4Z8TW6K6P,1,2
245,4,object_02,object_01,1296.1000000238,7,2,376.39999997616,0.5555555555555556,1,object_06,5,3878,0,5,8,restaurant_1,1,memory-2step-stake-s,751,3327754,0.0-19.0-0.1-0.245,A1M1E62KXCDNL0,3DW3BNF1HKYVNTMBZS7SV7ATLD58VQ,37WLF8U1WT6XPN75XB1PY4Z8TW6K6P,8,7
246,1,object_04,object_05,869.69999992847,1,2,484.20000004768,0.6666666666666666,1,object_06,1,3884,0,6,7,desert_6,1,memory-2step-stake-s,752,3336077,0.0-19.0-0.1-0.246,A1M1E62KXCDNL0,3DW3BNF1HKYVNTMBZS7SV7ATLD58VQ,37WLF8U1WT6XPN75XB1PY4Z8TW6K6P,2,1
247,3,object_10,object_03,1063.1000000238,5,1,311.20000004768,0.7777777777777778,1,object_06,1,3891,0,7,2,library_7,1,memory-2step-stake-s,753,3344329,0.0-19.0-0.1-0.247,A1M1E62KXCDNL0,3DW3BNF1HKYVNTMBZS7SV7ATLD58VQ,37WLF8U1WT6XPN75XB1PY4Z8TW6K6P,5,6
248,3,object_03,object_10,1175.0,5,2,574.0,0.7777777777777778,1,object_06,5,3926,0,7,5,library_5,1,memory-2step-stake-s,754,3352845,0.0-19.0-0.1-0.248,A1M1E62KXCDNL0,3DW3BNF1HKYVNTMBZS7SV7ATLD58VQ,37WLF8U1WT6XPN75XB1PY4Z8TW6K6P,6,5
249,3,object_10,object_03,718.29999995232,5,1,821.39999997616,1.0,1,object_06,5,3971,0,9,6,library_4,1,memory-2step-stake-s,755,3361831,0.0-19.0-0.1-0.249,A1M1E62KXCDNL0,3DW3BNF1HKYVNTMBZS7SV7ATLD58VQ,37WLF8U1WT6XPN75XB1PY4Z8TW6K6P,5,6
250,4,object_01,object_02,1174.2000000477,8,2,417.70000004768,0.7777777777777778,2,object_08,1,3978,0,9,7,restaurant_8,1,memory-2step-stake-s,756,3370201,0.0-19.0-0.1-0.250,A1M1E62KXCDNL0,3DW3BNF1HKYVNTMBZS7SV7ATLD58VQ,37WLF8U1WT6XPN75XB1PY4Z8TW6K6P,7,8
251,2,object_09,object_07,799.70000004768,4,1,397.10000002384,0.7777777777777778,2,object_08,1,3985,0,7,7,forest_4,1,memory-2step-stake-s,757,3378540,0.0-19.0-0.1-0.251,A1M1E62KXCDNL0,3DW3BNF1HKYVNTMBZS7SV7ATLD58VQ,37WLF8U1WT6XPN75XB1PY4Z8TW6K6P,4,3
252,1,object_04,object_05,896.60000002384,2,1,357.20000004768,0.7777777777777778,2,object_08,1,3992,0,8,7,desert_1,1,memory-2step-stake-s,758,3386843,0.0-19.0-0.1-0.252,A1M1E62KXCDNL0,3DW3BNF1HKYVNTMBZS7SV7ATLD58VQ,37WLF8U1WT6XPN75XB1PY4Z8TW6K6P,2,1
253,1,object_05,object_04,928.70000004768,2,2,415.80000007153,0.5555555555555556,2,object_08,1,3997,0,5,5,desert_1,1,memory-2step-stake-s,759,3395000,0.0-19.0-0.1-0.253,A1M1E62KXCDNL0,3DW3BNF1HKYVNTMBZS7SV7ATLD58VQ,37WLF8U1WT6XPN75XB1PY4Z8TW6K6P,1,2
254,2,object_07,object_09,1017.0,4,2,-1.0,0.0,2,object_08,1,3997,0,4,7,forest_7,1,memory-2step-stake-s,760,3403543,0.0-19.0-0.1-0.254,A1M1E62KXCDNL0,3DW3BNF1HKYVNTMBZS7SV7ATLD58VQ,37WLF8U1WT6XPN75XB1PY4Z8TW6K6P,3,4
255,1,object_05,object_04,810.39999997616,2,2,429.10000002384,0.4444444444444444,2,object_08,1,4001,0,2,4,desert_3,1,memory-2step-stake-s,761,3411608,0.0-19.0-0.1-0.255,A1M1E62KXCDNL0,3DW3BNF1HKYVNTMBZS7SV7ATLD58VQ,37WLF8U1WT6XPN75XB1PY4Z8TW6K6P,1,2
