,state1,stim_left,stim_right,rt_1,choice1,response1,rt_2,points,state2,stim_state2,stake,score,practice,rews1,rews2,background,high_arm,trial_type,trial_index,time_elapsed,internal_node_id,subid,hitid,assignmentid,stim_left_num,stim_right_num
0,4,object_07,object_02,616.60000002384,7,1,1004.8000000715,0.0,1,object_03,5,0,0,0,1,restaurant_4,1,memory-2step-stake-s,495,716821,0.0-19.0-0.0-0.0,A36GU3OHGLDS8R,3SA4EMRVKYI00KKCICLEW0FTGRS0PA,3TVSS0C0E5GUMLCYI2SLXPLH0BPWT7,7,8
1,1,object_08,object_04,480.0,2,2,444.70000004768,0.1111111111111111,2,object_09,1,1,0,1,1,desert_5,1,memory-2step-stake-s,496,724654,0.0-19.0-0.0-0.1,A36GU3OHGLDS8R,3SA4EMRVKYI00KKCICLEW0FTGRS0PA,3TVSS0C0E5GUMLCYI2SLXPLH0BPWT7,1,2
2,1,object_04,object_08,657.20000004768,1,2,303.59999990463,0.5555555555555556,1,object_03,5,26,0,5,3,desert_5,1,memory-2step-stake-s,497,732759,0.0-19.0-0.0-0.2,A36GU3OHGLDS8R,3SA4EMRVKYI00KKCICLEW0FTGRS0PA,3TVSS0C0E5GUMLCYI2SLXPLH0BPWT7,2,1
3,3,object_10,object_01,312.10000002384,6,1,312.30000007153,1.0,2,object_09,1,35,0,4,9,library_1,1,memory-2step-stake-s,498,741305,0.0-19.0-0.0-0.3,A36GU3OHGLDS8R,3SA4EMRVKYI00KKCICLEW0FTGRS0PA,3TVSS0C0E5GUMLCYI2SLXPLH0BPWT7,6,5
4,2,object_05,object_06,478.29999995232,4,2,312.5,0.5555555555555556,2,object_09,1,40,0,3,5,forest_8,1,memory-2step-stake-s,499,749406,0.0-19.0-0.0-0.4,A36GU3OHGLDS8R,3SA4EMRVKYI00KKCICLEW0FTGRS0PA,3TVSS0C0E5GUMLCYI2SLXPLH0BPWT7,3,4
5,4,object_02,object_07,411.0,8,1,353.89999997616,0.7777777777777778,2,object_09,5,75,0,6,7,restaurant_6,1,memory-2step-stake-s,500,757756,0.0-19.0-0.0-0.5,A36GU3OHGLDS8R,3SA4EMRVKYI00KKCICLEW0FTGRS0PA,3TVSS0C0E5GUMLCYI2SLXPLH0BPWT7,8,7
6,3,object_10,object_01,283.10000002384,5,2,336.0,0.5555555555555556,1,object_03,5,100,0,5,4,library_8,1,memory-2step-stake-s,501,765858,0.0-19.0-0.0-0.6,A36GU3OHGLDS8R,3SA4EMRVKYI00KKCICLEW0FTGRS0PA,3TVSS0C0E5GUMLCYI2SLXPLH0BPWT7,6,5
7,4,object_07,object_02,294.39999997616,7,1,307.20000004768,0.5555555555555556,1,object_03,5,125,0,5,6,restaurant_5,1,memory-2step-stake-s,502,773978,0.0-19.0-0.0-0.7,A36GU3OHGLDS8R,3SA4EMRVKYI00KKCICLEW0FTGRS0PA,3TVSS0C0E5GUMLCYI2SLXPLH0BPWT7,7,8
8,1,object_08,object_04,256.0,2,2,240.10000002384,0.7777777777777778,2,object_09,1,132,0,6,7,desert_1,1,memory-2step-stake-s,503,782242,0.0-19.0-0.0-0.8,A36GU3OHGLDS8R,3SA4EMRVKYI00KKCICLEW0FTGRS0PA,3TVSS0C0E5GUMLCYI2SLXPLH0BPWT7,1,2
9,2,object_06,object_05,325.39999997616,4,1,273.19999992847,0.6666666666666666,2,object_09,1,138,0,9,6,forest_8,1,memory-2step-stake-s,504,790422,0.0-19.0-0.0-0.9,A36GU3OHGLDS8R,3SA4EMRVKYI00KKCICLEW0FTGRS0PA,3TVSS0C0E5GUMLCYI2SLXPLH0BPWT7,4,3
10,1,object_08,object_04,263.5,2,2,227.69999992847,0.5555555555555556,2,object_09,1,143,0,7,5,desert_3,1,memory-2step-stake-s,505,798467,0.0-19.0-0.0-0.10,A36GU3OHGLDS8R,3SA4EMRVKYI00KKCICLEW0FTGRS0PA,3TVSS0C0E5GUMLCYI2SLXPLH0BPWT7,1,2
11,4,object_07,object_02,293.20000004768,7,1,223.20000004768,0.4444444444444444,1,object_03,5,163,0,4,6,restaurant_8,1,memory-2step-stake-s,506,806376,0.0-19.0-0.0-0.11,A36GU3OHGLDS8R,3SA4EMRVKYI00KKCICLEW0FTGRS0PA,3TVSS0C0E5GUMLCYI2SLXPLH0BPWT7,7,8
12,3,object_01,object_10,342.5,6,2,309.79999995232,0.6666666666666666,2,object_09,5,193,0,6,6,library_3,1,memory-2step-stake-s,507,814610,0.0-19.0-0.0-0.12,A36GU3OHGLDS8R,3SA4EMRVKYI00KKCICLEW0FTGRS0PA,3TVSS0C0E5GUMLCYI2SLXPLH0BPWT7,5,6
13,2,object_05,object_06,413.80000007153,3,1,303.09999990463,0.7777777777777778,1,object_03,5,228,0,7,5,forest_8,1,memory-2step-stake-s,508,822942,0.0-19.0-0.0-0.13,A36GU3OHGLDS8R,3SA4EMRVKYI00KKCICLEW0FTGRS0PA,3TVSS0C0E5GUMLCYI2SLXPLH0BPWT7,3,4
14,3,object_10,object_01,296.80000007153,5,2,276.89999997616,0.7777777777777778,1,object_03,5,263,0,7,2,library_3,1,memory-2step-stake-s,509,831267,0.0-19.0-0.0-0.14,A36GU3OHGLDS8R,3SA4EMRVKYI00KKCICLEW0FTGRS0PA,3TVSS0C0E5GUMLCYI2SLXPLH0BPWT7,6,5
15,3,object_10,object_01,335.29999995232,6,1,231.70000004768,0.1111111111111111,2,object_09,5,268,0,8,1,library_2,1,memory-2step-stake-s,510,838863,0.0-19.0-0.0-0.15,A36GU3OHGLDS8R,3SA4EMRVKYI00KKCICLEW0FTGRS0PA,3TVSS0C0E5GUMLCYI2SLXPLH0BPWT7,6,5
16,2,object_06,object_05,438.79999995232,3,2,377.10000002384,0.7777777777777778,1,object_03,1,275,0,7,3,forest_7,1,memory-2step-stake-s,511,847238,0.0-19.0-0.0-0.16,A36GU3OHGLDS8R,3SA4EMRVKYI00KKCICLEW0FTGRS0PA,3TVSS0C0E5GUMLCYI2SLXPLH0BPWT7,4,3
17,3,object_01,object_10,402.79999995232,6,2,319.0,0.4444444444444444,2,object_09,5,295,0,4,4,library_3,1,memory-2step-stake-s,512,855260,0.0-19.0-0.0-0.17,A36GU3OHGLDS8R,3SA4EMRVKYI00KKCICLEW0FTGRS0PA,3TVSS0C0E5GUMLCYI2SLXPLH0BPWT7,5,6
18,2,object_06,object_05,276.70000004768,4,1,216.10000002384,0.0,2,object_09,1,295,0,4,0,forest_4,1,memory-2step-stake-s,513,862746,0.0-19.0-0.0-0.18,A36GU3OHGLDS8R,3SA4EMRVKYI00KKCICLEW0FTGRS0PA,3TVSS0C0E5GUMLCYI2SLXPLH0BPWT7,4,3
19,4,object_02,object_07,471.89999997616,7,2,289.60000002384,0.7777777777777778,1,object_03,5,330,0,7,1,restaurant_8,1,memory-2step-stake-s,514,871055,0.0-19.0-0.0-0.19,A36GU3OHGLDS8R,3SA4EMRVKYI00KKCICLEW0FTGRS0PA,3TVSS0C0E5GUMLCYI2SLXPLH0BPWT7,8,7
20,2,object_05,object_06,253.79999995232,3,1,33.300000071526,1.0,1,object_03,1,339,0,9,1,forest_4,1,memory-2step-stake-s,515,879296,0.0-19.0-0.0-0.20,A36GU3OHGLDS8R,3SA4EMRVKYI00KKCICLEW0FTGRS0PA,3TVSS0C0E5GUMLCYI2SLXPLH0BPWT7,3,4
21,3,object_10,object_01,292.89999997616,6,1,399.80000007153,0.3333333333333333,2,object_09,5,354,0,9,3,library_3,1,memory-2step-stake-s,516,887282,0.0-19.0-0.0-0.21,A36GU3OHGLDS8R,3SA4EMRVKYI00KKCICLEW0FTGRS0PA,3TVSS0C0E5GUMLCYI2SLXPLH0BPWT7,6,5
22,3,object_10,object_01,278.70000004768,5,2,286.10000002384,0.6666666666666666,1,object_03,1,360,0,6,3,library_1,1,memory-2step-stake-s,517,895455,0.0-19.0-0.0-0.22,A36GU3OHGLDS8R,3SA4EMRVKYI00KKCICLEW0FTGRS0PA,3TVSS0C0E5GUMLCYI2SLXPLH0BPWT7,6,5
23,3,object_01,object_10,262.60000002384,5,1,280.20000004768,0.5555555555555556,1,object_03,1,365,0,5,5,library_2,1,memory-2step-stake-s,518,903532,0.0-19.0-0.0-0.23,A36GU3OHGLDS8R,3SA4EMRVKYI00KKCICLEW0FTGRS0PA,3TVSS0C0E5GUMLCYI2SLXPLH0BPWT7,5,6
24,2,object_06,object_05,243.20000004768,3,2,249.29999995232,0.4444444444444444,1,object_03,1,369,0,4,5,forest_7,1,memory-2step-stake-s,519,911477,0.0-19.0-0.0-0.24,A36GU3OHGLDS8R,3SA4EMRVKYI00KKCICLEW0FTGRS0PA,3TVSS0C0E5GUMLCYI2SLXPLH0BPWT7,4,3
25,4,object_07,object_02,292.0,7,1,229.10000002384,0.5555555555555556,1,object_03,5,394,0,5,5,restaurant_8,1,memory-2step-stake-s,520,919536,0.0-19.0-0.0-0.25,A36GU3OHGLDS8R,3SA4EMRVKYI00KKCICLEW0FTGRS0PA,3TVSS0C0E5GUMLCYI2SLXPLH0BPWT7,7,8
26,4,object_02,object_07,296.19999992847,7,2,250.19999992847,0.5555555555555556,1,object_03,5,419,0,5,1,restaurant_6,1,memory-2step-stake-s,521,927587,0.0-19.0-0.0-0.26,A36GU3OHGLDS8R,3SA4EMRVKYI00KKCICLEW0FTGRS0PA,3TVSS0C0E5GUMLCYI2SLXPLH0BPWT7,8,7
27,2,object_05,object_06,290.5,3,1,236.29999995232,0.3333333333333333,1,object_03,1,422,0,3,0,forest_4,1,memory-2step-stake-s,522,935407,0.0-19.0-0.0-0.27,A36GU3OHGLDS8R,3SA4EMRVKYI00KKCICLEW0FTGRS0PA,3TVSS0C0E5GUMLCYI2SLXPLH0BPWT7,3,4
28,3,object_01,object_10,703.79999995232,5,1,518.0,0.4444444444444444,1,object_03,5,442,0,4,1,library_3,1,memory-2step-stake-s,523,943603,0.0-19.0-0.0-0.28,A36GU3OHGLDS8R,3SA4EMRVKYI00KKCICLEW0FTGRS0PA,3TVSS0C0E5GUMLCYI2SLXPLH0BPWT7,5,6
29,1,object_08,object_04,796.19999992847,1,1,346.0,0.4444444444444444,1,object_03,5,462,0,4,2,desert_6,1,memory-2step-stake-s,524,951633,0.0-19.0-0.0-0.29,A36GU3OHGLDS8R,3SA4EMRVKYI00KKCICLEW0FTGRS0PA,3TVSS0C0E5GUMLCYI2SLXPLH0BPWT7,1,2
30,3,object_01,object_10,681.29999995232,6,2,346.80000007153,0.5555555555555556,2,object_09,1,467,0,3,5,library_1,1,memory-2step-stake-s,525,959780,0.0-19.0-0.0-0.30,A36GU3OHGLDS8R,3SA4EMRVKYI00KKCICLEW0FTGRS0PA,3TVSS0C0E5GUMLCYI2SLXPLH0BPWT7,5,6
31,4,object_02,object_07,561.69999992847,8,1,328.59999990463,0.5555555555555556,2,object_09,1,472,0,3,5,restaurant_6,1,memory-2step-stake-s,526,967926,0.0-19.0-0.0-0.31,A36GU3OHGLDS8R,3SA4EMRVKYI00KKCICLEW0FTGRS0PA,3TVSS0C0E5GUMLCYI2SLXPLH0BPWT7,8,7
32,1,object_08,object_04,251.60000002384,1,1,402.0,0.3333333333333333,1,object_03,1,475,0,3,7,desert_5,1,memory-2step-stake-s,527,975910,0.0-19.0-0.0-0.32,A36GU3OHGLDS8R,3SA4EMRVKYI00KKCICLEW0FTGRS0PA,3TVSS0C0E5GUMLCYI2SLXPLH0BPWT7,1,2
33,2,object_05,object_06,314.89999997616,4,2,293.89999997616,0.8888888888888888,2,object_09,1,483,0,5,8,forest_3,1,memory-2step-stake-s,528,984300,0.0-19.0-0.0-0.33,A36GU3OHGLDS8R,3SA4EMRVKYI00KKCICLEW0FTGRS0PA,3TVSS0C0E5GUMLCYI2SLXPLH0BPWT7,3,4
34,3,object_10,object_01,774.0,5,2,348.0,0.6666666666666666,1,object_03,5,513,0,6,8,library_8,1,memory-2step-stake-s,529,992532,0.0-19.0-0.0-0.34,A36GU3OHGLDS8R,3SA4EMRVKYI00KKCICLEW0FTGRS0PA,3TVSS0C0E5GUMLCYI2SLXPLH0BPWT7,6,5
35,3,object_10,object_01,616.60000002384,6,1,575.0,0.7777777777777778,2,object_09,5,548,0,5,7,library_3,1,memory-2step-stake-s,530,1001115,0.0-19.0-0.0-0.35,A36GU3OHGLDS8R,3SA4EMRVKYI00KKCICLEW0FTGRS0PA,3TVSS0C0E5GUMLCYI2SLXPLH0BPWT7,6,5
36,4,object_02,object_07,311.5,7,2,385.80000007153,0.8888888888888888,1,object_03,5,588,0,8,6,restaurant_8,1,memory-2step-stake-s,531,1009609,0.0-19.0-0.0-0.36,A36GU3OHGLDS8R,3SA4EMRVKYI00KKCICLEW0FTGRS0PA,3TVSS0C0E5GUMLCYI2SLXPLH0BPWT7,8,7
37,4,object_02,object_07,352.70000004768,8,1,213.5,0.5555555555555556,2,object_09,1,593,0,8,5,restaurant_4,1,memory-2step-stake-s,532,1017642,0.0-19.0-0.0-0.37,A36GU3OHGLDS8R,3SA4EMRVKYI00KKCICLEW0FTGRS0PA,3TVSS0C0E5GUMLCYI2SLXPLH0BPWT7,8,7
38,4,object_07,object_02,289.60000002384,8,2,244.09999990463,0.8888888888888888,2,object_09,5,633,0,6,8,restaurant_8,1,memory-2step-stake-s,533,1026019,0.0-19.0-0.0-0.38,A36GU3OHGLDS8R,3SA4EMRVKYI00KKCICLEW0FTGRS0PA,3TVSS0C0E5GUMLCYI2SLXPLH0BPWT7,7,8
39,1,object_04,object_08,225.70000004768,2,1,237.90000009537,0.8888888888888888,2,object_09,5,673,0,5,8,desert_3,1,memory-2step-stake-s,534,1034360,0.0-19.0-0.0-0.39,A36GU3OHGLDS8R,3SA4EMRVKYI00KKCICLEW0FTGRS0PA,3TVSS0C0E5GUMLCYI2SLXPLH0BPWT7,2,1
40,4,object_02,object_07,382.60000002384,7,2,285.79999995232,0.6666666666666666,1,object_03,5,703,0,6,4,restaurant_4,1,memory-2step-stake-s,535,1042539,0.0-19.0-0.0-0.40,A36GU3OHGLDS8R,3SA4EMRVKYI00KKCICLEW0FTGRS0PA,3TVSS0C0E5GUMLCYI2SLXPLH0BPWT7,8,7
41,3,object_10,object_01,276.89999997616,6,1,239.5,0.5555555555555556,2,object_09,5,728,0,4,5,library_1,1,memory-2step-stake-s,536,1050574,0.0-19.0-0.0-0.41,A36GU3OHGLDS8R,3SA4EMRVKYI00KKCICLEW0FTGRS0PA,3TVSS0C0E5GUMLCYI2SLXPLH0BPWT7,6,5
42,4,object_02,object_07,328.69999992847,7,2,298.20000004768,0.2222222222222222,1,object_03,5,738,0,2,2,restaurant_6,1,memory-2step-stake-s,537,1058340,0.0-19.0-0.0-0.42,A36GU3OHGLDS8R,3SA4EMRVKYI00KKCICLEW0FTGRS0PA,3TVSS0C0E5GUMLCYI2SLXPLH0BPWT7,8,7
43,2,object_05,object_06,280.79999995232,3,1,376.0,0.0,1,object_03,1,738,0,0,2,forest_8,1,memory-2step-stake-s,538,1065973,0.0-19.0-0.0-0.43,A36GU3OHGLDS8R,3SA4EMRVKYI00KKCICLEW0FTGRS0PA,3TVSS0C0E5GUMLCYI2SLXPLH0BPWT7,3,4
44,2,object_05,object_06,582.39999997616,4,2,335.20000004768,0.2222222222222222,2,object_09,5,748,0,1,2,forest_3,1,memory-2step-stake-s,539,1073792,0.0-19.0-0.0-0.44,A36GU3OHGLDS8R,3SA4EMRVKYI00KKCICLEW0FTGRS0PA,3TVSS0C0E5GUMLCYI2SLXPLH0BPWT7,3,4
45,3,object_10,object_01,236.30000007153,6,1,232.09999990463,0.1111111111111111,2,object_09,5,753,0,1,1,library_2,1,memory-2step-stake-s,540,1081381,0.0-19.0-0.0-0.45,A36GU3OHGLDS8R,3SA4EMRVKYI00KKCICLEW0FTGRS0PA,3TVSS0C0E5GUMLCYI2SLXPLH0BPWT7,6,5
46,1,object_08,object_04,206.80000007153,2,2,303.39999997616,0.2222222222222222,2,object_09,1,755,0,2,2,desert_1,1,memory-2step-stake-s,541,1089166,0.0-19.0-0.0-0.46,A36GU3OHGLDS8R,3SA4EMRVKYI00KKCICLEW0FTGRS0PA,3TVSS0C0E5GUMLCYI2SLXPLH0BPWT7,1,2
47,4,object_02,object_07,509.79999995232,8,1,422.79999995232,0.5555555555555556,2,object_09,5,780,0,4,5,restaurant_6,1,memory-2step-stake-s,542,1097389,0.0-19.0-0.0-0.47,A36GU3OHGLDS8R,3SA4EMRVKYI00KKCICLEW0FTGRS0PA,3TVSS0C0E5GUMLCYI2SLXPLH0BPWT7,8,7
48,4,object_02,object_07,353.0,8,1,272.39999997616,0.8888888888888888,2,object_09,5,820,0,3,8,restaurant_6,1,memory-2step-stake-s,543,1105763,0.0-19.0-0.0-0.48,A36GU3OHGLDS8R,3SA4EMRVKYI00KKCICLEW0FTGRS0PA,3TVSS0C0E5GUMLCYI2SLXPLH0BPWT7,8,7
49,3,object_01,object_10,518.70000004768,6,2,357.89999997616,0.6666666666666666,2,object_09,5,850,0,2,6,library_8,1,memory-2step-stake-s,544,1114055,0.0-19.0-0.0-0.49,A36GU3OHGLDS8R,3SA4EMRVKYI00KKCICLEW0FTGRS0PA,3TVSS0C0E5GUMLCYI2SLXPLH0BPWT7,5,6
50,4,object_02,object_07,728.30000007153,8,1,260.5,0.7777777777777778,2,object_09,5,885,0,4,7,restaurant_4,1,memory-2step-stake-s,545,1122318,0.0-19.0-0.0-0.50,A36GU3OHGLDS8R,3SA4EMRVKYI00KKCICLEW0FTGRS0PA,3TVSS0C0E5GUMLCYI2SLXPLH0BPWT7,8,7
51,1,object_08,object_04,270.79999995232,2,2,637.89999997616,0.8888888888888888,2,object_09,1,893,0,2,8,desert_6,1,memory-2step-stake-s,546,1131081,0.0-19.0-0.0-0.51,A36GU3OHGLDS8R,3SA4EMRVKYI00KKCICLEW0FTGRS0PA,3TVSS0C0E5GUMLCYI2SLXPLH0BPWT7,1,2
52,2,object_06,object_05,221.70000004768,4,1,689.0,0.7777777777777778,2,object_09,1,900,0,2,7,forest_3,1,memory-2step-stake-s,547,1139784,0.0-19.0-0.0-0.52,A36GU3OHGLDS8R,3SA4EMRVKYI00KKCICLEW0FTGRS0PA,3TVSS0C0E5GUMLCYI2SLXPLH0BPWT7,4,3
53,4,object_02,object_07,308.10000002384,7,2,233.60000002384,0.1111111111111111,1,object_03,5,905,0,1,7,restaurant_4,1,memory-2step-stake-s,548,1147389,0.0-19.0-0.0-0.53,A36GU3OHGLDS8R,3SA4EMRVKYI00KKCICLEW0FTGRS0PA,3TVSS0C0E5GUMLCYI2SLXPLH0BPWT7,8,7
54,3,object_01,object_10,712.5,5,1,357.89999997616,0.2222222222222222,1,object_03,5,915,0,2,6,library_8,1,memory-2step-stake-s,549,1155233,0.0-19.0-0.0-0.54,A36GU3OHGLDS8R,3SA4EMRVKYI00KKCICLEW0FTGRS0PA,3TVSS0C0E5GUMLCYI2SLXPLH0BPWT7,5,6
55,1,object_04,object_08,329.20000004768,1,2,479.0,0.0,1,object_03,1,915,0,0,4,desert_3,1,memory-2step-stake-s,550,1162969,0.0-19.0-0.0-0.55,A36GU3OHGLDS8R,3SA4EMRVKYI00KKCICLEW0FTGRS0PA,3TVSS0C0E5GUMLCYI2SLXPLH0BPWT7,2,1
56,1,object_04,object_08,258.40000009537,2,1,459.0,0.7777777777777778,2,object_09,1,922,0,4,7,desert_1,1,memory-2step-stake-s,551,1171409,0.0-19.0-0.0-0.56,A36GU3OHGLDS8R,3SA4EMRVKYI00KKCICLEW0FTGRS0PA,3TVSS0C0E5GUMLCYI2SLXPLH0BPWT7,2,1
57,1,object_04,object_08,709.19999992847,2,1,286.10000002384,0.4444444444444444,2,object_09,1,926,0,4,4,desert_3,1,memory-2step-stake-s,552,1179374,0.0-19.0-0.0-0.57,A36GU3OHGLDS8R,3SA4EMRVKYI00KKCICLEW0FTGRS0PA,3TVSS0C0E5GUMLCYI2SLXPLH0BPWT7,2,1
58,3,object_01,object_10,263.60000002384,5,1,168.60000002384,0.3333333333333333,1,object_03,1,929,0,3,9,library_1,1,memory-2step-stake-s,553,1187124,0.0-19.0-0.0-0.58,A36GU3OHGLDS8R,3SA4EMRVKYI00KKCICLEW0FTGRS0PA,3TVSS0C0E5GUMLCYI2SLXPLH0BPWT7,5,6
59,2,object_05,object_06,277.5,3,1,279.40000009537,0.6666666666666666,1,object_03,1,935,0,6,8,forest_8,1,memory-2step-stake-s,554,1195299,0.0-19.0-0.0-0.59,A36GU3OHGLDS8R,3SA4EMRVKYI00KKCICLEW0FTGRS0PA,3TVSS0C0E5GUMLCYI2SLXPLH0BPWT7,3,4
60,1,object_04,object_08,244.70000004768,1,2,869.80000007153,0.7777777777777778,1,object_03,1,942,0,7,7,desert_5,1,memory-2step-stake-s,555,1204182,0.0-19.0-0.0-0.60,A36GU3OHGLDS8R,3SA4EMRVKYI00KKCICLEW0FTGRS0PA,3TVSS0C0E5GUMLCYI2SLXPLH0BPWT7,2,1
61,2,object_06,object_05,272.10000002384,4,1,230.39999997616,0.6666666666666666,2,object_09,1,948,0,5,6,forest_3,1,memory-2step-stake-s,556,1212341,0.0-19.0-0.0-0.61,A36GU3OHGLDS8R,3SA4EMRVKYI00KKCICLEW0FTGRS0PA,3TVSS0C0E5GUMLCYI2SLXPLH0BPWT7,4,3
62,2,object_06,object_05,249.5,4,1,231.60000002384,0.6666666666666666,2,object_09,1,954,0,4,6,forest_3,1,memory-2step-stake-s,557,1220494,0.0-19.0-0.0-0.62,A36GU3OHGLDS8R,3SA4EMRVKYI00KKCICLEW0FTGRS0PA,3TVSS0C0E5GUMLCYI2SLXPLH0BPWT7,4,3
63,2,object_05,object_06,290.70000004768,4,2,240.29999995232,0.6666666666666666,2,object_09,1,960,0,2,6,forest_4,1,memory-2step-stake-s,558,1228629,0.0-19.0-0.0-0.63,A36GU3OHGLDS8R,3SA4EMRVKYI00KKCICLEW0FTGRS0PA,3TVSS0C0E5GUMLCYI2SLXPLH0BPWT7,3,4
64,1,object_04,object_08,222.79999995232,2,1,196.70000004768,0.6666666666666666,2,object_09,1,966,0,4,6,desert_6,1,memory-2step-stake-s,559,1236760,0.0-19.0-0.0-0.64,A36GU3OHGLDS8R,3SA4EMRVKYI00KKCICLEW0FTGRS0PA,3TVSS0C0E5GUMLCYI2SLXPLH0BPWT7,2,1
65,3,object_10,object_01,321.5,5,2,360.89999997616,0.6666666666666666,1,object_03,5,996,0,6,4,library_2,1,memory-2step-stake-s,560,1245021,0.0-19.0-0.0-0.65,A36GU3OHGLDS8R,3SA4EMRVKYI00KKCICLEW0FTGRS0PA,3TVSS0C0E5GUMLCYI2SLXPLH0BPWT7,6,5
66,3,object_10,object_01,351.60000002384,6,1,331.29999995232,0.3333333333333333,2,object_09,1,999,0,4,3,library_3,1,memory-2step-stake-s,561,1252964,0.0-19.0-0.0-0.66,A36GU3OHGLDS8R,3SA4EMRVKYI00KKCICLEW0FTGRS0PA,3TVSS0C0E5GUMLCYI2SLXPLH0BPWT7,6,5
67,4,object_02,object_07,301.09999990463,7,2,271.0,0.5555555555555556,1,object_03,5,1024,0,5,7,restaurant_8,1,memory-2step-stake-s,562,1261038,0.0-19.0-0.0-0.67,A36GU3OHGLDS8R,3SA4EMRVKYI00KKCICLEW0FTGRS0PA,3TVSS0C0E5GUMLCYI2SLXPLH0BPWT7,8,7
68,1,object_08,object_04,274.79999995232,1,1,234.80000007153,0.3333333333333333,1,object_03,1,1027,0,3,9,desert_5,1,memory-2step-stake-s,563,1268868,0.0-19.0-0.0-0.68,A36GU3OHGLDS8R,3SA4EMRVKYI00KKCICLEW0FTGRS0PA,3TVSS0C0E5GUMLCYI2SLXPLH0BPWT7,1,2
69,3,object_01,object_10,234.19999992847,6,2,130.60000002384,0.5555555555555556,2,object_09,1,1032,0,5,5,library_1,1,memory-2step-stake-s,564,1276790,0.0-19.0-0.0-0.69,A36GU3OHGLDS8R,3SA4EMRVKYI00KKCICLEW0FTGRS0PA,3TVSS0C0E5GUMLCYI2SLXPLH0BPWT7,5,6
70,4,object_02,object_07,361.70000004768,8,1,196.0,0.3333333333333333,2,object_09,5,1047,0,3,3,restaurant_4,1,memory-2step-stake-s,565,1284562,0.0-19.0-0.0-0.70,A36GU3OHGLDS8R,3SA4EMRVKYI00KKCICLEW0FTGRS0PA,3TVSS0C0E5GUMLCYI2SLXPLH0BPWT7,8,7
71,2,object_06,object_05,274.29999995232,3,2,249.89999997616,0.0,1,object_03,1,1047,0,0,4,forest_8,1,memory-2step-stake-s,566,1292092,0.0-19.0-0.0-0.71,A36GU3OHGLDS8R,3SA4EMRVKYI00KKCICLEW0FTGRS0PA,3TVSS0C0E5GUMLCYI2SLXPLH0BPWT7,4,3
72,3,object_10,object_01,134.5,6,1,182.60000002384,0.3333333333333333,2,object_09,1,1050,0,2,3,library_2,1,memory-2step-stake-s,567,1299895,0.0-19.0-0.0-0.72,A36GU3OHGLDS8R,3SA4EMRVKYI00KKCICLEW0FTGRS0PA,3TVSS0C0E5GUMLCYI2SLXPLH0BPWT7,6,5
73,1,object_08,object_04,258.5,2,2,177.59999990463,0.1111111111111111,2,object_09,1,1051,0,4,1,desert_5,1,memory-2step-stake-s,568,1307450,0.0-19.0-0.0-0.73,A36GU3OHGLDS8R,3SA4EMRVKYI00KKCICLEW0FTGRS0PA,3TVSS0C0E5GUMLCYI2SLXPLH0BPWT7,1,2
74,4,object_07,object_02,247.10000002384,7,1,504.29999995232,0.2222222222222222,1,object_03,5,1061,0,2,2,restaurant_8,1,memory-2step-stake-s,569,1315430,0.0-19.0-0.0-0.74,A36GU3OHGLDS8R,3SA4EMRVKYI00KKCICLEW0FTGRS0PA,3TVSS0C0E5GUMLCYI2SLXPLH0BPWT7,7,8
75,4,object_07,object_02,319.80000007153,8,2,338.10000002384,0.2222222222222222,2,object_09,5,1071,0,0,2,restaurant_4,1,memory-2step-stake-s,570,1323259,0.0-19.0-0.0-0.75,A36GU3OHGLDS8R,3SA4EMRVKYI00KKCICLEW0FTGRS0PA,3TVSS0C0E5GUMLCYI2SLXPLH0BPWT7,7,8
76,2,object_06,object_05,253.19999992847,4,1,222.10000002384,0.1111111111111111,2,object_09,1,1072,0,1,1,forest_8,1,memory-2step-stake-s,571,1330845,0.0-19.0-0.0-0.76,A36GU3OHGLDS8R,3SA4EMRVKYI00KKCICLEW0FTGRS0PA,3TVSS0C0E5GUMLCYI2SLXPLH0BPWT7,4,3
77,4,object_02,object_07,321.0,7,2,696.10000002384,0.2222222222222222,1,object_03,5,1082,0,2,2,restaurant_4,1,memory-2step-stake-s,572,1339022,0.0-19.0-0.0-0.77,A36GU3OHGLDS8R,3SA4EMRVKYI00KKCICLEW0FTGRS0PA,3TVSS0C0E5GUMLCYI2SLXPLH0BPWT7,8,7
78,2,object_06,object_05,276.80000007153,4,1,172.79999995232,0.0,2,object_09,1,1082,0,1,0,forest_3,1,memory-2step-stake-s,573,1346450,0.0-19.0-0.0-0.78,A36GU3OHGLDS8R,3SA4EMRVKYI00KKCICLEW0FTGRS0PA,3TVSS0C0E5GUMLCYI2SLXPLH0BPWT7,4,3
79,2,object_06,object_05,302.29999995232,3,2,264.89999997616,0.1111111111111111,1,object_03,1,1083,0,1,3,forest_4,1,memory-2step-stake-s,574,1354090,0.0-19.0-0.0-0.79,A36GU3OHGLDS8R,3SA4EMRVKYI00KKCICLEW0FTGRS0PA,3TVSS0C0E5GUMLCYI2SLXPLH0BPWT7,4,3
80,2,object_06,object_05,296.09999990463,3,2,62.899999976158,0.1111111111111111,1,object_03,1,1084,0,1,3,forest_4,1,memory-2step-stake-s,575,1361515,0.0-19.0-0.0-0.80,A36GU3OHGLDS8R,3SA4EMRVKYI00KKCICLEW0FTGRS0PA,3TVSS0C0E5GUMLCYI2SLXPLH0BPWT7,4,3
81,1,object_08,object_04,241.19999992847,1,1,225.39999997616,0.0,1,object_03,1,1084,0,0,4,desert_5,1,memory-2step-stake-s,576,1369005,0.0-19.0-0.0-0.81,A36GU3OHGLDS8R,3SA4EMRVKYI00KKCICLEW0FTGRS0PA,3TVSS0C0E5GUMLCYI2SLXPLH0BPWT7,1,2
82,4,object_07,object_02,245.89999997616,8,2,57.5,0.4444444444444444,2,object_09,5,1104,0,0,4,restaurant_5,1,memory-2step-stake-s,577,1376760,0.0-19.0-0.0-0.82,A36GU3OHGLDS8R,3SA4EMRVKYI00KKCICLEW0FTGRS0PA,3TVSS0C0E5GUMLCYI2SLXPLH0BPWT7,7,8
83,4,object_07,object_02,343.60000002384,7,1,395.79999995232,0.0,1,object_03,5,1104,0,0,4,restaurant_5,1,memory-2step-stake-s,578,1384418,0.0-19.0-0.0-0.83,A36GU3OHGLDS8R,3SA4EMRVKYI00KKCICLEW0FTGRS0PA,3TVSS0C0E5GUMLCYI2SLXPLH0BPWT7,7,8
84,2,object_05,object_06,263.60000002384,4,2,509.60000002384,0.4444444444444444,2,object_09,5,1124,0,0,4,forest_7,1,memory-2step-stake-s,579,1392615,0.0-19.0-0.0-0.84,A36GU3OHGLDS8R,3SA4EMRVKYI00KKCICLEW0FTGRS0PA,3TVSS0C0E5GUMLCYI2SLXPLH0BPWT7,3,4
85,4,object_07,object_02,275.90000009537,8,2,210.89999997616,0.6666666666666666,2,object_09,5,1154,0,2,6,restaurant_5,1,memory-2step-stake-s,580,1400730,0.0-19.0-0.0-0.85,A36GU3OHGLDS8R,3SA4EMRVKYI00KKCICLEW0FTGRS0PA,3TVSS0C0E5GUMLCYI2SLXPLH0BPWT7,7,8
86,3,object_01,object_10,250.89999997616,5,1,268.60000002384,0.3333333333333333,1,object_03,1,1157,0,3,7,library_2,1,memory-2step-stake-s,581,1408582,0.0-19.0-0.0-0.86,A36GU3OHGLDS8R,3SA4EMRVKYI00KKCICLEW0FTGRS0PA,3TVSS0C0E5GUMLCYI2SLXPLH0BPWT7,5,6
87,4,object_02,object_07,97.0,7,2,415.89999997616,0.4444444444444444,1,object_03,5,1177,0,4,7,restaurant_5,1,memory-2step-stake-s,582,1416685,0.0-19.0-0.0-0.87,A36GU3OHGLDS8R,3SA4EMRVKYI00KKCICLEW0FTGRS0PA,3TVSS0C0E5GUMLCYI2SLXPLH0BPWT7,8,7
88,2,object_05,object_06,246.0,3,1,689.5,0.0,1,object_03,1,1177,0,0,7,forest_3,1,memory-2step-stake-s,583,1424634,0.0-19.0-0.0-0.88,A36GU3OHGLDS8R,3SA4EMRVKYI00KKCICLEW0FTGRS0PA,3TVSS0C0E5GUMLCYI2SLXPLH0BPWT7,3,4
89,4,object_02,object_07,94.099999904633,8,1,234.30000007153,0.4444444444444444,2,object_09,5,1197,0,2,4,restaurant_5,1,memory-2step-stake-s,584,1432555,0.0-19.0-0.0-0.89,A36GU3OHGLDS8R,3SA4EMRVKYI00KKCICLEW0FTGRS0PA,3TVSS0C0E5GUMLCYI2SLXPLH0BPWT7,8,7
90,1,object_04,object_08,21.899999976158,1,2,238.09999990463,0.3333333333333333,1,object_03,1,1200,0,3,5,desert_5,1,memory-2step-stake-s,585,1440387,0.0-19.0-0.0-0.90,A36GU3OHGLDS8R,3SA4EMRVKYI00KKCICLEW0FTGRS0PA,3TVSS0C0E5GUMLCYI2SLXPLH0BPWT7,2,1
91,2,object_06,object_05,253.79999995232,4,1,366.89999997616,0.6666666666666666,2,object_09,1,1206,0,2,6,forest_4,1,memory-2step-stake-s,586,1448676,0.0-19.0-0.0-0.91,A36GU3OHGLDS8R,3SA4EMRVKYI00KKCICLEW0FTGRS0PA,3TVSS0C0E5GUMLCYI2SLXPLH0BPWT7,4,3
92,3,object_01,object_10,269.80000007153,5,1,306.80000007153,0.6666666666666666,1,object_03,5,1236,0,6,4,library_3,1,memory-2step-stake-s,587,1456887,0.0-19.0-0.0-0.92,A36GU3OHGLDS8R,3SA4EMRVKYI00KKCICLEW0FTGRS0PA,3TVSS0C0E5GUMLCYI2SLXPLH0BPWT7,5,6
93,4,object_02,object_07,331.79999995232,7,2,241.0,0.8888888888888888,1,object_03,5,1276,0,8,6,restaurant_8,1,memory-2step-stake-s,588,1465211,0.0-19.0-0.0-0.93,A36GU3OHGLDS8R,3SA4EMRVKYI00KKCICLEW0FTGRS0PA,3TVSS0C0E5GUMLCYI2SLXPLH0BPWT7,8,7
94,4,object_07,object_02,263.70000004768,8,2,286.0,0.7777777777777778,2,object_09,5,1311,0,9,7,restaurant_6,1,memory-2step-stake-s,589,1473516,0.0-19.0-0.0-0.94,A36GU3OHGLDS8R,3SA4EMRVKYI00KKCICLEW0FTGRS0PA,3TVSS0C0E5GUMLCYI2SLXPLH0BPWT7,7,8
95,3,object_01,object_10,376.80000007153,5,1,358.80000007153,1.0,1,object_03,5,1356,0,9,9,library_2,1,memory-2step-stake-s,590,1482128,0.0-19.0-0.0-0.95,A36GU3OHGLDS8R,3SA4EMRVKYI00KKCICLEW0FTGRS0PA,3TVSS0C0E5GUMLCYI2SLXPLH0BPWT7,5,6
96,1,object_04,object_08,252.30000007153,1,2,347.29999995232,0.8888888888888888,1,object_03,1,1364,0,8,8,desert_1,1,memory-2step-stake-s,591,1490613,0.0-19.0-0.0-0.96,A36GU3OHGLDS8R,3SA4EMRVKYI00KKCICLEW0FTGRS0PA,3TVSS0C0E5GUMLCYI2SLXPLH0BPWT7,2,1
97,4,object_07,object_02,281.0,7,1,305.10000002384,1.0,1,object_03,1,1373,0,9,7,restaurant_4,1,memory-2step-stake-s,592,1499150,0.0-19.0-0.0-0.97,A36GU3OHGLDS8R,3SA4EMRVKYI00KKCICLEW0FTGRS0PA,3TVSS0C0E5GUMLCYI2SLXPLH0BPWT7,7,8
98,3,object_10,object_01,340.5,6,1,249.70000004768,0.6666666666666666,2,object_09,5,1403,0,8,6,library_8,1,memory-2step-stake-s,593,1507289,0.0-19.0-0.0-0.98,A36GU3OHGLDS8R,3SA4EMRVKYI00KKCICLEW0FTGRS0PA,3TVSS0C0E5GUMLCYI2SLXPLH0BPWT7,6,5
99,4,object_07,object_02,220.0,8,2,373.29999995232,0.8888888888888888,2,object_09,5,1443,0,9,8,restaurant_5,1,memory-2step-stake-s,594,1515775,0.0-19.0-0.0-0.99,A36GU3OHGLDS8R,3SA4EMRVKYI00KKCICLEW0FTGRS0PA,3TVSS0C0E5GUMLCYI2SLXPLH0BPWT7,7,8
100,4,object_07,object_02,252.20000004768,8,2,287.0,0.5555555555555556,2,object_09,5,1468,0,6,5,restaurant_6,1,memory-2step-stake-s,595,1523869,0.0-19.0-0.0-0.100,A36GU3OHGLDS8R,3SA4EMRVKYI00KKCICLEW0FTGRS0PA,3TVSS0C0E5GUMLCYI2SLXPLH0BPWT7,7,8
101,2,object_05,object_06,961.10000002384,4,2,374.29999995232,0.5555555555555556,2,object_09,1,1473,0,7,5,forest_8,1,memory-2step-stake-s,596,1532048,0.0-19.0-0.0-0.101,A36GU3OHGLDS8R,3SA4EMRVKYI00KKCICLEW0FTGRS0PA,3TVSS0C0E5GUMLCYI2SLXPLH0BPWT7,3,4
102,4,object_07,object_02,242.60000002384,7,1,263.10000002384,0.6666666666666666,1,object_03,5,1503,0,6,4,restaurant_5,1,memory-2step-stake-s,597,1540195,0.0-19.0-0.0-0.102,A36GU3OHGLDS8R,3SA4EMRVKYI00KKCICLEW0FTGRS0PA,3TVSS0C0E5GUMLCYI2SLXPLH0BPWT7,7,8
103,2,object_06,object_05,492.0,4,1,348.79999995232,0.4444444444444444,2,object_09,1,1507,0,2,4,forest_7,1,memory-2step-stake-s,598,1548232,0.0-19.0-0.0-0.103,A36GU3OHGLDS8R,3SA4EMRVKYI00KKCICLEW0FTGRS0PA,3TVSS0C0E5GUMLCYI2SLXPLH0BPWT7,4,3
104,4,object_02,object_07,333.09999990463,8,1,243.89999997616,0.6666666666666666,2,object_09,5,1537,0,6,6,restaurant_8,1,memory-2step-stake-s,599,1556362,0.0-19.0-0.0-0.104,A36GU3OHGLDS8R,3SA4EMRVKYI00KKCICLEW0FTGRS0PA,3TVSS0C0E5GUMLCYI2SLXPLH0BPWT7,8,7
105,1,object_08,object_04,297.70000004768,2,2,350.20000004768,0.2222222222222222,2,object_09,5,1547,0,8,2,desert_5,1,memory-2step-stake-s,600,1564188,0.0-19.0-0.0-0.105,A36GU3OHGLDS8R,3SA4EMRVKYI00KKCICLEW0FTGRS0PA,3TVSS0C0E5GUMLCYI2SLXPLH0BPWT7,1,2
106,4,object_07,object_02,270.79999995232,7,1,217.30000007153,0.7777777777777778,1,object_03,5,1582,0,7,4,restaurant_4,1,memory-2step-stake-s,601,1572410,0.0-19.0-0.0-0.106,A36GU3OHGLDS8R,3SA4EMRVKYI00KKCICLEW0FTGRS0PA,3TVSS0C0E5GUMLCYI2SLXPLH0BPWT7,7,8
107,1,object_04,object_08,253.39999997616,1,2,604.70000004768,0.5555555555555556,1,object_03,1,1587,0,5,3,desert_3,1,memory-2step-stake-s,602,1580810,0.0-19.0-0.0-0.107,A36GU3OHGLDS8R,3SA4EMRVKYI00KKCICLEW0FTGRS0PA,3TVSS0C0E5GUMLCYI2SLXPLH0BPWT7,2,1
108,4,object_02,object_07,237.89999997616,7,2,240.60000002384,0.2222222222222222,1,object_03,5,1597,0,2,2,restaurant_6,1,memory-2step-stake-s,603,1588516,0.0-19.0-0.0-0.108,A36GU3OHGLDS8R,3SA4EMRVKYI00KKCICLEW0FTGRS0PA,3TVSS0C0E5GUMLCYI2SLXPLH0BPWT7,8,7
109,3,object_01,object_10,505.10000002384,5,1,589.40000009537,0.5555555555555556,1,object_03,5,1622,0,5,2,library_2,1,memory-2step-stake-s,604,1596901,0.0-19.0-0.0-0.109,A36GU3OHGLDS8R,3SA4EMRVKYI00KKCICLEW0FTGRS0PA,3TVSS0C0E5GUMLCYI2SLXPLH0BPWT7,5,6
110,4,object_02,object_07,255.59999990463,8,1,232.39999997616,0.4444444444444444,2,object_09,5,1642,0,3,4,restaurant_5,1,memory-2step-stake-s,605,1604836,0.0-19.0-0.0-0.110,A36GU3OHGLDS8R,3SA4EMRVKYI00KKCICLEW0FTGRS0PA,3TVSS0C0E5GUMLCYI2SLXPLH0BPWT7,8,7
111,4,object_07,object_02,274.89999997616,8,2,325.20000004768,0.2222222222222222,2,object_09,5,1652,0,5,2,restaurant_8,1,memory-2step-stake-s,606,1612662,0.0-19.0-0.0-0.111,A36GU3OHGLDS8R,3SA4EMRVKYI00KKCICLEW0FTGRS0PA,3TVSS0C0E5GUMLCYI2SLXPLH0BPWT7,7,8
112,2,object_06,object_05,261.70000004768,4,1,408.30000007153,0.2222222222222222,2,object_09,5,1662,0,2,2,forest_8,1,memory-2step-stake-s,607,1620524,0.0-19.0-0.0-0.112,A36GU3OHGLDS8R,3SA4EMRVKYI00KKCICLEW0FTGRS0PA,3TVSS0C0E5GUMLCYI2SLXPLH0BPWT7,4,3
113,1,object_08,object_04,291.5,2,2,217.79999995232,0.2222222222222222,2,object_09,1,1664,0,3,2,desert_1,1,memory-2step-stake-s,608,1628234,0.0-19.0-0.0-0.113,A36GU3OHGLDS8R,3SA4EMRVKYI00KKCICLEW0FTGRS0PA,3TVSS0C0E5GUMLCYI2SLXPLH0BPWT7,1,2
114,3,object_01,object_10,290.39999997616,5,1,272.70000004768,0.4444444444444444,1,object_03,5,1684,0,4,2,library_2,1,memory-2step-stake-s,609,1636210,0.0-19.0-0.0-0.114,A36GU3OHGLDS8R,3SA4EMRVKYI00KKCICLEW0FTGRS0PA,3TVSS0C0E5GUMLCYI2SLXPLH0BPWT7,5,6
115,1,object_04,object_08,288.70000004768,2,1,490.60000002384,0.2222222222222222,2,object_09,1,1686,0,4,2,desert_3,1,memory-2step-stake-s,610,1644178,0.0-19.0-0.0-0.115,A36GU3OHGLDS8R,3SA4EMRVKYI00KKCICLEW0FTGRS0PA,3TVSS0C0E5GUMLCYI2SLXPLH0BPWT7,2,1
116,3,object_01,object_10,272.89999997616,6,2,22.5,0.3333333333333333,2,object_09,5,1701,0,2,3,library_2,1,memory-2step-stake-s,611,1651807,0.0-19.0-0.0-0.116,A36GU3OHGLDS8R,3SA4EMRVKYI00KKCICLEW0FTGRS0PA,3TVSS0C0E5GUMLCYI2SLXPLH0BPWT7,5,6
117,4,object_07,object_02,333.69999992847,7,1,235.89999997616,0.3333333333333333,1,object_03,5,1716,0,3,3,restaurant_5,1,memory-2step-stake-s,612,1659636,0.0-19.0-0.0-0.117,A36GU3OHGLDS8R,3SA4EMRVKYI00KKCICLEW0FTGRS0PA,3TVSS0C0E5GUMLCYI2SLXPLH0BPWT7,7,8
118,1,object_04,object_08,250.39999997616,1,2,232.10000002384,0.5555555555555556,1,object_03,1,1721,0,5,1,desert_1,1,memory-2step-stake-s,613,1667696,0.0-19.0-0.0-0.118,A36GU3OHGLDS8R,3SA4EMRVKYI00KKCICLEW0FTGRS0PA,3TVSS0C0E5GUMLCYI2SLXPLH0BPWT7,2,1
119,2,object_06,object_05,879.20000004768,4,1,240.79999995232,0.0,2,object_09,1,1721,0,3,0,forest_3,1,memory-2step-stake-s,614,1675203,0.0-19.0-0.0-0.119,A36GU3OHGLDS8R,3SA4EMRVKYI00KKCICLEW0FTGRS0PA,3TVSS0C0E5GUMLCYI2SLXPLH0BPWT7,4,3
120,3,object_10,object_01,201.89999997616,5,2,191.60000002384,0.1111111111111111,1,object_03,5,1726,0,1,0,library_8,1,memory-2step-stake-s,615,1682764,0.0-19.0-0.0-0.120,A36GU3OHGLDS8R,3SA4EMRVKYI00KKCICLEW0FTGRS0PA,3TVSS0C0E5GUMLCYI2SLXPLH0BPWT7,6,5
121,2,object_06,object_05,231.5,4,1,244.90000009537,0.1111111111111111,2,object_09,1,1727,0,2,1,forest_4,1,memory-2step-stake-s,616,1690368,0.0-19.0-0.0-0.121,A36GU3OHGLDS8R,3SA4EMRVKYI00KKCICLEW0FTGRS0PA,3TVSS0C0E5GUMLCYI2SLXPLH0BPWT7,4,3
122,4,object_02,object_07,235.09999990463,7,2,139.59999990463,0.3333333333333333,1,object_03,1,1730,0,3,0,restaurant_5,1,memory-2step-stake-s,617,1698088,0.0-19.0-0.0-0.122,A36GU3OHGLDS8R,3SA4EMRVKYI00KKCICLEW0FTGRS0PA,3TVSS0C0E5GUMLCYI2SLXPLH0BPWT7,8,7
123,1,object_08,object_04,237.29999995232,1,1,212.40000009537,0.1111111111111111,1,object_03,1,1731,0,1,2,desert_5,1,memory-2step-stake-s,618,1705706,0.0-19.0-0.0-0.123,A36GU3OHGLDS8R,3SA4EMRVKYI00KKCICLEW0FTGRS0PA,3TVSS0C0E5GUMLCYI2SLXPLH0BPWT7,1,2
124,1,object_04,object_08,149.40000009537,1,2,211.79999995232,0.2222222222222222,1,object_03,1,1733,0,2,0,desert_6,1,memory-2step-stake-s,619,1713407,0.0-19.0-0.0-0.124,A36GU3OHGLDS8R,3SA4EMRVKYI00KKCICLEW0FTGRS0PA,3TVSS0C0E5GUMLCYI2SLXPLH0BPWT7,2,1
125,2,object_05,object_06,113.0,3,1,248.59999990463,0.1111111111111111,1,object_03,1,1734,0,1,2,forest_7,1,memory-2step-stake-s,620,1721029,0.0-19.0-0.0-0.125,A36GU3OHGLDS8R,3SA4EMRVKYI00KKCICLEW0FTGRS0PA,3TVSS0C0E5GUMLCYI2SLXPLH0BPWT7,3,4
126,4,object_07,object_02,258.5,8,2,283.70000004768,0.1111111111111111,2,object_09,5,1739,0,2,1,restaurant_6,1,memory-2step-stake-s,621,1728667,0.0-19.0-0.0-0.126,A36GU3OHGLDS8R,3SA4EMRVKYI00KKCICLEW0FTGRS0PA,3TVSS0C0E5GUMLCYI2SLXPLH0BPWT7,7,8
127,3,object_10,object_01,225.0,6,1,728.10000002384,0.2222222222222222,2,object_09,5,1749,0,6,2,library_1,1,memory-2step-stake-s,622,1736877,0.0-19.0-0.0-0.127,A36GU3OHGLDS8R,3SA4EMRVKYI00KKCICLEW0FTGRS0PA,3TVSS0C0E5GUMLCYI2SLXPLH0BPWT7,6,5
128,3,object_10,object_01,877.0,5,2,349.79999995232,0.7777777777777778,1,object_03,5,1784,0,7,3,library_1,1,memory-2step-stake-s,624,1758797,0.0-19.0-0.1-0.128,A36GU3OHGLDS8R,3SA4EMRVKYI00KKCICLEW0FTGRS0PA,3TVSS0C0E5GUMLCYI2SLXPLH0BPWT7,6,5
129,1,object_04,object_08,272.5,2,1,115.30000007153,0.6666666666666666,2,object_09,1,1790,0,8,6,desert_3,1,memory-2step-stake-s,625,1766810,0.0-19.0-0.1-0.129,A36GU3OHGLDS8R,3SA4EMRVKYI00KKCICLEW0FTGRS0PA,3TVSS0C0E5GUMLCYI2SLXPLH0BPWT7,2,1
130,4,object_07,object_02,261.19999992847,8,2,247.70000004768,0.4444444444444444,2,object_09,5,1810,0,7,4,restaurant_5,1,memory-2step-stake-s,626,1774754,0.0-19.0-0.1-0.130,A36GU3OHGLDS8R,3SA4EMRVKYI00KKCICLEW0FTGRS0PA,3TVSS0C0E5GUMLCYI2SLXPLH0BPWT7,7,8
131,3,object_10,object_01,251.19999992847,6,1,111.19999992847,0.4444444444444444,2,object_09,5,1830,0,7,4,library_2,1,memory-2step-stake-s,627,1782589,0.0-19.0-0.1-0.131,A36GU3OHGLDS8R,3SA4EMRVKYI00KKCICLEW0FTGRS0PA,3TVSS0C0E5GUMLCYI2SLXPLH0BPWT7,6,5
132,4,object_02,object_07,289.39999997616,7,2,324.29999995232,1.0,1,object_03,5,1875,0,9,6,restaurant_6,1,memory-2step-stake-s,628,1791130,0.0-19.0-0.1-0.132,A36GU3OHGLDS8R,3SA4EMRVKYI00KKCICLEW0FTGRS0PA,3TVSS0C0E5GUMLCYI2SLXPLH0BPWT7,8,7
133,1,object_08,object_04,362.29999995232,2,2,1081.0,0.4444444444444444,2,object_09,1,1879,0,5,4,desert_5,1,memory-2step-stake-s,629,1799897,0.0-19.0-0.1-0.133,A36GU3OHGLDS8R,3SA4EMRVKYI00KKCICLEW0FTGRS0PA,3TVSS0C0E5GUMLCYI2SLXPLH0BPWT7,1,2
134,2,object_05,object_06,1283.3000000715,3,1,885.10000002384,0.6666666666666666,1,object_03,1,1885,0,6,3,forest_4,1,memory-2step-stake-s,630,1808686,0.0-19.0-0.1-0.134,A36GU3OHGLDS8R,3SA4EMRVKYI00KKCICLEW0FTGRS0PA,3TVSS0C0E5GUMLCYI2SLXPLH0BPWT7,3,4
135,3,object_01,object_10,1096.8000000715,6,2,1246.3999999762,0.3333333333333333,2,object_09,1,1888,0,7,3,library_8,1,memory-2step-stake-s,631,1817519,0.0-19.0-0.1-0.135,A36GU3OHGLDS8R,3SA4EMRVKYI00KKCICLEW0FTGRS0PA,3TVSS0C0E5GUMLCYI2SLXPLH0BPWT7,5,6
136,3,object_10,object_01,1125.7000000477,6,1,274.69999992847,0.4444444444444444,2,object_09,5,1908,0,7,4,library_3,1,memory-2step-stake-s,632,1825499,0.0-19.0-0.1-0.136,A36GU3OHGLDS8R,3SA4EMRVKYI00KKCICLEW0FTGRS0PA,3TVSS0C0E5GUMLCYI2SLXPLH0BPWT7,6,5
137,2,object_05,object_06,255.70000004768,4,2,748.59999990463,0.2222222222222222,2,object_09,1,1910,0,7,2,forest_7,1,memory-2step-stake-s,633,1833738,0.0-19.0-0.1-0.137,A36GU3OHGLDS8R,3SA4EMRVKYI00KKCICLEW0FTGRS0PA,3TVSS0C0E5GUMLCYI2SLXPLH0BPWT7,3,4
138,2,object_06,object_05,220.80000007153,4,1,259.10000002384,0.1111111111111111,2,object_09,1,1911,0,4,1,forest_3,1,memory-2step-stake-s,634,1841370,0.0-19.0-0.1-0.138,A36GU3OHGLDS8R,3SA4EMRVKYI00KKCICLEW0FTGRS0PA,3TVSS0C0E5GUMLCYI2SLXPLH0BPWT7,4,3
139,4,object_02,object_07,292.0,7,2,261.10000002384,0.4444444444444444,1,object_03,5,1931,0,4,1,restaurant_8,1,memory-2step-stake-s,635,1849311,0.0-19.0-0.1-0.139,A36GU3OHGLDS8R,3SA4EMRVKYI00KKCICLEW0FTGRS0PA,3TVSS0C0E5GUMLCYI2SLXPLH0BPWT7,8,7
140,3,object_10,object_01,268.5,6,1,273.0,0.1111111111111111,2,object_09,5,1936,0,2,1,library_1,1,memory-2step-stake-s,636,1856969,0.0-19.0-0.1-0.140,A36GU3OHGLDS8R,3SA4EMRVKYI00KKCICLEW0FTGRS0PA,3TVSS0C0E5GUMLCYI2SLXPLH0BPWT7,6,5
141,4,object_07,object_02,312.5,8,2,108.0,0.2222222222222222,2,object_09,5,1946,0,0,2,restaurant_6,1,memory-2step-stake-s,637,1864555,0.0-19.0-0.1-0.141,A36GU3OHGLDS8R,3SA4EMRVKYI00KKCICLEW0FTGRS0PA,3TVSS0C0E5GUMLCYI2SLXPLH0BPWT7,7,8
142,1,object_08,object_04,263.10000002384,2,2,314.39999997616,0.3333333333333333,2,object_09,1,1949,0,1,3,desert_3,1,memory-2step-stake-s,638,1872444,0.0-19.0-0.1-0.142,A36GU3OHGLDS8R,3SA4EMRVKYI00KKCICLEW0FTGRS0PA,3TVSS0C0E5GUMLCYI2SLXPLH0BPWT7,1,2
143,3,object_10,object_01,239.09999990463,6,1,291.5,1.0,2,object_09,5,1994,0,2,9,library_8,1,memory-2step-stake-s,639,1880947,0.0-19.0-0.1-0.143,A36GU3OHGLDS8R,3SA4EMRVKYI00KKCICLEW0FTGRS0PA,3TVSS0C0E5GUMLCYI2SLXPLH0BPWT7,6,5
144,1,object_04,object_08,383.79999995232,2,1,289.39999997616,0.8888888888888888,2,object_09,1,2002,0,4,8,desert_6,1,memory-2step-stake-s,640,1889376,0.0-19.0-0.1-0.144,A36GU3OHGLDS8R,3SA4EMRVKYI00KKCICLEW0FTGRS0PA,3TVSS0C0E5GUMLCYI2SLXPLH0BPWT7,2,1
145,3,object_01,object_10,268.0,6,2,147.70000004768,0.8888888888888888,2,object_09,5,2042,0,0,8,library_8,1,memory-2step-stake-s,641,1897621,0.0-19.0-0.1-0.145,A36GU3OHGLDS8R,3SA4EMRVKYI00KKCICLEW0FTGRS0PA,3TVSS0C0E5GUMLCYI2SLXPLH0BPWT7,5,6
146,3,object_01,object_10,316.20000004768,5,1,341.39999997616,0.1111111111111111,1,object_03,1,2043,0,1,4,library_8,1,memory-2step-stake-s,642,1905338,0.0-19.0-0.1-0.146,A36GU3OHGLDS8R,3SA4EMRVKYI00KKCICLEW0FTGRS0PA,3TVSS0C0E5GUMLCYI2SLXPLH0BPWT7,5,6
147,1,object_08,object_04,436.10000002384,2,2,637.60000002384,0.2222222222222222,2,object_09,1,2045,0,1,2,desert_6,1,memory-2step-stake-s,643,1913455,0.0-19.0-0.1-0.147,A36GU3OHGLDS8R,3SA4EMRVKYI00KKCICLEW0FTGRS0PA,3TVSS0C0E5GUMLCYI2SLXPLH0BPWT7,1,2
148,4,object_02,object_07,384.70000004768,8,1,214.39999997616,0.6666666666666666,2,object_09,5,2075,0,4,6,restaurant_5,1,memory-2step-stake-s,644,1921589,0.0-19.0-0.1-0.148,A36GU3OHGLDS8R,3SA4EMRVKYI00KKCICLEW0FTGRS0PA,3TVSS0C0E5GUMLCYI2SLXPLH0BPWT7,8,7
149,3,object_10,object_01,244.09999990463,5,2,284.60000002384,0.1111111111111111,1,object_03,1,2076,0,1,2,library_3,1,memory-2step-stake-s,645,1929258,0.0-19.0-0.1-0.149,A36GU3OHGLDS8R,3SA4EMRVKYI00KKCICLEW0FTGRS0PA,3TVSS0C0E5GUMLCYI2SLXPLH0BPWT7,6,5
150,1,object_04,object_08,228.0,2,1,246.19999992847,0.0,2,object_09,1,2076,0,1,0,desert_5,1,memory-2step-stake-s,646,1936777,0.0-19.0-0.1-0.150,A36GU3OHGLDS8R,3SA4EMRVKYI00KKCICLEW0FTGRS0PA,3TVSS0C0E5GUMLCYI2SLXPLH0BPWT7,2,1
151,1,object_04,object_08,271.79999995232,1,2,60.0,0.2222222222222222,1,object_03,1,2078,0,2,5,desert_3,1,memory-2step-stake-s,647,1944314,0.0-19.0-0.1-0.151,A36GU3OHGLDS8R,3SA4EMRVKYI00KKCICLEW0FTGRS0PA,3TVSS0C0E5GUMLCYI2SLXPLH0BPWT7,2,1
152,2,object_05,object_06,372.0,4,2,300.10000002384,0.1111111111111111,2,object_09,1,2079,0,4,1,forest_3,1,memory-2step-stake-s,648,1951989,0.0-19.0-0.1-0.152,A36GU3OHGLDS8R,3SA4EMRVKYI00KKCICLEW0FTGRS0PA,3TVSS0C0E5GUMLCYI2SLXPLH0BPWT7,3,4
153,4,object_02,object_07,339.20000004768,8,1,272.19999992847,0.1111111111111111,2,object_09,5,2084,0,5,1,restaurant_4,1,memory-2step-stake-s,649,1959645,0.0-19.0-0.1-0.153,A36GU3OHGLDS8R,3SA4EMRVKYI00KKCICLEW0FTGRS0PA,3TVSS0C0E5GUMLCYI2SLXPLH0BPWT7,8,7
154,2,object_05,object_06,489.29999995232,4,2,322.79999995232,0.0,2,object_09,1,2084,0,5,0,forest_8,1,memory-2step-stake-s,650,1967238,0.0-19.0-0.1-0.154,A36GU3OHGLDS8R,3SA4EMRVKYI00KKCICLEW0FTGRS0PA,3TVSS0C0E5GUMLCYI2SLXPLH0BPWT7,3,4
155,4,object_07,object_02,455.60000002384,7,1,249.89999997616,0.3333333333333333,1,object_03,1,2087,0,3,1,restaurant_4,1,memory-2step-stake-s,651,1975099,0.0-19.0-0.1-0.155,A36GU3OHGLDS8R,3SA4EMRVKYI00KKCICLEW0FTGRS0PA,3TVSS0C0E5GUMLCYI2SLXPLH0BPWT7,7,8
156,3,object_10,object_01,1431.6000000238,6,1,274.20000004768,0.2222222222222222,2,object_09,5,2097,0,4,2,library_1,1,memory-2step-stake-s,652,1982855,0.0-19.0-0.1-0.156,A36GU3OHGLDS8R,3SA4EMRVKYI00KKCICLEW0FTGRS0PA,3TVSS0C0E5GUMLCYI2SLXPLH0BPWT7,6,5
157,4,object_07,object_02,222.80000007153,7,1,560.29999995232,0.1111111111111111,1,object_03,5,2102,0,1,1,restaurant_4,1,memory-2step-stake-s,653,1990785,0.0-19.0-0.1-0.157,A36GU3OHGLDS8R,3SA4EMRVKYI00KKCICLEW0FTGRS0PA,3TVSS0C0E5GUMLCYI2SLXPLH0BPWT7,7,8
158,4,object_07,object_02,374.19999992847,8,2,219.39999997616,0.1111111111111111,2,object_09,5,2107,0,1,1,restaurant_6,1,memory-2step-stake-s,654,1998363,0.0-19.0-0.1-0.158,A36GU3OHGLDS8R,3SA4EMRVKYI00KKCICLEW0FTGRS0PA,3TVSS0C0E5GUMLCYI2SLXPLH0BPWT7,7,8
159,4,object_02,object_07,252.70000004768,8,1,119.60000002384,0.3333333333333333,2,object_09,5,2122,0,1,3,restaurant_8,1,memory-2step-stake-s,655,2006062,0.0-19.0-0.1-0.159,A36GU3OHGLDS8R,3SA4EMRVKYI00KKCICLEW0FTGRS0PA,3TVSS0C0E5GUMLCYI2SLXPLH0BPWT7,8,7
160,3,object_01,object_10,270.60000002384,6,2,239.0,0.1111111111111111,2,object_09,5,2127,0,3,1,library_8,1,memory-2step-stake-s,656,2013666,0.0-19.0-0.1-0.160,A36GU3OHGLDS8R,3SA4EMRVKYI00KKCICLEW0FTGRS0PA,3TVSS0C0E5GUMLCYI2SLXPLH0BPWT7,5,6
161,1,object_08,object_04,263.89999997616,1,1,294.20000004768,0.7777777777777778,1,object_03,1,2134,0,7,2,desert_1,1,memory-2step-stake-s,657,2021958,0.0-19.0-0.1-0.161,A36GU3OHGLDS8R,3SA4EMRVKYI00KKCICLEW0FTGRS0PA,3TVSS0C0E5GUMLCYI2SLXPLH0BPWT7,1,2
162,2,object_06,object_05,310.60000002384,3,2,375.30000007153,0.8888888888888888,1,object_03,1,2142,0,8,2,forest_4,1,memory-2step-stake-s,658,2030436,0.0-19.0-0.1-0.162,A36GU3OHGLDS8R,3SA4EMRVKYI00KKCICLEW0FTGRS0PA,3TVSS0C0E5GUMLCYI2SLXPLH0BPWT7,4,3
163,1,object_08,object_04,275.0,1,1,1128.0,0.8888888888888888,1,object_03,1,2150,0,8,1,desert_6,1,memory-2step-stake-s,659,2039681,0.0-19.0-0.1-0.163,A36GU3OHGLDS8R,3SA4EMRVKYI00KKCICLEW0FTGRS0PA,3TVSS0C0E5GUMLCYI2SLXPLH0BPWT7,1,2
164,2,object_06,object_05,1242.0999999046,4,1,311.89999997616,0.2222222222222222,2,object_09,1,2152,0,9,2,forest_8,1,memory-2step-stake-s,660,2047462,0.0-19.0-0.1-0.164,A36GU3OHGLDS8R,3SA4EMRVKYI00KKCICLEW0FTGRS0PA,3TVSS0C0E5GUMLCYI2SLXPLH0BPWT7,4,3
165,4,object_02,object_07,263.0,7,2,250.89999997616,1.0,1,object_03,5,2197,0,9,2,restaurant_6,1,memory-2step-stake-s,661,2055950,0.0-19.0-0.1-0.165,A36GU3OHGLDS8R,3SA4EMRVKYI00KKCICLEW0FTGRS0PA,3TVSS0C0E5GUMLCYI2SLXPLH0BPWT7,8,7
166,1,object_08,object_04,256.10000002384,2,2,281.70000004768,0.4444444444444444,2,object_09,1,2201,0,8,4,desert_6,1,memory-2step-stake-s,662,2063940,0.0-19.0-0.1-0.166,A36GU3OHGLDS8R,3SA4EMRVKYI00KKCICLEW0FTGRS0PA,3TVSS0C0E5GUMLCYI2SLXPLH0BPWT7,1,2
167,3,object_01,object_10,396.19999992847,5,1,193.20000004768,0.8888888888888888,1,object_03,1,2209,0,8,4,library_3,1,memory-2step-stake-s,663,2072255,0.0-19.0-0.1-0.167,A36GU3OHGLDS8R,3SA4EMRVKYI00KKCICLEW0FTGRS0PA,3TVSS0C0E5GUMLCYI2SLXPLH0BPWT7,5,6
168,1,object_04,object_08,447.0,2,1,229.89999997616,0.4444444444444444,2,object_09,5,2229,0,8,4,desert_6,1,memory-2step-stake-s,664,2080183,0.0-19.0-0.1-0.168,A36GU3OHGLDS8R,3SA4EMRVKYI00KKCICLEW0FTGRS0PA,3TVSS0C0E5GUMLCYI2SLXPLH0BPWT7,2,1
169,4,object_07,object_02,387.79999995232,8,2,268.20000004768,0.4444444444444444,2,object_09,1,2233,0,7,4,restaurant_8,1,memory-2step-stake-s,665,2088174,0.0-19.0-0.1-0.169,A36GU3OHGLDS8R,3SA4EMRVKYI00KKCICLEW0FTGRS0PA,3TVSS0C0E5GUMLCYI2SLXPLH0BPWT7,7,8
170,3,object_10,object_01,129.89999997616,6,1,256.89999997616,0.6666666666666666,2,object_09,5,2263,0,8,6,library_8,1,memory-2step-stake-s,666,2096328,0.0-19.0-0.1-0.170,A36GU3OHGLDS8R,3SA4EMRVKYI00KKCICLEW0FTGRS0PA,3TVSS0C0E5GUMLCYI2SLXPLH0BPWT7,6,5
171,1,object_08,object_04,250.39999997616,2,2,6.3000000715256,0.7777777777777778,2,object_09,1,2270,0,8,7,desert_6,1,memory-2step-stake-s,667,2104341,0.0-19.0-0.1-0.171,A36GU3OHGLDS8R,3SA4EMRVKYI00KKCICLEW0FTGRS0PA,3TVSS0C0E5GUMLCYI2SLXPLH0BPWT7,1,2
172,3,object_01,object_10,270.0,5,1,248.70000004768,0.7777777777777778,1,object_03,5,2305,0,7,9,library_8,1,memory-2step-stake-s,668,2112601,0.0-19.0-0.1-0.172,A36GU3OHGLDS8R,3SA4EMRVKYI00KKCICLEW0FTGRS0PA,3TVSS0C0E5GUMLCYI2SLXPLH0BPWT7,5,6
173,4,object_07,object_02,304.5,8,2,307.79999995232,0.7777777777777778,2,object_09,5,2340,0,6,7,restaurant_4,1,memory-2step-stake-s,669,2120937,0.0-19.0-0.1-0.173,A36GU3OHGLDS8R,3SA4EMRVKYI00KKCICLEW0FTGRS0PA,3TVSS0C0E5GUMLCYI2SLXPLH0BPWT7,7,8
174,1,object_08,object_04,247.20000004768,1,1,290.80000007153,0.4444444444444444,1,object_03,1,2344,0,4,7,desert_6,1,memory-2step-stake-s,670,2128915,0.0-19.0-0.1-0.174,A36GU3OHGLDS8R,3SA4EMRVKYI00KKCICLEW0FTGRS0PA,3TVSS0C0E5GUMLCYI2SLXPLH0BPWT7,1,2
175,2,object_05,object_06,267.69999992847,4,2,277.79999995232,1.0,2,object_09,5,2389,0,8,9,forest_8,1,memory-2step-stake-s,671,2137428,0.0-19.0-0.1-0.175,A36GU3OHGLDS8R,3SA4EMRVKYI00KKCICLEW0FTGRS0PA,3TVSS0C0E5GUMLCYI2SLXPLH0BPWT7,3,4
176,3,object_10,object_01,264.0,6,1,379.80000007153,1.0,2,object_09,5,2434,0,7,9,library_1,1,memory-2step-stake-s,672,2146009,0.0-19.0-0.1-0.176,A36GU3OHGLDS8R,3SA4EMRVKYI00KKCICLEW0FTGRS0PA,3TVSS0C0E5GUMLCYI2SLXPLH0BPWT7,6,5
177,2,object_05,object_06,169.69999992847,4,2,257.20000004768,0.6666666666666666,2,object_09,1,2440,0,6,6,forest_4,1,memory-2step-stake-s,673,2154184,0.0-19.0-0.1-0.177,A36GU3OHGLDS8R,3SA4EMRVKYI00KKCICLEW0FTGRS0PA,3TVSS0C0E5GUMLCYI2SLXPLH0BPWT7,3,4
178,2,object_05,object_06,246.5,3,1,236.5,0.8888888888888888,1,object_03,1,2448,0,8,4,forest_3,1,memory-2step-stake-s,674,2162552,0.0-19.0-0.1-0.178,A36GU3OHGLDS8R,3SA4EMRVKYI00KKCICLEW0FTGRS0PA,3TVSS0C0E5GUMLCYI2SLXPLH0BPWT7,3,4
179,1,object_08,object_04,262.10000002384,1,1,139.20000004768,1.0,1,object_03,1,2457,0,9,2,desert_5,1,memory-2step-stake-s,675,2170918,0.0-19.0-0.1-0.179,A36GU3OHGLDS8R,3SA4EMRVKYI00KKCICLEW0FTGRS0PA,3TVSS0C0E5GUMLCYI2SLXPLH0BPWT7,1,2
180,3,object_10,object_01,297.0,5,2,288.60000002384,0.8888888888888888,1,object_03,5,2497,0,8,0,library_8,1,memory-2step-stake-s,676,2179309,0.0-19.0-0.1-0.180,A36GU3OHGLDS8R,3SA4EMRVKYI00KKCICLEW0FTGRS0PA,3TVSS0C0E5GUMLCYI2SLXPLH0BPWT7,6,5
181,1,object_04,object_08,209.0,2,1,258.29999995232,0.1111111111111111,2,object_09,1,2498,0,7,1,desert_6,1,memory-2step-stake-s,677,2186941,0.0-19.0-0.1-0.181,A36GU3OHGLDS8R,3SA4EMRVKYI00KKCICLEW0FTGRS0PA,3TVSS0C0E5GUMLCYI2SLXPLH0BPWT7,2,1
182,2,object_05,object_06,250.30000007153,3,1,407.79999995232,0.8888888888888888,1,object_03,1,2506,0,8,4,forest_4,1,memory-2step-stake-s,678,2195458,0.0-19.0-0.1-0.182,A36GU3OHGLDS8R,3SA4EMRVKYI00KKCICLEW0FTGRS0PA,3TVSS0C0E5GUMLCYI2SLXPLH0BPWT7,3,4
183,3,object_10,object_01,232.69999992847,5,2,221.80000007153,0.6666666666666666,1,object_03,5,2536,0,6,4,library_8,1,memory-2step-stake-s,679,2203577,0.0-19.0-0.1-0.183,A36GU3OHGLDS8R,3SA4EMRVKYI00KKCICLEW0FTGRS0PA,3TVSS0C0E5GUMLCYI2SLXPLH0BPWT7,6,5
184,4,object_07,object_02,290.39999997616,7,1,924.89999997616,0.6666666666666666,1,object_03,5,2566,0,6,0,restaurant_5,1,memory-2step-stake-s,680,2212392,0.0-19.0-0.1-0.184,A36GU3OHGLDS8R,3SA4EMRVKYI00KKCICLEW0FTGRS0PA,3TVSS0C0E5GUMLCYI2SLXPLH0BPWT7,7,8
185,2,object_05,object_06,281.29999995232,4,2,218.70000004768,0.0,2,object_09,1,2566,0,3,0,forest_4,1,memory-2step-stake-s,681,2219869,0.0-19.0-0.1-0.185,A36GU3OHGLDS8R,3SA4EMRVKYI00KKCICLEW0FTGRS0PA,3TVSS0C0E5GUMLCYI2SLXPLH0BPWT7,3,4
186,1,object_08,object_04,777.69999992847,1,1,255.09999990463,0.5555555555555556,1,object_03,1,2571,0,5,1,desert_3,1,memory-2step-stake-s,682,2227921,0.0-19.0-0.1-0.186,A36GU3OHGLDS8R,3SA4EMRVKYI00KKCICLEW0FTGRS0PA,3TVSS0C0E5GUMLCYI2SLXPLH0BPWT7,1,2
187,2,object_05,object_06,223.20000004768,4,2,293.20000004768,0.3333333333333333,2,object_09,1,2574,0,5,3,forest_7,1,memory-2step-stake-s,683,2235799,0.0-19.0-0.1-0.187,A36GU3OHGLDS8R,3SA4EMRVKYI00KKCICLEW0FTGRS0PA,3TVSS0C0E5GUMLCYI2SLXPLH0BPWT7,3,4
188,1,object_04,object_08,288.30000007153,2,1,734.60000002384,0.4444444444444444,2,object_09,1,2578,0,5,4,desert_6,1,memory-2step-stake-s,684,2244237,0.0-19.0-0.1-0.188,A36GU3OHGLDS8R,3SA4EMRVKYI00KKCICLEW0FTGRS0PA,3TVSS0C0E5GUMLCYI2SLXPLH0BPWT7,2,1
189,2,object_06,object_05,933.09999990463,3,2,224.09999990463,0.4444444444444444,1,object_03,1,2582,0,4,8,forest_7,1,memory-2step-stake-s,685,2252192,0.0-19.0-0.1-0.189,A36GU3OHGLDS8R,3SA4EMRVKYI00KKCICLEW0FTGRS0PA,3TVSS0C0E5GUMLCYI2SLXPLH0BPWT7,4,3
190,2,object_05,object_06,523.10000002384,3,1,215.60000002384,0.6666666666666666,1,object_03,1,2588,0,6,7,forest_4,1,memory-2step-stake-s,686,2260292,0.0-19.0-0.1-0.190,A36GU3OHGLDS8R,3SA4EMRVKYI00KKCICLEW0FTGRS0PA,3TVSS0C0E5GUMLCYI2SLXPLH0BPWT7,3,4
191,3,object_01,object_10,450.80000007153,6,2,573.40000009537,0.6666666666666666,2,object_09,5,2618,0,4,6,library_1,1,memory-2step-stake-s,687,2268735,0.0-19.0-0.1-0.191,A36GU3OHGLDS8R,3SA4EMRVKYI00KKCICLEW0FTGRS0PA,3TVSS0C0E5GUMLCYI2SLXPLH0BPWT7,5,6
192,3,object_10,object_01,325.0,5,2,342.59999990463,0.1111111111111111,1,object_03,5,2623,0,1,6,library_1,1,memory-2step-stake-s,688,2276447,0.0-19.0-0.1-0.192,A36GU3OHGLDS8R,3SA4EMRVKYI00KKCICLEW0FTGRS0PA,3TVSS0C0E5GUMLCYI2SLXPLH0BPWT7,6,5
193,2,object_05,object_06,275.69999992847,3,1,239.59999990463,0.1111111111111111,1,object_03,1,2624,0,1,7,forest_3,1,memory-2step-stake-s,689,2284049,0.0-19.0-0.1-0.193,A36GU3OHGLDS8R,3SA4EMRVKYI00KKCICLEW0FTGRS0PA,3TVSS0C0E5GUMLCYI2SLXPLH0BPWT7,3,4
194,2,object_06,object_05,-1.0,-1,-1,-1.0,0.0,-,0,1,2624,0,2,1,forest_7,1,memory-2step-stake-s,690,2290597,0.0-19.0-0.1-0.194,A36GU3OHGLDS8R,3SA4EMRVKYI00KKCICLEW0FTGRS0PA,3TVSS0C0E5GUMLCYI2SLXPLH0BPWT7,4,3
195,2,object_06,object_05,306.39999997616,3,2,247.89999997616,0.2222222222222222,1,object_03,1,2626,0,2,0,forest_3,1,memory-2step-stake-s,691,2298328,0.0-19.0-0.1-0.195,A36GU3OHGLDS8R,3SA4EMRVKYI00KKCICLEW0FTGRS0PA,3TVSS0C0E5GUMLCYI2SLXPLH0BPWT7,4,3
196,1,object_08,object_04,232.5,1,1,186.5,0.2222222222222222,1,object_03,1,2628,0,2,1,desert_3,1,memory-2step-stake-s,692,2305982,0.0-19.0-0.1-0.196,A36GU3OHGLDS8R,3SA4EMRVKYI00KKCICLEW0FTGRS0PA,3TVSS0C0E5GUMLCYI2SLXPLH0BPWT7,1,2
197,3,object_10,object_01,233.0,5,2,307.90000009537,0.1111111111111111,1,object_03,1,2629,0,1,2,library_3,1,memory-2step-stake-s,693,2313652,0.0-19.0-0.1-0.197,A36GU3OHGLDS8R,3SA4EMRVKYI00KKCICLEW0FTGRS0PA,3TVSS0C0E5GUMLCYI2SLXPLH0BPWT7,6,5
198,3,object_01,object_10,389.10000002384,6,2,372.79999995232,0.2222222222222222,2,object_09,1,2631,0,3,2,library_3,1,memory-2step-stake-s,694,2321500,0.0-19.0-0.1-0.198,A36GU3OHGLDS8R,3SA4EMRVKYI00KKCICLEW0FTGRS0PA,3TVSS0C0E5GUMLCYI2SLXPLH0BPWT7,5,6
199,1,object_04,object_08,-1.0,-1,-1,-1.0,0.0,-,0,1,2631,0,0,4,desert_3,1,memory-2step-stake-s,695,2328037,0.0-19.0-0.1-0.199,A36GU3OHGLDS8R,3SA4EMRVKYI00KKCICLEW0FTGRS0PA,3TVSS0C0E5GUMLCYI2SLXPLH0BPWT7,2,1
200,2,object_06,object_05,685.60000002384,4,1,395.70000004768,0.5555555555555556,2,object_09,5,2656,0,4,5,forest_8,1,memory-2step-stake-s,696,2336274,0.0-19.0-0.1-0.200,A36GU3OHGLDS8R,3SA4EMRVKYI00KKCICLEW0FTGRS0PA,3TVSS0C0E5GUMLCYI2SLXPLH0BPWT7,4,3
201,4,object_02,object_07,278.79999995232,7,2,308.39999997616,0.7777777777777778,1,object_03,5,2691,0,7,3,restaurant_6,1,memory-2step-stake-s,697,2344585,0.0-19.0-0.1-0.201,A36GU3OHGLDS8R,3SA4EMRVKYI00KKCICLEW0FTGRS0PA,3TVSS0C0E5GUMLCYI2SLXPLH0BPWT7,8,7
202,1,object_04,object_08,272.79999995232,1,2,285.29999995232,0.7777777777777778,1,object_03,1,2698,0,7,3,desert_6,1,memory-2step-stake-s,698,2352877,0.0-19.0-0.1-0.202,A36GU3OHGLDS8R,3SA4EMRVKYI00KKCICLEW0FTGRS0PA,3TVSS0C0E5GUMLCYI2SLXPLH0BPWT7,2,1
203,2,object_05,object_06,-1.0,-1,-1,-1.0,0.0,-,0,5,2698,0,3,3,forest_3,1,memory-2step-stake-s,699,2359414,0.0-19.0-0.1-0.203,A36GU3OHGLDS8R,3SA4EMRVKYI00KKCICLEW0FTGRS0PA,3TVSS0C0E5GUMLCYI2SLXPLH0BPWT7,3,4
204,1,object_04,object_08,193.79999995232,1,2,226.0,0.5555555555555556,1,object_03,1,2703,0,5,3,desert_5,1,memory-2step-stake-s,700,2367453,0.0-19.0-0.1-0.204,A36GU3OHGLDS8R,3SA4EMRVKYI00KKCICLEW0FTGRS0PA,3TVSS0C0E5GUMLCYI2SLXPLH0BPWT7,2,1
205,4,object_02,object_07,440.10000002384,7,2,278.0,0.6666666666666666,1,object_03,5,2733,0,6,1,restaurant_4,1,memory-2step-stake-s,701,2375614,0.0-19.0-0.1-0.205,A36GU3OHGLDS8R,3SA4EMRVKYI00KKCICLEW0FTGRS0PA,3TVSS0C0E5GUMLCYI2SLXPLH0BPWT7,8,7
206,3,object_01,object_10,773.29999995232,6,2,-1.0,0.0,2,object_09,5,2733,0,6,2,library_2,1,memory-2step-stake-s,702,2384164,0.0-19.0-0.1-0.206,A36GU3OHGLDS8R,3SA4EMRVKYI00KKCICLEW0FTGRS0PA,3TVSS0C0E5GUMLCYI2SLXPLH0BPWT7,5,6
207,2,object_05,object_06,238.5,4,2,351.5,0.4444444444444444,2,object_09,5,2753,0,6,4,forest_8,1,memory-2step-stake-s,703,2392197,0.0-19.0-0.1-0.207,A36GU3OHGLDS8R,3SA4EMRVKYI00KKCICLEW0FTGRS0PA,3TVSS0C0E5GUMLCYI2SLXPLH0BPWT7,3,4
208,1,object_04,object_08,85.199999928474,1,2,627.40000009537,0.7777777777777778,1,object_03,1,2760,0,7,7,desert_3,1,memory-2step-stake-s,704,2400843,0.0-19.0-0.1-0.208,A36GU3OHGLDS8R,3SA4EMRVKYI00KKCICLEW0FTGRS0PA,3TVSS0C0E5GUMLCYI2SLXPLH0BPWT7,2,1
209,2,object_05,object_06,236.89999997616,4,2,303.20000004768,0.6666666666666666,2,object_09,1,2766,0,7,6,forest_4,1,memory-2step-stake-s,705,2409026,0.0-19.0-0.1-0.209,A36GU3OHGLDS8R,3SA4EMRVKYI00KKCICLEW0FTGRS0PA,3TVSS0C0E5GUMLCYI2SLXPLH0BPWT7,3,4
210,2,object_06,object_05,-1.0,-1,-1,-1.0,0.0,-,0,1,2766,0,6,8,forest_7,1,memory-2step-stake-s,706,2415577,0.0-19.0-0.1-0.210,A36GU3OHGLDS8R,3SA4EMRVKYI00KKCICLEW0FTGRS0PA,3TVSS0C0E5GUMLCYI2SLXPLH0BPWT7,4,3
211,2,object_05,object_06,296.5,4,2,224.30000007153,0.8888888888888888,2,object_09,1,2774,0,7,8,forest_8,1,memory-2step-stake-s,707,2423901,0.0-19.0-0.1-0.211,A36GU3OHGLDS8R,3SA4EMRVKYI00KKCICLEW0FTGRS0PA,3TVSS0C0E5GUMLCYI2SLXPLH0BPWT7,3,4
212,2,object_05,object_06,291.79999995232,3,1,283.89999997616,0.8888888888888888,1,object_03,1,2782,0,8,7,forest_3,1,memory-2step-stake-s,708,2432305,0.0-19.0-0.1-0.212,A36GU3OHGLDS8R,3SA4EMRVKYI00KKCICLEW0FTGRS0PA,3TVSS0C0E5GUMLCYI2SLXPLH0BPWT7,3,4
213,1,object_04,object_08,60.399999976158,1,2,268.0,0.5555555555555556,1,object_03,1,2787,0,5,5,desert_6,1,memory-2step-stake-s,709,2440368,0.0-19.0-0.1-0.213,A36GU3OHGLDS8R,3SA4EMRVKYI00KKCICLEW0FTGRS0PA,3TVSS0C0E5GUMLCYI2SLXPLH0BPWT7,2,1
214,4,object_07,object_02,273.70000004768,7,1,248.60000002384,0.1111111111111111,1,object_03,5,2792,0,1,3,restaurant_8,1,memory-2step-stake-s,710,2447968,0.0-19.0-0.1-0.214,A36GU3OHGLDS8R,3SA4EMRVKYI00KKCICLEW0FTGRS0PA,3TVSS0C0E5GUMLCYI2SLXPLH0BPWT7,7,8
215,1,object_08,object_04,676.60000002384,2,2,1097.7000000477,0.3333333333333333,2,object_09,1,2795,0,3,3,desert_1,1,memory-2step-stake-s,711,2456648,0.0-19.0-0.1-0.215,A36GU3OHGLDS8R,3SA4EMRVKYI00KKCICLEW0FTGRS0PA,3TVSS0C0E5GUMLCYI2SLXPLH0BPWT7,1,2
216,3,object_01,object_10,356.10000002384,6,2,485.5,0.1111111111111111,2,object_09,5,2800,0,7,1,library_8,1,memory-2step-stake-s,712,2464510,0.0-19.0-0.1-0.216,A36GU3OHGLDS8R,3SA4EMRVKYI00KKCICLEW0FTGRS0PA,3TVSS0C0E5GUMLCYI2SLXPLH0BPWT7,5,6
217,2,object_05,object_06,182.60000002384,4,2,7.6000000238419,0.0,2,object_09,1,2800,0,7,0,forest_7,1,memory-2step-stake-s,713,2471783,0.0-19.0-0.1-0.217,A36GU3OHGLDS8R,3SA4EMRVKYI00KKCICLEW0FTGRS0PA,3TVSS0C0E5GUMLCYI2SLXPLH0BPWT7,3,4
218,1,object_08,object_04,1037.7000000477,2,2,-1.0,0.0,2,object_09,1,2800,0,8,1,desert_3,1,memory-2step-stake-s,714,2480332,0.0-19.0-0.1-0.218,A36GU3OHGLDS8R,3SA4EMRVKYI00KKCICLEW0FTGRS0PA,3TVSS0C0E5GUMLCYI2SLXPLH0BPWT7,1,2
219,2,object_05,object_06,492.89999997616,4,2,-1.0,0.0,2,object_09,1,2800,0,9,2,forest_3,1,memory-2step-stake-s,715,2488901,0.0-19.0-0.1-0.219,A36GU3OHGLDS8R,3SA4EMRVKYI00KKCICLEW0FTGRS0PA,3TVSS0C0E5GUMLCYI2SLXPLH0BPWT7,3,4
220,2,object_05,object_06,129.20000004768,4,2,469.59999990463,0.1111111111111111,2,object_09,1,2801,0,9,1,forest_8,1,memory-2step-stake-s,716,2496749,0.0-19.0-0.1-0.220,A36GU3OHGLDS8R,3SA4EMRVKYI00KKCICLEW0FTGRS0PA,3TVSS0C0E5GUMLCYI2SLXPLH0BPWT7,3,4
221,4,object_07,object_02,114.0,7,1,851.19999992847,0.7777777777777778,1,object_03,1,2808,0,7,1,restaurant_4,1,memory-2step-stake-s,717,2505616,0.0-19.0-0.1-0.221,A36GU3OHGLDS8R,3SA4EMRVKYI00KKCICLEW0FTGRS0PA,3TVSS0C0E5GUMLCYI2SLXPLH0BPWT7,7,8
222,1,object_04,object_08,106.5,2,1,237.39999997616,0.3333333333333333,2,object_09,1,2811,0,5,3,desert_1,1,memory-2step-stake-s,718,2513432,0.0-19.0-0.1-0.222,A36GU3OHGLDS8R,3SA4EMRVKYI00KKCICLEW0FTGRS0PA,3TVSS0C0E5GUMLCYI2SLXPLH0BPWT7,2,1
223,1,object_08,object_04,258.5,1,1,238.70000004768,0.4444444444444444,1,object_03,5,2831,0,4,2,desert_1,1,memory-2step-stake-s,719,2521366,0.0-19.0-0.1-0.223,A36GU3OHGLDS8R,3SA4EMRVKYI00KKCICLEW0FTGRS0PA,3TVSS0C0E5GUMLCYI2SLXPLH0BPWT7,1,2
224,3,object_10,object_01,1363.6999999285,6,1,680.89999997616,0.1111111111111111,2,object_09,5,2836,0,6,1,library_1,1,memory-2step-stake-s,720,2529406,0.0-19.0-0.1-0.224,A36GU3OHGLDS8R,3SA4EMRVKYI00KKCICLEW0FTGRS0PA,3TVSS0C0E5GUMLCYI2SLXPLH0BPWT7,6,5
225,3,object_01,object_10,306.59999990463,6,2,269.69999992847,0.1111111111111111,2,object_09,5,2841,0,9,1,library_3,1,memory-2step-stake-s,721,2537057,0.0-19.0-0.1-0.225,A36GU3OHGLDS8R,3SA4EMRVKYI00KKCICLEW0FTGRS0PA,3TVSS0C0E5GUMLCYI2SLXPLH0BPWT7,5,6
226,1,object_08,object_04,224.70000004768,1,1,246.39999997616,0.5555555555555556,1,object_03,1,2846,0,5,1,desert_1,1,memory-2step-stake-s,722,2545125,0.0-19.0-0.1-0.226,A36GU3OHGLDS8R,3SA4EMRVKYI00KKCICLEW0FTGRS0PA,3TVSS0C0E5GUMLCYI2SLXPLH0BPWT7,1,2
227,3,object_01,object_10,527.30000007153,6,2,461.5,0.4444444444444444,2,object_09,5,2866,0,2,4,library_2,1,memory-2step-stake-s,723,2553277,0.0-19.0-0.1-0.227,A36GU3OHGLDS8R,3SA4EMRVKYI00KKCICLEW0FTGRS0PA,3TVSS0C0E5GUMLCYI2SLXPLH0BPWT7,5,6
228,4,object_02,object_07,251.80000007153,8,1,297.0,0.4444444444444444,2,object_09,5,2886,0,2,4,restaurant_6,1,memory-2step-stake-s,724,2561267,0.0-19.0-0.1-0.228,A36GU3OHGLDS8R,3SA4EMRVKYI00KKCICLEW0FTGRS0PA,3TVSS0C0E5GUMLCYI2SLXPLH0BPWT7,8,7
229,1,object_08,object_04,305.29999995232,2,2,184.59999990463,0.4444444444444444,2,object_09,1,2890,0,0,4,desert_3,1,memory-2step-stake-s,725,2569146,0.0-19.0-0.1-0.229,A36GU3OHGLDS8R,3SA4EMRVKYI00KKCICLEW0FTGRS0PA,3TVSS0C0E5GUMLCYI2SLXPLH0BPWT7,1,2
230,2,object_06,object_05,79.799999952316,4,1,237.80000007153,0.2222222222222222,2,object_09,1,2892,0,0,2,forest_7,1,memory-2step-stake-s,726,2576884,0.0-19.0-0.1-0.230,A36GU3OHGLDS8R,3SA4EMRVKYI00KKCICLEW0FTGRS0PA,3TVSS0C0E5GUMLCYI2SLXPLH0BPWT7,4,3
231,1,object_08,object_04,261.5,2,2,290.89999997616,0.0,2,object_09,1,2892,0,2,0,desert_1,1,memory-2step-stake-s,727,2584441,0.0-19.0-0.1-0.231,A36GU3OHGLDS8R,3SA4EMRVKYI00KKCICLEW0FTGRS0PA,3TVSS0C0E5GUMLCYI2SLXPLH0BPWT7,1,2
232,1,object_08,object_04,176.39999997616,1,1,200.29999995232,0.0,1,object_03,5,2892,0,0,2,desert_1,1,memory-2step-stake-s,728,2591898,0.0-19.0-0.1-0.232,A36GU3OHGLDS8R,3SA4EMRVKYI00KKCICLEW0FTGRS0PA,3TVSS0C0E5GUMLCYI2SLXPLH0BPWT7,1,2
233,4,object_02,object_07,263.19999992847,7,2,227.19999992847,0.2222222222222222,1,object_03,5,2902,0,2,5,restaurant_5,1,memory-2step-stake-s,729,2599597,0.0-19.0-0.1-0.233,A36GU3OHGLDS8R,3SA4EMRVKYI00KKCICLEW0FTGRS0PA,3TVSS0C0E5GUMLCYI2SLXPLH0BPWT7,8,7
234,3,object_01,object_10,280.79999995232,5,1,224.70000004768,0.3333333333333333,1,object_03,5,2917,0,3,5,library_3,1,memory-2step-stake-s,730,2607398,0.0-19.0-0.1-0.234,A36GU3OHGLDS8R,3SA4EMRVKYI00KKCICLEW0FTGRS0PA,3TVSS0C0E5GUMLCYI2SLXPLH0BPWT7,5,6
235,3,object_01,object_10,165.10000002384,6,2,385.39999997616,0.4444444444444444,2,object_09,5,2937,0,4,4,library_3,1,memory-2step-stake-s,731,2615475,0.0-19.0-0.1-0.235,A36GU3OHGLDS8R,3SA4EMRVKYI00KKCICLEW0FTGRS0PA,3TVSS0C0E5GUMLCYI2SLXPLH0BPWT7,5,6
236,1,object_04,object_08,145.20000004768,1,2,228.89999997616,1.0,1,object_03,1,2946,0,9,2,desert_1,1,memory-2step-stake-s,732,2623955,0.0-19.0-0.1-0.236,A36GU3OHGLDS8R,3SA4EMRVKYI00KKCICLEW0FTGRS0PA,3TVSS0C0E5GUMLCYI2SLXPLH0BPWT7,2,1
237,3,object_10,object_01,269.39999997616,6,1,294.89999997616,0.4444444444444444,2,object_09,1,2950,0,7,4,library_2,1,memory-2step-stake-s,733,2631913,0.0-19.0-0.1-0.237,A36GU3OHGLDS8R,3SA4EMRVKYI00KKCICLEW0FTGRS0PA,3TVSS0C0E5GUMLCYI2SLXPLH0BPWT7,6,5
238,1,object_04,object_08,141.10000002384,1,2,269.79999995232,0.6666666666666666,1,object_03,1,2956,0,6,6,desert_1,1,memory-2step-stake-s,734,2640073,0.0-19.0-0.1-0.238,A36GU3OHGLDS8R,3SA4EMRVKYI00KKCICLEW0FTGRS0PA,3TVSS0C0E5GUMLCYI2SLXPLH0BPWT7,2,1
239,3,object_10,object_01,220.40000009537,6,1,288.10000002384,0.7777777777777778,2,object_09,5,2991,0,8,7,library_2,1,memory-2step-stake-s,735,2648378,0.0-19.0-0.1-0.239,A36GU3OHGLDS8R,3SA4EMRVKYI00KKCICLEW0FTGRS0PA,3TVSS0C0E5GUMLCYI2SLXPLH0BPWT7,6,5
240,2,object_05,object_06,237.70000004768,4,2,269.5,0.7777777777777778,2,object_09,1,2998,0,7,7,forest_7,1,memory-2step-stake-s,736,2656655,0.0-19.0-0.1-0.240,A36GU3OHGLDS8R,3SA4EMRVKYI00KKCICLEW0FTGRS0PA,3TVSS0C0E5GUMLCYI2SLXPLH0BPWT7,3,4
241,4,object_07,object_02,248.30000007153,7,1,128.80000007153,0.2222222222222222,1,object_03,5,3008,0,2,7,restaurant_5,1,memory-2step-stake-s,737,2664267,0.0-19.0-0.1-0.241,A36GU3OHGLDS8R,3SA4EMRVKYI00KKCICLEW0FTGRS0PA,3TVSS0C0E5GUMLCYI2SLXPLH0BPWT7,7,8
242,1,object_08,object_04,359.39999997616,2,2,223.69999992847,0.6666666666666666,2,object_09,5,3038,0,1,6,desert_6,1,memory-2step-stake-s,738,2672395,0.0-19.0-0.1-0.242,A36GU3OHGLDS8R,3SA4EMRVKYI00KKCICLEW0FTGRS0PA,3TVSS0C0E5GUMLCYI2SLXPLH0BPWT7,1,2
243,4,object_02,object_07,320.20000004768,8,1,339.29999995232,0.7777777777777778,2,object_09,5,3073,0,5,7,restaurant_8,1,memory-2step-stake-s,739,2680718,0.0-19.0-0.1-0.243,A36GU3OHGLDS8R,3SA4EMRVKYI00KKCICLEW0FTGRS0PA,3TVSS0C0E5GUMLCYI2SLXPLH0BPWT7,8,7
244,4,object_02,object_07,247.89999997616,8,1,243.0,0.5555555555555556,2,object_09,5,3098,0,6,5,restaurant_8,1,memory-2step-stake-s,740,2688724,0.0-19.0-0.1-0.244,A36GU3OHGLDS8R,3SA4EMRVKYI00KKCICLEW0FTGRS0PA,3TVSS0C0E5GUMLCYI2SLXPLH0BPWT7,8,7
245,3,object_10,object_01,255.89999997616,5,2,222.19999992847,0.6666666666666666,1,object_03,5,3128,0,6,8,library_2,1,memory-2step-stake-s,741,2696864,0.0-19.0-0.1-0.245,A36GU3OHGLDS8R,3SA4EMRVKYI00KKCICLEW0FTGRS0PA,3TVSS0C0E5GUMLCYI2SLXPLH0BPWT7,6,5
246,2,object_05,object_06,284.29999995232,3,1,331.39999997616,0.5555555555555556,1,object_03,1,3133,0,5,7,forest_7,1,memory-2step-stake-s,742,2704969,0.0-19.0-0.1-0.246,A36GU3OHGLDS8R,3SA4EMRVKYI00KKCICLEW0FTGRS0PA,3TVSS0C0E5GUMLCYI2SLXPLH0BPWT7,3,4
247,1,object_04,object_08,189.59999990463,2,1,178.29999995232,1.0,2,object_09,1,3142,0,3,9,desert_1,1,memory-2step-stake-s,743,2713369,0.0-19.0-0.1-0.247,A36GU3OHGLDS8R,3SA4EMRVKYI00KKCICLEW0FTGRS0PA,3TVSS0C0E5GUMLCYI2SLXPLH0BPWT7,2,1
248,2,object_05,object_06,269.29999995232,4,2,264.60000002384,0.7777777777777778,2,object_09,1,3149,0,2,7,forest_7,1,memory-2step-stake-s,744,2721621,0.0-19.0-0.1-0.248,A36GU3OHGLDS8R,3SA4EMRVKYI00KKCICLEW0FTGRS0PA,3TVSS0C0E5GUMLCYI2SLXPLH0BPWT7,3,4
249,2,object_05,object_06,256.60000002384,3,1,800.40000009537,0.1111111111111111,1,object_03,1,3150,0,1,8,forest_7,1,memory-2step-stake-s,745,2729810,0.0-19.0-0.1-0.249,A36GU3OHGLDS8R,3SA4EMRVKYI00KKCICLEW0FTGRS0PA,3TVSS0C0E5GUMLCYI2SLXPLH0BPWT7,3,4
250,1,object_08,object_04,1033.9000000954,1,1,953.5,0.4444444444444444,1,object_03,1,3154,0,4,8,desert_5,1,memory-2step-stake-s,746,2738461,0.0-19.0-0.1-0.250,A36GU3OHGLDS8R,3SA4EMRVKYI00KKCICLEW0FTGRS0PA,3TVSS0C0E5GUMLCYI2SLXPLH0BPWT7,1,2
251,1,object_04,object_08,246.70000004768,1,2,215.69999992847,0.5555555555555556,1,object_03,5,3179,0,5,6,desert_5,1,memory-2step-stake-s,747,2746491,0.0-19.0-0.1-0.251,A36GU3OHGLDS8R,3SA4EMRVKYI00KKCICLEW0FTGRS0PA,3TVSS0C0E5GUMLCYI2SLXPLH0BPWT7,2,1
252,1,object_08,object_04,13.399999976158,1,1,285.39999997616,0.3333333333333333,1,object_03,1,3182,0,3,3,desert_3,1,memory-2step-stake-s,748,2754355,0.0-19.0-0.1-0.252,A36GU3OHGLDS8R,3SA4EMRVKYI00KKCICLEW0FTGRS0PA,3TVSS0C0E5GUMLCYI2SLXPLH0BPWT7,1,2
253,2,object_06,object_05,213.70000004768,3,2,220.80000007153,0.3333333333333333,1,object_03,1,3185,0,3,2,forest_4,1,memory-2step-stake-s,749,2762149,0.0-19.0-0.1-0.253,A36GU3OHGLDS8R,3SA4EMRVKYI00KKCICLEW0FTGRS0PA,3TVSS0C0E5GUMLCYI2SLXPLH0BPWT7,4,3
254,3,object_01,object_10,136.39999997616,6,2,285.09999990463,0.1111111111111111,2,object_09,5,3190,0,3,1,library_1,1,memory-2step-stake-s,750,2769784,0.0-19.0-0.1-0.254,A36GU3OHGLDS8R,3SA4EMRVKYI00KKCICLEW0FTGRS0PA,3TVSS0C0E5GUMLCYI2SLXPLH0BPWT7,5,6
255,3,object_01,object_10,112.29999995232,5,1,185.29999995232,0.4444444444444444,1,object_03,5,3210,0,4,1,library_1,1,memory-2step-stake-s,751,2777663,0.0-19.0-0.1-0.255,A36GU3OHGLDS8R,3SA4EMRVKYI00KKCICLEW0FTGRS0PA,3TVSS0C0E5GUMLCYI2SLXPLH0BPWT7,5,6
