,state1,stim_left,stim_right,rt_1,choice1,response1,rt_2,points,state2,stim_state2,stake,score,practice,rews1,rews2,background,high_arm,trial_type,trial_index,time_elapsed,internal_node_id,subid,hitid,assignmentid,stim_left_num,stim_right_num
0,3,object_04,object_02,477.69999999925,5,1,-1.0,0.0,1,object_09,5,0,0,1,7,library_7,1,memory-2step-stake-s,493,786482,0.0-19.0-0.0-0.0,A2G7N0X0PNX0EE,3DW3BNF1HKYVNTMBZS7SV7ATLD58VQ,37C0GNLMHJJPBH1V5UF2UR4I9N96DY,5,6
1,2,object_05,object_10,663.80000000075,3,2,-1.0,0.0,1,object_09,1,0,0,0,9,forest_1,1,memory-2step-stake-s,494,795036,0.0-19.0-0.0-0.1,A2G7N0X0PNX0EE,3DW3BNF1HKYVNTMBZS7SV7ATLD58VQ,37C0GNLMHJJPBH1V5UF2UR4I9N96DY,4,3
2,1,object_03,object_07,686.5,1,2,462.30000000075,0.2222222222222222,1,object_09,1,2,0,2,9,desert_8,1,memory-2step-stake-s,495,802976,0.0-19.0-0.0-0.2,A2G7N0X0PNX0EE,3DW3BNF1HKYVNTMBZS7SV7ATLD58VQ,37C0GNLMHJJPBH1V5UF2UR4I9N96DY,2,1
3,4,object_06,object_01,504.30000000075,7,1,424.09999999963,0.2222222222222222,1,object_09,1,4,0,2,8,restaurant_4,1,memory-2step-stake-s,496,810897,0.0-19.0-0.0-0.3,A2G7N0X0PNX0EE,3DW3BNF1HKYVNTMBZS7SV7ATLD58VQ,37C0GNLMHJJPBH1V5UF2UR4I9N96DY,7,8
4,2,object_05,object_10,422.0,3,2,403.09999999963,0.3333333333333333,1,object_09,1,7,0,3,8,forest_2,1,memory-2step-stake-s,497,818942,0.0-19.0-0.0-0.4,A2G7N0X0PNX0EE,3DW3BNF1HKYVNTMBZS7SV7ATLD58VQ,37C0GNLMHJJPBH1V5UF2UR4I9N96DY,4,3
5,1,object_07,object_03,516.10000000149,1,1,360.69999999925,0.2222222222222222,1,object_09,5,17,0,2,9,desert_1,1,memory-2step-stake-s,498,826836,0.0-19.0-0.0-0.5,A2G7N0X0PNX0EE,3DW3BNF1HKYVNTMBZS7SV7ATLD58VQ,37C0GNLMHJJPBH1V5UF2UR4I9N96DY,1,2
6,4,object_06,object_01,654.30000000075,8,2,433.09999999963,1.0,2,object_08,5,62,0,1,9,restaurant_4,1,memory-2step-stake-s,499,835519,0.0-19.0-0.0-0.6,A2G7N0X0PNX0EE,3DW3BNF1HKYVNTMBZS7SV7ATLD58VQ,37C0GNLMHJJPBH1V5UF2UR4I9N96DY,7,8
7,1,object_07,object_03,760.09999999963,2,2,320.39999999851,1.0,2,object_08,5,107,0,2,9,desert_6,1,memory-2step-stake-s,500,844126,0.0-19.0-0.0-0.7,A2G7N0X0PNX0EE,3DW3BNF1HKYVNTMBZS7SV7ATLD58VQ,37C0GNLMHJJPBH1V5UF2UR4I9N96DY,1,2
8,3,object_04,object_02,538.59999999963,5,1,530.0,0.0,1,object_09,5,107,0,0,9,library_3,1,memory-2step-stake-s,501,851939,0.0-19.0-0.0-0.8,A2G7N0X0PNX0EE,3DW3BNF1HKYVNTMBZS7SV7ATLD58VQ,37C0GNLMHJJPBH1V5UF2UR4I9N96DY,5,6
9,2,object_05,object_10,600.80000000075,3,2,253.40000000037,0.1111111111111111,1,object_09,1,108,0,1,9,forest_4,1,memory-2step-stake-s,502,859587,0.0-19.0-0.0-0.9,A2G7N0X0PNX0EE,3DW3BNF1HKYVNTMBZS7SV7ATLD58VQ,37C0GNLMHJJPBH1V5UF2UR4I9N96DY,4,3
10,4,object_06,object_01,678.69999999925,8,2,400.59999999963,0.5555555555555556,2,object_08,5,133,0,1,5,restaurant_4,1,memory-2step-stake-s,503,867847,0.0-19.0-0.0-0.10,A2G7N0X0PNX0EE,3DW3BNF1HKYVNTMBZS7SV7ATLD58VQ,37C0GNLMHJJPBH1V5UF2UR4I9N96DY,7,8
11,3,object_02,object_04,844.20000000112,6,1,445.5,0.4444444444444444,2,object_08,5,153,0,2,4,library_7,1,memory-2step-stake-s,504,876048,0.0-19.0-0.0-0.11,A2G7N0X0PNX0EE,3DW3BNF1HKYVNTMBZS7SV7ATLD58VQ,37C0GNLMHJJPBH1V5UF2UR4I9N96DY,6,5
12,2,object_05,object_10,984.09999999963,4,1,589.70000000112,0.3333333333333333,2,object_08,1,156,0,6,3,forest_4,1,memory-2step-stake-s,505,884242,0.0-19.0-0.0-0.12,A2G7N0X0PNX0EE,3DW3BNF1HKYVNTMBZS7SV7ATLD58VQ,37C0GNLMHJJPBH1V5UF2UR4I9N96DY,4,3
13,3,object_04,object_02,637.29999999888,6,2,733.70000000112,0.2222222222222222,2,object_08,5,166,0,9,2,library_3,1,memory-2step-stake-s,506,892489,0.0-19.0-0.0-0.13,A2G7N0X0PNX0EE,3DW3BNF1HKYVNTMBZS7SV7ATLD58VQ,37C0GNLMHJJPBH1V5UF2UR4I9N96DY,5,6
14,2,object_05,object_10,777.90000000037,4,1,784.70000000112,0.3333333333333333,2,object_08,1,169,0,6,3,forest_7,1,memory-2step-stake-s,507,900924,0.0-19.0-0.0-0.14,A2G7N0X0PNX0EE,3DW3BNF1HKYVNTMBZS7SV7ATLD58VQ,37C0GNLMHJJPBH1V5UF2UR4I9N96DY,4,3
15,3,object_02,object_04,812.80000000075,5,2,390.40000000037,0.8888888888888888,1,object_09,1,177,0,8,5,library_7,1,memory-2step-stake-s,508,909513,0.0-19.0-0.0-0.15,A2G7N0X0PNX0EE,3DW3BNF1HKYVNTMBZS7SV7ATLD58VQ,37C0GNLMHJJPBH1V5UF2UR4I9N96DY,6,5
16,4,object_06,object_01,685.40000000037,7,1,419.69999999925,0.8888888888888888,1,object_09,5,217,0,8,6,restaurant_7,1,memory-2step-stake-s,509,918110,0.0-19.0-0.0-0.16,A2G7N0X0PNX0EE,3DW3BNF1HKYVNTMBZS7SV7ATLD58VQ,37C0GNLMHJJPBH1V5UF2UR4I9N96DY,7,8
17,4,object_01,object_06,867.60000000149,7,2,570.30000000075,0.7777777777777778,1,object_09,5,252,0,7,6,restaurant_1,1,memory-2step-stake-s,510,926750,0.0-19.0-0.0-0.17,A2G7N0X0PNX0EE,3DW3BNF1HKYVNTMBZS7SV7ATLD58VQ,37C0GNLMHJJPBH1V5UF2UR4I9N96DY,8,7
18,2,object_10,object_05,1122.9000000004,3,1,754.39999999851,0.7777777777777778,1,object_09,1,259,0,7,3,forest_2,1,memory-2step-stake-s,511,935523,0.0-19.0-0.0-0.18,A2G7N0X0PNX0EE,3DW3BNF1HKYVNTMBZS7SV7ATLD58VQ,37C0GNLMHJJPBH1V5UF2UR4I9N96DY,3,4
19,1,object_03,object_07,1031.0999999996,1,2,47.5,1.0,1,object_09,1,268,0,9,4,desert_8,1,memory-2step-stake-s,512,943804,0.0-19.0-0.0-0.19,A2G7N0X0PNX0EE,3DW3BNF1HKYVNTMBZS7SV7ATLD58VQ,37C0GNLMHJJPBH1V5UF2UR4I9N96DY,2,1
20,3,object_02,object_04,684.10000000149,6,1,44.699999999255,0.3333333333333333,2,object_08,5,283,0,8,3,library_4,1,memory-2step-stake-s,513,951431,0.0-19.0-0.0-0.20,A2G7N0X0PNX0EE,3DW3BNF1HKYVNTMBZS7SV7ATLD58VQ,37C0GNLMHJJPBH1V5UF2UR4I9N96DY,6,5
21,1,object_07,object_03,1414.0999999996,2,2,444.40000000037,0.3333333333333333,2,object_08,1,286,0,8,3,desert_8,1,memory-2step-stake-s,514,959461,0.0-19.0-0.0-0.21,A2G7N0X0PNX0EE,3DW3BNF1HKYVNTMBZS7SV7ATLD58VQ,37C0GNLMHJJPBH1V5UF2UR4I9N96DY,1,2
22,2,object_10,object_05,792.30000000075,4,2,494.0,0.4444444444444444,2,object_08,1,290,0,8,4,forest_7,1,memory-2step-stake-s,515,967689,0.0-19.0-0.0-0.22,A2G7N0X0PNX0EE,3DW3BNF1HKYVNTMBZS7SV7ATLD58VQ,37C0GNLMHJJPBH1V5UF2UR4I9N96DY,3,4
23,1,object_03,object_07,730.59999999963,2,1,99.5,0.3333333333333333,2,object_08,1,293,0,8,3,desert_1,1,memory-2step-stake-s,516,975374,0.0-19.0-0.0-0.23,A2G7N0X0PNX0EE,3DW3BNF1HKYVNTMBZS7SV7ATLD58VQ,37C0GNLMHJJPBH1V5UF2UR4I9N96DY,2,1
24,4,object_06,object_01,541.0,8,2,147.90000000037,0.3333333333333333,2,object_08,5,308,0,7,3,restaurant_7,1,memory-2step-stake-s,517,983121,0.0-19.0-0.0-0.24,A2G7N0X0PNX0EE,3DW3BNF1HKYVNTMBZS7SV7ATLD58VQ,37C0GNLMHJJPBH1V5UF2UR4I9N96DY,7,8
25,4,object_06,object_01,650.10000000149,7,1,509.29999999888,0.7777777777777778,1,object_09,5,343,0,7,1,restaurant_1,1,memory-2step-stake-s,518,991686,0.0-19.0-0.0-0.25,A2G7N0X0PNX0EE,3DW3BNF1HKYVNTMBZS7SV7ATLD58VQ,37C0GNLMHJJPBH1V5UF2UR4I9N96DY,7,8
26,4,object_06,object_01,1252.0999999996,7,1,779.0,0.7777777777777778,1,object_09,1,350,0,7,3,restaurant_2,1,memory-2step-stake-s,519,1000464,0.0-19.0-0.0-0.26,A2G7N0X0PNX0EE,3DW3BNF1HKYVNTMBZS7SV7ATLD58VQ,37C0GNLMHJJPBH1V5UF2UR4I9N96DY,7,8
27,4,object_06,object_01,659.10000000149,7,1,683.69999999925,0.8888888888888888,1,object_09,5,390,0,8,4,restaurant_2,1,memory-2step-stake-s,520,1009303,0.0-19.0-0.0-0.27,A2G7N0X0PNX0EE,3DW3BNF1HKYVNTMBZS7SV7ATLD58VQ,37C0GNLMHJJPBH1V5UF2UR4I9N96DY,7,8
28,1,object_03,object_07,1267.3999999985,1,2,183.5,0.7777777777777778,1,object_09,1,397,0,7,2,desert_1,1,memory-2step-stake-s,521,1017561,0.0-19.0-0.0-0.28,A2G7N0X0PNX0EE,3DW3BNF1HKYVNTMBZS7SV7ATLD58VQ,37C0GNLMHJJPBH1V5UF2UR4I9N96DY,2,1
29,4,object_06,object_01,657.60000000149,7,1,217.10000000149,0.3333333333333333,1,object_09,5,412,0,3,4,restaurant_2,1,memory-2step-stake-s,522,1025405,0.0-19.0-0.0-0.29,A2G7N0X0PNX0EE,3DW3BNF1HKYVNTMBZS7SV7ATLD58VQ,37C0GNLMHJJPBH1V5UF2UR4I9N96DY,7,8
30,1,object_07,object_03,503.40000000037,2,2,378.40000000037,0.4444444444444444,2,object_08,1,416,0,2,4,desert_6,1,memory-2step-stake-s,523,1033505,0.0-19.0-0.0-0.30,A2G7N0X0PNX0EE,3DW3BNF1HKYVNTMBZS7SV7ATLD58VQ,37C0GNLMHJJPBH1V5UF2UR4I9N96DY,1,2
31,2,object_05,object_10,962.09999999963,3,2,393.70000000112,0.1111111111111111,1,object_09,1,417,0,1,2,forest_4,1,memory-2step-stake-s,524,1041282,0.0-19.0-0.0-0.31,A2G7N0X0PNX0EE,3DW3BNF1HKYVNTMBZS7SV7ATLD58VQ,37C0GNLMHJJPBH1V5UF2UR4I9N96DY,4,3
32,1,object_03,object_07,610.19999999925,2,1,408.79999999888,0.1111111111111111,2,object_08,1,418,0,3,1,desert_6,1,memory-2step-stake-s,525,1049049,0.0-19.0-0.0-0.32,A2G7N0X0PNX0EE,3DW3BNF1HKYVNTMBZS7SV7ATLD58VQ,37C0GNLMHJJPBH1V5UF2UR4I9N96DY,2,1
33,1,object_03,object_07,442.09999999963,1,2,403.89999999851,0.2222222222222222,1,object_09,1,420,0,2,2,desert_6,1,memory-2step-stake-s,526,1056950,0.0-19.0-0.0-0.33,A2G7N0X0PNX0EE,3DW3BNF1HKYVNTMBZS7SV7ATLD58VQ,37C0GNLMHJJPBH1V5UF2UR4I9N96DY,2,1
34,3,object_04,object_02,782.90000000037,6,2,503.09999999963,0.1111111111111111,2,object_08,5,425,0,1,1,library_4,1,memory-2step-stake-s,527,1064820,0.0-19.0-0.0-0.34,A2G7N0X0PNX0EE,3DW3BNF1HKYVNTMBZS7SV7ATLD58VQ,37C0GNLMHJJPBH1V5UF2UR4I9N96DY,5,6
35,4,object_06,object_01,1047.7999999989,7,1,799.90000000037,0.1111111111111111,1,object_09,1,426,0,1,1,restaurant_7,1,memory-2step-stake-s,528,1072983,0.0-19.0-0.0-0.35,A2G7N0X0PNX0EE,3DW3BNF1HKYVNTMBZS7SV7ATLD58VQ,37C0GNLMHJJPBH1V5UF2UR4I9N96DY,7,8
36,2,object_10,object_05,544.59999999963,4,2,-1.0,0.0,2,object_08,1,426,0,5,3,forest_2,1,memory-2step-stake-s,529,1081552,0.0-19.0-0.0-0.36,A2G7N0X0PNX0EE,3DW3BNF1HKYVNTMBZS7SV7ATLD58VQ,37C0GNLMHJJPBH1V5UF2UR4I9N96DY,3,4
37,3,object_04,object_02,760.30000000075,6,2,448.09999999963,0.3333333333333333,2,object_08,5,441,0,2,3,library_2,1,memory-2step-stake-s,530,1089629,0.0-19.0-0.0-0.37,A2G7N0X0PNX0EE,3DW3BNF1HKYVNTMBZS7SV7ATLD58VQ,37C0GNLMHJJPBH1V5UF2UR4I9N96DY,5,6
38,1,object_07,object_03,926.59999999963,1,1,314.0,0.0,1,object_09,1,441,0,0,5,desert_4,1,memory-2step-stake-s,531,1097223,0.0-19.0-0.0-0.38,A2G7N0X0PNX0EE,3DW3BNF1HKYVNTMBZS7SV7ATLD58VQ,37C0GNLMHJJPBH1V5UF2UR4I9N96DY,1,2
39,1,object_03,object_07,865.40000000037,2,1,344.20000000112,0.6666666666666666,2,object_08,5,471,0,2,6,desert_4,1,memory-2step-stake-s,532,1105448,0.0-19.0-0.0-0.39,A2G7N0X0PNX0EE,3DW3BNF1HKYVNTMBZS7SV7ATLD58VQ,37C0GNLMHJJPBH1V5UF2UR4I9N96DY,2,1
40,2,object_10,object_05,1159.1000000015,4,2,637.5,0.6666666666666666,2,object_08,1,477,0,1,6,forest_2,1,memory-2step-stake-s,533,1113973,0.0-19.0-0.0-0.40,A2G7N0X0PNX0EE,3DW3BNF1HKYVNTMBZS7SV7ATLD58VQ,37C0GNLMHJJPBH1V5UF2UR4I9N96DY,3,4
41,4,object_06,object_01,962.69999999925,8,2,493.79999999888,0.4444444444444444,2,object_08,5,497,0,1,4,restaurant_2,1,memory-2step-stake-s,534,1122217,0.0-19.0-0.0-0.41,A2G7N0X0PNX0EE,3DW3BNF1HKYVNTMBZS7SV7ATLD58VQ,37C0GNLMHJJPBH1V5UF2UR4I9N96DY,7,8
42,1,object_03,object_07,1152.3999999985,1,2,326.09999999963,0.1111111111111111,1,object_09,1,498,0,1,2,desert_1,1,memory-2step-stake-s,535,1129920,0.0-19.0-0.0-0.42,A2G7N0X0PNX0EE,3DW3BNF1HKYVNTMBZS7SV7ATLD58VQ,37C0GNLMHJJPBH1V5UF2UR4I9N96DY,2,1
43,2,object_05,object_10,995.70000000112,4,1,392.29999999888,0.2222222222222222,2,object_08,5,508,0,1,2,forest_7,1,memory-2step-stake-s,536,1137788,0.0-19.0-0.0-0.43,A2G7N0X0PNX0EE,3DW3BNF1HKYVNTMBZS7SV7ATLD58VQ,37C0GNLMHJJPBH1V5UF2UR4I9N96DY,4,3
44,2,object_10,object_05,934.90000000037,4,2,576.29999999888,0.4444444444444444,2,object_08,5,528,0,1,4,forest_4,1,memory-2step-stake-s,537,1146103,0.0-19.0-0.0-0.44,A2G7N0X0PNX0EE,3DW3BNF1HKYVNTMBZS7SV7ATLD58VQ,37C0GNLMHJJPBH1V5UF2UR4I9N96DY,3,4
45,2,object_10,object_05,906.0,4,2,464.80000000075,0.1111111111111111,2,object_08,5,533,0,0,1,forest_7,1,memory-2step-stake-s,538,1153958,0.0-19.0-0.0-0.45,A2G7N0X0PNX0EE,3DW3BNF1HKYVNTMBZS7SV7ATLD58VQ,37C0GNLMHJJPBH1V5UF2UR4I9N96DY,3,4
46,4,object_01,object_06,881.0,8,1,509.19999999925,0.0,2,object_08,5,533,0,3,0,restaurant_7,1,memory-2step-stake-s,539,1161753,0.0-19.0-0.0-0.46,A2G7N0X0PNX0EE,3DW3BNF1HKYVNTMBZS7SV7ATLD58VQ,37C0GNLMHJJPBH1V5UF2UR4I9N96DY,8,7
47,3,object_02,object_04,793.0,6,1,116.59999999963,0.0,2,object_08,5,533,0,7,0,library_2,1,memory-2step-stake-s,540,1169166,0.0-19.0-0.0-0.47,A2G7N0X0PNX0EE,3DW3BNF1HKYVNTMBZS7SV7ATLD58VQ,37C0GNLMHJJPBH1V5UF2UR4I9N96DY,6,5
48,2,object_05,object_10,765.19999999925,3,2,434.0,0.8888888888888888,1,object_09,5,573,0,8,0,forest_2,1,memory-2step-stake-s,541,1177797,0.0-19.0-0.0-0.48,A2G7N0X0PNX0EE,3DW3BNF1HKYVNTMBZS7SV7ATLD58VQ,37C0GNLMHJJPBH1V5UF2UR4I9N96DY,4,3
49,3,object_02,object_04,873.29999999888,5,2,513.80000000075,1.0,1,object_09,5,618,0,9,0,library_4,1,memory-2step-stake-s,542,1186627,0.0-19.0-0.0-0.49,A2G7N0X0PNX0EE,3DW3BNF1HKYVNTMBZS7SV7ATLD58VQ,37C0GNLMHJJPBH1V5UF2UR4I9N96DY,6,5
50,2,object_05,object_10,1333.5,3,2,544.29999999888,1.0,1,object_09,1,627,0,9,1,forest_4,1,memory-2step-stake-s,543,1195437,0.0-19.0-0.0-0.50,A2G7N0X0PNX0EE,3DW3BNF1HKYVNTMBZS7SV7ATLD58VQ,37C0GNLMHJJPBH1V5UF2UR4I9N96DY,4,3
51,1,object_03,object_07,954.40000000037,1,2,594.20000000112,0.8888888888888888,1,object_09,1,635,0,8,2,desert_4,1,memory-2step-stake-s,544,1204200,0.0-19.0-0.0-0.51,A2G7N0X0PNX0EE,3DW3BNF1HKYVNTMBZS7SV7ATLD58VQ,37C0GNLMHJJPBH1V5UF2UR4I9N96DY,2,1
52,1,object_07,object_03,712.90000000037,1,1,945.30000000075,0.7777777777777778,1,object_09,5,670,0,7,4,desert_6,1,memory-2step-stake-s,545,1213146,0.0-19.0-0.0-0.52,A2G7N0X0PNX0EE,3DW3BNF1HKYVNTMBZS7SV7ATLD58VQ,37C0GNLMHJJPBH1V5UF2UR4I9N96DY,1,2
53,2,object_05,object_10,734.80000000075,3,2,329.79999999888,0.8888888888888888,1,object_09,5,710,0,8,4,forest_1,1,memory-2step-stake-s,546,1221585,0.0-19.0-0.0-0.53,A2G7N0X0PNX0EE,3DW3BNF1HKYVNTMBZS7SV7ATLD58VQ,37C0GNLMHJJPBH1V5UF2UR4I9N96DY,4,3
54,1,object_03,object_07,484.20000000112,1,2,386.40000000037,1.0,1,object_09,1,719,0,9,3,desert_8,1,memory-2step-stake-s,547,1230214,0.0-19.0-0.0-0.54,A2G7N0X0PNX0EE,3DW3BNF1HKYVNTMBZS7SV7ATLD58VQ,37C0GNLMHJJPBH1V5UF2UR4I9N96DY,2,1
55,1,object_03,object_07,512.90000000037,1,2,374.0,0.6666666666666666,1,object_09,1,725,0,6,1,desert_8,1,memory-2step-stake-s,548,1238528,0.0-19.0-0.0-0.55,A2G7N0X0PNX0EE,3DW3BNF1HKYVNTMBZS7SV7ATLD58VQ,37C0GNLMHJJPBH1V5UF2UR4I9N96DY,2,1
56,3,object_02,object_04,1158.0999999996,5,2,463.5,0.3333333333333333,1,object_09,5,740,0,3,0,library_2,1,memory-2step-stake-s,549,1246567,0.0-19.0-0.0-0.56,A2G7N0X0PNX0EE,3DW3BNF1HKYVNTMBZS7SV7ATLD58VQ,37C0GNLMHJJPBH1V5UF2UR4I9N96DY,6,5
57,2,object_05,object_10,-1.0,-1,-1,-1.0,0.0,-,0,1,740,0,2,3,forest_2,1,memory-2step-stake-s,550,1253127,0.0-19.0-0.0-0.57,A2G7N0X0PNX0EE,3DW3BNF1HKYVNTMBZS7SV7ATLD58VQ,37C0GNLMHJJPBH1V5UF2UR4I9N96DY,4,3
58,3,object_04,object_02,735.59999999963,5,1,408.5,0.3333333333333333,1,object_09,5,755,0,3,3,library_7,1,memory-2step-stake-s,551,1261139,0.0-19.0-0.0-0.58,A2G7N0X0PNX0EE,3DW3BNF1HKYVNTMBZS7SV7ATLD58VQ,37C0GNLMHJJPBH1V5UF2UR4I9N96DY,5,6
59,4,object_06,object_01,743.0,8,2,461.19999999925,0.4444444444444444,2,object_08,1,759,0,5,4,restaurant_1,1,memory-2step-stake-s,552,1269298,0.0-19.0-0.0-0.59,A2G7N0X0PNX0EE,3DW3BNF1HKYVNTMBZS7SV7ATLD58VQ,37C0GNLMHJJPBH1V5UF2UR4I9N96DY,7,8
60,3,object_02,object_04,709.19999999925,5,2,428.79999999888,0.6666666666666666,1,object_09,1,765,0,6,4,library_4,1,memory-2step-stake-s,553,1277662,0.0-19.0-0.0-0.60,A2G7N0X0PNX0EE,3DW3BNF1HKYVNTMBZS7SV7ATLD58VQ,37C0GNLMHJJPBH1V5UF2UR4I9N96DY,6,5
61,3,object_04,object_02,727.70000000112,6,2,395.59999999963,0.2222222222222222,2,object_08,5,775,0,7,2,library_4,1,memory-2step-stake-s,554,1285562,0.0-19.0-0.0-0.61,A2G7N0X0PNX0EE,3DW3BNF1HKYVNTMBZS7SV7ATLD58VQ,37C0GNLMHJJPBH1V5UF2UR4I9N96DY,5,6
62,2,object_10,object_05,607.20000000112,3,1,280.59999999963,1.0,1,object_09,1,784,0,9,0,forest_4,1,memory-2step-stake-s,555,1294075,0.0-19.0-0.0-0.62,A2G7N0X0PNX0EE,3DW3BNF1HKYVNTMBZS7SV7ATLD58VQ,37C0GNLMHJJPBH1V5UF2UR4I9N96DY,3,4
63,1,object_07,object_03,572.90000000037,1,1,339.20000000112,0.5555555555555556,1,object_09,5,809,0,5,2,desert_4,1,memory-2step-stake-s,556,1302236,0.0-19.0-0.0-0.63,A2G7N0X0PNX0EE,3DW3BNF1HKYVNTMBZS7SV7ATLD58VQ,37C0GNLMHJJPBH1V5UF2UR4I9N96DY,1,2
64,4,object_06,object_01,627.60000000149,8,2,55.5,0.5555555555555556,2,object_08,5,834,0,5,5,restaurant_7,1,memory-2step-stake-s,557,1310118,0.0-19.0-0.0-0.64,A2G7N0X0PNX0EE,3DW3BNF1HKYVNTMBZS7SV7ATLD58VQ,37C0GNLMHJJPBH1V5UF2UR4I9N96DY,7,8
65,1,object_03,object_07,698.0,2,1,466.09999999963,0.8888888888888888,2,object_08,1,842,0,5,8,desert_1,1,memory-2step-stake-s,558,1318733,0.0-19.0-0.0-0.65,A2G7N0X0PNX0EE,3DW3BNF1HKYVNTMBZS7SV7ATLD58VQ,37C0GNLMHJJPBH1V5UF2UR4I9N96DY,2,1
66,4,object_06,object_01,602.10000000149,8,2,505.90000000037,0.7777777777777778,2,object_08,5,877,0,5,7,restaurant_7,1,memory-2step-stake-s,559,1327298,0.0-19.0-0.0-0.66,A2G7N0X0PNX0EE,3DW3BNF1HKYVNTMBZS7SV7ATLD58VQ,37C0GNLMHJJPBH1V5UF2UR4I9N96DY,7,8
67,3,object_02,object_04,782.0,5,2,976.40000000037,0.1111111111111111,1,object_09,5,882,0,1,5,library_3,1,memory-2step-stake-s,560,1335648,0.0-19.0-0.0-0.67,A2G7N0X0PNX0EE,3DW3BNF1HKYVNTMBZS7SV7ATLD58VQ,37C0GNLMHJJPBH1V5UF2UR4I9N96DY,6,5
68,1,object_03,object_07,711.60000000149,1,2,355.79999999888,0.2222222222222222,1,object_09,1,884,0,2,6,desert_4,1,memory-2step-stake-s,561,1343490,0.0-19.0-0.0-0.68,A2G7N0X0PNX0EE,3DW3BNF1HKYVNTMBZS7SV7ATLD58VQ,37C0GNLMHJJPBH1V5UF2UR4I9N96DY,2,1
69,2,object_10,object_05,700.80000000075,3,1,659.19999999925,0.3333333333333333,1,object_09,5,899,0,3,7,forest_2,1,memory-2step-stake-s,562,1351781,0.0-19.0-0.0-0.69,A2G7N0X0PNX0EE,3DW3BNF1HKYVNTMBZS7SV7ATLD58VQ,37C0GNLMHJJPBH1V5UF2UR4I9N96DY,3,4
70,1,object_07,object_03,953.39999999851,1,1,302.79999999888,0.0,1,object_09,1,899,0,0,7,desert_1,1,memory-2step-stake-s,563,1359363,0.0-19.0-0.0-0.70,A2G7N0X0PNX0EE,3DW3BNF1HKYVNTMBZS7SV7ATLD58VQ,37C0GNLMHJJPBH1V5UF2UR4I9N96DY,1,2
71,1,object_07,object_03,515.90000000037,2,2,414.09999999963,0.4444444444444444,2,object_08,5,919,0,3,4,desert_4,1,memory-2step-stake-s,564,1367533,0.0-19.0-0.0-0.71,A2G7N0X0PNX0EE,3DW3BNF1HKYVNTMBZS7SV7ATLD58VQ,37C0GNLMHJJPBH1V5UF2UR4I9N96DY,1,2
72,1,object_07,object_03,491.80000000075,2,2,419.69999999925,0.4444444444444444,2,object_08,1,923,0,1,4,desert_6,1,memory-2step-stake-s,565,1375674,0.0-19.0-0.0-0.72,A2G7N0X0PNX0EE,3DW3BNF1HKYVNTMBZS7SV7ATLD58VQ,37C0GNLMHJJPBH1V5UF2UR4I9N96DY,1,2
73,4,object_01,object_06,924.59999999963,7,2,305.69999999925,0.1111111111111111,1,object_09,5,928,0,1,4,restaurant_1,1,memory-2step-stake-s,566,1383365,0.0-19.0-0.0-0.73,A2G7N0X0PNX0EE,3DW3BNF1HKYVNTMBZS7SV7ATLD58VQ,37C0GNLMHJJPBH1V5UF2UR4I9N96DY,8,7
74,2,object_05,object_10,733.80000000075,4,1,441.59999999963,0.1111111111111111,2,object_08,5,933,0,0,1,forest_1,1,memory-2step-stake-s,567,1391229,0.0-19.0-0.0-0.74,A2G7N0X0PNX0EE,3DW3BNF1HKYVNTMBZS7SV7ATLD58VQ,37C0GNLMHJJPBH1V5UF2UR4I9N96DY,4,3
75,2,object_05,object_10,606.40000000037,4,1,328.19999999925,0.2222222222222222,2,object_08,1,935,0,1,2,forest_1,1,memory-2step-stake-s,568,1399067,0.0-19.0-0.0-0.75,A2G7N0X0PNX0EE,3DW3BNF1HKYVNTMBZS7SV7ATLD58VQ,37C0GNLMHJJPBH1V5UF2UR4I9N96DY,4,3
76,2,object_05,object_10,889.80000000075,3,2,287.59999999963,0.3333333333333333,1,object_09,1,938,0,3,3,forest_7,1,memory-2step-stake-s,569,1406969,0.0-19.0-0.0-0.76,A2G7N0X0PNX0EE,3DW3BNF1HKYVNTMBZS7SV7ATLD58VQ,37C0GNLMHJJPBH1V5UF2UR4I9N96DY,4,3
77,3,object_04,object_02,855.90000000037,6,2,565.5,0.3333333333333333,2,object_08,1,941,0,1,3,library_2,1,memory-2step-stake-s,570,1415164,0.0-19.0-0.0-0.77,A2G7N0X0PNX0EE,3DW3BNF1HKYVNTMBZS7SV7ATLD58VQ,37C0GNLMHJJPBH1V5UF2UR4I9N96DY,5,6
78,2,object_10,object_05,774.5,3,1,268.59999999963,0.5555555555555556,1,object_09,5,966,0,5,3,forest_1,1,memory-2step-stake-s,571,1423230,0.0-19.0-0.0-0.78,A2G7N0X0PNX0EE,3DW3BNF1HKYVNTMBZS7SV7ATLD58VQ,37C0GNLMHJJPBH1V5UF2UR4I9N96DY,3,4
79,4,object_06,object_01,607.90000000037,8,2,66.89999999851,0.3333333333333333,2,object_08,1,969,0,6,3,restaurant_1,1,memory-2step-stake-s,572,1430887,0.0-19.0-0.0-0.79,A2G7N0X0PNX0EE,3DW3BNF1HKYVNTMBZS7SV7ATLD58VQ,37C0GNLMHJJPBH1V5UF2UR4I9N96DY,7,8
80,4,object_01,object_06,656.30000000075,7,2,345.69999999925,1.0,1,object_09,5,1014,0,9,0,restaurant_7,1,memory-2step-stake-s,573,1439531,0.0-19.0-0.0-0.80,A2G7N0X0PNX0EE,3DW3BNF1HKYVNTMBZS7SV7ATLD58VQ,37C0GNLMHJJPBH1V5UF2UR4I9N96DY,8,7
81,3,object_02,object_04,895.30000000075,5,2,387.29999999888,1.0,1,object_09,5,1059,0,9,1,library_4,1,memory-2step-stake-s,574,1448227,0.0-19.0-0.0-0.81,A2G7N0X0PNX0EE,3DW3BNF1HKYVNTMBZS7SV7ATLD58VQ,37C0GNLMHJJPBH1V5UF2UR4I9N96DY,6,5
82,4,object_06,object_01,724.09999999963,7,1,93.0,0.7777777777777778,1,object_09,5,1094,0,7,2,restaurant_2,1,memory-2step-stake-s,575,1456340,0.0-19.0-0.0-0.82,A2G7N0X0PNX0EE,3DW3BNF1HKYVNTMBZS7SV7ATLD58VQ,37C0GNLMHJJPBH1V5UF2UR4I9N96DY,7,8
83,4,object_01,object_06,641.5,7,2,306.80000000075,0.7777777777777778,1,object_09,5,1129,0,7,0,restaurant_4,1,memory-2step-stake-s,576,1464715,0.0-19.0-0.0-0.83,A2G7N0X0PNX0EE,3DW3BNF1HKYVNTMBZS7SV7ATLD58VQ,37C0GNLMHJJPBH1V5UF2UR4I9N96DY,8,7
84,1,object_07,object_03,962.30000000075,1,1,-1.0,0.0,1,object_09,1,1129,0,6,1,desert_8,1,memory-2step-stake-s,577,1473272,0.0-19.0-0.0-0.84,A2G7N0X0PNX0EE,3DW3BNF1HKYVNTMBZS7SV7ATLD58VQ,37C0GNLMHJJPBH1V5UF2UR4I9N96DY,1,2
85,3,object_04,object_02,1203.4000000004,5,1,774.90000000037,0.5555555555555556,1,object_09,5,1154,0,5,2,library_2,1,memory-2step-stake-s,578,1481860,0.0-19.0-0.0-0.85,A2G7N0X0PNX0EE,3DW3BNF1HKYVNTMBZS7SV7ATLD58VQ,37C0GNLMHJJPBH1V5UF2UR4I9N96DY,5,6
86,3,object_04,object_02,737.59999999963,5,1,-1.0,0.0,1,object_09,5,1154,0,2,5,library_7,1,memory-2step-stake-s,579,1490434,0.0-19.0-0.0-0.86,A2G7N0X0PNX0EE,3DW3BNF1HKYVNTMBZS7SV7ATLD58VQ,37C0GNLMHJJPBH1V5UF2UR4I9N96DY,5,6
87,3,object_04,object_02,601.80000000075,6,2,416.29999999888,0.8888888888888888,2,object_08,5,1194,0,2,8,library_3,1,memory-2step-stake-s,580,1499038,0.0-19.0-0.0-0.87,A2G7N0X0PNX0EE,3DW3BNF1HKYVNTMBZS7SV7ATLD58VQ,37C0GNLMHJJPBH1V5UF2UR4I9N96DY,5,6
88,1,object_07,object_03,848.40000000037,2,2,744.70000000112,0.8888888888888888,2,object_08,1,1202,0,1,8,desert_1,1,memory-2step-stake-s,581,1507932,0.0-19.0-0.0-0.88,A2G7N0X0PNX0EE,3DW3BNF1HKYVNTMBZS7SV7ATLD58VQ,37C0GNLMHJJPBH1V5UF2UR4I9N96DY,1,2
89,2,object_05,object_10,860.0,4,1,50.299999998882,0.8888888888888888,2,object_08,1,1210,0,1,8,forest_1,1,memory-2step-stake-s,582,1516097,0.0-19.0-0.0-0.89,A2G7N0X0PNX0EE,3DW3BNF1HKYVNTMBZS7SV7ATLD58VQ,37C0GNLMHJJPBH1V5UF2UR4I9N96DY,4,3
90,3,object_02,object_04,832.89999999851,6,1,307.40000000037,0.8888888888888888,2,object_08,1,1218,0,3,8,library_7,1,memory-2step-stake-s,583,1524477,0.0-19.0-0.0-0.90,A2G7N0X0PNX0EE,3DW3BNF1HKYVNTMBZS7SV7ATLD58VQ,37C0GNLMHJJPBH1V5UF2UR4I9N96DY,6,5
91,4,object_01,object_06,745.90000000037,7,2,377.40000000037,0.3333333333333333,1,object_09,1,1221,0,3,7,restaurant_7,1,memory-2step-stake-s,584,1532432,0.0-19.0-0.0-0.91,A2G7N0X0PNX0EE,3DW3BNF1HKYVNTMBZS7SV7ATLD58VQ,37C0GNLMHJJPBH1V5UF2UR4I9N96DY,8,7
92,2,object_05,object_10,833.09999999963,4,1,200.90000000037,0.6666666666666666,2,object_08,1,1227,0,6,6,forest_7,1,memory-2step-stake-s,585,1540564,0.0-19.0-0.0-0.92,A2G7N0X0PNX0EE,3DW3BNF1HKYVNTMBZS7SV7ATLD58VQ,37C0GNLMHJJPBH1V5UF2UR4I9N96DY,4,3
93,2,object_05,object_10,658.5,4,1,474.5,1.0,2,object_08,5,1272,0,9,9,forest_4,1,memory-2step-stake-s,586,1549314,0.0-19.0-0.0-0.93,A2G7N0X0PNX0EE,3DW3BNF1HKYVNTMBZS7SV7ATLD58VQ,37C0GNLMHJJPBH1V5UF2UR4I9N96DY,4,3
94,1,object_03,object_07,725.59999999963,2,1,188.19999999925,0.6666666666666666,2,object_08,5,1302,0,9,6,desert_1,1,memory-2step-stake-s,587,1557427,0.0-19.0-0.0-0.94,A2G7N0X0PNX0EE,3DW3BNF1HKYVNTMBZS7SV7ATLD58VQ,37C0GNLMHJJPBH1V5UF2UR4I9N96DY,2,1
95,2,object_05,object_10,691.30000000075,4,1,445.29999999888,0.6666666666666666,2,object_08,5,1332,0,8,6,forest_2,1,memory-2step-stake-s,588,1565824,0.0-19.0-0.0-0.95,A2G7N0X0PNX0EE,3DW3BNF1HKYVNTMBZS7SV7ATLD58VQ,37C0GNLMHJJPBH1V5UF2UR4I9N96DY,4,3
96,2,object_10,object_05,806.70000000112,3,1,180.90000000037,0.4444444444444444,1,object_09,5,1352,0,4,4,forest_2,1,memory-2step-stake-s,589,1573708,0.0-19.0-0.0-0.96,A2G7N0X0PNX0EE,3DW3BNF1HKYVNTMBZS7SV7ATLD58VQ,37C0GNLMHJJPBH1V5UF2UR4I9N96DY,3,4
97,3,object_02,object_04,1058.3000000007,6,1,323.0,0.4444444444444444,2,object_08,5,1372,0,1,4,library_4,1,memory-2step-stake-s,590,1581792,0.0-19.0-0.0-0.97,A2G7N0X0PNX0EE,3DW3BNF1HKYVNTMBZS7SV7ATLD58VQ,37C0GNLMHJJPBH1V5UF2UR4I9N96DY,6,5
98,4,object_01,object_06,857.09999999963,8,1,322.70000000112,0.3333333333333333,2,object_08,5,1387,0,3,3,restaurant_2,1,memory-2step-stake-s,591,1589717,0.0-19.0-0.0-0.98,A2G7N0X0PNX0EE,3DW3BNF1HKYVNTMBZS7SV7ATLD58VQ,37C0GNLMHJJPBH1V5UF2UR4I9N96DY,8,7
99,4,object_06,object_01,731.30000000075,8,2,6.9000000003725,0.2222222222222222,2,object_08,5,1397,0,7,2,restaurant_1,1,memory-2step-stake-s,592,1597247,0.0-19.0-0.0-0.99,A2G7N0X0PNX0EE,3DW3BNF1HKYVNTMBZS7SV7ATLD58VQ,37C0GNLMHJJPBH1V5UF2UR4I9N96DY,7,8
100,2,object_05,object_10,707.20000000112,4,1,857.5,0.0,2,object_08,5,1397,0,8,0,forest_7,1,memory-2step-stake-s,593,1605385,0.0-19.0-0.0-0.100,A2G7N0X0PNX0EE,3DW3BNF1HKYVNTMBZS7SV7ATLD58VQ,37C0GNLMHJJPBH1V5UF2UR4I9N96DY,4,3
101,4,object_01,object_06,561.70000000112,7,2,169.80000000075,0.7777777777777778,1,object_09,5,1432,0,7,1,restaurant_2,1,memory-2step-stake-s,594,1613596,0.0-19.0-0.0-0.101,A2G7N0X0PNX0EE,3DW3BNF1HKYVNTMBZS7SV7ATLD58VQ,37C0GNLMHJJPBH1V5UF2UR4I9N96DY,8,7
102,4,object_06,object_01,1257.5,8,2,132.30000000075,0.1111111111111111,2,object_08,5,1437,0,4,1,restaurant_4,1,memory-2step-stake-s,595,1621140,0.0-19.0-0.0-0.102,A2G7N0X0PNX0EE,3DW3BNF1HKYVNTMBZS7SV7ATLD58VQ,37C0GNLMHJJPBH1V5UF2UR4I9N96DY,7,8
103,4,object_01,object_06,642.0,8,1,218.29999999888,0.4444444444444444,2,object_08,5,1457,0,4,4,restaurant_4,1,memory-2step-stake-s,596,1629093,0.0-19.0-0.0-0.103,A2G7N0X0PNX0EE,3DW3BNF1HKYVNTMBZS7SV7ATLD58VQ,37C0GNLMHJJPBH1V5UF2UR4I9N96DY,8,7
104,2,object_05,object_10,656.89999999851,3,2,28.199999999255,0.5555555555555556,1,object_09,1,1462,0,5,2,forest_7,1,memory-2step-stake-s,597,1636966,0.0-19.0-0.0-0.104,A2G7N0X0PNX0EE,3DW3BNF1HKYVNTMBZS7SV7ATLD58VQ,37C0GNLMHJJPBH1V5UF2UR4I9N96DY,4,3
105,1,object_07,object_03,728.29999999888,2,2,196.0,0.2222222222222222,2,object_08,5,1472,0,5,2,desert_6,1,memory-2step-stake-s,598,1644685,0.0-19.0-0.0-0.105,A2G7N0X0PNX0EE,3DW3BNF1HKYVNTMBZS7SV7ATLD58VQ,37C0GNLMHJJPBH1V5UF2UR4I9N96DY,1,2
106,3,object_04,object_02,1145.5999999996,6,2,510.90000000037,0.0,2,object_08,5,1472,0,2,0,library_3,1,memory-2step-stake-s,599,1652485,0.0-19.0-0.0-0.106,A2G7N0X0PNX0EE,3DW3BNF1HKYVNTMBZS7SV7ATLD58VQ,37C0GNLMHJJPBH1V5UF2UR4I9N96DY,5,6
107,3,object_02,object_04,629.29999999888,5,2,136.5,0.1111111111111111,1,object_09,5,1477,0,1,1,library_4,1,memory-2step-stake-s,600,1660010,0.0-19.0-0.0-0.107,A2G7N0X0PNX0EE,3DW3BNF1HKYVNTMBZS7SV7ATLD58VQ,37C0GNLMHJJPBH1V5UF2UR4I9N96DY,6,5
108,4,object_01,object_06,865.59999999963,8,1,651.70000000112,0.1111111111111111,2,object_08,5,1482,0,2,1,restaurant_4,1,memory-2step-stake-s,601,1668044,0.0-19.0-0.0-0.108,A2G7N0X0PNX0EE,3DW3BNF1HKYVNTMBZS7SV7ATLD58VQ,37C0GNLMHJJPBH1V5UF2UR4I9N96DY,8,7
109,3,object_04,object_02,624.30000000075,6,2,340.70000000112,0.0,2,object_08,5,1482,0,3,0,library_3,1,memory-2step-stake-s,602,1675638,0.0-19.0-0.0-0.109,A2G7N0X0PNX0EE,3DW3BNF1HKYVNTMBZS7SV7ATLD58VQ,37C0GNLMHJJPBH1V5UF2UR4I9N96DY,5,6
110,2,object_10,object_05,752.40000000037,3,1,214.40000000037,0.7777777777777778,1,object_09,1,1489,0,7,1,forest_1,1,memory-2step-stake-s,603,1683895,0.0-19.0-0.0-0.110,A2G7N0X0PNX0EE,3DW3BNF1HKYVNTMBZS7SV7ATLD58VQ,37C0GNLMHJJPBH1V5UF2UR4I9N96DY,3,4
111,2,object_05,object_10,601.19999999925,4,1,13.900000000373,0.2222222222222222,2,object_08,1,1491,0,6,2,forest_2,1,memory-2step-stake-s,604,1691431,0.0-19.0-0.0-0.111,A2G7N0X0PNX0EE,3DW3BNF1HKYVNTMBZS7SV7ATLD58VQ,37C0GNLMHJJPBH1V5UF2UR4I9N96DY,4,3
112,2,object_10,object_05,829.59999999963,3,1,527.40000000037,0.3333333333333333,1,object_09,1,1494,0,3,1,forest_7,1,memory-2step-stake-s,605,1699565,0.0-19.0-0.0-0.112,A2G7N0X0PNX0EE,3DW3BNF1HKYVNTMBZS7SV7ATLD58VQ,37C0GNLMHJJPBH1V5UF2UR4I9N96DY,3,4
113,3,object_04,object_02,1047.3000000007,5,1,428.0,0.1111111111111111,1,object_09,5,1499,0,1,4,library_2,1,memory-2step-stake-s,606,1707395,0.0-19.0-0.0-0.113,A2G7N0X0PNX0EE,3DW3BNF1HKYVNTMBZS7SV7ATLD58VQ,37C0GNLMHJJPBH1V5UF2UR4I9N96DY,5,6
114,1,object_03,object_07,530.80000000075,1,2,193.10000000149,0.1111111111111111,1,object_09,1,1500,0,1,8,desert_4,1,memory-2step-stake-s,607,1714993,0.0-19.0-0.0-0.114,A2G7N0X0PNX0EE,3DW3BNF1HKYVNTMBZS7SV7ATLD58VQ,37C0GNLMHJJPBH1V5UF2UR4I9N96DY,2,1
115,4,object_01,object_06,983.0,7,2,239.20000000112,0.1111111111111111,1,object_09,5,1505,0,1,7,restaurant_1,1,memory-2step-stake-s,608,1722634,0.0-19.0-0.0-0.115,A2G7N0X0PNX0EE,3DW3BNF1HKYVNTMBZS7SV7ATLD58VQ,37C0GNLMHJJPBH1V5UF2UR4I9N96DY,8,7
116,1,object_07,object_03,861.10000000149,2,2,423.59999999963,0.6666666666666666,2,object_08,1,1511,0,1,6,desert_6,1,memory-2step-stake-s,609,1731039,0.0-19.0-0.0-0.116,A2G7N0X0PNX0EE,3DW3BNF1HKYVNTMBZS7SV7ATLD58VQ,37C0GNLMHJJPBH1V5UF2UR4I9N96DY,1,2
117,4,object_06,object_01,1501.8999999985,8,2,351.5,0.8888888888888888,2,object_08,5,1551,0,0,8,restaurant_2,1,memory-2step-stake-s,610,1739531,0.0-19.0-0.0-0.117,A2G7N0X0PNX0EE,3DW3BNF1HKYVNTMBZS7SV7ATLD58VQ,37C0GNLMHJJPBH1V5UF2UR4I9N96DY,7,8
118,4,object_06,object_01,666.0,8,2,323.29999999888,0.7777777777777778,2,object_08,5,1586,0,4,7,restaurant_7,1,memory-2step-stake-s,611,1747908,0.0-19.0-0.0-0.118,A2G7N0X0PNX0EE,3DW3BNF1HKYVNTMBZS7SV7ATLD58VQ,37C0GNLMHJJPBH1V5UF2UR4I9N96DY,7,8
119,4,object_01,object_06,1306.9000000004,8,1,-1.0,0.0,2,object_08,5,1586,0,1,5,restaurant_2,1,memory-2step-stake-s,612,1756507,0.0-19.0-0.0-0.119,A2G7N0X0PNX0EE,3DW3BNF1HKYVNTMBZS7SV7ATLD58VQ,37C0GNLMHJJPBH1V5UF2UR4I9N96DY,8,7
120,2,object_10,object_05,1448.7999999989,4,2,731.0,0.4444444444444444,2,object_08,1,1590,0,1,4,forest_1,1,memory-2step-stake-s,613,1764942,0.0-19.0-0.0-0.120,A2G7N0X0PNX0EE,3DW3BNF1HKYVNTMBZS7SV7ATLD58VQ,37C0GNLMHJJPBH1V5UF2UR4I9N96DY,3,4
121,4,object_01,object_06,803.0,8,1,110.90000000037,0.8888888888888888,2,object_08,5,1630,0,1,8,restaurant_1,1,memory-2step-stake-s,614,1773241,0.0-19.0-0.0-0.121,A2G7N0X0PNX0EE,3DW3BNF1HKYVNTMBZS7SV7ATLD58VQ,37C0GNLMHJJPBH1V5UF2UR4I9N96DY,8,7
122,3,object_04,object_02,1487.0999999996,6,2,389.40000000037,0.8888888888888888,2,object_08,5,1670,0,0,8,library_3,1,memory-2step-stake-s,615,1781767,0.0-19.0-0.0-0.122,A2G7N0X0PNX0EE,3DW3BNF1HKYVNTMBZS7SV7ATLD58VQ,37C0GNLMHJJPBH1V5UF2UR4I9N96DY,5,6
123,1,object_07,object_03,1347.5,2,2,183.09999999963,0.7777777777777778,2,object_08,1,1677,0,0,7,desert_1,1,memory-2step-stake-s,616,1790021,0.0-19.0-0.0-0.123,A2G7N0X0PNX0EE,3DW3BNF1HKYVNTMBZS7SV7ATLD58VQ,37C0GNLMHJJPBH1V5UF2UR4I9N96DY,1,2
124,2,object_05,object_10,779.19999999925,4,1,415.69999999925,0.6666666666666666,2,object_08,1,1683,0,1,6,forest_4,1,memory-2step-stake-s,617,1798384,0.0-19.0-0.0-0.124,A2G7N0X0PNX0EE,3DW3BNF1HKYVNTMBZS7SV7ATLD58VQ,37C0GNLMHJJPBH1V5UF2UR4I9N96DY,4,3
125,4,object_06,object_01,813.5,8,2,259.90000000037,0.2222222222222222,2,object_08,5,1693,0,5,2,restaurant_2,1,memory-2step-stake-s,618,1806138,0.0-19.0-0.0-0.125,A2G7N0X0PNX0EE,3DW3BNF1HKYVNTMBZS7SV7ATLD58VQ,37C0GNLMHJJPBH1V5UF2UR4I9N96DY,7,8
126,3,object_02,object_04,1459.8000000007,6,1,252.20000000112,0.4444444444444444,2,object_08,5,1713,0,5,4,library_7,1,memory-2step-stake-s,619,1814151,0.0-19.0-0.0-0.126,A2G7N0X0PNX0EE,3DW3BNF1HKYVNTMBZS7SV7ATLD58VQ,37C0GNLMHJJPBH1V5UF2UR4I9N96DY,6,5
127,3,object_04,object_02,968.40000000037,6,2,227.30000000075,0.3333333333333333,2,object_08,1,1716,0,7,3,library_2,1,memory-2step-stake-s,620,1821984,0.0-19.0-0.0-0.127,A2G7N0X0PNX0EE,3DW3BNF1HKYVNTMBZS7SV7ATLD58VQ,37C0GNLMHJJPBH1V5UF2UR4I9N96DY,5,6
128,2,object_05,object_10,769.5,3,2,261.59999999963,0.7777777777777778,1,object_09,5,1751,0,7,5,forest_1,1,memory-2step-stake-s,622,1833206,0.0-19.0-0.1-0.128,A2G7N0X0PNX0EE,3DW3BNF1HKYVNTMBZS7SV7ATLD58VQ,37C0GNLMHJJPBH1V5UF2UR4I9N96DY,4,3
129,4,object_01,object_06,815.5,7,2,373.5,1.0,1,object_09,5,1796,0,9,3,restaurant_7,1,memory-2step-stake-s,623,1841909,0.0-19.0-0.1-0.129,A2G7N0X0PNX0EE,3DW3BNF1HKYVNTMBZS7SV7ATLD58VQ,37C0GNLMHJJPBH1V5UF2UR4I9N96DY,8,7
130,3,object_02,object_04,994.79999999888,5,2,263.5,0.7777777777777778,1,object_09,5,1831,0,7,6,library_4,1,memory-2step-stake-s,624,1850269,0.0-19.0-0.1-0.130,A2G7N0X0PNX0EE,3DW3BNF1HKYVNTMBZS7SV7ATLD58VQ,37C0GNLMHJJPBH1V5UF2UR4I9N96DY,6,5
131,3,object_02,object_04,662.59999999963,5,2,235.0,0.8888888888888888,1,object_09,5,1871,0,8,6,library_2,1,memory-2step-stake-s,625,1858686,0.0-19.0-0.1-0.131,A2G7N0X0PNX0EE,3DW3BNF1HKYVNTMBZS7SV7ATLD58VQ,37C0GNLMHJJPBH1V5UF2UR4I9N96DY,6,5
132,1,object_03,object_07,1207.5,1,2,447.0,0.6666666666666666,1,object_09,1,1877,0,6,6,desert_6,1,memory-2step-stake-s,626,1867048,0.0-19.0-0.1-0.132,A2G7N0X0PNX0EE,3DW3BNF1HKYVNTMBZS7SV7ATLD58VQ,37C0GNLMHJJPBH1V5UF2UR4I9N96DY,2,1
133,1,object_03,object_07,678.69999999925,1,2,77.599999999627,0.5555555555555556,1,object_09,1,1882,0,5,8,desert_6,1,memory-2step-stake-s,627,1874945,0.0-19.0-0.1-0.133,A2G7N0X0PNX0EE,3DW3BNF1HKYVNTMBZS7SV7ATLD58VQ,37C0GNLMHJJPBH1V5UF2UR4I9N96DY,2,1
134,3,object_04,object_02,1346.3000000007,5,1,171.90000000037,0.8888888888888888,1,object_09,5,1922,0,8,8,library_7,1,memory-2step-stake-s,628,1883295,0.0-19.0-0.1-0.134,A2G7N0X0PNX0EE,3DW3BNF1HKYVNTMBZS7SV7ATLD58VQ,37C0GNLMHJJPBH1V5UF2UR4I9N96DY,5,6
135,1,object_07,object_03,809.59999999963,1,1,270.39999999851,0.8888888888888888,1,object_09,1,1930,0,8,9,desert_6,1,memory-2step-stake-s,629,1891710,0.0-19.0-0.1-0.135,A2G7N0X0PNX0EE,3DW3BNF1HKYVNTMBZS7SV7ATLD58VQ,37C0GNLMHJJPBH1V5UF2UR4I9N96DY,1,2
136,1,object_03,object_07,630.69999999925,1,2,98.5,0.7777777777777778,1,object_09,1,1937,0,7,8,desert_8,1,memory-2step-stake-s,630,1899906,0.0-19.0-0.1-0.136,A2G7N0X0PNX0EE,3DW3BNF1HKYVNTMBZS7SV7ATLD58VQ,37C0GNLMHJJPBH1V5UF2UR4I9N96DY,2,1
137,3,object_04,object_02,704.79999999888,5,1,5.0,0.6666666666666666,1,object_09,1,1943,0,6,7,library_7,1,memory-2step-stake-s,631,1907785,0.0-19.0-0.1-0.137,A2G7N0X0PNX0EE,3DW3BNF1HKYVNTMBZS7SV7ATLD58VQ,37C0GNLMHJJPBH1V5UF2UR4I9N96DY,5,6
138,4,object_06,object_01,945.20000000112,7,1,426.80000000075,0.3333333333333333,1,object_09,1,1946,0,3,8,restaurant_1,1,memory-2step-stake-s,632,1915816,0.0-19.0-0.1-0.138,A2G7N0X0PNX0EE,3DW3BNF1HKYVNTMBZS7SV7ATLD58VQ,37C0GNLMHJJPBH1V5UF2UR4I9N96DY,7,8
139,2,object_10,object_05,872.10000000149,3,1,141.69999999925,0.3333333333333333,1,object_09,1,1949,0,3,7,forest_4,1,memory-2step-stake-s,633,1923582,0.0-19.0-0.1-0.139,A2G7N0X0PNX0EE,3DW3BNF1HKYVNTMBZS7SV7ATLD58VQ,37C0GNLMHJJPBH1V5UF2UR4I9N96DY,3,4
140,1,object_07,object_03,537.5,2,2,31.5,0.6666666666666666,2,object_08,1,1955,0,4,6,desert_8,1,memory-2step-stake-s,634,1931595,0.0-19.0-0.1-0.140,A2G7N0X0PNX0EE,3DW3BNF1HKYVNTMBZS7SV7ATLD58VQ,37C0GNLMHJJPBH1V5UF2UR4I9N96DY,1,2
141,2,object_10,object_05,723.19999999925,4,2,408.59999999963,0.6666666666666666,2,object_08,1,1961,0,9,6,forest_4,1,memory-2step-stake-s,635,1939871,0.0-19.0-0.1-0.141,A2G7N0X0PNX0EE,3DW3BNF1HKYVNTMBZS7SV7ATLD58VQ,37C0GNLMHJJPBH1V5UF2UR4I9N96DY,3,4
142,3,object_02,object_04,703.20000000112,6,1,83.0,0.6666666666666666,2,object_08,5,1991,0,8,6,library_3,1,memory-2step-stake-s,636,1947910,0.0-19.0-0.1-0.142,A2G7N0X0PNX0EE,3DW3BNF1HKYVNTMBZS7SV7ATLD58VQ,37C0GNLMHJJPBH1V5UF2UR4I9N96DY,6,5
143,4,object_06,object_01,1007.6999999993,7,1,84.900000000373,1.0,1,object_09,5,2036,0,9,5,restaurant_4,1,memory-2step-stake-s,637,1956272,0.0-19.0-0.1-0.143,A2G7N0X0PNX0EE,3DW3BNF1HKYVNTMBZS7SV7ATLD58VQ,37C0GNLMHJJPBH1V5UF2UR4I9N96DY,7,8
144,1,object_03,object_07,533.0,1,2,251.90000000037,1.0,1,object_09,1,2045,0,9,1,desert_4,1,memory-2step-stake-s,638,1964757,0.0-19.0-0.1-0.144,A2G7N0X0PNX0EE,3DW3BNF1HKYVNTMBZS7SV7ATLD58VQ,37C0GNLMHJJPBH1V5UF2UR4I9N96DY,2,1
145,3,object_04,object_02,827.90000000037,5,1,145.20000000112,1.0,1,object_09,5,2090,0,9,1,library_3,1,memory-2step-stake-s,639,1973122,0.0-19.0-0.1-0.145,A2G7N0X0PNX0EE,3DW3BNF1HKYVNTMBZS7SV7ATLD58VQ,37C0GNLMHJJPBH1V5UF2UR4I9N96DY,5,6
146,3,object_02,object_04,680.30000000075,5,2,323.60000000149,0.5555555555555556,1,object_09,5,2115,0,5,1,library_2,1,memory-2step-stake-s,640,1981254,0.0-19.0-0.1-0.146,A2G7N0X0PNX0EE,3DW3BNF1HKYVNTMBZS7SV7ATLD58VQ,37C0GNLMHJJPBH1V5UF2UR4I9N96DY,6,5
147,3,object_02,object_04,631.59999999963,5,2,220.90000000037,0.3333333333333333,1,object_09,5,2130,0,3,4,library_4,1,memory-2step-stake-s,641,1989067,0.0-19.0-0.1-0.147,A2G7N0X0PNX0EE,3DW3BNF1HKYVNTMBZS7SV7ATLD58VQ,37C0GNLMHJJPBH1V5UF2UR4I9N96DY,6,5
148,3,object_02,object_04,655.10000000149,6,1,475.30000000075,0.3333333333333333,2,object_08,5,2145,0,6,3,library_3,1,memory-2step-stake-s,642,1997177,0.0-19.0-0.1-0.148,A2G7N0X0PNX0EE,3DW3BNF1HKYVNTMBZS7SV7ATLD58VQ,37C0GNLMHJJPBH1V5UF2UR4I9N96DY,6,5
149,1,object_03,object_07,659.40000000037,1,2,842.80000000075,0.5555555555555556,1,object_09,5,2170,0,5,1,desert_4,1,memory-2step-stake-s,643,2005885,0.0-19.0-0.1-0.149,A2G7N0X0PNX0EE,3DW3BNF1HKYVNTMBZS7SV7ATLD58VQ,37C0GNLMHJJPBH1V5UF2UR4I9N96DY,2,1
150,4,object_01,object_06,808.19999999925,7,2,411.30000000075,0.4444444444444444,1,object_09,5,2190,0,4,1,restaurant_4,1,memory-2step-stake-s,644,2014008,0.0-19.0-0.1-0.150,A2G7N0X0PNX0EE,3DW3BNF1HKYVNTMBZS7SV7ATLD58VQ,37C0GNLMHJJPBH1V5UF2UR4I9N96DY,8,7
151,3,object_02,object_04,661.29999999888,6,1,335.60000000149,0.3333333333333333,2,object_08,5,2205,0,2,3,library_2,1,memory-2step-stake-s,645,2021971,0.0-19.0-0.1-0.151,A2G7N0X0PNX0EE,3DW3BNF1HKYVNTMBZS7SV7ATLD58VQ,37C0GNLMHJJPBH1V5UF2UR4I9N96DY,6,5
152,3,object_02,object_04,546.70000000112,5,2,230.19999999925,0.1111111111111111,1,object_09,5,2210,0,1,5,library_7,1,memory-2step-stake-s,646,2029596,0.0-19.0-0.1-0.152,A2G7N0X0PNX0EE,3DW3BNF1HKYVNTMBZS7SV7ATLD58VQ,37C0GNLMHJJPBH1V5UF2UR4I9N96DY,6,5
153,3,object_02,object_04,602.09999999963,5,2,289.09999999963,0.0,1,object_09,5,2210,0,0,4,library_4,1,memory-2step-stake-s,647,2037125,0.0-19.0-0.1-0.153,A2G7N0X0PNX0EE,3DW3BNF1HKYVNTMBZS7SV7ATLD58VQ,37C0GNLMHJJPBH1V5UF2UR4I9N96DY,6,5
154,2,object_05,object_10,881.69999999925,4,1,443.09999999963,0.5555555555555556,2,object_08,1,2215,0,1,5,forest_4,1,memory-2step-stake-s,648,2045391,0.0-19.0-0.1-0.154,A2G7N0X0PNX0EE,3DW3BNF1HKYVNTMBZS7SV7ATLD58VQ,37C0GNLMHJJPBH1V5UF2UR4I9N96DY,4,3
155,4,object_01,object_06,743.70000000112,7,2,496.69999999925,0.0,1,object_09,1,2215,0,0,3,restaurant_1,1,memory-2step-stake-s,649,2053159,0.0-19.0-0.1-0.155,A2G7N0X0PNX0EE,3DW3BNF1HKYVNTMBZS7SV7ATLD58VQ,37C0GNLMHJJPBH1V5UF2UR4I9N96DY,8,7
156,3,object_04,object_02,934.59999999963,6,2,486.59999999963,0.2222222222222222,2,object_08,5,2225,0,3,2,library_2,1,memory-2step-stake-s,650,2061128,0.0-19.0-0.1-0.156,A2G7N0X0PNX0EE,3DW3BNF1HKYVNTMBZS7SV7ATLD58VQ,37C0GNLMHJJPBH1V5UF2UR4I9N96DY,5,6
157,1,object_07,object_03,923.69999999925,2,2,49.599999999627,0.4444444444444444,2,object_08,1,2229,0,3,4,desert_6,1,memory-2step-stake-s,651,2068909,0.0-19.0-0.1-0.157,A2G7N0X0PNX0EE,3DW3BNF1HKYVNTMBZS7SV7ATLD58VQ,37C0GNLMHJJPBH1V5UF2UR4I9N96DY,1,2
158,3,object_04,object_02,1440.2999999989,6,2,495.59999999963,0.0,2,object_08,5,2229,0,2,0,library_4,1,memory-2step-stake-s,652,2076690,0.0-19.0-0.1-0.158,A2G7N0X0PNX0EE,3DW3BNF1HKYVNTMBZS7SV7ATLD58VQ,37C0GNLMHJJPBH1V5UF2UR4I9N96DY,5,6
159,2,object_10,object_05,657.29999999888,3,1,473.0,0.1111111111111111,1,object_09,5,2234,0,1,3,forest_4,1,memory-2step-stake-s,653,2084536,0.0-19.0-0.1-0.159,A2G7N0X0PNX0EE,3DW3BNF1HKYVNTMBZS7SV7ATLD58VQ,37C0GNLMHJJPBH1V5UF2UR4I9N96DY,3,4
160,2,object_10,object_05,794.90000000037,3,1,836.5,0.0,1,object_09,1,2234,0,0,5,forest_2,1,memory-2step-stake-s,654,2092635,0.0-19.0-0.1-0.160,A2G7N0X0PNX0EE,3DW3BNF1HKYVNTMBZS7SV7ATLD58VQ,37C0GNLMHJJPBH1V5UF2UR4I9N96DY,3,4
161,2,object_05,object_10,713.5,4,1,161.40000000037,0.4444444444444444,2,object_08,1,2238,0,1,4,forest_1,1,memory-2step-stake-s,655,2100505,0.0-19.0-0.1-0.161,A2G7N0X0PNX0EE,3DW3BNF1HKYVNTMBZS7SV7ATLD58VQ,37C0GNLMHJJPBH1V5UF2UR4I9N96DY,4,3
162,4,object_01,object_06,623.30000000075,8,1,338.70000000112,0.7777777777777778,2,object_08,5,2273,0,1,7,restaurant_1,1,memory-2step-stake-s,656,2108893,0.0-19.0-0.1-0.162,A2G7N0X0PNX0EE,3DW3BNF1HKYVNTMBZS7SV7ATLD58VQ,37C0GNLMHJJPBH1V5UF2UR4I9N96DY,8,7
163,1,object_03,object_07,782.40000000037,2,1,553.0,0.7777777777777778,2,object_08,1,2280,0,2,7,desert_4,1,memory-2step-stake-s,657,2117495,0.0-19.0-0.1-0.163,A2G7N0X0PNX0EE,3DW3BNF1HKYVNTMBZS7SV7ATLD58VQ,37C0GNLMHJJPBH1V5UF2UR4I9N96DY,2,1
164,2,object_05,object_10,833.39999999851,4,1,342.0,0.7777777777777778,2,object_08,1,2287,0,2,7,forest_7,1,memory-2step-stake-s,658,2125826,0.0-19.0-0.1-0.164,A2G7N0X0PNX0EE,3DW3BNF1HKYVNTMBZS7SV7ATLD58VQ,37C0GNLMHJJPBH1V5UF2UR4I9N96DY,4,3
165,2,object_10,object_05,776.30000000075,4,2,353.59999999963,0.7777777777777778,2,object_08,1,2294,0,1,7,forest_4,1,memory-2step-stake-s,659,2134229,0.0-19.0-0.1-0.165,A2G7N0X0PNX0EE,3DW3BNF1HKYVNTMBZS7SV7ATLD58VQ,37C0GNLMHJJPBH1V5UF2UR4I9N96DY,3,4
166,4,object_06,object_01,922.70000000112,7,1,18.300000000745,0.4444444444444444,1,object_09,5,2314,0,4,5,restaurant_2,1,memory-2step-stake-s,660,2141957,0.0-19.0-0.1-0.166,A2G7N0X0PNX0EE,3DW3BNF1HKYVNTMBZS7SV7ATLD58VQ,37C0GNLMHJJPBH1V5UF2UR4I9N96DY,7,8
167,2,object_05,object_10,666.5,4,1,316.19999999925,0.6666666666666666,2,object_08,1,2320,0,3,6,forest_7,1,memory-2step-stake-s,661,2150224,0.0-19.0-0.1-0.167,A2G7N0X0PNX0EE,3DW3BNF1HKYVNTMBZS7SV7ATLD58VQ,37C0GNLMHJJPBH1V5UF2UR4I9N96DY,4,3
168,2,object_10,object_05,1155.3000000007,3,1,124.69999999925,0.3333333333333333,1,object_09,1,2323,0,3,6,forest_1,1,memory-2step-stake-s,662,2157970,0.0-19.0-0.1-0.168,A2G7N0X0PNX0EE,3DW3BNF1HKYVNTMBZS7SV7ATLD58VQ,37C0GNLMHJJPBH1V5UF2UR4I9N96DY,3,4
169,4,object_06,object_01,1134.6999999993,8,2,53.699999999255,0.6666666666666666,2,object_08,5,2353,0,4,6,restaurant_4,1,memory-2step-stake-s,663,2165925,0.0-19.0-0.1-0.169,A2G7N0X0PNX0EE,3DW3BNF1HKYVNTMBZS7SV7ATLD58VQ,37C0GNLMHJJPBH1V5UF2UR4I9N96DY,7,8
170,4,object_01,object_06,1040.5,8,1,-1.0,0.0,2,object_08,1,2353,0,5,9,restaurant_7,1,memory-2step-stake-s,664,2174484,0.0-19.0-0.1-0.170,A2G7N0X0PNX0EE,3DW3BNF1HKYVNTMBZS7SV7ATLD58VQ,37C0GNLMHJJPBH1V5UF2UR4I9N96DY,8,7
171,3,object_04,object_02,923.29999999888,6,2,215.40000000037,0.7777777777777778,2,object_08,5,2388,0,4,7,library_7,1,memory-2step-stake-s,665,2182783,0.0-19.0-0.1-0.171,A2G7N0X0PNX0EE,3DW3BNF1HKYVNTMBZS7SV7ATLD58VQ,37C0GNLMHJJPBH1V5UF2UR4I9N96DY,5,6
172,2,object_10,object_05,766.19999999925,4,2,361.80000000075,0.8888888888888888,2,object_08,1,2396,0,4,8,forest_2,1,memory-2step-stake-s,666,2191249,0.0-19.0-0.1-0.172,A2G7N0X0PNX0EE,3DW3BNF1HKYVNTMBZS7SV7ATLD58VQ,37C0GNLMHJJPBH1V5UF2UR4I9N96DY,3,4
173,2,object_05,object_10,812.30000000075,4,1,804.5,1.0,2,object_08,1,2405,0,7,9,forest_2,1,memory-2step-stake-s,667,2200357,0.0-19.0-0.1-0.173,A2G7N0X0PNX0EE,3DW3BNF1HKYVNTMBZS7SV7ATLD58VQ,37C0GNLMHJJPBH1V5UF2UR4I9N96DY,4,3
174,2,object_10,object_05,771.40000000037,4,2,105.69999999925,0.6666666666666666,2,object_08,1,2411,0,9,6,forest_4,1,memory-2step-stake-s,668,2208399,0.0-19.0-0.1-0.174,A2G7N0X0PNX0EE,3DW3BNF1HKYVNTMBZS7SV7ATLD58VQ,37C0GNLMHJJPBH1V5UF2UR4I9N96DY,3,4
175,1,object_07,object_03,678.0,1,1,397.60000000149,0.6666666666666666,1,object_09,1,2417,0,6,7,desert_4,1,memory-2step-stake-s,669,2216695,0.0-19.0-0.1-0.175,A2G7N0X0PNX0EE,3DW3BNF1HKYVNTMBZS7SV7ATLD58VQ,37C0GNLMHJJPBH1V5UF2UR4I9N96DY,1,2
176,1,object_07,object_03,1018.5,2,2,91.699999999255,0.6666666666666666,2,object_08,5,2447,0,5,6,desert_8,1,memory-2step-stake-s,670,2224708,0.0-19.0-0.1-0.176,A2G7N0X0PNX0EE,3DW3BNF1HKYVNTMBZS7SV7ATLD58VQ,37C0GNLMHJJPBH1V5UF2UR4I9N96DY,1,2
177,4,object_01,object_06,872.0,8,1,294.10000000149,0.6666666666666666,2,object_08,5,2477,0,6,6,restaurant_7,1,memory-2step-stake-s,671,2232936,0.0-19.0-0.1-0.177,A2G7N0X0PNX0EE,3DW3BNF1HKYVNTMBZS7SV7ATLD58VQ,37C0GNLMHJJPBH1V5UF2UR4I9N96DY,8,7
178,4,object_06,object_01,661.19999999925,8,2,46.89999999851,0.3333333333333333,2,object_08,1,2480,0,5,3,restaurant_7,1,memory-2step-stake-s,672,2240576,0.0-19.0-0.1-0.178,A2G7N0X0PNX0EE,3DW3BNF1HKYVNTMBZS7SV7ATLD58VQ,37C0GNLMHJJPBH1V5UF2UR4I9N96DY,7,8
179,2,object_10,object_05,742.30000000075,4,2,230.5,0.7777777777777778,2,object_08,1,2487,0,3,7,forest_2,1,memory-2step-stake-s,673,2248812,0.0-19.0-0.1-0.179,A2G7N0X0PNX0EE,3DW3BNF1HKYVNTMBZS7SV7ATLD58VQ,37C0GNLMHJJPBH1V5UF2UR4I9N96DY,3,4
180,1,object_07,object_03,781.09999999776,2,2,518.69999999925,0.6666666666666666,2,object_08,1,2493,0,3,6,desert_1,1,memory-2step-stake-s,674,2257293,0.0-19.0-0.1-0.180,A2G7N0X0PNX0EE,3DW3BNF1HKYVNTMBZS7SV7ATLD58VQ,37C0GNLMHJJPBH1V5UF2UR4I9N96DY,1,2
181,2,object_10,object_05,769.40000000224,4,2,486.80000000075,0.7777777777777778,2,object_08,1,2500,0,7,7,forest_4,1,memory-2step-stake-s,675,2265850,0.0-19.0-0.1-0.181,A2G7N0X0PNX0EE,3DW3BNF1HKYVNTMBZS7SV7ATLD58VQ,37C0GNLMHJJPBH1V5UF2UR4I9N96DY,3,4
182,4,object_06,object_01,631.0,8,2,284.90000000224,0.7777777777777778,2,object_08,5,2535,0,6,7,restaurant_1,1,memory-2step-stake-s,676,2274197,0.0-19.0-0.1-0.182,A2G7N0X0PNX0EE,3DW3BNF1HKYVNTMBZS7SV7ATLD58VQ,37C0GNLMHJJPBH1V5UF2UR4I9N96DY,7,8
183,3,object_04,object_02,748.60000000149,6,2,357.10000000149,0.4444444444444444,2,object_08,5,2555,0,7,4,library_4,1,memory-2step-stake-s,677,2282296,0.0-19.0-0.1-0.183,A2G7N0X0PNX0EE,3DW3BNF1HKYVNTMBZS7SV7ATLD58VQ,37C0GNLMHJJPBH1V5UF2UR4I9N96DY,5,6
184,3,object_02,object_04,809.69999999925,6,1,176.79999999702,0.4444444444444444,2,object_08,5,2575,0,7,4,library_2,1,memory-2step-stake-s,678,2290225,0.0-19.0-0.1-0.184,A2G7N0X0PNX0EE,3DW3BNF1HKYVNTMBZS7SV7ATLD58VQ,37C0GNLMHJJPBH1V5UF2UR4I9N96DY,6,5
185,2,object_05,object_10,1290.3000000007,4,1,129.29999999702,0.3333333333333333,2,object_08,1,2578,0,8,3,forest_4,1,memory-2step-stake-s,679,2297961,0.0-19.0-0.1-0.185,A2G7N0X0PNX0EE,3DW3BNF1HKYVNTMBZS7SV7ATLD58VQ,37C0GNLMHJJPBH1V5UF2UR4I9N96DY,4,3
186,3,object_02,object_04,698.0,5,2,454.79999999702,0.7777777777777778,1,object_09,5,2613,0,7,3,library_7,1,memory-2step-stake-s,680,2306457,0.0-19.0-0.1-0.186,A2G7N0X0PNX0EE,3DW3BNF1HKYVNTMBZS7SV7ATLD58VQ,37C0GNLMHJJPBH1V5UF2UR4I9N96DY,6,5
187,4,object_06,object_01,838.90000000224,8,2,239.19999999925,0.0,2,object_08,5,2613,0,9,0,restaurant_1,1,memory-2step-stake-s,681,2313940,0.0-19.0-0.1-0.187,A2G7N0X0PNX0EE,3DW3BNF1HKYVNTMBZS7SV7ATLD58VQ,37C0GNLMHJJPBH1V5UF2UR4I9N96DY,7,8
188,2,object_05,object_10,631.79999999702,3,2,422.19999999925,1.0,1,object_09,5,2658,0,9,2,forest_1,1,memory-2step-stake-s,682,2322653,0.0-19.0-0.1-0.188,A2G7N0X0PNX0EE,3DW3BNF1HKYVNTMBZS7SV7ATLD58VQ,37C0GNLMHJJPBH1V5UF2UR4I9N96DY,4,3
189,4,object_01,object_06,638.69999999925,7,2,326.0,0.8888888888888888,1,object_09,5,2698,0,8,7,restaurant_4,1,memory-2step-stake-s,683,2331105,0.0-19.0-0.1-0.189,A2G7N0X0PNX0EE,3DW3BNF1HKYVNTMBZS7SV7ATLD58VQ,37C0GNLMHJJPBH1V5UF2UR4I9N96DY,8,7
190,4,object_06,object_01,641.19999999925,7,1,651.80000000075,0.6666666666666666,1,object_09,5,2728,0,6,3,restaurant_4,1,memory-2step-stake-s,684,2339651,0.0-19.0-0.1-0.190,A2G7N0X0PNX0EE,3DW3BNF1HKYVNTMBZS7SV7ATLD58VQ,37C0GNLMHJJPBH1V5UF2UR4I9N96DY,7,8
191,2,object_05,object_10,575.40000000224,3,2,98.20000000298,0.5555555555555556,1,object_09,5,2753,0,5,0,forest_7,1,memory-2step-stake-s,685,2347606,0.0-19.0-0.1-0.191,A2G7N0X0PNX0EE,3DW3BNF1HKYVNTMBZS7SV7ATLD58VQ,37C0GNLMHJJPBH1V5UF2UR4I9N96DY,4,3
192,2,object_05,object_10,601.09999999776,3,2,341.0,0.5555555555555556,1,object_09,1,2758,0,5,3,forest_7,1,memory-2step-stake-s,686,2355739,0.0-19.0-0.1-0.192,A2G7N0X0PNX0EE,3DW3BNF1HKYVNTMBZS7SV7ATLD58VQ,37C0GNLMHJJPBH1V5UF2UR4I9N96DY,4,3
193,3,object_04,object_02,799.80000000075,5,1,255.20000000298,1.0,1,object_09,5,2803,0,9,6,library_2,1,memory-2step-stake-s,687,2364289,0.0-19.0-0.1-0.193,A2G7N0X0PNX0EE,3DW3BNF1HKYVNTMBZS7SV7ATLD58VQ,37C0GNLMHJJPBH1V5UF2UR4I9N96DY,5,6
194,1,object_07,object_03,961.90000000224,1,1,23.900000002235,0.6666666666666666,1,object_09,5,2833,0,6,7,desert_4,1,memory-2step-stake-s,688,2372190,0.0-19.0-0.1-0.194,A2G7N0X0PNX0EE,3DW3BNF1HKYVNTMBZS7SV7ATLD58VQ,37C0GNLMHJJPBH1V5UF2UR4I9N96DY,1,2
195,3,object_02,object_04,580.90000000224,5,2,332.60000000149,0.6666666666666666,1,object_09,5,2863,0,6,3,library_4,1,memory-2step-stake-s,689,2380454,0.0-19.0-0.1-0.195,A2G7N0X0PNX0EE,3DW3BNF1HKYVNTMBZS7SV7ATLD58VQ,37C0GNLMHJJPBH1V5UF2UR4I9N96DY,6,5
196,1,object_07,object_03,640.5,1,1,409.69999999925,0.2222222222222222,1,object_09,1,2865,0,2,4,desert_8,1,memory-2step-stake-s,690,2388353,0.0-19.0-0.1-0.196,A2G7N0X0PNX0EE,3DW3BNF1HKYVNTMBZS7SV7ATLD58VQ,37C0GNLMHJJPBH1V5UF2UR4I9N96DY,1,2
197,1,object_03,object_07,768.0,1,2,453.89999999851,0.1111111111111111,1,object_09,1,2866,0,1,4,desert_8,1,memory-2step-stake-s,691,2396173,0.0-19.0-0.1-0.197,A2G7N0X0PNX0EE,3DW3BNF1HKYVNTMBZS7SV7ATLD58VQ,37C0GNLMHJJPBH1V5UF2UR4I9N96DY,2,1
198,3,object_02,object_04,740.69999999925,6,1,442.59999999776,0.4444444444444444,2,object_08,5,2886,0,2,4,library_3,1,memory-2step-stake-s,692,2404330,0.0-19.0-0.1-0.198,A2G7N0X0PNX0EE,3DW3BNF1HKYVNTMBZS7SV7ATLD58VQ,37C0GNLMHJJPBH1V5UF2UR4I9N96DY,6,5
199,3,object_04,object_02,615.70000000298,6,2,480.19999999925,0.1111111111111111,2,object_08,5,2891,0,3,1,library_2,1,memory-2step-stake-s,693,2412204,0.0-19.0-0.1-0.199,A2G7N0X0PNX0EE,3DW3BNF1HKYVNTMBZS7SV7ATLD58VQ,37C0GNLMHJJPBH1V5UF2UR4I9N96DY,5,6
200,1,object_03,object_07,715.90000000224,1,2,310.40000000224,0.0,1,object_09,1,2891,0,0,6,desert_4,1,memory-2step-stake-s,694,2419784,0.0-19.0-0.1-0.200,A2G7N0X0PNX0EE,3DW3BNF1HKYVNTMBZS7SV7ATLD58VQ,37C0GNLMHJJPBH1V5UF2UR4I9N96DY,2,1
201,4,object_01,object_06,620.69999999925,8,1,329.40000000224,0.4444444444444444,2,object_08,5,2911,0,1,4,restaurant_7,1,memory-2step-stake-s,695,2427810,0.0-19.0-0.1-0.201,A2G7N0X0PNX0EE,3DW3BNF1HKYVNTMBZS7SV7ATLD58VQ,37C0GNLMHJJPBH1V5UF2UR4I9N96DY,8,7
202,1,object_07,object_03,872.0,1,1,377.39999999851,0.1111111111111111,1,object_09,1,2912,0,1,6,desert_1,1,memory-2step-stake-s,696,2435568,0.0-19.0-0.1-0.202,A2G7N0X0PNX0EE,3DW3BNF1HKYVNTMBZS7SV7ATLD58VQ,37C0GNLMHJJPBH1V5UF2UR4I9N96DY,1,2
203,4,object_01,object_06,523.39999999851,7,2,528.90000000224,0.1111111111111111,1,object_09,5,2917,0,1,3,restaurant_2,1,memory-2step-stake-s,697,2443519,0.0-19.0-0.1-0.203,A2G7N0X0PNX0EE,3DW3BNF1HKYVNTMBZS7SV7ATLD58VQ,37C0GNLMHJJPBH1V5UF2UR4I9N96DY,8,7
204,1,object_07,object_03,723.30000000075,2,2,442.89999999851,0.0,2,object_08,5,2917,0,1,0,desert_4,1,memory-2step-stake-s,698,2451250,0.0-19.0-0.1-0.204,A2G7N0X0PNX0EE,3DW3BNF1HKYVNTMBZS7SV7ATLD58VQ,37C0GNLMHJJPBH1V5UF2UR4I9N96DY,1,2
205,2,object_10,object_05,655.30000000075,3,1,246.0,0.4444444444444444,1,object_09,1,2921,0,4,1,forest_7,1,memory-2step-stake-s,699,2459228,0.0-19.0-0.1-0.205,A2G7N0X0PNX0EE,3DW3BNF1HKYVNTMBZS7SV7ATLD58VQ,37C0GNLMHJJPBH1V5UF2UR4I9N96DY,3,4
206,1,object_03,object_07,704.0,1,2,330.90000000224,0.1111111111111111,1,object_09,1,2922,0,1,3,desert_8,1,memory-2step-stake-s,700,2466977,0.0-19.0-0.1-0.206,A2G7N0X0PNX0EE,3DW3BNF1HKYVNTMBZS7SV7ATLD58VQ,37C0GNLMHJJPBH1V5UF2UR4I9N96DY,2,1
207,3,object_02,object_04,1184.200000003,5,2,159.0,0.3333333333333333,1,object_09,5,2937,0,3,5,library_3,1,memory-2step-stake-s,701,2474750,0.0-19.0-0.1-0.207,A2G7N0X0PNX0EE,3DW3BNF1HKYVNTMBZS7SV7ATLD58VQ,37C0GNLMHJJPBH1V5UF2UR4I9N96DY,6,5
208,3,object_02,object_04,629.19999999925,5,2,16.29999999702,0.3333333333333333,1,object_09,5,2952,0,3,5,library_3,1,memory-2step-stake-s,702,2482338,0.0-19.0-0.1-0.208,A2G7N0X0PNX0EE,3DW3BNF1HKYVNTMBZS7SV7ATLD58VQ,37C0GNLMHJJPBH1V5UF2UR4I9N96DY,6,5
209,1,object_07,object_03,652.30000000075,1,1,59.79999999702,0.1111111111111111,1,object_09,5,2957,0,1,6,desert_4,1,memory-2step-stake-s,703,2489801,0.0-19.0-0.1-0.209,A2G7N0X0PNX0EE,3DW3BNF1HKYVNTMBZS7SV7ATLD58VQ,37C0GNLMHJJPBH1V5UF2UR4I9N96DY,1,2
210,4,object_01,object_06,826.0,7,2,21.60000000149,0.5555555555555556,1,object_09,5,2982,0,5,9,restaurant_4,1,memory-2step-stake-s,704,2497646,0.0-19.0-0.1-0.210,A2G7N0X0PNX0EE,3DW3BNF1HKYVNTMBZS7SV7ATLD58VQ,37C0GNLMHJJPBH1V5UF2UR4I9N96DY,8,7
211,1,object_03,object_07,669.09999999776,1,2,483.29999999702,0.4444444444444444,1,object_09,1,2986,0,4,7,desert_8,1,memory-2step-stake-s,705,2505869,0.0-19.0-0.1-0.211,A2G7N0X0PNX0EE,3DW3BNF1HKYVNTMBZS7SV7ATLD58VQ,37C0GNLMHJJPBH1V5UF2UR4I9N96DY,2,1
212,4,object_01,object_06,629.39999999851,7,2,380.30000000075,0.5555555555555556,1,object_09,5,3011,0,5,5,restaurant_7,1,memory-2step-stake-s,706,2514113,0.0-19.0-0.1-0.212,A2G7N0X0PNX0EE,3DW3BNF1HKYVNTMBZS7SV7ATLD58VQ,37C0GNLMHJJPBH1V5UF2UR4I9N96DY,8,7
213,3,object_02,object_04,994.90000000224,5,2,455.89999999851,0.4444444444444444,1,object_09,5,3031,0,4,5,library_2,1,memory-2step-stake-s,707,2522261,0.0-19.0-0.1-0.213,A2G7N0X0PNX0EE,3DW3BNF1HKYVNTMBZS7SV7ATLD58VQ,37C0GNLMHJJPBH1V5UF2UR4I9N96DY,6,5
214,4,object_01,object_06,683.60000000149,7,2,496.89999999851,0.4444444444444444,1,object_09,1,3035,0,4,4,restaurant_1,1,memory-2step-stake-s,708,2530488,0.0-19.0-0.1-0.214,A2G7N0X0PNX0EE,3DW3BNF1HKYVNTMBZS7SV7ATLD58VQ,37C0GNLMHJJPBH1V5UF2UR4I9N96DY,8,7
215,1,object_03,object_07,632.19999999925,1,2,-1.0,0.0,1,object_09,1,3035,0,0,7,desert_8,1,memory-2step-stake-s,709,2539072,0.0-19.0-0.1-0.215,A2G7N0X0PNX0EE,3DW3BNF1HKYVNTMBZS7SV7ATLD58VQ,37C0GNLMHJJPBH1V5UF2UR4I9N96DY,2,1
216,2,object_10,object_05,688.40000000224,3,1,1162.3999999985,0.4444444444444444,1,object_09,1,3039,0,4,6,forest_2,1,memory-2step-stake-s,710,2547969,0.0-19.0-0.1-0.216,A2G7N0X0PNX0EE,3DW3BNF1HKYVNTMBZS7SV7ATLD58VQ,37C0GNLMHJJPBH1V5UF2UR4I9N96DY,3,4
217,2,object_10,object_05,510.80000000075,3,1,117.0,0.6666666666666666,1,object_09,1,3045,0,6,5,forest_2,1,memory-2step-stake-s,711,2556045,0.0-19.0-0.1-0.217,A2G7N0X0PNX0EE,3DW3BNF1HKYVNTMBZS7SV7ATLD58VQ,37C0GNLMHJJPBH1V5UF2UR4I9N96DY,3,4
218,1,object_07,object_03,557.30000000075,1,1,515.09999999776,1.0,1,object_09,1,3054,0,9,6,desert_1,1,memory-2step-stake-s,712,2564812,0.0-19.0-0.1-0.218,A2G7N0X0PNX0EE,3DW3BNF1HKYVNTMBZS7SV7ATLD58VQ,37C0GNLMHJJPBH1V5UF2UR4I9N96DY,1,2
219,3,object_04,object_02,1120.3999999985,5,1,203.80000000075,0.6666666666666666,1,object_09,5,3084,0,6,8,library_7,1,memory-2step-stake-s,713,2572941,0.0-19.0-0.1-0.219,A2G7N0X0PNX0EE,3DW3BNF1HKYVNTMBZS7SV7ATLD58VQ,37C0GNLMHJJPBH1V5UF2UR4I9N96DY,5,6
220,3,object_04,object_02,693.19999999925,5,1,602.19999999925,0.8888888888888888,1,object_09,5,3124,0,8,4,library_7,1,memory-2step-stake-s,714,2581683,0.0-19.0-0.1-0.220,A2G7N0X0PNX0EE,3DW3BNF1HKYVNTMBZS7SV7ATLD58VQ,37C0GNLMHJJPBH1V5UF2UR4I9N96DY,5,6
221,3,object_02,object_04,646.39999999851,5,2,526.69999999925,0.8888888888888888,1,object_09,5,3164,0,8,0,library_4,1,memory-2step-stake-s,715,2590319,0.0-19.0-0.1-0.221,A2G7N0X0PNX0EE,3DW3BNF1HKYVNTMBZS7SV7ATLD58VQ,37C0GNLMHJJPBH1V5UF2UR4I9N96DY,6,5
222,2,object_05,object_10,685.5,3,2,1172.5,1.0,1,object_09,1,3173,0,9,1,forest_1,1,memory-2step-stake-s,716,2599705,0.0-19.0-0.1-0.222,A2G7N0X0PNX0EE,3DW3BNF1HKYVNTMBZS7SV7ATLD58VQ,37C0GNLMHJJPBH1V5UF2UR4I9N96DY,4,3
223,3,object_04,object_02,664.29999999702,5,1,1104.5,0.8888888888888888,1,object_09,5,3213,0,8,3,library_2,1,memory-2step-stake-s,717,2608958,0.0-19.0-0.1-0.223,A2G7N0X0PNX0EE,3DW3BNF1HKYVNTMBZS7SV7ATLD58VQ,37C0GNLMHJJPBH1V5UF2UR4I9N96DY,5,6
224,1,object_07,object_03,753.90000000224,1,1,-1.0,0.0,1,object_09,1,3213,0,6,0,desert_1,1,memory-2step-stake-s,718,2617522,0.0-19.0-0.1-0.224,A2G7N0X0PNX0EE,3DW3BNF1HKYVNTMBZS7SV7ATLD58VQ,37C0GNLMHJJPBH1V5UF2UR4I9N96DY,1,2
225,4,object_01,object_06,664.40000000224,7,2,-1.0,0.0,1,object_09,5,3213,0,8,3,restaurant_1,1,memory-2step-stake-s,719,2626104,0.0-19.0-0.1-0.225,A2G7N0X0PNX0EE,3DW3BNF1HKYVNTMBZS7SV7ATLD58VQ,37C0GNLMHJJPBH1V5UF2UR4I9N96DY,8,7
226,1,object_03,object_07,505.5,1,2,367.5,0.7777777777777778,1,object_09,1,3220,0,7,4,desert_6,1,memory-2step-stake-s,720,2634500,0.0-19.0-0.1-0.226,A2G7N0X0PNX0EE,3DW3BNF1HKYVNTMBZS7SV7ATLD58VQ,37C0GNLMHJJPBH1V5UF2UR4I9N96DY,2,1
227,3,object_04,object_02,585.69999999925,5,1,80.800000000745,1.0,1,object_09,5,3265,0,9,1,library_7,1,memory-2step-stake-s,721,2642861,0.0-19.0-0.1-0.227,A2G7N0X0PNX0EE,3DW3BNF1HKYVNTMBZS7SV7ATLD58VQ,37C0GNLMHJJPBH1V5UF2UR4I9N96DY,5,6
228,2,object_05,object_10,481.69999999925,3,2,200.69999999925,0.8888888888888888,1,object_09,1,3273,0,8,0,forest_1,1,memory-2step-stake-s,722,2651232,0.0-19.0-0.1-0.228,A2G7N0X0PNX0EE,3DW3BNF1HKYVNTMBZS7SV7ATLD58VQ,37C0GNLMHJJPBH1V5UF2UR4I9N96DY,4,3
229,1,object_07,object_03,502.69999999925,1,1,259.20000000298,0.7777777777777778,1,object_09,5,3308,0,7,1,desert_4,1,memory-2step-stake-s,723,2659525,0.0-19.0-0.1-0.229,A2G7N0X0PNX0EE,3DW3BNF1HKYVNTMBZS7SV7ATLD58VQ,37C0GNLMHJJPBH1V5UF2UR4I9N96DY,1,2
230,2,object_10,object_05,651.90000000224,3,1,113.70000000298,0.7777777777777778,1,object_09,1,3315,0,7,0,forest_1,1,memory-2step-stake-s,724,2667688,0.0-19.0-0.1-0.230,A2G7N0X0PNX0EE,3DW3BNF1HKYVNTMBZS7SV7ATLD58VQ,37C0GNLMHJJPBH1V5UF2UR4I9N96DY,3,4
231,1,object_03,object_07,423.5,1,2,238.80000000075,0.7777777777777778,1,object_09,5,3350,0,7,0,desert_6,1,memory-2step-stake-s,725,2675952,0.0-19.0-0.1-0.231,A2G7N0X0PNX0EE,3DW3BNF1HKYVNTMBZS7SV7ATLD58VQ,37C0GNLMHJJPBH1V5UF2UR4I9N96DY,2,1
232,4,object_06,object_01,893.0,7,1,233.30000000075,1.0,1,object_09,5,3395,0,9,2,restaurant_4,1,memory-2step-stake-s,726,2684418,0.0-19.0-0.1-0.232,A2G7N0X0PNX0EE,3DW3BNF1HKYVNTMBZS7SV7ATLD58VQ,37C0GNLMHJJPBH1V5UF2UR4I9N96DY,7,8
233,4,object_06,object_01,735.30000000075,7,1,935.60000000149,0.8888888888888888,1,object_09,5,3435,0,8,0,restaurant_2,1,memory-2step-stake-s,727,2693523,0.0-19.0-0.1-0.233,A2G7N0X0PNX0EE,3DW3BNF1HKYVNTMBZS7SV7ATLD58VQ,37C0GNLMHJJPBH1V5UF2UR4I9N96DY,7,8
234,4,object_06,object_01,595.19999999925,7,1,122.69999999925,0.8888888888888888,1,object_09,1,3443,0,8,1,restaurant_1,1,memory-2step-stake-s,728,2701779,0.0-19.0-0.1-0.234,A2G7N0X0PNX0EE,3DW3BNF1HKYVNTMBZS7SV7ATLD58VQ,37C0GNLMHJJPBH1V5UF2UR4I9N96DY,7,8
235,1,object_03,object_07,550.19999999925,1,2,156.59999999776,0.4444444444444444,1,object_09,1,3447,0,4,2,desert_1,1,memory-2step-stake-s,729,2709681,0.0-19.0-0.1-0.235,A2G7N0X0PNX0EE,3DW3BNF1HKYVNTMBZS7SV7ATLD58VQ,37C0GNLMHJJPBH1V5UF2UR4I9N96DY,2,1
236,2,object_05,object_10,775.80000000075,3,2,794.60000000149,0.5555555555555556,1,object_09,1,3452,0,5,1,forest_7,1,memory-2step-stake-s,730,2718325,0.0-19.0-0.1-0.236,A2G7N0X0PNX0EE,3DW3BNF1HKYVNTMBZS7SV7ATLD58VQ,37C0GNLMHJJPBH1V5UF2UR4I9N96DY,4,3
237,4,object_06,object_01,627.80000000075,7,1,632.60000000149,0.5555555555555556,1,object_09,5,3477,0,5,0,restaurant_2,1,memory-2step-stake-s,731,2726819,0.0-19.0-0.1-0.237,A2G7N0X0PNX0EE,3DW3BNF1HKYVNTMBZS7SV7ATLD58VQ,37C0GNLMHJJPBH1V5UF2UR4I9N96DY,7,8
238,4,object_01,object_06,747.40000000224,7,2,138.39999999851,0.7777777777777778,1,object_09,1,3484,0,7,1,restaurant_7,1,memory-2step-stake-s,732,2735030,0.0-19.0-0.1-0.238,A2G7N0X0PNX0EE,3DW3BNF1HKYVNTMBZS7SV7ATLD58VQ,37C0GNLMHJJPBH1V5UF2UR4I9N96DY,8,7
239,1,object_07,object_03,440.09999999776,1,1,237.59999999776,0.3333333333333333,1,object_09,1,3487,0,3,2,desert_1,1,memory-2step-stake-s,733,2742858,0.0-19.0-0.1-0.239,A2G7N0X0PNX0EE,3DW3BNF1HKYVNTMBZS7SV7ATLD58VQ,37C0GNLMHJJPBH1V5UF2UR4I9N96DY,1,2
240,1,object_07,object_03,657.0,2,2,396.20000000298,0.0,2,object_08,1,3487,0,7,0,desert_8,1,memory-2step-stake-s,734,2750541,0.0-19.0-0.1-0.240,A2G7N0X0PNX0EE,3DW3BNF1HKYVNTMBZS7SV7ATLD58VQ,37C0GNLMHJJPBH1V5UF2UR4I9N96DY,1,2
241,3,object_04,object_02,514.90000000224,5,1,8.0,0.5555555555555556,1,object_09,5,3512,0,5,3,library_7,1,memory-2step-stake-s,735,2758410,0.0-19.0-0.1-0.241,A2G7N0X0PNX0EE,3DW3BNF1HKYVNTMBZS7SV7ATLD58VQ,37C0GNLMHJJPBH1V5UF2UR4I9N96DY,5,6
242,3,object_02,object_04,668.0,5,2,-1.0,0.0,1,object_09,5,3512,0,5,3,library_4,1,memory-2step-stake-s,736,2766995,0.0-19.0-0.1-0.242,A2G7N0X0PNX0EE,3DW3BNF1HKYVNTMBZS7SV7ATLD58VQ,37C0GNLMHJJPBH1V5UF2UR4I9N96DY,6,5
243,3,object_04,object_02,759.5,5,1,465.70000000298,0.6666666666666666,1,object_09,5,3542,0,6,4,library_3,1,memory-2step-stake-s,737,2775405,0.0-19.0-0.1-0.243,A2G7N0X0PNX0EE,3DW3BNF1HKYVNTMBZS7SV7ATLD58VQ,37C0GNLMHJJPBH1V5UF2UR4I9N96DY,5,6
244,1,object_07,object_03,528.19999999925,1,1,582.0,0.4444444444444444,1,object_09,5,3562,0,4,4,desert_8,1,memory-2step-stake-s,738,2783737,0.0-19.0-0.1-0.244,A2G7N0X0PNX0EE,3DW3BNF1HKYVNTMBZS7SV7ATLD58VQ,37C0GNLMHJJPBH1V5UF2UR4I9N96DY,1,2
245,3,object_04,object_02,702.30000000075,5,1,774.59999999776,0.5555555555555556,1,object_09,5,3587,0,5,5,library_3,1,memory-2step-stake-s,739,2792347,0.0-19.0-0.1-0.245,A2G7N0X0PNX0EE,3DW3BNF1HKYVNTMBZS7SV7ATLD58VQ,37C0GNLMHJJPBH1V5UF2UR4I9N96DY,5,6
246,1,object_03,object_07,439.5,1,2,671.29999999702,0.2222222222222222,1,object_09,1,3589,0,2,4,desert_6,1,memory-2step-stake-s,740,2800521,0.0-19.0-0.1-0.246,A2G7N0X0PNX0EE,3DW3BNF1HKYVNTMBZS7SV7ATLD58VQ,37C0GNLMHJJPBH1V5UF2UR4I9N96DY,2,1
247,4,object_06,object_01,552.0,7,1,814.79999999702,0.1111111111111111,1,object_09,5,3594,0,1,2,restaurant_4,1,memory-2step-stake-s,741,2808718,0.0-19.0-0.1-0.247,A2G7N0X0PNX0EE,3DW3BNF1HKYVNTMBZS7SV7ATLD58VQ,37C0GNLMHJJPBH1V5UF2UR4I9N96DY,7,8
248,4,object_01,object_06,832.69999999925,8,1,518.60000000149,0.0,2,object_08,5,3594,0,4,0,restaurant_2,1,memory-2step-stake-s,742,2816514,0.0-19.0-0.1-0.248,A2G7N0X0PNX0EE,3DW3BNF1HKYVNTMBZS7SV7ATLD58VQ,37C0GNLMHJJPBH1V5UF2UR4I9N96DY,8,7
249,4,object_06,object_01,669.0,8,2,402.60000000149,0.1111111111111111,2,object_08,5,3599,0,6,1,restaurant_2,1,memory-2step-stake-s,743,2824294,0.0-19.0-0.1-0.249,A2G7N0X0PNX0EE,3DW3BNF1HKYVNTMBZS7SV7ATLD58VQ,37C0GNLMHJJPBH1V5UF2UR4I9N96DY,7,8
250,3,object_02,object_04,580.29999999702,5,2,252.89999999851,0.7777777777777778,1,object_09,5,3634,0,7,4,library_3,1,memory-2step-stake-s,744,2832612,0.0-19.0-0.1-0.250,A2G7N0X0PNX0EE,3DW3BNF1HKYVNTMBZS7SV7ATLD58VQ,37C0GNLMHJJPBH1V5UF2UR4I9N96DY,6,5
251,2,object_05,object_10,522.90000000224,3,2,163.39999999851,0.6666666666666666,1,object_09,1,3640,0,6,3,forest_7,1,memory-2step-stake-s,745,2840663,0.0-19.0-0.1-0.251,A2G7N0X0PNX0EE,3DW3BNF1HKYVNTMBZS7SV7ATLD58VQ,37C0GNLMHJJPBH1V5UF2UR4I9N96DY,4,3
252,1,object_03,object_07,480.69999999925,1,2,45.89999999851,0.8888888888888888,1,object_09,5,3680,0,8,4,desert_1,1,memory-2step-stake-s,746,2848842,0.0-19.0-0.1-0.252,A2G7N0X0PNX0EE,3DW3BNF1HKYVNTMBZS7SV7ATLD58VQ,37C0GNLMHJJPBH1V5UF2UR4I9N96DY,2,1
253,1,object_07,object_03,475.40000000224,1,1,295.90000000224,1.0,1,object_09,1,3689,0,9,5,desert_6,1,memory-2step-stake-s,747,2857439,0.0-19.0-0.1-0.253,A2G7N0X0PNX0EE,3DW3BNF1HKYVNTMBZS7SV7ATLD58VQ,37C0GNLMHJJPBH1V5UF2UR4I9N96DY,1,2
254,4,object_01,object_06,636.89999999851,7,2,227.5,0.7777777777777778,1,object_09,1,3696,0,7,8,restaurant_4,1,memory-2step-stake-s,748,2865748,0.0-19.0-0.1-0.254,A2G7N0X0PNX0EE,3DW3BNF1HKYVNTMBZS7SV7ATLD58VQ,37C0GNLMHJJPBH1V5UF2UR4I9N96DY,8,7
255,2,object_05,object_10,614.30000000075,3,2,155.10000000149,0.5555555555555556,1,object_09,5,3721,0,5,9,forest_1,1,memory-2step-stake-s,749,2873742,0.0-19.0-0.1-0.255,A2G7N0X0PNX0EE,3DW3BNF1HKYVNTMBZS7SV7ATLD58VQ,37C0GNLMHJJPBH1V5UF2UR4I9N96DY,4,3
