,state1,stim_left,stim_right,rt_1,choice1,response1,rt_2,points,state2,stim_state2,stake,score,practice,rews1,rews2,background,high_arm,trial_type,trial_index,time_elapsed,internal_node_id,subid,hitid,assignmentid,stim_left_num,stim_right_num
0,2,object_02,object_06,911.39999997616,3,2,1029.6000000238,0.2222222222222222,1,object_07,1,2,0,2,6,forest_7,1,memory-2step-stake-s,491,1163912,0.0-19.0-0.0-0.0,A3A7O8IJMBLF5J,3SD15I2WE5AO7614M34OSYMJOYM362,3Y54SXRO1P1HUHNTN2DKF10KFV0TUR,4,3
1,2,object_06,object_02,848.10000002384,3,1,542.30000007153,0.3333333333333333,1,object_07,1,5,0,3,9,forest_6,1,memory-2step-stake-s,492,1171984,0.0-19.0-0.0-0.1,A3A7O8IJMBLF5J,3SD15I2WE5AO7614M34OSYMJOYM362,3Y54SXRO1P1HUHNTN2DKF10KFV0TUR,3,4
2,2,object_02,object_06,868.39999997616,3,2,577.10000002384,0.4444444444444444,1,object_07,1,9,0,4,8,forest_7,1,memory-2step-stake-s,493,1180215,0.0-19.0-0.0-0.2,A3A7O8IJMBLF5J,3SD15I2WE5AO7614M34OSYMJOYM362,3Y54SXRO1P1HUHNTN2DKF10KFV0TUR,4,3
3,1,object_05,object_03,587.0,2,2,764.19999992847,0.7777777777777778,2,object_10,1,16,0,5,7,desert_3,1,memory-2step-stake-s,494,1188952,0.0-19.0-0.0-0.3,A3A7O8IJMBLF5J,3SD15I2WE5AO7614M34OSYMJOYM362,3Y54SXRO1P1HUHNTN2DKF10KFV0TUR,1,2
4,1,object_03,object_05,505.39999997616,2,1,537.5,0.6666666666666666,2,object_10,1,22,0,5,6,desert_1,1,memory-2step-stake-s,495,1197346,0.0-19.0-0.0-0.4,A3A7O8IJMBLF5J,3SD15I2WE5AO7614M34OSYMJOYM362,3Y54SXRO1P1HUHNTN2DKF10KFV0TUR,2,1
5,1,object_03,object_05,560.39999997616,2,1,433.30000007153,0.1111111111111111,2,object_10,1,23,0,3,1,desert_1,1,memory-2step-stake-s,496,1205109,0.0-19.0-0.0-0.5,A3A7O8IJMBLF5J,3SD15I2WE5AO7614M34OSYMJOYM362,3Y54SXRO1P1HUHNTN2DKF10KFV0TUR,2,1
6,1,object_05,object_03,426.10000002384,2,2,569.0,0.3333333333333333,2,object_10,1,26,0,4,3,desert_1,1,memory-2step-stake-s,497,1213241,0.0-19.0-0.0-0.6,A3A7O8IJMBLF5J,3SD15I2WE5AO7614M34OSYMJOYM362,3Y54SXRO1P1HUHNTN2DKF10KFV0TUR,1,2
7,1,object_03,object_05,802.89999997616,1,2,470.39999997616,0.4444444444444444,1,object_07,1,30,0,4,0,desert_8,1,memory-2step-stake-s,498,1221337,0.0-19.0-0.0-0.7,A3A7O8IJMBLF5J,3SD15I2WE5AO7614M34OSYMJOYM362,3Y54SXRO1P1HUHNTN2DKF10KFV0TUR,2,1
8,4,object_09,object_08,818.5,7,2,418.0,0.3333333333333333,1,object_07,5,45,0,3,1,restaurant_1,1,memory-2step-stake-s,499,1229301,0.0-19.0-0.0-0.8,A3A7O8IJMBLF5J,3SD15I2WE5AO7614M34OSYMJOYM362,3Y54SXRO1P1HUHNTN2DKF10KFV0TUR,8,7
9,4,object_09,object_08,701.10000002384,7,2,553.29999995232,0.4444444444444444,1,object_07,5,65,0,4,1,restaurant_1,1,memory-2step-stake-s,500,1237476,0.0-19.0-0.0-0.9,A3A7O8IJMBLF5J,3SD15I2WE5AO7614M34OSYMJOYM362,3Y54SXRO1P1HUHNTN2DKF10KFV0TUR,8,7
10,1,object_05,object_03,740.10000002384,1,1,465.70000004768,0.5555555555555556,1,object_07,5,90,0,5,1,desert_1,1,memory-2step-stake-s,501,1245665,0.0-19.0-0.0-0.10,A3A7O8IJMBLF5J,3SD15I2WE5AO7614M34OSYMJOYM362,3Y54SXRO1P1HUHNTN2DKF10KFV0TUR,1,2
11,4,object_08,object_09,757.29999995232,8,2,547.0,0.0,2,object_10,5,90,0,5,0,restaurant_3,1,memory-2step-stake-s,502,1253423,0.0-19.0-0.0-0.11,A3A7O8IJMBLF5J,3SD15I2WE5AO7614M34OSYMJOYM362,3Y54SXRO1P1HUHNTN2DKF10KFV0TUR,7,8
12,3,object_04,object_01,617.69999992847,6,2,443.19999992847,0.1111111111111111,2,object_10,5,95,0,5,1,library_3,1,memory-2step-stake-s,503,1261189,0.0-19.0-0.0-0.12,A3A7O8IJMBLF5J,3SD15I2WE5AO7614M34OSYMJOYM362,3Y54SXRO1P1HUHNTN2DKF10KFV0TUR,5,6
13,4,object_09,object_08,753.20000004768,7,2,503.79999995232,0.8888888888888888,1,object_07,5,135,0,8,5,restaurant_1,1,memory-2step-stake-s,504,1269765,0.0-19.0-0.0-0.13,A3A7O8IJMBLF5J,3SD15I2WE5AO7614M34OSYMJOYM362,3Y54SXRO1P1HUHNTN2DKF10KFV0TUR,8,7
14,4,object_09,object_08,646.40000009537,7,2,555.69999992847,0.6666666666666666,1,object_07,5,165,0,6,5,restaurant_5,1,memory-2step-stake-s,505,1278174,0.0-19.0-0.0-0.14,A3A7O8IJMBLF5J,3SD15I2WE5AO7614M34OSYMJOYM362,3Y54SXRO1P1HUHNTN2DKF10KFV0TUR,8,7
15,1,object_03,object_05,817.60000002384,1,2,382.80000007153,0.7777777777777778,1,object_07,1,172,0,7,4,desert_8,1,memory-2step-stake-s,506,1286505,0.0-19.0-0.0-0.15,A3A7O8IJMBLF5J,3SD15I2WE5AO7614M34OSYMJOYM362,3Y54SXRO1P1HUHNTN2DKF10KFV0TUR,2,1
16,4,object_08,object_09,610.79999995232,7,1,934.60000002384,0.8888888888888888,1,object_07,5,212,0,8,6,restaurant_5,1,memory-2step-stake-s,507,1295529,0.0-19.0-0.0-0.16,A3A7O8IJMBLF5J,3SD15I2WE5AO7614M34OSYMJOYM362,3Y54SXRO1P1HUHNTN2DKF10KFV0TUR,7,8
17,2,object_06,object_02,651.5,3,1,398.89999997616,1.0,1,object_07,1,221,0,9,7,forest_8,1,memory-2step-stake-s,508,1304070,0.0-19.0-0.0-0.17,A3A7O8IJMBLF5J,3SD15I2WE5AO7614M34OSYMJOYM362,3Y54SXRO1P1HUHNTN2DKF10KFV0TUR,3,4
18,1,object_05,object_03,927.5,1,1,437.5,0.8888888888888888,1,object_07,1,229,0,8,4,desert_1,1,memory-2step-stake-s,509,1312550,0.0-19.0-0.0-0.18,A3A7O8IJMBLF5J,3SD15I2WE5AO7614M34OSYMJOYM362,3Y54SXRO1P1HUHNTN2DKF10KFV0TUR,1,2
19,2,object_02,object_06,910.19999992847,4,1,399.70000004768,0.6666666666666666,2,object_10,5,259,0,9,6,forest_6,1,memory-2step-stake-s,510,1320776,0.0-19.0-0.0-0.19,A3A7O8IJMBLF5J,3SD15I2WE5AO7614M34OSYMJOYM362,3Y54SXRO1P1HUHNTN2DKF10KFV0TUR,4,3
20,4,object_09,object_08,671.10000002384,7,2,519.30000007153,0.8888888888888888,1,object_07,5,299,0,8,9,restaurant_5,1,memory-2step-stake-s,511,1329355,0.0-19.0-0.0-0.20,A3A7O8IJMBLF5J,3SD15I2WE5AO7614M34OSYMJOYM362,3Y54SXRO1P1HUHNTN2DKF10KFV0TUR,8,7
21,1,object_05,object_03,690.5,1,1,367.59999990463,0.5555555555555556,1,object_07,1,304,0,5,7,desert_3,1,memory-2step-stake-s,512,1337459,0.0-19.0-0.0-0.21,A3A7O8IJMBLF5J,3SD15I2WE5AO7614M34OSYMJOYM362,3Y54SXRO1P1HUHNTN2DKF10KFV0TUR,1,2
22,1,object_05,object_03,705.60000002384,1,1,667.0,0.7777777777777778,1,object_07,1,311,0,7,6,desert_1,1,memory-2step-stake-s,513,1346073,0.0-19.0-0.0-0.22,A3A7O8IJMBLF5J,3SD15I2WE5AO7614M34OSYMJOYM362,3Y54SXRO1P1HUHNTN2DKF10KFV0TUR,1,2
23,3,object_01,object_04,765.89999997616,6,1,859.19999992847,0.4444444444444444,2,object_10,5,331,0,6,4,library_3,1,memory-2step-stake-s,514,1354564,0.0-19.0-0.0-0.23,A3A7O8IJMBLF5J,3SD15I2WE5AO7614M34OSYMJOYM362,3Y54SXRO1P1HUHNTN2DKF10KFV0TUR,6,5
24,4,object_09,object_08,652.79999995232,7,2,1185.2999999523,0.4444444444444444,1,object_07,5,351,0,4,5,restaurant_5,1,memory-2step-stake-s,515,1363383,0.0-19.0-0.0-0.24,A3A7O8IJMBLF5J,3SD15I2WE5AO7614M34OSYMJOYM362,3Y54SXRO1P1HUHNTN2DKF10KFV0TUR,8,7
25,3,object_04,object_01,731.0,5,1,784.39999997616,0.7777777777777778,1,object_07,5,386,0,7,4,library_6,1,memory-2step-stake-s,516,1372126,0.0-19.0-0.0-0.25,A3A7O8IJMBLF5J,3SD15I2WE5AO7614M34OSYMJOYM362,3Y54SXRO1P1HUHNTN2DKF10KFV0TUR,5,6
26,2,object_02,object_06,624.80000007153,3,2,1177.1000000238,0.3333333333333333,1,object_07,1,389,0,3,4,forest_2,1,memory-2step-stake-s,517,1380843,0.0-19.0-0.0-0.26,A3A7O8IJMBLF5J,3SD15I2WE5AO7614M34OSYMJOYM362,3Y54SXRO1P1HUHNTN2DKF10KFV0TUR,4,3
27,2,object_06,object_02,891.30000007153,4,2,532.09999990463,0.5555555555555556,2,object_10,5,414,0,6,5,forest_7,1,memory-2step-stake-s,518,1389142,0.0-19.0-0.0-0.27,A3A7O8IJMBLF5J,3SD15I2WE5AO7614M34OSYMJOYM362,3Y54SXRO1P1HUHNTN2DKF10KFV0TUR,3,4
28,2,object_06,object_02,887.79999995232,3,1,-1.0,0.0,1,object_07,1,414,0,5,6,forest_7,1,memory-2step-stake-s,519,1397660,0.0-19.0-0.0-0.28,A3A7O8IJMBLF5J,3SD15I2WE5AO7614M34OSYMJOYM362,3Y54SXRO1P1HUHNTN2DKF10KFV0TUR,3,4
29,1,object_03,object_05,944.29999995232,1,2,631.60000002384,0.7777777777777778,1,object_07,1,421,0,7,6,desert_3,1,memory-2step-stake-s,520,1406250,0.0-19.0-0.0-0.29,A3A7O8IJMBLF5J,3SD15I2WE5AO7614M34OSYMJOYM362,3Y54SXRO1P1HUHNTN2DKF10KFV0TUR,2,1
30,1,object_03,object_05,431.39999997616,1,2,383.89999997616,0.6666666666666666,1,object_07,5,451,0,6,7,desert_1,1,memory-2step-stake-s,521,1414462,0.0-19.0-0.0-0.30,A3A7O8IJMBLF5J,3SD15I2WE5AO7614M34OSYMJOYM362,3Y54SXRO1P1HUHNTN2DKF10KFV0TUR,2,1
31,2,object_06,object_02,866.10000002384,4,2,878.69999992847,0.5555555555555556,2,object_10,1,456,0,5,5,forest_8,1,memory-2step-stake-s,522,1423089,0.0-19.0-0.0-0.31,A3A7O8IJMBLF5J,3SD15I2WE5AO7614M34OSYMJOYM362,3Y54SXRO1P1HUHNTN2DKF10KFV0TUR,3,4
32,3,object_04,object_01,251.89999997616,5,1,249.29999995232,0.3333333333333333,1,object_07,5,471,0,3,6,library_7,1,memory-2step-stake-s,523,1430871,0.0-19.0-0.0-0.32,A3A7O8IJMBLF5J,3SD15I2WE5AO7614M34OSYMJOYM362,3Y54SXRO1P1HUHNTN2DKF10KFV0TUR,5,6
33,1,object_05,object_03,420.5,2,2,1160.1000000238,0.7777777777777778,2,object_10,1,478,0,5,7,desert_1,1,memory-2step-stake-s,524,1439969,0.0-19.0-0.0-0.33,A3A7O8IJMBLF5J,3SD15I2WE5AO7614M34OSYMJOYM362,3Y54SXRO1P1HUHNTN2DKF10KFV0TUR,1,2
34,2,object_02,object_06,848.69999992847,3,2,-1.0,0.0,1,object_07,1,478,0,4,6,forest_7,1,memory-2step-stake-s,525,1448484,0.0-19.0-0.0-0.34,A3A7O8IJMBLF5J,3SD15I2WE5AO7614M34OSYMJOYM362,3Y54SXRO1P1HUHNTN2DKF10KFV0TUR,4,3
35,2,object_06,object_02,377.90000009537,3,1,342.80000007153,0.2222222222222222,1,object_07,1,480,0,2,8,forest_2,1,memory-2step-stake-s,526,1456255,0.0-19.0-0.0-0.35,A3A7O8IJMBLF5J,3SD15I2WE5AO7614M34OSYMJOYM362,3Y54SXRO1P1HUHNTN2DKF10KFV0TUR,3,4
36,1,object_05,object_03,506.39999997616,1,1,327.19999992847,0.0,1,object_07,1,480,0,0,7,desert_8,1,memory-2step-stake-s,527,1463799,0.0-19.0-0.0-0.36,A3A7O8IJMBLF5J,3SD15I2WE5AO7614M34OSYMJOYM362,3Y54SXRO1P1HUHNTN2DKF10KFV0TUR,1,2
37,1,object_03,object_05,1074.6000000238,2,1,366.39999997616,0.8888888888888888,2,object_10,1,488,0,0,8,desert_3,1,memory-2step-stake-s,528,1472221,0.0-19.0-0.0-0.37,A3A7O8IJMBLF5J,3SD15I2WE5AO7614M34OSYMJOYM362,3Y54SXRO1P1HUHNTN2DKF10KFV0TUR,2,1
38,1,object_05,object_03,1244.8999999762,1,1,318.5,0.1111111111111111,1,object_07,5,493,0,1,8,desert_1,1,memory-2step-stake-s,529,1479871,0.0-19.0-0.0-0.38,A3A7O8IJMBLF5J,3SD15I2WE5AO7614M34OSYMJOYM362,3Y54SXRO1P1HUHNTN2DKF10KFV0TUR,1,2
39,3,object_04,object_01,938.0,6,2,763.20000004768,0.8888888888888888,2,object_10,5,533,0,2,8,library_7,1,memory-2step-stake-s,530,1488728,0.0-19.0-0.0-0.39,A3A7O8IJMBLF5J,3SD15I2WE5AO7614M34OSYMJOYM362,3Y54SXRO1P1HUHNTN2DKF10KFV0TUR,5,6
40,4,object_09,object_08,856.5,8,1,534.79999995232,0.8888888888888888,2,object_10,5,573,0,1,8,restaurant_1,1,memory-2step-stake-s,531,1497344,0.0-19.0-0.0-0.40,A3A7O8IJMBLF5J,3SD15I2WE5AO7614M34OSYMJOYM362,3Y54SXRO1P1HUHNTN2DKF10KFV0TUR,8,7
41,4,object_09,object_08,745.0,8,1,936.40000009537,0.8888888888888888,2,object_10,1,581,0,0,8,restaurant_3,1,memory-2step-stake-s,532,1506343,0.0-19.0-0.0-0.41,A3A7O8IJMBLF5J,3SD15I2WE5AO7614M34OSYMJOYM362,3Y54SXRO1P1HUHNTN2DKF10KFV0TUR,8,7
42,4,object_09,object_08,798.60000002384,8,1,937.0,0.8888888888888888,2,object_10,5,621,0,1,8,restaurant_1,1,memory-2step-stake-s,533,1515365,0.0-19.0-0.0-0.42,A3A7O8IJMBLF5J,3SD15I2WE5AO7614M34OSYMJOYM362,3Y54SXRO1P1HUHNTN2DKF10KFV0TUR,8,7
43,2,object_06,object_02,1180.9000000954,4,2,585.0,0.7777777777777778,2,object_10,1,628,0,2,7,forest_2,1,memory-2step-stake-s,534,1523951,0.0-19.0-0.0-0.43,A3A7O8IJMBLF5J,3SD15I2WE5AO7614M34OSYMJOYM362,3Y54SXRO1P1HUHNTN2DKF10KFV0TUR,3,4
44,2,object_02,object_06,1019.0,4,1,802.89999997616,1.0,2,object_10,5,673,0,0,9,forest_8,1,memory-2step-stake-s,535,1532924,0.0-19.0-0.0-0.44,A3A7O8IJMBLF5J,3SD15I2WE5AO7614M34OSYMJOYM362,3Y54SXRO1P1HUHNTN2DKF10KFV0TUR,4,3
45,1,object_05,object_03,790.70000004768,1,1,304.79999995232,0.2222222222222222,1,object_07,1,675,0,2,8,desert_8,1,memory-2step-stake-s,536,1540661,0.0-19.0-0.0-0.45,A3A7O8IJMBLF5J,3SD15I2WE5AO7614M34OSYMJOYM362,3Y54SXRO1P1HUHNTN2DKF10KFV0TUR,1,2
46,2,object_02,object_06,693.29999995232,3,2,460.09999990463,0.2222222222222222,1,object_07,1,677,0,2,4,forest_2,1,memory-2step-stake-s,537,1548539,0.0-19.0-0.0-0.46,A3A7O8IJMBLF5J,3SD15I2WE5AO7614M34OSYMJOYM362,3Y54SXRO1P1HUHNTN2DKF10KFV0TUR,4,3
47,3,object_01,object_04,761.60000002384,6,1,528.10000002384,0.5555555555555556,2,object_10,1,682,0,1,5,library_3,1,memory-2step-stake-s,538,1556841,0.0-19.0-0.0-0.47,A3A7O8IJMBLF5J,3SD15I2WE5AO7614M34OSYMJOYM362,3Y54SXRO1P1HUHNTN2DKF10KFV0TUR,6,5
48,4,object_08,object_09,910.60000002384,8,2,432.0,0.7777777777777778,2,object_10,5,717,0,3,7,restaurant_5,1,memory-2step-stake-s,539,1565195,0.0-19.0-0.0-0.48,A3A7O8IJMBLF5J,3SD15I2WE5AO7614M34OSYMJOYM362,3Y54SXRO1P1HUHNTN2DKF10KFV0TUR,7,8
49,2,object_06,object_02,923.29999995232,3,1,438.69999992847,0.3333333333333333,1,object_07,1,720,0,3,8,forest_8,1,memory-2step-stake-s,540,1573151,0.0-19.0-0.0-0.49,A3A7O8IJMBLF5J,3SD15I2WE5AO7614M34OSYMJOYM362,3Y54SXRO1P1HUHNTN2DKF10KFV0TUR,3,4
50,3,object_01,object_04,726.0,5,2,397.0,0.1111111111111111,1,object_07,5,725,0,1,8,library_6,1,memory-2step-stake-s,541,1580877,0.0-19.0-0.0-0.50,A3A7O8IJMBLF5J,3SD15I2WE5AO7614M34OSYMJOYM362,3Y54SXRO1P1HUHNTN2DKF10KFV0TUR,6,5
51,4,object_08,object_09,764.60000002384,8,2,711.60000002384,1.0,2,object_10,1,734,0,3,9,restaurant_5,1,memory-2step-stake-s,542,1589760,0.0-19.0-0.0-0.51,A3A7O8IJMBLF5J,3SD15I2WE5AO7614M34OSYMJOYM362,3Y54SXRO1P1HUHNTN2DKF10KFV0TUR,7,8
52,4,object_08,object_09,717.70000004768,8,2,408.59999990463,0.7777777777777778,2,object_10,5,769,0,4,7,restaurant_3,1,memory-2step-stake-s,543,1598136,0.0-19.0-0.0-0.52,A3A7O8IJMBLF5J,3SD15I2WE5AO7614M34OSYMJOYM362,3Y54SXRO1P1HUHNTN2DKF10KFV0TUR,7,8
53,3,object_01,object_04,994.20000004768,6,1,466.69999992847,0.7777777777777778,2,object_10,5,804,0,3,7,library_3,1,memory-2step-stake-s,544,1606568,0.0-19.0-0.0-0.53,A3A7O8IJMBLF5J,3SD15I2WE5AO7614M34OSYMJOYM362,3Y54SXRO1P1HUHNTN2DKF10KFV0TUR,6,5
54,3,object_04,object_01,706.19999992847,6,2,441.79999995232,0.6666666666666666,2,object_10,5,834,0,4,6,library_6,1,memory-2step-stake-s,545,1614848,0.0-19.0-0.0-0.54,A3A7O8IJMBLF5J,3SD15I2WE5AO7614M34OSYMJOYM362,3Y54SXRO1P1HUHNTN2DKF10KFV0TUR,5,6
55,4,object_09,object_08,700.29999995232,8,1,484.69999992847,0.7777777777777778,2,object_10,1,841,0,7,7,restaurant_5,1,memory-2step-stake-s,546,1623310,0.0-19.0-0.0-0.55,A3A7O8IJMBLF5J,3SD15I2WE5AO7614M34OSYMJOYM362,3Y54SXRO1P1HUHNTN2DKF10KFV0TUR,8,7
56,3,object_04,object_01,843.79999995232,6,2,392.60000002384,0.6666666666666666,2,object_10,1,847,0,7,6,library_7,1,memory-2step-stake-s,547,1631576,0.0-19.0-0.0-0.56,A3A7O8IJMBLF5J,3SD15I2WE5AO7614M34OSYMJOYM362,3Y54SXRO1P1HUHNTN2DKF10KFV0TUR,5,6
57,3,object_04,object_01,722.39999997616,6,2,965.19999992847,0.7777777777777778,2,object_10,5,882,0,7,7,library_7,1,memory-2step-stake-s,548,1640516,0.0-19.0-0.0-0.57,A3A7O8IJMBLF5J,3SD15I2WE5AO7614M34OSYMJOYM362,3Y54SXRO1P1HUHNTN2DKF10KFV0TUR,5,6
58,1,object_05,object_03,778.5,1,1,384.39999997616,0.7777777777777778,1,object_07,1,889,0,7,9,desert_2,1,memory-2step-stake-s,549,1648852,0.0-19.0-0.0-0.58,A3A7O8IJMBLF5J,3SD15I2WE5AO7614M34OSYMJOYM362,3Y54SXRO1P1HUHNTN2DKF10KFV0TUR,1,2
59,2,object_06,object_02,894.29999995232,4,2,372.39999997616,1.0,2,object_10,1,898,0,5,9,forest_7,1,memory-2step-stake-s,550,1657400,0.0-19.0-0.0-0.59,A3A7O8IJMBLF5J,3SD15I2WE5AO7614M34OSYMJOYM362,3Y54SXRO1P1HUHNTN2DKF10KFV0TUR,3,4
60,2,object_02,object_06,751.39999997616,4,1,492.5,0.7777777777777778,2,object_10,1,905,0,4,7,forest_7,1,memory-2step-stake-s,551,1665861,0.0-19.0-0.0-0.60,A3A7O8IJMBLF5J,3SD15I2WE5AO7614M34OSYMJOYM362,3Y54SXRO1P1HUHNTN2DKF10KFV0TUR,4,3
61,1,object_03,object_05,801.09999990463,2,1,-1.0,0.0,2,object_10,1,905,0,5,5,desert_8,1,memory-2step-stake-s,552,1674375,0.0-19.0-0.0-0.61,A3A7O8IJMBLF5J,3SD15I2WE5AO7614M34OSYMJOYM362,3Y54SXRO1P1HUHNTN2DKF10KFV0TUR,2,1
62,3,object_01,object_04,673.69999992847,6,1,344.69999992847,0.4444444444444444,2,object_10,5,925,0,2,4,library_8,1,memory-2step-stake-s,553,1682339,0.0-19.0-0.0-0.62,A3A7O8IJMBLF5J,3SD15I2WE5AO7614M34OSYMJOYM362,3Y54SXRO1P1HUHNTN2DKF10KFV0TUR,6,5
63,2,object_02,object_06,687.69999992847,3,2,414.09999990463,0.4444444444444444,1,object_07,5,945,0,4,5,forest_2,1,memory-2step-stake-s,554,1690401,0.0-19.0-0.0-0.63,A3A7O8IJMBLF5J,3SD15I2WE5AO7614M34OSYMJOYM362,3Y54SXRO1P1HUHNTN2DKF10KFV0TUR,4,3
64,4,object_09,object_08,863.29999995232,8,1,398.29999995232,0.5555555555555556,2,object_10,5,970,0,3,5,restaurant_3,1,memory-2step-stake-s,555,1698546,0.0-19.0-0.0-0.64,A3A7O8IJMBLF5J,3SD15I2WE5AO7614M34OSYMJOYM362,3Y54SXRO1P1HUHNTN2DKF10KFV0TUR,8,7
65,4,object_08,object_09,709.89999997616,8,2,476.59999990463,0.6666666666666666,2,object_10,5,1000,0,1,6,restaurant_5,1,memory-2step-stake-s,556,1706864,0.0-19.0-0.0-0.65,A3A7O8IJMBLF5J,3SD15I2WE5AO7614M34OSYMJOYM362,3Y54SXRO1P1HUHNTN2DKF10KFV0TUR,7,8
66,3,object_04,object_01,660.79999995232,6,2,450.19999992847,0.5555555555555556,2,object_10,5,1025,0,3,5,library_7,1,memory-2step-stake-s,557,1715061,0.0-19.0-0.0-0.66,A3A7O8IJMBLF5J,3SD15I2WE5AO7614M34OSYMJOYM362,3Y54SXRO1P1HUHNTN2DKF10KFV0TUR,5,6
67,3,object_01,object_04,630.39999997616,6,1,773.0,0.6666666666666666,2,object_10,5,1055,0,6,6,library_7,1,memory-2step-stake-s,558,1723689,0.0-19.0-0.0-0.67,A3A7O8IJMBLF5J,3SD15I2WE5AO7614M34OSYMJOYM362,3Y54SXRO1P1HUHNTN2DKF10KFV0TUR,6,5
68,3,object_04,object_01,513.29999995232,6,2,542.10000002384,0.5555555555555556,2,object_10,5,1080,0,9,5,library_8,1,memory-2step-stake-s,559,1731968,0.0-19.0-0.0-0.68,A3A7O8IJMBLF5J,3SD15I2WE5AO7614M34OSYMJOYM362,3Y54SXRO1P1HUHNTN2DKF10KFV0TUR,5,6
69,2,object_06,object_02,586.0,4,2,399.90000009537,0.4444444444444444,2,object_10,1,1084,0,7,4,forest_2,1,memory-2step-stake-s,560,1740031,0.0-19.0-0.0-0.69,A3A7O8IJMBLF5J,3SD15I2WE5AO7614M34OSYMJOYM362,3Y54SXRO1P1HUHNTN2DKF10KFV0TUR,3,4
70,3,object_01,object_04,558.89999997616,6,1,392.70000004768,0.4444444444444444,2,object_10,1,1088,0,7,4,library_3,1,memory-2step-stake-s,561,1748045,0.0-19.0-0.0-0.70,A3A7O8IJMBLF5J,3SD15I2WE5AO7614M34OSYMJOYM362,3Y54SXRO1P1HUHNTN2DKF10KFV0TUR,6,5
71,4,object_09,object_08,875.79999995232,8,1,413.5,0.7777777777777778,2,object_10,5,1123,0,9,7,restaurant_3,1,memory-2step-stake-s,562,1756425,0.0-19.0-0.0-0.71,A3A7O8IJMBLF5J,3SD15I2WE5AO7614M34OSYMJOYM362,3Y54SXRO1P1HUHNTN2DKF10KFV0TUR,8,7
72,1,object_05,object_03,880.29999995232,1,1,365.79999995232,0.6666666666666666,1,object_07,1,1129,0,6,6,desert_2,1,memory-2step-stake-s,563,1764640,0.0-19.0-0.0-0.72,A3A7O8IJMBLF5J,3SD15I2WE5AO7614M34OSYMJOYM362,3Y54SXRO1P1HUHNTN2DKF10KFV0TUR,1,2
73,4,object_09,object_08,658.69999992847,8,1,382.5,1.0,2,object_10,1,1138,0,6,9,restaurant_1,1,memory-2step-stake-s,564,1773169,0.0-19.0-0.0-0.73,A3A7O8IJMBLF5J,3SD15I2WE5AO7614M34OSYMJOYM362,3Y54SXRO1P1HUHNTN2DKF10KFV0TUR,8,7
74,4,object_09,object_08,994.10000002384,8,1,400.60000002384,1.0,2,object_10,5,1183,0,6,9,restaurant_4,1,memory-2step-stake-s,565,1781751,0.0-19.0-0.0-0.74,A3A7O8IJMBLF5J,3SD15I2WE5AO7614M34OSYMJOYM362,3Y54SXRO1P1HUHNTN2DKF10KFV0TUR,8,7
75,4,object_08,object_09,454.0,8,2,389.69999992847,0.7777777777777778,2,object_10,5,1218,0,5,7,restaurant_3,1,memory-2step-stake-s,566,1790106,0.0-19.0-0.0-0.75,A3A7O8IJMBLF5J,3SD15I2WE5AO7614M34OSYMJOYM362,3Y54SXRO1P1HUHNTN2DKF10KFV0TUR,7,8
76,3,object_01,object_04,-1.0,-1,-1,-1.0,0.0,-,0,1,1218,0,2,7,library_8,1,memory-2step-stake-s,567,1796615,0.0-19.0-0.0-0.76,A3A7O8IJMBLF5J,3SD15I2WE5AO7614M34OSYMJOYM362,3Y54SXRO1P1HUHNTN2DKF10KFV0TUR,6,5
77,2,object_02,object_06,10.899999976158,4,1,200.30000007153,0.5555555555555556,2,object_10,1,1223,0,1,5,forest_8,1,memory-2step-stake-s,568,1804572,0.0-19.0-0.0-0.77,A3A7O8IJMBLF5J,3SD15I2WE5AO7614M34OSYMJOYM362,3Y54SXRO1P1HUHNTN2DKF10KFV0TUR,4,3
78,4,object_09,object_08,430.09999990463,7,2,391.70000004768,0.0,1,object_07,5,1223,0,0,1,restaurant_3,1,memory-2step-stake-s,569,1812175,0.0-19.0-0.0-0.78,A3A7O8IJMBLF5J,3SD15I2WE5AO7614M34OSYMJOYM362,3Y54SXRO1P1HUHNTN2DKF10KFV0TUR,8,7
79,1,object_05,object_03,499.10000002384,1,1,291.5,0.0,1,object_07,1,1223,0,0,0,desert_3,1,memory-2step-stake-s,570,1819679,0.0-19.0-0.0-0.79,A3A7O8IJMBLF5J,3SD15I2WE5AO7614M34OSYMJOYM362,3Y54SXRO1P1HUHNTN2DKF10KFV0TUR,1,2
80,3,object_01,object_04,583.5,5,2,394.69999992847,0.1111111111111111,1,object_07,5,1228,0,1,0,library_8,1,memory-2step-stake-s,571,1827393,0.0-19.0-0.0-0.80,A3A7O8IJMBLF5J,3SD15I2WE5AO7614M34OSYMJOYM362,3Y54SXRO1P1HUHNTN2DKF10KFV0TUR,6,5
81,3,object_04,object_01,767.0,5,1,590.60000002384,0.1111111111111111,1,object_07,5,1233,0,1,1,library_6,1,memory-2step-stake-s,572,1835306,0.0-19.0-0.0-0.81,A3A7O8IJMBLF5J,3SD15I2WE5AO7614M34OSYMJOYM362,3Y54SXRO1P1HUHNTN2DKF10KFV0TUR,5,6
82,3,object_04,object_01,511.0,6,2,317.69999992847,0.3333333333333333,2,object_10,5,1248,0,3,3,library_7,1,memory-2step-stake-s,573,1843163,0.0-19.0-0.0-0.82,A3A7O8IJMBLF5J,3SD15I2WE5AO7614M34OSYMJOYM362,3Y54SXRO1P1HUHNTN2DKF10KFV0TUR,5,6
83,3,object_01,object_04,539.70000004768,6,1,368.70000004768,0.3333333333333333,2,object_10,5,1263,0,3,3,library_8,1,memory-2step-stake-s,574,1851065,0.0-19.0-0.0-0.83,A3A7O8IJMBLF5J,3SD15I2WE5AO7614M34OSYMJOYM362,3Y54SXRO1P1HUHNTN2DKF10KFV0TUR,6,5
84,4,object_08,object_09,779.89999997616,8,2,414.79999995232,0.4444444444444444,2,object_10,5,1283,0,1,4,restaurant_4,1,memory-2step-stake-s,575,1859102,0.0-19.0-0.0-0.84,A3A7O8IJMBLF5J,3SD15I2WE5AO7614M34OSYMJOYM362,3Y54SXRO1P1HUHNTN2DKF10KFV0TUR,7,8
85,1,object_05,object_03,494.30000007153,1,1,423.39999997616,0.3333333333333333,1,object_07,1,1286,0,3,4,desert_2,1,memory-2step-stake-s,576,1867052,0.0-19.0-0.0-0.85,A3A7O8IJMBLF5J,3SD15I2WE5AO7614M34OSYMJOYM362,3Y54SXRO1P1HUHNTN2DKF10KFV0TUR,1,2
86,3,object_04,object_01,575.10000002384,6,2,383.0,0.6666666666666666,2,object_10,1,1292,0,2,6,library_6,1,memory-2step-stake-s,577,1875262,0.0-19.0-0.0-0.86,A3A7O8IJMBLF5J,3SD15I2WE5AO7614M34OSYMJOYM362,3Y54SXRO1P1HUHNTN2DKF10KFV0TUR,5,6
87,1,object_05,object_03,733.89999997616,1,1,1134.7999999523,0.2222222222222222,1,object_07,5,1302,0,2,7,desert_2,1,memory-2step-stake-s,578,1883813,0.0-19.0-0.0-0.87,A3A7O8IJMBLF5J,3SD15I2WE5AO7614M34OSYMJOYM362,3Y54SXRO1P1HUHNTN2DKF10KFV0TUR,1,2
88,2,object_06,object_02,720.0,4,2,478.80000007153,0.7777777777777778,2,object_10,1,1309,0,4,7,forest_7,1,memory-2step-stake-s,579,1892286,0.0-19.0-0.0-0.88,A3A7O8IJMBLF5J,3SD15I2WE5AO7614M34OSYMJOYM362,3Y54SXRO1P1HUHNTN2DKF10KFV0TUR,3,4
89,4,object_09,object_08,618.39999997616,8,1,682.5,0.5555555555555556,2,object_10,5,1334,0,5,5,restaurant_5,1,memory-2step-stake-s,580,1900703,0.0-19.0-0.0-0.89,A3A7O8IJMBLF5J,3SD15I2WE5AO7614M34OSYMJOYM362,3Y54SXRO1P1HUHNTN2DKF10KFV0TUR,8,7
90,4,object_08,object_09,675.59999990463,8,2,1307.3000000715,0.8888888888888888,2,object_10,5,1374,0,4,8,restaurant_4,1,memory-2step-stake-s,581,1910066,0.0-19.0-0.0-0.90,A3A7O8IJMBLF5J,3SD15I2WE5AO7614M34OSYMJOYM362,3Y54SXRO1P1HUHNTN2DKF10KFV0TUR,7,8
91,2,object_02,object_06,901.39999997616,4,1,464.89999997616,0.7777777777777778,2,object_10,5,1409,0,0,7,forest_2,1,memory-2step-stake-s,582,1918475,0.0-19.0-0.0-0.91,A3A7O8IJMBLF5J,3SD15I2WE5AO7614M34OSYMJOYM362,3Y54SXRO1P1HUHNTN2DKF10KFV0TUR,4,3
92,3,object_04,object_01,669.90000009537,6,2,319.5,0.8888888888888888,2,object_10,5,1449,0,1,8,library_6,1,memory-2step-stake-s,583,1926821,0.0-19.0-0.0-0.92,A3A7O8IJMBLF5J,3SD15I2WE5AO7614M34OSYMJOYM362,3Y54SXRO1P1HUHNTN2DKF10KFV0TUR,5,6
93,1,object_05,object_03,628.10000002384,1,1,444.0,0.1111111111111111,1,object_07,1,1450,0,1,5,desert_3,1,memory-2step-stake-s,584,1934592,0.0-19.0-0.0-0.93,A3A7O8IJMBLF5J,3SD15I2WE5AO7614M34OSYMJOYM362,3Y54SXRO1P1HUHNTN2DKF10KFV0TUR,1,2
94,4,object_09,object_08,608.0,8,1,357.0,0.6666666666666666,2,object_10,5,1480,0,2,6,restaurant_3,1,memory-2step-stake-s,585,1942801,0.0-19.0-0.0-0.94,A3A7O8IJMBLF5J,3SD15I2WE5AO7614M34OSYMJOYM362,3Y54SXRO1P1HUHNTN2DKF10KFV0TUR,8,7
95,4,object_09,object_08,514.39999997616,8,1,362.40000009537,0.7777777777777778,2,object_10,5,1515,0,4,7,restaurant_3,1,memory-2step-stake-s,586,1951116,0.0-19.0-0.0-0.95,A3A7O8IJMBLF5J,3SD15I2WE5AO7614M34OSYMJOYM362,3Y54SXRO1P1HUHNTN2DKF10KFV0TUR,8,7
96,2,object_06,object_02,550.5,3,1,335.60000002384,0.4444444444444444,1,object_07,1,1519,0,4,8,forest_8,1,memory-2step-stake-s,587,1959082,0.0-19.0-0.0-0.96,A3A7O8IJMBLF5J,3SD15I2WE5AO7614M34OSYMJOYM362,3Y54SXRO1P1HUHNTN2DKF10KFV0TUR,3,4
97,1,object_05,object_03,661.60000002384,1,1,740.29999995232,0.4444444444444444,1,object_07,1,1523,0,4,6,desert_1,1,memory-2step-stake-s,588,1967461,0.0-19.0-0.0-0.97,A3A7O8IJMBLF5J,3SD15I2WE5AO7614M34OSYMJOYM362,3Y54SXRO1P1HUHNTN2DKF10KFV0TUR,1,2
98,2,object_02,object_06,544.79999995232,4,1,377.70000004768,0.5555555555555556,2,object_10,1,1528,0,2,5,forest_7,1,memory-2step-stake-s,589,1975572,0.0-19.0-0.0-0.98,A3A7O8IJMBLF5J,3SD15I2WE5AO7614M34OSYMJOYM362,3Y54SXRO1P1HUHNTN2DKF10KFV0TUR,4,3
99,1,object_05,object_03,458.89999997616,1,1,331.59999990463,0.6666666666666666,1,object_07,1,1534,0,6,7,desert_2,1,memory-2step-stake-s,590,1983774,0.0-19.0-0.0-0.99,A3A7O8IJMBLF5J,3SD15I2WE5AO7614M34OSYMJOYM362,3Y54SXRO1P1HUHNTN2DKF10KFV0TUR,1,2
100,3,object_01,object_04,719.89999997616,6,1,357.20000004768,0.8888888888888888,2,object_10,1,1542,0,8,8,library_3,1,memory-2step-stake-s,591,1992201,0.0-19.0-0.0-0.100,A3A7O8IJMBLF5J,3SD15I2WE5AO7614M34OSYMJOYM362,3Y54SXRO1P1HUHNTN2DKF10KFV0TUR,6,5
101,3,object_01,object_04,497.0,6,1,351.10000002384,0.8888888888888888,2,object_10,5,1582,0,5,8,library_6,1,memory-2step-stake-s,592,2000613,0.0-19.0-0.0-0.101,A3A7O8IJMBLF5J,3SD15I2WE5AO7614M34OSYMJOYM362,3Y54SXRO1P1HUHNTN2DKF10KFV0TUR,6,5
102,2,object_06,object_02,762.70000004768,4,2,507.19999992847,0.6666666666666666,2,object_10,5,1612,0,6,6,forest_7,1,memory-2step-stake-s,593,2008961,0.0-19.0-0.0-0.102,A3A7O8IJMBLF5J,3SD15I2WE5AO7614M34OSYMJOYM362,3Y54SXRO1P1HUHNTN2DKF10KFV0TUR,3,4
103,3,object_01,object_04,486.39999997616,6,1,408.29999995232,1.0,2,object_10,5,1657,0,7,9,library_8,1,memory-2step-stake-s,594,2017540,0.0-19.0-0.0-0.103,A3A7O8IJMBLF5J,3SD15I2WE5AO7614M34OSYMJOYM362,3Y54SXRO1P1HUHNTN2DKF10KFV0TUR,6,5
104,1,object_03,object_05,624.70000004768,1,2,396.29999995232,0.4444444444444444,1,object_07,1,1661,0,4,8,desert_8,1,memory-2step-stake-s,595,2025569,0.0-19.0-0.0-0.104,A3A7O8IJMBLF5J,3SD15I2WE5AO7614M34OSYMJOYM362,3Y54SXRO1P1HUHNTN2DKF10KFV0TUR,2,1
105,4,object_09,object_08,737.39999997616,8,1,366.69999992847,0.8888888888888888,2,object_10,5,1701,0,0,8,restaurant_4,1,memory-2step-stake-s,596,2034015,0.0-19.0-0.0-0.105,A3A7O8IJMBLF5J,3SD15I2WE5AO7614M34OSYMJOYM362,3Y54SXRO1P1HUHNTN2DKF10KFV0TUR,8,7
106,4,object_08,object_09,597.60000002384,8,2,302.39999997616,0.8888888888888888,2,object_10,5,1741,0,2,8,restaurant_5,1,memory-2step-stake-s,597,2042382,0.0-19.0-0.0-0.106,A3A7O8IJMBLF5J,3SD15I2WE5AO7614M34OSYMJOYM362,3Y54SXRO1P1HUHNTN2DKF10KFV0TUR,7,8
107,2,object_06,object_02,624.39999997616,4,2,288.10000002384,1.0,2,object_10,1,1750,0,3,9,forest_2,1,memory-2step-stake-s,598,2050839,0.0-19.0-0.0-0.107,A3A7O8IJMBLF5J,3SD15I2WE5AO7614M34OSYMJOYM362,3Y54SXRO1P1HUHNTN2DKF10KFV0TUR,3,4
108,1,object_05,object_03,741.79999995232,1,1,291.29999995232,0.2222222222222222,1,object_07,5,1760,0,2,5,desert_1,1,memory-2step-stake-s,599,2058555,0.0-19.0-0.0-0.108,A3A7O8IJMBLF5J,3SD15I2WE5AO7614M34OSYMJOYM362,3Y54SXRO1P1HUHNTN2DKF10KFV0TUR,1,2
109,1,object_05,object_03,639.70000004768,2,2,305.39999997616,0.6666666666666666,2,object_10,1,1766,0,2,6,desert_3,1,memory-2step-stake-s,600,2066702,0.0-19.0-0.0-0.109,A3A7O8IJMBLF5J,3SD15I2WE5AO7614M34OSYMJOYM362,3Y54SXRO1P1HUHNTN2DKF10KFV0TUR,1,2
110,3,object_04,object_01,526.20000004768,6,2,332.0,0.4444444444444444,2,object_10,5,1786,0,1,4,library_8,1,memory-2step-stake-s,601,2074678,0.0-19.0-0.0-0.110,A3A7O8IJMBLF5J,3SD15I2WE5AO7614M34OSYMJOYM362,3Y54SXRO1P1HUHNTN2DKF10KFV0TUR,5,6
111,2,object_02,object_06,749.59999990463,4,1,-1.0,0.0,2,object_10,1,1786,0,1,3,forest_2,1,memory-2step-stake-s,602,2083189,0.0-19.0-0.0-0.111,A3A7O8IJMBLF5J,3SD15I2WE5AO7614M34OSYMJOYM362,3Y54SXRO1P1HUHNTN2DKF10KFV0TUR,4,3
112,4,object_09,object_08,595.5,7,2,232.89999997616,0.0,1,object_07,5,1786,0,0,2,restaurant_4,1,memory-2step-stake-s,603,2090636,0.0-19.0-0.0-0.112,A3A7O8IJMBLF5J,3SD15I2WE5AO7614M34OSYMJOYM362,3Y54SXRO1P1HUHNTN2DKF10KFV0TUR,8,7
113,3,object_01,object_04,560.29999995232,6,1,331.40000009537,0.2222222222222222,2,object_10,5,1796,0,1,2,library_7,1,memory-2step-stake-s,604,2098391,0.0-19.0-0.0-0.113,A3A7O8IJMBLF5J,3SD15I2WE5AO7614M34OSYMJOYM362,3Y54SXRO1P1HUHNTN2DKF10KFV0TUR,6,5
114,4,object_08,object_09,563.39999997616,8,2,347.20000004768,0.0,2,object_10,1,1796,0,2,0,restaurant_1,1,memory-2step-stake-s,605,2105958,0.0-19.0-0.0-0.114,A3A7O8IJMBLF5J,3SD15I2WE5AO7614M34OSYMJOYM362,3Y54SXRO1P1HUHNTN2DKF10KFV0TUR,7,8
115,3,object_01,object_04,626.20000004768,5,2,306.19999992847,0.3333333333333333,1,object_07,5,1811,0,3,1,library_3,1,memory-2step-stake-s,606,2113781,0.0-19.0-0.0-0.115,A3A7O8IJMBLF5J,3SD15I2WE5AO7614M34OSYMJOYM362,3Y54SXRO1P1HUHNTN2DKF10KFV0TUR,6,5
116,2,object_02,object_06,585.5,3,2,458.40000009537,0.1111111111111111,1,object_07,1,1812,0,1,2,forest_2,1,memory-2step-stake-s,607,2121562,0.0-19.0-0.0-0.116,A3A7O8IJMBLF5J,3SD15I2WE5AO7614M34OSYMJOYM362,3Y54SXRO1P1HUHNTN2DKF10KFV0TUR,4,3
117,2,object_02,object_06,593.5,4,1,315.19999992847,0.5555555555555556,2,object_10,1,1817,0,2,5,forest_7,1,memory-2step-stake-s,608,2129608,0.0-19.0-0.0-0.117,A3A7O8IJMBLF5J,3SD15I2WE5AO7614M34OSYMJOYM362,3Y54SXRO1P1HUHNTN2DKF10KFV0TUR,4,3
118,3,object_01,object_04,555.0,6,1,333.20000004768,0.5555555555555556,2,object_10,5,1842,0,5,5,library_8,1,memory-2step-stake-s,609,2137687,0.0-19.0-0.0-0.118,A3A7O8IJMBLF5J,3SD15I2WE5AO7614M34OSYMJOYM362,3Y54SXRO1P1HUHNTN2DKF10KFV0TUR,6,5
119,2,object_06,object_02,545.0,4,2,465.69999992847,0.5555555555555556,2,object_10,1,1847,0,8,5,forest_2,1,memory-2step-stake-s,610,2145902,0.0-19.0-0.0-0.119,A3A7O8IJMBLF5J,3SD15I2WE5AO7614M34OSYMJOYM362,3Y54SXRO1P1HUHNTN2DKF10KFV0TUR,3,4
120,3,object_04,object_01,479.19999992847,6,2,353.89999997616,0.3333333333333333,2,object_10,5,1862,0,8,3,library_8,1,memory-2step-stake-s,611,2153780,0.0-19.0-0.0-0.120,A3A7O8IJMBLF5J,3SD15I2WE5AO7614M34OSYMJOYM362,3Y54SXRO1P1HUHNTN2DKF10KFV0TUR,5,6
121,3,object_04,object_01,318.0,6,2,366.10000002384,0.4444444444444444,2,object_10,5,1882,0,8,4,library_6,1,memory-2step-stake-s,612,2161781,0.0-19.0-0.0-0.121,A3A7O8IJMBLF5J,3SD15I2WE5AO7614M34OSYMJOYM362,3Y54SXRO1P1HUHNTN2DKF10KFV0TUR,5,6
122,4,object_08,object_09,567.10000002384,8,2,328.5,0.2222222222222222,2,object_10,5,1892,0,8,2,restaurant_1,1,memory-2step-stake-s,613,2169528,0.0-19.0-0.0-0.122,A3A7O8IJMBLF5J,3SD15I2WE5AO7614M34OSYMJOYM362,3Y54SXRO1P1HUHNTN2DKF10KFV0TUR,7,8
123,4,object_08,object_09,621.30000007153,7,1,294.69999992847,1.0,1,object_07,1,1901,0,9,1,restaurant_3,1,memory-2step-stake-s,614,2177973,0.0-19.0-0.0-0.123,A3A7O8IJMBLF5J,3SD15I2WE5AO7614M34OSYMJOYM362,3Y54SXRO1P1HUHNTN2DKF10KFV0TUR,7,8
124,2,object_02,object_06,575.5,3,2,340.0,0.8888888888888888,1,object_07,5,1941,0,8,2,forest_6,1,memory-2step-stake-s,615,2186366,0.0-19.0-0.0-0.124,A3A7O8IJMBLF5J,3SD15I2WE5AO7614M34OSYMJOYM362,3Y54SXRO1P1HUHNTN2DKF10KFV0TUR,4,3
125,2,object_02,object_06,708.30000007153,3,2,362.10000002384,0.5555555555555556,1,object_07,1,1946,0,5,1,forest_7,1,memory-2step-stake-s,616,2194485,0.0-19.0-0.0-0.125,A3A7O8IJMBLF5J,3SD15I2WE5AO7614M34OSYMJOYM362,3Y54SXRO1P1HUHNTN2DKF10KFV0TUR,4,3
126,4,object_09,object_08,611.20000004768,7,2,304.59999990463,0.8888888888888888,1,object_07,5,1986,0,8,2,restaurant_4,1,memory-2step-stake-s,617,2202832,0.0-19.0-0.0-0.126,A3A7O8IJMBLF5J,3SD15I2WE5AO7614M34OSYMJOYM362,3Y54SXRO1P1HUHNTN2DKF10KFV0TUR,8,7
127,1,object_03,object_05,726.0,2,1,288.59999990463,0.1111111111111111,2,object_10,1,1987,0,8,1,desert_1,1,memory-2step-stake-s,618,2210442,0.0-19.0-0.0-0.127,A3A7O8IJMBLF5J,3SD15I2WE5AO7614M34OSYMJOYM362,3Y54SXRO1P1HUHNTN2DKF10KFV0TUR,2,1
128,2,object_02,object_06,487.0,4,1,279.19999992847,0.1111111111111111,2,object_10,1,1988,0,6,1,forest_6,1,memory-2step-stake-s,620,2291648,0.0-19.0-0.1-0.128,A3A7O8IJMBLF5J,3SD15I2WE5AO7614M34OSYMJOYM362,3Y54SXRO1P1HUHNTN2DKF10KFV0TUR,4,3
129,4,object_09,object_08,772.5,7,2,170.30000007153,1.0,1,object_07,5,2033,0,9,3,restaurant_4,1,memory-2step-stake-s,621,2299991,0.0-19.0-0.1-0.129,A3A7O8IJMBLF5J,3SD15I2WE5AO7614M34OSYMJOYM362,3Y54SXRO1P1HUHNTN2DKF10KFV0TUR,8,7
130,3,object_01,object_04,860.5,6,1,291.5,0.1111111111111111,2,object_10,5,2038,0,7,1,library_7,1,memory-2step-stake-s,622,2307599,0.0-19.0-0.1-0.130,A3A7O8IJMBLF5J,3SD15I2WE5AO7614M34OSYMJOYM362,3Y54SXRO1P1HUHNTN2DKF10KFV0TUR,6,5
131,2,object_02,object_06,606.60000002384,3,2,257.29999995232,0.6666666666666666,1,object_07,1,2044,0,6,3,forest_8,1,memory-2step-stake-s,623,2315720,0.0-19.0-0.1-0.131,A3A7O8IJMBLF5J,3SD15I2WE5AO7614M34OSYMJOYM362,3Y54SXRO1P1HUHNTN2DKF10KFV0TUR,4,3
132,4,object_08,object_09,652.29999995232,7,1,268.30000007153,0.7777777777777778,1,object_07,5,2079,0,7,2,restaurant_1,1,memory-2step-stake-s,624,2323950,0.0-19.0-0.1-0.132,A3A7O8IJMBLF5J,3SD15I2WE5AO7614M34OSYMJOYM362,3Y54SXRO1P1HUHNTN2DKF10KFV0TUR,7,8
133,1,object_03,object_05,723.69999992847,2,1,317.70000004768,0.3333333333333333,2,object_10,1,2082,0,4,3,desert_3,1,memory-2step-stake-s,625,2331812,0.0-19.0-0.1-0.133,A3A7O8IJMBLF5J,3SD15I2WE5AO7614M34OSYMJOYM362,3Y54SXRO1P1HUHNTN2DKF10KFV0TUR,2,1
134,3,object_01,object_04,847.0,5,2,277.89999997616,0.1111111111111111,1,object_07,5,2087,0,1,4,library_6,1,memory-2step-stake-s,626,2339409,0.0-19.0-0.1-0.134,A3A7O8IJMBLF5J,3SD15I2WE5AO7614M34OSYMJOYM362,3Y54SXRO1P1HUHNTN2DKF10KFV0TUR,6,5
135,3,object_04,object_01,681.60000002384,6,2,276.89999997616,0.2222222222222222,2,object_10,5,2097,0,3,2,library_7,1,memory-2step-stake-s,627,2347123,0.0-19.0-0.1-0.135,A3A7O8IJMBLF5J,3SD15I2WE5AO7614M34OSYMJOYM362,3Y54SXRO1P1HUHNTN2DKF10KFV0TUR,5,6
136,3,object_01,object_04,693.20000004768,5,2,425.59999990463,0.2222222222222222,1,object_07,5,2107,0,2,4,library_3,1,memory-2step-stake-s,628,2354968,0.0-19.0-0.1-0.136,A3A7O8IJMBLF5J,3SD15I2WE5AO7614M34OSYMJOYM362,3Y54SXRO1P1HUHNTN2DKF10KFV0TUR,6,5
137,4,object_09,object_08,693.60000002384,8,1,262.69999992847,0.5555555555555556,2,object_10,1,2112,0,1,5,restaurant_3,1,memory-2step-stake-s,629,2362953,0.0-19.0-0.1-0.137,A3A7O8IJMBLF5J,3SD15I2WE5AO7614M34OSYMJOYM362,3Y54SXRO1P1HUHNTN2DKF10KFV0TUR,8,7
138,2,object_06,object_02,614.5,4,2,288.5,0.2222222222222222,2,object_10,1,2114,0,2,2,forest_6,1,memory-2step-stake-s,630,2370683,0.0-19.0-0.1-0.138,A3A7O8IJMBLF5J,3SD15I2WE5AO7614M34OSYMJOYM362,3Y54SXRO1P1HUHNTN2DKF10KFV0TUR,3,4
139,1,object_05,object_03,714.20000004768,2,2,386.89999997616,0.2222222222222222,2,object_10,1,2116,0,4,2,desert_2,1,memory-2step-stake-s,631,2378492,0.0-19.0-0.1-0.139,A3A7O8IJMBLF5J,3SD15I2WE5AO7614M34OSYMJOYM362,3Y54SXRO1P1HUHNTN2DKF10KFV0TUR,1,2
140,1,object_03,object_05,713.0,2,1,781.5,0.3333333333333333,2,object_10,1,2119,0,0,3,desert_8,1,memory-2step-stake-s,632,2386811,0.0-19.0-0.1-0.140,A3A7O8IJMBLF5J,3SD15I2WE5AO7614M34OSYMJOYM362,3Y54SXRO1P1HUHNTN2DKF10KFV0TUR,2,1
141,1,object_03,object_05,553.5,1,2,268.60000002384,0.1111111111111111,1,object_07,1,2120,0,1,3,desert_8,1,memory-2step-stake-s,633,2394403,0.0-19.0-0.1-0.141,A3A7O8IJMBLF5J,3SD15I2WE5AO7614M34OSYMJOYM362,3Y54SXRO1P1HUHNTN2DKF10KFV0TUR,2,1
142,4,object_09,object_08,500.0,8,1,301.69999992847,0.3333333333333333,2,object_10,1,2123,0,0,3,restaurant_4,1,memory-2step-stake-s,634,2402234,0.0-19.0-0.1-0.142,A3A7O8IJMBLF5J,3SD15I2WE5AO7614M34OSYMJOYM362,3Y54SXRO1P1HUHNTN2DKF10KFV0TUR,8,7
143,1,object_03,object_05,607.39999997616,2,1,315.89999997616,0.6666666666666666,2,object_10,1,2129,0,3,6,desert_8,1,memory-2step-stake-s,635,2410413,0.0-19.0-0.1-0.143,A3A7O8IJMBLF5J,3SD15I2WE5AO7614M34OSYMJOYM362,3Y54SXRO1P1HUHNTN2DKF10KFV0TUR,2,1
144,2,object_06,object_02,745.20000004768,3,1,202.0,0.4444444444444444,1,object_07,1,2133,0,4,5,forest_6,1,memory-2step-stake-s,636,2418233,0.0-19.0-0.1-0.144,A3A7O8IJMBLF5J,3SD15I2WE5AO7614M34OSYMJOYM362,3Y54SXRO1P1HUHNTN2DKF10KFV0TUR,3,4
145,3,object_04,object_01,1154.2999999523,6,2,279.29999995232,0.5555555555555556,2,object_10,5,2158,0,5,5,library_7,1,memory-2step-stake-s,637,2426264,0.0-19.0-0.1-0.145,A3A7O8IJMBLF5J,3SD15I2WE5AO7614M34OSYMJOYM362,3Y54SXRO1P1HUHNTN2DKF10KFV0TUR,5,6
146,3,object_01,object_04,664.0,5,2,255.89999997616,0.8888888888888888,1,object_07,5,2198,0,8,6,library_6,1,memory-2step-stake-s,638,2434550,0.0-19.0-0.1-0.146,A3A7O8IJMBLF5J,3SD15I2WE5AO7614M34OSYMJOYM362,3Y54SXRO1P1HUHNTN2DKF10KFV0TUR,6,5
147,2,object_02,object_06,700.60000002384,3,2,526.89999997616,0.6666666666666666,1,object_07,5,2228,0,6,3,forest_8,1,memory-2step-stake-s,639,2442928,0.0-19.0-0.1-0.147,A3A7O8IJMBLF5J,3SD15I2WE5AO7614M34OSYMJOYM362,3Y54SXRO1P1HUHNTN2DKF10KFV0TUR,4,3
148,3,object_04,object_01,495.89999997616,5,1,296.60000002384,0.6666666666666666,1,object_07,5,2258,0,6,3,library_8,1,memory-2step-stake-s,640,2451080,0.0-19.0-0.1-0.148,A3A7O8IJMBLF5J,3SD15I2WE5AO7614M34OSYMJOYM362,3Y54SXRO1P1HUHNTN2DKF10KFV0TUR,5,6
149,3,object_04,object_01,590.39999997616,6,2,259.5,0.0,2,object_10,5,2258,0,4,0,library_6,1,memory-2step-stake-s,641,2458573,0.0-19.0-0.1-0.149,A3A7O8IJMBLF5J,3SD15I2WE5AO7614M34OSYMJOYM362,3Y54SXRO1P1HUHNTN2DKF10KFV0TUR,5,6
150,3,object_04,object_01,1293.6000000238,6,2,487.89999997616,0.2222222222222222,2,object_10,5,2268,0,3,2,library_7,1,memory-2step-stake-s,642,2466498,0.0-19.0-0.1-0.150,A3A7O8IJMBLF5J,3SD15I2WE5AO7614M34OSYMJOYM362,3Y54SXRO1P1HUHNTN2DKF10KFV0TUR,5,6
151,4,object_08,object_09,970.10000002384,8,2,372.59999990463,0.2222222222222222,2,object_10,5,2278,0,3,2,restaurant_4,1,memory-2step-stake-s,643,2474294,0.0-19.0-0.1-0.151,A3A7O8IJMBLF5J,3SD15I2WE5AO7614M34OSYMJOYM362,3Y54SXRO1P1HUHNTN2DKF10KFV0TUR,7,8
152,2,object_06,object_02,427.5,3,1,276.0,0.4444444444444444,1,object_07,5,2298,0,4,4,forest_6,1,memory-2step-stake-s,644,2482202,0.0-19.0-0.1-0.152,A3A7O8IJMBLF5J,3SD15I2WE5AO7614M34OSYMJOYM362,3Y54SXRO1P1HUHNTN2DKF10KFV0TUR,3,4
153,1,object_05,object_03,770.30000007153,1,1,234.09999990463,0.3333333333333333,1,object_07,5,2313,0,3,4,desert_2,1,memory-2step-stake-s,645,2490001,0.0-19.0-0.1-0.153,A3A7O8IJMBLF5J,3SD15I2WE5AO7614M34OSYMJOYM362,3Y54SXRO1P1HUHNTN2DKF10KFV0TUR,1,2
154,4,object_09,object_08,838.79999995232,8,1,220.0,0.4444444444444444,2,object_10,1,2317,0,5,4,restaurant_3,1,memory-2step-stake-s,646,2497884,0.0-19.0-0.1-0.154,A3A7O8IJMBLF5J,3SD15I2WE5AO7614M34OSYMJOYM362,3Y54SXRO1P1HUHNTN2DKF10KFV0TUR,8,7
155,2,object_02,object_06,337.30000007153,4,1,232.39999997616,0.2222222222222222,2,object_10,1,2319,0,8,2,forest_8,1,memory-2step-stake-s,647,2505538,0.0-19.0-0.1-0.155,A3A7O8IJMBLF5J,3SD15I2WE5AO7614M34OSYMJOYM362,3Y54SXRO1P1HUHNTN2DKF10KFV0TUR,4,3
156,1,object_03,object_05,708.29999995232,1,2,313.0,0.6666666666666666,1,object_07,5,2349,0,6,1,desert_2,1,memory-2step-stake-s,648,2513716,0.0-19.0-0.1-0.156,A3A7O8IJMBLF5J,3SD15I2WE5AO7614M34OSYMJOYM362,3Y54SXRO1P1HUHNTN2DKF10KFV0TUR,2,1
157,1,object_03,object_05,523.5,1,2,330.79999995232,0.7777777777777778,1,object_07,1,2356,0,7,3,desert_2,1,memory-2step-stake-s,649,2522032,0.0-19.0-0.1-0.157,A3A7O8IJMBLF5J,3SD15I2WE5AO7614M34OSYMJOYM362,3Y54SXRO1P1HUHNTN2DKF10KFV0TUR,2,1
158,1,object_05,object_03,597.0,2,2,400.89999997616,0.4444444444444444,2,object_10,1,2360,0,7,4,desert_3,1,memory-2step-stake-s,650,2530082,0.0-19.0-0.1-0.158,A3A7O8IJMBLF5J,3SD15I2WE5AO7614M34OSYMJOYM362,3Y54SXRO1P1HUHNTN2DKF10KFV0TUR,1,2
159,3,object_04,object_01,586.5,6,2,480.60000002384,0.2222222222222222,2,object_10,5,2370,0,9,2,library_8,1,memory-2step-stake-s,651,2538003,0.0-19.0-0.1-0.159,A3A7O8IJMBLF5J,3SD15I2WE5AO7614M34OSYMJOYM362,3Y54SXRO1P1HUHNTN2DKF10KFV0TUR,5,6
160,2,object_02,object_06,677.59999990463,4,1,307.20000004768,0.2222222222222222,2,object_10,5,2380,0,7,2,forest_2,1,memory-2step-stake-s,652,2545742,0.0-19.0-0.1-0.160,A3A7O8IJMBLF5J,3SD15I2WE5AO7614M34OSYMJOYM362,3Y54SXRO1P1HUHNTN2DKF10KFV0TUR,4,3
161,2,object_02,object_06,695.5,3,2,271.89999997616,1.0,1,object_07,1,2389,0,9,3,forest_8,1,memory-2step-stake-s,653,2554191,0.0-19.0-0.1-0.161,A3A7O8IJMBLF5J,3SD15I2WE5AO7614M34OSYMJOYM362,3Y54SXRO1P1HUHNTN2DKF10KFV0TUR,4,3
162,1,object_03,object_05,665.39999997616,2,1,245.40000009537,0.5555555555555556,2,object_10,1,2394,0,8,5,desert_8,1,memory-2step-stake-s,654,2562172,0.0-19.0-0.1-0.162,A3A7O8IJMBLF5J,3SD15I2WE5AO7614M34OSYMJOYM362,3Y54SXRO1P1HUHNTN2DKF10KFV0TUR,2,1
163,1,object_03,object_05,757.39999997616,2,1,369.19999992847,0.6666666666666666,2,object_10,1,2400,0,6,6,desert_8,1,memory-2step-stake-s,655,2570403,0.0-19.0-0.1-0.163,A3A7O8IJMBLF5J,3SD15I2WE5AO7614M34OSYMJOYM362,3Y54SXRO1P1HUHNTN2DKF10KFV0TUR,2,1
164,2,object_06,object_02,685.5,3,1,703.60000002384,0.4444444444444444,1,object_07,1,2404,0,4,8,forest_2,1,memory-2step-stake-s,656,2578765,0.0-19.0-0.1-0.164,A3A7O8IJMBLF5J,3SD15I2WE5AO7614M34OSYMJOYM362,3Y54SXRO1P1HUHNTN2DKF10KFV0TUR,3,4
165,1,object_03,object_05,683.20000004768,1,2,296.5,0.5555555555555556,1,object_07,1,2409,0,5,8,desert_1,1,memory-2step-stake-s,657,2586792,0.0-19.0-0.1-0.165,A3A7O8IJMBLF5J,3SD15I2WE5AO7614M34OSYMJOYM362,3Y54SXRO1P1HUHNTN2DKF10KFV0TUR,2,1
166,1,object_05,object_03,696.40000009537,1,1,229.80000007153,0.0,1,object_07,1,2409,0,0,9,desert_2,1,memory-2step-stake-s,658,2594235,0.0-19.0-0.1-0.166,A3A7O8IJMBLF5J,3SD15I2WE5AO7614M34OSYMJOYM362,3Y54SXRO1P1HUHNTN2DKF10KFV0TUR,1,2
167,3,object_01,object_04,492.40000009537,5,2,334.69999992847,0.1111111111111111,1,object_07,1,2410,0,1,8,library_3,1,memory-2step-stake-s,659,2601894,0.0-19.0-0.1-0.167,A3A7O8IJMBLF5J,3SD15I2WE5AO7614M34OSYMJOYM362,3Y54SXRO1P1HUHNTN2DKF10KFV0TUR,6,5
168,1,object_03,object_05,698.29999995232,1,2,385.60000002384,0.1111111111111111,1,object_07,1,2411,0,1,8,desert_2,1,memory-2step-stake-s,660,2609601,0.0-19.0-0.1-0.168,A3A7O8IJMBLF5J,3SD15I2WE5AO7614M34OSYMJOYM362,3Y54SXRO1P1HUHNTN2DKF10KFV0TUR,2,1
169,2,object_06,object_02,488.5,4,2,271.29999995232,1.0,2,object_10,1,2420,0,3,9,forest_8,1,memory-2step-stake-s,661,2618014,0.0-19.0-0.1-0.169,A3A7O8IJMBLF5J,3SD15I2WE5AO7614M34OSYMJOYM362,3Y54SXRO1P1HUHNTN2DKF10KFV0TUR,3,4
170,4,object_09,object_08,854.89999997616,8,1,448.5,1.0,2,object_10,5,2465,0,3,9,restaurant_1,1,memory-2step-stake-s,662,2626596,0.0-19.0-0.1-0.170,A3A7O8IJMBLF5J,3SD15I2WE5AO7614M34OSYMJOYM362,3Y54SXRO1P1HUHNTN2DKF10KFV0TUR,8,7
171,2,object_02,object_06,665.20000004768,3,2,994.30000007153,0.4444444444444444,1,object_07,1,2469,0,4,9,forest_6,1,memory-2step-stake-s,663,2635227,0.0-19.0-0.1-0.171,A3A7O8IJMBLF5J,3SD15I2WE5AO7614M34OSYMJOYM362,3Y54SXRO1P1HUHNTN2DKF10KFV0TUR,4,3
172,1,object_05,object_03,1324.6999999285,1,1,274.29999995232,0.5555555555555556,1,object_07,5,2494,0,5,8,desert_2,1,memory-2step-stake-s,664,2643224,0.0-19.0-0.1-0.172,A3A7O8IJMBLF5J,3SD15I2WE5AO7614M34OSYMJOYM362,3Y54SXRO1P1HUHNTN2DKF10KFV0TUR,1,2
173,1,object_05,object_03,452.30000007153,2,2,416.0,0.6666666666666666,2,object_10,1,2500,0,3,6,desert_2,1,memory-2step-stake-s,665,2651467,0.0-19.0-0.1-0.173,A3A7O8IJMBLF5J,3SD15I2WE5AO7614M34OSYMJOYM362,3Y54SXRO1P1HUHNTN2DKF10KFV0TUR,1,2
174,4,object_09,object_08,782.19999992847,8,1,352.60000002384,0.4444444444444444,2,object_10,5,2520,0,5,4,restaurant_3,1,memory-2step-stake-s,666,2659449,0.0-19.0-0.1-0.174,A3A7O8IJMBLF5J,3SD15I2WE5AO7614M34OSYMJOYM362,3Y54SXRO1P1HUHNTN2DKF10KFV0TUR,8,7
175,4,object_08,object_09,588.29999995232,8,2,271.19999992847,0.5555555555555556,2,object_10,1,2525,0,8,5,restaurant_1,1,memory-2step-stake-s,667,2667439,0.0-19.0-0.1-0.175,A3A7O8IJMBLF5J,3SD15I2WE5AO7614M34OSYMJOYM362,3Y54SXRO1P1HUHNTN2DKF10KFV0TUR,7,8
176,2,object_06,object_02,379.69999992847,4,2,231.5,0.1111111111111111,2,object_10,1,2526,0,8,1,forest_8,1,memory-2step-stake-s,668,2674987,0.0-19.0-0.1-0.176,A3A7O8IJMBLF5J,3SD15I2WE5AO7614M34OSYMJOYM362,3Y54SXRO1P1HUHNTN2DKF10KFV0TUR,3,4
177,3,object_01,object_04,386.39999997616,6,1,290.5,0.2222222222222222,2,object_10,5,2536,0,6,2,library_8,1,memory-2step-stake-s,669,2682713,0.0-19.0-0.1-0.177,A3A7O8IJMBLF5J,3SD15I2WE5AO7614M34OSYMJOYM362,3Y54SXRO1P1HUHNTN2DKF10KFV0TUR,6,5
178,1,object_05,object_03,755.0,2,2,287.60000002384,0.3333333333333333,2,object_10,1,2539,0,2,3,desert_1,1,memory-2step-stake-s,670,2690525,0.0-19.0-0.1-0.178,A3A7O8IJMBLF5J,3SD15I2WE5AO7614M34OSYMJOYM362,3Y54SXRO1P1HUHNTN2DKF10KFV0TUR,1,2
179,3,object_04,object_01,1116.2999999523,5,1,389.69999992847,0.2222222222222222,1,object_07,5,2549,0,2,3,library_7,1,memory-2step-stake-s,671,2698354,0.0-19.0-0.1-0.179,A3A7O8IJMBLF5J,3SD15I2WE5AO7614M34OSYMJOYM362,3Y54SXRO1P1HUHNTN2DKF10KFV0TUR,5,6
180,4,object_08,object_09,872.29999995232,8,2,307.39999997616,0.6666666666666666,2,object_10,5,2579,0,4,6,restaurant_4,1,memory-2step-stake-s,672,2706512,0.0-19.0-0.1-0.180,A3A7O8IJMBLF5J,3SD15I2WE5AO7614M34OSYMJOYM362,3Y54SXRO1P1HUHNTN2DKF10KFV0TUR,7,8
181,3,object_04,object_01,559.60000002384,6,2,502.69999992847,1.0,2,object_10,5,2624,0,5,9,library_8,1,memory-2step-stake-s,673,2715192,0.0-19.0-0.1-0.181,A3A7O8IJMBLF5J,3SD15I2WE5AO7614M34OSYMJOYM362,3Y54SXRO1P1HUHNTN2DKF10KFV0TUR,5,6
182,2,object_02,object_06,580.39999997616,3,2,332.39999997616,0.7777777777777778,1,object_07,1,2631,0,7,8,forest_6,1,memory-2step-stake-s,674,2723519,0.0-19.0-0.1-0.182,A3A7O8IJMBLF5J,3SD15I2WE5AO7614M34OSYMJOYM362,3Y54SXRO1P1HUHNTN2DKF10KFV0TUR,4,3
183,4,object_08,object_09,724.5,8,2,523.19999992847,0.7777777777777778,2,object_10,1,2638,0,9,7,restaurant_4,1,memory-2step-stake-s,675,2732019,0.0-19.0-0.1-0.183,A3A7O8IJMBLF5J,3SD15I2WE5AO7614M34OSYMJOYM362,3Y54SXRO1P1HUHNTN2DKF10KFV0TUR,7,8
184,2,object_02,object_06,509.60000002384,3,2,279.79999995232,0.5555555555555556,1,object_07,1,2643,0,5,6,forest_7,1,memory-2step-stake-s,676,2740032,0.0-19.0-0.1-0.184,A3A7O8IJMBLF5J,3SD15I2WE5AO7614M34OSYMJOYM362,3Y54SXRO1P1HUHNTN2DKF10KFV0TUR,4,3
185,4,object_08,object_09,763.39999997616,7,1,307.19999992847,0.6666666666666666,1,object_07,5,2673,0,6,4,restaurant_4,1,memory-2step-stake-s,677,2748213,0.0-19.0-0.1-0.185,A3A7O8IJMBLF5J,3SD15I2WE5AO7614M34OSYMJOYM362,3Y54SXRO1P1HUHNTN2DKF10KFV0TUR,7,8
186,1,object_03,object_05,595.69999992847,2,1,288.89999997616,0.6666666666666666,2,object_10,1,2679,0,7,6,desert_3,1,memory-2step-stake-s,678,2756343,0.0-19.0-0.1-0.186,A3A7O8IJMBLF5J,3SD15I2WE5AO7614M34OSYMJOYM362,3Y54SXRO1P1HUHNTN2DKF10KFV0TUR,2,1
187,1,object_05,object_03,575.0,2,2,480.60000002384,0.7777777777777778,2,object_10,1,2686,0,4,7,desert_3,1,memory-2step-stake-s,679,2764793,0.0-19.0-0.1-0.187,A3A7O8IJMBLF5J,3SD15I2WE5AO7614M34OSYMJOYM362,3Y54SXRO1P1HUHNTN2DKF10KFV0TUR,1,2
188,2,object_06,object_02,895.30000007153,3,1,213.10000002384,0.3333333333333333,1,object_07,1,2689,0,3,5,forest_6,1,memory-2step-stake-s,680,2772548,0.0-19.0-0.1-0.188,A3A7O8IJMBLF5J,3SD15I2WE5AO7614M34OSYMJOYM362,3Y54SXRO1P1HUHNTN2DKF10KFV0TUR,3,4
189,1,object_03,object_05,668.60000002384,2,1,323.39999997616,0.2222222222222222,2,object_10,1,2691,0,1,2,desert_3,1,memory-2step-stake-s,681,2780302,0.0-19.0-0.1-0.189,A3A7O8IJMBLF5J,3SD15I2WE5AO7614M34OSYMJOYM362,3Y54SXRO1P1HUHNTN2DKF10KFV0TUR,2,1
190,3,object_01,object_04,1029.5,5,2,367.69999992847,0.1111111111111111,1,object_07,5,2696,0,1,3,library_7,1,memory-2step-stake-s,682,2787999,0.0-19.0-0.1-0.190,A3A7O8IJMBLF5J,3SD15I2WE5AO7614M34OSYMJOYM362,3Y54SXRO1P1HUHNTN2DKF10KFV0TUR,6,5
191,3,object_01,object_04,696.0,6,1,385.89999997616,0.2222222222222222,2,object_10,5,2706,0,1,2,library_8,1,memory-2step-stake-s,683,2795833,0.0-19.0-0.1-0.191,A3A7O8IJMBLF5J,3SD15I2WE5AO7614M34OSYMJOYM362,3Y54SXRO1P1HUHNTN2DKF10KFV0TUR,6,5
192,4,object_09,object_08,568.10000002384,7,2,383.80000007153,0.2222222222222222,1,object_07,5,2716,0,2,5,restaurant_1,1,memory-2step-stake-s,684,2803664,0.0-19.0-0.1-0.192,A3A7O8IJMBLF5J,3SD15I2WE5AO7614M34OSYMJOYM362,3Y54SXRO1P1HUHNTN2DKF10KFV0TUR,8,7
193,2,object_06,object_02,704.0,3,1,397.60000002384,0.3333333333333333,1,object_07,1,2719,0,3,6,forest_6,1,memory-2step-stake-s,685,2811606,0.0-19.0-0.1-0.193,A3A7O8IJMBLF5J,3SD15I2WE5AO7614M34OSYMJOYM362,3Y54SXRO1P1HUHNTN2DKF10KFV0TUR,3,4
194,4,object_09,object_08,1229.0,7,2,659.0,0.4444444444444444,1,object_07,1,2723,0,4,7,restaurant_1,1,memory-2step-stake-s,686,2819898,0.0-19.0-0.1-0.194,A3A7O8IJMBLF5J,3SD15I2WE5AO7614M34OSYMJOYM362,3Y54SXRO1P1HUHNTN2DKF10KFV0TUR,8,7
195,3,object_01,object_04,431.0,5,2,1043.0999999046,0.8888888888888888,1,object_07,1,2731,0,8,8,library_3,1,memory-2step-stake-s,687,2828984,0.0-19.0-0.1-0.195,A3A7O8IJMBLF5J,3SD15I2WE5AO7614M34OSYMJOYM362,3Y54SXRO1P1HUHNTN2DKF10KFV0TUR,6,5
196,3,object_01,object_04,506.5,6,1,378.19999992847,0.6666666666666666,2,object_10,5,2761,0,8,6,library_3,1,memory-2step-stake-s,688,2837237,0.0-19.0-0.1-0.196,A3A7O8IJMBLF5J,3SD15I2WE5AO7614M34OSYMJOYM362,3Y54SXRO1P1HUHNTN2DKF10KFV0TUR,6,5
197,4,object_08,object_09,578.70000004768,8,2,336.19999992847,0.5555555555555556,2,object_10,5,2786,0,9,5,restaurant_5,1,memory-2step-stake-s,689,2845326,0.0-19.0-0.1-0.197,A3A7O8IJMBLF5J,3SD15I2WE5AO7614M34OSYMJOYM362,3Y54SXRO1P1HUHNTN2DKF10KFV0TUR,7,8
198,1,object_03,object_05,723.89999997616,1,2,360.79999995232,0.7777777777777778,1,object_07,5,2821,0,7,8,desert_1,1,memory-2step-stake-s,690,2853668,0.0-19.0-0.1-0.198,A3A7O8IJMBLF5J,3SD15I2WE5AO7614M34OSYMJOYM362,3Y54SXRO1P1HUHNTN2DKF10KFV0TUR,2,1
199,3,object_04,object_01,780.0,6,2,357.89999997616,1.0,2,object_10,5,2866,0,4,9,library_6,1,memory-2step-stake-s,691,2862202,0.0-19.0-0.1-0.199,A3A7O8IJMBLF5J,3SD15I2WE5AO7614M34OSYMJOYM362,3Y54SXRO1P1HUHNTN2DKF10KFV0TUR,5,6
200,4,object_08,object_09,488.39999997616,8,2,502.79999995232,1.0,2,object_10,5,2911,0,7,9,restaurant_1,1,memory-2step-stake-s,692,2870882,0.0-19.0-0.1-0.200,A3A7O8IJMBLF5J,3SD15I2WE5AO7614M34OSYMJOYM362,3Y54SXRO1P1HUHNTN2DKF10KFV0TUR,7,8
201,2,object_06,object_02,680.20000004768,4,2,316.0,0.8888888888888888,2,object_10,1,2919,0,9,8,forest_8,1,memory-2step-stake-s,693,2879292,0.0-19.0-0.1-0.201,A3A7O8IJMBLF5J,3SD15I2WE5AO7614M34OSYMJOYM362,3Y54SXRO1P1HUHNTN2DKF10KFV0TUR,3,4
202,4,object_08,object_09,499.20000004768,8,2,352.89999997616,0.7777777777777778,2,object_10,5,2954,0,8,7,restaurant_3,1,memory-2step-stake-s,694,2887575,0.0-19.0-0.1-0.202,A3A7O8IJMBLF5J,3SD15I2WE5AO7614M34OSYMJOYM362,3Y54SXRO1P1HUHNTN2DKF10KFV0TUR,7,8
203,4,object_09,object_08,423.80000007153,8,1,55.5,0.7777777777777778,2,object_10,5,2989,0,7,7,restaurant_1,1,memory-2step-stake-s,695,2895602,0.0-19.0-0.1-0.203,A3A7O8IJMBLF5J,3SD15I2WE5AO7614M34OSYMJOYM362,3Y54SXRO1P1HUHNTN2DKF10KFV0TUR,8,7
204,1,object_03,object_05,702.39999997616,2,1,285.10000002384,1.0,2,object_10,1,2998,0,8,9,desert_3,1,memory-2step-stake-s,696,2904053,0.0-19.0-0.1-0.204,A3A7O8IJMBLF5J,3SD15I2WE5AO7614M34OSYMJOYM362,3Y54SXRO1P1HUHNTN2DKF10KFV0TUR,2,1
205,2,object_02,object_06,1412.6999999285,4,1,323.0,0.7777777777777778,2,object_10,5,3033,0,9,7,forest_2,1,memory-2step-stake-s,697,2912334,0.0-19.0-0.1-0.205,A3A7O8IJMBLF5J,3SD15I2WE5AO7614M34OSYMJOYM362,3Y54SXRO1P1HUHNTN2DKF10KFV0TUR,4,3
206,4,object_09,object_08,581.29999995232,8,1,295.80000007153,0.6666666666666666,2,object_10,5,3063,0,8,6,restaurant_4,1,memory-2step-stake-s,698,2920509,0.0-19.0-0.1-0.206,A3A7O8IJMBLF5J,3SD15I2WE5AO7614M34OSYMJOYM362,3Y54SXRO1P1HUHNTN2DKF10KFV0TUR,8,7
207,2,object_02,object_06,540.40000009537,4,1,279.89999997616,0.3333333333333333,2,object_10,1,3066,0,6,3,forest_6,1,memory-2step-stake-s,699,2928323,0.0-19.0-0.1-0.207,A3A7O8IJMBLF5J,3SD15I2WE5AO7614M34OSYMJOYM362,3Y54SXRO1P1HUHNTN2DKF10KFV0TUR,4,3
208,2,object_02,object_06,597.5,4,1,299.29999995232,0.3333333333333333,2,object_10,1,3069,0,6,3,forest_2,1,memory-2step-stake-s,700,2936153,0.0-19.0-0.1-0.208,A3A7O8IJMBLF5J,3SD15I2WE5AO7614M34OSYMJOYM362,3Y54SXRO1P1HUHNTN2DKF10KFV0TUR,4,3
209,2,object_02,object_06,433.29999995232,3,2,366.10000002384,0.4444444444444444,1,object_07,1,3073,0,4,2,forest_8,1,memory-2step-stake-s,701,2944150,0.0-19.0-0.1-0.209,A3A7O8IJMBLF5J,3SD15I2WE5AO7614M34OSYMJOYM362,3Y54SXRO1P1HUHNTN2DKF10KFV0TUR,4,3
210,3,object_04,object_01,870.30000007153,5,1,377.20000004768,0.5555555555555556,1,object_07,1,3078,0,5,5,library_6,1,memory-2step-stake-s,702,2952264,0.0-19.0-0.1-0.210,A3A7O8IJMBLF5J,3SD15I2WE5AO7614M34OSYMJOYM362,3Y54SXRO1P1HUHNTN2DKF10KFV0TUR,5,6
211,4,object_08,object_09,537.29999995232,7,1,372.29999995232,0.3333333333333333,1,object_07,5,3093,0,3,7,restaurant_1,1,memory-2step-stake-s,703,2960160,0.0-19.0-0.1-0.211,A3A7O8IJMBLF5J,3SD15I2WE5AO7614M34OSYMJOYM362,3Y54SXRO1P1HUHNTN2DKF10KFV0TUR,7,8
212,4,object_08,object_09,609.10000002384,7,1,303.89999997616,0.1111111111111111,1,object_07,1,3094,0,1,7,restaurant_5,1,memory-2step-stake-s,704,2967787,0.0-19.0-0.1-0.212,A3A7O8IJMBLF5J,3SD15I2WE5AO7614M34OSYMJOYM362,3Y54SXRO1P1HUHNTN2DKF10KFV0TUR,7,8
213,4,object_09,object_08,440.70000004768,8,1,871.89999997616,0.6666666666666666,2,object_10,5,3124,0,2,6,restaurant_5,1,memory-2step-stake-s,705,2976539,0.0-19.0-0.1-0.213,A3A7O8IJMBLF5J,3SD15I2WE5AO7614M34OSYMJOYM362,3Y54SXRO1P1HUHNTN2DKF10KFV0TUR,8,7
214,2,object_02,object_06,647.0,4,1,392.89999997616,0.5555555555555556,2,object_10,1,3129,0,3,5,forest_7,1,memory-2step-stake-s,706,2984680,0.0-19.0-0.1-0.214,A3A7O8IJMBLF5J,3SD15I2WE5AO7614M34OSYMJOYM362,3Y54SXRO1P1HUHNTN2DKF10KFV0TUR,4,3
215,2,object_02,object_06,538.0,4,1,1141.1999999285,0.8888888888888888,2,object_10,1,3137,0,3,8,forest_8,1,memory-2step-stake-s,707,2993903,0.0-19.0-0.1-0.215,A3A7O8IJMBLF5J,3SD15I2WE5AO7614M34OSYMJOYM362,3Y54SXRO1P1HUHNTN2DKF10KFV0TUR,4,3
216,2,object_02,object_06,754.29999995232,4,1,299.69999992847,0.7777777777777778,2,object_10,1,3144,0,2,7,forest_6,1,memory-2step-stake-s,708,3002179,0.0-19.0-0.1-0.216,A3A7O8IJMBLF5J,3SD15I2WE5AO7614M34OSYMJOYM362,3Y54SXRO1P1HUHNTN2DKF10KFV0TUR,4,3
217,3,object_04,object_01,753.30000007153,6,2,330.09999990463,1.0,2,object_10,1,3153,0,5,9,library_6,1,memory-2step-stake-s,709,3010673,0.0-19.0-0.1-0.217,A3A7O8IJMBLF5J,3SD15I2WE5AO7614M34OSYMJOYM362,3Y54SXRO1P1HUHNTN2DKF10KFV0TUR,5,6
218,3,object_04,object_01,542.60000002384,6,2,396.70000004768,0.7777777777777778,2,object_10,1,3160,0,3,7,library_3,1,memory-2step-stake-s,710,3019022,0.0-19.0-0.1-0.218,A3A7O8IJMBLF5J,3SD15I2WE5AO7614M34OSYMJOYM362,3Y54SXRO1P1HUHNTN2DKF10KFV0TUR,5,6
219,4,object_08,object_09,578.60000002384,8,2,335.60000002384,0.6666666666666666,2,object_10,5,3190,0,4,6,restaurant_5,1,memory-2step-stake-s,711,3027222,0.0-19.0-0.1-0.219,A3A7O8IJMBLF5J,3SD15I2WE5AO7614M34OSYMJOYM362,3Y54SXRO1P1HUHNTN2DKF10KFV0TUR,7,8
220,3,object_04,object_01,546.29999995232,6,2,275.20000004768,0.4444444444444444,2,object_10,5,3210,0,7,4,library_7,1,memory-2step-stake-s,712,3035128,0.0-19.0-0.1-0.220,A3A7O8IJMBLF5J,3SD15I2WE5AO7614M34OSYMJOYM362,3Y54SXRO1P1HUHNTN2DKF10KFV0TUR,5,6
221,3,object_04,object_01,487.60000002384,6,2,707.0,0.2222222222222222,2,object_10,1,3212,0,7,2,library_7,1,memory-2step-stake-s,713,3043283,0.0-19.0-0.1-0.221,A3A7O8IJMBLF5J,3SD15I2WE5AO7614M34OSYMJOYM362,3Y54SXRO1P1HUHNTN2DKF10KFV0TUR,5,6
222,2,object_06,object_02,508.80000007153,4,2,150.29999995232,0.4444444444444444,2,object_10,1,3216,0,6,4,forest_8,1,memory-2step-stake-s,714,3051089,0.0-19.0-0.1-0.222,A3A7O8IJMBLF5J,3SD15I2WE5AO7614M34OSYMJOYM362,3Y54SXRO1P1HUHNTN2DKF10KFV0TUR,3,4
223,3,object_04,object_01,549.40000009537,6,2,304.20000004768,0.4444444444444444,2,object_10,5,3236,0,3,4,library_6,1,memory-2step-stake-s,715,3059058,0.0-19.0-0.1-0.223,A3A7O8IJMBLF5J,3SD15I2WE5AO7614M34OSYMJOYM362,3Y54SXRO1P1HUHNTN2DKF10KFV0TUR,5,6
224,3,object_01,object_04,632.09999990463,5,2,291.0,0.4444444444444444,1,object_07,5,3256,0,4,5,library_8,1,memory-2step-stake-s,716,3066986,0.0-19.0-0.1-0.224,A3A7O8IJMBLF5J,3SD15I2WE5AO7614M34OSYMJOYM362,3Y54SXRO1P1HUHNTN2DKF10KFV0TUR,6,5
225,4,object_08,object_09,577.29999995232,8,2,306.5,0.4444444444444444,2,object_10,5,3276,0,3,4,restaurant_4,1,memory-2step-stake-s,717,3074910,0.0-19.0-0.1-0.225,A3A7O8IJMBLF5J,3SD15I2WE5AO7614M34OSYMJOYM362,3Y54SXRO1P1HUHNTN2DKF10KFV0TUR,7,8
226,3,object_01,object_04,574.29999995232,6,1,316.30000007153,0.4444444444444444,2,object_10,5,3296,0,3,4,library_3,1,memory-2step-stake-s,718,3082859,0.0-19.0-0.1-0.226,A3A7O8IJMBLF5J,3SD15I2WE5AO7614M34OSYMJOYM362,3Y54SXRO1P1HUHNTN2DKF10KFV0TUR,6,5
227,4,object_09,object_08,489.79999995232,7,2,313.10000002384,0.5555555555555556,1,object_07,5,3321,0,5,5,restaurant_4,1,memory-2step-stake-s,719,3090913,0.0-19.0-0.1-0.227,A3A7O8IJMBLF5J,3SD15I2WE5AO7614M34OSYMJOYM362,3Y54SXRO1P1HUHNTN2DKF10KFV0TUR,8,7
228,2,object_06,object_02,435.10000002384,3,1,262.39999997616,0.5555555555555556,1,object_07,1,3326,0,5,5,forest_7,1,memory-2step-stake-s,720,3098898,0.0-19.0-0.1-0.228,A3A7O8IJMBLF5J,3SD15I2WE5AO7614M34OSYMJOYM362,3Y54SXRO1P1HUHNTN2DKF10KFV0TUR,3,4
229,1,object_03,object_05,594.70000004768,2,1,283.09999990463,0.6666666666666666,2,object_10,1,3332,0,5,6,desert_1,1,memory-2step-stake-s,721,3107029,0.0-19.0-0.1-0.229,A3A7O8IJMBLF5J,3SD15I2WE5AO7614M34OSYMJOYM362,3Y54SXRO1P1HUHNTN2DKF10KFV0TUR,2,1
230,1,object_05,object_03,615.39999997616,2,2,275.89999997616,0.6666666666666666,2,object_10,1,3338,0,6,6,desert_3,1,memory-2step-stake-s,722,3115169,0.0-19.0-0.1-0.230,A3A7O8IJMBLF5J,3SD15I2WE5AO7614M34OSYMJOYM362,3Y54SXRO1P1HUHNTN2DKF10KFV0TUR,1,2
231,2,object_06,object_02,543.59999990463,4,2,275.19999992847,0.8888888888888888,2,object_10,1,3346,0,6,8,forest_6,1,memory-2step-stake-s,723,3123515,0.0-19.0-0.1-0.231,A3A7O8IJMBLF5J,3SD15I2WE5AO7614M34OSYMJOYM362,3Y54SXRO1P1HUHNTN2DKF10KFV0TUR,3,4
232,2,object_02,object_06,666.59999990463,4,1,375.10000002384,0.7777777777777778,2,object_10,5,3381,0,5,7,forest_6,1,memory-2step-stake-s,724,3131844,0.0-19.0-0.1-0.232,A3A7O8IJMBLF5J,3SD15I2WE5AO7614M34OSYMJOYM362,3Y54SXRO1P1HUHNTN2DKF10KFV0TUR,4,3
233,1,object_05,object_03,792.79999995232,1,1,268.20000004768,0.6666666666666666,1,object_07,1,3387,0,6,8,desert_8,1,memory-2step-stake-s,725,3139995,0.0-19.0-0.1-0.233,A3A7O8IJMBLF5J,3SD15I2WE5AO7614M34OSYMJOYM362,3Y54SXRO1P1HUHNTN2DKF10KFV0TUR,1,2
234,2,object_02,object_06,633.10000002384,4,1,210.80000007153,0.5555555555555556,2,object_10,1,3392,0,2,5,forest_7,1,memory-2step-stake-s,726,3147952,0.0-19.0-0.1-0.234,A3A7O8IJMBLF5J,3SD15I2WE5AO7614M34OSYMJOYM362,3Y54SXRO1P1HUHNTN2DKF10KFV0TUR,4,3
235,2,object_02,object_06,739.69999992847,4,1,294.10000002384,0.6666666666666666,2,object_10,1,3398,0,2,6,forest_6,1,memory-2step-stake-s,727,3156105,0.0-19.0-0.1-0.235,A3A7O8IJMBLF5J,3SD15I2WE5AO7614M34OSYMJOYM362,3Y54SXRO1P1HUHNTN2DKF10KFV0TUR,4,3
236,4,object_09,object_08,697.59999990463,8,1,291.10000002384,0.5555555555555556,2,object_10,5,3423,0,3,5,restaurant_3,1,memory-2step-stake-s,728,3164132,0.0-19.0-0.1-0.236,A3A7O8IJMBLF5J,3SD15I2WE5AO7614M34OSYMJOYM362,3Y54SXRO1P1HUHNTN2DKF10KFV0TUR,8,7
237,1,object_05,object_03,458.5,1,1,314.0,0.5555555555555556,1,object_07,1,3428,0,5,6,desert_3,1,memory-2step-stake-s,729,3172191,0.0-19.0-0.1-0.237,A3A7O8IJMBLF5J,3SD15I2WE5AO7614M34OSYMJOYM362,3Y54SXRO1P1HUHNTN2DKF10KFV0TUR,1,2
238,4,object_09,object_08,987.09999990463,8,1,269.60000002384,0.3333333333333333,2,object_10,5,3443,0,5,3,restaurant_3,1,memory-2step-stake-s,730,3179988,0.0-19.0-0.1-0.238,A3A7O8IJMBLF5J,3SD15I2WE5AO7614M34OSYMJOYM362,3Y54SXRO1P1HUHNTN2DKF10KFV0TUR,8,7
239,3,object_01,object_04,598.59999990463,6,1,410.29999995232,0.5555555555555556,2,object_10,5,3468,0,5,5,library_6,1,memory-2step-stake-s,731,3188148,0.0-19.0-0.1-0.239,A3A7O8IJMBLF5J,3SD15I2WE5AO7614M34OSYMJOYM362,3Y54SXRO1P1HUHNTN2DKF10KFV0TUR,6,5
240,4,object_09,object_08,946.0,8,1,200.10000002384,0.6666666666666666,2,object_10,5,3498,0,4,6,restaurant_5,1,memory-2step-stake-s,732,3196185,0.0-19.0-0.1-0.240,A3A7O8IJMBLF5J,3SD15I2WE5AO7614M34OSYMJOYM362,3Y54SXRO1P1HUHNTN2DKF10KFV0TUR,8,7
241,1,object_03,object_05,506.5,2,1,335.10000002384,0.7777777777777778,2,object_10,1,3505,0,6,7,desert_2,1,memory-2step-stake-s,733,3204509,0.0-19.0-0.1-0.241,A3A7O8IJMBLF5J,3SD15I2WE5AO7614M34OSYMJOYM362,3Y54SXRO1P1HUHNTN2DKF10KFV0TUR,2,1
242,4,object_08,object_09,1204.2000000477,8,2,467.10000002384,0.5555555555555556,2,object_10,5,3530,0,7,5,restaurant_4,1,memory-2step-stake-s,734,3212695,0.0-19.0-0.1-0.242,A3A7O8IJMBLF5J,3SD15I2WE5AO7614M34OSYMJOYM362,3Y54SXRO1P1HUHNTN2DKF10KFV0TUR,7,8
243,1,object_03,object_05,727.0,2,1,574.10000002384,0.5555555555555556,2,object_10,5,3555,0,4,5,desert_8,1,memory-2step-stake-s,735,3221040,0.0-19.0-0.1-0.243,A3A7O8IJMBLF5J,3SD15I2WE5AO7614M34OSYMJOYM362,3Y54SXRO1P1HUHNTN2DKF10KFV0TUR,2,1
244,4,object_08,object_09,471.20000004768,8,2,250.5,0.4444444444444444,2,object_10,5,3575,0,1,4,restaurant_5,1,memory-2step-stake-s,736,3228922,0.0-19.0-0.1-0.244,A3A7O8IJMBLF5J,3SD15I2WE5AO7614M34OSYMJOYM362,3Y54SXRO1P1HUHNTN2DKF10KFV0TUR,7,8
245,3,object_04,object_01,623.20000004768,6,2,329.0,0.0,2,object_10,5,3575,0,1,0,library_8,1,memory-2step-stake-s,737,3236464,0.0-19.0-0.1-0.245,A3A7O8IJMBLF5J,3SD15I2WE5AO7614M34OSYMJOYM362,3Y54SXRO1P1HUHNTN2DKF10KFV0TUR,5,6
246,3,object_04,object_01,826.90000009537,5,1,281.09999990463,0.1111111111111111,1,object_07,1,3576,0,1,2,library_3,1,memory-2step-stake-s,738,3244064,0.0-19.0-0.1-0.246,A3A7O8IJMBLF5J,3SD15I2WE5AO7614M34OSYMJOYM362,3Y54SXRO1P1HUHNTN2DKF10KFV0TUR,5,6
247,1,object_05,object_03,435.60000002384,1,1,279.60000002384,0.2222222222222222,1,object_07,1,3578,0,2,1,desert_2,1,memory-2step-stake-s,739,3251785,0.0-19.0-0.1-0.247,A3A7O8IJMBLF5J,3SD15I2WE5AO7614M34OSYMJOYM362,3Y54SXRO1P1HUHNTN2DKF10KFV0TUR,1,2
248,1,object_05,object_03,414.80000007153,1,1,747.60000002384,0.3333333333333333,1,object_07,1,3581,0,3,5,desert_2,1,memory-2step-stake-s,740,3260075,0.0-19.0-0.1-0.248,A3A7O8IJMBLF5J,3SD15I2WE5AO7614M34OSYMJOYM362,3Y54SXRO1P1HUHNTN2DKF10KFV0TUR,1,2
249,1,object_03,object_05,472.20000004768,1,2,255.09999990463,0.1111111111111111,1,object_07,5,3586,0,1,6,desert_8,1,memory-2step-stake-s,741,3267654,0.0-19.0-0.1-0.249,A3A7O8IJMBLF5J,3SD15I2WE5AO7614M34OSYMJOYM362,3Y54SXRO1P1HUHNTN2DKF10KFV0TUR,2,1
250,1,object_03,object_05,483.89999997616,2,1,318.70000004768,0.8888888888888888,2,object_10,1,3594,0,1,8,desert_8,1,memory-2step-stake-s,742,3276050,0.0-19.0-0.1-0.250,A3A7O8IJMBLF5J,3SD15I2WE5AO7614M34OSYMJOYM362,3Y54SXRO1P1HUHNTN2DKF10KFV0TUR,2,1
251,3,object_04,object_01,765.10000002384,6,2,305.20000004768,0.7777777777777778,2,object_10,5,3629,0,3,7,library_3,1,memory-2step-stake-s,743,3284333,0.0-19.0-0.1-0.251,A3A7O8IJMBLF5J,3SD15I2WE5AO7614M34OSYMJOYM362,3Y54SXRO1P1HUHNTN2DKF10KFV0TUR,5,6
252,3,object_01,object_04,524.0,6,1,198.80000007153,0.8888888888888888,2,object_10,5,3669,0,2,8,library_3,1,memory-2step-stake-s,744,3292598,0.0-19.0-0.1-0.252,A3A7O8IJMBLF5J,3SD15I2WE5AO7614M34OSYMJOYM362,3Y54SXRO1P1HUHNTN2DKF10KFV0TUR,6,5
253,2,object_06,object_02,735.70000004768,3,1,240.60000002384,0.4444444444444444,1,object_07,5,3689,0,4,9,forest_2,1,memory-2step-stake-s,745,3300475,0.0-19.0-0.1-0.253,A3A7O8IJMBLF5J,3SD15I2WE5AO7614M34OSYMJOYM362,3Y54SXRO1P1HUHNTN2DKF10KFV0TUR,3,4
254,1,object_05,object_03,635.5,1,1,226.79999995232,0.5555555555555556,1,object_07,1,3694,0,5,6,desert_8,1,memory-2step-stake-s,746,3308451,0.0-19.0-0.1-0.254,A3A7O8IJMBLF5J,3SD15I2WE5AO7614M34OSYMJOYM362,3Y54SXRO1P1HUHNTN2DKF10KFV0TUR,1,2
255,1,object_03,object_05,715.39999997616,2,1,285.79999995232,0.6666666666666666,2,object_10,5,3724,0,8,6,desert_3,1,memory-2step-stake-s,747,3316588,0.0-19.0-0.1-0.255,A3A7O8IJMBLF5J,3SD15I2WE5AO7614M34OSYMJOYM362,3Y54SXRO1P1HUHNTN2DKF10KFV0TUR,2,1
