,state1,stim_left,stim_right,rt_1,choice1,response1,rt_2,points,state2,stim_state2,stake,score,practice,rews1,rews2,background,high_arm,trial_type,trial_index,time_elapsed,internal_node_id,subid,hitid,assignmentid,stim_left_num,stim_right_num
0,3,object_02,object_03,731.0,6,2,1140.0,0.0,2,object_07,1,0,0,0,0,library_2,2,memory-2step-stake-s,494,2259068,0.0-19.0-0.0-0.0,A11YS0T8MV3Q7C,31KPKEKW5DTYWQJ2Z73D1GA4ZNDB00,38JBBYETQSQGO0BHI1X73B2PD9Y4E0,5,6
1,4,object_01,object_09,416.0,8,1,421.0,0.3333333333333333,2,object_07,1,3,0,2,3,restaurant_8,2,memory-2step-stake-s,495,2267079,0.0-19.0-0.0-0.1,A11YS0T8MV3Q7C,31KPKEKW5DTYWQJ2Z73D1GA4ZNDB00,38JBBYETQSQGO0BHI1X73B2PD9Y4E0,8,7
2,2,object_10,object_05,582.0,3,1,406.0,0.1111111111111111,1,object_04,5,8,0,1,5,forest_7,2,memory-2step-stake-s,496,2274860,0.0-19.0-0.0-0.2,A11YS0T8MV3Q7C,31KPKEKW5DTYWQJ2Z73D1GA4ZNDB00,38JBBYETQSQGO0BHI1X73B2PD9Y4E0,3,4
3,1,object_08,object_06,362.0,2,2,332.0,0.3333333333333333,2,object_07,5,23,0,1,3,desert_1,2,memory-2step-stake-s,497,2282781,0.0-19.0-0.0-0.3,A11YS0T8MV3Q7C,31KPKEKW5DTYWQJ2Z73D1GA4ZNDB00,38JBBYETQSQGO0BHI1X73B2PD9Y4E0,1,2
4,1,object_06,object_08,233.0,2,1,395.0,0.8888888888888888,2,object_07,1,31,0,4,8,desert_6,2,memory-2step-stake-s,498,2291302,0.0-19.0-0.0-0.4,A11YS0T8MV3Q7C,31KPKEKW5DTYWQJ2Z73D1GA4ZNDB00,38JBBYETQSQGO0BHI1X73B2PD9Y4E0,2,1
5,1,object_06,object_08,368.0,1,2,369.0,0.4444444444444444,1,object_04,5,51,0,4,8,desert_4,2,memory-2step-stake-s,499,2299371,0.0-19.0-0.0-0.5,A11YS0T8MV3Q7C,31KPKEKW5DTYWQJ2Z73D1GA4ZNDB00,38JBBYETQSQGO0BHI1X73B2PD9Y4E0,2,1
6,3,object_02,object_03,265.0,5,1,450.0,0.6666666666666666,1,object_04,1,57,0,6,8,library_8,2,memory-2step-stake-s,500,2307733,0.0-19.0-0.0-0.6,A11YS0T8MV3Q7C,31KPKEKW5DTYWQJ2Z73D1GA4ZNDB00,38JBBYETQSQGO0BHI1X73B2PD9Y4E0,5,6
7,1,object_06,object_08,504.0,1,2,362.0,0.5555555555555556,1,object_04,5,82,0,5,8,desert_4,2,memory-2step-stake-s,501,2315903,0.0-19.0-0.0-0.7,A11YS0T8MV3Q7C,31KPKEKW5DTYWQJ2Z73D1GA4ZNDB00,38JBBYETQSQGO0BHI1X73B2PD9Y4E0,2,1
8,3,object_03,object_02,351.0,6,1,329.0,0.6666666666666666,2,object_07,5,112,0,7,6,library_2,2,memory-2step-stake-s,502,2324144,0.0-19.0-0.0-0.8,A11YS0T8MV3Q7C,31KPKEKW5DTYWQJ2Z73D1GA4ZNDB00,38JBBYETQSQGO0BHI1X73B2PD9Y4E0,6,5
9,2,object_10,object_05,437.0,4,2,455.0,0.8888888888888888,2,object_07,5,152,0,7,8,forest_5,2,memory-2step-stake-s,503,2332744,0.0-19.0-0.0-0.9,A11YS0T8MV3Q7C,31KPKEKW5DTYWQJ2Z73D1GA4ZNDB00,38JBBYETQSQGO0BHI1X73B2PD9Y4E0,3,4
10,4,object_01,object_09,374.0,8,1,318.0,1.0,2,object_07,1,161,0,7,9,restaurant_8,2,memory-2step-stake-s,504,2341296,0.0-19.0-0.0-0.10,A11YS0T8MV3Q7C,31KPKEKW5DTYWQJ2Z73D1GA4ZNDB00,38JBBYETQSQGO0BHI1X73B2PD9Y4E0,8,7
11,4,object_09,object_01,1350.0,8,2,384.0,0.7777777777777778,2,object_07,1,168,0,8,7,restaurant_7,2,memory-2step-stake-s,505,2349705,0.0-19.0-0.0-0.11,A11YS0T8MV3Q7C,31KPKEKW5DTYWQJ2Z73D1GA4ZNDB00,38JBBYETQSQGO0BHI1X73B2PD9Y4E0,7,8
12,1,object_08,object_06,253.0,1,1,287.0,0.5555555555555556,1,object_04,5,193,0,5,9,desert_2,2,memory-2step-stake-s,506,2357805,0.0-19.0-0.0-0.12,A11YS0T8MV3Q7C,31KPKEKW5DTYWQJ2Z73D1GA4ZNDB00,38JBBYETQSQGO0BHI1X73B2PD9Y4E0,1,2
13,2,object_10,object_05,513.0,4,2,284.0,0.5555555555555556,2,object_07,5,218,0,7,5,forest_7,2,memory-2step-stake-s,507,2365885,0.0-19.0-0.0-0.13,A11YS0T8MV3Q7C,31KPKEKW5DTYWQJ2Z73D1GA4ZNDB00,38JBBYETQSQGO0BHI1X73B2PD9Y4E0,3,4
14,2,object_05,object_10,512.0,4,1,273.0,0.7777777777777778,2,object_07,5,253,0,6,7,forest_7,2,memory-2step-stake-s,508,2374186,0.0-19.0-0.0-0.14,A11YS0T8MV3Q7C,31KPKEKW5DTYWQJ2Z73D1GA4ZNDB00,38JBBYETQSQGO0BHI1X73B2PD9Y4E0,4,3
15,3,object_02,object_03,243.0,6,2,253.0,0.5555555555555556,2,object_07,5,278,0,4,5,library_3,2,memory-2step-stake-s,509,2382247,0.0-19.0-0.0-0.15,A11YS0T8MV3Q7C,31KPKEKW5DTYWQJ2Z73D1GA4ZNDB00,38JBBYETQSQGO0BHI1X73B2PD9Y4E0,5,6
16,1,object_08,object_06,254.0,2,2,304.0,0.7777777777777778,2,object_07,1,285,0,9,7,desert_6,2,memory-2step-stake-s,510,2390567,0.0-19.0-0.0-0.16,A11YS0T8MV3Q7C,31KPKEKW5DTYWQJ2Z73D1GA4ZNDB00,38JBBYETQSQGO0BHI1X73B2PD9Y4E0,1,2
17,3,object_03,object_02,414.0,6,1,249.0,0.5555555555555556,2,object_07,1,290,0,7,5,library_7,2,memory-2step-stake-s,511,2398618,0.0-19.0-0.0-0.17,A11YS0T8MV3Q7C,31KPKEKW5DTYWQJ2Z73D1GA4ZNDB00,38JBBYETQSQGO0BHI1X73B2PD9Y4E0,6,5
18,2,object_10,object_05,356.0,4,2,221.0,0.6666666666666666,2,object_07,5,320,0,8,6,forest_7,2,memory-2step-stake-s,512,2406759,0.0-19.0-0.0-0.18,A11YS0T8MV3Q7C,31KPKEKW5DTYWQJ2Z73D1GA4ZNDB00,38JBBYETQSQGO0BHI1X73B2PD9Y4E0,3,4
19,1,object_08,object_06,438.0,1,1,449.0,0.6666666666666666,1,object_04,1,326,0,6,7,desert_4,2,memory-2step-stake-s,513,2415129,0.0-19.0-0.0-0.19,A11YS0T8MV3Q7C,31KPKEKW5DTYWQJ2Z73D1GA4ZNDB00,38JBBYETQSQGO0BHI1X73B2PD9Y4E0,1,2
20,4,object_09,object_01,693.0,8,2,1030.0,1.0,2,object_07,5,371,0,7,9,restaurant_6,2,memory-2step-stake-s,514,2424399,0.0-19.0-0.0-0.20,A11YS0T8MV3Q7C,31KPKEKW5DTYWQJ2Z73D1GA4ZNDB00,38JBBYETQSQGO0BHI1X73B2PD9Y4E0,7,8
21,1,object_08,object_06,608.0,1,1,361.0,0.6666666666666666,1,object_04,1,377,0,6,8,desert_4,2,memory-2step-stake-s,515,2432671,0.0-19.0-0.0-0.21,A11YS0T8MV3Q7C,31KPKEKW5DTYWQJ2Z73D1GA4ZNDB00,38JBBYETQSQGO0BHI1X73B2PD9Y4E0,1,2
22,1,object_08,object_06,279.0,2,2,296.0,0.8888888888888888,2,object_07,5,417,0,6,8,desert_2,2,memory-2step-stake-s,516,2441101,0.0-19.0-0.0-0.22,A11YS0T8MV3Q7C,31KPKEKW5DTYWQJ2Z73D1GA4ZNDB00,38JBBYETQSQGO0BHI1X73B2PD9Y4E0,1,2
23,3,object_02,object_03,497.0,6,2,323.0,0.7777777777777778,2,object_07,5,452,0,5,7,library_3,2,memory-2step-stake-s,517,2449432,0.0-19.0-0.0-0.23,A11YS0T8MV3Q7C,31KPKEKW5DTYWQJ2Z73D1GA4ZNDB00,38JBBYETQSQGO0BHI1X73B2PD9Y4E0,5,6
24,1,object_06,object_08,872.0,2,1,514.0,1.0,2,object_07,5,497,0,7,9,desert_4,2,memory-2step-stake-s,518,2458185,0.0-19.0-0.0-0.24,A11YS0T8MV3Q7C,31KPKEKW5DTYWQJ2Z73D1GA4ZNDB00,38JBBYETQSQGO0BHI1X73B2PD9Y4E0,2,1
25,1,object_06,object_08,414.0,1,2,623.0,1.0,1,object_04,5,542,0,9,8,desert_1,2,memory-2step-stake-s,519,2467054,0.0-19.0-0.0-0.25,A11YS0T8MV3Q7C,31KPKEKW5DTYWQJ2Z73D1GA4ZNDB00,38JBBYETQSQGO0BHI1X73B2PD9Y4E0,2,1
26,1,object_08,object_06,577.0,2,2,371.0,1.0,2,object_07,5,587,0,6,9,desert_2,2,memory-2step-stake-s,520,2475647,0.0-19.0-0.0-0.26,A11YS0T8MV3Q7C,31KPKEKW5DTYWQJ2Z73D1GA4ZNDB00,38JBBYETQSQGO0BHI1X73B2PD9Y4E0,1,2
27,2,object_10,object_05,519.0,4,2,267.0,0.7777777777777778,2,object_07,5,622,0,6,7,forest_6,2,memory-2step-stake-s,521,2483937,0.0-19.0-0.0-0.27,A11YS0T8MV3Q7C,31KPKEKW5DTYWQJ2Z73D1GA4ZNDB00,38JBBYETQSQGO0BHI1X73B2PD9Y4E0,3,4
28,4,object_01,object_09,1164.0,7,2,343.0,0.8888888888888888,1,object_04,1,630,0,8,8,restaurant_6,2,memory-2step-stake-s,522,2492418,0.0-19.0-0.0-0.28,A11YS0T8MV3Q7C,31KPKEKW5DTYWQJ2Z73D1GA4ZNDB00,38JBBYETQSQGO0BHI1X73B2PD9Y4E0,8,7
29,2,object_05,object_10,356.0,4,1,262.0,1.0,2,object_07,5,675,0,5,9,forest_1,2,memory-2step-stake-s,523,2500928,0.0-19.0-0.0-0.29,A11YS0T8MV3Q7C,31KPKEKW5DTYWQJ2Z73D1GA4ZNDB00,38JBBYETQSQGO0BHI1X73B2PD9Y4E0,4,3
30,2,object_05,object_10,405.0,4,1,663.0,1.0,2,object_07,5,720,0,3,9,forest_5,2,memory-2step-stake-s,524,2509838,0.0-19.0-0.0-0.30,A11YS0T8MV3Q7C,31KPKEKW5DTYWQJ2Z73D1GA4ZNDB00,38JBBYETQSQGO0BHI1X73B2PD9Y4E0,4,3
31,2,object_10,object_05,464.0,4,2,465.0,0.8888888888888888,2,object_07,5,760,0,1,8,forest_6,2,memory-2step-stake-s,525,2518449,0.0-19.0-0.0-0.31,A11YS0T8MV3Q7C,31KPKEKW5DTYWQJ2Z73D1GA4ZNDB00,38JBBYETQSQGO0BHI1X73B2PD9Y4E0,3,4
32,4,object_09,object_01,781.0,8,2,622.0,0.8888888888888888,2,object_07,1,768,0,4,8,restaurant_5,2,memory-2step-stake-s,526,2527209,0.0-19.0-0.0-0.32,A11YS0T8MV3Q7C,31KPKEKW5DTYWQJ2Z73D1GA4ZNDB00,38JBBYETQSQGO0BHI1X73B2PD9Y4E0,7,8
33,1,object_08,object_06,637.0,1,1,718.0,0.2222222222222222,1,object_04,5,778,0,2,6,desert_6,2,memory-2step-stake-s,527,2535401,0.0-19.0-0.0-0.33,A11YS0T8MV3Q7C,31KPKEKW5DTYWQJ2Z73D1GA4ZNDB00,38JBBYETQSQGO0BHI1X73B2PD9Y4E0,1,2
34,2,object_05,object_10,782.0,4,1,399.0,0.6666666666666666,2,object_07,5,808,0,1,6,forest_1,2,memory-2step-stake-s,528,2543720,0.0-19.0-0.0-0.34,A11YS0T8MV3Q7C,31KPKEKW5DTYWQJ2Z73D1GA4ZNDB00,38JBBYETQSQGO0BHI1X73B2PD9Y4E0,4,3
35,1,object_08,object_06,566.0,1,1,590.0,0.3333333333333333,1,object_04,5,823,0,3,8,desert_1,2,memory-2step-stake-s,529,2551891,0.0-19.0-0.0-0.35,A11YS0T8MV3Q7C,31KPKEKW5DTYWQJ2Z73D1GA4ZNDB00,38JBBYETQSQGO0BHI1X73B2PD9Y4E0,1,2
36,2,object_05,object_10,906.0,4,1,540.0,0.8888888888888888,2,object_07,1,831,0,5,8,forest_5,2,memory-2step-stake-s,530,2560571,0.0-19.0-0.0-0.36,A11YS0T8MV3Q7C,31KPKEKW5DTYWQJ2Z73D1GA4ZNDB00,38JBBYETQSQGO0BHI1X73B2PD9Y4E0,4,3
37,1,object_08,object_06,802.0,1,1,-1.0,0.0,1,object_04,5,831,0,5,9,desert_2,2,memory-2step-stake-s,531,2569132,0.0-19.0-0.0-0.37,A11YS0T8MV3Q7C,31KPKEKW5DTYWQJ2Z73D1GA4ZNDB00,38JBBYETQSQGO0BHI1X73B2PD9Y4E0,1,2
38,1,object_08,object_06,516.0,1,1,345.0,0.6666666666666666,1,object_04,5,861,0,6,8,desert_4,2,memory-2step-stake-s,532,2577372,0.0-19.0-0.0-0.38,A11YS0T8MV3Q7C,31KPKEKW5DTYWQJ2Z73D1GA4ZNDB00,38JBBYETQSQGO0BHI1X73B2PD9Y4E0,1,2
39,1,object_08,object_06,577.0,1,1,323.0,0.4444444444444444,1,object_04,1,865,0,4,8,desert_2,2,memory-2step-stake-s,533,2585383,0.0-19.0-0.0-0.39,A11YS0T8MV3Q7C,31KPKEKW5DTYWQJ2Z73D1GA4ZNDB00,38JBBYETQSQGO0BHI1X73B2PD9Y4E0,1,2
40,2,object_10,object_05,254.0,4,2,487.0,1.0,2,object_07,1,874,0,4,9,forest_5,2,memory-2step-stake-s,534,2594114,0.0-19.0-0.0-0.40,A11YS0T8MV3Q7C,31KPKEKW5DTYWQJ2Z73D1GA4ZNDB00,38JBBYETQSQGO0BHI1X73B2PD9Y4E0,3,4
41,1,object_06,object_08,515.0,1,2,464.0,0.5555555555555556,1,object_04,5,899,0,5,7,desert_4,2,memory-2step-stake-s,535,2602384,0.0-19.0-0.0-0.41,A11YS0T8MV3Q7C,31KPKEKW5DTYWQJ2Z73D1GA4ZNDB00,38JBBYETQSQGO0BHI1X73B2PD9Y4E0,2,1
42,4,object_01,object_09,638.0,8,1,579.0,0.7777777777777778,2,object_07,5,934,0,9,7,restaurant_8,2,memory-2step-stake-s,536,2610984,0.0-19.0-0.0-0.42,A11YS0T8MV3Q7C,31KPKEKW5DTYWQJ2Z73D1GA4ZNDB00,38JBBYETQSQGO0BHI1X73B2PD9Y4E0,8,7
43,2,object_05,object_10,837.0,4,1,-1.0,0.0,2,object_07,1,934,0,7,5,forest_7,2,memory-2step-stake-s,537,2619535,0.0-19.0-0.0-0.43,A11YS0T8MV3Q7C,31KPKEKW5DTYWQJ2Z73D1GA4ZNDB00,38JBBYETQSQGO0BHI1X73B2PD9Y4E0,4,3
44,3,object_02,object_03,567.0,6,2,426.0,0.3333333333333333,2,object_07,1,937,0,6,3,library_2,2,memory-2step-stake-s,538,2627535,0.0-19.0-0.0-0.44,A11YS0T8MV3Q7C,31KPKEKW5DTYWQJ2Z73D1GA4ZNDB00,38JBBYETQSQGO0BHI1X73B2PD9Y4E0,5,6
45,3,object_03,object_02,487.0,6,1,554.0,0.3333333333333333,2,object_07,5,952,0,7,3,library_3,2,memory-2step-stake-s,539,2635666,0.0-19.0-0.0-0.45,A11YS0T8MV3Q7C,31KPKEKW5DTYWQJ2Z73D1GA4ZNDB00,38JBBYETQSQGO0BHI1X73B2PD9Y4E0,6,5
46,1,object_08,object_06,467.0,1,1,796.0,0.7777777777777778,1,object_04,5,987,0,7,2,desert_2,2,memory-2step-stake-s,540,2644496,0.0-19.0-0.0-0.46,A11YS0T8MV3Q7C,31KPKEKW5DTYWQJ2Z73D1GA4ZNDB00,38JBBYETQSQGO0BHI1X73B2PD9Y4E0,1,2
47,1,object_06,object_08,486.0,1,2,713.0,0.3333333333333333,1,object_04,5,1002,0,3,4,desert_1,2,memory-2step-stake-s,541,2652777,0.0-19.0-0.0-0.47,A11YS0T8MV3Q7C,31KPKEKW5DTYWQJ2Z73D1GA4ZNDB00,38JBBYETQSQGO0BHI1X73B2PD9Y4E0,2,1
48,1,object_06,object_08,422.0,1,2,571.0,0.4444444444444444,1,object_04,1,1006,0,4,2,desert_4,2,memory-2step-stake-s,542,2661058,0.0-19.0-0.0-0.48,A11YS0T8MV3Q7C,31KPKEKW5DTYWQJ2Z73D1GA4ZNDB00,38JBBYETQSQGO0BHI1X73B2PD9Y4E0,2,1
49,4,object_09,object_01,756.0,8,2,487.0,0.1111111111111111,2,object_07,1,1007,0,6,1,restaurant_5,2,memory-2step-stake-s,543,2668908,0.0-19.0-0.0-0.49,A11YS0T8MV3Q7C,31KPKEKW5DTYWQJ2Z73D1GA4ZNDB00,38JBBYETQSQGO0BHI1X73B2PD9Y4E0,7,8
50,2,object_05,object_10,777.0,4,1,356.0,0.1111111111111111,2,object_07,5,1012,0,6,1,forest_5,2,memory-2step-stake-s,544,2676628,0.0-19.0-0.0-0.50,A11YS0T8MV3Q7C,31KPKEKW5DTYWQJ2Z73D1GA4ZNDB00,38JBBYETQSQGO0BHI1X73B2PD9Y4E0,4,3
51,3,object_03,object_02,522.0,6,1,854.0,0.0,2,object_07,1,1012,0,6,0,library_8,2,memory-2step-stake-s,545,2684720,0.0-19.0-0.0-0.51,A11YS0T8MV3Q7C,31KPKEKW5DTYWQJ2Z73D1GA4ZNDB00,38JBBYETQSQGO0BHI1X73B2PD9Y4E0,6,5
52,2,object_10,object_05,503.0,4,2,377.0,0.0,2,object_07,1,1012,0,8,0,forest_6,2,memory-2step-stake-s,546,2692339,0.0-19.0-0.0-0.52,A11YS0T8MV3Q7C,31KPKEKW5DTYWQJ2Z73D1GA4ZNDB00,38JBBYETQSQGO0BHI1X73B2PD9Y4E0,3,4
53,4,object_01,object_09,674.0,7,2,332.0,1.0,1,object_04,1,1021,0,9,0,restaurant_7,2,memory-2step-stake-s,547,2700920,0.0-19.0-0.0-0.53,A11YS0T8MV3Q7C,31KPKEKW5DTYWQJ2Z73D1GA4ZNDB00,38JBBYETQSQGO0BHI1X73B2PD9Y4E0,8,7
54,1,object_08,object_06,781.0,2,2,313.0,0.2222222222222222,2,object_07,5,1031,0,8,2,desert_2,2,memory-2step-stake-s,548,2708710,0.0-19.0-0.0-0.54,A11YS0T8MV3Q7C,31KPKEKW5DTYWQJ2Z73D1GA4ZNDB00,38JBBYETQSQGO0BHI1X73B2PD9Y4E0,1,2
55,4,object_09,object_01,726.0,7,1,712.0,0.8888888888888888,1,object_04,1,1039,0,8,1,restaurant_5,2,memory-2step-stake-s,549,2717540,0.0-19.0-0.0-0.55,A11YS0T8MV3Q7C,31KPKEKW5DTYWQJ2Z73D1GA4ZNDB00,38JBBYETQSQGO0BHI1X73B2PD9Y4E0,7,8
56,2,object_05,object_10,1009.0,3,2,663.0,0.8888888888888888,1,object_04,5,1079,0,8,1,forest_5,2,memory-2step-stake-s,550,2726342,0.0-19.0-0.0-0.56,A11YS0T8MV3Q7C,31KPKEKW5DTYWQJ2Z73D1GA4ZNDB00,38JBBYETQSQGO0BHI1X73B2PD9Y4E0,4,3
57,4,object_09,object_01,471.0,7,1,506.0,1.0,1,object_04,1,1088,0,9,1,restaurant_8,2,memory-2step-stake-s,551,2735086,0.0-19.0-0.0-0.57,A11YS0T8MV3Q7C,31KPKEKW5DTYWQJ2Z73D1GA4ZNDB00,38JBBYETQSQGO0BHI1X73B2PD9Y4E0,7,8
58,3,object_02,object_03,826.0,5,1,729.0,0.5555555555555556,1,object_04,5,1113,0,5,1,library_2,2,memory-2step-stake-s,552,2743603,0.0-19.0-0.0-0.58,A11YS0T8MV3Q7C,31KPKEKW5DTYWQJ2Z73D1GA4ZNDB00,38JBBYETQSQGO0BHI1X73B2PD9Y4E0,5,6
59,3,object_02,object_03,891.0,5,1,789.0,0.6666666666666666,1,object_04,1,1119,0,6,0,library_7,2,memory-2step-stake-s,553,2752294,0.0-19.0-0.0-0.59,A11YS0T8MV3Q7C,31KPKEKW5DTYWQJ2Z73D1GA4ZNDB00,38JBBYETQSQGO0BHI1X73B2PD9Y4E0,5,6
60,3,object_03,object_02,584.0,5,2,677.0,1.0,1,object_04,5,1164,0,9,0,library_3,2,memory-2step-stake-s,554,2761195,0.0-19.0-0.0-0.60,A11YS0T8MV3Q7C,31KPKEKW5DTYWQJ2Z73D1GA4ZNDB00,38JBBYETQSQGO0BHI1X73B2PD9Y4E0,6,5
61,1,object_06,object_08,913.0,2,1,739.0,0.1111111111111111,2,object_07,5,1169,0,5,1,desert_2,2,memory-2step-stake-s,555,2769306,0.0-19.0-0.0-0.61,A11YS0T8MV3Q7C,31KPKEKW5DTYWQJ2Z73D1GA4ZNDB00,38JBBYETQSQGO0BHI1X73B2PD9Y4E0,2,1
62,4,object_01,object_09,565.0,7,2,632.0,0.3333333333333333,1,object_04,1,1172,0,3,3,restaurant_5,2,memory-2step-stake-s,556,2777506,0.0-19.0-0.0-0.62,A11YS0T8MV3Q7C,31KPKEKW5DTYWQJ2Z73D1GA4ZNDB00,38JBBYETQSQGO0BHI1X73B2PD9Y4E0,8,7
63,3,object_03,object_02,571.0,5,2,636.0,0.1111111111111111,1,object_04,1,1173,0,1,6,library_3,2,memory-2step-stake-s,557,2785516,0.0-19.0-0.0-0.63,A11YS0T8MV3Q7C,31KPKEKW5DTYWQJ2Z73D1GA4ZNDB00,38JBBYETQSQGO0BHI1X73B2PD9Y4E0,6,5
64,2,object_10,object_05,890.0,3,1,708.0,0.0,1,object_04,5,1173,0,0,9,forest_1,2,memory-2step-stake-s,558,2793468,0.0-19.0-0.0-0.64,A11YS0T8MV3Q7C,31KPKEKW5DTYWQJ2Z73D1GA4ZNDB00,38JBBYETQSQGO0BHI1X73B2PD9Y4E0,3,4
65,3,object_03,object_02,618.0,5,2,851.0,0.2222222222222222,1,object_04,1,1175,0,2,7,library_2,2,memory-2step-stake-s,559,2801808,0.0-19.0-0.0-0.65,A11YS0T8MV3Q7C,31KPKEKW5DTYWQJ2Z73D1GA4ZNDB00,38JBBYETQSQGO0BHI1X73B2PD9Y4E0,6,5
66,3,object_03,object_02,541.0,5,2,655.0,0.1111111111111111,1,object_04,5,1180,0,1,7,library_8,2,memory-2step-stake-s,560,2809829,0.0-19.0-0.0-0.66,A11YS0T8MV3Q7C,31KPKEKW5DTYWQJ2Z73D1GA4ZNDB00,38JBBYETQSQGO0BHI1X73B2PD9Y4E0,6,5
67,1,object_06,object_08,824.0,2,1,627.0,0.6666666666666666,2,object_07,5,1210,0,4,6,desert_4,2,memory-2step-stake-s,561,2818370,0.0-19.0-0.0-0.67,A11YS0T8MV3Q7C,31KPKEKW5DTYWQJ2Z73D1GA4ZNDB00,38JBBYETQSQGO0BHI1X73B2PD9Y4E0,2,1
68,2,object_05,object_10,869.0,3,2,416.0,0.2222222222222222,1,object_04,5,1220,0,2,6,forest_1,2,memory-2step-stake-s,562,2826251,0.0-19.0-0.0-0.68,A11YS0T8MV3Q7C,31KPKEKW5DTYWQJ2Z73D1GA4ZNDB00,38JBBYETQSQGO0BHI1X73B2PD9Y4E0,4,3
69,1,object_08,object_06,930.0,2,2,615.0,0.4444444444444444,2,object_07,5,1240,0,2,4,desert_6,2,memory-2step-stake-s,563,2834561,0.0-19.0-0.0-0.69,A11YS0T8MV3Q7C,31KPKEKW5DTYWQJ2Z73D1GA4ZNDB00,38JBBYETQSQGO0BHI1X73B2PD9Y4E0,1,2
70,4,object_09,object_01,788.0,7,1,582.0,0.6666666666666666,1,object_04,1,1246,0,6,9,restaurant_8,2,memory-2step-stake-s,564,2843053,0.0-19.0-0.0-0.70,A11YS0T8MV3Q7C,31KPKEKW5DTYWQJ2Z73D1GA4ZNDB00,38JBBYETQSQGO0BHI1X73B2PD9Y4E0,7,8
71,1,object_08,object_06,752.0,2,2,698.0,0.8888888888888888,2,object_07,5,1286,0,4,8,desert_1,2,memory-2step-stake-s,565,2851883,0.0-19.0-0.0-0.71,A11YS0T8MV3Q7C,31KPKEKW5DTYWQJ2Z73D1GA4ZNDB00,38JBBYETQSQGO0BHI1X73B2PD9Y4E0,1,2
72,2,object_10,object_05,659.0,4,2,622.0,0.8888888888888888,2,object_07,5,1326,0,4,8,forest_1,2,memory-2step-stake-s,566,2860624,0.0-19.0-0.0-0.72,A11YS0T8MV3Q7C,31KPKEKW5DTYWQJ2Z73D1GA4ZNDB00,38JBBYETQSQGO0BHI1X73B2PD9Y4E0,3,4
73,2,object_05,object_10,502.0,4,1,417.0,1.0,2,object_07,5,1371,0,5,9,forest_6,2,memory-2step-stake-s,567,2869285,0.0-19.0-0.0-0.73,A11YS0T8MV3Q7C,31KPKEKW5DTYWQJ2Z73D1GA4ZNDB00,38JBBYETQSQGO0BHI1X73B2PD9Y4E0,4,3
74,1,object_08,object_06,473.0,2,2,249.0,1.0,2,object_07,5,1416,0,4,9,desert_1,2,memory-2step-stake-s,568,2877786,0.0-19.0-0.0-0.74,A11YS0T8MV3Q7C,31KPKEKW5DTYWQJ2Z73D1GA4ZNDB00,38JBBYETQSQGO0BHI1X73B2PD9Y4E0,1,2
75,2,object_10,object_05,556.0,4,2,206.0,0.8888888888888888,2,object_07,5,1456,0,4,8,forest_1,2,memory-2step-stake-s,569,2886126,0.0-19.0-0.0-0.75,A11YS0T8MV3Q7C,31KPKEKW5DTYWQJ2Z73D1GA4ZNDB00,38JBBYETQSQGO0BHI1X73B2PD9Y4E0,3,4
76,4,object_01,object_09,688.0,8,1,506.0,0.8888888888888888,2,object_07,1,1464,0,6,8,restaurant_8,2,memory-2step-stake-s,570,2894767,0.0-19.0-0.0-0.76,A11YS0T8MV3Q7C,31KPKEKW5DTYWQJ2Z73D1GA4ZNDB00,38JBBYETQSQGO0BHI1X73B2PD9Y4E0,8,7
77,4,object_09,object_01,423.0,7,1,466.0,0.6666666666666666,1,object_04,1,1470,0,6,7,restaurant_7,2,memory-2step-stake-s,571,2903147,0.0-19.0-0.0-0.77,A11YS0T8MV3Q7C,31KPKEKW5DTYWQJ2Z73D1GA4ZNDB00,38JBBYETQSQGO0BHI1X73B2PD9Y4E0,7,8
78,4,object_01,object_09,523.0,7,2,606.0,0.4444444444444444,1,object_04,1,1474,0,4,8,restaurant_8,2,memory-2step-stake-s,572,2911448,0.0-19.0-0.0-0.78,A11YS0T8MV3Q7C,31KPKEKW5DTYWQJ2Z73D1GA4ZNDB00,38JBBYETQSQGO0BHI1X73B2PD9Y4E0,8,7
79,1,object_06,object_08,726.0,1,2,671.0,0.3333333333333333,1,object_04,5,1489,0,3,8,desert_1,2,memory-2step-stake-s,573,2919707,0.0-19.0-0.0-0.79,A11YS0T8MV3Q7C,31KPKEKW5DTYWQJ2Z73D1GA4ZNDB00,38JBBYETQSQGO0BHI1X73B2PD9Y4E0,2,1
80,4,object_01,object_09,594.0,7,2,548.0,0.8888888888888888,1,object_04,1,1497,0,8,9,restaurant_6,2,memory-2step-stake-s,574,2928379,0.0-19.0-0.0-0.80,A11YS0T8MV3Q7C,31KPKEKW5DTYWQJ2Z73D1GA4ZNDB00,38JBBYETQSQGO0BHI1X73B2PD9Y4E0,8,7
81,3,object_02,object_03,746.0,5,1,580.0,0.7777777777777778,1,object_04,5,1532,0,7,9,library_7,2,memory-2step-stake-s,575,2936990,0.0-19.0-0.0-0.81,A11YS0T8MV3Q7C,31KPKEKW5DTYWQJ2Z73D1GA4ZNDB00,38JBBYETQSQGO0BHI1X73B2PD9Y4E0,5,6
82,4,object_01,object_09,455.0,7,2,233.0,0.7777777777777778,1,object_04,1,1539,0,7,7,restaurant_6,2,memory-2step-stake-s,576,2945250,0.0-19.0-0.0-0.82,A11YS0T8MV3Q7C,31KPKEKW5DTYWQJ2Z73D1GA4ZNDB00,38JBBYETQSQGO0BHI1X73B2PD9Y4E0,8,7
83,3,object_03,object_02,397.0,6,1,217.0,0.4444444444444444,2,object_07,1,1543,0,3,4,library_8,2,memory-2step-stake-s,577,2953161,0.0-19.0-0.0-0.83,A11YS0T8MV3Q7C,31KPKEKW5DTYWQJ2Z73D1GA4ZNDB00,38JBBYETQSQGO0BHI1X73B2PD9Y4E0,6,5
84,4,object_09,object_01,766.0,8,2,417.0,0.5555555555555556,2,object_07,1,1548,0,6,5,restaurant_8,2,memory-2step-stake-s,578,2961380,0.0-19.0-0.0-0.84,A11YS0T8MV3Q7C,31KPKEKW5DTYWQJ2Z73D1GA4ZNDB00,38JBBYETQSQGO0BHI1X73B2PD9Y4E0,7,8
85,3,object_03,object_02,1065.0,5,2,341.0,0.7777777777777778,1,object_04,1,1555,0,7,4,library_7,2,memory-2step-stake-s,579,2969750,0.0-19.0-0.0-0.85,A11YS0T8MV3Q7C,31KPKEKW5DTYWQJ2Z73D1GA4ZNDB00,38JBBYETQSQGO0BHI1X73B2PD9Y4E0,6,5
86,1,object_06,object_08,456.0,1,2,380.0,0.6666666666666666,1,object_04,5,1585,0,6,4,desert_1,2,memory-2step-stake-s,580,2978042,0.0-19.0-0.0-0.86,A11YS0T8MV3Q7C,31KPKEKW5DTYWQJ2Z73D1GA4ZNDB00,38JBBYETQSQGO0BHI1X73B2PD9Y4E0,2,1
87,2,object_10,object_05,763.0,3,1,461.0,0.5555555555555556,1,object_04,5,1610,0,5,5,forest_7,2,memory-2step-stake-s,581,2986312,0.0-19.0-0.0-0.87,A11YS0T8MV3Q7C,31KPKEKW5DTYWQJ2Z73D1GA4ZNDB00,38JBBYETQSQGO0BHI1X73B2PD9Y4E0,3,4
88,4,object_09,object_01,726.0,8,2,537.0,0.3333333333333333,2,object_07,1,1613,0,5,3,restaurant_8,2,memory-2step-stake-s,582,2994433,0.0-19.0-0.0-0.88,A11YS0T8MV3Q7C,31KPKEKW5DTYWQJ2Z73D1GA4ZNDB00,38JBBYETQSQGO0BHI1X73B2PD9Y4E0,7,8
89,1,object_06,object_08,781.0,1,2,1358.0,0.8888888888888888,1,object_04,5,1653,0,8,5,desert_4,2,memory-2step-stake-s,583,3003933,0.0-19.0-0.0-0.89,A11YS0T8MV3Q7C,31KPKEKW5DTYWQJ2Z73D1GA4ZNDB00,38JBBYETQSQGO0BHI1X73B2PD9Y4E0,2,1
90,4,object_09,object_01,561.0,7,1,1267.0,0.8888888888888888,1,object_04,1,1661,0,8,4,restaurant_7,2,memory-2step-stake-s,584,3013344,0.0-19.0-0.0-0.90,A11YS0T8MV3Q7C,31KPKEKW5DTYWQJ2Z73D1GA4ZNDB00,38JBBYETQSQGO0BHI1X73B2PD9Y4E0,7,8
91,1,object_06,object_08,1094.0,2,1,1319.0,0.4444444444444444,2,object_07,5,1681,0,8,4,desert_4,2,memory-2step-stake-s,585,3022355,0.0-19.0-0.0-0.91,A11YS0T8MV3Q7C,31KPKEKW5DTYWQJ2Z73D1GA4ZNDB00,38JBBYETQSQGO0BHI1X73B2PD9Y4E0,2,1
92,3,object_03,object_02,522.0,5,2,581.0,0.8888888888888888,1,object_04,5,1721,0,8,2,library_3,2,memory-2step-stake-s,586,3031065,0.0-19.0-0.0-0.92,A11YS0T8MV3Q7C,31KPKEKW5DTYWQJ2Z73D1GA4ZNDB00,38JBBYETQSQGO0BHI1X73B2PD9Y4E0,6,5
93,3,object_03,object_02,526.0,5,2,616.0,1.0,1,object_04,1,1730,0,9,2,library_7,2,memory-2step-stake-s,587,3039916,0.0-19.0-0.0-0.93,A11YS0T8MV3Q7C,31KPKEKW5DTYWQJ2Z73D1GA4ZNDB00,38JBBYETQSQGO0BHI1X73B2PD9Y4E0,6,5
94,4,object_01,object_09,745.0,8,1,535.0,0.1111111111111111,2,object_07,5,1735,0,9,1,restaurant_6,2,memory-2step-stake-s,588,3047816,0.0-19.0-0.0-0.94,A11YS0T8MV3Q7C,31KPKEKW5DTYWQJ2Z73D1GA4ZNDB00,38JBBYETQSQGO0BHI1X73B2PD9Y4E0,8,7
95,1,object_06,object_08,629.0,1,2,496.0,0.6666666666666666,1,object_04,5,1765,0,6,3,desert_4,2,memory-2step-stake-s,589,3056217,0.0-19.0-0.0-0.95,A11YS0T8MV3Q7C,31KPKEKW5DTYWQJ2Z73D1GA4ZNDB00,38JBBYETQSQGO0BHI1X73B2PD9Y4E0,2,1
96,3,object_03,object_02,549.0,5,2,574.0,0.5555555555555556,1,object_04,1,1770,0,5,4,library_2,2,memory-2step-stake-s,590,3064597,0.0-19.0-0.0-0.96,A11YS0T8MV3Q7C,31KPKEKW5DTYWQJ2Z73D1GA4ZNDB00,38JBBYETQSQGO0BHI1X73B2PD9Y4E0,6,5
97,3,object_03,object_02,640.0,5,2,1026.0,0.6666666666666666,1,object_04,5,1800,0,6,5,library_2,2,memory-2step-stake-s,591,3073548,0.0-19.0-0.0-0.97,A11YS0T8MV3Q7C,31KPKEKW5DTYWQJ2Z73D1GA4ZNDB00,38JBBYETQSQGO0BHI1X73B2PD9Y4E0,6,5
98,3,object_03,object_02,649.0,5,2,691.0,0.7777777777777778,1,object_04,5,1835,0,7,3,library_7,2,memory-2step-stake-s,592,3082268,0.0-19.0-0.0-0.98,A11YS0T8MV3Q7C,31KPKEKW5DTYWQJ2Z73D1GA4ZNDB00,38JBBYETQSQGO0BHI1X73B2PD9Y4E0,6,5
99,3,object_03,object_02,546.0,5,2,491.0,0.8888888888888888,1,object_04,1,1843,0,8,4,library_2,2,memory-2step-stake-s,593,3090889,0.0-19.0-0.0-0.99,A11YS0T8MV3Q7C,31KPKEKW5DTYWQJ2Z73D1GA4ZNDB00,38JBBYETQSQGO0BHI1X73B2PD9Y4E0,6,5
100,3,object_02,object_03,588.0,5,1,695.0,0.8888888888888888,1,object_04,5,1883,0,8,3,library_8,2,memory-2step-stake-s,594,3099710,0.0-19.0-0.0-0.100,A11YS0T8MV3Q7C,31KPKEKW5DTYWQJ2Z73D1GA4ZNDB00,38JBBYETQSQGO0BHI1X73B2PD9Y4E0,5,6
101,3,object_02,object_03,471.0,5,1,586.0,0.7777777777777778,1,object_04,1,1890,0,7,3,library_3,2,memory-2step-stake-s,595,3108330,0.0-19.0-0.0-0.101,A11YS0T8MV3Q7C,31KPKEKW5DTYWQJ2Z73D1GA4ZNDB00,38JBBYETQSQGO0BHI1X73B2PD9Y4E0,5,6
102,4,object_01,object_09,572.0,7,2,630.0,0.6666666666666666,1,object_04,1,1896,0,6,1,restaurant_8,2,memory-2step-stake-s,596,3116872,0.0-19.0-0.0-0.102,A11YS0T8MV3Q7C,31KPKEKW5DTYWQJ2Z73D1GA4ZNDB00,38JBBYETQSQGO0BHI1X73B2PD9Y4E0,8,7
103,4,object_09,object_01,518.0,7,1,559.0,0.4444444444444444,1,object_04,1,1900,0,4,2,restaurant_5,2,memory-2step-stake-s,597,3125132,0.0-19.0-0.0-0.103,A11YS0T8MV3Q7C,31KPKEKW5DTYWQJ2Z73D1GA4ZNDB00,38JBBYETQSQGO0BHI1X73B2PD9Y4E0,7,8
104,1,object_06,object_08,472.0,1,2,523.0,0.6666666666666666,1,object_04,5,1930,0,6,3,desert_6,2,memory-2step-stake-s,598,3133573,0.0-19.0-0.0-0.104,A11YS0T8MV3Q7C,31KPKEKW5DTYWQJ2Z73D1GA4ZNDB00,38JBBYETQSQGO0BHI1X73B2PD9Y4E0,2,1
105,2,object_05,object_10,585.0,4,1,323.0,0.5555555555555556,2,object_07,5,1955,0,2,5,forest_1,2,memory-2step-stake-s,599,3141694,0.0-19.0-0.0-0.105,A11YS0T8MV3Q7C,31KPKEKW5DTYWQJ2Z73D1GA4ZNDB00,38JBBYETQSQGO0BHI1X73B2PD9Y4E0,4,3
106,2,object_05,object_10,609.0,3,2,347.0,0.0,1,object_04,5,1955,0,0,5,forest_6,2,memory-2step-stake-s,600,3149284,0.0-19.0-0.0-0.106,A11YS0T8MV3Q7C,31KPKEKW5DTYWQJ2Z73D1GA4ZNDB00,38JBBYETQSQGO0BHI1X73B2PD9Y4E0,4,3
107,1,object_08,object_06,250.0,2,2,228.0,0.7777777777777778,2,object_07,5,1990,0,0,7,desert_2,2,memory-2step-stake-s,601,3157545,0.0-19.0-0.0-0.107,A11YS0T8MV3Q7C,31KPKEKW5DTYWQJ2Z73D1GA4ZNDB00,38JBBYETQSQGO0BHI1X73B2PD9Y4E0,1,2
108,4,object_01,object_09,445.0,8,1,382.0,0.8888888888888888,2,object_07,1,1998,0,1,8,restaurant_5,2,memory-2step-stake-s,602,3166065,0.0-19.0-0.0-0.108,A11YS0T8MV3Q7C,31KPKEKW5DTYWQJ2Z73D1GA4ZNDB00,38JBBYETQSQGO0BHI1X73B2PD9Y4E0,8,7
109,4,object_01,object_09,468.0,7,2,325.0,0.2222222222222222,1,object_04,1,2000,0,2,8,restaurant_6,2,memory-2step-stake-s,603,3173866,0.0-19.0-0.0-0.109,A11YS0T8MV3Q7C,31KPKEKW5DTYWQJ2Z73D1GA4ZNDB00,38JBBYETQSQGO0BHI1X73B2PD9Y4E0,8,7
110,2,object_10,object_05,539.0,3,1,461.0,0.4444444444444444,1,object_04,1,2004,0,4,9,forest_7,2,memory-2step-stake-s,604,3182026,0.0-19.0-0.0-0.110,A11YS0T8MV3Q7C,31KPKEKW5DTYWQJ2Z73D1GA4ZNDB00,38JBBYETQSQGO0BHI1X73B2PD9Y4E0,3,4
111,3,object_03,object_02,318.0,5,2,280.0,0.6666666666666666,1,object_04,5,2034,0,6,9,library_3,2,memory-2step-stake-s,605,3190201,0.0-19.0-0.0-0.111,A11YS0T8MV3Q7C,31KPKEKW5DTYWQJ2Z73D1GA4ZNDB00,38JBBYETQSQGO0BHI1X73B2PD9Y4E0,6,5
112,3,object_03,object_02,469.0,5,2,415.0,0.6666666666666666,1,object_04,5,2064,0,6,7,library_2,2,memory-2step-stake-s,606,3198540,0.0-19.0-0.0-0.112,A11YS0T8MV3Q7C,31KPKEKW5DTYWQJ2Z73D1GA4ZNDB00,38JBBYETQSQGO0BHI1X73B2PD9Y4E0,6,5
113,2,object_10,object_05,530.0,4,2,388.0,0.7777777777777778,2,object_07,5,2099,0,4,7,forest_5,2,memory-2step-stake-s,607,3206951,0.0-19.0-0.0-0.113,A11YS0T8MV3Q7C,31KPKEKW5DTYWQJ2Z73D1GA4ZNDB00,38JBBYETQSQGO0BHI1X73B2PD9Y4E0,3,4
114,3,object_02,object_03,519.0,5,1,696.0,0.2222222222222222,1,object_04,1,2101,0,2,7,library_3,2,memory-2step-stake-s,608,3215123,0.0-19.0-0.0-0.114,A11YS0T8MV3Q7C,31KPKEKW5DTYWQJ2Z73D1GA4ZNDB00,38JBBYETQSQGO0BHI1X73B2PD9Y4E0,5,6
115,4,object_01,object_09,555.0,7,2,693.0,0.2222222222222222,1,object_04,1,2103,0,2,4,restaurant_5,2,memory-2step-stake-s,609,3223293,0.0-19.0-0.0-0.115,A11YS0T8MV3Q7C,31KPKEKW5DTYWQJ2Z73D1GA4ZNDB00,38JBBYETQSQGO0BHI1X73B2PD9Y4E0,8,7
116,3,object_02,object_03,593.0,5,1,372.0,0.3333333333333333,1,object_04,1,2106,0,3,3,library_8,2,memory-2step-stake-s,610,3231244,0.0-19.0-0.0-0.116,A11YS0T8MV3Q7C,31KPKEKW5DTYWQJ2Z73D1GA4ZNDB00,38JBBYETQSQGO0BHI1X73B2PD9Y4E0,5,6
117,2,object_05,object_10,514.0,3,2,468.0,0.8888888888888888,1,object_04,1,2114,0,8,6,forest_5,2,memory-2step-stake-s,611,3239843,0.0-19.0-0.0-0.117,A11YS0T8MV3Q7C,31KPKEKW5DTYWQJ2Z73D1GA4ZNDB00,38JBBYETQSQGO0BHI1X73B2PD9Y4E0,4,3
118,2,object_10,object_05,611.0,3,1,621.0,0.7777777777777778,1,object_04,1,2121,0,7,7,forest_6,2,memory-2step-stake-s,612,3248475,0.0-19.0-0.0-0.118,A11YS0T8MV3Q7C,31KPKEKW5DTYWQJ2Z73D1GA4ZNDB00,38JBBYETQSQGO0BHI1X73B2PD9Y4E0,3,4
119,4,object_01,object_09,580.0,7,2,860.0,0.8888888888888888,1,object_04,1,2129,0,8,8,restaurant_7,2,memory-2step-stake-s,613,3257435,0.0-19.0-0.0-0.119,A11YS0T8MV3Q7C,31KPKEKW5DTYWQJ2Z73D1GA4ZNDB00,38JBBYETQSQGO0BHI1X73B2PD9Y4E0,8,7
120,1,object_08,object_06,-1.0,-1,-1,-1.0,0.0,-,0,1,2129,0,7,6,desert_1,2,memory-2step-stake-s,614,3263977,0.0-19.0-0.0-0.120,A11YS0T8MV3Q7C,31KPKEKW5DTYWQJ2Z73D1GA4ZNDB00,38JBBYETQSQGO0BHI1X73B2PD9Y4E0,1,2
121,3,object_03,object_02,-1.0,-1,-1,-1.0,0.0,-,0,5,2129,0,4,9,library_8,2,memory-2step-stake-s,615,3270537,0.0-19.0-0.0-0.121,A11YS0T8MV3Q7C,31KPKEKW5DTYWQJ2Z73D1GA4ZNDB00,38JBBYETQSQGO0BHI1X73B2PD9Y4E0,6,5
122,3,object_03,object_02,-1.0,-1,-1,-1.0,0.0,-,0,5,2129,0,4,8,library_7,2,memory-2step-stake-s,616,3277088,0.0-19.0-0.0-0.122,A11YS0T8MV3Q7C,31KPKEKW5DTYWQJ2Z73D1GA4ZNDB00,38JBBYETQSQGO0BHI1X73B2PD9Y4E0,6,5
123,2,object_10,object_05,-1.0,-1,-1,-1.0,0.0,-,0,5,2129,0,6,9,forest_6,2,memory-2step-stake-s,617,3283643,0.0-19.0-0.0-0.123,A11YS0T8MV3Q7C,31KPKEKW5DTYWQJ2Z73D1GA4ZNDB00,38JBBYETQSQGO0BHI1X73B2PD9Y4E0,3,4
124,4,object_01,object_09,379.0,7,2,752.0,0.8888888888888888,1,object_04,1,2137,0,8,7,restaurant_6,2,memory-2step-stake-s,618,3292535,0.0-19.0-0.0-0.124,A11YS0T8MV3Q7C,31KPKEKW5DTYWQJ2Z73D1GA4ZNDB00,38JBBYETQSQGO0BHI1X73B2PD9Y4E0,8,7
125,4,object_01,object_09,391.0,7,2,466.0,0.8888888888888888,1,object_04,1,2145,0,8,5,restaurant_7,2,memory-2step-stake-s,619,3301128,0.0-19.0-0.0-0.125,A11YS0T8MV3Q7C,31KPKEKW5DTYWQJ2Z73D1GA4ZNDB00,38JBBYETQSQGO0BHI1X73B2PD9Y4E0,8,7
126,1,object_08,object_06,407.0,1,1,386.0,0.5555555555555556,1,object_04,5,2170,0,5,6,desert_1,2,memory-2step-stake-s,620,3309317,0.0-19.0-0.0-0.126,A11YS0T8MV3Q7C,31KPKEKW5DTYWQJ2Z73D1GA4ZNDB00,38JBBYETQSQGO0BHI1X73B2PD9Y4E0,1,2
127,4,object_09,object_01,377.0,8,2,292.0,0.7777777777777778,2,object_07,1,2177,0,6,7,restaurant_5,2,memory-2step-stake-s,621,3317628,0.0-19.0-0.0-0.127,A11YS0T8MV3Q7C,31KPKEKW5DTYWQJ2Z73D1GA4ZNDB00,38JBBYETQSQGO0BHI1X73B2PD9Y4E0,7,8
128,4,object_01,object_09,1439.0,7,2,394.0,0.6666666666666666,1,object_04,1,2183,0,6,7,restaurant_7,2,memory-2step-stake-s,623,3597141,0.0-19.0-0.1-0.128,A11YS0T8MV3Q7C,31KPKEKW5DTYWQJ2Z73D1GA4ZNDB00,38JBBYETQSQGO0BHI1X73B2PD9Y4E0,8,7
129,1,object_08,object_06,464.0,1,1,667.0,0.8888888888888888,1,object_04,5,2223,0,8,9,desert_1,2,memory-2step-stake-s,624,3605942,0.0-19.0-0.1-0.129,A11YS0T8MV3Q7C,31KPKEKW5DTYWQJ2Z73D1GA4ZNDB00,38JBBYETQSQGO0BHI1X73B2PD9Y4E0,1,2
130,3,object_02,object_03,375.0,6,2,627.0,0.5555555555555556,2,object_07,1,2228,0,8,5,library_2,2,memory-2step-stake-s,625,3614362,0.0-19.0-0.1-0.130,A11YS0T8MV3Q7C,31KPKEKW5DTYWQJ2Z73D1GA4ZNDB00,38JBBYETQSQGO0BHI1X73B2PD9Y4E0,5,6
131,1,object_06,object_08,500.0,2,1,462.0,0.5555555555555556,2,object_07,5,2253,0,4,5,desert_1,2,memory-2step-stake-s,626,3622624,0.0-19.0-0.1-0.131,A11YS0T8MV3Q7C,31KPKEKW5DTYWQJ2Z73D1GA4ZNDB00,38JBBYETQSQGO0BHI1X73B2PD9Y4E0,2,1
132,2,object_10,object_05,319.0,3,1,491.0,0.6666666666666666,1,object_04,5,2283,0,6,5,forest_5,2,memory-2step-stake-s,627,3631033,0.0-19.0-0.1-0.132,A11YS0T8MV3Q7C,31KPKEKW5DTYWQJ2Z73D1GA4ZNDB00,38JBBYETQSQGO0BHI1X73B2PD9Y4E0,3,4
133,1,object_08,object_06,341.0,2,2,329.0,1.0,2,object_07,5,2328,0,7,9,desert_6,2,memory-2step-stake-s,628,3639604,0.0-19.0-0.1-0.133,A11YS0T8MV3Q7C,31KPKEKW5DTYWQJ2Z73D1GA4ZNDB00,38JBBYETQSQGO0BHI1X73B2PD9Y4E0,1,2
134,3,object_03,object_02,265.0,6,1,405.0,1.0,2,object_07,1,2337,0,4,9,library_2,2,memory-2step-stake-s,629,3648254,0.0-19.0-0.1-0.134,A11YS0T8MV3Q7C,31KPKEKW5DTYWQJ2Z73D1GA4ZNDB00,38JBBYETQSQGO0BHI1X73B2PD9Y4E0,6,5
135,2,object_05,object_10,384.0,3,2,700.0,0.6666666666666666,1,object_04,5,2367,0,6,8,forest_1,2,memory-2step-stake-s,630,3656865,0.0-19.0-0.1-0.135,A11YS0T8MV3Q7C,31KPKEKW5DTYWQJ2Z73D1GA4ZNDB00,38JBBYETQSQGO0BHI1X73B2PD9Y4E0,4,3
136,2,object_10,object_05,508.0,3,1,479.0,0.5555555555555556,1,object_04,5,2392,0,5,8,forest_1,2,memory-2step-stake-s,631,3665155,0.0-19.0-0.1-0.136,A11YS0T8MV3Q7C,31KPKEKW5DTYWQJ2Z73D1GA4ZNDB00,38JBBYETQSQGO0BHI1X73B2PD9Y4E0,3,4
137,2,object_05,object_10,297.0,3,2,326.0,0.8888888888888888,1,object_04,5,2432,0,8,8,forest_6,2,memory-2step-stake-s,632,3673597,0.0-19.0-0.1-0.137,A11YS0T8MV3Q7C,31KPKEKW5DTYWQJ2Z73D1GA4ZNDB00,38JBBYETQSQGO0BHI1X73B2PD9Y4E0,4,3
138,3,object_03,object_02,527.0,5,2,565.0,1.0,1,object_04,1,2441,0,9,7,library_7,2,memory-2step-stake-s,633,3682397,0.0-19.0-0.1-0.138,A11YS0T8MV3Q7C,31KPKEKW5DTYWQJ2Z73D1GA4ZNDB00,38JBBYETQSQGO0BHI1X73B2PD9Y4E0,6,5
139,4,object_01,object_09,256.0,8,1,492.0,0.5555555555555556,2,object_07,1,2446,0,7,5,restaurant_5,2,memory-2step-stake-s,634,3690699,0.0-19.0-0.1-0.139,A11YS0T8MV3Q7C,31KPKEKW5DTYWQJ2Z73D1GA4ZNDB00,38JBBYETQSQGO0BHI1X73B2PD9Y4E0,8,7
140,4,object_01,object_09,395.0,7,2,350.0,0.4444444444444444,1,object_04,1,2450,0,4,8,restaurant_6,2,memory-2step-stake-s,635,3698748,0.0-19.0-0.1-0.140,A11YS0T8MV3Q7C,31KPKEKW5DTYWQJ2Z73D1GA4ZNDB00,38JBBYETQSQGO0BHI1X73B2PD9Y4E0,8,7
141,1,object_08,object_06,834.0,1,1,524.0,0.2222222222222222,1,object_04,1,2452,0,2,8,desert_4,2,memory-2step-stake-s,636,3706750,0.0-19.0-0.1-0.141,A11YS0T8MV3Q7C,31KPKEKW5DTYWQJ2Z73D1GA4ZNDB00,38JBBYETQSQGO0BHI1X73B2PD9Y4E0,1,2
142,4,object_01,object_09,424.0,7,2,852.0,0.1111111111111111,1,object_04,1,2453,0,1,9,restaurant_7,2,memory-2step-stake-s,637,3714969,0.0-19.0-0.1-0.142,A11YS0T8MV3Q7C,31KPKEKW5DTYWQJ2Z73D1GA4ZNDB00,38JBBYETQSQGO0BHI1X73B2PD9Y4E0,8,7
143,1,object_08,object_06,469.0,2,2,530.0,1.0,2,object_07,1,2462,0,3,9,desert_6,2,memory-2step-stake-s,638,3723730,0.0-19.0-0.1-0.143,A11YS0T8MV3Q7C,31KPKEKW5DTYWQJ2Z73D1GA4ZNDB00,38JBBYETQSQGO0BHI1X73B2PD9Y4E0,1,2
144,4,object_01,object_09,548.0,7,2,399.0,0.1111111111111111,1,object_04,5,2467,0,1,8,restaurant_5,2,memory-2step-stake-s,639,3731490,0.0-19.0-0.1-0.144,A11YS0T8MV3Q7C,31KPKEKW5DTYWQJ2Z73D1GA4ZNDB00,38JBBYETQSQGO0BHI1X73B2PD9Y4E0,8,7
145,3,object_02,object_03,491.0,5,1,539.0,0.0,1,object_04,1,2467,0,0,6,library_7,2,memory-2step-stake-s,640,3739291,0.0-19.0-0.1-0.145,A11YS0T8MV3Q7C,31KPKEKW5DTYWQJ2Z73D1GA4ZNDB00,38JBBYETQSQGO0BHI1X73B2PD9Y4E0,5,6
146,2,object_05,object_10,667.0,4,1,492.0,0.3333333333333333,2,object_07,5,2482,0,0,3,forest_5,2,memory-2step-stake-s,641,3747371,0.0-19.0-0.1-0.146,A11YS0T8MV3Q7C,31KPKEKW5DTYWQJ2Z73D1GA4ZNDB00,38JBBYETQSQGO0BHI1X73B2PD9Y4E0,4,3
147,2,object_05,object_10,217.0,3,2,261.0,0.2222222222222222,1,object_04,5,2492,0,2,3,forest_6,2,memory-2step-stake-s,642,3755112,0.0-19.0-0.1-0.147,A11YS0T8MV3Q7C,31KPKEKW5DTYWQJ2Z73D1GA4ZNDB00,38JBBYETQSQGO0BHI1X73B2PD9Y4E0,4,3
148,4,object_09,object_01,464.0,7,1,749.0,0.1111111111111111,1,object_04,1,2493,0,1,6,restaurant_5,2,memory-2step-stake-s,643,3763212,0.0-19.0-0.1-0.148,A11YS0T8MV3Q7C,31KPKEKW5DTYWQJ2Z73D1GA4ZNDB00,38JBBYETQSQGO0BHI1X73B2PD9Y4E0,7,8
149,3,object_02,object_03,329.0,6,2,421.0,0.4444444444444444,2,object_07,1,2497,0,2,4,library_8,2,memory-2step-stake-s,644,3771323,0.0-19.0-0.1-0.149,A11YS0T8MV3Q7C,31KPKEKW5DTYWQJ2Z73D1GA4ZNDB00,38JBBYETQSQGO0BHI1X73B2PD9Y4E0,5,6
150,2,object_10,object_05,444.0,3,1,361.0,0.0,1,object_04,5,2497,0,0,5,forest_1,2,memory-2step-stake-s,645,3778924,0.0-19.0-0.1-0.150,A11YS0T8MV3Q7C,31KPKEKW5DTYWQJ2Z73D1GA4ZNDB00,38JBBYETQSQGO0BHI1X73B2PD9Y4E0,3,4
151,2,object_10,object_05,323.0,4,2,527.0,0.6666666666666666,2,object_07,5,2527,0,1,6,forest_7,2,memory-2step-stake-s,646,3787363,0.0-19.0-0.1-0.151,A11YS0T8MV3Q7C,31KPKEKW5DTYWQJ2Z73D1GA4ZNDB00,38JBBYETQSQGO0BHI1X73B2PD9Y4E0,3,4
152,4,object_01,object_09,403.0,8,1,431.0,0.6666666666666666,2,object_07,1,2533,0,3,6,restaurant_6,2,memory-2step-stake-s,647,3795694,0.0-19.0-0.1-0.152,A11YS0T8MV3Q7C,31KPKEKW5DTYWQJ2Z73D1GA4ZNDB00,38JBBYETQSQGO0BHI1X73B2PD9Y4E0,8,7
153,2,object_10,object_05,376.0,4,2,450.0,0.4444444444444444,2,object_07,5,2553,0,7,4,forest_6,2,memory-2step-stake-s,648,3803845,0.0-19.0-0.1-0.153,A11YS0T8MV3Q7C,31KPKEKW5DTYWQJ2Z73D1GA4ZNDB00,38JBBYETQSQGO0BHI1X73B2PD9Y4E0,3,4
154,2,object_10,object_05,874.0,4,2,589.0,0.8888888888888888,2,object_07,1,2561,0,7,8,forest_7,2,memory-2step-stake-s,649,3812564,0.0-19.0-0.1-0.154,A11YS0T8MV3Q7C,31KPKEKW5DTYWQJ2Z73D1GA4ZNDB00,38JBBYETQSQGO0BHI1X73B2PD9Y4E0,3,4
155,1,object_08,object_06,417.0,1,1,382.0,0.7777777777777778,1,object_04,5,2596,0,7,6,desert_6,2,memory-2step-stake-s,650,3820965,0.0-19.0-0.1-0.155,A11YS0T8MV3Q7C,31KPKEKW5DTYWQJ2Z73D1GA4ZNDB00,38JBBYETQSQGO0BHI1X73B2PD9Y4E0,1,2
156,1,object_08,object_06,464.0,2,2,739.0,0.4444444444444444,2,object_07,5,2616,0,5,4,desert_2,2,memory-2step-stake-s,651,3829405,0.0-19.0-0.1-0.156,A11YS0T8MV3Q7C,31KPKEKW5DTYWQJ2Z73D1GA4ZNDB00,38JBBYETQSQGO0BHI1X73B2PD9Y4E0,1,2
157,2,object_05,object_10,546.0,3,2,999.0,0.4444444444444444,1,object_04,5,2636,0,4,4,forest_6,2,memory-2step-stake-s,652,3838086,0.0-19.0-0.1-0.157,A11YS0T8MV3Q7C,31KPKEKW5DTYWQJ2Z73D1GA4ZNDB00,38JBBYETQSQGO0BHI1X73B2PD9Y4E0,4,3
158,3,object_03,object_02,447.0,6,1,612.0,0.1111111111111111,2,object_07,1,2637,0,3,1,library_7,2,memory-2step-stake-s,653,3846058,0.0-19.0-0.1-0.158,A11YS0T8MV3Q7C,31KPKEKW5DTYWQJ2Z73D1GA4ZNDB00,38JBBYETQSQGO0BHI1X73B2PD9Y4E0,6,5
159,3,object_02,object_03,556.0,5,1,345.0,0.3333333333333333,1,object_04,5,2652,0,3,1,library_3,2,memory-2step-stake-s,654,3853988,0.0-19.0-0.1-0.159,A11YS0T8MV3Q7C,31KPKEKW5DTYWQJ2Z73D1GA4ZNDB00,38JBBYETQSQGO0BHI1X73B2PD9Y4E0,5,6
160,2,object_10,object_05,514.0,4,2,549.0,0.1111111111111111,2,object_07,1,2653,0,6,1,forest_7,2,memory-2step-stake-s,655,3861898,0.0-19.0-0.1-0.160,A11YS0T8MV3Q7C,31KPKEKW5DTYWQJ2Z73D1GA4ZNDB00,38JBBYETQSQGO0BHI1X73B2PD9Y4E0,3,4
161,2,object_05,object_10,530.0,3,2,311.0,0.7777777777777778,1,object_04,5,2688,0,7,3,forest_6,2,memory-2step-stake-s,656,3870218,0.0-19.0-0.1-0.161,A11YS0T8MV3Q7C,31KPKEKW5DTYWQJ2Z73D1GA4ZNDB00,38JBBYETQSQGO0BHI1X73B2PD9Y4E0,4,3
162,3,object_02,object_03,445.0,5,1,442.0,0.8888888888888888,1,object_04,1,2696,0,8,4,library_7,2,memory-2step-stake-s,657,3878759,0.0-19.0-0.1-0.162,A11YS0T8MV3Q7C,31KPKEKW5DTYWQJ2Z73D1GA4ZNDB00,38JBBYETQSQGO0BHI1X73B2PD9Y4E0,5,6
163,4,object_01,object_09,455.0,7,2,395.0,0.8888888888888888,1,object_04,1,2704,0,8,6,restaurant_5,2,memory-2step-stake-s,658,3887279,0.0-19.0-0.1-0.163,A11YS0T8MV3Q7C,31KPKEKW5DTYWQJ2Z73D1GA4ZNDB00,38JBBYETQSQGO0BHI1X73B2PD9Y4E0,8,7
164,3,object_03,object_02,455.0,5,2,362.0,0.7777777777777778,1,object_04,1,2711,0,7,4,library_3,2,memory-2step-stake-s,659,3895660,0.0-19.0-0.1-0.164,A11YS0T8MV3Q7C,31KPKEKW5DTYWQJ2Z73D1GA4ZNDB00,38JBBYETQSQGO0BHI1X73B2PD9Y4E0,6,5
165,1,object_08,object_06,569.0,1,1,413.0,0.4444444444444444,1,object_04,1,2715,0,4,4,desert_6,2,memory-2step-stake-s,660,3903772,0.0-19.0-0.1-0.165,A11YS0T8MV3Q7C,31KPKEKW5DTYWQJ2Z73D1GA4ZNDB00,38JBBYETQSQGO0BHI1X73B2PD9Y4E0,1,2
166,3,object_03,object_02,290.0,5,2,393.0,0.3333333333333333,1,object_04,5,2730,0,3,5,library_2,2,memory-2step-stake-s,661,3911763,0.0-19.0-0.1-0.166,A11YS0T8MV3Q7C,31KPKEKW5DTYWQJ2Z73D1GA4ZNDB00,38JBBYETQSQGO0BHI1X73B2PD9Y4E0,6,5
167,4,object_09,object_01,756.0,7,1,384.0,0.3333333333333333,1,object_04,5,2745,0,3,5,restaurant_7,2,memory-2step-stake-s,662,3919723,0.0-19.0-0.1-0.167,A11YS0T8MV3Q7C,31KPKEKW5DTYWQJ2Z73D1GA4ZNDB00,38JBBYETQSQGO0BHI1X73B2PD9Y4E0,7,8
168,3,object_03,object_02,515.0,5,2,727.0,0.4444444444444444,1,object_04,5,2765,0,4,9,library_3,2,memory-2step-stake-s,663,3928143,0.0-19.0-0.1-0.168,A11YS0T8MV3Q7C,31KPKEKW5DTYWQJ2Z73D1GA4ZNDB00,38JBBYETQSQGO0BHI1X73B2PD9Y4E0,6,5
169,1,object_06,object_08,768.0,2,1,636.0,0.8888888888888888,2,object_07,5,2805,0,4,8,desert_2,2,memory-2step-stake-s,664,3936883,0.0-19.0-0.1-0.169,A11YS0T8MV3Q7C,31KPKEKW5DTYWQJ2Z73D1GA4ZNDB00,38JBBYETQSQGO0BHI1X73B2PD9Y4E0,2,1
170,4,object_09,object_01,651.0,8,2,360.0,0.6666666666666666,2,object_07,5,2835,0,7,6,restaurant_7,2,memory-2step-stake-s,665,3945144,0.0-19.0-0.1-0.170,A11YS0T8MV3Q7C,31KPKEKW5DTYWQJ2Z73D1GA4ZNDB00,38JBBYETQSQGO0BHI1X73B2PD9Y4E0,7,8
171,1,object_08,object_06,413.0,1,1,290.0,1.0,1,object_04,5,2880,0,9,5,desert_4,2,memory-2step-stake-s,666,3953676,0.0-19.0-0.1-0.171,A11YS0T8MV3Q7C,31KPKEKW5DTYWQJ2Z73D1GA4ZNDB00,38JBBYETQSQGO0BHI1X73B2PD9Y4E0,1,2
172,4,object_09,object_01,633.0,7,1,693.0,0.7777777777777778,1,object_04,1,2887,0,7,6,restaurant_7,2,memory-2step-stake-s,667,3962396,0.0-19.0-0.1-0.172,A11YS0T8MV3Q7C,31KPKEKW5DTYWQJ2Z73D1GA4ZNDB00,38JBBYETQSQGO0BHI1X73B2PD9Y4E0,7,8
173,1,object_06,object_08,731.0,1,2,656.0,0.7777777777777778,1,object_04,5,2922,0,7,6,desert_1,2,memory-2step-stake-s,668,3971057,0.0-19.0-0.1-0.173,A11YS0T8MV3Q7C,31KPKEKW5DTYWQJ2Z73D1GA4ZNDB00,38JBBYETQSQGO0BHI1X73B2PD9Y4E0,2,1
174,2,object_05,object_10,741.0,4,1,-1.0,0.0,2,object_07,5,2922,0,9,3,forest_7,2,memory-2step-stake-s,669,3979616,0.0-19.0-0.1-0.174,A11YS0T8MV3Q7C,31KPKEKW5DTYWQJ2Z73D1GA4ZNDB00,38JBBYETQSQGO0BHI1X73B2PD9Y4E0,4,3
175,3,object_03,object_02,573.0,5,2,785.0,0.8888888888888888,1,object_04,1,2930,0,8,4,library_3,2,memory-2step-stake-s,670,3988537,0.0-19.0-0.1-0.175,A11YS0T8MV3Q7C,31KPKEKW5DTYWQJ2Z73D1GA4ZNDB00,38JBBYETQSQGO0BHI1X73B2PD9Y4E0,6,5
176,2,object_10,object_05,518.0,4,2,594.0,0.1111111111111111,2,object_07,5,2935,0,9,1,forest_5,2,memory-2step-stake-s,671,3996488,0.0-19.0-0.1-0.176,A11YS0T8MV3Q7C,31KPKEKW5DTYWQJ2Z73D1GA4ZNDB00,38JBBYETQSQGO0BHI1X73B2PD9Y4E0,3,4
177,4,object_01,object_09,517.0,7,2,663.0,1.0,1,object_04,1,2944,0,9,1,restaurant_6,2,memory-2step-stake-s,672,4005398,0.0-19.0-0.1-0.177,A11YS0T8MV3Q7C,31KPKEKW5DTYWQJ2Z73D1GA4ZNDB00,38JBBYETQSQGO0BHI1X73B2PD9Y4E0,8,7
178,3,object_03,object_02,481.0,6,1,-1.0,0.0,2,object_07,1,2944,0,8,3,library_8,2,memory-2step-stake-s,673,4013949,0.0-19.0-0.1-0.178,A11YS0T8MV3Q7C,31KPKEKW5DTYWQJ2Z73D1GA4ZNDB00,38JBBYETQSQGO0BHI1X73B2PD9Y4E0,6,5
179,4,object_09,object_01,489.0,8,2,684.0,0.3333333333333333,2,object_07,1,2947,0,9,3,restaurant_7,2,memory-2step-stake-s,674,4022228,0.0-19.0-0.1-0.179,A11YS0T8MV3Q7C,31KPKEKW5DTYWQJ2Z73D1GA4ZNDB00,38JBBYETQSQGO0BHI1X73B2PD9Y4E0,7,8
180,2,object_10,object_05,425.0,4,2,566.0,0.5555555555555556,2,object_07,5,2972,0,8,5,forest_1,2,memory-2step-stake-s,675,4030590,0.0-19.0-0.1-0.180,A11YS0T8MV3Q7C,31KPKEKW5DTYWQJ2Z73D1GA4ZNDB00,38JBBYETQSQGO0BHI1X73B2PD9Y4E0,3,4
181,1,object_06,object_08,697.0,2,1,981.0,0.5555555555555556,2,object_07,5,2997,0,8,5,desert_6,2,memory-2step-stake-s,676,4039370,0.0-19.0-0.1-0.181,A11YS0T8MV3Q7C,31KPKEKW5DTYWQJ2Z73D1GA4ZNDB00,38JBBYETQSQGO0BHI1X73B2PD9Y4E0,2,1
182,1,object_08,object_06,301.0,2,2,336.0,0.5555555555555556,2,object_07,1,3002,0,9,5,desert_6,2,memory-2step-stake-s,677,4047500,0.0-19.0-0.1-0.182,A11YS0T8MV3Q7C,31KPKEKW5DTYWQJ2Z73D1GA4ZNDB00,38JBBYETQSQGO0BHI1X73B2PD9Y4E0,1,2
183,2,object_05,object_10,417.0,4,1,300.0,0.2222222222222222,2,object_07,5,3012,0,6,2,forest_5,2,memory-2step-stake-s,678,4055281,0.0-19.0-0.1-0.183,A11YS0T8MV3Q7C,31KPKEKW5DTYWQJ2Z73D1GA4ZNDB00,38JBBYETQSQGO0BHI1X73B2PD9Y4E0,4,3
184,3,object_03,object_02,244.0,5,2,494.0,0.7777777777777778,1,object_04,5,3047,0,7,3,library_3,2,memory-2step-stake-s,679,4063802,0.0-19.0-0.1-0.184,A11YS0T8MV3Q7C,31KPKEKW5DTYWQJ2Z73D1GA4ZNDB00,38JBBYETQSQGO0BHI1X73B2PD9Y4E0,6,5
185,3,object_02,object_03,580.0,6,2,478.0,0.3333333333333333,2,object_07,1,3050,0,9,3,library_2,2,memory-2step-stake-s,680,4071873,0.0-19.0-0.1-0.185,A11YS0T8MV3Q7C,31KPKEKW5DTYWQJ2Z73D1GA4ZNDB00,38JBBYETQSQGO0BHI1X73B2PD9Y4E0,5,6
186,1,object_06,object_08,645.0,2,1,936.0,0.3333333333333333,2,object_07,1,3053,0,8,3,desert_6,2,memory-2step-stake-s,681,4080393,0.0-19.0-0.1-0.186,A11YS0T8MV3Q7C,31KPKEKW5DTYWQJ2Z73D1GA4ZNDB00,38JBBYETQSQGO0BHI1X73B2PD9Y4E0,2,1
187,2,object_05,object_10,508.0,3,2,833.0,0.8888888888888888,1,object_04,1,3061,0,8,5,forest_6,2,memory-2step-stake-s,682,4089363,0.0-19.0-0.1-0.187,A11YS0T8MV3Q7C,31KPKEKW5DTYWQJ2Z73D1GA4ZNDB00,38JBBYETQSQGO0BHI1X73B2PD9Y4E0,4,3
188,1,object_06,object_08,355.0,1,2,903.0,0.8888888888888888,1,object_04,5,3101,0,8,7,desert_1,2,memory-2step-stake-s,683,4098394,0.0-19.0-0.1-0.188,A11YS0T8MV3Q7C,31KPKEKW5DTYWQJ2Z73D1GA4ZNDB00,38JBBYETQSQGO0BHI1X73B2PD9Y4E0,2,1
189,4,object_09,object_01,1131.0,8,2,-1.0,0.0,2,object_07,1,3101,0,9,8,restaurant_6,2,memory-2step-stake-s,684,4106954,0.0-19.0-0.1-0.189,A11YS0T8MV3Q7C,31KPKEKW5DTYWQJ2Z73D1GA4ZNDB00,38JBBYETQSQGO0BHI1X73B2PD9Y4E0,7,8
190,3,object_03,object_02,333.0,6,1,377.0,1.0,2,object_07,5,3146,0,8,9,library_7,2,memory-2step-stake-s,685,4115567,0.0-19.0-0.1-0.190,A11YS0T8MV3Q7C,31KPKEKW5DTYWQJ2Z73D1GA4ZNDB00,38JBBYETQSQGO0BHI1X73B2PD9Y4E0,6,5
191,4,object_09,object_01,455.0,8,2,562.0,1.0,2,object_07,1,3155,0,8,9,restaurant_8,2,memory-2step-stake-s,686,4124387,0.0-19.0-0.1-0.191,A11YS0T8MV3Q7C,31KPKEKW5DTYWQJ2Z73D1GA4ZNDB00,38JBBYETQSQGO0BHI1X73B2PD9Y4E0,7,8
192,3,object_02,object_03,379.0,6,2,631.0,0.8888888888888888,2,object_07,5,3195,0,9,8,library_7,2,memory-2step-stake-s,687,4133148,0.0-19.0-0.1-0.192,A11YS0T8MV3Q7C,31KPKEKW5DTYWQJ2Z73D1GA4ZNDB00,38JBBYETQSQGO0BHI1X73B2PD9Y4E0,5,6
193,3,object_03,object_02,547.0,5,2,711.0,0.8888888888888888,1,object_04,1,3203,0,8,6,library_8,2,memory-2step-stake-s,688,4141980,0.0-19.0-0.1-0.193,A11YS0T8MV3Q7C,31KPKEKW5DTYWQJ2Z73D1GA4ZNDB00,38JBBYETQSQGO0BHI1X73B2PD9Y4E0,6,5
194,4,object_01,object_09,291.0,8,1,398.0,0.4444444444444444,2,object_07,1,3207,0,6,4,restaurant_8,2,memory-2step-stake-s,689,4150089,0.0-19.0-0.1-0.194,A11YS0T8MV3Q7C,31KPKEKW5DTYWQJ2Z73D1GA4ZNDB00,38JBBYETQSQGO0BHI1X73B2PD9Y4E0,8,7
195,3,object_02,object_03,486.0,6,2,450.0,0.6666666666666666,2,object_07,1,3213,0,7,6,library_8,2,memory-2step-stake-s,690,4158439,0.0-19.0-0.1-0.195,A11YS0T8MV3Q7C,31KPKEKW5DTYWQJ2Z73D1GA4ZNDB00,38JBBYETQSQGO0BHI1X73B2PD9Y4E0,5,6
196,4,object_01,object_09,225.0,7,2,341.0,0.7777777777777778,1,object_04,1,3220,0,7,8,restaurant_5,2,memory-2step-stake-s,691,4166791,0.0-19.0-0.1-0.196,A11YS0T8MV3Q7C,31KPKEKW5DTYWQJ2Z73D1GA4ZNDB00,38JBBYETQSQGO0BHI1X73B2PD9Y4E0,8,7
197,1,object_08,object_06,304.0,1,1,485.0,0.5555555555555556,1,object_04,5,3245,0,5,8,desert_6,2,memory-2step-stake-s,692,4175061,0.0-19.0-0.1-0.197,A11YS0T8MV3Q7C,31KPKEKW5DTYWQJ2Z73D1GA4ZNDB00,38JBBYETQSQGO0BHI1X73B2PD9Y4E0,1,2
198,3,object_03,object_02,344.0,5,2,485.0,0.5555555555555556,1,object_04,5,3270,0,5,9,library_7,2,memory-2step-stake-s,693,4183351,0.0-19.0-0.1-0.198,A11YS0T8MV3Q7C,31KPKEKW5DTYWQJ2Z73D1GA4ZNDB00,38JBBYETQSQGO0BHI1X73B2PD9Y4E0,6,5
199,4,object_09,object_01,374.0,8,2,399.0,0.8888888888888888,2,object_07,1,3278,0,6,8,restaurant_5,2,memory-2step-stake-s,694,4191892,0.0-19.0-0.1-0.199,A11YS0T8MV3Q7C,31KPKEKW5DTYWQJ2Z73D1GA4ZNDB00,38JBBYETQSQGO0BHI1X73B2PD9Y4E0,7,8
200,3,object_02,object_03,506.0,6,2,870.0,0.6666666666666666,2,object_07,5,3308,0,8,6,library_8,2,memory-2step-stake-s,695,4200682,0.0-19.0-0.1-0.200,A11YS0T8MV3Q7C,31KPKEKW5DTYWQJ2Z73D1GA4ZNDB00,38JBBYETQSQGO0BHI1X73B2PD9Y4E0,5,6
201,2,object_05,object_10,620.0,4,1,-1.0,0.0,2,object_07,5,3308,0,7,7,forest_6,2,memory-2step-stake-s,696,4209243,0.0-19.0-0.1-0.201,A11YS0T8MV3Q7C,31KPKEKW5DTYWQJ2Z73D1GA4ZNDB00,38JBBYETQSQGO0BHI1X73B2PD9Y4E0,4,3
202,1,object_08,object_06,658.0,2,2,685.0,0.5555555555555556,2,object_07,1,3313,0,7,5,desert_1,2,memory-2step-stake-s,697,4217733,0.0-19.0-0.1-0.202,A11YS0T8MV3Q7C,31KPKEKW5DTYWQJ2Z73D1GA4ZNDB00,38JBBYETQSQGO0BHI1X73B2PD9Y4E0,1,2
203,3,object_03,object_02,601.0,5,2,533.0,0.7777777777777778,1,object_04,5,3348,0,7,5,library_8,2,memory-2step-stake-s,698,4226284,0.0-19.0-0.1-0.203,A11YS0T8MV3Q7C,31KPKEKW5DTYWQJ2Z73D1GA4ZNDB00,38JBBYETQSQGO0BHI1X73B2PD9Y4E0,6,5
204,2,object_05,object_10,433.0,4,1,611.0,0.3333333333333333,2,object_07,1,3351,0,7,3,forest_7,2,memory-2step-stake-s,699,4234484,0.0-19.0-0.1-0.204,A11YS0T8MV3Q7C,31KPKEKW5DTYWQJ2Z73D1GA4ZNDB00,38JBBYETQSQGO0BHI1X73B2PD9Y4E0,4,3
205,2,object_05,object_10,369.0,3,2,757.0,0.7777777777777778,1,object_04,5,3386,0,7,4,forest_5,2,memory-2step-stake-s,700,4243265,0.0-19.0-0.1-0.205,A11YS0T8MV3Q7C,31KPKEKW5DTYWQJ2Z73D1GA4ZNDB00,38JBBYETQSQGO0BHI1X73B2PD9Y4E0,4,3
206,1,object_06,object_08,494.0,2,1,603.0,0.2222222222222222,2,object_07,5,3396,0,5,2,desert_2,2,memory-2step-stake-s,701,4251335,0.0-19.0-0.1-0.206,A11YS0T8MV3Q7C,31KPKEKW5DTYWQJ2Z73D1GA4ZNDB00,38JBBYETQSQGO0BHI1X73B2PD9Y4E0,2,1
207,2,object_10,object_05,334.0,4,2,355.0,0.2222222222222222,2,object_07,5,3406,0,1,2,forest_7,2,memory-2step-stake-s,702,4259156,0.0-19.0-0.1-0.207,A11YS0T8MV3Q7C,31KPKEKW5DTYWQJ2Z73D1GA4ZNDB00,38JBBYETQSQGO0BHI1X73B2PD9Y4E0,3,4
208,2,object_10,object_05,530.0,3,1,780.0,0.2222222222222222,1,object_04,1,3408,0,2,0,forest_5,2,memory-2step-stake-s,703,4267416,0.0-19.0-0.1-0.208,A11YS0T8MV3Q7C,31KPKEKW5DTYWQJ2Z73D1GA4ZNDB00,38JBBYETQSQGO0BHI1X73B2PD9Y4E0,3,4
209,1,object_08,object_06,405.0,2,2,648.0,0.0,2,object_07,5,3408,0,2,0,desert_2,2,memory-2step-stake-s,704,4275316,0.0-19.0-0.1-0.209,A11YS0T8MV3Q7C,31KPKEKW5DTYWQJ2Z73D1GA4ZNDB00,38JBBYETQSQGO0BHI1X73B2PD9Y4E0,1,2
210,2,object_05,object_10,411.0,4,1,294.0,0.1111111111111111,2,object_07,5,3413,0,2,1,forest_5,2,memory-2step-stake-s,705,4282967,0.0-19.0-0.1-0.210,A11YS0T8MV3Q7C,31KPKEKW5DTYWQJ2Z73D1GA4ZNDB00,38JBBYETQSQGO0BHI1X73B2PD9Y4E0,4,3
211,4,object_09,object_01,384.0,8,2,388.0,0.0,2,object_07,1,3413,0,0,0,restaurant_6,2,memory-2step-stake-s,706,4290597,0.0-19.0-0.1-0.211,A11YS0T8MV3Q7C,31KPKEKW5DTYWQJ2Z73D1GA4ZNDB00,38JBBYETQSQGO0BHI1X73B2PD9Y4E0,7,8
212,4,object_09,object_01,320.0,7,1,468.0,0.2222222222222222,1,object_04,1,3415,0,2,0,restaurant_6,2,memory-2step-stake-s,707,4298538,0.0-19.0-0.1-0.212,A11YS0T8MV3Q7C,31KPKEKW5DTYWQJ2Z73D1GA4ZNDB00,38JBBYETQSQGO0BHI1X73B2PD9Y4E0,7,8
213,4,object_01,object_09,603.0,7,2,495.0,0.3333333333333333,1,object_04,1,3418,0,3,0,restaurant_8,2,memory-2step-stake-s,708,4306608,0.0-19.0-0.1-0.213,A11YS0T8MV3Q7C,31KPKEKW5DTYWQJ2Z73D1GA4ZNDB00,38JBBYETQSQGO0BHI1X73B2PD9Y4E0,8,7
214,2,object_05,object_10,454.0,3,2,600.0,0.3333333333333333,1,object_04,5,3433,0,3,1,forest_1,2,memory-2step-stake-s,709,4314798,0.0-19.0-0.1-0.214,A11YS0T8MV3Q7C,31KPKEKW5DTYWQJ2Z73D1GA4ZNDB00,38JBBYETQSQGO0BHI1X73B2PD9Y4E0,4,3
215,4,object_01,object_09,568.0,8,1,659.0,0.3333333333333333,2,object_07,1,3436,0,5,3,restaurant_5,2,memory-2step-stake-s,710,4323039,0.0-19.0-0.1-0.215,A11YS0T8MV3Q7C,31KPKEKW5DTYWQJ2Z73D1GA4ZNDB00,38JBBYETQSQGO0BHI1X73B2PD9Y4E0,8,7
216,3,object_03,object_02,439.0,5,2,378.0,0.6666666666666666,1,object_04,5,3466,0,6,0,library_7,2,memory-2step-stake-s,711,4331329,0.0-19.0-0.1-0.216,A11YS0T8MV3Q7C,31KPKEKW5DTYWQJ2Z73D1GA4ZNDB00,38JBBYETQSQGO0BHI1X73B2PD9Y4E0,6,5
217,3,object_03,object_02,244.0,5,2,513.0,0.7777777777777778,1,object_04,1,3473,0,7,2,library_2,2,memory-2step-stake-s,712,4339860,0.0-19.0-0.1-0.217,A11YS0T8MV3Q7C,31KPKEKW5DTYWQJ2Z73D1GA4ZNDB00,38JBBYETQSQGO0BHI1X73B2PD9Y4E0,6,5
218,3,object_03,object_02,394.0,6,1,605.0,0.4444444444444444,2,object_07,1,3477,0,6,4,library_2,2,memory-2step-stake-s,713,4348150,0.0-19.0-0.1-0.218,A11YS0T8MV3Q7C,31KPKEKW5DTYWQJ2Z73D1GA4ZNDB00,38JBBYETQSQGO0BHI1X73B2PD9Y4E0,6,5
219,2,object_05,object_10,433.0,3,2,798.0,0.8888888888888888,1,object_04,5,3517,0,8,6,forest_1,2,memory-2step-stake-s,714,4357081,0.0-19.0-0.1-0.219,A11YS0T8MV3Q7C,31KPKEKW5DTYWQJ2Z73D1GA4ZNDB00,38JBBYETQSQGO0BHI1X73B2PD9Y4E0,4,3
220,3,object_03,object_02,893.0,5,2,718.0,0.8888888888888888,1,object_04,1,3525,0,8,6,library_3,2,memory-2step-stake-s,715,4365931,0.0-19.0-0.1-0.220,A11YS0T8MV3Q7C,31KPKEKW5DTYWQJ2Z73D1GA4ZNDB00,38JBBYETQSQGO0BHI1X73B2PD9Y4E0,6,5
221,3,object_03,object_02,603.0,5,2,807.0,1.0,1,object_04,1,3534,0,9,6,library_8,2,memory-2step-stake-s,716,4374983,0.0-19.0-0.1-0.221,A11YS0T8MV3Q7C,31KPKEKW5DTYWQJ2Z73D1GA4ZNDB00,38JBBYETQSQGO0BHI1X73B2PD9Y4E0,6,5
222,1,object_08,object_06,296.0,1,1,235.0,0.8888888888888888,1,object_04,5,3574,0,8,7,desert_6,2,memory-2step-stake-s,717,4383352,0.0-19.0-0.1-0.222,A11YS0T8MV3Q7C,31KPKEKW5DTYWQJ2Z73D1GA4ZNDB00,38JBBYETQSQGO0BHI1X73B2PD9Y4E0,1,2
223,3,object_03,object_02,246.0,5,2,347.0,0.3333333333333333,1,object_04,1,3577,0,3,5,library_8,2,memory-2step-stake-s,718,4391273,0.0-19.0-0.1-0.223,A11YS0T8MV3Q7C,31KPKEKW5DTYWQJ2Z73D1GA4ZNDB00,38JBBYETQSQGO0BHI1X73B2PD9Y4E0,6,5
224,3,object_03,object_02,589.0,6,1,377.0,0.5555555555555556,2,object_07,1,3582,0,8,5,library_3,2,memory-2step-stake-s,719,4399454,0.0-19.0-0.1-0.224,A11YS0T8MV3Q7C,31KPKEKW5DTYWQJ2Z73D1GA4ZNDB00,38JBBYETQSQGO0BHI1X73B2PD9Y4E0,6,5
225,4,object_09,object_01,264.0,8,2,475.0,0.2222222222222222,2,object_07,1,3584,0,7,2,restaurant_7,2,memory-2step-stake-s,720,4407395,0.0-19.0-0.1-0.225,A11YS0T8MV3Q7C,31KPKEKW5DTYWQJ2Z73D1GA4ZNDB00,38JBBYETQSQGO0BHI1X73B2PD9Y4E0,7,8
226,2,object_10,object_05,796.0,3,1,1094.0,0.7777777777777778,1,object_04,5,3619,0,7,3,forest_7,2,memory-2step-stake-s,721,4416514,0.0-19.0-0.1-0.226,A11YS0T8MV3Q7C,31KPKEKW5DTYWQJ2Z73D1GA4ZNDB00,38JBBYETQSQGO0BHI1X73B2PD9Y4E0,3,4
227,3,object_03,object_02,308.0,6,1,1273.0,0.3333333333333333,2,object_07,1,3622,0,7,3,library_8,2,memory-2step-stake-s,722,4425366,0.0-19.0-0.1-0.227,A11YS0T8MV3Q7C,31KPKEKW5DTYWQJ2Z73D1GA4ZNDB00,38JBBYETQSQGO0BHI1X73B2PD9Y4E0,6,5
228,2,object_10,object_05,359.0,4,2,827.0,0.6666666666666666,2,object_07,5,3652,0,8,6,forest_7,2,memory-2step-stake-s,723,4434106,0.0-19.0-0.1-0.228,A11YS0T8MV3Q7C,31KPKEKW5DTYWQJ2Z73D1GA4ZNDB00,38JBBYETQSQGO0BHI1X73B2PD9Y4E0,3,4
229,4,object_01,object_09,348.0,7,2,865.0,0.6666666666666666,1,object_04,1,3658,0,6,6,restaurant_5,2,memory-2step-stake-s,724,4442866,0.0-19.0-0.1-0.229,A11YS0T8MV3Q7C,31KPKEKW5DTYWQJ2Z73D1GA4ZNDB00,38JBBYETQSQGO0BHI1X73B2PD9Y4E0,8,7
230,4,object_09,object_01,364.0,7,1,392.0,0.7777777777777778,1,object_04,1,3665,0,7,4,restaurant_6,2,memory-2step-stake-s,725,4451277,0.0-19.0-0.1-0.230,A11YS0T8MV3Q7C,31KPKEKW5DTYWQJ2Z73D1GA4ZNDB00,38JBBYETQSQGO0BHI1X73B2PD9Y4E0,7,8
231,1,object_06,object_08,344.0,1,2,780.0,0.5555555555555556,1,object_04,5,3690,0,5,3,desert_2,2,memory-2step-stake-s,726,4459869,0.0-19.0-0.1-0.231,A11YS0T8MV3Q7C,31KPKEKW5DTYWQJ2Z73D1GA4ZNDB00,38JBBYETQSQGO0BHI1X73B2PD9Y4E0,2,1
232,1,object_06,object_08,817.0,2,1,717.0,0.1111111111111111,2,object_07,1,3691,0,7,1,desert_4,2,memory-2step-stake-s,727,4467950,0.0-19.0-0.1-0.232,A11YS0T8MV3Q7C,31KPKEKW5DTYWQJ2Z73D1GA4ZNDB00,38JBBYETQSQGO0BHI1X73B2PD9Y4E0,2,1
233,1,object_08,object_06,399.0,2,2,595.0,0.0,2,object_07,5,3691,0,8,0,desert_6,2,memory-2step-stake-s,728,4475790,0.0-19.0-0.1-0.233,A11YS0T8MV3Q7C,31KPKEKW5DTYWQJ2Z73D1GA4ZNDB00,38JBBYETQSQGO0BHI1X73B2PD9Y4E0,1,2
234,2,object_10,object_05,697.0,4,2,612.0,0.2222222222222222,2,object_07,5,3701,0,6,2,forest_6,2,memory-2step-stake-s,729,4483871,0.0-19.0-0.1-0.234,A11YS0T8MV3Q7C,31KPKEKW5DTYWQJ2Z73D1GA4ZNDB00,38JBBYETQSQGO0BHI1X73B2PD9Y4E0,3,4
235,2,object_05,object_10,503.0,4,1,554.0,0.3333333333333333,2,object_07,5,3716,0,7,3,forest_5,2,memory-2step-stake-s,730,4492002,0.0-19.0-0.1-0.235,A11YS0T8MV3Q7C,31KPKEKW5DTYWQJ2Z73D1GA4ZNDB00,38JBBYETQSQGO0BHI1X73B2PD9Y4E0,4,3
236,3,object_02,object_03,764.0,5,1,824.0,0.8888888888888888,1,object_04,1,3724,0,8,2,library_2,2,memory-2step-stake-s,731,4500963,0.0-19.0-0.1-0.236,A11YS0T8MV3Q7C,31KPKEKW5DTYWQJ2Z73D1GA4ZNDB00,38JBBYETQSQGO0BHI1X73B2PD9Y4E0,5,6
237,4,object_01,object_09,427.0,7,2,631.0,0.6666666666666666,1,object_04,1,3730,0,6,3,restaurant_7,2,memory-2step-stake-s,732,4509503,0.0-19.0-0.1-0.237,A11YS0T8MV3Q7C,31KPKEKW5DTYWQJ2Z73D1GA4ZNDB00,38JBBYETQSQGO0BHI1X73B2PD9Y4E0,8,7
238,4,object_01,object_09,447.0,7,2,648.0,0.5555555555555556,1,object_04,1,3735,0,5,5,restaurant_7,2,memory-2step-stake-s,733,4517963,0.0-19.0-0.1-0.238,A11YS0T8MV3Q7C,31KPKEKW5DTYWQJ2Z73D1GA4ZNDB00,38JBBYETQSQGO0BHI1X73B2PD9Y4E0,8,7
239,4,object_09,object_01,498.0,7,1,613.0,0.6666666666666666,1,object_04,1,3741,0,6,5,restaurant_8,2,memory-2step-stake-s,734,4526487,0.0-19.0-0.1-0.239,A11YS0T8MV3Q7C,31KPKEKW5DTYWQJ2Z73D1GA4ZNDB00,38JBBYETQSQGO0BHI1X73B2PD9Y4E0,7,8
240,3,object_03,object_02,576.0,5,2,563.0,0.8888888888888888,1,object_04,1,3749,0,8,6,library_7,2,memory-2step-stake-s,735,4535186,0.0-19.0-0.1-0.240,A11YS0T8MV3Q7C,31KPKEKW5DTYWQJ2Z73D1GA4ZNDB00,38JBBYETQSQGO0BHI1X73B2PD9Y4E0,6,5
241,1,object_08,object_06,372.0,2,2,359.0,0.2222222222222222,2,object_07,5,3759,0,6,2,desert_1,2,memory-2step-stake-s,736,4543027,0.0-19.0-0.1-0.241,A11YS0T8MV3Q7C,31KPKEKW5DTYWQJ2Z73D1GA4ZNDB00,38JBBYETQSQGO0BHI1X73B2PD9Y4E0,1,2
242,4,object_01,object_09,490.0,7,2,487.0,0.7777777777777778,1,object_04,1,3766,0,7,0,restaurant_6,2,memory-2step-stake-s,737,4551538,0.0-19.0-0.1-0.242,A11YS0T8MV3Q7C,31KPKEKW5DTYWQJ2Z73D1GA4ZNDB00,38JBBYETQSQGO0BHI1X73B2PD9Y4E0,8,7
243,4,object_09,object_01,325.0,7,1,570.0,0.8888888888888888,1,object_04,1,3774,0,8,2,restaurant_8,2,memory-2step-stake-s,738,4560237,0.0-19.0-0.1-0.243,A11YS0T8MV3Q7C,31KPKEKW5DTYWQJ2Z73D1GA4ZNDB00,38JBBYETQSQGO0BHI1X73B2PD9Y4E0,7,8
244,4,object_09,object_01,192.0,8,2,333.0,0.0,2,object_07,1,3774,0,9,0,restaurant_7,2,memory-2step-stake-s,739,4567808,0.0-19.0-0.1-0.244,A11YS0T8MV3Q7C,31KPKEKW5DTYWQJ2Z73D1GA4ZNDB00,38JBBYETQSQGO0BHI1X73B2PD9Y4E0,7,8
245,2,object_10,object_05,309.0,4,2,432.0,0.5555555555555556,2,object_07,1,3779,0,5,5,forest_1,2,memory-2step-stake-s,740,4576039,0.0-19.0-0.1-0.245,A11YS0T8MV3Q7C,31KPKEKW5DTYWQJ2Z73D1GA4ZNDB00,38JBBYETQSQGO0BHI1X73B2PD9Y4E0,3,4
246,2,object_05,object_10,552.0,4,1,773.0,0.7777777777777778,2,object_07,5,3814,0,3,7,forest_7,2,memory-2step-stake-s,741,4584820,0.0-19.0-0.1-0.246,A11YS0T8MV3Q7C,31KPKEKW5DTYWQJ2Z73D1GA4ZNDB00,38JBBYETQSQGO0BHI1X73B2PD9Y4E0,4,3
247,4,object_01,object_09,403.0,8,1,469.0,1.0,2,object_07,1,3823,0,5,9,restaurant_6,2,memory-2step-stake-s,742,4593532,0.0-19.0-0.1-0.247,A11YS0T8MV3Q7C,31KPKEKW5DTYWQJ2Z73D1GA4ZNDB00,38JBBYETQSQGO0BHI1X73B2PD9Y4E0,8,7
248,1,object_06,object_08,243.0,2,1,285.0,0.8888888888888888,2,object_07,5,3863,0,3,8,desert_4,2,memory-2step-stake-s,743,4601951,0.0-19.0-0.1-0.248,A11YS0T8MV3Q7C,31KPKEKW5DTYWQJ2Z73D1GA4ZNDB00,38JBBYETQSQGO0BHI1X73B2PD9Y4E0,2,1
249,2,object_10,object_05,310.0,4,2,210.0,0.5555555555555556,2,object_07,5,3888,0,1,5,forest_6,2,memory-2step-stake-s,744,4609963,0.0-19.0-0.1-0.249,A11YS0T8MV3Q7C,31KPKEKW5DTYWQJ2Z73D1GA4ZNDB00,38JBBYETQSQGO0BHI1X73B2PD9Y4E0,3,4
250,4,object_09,object_01,363.0,7,1,982.0,0.2222222222222222,1,object_04,1,3890,0,2,7,restaurant_8,2,memory-2step-stake-s,745,4618413,0.0-19.0-0.1-0.250,A11YS0T8MV3Q7C,31KPKEKW5DTYWQJ2Z73D1GA4ZNDB00,38JBBYETQSQGO0BHI1X73B2PD9Y4E0,7,8
251,1,object_08,object_06,602.0,1,1,838.0,0.0,1,object_04,5,3890,0,0,5,desert_2,2,memory-2step-stake-s,746,4626494,0.0-19.0-0.1-0.251,A11YS0T8MV3Q7C,31KPKEKW5DTYWQJ2Z73D1GA4ZNDB00,38JBBYETQSQGO0BHI1X73B2PD9Y4E0,1,2
252,1,object_06,object_08,268.0,1,2,482.0,0.2222222222222222,1,object_04,5,3900,0,2,7,desert_2,2,memory-2step-stake-s,747,4634456,0.0-19.0-0.1-0.252,A11YS0T8MV3Q7C,31KPKEKW5DTYWQJ2Z73D1GA4ZNDB00,38JBBYETQSQGO0BHI1X73B2PD9Y4E0,2,1
253,1,object_08,object_06,413.0,1,1,646.0,0.4444444444444444,1,object_04,1,3904,0,4,6,desert_6,2,memory-2step-stake-s,748,4642805,0.0-19.0-0.1-0.253,A11YS0T8MV3Q7C,31KPKEKW5DTYWQJ2Z73D1GA4ZNDB00,38JBBYETQSQGO0BHI1X73B2PD9Y4E0,1,2
254,2,object_05,object_10,393.0,3,2,374.0,0.1111111111111111,1,object_04,1,3905,0,1,4,forest_1,2,memory-2step-stake-s,749,4650526,0.0-19.0-0.1-0.254,A11YS0T8MV3Q7C,31KPKEKW5DTYWQJ2Z73D1GA4ZNDB00,38JBBYETQSQGO0BHI1X73B2PD9Y4E0,4,3
255,2,object_10,object_05,432.0,3,1,347.0,0.1111111111111111,1,object_04,5,3910,0,1,9,forest_1,2,memory-2step-stake-s,750,4658250,0.0-19.0-0.1-0.255,A11YS0T8MV3Q7C,31KPKEKW5DTYWQJ2Z73D1GA4ZNDB00,38JBBYETQSQGO0BHI1X73B2PD9Y4E0,3,4
