,state1,stim_left,stim_right,rt_1,choice1,response1,rt_2,points,state2,stim_state2,stake,score,practice,rews1,rews2,background,high_arm,trial_type,trial_index,time_elapsed,internal_node_id,subid,hitid,assignmentid,stim_left_num,stim_right_num
0,1,object_09,object_03,807.30000007153,1,1,777.70000004768,0.6666666666666666,1,object_08,1,6,0,6,3,desert_8,2,memory-2step-stake-s,490,1432981,0.0-19.0-0.0-0.0,AERUGBNS48Z4N,3HRWUH63RXIZS6U0Z3EY966PXK25N4,3WRFBPLXRE4Z0A5QBMV7JT4SD0AN3S,1,2
1,2,object_04,object_01,851.79999995232,4,2,846.5,0.6666666666666666,2,object_06,5,36,0,8,6,forest_2,2,memory-2step-stake-s,491,1441661,0.0-19.0-0.0-0.1,AERUGBNS48Z4N,3HRWUH63RXIZS6U0Z3EY966PXK25N4,3WRFBPLXRE4Z0A5QBMV7JT4SD0AN3S,3,4
2,3,object_10,object_07,1094.6000000238,6,1,697.89999997616,0.2222222222222222,2,object_06,1,38,0,9,2,library_7,2,memory-2step-stake-s,492,1449776,0.0-19.0-0.0-0.2,AERUGBNS48Z4N,3HRWUH63RXIZS6U0Z3EY966PXK25N4,3WRFBPLXRE4Z0A5QBMV7JT4SD0AN3S,6,5
3,1,object_03,object_09,1181.0,1,2,463.60000002384,0.6666666666666666,1,object_08,5,68,0,6,2,desert_3,2,memory-2step-stake-s,493,1458063,0.0-19.0-0.0-0.3,AERUGBNS48Z4N,3HRWUH63RXIZS6U0Z3EY966PXK25N4,3WRFBPLXRE4Z0A5QBMV7JT4SD0AN3S,2,1
4,2,object_04,object_01,1012.8999999762,3,1,551.60000002384,0.5555555555555556,1,object_08,5,93,0,5,2,forest_3,2,memory-2step-stake-s,494,1466344,0.0-19.0-0.0-0.4,AERUGBNS48Z4N,3HRWUH63RXIZS6U0Z3EY966PXK25N4,3WRFBPLXRE4Z0A5QBMV7JT4SD0AN3S,3,4
5,4,object_05,object_02,1172.7999999523,8,2,392.69999992847,0.3333333333333333,2,object_06,1,96,0,3,3,restaurant_6,2,memory-2step-stake-s,495,1474266,0.0-19.0-0.0-0.5,AERUGBNS48Z4N,3HRWUH63RXIZS6U0Z3EY966PXK25N4,3WRFBPLXRE4Z0A5QBMV7JT4SD0AN3S,7,8
6,3,object_10,object_07,1328.2999999523,5,2,388.70000004768,0.1111111111111111,1,object_08,1,97,0,1,3,library_8,2,memory-2step-stake-s,496,1481971,0.0-19.0-0.0-0.6,AERUGBNS48Z4N,3HRWUH63RXIZS6U0Z3EY966PXK25N4,3WRFBPLXRE4Z0A5QBMV7JT4SD0AN3S,6,5
7,3,object_07,object_10,1048.2000000477,6,2,459.89999997616,0.2222222222222222,2,object_06,5,107,0,1,2,library_7,2,memory-2step-stake-s,497,1489855,0.0-19.0-0.0-0.7,AERUGBNS48Z4N,3HRWUH63RXIZS6U0Z3EY966PXK25N4,3WRFBPLXRE4Z0A5QBMV7JT4SD0AN3S,5,6
8,3,object_10,object_07,940.29999995232,5,2,415.10000002384,0.1111111111111111,1,object_08,1,108,0,1,1,library_1,2,memory-2step-stake-s,498,1497588,0.0-19.0-0.0-0.8,AERUGBNS48Z4N,3HRWUH63RXIZS6U0Z3EY966PXK25N4,3WRFBPLXRE4Z0A5QBMV7JT4SD0AN3S,6,5
9,1,object_09,object_03,799.40000009537,2,2,403.5,0.0,2,object_06,1,108,0,2,0,desert_8,2,memory-2step-stake-s,499,1505205,0.0-19.0-0.0-0.9,AERUGBNS48Z4N,3HRWUH63RXIZS6U0Z3EY966PXK25N4,3WRFBPLXRE4Z0A5QBMV7JT4SD0AN3S,1,2
10,4,object_05,object_02,949.70000004768,7,1,610.60000002384,0.3333333333333333,1,object_08,1,111,0,3,3,restaurant_6,2,memory-2step-stake-s,500,1513335,0.0-19.0-0.0-0.10,AERUGBNS48Z4N,3HRWUH63RXIZS6U0Z3EY966PXK25N4,3WRFBPLXRE4Z0A5QBMV7JT4SD0AN3S,7,8
11,4,object_02,object_05,1111.4000000954,7,2,412.5,0.1111111111111111,1,object_08,1,112,0,1,3,restaurant_7,2,memory-2step-stake-s,501,1521059,0.0-19.0-0.0-0.11,AERUGBNS48Z4N,3HRWUH63RXIZS6U0Z3EY966PXK25N4,3WRFBPLXRE4Z0A5QBMV7JT4SD0AN3S,8,7
12,1,object_09,object_03,729.29999995232,1,1,364.69999992847,0.2222222222222222,1,object_08,5,122,0,2,6,desert_3,2,memory-2step-stake-s,502,1528853,0.0-19.0-0.0-0.12,AERUGBNS48Z4N,3HRWUH63RXIZS6U0Z3EY966PXK25N4,3WRFBPLXRE4Z0A5QBMV7JT4SD0AN3S,1,2
13,3,object_10,object_07,1009.5999999046,6,1,388.90000009537,0.2222222222222222,2,object_06,1,124,0,1,2,library_3,2,memory-2step-stake-s,503,1536654,0.0-19.0-0.0-0.13,AERUGBNS48Z4N,3HRWUH63RXIZS6U0Z3EY966PXK25N4,3WRFBPLXRE4Z0A5QBMV7JT4SD0AN3S,6,5
14,4,object_05,object_02,1188.6000000238,8,2,381.79999995232,0.3333333333333333,2,object_06,5,139,0,1,3,restaurant_2,2,memory-2step-stake-s,504,1544550,0.0-19.0-0.0-0.14,AERUGBNS48Z4N,3HRWUH63RXIZS6U0Z3EY966PXK25N4,3WRFBPLXRE4Z0A5QBMV7JT4SD0AN3S,7,8
15,4,object_02,object_05,827.5,7,2,565.5,0.3333333333333333,1,object_08,1,142,0,3,3,restaurant_6,2,memory-2step-stake-s,505,1552652,0.0-19.0-0.0-0.15,AERUGBNS48Z4N,3HRWUH63RXIZS6U0Z3EY966PXK25N4,3WRFBPLXRE4Z0A5QBMV7JT4SD0AN3S,8,7
16,1,object_03,object_09,858.19999992847,2,1,406.40000009537,0.3333333333333333,2,object_06,1,145,0,2,3,desert_2,2,memory-2step-stake-s,506,1560573,0.0-19.0-0.0-0.16,AERUGBNS48Z4N,3HRWUH63RXIZS6U0Z3EY966PXK25N4,3WRFBPLXRE4Z0A5QBMV7JT4SD0AN3S,2,1
17,1,object_09,object_03,1392.1000000238,1,1,450.20000004768,0.3333333333333333,1,object_08,5,160,0,3,5,desert_8,2,memory-2step-stake-s,507,1568547,0.0-19.0-0.0-0.17,AERUGBNS48Z4N,3HRWUH63RXIZS6U0Z3EY966PXK25N4,3WRFBPLXRE4Z0A5QBMV7JT4SD0AN3S,1,2
18,2,object_01,object_04,930.5,3,2,307.10000002384,0.4444444444444444,1,object_08,5,180,0,4,5,forest_7,2,memory-2step-stake-s,508,1576480,0.0-19.0-0.0-0.18,AERUGBNS48Z4N,3HRWUH63RXIZS6U0Z3EY966PXK25N4,3WRFBPLXRE4Z0A5QBMV7JT4SD0AN3S,4,3
19,3,object_07,object_10,757.30000007153,6,2,320.60000002384,0.5555555555555556,2,object_06,1,185,0,1,5,library_3,2,memory-2step-stake-s,509,1584519,0.0-19.0-0.0-0.19,AERUGBNS48Z4N,3HRWUH63RXIZS6U0Z3EY966PXK25N4,3WRFBPLXRE4Z0A5QBMV7JT4SD0AN3S,5,6
20,3,object_07,object_10,822.0,6,2,328.5,0.6666666666666666,2,object_06,1,191,0,4,6,library_8,2,memory-2step-stake-s,510,1592696,0.0-19.0-0.0-0.20,AERUGBNS48Z4N,3HRWUH63RXIZS6U0Z3EY966PXK25N4,3WRFBPLXRE4Z0A5QBMV7JT4SD0AN3S,5,6
21,4,object_02,object_05,820.5,7,2,353.60000002384,0.5555555555555556,1,object_08,5,216,0,5,7,restaurant_7,2,memory-2step-stake-s,511,1600769,0.0-19.0-0.0-0.21,AERUGBNS48Z4N,3HRWUH63RXIZS6U0Z3EY966PXK25N4,3WRFBPLXRE4Z0A5QBMV7JT4SD0AN3S,8,7
22,1,object_09,object_03,971.89999997616,1,1,319.39999997616,0.7777777777777778,1,object_08,5,251,0,7,9,desert_6,2,memory-2step-stake-s,512,1609030,0.0-19.0-0.0-0.22,AERUGBNS48Z4N,3HRWUH63RXIZS6U0Z3EY966PXK25N4,3WRFBPLXRE4Z0A5QBMV7JT4SD0AN3S,1,2
23,2,object_01,object_04,1126.2999999523,3,2,266.29999995232,1.0,1,object_08,5,296,0,9,9,forest_3,2,memory-2step-stake-s,513,1617432,0.0-19.0-0.0-0.23,AERUGBNS48Z4N,3HRWUH63RXIZS6U0Z3EY966PXK25N4,3WRFBPLXRE4Z0A5QBMV7JT4SD0AN3S,4,3
24,3,object_07,object_10,709.89999997616,6,2,299.0,1.0,2,object_06,1,305,0,6,9,library_3,2,memory-2step-stake-s,514,1625878,0.0-19.0-0.0-0.24,AERUGBNS48Z4N,3HRWUH63RXIZS6U0Z3EY966PXK25N4,3WRFBPLXRE4Z0A5QBMV7JT4SD0AN3S,5,6
25,3,object_10,object_07,759.10000002384,6,1,371.89999997616,0.8888888888888888,2,object_06,1,313,0,6,8,library_1,2,memory-2step-stake-s,515,1634270,0.0-19.0-0.0-0.25,AERUGBNS48Z4N,3HRWUH63RXIZS6U0Z3EY966PXK25N4,3WRFBPLXRE4Z0A5QBMV7JT4SD0AN3S,6,5
26,2,object_01,object_04,661.39999997616,3,2,266.79999995232,0.5555555555555556,1,object_08,5,338,0,5,7,forest_7,2,memory-2step-stake-s,516,1642265,0.0-19.0-0.0-0.26,AERUGBNS48Z4N,3HRWUH63RXIZS6U0Z3EY966PXK25N4,3WRFBPLXRE4Z0A5QBMV7JT4SD0AN3S,4,3
27,3,object_10,object_07,461.10000002384,6,1,288.19999992847,0.3333333333333333,2,object_06,5,353,0,5,3,library_3,2,memory-2step-stake-s,517,1650067,0.0-19.0-0.0-0.27,AERUGBNS48Z4N,3HRWUH63RXIZS6U0Z3EY966PXK25N4,3WRFBPLXRE4Z0A5QBMV7JT4SD0AN3S,6,5
28,4,object_05,object_02,-1.0,-1,-1,-1.0,0.0,-,0,5,353,0,8,6,restaurant_7,2,memory-2step-stake-s,518,1656578,0.0-19.0-0.0-0.28,AERUGBNS48Z4N,3HRWUH63RXIZS6U0Z3EY966PXK25N4,3WRFBPLXRE4Z0A5QBMV7JT4SD0AN3S,7,8
29,1,object_09,object_03,834.29999995232,1,1,317.0,0.8888888888888888,1,object_08,5,393,0,8,4,desert_8,2,memory-2step-stake-s,519,1664924,0.0-19.0-0.0-0.29,AERUGBNS48Z4N,3HRWUH63RXIZS6U0Z3EY966PXK25N4,3WRFBPLXRE4Z0A5QBMV7JT4SD0AN3S,1,2
30,1,object_03,object_09,921.10000002384,2,1,363.60000002384,0.8888888888888888,2,object_06,5,433,0,8,8,desert_2,2,memory-2step-stake-s,520,1676973,0.0-19.0-0.0-0.30,AERUGBNS48Z4N,3HRWUH63RXIZS6U0Z3EY966PXK25N4,3WRFBPLXRE4Z0A5QBMV7JT4SD0AN3S,2,1
31,1,object_09,object_03,831.0,2,2,408.79999995232,0.4444444444444444,2,object_06,5,453,0,8,4,desert_8,2,memory-2step-stake-s,521,1685006,0.0-19.0-0.0-0.31,AERUGBNS48Z4N,3HRWUH63RXIZS6U0Z3EY966PXK25N4,3WRFBPLXRE4Z0A5QBMV7JT4SD0AN3S,1,2
32,1,object_09,object_03,469.79999995232,1,1,496.90000009537,0.8888888888888888,1,object_08,5,493,0,8,6,desert_8,2,memory-2step-stake-s,522,1693528,0.0-19.0-0.0-0.32,AERUGBNS48Z4N,3HRWUH63RXIZS6U0Z3EY966PXK25N4,3WRFBPLXRE4Z0A5QBMV7JT4SD0AN3S,1,2
33,3,object_10,object_07,740.0,6,1,262.5,0.6666666666666666,2,object_06,1,499,0,7,6,library_8,2,memory-2step-stake-s,523,1701624,0.0-19.0-0.0-0.33,AERUGBNS48Z4N,3HRWUH63RXIZS6U0Z3EY966PXK25N4,3WRFBPLXRE4Z0A5QBMV7JT4SD0AN3S,6,5
34,4,object_02,object_05,862.29999995232,8,1,289.70000004768,0.5555555555555556,2,object_06,1,504,0,7,5,restaurant_2,2,memory-2step-stake-s,524,1709630,0.0-19.0-0.0-0.34,AERUGBNS48Z4N,3HRWUH63RXIZS6U0Z3EY966PXK25N4,3WRFBPLXRE4Z0A5QBMV7JT4SD0AN3S,8,7
35,4,object_02,object_05,530.80000007153,7,2,253.39999997616,1.0,1,object_08,5,549,0,9,3,restaurant_5,2,memory-2step-stake-s,525,1718023,0.0-19.0-0.0-0.35,AERUGBNS48Z4N,3HRWUH63RXIZS6U0Z3EY966PXK25N4,3WRFBPLXRE4Z0A5QBMV7JT4SD0AN3S,8,7
36,3,object_07,object_10,1037.2000000477,5,1,305.60000002384,0.5555555555555556,1,object_08,1,554,0,5,1,library_8,2,memory-2step-stake-s,526,1726048,0.0-19.0-0.0-0.36,AERUGBNS48Z4N,3HRWUH63RXIZS6U0Z3EY966PXK25N4,3WRFBPLXRE4Z0A5QBMV7JT4SD0AN3S,5,6
37,1,object_03,object_09,871.0,1,2,257.29999995232,0.5555555555555556,1,object_08,5,579,0,5,1,desert_3,2,memory-2step-stake-s,527,1734023,0.0-19.0-0.0-0.37,AERUGBNS48Z4N,3HRWUH63RXIZS6U0Z3EY966PXK25N4,3WRFBPLXRE4Z0A5QBMV7JT4SD0AN3S,2,1
38,4,object_05,object_02,702.69999992847,7,1,224.39999997616,0.5555555555555556,1,object_08,1,584,0,5,3,restaurant_7,2,memory-2step-stake-s,528,1741978,0.0-19.0-0.0-0.38,AERUGBNS48Z4N,3HRWUH63RXIZS6U0Z3EY966PXK25N4,3WRFBPLXRE4Z0A5QBMV7JT4SD0AN3S,7,8
39,3,object_10,object_07,1212.1000000238,5,2,254.10000002384,0.6666666666666666,1,object_08,1,590,0,6,1,library_7,2,memory-2step-stake-s,529,1750052,0.0-19.0-0.0-0.39,AERUGBNS48Z4N,3HRWUH63RXIZS6U0Z3EY966PXK25N4,3WRFBPLXRE4Z0A5QBMV7JT4SD0AN3S,6,5
40,1,object_09,object_03,856.89999997616,2,2,228.60000002384,0.2222222222222222,2,object_06,5,600,0,6,2,desert_3,2,memory-2step-stake-s,530,1757707,0.0-19.0-0.0-0.40,AERUGBNS48Z4N,3HRWUH63RXIZS6U0Z3EY966PXK25N4,3WRFBPLXRE4Z0A5QBMV7JT4SD0AN3S,1,2
41,3,object_07,object_10,863.29999995232,5,1,231.89999997616,0.6666666666666666,1,object_08,1,606,0,6,3,library_8,2,memory-2step-stake-s,531,1765770,0.0-19.0-0.0-0.41,AERUGBNS48Z4N,3HRWUH63RXIZS6U0Z3EY966PXK25N4,3WRFBPLXRE4Z0A5QBMV7JT4SD0AN3S,5,6
42,2,object_04,object_01,1011.3000000715,3,1,367.09999990463,0.6666666666666666,1,object_08,1,612,0,6,4,forest_3,2,memory-2step-stake-s,532,1773966,0.0-19.0-0.0-0.42,AERUGBNS48Z4N,3HRWUH63RXIZS6U0Z3EY966PXK25N4,3WRFBPLXRE4Z0A5QBMV7JT4SD0AN3S,3,4
43,1,object_03,object_09,1072.8000000715,2,1,226.5,0.5555555555555556,2,object_06,1,617,0,7,5,desert_2,2,memory-2step-stake-s,533,1781918,0.0-19.0-0.0-0.43,AERUGBNS48Z4N,3HRWUH63RXIZS6U0Z3EY966PXK25N4,3WRFBPLXRE4Z0A5QBMV7JT4SD0AN3S,2,1
44,1,object_09,object_03,735.79999995232,2,2,273.19999992847,0.8888888888888888,2,object_06,5,657,0,6,8,desert_6,2,memory-2step-stake-s,534,1790228,0.0-19.0-0.0-0.44,AERUGBNS48Z4N,3HRWUH63RXIZS6U0Z3EY966PXK25N4,3WRFBPLXRE4Z0A5QBMV7JT4SD0AN3S,1,2
45,1,object_03,object_09,666.0,2,1,268.09999990463,0.8888888888888888,2,object_06,5,697,0,7,8,desert_6,2,memory-2step-stake-s,535,1798519,0.0-19.0-0.0-0.45,AERUGBNS48Z4N,3HRWUH63RXIZS6U0Z3EY966PXK25N4,3WRFBPLXRE4Z0A5QBMV7JT4SD0AN3S,2,1
46,1,object_03,object_09,437.89999997616,2,1,233.09999990463,0.7777777777777778,2,object_06,5,732,0,8,7,desert_3,2,memory-2step-stake-s,536,1806677,0.0-19.0-0.0-0.46,AERUGBNS48Z4N,3HRWUH63RXIZS6U0Z3EY966PXK25N4,3WRFBPLXRE4Z0A5QBMV7JT4SD0AN3S,2,1
47,2,object_04,object_01,872.39999997616,4,2,235.29999995232,0.7777777777777778,2,object_06,5,767,0,7,7,forest_4,2,memory-2step-stake-s,537,1814861,0.0-19.0-0.0-0.47,AERUGBNS48Z4N,3HRWUH63RXIZS6U0Z3EY966PXK25N4,3WRFBPLXRE4Z0A5QBMV7JT4SD0AN3S,3,4
48,2,object_01,object_04,818.79999995232,4,1,265.39999997616,0.4444444444444444,2,object_06,5,787,0,7,4,forest_7,2,memory-2step-stake-s,538,1822745,0.0-19.0-0.0-0.48,AERUGBNS48Z4N,3HRWUH63RXIZS6U0Z3EY966PXK25N4,3WRFBPLXRE4Z0A5QBMV7JT4SD0AN3S,4,3
49,4,object_02,object_05,836.60000002384,8,1,265.10000002384,0.5555555555555556,2,object_06,1,792,0,7,5,restaurant_5,2,memory-2step-stake-s,539,1830725,0.0-19.0-0.0-0.49,AERUGBNS48Z4N,3HRWUH63RXIZS6U0Z3EY966PXK25N4,3WRFBPLXRE4Z0A5QBMV7JT4SD0AN3S,8,7
50,4,object_02,object_05,744.89999997616,7,2,225.10000002384,0.4444444444444444,1,object_08,5,812,0,4,3,restaurant_6,2,memory-2step-stake-s,540,1838570,0.0-19.0-0.0-0.50,AERUGBNS48Z4N,3HRWUH63RXIZS6U0Z3EY966PXK25N4,3WRFBPLXRE4Z0A5QBMV7JT4SD0AN3S,8,7
51,3,object_10,object_07,842.69999992847,5,2,292.70000004768,0.3333333333333333,1,object_08,1,815,0,3,0,library_3,2,memory-2step-stake-s,541,1846391,0.0-19.0-0.0-0.51,AERUGBNS48Z4N,3HRWUH63RXIZS6U0Z3EY966PXK25N4,3WRFBPLXRE4Z0A5QBMV7JT4SD0AN3S,6,5
52,4,object_05,object_02,1013.3999999762,8,2,470.5,0.2222222222222222,2,object_06,1,817,0,7,2,restaurant_7,2,memory-2step-stake-s,542,1854275,0.0-19.0-0.0-0.52,AERUGBNS48Z4N,3HRWUH63RXIZS6U0Z3EY966PXK25N4,3WRFBPLXRE4Z0A5QBMV7JT4SD0AN3S,7,8
53,3,object_07,object_10,993.29999995232,5,1,469.39999997616,0.7777777777777778,1,object_08,1,824,0,7,1,library_1,2,memory-2step-stake-s,543,1862665,0.0-19.0-0.0-0.53,AERUGBNS48Z4N,3HRWUH63RXIZS6U0Z3EY966PXK25N4,3WRFBPLXRE4Z0A5QBMV7JT4SD0AN3S,5,6
54,2,object_01,object_04,1039.5,4,1,248.80000007153,0.4444444444444444,2,object_06,5,844,0,6,4,forest_2,2,memory-2step-stake-s,544,1870532,0.0-19.0-0.0-0.54,AERUGBNS48Z4N,3HRWUH63RXIZS6U0Z3EY966PXK25N4,3WRFBPLXRE4Z0A5QBMV7JT4SD0AN3S,4,3
55,1,object_03,object_09,1111.1000000238,1,2,275.09999990463,0.2222222222222222,1,object_08,5,854,0,2,7,desert_8,2,memory-2step-stake-s,545,1878228,0.0-19.0-0.0-0.55,AERUGBNS48Z4N,3HRWUH63RXIZS6U0Z3EY966PXK25N4,3WRFBPLXRE4Z0A5QBMV7JT4SD0AN3S,2,1
56,3,object_07,object_10,1073.5,6,2,276.20000004768,0.5555555555555556,2,object_06,5,879,0,2,5,library_7,2,memory-2step-stake-s,546,1886243,0.0-19.0-0.0-0.56,AERUGBNS48Z4N,3HRWUH63RXIZS6U0Z3EY966PXK25N4,3WRFBPLXRE4Z0A5QBMV7JT4SD0AN3S,5,6
57,3,object_10,object_07,896.69999992847,6,1,238.5,0.3333333333333333,2,object_06,1,882,0,2,3,library_8,2,memory-2step-stake-s,547,1893998,0.0-19.0-0.0-0.57,AERUGBNS48Z4N,3HRWUH63RXIZS6U0Z3EY966PXK25N4,3WRFBPLXRE4Z0A5QBMV7JT4SD0AN3S,6,5
58,4,object_02,object_05,855.5,7,2,242.29999995232,0.1111111111111111,1,object_08,1,883,0,1,6,restaurant_6,2,memory-2step-stake-s,548,1901560,0.0-19.0-0.0-0.58,AERUGBNS48Z4N,3HRWUH63RXIZS6U0Z3EY966PXK25N4,3WRFBPLXRE4Z0A5QBMV7JT4SD0AN3S,8,7
59,2,object_01,object_04,880.29999995232,3,2,278.20000004768,0.2222222222222222,1,object_08,1,885,0,2,6,forest_2,2,memory-2step-stake-s,549,1909261,0.0-19.0-0.0-0.59,AERUGBNS48Z4N,3HRWUH63RXIZS6U0Z3EY966PXK25N4,3WRFBPLXRE4Z0A5QBMV7JT4SD0AN3S,4,3
60,1,object_03,object_09,848.09999990463,2,1,275.0,0.7777777777777778,2,object_06,5,920,0,3,7,desert_6,2,memory-2step-stake-s,550,1917456,0.0-19.0-0.0-0.60,AERUGBNS48Z4N,3HRWUH63RXIZS6U0Z3EY966PXK25N4,3WRFBPLXRE4Z0A5QBMV7JT4SD0AN3S,2,1
61,1,object_03,object_09,654.19999992847,2,1,232.89999997616,0.7777777777777778,2,object_06,5,955,0,1,7,desert_6,2,memory-2step-stake-s,551,1925609,0.0-19.0-0.0-0.61,AERUGBNS48Z4N,3HRWUH63RXIZS6U0Z3EY966PXK25N4,3WRFBPLXRE4Z0A5QBMV7JT4SD0AN3S,2,1
62,1,object_09,object_03,433.20000004768,2,2,260.89999997616,0.4444444444444444,2,object_06,5,975,0,3,4,desert_6,2,memory-2step-stake-s,552,1933500,0.0-19.0-0.0-0.62,AERUGBNS48Z4N,3HRWUH63RXIZS6U0Z3EY966PXK25N4,3WRFBPLXRE4Z0A5QBMV7JT4SD0AN3S,1,2
63,3,object_07,object_10,866.10000002384,6,2,261.5,0.4444444444444444,2,object_06,1,979,0,4,4,library_8,2,memory-2step-stake-s,553,1941393,0.0-19.0-0.0-0.63,AERUGBNS48Z4N,3HRWUH63RXIZS6U0Z3EY966PXK25N4,3WRFBPLXRE4Z0A5QBMV7JT4SD0AN3S,5,6
64,1,object_09,object_03,835.60000002384,1,1,350.0,0.5555555555555556,1,object_08,5,1004,0,5,4,desert_3,2,memory-2step-stake-s,554,1949478,0.0-19.0-0.0-0.64,AERUGBNS48Z4N,3HRWUH63RXIZS6U0Z3EY966PXK25N4,3WRFBPLXRE4Z0A5QBMV7JT4SD0AN3S,1,2
65,2,object_04,object_01,583.0,3,1,280.39999997616,0.6666666666666666,1,object_08,1,1010,0,6,6,forest_4,2,memory-2step-stake-s,555,1957578,0.0-19.0-0.0-0.65,AERUGBNS48Z4N,3HRWUH63RXIZS6U0Z3EY966PXK25N4,3WRFBPLXRE4Z0A5QBMV7JT4SD0AN3S,3,4
66,4,object_05,object_02,851.60000002384,8,2,286.5,0.7777777777777778,2,object_06,1,1017,0,6,7,restaurant_5,2,memory-2step-stake-s,556,1965793,0.0-19.0-0.0-0.66,AERUGBNS48Z4N,3HRWUH63RXIZS6U0Z3EY966PXK25N4,3WRFBPLXRE4Z0A5QBMV7JT4SD0AN3S,7,8
67,3,object_10,object_07,788.0,6,1,295.39999997616,1.0,2,object_06,1,1026,0,4,9,library_1,2,memory-2step-stake-s,557,1974216,0.0-19.0-0.0-0.67,AERUGBNS48Z4N,3HRWUH63RXIZS6U0Z3EY966PXK25N4,3WRFBPLXRE4Z0A5QBMV7JT4SD0AN3S,6,5
68,2,object_01,object_04,669.29999995232,3,2,346.29999995232,0.3333333333333333,1,object_08,1,1029,0,3,6,forest_4,2,memory-2step-stake-s,558,1982076,0.0-19.0-0.0-0.68,AERUGBNS48Z4N,3HRWUH63RXIZS6U0Z3EY966PXK25N4,3WRFBPLXRE4Z0A5QBMV7JT4SD0AN3S,4,3
69,3,object_07,object_10,1161.5999999046,6,2,316.69999992847,0.4444444444444444,2,object_06,5,1049,0,3,4,library_7,2,memory-2step-stake-s,559,1990010,0.0-19.0-0.0-0.69,AERUGBNS48Z4N,3HRWUH63RXIZS6U0Z3EY966PXK25N4,3WRFBPLXRE4Z0A5QBMV7JT4SD0AN3S,5,6
70,2,object_04,object_01,1075.7000000477,3,1,296.20000004768,0.1111111111111111,1,object_08,5,1054,0,1,4,forest_3,2,memory-2step-stake-s,560,1997617,0.0-19.0-0.0-0.70,AERUGBNS48Z4N,3HRWUH63RXIZS6U0Z3EY966PXK25N4,3WRFBPLXRE4Z0A5QBMV7JT4SD0AN3S,3,4
71,4,object_02,object_05,1043.5,8,1,347.70000004768,0.6666666666666666,2,object_06,1,1060,0,2,6,restaurant_6,2,memory-2step-stake-s,561,2005788,0.0-19.0-0.0-0.71,AERUGBNS48Z4N,3HRWUH63RXIZS6U0Z3EY966PXK25N4,3WRFBPLXRE4Z0A5QBMV7JT4SD0AN3S,8,7
72,2,object_04,object_01,745.5,4,2,222.5,0.6666666666666666,2,object_06,5,1090,0,3,6,forest_3,2,memory-2step-stake-s,562,2013830,0.0-19.0-0.0-0.72,AERUGBNS48Z4N,3HRWUH63RXIZS6U0Z3EY966PXK25N4,3WRFBPLXRE4Z0A5QBMV7JT4SD0AN3S,3,4
73,1,object_03,object_09,863.79999995232,1,2,216.5,0.3333333333333333,1,object_08,5,1105,0,3,3,desert_2,2,memory-2step-stake-s,563,2021568,0.0-19.0-0.0-0.73,AERUGBNS48Z4N,3HRWUH63RXIZS6U0Z3EY966PXK25N4,3WRFBPLXRE4Z0A5QBMV7JT4SD0AN3S,2,1
74,2,object_04,object_01,862.69999992847,4,2,273.10000002384,0.2222222222222222,2,object_06,5,1115,0,4,2,forest_4,2,memory-2step-stake-s,564,2029264,0.0-19.0-0.0-0.74,AERUGBNS48Z4N,3HRWUH63RXIZS6U0Z3EY966PXK25N4,3WRFBPLXRE4Z0A5QBMV7JT4SD0AN3S,3,4
75,1,object_09,object_03,1075.1999999285,2,2,269.0,0.4444444444444444,2,object_06,5,1135,0,7,4,desert_8,2,memory-2step-stake-s,565,2037154,0.0-19.0-0.0-0.75,AERUGBNS48Z4N,3HRWUH63RXIZS6U0Z3EY966PXK25N4,3WRFBPLXRE4Z0A5QBMV7JT4SD0AN3S,1,2
76,4,object_02,object_05,1092.3000000715,7,2,294.89999997616,1.0,1,object_08,5,1180,0,9,5,restaurant_6,2,memory-2step-stake-s,566,2045572,0.0-19.0-0.0-0.76,AERUGBNS48Z4N,3HRWUH63RXIZS6U0Z3EY966PXK25N4,3WRFBPLXRE4Z0A5QBMV7JT4SD0AN3S,8,7
77,3,object_10,object_07,809.20000004768,5,2,260.20000004768,0.8888888888888888,1,object_08,1,1188,0,8,7,library_1,2,memory-2step-stake-s,567,2053865,0.0-19.0-0.0-0.77,AERUGBNS48Z4N,3HRWUH63RXIZS6U0Z3EY966PXK25N4,3WRFBPLXRE4Z0A5QBMV7JT4SD0AN3S,6,5
78,3,object_07,object_10,517.10000002384,5,1,32.399999976158,0.8888888888888888,1,object_08,1,1196,0,8,4,library_1,2,memory-2step-stake-s,568,2061919,0.0-19.0-0.0-0.78,AERUGBNS48Z4N,3HRWUH63RXIZS6U0Z3EY966PXK25N4,3WRFBPLXRE4Z0A5QBMV7JT4SD0AN3S,5,6
79,4,object_05,object_02,1086.8999999762,8,2,409.69999992847,0.5555555555555556,2,object_06,1,1201,0,6,5,restaurant_2,2,memory-2step-stake-s,569,2070058,0.0-19.0-0.0-0.79,AERUGBNS48Z4N,3HRWUH63RXIZS6U0Z3EY966PXK25N4,3WRFBPLXRE4Z0A5QBMV7JT4SD0AN3S,7,8
80,3,object_10,object_07,666.60000002384,5,2,253.79999995232,0.7777777777777778,1,object_08,1,1208,0,7,4,library_7,2,memory-2step-stake-s,570,2078233,0.0-19.0-0.0-0.80,AERUGBNS48Z4N,3HRWUH63RXIZS6U0Z3EY966PXK25N4,3WRFBPLXRE4Z0A5QBMV7JT4SD0AN3S,6,5
81,3,object_10,object_07,716.5,5,2,224.39999997616,0.6666666666666666,1,object_08,1,1214,0,6,2,library_3,2,memory-2step-stake-s,571,2086278,0.0-19.0-0.0-0.81,AERUGBNS48Z4N,3HRWUH63RXIZS6U0Z3EY966PXK25N4,3WRFBPLXRE4Z0A5QBMV7JT4SD0AN3S,6,5
82,1,object_03,object_09,819.60000002384,1,2,241.69999992847,0.5555555555555556,1,object_08,5,1239,0,5,2,desert_6,2,memory-2step-stake-s,572,2094238,0.0-19.0-0.0-0.82,AERUGBNS48Z4N,3HRWUH63RXIZS6U0Z3EY966PXK25N4,3WRFBPLXRE4Z0A5QBMV7JT4SD0AN3S,2,1
83,2,object_04,object_01,896.59999990463,4,2,338.29999995232,0.2222222222222222,2,object_06,5,1249,0,6,2,forest_2,2,memory-2step-stake-s,573,2101992,0.0-19.0-0.0-0.83,AERUGBNS48Z4N,3HRWUH63RXIZS6U0Z3EY966PXK25N4,3WRFBPLXRE4Z0A5QBMV7JT4SD0AN3S,3,4
84,1,object_03,object_09,821.10000002384,2,1,264.79999995232,0.1111111111111111,2,object_06,5,1254,0,6,1,desert_3,2,memory-2step-stake-s,574,2109571,0.0-19.0-0.0-0.84,AERUGBNS48Z4N,3HRWUH63RXIZS6U0Z3EY966PXK25N4,3WRFBPLXRE4Z0A5QBMV7JT4SD0AN3S,2,1
85,1,object_09,object_03,739.09999990463,2,2,198.59999990463,0.1111111111111111,2,object_06,1,1255,0,8,1,desert_2,2,memory-2step-stake-s,575,2117081,0.0-19.0-0.0-0.85,AERUGBNS48Z4N,3HRWUH63RXIZS6U0Z3EY966PXK25N4,3WRFBPLXRE4Z0A5QBMV7JT4SD0AN3S,1,2
86,1,object_03,object_09,547.79999995232,2,1,292.39999997616,0.0,2,object_06,5,1255,0,6,0,desert_6,2,memory-2step-stake-s,576,2124588,0.0-19.0-0.0-0.86,AERUGBNS48Z4N,3HRWUH63RXIZS6U0Z3EY966PXK25N4,3WRFBPLXRE4Z0A5QBMV7JT4SD0AN3S,2,1
87,2,object_01,object_04,1048.6999999285,4,1,357.0,0.1111111111111111,2,object_06,1,1256,0,6,1,forest_4,2,memory-2step-stake-s,577,2132259,0.0-19.0-0.0-0.87,AERUGBNS48Z4N,3HRWUH63RXIZS6U0Z3EY966PXK25N4,3WRFBPLXRE4Z0A5QBMV7JT4SD0AN3S,4,3
88,2,object_04,object_01,810.5,3,1,278.60000002384,0.3333333333333333,1,object_08,1,1259,0,3,2,forest_4,2,memory-2step-stake-s,578,2140050,0.0-19.0-0.0-0.88,AERUGBNS48Z4N,3HRWUH63RXIZS6U0Z3EY966PXK25N4,3WRFBPLXRE4Z0A5QBMV7JT4SD0AN3S,3,4
89,4,object_02,object_05,811.19999992847,8,1,287.0,0.0,2,object_06,1,1259,0,4,0,restaurant_2,2,memory-2step-stake-s,579,2147550,0.0-19.0-0.0-0.89,AERUGBNS48Z4N,3HRWUH63RXIZS6U0Z3EY966PXK25N4,3WRFBPLXRE4Z0A5QBMV7JT4SD0AN3S,8,7
90,1,object_09,object_03,1062.8999999762,1,1,377.20000004768,0.3333333333333333,1,object_08,5,1274,0,3,2,desert_6,2,memory-2step-stake-s,580,2155452,0.0-19.0-0.0-0.90,AERUGBNS48Z4N,3HRWUH63RXIZS6U0Z3EY966PXK25N4,3WRFBPLXRE4Z0A5QBMV7JT4SD0AN3S,1,2
91,2,object_01,object_04,939.29999995232,3,2,304.10000002384,0.3333333333333333,1,object_08,5,1289,0,3,1,forest_7,2,memory-2step-stake-s,581,2163271,0.0-19.0-0.0-0.91,AERUGBNS48Z4N,3HRWUH63RXIZS6U0Z3EY966PXK25N4,3WRFBPLXRE4Z0A5QBMV7JT4SD0AN3S,4,3
92,4,object_05,object_02,741.70000004768,7,1,255.5,0.1111111111111111,1,object_08,1,1290,0,1,1,restaurant_5,2,memory-2step-stake-s,582,2170844,0.0-19.0-0.0-0.92,AERUGBNS48Z4N,3HRWUH63RXIZS6U0Z3EY966PXK25N4,3WRFBPLXRE4Z0A5QBMV7JT4SD0AN3S,7,8
93,2,object_01,object_04,859.30000007153,3,2,232.0,0.1111111111111111,1,object_08,5,1295,0,1,2,forest_3,2,memory-2step-stake-s,583,2178385,0.0-19.0-0.0-0.93,AERUGBNS48Z4N,3HRWUH63RXIZS6U0Z3EY966PXK25N4,3WRFBPLXRE4Z0A5QBMV7JT4SD0AN3S,4,3
94,1,object_09,object_03,661.0,1,1,241.29999995232,0.6666666666666666,1,object_08,5,1325,0,6,2,desert_3,2,memory-2step-stake-s,584,2186446,0.0-19.0-0.0-0.94,AERUGBNS48Z4N,3HRWUH63RXIZS6U0Z3EY966PXK25N4,3WRFBPLXRE4Z0A5QBMV7JT4SD0AN3S,1,2
95,2,object_01,object_04,767.0,3,2,281.70000004768,0.6666666666666666,1,object_08,5,1355,0,6,3,forest_7,2,memory-2step-stake-s,585,2194552,0.0-19.0-0.0-0.95,AERUGBNS48Z4N,3HRWUH63RXIZS6U0Z3EY966PXK25N4,3WRFBPLXRE4Z0A5QBMV7JT4SD0AN3S,4,3
96,2,object_04,object_01,581.79999995232,3,1,270.20000004768,0.7777777777777778,1,object_08,5,1390,0,7,4,forest_2,2,memory-2step-stake-s,586,2202762,0.0-19.0-0.0-0.96,AERUGBNS48Z4N,3HRWUH63RXIZS6U0Z3EY966PXK25N4,3WRFBPLXRE4Z0A5QBMV7JT4SD0AN3S,3,4
97,2,object_04,object_01,532.19999992847,3,1,296.59999990463,0.5555555555555556,1,object_08,1,1395,0,5,2,forest_2,2,memory-2step-stake-s,587,2210777,0.0-19.0-0.0-0.97,AERUGBNS48Z4N,3HRWUH63RXIZS6U0Z3EY966PXK25N4,3WRFBPLXRE4Z0A5QBMV7JT4SD0AN3S,3,4
98,4,object_02,object_05,909.69999992847,8,1,358.0,0.4444444444444444,2,object_06,1,1399,0,7,4,restaurant_7,2,memory-2step-stake-s,588,2218751,0.0-19.0-0.0-0.98,AERUGBNS48Z4N,3HRWUH63RXIZS6U0Z3EY966PXK25N4,3WRFBPLXRE4Z0A5QBMV7JT4SD0AN3S,8,7
99,4,object_02,object_05,471.5,8,1,258.79999995232,0.5555555555555556,2,object_06,1,1404,0,4,5,restaurant_5,2,memory-2step-stake-s,589,2226730,0.0-19.0-0.0-0.99,AERUGBNS48Z4N,3HRWUH63RXIZS6U0Z3EY966PXK25N4,3WRFBPLXRE4Z0A5QBMV7JT4SD0AN3S,8,7
100,4,object_02,object_05,572.19999992847,8,1,167.69999992847,0.6666666666666666,2,object_06,1,1410,0,5,6,restaurant_7,2,memory-2step-stake-s,590,2234719,0.0-19.0-0.0-0.100,AERUGBNS48Z4N,3HRWUH63RXIZS6U0Z3EY966PXK25N4,3WRFBPLXRE4Z0A5QBMV7JT4SD0AN3S,8,7
101,4,object_02,object_05,461.70000004768,8,1,200.30000007153,0.2222222222222222,2,object_06,1,1412,0,5,2,restaurant_5,2,memory-2step-stake-s,591,2242335,0.0-19.0-0.0-0.101,AERUGBNS48Z4N,3HRWUH63RXIZS6U0Z3EY966PXK25N4,3WRFBPLXRE4Z0A5QBMV7JT4SD0AN3S,8,7
102,1,object_03,object_09,816.29999995232,1,2,273.89999997616,0.8888888888888888,1,object_08,5,1452,0,8,2,desert_6,2,memory-2step-stake-s,592,2250646,0.0-19.0-0.0-0.102,AERUGBNS48Z4N,3HRWUH63RXIZS6U0Z3EY966PXK25N4,3WRFBPLXRE4Z0A5QBMV7JT4SD0AN3S,2,1
103,1,object_03,object_09,464.29999995232,1,2,213.39999997616,0.8888888888888888,1,object_08,5,1492,0,8,3,desert_6,2,memory-2step-stake-s,593,2258880,0.0-19.0-0.0-0.103,AERUGBNS48Z4N,3HRWUH63RXIZS6U0Z3EY966PXK25N4,3WRFBPLXRE4Z0A5QBMV7JT4SD0AN3S,2,1
104,3,object_07,object_10,940.39999997616,5,1,295.39999997616,1.0,1,object_08,1,1501,0,9,2,library_1,2,memory-2step-stake-s,594,2267300,0.0-19.0-0.0-0.104,AERUGBNS48Z4N,3HRWUH63RXIZS6U0Z3EY966PXK25N4,3WRFBPLXRE4Z0A5QBMV7JT4SD0AN3S,5,6
105,2,object_01,object_04,1080.8999999762,4,1,274.89999997616,0.1111111111111111,2,object_06,5,1506,0,7,1,forest_7,2,memory-2step-stake-s,595,2274892,0.0-19.0-0.0-0.105,AERUGBNS48Z4N,3HRWUH63RXIZS6U0Z3EY966PXK25N4,3WRFBPLXRE4Z0A5QBMV7JT4SD0AN3S,4,3
106,2,object_04,object_01,1250.1999999285,3,1,283.39999997616,0.5555555555555556,1,object_08,5,1531,0,5,3,forest_3,2,memory-2step-stake-s,596,2282896,0.0-19.0-0.0-0.106,AERUGBNS48Z4N,3HRWUH63RXIZS6U0Z3EY966PXK25N4,3WRFBPLXRE4Z0A5QBMV7JT4SD0AN3S,3,4
107,4,object_02,object_05,971.30000007153,8,1,256.0,0.3333333333333333,2,object_06,1,1534,0,4,3,restaurant_2,2,memory-2step-stake-s,597,2290670,0.0-19.0-0.0-0.107,AERUGBNS48Z4N,3HRWUH63RXIZS6U0Z3EY966PXK25N4,3WRFBPLXRE4Z0A5QBMV7JT4SD0AN3S,8,7
108,1,object_09,object_03,1097.8999999762,1,1,300.90000009537,0.7777777777777778,1,object_08,5,1569,0,7,4,desert_2,2,memory-2step-stake-s,598,2298905,0.0-19.0-0.0-0.108,AERUGBNS48Z4N,3HRWUH63RXIZS6U0Z3EY966PXK25N4,3WRFBPLXRE4Z0A5QBMV7JT4SD0AN3S,1,2
109,3,object_10,object_07,857.40000009537,5,2,291.39999997616,0.4444444444444444,1,object_08,1,1573,0,4,4,library_7,2,memory-2step-stake-s,599,2306828,0.0-19.0-0.0-0.109,AERUGBNS48Z4N,3HRWUH63RXIZS6U0Z3EY966PXK25N4,3WRFBPLXRE4Z0A5QBMV7JT4SD0AN3S,6,5
110,3,object_10,object_07,761.10000002384,6,1,253.0,0.7777777777777778,2,object_06,1,1580,0,6,7,library_3,2,memory-2step-stake-s,600,2314999,0.0-19.0-0.0-0.110,AERUGBNS48Z4N,3HRWUH63RXIZS6U0Z3EY966PXK25N4,3WRFBPLXRE4Z0A5QBMV7JT4SD0AN3S,6,5
111,3,object_10,object_07,749.09999990463,6,1,248.39999997616,0.5555555555555556,2,object_06,5,1605,0,6,5,library_7,2,memory-2step-stake-s,601,2322965,0.0-19.0-0.0-0.111,AERUGBNS48Z4N,3HRWUH63RXIZS6U0Z3EY966PXK25N4,3WRFBPLXRE4Z0A5QBMV7JT4SD0AN3S,6,5
112,2,object_04,object_01,1145.3999999762,4,2,267.5,0.8888888888888888,2,object_06,5,1645,0,6,8,forest_7,2,memory-2step-stake-s,602,2331269,0.0-19.0-0.0-0.112,AERUGBNS48Z4N,3HRWUH63RXIZS6U0Z3EY966PXK25N4,3WRFBPLXRE4Z0A5QBMV7JT4SD0AN3S,3,4
113,4,object_02,object_05,954.79999995232,7,2,256.29999995232,0.6666666666666666,1,object_08,5,1675,0,6,8,restaurant_2,2,memory-2step-stake-s,603,2339348,0.0-19.0-0.0-0.113,AERUGBNS48Z4N,3HRWUH63RXIZS6U0Z3EY966PXK25N4,3WRFBPLXRE4Z0A5QBMV7JT4SD0AN3S,8,7
114,3,object_10,object_07,898.89999997616,6,1,229.10000002384,0.8888888888888888,2,object_06,1,1683,0,3,8,library_3,2,memory-2step-stake-s,604,2347598,0.0-19.0-0.0-0.114,AERUGBNS48Z4N,3HRWUH63RXIZS6U0Z3EY966PXK25N4,3WRFBPLXRE4Z0A5QBMV7JT4SD0AN3S,6,5
115,1,object_03,object_09,1143.7999999523,2,1,299.5,0.6666666666666666,2,object_06,1,1689,0,6,6,desert_3,2,memory-2step-stake-s,605,2355715,0.0-19.0-0.0-0.115,AERUGBNS48Z4N,3HRWUH63RXIZS6U0Z3EY966PXK25N4,3WRFBPLXRE4Z0A5QBMV7JT4SD0AN3S,2,1
116,3,object_07,object_10,874.60000002384,5,1,246.60000002384,0.7777777777777778,1,object_08,1,1696,0,7,5,library_7,2,memory-2step-stake-s,606,2363894,0.0-19.0-0.0-0.116,AERUGBNS48Z4N,3HRWUH63RXIZS6U0Z3EY966PXK25N4,3WRFBPLXRE4Z0A5QBMV7JT4SD0AN3S,5,6
117,4,object_05,object_02,751.80000007153,7,1,330.59999990463,0.8888888888888888,1,object_08,5,1736,0,8,4,restaurant_5,2,memory-2step-stake-s,607,2372264,0.0-19.0-0.0-0.117,AERUGBNS48Z4N,3HRWUH63RXIZS6U0Z3EY966PXK25N4,3WRFBPLXRE4Z0A5QBMV7JT4SD0AN3S,7,8
118,1,object_03,object_09,1478.1000000238,1,2,633.80000007153,0.8888888888888888,1,object_08,5,1776,0,8,2,desert_2,2,memory-2step-stake-s,608,2380919,0.0-19.0-0.0-0.118,AERUGBNS48Z4N,3HRWUH63RXIZS6U0Z3EY966PXK25N4,3WRFBPLXRE4Z0A5QBMV7JT4SD0AN3S,2,1
119,4,object_02,object_05,1133.0999999046,7,2,257.89999997616,0.7777777777777778,1,object_08,5,1811,0,7,2,restaurant_5,2,memory-2step-stake-s,609,2389108,0.0-19.0-0.0-0.119,AERUGBNS48Z4N,3HRWUH63RXIZS6U0Z3EY966PXK25N4,3WRFBPLXRE4Z0A5QBMV7JT4SD0AN3S,8,7
120,3,object_07,object_10,843.19999992847,5,1,240.19999992847,0.6666666666666666,1,object_08,1,1817,0,6,2,library_1,2,memory-2step-stake-s,610,2397179,0.0-19.0-0.0-0.120,AERUGBNS48Z4N,3HRWUH63RXIZS6U0Z3EY966PXK25N4,3WRFBPLXRE4Z0A5QBMV7JT4SD0AN3S,5,6
121,4,object_05,object_02,972.30000007153,8,2,-1.0,0.0,2,object_06,1,1817,0,8,3,restaurant_6,2,memory-2step-stake-s,611,2405690,0.0-19.0-0.0-0.121,AERUGBNS48Z4N,3HRWUH63RXIZS6U0Z3EY966PXK25N4,3WRFBPLXRE4Z0A5QBMV7JT4SD0AN3S,7,8
122,4,object_02,object_05,555.70000004768,8,1,260.29999995232,0.2222222222222222,2,object_06,1,1819,0,9,2,restaurant_5,2,memory-2step-stake-s,612,2413366,0.0-19.0-0.0-0.122,AERUGBNS48Z4N,3HRWUH63RXIZS6U0Z3EY966PXK25N4,3WRFBPLXRE4Z0A5QBMV7JT4SD0AN3S,8,7
123,3,object_07,object_10,943.39999997616,5,1,249.60000002384,1.0,1,object_08,5,1864,0,9,2,library_1,2,memory-2step-stake-s,613,2421737,0.0-19.0-0.0-0.123,AERUGBNS48Z4N,3HRWUH63RXIZS6U0Z3EY966PXK25N4,3WRFBPLXRE4Z0A5QBMV7JT4SD0AN3S,5,6
124,3,object_07,object_10,477.39999997616,5,1,153.5,1.0,1,object_08,1,1873,0,9,2,library_7,2,memory-2step-stake-s,614,2430010,0.0-19.0-0.0-0.124,AERUGBNS48Z4N,3HRWUH63RXIZS6U0Z3EY966PXK25N4,3WRFBPLXRE4Z0A5QBMV7JT4SD0AN3S,5,6
125,3,object_07,object_10,626.0,5,1,205.30000007153,0.6666666666666666,1,object_08,1,1879,0,6,2,library_1,2,memory-2step-stake-s,615,2438041,0.0-19.0-0.0-0.125,AERUGBNS48Z4N,3HRWUH63RXIZS6U0Z3EY966PXK25N4,3WRFBPLXRE4Z0A5QBMV7JT4SD0AN3S,5,6
126,4,object_02,object_05,1396.1999999285,8,1,743.5,0.6666666666666666,2,object_06,1,1885,0,5,6,restaurant_5,2,memory-2step-stake-s,616,2446603,0.0-19.0-0.0-0.126,AERUGBNS48Z4N,3HRWUH63RXIZS6U0Z3EY966PXK25N4,3WRFBPLXRE4Z0A5QBMV7JT4SD0AN3S,8,7
127,2,object_01,object_04,792.40000009537,3,2,253.20000004768,0.2222222222222222,1,object_08,5,1895,0,2,6,forest_3,2,memory-2step-stake-s,617,2454269,0.0-19.0-0.0-0.127,AERUGBNS48Z4N,3HRWUH63RXIZS6U0Z3EY966PXK25N4,3WRFBPLXRE4Z0A5QBMV7JT4SD0AN3S,4,3
128,4,object_05,object_02,819.29999995232,7,1,315.20000004768,0.5555555555555556,1,object_08,1,1900,0,5,9,restaurant_2,2,memory-2step-stake-s,619,2468033,0.0-19.0-0.1-0.128,AERUGBNS48Z4N,3HRWUH63RXIZS6U0Z3EY966PXK25N4,3WRFBPLXRE4Z0A5QBMV7JT4SD0AN3S,7,8
129,2,object_01,object_04,1181.0999999046,4,1,454.90000009537,1.0,2,object_06,5,1945,0,7,9,forest_4,2,memory-2step-stake-s,620,2476611,0.0-19.0-0.1-0.129,AERUGBNS48Z4N,3HRWUH63RXIZS6U0Z3EY966PXK25N4,3WRFBPLXRE4Z0A5QBMV7JT4SD0AN3S,4,3
130,3,object_10,object_07,849.20000004768,6,1,292.09999990463,0.7777777777777778,2,object_06,1,1952,0,1,7,library_7,2,memory-2step-stake-s,621,2484835,0.0-19.0-0.1-0.130,AERUGBNS48Z4N,3HRWUH63RXIZS6U0Z3EY966PXK25N4,3WRFBPLXRE4Z0A5QBMV7JT4SD0AN3S,6,5
131,2,object_01,object_04,1131.0,4,1,301.80000007153,0.7777777777777778,2,object_06,5,1987,0,5,7,forest_2,2,memory-2step-stake-s,622,2493055,0.0-19.0-0.1-0.131,AERUGBNS48Z4N,3HRWUH63RXIZS6U0Z3EY966PXK25N4,3WRFBPLXRE4Z0A5QBMV7JT4SD0AN3S,4,3
132,2,object_01,object_04,1129.6999999285,4,1,361.30000007153,0.5555555555555556,2,object_06,5,2012,0,1,5,forest_2,2,memory-2step-stake-s,623,2501134,0.0-19.0-0.1-0.132,AERUGBNS48Z4N,3HRWUH63RXIZS6U0Z3EY966PXK25N4,3WRFBPLXRE4Z0A5QBMV7JT4SD0AN3S,4,3
133,2,object_04,object_01,910.0,3,1,224.60000002384,0.1111111111111111,1,object_08,5,2017,0,1,0,forest_4,2,memory-2step-stake-s,624,2508673,0.0-19.0-0.1-0.133,AERUGBNS48Z4N,3HRWUH63RXIZS6U0Z3EY966PXK25N4,3WRFBPLXRE4Z0A5QBMV7JT4SD0AN3S,3,4
134,4,object_05,object_02,875.20000004768,7,1,246.10000002384,0.0,1,object_08,1,2017,0,0,0,restaurant_2,2,memory-2step-stake-s,625,2516133,0.0-19.0-0.1-0.134,AERUGBNS48Z4N,3HRWUH63RXIZS6U0Z3EY966PXK25N4,3WRFBPLXRE4Z0A5QBMV7JT4SD0AN3S,7,8
135,3,object_07,object_10,1063.1000000238,6,2,282.29999995232,0.3333333333333333,2,object_06,1,2020,0,1,3,library_7,2,memory-2step-stake-s,626,2523933,0.0-19.0-0.1-0.135,AERUGBNS48Z4N,3HRWUH63RXIZS6U0Z3EY966PXK25N4,3WRFBPLXRE4Z0A5QBMV7JT4SD0AN3S,5,6
136,4,object_02,object_05,983.29999995232,7,2,275.39999997616,0.5555555555555556,1,object_08,5,2045,0,5,1,restaurant_6,2,memory-2step-stake-s,627,2531932,0.0-19.0-0.1-0.136,AERUGBNS48Z4N,3HRWUH63RXIZS6U0Z3EY966PXK25N4,3WRFBPLXRE4Z0A5QBMV7JT4SD0AN3S,8,7
137,4,object_05,object_02,705.10000002384,7,1,155.30000007153,0.7777777777777778,1,object_08,1,2052,0,7,1,restaurant_2,2,memory-2step-stake-s,628,2540009,0.0-19.0-0.1-0.137,AERUGBNS48Z4N,3HRWUH63RXIZS6U0Z3EY966PXK25N4,3WRFBPLXRE4Z0A5QBMV7JT4SD0AN3S,7,8
138,4,object_02,object_05,647.60000002384,7,2,233.60000002384,0.7777777777777778,1,object_08,1,2059,0,7,3,restaurant_7,2,memory-2step-stake-s,629,2548169,0.0-19.0-0.1-0.138,AERUGBNS48Z4N,3HRWUH63RXIZS6U0Z3EY966PXK25N4,3WRFBPLXRE4Z0A5QBMV7JT4SD0AN3S,8,7
139,4,object_02,object_05,496.89999997616,7,2,212.10000002384,0.5555555555555556,1,object_08,5,2084,0,5,5,restaurant_6,2,memory-2step-stake-s,630,2556105,0.0-19.0-0.1-0.139,AERUGBNS48Z4N,3HRWUH63RXIZS6U0Z3EY966PXK25N4,3WRFBPLXRE4Z0A5QBMV7JT4SD0AN3S,8,7
140,3,object_07,object_10,716.80000007153,5,1,207.0,0.4444444444444444,1,object_08,1,2088,0,4,6,library_3,2,memory-2step-stake-s,631,2563931,0.0-19.0-0.1-0.140,AERUGBNS48Z4N,3HRWUH63RXIZS6U0Z3EY966PXK25N4,3WRFBPLXRE4Z0A5QBMV7JT4SD0AN3S,5,6
141,4,object_02,object_05,986.69999992847,8,1,257.20000004768,0.8888888888888888,2,object_06,1,2096,0,7,8,restaurant_7,2,memory-2step-stake-s,632,2572214,0.0-19.0-0.1-0.141,AERUGBNS48Z4N,3HRWUH63RXIZS6U0Z3EY966PXK25N4,3WRFBPLXRE4Z0A5QBMV7JT4SD0AN3S,8,7
142,2,object_04,object_01,793.10000002384,3,1,212.90000009537,0.7777777777777778,1,object_08,1,2103,0,7,9,forest_7,2,memory-2step-stake-s,633,2580346,0.0-19.0-0.1-0.142,AERUGBNS48Z4N,3HRWUH63RXIZS6U0Z3EY966PXK25N4,3WRFBPLXRE4Z0A5QBMV7JT4SD0AN3S,3,4
143,4,object_05,object_02,994.10000002384,8,2,237.70000004768,0.7777777777777778,2,object_06,5,2138,0,7,7,restaurant_6,2,memory-2step-stake-s,634,2588503,0.0-19.0-0.1-0.143,AERUGBNS48Z4N,3HRWUH63RXIZS6U0Z3EY966PXK25N4,3WRFBPLXRE4Z0A5QBMV7JT4SD0AN3S,7,8
144,4,object_02,object_05,838.40000009537,8,1,250.30000007153,0.8888888888888888,2,object_06,1,2146,0,8,8,restaurant_7,2,memory-2step-stake-s,635,2596776,0.0-19.0-0.1-0.144,AERUGBNS48Z4N,3HRWUH63RXIZS6U0Z3EY966PXK25N4,3WRFBPLXRE4Z0A5QBMV7JT4SD0AN3S,8,7
145,2,object_01,object_04,693.69999992847,3,2,7.6000000238419,0.7777777777777778,1,object_08,5,2181,0,7,8,forest_2,2,memory-2step-stake-s,636,2604704,0.0-19.0-0.1-0.145,AERUGBNS48Z4N,3HRWUH63RXIZS6U0Z3EY966PXK25N4,3WRFBPLXRE4Z0A5QBMV7JT4SD0AN3S,4,3
146,2,object_01,object_04,837.59999990463,3,2,167.20000004768,1.0,1,object_08,5,2226,0,9,8,forest_3,2,memory-2step-stake-s,637,2612997,0.0-19.0-0.1-0.146,AERUGBNS48Z4N,3HRWUH63RXIZS6U0Z3EY966PXK25N4,3WRFBPLXRE4Z0A5QBMV7JT4SD0AN3S,4,3
147,2,object_04,object_01,448.29999995232,3,1,171.20000004768,0.7777777777777778,1,object_08,5,2261,0,7,9,forest_4,2,memory-2step-stake-s,638,2621087,0.0-19.0-0.1-0.147,AERUGBNS48Z4N,3HRWUH63RXIZS6U0Z3EY966PXK25N4,3WRFBPLXRE4Z0A5QBMV7JT4SD0AN3S,3,4
148,2,object_01,object_04,461.79999995232,3,2,248.0,0.8888888888888888,1,object_08,5,2301,0,8,9,forest_2,2,memory-2step-stake-s,639,2629358,0.0-19.0-0.1-0.148,AERUGBNS48Z4N,3HRWUH63RXIZS6U0Z3EY966PXK25N4,3WRFBPLXRE4Z0A5QBMV7JT4SD0AN3S,4,3
149,1,object_03,object_09,797.69999992847,1,2,307.0,0.8888888888888888,1,object_08,5,2341,0,8,7,desert_3,2,memory-2step-stake-s,640,2637710,0.0-19.0-0.1-0.149,AERUGBNS48Z4N,3HRWUH63RXIZS6U0Z3EY966PXK25N4,3WRFBPLXRE4Z0A5QBMV7JT4SD0AN3S,2,1
150,2,object_01,object_04,652.20000004768,3,2,95.400000095367,0.7777777777777778,1,object_08,1,2348,0,7,8,forest_4,2,memory-2step-stake-s,641,2645738,0.0-19.0-0.1-0.150,AERUGBNS48Z4N,3HRWUH63RXIZS6U0Z3EY966PXK25N4,3WRFBPLXRE4Z0A5QBMV7JT4SD0AN3S,4,3
151,1,object_03,object_09,682.29999995232,1,2,183.10000002384,0.6666666666666666,1,object_08,5,2378,0,6,5,desert_8,2,memory-2step-stake-s,642,2653741,0.0-19.0-0.1-0.151,AERUGBNS48Z4N,3HRWUH63RXIZS6U0Z3EY966PXK25N4,3WRFBPLXRE4Z0A5QBMV7JT4SD0AN3S,2,1
152,3,object_10,object_07,863.89999997616,6,1,305.60000002384,0.5555555555555556,2,object_06,1,2383,0,9,5,library_1,2,memory-2step-stake-s,643,2661797,0.0-19.0-0.1-0.152,AERUGBNS48Z4N,3HRWUH63RXIZS6U0Z3EY966PXK25N4,3WRFBPLXRE4Z0A5QBMV7JT4SD0AN3S,6,5
153,1,object_09,object_03,1009.3999999762,1,1,268.89999997616,0.8888888888888888,1,object_08,5,2423,0,8,8,desert_8,2,memory-2step-stake-s,644,2670101,0.0-19.0-0.1-0.153,AERUGBNS48Z4N,3HRWUH63RXIZS6U0Z3EY966PXK25N4,3WRFBPLXRE4Z0A5QBMV7JT4SD0AN3S,1,2
154,1,object_03,object_09,640.10000002384,1,2,227.10000002384,1.0,1,object_08,5,2468,0,9,7,desert_8,2,memory-2step-stake-s,645,2678461,0.0-19.0-0.1-0.154,AERUGBNS48Z4N,3HRWUH63RXIZS6U0Z3EY966PXK25N4,3WRFBPLXRE4Z0A5QBMV7JT4SD0AN3S,2,1
155,1,object_03,object_09,543.89999997616,1,2,49.399999976158,1.0,1,object_08,1,2477,0,9,7,desert_8,2,memory-2step-stake-s,646,2686645,0.0-19.0-0.1-0.155,AERUGBNS48Z4N,3HRWUH63RXIZS6U0Z3EY966PXK25N4,3WRFBPLXRE4Z0A5QBMV7JT4SD0AN3S,2,1
156,3,object_07,object_10,1238.1000000238,6,2,370.70000004768,0.8888888888888888,2,object_06,1,2485,0,8,8,library_3,2,memory-2step-stake-s,647,2695041,0.0-19.0-0.1-0.156,AERUGBNS48Z4N,3HRWUH63RXIZS6U0Z3EY966PXK25N4,3WRFBPLXRE4Z0A5QBMV7JT4SD0AN3S,5,6
157,1,object_03,object_09,1043.1000000238,2,1,262.0,0.6666666666666666,2,object_06,5,2515,0,8,6,desert_8,2,memory-2step-stake-s,648,2703132,0.0-19.0-0.1-0.157,AERUGBNS48Z4N,3HRWUH63RXIZS6U0Z3EY966PXK25N4,3WRFBPLXRE4Z0A5QBMV7JT4SD0AN3S,2,1
158,4,object_05,object_02,983.69999992847,7,1,259.60000002384,0.7777777777777778,1,object_08,5,2550,0,7,4,restaurant_5,2,memory-2step-stake-s,649,2711338,0.0-19.0-0.1-0.158,AERUGBNS48Z4N,3HRWUH63RXIZS6U0Z3EY966PXK25N4,3WRFBPLXRE4Z0A5QBMV7JT4SD0AN3S,7,8
159,3,object_10,object_07,881.5,5,2,260.20000004768,0.6666666666666666,1,object_08,1,2556,0,6,5,library_7,2,memory-2step-stake-s,650,2719420,0.0-19.0-0.1-0.159,AERUGBNS48Z4N,3HRWUH63RXIZS6U0Z3EY966PXK25N4,3WRFBPLXRE4Z0A5QBMV7JT4SD0AN3S,6,5
160,2,object_01,object_04,1034.7999999523,4,1,285.39999997616,0.1111111111111111,2,object_06,5,2561,0,6,1,forest_4,2,memory-2step-stake-s,651,2727018,0.0-19.0-0.1-0.160,AERUGBNS48Z4N,3HRWUH63RXIZS6U0Z3EY966PXK25N4,3WRFBPLXRE4Z0A5QBMV7JT4SD0AN3S,4,3
161,1,object_03,object_09,1028.6000000238,1,2,247.10000002384,0.8888888888888888,1,object_08,1,2569,0,8,1,desert_8,2,memory-2step-stake-s,652,2735290,0.0-19.0-0.1-0.161,AERUGBNS48Z4N,3HRWUH63RXIZS6U0Z3EY966PXK25N4,3WRFBPLXRE4Z0A5QBMV7JT4SD0AN3S,2,1
162,4,object_02,object_05,1003.9000000954,8,1,279.70000004768,0.2222222222222222,2,object_06,1,2571,0,7,2,restaurant_5,2,memory-2step-stake-s,653,2742985,0.0-19.0-0.1-0.162,AERUGBNS48Z4N,3HRWUH63RXIZS6U0Z3EY966PXK25N4,3WRFBPLXRE4Z0A5QBMV7JT4SD0AN3S,8,7
163,2,object_01,object_04,995.5,3,2,232.19999992847,0.8888888888888888,1,object_08,5,2611,0,8,3,forest_7,2,memory-2step-stake-s,654,2751249,0.0-19.0-0.1-0.163,AERUGBNS48Z4N,3HRWUH63RXIZS6U0Z3EY966PXK25N4,3WRFBPLXRE4Z0A5QBMV7JT4SD0AN3S,4,3
164,1,object_03,object_09,1028.8999999762,1,2,309.70000004768,0.6666666666666666,1,object_08,5,2641,0,6,4,desert_2,2,memory-2step-stake-s,655,2759401,0.0-19.0-0.1-0.164,AERUGBNS48Z4N,3HRWUH63RXIZS6U0Z3EY966PXK25N4,3WRFBPLXRE4Z0A5QBMV7JT4SD0AN3S,2,1
165,2,object_01,object_04,859.20000004768,3,2,108.59999990463,0.7777777777777778,1,object_08,5,2676,0,7,3,forest_3,2,memory-2step-stake-s,656,2767435,0.0-19.0-0.1-0.165,AERUGBNS48Z4N,3HRWUH63RXIZS6U0Z3EY966PXK25N4,3WRFBPLXRE4Z0A5QBMV7JT4SD0AN3S,4,3
166,4,object_02,object_05,954.60000002384,7,2,982.0,0.7777777777777778,1,object_08,1,2683,0,7,3,restaurant_5,2,memory-2step-stake-s,657,2776336,0.0-19.0-0.1-0.166,AERUGBNS48Z4N,3HRWUH63RXIZS6U0Z3EY966PXK25N4,3WRFBPLXRE4Z0A5QBMV7JT4SD0AN3S,8,7
167,1,object_03,object_09,772.10000002384,1,2,247.89999997616,0.8888888888888888,1,object_08,5,2723,0,8,4,desert_3,2,memory-2step-stake-s,658,2784620,0.0-19.0-0.1-0.167,AERUGBNS48Z4N,3HRWUH63RXIZS6U0Z3EY966PXK25N4,3WRFBPLXRE4Z0A5QBMV7JT4SD0AN3S,2,1
168,2,object_01,object_04,996.89999997616,3,2,684.39999997616,0.8888888888888888,1,object_08,5,2763,0,8,3,forest_2,2,memory-2step-stake-s,659,2793335,0.0-19.0-0.1-0.168,AERUGBNS48Z4N,3HRWUH63RXIZS6U0Z3EY966PXK25N4,3WRFBPLXRE4Z0A5QBMV7JT4SD0AN3S,4,3
169,1,object_09,object_03,630.0,1,1,225.30000007153,0.7777777777777778,1,object_08,5,2798,0,7,2,desert_3,2,memory-2step-stake-s,660,2801490,0.0-19.0-0.1-0.169,AERUGBNS48Z4N,3HRWUH63RXIZS6U0Z3EY966PXK25N4,3WRFBPLXRE4Z0A5QBMV7JT4SD0AN3S,1,2
170,3,object_07,object_10,668.30000007153,6,2,72.0,0.2222222222222222,2,object_06,1,2800,0,7,2,library_1,2,memory-2step-stake-s,661,2808975,0.0-19.0-0.1-0.170,AERUGBNS48Z4N,3HRWUH63RXIZS6U0Z3EY966PXK25N4,3WRFBPLXRE4Z0A5QBMV7JT4SD0AN3S,5,6
171,2,object_04,object_01,741.20000004768,3,1,72.800000071526,0.8888888888888888,1,object_08,5,2840,0,8,2,forest_3,2,memory-2step-stake-s,662,2817072,0.0-19.0-0.1-0.171,AERUGBNS48Z4N,3HRWUH63RXIZS6U0Z3EY966PXK25N4,3WRFBPLXRE4Z0A5QBMV7JT4SD0AN3S,3,4
172,2,object_01,object_04,613.20000004768,3,2,33.5,0.8888888888888888,1,object_08,5,2880,0,8,2,forest_4,2,memory-2step-stake-s,663,2825128,0.0-19.0-0.1-0.172,AERUGBNS48Z4N,3HRWUH63RXIZS6U0Z3EY966PXK25N4,3WRFBPLXRE4Z0A5QBMV7JT4SD0AN3S,4,3
173,2,object_01,object_04,487.20000004768,3,2,178.20000004768,1.0,1,object_08,5,2925,0,9,1,forest_4,2,memory-2step-stake-s,664,2833466,0.0-19.0-0.1-0.173,AERUGBNS48Z4N,3HRWUH63RXIZS6U0Z3EY966PXK25N4,3WRFBPLXRE4Z0A5QBMV7JT4SD0AN3S,4,3
174,4,object_02,object_05,962.5,8,1,222.10000002384,0.0,2,object_06,1,2925,0,5,0,restaurant_6,2,memory-2step-stake-s,665,2840901,0.0-19.0-0.1-0.174,AERUGBNS48Z4N,3HRWUH63RXIZS6U0Z3EY966PXK25N4,3WRFBPLXRE4Z0A5QBMV7JT4SD0AN3S,8,7
175,2,object_04,object_01,981.0,3,1,67.700000047684,0.5555555555555556,1,object_08,1,2930,0,5,2,forest_7,2,memory-2step-stake-s,666,2848687,0.0-19.0-0.1-0.175,AERUGBNS48Z4N,3HRWUH63RXIZS6U0Z3EY966PXK25N4,3WRFBPLXRE4Z0A5QBMV7JT4SD0AN3S,3,4
176,3,object_10,object_07,916.60000002384,5,2,225.0,0.4444444444444444,1,object_08,1,2934,0,4,2,library_7,2,memory-2step-stake-s,667,2856543,0.0-19.0-0.1-0.176,AERUGBNS48Z4N,3HRWUH63RXIZS6U0Z3EY966PXK25N4,3WRFBPLXRE4Z0A5QBMV7JT4SD0AN3S,6,5
177,2,object_04,object_01,1058.7000000477,4,2,270.0,0.1111111111111111,2,object_06,5,2939,0,3,1,forest_3,2,memory-2step-stake-s,668,2864130,0.0-19.0-0.1-0.177,AERUGBNS48Z4N,3HRWUH63RXIZS6U0Z3EY966PXK25N4,3WRFBPLXRE4Z0A5QBMV7JT4SD0AN3S,3,4
178,3,object_07,object_10,891.60000002384,6,2,246.80000007153,0.2222222222222222,2,object_06,1,2941,0,2,2,library_3,2,memory-2step-stake-s,669,2871792,0.0-19.0-0.1-0.178,AERUGBNS48Z4N,3HRWUH63RXIZS6U0Z3EY966PXK25N4,3WRFBPLXRE4Z0A5QBMV7JT4SD0AN3S,5,6
179,4,object_02,object_05,1125.2999999523,7,2,325.5,0.2222222222222222,1,object_08,1,2943,0,2,1,restaurant_5,2,memory-2step-stake-s,670,2879537,0.0-19.0-0.1-0.179,AERUGBNS48Z4N,3HRWUH63RXIZS6U0Z3EY966PXK25N4,3WRFBPLXRE4Z0A5QBMV7JT4SD0AN3S,8,7
180,1,object_09,object_03,835.10000002384,2,2,303.79999995232,0.1111111111111111,2,object_06,5,2948,0,0,1,desert_3,2,memory-2step-stake-s,671,2887169,0.0-19.0-0.1-0.180,AERUGBNS48Z4N,3HRWUH63RXIZS6U0Z3EY966PXK25N4,3WRFBPLXRE4Z0A5QBMV7JT4SD0AN3S,1,2
181,4,object_05,object_02,1052.6999999285,7,1,312.5,0.5555555555555556,1,object_08,1,2953,0,5,4,restaurant_7,2,memory-2step-stake-s,672,2895205,0.0-19.0-0.1-0.181,AERUGBNS48Z4N,3HRWUH63RXIZS6U0Z3EY966PXK25N4,3WRFBPLXRE4Z0A5QBMV7JT4SD0AN3S,7,8
182,3,object_10,object_07,1169.5,6,1,348.20000004768,0.2222222222222222,2,object_06,1,2955,0,4,2,library_8,2,memory-2step-stake-s,673,2902982,0.0-19.0-0.1-0.182,AERUGBNS48Z4N,3HRWUH63RXIZS6U0Z3EY966PXK25N4,3WRFBPLXRE4Z0A5QBMV7JT4SD0AN3S,6,5
183,2,object_01,object_04,928.10000002384,3,2,284.19999992847,0.4444444444444444,1,object_08,5,2975,0,4,5,forest_4,2,memory-2step-stake-s,674,2910891,0.0-19.0-0.1-0.183,AERUGBNS48Z4N,3HRWUH63RXIZS6U0Z3EY966PXK25N4,3WRFBPLXRE4Z0A5QBMV7JT4SD0AN3S,4,3
184,2,object_04,object_01,816.59999990463,3,1,291.40000009537,0.2222222222222222,1,object_08,5,2985,0,2,8,forest_2,2,memory-2step-stake-s,675,2918606,0.0-19.0-0.1-0.184,AERUGBNS48Z4N,3HRWUH63RXIZS6U0Z3EY966PXK25N4,3WRFBPLXRE4Z0A5QBMV7JT4SD0AN3S,3,4
185,3,object_10,object_07,741.59999990463,5,2,208.70000004768,0.1111111111111111,1,object_08,1,2986,0,1,4,library_3,2,memory-2step-stake-s,676,2926140,0.0-19.0-0.1-0.185,AERUGBNS48Z4N,3HRWUH63RXIZS6U0Z3EY966PXK25N4,3WRFBPLXRE4Z0A5QBMV7JT4SD0AN3S,6,5
186,3,object_10,object_07,624.89999997616,6,1,140.10000002384,0.2222222222222222,2,object_06,1,2988,0,1,2,library_8,2,memory-2step-stake-s,677,2933705,0.0-19.0-0.1-0.186,AERUGBNS48Z4N,3HRWUH63RXIZS6U0Z3EY966PXK25N4,3WRFBPLXRE4Z0A5QBMV7JT4SD0AN3S,6,5
187,2,object_04,object_01,795.60000002384,4,2,296.20000004768,0.3333333333333333,2,object_06,5,3003,0,1,3,forest_7,2,memory-2step-stake-s,678,2941519,0.0-19.0-0.1-0.187,AERUGBNS48Z4N,3HRWUH63RXIZS6U0Z3EY966PXK25N4,3WRFBPLXRE4Z0A5QBMV7JT4SD0AN3S,3,4
188,3,object_10,object_07,751.0,6,1,154.10000002384,0.4444444444444444,2,object_06,1,3007,0,1,4,library_3,2,memory-2step-stake-s,679,2949295,0.0-19.0-0.1-0.188,AERUGBNS48Z4N,3HRWUH63RXIZS6U0Z3EY966PXK25N4,3WRFBPLXRE4Z0A5QBMV7JT4SD0AN3S,6,5
189,2,object_04,object_01,935.0,4,2,225.20000004768,0.3333333333333333,2,object_06,5,3022,0,1,3,forest_3,2,memory-2step-stake-s,680,2957036,0.0-19.0-0.1-0.189,AERUGBNS48Z4N,3HRWUH63RXIZS6U0Z3EY966PXK25N4,3WRFBPLXRE4Z0A5QBMV7JT4SD0AN3S,3,4
190,4,object_02,object_05,1221.5,8,1,323.89999997616,0.4444444444444444,2,object_06,1,3026,0,3,4,restaurant_6,2,memory-2step-stake-s,681,2964977,0.0-19.0-0.1-0.190,AERUGBNS48Z4N,3HRWUH63RXIZS6U0Z3EY966PXK25N4,3WRFBPLXRE4Z0A5QBMV7JT4SD0AN3S,8,7
191,2,object_04,object_01,843.20000004768,4,2,69.699999928474,0.1111111111111111,2,object_06,5,3031,0,3,1,forest_2,2,memory-2step-stake-s,682,2972365,0.0-19.0-0.1-0.191,AERUGBNS48Z4N,3HRWUH63RXIZS6U0Z3EY966PXK25N4,3WRFBPLXRE4Z0A5QBMV7JT4SD0AN3S,3,4
192,2,object_04,object_01,673.10000002384,4,2,219.39999997616,0.1111111111111111,2,object_06,1,3032,0,4,1,forest_2,2,memory-2step-stake-s,683,2979914,0.0-19.0-0.1-0.192,AERUGBNS48Z4N,3HRWUH63RXIZS6U0Z3EY966PXK25N4,3WRFBPLXRE4Z0A5QBMV7JT4SD0AN3S,3,4
193,3,object_10,object_07,1307.2999999523,6,1,398.90000009537,0.1111111111111111,2,object_06,1,3033,0,2,1,library_8,2,memory-2step-stake-s,684,2987636,0.0-19.0-0.1-0.193,AERUGBNS48Z4N,3HRWUH63RXIZS6U0Z3EY966PXK25N4,3WRFBPLXRE4Z0A5QBMV7JT4SD0AN3S,6,5
194,1,object_09,object_03,1497.2999999523,2,2,352.89999997616,0.2222222222222222,2,object_06,5,3043,0,2,2,desert_3,2,memory-2step-stake-s,685,2995407,0.0-19.0-0.1-0.194,AERUGBNS48Z4N,3HRWUH63RXIZS6U0Z3EY966PXK25N4,3WRFBPLXRE4Z0A5QBMV7JT4SD0AN3S,1,2
195,1,object_09,object_03,478.89999997616,1,1,121.79999995232,0.3333333333333333,1,object_08,1,3046,0,3,6,desert_6,2,memory-2step-stake-s,686,3003043,0.0-19.0-0.1-0.195,AERUGBNS48Z4N,3HRWUH63RXIZS6U0Z3EY966PXK25N4,3WRFBPLXRE4Z0A5QBMV7JT4SD0AN3S,1,2
196,1,object_09,object_03,577.0,1,1,79.800000071526,0.1111111111111111,1,object_08,1,3047,0,1,6,desert_2,2,memory-2step-stake-s,687,3010438,0.0-19.0-0.1-0.196,AERUGBNS48Z4N,3HRWUH63RXIZS6U0Z3EY966PXK25N4,3WRFBPLXRE4Z0A5QBMV7JT4SD0AN3S,1,2
197,3,object_07,object_10,1422.8000000715,5,1,401.70000004768,0.3333333333333333,1,object_08,1,3050,0,3,8,library_3,2,memory-2step-stake-s,688,3018368,0.0-19.0-0.1-0.197,AERUGBNS48Z4N,3HRWUH63RXIZS6U0Z3EY966PXK25N4,3WRFBPLXRE4Z0A5QBMV7JT4SD0AN3S,5,6
198,2,object_01,object_04,1077.6000000238,4,1,305.10000002384,0.5555555555555556,2,object_06,5,3075,0,6,5,forest_7,2,memory-2step-stake-s,689,3026392,0.0-19.0-0.1-0.198,AERUGBNS48Z4N,3HRWUH63RXIZS6U0Z3EY966PXK25N4,3WRFBPLXRE4Z0A5QBMV7JT4SD0AN3S,4,3
199,2,object_04,object_01,724.79999995232,4,2,607.40000009537,0.3333333333333333,2,object_06,1,3078,0,6,3,forest_3,2,memory-2step-stake-s,690,3034520,0.0-19.0-0.1-0.199,AERUGBNS48Z4N,3HRWUH63RXIZS6U0Z3EY966PXK25N4,3WRFBPLXRE4Z0A5QBMV7JT4SD0AN3S,3,4
200,4,object_02,object_05,1005.1000000238,7,2,241.20000004768,0.8888888888888888,1,object_08,1,3086,0,8,2,restaurant_7,2,memory-2step-stake-s,691,3042780,0.0-19.0-0.1-0.200,AERUGBNS48Z4N,3HRWUH63RXIZS6U0Z3EY966PXK25N4,3WRFBPLXRE4Z0A5QBMV7JT4SD0AN3S,8,7
201,4,object_05,object_02,977.29999995232,7,1,277.30000007153,0.8888888888888888,1,object_08,5,3126,0,8,1,restaurant_6,2,memory-2step-stake-s,692,3051081,0.0-19.0-0.1-0.201,AERUGBNS48Z4N,3HRWUH63RXIZS6U0Z3EY966PXK25N4,3WRFBPLXRE4Z0A5QBMV7JT4SD0AN3S,7,8
202,3,object_07,object_10,995.30000007153,5,1,335.10000002384,0.7777777777777778,1,object_08,1,3133,0,7,2,library_1,2,memory-2step-stake-s,693,3059343,0.0-19.0-0.1-0.202,AERUGBNS48Z4N,3HRWUH63RXIZS6U0Z3EY966PXK25N4,3WRFBPLXRE4Z0A5QBMV7JT4SD0AN3S,5,6
203,2,object_04,object_01,1169.6999999285,4,2,436.30000007153,0.5555555555555556,2,object_06,5,3158,0,7,5,forest_7,2,memory-2step-stake-s,694,3067510,0.0-19.0-0.1-0.203,AERUGBNS48Z4N,3HRWUH63RXIZS6U0Z3EY966PXK25N4,3WRFBPLXRE4Z0A5QBMV7JT4SD0AN3S,3,4
204,1,object_09,object_03,1238.8999999762,2,2,250.39999997616,0.5555555555555556,2,object_06,1,3163,0,5,5,desert_3,2,memory-2step-stake-s,695,3075476,0.0-19.0-0.1-0.204,AERUGBNS48Z4N,3HRWUH63RXIZS6U0Z3EY966PXK25N4,3WRFBPLXRE4Z0A5QBMV7JT4SD0AN3S,1,2
205,2,object_01,object_04,729.0,4,1,267.80000007153,0.4444444444444444,2,object_06,5,3183,0,4,4,forest_3,2,memory-2step-stake-s,696,3083361,0.0-19.0-0.1-0.205,AERUGBNS48Z4N,3HRWUH63RXIZS6U0Z3EY966PXK25N4,3WRFBPLXRE4Z0A5QBMV7JT4SD0AN3S,4,3
206,3,object_07,object_10,772.10000002384,5,1,360.60000002384,0.3333333333333333,1,object_08,1,3186,0,3,3,library_8,2,memory-2step-stake-s,697,3091241,0.0-19.0-0.1-0.206,AERUGBNS48Z4N,3HRWUH63RXIZS6U0Z3EY966PXK25N4,3WRFBPLXRE4Z0A5QBMV7JT4SD0AN3S,5,6
207,2,object_01,object_04,1203.6999999285,3,2,270.89999997616,0.3333333333333333,1,object_08,5,3201,0,3,5,forest_2,2,memory-2step-stake-s,698,3099034,0.0-19.0-0.1-0.207,AERUGBNS48Z4N,3HRWUH63RXIZS6U0Z3EY966PXK25N4,3WRFBPLXRE4Z0A5QBMV7JT4SD0AN3S,4,3
208,1,object_03,object_09,794.0,2,1,404.60000002384,0.5555555555555556,2,object_06,1,3206,0,3,5,desert_2,2,memory-2step-stake-s,699,3107168,0.0-19.0-0.1-0.208,AERUGBNS48Z4N,3HRWUH63RXIZS6U0Z3EY966PXK25N4,3WRFBPLXRE4Z0A5QBMV7JT4SD0AN3S,2,1
209,2,object_04,object_01,708.20000004768,4,2,472.20000004768,0.6666666666666666,2,object_06,5,3236,0,3,6,forest_4,2,memory-2step-stake-s,700,3115461,0.0-19.0-0.1-0.209,AERUGBNS48Z4N,3HRWUH63RXIZS6U0Z3EY966PXK25N4,3WRFBPLXRE4Z0A5QBMV7JT4SD0AN3S,3,4
210,3,object_10,object_07,721.0,5,2,276.39999997616,0.2222222222222222,1,object_08,1,3238,0,2,4,library_8,2,memory-2step-stake-s,701,3123152,0.0-19.0-0.1-0.210,AERUGBNS48Z4N,3HRWUH63RXIZS6U0Z3EY966PXK25N4,3WRFBPLXRE4Z0A5QBMV7JT4SD0AN3S,6,5
211,3,object_10,object_07,548.39999997616,6,1,167.19999992847,0.2222222222222222,2,object_06,1,3240,0,2,2,library_1,2,memory-2step-stake-s,702,3130736,0.0-19.0-0.1-0.211,AERUGBNS48Z4N,3HRWUH63RXIZS6U0Z3EY966PXK25N4,3WRFBPLXRE4Z0A5QBMV7JT4SD0AN3S,6,5
212,4,object_05,object_02,910.60000002384,7,1,242.80000007153,0.3333333333333333,1,object_08,1,3243,0,3,0,restaurant_5,2,memory-2step-stake-s,703,3138496,0.0-19.0-0.1-0.212,AERUGBNS48Z4N,3HRWUH63RXIZS6U0Z3EY966PXK25N4,3WRFBPLXRE4Z0A5QBMV7JT4SD0AN3S,7,8
213,4,object_05,object_02,669.10000002384,8,2,280.29999995232,0.1111111111111111,2,object_06,1,3244,0,5,1,restaurant_6,2,memory-2step-stake-s,704,3146098,0.0-19.0-0.1-0.213,AERUGBNS48Z4N,3HRWUH63RXIZS6U0Z3EY966PXK25N4,3WRFBPLXRE4Z0A5QBMV7JT4SD0AN3S,7,8
214,1,object_09,object_03,979.30000007153,1,1,238.29999995232,0.1111111111111111,1,object_08,5,3249,0,1,2,desert_2,2,memory-2step-stake-s,705,3153659,0.0-19.0-0.1-0.214,AERUGBNS48Z4N,3HRWUH63RXIZS6U0Z3EY966PXK25N4,3WRFBPLXRE4Z0A5QBMV7JT4SD0AN3S,1,2
215,3,object_07,object_10,927.89999997616,6,2,282.20000004768,0.4444444444444444,2,object_06,1,3253,0,0,4,library_3,2,memory-2step-stake-s,706,3161561,0.0-19.0-0.1-0.215,AERUGBNS48Z4N,3HRWUH63RXIZS6U0Z3EY966PXK25N4,3WRFBPLXRE4Z0A5QBMV7JT4SD0AN3S,5,6
216,1,object_03,object_09,908.70000004768,2,1,255.79999995232,0.4444444444444444,2,object_06,1,3257,0,1,4,desert_2,2,memory-2step-stake-s,707,3169441,0.0-19.0-0.1-0.216,AERUGBNS48Z4N,3HRWUH63RXIZS6U0Z3EY966PXK25N4,3WRFBPLXRE4Z0A5QBMV7JT4SD0AN3S,2,1
217,4,object_02,object_05,934.29999995232,7,2,280.0,0.1111111111111111,1,object_08,1,3258,0,1,5,restaurant_2,2,memory-2step-stake-s,708,3177033,0.0-19.0-0.1-0.217,AERUGBNS48Z4N,3HRWUH63RXIZS6U0Z3EY966PXK25N4,3WRFBPLXRE4Z0A5QBMV7JT4SD0AN3S,8,7
218,1,object_09,object_03,908.5,2,2,246.39999997616,0.6666666666666666,2,object_06,5,3288,0,0,6,desert_6,2,memory-2step-stake-s,709,3185099,0.0-19.0-0.1-0.218,AERUGBNS48Z4N,3HRWUH63RXIZS6U0Z3EY966PXK25N4,3WRFBPLXRE4Z0A5QBMV7JT4SD0AN3S,1,2
219,1,object_09,object_03,649.09999990463,2,2,53.5,0.7777777777777778,2,object_06,5,3323,0,2,7,desert_6,2,memory-2step-stake-s,710,3193074,0.0-19.0-0.1-0.219,AERUGBNS48Z4N,3HRWUH63RXIZS6U0Z3EY966PXK25N4,3WRFBPLXRE4Z0A5QBMV7JT4SD0AN3S,1,2
220,3,object_10,object_07,1098.6000000238,6,1,238.29999995232,0.6666666666666666,2,object_06,1,3329,0,3,6,library_3,2,memory-2step-stake-s,711,3201153,0.0-19.0-0.1-0.220,AERUGBNS48Z4N,3HRWUH63RXIZS6U0Z3EY966PXK25N4,3WRFBPLXRE4Z0A5QBMV7JT4SD0AN3S,6,5
221,3,object_10,object_07,508.89999997616,6,1,63.0,0.3333333333333333,2,object_06,1,3332,0,0,3,library_7,2,memory-2step-stake-s,712,3208731,0.0-19.0-0.1-0.221,AERUGBNS48Z4N,3HRWUH63RXIZS6U0Z3EY966PXK25N4,3WRFBPLXRE4Z0A5QBMV7JT4SD0AN3S,6,5
222,4,object_05,object_02,971.0,8,2,262.5,0.6666666666666666,2,object_06,1,3338,0,1,6,restaurant_2,2,memory-2step-stake-s,713,3216826,0.0-19.0-0.1-0.222,AERUGBNS48Z4N,3HRWUH63RXIZS6U0Z3EY966PXK25N4,3WRFBPLXRE4Z0A5QBMV7JT4SD0AN3S,7,8
223,2,object_04,object_01,755.60000002384,3,1,264.5,0.1111111111111111,1,object_08,1,3339,0,1,7,forest_7,2,memory-2step-stake-s,714,3224402,0.0-19.0-0.1-0.223,AERUGBNS48Z4N,3HRWUH63RXIZS6U0Z3EY966PXK25N4,3WRFBPLXRE4Z0A5QBMV7JT4SD0AN3S,3,4
224,2,object_04,object_01,658.20000004768,4,2,205.5,0.7777777777777778,2,object_06,5,3374,0,1,7,forest_3,2,memory-2step-stake-s,715,3232544,0.0-19.0-0.1-0.224,AERUGBNS48Z4N,3HRWUH63RXIZS6U0Z3EY966PXK25N4,3WRFBPLXRE4Z0A5QBMV7JT4SD0AN3S,3,4
225,2,object_01,object_04,1325.0,4,1,477.79999995232,0.1111111111111111,2,object_06,5,3379,0,1,1,forest_2,2,memory-2step-stake-s,716,3240339,0.0-19.0-0.1-0.225,AERUGBNS48Z4N,3HRWUH63RXIZS6U0Z3EY966PXK25N4,3WRFBPLXRE4Z0A5QBMV7JT4SD0AN3S,4,3
226,3,object_10,object_07,849.5,6,1,348.29999995232,0.4444444444444444,2,object_06,1,3383,0,0,4,library_8,2,memory-2step-stake-s,717,3248306,0.0-19.0-0.1-0.226,AERUGBNS48Z4N,3HRWUH63RXIZS6U0Z3EY966PXK25N4,3WRFBPLXRE4Z0A5QBMV7JT4SD0AN3S,6,5
227,4,object_05,object_02,699.60000002384,8,2,197.69999992847,0.5555555555555556,2,object_06,1,3388,0,3,5,restaurant_2,2,memory-2step-stake-s,718,3256220,0.0-19.0-0.1-0.227,AERUGBNS48Z4N,3HRWUH63RXIZS6U0Z3EY966PXK25N4,3WRFBPLXRE4Z0A5QBMV7JT4SD0AN3S,7,8
228,4,object_02,object_05,591.5,8,1,-1.0,0.0,2,object_06,1,3388,0,2,5,restaurant_2,2,memory-2step-stake-s,719,3264733,0.0-19.0-0.1-0.228,AERUGBNS48Z4N,3HRWUH63RXIZS6U0Z3EY966PXK25N4,3WRFBPLXRE4Z0A5QBMV7JT4SD0AN3S,8,7
229,1,object_03,object_09,1097.7000000477,1,2,262.0,0.1111111111111111,1,object_08,5,3393,0,1,5,desert_6,2,memory-2step-stake-s,720,3272307,0.0-19.0-0.1-0.229,AERUGBNS48Z4N,3HRWUH63RXIZS6U0Z3EY966PXK25N4,3WRFBPLXRE4Z0A5QBMV7JT4SD0AN3S,2,1
230,4,object_02,object_05,931.30000007153,8,1,7.1000000238419,0.4444444444444444,2,object_06,1,3397,0,0,4,restaurant_2,2,memory-2step-stake-s,721,3279933,0.0-19.0-0.1-0.230,AERUGBNS48Z4N,3HRWUH63RXIZS6U0Z3EY966PXK25N4,3WRFBPLXRE4Z0A5QBMV7JT4SD0AN3S,8,7
231,3,object_07,object_10,912.80000007153,6,2,228.5,0.3333333333333333,2,object_06,1,3400,0,1,3,library_8,2,memory-2step-stake-s,722,3287677,0.0-19.0-0.1-0.231,AERUGBNS48Z4N,3HRWUH63RXIZS6U0Z3EY966PXK25N4,3WRFBPLXRE4Z0A5QBMV7JT4SD0AN3S,5,6
232,2,object_01,object_04,775.20000004768,3,2,35.199999928474,0.0,1,object_08,5,3400,0,0,3,forest_7,2,memory-2step-stake-s,723,3294924,0.0-19.0-0.1-0.232,AERUGBNS48Z4N,3HRWUH63RXIZS6U0Z3EY966PXK25N4,3WRFBPLXRE4Z0A5QBMV7JT4SD0AN3S,4,3
233,1,object_09,object_03,1137.1000000238,2,2,365.89999997616,0.1111111111111111,2,object_06,5,3405,0,0,1,desert_6,2,memory-2step-stake-s,724,3302604,0.0-19.0-0.1-0.233,AERUGBNS48Z4N,3HRWUH63RXIZS6U0Z3EY966PXK25N4,3WRFBPLXRE4Z0A5QBMV7JT4SD0AN3S,1,2
234,1,object_09,object_03,867.80000007153,1,1,270.39999997616,0.0,1,object_08,5,3405,0,0,2,desert_8,2,memory-2step-stake-s,725,3310101,0.0-19.0-0.1-0.234,AERUGBNS48Z4N,3HRWUH63RXIZS6U0Z3EY966PXK25N4,3WRFBPLXRE4Z0A5QBMV7JT4SD0AN3S,1,2
235,3,object_10,object_07,1033.0,6,1,236.0,0.5555555555555556,2,object_06,1,3410,0,1,5,library_7,2,memory-2step-stake-s,726,3318055,0.0-19.0-0.1-0.235,AERUGBNS48Z4N,3HRWUH63RXIZS6U0Z3EY966PXK25N4,3WRFBPLXRE4Z0A5QBMV7JT4SD0AN3S,6,5
236,3,object_10,object_07,589.90000009537,6,1,703.10000002384,0.4444444444444444,2,object_06,1,3414,0,1,4,library_8,2,memory-2step-stake-s,727,3326375,0.0-19.0-0.1-0.236,AERUGBNS48Z4N,3HRWUH63RXIZS6U0Z3EY966PXK25N4,3WRFBPLXRE4Z0A5QBMV7JT4SD0AN3S,6,5
237,1,object_09,object_03,1012.0,2,2,253.20000004768,0.4444444444444444,2,object_06,5,3434,0,1,4,desert_3,2,memory-2step-stake-s,728,3334258,0.0-19.0-0.1-0.237,AERUGBNS48Z4N,3HRWUH63RXIZS6U0Z3EY966PXK25N4,3WRFBPLXRE4Z0A5QBMV7JT4SD0AN3S,1,2
238,4,object_02,object_05,876.70000004768,8,1,320.0,0.4444444444444444,2,object_06,1,3438,0,4,4,restaurant_7,2,memory-2step-stake-s,729,3342205,0.0-19.0-0.1-0.238,AERUGBNS48Z4N,3HRWUH63RXIZS6U0Z3EY966PXK25N4,3WRFBPLXRE4Z0A5QBMV7JT4SD0AN3S,8,7
239,1,object_03,object_09,1023.8999999762,2,1,244.0,0.5555555555555556,2,object_06,1,3443,0,7,5,desert_2,2,memory-2step-stake-s,730,3350170,0.0-19.0-0.1-0.239,AERUGBNS48Z4N,3HRWUH63RXIZS6U0Z3EY966PXK25N4,3WRFBPLXRE4Z0A5QBMV7JT4SD0AN3S,2,1
240,3,object_10,object_07,892.10000002384,6,1,87.799999952316,0.7777777777777778,2,object_06,1,3450,0,4,7,library_1,2,memory-2step-stake-s,731,3358176,0.0-19.0-0.1-0.240,AERUGBNS48Z4N,3HRWUH63RXIZS6U0Z3EY966PXK25N4,3WRFBPLXRE4Z0A5QBMV7JT4SD0AN3S,6,5
241,4,object_05,object_02,661.10000002384,8,2,74.200000047684,0.7777777777777778,2,object_06,1,3457,0,4,7,restaurant_5,2,memory-2step-stake-s,732,3366190,0.0-19.0-0.1-0.241,AERUGBNS48Z4N,3HRWUH63RXIZS6U0Z3EY966PXK25N4,3WRFBPLXRE4Z0A5QBMV7JT4SD0AN3S,7,8
242,1,object_09,object_03,799.60000002384,2,2,107.60000002384,0.7777777777777778,2,object_06,1,3464,0,2,7,desert_2,2,memory-2step-stake-s,733,3374217,0.0-19.0-0.1-0.242,AERUGBNS48Z4N,3HRWUH63RXIZS6U0Z3EY966PXK25N4,3WRFBPLXRE4Z0A5QBMV7JT4SD0AN3S,1,2
243,4,object_05,object_02,940.79999995232,8,2,207.29999995232,0.7777777777777778,2,object_06,5,3499,0,2,7,restaurant_2,2,memory-2step-stake-s,734,3382354,0.0-19.0-0.1-0.243,AERUGBNS48Z4N,3HRWUH63RXIZS6U0Z3EY966PXK25N4,3WRFBPLXRE4Z0A5QBMV7JT4SD0AN3S,7,8
244,1,object_09,object_03,1011.3000000715,2,2,334.10000002384,0.6666666666666666,2,object_06,5,3529,0,2,6,desert_2,2,memory-2step-stake-s,735,3390510,0.0-19.0-0.1-0.244,AERUGBNS48Z4N,3HRWUH63RXIZS6U0Z3EY966PXK25N4,3WRFBPLXRE4Z0A5QBMV7JT4SD0AN3S,1,2
245,1,object_03,object_09,775.59999990463,2,1,395.5,0.6666666666666666,2,object_06,5,3559,0,2,6,desert_8,2,memory-2step-stake-s,736,3398724,0.0-19.0-0.1-0.245,AERUGBNS48Z4N,3HRWUH63RXIZS6U0Z3EY966PXK25N4,3WRFBPLXRE4Z0A5QBMV7JT4SD0AN3S,2,1
246,4,object_05,object_02,721.10000002384,8,2,38.200000047684,0.7777777777777778,2,object_06,5,3594,0,4,7,restaurant_7,2,memory-2step-stake-s,737,3406680,0.0-19.0-0.1-0.246,AERUGBNS48Z4N,3HRWUH63RXIZS6U0Z3EY966PXK25N4,3WRFBPLXRE4Z0A5QBMV7JT4SD0AN3S,7,8
247,4,object_02,object_05,587.79999995232,8,1,168.0,0.5555555555555556,2,object_06,1,3599,0,2,5,restaurant_7,2,memory-2step-stake-s,738,3414579,0.0-19.0-0.1-0.247,AERUGBNS48Z4N,3HRWUH63RXIZS6U0Z3EY966PXK25N4,3WRFBPLXRE4Z0A5QBMV7JT4SD0AN3S,8,7
248,4,object_02,object_05,540.0,8,1,204.69999992847,0.6666666666666666,2,object_06,1,3605,0,0,6,restaurant_7,2,memory-2step-stake-s,739,3422612,0.0-19.0-0.1-0.248,AERUGBNS48Z4N,3HRWUH63RXIZS6U0Z3EY966PXK25N4,3WRFBPLXRE4Z0A5QBMV7JT4SD0AN3S,8,7
249,3,object_10,object_07,908.0,6,1,255.70000004768,0.6666666666666666,2,object_06,1,3611,0,3,6,library_1,2,memory-2step-stake-s,740,3430694,0.0-19.0-0.1-0.249,AERUGBNS48Z4N,3HRWUH63RXIZS6U0Z3EY966PXK25N4,3WRFBPLXRE4Z0A5QBMV7JT4SD0AN3S,6,5
250,3,object_10,object_07,528.0,6,1,195.69999992847,0.8888888888888888,2,object_06,1,3619,0,5,8,library_8,2,memory-2step-stake-s,741,3438911,0.0-19.0-0.1-0.250,AERUGBNS48Z4N,3HRWUH63RXIZS6U0Z3EY966PXK25N4,3WRFBPLXRE4Z0A5QBMV7JT4SD0AN3S,6,5
251,4,object_02,object_05,445.89999997616,8,1,192.89999997616,1.0,2,object_06,1,3628,0,5,9,restaurant_2,2,memory-2step-stake-s,742,3447230,0.0-19.0-0.1-0.251,AERUGBNS48Z4N,3HRWUH63RXIZS6U0Z3EY966PXK25N4,3WRFBPLXRE4Z0A5QBMV7JT4SD0AN3S,8,7
252,4,object_05,object_02,519.39999997616,8,2,104.60000002384,0.8888888888888888,2,object_06,1,3636,0,6,8,restaurant_6,2,memory-2step-stake-s,743,3455358,0.0-19.0-0.1-0.252,AERUGBNS48Z4N,3HRWUH63RXIZS6U0Z3EY966PXK25N4,3WRFBPLXRE4Z0A5QBMV7JT4SD0AN3S,7,8
253,2,object_01,object_04,704.20000004768,3,2,251.60000002384,0.8888888888888888,1,object_08,1,3644,0,8,7,forest_7,2,memory-2step-stake-s,744,3463652,0.0-19.0-0.1-0.253,AERUGBNS48Z4N,3HRWUH63RXIZS6U0Z3EY966PXK25N4,3WRFBPLXRE4Z0A5QBMV7JT4SD0AN3S,4,3
254,2,object_04,object_01,641.80000007153,3,1,277.59999990463,0.8888888888888888,1,object_08,5,3684,0,8,8,forest_4,2,memory-2step-stake-s,745,3471976,0.0-19.0-0.1-0.254,AERUGBNS48Z4N,3HRWUH63RXIZS6U0Z3EY966PXK25N4,3WRFBPLXRE4Z0A5QBMV7JT4SD0AN3S,3,4
255,1,object_03,object_09,925.60000002384,2,1,241.10000002384,0.7777777777777778,2,object_06,5,3719,0,8,7,desert_2,2,memory-2step-stake-s,746,3480161,0.0-19.0-0.1-0.255,AERUGBNS48Z4N,3HRWUH63RXIZS6U0Z3EY966PXK25N4,3WRFBPLXRE4Z0A5QBMV7JT4SD0AN3S,2,1
