"rt","response","task","backgroundImg","left_obj","right_obj","lure_or_no","trial_type","trial_index","time_elapsed","internal_node_id","subid","hitid","assignmentid"
"2960","2","memory_backgrounds","stimuli/desert/desert_4.jpg","stimuli/object_10.png","stimuli/object_01.png","lure","html-button-response","1202","3392795","0.0-26.0-1.0","smorse","55","smorse_test2"
"2028","1","memory_backgrounds","stimuli/restaurant/restaurant_6.jpg","stimuli/object_07.png","stimuli/object_08.png","lure_but_seen","html-button-response","1204","3395327","0.0-26.0-1.1","smorse","55","smorse_test2"
"3332","1","memory_backgrounds","stimuli/forest/forest_5.jpg","stimuli/object_02.png","stimuli/object_06.png","target","html-button-response","1206","3399161","0.0-26.0-1.2","smorse","55","smorse_test2"
"3774","2","memory_backgrounds","stimuli/restaurant/restaurant_8.jpg","stimuli/object_09.png","stimuli/object_05.png","lure","html-button-response","1208","3403437","0.0-26.0-1.3","smorse","55","smorse_test2"
"2398","2","memory_backgrounds","stimuli/restaurant/restaurant_1.jpg","stimuli/object_06.png","stimuli/object_02.png","lure_but_seen","html-button-response","1210","3406339","0.0-26.0-1.4","smorse","55","smorse_test2"
"2463","1","memory_backgrounds","stimuli/desert/desert_5.jpg","stimuli/object_07.png","stimuli/object_08.png","lure_but_seen","html-button-response","1212","3409309","0.0-26.0-1.5","smorse","55","smorse_test2"
"3106","0","memory_backgrounds","stimuli/library/library_8.jpg","stimuli/object_08.png","stimuli/object_07.png","target","html-button-response","1214","3412920","0.0-26.0-1.6","smorse","55","smorse_test2"
"3501","0","memory_backgrounds","stimuli/restaurant/restaurant_6.jpg","stimuli/object_05.png","stimuli/object_09.png","target","html-button-response","1216","3416924","0.0-26.0-1.7","smorse","55","smorse_test2"
"3241","1","memory_backgrounds","stimuli/desert/desert_6.jpg","stimuli/object_10.png","stimuli/object_01.png","target","html-button-response","1218","3420670","0.0-26.0-1.8","smorse","55","smorse_test2"
"1450","2","memory_backgrounds","stimuli/desert/desert_1.jpg","stimuli/object_10.png","stimuli/object_01.png","lure","html-button-response","1220","3422628","0.0-26.0-1.9","smorse","55","smorse_test2"
"2781","1","memory_backgrounds","stimuli/restaurant/restaurant_1.jpg","stimuli/object_09.png","stimuli/object_05.png","target","html-button-response","1222","3425912","0.0-26.0-1.10","smorse","55","smorse_test2"
"2658","1","memory_backgrounds","stimuli/restaurant/restaurant_7.jpg","stimuli/object_09.png","stimuli/object_05.png","lure","html-button-response","1224","3429203","0.0-26.0-1.11","smorse","55","smorse_test2"
"2848","1","memory_backgrounds","stimuli/desert/desert_7.jpg","stimuli/object_10.png","stimuli/object_01.png","target","html-button-response","1226","3432555","0.0-26.0-1.12","smorse","55","smorse_test2"
"1859","0","memory_backgrounds","stimuli/library/library_6.jpg","stimuli/object_08.png","stimuli/object_07.png","target","html-button-response","1228","3434917","0.0-26.0-1.13","smorse","55","smorse_test2"
"2377","2","memory_backgrounds","stimuli/restaurant/restaurant_4.jpg","stimuli/object_05.png","stimuli/object_09.png","lure","html-button-response","1230","3437797","0.0-26.0-1.14","smorse","55","smorse_test2"
"1431","2","memory_backgrounds","stimuli/forest/forest_2.jpg","stimuli/object_06.png","stimuli/object_02.png","lure","html-button-response","1232","3439732","0.0-26.0-1.15","smorse","55","smorse_test2"
"2221","2","memory_backgrounds","stimuli/forest/forest_7.jpg","stimuli/object_02.png","stimuli/object_06.png","lure","html-button-response","1234","3442455","0.0-26.0-1.16","smorse","55","smorse_test2"
"1633","0","memory_backgrounds","stimuli/desert/desert_5.jpg","stimuli/object_01.png","stimuli/object_10.png","target","html-button-response","1236","3444591","0.0-26.0-1.17","smorse","55","smorse_test2"
NULL,NULL,"memory_backgrounds","stimuli/restaurant/restaurant_2.jpg","stimuli/object_05.png","stimuli/object_09.png","target","html-button-response","1238","3450094","0.0-26.0-1.18","smorse","55","smorse_test2"
"3129","1","memory_backgrounds","stimuli/restaurant/restaurant_2.jpg","stimuli/object_10.png","stimuli/object_01.png","lure_but_seen","html-button-response","1240","3453726","0.0-26.0-1.19","smorse","55","smorse_test2"
"2859","1","memory_backgrounds","stimuli/forest/forest_3.jpg","stimuli/object_06.png","stimuli/object_02.png","target","html-button-response","1242","3457090","0.0-26.0-1.20","smorse","55","smorse_test2"
"1716","1","memory_backgrounds","stimuli/forest/forest_1.jpg","stimuli/object_06.png","stimuli/object_02.png","lure","html-button-response","1244","3459306","0.0-26.0-1.21","smorse","55","smorse_test2"
"2297","1","memory_backgrounds","stimuli/library/library_3.jpg","stimuli/object_02.png","stimuli/object_06.png","lure_but_seen","html-button-response","1246","3462108","0.0-26.0-1.22","smorse","55","smorse_test2"
"1575","2","memory_backgrounds","stimuli/forest/forest_8.jpg","stimuli/object_02.png","stimuli/object_06.png","target","html-button-response","1248","3464188","0.0-26.0-1.23","smorse","55","smorse_test2"
"2770","1","memory_backgrounds","stimuli/desert/desert_8.jpg","stimuli/object_01.png","stimuli/object_10.png","lure","html-button-response","1250","3467461","0.0-26.0-1.24","smorse","55","smorse_test2"
"1827","1","memory_backgrounds","stimuli/library/library_6.jpg","stimuli/object_09.png","stimuli/object_05.png","lure_but_seen","html-button-response","1252","3469790","0.0-26.0-1.25","smorse","55","smorse_test2"
"1631","1","memory_backgrounds","stimuli/library/library_3.jpg","stimuli/object_07.png","stimuli/object_08.png","target","html-button-response","1254","3471927","0.0-26.0-1.26","smorse","55","smorse_test2"
"2072","2","memory_backgrounds","stimuli/forest/forest_5.jpg","stimuli/object_05.png","stimuli/object_09.png","lure_but_seen","html-button-response","1256","3474503","0.0-26.0-1.27","smorse","55","smorse_test2"
"2051","1","memory_backgrounds","stimuli/forest/forest_8.jpg","stimuli/object_10.png","stimuli/object_01.png","lure_but_seen","html-button-response","1258","3477057","0.0-26.0-1.28","smorse","55","smorse_test2"
"1239","0","memory_backgrounds","stimuli/library/library_8.jpg","stimuli/object_01.png","stimuli/object_10.png","lure_but_seen","html-button-response","1260","3478801","0.0-26.0-1.29","smorse","55","smorse_test2"
"1128","2","memory_backgrounds","stimuli/forest/forest_6.jpg","stimuli/object_06.png","stimuli/object_02.png","target","html-button-response","1262","3480433","0.0-26.0-1.30","smorse","55","smorse_test2"
"2308","2","memory_backgrounds","stimuli/desert/desert_3.jpg","stimuli/object_01.png","stimuli/object_10.png","target","html-button-response","1264","3483244","0.0-26.0-1.31","smorse","55","smorse_test2"
"2374","2","memory_backgrounds","stimuli/forest/forest_4.jpg","stimuli/object_02.png","stimuli/object_06.png","lure","html-button-response","1266","3486124","0.0-26.0-1.32","smorse","55","smorse_test2"
"1597","1","memory_backgrounds","stimuli/library/library_7.jpg","stimuli/object_08.png","stimuli/object_07.png","lure","html-button-response","1268","3488228","0.0-26.0-1.33","smorse","55","smorse_test2"
"2510","1","memory_backgrounds","stimuli/desert/desert_7.jpg","stimuli/object_09.png","stimuli/object_05.png","lure_but_seen","html-button-response","1270","3491242","0.0-26.0-1.34","smorse","55","smorse_test2"
"2418","1","memory_backgrounds","stimuli/restaurant/restaurant_5.jpg","stimuli/object_09.png","stimuli/object_05.png","target","html-button-response","1272","3494167","0.0-26.0-1.35","smorse","55","smorse_test2"
"1760","1","memory_backgrounds","stimuli/library/library_5.jpg","stimuli/object_07.png","stimuli/object_08.png","lure","html-button-response","1274","3496428","0.0-26.0-1.36","smorse","55","smorse_test2"
"2344","1","memory_backgrounds","stimuli/forest/forest_3.jpg","stimuli/object_08.png","stimuli/object_07.png","lure_but_seen","html-button-response","1276","3499274","0.0-26.0-1.37","smorse","55","smorse_test2"
"3006","1","memory_backgrounds","stimuli/library/library_1.jpg","stimuli/object_08.png","stimuli/object_07.png","lure","html-button-response","1278","3502784","0.0-26.0-1.38","smorse","55","smorse_test2"
"1398","2","memory_backgrounds","stimuli/library/library_4.jpg","stimuli/object_07.png","stimuli/object_08.png","lure","html-button-response","1280","3504685","0.0-26.0-1.39","smorse","55","smorse_test2"
"1264","1","memory_backgrounds","stimuli/desert/desert_6.jpg","stimuli/object_06.png","stimuli/object_02.png","lure_but_seen","html-button-response","1282","3506451","0.0-26.0-1.40","smorse","55","smorse_test2"
"2052","1","memory_backgrounds","stimuli/desert/desert_2.jpg","stimuli/object_01.png","stimuli/object_10.png","lure","html-button-response","1284","3509004","0.0-26.0-1.41","smorse","55","smorse_test2"
"1476","1","memory_backgrounds","stimuli/restaurant/restaurant_3.jpg","stimuli/object_05.png","stimuli/object_09.png","lure","html-button-response","1286","3510985","0.0-26.0-1.42","smorse","55","smorse_test2"
"1118","1","memory_backgrounds","stimuli/library/library_2.jpg","stimuli/object_07.png","stimuli/object_08.png","target","html-button-response","1288","3512605","0.0-26.0-1.43","smorse","55","smorse_test2"
"2668.8000000119","2","memory_backgrounds","stimuli/library/library_8.jpg","stimuli/object_09.png","stimuli/object_05.png","lure","html-button-response","1225","4266587","0.0-26.0-1.0","A2R75YFKVALBXE","39O6Z4JLY5DL2UNJ70JKB6RMCJRXVU","36AHBNMV1VSRU1B1BDAUDIOB7N7DYP"
"2793","1","memory_backgrounds","stimuli/restaurant/restaurant_5.jpg","stimuli/object_01.png","stimuli/object_03.png","target","html-button-response","1227","4269882","0.0-26.0-1.1","A2R75YFKVALBXE","39O6Z4JLY5DL2UNJ70JKB6RMCJRXVU","36AHBNMV1VSRU1B1BDAUDIOB7N7DYP"
"1734.5","0","memory_backgrounds","stimuli/forest/forest_5.jpg","stimuli/object_07.png","stimuli/object_08.png","lure","html-button-response","1229","4272120","0.0-26.0-1.2","A2R75YFKVALBXE","39O6Z4JLY5DL2UNJ70JKB6RMCJRXVU","36AHBNMV1VSRU1B1BDAUDIOB7N7DYP"
"1905.6000000238","0","memory_backgrounds","stimuli/library/library_2.jpg","stimuli/object_09.png","stimuli/object_05.png","target","html-button-response","1231","4274530","0.0-26.0-1.3","A2R75YFKVALBXE","39O6Z4JLY5DL2UNJ70JKB6RMCJRXVU","36AHBNMV1VSRU1B1BDAUDIOB7N7DYP"
"1737.8999999762","0","memory_backgrounds","stimuli/restaurant/restaurant_2.jpg","stimuli/object_03.png","stimuli/object_01.png","lure","html-button-response","1233","4276774","0.0-26.0-1.4","A2R75YFKVALBXE","39O6Z4JLY5DL2UNJ70JKB6RMCJRXVU","36AHBNMV1VSRU1B1BDAUDIOB7N7DYP"
"1539.0999999642","0","memory_backgrounds","stimuli/forest/forest_7.jpg","stimuli/object_08.png","stimuli/object_07.png","lure","html-button-response","1235","4278816","0.0-26.0-1.5","A2R75YFKVALBXE","39O6Z4JLY5DL2UNJ70JKB6RMCJRXVU","36AHBNMV1VSRU1B1BDAUDIOB7N7DYP"
"2201.9000000358","3","memory_backgrounds","stimuli/forest/forest_1.jpg","stimuli/object_07.png","stimuli/object_08.png","lure","html-button-response","1237","4281522","0.0-26.0-1.6","A2R75YFKVALBXE","39O6Z4JLY5DL2UNJ70JKB6RMCJRXVU","36AHBNMV1VSRU1B1BDAUDIOB7N7DYP"
"3259.8000000119","1","memory_backgrounds","stimuli/forest/forest_2.jpg","stimuli/object_08.png","stimuli/object_07.png","lure","html-button-response","1239","4285286","0.0-26.0-1.7","A2R75YFKVALBXE","39O6Z4JLY5DL2UNJ70JKB6RMCJRXVU","36AHBNMV1VSRU1B1BDAUDIOB7N7DYP"
"3551.1999999881","1","memory_backgrounds","stimuli/desert/desert_4.jpg","stimuli/object_04.png","stimuli/object_02.png","target","html-button-response","1241","4289346","0.0-26.0-1.8","A2R75YFKVALBXE","39O6Z4JLY5DL2UNJ70JKB6RMCJRXVU","36AHBNMV1VSRU1B1BDAUDIOB7N7DYP"
"1664.5999999642","0","memory_backgrounds","stimuli/library/library_5.jpg","stimuli/object_09.png","stimuli/object_05.png","target","html-button-response","1243","4291518","0.0-26.0-1.9","A2R75YFKVALBXE","39O6Z4JLY5DL2UNJ70JKB6RMCJRXVU","36AHBNMV1VSRU1B1BDAUDIOB7N7DYP"
"1930","3","memory_backgrounds","stimuli/library/library_6.jpg","stimuli/object_05.png","stimuli/object_09.png","lure","html-button-response","1245","4293952","0.0-26.0-1.10","A2R75YFKVALBXE","39O6Z4JLY5DL2UNJ70JKB6RMCJRXVU","36AHBNMV1VSRU1B1BDAUDIOB7N7DYP"
"2131.1999999881","1","memory_backgrounds","stimuli/forest/forest_4.jpg","stimuli/object_08.png","stimuli/object_07.png","target","html-button-response","1247","4296588","0.0-26.0-1.11","A2R75YFKVALBXE","39O6Z4JLY5DL2UNJ70JKB6RMCJRXVU","36AHBNMV1VSRU1B1BDAUDIOB7N7DYP"
"2491","1","memory_backgrounds","stimuli/desert/desert_8.jpg","stimuli/object_04.png","stimuli/object_02.png","target","html-button-response","1249","4299582","0.0-26.0-1.12","A2R75YFKVALBXE","39O6Z4JLY5DL2UNJ70JKB6RMCJRXVU","36AHBNMV1VSRU1B1BDAUDIOB7N7DYP"
"3230.1000000238","1","memory_backgrounds","stimuli/desert/desert_7.jpg","stimuli/object_07.png","stimuli/object_08.png","lure_but_seen","html-button-response","1251","4303315","0.0-26.0-1.13","A2R75YFKVALBXE","39O6Z4JLY5DL2UNJ70JKB6RMCJRXVU","36AHBNMV1VSRU1B1BDAUDIOB7N7DYP"
"2217.8000000119","0","memory_backgrounds","stimuli/library/library_3.jpg","stimuli/object_08.png","stimuli/object_07.png","lure_but_seen","html-button-response","1253","4306037","0.0-26.0-1.14","A2R75YFKVALBXE","39O6Z4JLY5DL2UNJ70JKB6RMCJRXVU","36AHBNMV1VSRU1B1BDAUDIOB7N7DYP"
"2206.6999999881","3","memory_backgrounds","stimuli/library/library_1.jpg","stimuli/object_05.png","stimuli/object_09.png","lure","html-button-response","1255","4308752","0.0-26.0-1.15","A2R75YFKVALBXE","39O6Z4JLY5DL2UNJ70JKB6RMCJRXVU","36AHBNMV1VSRU1B1BDAUDIOB7N7DYP"
"1328.9000000358","3","memory_backgrounds","stimuli/restaurant/restaurant_6.jpg","stimuli/object_03.png","stimuli/object_01.png","lure","html-button-response","1257","4310585","0.0-26.0-1.16","A2R75YFKVALBXE","39O6Z4JLY5DL2UNJ70JKB6RMCJRXVU","36AHBNMV1VSRU1B1BDAUDIOB7N7DYP"
"1857.3000000119","1","memory_backgrounds","stimuli/library/library_3.jpg","stimuli/object_05.png","stimuli/object_09.png","target","html-button-response","1259","4312947","0.0-26.0-1.17","A2R75YFKVALBXE","39O6Z4JLY5DL2UNJ70JKB6RMCJRXVU","36AHBNMV1VSRU1B1BDAUDIOB7N7DYP"
"3292.6000000238","3","memory_backgrounds","stimuli/restaurant/restaurant_1.jpg","stimuli/object_01.png","stimuli/object_03.png","lure","html-button-response","1261","4316745","0.0-26.0-1.18","A2R75YFKVALBXE","39O6Z4JLY5DL2UNJ70JKB6RMCJRXVU","36AHBNMV1VSRU1B1BDAUDIOB7N7DYP"
"1951.3999999762","3","memory_backgrounds","stimuli/forest/forest_8.jpg","stimuli/object_03.png","stimuli/object_01.png","lure_but_seen","html-button-response","1263","4319201","0.0-26.0-1.19","A2R75YFKVALBXE","39O6Z4JLY5DL2UNJ70JKB6RMCJRXVU","36AHBNMV1VSRU1B1BDAUDIOB7N7DYP"
"2970.8000000119","2","memory_backgrounds","stimuli/desert/desert_5.jpg","stimuli/object_04.png","stimuli/object_02.png","lure","html-button-response","1265","4322676","0.0-26.0-1.20","A2R75YFKVALBXE","39O6Z4JLY5DL2UNJ70JKB6RMCJRXVU","36AHBNMV1VSRU1B1BDAUDIOB7N7DYP"
"1327.2999999523","2","memory_backgrounds","stimuli/desert/desert_2.jpg","stimuli/object_01.png","stimuli/object_03.png","lure_but_seen","html-button-response","1267","4324508","0.0-26.0-1.21","A2R75YFKVALBXE","39O6Z4JLY5DL2UNJ70JKB6RMCJRXVU","36AHBNMV1VSRU1B1BDAUDIOB7N7DYP"
"1368.8999999762","2","memory_backgrounds","stimuli/library/library_7.jpg","stimuli/object_09.png","stimuli/object_05.png","lure","html-button-response","1269","4326385","0.0-26.0-1.22","A2R75YFKVALBXE","39O6Z4JLY5DL2UNJ70JKB6RMCJRXVU","36AHBNMV1VSRU1B1BDAUDIOB7N7DYP"
"2067.5","2","memory_backgrounds","stimuli/desert/desert_2.jpg","stimuli/object_02.png","stimuli/object_04.png","target","html-button-response","1271","4328958","0.0-26.0-1.23","A2R75YFKVALBXE","39O6Z4JLY5DL2UNJ70JKB6RMCJRXVU","36AHBNMV1VSRU1B1BDAUDIOB7N7DYP"
"2774.3000000119","1","memory_backgrounds","stimuli/forest/forest_4.jpg","stimuli/object_02.png","stimuli/object_04.png","lure_but_seen","html-button-response","1273","4332236","0.0-26.0-1.24","A2R75YFKVALBXE","39O6Z4JLY5DL2UNJ70JKB6RMCJRXVU","36AHBNMV1VSRU1B1BDAUDIOB7N7DYP"
"1851.1999999881","1","memory_backgrounds","stimuli/desert/desert_7.jpg","stimuli/object_02.png","stimuli/object_04.png","target","html-button-response","1275","4334590","0.0-26.0-1.25","A2R75YFKVALBXE","39O6Z4JLY5DL2UNJ70JKB6RMCJRXVU","36AHBNMV1VSRU1B1BDAUDIOB7N7DYP"
"1595.3000000119","0","memory_backgrounds","stimuli/library/library_5.jpg","stimuli/object_01.png","stimuli/object_03.png","lure_but_seen","html-button-response","1277","4336688","0.0-26.0-1.26","A2R75YFKVALBXE","39O6Z4JLY5DL2UNJ70JKB6RMCJRXVU","36AHBNMV1VSRU1B1BDAUDIOB7N7DYP"
"1997.5","3","memory_backgrounds","stimuli/desert/desert_3.jpg","stimuli/object_02.png","stimuli/object_04.png","lure","html-button-response","1279","4339187","0.0-26.0-1.27","A2R75YFKVALBXE","39O6Z4JLY5DL2UNJ70JKB6RMCJRXVU","36AHBNMV1VSRU1B1BDAUDIOB7N7DYP"
"1955","3","memory_backgrounds","stimuli/restaurant/restaurant_5.jpg","stimuli/object_07.png","stimuli/object_08.png","lure_but_seen","html-button-response","1281","4341646","0.0-26.0-1.28","A2R75YFKVALBXE","39O6Z4JLY5DL2UNJ70JKB6RMCJRXVU","36AHBNMV1VSRU1B1BDAUDIOB7N7DYP"
"1142.9000000358","3","memory_backgrounds","stimuli/desert/desert_1.jpg","stimuli/object_02.png","stimuli/object_04.png","lure","html-button-response","1283","4343294","0.0-26.0-1.29","A2R75YFKVALBXE","39O6Z4JLY5DL2UNJ70JKB6RMCJRXVU","36AHBNMV1VSRU1B1BDAUDIOB7N7DYP"
"3993","1","memory_backgrounds","stimuli/restaurant/restaurant_3.jpg","stimuli/object_01.png","stimuli/object_03.png","target","html-button-response","1285","4347794","0.0-26.0-1.30","A2R75YFKVALBXE","39O6Z4JLY5DL2UNJ70JKB6RMCJRXVU","36AHBNMV1VSRU1B1BDAUDIOB7N7DYP"
"1766.3000000119","3","memory_backgrounds","stimuli/forest/forest_3.jpg","stimuli/object_07.png","stimuli/object_08.png","target","html-button-response","1287","4350066","0.0-26.0-1.31","A2R75YFKVALBXE","39O6Z4JLY5DL2UNJ70JKB6RMCJRXVU","36AHBNMV1VSRU1B1BDAUDIOB7N7DYP"
"2549.8999999762","2","memory_backgrounds","stimuli/forest/forest_8.jpg","stimuli/object_08.png","stimuli/object_07.png","target","html-button-response","1289","4353118","0.0-26.0-1.32","A2R75YFKVALBXE","39O6Z4JLY5DL2UNJ70JKB6RMCJRXVU","36AHBNMV1VSRU1B1BDAUDIOB7N7DYP"
"2341.5999999642","3","memory_backgrounds","stimuli/restaurant/restaurant_8.jpg","stimuli/object_03.png","stimuli/object_01.png","target","html-button-response","1291","4355963","0.0-26.0-1.33","A2R75YFKVALBXE","39O6Z4JLY5DL2UNJ70JKB6RMCJRXVU","36AHBNMV1VSRU1B1BDAUDIOB7N7DYP"
"2377.8000000119","3","memory_backgrounds","stimuli/restaurant/restaurant_4.jpg","stimuli/object_02.png","stimuli/object_04.png","lure_but_seen","html-button-response","1293","4358848","0.0-26.0-1.34","A2R75YFKVALBXE","39O6Z4JLY5DL2UNJ70JKB6RMCJRXVU","36AHBNMV1VSRU1B1BDAUDIOB7N7DYP"
"1304.8000000119","3","memory_backgrounds","stimuli/restaurant/restaurant_4.jpg","stimuli/object_03.png","stimuli/object_01.png","target","html-button-response","1295","4360658","0.0-26.0-1.35","A2R75YFKVALBXE","39O6Z4JLY5DL2UNJ70JKB6RMCJRXVU","36AHBNMV1VSRU1B1BDAUDIOB7N7DYP"
"2796.8999999762","2","memory_backgrounds","stimuli/forest/forest_6.jpg","stimuli/object_07.png","stimuli/object_08.png","target","html-button-response","1297","4363959","0.0-26.0-1.36","A2R75YFKVALBXE","39O6Z4JLY5DL2UNJ70JKB6RMCJRXVU","36AHBNMV1VSRU1B1BDAUDIOB7N7DYP"
"1634","2","memory_backgrounds","stimuli/forest/forest_6.jpg","stimuli/object_09.png","stimuli/object_05.png","lure_but_seen","html-button-response","1299","4366099","0.0-26.0-1.37","A2R75YFKVALBXE","39O6Z4JLY5DL2UNJ70JKB6RMCJRXVU","36AHBNMV1VSRU1B1BDAUDIOB7N7DYP"
NULL,NULL,"memory_backgrounds","stimuli/library/library_4.jpg","stimuli/object_05.png","stimuli/object_09.png","target","html-button-response","1301","4371604","0.0-26.0-1.38","A2R75YFKVALBXE","39O6Z4JLY5DL2UNJ70JKB6RMCJRXVU","36AHBNMV1VSRU1B1BDAUDIOB7N7DYP"
"1420","2","memory_backgrounds","stimuli/desert/desert_6.jpg","stimuli/object_04.png","stimuli/object_02.png","lure","html-button-response","1303","4373531","0.0-26.0-1.39","A2R75YFKVALBXE","39O6Z4JLY5DL2UNJ70JKB6RMCJRXVU","36AHBNMV1VSRU1B1BDAUDIOB7N7DYP"
"1807.1999999881","2","memory_backgrounds","stimuli/restaurant/restaurant_8.jpg","stimuli/object_05.png","stimuli/object_09.png","lure_but_seen","html-button-response","1305","4375845","0.0-26.0-1.40","A2R75YFKVALBXE","39O6Z4JLY5DL2UNJ70JKB6RMCJRXVU","36AHBNMV1VSRU1B1BDAUDIOB7N7DYP"
"2207.1000000238","1","memory_backgrounds","stimuli/desert/desert_4.jpg","stimuli/object_05.png","stimuli/object_09.png","lure_but_seen","html-button-response","1307","4378555","0.0-26.0-1.41","A2R75YFKVALBXE","39O6Z4JLY5DL2UNJ70JKB6RMCJRXVU","36AHBNMV1VSRU1B1BDAUDIOB7N7DYP"
"1803.1000000238","2","memory_backgrounds","stimuli/library/library_2.jpg","stimuli/object_04.png","stimuli/object_02.png","lure_but_seen","html-button-response","1309","4380861","0.0-26.0-1.42","A2R75YFKVALBXE","39O6Z4JLY5DL2UNJ70JKB6RMCJRXVU","36AHBNMV1VSRU1B1BDAUDIOB7N7DYP"
"1021.5","2","memory_backgrounds","stimuli/restaurant/restaurant_7.jpg","stimuli/object_01.png","stimuli/object_03.png","lure","html-button-response","1311","4382390","0.0-26.0-1.43","A2R75YFKVALBXE","39O6Z4JLY5DL2UNJ70JKB6RMCJRXVU","36AHBNMV1VSRU1B1BDAUDIOB7N7DYP"
"2713.1000000015","0","memory_backgrounds","stimuli/library/library_1.jpg","stimuli/object_09.png","stimuli/object_10.png","target","html-button-response","1370","4995442","0.0-26.0-1.0","A1ROEDVMTO9Y3X","39O6Z4JLY5DL2UNJ70JKB6RMCJRXVU","30MVJZJNHQTPWM3LDX4PHZQX3YJJ9K"
"1264.8000000007","2","memory_backgrounds","stimuli/desert/desert_5.jpg","stimuli/object_06.png","stimuli/object_05.png","lure_but_seen","html-button-response","1372","4997209","0.0-26.0-1.1","A1ROEDVMTO9Y3X","39O6Z4JLY5DL2UNJ70JKB6RMCJRXVU","30MVJZJNHQTPWM3LDX4PHZQX3YJJ9K"
"2937.6000000015","0","memory_backgrounds","stimuli/library/library_4.jpg","stimuli/object_09.png","stimuli/object_10.png","lure","html-button-response","1374","5000649","0.0-26.0-1.2","A1ROEDVMTO9Y3X","39O6Z4JLY5DL2UNJ70JKB6RMCJRXVU","30MVJZJNHQTPWM3LDX4PHZQX3YJJ9K"
"3049.5999999978","3","memory_backgrounds","stimuli/restaurant/restaurant_1.jpg","stimuli/object_07.png","stimuli/object_04.png","lure","html-button-response","1376","5004202","0.0-26.0-1.3","A1ROEDVMTO9Y3X","39O6Z4JLY5DL2UNJ70JKB6RMCJRXVU","30MVJZJNHQTPWM3LDX4PHZQX3YJJ9K"
"1800.8999999985","0","memory_backgrounds","stimuli/desert/desert_8.jpg","stimuli/object_08.png","stimuli/object_03.png","target","html-button-response","1378","5006505","0.0-26.0-1.4","A1ROEDVMTO9Y3X","39O6Z4JLY5DL2UNJ70JKB6RMCJRXVU","30MVJZJNHQTPWM3LDX4PHZQX3YJJ9K"
"1329.5999999978","0","memory_backgrounds","stimuli/desert/desert_5.jpg","stimuli/object_08.png","stimuli/object_03.png","target","html-button-response","1380","5008337","0.0-26.0-1.5","A1ROEDVMTO9Y3X","39O6Z4JLY5DL2UNJ70JKB6RMCJRXVU","30MVJZJNHQTPWM3LDX4PHZQX3YJJ9K"
"2297.5","1","memory_backgrounds","stimuli/restaurant/restaurant_2.jpg","stimuli/object_08.png","stimuli/object_03.png","lure_but_seen","html-button-response","1382","5011139","0.0-26.0-1.6","A1ROEDVMTO9Y3X","39O6Z4JLY5DL2UNJ70JKB6RMCJRXVU","30MVJZJNHQTPWM3LDX4PHZQX3YJJ9K"
"2577.1000000015","3","memory_backgrounds","stimuli/library/library_8.jpg","stimuli/object_10.png","stimuli/object_09.png","lure","html-button-response","1384","5014219","0.0-26.0-1.7","A1ROEDVMTO9Y3X","39O6Z4JLY5DL2UNJ70JKB6RMCJRXVU","30MVJZJNHQTPWM3LDX4PHZQX3YJJ9K"
"1576.8000000007","2","memory_backgrounds","stimuli/restaurant/restaurant_7.jpg","stimuli/object_07.png","stimuli/object_04.png","target","html-button-response","1386","5016298","0.0-26.0-1.8","A1ROEDVMTO9Y3X","39O6Z4JLY5DL2UNJ70JKB6RMCJRXVU","30MVJZJNHQTPWM3LDX4PHZQX3YJJ9K"
"1576.3000000007","1","memory_backgrounds","stimuli/restaurant/restaurant_3.jpg","stimuli/object_07.png","stimuli/object_04.png","lure","html-button-response","1388","5018378","0.0-26.0-1.9","A1ROEDVMTO9Y3X","39O6Z4JLY5DL2UNJ70JKB6RMCJRXVU","30MVJZJNHQTPWM3LDX4PHZQX3YJJ9K"
"1810.3000000007","1","memory_backgrounds","stimuli/restaurant/restaurant_5.jpg","stimuli/object_07.png","stimuli/object_04.png","target","html-button-response","1390","5020690","0.0-26.0-1.10","A1ROEDVMTO9Y3X","39O6Z4JLY5DL2UNJ70JKB6RMCJRXVU","30MVJZJNHQTPWM3LDX4PHZQX3YJJ9K"
"2106.3999999985","2","memory_backgrounds","stimuli/desert/desert_7.jpg","stimuli/object_08.png","stimuli/object_03.png","lure","html-button-response","1392","5023298","0.0-26.0-1.11","A1ROEDVMTO9Y3X","39O6Z4JLY5DL2UNJ70JKB6RMCJRXVU","30MVJZJNHQTPWM3LDX4PHZQX3YJJ9K"
"1578.0999999978","0","memory_backgrounds","stimuli/desert/desert_3.jpg","stimuli/object_08.png","stimuli/object_03.png","lure","html-button-response","1394","5025378","0.0-26.0-1.12","A1ROEDVMTO9Y3X","39O6Z4JLY5DL2UNJ70JKB6RMCJRXVU","30MVJZJNHQTPWM3LDX4PHZQX3YJJ9K"
"2010.0999999978","3","memory_backgrounds","stimuli/forest/forest_5.jpg","stimuli/object_08.png","stimuli/object_03.png","lure_but_seen","html-button-response","1396","5027890","0.0-26.0-1.13","A1ROEDVMTO9Y3X","39O6Z4JLY5DL2UNJ70JKB6RMCJRXVU","30MVJZJNHQTPWM3LDX4PHZQX3YJJ9K"
"1689.5999999978","2","memory_backgrounds","stimuli/restaurant/restaurant_5.jpg","stimuli/object_06.png","stimuli/object_05.png","lure_but_seen","html-button-response","1398","5030082","0.0-26.0-1.14","A1ROEDVMTO9Y3X","39O6Z4JLY5DL2UNJ70JKB6RMCJRXVU","30MVJZJNHQTPWM3LDX4PHZQX3YJJ9K"
"1096.6000000015","1","memory_backgrounds","stimuli/forest/forest_6.jpg","stimuli/object_10.png","stimuli/object_09.png","lure_but_seen","html-button-response","1400","5031682","0.0-26.0-1.15","A1ROEDVMTO9Y3X","39O6Z4JLY5DL2UNJ70JKB6RMCJRXVU","30MVJZJNHQTPWM3LDX4PHZQX3YJJ9K"
"897.60000000149","1","memory_backgrounds","stimuli/library/library_7.jpg","stimuli/object_10.png","stimuli/object_09.png","target","html-button-response","1402","5033082","0.0-26.0-1.16","A1ROEDVMTO9Y3X","39O6Z4JLY5DL2UNJ70JKB6RMCJRXVU","30MVJZJNHQTPWM3LDX4PHZQX3YJJ9K"
"3034.1999999993","3","memory_backgrounds","stimuli/restaurant/restaurant_6.jpg","stimuli/object_04.png","stimuli/object_07.png","target","html-button-response","1404","5036618","0.0-26.0-1.17","A1ROEDVMTO9Y3X","39O6Z4JLY5DL2UNJ70JKB6RMCJRXVU","30MVJZJNHQTPWM3LDX4PHZQX3YJJ9K"
"1545.8999999985","0","memory_backgrounds","stimuli/library/library_3.jpg","stimuli/object_09.png","stimuli/object_10.png","target","html-button-response","1406","5038666","0.0-26.0-1.18","A1ROEDVMTO9Y3X","39O6Z4JLY5DL2UNJ70JKB6RMCJRXVU","30MVJZJNHQTPWM3LDX4PHZQX3YJJ9K"
"1505.5","1","memory_backgrounds","stimuli/forest/forest_2.jpg","stimuli/object_04.png","stimuli/object_07.png","lure_but_seen","html-button-response","1408","5040674","0.0-26.0-1.19","A1ROEDVMTO9Y3X","39O6Z4JLY5DL2UNJ70JKB6RMCJRXVU","30MVJZJNHQTPWM3LDX4PHZQX3YJJ9K"
"1473.8000000007","3","memory_backgrounds","stimuli/library/library_6.jpg","stimuli/object_10.png","stimuli/object_09.png","lure","html-button-response","1410","5042650","0.0-26.0-1.20","A1ROEDVMTO9Y3X","39O6Z4JLY5DL2UNJ70JKB6RMCJRXVU","30MVJZJNHQTPWM3LDX4PHZQX3YJJ9K"
"1354.0999999978","3","memory_backgrounds","stimuli/library/library_5.jpg","stimuli/object_03.png","stimuli/object_08.png","lure_but_seen","html-button-response","1412","5044506","0.0-26.0-1.21","A1ROEDVMTO9Y3X","39O6Z4JLY5DL2UNJ70JKB6RMCJRXVU","30MVJZJNHQTPWM3LDX4PHZQX3YJJ9K"
"992.5","2","memory_backgrounds","stimuli/forest/forest_7.jpg","stimuli/object_06.png","stimuli/object_05.png","target","html-button-response","1414","5046002","0.0-26.0-1.22","A1ROEDVMTO9Y3X","39O6Z4JLY5DL2UNJ70JKB6RMCJRXVU","30MVJZJNHQTPWM3LDX4PHZQX3YJJ9K"
"1434.1999999993","0","memory_backgrounds","stimuli/desert/desert_1.jpg","stimuli/object_09.png","stimuli/object_10.png","lure_but_seen","html-button-response","1416","5047938","0.0-26.0-1.23","A1ROEDVMTO9Y3X","39O6Z4JLY5DL2UNJ70JKB6RMCJRXVU","30MVJZJNHQTPWM3LDX4PHZQX3YJJ9K"
"1081.3000000007","1","memory_backgrounds","stimuli/library/library_7.jpg","stimuli/object_07.png","stimuli/object_04.png","lure_but_seen","html-button-response","1418","5049522","0.0-26.0-1.24","A1ROEDVMTO9Y3X","39O6Z4JLY5DL2UNJ70JKB6RMCJRXVU","30MVJZJNHQTPWM3LDX4PHZQX3YJJ9K"
"2521.6000000015","3","memory_backgrounds","stimuli/forest/forest_1.jpg","stimuli/object_05.png","stimuli/object_06.png","lure","html-button-response","1420","5052546","0.0-26.0-1.25","A1ROEDVMTO9Y3X","39O6Z4JLY5DL2UNJ70JKB6RMCJRXVU","30MVJZJNHQTPWM3LDX4PHZQX3YJJ9K"
"1545.299999997","1","memory_backgrounds","stimuli/restaurant/restaurant_6.jpg","stimuli/object_09.png","stimuli/object_10.png","lure_but_seen","html-button-response","1422","5054594","0.0-26.0-1.26","A1ROEDVMTO9Y3X","39O6Z4JLY5DL2UNJ70JKB6RMCJRXVU","30MVJZJNHQTPWM3LDX4PHZQX3YJJ9K"
"1505.9000000022","2","memory_backgrounds","stimuli/desert/desert_6.jpg","stimuli/object_03.png","stimuli/object_08.png","target","html-button-response","1424","5056602","0.0-26.0-1.27","A1ROEDVMTO9Y3X","39O6Z4JLY5DL2UNJ70JKB6RMCJRXVU","30MVJZJNHQTPWM3LDX4PHZQX3YJJ9K"
"1090.1999999993","1","memory_backgrounds","stimuli/forest/forest_2.jpg","stimuli/object_05.png","stimuli/object_06.png","target","html-button-response","1426","5058194","0.0-26.0-1.28","A1ROEDVMTO9Y3X","39O6Z4JLY5DL2UNJ70JKB6RMCJRXVU","30MVJZJNHQTPWM3LDX4PHZQX3YJJ9K"
"1905.6999999993","3","memory_backgrounds","stimuli/desert/desert_2.jpg","stimuli/object_03.png","stimuli/object_08.png","lure","html-button-response","1428","5060602","0.0-26.0-1.29","A1ROEDVMTO9Y3X","39O6Z4JLY5DL2UNJ70JKB6RMCJRXVU","30MVJZJNHQTPWM3LDX4PHZQX3YJJ9K"
"1737.3000000007","3","memory_backgrounds","stimuli/desert/desert_4.jpg","stimuli/object_03.png","stimuli/object_08.png","lure","html-button-response","1430","5062842","0.0-26.0-1.30","A1ROEDVMTO9Y3X","39O6Z4JLY5DL2UNJ70JKB6RMCJRXVU","30MVJZJNHQTPWM3LDX4PHZQX3YJJ9K"
"1137.1999999993","1","memory_backgrounds","stimuli/forest/forest_5.jpg","stimuli/object_05.png","stimuli/object_06.png","target","html-button-response","1432","5064482","0.0-26.0-1.31","A1ROEDVMTO9Y3X","39O6Z4JLY5DL2UNJ70JKB6RMCJRXVU","30MVJZJNHQTPWM3LDX4PHZQX3YJJ9K"
"1090.1000000015","1","memory_backgrounds","stimuli/forest/forest_4.jpg","stimuli/object_06.png","stimuli/object_05.png","lure","html-button-response","1434","5066074","0.0-26.0-1.32","A1ROEDVMTO9Y3X","39O6Z4JLY5DL2UNJ70JKB6RMCJRXVU","30MVJZJNHQTPWM3LDX4PHZQX3YJJ9K"
"1201.5","2","memory_backgrounds","stimuli/library/library_2.jpg","stimuli/object_09.png","stimuli/object_10.png","lure","html-button-response","1436","5067778","0.0-26.0-1.33","A1ROEDVMTO9Y3X","39O6Z4JLY5DL2UNJ70JKB6RMCJRXVU","30MVJZJNHQTPWM3LDX4PHZQX3YJJ9K"
"1441.1999999993","0","memory_backgrounds","stimuli/library/library_5.jpg","stimuli/object_10.png","stimuli/object_09.png","target","html-button-response","1438","5069722","0.0-26.0-1.34","A1ROEDVMTO9Y3X","39O6Z4JLY5DL2UNJ70JKB6RMCJRXVU","30MVJZJNHQTPWM3LDX4PHZQX3YJJ9K"
"1345.3999999985","1","memory_backgrounds","stimuli/restaurant/restaurant_4.jpg","stimuli/object_04.png","stimuli/object_07.png","lure","html-button-response","1440","5071570","0.0-26.0-1.35","A1ROEDVMTO9Y3X","39O6Z4JLY5DL2UNJ70JKB6RMCJRXVU","30MVJZJNHQTPWM3LDX4PHZQX3YJJ9K"
"1561.3999999985","3","memory_backgrounds","stimuli/forest/forest_8.jpg","stimuli/object_06.png","stimuli/object_05.png","lure","html-button-response","1442","5073634","0.0-26.0-1.36","A1ROEDVMTO9Y3X","39O6Z4JLY5DL2UNJ70JKB6RMCJRXVU","30MVJZJNHQTPWM3LDX4PHZQX3YJJ9K"
"1769.8999999985","2","memory_backgrounds","stimuli/restaurant/restaurant_2.jpg","stimuli/object_04.png","stimuli/object_07.png","target","html-button-response","1444","5075906","0.0-26.0-1.37","A1ROEDVMTO9Y3X","39O6Z4JLY5DL2UNJ70JKB6RMCJRXVU","30MVJZJNHQTPWM3LDX4PHZQX3YJJ9K"
"1601.200000003","1","memory_backgrounds","stimuli/desert/desert_8.jpg","stimuli/object_07.png","stimuli/object_04.png","lure_but_seen","html-button-response","1446","5078010","0.0-26.0-1.38","A1ROEDVMTO9Y3X","39O6Z4JLY5DL2UNJ70JKB6RMCJRXVU","30MVJZJNHQTPWM3LDX4PHZQX3YJJ9K"
"2153.799999997","0","memory_backgrounds","stimuli/forest/forest_3.jpg","stimuli/object_05.png","stimuli/object_06.png","lure","html-button-response","1448","5080666","0.0-26.0-1.39","A1ROEDVMTO9Y3X","39O6Z4JLY5DL2UNJ70JKB6RMCJRXVU","30MVJZJNHQTPWM3LDX4PHZQX3YJJ9K"
"768.89999999851","1","memory_backgrounds","stimuli/desert/desert_1.jpg","stimuli/object_03.png","stimuli/object_08.png","target","html-button-response","1450","5081938","0.0-26.0-1.40","A1ROEDVMTO9Y3X","39O6Z4JLY5DL2UNJ70JKB6RMCJRXVU","30MVJZJNHQTPWM3LDX4PHZQX3YJJ9K"
"697.19999999925","1","memory_backgrounds","stimuli/forest/forest_6.jpg","stimuli/object_06.png","stimuli/object_05.png","target","html-button-response","1452","5083138","0.0-26.0-1.41","A1ROEDVMTO9Y3X","39O6Z4JLY5DL2UNJ70JKB6RMCJRXVU","30MVJZJNHQTPWM3LDX4PHZQX3YJJ9K"
"3522.3999999985","0","memory_backgrounds","stimuli/restaurant/restaurant_8.jpg","stimuli/object_04.png","stimuli/object_07.png","lure","html-button-response","1454","5087162","0.0-26.0-1.42","A1ROEDVMTO9Y3X","39O6Z4JLY5DL2UNJ70JKB6RMCJRXVU","30MVJZJNHQTPWM3LDX4PHZQX3YJJ9K"
NULL,NULL,"memory_backgrounds","stimuli/library/library_1.jpg","stimuli/object_05.png","stimuli/object_06.png","lure_but_seen","html-button-response","1456","5092667","0.0-26.0-1.43","A1ROEDVMTO9Y3X","39O6Z4JLY5DL2UNJ70JKB6RMCJRXVU","30MVJZJNHQTPWM3LDX4PHZQX3YJJ9K"
"1804.9000000358","2","memory_backgrounds","stimuli/forest/forest_2.jpg","stimuli/object_01.png","stimuli/object_06.png","lure","html-button-response","1207","3370545","0.0-26.0-1.0","AYDILOZLKOAS8","39O6Z4JLY5DL2UNJ70JKB6RMCJRXVU","3IRIK4HM3E0F6PVH5YKRALM0ND2C6O"
"1576.4000000358","2","memory_backgrounds","stimuli/desert/desert_1.jpg","stimuli/object_04.png","stimuli/object_07.png","target","html-button-response","1209","3372624","0.0-26.0-1.1","AYDILOZLKOAS8","39O6Z4JLY5DL2UNJ70JKB6RMCJRXVU","3IRIK4HM3E0F6PVH5YKRALM0ND2C6O"
"1445","0","memory_backgrounds","stimuli/forest/forest_3.jpg","stimuli/object_01.png","stimuli/object_06.png","target","html-button-response","1211","3374572","0.0-26.0-1.2","AYDILOZLKOAS8","39O6Z4JLY5DL2UNJ70JKB6RMCJRXVU","3IRIK4HM3E0F6PVH5YKRALM0ND2C6O"
"1221.1999999881","0","memory_backgrounds","stimuli/library/library_2.jpg","stimuli/object_05.png","stimuli/object_02.png","target","html-button-response","1213","3376296","0.0-26.0-1.3","AYDILOZLKOAS8","39O6Z4JLY5DL2UNJ70JKB6RMCJRXVU","3IRIK4HM3E0F6PVH5YKRALM0ND2C6O"
"1617.6999999881","3","memory_backgrounds","stimuli/desert/desert_8.jpg","stimuli/object_04.png","stimuli/object_07.png","lure","html-button-response","1215","3378416","0.0-26.0-1.4","AYDILOZLKOAS8","39O6Z4JLY5DL2UNJ70JKB6RMCJRXVU","3IRIK4HM3E0F6PVH5YKRALM0ND2C6O"
"1383.3000000119","1","memory_backgrounds","stimuli/restaurant/restaurant_7.jpg","stimuli/object_03.png","stimuli/object_10.png","lure","html-button-response","1217","3380301","0.0-26.0-1.5","AYDILOZLKOAS8","39O6Z4JLY5DL2UNJ70JKB6RMCJRXVU","3IRIK4HM3E0F6PVH5YKRALM0ND2C6O"
"1553.5","1","memory_backgrounds","stimuli/library/library_5.jpg","stimuli/object_02.png","stimuli/object_05.png","target","html-button-response","1219","3382358","0.0-26.0-1.6","AYDILOZLKOAS8","39O6Z4JLY5DL2UNJ70JKB6RMCJRXVU","3IRIK4HM3E0F6PVH5YKRALM0ND2C6O"
"1230.3999999762","1","memory_backgrounds","stimuli/library/library_1.jpg","stimuli/object_05.png","stimuli/object_02.png","target","html-button-response","1221","3384089","0.0-26.0-1.7","AYDILOZLKOAS8","39O6Z4JLY5DL2UNJ70JKB6RMCJRXVU","3IRIK4HM3E0F6PVH5YKRALM0ND2C6O"
"1375.8999999762","2","memory_backgrounds","stimuli/desert/desert_1.jpg","stimuli/object_02.png","stimuli/object_05.png","lure_but_seen","html-button-response","1223","3385968","0.0-26.0-1.8","AYDILOZLKOAS8","39O6Z4JLY5DL2UNJ70JKB6RMCJRXVU","3IRIK4HM3E0F6PVH5YKRALM0ND2C6O"
"1431.1000000238","3","memory_backgrounds","stimuli/desert/desert_6.jpg","stimuli/object_07.png","stimuli/object_04.png","lure","html-button-response","1225","3387902","0.0-26.0-1.9","AYDILOZLKOAS8","39O6Z4JLY5DL2UNJ70JKB6RMCJRXVU","3IRIK4HM3E0F6PVH5YKRALM0ND2C6O"
"1104.3999999762","1","memory_backgrounds","stimuli/desert/desert_3.jpg","stimuli/object_10.png","stimuli/object_03.png","lure_but_seen","html-button-response","1227","3389508","0.0-26.0-1.10","AYDILOZLKOAS8","39O6Z4JLY5DL2UNJ70JKB6RMCJRXVU","3IRIK4HM3E0F6PVH5YKRALM0ND2C6O"
"1391.6000000238","0","memory_backgrounds","stimuli/restaurant/restaurant_5.jpg","stimuli/object_03.png","stimuli/object_10.png","target","html-button-response","1229","3391402","0.0-26.0-1.11","AYDILOZLKOAS8","39O6Z4JLY5DL2UNJ70JKB6RMCJRXVU","3IRIK4HM3E0F6PVH5YKRALM0ND2C6O"
"1113.6999999881","1","memory_backgrounds","stimuli/forest/forest_1.jpg","stimuli/object_01.png","stimuli/object_06.png","target","html-button-response","1231","3393017","0.0-26.0-1.12","AYDILOZLKOAS8","39O6Z4JLY5DL2UNJ70JKB6RMCJRXVU","3IRIK4HM3E0F6PVH5YKRALM0ND2C6O"
"919.89999997616","1","memory_backgrounds","stimuli/library/library_1.jpg","stimuli/object_04.png","stimuli/object_07.png","lure_but_seen","html-button-response","1233","3394438","0.0-26.0-1.13","AYDILOZLKOAS8","39O6Z4JLY5DL2UNJ70JKB6RMCJRXVU","3IRIK4HM3E0F6PVH5YKRALM0ND2C6O"
"1135.8000000119","2","memory_backgrounds","stimuli/desert/desert_5.jpg","stimuli/object_07.png","stimuli/object_04.png","target","html-button-response","1235","3396076","0.0-26.0-1.14","AYDILOZLKOAS8","39O6Z4JLY5DL2UNJ70JKB6RMCJRXVU","3IRIK4HM3E0F6PVH5YKRALM0ND2C6O"
"1181.6999999881","1","memory_backgrounds","stimuli/restaurant/restaurant_2.jpg","stimuli/object_10.png","stimuli/object_03.png","lure","html-button-response","1237","3397760","0.0-26.0-1.15","AYDILOZLKOAS8","39O6Z4JLY5DL2UNJ70JKB6RMCJRXVU","3IRIK4HM3E0F6PVH5YKRALM0ND2C6O"
"2043.5","2","memory_backgrounds","stimuli/forest/forest_6.jpg","stimuli/object_01.png","stimuli/object_06.png","lure","html-button-response","1239","3400306","0.0-26.0-1.16","AYDILOZLKOAS8","39O6Z4JLY5DL2UNJ70JKB6RMCJRXVU","3IRIK4HM3E0F6PVH5YKRALM0ND2C6O"
"1531.3999999762","2","memory_backgrounds","stimuli/forest/forest_7.jpg","stimuli/object_06.png","stimuli/object_01.png","lure","html-button-response","1241","3402340","0.0-26.0-1.17","AYDILOZLKOAS8","39O6Z4JLY5DL2UNJ70JKB6RMCJRXVU","3IRIK4HM3E0F6PVH5YKRALM0ND2C6O"
"1297.2999999523","0","memory_backgrounds","stimuli/restaurant/restaurant_4.jpg","stimuli/object_01.png","stimuli/object_06.png","lure_but_seen","html-button-response","1243","3404139","0.0-26.0-1.18","AYDILOZLKOAS8","39O6Z4JLY5DL2UNJ70JKB6RMCJRXVU","3IRIK4HM3E0F6PVH5YKRALM0ND2C6O"
"1073.3999999762","1","memory_backgrounds","stimuli/desert/desert_5.jpg","stimuli/object_01.png","stimuli/object_06.png","lure_but_seen","html-button-response","1245","3405715","0.0-26.0-1.19","AYDILOZLKOAS8","39O6Z4JLY5DL2UNJ70JKB6RMCJRXVU","3IRIK4HM3E0F6PVH5YKRALM0ND2C6O"
"1656.9000000358","2","memory_backgrounds","stimuli/forest/forest_5.jpg","stimuli/object_06.png","stimuli/object_01.png","target","html-button-response","1247","3407874","0.0-26.0-1.20","AYDILOZLKOAS8","39O6Z4JLY5DL2UNJ70JKB6RMCJRXVU","3IRIK4HM3E0F6PVH5YKRALM0ND2C6O"
"1036.0999999642","2","memory_backgrounds","stimuli/library/library_6.jpg","stimuli/object_05.png","stimuli/object_02.png","lure","html-button-response","1249","3409412","0.0-26.0-1.21","AYDILOZLKOAS8","39O6Z4JLY5DL2UNJ70JKB6RMCJRXVU","3IRIK4HM3E0F6PVH5YKRALM0ND2C6O"
"2391.5","2","memory_backgrounds","stimuli/library/library_2.jpg","stimuli/object_10.png","stimuli/object_03.png","lure_but_seen","html-button-response","1251","3412306","0.0-26.0-1.22","AYDILOZLKOAS8","39O6Z4JLY5DL2UNJ70JKB6RMCJRXVU","3IRIK4HM3E0F6PVH5YKRALM0ND2C6O"
"1638.8999999762","1","memory_backgrounds","stimuli/forest/forest_5.jpg","stimuli/object_03.png","stimuli/object_10.png","lure_but_seen","html-button-response","1253","3414447","0.0-26.0-1.23","AYDILOZLKOAS8","39O6Z4JLY5DL2UNJ70JKB6RMCJRXVU","3IRIK4HM3E0F6PVH5YKRALM0ND2C6O"
"1733.7000000477","1","memory_backgrounds","stimuli/forest/forest_1.jpg","stimuli/object_05.png","stimuli/object_02.png","lure_but_seen","html-button-response","1255","3416684","0.0-26.0-1.24","AYDILOZLKOAS8","39O6Z4JLY5DL2UNJ70JKB6RMCJRXVU","3IRIK4HM3E0F6PVH5YKRALM0ND2C6O"
"1478.1999999881","1","memory_backgrounds","stimuli/forest/forest_4.jpg","stimuli/object_07.png","stimuli/object_04.png","lure_but_seen","html-button-response","1257","3418663","0.0-26.0-1.25","AYDILOZLKOAS8","39O6Z4JLY5DL2UNJ70JKB6RMCJRXVU","3IRIK4HM3E0F6PVH5YKRALM0ND2C6O"
"1445.5999999642","2","memory_backgrounds","stimuli/restaurant/restaurant_1.jpg","stimuli/object_07.png","stimuli/object_04.png","lure_but_seen","html-button-response","1259","3420611","0.0-26.0-1.26","AYDILOZLKOAS8","39O6Z4JLY5DL2UNJ70JKB6RMCJRXVU","3IRIK4HM3E0F6PVH5YKRALM0ND2C6O"
"2023.7999999523","2","memory_backgrounds","stimuli/forest/forest_4.jpg","stimuli/object_06.png","stimuli/object_01.png","target","html-button-response","1261","3423137","0.0-26.0-1.27","AYDILOZLKOAS8","39O6Z4JLY5DL2UNJ70JKB6RMCJRXVU","3IRIK4HM3E0F6PVH5YKRALM0ND2C6O"
"1746.7000000477","0","memory_backgrounds","stimuli/desert/desert_3.jpg","stimuli/object_07.png","stimuli/object_04.png","target","html-button-response","1263","3425386","0.0-26.0-1.28","AYDILOZLKOAS8","39O6Z4JLY5DL2UNJ70JKB6RMCJRXVU","3IRIK4HM3E0F6PVH5YKRALM0ND2C6O"
"1259.5","2","memory_backgrounds","stimuli/desert/desert_2.jpg","stimuli/object_04.png","stimuli/object_07.png","lure","html-button-response","1265","3427147","0.0-26.0-1.29","AYDILOZLKOAS8","39O6Z4JLY5DL2UNJ70JKB6RMCJRXVU","3IRIK4HM3E0F6PVH5YKRALM0ND2C6O"
"1114.0999999642","1","memory_backgrounds","stimuli/library/library_8.jpg","stimuli/object_02.png","stimuli/object_05.png","target","html-button-response","1267","3428763","0.0-26.0-1.30","AYDILOZLKOAS8","39O6Z4JLY5DL2UNJ70JKB6RMCJRXVU","3IRIK4HM3E0F6PVH5YKRALM0ND2C6O"
"1470.3000000119","1","memory_backgrounds","stimuli/restaurant/restaurant_4.jpg","stimuli/object_10.png","stimuli/object_03.png","target","html-button-response","1269","3430736","0.0-26.0-1.31","AYDILOZLKOAS8","39O6Z4JLY5DL2UNJ70JKB6RMCJRXVU","3IRIK4HM3E0F6PVH5YKRALM0ND2C6O"
"1569.5","2","memory_backgrounds","stimuli/library/library_3.jpg","stimuli/object_02.png","stimuli/object_05.png","lure","html-button-response","1271","3432808","0.0-26.0-1.32","AYDILOZLKOAS8","39O6Z4JLY5DL2UNJ70JKB6RMCJRXVU","3IRIK4HM3E0F6PVH5YKRALM0ND2C6O"
"1188.8999999762","2","memory_backgrounds","stimuli/restaurant/restaurant_3.jpg","stimuli/object_10.png","stimuli/object_03.png","target","html-button-response","1273","3434500","0.0-26.0-1.33","AYDILOZLKOAS8","39O6Z4JLY5DL2UNJ70JKB6RMCJRXVU","3IRIK4HM3E0F6PVH5YKRALM0ND2C6O"
"957.19999998808","1","memory_backgrounds","stimuli/restaurant/restaurant_6.jpg","stimuli/object_03.png","stimuli/object_10.png","lure","html-button-response","1275","3435960","0.0-26.0-1.34","AYDILOZLKOAS8","39O6Z4JLY5DL2UNJ70JKB6RMCJRXVU","3IRIK4HM3E0F6PVH5YKRALM0ND2C6O"
"1437.7000000477","2","memory_backgrounds","stimuli/library/library_4.jpg","stimuli/object_02.png","stimuli/object_05.png","lure","html-button-response","1277","3437900","0.0-26.0-1.35","AYDILOZLKOAS8","39O6Z4JLY5DL2UNJ70JKB6RMCJRXVU","3IRIK4HM3E0F6PVH5YKRALM0ND2C6O"
"847.39999997616","1","memory_backgrounds","stimuli/restaurant/restaurant_8.jpg","stimuli/object_10.png","stimuli/object_03.png","lure","html-button-response","1279","3439249","0.0-26.0-1.36","AYDILOZLKOAS8","39O6Z4JLY5DL2UNJ70JKB6RMCJRXVU","3IRIK4HM3E0F6PVH5YKRALM0ND2C6O"
"1399.3999999762","2","memory_backgrounds","stimuli/library/library_7.jpg","stimuli/object_05.png","stimuli/object_02.png","lure","html-button-response","1281","3441152","0.0-26.0-1.37","AYDILOZLKOAS8","39O6Z4JLY5DL2UNJ70JKB6RMCJRXVU","3IRIK4HM3E0F6PVH5YKRALM0ND2C6O"
"933","1","memory_backgrounds","stimuli/library/library_5.jpg","stimuli/object_06.png","stimuli/object_01.png","lure_but_seen","html-button-response","1283","3442587","0.0-26.0-1.38","AYDILOZLKOAS8","39O6Z4JLY5DL2UNJ70JKB6RMCJRXVU","3IRIK4HM3E0F6PVH5YKRALM0ND2C6O"
"1206.1000000238","2","memory_backgrounds","stimuli/desert/desert_4.jpg","stimuli/object_07.png","stimuli/object_04.png","lure","html-button-response","1285","3444296","0.0-26.0-1.39","AYDILOZLKOAS8","39O6Z4JLY5DL2UNJ70JKB6RMCJRXVU","3IRIK4HM3E0F6PVH5YKRALM0ND2C6O"
"1345","1","memory_backgrounds","stimuli/desert/desert_7.jpg","stimuli/object_04.png","stimuli/object_07.png","target","html-button-response","1287","3446144","0.0-26.0-1.40","AYDILOZLKOAS8","39O6Z4JLY5DL2UNJ70JKB6RMCJRXVU","3IRIK4HM3E0F6PVH5YKRALM0ND2C6O"
"1074.5","2","memory_backgrounds","stimuli/forest/forest_8.jpg","stimuli/object_06.png","stimuli/object_01.png","lure","html-button-response","1289","3447720","0.0-26.0-1.41","AYDILOZLKOAS8","39O6Z4JLY5DL2UNJ70JKB6RMCJRXVU","3IRIK4HM3E0F6PVH5YKRALM0ND2C6O"
"879.19999998808","1","memory_backgrounds","stimuli/restaurant/restaurant_1.jpg","stimuli/object_03.png","stimuli/object_10.png","target","html-button-response","1291","3449101","0.0-26.0-1.42","AYDILOZLKOAS8","39O6Z4JLY5DL2UNJ70JKB6RMCJRXVU","3IRIK4HM3E0F6PVH5YKRALM0ND2C6O"
"1190.5999999642","0","memory_backgrounds","stimuli/restaurant/restaurant_5.jpg","stimuli/object_02.png","stimuli/object_05.png","lure_but_seen","html-button-response","1293","3450794","0.0-26.0-1.43","AYDILOZLKOAS8","39O6Z4JLY5DL2UNJ70JKB6RMCJRXVU","3IRIK4HM3E0F6PVH5YKRALM0ND2C6O"
"4036.4000000358","0","memory_backgrounds","stimuli/forest/forest_2.jpg","stimuli/object_03.png","stimuli/object_05.png","target","html-button-response","1221","3515627","0.0-26.0-1.0","A1T3ROSW2LC4FG","39O6Z4JLY5DL2UNJ70JKB6RMCJRXVU","3H7XDTSHKG7QHGQSY2TEY66S97NGW3"
"2979.4000000358","2","memory_backgrounds","stimuli/desert/desert_6.jpg","stimuli/object_06.png","stimuli/object_01.png","lure","html-button-response","1223","3519115","0.0-26.0-1.1","A1T3ROSW2LC4FG","39O6Z4JLY5DL2UNJ70JKB6RMCJRXVU","3H7XDTSHKG7QHGQSY2TEY66S97NGW3"
"2776","3","memory_backgrounds","stimuli/library/library_5.jpg","stimuli/object_03.png","stimuli/object_05.png","lure_but_seen","html-button-response","1225","3522395","0.0-26.0-1.2","A1T3ROSW2LC4FG","39O6Z4JLY5DL2UNJ70JKB6RMCJRXVU","3H7XDTSHKG7QHGQSY2TEY66S97NGW3"
"2257.3999999762","3","memory_backgrounds","stimuli/library/library_7.jpg","stimuli/object_10.png","stimuli/object_04.png","lure_but_seen","html-button-response","1227","3525162","0.0-26.0-1.3","A1T3ROSW2LC4FG","39O6Z4JLY5DL2UNJ70JKB6RMCJRXVU","3H7XDTSHKG7QHGQSY2TEY66S97NGW3"
"3134.5","0","memory_backgrounds","stimuli/forest/forest_3.jpg","stimuli/object_05.png","stimuli/object_03.png","target","html-button-response","1229","3528802","0.0-26.0-1.4","A1T3ROSW2LC4FG","39O6Z4JLY5DL2UNJ70JKB6RMCJRXVU","3H7XDTSHKG7QHGQSY2TEY66S97NGW3"
"1707.6000000238","0","memory_backgrounds","stimuli/library/library_6.jpg","stimuli/object_09.png","stimuli/object_08.png","target","html-button-response","1231","3531026","0.0-26.0-1.5","A1T3ROSW2LC4FG","39O6Z4JLY5DL2UNJ70JKB6RMCJRXVU","3H7XDTSHKG7QHGQSY2TEY66S97NGW3"
"1749.6000000238","0","memory_backgrounds","stimuli/forest/forest_8.jpg","stimuli/object_03.png","stimuli/object_05.png","target","html-button-response","1233","3533290","0.0-26.0-1.6","A1T3ROSW2LC4FG","39O6Z4JLY5DL2UNJ70JKB6RMCJRXVU","3H7XDTSHKG7QHGQSY2TEY66S97NGW3"
"1705.6999999881","0","memory_backgrounds","stimuli/desert/desert_5.jpg","stimuli/object_06.png","stimuli/object_01.png","target","html-button-response","1235","3535498","0.0-26.0-1.7","A1T3ROSW2LC4FG","39O6Z4JLY5DL2UNJ70JKB6RMCJRXVU","3H7XDTSHKG7QHGQSY2TEY66S97NGW3"
"3430.7000000477","3","memory_backgrounds","stimuli/restaurant/restaurant_7.jpg","stimuli/object_01.png","stimuli/object_06.png","lure_but_seen","html-button-response","1237","3539434","0.0-26.0-1.8","A1T3ROSW2LC4FG","39O6Z4JLY5DL2UNJ70JKB6RMCJRXVU","3H7XDTSHKG7QHGQSY2TEY66S97NGW3"
"3767.9000000358","3","memory_backgrounds","stimuli/library/library_1.jpg","stimuli/object_08.png","stimuli/object_09.png","lure","html-button-response","1239","3543706","0.0-26.0-1.9","A1T3ROSW2LC4FG","39O6Z4JLY5DL2UNJ70JKB6RMCJRXVU","3H7XDTSHKG7QHGQSY2TEY66S97NGW3"
"1983.0999999642","3","memory_backgrounds","stimuli/desert/desert_3.jpg","stimuli/object_01.png","stimuli/object_06.png","lure","html-button-response","1241","3546202","0.0-26.0-1.10","A1T3ROSW2LC4FG","39O6Z4JLY5DL2UNJ70JKB6RMCJRXVU","3H7XDTSHKG7QHGQSY2TEY66S97NGW3"
"1480.8999999762","3","memory_backgrounds","stimuli/desert/desert_8.jpg","stimuli/object_01.png","stimuli/object_06.png","target","html-button-response","1243","3548186","0.0-26.0-1.11","A1T3ROSW2LC4FG","39O6Z4JLY5DL2UNJ70JKB6RMCJRXVU","3H7XDTSHKG7QHGQSY2TEY66S97NGW3"
"1336","3","memory_backgrounds","stimuli/restaurant/restaurant_3.jpg","stimuli/object_10.png","stimuli/object_04.png","lure","html-button-response","1245","3550034","0.0-26.0-1.12","A1T3ROSW2LC4FG","39O6Z4JLY5DL2UNJ70JKB6RMCJRXVU","3H7XDTSHKG7QHGQSY2TEY66S97NGW3"
"1444.9000000358","3","memory_backgrounds","stimuli/desert/desert_1.jpg","stimuli/object_06.png","stimuli/object_01.png","lure","html-button-response","1247","3551994","0.0-26.0-1.13","A1T3ROSW2LC4FG","39O6Z4JLY5DL2UNJ70JKB6RMCJRXVU","3H7XDTSHKG7QHGQSY2TEY66S97NGW3"
"2305.6999999881","2","memory_backgrounds","stimuli/desert/desert_8.jpg","stimuli/object_10.png","stimuli/object_04.png","lure_but_seen","html-button-response","1249","3554818","0.0-26.0-1.14","A1T3ROSW2LC4FG","39O6Z4JLY5DL2UNJ70JKB6RMCJRXVU","3H7XDTSHKG7QHGQSY2TEY66S97NGW3"
"4545.1999999881","0","memory_backgrounds","stimuli/restaurant/restaurant_2.jpg","stimuli/object_05.png","stimuli/object_03.png","lure_but_seen","html-button-response","1251","3559866","0.0-26.0-1.15","A1T3ROSW2LC4FG","39O6Z4JLY5DL2UNJ70JKB6RMCJRXVU","3H7XDTSHKG7QHGQSY2TEY66S97NGW3"
"1985.6999999881","0","memory_backgrounds","stimuli/desert/desert_2.jpg","stimuli/object_09.png","stimuli/object_08.png","lure_but_seen","html-button-response","1253","3562362","0.0-26.0-1.16","A1T3ROSW2LC4FG","39O6Z4JLY5DL2UNJ70JKB6RMCJRXVU","3H7XDTSHKG7QHGQSY2TEY66S97NGW3"
"3778.8999999762","3","memory_backgrounds","stimuli/restaurant/restaurant_6.jpg","stimuli/object_04.png","stimuli/object_10.png","lure","html-button-response","1255","3566658","0.0-26.0-1.17","A1T3ROSW2LC4FG","39O6Z4JLY5DL2UNJ70JKB6RMCJRXVU","3H7XDTSHKG7QHGQSY2TEY66S97NGW3"
"1240","3","memory_backgrounds","stimuli/restaurant/restaurant_5.jpg","stimuli/object_10.png","stimuli/object_04.png","lure","html-button-response","1257","3568402","0.0-26.0-1.18","A1T3ROSW2LC4FG","39O6Z4JLY5DL2UNJ70JKB6RMCJRXVU","3H7XDTSHKG7QHGQSY2TEY66S97NGW3"
"1979.5999999642","2","memory_backgrounds","stimuli/desert/desert_2.jpg","stimuli/object_06.png","stimuli/object_01.png","target","html-button-response","1259","3570898","0.0-26.0-1.19","A1T3ROSW2LC4FG","39O6Z4JLY5DL2UNJ70JKB6RMCJRXVU","3H7XDTSHKG7QHGQSY2TEY66S97NGW3"
"2862.8000000119","1","memory_backgrounds","stimuli/library/library_5.jpg","stimuli/object_09.png","stimuli/object_08.png","target","html-button-response","1261","3574274","0.0-26.0-1.20","A1T3ROSW2LC4FG","39O6Z4JLY5DL2UNJ70JKB6RMCJRXVU","3H7XDTSHKG7QHGQSY2TEY66S97NGW3"
"2049.5","1","memory_backgrounds","stimuli/forest/forest_6.jpg","stimuli/object_05.png","stimuli/object_03.png","target","html-button-response","1263","3576826","0.0-26.0-1.21","A1T3ROSW2LC4FG","39O6Z4JLY5DL2UNJ70JKB6RMCJRXVU","3H7XDTSHKG7QHGQSY2TEY66S97NGW3"
"2512.6999999881","3","memory_backgrounds","stimuli/forest/forest_2.jpg","stimuli/object_04.png","stimuli/object_10.png","lure_but_seen","html-button-response","1265","3579858","0.0-26.0-1.22","A1T3ROSW2LC4FG","39O6Z4JLY5DL2UNJ70JKB6RMCJRXVU","3H7XDTSHKG7QHGQSY2TEY66S97NGW3"
"2209.6999999881","0","memory_backgrounds","stimuli/restaurant/restaurant_1.jpg","stimuli/object_10.png","stimuli/object_04.png","target","html-button-response","1267","3582577","0.0-26.0-1.23","A1T3ROSW2LC4FG","39O6Z4JLY5DL2UNJ70JKB6RMCJRXVU","3H7XDTSHKG7QHGQSY2TEY66S97NGW3"
NULL,NULL,"memory_backgrounds","stimuli/restaurant/restaurant_8.jpg","stimuli/object_09.png","stimuli/object_08.png","lure_but_seen","html-button-response","1269","3588082","0.0-26.0-1.24","A1T3ROSW2LC4FG","39O6Z4JLY5DL2UNJ70JKB6RMCJRXVU","3H7XDTSHKG7QHGQSY2TEY66S97NGW3"
"975.69999998808","3","memory_backgrounds","stimuli/restaurant/restaurant_7.jpg","stimuli/object_04.png","stimuli/object_10.png","target","html-button-response","1271","3589562","0.0-26.0-1.25","A1T3ROSW2LC4FG","39O6Z4JLY5DL2UNJ70JKB6RMCJRXVU","3H7XDTSHKG7QHGQSY2TEY66S97NGW3"
"2620.8000000119","3","memory_backgrounds","stimuli/forest/forest_4.jpg","stimuli/object_03.png","stimuli/object_05.png","lure","html-button-response","1273","3592698","0.0-26.0-1.26","A1T3ROSW2LC4FG","39O6Z4JLY5DL2UNJ70JKB6RMCJRXVU","3H7XDTSHKG7QHGQSY2TEY66S97NGW3"
"1751.2999999523","3","memory_backgrounds","stimuli/desert/desert_4.jpg","stimuli/object_05.png","stimuli/object_03.png","lure_but_seen","html-button-response","1275","3594953","0.0-26.0-1.27","A1T3ROSW2LC4FG","39O6Z4JLY5DL2UNJ70JKB6RMCJRXVU","3H7XDTSHKG7QHGQSY2TEY66S97NGW3"
"2330.5","3","memory_backgrounds","stimuli/desert/desert_4.jpg","stimuli/object_01.png","stimuli/object_06.png","target","html-button-response","1277","3597801","0.0-26.0-1.28","A1T3ROSW2LC4FG","39O6Z4JLY5DL2UNJ70JKB6RMCJRXVU","3H7XDTSHKG7QHGQSY2TEY66S97NGW3"
"2864.5999999642","0","memory_backgrounds","stimuli/library/library_7.jpg","stimuli/object_08.png","stimuli/object_09.png","target","html-button-response","1279","3601177","0.0-26.0-1.29","A1T3ROSW2LC4FG","39O6Z4JLY5DL2UNJ70JKB6RMCJRXVU","3H7XDTSHKG7QHGQSY2TEY66S97NGW3"
"1992.1999999881","3","memory_backgrounds","stimuli/desert/desert_7.jpg","stimuli/object_01.png","stimuli/object_06.png","lure","html-button-response","1281","3603674","0.0-26.0-1.30","A1T3ROSW2LC4FG","39O6Z4JLY5DL2UNJ70JKB6RMCJRXVU","3H7XDTSHKG7QHGQSY2TEY66S97NGW3"
"2623.0999999642","0","memory_backgrounds","stimuli/library/library_8.jpg","stimuli/object_08.png","stimuli/object_09.png","target","html-button-response","1283","3606809","0.0-26.0-1.31","A1T3ROSW2LC4FG","39O6Z4JLY5DL2UNJ70JKB6RMCJRXVU","3H7XDTSHKG7QHGQSY2TEY66S97NGW3"
"2688.6999999881","0","memory_backgrounds","stimuli/library/library_3.jpg","stimuli/object_09.png","stimuli/object_08.png","lure","html-button-response","1285","3610001","0.0-26.0-1.32","A1T3ROSW2LC4FG","39O6Z4JLY5DL2UNJ70JKB6RMCJRXVU","3H7XDTSHKG7QHGQSY2TEY66S97NGW3"
"1616.6000000238","0","memory_backgrounds","stimuli/forest/forest_5.jpg","stimuli/object_05.png","stimuli/object_03.png","lure","html-button-response","1287","3612122","0.0-26.0-1.33","A1T3ROSW2LC4FG","39O6Z4JLY5DL2UNJ70JKB6RMCJRXVU","3H7XDTSHKG7QHGQSY2TEY66S97NGW3"
"2059.1000000238","2","memory_backgrounds","stimuli/library/library_4.jpg","stimuli/object_09.png","stimuli/object_08.png","lure","html-button-response","1289","3614697","0.0-26.0-1.34","A1T3ROSW2LC4FG","39O6Z4JLY5DL2UNJ70JKB6RMCJRXVU","3H7XDTSHKG7QHGQSY2TEY66S97NGW3"
"4414.6999999881","3","memory_backgrounds","stimuli/restaurant/restaurant_4.jpg","stimuli/object_04.png","stimuli/object_10.png","lure","html-button-response","1291","3619617","0.0-26.0-1.35","A1T3ROSW2LC4FG","39O6Z4JLY5DL2UNJ70JKB6RMCJRXVU","3H7XDTSHKG7QHGQSY2TEY66S97NGW3"
"1671.1000000238","3","memory_backgrounds","stimuli/library/library_2.jpg","stimuli/object_08.png","stimuli/object_09.png","lure","html-button-response","1293","3621793","0.0-26.0-1.36","A1T3ROSW2LC4FG","39O6Z4JLY5DL2UNJ70JKB6RMCJRXVU","3H7XDTSHKG7QHGQSY2TEY66S97NGW3"
"2383","3","memory_backgrounds","stimuli/forest/forest_8.jpg","stimuli/object_01.png","stimuli/object_06.png","lure_but_seen","html-button-response","1295","3624690","0.0-26.0-1.37","A1T3ROSW2LC4FG","39O6Z4JLY5DL2UNJ70JKB6RMCJRXVU","3H7XDTSHKG7QHGQSY2TEY66S97NGW3"
"1360.2000000477","3","memory_backgrounds","stimuli/library/library_8.jpg","stimuli/object_06.png","stimuli/object_01.png","lure_but_seen","html-button-response","1297","3626554","0.0-26.0-1.38","A1T3ROSW2LC4FG","39O6Z4JLY5DL2UNJ70JKB6RMCJRXVU","3H7XDTSHKG7QHGQSY2TEY66S97NGW3"
"2473.5999999642","1","memory_backgrounds","stimuli/forest/forest_7.jpg","stimuli/object_03.png","stimuli/object_05.png","lure","html-button-response","1299","3629530","0.0-26.0-1.39","A1T3ROSW2LC4FG","39O6Z4JLY5DL2UNJ70JKB6RMCJRXVU","3H7XDTSHKG7QHGQSY2TEY66S97NGW3"
"2341","0","memory_backgrounds","stimuli/restaurant/restaurant_2.jpg","stimuli/object_10.png","stimuli/object_04.png","target","html-button-response","1301","3632385","0.0-26.0-1.40","A1T3ROSW2LC4FG","39O6Z4JLY5DL2UNJ70JKB6RMCJRXVU","3H7XDTSHKG7QHGQSY2TEY66S97NGW3"
"1801.7000000477","3","memory_backgrounds","stimuli/forest/forest_1.jpg","stimuli/object_05.png","stimuli/object_03.png","lure","html-button-response","1303","3634690","0.0-26.0-1.41","A1T3ROSW2LC4FG","39O6Z4JLY5DL2UNJ70JKB6RMCJRXVU","3H7XDTSHKG7QHGQSY2TEY66S97NGW3"
"2022.1999999881","1","memory_backgrounds","stimuli/restaurant/restaurant_8.jpg","stimuli/object_04.png","stimuli/object_10.png","target","html-button-response","1305","3637225","0.0-26.0-1.42","A1T3ROSW2LC4FG","39O6Z4JLY5DL2UNJ70JKB6RMCJRXVU","3H7XDTSHKG7QHGQSY2TEY66S97NGW3"
"1934.6999999881","1","memory_backgrounds","stimuli/forest/forest_6.jpg","stimuli/object_08.png","stimuli/object_09.png","lure_but_seen","html-button-response","1307","3639673","0.0-26.0-1.43","A1T3ROSW2LC4FG","39O6Z4JLY5DL2UNJ70JKB6RMCJRXVU","3H7XDTSHKG7QHGQSY2TEY66S97NGW3"
"4357.8650000272","2","memory_backgrounds","stimuli/library/library_5.jpg","stimuli/object_05.png","stimuli/object_10.png","lure","html-button-response","1202","3889294","0.0-26.0-1.0","A3EA4SHCLJ1UZQ","39O6Z4JLY5DL2UNJ70JKB6RMCJRXVU","3Q8GYXHFETIJNLV30FAMIF80RIRC58"
"2101.3000000385","2","memory_backgrounds","stimuli/desert/desert_6.jpg","stimuli/object_08.png","stimuli/object_09.png","target","html-button-response","1204","3891902","0.0-26.0-1.1","A3EA4SHCLJ1UZQ","39O6Z4JLY5DL2UNJ70JKB6RMCJRXVU","3Q8GYXHFETIJNLV30FAMIF80RIRC58"
"1521.6499999515","1","memory_backgrounds","stimuli/library/library_6.jpg","stimuli/object_05.png","stimuli/object_10.png","target","html-button-response","1206","3893930","0.0-26.0-1.2","A3EA4SHCLJ1UZQ","39O6Z4JLY5DL2UNJ70JKB6RMCJRXVU","3Q8GYXHFETIJNLV30FAMIF80RIRC58"
"2245.1700000092","1","memory_backgrounds","stimuli/forest/forest_7.jpg","stimuli/object_06.png","stimuli/object_02.png","target","html-button-response","1208","3896680","0.0-26.0-1.3","A3EA4SHCLJ1UZQ","39O6Z4JLY5DL2UNJ70JKB6RMCJRXVU","3Q8GYXHFETIJNLV30FAMIF80RIRC58"
"1756.5700000268","2","memory_backgrounds","stimuli/library/library_2.jpg","stimuli/object_10.png","stimuli/object_05.png","lure","html-button-response","1210","3898943","0.0-26.0-1.4","A3EA4SHCLJ1UZQ","39O6Z4JLY5DL2UNJ70JKB6RMCJRXVU","3Q8GYXHFETIJNLV30FAMIF80RIRC58"
"1420.7349999924","3","memory_backgrounds","stimuli/desert/desert_1.jpg","stimuli/object_04.png","stimuli/object_01.png","lure_but_seen","html-button-response","1212","3900870","0.0-26.0-1.5","A3EA4SHCLJ1UZQ","39O6Z4JLY5DL2UNJ70JKB6RMCJRXVU","3Q8GYXHFETIJNLV30FAMIF80RIRC58"
"4445.6099999952","2","memory_backgrounds","stimuli/restaurant/restaurant_8.jpg","stimuli/object_09.png","stimuli/object_08.png","lure_but_seen","html-button-response","1214","3905820","0.0-26.0-1.6","A3EA4SHCLJ1UZQ","39O6Z4JLY5DL2UNJ70JKB6RMCJRXVU","3Q8GYXHFETIJNLV30FAMIF80RIRC58"
"1400.1400000416","1","memory_backgrounds","stimuli/forest/forest_3.jpg","stimuli/object_06.png","stimuli/object_02.png","lure","html-button-response","1216","3907724","0.0-26.0-1.7","A3EA4SHCLJ1UZQ","39O6Z4JLY5DL2UNJ70JKB6RMCJRXVU","3Q8GYXHFETIJNLV30FAMIF80RIRC58"
"1386.5249999799","2","memory_backgrounds","stimuli/restaurant/restaurant_5.jpg","stimuli/object_01.png","stimuli/object_04.png","lure","html-button-response","1218","3909615","0.0-26.0-1.8","A3EA4SHCLJ1UZQ","39O6Z4JLY5DL2UNJ70JKB6RMCJRXVU","3Q8GYXHFETIJNLV30FAMIF80RIRC58"
"1933.8049999787","0","memory_backgrounds","stimuli/restaurant/restaurant_4.jpg","stimuli/object_01.png","stimuli/object_04.png","target","html-button-response","1220","3912053","0.0-26.0-1.9","A3EA4SHCLJ1UZQ","39O6Z4JLY5DL2UNJ70JKB6RMCJRXVU","3Q8GYXHFETIJNLV30FAMIF80RIRC58"
"1078.0800000066","1","memory_backgrounds","stimuli/library/library_4.jpg","stimuli/object_10.png","stimuli/object_05.png","target","html-button-response","1222","3913638","0.0-26.0-1.10","A3EA4SHCLJ1UZQ","39O6Z4JLY5DL2UNJ70JKB6RMCJRXVU","3Q8GYXHFETIJNLV30FAMIF80RIRC58"
"1476.1500000022","0","memory_backgrounds","stimuli/library/library_7.jpg","stimuli/object_02.png","stimuli/object_06.png","lure_but_seen","html-button-response","1224","3915620","0.0-26.0-1.11","A3EA4SHCLJ1UZQ","39O6Z4JLY5DL2UNJ70JKB6RMCJRXVU","3Q8GYXHFETIJNLV30FAMIF80RIRC58"
"1211.7750000325","1","memory_backgrounds","stimuli/forest/forest_6.jpg","stimuli/object_02.png","stimuli/object_06.png","lure","html-button-response","1226","3917336","0.0-26.0-1.12","A3EA4SHCLJ1UZQ","39O6Z4JLY5DL2UNJ70JKB6RMCJRXVU","3Q8GYXHFETIJNLV30FAMIF80RIRC58"
"1641.8599999743","3","memory_backgrounds","stimuli/forest/forest_1.jpg","stimuli/object_02.png","stimuli/object_06.png","lure","html-button-response","1228","3919484","0.0-26.0-1.13","A3EA4SHCLJ1UZQ","39O6Z4JLY5DL2UNJ70JKB6RMCJRXVU","3Q8GYXHFETIJNLV30FAMIF80RIRC58"
"1236.2799999537","3","memory_backgrounds","stimuli/restaurant/restaurant_6.jpg","stimuli/object_01.png","stimuli/object_04.png","lure","html-button-response","1230","3921226","0.0-26.0-1.14","A3EA4SHCLJ1UZQ","39O6Z4JLY5DL2UNJ70JKB6RMCJRXVU","3Q8GYXHFETIJNLV30FAMIF80RIRC58"
"1057.4699999997","3","memory_backgrounds","stimuli/desert/desert_3.jpg","stimuli/object_08.png","stimuli/object_09.png","lure","html-button-response","1232","3922790","0.0-26.0-1.15","A3EA4SHCLJ1UZQ","39O6Z4JLY5DL2UNJ70JKB6RMCJRXVU","3Q8GYXHFETIJNLV30FAMIF80RIRC58"
"1397.5300000166","0","memory_backgrounds","stimuli/library/library_7.jpg","stimuli/object_05.png","stimuli/object_10.png","target","html-button-response","1234","3924692","0.0-26.0-1.16","A3EA4SHCLJ1UZQ","39O6Z4JLY5DL2UNJ70JKB6RMCJRXVU","3Q8GYXHFETIJNLV30FAMIF80RIRC58"
"1863.2950000465","0","memory_backgrounds","stimuli/restaurant/restaurant_1.jpg","stimuli/object_04.png","stimuli/object_01.png","target","html-button-response","1236","3927062","0.0-26.0-1.17","A3EA4SHCLJ1UZQ","39O6Z4JLY5DL2UNJ70JKB6RMCJRXVU","3Q8GYXHFETIJNLV30FAMIF80RIRC58"
"1313.5950000142","0","memory_backgrounds","stimuli/desert/desert_7.jpg","stimuli/object_06.png","stimuli/object_02.png","lure_but_seen","html-button-response","1238","3928882","0.0-26.0-1.18","A3EA4SHCLJ1UZQ","39O6Z4JLY5DL2UNJ70JKB6RMCJRXVU","3Q8GYXHFETIJNLV30FAMIF80RIRC58"
"1926.0099999956","2","memory_backgrounds","stimuli/library/library_3.jpg","stimuli/object_10.png","stimuli/object_05.png","target","html-button-response","1240","3931311","0.0-26.0-1.19","A3EA4SHCLJ1UZQ","39O6Z4JLY5DL2UNJ70JKB6RMCJRXVU","3Q8GYXHFETIJNLV30FAMIF80RIRC58"
"1422.8550000116","0","memory_backgrounds","stimuli/restaurant/restaurant_3.jpg","stimuli/object_04.png","stimuli/object_01.png","target","html-button-response","1242","3933237","0.0-26.0-1.20","A3EA4SHCLJ1UZQ","39O6Z4JLY5DL2UNJ70JKB6RMCJRXVU","3Q8GYXHFETIJNLV30FAMIF80RIRC58"
"1115.449999983","2","memory_backgrounds","stimuli/library/library_3.jpg","stimuli/object_08.png","stimuli/object_09.png","lure_but_seen","html-button-response","1244","3934855","0.0-26.0-1.21","A3EA4SHCLJ1UZQ","39O6Z4JLY5DL2UNJ70JKB6RMCJRXVU","3Q8GYXHFETIJNLV30FAMIF80RIRC58"
"1428.3549999818","3","memory_backgrounds","stimuli/desert/desert_5.jpg","stimuli/object_09.png","stimuli/object_08.png","lure","html-button-response","1246","3936788","0.0-26.0-1.22","A3EA4SHCLJ1UZQ","39O6Z4JLY5DL2UNJ70JKB6RMCJRXVU","3Q8GYXHFETIJNLV30FAMIF80RIRC58"
"1066.7249999824","3","memory_backgrounds","stimuli/forest/forest_2.jpg","stimuli/object_06.png","stimuli/object_02.png","target","html-button-response","1248","3938359","0.0-26.0-1.23","A3EA4SHCLJ1UZQ","39O6Z4JLY5DL2UNJ70JKB6RMCJRXVU","3Q8GYXHFETIJNLV30FAMIF80RIRC58"
"1398.9799999981","3","memory_backgrounds","stimuli/desert/desert_1.jpg","stimuli/object_09.png","stimuli/object_08.png","target","html-button-response","1250","3940262","0.0-26.0-1.24","A3EA4SHCLJ1UZQ","39O6Z4JLY5DL2UNJ70JKB6RMCJRXVU","3Q8GYXHFETIJNLV30FAMIF80RIRC58"
"1834.530000051","1","memory_backgrounds","stimuli/restaurant/restaurant_7.jpg","stimuli/object_04.png","stimuli/object_01.png","lure","html-button-response","1252","3942604","0.0-26.0-1.25","A3EA4SHCLJ1UZQ","39O6Z4JLY5DL2UNJ70JKB6RMCJRXVU","3Q8GYXHFETIJNLV30FAMIF80RIRC58"
"2187.4149999931","1","memory_backgrounds","stimuli/forest/forest_4.jpg","stimuli/object_02.png","stimuli/object_06.png","target","html-button-response","1254","3945294","0.0-26.0-1.26","A3EA4SHCLJ1UZQ","39O6Z4JLY5DL2UNJ70JKB6RMCJRXVU","3Q8GYXHFETIJNLV30FAMIF80RIRC58"
"1154.3250000104","1","memory_backgrounds","stimuli/restaurant/restaurant_8.jpg","stimuli/object_01.png","stimuli/object_04.png","target","html-button-response","1256","3946954","0.0-26.0-1.27","A3EA4SHCLJ1UZQ","39O6Z4JLY5DL2UNJ70JKB6RMCJRXVU","3Q8GYXHFETIJNLV30FAMIF80RIRC58"
"946.72499998705","1","memory_backgrounds","stimuli/restaurant/restaurant_2.jpg","stimuli/object_04.png","stimuli/object_01.png","lure","html-button-response","1258","3948405","0.0-26.0-1.28","A3EA4SHCLJ1UZQ","39O6Z4JLY5DL2UNJ70JKB6RMCJRXVU","3Q8GYXHFETIJNLV30FAMIF80RIRC58"
"1404.3800000218","2","memory_backgrounds","stimuli/library/library_8.jpg","stimuli/object_10.png","stimuli/object_05.png","lure","html-button-response","1260","3950314","0.0-26.0-1.29","A3EA4SHCLJ1UZQ","39O6Z4JLY5DL2UNJ70JKB6RMCJRXVU","3Q8GYXHFETIJNLV30FAMIF80RIRC58"
"1386.4250000333","2","memory_backgrounds","stimuli/desert/desert_6.jpg","stimuli/object_05.png","stimuli/object_10.png","lure_but_seen","html-button-response","1262","3952206","0.0-26.0-1.30","A3EA4SHCLJ1UZQ","39O6Z4JLY5DL2UNJ70JKB6RMCJRXVU","3Q8GYXHFETIJNLV30FAMIF80RIRC58"
"1060.9800000093","1","memory_backgrounds","stimuli/desert/desert_8.jpg","stimuli/object_09.png","stimuli/object_08.png","lure","html-button-response","1264","3953770","0.0-26.0-1.31","A3EA4SHCLJ1UZQ","39O6Z4JLY5DL2UNJ70JKB6RMCJRXVU","3Q8GYXHFETIJNLV30FAMIF80RIRC58"
"1835.4349999572","3","memory_backgrounds","stimuli/forest/forest_8.jpg","stimuli/object_09.png","stimuli/object_08.png","lure_but_seen","html-button-response","1266","3956110","0.0-26.0-1.32","A3EA4SHCLJ1UZQ","39O6Z4JLY5DL2UNJ70JKB6RMCJRXVU","3Q8GYXHFETIJNLV30FAMIF80RIRC58"
"1537.7800000133","3","memory_backgrounds","stimuli/library/library_1.jpg","stimuli/object_05.png","stimuli/object_10.png","lure","html-button-response","1268","3958155","0.0-26.0-1.33","A3EA4SHCLJ1UZQ","39O6Z4JLY5DL2UNJ70JKB6RMCJRXVU","3Q8GYXHFETIJNLV30FAMIF80RIRC58"
"2880.0150000025","1","memory_backgrounds","stimuli/library/library_4.jpg","stimuli/object_04.png","stimuli/object_01.png","lure_but_seen","html-button-response","1270","3961538","0.0-26.0-1.34","A3EA4SHCLJ1UZQ","39O6Z4JLY5DL2UNJ70JKB6RMCJRXVU","3Q8GYXHFETIJNLV30FAMIF80RIRC58"
"1367.4149999861","2","memory_backgrounds","stimuli/desert/desert_7.jpg","stimuli/object_09.png","stimuli/object_08.png","target","html-button-response","1272","3963408","0.0-26.0-1.35","A3EA4SHCLJ1UZQ","39O6Z4JLY5DL2UNJ70JKB6RMCJRXVU","3Q8GYXHFETIJNLV30FAMIF80RIRC58"
"1315.4849999701","1","memory_backgrounds","stimuli/forest/forest_8.jpg","stimuli/object_02.png","stimuli/object_06.png","target","html-button-response","1274","3965227","0.0-26.0-1.36","A3EA4SHCLJ1UZQ","39O6Z4JLY5DL2UNJ70JKB6RMCJRXVU","3Q8GYXHFETIJNLV30FAMIF80RIRC58"
"899.21000000322","2","memory_backgrounds","stimuli/desert/desert_4.jpg","stimuli/object_08.png","stimuli/object_09.png","target","html-button-response","1276","3966632","0.0-26.0-1.37","A3EA4SHCLJ1UZQ","39O6Z4JLY5DL2UNJ70JKB6RMCJRXVU","3Q8GYXHFETIJNLV30FAMIF80RIRC58"
"1148.9149999688","2","memory_backgrounds","stimuli/restaurant/restaurant_4.jpg","stimuli/object_05.png","stimuli/object_10.png","lure_but_seen","html-button-response","1278","3968284","0.0-26.0-1.38","A3EA4SHCLJ1UZQ","39O6Z4JLY5DL2UNJ70JKB6RMCJRXVU","3Q8GYXHFETIJNLV30FAMIF80RIRC58"
"465.96000000136","2","memory_backgrounds","stimuli/restaurant/restaurant_1.jpg","stimuli/object_06.png","stimuli/object_02.png","lure_but_seen","html-button-response","1280","3969254","0.0-26.0-1.39","A3EA4SHCLJ1UZQ","39O6Z4JLY5DL2UNJ70JKB6RMCJRXVU","3Q8GYXHFETIJNLV30FAMIF80RIRC58"
"922.84500005189","2","memory_backgrounds","stimuli/desert/desert_2.jpg","stimuli/object_08.png","stimuli/object_09.png","lure","html-button-response","1282","3970682","0.0-26.0-1.40","A3EA4SHCLJ1UZQ","39O6Z4JLY5DL2UNJ70JKB6RMCJRXVU","3Q8GYXHFETIJNLV30FAMIF80RIRC58"
"979.80999998981","2","memory_backgrounds","stimuli/forest/forest_7.jpg","stimuli/object_10.png","stimuli/object_05.png","lure_but_seen","html-button-response","1284","3972165","0.0-26.0-1.41","A3EA4SHCLJ1UZQ","39O6Z4JLY5DL2UNJ70JKB6RMCJRXVU","3Q8GYXHFETIJNLV30FAMIF80RIRC58"
"1006.2050000415","1","memory_backgrounds","stimuli/forest/forest_5.jpg","stimuli/object_06.png","stimuli/object_02.png","lure","html-button-response","1286","3973676","0.0-26.0-1.42","A3EA4SHCLJ1UZQ","39O6Z4JLY5DL2UNJ70JKB6RMCJRXVU","3Q8GYXHFETIJNLV30FAMIF80RIRC58"
"908.92499999609","1","memory_backgrounds","stimuli/forest/forest_4.jpg","stimuli/object_01.png","stimuli/object_04.png","lure_but_seen","html-button-response","1288","3975088","0.0-26.0-1.43","A3EA4SHCLJ1UZQ","39O6Z4JLY5DL2UNJ70JKB6RMCJRXVU","3Q8GYXHFETIJNLV30FAMIF80RIRC58"
"3020","1","memory_backgrounds","stimuli/desert/desert_5.jpg","stimuli/object_01.png","stimuli/object_08.png","target","html-button-response","1206","3853978","0.0-26.0-1.0","A3LVLZS8S41ZD7","31SIZS5W6CV90Q5QC2JIG16QUARQRX","3X1FV8S5J17D2RQN8SOIC4NE2YLGVT"
"1880","0","memory_backgrounds","stimuli/library/library_2.jpg","stimuli/object_10.png","stimuli/object_03.png","target","html-button-response","1208","3856362","0.0-26.0-1.1","A3LVLZS8S41ZD7","31SIZS5W6CV90Q5QC2JIG16QUARQRX","3X1FV8S5J17D2RQN8SOIC4NE2YLGVT"
"1662","3","memory_backgrounds","stimuli/restaurant/restaurant_8.jpg","stimuli/object_09.png","stimuli/object_05.png","lure","html-button-response","1210","3858530","0.0-26.0-1.2","A3LVLZS8S41ZD7","31SIZS5W6CV90Q5QC2JIG16QUARQRX","3X1FV8S5J17D2RQN8SOIC4NE2YLGVT"
"1287","0","memory_backgrounds","stimuli/forest/forest_2.jpg","stimuli/object_03.png","stimuli/object_10.png","lure_but_seen","html-button-response","1212","3860323","0.0-26.0-1.3","A3LVLZS8S41ZD7","31SIZS5W6CV90Q5QC2JIG16QUARQRX","3X1FV8S5J17D2RQN8SOIC4NE2YLGVT"
"1710","0","memory_backgrounds","stimuli/forest/forest_5.jpg","stimuli/object_04.png","stimuli/object_07.png","target","html-button-response","1214","3862546","0.0-26.0-1.4","A3LVLZS8S41ZD7","31SIZS5W6CV90Q5QC2JIG16QUARQRX","3X1FV8S5J17D2RQN8SOIC4NE2YLGVT"
"1003","0","memory_backgrounds","stimuli/forest/forest_3.jpg","stimuli/object_08.png","stimuli/object_01.png","lure_but_seen","html-button-response","1216","3864068","0.0-26.0-1.5","A3LVLZS8S41ZD7","31SIZS5W6CV90Q5QC2JIG16QUARQRX","3X1FV8S5J17D2RQN8SOIC4NE2YLGVT"
"2342","3","memory_backgrounds","stimuli/forest/forest_8.jpg","stimuli/object_04.png","stimuli/object_07.png","lure","html-button-response","1218","3866923","0.0-26.0-1.6","A3LVLZS8S41ZD7","31SIZS5W6CV90Q5QC2JIG16QUARQRX","3X1FV8S5J17D2RQN8SOIC4NE2YLGVT"
"1942","2","memory_backgrounds","stimuli/restaurant/restaurant_6.jpg","stimuli/object_09.png","stimuli/object_05.png","lure","html-button-response","1220","3869371","0.0-26.0-1.7","A3LVLZS8S41ZD7","31SIZS5W6CV90Q5QC2JIG16QUARQRX","3X1FV8S5J17D2RQN8SOIC4NE2YLGVT"
"2089","3","memory_backgrounds","stimuli/library/library_5.jpg","stimuli/object_10.png","stimuli/object_03.png","lure","html-button-response","1222","3871970","0.0-26.0-1.8","A3LVLZS8S41ZD7","31SIZS5W6CV90Q5QC2JIG16QUARQRX","3X1FV8S5J17D2RQN8SOIC4NE2YLGVT"
"1535","3","memory_backgrounds","stimuli/forest/forest_4.jpg","stimuli/object_07.png","stimuli/object_04.png","lure","html-button-response","1224","3874017","0.0-26.0-1.9","A3LVLZS8S41ZD7","31SIZS5W6CV90Q5QC2JIG16QUARQRX","3X1FV8S5J17D2RQN8SOIC4NE2YLGVT"
"2439","0","memory_backgrounds","stimuli/restaurant/restaurant_4.jpg","stimuli/object_10.png","stimuli/object_03.png","lure_but_seen","html-button-response","1226","3876962","0.0-26.0-1.10","A3LVLZS8S41ZD7","31SIZS5W6CV90Q5QC2JIG16QUARQRX","3X1FV8S5J17D2RQN8SOIC4NE2YLGVT"
"2403","0","memory_backgrounds","stimuli/desert/desert_6.jpg","stimuli/object_08.png","stimuli/object_01.png","target","html-button-response","1228","3879882","0.0-26.0-1.11","A3LVLZS8S41ZD7","31SIZS5W6CV90Q5QC2JIG16QUARQRX","3X1FV8S5J17D2RQN8SOIC4NE2YLGVT"
"1186","0","memory_backgrounds","stimuli/restaurant/restaurant_3.jpg","stimuli/object_08.png","stimuli/object_01.png","lure_but_seen","html-button-response","1230","3881577","0.0-26.0-1.12","A3LVLZS8S41ZD7","31SIZS5W6CV90Q5QC2JIG16QUARQRX","3X1FV8S5J17D2RQN8SOIC4NE2YLGVT"
"1096","0","memory_backgrounds","stimuli/library/library_8.jpg","stimuli/object_03.png","stimuli/object_10.png","target","html-button-response","1232","3883186","0.0-26.0-1.13","A3LVLZS8S41ZD7","31SIZS5W6CV90Q5QC2JIG16QUARQRX","3X1FV8S5J17D2RQN8SOIC4NE2YLGVT"
"919","0","memory_backgrounds","stimuli/restaurant/restaurant_5.jpg","stimuli/object_04.png","stimuli/object_07.png","lure_but_seen","html-button-response","1234","3884617","0.0-26.0-1.14","A3LVLZS8S41ZD7","31SIZS5W6CV90Q5QC2JIG16QUARQRX","3X1FV8S5J17D2RQN8SOIC4NE2YLGVT"
"1021","0","memory_backgrounds","stimuli/restaurant/restaurant_2.jpg","stimuli/object_09.png","stimuli/object_05.png","target","html-button-response","1236","3886154","0.0-26.0-1.15","A3LVLZS8S41ZD7","31SIZS5W6CV90Q5QC2JIG16QUARQRX","3X1FV8S5J17D2RQN8SOIC4NE2YLGVT"
"1735","3","memory_backgrounds","stimuli/desert/desert_7.jpg","stimuli/object_01.png","stimuli/object_08.png","lure","html-button-response","1238","3888411","0.0-26.0-1.16","A3LVLZS8S41ZD7","31SIZS5W6CV90Q5QC2JIG16QUARQRX","3X1FV8S5J17D2RQN8SOIC4NE2YLGVT"
"1648","0","memory_backgrounds","stimuli/restaurant/restaurant_4.jpg","stimuli/object_05.png","stimuli/object_09.png","target","html-button-response","1240","3890577","0.0-26.0-1.17","A3LVLZS8S41ZD7","31SIZS5W6CV90Q5QC2JIG16QUARQRX","3X1FV8S5J17D2RQN8SOIC4NE2YLGVT"
"1573","3","memory_backgrounds","stimuli/library/library_7.jpg","stimuli/object_03.png","stimuli/object_10.png","lure","html-button-response","1242","3892658","0.0-26.0-1.18","A3LVLZS8S41ZD7","31SIZS5W6CV90Q5QC2JIG16QUARQRX","3X1FV8S5J17D2RQN8SOIC4NE2YLGVT"
"1337","0","memory_backgrounds","stimuli/restaurant/restaurant_5.jpg","stimuli/object_09.png","stimuli/object_05.png","target","html-button-response","1244","3894513","0.0-26.0-1.19","A3LVLZS8S41ZD7","31SIZS5W6CV90Q5QC2JIG16QUARQRX","3X1FV8S5J17D2RQN8SOIC4NE2YLGVT"
"2989","1","memory_backgrounds","stimuli/forest/forest_6.jpg","stimuli/object_07.png","stimuli/object_04.png","target","html-button-response","1246","3898017","0.0-26.0-1.20","A3LVLZS8S41ZD7","31SIZS5W6CV90Q5QC2JIG16QUARQRX","3X1FV8S5J17D2RQN8SOIC4NE2YLGVT"
"3015","3","memory_backgrounds","stimuli/restaurant/restaurant_7.jpg","stimuli/object_05.png","stimuli/object_09.png","lure","html-button-response","1248","3901537","0.0-26.0-1.21","A3LVLZS8S41ZD7","31SIZS5W6CV90Q5QC2JIG16QUARQRX","3X1FV8S5J17D2RQN8SOIC4NE2YLGVT"
"1196","0","memory_backgrounds","stimuli/restaurant/restaurant_3.jpg","stimuli/object_05.png","stimuli/object_09.png","target","html-button-response","1250","3903242","0.0-26.0-1.22","A3LVLZS8S41ZD7","31SIZS5W6CV90Q5QC2JIG16QUARQRX","3X1FV8S5J17D2RQN8SOIC4NE2YLGVT"
"2955","1","memory_backgrounds","stimuli/library/library_3.jpg","stimuli/object_03.png","stimuli/object_10.png","target","html-button-response","1252","3906707","0.0-26.0-1.23","A3LVLZS8S41ZD7","31SIZS5W6CV90Q5QC2JIG16QUARQRX","3X1FV8S5J17D2RQN8SOIC4NE2YLGVT"
"2367","1","memory_backgrounds","stimuli/forest/forest_6.jpg","stimuli/object_05.png","stimuli/object_09.png","lure_but_seen","html-button-response","1254","3909595","0.0-26.0-1.24","A3LVLZS8S41ZD7","31SIZS5W6CV90Q5QC2JIG16QUARQRX","3X1FV8S5J17D2RQN8SOIC4NE2YLGVT"
"1707","0","memory_backgrounds","stimuli/desert/desert_4.jpg","stimuli/object_08.png","stimuli/object_01.png","target","html-button-response","1256","3911817","0.0-26.0-1.25","A3LVLZS8S41ZD7","31SIZS5W6CV90Q5QC2JIG16QUARQRX","3X1FV8S5J17D2RQN8SOIC4NE2YLGVT"
"1641","0","memory_backgrounds","stimuli/desert/desert_3.jpg","stimuli/object_01.png","stimuli/object_08.png","target","html-button-response","1258","3913978","0.0-26.0-1.26","A3LVLZS8S41ZD7","31SIZS5W6CV90Q5QC2JIG16QUARQRX","3X1FV8S5J17D2RQN8SOIC4NE2YLGVT"
"1068","0","memory_backgrounds","stimuli/forest/forest_3.jpg","stimuli/object_07.png","stimuli/object_04.png","target","html-button-response","1260","3915586","0.0-26.0-1.27","A3LVLZS8S41ZD7","31SIZS5W6CV90Q5QC2JIG16QUARQRX","3X1FV8S5J17D2RQN8SOIC4NE2YLGVT"
"802","0","memory_backgrounds","stimuli/forest/forest_2.jpg","stimuli/object_04.png","stimuli/object_07.png","target","html-button-response","1262","3916895","0.0-26.0-1.28","A3LVLZS8S41ZD7","31SIZS5W6CV90Q5QC2JIG16QUARQRX","3X1FV8S5J17D2RQN8SOIC4NE2YLGVT"
"1376","3","memory_backgrounds","stimuli/desert/desert_1.jpg","stimuli/object_01.png","stimuli/object_08.png","lure","html-button-response","1264","3918777","0.0-26.0-1.29","A3LVLZS8S41ZD7","31SIZS5W6CV90Q5QC2JIG16QUARQRX","3X1FV8S5J17D2RQN8SOIC4NE2YLGVT"
"1078","3","memory_backgrounds","stimuli/forest/forest_1.jpg","stimuli/object_07.png","stimuli/object_04.png","lure","html-button-response","1266","3920369","0.0-26.0-1.30","A3LVLZS8S41ZD7","31SIZS5W6CV90Q5QC2JIG16QUARQRX","3X1FV8S5J17D2RQN8SOIC4NE2YLGVT"
"1369","0","memory_backgrounds","stimuli/library/library_3.jpg","stimuli/object_01.png","stimuli/object_08.png","lure_but_seen","html-button-response","1268","3922259","0.0-26.0-1.31","A3LVLZS8S41ZD7","31SIZS5W6CV90Q5QC2JIG16QUARQRX","3X1FV8S5J17D2RQN8SOIC4NE2YLGVT"
"2283","3","memory_backgrounds","stimuli/restaurant/restaurant_1.jpg","stimuli/object_05.png","stimuli/object_09.png","lure","html-button-response","1270","3925051","0.0-26.0-1.32","A3LVLZS8S41ZD7","31SIZS5W6CV90Q5QC2JIG16QUARQRX","3X1FV8S5J17D2RQN8SOIC4NE2YLGVT"
"2424","3","memory_backgrounds","stimuli/library/library_6.jpg","stimuli/object_03.png","stimuli/object_10.png","lure","html-button-response","1272","3927995","0.0-26.0-1.33","A3LVLZS8S41ZD7","31SIZS5W6CV90Q5QC2JIG16QUARQRX","3X1FV8S5J17D2RQN8SOIC4NE2YLGVT"
"1200","3","memory_backgrounds","stimuli/desert/desert_8.jpg","stimuli/object_08.png","stimuli/object_01.png","lure","html-button-response","1274","3929714","0.0-26.0-1.34","A3LVLZS8S41ZD7","31SIZS5W6CV90Q5QC2JIG16QUARQRX","3X1FV8S5J17D2RQN8SOIC4NE2YLGVT"
"1312","0","memory_backgrounds","stimuli/desert/desert_4.jpg","stimuli/object_09.png","stimuli/object_05.png","lure_but_seen","html-button-response","1276","3931538","0.0-26.0-1.35","A3LVLZS8S41ZD7","31SIZS5W6CV90Q5QC2JIG16QUARQRX","3X1FV8S5J17D2RQN8SOIC4NE2YLGVT"
"3668","3","memory_backgrounds","stimuli/library/library_4.jpg","stimuli/object_10.png","stimuli/object_03.png","lure","html-button-response","1278","3935737","0.0-26.0-1.36","A3LVLZS8S41ZD7","31SIZS5W6CV90Q5QC2JIG16QUARQRX","3X1FV8S5J17D2RQN8SOIC4NE2YLGVT"
"1782","0","memory_backgrounds","stimuli/library/library_1.jpg","stimuli/object_10.png","stimuli/object_03.png","target","html-button-response","1280","3938026","0.0-26.0-1.37","A3LVLZS8S41ZD7","31SIZS5W6CV90Q5QC2JIG16QUARQRX","3X1FV8S5J17D2RQN8SOIC4NE2YLGVT"
"1806","3","memory_backgrounds","stimuli/forest/forest_7.jpg","stimuli/object_04.png","stimuli/object_07.png","lure","html-button-response","1282","3940347","0.0-26.0-1.38","A3LVLZS8S41ZD7","31SIZS5W6CV90Q5QC2JIG16QUARQRX","3X1FV8S5J17D2RQN8SOIC4NE2YLGVT"
"1344","0","memory_backgrounds","stimuli/library/library_1.jpg","stimuli/object_07.png","stimuli/object_04.png","lure_but_seen","html-button-response","1284","3942201","0.0-26.0-1.39","A3LVLZS8S41ZD7","31SIZS5W6CV90Q5QC2JIG16QUARQRX","3X1FV8S5J17D2RQN8SOIC4NE2YLGVT"
"1836","0","memory_backgrounds","stimuli/library/library_8.jpg","stimuli/object_09.png","stimuli/object_05.png","lure_but_seen","html-button-response","1286","3944570","0.0-26.0-1.40","A3LVLZS8S41ZD7","31SIZS5W6CV90Q5QC2JIG16QUARQRX","3X1FV8S5J17D2RQN8SOIC4NE2YLGVT"
"2986","2","memory_backgrounds","stimuli/desert/desert_2.jpg","stimuli/object_08.png","stimuli/object_01.png","lure","html-button-response","1288","3948074","0.0-26.0-1.41","A3LVLZS8S41ZD7","31SIZS5W6CV90Q5QC2JIG16QUARQRX","3X1FV8S5J17D2RQN8SOIC4NE2YLGVT"
"1278","0","memory_backgrounds","stimuli/desert/desert_6.jpg","stimuli/object_04.png","stimuli/object_07.png","lure_but_seen","html-button-response","1290","3949866","0.0-26.0-1.42","A3LVLZS8S41ZD7","31SIZS5W6CV90Q5QC2JIG16QUARQRX","3X1FV8S5J17D2RQN8SOIC4NE2YLGVT"
NULL,NULL,"memory_backgrounds","stimuli/desert/desert_5.jpg","stimuli/object_10.png","stimuli/object_03.png","lure_but_seen","html-button-response","1292","3955383","0.0-26.0-1.43","A3LVLZS8S41ZD7","31SIZS5W6CV90Q5QC2JIG16QUARQRX","3X1FV8S5J17D2RQN8SOIC4NE2YLGVT"
"3957.9000000954","3","memory_backgrounds","stimuli/forest/forest_7.jpg","stimuli/object_05.png","stimuli/object_07.png","lure","html-button-response","1203","4178201","0.0-26.0-1.0","A1Y0Y6U906ABT5","39O6Z4JLY5DL2UNJ70JKB6RMCJRXVU","34V1S5K3GWHD8ROETEA08VLSHSZ964"
"3259.8999999762","3","memory_backgrounds","stimuli/restaurant/restaurant_4.jpg","stimuli/object_01.png","stimuli/object_04.png","lure","html-button-response","1205","4181965","0.0-26.0-1.1","A1Y0Y6U906ABT5","39O6Z4JLY5DL2UNJ70JKB6RMCJRXVU","34V1S5K3GWHD8ROETEA08VLSHSZ964"
"2072.6000000238","0","memory_backgrounds","stimuli/restaurant/restaurant_8.jpg","stimuli/object_06.png","stimuli/object_02.png","lure_but_seen","html-button-response","1207","4184546","0.0-26.0-1.2","A1Y0Y6U906ABT5","39O6Z4JLY5DL2UNJ70JKB6RMCJRXVU","34V1S5K3GWHD8ROETEA08VLSHSZ964"
"1835.3999999762","0","memory_backgrounds","stimuli/library/library_3.jpg","stimuli/object_06.png","stimuli/object_02.png","target","html-button-response","1209","4186897","0.0-26.0-1.3","A1Y0Y6U906ABT5","39O6Z4JLY5DL2UNJ70JKB6RMCJRXVU","34V1S5K3GWHD8ROETEA08VLSHSZ964"
"2196.1000000238","3","memory_backgrounds","stimuli/library/library_1.jpg","stimuli/object_02.png","stimuli/object_06.png","lure","html-button-response","1211","4189611","0.0-26.0-1.4","A1Y0Y6U906ABT5","39O6Z4JLY5DL2UNJ70JKB6RMCJRXVU","34V1S5K3GWHD8ROETEA08VLSHSZ964"
"2890.2000000477","1","memory_backgrounds","stimuli/desert/desert_7.jpg","stimuli/object_08.png","stimuli/object_10.png","lure","html-button-response","1213","4193005","0.0-26.0-1.5","A1Y0Y6U906ABT5","39O6Z4JLY5DL2UNJ70JKB6RMCJRXVU","34V1S5K3GWHD8ROETEA08VLSHSZ964"
"2447.6000000238","3","memory_backgrounds","stimuli/restaurant/restaurant_1.jpg","stimuli/object_04.png","stimuli/object_01.png","lure","html-button-response","1215","4195969","0.0-26.0-1.6","A1Y0Y6U906ABT5","39O6Z4JLY5DL2UNJ70JKB6RMCJRXVU","34V1S5K3GWHD8ROETEA08VLSHSZ964"
"2077","0","memory_backgrounds","stimuli/restaurant/restaurant_6.jpg","stimuli/object_04.png","stimuli/object_01.png","target","html-button-response","1217","4198549","0.0-26.0-1.7","A1Y0Y6U906ABT5","39O6Z4JLY5DL2UNJ70JKB6RMCJRXVU","34V1S5K3GWHD8ROETEA08VLSHSZ964"
"1891.6000000238","3","memory_backgrounds","stimuli/restaurant/restaurant_2.jpg","stimuli/object_04.png","stimuli/object_01.png","lure","html-button-response","1219","4200949","0.0-26.0-1.8","A1Y0Y6U906ABT5","39O6Z4JLY5DL2UNJ70JKB6RMCJRXVU","34V1S5K3GWHD8ROETEA08VLSHSZ964"
"1560.5","3","memory_backgrounds","stimuli/library/library_4.jpg","stimuli/object_06.png","stimuli/object_02.png","lure","html-button-response","1221","4203019","0.0-26.0-1.9","A1Y0Y6U906ABT5","39O6Z4JLY5DL2UNJ70JKB6RMCJRXVU","34V1S5K3GWHD8ROETEA08VLSHSZ964"
"2580.1000000238","1","memory_backgrounds","stimuli/forest/forest_6.jpg","stimuli/object_02.png","stimuli/object_06.png","lure_but_seen","html-button-response","1223","4206115","0.0-26.0-1.10","A1Y0Y6U906ABT5","39O6Z4JLY5DL2UNJ70JKB6RMCJRXVU","34V1S5K3GWHD8ROETEA08VLSHSZ964"
"2403.2000000477","0","memory_backgrounds","stimuli/restaurant/restaurant_3.jpg","stimuli/object_01.png","stimuli/object_04.png","target","html-button-response","1225","4209025","0.0-26.0-1.11","A1Y0Y6U906ABT5","39O6Z4JLY5DL2UNJ70JKB6RMCJRXVU","34V1S5K3GWHD8ROETEA08VLSHSZ964"
"4209.6999999285","1","memory_backgrounds","stimuli/forest/forest_3.jpg","stimuli/object_07.png","stimuli/object_05.png","target","html-button-response","1227","4213745","0.0-26.0-1.12","A1Y0Y6U906ABT5","39O6Z4JLY5DL2UNJ70JKB6RMCJRXVU","34V1S5K3GWHD8ROETEA08VLSHSZ964"
"2179.2000000477","2","memory_backgrounds","stimuli/desert/desert_6.jpg","stimuli/object_10.png","stimuli/object_08.png","target","html-button-response","1229","4216441","0.0-26.0-1.13","A1Y0Y6U906ABT5","39O6Z4JLY5DL2UNJ70JKB6RMCJRXVU","34V1S5K3GWHD8ROETEA08VLSHSZ964"
"1937.6000000238","1","memory_backgrounds","stimuli/desert/desert_2.jpg","stimuli/object_10.png","stimuli/object_08.png","lure","html-button-response","1231","4218895","0.0-26.0-1.14","A1Y0Y6U906ABT5","39O6Z4JLY5DL2UNJ70JKB6RMCJRXVU","34V1S5K3GWHD8ROETEA08VLSHSZ964"
"2207.6000000238","0","memory_backgrounds","stimuli/restaurant/restaurant_3.jpg","stimuli/object_05.png","stimuli/object_07.png","lure_but_seen","html-button-response","1233","4221617","0.0-26.0-1.15","A1Y0Y6U906ABT5","39O6Z4JLY5DL2UNJ70JKB6RMCJRXVU","34V1S5K3GWHD8ROETEA08VLSHSZ964"
"3128.6000000238","0","memory_backgrounds","stimuli/restaurant/restaurant_6.jpg","stimuli/object_10.png","stimuli/object_08.png","lure_but_seen","html-button-response","1235","4225255","0.0-26.0-1.16","A1Y0Y6U906ABT5","39O6Z4JLY5DL2UNJ70JKB6RMCJRXVU","34V1S5K3GWHD8ROETEA08VLSHSZ964"
"2483.6999999285","3","memory_backgrounds","stimuli/forest/forest_1.jpg","stimuli/object_07.png","stimuli/object_05.png","lure","html-button-response","1237","4228257","0.0-26.0-1.17","A1Y0Y6U906ABT5","39O6Z4JLY5DL2UNJ70JKB6RMCJRXVU","34V1S5K3GWHD8ROETEA08VLSHSZ964"
"2718.6000000238","2","memory_backgrounds","stimuli/library/library_5.jpg","stimuli/object_07.png","stimuli/object_05.png","lure_but_seen","html-button-response","1239","4231479","0.0-26.0-1.18","A1Y0Y6U906ABT5","39O6Z4JLY5DL2UNJ70JKB6RMCJRXVU","34V1S5K3GWHD8ROETEA08VLSHSZ964"
"2404.7999999523","2","memory_backgrounds","stimuli/forest/forest_2.jpg","stimuli/object_05.png","stimuli/object_07.png","target","html-button-response","1241","4234395","0.0-26.0-1.19","A1Y0Y6U906ABT5","39O6Z4JLY5DL2UNJ70JKB6RMCJRXVU","34V1S5K3GWHD8ROETEA08VLSHSZ964"
"1912","0","memory_backgrounds","stimuli/library/library_2.jpg","stimuli/object_08.png","stimuli/object_10.png","lure_but_seen","html-button-response","1243","4236817","0.0-26.0-1.20","A1Y0Y6U906ABT5","39O6Z4JLY5DL2UNJ70JKB6RMCJRXVU","34V1S5K3GWHD8ROETEA08VLSHSZ964"
"2672.1000000238","3","memory_backgrounds","stimuli/restaurant/restaurant_5.jpg","stimuli/object_01.png","stimuli/object_04.png","lure","html-button-response","1245","4240001","0.0-26.0-1.21","A1Y0Y6U906ABT5","39O6Z4JLY5DL2UNJ70JKB6RMCJRXVU","34V1S5K3GWHD8ROETEA08VLSHSZ964"
"1912.2000000477","1","memory_backgrounds","stimuli/forest/forest_5.jpg","stimuli/object_10.png","stimuli/object_08.png","lure_but_seen","html-button-response","1247","4242431","0.0-26.0-1.22","A1Y0Y6U906ABT5","39O6Z4JLY5DL2UNJ70JKB6RMCJRXVU","34V1S5K3GWHD8ROETEA08VLSHSZ964"
"2217.5","2","memory_backgrounds","stimuli/desert/desert_8.jpg","stimuli/object_08.png","stimuli/object_10.png","target","html-button-response","1249","4245167","0.0-26.0-1.23","A1Y0Y6U906ABT5","39O6Z4JLY5DL2UNJ70JKB6RMCJRXVU","34V1S5K3GWHD8ROETEA08VLSHSZ964"
"2481.4000000954","3","memory_backgrounds","stimuli/desert/desert_1.jpg","stimuli/object_08.png","stimuli/object_10.png","lure","html-button-response","1251","4248161","0.0-26.0-1.24","A1Y0Y6U906ABT5","39O6Z4JLY5DL2UNJ70JKB6RMCJRXVU","34V1S5K3GWHD8ROETEA08VLSHSZ964"
"1686.6000000238","3","memory_backgrounds","stimuli/library/library_8.jpg","stimuli/object_02.png","stimuli/object_06.png","lure","html-button-response","1253","4250365","0.0-26.0-1.25","A1Y0Y6U906ABT5","39O6Z4JLY5DL2UNJ70JKB6RMCJRXVU","34V1S5K3GWHD8ROETEA08VLSHSZ964"
"1631.1000000238","0","memory_backgrounds","stimuli/restaurant/restaurant_8.jpg","stimuli/object_04.png","stimuli/object_01.png","target","html-button-response","1255","4252513","0.0-26.0-1.26","A1Y0Y6U906ABT5","39O6Z4JLY5DL2UNJ70JKB6RMCJRXVU","34V1S5K3GWHD8ROETEA08VLSHSZ964"
"1288.8999999762","0","memory_backgrounds","stimuli/desert/desert_5.jpg","stimuli/object_10.png","stimuli/object_08.png","target","html-button-response","1257","4254309","0.0-26.0-1.27","A1Y0Y6U906ABT5","39O6Z4JLY5DL2UNJ70JKB6RMCJRXVU","34V1S5K3GWHD8ROETEA08VLSHSZ964"
"784.60000002384","0","memory_backgrounds","stimuli/library/library_2.jpg","stimuli/object_02.png","stimuli/object_06.png","target","html-button-response","1259","4255609","0.0-26.0-1.28","A1Y0Y6U906ABT5","39O6Z4JLY5DL2UNJ70JKB6RMCJRXVU","34V1S5K3GWHD8ROETEA08VLSHSZ964"
"1756","3","memory_backgrounds","stimuli/desert/desert_3.jpg","stimuli/object_10.png","stimuli/object_08.png","lure","html-button-response","1261","4257883","0.0-26.0-1.29","A1Y0Y6U906ABT5","39O6Z4JLY5DL2UNJ70JKB6RMCJRXVU","34V1S5K3GWHD8ROETEA08VLSHSZ964"
"2797.1000000238","2","memory_backgrounds","stimuli/library/library_6.jpg","stimuli/object_01.png","stimuli/object_04.png","lure_but_seen","html-button-response","1263","4261183","0.0-26.0-1.30","A1Y0Y6U906ABT5","39O6Z4JLY5DL2UNJ70JKB6RMCJRXVU","34V1S5K3GWHD8ROETEA08VLSHSZ964"
"1750.8000000715","2","memory_backgrounds","stimuli/library/library_6.jpg","stimuli/object_02.png","stimuli/object_06.png","target","html-button-response","1265","4263449","0.0-26.0-1.31","A1Y0Y6U906ABT5","39O6Z4JLY5DL2UNJ70JKB6RMCJRXVU","34V1S5K3GWHD8ROETEA08VLSHSZ964"
"3229.1000000238","1","memory_backgrounds","stimuli/library/library_5.jpg","stimuli/object_06.png","stimuli/object_02.png","target","html-button-response","1267","4267187","0.0-26.0-1.32","A1Y0Y6U906ABT5","39O6Z4JLY5DL2UNJ70JKB6RMCJRXVU","34V1S5K3GWHD8ROETEA08VLSHSZ964"
"2019.7999999523","0","memory_backgrounds","stimuli/restaurant/restaurant_7.jpg","stimuli/object_01.png","stimuli/object_04.png","target","html-button-response","1269","4269711","0.0-26.0-1.33","A1Y0Y6U906ABT5","39O6Z4JLY5DL2UNJ70JKB6RMCJRXVU","34V1S5K3GWHD8ROETEA08VLSHSZ964"
"1805.3000000715","3","memory_backgrounds","stimuli/desert/desert_4.jpg","stimuli/object_06.png","stimuli/object_02.png","lure_but_seen","html-button-response","1271","4272025","0.0-26.0-1.34","A1Y0Y6U906ABT5","39O6Z4JLY5DL2UNJ70JKB6RMCJRXVU","34V1S5K3GWHD8ROETEA08VLSHSZ964"
"1929.8999999762","2","memory_backgrounds","stimuli/forest/forest_6.jpg","stimuli/object_05.png","stimuli/object_07.png","target","html-button-response","1273","4274469","0.0-26.0-1.35","A1Y0Y6U906ABT5","39O6Z4JLY5DL2UNJ70JKB6RMCJRXVU","34V1S5K3GWHD8ROETEA08VLSHSZ964"
"2702.7999999523","3","memory_backgrounds","stimuli/forest/forest_4.jpg","stimuli/object_05.png","stimuli/object_07.png","lure","html-button-response","1275","4277683","0.0-26.0-1.36","A1Y0Y6U906ABT5","39O6Z4JLY5DL2UNJ70JKB6RMCJRXVU","34V1S5K3GWHD8ROETEA08VLSHSZ964"
"1409.6999999285","2","memory_backgrounds","stimuli/desert/desert_5.jpg","stimuli/object_05.png","stimuli/object_07.png","lure_but_seen","html-button-response","1277","4279597","0.0-26.0-1.37","A1Y0Y6U906ABT5","39O6Z4JLY5DL2UNJ70JKB6RMCJRXVU","34V1S5K3GWHD8ROETEA08VLSHSZ964"
"3214.1000000238","1","memory_backgrounds","stimuli/forest/forest_5.jpg","stimuli/object_07.png","stimuli/object_05.png","target","html-button-response","1279","4283314","0.0-26.0-1.38","A1Y0Y6U906ABT5","39O6Z4JLY5DL2UNJ70JKB6RMCJRXVU","34V1S5K3GWHD8ROETEA08VLSHSZ964"
"1367.2999999523","3","memory_backgrounds","stimuli/desert/desert_6.jpg","stimuli/object_01.png","stimuli/object_04.png","lure_but_seen","html-button-response","1281","4285185","0.0-26.0-1.39","A1Y0Y6U906ABT5","39O6Z4JLY5DL2UNJ70JKB6RMCJRXVU","34V1S5K3GWHD8ROETEA08VLSHSZ964"
"1291","3","memory_backgrounds","stimuli/library/library_7.jpg","stimuli/object_06.png","stimuli/object_02.png","lure","html-button-response","1283","4286981","0.0-26.0-1.40","A1Y0Y6U906ABT5","39O6Z4JLY5DL2UNJ70JKB6RMCJRXVU","34V1S5K3GWHD8ROETEA08VLSHSZ964"
"1840.8999999762","1","memory_backgrounds","stimuli/forest/forest_3.jpg","stimuli/object_04.png","stimuli/object_01.png","lure_but_seen","html-button-response","1285","4289334","0.0-26.0-1.41","A1Y0Y6U906ABT5","39O6Z4JLY5DL2UNJ70JKB6RMCJRXVU","34V1S5K3GWHD8ROETEA08VLSHSZ964"
"1743.5","2","memory_backgrounds","stimuli/forest/forest_8.jpg","stimuli/object_07.png","stimuli/object_05.png","lure","html-button-response","1287","4291591","0.0-26.0-1.42","A1Y0Y6U906ABT5","39O6Z4JLY5DL2UNJ70JKB6RMCJRXVU","34V1S5K3GWHD8ROETEA08VLSHSZ964"
"1215.1999999285","2","memory_backgrounds","stimuli/desert/desert_4.jpg","stimuli/object_08.png","stimuli/object_10.png","target","html-button-response","1289","4293309","0.0-26.0-1.43","A1Y0Y6U906ABT5","39O6Z4JLY5DL2UNJ70JKB6RMCJRXVU","34V1S5K3GWHD8ROETEA08VLSHSZ964"
"3459.1999999881","3","memory_backgrounds","stimuli/library/library_8.jpg","stimuli/object_07.png","stimuli/object_02.png","lure","html-button-response","1210","3509301","0.0-26.0-1.0","A26RO8GGTQAXGG","39O6Z4JLY5DL2UNJ70JKB6RMCJRXVU","3MD9PLUKKMU0L3CJWTQGNU97RLXZN4"
"2804","2","memory_backgrounds","stimuli/forest/forest_7.jpg","stimuli/object_09.png","stimuli/object_03.png","lure_but_seen","html-button-response","1212","3512651","0.0-26.0-1.1","A26RO8GGTQAXGG","39O6Z4JLY5DL2UNJ70JKB6RMCJRXVU","3MD9PLUKKMU0L3CJWTQGNU97RLXZN4"
"2903.7999999523","1","memory_backgrounds","stimuli/library/library_4.jpg","stimuli/object_02.png","stimuli/object_07.png","target","html-button-response","1214","3516070","0.0-26.0-1.2","A26RO8GGTQAXGG","39O6Z4JLY5DL2UNJ70JKB6RMCJRXVU","3MD9PLUKKMU0L3CJWTQGNU97RLXZN4"
"2251.8000000119","1","memory_backgrounds","stimuli/forest/forest_5.jpg","stimuli/object_05.png","stimuli/object_08.png","target","html-button-response","1216","3518852","0.0-26.0-1.3","A26RO8GGTQAXGG","39O6Z4JLY5DL2UNJ70JKB6RMCJRXVU","3MD9PLUKKMU0L3CJWTQGNU97RLXZN4"
"2763.1999999881","3","memory_backgrounds","stimuli/restaurant/restaurant_5.jpg","stimuli/object_06.png","stimuli/object_10.png","lure_but_seen","html-button-response","1218","3522130","0.0-26.0-1.4","A26RO8GGTQAXGG","39O6Z4JLY5DL2UNJ70JKB6RMCJRXVU","3MD9PLUKKMU0L3CJWTQGNU97RLXZN4"
"2776.1999999881","3","memory_backgrounds","stimuli/library/library_1.jpg","stimuli/object_07.png","stimuli/object_02.png","lure","html-button-response","1220","3525450","0.0-26.0-1.5","A26RO8GGTQAXGG","39O6Z4JLY5DL2UNJ70JKB6RMCJRXVU","3MD9PLUKKMU0L3CJWTQGNU97RLXZN4"
"2081","2","memory_backgrounds","stimuli/forest/forest_2.jpg","stimuli/object_02.png","stimuli/object_07.png","lure_but_seen","html-button-response","1222","3528059","0.0-26.0-1.6","A26RO8GGTQAXGG","39O6Z4JLY5DL2UNJ70JKB6RMCJRXVU","3MD9PLUKKMU0L3CJWTQGNU97RLXZN4"
"2156","2","memory_backgrounds","stimuli/restaurant/restaurant_7.jpg","stimuli/object_07.png","stimuli/object_02.png","lure_but_seen","html-button-response","1224","3530740","0.0-26.0-1.7","A26RO8GGTQAXGG","39O6Z4JLY5DL2UNJ70JKB6RMCJRXVU","3MD9PLUKKMU0L3CJWTQGNU97RLXZN4"
"2266.8000000119","3","memory_backgrounds","stimuli/desert/desert_5.jpg","stimuli/object_03.png","stimuli/object_09.png","lure_but_seen","html-button-response","1226","3533539","0.0-26.0-1.8","A26RO8GGTQAXGG","39O6Z4JLY5DL2UNJ70JKB6RMCJRXVU","3MD9PLUKKMU0L3CJWTQGNU97RLXZN4"
"1784.5999999642","3","memory_backgrounds","stimuli/desert/desert_1.jpg","stimuli/object_06.png","stimuli/object_10.png","lure","html-button-response","1228","3535842","0.0-26.0-1.9","A26RO8GGTQAXGG","39O6Z4JLY5DL2UNJ70JKB6RMCJRXVU","3MD9PLUKKMU0L3CJWTQGNU97RLXZN4"
"1939.3000000119","1","memory_backgrounds","stimuli/forest/forest_1.jpg","stimuli/object_08.png","stimuli/object_05.png","target","html-button-response","1230","3538292","0.0-26.0-1.10","A26RO8GGTQAXGG","39O6Z4JLY5DL2UNJ70JKB6RMCJRXVU","3MD9PLUKKMU0L3CJWTQGNU97RLXZN4"
"2006.1999999881","2","memory_backgrounds","stimuli/library/library_7.jpg","stimuli/object_07.png","stimuli/object_02.png","target","html-button-response","1232","3540834","0.0-26.0-1.11","A26RO8GGTQAXGG","39O6Z4JLY5DL2UNJ70JKB6RMCJRXVU","3MD9PLUKKMU0L3CJWTQGNU97RLXZN4"
"1829.2999999523","3","memory_backgrounds","stimuli/library/library_3.jpg","stimuli/object_02.png","stimuli/object_07.png","lure","html-button-response","1234","3543187","0.0-26.0-1.12","A26RO8GGTQAXGG","39O6Z4JLY5DL2UNJ70JKB6RMCJRXVU","3MD9PLUKKMU0L3CJWTQGNU97RLXZN4"
"1181.9000000358","3","memory_backgrounds","stimuli/restaurant/restaurant_4.jpg","stimuli/object_09.png","stimuli/object_03.png","lure","html-button-response","1236","3544889","0.0-26.0-1.13","A26RO8GGTQAXGG","39O6Z4JLY5DL2UNJ70JKB6RMCJRXVU","3MD9PLUKKMU0L3CJWTQGNU97RLXZN4"
"1083.3999999762","3","memory_backgrounds","stimuli/desert/desert_4.jpg","stimuli/object_06.png","stimuli/object_10.png","target","html-button-response","1238","3546505","0.0-26.0-1.14","A26RO8GGTQAXGG","39O6Z4JLY5DL2UNJ70JKB6RMCJRXVU","3MD9PLUKKMU0L3CJWTQGNU97RLXZN4"
"1396.6000000238","3","memory_backgrounds","stimuli/library/library_5.jpg","stimuli/object_10.png","stimuli/object_06.png","lure_but_seen","html-button-response","1240","3548459","0.0-26.0-1.15","A26RO8GGTQAXGG","39O6Z4JLY5DL2UNJ70JKB6RMCJRXVU","3MD9PLUKKMU0L3CJWTQGNU97RLXZN4"
"1379.1000000238","3","memory_backgrounds","stimuli/restaurant/restaurant_6.jpg","stimuli/object_08.png","stimuli/object_05.png","lure_but_seen","html-button-response","1242","3550359","0.0-26.0-1.16","A26RO8GGTQAXGG","39O6Z4JLY5DL2UNJ70JKB6RMCJRXVU","3MD9PLUKKMU0L3CJWTQGNU97RLXZN4"
"1651.4000000358","1","memory_backgrounds","stimuli/forest/forest_5.jpg","stimuli/object_06.png","stimuli/object_10.png","lure_but_seen","html-button-response","1244","3552556","0.0-26.0-1.17","A26RO8GGTQAXGG","39O6Z4JLY5DL2UNJ70JKB6RMCJRXVU","3MD9PLUKKMU0L3CJWTQGNU97RLXZN4"
"2263","1","memory_backgrounds","stimuli/library/library_4.jpg","stimuli/object_03.png","stimuli/object_09.png","lure_but_seen","html-button-response","1246","3555356","0.0-26.0-1.18","A26RO8GGTQAXGG","39O6Z4JLY5DL2UNJ70JKB6RMCJRXVU","3MD9PLUKKMU0L3CJWTQGNU97RLXZN4"
"1475.1999999881","3","memory_backgrounds","stimuli/library/library_6.jpg","stimuli/object_02.png","stimuli/object_07.png","lure","html-button-response","1248","3557348","0.0-26.0-1.19","A26RO8GGTQAXGG","39O6Z4JLY5DL2UNJ70JKB6RMCJRXVU","3MD9PLUKKMU0L3CJWTQGNU97RLXZN4"
"1240","3","memory_backgrounds","stimuli/restaurant/restaurant_8.jpg","stimuli/object_09.png","stimuli/object_03.png","lure","html-button-response","1250","3559106","0.0-26.0-1.20","A26RO8GGTQAXGG","39O6Z4JLY5DL2UNJ70JKB6RMCJRXVU","3MD9PLUKKMU0L3CJWTQGNU97RLXZN4"
"1813.9000000358","0","memory_backgrounds","stimuli/forest/forest_7.jpg","stimuli/object_05.png","stimuli/object_08.png","target","html-button-response","1252","3561443","0.0-26.0-1.21","A26RO8GGTQAXGG","39O6Z4JLY5DL2UNJ70JKB6RMCJRXVU","3MD9PLUKKMU0L3CJWTQGNU97RLXZN4"
"1587.7000000477","1","memory_backgrounds","stimuli/forest/forest_3.jpg","stimuli/object_08.png","stimuli/object_05.png","lure","html-button-response","1254","3563549","0.0-26.0-1.22","A26RO8GGTQAXGG","39O6Z4JLY5DL2UNJ70JKB6RMCJRXVU","3MD9PLUKKMU0L3CJWTQGNU97RLXZN4"
"1875.1000000238","2","memory_backgrounds","stimuli/library/library_2.jpg","stimuli/object_07.png","stimuli/object_02.png","target","html-button-response","1256","3565953","0.0-26.0-1.23","A26RO8GGTQAXGG","39O6Z4JLY5DL2UNJ70JKB6RMCJRXVU","3MD9PLUKKMU0L3CJWTQGNU97RLXZN4"
"1389.1000000238","3","memory_backgrounds","stimuli/desert/desert_3.jpg","stimuli/object_07.png","stimuli/object_02.png","lure_but_seen","html-button-response","1258","3567922","0.0-26.0-1.24","A26RO8GGTQAXGG","39O6Z4JLY5DL2UNJ70JKB6RMCJRXVU","3MD9PLUKKMU0L3CJWTQGNU97RLXZN4"
"1756","0","memory_backgrounds","stimuli/desert/desert_5.jpg","stimuli/object_06.png","stimuli/object_10.png","target","html-button-response","1260","3570217","0.0-26.0-1.25","A26RO8GGTQAXGG","39O6Z4JLY5DL2UNJ70JKB6RMCJRXVU","3MD9PLUKKMU0L3CJWTQGNU97RLXZN4"
"1670.4000000358","3","memory_backgrounds","stimuli/desert/desert_7.jpg","stimuli/object_10.png","stimuli/object_06.png","lure","html-button-response","1262","3572409","0.0-26.0-1.26","A26RO8GGTQAXGG","39O6Z4JLY5DL2UNJ70JKB6RMCJRXVU","3MD9PLUKKMU0L3CJWTQGNU97RLXZN4"
"2354.6999999881","0","memory_backgrounds","stimuli/restaurant/restaurant_1.jpg","stimuli/object_03.png","stimuli/object_09.png","target","html-button-response","1264","3575323","0.0-26.0-1.27","A26RO8GGTQAXGG","39O6Z4JLY5DL2UNJ70JKB6RMCJRXVU","3MD9PLUKKMU0L3CJWTQGNU97RLXZN4"
