,state1,stim_left,stim_right,rt_1,choice1,response1,rt_2,points,state2,stim_state2,stake,score,practice,rews1,rews2,background,high_arm,trial_type,trial_index,time_elapsed,internal_node_id,subid,hitid,assignmentid,stim_left_num,stim_right_num
0,1,object_09,object_08,1028.5,2,1,-1.0,0.0,2,object_07,5,0,0,5,2,desert_1,1,memory-2step-stake-s,506,1462630,0.0-19.0-0.0-0.0,A2NA6X1SON3KFH,3MQKOF1EF54KJDI76AN431783D3WDT,3DI28L7YXEUZW1EYVJE55DVM1OU1EO,2,1
1,4,object_04,object_10,904.10000002384,8,1,-1.0,0.0,2,object_07,5,0,0,7,0,restaurant_8,1,memory-2step-stake-s,507,1471144,0.0-19.0-0.0-0.1,A2NA6X1SON3KFH,3MQKOF1EF54KJDI76AN431783D3WDT,3DI28L7YXEUZW1EYVJE55DVM1OU1EO,8,7
2,3,object_02,object_01,716.0,5,2,423.10000002384,0.7777777777777778,1,object_06,1,7,0,7,3,library_4,1,memory-2step-stake-s,508,1479487,0.0-19.0-0.0-0.2,A2NA6X1SON3KFH,3MQKOF1EF54KJDI76AN431783D3WDT,3DI28L7YXEUZW1EYVJE55DVM1OU1EO,6,5
3,2,object_03,object_05,721.40000009537,4,1,429.29999995232,0.2222222222222222,2,object_07,1,9,0,9,2,forest_4,1,memory-2step-stake-s,509,1487331,0.0-19.0-0.0-0.3,A2NA6X1SON3KFH,3MQKOF1EF54KJDI76AN431783D3WDT,3DI28L7YXEUZW1EYVJE55DVM1OU1EO,4,3
4,3,object_01,object_02,916.19999992847,5,1,448.0,0.6666666666666666,1,object_06,5,39,0,6,1,library_4,1,memory-2step-stake-s,510,1495599,0.0-19.0-0.0-0.4,A2NA6X1SON3KFH,3MQKOF1EF54KJDI76AN431783D3WDT,3DI28L7YXEUZW1EYVJE55DVM1OU1EO,5,6
5,2,object_05,object_03,1108.7999999523,3,1,679.10000002384,0.5555555555555556,1,object_06,1,44,0,5,2,forest_4,1,memory-2step-stake-s,511,1503999,0.0-19.0-0.0-0.5,A2NA6X1SON3KFH,3MQKOF1EF54KJDI76AN431783D3WDT,3DI28L7YXEUZW1EYVJE55DVM1OU1EO,3,4
6,3,object_01,object_02,759.19999992847,5,1,417.89999997616,0.3333333333333333,1,object_06,5,59,0,3,0,library_6,1,memory-2step-stake-s,512,1511933,0.0-19.0-0.0-0.6,A2NA6X1SON3KFH,3MQKOF1EF54KJDI76AN431783D3WDT,3DI28L7YXEUZW1EYVJE55DVM1OU1EO,5,6
7,4,object_10,object_04,938.20000004768,8,2,796.19999992847,0.1111111111111111,2,object_07,5,64,0,5,1,restaurant_6,1,memory-2step-stake-s,513,1520044,0.0-19.0-0.0-0.7,A2NA6X1SON3KFH,3MQKOF1EF54KJDI76AN431783D3WDT,3DI28L7YXEUZW1EYVJE55DVM1OU1EO,7,8
8,1,object_08,object_09,789.59999990463,2,2,823.09999990463,0.1111111111111111,2,object_07,5,69,0,3,1,desert_8,1,memory-2step-stake-s,514,1528181,0.0-19.0-0.0-0.8,A2NA6X1SON3KFH,3MQKOF1EF54KJDI76AN431783D3WDT,3DI28L7YXEUZW1EYVJE55DVM1OU1EO,1,2
9,3,object_01,object_02,702.39999997616,5,1,573.29999995232,0.1111111111111111,1,object_06,5,74,0,1,1,library_3,1,memory-2step-stake-s,515,1536067,0.0-19.0-0.0-0.9,A2NA6X1SON3KFH,3MQKOF1EF54KJDI76AN431783D3WDT,3DI28L7YXEUZW1EYVJE55DVM1OU1EO,5,6
10,2,object_03,object_05,943.10000002384,3,2,626.39999997616,0.1111111111111111,1,object_06,1,75,0,1,0,forest_1,1,memory-2step-stake-s,516,1544006,0.0-19.0-0.0-0.10,A2NA6X1SON3KFH,3MQKOF1EF54KJDI76AN431783D3WDT,3DI28L7YXEUZW1EYVJE55DVM1OU1EO,4,3
11,4,object_10,object_04,739.89999997616,8,2,472.20000004768,0.3333333333333333,2,object_07,5,90,0,0,3,restaurant_6,1,memory-2step-stake-s,517,1551996,0.0-19.0-0.0-0.11,A2NA6X1SON3KFH,3MQKOF1EF54KJDI76AN431783D3WDT,3DI28L7YXEUZW1EYVJE55DVM1OU1EO,7,8
12,3,object_01,object_02,699.5,5,1,382.59999990463,0.1111111111111111,1,object_06,1,91,0,1,0,library_4,1,memory-2step-stake-s,518,1559692,0.0-19.0-0.0-0.12,A2NA6X1SON3KFH,3MQKOF1EF54KJDI76AN431783D3WDT,3DI28L7YXEUZW1EYVJE55DVM1OU1EO,5,6
13,4,object_10,object_04,916.5,8,2,600.09999990463,0.1111111111111111,2,object_07,5,96,0,3,1,restaurant_6,1,memory-2step-stake-s,519,1567605,0.0-19.0-0.0-0.13,A2NA6X1SON3KFH,3MQKOF1EF54KJDI76AN431783D3WDT,3DI28L7YXEUZW1EYVJE55DVM1OU1EO,7,8
14,1,object_08,object_09,889.29999995232,1,1,585.90000009537,0.2222222222222222,1,object_06,1,98,0,2,2,desert_2,1,memory-2step-stake-s,520,1575606,0.0-19.0-0.0-0.14,A2NA6X1SON3KFH,3MQKOF1EF54KJDI76AN431783D3WDT,3DI28L7YXEUZW1EYVJE55DVM1OU1EO,1,2
15,3,object_01,object_02,790.20000004768,6,2,398.0,0.2222222222222222,2,object_07,5,108,0,3,2,library_6,1,memory-2step-stake-s,521,1583419,0.0-19.0-0.0-0.15,A2NA6X1SON3KFH,3MQKOF1EF54KJDI76AN431783D3WDT,3DI28L7YXEUZW1EYVJE55DVM1OU1EO,5,6
16,4,object_10,object_04,716.0,7,1,609.70000004768,0.5555555555555556,1,object_06,5,133,0,5,1,restaurant_6,1,memory-2step-stake-s,522,1591748,0.0-19.0-0.0-0.16,A2NA6X1SON3KFH,3MQKOF1EF54KJDI76AN431783D3WDT,3DI28L7YXEUZW1EYVJE55DVM1OU1EO,7,8
17,3,object_02,object_01,1061.5,6,1,843.5,0.1111111111111111,2,object_07,5,138,0,2,1,library_6,1,memory-2step-stake-s,523,1599905,0.0-19.0-0.0-0.17,A2NA6X1SON3KFH,3MQKOF1EF54KJDI76AN431783D3WDT,3DI28L7YXEUZW1EYVJE55DVM1OU1EO,6,5
18,2,object_05,object_03,864.89999997616,3,1,597.80000007153,0.2222222222222222,1,object_06,1,140,0,2,2,forest_8,1,memory-2step-stake-s,524,1607918,0.0-19.0-0.0-0.18,A2NA6X1SON3KFH,3MQKOF1EF54KJDI76AN431783D3WDT,3DI28L7YXEUZW1EYVJE55DVM1OU1EO,3,4
19,1,object_09,object_08,803.89999997616,2,1,623.70000004768,0.2222222222222222,2,object_07,1,142,0,2,2,desert_8,1,memory-2step-stake-s,525,1615956,0.0-19.0-0.0-0.19,A2NA6X1SON3KFH,3MQKOF1EF54KJDI76AN431783D3WDT,3DI28L7YXEUZW1EYVJE55DVM1OU1EO,2,1
20,2,object_05,object_03,912.5,3,1,808.70000004768,0.2222222222222222,1,object_06,1,144,0,2,0,forest_7,1,memory-2step-stake-s,526,1624181,0.0-19.0-0.0-0.20,A2NA6X1SON3KFH,3MQKOF1EF54KJDI76AN431783D3WDT,3DI28L7YXEUZW1EYVJE55DVM1OU1EO,3,4
21,1,object_08,object_09,753.0,2,2,521.5,0.1111111111111111,2,object_07,1,145,0,4,1,desert_2,1,memory-2step-stake-s,527,1632018,0.0-19.0-0.0-0.21,A2NA6X1SON3KFH,3MQKOF1EF54KJDI76AN431783D3WDT,3DI28L7YXEUZW1EYVJE55DVM1OU1EO,1,2
22,4,object_10,object_04,765.89999997616,7,1,585.39999997616,0.4444444444444444,1,object_06,5,165,0,4,4,restaurant_3,1,memory-2step-stake-s,528,1640220,0.0-19.0-0.0-0.22,A2NA6X1SON3KFH,3MQKOF1EF54KJDI76AN431783D3WDT,3DI28L7YXEUZW1EYVJE55DVM1OU1EO,7,8
23,1,object_08,object_09,888.29999995232,2,2,483.69999992847,0.1111111111111111,2,object_07,1,166,0,1,1,desert_1,1,memory-2step-stake-s,529,1648017,0.0-19.0-0.0-0.23,A2NA6X1SON3KFH,3MQKOF1EF54KJDI76AN431783D3WDT,3DI28L7YXEUZW1EYVJE55DVM1OU1EO,1,2
24,2,object_03,object_05,916.39999997616,4,1,599.19999992847,0.3333333333333333,2,object_07,5,181,0,0,3,forest_7,1,memory-2step-stake-s,530,1656132,0.0-19.0-0.0-0.24,A2NA6X1SON3KFH,3MQKOF1EF54KJDI76AN431783D3WDT,3DI28L7YXEUZW1EYVJE55DVM1OU1EO,4,3
25,1,object_09,object_08,750.79999995232,1,2,484.10000002384,0.0,1,object_06,1,181,0,0,0,desert_1,1,memory-2step-stake-s,531,1663829,0.0-19.0-0.0-0.25,A2NA6X1SON3KFH,3MQKOF1EF54KJDI76AN431783D3WDT,3DI28L7YXEUZW1EYVJE55DVM1OU1EO,2,1
26,1,object_08,object_09,805.0,2,2,561.59999990463,0.2222222222222222,2,object_07,1,183,0,2,2,desert_3,1,memory-2step-stake-s,532,1671806,0.0-19.0-0.0-0.26,A2NA6X1SON3KFH,3MQKOF1EF54KJDI76AN431783D3WDT,3DI28L7YXEUZW1EYVJE55DVM1OU1EO,1,2
27,1,object_09,object_08,739.89999997616,2,1,498.0,0.2222222222222222,2,object_07,1,185,0,1,2,desert_8,1,memory-2step-stake-s,533,1679719,0.0-19.0-0.0-0.27,A2NA6X1SON3KFH,3MQKOF1EF54KJDI76AN431783D3WDT,3DI28L7YXEUZW1EYVJE55DVM1OU1EO,2,1
28,3,object_02,object_01,726.5,5,2,484.80000007153,0.1111111111111111,1,object_06,5,190,0,1,1,library_8,1,memory-2step-stake-s,534,1687517,0.0-19.0-0.0-0.28,A2NA6X1SON3KFH,3MQKOF1EF54KJDI76AN431783D3WDT,3DI28L7YXEUZW1EYVJE55DVM1OU1EO,6,5
29,3,object_01,object_02,715.39999997616,6,2,611.69999992847,0.1111111111111111,2,object_07,5,195,0,2,1,library_8,1,memory-2step-stake-s,535,1695444,0.0-19.0-0.0-0.29,A2NA6X1SON3KFH,3MQKOF1EF54KJDI76AN431783D3WDT,3DI28L7YXEUZW1EYVJE55DVM1OU1EO,5,6
30,4,object_10,object_04,790.20000004768,7,1,734.39999997616,0.3333333333333333,1,object_06,5,210,0,3,1,restaurant_3,1,memory-2step-stake-s,536,1703695,0.0-19.0-0.0-0.30,A2NA6X1SON3KFH,3MQKOF1EF54KJDI76AN431783D3WDT,3DI28L7YXEUZW1EYVJE55DVM1OU1EO,7,8
31,1,object_09,object_08,825.60000002384,2,1,620.39999997616,0.5555555555555556,2,object_07,5,235,0,3,5,desert_2,1,memory-2step-stake-s,537,1712036,0.0-19.0-0.0-0.31,A2NA6X1SON3KFH,3MQKOF1EF54KJDI76AN431783D3WDT,3DI28L7YXEUZW1EYVJE55DVM1OU1EO,2,1
32,4,object_10,object_04,673.0,7,1,566.30000007153,0.3333333333333333,1,object_06,5,250,0,3,5,restaurant_3,1,memory-2step-stake-s,538,1720121,0.0-19.0-0.0-0.32,A2NA6X1SON3KFH,3MQKOF1EF54KJDI76AN431783D3WDT,3DI28L7YXEUZW1EYVJE55DVM1OU1EO,7,8
33,2,object_03,object_05,724.89999997616,3,2,518.5,0.4444444444444444,1,object_06,1,254,0,4,2,forest_1,1,memory-2step-stake-s,539,1728259,0.0-19.0-0.0-0.33,A2NA6X1SON3KFH,3MQKOF1EF54KJDI76AN431783D3WDT,3DI28L7YXEUZW1EYVJE55DVM1OU1EO,4,3
34,1,object_09,object_08,836.29999995232,2,1,606.0,0.2222222222222222,2,object_07,1,256,0,4,2,desert_2,1,memory-2step-stake-s,540,1736281,0.0-19.0-0.0-0.34,A2NA6X1SON3KFH,3MQKOF1EF54KJDI76AN431783D3WDT,3DI28L7YXEUZW1EYVJE55DVM1OU1EO,2,1
35,1,object_09,object_08,901.10000002384,2,1,907.60000002384,0.2222222222222222,2,object_07,1,258,0,1,2,desert_1,1,memory-2step-stake-s,541,1744606,0.0-19.0-0.0-0.35,A2NA6X1SON3KFH,3MQKOF1EF54KJDI76AN431783D3WDT,3DI28L7YXEUZW1EYVJE55DVM1OU1EO,2,1
36,2,object_05,object_03,738.5,3,1,658.0,0.1111111111111111,1,object_06,1,259,0,1,1,forest_8,1,memory-2step-stake-s,542,1752581,0.0-19.0-0.0-0.36,A2NA6X1SON3KFH,3MQKOF1EF54KJDI76AN431783D3WDT,3DI28L7YXEUZW1EYVJE55DVM1OU1EO,3,4
37,2,object_05,object_03,839.20000004768,3,1,508.80000007153,0.0,1,object_06,5,259,0,0,4,forest_8,1,memory-2step-stake-s,543,1760302,0.0-19.0-0.0-0.37,A2NA6X1SON3KFH,3MQKOF1EF54KJDI76AN431783D3WDT,3DI28L7YXEUZW1EYVJE55DVM1OU1EO,3,4
38,2,object_05,object_03,905.39999997616,4,2,624.20000004768,0.5555555555555556,2,object_07,1,264,0,2,5,forest_1,1,memory-2step-stake-s,544,1768648,0.0-19.0-0.0-0.38,A2NA6X1SON3KFH,3MQKOF1EF54KJDI76AN431783D3WDT,3DI28L7YXEUZW1EYVJE55DVM1OU1EO,3,4
39,2,object_03,object_05,771.60000002384,4,1,566.5,0.8888888888888888,2,object_07,1,272,0,0,8,forest_1,1,memory-2step-stake-s,545,1777240,0.0-19.0-0.0-0.39,A2NA6X1SON3KFH,3MQKOF1EF54KJDI76AN431783D3WDT,3DI28L7YXEUZW1EYVJE55DVM1OU1EO,4,3
40,1,object_08,object_09,866.89999997616,2,2,537.39999997616,0.6666666666666666,2,object_07,1,278,0,3,6,desert_1,1,memory-2step-stake-s,546,1785599,0.0-19.0-0.0-0.40,A2NA6X1SON3KFH,3MQKOF1EF54KJDI76AN431783D3WDT,3DI28L7YXEUZW1EYVJE55DVM1OU1EO,1,2
41,3,object_01,object_02,821.29999995232,5,1,340.5,0.4444444444444444,1,object_06,5,298,0,4,6,library_3,1,memory-2step-stake-s,547,1793559,0.0-19.0-0.0-0.41,A2NA6X1SON3KFH,3MQKOF1EF54KJDI76AN431783D3WDT,3DI28L7YXEUZW1EYVJE55DVM1OU1EO,5,6
42,2,object_05,object_03,847.80000007153,4,2,505.09999990463,0.8888888888888888,2,object_07,1,306,0,4,8,forest_8,1,memory-2step-stake-s,548,1802087,0.0-19.0-0.0-0.42,A2NA6X1SON3KFH,3MQKOF1EF54KJDI76AN431783D3WDT,3DI28L7YXEUZW1EYVJE55DVM1OU1EO,3,4
43,4,object_10,object_04,833.29999995232,7,1,627.69999992847,0.4444444444444444,1,object_06,5,326,0,4,9,restaurant_8,1,memory-2step-stake-s,549,1810333,0.0-19.0-0.0-0.43,A2NA6X1SON3KFH,3MQKOF1EF54KJDI76AN431783D3WDT,3DI28L7YXEUZW1EYVJE55DVM1OU1EO,7,8
44,3,object_02,object_01,1011.7000000477,6,1,643.39999997616,1.0,2,object_07,5,371,0,2,9,library_6,1,memory-2step-stake-s,550,1819101,0.0-19.0-0.0-0.44,A2NA6X1SON3KFH,3MQKOF1EF54KJDI76AN431783D3WDT,3DI28L7YXEUZW1EYVJE55DVM1OU1EO,6,5
45,1,object_09,object_08,967.70000004768,2,1,487.80000007153,1.0,2,object_07,5,416,0,3,9,desert_2,1,memory-2step-stake-s,551,1827713,0.0-19.0-0.0-0.45,A2NA6X1SON3KFH,3MQKOF1EF54KJDI76AN431783D3WDT,3DI28L7YXEUZW1EYVJE55DVM1OU1EO,2,1
46,4,object_10,object_04,832.0,7,1,475.0,0.5555555555555556,1,object_06,5,441,0,5,7,restaurant_8,1,memory-2step-stake-s,552,1835909,0.0-19.0-0.0-0.46,A2NA6X1SON3KFH,3MQKOF1EF54KJDI76AN431783D3WDT,3DI28L7YXEUZW1EYVJE55DVM1OU1EO,7,8
47,2,object_05,object_03,809.5,4,2,529.5,0.8888888888888888,2,object_07,1,449,0,4,8,forest_1,1,memory-2step-stake-s,553,1844462,0.0-19.0-0.0-0.47,A2NA6X1SON3KFH,3MQKOF1EF54KJDI76AN431783D3WDT,3DI28L7YXEUZW1EYVJE55DVM1OU1EO,3,4
48,1,object_09,object_08,896.0,1,2,640.29999995232,0.4444444444444444,1,object_06,5,469,0,4,6,desert_8,1,memory-2step-stake-s,554,1852722,0.0-19.0-0.0-0.48,A2NA6X1SON3KFH,3MQKOF1EF54KJDI76AN431783D3WDT,3DI28L7YXEUZW1EYVJE55DVM1OU1EO,2,1
49,4,object_10,object_04,723.0,8,2,579.20000004768,0.7777777777777778,2,object_07,5,504,0,4,7,restaurant_6,1,memory-2step-stake-s,555,1861224,0.0-19.0-0.0-0.49,A2NA6X1SON3KFH,3MQKOF1EF54KJDI76AN431783D3WDT,3DI28L7YXEUZW1EYVJE55DVM1OU1EO,7,8
50,4,object_04,object_10,757.39999997616,7,2,564.5,0.6666666666666666,1,object_06,1,510,0,6,8,restaurant_4,1,memory-2step-stake-s,556,1869611,0.0-19.0-0.0-0.50,A2NA6X1SON3KFH,3MQKOF1EF54KJDI76AN431783D3WDT,3DI28L7YXEUZW1EYVJE55DVM1OU1EO,8,7
51,2,object_03,object_05,844.79999995232,4,1,526.90000009537,0.5555555555555556,2,object_07,1,515,0,1,5,forest_7,1,memory-2step-stake-s,557,1877859,0.0-19.0-0.0-0.51,A2NA6X1SON3KFH,3MQKOF1EF54KJDI76AN431783D3WDT,3DI28L7YXEUZW1EYVJE55DVM1OU1EO,4,3
52,1,object_09,object_08,735.29999995232,2,1,505.5,0.8888888888888888,2,object_07,1,523,0,1,8,desert_1,1,memory-2step-stake-s,558,1886386,0.0-19.0-0.0-0.52,A2NA6X1SON3KFH,3MQKOF1EF54KJDI76AN431783D3WDT,3DI28L7YXEUZW1EYVJE55DVM1OU1EO,2,1
53,3,object_02,object_01,757.89999997616,6,1,526.70000004768,0.5555555555555556,2,object_07,5,548,0,0,5,library_3,1,memory-2step-stake-s,559,1894635,0.0-19.0-0.0-0.53,A2NA6X1SON3KFH,3MQKOF1EF54KJDI76AN431783D3WDT,3DI28L7YXEUZW1EYVJE55DVM1OU1EO,6,5
54,4,object_04,object_10,895.20000004768,8,1,715.60000002384,0.2222222222222222,2,object_07,1,550,0,5,2,restaurant_4,1,memory-2step-stake-s,560,1902768,0.0-19.0-0.0-0.54,A2NA6X1SON3KFH,3MQKOF1EF54KJDI76AN431783D3WDT,3DI28L7YXEUZW1EYVJE55DVM1OU1EO,8,7
55,4,object_10,object_04,700.0,7,1,581.29999995232,0.4444444444444444,1,object_06,5,570,0,4,1,restaurant_6,1,memory-2step-stake-s,561,1910969,0.0-19.0-0.0-0.55,A2NA6X1SON3KFH,3MQKOF1EF54KJDI76AN431783D3WDT,3DI28L7YXEUZW1EYVJE55DVM1OU1EO,7,8
56,2,object_03,object_05,774.39999997616,4,1,681.89999997616,0.2222222222222222,2,object_07,1,572,0,4,2,forest_7,1,memory-2step-stake-s,562,1919069,0.0-19.0-0.0-0.56,A2NA6X1SON3KFH,3MQKOF1EF54KJDI76AN431783D3WDT,3DI28L7YXEUZW1EYVJE55DVM1OU1EO,4,3
57,3,object_01,object_02,913.0,5,1,506.29999995232,0.2222222222222222,1,object_06,5,582,0,2,0,library_6,1,memory-2step-stake-s,563,1926993,0.0-19.0-0.0-0.57,A2NA6X1SON3KFH,3MQKOF1EF54KJDI76AN431783D3WDT,3DI28L7YXEUZW1EYVJE55DVM1OU1EO,5,6
58,2,object_05,object_03,851.0,3,1,456.0,0.3333333333333333,1,object_06,1,585,0,3,3,forest_8,1,memory-2step-stake-s,564,1934969,0.0-19.0-0.0-0.58,A2NA6X1SON3KFH,3MQKOF1EF54KJDI76AN431783D3WDT,3DI28L7YXEUZW1EYVJE55DVM1OU1EO,3,4
59,4,object_04,object_10,961.69999992847,8,1,519.0,0.5555555555555556,2,object_07,1,590,0,3,5,restaurant_8,1,memory-2step-stake-s,565,1943210,0.0-19.0-0.0-0.59,A2NA6X1SON3KFH,3MQKOF1EF54KJDI76AN431783D3WDT,3DI28L7YXEUZW1EYVJE55DVM1OU1EO,8,7
60,4,object_04,object_10,1009.0999999046,8,1,553.79999995232,0.4444444444444444,2,object_07,5,610,0,9,4,restaurant_4,1,memory-2step-stake-s,566,1951383,0.0-19.0-0.0-0.60,A2NA6X1SON3KFH,3MQKOF1EF54KJDI76AN431783D3WDT,3DI28L7YXEUZW1EYVJE55DVM1OU1EO,8,7
61,2,object_05,object_03,835.89999997616,4,2,404.19999992847,0.2222222222222222,2,object_07,1,612,0,8,2,forest_7,1,memory-2step-stake-s,567,1959205,0.0-19.0-0.0-0.61,A2NA6X1SON3KFH,3MQKOF1EF54KJDI76AN431783D3WDT,3DI28L7YXEUZW1EYVJE55DVM1OU1EO,3,4
62,3,object_01,object_02,888.69999992847,5,1,620.60000002384,0.8888888888888888,1,object_06,5,652,0,8,4,library_3,1,memory-2step-stake-s,568,1967848,0.0-19.0-0.0-0.62,A2NA6X1SON3KFH,3MQKOF1EF54KJDI76AN431783D3WDT,3DI28L7YXEUZW1EYVJE55DVM1OU1EO,5,6
63,3,object_01,object_02,994.59999990463,5,1,226.70000004768,0.8888888888888888,1,object_06,5,692,0,8,7,library_3,1,memory-2step-stake-s,569,1976098,0.0-19.0-0.0-0.63,A2NA6X1SON3KFH,3MQKOF1EF54KJDI76AN431783D3WDT,3DI28L7YXEUZW1EYVJE55DVM1OU1EO,5,6
64,4,object_10,object_04,920.29999995232,7,1,515.0,0.8888888888888888,1,object_06,5,732,0,8,8,restaurant_3,1,memory-2step-stake-s,570,1984637,0.0-19.0-0.0-0.64,A2NA6X1SON3KFH,3MQKOF1EF54KJDI76AN431783D3WDT,3DI28L7YXEUZW1EYVJE55DVM1OU1EO,7,8
65,1,object_09,object_08,856.60000002384,2,1,501.09999990463,0.8888888888888888,2,object_07,5,772,0,5,8,desert_8,1,memory-2step-stake-s,571,1993160,0.0-19.0-0.0-0.65,A2NA6X1SON3KFH,3MQKOF1EF54KJDI76AN431783D3WDT,3DI28L7YXEUZW1EYVJE55DVM1OU1EO,2,1
66,3,object_01,object_02,807.69999992847,5,1,489.60000002384,0.6666666666666666,1,object_06,1,778,0,6,7,library_6,1,memory-2step-stake-s,572,2001473,0.0-19.0-0.0-0.66,A2NA6X1SON3KFH,3MQKOF1EF54KJDI76AN431783D3WDT,3DI28L7YXEUZW1EYVJE55DVM1OU1EO,5,6
67,3,object_02,object_01,820.19999992847,5,2,377.10000002384,0.7777777777777778,1,object_06,5,813,0,7,6,library_3,1,memory-2step-stake-s,573,2009774,0.0-19.0-0.0-0.67,A2NA6X1SON3KFH,3MQKOF1EF54KJDI76AN431783D3WDT,3DI28L7YXEUZW1EYVJE55DVM1OU1EO,6,5
68,4,object_04,object_10,844.60000002384,8,1,413.79999995232,0.3333333333333333,2,object_07,5,828,0,4,3,restaurant_3,1,memory-2step-stake-s,574,2017705,0.0-19.0-0.0-0.68,A2NA6X1SON3KFH,3MQKOF1EF54KJDI76AN431783D3WDT,3DI28L7YXEUZW1EYVJE55DVM1OU1EO,8,7
69,2,object_03,object_05,837.5,4,1,332.70000004768,0.3333333333333333,2,object_07,1,831,0,0,3,forest_4,1,memory-2step-stake-s,575,2025556,0.0-19.0-0.0-0.69,A2NA6X1SON3KFH,3MQKOF1EF54KJDI76AN431783D3WDT,3DI28L7YXEUZW1EYVJE55DVM1OU1EO,4,3
70,3,object_02,object_01,962.09999990463,6,1,481.29999995232,0.0,2,object_07,5,831,0,0,0,library_8,1,memory-2step-stake-s,576,2033254,0.0-19.0-0.0-0.70,A2NA6X1SON3KFH,3MQKOF1EF54KJDI76AN431783D3WDT,3DI28L7YXEUZW1EYVJE55DVM1OU1EO,6,5
71,1,object_09,object_08,863.5,2,1,571.0,0.2222222222222222,2,object_07,1,833,0,0,2,desert_2,1,memory-2step-stake-s,577,2041241,0.0-19.0-0.0-0.71,A2NA6X1SON3KFH,3MQKOF1EF54KJDI76AN431783D3WDT,3DI28L7YXEUZW1EYVJE55DVM1OU1EO,2,1
72,4,object_04,object_10,964.0,8,1,508.60000002384,0.0,2,object_07,5,833,0,2,0,restaurant_8,1,memory-2step-stake-s,578,2048965,0.0-19.0-0.0-0.72,A2NA6X1SON3KFH,3MQKOF1EF54KJDI76AN431783D3WDT,3DI28L7YXEUZW1EYVJE55DVM1OU1EO,8,7
73,4,object_10,object_04,939.89999997616,8,2,496.19999992847,0.2222222222222222,2,object_07,5,843,0,5,2,restaurant_3,1,memory-2step-stake-s,579,2056880,0.0-19.0-0.0-0.73,A2NA6X1SON3KFH,3MQKOF1EF54KJDI76AN431783D3WDT,3DI28L7YXEUZW1EYVJE55DVM1OU1EO,7,8
74,2,object_05,object_03,912.79999995232,4,2,457.69999992847,0.2222222222222222,2,object_07,1,845,0,4,2,forest_7,1,memory-2step-stake-s,580,2064755,0.0-19.0-0.0-0.74,A2NA6X1SON3KFH,3MQKOF1EF54KJDI76AN431783D3WDT,3DI28L7YXEUZW1EYVJE55DVM1OU1EO,3,4
75,3,object_01,object_02,975.80000007153,5,1,445.09999990463,0.4444444444444444,1,object_06,5,865,0,4,3,library_6,1,memory-2step-stake-s,581,2072820,0.0-19.0-0.0-0.75,A2NA6X1SON3KFH,3MQKOF1EF54KJDI76AN431783D3WDT,3DI28L7YXEUZW1EYVJE55DVM1OU1EO,5,6
76,1,object_09,object_08,747.19999992847,2,1,554.89999997616,0.1111111111111111,2,object_07,1,866,0,3,1,desert_3,1,memory-2step-stake-s,582,2080691,0.0-19.0-0.0-0.76,A2NA6X1SON3KFH,3MQKOF1EF54KJDI76AN431783D3WDT,3DI28L7YXEUZW1EYVJE55DVM1OU1EO,2,1
77,3,object_01,object_02,977.20000004768,5,1,396.09999990463,0.2222222222222222,1,object_06,5,876,0,2,4,library_3,1,memory-2step-stake-s,583,2088504,0.0-19.0-0.0-0.77,A2NA6X1SON3KFH,3MQKOF1EF54KJDI76AN431783D3WDT,3DI28L7YXEUZW1EYVJE55DVM1OU1EO,5,6
78,1,object_08,object_09,855.29999995232,2,2,275.79999995232,0.4444444444444444,2,object_07,1,880,0,4,4,desert_2,1,memory-2step-stake-s,584,2096395,0.0-19.0-0.0-0.78,A2NA6X1SON3KFH,3MQKOF1EF54KJDI76AN431783D3WDT,3DI28L7YXEUZW1EYVJE55DVM1OU1EO,1,2
79,2,object_05,object_03,763.40000009537,4,2,397.30000007153,0.8888888888888888,2,object_07,5,920,0,6,8,forest_1,1,memory-2step-stake-s,585,2104812,0.0-19.0-0.0-0.79,A2NA6X1SON3KFH,3MQKOF1EF54KJDI76AN431783D3WDT,3DI28L7YXEUZW1EYVJE55DVM1OU1EO,3,4
80,1,object_08,object_09,1009.0,1,1,277.5,0.7777777777777778,1,object_06,5,955,0,7,6,desert_8,1,memory-2step-stake-s,586,2113010,0.0-19.0-0.0-0.80,A2NA6X1SON3KFH,3MQKOF1EF54KJDI76AN431783D3WDT,3DI28L7YXEUZW1EYVJE55DVM1OU1EO,1,2
81,2,object_03,object_05,762.60000002384,3,2,544.90000009537,0.8888888888888888,1,object_06,1,963,0,8,8,forest_7,1,memory-2step-stake-s,587,2121574,0.0-19.0-0.0-0.81,A2NA6X1SON3KFH,3MQKOF1EF54KJDI76AN431783D3WDT,3DI28L7YXEUZW1EYVJE55DVM1OU1EO,4,3
82,2,object_03,object_05,785.79999995232,4,1,493.69999992847,1.0,2,object_07,5,1008,0,7,9,forest_1,1,memory-2step-stake-s,588,2130187,0.0-19.0-0.0-0.82,A2NA6X1SON3KFH,3MQKOF1EF54KJDI76AN431783D3WDT,3DI28L7YXEUZW1EYVJE55DVM1OU1EO,4,3
83,4,object_04,object_10,1058.1000000238,7,2,516.20000004768,0.8888888888888888,1,object_06,5,1048,0,8,7,restaurant_3,1,memory-2step-stake-s,589,2138723,0.0-19.0-0.0-0.83,A2NA6X1SON3KFH,3MQKOF1EF54KJDI76AN431783D3WDT,3DI28L7YXEUZW1EYVJE55DVM1OU1EO,8,7
84,1,object_09,object_08,848.20000004768,1,2,469.0,0.6666666666666666,1,object_06,1,1054,0,6,9,desert_3,1,memory-2step-stake-s,590,2147008,0.0-19.0-0.0-0.84,A2NA6X1SON3KFH,3MQKOF1EF54KJDI76AN431783D3WDT,3DI28L7YXEUZW1EYVJE55DVM1OU1EO,2,1
85,3,object_02,object_01,963.60000002384,5,2,609.40000009537,1.0,1,object_06,5,1099,0,9,7,library_4,1,memory-2step-stake-s,591,2155736,0.0-19.0-0.0-0.85,A2NA6X1SON3KFH,3MQKOF1EF54KJDI76AN431783D3WDT,3DI28L7YXEUZW1EYVJE55DVM1OU1EO,6,5
86,2,object_03,object_05,921.79999995232,3,2,293.09999990463,0.8888888888888888,1,object_06,5,1139,0,8,9,forest_7,1,memory-2step-stake-s,592,2164048,0.0-19.0-0.0-0.86,A2NA6X1SON3KFH,3MQKOF1EF54KJDI76AN431783D3WDT,3DI28L7YXEUZW1EYVJE55DVM1OU1EO,4,3
87,1,object_08,object_09,960.40000009537,1,1,417.60000002384,0.5555555555555556,1,object_06,1,1144,0,5,6,desert_8,1,memory-2step-stake-s,593,2172183,0.0-19.0-0.0-0.87,A2NA6X1SON3KFH,3MQKOF1EF54KJDI76AN431783D3WDT,3DI28L7YXEUZW1EYVJE55DVM1OU1EO,1,2
88,1,object_08,object_09,761.79999995232,1,1,644.80000007153,0.5555555555555556,1,object_06,1,1149,0,5,6,desert_1,1,memory-2step-stake-s,594,2180546,0.0-19.0-0.0-0.88,A2NA6X1SON3KFH,3MQKOF1EF54KJDI76AN431783D3WDT,3DI28L7YXEUZW1EYVJE55DVM1OU1EO,1,2
89,1,object_09,object_08,788.39999997616,1,2,370.69999992847,0.8888888888888888,1,object_06,1,1157,0,8,6,desert_2,1,memory-2step-stake-s,595,2188935,0.0-19.0-0.0-0.89,A2NA6X1SON3KFH,3MQKOF1EF54KJDI76AN431783D3WDT,3DI28L7YXEUZW1EYVJE55DVM1OU1EO,2,1
90,3,object_02,object_01,760.60000002384,5,2,518.60000002384,0.7777777777777778,1,object_06,1,1164,0,7,7,library_3,1,memory-2step-stake-s,596,2197373,0.0-19.0-0.0-0.90,A2NA6X1SON3KFH,3MQKOF1EF54KJDI76AN431783D3WDT,3DI28L7YXEUZW1EYVJE55DVM1OU1EO,6,5
91,1,object_08,object_09,809.0,1,1,454.79999995232,0.6666666666666666,1,object_06,1,1170,0,6,5,desert_1,1,memory-2step-stake-s,597,2205647,0.0-19.0-0.0-0.91,A2NA6X1SON3KFH,3MQKOF1EF54KJDI76AN431783D3WDT,3DI28L7YXEUZW1EYVJE55DVM1OU1EO,1,2
92,4,object_10,object_04,874.5,7,1,469.69999992847,0.5555555555555556,1,object_06,5,1195,0,5,2,restaurant_8,1,memory-2step-stake-s,598,2213833,0.0-19.0-0.0-0.92,A2NA6X1SON3KFH,3MQKOF1EF54KJDI76AN431783D3WDT,3DI28L7YXEUZW1EYVJE55DVM1OU1EO,7,8
93,3,object_01,object_02,1061.8999999762,6,2,368.69999992847,0.3333333333333333,2,object_07,1,1198,0,3,3,library_4,1,memory-2step-stake-s,599,2221717,0.0-19.0-0.0-0.93,A2NA6X1SON3KFH,3MQKOF1EF54KJDI76AN431783D3WDT,3DI28L7YXEUZW1EYVJE55DVM1OU1EO,5,6
94,2,object_05,object_03,877.79999995232,4,2,-1.0,0.0,2,object_07,1,1198,0,3,5,forest_1,1,memory-2step-stake-s,600,2230227,0.0-19.0-0.0-0.94,A2NA6X1SON3KFH,3MQKOF1EF54KJDI76AN431783D3WDT,3DI28L7YXEUZW1EYVJE55DVM1OU1EO,3,4
95,2,object_03,object_05,717.89999997616,4,1,288.29999995232,0.3333333333333333,2,object_07,1,1201,0,1,3,forest_8,1,memory-2step-stake-s,601,2238029,0.0-19.0-0.0-0.95,A2NA6X1SON3KFH,3MQKOF1EF54KJDI76AN431783D3WDT,3DI28L7YXEUZW1EYVJE55DVM1OU1EO,4,3
96,1,object_08,object_09,764.89999997616,1,1,259.09999990463,0.1111111111111111,1,object_06,5,1206,0,1,3,desert_3,1,memory-2step-stake-s,602,2245603,0.0-19.0-0.0-0.96,A2NA6X1SON3KFH,3MQKOF1EF54KJDI76AN431783D3WDT,3DI28L7YXEUZW1EYVJE55DVM1OU1EO,1,2
97,2,object_03,object_05,817.20000004768,4,1,263.20000004768,0.3333333333333333,2,object_07,1,1209,0,3,3,forest_1,1,memory-2step-stake-s,603,2253379,0.0-19.0-0.0-0.97,A2NA6X1SON3KFH,3MQKOF1EF54KJDI76AN431783D3WDT,3DI28L7YXEUZW1EYVJE55DVM1OU1EO,4,3
98,2,object_03,object_05,916.0,3,2,448.60000002384,0.3333333333333333,1,object_06,1,1212,0,3,5,forest_1,1,memory-2step-stake-s,604,2261342,0.0-19.0-0.0-0.98,A2NA6X1SON3KFH,3MQKOF1EF54KJDI76AN431783D3WDT,3DI28L7YXEUZW1EYVJE55DVM1OU1EO,4,3
99,3,object_02,object_01,876.60000002384,5,2,323.20000004768,0.2222222222222222,1,object_06,5,1222,0,2,5,library_4,1,memory-2step-stake-s,605,2269078,0.0-19.0-0.0-0.99,A2NA6X1SON3KFH,3MQKOF1EF54KJDI76AN431783D3WDT,3DI28L7YXEUZW1EYVJE55DVM1OU1EO,6,5
100,2,object_05,object_03,903.70000004768,3,1,586.70000004768,0.2222222222222222,1,object_06,1,1224,0,2,2,forest_4,1,memory-2step-stake-s,606,2277077,0.0-19.0-0.0-0.100,A2NA6X1SON3KFH,3MQKOF1EF54KJDI76AN431783D3WDT,3DI28L7YXEUZW1EYVJE55DVM1OU1EO,3,4
101,1,object_09,object_08,804.30000007153,1,2,398.60000002384,0.0,1,object_06,5,1224,0,0,5,desert_1,1,memory-2step-stake-s,607,2284688,0.0-19.0-0.0-0.101,A2NA6X1SON3KFH,3MQKOF1EF54KJDI76AN431783D3WDT,3DI28L7YXEUZW1EYVJE55DVM1OU1EO,2,1
102,4,object_04,object_10,1055.7999999523,7,2,375.39999997616,0.4444444444444444,1,object_06,5,1244,0,4,4,restaurant_3,1,memory-2step-stake-s,608,2292680,0.0-19.0-0.0-0.102,A2NA6X1SON3KFH,3MQKOF1EF54KJDI76AN431783D3WDT,3DI28L7YXEUZW1EYVJE55DVM1OU1EO,8,7
103,4,object_10,object_04,1076.5,7,1,434.30000007153,0.2222222222222222,1,object_06,1,1246,0,2,7,restaurant_8,1,memory-2step-stake-s,609,2300527,0.0-19.0-0.0-0.103,A2NA6X1SON3KFH,3MQKOF1EF54KJDI76AN431783D3WDT,3DI28L7YXEUZW1EYVJE55DVM1OU1EO,7,8
104,1,object_09,object_08,854.39999997616,2,1,375.10000002384,0.3333333333333333,2,object_07,5,1261,0,1,3,desert_1,1,memory-2step-stake-s,610,2308416,0.0-19.0-0.0-0.104,A2NA6X1SON3KFH,3MQKOF1EF54KJDI76AN431783D3WDT,3DI28L7YXEUZW1EYVJE55DVM1OU1EO,2,1
105,4,object_04,object_10,1054.2000000477,7,2,287.0,0.1111111111111111,1,object_06,5,1266,0,1,3,restaurant_8,1,memory-2step-stake-s,611,2316014,0.0-19.0-0.0-0.105,A2NA6X1SON3KFH,3MQKOF1EF54KJDI76AN431783D3WDT,3DI28L7YXEUZW1EYVJE55DVM1OU1EO,8,7
106,2,object_03,object_05,917.80000007153,4,1,325.70000004768,0.4444444444444444,2,object_07,5,1286,0,3,4,forest_4,1,memory-2step-stake-s,612,2323955,0.0-19.0-0.0-0.106,A2NA6X1SON3KFH,3MQKOF1EF54KJDI76AN431783D3WDT,3DI28L7YXEUZW1EYVJE55DVM1OU1EO,4,3
107,3,object_01,object_02,1089.3999999762,5,1,321.79999995232,0.8888888888888888,1,object_06,5,1326,0,8,3,library_6,1,memory-2step-stake-s,613,2332298,0.0-19.0-0.0-0.107,A2NA6X1SON3KFH,3MQKOF1EF54KJDI76AN431783D3WDT,3DI28L7YXEUZW1EYVJE55DVM1OU1EO,5,6
108,1,object_09,object_08,971.0,2,1,428.60000002384,0.4444444444444444,2,object_07,1,1330,0,9,4,desert_3,1,memory-2step-stake-s,614,2340343,0.0-19.0-0.0-0.108,A2NA6X1SON3KFH,3MQKOF1EF54KJDI76AN431783D3WDT,3DI28L7YXEUZW1EYVJE55DVM1OU1EO,2,1
109,4,object_10,object_04,953.30000007153,7,1,348.70000004768,0.7777777777777778,1,object_06,5,1365,0,7,6,restaurant_8,1,memory-2step-stake-s,615,2348609,0.0-19.0-0.0-0.109,A2NA6X1SON3KFH,3MQKOF1EF54KJDI76AN431783D3WDT,3DI28L7YXEUZW1EYVJE55DVM1OU1EO,7,8
110,3,object_01,object_02,785.5,5,1,630.19999992847,0.7777777777777778,1,object_06,5,1400,0,7,6,library_8,1,memory-2step-stake-s,616,2357159,0.0-19.0-0.0-0.110,A2NA6X1SON3KFH,3MQKOF1EF54KJDI76AN431783D3WDT,3DI28L7YXEUZW1EYVJE55DVM1OU1EO,5,6
111,1,object_08,object_09,772.40000009537,2,2,506.39999997616,0.5555555555555556,2,object_07,1,1405,0,8,5,desert_2,1,memory-2step-stake-s,617,2365382,0.0-19.0-0.0-0.111,A2NA6X1SON3KFH,3MQKOF1EF54KJDI76AN431783D3WDT,3DI28L7YXEUZW1EYVJE55DVM1OU1EO,1,2
112,1,object_08,object_09,948.10000002384,1,1,432.19999992847,0.5555555555555556,1,object_06,1,1410,0,5,4,desert_3,1,memory-2step-stake-s,618,2373532,0.0-19.0-0.0-0.112,A2NA6X1SON3KFH,3MQKOF1EF54KJDI76AN431783D3WDT,3DI28L7YXEUZW1EYVJE55DVM1OU1EO,1,2
113,1,object_08,object_09,973.5,1,1,494.09999990463,0.5555555555555556,1,object_06,1,1415,0,5,6,desert_3,1,memory-2step-stake-s,619,2381746,0.0-19.0-0.0-0.113,A2NA6X1SON3KFH,3MQKOF1EF54KJDI76AN431783D3WDT,3DI28L7YXEUZW1EYVJE55DVM1OU1EO,1,2
114,3,object_01,object_02,885.69999992847,5,1,344.19999992847,0.4444444444444444,1,object_06,5,1435,0,4,9,library_4,1,memory-2step-stake-s,620,2389706,0.0-19.0-0.0-0.114,A2NA6X1SON3KFH,3MQKOF1EF54KJDI76AN431783D3WDT,3DI28L7YXEUZW1EYVJE55DVM1OU1EO,5,6
115,3,object_01,object_02,951.70000004768,6,2,496.40000009537,0.7777777777777778,2,object_07,5,1470,0,8,7,library_3,1,memory-2step-stake-s,621,2398119,0.0-19.0-0.0-0.115,A2NA6X1SON3KFH,3MQKOF1EF54KJDI76AN431783D3WDT,3DI28L7YXEUZW1EYVJE55DVM1OU1EO,5,6
116,2,object_05,object_03,937.19999992847,4,2,358.89999997616,0.7777777777777778,2,object_07,5,1505,0,6,7,forest_7,1,memory-2step-stake-s,622,2406395,0.0-19.0-0.0-0.116,A2NA6X1SON3KFH,3MQKOF1EF54KJDI76AN431783D3WDT,3DI28L7YXEUZW1EYVJE55DVM1OU1EO,3,4
117,2,object_05,object_03,750.70000004768,4,2,484.19999992847,0.8888888888888888,2,object_07,1,1513,0,7,8,forest_8,1,memory-2step-stake-s,623,2414896,0.0-19.0-0.0-0.117,A2NA6X1SON3KFH,3MQKOF1EF54KJDI76AN431783D3WDT,3DI28L7YXEUZW1EYVJE55DVM1OU1EO,3,4
118,4,object_04,object_10,799.79999995232,8,1,532.70000004768,0.7777777777777778,2,object_07,1,1520,0,8,7,restaurant_6,1,memory-2step-stake-s,624,2423345,0.0-19.0-0.0-0.118,A2NA6X1SON3KFH,3MQKOF1EF54KJDI76AN431783D3WDT,3DI28L7YXEUZW1EYVJE55DVM1OU1EO,8,7
119,4,object_04,object_10,811.0,8,1,431.80000007153,0.4444444444444444,2,object_07,5,1540,0,9,4,restaurant_8,1,memory-2step-stake-s,625,2431393,0.0-19.0-0.0-0.119,A2NA6X1SON3KFH,3MQKOF1EF54KJDI76AN431783D3WDT,3DI28L7YXEUZW1EYVJE55DVM1OU1EO,8,7
120,1,object_08,object_09,838.0,2,2,483.0,0.4444444444444444,2,object_07,1,1544,0,6,4,desert_2,1,memory-2step-stake-s,626,2439493,0.0-19.0-0.0-0.120,A2NA6X1SON3KFH,3MQKOF1EF54KJDI76AN431783D3WDT,3DI28L7YXEUZW1EYVJE55DVM1OU1EO,1,2
121,3,object_02,object_01,850.5,6,1,371.0,0.5555555555555556,2,object_07,1,1549,0,6,5,library_3,1,memory-2step-stake-s,627,2447582,0.0-19.0-0.0-0.121,A2NA6X1SON3KFH,3MQKOF1EF54KJDI76AN431783D3WDT,3DI28L7YXEUZW1EYVJE55DVM1OU1EO,6,5
122,3,object_02,object_01,950.80000007153,5,2,332.60000002384,0.6666666666666666,1,object_06,5,1579,0,6,2,library_6,1,memory-2step-stake-s,628,2455734,0.0-19.0-0.0-0.122,A2NA6X1SON3KFH,3MQKOF1EF54KJDI76AN431783D3WDT,3DI28L7YXEUZW1EYVJE55DVM1OU1EO,6,5
123,2,object_03,object_05,861.10000002384,4,1,469.80000007153,0.1111111111111111,2,object_07,1,1580,0,7,1,forest_7,1,memory-2step-stake-s,629,2463515,0.0-19.0-0.0-0.123,A2NA6X1SON3KFH,3MQKOF1EF54KJDI76AN431783D3WDT,3DI28L7YXEUZW1EYVJE55DVM1OU1EO,4,3
124,2,object_03,object_05,866.79999995232,3,2,423.89999997616,0.8888888888888888,1,object_06,1,1588,0,8,3,forest_1,1,memory-2step-stake-s,630,2471960,0.0-19.0-0.0-0.124,A2NA6X1SON3KFH,3MQKOF1EF54KJDI76AN431783D3WDT,3DI28L7YXEUZW1EYVJE55DVM1OU1EO,4,3
125,4,object_10,object_04,833.5,7,1,891.89999997616,1.0,1,object_06,1,1597,0,9,3,restaurant_6,1,memory-2step-stake-s,631,2480974,0.0-19.0-0.0-0.125,A2NA6X1SON3KFH,3MQKOF1EF54KJDI76AN431783D3WDT,3DI28L7YXEUZW1EYVJE55DVM1OU1EO,7,8
126,1,object_08,object_09,1058.3000000715,1,1,365.0,0.7777777777777778,1,object_06,1,1604,0,7,2,desert_8,1,memory-2step-stake-s,632,2489257,0.0-19.0-0.0-0.126,A2NA6X1SON3KFH,3MQKOF1EF54KJDI76AN431783D3WDT,3DI28L7YXEUZW1EYVJE55DVM1OU1EO,1,2
127,3,object_01,object_02,1074.3999999762,6,2,470.10000002384,0.0,2,object_07,1,1604,0,8,0,library_3,1,memory-2step-stake-s,633,2496939,0.0-19.0-0.0-0.127,A2NA6X1SON3KFH,3MQKOF1EF54KJDI76AN431783D3WDT,3DI28L7YXEUZW1EYVJE55DVM1OU1EO,5,6
128,3,object_01,object_02,1034.5,5,1,266.69999992847,0.7777777777777778,1,object_06,1,1611,0,7,1,library_3,1,memory-2step-stake-s,635,2513147,0.0-19.0-0.1-0.128,A2NA6X1SON3KFH,3MQKOF1EF54KJDI76AN431783D3WDT,3DI28L7YXEUZW1EYVJE55DVM1OU1EO,5,6
129,4,object_10,object_04,1046.8999999762,7,1,317.79999995232,0.7777777777777778,1,object_06,5,1646,0,7,2,restaurant_6,1,memory-2step-stake-s,636,2521382,0.0-19.0-0.1-0.129,A2NA6X1SON3KFH,3MQKOF1EF54KJDI76AN431783D3WDT,3DI28L7YXEUZW1EYVJE55DVM1OU1EO,7,8
130,1,object_09,object_08,937.39999997616,1,2,382.10000002384,0.8888888888888888,1,object_06,1,1654,0,8,2,desert_1,1,memory-2step-stake-s,637,2529785,0.0-19.0-0.1-0.130,A2NA6X1SON3KFH,3MQKOF1EF54KJDI76AN431783D3WDT,3DI28L7YXEUZW1EYVJE55DVM1OU1EO,2,1
131,1,object_09,object_08,984.79999995232,1,2,404.5,0.7777777777777778,1,object_06,1,1661,0,7,2,desert_1,1,memory-2step-stake-s,638,2538109,0.0-19.0-0.1-0.131,A2NA6X1SON3KFH,3MQKOF1EF54KJDI76AN431783D3WDT,3DI28L7YXEUZW1EYVJE55DVM1OU1EO,2,1
132,1,object_08,object_09,1347.0,1,1,380.90000009537,0.2222222222222222,1,object_06,1,1663,0,2,1,desert_8,1,memory-2step-stake-s,639,2545903,0.0-19.0-0.1-0.132,A2NA6X1SON3KFH,3MQKOF1EF54KJDI76AN431783D3WDT,3DI28L7YXEUZW1EYVJE55DVM1OU1EO,1,2
133,3,object_01,object_02,1004.2000000477,5,1,324.40000009537,0.0,1,object_06,5,1663,0,0,1,library_6,1,memory-2step-stake-s,640,2553441,0.0-19.0-0.1-0.133,A2NA6X1SON3KFH,3MQKOF1EF54KJDI76AN431783D3WDT,3DI28L7YXEUZW1EYVJE55DVM1OU1EO,5,6
134,3,object_01,object_02,479.10000002384,6,2,311.39999997616,0.1111111111111111,2,object_07,5,1668,0,0,1,library_6,1,memory-2step-stake-s,641,2561064,0.0-19.0-0.1-0.134,A2NA6X1SON3KFH,3MQKOF1EF54KJDI76AN431783D3WDT,3DI28L7YXEUZW1EYVJE55DVM1OU1EO,5,6
135,2,object_03,object_05,743.20000004768,4,1,413.39999997616,0.2222222222222222,2,object_07,1,1670,0,1,2,forest_8,1,memory-2step-stake-s,642,2568890,0.0-19.0-0.1-0.135,A2NA6X1SON3KFH,3MQKOF1EF54KJDI76AN431783D3WDT,3DI28L7YXEUZW1EYVJE55DVM1OU1EO,4,3
136,2,object_03,object_05,978.20000004768,3,2,423.80000007153,0.2222222222222222,1,object_06,1,1672,0,2,4,forest_8,1,memory-2step-stake-s,643,2576727,0.0-19.0-0.1-0.136,A2NA6X1SON3KFH,3MQKOF1EF54KJDI76AN431783D3WDT,3DI28L7YXEUZW1EYVJE55DVM1OU1EO,4,3
137,4,object_10,object_04,778.89999997616,7,1,297.89999997616,0.3333333333333333,1,object_06,5,1687,0,3,8,restaurant_6,1,memory-2step-stake-s,644,2584540,0.0-19.0-0.1-0.137,A2NA6X1SON3KFH,3MQKOF1EF54KJDI76AN431783D3WDT,3DI28L7YXEUZW1EYVJE55DVM1OU1EO,7,8
138,1,object_08,object_09,915.10000002384,1,1,387.0,0.3333333333333333,1,object_06,5,1702,0,3,6,desert_8,1,memory-2step-stake-s,645,2592440,0.0-19.0-0.1-0.138,A2NA6X1SON3KFH,3MQKOF1EF54KJDI76AN431783D3WDT,3DI28L7YXEUZW1EYVJE55DVM1OU1EO,1,2
139,4,object_10,object_04,964.80000007153,8,2,398.29999995232,0.6666666666666666,2,object_07,5,1732,0,5,6,restaurant_4,1,memory-2step-stake-s,646,2600657,0.0-19.0-0.1-0.139,A2NA6X1SON3KFH,3MQKOF1EF54KJDI76AN431783D3WDT,3DI28L7YXEUZW1EYVJE55DVM1OU1EO,7,8
140,1,object_08,object_09,823.30000007153,1,1,255.69999992847,0.4444444444444444,1,object_06,1,1736,0,4,7,desert_3,1,memory-2step-stake-s,647,2608531,0.0-19.0-0.1-0.140,A2NA6X1SON3KFH,3MQKOF1EF54KJDI76AN431783D3WDT,3DI28L7YXEUZW1EYVJE55DVM1OU1EO,1,2
141,4,object_04,object_10,887.10000002384,7,2,496.0,0.5555555555555556,1,object_06,1,1741,0,5,9,restaurant_4,1,memory-2step-stake-s,648,2616744,0.0-19.0-0.1-0.141,A2NA6X1SON3KFH,3MQKOF1EF54KJDI76AN431783D3WDT,3DI28L7YXEUZW1EYVJE55DVM1OU1EO,8,7
142,4,object_10,object_04,749.5,7,1,420.20000004768,0.7777777777777778,1,object_06,1,1748,0,7,8,restaurant_4,1,memory-2step-stake-s,649,2625083,0.0-19.0-0.1-0.142,A2NA6X1SON3KFH,3MQKOF1EF54KJDI76AN431783D3WDT,3DI28L7YXEUZW1EYVJE55DVM1OU1EO,7,8
143,4,object_04,object_10,972.0,8,1,292.89999997616,0.6666666666666666,2,object_07,5,1778,0,8,6,restaurant_3,1,memory-2step-stake-s,650,2633194,0.0-19.0-0.1-0.143,A2NA6X1SON3KFH,3MQKOF1EF54KJDI76AN431783D3WDT,3DI28L7YXEUZW1EYVJE55DVM1OU1EO,8,7
144,2,object_03,object_05,785.60000002384,4,1,469.20000004768,0.6666666666666666,2,object_07,1,1784,0,9,6,forest_4,1,memory-2step-stake-s,651,2641481,0.0-19.0-0.1-0.144,A2NA6X1SON3KFH,3MQKOF1EF54KJDI76AN431783D3WDT,3DI28L7YXEUZW1EYVJE55DVM1OU1EO,4,3
145,4,object_04,object_10,737.20000004768,8,1,407.40000009537,0.6666666666666666,2,object_07,5,1814,0,7,6,restaurant_4,1,memory-2step-stake-s,652,2649709,0.0-19.0-0.1-0.145,A2NA6X1SON3KFH,3MQKOF1EF54KJDI76AN431783D3WDT,3DI28L7YXEUZW1EYVJE55DVM1OU1EO,8,7
146,4,object_10,object_04,710.10000002384,8,2,292.40000009537,0.5555555555555556,2,object_07,5,1839,0,8,5,restaurant_8,1,memory-2step-stake-s,653,2657718,0.0-19.0-0.1-0.146,A2NA6X1SON3KFH,3MQKOF1EF54KJDI76AN431783D3WDT,3DI28L7YXEUZW1EYVJE55DVM1OU1EO,7,8
147,3,object_02,object_01,838.29999995232,5,2,370.5,0.3333333333333333,1,object_06,1,1842,0,3,7,library_4,1,memory-2step-stake-s,654,2665603,0.0-19.0-0.1-0.147,A2NA6X1SON3KFH,3MQKOF1EF54KJDI76AN431783D3WDT,3DI28L7YXEUZW1EYVJE55DVM1OU1EO,6,5
148,4,object_10,object_04,852.20000004768,7,1,373.60000002384,0.2222222222222222,1,object_06,1,1844,0,2,6,restaurant_6,1,memory-2step-stake-s,655,2673389,0.0-19.0-0.1-0.148,A2NA6X1SON3KFH,3MQKOF1EF54KJDI76AN431783D3WDT,3DI28L7YXEUZW1EYVJE55DVM1OU1EO,7,8
149,3,object_01,object_02,1054.0,6,2,285.70000004768,0.0,2,object_07,5,1844,0,4,0,library_6,1,memory-2step-stake-s,656,2680886,0.0-19.0-0.1-0.149,A2NA6X1SON3KFH,3MQKOF1EF54KJDI76AN431783D3WDT,3DI28L7YXEUZW1EYVJE55DVM1OU1EO,5,6
150,4,object_04,object_10,832.30000007153,8,1,214.70000004768,0.3333333333333333,2,object_07,5,1859,0,4,3,restaurant_6,1,memory-2step-stake-s,657,2688616,0.0-19.0-0.1-0.150,A2NA6X1SON3KFH,3MQKOF1EF54KJDI76AN431783D3WDT,3DI28L7YXEUZW1EYVJE55DVM1OU1EO,8,7
151,3,object_02,object_01,1038.3000000715,5,2,283.39999997616,0.1111111111111111,1,object_06,5,1864,0,1,3,library_3,1,memory-2step-stake-s,658,2696213,0.0-19.0-0.1-0.151,A2NA6X1SON3KFH,3MQKOF1EF54KJDI76AN431783D3WDT,3DI28L7YXEUZW1EYVJE55DVM1OU1EO,6,5
152,4,object_04,object_10,828.60000002384,7,2,312.10000002384,0.1111111111111111,1,object_06,5,1869,0,1,1,restaurant_3,1,memory-2step-stake-s,659,2703836,0.0-19.0-0.1-0.152,A2NA6X1SON3KFH,3MQKOF1EF54KJDI76AN431783D3WDT,3DI28L7YXEUZW1EYVJE55DVM1OU1EO,8,7
153,2,object_05,object_03,920.80000007153,4,2,516.10000002384,0.1111111111111111,2,object_07,1,1870,0,1,1,forest_4,1,memory-2step-stake-s,660,2711662,0.0-19.0-0.1-0.153,A2NA6X1SON3KFH,3MQKOF1EF54KJDI76AN431783D3WDT,3DI28L7YXEUZW1EYVJE55DVM1OU1EO,3,4
154,2,object_03,object_05,830.70000004768,4,1,264.39999997616,0.3333333333333333,2,object_07,5,1885,0,1,3,forest_1,1,memory-2step-stake-s,661,2719440,0.0-19.0-0.1-0.154,A2NA6X1SON3KFH,3MQKOF1EF54KJDI76AN431783D3WDT,3DI28L7YXEUZW1EYVJE55DVM1OU1EO,4,3
155,2,object_05,object_03,739.39999997616,4,2,373.29999995232,0.1111111111111111,2,object_07,1,1886,0,4,1,forest_4,1,memory-2step-stake-s,662,2727125,0.0-19.0-0.1-0.155,A2NA6X1SON3KFH,3MQKOF1EF54KJDI76AN431783D3WDT,3DI28L7YXEUZW1EYVJE55DVM1OU1EO,3,4
156,3,object_02,object_01,917.59999990463,6,1,285.79999995232,0.2222222222222222,2,object_07,1,1888,0,4,2,library_4,1,memory-2step-stake-s,663,2734828,0.0-19.0-0.1-0.156,A2NA6X1SON3KFH,3MQKOF1EF54KJDI76AN431783D3WDT,3DI28L7YXEUZW1EYVJE55DVM1OU1EO,6,5
157,3,object_01,object_02,741.60000002384,5,1,248.59999990463,0.2222222222222222,1,object_06,5,1898,0,2,3,library_4,1,memory-2step-stake-s,664,2742489,0.0-19.0-0.1-0.157,A2NA6X1SON3KFH,3MQKOF1EF54KJDI76AN431783D3WDT,3DI28L7YXEUZW1EYVJE55DVM1OU1EO,5,6
158,4,object_10,object_04,1103.6000000238,7,1,448.19999992847,0.2222222222222222,1,object_06,5,1908,0,2,7,restaurant_3,1,memory-2step-stake-s,665,2750351,0.0-19.0-0.1-0.158,A2NA6X1SON3KFH,3MQKOF1EF54KJDI76AN431783D3WDT,3DI28L7YXEUZW1EYVJE55DVM1OU1EO,7,8
159,3,object_02,object_01,703.39999997616,5,2,437.09999990463,0.2222222222222222,1,object_06,5,1918,0,2,6,library_8,1,memory-2step-stake-s,666,2758201,0.0-19.0-0.1-0.159,A2NA6X1SON3KFH,3MQKOF1EF54KJDI76AN431783D3WDT,3DI28L7YXEUZW1EYVJE55DVM1OU1EO,6,5
160,2,object_05,object_03,804.39999997616,4,2,411.80000007153,0.7777777777777778,2,object_07,1,1925,0,4,7,forest_7,1,memory-2step-stake-s,667,2766533,0.0-19.0-0.1-0.160,A2NA6X1SON3KFH,3MQKOF1EF54KJDI76AN431783D3WDT,3DI28L7YXEUZW1EYVJE55DVM1OU1EO,3,4
161,4,object_10,object_04,721.80000007153,7,1,367.80000007153,0.0,1,object_06,5,1925,0,0,9,restaurant_8,1,memory-2step-stake-s,668,2774113,0.0-19.0-0.1-0.161,A2NA6X1SON3KFH,3MQKOF1EF54KJDI76AN431783D3WDT,3DI28L7YXEUZW1EYVJE55DVM1OU1EO,7,8
162,4,object_04,object_10,929.89999997616,7,2,412.80000007153,0.1111111111111111,1,object_06,1,1926,0,1,7,restaurant_4,1,memory-2step-stake-s,669,2781838,0.0-19.0-0.1-0.162,A2NA6X1SON3KFH,3MQKOF1EF54KJDI76AN431783D3WDT,3DI28L7YXEUZW1EYVJE55DVM1OU1EO,8,7
163,3,object_01,object_02,766.80000007153,5,1,325.39999997616,0.1111111111111111,1,object_06,5,1931,0,1,4,library_8,1,memory-2step-stake-s,670,2789476,0.0-19.0-0.1-0.163,A2NA6X1SON3KFH,3MQKOF1EF54KJDI76AN431783D3WDT,3DI28L7YXEUZW1EYVJE55DVM1OU1EO,5,6
164,2,object_05,object_03,766.80000007153,4,2,425.30000007153,0.5555555555555556,2,object_07,5,1956,0,0,5,forest_4,1,memory-2step-stake-s,671,2797619,0.0-19.0-0.1-0.164,A2NA6X1SON3KFH,3MQKOF1EF54KJDI76AN431783D3WDT,3DI28L7YXEUZW1EYVJE55DVM1OU1EO,3,4
165,3,object_02,object_01,823.30000007153,5,2,306.40000009537,0.3333333333333333,1,object_06,5,1971,0,3,8,library_3,1,memory-2step-stake-s,672,2805440,0.0-19.0-0.1-0.165,A2NA6X1SON3KFH,3MQKOF1EF54KJDI76AN431783D3WDT,3DI28L7YXEUZW1EYVJE55DVM1OU1EO,6,5
166,2,object_05,object_03,877.5,4,2,372.89999997616,0.7777777777777778,2,object_07,5,2006,0,1,7,forest_8,1,memory-2step-stake-s,673,2813733,0.0-19.0-0.1-0.166,A2NA6X1SON3KFH,3MQKOF1EF54KJDI76AN431783D3WDT,3DI28L7YXEUZW1EYVJE55DVM1OU1EO,3,4
167,3,object_01,object_02,1059.7000000477,5,1,317.80000007153,0.0,1,object_06,5,2006,0,0,7,library_6,1,memory-2step-stake-s,674,2821263,0.0-19.0-0.1-0.167,A2NA6X1SON3KFH,3MQKOF1EF54KJDI76AN431783D3WDT,3DI28L7YXEUZW1EYVJE55DVM1OU1EO,5,6
168,4,object_04,object_10,717.0,7,2,387.89999997616,0.1111111111111111,1,object_06,5,2011,0,1,9,restaurant_8,1,memory-2step-stake-s,675,2828963,0.0-19.0-0.1-0.168,A2NA6X1SON3KFH,3MQKOF1EF54KJDI76AN431783D3WDT,3DI28L7YXEUZW1EYVJE55DVM1OU1EO,8,7
169,3,object_02,object_01,780.0,6,1,450.10000002384,0.8888888888888888,2,object_07,1,2019,0,1,8,library_8,1,memory-2step-stake-s,676,2837434,0.0-19.0-0.1-0.169,A2NA6X1SON3KFH,3MQKOF1EF54KJDI76AN431783D3WDT,3DI28L7YXEUZW1EYVJE55DVM1OU1EO,6,5
170,2,object_05,object_03,747.29999995232,4,2,404.70000004768,0.5555555555555556,2,object_07,1,2024,0,1,5,forest_7,1,memory-2step-stake-s,677,2845555,0.0-19.0-0.1-0.170,A2NA6X1SON3KFH,3MQKOF1EF54KJDI76AN431783D3WDT,3DI28L7YXEUZW1EYVJE55DVM1OU1EO,3,4
171,4,object_10,object_04,562.80000007153,7,1,358.0,0.1111111111111111,1,object_06,5,2029,0,1,3,restaurant_6,1,memory-2step-stake-s,678,2853225,0.0-19.0-0.1-0.171,A2NA6X1SON3KFH,3MQKOF1EF54KJDI76AN431783D3WDT,3DI28L7YXEUZW1EYVJE55DVM1OU1EO,7,8
172,2,object_03,object_05,655.0,4,1,174.5,0.4444444444444444,2,object_07,1,2033,0,1,4,forest_7,1,memory-2step-stake-s,679,2861017,0.0-19.0-0.1-0.172,A2NA6X1SON3KFH,3MQKOF1EF54KJDI76AN431783D3WDT,3DI28L7YXEUZW1EYVJE55DVM1OU1EO,4,3
173,3,object_02,object_01,587.79999995232,5,2,283.60000002384,0.1111111111111111,1,object_06,5,2038,0,1,4,library_8,1,memory-2step-stake-s,680,2868614,0.0-19.0-0.1-0.173,A2NA6X1SON3KFH,3MQKOF1EF54KJDI76AN431783D3WDT,3DI28L7YXEUZW1EYVJE55DVM1OU1EO,6,5
174,4,object_10,object_04,854.0,7,1,274.10000002384,0.3333333333333333,1,object_06,5,2053,0,3,7,restaurant_4,1,memory-2step-stake-s,681,2876403,0.0-19.0-0.1-0.174,A2NA6X1SON3KFH,3MQKOF1EF54KJDI76AN431783D3WDT,3DI28L7YXEUZW1EYVJE55DVM1OU1EO,7,8
175,1,object_09,object_08,739.79999995232,2,1,272.60000002384,0.6666666666666666,2,object_07,1,2059,0,4,6,desert_8,1,memory-2step-stake-s,682,2884493,0.0-19.0-0.1-0.175,A2NA6X1SON3KFH,3MQKOF1EF54KJDI76AN431783D3WDT,3DI28L7YXEUZW1EYVJE55DVM1OU1EO,2,1
176,4,object_04,object_10,748.5,8,1,444.39999997616,0.7777777777777778,2,object_07,5,2094,0,0,7,restaurant_3,1,memory-2step-stake-s,683,2892858,0.0-19.0-0.1-0.176,A2NA6X1SON3KFH,3MQKOF1EF54KJDI76AN431783D3WDT,3DI28L7YXEUZW1EYVJE55DVM1OU1EO,8,7
177,2,object_05,object_03,571.70000004768,4,2,541.5,0.6666666666666666,2,object_07,1,2100,0,3,6,forest_4,1,memory-2step-stake-s,684,2901218,0.0-19.0-0.1-0.177,A2NA6X1SON3KFH,3MQKOF1EF54KJDI76AN431783D3WDT,3DI28L7YXEUZW1EYVJE55DVM1OU1EO,3,4
178,2,object_05,object_03,886.10000002384,4,2,407.79999995232,1.0,2,object_07,1,2109,0,4,9,forest_1,1,memory-2step-stake-s,685,2909745,0.0-19.0-0.1-0.178,A2NA6X1SON3KFH,3MQKOF1EF54KJDI76AN431783D3WDT,3DI28L7YXEUZW1EYVJE55DVM1OU1EO,3,4
179,1,object_09,object_08,647.60000002384,2,1,442.40000009537,0.7777777777777778,2,object_07,1,2116,0,6,7,desert_3,1,memory-2step-stake-s,686,2918108,0.0-19.0-0.1-0.179,A2NA6X1SON3KFH,3MQKOF1EF54KJDI76AN431783D3WDT,3DI28L7YXEUZW1EYVJE55DVM1OU1EO,2,1
180,3,object_02,object_01,634.89999997616,5,2,380.0,0.8888888888888888,1,object_06,1,2124,0,8,7,library_4,1,memory-2step-stake-s,687,2926509,0.0-19.0-0.1-0.180,A2NA6X1SON3KFH,3MQKOF1EF54KJDI76AN431783D3WDT,3DI28L7YXEUZW1EYVJE55DVM1OU1EO,6,5
181,3,object_01,object_02,570.19999992847,5,1,403.0,0.7777777777777778,1,object_06,5,2159,0,7,6,library_4,1,memory-2step-stake-s,688,2934832,0.0-19.0-0.1-0.181,A2NA6X1SON3KFH,3MQKOF1EF54KJDI76AN431783D3WDT,3DI28L7YXEUZW1EYVJE55DVM1OU1EO,5,6
182,4,object_10,object_04,634.80000007153,7,1,328.69999992847,0.8888888888888888,1,object_06,5,2199,0,8,5,restaurant_4,1,memory-2step-stake-s,689,2943184,0.0-19.0-0.1-0.182,A2NA6X1SON3KFH,3MQKOF1EF54KJDI76AN431783D3WDT,3DI28L7YXEUZW1EYVJE55DVM1OU1EO,7,8
183,1,object_08,object_09,721.0,1,1,291.59999990463,0.5555555555555556,1,object_06,1,2204,0,5,7,desert_2,1,memory-2step-stake-s,690,2951193,0.0-19.0-0.1-0.183,A2NA6X1SON3KFH,3MQKOF1EF54KJDI76AN431783D3WDT,3DI28L7YXEUZW1EYVJE55DVM1OU1EO,1,2
184,4,object_10,object_04,711.69999992847,7,1,394.79999995232,0.3333333333333333,1,object_06,1,2207,0,3,9,restaurant_8,1,memory-2step-stake-s,691,2959102,0.0-19.0-0.1-0.184,A2NA6X1SON3KFH,3MQKOF1EF54KJDI76AN431783D3WDT,3DI28L7YXEUZW1EYVJE55DVM1OU1EO,7,8
185,2,object_03,object_05,564.60000002384,4,1,372.80000007153,0.7777777777777778,2,object_07,1,2214,0,2,7,forest_8,1,memory-2step-stake-s,692,2967394,0.0-19.0-0.1-0.185,A2NA6X1SON3KFH,3MQKOF1EF54KJDI76AN431783D3WDT,3DI28L7YXEUZW1EYVJE55DVM1OU1EO,4,3
186,4,object_04,object_10,610.89999997616,7,2,393.90000009537,0.2222222222222222,1,object_06,5,2224,0,2,7,restaurant_3,1,memory-2step-stake-s,693,2975202,0.0-19.0-0.1-0.186,A2NA6X1SON3KFH,3MQKOF1EF54KJDI76AN431783D3WDT,3DI28L7YXEUZW1EYVJE55DVM1OU1EO,8,7
187,3,object_01,object_02,514.79999995232,6,2,296.70000004768,0.7777777777777778,2,object_07,5,2259,0,0,7,library_8,1,memory-2step-stake-s,694,2983418,0.0-19.0-0.1-0.187,A2NA6X1SON3KFH,3MQKOF1EF54KJDI76AN431783D3WDT,3DI28L7YXEUZW1EYVJE55DVM1OU1EO,5,6
188,1,object_09,object_08,648.60000002384,2,1,431.60000002384,0.4444444444444444,2,object_07,1,2263,0,1,4,desert_8,1,memory-2step-stake-s,695,2991466,0.0-19.0-0.1-0.188,A2NA6X1SON3KFH,3MQKOF1EF54KJDI76AN431783D3WDT,3DI28L7YXEUZW1EYVJE55DVM1OU1EO,2,1
189,1,object_09,object_08,901.0,1,2,571.80000007153,0.3333333333333333,1,object_06,5,2278,0,3,7,desert_3,1,memory-2step-stake-s,696,2999553,0.0-19.0-0.1-0.189,A2NA6X1SON3KFH,3MQKOF1EF54KJDI76AN431783D3WDT,3DI28L7YXEUZW1EYVJE55DVM1OU1EO,2,1
190,2,object_05,object_03,925.79999995232,3,1,334.39999997616,0.2222222222222222,1,object_06,1,2280,0,2,8,forest_1,1,memory-2step-stake-s,697,3007303,0.0-19.0-0.1-0.190,A2NA6X1SON3KFH,3MQKOF1EF54KJDI76AN431783D3WDT,3DI28L7YXEUZW1EYVJE55DVM1OU1EO,3,4
191,1,object_09,object_08,502.69999992847,1,2,284.5,0.5555555555555556,1,object_06,1,2285,0,5,7,desert_1,1,memory-2step-stake-s,698,3015304,0.0-19.0-0.1-0.191,A2NA6X1SON3KFH,3MQKOF1EF54KJDI76AN431783D3WDT,3DI28L7YXEUZW1EYVJE55DVM1OU1EO,2,1
192,4,object_04,object_10,825.60000002384,8,1,183.89999997616,0.8888888888888888,2,object_07,1,2293,0,1,8,restaurant_3,1,memory-2step-stake-s,699,3023507,0.0-19.0-0.1-0.192,A2NA6X1SON3KFH,3MQKOF1EF54KJDI76AN431783D3WDT,3DI28L7YXEUZW1EYVJE55DVM1OU1EO,8,7
193,1,object_09,object_08,760.10000002384,2,1,443.0,0.8888888888888888,2,object_07,1,2301,0,2,8,desert_2,1,memory-2step-stake-s,700,3031971,0.0-19.0-0.1-0.193,A2NA6X1SON3KFH,3MQKOF1EF54KJDI76AN431783D3WDT,3DI28L7YXEUZW1EYVJE55DVM1OU1EO,2,1
194,1,object_08,object_09,708.5,1,1,317.0,0.0,1,object_06,1,2301,0,0,9,desert_3,1,memory-2step-stake-s,701,3039498,0.0-19.0-0.1-0.194,A2NA6X1SON3KFH,3MQKOF1EF54KJDI76AN431783D3WDT,3DI28L7YXEUZW1EYVJE55DVM1OU1EO,1,2
195,1,object_08,object_09,905.79999995232,2,2,539.39999997616,0.7777777777777778,2,object_07,1,2308,0,2,7,desert_8,1,memory-2step-stake-s,702,3047957,0.0-19.0-0.1-0.195,A2NA6X1SON3KFH,3MQKOF1EF54KJDI76AN431783D3WDT,3DI28L7YXEUZW1EYVJE55DVM1OU1EO,1,2
196,4,object_04,object_10,748.30000007153,7,2,367.89999997616,0.0,1,object_06,5,2308,0,0,8,restaurant_4,1,memory-2step-stake-s,703,3055537,0.0-19.0-0.1-0.196,A2NA6X1SON3KFH,3MQKOF1EF54KJDI76AN431783D3WDT,3DI28L7YXEUZW1EYVJE55DVM1OU1EO,8,7
197,2,object_03,object_05,643.20000004768,4,1,300.5,0.6666666666666666,2,object_07,1,2314,0,0,6,forest_1,1,memory-2step-stake-s,704,3063654,0.0-19.0-0.1-0.197,A2NA6X1SON3KFH,3MQKOF1EF54KJDI76AN431783D3WDT,3DI28L7YXEUZW1EYVJE55DVM1OU1EO,4,3
198,2,object_03,object_05,786.79999995232,3,2,307.29999995232,0.0,1,object_06,1,2314,0,0,7,forest_4,1,memory-2step-stake-s,705,3071174,0.0-19.0-0.1-0.198,A2NA6X1SON3KFH,3MQKOF1EF54KJDI76AN431783D3WDT,3DI28L7YXEUZW1EYVJE55DVM1OU1EO,4,3
199,1,object_08,object_09,779.20000004768,1,1,362.30000007153,0.0,1,object_06,1,2314,0,0,8,desert_3,1,memory-2step-stake-s,706,3078749,0.0-19.0-0.1-0.199,A2NA6X1SON3KFH,3MQKOF1EF54KJDI76AN431783D3WDT,3DI28L7YXEUZW1EYVJE55DVM1OU1EO,1,2
200,4,object_04,object_10,606.29999995232,7,2,426.0,0.2222222222222222,1,object_06,1,2316,0,2,7,restaurant_3,1,memory-2step-stake-s,707,3086586,0.0-19.0-0.1-0.200,A2NA6X1SON3KFH,3MQKOF1EF54KJDI76AN431783D3WDT,3DI28L7YXEUZW1EYVJE55DVM1OU1EO,8,7
201,3,object_01,object_02,931.60000002384,5,1,389.0,0.2222222222222222,1,object_06,5,2326,0,2,9,library_8,1,memory-2step-stake-s,708,3094387,0.0-19.0-0.1-0.201,A2NA6X1SON3KFH,3MQKOF1EF54KJDI76AN431783D3WDT,3DI28L7YXEUZW1EYVJE55DVM1OU1EO,5,6
202,3,object_02,object_01,881.0,5,2,400.20000004768,0.1111111111111111,1,object_06,5,2331,0,1,8,library_4,1,memory-2step-stake-s,709,3102098,0.0-19.0-0.1-0.202,A2NA6X1SON3KFH,3MQKOF1EF54KJDI76AN431783D3WDT,3DI28L7YXEUZW1EYVJE55DVM1OU1EO,6,5
203,1,object_09,object_08,906.30000007153,2,1,402.70000004768,0.7777777777777778,2,object_07,1,2338,0,1,7,desert_8,1,memory-2step-stake-s,710,3110419,0.0-19.0-0.1-0.203,A2NA6X1SON3KFH,3MQKOF1EF54KJDI76AN431783D3WDT,3DI28L7YXEUZW1EYVJE55DVM1OU1EO,2,1
204,1,object_08,object_09,785.5,2,2,518.29999995232,0.7777777777777778,2,object_07,1,2345,0,2,7,desert_3,1,memory-2step-stake-s,711,3118856,0.0-19.0-0.1-0.204,A2NA6X1SON3KFH,3MQKOF1EF54KJDI76AN431783D3WDT,3DI28L7YXEUZW1EYVJE55DVM1OU1EO,1,2
205,3,object_02,object_01,785.0,5,2,368.39999997616,0.0,1,object_06,5,2345,0,0,7,library_6,1,memory-2step-stake-s,712,3126436,0.0-19.0-0.1-0.205,A2NA6X1SON3KFH,3MQKOF1EF54KJDI76AN431783D3WDT,3DI28L7YXEUZW1EYVJE55DVM1OU1EO,6,5
206,4,object_10,object_04,819.10000002384,8,2,365.29999995232,0.8888888888888888,2,object_07,5,2385,0,1,8,restaurant_6,1,memory-2step-stake-s,713,3134821,0.0-19.0-0.1-0.206,A2NA6X1SON3KFH,3MQKOF1EF54KJDI76AN431783D3WDT,3DI28L7YXEUZW1EYVJE55DVM1OU1EO,7,8
207,4,object_10,object_04,1109.3999999762,8,2,417.20000004768,1.0,2,object_07,5,2430,0,4,9,restaurant_3,1,memory-2step-stake-s,714,3143357,0.0-19.0-0.1-0.207,A2NA6X1SON3KFH,3MQKOF1EF54KJDI76AN431783D3WDT,3DI28L7YXEUZW1EYVJE55DVM1OU1EO,7,8
208,1,object_08,object_09,709.39999997616,2,2,280.29999995232,1.0,2,object_07,1,2439,0,2,9,desert_1,1,memory-2step-stake-s,715,3151758,0.0-19.0-0.1-0.208,A2NA6X1SON3KFH,3MQKOF1EF54KJDI76AN431783D3WDT,3DI28L7YXEUZW1EYVJE55DVM1OU1EO,1,2
209,4,object_04,object_10,883.0,7,2,278.89999997616,0.2222222222222222,1,object_06,5,2449,0,2,7,restaurant_8,1,memory-2step-stake-s,716,3159450,0.0-19.0-0.1-0.209,A2NA6X1SON3KFH,3MQKOF1EF54KJDI76AN431783D3WDT,3DI28L7YXEUZW1EYVJE55DVM1OU1EO,8,7
210,3,object_01,object_02,965.89999997616,6,2,236.69999992847,1.0,2,object_07,5,2494,0,5,9,library_8,1,memory-2step-stake-s,717,3167808,0.0-19.0-0.1-0.210,A2NA6X1SON3KFH,3MQKOF1EF54KJDI76AN431783D3WDT,3DI28L7YXEUZW1EYVJE55DVM1OU1EO,5,6
211,4,object_10,object_04,772.40000009537,8,2,492.5,0.8888888888888888,2,object_07,5,2534,0,3,8,restaurant_6,1,memory-2step-stake-s,718,3176320,0.0-19.0-0.1-0.211,A2NA6X1SON3KFH,3MQKOF1EF54KJDI76AN431783D3WDT,3DI28L7YXEUZW1EYVJE55DVM1OU1EO,7,8
212,3,object_02,object_01,1146.6000000238,6,1,516.29999995232,0.8888888888888888,2,object_07,5,2574,0,5,8,library_4,1,memory-2step-stake-s,719,3184856,0.0-19.0-0.1-0.212,A2NA6X1SON3KFH,3MQKOF1EF54KJDI76AN431783D3WDT,3DI28L7YXEUZW1EYVJE55DVM1OU1EO,6,5
213,1,object_09,object_08,896.90000009537,1,2,92.800000071526,0.6666666666666666,1,object_06,1,2580,0,6,4,desert_8,1,memory-2step-stake-s,720,3192766,0.0-19.0-0.1-0.213,A2NA6X1SON3KFH,3MQKOF1EF54KJDI76AN431783D3WDT,3DI28L7YXEUZW1EYVJE55DVM1OU1EO,2,1
214,2,object_05,object_03,951.79999995232,4,2,258.69999992847,0.4444444444444444,2,object_07,1,2584,0,7,4,forest_8,1,memory-2step-stake-s,721,3200640,0.0-19.0-0.1-0.214,A2NA6X1SON3KFH,3MQKOF1EF54KJDI76AN431783D3WDT,3DI28L7YXEUZW1EYVJE55DVM1OU1EO,3,4
215,2,object_03,object_05,1250.3000000715,3,2,571.0,0.6666666666666666,1,object_06,1,2590,0,6,4,forest_7,1,memory-2step-stake-s,722,3209029,0.0-19.0-0.1-0.215,A2NA6X1SON3KFH,3MQKOF1EF54KJDI76AN431783D3WDT,3DI28L7YXEUZW1EYVJE55DVM1OU1EO,4,3
216,3,object_01,object_02,862.90000009537,6,2,320.80000007153,0.2222222222222222,2,object_07,5,2600,0,6,2,library_8,1,memory-2step-stake-s,723,3216763,0.0-19.0-0.1-0.216,A2NA6X1SON3KFH,3MQKOF1EF54KJDI76AN431783D3WDT,3DI28L7YXEUZW1EYVJE55DVM1OU1EO,5,6
217,3,object_02,object_01,915.70000004768,6,1,549.20000004768,0.3333333333333333,2,object_07,1,2603,0,4,3,library_4,1,memory-2step-stake-s,724,3224827,0.0-19.0-0.1-0.217,A2NA6X1SON3KFH,3MQKOF1EF54KJDI76AN431783D3WDT,3DI28L7YXEUZW1EYVJE55DVM1OU1EO,6,5
218,3,object_02,object_01,575.39999997616,6,1,221.39999997616,0.5555555555555556,2,object_07,5,2628,0,5,5,library_3,1,memory-2step-stake-s,725,3232766,0.0-19.0-0.1-0.218,A2NA6X1SON3KFH,3MQKOF1EF54KJDI76AN431783D3WDT,3DI28L7YXEUZW1EYVJE55DVM1OU1EO,6,5
219,1,object_09,object_08,625.39999997616,1,2,283.10000002384,0.5555555555555556,1,object_06,1,2633,0,5,5,desert_2,1,memory-2step-stake-s,726,3240765,0.0-19.0-0.1-0.219,A2NA6X1SON3KFH,3MQKOF1EF54KJDI76AN431783D3WDT,3DI28L7YXEUZW1EYVJE55DVM1OU1EO,2,1
220,1,object_08,object_09,862.89999997616,2,2,333.60000002384,0.6666666666666666,2,object_07,5,2663,0,4,6,desert_2,1,memory-2step-stake-s,727,3248917,0.0-19.0-0.1-0.220,A2NA6X1SON3KFH,3MQKOF1EF54KJDI76AN431783D3WDT,3DI28L7YXEUZW1EYVJE55DVM1OU1EO,1,2
221,3,object_02,object_01,923.59999990463,6,1,244.19999992847,0.7777777777777778,2,object_07,5,2698,0,6,7,library_8,1,memory-2step-stake-s,728,3257080,0.0-19.0-0.1-0.221,A2NA6X1SON3KFH,3MQKOF1EF54KJDI76AN431783D3WDT,3DI28L7YXEUZW1EYVJE55DVM1OU1EO,6,5
222,2,object_03,object_05,523.89999997616,3,2,330.5,0.8888888888888888,1,object_06,5,2738,0,8,8,forest_4,1,memory-2step-stake-s,729,3265431,0.0-19.0-0.1-0.222,A2NA6X1SON3KFH,3MQKOF1EF54KJDI76AN431783D3WDT,3DI28L7YXEUZW1EYVJE55DVM1OU1EO,4,3
223,1,object_09,object_08,621.5,2,1,330.19999992847,0.7777777777777778,2,object_07,1,2745,0,8,7,desert_1,1,memory-2step-stake-s,730,3273679,0.0-19.0-0.1-0.223,A2NA6X1SON3KFH,3MQKOF1EF54KJDI76AN431783D3WDT,3DI28L7YXEUZW1EYVJE55DVM1OU1EO,2,1
224,4,object_04,object_10,924.0,8,1,545.0,0.7777777777777778,2,object_07,5,2780,0,9,7,restaurant_4,1,memory-2step-stake-s,731,3282145,0.0-19.0-0.1-0.224,A2NA6X1SON3KFH,3MQKOF1EF54KJDI76AN431783D3WDT,3DI28L7YXEUZW1EYVJE55DVM1OU1EO,8,7
225,1,object_08,object_09,634.20000004768,2,2,466.60000002384,0.4444444444444444,2,object_07,1,2784,0,9,4,desert_8,1,memory-2step-stake-s,732,3290228,0.0-19.0-0.1-0.225,A2NA6X1SON3KFH,3MQKOF1EF54KJDI76AN431783D3WDT,3DI28L7YXEUZW1EYVJE55DVM1OU1EO,1,2
226,1,object_08,object_09,838.29999995232,1,1,470.79999995232,0.7777777777777778,1,object_06,1,2791,0,7,7,desert_2,1,memory-2step-stake-s,733,3298619,0.0-19.0-0.1-0.226,A2NA6X1SON3KFH,3MQKOF1EF54KJDI76AN431783D3WDT,3DI28L7YXEUZW1EYVJE55DVM1OU1EO,1,2
227,3,object_01,object_02,785.30000007153,6,2,430.0,0.3333333333333333,2,object_07,5,2806,0,7,3,library_3,1,memory-2step-stake-s,734,3306564,0.0-19.0-0.1-0.227,A2NA6X1SON3KFH,3MQKOF1EF54KJDI76AN431783D3WDT,3DI28L7YXEUZW1EYVJE55DVM1OU1EO,5,6
228,2,object_03,object_05,752.29999995232,4,1,459.69999992847,0.1111111111111111,2,object_07,1,2807,0,6,1,forest_4,1,memory-2step-stake-s,735,3314336,0.0-19.0-0.1-0.228,A2NA6X1SON3KFH,3MQKOF1EF54KJDI76AN431783D3WDT,3DI28L7YXEUZW1EYVJE55DVM1OU1EO,4,3
229,4,object_04,object_10,992.19999992847,8,1,375.5,0.1111111111111111,2,object_07,5,2812,0,5,1,restaurant_4,1,memory-2step-stake-s,736,3322024,0.0-19.0-0.1-0.229,A2NA6X1SON3KFH,3MQKOF1EF54KJDI76AN431783D3WDT,3DI28L7YXEUZW1EYVJE55DVM1OU1EO,8,7
230,2,object_05,object_03,667.29999995232,4,2,400.0,0.3333333333333333,2,object_07,1,2815,0,2,3,forest_7,1,memory-2step-stake-s,737,3329938,0.0-19.0-0.1-0.230,A2NA6X1SON3KFH,3MQKOF1EF54KJDI76AN431783D3WDT,3DI28L7YXEUZW1EYVJE55DVM1OU1EO,3,4
231,3,object_02,object_01,577.89999997616,5,2,234.79999995232,0.5555555555555556,1,object_06,5,2840,0,5,5,library_8,1,memory-2step-stake-s,738,3337890,0.0-19.0-0.1-0.231,A2NA6X1SON3KFH,3MQKOF1EF54KJDI76AN431783D3WDT,3DI28L7YXEUZW1EYVJE55DVM1OU1EO,6,5
232,3,object_01,object_02,1076.0,6,2,321.0,0.7777777777777778,2,object_07,5,2875,0,7,7,library_6,1,memory-2step-stake-s,739,3346131,0.0-19.0-0.1-0.232,A2NA6X1SON3KFH,3MQKOF1EF54KJDI76AN431783D3WDT,3DI28L7YXEUZW1EYVJE55DVM1OU1EO,5,6
233,2,object_03,object_05,747.30000007153,4,1,366.80000007153,0.8888888888888888,2,object_07,1,2883,0,5,8,forest_8,1,memory-2step-stake-s,740,3354519,0.0-19.0-0.1-0.233,A2NA6X1SON3KFH,3MQKOF1EF54KJDI76AN431783D3WDT,3DI28L7YXEUZW1EYVJE55DVM1OU1EO,4,3
234,4,object_10,object_04,895.89999997616,7,1,416.69999992847,0.6666666666666666,1,object_06,5,2913,0,6,6,restaurant_4,1,memory-2step-stake-s,741,3362755,0.0-19.0-0.1-0.234,A2NA6X1SON3KFH,3MQKOF1EF54KJDI76AN431783D3WDT,3DI28L7YXEUZW1EYVJE55DVM1OU1EO,7,8
235,4,object_10,object_04,973.20000004768,7,1,319.60000002384,0.7777777777777778,1,object_06,5,2948,0,7,8,restaurant_4,1,memory-2step-stake-s,742,3370993,0.0-19.0-0.1-0.235,A2NA6X1SON3KFH,3MQKOF1EF54KJDI76AN431783D3WDT,3DI28L7YXEUZW1EYVJE55DVM1OU1EO,7,8
236,3,object_02,object_01,1147.8999999762,5,2,317.70000004768,0.5555555555555556,1,object_06,1,2953,0,5,9,library_8,1,memory-2step-stake-s,743,3379029,0.0-19.0-0.1-0.236,A2NA6X1SON3KFH,3MQKOF1EF54KJDI76AN431783D3WDT,3DI28L7YXEUZW1EYVJE55DVM1OU1EO,6,5
237,1,object_09,object_08,799.39999997616,2,1,469.90000009537,0.7777777777777778,2,object_07,1,2960,0,6,7,desert_3,1,memory-2step-stake-s,744,3387417,0.0-19.0-0.1-0.237,A2NA6X1SON3KFH,3MQKOF1EF54KJDI76AN431783D3WDT,3DI28L7YXEUZW1EYVJE55DVM1OU1EO,2,1
238,1,object_09,object_08,811.10000002384,2,1,244.80000007153,0.8888888888888888,2,object_07,5,3000,0,8,8,desert_3,1,memory-2step-stake-s,745,3395681,0.0-19.0-0.1-0.238,A2NA6X1SON3KFH,3MQKOF1EF54KJDI76AN431783D3WDT,3DI28L7YXEUZW1EYVJE55DVM1OU1EO,2,1
239,2,object_05,object_03,872.29999995232,4,2,505.0,0.8888888888888888,2,object_07,5,3040,0,6,8,forest_8,1,memory-2step-stake-s,746,3404206,0.0-19.0-0.1-0.239,A2NA6X1SON3KFH,3MQKOF1EF54KJDI76AN431783D3WDT,3DI28L7YXEUZW1EYVJE55DVM1OU1EO,3,4
240,2,object_03,object_05,934.5,3,2,491.80000007153,0.5555555555555556,1,object_06,5,3065,0,5,8,forest_4,1,memory-2step-stake-s,747,3412416,0.0-19.0-0.1-0.240,A2NA6X1SON3KFH,3MQKOF1EF54KJDI76AN431783D3WDT,3DI28L7YXEUZW1EYVJE55DVM1OU1EO,4,3
241,2,object_05,object_03,787.20000004768,4,2,494.79999995232,0.5555555555555556,2,object_07,1,3070,0,6,5,forest_8,1,memory-2step-stake-s,748,3420628,0.0-19.0-0.1-0.241,A2NA6X1SON3KFH,3MQKOF1EF54KJDI76AN431783D3WDT,3DI28L7YXEUZW1EYVJE55DVM1OU1EO,3,4
242,3,object_01,object_02,436.79999995232,6,2,407.29999995232,0.8888888888888888,2,object_07,1,3078,0,4,8,library_6,1,memory-2step-stake-s,749,3429054,0.0-19.0-0.1-0.242,A2NA6X1SON3KFH,3MQKOF1EF54KJDI76AN431783D3WDT,3DI28L7YXEUZW1EYVJE55DVM1OU1EO,5,6
243,2,object_05,object_03,710.79999995232,4,2,631.80000007153,0.6666666666666666,2,object_07,1,3084,0,4,6,forest_8,1,memory-2step-stake-s,750,3437503,0.0-19.0-0.1-0.243,A2NA6X1SON3KFH,3MQKOF1EF54KJDI76AN431783D3WDT,3DI28L7YXEUZW1EYVJE55DVM1OU1EO,3,4
244,3,object_01,object_02,787.19999992847,6,2,370.29999995232,1.0,2,object_07,5,3129,0,5,9,library_8,1,memory-2step-stake-s,751,3445995,0.0-19.0-0.1-0.244,A2NA6X1SON3KFH,3MQKOF1EF54KJDI76AN431783D3WDT,3DI28L7YXEUZW1EYVJE55DVM1OU1EO,5,6
245,2,object_05,object_03,520.5,4,2,991.10000002384,0.8888888888888888,2,object_07,1,3137,0,7,8,forest_1,1,memory-2step-stake-s,752,3455005,0.0-19.0-0.1-0.245,A2NA6X1SON3KFH,3MQKOF1EF54KJDI76AN431783D3WDT,3DI28L7YXEUZW1EYVJE55DVM1OU1EO,3,4
246,4,object_10,object_04,498.60000002384,7,1,381.19999992847,0.6666666666666666,1,object_06,5,3167,0,6,8,restaurant_4,1,memory-2step-stake-s,753,3463203,0.0-19.0-0.1-0.246,A2NA6X1SON3KFH,3MQKOF1EF54KJDI76AN431783D3WDT,3DI28L7YXEUZW1EYVJE55DVM1OU1EO,7,8
247,1,object_09,object_08,524.29999995232,1,2,382.89999997616,0.8888888888888888,1,object_06,1,3175,0,8,8,desert_3,1,memory-2step-stake-s,754,3471607,0.0-19.0-0.1-0.247,A2NA6X1SON3KFH,3MQKOF1EF54KJDI76AN431783D3WDT,3DI28L7YXEUZW1EYVJE55DVM1OU1EO,2,1
248,1,object_08,object_09,735.79999995232,2,2,530.89999997616,0.6666666666666666,2,object_07,5,3205,0,8,6,desert_2,1,memory-2step-stake-s,755,3479954,0.0-19.0-0.1-0.248,A2NA6X1SON3KFH,3MQKOF1EF54KJDI76AN431783D3WDT,3DI28L7YXEUZW1EYVJE55DVM1OU1EO,1,2
249,4,object_04,object_10,551.30000007153,8,1,483.5,0.6666666666666666,2,object_07,5,3235,0,7,6,restaurant_8,1,memory-2step-stake-s,756,3488255,0.0-19.0-0.1-0.249,A2NA6X1SON3KFH,3MQKOF1EF54KJDI76AN431783D3WDT,3DI28L7YXEUZW1EYVJE55DVM1OU1EO,8,7
250,1,object_09,object_08,673.39999997616,2,1,419.29999995232,0.7777777777777778,2,object_07,1,3242,0,5,7,desert_1,1,memory-2step-stake-s,757,3496592,0.0-19.0-0.1-0.250,A2NA6X1SON3KFH,3MQKOF1EF54KJDI76AN431783D3WDT,3DI28L7YXEUZW1EYVJE55DVM1OU1EO,2,1
251,2,object_03,object_05,123.79999995232,3,2,519.39999997616,0.2222222222222222,1,object_06,1,3244,0,2,7,forest_4,1,memory-2step-stake-s,758,3504523,0.0-19.0-0.1-0.251,A2NA6X1SON3KFH,3MQKOF1EF54KJDI76AN431783D3WDT,3DI28L7YXEUZW1EYVJE55DVM1OU1EO,4,3
252,3,object_02,object_01,317.89999997616,6,1,538.29999995232,1.0,2,object_07,1,3253,0,3,9,library_4,1,memory-2step-stake-s,759,3513180,0.0-19.0-0.1-0.252,A2NA6X1SON3KFH,3MQKOF1EF54KJDI76AN431783D3WDT,3DI28L7YXEUZW1EYVJE55DVM1OU1EO,6,5
253,2,object_03,object_05,723.19999992847,4,1,393.69999992847,0.6666666666666666,2,object_07,1,3259,0,3,6,forest_7,1,memory-2step-stake-s,760,3521392,0.0-19.0-0.1-0.253,A2NA6X1SON3KFH,3MQKOF1EF54KJDI76AN431783D3WDT,3DI28L7YXEUZW1EYVJE55DVM1OU1EO,4,3
254,4,object_04,object_10,1048.3999999762,7,2,293.60000002384,0.1111111111111111,1,object_06,5,3264,0,1,7,restaurant_6,1,memory-2step-stake-s,761,3528999,0.0-19.0-0.1-0.254,A2NA6X1SON3KFH,3MQKOF1EF54KJDI76AN431783D3WDT,3DI28L7YXEUZW1EYVJE55DVM1OU1EO,8,7
255,2,object_03,object_05,955.60000002384,3,2,750.10000002384,0.1111111111111111,1,object_06,1,3265,0,1,5,forest_4,1,memory-2step-stake-s,762,3537061,0.0-19.0-0.1-0.255,A2NA6X1SON3KFH,3MQKOF1EF54KJDI76AN431783D3WDT,3DI28L7YXEUZW1EYVJE55DVM1OU1EO,4,3
