,state1,stim_left,stim_right,rt_1,choice1,response1,rt_2,points,state2,stim_state2,stake,score,practice,rews1,rews2,background,high_arm,trial_type,trial_index,time_elapsed,internal_node_id,subid,hitid,assignmentid,stim_left_num,stim_right_num
0,3,object_04,object_10,873.20000001788,5,1,1012.0,0.1111111111111111,1,object_06,5,5,0,1,1,library_7,1,memory-2step-stake-s,505,1022165,0.0-19.0-0.0-0.0,AUFUUD4WG9CVO,3X52SWXE10LAELCT6ESTJVPQIDRWCT,3JPSL1DZ5WFZKV4BK1AH61IYJA2NAO,5,6
1,1,object_01,object_02,859.40000000596,2,2,610.5,0.1111111111111111,2,object_09,1,6,0,1,1,desert_6,1,memory-2step-stake-s,506,1030161,0.0-19.0-0.0-0.1,AUFUUD4WG9CVO,3X52SWXE10LAELCT6ESTJVPQIDRWCT,3JPSL1DZ5WFZKV4BK1AH61IYJA2NAO,1,2
2,3,object_04,object_10,660.5,6,2,941.29999998212,0.2222222222222222,2,object_09,5,16,0,1,2,library_4,1,memory-2step-stake-s,507,1038635,0.0-19.0-0.0-0.2,AUFUUD4WG9CVO,3X52SWXE10LAELCT6ESTJVPQIDRWCT,3JPSL1DZ5WFZKV4BK1AH61IYJA2NAO,5,6
3,3,object_04,object_10,1284.2000000179,5,1,585.09999999404,0.1111111111111111,1,object_06,5,21,0,1,1,library_7,1,memory-2step-stake-s,508,1046619,0.0-19.0-0.0-0.3,AUFUUD4WG9CVO,3X52SWXE10LAELCT6ESTJVPQIDRWCT,3JPSL1DZ5WFZKV4BK1AH61IYJA2NAO,5,6
4,4,object_03,object_05,1322.7000000179,8,2,989.70000001788,0.5555555555555556,2,object_09,5,46,0,4,5,restaurant_7,1,memory-2step-stake-s,509,1055411,0.0-19.0-0.0-0.4,AUFUUD4WG9CVO,3X52SWXE10LAELCT6ESTJVPQIDRWCT,3JPSL1DZ5WFZKV4BK1AH61IYJA2NAO,7,8
5,4,object_05,object_03,836.40000000596,8,1,575.09999999404,0.6666666666666666,2,object_09,5,76,0,1,6,restaurant_4,1,memory-2step-stake-s,510,1063916,0.0-19.0-0.0-0.5,AUFUUD4WG9CVO,3X52SWXE10LAELCT6ESTJVPQIDRWCT,3JPSL1DZ5WFZKV4BK1AH61IYJA2NAO,8,7
6,4,object_05,object_03,592.5,8,1,480.5,0.5555555555555556,2,object_09,1,81,0,1,5,restaurant_8,1,memory-2step-stake-s,511,1072231,0.0-19.0-0.0-0.6,AUFUUD4WG9CVO,3X52SWXE10LAELCT6ESTJVPQIDRWCT,3JPSL1DZ5WFZKV4BK1AH61IYJA2NAO,8,7
7,2,object_07,object_08,1186.599999994,4,2,568.40000000596,0.7777777777777778,2,object_09,1,88,0,0,7,forest_2,1,memory-2step-stake-s,512,1080821,0.0-19.0-0.0-0.7,AUFUUD4WG9CVO,3X52SWXE10LAELCT6ESTJVPQIDRWCT,3JPSL1DZ5WFZKV4BK1AH61IYJA2NAO,3,4
8,3,object_10,object_04,-1.0,-1,-1,-1.0,0.0,-,0,1,88,0,1,5,library_6,1,memory-2step-stake-s,513,1087391,0.0-19.0-0.0-0.8,AUFUUD4WG9CVO,3X52SWXE10LAELCT6ESTJVPQIDRWCT,3JPSL1DZ5WFZKV4BK1AH61IYJA2NAO,6,5
9,2,object_08,object_07,643.20000001788,4,1,506.80000001192,0.5555555555555556,2,object_09,1,93,0,1,5,forest_5,1,memory-2step-stake-s,514,1095721,0.0-19.0-0.0-0.9,AUFUUD4WG9CVO,3X52SWXE10LAELCT6ESTJVPQIDRWCT,3JPSL1DZ5WFZKV4BK1AH61IYJA2NAO,4,3
10,1,object_02,object_01,1176.7000000179,2,1,722.19999998808,0.8888888888888888,2,object_09,1,101,0,3,8,desert_5,1,memory-2step-stake-s,515,1104583,0.0-19.0-0.0-0.10,AUFUUD4WG9CVO,3X52SWXE10LAELCT6ESTJVPQIDRWCT,3JPSL1DZ5WFZKV4BK1AH61IYJA2NAO,2,1
11,4,object_03,object_05,812.90000000596,8,2,-1.0,0.0,2,object_09,1,101,0,3,6,restaurant_4,1,memory-2step-stake-s,516,1113171,0.0-19.0-0.0-0.11,AUFUUD4WG9CVO,3X52SWXE10LAELCT6ESTJVPQIDRWCT,3JPSL1DZ5WFZKV4BK1AH61IYJA2NAO,7,8
12,2,object_07,object_08,839.80000001192,4,2,498.19999998808,0.6666666666666666,2,object_09,1,107,0,1,6,forest_4,1,memory-2step-stake-s,517,1121623,0.0-19.0-0.0-0.12,AUFUUD4WG9CVO,3X52SWXE10LAELCT6ESTJVPQIDRWCT,3JPSL1DZ5WFZKV4BK1AH61IYJA2NAO,3,4
13,2,object_08,object_07,467.0,4,1,357.59999999404,0.8888888888888888,2,object_09,5,147,0,1,8,forest_6,1,memory-2step-stake-s,518,1130130,0.0-19.0-0.0-0.13,AUFUUD4WG9CVO,3X52SWXE10LAELCT6ESTJVPQIDRWCT,3JPSL1DZ5WFZKV4BK1AH61IYJA2NAO,4,3
14,4,object_03,object_05,730.80000001192,8,2,610.19999998808,0.8888888888888888,2,object_09,1,155,0,3,8,restaurant_4,1,memory-2step-stake-s,519,1138941,0.0-19.0-0.0-0.14,AUFUUD4WG9CVO,3X52SWXE10LAELCT6ESTJVPQIDRWCT,3JPSL1DZ5WFZKV4BK1AH61IYJA2NAO,7,8
15,1,object_01,object_02,906.5,2,2,381.90000000596,0.8888888888888888,2,object_09,1,163,0,3,8,desert_3,1,memory-2step-stake-s,520,1147471,0.0-19.0-0.0-0.15,AUFUUD4WG9CVO,3X52SWXE10LAELCT6ESTJVPQIDRWCT,3JPSL1DZ5WFZKV4BK1AH61IYJA2NAO,1,2
16,4,object_03,object_05,649.20000001788,8,2,319.5,0.7777777777777778,2,object_09,5,198,0,3,7,restaurant_3,1,memory-2step-stake-s,521,1155813,0.0-19.0-0.0-0.16,AUFUUD4WG9CVO,3X52SWXE10LAELCT6ESTJVPQIDRWCT,3JPSL1DZ5WFZKV4BK1AH61IYJA2NAO,7,8
17,3,object_10,object_04,889.90000000596,6,1,617.40000000596,0.7777777777777778,2,object_09,1,205,0,4,7,library_8,1,memory-2step-stake-s,522,1164442,0.0-19.0-0.0-0.17,AUFUUD4WG9CVO,3X52SWXE10LAELCT6ESTJVPQIDRWCT,3JPSL1DZ5WFZKV4BK1AH61IYJA2NAO,6,5
18,2,object_07,object_08,979.59999999404,3,1,734.40000000596,0.4444444444444444,1,object_06,1,209,0,4,5,forest_4,1,memory-2step-stake-s,523,1172881,0.0-19.0-0.0-0.18,AUFUUD4WG9CVO,3X52SWXE10LAELCT6ESTJVPQIDRWCT,3JPSL1DZ5WFZKV4BK1AH61IYJA2NAO,3,4
19,3,object_04,object_10,994.5,5,1,910.20000001788,0.4444444444444444,1,object_06,1,213,0,4,5,library_8,1,memory-2step-stake-s,524,1181501,0.0-19.0-0.0-0.19,AUFUUD4WG9CVO,3X52SWXE10LAELCT6ESTJVPQIDRWCT,3JPSL1DZ5WFZKV4BK1AH61IYJA2NAO,5,6
20,2,object_08,object_07,804.80000001192,4,1,598.5,0.5555555555555556,2,object_09,5,238,0,1,5,forest_5,1,memory-2step-stake-s,525,1189941,0.0-19.0-0.0-0.20,AUFUUD4WG9CVO,3X52SWXE10LAELCT6ESTJVPQIDRWCT,3JPSL1DZ5WFZKV4BK1AH61IYJA2NAO,4,3
21,4,object_03,object_05,466.70000001788,8,2,636.90000000596,0.8888888888888888,2,object_09,5,278,0,0,8,restaurant_7,1,memory-2step-stake-s,526,1198674,0.0-19.0-0.0-0.21,AUFUUD4WG9CVO,3X52SWXE10LAELCT6ESTJVPQIDRWCT,3JPSL1DZ5WFZKV4BK1AH61IYJA2NAO,7,8
22,4,object_03,object_05,674.79999998212,8,2,469.69999998808,0.7777777777777778,2,object_09,5,313,0,3,7,restaurant_3,1,memory-2step-stake-s,527,1207236,0.0-19.0-0.0-0.22,AUFUUD4WG9CVO,3X52SWXE10LAELCT6ESTJVPQIDRWCT,3JPSL1DZ5WFZKV4BK1AH61IYJA2NAO,7,8
23,1,object_02,object_01,732.39999997616,2,1,718.0,0.8888888888888888,2,object_09,1,321,0,3,8,desert_5,1,memory-2step-stake-s,528,1216102,0.0-19.0-0.0-0.23,AUFUUD4WG9CVO,3X52SWXE10LAELCT6ESTJVPQIDRWCT,3JPSL1DZ5WFZKV4BK1AH61IYJA2NAO,2,1
24,3,object_04,object_10,1248.099999994,6,2,683.59999999404,0.8888888888888888,2,object_09,1,329,0,3,8,library_4,1,memory-2step-stake-s,529,1224901,0.0-19.0-0.0-0.24,AUFUUD4WG9CVO,3X52SWXE10LAELCT6ESTJVPQIDRWCT,3JPSL1DZ5WFZKV4BK1AH61IYJA2NAO,5,6
25,4,object_03,object_05,412.40000000596,8,2,387.09999999404,1.0,2,object_09,5,374,0,4,9,restaurant_3,1,memory-2step-stake-s,530,1233587,0.0-19.0-0.0-0.25,AUFUUD4WG9CVO,3X52SWXE10LAELCT6ESTJVPQIDRWCT,3JPSL1DZ5WFZKV4BK1AH61IYJA2NAO,7,8
26,1,object_02,object_01,584.09999999404,2,1,289.20000001788,0.8888888888888888,2,object_09,5,414,0,6,8,desert_5,1,memory-2step-stake-s,531,1242060,0.0-19.0-0.0-0.26,AUFUUD4WG9CVO,3X52SWXE10LAELCT6ESTJVPQIDRWCT,3JPSL1DZ5WFZKV4BK1AH61IYJA2NAO,2,1
27,1,object_01,object_02,508.5,2,2,350.29999998212,0.7777777777777778,2,object_09,1,421,0,9,7,desert_6,1,memory-2step-stake-s,532,1250436,0.0-19.0-0.0-0.27,AUFUUD4WG9CVO,3X52SWXE10LAELCT6ESTJVPQIDRWCT,3JPSL1DZ5WFZKV4BK1AH61IYJA2NAO,1,2
28,4,object_05,object_03,697.5,8,1,327.59999999404,0.8888888888888888,2,object_09,5,461,0,5,8,restaurant_4,1,memory-2step-stake-s,533,1258881,0.0-19.0-0.0-0.28,AUFUUD4WG9CVO,3X52SWXE10LAELCT6ESTJVPQIDRWCT,3JPSL1DZ5WFZKV4BK1AH61IYJA2NAO,8,7
29,1,object_02,object_01,738.0,2,1,526.29999998212,0.7777777777777778,2,object_09,1,468,0,3,7,desert_4,1,memory-2step-stake-s,534,1267461,0.0-19.0-0.0-0.29,AUFUUD4WG9CVO,3X52SWXE10LAELCT6ESTJVPQIDRWCT,3JPSL1DZ5WFZKV4BK1AH61IYJA2NAO,2,1
30,3,object_04,object_10,764.80000001192,6,2,388.80000001192,1.0,2,object_09,5,513,0,5,9,library_8,1,memory-2step-stake-s,535,1276142,0.0-19.0-0.0-0.30,AUFUUD4WG9CVO,3X52SWXE10LAELCT6ESTJVPQIDRWCT,3JPSL1DZ5WFZKV4BK1AH61IYJA2NAO,5,6
31,4,object_05,object_03,614.19999998808,8,1,385.29999998212,0.4444444444444444,2,object_09,5,533,0,6,4,restaurant_7,1,memory-2step-stake-s,536,1284231,0.0-19.0-0.0-0.31,AUFUUD4WG9CVO,3X52SWXE10LAELCT6ESTJVPQIDRWCT,3JPSL1DZ5WFZKV4BK1AH61IYJA2NAO,8,7
32,2,object_07,object_08,657.70000001788,3,1,389.0,0.4444444444444444,1,object_06,1,537,0,4,6,forest_5,1,memory-2step-stake-s,537,1292341,0.0-19.0-0.0-0.32,AUFUUD4WG9CVO,3X52SWXE10LAELCT6ESTJVPQIDRWCT,3JPSL1DZ5WFZKV4BK1AH61IYJA2NAO,3,4
33,3,object_10,object_04,853.69999998808,6,1,407.39999997616,0.4444444444444444,2,object_09,5,557,0,6,4,library_8,1,memory-2step-stake-s,538,1300431,0.0-19.0-0.0-0.33,AUFUUD4WG9CVO,3X52SWXE10LAELCT6ESTJVPQIDRWCT,3JPSL1DZ5WFZKV4BK1AH61IYJA2NAO,6,5
34,4,object_05,object_03,1100.1999999881,8,1,517.5,0.1111111111111111,2,object_09,5,562,0,4,1,restaurant_8,1,memory-2step-stake-s,539,1308322,0.0-19.0-0.0-0.34,AUFUUD4WG9CVO,3X52SWXE10LAELCT6ESTJVPQIDRWCT,3JPSL1DZ5WFZKV4BK1AH61IYJA2NAO,8,7
35,3,object_04,object_10,835.19999998808,5,1,653.40000000596,0.1111111111111111,1,object_06,5,567,0,1,1,library_6,1,memory-2step-stake-s,540,1316361,0.0-19.0-0.0-0.35,AUFUUD4WG9CVO,3X52SWXE10LAELCT6ESTJVPQIDRWCT,3JPSL1DZ5WFZKV4BK1AH61IYJA2NAO,5,6
36,1,object_02,object_01,686.70000001788,1,2,374.90000000596,0.2222222222222222,1,object_06,1,569,0,2,2,desert_3,1,memory-2step-stake-s,541,1324202,0.0-19.0-0.0-0.36,AUFUUD4WG9CVO,3X52SWXE10LAELCT6ESTJVPQIDRWCT,3JPSL1DZ5WFZKV4BK1AH61IYJA2NAO,2,1
37,1,object_02,object_01,631.09999999404,2,1,321.59999999404,0.1111111111111111,2,object_09,1,570,0,2,1,desert_5,1,memory-2step-stake-s,542,1331906,0.0-19.0-0.0-0.37,AUFUUD4WG9CVO,3X52SWXE10LAELCT6ESTJVPQIDRWCT,3JPSL1DZ5WFZKV4BK1AH61IYJA2NAO,2,1
38,2,object_07,object_08,819.19999998808,4,2,430.19999998808,0.1111111111111111,2,object_09,1,571,0,1,1,forest_6,1,memory-2step-stake-s,543,1339711,0.0-19.0-0.0-0.38,AUFUUD4WG9CVO,3X52SWXE10LAELCT6ESTJVPQIDRWCT,3JPSL1DZ5WFZKV4BK1AH61IYJA2NAO,3,4
39,2,object_08,object_07,554.90000000596,3,2,251.19999998808,0.2222222222222222,1,object_06,1,573,0,2,1,forest_4,1,memory-2step-stake-s,544,1347479,0.0-19.0-0.0-0.39,AUFUUD4WG9CVO,3X52SWXE10LAELCT6ESTJVPQIDRWCT,3JPSL1DZ5WFZKV4BK1AH61IYJA2NAO,4,3
40,3,object_04,object_10,945.20000001788,5,1,353.79999998212,0.0,1,object_06,5,573,0,0,0,library_8,1,memory-2step-stake-s,545,1355101,0.0-19.0-0.0-0.40,AUFUUD4WG9CVO,3X52SWXE10LAELCT6ESTJVPQIDRWCT,3JPSL1DZ5WFZKV4BK1AH61IYJA2NAO,5,6
41,3,object_04,object_10,1274.0,6,2,333.5,0.1111111111111111,2,object_09,5,578,0,3,1,library_6,1,memory-2step-stake-s,546,1362830,0.0-19.0-0.0-0.41,AUFUUD4WG9CVO,3X52SWXE10LAELCT6ESTJVPQIDRWCT,3JPSL1DZ5WFZKV4BK1AH61IYJA2NAO,5,6
42,4,object_05,object_03,736.40000000596,7,2,297.09999999404,0.3333333333333333,1,object_06,1,581,0,3,1,restaurant_7,1,memory-2step-stake-s,547,1370785,0.0-19.0-0.0-0.42,AUFUUD4WG9CVO,3X52SWXE10LAELCT6ESTJVPQIDRWCT,3JPSL1DZ5WFZKV4BK1AH61IYJA2NAO,8,7
43,2,object_07,object_08,688.80000001192,3,1,376.0,0.6666666666666666,1,object_06,5,611,0,6,2,forest_4,1,memory-2step-stake-s,548,1379102,0.0-19.0-0.0-0.43,AUFUUD4WG9CVO,3X52SWXE10LAELCT6ESTJVPQIDRWCT,3JPSL1DZ5WFZKV4BK1AH61IYJA2NAO,3,4
44,1,object_01,object_02,884.79999998212,1,1,1494.599999994,0.4444444444444444,1,object_06,1,615,0,4,2,desert_4,1,memory-2step-stake-s,549,1388375,0.0-19.0-0.0-0.44,AUFUUD4WG9CVO,3X52SWXE10LAELCT6ESTJVPQIDRWCT,3JPSL1DZ5WFZKV4BK1AH61IYJA2NAO,1,2
45,2,object_07,object_08,926.90000000596,3,1,375.09999999404,0.7777777777777778,1,object_06,5,650,0,7,4,forest_6,1,memory-2step-stake-s,550,1396827,0.0-19.0-0.0-0.45,AUFUUD4WG9CVO,3X52SWXE10LAELCT6ESTJVPQIDRWCT,3JPSL1DZ5WFZKV4BK1AH61IYJA2NAO,3,4
46,2,object_07,object_08,706.59999999404,3,1,-1.0,0.0,1,object_06,1,650,0,5,3,forest_4,1,memory-2step-stake-s,551,1405395,0.0-19.0-0.0-0.46,AUFUUD4WG9CVO,3X52SWXE10LAELCT6ESTJVPQIDRWCT,3JPSL1DZ5WFZKV4BK1AH61IYJA2NAO,3,4
47,1,object_01,object_02,490.19999998808,1,1,387.80000001192,0.6666666666666666,1,object_06,1,656,0,6,2,desert_5,1,memory-2step-stake-s,552,1413701,0.0-19.0-0.0-0.47,AUFUUD4WG9CVO,3X52SWXE10LAELCT6ESTJVPQIDRWCT,3JPSL1DZ5WFZKV4BK1AH61IYJA2NAO,1,2
48,2,object_07,object_08,731.40000000596,3,1,342.0,0.4444444444444444,1,object_06,5,676,0,4,0,forest_5,1,memory-2step-stake-s,553,1421791,0.0-19.0-0.0-0.48,AUFUUD4WG9CVO,3X52SWXE10LAELCT6ESTJVPQIDRWCT,3JPSL1DZ5WFZKV4BK1AH61IYJA2NAO,3,4
49,1,object_02,object_01,1181.099999994,1,2,839.19999998808,0.8888888888888888,1,object_06,1,684,0,8,4,desert_3,1,memory-2step-stake-s,554,1430781,0.0-19.0-0.0-0.49,AUFUUD4WG9CVO,3X52SWXE10LAELCT6ESTJVPQIDRWCT,3JPSL1DZ5WFZKV4BK1AH61IYJA2NAO,2,1
50,1,object_02,object_01,744.79999998212,1,2,680.90000000596,0.8888888888888888,1,object_06,1,692,0,8,7,desert_4,1,memory-2step-stake-s,555,1439591,0.0-19.0-0.0-0.50,AUFUUD4WG9CVO,3X52SWXE10LAELCT6ESTJVPQIDRWCT,3JPSL1DZ5WFZKV4BK1AH61IYJA2NAO,2,1
51,2,object_07,object_08,803.0,3,1,899.90000000596,1.0,1,object_06,1,701,0,9,6,forest_5,1,memory-2step-stake-s,556,1448822,0.0-19.0-0.0-0.51,AUFUUD4WG9CVO,3X52SWXE10LAELCT6ESTJVPQIDRWCT,3JPSL1DZ5WFZKV4BK1AH61IYJA2NAO,3,4
52,4,object_05,object_03,1024.0,7,2,414.30000001192,0.5555555555555556,1,object_06,1,706,0,5,4,restaurant_4,1,memory-2step-stake-s,557,1457041,0.0-19.0-0.0-0.52,AUFUUD4WG9CVO,3X52SWXE10LAELCT6ESTJVPQIDRWCT,3JPSL1DZ5WFZKV4BK1AH61IYJA2NAO,8,7
53,3,object_04,object_10,983.0,5,1,401.80000001192,0.3333333333333333,1,object_06,5,721,0,3,6,library_4,1,memory-2step-stake-s,558,1465077,0.0-19.0-0.0-0.53,AUFUUD4WG9CVO,3X52SWXE10LAELCT6ESTJVPQIDRWCT,3JPSL1DZ5WFZKV4BK1AH61IYJA2NAO,5,6
54,4,object_03,object_05,906.09999999404,8,2,1372.5,0.6666666666666666,2,object_09,5,751,0,2,6,restaurant_7,1,memory-2step-stake-s,559,1474326,0.0-19.0-0.0-0.54,AUFUUD4WG9CVO,3X52SWXE10LAELCT6ESTJVPQIDRWCT,3JPSL1DZ5WFZKV4BK1AH61IYJA2NAO,7,8
55,3,object_04,object_10,1045.400000006,6,2,930.60000002384,0.6666666666666666,2,object_09,5,781,0,0,6,library_7,1,memory-2step-stake-s,560,1483221,0.0-19.0-0.0-0.55,AUFUUD4WG9CVO,3X52SWXE10LAELCT6ESTJVPQIDRWCT,3JPSL1DZ5WFZKV4BK1AH61IYJA2NAO,5,6
56,2,object_07,object_08,802.70000001788,4,2,1149.900000006,0.6666666666666666,2,object_09,5,811,0,2,6,forest_5,1,memory-2step-stake-s,561,1492291,0.0-19.0-0.0-0.56,AUFUUD4WG9CVO,3X52SWXE10LAELCT6ESTJVPQIDRWCT,3JPSL1DZ5WFZKV4BK1AH61IYJA2NAO,3,4
57,1,object_02,object_01,997.70000001788,1,2,719.69999998808,0.2222222222222222,1,object_06,1,813,0,2,4,desert_5,1,memory-2step-stake-s,562,1500511,0.0-19.0-0.0-0.57,AUFUUD4WG9CVO,3X52SWXE10LAELCT6ESTJVPQIDRWCT,3JPSL1DZ5WFZKV4BK1AH61IYJA2NAO,2,1
58,4,object_05,object_03,792.90000000596,8,1,360.70000001788,0.6666666666666666,2,object_09,5,843,0,1,6,restaurant_7,1,memory-2step-stake-s,563,1508775,0.0-19.0-0.0-0.58,AUFUUD4WG9CVO,3X52SWXE10LAELCT6ESTJVPQIDRWCT,3JPSL1DZ5WFZKV4BK1AH61IYJA2NAO,8,7
59,4,object_05,object_03,780.79999998212,8,1,436.09999999404,0.6666666666666666,2,object_09,5,873,0,2,6,restaurant_8,1,memory-2step-stake-s,564,1517151,0.0-19.0-0.0-0.59,AUFUUD4WG9CVO,3X52SWXE10LAELCT6ESTJVPQIDRWCT,3JPSL1DZ5WFZKV4BK1AH61IYJA2NAO,8,7
60,4,object_03,object_05,1273.6999999881,8,2,379.29999998212,0.6666666666666666,2,object_09,5,903,0,1,6,restaurant_8,1,memory-2step-stake-s,565,1525539,0.0-19.0-0.0-0.60,AUFUUD4WG9CVO,3X52SWXE10LAELCT6ESTJVPQIDRWCT,3JPSL1DZ5WFZKV4BK1AH61IYJA2NAO,7,8
61,1,object_01,object_02,742.59999999404,2,2,440.70000001788,0.2222222222222222,2,object_09,1,905,0,1,2,desert_3,1,memory-2step-stake-s,566,1533462,0.0-19.0-0.0-0.61,AUFUUD4WG9CVO,3X52SWXE10LAELCT6ESTJVPQIDRWCT,3JPSL1DZ5WFZKV4BK1AH61IYJA2NAO,1,2
62,4,object_03,object_05,632.59999999404,8,2,395.30000001192,0.1111111111111111,2,object_09,5,910,0,2,1,restaurant_8,1,memory-2step-stake-s,567,1541281,0.0-19.0-0.0-0.62,AUFUUD4WG9CVO,3X52SWXE10LAELCT6ESTJVPQIDRWCT,3JPSL1DZ5WFZKV4BK1AH61IYJA2NAO,7,8
63,2,object_08,object_07,585.40000000596,3,2,401.0,0.2222222222222222,1,object_06,1,912,0,2,2,forest_4,1,memory-2step-stake-s,568,1549221,0.0-19.0-0.0-0.63,AUFUUD4WG9CVO,3X52SWXE10LAELCT6ESTJVPQIDRWCT,3JPSL1DZ5WFZKV4BK1AH61IYJA2NAO,4,3
64,1,object_01,object_02,948.59999999404,2,2,415.0,0.0,2,object_09,5,912,0,0,0,desert_6,1,memory-2step-stake-s,569,1556911,0.0-19.0-0.0-0.64,AUFUUD4WG9CVO,3X52SWXE10LAELCT6ESTJVPQIDRWCT,3JPSL1DZ5WFZKV4BK1AH61IYJA2NAO,1,2
65,2,object_08,object_07,1034.8999999762,3,2,757.19999998808,0.2222222222222222,1,object_06,1,914,0,2,2,forest_6,1,memory-2step-stake-s,570,1565201,0.0-19.0-0.0-0.65,AUFUUD4WG9CVO,3X52SWXE10LAELCT6ESTJVPQIDRWCT,3JPSL1DZ5WFZKV4BK1AH61IYJA2NAO,4,3
66,4,object_05,object_03,1384.7999999821,7,2,679.69999998808,0.3333333333333333,1,object_06,5,929,0,3,0,restaurant_4,1,memory-2step-stake-s,571,1573481,0.0-19.0-0.0-0.66,AUFUUD4WG9CVO,3X52SWXE10LAELCT6ESTJVPQIDRWCT,3JPSL1DZ5WFZKV4BK1AH61IYJA2NAO,8,7
67,3,object_10,object_04,923.5,6,1,491.09999999404,0.1111111111111111,2,object_09,5,934,0,6,1,library_6,1,memory-2step-stake-s,572,1581371,0.0-19.0-0.0-0.67,AUFUUD4WG9CVO,3X52SWXE10LAELCT6ESTJVPQIDRWCT,3JPSL1DZ5WFZKV4BK1AH61IYJA2NAO,6,5
68,2,object_08,object_07,1290.6000000238,4,1,366.0,0.1111111111111111,2,object_09,1,935,0,9,1,forest_5,1,memory-2step-stake-s,573,1589131,0.0-19.0-0.0-0.68,AUFUUD4WG9CVO,3X52SWXE10LAELCT6ESTJVPQIDRWCT,3JPSL1DZ5WFZKV4BK1AH61IYJA2NAO,4,3
69,3,object_04,object_10,605.29999998212,6,2,333.40000000596,0.2222222222222222,2,object_09,5,945,0,8,2,library_4,1,memory-2step-stake-s,574,1596970,0.0-19.0-0.0-0.69,AUFUUD4WG9CVO,3X52SWXE10LAELCT6ESTJVPQIDRWCT,3JPSL1DZ5WFZKV4BK1AH61IYJA2NAO,5,6
70,4,object_05,object_03,609.0,7,2,301.0,0.8888888888888888,1,object_06,1,953,0,8,3,restaurant_7,1,memory-2step-stake-s,575,1605381,0.0-19.0-0.0-0.70,AUFUUD4WG9CVO,3X52SWXE10LAELCT6ESTJVPQIDRWCT,3JPSL1DZ5WFZKV4BK1AH61IYJA2NAO,8,7
71,4,object_05,object_03,863.70000001788,7,2,488.5,0.7777777777777778,1,object_06,5,988,0,7,1,restaurant_4,1,memory-2step-stake-s,576,1613900,0.0-19.0-0.0-0.71,AUFUUD4WG9CVO,3X52SWXE10LAELCT6ESTJVPQIDRWCT,3JPSL1DZ5WFZKV4BK1AH61IYJA2NAO,8,7
72,1,object_02,object_01,944.0,1,2,415.0,0.5555555555555556,1,object_06,5,1013,0,5,4,desert_3,1,memory-2step-stake-s,577,1622121,0.0-19.0-0.0-0.72,AUFUUD4WG9CVO,3X52SWXE10LAELCT6ESTJVPQIDRWCT,3JPSL1DZ5WFZKV4BK1AH61IYJA2NAO,2,1
73,2,object_07,object_08,988.5,3,1,536.69999998808,0.3333333333333333,1,object_06,5,1028,0,3,3,forest_5,1,memory-2step-stake-s,578,1630242,0.0-19.0-0.0-0.73,AUFUUD4WG9CVO,3X52SWXE10LAELCT6ESTJVPQIDRWCT,3JPSL1DZ5WFZKV4BK1AH61IYJA2NAO,3,4
74,2,object_08,object_07,810.59999999404,3,2,292.29999998212,0.2222222222222222,1,object_06,5,1038,0,2,2,forest_4,1,memory-2step-stake-s,579,1638044,0.0-19.0-0.0-0.74,AUFUUD4WG9CVO,3X52SWXE10LAELCT6ESTJVPQIDRWCT,3JPSL1DZ5WFZKV4BK1AH61IYJA2NAO,4,3
75,3,object_10,object_04,821.09999999404,5,2,425.20000001788,0.1111111111111111,1,object_06,5,1043,0,1,8,library_4,1,memory-2step-stake-s,580,1645891,0.0-19.0-0.0-0.75,AUFUUD4WG9CVO,3X52SWXE10LAELCT6ESTJVPQIDRWCT,3JPSL1DZ5WFZKV4BK1AH61IYJA2NAO,6,5
76,4,object_03,object_05,709.29999998212,8,2,447.0,0.7777777777777778,2,object_09,5,1078,0,1,7,restaurant_3,1,memory-2step-stake-s,581,1654364,0.0-19.0-0.0-0.76,AUFUUD4WG9CVO,3X52SWXE10LAELCT6ESTJVPQIDRWCT,3JPSL1DZ5WFZKV4BK1AH61IYJA2NAO,7,8
77,2,object_08,object_07,936.5,4,1,416.5,0.8888888888888888,2,object_09,1,1086,0,3,8,forest_4,1,memory-2step-stake-s,582,1662991,0.0-19.0-0.0-0.77,AUFUUD4WG9CVO,3X52SWXE10LAELCT6ESTJVPQIDRWCT,3JPSL1DZ5WFZKV4BK1AH61IYJA2NAO,4,3
78,1,object_01,object_02,856.69999998808,2,2,445.70000001788,0.7777777777777778,2,object_09,1,1093,0,3,7,desert_6,1,memory-2step-stake-s,583,1671561,0.0-19.0-0.0-0.78,AUFUUD4WG9CVO,3X52SWXE10LAELCT6ESTJVPQIDRWCT,3JPSL1DZ5WFZKV4BK1AH61IYJA2NAO,1,2
79,2,object_08,object_07,969.40000000596,4,1,399.40000000596,0.8888888888888888,2,object_09,1,1101,0,3,8,forest_6,1,memory-2step-stake-s,584,1680101,0.0-19.0-0.0-0.79,AUFUUD4WG9CVO,3X52SWXE10LAELCT6ESTJVPQIDRWCT,3JPSL1DZ5WFZKV4BK1AH61IYJA2NAO,4,3
80,2,object_08,object_07,998.09999999404,4,1,1028.099999994,1.0,2,object_09,1,1110,0,3,9,forest_5,1,memory-2step-stake-s,585,1689381,0.0-19.0-0.0-0.80,AUFUUD4WG9CVO,3X52SWXE10LAELCT6ESTJVPQIDRWCT,3JPSL1DZ5WFZKV4BK1AH61IYJA2NAO,4,3
81,4,object_05,object_03,939.0,8,1,380.09999999404,0.7777777777777778,2,object_09,5,1145,0,3,7,restaurant_4,1,memory-2step-stake-s,586,1697801,0.0-19.0-0.0-0.81,AUFUUD4WG9CVO,3X52SWXE10LAELCT6ESTJVPQIDRWCT,3JPSL1DZ5WFZKV4BK1AH61IYJA2NAO,8,7
82,4,object_03,object_05,1372.900000006,8,2,428.70000001788,0.6666666666666666,2,object_09,5,1175,0,2,6,restaurant_3,1,memory-2step-stake-s,587,1706243,0.0-19.0-0.0-0.82,AUFUUD4WG9CVO,3X52SWXE10LAELCT6ESTJVPQIDRWCT,3JPSL1DZ5WFZKV4BK1AH61IYJA2NAO,7,8
83,2,object_07,object_08,696.79999998212,4,2,282.0,0.6666666666666666,2,object_09,1,1181,0,1,6,forest_2,1,memory-2step-stake-s,588,1714491,0.0-19.0-0.0-0.83,AUFUUD4WG9CVO,3X52SWXE10LAELCT6ESTJVPQIDRWCT,3JPSL1DZ5WFZKV4BK1AH61IYJA2NAO,3,4
84,2,object_08,object_07,710.79999998212,4,1,330.5,1.0,2,object_09,1,1190,0,2,9,forest_4,1,memory-2step-stake-s,589,1723062,0.0-19.0-0.0-0.84,AUFUUD4WG9CVO,3X52SWXE10LAELCT6ESTJVPQIDRWCT,3JPSL1DZ5WFZKV4BK1AH61IYJA2NAO,4,3
85,3,object_10,object_04,1352.6999999881,6,1,730.40000000596,0.5555555555555556,2,object_09,5,1215,0,4,5,library_4,1,memory-2step-stake-s,590,1731622,0.0-19.0-0.0-0.85,AUFUUD4WG9CVO,3X52SWXE10LAELCT6ESTJVPQIDRWCT,3JPSL1DZ5WFZKV4BK1AH61IYJA2NAO,6,5
86,1,object_02,object_01,-1.0,-1,-1,-1.0,0.0,-,0,1,1215,0,6,5,desert_3,1,memory-2step-stake-s,591,1738191,0.0-19.0-0.0-0.86,AUFUUD4WG9CVO,3X52SWXE10LAELCT6ESTJVPQIDRWCT,3JPSL1DZ5WFZKV4BK1AH61IYJA2NAO,2,1
87,3,object_10,object_04,1021.0,6,1,371.59999999404,0.5555555555555556,2,object_09,5,1240,0,7,5,library_6,1,memory-2step-stake-s,592,1746431,0.0-19.0-0.0-0.87,AUFUUD4WG9CVO,3X52SWXE10LAELCT6ESTJVPQIDRWCT,3JPSL1DZ5WFZKV4BK1AH61IYJA2NAO,6,5
88,4,object_05,object_03,1056.599999994,8,1,339.90000000596,0.8888888888888888,2,object_09,5,1280,0,8,8,restaurant_4,1,memory-2step-stake-s,593,1754985,0.0-19.0-0.0-0.88,AUFUUD4WG9CVO,3X52SWXE10LAELCT6ESTJVPQIDRWCT,3JPSL1DZ5WFZKV4BK1AH61IYJA2NAO,8,7
89,1,object_02,object_01,816.69999998808,2,1,280.70000001788,0.8888888888888888,2,object_09,1,1288,0,9,8,desert_5,1,memory-2step-stake-s,594,1763419,0.0-19.0-0.0-0.89,AUFUUD4WG9CVO,3X52SWXE10LAELCT6ESTJVPQIDRWCT,3JPSL1DZ5WFZKV4BK1AH61IYJA2NAO,2,1
90,2,object_08,object_07,698.90000000596,4,1,200.90000000596,0.1111111111111111,2,object_09,1,1289,0,8,1,forest_5,1,memory-2step-stake-s,595,1770982,0.0-19.0-0.0-0.90,AUFUUD4WG9CVO,3X52SWXE10LAELCT6ESTJVPQIDRWCT,3JPSL1DZ5WFZKV4BK1AH61IYJA2NAO,4,3
91,2,object_07,object_08,1017.0,3,1,337.29999998212,0.8888888888888888,1,object_06,5,1329,0,8,1,forest_2,1,memory-2step-stake-s,596,1779511,0.0-19.0-0.0-0.91,AUFUUD4WG9CVO,3X52SWXE10LAELCT6ESTJVPQIDRWCT,3JPSL1DZ5WFZKV4BK1AH61IYJA2NAO,3,4
92,4,object_05,object_03,767.89999997616,7,2,334.0,1.0,1,object_06,5,1374,0,9,2,restaurant_3,1,memory-2step-stake-s,597,1788091,0.0-19.0-0.0-0.92,AUFUUD4WG9CVO,3X52SWXE10LAELCT6ESTJVPQIDRWCT,3JPSL1DZ5WFZKV4BK1AH61IYJA2NAO,8,7
93,3,object_10,object_04,-1.0,-1,-1,-1.0,0.0,-,0,5,1374,0,8,1,library_7,1,memory-2step-stake-s,598,1794639,0.0-19.0-0.0-0.93,AUFUUD4WG9CVO,3X52SWXE10LAELCT6ESTJVPQIDRWCT,3JPSL1DZ5WFZKV4BK1AH61IYJA2NAO,6,5
94,4,object_03,object_05,744.79999998212,7,1,107.59999999404,0.8888888888888888,1,object_06,5,1414,0,8,2,restaurant_7,1,memory-2step-stake-s,599,1802903,0.0-19.0-0.0-0.94,AUFUUD4WG9CVO,3X52SWXE10LAELCT6ESTJVPQIDRWCT,3JPSL1DZ5WFZKV4BK1AH61IYJA2NAO,7,8
95,4,object_03,object_05,624.59999999404,7,1,331.09999999404,0.8888888888888888,1,object_06,5,1454,0,8,1,restaurant_8,1,memory-2step-stake-s,600,1811401,0.0-19.0-0.0-0.95,AUFUUD4WG9CVO,3X52SWXE10LAELCT6ESTJVPQIDRWCT,3JPSL1DZ5WFZKV4BK1AH61IYJA2NAO,7,8
96,1,object_02,object_01,895.19999998808,1,2,612.19999998808,1.0,1,object_06,1,1463,0,9,0,desert_6,1,memory-2step-stake-s,601,1820341,0.0-19.0-0.0-0.96,AUFUUD4WG9CVO,3X52SWXE10LAELCT6ESTJVPQIDRWCT,3JPSL1DZ5WFZKV4BK1AH61IYJA2NAO,2,1
97,4,object_05,object_03,754.19999998808,7,2,379.0,0.6666666666666666,1,object_06,5,1493,0,6,2,restaurant_4,1,memory-2step-stake-s,602,1828707,0.0-19.0-0.0-0.97,AUFUUD4WG9CVO,3X52SWXE10LAELCT6ESTJVPQIDRWCT,3JPSL1DZ5WFZKV4BK1AH61IYJA2NAO,8,7
98,1,object_01,object_02,730.90000000596,1,1,341.10000002384,0.8888888888888888,1,object_06,1,1501,0,8,2,desert_5,1,memory-2step-stake-s,603,1837196,0.0-19.0-0.0-0.98,AUFUUD4WG9CVO,3X52SWXE10LAELCT6ESTJVPQIDRWCT,3JPSL1DZ5WFZKV4BK1AH61IYJA2NAO,1,2
99,1,object_02,object_01,704.59999999404,1,2,304.29999998212,0.7777777777777778,1,object_06,1,1508,0,7,1,desert_6,1,memory-2step-stake-s,604,1845521,0.0-19.0-0.0-0.99,AUFUUD4WG9CVO,3X52SWXE10LAELCT6ESTJVPQIDRWCT,3JPSL1DZ5WFZKV4BK1AH61IYJA2NAO,2,1
100,2,object_07,object_08,764.69999998808,3,1,423.90000000596,0.5555555555555556,1,object_06,1,1513,0,5,4,forest_2,1,memory-2step-stake-s,605,1853772,0.0-19.0-0.0-0.100,AUFUUD4WG9CVO,3X52SWXE10LAELCT6ESTJVPQIDRWCT,3JPSL1DZ5WFZKV4BK1AH61IYJA2NAO,3,4
101,4,object_03,object_05,750.80000001192,7,1,278.0,0.1111111111111111,1,object_06,5,1518,0,1,4,restaurant_8,1,memory-2step-stake-s,606,1861431,0.0-19.0-0.0-0.101,AUFUUD4WG9CVO,3X52SWXE10LAELCT6ESTJVPQIDRWCT,3JPSL1DZ5WFZKV4BK1AH61IYJA2NAO,7,8
102,3,object_10,object_04,1192.599999994,6,1,419.70000001788,0.6666666666666666,2,object_09,5,1548,0,0,6,library_7,1,memory-2step-stake-s,607,1869802,0.0-19.0-0.0-0.102,AUFUUD4WG9CVO,3X52SWXE10LAELCT6ESTJVPQIDRWCT,3JPSL1DZ5WFZKV4BK1AH61IYJA2NAO,6,5
103,2,object_08,object_07,1081.3999999762,4,1,372.30000001192,0.6666666666666666,2,object_09,1,1554,0,0,6,forest_6,1,memory-2step-stake-s,608,1878122,0.0-19.0-0.0-0.103,AUFUUD4WG9CVO,3X52SWXE10LAELCT6ESTJVPQIDRWCT,3JPSL1DZ5WFZKV4BK1AH61IYJA2NAO,4,3
104,3,object_04,object_10,857.5,6,2,473.20000001788,1.0,2,object_09,1,1563,0,1,9,library_4,1,memory-2step-stake-s,609,1886890,0.0-19.0-0.0-0.104,AUFUUD4WG9CVO,3X52SWXE10LAELCT6ESTJVPQIDRWCT,3JPSL1DZ5WFZKV4BK1AH61IYJA2NAO,5,6
105,2,object_07,object_08,990.80000001192,4,2,411.0,0.8888888888888888,2,object_09,1,1571,0,3,8,forest_5,1,memory-2step-stake-s,610,1895435,0.0-19.0-0.0-0.105,AUFUUD4WG9CVO,3X52SWXE10LAELCT6ESTJVPQIDRWCT,3JPSL1DZ5WFZKV4BK1AH61IYJA2NAO,3,4
106,2,object_08,object_07,1426.2999999821,4,1,469.19999998808,0.5555555555555556,2,object_09,1,1576,0,4,5,forest_2,1,memory-2step-stake-s,611,1903742,0.0-19.0-0.0-0.106,AUFUUD4WG9CVO,3X52SWXE10LAELCT6ESTJVPQIDRWCT,3JPSL1DZ5WFZKV4BK1AH61IYJA2NAO,4,3
107,2,object_08,object_07,744.79999998212,4,1,316.29999998212,0.5555555555555556,2,object_09,5,1601,0,2,5,forest_2,1,memory-2step-stake-s,612,1911902,0.0-19.0-0.0-0.107,AUFUUD4WG9CVO,3X52SWXE10LAELCT6ESTJVPQIDRWCT,3JPSL1DZ5WFZKV4BK1AH61IYJA2NAO,4,3
108,4,object_05,object_03,762.69999998808,8,1,324.0,0.5555555555555556,2,object_09,5,1626,0,1,5,restaurant_8,1,memory-2step-stake-s,613,1920122,0.0-19.0-0.0-0.108,AUFUUD4WG9CVO,3X52SWXE10LAELCT6ESTJVPQIDRWCT,3JPSL1DZ5WFZKV4BK1AH61IYJA2NAO,8,7
109,1,object_01,object_02,730.0,2,2,676.30000001192,0.6666666666666666,2,object_09,1,1632,0,2,6,desert_4,1,memory-2step-stake-s,614,1928726,0.0-19.0-0.0-0.109,AUFUUD4WG9CVO,3X52SWXE10LAELCT6ESTJVPQIDRWCT,3JPSL1DZ5WFZKV4BK1AH61IYJA2NAO,1,2
110,1,object_02,object_01,772.90000000596,2,1,764.5,0.8888888888888888,2,object_09,5,1672,0,1,8,desert_3,1,memory-2step-stake-s,615,1937672,0.0-19.0-0.0-0.110,AUFUUD4WG9CVO,3X52SWXE10LAELCT6ESTJVPQIDRWCT,3JPSL1DZ5WFZKV4BK1AH61IYJA2NAO,2,1
111,3,object_10,object_04,1070.400000006,6,1,432.5,0.6666666666666666,2,object_09,5,1702,0,0,6,library_6,1,memory-2step-stake-s,616,1946091,0.0-19.0-0.0-0.111,AUFUUD4WG9CVO,3X52SWXE10LAELCT6ESTJVPQIDRWCT,3JPSL1DZ5WFZKV4BK1AH61IYJA2NAO,6,5
112,1,object_02,object_01,766.79999998212,2,1,342.90000000596,0.3333333333333333,2,object_09,5,1717,0,2,3,desert_5,1,memory-2step-stake-s,617,1954051,0.0-19.0-0.0-0.112,AUFUUD4WG9CVO,3X52SWXE10LAELCT6ESTJVPQIDRWCT,3JPSL1DZ5WFZKV4BK1AH61IYJA2NAO,2,1
113,2,object_07,object_08,1077.599999994,3,1,372.80000001192,0.3333333333333333,1,object_06,1,1720,0,3,1,forest_2,1,memory-2step-stake-s,618,1962050,0.0-19.0-0.0-0.113,AUFUUD4WG9CVO,3X52SWXE10LAELCT6ESTJVPQIDRWCT,3JPSL1DZ5WFZKV4BK1AH61IYJA2NAO,3,4
114,1,object_02,object_01,841.59999999404,1,2,367.59999999404,0.2222222222222222,1,object_06,5,1730,0,2,2,desert_6,1,memory-2step-stake-s,619,1969892,0.0-19.0-0.0-0.114,AUFUUD4WG9CVO,3X52SWXE10LAELCT6ESTJVPQIDRWCT,3JPSL1DZ5WFZKV4BK1AH61IYJA2NAO,2,1
115,2,object_07,object_08,1365.0,4,2,540.30000001192,0.3333333333333333,2,object_09,1,1733,0,3,3,forest_2,1,memory-2step-stake-s,620,1978062,0.0-19.0-0.0-0.115,AUFUUD4WG9CVO,3X52SWXE10LAELCT6ESTJVPQIDRWCT,3JPSL1DZ5WFZKV4BK1AH61IYJA2NAO,3,4
116,4,object_05,object_03,1043.3999999762,8,1,311.30000001192,0.4444444444444444,2,object_09,5,1753,0,2,4,restaurant_7,1,memory-2step-stake-s,621,1986142,0.0-19.0-0.0-0.116,AUFUUD4WG9CVO,3X52SWXE10LAELCT6ESTJVPQIDRWCT,3JPSL1DZ5WFZKV4BK1AH61IYJA2NAO,8,7
117,2,object_08,object_07,895.90000000596,4,1,479.80000001192,0.4444444444444444,2,object_09,1,1757,0,2,4,forest_6,1,memory-2step-stake-s,622,1994331,0.0-19.0-0.0-0.117,AUFUUD4WG9CVO,3X52SWXE10LAELCT6ESTJVPQIDRWCT,3JPSL1DZ5WFZKV4BK1AH61IYJA2NAO,4,3
118,3,object_04,object_10,764.89999997616,6,2,358.19999998808,0.5555555555555556,2,object_09,5,1782,0,2,5,library_8,1,memory-2step-stake-s,623,2002532,0.0-19.0-0.0-0.118,AUFUUD4WG9CVO,3X52SWXE10LAELCT6ESTJVPQIDRWCT,3JPSL1DZ5WFZKV4BK1AH61IYJA2NAO,5,6
119,4,object_05,object_03,748.69999998808,8,1,444.69999998808,0.6666666666666666,2,object_09,5,1812,0,2,6,restaurant_7,1,memory-2step-stake-s,624,2010932,0.0-19.0-0.0-0.119,AUFUUD4WG9CVO,3X52SWXE10LAELCT6ESTJVPQIDRWCT,3JPSL1DZ5WFZKV4BK1AH61IYJA2NAO,8,7
120,2,object_07,object_08,1066.1999999881,4,2,483.20000001788,0.8888888888888888,2,object_09,1,1820,0,6,8,forest_2,1,memory-2step-stake-s,625,2019565,0.0-19.0-0.0-0.120,AUFUUD4WG9CVO,3X52SWXE10LAELCT6ESTJVPQIDRWCT,3JPSL1DZ5WFZKV4BK1AH61IYJA2NAO,3,4
121,3,object_10,object_04,926.59999999404,6,1,-1.0,0.0,2,object_09,5,1820,0,5,8,library_8,1,memory-2step-stake-s,626,2028129,0.0-19.0-0.0-0.121,AUFUUD4WG9CVO,3X52SWXE10LAELCT6ESTJVPQIDRWCT,3JPSL1DZ5WFZKV4BK1AH61IYJA2NAO,6,5
122,3,object_04,object_10,721.79999998212,6,2,387.20000001788,0.6666666666666666,2,object_09,5,1850,0,7,6,library_6,1,memory-2step-stake-s,627,2036463,0.0-19.0-0.0-0.122,AUFUUD4WG9CVO,3X52SWXE10LAELCT6ESTJVPQIDRWCT,3JPSL1DZ5WFZKV4BK1AH61IYJA2NAO,5,6
123,3,object_10,object_04,882.09999999404,6,1,449.30000001192,0.8888888888888888,2,object_09,5,1890,0,7,8,library_8,1,memory-2step-stake-s,628,2045082,0.0-19.0-0.0-0.123,AUFUUD4WG9CVO,3X52SWXE10LAELCT6ESTJVPQIDRWCT,3JPSL1DZ5WFZKV4BK1AH61IYJA2NAO,6,5
124,2,object_08,object_07,744.59999999404,4,1,498.19999998808,0.1111111111111111,2,object_09,5,1895,0,6,1,forest_4,1,memory-2step-stake-s,629,2052982,0.0-19.0-0.0-0.124,AUFUUD4WG9CVO,3X52SWXE10LAELCT6ESTJVPQIDRWCT,3JPSL1DZ5WFZKV4BK1AH61IYJA2NAO,4,3
125,2,object_08,object_07,1018.8000000119,3,2,323.90000000596,0.7777777777777778,1,object_06,1,1902,0,7,2,forest_4,1,memory-2step-stake-s,630,2061392,0.0-19.0-0.0-0.125,AUFUUD4WG9CVO,3X52SWXE10LAELCT6ESTJVPQIDRWCT,3JPSL1DZ5WFZKV4BK1AH61IYJA2NAO,4,3
126,4,object_03,object_05,936.69999998808,7,1,372.0,0.6666666666666666,1,object_06,5,1932,0,6,0,restaurant_7,1,memory-2step-stake-s,631,2069720,0.0-19.0-0.0-0.126,AUFUUD4WG9CVO,3X52SWXE10LAELCT6ESTJVPQIDRWCT,3JPSL1DZ5WFZKV4BK1AH61IYJA2NAO,7,8
127,2,object_07,object_08,742.69999998808,3,1,402.79999998212,0.5555555555555556,1,object_06,5,1957,0,5,2,forest_4,1,memory-2step-stake-s,632,2077982,0.0-19.0-0.0-0.127,AUFUUD4WG9CVO,3X52SWXE10LAELCT6ESTJVPQIDRWCT,3JPSL1DZ5WFZKV4BK1AH61IYJA2NAO,3,4
128,3,object_04,object_10,577.5,5,1,468.59999999404,0.5555555555555556,1,object_06,5,1982,0,5,0,library_6,1,memory-2step-stake-s,634,2522841,0.0-19.0-0.1-0.128,AUFUUD4WG9CVO,3X52SWXE10LAELCT6ESTJVPQIDRWCT,3JPSL1DZ5WFZKV4BK1AH61IYJA2NAO,5,6
129,2,object_08,object_07,923.09999999404,4,1,291.5,0.2222222222222222,2,object_09,1,1984,0,4,2,forest_4,1,memory-2step-stake-s,635,2530632,0.0-19.0-0.1-0.129,AUFUUD4WG9CVO,3X52SWXE10LAELCT6ESTJVPQIDRWCT,3JPSL1DZ5WFZKV4BK1AH61IYJA2NAO,4,3
130,4,object_05,object_03,914.79999998212,7,2,644.90000000596,0.0,1,object_06,5,1984,0,0,3,restaurant_3,1,memory-2step-stake-s,636,2538551,0.0-19.0-0.1-0.130,AUFUUD4WG9CVO,3X52SWXE10LAELCT6ESTJVPQIDRWCT,3JPSL1DZ5WFZKV4BK1AH61IYJA2NAO,8,7
131,4,object_05,object_03,735.10000002384,8,1,97.199999988079,0.6666666666666666,2,object_09,5,2014,0,2,6,restaurant_7,1,memory-2step-stake-s,637,2546612,0.0-19.0-0.1-0.131,AUFUUD4WG9CVO,3X52SWXE10LAELCT6ESTJVPQIDRWCT,3JPSL1DZ5WFZKV4BK1AH61IYJA2NAO,8,7
132,2,object_07,object_08,1048.1999999881,3,1,460.69999998808,0.0,1,object_06,1,2014,0,0,6,forest_4,1,memory-2step-stake-s,638,2554341,0.0-19.0-0.1-0.132,AUFUUD4WG9CVO,3X52SWXE10LAELCT6ESTJVPQIDRWCT,3JPSL1DZ5WFZKV4BK1AH61IYJA2NAO,3,4
133,3,object_04,object_10,1283.900000006,6,2,415.0,0.4444444444444444,2,object_09,1,2018,0,6,4,library_6,1,memory-2step-stake-s,639,2562463,0.0-19.0-0.1-0.133,AUFUUD4WG9CVO,3X52SWXE10LAELCT6ESTJVPQIDRWCT,3JPSL1DZ5WFZKV4BK1AH61IYJA2NAO,5,6
134,4,object_05,object_03,812.69999998808,8,1,364.0,0.5555555555555556,2,object_09,5,2043,0,9,5,restaurant_4,1,memory-2step-stake-s,640,2570648,0.0-19.0-0.1-0.134,AUFUUD4WG9CVO,3X52SWXE10LAELCT6ESTJVPQIDRWCT,3JPSL1DZ5WFZKV4BK1AH61IYJA2NAO,8,7
135,3,object_04,object_10,998.20000001788,6,2,396.39999997616,0.2222222222222222,2,object_09,1,2045,0,8,2,library_7,1,memory-2step-stake-s,641,2578561,0.0-19.0-0.1-0.135,AUFUUD4WG9CVO,3X52SWXE10LAELCT6ESTJVPQIDRWCT,3JPSL1DZ5WFZKV4BK1AH61IYJA2NAO,5,6
136,1,object_02,object_01,910.59999999404,2,1,338.5,0.2222222222222222,2,object_09,5,2055,0,8,2,desert_3,1,memory-2step-stake-s,642,2586401,0.0-19.0-0.1-0.136,AUFUUD4WG9CVO,3X52SWXE10LAELCT6ESTJVPQIDRWCT,3JPSL1DZ5WFZKV4BK1AH61IYJA2NAO,2,1
137,2,object_08,object_07,1164.400000006,4,1,733.20000001788,0.1111111111111111,2,object_09,5,2060,0,7,1,forest_6,1,memory-2step-stake-s,643,2594551,0.0-19.0-0.1-0.137,AUFUUD4WG9CVO,3X52SWXE10LAELCT6ESTJVPQIDRWCT,3JPSL1DZ5WFZKV4BK1AH61IYJA2NAO,4,3
138,1,object_01,object_02,720.90000000596,2,2,347.30000001192,0.2222222222222222,2,object_09,1,2062,0,6,2,desert_5,1,memory-2step-stake-s,644,2602416,0.0-19.0-0.1-0.138,AUFUUD4WG9CVO,3X52SWXE10LAELCT6ESTJVPQIDRWCT,3JPSL1DZ5WFZKV4BK1AH61IYJA2NAO,1,2
139,2,object_08,object_07,740.30000001192,4,1,315.79999998212,0.2222222222222222,2,object_09,1,2064,0,2,2,forest_5,1,memory-2step-stake-s,645,2610241,0.0-19.0-0.1-0.139,AUFUUD4WG9CVO,3X52SWXE10LAELCT6ESTJVPQIDRWCT,3JPSL1DZ5WFZKV4BK1AH61IYJA2NAO,4,3
140,1,object_02,object_01,1049.0,1,2,-1.0,0.0,1,object_06,1,2064,0,2,2,desert_4,1,memory-2step-stake-s,646,2618816,0.0-19.0-0.1-0.140,AUFUUD4WG9CVO,3X52SWXE10LAELCT6ESTJVPQIDRWCT,3JPSL1DZ5WFZKV4BK1AH61IYJA2NAO,2,1
141,2,object_07,object_08,1043.1999999881,3,1,468.09999999404,0.2222222222222222,1,object_06,1,2066,0,2,1,forest_2,1,memory-2step-stake-s,647,2626761,0.0-19.0-0.1-0.141,AUFUUD4WG9CVO,3X52SWXE10LAELCT6ESTJVPQIDRWCT,3JPSL1DZ5WFZKV4BK1AH61IYJA2NAO,3,4
142,2,object_08,object_07,956.0,4,1,373.59999999404,0.2222222222222222,2,object_09,1,2068,0,5,2,forest_5,1,memory-2step-stake-s,648,2634622,0.0-19.0-0.1-0.142,AUFUUD4WG9CVO,3X52SWXE10LAELCT6ESTJVPQIDRWCT,3JPSL1DZ5WFZKV4BK1AH61IYJA2NAO,4,3
143,3,object_04,object_10,-1.0,-1,-1,-1.0,0.0,-,0,1,2068,0,2,2,library_6,1,memory-2step-stake-s,649,2641184,0.0-19.0-0.1-0.143,AUFUUD4WG9CVO,3X52SWXE10LAELCT6ESTJVPQIDRWCT,3JPSL1DZ5WFZKV4BK1AH61IYJA2NAO,5,6
144,1,object_02,object_01,818.59999999404,2,1,744.89999997616,0.4444444444444444,2,object_09,1,2072,0,2,4,desert_4,1,memory-2step-stake-s,650,2649641,0.0-19.0-0.1-0.144,AUFUUD4WG9CVO,3X52SWXE10LAELCT6ESTJVPQIDRWCT,3JPSL1DZ5WFZKV4BK1AH61IYJA2NAO,2,1
145,4,object_03,object_05,1050.900000006,8,2,515.10000002384,0.5555555555555556,2,object_09,5,2097,0,4,5,restaurant_4,1,memory-2step-stake-s,651,2658021,0.0-19.0-0.1-0.145,AUFUUD4WG9CVO,3X52SWXE10LAELCT6ESTJVPQIDRWCT,3JPSL1DZ5WFZKV4BK1AH61IYJA2NAO,7,8
146,3,object_10,object_04,888.90000000596,6,1,122.79999998212,0.2222222222222222,2,object_09,5,2107,0,4,2,library_6,1,memory-2step-stake-s,652,2665671,0.0-19.0-0.1-0.146,AUFUUD4WG9CVO,3X52SWXE10LAELCT6ESTJVPQIDRWCT,3JPSL1DZ5WFZKV4BK1AH61IYJA2NAO,6,5
147,2,object_08,object_07,896.70000001788,3,2,559.5,0.5555555555555556,1,object_06,1,2112,0,5,5,forest_6,1,memory-2step-stake-s,653,2674071,0.0-19.0-0.1-0.147,AUFUUD4WG9CVO,3X52SWXE10LAELCT6ESTJVPQIDRWCT,3JPSL1DZ5WFZKV4BK1AH61IYJA2NAO,4,3
148,4,object_05,object_03,812.59999999404,7,2,557.40000000596,0.6666666666666666,1,object_06,5,2142,0,6,5,restaurant_7,1,memory-2step-stake-s,654,2682610,0.0-19.0-0.1-0.148,AUFUUD4WG9CVO,3X52SWXE10LAELCT6ESTJVPQIDRWCT,3JPSL1DZ5WFZKV4BK1AH61IYJA2NAO,8,7
149,2,object_07,object_08,886.90000000596,3,1,361.79999998212,0.5555555555555556,1,object_06,1,2147,0,5,4,forest_5,1,memory-2step-stake-s,655,2690782,0.0-19.0-0.1-0.149,AUFUUD4WG9CVO,3X52SWXE10LAELCT6ESTJVPQIDRWCT,3JPSL1DZ5WFZKV4BK1AH61IYJA2NAO,3,4
150,4,object_03,object_05,672.80000001192,7,1,576.69999998808,0.5555555555555556,1,object_06,5,2172,0,5,4,restaurant_4,1,memory-2step-stake-s,656,2699173,0.0-19.0-0.1-0.150,AUFUUD4WG9CVO,3X52SWXE10LAELCT6ESTJVPQIDRWCT,3JPSL1DZ5WFZKV4BK1AH61IYJA2NAO,7,8
151,1,object_02,object_01,1375.099999994,1,2,371.0,0.6666666666666666,1,object_06,5,2202,0,6,3,desert_3,1,memory-2step-stake-s,657,2707465,0.0-19.0-0.1-0.151,AUFUUD4WG9CVO,3X52SWXE10LAELCT6ESTJVPQIDRWCT,3JPSL1DZ5WFZKV4BK1AH61IYJA2NAO,2,1
152,1,object_02,object_01,814.20000001788,1,2,848.5,0.7777777777777778,1,object_06,5,2237,0,7,1,desert_3,1,memory-2step-stake-s,658,2716382,0.0-19.0-0.1-0.152,AUFUUD4WG9CVO,3X52SWXE10LAELCT6ESTJVPQIDRWCT,3JPSL1DZ5WFZKV4BK1AH61IYJA2NAO,2,1
153,3,object_04,object_10,666.70000001788,5,1,668.09999999404,0.6666666666666666,1,object_06,5,2267,0,6,0,library_8,1,memory-2step-stake-s,659,2725000,0.0-19.0-0.1-0.153,AUFUUD4WG9CVO,3X52SWXE10LAELCT6ESTJVPQIDRWCT,3JPSL1DZ5WFZKV4BK1AH61IYJA2NAO,5,6
154,2,object_07,object_08,1442.599999994,3,1,-1.0,0.0,1,object_06,1,2267,0,7,1,forest_4,1,memory-2step-stake-s,660,2733571,0.0-19.0-0.1-0.154,AUFUUD4WG9CVO,3X52SWXE10LAELCT6ESTJVPQIDRWCT,3JPSL1DZ5WFZKV4BK1AH61IYJA2NAO,3,4
155,2,object_08,object_07,723.0,3,2,664.79999998212,0.8888888888888888,1,object_06,1,2275,0,8,1,forest_2,1,memory-2step-stake-s,661,2742392,0.0-19.0-0.1-0.155,AUFUUD4WG9CVO,3X52SWXE10LAELCT6ESTJVPQIDRWCT,3JPSL1DZ5WFZKV4BK1AH61IYJA2NAO,4,3
156,1,object_01,object_02,1034.8000000119,2,2,-1.0,0.0,2,object_09,1,2275,0,5,2,desert_5,1,memory-2step-stake-s,662,2750946,0.0-19.0-0.1-0.156,AUFUUD4WG9CVO,3X52SWXE10LAELCT6ESTJVPQIDRWCT,3JPSL1DZ5WFZKV4BK1AH61IYJA2NAO,1,2
157,4,object_05,object_03,-1.0,-1,-1,-1.0,0.0,-,0,1,2275,0,7,2,restaurant_4,1,memory-2step-stake-s,663,2757501,0.0-19.0-0.1-0.157,AUFUUD4WG9CVO,3X52SWXE10LAELCT6ESTJVPQIDRWCT,3JPSL1DZ5WFZKV4BK1AH61IYJA2NAO,8,7
158,3,object_10,object_04,955.5,6,1,368.40000000596,0.0,2,object_09,1,2275,0,6,0,library_7,1,memory-2step-stake-s,664,2765156,0.0-19.0-0.1-0.158,AUFUUD4WG9CVO,3X52SWXE10LAELCT6ESTJVPQIDRWCT,3JPSL1DZ5WFZKV4BK1AH61IYJA2NAO,6,5
159,1,object_02,object_01,1064.7000000179,1,2,289.59999999404,0.5555555555555556,1,object_06,5,2300,0,5,3,desert_4,1,memory-2step-stake-s,665,2773242,0.0-19.0-0.1-0.159,AUFUUD4WG9CVO,3X52SWXE10LAELCT6ESTJVPQIDRWCT,3JPSL1DZ5WFZKV4BK1AH61IYJA2NAO,2,1
160,4,object_03,object_05,617.59999999404,7,1,-1.0,0.0,1,object_06,5,2300,0,3,0,restaurant_8,1,memory-2step-stake-s,666,2781831,0.0-19.0-0.1-0.160,AUFUUD4WG9CVO,3X52SWXE10LAELCT6ESTJVPQIDRWCT,3JPSL1DZ5WFZKV4BK1AH61IYJA2NAO,7,8
161,1,object_02,object_01,652.90000000596,1,2,412.30000001192,0.2222222222222222,1,object_06,1,2302,0,2,0,desert_6,1,memory-2step-stake-s,667,2789751,0.0-19.0-0.1-0.161,AUFUUD4WG9CVO,3X52SWXE10LAELCT6ESTJVPQIDRWCT,3JPSL1DZ5WFZKV4BK1AH61IYJA2NAO,2,1
162,1,object_02,object_01,1130.3000000119,1,2,289.09999999404,0.1111111111111111,1,object_06,1,2303,0,1,1,desert_6,1,memory-2step-stake-s,668,2797421,0.0-19.0-0.1-0.162,AUFUUD4WG9CVO,3X52SWXE10LAELCT6ESTJVPQIDRWCT,3JPSL1DZ5WFZKV4BK1AH61IYJA2NAO,2,1
163,2,object_08,object_07,773.19999998808,4,1,-1.0,0.0,2,object_09,1,2303,0,2,2,forest_2,1,memory-2step-stake-s,669,2806011,0.0-19.0-0.1-0.163,AUFUUD4WG9CVO,3X52SWXE10LAELCT6ESTJVPQIDRWCT,3JPSL1DZ5WFZKV4BK1AH61IYJA2NAO,4,3
164,3,object_10,object_04,699.5,6,1,291.69999998808,0.3333333333333333,2,object_09,1,2306,0,2,3,library_4,1,memory-2step-stake-s,670,2813922,0.0-19.0-0.1-0.164,AUFUUD4WG9CVO,3X52SWXE10LAELCT6ESTJVPQIDRWCT,3JPSL1DZ5WFZKV4BK1AH61IYJA2NAO,6,5
165,4,object_03,object_05,791.0,8,2,1231.400000006,0.8888888888888888,2,object_09,5,2346,0,3,8,restaurant_3,1,memory-2step-stake-s,671,2823281,0.0-19.0-0.1-0.165,AUFUUD4WG9CVO,3X52SWXE10LAELCT6ESTJVPQIDRWCT,3JPSL1DZ5WFZKV4BK1AH61IYJA2NAO,7,8
166,2,object_07,object_08,750.79999998212,4,2,-1.0,0.0,2,object_09,5,2346,0,1,7,forest_2,1,memory-2step-stake-s,672,2831902,0.0-19.0-0.1-0.166,AUFUUD4WG9CVO,3X52SWXE10LAELCT6ESTJVPQIDRWCT,3JPSL1DZ5WFZKV4BK1AH61IYJA2NAO,3,4
167,1,object_02,object_01,684.5,2,1,-1.0,0.0,2,object_09,1,2346,0,1,6,desert_6,1,memory-2step-stake-s,673,2840474,0.0-19.0-0.1-0.167,AUFUUD4WG9CVO,3X52SWXE10LAELCT6ESTJVPQIDRWCT,3JPSL1DZ5WFZKV4BK1AH61IYJA2NAO,2,1
168,3,object_04,object_10,1218.7000000179,6,2,468.30000001192,0.5555555555555556,2,object_09,5,2371,0,1,5,library_7,1,memory-2step-stake-s,674,2848796,0.0-19.0-0.1-0.168,AUFUUD4WG9CVO,3X52SWXE10LAELCT6ESTJVPQIDRWCT,3JPSL1DZ5WFZKV4BK1AH61IYJA2NAO,5,6
169,3,object_10,object_04,1256.900000006,6,1,474.5,0.8888888888888888,2,object_09,5,2411,0,1,8,library_4,1,memory-2step-stake-s,675,2857423,0.0-19.0-0.1-0.169,AUFUUD4WG9CVO,3X52SWXE10LAELCT6ESTJVPQIDRWCT,3JPSL1DZ5WFZKV4BK1AH61IYJA2NAO,6,5
170,3,object_10,object_04,752.59999999404,5,2,267.19999998808,0.1111111111111111,1,object_06,5,2416,0,1,7,library_4,1,memory-2step-stake-s,676,2865083,0.0-19.0-0.1-0.170,AUFUUD4WG9CVO,3X52SWXE10LAELCT6ESTJVPQIDRWCT,3JPSL1DZ5WFZKV4BK1AH61IYJA2NAO,6,5
171,4,object_03,object_05,670.59999999404,8,2,1119.0,0.8888888888888888,2,object_09,5,2456,0,3,8,restaurant_3,1,memory-2step-stake-s,677,2874372,0.0-19.0-0.1-0.171,AUFUUD4WG9CVO,3X52SWXE10LAELCT6ESTJVPQIDRWCT,3JPSL1DZ5WFZKV4BK1AH61IYJA2NAO,7,8
172,1,object_01,object_02,712.59999999404,2,2,407.09999999404,0.8888888888888888,2,object_09,1,2464,0,6,8,desert_5,1,memory-2step-stake-s,678,2882972,0.0-19.0-0.1-0.172,AUFUUD4WG9CVO,3X52SWXE10LAELCT6ESTJVPQIDRWCT,3JPSL1DZ5WFZKV4BK1AH61IYJA2NAO,1,2
173,3,object_10,object_04,908.59999999404,6,1,879.40000000596,1.0,2,object_09,5,2509,0,4,9,library_7,1,memory-2step-stake-s,679,2892122,0.0-19.0-0.1-0.173,AUFUUD4WG9CVO,3X52SWXE10LAELCT6ESTJVPQIDRWCT,3JPSL1DZ5WFZKV4BK1AH61IYJA2NAO,6,5
174,1,object_01,object_02,772.5,2,2,-1.0,0.0,2,object_09,1,2509,0,7,7,desert_6,1,memory-2step-stake-s,680,2900732,0.0-19.0-0.1-0.174,AUFUUD4WG9CVO,3X52SWXE10LAELCT6ESTJVPQIDRWCT,3JPSL1DZ5WFZKV4BK1AH61IYJA2NAO,1,2
175,1,object_01,object_02,684.5,2,2,366.79999998212,0.8888888888888888,2,object_09,1,2517,0,7,8,desert_3,1,memory-2step-stake-s,681,2909255,0.0-19.0-0.1-0.175,AUFUUD4WG9CVO,3X52SWXE10LAELCT6ESTJVPQIDRWCT,3JPSL1DZ5WFZKV4BK1AH61IYJA2NAO,1,2
176,4,object_03,object_05,775.0,8,2,-1.0,0.0,2,object_09,5,2517,0,6,8,restaurant_8,1,memory-2step-stake-s,682,2917807,0.0-19.0-0.1-0.176,AUFUUD4WG9CVO,3X52SWXE10LAELCT6ESTJVPQIDRWCT,3JPSL1DZ5WFZKV4BK1AH61IYJA2NAO,7,8
177,4,object_05,object_03,816.70000001788,8,1,605.20000001788,0.6666666666666666,2,object_09,5,2547,0,9,6,restaurant_8,1,memory-2step-stake-s,683,2926352,0.0-19.0-0.1-0.177,AUFUUD4WG9CVO,3X52SWXE10LAELCT6ESTJVPQIDRWCT,3JPSL1DZ5WFZKV4BK1AH61IYJA2NAO,8,7
178,3,object_10,object_04,-1.0,-1,-1,-1.0,0.0,-,0,5,2547,0,8,7,library_6,1,memory-2step-stake-s,684,2932941,0.0-19.0-0.1-0.178,AUFUUD4WG9CVO,3X52SWXE10LAELCT6ESTJVPQIDRWCT,3JPSL1DZ5WFZKV4BK1AH61IYJA2NAO,6,5
179,1,object_01,object_02,658.09999999404,2,2,745.19999998808,0.6666666666666666,2,object_09,5,2577,0,7,6,desert_3,1,memory-2step-stake-s,685,2941661,0.0-19.0-0.1-0.179,AUFUUD4WG9CVO,3X52SWXE10LAELCT6ESTJVPQIDRWCT,3JPSL1DZ5WFZKV4BK1AH61IYJA2NAO,1,2
180,4,object_05,object_03,562.20000001788,8,1,477.20000001788,0.7777777777777778,2,object_09,5,2612,0,4,7,restaurant_8,1,memory-2step-stake-s,686,2950221,0.0-19.0-0.1-0.180,AUFUUD4WG9CVO,3X52SWXE10LAELCT6ESTJVPQIDRWCT,3JPSL1DZ5WFZKV4BK1AH61IYJA2NAO,8,7
181,1,object_02,object_01,684.69999998808,2,1,454.5,0.6666666666666666,2,object_09,1,2618,0,6,6,desert_6,1,memory-2step-stake-s,687,2958627,0.0-19.0-0.1-0.181,AUFUUD4WG9CVO,3X52SWXE10LAELCT6ESTJVPQIDRWCT,3JPSL1DZ5WFZKV4BK1AH61IYJA2NAO,2,1
182,3,object_10,object_04,651.0,5,2,-1.0,0.0,1,object_06,5,2618,0,7,6,library_7,1,memory-2step-stake-s,688,2967211,0.0-19.0-0.1-0.182,AUFUUD4WG9CVO,3X52SWXE10LAELCT6ESTJVPQIDRWCT,3JPSL1DZ5WFZKV4BK1AH61IYJA2NAO,6,5
183,1,object_01,object_02,493.0,2,2,414.5,0.4444444444444444,2,object_09,1,2622,0,5,4,desert_3,1,memory-2step-stake-s,689,2975373,0.0-19.0-0.1-0.183,AUFUUD4WG9CVO,3X52SWXE10LAELCT6ESTJVPQIDRWCT,3JPSL1DZ5WFZKV4BK1AH61IYJA2NAO,1,2
184,3,object_10,object_04,909.39999997616,6,1,545.0,0.0,2,object_09,5,2622,0,8,0,library_7,1,memory-2step-stake-s,690,2983161,0.0-19.0-0.1-0.184,AUFUUD4WG9CVO,3X52SWXE10LAELCT6ESTJVPQIDRWCT,3JPSL1DZ5WFZKV4BK1AH61IYJA2NAO,6,5
185,1,object_02,object_01,732.70000001788,1,2,412.19999998808,0.7777777777777778,1,object_06,1,2629,0,7,2,desert_3,1,memory-2step-stake-s,691,2991632,0.0-19.0-0.1-0.185,AUFUUD4WG9CVO,3X52SWXE10LAELCT6ESTJVPQIDRWCT,3JPSL1DZ5WFZKV4BK1AH61IYJA2NAO,2,1
186,1,object_02,object_01,860.59999999404,1,2,602.0,0.4444444444444444,1,object_06,1,2633,0,4,4,desert_4,1,memory-2step-stake-s,692,2999942,0.0-19.0-0.1-0.186,AUFUUD4WG9CVO,3X52SWXE10LAELCT6ESTJVPQIDRWCT,3JPSL1DZ5WFZKV4BK1AH61IYJA2NAO,2,1
187,2,object_07,object_08,922.70000001788,3,1,445.30000001192,0.4444444444444444,1,object_06,5,2653,0,4,5,forest_4,1,memory-2step-stake-s,693,3008112,0.0-19.0-0.1-0.187,AUFUUD4WG9CVO,3X52SWXE10LAELCT6ESTJVPQIDRWCT,3JPSL1DZ5WFZKV4BK1AH61IYJA2NAO,3,4
188,4,object_03,object_05,1056.7000000179,8,2,290.30000001192,0.2222222222222222,2,object_09,1,2655,0,6,2,restaurant_3,1,memory-2step-stake-s,694,3015912,0.0-19.0-0.1-0.188,AUFUUD4WG9CVO,3X52SWXE10LAELCT6ESTJVPQIDRWCT,3JPSL1DZ5WFZKV4BK1AH61IYJA2NAO,7,8
189,1,object_02,object_01,1312.400000006,1,2,-1.0,0.0,1,object_06,1,2655,0,8,0,desert_4,1,memory-2step-stake-s,695,3024492,0.0-19.0-0.1-0.189,AUFUUD4WG9CVO,3X52SWXE10LAELCT6ESTJVPQIDRWCT,3JPSL1DZ5WFZKV4BK1AH61IYJA2NAO,2,1
190,3,object_10,object_04,887.0,6,1,522.19999998808,0.0,2,object_09,5,2655,0,7,0,library_8,1,memory-2step-stake-s,696,3032292,0.0-19.0-0.1-0.190,AUFUUD4WG9CVO,3X52SWXE10LAELCT6ESTJVPQIDRWCT,3JPSL1DZ5WFZKV4BK1AH61IYJA2NAO,6,5
191,3,object_10,object_04,1180.6000000238,6,1,-1.0,0.0,2,object_09,1,2655,0,6,3,library_6,1,memory-2step-stake-s,697,3040873,0.0-19.0-0.1-0.191,AUFUUD4WG9CVO,3X52SWXE10LAELCT6ESTJVPQIDRWCT,3JPSL1DZ5WFZKV4BK1AH61IYJA2NAO,6,5
192,4,object_05,object_03,625.30000001192,7,2,847.19999998808,0.4444444444444444,1,object_06,5,2675,0,4,2,restaurant_8,1,memory-2step-stake-s,698,3049422,0.0-19.0-0.1-0.192,AUFUUD4WG9CVO,3X52SWXE10LAELCT6ESTJVPQIDRWCT,3JPSL1DZ5WFZKV4BK1AH61IYJA2NAO,8,7
193,2,object_08,object_07,1038.3000000119,4,1,537.09999999404,0.2222222222222222,2,object_09,1,2677,0,3,2,forest_6,1,memory-2step-stake-s,699,3057468,0.0-19.0-0.1-0.193,AUFUUD4WG9CVO,3X52SWXE10LAELCT6ESTJVPQIDRWCT,3JPSL1DZ5WFZKV4BK1AH61IYJA2NAO,4,3
194,4,object_03,object_05,866.59999999404,7,1,-1.0,0.0,1,object_06,1,2677,0,1,3,restaurant_4,1,memory-2step-stake-s,700,3066022,0.0-19.0-0.1-0.194,AUFUUD4WG9CVO,3X52SWXE10LAELCT6ESTJVPQIDRWCT,3JPSL1DZ5WFZKV4BK1AH61IYJA2NAO,7,8
195,4,object_03,object_05,900.70000001788,7,1,-1.0,0.0,1,object_06,1,2677,0,1,4,restaurant_7,1,memory-2step-stake-s,701,3074597,0.0-19.0-0.1-0.195,AUFUUD4WG9CVO,3X52SWXE10LAELCT6ESTJVPQIDRWCT,3JPSL1DZ5WFZKV4BK1AH61IYJA2NAO,7,8
196,3,object_04,object_10,912.5,6,2,441.90000000596,0.2222222222222222,2,object_09,5,2687,0,3,2,library_6,1,memory-2step-stake-s,702,3082552,0.0-19.0-0.1-0.196,AUFUUD4WG9CVO,3X52SWXE10LAELCT6ESTJVPQIDRWCT,3JPSL1DZ5WFZKV4BK1AH61IYJA2NAO,5,6
197,3,object_10,object_04,840.80000001192,6,1,698.59999999404,0.1111111111111111,2,object_09,5,2692,0,1,1,library_4,1,memory-2step-stake-s,703,3090662,0.0-19.0-0.1-0.197,AUFUUD4WG9CVO,3X52SWXE10LAELCT6ESTJVPQIDRWCT,3JPSL1DZ5WFZKV4BK1AH61IYJA2NAO,6,5
198,4,object_05,object_03,848.70000001788,8,1,291.09999999404,0.3333333333333333,2,object_09,5,2707,0,1,3,restaurant_3,1,memory-2step-stake-s,704,3098612,0.0-19.0-0.1-0.198,AUFUUD4WG9CVO,3X52SWXE10LAELCT6ESTJVPQIDRWCT,3JPSL1DZ5WFZKV4BK1AH61IYJA2NAO,8,7
199,3,object_04,object_10,863.09999999404,6,2,336.30000001192,0.2222222222222222,2,object_09,1,2709,0,0,2,library_8,1,memory-2step-stake-s,705,3106472,0.0-19.0-0.1-0.199,AUFUUD4WG9CVO,3X52SWXE10LAELCT6ESTJVPQIDRWCT,3JPSL1DZ5WFZKV4BK1AH61IYJA2NAO,5,6
200,1,object_02,object_01,847.19999998808,1,2,393.89999997616,0.1111111111111111,1,object_06,1,2710,0,1,0,desert_5,1,memory-2step-stake-s,706,3114281,0.0-19.0-0.1-0.200,AUFUUD4WG9CVO,3X52SWXE10LAELCT6ESTJVPQIDRWCT,3JPSL1DZ5WFZKV4BK1AH61IYJA2NAO,2,1
201,4,object_03,object_05,641.09999999404,7,1,889.0,0.1111111111111111,1,object_06,5,2715,0,1,0,restaurant_8,1,memory-2step-stake-s,707,3122551,0.0-19.0-0.1-0.201,AUFUUD4WG9CVO,3X52SWXE10LAELCT6ESTJVPQIDRWCT,3JPSL1DZ5WFZKV4BK1AH61IYJA2NAO,7,8
202,1,object_02,object_01,816.60000002384,2,1,297.09999999404,0.3333333333333333,2,object_09,1,2718,0,1,3,desert_4,1,memory-2step-stake-s,708,3130495,0.0-19.0-0.1-0.202,AUFUUD4WG9CVO,3X52SWXE10LAELCT6ESTJVPQIDRWCT,3JPSL1DZ5WFZKV4BK1AH61IYJA2NAO,2,1
203,1,object_02,object_01,-1.0,-1,-1,-1.0,0.0,-,0,1,2718,0,1,2,desert_4,1,memory-2step-stake-s,709,3137042,0.0-19.0-0.1-0.203,AUFUUD4WG9CVO,3X52SWXE10LAELCT6ESTJVPQIDRWCT,3JPSL1DZ5WFZKV4BK1AH61IYJA2NAO,2,1
204,3,object_04,object_10,-1.0,-1,-1,-1.0,0.0,-,0,5,2718,0,0,4,library_4,1,memory-2step-stake-s,710,3143611,0.0-19.0-0.1-0.204,AUFUUD4WG9CVO,3X52SWXE10LAELCT6ESTJVPQIDRWCT,3JPSL1DZ5WFZKV4BK1AH61IYJA2NAO,5,6
205,3,object_04,object_10,933.09999999404,5,1,590.79999998212,0.0,1,object_06,5,2718,0,0,6,library_8,1,memory-2step-stake-s,711,3151451,0.0-19.0-0.1-0.205,AUFUUD4WG9CVO,3X52SWXE10LAELCT6ESTJVPQIDRWCT,3JPSL1DZ5WFZKV4BK1AH61IYJA2NAO,5,6
206,1,object_01,object_02,714.30000001192,2,2,222.90000000596,1.0,2,object_09,5,2763,0,2,9,desert_4,1,memory-2step-stake-s,712,3159971,0.0-19.0-0.1-0.206,AUFUUD4WG9CVO,3X52SWXE10LAELCT6ESTJVPQIDRWCT,3JPSL1DZ5WFZKV4BK1AH61IYJA2NAO,1,2
207,3,object_04,object_10,836.70000001788,6,2,341.79999998212,0.8888888888888888,2,object_09,5,2803,0,5,8,library_8,1,memory-2step-stake-s,713,3168541,0.0-19.0-0.1-0.207,AUFUUD4WG9CVO,3X52SWXE10LAELCT6ESTJVPQIDRWCT,3JPSL1DZ5WFZKV4BK1AH61IYJA2NAO,5,6
208,3,object_10,object_04,684.90000000596,6,1,357.90000000596,0.8888888888888888,2,object_09,5,2843,0,2,8,library_6,1,memory-2step-stake-s,714,3177015,0.0-19.0-0.1-0.208,AUFUUD4WG9CVO,3X52SWXE10LAELCT6ESTJVPQIDRWCT,3JPSL1DZ5WFZKV4BK1AH61IYJA2NAO,6,5
209,3,object_10,object_04,716.90000000596,5,2,108.79999998212,0.3333333333333333,1,object_06,5,2858,0,3,9,library_8,1,memory-2step-stake-s,715,3184741,0.0-19.0-0.1-0.209,AUFUUD4WG9CVO,3X52SWXE10LAELCT6ESTJVPQIDRWCT,3JPSL1DZ5WFZKV4BK1AH61IYJA2NAO,6,5
210,1,object_01,object_02,933.09999999404,2,2,350.09999999404,1.0,2,object_09,5,2903,0,5,9,desert_5,1,memory-2step-stake-s,716,3193342,0.0-19.0-0.1-0.210,AUFUUD4WG9CVO,3X52SWXE10LAELCT6ESTJVPQIDRWCT,3JPSL1DZ5WFZKV4BK1AH61IYJA2NAO,1,2
211,1,object_01,object_02,797.90000000596,2,2,329.90000000596,0.8888888888888888,2,object_09,5,2943,0,5,8,desert_5,1,memory-2step-stake-s,717,3201862,0.0-19.0-0.1-0.211,AUFUUD4WG9CVO,3X52SWXE10LAELCT6ESTJVPQIDRWCT,3JPSL1DZ5WFZKV4BK1AH61IYJA2NAO,1,2
212,3,object_04,object_10,740.40000000596,6,2,398.80000001192,0.8888888888888888,2,object_09,1,2951,0,5,8,library_7,1,memory-2step-stake-s,718,3210424,0.0-19.0-0.1-0.212,AUFUUD4WG9CVO,3X52SWXE10LAELCT6ESTJVPQIDRWCT,3JPSL1DZ5WFZKV4BK1AH61IYJA2NAO,5,6
213,1,object_02,object_01,724.70000001788,1,2,572.5,0.1111111111111111,1,object_06,1,2952,0,1,9,desert_4,1,memory-2step-stake-s,719,3218395,0.0-19.0-0.1-0.213,AUFUUD4WG9CVO,3X52SWXE10LAELCT6ESTJVPQIDRWCT,3JPSL1DZ5WFZKV4BK1AH61IYJA2NAO,2,1
214,2,object_07,object_08,682.5,4,2,322.10000002384,0.6666666666666666,2,object_09,1,2958,0,0,6,forest_6,1,memory-2step-stake-s,720,3226641,0.0-19.0-0.1-0.214,AUFUUD4WG9CVO,3X52SWXE10LAELCT6ESTJVPQIDRWCT,3JPSL1DZ5WFZKV4BK1AH61IYJA2NAO,3,4
215,2,object_07,object_08,1100.6000000238,4,2,551.90000000596,0.7777777777777778,2,object_09,1,2965,0,0,7,forest_2,1,memory-2step-stake-s,721,3235277,0.0-19.0-0.1-0.215,AUFUUD4WG9CVO,3X52SWXE10LAELCT6ESTJVPQIDRWCT,3JPSL1DZ5WFZKV4BK1AH61IYJA2NAO,3,4
216,4,object_05,object_03,576.80000001192,8,1,353.09999999404,1.0,2,object_09,5,3010,0,2,9,restaurant_8,1,memory-2step-stake-s,722,3243929,0.0-19.0-0.1-0.216,AUFUUD4WG9CVO,3X52SWXE10LAELCT6ESTJVPQIDRWCT,3JPSL1DZ5WFZKV4BK1AH61IYJA2NAO,8,7
217,1,object_02,object_01,658.59999999404,2,1,285.59999999404,1.0,2,object_09,1,3019,0,3,9,desert_6,1,memory-2step-stake-s,723,3252431,0.0-19.0-0.1-0.217,AUFUUD4WG9CVO,3X52SWXE10LAELCT6ESTJVPQIDRWCT,3JPSL1DZ5WFZKV4BK1AH61IYJA2NAO,2,1
218,1,object_01,object_02,618.0,2,2,292.5,0.8888888888888888,2,object_09,1,3027,0,1,8,desert_6,1,memory-2step-stake-s,724,3260842,0.0-19.0-0.1-0.218,AUFUUD4WG9CVO,3X52SWXE10LAELCT6ESTJVPQIDRWCT,3JPSL1DZ5WFZKV4BK1AH61IYJA2NAO,1,2
219,4,object_03,object_05,611.59999999404,8,2,364.0,0.8888888888888888,2,object_09,5,3067,0,0,8,restaurant_3,1,memory-2step-stake-s,725,3269451,0.0-19.0-0.1-0.219,AUFUUD4WG9CVO,3X52SWXE10LAELCT6ESTJVPQIDRWCT,3JPSL1DZ5WFZKV4BK1AH61IYJA2NAO,7,8
220,2,object_08,object_07,756.90000000596,4,1,313.5,0.8888888888888888,2,object_09,5,3107,0,0,8,forest_2,1,memory-2step-stake-s,726,3277957,0.0-19.0-0.1-0.220,AUFUUD4WG9CVO,3X52SWXE10LAELCT6ESTJVPQIDRWCT,3JPSL1DZ5WFZKV4BK1AH61IYJA2NAO,4,3
221,3,object_04,object_10,745.20000001788,6,2,349.59999999404,0.5555555555555556,2,object_09,5,3132,0,2,5,library_7,1,memory-2step-stake-s,727,3286177,0.0-19.0-0.1-0.221,AUFUUD4WG9CVO,3X52SWXE10LAELCT6ESTJVPQIDRWCT,3JPSL1DZ5WFZKV4BK1AH61IYJA2NAO,5,6
222,3,object_04,object_10,821.0,6,2,383.39999997616,0.7777777777777778,2,object_09,5,3167,0,5,7,library_8,1,memory-2step-stake-s,728,3294591,0.0-19.0-0.1-0.222,AUFUUD4WG9CVO,3X52SWXE10LAELCT6ESTJVPQIDRWCT,3JPSL1DZ5WFZKV4BK1AH61IYJA2NAO,5,6
223,2,object_08,object_07,628.40000000596,4,1,307.59999999404,0.7777777777777778,2,object_09,5,3202,0,7,7,forest_5,1,memory-2step-stake-s,729,3302941,0.0-19.0-0.1-0.223,AUFUUD4WG9CVO,3X52SWXE10LAELCT6ESTJVPQIDRWCT,3JPSL1DZ5WFZKV4BK1AH61IYJA2NAO,4,3
224,2,object_08,object_07,630.0,4,1,1333.900000006,0.8888888888888888,2,object_09,1,3210,0,6,8,forest_6,1,memory-2step-stake-s,730,3312417,0.0-19.0-0.1-0.224,AUFUUD4WG9CVO,3X52SWXE10LAELCT6ESTJVPQIDRWCT,3JPSL1DZ5WFZKV4BK1AH61IYJA2NAO,4,3
225,3,object_04,object_10,718.0,6,2,369.0,0.8888888888888888,2,object_09,5,3250,0,7,8,library_7,1,memory-2step-stake-s,731,3320923,0.0-19.0-0.1-0.225,AUFUUD4WG9CVO,3X52SWXE10LAELCT6ESTJVPQIDRWCT,3JPSL1DZ5WFZKV4BK1AH61IYJA2NAO,5,6
226,3,object_10,object_04,718.70000001788,6,1,464.90000000596,0.8888888888888888,2,object_09,5,3290,0,9,8,library_8,1,memory-2step-stake-s,732,3329521,0.0-19.0-0.1-0.226,AUFUUD4WG9CVO,3X52SWXE10LAELCT6ESTJVPQIDRWCT,3JPSL1DZ5WFZKV4BK1AH61IYJA2NAO,6,5
227,4,object_03,object_05,760.80000001192,8,2,571.5,0.8888888888888888,2,object_09,5,3330,0,5,8,restaurant_8,1,memory-2step-stake-s,733,3338262,0.0-19.0-0.1-0.227,AUFUUD4WG9CVO,3X52SWXE10LAELCT6ESTJVPQIDRWCT,3JPSL1DZ5WFZKV4BK1AH61IYJA2NAO,7,8
228,4,object_05,object_03,-1.0,-1,-1,-1.0,0.0,-,0,1,3330,0,6,7,restaurant_7,1,memory-2step-stake-s,734,3344860,0.0-19.0-0.1-0.228,AUFUUD4WG9CVO,3X52SWXE10LAELCT6ESTJVPQIDRWCT,3JPSL1DZ5WFZKV4BK1AH61IYJA2NAO,8,7
229,1,object_01,object_02,701.29999998212,2,2,1272.0,0.8888888888888888,2,object_09,5,3370,0,8,8,desert_4,1,memory-2step-stake-s,735,3354301,0.0-19.0-0.1-0.229,AUFUUD4WG9CVO,3X52SWXE10LAELCT6ESTJVPQIDRWCT,3JPSL1DZ5WFZKV4BK1AH61IYJA2NAO,1,2
230,1,object_02,object_01,762.69999998808,2,1,1322.3000000119,0.6666666666666666,2,object_09,1,3376,0,8,6,desert_3,1,memory-2step-stake-s,736,3363542,0.0-19.0-0.1-0.230,AUFUUD4WG9CVO,3X52SWXE10LAELCT6ESTJVPQIDRWCT,3JPSL1DZ5WFZKV4BK1AH61IYJA2NAO,2,1
231,3,object_04,object_10,719.10000002384,6,2,408.80000001192,0.2222222222222222,2,object_09,5,3386,0,9,2,library_6,1,memory-2step-stake-s,737,3371422,0.0-19.0-0.1-0.231,AUFUUD4WG9CVO,3X52SWXE10LAELCT6ESTJVPQIDRWCT,3JPSL1DZ5WFZKV4BK1AH61IYJA2NAO,5,6
232,2,object_07,object_08,692.60000002384,4,2,366.80000001192,0.5555555555555556,2,object_09,1,3391,0,7,5,forest_6,1,memory-2step-stake-s,738,3379662,0.0-19.0-0.1-0.232,AUFUUD4WG9CVO,3X52SWXE10LAELCT6ESTJVPQIDRWCT,3JPSL1DZ5WFZKV4BK1AH61IYJA2NAO,3,4
233,2,object_07,object_08,639.89999997616,4,2,795.59999999404,0.2222222222222222,2,object_09,1,3393,0,7,2,forest_2,1,memory-2step-stake-s,739,3387961,0.0-19.0-0.1-0.233,AUFUUD4WG9CVO,3X52SWXE10LAELCT6ESTJVPQIDRWCT,3JPSL1DZ5WFZKV4BK1AH61IYJA2NAO,3,4
234,3,object_04,object_10,674.60000002384,6,2,321.40000000596,0.4444444444444444,2,object_09,5,3413,0,9,4,library_4,1,memory-2step-stake-s,740,3395972,0.0-19.0-0.1-0.234,AUFUUD4WG9CVO,3X52SWXE10LAELCT6ESTJVPQIDRWCT,3JPSL1DZ5WFZKV4BK1AH61IYJA2NAO,5,6
235,3,object_04,object_10,879.90000000596,6,2,330.59999999404,0.1111111111111111,2,object_09,5,3418,0,8,1,library_7,1,memory-2step-stake-s,741,3403692,0.0-19.0-0.1-0.235,AUFUUD4WG9CVO,3X52SWXE10LAELCT6ESTJVPQIDRWCT,3JPSL1DZ5WFZKV4BK1AH61IYJA2NAO,5,6
236,4,object_03,object_05,703.0,7,1,623.19999998808,0.7777777777777778,1,object_06,5,3453,0,7,3,restaurant_3,1,memory-2step-stake-s,742,3412351,0.0-19.0-0.1-0.236,AUFUUD4WG9CVO,3X52SWXE10LAELCT6ESTJVPQIDRWCT,3JPSL1DZ5WFZKV4BK1AH61IYJA2NAO,7,8
237,4,object_05,object_03,712.60000002384,7,2,893.90000000596,0.8888888888888888,1,object_06,5,3493,0,8,3,restaurant_3,1,memory-2step-stake-s,743,3421462,0.0-19.0-0.1-0.237,AUFUUD4WG9CVO,3X52SWXE10LAELCT6ESTJVPQIDRWCT,3JPSL1DZ5WFZKV4BK1AH61IYJA2NAO,8,7
238,4,object_03,object_05,1204.8000000119,8,2,333.0,0.2222222222222222,2,object_09,5,3503,0,7,2,restaurant_3,1,memory-2step-stake-s,744,3429288,0.0-19.0-0.1-0.238,AUFUUD4WG9CVO,3X52SWXE10LAELCT6ESTJVPQIDRWCT,3JPSL1DZ5WFZKV4BK1AH61IYJA2NAO,7,8
239,4,object_03,object_05,748.20000001788,7,1,355.5,0.5555555555555556,1,object_06,1,3508,0,5,1,restaurant_3,1,memory-2step-stake-s,745,3437455,0.0-19.0-0.1-0.239,AUFUUD4WG9CVO,3X52SWXE10LAELCT6ESTJVPQIDRWCT,3JPSL1DZ5WFZKV4BK1AH61IYJA2NAO,7,8
240,1,object_01,object_02,1044.900000006,1,1,1437.2000000179,0.5555555555555556,1,object_06,1,3513,0,5,1,desert_3,1,memory-2step-stake-s,746,3446686,0.0-19.0-0.1-0.240,AUFUUD4WG9CVO,3X52SWXE10LAELCT6ESTJVPQIDRWCT,3JPSL1DZ5WFZKV4BK1AH61IYJA2NAO,1,2
241,4,object_03,object_05,874.59999999404,7,1,460.0,0.6666666666666666,1,object_06,5,3543,0,6,1,restaurant_7,1,memory-2step-stake-s,747,3455031,0.0-19.0-0.1-0.241,AUFUUD4WG9CVO,3X52SWXE10LAELCT6ESTJVPQIDRWCT,3JPSL1DZ5WFZKV4BK1AH61IYJA2NAO,7,8
242,2,object_08,object_07,1020.0,3,2,876.69999998808,0.6666666666666666,1,object_06,1,3549,0,6,0,forest_6,1,memory-2step-stake-s,748,3463851,0.0-19.0-0.1-0.242,AUFUUD4WG9CVO,3X52SWXE10LAELCT6ESTJVPQIDRWCT,3JPSL1DZ5WFZKV4BK1AH61IYJA2NAO,4,3
243,1,object_02,object_01,737.90000000596,1,2,1310.6999999881,0.5555555555555556,1,object_06,1,3554,0,5,2,desert_6,1,memory-2step-stake-s,749,3473011,0.0-19.0-0.1-0.243,AUFUUD4WG9CVO,3X52SWXE10LAELCT6ESTJVPQIDRWCT,3JPSL1DZ5WFZKV4BK1AH61IYJA2NAO,2,1
244,2,object_08,object_07,501.40000000596,3,2,322.09999999404,0.5555555555555556,1,object_06,1,3559,0,5,1,forest_6,1,memory-2step-stake-s,750,3481131,0.0-19.0-0.1-0.244,AUFUUD4WG9CVO,3X52SWXE10LAELCT6ESTJVPQIDRWCT,3JPSL1DZ5WFZKV4BK1AH61IYJA2NAO,4,3
245,3,object_04,object_10,860.80000001192,6,2,-1.0,0.0,2,object_09,5,3559,0,3,3,library_4,1,memory-2step-stake-s,751,3489721,0.0-19.0-0.1-0.245,AUFUUD4WG9CVO,3X52SWXE10LAELCT6ESTJVPQIDRWCT,3JPSL1DZ5WFZKV4BK1AH61IYJA2NAO,5,6
246,1,object_01,object_02,-1.0,-1,-1,-1.0,0.0,-,0,1,3559,0,3,0,desert_4,1,memory-2step-stake-s,752,3496301,0.0-19.0-0.1-0.246,AUFUUD4WG9CVO,3X52SWXE10LAELCT6ESTJVPQIDRWCT,3JPSL1DZ5WFZKV4BK1AH61IYJA2NAO,1,2
247,2,object_07,object_08,698.80000001192,3,1,1032.0,0.0,1,object_06,1,3559,0,0,3,forest_5,1,memory-2step-stake-s,753,3504621,0.0-19.0-0.1-0.247,AUFUUD4WG9CVO,3X52SWXE10LAELCT6ESTJVPQIDRWCT,3JPSL1DZ5WFZKV4BK1AH61IYJA2NAO,3,4
248,3,object_04,object_10,739.09999999404,6,2,387.70000001788,0.3333333333333333,2,object_09,5,3574,0,1,3,library_4,1,memory-2step-stake-s,754,3512641,0.0-19.0-0.1-0.248,AUFUUD4WG9CVO,3X52SWXE10LAELCT6ESTJVPQIDRWCT,3JPSL1DZ5WFZKV4BK1AH61IYJA2NAO,5,6
249,4,object_05,object_03,749.0,7,2,827.69999998808,0.1111111111111111,1,object_06,5,3579,0,1,0,restaurant_4,1,memory-2step-stake-s,755,3520851,0.0-19.0-0.1-0.249,AUFUUD4WG9CVO,3X52SWXE10LAELCT6ESTJVPQIDRWCT,3JPSL1DZ5WFZKV4BK1AH61IYJA2NAO,8,7
250,3,object_04,object_10,777.40000000596,6,2,338.40000000596,0.0,2,object_09,5,3579,0,2,0,library_7,1,memory-2step-stake-s,756,3528471,0.0-19.0-0.1-0.250,AUFUUD4WG9CVO,3X52SWXE10LAELCT6ESTJVPQIDRWCT,3JPSL1DZ5WFZKV4BK1AH61IYJA2NAO,5,6
251,2,object_08,object_07,1114.6999999881,3,2,604.0,0.1111111111111111,1,object_06,1,3580,0,1,0,forest_6,1,memory-2step-stake-s,757,3536461,0.0-19.0-0.1-0.251,AUFUUD4WG9CVO,3X52SWXE10LAELCT6ESTJVPQIDRWCT,3JPSL1DZ5WFZKV4BK1AH61IYJA2NAO,4,3
252,1,object_01,object_02,708.40000000596,2,2,454.09999999404,0.3333333333333333,2,object_09,1,3583,0,4,3,desert_4,1,memory-2step-stake-s,758,3544502,0.0-19.0-0.1-0.252,AUFUUD4WG9CVO,3X52SWXE10LAELCT6ESTJVPQIDRWCT,3JPSL1DZ5WFZKV4BK1AH61IYJA2NAO,1,2
253,1,object_02,object_01,629.90000000596,2,1,288.79999998212,0.1111111111111111,2,object_09,1,3584,0,4,1,desert_6,1,memory-2step-stake-s,759,3552160,0.0-19.0-0.1-0.253,AUFUUD4WG9CVO,3X52SWXE10LAELCT6ESTJVPQIDRWCT,3JPSL1DZ5WFZKV4BK1AH61IYJA2NAO,2,1
254,3,object_04,object_10,1272.8999999762,5,1,803.80000001192,0.5555555555555556,1,object_06,5,3609,0,5,4,library_4,1,memory-2step-stake-s,760,3560782,0.0-19.0-0.1-0.254,AUFUUD4WG9CVO,3X52SWXE10LAELCT6ESTJVPQIDRWCT,3JPSL1DZ5WFZKV4BK1AH61IYJA2NAO,5,6
255,1,object_01,object_02,754.0,1,1,759.69999998808,0.5555555555555556,1,object_06,1,3614,0,5,5,desert_5,1,memory-2step-stake-s,761,3569382,0.0-19.0-0.1-0.255,AUFUUD4WG9CVO,3X52SWXE10LAELCT6ESTJVPQIDRWCT,3JPSL1DZ5WFZKV4BK1AH61IYJA2NAO,1,2
