,state1,stim_left,stim_right,rt_1,choice1,response1,rt_2,points,state2,stim_state2,stake,score,practice,rews1,rews2,background,high_arm,trial_type,trial_index,time_elapsed,internal_node_id,subid,hitid,assignmentid,stim_left_num,stim_right_num
0,2,object_02,object_06,753.0,4,2,-1.0,0.0,2,object_01,5,0,0,0,9,forest_5,2,memory-2step-stake-s,500,1002849,0.0-19.0-0.0-0.0,A38I0E8UK53ME5,3HRWUH63RXIZS6U0Z3EY966PXK25N4,3OLF68YTNDHNW3RUMDR4YW9PHJEAF2,3,4
1,3,object_09,object_08,638.0,5,2,485.0,0.0,1,object_10,1,0,0,0,7,library_5,2,memory-2step-stake-s,501,1010608,0.0-19.0-0.0-0.1,A38I0E8UK53ME5,3HRWUH63RXIZS6U0Z3EY966PXK25N4,3OLF68YTNDHNW3RUMDR4YW9PHJEAF2,6,5
2,2,object_06,object_02,526.0,4,1,980.0,0.5555555555555556,2,object_01,5,25,0,1,5,forest_2,2,memory-2step-stake-s,502,1019428,0.0-19.0-0.0-0.2,A38I0E8UK53ME5,3HRWUH63RXIZS6U0Z3EY966PXK25N4,3OLF68YTNDHNW3RUMDR4YW9PHJEAF2,4,3
3,1,object_04,object_03,838.0,1,2,308.0,0.1111111111111111,1,object_10,5,30,0,1,3,desert_3,2,memory-2step-stake-s,503,1027138,0.0-19.0-0.0-0.3,A38I0E8UK53ME5,3HRWUH63RXIZS6U0Z3EY966PXK25N4,3OLF68YTNDHNW3RUMDR4YW9PHJEAF2,2,1
4,3,object_08,object_09,893.0,6,2,452.0,1.0,2,object_01,1,39,0,4,9,library_5,2,memory-2step-stake-s,504,1035888,0.0-19.0-0.0-0.4,A38I0E8UK53ME5,3HRWUH63RXIZS6U0Z3EY966PXK25N4,3OLF68YTNDHNW3RUMDR4YW9PHJEAF2,5,6
5,1,object_03,object_04,1284.0,1,1,881.0,0.3333333333333333,1,object_10,5,54,0,3,9,desert_5,2,memory-2step-stake-s,505,1044418,0.0-19.0-0.0-0.5,A38I0E8UK53ME5,3HRWUH63RXIZS6U0Z3EY966PXK25N4,3OLF68YTNDHNW3RUMDR4YW9PHJEAF2,1,2
6,2,object_06,object_02,738.0,3,2,473.0,0.0,1,object_10,5,54,0,0,5,forest_6,2,memory-2step-stake-s,506,1052158,0.0-19.0-0.0-0.6,A38I0E8UK53ME5,3HRWUH63RXIZS6U0Z3EY966PXK25N4,3OLF68YTNDHNW3RUMDR4YW9PHJEAF2,4,3
7,3,object_09,object_08,714.0,5,2,337.0,0.2222222222222222,1,object_10,1,56,0,2,7,library_6,2,memory-2step-stake-s,507,1059978,0.0-19.0-0.0-0.7,A38I0E8UK53ME5,3HRWUH63RXIZS6U0Z3EY966PXK25N4,3OLF68YTNDHNW3RUMDR4YW9PHJEAF2,6,5
8,1,object_03,object_04,904.0,1,1,350.0,0.0,1,object_10,5,56,0,0,8,desert_2,2,memory-2step-stake-s,508,1067658,0.0-19.0-0.0-0.8,A38I0E8UK53ME5,3HRWUH63RXIZS6U0Z3EY966PXK25N4,3OLF68YTNDHNW3RUMDR4YW9PHJEAF2,1,2
9,3,object_09,object_08,877.0,5,2,522.0,0.0,1,object_10,1,56,0,0,6,library_1,2,memory-2step-stake-s,509,1075497,0.0-19.0-0.0-0.9,A38I0E8UK53ME5,3HRWUH63RXIZS6U0Z3EY966PXK25N4,3OLF68YTNDHNW3RUMDR4YW9PHJEAF2,6,5
10,2,object_06,object_02,615.0,4,1,557.0,0.8888888888888888,2,object_01,1,64,0,2,8,forest_5,2,memory-2step-stake-s,510,1084197,0.0-19.0-0.0-0.10,A38I0E8UK53ME5,3HRWUH63RXIZS6U0Z3EY966PXK25N4,3OLF68YTNDHNW3RUMDR4YW9PHJEAF2,4,3
11,2,object_02,object_06,1144.0,4,2,292.0,0.7777777777777778,2,object_01,5,99,0,1,7,forest_1,2,memory-2step-stake-s,511,1092518,0.0-19.0-0.0-0.11,A38I0E8UK53ME5,3HRWUH63RXIZS6U0Z3EY966PXK25N4,3OLF68YTNDHNW3RUMDR4YW9PHJEAF2,3,4
12,1,object_04,object_03,873.0,2,1,540.0,0.5555555555555556,2,object_01,5,124,0,1,5,desert_2,2,memory-2step-stake-s,512,1100868,0.0-19.0-0.0-0.12,A38I0E8UK53ME5,3HRWUH63RXIZS6U0Z3EY966PXK25N4,3OLF68YTNDHNW3RUMDR4YW9PHJEAF2,2,1
13,4,object_05,object_07,1144.0,8,2,474.0,0.8888888888888888,2,object_01,1,132,0,3,8,restaurant_7,2,memory-2step-stake-s,513,1109507,0.0-19.0-0.0-0.13,A38I0E8UK53ME5,3HRWUH63RXIZS6U0Z3EY966PXK25N4,3OLF68YTNDHNW3RUMDR4YW9PHJEAF2,7,8
14,2,object_02,object_06,488.0,4,2,427.0,0.6666666666666666,2,object_01,5,162,0,4,6,forest_6,2,memory-2step-stake-s,514,1117827,0.0-19.0-0.0-0.14,A38I0E8UK53ME5,3HRWUH63RXIZS6U0Z3EY966PXK25N4,3OLF68YTNDHNW3RUMDR4YW9PHJEAF2,3,4
15,4,object_05,object_07,934.0,7,1,376.0,0.7777777777777778,1,object_10,1,169,0,7,8,restaurant_3,2,memory-2step-stake-s,515,1126217,0.0-19.0-0.0-0.15,A38I0E8UK53ME5,3HRWUH63RXIZS6U0Z3EY966PXK25N4,3OLF68YTNDHNW3RUMDR4YW9PHJEAF2,7,8
16,4,object_07,object_05,1242.0,7,2,302.0,0.5555555555555556,1,object_10,1,174,0,5,7,restaurant_7,2,memory-2step-stake-s,516,1134347,0.0-19.0-0.0-0.16,A38I0E8UK53ME5,3HRWUH63RXIZS6U0Z3EY966PXK25N4,3OLF68YTNDHNW3RUMDR4YW9PHJEAF2,8,7
17,2,object_06,object_02,626.0,4,1,351.0,0.7777777777777778,2,object_01,5,209,0,5,7,forest_6,2,memory-2step-stake-s,517,1142738,0.0-19.0-0.0-0.17,A38I0E8UK53ME5,3HRWUH63RXIZS6U0Z3EY966PXK25N4,3OLF68YTNDHNW3RUMDR4YW9PHJEAF2,4,3
18,1,object_04,object_03,1088.0,2,1,331.0,0.8888888888888888,2,object_01,5,249,0,4,8,desert_2,2,memory-2step-stake-s,518,1151267,0.0-19.0-0.0-0.18,A38I0E8UK53ME5,3HRWUH63RXIZS6U0Z3EY966PXK25N4,3OLF68YTNDHNW3RUMDR4YW9PHJEAF2,2,1
19,3,object_08,object_09,848.0,6,2,315.0,0.8888888888888888,2,object_01,1,257,0,1,8,library_6,2,memory-2step-stake-s,519,1159687,0.0-19.0-0.0-0.19,A38I0E8UK53ME5,3HRWUH63RXIZS6U0Z3EY966PXK25N4,3OLF68YTNDHNW3RUMDR4YW9PHJEAF2,5,6
20,2,object_02,object_06,666.0,4,2,450.0,0.6666666666666666,2,object_01,5,287,0,1,6,forest_6,2,memory-2step-stake-s,520,1168077,0.0-19.0-0.0-0.20,A38I0E8UK53ME5,3HRWUH63RXIZS6U0Z3EY966PXK25N4,3OLF68YTNDHNW3RUMDR4YW9PHJEAF2,3,4
21,4,object_07,object_05,918.0,8,1,371.0,0.4444444444444444,2,object_01,1,291,0,1,4,restaurant_8,2,memory-2step-stake-s,521,1176147,0.0-19.0-0.0-0.21,A38I0E8UK53ME5,3HRWUH63RXIZS6U0Z3EY966PXK25N4,3OLF68YTNDHNW3RUMDR4YW9PHJEAF2,8,7
22,3,object_08,object_09,878.0,6,2,366.0,0.0,2,object_01,1,291,0,1,0,library_5,2,memory-2step-stake-s,522,1183787,0.0-19.0-0.0-0.22,A38I0E8UK53ME5,3HRWUH63RXIZS6U0Z3EY966PXK25N4,3OLF68YTNDHNW3RUMDR4YW9PHJEAF2,5,6
23,3,object_08,object_09,844.0,5,1,331.0,0.1111111111111111,1,object_10,1,292,0,1,4,library_6,2,memory-2step-stake-s,523,1191487,0.0-19.0-0.0-0.23,A38I0E8UK53ME5,3HRWUH63RXIZS6U0Z3EY966PXK25N4,3OLF68YTNDHNW3RUMDR4YW9PHJEAF2,5,6
24,2,object_02,object_06,633.0,4,2,349.0,0.5555555555555556,2,object_01,5,317,0,5,5,forest_5,2,memory-2step-stake-s,524,1199627,0.0-19.0-0.0-0.24,A38I0E8UK53ME5,3HRWUH63RXIZS6U0Z3EY966PXK25N4,3OLF68YTNDHNW3RUMDR4YW9PHJEAF2,3,4
25,3,object_08,object_09,708.0,6,2,399.0,0.5555555555555556,2,object_01,5,342,0,3,5,library_1,2,memory-2step-stake-s,525,1207887,0.0-19.0-0.0-0.25,A38I0E8UK53ME5,3HRWUH63RXIZS6U0Z3EY966PXK25N4,3OLF68YTNDHNW3RUMDR4YW9PHJEAF2,5,6
26,1,object_04,object_03,684.0,1,2,306.0,0.3333333333333333,1,object_10,5,357,0,3,4,desert_2,2,memory-2step-stake-s,526,1215787,0.0-19.0-0.0-0.26,A38I0E8UK53ME5,3HRWUH63RXIZS6U0Z3EY966PXK25N4,3OLF68YTNDHNW3RUMDR4YW9PHJEAF2,2,1
27,4,object_05,object_07,592.0,8,2,620.0,0.1111111111111111,2,object_01,1,358,0,3,1,restaurant_3,2,memory-2step-stake-s,527,1223806,0.0-19.0-0.0-0.27,A38I0E8UK53ME5,3HRWUH63RXIZS6U0Z3EY966PXK25N4,3OLF68YTNDHNW3RUMDR4YW9PHJEAF2,7,8
28,3,object_09,object_08,851.0,6,1,339.0,0.1111111111111111,2,object_01,1,359,0,2,1,library_1,2,memory-2step-stake-s,528,1231527,0.0-19.0-0.0-0.28,A38I0E8UK53ME5,3HRWUH63RXIZS6U0Z3EY966PXK25N4,3OLF68YTNDHNW3RUMDR4YW9PHJEAF2,6,5
29,3,object_09,object_08,912.0,5,2,315.0,0.4444444444444444,1,object_10,1,363,0,4,3,library_7,2,memory-2step-stake-s,529,1239547,0.0-19.0-0.0-0.29,A38I0E8UK53ME5,3HRWUH63RXIZS6U0Z3EY966PXK25N4,3OLF68YTNDHNW3RUMDR4YW9PHJEAF2,6,5
30,1,object_04,object_03,703.0,1,2,330.0,0.4444444444444444,1,object_10,5,383,0,4,3,desert_7,2,memory-2step-stake-s,530,1247586,0.0-19.0-0.0-0.30,A38I0E8UK53ME5,3HRWUH63RXIZS6U0Z3EY966PXK25N4,3OLF68YTNDHNW3RUMDR4YW9PHJEAF2,2,1
31,2,object_06,object_02,673.0,4,1,319.0,0.5555555555555556,2,object_01,5,408,0,7,5,forest_6,2,memory-2step-stake-s,531,1255767,0.0-19.0-0.0-0.31,A38I0E8UK53ME5,3HRWUH63RXIZS6U0Z3EY966PXK25N4,3OLF68YTNDHNW3RUMDR4YW9PHJEAF2,4,3
32,2,object_06,object_02,523.0,4,1,395.0,0.6666666666666666,2,object_01,5,438,0,8,6,forest_2,2,memory-2step-stake-s,532,1264066,0.0-19.0-0.0-0.32,A38I0E8UK53ME5,3HRWUH63RXIZS6U0Z3EY966PXK25N4,3OLF68YTNDHNW3RUMDR4YW9PHJEAF2,4,3
33,3,object_08,object_09,664.0,6,2,366.0,0.8888888888888888,2,object_01,5,478,0,8,8,library_5,2,memory-2step-stake-s,533,1272597,0.0-19.0-0.0-0.33,A38I0E8UK53ME5,3HRWUH63RXIZS6U0Z3EY966PXK25N4,3OLF68YTNDHNW3RUMDR4YW9PHJEAF2,5,6
34,2,object_06,object_02,480.0,4,1,309.0,1.0,2,object_01,5,523,0,8,9,forest_1,2,memory-2step-stake-s,534,1281196,0.0-19.0-0.0-0.34,A38I0E8UK53ME5,3HRWUH63RXIZS6U0Z3EY966PXK25N4,3OLF68YTNDHNW3RUMDR4YW9PHJEAF2,4,3
35,4,object_07,object_05,923.0,7,2,606.0,1.0,1,object_10,1,532,0,9,7,restaurant_4,2,memory-2step-stake-s,535,1290086,0.0-19.0-0.0-0.35,A38I0E8UK53ME5,3HRWUH63RXIZS6U0Z3EY966PXK25N4,3OLF68YTNDHNW3RUMDR4YW9PHJEAF2,8,7
36,3,object_09,object_08,717.0,5,2,276.0,0.7777777777777778,1,object_10,1,539,0,7,8,library_7,2,memory-2step-stake-s,536,1298366,0.0-19.0-0.0-0.36,A38I0E8UK53ME5,3HRWUH63RXIZS6U0Z3EY966PXK25N4,3OLF68YTNDHNW3RUMDR4YW9PHJEAF2,6,5
37,1,object_04,object_03,698.0,1,2,390.0,0.5555555555555556,1,object_10,5,564,0,5,8,desert_5,2,memory-2step-stake-s,537,1306596,0.0-19.0-0.0-0.37,A38I0E8UK53ME5,3HRWUH63RXIZS6U0Z3EY966PXK25N4,3OLF68YTNDHNW3RUMDR4YW9PHJEAF2,2,1
38,4,object_05,object_07,904.0,8,2,440.0,0.6666666666666666,2,object_01,1,570,0,3,6,restaurant_8,2,memory-2step-stake-s,538,1314967,0.0-19.0-0.0-0.38,A38I0E8UK53ME5,3HRWUH63RXIZS6U0Z3EY966PXK25N4,3OLF68YTNDHNW3RUMDR4YW9PHJEAF2,7,8
39,1,object_04,object_03,860.0,2,1,293.0,0.8888888888888888,2,object_01,5,610,0,6,8,desert_2,2,memory-2step-stake-s,539,1323456,0.0-19.0-0.0-0.39,A38I0E8UK53ME5,3HRWUH63RXIZS6U0Z3EY966PXK25N4,3OLF68YTNDHNW3RUMDR4YW9PHJEAF2,2,1
40,4,object_05,object_07,827.0,7,1,1033.0,0.4444444444444444,1,object_10,1,614,0,4,8,restaurant_4,2,memory-2step-stake-s,540,1332196,0.0-19.0-0.0-0.40,A38I0E8UK53ME5,3HRWUH63RXIZS6U0Z3EY966PXK25N4,3OLF68YTNDHNW3RUMDR4YW9PHJEAF2,7,8
41,3,object_08,object_09,580.0,6,2,295.0,0.7777777777777778,2,object_01,1,621,0,1,7,library_6,2,memory-2step-stake-s,541,1340506,0.0-19.0-0.0-0.41,A38I0E8UK53ME5,3HRWUH63RXIZS6U0Z3EY966PXK25N4,3OLF68YTNDHNW3RUMDR4YW9PHJEAF2,5,6
42,2,object_02,object_06,764.0,4,2,321.0,0.6666666666666666,2,object_01,1,627,0,2,6,forest_6,2,memory-2step-stake-s,542,1348756,0.0-19.0-0.0-0.42,A38I0E8UK53ME5,3HRWUH63RXIZS6U0Z3EY966PXK25N4,3OLF68YTNDHNW3RUMDR4YW9PHJEAF2,3,4
43,1,object_03,object_04,843.0,1,1,253.0,0.3333333333333333,1,object_10,5,642,0,3,6,desert_7,2,memory-2step-stake-s,543,1356606,0.0-19.0-0.0-0.43,A38I0E8UK53ME5,3HRWUH63RXIZS6U0Z3EY966PXK25N4,3OLF68YTNDHNW3RUMDR4YW9PHJEAF2,1,2
44,3,object_09,object_08,720.0,5,2,342.0,0.4444444444444444,1,object_10,1,646,0,4,5,library_6,2,memory-2step-stake-s,544,1364696,0.0-19.0-0.0-0.44,A38I0E8UK53ME5,3HRWUH63RXIZS6U0Z3EY966PXK25N4,3OLF68YTNDHNW3RUMDR4YW9PHJEAF2,6,5
45,1,object_03,object_04,988.0,2,2,301.0,0.7777777777777778,2,object_01,5,681,0,0,7,desert_3,2,memory-2step-stake-s,545,1373076,0.0-19.0-0.0-0.45,A38I0E8UK53ME5,3HRWUH63RXIZS6U0Z3EY966PXK25N4,3OLF68YTNDHNW3RUMDR4YW9PHJEAF2,1,2
46,3,object_08,object_09,711.0,6,2,582.0,0.6666666666666666,2,object_01,1,687,0,2,6,library_6,2,memory-2step-stake-s,546,1381575,0.0-19.0-0.0-0.46,A38I0E8UK53ME5,3HRWUH63RXIZS6U0Z3EY966PXK25N4,3OLF68YTNDHNW3RUMDR4YW9PHJEAF2,5,6
47,4,object_07,object_05,760.0,7,2,292.0,0.0,1,object_10,5,687,0,0,7,restaurant_7,2,memory-2step-stake-s,547,1389135,0.0-19.0-0.0-0.47,A38I0E8UK53ME5,3HRWUH63RXIZS6U0Z3EY966PXK25N4,3OLF68YTNDHNW3RUMDR4YW9PHJEAF2,8,7
48,2,object_02,object_06,623.0,4,2,318.0,1.0,2,object_01,1,696,0,2,9,forest_1,2,memory-2step-stake-s,548,1397716,0.0-19.0-0.0-0.48,A38I0E8UK53ME5,3HRWUH63RXIZS6U0Z3EY966PXK25N4,3OLF68YTNDHNW3RUMDR4YW9PHJEAF2,3,4
49,4,object_05,object_07,1133.0,7,1,355.0,0.2222222222222222,1,object_10,1,698,0,2,6,restaurant_3,2,memory-2step-stake-s,549,1405575,0.0-19.0-0.0-0.49,A38I0E8UK53ME5,3HRWUH63RXIZS6U0Z3EY966PXK25N4,3OLF68YTNDHNW3RUMDR4YW9PHJEAF2,7,8
50,4,object_07,object_05,1419.0,7,2,349.0,0.1111111111111111,1,object_10,1,699,0,1,5,restaurant_8,2,memory-2step-stake-s,550,1413336,0.0-19.0-0.0-0.50,A38I0E8UK53ME5,3HRWUH63RXIZS6U0Z3EY966PXK25N4,3OLF68YTNDHNW3RUMDR4YW9PHJEAF2,8,7
51,1,object_03,object_04,924.0,2,2,392.0,0.6666666666666666,2,object_01,5,729,0,0,6,desert_7,2,memory-2step-stake-s,551,1421655,0.0-19.0-0.0-0.51,A38I0E8UK53ME5,3HRWUH63RXIZS6U0Z3EY966PXK25N4,3OLF68YTNDHNW3RUMDR4YW9PHJEAF2,1,2
52,4,object_07,object_05,820.0,8,1,287.0,0.8888888888888888,2,object_01,5,769,0,1,8,restaurant_7,2,memory-2step-stake-s,552,1430056,0.0-19.0-0.0-0.52,A38I0E8UK53ME5,3HRWUH63RXIZS6U0Z3EY966PXK25N4,3OLF68YTNDHNW3RUMDR4YW9PHJEAF2,8,7
53,3,object_08,object_09,1103.0,5,1,347.0,0.1111111111111111,1,object_10,1,770,0,1,7,library_7,2,memory-2step-stake-s,553,1437815,0.0-19.0-0.0-0.53,A38I0E8UK53ME5,3HRWUH63RXIZS6U0Z3EY966PXK25N4,3OLF68YTNDHNW3RUMDR4YW9PHJEAF2,5,6
54,4,object_05,object_07,790.0,8,2,345.0,0.8888888888888888,2,object_01,5,810,0,1,8,restaurant_3,2,memory-2step-stake-s,554,1446295,0.0-19.0-0.0-0.54,A38I0E8UK53ME5,3HRWUH63RXIZS6U0Z3EY966PXK25N4,3OLF68YTNDHNW3RUMDR4YW9PHJEAF2,7,8
55,4,object_05,object_07,703.0,8,2,330.0,1.0,2,object_01,1,819,0,2,9,restaurant_8,2,memory-2step-stake-s,555,1454895,0.0-19.0-0.0-0.55,A38I0E8UK53ME5,3HRWUH63RXIZS6U0Z3EY966PXK25N4,3OLF68YTNDHNW3RUMDR4YW9PHJEAF2,7,8
56,4,object_05,object_07,816.0,8,2,550.0,1.0,2,object_01,1,828,0,5,9,restaurant_8,2,memory-2step-stake-s,556,1463715,0.0-19.0-0.0-0.56,A38I0E8UK53ME5,3HRWUH63RXIZS6U0Z3EY966PXK25N4,3OLF68YTNDHNW3RUMDR4YW9PHJEAF2,7,8
57,1,object_04,object_03,632.0,2,1,369.0,1.0,2,object_01,5,873,0,4,9,desert_2,2,memory-2step-stake-s,557,1472346,0.0-19.0-0.0-0.57,A38I0E8UK53ME5,3HRWUH63RXIZS6U0Z3EY966PXK25N4,3OLF68YTNDHNW3RUMDR4YW9PHJEAF2,2,1
58,2,object_06,object_02,799.0,4,1,294.0,0.6666666666666666,2,object_01,5,903,0,4,6,forest_1,2,memory-2step-stake-s,558,1480585,0.0-19.0-0.0-0.58,A38I0E8UK53ME5,3HRWUH63RXIZS6U0Z3EY966PXK25N4,3OLF68YTNDHNW3RUMDR4YW9PHJEAF2,4,3
59,1,object_03,object_04,1401.0,2,2,442.0,0.5555555555555556,2,object_01,5,928,0,1,5,desert_3,2,memory-2step-stake-s,559,1488905,0.0-19.0-0.0-0.59,A38I0E8UK53ME5,3HRWUH63RXIZS6U0Z3EY966PXK25N4,3OLF68YTNDHNW3RUMDR4YW9PHJEAF2,1,2
60,4,object_05,object_07,507.0,8,2,377.0,0.7777777777777778,2,object_01,1,935,0,2,7,restaurant_7,2,memory-2step-stake-s,560,1497315,0.0-19.0-0.0-0.60,A38I0E8UK53ME5,3HRWUH63RXIZS6U0Z3EY966PXK25N4,3OLF68YTNDHNW3RUMDR4YW9PHJEAF2,7,8
61,3,object_08,object_09,1004.0,5,1,312.0,0.1111111111111111,1,object_10,1,936,0,1,7,library_5,2,memory-2step-stake-s,561,1504995,0.0-19.0-0.0-0.61,A38I0E8UK53ME5,3HRWUH63RXIZS6U0Z3EY966PXK25N4,3OLF68YTNDHNW3RUMDR4YW9PHJEAF2,5,6
62,2,object_06,object_02,749.0,4,1,350.0,1.0,2,object_01,5,981,0,1,9,forest_2,2,memory-2step-stake-s,562,1513554,0.0-19.0-0.0-0.62,A38I0E8UK53ME5,3HRWUH63RXIZS6U0Z3EY966PXK25N4,3OLF68YTNDHNW3RUMDR4YW9PHJEAF2,4,3
63,2,object_02,object_06,741.0,4,2,367.0,0.7777777777777778,2,object_01,5,1016,0,3,7,forest_5,2,memory-2step-stake-s,563,1521935,0.0-19.0-0.0-0.63,A38I0E8UK53ME5,3HRWUH63RXIZS6U0Z3EY966PXK25N4,3OLF68YTNDHNW3RUMDR4YW9PHJEAF2,3,4
64,3,object_09,object_08,1135.0,5,2,402.0,0.4444444444444444,1,object_10,1,1020,0,4,5,library_7,2,memory-2step-stake-s,564,1530055,0.0-19.0-0.0-0.64,A38I0E8UK53ME5,3HRWUH63RXIZS6U0Z3EY966PXK25N4,3OLF68YTNDHNW3RUMDR4YW9PHJEAF2,6,5
65,3,object_09,object_08,1071.0,5,2,358.0,0.1111111111111111,1,object_10,1,1021,0,1,3,library_6,2,memory-2step-stake-s,565,1537795,0.0-19.0-0.0-0.65,A38I0E8UK53ME5,3HRWUH63RXIZS6U0Z3EY966PXK25N4,3OLF68YTNDHNW3RUMDR4YW9PHJEAF2,6,5
66,3,object_09,object_08,892.0,6,1,311.0,0.4444444444444444,2,object_01,5,1041,0,2,4,library_5,2,memory-2step-stake-s,566,1545855,0.0-19.0-0.0-0.66,A38I0E8UK53ME5,3HRWUH63RXIZS6U0Z3EY966PXK25N4,3OLF68YTNDHNW3RUMDR4YW9PHJEAF2,6,5
67,1,object_04,object_03,616.0,2,1,400.0,0.3333333333333333,2,object_01,1,1044,0,3,3,desert_5,2,memory-2step-stake-s,567,1553895,0.0-19.0-0.0-0.67,A38I0E8UK53ME5,3HRWUH63RXIZS6U0Z3EY966PXK25N4,3OLF68YTNDHNW3RUMDR4YW9PHJEAF2,2,1
68,4,object_07,object_05,811.0,8,1,347.0,0.0,2,object_01,1,1044,0,3,0,restaurant_3,2,memory-2step-stake-s,568,1561555,0.0-19.0-0.0-0.68,A38I0E8UK53ME5,3HRWUH63RXIZS6U0Z3EY966PXK25N4,3OLF68YTNDHNW3RUMDR4YW9PHJEAF2,8,7
69,1,object_04,object_03,934.0,1,2,337.0,0.0,1,object_10,5,1044,0,0,1,desert_2,2,memory-2step-stake-s,569,1569155,0.0-19.0-0.0-0.69,A38I0E8UK53ME5,3HRWUH63RXIZS6U0Z3EY966PXK25N4,3OLF68YTNDHNW3RUMDR4YW9PHJEAF2,2,1
70,1,object_04,object_03,805.0,2,1,320.0,0.3333333333333333,2,object_01,5,1059,0,0,3,desert_5,2,memory-2step-stake-s,570,1577154,0.0-19.0-0.0-0.70,A38I0E8UK53ME5,3HRWUH63RXIZS6U0Z3EY966PXK25N4,3OLF68YTNDHNW3RUMDR4YW9PHJEAF2,2,1
71,3,object_09,object_08,1307.0,6,1,327.0,1.0,2,object_01,5,1104,0,0,9,library_6,2,memory-2step-stake-s,571,1585755,0.0-19.0-0.0-0.71,A38I0E8UK53ME5,3HRWUH63RXIZS6U0Z3EY966PXK25N4,3OLF68YTNDHNW3RUMDR4YW9PHJEAF2,6,5
72,1,object_03,object_04,969.0,2,2,267.0,1.0,2,object_01,1,1113,0,3,9,desert_7,2,memory-2step-stake-s,572,1594264,0.0-19.0-0.0-0.72,A38I0E8UK53ME5,3HRWUH63RXIZS6U0Z3EY966PXK25N4,3OLF68YTNDHNW3RUMDR4YW9PHJEAF2,1,2
73,1,object_04,object_03,1186.0,2,1,406.0,0.8888888888888888,2,object_01,5,1153,0,6,8,desert_7,2,memory-2step-stake-s,573,1602845,0.0-19.0-0.0-0.73,A38I0E8UK53ME5,3HRWUH63RXIZS6U0Z3EY966PXK25N4,3OLF68YTNDHNW3RUMDR4YW9PHJEAF2,2,1
74,4,object_07,object_05,641.0,8,1,310.0,0.3333333333333333,2,object_01,1,1156,0,4,3,restaurant_7,2,memory-2step-stake-s,574,1610784,0.0-19.0-0.0-0.74,A38I0E8UK53ME5,3HRWUH63RXIZS6U0Z3EY966PXK25N4,3OLF68YTNDHNW3RUMDR4YW9PHJEAF2,8,7
75,4,object_07,object_05,954.0,8,1,334.0,0.5555555555555556,2,object_01,5,1181,0,2,5,restaurant_4,2,memory-2step-stake-s,575,1618964,0.0-19.0-0.0-0.75,A38I0E8UK53ME5,3HRWUH63RXIZS6U0Z3EY966PXK25N4,3OLF68YTNDHNW3RUMDR4YW9PHJEAF2,8,7
76,1,object_04,object_03,1077.0,2,1,367.0,0.2222222222222222,2,object_01,5,1191,0,4,2,desert_5,2,memory-2step-stake-s,576,1626843,0.0-19.0-0.0-0.76,A38I0E8UK53ME5,3HRWUH63RXIZS6U0Z3EY966PXK25N4,3OLF68YTNDHNW3RUMDR4YW9PHJEAF2,2,1
77,3,object_08,object_09,758.0,6,2,362.0,0.1111111111111111,2,object_01,5,1196,0,4,1,library_1,2,memory-2step-stake-s,577,1634604,0.0-19.0-0.0-0.77,A38I0E8UK53ME5,3HRWUH63RXIZS6U0Z3EY966PXK25N4,3OLF68YTNDHNW3RUMDR4YW9PHJEAF2,5,6
78,3,object_09,object_08,1186.0,6,1,411.0,0.1111111111111111,2,object_01,5,1201,0,3,1,library_1,2,memory-2step-stake-s,578,1642414,0.0-19.0-0.0-0.78,A38I0E8UK53ME5,3HRWUH63RXIZS6U0Z3EY966PXK25N4,3OLF68YTNDHNW3RUMDR4YW9PHJEAF2,6,5
79,1,object_03,object_04,915.0,2,2,350.0,0.1111111111111111,2,object_01,5,1206,0,1,1,desert_5,2,memory-2step-stake-s,579,1650154,0.0-19.0-0.0-0.79,A38I0E8UK53ME5,3HRWUH63RXIZS6U0Z3EY966PXK25N4,3OLF68YTNDHNW3RUMDR4YW9PHJEAF2,1,2
80,3,object_08,object_09,892.0,6,2,337.0,0.2222222222222222,2,object_01,1,1208,0,3,2,library_6,2,memory-2step-stake-s,580,1657984,0.0-19.0-0.0-0.80,A38I0E8UK53ME5,3HRWUH63RXIZS6U0Z3EY966PXK25N4,3OLF68YTNDHNW3RUMDR4YW9PHJEAF2,5,6
81,2,object_06,object_02,671.0,4,1,297.0,0.3333333333333333,2,object_01,5,1223,0,6,3,forest_1,2,memory-2step-stake-s,581,1665884,0.0-19.0-0.0-0.81,A38I0E8UK53ME5,3HRWUH63RXIZS6U0Z3EY966PXK25N4,3OLF68YTNDHNW3RUMDR4YW9PHJEAF2,4,3
82,4,object_07,object_05,713.0,8,1,294.0,0.6666666666666666,2,object_01,5,1253,0,3,6,restaurant_8,2,memory-2step-stake-s,582,1674094,0.0-19.0-0.0-0.82,A38I0E8UK53ME5,3HRWUH63RXIZS6U0Z3EY966PXK25N4,3OLF68YTNDHNW3RUMDR4YW9PHJEAF2,8,7
83,2,object_06,object_02,601.0,4,1,314.0,0.6666666666666666,2,object_01,1,1259,0,6,6,forest_2,2,memory-2step-stake-s,583,1682324,0.0-19.0-0.0-0.83,A38I0E8UK53ME5,3HRWUH63RXIZS6U0Z3EY966PXK25N4,3OLF68YTNDHNW3RUMDR4YW9PHJEAF2,4,3
84,3,object_08,object_09,1323.0,5,1,300.0,0.7777777777777778,1,object_10,5,1294,0,7,6,library_6,2,memory-2step-stake-s,584,1690683,0.0-19.0-0.0-0.84,A38I0E8UK53ME5,3HRWUH63RXIZS6U0Z3EY966PXK25N4,3OLF68YTNDHNW3RUMDR4YW9PHJEAF2,5,6
85,3,object_09,object_08,887.0,5,2,286.0,0.8888888888888888,1,object_10,1,1302,0,8,5,library_5,2,memory-2step-stake-s,585,1699084,0.0-19.0-0.0-0.85,A38I0E8UK53ME5,3HRWUH63RXIZS6U0Z3EY966PXK25N4,3OLF68YTNDHNW3RUMDR4YW9PHJEAF2,6,5
86,1,object_03,object_04,860.0,1,1,302.0,0.6666666666666666,1,object_10,5,1332,0,6,7,desert_3,2,memory-2step-stake-s,586,1707284,0.0-19.0-0.0-0.86,A38I0E8UK53ME5,3HRWUH63RXIZS6U0Z3EY966PXK25N4,3OLF68YTNDHNW3RUMDR4YW9PHJEAF2,1,2
87,3,object_08,object_09,915.0,6,2,325.0,0.5555555555555556,2,object_01,1,1337,0,5,5,library_6,2,memory-2step-stake-s,587,1715514,0.0-19.0-0.0-0.87,A38I0E8UK53ME5,3HRWUH63RXIZS6U0Z3EY966PXK25N4,3OLF68YTNDHNW3RUMDR4YW9PHJEAF2,5,6
88,4,object_07,object_05,1268.0,8,1,328.0,0.6666666666666666,2,object_01,1,1343,0,4,6,restaurant_4,2,memory-2step-stake-s,588,1723803,0.0-19.0-0.0-0.88,A38I0E8UK53ME5,3HRWUH63RXIZS6U0Z3EY966PXK25N4,3OLF68YTNDHNW3RUMDR4YW9PHJEAF2,8,7
89,2,object_06,object_02,569.0,4,1,376.0,0.6666666666666666,2,object_01,5,1373,0,2,6,forest_2,2,memory-2step-stake-s,589,1732113,0.0-19.0-0.0-0.89,A38I0E8UK53ME5,3HRWUH63RXIZS6U0Z3EY966PXK25N4,3OLF68YTNDHNW3RUMDR4YW9PHJEAF2,4,3
90,4,object_05,object_07,723.0,8,2,302.0,1.0,2,object_01,1,1382,0,3,9,restaurant_4,2,memory-2step-stake-s,590,1740704,0.0-19.0-0.0-0.90,A38I0E8UK53ME5,3HRWUH63RXIZS6U0Z3EY966PXK25N4,3OLF68YTNDHNW3RUMDR4YW9PHJEAF2,7,8
91,1,object_03,object_04,1086.0,1,1,430.0,0.2222222222222222,1,object_10,5,1392,0,2,7,desert_7,2,memory-2step-stake-s,591,1748634,0.0-19.0-0.0-0.91,A38I0E8UK53ME5,3HRWUH63RXIZS6U0Z3EY966PXK25N4,3OLF68YTNDHNW3RUMDR4YW9PHJEAF2,1,2
92,1,object_04,object_03,807.0,1,2,349.0,0.3333333333333333,1,object_10,1,1395,0,3,7,desert_2,2,memory-2step-stake-s,592,1756583,0.0-19.0-0.0-0.92,A38I0E8UK53ME5,3HRWUH63RXIZS6U0Z3EY966PXK25N4,3OLF68YTNDHNW3RUMDR4YW9PHJEAF2,2,1
93,4,object_05,object_07,617.0,8,2,1149.0,0.7777777777777778,2,object_01,1,1402,0,4,7,restaurant_4,2,memory-2step-stake-s,593,1765733,0.0-19.0-0.0-0.93,A38I0E8UK53ME5,3HRWUH63RXIZS6U0Z3EY966PXK25N4,3OLF68YTNDHNW3RUMDR4YW9PHJEAF2,7,8
94,1,object_04,object_03,491.0,1,2,275.0,0.3333333333333333,1,object_10,1,1405,0,3,8,desert_2,2,memory-2step-stake-s,594,1773653,0.0-19.0-0.0-0.94,A38I0E8UK53ME5,3HRWUH63RXIZS6U0Z3EY966PXK25N4,3OLF68YTNDHNW3RUMDR4YW9PHJEAF2,2,1
95,3,object_08,object_09,963.0,6,2,319.0,1.0,2,object_01,5,1450,0,3,9,library_1,2,memory-2step-stake-s,595,1782253,0.0-19.0-0.0-0.95,A38I0E8UK53ME5,3HRWUH63RXIZS6U0Z3EY966PXK25N4,3OLF68YTNDHNW3RUMDR4YW9PHJEAF2,5,6
96,3,object_09,object_08,600.0,6,1,223.0,0.6666666666666666,2,object_01,1,1456,0,3,6,library_1,2,memory-2step-stake-s,596,1790433,0.0-19.0-0.0-0.96,A38I0E8UK53ME5,3HRWUH63RXIZS6U0Z3EY966PXK25N4,3OLF68YTNDHNW3RUMDR4YW9PHJEAF2,6,5
97,4,object_07,object_05,991.0,8,1,325.0,0.6666666666666666,2,object_01,1,1462,0,4,6,restaurant_8,2,memory-2step-stake-s,597,1798713,0.0-19.0-0.0-0.97,A38I0E8UK53ME5,3HRWUH63RXIZS6U0Z3EY966PXK25N4,3OLF68YTNDHNW3RUMDR4YW9PHJEAF2,8,7
98,4,object_05,object_07,810.0,8,2,300.0,0.7777777777777778,2,object_01,1,1469,0,5,7,restaurant_3,2,memory-2step-stake-s,598,1807053,0.0-19.0-0.0-0.98,A38I0E8UK53ME5,3HRWUH63RXIZS6U0Z3EY966PXK25N4,3OLF68YTNDHNW3RUMDR4YW9PHJEAF2,7,8
99,2,object_06,object_02,729.0,4,1,310.0,0.8888888888888888,2,object_01,1,1477,0,7,8,forest_1,2,memory-2step-stake-s,599,1815533,0.0-19.0-0.0-0.99,A38I0E8UK53ME5,3HRWUH63RXIZS6U0Z3EY966PXK25N4,3OLF68YTNDHNW3RUMDR4YW9PHJEAF2,4,3
100,1,object_04,object_03,1136.0,1,2,425.0,0.7777777777777778,1,object_10,5,1512,0,7,7,desert_5,2,memory-2step-stake-s,600,1824003,0.0-19.0-0.0-0.100,A38I0E8UK53ME5,3HRWUH63RXIZS6U0Z3EY966PXK25N4,3OLF68YTNDHNW3RUMDR4YW9PHJEAF2,2,1
101,1,object_03,object_04,834.0,1,1,303.0,0.4444444444444444,1,object_10,5,1532,0,4,8,desert_3,2,memory-2step-stake-s,601,1832043,0.0-19.0-0.0-0.101,A38I0E8UK53ME5,3HRWUH63RXIZS6U0Z3EY966PXK25N4,3OLF68YTNDHNW3RUMDR4YW9PHJEAF2,1,2
102,3,object_09,object_08,690.0,6,1,402.0,0.7777777777777778,2,object_01,1,1539,0,4,7,library_1,2,memory-2step-stake-s,602,1840503,0.0-19.0-0.0-0.102,A38I0E8UK53ME5,3HRWUH63RXIZS6U0Z3EY966PXK25N4,3OLF68YTNDHNW3RUMDR4YW9PHJEAF2,6,5
103,2,object_06,object_02,738.0,4,1,382.0,1.0,2,object_01,5,1584,0,6,9,forest_1,2,memory-2step-stake-s,603,1849183,0.0-19.0-0.0-0.103,A38I0E8UK53ME5,3HRWUH63RXIZS6U0Z3EY966PXK25N4,3OLF68YTNDHNW3RUMDR4YW9PHJEAF2,4,3
104,3,object_08,object_09,650.0,6,2,522.0,0.7777777777777778,2,object_01,1,1591,0,8,7,library_5,2,memory-2step-stake-s,604,1857762,0.0-19.0-0.0-0.104,A38I0E8UK53ME5,3HRWUH63RXIZS6U0Z3EY966PXK25N4,3OLF68YTNDHNW3RUMDR4YW9PHJEAF2,5,6
105,4,object_05,object_07,712.0,8,2,356.0,0.6666666666666666,2,object_01,1,1597,0,9,6,restaurant_3,2,memory-2step-stake-s,605,1866083,0.0-19.0-0.0-0.105,A38I0E8UK53ME5,3HRWUH63RXIZS6U0Z3EY966PXK25N4,3OLF68YTNDHNW3RUMDR4YW9PHJEAF2,7,8
106,1,object_03,object_04,952.0,1,1,236.0,0.8888888888888888,1,object_10,5,1637,0,8,6,desert_7,2,memory-2step-stake-s,606,1874482,0.0-19.0-0.0-0.106,A38I0E8UK53ME5,3HRWUH63RXIZS6U0Z3EY966PXK25N4,3OLF68YTNDHNW3RUMDR4YW9PHJEAF2,1,2
107,2,object_02,object_06,754.0,4,2,354.0,0.2222222222222222,2,object_01,5,1647,0,5,2,forest_5,2,memory-2step-stake-s,607,1882332,0.0-19.0-0.0-0.107,A38I0E8UK53ME5,3HRWUH63RXIZS6U0Z3EY966PXK25N4,3OLF68YTNDHNW3RUMDR4YW9PHJEAF2,3,4
108,1,object_03,object_04,911.0,1,1,356.0,0.6666666666666666,1,object_10,5,1677,0,6,4,desert_7,2,memory-2step-stake-s,608,1890593,0.0-19.0-0.0-0.108,A38I0E8UK53ME5,3HRWUH63RXIZS6U0Z3EY966PXK25N4,3OLF68YTNDHNW3RUMDR4YW9PHJEAF2,1,2
109,3,object_08,object_09,710.0,6,2,288.0,0.4444444444444444,2,object_01,5,1697,0,8,4,library_1,2,memory-2step-stake-s,609,1898573,0.0-19.0-0.0-0.109,A38I0E8UK53ME5,3HRWUH63RXIZS6U0Z3EY966PXK25N4,3OLF68YTNDHNW3RUMDR4YW9PHJEAF2,5,6
110,4,object_05,object_07,494.0,8,2,385.0,0.6666666666666666,2,object_01,5,1727,0,5,6,restaurant_8,2,memory-2step-stake-s,610,1906912,0.0-19.0-0.0-0.110,A38I0E8UK53ME5,3HRWUH63RXIZS6U0Z3EY966PXK25N4,3OLF68YTNDHNW3RUMDR4YW9PHJEAF2,7,8
111,3,object_08,object_09,701.0,6,2,975.0,0.3333333333333333,2,object_01,1,1730,0,2,3,library_1,2,memory-2step-stake-s,611,1915491,0.0-19.0-0.0-0.111,A38I0E8UK53ME5,3HRWUH63RXIZS6U0Z3EY966PXK25N4,3OLF68YTNDHNW3RUMDR4YW9PHJEAF2,5,6
112,3,object_08,object_09,692.0,6,2,450.0,0.4444444444444444,2,object_01,1,1734,0,3,4,library_1,2,memory-2step-stake-s,612,1923612,0.0-19.0-0.0-0.112,A38I0E8UK53ME5,3HRWUH63RXIZS6U0Z3EY966PXK25N4,3OLF68YTNDHNW3RUMDR4YW9PHJEAF2,5,6
113,3,object_09,object_08,808.0,6,1,592.0,0.2222222222222222,2,object_01,1,1736,0,2,2,library_6,2,memory-2step-stake-s,613,1931693,0.0-19.0-0.0-0.113,A38I0E8UK53ME5,3HRWUH63RXIZS6U0Z3EY966PXK25N4,3OLF68YTNDHNW3RUMDR4YW9PHJEAF2,6,5
114,2,object_06,object_02,558.0,4,1,342.0,0.4444444444444444,2,object_01,5,1756,0,0,4,forest_2,2,memory-2step-stake-s,614,1939813,0.0-19.0-0.0-0.114,A38I0E8UK53ME5,3HRWUH63RXIZS6U0Z3EY966PXK25N4,3OLF68YTNDHNW3RUMDR4YW9PHJEAF2,4,3
115,1,object_04,object_03,670.0,1,2,342.0,0.1111111111111111,1,object_10,1,1757,0,1,5,desert_2,2,memory-2step-stake-s,615,1947552,0.0-19.0-0.0-0.115,A38I0E8UK53ME5,3HRWUH63RXIZS6U0Z3EY966PXK25N4,3OLF68YTNDHNW3RUMDR4YW9PHJEAF2,2,1
116,1,object_04,object_03,585.0,2,1,364.0,0.5555555555555556,2,object_01,5,1782,0,0,5,desert_5,2,memory-2step-stake-s,616,1955733,0.0-19.0-0.0-0.116,A38I0E8UK53ME5,3HRWUH63RXIZS6U0Z3EY966PXK25N4,3OLF68YTNDHNW3RUMDR4YW9PHJEAF2,2,1
117,3,object_09,object_08,729.0,6,1,288.0,0.4444444444444444,2,object_01,5,1802,0,4,4,library_6,2,memory-2step-stake-s,617,1963752,0.0-19.0-0.0-0.117,A38I0E8UK53ME5,3HRWUH63RXIZS6U0Z3EY966PXK25N4,3OLF68YTNDHNW3RUMDR4YW9PHJEAF2,6,5
118,2,object_06,object_02,558.0,4,1,296.0,0.1111111111111111,2,object_01,5,1807,0,3,1,forest_6,2,memory-2step-stake-s,618,1971431,0.0-19.0-0.0-0.118,A38I0E8UK53ME5,3HRWUH63RXIZS6U0Z3EY966PXK25N4,3OLF68YTNDHNW3RUMDR4YW9PHJEAF2,4,3
119,3,object_08,object_09,733.0,6,2,311.0,0.0,2,object_01,1,1807,0,4,0,library_5,2,memory-2step-stake-s,619,1979052,0.0-19.0-0.0-0.119,A38I0E8UK53ME5,3HRWUH63RXIZS6U0Z3EY966PXK25N4,3OLF68YTNDHNW3RUMDR4YW9PHJEAF2,5,6
120,4,object_07,object_05,853.0,7,2,364.0,0.6666666666666666,1,object_10,1,1813,0,6,0,restaurant_3,2,memory-2step-stake-s,620,1987332,0.0-19.0-0.0-0.120,A38I0E8UK53ME5,3HRWUH63RXIZS6U0Z3EY966PXK25N4,3OLF68YTNDHNW3RUMDR4YW9PHJEAF2,8,7
121,2,object_02,object_06,515.0,3,1,457.0,0.3333333333333333,1,object_10,5,1828,0,3,0,forest_5,2,memory-2step-stake-s,621,1995392,0.0-19.0-0.0-0.121,A38I0E8UK53ME5,3HRWUH63RXIZS6U0Z3EY966PXK25N4,3OLF68YTNDHNW3RUMDR4YW9PHJEAF2,3,4
122,3,object_08,object_09,556.0,6,2,294.0,0.3333333333333333,2,object_01,1,1831,0,2,3,library_1,2,memory-2step-stake-s,622,2003312,0.0-19.0-0.0-0.122,A38I0E8UK53ME5,3HRWUH63RXIZS6U0Z3EY966PXK25N4,3OLF68YTNDHNW3RUMDR4YW9PHJEAF2,5,6
123,4,object_07,object_05,734.0,7,2,405.0,0.1111111111111111,1,object_10,1,1832,0,1,2,restaurant_7,2,memory-2step-stake-s,623,2011102,0.0-19.0-0.0-0.123,A38I0E8UK53ME5,3HRWUH63RXIZS6U0Z3EY966PXK25N4,3OLF68YTNDHNW3RUMDR4YW9PHJEAF2,8,7
124,2,object_06,object_02,683.0,4,1,287.0,0.2222222222222222,2,object_01,5,1842,0,5,2,forest_5,2,memory-2step-stake-s,624,2018892,0.0-19.0-0.0-0.124,A38I0E8UK53ME5,3HRWUH63RXIZS6U0Z3EY966PXK25N4,3OLF68YTNDHNW3RUMDR4YW9PHJEAF2,4,3
125,3,object_08,object_09,884.0,6,2,326.0,0.2222222222222222,2,object_01,1,1844,0,6,2,library_5,2,memory-2step-stake-s,625,2026751,0.0-19.0-0.0-0.125,A38I0E8UK53ME5,3HRWUH63RXIZS6U0Z3EY966PXK25N4,3OLF68YTNDHNW3RUMDR4YW9PHJEAF2,5,6
126,1,object_03,object_04,987.0,2,2,298.0,0.1111111111111111,2,object_01,5,1849,0,2,1,desert_2,2,memory-2step-stake-s,626,2034451,0.0-19.0-0.0-0.126,A38I0E8UK53ME5,3HRWUH63RXIZS6U0Z3EY966PXK25N4,3OLF68YTNDHNW3RUMDR4YW9PHJEAF2,1,2
127,2,object_06,object_02,462.0,4,1,247.0,0.1111111111111111,2,object_01,1,1850,0,2,1,forest_6,2,memory-2step-stake-s,627,2042091,0.0-19.0-0.0-0.127,A38I0E8UK53ME5,3HRWUH63RXIZS6U0Z3EY966PXK25N4,3OLF68YTNDHNW3RUMDR4YW9PHJEAF2,4,3
128,4,object_07,object_05,854.0,7,2,503.0,0.3333333333333333,1,object_10,5,1865,0,3,1,restaurant_8,2,memory-2step-stake-s,629,2169081,0.0-19.0-0.1-0.128,A38I0E8UK53ME5,3HRWUH63RXIZS6U0Z3EY966PXK25N4,3OLF68YTNDHNW3RUMDR4YW9PHJEAF2,8,7
129,3,object_09,object_08,857.0,5,2,416.0,0.0,1,object_10,1,1865,0,0,1,library_7,2,memory-2step-stake-s,630,2176791,0.0-19.0-0.1-0.129,A38I0E8UK53ME5,3HRWUH63RXIZS6U0Z3EY966PXK25N4,3OLF68YTNDHNW3RUMDR4YW9PHJEAF2,6,5
130,2,object_02,object_06,683.0,4,2,335.0,0.2222222222222222,2,object_01,5,1875,0,0,2,forest_1,2,memory-2step-stake-s,631,2184670,0.0-19.0-0.1-0.130,A38I0E8UK53ME5,3HRWUH63RXIZS6U0Z3EY966PXK25N4,3OLF68YTNDHNW3RUMDR4YW9PHJEAF2,3,4
131,1,object_04,object_03,904.0,1,2,306.0,0.2222222222222222,1,object_10,1,1877,0,2,1,desert_5,2,memory-2step-stake-s,632,2192451,0.0-19.0-0.1-0.131,A38I0E8UK53ME5,3HRWUH63RXIZS6U0Z3EY966PXK25N4,3OLF68YTNDHNW3RUMDR4YW9PHJEAF2,2,1
132,3,object_09,object_08,752.0,6,1,308.0,0.2222222222222222,2,object_01,1,1879,0,5,2,library_7,2,memory-2step-stake-s,633,2200250,0.0-19.0-0.1-0.132,A38I0E8UK53ME5,3HRWUH63RXIZS6U0Z3EY966PXK25N4,3OLF68YTNDHNW3RUMDR4YW9PHJEAF2,6,5
133,2,object_06,object_02,894.0,4,1,340.0,0.2222222222222222,2,object_01,5,1889,0,5,2,forest_6,2,memory-2step-stake-s,634,2208130,0.0-19.0-0.1-0.133,A38I0E8UK53ME5,3HRWUH63RXIZS6U0Z3EY966PXK25N4,3OLF68YTNDHNW3RUMDR4YW9PHJEAF2,4,3
134,3,object_09,object_08,1180.0,6,1,312.0,0.2222222222222222,2,object_01,1,1891,0,6,2,library_1,2,memory-2step-stake-s,635,2215971,0.0-19.0-0.1-0.134,A38I0E8UK53ME5,3HRWUH63RXIZS6U0Z3EY966PXK25N4,3OLF68YTNDHNW3RUMDR4YW9PHJEAF2,6,5
135,1,object_03,object_04,1168.0,2,2,324.0,0.0,2,object_01,5,1891,0,8,0,desert_7,2,memory-2step-stake-s,636,2223570,0.0-19.0-0.1-0.135,A38I0E8UK53ME5,3HRWUH63RXIZS6U0Z3EY966PXK25N4,3OLF68YTNDHNW3RUMDR4YW9PHJEAF2,1,2
136,2,object_06,object_02,637.0,4,1,340.0,0.1111111111111111,2,object_01,1,1892,0,7,1,forest_1,2,memory-2step-stake-s,637,2231301,0.0-19.0-0.1-0.136,A38I0E8UK53ME5,3HRWUH63RXIZS6U0Z3EY966PXK25N4,3OLF68YTNDHNW3RUMDR4YW9PHJEAF2,4,3
137,2,object_06,object_02,1016.0,3,2,418.0,0.3333333333333333,1,object_10,5,1907,0,3,0,forest_6,2,memory-2step-stake-s,638,2239361,0.0-19.0-0.1-0.137,A38I0E8UK53ME5,3HRWUH63RXIZS6U0Z3EY966PXK25N4,3OLF68YTNDHNW3RUMDR4YW9PHJEAF2,4,3
138,4,object_07,object_05,-1.0,-1,-1,-1.0,0.0,-,0,1,1907,0,4,2,restaurant_4,2,memory-2step-stake-s,639,2245950,0.0-19.0-0.1-0.138,A38I0E8UK53ME5,3HRWUH63RXIZS6U0Z3EY966PXK25N4,3OLF68YTNDHNW3RUMDR4YW9PHJEAF2,8,7
139,3,object_08,object_09,801.0,5,1,550.0,0.4444444444444444,1,object_10,1,1911,0,4,2,library_7,2,memory-2step-stake-s,640,2254241,0.0-19.0-0.1-0.139,A38I0E8UK53ME5,3HRWUH63RXIZS6U0Z3EY966PXK25N4,3OLF68YTNDHNW3RUMDR4YW9PHJEAF2,5,6
140,3,object_09,object_08,682.0,5,2,460.0,0.3333333333333333,1,object_10,1,1914,0,3,1,library_7,2,memory-2step-stake-s,641,2262281,0.0-19.0-0.1-0.140,A38I0E8UK53ME5,3HRWUH63RXIZS6U0Z3EY966PXK25N4,3OLF68YTNDHNW3RUMDR4YW9PHJEAF2,6,5
141,3,object_08,object_09,943.0,5,1,297.0,0.4444444444444444,1,object_10,1,1918,0,4,0,library_5,2,memory-2step-stake-s,642,2270310,0.0-19.0-0.1-0.141,A38I0E8UK53ME5,3HRWUH63RXIZS6U0Z3EY966PXK25N4,3OLF68YTNDHNW3RUMDR4YW9PHJEAF2,5,6
142,2,object_02,object_06,990.0,3,1,413.0,0.5555555555555556,1,object_10,5,1943,0,5,2,forest_1,2,memory-2step-stake-s,643,2278551,0.0-19.0-0.1-0.142,A38I0E8UK53ME5,3HRWUH63RXIZS6U0Z3EY966PXK25N4,3OLF68YTNDHNW3RUMDR4YW9PHJEAF2,3,4
143,2,object_06,object_02,667.0,3,2,296.0,0.5555555555555556,1,object_10,5,1968,0,5,2,forest_6,2,memory-2step-stake-s,644,2286710,0.0-19.0-0.1-0.143,A38I0E8UK53ME5,3HRWUH63RXIZS6U0Z3EY966PXK25N4,3OLF68YTNDHNW3RUMDR4YW9PHJEAF2,4,3
144,2,object_02,object_06,496.0,3,1,390.0,0.4444444444444444,1,object_10,5,1988,0,4,0,forest_2,2,memory-2step-stake-s,645,2294850,0.0-19.0-0.1-0.144,A38I0E8UK53ME5,3HRWUH63RXIZS6U0Z3EY966PXK25N4,3OLF68YTNDHNW3RUMDR4YW9PHJEAF2,3,4
145,1,object_04,object_03,816.0,1,2,420.0,0.4444444444444444,1,object_10,5,2008,0,4,2,desert_2,2,memory-2step-stake-s,646,2303000,0.0-19.0-0.1-0.145,A38I0E8UK53ME5,3HRWUH63RXIZS6U0Z3EY966PXK25N4,3OLF68YTNDHNW3RUMDR4YW9PHJEAF2,2,1
146,4,object_05,object_07,786.0,7,1,232.0,0.3333333333333333,1,object_10,1,2011,0,3,3,restaurant_7,2,memory-2step-stake-s,647,2310850,0.0-19.0-0.1-0.146,A38I0E8UK53ME5,3HRWUH63RXIZS6U0Z3EY966PXK25N4,3OLF68YTNDHNW3RUMDR4YW9PHJEAF2,7,8
147,3,object_08,object_09,1039.0,5,1,417.0,0.1111111111111111,1,object_10,5,2016,0,1,0,library_5,2,memory-2step-stake-s,648,2318670,0.0-19.0-0.1-0.147,A38I0E8UK53ME5,3HRWUH63RXIZS6U0Z3EY966PXK25N4,3OLF68YTNDHNW3RUMDR4YW9PHJEAF2,5,6
148,4,object_07,object_05,510.0,7,2,335.0,0.2222222222222222,1,object_10,1,2018,0,2,1,restaurant_7,2,memory-2step-stake-s,649,2326490,0.0-19.0-0.1-0.148,A38I0E8UK53ME5,3HRWUH63RXIZS6U0Z3EY966PXK25N4,3OLF68YTNDHNW3RUMDR4YW9PHJEAF2,8,7
149,3,object_09,object_08,1238.0,6,1,842.0,0.1111111111111111,2,object_01,1,2019,0,1,1,library_7,2,memory-2step-stake-s,650,2334770,0.0-19.0-0.1-0.149,A38I0E8UK53ME5,3HRWUH63RXIZS6U0Z3EY966PXK25N4,3OLF68YTNDHNW3RUMDR4YW9PHJEAF2,6,5
150,4,object_05,object_07,878.0,8,2,347.0,0.1111111111111111,2,object_01,1,2020,0,2,1,restaurant_7,2,memory-2step-stake-s,651,2342490,0.0-19.0-0.1-0.150,A38I0E8UK53ME5,3HRWUH63RXIZS6U0Z3EY966PXK25N4,3OLF68YTNDHNW3RUMDR4YW9PHJEAF2,7,8
151,4,object_05,object_07,1373.0,7,1,557.0,0.1111111111111111,1,object_10,1,2021,0,1,1,restaurant_3,2,memory-2step-stake-s,652,2350420,0.0-19.0-0.1-0.151,A38I0E8UK53ME5,3HRWUH63RXIZS6U0Z3EY966PXK25N4,3OLF68YTNDHNW3RUMDR4YW9PHJEAF2,7,8
152,2,object_02,object_06,416.0,3,1,289.0,0.2222222222222222,1,object_10,5,2031,0,2,0,forest_6,2,memory-2step-stake-s,653,2358220,0.0-19.0-0.1-0.152,A38I0E8UK53ME5,3HRWUH63RXIZS6U0Z3EY966PXK25N4,3OLF68YTNDHNW3RUMDR4YW9PHJEAF2,3,4
153,1,object_03,object_04,648.0,2,2,351.0,0.1111111111111111,2,object_01,1,2032,0,4,1,desert_7,2,memory-2step-stake-s,654,2365969,0.0-19.0-0.1-0.153,A38I0E8UK53ME5,3HRWUH63RXIZS6U0Z3EY966PXK25N4,3OLF68YTNDHNW3RUMDR4YW9PHJEAF2,1,2
154,4,object_05,object_07,1200.0,7,1,358.0,0.4444444444444444,1,object_10,1,2036,0,4,2,restaurant_4,2,memory-2step-stake-s,655,2374070,0.0-19.0-0.1-0.154,A38I0E8UK53ME5,3HRWUH63RXIZS6U0Z3EY966PXK25N4,3OLF68YTNDHNW3RUMDR4YW9PHJEAF2,7,8
155,3,object_09,object_08,841.0,5,2,399.0,0.3333333333333333,1,object_10,1,2039,0,3,5,library_7,2,memory-2step-stake-s,656,2382090,0.0-19.0-0.1-0.155,A38I0E8UK53ME5,3HRWUH63RXIZS6U0Z3EY966PXK25N4,3OLF68YTNDHNW3RUMDR4YW9PHJEAF2,6,5
156,1,object_04,object_03,885.0,1,2,782.0,0.0,1,object_10,5,2039,0,0,4,desert_3,2,memory-2step-stake-s,657,2390159,0.0-19.0-0.1-0.156,A38I0E8UK53ME5,3HRWUH63RXIZS6U0Z3EY966PXK25N4,3OLF68YTNDHNW3RUMDR4YW9PHJEAF2,2,1
157,3,object_09,object_08,1072.0,6,1,317.0,0.4444444444444444,2,object_01,1,2043,0,0,4,library_6,2,memory-2step-stake-s,658,2398209,0.0-19.0-0.1-0.157,A38I0E8UK53ME5,3HRWUH63RXIZS6U0Z3EY966PXK25N4,3OLF68YTNDHNW3RUMDR4YW9PHJEAF2,6,5
158,2,object_02,object_06,548.0,3,1,261.0,0.3333333333333333,1,object_10,1,2046,0,3,6,forest_2,2,memory-2step-stake-s,659,2406069,0.0-19.0-0.1-0.158,A38I0E8UK53ME5,3HRWUH63RXIZS6U0Z3EY966PXK25N4,3OLF68YTNDHNW3RUMDR4YW9PHJEAF2,3,4
159,4,object_05,object_07,967.0,7,1,290.0,0.1111111111111111,1,object_10,1,2047,0,1,8,restaurant_8,2,memory-2step-stake-s,660,2413719,0.0-19.0-0.1-0.159,A38I0E8UK53ME5,3HRWUH63RXIZS6U0Z3EY966PXK25N4,3OLF68YTNDHNW3RUMDR4YW9PHJEAF2,7,8
160,1,object_03,object_04,1039.0,2,2,346.0,0.8888888888888888,2,object_01,5,2087,0,2,8,desert_7,2,memory-2step-stake-s,661,2422199,0.0-19.0-0.1-0.160,A38I0E8UK53ME5,3HRWUH63RXIZS6U0Z3EY966PXK25N4,3OLF68YTNDHNW3RUMDR4YW9PHJEAF2,1,2
161,4,object_07,object_05,590.0,8,1,307.0,0.7777777777777778,2,object_01,5,2122,0,3,7,restaurant_3,2,memory-2step-stake-s,662,2430519,0.0-19.0-0.1-0.161,A38I0E8UK53ME5,3HRWUH63RXIZS6U0Z3EY966PXK25N4,3OLF68YTNDHNW3RUMDR4YW9PHJEAF2,8,7
162,2,object_06,object_02,639.0,4,1,331.0,0.7777777777777778,2,object_01,5,2157,0,2,7,forest_2,2,memory-2step-stake-s,663,2438899,0.0-19.0-0.1-0.162,A38I0E8UK53ME5,3HRWUH63RXIZS6U0Z3EY966PXK25N4,3OLF68YTNDHNW3RUMDR4YW9PHJEAF2,4,3
163,3,object_09,object_08,1127.0,6,1,344.0,0.7777777777777778,2,object_01,1,2164,0,6,7,library_7,2,memory-2step-stake-s,664,2447249,0.0-19.0-0.1-0.163,A38I0E8UK53ME5,3HRWUH63RXIZS6U0Z3EY966PXK25N4,3OLF68YTNDHNW3RUMDR4YW9PHJEAF2,6,5
164,1,object_03,object_04,832.0,2,2,364.0,0.8888888888888888,2,object_01,1,2172,0,3,8,desert_5,2,memory-2step-stake-s,665,2455789,0.0-19.0-0.1-0.164,A38I0E8UK53ME5,3HRWUH63RXIZS6U0Z3EY966PXK25N4,3OLF68YTNDHNW3RUMDR4YW9PHJEAF2,1,2
165,2,object_06,object_02,567.0,4,1,306.0,0.6666666666666666,2,object_01,5,2202,0,2,6,forest_5,2,memory-2step-stake-s,666,2463989,0.0-19.0-0.1-0.165,A38I0E8UK53ME5,3HRWUH63RXIZS6U0Z3EY966PXK25N4,3OLF68YTNDHNW3RUMDR4YW9PHJEAF2,4,3
166,2,object_06,object_02,649.0,4,1,264.0,0.7777777777777778,2,object_01,1,2209,0,1,7,forest_5,2,memory-2step-stake-s,667,2472279,0.0-19.0-0.1-0.166,A38I0E8UK53ME5,3HRWUH63RXIZS6U0Z3EY966PXK25N4,3OLF68YTNDHNW3RUMDR4YW9PHJEAF2,4,3
167,1,object_04,object_03,1181.0,2,1,579.0,1.0,2,object_01,5,2254,0,0,9,desert_7,2,memory-2step-stake-s,668,2481099,0.0-19.0-0.1-0.167,A38I0E8UK53ME5,3HRWUH63RXIZS6U0Z3EY966PXK25N4,3OLF68YTNDHNW3RUMDR4YW9PHJEAF2,2,1
168,2,object_02,object_06,773.0,4,2,374.0,1.0,2,object_01,5,2299,0,1,9,forest_1,2,memory-2step-stake-s,669,2489679,0.0-19.0-0.1-0.168,A38I0E8UK53ME5,3HRWUH63RXIZS6U0Z3EY966PXK25N4,3OLF68YTNDHNW3RUMDR4YW9PHJEAF2,3,4
169,4,object_05,object_07,814.0,8,2,327.0,0.7777777777777778,2,object_01,1,2306,0,1,7,restaurant_7,2,memory-2step-stake-s,670,2498018,0.0-19.0-0.1-0.169,A38I0E8UK53ME5,3HRWUH63RXIZS6U0Z3EY966PXK25N4,3OLF68YTNDHNW3RUMDR4YW9PHJEAF2,7,8
170,1,object_04,object_03,865.0,1,2,420.0,0.1111111111111111,1,object_10,1,2307,0,1,8,desert_5,2,memory-2step-stake-s,671,2505819,0.0-19.0-0.1-0.170,A38I0E8UK53ME5,3HRWUH63RXIZS6U0Z3EY966PXK25N4,3OLF68YTNDHNW3RUMDR4YW9PHJEAF2,2,1
171,3,object_08,object_09,873.0,6,2,386.0,0.8888888888888888,2,object_01,1,2315,0,2,8,library_1,2,memory-2step-stake-s,672,2514379,0.0-19.0-0.1-0.171,A38I0E8UK53ME5,3HRWUH63RXIZS6U0Z3EY966PXK25N4,3OLF68YTNDHNW3RUMDR4YW9PHJEAF2,5,6
172,2,object_02,object_06,593.0,4,2,307.0,1.0,2,object_01,5,2360,0,3,9,forest_5,2,memory-2step-stake-s,673,2522978,0.0-19.0-0.1-0.172,A38I0E8UK53ME5,3HRWUH63RXIZS6U0Z3EY966PXK25N4,3OLF68YTNDHNW3RUMDR4YW9PHJEAF2,3,4
173,2,object_06,object_02,632.0,4,1,325.0,0.7777777777777778,2,object_01,5,2395,0,1,7,forest_1,2,memory-2step-stake-s,674,2531375,0.0-19.0-0.1-0.173,A38I0E8UK53ME5,3HRWUH63RXIZS6U0Z3EY966PXK25N4,3OLF68YTNDHNW3RUMDR4YW9PHJEAF2,4,3
174,2,object_02,object_06,732.0,4,2,378.0,0.3333333333333333,2,object_01,5,2410,0,1,3,forest_1,2,memory-2step-stake-s,675,2539298,0.0-19.0-0.1-0.174,A38I0E8UK53ME5,3HRWUH63RXIZS6U0Z3EY966PXK25N4,3OLF68YTNDHNW3RUMDR4YW9PHJEAF2,3,4
175,4,object_05,object_07,783.0,8,2,313.0,0.5555555555555556,2,object_01,1,2415,0,3,5,restaurant_7,2,memory-2step-stake-s,676,2547418,0.0-19.0-0.1-0.175,A38I0E8UK53ME5,3HRWUH63RXIZS6U0Z3EY966PXK25N4,3OLF68YTNDHNW3RUMDR4YW9PHJEAF2,7,8
176,3,object_09,object_08,1122.0,6,1,341.0,0.4444444444444444,2,object_01,1,2419,0,3,4,library_5,2,memory-2step-stake-s,677,2555469,0.0-19.0-0.1-0.176,A38I0E8UK53ME5,3HRWUH63RXIZS6U0Z3EY966PXK25N4,3OLF68YTNDHNW3RUMDR4YW9PHJEAF2,6,5
177,1,object_03,object_04,1083.0,2,2,282.0,0.2222222222222222,2,object_01,5,2429,0,0,2,desert_3,2,memory-2step-stake-s,678,2563269,0.0-19.0-0.1-0.177,A38I0E8UK53ME5,3HRWUH63RXIZS6U0Z3EY966PXK25N4,3OLF68YTNDHNW3RUMDR4YW9PHJEAF2,1,2
178,2,object_06,object_02,818.0,4,1,468.0,0.2222222222222222,2,object_01,5,2439,0,1,2,forest_5,2,memory-2step-stake-s,679,2571268,0.0-19.0-0.1-0.178,A38I0E8UK53ME5,3HRWUH63RXIZS6U0Z3EY966PXK25N4,3OLF68YTNDHNW3RUMDR4YW9PHJEAF2,4,3
179,4,object_05,object_07,672.0,8,2,410.0,0.1111111111111111,2,object_01,1,2440,0,1,1,restaurant_4,2,memory-2step-stake-s,680,2579069,0.0-19.0-0.1-0.179,A38I0E8UK53ME5,3HRWUH63RXIZS6U0Z3EY966PXK25N4,3OLF68YTNDHNW3RUMDR4YW9PHJEAF2,7,8
180,1,object_04,object_03,679.0,2,1,421.0,0.2222222222222222,2,object_01,5,2450,0,1,2,desert_3,2,memory-2step-stake-s,681,2587048,0.0-19.0-0.1-0.180,A38I0E8UK53ME5,3HRWUH63RXIZS6U0Z3EY966PXK25N4,3OLF68YTNDHNW3RUMDR4YW9PHJEAF2,2,1
181,1,object_03,object_04,1023.0,1,1,402.0,0.1111111111111111,1,object_10,5,2455,0,1,5,desert_5,2,memory-2step-stake-s,682,2594848,0.0-19.0-0.1-0.181,A38I0E8UK53ME5,3HRWUH63RXIZS6U0Z3EY966PXK25N4,3OLF68YTNDHNW3RUMDR4YW9PHJEAF2,1,2
182,3,object_09,object_08,1278.0,6,1,276.0,0.4444444444444444,2,object_01,1,2459,0,0,4,library_5,2,memory-2step-stake-s,683,2602889,0.0-19.0-0.1-0.182,A38I0E8UK53ME5,3HRWUH63RXIZS6U0Z3EY966PXK25N4,3OLF68YTNDHNW3RUMDR4YW9PHJEAF2,6,5
183,1,object_04,object_03,1184.0,1,2,333.0,0.1111111111111111,1,object_10,5,2464,0,1,5,desert_5,2,memory-2step-stake-s,684,2610588,0.0-19.0-0.1-0.183,A38I0E8UK53ME5,3HRWUH63RXIZS6U0Z3EY966PXK25N4,3OLF68YTNDHNW3RUMDR4YW9PHJEAF2,2,1
184,3,object_08,object_09,908.0,6,2,1028.0,0.5555555555555556,2,object_01,1,2469,0,3,5,library_7,2,memory-2step-stake-s,685,2619468,0.0-19.0-0.1-0.184,A38I0E8UK53ME5,3HRWUH63RXIZS6U0Z3EY966PXK25N4,3OLF68YTNDHNW3RUMDR4YW9PHJEAF2,5,6
185,1,object_04,object_03,1319.0,1,2,406.0,0.0,1,object_10,5,2469,0,0,8,desert_2,2,memory-2step-stake-s,686,2627178,0.0-19.0-0.1-0.185,A38I0E8UK53ME5,3HRWUH63RXIZS6U0Z3EY966PXK25N4,3OLF68YTNDHNW3RUMDR4YW9PHJEAF2,2,1
186,1,object_03,object_04,607.0,2,2,277.0,0.8888888888888888,2,object_01,5,2509,0,1,8,desert_7,2,memory-2step-stake-s,687,2635598,0.0-19.0-0.1-0.186,A38I0E8UK53ME5,3HRWUH63RXIZS6U0Z3EY966PXK25N4,3OLF68YTNDHNW3RUMDR4YW9PHJEAF2,1,2
187,2,object_02,object_06,735.0,4,2,386.0,0.7777777777777778,2,object_01,5,2544,0,1,7,forest_2,2,memory-2step-stake-s,688,2644098,0.0-19.0-0.1-0.187,A38I0E8UK53ME5,3HRWUH63RXIZS6U0Z3EY966PXK25N4,3OLF68YTNDHNW3RUMDR4YW9PHJEAF2,3,4
188,4,object_07,object_05,765.0,8,1,365.0,0.6666666666666666,2,object_01,1,2550,0,4,6,restaurant_4,2,memory-2step-stake-s,689,2652418,0.0-19.0-0.1-0.188,A38I0E8UK53ME5,3HRWUH63RXIZS6U0Z3EY966PXK25N4,3OLF68YTNDHNW3RUMDR4YW9PHJEAF2,8,7
189,2,object_06,object_02,656.0,4,1,302.0,0.4444444444444444,2,object_01,1,2554,0,5,4,forest_6,2,memory-2step-stake-s,690,2660477,0.0-19.0-0.1-0.189,A38I0E8UK53ME5,3HRWUH63RXIZS6U0Z3EY966PXK25N4,3OLF68YTNDHNW3RUMDR4YW9PHJEAF2,4,3
190,2,object_06,object_02,472.0,4,1,297.0,0.1111111111111111,2,object_01,5,2559,0,1,1,forest_6,2,memory-2step-stake-s,691,2668157,0.0-19.0-0.1-0.190,A38I0E8UK53ME5,3HRWUH63RXIZS6U0Z3EY966PXK25N4,3OLF68YTNDHNW3RUMDR4YW9PHJEAF2,4,3
191,2,object_02,object_06,645.0,4,2,290.0,0.1111111111111111,2,object_01,5,2564,0,1,1,forest_2,2,memory-2step-stake-s,692,2675837,0.0-19.0-0.1-0.191,A38I0E8UK53ME5,3HRWUH63RXIZS6U0Z3EY966PXK25N4,3OLF68YTNDHNW3RUMDR4YW9PHJEAF2,3,4
192,1,object_04,object_03,614.0,2,1,309.0,0.3333333333333333,2,object_01,1,2567,0,1,3,desert_2,2,memory-2step-stake-s,693,2683757,0.0-19.0-0.1-0.192,A38I0E8UK53ME5,3HRWUH63RXIZS6U0Z3EY966PXK25N4,3OLF68YTNDHNW3RUMDR4YW9PHJEAF2,2,1
193,1,object_03,object_04,748.0,2,2,257.0,0.5555555555555556,2,object_01,5,2592,0,1,5,desert_3,2,memory-2step-stake-s,694,2691798,0.0-19.0-0.1-0.193,A38I0E8UK53ME5,3HRWUH63RXIZS6U0Z3EY966PXK25N4,3OLF68YTNDHNW3RUMDR4YW9PHJEAF2,1,2
194,1,object_03,object_04,739.0,2,2,298.0,0.8888888888888888,2,object_01,5,2632,0,2,8,desert_3,2,memory-2step-stake-s,695,2700217,0.0-19.0-0.1-0.194,A38I0E8UK53ME5,3HRWUH63RXIZS6U0Z3EY966PXK25N4,3OLF68YTNDHNW3RUMDR4YW9PHJEAF2,1,2
195,4,object_07,object_05,835.0,8,1,327.0,1.0,2,object_01,5,2677,0,2,9,restaurant_3,2,memory-2step-stake-s,696,2708827,0.0-19.0-0.1-0.195,A38I0E8UK53ME5,3HRWUH63RXIZS6U0Z3EY966PXK25N4,3OLF68YTNDHNW3RUMDR4YW9PHJEAF2,8,7
196,2,object_02,object_06,631.0,4,2,964.0,1.0,2,object_01,1,2686,0,1,9,forest_5,2,memory-2step-stake-s,697,2718088,0.0-19.0-0.1-0.196,A38I0E8UK53ME5,3HRWUH63RXIZS6U0Z3EY966PXK25N4,3OLF68YTNDHNW3RUMDR4YW9PHJEAF2,3,4
197,4,object_07,object_05,575.0,8,1,310.0,0.8888888888888888,2,object_01,1,2694,0,3,8,restaurant_3,2,memory-2step-stake-s,698,2726588,0.0-19.0-0.1-0.197,A38I0E8UK53ME5,3HRWUH63RXIZS6U0Z3EY966PXK25N4,3OLF68YTNDHNW3RUMDR4YW9PHJEAF2,8,7
198,4,object_05,object_07,486.0,8,2,294.0,0.6666666666666666,2,object_01,5,2724,0,1,6,restaurant_8,2,memory-2step-stake-s,699,2734807,0.0-19.0-0.1-0.198,A38I0E8UK53ME5,3HRWUH63RXIZS6U0Z3EY966PXK25N4,3OLF68YTNDHNW3RUMDR4YW9PHJEAF2,7,8
199,2,object_02,object_06,640.0,4,2,330.0,0.8888888888888888,2,object_01,5,2764,0,1,8,forest_2,2,memory-2step-stake-s,700,2743247,0.0-19.0-0.1-0.199,A38I0E8UK53ME5,3HRWUH63RXIZS6U0Z3EY966PXK25N4,3OLF68YTNDHNW3RUMDR4YW9PHJEAF2,3,4
200,1,object_03,object_04,660.0,2,2,353.0,0.8888888888888888,2,object_01,1,2772,0,2,8,desert_7,2,memory-2step-stake-s,701,2751767,0.0-19.0-0.1-0.200,A38I0E8UK53ME5,3HRWUH63RXIZS6U0Z3EY966PXK25N4,3OLF68YTNDHNW3RUMDR4YW9PHJEAF2,1,2
201,4,object_07,object_05,868.0,8,1,448.0,0.6666666666666666,2,object_01,1,2778,0,1,6,restaurant_8,2,memory-2step-stake-s,702,2760147,0.0-19.0-0.1-0.201,A38I0E8UK53ME5,3HRWUH63RXIZS6U0Z3EY966PXK25N4,3OLF68YTNDHNW3RUMDR4YW9PHJEAF2,8,7
202,3,object_09,object_08,903.0,6,1,279.0,0.4444444444444444,2,object_01,1,2782,0,1,4,library_6,2,memory-2step-stake-s,703,2768147,0.0-19.0-0.1-0.202,A38I0E8UK53ME5,3HRWUH63RXIZS6U0Z3EY966PXK25N4,3OLF68YTNDHNW3RUMDR4YW9PHJEAF2,6,5
203,1,object_04,object_03,892.0,2,1,268.0,0.5555555555555556,2,object_01,5,2807,0,0,5,desert_3,2,memory-2step-stake-s,704,2776247,0.0-19.0-0.1-0.203,A38I0E8UK53ME5,3HRWUH63RXIZS6U0Z3EY966PXK25N4,3OLF68YTNDHNW3RUMDR4YW9PHJEAF2,2,1
204,2,object_02,object_06,554.0,4,2,918.0,0.5555555555555556,2,object_01,5,2832,0,1,5,forest_5,2,memory-2step-stake-s,705,2785017,0.0-19.0-0.1-0.204,A38I0E8UK53ME5,3HRWUH63RXIZS6U0Z3EY966PXK25N4,3OLF68YTNDHNW3RUMDR4YW9PHJEAF2,3,4
205,4,object_05,object_07,759.0,8,2,304.0,0.4444444444444444,2,object_01,1,2836,0,3,4,restaurant_7,2,memory-2step-stake-s,706,2793027,0.0-19.0-0.1-0.205,A38I0E8UK53ME5,3HRWUH63RXIZS6U0Z3EY966PXK25N4,3OLF68YTNDHNW3RUMDR4YW9PHJEAF2,7,8
206,1,object_04,object_03,761.0,2,1,298.0,0.3333333333333333,2,object_01,1,2839,0,2,3,desert_7,2,memory-2step-stake-s,707,2800927,0.0-19.0-0.1-0.206,A38I0E8UK53ME5,3HRWUH63RXIZS6U0Z3EY966PXK25N4,3OLF68YTNDHNW3RUMDR4YW9PHJEAF2,2,1
207,3,object_08,object_09,714.0,6,2,316.0,0.5555555555555556,2,object_01,5,2864,0,0,5,library_6,2,memory-2step-stake-s,708,2809087,0.0-19.0-0.1-0.207,A38I0E8UK53ME5,3HRWUH63RXIZS6U0Z3EY966PXK25N4,3OLF68YTNDHNW3RUMDR4YW9PHJEAF2,5,6
208,4,object_05,object_07,609.0,8,2,751.0,0.5555555555555556,2,object_01,1,2869,0,0,5,restaurant_3,2,memory-2step-stake-s,709,2817677,0.0-19.0-0.1-0.208,A38I0E8UK53ME5,3HRWUH63RXIZS6U0Z3EY966PXK25N4,3OLF68YTNDHNW3RUMDR4YW9PHJEAF2,7,8
209,4,object_07,object_05,746.0,8,1,315.0,0.6666666666666666,2,object_01,1,2875,0,1,6,restaurant_4,2,memory-2step-stake-s,710,2825907,0.0-19.0-0.1-0.209,A38I0E8UK53ME5,3HRWUH63RXIZS6U0Z3EY966PXK25N4,3OLF68YTNDHNW3RUMDR4YW9PHJEAF2,8,7
210,1,object_03,object_04,584.0,2,2,499.0,0.5555555555555556,2,object_01,5,2900,0,0,5,desert_5,2,memory-2step-stake-s,711,2834236,0.0-19.0-0.1-0.210,A38I0E8UK53ME5,3HRWUH63RXIZS6U0Z3EY966PXK25N4,3OLF68YTNDHNW3RUMDR4YW9PHJEAF2,1,2
211,4,object_05,object_07,561.0,8,2,314.0,0.6666666666666666,2,object_01,1,2906,0,2,6,restaurant_4,2,memory-2step-stake-s,712,2842466,0.0-19.0-0.1-0.211,A38I0E8UK53ME5,3HRWUH63RXIZS6U0Z3EY966PXK25N4,3OLF68YTNDHNW3RUMDR4YW9PHJEAF2,7,8
212,4,object_07,object_05,596.0,8,1,264.0,0.7777777777777778,2,object_01,1,2913,0,2,7,restaurant_8,2,memory-2step-stake-s,713,2850766,0.0-19.0-0.1-0.212,A38I0E8UK53ME5,3HRWUH63RXIZS6U0Z3EY966PXK25N4,3OLF68YTNDHNW3RUMDR4YW9PHJEAF2,8,7
213,2,object_02,object_06,553.0,4,2,314.0,0.6666666666666666,2,object_01,5,2943,0,3,6,forest_2,2,memory-2step-stake-s,714,2859006,0.0-19.0-0.1-0.213,A38I0E8UK53ME5,3HRWUH63RXIZS6U0Z3EY966PXK25N4,3OLF68YTNDHNW3RUMDR4YW9PHJEAF2,3,4
214,4,object_05,object_07,503.0,8,2,334.0,0.8888888888888888,2,object_01,1,2951,0,5,8,restaurant_3,2,memory-2step-stake-s,715,2867507,0.0-19.0-0.1-0.214,A38I0E8UK53ME5,3HRWUH63RXIZS6U0Z3EY966PXK25N4,3OLF68YTNDHNW3RUMDR4YW9PHJEAF2,7,8
215,3,object_09,object_08,464.0,6,1,267.0,0.8888888888888888,2,object_01,1,2959,0,8,8,library_7,2,memory-2step-stake-s,716,2875916,0.0-19.0-0.1-0.215,A38I0E8UK53ME5,3HRWUH63RXIZS6U0Z3EY966PXK25N4,3OLF68YTNDHNW3RUMDR4YW9PHJEAF2,6,5
216,1,object_04,object_03,870.0,2,1,542.0,1.0,2,object_01,5,3004,0,8,9,desert_5,2,memory-2step-stake-s,717,2884737,0.0-19.0-0.1-0.216,A38I0E8UK53ME5,3HRWUH63RXIZS6U0Z3EY966PXK25N4,3OLF68YTNDHNW3RUMDR4YW9PHJEAF2,2,1
217,3,object_08,object_09,712.0,6,2,361.0,0.8888888888888888,2,object_01,5,3044,0,9,8,library_7,2,memory-2step-stake-s,718,2893276,0.0-19.0-0.1-0.217,A38I0E8UK53ME5,3HRWUH63RXIZS6U0Z3EY966PXK25N4,3OLF68YTNDHNW3RUMDR4YW9PHJEAF2,5,6
218,2,object_06,object_02,725.0,4,1,462.0,0.8888888888888888,2,object_01,1,3052,0,7,8,forest_6,2,memory-2step-stake-s,719,2901897,0.0-19.0-0.1-0.218,A38I0E8UK53ME5,3HRWUH63RXIZS6U0Z3EY966PXK25N4,3OLF68YTNDHNW3RUMDR4YW9PHJEAF2,4,3
219,3,object_08,object_09,678.0,6,2,530.0,0.5555555555555556,2,object_01,1,3057,0,8,5,library_1,2,memory-2step-stake-s,720,2910236,0.0-19.0-0.1-0.219,A38I0E8UK53ME5,3HRWUH63RXIZS6U0Z3EY966PXK25N4,3OLF68YTNDHNW3RUMDR4YW9PHJEAF2,5,6
220,4,object_05,object_07,662.0,8,2,581.0,0.4444444444444444,2,object_01,1,3061,0,8,4,restaurant_4,2,memory-2step-stake-s,721,2918557,0.0-19.0-0.1-0.220,A38I0E8UK53ME5,3HRWUH63RXIZS6U0Z3EY966PXK25N4,3OLF68YTNDHNW3RUMDR4YW9PHJEAF2,7,8
221,4,object_05,object_07,649.0,8,2,451.0,0.5555555555555556,2,object_01,5,3086,0,6,5,restaurant_8,2,memory-2step-stake-s,722,2926876,0.0-19.0-0.1-0.221,A38I0E8UK53ME5,3HRWUH63RXIZS6U0Z3EY966PXK25N4,3OLF68YTNDHNW3RUMDR4YW9PHJEAF2,7,8
222,3,object_08,object_09,604.0,6,2,482.0,0.5555555555555556,2,object_01,1,3091,0,5,5,library_5,2,memory-2step-stake-s,723,2935176,0.0-19.0-0.1-0.222,A38I0E8UK53ME5,3HRWUH63RXIZS6U0Z3EY966PXK25N4,3OLF68YTNDHNW3RUMDR4YW9PHJEAF2,5,6
223,2,object_02,object_06,540.0,4,2,369.0,0.2222222222222222,2,object_01,5,3101,0,0,2,forest_1,2,memory-2step-stake-s,724,2943076,0.0-19.0-0.1-0.223,A38I0E8UK53ME5,3HRWUH63RXIZS6U0Z3EY966PXK25N4,3OLF68YTNDHNW3RUMDR4YW9PHJEAF2,3,4
224,2,object_02,object_06,582.0,4,2,636.0,0.0,2,object_01,5,3101,0,2,0,forest_6,2,memory-2step-stake-s,725,2950996,0.0-19.0-0.1-0.224,A38I0E8UK53ME5,3HRWUH63RXIZS6U0Z3EY966PXK25N4,3OLF68YTNDHNW3RUMDR4YW9PHJEAF2,3,4
225,3,object_09,object_08,921.0,5,2,317.0,0.2222222222222222,1,object_10,5,3111,0,2,0,library_7,2,memory-2step-stake-s,726,2958805,0.0-19.0-0.1-0.225,A38I0E8UK53ME5,3HRWUH63RXIZS6U0Z3EY966PXK25N4,3OLF68YTNDHNW3RUMDR4YW9PHJEAF2,6,5
226,2,object_06,object_02,1301.0,3,2,350.0,0.4444444444444444,1,object_10,5,3131,0,4,2,forest_5,2,memory-2step-stake-s,727,2966856,0.0-19.0-0.1-0.226,A38I0E8UK53ME5,3HRWUH63RXIZS6U0Z3EY966PXK25N4,3OLF68YTNDHNW3RUMDR4YW9PHJEAF2,4,3
227,4,object_05,object_07,773.0,7,1,289.0,0.4444444444444444,1,object_10,1,3135,0,4,0,restaurant_7,2,memory-2step-stake-s,728,2974866,0.0-19.0-0.1-0.227,A38I0E8UK53ME5,3HRWUH63RXIZS6U0Z3EY966PXK25N4,3OLF68YTNDHNW3RUMDR4YW9PHJEAF2,7,8
228,1,object_04,object_03,451.0,1,2,365.0,0.8888888888888888,1,object_10,5,3175,0,8,2,desert_2,2,memory-2step-stake-s,729,2983385,0.0-19.0-0.1-0.228,A38I0E8UK53ME5,3HRWUH63RXIZS6U0Z3EY966PXK25N4,3OLF68YTNDHNW3RUMDR4YW9PHJEAF2,2,1
229,4,object_07,object_05,883.0,7,2,778.0,0.8888888888888888,1,object_10,1,3183,0,8,3,restaurant_7,2,memory-2step-stake-s,730,2992286,0.0-19.0-0.1-0.229,A38I0E8UK53ME5,3HRWUH63RXIZS6U0Z3EY966PXK25N4,3OLF68YTNDHNW3RUMDR4YW9PHJEAF2,8,7
230,4,object_05,object_07,895.0,7,1,316.0,1.0,1,object_10,1,3192,0,9,4,restaurant_8,2,memory-2step-stake-s,731,3000845,0.0-19.0-0.1-0.230,A38I0E8UK53ME5,3HRWUH63RXIZS6U0Z3EY966PXK25N4,3OLF68YTNDHNW3RUMDR4YW9PHJEAF2,7,8
231,2,object_02,object_06,704.0,3,1,287.0,0.8888888888888888,1,object_10,5,3232,0,8,6,forest_1,2,memory-2step-stake-s,732,3009295,0.0-19.0-0.1-0.231,A38I0E8UK53ME5,3HRWUH63RXIZS6U0Z3EY966PXK25N4,3OLF68YTNDHNW3RUMDR4YW9PHJEAF2,3,4
232,1,object_03,object_04,849.0,1,1,316.0,0.6666666666666666,1,object_10,1,3238,0,6,9,desert_7,2,memory-2step-stake-s,733,3017565,0.0-19.0-0.1-0.232,A38I0E8UK53ME5,3HRWUH63RXIZS6U0Z3EY966PXK25N4,3OLF68YTNDHNW3RUMDR4YW9PHJEAF2,1,2
233,1,object_03,object_04,814.0,1,1,306.0,0.7777777777777778,1,object_10,5,3273,0,7,7,desert_3,2,memory-2step-stake-s,734,3025915,0.0-19.0-0.1-0.233,A38I0E8UK53ME5,3HRWUH63RXIZS6U0Z3EY966PXK25N4,3OLF68YTNDHNW3RUMDR4YW9PHJEAF2,1,2
234,1,object_04,object_03,1489.0,1,2,718.0,0.7777777777777778,1,object_10,1,3280,0,7,8,desert_2,2,memory-2step-stake-s,735,3034625,0.0-19.0-0.1-0.234,A38I0E8UK53ME5,3HRWUH63RXIZS6U0Z3EY966PXK25N4,3OLF68YTNDHNW3RUMDR4YW9PHJEAF2,2,1
235,1,object_04,object_03,747.0,1,2,481.0,0.8888888888888888,1,object_10,5,3320,0,8,5,desert_3,2,memory-2step-stake-s,736,3043305,0.0-19.0-0.1-0.235,A38I0E8UK53ME5,3HRWUH63RXIZS6U0Z3EY966PXK25N4,3OLF68YTNDHNW3RUMDR4YW9PHJEAF2,2,1
236,2,object_02,object_06,792.0,3,1,238.0,0.6666666666666666,1,object_10,5,3350,0,6,6,forest_2,2,memory-2step-stake-s,737,3051485,0.0-19.0-0.1-0.236,A38I0E8UK53ME5,3HRWUH63RXIZS6U0Z3EY966PXK25N4,3OLF68YTNDHNW3RUMDR4YW9PHJEAF2,3,4
237,1,object_04,object_03,781.0,1,2,267.0,0.7777777777777778,1,object_10,1,3357,0,7,5,desert_5,2,memory-2step-stake-s,738,3059785,0.0-19.0-0.1-0.237,A38I0E8UK53ME5,3HRWUH63RXIZS6U0Z3EY966PXK25N4,3OLF68YTNDHNW3RUMDR4YW9PHJEAF2,2,1
238,2,object_02,object_06,691.0,3,1,341.0,0.5555555555555556,1,object_10,5,3382,0,5,7,forest_1,2,memory-2step-stake-s,739,3067965,0.0-19.0-0.1-0.238,A38I0E8UK53ME5,3HRWUH63RXIZS6U0Z3EY966PXK25N4,3OLF68YTNDHNW3RUMDR4YW9PHJEAF2,3,4
239,3,object_08,object_09,656.0,5,1,393.0,0.4444444444444444,1,object_10,5,3402,0,4,8,library_5,2,memory-2step-stake-s,740,3076065,0.0-19.0-0.1-0.239,A38I0E8UK53ME5,3HRWUH63RXIZS6U0Z3EY966PXK25N4,3OLF68YTNDHNW3RUMDR4YW9PHJEAF2,5,6
240,2,object_02,object_06,452.0,3,1,344.0,0.2222222222222222,1,object_10,5,3412,0,2,5,forest_2,2,memory-2step-stake-s,741,3083865,0.0-19.0-0.1-0.240,A38I0E8UK53ME5,3HRWUH63RXIZS6U0Z3EY966PXK25N4,3OLF68YTNDHNW3RUMDR4YW9PHJEAF2,3,4
241,4,object_05,object_07,638.0,7,1,298.0,0.4444444444444444,1,object_10,1,3416,0,4,4,restaurant_4,2,memory-2step-stake-s,742,3091855,0.0-19.0-0.1-0.241,A38I0E8UK53ME5,3HRWUH63RXIZS6U0Z3EY966PXK25N4,3OLF68YTNDHNW3RUMDR4YW9PHJEAF2,7,8
242,1,object_03,object_04,820.0,1,1,467.0,0.1111111111111111,1,object_10,5,3421,0,1,4,desert_3,2,memory-2step-stake-s,743,3099715,0.0-19.0-0.1-0.242,A38I0E8UK53ME5,3HRWUH63RXIZS6U0Z3EY966PXK25N4,3OLF68YTNDHNW3RUMDR4YW9PHJEAF2,1,2
243,3,object_09,object_08,924.0,5,2,820.0,0.3333333333333333,1,object_10,1,3424,0,3,5,library_7,2,memory-2step-stake-s,744,3108155,0.0-19.0-0.1-0.243,A38I0E8UK53ME5,3HRWUH63RXIZS6U0Z3EY966PXK25N4,3OLF68YTNDHNW3RUMDR4YW9PHJEAF2,6,5
244,2,object_06,object_02,516.0,3,2,140.0,0.2222222222222222,1,object_10,5,3434,0,2,5,forest_5,2,memory-2step-stake-s,745,3115805,0.0-19.0-0.1-0.244,A38I0E8UK53ME5,3HRWUH63RXIZS6U0Z3EY966PXK25N4,3OLF68YTNDHNW3RUMDR4YW9PHJEAF2,4,3
245,4,object_05,object_07,786.0,7,1,253.0,0.3333333333333333,1,object_10,1,3437,0,3,2,restaurant_8,2,memory-2step-stake-s,746,3123695,0.0-19.0-0.1-0.245,A38I0E8UK53ME5,3HRWUH63RXIZS6U0Z3EY966PXK25N4,3OLF68YTNDHNW3RUMDR4YW9PHJEAF2,7,8
246,3,object_08,object_09,1083.0,6,2,351.0,0.4444444444444444,2,object_01,1,3441,0,3,4,library_1,2,memory-2step-stake-s,747,3131755,0.0-19.0-0.1-0.246,A38I0E8UK53ME5,3HRWUH63RXIZS6U0Z3EY966PXK25N4,3OLF68YTNDHNW3RUMDR4YW9PHJEAF2,5,6
247,4,object_07,object_05,451.0,8,1,302.0,0.7777777777777778,2,object_01,1,3448,0,2,7,restaurant_3,2,memory-2step-stake-s,748,3140104,0.0-19.0-0.1-0.247,A38I0E8UK53ME5,3HRWUH63RXIZS6U0Z3EY966PXK25N4,3OLF68YTNDHNW3RUMDR4YW9PHJEAF2,8,7
248,2,object_06,object_02,944.0,4,1,342.0,0.7777777777777778,2,object_01,5,3483,0,3,7,forest_5,2,memory-2step-stake-s,749,3148465,0.0-19.0-0.1-0.248,A38I0E8UK53ME5,3HRWUH63RXIZS6U0Z3EY966PXK25N4,3OLF68YTNDHNW3RUMDR4YW9PHJEAF2,4,3
249,2,object_02,object_06,707.0,4,2,287.0,0.6666666666666666,2,object_01,5,3513,0,5,6,forest_2,2,memory-2step-stake-s,750,3156704,0.0-19.0-0.1-0.249,A38I0E8UK53ME5,3HRWUH63RXIZS6U0Z3EY966PXK25N4,3OLF68YTNDHNW3RUMDR4YW9PHJEAF2,3,4
250,4,object_07,object_05,1017.0,8,1,395.0,0.4444444444444444,2,object_01,1,3517,0,7,4,restaurant_4,2,memory-2step-stake-s,751,3164805,0.0-19.0-0.1-0.250,A38I0E8UK53ME5,3HRWUH63RXIZS6U0Z3EY966PXK25N4,3OLF68YTNDHNW3RUMDR4YW9PHJEAF2,8,7
251,4,object_05,object_07,747.0,8,2,796.0,0.3333333333333333,2,object_01,5,3532,0,9,3,restaurant_3,2,memory-2step-stake-s,752,3173200,0.0-19.0-0.1-0.251,A38I0E8UK53ME5,3HRWUH63RXIZS6U0Z3EY966PXK25N4,3OLF68YTNDHNW3RUMDR4YW9PHJEAF2,7,8
252,4,object_05,object_07,621.0,8,2,469.0,0.1111111111111111,2,object_01,1,3533,0,9,1,restaurant_7,2,memory-2step-stake-s,753,3181004,0.0-19.0-0.1-0.252,A38I0E8UK53ME5,3HRWUH63RXIZS6U0Z3EY966PXK25N4,3OLF68YTNDHNW3RUMDR4YW9PHJEAF2,7,8
253,4,object_07,object_05,792.0,7,2,257.0,0.8888888888888888,1,object_10,1,3541,0,8,2,restaurant_4,2,memory-2step-stake-s,754,3189435,0.0-19.0-0.1-0.253,A38I0E8UK53ME5,3HRWUH63RXIZS6U0Z3EY966PXK25N4,3OLF68YTNDHNW3RUMDR4YW9PHJEAF2,8,7
254,1,object_03,object_04,552.0,1,1,286.0,0.5555555555555556,1,object_10,1,3546,0,5,3,desert_3,2,memory-2step-stake-s,755,3197575,0.0-19.0-0.1-0.254,A38I0E8UK53ME5,3HRWUH63RXIZS6U0Z3EY966PXK25N4,3OLF68YTNDHNW3RUMDR4YW9PHJEAF2,1,2
255,1,object_04,object_03,579.0,1,2,269.0,0.7777777777777778,1,object_10,5,3581,0,7,1,desert_3,2,memory-2step-stake-s,756,3205894,0.0-19.0-0.1-0.255,A38I0E8UK53ME5,3HRWUH63RXIZS6U0Z3EY966PXK25N4,3OLF68YTNDHNW3RUMDR4YW9PHJEAF2,2,1
