,state1,stim_left,stim_right,rt_1,choice1,response1,rt_2,points,state2,stim_state2,stake,score,practice,rews1,rews2,background,high_arm,trial_type,trial_index,time_elapsed,internal_node_id,subid,hitid,assignmentid,stim_left_num,stim_right_num
0,2,object_09,object_03,858.09999999963,3,1,-1.0,0.0,1,object_08,1,0,0,6,0,forest_7,1,memory-2step-stake-s,488,864382,0.0-19.0-0.0-0.0,A12FTSX85NQ8N9,3MQKOF1EF54KJDI76AN431783D3WDT,3VJ40NV2QM3MHC3WRG1BGV8VX9QTOS,3,4
1,3,object_07,object_02,863.09999999963,6,2,523.70000000112,0.4444444444444444,2,object_01,1,4,0,7,4,library_1,1,memory-2step-stake-s,489,872528,0.0-19.0-0.0-0.1,A12FTSX85NQ8N9,3MQKOF1EF54KJDI76AN431783D3WDT,3VJ40NV2QM3MHC3WRG1BGV8VX9QTOS,5,6
2,2,object_09,object_03,952.19999999925,4,2,887.5,0.4444444444444444,2,object_01,1,8,0,8,4,forest_3,1,memory-2step-stake-s,490,881037,0.0-19.0-0.0-0.2,A12FTSX85NQ8N9,3MQKOF1EF54KJDI76AN431783D3WDT,3VJ40NV2QM3MHC3WRG1BGV8VX9QTOS,3,4
3,4,object_04,object_10,1092.4000000004,8,1,503.40000000037,0.4444444444444444,2,object_01,1,12,0,9,4,restaurant_4,1,memory-2step-stake-s,491,889169,0.0-19.0-0.0-0.3,A12FTSX85NQ8N9,3MQKOF1EF54KJDI76AN431783D3WDT,3VJ40NV2QM3MHC3WRG1BGV8VX9QTOS,8,7
4,1,object_06,object_05,1119.7999999989,1,2,897.30000000075,0.8888888888888888,1,object_08,1,20,0,8,5,desert_1,1,memory-2step-stake-s,492,898094,0.0-19.0-0.0-0.4,A12FTSX85NQ8N9,3MQKOF1EF54KJDI76AN431783D3WDT,3VJ40NV2QM3MHC3WRG1BGV8VX9QTOS,2,1
5,4,object_04,object_10,1148.5,7,2,494.0,0.7777777777777778,1,object_08,1,27,0,7,7,restaurant_5,1,memory-2step-stake-s,493,906515,0.0-19.0-0.0-0.5,A12FTSX85NQ8N9,3MQKOF1EF54KJDI76AN431783D3WDT,3VJ40NV2QM3MHC3WRG1BGV8VX9QTOS,8,7
6,3,object_02,object_07,857.69999999925,5,2,268.79999999888,0.7777777777777778,1,object_08,5,62,0,7,5,library_5,1,memory-2step-stake-s,494,914713,0.0-19.0-0.0-0.6,A12FTSX85NQ8N9,3MQKOF1EF54KJDI76AN431783D3WDT,3VJ40NV2QM3MHC3WRG1BGV8VX9QTOS,6,5
7,3,object_02,object_07,689.40000000037,5,2,878.30000000075,0.8888888888888888,1,object_08,5,102,0,8,3,library_5,1,memory-2step-stake-s,495,923622,0.0-19.0-0.0-0.7,A12FTSX85NQ8N9,3MQKOF1EF54KJDI76AN431783D3WDT,3VJ40NV2QM3MHC3WRG1BGV8VX9QTOS,6,5
8,3,object_02,object_07,623.5,5,2,408.39999999851,0.5555555555555556,1,object_08,5,127,0,5,1,library_5,1,memory-2step-stake-s,496,931756,0.0-19.0-0.0-0.8,A12FTSX85NQ8N9,3MQKOF1EF54KJDI76AN431783D3WDT,3VJ40NV2QM3MHC3WRG1BGV8VX9QTOS,6,5
9,3,object_02,object_07,607.5,5,2,478.69999999925,0.4444444444444444,1,object_08,5,147,0,4,2,library_1,1,memory-2step-stake-s,497,939859,0.0-19.0-0.0-0.9,A12FTSX85NQ8N9,3MQKOF1EF54KJDI76AN431783D3WDT,3VJ40NV2QM3MHC3WRG1BGV8VX9QTOS,6,5
10,1,object_06,object_05,690.59999999963,2,1,450.90000000037,0.4444444444444444,2,object_01,1,151,0,3,4,desert_2,1,memory-2step-stake-s,498,947935,0.0-19.0-0.0-0.10,A12FTSX85NQ8N9,3MQKOF1EF54KJDI76AN431783D3WDT,3VJ40NV2QM3MHC3WRG1BGV8VX9QTOS,2,1
11,2,object_09,object_03,860.0,4,2,243.90000000037,0.3333333333333333,2,object_01,1,154,0,1,3,forest_3,1,memory-2step-stake-s,499,955704,0.0-19.0-0.0-0.11,A12FTSX85NQ8N9,3MQKOF1EF54KJDI76AN431783D3WDT,3VJ40NV2QM3MHC3WRG1BGV8VX9QTOS,3,4
12,2,object_09,object_03,932.70000000112,3,1,553.30000000075,0.2222222222222222,1,object_08,1,156,0,2,5,forest_5,1,memory-2step-stake-s,500,963679,0.0-19.0-0.0-0.12,A12FTSX85NQ8N9,3MQKOF1EF54KJDI76AN431783D3WDT,3VJ40NV2QM3MHC3WRG1BGV8VX9QTOS,3,4
13,2,object_09,object_03,688.5,4,2,367.0,0.7777777777777778,2,object_01,1,163,0,4,7,forest_7,1,memory-2step-stake-s,501,971973,0.0-19.0-0.0-0.13,A12FTSX85NQ8N9,3MQKOF1EF54KJDI76AN431783D3WDT,3VJ40NV2QM3MHC3WRG1BGV8VX9QTOS,3,4
14,3,object_07,object_02,467.59999999963,6,2,481.5,0.4444444444444444,2,object_01,5,183,0,3,4,library_3,1,memory-2step-stake-s,502,980078,0.0-19.0-0.0-0.14,A12FTSX85NQ8N9,3MQKOF1EF54KJDI76AN431783D3WDT,3VJ40NV2QM3MHC3WRG1BGV8VX9QTOS,5,6
15,4,object_04,object_10,1006.8000000007,7,2,473.90000000037,0.4444444444444444,1,object_08,5,203,0,4,6,restaurant_6,1,memory-2step-stake-s,503,988176,0.0-19.0-0.0-0.15,A12FTSX85NQ8N9,3MQKOF1EF54KJDI76AN431783D3WDT,3VJ40NV2QM3MHC3WRG1BGV8VX9QTOS,8,7
16,1,object_06,object_05,674.09999999963,2,1,374.10000000149,0.6666666666666666,2,object_01,1,209,0,4,6,desert_5,1,memory-2step-stake-s,504,996378,0.0-19.0-0.0-0.16,A12FTSX85NQ8N9,3MQKOF1EF54KJDI76AN431783D3WDT,3VJ40NV2QM3MHC3WRG1BGV8VX9QTOS,2,1
17,2,object_03,object_09,725.40000000037,3,2,402.90000000037,0.5555555555555556,1,object_08,1,214,0,5,4,forest_5,1,memory-2step-stake-s,505,1004507,0.0-19.0-0.0-0.17,A12FTSX85NQ8N9,3MQKOF1EF54KJDI76AN431783D3WDT,3VJ40NV2QM3MHC3WRG1BGV8VX9QTOS,4,3
18,1,object_06,object_05,500.79999999888,2,1,391.89999999851,0.4444444444444444,2,object_01,1,218,0,8,4,desert_1,1,memory-2step-stake-s,506,1012523,0.0-19.0-0.0-0.18,A12FTSX85NQ8N9,3MQKOF1EF54KJDI76AN431783D3WDT,3VJ40NV2QM3MHC3WRG1BGV8VX9QTOS,2,1
19,1,object_05,object_06,706.19999999925,1,1,455.70000000112,0.8888888888888888,1,object_08,1,226,0,8,1,desert_5,1,memory-2step-stake-s,507,1021011,0.0-19.0-0.0-0.19,A12FTSX85NQ8N9,3MQKOF1EF54KJDI76AN431783D3WDT,3VJ40NV2QM3MHC3WRG1BGV8VX9QTOS,1,2
20,1,object_05,object_06,946.40000000037,1,1,543.09999999963,0.6666666666666666,1,object_08,1,232,0,6,2,desert_2,1,memory-2step-stake-s,508,1029382,0.0-19.0-0.0-0.20,A12FTSX85NQ8N9,3MQKOF1EF54KJDI76AN431783D3WDT,3VJ40NV2QM3MHC3WRG1BGV8VX9QTOS,1,2
21,3,object_02,object_07,822.59999999963,6,1,289.90000000037,0.3333333333333333,2,object_01,1,235,0,2,3,library_7,1,memory-2step-stake-s,509,1037188,0.0-19.0-0.0-0.21,A12FTSX85NQ8N9,3MQKOF1EF54KJDI76AN431783D3WDT,3VJ40NV2QM3MHC3WRG1BGV8VX9QTOS,6,5
22,4,object_10,object_04,1086.9000000004,7,1,381.5,0.2222222222222222,1,object_08,5,245,0,2,4,restaurant_5,1,memory-2step-stake-s,510,1044984,0.0-19.0-0.0-0.22,A12FTSX85NQ8N9,3MQKOF1EF54KJDI76AN431783D3WDT,3VJ40NV2QM3MHC3WRG1BGV8VX9QTOS,7,8
23,2,object_09,object_03,800.09999999963,4,2,385.59999999963,0.3333333333333333,2,object_01,1,248,0,3,3,forest_7,1,memory-2step-stake-s,511,1052886,0.0-19.0-0.0-0.23,A12FTSX85NQ8N9,3MQKOF1EF54KJDI76AN431783D3WDT,3VJ40NV2QM3MHC3WRG1BGV8VX9QTOS,3,4
24,1,object_06,object_05,806.69999999925,1,2,422.80000000075,0.1111111111111111,1,object_08,1,249,0,1,5,desert_2,1,memory-2step-stake-s,512,1060621,0.0-19.0-0.0-0.24,A12FTSX85NQ8N9,3MQKOF1EF54KJDI76AN431783D3WDT,3VJ40NV2QM3MHC3WRG1BGV8VX9QTOS,2,1
25,2,object_03,object_09,1027.3000000007,3,2,463.59999999963,0.1111111111111111,1,object_08,1,250,0,1,5,forest_3,1,memory-2step-stake-s,513,1068397,0.0-19.0-0.0-0.25,A12FTSX85NQ8N9,3MQKOF1EF54KJDI76AN431783D3WDT,3VJ40NV2QM3MHC3WRG1BGV8VX9QTOS,4,3
26,3,object_02,object_07,-1.0,-1,-1,-1.0,0.0,-,0,5,250,0,2,3,library_5,1,memory-2step-stake-s,514,1074905,0.0-19.0-0.0-0.26,A12FTSX85NQ8N9,3MQKOF1EF54KJDI76AN431783D3WDT,3VJ40NV2QM3MHC3WRG1BGV8VX9QTOS,6,5
27,3,object_07,object_02,688.5,5,1,406.5,0.5555555555555556,1,object_08,1,255,0,5,1,library_1,1,memory-2step-stake-s,515,1083028,0.0-19.0-0.0-0.27,A12FTSX85NQ8N9,3MQKOF1EF54KJDI76AN431783D3WDT,3VJ40NV2QM3MHC3WRG1BGV8VX9QTOS,5,6
28,4,object_10,object_04,993.5,7,1,526.5,0.2222222222222222,1,object_08,5,265,0,2,0,restaurant_4,1,memory-2step-stake-s,516,1090968,0.0-19.0-0.0-0.28,A12FTSX85NQ8N9,3MQKOF1EF54KJDI76AN431783D3WDT,3VJ40NV2QM3MHC3WRG1BGV8VX9QTOS,7,8
29,4,object_10,object_04,685.5,8,2,230.90000000037,0.2222222222222222,2,object_01,5,275,0,5,2,restaurant_1,1,memory-2step-stake-s,517,1098614,0.0-19.0-0.0-0.29,A12FTSX85NQ8N9,3MQKOF1EF54KJDI76AN431783D3WDT,3VJ40NV2QM3MHC3WRG1BGV8VX9QTOS,7,8
30,4,object_10,object_04,-1.0,-1,-1,-1.0,0.0,-,0,5,275,0,6,1,restaurant_5,1,memory-2step-stake-s,518,1105121,0.0-19.0-0.0-0.30,A12FTSX85NQ8N9,3MQKOF1EF54KJDI76AN431783D3WDT,3VJ40NV2QM3MHC3WRG1BGV8VX9QTOS,7,8
31,4,object_10,object_04,570.09999999963,8,2,491.0,0.0,2,object_01,1,275,0,8,0,restaurant_6,1,memory-2step-stake-s,519,1112823,0.0-19.0-0.0-0.31,A12FTSX85NQ8N9,3MQKOF1EF54KJDI76AN431783D3WDT,3VJ40NV2QM3MHC3WRG1BGV8VX9QTOS,7,8
32,4,object_10,object_04,556.90000000037,7,1,452.59999999963,0.5555555555555556,1,object_08,5,300,0,5,0,restaurant_1,1,memory-2step-stake-s,520,1120995,0.0-19.0-0.0-0.32,A12FTSX85NQ8N9,3MQKOF1EF54KJDI76AN431783D3WDT,3VJ40NV2QM3MHC3WRG1BGV8VX9QTOS,7,8
33,3,object_02,object_07,832.90000000037,6,1,388.40000000037,0.1111111111111111,2,object_01,5,305,0,3,1,library_7,1,memory-2step-stake-s,521,1128697,0.0-19.0-0.0-0.33,A12FTSX85NQ8N9,3MQKOF1EF54KJDI76AN431783D3WDT,3VJ40NV2QM3MHC3WRG1BGV8VX9QTOS,6,5
34,1,object_05,object_06,406.09999999963,2,2,175.39999999851,0.2222222222222222,2,object_01,1,307,0,1,2,desert_5,1,memory-2step-stake-s,522,1136286,0.0-19.0-0.0-0.34,A12FTSX85NQ8N9,3MQKOF1EF54KJDI76AN431783D3WDT,3VJ40NV2QM3MHC3WRG1BGV8VX9QTOS,1,2
35,1,object_05,object_06,808.5,1,1,442.0,0.3333333333333333,1,object_08,5,322,0,3,2,desert_1,1,memory-2step-stake-s,523,1144244,0.0-19.0-0.0-0.35,A12FTSX85NQ8N9,3MQKOF1EF54KJDI76AN431783D3WDT,3VJ40NV2QM3MHC3WRG1BGV8VX9QTOS,1,2
36,1,object_05,object_06,605.19999999925,1,1,243.69999999925,0.2222222222222222,1,object_08,1,324,0,2,1,desert_2,1,memory-2step-stake-s,524,1151902,0.0-19.0-0.0-0.36,A12FTSX85NQ8N9,3MQKOF1EF54KJDI76AN431783D3WDT,3VJ40NV2QM3MHC3WRG1BGV8VX9QTOS,1,2
37,2,object_09,object_03,533.69999999925,4,2,231.69999999925,0.5555555555555556,2,object_01,1,329,0,1,5,forest_3,1,memory-2step-stake-s,525,1159851,0.0-19.0-0.0-0.37,A12FTSX85NQ8N9,3MQKOF1EF54KJDI76AN431783D3WDT,3VJ40NV2QM3MHC3WRG1BGV8VX9QTOS,3,4
38,2,object_09,object_03,816.69999999925,4,2,465.79999999888,0.5555555555555556,2,object_01,1,334,0,1,5,forest_5,1,memory-2step-stake-s,526,1168036,0.0-19.0-0.0-0.38,A12FTSX85NQ8N9,3MQKOF1EF54KJDI76AN431783D3WDT,3VJ40NV2QM3MHC3WRG1BGV8VX9QTOS,3,4
39,1,object_06,object_05,1196.5999999996,1,2,583.19999999925,0.1111111111111111,1,object_08,1,335,0,1,4,desert_3,1,memory-2step-stake-s,527,1175934,0.0-19.0-0.0-0.39,A12FTSX85NQ8N9,3MQKOF1EF54KJDI76AN431783D3WDT,3VJ40NV2QM3MHC3WRG1BGV8VX9QTOS,2,1
40,1,object_05,object_06,1073.8999999985,2,2,292.59999999963,0.7777777777777778,2,object_01,1,342,0,3,7,desert_2,1,memory-2step-stake-s,528,1184147,0.0-19.0-0.0-0.40,A12FTSX85NQ8N9,3MQKOF1EF54KJDI76AN431783D3WDT,3VJ40NV2QM3MHC3WRG1BGV8VX9QTOS,1,2
41,3,object_07,object_02,681.19999999925,5,1,530.69999999925,0.0,1,object_08,5,342,0,0,7,library_3,1,memory-2step-stake-s,529,1191890,0.0-19.0-0.0-0.41,A12FTSX85NQ8N9,3MQKOF1EF54KJDI76AN431783D3WDT,3VJ40NV2QM3MHC3WRG1BGV8VX9QTOS,5,6
42,1,object_06,object_05,752.40000000037,1,2,446.10000000149,0.2222222222222222,1,object_08,1,344,0,2,5,desert_1,1,memory-2step-stake-s,530,1199752,0.0-19.0-0.0-0.42,A12FTSX85NQ8N9,3MQKOF1EF54KJDI76AN431783D3WDT,3VJ40NV2QM3MHC3WRG1BGV8VX9QTOS,2,1
43,1,object_05,object_06,840.59999999963,2,2,306.90000000037,0.5555555555555556,2,object_01,1,349,0,4,5,desert_3,1,memory-2step-stake-s,531,1207778,0.0-19.0-0.0-0.43,A12FTSX85NQ8N9,3MQKOF1EF54KJDI76AN431783D3WDT,3VJ40NV2QM3MHC3WRG1BGV8VX9QTOS,1,2
44,2,object_03,object_09,861.80000000075,4,1,289.5,0.5555555555555556,2,object_01,1,354,0,2,5,forest_7,1,memory-2step-stake-s,532,1215787,0.0-19.0-0.0-0.44,A12FTSX85NQ8N9,3MQKOF1EF54KJDI76AN431783D3WDT,3VJ40NV2QM3MHC3WRG1BGV8VX9QTOS,4,3
45,3,object_02,object_07,771.70000000112,5,2,344.10000000149,0.7777777777777778,1,object_08,5,389,0,7,5,library_1,1,memory-2step-stake-s,533,1224052,0.0-19.0-0.0-0.45,A12FTSX85NQ8N9,3MQKOF1EF54KJDI76AN431783D3WDT,3VJ40NV2QM3MHC3WRG1BGV8VX9QTOS,6,5
46,2,object_03,object_09,582.0,4,1,325.40000000037,0.2222222222222222,2,object_01,1,391,0,2,2,forest_5,1,memory-2step-stake-s,534,1231795,0.0-19.0-0.0-0.46,A12FTSX85NQ8N9,3MQKOF1EF54KJDI76AN431783D3WDT,3VJ40NV2QM3MHC3WRG1BGV8VX9QTOS,4,3
47,2,object_09,object_03,633.5,4,2,362.19999999925,0.2222222222222222,2,object_01,1,393,0,2,2,forest_3,1,memory-2step-stake-s,535,1239573,0.0-19.0-0.0-0.47,A12FTSX85NQ8N9,3MQKOF1EF54KJDI76AN431783D3WDT,3VJ40NV2QM3MHC3WRG1BGV8VX9QTOS,3,4
48,4,object_10,object_04,788.09999999963,7,1,435.90000000037,0.1111111111111111,1,object_08,5,398,0,1,2,restaurant_1,1,memory-2step-stake-s,536,1247323,0.0-19.0-0.0-0.48,A12FTSX85NQ8N9,3MQKOF1EF54KJDI76AN431783D3WDT,3VJ40NV2QM3MHC3WRG1BGV8VX9QTOS,7,8
49,4,object_10,object_04,972.60000000149,8,2,403.80000000075,0.3333333333333333,2,object_01,5,413,0,4,3,restaurant_5,1,memory-2step-stake-s,537,1255243,0.0-19.0-0.0-0.49,A12FTSX85NQ8N9,3MQKOF1EF54KJDI76AN431783D3WDT,3VJ40NV2QM3MHC3WRG1BGV8VX9QTOS,7,8
50,1,object_06,object_05,879.90000000037,2,1,273.90000000037,0.4444444444444444,2,object_01,1,417,0,5,4,desert_5,1,memory-2step-stake-s,538,1263137,0.0-19.0-0.0-0.50,A12FTSX85NQ8N9,3MQKOF1EF54KJDI76AN431783D3WDT,3VJ40NV2QM3MHC3WRG1BGV8VX9QTOS,2,1
51,3,object_02,object_07,552.40000000037,5,2,294.90000000037,0.5555555555555556,1,object_08,1,422,0,5,5,library_5,1,memory-2step-stake-s,539,1271152,0.0-19.0-0.0-0.51,A12FTSX85NQ8N9,3MQKOF1EF54KJDI76AN431783D3WDT,3VJ40NV2QM3MHC3WRG1BGV8VX9QTOS,6,5
52,2,object_09,object_03,870.40000000037,3,1,265.40000000037,0.6666666666666666,1,object_08,1,428,0,6,6,forest_2,1,memory-2step-stake-s,540,1279239,0.0-19.0-0.0-0.52,A12FTSX85NQ8N9,3MQKOF1EF54KJDI76AN431783D3WDT,3VJ40NV2QM3MHC3WRG1BGV8VX9QTOS,3,4
53,4,object_04,object_10,681.70000000112,8,1,232.20000000112,0.6666666666666666,2,object_01,5,458,0,3,6,restaurant_1,1,memory-2step-stake-s,541,1287295,0.0-19.0-0.0-0.53,A12FTSX85NQ8N9,3MQKOF1EF54KJDI76AN431783D3WDT,3VJ40NV2QM3MHC3WRG1BGV8VX9QTOS,8,7
54,4,object_10,object_04,1113.2000000011,7,1,1339.8999999985,0.4444444444444444,1,object_08,5,478,0,4,3,restaurant_4,1,memory-2step-stake-s,542,1296256,0.0-19.0-0.0-0.54,A12FTSX85NQ8N9,3MQKOF1EF54KJDI76AN431783D3WDT,3VJ40NV2QM3MHC3WRG1BGV8VX9QTOS,7,8
55,3,object_07,object_02,582.0,5,1,802.60000000149,0.6666666666666666,1,object_08,5,508,0,6,5,library_3,1,memory-2step-stake-s,543,1304880,0.0-19.0-0.0-0.55,A12FTSX85NQ8N9,3MQKOF1EF54KJDI76AN431783D3WDT,3VJ40NV2QM3MHC3WRG1BGV8VX9QTOS,5,6
56,4,object_10,object_04,594.0,7,1,1049.4000000004,0.7777777777777778,1,object_08,5,543,0,7,5,restaurant_6,1,memory-2step-stake-s,544,1313853,0.0-19.0-0.0-0.56,A12FTSX85NQ8N9,3MQKOF1EF54KJDI76AN431783D3WDT,3VJ40NV2QM3MHC3WRG1BGV8VX9QTOS,7,8
57,3,object_07,object_02,501.69999999925,6,2,325.40000000037,0.5555555555555556,2,object_01,5,568,0,6,5,library_1,1,memory-2step-stake-s,545,1321899,0.0-19.0-0.0-0.57,A12FTSX85NQ8N9,3MQKOF1EF54KJDI76AN431783D3WDT,3VJ40NV2QM3MHC3WRG1BGV8VX9QTOS,5,6
58,4,object_04,object_10,698.70000000112,8,1,413.5,0.7777777777777778,2,object_01,1,575,0,4,7,restaurant_1,1,memory-2step-stake-s,546,1330237,0.0-19.0-0.0-0.58,A12FTSX85NQ8N9,3MQKOF1EF54KJDI76AN431783D3WDT,3VJ40NV2QM3MHC3WRG1BGV8VX9QTOS,8,7
59,2,object_03,object_09,626.59999999963,4,1,600.80000000075,1.0,2,object_01,5,620,0,5,9,forest_2,1,memory-2step-stake-s,547,1338965,0.0-19.0-0.0-0.59,A12FTSX85NQ8N9,3MQKOF1EF54KJDI76AN431783D3WDT,3VJ40NV2QM3MHC3WRG1BGV8VX9QTOS,4,3
60,1,object_06,object_05,506.10000000149,2,1,342.0,0.8888888888888888,2,object_01,1,628,0,6,8,desert_1,1,memory-2step-stake-s,548,1347328,0.0-19.0-0.0-0.60,A12FTSX85NQ8N9,3MQKOF1EF54KJDI76AN431783D3WDT,3VJ40NV2QM3MHC3WRG1BGV8VX9QTOS,2,1
61,1,object_05,object_06,600.29999999888,2,2,502.90000000037,0.6666666666666666,2,object_01,5,658,0,8,6,desert_2,1,memory-2step-stake-s,549,1355648,0.0-19.0-0.0-0.61,A12FTSX85NQ8N9,3MQKOF1EF54KJDI76AN431783D3WDT,3VJ40NV2QM3MHC3WRG1BGV8VX9QTOS,1,2
62,2,object_09,object_03,776.70000000112,4,2,695.79999999888,0.6666666666666666,2,object_01,1,664,0,9,6,forest_3,1,memory-2step-stake-s,550,1364161,0.0-19.0-0.0-0.62,A12FTSX85NQ8N9,3MQKOF1EF54KJDI76AN431783D3WDT,3VJ40NV2QM3MHC3WRG1BGV8VX9QTOS,3,4
63,1,object_06,object_05,700.0,2,1,862.30000000075,0.3333333333333333,2,object_01,1,667,0,6,3,desert_3,1,memory-2step-stake-s,551,1372539,0.0-19.0-0.0-0.63,A12FTSX85NQ8N9,3MQKOF1EF54KJDI76AN431783D3WDT,3VJ40NV2QM3MHC3WRG1BGV8VX9QTOS,2,1
64,2,object_09,object_03,485.09999999963,4,2,385.79999999888,0.0,2,object_01,1,667,0,5,0,forest_3,1,memory-2step-stake-s,552,1380136,0.0-19.0-0.0-0.64,A12FTSX85NQ8N9,3MQKOF1EF54KJDI76AN431783D3WDT,3VJ40NV2QM3MHC3WRG1BGV8VX9QTOS,3,4
65,4,object_10,object_04,538.5,7,1,420.80000000075,0.8888888888888888,1,object_08,5,707,0,8,2,restaurant_6,1,memory-2step-stake-s,553,1388578,0.0-19.0-0.0-0.65,A12FTSX85NQ8N9,3MQKOF1EF54KJDI76AN431783D3WDT,3VJ40NV2QM3MHC3WRG1BGV8VX9QTOS,7,8
66,4,object_10,object_04,730.20000000112,7,1,303.70000000112,0.8888888888888888,1,object_08,5,747,0,8,1,restaurant_4,1,memory-2step-stake-s,554,1396900,0.0-19.0-0.0-0.66,A12FTSX85NQ8N9,3MQKOF1EF54KJDI76AN431783D3WDT,3VJ40NV2QM3MHC3WRG1BGV8VX9QTOS,7,8
67,3,object_02,object_07,906.59999999963,5,2,300.69999999925,0.5555555555555556,1,object_08,1,752,0,5,0,library_5,1,memory-2step-stake-s,555,1404920,0.0-19.0-0.0-0.67,A12FTSX85NQ8N9,3MQKOF1EF54KJDI76AN431783D3WDT,3VJ40NV2QM3MHC3WRG1BGV8VX9QTOS,6,5
68,1,object_06,object_05,591.70000000112,2,1,759.0,0.2222222222222222,2,object_01,1,754,0,6,2,desert_1,1,memory-2step-stake-s,556,1413093,0.0-19.0-0.0-0.68,A12FTSX85NQ8N9,3MQKOF1EF54KJDI76AN431783D3WDT,3VJ40NV2QM3MHC3WRG1BGV8VX9QTOS,2,1
69,4,object_04,object_10,1156.5999999996,8,1,1156.9000000004,0.1111111111111111,2,object_01,5,759,0,9,1,restaurant_1,1,memory-2step-stake-s,557,1421564,0.0-19.0-0.0-0.69,A12FTSX85NQ8N9,3MQKOF1EF54KJDI76AN431783D3WDT,3VJ40NV2QM3MHC3WRG1BGV8VX9QTOS,8,7
70,2,object_03,object_09,513.0,4,1,812.09999999963,0.2222222222222222,2,object_01,5,769,0,8,2,forest_3,1,memory-2step-stake-s,558,1429791,0.0-19.0-0.0-0.70,A12FTSX85NQ8N9,3MQKOF1EF54KJDI76AN431783D3WDT,3VJ40NV2QM3MHC3WRG1BGV8VX9QTOS,4,3
71,4,object_04,object_10,838.0,8,1,355.5,0.5555555555555556,2,object_01,5,794,0,8,5,restaurant_5,1,memory-2step-stake-s,559,1437869,0.0-19.0-0.0-0.71,A12FTSX85NQ8N9,3MQKOF1EF54KJDI76AN431783D3WDT,3VJ40NV2QM3MHC3WRG1BGV8VX9QTOS,8,7
72,3,object_02,object_07,518.90000000037,5,2,492.79999999888,0.7777777777777778,1,object_08,5,829,0,7,4,library_1,1,memory-2step-stake-s,560,1446283,0.0-19.0-0.0-0.72,A12FTSX85NQ8N9,3MQKOF1EF54KJDI76AN431783D3WDT,3VJ40NV2QM3MHC3WRG1BGV8VX9QTOS,6,5
73,3,object_02,object_07,532.90000000037,5,2,247.70000000112,0.8888888888888888,1,object_08,5,869,0,8,3,library_5,1,memory-2step-stake-s,561,1454551,0.0-19.0-0.0-0.73,A12FTSX85NQ8N9,3MQKOF1EF54KJDI76AN431783D3WDT,3VJ40NV2QM3MHC3WRG1BGV8VX9QTOS,6,5
74,3,object_07,object_02,698.40000000037,6,2,713.30000000075,0.3333333333333333,2,object_01,5,884,0,8,3,library_7,1,memory-2step-stake-s,562,1462782,0.0-19.0-0.0-0.74,A12FTSX85NQ8N9,3MQKOF1EF54KJDI76AN431783D3WDT,3VJ40NV2QM3MHC3WRG1BGV8VX9QTOS,5,6
75,1,object_06,object_05,509.59999999963,2,1,558.0,0.2222222222222222,2,object_01,1,886,0,7,2,desert_1,1,memory-2step-stake-s,563,1470756,0.0-19.0-0.0-0.75,A12FTSX85NQ8N9,3MQKOF1EF54KJDI76AN431783D3WDT,3VJ40NV2QM3MHC3WRG1BGV8VX9QTOS,2,1
76,2,object_03,object_09,609.69999999925,4,1,420.40000000037,0.5555555555555556,2,object_01,1,891,0,3,5,forest_2,1,memory-2step-stake-s,564,1478898,0.0-19.0-0.0-0.76,A12FTSX85NQ8N9,3MQKOF1EF54KJDI76AN431783D3WDT,3VJ40NV2QM3MHC3WRG1BGV8VX9QTOS,4,3
77,2,object_09,object_03,643.90000000037,4,2,347.30000000075,0.3333333333333333,2,object_01,1,894,0,5,3,forest_5,1,memory-2step-stake-s,565,1486763,0.0-19.0-0.0-0.77,A12FTSX85NQ8N9,3MQKOF1EF54KJDI76AN431783D3WDT,3VJ40NV2QM3MHC3WRG1BGV8VX9QTOS,3,4
78,2,object_03,object_09,526.39999999851,4,1,221.40000000037,0.4444444444444444,2,object_01,1,898,0,3,4,forest_7,1,memory-2step-stake-s,566,1494601,0.0-19.0-0.0-0.78,A12FTSX85NQ8N9,3MQKOF1EF54KJDI76AN431783D3WDT,3VJ40NV2QM3MHC3WRG1BGV8VX9QTOS,4,3
79,3,object_07,object_02,1000.5999999996,5,1,294.89999999851,0.0,1,object_08,5,898,0,0,5,library_7,1,memory-2step-stake-s,567,1502109,0.0-19.0-0.0-0.79,A12FTSX85NQ8N9,3MQKOF1EF54KJDI76AN431783D3WDT,3VJ40NV2QM3MHC3WRG1BGV8VX9QTOS,5,6
80,2,object_09,object_03,763.09999999963,3,1,601.09999999963,0.2222222222222222,1,object_08,5,908,0,2,8,forest_5,1,memory-2step-stake-s,568,1510125,0.0-19.0-0.0-0.80,A12FTSX85NQ8N9,3MQKOF1EF54KJDI76AN431783D3WDT,3VJ40NV2QM3MHC3WRG1BGV8VX9QTOS,3,4
81,1,object_06,object_05,944.40000000037,1,2,521.69999999925,0.4444444444444444,1,object_08,1,912,0,4,5,desert_2,1,memory-2step-stake-s,569,1518266,0.0-19.0-0.0-0.81,A12FTSX85NQ8N9,3MQKOF1EF54KJDI76AN431783D3WDT,3VJ40NV2QM3MHC3WRG1BGV8VX9QTOS,2,1
82,2,object_03,object_09,1049.3000000007,3,2,352.90000000037,0.3333333333333333,1,object_08,5,927,0,3,6,forest_3,1,memory-2step-stake-s,570,1526135,0.0-19.0-0.0-0.82,A12FTSX85NQ8N9,3MQKOF1EF54KJDI76AN431783D3WDT,3VJ40NV2QM3MHC3WRG1BGV8VX9QTOS,4,3
83,1,object_05,object_06,944.0,2,2,382.90000000037,0.4444444444444444,2,object_01,1,931,0,0,4,desert_1,1,memory-2step-stake-s,571,1534137,0.0-19.0-0.0-0.83,A12FTSX85NQ8N9,3MQKOF1EF54KJDI76AN431783D3WDT,3VJ40NV2QM3MHC3WRG1BGV8VX9QTOS,1,2
84,3,object_02,object_07,1178.0999999996,6,1,324.59999999963,0.1111111111111111,2,object_01,5,936,0,1,1,library_5,1,memory-2step-stake-s,572,1541776,0.0-19.0-0.0-0.84,A12FTSX85NQ8N9,3MQKOF1EF54KJDI76AN431783D3WDT,3VJ40NV2QM3MHC3WRG1BGV8VX9QTOS,6,5
85,4,object_10,object_04,602.0,7,1,362.40000000037,0.1111111111111111,1,object_08,5,941,0,1,1,restaurant_4,1,memory-2step-stake-s,573,1549455,0.0-19.0-0.0-0.85,A12FTSX85NQ8N9,3MQKOF1EF54KJDI76AN431783D3WDT,3VJ40NV2QM3MHC3WRG1BGV8VX9QTOS,7,8
86,4,object_10,object_04,652.89999999851,8,2,408.29999999888,0.3333333333333333,2,object_01,5,956,0,2,3,restaurant_6,1,memory-2step-stake-s,574,1557381,0.0-19.0-0.0-0.86,A12FTSX85NQ8N9,3MQKOF1EF54KJDI76AN431783D3WDT,3VJ40NV2QM3MHC3WRG1BGV8VX9QTOS,7,8
87,2,object_03,object_09,479.09999999963,4,1,445.40000000037,0.5555555555555556,2,object_01,1,961,0,5,5,forest_2,1,memory-2step-stake-s,575,1565548,0.0-19.0-0.0-0.87,A12FTSX85NQ8N9,3MQKOF1EF54KJDI76AN431783D3WDT,3VJ40NV2QM3MHC3WRG1BGV8VX9QTOS,4,3
88,2,object_03,object_09,850.60000000149,3,2,652.40000000037,0.8888888888888888,1,object_08,1,969,0,8,4,forest_2,1,memory-2step-stake-s,576,1574223,0.0-19.0-0.0-0.88,A12FTSX85NQ8N9,3MQKOF1EF54KJDI76AN431783D3WDT,3VJ40NV2QM3MHC3WRG1BGV8VX9QTOS,4,3
89,1,object_06,object_05,747.19999999925,1,2,710.90000000037,0.8888888888888888,1,object_08,1,977,0,8,3,desert_2,1,memory-2step-stake-s,577,1582958,0.0-19.0-0.0-0.89,A12FTSX85NQ8N9,3MQKOF1EF54KJDI76AN431783D3WDT,3VJ40NV2QM3MHC3WRG1BGV8VX9QTOS,2,1
90,2,object_03,object_09,851.0,3,2,369.59999999963,0.7777777777777778,1,object_08,1,984,0,7,9,forest_5,1,memory-2step-stake-s,578,1591252,0.0-19.0-0.0-0.90,A12FTSX85NQ8N9,3MQKOF1EF54KJDI76AN431783D3WDT,3VJ40NV2QM3MHC3WRG1BGV8VX9QTOS,4,3
91,2,object_09,object_03,624.80000000075,3,1,645.39999999851,0.8888888888888888,1,object_08,1,992,0,8,8,forest_3,1,memory-2step-stake-s,579,1599920,0.0-19.0-0.0-0.91,A12FTSX85NQ8N9,3MQKOF1EF54KJDI76AN431783D3WDT,3VJ40NV2QM3MHC3WRG1BGV8VX9QTOS,3,4
92,2,object_09,object_03,524.0,3,1,328.79999999888,0.6666666666666666,1,object_08,5,1022,0,6,8,forest_3,1,memory-2step-stake-s,580,1608074,0.0-19.0-0.0-0.92,A12FTSX85NQ8N9,3MQKOF1EF54KJDI76AN431783D3WDT,3VJ40NV2QM3MHC3WRG1BGV8VX9QTOS,3,4
93,4,object_04,object_10,645.79999999888,8,1,428.5,0.7777777777777778,2,object_01,1,1029,0,6,7,restaurant_6,1,memory-2step-stake-s,581,1616427,0.0-19.0-0.0-0.93,A12FTSX85NQ8N9,3MQKOF1EF54KJDI76AN431783D3WDT,3VJ40NV2QM3MHC3WRG1BGV8VX9QTOS,8,7
94,1,object_06,object_05,469.40000000037,2,1,275.5,0.8888888888888888,2,object_01,5,1069,0,6,8,desert_3,1,memory-2step-stake-s,582,1624728,0.0-19.0-0.0-0.94,A12FTSX85NQ8N9,3MQKOF1EF54KJDI76AN431783D3WDT,3VJ40NV2QM3MHC3WRG1BGV8VX9QTOS,2,1
95,3,object_07,object_02,622.09999999963,5,1,132.5,0.7777777777777778,1,object_08,5,1104,0,7,9,library_7,1,memory-2step-stake-s,583,1632785,0.0-19.0-0.0-0.95,A12FTSX85NQ8N9,3MQKOF1EF54KJDI76AN431783D3WDT,3VJ40NV2QM3MHC3WRG1BGV8VX9QTOS,5,6
96,2,object_03,object_09,725.80000000075,4,1,195.30000000075,0.7777777777777778,2,object_01,1,1111,0,5,7,forest_5,1,memory-2step-stake-s,584,1640903,0.0-19.0-0.0-0.96,A12FTSX85NQ8N9,3MQKOF1EF54KJDI76AN431783D3WDT,3VJ40NV2QM3MHC3WRG1BGV8VX9QTOS,4,3
97,3,object_07,object_02,924.20000000112,6,2,223.69999999925,0.7777777777777778,2,object_01,5,1146,0,6,7,library_5,1,memory-2step-stake-s,585,1649046,0.0-19.0-0.0-0.97,A12FTSX85NQ8N9,3MQKOF1EF54KJDI76AN431783D3WDT,3VJ40NV2QM3MHC3WRG1BGV8VX9QTOS,5,6
98,2,object_03,object_09,1164.4000000004,3,2,-1.0,0.0,1,object_08,5,1146,0,6,8,forest_3,1,memory-2step-stake-s,586,1657557,0.0-19.0-0.0-0.98,A12FTSX85NQ8N9,3MQKOF1EF54KJDI76AN431783D3WDT,3VJ40NV2QM3MHC3WRG1BGV8VX9QTOS,4,3
99,3,object_02,object_07,773.59999999963,6,1,99.799999998882,0.5555555555555556,2,object_01,1,1151,0,8,5,library_7,1,memory-2step-stake-s,587,1665374,0.0-19.0-0.0-0.99,A12FTSX85NQ8N9,3MQKOF1EF54KJDI76AN431783D3WDT,3VJ40NV2QM3MHC3WRG1BGV8VX9QTOS,6,5
100,4,object_04,object_10,1269.3000000007,8,1,736.40000000037,0.4444444444444444,2,object_01,5,1171,0,8,4,restaurant_1,1,memory-2step-stake-s,588,1673726,0.0-19.0-0.0-0.100,A12FTSX85NQ8N9,3MQKOF1EF54KJDI76AN431783D3WDT,3VJ40NV2QM3MHC3WRG1BGV8VX9QTOS,8,7
101,3,object_07,object_02,754.90000000037,6,2,35.300000000745,0.2222222222222222,2,object_01,5,1181,0,7,2,library_7,1,memory-2step-stake-s,589,1681174,0.0-19.0-0.0-0.101,A12FTSX85NQ8N9,3MQKOF1EF54KJDI76AN431783D3WDT,3VJ40NV2QM3MHC3WRG1BGV8VX9QTOS,5,6
102,4,object_10,object_04,791.69999999925,8,2,275.5,0.1111111111111111,2,object_01,1,1182,0,5,1,restaurant_5,1,memory-2step-stake-s,590,1688763,0.0-19.0-0.0-0.102,A12FTSX85NQ8N9,3MQKOF1EF54KJDI76AN431783D3WDT,3VJ40NV2QM3MHC3WRG1BGV8VX9QTOS,7,8
103,2,object_09,object_03,1004.4000000004,3,1,426.30000000075,0.7777777777777778,1,object_08,5,1217,0,7,1,forest_5,1,memory-2step-stake-s,591,1697110,0.0-19.0-0.0-0.103,A12FTSX85NQ8N9,3MQKOF1EF54KJDI76AN431783D3WDT,3VJ40NV2QM3MHC3WRG1BGV8VX9QTOS,3,4
104,2,object_03,object_09,689.40000000037,4,1,244.0,0.3333333333333333,2,object_01,1,1220,0,5,3,forest_7,1,memory-2step-stake-s,592,1704868,0.0-19.0-0.0-0.104,A12FTSX85NQ8N9,3MQKOF1EF54KJDI76AN431783D3WDT,3VJ40NV2QM3MHC3WRG1BGV8VX9QTOS,4,3
105,4,object_10,object_04,1348.3000000007,8,2,649.80000000075,0.7777777777777778,2,object_01,1,1227,0,4,7,restaurant_6,1,memory-2step-stake-s,593,1713438,0.0-19.0-0.0-0.105,A12FTSX85NQ8N9,3MQKOF1EF54KJDI76AN431783D3WDT,3VJ40NV2QM3MHC3WRG1BGV8VX9QTOS,7,8
106,1,object_06,object_05,-1.0,-1,-1,-1.0,0.0,-,0,5,1227,0,3,8,desert_1,1,memory-2step-stake-s,594,1719945,0.0-19.0-0.0-0.106,A12FTSX85NQ8N9,3MQKOF1EF54KJDI76AN431783D3WDT,3VJ40NV2QM3MHC3WRG1BGV8VX9QTOS,2,1
107,1,object_05,object_06,571.09999999963,1,1,399.09999999963,0.3333333333333333,1,object_08,1,1230,0,3,8,desert_1,1,memory-2step-stake-s,595,1727859,0.0-19.0-0.0-0.107,A12FTSX85NQ8N9,3MQKOF1EF54KJDI76AN431783D3WDT,3VJ40NV2QM3MHC3WRG1BGV8VX9QTOS,1,2
108,4,object_10,object_04,1102.6999999993,8,2,622.70000000112,0.8888888888888888,2,object_01,1,1238,0,1,8,restaurant_1,1,memory-2step-stake-s,596,1736503,0.0-19.0-0.0-0.108,A12FTSX85NQ8N9,3MQKOF1EF54KJDI76AN431783D3WDT,3VJ40NV2QM3MHC3WRG1BGV8VX9QTOS,7,8
109,3,object_02,object_07,1078.3999999985,5,2,352.5,0.1111111111111111,1,object_08,5,1243,0,1,7,library_1,1,memory-2step-stake-s,597,1744168,0.0-19.0-0.0-0.109,A12FTSX85NQ8N9,3MQKOF1EF54KJDI76AN431783D3WDT,3VJ40NV2QM3MHC3WRG1BGV8VX9QTOS,6,5
110,1,object_06,object_05,760.60000000149,1,2,452.29999999888,0.2222222222222222,1,object_08,1,1245,0,2,8,desert_1,1,memory-2step-stake-s,598,1752036,0.0-19.0-0.0-0.110,A12FTSX85NQ8N9,3MQKOF1EF54KJDI76AN431783D3WDT,3VJ40NV2QM3MHC3WRG1BGV8VX9QTOS,2,1
111,3,object_02,object_07,745.0,6,1,144.20000000112,0.7777777777777778,2,object_01,5,1280,0,2,7,library_3,1,memory-2step-stake-s,599,1760100,0.0-19.0-0.0-0.111,A12FTSX85NQ8N9,3MQKOF1EF54KJDI76AN431783D3WDT,3VJ40NV2QM3MHC3WRG1BGV8VX9QTOS,6,5
112,2,object_09,object_03,1429.8000000007,3,1,657.09999999963,0.2222222222222222,1,object_08,5,1290,0,2,9,forest_7,1,memory-2step-stake-s,600,1768172,0.0-19.0-0.0-0.112,A12FTSX85NQ8N9,3MQKOF1EF54KJDI76AN431783D3WDT,3VJ40NV2QM3MHC3WRG1BGV8VX9QTOS,3,4
113,4,object_10,object_04,1044.1999999993,8,2,624.70000000112,0.8888888888888888,2,object_01,5,1330,0,2,8,restaurant_1,1,memory-2step-stake-s,601,1776821,0.0-19.0-0.0-0.113,A12FTSX85NQ8N9,3MQKOF1EF54KJDI76AN431783D3WDT,3VJ40NV2QM3MHC3WRG1BGV8VX9QTOS,7,8
114,4,object_04,object_10,1393.4000000004,8,1,363.79999999888,0.8888888888888888,2,object_01,5,1370,0,1,8,restaurant_6,1,memory-2step-stake-s,602,1785206,0.0-19.0-0.0-0.114,A12FTSX85NQ8N9,3MQKOF1EF54KJDI76AN431783D3WDT,3VJ40NV2QM3MHC3WRG1BGV8VX9QTOS,8,7
115,1,object_06,object_05,1016.5999999996,1,2,707.69999999925,0.1111111111111111,1,object_08,5,1375,0,1,6,desert_2,1,memory-2step-stake-s,603,1793228,0.0-19.0-0.0-0.115,A12FTSX85NQ8N9,3MQKOF1EF54KJDI76AN431783D3WDT,3VJ40NV2QM3MHC3WRG1BGV8VX9QTOS,2,1
116,4,object_10,object_04,585.0,8,2,187.5,0.5555555555555556,2,object_01,5,1400,0,2,5,restaurant_6,1,memory-2step-stake-s,604,1801134,0.0-19.0-0.0-0.116,A12FTSX85NQ8N9,3MQKOF1EF54KJDI76AN431783D3WDT,3VJ40NV2QM3MHC3WRG1BGV8VX9QTOS,7,8
117,3,object_07,object_02,-1.0,-1,-1,-1.0,0.0,-,0,5,1400,0,2,5,library_1,1,memory-2step-stake-s,605,1807642,0.0-19.0-0.0-0.117,A12FTSX85NQ8N9,3MQKOF1EF54KJDI76AN431783D3WDT,3VJ40NV2QM3MHC3WRG1BGV8VX9QTOS,5,6
118,4,object_04,object_10,-1.0,-1,-1,-1.0,0.0,-,0,5,1400,0,1,8,restaurant_1,1,memory-2step-stake-s,606,1814151,0.0-19.0-0.0-0.118,A12FTSX85NQ8N9,3MQKOF1EF54KJDI76AN431783D3WDT,3VJ40NV2QM3MHC3WRG1BGV8VX9QTOS,8,7
119,2,object_03,object_09,576.89999999851,3,2,524.5,0.1111111111111111,1,object_08,5,1405,0,1,7,forest_5,1,memory-2step-stake-s,607,1821993,0.0-19.0-0.0-0.119,A12FTSX85NQ8N9,3MQKOF1EF54KJDI76AN431783D3WDT,3VJ40NV2QM3MHC3WRG1BGV8VX9QTOS,4,3
120,2,object_09,object_03,580.09999999963,3,1,191.09999999963,0.1111111111111111,1,object_08,1,1406,0,1,9,forest_7,1,memory-2step-stake-s,608,1829502,0.0-19.0-0.0-0.120,A12FTSX85NQ8N9,3MQKOF1EF54KJDI76AN431783D3WDT,3VJ40NV2QM3MHC3WRG1BGV8VX9QTOS,3,4
121,1,object_05,object_06,828.70000000112,1,1,173.0,0.2222222222222222,1,object_08,1,1408,0,2,9,desert_1,1,memory-2step-stake-s,609,1837093,0.0-19.0-0.0-0.121,A12FTSX85NQ8N9,3MQKOF1EF54KJDI76AN431783D3WDT,3VJ40NV2QM3MHC3WRG1BGV8VX9QTOS,1,2
122,1,object_06,object_05,880.90000000037,1,2,309.40000000037,0.0,1,object_08,1,1408,0,0,8,desert_5,1,memory-2step-stake-s,610,1844618,0.0-19.0-0.0-0.122,A12FTSX85NQ8N9,3MQKOF1EF54KJDI76AN431783D3WDT,3VJ40NV2QM3MHC3WRG1BGV8VX9QTOS,2,1
123,1,object_05,object_06,770.70000000112,1,1,544.69999999925,0.1111111111111111,1,object_08,1,1409,0,1,4,desert_5,1,memory-2step-stake-s,611,1852480,0.0-19.0-0.0-0.123,A12FTSX85NQ8N9,3MQKOF1EF54KJDI76AN431783D3WDT,3VJ40NV2QM3MHC3WRG1BGV8VX9QTOS,1,2
124,1,object_06,object_05,662.70000000112,1,2,901.5,0.2222222222222222,1,object_08,1,1411,0,2,3,desert_2,1,memory-2step-stake-s,612,1860799,0.0-19.0-0.0-0.124,A12FTSX85NQ8N9,3MQKOF1EF54KJDI76AN431783D3WDT,3VJ40NV2QM3MHC3WRG1BGV8VX9QTOS,2,1
125,1,object_05,object_06,759.0,2,2,231.70000000112,0.1111111111111111,2,object_01,1,1412,0,4,1,desert_2,1,memory-2step-stake-s,613,1868347,0.0-19.0-0.0-0.125,A12FTSX85NQ8N9,3MQKOF1EF54KJDI76AN431783D3WDT,3VJ40NV2QM3MHC3WRG1BGV8VX9QTOS,1,2
126,2,object_09,object_03,868.40000000037,4,2,623.40000000037,0.0,2,object_01,5,1412,0,3,0,forest_5,1,memory-2step-stake-s,614,1876186,0.0-19.0-0.0-0.126,A12FTSX85NQ8N9,3MQKOF1EF54KJDI76AN431783D3WDT,3VJ40NV2QM3MHC3WRG1BGV8VX9QTOS,3,4
127,2,object_09,object_03,887.5,4,2,507.40000000037,0.3333333333333333,2,object_01,1,1415,0,2,3,forest_3,1,memory-2step-stake-s,615,1884213,0.0-19.0-0.0-0.127,A12FTSX85NQ8N9,3MQKOF1EF54KJDI76AN431783D3WDT,3VJ40NV2QM3MHC3WRG1BGV8VX9QTOS,3,4
128,3,object_07,object_02,845.0,5,1,246.30000000075,0.4444444444444444,1,object_08,5,1435,0,4,3,library_1,1,memory-2step-stake-s,617,1893678,0.0-19.0-0.1-0.128,A12FTSX85NQ8N9,3MQKOF1EF54KJDI76AN431783D3WDT,3VJ40NV2QM3MHC3WRG1BGV8VX9QTOS,5,6
129,4,object_04,object_10,757.0,7,2,625.40000000037,0.7777777777777778,1,object_08,1,1442,0,7,3,restaurant_4,1,memory-2step-stake-s,618,1902226,0.0-19.0-0.1-0.129,A12FTSX85NQ8N9,3MQKOF1EF54KJDI76AN431783D3WDT,3VJ40NV2QM3MHC3WRG1BGV8VX9QTOS,8,7
130,4,object_04,object_10,769.5,8,1,543.69999999925,0.1111111111111111,2,object_01,5,1447,0,8,1,restaurant_5,1,memory-2step-stake-s,619,1910086,0.0-19.0-0.1-0.130,A12FTSX85NQ8N9,3MQKOF1EF54KJDI76AN431783D3WDT,3VJ40NV2QM3MHC3WRG1BGV8VX9QTOS,8,7
131,3,object_02,object_07,1105.0,5,2,331.20000000112,0.8888888888888888,1,object_08,5,1487,0,8,0,library_3,1,memory-2step-stake-s,620,1918444,0.0-19.0-0.1-0.131,A12FTSX85NQ8N9,3MQKOF1EF54KJDI76AN431783D3WDT,3VJ40NV2QM3MHC3WRG1BGV8VX9QTOS,6,5
132,2,object_03,object_09,521.0,4,1,498.40000000037,0.3333333333333333,2,object_01,5,1502,0,8,3,forest_5,1,memory-2step-stake-s,621,1926460,0.0-19.0-0.1-0.132,A12FTSX85NQ8N9,3MQKOF1EF54KJDI76AN431783D3WDT,3VJ40NV2QM3MHC3WRG1BGV8VX9QTOS,4,3
133,2,object_03,object_09,-1.0,-1,-1,-1.0,0.0,-,0,1,1502,0,8,1,forest_2,1,memory-2step-stake-s,622,1932972,0.0-19.0-0.1-0.133,A12FTSX85NQ8N9,3MQKOF1EF54KJDI76AN431783D3WDT,3VJ40NV2QM3MHC3WRG1BGV8VX9QTOS,4,3
134,3,object_07,object_02,1049.4000000004,5,1,206.90000000037,0.6666666666666666,1,object_08,5,1532,0,6,1,library_7,1,memory-2step-stake-s,623,1941001,0.0-19.0-0.1-0.134,A12FTSX85NQ8N9,3MQKOF1EF54KJDI76AN431783D3WDT,3VJ40NV2QM3MHC3WRG1BGV8VX9QTOS,5,6
135,4,object_10,object_04,50.800000000745,7,1,262.59999999963,0.4444444444444444,1,object_08,5,1552,0,4,1,restaurant_4,1,memory-2step-stake-s,624,1948884,0.0-19.0-0.1-0.135,A12FTSX85NQ8N9,3MQKOF1EF54KJDI76AN431783D3WDT,3VJ40NV2QM3MHC3WRG1BGV8VX9QTOS,7,8
136,1,object_06,object_05,1039.0,2,1,224.0,0.1111111111111111,2,object_01,5,1557,0,8,1,desert_5,1,memory-2step-stake-s,625,1956422,0.0-19.0-0.1-0.136,A12FTSX85NQ8N9,3MQKOF1EF54KJDI76AN431783D3WDT,3VJ40NV2QM3MHC3WRG1BGV8VX9QTOS,2,1
137,4,object_04,object_10,230.30000000075,8,1,370.89999999851,0.3333333333333333,2,object_01,5,1572,0,7,3,restaurant_1,1,memory-2step-stake-s,626,1964306,0.0-19.0-0.1-0.137,A12FTSX85NQ8N9,3MQKOF1EF54KJDI76AN431783D3WDT,3VJ40NV2QM3MHC3WRG1BGV8VX9QTOS,8,7
138,4,object_04,object_10,521.09999999963,8,1,-1.0,0.0,2,object_01,5,1572,0,6,2,restaurant_5,1,memory-2step-stake-s,627,1972816,0.0-19.0-0.1-0.138,A12FTSX85NQ8N9,3MQKOF1EF54KJDI76AN431783D3WDT,3VJ40NV2QM3MHC3WRG1BGV8VX9QTOS,8,7
139,3,object_07,object_02,1280.3999999985,5,1,-1.0,0.0,1,object_08,5,1572,0,8,1,library_5,1,memory-2step-stake-s,628,1981327,0.0-19.0-0.1-0.139,A12FTSX85NQ8N9,3MQKOF1EF54KJDI76AN431783D3WDT,3VJ40NV2QM3MHC3WRG1BGV8VX9QTOS,5,6
140,1,object_05,object_06,560.29999999888,2,2,331.70000000112,0.2222222222222222,2,object_01,1,1574,0,7,2,desert_5,1,memory-2step-stake-s,629,1989073,0.0-19.0-0.1-0.140,A12FTSX85NQ8N9,3MQKOF1EF54KJDI76AN431783D3WDT,3VJ40NV2QM3MHC3WRG1BGV8VX9QTOS,1,2
141,1,object_06,object_05,467.79999999888,2,1,930.80000000075,0.3333333333333333,2,object_01,1,1577,0,5,3,desert_3,1,memory-2step-stake-s,630,1997519,0.0-19.0-0.1-0.141,A12FTSX85NQ8N9,3MQKOF1EF54KJDI76AN431783D3WDT,3VJ40NV2QM3MHC3WRG1BGV8VX9QTOS,2,1
142,4,object_04,object_10,248.90000000037,8,1,752.09999999963,0.5555555555555556,2,object_01,1,1582,0,7,5,restaurant_1,1,memory-2step-stake-s,631,2005989,0.0-19.0-0.1-0.142,A12FTSX85NQ8N9,3MQKOF1EF54KJDI76AN431783D3WDT,3VJ40NV2QM3MHC3WRG1BGV8VX9QTOS,8,7
143,4,object_10,object_04,720.30000000075,7,1,619.40000000037,0.7777777777777778,1,object_08,5,1617,0,7,4,restaurant_5,1,memory-2step-stake-s,632,2014530,0.0-19.0-0.1-0.143,A12FTSX85NQ8N9,3MQKOF1EF54KJDI76AN431783D3WDT,3VJ40NV2QM3MHC3WRG1BGV8VX9QTOS,7,8
144,3,object_07,object_02,116.0,5,1,389.90000000037,0.8888888888888888,1,object_08,1,1625,0,8,5,library_7,1,memory-2step-stake-s,633,2022941,0.0-19.0-0.1-0.144,A12FTSX85NQ8N9,3MQKOF1EF54KJDI76AN431783D3WDT,3VJ40NV2QM3MHC3WRG1BGV8VX9QTOS,5,6
145,2,object_03,object_09,437.70000000112,4,1,644.40000000037,0.8888888888888888,2,object_01,1,1633,0,9,8,forest_7,1,memory-2step-stake-s,634,2031608,0.0-19.0-0.1-0.145,A12FTSX85NQ8N9,3MQKOF1EF54KJDI76AN431783D3WDT,3VJ40NV2QM3MHC3WRG1BGV8VX9QTOS,4,3
146,4,object_04,object_10,-1.0,-1,-1,-1.0,0.0,-,0,5,1633,0,9,6,restaurant_5,1,memory-2step-stake-s,635,2038116,0.0-19.0-0.1-0.146,A12FTSX85NQ8N9,3MQKOF1EF54KJDI76AN431783D3WDT,3VJ40NV2QM3MHC3WRG1BGV8VX9QTOS,8,7
147,3,object_02,object_07,612.70000000112,6,1,-1.0,0.0,2,object_01,5,1633,0,7,7,library_7,1,memory-2step-stake-s,636,2046627,0.0-19.0-0.1-0.147,A12FTSX85NQ8N9,3MQKOF1EF54KJDI76AN431783D3WDT,3VJ40NV2QM3MHC3WRG1BGV8VX9QTOS,6,5
148,1,object_05,object_06,1364.0999999996,1,1,1326.3999999985,0.7777777777777778,1,object_08,1,1640,0,7,6,desert_3,1,memory-2step-stake-s,637,2055873,0.0-19.0-0.1-0.148,A12FTSX85NQ8N9,3MQKOF1EF54KJDI76AN431783D3WDT,3VJ40NV2QM3MHC3WRG1BGV8VX9QTOS,1,2
149,3,object_07,object_02,-1.0,-1,-1,-1.0,0.0,-,0,5,1640,0,4,4,library_3,1,memory-2step-stake-s,638,2062381,0.0-19.0-0.1-0.149,A12FTSX85NQ8N9,3MQKOF1EF54KJDI76AN431783D3WDT,3VJ40NV2QM3MHC3WRG1BGV8VX9QTOS,5,6
150,2,object_03,object_09,630.20000000112,4,1,330.90000000037,0.6666666666666666,2,object_01,1,1646,0,2,6,forest_7,1,memory-2step-stake-s,639,2070530,0.0-19.0-0.1-0.150,A12FTSX85NQ8N9,3MQKOF1EF54KJDI76AN431783D3WDT,3VJ40NV2QM3MHC3WRG1BGV8VX9QTOS,4,3
151,3,object_02,object_07,264.59999999963,6,1,524.0,0.8888888888888888,2,object_01,5,1686,0,4,8,library_3,1,memory-2step-stake-s,640,2079077,0.0-19.0-0.1-0.151,A12FTSX85NQ8N9,3MQKOF1EF54KJDI76AN431783D3WDT,3VJ40NV2QM3MHC3WRG1BGV8VX9QTOS,6,5
152,3,object_02,object_07,757.59999999963,6,1,571.40000000037,1.0,2,object_01,5,1731,0,5,9,library_5,1,memory-2step-stake-s,641,2087775,0.0-19.0-0.1-0.152,A12FTSX85NQ8N9,3MQKOF1EF54KJDI76AN431783D3WDT,3VJ40NV2QM3MHC3WRG1BGV8VX9QTOS,6,5
153,1,object_05,object_06,646.10000000149,1,1,1170.8999999985,0.3333333333333333,1,object_08,1,1734,0,3,7,desert_1,1,memory-2step-stake-s,642,2096462,0.0-19.0-0.1-0.153,A12FTSX85NQ8N9,3MQKOF1EF54KJDI76AN431783D3WDT,3VJ40NV2QM3MHC3WRG1BGV8VX9QTOS,1,2
154,1,object_05,object_06,688.0,1,1,573.89999999851,0.4444444444444444,1,object_08,5,1754,0,4,6,desert_2,1,memory-2step-stake-s,643,2104654,0.0-19.0-0.1-0.154,A12FTSX85NQ8N9,3MQKOF1EF54KJDI76AN431783D3WDT,3VJ40NV2QM3MHC3WRG1BGV8VX9QTOS,1,2
155,4,object_04,object_10,-1.0,-1,-1,-1.0,0.0,-,0,5,1754,0,4,7,restaurant_6,1,memory-2step-stake-s,644,2111163,0.0-19.0-0.1-0.155,A12FTSX85NQ8N9,3MQKOF1EF54KJDI76AN431783D3WDT,3VJ40NV2QM3MHC3WRG1BGV8VX9QTOS,8,7
156,2,object_03,object_09,679.20000000112,4,1,-1.0,0.0,2,object_01,1,1754,0,1,5,forest_3,1,memory-2step-stake-s,645,2119677,0.0-19.0-0.1-0.156,A12FTSX85NQ8N9,3MQKOF1EF54KJDI76AN431783D3WDT,3VJ40NV2QM3MHC3WRG1BGV8VX9QTOS,4,3
157,4,object_04,object_10,80.200000001118,8,1,66.800000000745,0.3333333333333333,2,object_01,5,1769,0,1,3,restaurant_5,1,memory-2step-stake-s,646,2127261,0.0-19.0-0.1-0.157,A12FTSX85NQ8N9,3MQKOF1EF54KJDI76AN431783D3WDT,3VJ40NV2QM3MHC3WRG1BGV8VX9QTOS,8,7
158,4,object_04,object_10,295.09999999963,8,1,1251.8999999985,0.3333333333333333,2,object_01,1,1772,0,0,3,restaurant_6,1,memory-2step-stake-s,647,2136029,0.0-19.0-0.1-0.158,A12FTSX85NQ8N9,3MQKOF1EF54KJDI76AN431783D3WDT,3VJ40NV2QM3MHC3WRG1BGV8VX9QTOS,8,7
159,4,object_04,object_10,223.29999999888,8,1,722.69999999925,0.4444444444444444,2,object_01,5,1792,0,1,4,restaurant_5,1,memory-2step-stake-s,648,2144371,0.0-19.0-0.1-0.159,A12FTSX85NQ8N9,3MQKOF1EF54KJDI76AN431783D3WDT,3VJ40NV2QM3MHC3WRG1BGV8VX9QTOS,8,7
160,3,object_07,object_02,119.79999999888,5,1,130.0,0.3333333333333333,1,object_08,5,1807,0,3,3,library_3,1,memory-2step-stake-s,649,2152019,0.0-19.0-0.1-0.160,A12FTSX85NQ8N9,3MQKOF1EF54KJDI76AN431783D3WDT,3VJ40NV2QM3MHC3WRG1BGV8VX9QTOS,5,6
161,3,object_07,object_02,1252.4000000004,5,1,786.19999999925,0.2222222222222222,1,object_08,1,1809,0,2,0,library_7,1,memory-2step-stake-s,650,2160223,0.0-19.0-0.1-0.161,A12FTSX85NQ8N9,3MQKOF1EF54KJDI76AN431783D3WDT,3VJ40NV2QM3MHC3WRG1BGV8VX9QTOS,5,6
162,2,object_03,object_09,480.69999999925,4,1,440.10000000149,0.1111111111111111,2,object_01,1,1810,0,5,1,forest_5,1,memory-2step-stake-s,651,2167981,0.0-19.0-0.1-0.162,A12FTSX85NQ8N9,3MQKOF1EF54KJDI76AN431783D3WDT,3VJ40NV2QM3MHC3WRG1BGV8VX9QTOS,4,3
163,3,object_02,object_07,-1.0,-1,-1,-1.0,0.0,-,0,5,1810,0,3,2,library_3,1,memory-2step-stake-s,652,2174490,0.0-19.0-0.1-0.163,A12FTSX85NQ8N9,3MQKOF1EF54KJDI76AN431783D3WDT,3VJ40NV2QM3MHC3WRG1BGV8VX9QTOS,6,5
164,4,object_04,object_10,33.5,8,1,371.40000000037,0.2222222222222222,2,object_01,5,1820,0,2,2,restaurant_4,1,memory-2step-stake-s,653,2182277,0.0-19.0-0.1-0.164,A12FTSX85NQ8N9,3MQKOF1EF54KJDI76AN431783D3WDT,3VJ40NV2QM3MHC3WRG1BGV8VX9QTOS,8,7
165,1,object_05,object_06,505.10000000149,2,2,323.19999999925,0.1111111111111111,2,object_01,1,1821,0,5,1,desert_3,1,memory-2step-stake-s,654,2189915,0.0-19.0-0.1-0.165,A12FTSX85NQ8N9,3MQKOF1EF54KJDI76AN431783D3WDT,3VJ40NV2QM3MHC3WRG1BGV8VX9QTOS,1,2
166,3,object_07,object_02,463.39999999851,5,1,934.5,0.4444444444444444,1,object_08,5,1841,0,4,1,library_5,1,memory-2step-stake-s,655,2198469,0.0-19.0-0.1-0.166,A12FTSX85NQ8N9,3MQKOF1EF54KJDI76AN431783D3WDT,3VJ40NV2QM3MHC3WRG1BGV8VX9QTOS,5,6
167,2,object_09,object_03,275.0,3,1,317.90000000037,0.2222222222222222,1,object_08,1,1843,0,2,0,forest_7,1,memory-2step-stake-s,656,2206206,0.0-19.0-0.1-0.167,A12FTSX85NQ8N9,3MQKOF1EF54KJDI76AN431783D3WDT,3VJ40NV2QM3MHC3WRG1BGV8VX9QTOS,3,4
168,4,object_10,object_04,1349.0999999996,7,1,444.40000000037,0.2222222222222222,1,object_08,5,1853,0,2,1,restaurant_6,1,memory-2step-stake-s,657,2214070,0.0-19.0-0.1-0.168,A12FTSX85NQ8N9,3MQKOF1EF54KJDI76AN431783D3WDT,3VJ40NV2QM3MHC3WRG1BGV8VX9QTOS,7,8
169,3,object_02,object_07,854.10000000149,6,1,442.19999999925,0.1111111111111111,2,object_01,5,1858,0,1,1,library_3,1,memory-2step-stake-s,658,2221828,0.0-19.0-0.1-0.169,A12FTSX85NQ8N9,3MQKOF1EF54KJDI76AN431783D3WDT,3VJ40NV2QM3MHC3WRG1BGV8VX9QTOS,6,5
170,4,object_04,object_10,-1.0,-1,-1,-1.0,0.0,-,0,5,1858,0,1,0,restaurant_4,1,memory-2step-stake-s,659,2228337,0.0-19.0-0.1-0.170,A12FTSX85NQ8N9,3MQKOF1EF54KJDI76AN431783D3WDT,3VJ40NV2QM3MHC3WRG1BGV8VX9QTOS,8,7
171,2,object_03,object_09,348.39999999851,4,1,446.19999999925,0.0,2,object_01,1,1858,0,0,0,forest_2,1,memory-2step-stake-s,660,2235997,0.0-19.0-0.1-0.171,A12FTSX85NQ8N9,3MQKOF1EF54KJDI76AN431783D3WDT,3VJ40NV2QM3MHC3WRG1BGV8VX9QTOS,4,3
172,4,object_04,object_10,444.5,8,1,967.79999999888,0.2222222222222222,2,object_01,5,1868,0,0,2,restaurant_6,1,memory-2step-stake-s,661,2244383,0.0-19.0-0.1-0.172,A12FTSX85NQ8N9,3MQKOF1EF54KJDI76AN431783D3WDT,3VJ40NV2QM3MHC3WRG1BGV8VX9QTOS,8,7
173,1,object_05,object_06,545.59999999963,1,1,1167.4000000004,0.3333333333333333,1,object_08,1,1871,0,3,0,desert_2,1,memory-2step-stake-s,662,2253070,0.0-19.0-0.1-0.173,A12FTSX85NQ8N9,3MQKOF1EF54KJDI76AN431783D3WDT,3VJ40NV2QM3MHC3WRG1BGV8VX9QTOS,1,2
174,4,object_10,object_04,700.60000000149,7,1,91.300000000745,0.0,1,object_08,5,1871,0,0,1,restaurant_4,1,memory-2step-stake-s,663,2260380,0.0-19.0-0.1-0.174,A12FTSX85NQ8N9,3MQKOF1EF54KJDI76AN431783D3WDT,3VJ40NV2QM3MHC3WRG1BGV8VX9QTOS,7,8
175,3,object_07,object_02,507.69999999925,6,2,588.59999999963,0.2222222222222222,2,object_01,1,1873,0,0,2,library_1,1,memory-2step-stake-s,664,2268388,0.0-19.0-0.1-0.175,A12FTSX85NQ8N9,3MQKOF1EF54KJDI76AN431783D3WDT,3VJ40NV2QM3MHC3WRG1BGV8VX9QTOS,5,6
176,3,object_07,object_02,541.59999999963,6,2,948.90000000037,0.4444444444444444,2,object_01,5,1893,0,0,4,library_3,1,memory-2step-stake-s,665,2276957,0.0-19.0-0.1-0.176,A12FTSX85NQ8N9,3MQKOF1EF54KJDI76AN431783D3WDT,3VJ40NV2QM3MHC3WRG1BGV8VX9QTOS,5,6
177,2,object_09,object_03,593.69999999925,3,1,796.09999999963,0.0,1,object_08,1,1893,0,0,3,forest_3,1,memory-2step-stake-s,666,2284969,0.0-19.0-0.1-0.177,A12FTSX85NQ8N9,3MQKOF1EF54KJDI76AN431783D3WDT,3VJ40NV2QM3MHC3WRG1BGV8VX9QTOS,3,4
178,1,object_06,object_05,1004.0,1,2,735.40000000037,0.0,1,object_08,1,1893,0,0,7,desert_1,1,memory-2step-stake-s,667,2292920,0.0-19.0-0.1-0.178,A12FTSX85NQ8N9,3MQKOF1EF54KJDI76AN431783D3WDT,3VJ40NV2QM3MHC3WRG1BGV8VX9QTOS,2,1
179,3,object_02,object_07,999.09999999963,6,1,1119.1999999993,0.8888888888888888,2,object_01,5,1933,0,2,8,library_1,1,memory-2step-stake-s,668,2302063,0.0-19.0-0.1-0.179,A12FTSX85NQ8N9,3MQKOF1EF54KJDI76AN431783D3WDT,3VJ40NV2QM3MHC3WRG1BGV8VX9QTOS,6,5
180,1,object_05,object_06,570.30000000075,1,1,-1.0,0.0,1,object_08,1,1933,0,0,4,desert_2,1,memory-2step-stake-s,669,2310580,0.0-19.0-0.1-0.180,A12FTSX85NQ8N9,3MQKOF1EF54KJDI76AN431783D3WDT,3VJ40NV2QM3MHC3WRG1BGV8VX9QTOS,1,2
181,1,object_05,object_06,854.39999999851,2,2,-1.0,0.0,2,object_01,1,1933,0,1,5,desert_5,1,memory-2step-stake-s,670,2319091,0.0-19.0-0.1-0.181,A12FTSX85NQ8N9,3MQKOF1EF54KJDI76AN431783D3WDT,3VJ40NV2QM3MHC3WRG1BGV8VX9QTOS,1,2
182,4,object_10,object_04,947.79999999888,7,1,957.60000000149,0.3333333333333333,1,object_08,5,1948,0,3,8,restaurant_1,1,memory-2step-stake-s,671,2327564,0.0-19.0-0.1-0.182,A12FTSX85NQ8N9,3MQKOF1EF54KJDI76AN431783D3WDT,3VJ40NV2QM3MHC3WRG1BGV8VX9QTOS,7,8
183,3,object_07,object_02,544.19999999925,6,2,1044.6000000015,0.7777777777777778,2,object_01,5,1983,0,1,7,library_3,1,memory-2step-stake-s,672,2336529,0.0-19.0-0.1-0.183,A12FTSX85NQ8N9,3MQKOF1EF54KJDI76AN431783D3WDT,3VJ40NV2QM3MHC3WRG1BGV8VX9QTOS,5,6
184,1,object_06,object_05,742.09999999963,2,1,812.80000000075,0.6666666666666666,2,object_01,1,1989,0,0,6,desert_1,1,memory-2step-stake-s,673,2345158,0.0-19.0-0.1-0.184,A12FTSX85NQ8N9,3MQKOF1EF54KJDI76AN431783D3WDT,3VJ40NV2QM3MHC3WRG1BGV8VX9QTOS,2,1
185,1,object_06,object_05,669.90000000037,2,1,1089.9000000004,0.7777777777777778,2,object_01,1,1996,0,2,7,desert_2,1,memory-2step-stake-s,674,2354167,0.0-19.0-0.1-0.185,A12FTSX85NQ8N9,3MQKOF1EF54KJDI76AN431783D3WDT,3VJ40NV2QM3MHC3WRG1BGV8VX9QTOS,2,1
186,3,object_07,object_02,713.30000000075,5,1,1007.3000000007,0.1111111111111111,1,object_08,5,2001,0,1,7,library_3,1,memory-2step-stake-s,675,2362489,0.0-19.0-0.1-0.186,A12FTSX85NQ8N9,3MQKOF1EF54KJDI76AN431783D3WDT,3VJ40NV2QM3MHC3WRG1BGV8VX9QTOS,5,6
187,4,object_10,object_04,867.60000000149,7,1,-1.0,0.0,1,object_08,5,2001,0,5,6,restaurant_4,1,memory-2step-stake-s,676,2371000,0.0-19.0-0.1-0.187,A12FTSX85NQ8N9,3MQKOF1EF54KJDI76AN431783D3WDT,3VJ40NV2QM3MHC3WRG1BGV8VX9QTOS,7,8
188,3,object_07,object_02,805.40000000037,5,1,839.80000000075,0.7777777777777778,1,object_08,5,2036,0,7,5,library_7,1,memory-2step-stake-s,677,2379760,0.0-19.0-0.1-0.188,A12FTSX85NQ8N9,3MQKOF1EF54KJDI76AN431783D3WDT,3VJ40NV2QM3MHC3WRG1BGV8VX9QTOS,5,6
189,2,object_03,object_09,839.69999999925,4,1,475.70000000112,0.6666666666666666,2,object_01,1,2042,0,6,6,forest_2,1,memory-2step-stake-s,678,2388054,0.0-19.0-0.1-0.189,A12FTSX85NQ8N9,3MQKOF1EF54KJDI76AN431783D3WDT,3VJ40NV2QM3MHC3WRG1BGV8VX9QTOS,4,3
190,4,object_04,object_10,815.30000000075,7,2,-1.0,0.0,1,object_08,5,2042,0,4,7,restaurant_1,1,memory-2step-stake-s,679,2396571,0.0-19.0-0.1-0.190,A12FTSX85NQ8N9,3MQKOF1EF54KJDI76AN431783D3WDT,3VJ40NV2QM3MHC3WRG1BGV8VX9QTOS,8,7
191,4,object_10,object_04,1011.5999999996,7,1,342.30000000075,0.7777777777777778,1,object_08,5,2077,0,7,3,restaurant_1,1,memory-2step-stake-s,680,2404832,0.0-19.0-0.1-0.191,A12FTSX85NQ8N9,3MQKOF1EF54KJDI76AN431783D3WDT,3VJ40NV2QM3MHC3WRG1BGV8VX9QTOS,7,8
192,2,object_03,object_09,1141.1000000015,4,1,336.90000000037,0.2222222222222222,2,object_01,5,2087,0,6,2,forest_2,1,memory-2step-stake-s,681,2412583,0.0-19.0-0.1-0.192,A12FTSX85NQ8N9,3MQKOF1EF54KJDI76AN431783D3WDT,3VJ40NV2QM3MHC3WRG1BGV8VX9QTOS,4,3
193,1,object_05,object_06,1256.4000000004,1,1,322.80000000075,1.0,1,object_08,5,2132,0,9,1,desert_1,1,memory-2step-stake-s,682,2421032,0.0-19.0-0.1-0.193,A12FTSX85NQ8N9,3MQKOF1EF54KJDI76AN431783D3WDT,3VJ40NV2QM3MHC3WRG1BGV8VX9QTOS,1,2
194,2,object_03,object_09,-1.0,-1,-1,-1.0,0.0,-,0,1,2132,0,5,4,forest_2,1,memory-2step-stake-s,683,2427540,0.0-19.0-0.1-0.194,A12FTSX85NQ8N9,3MQKOF1EF54KJDI76AN431783D3WDT,3VJ40NV2QM3MHC3WRG1BGV8VX9QTOS,4,3
195,3,object_07,object_02,400.80000000075,5,1,299.70000000112,0.4444444444444444,1,object_08,5,2152,0,4,6,library_1,1,memory-2step-stake-s,684,2435458,0.0-19.0-0.1-0.195,A12FTSX85NQ8N9,3MQKOF1EF54KJDI76AN431783D3WDT,3VJ40NV2QM3MHC3WRG1BGV8VX9QTOS,5,6
196,1,object_06,object_05,969.0,2,1,530.30000000075,0.8888888888888888,2,object_01,1,2160,0,2,8,desert_3,1,memory-2step-stake-s,685,2444010,0.0-19.0-0.1-0.196,A12FTSX85NQ8N9,3MQKOF1EF54KJDI76AN431783D3WDT,3VJ40NV2QM3MHC3WRG1BGV8VX9QTOS,2,1
197,2,object_03,object_09,663.90000000037,4,1,360.09999999963,0.6666666666666666,2,object_01,1,2166,0,1,6,forest_7,1,memory-2step-stake-s,686,2452190,0.0-19.0-0.1-0.197,A12FTSX85NQ8N9,3MQKOF1EF54KJDI76AN431783D3WDT,3VJ40NV2QM3MHC3WRG1BGV8VX9QTOS,4,3
198,4,object_04,object_10,548.29999999888,8,1,249.70000000112,1.0,2,object_01,5,2211,0,1,9,restaurant_5,1,memory-2step-stake-s,687,2460564,0.0-19.0-0.1-0.198,A12FTSX85NQ8N9,3MQKOF1EF54KJDI76AN431783D3WDT,3VJ40NV2QM3MHC3WRG1BGV8VX9QTOS,8,7
199,1,object_06,object_05,534.40000000037,2,1,411.89999999851,0.6666666666666666,2,object_01,1,2217,0,1,6,desert_5,1,memory-2step-stake-s,688,2468797,0.0-19.0-0.1-0.199,A12FTSX85NQ8N9,3MQKOF1EF54KJDI76AN431783D3WDT,3VJ40NV2QM3MHC3WRG1BGV8VX9QTOS,2,1
200,3,object_02,object_07,845.80000000075,5,2,245.70000000112,0.0,1,object_08,5,2217,0,0,8,library_7,1,memory-2step-stake-s,689,2476257,0.0-19.0-0.1-0.200,A12FTSX85NQ8N9,3MQKOF1EF54KJDI76AN431783D3WDT,3VJ40NV2QM3MHC3WRG1BGV8VX9QTOS,6,5
201,2,object_09,object_03,717.40000000037,4,2,-1.0,0.0,2,object_01,1,2217,0,1,9,forest_7,1,memory-2step-stake-s,690,2484772,0.0-19.0-0.1-0.201,A12FTSX85NQ8N9,3MQKOF1EF54KJDI76AN431783D3WDT,3VJ40NV2QM3MHC3WRG1BGV8VX9QTOS,3,4
202,3,object_07,object_02,686.19999999925,5,1,295.30000000075,0.1111111111111111,1,object_08,5,2222,0,1,9,library_5,1,memory-2step-stake-s,691,2492383,0.0-19.0-0.1-0.202,A12FTSX85NQ8N9,3MQKOF1EF54KJDI76AN431783D3WDT,3VJ40NV2QM3MHC3WRG1BGV8VX9QTOS,5,6
203,2,object_03,object_09,563.0,4,1,1310.9000000004,1.0,2,object_01,1,2231,0,1,9,forest_7,1,memory-2step-stake-s,692,2501817,0.0-19.0-0.1-0.203,A12FTSX85NQ8N9,3MQKOF1EF54KJDI76AN431783D3WDT,3VJ40NV2QM3MHC3WRG1BGV8VX9QTOS,4,3
204,2,object_09,object_03,-1.0,-1,-1,-1.0,0.0,-,0,1,2231,0,1,6,forest_5,1,memory-2step-stake-s,693,2508326,0.0-19.0-0.1-0.204,A12FTSX85NQ8N9,3MQKOF1EF54KJDI76AN431783D3WDT,3VJ40NV2QM3MHC3WRG1BGV8VX9QTOS,3,4
205,1,object_05,object_06,461.80000000075,1,1,301.19999999925,0.2222222222222222,1,object_08,1,2233,0,2,5,desert_5,1,memory-2step-stake-s,694,2516046,0.0-19.0-0.1-0.205,A12FTSX85NQ8N9,3MQKOF1EF54KJDI76AN431783D3WDT,3VJ40NV2QM3MHC3WRG1BGV8VX9QTOS,1,2
206,1,object_05,object_06,-1.0,-1,-1,-1.0,0.0,-,0,1,2233,0,6,5,desert_5,1,memory-2step-stake-s,695,2522554,0.0-19.0-0.1-0.206,A12FTSX85NQ8N9,3MQKOF1EF54KJDI76AN431783D3WDT,3VJ40NV2QM3MHC3WRG1BGV8VX9QTOS,1,2
207,2,object_09,object_03,524.60000000149,4,2,203.19999999925,0.5555555555555556,2,object_01,1,2238,0,5,5,forest_2,1,memory-2step-stake-s,696,2530479,0.0-19.0-0.1-0.207,A12FTSX85NQ8N9,3MQKOF1EF54KJDI76AN431783D3WDT,3VJ40NV2QM3MHC3WRG1BGV8VX9QTOS,3,4
208,3,object_07,object_02,705.59999999963,5,1,242.79999999888,0.4444444444444444,1,object_08,5,2258,0,4,2,library_1,1,memory-2step-stake-s,697,2538340,0.0-19.0-0.1-0.208,A12FTSX85NQ8N9,3MQKOF1EF54KJDI76AN431783D3WDT,3VJ40NV2QM3MHC3WRG1BGV8VX9QTOS,5,6
209,2,object_09,object_03,1019.3000000007,4,2,231.5,0.2222222222222222,2,object_01,1,2260,0,4,2,forest_5,1,memory-2step-stake-s,698,2545987,0.0-19.0-0.1-0.209,A12FTSX85NQ8N9,3MQKOF1EF54KJDI76AN431783D3WDT,3VJ40NV2QM3MHC3WRG1BGV8VX9QTOS,3,4
210,4,object_04,object_10,-1.0,-1,-1,-1.0,0.0,-,0,5,2260,0,6,2,restaurant_5,1,memory-2step-stake-s,699,2552496,0.0-19.0-0.1-0.210,A12FTSX85NQ8N9,3MQKOF1EF54KJDI76AN431783D3WDT,3VJ40NV2QM3MHC3WRG1BGV8VX9QTOS,8,7
211,3,object_07,object_02,143.80000000075,5,1,-1.0,0.0,1,object_08,5,2260,0,8,3,library_7,1,memory-2step-stake-s,700,2561011,0.0-19.0-0.1-0.211,A12FTSX85NQ8N9,3MQKOF1EF54KJDI76AN431783D3WDT,3VJ40NV2QM3MHC3WRG1BGV8VX9QTOS,5,6
212,3,object_07,object_02,-1.0,-1,-1,-1.0,0.0,-,0,1,2260,0,6,5,library_1,1,memory-2step-stake-s,701,2567520,0.0-19.0-0.1-0.212,A12FTSX85NQ8N9,3MQKOF1EF54KJDI76AN431783D3WDT,3VJ40NV2QM3MHC3WRG1BGV8VX9QTOS,5,6
213,1,object_05,object_06,234.89999999851,1,1,-1.0,0.0,1,object_08,1,2260,0,4,6,desert_5,1,memory-2step-stake-s,702,2576036,0.0-19.0-0.1-0.213,A12FTSX85NQ8N9,3MQKOF1EF54KJDI76AN431783D3WDT,3VJ40NV2QM3MHC3WRG1BGV8VX9QTOS,1,2
214,3,object_02,object_07,562.20000000112,5,2,342.29999999888,0.1111111111111111,1,object_08,5,2265,0,1,5,library_7,1,memory-2step-stake-s,703,2583692,0.0-19.0-0.1-0.214,A12FTSX85NQ8N9,3MQKOF1EF54KJDI76AN431783D3WDT,3VJ40NV2QM3MHC3WRG1BGV8VX9QTOS,6,5
215,1,object_06,object_05,718.40000000037,2,1,-1.0,0.0,2,object_01,1,2265,0,0,8,desert_5,1,memory-2step-stake-s,704,2592207,0.0-19.0-0.1-0.215,A12FTSX85NQ8N9,3MQKOF1EF54KJDI76AN431783D3WDT,3VJ40NV2QM3MHC3WRG1BGV8VX9QTOS,2,1
216,2,object_09,object_03,632.09999999963,4,2,696.60000000149,0.6666666666666666,2,object_01,1,2271,0,3,6,forest_7,1,memory-2step-stake-s,705,2600725,0.0-19.0-0.1-0.216,A12FTSX85NQ8N9,3MQKOF1EF54KJDI76AN431783D3WDT,3VJ40NV2QM3MHC3WRG1BGV8VX9QTOS,3,4
217,1,object_05,object_06,407.60000000149,2,2,383.90000000037,0.4444444444444444,2,object_01,1,2275,0,5,4,desert_3,1,memory-2step-stake-s,706,2608728,0.0-19.0-0.1-0.217,A12FTSX85NQ8N9,3MQKOF1EF54KJDI76AN431783D3WDT,3VJ40NV2QM3MHC3WRG1BGV8VX9QTOS,1,2
218,4,object_04,object_10,840.39999999851,7,2,517.19999999925,0.5555555555555556,1,object_08,1,2280,0,5,7,restaurant_4,1,memory-2step-stake-s,707,2616966,0.0-19.0-0.1-0.218,A12FTSX85NQ8N9,3MQKOF1EF54KJDI76AN431783D3WDT,3VJ40NV2QM3MHC3WRG1BGV8VX9QTOS,8,7
219,2,object_03,object_09,465.30000000075,4,1,307.70000000112,0.7777777777777778,2,object_01,1,2287,0,5,7,forest_2,1,memory-2step-stake-s,708,2625197,0.0-19.0-0.1-0.219,A12FTSX85NQ8N9,3MQKOF1EF54KJDI76AN431783D3WDT,3VJ40NV2QM3MHC3WRG1BGV8VX9QTOS,4,3
220,2,object_03,object_09,451.60000000149,4,1,-1.0,0.0,2,object_01,5,2287,0,4,8,forest_2,1,memory-2step-stake-s,709,2633728,0.0-19.0-0.1-0.220,A12FTSX85NQ8N9,3MQKOF1EF54KJDI76AN431783D3WDT,3VJ40NV2QM3MHC3WRG1BGV8VX9QTOS,4,3
221,2,object_09,object_03,528.80000000075,4,2,243.70000000112,0.8888888888888888,2,object_01,5,2327,0,2,8,forest_3,1,memory-2step-stake-s,710,2641994,0.0-19.0-0.1-0.221,A12FTSX85NQ8N9,3MQKOF1EF54KJDI76AN431783D3WDT,3VJ40NV2QM3MHC3WRG1BGV8VX9QTOS,3,4
222,3,object_02,object_07,920.29999999888,5,2,375.5,0.3333333333333333,1,object_08,5,2342,0,3,9,library_3,1,memory-2step-stake-s,711,2649883,0.0-19.0-0.1-0.222,A12FTSX85NQ8N9,3MQKOF1EF54KJDI76AN431783D3WDT,3VJ40NV2QM3MHC3WRG1BGV8VX9QTOS,6,5
223,2,object_09,object_03,-1.0,-1,-1,-1.0,0.0,-,0,1,2342,0,6,7,forest_5,1,memory-2step-stake-s,712,2656392,0.0-19.0-0.1-0.223,A12FTSX85NQ8N9,3MQKOF1EF54KJDI76AN431783D3WDT,3VJ40NV2QM3MHC3WRG1BGV8VX9QTOS,3,4
224,4,object_10,object_04,479.19999999925,7,1,210.60000000149,0.6666666666666666,1,object_08,1,2348,0,6,7,restaurant_6,1,memory-2step-stake-s,713,2664421,0.0-19.0-0.1-0.224,A12FTSX85NQ8N9,3MQKOF1EF54KJDI76AN431783D3WDT,3VJ40NV2QM3MHC3WRG1BGV8VX9QTOS,7,8
225,4,object_04,object_10,558.5,7,2,-1.0,0.0,1,object_08,5,2348,0,1,5,restaurant_5,1,memory-2step-stake-s,714,2672933,0.0-19.0-0.1-0.225,A12FTSX85NQ8N9,3MQKOF1EF54KJDI76AN431783D3WDT,3VJ40NV2QM3MHC3WRG1BGV8VX9QTOS,8,7
226,1,object_06,object_05,754.40000000037,2,1,969.90000000037,0.5555555555555556,2,object_01,1,2353,0,1,5,desert_5,1,memory-2step-stake-s,715,2681619,0.0-19.0-0.1-0.226,A12FTSX85NQ8N9,3MQKOF1EF54KJDI76AN431783D3WDT,3VJ40NV2QM3MHC3WRG1BGV8VX9QTOS,2,1
227,4,object_04,object_10,536.09999999963,8,1,481.69999999925,0.7777777777777778,2,object_01,5,2388,0,2,7,restaurant_4,1,memory-2step-stake-s,716,2690018,0.0-19.0-0.1-0.227,A12FTSX85NQ8N9,3MQKOF1EF54KJDI76AN431783D3WDT,3VJ40NV2QM3MHC3WRG1BGV8VX9QTOS,8,7
228,1,object_05,object_06,492.69999999925,1,1,782.30000000075,0.4444444444444444,1,object_08,1,2392,0,4,7,desert_3,1,memory-2step-stake-s,717,2698417,0.0-19.0-0.1-0.228,A12FTSX85NQ8N9,3MQKOF1EF54KJDI76AN431783D3WDT,3VJ40NV2QM3MHC3WRG1BGV8VX9QTOS,1,2
229,3,object_02,object_07,-1.0,-1,-1,-1.0,0.0,-,0,1,2392,0,2,9,library_7,1,memory-2step-stake-s,718,2704925,0.0-19.0-0.1-0.229,A12FTSX85NQ8N9,3MQKOF1EF54KJDI76AN431783D3WDT,3VJ40NV2QM3MHC3WRG1BGV8VX9QTOS,6,5
230,4,object_04,object_10,540.5,8,1,392.59999999963,0.7777777777777778,2,object_01,5,2427,0,3,7,restaurant_6,1,memory-2step-stake-s,719,2713236,0.0-19.0-0.1-0.230,A12FTSX85NQ8N9,3MQKOF1EF54KJDI76AN431783D3WDT,3VJ40NV2QM3MHC3WRG1BGV8VX9QTOS,8,7
231,3,object_07,object_02,564.70000000112,5,1,256.0,0.5555555555555556,1,object_08,5,2452,0,5,6,library_5,1,memory-2step-stake-s,720,2721210,0.0-19.0-0.1-0.231,A12FTSX85NQ8N9,3MQKOF1EF54KJDI76AN431783D3WDT,3VJ40NV2QM3MHC3WRG1BGV8VX9QTOS,5,6
232,2,object_09,object_03,888.80000000075,4,2,233.19999999925,0.3333333333333333,2,object_01,1,2455,0,1,3,forest_2,1,memory-2step-stake-s,721,2728959,0.0-19.0-0.1-0.232,A12FTSX85NQ8N9,3MQKOF1EF54KJDI76AN431783D3WDT,3VJ40NV2QM3MHC3WRG1BGV8VX9QTOS,3,4
233,3,object_07,object_02,110.90000000037,5,1,203.09999999963,0.1111111111111111,1,object_08,1,2456,0,1,6,library_1,1,memory-2step-stake-s,722,2736476,0.0-19.0-0.1-0.233,A12FTSX85NQ8N9,3MQKOF1EF54KJDI76AN431783D3WDT,3VJ40NV2QM3MHC3WRG1BGV8VX9QTOS,5,6
234,1,object_06,object_05,386.30000000075,2,1,441.59999999963,0.8888888888888888,2,object_01,1,2464,0,4,8,desert_3,1,memory-2step-stake-s,723,2744938,0.0-19.0-0.1-0.234,A12FTSX85NQ8N9,3MQKOF1EF54KJDI76AN431783D3WDT,3VJ40NV2QM3MHC3WRG1BGV8VX9QTOS,2,1
235,2,object_09,object_03,844.90000000037,4,2,501.80000000075,0.7777777777777778,2,object_01,1,2471,0,4,7,forest_2,1,memory-2step-stake-s,724,2753361,0.0-19.0-0.1-0.235,A12FTSX85NQ8N9,3MQKOF1EF54KJDI76AN431783D3WDT,3VJ40NV2QM3MHC3WRG1BGV8VX9QTOS,3,4
236,2,object_03,object_09,889.79999999888,4,1,310.39999999851,0.7777777777777778,2,object_01,1,2478,0,4,7,forest_7,1,memory-2step-stake-s,725,2761592,0.0-19.0-0.1-0.236,A12FTSX85NQ8N9,3MQKOF1EF54KJDI76AN431783D3WDT,3VJ40NV2QM3MHC3WRG1BGV8VX9QTOS,4,3
237,4,object_04,object_10,352.19999999925,8,1,430.0,1.0,2,object_01,5,2523,0,4,9,restaurant_4,1,memory-2step-stake-s,726,2770145,0.0-19.0-0.1-0.237,A12FTSX85NQ8N9,3MQKOF1EF54KJDI76AN431783D3WDT,3VJ40NV2QM3MHC3WRG1BGV8VX9QTOS,8,7
238,4,object_10,object_04,585.5,8,2,388.5,0.7777777777777778,2,object_01,5,2558,0,2,7,restaurant_6,1,memory-2step-stake-s,727,2778454,0.0-19.0-0.1-0.238,A12FTSX85NQ8N9,3MQKOF1EF54KJDI76AN431783D3WDT,3VJ40NV2QM3MHC3WRG1BGV8VX9QTOS,7,8
239,4,object_10,object_04,480.80000000075,7,1,264.40000000037,0.1111111111111111,1,object_08,5,2563,0,1,7,restaurant_5,1,memory-2step-stake-s,728,2786035,0.0-19.0-0.1-0.239,A12FTSX85NQ8N9,3MQKOF1EF54KJDI76AN431783D3WDT,3VJ40NV2QM3MHC3WRG1BGV8VX9QTOS,7,8
240,1,object_05,object_06,713.69999999925,1,1,371.19999999925,0.0,1,object_08,1,2563,0,0,7,desert_3,1,memory-2step-stake-s,729,2793624,0.0-19.0-0.1-0.240,A12FTSX85NQ8N9,3MQKOF1EF54KJDI76AN431783D3WDT,3VJ40NV2QM3MHC3WRG1BGV8VX9QTOS,1,2
241,3,object_02,object_07,544.30000000075,5,2,318.90000000037,0.0,1,object_08,1,2563,0,0,6,library_5,1,memory-2step-stake-s,730,2801157,0.0-19.0-0.1-0.241,A12FTSX85NQ8N9,3MQKOF1EF54KJDI76AN431783D3WDT,3VJ40NV2QM3MHC3WRG1BGV8VX9QTOS,6,5
242,3,object_02,object_07,991.79999999888,5,2,513.70000000112,0.2222222222222222,1,object_08,1,2565,0,2,5,library_5,1,memory-2step-stake-s,731,2809088,0.0-19.0-0.1-0.242,A12FTSX85NQ8N9,3MQKOF1EF54KJDI76AN431783D3WDT,3VJ40NV2QM3MHC3WRG1BGV8VX9QTOS,6,5
243,2,object_09,object_03,829.40000000037,3,1,241.10000000149,0.1111111111111111,1,object_08,1,2566,0,1,5,forest_2,1,memory-2step-stake-s,732,2816644,0.0-19.0-0.1-0.243,A12FTSX85NQ8N9,3MQKOF1EF54KJDI76AN431783D3WDT,3VJ40NV2QM3MHC3WRG1BGV8VX9QTOS,3,4
244,1,object_05,object_06,564.29999999888,2,2,202.5,0.3333333333333333,2,object_01,1,2569,0,2,3,desert_3,1,memory-2step-stake-s,733,2824362,0.0-19.0-0.1-0.244,A12FTSX85NQ8N9,3MQKOF1EF54KJDI76AN431783D3WDT,3VJ40NV2QM3MHC3WRG1BGV8VX9QTOS,1,2
245,1,object_06,object_05,471.69999999925,2,1,282.40000000037,0.5555555555555556,2,object_01,5,2594,0,4,5,desert_5,1,memory-2step-stake-s,734,2832363,0.0-19.0-0.1-0.245,A12FTSX85NQ8N9,3MQKOF1EF54KJDI76AN431783D3WDT,3VJ40NV2QM3MHC3WRG1BGV8VX9QTOS,2,1
246,4,object_04,object_10,733.0,8,1,237.70000000112,0.7777777777777778,2,object_01,5,2629,0,1,7,restaurant_4,1,memory-2step-stake-s,735,2840528,0.0-19.0-0.1-0.246,A12FTSX85NQ8N9,3MQKOF1EF54KJDI76AN431783D3WDT,3VJ40NV2QM3MHC3WRG1BGV8VX9QTOS,8,7
247,1,object_05,object_06,450.60000000149,2,2,342.20000000112,0.8888888888888888,2,object_01,1,2637,0,0,8,desert_3,1,memory-2step-stake-s,736,2848904,0.0-19.0-0.1-0.247,A12FTSX85NQ8N9,3MQKOF1EF54KJDI76AN431783D3WDT,3VJ40NV2QM3MHC3WRG1BGV8VX9QTOS,1,2
248,1,object_05,object_06,572.10000000149,2,2,471.80000000075,0.8888888888888888,2,object_01,1,2645,0,0,8,desert_3,1,memory-2step-stake-s,737,2857399,0.0-19.0-0.1-0.248,A12FTSX85NQ8N9,3MQKOF1EF54KJDI76AN431783D3WDT,3VJ40NV2QM3MHC3WRG1BGV8VX9QTOS,1,2
249,3,object_07,object_02,479.5,5,1,229.59999999963,0.0,1,object_08,5,2645,0,0,6,library_3,1,memory-2step-stake-s,738,2864843,0.0-19.0-0.1-0.249,A12FTSX85NQ8N9,3MQKOF1EF54KJDI76AN431783D3WDT,3VJ40NV2QM3MHC3WRG1BGV8VX9QTOS,5,6
250,1,object_06,object_05,629.09999999963,2,1,1480.3999999985,0.8888888888888888,2,object_01,1,2653,0,2,8,desert_3,1,memory-2step-stake-s,739,2874351,0.0-19.0-0.1-0.250,A12FTSX85NQ8N9,3MQKOF1EF54KJDI76AN431783D3WDT,3VJ40NV2QM3MHC3WRG1BGV8VX9QTOS,2,1
251,3,object_07,object_02,442.80000000075,5,1,449.0,0.2222222222222222,1,object_08,5,2663,0,2,8,library_1,1,memory-2step-stake-s,740,2882217,0.0-19.0-0.1-0.251,A12FTSX85NQ8N9,3MQKOF1EF54KJDI76AN431783D3WDT,3VJ40NV2QM3MHC3WRG1BGV8VX9QTOS,5,6
252,4,object_04,object_10,607.69999999925,8,1,1181.0,0.8888888888888888,2,object_01,5,2703,0,4,8,restaurant_1,1,memory-2step-stake-s,741,2891423,0.0-19.0-0.1-0.252,A12FTSX85NQ8N9,3MQKOF1EF54KJDI76AN431783D3WDT,3VJ40NV2QM3MHC3WRG1BGV8VX9QTOS,8,7
253,4,object_10,object_04,498.40000000037,7,1,106.59999999963,0.4444444444444444,1,object_08,5,2723,0,4,8,restaurant_4,1,memory-2step-stake-s,742,2899149,0.0-19.0-0.1-0.253,A12FTSX85NQ8N9,3MQKOF1EF54KJDI76AN431783D3WDT,3VJ40NV2QM3MHC3WRG1BGV8VX9QTOS,7,8
254,3,object_07,object_02,644.20000000112,5,1,232.59999999963,0.5555555555555556,1,object_08,5,2748,0,5,8,library_3,1,memory-2step-stake-s,743,2907102,0.0-19.0-0.1-0.254,A12FTSX85NQ8N9,3MQKOF1EF54KJDI76AN431783D3WDT,3VJ40NV2QM3MHC3WRG1BGV8VX9QTOS,5,6
255,1,object_05,object_06,707.39999999851,2,2,271.5,0.8888888888888888,2,object_01,1,2756,0,4,8,desert_2,1,memory-2step-stake-s,744,2915398,0.0-19.0-0.1-0.255,A12FTSX85NQ8N9,3MQKOF1EF54KJDI76AN431783D3WDT,3VJ40NV2QM3MHC3WRG1BGV8VX9QTOS,1,2
