,state1,stim_left,stim_right,rt_1,choice1,response1,rt_2,points,state2,stim_state2,stake,score,practice,rews1,rews2,background,high_arm,trial_type,trial_index,time_elapsed,internal_node_id,subid,hitid,assignmentid,stim_left_num,stim_right_num
0,1,object_03,object_05,541.10000002384,2,1,747.79999995232,0.4444444444444444,2,object_09,1,4,0,2,4,desert_1,1,memory-2step-stake-s,493,807189,0.0-19.0-0.0-0.0,A3CIPN7E1VL4G1,3SA4EMRVKYI00KKCICLEW0FTGRS0PA,3VZLGYJEYPQ5XXQNYZDPLW05U9IXZI,2,1
1,1,object_05,object_03,675.59999996424,2,2,1102.8000000119,0.5555555555555556,2,object_09,1,9,0,0,5,desert_8,1,memory-2step-stake-s,494,816053,0.0-19.0-0.0-0.1,A3CIPN7E1VL4G1,3SA4EMRVKYI00KKCICLEW0FTGRS0PA,3VZLGYJEYPQ5XXQNYZDPLW05U9IXZI,1,2
2,4,object_01,object_02,607.60000002384,7,1,1020.8000000119,0.0,1,object_04,1,9,0,0,2,restaurant_2,1,memory-2step-stake-s,495,824313,0.0-19.0-0.0-0.2,A3CIPN7E1VL4G1,3SA4EMRVKYI00KKCICLEW0FTGRS0PA,3VZLGYJEYPQ5XXQNYZDPLW05U9IXZI,7,8
3,2,object_10,object_06,420.40000003576,3,2,518.40000003576,0.2222222222222222,1,object_04,1,11,0,2,2,forest_3,1,memory-2step-stake-s,496,832286,0.0-19.0-0.0-0.3,A3CIPN7E1VL4G1,3SA4EMRVKYI00KKCICLEW0FTGRS0PA,3VZLGYJEYPQ5XXQNYZDPLW05U9IXZI,4,3
4,3,object_07,object_08,671.80000001192,5,1,419.69999998808,0.4444444444444444,1,object_04,5,31,0,4,1,library_6,1,memory-2step-stake-s,497,840389,0.0-19.0-0.0-0.4,A3CIPN7E1VL4G1,3SA4EMRVKYI00KKCICLEW0FTGRS0PA,3VZLGYJEYPQ5XXQNYZDPLW05U9IXZI,5,6
5,4,object_02,object_01,582.30000001192,7,2,525.29999995232,0.2222222222222222,1,object_04,5,41,0,2,3,restaurant_8,1,memory-2step-stake-s,498,848354,0.0-19.0-0.0-0.5,A3CIPN7E1VL4G1,3SA4EMRVKYI00KKCICLEW0FTGRS0PA,3VZLGYJEYPQ5XXQNYZDPLW05U9IXZI,8,7
6,4,object_01,object_02,807.70000004768,7,1,568.0,0.1111111111111111,1,object_04,5,46,0,1,3,restaurant_6,1,memory-2step-stake-s,499,856305,0.0-19.0-0.0-0.6,A3CIPN7E1VL4G1,3SA4EMRVKYI00KKCICLEW0FTGRS0PA,3VZLGYJEYPQ5XXQNYZDPLW05U9IXZI,7,8
7,2,object_10,object_06,750.09999996424,4,1,379.80000001192,0.2222222222222222,2,object_09,5,56,0,4,2,forest_3,1,memory-2step-stake-s,500,864128,0.0-19.0-0.0-0.7,A3CIPN7E1VL4G1,3SA4EMRVKYI00KKCICLEW0FTGRS0PA,3VZLGYJEYPQ5XXQNYZDPLW05U9IXZI,4,3
8,3,object_08,object_07,905.80000001192,6,1,604.89999997616,0.0,2,object_09,5,56,0,7,0,library_5,1,memory-2step-stake-s,501,871994,0.0-19.0-0.0-0.8,A3CIPN7E1VL4G1,3SA4EMRVKYI00KKCICLEW0FTGRS0PA,3VZLGYJEYPQ5XXQNYZDPLW05U9IXZI,6,5
9,1,object_03,object_05,883.69999998808,2,1,386.79999995232,0.1111111111111111,2,object_09,1,57,0,7,1,desert_5,1,memory-2step-stake-s,502,879768,0.0-19.0-0.0-0.9,A3CIPN7E1VL4G1,3SA4EMRVKYI00KKCICLEW0FTGRS0PA,3VZLGYJEYPQ5XXQNYZDPLW05U9IXZI,2,1
10,2,object_10,object_06,1149.4000000358,4,1,471.70000004768,0.1111111111111111,2,object_09,5,62,0,8,1,forest_3,1,memory-2step-stake-s,503,887620,0.0-19.0-0.0-0.10,A3CIPN7E1VL4G1,3SA4EMRVKYI00KKCICLEW0FTGRS0PA,3VZLGYJEYPQ5XXQNYZDPLW05U9IXZI,4,3
11,1,object_03,object_05,732.30000001192,1,2,395.39999997616,0.8888888888888888,1,object_04,1,70,0,8,1,desert_8,1,memory-2step-stake-s,504,896108,0.0-19.0-0.0-0.11,A3CIPN7E1VL4G1,3SA4EMRVKYI00KKCICLEW0FTGRS0PA,3VZLGYJEYPQ5XXQNYZDPLW05U9IXZI,2,1
12,1,object_03,object_05,932.30000001192,1,2,392.39999997616,0.8888888888888888,1,object_04,1,78,0,8,1,desert_8,1,memory-2step-stake-s,505,904602,0.0-19.0-0.0-0.12,A3CIPN7E1VL4G1,3SA4EMRVKYI00KKCICLEW0FTGRS0PA,3VZLGYJEYPQ5XXQNYZDPLW05U9IXZI,2,1
13,1,object_03,object_05,673.40000003576,1,2,352.5,0.6666666666666666,1,object_04,1,84,0,6,2,desert_3,1,memory-2step-stake-s,506,912845,0.0-19.0-0.0-0.13,A3CIPN7E1VL4G1,3SA4EMRVKYI00KKCICLEW0FTGRS0PA,3VZLGYJEYPQ5XXQNYZDPLW05U9IXZI,2,1
14,1,object_05,object_03,839.90000003576,1,1,314.59999996424,0.2222222222222222,1,object_04,1,86,0,2,4,desert_1,1,memory-2step-stake-s,507,920613,0.0-19.0-0.0-0.14,A3CIPN7E1VL4G1,3SA4EMRVKYI00KKCICLEW0FTGRS0PA,3VZLGYJEYPQ5XXQNYZDPLW05U9IXZI,1,2
15,4,object_01,object_02,696.09999996424,8,2,605.19999998808,0.5555555555555556,2,object_09,5,111,0,2,5,restaurant_8,1,memory-2step-stake-s,508,928996,0.0-19.0-0.0-0.15,A3CIPN7E1VL4G1,3SA4EMRVKYI00KKCICLEW0FTGRS0PA,3VZLGYJEYPQ5XXQNYZDPLW05U9IXZI,7,8
16,3,object_08,object_07,920.80000001192,5,2,556.5,0.0,1,object_04,5,111,0,0,7,library_6,1,memory-2step-stake-s,509,936812,0.0-19.0-0.0-0.16,A3CIPN7E1VL4G1,3SA4EMRVKYI00KKCICLEW0FTGRS0PA,3VZLGYJEYPQ5XXQNYZDPLW05U9IXZI,6,5
17,1,object_05,object_03,1141.5999999642,2,2,369.40000003576,0.6666666666666666,2,object_09,1,117,0,4,6,desert_5,1,memory-2step-stake-s,510,945075,0.0-19.0-0.0-0.17,A3CIPN7E1VL4G1,3SA4EMRVKYI00KKCICLEW0FTGRS0PA,3VZLGYJEYPQ5XXQNYZDPLW05U9IXZI,1,2
18,1,object_05,object_03,955.5,2,2,336.40000003576,0.6666666666666666,2,object_09,1,123,0,7,6,desert_5,1,memory-2step-stake-s,511,953270,0.0-19.0-0.0-0.18,A3CIPN7E1VL4G1,3SA4EMRVKYI00KKCICLEW0FTGRS0PA,3VZLGYJEYPQ5XXQNYZDPLW05U9IXZI,1,2
19,3,object_08,object_07,1313.8999999762,6,1,373.5,0.8888888888888888,2,object_09,5,163,0,9,8,library_6,1,memory-2step-stake-s,512,961736,0.0-19.0-0.0-0.19,A3CIPN7E1VL4G1,3SA4EMRVKYI00KKCICLEW0FTGRS0PA,3VZLGYJEYPQ5XXQNYZDPLW05U9IXZI,6,5
20,2,object_10,object_06,729.0,3,2,424.5,1.0,1,object_04,1,172,0,9,6,forest_7,1,memory-2step-stake-s,513,970362,0.0-19.0-0.0-0.20,A3CIPN7E1VL4G1,3SA4EMRVKYI00KKCICLEW0FTGRS0PA,3VZLGYJEYPQ5XXQNYZDPLW05U9IXZI,4,3
21,1,object_05,object_03,1052.1999999881,1,1,357.89999997616,0.6666666666666666,1,object_04,1,178,0,6,4,desert_3,1,memory-2step-stake-s,514,978591,0.0-19.0-0.0-0.21,A3CIPN7E1VL4G1,3SA4EMRVKYI00KKCICLEW0FTGRS0PA,3VZLGYJEYPQ5XXQNYZDPLW05U9IXZI,1,2
22,2,object_10,object_06,761.0,3,2,338.59999996424,0.3333333333333333,1,object_04,5,193,0,3,1,forest_8,1,memory-2step-stake-s,515,986502,0.0-19.0-0.0-0.22,A3CIPN7E1VL4G1,3SA4EMRVKYI00KKCICLEW0FTGRS0PA,3VZLGYJEYPQ5XXQNYZDPLW05U9IXZI,4,3
23,3,object_08,object_07,737.30000001192,6,1,433.0,0.2222222222222222,2,object_09,5,203,0,0,2,library_1,1,memory-2step-stake-s,516,994408,0.0-19.0-0.0-0.23,A3CIPN7E1VL4G1,3SA4EMRVKYI00KKCICLEW0FTGRS0PA,3VZLGYJEYPQ5XXQNYZDPLW05U9IXZI,6,5
24,2,object_10,object_06,686.60000002384,3,2,384.5,0.0,1,object_04,1,203,0,0,1,forest_2,1,memory-2step-stake-s,517,1002031,0.0-19.0-0.0-0.24,A3CIPN7E1VL4G1,3SA4EMRVKYI00KKCICLEW0FTGRS0PA,3VZLGYJEYPQ5XXQNYZDPLW05U9IXZI,4,3
25,1,object_03,object_05,833.39999997616,1,2,388.5,0.1111111111111111,1,object_04,1,204,0,1,2,desert_1,1,memory-2step-stake-s,518,1009803,0.0-19.0-0.0-0.25,A3CIPN7E1VL4G1,3SA4EMRVKYI00KKCICLEW0FTGRS0PA,3VZLGYJEYPQ5XXQNYZDPLW05U9IXZI,2,1
26,4,object_01,object_02,763.19999998808,7,1,472.40000003576,0.2222222222222222,1,object_04,5,214,0,2,1,restaurant_2,1,memory-2step-stake-s,519,1017755,0.0-19.0-0.0-0.26,A3CIPN7E1VL4G1,3SA4EMRVKYI00KKCICLEW0FTGRS0PA,3VZLGYJEYPQ5XXQNYZDPLW05U9IXZI,7,8
27,1,object_03,object_05,638.30000001192,2,1,336.80000001192,0.3333333333333333,2,object_09,1,217,0,3,3,desert_1,1,memory-2step-stake-s,520,1025640,0.0-19.0-0.0-0.27,A3CIPN7E1VL4G1,3SA4EMRVKYI00KKCICLEW0FTGRS0PA,3VZLGYJEYPQ5XXQNYZDPLW05U9IXZI,2,1
28,4,object_01,object_02,613.60000002384,8,2,396.80000001192,0.3333333333333333,2,object_09,5,232,0,1,3,restaurant_8,1,memory-2step-stake-s,521,1033607,0.0-19.0-0.0-0.28,A3CIPN7E1VL4G1,3SA4EMRVKYI00KKCICLEW0FTGRS0PA,3VZLGYJEYPQ5XXQNYZDPLW05U9IXZI,7,8
29,3,object_08,object_07,777.09999996424,6,1,406.69999998808,0.2222222222222222,2,object_09,5,242,0,2,2,library_1,1,memory-2step-stake-s,522,1041502,0.0-19.0-0.0-0.29,A3CIPN7E1VL4G1,3SA4EMRVKYI00KKCICLEW0FTGRS0PA,3VZLGYJEYPQ5XXQNYZDPLW05U9IXZI,6,5
30,1,object_03,object_05,776.69999998808,1,2,373.90000003576,0.1111111111111111,1,object_04,1,243,0,1,4,desert_3,1,memory-2step-stake-s,523,1049251,0.0-19.0-0.0-0.30,A3CIPN7E1VL4G1,3SA4EMRVKYI00KKCICLEW0FTGRS0PA,3VZLGYJEYPQ5XXQNYZDPLW05U9IXZI,2,1
31,3,object_07,object_08,900.69999998808,6,2,498.89999997616,0.4444444444444444,2,object_09,5,263,0,1,4,library_6,1,memory-2step-stake-s,524,1057437,0.0-19.0-0.0-0.31,A3CIPN7E1VL4G1,3SA4EMRVKYI00KKCICLEW0FTGRS0PA,3VZLGYJEYPQ5XXQNYZDPLW05U9IXZI,5,6
32,2,object_10,object_06,529.40000003576,4,1,622.19999998808,0.5555555555555556,2,object_09,1,268,0,1,5,forest_3,1,memory-2step-stake-s,525,1065837,0.0-19.0-0.0-0.32,A3CIPN7E1VL4G1,3SA4EMRVKYI00KKCICLEW0FTGRS0PA,3VZLGYJEYPQ5XXQNYZDPLW05U9IXZI,4,3
33,1,object_05,object_03,949.39999997616,1,1,407.89999997616,0.1111111111111111,1,object_04,5,273,0,1,7,desert_5,1,memory-2step-stake-s,526,1073624,0.0-19.0-0.0-0.33,A3CIPN7E1VL4G1,3SA4EMRVKYI00KKCICLEW0FTGRS0PA,3VZLGYJEYPQ5XXQNYZDPLW05U9IXZI,1,2
34,2,object_06,object_10,548.89999997616,4,2,492.0,0.7777777777777778,2,object_09,1,280,0,0,7,forest_3,1,memory-2step-stake-s,527,1082128,0.0-19.0-0.0-0.34,A3CIPN7E1VL4G1,3SA4EMRVKYI00KKCICLEW0FTGRS0PA,3VZLGYJEYPQ5XXQNYZDPLW05U9IXZI,3,4
35,2,object_06,object_10,321.90000003576,3,1,449.30000001192,0.2222222222222222,1,object_04,5,290,0,2,6,forest_3,1,memory-2step-stake-s,528,1090046,0.0-19.0-0.0-0.35,A3CIPN7E1VL4G1,3SA4EMRVKYI00KKCICLEW0FTGRS0PA,3VZLGYJEYPQ5XXQNYZDPLW05U9IXZI,3,4
36,3,object_08,object_07,443.0,5,2,505.80000001192,0.7777777777777778,1,object_04,5,325,0,7,5,library_5,1,memory-2step-stake-s,529,1098526,0.0-19.0-0.0-0.36,A3CIPN7E1VL4G1,3SA4EMRVKYI00KKCICLEW0FTGRS0PA,3VZLGYJEYPQ5XXQNYZDPLW05U9IXZI,6,5
37,4,object_01,object_02,697.0,8,2,415.0,0.4444444444444444,2,object_09,5,345,0,6,4,restaurant_6,1,memory-2step-stake-s,530,1106618,0.0-19.0-0.0-0.37,A3CIPN7E1VL4G1,3SA4EMRVKYI00KKCICLEW0FTGRS0PA,3VZLGYJEYPQ5XXQNYZDPLW05U9IXZI,7,8
38,2,object_10,object_06,676.30000001192,3,2,352.60000002384,0.6666666666666666,1,object_04,1,351,0,6,5,forest_2,1,memory-2step-stake-s,531,1114867,0.0-19.0-0.0-0.38,A3CIPN7E1VL4G1,3SA4EMRVKYI00KKCICLEW0FTGRS0PA,3VZLGYJEYPQ5XXQNYZDPLW05U9IXZI,4,3
39,4,object_02,object_01,361.30000001192,8,1,362.70000004768,0.8888888888888888,2,object_09,1,359,0,6,8,restaurant_3,1,memory-2step-stake-s,532,1123280,0.0-19.0-0.0-0.39,A3CIPN7E1VL4G1,3SA4EMRVKYI00KKCICLEW0FTGRS0PA,3VZLGYJEYPQ5XXQNYZDPLW05U9IXZI,8,7
40,2,object_06,object_10,1142.6000000238,3,1,570.29999995232,0.2222222222222222,1,object_04,5,369,0,2,6,forest_7,1,memory-2step-stake-s,533,1131343,0.0-19.0-0.0-0.40,A3CIPN7E1VL4G1,3SA4EMRVKYI00KKCICLEW0FTGRS0PA,3VZLGYJEYPQ5XXQNYZDPLW05U9IXZI,3,4
41,1,object_03,object_05,376.80000001192,1,2,386.5,0.0,1,object_04,1,369,0,0,6,desert_1,1,memory-2step-stake-s,534,1138969,0.0-19.0-0.0-0.41,A3CIPN7E1VL4G1,3SA4EMRVKYI00KKCICLEW0FTGRS0PA,3VZLGYJEYPQ5XXQNYZDPLW05U9IXZI,2,1
42,1,object_03,object_05,1277.3999999762,2,1,424.5,0.8888888888888888,2,object_09,1,377,0,2,8,desert_8,1,memory-2step-stake-s,535,1147461,0.0-19.0-0.0-0.42,A3CIPN7E1VL4G1,3SA4EMRVKYI00KKCICLEW0FTGRS0PA,3VZLGYJEYPQ5XXQNYZDPLW05U9IXZI,2,1
43,1,object_03,object_05,619.0,2,1,308.59999996424,0.8888888888888888,2,object_09,1,385,0,1,8,desert_3,1,memory-2step-stake-s,536,1155856,0.0-19.0-0.0-0.43,A3CIPN7E1VL4G1,3SA4EMRVKYI00KKCICLEW0FTGRS0PA,3VZLGYJEYPQ5XXQNYZDPLW05U9IXZI,2,1
44,2,object_06,object_10,596.10000002384,4,2,-1.0,0.0,2,object_09,1,385,0,1,4,forest_8,1,memory-2step-stake-s,537,1164411,0.0-19.0-0.0-0.44,A3CIPN7E1VL4G1,3SA4EMRVKYI00KKCICLEW0FTGRS0PA,3VZLGYJEYPQ5XXQNYZDPLW05U9IXZI,3,4
45,1,object_03,object_05,344.5,2,1,261.60000002384,0.3333333333333333,2,object_09,1,388,0,0,3,desert_5,1,memory-2step-stake-s,538,1172254,0.0-19.0-0.0-0.45,A3CIPN7E1VL4G1,3SA4EMRVKYI00KKCICLEW0FTGRS0PA,3VZLGYJEYPQ5XXQNYZDPLW05U9IXZI,2,1
46,1,object_03,object_05,449.19999998808,1,2,298.5,0.0,1,object_04,1,388,0,0,6,desert_8,1,memory-2step-stake-s,539,1179827,0.0-19.0-0.0-0.46,A3CIPN7E1VL4G1,3SA4EMRVKYI00KKCICLEW0FTGRS0PA,3VZLGYJEYPQ5XXQNYZDPLW05U9IXZI,2,1
47,4,object_01,object_02,769.40000003576,8,2,823.30000001192,0.8888888888888888,2,object_09,1,396,0,2,8,restaurant_8,1,memory-2step-stake-s,540,1188753,0.0-19.0-0.0-0.47,A3CIPN7E1VL4G1,3SA4EMRVKYI00KKCICLEW0FTGRS0PA,3VZLGYJEYPQ5XXQNYZDPLW05U9IXZI,7,8
48,2,object_10,object_06,476.5,3,2,386.19999998808,0.1111111111111111,1,object_04,1,397,0,1,4,forest_8,1,memory-2step-stake-s,541,1196495,0.0-19.0-0.0-0.48,A3CIPN7E1VL4G1,3SA4EMRVKYI00KKCICLEW0FTGRS0PA,3VZLGYJEYPQ5XXQNYZDPLW05U9IXZI,4,3
49,3,object_08,object_07,305.39999997616,6,1,377.30000001192,0.7777777777777778,2,object_09,1,404,0,1,7,library_4,1,memory-2step-stake-s,542,1204838,0.0-19.0-0.0-0.49,A3CIPN7E1VL4G1,3SA4EMRVKYI00KKCICLEW0FTGRS0PA,3VZLGYJEYPQ5XXQNYZDPLW05U9IXZI,6,5
50,2,object_06,object_10,246.10000002384,3,1,445.59999996424,0.1111111111111111,1,object_04,1,405,0,1,6,forest_3,1,memory-2step-stake-s,543,1212667,0.0-19.0-0.0-0.50,A3CIPN7E1VL4G1,3SA4EMRVKYI00KKCICLEW0FTGRS0PA,3VZLGYJEYPQ5XXQNYZDPLW05U9IXZI,3,4
51,4,object_01,object_02,456.89999997616,8,2,331.0,0.4444444444444444,2,object_09,5,425,0,1,4,restaurant_3,1,memory-2step-stake-s,544,1220692,0.0-19.0-0.0-0.51,A3CIPN7E1VL4G1,3SA4EMRVKYI00KKCICLEW0FTGRS0PA,3VZLGYJEYPQ5XXQNYZDPLW05U9IXZI,7,8
52,3,object_07,object_08,493.5,5,1,459.10000002384,0.0,1,object_04,5,425,0,0,5,library_4,1,memory-2step-stake-s,545,1228405,0.0-19.0-0.0-0.52,A3CIPN7E1VL4G1,3SA4EMRVKYI00KKCICLEW0FTGRS0PA,3VZLGYJEYPQ5XXQNYZDPLW05U9IXZI,5,6
53,2,object_10,object_06,461.09999996424,3,2,362.60000002384,0.2222222222222222,1,object_04,1,427,0,2,6,forest_7,1,memory-2step-stake-s,546,1236244,0.0-19.0-0.0-0.53,A3CIPN7E1VL4G1,3SA4EMRVKYI00KKCICLEW0FTGRS0PA,3VZLGYJEYPQ5XXQNYZDPLW05U9IXZI,4,3
54,4,object_01,object_02,810.70000004768,8,2,361.0,0.5555555555555556,2,object_09,5,452,0,2,5,restaurant_3,1,memory-2step-stake-s,547,1244386,0.0-19.0-0.0-0.54,A3CIPN7E1VL4G1,3SA4EMRVKYI00KKCICLEW0FTGRS0PA,3VZLGYJEYPQ5XXQNYZDPLW05U9IXZI,7,8
55,3,object_08,object_07,747.59999996424,5,2,401.10000002384,0.4444444444444444,1,object_04,5,472,0,4,3,library_5,1,memory-2step-stake-s,548,1252466,0.0-19.0-0.0-0.55,A3CIPN7E1VL4G1,3SA4EMRVKYI00KKCICLEW0FTGRS0PA,3VZLGYJEYPQ5XXQNYZDPLW05U9IXZI,6,5
56,1,object_05,object_03,665.89999997616,2,2,372.89999997616,0.4444444444444444,2,object_09,5,492,0,3,4,desert_1,1,memory-2step-stake-s,549,1260537,0.0-19.0-0.0-0.56,A3CIPN7E1VL4G1,3SA4EMRVKYI00KKCICLEW0FTGRS0PA,3VZLGYJEYPQ5XXQNYZDPLW05U9IXZI,1,2
57,4,object_02,object_01,949.0,8,1,381.19999998808,0.2222222222222222,2,object_09,5,502,0,1,2,restaurant_3,1,memory-2step-stake-s,550,1268386,0.0-19.0-0.0-0.57,A3CIPN7E1VL4G1,3SA4EMRVKYI00KKCICLEW0FTGRS0PA,3VZLGYJEYPQ5XXQNYZDPLW05U9IXZI,8,7
58,3,object_07,object_08,620.19999998808,6,2,342.19999998808,0.1111111111111111,2,object_09,1,503,0,4,1,library_5,1,memory-2step-stake-s,551,1276102,0.0-19.0-0.0-0.58,A3CIPN7E1VL4G1,3SA4EMRVKYI00KKCICLEW0FTGRS0PA,3VZLGYJEYPQ5XXQNYZDPLW05U9IXZI,5,6
59,3,object_07,object_08,824.30000001192,6,2,423.10000002384,0.4444444444444444,2,object_09,5,523,0,4,4,library_5,1,memory-2step-stake-s,552,1284230,0.0-19.0-0.0-0.59,A3CIPN7E1VL4G1,3SA4EMRVKYI00KKCICLEW0FTGRS0PA,3VZLGYJEYPQ5XXQNYZDPLW05U9IXZI,5,6
60,1,object_05,object_03,816.30000001192,2,2,454.60000002384,0.8888888888888888,2,object_09,5,563,0,4,8,desert_1,1,memory-2step-stake-s,553,1292775,0.0-19.0-0.0-0.60,A3CIPN7E1VL4G1,3SA4EMRVKYI00KKCICLEW0FTGRS0PA,3VZLGYJEYPQ5XXQNYZDPLW05U9IXZI,1,2
61,1,object_03,object_05,841.90000003576,1,2,361.60000002384,0.3333333333333333,1,object_04,1,566,0,3,7,desert_5,1,memory-2step-stake-s,554,1300706,0.0-19.0-0.0-0.61,A3CIPN7E1VL4G1,3SA4EMRVKYI00KKCICLEW0FTGRS0PA,3VZLGYJEYPQ5XXQNYZDPLW05U9IXZI,2,1
62,1,object_03,object_05,782.39999997616,1,2,332.90000003576,0.2222222222222222,1,object_04,1,568,0,2,8,desert_3,1,memory-2step-stake-s,555,1308492,0.0-19.0-0.0-0.62,A3CIPN7E1VL4G1,3SA4EMRVKYI00KKCICLEW0FTGRS0PA,3VZLGYJEYPQ5XXQNYZDPLW05U9IXZI,2,1
63,2,object_10,object_06,583.80000001192,4,1,347.80000001192,0.7777777777777778,2,object_09,1,575,0,1,7,forest_2,1,memory-2step-stake-s,556,1316846,0.0-19.0-0.0-0.63,A3CIPN7E1VL4G1,3SA4EMRVKYI00KKCICLEW0FTGRS0PA,3VZLGYJEYPQ5XXQNYZDPLW05U9IXZI,4,3
64,2,object_06,object_10,998.60000002384,4,2,375.79999995232,0.7777777777777778,2,object_09,5,610,0,1,7,forest_2,1,memory-2step-stake-s,557,1325192,0.0-19.0-0.0-0.64,A3CIPN7E1VL4G1,3SA4EMRVKYI00KKCICLEW0FTGRS0PA,3VZLGYJEYPQ5XXQNYZDPLW05U9IXZI,3,4
65,3,object_08,object_07,798.39999997616,5,2,399.79999995232,0.2222222222222222,1,object_04,5,620,0,2,5,library_5,1,memory-2step-stake-s,558,1333060,0.0-19.0-0.0-0.65,A3CIPN7E1VL4G1,3SA4EMRVKYI00KKCICLEW0FTGRS0PA,3VZLGYJEYPQ5XXQNYZDPLW05U9IXZI,6,5
66,2,object_06,object_10,578.19999998808,3,1,348.39999997616,0.1111111111111111,1,object_04,1,621,0,1,4,forest_3,1,memory-2step-stake-s,559,1340750,0.0-19.0-0.0-0.66,A3CIPN7E1VL4G1,3SA4EMRVKYI00KKCICLEW0FTGRS0PA,3VZLGYJEYPQ5XXQNYZDPLW05U9IXZI,3,4
67,2,object_10,object_06,473.5,3,2,425.89999997616,0.2222222222222222,1,object_04,5,631,0,2,2,forest_3,1,memory-2step-stake-s,560,1348646,0.0-19.0-0.0-0.67,A3CIPN7E1VL4G1,3SA4EMRVKYI00KKCICLEW0FTGRS0PA,3VZLGYJEYPQ5XXQNYZDPLW05U9IXZI,4,3
68,4,object_02,object_01,527.5,7,2,596.69999998808,0.3333333333333333,1,object_04,5,646,0,3,0,restaurant_3,1,memory-2step-stake-s,561,1356807,0.0-19.0-0.0-0.68,A3CIPN7E1VL4G1,3SA4EMRVKYI00KKCICLEW0FTGRS0PA,3VZLGYJEYPQ5XXQNYZDPLW05U9IXZI,8,7
69,4,object_02,object_01,603.80000001192,8,1,316.40000003576,0.2222222222222222,2,object_09,5,656,0,2,2,restaurant_8,1,memory-2step-stake-s,562,1364620,0.0-19.0-0.0-0.69,A3CIPN7E1VL4G1,3SA4EMRVKYI00KKCICLEW0FTGRS0PA,3VZLGYJEYPQ5XXQNYZDPLW05U9IXZI,8,7
70,3,object_07,object_08,584.40000003576,6,2,374.19999998808,0.2222222222222222,2,object_09,1,658,0,1,2,library_1,1,memory-2step-stake-s,563,1372491,0.0-19.0-0.0-0.70,A3CIPN7E1VL4G1,3SA4EMRVKYI00KKCICLEW0FTGRS0PA,3VZLGYJEYPQ5XXQNYZDPLW05U9IXZI,5,6
71,4,object_02,object_01,856.30000001192,7,2,312.09999996424,0.1111111111111111,1,object_04,5,663,0,1,2,restaurant_2,1,memory-2step-stake-s,564,1380173,0.0-19.0-0.0-0.71,A3CIPN7E1VL4G1,3SA4EMRVKYI00KKCICLEW0FTGRS0PA,3VZLGYJEYPQ5XXQNYZDPLW05U9IXZI,8,7
72,4,object_02,object_01,663.59999996424,7,2,311.5,0.4444444444444444,1,object_04,1,667,0,4,2,restaurant_6,1,memory-2step-stake-s,565,1388140,0.0-19.0-0.0-0.72,A3CIPN7E1VL4G1,3SA4EMRVKYI00KKCICLEW0FTGRS0PA,3VZLGYJEYPQ5XXQNYZDPLW05U9IXZI,8,7
73,4,object_01,object_02,843.40000003576,8,2,353.69999998808,0.6666666666666666,2,object_09,5,697,0,6,6,restaurant_6,1,memory-2step-stake-s,566,1396384,0.0-19.0-0.0-0.73,A3CIPN7E1VL4G1,3SA4EMRVKYI00KKCICLEW0FTGRS0PA,3VZLGYJEYPQ5XXQNYZDPLW05U9IXZI,7,8
74,3,object_08,object_07,1211.1000000238,6,1,546.10000002384,0.4444444444444444,2,object_09,5,717,0,5,4,library_6,1,memory-2step-stake-s,567,1404624,0.0-19.0-0.0-0.74,A3CIPN7E1VL4G1,3SA4EMRVKYI00KKCICLEW0FTGRS0PA,3VZLGYJEYPQ5XXQNYZDPLW05U9IXZI,6,5
75,2,object_10,object_06,568.5,3,2,528.39999997616,0.4444444444444444,1,object_04,1,721,0,4,6,forest_8,1,memory-2step-stake-s,568,1412850,0.0-19.0-0.0-0.75,A3CIPN7E1VL4G1,3SA4EMRVKYI00KKCICLEW0FTGRS0PA,3VZLGYJEYPQ5XXQNYZDPLW05U9IXZI,4,3
76,4,object_01,object_02,621.70000004768,8,2,306.89999997616,0.5555555555555556,2,object_09,5,746,0,2,5,restaurant_6,1,memory-2step-stake-s,569,1420942,0.0-19.0-0.0-0.76,A3CIPN7E1VL4G1,3SA4EMRVKYI00KKCICLEW0FTGRS0PA,3VZLGYJEYPQ5XXQNYZDPLW05U9IXZI,7,8
77,2,object_06,object_10,428.60000002384,3,1,395.80000001192,0.3333333333333333,1,object_04,1,749,0,3,6,forest_8,1,memory-2step-stake-s,570,1428907,0.0-19.0-0.0-0.77,A3CIPN7E1VL4G1,3SA4EMRVKYI00KKCICLEW0FTGRS0PA,3VZLGYJEYPQ5XXQNYZDPLW05U9IXZI,3,4
78,3,object_08,object_07,790.10000002384,6,1,442.80000001192,0.6666666666666666,2,object_09,5,779,0,0,6,library_1,1,memory-2step-stake-s,571,1437222,0.0-19.0-0.0-0.78,A3CIPN7E1VL4G1,3SA4EMRVKYI00KKCICLEW0FTGRS0PA,3VZLGYJEYPQ5XXQNYZDPLW05U9IXZI,6,5
79,4,object_01,object_02,349.60000002384,8,2,378.80000001192,0.4444444444444444,2,object_09,1,783,0,2,4,restaurant_6,1,memory-2step-stake-s,572,1445285,0.0-19.0-0.0-0.79,A3CIPN7E1VL4G1,3SA4EMRVKYI00KKCICLEW0FTGRS0PA,3VZLGYJEYPQ5XXQNYZDPLW05U9IXZI,7,8
80,1,object_05,object_03,513.10000002384,2,2,301.39999997616,0.7777777777777778,2,object_09,1,790,0,3,7,desert_1,1,memory-2step-stake-s,573,1453587,0.0-19.0-0.0-0.80,A3CIPN7E1VL4G1,3SA4EMRVKYI00KKCICLEW0FTGRS0PA,3VZLGYJEYPQ5XXQNYZDPLW05U9IXZI,1,2
81,2,object_06,object_10,340.29999995232,3,1,421.39999997616,0.3333333333333333,1,object_04,1,793,0,3,5,forest_7,1,memory-2step-stake-s,574,1461591,0.0-19.0-0.0-0.81,A3CIPN7E1VL4G1,3SA4EMRVKYI00KKCICLEW0FTGRS0PA,3VZLGYJEYPQ5XXQNYZDPLW05U9IXZI,3,4
82,4,object_01,object_02,155.5,8,2,352.19999998808,0.4444444444444444,2,object_09,1,797,0,2,4,restaurant_8,1,memory-2step-stake-s,575,1469608,0.0-19.0-0.0-0.82,A3CIPN7E1VL4G1,3SA4EMRVKYI00KKCICLEW0FTGRS0PA,3VZLGYJEYPQ5XXQNYZDPLW05U9IXZI,7,8
83,3,object_08,object_07,697.09999996424,5,2,446.5,0.1111111111111111,1,object_04,5,802,0,1,4,library_6,1,memory-2step-stake-s,576,1477425,0.0-19.0-0.0-0.83,A3CIPN7E1VL4G1,3SA4EMRVKYI00KKCICLEW0FTGRS0PA,3VZLGYJEYPQ5XXQNYZDPLW05U9IXZI,6,5
84,1,object_05,object_03,720.90000003576,2,2,372.30000001192,0.2222222222222222,2,object_09,1,804,0,0,2,desert_8,1,memory-2step-stake-s,577,1485290,0.0-19.0-0.0-0.84,A3CIPN7E1VL4G1,3SA4EMRVKYI00KKCICLEW0FTGRS0PA,3VZLGYJEYPQ5XXQNYZDPLW05U9IXZI,1,2
85,1,object_05,object_03,682.69999998808,2,2,336.0,0.2222222222222222,2,object_09,5,814,0,2,2,desert_3,1,memory-2step-stake-s,578,1493075,0.0-19.0-0.0-0.85,A3CIPN7E1VL4G1,3SA4EMRVKYI00KKCICLEW0FTGRS0PA,3VZLGYJEYPQ5XXQNYZDPLW05U9IXZI,1,2
86,1,object_03,object_05,702.40000003576,2,1,1041.6000000238,0.4444444444444444,2,object_09,1,818,0,1,4,desert_5,1,memory-2step-stake-s,579,1501810,0.0-19.0-0.0-0.86,A3CIPN7E1VL4G1,3SA4EMRVKYI00KKCICLEW0FTGRS0PA,3VZLGYJEYPQ5XXQNYZDPLW05U9IXZI,2,1
87,4,object_01,object_02,703.19999998808,8,2,619.19999998808,0.1111111111111111,2,object_09,5,823,0,1,1,restaurant_6,1,memory-2step-stake-s,580,1509788,0.0-19.0-0.0-0.87,A3CIPN7E1VL4G1,3SA4EMRVKYI00KKCICLEW0FTGRS0PA,3VZLGYJEYPQ5XXQNYZDPLW05U9IXZI,7,8
88,4,object_01,object_02,492.69999998808,7,1,394.69999998808,0.1111111111111111,1,object_04,5,828,0,1,3,restaurant_8,1,memory-2step-stake-s,581,1517523,0.0-19.0-0.0-0.88,A3CIPN7E1VL4G1,3SA4EMRVKYI00KKCICLEW0FTGRS0PA,3VZLGYJEYPQ5XXQNYZDPLW05U9IXZI,7,8
89,2,object_10,object_06,440.80000001192,3,2,518.40000003576,0.3333333333333333,1,object_04,1,831,0,3,2,forest_7,1,memory-2step-stake-s,582,1525610,0.0-19.0-0.0-0.89,A3CIPN7E1VL4G1,3SA4EMRVKYI00KKCICLEW0FTGRS0PA,3VZLGYJEYPQ5XXQNYZDPLW05U9IXZI,4,3
90,4,object_01,object_02,705.39999997616,7,1,320.60000002384,0.1111111111111111,1,object_04,5,836,0,1,3,restaurant_2,1,memory-2step-stake-s,583,1533292,0.0-19.0-0.0-0.90,A3CIPN7E1VL4G1,3SA4EMRVKYI00KKCICLEW0FTGRS0PA,3VZLGYJEYPQ5XXQNYZDPLW05U9IXZI,7,8
91,4,object_01,object_02,616.0,8,2,250.89999997616,0.4444444444444444,2,object_09,5,856,0,0,4,restaurant_3,1,memory-2step-stake-s,584,1541224,0.0-19.0-0.0-0.91,A3CIPN7E1VL4G1,3SA4EMRVKYI00KKCICLEW0FTGRS0PA,3VZLGYJEYPQ5XXQNYZDPLW05U9IXZI,7,8
92,1,object_03,object_05,1010.5,1,2,535.0,0.1111111111111111,1,object_04,1,857,0,1,3,desert_3,1,memory-2step-stake-s,585,1549121,0.0-19.0-0.0-0.92,A3CIPN7E1VL4G1,3SA4EMRVKYI00KKCICLEW0FTGRS0PA,3VZLGYJEYPQ5XXQNYZDPLW05U9IXZI,2,1
93,2,object_10,object_06,764.5,3,2,379.0,0.1111111111111111,1,object_04,1,858,0,1,1,forest_7,1,memory-2step-stake-s,586,1556867,0.0-19.0-0.0-0.93,A3CIPN7E1VL4G1,3SA4EMRVKYI00KKCICLEW0FTGRS0PA,3VZLGYJEYPQ5XXQNYZDPLW05U9IXZI,4,3
94,3,object_08,object_07,819.70000004768,5,2,623.80000001192,0.1111111111111111,1,object_04,5,863,0,1,0,library_6,1,memory-2step-stake-s,587,1564861,0.0-19.0-0.0-0.94,A3CIPN7E1VL4G1,3SA4EMRVKYI00KKCICLEW0FTGRS0PA,3VZLGYJEYPQ5XXQNYZDPLW05U9IXZI,6,5
95,3,object_07,object_08,656.09999996424,5,1,310.79999995232,0.0,1,object_04,5,863,0,0,2,library_6,1,memory-2step-stake-s,588,1572444,0.0-19.0-0.0-0.95,A3CIPN7E1VL4G1,3SA4EMRVKYI00KKCICLEW0FTGRS0PA,3VZLGYJEYPQ5XXQNYZDPLW05U9IXZI,5,6
96,2,object_06,object_10,901.80000001192,3,1,507.0,0.3333333333333333,1,object_04,1,866,0,3,1,forest_2,1,memory-2step-stake-s,589,1580519,0.0-19.0-0.0-0.96,A3CIPN7E1VL4G1,3SA4EMRVKYI00KKCICLEW0FTGRS0PA,3VZLGYJEYPQ5XXQNYZDPLW05U9IXZI,3,4
97,3,object_08,object_07,854.10000002384,5,2,333.40000003576,0.3333333333333333,1,object_04,5,881,0,3,1,library_6,1,memory-2step-stake-s,590,1588403,0.0-19.0-0.0-0.97,A3CIPN7E1VL4G1,3SA4EMRVKYI00KKCICLEW0FTGRS0PA,3VZLGYJEYPQ5XXQNYZDPLW05U9IXZI,6,5
98,1,object_05,object_03,692.69999998808,2,2,363.30000001192,0.0,2,object_09,1,881,0,1,0,desert_8,1,memory-2step-stake-s,591,1596025,0.0-19.0-0.0-0.98,A3CIPN7E1VL4G1,3SA4EMRVKYI00KKCICLEW0FTGRS0PA,3VZLGYJEYPQ5XXQNYZDPLW05U9IXZI,1,2
99,1,object_03,object_05,982.30000001192,1,2,380.69999998808,0.0,1,object_04,5,881,0,0,1,desert_8,1,memory-2step-stake-s,592,1603652,0.0-19.0-0.0-0.99,A3CIPN7E1VL4G1,3SA4EMRVKYI00KKCICLEW0FTGRS0PA,3VZLGYJEYPQ5XXQNYZDPLW05U9IXZI,2,1
100,1,object_03,object_05,541.59999996424,1,2,349.5,0.2222222222222222,1,object_04,1,883,0,2,0,desert_5,1,memory-2step-stake-s,593,1611473,0.0-19.0-0.0-0.100,A3CIPN7E1VL4G1,3SA4EMRVKYI00KKCICLEW0FTGRS0PA,3VZLGYJEYPQ5XXQNYZDPLW05U9IXZI,2,1
101,1,object_03,object_05,457.70000004768,2,1,434.89999997616,0.0,2,object_09,1,883,0,1,0,desert_5,1,memory-2step-stake-s,594,1619188,0.0-19.0-0.0-0.101,A3CIPN7E1VL4G1,3SA4EMRVKYI00KKCICLEW0FTGRS0PA,3VZLGYJEYPQ5XXQNYZDPLW05U9IXZI,2,1
102,3,object_07,object_08,774.69999998808,6,2,371.89999997616,0.0,2,object_09,5,883,0,2,0,library_6,1,memory-2step-stake-s,595,1626803,0.0-19.0-0.0-0.102,A3CIPN7E1VL4G1,3SA4EMRVKYI00KKCICLEW0FTGRS0PA,3VZLGYJEYPQ5XXQNYZDPLW05U9IXZI,5,6
103,2,object_10,object_06,715.30000001192,3,2,329.10000002384,0.4444444444444444,1,object_04,1,887,0,4,1,forest_2,1,memory-2step-stake-s,596,1634789,0.0-19.0-0.0-0.103,A3CIPN7E1VL4G1,3SA4EMRVKYI00KKCICLEW0FTGRS0PA,3VZLGYJEYPQ5XXQNYZDPLW05U9IXZI,4,3
104,3,object_08,object_07,845.5,5,2,629.30000001192,0.3333333333333333,1,object_04,5,902,0,3,4,library_6,1,memory-2step-stake-s,597,1642986,0.0-19.0-0.0-0.104,A3CIPN7E1VL4G1,3SA4EMRVKYI00KKCICLEW0FTGRS0PA,3VZLGYJEYPQ5XXQNYZDPLW05U9IXZI,6,5
105,2,object_10,object_06,794.0,3,2,508.20000004768,0.5555555555555556,1,object_04,5,927,0,5,5,forest_7,1,memory-2step-stake-s,598,1651272,0.0-19.0-0.0-0.105,A3CIPN7E1VL4G1,3SA4EMRVKYI00KKCICLEW0FTGRS0PA,3VZLGYJEYPQ5XXQNYZDPLW05U9IXZI,4,3
106,1,object_03,object_05,1047.5,1,2,391.20000004768,0.8888888888888888,1,object_04,5,967,0,8,5,desert_3,1,memory-2step-stake-s,599,1659725,0.0-19.0-0.0-0.106,A3CIPN7E1VL4G1,3SA4EMRVKYI00KKCICLEW0FTGRS0PA,3VZLGYJEYPQ5XXQNYZDPLW05U9IXZI,2,1
107,1,object_05,object_03,833.0,1,1,354.30000001192,0.8888888888888888,1,object_04,1,975,0,8,3,desert_8,1,memory-2step-stake-s,600,1668161,0.0-19.0-0.0-0.107,A3CIPN7E1VL4G1,3SA4EMRVKYI00KKCICLEW0FTGRS0PA,3VZLGYJEYPQ5XXQNYZDPLW05U9IXZI,1,2
108,4,object_01,object_02,843.69999998808,7,1,328.09999996424,0.7777777777777778,1,object_04,5,1010,0,7,3,restaurant_8,1,memory-2step-stake-s,601,1676486,0.0-19.0-0.0-0.108,A3CIPN7E1VL4G1,3SA4EMRVKYI00KKCICLEW0FTGRS0PA,3VZLGYJEYPQ5XXQNYZDPLW05U9IXZI,7,8
109,4,object_01,object_02,670.10000002384,7,1,513.5,0.8888888888888888,1,object_04,5,1050,0,8,6,restaurant_6,1,memory-2step-stake-s,602,1685097,0.0-19.0-0.0-0.109,A3CIPN7E1VL4G1,3SA4EMRVKYI00KKCICLEW0FTGRS0PA,3VZLGYJEYPQ5XXQNYZDPLW05U9IXZI,7,8
110,3,object_08,object_07,812.5,6,1,312.30000001192,0.5555555555555556,2,object_09,5,1075,0,8,5,library_1,1,memory-2step-stake-s,603,1693196,0.0-19.0-0.0-0.110,A3CIPN7E1VL4G1,3SA4EMRVKYI00KKCICLEW0FTGRS0PA,3VZLGYJEYPQ5XXQNYZDPLW05U9IXZI,6,5
111,1,object_05,object_03,620.10000002384,2,2,589.90000003576,0.4444444444444444,2,object_09,1,1079,0,5,4,desert_5,1,memory-2step-stake-s,604,1701463,0.0-19.0-0.0-0.111,A3CIPN7E1VL4G1,3SA4EMRVKYI00KKCICLEW0FTGRS0PA,3VZLGYJEYPQ5XXQNYZDPLW05U9IXZI,1,2
112,4,object_01,object_02,393.59999996424,7,1,210.59999996424,0.7777777777777778,1,object_04,5,1114,0,7,3,restaurant_8,1,memory-2step-stake-s,605,1709645,0.0-19.0-0.0-0.112,A3CIPN7E1VL4G1,3SA4EMRVKYI00KKCICLEW0FTGRS0PA,3VZLGYJEYPQ5XXQNYZDPLW05U9IXZI,7,8
113,1,object_05,object_03,698.80000001192,2,2,395.60000002384,0.3333333333333333,2,object_09,1,1117,0,9,3,desert_8,1,memory-2step-stake-s,606,1717614,0.0-19.0-0.0-0.113,A3CIPN7E1VL4G1,3SA4EMRVKYI00KKCICLEW0FTGRS0PA,3VZLGYJEYPQ5XXQNYZDPLW05U9IXZI,1,2
114,2,object_06,object_10,699.19999998808,4,2,338.5,0.3333333333333333,2,object_09,1,1120,0,7,3,forest_3,1,memory-2step-stake-s,607,1725519,0.0-19.0-0.0-0.114,A3CIPN7E1VL4G1,3SA4EMRVKYI00KKCICLEW0FTGRS0PA,3VZLGYJEYPQ5XXQNYZDPLW05U9IXZI,3,4
115,2,object_06,object_10,531.89999997616,4,2,278.0,0.3333333333333333,2,object_09,1,1123,0,8,3,forest_2,1,memory-2step-stake-s,608,1733389,0.0-19.0-0.0-0.115,A3CIPN7E1VL4G1,3SA4EMRVKYI00KKCICLEW0FTGRS0PA,3VZLGYJEYPQ5XXQNYZDPLW05U9IXZI,3,4
116,3,object_08,object_07,936.80000001192,5,2,879.5,0.8888888888888888,1,object_04,5,1163,0,8,2,library_1,1,memory-2step-stake-s,609,1742370,0.0-19.0-0.0-0.116,A3CIPN7E1VL4G1,3SA4EMRVKYI00KKCICLEW0FTGRS0PA,3VZLGYJEYPQ5XXQNYZDPLW05U9IXZI,6,5
117,2,object_10,object_06,600.90000003576,4,1,335.39999997616,0.0,2,object_09,1,1163,0,7,0,forest_8,1,memory-2step-stake-s,610,1749950,0.0-19.0-0.0-0.117,A3CIPN7E1VL4G1,3SA4EMRVKYI00KKCICLEW0FTGRS0PA,3VZLGYJEYPQ5XXQNYZDPLW05U9IXZI,4,3
118,4,object_01,object_02,434.80000001192,8,2,322.5,0.2222222222222222,2,object_09,5,1173,0,7,2,restaurant_6,1,memory-2step-stake-s,611,1757756,0.0-19.0-0.0-0.118,A3CIPN7E1VL4G1,3SA4EMRVKYI00KKCICLEW0FTGRS0PA,3VZLGYJEYPQ5XXQNYZDPLW05U9IXZI,7,8
119,1,object_03,object_05,621.29999995232,1,2,443.90000003576,0.5555555555555556,1,object_04,1,1178,0,5,2,desert_3,1,memory-2step-stake-s,612,1765992,0.0-19.0-0.0-0.119,A3CIPN7E1VL4G1,3SA4EMRVKYI00KKCICLEW0FTGRS0PA,3VZLGYJEYPQ5XXQNYZDPLW05U9IXZI,2,1
120,2,object_06,object_10,336.69999998808,3,1,321.0,0.5555555555555556,1,object_04,1,1183,0,5,3,forest_7,1,memory-2step-stake-s,613,1774108,0.0-19.0-0.0-0.120,A3CIPN7E1VL4G1,3SA4EMRVKYI00KKCICLEW0FTGRS0PA,3VZLGYJEYPQ5XXQNYZDPLW05U9IXZI,3,4
121,2,object_06,object_10,551.89999997616,4,2,358.30000001192,0.2222222222222222,2,object_09,1,1185,0,5,2,forest_8,1,memory-2step-stake-s,614,1781922,0.0-19.0-0.0-0.121,A3CIPN7E1VL4G1,3SA4EMRVKYI00KKCICLEW0FTGRS0PA,3VZLGYJEYPQ5XXQNYZDPLW05U9IXZI,3,4
122,3,object_08,object_07,552.29999995232,5,2,964.60000002384,0.4444444444444444,1,object_04,5,1205,0,4,4,library_4,1,memory-2step-stake-s,615,1790546,0.0-19.0-0.0-0.122,A3CIPN7E1VL4G1,3SA4EMRVKYI00KKCICLEW0FTGRS0PA,3VZLGYJEYPQ5XXQNYZDPLW05U9IXZI,6,5
123,3,object_08,object_07,342.69999998808,6,1,352.40000003576,0.4444444444444444,2,object_09,5,1225,0,6,4,library_4,1,memory-2step-stake-s,616,1798585,0.0-19.0-0.0-0.123,A3CIPN7E1VL4G1,3SA4EMRVKYI00KKCICLEW0FTGRS0PA,3VZLGYJEYPQ5XXQNYZDPLW05U9IXZI,6,5
124,3,object_08,object_07,341.10000002384,5,2,1189.8999999762,0.4444444444444444,1,object_04,5,1245,0,4,2,library_6,1,memory-2step-stake-s,617,1807448,0.0-19.0-0.0-0.124,A3CIPN7E1VL4G1,3SA4EMRVKYI00KKCICLEW0FTGRS0PA,3VZLGYJEYPQ5XXQNYZDPLW05U9IXZI,6,5
125,2,object_06,object_10,384.30000001192,3,1,412.19999998808,0.2222222222222222,1,object_04,1,1247,0,2,5,forest_3,1,memory-2step-stake-s,618,1815334,0.0-19.0-0.0-0.125,A3CIPN7E1VL4G1,3SA4EMRVKYI00KKCICLEW0FTGRS0PA,3VZLGYJEYPQ5XXQNYZDPLW05U9IXZI,3,4
126,4,object_02,object_01,594.60000002384,7,2,379.80000001192,0.1111111111111111,1,object_04,1,1248,0,1,6,restaurant_8,1,memory-2step-stake-s,619,1823072,0.0-19.0-0.0-0.126,A3CIPN7E1VL4G1,3SA4EMRVKYI00KKCICLEW0FTGRS0PA,3VZLGYJEYPQ5XXQNYZDPLW05U9IXZI,8,7
127,2,object_06,object_10,414.0,3,1,-1.0,0.0,1,object_04,1,1248,0,1,6,forest_8,1,memory-2step-stake-s,620,1831641,0.0-19.0-0.0-0.127,A3CIPN7E1VL4G1,3SA4EMRVKYI00KKCICLEW0FTGRS0PA,3VZLGYJEYPQ5XXQNYZDPLW05U9IXZI,3,4
128,3,object_07,object_08,529.60000002384,6,2,309.19999998808,0.4444444444444444,2,object_09,5,1268,0,3,4,library_5,1,memory-2step-stake-s,622,1964055,0.0-19.0-0.1-0.128,A3CIPN7E1VL4G1,3SA4EMRVKYI00KKCICLEW0FTGRS0PA,3VZLGYJEYPQ5XXQNYZDPLW05U9IXZI,5,6
129,2,object_10,object_06,306.59999996424,4,1,342.39999997616,0.4444444444444444,2,object_09,1,1272,0,2,4,forest_3,1,memory-2step-stake-s,623,1972086,0.0-19.0-0.1-0.129,A3CIPN7E1VL4G1,3SA4EMRVKYI00KKCICLEW0FTGRS0PA,3VZLGYJEYPQ5XXQNYZDPLW05U9IXZI,4,3
130,1,object_03,object_05,288.90000003576,1,2,1058.3999999762,0.1111111111111111,1,object_04,1,1273,0,1,6,desert_1,1,memory-2step-stake-s,624,1980519,0.0-19.0-0.1-0.130,A3CIPN7E1VL4G1,3SA4EMRVKYI00KKCICLEW0FTGRS0PA,3VZLGYJEYPQ5XXQNYZDPLW05U9IXZI,2,1
131,4,object_02,object_01,285.5,8,1,324.59999996424,0.6666666666666666,2,object_09,5,1303,0,3,6,restaurant_6,1,memory-2step-stake-s,625,1988722,0.0-19.0-0.1-0.131,A3CIPN7E1VL4G1,3SA4EMRVKYI00KKCICLEW0FTGRS0PA,3VZLGYJEYPQ5XXQNYZDPLW05U9IXZI,8,7
132,4,object_01,object_02,456.19999998808,8,2,483.69999998808,0.6666666666666666,2,object_09,5,1333,0,1,6,restaurant_3,1,memory-2step-stake-s,626,1997089,0.0-19.0-0.1-0.132,A3CIPN7E1VL4G1,3SA4EMRVKYI00KKCICLEW0FTGRS0PA,3VZLGYJEYPQ5XXQNYZDPLW05U9IXZI,7,8
133,4,object_02,object_01,612.19999998808,7,2,340.30000001192,0.2222222222222222,1,object_04,5,1343,0,2,5,restaurant_2,1,memory-2step-stake-s,627,2004886,0.0-19.0-0.1-0.133,A3CIPN7E1VL4G1,3SA4EMRVKYI00KKCICLEW0FTGRS0PA,3VZLGYJEYPQ5XXQNYZDPLW05U9IXZI,8,7
134,2,object_10,object_06,442.0,4,1,339.89999997616,0.5555555555555556,2,object_09,1,1348,0,0,5,forest_8,1,memory-2step-stake-s,628,2013036,0.0-19.0-0.1-0.134,A3CIPN7E1VL4G1,3SA4EMRVKYI00KKCICLEW0FTGRS0PA,3VZLGYJEYPQ5XXQNYZDPLW05U9IXZI,4,3
135,1,object_03,object_05,847.5,1,2,775.30000001192,0.2222222222222222,1,object_04,5,1358,0,2,7,desert_1,1,memory-2step-stake-s,629,2021287,0.0-19.0-0.1-0.135,A3CIPN7E1VL4G1,3SA4EMRVKYI00KKCICLEW0FTGRS0PA,3VZLGYJEYPQ5XXQNYZDPLW05U9IXZI,2,1
136,2,object_10,object_06,545.40000003576,3,2,880.5,0.1111111111111111,1,object_04,5,1363,0,1,8,forest_7,1,memory-2step-stake-s,630,2029522,0.0-19.0-0.1-0.136,A3CIPN7E1VL4G1,3SA4EMRVKYI00KKCICLEW0FTGRS0PA,3VZLGYJEYPQ5XXQNYZDPLW05U9IXZI,4,3
137,1,object_03,object_05,816.0,1,2,307.29999995232,0.0,1,object_04,5,1363,0,0,8,desert_3,1,memory-2step-stake-s,631,2037084,0.0-19.0-0.1-0.137,A3CIPN7E1VL4G1,3SA4EMRVKYI00KKCICLEW0FTGRS0PA,3VZLGYJEYPQ5XXQNYZDPLW05U9IXZI,2,1
138,1,object_03,object_05,464.30000001192,2,1,295.89999997616,0.6666666666666666,2,object_09,1,1369,0,0,6,desert_1,1,memory-2step-stake-s,632,2045275,0.0-19.0-0.1-0.138,A3CIPN7E1VL4G1,3SA4EMRVKYI00KKCICLEW0FTGRS0PA,3VZLGYJEYPQ5XXQNYZDPLW05U9IXZI,2,1
139,3,object_08,object_07,382.19999998808,5,2,281.80000001192,0.3333333333333333,1,object_04,5,1384,0,3,8,library_1,1,memory-2step-stake-s,633,2053138,0.0-19.0-0.1-0.139,A3CIPN7E1VL4G1,3SA4EMRVKYI00KKCICLEW0FTGRS0PA,3VZLGYJEYPQ5XXQNYZDPLW05U9IXZI,6,5
140,3,object_08,object_07,732.30000001192,6,1,291.09999996424,0.7777777777777778,2,object_09,5,1419,0,3,7,library_4,1,memory-2step-stake-s,634,2061426,0.0-19.0-0.1-0.140,A3CIPN7E1VL4G1,3SA4EMRVKYI00KKCICLEW0FTGRS0PA,3VZLGYJEYPQ5XXQNYZDPLW05U9IXZI,6,5
141,4,object_02,object_01,693.69999998808,7,2,381.0,0.5555555555555556,1,object_04,5,1444,0,5,4,restaurant_8,1,memory-2step-stake-s,635,2069566,0.0-19.0-0.1-0.141,A3CIPN7E1VL4G1,3SA4EMRVKYI00KKCICLEW0FTGRS0PA,3VZLGYJEYPQ5XXQNYZDPLW05U9IXZI,8,7
142,1,object_05,object_03,393.69999998808,1,1,336.79999995232,0.8888888888888888,1,object_04,1,1452,0,8,5,desert_8,1,memory-2step-stake-s,636,2077964,0.0-19.0-0.1-0.142,A3CIPN7E1VL4G1,3SA4EMRVKYI00KKCICLEW0FTGRS0PA,3VZLGYJEYPQ5XXQNYZDPLW05U9IXZI,1,2
143,2,object_06,object_10,481.5,3,1,705.10000002384,0.5555555555555556,1,object_04,1,1457,0,5,5,forest_3,1,memory-2step-stake-s,637,2086432,0.0-19.0-0.1-0.143,A3CIPN7E1VL4G1,3SA4EMRVKYI00KKCICLEW0FTGRS0PA,3VZLGYJEYPQ5XXQNYZDPLW05U9IXZI,3,4
144,4,object_02,object_01,395.59999996424,8,1,1137.2999999523,0.7777777777777778,2,object_09,5,1492,0,3,7,restaurant_6,1,memory-2step-stake-s,638,2095575,0.0-19.0-0.1-0.144,A3CIPN7E1VL4G1,3SA4EMRVKYI00KKCICLEW0FTGRS0PA,3VZLGYJEYPQ5XXQNYZDPLW05U9IXZI,8,7
145,2,object_10,object_06,422.5,3,2,406.80000001192,0.4444444444444444,1,object_04,1,1496,0,4,7,forest_8,1,memory-2step-stake-s,639,2103661,0.0-19.0-0.1-0.145,A3CIPN7E1VL4G1,3SA4EMRVKYI00KKCICLEW0FTGRS0PA,3VZLGYJEYPQ5XXQNYZDPLW05U9IXZI,4,3
146,2,object_06,object_10,603.59999996424,4,2,-1.0,0.0,2,object_09,5,1496,0,3,9,forest_7,1,memory-2step-stake-s,640,2112215,0.0-19.0-0.1-0.146,A3CIPN7E1VL4G1,3SA4EMRVKYI00KKCICLEW0FTGRS0PA,3VZLGYJEYPQ5XXQNYZDPLW05U9IXZI,3,4
147,2,object_06,object_10,447.89999997616,3,1,645.60000002384,0.3333333333333333,1,object_04,5,1511,0,3,8,forest_8,1,memory-2step-stake-s,641,2120427,0.0-19.0-0.1-0.147,A3CIPN7E1VL4G1,3SA4EMRVKYI00KKCICLEW0FTGRS0PA,3VZLGYJEYPQ5XXQNYZDPLW05U9IXZI,3,4
148,1,object_05,object_03,517.69999998808,1,1,469.40000003576,0.5555555555555556,1,object_04,1,1516,0,5,5,desert_8,1,memory-2step-stake-s,642,2128666,0.0-19.0-0.1-0.148,A3CIPN7E1VL4G1,3SA4EMRVKYI00KKCICLEW0FTGRS0PA,3VZLGYJEYPQ5XXQNYZDPLW05U9IXZI,1,2
149,3,object_07,object_08,657.5,6,2,322.79999995232,0.7777777777777778,2,object_09,5,1551,0,6,7,library_5,1,memory-2step-stake-s,643,2136971,0.0-19.0-0.1-0.149,A3CIPN7E1VL4G1,3SA4EMRVKYI00KKCICLEW0FTGRS0PA,3VZLGYJEYPQ5XXQNYZDPLW05U9IXZI,5,6
150,3,object_08,object_07,714.30000001192,6,1,435.79999995232,0.7777777777777778,2,object_09,1,1558,0,7,7,library_5,1,memory-2step-stake-s,644,2145391,0.0-19.0-0.1-0.150,A3CIPN7E1VL4G1,3SA4EMRVKYI00KKCICLEW0FTGRS0PA,3VZLGYJEYPQ5XXQNYZDPLW05U9IXZI,6,5
151,1,object_03,object_05,370.40000003576,1,2,424.10000002384,0.8888888888888888,1,object_04,5,1598,0,8,3,desert_8,1,memory-2step-stake-s,645,2153885,0.0-19.0-0.1-0.151,A3CIPN7E1VL4G1,3SA4EMRVKYI00KKCICLEW0FTGRS0PA,3VZLGYJEYPQ5XXQNYZDPLW05U9IXZI,2,1
152,3,object_08,object_07,510.0,6,1,479.19999998808,0.4444444444444444,2,object_09,5,1618,0,5,4,library_1,1,memory-2step-stake-s,646,2162028,0.0-19.0-0.1-0.152,A3CIPN7E1VL4G1,3SA4EMRVKYI00KKCICLEW0FTGRS0PA,3VZLGYJEYPQ5XXQNYZDPLW05U9IXZI,6,5
153,3,object_08,object_07,636.60000002384,6,1,113.09999996424,0.7777777777777778,2,object_09,1,1625,0,5,7,library_4,1,memory-2step-stake-s,647,2170143,0.0-19.0-0.1-0.153,A3CIPN7E1VL4G1,3SA4EMRVKYI00KKCICLEW0FTGRS0PA,3VZLGYJEYPQ5XXQNYZDPLW05U9IXZI,6,5
154,2,object_10,object_06,5.8999999761581,3,2,692.0,0.7777777777777778,1,object_04,1,1632,0,7,8,forest_8,1,memory-2step-stake-s,648,2178818,0.0-19.0-0.1-0.154,A3CIPN7E1VL4G1,3SA4EMRVKYI00KKCICLEW0FTGRS0PA,3VZLGYJEYPQ5XXQNYZDPLW05U9IXZI,4,3
155,3,object_08,object_07,519.19999998808,5,2,736.19999998808,0.7777777777777778,1,object_04,5,1667,0,7,8,library_1,1,memory-2step-stake-s,649,2187539,0.0-19.0-0.1-0.155,A3CIPN7E1VL4G1,3SA4EMRVKYI00KKCICLEW0FTGRS0PA,3VZLGYJEYPQ5XXQNYZDPLW05U9IXZI,6,5
156,4,object_02,object_01,462.69999998808,7,2,1281.1999999881,0.8888888888888888,1,object_04,5,1707,0,8,8,restaurant_3,1,memory-2step-stake-s,650,2196910,0.0-19.0-0.1-0.156,A3CIPN7E1VL4G1,3SA4EMRVKYI00KKCICLEW0FTGRS0PA,3VZLGYJEYPQ5XXQNYZDPLW05U9IXZI,8,7
157,1,object_05,object_03,438.89999997616,1,1,545.5,0.5555555555555556,1,object_04,1,1712,0,5,6,desert_3,1,memory-2step-stake-s,651,2205240,0.0-19.0-0.1-0.157,A3CIPN7E1VL4G1,3SA4EMRVKYI00KKCICLEW0FTGRS0PA,3VZLGYJEYPQ5XXQNYZDPLW05U9IXZI,1,2
158,2,object_10,object_06,792.59999996424,4,1,333.39999997616,0.7777777777777778,2,object_09,1,1719,0,7,7,forest_8,1,memory-2step-stake-s,652,2213552,0.0-19.0-0.1-0.158,A3CIPN7E1VL4G1,3SA4EMRVKYI00KKCICLEW0FTGRS0PA,3VZLGYJEYPQ5XXQNYZDPLW05U9IXZI,4,3
159,3,object_07,object_08,328.5,5,1,1027.5999999642,0.5555555555555556,1,object_04,5,1744,0,5,6,library_4,1,memory-2step-stake-s,653,2222392,0.0-19.0-0.1-0.159,A3CIPN7E1VL4G1,3SA4EMRVKYI00KKCICLEW0FTGRS0PA,3VZLGYJEYPQ5XXQNYZDPLW05U9IXZI,5,6
160,4,object_01,object_02,587.5,7,1,527.90000003576,0.5555555555555556,1,object_04,5,1769,0,5,7,restaurant_3,1,memory-2step-stake-s,654,2230700,0.0-19.0-0.1-0.160,A3CIPN7E1VL4G1,3SA4EMRVKYI00KKCICLEW0FTGRS0PA,3VZLGYJEYPQ5XXQNYZDPLW05U9IXZI,7,8
161,3,object_08,object_07,501.5,5,2,357.09999996424,0.8888888888888888,1,object_04,1,1777,0,8,8,library_6,1,memory-2step-stake-s,655,2239136,0.0-19.0-0.1-0.161,A3CIPN7E1VL4G1,3SA4EMRVKYI00KKCICLEW0FTGRS0PA,3VZLGYJEYPQ5XXQNYZDPLW05U9IXZI,6,5
162,2,object_06,object_10,590.0,3,1,348.60000002384,0.8888888888888888,1,object_04,5,1817,0,8,8,forest_7,1,memory-2step-stake-s,656,2247569,0.0-19.0-0.1-0.162,A3CIPN7E1VL4G1,3SA4EMRVKYI00KKCICLEW0FTGRS0PA,3VZLGYJEYPQ5XXQNYZDPLW05U9IXZI,3,4
163,3,object_07,object_08,378.80000001192,6,2,289.30000001192,0.8888888888888888,2,object_09,1,1825,0,7,8,library_5,1,memory-2step-stake-s,657,2255923,0.0-19.0-0.1-0.163,A3CIPN7E1VL4G1,3SA4EMRVKYI00KKCICLEW0FTGRS0PA,3VZLGYJEYPQ5XXQNYZDPLW05U9IXZI,5,6
164,2,object_10,object_06,860.60000002384,3,2,386.09999996424,0.5555555555555556,1,object_04,1,1830,0,5,8,forest_7,1,memory-2step-stake-s,658,2264073,0.0-19.0-0.1-0.164,A3CIPN7E1VL4G1,3SA4EMRVKYI00KKCICLEW0FTGRS0PA,3VZLGYJEYPQ5XXQNYZDPLW05U9IXZI,4,3
165,4,object_01,object_02,768.19999998808,7,1,404.80000001192,0.8888888888888888,1,object_04,5,1870,0,8,9,restaurant_3,1,memory-2step-stake-s,659,2272566,0.0-19.0-0.1-0.165,A3CIPN7E1VL4G1,3SA4EMRVKYI00KKCICLEW0FTGRS0PA,3VZLGYJEYPQ5XXQNYZDPLW05U9IXZI,7,8
166,4,object_01,object_02,866.0,7,1,393.40000003576,1.0,1,object_04,5,1915,0,9,9,restaurant_3,1,memory-2step-stake-s,660,2281181,0.0-19.0-0.1-0.166,A3CIPN7E1VL4G1,3SA4EMRVKYI00KKCICLEW0FTGRS0PA,3VZLGYJEYPQ5XXQNYZDPLW05U9IXZI,7,8
167,1,object_05,object_03,783.40000003576,2,2,310.69999998808,1.0,2,object_09,5,1960,0,6,9,desert_3,1,memory-2step-stake-s,661,2289706,0.0-19.0-0.1-0.167,A3CIPN7E1VL4G1,3SA4EMRVKYI00KKCICLEW0FTGRS0PA,3VZLGYJEYPQ5XXQNYZDPLW05U9IXZI,1,2
168,2,object_06,object_10,515.10000002384,3,1,283.59999996424,0.1111111111111111,1,object_04,1,1961,0,1,8,forest_2,1,memory-2step-stake-s,662,2297366,0.0-19.0-0.1-0.168,A3CIPN7E1VL4G1,3SA4EMRVKYI00KKCICLEW0FTGRS0PA,3VZLGYJEYPQ5XXQNYZDPLW05U9IXZI,3,4
169,3,object_07,object_08,590.40000003576,6,2,291.29999995232,0.7777777777777778,2,object_09,5,1996,0,1,7,library_1,1,memory-2step-stake-s,663,2305649,0.0-19.0-0.1-0.169,A3CIPN7E1VL4G1,3SA4EMRVKYI00KKCICLEW0FTGRS0PA,3VZLGYJEYPQ5XXQNYZDPLW05U9IXZI,5,6
170,3,object_07,object_08,550.0,6,2,291.90000003576,0.7777777777777778,2,object_09,5,2031,0,1,7,library_1,1,memory-2step-stake-s,664,2313939,0.0-19.0-0.1-0.170,A3CIPN7E1VL4G1,3SA4EMRVKYI00KKCICLEW0FTGRS0PA,3VZLGYJEYPQ5XXQNYZDPLW05U9IXZI,5,6
171,4,object_01,object_02,782.89999997616,8,2,309.20000004768,0.7777777777777778,2,object_09,1,2038,0,2,7,restaurant_3,1,memory-2step-stake-s,665,2322227,0.0-19.0-0.1-0.171,A3CIPN7E1VL4G1,3SA4EMRVKYI00KKCICLEW0FTGRS0PA,3VZLGYJEYPQ5XXQNYZDPLW05U9IXZI,7,8
172,3,object_08,object_07,860.30000001192,6,1,304.30000001192,0.5555555555555556,2,object_09,5,2063,0,2,5,library_6,1,memory-2step-stake-s,666,2330296,0.0-19.0-0.1-0.172,A3CIPN7E1VL4G1,3SA4EMRVKYI00KKCICLEW0FTGRS0PA,3VZLGYJEYPQ5XXQNYZDPLW05U9IXZI,6,5
173,3,object_07,object_08,686.5,6,2,374.79999995232,0.2222222222222222,2,object_09,5,2073,0,1,2,library_6,1,memory-2step-stake-s,667,2338116,0.0-19.0-0.1-0.173,A3CIPN7E1VL4G1,3SA4EMRVKYI00KKCICLEW0FTGRS0PA,3VZLGYJEYPQ5XXQNYZDPLW05U9IXZI,5,6
174,2,object_06,object_10,607.59999996424,4,2,308.90000003576,0.6666666666666666,2,object_09,1,2079,0,4,6,forest_7,1,memory-2step-stake-s,668,2346333,0.0-19.0-0.1-0.174,A3CIPN7E1VL4G1,3SA4EMRVKYI00KKCICLEW0FTGRS0PA,3VZLGYJEYPQ5XXQNYZDPLW05U9IXZI,3,4
175,1,object_03,object_05,284.0,1,2,371.0,0.5555555555555556,1,object_04,1,2084,0,5,8,desert_3,1,memory-2step-stake-s,669,2354473,0.0-19.0-0.1-0.175,A3CIPN7E1VL4G1,3SA4EMRVKYI00KKCICLEW0FTGRS0PA,3VZLGYJEYPQ5XXQNYZDPLW05U9IXZI,2,1
176,2,object_10,object_06,332.69999998808,4,1,276.69999998808,0.7777777777777778,2,object_09,5,2119,0,8,7,forest_2,1,memory-2step-stake-s,670,2362741,0.0-19.0-0.1-0.176,A3CIPN7E1VL4G1,3SA4EMRVKYI00KKCICLEW0FTGRS0PA,3VZLGYJEYPQ5XXQNYZDPLW05U9IXZI,4,3
177,3,object_07,object_08,375.80000001192,6,2,297.5,0.5555555555555556,2,object_09,1,2124,0,7,5,library_4,1,memory-2step-stake-s,671,2370795,0.0-19.0-0.1-0.177,A3CIPN7E1VL4G1,3SA4EMRVKYI00KKCICLEW0FTGRS0PA,3VZLGYJEYPQ5XXQNYZDPLW05U9IXZI,5,6
178,2,object_10,object_06,725.0,3,2,445.30000001192,0.7777777777777778,1,object_04,1,2131,0,7,1,forest_2,1,memory-2step-stake-s,672,2379210,0.0-19.0-0.1-0.178,A3CIPN7E1VL4G1,3SA4EMRVKYI00KKCICLEW0FTGRS0PA,3VZLGYJEYPQ5XXQNYZDPLW05U9IXZI,4,3
179,3,object_08,object_07,481.30000001192,5,2,358.0,0.8888888888888888,1,object_04,5,2171,0,8,1,library_4,1,memory-2step-stake-s,673,2387646,0.0-19.0-0.1-0.179,A3CIPN7E1VL4G1,3SA4EMRVKYI00KKCICLEW0FTGRS0PA,3VZLGYJEYPQ5XXQNYZDPLW05U9IXZI,6,5
180,3,object_07,object_08,627.80000001192,5,1,405.0,1.0,1,object_04,5,2216,0,9,0,library_5,1,memory-2step-stake-s,674,2396265,0.0-19.0-0.1-0.180,A3CIPN7E1VL4G1,3SA4EMRVKYI00KKCICLEW0FTGRS0PA,3VZLGYJEYPQ5XXQNYZDPLW05U9IXZI,5,6
181,4,object_02,object_01,689.39999997616,7,2,498.5,1.0,1,object_04,5,2261,0,9,0,restaurant_6,1,memory-2step-stake-s,675,2404927,0.0-19.0-0.1-0.181,A3CIPN7E1VL4G1,3SA4EMRVKYI00KKCICLEW0FTGRS0PA,3VZLGYJEYPQ5XXQNYZDPLW05U9IXZI,8,7
182,4,object_01,object_02,619.89999997616,7,1,299.10000002384,0.8888888888888888,1,object_04,5,2301,0,8,2,restaurant_3,1,memory-2step-stake-s,676,2413333,0.0-19.0-0.1-0.182,A3CIPN7E1VL4G1,3SA4EMRVKYI00KKCICLEW0FTGRS0PA,3VZLGYJEYPQ5XXQNYZDPLW05U9IXZI,7,8
183,3,object_08,object_07,481.80000001192,5,2,285.20000004768,0.5555555555555556,1,object_04,5,2326,0,5,3,library_1,1,memory-2step-stake-s,677,2421378,0.0-19.0-0.1-0.183,A3CIPN7E1VL4G1,3SA4EMRVKYI00KKCICLEW0FTGRS0PA,3VZLGYJEYPQ5XXQNYZDPLW05U9IXZI,6,5
184,4,object_01,object_02,759.0,8,2,330.5,0.7777777777777778,2,object_09,5,2361,0,4,7,restaurant_2,1,memory-2step-stake-s,678,2429700,0.0-19.0-0.1-0.184,A3CIPN7E1VL4G1,3SA4EMRVKYI00KKCICLEW0FTGRS0PA,3VZLGYJEYPQ5XXQNYZDPLW05U9IXZI,7,8
185,4,object_01,object_02,527.19999998808,8,2,320.80000001192,0.7777777777777778,2,object_09,1,2368,0,5,7,restaurant_3,1,memory-2step-stake-s,679,2438030,0.0-19.0-0.1-0.185,A3CIPN7E1VL4G1,3SA4EMRVKYI00KKCICLEW0FTGRS0PA,3VZLGYJEYPQ5XXQNYZDPLW05U9IXZI,7,8
186,4,object_01,object_02,522.0,7,1,280.30000001192,0.6666666666666666,1,object_04,5,2398,0,6,6,restaurant_2,1,memory-2step-stake-s,680,2446224,0.0-19.0-0.1-0.186,A3CIPN7E1VL4G1,3SA4EMRVKYI00KKCICLEW0FTGRS0PA,3VZLGYJEYPQ5XXQNYZDPLW05U9IXZI,7,8
187,3,object_07,object_08,451.5,6,2,305.90000003576,0.5555555555555556,2,object_09,5,2423,0,7,5,library_4,1,memory-2step-stake-s,681,2454326,0.0-19.0-0.1-0.187,A3CIPN7E1VL4G1,3SA4EMRVKYI00KKCICLEW0FTGRS0PA,3VZLGYJEYPQ5XXQNYZDPLW05U9IXZI,5,6
188,2,object_06,object_10,369.60000002384,4,2,224.30000001192,0.1111111111111111,2,object_09,1,2424,0,5,1,forest_3,1,memory-2step-stake-s,682,2461927,0.0-19.0-0.1-0.188,A3CIPN7E1VL4G1,3SA4EMRVKYI00KKCICLEW0FTGRS0PA,3VZLGYJEYPQ5XXQNYZDPLW05U9IXZI,3,4
189,1,object_05,object_03,575.79999995232,2,2,348.79999995232,0.1111111111111111,2,object_09,1,2425,0,1,1,desert_1,1,memory-2step-stake-s,683,2469651,0.0-19.0-0.1-0.189,A3CIPN7E1VL4G1,3SA4EMRVKYI00KKCICLEW0FTGRS0PA,3VZLGYJEYPQ5XXQNYZDPLW05U9IXZI,1,2
190,2,object_06,object_10,381.60000002384,3,1,254.60000002384,0.2222222222222222,1,object_04,5,2435,0,2,4,forest_8,1,memory-2step-stake-s,684,2477370,0.0-19.0-0.1-0.190,A3CIPN7E1VL4G1,3SA4EMRVKYI00KKCICLEW0FTGRS0PA,3VZLGYJEYPQ5XXQNYZDPLW05U9IXZI,3,4
191,4,object_01,object_02,500.0,8,2,287.5,0.6666666666666666,2,object_09,5,2465,0,2,6,restaurant_8,1,memory-2step-stake-s,685,2485544,0.0-19.0-0.1-0.191,A3CIPN7E1VL4G1,3SA4EMRVKYI00KKCICLEW0FTGRS0PA,3VZLGYJEYPQ5XXQNYZDPLW05U9IXZI,7,8
192,1,object_03,object_05,510.69999998808,1,2,278.69999998808,0.1111111111111111,1,object_04,1,2466,0,1,6,desert_1,1,memory-2step-stake-s,686,2493190,0.0-19.0-0.1-0.192,A3CIPN7E1VL4G1,3SA4EMRVKYI00KKCICLEW0FTGRS0PA,3VZLGYJEYPQ5XXQNYZDPLW05U9IXZI,2,1
193,4,object_01,object_02,524.80000001192,8,2,329.89999997616,0.7777777777777778,2,object_09,5,2501,0,1,7,restaurant_2,1,memory-2step-stake-s,687,2501509,0.0-19.0-0.1-0.193,A3CIPN7E1VL4G1,3SA4EMRVKYI00KKCICLEW0FTGRS0PA,3VZLGYJEYPQ5XXQNYZDPLW05U9IXZI,7,8
194,1,object_05,object_03,625.5,1,1,295.79999995232,0.3333333333333333,1,object_04,1,2504,0,3,7,desert_1,1,memory-2step-stake-s,688,2509386,0.0-19.0-0.1-0.194,A3CIPN7E1VL4G1,3SA4EMRVKYI00KKCICLEW0FTGRS0PA,3VZLGYJEYPQ5XXQNYZDPLW05U9IXZI,1,2
195,1,object_03,object_05,351.60000002384,1,2,294.19999998808,0.1111111111111111,1,object_04,1,2505,0,1,7,desert_5,1,memory-2step-stake-s,689,2517020,0.0-19.0-0.1-0.195,A3CIPN7E1VL4G1,3SA4EMRVKYI00KKCICLEW0FTGRS0PA,3VZLGYJEYPQ5XXQNYZDPLW05U9IXZI,2,1
196,2,object_06,object_10,295.89999997616,3,1,333.30000001192,0.2222222222222222,1,object_04,1,2507,0,2,9,forest_2,1,memory-2step-stake-s,690,2524814,0.0-19.0-0.1-0.196,A3CIPN7E1VL4G1,3SA4EMRVKYI00KKCICLEW0FTGRS0PA,3VZLGYJEYPQ5XXQNYZDPLW05U9IXZI,3,4
197,1,object_03,object_05,491.19999998808,2,1,323.0,0.5555555555555556,2,object_09,1,2512,0,0,5,desert_5,1,memory-2step-stake-s,691,2532916,0.0-19.0-0.1-0.197,A3CIPN7E1VL4G1,3SA4EMRVKYI00KKCICLEW0FTGRS0PA,3VZLGYJEYPQ5XXQNYZDPLW05U9IXZI,2,1
198,3,object_07,object_08,410.5,5,1,296.90000003576,0.1111111111111111,1,object_04,1,2513,0,1,1,library_1,1,memory-2step-stake-s,692,2540575,0.0-19.0-0.1-0.198,A3CIPN7E1VL4G1,3SA4EMRVKYI00KKCICLEW0FTGRS0PA,3VZLGYJEYPQ5XXQNYZDPLW05U9IXZI,5,6
199,4,object_02,object_01,400.39999997616,7,2,807.39999997616,0.4444444444444444,1,object_04,5,2533,0,4,0,restaurant_6,1,memory-2step-stake-s,693,2549059,0.0-19.0-0.1-0.199,A3CIPN7E1VL4G1,3SA4EMRVKYI00KKCICLEW0FTGRS0PA,3VZLGYJEYPQ5XXQNYZDPLW05U9IXZI,8,7
200,2,object_06,object_10,588.39999997616,3,1,782.29999995232,0.1111111111111111,1,object_04,1,2534,0,1,1,forest_3,1,memory-2step-stake-s,694,2557198,0.0-19.0-0.1-0.200,A3CIPN7E1VL4G1,3SA4EMRVKYI00KKCICLEW0FTGRS0PA,3VZLGYJEYPQ5XXQNYZDPLW05U9IXZI,3,4
201,4,object_02,object_01,258.0,7,2,170.79999995232,0.1111111111111111,1,object_04,5,2539,0,1,0,restaurant_8,1,memory-2step-stake-s,695,2564739,0.0-19.0-0.1-0.201,A3CIPN7E1VL4G1,3SA4EMRVKYI00KKCICLEW0FTGRS0PA,3VZLGYJEYPQ5XXQNYZDPLW05U9IXZI,8,7
202,4,object_02,object_01,442.60000002384,8,1,1410.3000000119,0.3333333333333333,2,object_09,1,2542,0,5,3,restaurant_2,1,memory-2step-stake-s,696,2573732,0.0-19.0-0.1-0.202,A3CIPN7E1VL4G1,3SA4EMRVKYI00KKCICLEW0FTGRS0PA,3VZLGYJEYPQ5XXQNYZDPLW05U9IXZI,8,7
203,4,object_01,object_02,542.09999996424,7,1,-1.0,0.0,1,object_04,5,2542,0,4,3,restaurant_2,1,memory-2step-stake-s,697,2582289,0.0-19.0-0.1-0.203,A3CIPN7E1VL4G1,3SA4EMRVKYI00KKCICLEW0FTGRS0PA,3VZLGYJEYPQ5XXQNYZDPLW05U9IXZI,7,8
204,1,object_03,object_05,731.30000001192,2,1,965.30000001192,0.2222222222222222,2,object_09,1,2544,0,2,2,desert_3,1,memory-2step-stake-s,698,2590709,0.0-19.0-0.1-0.204,A3CIPN7E1VL4G1,3SA4EMRVKYI00KKCICLEW0FTGRS0PA,3VZLGYJEYPQ5XXQNYZDPLW05U9IXZI,2,1
205,1,object_03,object_05,445.90000003576,1,2,338.30000001192,0.4444444444444444,1,object_04,1,2548,0,4,4,desert_8,1,memory-2step-stake-s,699,2598721,0.0-19.0-0.1-0.205,A3CIPN7E1VL4G1,3SA4EMRVKYI00KKCICLEW0FTGRS0PA,3VZLGYJEYPQ5XXQNYZDPLW05U9IXZI,2,1
206,3,object_07,object_08,859.30000001192,5,1,784.90000003576,0.6666666666666666,1,object_04,5,2578,0,6,8,library_5,1,memory-2step-stake-s,700,2607371,0.0-19.0-0.1-0.206,A3CIPN7E1VL4G1,3SA4EMRVKYI00KKCICLEW0FTGRS0PA,3VZLGYJEYPQ5XXQNYZDPLW05U9IXZI,5,6
207,1,object_03,object_05,685.59999996424,1,2,617.0,0.7777777777777778,1,object_04,1,2585,0,7,5,desert_1,1,memory-2step-stake-s,701,2615998,0.0-19.0-0.1-0.207,A3CIPN7E1VL4G1,3SA4EMRVKYI00KKCICLEW0FTGRS0PA,3VZLGYJEYPQ5XXQNYZDPLW05U9IXZI,2,1
208,1,object_05,object_03,530.80000001192,1,1,120.19999998808,0.7777777777777778,1,object_04,1,2592,0,7,8,desert_8,1,memory-2step-stake-s,702,2624117,0.0-19.0-0.1-0.208,A3CIPN7E1VL4G1,3SA4EMRVKYI00KKCICLEW0FTGRS0PA,3VZLGYJEYPQ5XXQNYZDPLW05U9IXZI,1,2
209,1,object_03,object_05,566.80000001192,2,1,377.80000001192,0.8888888888888888,2,object_09,5,2632,0,4,8,desert_5,1,memory-2step-stake-s,703,2632590,0.0-19.0-0.1-0.209,A3CIPN7E1VL4G1,3SA4EMRVKYI00KKCICLEW0FTGRS0PA,3VZLGYJEYPQ5XXQNYZDPLW05U9IXZI,2,1
210,4,object_02,object_01,692.30000001192,7,2,520.89999997616,0.7777777777777778,1,object_04,5,2667,0,7,8,restaurant_2,1,memory-2step-stake-s,704,2641124,0.0-19.0-0.1-0.210,A3CIPN7E1VL4G1,3SA4EMRVKYI00KKCICLEW0FTGRS0PA,3VZLGYJEYPQ5XXQNYZDPLW05U9IXZI,8,7
211,4,object_02,object_01,856.5,7,2,373.39999997616,0.3333333333333333,1,object_04,5,2682,0,3,6,restaurant_8,1,memory-2step-stake-s,705,2649060,0.0-19.0-0.1-0.211,A3CIPN7E1VL4G1,3SA4EMRVKYI00KKCICLEW0FTGRS0PA,3VZLGYJEYPQ5XXQNYZDPLW05U9IXZI,8,7
212,2,object_10,object_06,657.19999998808,4,1,312.19999998808,0.6666666666666666,2,object_09,1,2688,0,4,6,forest_2,1,memory-2step-stake-s,706,2657265,0.0-19.0-0.1-0.212,A3CIPN7E1VL4G1,3SA4EMRVKYI00KKCICLEW0FTGRS0PA,3VZLGYJEYPQ5XXQNYZDPLW05U9IXZI,4,3
213,4,object_01,object_02,982.89999997616,8,2,347.89999997616,0.3333333333333333,2,object_09,1,2691,0,4,3,restaurant_2,1,memory-2step-stake-s,707,2665169,0.0-19.0-0.1-0.213,A3CIPN7E1VL4G1,3SA4EMRVKYI00KKCICLEW0FTGRS0PA,3VZLGYJEYPQ5XXQNYZDPLW05U9IXZI,7,8
214,3,object_07,object_08,865.5,6,2,549.19999998808,0.7777777777777778,2,object_09,1,2698,0,4,7,library_5,1,memory-2step-stake-s,708,2673674,0.0-19.0-0.1-0.214,A3CIPN7E1VL4G1,3SA4EMRVKYI00KKCICLEW0FTGRS0PA,3VZLGYJEYPQ5XXQNYZDPLW05U9IXZI,5,6
215,2,object_10,object_06,453.0,3,2,282.59999996424,0.0,1,object_04,1,2698,0,0,8,forest_3,1,memory-2step-stake-s,709,2681211,0.0-19.0-0.1-0.215,A3CIPN7E1VL4G1,3SA4EMRVKYI00KKCICLEW0FTGRS0PA,3VZLGYJEYPQ5XXQNYZDPLW05U9IXZI,4,3
216,4,object_02,object_01,677.69999998808,8,1,254.0,0.7777777777777778,2,object_09,5,2733,0,1,7,restaurant_2,1,memory-2step-stake-s,710,2689436,0.0-19.0-0.1-0.216,A3CIPN7E1VL4G1,3SA4EMRVKYI00KKCICLEW0FTGRS0PA,3VZLGYJEYPQ5XXQNYZDPLW05U9IXZI,8,7
217,1,object_03,object_05,658.19999998808,1,2,704.19999998808,0.1111111111111111,1,object_04,1,2734,0,1,6,desert_3,1,memory-2step-stake-s,711,2697494,0.0-19.0-0.1-0.217,A3CIPN7E1VL4G1,3SA4EMRVKYI00KKCICLEW0FTGRS0PA,3VZLGYJEYPQ5XXQNYZDPLW05U9IXZI,2,1
218,3,object_08,object_07,511.0,5,2,352.89999997616,0.0,1,object_04,5,2734,0,0,3,library_4,1,memory-2step-stake-s,712,2705099,0.0-19.0-0.1-0.218,A3CIPN7E1VL4G1,3SA4EMRVKYI00KKCICLEW0FTGRS0PA,3VZLGYJEYPQ5XXQNYZDPLW05U9IXZI,6,5
219,4,object_02,object_01,432.10000002384,8,1,272.19999998808,0.8888888888888888,2,object_09,1,2742,0,3,8,restaurant_8,1,memory-2step-stake-s,713,2713460,0.0-19.0-0.1-0.219,A3CIPN7E1VL4G1,3SA4EMRVKYI00KKCICLEW0FTGRS0PA,3VZLGYJEYPQ5XXQNYZDPLW05U9IXZI,8,7
220,3,object_07,object_08,860.90000003576,6,2,302.59999996424,0.7777777777777778,2,object_09,5,2777,0,9,7,library_1,1,memory-2step-stake-s,714,2721748,0.0-19.0-0.1-0.220,A3CIPN7E1VL4G1,3SA4EMRVKYI00KKCICLEW0FTGRS0PA,3VZLGYJEYPQ5XXQNYZDPLW05U9IXZI,5,6
221,3,object_08,object_07,781.69999998808,5,2,254.29999995232,0.6666666666666666,1,object_04,5,2807,0,6,9,library_4,1,memory-2step-stake-s,715,2729906,0.0-19.0-0.1-0.221,A3CIPN7E1VL4G1,3SA4EMRVKYI00KKCICLEW0FTGRS0PA,3VZLGYJEYPQ5XXQNYZDPLW05U9IXZI,6,5
222,4,object_01,object_02,461.30000001192,7,1,259.60000002384,0.7777777777777778,1,object_04,5,2842,0,7,8,restaurant_3,1,memory-2step-stake-s,716,2738156,0.0-19.0-0.1-0.222,A3CIPN7E1VL4G1,3SA4EMRVKYI00KKCICLEW0FTGRS0PA,3VZLGYJEYPQ5XXQNYZDPLW05U9IXZI,7,8
223,2,object_06,object_10,776.5,3,1,349.0,0.5555555555555556,1,object_04,1,2847,0,5,6,forest_8,1,memory-2step-stake-s,717,2746294,0.0-19.0-0.1-0.223,A3CIPN7E1VL4G1,3SA4EMRVKYI00KKCICLEW0FTGRS0PA,3VZLGYJEYPQ5XXQNYZDPLW05U9IXZI,3,4
224,2,object_06,object_10,493.90000003576,4,2,276.80000001192,0.5555555555555556,2,object_09,1,2852,0,2,5,forest_7,1,memory-2step-stake-s,718,2754386,0.0-19.0-0.1-0.224,A3CIPN7E1VL4G1,3SA4EMRVKYI00KKCICLEW0FTGRS0PA,3VZLGYJEYPQ5XXQNYZDPLW05U9IXZI,3,4
225,2,object_10,object_06,558.19999998808,4,1,558.80000001192,0.5555555555555556,2,object_09,1,2857,0,2,5,forest_2,1,memory-2step-stake-s,719,2762724,0.0-19.0-0.1-0.225,A3CIPN7E1VL4G1,3SA4EMRVKYI00KKCICLEW0FTGRS0PA,3VZLGYJEYPQ5XXQNYZDPLW05U9IXZI,4,3
226,4,object_02,object_01,499.0,7,2,329.30000001192,0.4444444444444444,1,object_04,5,2877,0,4,7,restaurant_8,1,memory-2step-stake-s,720,2770739,0.0-19.0-0.1-0.226,A3CIPN7E1VL4G1,3SA4EMRVKYI00KKCICLEW0FTGRS0PA,3VZLGYJEYPQ5XXQNYZDPLW05U9IXZI,8,7
227,3,object_07,object_08,634.09999996424,6,2,314.09999996424,0.6666666666666666,2,object_09,5,2907,0,5,6,library_1,1,memory-2step-stake-s,721,2778933,0.0-19.0-0.1-0.227,A3CIPN7E1VL4G1,3SA4EMRVKYI00KKCICLEW0FTGRS0PA,3VZLGYJEYPQ5XXQNYZDPLW05U9IXZI,5,6
228,1,object_05,object_03,541.70000004768,2,2,331.70000004768,0.2222222222222222,2,object_09,5,2917,0,7,2,desert_5,1,memory-2step-stake-s,722,2786741,0.0-19.0-0.1-0.228,A3CIPN7E1VL4G1,3SA4EMRVKYI00KKCICLEW0FTGRS0PA,3VZLGYJEYPQ5XXQNYZDPLW05U9IXZI,1,2
229,1,object_05,object_03,398.59999996424,2,2,286.40000003576,0.4444444444444444,2,object_09,1,2921,0,7,4,desert_1,1,memory-2step-stake-s,723,2794706,0.0-19.0-0.1-0.229,A3CIPN7E1VL4G1,3SA4EMRVKYI00KKCICLEW0FTGRS0PA,3VZLGYJEYPQ5XXQNYZDPLW05U9IXZI,1,2
230,1,object_03,object_05,621.0,2,1,540.89999997616,0.1111111111111111,2,object_09,1,2922,0,6,1,desert_8,1,memory-2step-stake-s,724,2802623,0.0-19.0-0.1-0.230,A3CIPN7E1VL4G1,3SA4EMRVKYI00KKCICLEW0FTGRS0PA,3VZLGYJEYPQ5XXQNYZDPLW05U9IXZI,2,1
231,3,object_07,object_08,344.30000001192,6,2,269.0,0.1111111111111111,2,object_09,5,2927,0,6,1,library_4,1,memory-2step-stake-s,725,2810255,0.0-19.0-0.1-0.231,A3CIPN7E1VL4G1,3SA4EMRVKYI00KKCICLEW0FTGRS0PA,3VZLGYJEYPQ5XXQNYZDPLW05U9IXZI,5,6
232,3,object_07,object_08,778.69999998808,6,2,862.59999996424,0.1111111111111111,2,object_09,1,2928,0,5,1,library_5,1,memory-2step-stake-s,726,2818472,0.0-19.0-0.1-0.232,A3CIPN7E1VL4G1,3SA4EMRVKYI00KKCICLEW0FTGRS0PA,3VZLGYJEYPQ5XXQNYZDPLW05U9IXZI,5,6
233,4,object_02,object_01,794.0,7,2,353.69999998808,0.5555555555555556,1,object_04,5,2953,0,5,4,restaurant_2,1,memory-2step-stake-s,727,2826604,0.0-19.0-0.1-0.233,A3CIPN7E1VL4G1,3SA4EMRVKYI00KKCICLEW0FTGRS0PA,3VZLGYJEYPQ5XXQNYZDPLW05U9IXZI,8,7
234,1,object_03,object_05,748.0,1,2,346.40000003576,0.6666666666666666,1,object_04,1,2959,0,6,3,desert_3,1,memory-2step-stake-s,728,2834861,0.0-19.0-0.1-0.234,A3CIPN7E1VL4G1,3SA4EMRVKYI00KKCICLEW0FTGRS0PA,3VZLGYJEYPQ5XXQNYZDPLW05U9IXZI,2,1
235,3,object_07,object_08,772.69999998808,6,2,361.30000001192,0.5555555555555556,2,object_09,5,2984,0,8,5,library_5,1,memory-2step-stake-s,729,2843001,0.0-19.0-0.1-0.235,A3CIPN7E1VL4G1,3SA4EMRVKYI00KKCICLEW0FTGRS0PA,3VZLGYJEYPQ5XXQNYZDPLW05U9IXZI,5,6
236,4,object_02,object_01,630.10000002384,7,2,265.0,0.7777777777777778,1,object_04,5,3019,0,7,2,restaurant_3,1,memory-2step-stake-s,730,2851250,0.0-19.0-0.1-0.236,A3CIPN7E1VL4G1,3SA4EMRVKYI00KKCICLEW0FTGRS0PA,3VZLGYJEYPQ5XXQNYZDPLW05U9IXZI,8,7
237,2,object_10,object_06,498.5,4,1,268.60000002384,0.3333333333333333,2,object_09,5,3034,0,7,3,forest_2,1,memory-2step-stake-s,731,2859101,0.0-19.0-0.1-0.237,A3CIPN7E1VL4G1,3SA4EMRVKYI00KKCICLEW0FTGRS0PA,3VZLGYJEYPQ5XXQNYZDPLW05U9IXZI,4,3
238,4,object_02,object_01,597.60000002384,7,2,354.29999995232,0.6666666666666666,1,object_04,5,3064,0,6,2,restaurant_6,1,memory-2step-stake-s,732,2867330,0.0-19.0-0.1-0.238,A3CIPN7E1VL4G1,3SA4EMRVKYI00KKCICLEW0FTGRS0PA,3VZLGYJEYPQ5XXQNYZDPLW05U9IXZI,8,7
239,3,object_07,object_08,787.0,6,2,327.40000003576,0.3333333333333333,2,object_09,5,3079,0,6,3,library_4,1,memory-2step-stake-s,733,2875226,0.0-19.0-0.1-0.239,A3CIPN7E1VL4G1,3SA4EMRVKYI00KKCICLEW0FTGRS0PA,3VZLGYJEYPQ5XXQNYZDPLW05U9IXZI,5,6
240,2,object_06,object_10,751.69999998808,4,2,305.09999996424,0.1111111111111111,2,object_09,1,3080,0,5,1,forest_2,1,memory-2step-stake-s,734,2882887,0.0-19.0-0.1-0.240,A3CIPN7E1VL4G1,3SA4EMRVKYI00KKCICLEW0FTGRS0PA,3VZLGYJEYPQ5XXQNYZDPLW05U9IXZI,3,4
241,2,object_06,object_10,664.5,4,2,300.0,0.5555555555555556,2,object_09,1,3085,0,4,5,forest_2,1,memory-2step-stake-s,735,2890968,0.0-19.0-0.1-0.241,A3CIPN7E1VL4G1,3SA4EMRVKYI00KKCICLEW0FTGRS0PA,3VZLGYJEYPQ5XXQNYZDPLW05U9IXZI,3,4
242,3,object_07,object_08,528.60000002384,5,1,299.80000001192,0.2222222222222222,1,object_04,1,3087,0,2,1,library_1,1,memory-2step-stake-s,736,2898739,0.0-19.0-0.1-0.242,A3CIPN7E1VL4G1,3SA4EMRVKYI00KKCICLEW0FTGRS0PA,3VZLGYJEYPQ5XXQNYZDPLW05U9IXZI,5,6
243,3,object_07,object_08,587.69999998808,6,2,273.30000001192,0.1111111111111111,2,object_09,1,3088,0,1,1,library_4,1,memory-2step-stake-s,737,2906390,0.0-19.0-0.1-0.243,A3CIPN7E1VL4G1,3SA4EMRVKYI00KKCICLEW0FTGRS0PA,3VZLGYJEYPQ5XXQNYZDPLW05U9IXZI,5,6
244,4,object_02,object_01,669.69999998808,7,2,284.39999997616,0.1111111111111111,1,object_04,5,3093,0,1,3,restaurant_2,1,memory-2step-stake-s,738,2914031,0.0-19.0-0.1-0.244,A3CIPN7E1VL4G1,3SA4EMRVKYI00KKCICLEW0FTGRS0PA,3VZLGYJEYPQ5XXQNYZDPLW05U9IXZI,8,7
245,1,object_03,object_05,991.40000003576,2,1,373.19999998808,0.2222222222222222,2,object_09,1,3095,0,1,2,desert_5,1,memory-2step-stake-s,739,2921861,0.0-19.0-0.1-0.245,A3CIPN7E1VL4G1,3SA4EMRVKYI00KKCICLEW0FTGRS0PA,3VZLGYJEYPQ5XXQNYZDPLW05U9IXZI,2,1
246,2,object_06,object_10,537.5,4,2,291.5,0.1111111111111111,2,object_09,1,3096,0,0,1,forest_7,1,memory-2step-stake-s,740,2929516,0.0-19.0-0.1-0.246,A3CIPN7E1VL4G1,3SA4EMRVKYI00KKCICLEW0FTGRS0PA,3VZLGYJEYPQ5XXQNYZDPLW05U9IXZI,3,4
247,4,object_02,object_01,751.30000001192,8,1,229.59999996424,0.1111111111111111,2,object_09,1,3097,0,1,1,restaurant_6,1,memory-2step-stake-s,741,2937128,0.0-19.0-0.1-0.247,A3CIPN7E1VL4G1,3SA4EMRVKYI00KKCICLEW0FTGRS0PA,3VZLGYJEYPQ5XXQNYZDPLW05U9IXZI,8,7
248,4,object_02,object_01,641.5,7,2,469.29999995232,0.3333333333333333,1,object_04,5,3112,0,3,1,restaurant_6,1,memory-2step-stake-s,742,2945179,0.0-19.0-0.1-0.248,A3CIPN7E1VL4G1,3SA4EMRVKYI00KKCICLEW0FTGRS0PA,3VZLGYJEYPQ5XXQNYZDPLW05U9IXZI,8,7
249,4,object_02,object_01,538.89999997616,7,2,287.5,0.5555555555555556,1,object_04,5,3137,0,5,2,restaurant_2,1,memory-2step-stake-s,743,2953222,0.0-19.0-0.1-0.249,A3CIPN7E1VL4G1,3SA4EMRVKYI00KKCICLEW0FTGRS0PA,3VZLGYJEYPQ5XXQNYZDPLW05U9IXZI,8,7
250,2,object_06,object_10,372.89999997616,3,1,311.19999998808,0.3333333333333333,1,object_04,1,3140,0,3,3,forest_7,1,memory-2step-stake-s,744,2961120,0.0-19.0-0.1-0.250,A3CIPN7E1VL4G1,3SA4EMRVKYI00KKCICLEW0FTGRS0PA,3VZLGYJEYPQ5XXQNYZDPLW05U9IXZI,3,4
251,3,object_08,object_07,509.5,6,1,317.0,0.0,2,object_09,5,3140,0,6,0,library_6,1,memory-2step-stake-s,745,2968686,0.0-19.0-0.1-0.251,A3CIPN7E1VL4G1,3SA4EMRVKYI00KKCICLEW0FTGRS0PA,3VZLGYJEYPQ5XXQNYZDPLW05U9IXZI,6,5
252,1,object_05,object_03,637.5,2,2,281.5,0.1111111111111111,2,object_09,1,3141,0,4,1,desert_5,1,memory-2step-stake-s,746,2976319,0.0-19.0-0.1-0.252,A3CIPN7E1VL4G1,3SA4EMRVKYI00KKCICLEW0FTGRS0PA,3VZLGYJEYPQ5XXQNYZDPLW05U9IXZI,1,2
253,3,object_07,object_08,623.79999995232,6,2,443.69999998808,0.4444444444444444,2,object_09,5,3161,0,5,4,library_4,1,memory-2step-stake-s,747,2984424,0.0-19.0-0.1-0.253,A3CIPN7E1VL4G1,3SA4EMRVKYI00KKCICLEW0FTGRS0PA,3VZLGYJEYPQ5XXQNYZDPLW05U9IXZI,5,6
254,3,object_07,object_08,574.30000001192,6,2,292.5,0.5555555555555556,2,object_09,5,3186,0,6,5,library_5,1,memory-2step-stake-s,748,2992493,0.0-19.0-0.1-0.254,A3CIPN7E1VL4G1,3SA4EMRVKYI00KKCICLEW0FTGRS0PA,3VZLGYJEYPQ5XXQNYZDPLW05U9IXZI,5,6
255,2,object_10,object_06,456.10000002384,3,2,346.5,0.5555555555555556,1,object_04,1,3191,0,5,5,forest_8,1,memory-2step-stake-s,749,3000615,0.0-19.0-0.1-0.255,A3CIPN7E1VL4G1,3SA4EMRVKYI00KKCICLEW0FTGRS0PA,3VZLGYJEYPQ5XXQNYZDPLW05U9IXZI,4,3
