,state1,stim_left,stim_right,rt_1,choice1,response1,rt_2,points,state2,stim_state2,stake,score,practice,rews1,rews2,background,high_arm,trial_type,trial_index,time_elapsed,internal_node_id,subid,hitid,assignmentid,stim_left_num,stim_right_num
0,1,object_10,object_07,431.42500000249,1,1,-1.0,0.0,1,object_03,1,0,0,0,5,desert_5,1,memory-2step-stake-s,491,655385,0.0-19.0-0.0-0.0,A5BMKZRGHNSRT,3X2LT8FDIZY82IMGP2COH9T7SM78W0,3IOEN3P9SBZVJMLJP1V7TP39KQR16O,1,2
1,3,object_02,object_05,406.91499999957,6,1,419.59999999381,0.6666666666666666,2,object_08,5,30,0,1,6,library_6,1,memory-2step-stake-s,492,663622,0.0-19.0-0.0-0.1,A5BMKZRGHNSRT,3X2LT8FDIZY82IMGP2COH9T7SM78W0,3IOEN3P9SBZVJMLJP1V7TP39KQR16O,6,5
2,2,object_06,object_01,291.11999999441,3,1,294.96499999368,0.2222222222222222,1,object_03,1,32,0,2,5,forest_4,1,memory-2step-stake-s,493,671330,0.0-19.0-0.0-0.2,A5BMKZRGHNSRT,3X2LT8FDIZY82IMGP2COH9T7SM78W0,3IOEN3P9SBZVJMLJP1V7TP39KQR16O,3,4
3,2,object_06,object_01,406.17499999644,3,1,307.39000000176,0.6666666666666666,1,object_03,1,38,0,6,9,forest_2,1,memory-2step-stake-s,494,679454,0.0-19.0-0.0-0.3,A5BMKZRGHNSRT,3X2LT8FDIZY82IMGP2COH9T7SM78W0,3IOEN3P9SBZVJMLJP1V7TP39KQR16O,3,4
4,4,object_04,object_09,467.47499999765,7,1,526.13999998721,0.7777777777777778,1,object_03,5,73,0,7,4,restaurant_3,1,memory-2step-stake-s,495,687899,0.0-19.0-0.0-0.4,A5BMKZRGHNSRT,3X2LT8FDIZY82IMGP2COH9T7SM78W0,3IOEN3P9SBZVJMLJP1V7TP39KQR16O,7,8
5,3,object_05,object_02,613.16500000248,6,2,336.66500000982,0.1111111111111111,2,object_08,5,78,0,7,1,library_4,1,memory-2step-stake-s,496,695548,0.0-19.0-0.0-0.5,A5BMKZRGHNSRT,3X2LT8FDIZY82IMGP2COH9T7SM78W0,3IOEN3P9SBZVJMLJP1V7TP39KQR16O,5,6
6,1,object_10,object_07,555.74500000512,2,2,318.97000000754,0.1111111111111111,2,object_08,1,79,0,5,1,desert_5,1,memory-2step-stake-s,497,703181,0.0-19.0-0.0-0.6,A5BMKZRGHNSRT,3X2LT8FDIZY82IMGP2COH9T7SM78W0,3IOEN3P9SBZVJMLJP1V7TP39KQR16O,1,2
7,4,object_09,object_04,643.60500000475,8,1,302.85999999614,0.1111111111111111,2,object_08,5,84,0,7,1,restaurant_1,1,memory-2step-stake-s,498,710797,0.0-19.0-0.0-0.7,A5BMKZRGHNSRT,3X2LT8FDIZY82IMGP2COH9T7SM78W0,3IOEN3P9SBZVJMLJP1V7TP39KQR16O,8,7
8,2,object_06,object_01,731.95499999565,4,2,335.27999999933,0.3333333333333333,2,object_08,1,87,0,5,3,forest_4,1,memory-2step-stake-s,499,718647,0.0-19.0-0.0-0.8,A5BMKZRGHNSRT,3X2LT8FDIZY82IMGP2COH9T7SM78W0,3IOEN3P9SBZVJMLJP1V7TP39KQR16O,3,4
9,1,object_07,object_10,978.89500000747,1,2,237.95999999857,0.8888888888888888,1,object_03,1,95,0,8,2,desert_6,1,memory-2step-stake-s,500,726905,0.0-19.0-0.0-0.9,A5BMKZRGHNSRT,3X2LT8FDIZY82IMGP2COH9T7SM78W0,3IOEN3P9SBZVJMLJP1V7TP39KQR16O,2,1
10,3,object_05,object_02,441.24000000011,6,2,373.61500000407,0.3333333333333333,2,object_08,5,110,0,6,3,library_8,1,memory-2step-stake-s,501,734791,0.0-19.0-0.0-0.10,A5BMKZRGHNSRT,3X2LT8FDIZY82IMGP2COH9T7SM78W0,3IOEN3P9SBZVJMLJP1V7TP39KQR16O,5,6
11,1,object_07,object_10,715.16500000143,2,1,271.03500001249,0.3333333333333333,2,object_08,1,113,0,8,3,desert_5,1,memory-2step-stake-s,502,742575,0.0-19.0-0.0-0.11,A5BMKZRGHNSRT,3X2LT8FDIZY82IMGP2COH9T7SM78W0,3IOEN3P9SBZVJMLJP1V7TP39KQR16O,2,1
12,3,object_05,object_02,546.21999998926,6,2,222.53499999351,0.4444444444444444,2,object_08,5,133,0,8,4,library_8,1,memory-2step-stake-s,503,750412,0.0-19.0-0.0-0.12,A5BMKZRGHNSRT,3X2LT8FDIZY82IMGP2COH9T7SM78W0,3IOEN3P9SBZVJMLJP1V7TP39KQR16O,5,6
13,1,object_10,object_07,646.08500000031,1,1,281.24499999103,0.8888888888888888,1,object_03,1,141,0,8,1,desert_7,1,memory-2step-stake-s,504,758712,0.0-19.0-0.0-0.13,A5BMKZRGHNSRT,3X2LT8FDIZY82IMGP2COH9T7SM78W0,3IOEN3P9SBZVJMLJP1V7TP39KQR16O,1,2
14,1,object_07,object_10,537.34000000986,1,2,285.55499999493,0.8888888888888888,1,object_03,1,149,0,8,5,desert_5,1,memory-2step-stake-s,505,767016,0.0-19.0-0.0-0.14,A5BMKZRGHNSRT,3X2LT8FDIZY82IMGP2COH9T7SM78W0,3IOEN3P9SBZVJMLJP1V7TP39KQR16O,2,1
15,3,object_02,object_05,434.34000000707,6,1,302.02499999723,0.2222222222222222,2,object_08,5,159,0,8,2,library_8,1,memory-2step-stake-s,506,774729,0.0-19.0-0.0-0.15,A5BMKZRGHNSRT,3X2LT8FDIZY82IMGP2COH9T7SM78W0,3IOEN3P9SBZVJMLJP1V7TP39KQR16O,6,5
16,2,object_01,object_06,856.27499999828,3,2,709.26000000327,0.7777777777777778,1,object_03,5,194,0,7,2,forest_5,1,memory-2step-stake-s,507,783355,0.0-19.0-0.0-0.16,A5BMKZRGHNSRT,3X2LT8FDIZY82IMGP2COH9T7SM78W0,3IOEN3P9SBZVJMLJP1V7TP39KQR16O,4,3
17,4,object_09,object_04,727.46500000358,7,2,346.44000000844,0.8888888888888888,1,object_03,5,234,0,8,2,restaurant_7,1,memory-2step-stake-s,508,791720,0.0-19.0-0.0-0.17,A5BMKZRGHNSRT,3X2LT8FDIZY82IMGP2COH9T7SM78W0,3IOEN3P9SBZVJMLJP1V7TP39KQR16O,8,7
18,2,object_06,object_01,657.30500000063,3,1,293.87499998847,0.5555555555555556,1,object_03,5,259,0,5,4,forest_2,1,memory-2step-stake-s,509,799729,0.0-19.0-0.0-0.18,A5BMKZRGHNSRT,3X2LT8FDIZY82IMGP2COH9T7SM78W0,3IOEN3P9SBZVJMLJP1V7TP39KQR16O,3,4
19,4,object_09,object_04,553.59999999928,7,2,268.23499999591,0.6666666666666666,1,object_03,5,289,0,6,5,restaurant_6,1,memory-2step-stake-s,510,807813,0.0-19.0-0.0-0.19,A5BMKZRGHNSRT,3X2LT8FDIZY82IMGP2COH9T7SM78W0,3IOEN3P9SBZVJMLJP1V7TP39KQR16O,8,7
20,3,object_05,object_02,644.32500000112,6,2,255.89000000036,0.4444444444444444,2,object_08,1,293,0,8,4,library_6,1,memory-2step-stake-s,511,815683,0.0-19.0-0.0-0.20,A5BMKZRGHNSRT,3X2LT8FDIZY82IMGP2COH9T7SM78W0,3IOEN3P9SBZVJMLJP1V7TP39KQR16O,5,6
21,4,object_09,object_04,598.49499999837,7,2,289.53500000353,1.0,1,object_03,5,338,0,9,4,restaurant_3,1,memory-2step-stake-s,512,824092,0.0-19.0-0.0-0.21,A5BMKZRGHNSRT,3X2LT8FDIZY82IMGP2COH9T7SM78W0,3IOEN3P9SBZVJMLJP1V7TP39KQR16O,8,7
22,2,object_01,object_06,573.61500000115,3,2,433.23499998951,0.5555555555555556,1,object_03,1,343,0,5,1,forest_8,1,memory-2step-stake-s,513,832240,0.0-19.0-0.0-0.22,A5BMKZRGHNSRT,3X2LT8FDIZY82IMGP2COH9T7SM78W0,3IOEN3P9SBZVJMLJP1V7TP39KQR16O,4,3
23,2,object_01,object_06,600.03499999584,3,2,260.66499999433,0.7777777777777778,1,object_03,1,350,0,7,3,forest_4,1,memory-2step-stake-s,514,840419,0.0-19.0-0.0-0.23,A5BMKZRGHNSRT,3X2LT8FDIZY82IMGP2COH9T7SM78W0,3IOEN3P9SBZVJMLJP1V7TP39KQR16O,4,3
24,3,object_05,object_02,383.31999999355,5,1,299.01000000245,0.5555555555555556,1,object_03,1,355,0,5,3,library_8,1,memory-2step-stake-s,515,848433,0.0-19.0-0.0-0.24,A5BMKZRGHNSRT,3X2LT8FDIZY82IMGP2COH9T7SM78W0,3IOEN3P9SBZVJMLJP1V7TP39KQR16O,5,6
25,3,object_05,object_02,681.37500000012,5,1,253.50500000059,0.6666666666666666,1,object_03,5,385,0,6,3,library_8,1,memory-2step-stake-s,516,856502,0.0-19.0-0.0-0.25,A5BMKZRGHNSRT,3X2LT8FDIZY82IMGP2COH9T7SM78W0,3IOEN3P9SBZVJMLJP1V7TP39KQR16O,5,6
26,3,object_02,object_05,612.37999999139,5,2,367.2099999967,0.6666666666666666,1,object_03,5,415,0,6,1,library_4,1,memory-2step-stake-s,517,864686,0.0-19.0-0.0-0.26,A5BMKZRGHNSRT,3X2LT8FDIZY82IMGP2COH9T7SM78W0,3IOEN3P9SBZVJMLJP1V7TP39KQR16O,6,5
27,1,object_07,object_10,1387.2950000077,2,1,399.57000000868,0.1111111111111111,2,object_08,1,416,0,5,1,desert_8,1,memory-2step-stake-s,518,872396,0.0-19.0-0.0-0.27,A5BMKZRGHNSRT,3X2LT8FDIZY82IMGP2COH9T7SM78W0,3IOEN3P9SBZVJMLJP1V7TP39KQR16O,2,1
28,4,object_04,object_09,789.9999999936,8,2,345.65000000293,0.5555555555555556,2,object_08,1,421,0,5,5,restaurant_7,1,memory-2step-stake-s,519,880456,0.0-19.0-0.0-0.28,A5BMKZRGHNSRT,3X2LT8FDIZY82IMGP2COH9T7SM78W0,3IOEN3P9SBZVJMLJP1V7TP39KQR16O,7,8
29,1,object_10,object_07,729.47500000009,2,2,428.820000001,0.7777777777777778,2,object_08,1,428,0,3,7,desert_5,1,memory-2step-stake-s,520,888803,0.0-19.0-0.0-0.29,A5BMKZRGHNSRT,3X2LT8FDIZY82IMGP2COH9T7SM78W0,3IOEN3P9SBZVJMLJP1V7TP39KQR16O,1,2
30,2,object_06,object_01,654.47999999742,4,2,241.26000000979,0.7777777777777778,2,object_08,1,435,0,2,7,forest_5,1,memory-2step-stake-s,521,896963,0.0-19.0-0.0-0.30,A5BMKZRGHNSRT,3X2LT8FDIZY82IMGP2COH9T7SM78W0,3IOEN3P9SBZVJMLJP1V7TP39KQR16O,3,4
31,4,object_04,object_09,550.56000000332,7,1,297.97500000859,0.2222222222222222,1,object_03,1,437,0,2,8,restaurant_3,1,memory-2step-stake-s,522,904674,0.0-19.0-0.0-0.31,A5BMKZRGHNSRT,3X2LT8FDIZY82IMGP2COH9T7SM78W0,3IOEN3P9SBZVJMLJP1V7TP39KQR16O,7,8
32,4,object_04,object_09,981.49999999441,8,2,392.46999999159,0.6666666666666666,2,object_08,5,467,0,3,6,restaurant_7,1,memory-2step-stake-s,523,912886,0.0-19.0-0.0-0.32,A5BMKZRGHNSRT,3X2LT8FDIZY82IMGP2COH9T7SM78W0,3IOEN3P9SBZVJMLJP1V7TP39KQR16O,7,8
33,2,object_06,object_01,931.58499999845,3,1,214.9400000053,0.3333333333333333,1,object_03,5,482,0,3,5,forest_2,1,memory-2step-stake-s,524,920616,0.0-19.0-0.0-0.33,A5BMKZRGHNSRT,3X2LT8FDIZY82IMGP2COH9T7SM78W0,3IOEN3P9SBZVJMLJP1V7TP39KQR16O,3,4
34,1,object_10,object_07,986.69999999402,2,2,357.67999998643,0.5555555555555556,2,object_08,5,507,0,2,5,desert_5,1,memory-2step-stake-s,525,928688,0.0-19.0-0.0-0.34,A5BMKZRGHNSRT,3X2LT8FDIZY82IMGP2COH9T7SM78W0,3IOEN3P9SBZVJMLJP1V7TP39KQR16O,1,2
35,3,object_05,object_02,689.48499999533,6,2,244.94999999297,0.4444444444444444,2,object_08,5,527,0,2,4,library_6,1,memory-2step-stake-s,526,936548,0.0-19.0-0.0-0.35,A5BMKZRGHNSRT,3X2LT8FDIZY82IMGP2COH9T7SM78W0,3IOEN3P9SBZVJMLJP1V7TP39KQR16O,5,6
36,3,object_05,object_02,621.63500000315,5,1,288.96999999415,0.0,1,object_03,1,527,0,0,2,library_8,1,memory-2step-stake-s,527,944048,0.0-19.0-0.0-0.36,A5BMKZRGHNSRT,3X2LT8FDIZY82IMGP2COH9T7SM78W0,3IOEN3P9SBZVJMLJP1V7TP39KQR16O,5,6
37,2,object_06,object_01,672.80000000028,3,1,284.31499999715,0.1111111111111111,1,object_03,1,528,0,1,4,forest_2,1,memory-2step-stake-s,528,951644,0.0-19.0-0.0-0.37,A5BMKZRGHNSRT,3X2LT8FDIZY82IMGP2COH9T7SM78W0,3IOEN3P9SBZVJMLJP1V7TP39KQR16O,3,4
38,2,object_01,object_06,765.44000000285,3,2,256.84499999625,0.3333333333333333,1,object_03,5,543,0,3,5,forest_8,1,memory-2step-stake-s,529,959415,0.0-19.0-0.0-0.38,A5BMKZRGHNSRT,3X2LT8FDIZY82IMGP2COH9T7SM78W0,3IOEN3P9SBZVJMLJP1V7TP39KQR16O,4,3
39,2,object_06,object_01,1032.9950000014,4,2,196.55999999668,0.6666666666666666,2,object_08,1,549,0,5,6,forest_2,1,memory-2step-stake-s,530,967429,0.0-19.0-0.0-0.39,A5BMKZRGHNSRT,3X2LT8FDIZY82IMGP2COH9T7SM78W0,3IOEN3P9SBZVJMLJP1V7TP39KQR16O,3,4
40,3,object_05,object_02,796.83999999543,6,2,48.085000002175,0.5555555555555556,2,object_08,5,574,0,7,5,library_6,1,memory-2step-stake-s,531,975193,0.0-19.0-0.0-0.40,A5BMKZRGHNSRT,3X2LT8FDIZY82IMGP2COH9T7SM78W0,3IOEN3P9SBZVJMLJP1V7TP39KQR16O,5,6
41,1,object_10,object_07,1089.135000002,1,1,253.25500000326,0.4444444444444444,1,object_03,1,578,0,4,4,desert_6,1,memory-2step-stake-s,532,983060,0.0-19.0-0.0-0.41,A5BMKZRGHNSRT,3X2LT8FDIZY82IMGP2COH9T7SM78W0,3IOEN3P9SBZVJMLJP1V7TP39KQR16O,1,2
42,4,object_04,object_09,1030.110000007,7,1,353.92500000307,0.4444444444444444,1,object_03,5,598,0,4,4,restaurant_6,1,memory-2step-stake-s,533,991029,0.0-19.0-0.0-0.42,A5BMKZRGHNSRT,3X2LT8FDIZY82IMGP2COH9T7SM78W0,3IOEN3P9SBZVJMLJP1V7TP39KQR16O,7,8
43,1,object_07,object_10,805.24500001047,1,2,265.6100000022,0.4444444444444444,1,object_03,1,602,0,4,3,desert_6,1,memory-2step-stake-s,534,998908,0.0-19.0-0.0-0.43,A5BMKZRGHNSRT,3X2LT8FDIZY82IMGP2COH9T7SM78W0,3IOEN3P9SBZVJMLJP1V7TP39KQR16O,2,1
44,2,object_06,object_01,734.17999999947,3,1,186.09500001185,0.5555555555555556,1,object_03,1,607,0,5,4,forest_8,1,memory-2step-stake-s,535,1006809,0.0-19.0-0.0-0.44,A5BMKZRGHNSRT,3X2LT8FDIZY82IMGP2COH9T7SM78W0,3IOEN3P9SBZVJMLJP1V7TP39KQR16O,3,4
45,4,object_04,object_09,688.3300000045,8,2,220.71500000311,0.3333333333333333,2,object_08,5,622,0,6,3,restaurant_6,1,memory-2step-stake-s,536,1014543,0.0-19.0-0.0-0.45,A5BMKZRGHNSRT,3X2LT8FDIZY82IMGP2COH9T7SM78W0,3IOEN3P9SBZVJMLJP1V7TP39KQR16O,7,8
46,2,object_01,object_06,835.38000000408,4,1,311.35000000359,0.2222222222222222,2,object_08,5,632,0,3,2,forest_5,1,memory-2step-stake-s,537,1022265,0.0-19.0-0.0-0.46,A5BMKZRGHNSRT,3X2LT8FDIZY82IMGP2COH9T7SM78W0,3IOEN3P9SBZVJMLJP1V7TP39KQR16O,4,3
47,2,object_01,object_06,544.51500000141,3,2,203.81999999518,0.4444444444444444,1,object_03,1,636,0,4,6,forest_4,1,memory-2step-stake-s,538,1030085,0.0-19.0-0.0-0.47,A5BMKZRGHNSRT,3X2LT8FDIZY82IMGP2COH9T7SM78W0,3IOEN3P9SBZVJMLJP1V7TP39KQR16O,4,3
48,2,object_06,object_01,525.52999999898,3,1,232.39000000467,0.3333333333333333,1,object_03,1,639,0,3,4,forest_4,1,memory-2step-stake-s,539,1037830,0.0-19.0-0.0-0.48,A5BMKZRGHNSRT,3X2LT8FDIZY82IMGP2COH9T7SM78W0,3IOEN3P9SBZVJMLJP1V7TP39KQR16O,3,4
49,1,object_07,object_10,763.51999999315,1,2,318.82500000938,0.1111111111111111,1,object_03,1,640,0,1,7,desert_8,1,memory-2step-stake-s,540,1045462,0.0-19.0-0.0-0.49,A5BMKZRGHNSRT,3X2LT8FDIZY82IMGP2COH9T7SM78W0,3IOEN3P9SBZVJMLJP1V7TP39KQR16O,2,1
50,2,object_01,object_06,980.46500000043,4,1,223.43500000727,1.0,2,object_08,5,685,0,4,9,forest_8,1,memory-2step-stake-s,541,1053804,0.0-19.0-0.0-0.50,A5BMKZRGHNSRT,3X2LT8FDIZY82IMGP2COH9T7SM78W0,3IOEN3P9SBZVJMLJP1V7TP39KQR16O,4,3
51,4,object_09,object_04,981.67000000831,8,1,329.51500000479,0.7777777777777778,2,object_08,5,720,0,3,7,restaurant_3,1,memory-2step-stake-s,542,1062050,0.0-19.0-0.0-0.51,A5BMKZRGHNSRT,3X2LT8FDIZY82IMGP2COH9T7SM78W0,3IOEN3P9SBZVJMLJP1V7TP39KQR16O,8,7
52,4,object_09,object_04,639.24499999825,8,1,243.60499999602,0.6666666666666666,2,object_08,5,750,0,1,6,restaurant_7,1,memory-2step-stake-s,543,1070110,0.0-19.0-0.0-0.52,A5BMKZRGHNSRT,3X2LT8FDIZY82IMGP2COH9T7SM78W0,3IOEN3P9SBZVJMLJP1V7TP39KQR16O,8,7
53,2,object_01,object_06,747.73499999731,4,1,86.995000005001,0.2222222222222222,2,object_08,1,752,0,5,2,forest_5,1,memory-2step-stake-s,544,1077610,0.0-19.0-0.0-0.53,A5BMKZRGHNSRT,3X2LT8FDIZY82IMGP2COH9T7SM78W0,3IOEN3P9SBZVJMLJP1V7TP39KQR16O,4,3
54,1,object_07,object_10,1175.7849999997,2,1,282.59000000264,0.1111111111111111,2,object_08,5,757,0,6,1,desert_6,1,memory-2step-stake-s,545,1085205,0.0-19.0-0.0-0.54,A5BMKZRGHNSRT,3X2LT8FDIZY82IMGP2COH9T7SM78W0,3IOEN3P9SBZVJMLJP1V7TP39KQR16O,2,1
55,2,object_01,object_06,675.82999999262,4,1,247.18000000576,0.1111111111111111,2,object_08,1,758,0,6,1,forest_8,1,memory-2step-stake-s,546,1092764,0.0-19.0-0.0-0.55,A5BMKZRGHNSRT,3X2LT8FDIZY82IMGP2COH9T7SM78W0,3IOEN3P9SBZVJMLJP1V7TP39KQR16O,4,3
56,1,object_10,object_07,637.4550000038,1,1,288.74999999255,0.7777777777777778,1,object_03,5,793,0,7,0,desert_8,1,memory-2step-stake-s,547,1100972,0.0-19.0-0.0-0.56,A5BMKZRGHNSRT,3X2LT8FDIZY82IMGP2COH9T7SM78W0,3IOEN3P9SBZVJMLJP1V7TP39KQR16O,1,2
57,2,object_06,object_01,789.90499999793,3,1,185.2050000017,0.6666666666666666,1,object_03,1,799,0,6,0,forest_5,1,memory-2step-stake-s,548,1108974,0.0-19.0-0.0-0.57,A5BMKZRGHNSRT,3X2LT8FDIZY82IMGP2COH9T7SM78W0,3IOEN3P9SBZVJMLJP1V7TP39KQR16O,3,4
58,4,object_04,object_09,771.85999999335,7,1,254.94999998785,0.3333333333333333,1,object_03,5,814,0,3,1,restaurant_3,1,memory-2step-stake-s,549,1116744,0.0-19.0-0.0-0.58,A5BMKZRGHNSRT,3X2LT8FDIZY82IMGP2COH9T7SM78W0,3IOEN3P9SBZVJMLJP1V7TP39KQR16O,7,8
59,4,object_09,object_04,753.24499999965,8,1,205.54000000982,0.2222222222222222,2,object_08,1,816,0,4,2,restaurant_1,1,memory-2step-stake-s,550,1124362,0.0-19.0-0.0-0.59,A5BMKZRGHNSRT,3X2LT8FDIZY82IMGP2COH9T7SM78W0,3IOEN3P9SBZVJMLJP1V7TP39KQR16O,8,7
60,3,object_02,object_05,1168.1749999989,5,2,260.1649999998,0.2222222222222222,1,object_03,5,826,0,2,1,library_6,1,memory-2step-stake-s,551,1132033,0.0-19.0-0.0-0.60,A5BMKZRGHNSRT,3X2LT8FDIZY82IMGP2COH9T7SM78W0,3IOEN3P9SBZVJMLJP1V7TP39KQR16O,6,5
61,2,object_01,object_06,784.29999999935,3,2,84.614999999758,0.1111111111111111,1,object_03,1,827,0,1,1,forest_5,1,memory-2step-stake-s,552,1139429,0.0-19.0-0.0-0.61,A5BMKZRGHNSRT,3X2LT8FDIZY82IMGP2COH9T7SM78W0,3IOEN3P9SBZVJMLJP1V7TP39KQR16O,4,3
62,2,object_06,object_01,1037.2300000016,4,2,313.24999999185,0.4444444444444444,2,object_08,1,831,0,2,4,forest_2,1,memory-2step-stake-s,553,1147356,0.0-19.0-0.0-0.62,A5BMKZRGHNSRT,3X2LT8FDIZY82IMGP2COH9T7SM78W0,3IOEN3P9SBZVJMLJP1V7TP39KQR16O,3,4
63,3,object_02,object_05,910.32000001008,5,2,266.90000000247,0.4444444444444444,1,object_03,5,851,0,4,5,library_8,1,memory-2step-stake-s,554,1155237,0.0-19.0-0.0-0.63,A5BMKZRGHNSRT,3X2LT8FDIZY82IMGP2COH9T7SM78W0,3IOEN3P9SBZVJMLJP1V7TP39KQR16O,6,5
64,1,object_10,object_07,621.41999999597,1,1,56.385000003502,0.4444444444444444,1,object_03,5,871,0,4,1,desert_8,1,memory-2step-stake-s,555,1162908,0.0-19.0-0.0-0.64,A5BMKZRGHNSRT,3X2LT8FDIZY82IMGP2COH9T7SM78W0,3IOEN3P9SBZVJMLJP1V7TP39KQR16O,1,2
65,3,object_05,object_02,1070.4650000117,5,1,369.84500000835,0.4444444444444444,1,object_03,5,891,0,4,4,library_8,1,memory-2step-stake-s,556,1170892,0.0-19.0-0.0-0.65,A5BMKZRGHNSRT,3X2LT8FDIZY82IMGP2COH9T7SM78W0,3IOEN3P9SBZVJMLJP1V7TP39KQR16O,5,6
66,4,object_09,object_04,1190.4649999924,8,1,297.42499999702,0.7777777777777778,2,object_08,5,926,0,3,7,restaurant_6,1,memory-2step-stake-s,557,1179107,0.0-19.0-0.0-0.66,A5BMKZRGHNSRT,3X2LT8FDIZY82IMGP2COH9T7SM78W0,3IOEN3P9SBZVJMLJP1V7TP39KQR16O,8,7
67,4,object_09,object_04,446.50499999989,8,1,209.95000000391,1.0,2,object_08,5,971,0,2,9,restaurant_1,1,memory-2step-stake-s,558,1187438,0.0-19.0-0.0-0.67,A5BMKZRGHNSRT,3X2LT8FDIZY82IMGP2COH9T7SM78W0,3IOEN3P9SBZVJMLJP1V7TP39KQR16O,8,7
68,1,object_07,object_10,796.35000000428,2,1,287.55999999703,0.6666666666666666,2,object_08,5,1001,0,1,6,desert_5,1,memory-2step-stake-s,559,1195542,0.0-19.0-0.0-0.68,A5BMKZRGHNSRT,3X2LT8FDIZY82IMGP2COH9T7SM78W0,3IOEN3P9SBZVJMLJP1V7TP39KQR16O,2,1
69,4,object_04,object_09,435.87999998988,8,2,247.00499999756,0.6666666666666666,2,object_08,5,1031,0,3,6,restaurant_1,1,memory-2step-stake-s,560,1203606,0.0-19.0-0.0-0.69,A5BMKZRGHNSRT,3X2LT8FDIZY82IMGP2COH9T7SM78W0,3IOEN3P9SBZVJMLJP1V7TP39KQR16O,7,8
70,3,object_05,object_02,771.50499999686,6,2,286.59000000311,1.0,2,object_08,5,1076,0,3,9,library_6,1,memory-2step-stake-s,561,1212012,0.0-19.0-0.0-0.70,A5BMKZRGHNSRT,3X2LT8FDIZY82IMGP2COH9T7SM78W0,3IOEN3P9SBZVJMLJP1V7TP39KQR16O,5,6
71,2,object_01,object_06,797.7399999944,4,1,665.90500000166,0.7777777777777778,2,object_08,1,1083,0,5,7,forest_8,1,memory-2step-stake-s,562,1220597,0.0-19.0-0.0-0.71,A5BMKZRGHNSRT,3X2LT8FDIZY82IMGP2COH9T7SM78W0,3IOEN3P9SBZVJMLJP1V7TP39KQR16O,4,3
72,4,object_04,object_09,645.23500000359,8,2,312.53500000457,0.6666666666666666,2,object_08,5,1113,0,7,6,restaurant_6,1,memory-2step-stake-s,563,1228725,0.0-19.0-0.0-0.72,A5BMKZRGHNSRT,3X2LT8FDIZY82IMGP2COH9T7SM78W0,3IOEN3P9SBZVJMLJP1V7TP39KQR16O,7,8
73,3,object_05,object_02,1013.3600000117,6,2,280.19000000483,0.2222222222222222,2,object_08,1,1115,0,5,2,library_6,1,memory-2step-stake-s,564,1236419,0.0-19.0-0.0-0.73,A5BMKZRGHNSRT,3X2LT8FDIZY82IMGP2COH9T7SM78W0,3IOEN3P9SBZVJMLJP1V7TP39KQR16O,5,6
74,4,object_04,object_09,647.41000000504,7,1,226.5950000002,1.0,1,object_03,1,1124,0,9,5,restaurant_1,1,memory-2step-stake-s,565,1244765,0.0-19.0-0.0-0.74,A5BMKZRGHNSRT,3X2LT8FDIZY82IMGP2COH9T7SM78W0,3IOEN3P9SBZVJMLJP1V7TP39KQR16O,7,8
75,3,object_02,object_05,597.39500000421,5,2,233.45999998855,1.0,1,object_03,5,1169,0,9,5,library_6,1,memory-2step-stake-s,566,1253117,0.0-19.0-0.0-0.75,A5BMKZRGHNSRT,3X2LT8FDIZY82IMGP2COH9T7SM78W0,3IOEN3P9SBZVJMLJP1V7TP39KQR16O,6,5
76,3,object_02,object_05,652.45000000857,5,2,280.14499999699,1.0,1,object_03,5,1214,0,9,7,library_2,1,memory-2step-stake-s,567,1261517,0.0-19.0-0.0-0.76,A5BMKZRGHNSRT,3X2LT8FDIZY82IMGP2COH9T7SM78W0,3IOEN3P9SBZVJMLJP1V7TP39KQR16O,6,5
77,2,object_01,object_06,956.81999999215,3,2,240.30999999354,1.0,1,object_03,1,1223,0,9,4,forest_5,1,memory-2step-stake-s,568,1269878,0.0-19.0-0.0-0.77,A5BMKZRGHNSRT,3X2LT8FDIZY82IMGP2COH9T7SM78W0,3IOEN3P9SBZVJMLJP1V7TP39KQR16O,4,3
78,3,object_05,object_02,508.64500000887,5,1,319.83500000206,0.6666666666666666,1,object_03,5,1253,0,6,3,library_4,1,memory-2step-stake-s,569,1278015,0.0-19.0-0.0-0.78,A5BMKZRGHNSRT,3X2LT8FDIZY82IMGP2COH9T7SM78W0,3IOEN3P9SBZVJMLJP1V7TP39KQR16O,5,6
79,2,object_06,object_01,658.02499999688,3,1,279.13999999873,0.5555555555555556,1,object_03,1,1258,0,5,3,forest_2,1,memory-2step-stake-s,570,1286008,0.0-19.0-0.0-0.79,A5BMKZRGHNSRT,3X2LT8FDIZY82IMGP2COH9T7SM78W0,3IOEN3P9SBZVJMLJP1V7TP39KQR16O,3,4
80,2,object_01,object_06,1065.9500000037,3,2,349.04000000097,0.4444444444444444,1,object_03,1,1262,0,4,2,forest_5,1,memory-2step-stake-s,571,1293973,0.0-19.0-0.0-0.80,A5BMKZRGHNSRT,3X2LT8FDIZY82IMGP2COH9T7SM78W0,3IOEN3P9SBZVJMLJP1V7TP39KQR16O,4,3
81,3,object_05,object_02,885.04999999725,5,1,353.49999999744,0.5555555555555556,1,object_03,1,1267,0,5,2,library_2,1,memory-2step-stake-s,572,1302040,0.0-19.0-0.0-0.81,A5BMKZRGHNSRT,3X2LT8FDIZY82IMGP2COH9T7SM78W0,3IOEN3P9SBZVJMLJP1V7TP39KQR16O,5,6
82,4,object_04,object_09,1297.9099999939,7,1,301.2849999941,0.3333333333333333,1,object_03,5,1282,0,3,2,restaurant_1,1,memory-2step-stake-s,573,1309855,0.0-19.0-0.0-0.82,A5BMKZRGHNSRT,3X2LT8FDIZY82IMGP2COH9T7SM78W0,3IOEN3P9SBZVJMLJP1V7TP39KQR16O,7,8
83,1,object_07,object_10,1099.2449999903,2,1,287.62999999151,0.1111111111111111,2,object_08,1,1283,0,3,1,desert_5,1,memory-2step-stake-s,574,1317453,0.0-19.0-0.0-0.83,A5BMKZRGHNSRT,3X2LT8FDIZY82IMGP2COH9T7SM78W0,3IOEN3P9SBZVJMLJP1V7TP39KQR16O,2,1
84,1,object_10,object_07,533.08000000846,2,2,241.18500000611,0.0,2,object_08,1,1283,0,2,0,desert_7,1,memory-2step-stake-s,575,1324904,0.0-19.0-0.0-0.84,A5BMKZRGHNSRT,3X2LT8FDIZY82IMGP2COH9T7SM78W0,3IOEN3P9SBZVJMLJP1V7TP39KQR16O,1,2
85,1,object_07,object_10,561.33000001148,1,2,237.68500000006,0.2222222222222222,1,object_03,1,1285,0,2,1,desert_6,1,memory-2step-stake-s,576,1332554,0.0-19.0-0.0-0.85,A5BMKZRGHNSRT,3X2LT8FDIZY82IMGP2COH9T7SM78W0,3IOEN3P9SBZVJMLJP1V7TP39KQR16O,2,1
86,2,object_01,object_06,696.24000000488,3,2,244.43999999482,0.1111111111111111,1,object_03,1,1286,0,1,1,forest_4,1,memory-2step-stake-s,577,1340110,0.0-19.0-0.0-0.86,A5BMKZRGHNSRT,3X2LT8FDIZY82IMGP2COH9T7SM78W0,3IOEN3P9SBZVJMLJP1V7TP39KQR16O,4,3
87,2,object_01,object_06,892.63000000222,4,1,247.88999999873,0.3333333333333333,2,object_08,1,1289,0,4,3,forest_2,1,memory-2step-stake-s,578,1347872,0.0-19.0-0.0-0.87,A5BMKZRGHNSRT,3X2LT8FDIZY82IMGP2COH9T7SM78W0,3IOEN3P9SBZVJMLJP1V7TP39KQR16O,4,3
88,1,object_10,object_07,890.33999999822,2,2,301.5549999983,0.4444444444444444,2,object_08,1,1293,0,4,4,desert_8,1,memory-2step-stake-s,579,1355788,0.0-19.0-0.0-0.88,A5BMKZRGHNSRT,3X2LT8FDIZY82IMGP2COH9T7SM78W0,3IOEN3P9SBZVJMLJP1V7TP39KQR16O,1,2
89,3,object_05,object_02,701.58500000229,5,1,169.17999999714,0.3333333333333333,1,object_03,5,1308,0,3,2,library_2,1,memory-2step-stake-s,580,1363471,0.0-19.0-0.0-0.89,A5BMKZRGHNSRT,3X2LT8FDIZY82IMGP2COH9T7SM78W0,3IOEN3P9SBZVJMLJP1V7TP39KQR16O,5,6
90,2,object_01,object_06,763.68000000366,4,1,254.54999999795,0.5555555555555556,2,object_08,1,1313,0,6,5,forest_4,1,memory-2step-stake-s,581,1371441,0.0-19.0-0.0-0.90,A5BMKZRGHNSRT,3X2LT8FDIZY82IMGP2COH9T7SM78W0,3IOEN3P9SBZVJMLJP1V7TP39KQR16O,4,3
91,4,object_04,object_09,711.67499999842,8,2,218.9550000038,0.7777777777777778,2,object_08,5,1348,0,8,7,restaurant_7,1,memory-2step-stake-s,582,1379579,0.0-19.0-0.0-0.91,A5BMKZRGHNSRT,3X2LT8FDIZY82IMGP2COH9T7SM78W0,3IOEN3P9SBZVJMLJP1V7TP39KQR16O,7,8
92,4,object_04,object_09,661.7350000015,8,2,288.69000000134,0.8888888888888888,2,object_08,5,1388,0,5,8,restaurant_6,1,memory-2step-stake-s,583,1387888,0.0-19.0-0.0-0.92,A5BMKZRGHNSRT,3X2LT8FDIZY82IMGP2COH9T7SM78W0,3IOEN3P9SBZVJMLJP1V7TP39KQR16O,7,8
93,4,object_04,object_09,649.8900000006,8,2,621.71999999555,0.7777777777777778,2,object_08,1,1395,0,9,7,restaurant_1,1,memory-2step-stake-s,584,1396427,0.0-19.0-0.0-0.93,A5BMKZRGHNSRT,3X2LT8FDIZY82IMGP2COH9T7SM78W0,3IOEN3P9SBZVJMLJP1V7TP39KQR16O,7,8
94,4,object_04,object_09,519.22000000183,8,2,267.74000001,0.4444444444444444,2,object_08,5,1415,0,6,4,restaurant_7,1,memory-2step-stake-s,585,1404308,0.0-19.0-0.0-0.94,A5BMKZRGHNSRT,3X2LT8FDIZY82IMGP2COH9T7SM78W0,3IOEN3P9SBZVJMLJP1V7TP39KQR16O,7,8
95,1,object_07,object_10,814.32499999949,1,2,209.33499999251,0.4444444444444444,1,object_03,1,1419,0,4,4,desert_6,1,memory-2step-stake-s,586,1412133,0.0-19.0-0.0-0.95,A5BMKZRGHNSRT,3X2LT8FDIZY82IMGP2COH9T7SM78W0,3IOEN3P9SBZVJMLJP1V7TP39KQR16O,2,1
96,1,object_07,object_10,725.34000000451,1,2,248.73500000103,0.2222222222222222,1,object_03,1,1421,0,2,6,desert_5,1,memory-2step-stake-s,587,1419793,0.0-19.0-0.0-0.96,A5BMKZRGHNSRT,3X2LT8FDIZY82IMGP2COH9T7SM78W0,3IOEN3P9SBZVJMLJP1V7TP39KQR16O,2,1
97,3,object_02,object_05,1072.5200000014,5,2,252.29499999853,0.1111111111111111,1,object_03,5,1426,0,1,6,library_6,1,memory-2step-stake-s,588,1427357,0.0-19.0-0.0-0.97,A5BMKZRGHNSRT,3X2LT8FDIZY82IMGP2COH9T7SM78W0,3IOEN3P9SBZVJMLJP1V7TP39KQR16O,6,5
98,3,object_05,object_02,828.59000000451,6,2,304.02499999036,0.7777777777777778,2,object_08,5,1461,0,0,7,library_2,1,memory-2step-stake-s,589,1435578,0.0-19.0-0.0-0.98,A5BMKZRGHNSRT,3X2LT8FDIZY82IMGP2COH9T7SM78W0,3IOEN3P9SBZVJMLJP1V7TP39KQR16O,5,6
99,3,object_02,object_05,599.91499999911,6,1,282.3150000039,0.5555555555555556,2,object_08,5,1486,0,3,5,library_2,1,memory-2step-stake-s,590,1443577,0.0-19.0-0.0-0.99,A5BMKZRGHNSRT,3X2LT8FDIZY82IMGP2COH9T7SM78W0,3IOEN3P9SBZVJMLJP1V7TP39KQR16O,6,5
100,1,object_07,object_10,720.8350000002,2,1,403.9499999925,0.4444444444444444,2,object_08,1,1490,0,4,4,desert_7,1,memory-2step-stake-s,591,1451596,0.0-19.0-0.0-0.100,A5BMKZRGHNSRT,3X2LT8FDIZY82IMGP2COH9T7SM78W0,3IOEN3P9SBZVJMLJP1V7TP39KQR16O,2,1
101,2,object_06,object_01,942.72500000102,4,2,289.64000000269,0.3333333333333333,2,object_08,5,1505,0,2,3,forest_5,1,memory-2step-stake-s,592,1459400,0.0-19.0-0.0-0.101,A5BMKZRGHNSRT,3X2LT8FDIZY82IMGP2COH9T7SM78W0,3IOEN3P9SBZVJMLJP1V7TP39KQR16O,3,4
102,4,object_09,object_04,770.79000000935,8,1,238.16500000237,0.1111111111111111,2,object_08,5,1510,0,3,1,restaurant_3,1,memory-2step-stake-s,593,1466950,0.0-19.0-0.0-0.102,A5BMKZRGHNSRT,3X2LT8FDIZY82IMGP2COH9T7SM78W0,3IOEN3P9SBZVJMLJP1V7TP39KQR16O,8,7
103,1,object_10,object_07,764.71000000322,1,1,215.76999999536,0.0,1,object_03,1,1510,0,0,0,desert_7,1,memory-2step-stake-s,594,1474377,0.0-19.0-0.0-0.103,A5BMKZRGHNSRT,3X2LT8FDIZY82IMGP2COH9T7SM78W0,3IOEN3P9SBZVJMLJP1V7TP39KQR16O,1,2
104,2,object_01,object_06,777.09000000311,3,2,253.87499999488,0.4444444444444444,1,object_03,1,1514,0,4,2,forest_4,1,memory-2step-stake-s,595,1482244,0.0-19.0-0.0-0.104,A5BMKZRGHNSRT,3X2LT8FDIZY82IMGP2COH9T7SM78W0,3IOEN3P9SBZVJMLJP1V7TP39KQR16O,4,3
105,1,object_10,object_07,822.77499999315,1,1,337.87000000291,0.3333333333333333,1,object_03,1,1517,0,3,3,desert_5,1,memory-2step-stake-s,596,1490096,0.0-19.0-0.0-0.105,A5BMKZRGHNSRT,3X2LT8FDIZY82IMGP2COH9T7SM78W0,3IOEN3P9SBZVJMLJP1V7TP39KQR16O,1,2
106,4,object_04,object_09,849.10000000661,8,2,549.60500000743,0.3333333333333333,2,object_08,5,1532,0,2,3,restaurant_3,1,memory-2step-stake-s,597,1498158,0.0-19.0-0.0-0.106,A5BMKZRGHNSRT,3X2LT8FDIZY82IMGP2COH9T7SM78W0,3IOEN3P9SBZVJMLJP1V7TP39KQR16O,7,8
107,1,object_07,object_10,619.7499999979,2,1,223.73500000685,0.5555555555555556,2,object_08,1,1537,0,5,5,desert_8,1,memory-2step-stake-s,598,1506098,0.0-19.0-0.0-0.107,A5BMKZRGHNSRT,3X2LT8FDIZY82IMGP2COH9T7SM78W0,3IOEN3P9SBZVJMLJP1V7TP39KQR16O,2,1
108,4,object_04,object_09,839.67000000109,7,1,259.5299999956,0.3333333333333333,1,object_03,5,1552,0,3,5,restaurant_6,1,memory-2step-stake-s,599,1513871,0.0-19.0-0.0-0.108,A5BMKZRGHNSRT,3X2LT8FDIZY82IMGP2COH9T7SM78W0,3IOEN3P9SBZVJMLJP1V7TP39KQR16O,7,8
109,3,object_05,object_02,628.12999999733,6,2,152.050000004,1.0,2,object_08,5,1597,0,6,9,library_8,1,memory-2step-stake-s,600,1522142,0.0-19.0-0.0-0.109,A5BMKZRGHNSRT,3X2LT8FDIZY82IMGP2COH9T7SM78W0,3IOEN3P9SBZVJMLJP1V7TP39KQR16O,5,6
110,2,object_01,object_06,756.1050000079,4,1,205.50500000524,1.0,2,object_08,1,1606,0,9,9,forest_4,1,memory-2step-stake-s,601,1530468,0.0-19.0-0.0-0.110,A5BMKZRGHNSRT,3X2LT8FDIZY82IMGP2COH9T7SM78W0,3IOEN3P9SBZVJMLJP1V7TP39KQR16O,4,3
111,1,object_07,object_10,630.04000000353,1,2,129.28500000294,0.8888888888888888,1,object_03,1,1614,0,8,6,desert_7,1,memory-2step-stake-s,602,1538617,0.0-19.0-0.0-0.111,A5BMKZRGHNSRT,3X2LT8FDIZY82IMGP2COH9T7SM78W0,3IOEN3P9SBZVJMLJP1V7TP39KQR16O,2,1
112,4,object_04,object_09,737.26499998872,7,1,141.84500000556,1.0,1,object_03,5,1659,0,9,9,restaurant_7,1,memory-2step-stake-s,603,1546878,0.0-19.0-0.0-0.112,A5BMKZRGHNSRT,3X2LT8FDIZY82IMGP2COH9T7SM78W0,3IOEN3P9SBZVJMLJP1V7TP39KQR16O,7,8
113,3,object_05,object_02,660.25499999523,6,2,200.21500000427,0.7777777777777778,2,object_08,5,1694,0,6,7,library_2,1,memory-2step-stake-s,604,1554996,0.0-19.0-0.0-0.113,A5BMKZRGHNSRT,3X2LT8FDIZY82IMGP2COH9T7SM78W0,3IOEN3P9SBZVJMLJP1V7TP39KQR16O,5,6
114,4,object_04,object_09,518.32499999716,7,1,250.92500000028,0.5555555555555556,1,object_03,5,1719,0,5,6,restaurant_1,1,memory-2step-stake-s,605,1562962,0.0-19.0-0.0-0.114,A5BMKZRGHNSRT,3X2LT8FDIZY82IMGP2COH9T7SM78W0,3IOEN3P9SBZVJMLJP1V7TP39KQR16O,7,8
115,2,object_01,object_06,568.44000000274,3,2,251.26999999327,0.7777777777777778,1,object_03,1,1726,0,7,8,forest_5,1,memory-2step-stake-s,606,1571132,0.0-19.0-0.0-0.115,A5BMKZRGHNSRT,3X2LT8FDIZY82IMGP2COH9T7SM78W0,3IOEN3P9SBZVJMLJP1V7TP39KQR16O,4,3
116,2,object_06,object_01,870.47999999789,4,2,913.99999998976,1.0,2,object_08,1,1735,0,5,9,forest_2,1,memory-2step-stake-s,607,1580167,0.0-19.0-0.0-0.116,A5BMKZRGHNSRT,3X2LT8FDIZY82IMGP2COH9T7SM78W0,3IOEN3P9SBZVJMLJP1V7TP39KQR16O,3,4
117,2,object_01,object_06,635.89999999385,4,1,207.29500000039,0.8888888888888888,2,object_08,1,1743,0,8,8,forest_8,1,memory-2step-stake-s,608,1588393,0.0-19.0-0.0-0.117,A5BMKZRGHNSRT,3X2LT8FDIZY82IMGP2COH9T7SM78W0,3IOEN3P9SBZVJMLJP1V7TP39KQR16O,4,3
118,3,object_02,object_05,672.85000000265,6,1,259.88000001246,1.0,2,object_08,1,1752,0,6,9,library_4,1,memory-2step-stake-s,609,1596773,0.0-19.0-0.0-0.118,A5BMKZRGHNSRT,3X2LT8FDIZY82IMGP2COH9T7SM78W0,3IOEN3P9SBZVJMLJP1V7TP39KQR16O,6,5
119,4,object_04,object_09,533.16000000644,8,2,65.954999998212,0.7777777777777778,2,object_08,5,1787,0,5,7,restaurant_6,1,memory-2step-stake-s,610,1604756,0.0-19.0-0.0-0.119,A5BMKZRGHNSRT,3X2LT8FDIZY82IMGP2COH9T7SM78W0,3IOEN3P9SBZVJMLJP1V7TP39KQR16O,7,8
120,2,object_01,object_06,550.77499999618,4,1,314.48000000091,0.7777777777777778,2,object_08,1,1794,0,8,7,forest_2,1,memory-2step-stake-s,611,1612989,0.0-19.0-0.0-0.120,A5BMKZRGHNSRT,3X2LT8FDIZY82IMGP2COH9T7SM78W0,3IOEN3P9SBZVJMLJP1V7TP39KQR16O,4,3
121,4,object_04,object_09,693.12999999966,8,2,258.31999999355,0.7777777777777778,2,object_08,5,1829,0,8,7,restaurant_3,1,memory-2step-stake-s,612,1621163,0.0-19.0-0.0-0.121,A5BMKZRGHNSRT,3X2LT8FDIZY82IMGP2COH9T7SM78W0,3IOEN3P9SBZVJMLJP1V7TP39KQR16O,7,8
122,4,object_09,object_04,556.89000000712,8,1,447.97500000265,0.7777777777777778,2,object_08,5,1864,0,9,7,restaurant_7,1,memory-2step-stake-s,613,1629532,0.0-19.0-0.0-0.122,A5BMKZRGHNSRT,3X2LT8FDIZY82IMGP2COH9T7SM78W0,3IOEN3P9SBZVJMLJP1V7TP39KQR16O,8,7
123,2,object_01,object_06,806.16500000167,3,2,283.07000000495,1.0,1,object_03,1,1873,0,9,8,forest_8,1,memory-2step-stake-s,614,1637933,0.0-19.0-0.0-0.123,A5BMKZRGHNSRT,3X2LT8FDIZY82IMGP2COH9T7SM78W0,3IOEN3P9SBZVJMLJP1V7TP39KQR16O,4,3
124,2,object_01,object_06,564.66000000364,3,2,232.09000000497,0.7777777777777778,1,object_03,1,1880,0,7,7,forest_2,1,memory-2step-stake-s,615,1646083,0.0-19.0-0.0-0.124,A5BMKZRGHNSRT,3X2LT8FDIZY82IMGP2COH9T7SM78W0,3IOEN3P9SBZVJMLJP1V7TP39KQR16O,4,3
125,2,object_06,object_01,367.72500000359,3,1,434.51999999513,0.7777777777777778,1,object_03,1,1887,0,7,5,forest_5,1,memory-2step-stake-s,616,1654434,0.0-19.0-0.0-0.125,A5BMKZRGHNSRT,3X2LT8FDIZY82IMGP2COH9T7SM78W0,3IOEN3P9SBZVJMLJP1V7TP39KQR16O,3,4
126,1,object_10,object_07,808.03499999456,1,1,364.69000000204,0.8888888888888888,1,object_03,1,1895,0,8,5,desert_6,1,memory-2step-stake-s,617,1662816,0.0-19.0-0.0-0.126,A5BMKZRGHNSRT,3X2LT8FDIZY82IMGP2COH9T7SM78W0,3IOEN3P9SBZVJMLJP1V7TP39KQR16O,1,2
127,4,object_04,object_09,633.35000000359,8,2,308.76500000875,0.1111111111111111,2,object_08,5,1900,0,7,1,restaurant_3,1,memory-2step-stake-s,618,1670437,0.0-19.0-0.0-0.127,A5BMKZRGHNSRT,3X2LT8FDIZY82IMGP2COH9T7SM78W0,3IOEN3P9SBZVJMLJP1V7TP39KQR16O,7,8
128,1,object_10,object_07,839.60499998648,1,1,243.0000000021,0.6666666666666666,1,object_03,5,1930,0,6,1,desert_7,1,memory-2step-stake-s,620,1699110,0.0-19.0-0.1-0.128,A5BMKZRGHNSRT,3X2LT8FDIZY82IMGP2COH9T7SM78W0,3IOEN3P9SBZVJMLJP1V7TP39KQR16O,1,2
129,1,object_10,object_07,716.75000000675,1,1,247.67500000587,0.6666666666666666,1,object_03,5,1960,0,6,1,desert_5,1,memory-2step-stake-s,621,1707174,0.0-19.0-0.1-0.129,A5BMKZRGHNSRT,3X2LT8FDIZY82IMGP2COH9T7SM78W0,3IOEN3P9SBZVJMLJP1V7TP39KQR16O,1,2
130,2,object_01,object_06,563.93000000389,3,2,231.21499999263,0.8888888888888888,1,object_03,1,1968,0,8,2,forest_8,1,memory-2step-stake-s,622,1715425,0.0-19.0-0.1-0.130,A5BMKZRGHNSRT,3X2LT8FDIZY82IMGP2COH9T7SM78W0,3IOEN3P9SBZVJMLJP1V7TP39KQR16O,4,3
131,3,object_02,object_05,881.62000000011,5,2,276.68999999878,0.7777777777777778,1,object_03,5,2003,0,7,5,library_6,1,memory-2step-stake-s,623,1723620,0.0-19.0-0.1-0.131,A5BMKZRGHNSRT,3X2LT8FDIZY82IMGP2COH9T7SM78W0,3IOEN3P9SBZVJMLJP1V7TP39KQR16O,6,5
132,2,object_01,object_06,669.9549999903,3,2,665.21500000078,0.7777777777777778,1,object_03,1,2010,0,7,5,forest_8,1,memory-2step-stake-s,624,1732203,0.0-19.0-0.1-0.132,A5BMKZRGHNSRT,3X2LT8FDIZY82IMGP2COH9T7SM78W0,3IOEN3P9SBZVJMLJP1V7TP39KQR16O,4,3
133,3,object_05,object_02,678.68500000634,5,1,289.82499999995,0.6666666666666666,1,object_03,1,2016,0,6,6,library_2,1,memory-2step-stake-s,625,1740311,0.0-19.0-0.1-0.133,A5BMKZRGHNSRT,3X2LT8FDIZY82IMGP2COH9T7SM78W0,3IOEN3P9SBZVJMLJP1V7TP39KQR16O,5,6
134,4,object_04,object_09,657.9350000103,8,2,341.31500001228,0.6666666666666666,2,object_08,5,2046,0,6,6,restaurant_3,1,memory-2step-stake-s,626,1748469,0.0-19.0-0.1-0.134,A5BMKZRGHNSRT,3X2LT8FDIZY82IMGP2COH9T7SM78W0,3IOEN3P9SBZVJMLJP1V7TP39KQR16O,7,8
135,4,object_04,object_09,404.67000000342,8,2,247.79000000865,0.7777777777777778,2,object_08,5,2081,0,8,7,restaurant_6,1,memory-2step-stake-s,627,1756637,0.0-19.0-0.1-0.135,A5BMKZRGHNSRT,3X2LT8FDIZY82IMGP2COH9T7SM78W0,3IOEN3P9SBZVJMLJP1V7TP39KQR16O,7,8
136,4,object_09,object_04,612.9650000073,8,1,352.98999999953,0.8888888888888888,2,object_08,5,2121,0,6,8,restaurant_1,1,memory-2step-stake-s,628,1765009,0.0-19.0-0.1-0.136,A5BMKZRGHNSRT,3X2LT8FDIZY82IMGP2COH9T7SM78W0,3IOEN3P9SBZVJMLJP1V7TP39KQR16O,8,7
137,4,object_09,object_04,529.62500001024,8,1,428.74000000302,0.8888888888888888,2,object_08,1,2129,0,7,8,restaurant_7,1,memory-2step-stake-s,629,1773457,0.0-19.0-0.1-0.137,A5BMKZRGHNSRT,3X2LT8FDIZY82IMGP2COH9T7SM78W0,3IOEN3P9SBZVJMLJP1V7TP39KQR16O,8,7
138,1,object_10,object_07,777.73499999614,1,1,228.41000001039,0.6666666666666666,1,object_03,1,2135,0,6,8,desert_7,1,memory-2step-stake-s,630,1781503,0.0-19.0-0.1-0.138,A5BMKZRGHNSRT,3X2LT8FDIZY82IMGP2COH9T7SM78W0,3IOEN3P9SBZVJMLJP1V7TP39KQR16O,1,2
139,3,object_05,object_02,587.50500000315,6,2,335.04499999993,0.6666666666666666,2,object_08,5,2165,0,7,6,library_4,1,memory-2step-stake-s,631,1789654,0.0-19.0-0.1-0.139,A5BMKZRGHNSRT,3X2LT8FDIZY82IMGP2COH9T7SM78W0,3IOEN3P9SBZVJMLJP1V7TP39KQR16O,5,6
140,4,object_09,object_04,611.65000000643,8,1,326.61999999266,0.7777777777777778,2,object_08,5,2200,0,4,7,restaurant_1,1,memory-2step-stake-s,632,1797899,0.0-19.0-0.1-0.140,A5BMKZRGHNSRT,3X2LT8FDIZY82IMGP2COH9T7SM78W0,3IOEN3P9SBZVJMLJP1V7TP39KQR16O,8,7
141,2,object_06,object_01,743.85499999323,4,2,211.42500000121,0.5555555555555556,2,object_08,1,2205,0,5,5,forest_4,1,memory-2step-stake-s,633,1805826,0.0-19.0-0.1-0.141,A5BMKZRGHNSRT,3X2LT8FDIZY82IMGP2COH9T7SM78W0,3IOEN3P9SBZVJMLJP1V7TP39KQR16O,3,4
142,1,object_10,object_07,416.83500001067,1,1,395.64499999676,0.4444444444444444,1,object_03,1,2209,0,4,3,desert_6,1,memory-2step-stake-s,634,1813837,0.0-19.0-0.1-0.142,A5BMKZRGHNSRT,3X2LT8FDIZY82IMGP2COH9T7SM78W0,3IOEN3P9SBZVJMLJP1V7TP39KQR16O,1,2
143,1,object_07,object_10,573.87999999616,2,1,297.05999999726,0.5555555555555556,2,object_08,1,2214,0,7,5,desert_7,1,memory-2step-stake-s,635,1821850,0.0-19.0-0.1-0.143,A5BMKZRGHNSRT,3X2LT8FDIZY82IMGP2COH9T7SM78W0,3IOEN3P9SBZVJMLJP1V7TP39KQR16O,2,1
144,1,object_07,object_10,584.81000000052,1,2,252.40000001201,0.8888888888888888,1,object_03,5,2254,0,8,4,desert_7,1,memory-2step-stake-s,636,1830121,0.0-19.0-0.1-0.144,A5BMKZRGHNSRT,3X2LT8FDIZY82IMGP2COH9T7SM78W0,3IOEN3P9SBZVJMLJP1V7TP39KQR16O,2,1
145,1,object_10,object_07,1033.0049999901,1,1,325.71999999345,0.5555555555555556,1,object_03,1,2259,0,5,6,desert_5,1,memory-2step-stake-s,637,1838163,0.0-19.0-0.1-0.145,A5BMKZRGHNSRT,3X2LT8FDIZY82IMGP2COH9T7SM78W0,3IOEN3P9SBZVJMLJP1V7TP39KQR16O,1,2
146,1,object_10,object_07,695.50000000163,1,1,450.68999999785,0.6666666666666666,1,object_03,1,2265,0,6,6,desert_7,1,memory-2step-stake-s,638,1846429,0.0-19.0-0.1-0.146,A5BMKZRGHNSRT,3X2LT8FDIZY82IMGP2COH9T7SM78W0,3IOEN3P9SBZVJMLJP1V7TP39KQR16O,1,2
147,1,object_07,object_10,573.4749999973,1,2,313.3300000045,0.5555555555555556,1,object_03,5,2290,0,5,5,desert_8,1,memory-2step-stake-s,639,1854457,0.0-19.0-0.1-0.147,A5BMKZRGHNSRT,3X2LT8FDIZY82IMGP2COH9T7SM78W0,3IOEN3P9SBZVJMLJP1V7TP39KQR16O,2,1
148,4,object_04,object_09,705.39000000292,8,2,308.65500000073,0.8888888888888888,2,object_08,5,2330,0,7,8,restaurant_7,1,memory-2step-stake-s,640,1862784,0.0-19.0-0.1-0.148,A5BMKZRGHNSRT,3X2LT8FDIZY82IMGP2COH9T7SM78W0,3IOEN3P9SBZVJMLJP1V7TP39KQR16O,7,8
149,3,object_05,object_02,954.49500001268,5,1,301.40000001108,1.0,1,object_03,5,2375,0,9,4,library_8,1,memory-2step-stake-s,641,1871206,0.0-19.0-0.1-0.149,A5BMKZRGHNSRT,3X2LT8FDIZY82IMGP2COH9T7SM78W0,3IOEN3P9SBZVJMLJP1V7TP39KQR16O,5,6
150,1,object_07,object_10,556.55999999726,1,2,247.82499999856,0.8888888888888888,1,object_03,1,2383,0,8,5,desert_8,1,memory-2step-stake-s,642,1879474,0.0-19.0-0.1-0.150,A5BMKZRGHNSRT,3X2LT8FDIZY82IMGP2COH9T7SM78W0,3IOEN3P9SBZVJMLJP1V7TP39KQR16O,2,1
151,1,object_10,object_07,488.42999999761,1,1,356.47000001348,1.0,1,object_03,1,2392,0,9,3,desert_8,1,memory-2step-stake-s,643,1887950,0.0-19.0-0.1-0.151,A5BMKZRGHNSRT,3X2LT8FDIZY82IMGP2COH9T7SM78W0,3IOEN3P9SBZVJMLJP1V7TP39KQR16O,1,2
152,3,object_02,object_05,915.68999999436,5,2,279.47499998845,0.7777777777777778,1,object_03,5,2427,0,7,0,library_2,1,memory-2step-stake-s,644,1896147,0.0-19.0-0.1-0.152,A5BMKZRGHNSRT,3X2LT8FDIZY82IMGP2COH9T7SM78W0,3IOEN3P9SBZVJMLJP1V7TP39KQR16O,6,5
153,1,object_10,object_07,663.1900000067,1,1,307.8749999986,0.5555555555555556,1,object_03,1,2432,0,5,2,desert_5,1,memory-2step-stake-s,645,1904170,0.0-19.0-0.1-0.153,A5BMKZRGHNSRT,3X2LT8FDIZY82IMGP2COH9T7SM78W0,3IOEN3P9SBZVJMLJP1V7TP39KQR16O,1,2
154,4,object_04,object_09,753.1650000019,8,2,341.10000000522,0.2222222222222222,2,object_08,5,2442,0,4,2,restaurant_7,1,memory-2step-stake-s,646,1911923,0.0-19.0-0.1-0.154,A5BMKZRGHNSRT,3X2LT8FDIZY82IMGP2COH9T7SM78W0,3IOEN3P9SBZVJMLJP1V7TP39KQR16O,7,8
155,2,object_06,object_01,663.33999999915,3,1,379.80499998969,0.3333333333333333,1,object_03,5,2457,0,3,1,forest_2,1,memory-2step-stake-s,647,1919815,0.0-19.0-0.1-0.155,A5BMKZRGHNSRT,3X2LT8FDIZY82IMGP2COH9T7SM78W0,3IOEN3P9SBZVJMLJP1V7TP39KQR16O,3,4
156,1,object_07,object_10,731.36999999406,1,2,255.19999999949,0.0,1,object_03,5,2457,0,0,1,desert_8,1,memory-2step-stake-s,648,1927281,0.0-19.0-0.1-0.156,A5BMKZRGHNSRT,3X2LT8FDIZY82IMGP2COH9T7SM78W0,3IOEN3P9SBZVJMLJP1V7TP39KQR16O,2,1
157,4,object_04,object_09,-1.0,-1,-1,-1.0,0.0,-,0,5,2457,0,3,0,restaurant_6,1,memory-2step-stake-s,649,1933787,0.0-19.0-0.1-0.157,A5BMKZRGHNSRT,3X2LT8FDIZY82IMGP2COH9T7SM78W0,3IOEN3P9SBZVJMLJP1V7TP39KQR16O,7,8
158,3,object_05,object_02,519.48499999708,5,1,258.46500000614,0.3333333333333333,1,object_03,1,2460,0,3,2,library_4,1,memory-2step-stake-s,650,1941560,0.0-19.0-0.1-0.158,A5BMKZRGHNSRT,3X2LT8FDIZY82IMGP2COH9T7SM78W0,3IOEN3P9SBZVJMLJP1V7TP39KQR16O,5,6
159,1,object_07,object_10,714.63000000222,2,1,262.04000000143,0.5555555555555556,2,object_08,5,2485,0,7,5,desert_8,1,memory-2step-stake-s,651,1949538,0.0-19.0-0.1-0.159,A5BMKZRGHNSRT,3X2LT8FDIZY82IMGP2COH9T7SM78W0,3IOEN3P9SBZVJMLJP1V7TP39KQR16O,2,1
160,1,object_07,object_10,464.59000000334,1,2,267.47500000056,0.8888888888888888,1,object_03,1,2493,0,8,6,desert_7,1,memory-2step-stake-s,652,1957825,0.0-19.0-0.1-0.160,A5BMKZRGHNSRT,3X2LT8FDIZY82IMGP2COH9T7SM78W0,3IOEN3P9SBZVJMLJP1V7TP39KQR16O,2,1
161,3,object_02,object_05,465.63500000024,6,1,293.479999993,1.0,2,object_08,5,2538,0,7,9,library_2,1,memory-2step-stake-s,653,1966238,0.0-19.0-0.1-0.161,A5BMKZRGHNSRT,3X2LT8FDIZY82IMGP2COH9T7SM78W0,3IOEN3P9SBZVJMLJP1V7TP39KQR16O,6,5
162,3,object_02,object_05,772.04999999935,6,1,360.70499999914,0.7777777777777778,2,object_08,5,2573,0,8,7,library_6,1,memory-2step-stake-s,654,1974515,0.0-19.0-0.1-0.162,A5BMKZRGHNSRT,3X2LT8FDIZY82IMGP2COH9T7SM78W0,3IOEN3P9SBZVJMLJP1V7TP39KQR16O,6,5
163,2,object_06,object_01,607.37500000698,3,1,442.92000000132,0.8888888888888888,1,object_03,1,2581,0,8,9,forest_8,1,memory-2step-stake-s,655,1982976,0.0-19.0-0.1-0.163,A5BMKZRGHNSRT,3X2LT8FDIZY82IMGP2COH9T7SM78W0,3IOEN3P9SBZVJMLJP1V7TP39KQR16O,3,4
164,3,object_05,object_02,930.38000000548,5,1,319.02500000433,1.0,1,object_03,5,2626,0,9,6,library_4,1,memory-2step-stake-s,656,1991414,0.0-19.0-0.1-0.164,A5BMKZRGHNSRT,3X2LT8FDIZY82IMGP2COH9T7SM78W0,3IOEN3P9SBZVJMLJP1V7TP39KQR16O,5,6
165,4,object_09,object_04,691.91000000853,8,1,551.22999999719,0.4444444444444444,2,object_08,5,2646,0,8,4,restaurant_7,1,memory-2step-stake-s,657,1999581,0.0-19.0-0.1-0.165,A5BMKZRGHNSRT,3X2LT8FDIZY82IMGP2COH9T7SM78W0,3IOEN3P9SBZVJMLJP1V7TP39KQR16O,8,7
166,1,object_10,object_07,629.48499999777,1,1,472.76000000443,0.4444444444444444,1,object_03,1,2650,0,4,6,desert_5,1,memory-2step-stake-s,658,2007669,0.0-19.0-0.1-0.166,A5BMKZRGHNSRT,3X2LT8FDIZY82IMGP2COH9T7SM78W0,3IOEN3P9SBZVJMLJP1V7TP39KQR16O,1,2
167,2,object_06,object_01,485.96999999415,4,2,345.24500000407,0.7777777777777778,2,object_08,1,2657,0,6,7,forest_4,1,memory-2step-stake-s,659,2015931,0.0-19.0-0.1-0.167,A5BMKZRGHNSRT,3X2LT8FDIZY82IMGP2COH9T7SM78W0,3IOEN3P9SBZVJMLJP1V7TP39KQR16O,3,4
168,3,object_02,object_05,735.68499999214,5,2,290.84999999031,0.7777777777777778,1,object_03,5,2692,0,7,4,library_2,1,memory-2step-stake-s,660,2024141,0.0-19.0-0.1-0.168,A5BMKZRGHNSRT,3X2LT8FDIZY82IMGP2COH9T7SM78W0,3IOEN3P9SBZVJMLJP1V7TP39KQR16O,6,5
169,4,object_04,object_09,526.02499999944,7,1,306.32499999763,0.6666666666666666,1,object_03,1,2698,0,6,4,restaurant_3,1,memory-2step-stake-s,661,2032263,0.0-19.0-0.1-0.169,A5BMKZRGHNSRT,3X2LT8FDIZY82IMGP2COH9T7SM78W0,3IOEN3P9SBZVJMLJP1V7TP39KQR16O,7,8
170,2,object_01,object_06,299.28999999538,3,2,247.66500000237,1.0,1,object_03,1,2707,0,9,5,forest_8,1,memory-2step-stake-s,662,2040628,0.0-19.0-0.1-0.170,A5BMKZRGHNSRT,3X2LT8FDIZY82IMGP2COH9T7SM78W0,3IOEN3P9SBZVJMLJP1V7TP39KQR16O,4,3
171,3,object_05,object_02,614.0400000005,6,2,1387.5700000064,0.5555555555555556,2,object_08,5,2732,0,9,5,library_4,1,memory-2step-stake-s,663,2049731,0.0-19.0-0.1-0.171,A5BMKZRGHNSRT,3X2LT8FDIZY82IMGP2COH9T7SM78W0,3IOEN3P9SBZVJMLJP1V7TP39KQR16O,5,6
172,3,object_02,object_05,559.48999999976,6,1,298.90999999759,0.4444444444444444,2,object_08,5,2752,0,8,4,library_6,1,memory-2step-stake-s,664,2057646,0.0-19.0-0.1-0.172,A5BMKZRGHNSRT,3X2LT8FDIZY82IMGP2COH9T7SM78W0,3IOEN3P9SBZVJMLJP1V7TP39KQR16O,6,5
173,4,object_04,object_09,501.46999998833,8,2,432.39499999629,0.6666666666666666,2,object_08,5,2782,0,7,6,restaurant_6,1,memory-2step-stake-s,665,2065895,0.0-19.0-0.1-0.173,A5BMKZRGHNSRT,3X2LT8FDIZY82IMGP2COH9T7SM78W0,3IOEN3P9SBZVJMLJP1V7TP39KQR16O,7,8
174,2,object_06,object_01,1035.5600000038,4,2,487.13999999734,0.6666666666666666,2,object_08,5,2812,0,8,6,forest_8,1,memory-2step-stake-s,666,2074199,0.0-19.0-0.1-0.174,A5BMKZRGHNSRT,3X2LT8FDIZY82IMGP2COH9T7SM78W0,3IOEN3P9SBZVJMLJP1V7TP39KQR16O,3,4
175,4,object_04,object_09,651.12500000373,7,1,279.46000000532,0.8888888888888888,1,object_03,5,2852,0,8,7,restaurant_6,1,memory-2step-stake-s,667,2082496,0.0-19.0-0.1-0.175,A5BMKZRGHNSRT,3X2LT8FDIZY82IMGP2COH9T7SM78W0,3IOEN3P9SBZVJMLJP1V7TP39KQR16O,7,8
176,3,object_05,object_02,651.12999999826,6,2,310.97999999486,0.8888888888888888,2,object_08,5,2892,0,8,8,library_2,1,memory-2step-stake-s,668,2090825,0.0-19.0-0.1-0.176,A5BMKZRGHNSRT,3X2LT8FDIZY82IMGP2COH9T7SM78W0,3IOEN3P9SBZVJMLJP1V7TP39KQR16O,5,6
177,1,object_10,object_07,881.18999999994,2,2,253.59000000753,0.7777777777777778,2,object_08,1,2899,0,7,7,desert_6,1,memory-2step-stake-s,669,2098994,0.0-19.0-0.1-0.177,A5BMKZRGHNSRT,3X2LT8FDIZY82IMGP2COH9T7SM78W0,3IOEN3P9SBZVJMLJP1V7TP39KQR16O,1,2
178,4,object_04,object_09,664.0800000024,8,2,228.17000000179,0.8888888888888888,2,object_08,5,2939,0,6,8,restaurant_7,1,memory-2step-stake-s,670,2107241,0.0-19.0-0.1-0.178,A5BMKZRGHNSRT,3X2LT8FDIZY82IMGP2COH9T7SM78W0,3IOEN3P9SBZVJMLJP1V7TP39KQR16O,7,8
179,4,object_04,object_09,457.26500000432,7,1,478.2399999965,0.8888888888888888,1,object_03,5,2979,0,8,8,restaurant_1,1,memory-2step-stake-s,671,2115738,0.0-19.0-0.1-0.179,A5BMKZRGHNSRT,3X2LT8FDIZY82IMGP2COH9T7SM78W0,3IOEN3P9SBZVJMLJP1V7TP39KQR16O,7,8
180,2,object_01,object_06,664.69999999367,4,1,364.11000000965,0.6666666666666666,2,object_08,1,2985,0,8,6,forest_2,1,memory-2step-stake-s,672,2123920,0.0-19.0-0.1-0.180,A5BMKZRGHNSRT,3X2LT8FDIZY82IMGP2COH9T7SM78W0,3IOEN3P9SBZVJMLJP1V7TP39KQR16O,4,3
181,3,object_02,object_05,658.75999999093,5,2,269.63500000397,0.4444444444444444,1,object_03,5,3005,0,4,6,library_6,1,memory-2step-stake-s,673,2131804,0.0-19.0-0.1-0.181,A5BMKZRGHNSRT,3X2LT8FDIZY82IMGP2COH9T7SM78W0,3IOEN3P9SBZVJMLJP1V7TP39KQR16O,6,5
182,3,object_05,object_02,878.80000000587,6,2,314.36499999836,0.7777777777777778,2,object_08,5,3040,0,7,7,library_8,1,memory-2step-stake-s,674,2140037,0.0-19.0-0.1-0.182,A5BMKZRGHNSRT,3X2LT8FDIZY82IMGP2COH9T7SM78W0,3IOEN3P9SBZVJMLJP1V7TP39KQR16O,5,6
183,1,object_10,object_07,542.71500000358,1,1,457.67499999795,0.7777777777777778,1,object_03,1,3047,0,7,6,desert_6,1,memory-2step-stake-s,675,2148412,0.0-19.0-0.1-0.183,A5BMKZRGHNSRT,3X2LT8FDIZY82IMGP2COH9T7SM78W0,3IOEN3P9SBZVJMLJP1V7TP39KQR16O,1,2
184,1,object_07,object_10,477.79499999853,1,2,274.05500000203,0.8888888888888888,1,object_03,1,3055,0,8,6,desert_6,1,memory-2step-stake-s,676,2156705,0.0-19.0-0.1-0.184,A5BMKZRGHNSRT,3X2LT8FDIZY82IMGP2COH9T7SM78W0,3IOEN3P9SBZVJMLJP1V7TP39KQR16O,2,1
185,2,object_06,object_01,489.52000000281,3,1,300.83500000183,0.5555555555555556,1,object_03,5,3080,0,5,5,forest_5,1,memory-2step-stake-s,677,2164722,0.0-19.0-0.1-0.185,A5BMKZRGHNSRT,3X2LT8FDIZY82IMGP2COH9T7SM78W0,3IOEN3P9SBZVJMLJP1V7TP39KQR16O,3,4
186,4,object_04,object_09,537.49999999115,8,2,252.51500000013,0.6666666666666666,2,object_08,5,3110,0,3,6,restaurant_3,1,memory-2step-stake-s,678,2172790,0.0-19.0-0.1-0.186,A5BMKZRGHNSRT,3X2LT8FDIZY82IMGP2COH9T7SM78W0,3IOEN3P9SBZVJMLJP1V7TP39KQR16O,7,8
187,3,object_02,object_05,628.54000000516,6,1,256.60500000231,0.8888888888888888,2,object_08,1,3118,0,2,8,library_4,1,memory-2step-stake-s,679,2181066,0.0-19.0-0.1-0.187,A5BMKZRGHNSRT,3X2LT8FDIZY82IMGP2COH9T7SM78W0,3IOEN3P9SBZVJMLJP1V7TP39KQR16O,6,5
188,4,object_04,object_09,873.74499998987,8,2,252.42499999888,0.7777777777777778,2,object_08,5,3153,0,5,7,restaurant_7,1,memory-2step-stake-s,680,2189236,0.0-19.0-0.1-0.188,A5BMKZRGHNSRT,3X2LT8FDIZY82IMGP2COH9T7SM78W0,3IOEN3P9SBZVJMLJP1V7TP39KQR16O,7,8
189,3,object_02,object_05,294.75499999523,6,1,265.87499999767,0.7777777777777778,2,object_08,1,3160,0,9,7,library_6,1,memory-2step-stake-s,681,2197421,0.0-19.0-0.1-0.189,A5BMKZRGHNSRT,3X2LT8FDIZY82IMGP2COH9T7SM78W0,3IOEN3P9SBZVJMLJP1V7TP39KQR16O,6,5
190,4,object_09,object_04,462.69499999471,8,1,456.44000000879,0.5555555555555556,2,object_08,5,3185,0,7,5,restaurant_1,1,memory-2step-stake-s,682,2205593,0.0-19.0-0.1-0.190,A5BMKZRGHNSRT,3X2LT8FDIZY82IMGP2COH9T7SM78W0,3IOEN3P9SBZVJMLJP1V7TP39KQR16O,8,7
191,4,object_04,object_09,489.85499999207,8,2,293.55000000261,0.5555555555555556,2,object_08,5,3210,0,6,5,restaurant_6,1,memory-2step-stake-s,683,2213602,0.0-19.0-0.1-0.191,A5BMKZRGHNSRT,3X2LT8FDIZY82IMGP2COH9T7SM78W0,3IOEN3P9SBZVJMLJP1V7TP39KQR16O,7,8
192,2,object_01,object_06,480.29499998642,4,1,204.66000000341,0.6666666666666666,2,object_08,5,3240,0,5,6,forest_4,1,memory-2step-stake-s,684,2221623,0.0-19.0-0.1-0.192,A5BMKZRGHNSRT,3X2LT8FDIZY82IMGP2COH9T7SM78W0,3IOEN3P9SBZVJMLJP1V7TP39KQR16O,4,3
193,3,object_02,object_05,668.43499999959,6,1,447.82000000123,0.5555555555555556,2,object_08,5,3265,0,7,5,library_4,1,memory-2step-stake-s,685,2229785,0.0-19.0-0.1-0.193,A5BMKZRGHNSRT,3X2LT8FDIZY82IMGP2COH9T7SM78W0,3IOEN3P9SBZVJMLJP1V7TP39KQR16O,6,5
194,2,object_06,object_01,345.38499999326,4,2,316.63999998989,0.3333333333333333,2,object_08,1,3268,0,9,3,forest_2,1,memory-2step-stake-s,686,2237615,0.0-19.0-0.1-0.194,A5BMKZRGHNSRT,3X2LT8FDIZY82IMGP2COH9T7SM78W0,3IOEN3P9SBZVJMLJP1V7TP39KQR16O,3,4
195,1,object_10,object_07,555.33000000287,1,1,398.32500000205,0.6666666666666666,1,object_03,1,3274,0,6,1,desert_8,1,memory-2step-stake-s,687,2245832,0.0-19.0-0.1-0.195,A5BMKZRGHNSRT,3X2LT8FDIZY82IMGP2COH9T7SM78W0,3IOEN3P9SBZVJMLJP1V7TP39KQR16O,1,2
196,4,object_09,object_04,595.4250000068,8,1,310.70000000205,0.3333333333333333,2,object_08,5,3289,0,9,3,restaurant_1,1,memory-2step-stake-s,688,2253656,0.0-19.0-0.1-0.196,A5BMKZRGHNSRT,3X2LT8FDIZY82IMGP2COH9T7SM78W0,3IOEN3P9SBZVJMLJP1V7TP39KQR16O,8,7
197,3,object_05,object_02,467.47499999776,6,2,238.51500000479,0.2222222222222222,2,object_08,5,3299,0,8,2,library_8,1,memory-2step-stake-s,689,2261306,0.0-19.0-0.1-0.197,A5BMKZRGHNSRT,3X2LT8FDIZY82IMGP2COH9T7SM78W0,3IOEN3P9SBZVJMLJP1V7TP39KQR16O,5,6
198,3,object_02,object_05,688.63999999315,5,2,379.96500000032,0.6666666666666666,1,object_03,5,3329,0,6,4,library_2,1,memory-2step-stake-s,690,2269504,0.0-19.0-0.1-0.198,A5BMKZRGHNSRT,3X2LT8FDIZY82IMGP2COH9T7SM78W0,3IOEN3P9SBZVJMLJP1V7TP39KQR16O,6,5
199,3,object_02,object_05,555.72499999823,5,2,247.17499999655,0.3333333333333333,1,object_03,5,3344,0,3,6,library_6,1,memory-2step-stake-s,691,2277264,0.0-19.0-0.1-0.199,A5BMKZRGHNSRT,3X2LT8FDIZY82IMGP2COH9T7SM78W0,3IOEN3P9SBZVJMLJP1V7TP39KQR16O,6,5
200,2,object_01,object_06,738.75999999326,4,1,310.15000000456,0.4444444444444444,2,object_08,1,3348,0,1,4,forest_8,1,memory-2step-stake-s,692,2285189,0.0-19.0-0.1-0.200,A5BMKZRGHNSRT,3X2LT8FDIZY82IMGP2COH9T7SM78W0,3IOEN3P9SBZVJMLJP1V7TP39KQR16O,4,3
201,3,object_02,object_05,669.32499999553,5,2,217.53999999771,0.1111111111111111,1,object_03,5,3353,0,1,1,library_8,1,memory-2step-stake-s,693,2292717,0.0-19.0-0.1-0.201,A5BMKZRGHNSRT,3X2LT8FDIZY82IMGP2COH9T7SM78W0,3IOEN3P9SBZVJMLJP1V7TP39KQR16O,6,5
202,4,object_09,object_04,702.33999998914,7,2,306.24999999441,0.4444444444444444,1,object_03,5,3373,0,4,0,restaurant_1,1,memory-2step-stake-s,694,2300637,0.0-19.0-0.1-0.202,A5BMKZRGHNSRT,3X2LT8FDIZY82IMGP2COH9T7SM78W0,3IOEN3P9SBZVJMLJP1V7TP39KQR16O,8,7
203,1,object_10,object_07,638.33500001067,1,1,313.81999999564,0.3333333333333333,1,object_03,1,3376,0,3,2,desert_5,1,memory-2step-stake-s,695,2308465,0.0-19.0-0.1-0.203,A5BMKZRGHNSRT,3X2LT8FDIZY82IMGP2COH9T7SM78W0,3IOEN3P9SBZVJMLJP1V7TP39KQR16O,1,2
204,3,object_05,object_02,842.24499999266,5,1,270.2649999992,0.2222222222222222,1,object_03,5,3386,0,2,3,library_8,1,memory-2step-stake-s,696,2316147,0.0-19.0-0.1-0.204,A5BMKZRGHNSRT,3X2LT8FDIZY82IMGP2COH9T7SM78W0,3IOEN3P9SBZVJMLJP1V7TP39KQR16O,5,6
205,1,object_07,object_10,599.29500000738,2,1,242.79000000376,0.3333333333333333,2,object_08,1,3389,0,4,3,desert_6,1,memory-2step-stake-s,697,2323904,0.0-19.0-0.1-0.205,A5BMKZRGHNSRT,3X2LT8FDIZY82IMGP2COH9T7SM78W0,3IOEN3P9SBZVJMLJP1V7TP39KQR16O,2,1
206,1,object_10,object_07,673.97000000346,2,2,269.50000000931,0.3333333333333333,2,object_08,5,3404,0,2,3,desert_7,1,memory-2step-stake-s,698,2331688,0.0-19.0-0.1-0.206,A5BMKZRGHNSRT,3X2LT8FDIZY82IMGP2COH9T7SM78W0,3IOEN3P9SBZVJMLJP1V7TP39KQR16O,1,2
207,3,object_02,object_05,690.8899999978,5,2,310.03500000201,0.2222222222222222,1,object_03,5,3414,0,2,1,library_2,1,memory-2step-stake-s,699,2339410,0.0-19.0-0.1-0.207,A5BMKZRGHNSRT,3X2LT8FDIZY82IMGP2COH9T7SM78W0,3IOEN3P9SBZVJMLJP1V7TP39KQR16O,6,5
208,3,object_02,object_05,832.22999999998,6,1,308.55000000168,0.2222222222222222,2,object_08,5,3424,0,1,2,library_6,1,memory-2step-stake-s,700,2347130,0.0-19.0-0.1-0.208,A5BMKZRGHNSRT,3X2LT8FDIZY82IMGP2COH9T7SM78W0,3IOEN3P9SBZVJMLJP1V7TP39KQR16O,6,5
209,2,object_01,object_06,1017.2149999999,3,2,285.18999999529,0.0,1,object_03,1,3424,0,0,4,forest_2,1,memory-2step-stake-s,701,2354625,0.0-19.0-0.1-0.209,A5BMKZRGHNSRT,3X2LT8FDIZY82IMGP2COH9T7SM78W0,3IOEN3P9SBZVJMLJP1V7TP39KQR16O,4,3
210,4,object_09,object_04,913.13000000082,8,1,285.58000001078,0.1111111111111111,2,object_08,5,3429,0,2,1,restaurant_7,1,memory-2step-stake-s,702,2362223,0.0-19.0-0.1-0.210,A5BMKZRGHNSRT,3X2LT8FDIZY82IMGP2COH9T7SM78W0,3IOEN3P9SBZVJMLJP1V7TP39KQR16O,8,7
211,3,object_02,object_05,1077.2750000036,6,1,297.18500000285,0.1111111111111111,2,object_08,1,3430,0,0,1,library_4,1,memory-2step-stake-s,703,2369831,0.0-19.0-0.1-0.211,A5BMKZRGHNSRT,3X2LT8FDIZY82IMGP2COH9T7SM78W0,3IOEN3P9SBZVJMLJP1V7TP39KQR16O,6,5
212,4,object_04,object_09,620.47500000335,8,2,263.720000003,0.1111111111111111,2,object_08,5,3435,0,1,1,restaurant_7,1,memory-2step-stake-s,704,2377407,0.0-19.0-0.1-0.212,A5BMKZRGHNSRT,3X2LT8FDIZY82IMGP2COH9T7SM78W0,3IOEN3P9SBZVJMLJP1V7TP39KQR16O,7,8
213,1,object_07,object_10,556.53000000166,2,1,287.15499999793,0.3333333333333333,2,object_08,1,3438,0,3,3,desert_8,1,memory-2step-stake-s,705,2385209,0.0-19.0-0.1-0.213,A5BMKZRGHNSRT,3X2LT8FDIZY82IMGP2COH9T7SM78W0,3IOEN3P9SBZVJMLJP1V7TP39KQR16O,2,1
214,1,object_10,object_07,570.50999999046,1,1,405.67999999598,0.6666666666666666,1,object_03,1,3444,0,6,4,desert_8,1,memory-2step-stake-s,706,2393432,0.0-19.0-0.1-0.214,A5BMKZRGHNSRT,3X2LT8FDIZY82IMGP2COH9T7SM78W0,3IOEN3P9SBZVJMLJP1V7TP39KQR16O,1,2
215,3,object_05,object_02,651.71999999415,5,1,310.29499998828,0.5555555555555556,1,object_03,5,3469,0,5,6,library_8,1,memory-2step-stake-s,707,2401459,0.0-19.0-0.1-0.215,A5BMKZRGHNSRT,3X2LT8FDIZY82IMGP2COH9T7SM78W0,3IOEN3P9SBZVJMLJP1V7TP39KQR16O,5,6
216,1,object_07,object_10,855.77500000363,1,2,346.82999999495,0.6666666666666666,1,object_03,1,3475,0,6,6,desert_8,1,memory-2step-stake-s,708,2409623,0.0-19.0-0.1-0.216,A5BMKZRGHNSRT,3X2LT8FDIZY82IMGP2COH9T7SM78W0,3IOEN3P9SBZVJMLJP1V7TP39KQR16O,2,1
217,2,object_01,object_06,964.71000000043,3,2,351.3549999916,0.5555555555555556,1,object_03,1,3480,0,5,6,forest_5,1,memory-2step-stake-s,709,2417690,0.0-19.0-0.1-0.217,A5BMKZRGHNSRT,3X2LT8FDIZY82IMGP2COH9T7SM78W0,3IOEN3P9SBZVJMLJP1V7TP39KQR16O,4,3
218,2,object_06,object_01,568.75999999465,3,1,268.01500000898,0.7777777777777778,1,object_03,1,3487,0,7,4,forest_5,1,memory-2step-stake-s,710,2425876,0.0-19.0-0.1-0.218,A5BMKZRGHNSRT,3X2LT8FDIZY82IMGP2COH9T7SM78W0,3IOEN3P9SBZVJMLJP1V7TP39KQR16O,3,4
219,4,object_09,object_04,839.70999999996,7,2,290.7799999956,0.6666666666666666,1,object_03,5,3517,0,6,3,restaurant_1,1,memory-2step-stake-s,711,2433982,0.0-19.0-0.1-0.219,A5BMKZRGHNSRT,3X2LT8FDIZY82IMGP2COH9T7SM78W0,3IOEN3P9SBZVJMLJP1V7TP39KQR16O,8,7
220,4,object_09,object_04,820.91999999853,7,2,256.25000000559,1.0,1,object_03,5,3562,0,9,6,restaurant_3,1,memory-2step-stake-s,712,2442357,0.0-19.0-0.1-0.220,A5BMKZRGHNSRT,3X2LT8FDIZY82IMGP2COH9T7SM78W0,3IOEN3P9SBZVJMLJP1V7TP39KQR16O,8,7
221,4,object_09,object_04,349.71500000404,7,2,200.49500001175,0.8888888888888888,1,object_03,1,3570,0,8,5,restaurant_3,1,memory-2step-stake-s,713,2450576,0.0-19.0-0.1-0.221,A5BMKZRGHNSRT,3X2LT8FDIZY82IMGP2COH9T7SM78W0,3IOEN3P9SBZVJMLJP1V7TP39KQR16O,8,7
222,3,object_05,object_02,682.96000000555,5,1,302.72500000149,1.0,1,object_03,1,3579,0,9,4,library_2,1,memory-2step-stake-s,714,2458997,0.0-19.0-0.1-0.222,A5BMKZRGHNSRT,3X2LT8FDIZY82IMGP2COH9T7SM78W0,3IOEN3P9SBZVJMLJP1V7TP39KQR16O,5,6
223,4,object_04,object_09,652.43999999063,7,1,247.78499999968,0.4444444444444444,1,object_03,1,3583,0,4,8,restaurant_1,1,memory-2step-stake-s,715,2466862,0.0-19.0-0.1-0.223,A5BMKZRGHNSRT,3X2LT8FDIZY82IMGP2COH9T7SM78W0,3IOEN3P9SBZVJMLJP1V7TP39KQR16O,7,8
224,4,object_04,object_09,557.50500000454,7,1,8.254999993369,0.5555555555555556,1,object_03,5,3608,0,5,9,restaurant_6,1,memory-2step-stake-s,716,2474586,0.0-19.0-0.1-0.224,A5BMKZRGHNSRT,3X2LT8FDIZY82IMGP2COH9T7SM78W0,3IOEN3P9SBZVJMLJP1V7TP39KQR16O,7,8
225,3,object_05,object_02,704.6049999916,5,1,363.88999999315,0.4444444444444444,1,object_03,5,3628,0,4,9,library_4,1,memory-2step-stake-s,717,2482566,0.0-19.0-0.1-0.225,A5BMKZRGHNSRT,3X2LT8FDIZY82IMGP2COH9T7SM78W0,3IOEN3P9SBZVJMLJP1V7TP39KQR16O,5,6
226,1,object_07,object_10,749.71000000369,2,1,385.18500000658,0.6666666666666666,2,object_08,1,3634,0,4,6,desert_6,1,memory-2step-stake-s,718,2490767,0.0-19.0-0.1-0.226,A5BMKZRGHNSRT,3X2LT8FDIZY82IMGP2COH9T7SM78W0,3IOEN3P9SBZVJMLJP1V7TP39KQR16O,2,1
227,1,object_10,object_07,564.77499999199,2,2,175.91500000004,0.4444444444444444,2,object_08,5,3654,0,7,4,desert_6,1,memory-2step-stake-s,719,2498558,0.0-19.0-0.1-0.227,A5BMKZRGHNSRT,3X2LT8FDIZY82IMGP2COH9T7SM78W0,3IOEN3P9SBZVJMLJP1V7TP39KQR16O,1,2
228,1,object_10,object_07,565.84999999916,2,2,400.50000000326,0.3333333333333333,2,object_08,1,3657,0,6,3,desert_6,1,memory-2step-stake-s,720,2506472,0.0-19.0-0.1-0.228,A5BMKZRGHNSRT,3X2LT8FDIZY82IMGP2COH9T7SM78W0,3IOEN3P9SBZVJMLJP1V7TP39KQR16O,1,2
229,2,object_01,object_06,634.82999999542,4,1,246.10499999812,0.5555555555555556,2,object_08,1,3662,0,5,5,forest_2,1,memory-2step-stake-s,721,2514434,0.0-19.0-0.1-0.229,A5BMKZRGHNSRT,3X2LT8FDIZY82IMGP2COH9T7SM78W0,3IOEN3P9SBZVJMLJP1V7TP39KQR16O,4,3
230,3,object_05,object_02,753.69499999238,5,1,340.67999999365,0.8888888888888888,1,object_03,5,3702,0,8,5,library_2,1,memory-2step-stake-s,722,2522792,0.0-19.0-0.1-0.230,A5BMKZRGHNSRT,3X2LT8FDIZY82IMGP2COH9T7SM78W0,3IOEN3P9SBZVJMLJP1V7TP39KQR16O,5,6
231,4,object_04,object_09,666.85500000324,7,1,358.50499999616,0.7777777777777778,1,object_03,5,3737,0,7,7,restaurant_6,1,memory-2step-stake-s,723,2531067,0.0-19.0-0.1-0.231,A5BMKZRGHNSRT,3X2LT8FDIZY82IMGP2COH9T7SM78W0,3IOEN3P9SBZVJMLJP1V7TP39KQR16O,7,8
232,1,object_07,object_10,751.81499999622,1,2,322.89500000514,0.4444444444444444,1,object_03,1,3741,0,4,7,desert_7,1,memory-2step-stake-s,724,2539005,0.0-19.0-0.1-0.232,A5BMKZRGHNSRT,3X2LT8FDIZY82IMGP2COH9T7SM78W0,3IOEN3P9SBZVJMLJP1V7TP39KQR16O,2,1
233,2,object_06,object_01,484.94999999832,3,1,440.38499999419,0.4444444444444444,1,object_03,1,3745,0,4,8,forest_5,1,memory-2step-stake-s,725,2547061,0.0-19.0-0.1-0.233,A5BMKZRGHNSRT,3X2LT8FDIZY82IMGP2COH9T7SM78W0,3IOEN3P9SBZVJMLJP1V7TP39KQR16O,3,4
234,4,object_04,object_09,765.83500001254,8,2,344.74000000022,0.6666666666666666,2,object_08,5,3775,0,4,6,restaurant_6,1,memory-2step-stake-s,726,2555224,0.0-19.0-0.1-0.234,A5BMKZRGHNSRT,3X2LT8FDIZY82IMGP2COH9T7SM78W0,3IOEN3P9SBZVJMLJP1V7TP39KQR16O,7,8
235,1,object_10,object_07,409.95499999542,1,1,229.35500000324,0.5555555555555556,1,object_03,1,3780,0,5,7,desert_8,1,memory-2step-stake-s,727,2563169,0.0-19.0-0.1-0.235,A5BMKZRGHNSRT,3X2LT8FDIZY82IMGP2COH9T7SM78W0,3IOEN3P9SBZVJMLJP1V7TP39KQR16O,1,2
236,3,object_05,object_02,585.85000000289,6,2,308.95500000054,1.0,2,object_08,5,3825,0,4,9,library_4,1,memory-2step-stake-s,728,2571599,0.0-19.0-0.1-0.236,A5BMKZRGHNSRT,3X2LT8FDIZY82IMGP2COH9T7SM78W0,3IOEN3P9SBZVJMLJP1V7TP39KQR16O,5,6
237,1,object_07,object_10,828.05499999085,2,1,345.10499999998,1.0,2,object_08,1,3834,0,3,9,desert_5,1,memory-2step-stake-s,729,2580063,0.0-19.0-0.1-0.237,A5BMKZRGHNSRT,3X2LT8FDIZY82IMGP2COH9T7SM78W0,3IOEN3P9SBZVJMLJP1V7TP39KQR16O,2,1
238,1,object_10,object_07,371.48499999614,2,2,294.99499998894,0.7777777777777778,2,object_08,1,3841,0,4,7,desert_7,1,memory-2step-stake-s,730,2588276,0.0-19.0-0.1-0.238,A5BMKZRGHNSRT,3X2LT8FDIZY82IMGP2COH9T7SM78W0,3IOEN3P9SBZVJMLJP1V7TP39KQR16O,1,2
239,4,object_09,object_04,870.75499999616,8,1,321.56999999983,0.6666666666666666,2,object_08,5,3871,0,2,6,restaurant_3,1,memory-2step-stake-s,731,2596415,0.0-19.0-0.1-0.239,A5BMKZRGHNSRT,3X2LT8FDIZY82IMGP2COH9T7SM78W0,3IOEN3P9SBZVJMLJP1V7TP39KQR16O,8,7
240,3,object_05,object_02,939.74999999022,5,1,294.949999996,0.4444444444444444,1,object_03,5,3891,0,4,3,library_8,1,memory-2step-stake-s,732,2604326,0.0-19.0-0.1-0.240,A5BMKZRGHNSRT,3X2LT8FDIZY82IMGP2COH9T7SM78W0,3IOEN3P9SBZVJMLJP1V7TP39KQR16O,5,6
241,1,object_07,object_10,933.72000000067,2,1,280.55500000482,0.3333333333333333,2,object_08,1,3894,0,5,3,desert_6,1,memory-2step-stake-s,733,2612120,0.0-19.0-0.1-0.241,A5BMKZRGHNSRT,3X2LT8FDIZY82IMGP2COH9T7SM78W0,3IOEN3P9SBZVJMLJP1V7TP39KQR16O,2,1
242,1,object_10,object_07,1234.7900000024,2,2,374.14500000887,0.1111111111111111,2,object_08,1,3895,0,3,1,desert_7,1,memory-2step-stake-s,734,2619807,0.0-19.0-0.1-0.242,A5BMKZRGHNSRT,3X2LT8FDIZY82IMGP2COH9T7SM78W0,3IOEN3P9SBZVJMLJP1V7TP39KQR16O,1,2
243,2,object_06,object_01,627.78999999864,3,1,342.69000000507,0.2222222222222222,1,object_03,5,3905,0,2,3,forest_8,1,memory-2step-stake-s,735,2627563,0.0-19.0-0.1-0.243,A5BMKZRGHNSRT,3X2LT8FDIZY82IMGP2COH9T7SM78W0,3IOEN3P9SBZVJMLJP1V7TP39KQR16O,3,4
244,4,object_04,object_09,959.83999999613,7,1,331.25000000279,0.0,1,object_03,5,3905,0,0,4,restaurant_3,1,memory-2step-stake-s,736,2635104,0.0-19.0-0.1-0.244,A5BMKZRGHNSRT,3X2LT8FDIZY82IMGP2COH9T7SM78W0,3IOEN3P9SBZVJMLJP1V7TP39KQR16O,7,8
245,3,object_02,object_05,834.84499999043,6,1,245.75000000186,0.4444444444444444,2,object_08,1,3909,0,1,4,library_4,1,memory-2step-stake-s,737,2642965,0.0-19.0-0.1-0.245,A5BMKZRGHNSRT,3X2LT8FDIZY82IMGP2COH9T7SM78W0,3IOEN3P9SBZVJMLJP1V7TP39KQR16O,6,5
246,2,object_01,object_06,926.01999999909,3,2,346.40499998955,0.3333333333333333,1,object_03,5,3924,0,3,3,forest_8,1,memory-2step-stake-s,738,2650824,0.0-19.0-0.1-0.246,A5BMKZRGHNSRT,3X2LT8FDIZY82IMGP2COH9T7SM78W0,3IOEN3P9SBZVJMLJP1V7TP39KQR16O,4,3
247,1,object_07,object_10,395.10499998881,2,1,470.96500000032,0.8888888888888888,2,object_08,1,3932,0,6,8,desert_7,1,memory-2step-stake-s,739,2659314,0.0-19.0-0.1-0.247,A5BMKZRGHNSRT,3X2LT8FDIZY82IMGP2COH9T7SM78W0,3IOEN3P9SBZVJMLJP1V7TP39KQR16O,2,1
248,2,object_06,object_01,824.9649999924,4,2,356.77499999292,0.3333333333333333,2,object_08,1,3935,0,7,3,forest_4,1,memory-2step-stake-s,740,2667186,0.0-19.0-0.1-0.248,A5BMKZRGHNSRT,3X2LT8FDIZY82IMGP2COH9T7SM78W0,3IOEN3P9SBZVJMLJP1V7TP39KQR16O,3,4
249,2,object_01,object_06,689.61499999557,4,1,381.02500000969,0.3333333333333333,2,object_08,1,3938,0,8,3,forest_4,1,memory-2step-stake-s,741,2675081,0.0-19.0-0.1-0.249,A5BMKZRGHNSRT,3X2LT8FDIZY82IMGP2COH9T7SM78W0,3IOEN3P9SBZVJMLJP1V7TP39KQR16O,4,3
250,3,object_05,object_02,1074.760000003,6,2,221.62500000559,0.3333333333333333,2,object_08,5,3953,0,6,3,library_4,1,memory-2step-stake-s,742,2682815,0.0-19.0-0.1-0.250,A5BMKZRGHNSRT,3X2LT8FDIZY82IMGP2COH9T7SM78W0,3IOEN3P9SBZVJMLJP1V7TP39KQR16O,5,6
251,2,object_01,object_06,923.7950000097,3,2,278.54499999387,1.0,1,object_03,1,3962,0,9,4,forest_4,1,memory-2step-stake-s,743,2691214,0.0-19.0-0.1-0.251,A5BMKZRGHNSRT,3X2LT8FDIZY82IMGP2COH9T7SM78W0,3IOEN3P9SBZVJMLJP1V7TP39KQR16O,4,3
252,3,object_02,object_05,829.64999999991,5,2,344.59999999637,0.8888888888888888,1,object_03,5,4002,0,8,5,library_2,1,memory-2step-stake-s,744,2699576,0.0-19.0-0.1-0.252,A5BMKZRGHNSRT,3X2LT8FDIZY82IMGP2COH9T7SM78W0,3IOEN3P9SBZVJMLJP1V7TP39KQR16O,6,5
253,2,object_01,object_06,682.8499999973,3,2,422.74500000384,0.7777777777777778,1,object_03,1,4009,0,7,7,forest_5,1,memory-2step-stake-s,745,2707917,0.0-19.0-0.1-0.253,A5BMKZRGHNSRT,3X2LT8FDIZY82IMGP2COH9T7SM78W0,3IOEN3P9SBZVJMLJP1V7TP39KQR16O,4,3
254,3,object_05,object_02,750.78000000212,5,1,281.6750000054,0.5555555555555556,1,object_03,5,4034,0,5,4,library_4,1,memory-2step-stake-s,746,2715914,0.0-19.0-0.1-0.254,A5BMKZRGHNSRT,3X2LT8FDIZY82IMGP2COH9T7SM78W0,3IOEN3P9SBZVJMLJP1V7TP39KQR16O,5,6
255,2,object_01,object_06,801.07000000123,3,2,261.37499998743,0.4444444444444444,1,object_03,1,4038,0,4,6,forest_4,1,memory-2step-stake-s,747,2723789,0.0-19.0-0.1-0.255,A5BMKZRGHNSRT,3X2LT8FDIZY82IMGP2COH9T7SM78W0,3IOEN3P9SBZVJMLJP1V7TP39KQR16O,4,3
