,state1,stim_left,stim_right,rt_1,choice1,response1,rt_2,points,state2,stim_state2,stake,score,practice,rews1,rews2,background,high_arm,trial_type,trial_index,time_elapsed,internal_node_id,subid,hitid,assignmentid,stim_left_num,stim_right_num
0,4,object_04,object_07,769.60000002384,7,1,770.90000000596,0.1111111111111111,1,object_09,5,5,0,1,5,restaurant_7,1,memory-2step-stake-s,497,1880044,0.0-19.0-0.0-0.0,A2GXE6MIDN8DPR,3QGHA0EA1MGR4GKNSEWY8BJ80SRWBM,3IRIK4HM3E0F6PVH5YKRALM0ONXC64,7,8
1,4,object_04,object_07,1022.400000006,7,1,764.10000002384,0.0,1,object_09,1,5,0,0,6,restaurant_7,1,memory-2step-stake-s,498,1888085,0.0-19.0-0.0-0.1,A2GXE6MIDN8DPR,3QGHA0EA1MGR4GKNSEWY8BJ80SRWBM,3IRIK4HM3E0F6PVH5YKRALM0ONXC64,7,8
2,3,object_02,object_08,901.80000001192,5,1,814.0,0.5555555555555556,1,object_09,5,30,0,5,6,library_5,1,memory-2step-stake-s,499,1896682,0.0-19.0-0.0-0.2,A2GXE6MIDN8DPR,3QGHA0EA1MGR4GKNSEWY8BJ80SRWBM,3IRIK4HM3E0F6PVH5YKRALM0ONXC64,5,6
3,4,object_07,object_04,1156.7000000179,7,2,908.0,0.3333333333333333,1,object_09,5,45,0,3,6,restaurant_2,1,memory-2step-stake-s,500,1905167,0.0-19.0-0.0-0.3,A2GXE6MIDN8DPR,3QGHA0EA1MGR4GKNSEWY8BJ80SRWBM,3IRIK4HM3E0F6PVH5YKRALM0ONXC64,8,7
4,1,object_06,object_05,1227.2000000179,2,2,1247.099999994,0.4444444444444444,2,object_01,1,49,0,4,4,desert_8,1,memory-2step-stake-s,501,1914110,0.0-19.0-0.0-0.4,A2GXE6MIDN8DPR,3QGHA0EA1MGR4GKNSEWY8BJ80SRWBM,3IRIK4HM3E0F6PVH5YKRALM0ONXC64,1,2
5,3,object_08,object_02,1213.8000000119,5,2,552.5,0.8888888888888888,1,object_09,5,89,0,8,1,library_4,1,memory-2step-stake-s,502,1922762,0.0-19.0-0.0-0.5,A2GXE6MIDN8DPR,3QGHA0EA1MGR4GKNSEWY8BJ80SRWBM,3IRIK4HM3E0F6PVH5YKRALM0ONXC64,6,5
6,3,object_08,object_02,844.59999999404,5,2,603.40000000596,0.6666666666666666,1,object_09,5,119,0,6,2,library_4,1,memory-2step-stake-s,503,1931261,0.0-19.0-0.0-0.6,A2GXE6MIDN8DPR,3QGHA0EA1MGR4GKNSEWY8BJ80SRWBM,3IRIK4HM3E0F6PVH5YKRALM0ONXC64,6,5
7,1,object_06,object_05,1081.3000000119,1,1,564.30000001192,0.3333333333333333,1,object_09,1,122,0,3,3,desert_8,1,memory-2step-stake-s,504,1939371,0.0-19.0-0.0-0.7,A2GXE6MIDN8DPR,3QGHA0EA1MGR4GKNSEWY8BJ80SRWBM,3IRIK4HM3E0F6PVH5YKRALM0ONXC64,1,2
8,2,object_10,object_03,1125.6000000238,3,1,597.09999999404,0.1111111111111111,1,object_09,1,123,0,1,0,forest_2,1,memory-2step-stake-s,505,1947332,0.0-19.0-0.0-0.8,A2GXE6MIDN8DPR,3QGHA0EA1MGR4GKNSEWY8BJ80SRWBM,3IRIK4HM3E0F6PVH5YKRALM0ONXC64,3,4
9,3,object_02,object_08,1119.6999999881,5,1,27.59999999404,0.1111111111111111,1,object_09,5,128,0,1,0,library_4,1,memory-2step-stake-s,506,1954721,0.0-19.0-0.0-0.9,A2GXE6MIDN8DPR,3QGHA0EA1MGR4GKNSEWY8BJ80SRWBM,3IRIK4HM3E0F6PVH5YKRALM0ONXC64,5,6
10,4,object_07,object_04,1304.2999999821,8,1,562.90000000596,0.2222222222222222,2,object_01,1,130,0,3,2,restaurant_3,1,memory-2step-stake-s,507,1962756,0.0-19.0-0.0-0.10,A2GXE6MIDN8DPR,3QGHA0EA1MGR4GKNSEWY8BJ80SRWBM,3IRIK4HM3E0F6PVH5YKRALM0ONXC64,8,7
11,1,object_05,object_06,592.0,2,1,812.09999999404,0.3333333333333333,2,object_01,1,133,0,4,3,desert_6,1,memory-2step-stake-s,508,1971156,0.0-19.0-0.0-0.11,A2GXE6MIDN8DPR,3QGHA0EA1MGR4GKNSEWY8BJ80SRWBM,3IRIK4HM3E0F6PVH5YKRALM0ONXC64,2,1
12,3,object_08,object_02,758.80000001192,6,1,-1.0,0.0,2,object_01,5,133,0,5,0,library_5,1,memory-2step-stake-s,509,1979731,0.0-19.0-0.0-0.12,A2GXE6MIDN8DPR,3QGHA0EA1MGR4GKNSEWY8BJ80SRWBM,3IRIK4HM3E0F6PVH5YKRALM0ONXC64,6,5
13,4,object_07,object_04,980.90000000596,7,2,-1.0,0.0,1,object_09,5,133,0,5,2,restaurant_8,1,memory-2step-stake-s,510,1988312,0.0-19.0-0.0-0.13,A2GXE6MIDN8DPR,3QGHA0EA1MGR4GKNSEWY8BJ80SRWBM,3IRIK4HM3E0F6PVH5YKRALM0ONXC64,8,7
14,3,object_02,object_08,684.0,5,1,-1.0,0.0,1,object_09,5,133,0,6,3,library_4,1,memory-2step-stake-s,511,1996864,0.0-19.0-0.0-0.14,A2GXE6MIDN8DPR,3QGHA0EA1MGR4GKNSEWY8BJ80SRWBM,3IRIK4HM3E0F6PVH5YKRALM0ONXC64,5,6
15,3,object_02,object_08,1163.900000006,6,2,-1.0,0.0,2,object_01,5,133,0,8,3,library_5,1,memory-2step-stake-s,512,2005412,0.0-19.0-0.0-0.15,A2GXE6MIDN8DPR,3QGHA0EA1MGR4GKNSEWY8BJ80SRWBM,3IRIK4HM3E0F6PVH5YKRALM0ONXC64,5,6
16,2,object_10,object_03,1159.8999999762,3,1,-1.0,0.0,1,object_09,1,133,0,9,3,forest_7,1,memory-2step-stake-s,513,2013958,0.0-19.0-0.0-0.16,A2GXE6MIDN8DPR,3QGHA0EA1MGR4GKNSEWY8BJ80SRWBM,3IRIK4HM3E0F6PVH5YKRALM0ONXC64,3,4
17,3,object_02,object_08,706.09999999404,6,2,-1.0,0.0,2,object_01,5,133,0,5,5,library_8,1,memory-2step-stake-s,514,2022511,0.0-19.0-0.0-0.17,A2GXE6MIDN8DPR,3QGHA0EA1MGR4GKNSEWY8BJ80SRWBM,3IRIK4HM3E0F6PVH5YKRALM0ONXC64,5,6
18,4,object_07,object_04,831.40000000596,8,1,-1.0,0.0,2,object_01,5,133,0,3,7,restaurant_8,1,memory-2step-stake-s,515,2031045,0.0-19.0-0.0-0.18,A2GXE6MIDN8DPR,3QGHA0EA1MGR4GKNSEWY8BJ80SRWBM,3IRIK4HM3E0F6PVH5YKRALM0ONXC64,8,7
19,4,object_07,object_04,692.40000000596,7,2,-1.0,0.0,1,object_09,1,133,0,3,7,restaurant_3,1,memory-2step-stake-s,516,2039609,0.0-19.0-0.0-0.19,A2GXE6MIDN8DPR,3QGHA0EA1MGR4GKNSEWY8BJ80SRWBM,3IRIK4HM3E0F6PVH5YKRALM0ONXC64,8,7
20,3,object_08,object_02,1193.900000006,5,2,-1.0,0.0,1,object_09,5,133,0,6,7,library_6,1,memory-2step-stake-s,517,2048174,0.0-19.0-0.0-0.20,A2GXE6MIDN8DPR,3QGHA0EA1MGR4GKNSEWY8BJ80SRWBM,3IRIK4HM3E0F6PVH5YKRALM0ONXC64,6,5
21,1,object_06,object_05,1354.599999994,2,2,-1.0,0.0,2,object_01,1,133,0,3,4,desert_4,1,memory-2step-stake-s,518,2056722,0.0-19.0-0.0-0.21,A2GXE6MIDN8DPR,3QGHA0EA1MGR4GKNSEWY8BJ80SRWBM,3IRIK4HM3E0F6PVH5YKRALM0ONXC64,1,2
22,1,object_05,object_06,1130.900000006,1,2,-1.0,0.0,1,object_09,1,133,0,7,6,desert_8,1,memory-2step-stake-s,519,2065278,0.0-19.0-0.0-0.22,A2GXE6MIDN8DPR,3QGHA0EA1MGR4GKNSEWY8BJ80SRWBM,3IRIK4HM3E0F6PVH5YKRALM0ONXC64,2,1
23,2,object_03,object_10,1075.5,3,2,-1.0,0.0,1,object_09,1,133,0,7,4,forest_1,1,memory-2step-stake-s,520,2073829,0.0-19.0-0.0-0.23,A2GXE6MIDN8DPR,3QGHA0EA1MGR4GKNSEWY8BJ80SRWBM,3IRIK4HM3E0F6PVH5YKRALM0ONXC64,4,3
24,3,object_02,object_08,-1.0,-1,-1,-1.0,0.0,-,0,1,133,0,6,6,library_6,1,memory-2step-stake-s,521,2080381,0.0-19.0-0.0-0.24,A2GXE6MIDN8DPR,3QGHA0EA1MGR4GKNSEWY8BJ80SRWBM,3IRIK4HM3E0F6PVH5YKRALM0ONXC64,5,6
25,4,object_04,object_07,605.40000000596,8,2,-1.0,0.0,2,object_01,5,133,0,6,7,restaurant_3,1,memory-2step-stake-s,522,2088939,0.0-19.0-0.0-0.25,A2GXE6MIDN8DPR,3QGHA0EA1MGR4GKNSEWY8BJ80SRWBM,3IRIK4HM3E0F6PVH5YKRALM0ONXC64,7,8
26,2,object_03,object_10,995.40000000596,3,2,-1.0,0.0,1,object_09,1,133,0,5,7,forest_1,1,memory-2step-stake-s,523,2097495,0.0-19.0-0.0-0.26,A2GXE6MIDN8DPR,3QGHA0EA1MGR4GKNSEWY8BJ80SRWBM,3IRIK4HM3E0F6PVH5YKRALM0ONXC64,4,3
27,3,object_08,object_02,1030.8000000119,6,1,-1.0,0.0,2,object_01,1,133,0,8,5,library_8,1,memory-2step-stake-s,524,2106082,0.0-19.0-0.0-0.27,A2GXE6MIDN8DPR,3QGHA0EA1MGR4GKNSEWY8BJ80SRWBM,3IRIK4HM3E0F6PVH5YKRALM0ONXC64,6,5
28,3,object_08,object_02,678.30000001192,5,2,-1.0,0.0,1,object_09,1,133,0,6,5,library_8,1,memory-2step-stake-s,525,2114653,0.0-19.0-0.0-0.28,A2GXE6MIDN8DPR,3QGHA0EA1MGR4GKNSEWY8BJ80SRWBM,3IRIK4HM3E0F6PVH5YKRALM0ONXC64,6,5
29,1,object_06,object_05,782.0,1,1,-1.0,0.0,1,object_09,1,133,0,8,5,desert_3,1,memory-2step-stake-s,526,2123212,0.0-19.0-0.0-0.29,A2GXE6MIDN8DPR,3QGHA0EA1MGR4GKNSEWY8BJ80SRWBM,3IRIK4HM3E0F6PVH5YKRALM0ONXC64,1,2
30,1,object_06,object_05,754.80000001192,1,1,-1.0,0.0,1,object_09,1,133,0,9,7,desert_3,1,memory-2step-stake-s,527,2131760,0.0-19.0-0.0-0.30,A2GXE6MIDN8DPR,3QGHA0EA1MGR4GKNSEWY8BJ80SRWBM,3IRIK4HM3E0F6PVH5YKRALM0ONXC64,1,2
31,4,object_04,object_07,834.80000001192,7,1,-1.0,0.0,1,object_09,5,133,0,8,4,restaurant_2,1,memory-2step-stake-s,528,2140317,0.0-19.0-0.0-0.31,A2GXE6MIDN8DPR,3QGHA0EA1MGR4GKNSEWY8BJ80SRWBM,3IRIK4HM3E0F6PVH5YKRALM0ONXC64,7,8
32,4,object_07,object_04,746.90000000596,7,2,-1.0,0.0,1,object_09,5,133,0,8,6,restaurant_3,1,memory-2step-stake-s,529,2148878,0.0-19.0-0.0-0.32,A2GXE6MIDN8DPR,3QGHA0EA1MGR4GKNSEWY8BJ80SRWBM,3IRIK4HM3E0F6PVH5YKRALM0ONXC64,8,7
33,2,object_10,object_03,703.40000000596,3,1,-1.0,0.0,1,object_09,1,133,0,6,5,forest_2,1,memory-2step-stake-s,530,2157416,0.0-19.0-0.0-0.33,A2GXE6MIDN8DPR,3QGHA0EA1MGR4GKNSEWY8BJ80SRWBM,3IRIK4HM3E0F6PVH5YKRALM0ONXC64,3,4
34,3,object_02,object_08,701.29999998212,6,2,-1.0,0.0,2,object_01,5,133,0,6,3,library_6,1,memory-2step-stake-s,531,2165968,0.0-19.0-0.0-0.34,A2GXE6MIDN8DPR,3QGHA0EA1MGR4GKNSEWY8BJ80SRWBM,3IRIK4HM3E0F6PVH5YKRALM0ONXC64,5,6
35,1,object_06,object_05,657.09999999404,1,1,-1.0,0.0,1,object_09,1,133,0,8,4,desert_6,1,memory-2step-stake-s,532,2174521,0.0-19.0-0.0-0.35,A2GXE6MIDN8DPR,3QGHA0EA1MGR4GKNSEWY8BJ80SRWBM,3IRIK4HM3E0F6PVH5YKRALM0ONXC64,1,2
36,1,object_06,object_05,527.10000002384,1,1,-1.0,0.0,1,object_09,1,133,0,9,6,desert_3,1,memory-2step-stake-s,533,2183068,0.0-19.0-0.0-0.36,A2GXE6MIDN8DPR,3QGHA0EA1MGR4GKNSEWY8BJ80SRWBM,3IRIK4HM3E0F6PVH5YKRALM0ONXC64,1,2
37,4,object_04,object_07,849.90000000596,7,1,-1.0,0.0,1,object_09,5,133,0,7,7,restaurant_3,1,memory-2step-stake-s,534,2191654,0.0-19.0-0.0-0.37,A2GXE6MIDN8DPR,3QGHA0EA1MGR4GKNSEWY8BJ80SRWBM,3IRIK4HM3E0F6PVH5YKRALM0ONXC64,7,8
38,1,object_05,object_06,812.90000000596,1,2,-1.0,0.0,1,object_09,1,133,0,7,5,desert_6,1,memory-2step-stake-s,535,2200221,0.0-19.0-0.0-0.38,A2GXE6MIDN8DPR,3QGHA0EA1MGR4GKNSEWY8BJ80SRWBM,3IRIK4HM3E0F6PVH5YKRALM0ONXC64,2,1
39,1,object_05,object_06,689.19999998808,1,2,423.80000001192,0.8888888888888888,1,object_09,5,173,0,8,3,desert_8,1,memory-2step-stake-s,536,2208745,0.0-19.0-0.0-0.39,A2GXE6MIDN8DPR,3QGHA0EA1MGR4GKNSEWY8BJ80SRWBM,3IRIK4HM3E0F6PVH5YKRALM0ONXC64,2,1
40,3,object_02,object_08,644.40000000596,5,1,-1.0,0.0,1,object_09,5,173,0,8,4,library_8,1,memory-2step-stake-s,537,2217282,0.0-19.0-0.0-0.40,A2GXE6MIDN8DPR,3QGHA0EA1MGR4GKNSEWY8BJ80SRWBM,3IRIK4HM3E0F6PVH5YKRALM0ONXC64,5,6
41,1,object_05,object_06,496.90000000596,1,2,384.69999998808,0.7777777777777778,1,object_09,5,208,0,7,3,desert_6,1,memory-2step-stake-s,538,2225671,0.0-19.0-0.0-0.41,A2GXE6MIDN8DPR,3QGHA0EA1MGR4GKNSEWY8BJ80SRWBM,3IRIK4HM3E0F6PVH5YKRALM0ONXC64,2,1
42,1,object_06,object_05,442.0,1,1,311.09999999404,1.0,1,object_09,1,217,0,9,4,desert_6,1,memory-2step-stake-s,539,2234179,0.0-19.0-0.0-0.42,A2GXE6MIDN8DPR,3QGHA0EA1MGR4GKNSEWY8BJ80SRWBM,3IRIK4HM3E0F6PVH5YKRALM0ONXC64,1,2
43,4,object_07,object_04,408.69999998808,8,1,494.40000000596,0.4444444444444444,2,object_01,5,237,0,7,4,restaurant_3,1,memory-2step-stake-s,540,2242373,0.0-19.0-0.0-0.43,A2GXE6MIDN8DPR,3QGHA0EA1MGR4GKNSEWY8BJ80SRWBM,3IRIK4HM3E0F6PVH5YKRALM0ONXC64,8,7
44,4,object_04,object_07,960.0,7,1,429.90000000596,0.8888888888888888,1,object_09,5,277,0,8,8,restaurant_2,1,memory-2step-stake-s,541,2250931,0.0-19.0-0.0-0.44,A2GXE6MIDN8DPR,3QGHA0EA1MGR4GKNSEWY8BJ80SRWBM,3IRIK4HM3E0F6PVH5YKRALM0ONXC64,7,8
45,2,object_03,object_10,444.29999998212,3,2,343.59999999404,0.8888888888888888,1,object_09,5,317,0,8,8,forest_2,1,memory-2step-stake-s,542,2259377,0.0-19.0-0.0-0.45,A2GXE6MIDN8DPR,3QGHA0EA1MGR4GKNSEWY8BJ80SRWBM,3IRIK4HM3E0F6PVH5YKRALM0ONXC64,4,3
46,2,object_03,object_10,659.79999998212,4,1,352.09999999404,0.8888888888888888,2,object_01,1,325,0,7,8,forest_2,1,memory-2step-stake-s,543,2267856,0.0-19.0-0.0-0.46,A2GXE6MIDN8DPR,3QGHA0EA1MGR4GKNSEWY8BJ80SRWBM,3IRIK4HM3E0F6PVH5YKRALM0ONXC64,4,3
47,2,object_03,object_10,575.09999999404,3,2,332.90000000596,0.7777777777777778,1,object_09,1,332,0,7,6,forest_2,1,memory-2step-stake-s,544,2276188,0.0-19.0-0.0-0.47,A2GXE6MIDN8DPR,3QGHA0EA1MGR4GKNSEWY8BJ80SRWBM,3IRIK4HM3E0F6PVH5YKRALM0ONXC64,4,3
48,2,object_10,object_03,695.5,3,1,441.0,0.7777777777777778,1,object_09,1,339,0,7,6,forest_7,1,memory-2step-stake-s,545,2284618,0.0-19.0-0.0-0.48,A2GXE6MIDN8DPR,3QGHA0EA1MGR4GKNSEWY8BJ80SRWBM,3IRIK4HM3E0F6PVH5YKRALM0ONXC64,3,4
49,1,object_05,object_06,529.0,1,2,18.699999988079,0.8888888888888888,1,object_09,5,379,0,8,5,desert_6,1,memory-2step-stake-s,546,2292709,0.0-19.0-0.0-0.49,A2GXE6MIDN8DPR,3QGHA0EA1MGR4GKNSEWY8BJ80SRWBM,3IRIK4HM3E0F6PVH5YKRALM0ONXC64,2,1
50,2,object_10,object_03,550.40000000596,3,1,599.10000002384,0.7777777777777778,1,object_09,1,386,0,7,5,forest_1,1,memory-2step-stake-s,547,2301309,0.0-19.0-0.0-0.50,A2GXE6MIDN8DPR,3QGHA0EA1MGR4GKNSEWY8BJ80SRWBM,3IRIK4HM3E0F6PVH5YKRALM0ONXC64,3,4
51,4,object_07,object_04,700.5,7,2,402.80000001192,0.8888888888888888,1,object_09,5,426,0,8,3,restaurant_7,1,memory-2step-stake-s,548,2309828,0.0-19.0-0.0-0.51,A2GXE6MIDN8DPR,3QGHA0EA1MGR4GKNSEWY8BJ80SRWBM,3IRIK4HM3E0F6PVH5YKRALM0ONXC64,8,7
52,3,object_02,object_08,632.29999998212,5,1,355.09999999404,0.3333333333333333,1,object_09,5,441,0,3,3,library_4,1,memory-2step-stake-s,549,2317778,0.0-19.0-0.0-0.52,A2GXE6MIDN8DPR,3QGHA0EA1MGR4GKNSEWY8BJ80SRWBM,3IRIK4HM3E0F6PVH5YKRALM0ONXC64,5,6
53,2,object_10,object_03,547.5,3,1,320.5,0.4444444444444444,1,object_09,1,445,0,4,2,forest_7,1,memory-2step-stake-s,550,2325775,0.0-19.0-0.0-0.53,A2GXE6MIDN8DPR,3QGHA0EA1MGR4GKNSEWY8BJ80SRWBM,3IRIK4HM3E0F6PVH5YKRALM0ONXC64,3,4
54,3,object_08,object_02,626.69999998808,6,1,307.19999998808,0.0,2,object_01,5,445,0,1,0,library_4,1,memory-2step-stake-s,551,2333330,0.0-19.0-0.0-0.54,A2GXE6MIDN8DPR,3QGHA0EA1MGR4GKNSEWY8BJ80SRWBM,3IRIK4HM3E0F6PVH5YKRALM0ONXC64,6,5
55,3,object_02,object_08,916.5,5,1,268.40000000596,0.5555555555555556,1,object_09,5,470,0,5,1,library_5,1,memory-2step-stake-s,552,2341426,0.0-19.0-0.0-0.55,A2GXE6MIDN8DPR,3QGHA0EA1MGR4GKNSEWY8BJ80SRWBM,3IRIK4HM3E0F6PVH5YKRALM0ONXC64,5,6
56,3,object_02,object_08,556.5,5,1,361.69999998808,0.8888888888888888,1,object_09,5,510,0,8,0,library_4,1,memory-2step-stake-s,553,2349873,0.0-19.0-0.0-0.56,A2GXE6MIDN8DPR,3QGHA0EA1MGR4GKNSEWY8BJ80SRWBM,3IRIK4HM3E0F6PVH5YKRALM0ONXC64,5,6
57,2,object_03,object_10,595.69999998808,4,1,394.0,0.1111111111111111,2,object_01,1,511,0,7,1,forest_8,1,memory-2step-stake-s,554,2357624,0.0-19.0-0.0-0.57,A2GXE6MIDN8DPR,3QGHA0EA1MGR4GKNSEWY8BJ80SRWBM,3IRIK4HM3E0F6PVH5YKRALM0ONXC64,4,3
58,3,object_02,object_08,486.09999999404,5,1,490.5,0.8888888888888888,1,object_09,5,551,0,8,4,library_6,1,memory-2step-stake-s,555,2366189,0.0-19.0-0.0-0.58,A2GXE6MIDN8DPR,3QGHA0EA1MGR4GKNSEWY8BJ80SRWBM,3IRIK4HM3E0F6PVH5YKRALM0ONXC64,5,6
59,2,object_10,object_03,584.0,4,2,319.0,0.5555555555555556,2,object_01,1,556,0,7,5,forest_8,1,memory-2step-stake-s,556,2374272,0.0-19.0-0.0-0.59,A2GXE6MIDN8DPR,3QGHA0EA1MGR4GKNSEWY8BJ80SRWBM,3IRIK4HM3E0F6PVH5YKRALM0ONXC64,3,4
60,2,object_03,object_10,1300.400000006,4,1,-1.0,0.0,2,object_01,1,556,0,7,3,forest_1,1,memory-2step-stake-s,557,2382869,0.0-19.0-0.0-0.60,A2GXE6MIDN8DPR,3QGHA0EA1MGR4GKNSEWY8BJ80SRWBM,3IRIK4HM3E0F6PVH5YKRALM0ONXC64,4,3
61,1,object_05,object_06,792.09999999404,2,1,298.40000000596,0.4444444444444444,2,object_01,1,560,0,8,4,desert_8,1,memory-2step-stake-s,558,2390845,0.0-19.0-0.0-0.61,A2GXE6MIDN8DPR,3QGHA0EA1MGR4GKNSEWY8BJ80SRWBM,3IRIK4HM3E0F6PVH5YKRALM0ONXC64,2,1
62,1,object_06,object_05,974.5,1,1,454.0,1.0,1,object_09,5,605,0,9,3,desert_6,1,memory-2step-stake-s,559,2399463,0.0-19.0-0.0-0.62,A2GXE6MIDN8DPR,3QGHA0EA1MGR4GKNSEWY8BJ80SRWBM,3IRIK4HM3E0F6PVH5YKRALM0ONXC64,1,2
63,3,object_02,object_08,436.29999998212,5,1,371.0,0.6666666666666666,1,object_09,5,635,0,6,5,library_4,1,memory-2step-stake-s,560,2407688,0.0-19.0-0.0-0.63,A2GXE6MIDN8DPR,3QGHA0EA1MGR4GKNSEWY8BJ80SRWBM,3IRIK4HM3E0F6PVH5YKRALM0ONXC64,5,6
64,3,object_02,object_08,742.39999997616,5,1,283.69999998808,0.6666666666666666,1,object_09,5,665,0,6,4,library_6,1,memory-2step-stake-s,561,2415832,0.0-19.0-0.0-0.64,A2GXE6MIDN8DPR,3QGHA0EA1MGR4GKNSEWY8BJ80SRWBM,3IRIK4HM3E0F6PVH5YKRALM0ONXC64,5,6
65,4,object_04,object_07,1476.5,8,2,574.79999998212,0.5555555555555556,2,object_01,1,670,0,2,5,restaurant_8,1,memory-2step-stake-s,562,2424194,0.0-19.0-0.0-0.65,A2GXE6MIDN8DPR,3QGHA0EA1MGR4GKNSEWY8BJ80SRWBM,3IRIK4HM3E0F6PVH5YKRALM0ONXC64,7,8
66,3,object_02,object_08,494.5,5,1,373.10000002384,0.0,1,object_09,5,670,0,0,7,library_4,1,memory-2step-stake-s,563,2431833,0.0-19.0-0.0-0.66,A2GXE6MIDN8DPR,3QGHA0EA1MGR4GKNSEWY8BJ80SRWBM,3IRIK4HM3E0F6PVH5YKRALM0ONXC64,5,6
67,1,object_05,object_06,641.09999999404,1,2,-1.0,0.0,1,object_09,1,670,0,1,9,desert_4,1,memory-2step-stake-s,564,2440363,0.0-19.0-0.0-0.67,A2GXE6MIDN8DPR,3QGHA0EA1MGR4GKNSEWY8BJ80SRWBM,3IRIK4HM3E0F6PVH5YKRALM0ONXC64,2,1
68,2,object_03,object_10,472.29999998212,3,2,355.40000000596,0.0,1,object_09,1,670,0,0,7,forest_1,1,memory-2step-stake-s,565,2447988,0.0-19.0-0.0-0.68,A2GXE6MIDN8DPR,3QGHA0EA1MGR4GKNSEWY8BJ80SRWBM,3IRIK4HM3E0F6PVH5YKRALM0ONXC64,4,3
69,3,object_02,object_08,704.5,5,1,386.30000001192,0.3333333333333333,1,object_09,1,673,0,3,5,library_4,1,memory-2step-stake-s,566,2455930,0.0-19.0-0.0-0.69,A2GXE6MIDN8DPR,3QGHA0EA1MGR4GKNSEWY8BJ80SRWBM,3IRIK4HM3E0F6PVH5YKRALM0ONXC64,5,6
70,2,object_10,object_03,416.80000001192,3,1,278.70000001788,0.3333333333333333,1,object_09,1,676,0,3,3,forest_2,1,memory-2step-stake-s,567,2463804,0.0-19.0-0.0-0.70,A2GXE6MIDN8DPR,3QGHA0EA1MGR4GKNSEWY8BJ80SRWBM,3IRIK4HM3E0F6PVH5YKRALM0ONXC64,3,4
71,3,object_08,object_02,693.90000000596,6,1,277.80000001192,0.6666666666666666,2,object_01,5,706,0,5,6,library_5,1,memory-2step-stake-s,568,2471979,0.0-19.0-0.0-0.71,A2GXE6MIDN8DPR,3QGHA0EA1MGR4GKNSEWY8BJ80SRWBM,3IRIK4HM3E0F6PVH5YKRALM0ONXC64,6,5
72,1,object_05,object_06,588.70000001788,1,2,424.69999998808,0.8888888888888888,1,object_09,1,714,0,8,6,desert_4,1,memory-2step-stake-s,569,2480519,0.0-19.0-0.0-0.72,A2GXE6MIDN8DPR,3QGHA0EA1MGR4GKNSEWY8BJ80SRWBM,3IRIK4HM3E0F6PVH5YKRALM0ONXC64,2,1
73,1,object_05,object_06,728.79999998212,2,1,291.69999998808,0.4444444444444444,2,object_01,1,718,0,9,4,desert_4,1,memory-2step-stake-s,570,2488474,0.0-19.0-0.0-0.73,A2GXE6MIDN8DPR,3QGHA0EA1MGR4GKNSEWY8BJ80SRWBM,3IRIK4HM3E0F6PVH5YKRALM0ONXC64,2,1
74,2,object_10,object_03,740.59999999404,4,2,310.30000001192,0.4444444444444444,2,object_01,1,722,0,7,4,forest_7,1,memory-2step-stake-s,571,2496428,0.0-19.0-0.0-0.74,A2GXE6MIDN8DPR,3QGHA0EA1MGR4GKNSEWY8BJ80SRWBM,3IRIK4HM3E0F6PVH5YKRALM0ONXC64,3,4
75,2,object_03,object_10,1018.7000000179,4,1,341.70000001788,0.4444444444444444,2,object_01,1,726,0,5,4,forest_8,1,memory-2step-stake-s,572,2504429,0.0-19.0-0.0-0.75,A2GXE6MIDN8DPR,3QGHA0EA1MGR4GKNSEWY8BJ80SRWBM,3IRIK4HM3E0F6PVH5YKRALM0ONXC64,4,3
76,2,object_10,object_03,563.20000001788,4,2,276.5,0.2222222222222222,2,object_01,1,728,0,4,2,forest_8,1,memory-2step-stake-s,573,2512172,0.0-19.0-0.0-0.76,A2GXE6MIDN8DPR,3QGHA0EA1MGR4GKNSEWY8BJ80SRWBM,3IRIK4HM3E0F6PVH5YKRALM0ONXC64,3,4
77,4,object_07,object_04,814.60000002384,7,2,366.40000000596,0.4444444444444444,1,object_09,5,748,0,4,3,restaurant_3,1,memory-2step-stake-s,574,2520222,0.0-19.0-0.0-0.77,A2GXE6MIDN8DPR,3QGHA0EA1MGR4GKNSEWY8BJ80SRWBM,3IRIK4HM3E0F6PVH5YKRALM0ONXC64,8,7
78,3,object_02,object_08,567.5,5,1,384.59999999404,0.2222222222222222,1,object_09,5,758,0,2,4,library_4,1,memory-2step-stake-s,575,2528079,0.0-19.0-0.0-0.78,A2GXE6MIDN8DPR,3QGHA0EA1MGR4GKNSEWY8BJ80SRWBM,3IRIK4HM3E0F6PVH5YKRALM0ONXC64,5,6
79,2,object_10,object_03,382.5,3,1,339.30000001192,0.1111111111111111,1,object_09,1,759,0,1,4,forest_2,1,memory-2step-stake-s,576,2535784,0.0-19.0-0.0-0.79,A2GXE6MIDN8DPR,3QGHA0EA1MGR4GKNSEWY8BJ80SRWBM,3IRIK4HM3E0F6PVH5YKRALM0ONXC64,3,4
80,4,object_04,object_07,1357.3999999762,8,2,437.89999997616,0.5555555555555556,2,object_01,5,784,0,0,5,restaurant_8,1,memory-2step-stake-s,577,2544016,0.0-19.0-0.0-0.80,A2GXE6MIDN8DPR,3QGHA0EA1MGR4GKNSEWY8BJ80SRWBM,3IRIK4HM3E0F6PVH5YKRALM0ONXC64,7,8
81,4,object_07,object_04,-1.0,-1,-1,-1.0,0.0,-,0,5,784,0,0,3,restaurant_3,1,memory-2step-stake-s,578,2550565,0.0-19.0-0.0-0.81,A2GXE6MIDN8DPR,3QGHA0EA1MGR4GKNSEWY8BJ80SRWBM,3IRIK4HM3E0F6PVH5YKRALM0ONXC64,8,7
82,1,object_06,object_05,763.59999999404,2,2,332.59999999404,0.4444444444444444,2,object_01,5,804,0,4,4,desert_4,1,memory-2step-stake-s,579,2558578,0.0-19.0-0.0-0.82,A2GXE6MIDN8DPR,3QGHA0EA1MGR4GKNSEWY8BJ80SRWBM,3IRIK4HM3E0F6PVH5YKRALM0ONXC64,1,2
83,4,object_07,object_04,1308.099999994,7,2,346.19999998808,0.5555555555555556,1,object_09,5,829,0,5,1,restaurant_3,1,memory-2step-stake-s,580,2566701,0.0-19.0-0.0-0.83,A2GXE6MIDN8DPR,3QGHA0EA1MGR4GKNSEWY8BJ80SRWBM,3IRIK4HM3E0F6PVH5YKRALM0ONXC64,8,7
84,1,object_06,object_05,716.5,2,2,458.90000000596,0.2222222222222222,2,object_01,1,831,0,7,2,desert_4,1,memory-2step-stake-s,581,2574641,0.0-19.0-0.0-0.84,A2GXE6MIDN8DPR,3QGHA0EA1MGR4GKNSEWY8BJ80SRWBM,3IRIK4HM3E0F6PVH5YKRALM0ONXC64,1,2
85,3,object_02,object_08,494.09999999404,5,1,220.39999997616,0.7777777777777778,1,object_09,5,866,0,7,4,library_6,1,memory-2step-stake-s,582,2582837,0.0-19.0-0.0-0.85,A2GXE6MIDN8DPR,3QGHA0EA1MGR4GKNSEWY8BJ80SRWBM,3IRIK4HM3E0F6PVH5YKRALM0ONXC64,5,6
86,4,object_07,object_04,1123.900000006,8,1,-1.0,0.0,2,object_01,1,866,0,8,5,restaurant_2,1,memory-2step-stake-s,583,2591400,0.0-19.0-0.0-0.86,A2GXE6MIDN8DPR,3QGHA0EA1MGR4GKNSEWY8BJ80SRWBM,3IRIK4HM3E0F6PVH5YKRALM0ONXC64,8,7
87,3,object_02,object_08,847.80000001192,5,1,314.19999998808,0.8888888888888888,1,object_09,5,906,0,8,6,library_8,1,memory-2step-stake-s,584,2599833,0.0-19.0-0.0-0.87,A2GXE6MIDN8DPR,3QGHA0EA1MGR4GKNSEWY8BJ80SRWBM,3IRIK4HM3E0F6PVH5YKRALM0ONXC64,5,6
88,1,object_06,object_05,673.40000000596,1,1,478.79999998212,0.6666666666666666,1,object_09,1,912,0,6,4,desert_8,1,memory-2step-stake-s,585,2608223,0.0-19.0-0.0-0.88,A2GXE6MIDN8DPR,3QGHA0EA1MGR4GKNSEWY8BJ80SRWBM,3IRIK4HM3E0F6PVH5YKRALM0ONXC64,1,2
89,1,object_06,object_05,772.29999998212,2,2,332.09999999404,0.3333333333333333,2,object_01,1,915,0,8,3,desert_4,1,memory-2step-stake-s,586,2616145,0.0-19.0-0.0-0.89,A2GXE6MIDN8DPR,3QGHA0EA1MGR4GKNSEWY8BJ80SRWBM,3IRIK4HM3E0F6PVH5YKRALM0ONXC64,1,2
90,4,object_04,object_07,814.59999999404,7,1,747.69999998808,0.6666666666666666,1,object_09,1,921,0,6,1,restaurant_7,1,memory-2step-stake-s,587,2624761,0.0-19.0-0.0-0.90,A2GXE6MIDN8DPR,3QGHA0EA1MGR4GKNSEWY8BJ80SRWBM,3IRIK4HM3E0F6PVH5YKRALM0ONXC64,7,8
91,4,object_07,object_04,1027.8000000119,8,1,634.29999998212,0.2222222222222222,2,object_01,1,923,0,8,2,restaurant_7,1,memory-2step-stake-s,588,2632862,0.0-19.0-0.0-0.91,A2GXE6MIDN8DPR,3QGHA0EA1MGR4GKNSEWY8BJ80SRWBM,3IRIK4HM3E0F6PVH5YKRALM0ONXC64,8,7
92,2,object_03,object_10,604.20000001788,4,1,233.70000001788,0.5555555555555556,2,object_01,1,928,0,7,5,forest_7,1,memory-2step-stake-s,589,2640890,0.0-19.0-0.0-0.92,A2GXE6MIDN8DPR,3QGHA0EA1MGR4GKNSEWY8BJ80SRWBM,3IRIK4HM3E0F6PVH5YKRALM0ONXC64,4,3
93,4,object_07,object_04,895.09999999404,8,1,252.59999999404,0.5555555555555556,2,object_01,1,933,0,8,5,restaurant_7,1,memory-2step-stake-s,590,2648933,0.0-19.0-0.0-0.93,A2GXE6MIDN8DPR,3QGHA0EA1MGR4GKNSEWY8BJ80SRWBM,3IRIK4HM3E0F6PVH5YKRALM0ONXC64,8,7
94,3,object_02,object_08,551.09999999404,5,1,278.90000000596,0.6666666666666666,1,object_09,5,963,0,6,5,library_4,1,memory-2step-stake-s,591,2657123,0.0-19.0-0.0-0.94,A2GXE6MIDN8DPR,3QGHA0EA1MGR4GKNSEWY8BJ80SRWBM,3IRIK4HM3E0F6PVH5YKRALM0ONXC64,5,6
95,2,object_03,object_10,478.19999998808,4,1,328.5,0.3333333333333333,2,object_01,1,966,0,2,3,forest_1,1,memory-2step-stake-s,592,2665044,0.0-19.0-0.0-0.95,A2GXE6MIDN8DPR,3QGHA0EA1MGR4GKNSEWY8BJ80SRWBM,3IRIK4HM3E0F6PVH5YKRALM0ONXC64,4,3
96,4,object_04,object_07,817.5,7,1,367.69999998808,0.1111111111111111,1,object_09,5,971,0,1,6,restaurant_2,1,memory-2step-stake-s,593,2672771,0.0-19.0-0.0-0.96,A2GXE6MIDN8DPR,3QGHA0EA1MGR4GKNSEWY8BJ80SRWBM,3IRIK4HM3E0F6PVH5YKRALM0ONXC64,7,8
97,2,object_10,object_03,622.90000000596,3,1,293.20000001788,0.2222222222222222,1,object_09,1,973,0,2,5,forest_7,1,memory-2step-stake-s,594,2680562,0.0-19.0-0.0-0.97,A2GXE6MIDN8DPR,3QGHA0EA1MGR4GKNSEWY8BJ80SRWBM,3IRIK4HM3E0F6PVH5YKRALM0ONXC64,3,4
98,1,object_05,object_06,639.79999998212,1,2,530.79999998212,0.4444444444444444,1,object_09,1,977,0,4,5,desert_8,1,memory-2step-stake-s,595,2688771,0.0-19.0-0.0-0.98,A2GXE6MIDN8DPR,3QGHA0EA1MGR4GKNSEWY8BJ80SRWBM,3IRIK4HM3E0F6PVH5YKRALM0ONXC64,2,1
99,3,object_08,object_02,718.30000001192,5,2,754.5,0.3333333333333333,1,object_09,5,992,0,3,4,library_6,1,memory-2step-stake-s,596,2697094,0.0-19.0-0.0-0.99,A2GXE6MIDN8DPR,3QGHA0EA1MGR4GKNSEWY8BJ80SRWBM,3IRIK4HM3E0F6PVH5YKRALM0ONXC64,6,5
100,3,object_02,object_08,774.70000001788,6,2,312.09999999404,0.3333333333333333,2,object_01,5,1007,0,2,3,library_6,1,memory-2step-stake-s,597,2704997,0.0-19.0-0.0-0.100,A2GXE6MIDN8DPR,3QGHA0EA1MGR4GKNSEWY8BJ80SRWBM,3IRIK4HM3E0F6PVH5YKRALM0ONXC64,5,6
101,4,object_07,object_04,666.0,7,2,383.29999998212,0.2222222222222222,1,object_09,5,1017,0,2,5,restaurant_8,1,memory-2step-stake-s,598,2712873,0.0-19.0-0.0-0.101,A2GXE6MIDN8DPR,3QGHA0EA1MGR4GKNSEWY8BJ80SRWBM,3IRIK4HM3E0F6PVH5YKRALM0ONXC64,8,7
102,1,object_06,object_05,656.0,1,1,336.90000000596,0.2222222222222222,1,object_09,1,1019,0,2,5,desert_8,1,memory-2step-stake-s,599,2720677,0.0-19.0-0.0-0.102,A2GXE6MIDN8DPR,3QGHA0EA1MGR4GKNSEWY8BJ80SRWBM,3IRIK4HM3E0F6PVH5YKRALM0ONXC64,1,2
103,4,object_07,object_04,799.40000000596,7,2,274.70000001788,0.4444444444444444,1,object_09,5,1039,0,4,6,restaurant_3,1,memory-2step-stake-s,600,2728642,0.0-19.0-0.0-0.103,A2GXE6MIDN8DPR,3QGHA0EA1MGR4GKNSEWY8BJ80SRWBM,3IRIK4HM3E0F6PVH5YKRALM0ONXC64,8,7
104,3,object_08,object_02,616.89999997616,5,2,103.39999997616,0.0,1,object_09,5,1039,0,0,5,library_8,1,memory-2step-stake-s,601,2735984,0.0-19.0-0.0-0.104,A2GXE6MIDN8DPR,3QGHA0EA1MGR4GKNSEWY8BJ80SRWBM,3IRIK4HM3E0F6PVH5YKRALM0ONXC64,6,5
105,4,object_04,object_07,1054.599999994,8,2,309.69999998808,0.4444444444444444,2,object_01,5,1059,0,3,4,restaurant_7,1,memory-2step-stake-s,602,2743978,0.0-19.0-0.0-0.105,A2GXE6MIDN8DPR,3QGHA0EA1MGR4GKNSEWY8BJ80SRWBM,3IRIK4HM3E0F6PVH5YKRALM0ONXC64,7,8
106,3,object_08,object_02,1139.400000006,6,1,646.90000000596,0.7777777777777778,2,object_01,5,1094,0,1,7,library_8,1,memory-2step-stake-s,603,2752636,0.0-19.0-0.0-0.106,A2GXE6MIDN8DPR,3QGHA0EA1MGR4GKNSEWY8BJ80SRWBM,3IRIK4HM3E0F6PVH5YKRALM0ONXC64,6,5
107,3,object_08,object_02,681.5,6,1,421.30000001192,0.5555555555555556,2,object_01,5,1119,0,1,5,library_4,1,memory-2step-stake-s,604,2760851,0.0-19.0-0.0-0.107,A2GXE6MIDN8DPR,3QGHA0EA1MGR4GKNSEWY8BJ80SRWBM,3IRIK4HM3E0F6PVH5YKRALM0ONXC64,6,5
108,1,object_06,object_05,616.09999999404,1,1,344.40000000596,0.4444444444444444,1,object_09,1,1123,0,4,6,desert_3,1,memory-2step-stake-s,605,2768887,0.0-19.0-0.0-0.108,A2GXE6MIDN8DPR,3QGHA0EA1MGR4GKNSEWY8BJ80SRWBM,3IRIK4HM3E0F6PVH5YKRALM0ONXC64,1,2
109,2,object_03,object_10,557.29999998212,3,2,675.70000001788,0.6666666666666666,1,object_09,1,1129,0,6,8,forest_8,1,memory-2step-stake-s,606,2777428,0.0-19.0-0.0-0.109,A2GXE6MIDN8DPR,3QGHA0EA1MGR4GKNSEWY8BJ80SRWBM,3IRIK4HM3E0F6PVH5YKRALM0ONXC64,4,3
110,4,object_07,object_04,688.59999999404,7,2,1436.0,0.4444444444444444,1,object_09,5,1149,0,4,8,restaurant_8,1,memory-2step-stake-s,607,2786534,0.0-19.0-0.0-0.110,A2GXE6MIDN8DPR,3QGHA0EA1MGR4GKNSEWY8BJ80SRWBM,3IRIK4HM3E0F6PVH5YKRALM0ONXC64,8,7
111,1,object_06,object_05,564.80000001192,1,1,383.80000001192,0.4444444444444444,1,object_09,1,1153,0,4,9,desert_3,1,memory-2step-stake-s,608,2794590,0.0-19.0-0.0-0.111,A2GXE6MIDN8DPR,3QGHA0EA1MGR4GKNSEWY8BJ80SRWBM,3IRIK4HM3E0F6PVH5YKRALM0ONXC64,1,2
112,3,object_08,object_02,624.69999998808,6,1,448.59999999404,0.7777777777777778,2,object_01,5,1188,0,4,7,library_4,1,memory-2step-stake-s,609,2803032,0.0-19.0-0.0-0.112,A2GXE6MIDN8DPR,3QGHA0EA1MGR4GKNSEWY8BJ80SRWBM,3IRIK4HM3E0F6PVH5YKRALM0ONXC64,6,5
113,3,object_08,object_02,684.39999997616,6,1,309.40000000596,0.7777777777777778,2,object_01,5,1223,0,1,7,library_5,1,memory-2step-stake-s,610,2811323,0.0-19.0-0.0-0.113,A2GXE6MIDN8DPR,3QGHA0EA1MGR4GKNSEWY8BJ80SRWBM,3IRIK4HM3E0F6PVH5YKRALM0ONXC64,6,5
114,2,object_03,object_10,490.30000001192,3,2,1111.400000006,0.4444444444444444,1,object_09,1,1227,0,4,5,forest_2,1,memory-2step-stake-s,611,2820118,0.0-19.0-0.0-0.114,A2GXE6MIDN8DPR,3QGHA0EA1MGR4GKNSEWY8BJ80SRWBM,3IRIK4HM3E0F6PVH5YKRALM0ONXC64,4,3
115,1,object_05,object_06,622.5,1,2,668.80000001192,0.4444444444444444,1,object_09,1,1231,0,4,1,desert_4,1,memory-2step-stake-s,612,2828470,0.0-19.0-0.0-0.115,A2GXE6MIDN8DPR,3QGHA0EA1MGR4GKNSEWY8BJ80SRWBM,3IRIK4HM3E0F6PVH5YKRALM0ONXC64,2,1
116,4,object_07,object_04,-1.0,-1,-1,-1.0,0.0,-,0,5,1231,0,1,3,restaurant_2,1,memory-2step-stake-s,613,2835006,0.0-19.0-0.0-0.116,A2GXE6MIDN8DPR,3QGHA0EA1MGR4GKNSEWY8BJ80SRWBM,3IRIK4HM3E0F6PVH5YKRALM0ONXC64,8,7
117,2,object_10,object_03,700.90000000596,3,1,519.5,0.3333333333333333,1,object_09,5,1246,0,3,4,forest_2,1,memory-2step-stake-s,614,2843099,0.0-19.0-0.0-0.117,A2GXE6MIDN8DPR,3QGHA0EA1MGR4GKNSEWY8BJ80SRWBM,3IRIK4HM3E0F6PVH5YKRALM0ONXC64,3,4
118,2,object_03,object_10,690.59999999404,3,2,584.09999999404,0.4444444444444444,1,object_09,1,1250,0,4,6,forest_8,1,memory-2step-stake-s,615,2851350,0.0-19.0-0.0-0.118,A2GXE6MIDN8DPR,3QGHA0EA1MGR4GKNSEWY8BJ80SRWBM,3IRIK4HM3E0F6PVH5YKRALM0ONXC64,4,3
119,2,object_03,object_10,523.09999999404,3,2,458.10000002384,0.3333333333333333,1,object_09,1,1253,0,3,7,forest_7,1,memory-2step-stake-s,616,2859377,0.0-19.0-0.0-0.119,A2GXE6MIDN8DPR,3QGHA0EA1MGR4GKNSEWY8BJ80SRWBM,3IRIK4HM3E0F6PVH5YKRALM0ONXC64,4,3
120,4,object_04,object_07,951.0,7,1,639.40000000596,0.4444444444444444,1,object_09,1,1257,0,4,4,restaurant_7,1,memory-2step-stake-s,617,2867672,0.0-19.0-0.0-0.120,A2GXE6MIDN8DPR,3QGHA0EA1MGR4GKNSEWY8BJ80SRWBM,3IRIK4HM3E0F6PVH5YKRALM0ONXC64,7,8
121,1,object_05,object_06,629.69999998808,1,2,365.70000001788,0.3333333333333333,1,object_09,1,1260,0,3,5,desert_3,1,memory-2step-stake-s,618,2875592,0.0-19.0-0.0-0.121,A2GXE6MIDN8DPR,3QGHA0EA1MGR4GKNSEWY8BJ80SRWBM,3IRIK4HM3E0F6PVH5YKRALM0ONXC64,2,1
122,1,object_05,object_06,820.09999999404,2,1,507.90000000596,0.8888888888888888,2,object_01,5,1300,0,6,8,desert_8,1,memory-2step-stake-s,619,2884206,0.0-19.0-0.0-0.122,A2GXE6MIDN8DPR,3QGHA0EA1MGR4GKNSEWY8BJ80SRWBM,3IRIK4HM3E0F6PVH5YKRALM0ONXC64,2,1
123,2,object_03,object_10,1066.1000000238,4,1,513.19999998808,0.4444444444444444,2,object_01,5,1320,0,7,4,forest_8,1,memory-2step-stake-s,620,2892410,0.0-19.0-0.0-0.123,A2GXE6MIDN8DPR,3QGHA0EA1MGR4GKNSEWY8BJ80SRWBM,3IRIK4HM3E0F6PVH5YKRALM0ONXC64,4,3
124,2,object_10,object_03,822.09999999404,3,1,620.80000001192,0.7777777777777778,1,object_09,1,1327,0,7,1,forest_2,1,memory-2step-stake-s,621,2901011,0.0-19.0-0.0-0.124,A2GXE6MIDN8DPR,3QGHA0EA1MGR4GKNSEWY8BJ80SRWBM,3IRIK4HM3E0F6PVH5YKRALM0ONXC64,3,4
125,2,object_10,object_03,578.5,4,2,409.79999998212,0.3333333333333333,2,object_01,1,1330,0,8,3,forest_8,1,memory-2step-stake-s,622,2908977,0.0-19.0-0.0-0.125,A2GXE6MIDN8DPR,3QGHA0EA1MGR4GKNSEWY8BJ80SRWBM,3IRIK4HM3E0F6PVH5YKRALM0ONXC64,3,4
126,3,object_08,object_02,470.69999998808,5,2,351.5,1.0,1,object_09,5,1375,0,9,4,library_5,1,memory-2step-stake-s,623,2917547,0.0-19.0-0.0-0.126,A2GXE6MIDN8DPR,3QGHA0EA1MGR4GKNSEWY8BJ80SRWBM,3IRIK4HM3E0F6PVH5YKRALM0ONXC64,6,5
127,2,object_10,object_03,710.70000001788,4,2,285.59999999404,0.4444444444444444,2,object_01,1,1379,0,9,4,forest_2,1,memory-2step-stake-s,624,2925503,0.0-19.0-0.0-0.127,A2GXE6MIDN8DPR,3QGHA0EA1MGR4GKNSEWY8BJ80SRWBM,3IRIK4HM3E0F6PVH5YKRALM0ONXC64,3,4
128,4,object_04,object_07,1104.900000006,7,1,566.0,0.8888888888888888,1,object_09,5,1419,0,8,3,restaurant_7,1,memory-2step-stake-s,626,2954990,0.0-19.0-0.1-0.128,A2GXE6MIDN8DPR,3QGHA0EA1MGR4GKNSEWY8BJ80SRWBM,3IRIK4HM3E0F6PVH5YKRALM0ONXC64,7,8
129,2,object_10,object_03,541.90000000596,4,2,386.39999997616,0.6666666666666666,2,object_01,1,1425,0,5,6,forest_8,1,memory-2step-stake-s,627,2963268,0.0-19.0-0.1-0.129,A2GXE6MIDN8DPR,3QGHA0EA1MGR4GKNSEWY8BJ80SRWBM,3IRIK4HM3E0F6PVH5YKRALM0ONXC64,3,4
130,1,object_06,object_05,835.70000001788,2,2,364.80000001192,0.5555555555555556,2,object_01,1,1430,0,3,5,desert_4,1,memory-2step-stake-s,628,2971391,0.0-19.0-0.1-0.130,A2GXE6MIDN8DPR,3QGHA0EA1MGR4GKNSEWY8BJ80SRWBM,3IRIK4HM3E0F6PVH5YKRALM0ONXC64,1,2
131,1,object_05,object_06,784.0,2,1,403.70000001788,0.6666666666666666,2,object_01,1,1436,0,2,6,desert_6,1,memory-2step-stake-s,629,2979695,0.0-19.0-0.1-0.131,A2GXE6MIDN8DPR,3QGHA0EA1MGR4GKNSEWY8BJ80SRWBM,3IRIK4HM3E0F6PVH5YKRALM0ONXC64,2,1
132,3,object_02,object_08,651.89999997616,6,2,349.90000000596,0.4444444444444444,2,object_01,5,1456,0,4,4,library_8,1,memory-2step-stake-s,630,2987730,0.0-19.0-0.1-0.132,A2GXE6MIDN8DPR,3QGHA0EA1MGR4GKNSEWY8BJ80SRWBM,3IRIK4HM3E0F6PVH5YKRALM0ONXC64,5,6
133,2,object_03,object_10,502.59999999404,4,1,299.5,0.2222222222222222,2,object_01,1,1458,0,2,2,forest_8,1,memory-2step-stake-s,631,2995499,0.0-19.0-0.1-0.133,A2GXE6MIDN8DPR,3QGHA0EA1MGR4GKNSEWY8BJ80SRWBM,3IRIK4HM3E0F6PVH5YKRALM0ONXC64,4,3
134,4,object_04,object_07,805.59999999404,7,1,451.69999998808,0.1111111111111111,1,object_09,5,1463,0,1,0,restaurant_8,1,memory-2step-stake-s,632,3003303,0.0-19.0-0.1-0.134,A2GXE6MIDN8DPR,3QGHA0EA1MGR4GKNSEWY8BJ80SRWBM,3IRIK4HM3E0F6PVH5YKRALM0ONXC64,7,8
135,2,object_03,object_10,1311.7000000179,3,2,284.60000002384,0.2222222222222222,1,object_09,1,1465,0,2,1,forest_7,1,memory-2step-stake-s,633,3011055,0.0-19.0-0.1-0.135,A2GXE6MIDN8DPR,3QGHA0EA1MGR4GKNSEWY8BJ80SRWBM,3IRIK4HM3E0F6PVH5YKRALM0ONXC64,4,3
136,3,object_02,object_08,687.19999998808,6,2,307.79999998212,0.6666666666666666,2,object_01,5,1495,0,6,6,library_5,1,memory-2step-stake-s,634,3019244,0.0-19.0-0.1-0.136,A2GXE6MIDN8DPR,3QGHA0EA1MGR4GKNSEWY8BJ80SRWBM,3IRIK4HM3E0F6PVH5YKRALM0ONXC64,5,6
137,2,object_10,object_03,486.70000001788,4,2,262.0,0.6666666666666666,2,object_01,5,1525,0,8,6,forest_2,1,memory-2step-stake-s,635,3027389,0.0-19.0-0.1-0.137,A2GXE6MIDN8DPR,3QGHA0EA1MGR4GKNSEWY8BJ80SRWBM,3IRIK4HM3E0F6PVH5YKRALM0ONXC64,3,4
138,3,object_02,object_08,558.20000001788,6,2,370.80000001192,0.8888888888888888,2,object_01,5,1565,0,8,8,library_6,1,memory-2step-stake-s,636,3035872,0.0-19.0-0.1-0.138,A2GXE6MIDN8DPR,3QGHA0EA1MGR4GKNSEWY8BJ80SRWBM,3IRIK4HM3E0F6PVH5YKRALM0ONXC64,5,6
139,1,object_06,object_05,1272.6999999881,1,1,376.80000001192,0.8888888888888888,1,object_09,1,1573,0,8,5,desert_4,1,memory-2step-stake-s,637,3044364,0.0-19.0-0.1-0.139,A2GXE6MIDN8DPR,3QGHA0EA1MGR4GKNSEWY8BJ80SRWBM,3IRIK4HM3E0F6PVH5YKRALM0ONXC64,1,2
140,4,object_07,object_04,752.09999999404,7,2,242.40000000596,0.8888888888888888,1,object_09,5,1613,0,8,5,restaurant_7,1,memory-2step-stake-s,638,3052694,0.0-19.0-0.1-0.140,A2GXE6MIDN8DPR,3QGHA0EA1MGR4GKNSEWY8BJ80SRWBM,3IRIK4HM3E0F6PVH5YKRALM0ONXC64,8,7
141,4,object_07,object_04,645.09999999404,7,2,273.19999998808,0.7777777777777778,1,object_09,5,1648,0,7,5,restaurant_2,1,memory-2step-stake-s,639,3060933,0.0-19.0-0.1-0.141,A2GXE6MIDN8DPR,3QGHA0EA1MGR4GKNSEWY8BJ80SRWBM,3IRIK4HM3E0F6PVH5YKRALM0ONXC64,8,7
142,1,object_05,object_06,1144.0,2,1,460.59999999404,0.7777777777777778,2,object_01,1,1655,0,7,7,desert_6,1,memory-2step-stake-s,640,3069383,0.0-19.0-0.1-0.142,A2GXE6MIDN8DPR,3QGHA0EA1MGR4GKNSEWY8BJ80SRWBM,3IRIK4HM3E0F6PVH5YKRALM0ONXC64,2,1
143,3,object_08,object_02,685.59999999404,5,2,516.79999998212,0.7777777777777778,1,object_09,5,1690,0,7,8,library_6,1,memory-2step-stake-s,641,3077892,0.0-19.0-0.1-0.143,A2GXE6MIDN8DPR,3QGHA0EA1MGR4GKNSEWY8BJ80SRWBM,3IRIK4HM3E0F6PVH5YKRALM0ONXC64,6,5
144,4,object_04,object_07,736.20000001788,7,1,314.5,0.8888888888888888,1,object_09,5,1730,0,8,8,restaurant_2,1,memory-2step-stake-s,642,3086309,0.0-19.0-0.1-0.144,A2GXE6MIDN8DPR,3QGHA0EA1MGR4GKNSEWY8BJ80SRWBM,3IRIK4HM3E0F6PVH5YKRALM0ONXC64,7,8
145,3,object_02,object_08,802.20000001788,6,2,325.19999998808,0.7777777777777778,2,object_01,1,1737,0,5,7,library_8,1,memory-2step-stake-s,643,3094605,0.0-19.0-0.1-0.145,A2GXE6MIDN8DPR,3QGHA0EA1MGR4GKNSEWY8BJ80SRWBM,3IRIK4HM3E0F6PVH5YKRALM0ONXC64,5,6
146,2,object_10,object_03,409.30000001192,3,1,673.90000000596,0.7777777777777778,1,object_09,5,1772,0,7,7,forest_1,1,memory-2step-stake-s,644,3103277,0.0-19.0-0.1-0.146,A2GXE6MIDN8DPR,3QGHA0EA1MGR4GKNSEWY8BJ80SRWBM,3IRIK4HM3E0F6PVH5YKRALM0ONXC64,3,4
147,2,object_10,object_03,480.40000000596,4,2,476.5,0.5555555555555556,2,object_01,1,1777,0,7,5,forest_2,1,memory-2step-stake-s,645,3111522,0.0-19.0-0.1-0.147,A2GXE6MIDN8DPR,3QGHA0EA1MGR4GKNSEWY8BJ80SRWBM,3IRIK4HM3E0F6PVH5YKRALM0ONXC64,3,4
148,4,object_04,object_07,693.80000001192,7,1,299.90000000596,0.5555555555555556,1,object_09,5,1802,0,5,6,restaurant_2,1,memory-2step-stake-s,646,3119622,0.0-19.0-0.1-0.148,A2GXE6MIDN8DPR,3QGHA0EA1MGR4GKNSEWY8BJ80SRWBM,3IRIK4HM3E0F6PVH5YKRALM0ONXC64,7,8
149,1,object_05,object_06,682.90000000596,2,1,375.39999997616,0.4444444444444444,2,object_01,1,1806,0,3,4,desert_6,1,memory-2step-stake-s,647,3127685,0.0-19.0-0.1-0.149,A2GXE6MIDN8DPR,3QGHA0EA1MGR4GKNSEWY8BJ80SRWBM,3IRIK4HM3E0F6PVH5YKRALM0ONXC64,2,1
150,3,object_02,object_08,630.09999999404,5,1,417.80000001192,0.2222222222222222,1,object_09,5,1816,0,2,5,library_5,1,memory-2step-stake-s,648,3135563,0.0-19.0-0.1-0.150,A2GXE6MIDN8DPR,3QGHA0EA1MGR4GKNSEWY8BJ80SRWBM,3IRIK4HM3E0F6PVH5YKRALM0ONXC64,5,6
151,4,object_07,object_04,1097.6000000238,8,1,366.40000000596,0.6666666666666666,2,object_01,5,1846,0,4,6,restaurant_3,1,memory-2step-stake-s,649,3143835,0.0-19.0-0.1-0.151,A2GXE6MIDN8DPR,3QGHA0EA1MGR4GKNSEWY8BJ80SRWBM,3IRIK4HM3E0F6PVH5YKRALM0ONXC64,8,7
152,3,object_02,object_08,1009.5,6,2,357.30000001192,0.6666666666666666,2,object_01,5,1876,0,5,6,library_8,1,memory-2step-stake-s,650,3152083,0.0-19.0-0.1-0.152,A2GXE6MIDN8DPR,3QGHA0EA1MGR4GKNSEWY8BJ80SRWBM,3IRIK4HM3E0F6PVH5YKRALM0ONXC64,5,6
153,4,object_07,object_04,1081.900000006,8,1,390.29999998212,0.5555555555555556,2,object_01,5,1901,0,3,5,restaurant_8,1,memory-2step-stake-s,651,3160262,0.0-19.0-0.1-0.153,A2GXE6MIDN8DPR,3QGHA0EA1MGR4GKNSEWY8BJ80SRWBM,3IRIK4HM3E0F6PVH5YKRALM0ONXC64,8,7
154,3,object_02,object_08,627.60000002384,5,1,519.30000001192,0.2222222222222222,1,object_09,5,1911,0,2,4,library_8,1,memory-2step-stake-s,652,3168266,0.0-19.0-0.1-0.154,A2GXE6MIDN8DPR,3QGHA0EA1MGR4GKNSEWY8BJ80SRWBM,3IRIK4HM3E0F6PVH5YKRALM0ONXC64,5,6
155,4,object_04,object_07,999.5,8,2,350.69999998808,0.5555555555555556,2,object_01,5,1936,0,5,5,restaurant_7,1,memory-2step-stake-s,653,3176367,0.0-19.0-0.1-0.155,A2GXE6MIDN8DPR,3QGHA0EA1MGR4GKNSEWY8BJ80SRWBM,3IRIK4HM3E0F6PVH5YKRALM0ONXC64,7,8
156,1,object_06,object_05,664.20000001788,1,1,290.69999998808,0.5555555555555556,1,object_09,1,1941,0,5,6,desert_8,1,memory-2step-stake-s,654,3184476,0.0-19.0-0.1-0.156,A2GXE6MIDN8DPR,3QGHA0EA1MGR4GKNSEWY8BJ80SRWBM,3IRIK4HM3E0F6PVH5YKRALM0ONXC64,1,2
157,2,object_03,object_10,552.09999999404,3,2,376.0,0.6666666666666666,1,object_09,1,1947,0,6,7,forest_7,1,memory-2step-stake-s,655,3192724,0.0-19.0-0.1-0.157,A2GXE6MIDN8DPR,3QGHA0EA1MGR4GKNSEWY8BJ80SRWBM,3IRIK4HM3E0F6PVH5YKRALM0ONXC64,4,3
158,2,object_03,object_10,485.90000000596,4,1,372.59999999404,0.8888888888888888,2,object_01,1,1955,0,6,8,forest_1,1,memory-2step-stake-s,656,3201178,0.0-19.0-0.1-0.158,A2GXE6MIDN8DPR,3QGHA0EA1MGR4GKNSEWY8BJ80SRWBM,3IRIK4HM3E0F6PVH5YKRALM0ONXC64,4,3
159,3,object_02,object_08,1033.6999999881,6,2,367.5,0.5555555555555556,2,object_01,5,1980,0,5,5,library_8,1,memory-2step-stake-s,657,3209321,0.0-19.0-0.1-0.159,A2GXE6MIDN8DPR,3QGHA0EA1MGR4GKNSEWY8BJ80SRWBM,3IRIK4HM3E0F6PVH5YKRALM0ONXC64,5,6
160,3,object_08,object_02,537.40000000596,5,2,512.19999998808,0.5555555555555556,1,object_09,1,1985,0,5,6,library_5,1,memory-2step-stake-s,658,3217609,0.0-19.0-0.1-0.160,A2GXE6MIDN8DPR,3QGHA0EA1MGR4GKNSEWY8BJ80SRWBM,3IRIK4HM3E0F6PVH5YKRALM0ONXC64,6,5
161,4,object_04,object_07,593.20000001788,8,2,347.69999998808,0.4444444444444444,2,object_01,5,2005,0,6,4,restaurant_7,1,memory-2step-stake-s,659,3225630,0.0-19.0-0.1-0.161,A2GXE6MIDN8DPR,3QGHA0EA1MGR4GKNSEWY8BJ80SRWBM,3IRIK4HM3E0F6PVH5YKRALM0ONXC64,7,8
162,3,object_02,object_08,1053.8000000119,5,1,381.59999999404,1.0,1,object_09,1,2014,0,9,4,library_8,1,memory-2step-stake-s,660,3234218,0.0-19.0-0.1-0.162,A2GXE6MIDN8DPR,3QGHA0EA1MGR4GKNSEWY8BJ80SRWBM,3IRIK4HM3E0F6PVH5YKRALM0ONXC64,5,6
163,2,object_03,object_10,604.10000002384,4,1,292.40000000596,0.4444444444444444,2,object_01,1,2018,0,8,4,forest_8,1,memory-2step-stake-s,661,3242191,0.0-19.0-0.1-0.163,A2GXE6MIDN8DPR,3QGHA0EA1MGR4GKNSEWY8BJ80SRWBM,3IRIK4HM3E0F6PVH5YKRALM0ONXC64,4,3
164,1,object_05,object_06,798.19999998808,2,1,350.80000001192,0.2222222222222222,2,object_01,1,2020,0,7,2,desert_3,1,memory-2step-stake-s,662,3249990,0.0-19.0-0.1-0.164,A2GXE6MIDN8DPR,3QGHA0EA1MGR4GKNSEWY8BJ80SRWBM,3IRIK4HM3E0F6PVH5YKRALM0ONXC64,2,1
165,1,object_05,object_06,808.19999998808,2,1,328.09999999404,0.5555555555555556,2,object_01,1,2025,0,7,5,desert_8,1,memory-2step-stake-s,663,3258099,0.0-19.0-0.1-0.165,A2GXE6MIDN8DPR,3QGHA0EA1MGR4GKNSEWY8BJ80SRWBM,3IRIK4HM3E0F6PVH5YKRALM0ONXC64,2,1
166,2,object_03,object_10,348.5,4,1,268.0,0.5555555555555556,2,object_01,1,2030,0,7,5,forest_1,1,memory-2step-stake-s,664,3266127,0.0-19.0-0.1-0.166,A2GXE6MIDN8DPR,3QGHA0EA1MGR4GKNSEWY8BJ80SRWBM,3IRIK4HM3E0F6PVH5YKRALM0ONXC64,4,3
167,2,object_03,object_10,567.5,4,1,423.10000002384,0.7777777777777778,2,object_01,1,2037,0,7,7,forest_1,1,memory-2step-stake-s,665,3274542,0.0-19.0-0.1-0.167,A2GXE6MIDN8DPR,3QGHA0EA1MGR4GKNSEWY8BJ80SRWBM,3IRIK4HM3E0F6PVH5YKRALM0ONXC64,4,3
168,1,object_05,object_06,659.5,1,2,303.0,0.3333333333333333,1,object_09,1,2040,0,3,5,desert_4,1,memory-2step-stake-s,666,3282419,0.0-19.0-0.1-0.168,A2GXE6MIDN8DPR,3QGHA0EA1MGR4GKNSEWY8BJ80SRWBM,3IRIK4HM3E0F6PVH5YKRALM0ONXC64,2,1
169,1,object_05,object_06,440.89999997616,1,2,493.59999999404,0.2222222222222222,1,object_09,1,2042,0,2,7,desert_8,1,memory-2step-stake-s,667,3290389,0.0-19.0-0.1-0.169,A2GXE6MIDN8DPR,3QGHA0EA1MGR4GKNSEWY8BJ80SRWBM,3IRIK4HM3E0F6PVH5YKRALM0ONXC64,2,1
170,4,object_07,object_04,754.59999999404,8,1,286.5,0.5555555555555556,2,object_01,5,2067,0,1,5,restaurant_7,1,memory-2step-stake-s,668,3298431,0.0-19.0-0.1-0.170,A2GXE6MIDN8DPR,3QGHA0EA1MGR4GKNSEWY8BJ80SRWBM,3IRIK4HM3E0F6PVH5YKRALM0ONXC64,8,7
171,4,object_07,object_04,640.40000000596,8,1,278.29999998212,0.3333333333333333,2,object_01,5,2082,0,2,3,restaurant_2,1,memory-2step-stake-s,669,3306282,0.0-19.0-0.1-0.171,A2GXE6MIDN8DPR,3QGHA0EA1MGR4GKNSEWY8BJ80SRWBM,3IRIK4HM3E0F6PVH5YKRALM0ONXC64,8,7
172,4,object_04,object_07,699.09999999404,7,1,318.29999998212,0.4444444444444444,1,object_09,5,2102,0,4,1,restaurant_7,1,memory-2step-stake-s,670,3314260,0.0-19.0-0.1-0.172,A2GXE6MIDN8DPR,3QGHA0EA1MGR4GKNSEWY8BJ80SRWBM,3IRIK4HM3E0F6PVH5YKRALM0ONXC64,7,8
173,4,object_07,object_04,658.09999999404,8,1,280.89999997616,0.4444444444444444,2,object_01,5,2122,0,2,4,restaurant_2,1,memory-2step-stake-s,671,3322220,0.0-19.0-0.1-0.173,A2GXE6MIDN8DPR,3QGHA0EA1MGR4GKNSEWY8BJ80SRWBM,3IRIK4HM3E0F6PVH5YKRALM0ONXC64,8,7
174,2,object_03,object_10,1035.7999999821,4,1,149.60000002384,0.4444444444444444,2,object_01,1,2126,0,6,4,forest_8,1,memory-2step-stake-s,672,3330039,0.0-19.0-0.1-0.174,A2GXE6MIDN8DPR,3QGHA0EA1MGR4GKNSEWY8BJ80SRWBM,3IRIK4HM3E0F6PVH5YKRALM0ONXC64,4,3
175,3,object_08,object_02,654.0,5,2,327.80000001192,0.4444444444444444,1,object_09,5,2146,0,4,4,library_8,1,memory-2step-stake-s,673,3338031,0.0-19.0-0.1-0.175,A2GXE6MIDN8DPR,3QGHA0EA1MGR4GKNSEWY8BJ80SRWBM,3IRIK4HM3E0F6PVH5YKRALM0ONXC64,6,5
176,3,object_02,object_08,669.20000001788,5,1,1282.0,0.2222222222222222,1,object_09,1,2148,0,2,5,library_5,1,memory-2step-stake-s,674,3346782,0.0-19.0-0.1-0.176,A2GXE6MIDN8DPR,3QGHA0EA1MGR4GKNSEWY8BJ80SRWBM,3IRIK4HM3E0F6PVH5YKRALM0ONXC64,5,6
177,4,object_07,object_04,779.39999997616,8,1,327.0,0.7777777777777778,2,object_01,5,2183,0,2,7,restaurant_8,1,memory-2step-stake-s,675,3355102,0.0-19.0-0.1-0.177,A2GXE6MIDN8DPR,3QGHA0EA1MGR4GKNSEWY8BJ80SRWBM,3IRIK4HM3E0F6PVH5YKRALM0ONXC64,8,7
178,2,object_10,object_03,726.0,4,2,423.0,0.7777777777777778,2,object_01,5,2218,0,1,7,forest_2,1,memory-2step-stake-s,676,3363506,0.0-19.0-0.1-0.178,A2GXE6MIDN8DPR,3QGHA0EA1MGR4GKNSEWY8BJ80SRWBM,3IRIK4HM3E0F6PVH5YKRALM0ONXC64,3,4
179,2,object_10,object_03,482.40000000596,3,1,541.09999999404,0.4444444444444444,1,object_09,1,2222,0,4,6,forest_7,1,memory-2step-stake-s,677,3371721,0.0-19.0-0.1-0.179,A2GXE6MIDN8DPR,3QGHA0EA1MGR4GKNSEWY8BJ80SRWBM,3IRIK4HM3E0F6PVH5YKRALM0ONXC64,3,4
180,1,object_05,object_06,662.5,1,2,397.79999998212,0.6666666666666666,1,object_09,1,2228,0,6,7,desert_8,1,memory-2step-stake-s,678,3380050,0.0-19.0-0.1-0.180,A2GXE6MIDN8DPR,3QGHA0EA1MGR4GKNSEWY8BJ80SRWBM,3IRIK4HM3E0F6PVH5YKRALM0ONXC64,2,1
181,4,object_07,object_04,879.59999999404,7,2,397.20000001788,0.8888888888888888,1,object_09,5,2268,0,8,2,restaurant_2,1,memory-2step-stake-s,679,3388530,0.0-19.0-0.1-0.181,A2GXE6MIDN8DPR,3QGHA0EA1MGR4GKNSEWY8BJ80SRWBM,3IRIK4HM3E0F6PVH5YKRALM0ONXC64,8,7
182,2,object_10,object_03,514.5,4,2,417.5,0.5555555555555556,2,object_01,1,2273,0,8,5,forest_8,1,memory-2step-stake-s,680,3396743,0.0-19.0-0.1-0.182,A2GXE6MIDN8DPR,3QGHA0EA1MGR4GKNSEWY8BJ80SRWBM,3IRIK4HM3E0F6PVH5YKRALM0ONXC64,3,4
183,1,object_06,object_05,732.19999998808,1,1,409.5,0.7777777777777778,1,object_09,5,2308,0,7,2,desert_4,1,memory-2step-stake-s,681,3405193,0.0-19.0-0.1-0.183,A2GXE6MIDN8DPR,3QGHA0EA1MGR4GKNSEWY8BJ80SRWBM,3IRIK4HM3E0F6PVH5YKRALM0ONXC64,1,2
184,3,object_02,object_08,676.0,5,1,369.69999998808,0.8888888888888888,1,object_09,5,2348,0,8,2,library_6,1,memory-2step-stake-s,682,3413641,0.0-19.0-0.1-0.184,A2GXE6MIDN8DPR,3QGHA0EA1MGR4GKNSEWY8BJ80SRWBM,3IRIK4HM3E0F6PVH5YKRALM0ONXC64,5,6
185,4,object_04,object_07,733.0,7,1,678.5,1.0,1,object_09,5,2393,0,9,1,restaurant_3,1,memory-2step-stake-s,683,3422516,0.0-19.0-0.1-0.185,A2GXE6MIDN8DPR,3QGHA0EA1MGR4GKNSEWY8BJ80SRWBM,3IRIK4HM3E0F6PVH5YKRALM0ONXC64,7,8
186,3,object_08,object_02,1401.5,5,2,774.79999998212,0.8888888888888888,1,object_09,5,2433,0,8,3,library_5,1,memory-2step-stake-s,684,3431361,0.0-19.0-0.1-0.186,A2GXE6MIDN8DPR,3QGHA0EA1MGR4GKNSEWY8BJ80SRWBM,3IRIK4HM3E0F6PVH5YKRALM0ONXC64,6,5
187,2,object_10,object_03,640.0,3,1,495.39999997616,0.8888888888888888,1,object_09,5,2473,0,8,1,forest_7,1,memory-2step-stake-s,685,3439945,0.0-19.0-0.1-0.187,A2GXE6MIDN8DPR,3QGHA0EA1MGR4GKNSEWY8BJ80SRWBM,3IRIK4HM3E0F6PVH5YKRALM0ONXC64,3,4
188,4,object_07,object_04,756.70000001788,7,2,681.80000001192,0.8888888888888888,1,object_09,5,2513,0,8,2,restaurant_8,1,memory-2step-stake-s,686,3448735,0.0-19.0-0.1-0.188,A2GXE6MIDN8DPR,3QGHA0EA1MGR4GKNSEWY8BJ80SRWBM,3IRIK4HM3E0F6PVH5YKRALM0ONXC64,8,7
189,3,object_02,object_08,1106.2999999821,6,2,539.40000000596,0.1111111111111111,2,object_01,1,2514,0,9,1,library_5,1,memory-2step-stake-s,687,3456668,0.0-19.0-0.1-0.189,A2GXE6MIDN8DPR,3QGHA0EA1MGR4GKNSEWY8BJ80SRWBM,3IRIK4HM3E0F6PVH5YKRALM0ONXC64,5,6
190,2,object_10,object_03,700.0,3,1,578.39999997616,0.6666666666666666,1,object_09,5,2544,0,6,3,forest_2,1,memory-2step-stake-s,688,3465131,0.0-19.0-0.1-0.190,A2GXE6MIDN8DPR,3QGHA0EA1MGR4GKNSEWY8BJ80SRWBM,3IRIK4HM3E0F6PVH5YKRALM0ONXC64,3,4
191,4,object_07,object_04,520.29999998212,8,1,315.59999999404,0.4444444444444444,2,object_01,5,2564,0,3,4,restaurant_8,1,memory-2step-stake-s,689,3473117,0.0-19.0-0.1-0.191,A2GXE6MIDN8DPR,3QGHA0EA1MGR4GKNSEWY8BJ80SRWBM,3IRIK4HM3E0F6PVH5YKRALM0ONXC64,8,7
192,1,object_05,object_06,681.70000001788,2,1,368.09999999404,0.6666666666666666,2,object_01,1,2570,0,3,6,desert_3,1,memory-2step-stake-s,690,3481374,0.0-19.0-0.1-0.192,A2GXE6MIDN8DPR,3QGHA0EA1MGR4GKNSEWY8BJ80SRWBM,3IRIK4HM3E0F6PVH5YKRALM0ONXC64,2,1
193,3,object_08,object_02,692.30000001192,6,1,279.5,1.0,2,object_01,5,2615,0,2,9,library_6,1,memory-2step-stake-s,691,3489850,0.0-19.0-0.1-0.193,A2GXE6MIDN8DPR,3QGHA0EA1MGR4GKNSEWY8BJ80SRWBM,3IRIK4HM3E0F6PVH5YKRALM0ONXC64,6,5
194,1,object_06,object_05,840.09999999404,2,2,341.0,0.7777777777777778,2,object_01,5,2650,0,3,7,desert_3,1,memory-2step-stake-s,692,3498188,0.0-19.0-0.1-0.194,A2GXE6MIDN8DPR,3QGHA0EA1MGR4GKNSEWY8BJ80SRWBM,3IRIK4HM3E0F6PVH5YKRALM0ONXC64,1,2
195,1,object_05,object_06,587.0,1,2,487.19999998808,0.1111111111111111,1,object_09,1,2651,0,1,7,desert_4,1,memory-2step-stake-s,693,3506059,0.0-19.0-0.1-0.195,A2GXE6MIDN8DPR,3QGHA0EA1MGR4GKNSEWY8BJ80SRWBM,3IRIK4HM3E0F6PVH5YKRALM0ONXC64,2,1
196,4,object_07,object_04,1107.2999999821,7,2,815.60000002384,0.0,1,object_09,1,2651,0,0,5,restaurant_8,1,memory-2step-stake-s,694,3514137,0.0-19.0-0.1-0.196,A2GXE6MIDN8DPR,3QGHA0EA1MGR4GKNSEWY8BJ80SRWBM,3IRIK4HM3E0F6PVH5YKRALM0ONXC64,8,7
197,4,object_04,object_07,1098.900000006,8,2,288.0,0.5555555555555556,2,object_01,5,2676,0,0,5,restaurant_3,1,memory-2step-stake-s,695,3522211,0.0-19.0-0.1-0.197,A2GXE6MIDN8DPR,3QGHA0EA1MGR4GKNSEWY8BJ80SRWBM,3IRIK4HM3E0F6PVH5YKRALM0ONXC64,7,8
198,1,object_05,object_06,631.40000000596,2,1,1037.400000006,0.3333333333333333,2,object_01,5,2691,0,3,3,desert_3,1,memory-2step-stake-s,696,3530825,0.0-19.0-0.1-0.198,A2GXE6MIDN8DPR,3QGHA0EA1MGR4GKNSEWY8BJ80SRWBM,3IRIK4HM3E0F6PVH5YKRALM0ONXC64,2,1
199,4,object_04,object_07,1343.1999999881,7,1,334.20000001788,0.2222222222222222,1,object_09,1,2693,0,2,1,restaurant_7,1,memory-2step-stake-s,697,3538647,0.0-19.0-0.1-0.199,A2GXE6MIDN8DPR,3QGHA0EA1MGR4GKNSEWY8BJ80SRWBM,3IRIK4HM3E0F6PVH5YKRALM0ONXC64,7,8
200,4,object_04,object_07,764.69999998808,8,2,343.19999998808,0.5555555555555556,2,object_01,5,2718,0,0,5,restaurant_2,1,memory-2step-stake-s,698,3546765,0.0-19.0-0.1-0.200,A2GXE6MIDN8DPR,3QGHA0EA1MGR4GKNSEWY8BJ80SRWBM,3IRIK4HM3E0F6PVH5YKRALM0ONXC64,7,8
201,2,object_10,object_03,1031.099999994,3,1,447.29999998212,0.1111111111111111,1,object_09,1,2719,0,1,5,forest_1,1,memory-2step-stake-s,699,3554578,0.0-19.0-0.1-0.201,A2GXE6MIDN8DPR,3QGHA0EA1MGR4GKNSEWY8BJ80SRWBM,3IRIK4HM3E0F6PVH5YKRALM0ONXC64,3,4
202,1,object_05,object_06,817.40000000596,1,2,455.59999999404,0.1111111111111111,1,object_09,1,2720,0,1,6,desert_3,1,memory-2step-stake-s,700,3562410,0.0-19.0-0.1-0.202,A2GXE6MIDN8DPR,3QGHA0EA1MGR4GKNSEWY8BJ80SRWBM,3IRIK4HM3E0F6PVH5YKRALM0ONXC64,2,1
203,2,object_03,object_10,698.10000002384,3,2,463.59999999404,0.4444444444444444,1,object_09,1,2724,0,4,5,forest_8,1,memory-2step-stake-s,701,3570555,0.0-19.0-0.1-0.203,A2GXE6MIDN8DPR,3QGHA0EA1MGR4GKNSEWY8BJ80SRWBM,3IRIK4HM3E0F6PVH5YKRALM0ONXC64,4,3
204,4,object_07,object_04,1299.8000000119,8,1,971.59999999404,0.5555555555555556,2,object_01,5,2749,0,7,5,restaurant_2,1,memory-2step-stake-s,702,3579312,0.0-19.0-0.1-0.204,A2GXE6MIDN8DPR,3QGHA0EA1MGR4GKNSEWY8BJ80SRWBM,3IRIK4HM3E0F6PVH5YKRALM0ONXC64,8,7
205,3,object_02,object_08,706.29999998212,5,1,493.59999999404,0.6666666666666666,1,object_09,5,2779,0,6,3,library_8,1,memory-2step-stake-s,703,3587709,0.0-19.0-0.1-0.205,A2GXE6MIDN8DPR,3QGHA0EA1MGR4GKNSEWY8BJ80SRWBM,3IRIK4HM3E0F6PVH5YKRALM0ONXC64,5,6
206,1,object_05,object_06,627.19999998808,1,2,286.5,0.7777777777777778,1,object_09,5,2814,0,7,5,desert_6,1,memory-2step-stake-s,704,3595966,0.0-19.0-0.1-0.206,A2GXE6MIDN8DPR,3QGHA0EA1MGR4GKNSEWY8BJ80SRWBM,3IRIK4HM3E0F6PVH5YKRALM0ONXC64,2,1
207,1,object_05,object_06,623.69999998808,2,1,341.80000001192,0.6666666666666666,2,object_01,1,2820,0,4,6,desert_8,1,memory-2step-stake-s,705,3604185,0.0-19.0-0.1-0.207,A2GXE6MIDN8DPR,3QGHA0EA1MGR4GKNSEWY8BJ80SRWBM,3IRIK4HM3E0F6PVH5YKRALM0ONXC64,2,1
208,2,object_10,object_03,496.69999998808,3,1,296.69999998808,0.7777777777777778,1,object_09,5,2855,0,7,4,forest_1,1,memory-2step-stake-s,706,3612483,0.0-19.0-0.1-0.208,A2GXE6MIDN8DPR,3QGHA0EA1MGR4GKNSEWY8BJ80SRWBM,3IRIK4HM3E0F6PVH5YKRALM0ONXC64,3,4
209,2,object_03,object_10,575.69999998808,4,1,369.0,0.4444444444444444,2,object_01,1,2859,0,8,4,forest_1,1,memory-2step-stake-s,707,3620516,0.0-19.0-0.1-0.209,A2GXE6MIDN8DPR,3QGHA0EA1MGR4GKNSEWY8BJ80SRWBM,3IRIK4HM3E0F6PVH5YKRALM0ONXC64,4,3
210,1,object_05,object_06,595.0,2,1,282.5,0.6666666666666666,2,object_01,1,2865,0,8,6,desert_6,1,memory-2step-stake-s,708,3628670,0.0-19.0-0.1-0.210,A2GXE6MIDN8DPR,3QGHA0EA1MGR4GKNSEWY8BJ80SRWBM,3IRIK4HM3E0F6PVH5YKRALM0ONXC64,2,1
211,2,object_03,object_10,438.40000000596,4,1,402.69999998808,0.6666666666666666,2,object_01,1,2871,0,6,6,forest_1,1,memory-2step-stake-s,709,3636957,0.0-19.0-0.1-0.211,A2GXE6MIDN8DPR,3QGHA0EA1MGR4GKNSEWY8BJ80SRWBM,3IRIK4HM3E0F6PVH5YKRALM0ONXC64,4,3
212,4,object_04,object_07,487.39999997616,8,2,420.69999998808,0.5555555555555556,2,object_01,5,2896,0,8,5,restaurant_2,1,memory-2step-stake-s,710,3645148,0.0-19.0-0.1-0.212,A2GXE6MIDN8DPR,3QGHA0EA1MGR4GKNSEWY8BJ80SRWBM,3IRIK4HM3E0F6PVH5YKRALM0ONXC64,7,8
213,2,object_10,object_03,670.30000001192,4,2,381.40000000596,0.4444444444444444,2,object_01,1,2900,0,9,4,forest_7,1,memory-2step-stake-s,711,3653209,0.0-19.0-0.1-0.213,A2GXE6MIDN8DPR,3QGHA0EA1MGR4GKNSEWY8BJ80SRWBM,3IRIK4HM3E0F6PVH5YKRALM0ONXC64,3,4
214,1,object_06,object_05,1028.3999999762,2,2,381.79999998212,0.2222222222222222,2,object_01,1,2902,0,8,2,desert_6,1,memory-2step-stake-s,712,3661074,0.0-19.0-0.1-0.214,A2GXE6MIDN8DPR,3QGHA0EA1MGR4GKNSEWY8BJ80SRWBM,3IRIK4HM3E0F6PVH5YKRALM0ONXC64,1,2
215,3,object_08,object_02,546.80000001192,5,2,561.80000001192,0.5555555555555556,1,object_09,5,2927,0,5,1,library_5,1,memory-2step-stake-s,713,3669414,0.0-19.0-0.1-0.215,A2GXE6MIDN8DPR,3QGHA0EA1MGR4GKNSEWY8BJ80SRWBM,3IRIK4HM3E0F6PVH5YKRALM0ONXC64,6,5
216,1,object_06,object_05,621.70000001788,1,1,1043.900000006,0.1111111111111111,1,object_09,1,2928,0,1,2,desert_4,1,memory-2step-stake-s,714,3677836,0.0-19.0-0.1-0.216,A2GXE6MIDN8DPR,3QGHA0EA1MGR4GKNSEWY8BJ80SRWBM,3IRIK4HM3E0F6PVH5YKRALM0ONXC64,1,2
217,1,object_06,object_05,675.69999998808,1,1,694.29999998212,0.2222222222222222,1,object_09,1,2930,0,2,2,desert_3,1,memory-2step-stake-s,715,3686020,0.0-19.0-0.1-0.217,A2GXE6MIDN8DPR,3QGHA0EA1MGR4GKNSEWY8BJ80SRWBM,3IRIK4HM3E0F6PVH5YKRALM0ONXC64,1,2
218,4,object_07,object_04,1076.8999999762,8,1,526.40000000596,0.2222222222222222,2,object_01,5,2940,0,3,2,restaurant_8,1,memory-2step-stake-s,716,3694010,0.0-19.0-0.1-0.218,A2GXE6MIDN8DPR,3QGHA0EA1MGR4GKNSEWY8BJ80SRWBM,3IRIK4HM3E0F6PVH5YKRALM0ONXC64,8,7
219,3,object_08,object_02,489.30000001192,5,2,431.20000001788,0.4444444444444444,1,object_09,5,2960,0,4,4,library_5,1,memory-2step-stake-s,717,3702101,0.0-19.0-0.1-0.219,A2GXE6MIDN8DPR,3QGHA0EA1MGR4GKNSEWY8BJ80SRWBM,3IRIK4HM3E0F6PVH5YKRALM0ONXC64,6,5
220,3,object_08,object_02,497.69999998808,5,2,616.80000001192,0.6666666666666666,1,object_09,5,2990,0,6,3,library_6,1,memory-2step-stake-s,718,3710623,0.0-19.0-0.1-0.220,A2GXE6MIDN8DPR,3QGHA0EA1MGR4GKNSEWY8BJ80SRWBM,3IRIK4HM3E0F6PVH5YKRALM0ONXC64,6,5
221,2,object_10,object_03,592.80000001192,4,2,378.69999998808,0.3333333333333333,2,object_01,1,2993,0,5,3,forest_7,1,memory-2step-stake-s,719,3718569,0.0-19.0-0.1-0.221,A2GXE6MIDN8DPR,3QGHA0EA1MGR4GKNSEWY8BJ80SRWBM,3IRIK4HM3E0F6PVH5YKRALM0ONXC64,3,4
222,1,object_06,object_05,542.0,2,2,450.59999999404,0.1111111111111111,2,object_01,1,2994,0,8,1,desert_6,1,memory-2step-stake-s,720,3726401,0.0-19.0-0.1-0.222,A2GXE6MIDN8DPR,3QGHA0EA1MGR4GKNSEWY8BJ80SRWBM,3IRIK4HM3E0F6PVH5YKRALM0ONXC64,1,2
223,4,object_07,object_04,657.5,7,2,373.0,0.6666666666666666,1,object_09,5,3024,0,6,2,restaurant_8,1,memory-2step-stake-s,721,3734629,0.0-19.0-0.1-0.223,A2GXE6MIDN8DPR,3QGHA0EA1MGR4GKNSEWY8BJ80SRWBM,3IRIK4HM3E0F6PVH5YKRALM0ONXC64,8,7
224,4,object_07,object_04,605.19999998808,7,2,694.40000000596,0.4444444444444444,1,object_09,5,3044,0,4,1,restaurant_8,1,memory-2step-stake-s,722,3742989,0.0-19.0-0.1-0.224,A2GXE6MIDN8DPR,3QGHA0EA1MGR4GKNSEWY8BJ80SRWBM,3IRIK4HM3E0F6PVH5YKRALM0ONXC64,8,7
225,3,object_02,object_08,649.29999998212,5,1,367.79999998212,0.1111111111111111,1,object_09,5,3049,0,1,2,library_4,1,memory-2step-stake-s,723,3750709,0.0-19.0-0.1-0.225,A2GXE6MIDN8DPR,3QGHA0EA1MGR4GKNSEWY8BJ80SRWBM,3IRIK4HM3E0F6PVH5YKRALM0ONXC64,5,6
226,2,object_03,object_10,535.59999999404,3,2,284.19999998808,0.1111111111111111,1,object_09,1,3050,0,1,0,forest_8,1,memory-2step-stake-s,724,3758369,0.0-19.0-0.1-0.226,A2GXE6MIDN8DPR,3QGHA0EA1MGR4GKNSEWY8BJ80SRWBM,3IRIK4HM3E0F6PVH5YKRALM0ONXC64,4,3
227,3,object_08,object_02,650.59999999404,6,1,333.0,0.2222222222222222,2,object_01,5,3060,0,1,2,library_8,1,memory-2step-stake-s,725,3766172,0.0-19.0-0.1-0.227,A2GXE6MIDN8DPR,3QGHA0EA1MGR4GKNSEWY8BJ80SRWBM,3IRIK4HM3E0F6PVH5YKRALM0ONXC64,6,5
228,4,object_04,object_07,1019.2000000179,8,2,347.29999998212,0.0,2,object_01,5,3060,0,3,0,restaurant_3,1,memory-2step-stake-s,726,3773793,0.0-19.0-0.1-0.228,A2GXE6MIDN8DPR,3QGHA0EA1MGR4GKNSEWY8BJ80SRWBM,3IRIK4HM3E0F6PVH5YKRALM0ONXC64,7,8
229,4,object_07,object_04,800.79999998212,7,2,311.69999998808,0.1111111111111111,1,object_09,5,3065,0,1,0,restaurant_3,1,memory-2step-stake-s,727,3781448,0.0-19.0-0.1-0.229,A2GXE6MIDN8DPR,3QGHA0EA1MGR4GKNSEWY8BJ80SRWBM,3IRIK4HM3E0F6PVH5YKRALM0ONXC64,8,7
230,3,object_08,object_02,948.0,5,2,331.69999998808,0.4444444444444444,1,object_09,5,3085,0,4,0,library_6,1,memory-2step-stake-s,728,3789469,0.0-19.0-0.1-0.230,A2GXE6MIDN8DPR,3QGHA0EA1MGR4GKNSEWY8BJ80SRWBM,3IRIK4HM3E0F6PVH5YKRALM0ONXC64,6,5
231,1,object_05,object_06,503.09999999404,2,1,320.69999998808,0.1111111111111111,2,object_01,1,3086,0,3,1,desert_8,1,memory-2step-stake-s,729,3797143,0.0-19.0-0.1-0.231,A2GXE6MIDN8DPR,3QGHA0EA1MGR4GKNSEWY8BJ80SRWBM,3IRIK4HM3E0F6PVH5YKRALM0ONXC64,2,1
232,4,object_04,object_07,868.40000000596,8,2,313.0,0.1111111111111111,2,object_01,1,3087,0,3,1,restaurant_7,1,memory-2step-stake-s,730,3804833,0.0-19.0-0.1-0.232,A2GXE6MIDN8DPR,3QGHA0EA1MGR4GKNSEWY8BJ80SRWBM,3IRIK4HM3E0F6PVH5YKRALM0ONXC64,7,8
233,3,object_02,object_08,592.09999999404,5,1,398.80000001192,0.3333333333333333,1,object_09,5,3102,0,3,0,library_5,1,memory-2step-stake-s,731,3812813,0.0-19.0-0.1-0.233,A2GXE6MIDN8DPR,3QGHA0EA1MGR4GKNSEWY8BJ80SRWBM,3IRIK4HM3E0F6PVH5YKRALM0ONXC64,5,6
234,2,object_10,object_03,386.29999998212,3,1,393.40000000596,0.4444444444444444,1,object_09,1,3106,0,4,1,forest_7,1,memory-2step-stake-s,732,3820866,0.0-19.0-0.1-0.234,A2GXE6MIDN8DPR,3QGHA0EA1MGR4GKNSEWY8BJ80SRWBM,3IRIK4HM3E0F6PVH5YKRALM0ONXC64,3,4
235,2,object_10,object_03,406.0,4,2,323.20000001788,0.2222222222222222,2,object_01,1,3108,0,2,2,forest_1,1,memory-2step-stake-s,733,3828669,0.0-19.0-0.1-0.235,A2GXE6MIDN8DPR,3QGHA0EA1MGR4GKNSEWY8BJ80SRWBM,3IRIK4HM3E0F6PVH5YKRALM0ONXC64,3,4
236,1,object_06,object_05,648.30000001192,2,2,493.80000001192,0.2222222222222222,2,object_01,1,3110,0,1,2,desert_3,1,memory-2step-stake-s,734,3836598,0.0-19.0-0.1-0.236,A2GXE6MIDN8DPR,3QGHA0EA1MGR4GKNSEWY8BJ80SRWBM,3IRIK4HM3E0F6PVH5YKRALM0ONXC64,1,2
237,1,object_06,object_05,508.29999998212,2,2,264.30000001192,0.3333333333333333,2,object_01,1,3113,0,2,3,desert_6,1,memory-2step-stake-s,735,3844443,0.0-19.0-0.1-0.237,A2GXE6MIDN8DPR,3QGHA0EA1MGR4GKNSEWY8BJ80SRWBM,3IRIK4HM3E0F6PVH5YKRALM0ONXC64,1,2
238,2,object_03,object_10,660.80000001192,4,1,84.300000011921,0.1111111111111111,2,object_01,1,3114,0,3,1,forest_1,1,memory-2step-stake-s,736,3851887,0.0-19.0-0.1-0.238,A2GXE6MIDN8DPR,3QGHA0EA1MGR4GKNSEWY8BJ80SRWBM,3IRIK4HM3E0F6PVH5YKRALM0ONXC64,4,3
239,1,object_06,object_05,707.09999999404,2,2,270.20000001788,0.1111111111111111,2,object_01,1,3115,0,3,1,desert_3,1,memory-2step-stake-s,737,3859535,0.0-19.0-0.1-0.239,A2GXE6MIDN8DPR,3QGHA0EA1MGR4GKNSEWY8BJ80SRWBM,3IRIK4HM3E0F6PVH5YKRALM0ONXC64,1,2
240,3,object_08,object_02,787.09999999404,5,2,377.40000000596,0.4444444444444444,1,object_09,5,3135,0,4,4,library_4,1,memory-2step-stake-s,738,3867601,0.0-19.0-0.1-0.240,A2GXE6MIDN8DPR,3QGHA0EA1MGR4GKNSEWY8BJ80SRWBM,3IRIK4HM3E0F6PVH5YKRALM0ONXC64,6,5
241,1,object_05,object_06,682.09999999404,1,2,326.0,0.3333333333333333,1,object_09,5,3150,0,3,6,desert_4,1,memory-2step-stake-s,739,3875477,0.0-19.0-0.1-0.241,A2GXE6MIDN8DPR,3QGHA0EA1MGR4GKNSEWY8BJ80SRWBM,3IRIK4HM3E0F6PVH5YKRALM0ONXC64,2,1
242,1,object_06,object_05,726.5,1,1,446.79999998212,0.8888888888888888,1,object_09,5,3190,0,8,4,desert_3,1,memory-2step-stake-s,740,3884009,0.0-19.0-0.1-0.242,A2GXE6MIDN8DPR,3QGHA0EA1MGR4GKNSEWY8BJ80SRWBM,3IRIK4HM3E0F6PVH5YKRALM0ONXC64,1,2
243,4,object_07,object_04,570.19999998808,7,2,430.19999998808,0.8888888888888888,1,object_09,5,3230,0,8,4,restaurant_3,1,memory-2step-stake-s,741,3892521,0.0-19.0-0.1-0.243,A2GXE6MIDN8DPR,3QGHA0EA1MGR4GKNSEWY8BJ80SRWBM,3IRIK4HM3E0F6PVH5YKRALM0ONXC64,8,7
244,2,object_03,object_10,548.5,4,1,605.40000000596,0.6666666666666666,2,object_01,1,3236,0,6,6,forest_7,1,memory-2step-stake-s,742,3901032,0.0-19.0-0.1-0.244,A2GXE6MIDN8DPR,3QGHA0EA1MGR4GKNSEWY8BJ80SRWBM,3IRIK4HM3E0F6PVH5YKRALM0ONXC64,4,3
245,4,object_04,object_07,862.09999999404,7,1,368.40000000596,0.6666666666666666,1,object_09,5,3266,0,6,4,restaurant_8,1,memory-2step-stake-s,743,3909287,0.0-19.0-0.1-0.245,A2GXE6MIDN8DPR,3QGHA0EA1MGR4GKNSEWY8BJ80SRWBM,3IRIK4HM3E0F6PVH5YKRALM0ONXC64,7,8
246,4,object_04,object_07,797.40000000596,8,2,358.59999999404,0.7777777777777778,2,object_01,5,3301,0,7,7,restaurant_2,1,memory-2step-stake-s,744,3917661,0.0-19.0-0.1-0.246,A2GXE6MIDN8DPR,3QGHA0EA1MGR4GKNSEWY8BJ80SRWBM,3IRIK4HM3E0F6PVH5YKRALM0ONXC64,7,8
247,1,object_06,object_05,713.89999997616,2,2,348.59999999404,1.0,2,object_01,5,3346,0,6,9,desert_4,1,memory-2step-stake-s,745,3926251,0.0-19.0-0.1-0.247,A2GXE6MIDN8DPR,3QGHA0EA1MGR4GKNSEWY8BJ80SRWBM,3IRIK4HM3E0F6PVH5YKRALM0ONXC64,1,2
248,3,object_02,object_08,1066.0,6,2,482.89999997616,1.0,2,object_01,5,3391,0,3,9,library_6,1,memory-2step-stake-s,746,3934944,0.0-19.0-0.1-0.248,A2GXE6MIDN8DPR,3QGHA0EA1MGR4GKNSEWY8BJ80SRWBM,3IRIK4HM3E0F6PVH5YKRALM0ONXC64,5,6
249,1,object_05,object_06,650.5,1,2,263.29999998212,0.1111111111111111,1,object_09,1,3392,0,1,5,desert_8,1,memory-2step-stake-s,747,3942556,0.0-19.0-0.1-0.249,A2GXE6MIDN8DPR,3QGHA0EA1MGR4GKNSEWY8BJ80SRWBM,3IRIK4HM3E0F6PVH5YKRALM0ONXC64,2,1
250,1,object_05,object_06,908.0,1,2,311.19999998808,0.1111111111111111,1,object_09,1,3393,0,1,5,desert_6,1,memory-2step-stake-s,748,3950236,0.0-19.0-0.1-0.250,A2GXE6MIDN8DPR,3QGHA0EA1MGR4GKNSEWY8BJ80SRWBM,3IRIK4HM3E0F6PVH5YKRALM0ONXC64,2,1
251,3,object_08,object_02,1425.400000006,5,2,312.09999999404,0.1111111111111111,1,object_09,1,3394,0,1,4,library_6,1,memory-2step-stake-s,749,3957914,0.0-19.0-0.1-0.251,A2GXE6MIDN8DPR,3QGHA0EA1MGR4GKNSEWY8BJ80SRWBM,3IRIK4HM3E0F6PVH5YKRALM0ONXC64,6,5
252,1,object_05,object_06,485.59999999404,1,2,-1.0,0.0,1,object_09,1,3394,0,6,5,desert_3,1,memory-2step-stake-s,750,3966479,0.0-19.0-0.1-0.252,A2GXE6MIDN8DPR,3QGHA0EA1MGR4GKNSEWY8BJ80SRWBM,3IRIK4HM3E0F6PVH5YKRALM0ONXC64,2,1
253,2,object_03,object_10,439.80000001192,4,1,403.20000001788,0.4444444444444444,2,object_01,5,3414,0,5,4,forest_2,1,memory-2step-stake-s,751,3974544,0.0-19.0-0.1-0.253,A2GXE6MIDN8DPR,3QGHA0EA1MGR4GKNSEWY8BJ80SRWBM,3IRIK4HM3E0F6PVH5YKRALM0ONXC64,4,3
254,2,object_10,object_03,513.0,4,2,287.20000001788,0.6666666666666666,2,object_01,5,3444,0,7,6,forest_7,1,memory-2step-stake-s,752,3982742,0.0-19.0-0.1-0.254,A2GXE6MIDN8DPR,3QGHA0EA1MGR4GKNSEWY8BJ80SRWBM,3IRIK4HM3E0F6PVH5YKRALM0ONXC64,3,4
255,2,object_03,object_10,526.90000000596,3,2,234.09999999404,0.5555555555555556,1,object_09,1,3449,0,5,3,forest_8,1,memory-2step-stake-s,753,3990753,0.0-19.0-0.1-0.255,A2GXE6MIDN8DPR,3QGHA0EA1MGR4GKNSEWY8BJ80SRWBM,3IRIK4HM3E0F6PVH5YKRALM0ONXC64,4,3
