,state1,stim_left,stim_right,rt_1,choice1,response1,rt_2,points,state2,stim_state2,stake,score,practice,rews1,rews2,background,high_arm,trial_type,trial_index,time_elapsed,internal_node_id,subid,hitid,assignmentid,stim_left_num,stim_right_num
0,1,object_06,object_02,680.79999995232,1,2,-1.0,0.0,1,object_05,5,0,0,1,1,desert_2,2,memory-2step-stake-s,491,1147541,0.0-19.0-0.0-0.0,AJFIMLAWP65TE,3X52SWXE10LAELCT6ESTJVPQIDRWCT,3OONKJ5DKGZMLQ9FRUAQG129R2TOB0,2,1
1,2,object_10,object_09,759.79999995232,4,1,346.10000002384,0.2222222222222222,2,object_08,5,10,0,2,2,forest_7,2,memory-2step-stake-s,492,1155313,0.0-19.0-0.0-0.1,AJFIMLAWP65TE,3X52SWXE10LAELCT6ESTJVPQIDRWCT,3OONKJ5DKGZMLQ9FRUAQG129R2TOB0,4,3
2,4,object_01,object_03,739.29999995232,8,1,476.0,0.2222222222222222,2,object_08,5,20,0,5,2,restaurant_2,2,memory-2step-stake-s,493,1163210,0.0-19.0-0.0-0.2,AJFIMLAWP65TE,3X52SWXE10LAELCT6ESTJVPQIDRWCT,3OONKJ5DKGZMLQ9FRUAQG129R2TOB0,8,7
3,3,object_04,object_07,759.0,5,2,551.20000004768,0.3333333333333333,1,object_05,1,23,0,3,1,library_4,2,memory-2step-stake-s,494,1171286,0.0-19.0-0.0-0.3,AJFIMLAWP65TE,3X52SWXE10LAELCT6ESTJVPQIDRWCT,3OONKJ5DKGZMLQ9FRUAQG129R2TOB0,6,5
4,2,object_10,object_09,603.0,4,1,-1.0,0.0,2,object_08,5,23,0,2,1,forest_6,2,memory-2step-stake-s,495,1179805,0.0-19.0-0.0-0.4,AJFIMLAWP65TE,3X52SWXE10LAELCT6ESTJVPQIDRWCT,3OONKJ5DKGZMLQ9FRUAQG129R2TOB0,4,3
5,3,object_07,object_04,541.90000009537,5,1,711.90000009537,0.3333333333333333,1,object_05,1,26,0,3,3,library_8,2,memory-2step-stake-s,496,1188038,0.0-19.0-0.0-0.5,AJFIMLAWP65TE,3X52SWXE10LAELCT6ESTJVPQIDRWCT,3OONKJ5DKGZMLQ9FRUAQG129R2TOB0,5,6
6,2,object_10,object_09,437.30000007153,4,1,510.79999995232,0.4444444444444444,2,object_08,5,46,0,3,4,forest_7,2,memory-2step-stake-s,497,1196179,0.0-19.0-0.0-0.6,AJFIMLAWP65TE,3X52SWXE10LAELCT6ESTJVPQIDRWCT,3OONKJ5DKGZMLQ9FRUAQG129R2TOB0,4,3
7,1,object_06,object_02,1415.0,1,2,799.10000002384,0.1111111111111111,1,object_05,5,51,0,1,6,desert_7,2,memory-2step-stake-s,498,1204304,0.0-19.0-0.0-0.7,AJFIMLAWP65TE,3X52SWXE10LAELCT6ESTJVPQIDRWCT,3OONKJ5DKGZMLQ9FRUAQG129R2TOB0,2,1
8,4,object_01,object_03,721.30000007153,8,1,739.70000004768,0.4444444444444444,2,object_08,1,55,0,2,4,restaurant_5,2,memory-2step-stake-s,499,1212665,0.0-19.0-0.0-0.8,AJFIMLAWP65TE,3X52SWXE10LAELCT6ESTJVPQIDRWCT,3OONKJ5DKGZMLQ9FRUAQG129R2TOB0,8,7
9,2,object_10,object_09,447.90000009537,4,1,-1.0,0.0,2,object_08,5,55,0,5,5,forest_2,2,memory-2step-stake-s,500,1221183,0.0-19.0-0.0-0.9,AJFIMLAWP65TE,3X52SWXE10LAELCT6ESTJVPQIDRWCT,3OONKJ5DKGZMLQ9FRUAQG129R2TOB0,4,3
10,4,object_01,object_03,902.70000004768,7,2,303.19999992847,0.5555555555555556,1,object_05,1,60,0,5,5,restaurant_7,2,memory-2step-stake-s,501,1229217,0.0-19.0-0.0-0.10,AJFIMLAWP65TE,3X52SWXE10LAELCT6ESTJVPQIDRWCT,3OONKJ5DKGZMLQ9FRUAQG129R2TOB0,8,7
11,2,object_09,object_10,764.59999990463,4,2,804.69999992847,0.4444444444444444,2,object_08,1,64,0,4,4,forest_1,2,memory-2step-stake-s,502,1237649,0.0-19.0-0.0-0.11,AJFIMLAWP65TE,3X52SWXE10LAELCT6ESTJVPQIDRWCT,3OONKJ5DKGZMLQ9FRUAQG129R2TOB0,3,4
12,4,object_01,object_03,937.0,7,2,896.10000002384,0.4444444444444444,1,object_05,1,68,0,4,8,restaurant_5,2,memory-2step-stake-s,503,1246176,0.0-19.0-0.0-0.12,AJFIMLAWP65TE,3X52SWXE10LAELCT6ESTJVPQIDRWCT,3OONKJ5DKGZMLQ9FRUAQG129R2TOB0,8,7
13,2,object_10,object_09,920.80000007153,3,2,575.0,0.5555555555555556,1,object_05,1,73,0,5,7,forest_2,2,memory-2step-stake-s,504,1254485,0.0-19.0-0.0-0.13,AJFIMLAWP65TE,3X52SWXE10LAELCT6ESTJVPQIDRWCT,3OONKJ5DKGZMLQ9FRUAQG129R2TOB0,4,3
14,3,object_07,object_04,763.59999990463,6,2,740.0,1.0,2,object_08,5,118,0,7,9,library_4,2,memory-2step-stake-s,505,1263364,0.0-19.0-0.0-0.14,AJFIMLAWP65TE,3X52SWXE10LAELCT6ESTJVPQIDRWCT,3OONKJ5DKGZMLQ9FRUAQG129R2TOB0,5,6
15,1,object_06,object_02,756.20000004768,2,1,788.5,0.7777777777777778,2,object_08,5,153,0,3,7,desert_8,2,memory-2step-stake-s,506,1272080,0.0-19.0-0.0-0.15,AJFIMLAWP65TE,3X52SWXE10LAELCT6ESTJVPQIDRWCT,3OONKJ5DKGZMLQ9FRUAQG129R2TOB0,2,1
16,1,object_06,object_02,1028.7999999523,2,1,380.79999995232,0.5555555555555556,2,object_08,5,178,0,4,5,desert_7,2,memory-2step-stake-s,507,1280190,0.0-19.0-0.0-0.16,AJFIMLAWP65TE,3X52SWXE10LAELCT6ESTJVPQIDRWCT,3OONKJ5DKGZMLQ9FRUAQG129R2TOB0,2,1
17,2,object_09,object_10,979.20000004768,4,2,618.30000007153,0.4444444444444444,2,object_08,5,198,0,1,4,forest_7,2,memory-2step-stake-s,508,1288441,0.0-19.0-0.0-0.17,AJFIMLAWP65TE,3X52SWXE10LAELCT6ESTJVPQIDRWCT,3OONKJ5DKGZMLQ9FRUAQG129R2TOB0,3,4
18,4,object_01,object_03,830.39999997616,7,2,264.10000002384,0.1111111111111111,1,object_05,1,199,0,1,5,restaurant_1,2,memory-2step-stake-s,509,1296032,0.0-19.0-0.0-0.18,AJFIMLAWP65TE,3X52SWXE10LAELCT6ESTJVPQIDRWCT,3OONKJ5DKGZMLQ9FRUAQG129R2TOB0,8,7
19,2,object_10,object_09,1144.8999999762,3,2,383.0,0.2222222222222222,1,object_05,1,201,0,2,8,forest_7,2,memory-2step-stake-s,510,1303845,0.0-19.0-0.0-0.19,AJFIMLAWP65TE,3X52SWXE10LAELCT6ESTJVPQIDRWCT,3OONKJ5DKGZMLQ9FRUAQG129R2TOB0,4,3
20,3,object_04,object_07,1106.7000000477,6,1,507.60000002384,0.8888888888888888,2,object_08,1,209,0,2,8,library_7,2,memory-2step-stake-s,511,1312380,0.0-19.0-0.0-0.20,AJFIMLAWP65TE,3X52SWXE10LAELCT6ESTJVPQIDRWCT,3OONKJ5DKGZMLQ9FRUAQG129R2TOB0,6,5
21,1,object_06,object_02,1001.8999999762,2,1,498.60000002384,0.7777777777777778,2,object_08,5,244,0,2,7,desert_8,2,memory-2step-stake-s,512,1320808,0.0-19.0-0.0-0.21,AJFIMLAWP65TE,3X52SWXE10LAELCT6ESTJVPQIDRWCT,3OONKJ5DKGZMLQ9FRUAQG129R2TOB0,2,1
22,1,object_06,object_02,936.39999997616,1,2,512.39999997616,0.6666666666666666,1,object_05,5,274,0,6,1,desert_7,2,memory-2step-stake-s,513,1329156,0.0-19.0-0.0-0.22,AJFIMLAWP65TE,3X52SWXE10LAELCT6ESTJVPQIDRWCT,3OONKJ5DKGZMLQ9FRUAQG129R2TOB0,2,1
23,1,object_06,object_02,972.5,2,1,-1.0,0.0,2,object_08,1,274,0,4,3,desert_8,2,memory-2step-stake-s,514,1337679,0.0-19.0-0.0-0.23,AJFIMLAWP65TE,3X52SWXE10LAELCT6ESTJVPQIDRWCT,3OONKJ5DKGZMLQ9FRUAQG129R2TOB0,2,1
24,3,object_04,object_07,1081.5,6,1,593.5,0.2222222222222222,2,object_08,1,276,0,4,2,library_8,2,memory-2step-stake-s,515,1345701,0.0-19.0-0.0-0.24,AJFIMLAWP65TE,3X52SWXE10LAELCT6ESTJVPQIDRWCT,3OONKJ5DKGZMLQ9FRUAQG129R2TOB0,6,5
25,4,object_01,object_03,691.39999997616,7,2,851.89999997616,0.3333333333333333,1,object_05,1,279,0,3,2,restaurant_1,2,memory-2step-stake-s,516,1354081,0.0-19.0-0.0-0.25,AJFIMLAWP65TE,3X52SWXE10LAELCT6ESTJVPQIDRWCT,3OONKJ5DKGZMLQ9FRUAQG129R2TOB0,8,7
26,3,object_04,object_07,883.80000007153,5,2,652.30000007153,0.0,1,object_05,1,279,0,0,3,library_4,2,memory-2step-stake-s,517,1361960,0.0-19.0-0.0-0.26,AJFIMLAWP65TE,3X52SWXE10LAELCT6ESTJVPQIDRWCT,3OONKJ5DKGZMLQ9FRUAQG129R2TOB0,6,5
27,1,object_06,object_02,962.0,2,1,513.5,0.3333333333333333,2,object_08,1,282,0,1,3,desert_8,2,memory-2step-stake-s,518,1370001,0.0-19.0-0.0-0.27,AJFIMLAWP65TE,3X52SWXE10LAELCT6ESTJVPQIDRWCT,3OONKJ5DKGZMLQ9FRUAQG129R2TOB0,2,1
28,2,object_10,object_09,846.89999997616,3,2,376.5,0.4444444444444444,1,object_05,5,302,0,4,1,forest_1,2,memory-2step-stake-s,519,1378007,0.0-19.0-0.0-0.28,AJFIMLAWP65TE,3X52SWXE10LAELCT6ESTJVPQIDRWCT,3OONKJ5DKGZMLQ9FRUAQG129R2TOB0,4,3
29,2,object_09,object_10,1126.0999999046,3,1,596.80000007153,0.3333333333333333,1,object_05,5,317,0,3,2,forest_2,2,memory-2step-stake-s,520,1386136,0.0-19.0-0.0-0.29,AJFIMLAWP65TE,3X52SWXE10LAELCT6ESTJVPQIDRWCT,3OONKJ5DKGZMLQ9FRUAQG129R2TOB0,3,4
30,4,object_01,object_03,1309.5,7,2,756.39999997616,0.0,1,object_05,1,317,0,0,1,restaurant_2,2,memory-2step-stake-s,521,1394118,0.0-19.0-0.0-0.30,AJFIMLAWP65TE,3X52SWXE10LAELCT6ESTJVPQIDRWCT,3OONKJ5DKGZMLQ9FRUAQG129R2TOB0,8,7
31,2,object_09,object_10,783.5,3,1,279.90000009537,0.4444444444444444,1,object_05,1,321,0,4,1,forest_2,2,memory-2step-stake-s,522,1402031,0.0-19.0-0.0-0.31,AJFIMLAWP65TE,3X52SWXE10LAELCT6ESTJVPQIDRWCT,3OONKJ5DKGZMLQ9FRUAQG129R2TOB0,3,4
32,2,object_10,object_09,1326.7999999523,4,1,668.30000007153,0.0,2,object_08,1,321,0,6,0,forest_2,2,memory-2step-stake-s,523,1409926,0.0-19.0-0.0-0.32,AJFIMLAWP65TE,3X52SWXE10LAELCT6ESTJVPQIDRWCT,3OONKJ5DKGZMLQ9FRUAQG129R2TOB0,4,3
33,1,object_06,object_02,1150.3999999762,1,2,391.5,0.6666666666666666,1,object_05,1,327,0,6,0,desert_2,2,memory-2step-stake-s,524,1418148,0.0-19.0-0.0-0.33,AJFIMLAWP65TE,3X52SWXE10LAELCT6ESTJVPQIDRWCT,3OONKJ5DKGZMLQ9FRUAQG129R2TOB0,2,1
34,2,object_09,object_10,1132.1000000238,3,1,634.60000002384,0.4444444444444444,1,object_05,5,347,0,4,1,forest_6,2,memory-2step-stake-s,525,1426416,0.0-19.0-0.0-0.34,AJFIMLAWP65TE,3X52SWXE10LAELCT6ESTJVPQIDRWCT,3OONKJ5DKGZMLQ9FRUAQG129R2TOB0,3,4
35,2,object_09,object_10,964.69999992847,3,1,597.89999997616,0.6666666666666666,1,object_05,5,377,0,6,3,forest_6,2,memory-2step-stake-s,526,1434841,0.0-19.0-0.0-0.35,AJFIMLAWP65TE,3X52SWXE10LAELCT6ESTJVPQIDRWCT,3OONKJ5DKGZMLQ9FRUAQG129R2TOB0,3,4
36,4,object_03,object_01,1116.3000000715,8,2,478.5,0.6666666666666666,2,object_08,1,383,0,7,6,restaurant_5,2,memory-2step-stake-s,527,1443154,0.0-19.0-0.0-0.36,AJFIMLAWP65TE,3X52SWXE10LAELCT6ESTJVPQIDRWCT,3OONKJ5DKGZMLQ9FRUAQG129R2TOB0,7,8
37,2,object_10,object_09,770.5,3,2,273.0,0.6666666666666666,1,object_05,5,413,0,6,5,forest_6,2,memory-2step-stake-s,528,1451263,0.0-19.0-0.0-0.37,AJFIMLAWP65TE,3X52SWXE10LAELCT6ESTJVPQIDRWCT,3OONKJ5DKGZMLQ9FRUAQG129R2TOB0,4,3
38,2,object_10,object_09,613.5,3,2,917.10000002384,0.7777777777777778,1,object_05,5,448,0,7,6,forest_2,2,memory-2step-stake-s,529,1460117,0.0-19.0-0.0-0.38,AJFIMLAWP65TE,3X52SWXE10LAELCT6ESTJVPQIDRWCT,3OONKJ5DKGZMLQ9FRUAQG129R2TOB0,4,3
39,2,object_10,object_09,670.70000004768,3,2,590.79999995232,0.4444444444444444,1,object_05,5,468,0,4,8,forest_1,2,memory-2step-stake-s,530,1468339,0.0-19.0-0.0-0.39,AJFIMLAWP65TE,3X52SWXE10LAELCT6ESTJVPQIDRWCT,3OONKJ5DKGZMLQ9FRUAQG129R2TOB0,4,3
40,3,object_07,object_04,979.70000004768,6,2,351.10000002384,0.6666666666666666,2,object_08,5,498,0,3,6,library_3,2,memory-2step-stake-s,531,1476519,0.0-19.0-0.0-0.40,AJFIMLAWP65TE,3X52SWXE10LAELCT6ESTJVPQIDRWCT,3OONKJ5DKGZMLQ9FRUAQG129R2TOB0,5,6
41,1,object_06,object_02,828.39999997616,1,2,612.0,0.0,1,object_05,5,498,0,0,7,desert_2,2,memory-2step-stake-s,532,1484356,0.0-19.0-0.0-0.41,AJFIMLAWP65TE,3X52SWXE10LAELCT6ESTJVPQIDRWCT,3OONKJ5DKGZMLQ9FRUAQG129R2TOB0,2,1
42,1,object_02,object_06,679.39999997616,1,1,745.79999995232,0.1111111111111111,1,object_05,1,499,0,1,9,desert_7,2,memory-2step-stake-s,533,1492418,0.0-19.0-0.0-0.42,AJFIMLAWP65TE,3X52SWXE10LAELCT6ESTJVPQIDRWCT,3OONKJ5DKGZMLQ9FRUAQG129R2TOB0,1,2
43,3,object_07,object_04,-1.0,-1,-1,-1.0,0.0,-,0,5,499,0,2,7,library_7,2,memory-2step-stake-s,534,1498927,0.0-19.0-0.0-0.43,AJFIMLAWP65TE,3X52SWXE10LAELCT6ESTJVPQIDRWCT,3OONKJ5DKGZMLQ9FRUAQG129R2TOB0,5,6
44,2,object_09,object_10,767.70000004768,3,1,711.39999997616,0.1111111111111111,1,object_05,1,500,0,1,7,forest_6,2,memory-2step-stake-s,535,1506961,0.0-19.0-0.0-0.44,AJFIMLAWP65TE,3X52SWXE10LAELCT6ESTJVPQIDRWCT,3OONKJ5DKGZMLQ9FRUAQG129R2TOB0,3,4
45,2,object_10,object_09,651.5,4,1,457.60000002384,0.6666666666666666,2,object_08,5,530,0,1,6,forest_1,2,memory-2step-stake-s,536,1515253,0.0-19.0-0.0-0.45,AJFIMLAWP65TE,3X52SWXE10LAELCT6ESTJVPQIDRWCT,3OONKJ5DKGZMLQ9FRUAQG129R2TOB0,4,3
46,1,object_02,object_06,887.19999992847,1,1,822.69999992847,0.1111111111111111,1,object_05,5,535,0,1,3,desert_1,2,memory-2step-stake-s,537,1523404,0.0-19.0-0.0-0.46,AJFIMLAWP65TE,3X52SWXE10LAELCT6ESTJVPQIDRWCT,3OONKJ5DKGZMLQ9FRUAQG129R2TOB0,1,2
47,1,object_06,object_02,622.69999992847,1,2,486.20000004768,0.2222222222222222,1,object_05,5,545,0,2,0,desert_1,2,memory-2step-stake-s,538,1531309,0.0-19.0-0.0-0.47,AJFIMLAWP65TE,3X52SWXE10LAELCT6ESTJVPQIDRWCT,3OONKJ5DKGZMLQ9FRUAQG129R2TOB0,2,1
48,3,object_04,object_07,920.30000007153,6,1,597.60000002384,0.0,2,object_08,1,545,0,4,0,library_4,2,memory-2step-stake-s,539,1539131,0.0-19.0-0.0-0.48,AJFIMLAWP65TE,3X52SWXE10LAELCT6ESTJVPQIDRWCT,3OONKJ5DKGZMLQ9FRUAQG129R2TOB0,6,5
49,1,object_02,object_06,753.09999990463,1,1,626.69999992847,0.4444444444444444,1,object_05,5,565,0,4,1,desert_8,2,memory-2step-stake-s,540,1547386,0.0-19.0-0.0-0.49,AJFIMLAWP65TE,3X52SWXE10LAELCT6ESTJVPQIDRWCT,3OONKJ5DKGZMLQ9FRUAQG129R2TOB0,1,2
50,3,object_04,object_07,928.80000007153,6,1,510.20000004768,0.1111111111111111,2,object_08,1,566,0,8,1,library_4,2,memory-2step-stake-s,541,1555223,0.0-19.0-0.0-0.50,AJFIMLAWP65TE,3X52SWXE10LAELCT6ESTJVPQIDRWCT,3OONKJ5DKGZMLQ9FRUAQG129R2TOB0,6,5
51,3,object_04,object_07,792.60000002384,5,2,384.09999990463,0.8888888888888888,1,object_05,1,574,0,8,2,library_7,2,memory-2step-stake-s,542,1563649,0.0-19.0-0.0-0.51,AJFIMLAWP65TE,3X52SWXE10LAELCT6ESTJVPQIDRWCT,3OONKJ5DKGZMLQ9FRUAQG129R2TOB0,6,5
52,2,object_10,object_09,913.80000007153,3,2,464.59999990463,0.7777777777777778,1,object_05,5,609,0,7,1,forest_6,2,memory-2step-stake-s,543,1572053,0.0-19.0-0.0-0.52,AJFIMLAWP65TE,3X52SWXE10LAELCT6ESTJVPQIDRWCT,3OONKJ5DKGZMLQ9FRUAQG129R2TOB0,4,3
53,2,object_10,object_09,936.80000007153,3,2,705.39999997616,0.6666666666666666,1,object_05,1,615,0,6,0,forest_2,2,memory-2step-stake-s,544,1580601,0.0-19.0-0.0-0.53,AJFIMLAWP65TE,3X52SWXE10LAELCT6ESTJVPQIDRWCT,3OONKJ5DKGZMLQ9FRUAQG129R2TOB0,4,3
54,3,object_07,object_04,1062.7999999523,5,1,727.09999990463,0.6666666666666666,1,object_05,1,621,0,6,2,library_3,2,memory-2step-stake-s,545,1589167,0.0-19.0-0.0-0.54,AJFIMLAWP65TE,3X52SWXE10LAELCT6ESTJVPQIDRWCT,3OONKJ5DKGZMLQ9FRUAQG129R2TOB0,5,6
55,1,object_02,object_06,656.70000004768,1,1,646.30000007153,0.8888888888888888,1,object_05,5,661,0,8,1,desert_1,2,memory-2step-stake-s,546,1597851,0.0-19.0-0.0-0.55,AJFIMLAWP65TE,3X52SWXE10LAELCT6ESTJVPQIDRWCT,3OONKJ5DKGZMLQ9FRUAQG129R2TOB0,1,2
56,1,object_02,object_06,683.89999997616,1,1,661.0,0.8888888888888888,1,object_05,1,669,0,8,2,desert_1,2,memory-2step-stake-s,547,1606555,0.0-19.0-0.0-0.56,AJFIMLAWP65TE,3X52SWXE10LAELCT6ESTJVPQIDRWCT,3OONKJ5DKGZMLQ9FRUAQG129R2TOB0,1,2
57,3,object_04,object_07,868.60000002384,5,2,894.5,0.8888888888888888,1,object_05,1,677,0,8,2,library_8,2,memory-2step-stake-s,548,1615485,0.0-19.0-0.0-0.57,AJFIMLAWP65TE,3X52SWXE10LAELCT6ESTJVPQIDRWCT,3OONKJ5DKGZMLQ9FRUAQG129R2TOB0,6,5
58,4,object_01,object_03,1224.5,8,1,714.80000007153,0.1111111111111111,2,object_08,1,678,0,9,1,restaurant_5,2,memory-2step-stake-s,549,1623519,0.0-19.0-0.0-0.58,AJFIMLAWP65TE,3X52SWXE10LAELCT6ESTJVPQIDRWCT,3OONKJ5DKGZMLQ9FRUAQG129R2TOB0,8,7
59,3,object_07,object_04,1229.3000000715,6,2,1045.8999999762,0.3333333333333333,2,object_08,1,681,0,9,3,library_4,2,memory-2step-stake-s,550,1632089,0.0-19.0-0.0-0.59,AJFIMLAWP65TE,3X52SWXE10LAELCT6ESTJVPQIDRWCT,3OONKJ5DKGZMLQ9FRUAQG129R2TOB0,5,6
60,3,object_04,object_07,1397.2999999523,5,2,527.80000007153,1.0,1,object_05,1,690,0,9,3,library_3,2,memory-2step-stake-s,551,1640762,0.0-19.0-0.0-0.60,AJFIMLAWP65TE,3X52SWXE10LAELCT6ESTJVPQIDRWCT,3OONKJ5DKGZMLQ9FRUAQG129R2TOB0,6,5
61,4,object_03,object_01,941.0,8,2,764.60000002384,0.2222222222222222,2,object_08,5,700,0,6,2,restaurant_1,2,memory-2step-stake-s,552,1648958,0.0-19.0-0.0-0.61,AJFIMLAWP65TE,3X52SWXE10LAELCT6ESTJVPQIDRWCT,3OONKJ5DKGZMLQ9FRUAQG129R2TOB0,7,8
62,1,object_02,object_06,1073.8000000715,1,1,650.10000002384,0.7777777777777778,1,object_05,5,735,0,7,2,desert_1,2,memory-2step-stake-s,553,1657549,0.0-19.0-0.0-0.62,AJFIMLAWP65TE,3X52SWXE10LAELCT6ESTJVPQIDRWCT,3OONKJ5DKGZMLQ9FRUAQG129R2TOB0,1,2
63,4,object_01,object_03,764.10000002384,8,1,860.0,0.2222222222222222,2,object_08,1,737,0,6,2,restaurant_5,2,memory-2step-stake-s,554,1665836,0.0-19.0-0.0-0.63,AJFIMLAWP65TE,3X52SWXE10LAELCT6ESTJVPQIDRWCT,3OONKJ5DKGZMLQ9FRUAQG129R2TOB0,8,7
64,3,object_07,object_04,785.10000002384,6,2,620.69999992847,0.3333333333333333,2,object_08,5,752,0,5,3,library_3,2,memory-2step-stake-s,555,1673973,0.0-19.0-0.0-0.64,AJFIMLAWP65TE,3X52SWXE10LAELCT6ESTJVPQIDRWCT,3OONKJ5DKGZMLQ9FRUAQG129R2TOB0,5,6
65,4,object_03,object_01,1024.0,8,2,729.79999995232,0.5555555555555556,2,object_08,1,757,0,5,5,restaurant_7,2,memory-2step-stake-s,556,1682422,0.0-19.0-0.0-0.65,AJFIMLAWP65TE,3X52SWXE10LAELCT6ESTJVPQIDRWCT,3OONKJ5DKGZMLQ9FRUAQG129R2TOB0,7,8
66,1,object_06,object_02,838.60000002384,1,2,736.19999992847,0.5555555555555556,1,object_05,5,782,0,5,5,desert_7,2,memory-2step-stake-s,557,1690879,0.0-19.0-0.0-0.66,AJFIMLAWP65TE,3X52SWXE10LAELCT6ESTJVPQIDRWCT,3OONKJ5DKGZMLQ9FRUAQG129R2TOB0,2,1
67,4,object_01,object_03,716.5,8,1,694.39999997616,0.6666666666666666,2,object_08,1,788,0,3,6,restaurant_5,2,memory-2step-stake-s,558,1699394,0.0-19.0-0.0-0.67,AJFIMLAWP65TE,3X52SWXE10LAELCT6ESTJVPQIDRWCT,3OONKJ5DKGZMLQ9FRUAQG129R2TOB0,8,7
68,2,object_09,object_10,1057.5,3,1,635.60000002384,0.4444444444444444,1,object_05,5,808,0,4,8,forest_6,2,memory-2step-stake-s,559,1707649,0.0-19.0-0.0-0.68,AJFIMLAWP65TE,3X52SWXE10LAELCT6ESTJVPQIDRWCT,3OONKJ5DKGZMLQ9FRUAQG129R2TOB0,3,4
69,2,object_10,object_09,707.79999995232,3,2,486.0,0.6666666666666666,1,object_05,5,838,0,6,8,forest_6,2,memory-2step-stake-s,560,1715957,0.0-19.0-0.0-0.69,AJFIMLAWP65TE,3X52SWXE10LAELCT6ESTJVPQIDRWCT,3OONKJ5DKGZMLQ9FRUAQG129R2TOB0,4,3
70,4,object_01,object_03,798.19999992847,8,1,592.5,1.0,2,object_08,1,847,0,7,9,restaurant_7,2,memory-2step-stake-s,561,1724676,0.0-19.0-0.0-0.70,AJFIMLAWP65TE,3X52SWXE10LAELCT6ESTJVPQIDRWCT,3OONKJ5DKGZMLQ9FRUAQG129R2TOB0,8,7
71,2,object_10,object_09,767.39999997616,3,2,570.29999995232,0.3333333333333333,1,object_05,5,862,0,3,8,forest_6,2,memory-2step-stake-s,562,1732766,0.0-19.0-0.0-0.71,AJFIMLAWP65TE,3X52SWXE10LAELCT6ESTJVPQIDRWCT,3OONKJ5DKGZMLQ9FRUAQG129R2TOB0,4,3
72,2,object_09,object_10,709.89999997616,3,1,528.39999997616,0.3333333333333333,1,object_05,5,877,0,3,7,forest_1,2,memory-2step-stake-s,563,1740812,0.0-19.0-0.0-0.72,AJFIMLAWP65TE,3X52SWXE10LAELCT6ESTJVPQIDRWCT,3OONKJ5DKGZMLQ9FRUAQG129R2TOB0,3,4
73,1,object_06,object_02,717.69999992847,1,2,616.19999992847,0.3333333333333333,1,object_05,5,892,0,3,6,desert_8,2,memory-2step-stake-s,564,1748946,0.0-19.0-0.0-0.73,AJFIMLAWP65TE,3X52SWXE10LAELCT6ESTJVPQIDRWCT,3OONKJ5DKGZMLQ9FRUAQG129R2TOB0,2,1
74,3,object_07,object_04,1256.1000000238,5,1,603.5,0.3333333333333333,1,object_05,1,895,0,3,7,library_8,2,memory-2step-stake-s,565,1757068,0.0-19.0-0.0-0.74,AJFIMLAWP65TE,3X52SWXE10LAELCT6ESTJVPQIDRWCT,3OONKJ5DKGZMLQ9FRUAQG129R2TOB0,5,6
75,1,object_02,object_06,678.0,1,1,615.79999995232,0.1111111111111111,1,object_05,5,900,0,1,8,desert_1,2,memory-2step-stake-s,566,1765001,0.0-19.0-0.0-0.75,AJFIMLAWP65TE,3X52SWXE10LAELCT6ESTJVPQIDRWCT,3OONKJ5DKGZMLQ9FRUAQG129R2TOB0,1,2
76,1,object_06,object_02,780.30000007153,1,2,541.39999997616,0.3333333333333333,1,object_05,5,915,0,3,7,desert_2,2,memory-2step-stake-s,567,1773060,0.0-19.0-0.0-0.76,AJFIMLAWP65TE,3X52SWXE10LAELCT6ESTJVPQIDRWCT,3OONKJ5DKGZMLQ9FRUAQG129R2TOB0,2,1
77,2,object_09,object_10,703.30000007153,3,1,1267.1000000238,0.2222222222222222,1,object_05,5,925,0,2,8,forest_1,2,memory-2step-stake-s,568,1781742,0.0-19.0-0.0-0.77,AJFIMLAWP65TE,3X52SWXE10LAELCT6ESTJVPQIDRWCT,3OONKJ5DKGZMLQ9FRUAQG129R2TOB0,3,4
78,2,object_10,object_09,746.5,3,2,1053.7999999523,0.1111111111111111,1,object_05,5,930,0,1,6,forest_2,2,memory-2step-stake-s,569,1790113,0.0-19.0-0.0-0.78,AJFIMLAWP65TE,3X52SWXE10LAELCT6ESTJVPQIDRWCT,3OONKJ5DKGZMLQ9FRUAQG129R2TOB0,4,3
79,4,object_01,object_03,970.0,8,1,883.5,0.8888888888888888,2,object_08,1,938,0,1,8,restaurant_7,2,memory-2step-stake-s,570,1799019,0.0-19.0-0.0-0.79,AJFIMLAWP65TE,3X52SWXE10LAELCT6ESTJVPQIDRWCT,3OONKJ5DKGZMLQ9FRUAQG129R2TOB0,8,7
80,4,object_01,object_03,-1.0,-1,-1,-1.0,0.0,-,0,5,938,0,4,9,restaurant_1,2,memory-2step-stake-s,571,1805528,0.0-19.0-0.0-0.80,AJFIMLAWP65TE,3X52SWXE10LAELCT6ESTJVPQIDRWCT,3OONKJ5DKGZMLQ9FRUAQG129R2TOB0,8,7
81,3,object_04,object_07,1001.6000000238,5,2,550.10000002384,0.4444444444444444,1,object_05,1,942,0,4,6,library_3,2,memory-2step-stake-s,572,1813695,0.0-19.0-0.0-0.81,AJFIMLAWP65TE,3X52SWXE10LAELCT6ESTJVPQIDRWCT,3OONKJ5DKGZMLQ9FRUAQG129R2TOB0,6,5
82,1,object_06,object_02,809.39999997616,1,2,851.80000007153,0.4444444444444444,1,object_05,5,962,0,4,7,desert_2,2,memory-2step-stake-s,573,1822168,0.0-19.0-0.0-0.82,AJFIMLAWP65TE,3X52SWXE10LAELCT6ESTJVPQIDRWCT,3OONKJ5DKGZMLQ9FRUAQG129R2TOB0,2,1
83,2,object_09,object_10,992.0,3,1,336.89999997616,0.6666666666666666,1,object_05,5,992,0,6,8,forest_2,2,memory-2step-stake-s,574,1830331,0.0-19.0-0.0-0.83,AJFIMLAWP65TE,3X52SWXE10LAELCT6ESTJVPQIDRWCT,3OONKJ5DKGZMLQ9FRUAQG129R2TOB0,3,4
84,3,object_04,object_07,1325.7000000477,5,2,703.79999995232,0.6666666666666666,1,object_05,1,998,0,6,8,library_7,2,memory-2step-stake-s,575,1838857,0.0-19.0-0.0-0.84,AJFIMLAWP65TE,3X52SWXE10LAELCT6ESTJVPQIDRWCT,3OONKJ5DKGZMLQ9FRUAQG129R2TOB0,6,5
85,1,object_06,object_02,870.89999997616,1,2,753.60000002384,0.4444444444444444,1,object_05,5,1018,0,4,7,desert_2,2,memory-2step-stake-s,576,1847232,0.0-19.0-0.0-0.85,AJFIMLAWP65TE,3X52SWXE10LAELCT6ESTJVPQIDRWCT,3OONKJ5DKGZMLQ9FRUAQG129R2TOB0,2,1
86,1,object_02,object_06,929.20000004768,1,1,618.5,0.2222222222222222,1,object_05,5,1028,0,2,7,desert_7,2,memory-2step-stake-s,577,1855269,0.0-19.0-0.0-0.86,AJFIMLAWP65TE,3X52SWXE10LAELCT6ESTJVPQIDRWCT,3OONKJ5DKGZMLQ9FRUAQG129R2TOB0,1,2
87,4,object_03,object_01,841.39999997616,8,2,539.39999997616,0.7777777777777778,2,object_08,1,1035,0,2,7,restaurant_2,2,memory-2step-stake-s,578,1863735,0.0-19.0-0.0-0.87,AJFIMLAWP65TE,3X52SWXE10LAELCT6ESTJVPQIDRWCT,3OONKJ5DKGZMLQ9FRUAQG129R2TOB0,7,8
88,3,object_04,object_07,1175.1000000238,5,2,583.89999997616,0.1111111111111111,1,object_05,1,1036,0,1,9,library_7,2,memory-2step-stake-s,579,1871638,0.0-19.0-0.0-0.88,AJFIMLAWP65TE,3X52SWXE10LAELCT6ESTJVPQIDRWCT,3OONKJ5DKGZMLQ9FRUAQG129R2TOB0,6,5
89,4,object_01,object_03,1192.1999999285,8,1,-1.0,0.0,2,object_08,1,1036,0,2,9,restaurant_2,2,memory-2step-stake-s,580,1880155,0.0-19.0-0.0-0.89,AJFIMLAWP65TE,3X52SWXE10LAELCT6ESTJVPQIDRWCT,3OONKJ5DKGZMLQ9FRUAQG129R2TOB0,8,7
90,4,object_03,object_01,864.29999995232,7,1,459.29999995232,0.1111111111111111,1,object_05,1,1037,0,1,7,restaurant_2,2,memory-2step-stake-s,581,1887935,0.0-19.0-0.0-0.90,AJFIMLAWP65TE,3X52SWXE10LAELCT6ESTJVPQIDRWCT,3OONKJ5DKGZMLQ9FRUAQG129R2TOB0,7,8
91,4,object_03,object_01,1124.2000000477,7,1,503.5,0.5555555555555556,1,object_05,1,1042,0,5,4,restaurant_2,2,memory-2step-stake-s,582,1896164,0.0-19.0-0.0-0.91,AJFIMLAWP65TE,3X52SWXE10LAELCT6ESTJVPQIDRWCT,3OONKJ5DKGZMLQ9FRUAQG129R2TOB0,7,8
92,1,object_02,object_06,769.29999995232,1,1,707.0,0.7777777777777778,1,object_05,5,1077,0,7,4,desert_2,2,memory-2step-stake-s,583,1904800,0.0-19.0-0.0-0.92,AJFIMLAWP65TE,3X52SWXE10LAELCT6ESTJVPQIDRWCT,3OONKJ5DKGZMLQ9FRUAQG129R2TOB0,1,2
93,3,object_07,object_04,1029.9000000954,6,2,-1.0,0.0,2,object_08,1,1077,0,7,2,library_7,2,memory-2step-stake-s,584,1913319,0.0-19.0-0.0-0.93,AJFIMLAWP65TE,3X52SWXE10LAELCT6ESTJVPQIDRWCT,3OONKJ5DKGZMLQ9FRUAQG129R2TOB0,5,6
94,1,object_06,object_02,567.0,1,2,465.40000009537,0.3333333333333333,1,object_05,5,1092,0,3,4,desert_8,2,memory-2step-stake-s,585,1921304,0.0-19.0-0.0-0.94,AJFIMLAWP65TE,3X52SWXE10LAELCT6ESTJVPQIDRWCT,3OONKJ5DKGZMLQ9FRUAQG129R2TOB0,2,1
95,2,object_10,object_09,757.39999997616,3,2,1391.2999999523,0.8888888888888888,1,object_05,5,1132,0,8,3,forest_2,2,memory-2step-stake-s,586,1930722,0.0-19.0-0.0-0.95,AJFIMLAWP65TE,3X52SWXE10LAELCT6ESTJVPQIDRWCT,3OONKJ5DKGZMLQ9FRUAQG129R2TOB0,4,3
96,3,object_07,object_04,882.5,6,2,613.10000002384,0.5555555555555556,2,object_08,1,1137,0,9,5,library_7,2,memory-2step-stake-s,587,1939059,0.0-19.0-0.0-0.96,AJFIMLAWP65TE,3X52SWXE10LAELCT6ESTJVPQIDRWCT,3OONKJ5DKGZMLQ9FRUAQG129R2TOB0,5,6
97,3,object_04,object_07,971.19999992847,5,2,548.79999995232,1.0,1,object_05,5,1182,0,9,6,library_3,2,memory-2step-stake-s,588,1947735,0.0-19.0-0.0-0.97,AJFIMLAWP65TE,3X52SWXE10LAELCT6ESTJVPQIDRWCT,3OONKJ5DKGZMLQ9FRUAQG129R2TOB0,6,5
98,2,object_10,object_09,614.29999995232,3,2,471.90000009537,0.8888888888888888,1,object_05,5,1222,0,8,9,forest_6,2,memory-2step-stake-s,589,1956236,0.0-19.0-0.0-0.98,AJFIMLAWP65TE,3X52SWXE10LAELCT6ESTJVPQIDRWCT,3OONKJ5DKGZMLQ9FRUAQG129R2TOB0,4,3
99,3,object_07,object_04,830.80000007153,5,1,552.89999997616,0.8888888888888888,1,object_05,1,1230,0,8,9,library_8,2,memory-2step-stake-s,590,1964819,0.0-19.0-0.0-0.99,AJFIMLAWP65TE,3X52SWXE10LAELCT6ESTJVPQIDRWCT,3OONKJ5DKGZMLQ9FRUAQG129R2TOB0,5,6
100,4,object_03,object_01,824.5,8,2,313.60000002384,0.7777777777777778,2,object_08,1,1237,0,7,7,restaurant_2,2,memory-2step-stake-s,591,1973062,0.0-19.0-0.0-0.100,AJFIMLAWP65TE,3X52SWXE10LAELCT6ESTJVPQIDRWCT,3OONKJ5DKGZMLQ9FRUAQG129R2TOB0,7,8
101,2,object_10,object_09,703.5,4,1,289.5,0.8888888888888888,2,object_08,5,1277,0,7,8,forest_7,2,memory-2step-stake-s,592,1981376,0.0-19.0-0.0-0.101,AJFIMLAWP65TE,3X52SWXE10LAELCT6ESTJVPQIDRWCT,3OONKJ5DKGZMLQ9FRUAQG129R2TOB0,4,3
102,3,object_07,object_04,578.0,5,1,731.5,0.6666666666666666,1,object_05,1,1283,0,6,9,library_3,2,memory-2step-stake-s,593,1989935,0.0-19.0-0.0-0.102,AJFIMLAWP65TE,3X52SWXE10LAELCT6ESTJVPQIDRWCT,3OONKJ5DKGZMLQ9FRUAQG129R2TOB0,5,6
103,2,object_10,object_09,643.40000009537,4,1,941.5,0.7777777777777778,2,object_08,5,1318,0,7,7,forest_7,2,memory-2step-stake-s,594,1998806,0.0-19.0-0.0-0.103,AJFIMLAWP65TE,3X52SWXE10LAELCT6ESTJVPQIDRWCT,3OONKJ5DKGZMLQ9FRUAQG129R2TOB0,4,3
104,1,object_02,object_06,595.20000004768,1,1,620.80000007153,1.0,1,object_05,1,1327,0,9,7,desert_8,2,memory-2step-stake-s,595,2007558,0.0-19.0-0.0-0.104,AJFIMLAWP65TE,3X52SWXE10LAELCT6ESTJVPQIDRWCT,3OONKJ5DKGZMLQ9FRUAQG129R2TOB0,1,2
105,4,object_03,object_01,868.20000004768,7,1,773.0,0.8888888888888888,1,object_05,1,1335,0,8,5,restaurant_2,2,memory-2step-stake-s,596,2016362,0.0-19.0-0.0-0.105,AJFIMLAWP65TE,3X52SWXE10LAELCT6ESTJVPQIDRWCT,3OONKJ5DKGZMLQ9FRUAQG129R2TOB0,7,8
106,1,object_06,object_02,622.39999997616,1,2,647.59999990463,0.6666666666666666,1,object_05,5,1365,0,6,4,desert_8,2,memory-2step-stake-s,597,2024839,0.0-19.0-0.0-0.106,AJFIMLAWP65TE,3X52SWXE10LAELCT6ESTJVPQIDRWCT,3OONKJ5DKGZMLQ9FRUAQG129R2TOB0,2,1
107,3,object_07,object_04,700.79999995232,5,1,638.5,0.5555555555555556,1,object_05,5,1390,0,5,4,library_3,2,memory-2step-stake-s,598,2033202,0.0-19.0-0.0-0.107,AJFIMLAWP65TE,3X52SWXE10LAELCT6ESTJVPQIDRWCT,3OONKJ5DKGZMLQ9FRUAQG129R2TOB0,5,6
108,4,object_01,object_03,889.39999997616,7,2,683.39999997616,0.4444444444444444,1,object_05,1,1394,0,4,3,restaurant_7,2,memory-2step-stake-s,599,2041508,0.0-19.0-0.0-0.108,AJFIMLAWP65TE,3X52SWXE10LAELCT6ESTJVPQIDRWCT,3OONKJ5DKGZMLQ9FRUAQG129R2TOB0,8,7
109,1,object_02,object_06,672.60000002384,1,1,436.0,0.3333333333333333,1,object_05,5,1409,0,3,5,desert_7,2,memory-2step-stake-s,600,2049463,0.0-19.0-0.0-0.109,AJFIMLAWP65TE,3X52SWXE10LAELCT6ESTJVPQIDRWCT,3OONKJ5DKGZMLQ9FRUAQG129R2TOB0,1,2
110,1,object_06,object_02,662.20000004768,1,2,697.10000002384,0.3333333333333333,1,object_05,1,1412,0,3,6,desert_7,2,memory-2step-stake-s,601,2057679,0.0-19.0-0.0-0.110,AJFIMLAWP65TE,3X52SWXE10LAELCT6ESTJVPQIDRWCT,3OONKJ5DKGZMLQ9FRUAQG129R2TOB0,2,1
111,1,object_06,object_02,706.70000004768,1,2,674.10000002384,0.1111111111111111,1,object_05,5,1417,0,1,7,desert_1,2,memory-2step-stake-s,602,2065674,0.0-19.0-0.0-0.111,AJFIMLAWP65TE,3X52SWXE10LAELCT6ESTJVPQIDRWCT,3OONKJ5DKGZMLQ9FRUAQG129R2TOB0,2,1
112,2,object_10,object_09,703.39999997616,4,1,560.29999995232,0.5555555555555556,2,object_08,5,1442,0,0,5,forest_1,2,memory-2step-stake-s,603,2073961,0.0-19.0-0.0-0.112,AJFIMLAWP65TE,3X52SWXE10LAELCT6ESTJVPQIDRWCT,3OONKJ5DKGZMLQ9FRUAQG129R2TOB0,4,3
113,4,object_01,object_03,901.39999997616,7,2,359.29999995232,0.4444444444444444,1,object_05,1,1446,0,4,3,restaurant_1,2,memory-2step-stake-s,604,2081948,0.0-19.0-0.0-0.113,AJFIMLAWP65TE,3X52SWXE10LAELCT6ESTJVPQIDRWCT,3OONKJ5DKGZMLQ9FRUAQG129R2TOB0,8,7
114,3,object_04,object_07,708.39999997616,5,2,429.0,0.4444444444444444,1,object_05,1,1450,0,4,5,library_8,2,memory-2step-stake-s,605,2090003,0.0-19.0-0.0-0.114,AJFIMLAWP65TE,3X52SWXE10LAELCT6ESTJVPQIDRWCT,3OONKJ5DKGZMLQ9FRUAQG129R2TOB0,6,5
115,4,object_03,object_01,660.60000002384,8,2,677.09999990463,0.4444444444444444,2,object_08,1,1454,0,5,4,restaurant_7,2,memory-2step-stake-s,606,2098306,0.0-19.0-0.0-0.115,AJFIMLAWP65TE,3X52SWXE10LAELCT6ESTJVPQIDRWCT,3OONKJ5DKGZMLQ9FRUAQG129R2TOB0,7,8
116,3,object_07,object_04,771.70000004768,5,1,300.80000007153,0.8888888888888888,1,object_05,5,1494,0,8,2,library_7,2,memory-2step-stake-s,607,2106637,0.0-19.0-0.0-0.116,AJFIMLAWP65TE,3X52SWXE10LAELCT6ESTJVPQIDRWCT,3OONKJ5DKGZMLQ9FRUAQG129R2TOB0,5,6
117,1,object_06,object_02,842.30000007153,1,2,658.69999992847,0.4444444444444444,1,object_05,5,1514,0,4,2,desert_8,2,memory-2step-stake-s,608,2114921,0.0-19.0-0.0-0.117,AJFIMLAWP65TE,3X52SWXE10LAELCT6ESTJVPQIDRWCT,3OONKJ5DKGZMLQ9FRUAQG129R2TOB0,2,1
118,2,object_10,object_09,755.39999997616,4,1,-1.0,0.0,2,object_08,5,1514,0,3,0,forest_2,2,memory-2step-stake-s,609,2123444,0.0-19.0-0.0-0.118,AJFIMLAWP65TE,3X52SWXE10LAELCT6ESTJVPQIDRWCT,3OONKJ5DKGZMLQ9FRUAQG129R2TOB0,4,3
119,3,object_04,object_07,657.5,5,2,658.29999995232,0.5555555555555556,1,object_05,1,1519,0,5,3,library_4,2,memory-2step-stake-s,610,2131829,0.0-19.0-0.0-0.119,AJFIMLAWP65TE,3X52SWXE10LAELCT6ESTJVPQIDRWCT,3OONKJ5DKGZMLQ9FRUAQG129R2TOB0,6,5
120,4,object_03,object_01,562.5,8,2,539.89999997616,0.3333333333333333,2,object_08,1,1522,0,7,3,restaurant_1,2,memory-2step-stake-s,611,2139893,0.0-19.0-0.0-0.120,AJFIMLAWP65TE,3X52SWXE10LAELCT6ESTJVPQIDRWCT,3OONKJ5DKGZMLQ9FRUAQG129R2TOB0,7,8
121,2,object_10,object_09,553.60000002384,4,1,671.80000007153,0.3333333333333333,2,object_08,5,1537,0,4,3,forest_2,2,memory-2step-stake-s,612,2148094,0.0-19.0-0.0-0.121,AJFIMLAWP65TE,3X52SWXE10LAELCT6ESTJVPQIDRWCT,3OONKJ5DKGZMLQ9FRUAQG129R2TOB0,4,3
122,1,object_06,object_02,548.10000002384,1,2,550.80000007153,0.6666666666666666,1,object_05,5,1567,0,6,0,desert_1,2,memory-2step-stake-s,613,2156467,0.0-19.0-0.0-0.122,AJFIMLAWP65TE,3X52SWXE10LAELCT6ESTJVPQIDRWCT,3OONKJ5DKGZMLQ9FRUAQG129R2TOB0,2,1
123,1,object_02,object_06,602.39999997616,1,1,625.89999997616,0.7777777777777778,1,object_05,5,1602,0,7,2,desert_7,2,memory-2step-stake-s,614,2165024,0.0-19.0-0.0-0.123,AJFIMLAWP65TE,3X52SWXE10LAELCT6ESTJVPQIDRWCT,3OONKJ5DKGZMLQ9FRUAQG129R2TOB0,1,2
124,4,object_01,object_03,587.10000002384,8,1,572.20000004768,0.2222222222222222,2,object_08,1,1604,0,5,2,restaurant_1,2,memory-2step-stake-s,615,2173020,0.0-19.0-0.0-0.124,AJFIMLAWP65TE,3X52SWXE10LAELCT6ESTJVPQIDRWCT,3OONKJ5DKGZMLQ9FRUAQG129R2TOB0,8,7
125,3,object_07,object_04,744.89999997616,6,2,-1.0,0.0,2,object_08,1,1604,0,6,4,library_3,2,memory-2step-stake-s,616,2181539,0.0-19.0-0.0-0.125,AJFIMLAWP65TE,3X52SWXE10LAELCT6ESTJVPQIDRWCT,3OONKJ5DKGZMLQ9FRUAQG129R2TOB0,5,6
126,3,object_07,object_04,535.69999992847,6,2,552.69999992847,0.1111111111111111,2,object_08,1,1605,0,1,1,library_8,2,memory-2step-stake-s,617,2189417,0.0-19.0-0.0-0.126,AJFIMLAWP65TE,3X52SWXE10LAELCT6ESTJVPQIDRWCT,3OONKJ5DKGZMLQ9FRUAQG129R2TOB0,5,6
127,4,object_01,object_03,596.20000004768,8,1,485.10000002384,0.1111111111111111,2,object_08,1,1606,0,4,1,restaurant_1,2,memory-2step-stake-s,618,2197223,0.0-19.0-0.0-0.127,AJFIMLAWP65TE,3X52SWXE10LAELCT6ESTJVPQIDRWCT,3OONKJ5DKGZMLQ9FRUAQG129R2TOB0,8,7
128,4,object_01,object_03,807.39999997616,7,2,1429.8999999762,0.2222222222222222,1,object_05,5,1616,0,2,2,restaurant_2,2,memory-2step-stake-s,620,2210044,0.0-19.0-0.1-0.128,AJFIMLAWP65TE,3X52SWXE10LAELCT6ESTJVPQIDRWCT,3OONKJ5DKGZMLQ9FRUAQG129R2TOB0,8,7
129,4,object_03,object_01,854.79999995232,7,1,581.79999995232,0.3333333333333333,1,object_05,1,1619,0,3,1,restaurant_1,2,memory-2step-stake-s,621,2218153,0.0-19.0-0.1-0.129,AJFIMLAWP65TE,3X52SWXE10LAELCT6ESTJVPQIDRWCT,3OONKJ5DKGZMLQ9FRUAQG129R2TOB0,7,8
130,3,object_07,object_04,893.10000002384,5,1,391.5,0.5555555555555556,1,object_05,1,1624,0,5,1,library_8,2,memory-2step-stake-s,622,2226270,0.0-19.0-0.1-0.130,AJFIMLAWP65TE,3X52SWXE10LAELCT6ESTJVPQIDRWCT,3OONKJ5DKGZMLQ9FRUAQG129R2TOB0,5,6
131,1,object_06,object_02,859.09999990463,1,2,524.39999997616,0.6666666666666666,1,object_05,5,1654,0,6,2,desert_1,2,memory-2step-stake-s,623,2234632,0.0-19.0-0.1-0.131,AJFIMLAWP65TE,3X52SWXE10LAELCT6ESTJVPQIDRWCT,3OONKJ5DKGZMLQ9FRUAQG129R2TOB0,2,1
132,1,object_06,object_02,1338.7000000477,2,1,444.80000007153,0.1111111111111111,2,object_08,5,1659,0,5,1,desert_1,2,memory-2step-stake-s,624,2242397,0.0-19.0-0.1-0.132,AJFIMLAWP65TE,3X52SWXE10LAELCT6ESTJVPQIDRWCT,3OONKJ5DKGZMLQ9FRUAQG129R2TOB0,2,1
133,4,object_03,object_01,1021.3999999762,8,2,1278.0,0.1111111111111111,2,object_08,1,1660,0,4,1,restaurant_7,2,memory-2step-stake-s,625,2250998,0.0-19.0-0.1-0.133,AJFIMLAWP65TE,3X52SWXE10LAELCT6ESTJVPQIDRWCT,3OONKJ5DKGZMLQ9FRUAQG129R2TOB0,7,8
134,1,object_06,object_02,1051.1000000238,1,2,395.60000002384,0.2222222222222222,1,object_05,5,1670,0,2,0,desert_8,2,memory-2step-stake-s,626,2258820,0.0-19.0-0.1-0.134,AJFIMLAWP65TE,3X52SWXE10LAELCT6ESTJVPQIDRWCT,3OONKJ5DKGZMLQ9FRUAQG129R2TOB0,2,1
135,1,object_02,object_06,725.70000004768,1,1,332.20000004768,0.2222222222222222,1,object_05,5,1680,0,2,1,desert_2,2,memory-2step-stake-s,627,2266578,0.0-19.0-0.1-0.135,AJFIMLAWP65TE,3X52SWXE10LAELCT6ESTJVPQIDRWCT,3OONKJ5DKGZMLQ9FRUAQG129R2TOB0,1,2
136,4,object_03,object_01,701.19999992847,7,1,678.39999997616,0.1111111111111111,1,object_05,5,1685,0,1,3,restaurant_1,2,memory-2step-stake-s,628,2274582,0.0-19.0-0.1-0.136,AJFIMLAWP65TE,3X52SWXE10LAELCT6ESTJVPQIDRWCT,3OONKJ5DKGZMLQ9FRUAQG129R2TOB0,7,8
137,2,object_10,object_09,1123.1999999285,4,1,602.60000002384,0.3333333333333333,2,object_08,5,1700,0,1,3,forest_1,2,memory-2step-stake-s,629,2282712,0.0-19.0-0.1-0.137,AJFIMLAWP65TE,3X52SWXE10LAELCT6ESTJVPQIDRWCT,3OONKJ5DKGZMLQ9FRUAQG129R2TOB0,4,3
138,2,object_09,object_10,1193.1000000238,3,1,698.29999995232,0.2222222222222222,1,object_05,1,1702,0,2,2,forest_7,2,memory-2step-stake-s,630,2290834,0.0-19.0-0.1-0.138,AJFIMLAWP65TE,3X52SWXE10LAELCT6ESTJVPQIDRWCT,3OONKJ5DKGZMLQ9FRUAQG129R2TOB0,3,4
139,4,object_03,object_01,956.80000007153,7,1,702.0,0.0,1,object_05,5,1702,0,0,0,restaurant_5,2,memory-2step-stake-s,631,2298758,0.0-19.0-0.1-0.139,AJFIMLAWP65TE,3X52SWXE10LAELCT6ESTJVPQIDRWCT,3OONKJ5DKGZMLQ9FRUAQG129R2TOB0,7,8
140,1,object_06,object_02,-1.0,-1,-1,-1.0,0.0,-,0,5,1702,0,1,0,desert_7,2,memory-2step-stake-s,632,2305275,0.0-19.0-0.1-0.140,AJFIMLAWP65TE,3X52SWXE10LAELCT6ESTJVPQIDRWCT,3OONKJ5DKGZMLQ9FRUAQG129R2TOB0,2,1
141,3,object_04,object_07,524.40000009537,5,2,661.90000009537,0.4444444444444444,1,object_05,1,1706,0,4,0,library_4,2,memory-2step-stake-s,633,2313566,0.0-19.0-0.1-0.141,AJFIMLAWP65TE,3X52SWXE10LAELCT6ESTJVPQIDRWCT,3OONKJ5DKGZMLQ9FRUAQG129R2TOB0,6,5
142,2,object_09,object_10,818.5,4,2,445.20000004768,0.2222222222222222,2,object_08,5,1716,0,3,2,forest_1,2,memory-2step-stake-s,634,2321436,0.0-19.0-0.1-0.142,AJFIMLAWP65TE,3X52SWXE10LAELCT6ESTJVPQIDRWCT,3OONKJ5DKGZMLQ9FRUAQG129R2TOB0,3,4
143,2,object_10,object_09,675.10000002384,3,2,625.89999997616,0.1111111111111111,1,object_05,5,1721,0,1,4,forest_1,2,memory-2step-stake-s,635,2329389,0.0-19.0-0.1-0.143,AJFIMLAWP65TE,3X52SWXE10LAELCT6ESTJVPQIDRWCT,3OONKJ5DKGZMLQ9FRUAQG129R2TOB0,4,3
144,2,object_10,object_09,667.5,4,1,25.600000023842,0.7777777777777778,2,object_08,5,1756,0,3,7,forest_2,2,memory-2step-stake-s,636,2337347,0.0-19.0-0.1-0.144,AJFIMLAWP65TE,3X52SWXE10LAELCT6ESTJVPQIDRWCT,3OONKJ5DKGZMLQ9FRUAQG129R2TOB0,4,3
145,2,object_09,object_10,434.60000002384,3,1,379.30000007153,0.2222222222222222,1,object_05,5,1766,0,2,5,forest_6,2,memory-2step-stake-s,637,2345154,0.0-19.0-0.1-0.145,AJFIMLAWP65TE,3X52SWXE10LAELCT6ESTJVPQIDRWCT,3OONKJ5DKGZMLQ9FRUAQG129R2TOB0,3,4
146,3,object_07,object_04,323.30000007153,6,2,283.0,0.6666666666666666,2,object_08,1,1772,0,0,6,library_4,2,memory-2step-stake-s,638,2353262,0.0-19.0-0.1-0.146,AJFIMLAWP65TE,3X52SWXE10LAELCT6ESTJVPQIDRWCT,3OONKJ5DKGZMLQ9FRUAQG129R2TOB0,5,6
147,4,object_01,object_03,1052.2999999523,8,1,371.80000007153,0.8888888888888888,2,object_08,1,1780,0,2,8,restaurant_7,2,memory-2step-stake-s,639,2361666,0.0-19.0-0.1-0.147,AJFIMLAWP65TE,3X52SWXE10LAELCT6ESTJVPQIDRWCT,3OONKJ5DKGZMLQ9FRUAQG129R2TOB0,8,7
148,3,object_07,object_04,817.10000002384,6,2,265.70000004768,0.2222222222222222,2,object_08,1,1782,0,3,2,library_8,2,memory-2step-stake-s,640,2369354,0.0-19.0-0.1-0.148,AJFIMLAWP65TE,3X52SWXE10LAELCT6ESTJVPQIDRWCT,3OONKJ5DKGZMLQ9FRUAQG129R2TOB0,5,6
149,1,object_02,object_06,949.60000002384,2,2,77.700000047684,0.3333333333333333,2,object_08,5,1797,0,4,3,desert_8,2,memory-2step-stake-s,641,2376959,0.0-19.0-0.1-0.149,AJFIMLAWP65TE,3X52SWXE10LAELCT6ESTJVPQIDRWCT,3OONKJ5DKGZMLQ9FRUAQG129R2TOB0,1,2
150,2,object_10,object_09,887.19999992847,3,2,565.80000007153,0.2222222222222222,1,object_05,1,1799,0,2,0,forest_7,2,memory-2step-stake-s,642,2384953,0.0-19.0-0.1-0.150,AJFIMLAWP65TE,3X52SWXE10LAELCT6ESTJVPQIDRWCT,3OONKJ5DKGZMLQ9FRUAQG129R2TOB0,4,3
151,1,object_06,object_02,868.10000002384,2,1,453.5,0.1111111111111111,2,object_08,5,1804,0,4,1,desert_1,2,memory-2step-stake-s,643,2392731,0.0-19.0-0.1-0.151,AJFIMLAWP65TE,3X52SWXE10LAELCT6ESTJVPQIDRWCT,3OONKJ5DKGZMLQ9FRUAQG129R2TOB0,2,1
152,4,object_03,object_01,726.29999995232,8,2,663.0,0.1111111111111111,2,object_08,5,1809,0,1,1,restaurant_7,2,memory-2step-stake-s,644,2400714,0.0-19.0-0.1-0.152,AJFIMLAWP65TE,3X52SWXE10LAELCT6ESTJVPQIDRWCT,3OONKJ5DKGZMLQ9FRUAQG129R2TOB0,7,8
153,1,object_02,object_06,845.60000002384,2,2,455.69999992847,0.4444444444444444,2,object_08,1,1813,0,0,4,desert_8,2,memory-2step-stake-s,645,2408796,0.0-19.0-0.1-0.153,AJFIMLAWP65TE,3X52SWXE10LAELCT6ESTJVPQIDRWCT,3OONKJ5DKGZMLQ9FRUAQG129R2TOB0,1,2
154,3,object_07,object_04,1017.7000000477,6,2,463.89999997616,0.0,2,object_08,1,1813,0,1,0,library_3,2,memory-2step-stake-s,646,2416482,0.0-19.0-0.1-0.154,AJFIMLAWP65TE,3X52SWXE10LAELCT6ESTJVPQIDRWCT,3OONKJ5DKGZMLQ9FRUAQG129R2TOB0,5,6
155,4,object_01,object_03,746.39999997616,8,1,626.79999995232,0.1111111111111111,2,object_08,1,1814,0,2,1,restaurant_7,2,memory-2step-stake-s,647,2424435,0.0-19.0-0.1-0.155,AJFIMLAWP65TE,3X52SWXE10LAELCT6ESTJVPQIDRWCT,3OONKJ5DKGZMLQ9FRUAQG129R2TOB0,8,7
156,4,object_03,object_01,897.70000004768,8,2,433.39999997616,0.1111111111111111,2,object_08,1,1815,0,0,1,restaurant_5,2,memory-2step-stake-s,648,2432194,0.0-19.0-0.1-0.156,AJFIMLAWP65TE,3X52SWXE10LAELCT6ESTJVPQIDRWCT,3OONKJ5DKGZMLQ9FRUAQG129R2TOB0,7,8
157,2,object_10,object_09,942.39999997616,3,2,575.5,0.0,1,object_05,5,1815,0,0,3,forest_1,2,memory-2step-stake-s,649,2439987,0.0-19.0-0.1-0.157,AJFIMLAWP65TE,3X52SWXE10LAELCT6ESTJVPQIDRWCT,3OONKJ5DKGZMLQ9FRUAQG129R2TOB0,4,3
158,1,object_06,object_02,770.0,2,1,299.19999992847,0.5555555555555556,2,object_08,5,1840,0,0,5,desert_2,2,memory-2step-stake-s,650,2448018,0.0-19.0-0.1-0.158,AJFIMLAWP65TE,3X52SWXE10LAELCT6ESTJVPQIDRWCT,3OONKJ5DKGZMLQ9FRUAQG129R2TOB0,2,1
159,2,object_09,object_10,969.19999992847,3,1,626.10000002384,0.2222222222222222,1,object_05,1,1842,0,2,5,forest_7,2,memory-2step-stake-s,651,2456074,0.0-19.0-0.1-0.159,AJFIMLAWP65TE,3X52SWXE10LAELCT6ESTJVPQIDRWCT,3OONKJ5DKGZMLQ9FRUAQG129R2TOB0,3,4
160,4,object_01,object_03,1009.0,8,1,439.29999995232,0.1111111111111111,2,object_08,1,1843,0,4,1,restaurant_5,2,memory-2step-stake-s,652,2463840,0.0-19.0-0.1-0.160,AJFIMLAWP65TE,3X52SWXE10LAELCT6ESTJVPQIDRWCT,3OONKJ5DKGZMLQ9FRUAQG129R2TOB0,8,7
161,4,object_03,object_01,1075.6000000238,7,1,635.19999992847,0.5555555555555556,1,object_05,1,1848,0,5,0,restaurant_1,2,memory-2step-stake-s,653,2472208,0.0-19.0-0.1-0.161,AJFIMLAWP65TE,3X52SWXE10LAELCT6ESTJVPQIDRWCT,3OONKJ5DKGZMLQ9FRUAQG129R2TOB0,7,8
162,3,object_04,object_07,930.0,5,2,530.5,0.6666666666666666,1,object_05,1,1854,0,6,0,library_8,2,memory-2step-stake-s,654,2480575,0.0-19.0-0.1-0.162,AJFIMLAWP65TE,3X52SWXE10LAELCT6ESTJVPQIDRWCT,3OONKJ5DKGZMLQ9FRUAQG129R2TOB0,6,5
163,2,object_10,object_09,833.40000009537,4,1,297.29999995232,0.1111111111111111,2,object_08,5,1859,0,8,1,forest_1,2,memory-2step-stake-s,655,2488200,0.0-19.0-0.1-0.163,AJFIMLAWP65TE,3X52SWXE10LAELCT6ESTJVPQIDRWCT,3OONKJ5DKGZMLQ9FRUAQG129R2TOB0,4,3
164,4,object_03,object_01,1350.0,8,2,526.0,0.3333333333333333,2,object_08,1,1862,0,3,3,restaurant_2,2,memory-2step-stake-s,656,2496252,0.0-19.0-0.1-0.164,AJFIMLAWP65TE,3X52SWXE10LAELCT6ESTJVPQIDRWCT,3OONKJ5DKGZMLQ9FRUAQG129R2TOB0,7,8
165,4,object_01,object_03,854.70000004768,7,2,319.29999995232,0.4444444444444444,1,object_05,1,1866,0,4,4,restaurant_2,2,memory-2step-stake-s,657,2504203,0.0-19.0-0.1-0.165,AJFIMLAWP65TE,3X52SWXE10LAELCT6ESTJVPQIDRWCT,3OONKJ5DKGZMLQ9FRUAQG129R2TOB0,8,7
166,1,object_02,object_06,918.70000004768,1,1,465.29999995232,0.4444444444444444,1,object_05,5,1886,0,4,4,desert_2,2,memory-2step-stake-s,658,2512290,0.0-19.0-0.1-0.166,AJFIMLAWP65TE,3X52SWXE10LAELCT6ESTJVPQIDRWCT,3OONKJ5DKGZMLQ9FRUAQG129R2TOB0,1,2
167,3,object_04,object_07,741.0,5,2,1221.5,0.4444444444444444,1,object_05,1,1890,0,4,4,library_3,2,memory-2step-stake-s,659,2521137,0.0-19.0-0.1-0.167,AJFIMLAWP65TE,3X52SWXE10LAELCT6ESTJVPQIDRWCT,3OONKJ5DKGZMLQ9FRUAQG129R2TOB0,6,5
168,4,object_01,object_03,874.20000004768,7,2,404.5,0.5555555555555556,1,object_05,5,1915,0,5,6,restaurant_7,2,memory-2step-stake-s,660,2529266,0.0-19.0-0.1-0.168,AJFIMLAWP65TE,3X52SWXE10LAELCT6ESTJVPQIDRWCT,3OONKJ5DKGZMLQ9FRUAQG129R2TOB0,8,7
169,3,object_07,object_04,1046.7000000477,6,2,546.70000004768,0.7777777777777778,2,object_08,1,1922,0,2,7,library_4,2,memory-2step-stake-s,661,2537732,0.0-19.0-0.1-0.169,AJFIMLAWP65TE,3X52SWXE10LAELCT6ESTJVPQIDRWCT,3OONKJ5DKGZMLQ9FRUAQG129R2TOB0,5,6
170,2,object_09,object_10,1091.7999999523,4,2,684.20000004768,0.7777777777777778,2,object_08,5,1957,0,3,7,forest_7,2,memory-2step-stake-s,662,2546340,0.0-19.0-0.1-0.170,AJFIMLAWP65TE,3X52SWXE10LAELCT6ESTJVPQIDRWCT,3OONKJ5DKGZMLQ9FRUAQG129R2TOB0,3,4
171,4,object_01,object_03,709.39999997616,7,2,239.90000009537,0.6666666666666666,1,object_05,1,1963,0,6,4,restaurant_5,2,memory-2step-stake-s,663,2554399,0.0-19.0-0.1-0.171,AJFIMLAWP65TE,3X52SWXE10LAELCT6ESTJVPQIDRWCT,3OONKJ5DKGZMLQ9FRUAQG129R2TOB0,8,7
172,2,object_09,object_10,808.40000009537,3,1,371.89999997616,0.6666666666666666,1,object_05,5,1993,0,6,5,forest_7,2,memory-2step-stake-s,664,2562592,0.0-19.0-0.1-0.172,AJFIMLAWP65TE,3X52SWXE10LAELCT6ESTJVPQIDRWCT,3OONKJ5DKGZMLQ9FRUAQG129R2TOB0,3,4
173,2,object_10,object_09,567.29999995232,3,2,586.89999997616,0.4444444444444444,1,object_05,5,2013,0,4,4,forest_2,2,memory-2step-stake-s,665,2570798,0.0-19.0-0.1-0.173,AJFIMLAWP65TE,3X52SWXE10LAELCT6ESTJVPQIDRWCT,3OONKJ5DKGZMLQ9FRUAQG129R2TOB0,4,3
174,3,object_07,object_04,784.70000004768,6,2,554.60000002384,0.4444444444444444,2,object_08,1,2017,0,3,4,library_3,2,memory-2step-stake-s,666,2578972,0.0-19.0-0.1-0.174,AJFIMLAWP65TE,3X52SWXE10LAELCT6ESTJVPQIDRWCT,3OONKJ5DKGZMLQ9FRUAQG129R2TOB0,5,6
175,1,object_06,object_02,769.10000002384,1,2,556.89999997616,0.7777777777777778,1,object_05,5,2052,0,7,2,desert_7,2,memory-2step-stake-s,667,2587450,0.0-19.0-0.1-0.175,AJFIMLAWP65TE,3X52SWXE10LAELCT6ESTJVPQIDRWCT,3OONKJ5DKGZMLQ9FRUAQG129R2TOB0,2,1
176,1,object_02,object_06,587.29999995232,1,1,606.70000004768,0.8888888888888888,1,object_05,5,2092,0,8,2,desert_2,2,memory-2step-stake-s,668,2596082,0.0-19.0-0.1-0.176,AJFIMLAWP65TE,3X52SWXE10LAELCT6ESTJVPQIDRWCT,3OONKJ5DKGZMLQ9FRUAQG129R2TOB0,1,2
177,1,object_06,object_02,538.89999997616,1,2,437.19999992847,0.8888888888888888,1,object_05,5,2132,0,8,4,desert_2,2,memory-2step-stake-s,669,2604545,0.0-19.0-0.1-0.177,AJFIMLAWP65TE,3X52SWXE10LAELCT6ESTJVPQIDRWCT,3OONKJ5DKGZMLQ9FRUAQG129R2TOB0,2,1
178,2,object_10,object_09,780.20000004768,3,2,446.60000002384,1.0,1,object_05,1,2141,0,9,2,forest_6,2,memory-2step-stake-s,670,2613116,0.0-19.0-0.1-0.178,AJFIMLAWP65TE,3X52SWXE10LAELCT6ESTJVPQIDRWCT,3OONKJ5DKGZMLQ9FRUAQG129R2TOB0,4,3
179,4,object_01,object_03,705.89999997616,7,2,509.09999990463,0.7777777777777778,1,object_05,5,2176,0,7,3,restaurant_2,2,memory-2step-stake-s,671,2621546,0.0-19.0-0.1-0.179,AJFIMLAWP65TE,3X52SWXE10LAELCT6ESTJVPQIDRWCT,3OONKJ5DKGZMLQ9FRUAQG129R2TOB0,8,7
180,3,object_04,object_07,867.79999995232,5,2,709.19999992847,1.0,1,object_05,1,2185,0,9,2,library_4,2,memory-2step-stake-s,672,2630381,0.0-19.0-0.1-0.180,AJFIMLAWP65TE,3X52SWXE10LAELCT6ESTJVPQIDRWCT,3OONKJ5DKGZMLQ9FRUAQG129R2TOB0,6,5
181,4,object_01,object_03,623.69999992847,8,1,554.60000002384,0.1111111111111111,2,object_08,1,2186,0,9,1,restaurant_5,2,memory-2step-stake-s,673,2638253,0.0-19.0-0.1-0.181,AJFIMLAWP65TE,3X52SWXE10LAELCT6ESTJVPQIDRWCT,3OONKJ5DKGZMLQ9FRUAQG129R2TOB0,8,7
182,2,object_10,object_09,643.39999997616,3,2,478.0,1.0,1,object_05,1,2195,0,9,1,forest_6,2,memory-2step-stake-s,674,2646851,0.0-19.0-0.1-0.182,AJFIMLAWP65TE,3X52SWXE10LAELCT6ESTJVPQIDRWCT,3OONKJ5DKGZMLQ9FRUAQG129R2TOB0,4,3
183,4,object_03,object_01,823.69999992847,7,1,632.80000007153,0.7777777777777778,1,object_05,1,2202,0,7,4,restaurant_5,2,memory-2step-stake-s,675,2655407,0.0-19.0-0.1-0.183,AJFIMLAWP65TE,3X52SWXE10LAELCT6ESTJVPQIDRWCT,3OONKJ5DKGZMLQ9FRUAQG129R2TOB0,7,8
184,2,object_10,object_09,684.0,3,2,452.10000002384,0.6666666666666666,1,object_05,5,2232,0,6,2,forest_7,2,memory-2step-stake-s,676,2663687,0.0-19.0-0.1-0.184,AJFIMLAWP65TE,3X52SWXE10LAELCT6ESTJVPQIDRWCT,3OONKJ5DKGZMLQ9FRUAQG129R2TOB0,4,3
185,1,object_06,object_02,756.89999997616,1,2,576.0,0.6666666666666666,1,object_05,5,2262,0,6,2,desert_1,2,memory-2step-stake-s,677,2672082,0.0-19.0-0.1-0.185,AJFIMLAWP65TE,3X52SWXE10LAELCT6ESTJVPQIDRWCT,3OONKJ5DKGZMLQ9FRUAQG129R2TOB0,2,1
186,4,object_03,object_01,670.79999995232,8,2,337.20000004768,0.4444444444444444,2,object_08,1,2266,0,4,4,restaurant_5,2,memory-2step-stake-s,678,2680042,0.0-19.0-0.1-0.186,AJFIMLAWP65TE,3X52SWXE10LAELCT6ESTJVPQIDRWCT,3OONKJ5DKGZMLQ9FRUAQG129R2TOB0,7,8
187,3,object_04,object_07,687.5,5,2,587.0,0.8888888888888888,1,object_05,1,2274,0,8,4,library_8,2,memory-2step-stake-s,679,2688653,0.0-19.0-0.1-0.187,AJFIMLAWP65TE,3X52SWXE10LAELCT6ESTJVPQIDRWCT,3OONKJ5DKGZMLQ9FRUAQG129R2TOB0,6,5
188,4,object_01,object_03,1243.9000000954,7,2,358.10000002384,0.8888888888888888,1,object_05,1,2282,0,8,7,restaurant_1,2,memory-2step-stake-s,680,2697040,0.0-19.0-0.1-0.188,AJFIMLAWP65TE,3X52SWXE10LAELCT6ESTJVPQIDRWCT,3OONKJ5DKGZMLQ9FRUAQG129R2TOB0,8,7
189,2,object_09,object_10,849.60000002384,3,1,379.60000002384,1.0,1,object_05,5,2327,0,9,6,forest_6,2,memory-2step-stake-s,681,2705549,0.0-19.0-0.1-0.189,AJFIMLAWP65TE,3X52SWXE10LAELCT6ESTJVPQIDRWCT,3OONKJ5DKGZMLQ9FRUAQG129R2TOB0,3,4
190,1,object_06,object_02,859.89999997616,1,2,292.69999992847,0.7777777777777778,1,object_05,5,2362,0,7,9,desert_7,2,memory-2step-stake-s,682,2713768,0.0-19.0-0.1-0.190,AJFIMLAWP65TE,3X52SWXE10LAELCT6ESTJVPQIDRWCT,3OONKJ5DKGZMLQ9FRUAQG129R2TOB0,2,1
191,4,object_03,object_01,753.89999997616,8,2,436.0,0.7777777777777778,2,object_08,1,2369,0,6,7,restaurant_1,2,memory-2step-stake-s,683,2722132,0.0-19.0-0.1-0.191,AJFIMLAWP65TE,3X52SWXE10LAELCT6ESTJVPQIDRWCT,3OONKJ5DKGZMLQ9FRUAQG129R2TOB0,7,8
192,2,object_09,object_10,816.0,3,1,544.59999990463,0.8888888888888888,1,object_05,5,2409,0,8,6,forest_2,2,memory-2step-stake-s,684,2730702,0.0-19.0-0.1-0.192,AJFIMLAWP65TE,3X52SWXE10LAELCT6ESTJVPQIDRWCT,3OONKJ5DKGZMLQ9FRUAQG129R2TOB0,3,4
193,4,object_03,object_01,971.39999997616,7,1,646.89999997616,0.8888888888888888,1,object_05,5,2449,0,8,9,restaurant_7,2,memory-2step-stake-s,685,2739374,0.0-19.0-0.1-0.193,AJFIMLAWP65TE,3X52SWXE10LAELCT6ESTJVPQIDRWCT,3OONKJ5DKGZMLQ9FRUAQG129R2TOB0,7,8
194,3,object_07,object_04,940.20000004768,6,2,533.70000004768,1.0,2,object_08,1,2458,0,7,9,library_8,2,memory-2step-stake-s,686,2748035,0.0-19.0-0.1-0.194,AJFIMLAWP65TE,3X52SWXE10LAELCT6ESTJVPQIDRWCT,3OONKJ5DKGZMLQ9FRUAQG129R2TOB0,5,6
195,1,object_06,object_02,909.5,1,2,423.39999997616,0.6666666666666666,1,object_05,5,2488,0,6,8,desert_8,2,memory-2step-stake-s,687,2756284,0.0-19.0-0.1-0.195,AJFIMLAWP65TE,3X52SWXE10LAELCT6ESTJVPQIDRWCT,3OONKJ5DKGZMLQ9FRUAQG129R2TOB0,2,1
196,3,object_07,object_04,1199.1000000238,5,1,377.39999997616,0.7777777777777778,1,object_05,1,2495,0,7,6,library_7,2,memory-2step-stake-s,688,2764584,0.0-19.0-0.1-0.196,AJFIMLAWP65TE,3X52SWXE10LAELCT6ESTJVPQIDRWCT,3OONKJ5DKGZMLQ9FRUAQG129R2TOB0,5,6
197,4,object_03,object_01,774.29999995232,7,1,544.20000004768,0.7777777777777778,1,object_05,1,2502,0,7,6,restaurant_5,2,memory-2step-stake-s,689,2773056,0.0-19.0-0.1-0.197,AJFIMLAWP65TE,3X52SWXE10LAELCT6ESTJVPQIDRWCT,3OONKJ5DKGZMLQ9FRUAQG129R2TOB0,7,8
198,1,object_02,object_06,1166.6000000238,1,1,593.79999995232,0.7777777777777778,1,object_05,5,2537,0,7,6,desert_2,2,memory-2step-stake-s,690,2781574,0.0-19.0-0.1-0.198,AJFIMLAWP65TE,3X52SWXE10LAELCT6ESTJVPQIDRWCT,3OONKJ5DKGZMLQ9FRUAQG129R2TOB0,1,2
199,3,object_04,object_07,599.60000002384,5,2,313.70000004768,0.3333333333333333,1,object_05,1,2540,0,3,6,library_3,2,memory-2step-stake-s,691,2789409,0.0-19.0-0.1-0.199,AJFIMLAWP65TE,3X52SWXE10LAELCT6ESTJVPQIDRWCT,3OONKJ5DKGZMLQ9FRUAQG129R2TOB0,6,5
200,4,object_01,object_03,819.70000004768,7,2,373.80000007153,0.3333333333333333,1,object_05,5,2555,0,3,4,restaurant_2,2,memory-2step-stake-s,692,2797306,0.0-19.0-0.1-0.200,AJFIMLAWP65TE,3X52SWXE10LAELCT6ESTJVPQIDRWCT,3OONKJ5DKGZMLQ9FRUAQG129R2TOB0,8,7
201,3,object_04,object_07,748.79999995232,5,2,367.20000004768,0.3333333333333333,1,object_05,1,2558,0,3,3,library_7,2,memory-2step-stake-s,693,2805193,0.0-19.0-0.1-0.201,AJFIMLAWP65TE,3X52SWXE10LAELCT6ESTJVPQIDRWCT,3OONKJ5DKGZMLQ9FRUAQG129R2TOB0,6,5
202,2,object_10,object_09,941.20000004768,3,2,223.5,0.5555555555555556,1,object_05,1,2563,0,5,0,forest_6,2,memory-2step-stake-s,694,2813142,0.0-19.0-0.1-0.202,AJFIMLAWP65TE,3X52SWXE10LAELCT6ESTJVPQIDRWCT,3OONKJ5DKGZMLQ9FRUAQG129R2TOB0,4,3
203,2,object_10,object_09,671.10000002384,3,2,250.29999995232,0.4444444444444444,1,object_05,5,2583,0,4,3,forest_7,2,memory-2step-stake-s,695,2821014,0.0-19.0-0.1-0.203,AJFIMLAWP65TE,3X52SWXE10LAELCT6ESTJVPQIDRWCT,3OONKJ5DKGZMLQ9FRUAQG129R2TOB0,4,3
204,3,object_04,object_07,678.29999995232,5,2,829.89999997616,0.7777777777777778,1,object_05,1,2590,0,7,4,library_7,2,memory-2step-stake-s,696,2829776,0.0-19.0-0.1-0.204,AJFIMLAWP65TE,3X52SWXE10LAELCT6ESTJVPQIDRWCT,3OONKJ5DKGZMLQ9FRUAQG129R2TOB0,6,5
205,2,object_10,object_09,889.10000002384,3,2,227.39999997616,0.8888888888888888,1,object_05,5,2630,0,8,2,forest_1,2,memory-2step-stake-s,697,2838028,0.0-19.0-0.1-0.205,AJFIMLAWP65TE,3X52SWXE10LAELCT6ESTJVPQIDRWCT,3OONKJ5DKGZMLQ9FRUAQG129R2TOB0,4,3
206,1,object_02,object_06,614.70000004768,1,1,345.5,0.8888888888888888,1,object_05,5,2670,0,8,1,desert_2,2,memory-2step-stake-s,698,2846405,0.0-19.0-0.1-0.206,AJFIMLAWP65TE,3X52SWXE10LAELCT6ESTJVPQIDRWCT,3OONKJ5DKGZMLQ9FRUAQG129R2TOB0,1,2
207,3,object_04,object_07,832.79999995232,5,2,258.69999992847,0.8888888888888888,1,object_05,5,2710,0,8,0,library_4,2,memory-2step-stake-s,699,2854691,0.0-19.0-0.1-0.207,AJFIMLAWP65TE,3X52SWXE10LAELCT6ESTJVPQIDRWCT,3OONKJ5DKGZMLQ9FRUAQG129R2TOB0,6,5
208,2,object_10,object_09,650.90000009537,4,1,332.5,0.2222222222222222,2,object_08,5,2720,0,6,2,forest_1,2,memory-2step-stake-s,700,2862444,0.0-19.0-0.1-0.208,AJFIMLAWP65TE,3X52SWXE10LAELCT6ESTJVPQIDRWCT,3OONKJ5DKGZMLQ9FRUAQG129R2TOB0,4,3
209,1,object_06,object_02,544.20000004768,1,2,361.69999992847,1.0,1,object_05,1,2729,0,9,3,desert_2,2,memory-2step-stake-s,701,2870936,0.0-19.0-0.1-0.209,AJFIMLAWP65TE,3X52SWXE10LAELCT6ESTJVPQIDRWCT,3OONKJ5DKGZMLQ9FRUAQG129R2TOB0,2,1
210,2,object_09,object_10,1020.6000000238,3,1,347.79999995232,0.5555555555555556,1,object_05,5,2754,0,5,3,forest_1,2,memory-2step-stake-s,702,2879012,0.0-19.0-0.1-0.210,AJFIMLAWP65TE,3X52SWXE10LAELCT6ESTJVPQIDRWCT,3OONKJ5DKGZMLQ9FRUAQG129R2TOB0,3,4
211,4,object_03,object_01,870.70000004768,7,1,470.39999997616,0.4444444444444444,1,object_05,1,2758,0,4,3,restaurant_7,2,memory-2step-stake-s,703,2887107,0.0-19.0-0.1-0.211,AJFIMLAWP65TE,3X52SWXE10LAELCT6ESTJVPQIDRWCT,3OONKJ5DKGZMLQ9FRUAQG129R2TOB0,7,8
212,1,object_06,object_02,646.70000004768,1,2,638.60000002384,0.6666666666666666,1,object_05,5,2788,0,6,1,desert_1,2,memory-2step-stake-s,704,2895578,0.0-19.0-0.1-0.212,AJFIMLAWP65TE,3X52SWXE10LAELCT6ESTJVPQIDRWCT,3OONKJ5DKGZMLQ9FRUAQG129R2TOB0,2,1
213,4,object_03,object_01,823.19999992847,7,1,672.30000007153,0.8888888888888888,1,object_05,1,2796,0,8,4,restaurant_1,2,memory-2step-stake-s,705,2904284,0.0-19.0-0.1-0.213,AJFIMLAWP65TE,3X52SWXE10LAELCT6ESTJVPQIDRWCT,3OONKJ5DKGZMLQ9FRUAQG129R2TOB0,7,8
214,1,object_02,object_06,735.20000004768,1,1,745.60000002384,0.8888888888888888,1,object_05,5,2836,0,8,3,desert_7,2,memory-2step-stake-s,706,2913055,0.0-19.0-0.1-0.214,AJFIMLAWP65TE,3X52SWXE10LAELCT6ESTJVPQIDRWCT,3OONKJ5DKGZMLQ9FRUAQG129R2TOB0,1,2
215,3,object_07,object_04,736.29999995232,5,1,440.10000002384,0.7777777777777778,1,object_05,1,2843,0,7,2,library_7,2,memory-2step-stake-s,707,2921432,0.0-19.0-0.1-0.215,AJFIMLAWP65TE,3X52SWXE10LAELCT6ESTJVPQIDRWCT,3OONKJ5DKGZMLQ9FRUAQG129R2TOB0,5,6
216,3,object_07,object_04,801.40000009537,5,1,537.89999997616,0.8888888888888888,1,object_05,1,2851,0,8,4,library_8,2,memory-2step-stake-s,708,2930005,0.0-19.0-0.1-0.216,AJFIMLAWP65TE,3X52SWXE10LAELCT6ESTJVPQIDRWCT,3OONKJ5DKGZMLQ9FRUAQG129R2TOB0,5,6
217,4,object_01,object_03,734.30000007153,7,2,774.69999992847,0.8888888888888888,1,object_05,1,2859,0,8,5,restaurant_5,2,memory-2step-stake-s,709,2938809,0.0-19.0-0.1-0.217,AJFIMLAWP65TE,3X52SWXE10LAELCT6ESTJVPQIDRWCT,3OONKJ5DKGZMLQ9FRUAQG129R2TOB0,8,7
218,2,object_09,object_10,868.39999997616,3,1,443.30000007153,0.8888888888888888,1,object_05,1,2867,0,8,7,forest_6,2,memory-2step-stake-s,710,2947281,0.0-19.0-0.1-0.218,AJFIMLAWP65TE,3X52SWXE10LAELCT6ESTJVPQIDRWCT,3OONKJ5DKGZMLQ9FRUAQG129R2TOB0,3,4
219,3,object_04,object_07,779.0,5,2,-1.0,0.0,1,object_05,1,2867,0,7,6,library_8,2,memory-2step-stake-s,711,2955796,0.0-19.0-0.1-0.219,AJFIMLAWP65TE,3X52SWXE10LAELCT6ESTJVPQIDRWCT,3OONKJ5DKGZMLQ9FRUAQG129R2TOB0,6,5
220,4,object_03,object_01,672.5,7,1,650.89999997616,0.7777777777777778,1,object_05,1,2874,0,7,4,restaurant_2,2,memory-2step-stake-s,712,2964374,0.0-19.0-0.1-0.220,AJFIMLAWP65TE,3X52SWXE10LAELCT6ESTJVPQIDRWCT,3OONKJ5DKGZMLQ9FRUAQG129R2TOB0,7,8
221,2,object_10,object_09,769.80000007153,4,1,315.79999995232,0.3333333333333333,2,object_08,1,2877,0,5,3,forest_7,2,memory-2step-stake-s,713,2972216,0.0-19.0-0.1-0.221,AJFIMLAWP65TE,3X52SWXE10LAELCT6ESTJVPQIDRWCT,3OONKJ5DKGZMLQ9FRUAQG129R2TOB0,4,3
222,3,object_07,object_04,590.59999990463,6,2,582.0,0.4444444444444444,2,object_08,5,2897,0,3,4,library_7,2,memory-2step-stake-s,714,2980430,0.0-19.0-0.1-0.222,AJFIMLAWP65TE,3X52SWXE10LAELCT6ESTJVPQIDRWCT,3OONKJ5DKGZMLQ9FRUAQG129R2TOB0,5,6
223,1,object_06,object_02,569.5,1,2,705.70000004768,0.5555555555555556,1,object_05,5,2922,0,5,2,desert_8,2,memory-2step-stake-s,715,2988866,0.0-19.0-0.1-0.223,AJFIMLAWP65TE,3X52SWXE10LAELCT6ESTJVPQIDRWCT,3OONKJ5DKGZMLQ9FRUAQG129R2TOB0,2,1
224,4,object_03,object_01,743.60000002384,7,1,735.30000007153,0.6666666666666666,1,object_05,1,2928,0,6,5,restaurant_7,2,memory-2step-stake-s,716,2997429,0.0-19.0-0.1-0.224,AJFIMLAWP65TE,3X52SWXE10LAELCT6ESTJVPQIDRWCT,3OONKJ5DKGZMLQ9FRUAQG129R2TOB0,7,8
225,4,object_03,object_01,787.10000002384,7,1,716.39999997616,0.8888888888888888,1,object_05,1,2936,0,8,7,restaurant_7,2,memory-2step-stake-s,717,3006180,0.0-19.0-0.1-0.225,AJFIMLAWP65TE,3X52SWXE10LAELCT6ESTJVPQIDRWCT,3OONKJ5DKGZMLQ9FRUAQG129R2TOB0,7,8
226,2,object_10,object_09,1147.6000000238,3,2,510.0,0.7777777777777778,1,object_05,5,2971,0,7,5,forest_1,2,memory-2step-stake-s,718,3014625,0.0-19.0-0.1-0.226,AJFIMLAWP65TE,3X52SWXE10LAELCT6ESTJVPQIDRWCT,3OONKJ5DKGZMLQ9FRUAQG129R2TOB0,4,3
227,3,object_07,object_04,822.19999992847,5,1,743.10000002384,0.8888888888888888,1,object_05,5,3011,0,8,5,library_4,2,memory-2step-stake-s,719,3023407,0.0-19.0-0.1-0.227,AJFIMLAWP65TE,3X52SWXE10LAELCT6ESTJVPQIDRWCT,3OONKJ5DKGZMLQ9FRUAQG129R2TOB0,5,6
228,4,object_01,object_03,849.0,7,2,650.10000002384,0.8888888888888888,1,object_05,5,3051,0,8,5,restaurant_1,2,memory-2step-stake-s,720,3032093,0.0-19.0-0.1-0.228,AJFIMLAWP65TE,3X52SWXE10LAELCT6ESTJVPQIDRWCT,3OONKJ5DKGZMLQ9FRUAQG129R2TOB0,8,7
229,2,object_09,object_10,807.10000002384,3,1,639.0,0.4444444444444444,1,object_05,5,3071,0,4,7,forest_7,2,memory-2step-stake-s,721,3040359,0.0-19.0-0.1-0.229,AJFIMLAWP65TE,3X52SWXE10LAELCT6ESTJVPQIDRWCT,3OONKJ5DKGZMLQ9FRUAQG129R2TOB0,3,4
230,4,object_03,object_01,593.60000002384,7,1,556.0,0.1111111111111111,1,object_05,1,3072,0,1,8,restaurant_5,2,memory-2step-stake-s,722,3048239,0.0-19.0-0.1-0.230,AJFIMLAWP65TE,3X52SWXE10LAELCT6ESTJVPQIDRWCT,3OONKJ5DKGZMLQ9FRUAQG129R2TOB0,7,8
231,1,object_06,object_02,610.29999995232,1,2,-1.0,0.0,1,object_05,5,3072,0,1,8,desert_1,2,memory-2step-stake-s,723,3056761,0.0-19.0-0.1-0.231,AJFIMLAWP65TE,3X52SWXE10LAELCT6ESTJVPQIDRWCT,3OONKJ5DKGZMLQ9FRUAQG129R2TOB0,2,1
232,3,object_07,object_04,887.10000002384,6,2,479.80000007153,0.7777777777777778,2,object_08,1,3079,0,2,7,library_3,2,memory-2step-stake-s,724,3065178,0.0-19.0-0.1-0.232,AJFIMLAWP65TE,3X52SWXE10LAELCT6ESTJVPQIDRWCT,3OONKJ5DKGZMLQ9FRUAQG129R2TOB0,5,6
233,3,object_07,object_04,608.80000007153,6,2,26.0,0.7777777777777778,2,object_08,1,3086,0,1,7,library_8,2,memory-2step-stake-s,725,3073139,0.0-19.0-0.1-0.233,AJFIMLAWP65TE,3X52SWXE10LAELCT6ESTJVPQIDRWCT,3OONKJ5DKGZMLQ9FRUAQG129R2TOB0,5,6
234,3,object_04,object_07,732.19999992847,5,2,502.19999992847,0.1111111111111111,1,object_05,1,3087,0,1,6,library_4,2,memory-2step-stake-s,726,3080962,0.0-19.0-0.1-0.234,AJFIMLAWP65TE,3X52SWXE10LAELCT6ESTJVPQIDRWCT,3OONKJ5DKGZMLQ9FRUAQG129R2TOB0,6,5
235,4,object_01,object_03,698.89999997616,8,1,265.79999995232,1.0,2,object_08,1,3096,0,1,9,restaurant_7,2,memory-2step-stake-s,727,3089364,0.0-19.0-0.1-0.235,AJFIMLAWP65TE,3X52SWXE10LAELCT6ESTJVPQIDRWCT,3OONKJ5DKGZMLQ9FRUAQG129R2TOB0,8,7
236,1,object_02,object_06,826.29999995232,2,2,234.5,1.0,2,object_08,5,3141,0,1,9,desert_7,2,memory-2step-stake-s,728,3097733,0.0-19.0-0.1-0.236,AJFIMLAWP65TE,3X52SWXE10LAELCT6ESTJVPQIDRWCT,3OONKJ5DKGZMLQ9FRUAQG129R2TOB0,1,2
237,1,object_02,object_06,784.0,2,2,694.5,0.7777777777777778,2,object_08,5,3176,0,0,7,desert_1,2,memory-2step-stake-s,729,3106363,0.0-19.0-0.1-0.237,AJFIMLAWP65TE,3X52SWXE10LAELCT6ESTJVPQIDRWCT,3OONKJ5DKGZMLQ9FRUAQG129R2TOB0,1,2
238,1,object_06,object_02,593.39999997616,2,1,290.89999997616,0.8888888888888888,2,object_08,1,3184,0,2,8,desert_7,2,memory-2step-stake-s,730,3114690,0.0-19.0-0.1-0.238,AJFIMLAWP65TE,3X52SWXE10LAELCT6ESTJVPQIDRWCT,3OONKJ5DKGZMLQ9FRUAQG129R2TOB0,2,1
239,1,object_06,object_02,879.29999995232,2,1,318.5,0.8888888888888888,2,object_08,5,3224,0,0,8,desert_8,2,memory-2step-stake-s,731,3123052,0.0-19.0-0.1-0.239,AJFIMLAWP65TE,3X52SWXE10LAELCT6ESTJVPQIDRWCT,3OONKJ5DKGZMLQ9FRUAQG129R2TOB0,2,1
240,4,object_03,object_01,873.89999997616,8,2,322.60000002384,0.7777777777777778,2,object_08,1,3231,0,0,7,restaurant_1,2,memory-2step-stake-s,732,3131311,0.0-19.0-0.1-0.240,AJFIMLAWP65TE,3X52SWXE10LAELCT6ESTJVPQIDRWCT,3OONKJ5DKGZMLQ9FRUAQG129R2TOB0,7,8
241,3,object_07,object_04,1085.2999999523,6,2,270.10000002384,0.4444444444444444,2,object_08,5,3251,0,0,4,library_8,2,memory-2step-stake-s,733,3139203,0.0-19.0-0.1-0.241,AJFIMLAWP65TE,3X52SWXE10LAELCT6ESTJVPQIDRWCT,3OONKJ5DKGZMLQ9FRUAQG129R2TOB0,5,6
242,3,object_04,object_07,1384.6000000238,6,1,447.29999995232,0.4444444444444444,2,object_08,1,3255,0,0,4,library_4,2,memory-2step-stake-s,734,3147272,0.0-19.0-0.1-0.242,AJFIMLAWP65TE,3X52SWXE10LAELCT6ESTJVPQIDRWCT,3OONKJ5DKGZMLQ9FRUAQG129R2TOB0,6,5
243,3,object_07,object_04,724.29999995232,5,1,390.20000004768,0.1111111111111111,1,object_05,1,3256,0,1,1,library_7,2,memory-2step-stake-s,735,3154978,0.0-19.0-0.1-0.243,AJFIMLAWP65TE,3X52SWXE10LAELCT6ESTJVPQIDRWCT,3OONKJ5DKGZMLQ9FRUAQG129R2TOB0,5,6
244,1,object_06,object_02,778.10000002384,2,1,322.10000002384,0.1111111111111111,2,object_08,5,3261,0,1,1,desert_7,2,memory-2step-stake-s,736,3162628,0.0-19.0-0.1-0.244,AJFIMLAWP65TE,3X52SWXE10LAELCT6ESTJVPQIDRWCT,3OONKJ5DKGZMLQ9FRUAQG129R2TOB0,2,1
245,1,object_02,object_06,777.19999992847,2,2,56.199999928474,0.1111111111111111,2,object_08,1,3262,0,1,1,desert_1,2,memory-2step-stake-s,737,3170012,0.0-19.0-0.1-0.245,AJFIMLAWP65TE,3X52SWXE10LAELCT6ESTJVPQIDRWCT,3OONKJ5DKGZMLQ9FRUAQG129R2TOB0,1,2
246,1,object_06,object_02,985.39999997616,1,2,259.20000004768,0.0,1,object_05,5,3262,0,0,1,desert_2,2,memory-2step-stake-s,738,3177495,0.0-19.0-0.1-0.246,AJFIMLAWP65TE,3X52SWXE10LAELCT6ESTJVPQIDRWCT,3OONKJ5DKGZMLQ9FRUAQG129R2TOB0,2,1
247,4,object_01,object_03,1141.3999999762,7,2,581.70000004768,0.1111111111111111,1,object_05,1,3263,0,1,3,restaurant_2,2,memory-2step-stake-s,739,3185407,0.0-19.0-0.1-0.247,AJFIMLAWP65TE,3X52SWXE10LAELCT6ESTJVPQIDRWCT,3OONKJ5DKGZMLQ9FRUAQG129R2TOB0,8,7
248,3,object_04,object_07,1258.5,5,2,482.69999992847,0.1111111111111111,1,object_05,5,3268,0,1,4,library_3,2,memory-2step-stake-s,740,3193214,0.0-19.0-0.1-0.248,AJFIMLAWP65TE,3X52SWXE10LAELCT6ESTJVPQIDRWCT,3OONKJ5DKGZMLQ9FRUAQG129R2TOB0,6,5
249,2,object_09,object_10,582.90000009537,3,1,279.59999990463,0.2222222222222222,1,object_05,5,3278,0,2,2,forest_2,2,memory-2step-stake-s,741,3200914,0.0-19.0-0.1-0.249,AJFIMLAWP65TE,3X52SWXE10LAELCT6ESTJVPQIDRWCT,3OONKJ5DKGZMLQ9FRUAQG129R2TOB0,3,4
250,2,object_10,object_09,379.0,3,2,195.5,0.0,1,object_05,5,3278,0,0,2,forest_7,2,memory-2step-stake-s,742,3208334,0.0-19.0-0.1-0.250,AJFIMLAWP65TE,3X52SWXE10LAELCT6ESTJVPQIDRWCT,3OONKJ5DKGZMLQ9FRUAQG129R2TOB0,4,3
251,3,object_07,object_04,471.10000002384,5,1,219.19999992847,0.1111111111111111,1,object_05,1,3279,0,1,1,library_4,2,memory-2step-stake-s,743,3215870,0.0-19.0-0.1-0.251,AJFIMLAWP65TE,3X52SWXE10LAELCT6ESTJVPQIDRWCT,3OONKJ5DKGZMLQ9FRUAQG129R2TOB0,5,6
252,3,object_04,object_07,686.29999995232,5,2,-1.0,0.0,1,object_05,1,3279,0,2,0,library_7,2,memory-2step-stake-s,744,3224389,0.0-19.0-0.1-0.252,AJFIMLAWP65TE,3X52SWXE10LAELCT6ESTJVPQIDRWCT,3OONKJ5DKGZMLQ9FRUAQG129R2TOB0,6,5
253,3,object_04,object_07,421.19999992847,5,2,238.79999995232,0.0,1,object_05,1,3279,0,0,1,library_7,2,memory-2step-stake-s,745,3231848,0.0-19.0-0.1-0.253,AJFIMLAWP65TE,3X52SWXE10LAELCT6ESTJVPQIDRWCT,3OONKJ5DKGZMLQ9FRUAQG129R2TOB0,6,5
254,4,object_03,object_01,891.89999997616,8,2,255.5,0.2222222222222222,2,object_08,1,3281,0,1,2,restaurant_2,2,memory-2step-stake-s,746,3239523,0.0-19.0-0.1-0.254,AJFIMLAWP65TE,3X52SWXE10LAELCT6ESTJVPQIDRWCT,3OONKJ5DKGZMLQ9FRUAQG129R2TOB0,7,8
255,3,object_07,object_04,794.89999997616,6,2,42.400000095367,0.2222222222222222,2,object_08,5,3291,0,4,2,library_3,2,memory-2step-stake-s,747,3246997,0.0-19.0-0.1-0.255,AJFIMLAWP65TE,3X52SWXE10LAELCT6ESTJVPQIDRWCT,3OONKJ5DKGZMLQ9FRUAQG129R2TOB0,5,6
