,state1,stim_left,stim_right,rt_1,choice1,response1,rt_2,points,state2,stim_state2,stake,score,practice,rews1,rews2,background,high_arm,trial_type,trial_index,time_elapsed,internal_node_id,subid,hitid,assignmentid,stim_left_num,stim_right_num
0,4,object_01,object_10,787.0,8,2,849.0,0.1111111111111111,2,object_05,5,5,0,7,1,restaurant_7,1,memory-2step-stake-s,493,836165,0.0-19.0-0.0-0.0,A2WNTI69VVVWMZ,3QGHA0EA1MGR4GKNSEWY8BJ80SRWBM,37UQDCYH61BU9YFMFPKO6RAL45WV7K,7,8
1,1,object_02,object_07,773.0,2,2,777.0,0.3333333333333333,2,object_05,5,20,0,4,3,desert_2,1,memory-2step-stake-s,494,844455,0.0-19.0-0.0-0.1,A2WNTI69VVVWMZ,3QGHA0EA1MGR4GKNSEWY8BJ80SRWBM,37UQDCYH61BU9YFMFPKO6RAL45WV7K,1,2
2,4,object_01,object_10,641.0,7,1,430.0,0.3333333333333333,1,object_09,5,35,0,3,3,restaurant_3,1,memory-2step-stake-s,495,852397,0.0-19.0-0.0-0.2,A2WNTI69VVVWMZ,3QGHA0EA1MGR4GKNSEWY8BJ80SRWBM,37UQDCYH61BU9YFMFPKO6RAL45WV7K,7,8
3,2,object_03,object_08,782.0,4,2,618.0,0.3333333333333333,2,object_05,1,38,0,1,3,forest_4,1,memory-2step-stake-s,496,860524,0.0-19.0-0.0-0.3,A2WNTI69VVVWMZ,3QGHA0EA1MGR4GKNSEWY8BJ80SRWBM,37UQDCYH61BU9YFMFPKO6RAL45WV7K,3,4
4,3,object_04,object_06,400.0,6,1,477.0,0.4444444444444444,2,object_05,5,58,0,3,4,library_4,1,memory-2step-stake-s,497,868609,0.0-19.0-0.0-0.4,A2WNTI69VVVWMZ,3QGHA0EA1MGR4GKNSEWY8BJ80SRWBM,37UQDCYH61BU9YFMFPKO6RAL45WV7K,6,5
5,1,object_02,object_07,458.0,2,2,296.0,0.3333333333333333,2,object_05,1,61,0,1,3,desert_2,1,memory-2step-stake-s,498,876411,0.0-19.0-0.0-0.5,A2WNTI69VVVWMZ,3QGHA0EA1MGR4GKNSEWY8BJ80SRWBM,37UQDCYH61BU9YFMFPKO6RAL45WV7K,1,2
6,4,object_10,object_01,669.0,7,2,440.0,0.5555555555555556,1,object_09,5,86,0,5,3,restaurant_3,1,memory-2step-stake-s,499,884565,0.0-19.0-0.0-0.6,A2WNTI69VVVWMZ,3QGHA0EA1MGR4GKNSEWY8BJ80SRWBM,37UQDCYH61BU9YFMFPKO6RAL45WV7K,8,7
7,2,object_03,object_08,796.0,3,1,386.0,0.3333333333333333,1,object_09,1,89,0,3,4,forest_4,1,memory-2step-stake-s,500,892459,0.0-19.0-0.0-0.7,A2WNTI69VVVWMZ,3QGHA0EA1MGR4GKNSEWY8BJ80SRWBM,37UQDCYH61BU9YFMFPKO6RAL45WV7K,3,4
8,1,object_02,object_07,598.0,1,1,371.0,0.5555555555555556,1,object_09,1,94,0,5,2,desert_6,1,memory-2step-stake-s,501,900543,0.0-19.0-0.0-0.8,A2WNTI69VVVWMZ,3QGHA0EA1MGR4GKNSEWY8BJ80SRWBM,37UQDCYH61BU9YFMFPKO6RAL45WV7K,1,2
9,1,object_07,object_02,688.0,1,2,321.0,0.5555555555555556,1,object_09,1,99,0,5,0,desert_6,1,memory-2step-stake-s,502,908575,0.0-19.0-0.0-0.9,A2WNTI69VVVWMZ,3QGHA0EA1MGR4GKNSEWY8BJ80SRWBM,37UQDCYH61BU9YFMFPKO6RAL45WV7K,2,1
10,3,object_04,object_06,626.0,6,1,286.0,0.1111111111111111,2,object_05,5,104,0,4,1,library_8,1,memory-2step-stake-s,503,916171,0.0-19.0-0.0-0.10,A2WNTI69VVVWMZ,3QGHA0EA1MGR4GKNSEWY8BJ80SRWBM,37UQDCYH61BU9YFMFPKO6RAL45WV7K,6,5
11,2,object_08,object_03,637.0,3,2,435.0,0.3333333333333333,1,object_09,1,107,0,3,3,forest_6,1,memory-2step-stake-s,504,924113,0.0-19.0-0.0-0.11,A2WNTI69VVVWMZ,3QGHA0EA1MGR4GKNSEWY8BJ80SRWBM,37UQDCYH61BU9YFMFPKO6RAL45WV7K,4,3
12,3,object_04,object_06,415.0,6,1,331.0,0.6666666666666666,2,object_05,5,137,0,3,6,library_4,1,memory-2step-stake-s,505,932257,0.0-19.0-0.0-0.12,A2WNTI69VVVWMZ,3QGHA0EA1MGR4GKNSEWY8BJ80SRWBM,37UQDCYH61BU9YFMFPKO6RAL45WV7K,6,5
13,1,object_02,object_07,687.0,1,1,309.0,0.2222222222222222,1,object_09,1,139,0,2,2,desert_4,1,memory-2step-stake-s,506,939974,0.0-19.0-0.0-0.13,A2WNTI69VVVWMZ,3QGHA0EA1MGR4GKNSEWY8BJ80SRWBM,37UQDCYH61BU9YFMFPKO6RAL45WV7K,1,2
14,4,object_01,object_10,563.0,8,2,304.0,0.0,2,object_05,5,139,0,4,0,restaurant_4,1,memory-2step-stake-s,507,947483,0.0-19.0-0.0-0.14,A2WNTI69VVVWMZ,3QGHA0EA1MGR4GKNSEWY8BJ80SRWBM,37UQDCYH61BU9YFMFPKO6RAL45WV7K,7,8
15,4,object_10,object_01,676.0,7,2,273.0,0.6666666666666666,1,object_09,5,169,0,6,2,restaurant_4,1,memory-2step-stake-s,508,955571,0.0-19.0-0.0-0.15,A2WNTI69VVVWMZ,3QGHA0EA1MGR4GKNSEWY8BJ80SRWBM,37UQDCYH61BU9YFMFPKO6RAL45WV7K,8,7
16,1,object_02,object_07,828.0,1,1,337.0,0.7777777777777778,1,object_09,1,176,0,7,6,desert_2,1,memory-2step-stake-s,509,963823,0.0-19.0-0.0-0.16,A2WNTI69VVVWMZ,3QGHA0EA1MGR4GKNSEWY8BJ80SRWBM,37UQDCYH61BU9YFMFPKO6RAL45WV7K,1,2
17,4,object_10,object_01,879.0,7,2,341.0,1.0,1,object_09,5,221,0,9,7,restaurant_4,1,memory-2step-stake-s,510,972278,0.0-19.0-0.0-0.17,A2WNTI69VVVWMZ,3QGHA0EA1MGR4GKNSEWY8BJ80SRWBM,37UQDCYH61BU9YFMFPKO6RAL45WV7K,8,7
18,2,object_03,object_08,714.0,3,1,350.0,0.7777777777777778,1,object_09,1,228,0,7,2,forest_2,1,memory-2step-stake-s,511,980541,0.0-19.0-0.0-0.18,A2WNTI69VVVWMZ,3QGHA0EA1MGR4GKNSEWY8BJ80SRWBM,37UQDCYH61BU9YFMFPKO6RAL45WV7K,3,4
19,4,object_01,object_10,913.0,7,1,295.0,0.6666666666666666,1,object_09,5,258,0,6,6,restaurant_7,1,memory-2step-stake-s,512,988646,0.0-19.0-0.0-0.19,A2WNTI69VVVWMZ,3QGHA0EA1MGR4GKNSEWY8BJ80SRWBM,37UQDCYH61BU9YFMFPKO6RAL45WV7K,7,8
20,1,object_07,object_02,712.0,1,2,395.0,0.3333333333333333,1,object_09,1,261,0,3,6,desert_1,1,memory-2step-stake-s,513,996555,0.0-19.0-0.0-0.20,A2WNTI69VVVWMZ,3QGHA0EA1MGR4GKNSEWY8BJ80SRWBM,37UQDCYH61BU9YFMFPKO6RAL45WV7K,2,1
21,4,object_10,object_01,644.0,7,2,306.0,0.0,1,object_09,5,261,0,0,2,restaurant_7,1,memory-2step-stake-s,514,1004066,0.0-19.0-0.0-0.21,A2WNTI69VVVWMZ,3QGHA0EA1MGR4GKNSEWY8BJ80SRWBM,37UQDCYH61BU9YFMFPKO6RAL45WV7K,8,7
22,3,object_04,object_06,876.0,6,1,424.0,0.2222222222222222,2,object_05,5,271,0,2,2,library_4,1,memory-2step-stake-s,515,1011901,0.0-19.0-0.0-0.22,A2WNTI69VVVWMZ,3QGHA0EA1MGR4GKNSEWY8BJ80SRWBM,37UQDCYH61BU9YFMFPKO6RAL45WV7K,6,5
23,4,object_10,object_01,753.0,8,1,303.0,0.3333333333333333,2,object_05,5,286,0,2,3,restaurant_7,1,memory-2step-stake-s,516,1019710,0.0-19.0-0.0-0.23,A2WNTI69VVVWMZ,3QGHA0EA1MGR4GKNSEWY8BJ80SRWBM,37UQDCYH61BU9YFMFPKO6RAL45WV7K,8,7
24,1,object_02,object_07,737.0,2,2,293.0,0.2222222222222222,2,object_05,5,296,0,8,2,desert_2,1,memory-2step-stake-s,517,1027411,0.0-19.0-0.0-0.24,A2WNTI69VVVWMZ,3QGHA0EA1MGR4GKNSEWY8BJ80SRWBM,37UQDCYH61BU9YFMFPKO6RAL45WV7K,1,2
25,2,object_08,object_03,755.0,3,2,383.0,0.7777777777777778,1,object_09,1,303,0,7,1,forest_2,1,memory-2step-stake-s,518,1035706,0.0-19.0-0.0-0.25,A2WNTI69VVVWMZ,3QGHA0EA1MGR4GKNSEWY8BJ80SRWBM,37UQDCYH61BU9YFMFPKO6RAL45WV7K,4,3
26,3,object_04,object_06,804.0,5,2,394.0,0.7777777777777778,1,object_09,1,310,0,7,2,library_1,1,memory-2step-stake-s,519,1044010,0.0-19.0-0.0-0.26,A2WNTI69VVVWMZ,3QGHA0EA1MGR4GKNSEWY8BJ80SRWBM,37UQDCYH61BU9YFMFPKO6RAL45WV7K,6,5
27,4,object_10,object_01,923.0,7,2,553.0,0.8888888888888888,1,object_09,5,350,0,8,1,restaurant_5,1,memory-2step-stake-s,520,1052575,0.0-19.0-0.0-0.27,A2WNTI69VVVWMZ,3QGHA0EA1MGR4GKNSEWY8BJ80SRWBM,37UQDCYH61BU9YFMFPKO6RAL45WV7K,8,7
28,4,object_01,object_10,615.0,7,1,540.0,0.7777777777777778,1,object_09,1,357,0,7,1,restaurant_4,1,memory-2step-stake-s,521,1061027,0.0-19.0-0.0-0.28,A2WNTI69VVVWMZ,3QGHA0EA1MGR4GKNSEWY8BJ80SRWBM,37UQDCYH61BU9YFMFPKO6RAL45WV7K,7,8
29,2,object_03,object_08,1051.0,3,1,425.0,0.5555555555555556,1,object_09,5,382,0,5,0,forest_2,1,memory-2step-stake-s,522,1069159,0.0-19.0-0.0-0.29,A2WNTI69VVVWMZ,3QGHA0EA1MGR4GKNSEWY8BJ80SRWBM,37UQDCYH61BU9YFMFPKO6RAL45WV7K,3,4
30,3,object_06,object_04,1431.0,6,2,516.0,0.1111111111111111,2,object_05,5,387,0,4,1,library_1,1,memory-2step-stake-s,523,1076980,0.0-19.0-0.0-0.30,A2WNTI69VVVWMZ,3QGHA0EA1MGR4GKNSEWY8BJ80SRWBM,37UQDCYH61BU9YFMFPKO6RAL45WV7K,5,6
31,1,object_02,object_07,759.0,1,1,419.0,0.6666666666666666,1,object_09,5,417,0,6,5,desert_4,1,memory-2step-stake-s,524,1085211,0.0-19.0-0.0-0.31,A2WNTI69VVVWMZ,3QGHA0EA1MGR4GKNSEWY8BJ80SRWBM,37UQDCYH61BU9YFMFPKO6RAL45WV7K,1,2
32,1,object_07,object_02,866.0,1,2,494.0,0.8888888888888888,1,object_09,1,425,0,8,7,desert_2,1,memory-2step-stake-s,525,1093722,0.0-19.0-0.0-0.32,A2WNTI69VVVWMZ,3QGHA0EA1MGR4GKNSEWY8BJ80SRWBM,37UQDCYH61BU9YFMFPKO6RAL45WV7K,2,1
33,4,object_01,object_10,682.0,7,1,536.0,0.5555555555555556,1,object_09,5,450,0,5,7,restaurant_7,1,memory-2step-stake-s,526,1101968,0.0-19.0-0.0-0.33,A2WNTI69VVVWMZ,3QGHA0EA1MGR4GKNSEWY8BJ80SRWBM,37UQDCYH61BU9YFMFPKO6RAL45WV7K,7,8
34,4,object_10,object_01,651.0,7,2,329.0,0.4444444444444444,1,object_09,5,470,0,4,8,restaurant_3,1,memory-2step-stake-s,527,1109907,0.0-19.0-0.0-0.34,A2WNTI69VVVWMZ,3QGHA0EA1MGR4GKNSEWY8BJ80SRWBM,37UQDCYH61BU9YFMFPKO6RAL45WV7K,8,7
35,2,object_03,object_08,904.0,3,1,439.0,0.2222222222222222,1,object_09,1,472,0,2,9,forest_2,1,memory-2step-stake-s,528,1117754,0.0-19.0-0.0-0.35,A2WNTI69VVVWMZ,3QGHA0EA1MGR4GKNSEWY8BJ80SRWBM,37UQDCYH61BU9YFMFPKO6RAL45WV7K,3,4
36,4,object_01,object_10,905.0,8,2,318.0,0.7777777777777778,2,object_05,1,479,0,2,7,restaurant_7,1,memory-2step-stake-s,529,1125983,0.0-19.0-0.0-0.36,A2WNTI69VVVWMZ,3QGHA0EA1MGR4GKNSEWY8BJ80SRWBM,37UQDCYH61BU9YFMFPKO6RAL45WV7K,7,8
37,3,object_04,object_06,828.0,5,2,347.0,0.4444444444444444,1,object_09,5,499,0,4,8,library_8,1,memory-2step-stake-s,530,1133939,0.0-19.0-0.0-0.37,A2WNTI69VVVWMZ,3QGHA0EA1MGR4GKNSEWY8BJ80SRWBM,37UQDCYH61BU9YFMFPKO6RAL45WV7K,6,5
38,2,object_03,object_08,872.0,4,2,302.0,0.7777777777777778,2,object_05,5,534,0,4,7,forest_4,1,memory-2step-stake-s,531,1142152,0.0-19.0-0.0-0.38,A2WNTI69VVVWMZ,3QGHA0EA1MGR4GKNSEWY8BJ80SRWBM,37UQDCYH61BU9YFMFPKO6RAL45WV7K,3,4
39,4,object_01,object_10,1121.0,8,2,1494.0,0.5555555555555556,2,object_05,5,559,0,4,5,restaurant_5,1,memory-2step-stake-s,532,1151359,0.0-19.0-0.0-0.39,A2WNTI69VVVWMZ,3QGHA0EA1MGR4GKNSEWY8BJ80SRWBM,37UQDCYH61BU9YFMFPKO6RAL45WV7K,7,8
40,1,object_02,object_07,901.0,2,2,640.0,0.5555555555555556,2,object_05,5,584,0,4,5,desert_1,1,memory-2step-stake-s,533,1159711,0.0-19.0-0.0-0.40,A2WNTI69VVVWMZ,3QGHA0EA1MGR4GKNSEWY8BJ80SRWBM,37UQDCYH61BU9YFMFPKO6RAL45WV7K,1,2
41,2,object_03,object_08,859.0,4,2,439.0,0.8888888888888888,2,object_05,1,592,0,1,8,forest_8,1,memory-2step-stake-s,534,1168163,0.0-19.0-0.0-0.41,A2WNTI69VVVWMZ,3QGHA0EA1MGR4GKNSEWY8BJ80SRWBM,37UQDCYH61BU9YFMFPKO6RAL45WV7K,3,4
42,1,object_07,object_02,973.0,1,2,331.0,0.2222222222222222,1,object_09,1,594,0,2,7,desert_1,1,memory-2step-stake-s,535,1175902,0.0-19.0-0.0-0.42,A2WNTI69VVVWMZ,3QGHA0EA1MGR4GKNSEWY8BJ80SRWBM,37UQDCYH61BU9YFMFPKO6RAL45WV7K,2,1
43,3,object_04,object_06,1036.0,5,2,1330.0,0.5555555555555556,1,object_09,5,619,0,5,8,library_4,1,memory-2step-stake-s,536,1184941,0.0-19.0-0.0-0.43,A2WNTI69VVVWMZ,3QGHA0EA1MGR4GKNSEWY8BJ80SRWBM,37UQDCYH61BU9YFMFPKO6RAL45WV7K,6,5
44,3,object_06,object_04,1030.0,5,1,885.0,0.2222222222222222,1,object_09,5,629,0,2,6,library_4,1,memory-2step-stake-s,537,1193234,0.0-19.0-0.0-0.44,A2WNTI69VVVWMZ,3QGHA0EA1MGR4GKNSEWY8BJ80SRWBM,37UQDCYH61BU9YFMFPKO6RAL45WV7K,5,6
45,4,object_10,object_01,1056.0,7,2,438.0,0.2222222222222222,1,object_09,5,639,0,2,8,restaurant_4,1,memory-2step-stake-s,538,1201081,0.0-19.0-0.0-0.45,A2WNTI69VVVWMZ,3QGHA0EA1MGR4GKNSEWY8BJ80SRWBM,37UQDCYH61BU9YFMFPKO6RAL45WV7K,8,7
46,2,object_08,object_03,823.0,3,2,477.0,0.1111111111111111,1,object_09,1,640,0,1,6,forest_4,1,memory-2step-stake-s,539,1208867,0.0-19.0-0.0-0.46,A2WNTI69VVVWMZ,3QGHA0EA1MGR4GKNSEWY8BJ80SRWBM,37UQDCYH61BU9YFMFPKO6RAL45WV7K,4,3
47,2,object_08,object_03,877.0,4,1,387.0,1.0,2,object_05,5,685,0,5,9,forest_6,1,memory-2step-stake-s,540,1217370,0.0-19.0-0.0-0.47,A2WNTI69VVVWMZ,3QGHA0EA1MGR4GKNSEWY8BJ80SRWBM,37UQDCYH61BU9YFMFPKO6RAL45WV7K,4,3
48,3,object_06,object_04,-1.0,-1,-1,-1.0,0.0,-,0,5,685,0,3,6,library_1,1,memory-2step-stake-s,541,1223874,0.0-19.0-0.0-0.48,A2WNTI69VVVWMZ,3QGHA0EA1MGR4GKNSEWY8BJ80SRWBM,37UQDCYH61BU9YFMFPKO6RAL45WV7K,5,6
49,2,object_03,object_08,816.0,3,1,285.0,0.3333333333333333,1,object_09,1,688,0,3,7,forest_4,1,memory-2step-stake-s,542,1231668,0.0-19.0-0.0-0.49,A2WNTI69VVVWMZ,3QGHA0EA1MGR4GKNSEWY8BJ80SRWBM,37UQDCYH61BU9YFMFPKO6RAL45WV7K,3,4
50,1,object_02,object_07,1133.0,1,1,315.0,0.7777777777777778,1,object_09,5,723,0,7,6,desert_6,1,memory-2step-stake-s,543,1239892,0.0-19.0-0.0-0.50,A2WNTI69VVVWMZ,3QGHA0EA1MGR4GKNSEWY8BJ80SRWBM,37UQDCYH61BU9YFMFPKO6RAL45WV7K,1,2
51,1,object_07,object_02,668.0,2,1,256.0,0.6666666666666666,2,object_05,1,729,0,7,6,desert_6,1,memory-2step-stake-s,544,1247959,0.0-19.0-0.0-0.51,A2WNTI69VVVWMZ,3QGHA0EA1MGR4GKNSEWY8BJ80SRWBM,37UQDCYH61BU9YFMFPKO6RAL45WV7K,2,1
52,2,object_03,object_08,618.0,3,1,408.0,0.7777777777777778,1,object_09,1,736,0,7,5,forest_2,1,memory-2step-stake-s,545,1256277,0.0-19.0-0.0-0.52,A2WNTI69VVVWMZ,3QGHA0EA1MGR4GKNSEWY8BJ80SRWBM,37UQDCYH61BU9YFMFPKO6RAL45WV7K,3,4
53,4,object_10,object_01,794.0,7,2,343.0,0.8888888888888888,1,object_09,5,776,0,8,4,restaurant_7,1,memory-2step-stake-s,546,1264633,0.0-19.0-0.0-0.53,A2WNTI69VVVWMZ,3QGHA0EA1MGR4GKNSEWY8BJ80SRWBM,37UQDCYH61BU9YFMFPKO6RAL45WV7K,8,7
54,1,object_02,object_07,615.0,1,1,43.0,0.5555555555555556,1,object_09,1,781,0,5,6,desert_4,1,memory-2step-stake-s,547,1272388,0.0-19.0-0.0-0.54,A2WNTI69VVVWMZ,3QGHA0EA1MGR4GKNSEWY8BJ80SRWBM,37UQDCYH61BU9YFMFPKO6RAL45WV7K,1,2
55,1,object_02,object_07,1131.0,2,2,337.0,0.4444444444444444,2,object_05,1,785,0,6,4,desert_4,1,memory-2step-stake-s,548,1280336,0.0-19.0-0.0-0.55,A2WNTI69VVVWMZ,3QGHA0EA1MGR4GKNSEWY8BJ80SRWBM,37UQDCYH61BU9YFMFPKO6RAL45WV7K,1,2
56,4,object_10,object_01,967.0,7,2,357.0,0.8888888888888888,1,object_09,5,825,0,8,6,restaurant_3,1,memory-2step-stake-s,549,1288705,0.0-19.0-0.0-0.56,A2WNTI69VVVWMZ,3QGHA0EA1MGR4GKNSEWY8BJ80SRWBM,37UQDCYH61BU9YFMFPKO6RAL45WV7K,8,7
57,1,object_02,object_07,791.0,1,1,371.0,1.0,1,object_09,1,834,0,9,6,desert_1,1,memory-2step-stake-s,550,1297189,0.0-19.0-0.0-0.57,A2WNTI69VVVWMZ,3QGHA0EA1MGR4GKNSEWY8BJ80SRWBM,37UQDCYH61BU9YFMFPKO6RAL45WV7K,1,2
58,4,object_01,object_10,707.0,7,1,1094.0,0.7777777777777778,1,object_09,5,869,0,7,5,restaurant_7,1,memory-2step-stake-s,551,1306196,0.0-19.0-0.0-0.58,A2WNTI69VVVWMZ,3QGHA0EA1MGR4GKNSEWY8BJ80SRWBM,37UQDCYH61BU9YFMFPKO6RAL45WV7K,7,8
59,3,object_04,object_06,816.0,6,1,383.0,0.4444444444444444,2,object_05,5,889,0,5,4,library_1,1,memory-2step-stake-s,552,1314188,0.0-19.0-0.0-0.59,A2WNTI69VVVWMZ,3QGHA0EA1MGR4GKNSEWY8BJ80SRWBM,37UQDCYH61BU9YFMFPKO6RAL45WV7K,6,5
60,3,object_04,object_06,659.0,5,2,326.0,0.7777777777777778,1,object_09,5,924,0,7,4,library_1,1,memory-2step-stake-s,553,1322430,0.0-19.0-0.0-0.60,A2WNTI69VVVWMZ,3QGHA0EA1MGR4GKNSEWY8BJ80SRWBM,37UQDCYH61BU9YFMFPKO6RAL45WV7K,6,5
61,2,object_08,object_03,680.0,4,1,829.0,0.4444444444444444,2,object_05,5,944,0,5,4,forest_8,1,memory-2step-stake-s,554,1330871,0.0-19.0-0.0-0.61,A2WNTI69VVVWMZ,3QGHA0EA1MGR4GKNSEWY8BJ80SRWBM,37UQDCYH61BU9YFMFPKO6RAL45WV7K,4,3
62,2,object_08,object_03,337.0,3,2,314.0,0.3333333333333333,1,object_09,1,947,0,3,1,forest_6,1,memory-2step-stake-s,555,1338698,0.0-19.0-0.0-0.62,A2WNTI69VVVWMZ,3QGHA0EA1MGR4GKNSEWY8BJ80SRWBM,37UQDCYH61BU9YFMFPKO6RAL45WV7K,4,3
63,3,object_06,object_04,564.0,5,1,280.0,0.0,1,object_09,1,947,0,0,1,library_1,1,memory-2step-stake-s,556,1346186,0.0-19.0-0.0-0.63,A2WNTI69VVVWMZ,3QGHA0EA1MGR4GKNSEWY8BJ80SRWBM,37UQDCYH61BU9YFMFPKO6RAL45WV7K,5,6
64,2,object_03,object_08,781.0,4,2,308.0,0.3333333333333333,2,object_05,1,950,0,2,3,forest_8,1,memory-2step-stake-s,557,1354000,0.0-19.0-0.0-0.64,A2WNTI69VVVWMZ,3QGHA0EA1MGR4GKNSEWY8BJ80SRWBM,37UQDCYH61BU9YFMFPKO6RAL45WV7K,3,4
65,4,object_10,object_01,750.0,7,2,309.0,0.4444444444444444,1,object_09,5,970,0,4,5,restaurant_3,1,memory-2step-stake-s,558,1361918,0.0-19.0-0.0-0.65,A2WNTI69VVVWMZ,3QGHA0EA1MGR4GKNSEWY8BJ80SRWBM,37UQDCYH61BU9YFMFPKO6RAL45WV7K,8,7
66,2,object_03,object_08,632.0,3,1,559.0,0.3333333333333333,1,object_09,1,973,0,3,5,forest_2,1,memory-2step-stake-s,559,1369985,0.0-19.0-0.0-0.66,A2WNTI69VVVWMZ,3QGHA0EA1MGR4GKNSEWY8BJ80SRWBM,37UQDCYH61BU9YFMFPKO6RAL45WV7K,3,4
67,1,object_02,object_07,564.0,1,1,442.0,0.3333333333333333,1,object_09,1,976,0,3,2,desert_6,1,memory-2step-stake-s,560,1377937,0.0-19.0-0.0-0.67,A2WNTI69VVVWMZ,3QGHA0EA1MGR4GKNSEWY8BJ80SRWBM,37UQDCYH61BU9YFMFPKO6RAL45WV7K,1,2
68,2,object_08,object_03,413.0,3,2,340.0,0.2222222222222222,1,object_09,1,978,0,2,1,forest_6,1,memory-2step-stake-s,561,1385685,0.0-19.0-0.0-0.68,A2WNTI69VVVWMZ,3QGHA0EA1MGR4GKNSEWY8BJ80SRWBM,37UQDCYH61BU9YFMFPKO6RAL45WV7K,4,3
69,1,object_02,object_07,768.0,1,1,463.0,0.2222222222222222,1,object_09,1,980,0,2,1,desert_4,1,memory-2step-stake-s,562,1393551,0.0-19.0-0.0-0.69,A2WNTI69VVVWMZ,3QGHA0EA1MGR4GKNSEWY8BJ80SRWBM,37UQDCYH61BU9YFMFPKO6RAL45WV7K,1,2
70,1,object_02,object_07,679.0,2,2,316.0,0.2222222222222222,2,object_05,1,982,0,3,2,desert_1,1,memory-2step-stake-s,563,1401274,0.0-19.0-0.0-0.70,A2WNTI69VVVWMZ,3QGHA0EA1MGR4GKNSEWY8BJ80SRWBM,37UQDCYH61BU9YFMFPKO6RAL45WV7K,1,2
71,3,object_04,object_06,706.0,5,2,278.0,0.0,1,object_09,5,982,0,0,4,library_8,1,memory-2step-stake-s,564,1408763,0.0-19.0-0.0-0.71,A2WNTI69VVVWMZ,3QGHA0EA1MGR4GKNSEWY8BJ80SRWBM,37UQDCYH61BU9YFMFPKO6RAL45WV7K,6,5
72,1,object_02,object_07,594.0,1,1,407.0,0.2222222222222222,1,object_09,5,992,0,2,2,desert_2,1,memory-2step-stake-s,565,1416578,0.0-19.0-0.0-0.72,A2WNTI69VVVWMZ,3QGHA0EA1MGR4GKNSEWY8BJ80SRWBM,37UQDCYH61BU9YFMFPKO6RAL45WV7K,1,2
73,3,object_04,object_06,523.0,5,2,320.0,0.5555555555555556,1,object_09,5,1017,0,5,4,library_6,1,memory-2step-stake-s,566,1424608,0.0-19.0-0.0-0.73,A2WNTI69VVVWMZ,3QGHA0EA1MGR4GKNSEWY8BJ80SRWBM,37UQDCYH61BU9YFMFPKO6RAL45WV7K,6,5
74,3,object_06,object_04,885.0,5,1,351.0,0.6666666666666666,1,object_09,5,1047,0,6,8,library_6,1,memory-2step-stake-s,567,1432772,0.0-19.0-0.0-0.74,A2WNTI69VVVWMZ,3QGHA0EA1MGR4GKNSEWY8BJ80SRWBM,37UQDCYH61BU9YFMFPKO6RAL45WV7K,5,6
75,2,object_08,object_03,561.0,3,2,438.0,0.6666666666666666,1,object_09,1,1053,0,6,5,forest_4,1,memory-2step-stake-s,568,1441018,0.0-19.0-0.0-0.75,A2WNTI69VVVWMZ,3QGHA0EA1MGR4GKNSEWY8BJ80SRWBM,37UQDCYH61BU9YFMFPKO6RAL45WV7K,4,3
76,1,object_07,object_02,776.0,1,2,349.0,0.4444444444444444,1,object_09,1,1057,0,4,7,desert_1,1,memory-2step-stake-s,569,1448980,0.0-19.0-0.0-0.76,A2WNTI69VVVWMZ,3QGHA0EA1MGR4GKNSEWY8BJ80SRWBM,37UQDCYH61BU9YFMFPKO6RAL45WV7K,2,1
77,2,object_08,object_03,647.0,4,1,380.0,0.8888888888888888,2,object_05,1,1065,0,5,8,forest_6,1,memory-2step-stake-s,570,1457371,0.0-19.0-0.0-0.77,A2WNTI69VVVWMZ,3QGHA0EA1MGR4GKNSEWY8BJ80SRWBM,37UQDCYH61BU9YFMFPKO6RAL45WV7K,4,3
78,2,object_03,object_08,785.0,3,1,406.0,0.3333333333333333,1,object_09,1,1068,0,3,7,forest_6,1,memory-2step-stake-s,571,1465283,0.0-19.0-0.0-0.78,A2WNTI69VVVWMZ,3QGHA0EA1MGR4GKNSEWY8BJ80SRWBM,37UQDCYH61BU9YFMFPKO6RAL45WV7K,3,4
79,1,object_07,object_02,638.0,1,2,381.0,0.3333333333333333,1,object_09,1,1071,0,3,8,desert_4,1,memory-2step-stake-s,572,1473172,0.0-19.0-0.0-0.79,A2WNTI69VVVWMZ,3QGHA0EA1MGR4GKNSEWY8BJ80SRWBM,37UQDCYH61BU9YFMFPKO6RAL45WV7K,2,1
80,4,object_10,object_01,743.0,7,2,454.0,0.1111111111111111,1,object_09,5,1076,0,1,8,restaurant_3,1,memory-2step-stake-s,573,1480932,0.0-19.0-0.0-0.80,A2WNTI69VVVWMZ,3QGHA0EA1MGR4GKNSEWY8BJ80SRWBM,37UQDCYH61BU9YFMFPKO6RAL45WV7K,8,7
81,3,object_04,object_06,686.0,5,2,332.0,0.1111111111111111,1,object_09,5,1081,0,1,8,library_8,1,memory-2step-stake-s,574,1488572,0.0-19.0-0.0-0.81,A2WNTI69VVVWMZ,3QGHA0EA1MGR4GKNSEWY8BJ80SRWBM,37UQDCYH61BU9YFMFPKO6RAL45WV7K,6,5
82,2,object_08,object_03,477.0,4,1,288.0,1.0,2,object_05,1,1090,0,2,9,forest_4,1,memory-2step-stake-s,575,1496974,0.0-19.0-0.0-0.82,A2WNTI69VVVWMZ,3QGHA0EA1MGR4GKNSEWY8BJ80SRWBM,37UQDCYH61BU9YFMFPKO6RAL45WV7K,4,3
83,3,object_06,object_04,981.0,6,2,385.0,0.8888888888888888,2,object_05,5,1130,0,4,8,library_8,1,memory-2step-stake-s,576,1505370,0.0-19.0-0.0-0.83,A2WNTI69VVVWMZ,3QGHA0EA1MGR4GKNSEWY8BJ80SRWBM,37UQDCYH61BU9YFMFPKO6RAL45WV7K,5,6
84,1,object_02,object_07,729.0,2,2,414.0,0.6666666666666666,2,object_05,1,1136,0,3,6,desert_4,1,memory-2step-stake-s,577,1513597,0.0-19.0-0.0-0.84,A2WNTI69VVVWMZ,3QGHA0EA1MGR4GKNSEWY8BJ80SRWBM,37UQDCYH61BU9YFMFPKO6RAL45WV7K,1,2
85,4,object_10,object_01,901.0,8,1,306.0,0.6666666666666666,2,object_05,5,1166,0,1,6,restaurant_3,1,memory-2step-stake-s,578,1521714,0.0-19.0-0.0-0.85,A2WNTI69VVVWMZ,3QGHA0EA1MGR4GKNSEWY8BJ80SRWBM,37UQDCYH61BU9YFMFPKO6RAL45WV7K,8,7
86,1,object_07,object_02,752.0,2,1,317.0,0.5555555555555556,2,object_05,1,1171,0,2,5,desert_6,1,memory-2step-stake-s,579,1529742,0.0-19.0-0.0-0.86,A2WNTI69VVVWMZ,3QGHA0EA1MGR4GKNSEWY8BJ80SRWBM,37UQDCYH61BU9YFMFPKO6RAL45WV7K,2,1
87,2,object_08,object_03,1012.0,3,2,352.0,0.2222222222222222,1,object_09,1,1173,0,2,2,forest_8,1,memory-2step-stake-s,580,1537501,0.0-19.0-0.0-0.87,A2WNTI69VVVWMZ,3QGHA0EA1MGR4GKNSEWY8BJ80SRWBM,37UQDCYH61BU9YFMFPKO6RAL45WV7K,4,3
88,3,object_06,object_04,988.0,6,2,322.0,0.3333333333333333,2,object_05,5,1188,0,3,3,library_4,1,memory-2step-stake-s,581,1545331,0.0-19.0-0.0-0.88,A2WNTI69VVVWMZ,3QGHA0EA1MGR4GKNSEWY8BJ80SRWBM,37UQDCYH61BU9YFMFPKO6RAL45WV7K,5,6
89,3,object_04,object_06,943.0,6,1,309.0,0.6666666666666666,2,object_05,5,1218,0,4,6,library_6,1,memory-2step-stake-s,582,1553448,0.0-19.0-0.0-0.89,A2WNTI69VVVWMZ,3QGHA0EA1MGR4GKNSEWY8BJ80SRWBM,37UQDCYH61BU9YFMFPKO6RAL45WV7K,6,5
90,3,object_04,object_06,1072.0,6,1,557.0,0.8888888888888888,2,object_05,1,1226,0,4,8,library_1,1,memory-2step-stake-s,583,1562019,0.0-19.0-0.0-0.90,A2WNTI69VVVWMZ,3QGHA0EA1MGR4GKNSEWY8BJ80SRWBM,37UQDCYH61BU9YFMFPKO6RAL45WV7K,6,5
91,2,object_08,object_03,751.0,3,2,293.0,0.3333333333333333,1,object_09,1,1229,0,3,7,forest_2,1,memory-2step-stake-s,584,1569817,0.0-19.0-0.0-0.91,A2WNTI69VVVWMZ,3QGHA0EA1MGR4GKNSEWY8BJ80SRWBM,37UQDCYH61BU9YFMFPKO6RAL45WV7K,4,3
92,2,object_08,object_03,871.0,4,1,356.0,0.5555555555555556,2,object_05,1,1234,0,5,5,forest_2,1,memory-2step-stake-s,585,1577883,0.0-19.0-0.0-0.92,A2WNTI69VVVWMZ,3QGHA0EA1MGR4GKNSEWY8BJ80SRWBM,37UQDCYH61BU9YFMFPKO6RAL45WV7K,4,3
93,4,object_01,object_10,766.0,8,2,451.0,0.5555555555555556,2,object_05,1,1239,0,5,5,restaurant_3,1,memory-2step-stake-s,586,1586045,0.0-19.0-0.0-0.93,A2WNTI69VVVWMZ,3QGHA0EA1MGR4GKNSEWY8BJ80SRWBM,37UQDCYH61BU9YFMFPKO6RAL45WV7K,7,8
94,3,object_06,object_04,964.0,6,2,384.0,0.4444444444444444,2,object_05,5,1259,0,7,4,library_1,1,memory-2step-stake-s,587,1594038,0.0-19.0-0.0-0.94,A2WNTI69VVVWMZ,3QGHA0EA1MGR4GKNSEWY8BJ80SRWBM,37UQDCYH61BU9YFMFPKO6RAL45WV7K,5,6
95,2,object_03,object_08,905.0,4,2,446.0,0.5555555555555556,2,object_05,1,1264,0,7,5,forest_8,1,memory-2step-stake-s,588,1602196,0.0-19.0-0.0-0.95,A2WNTI69VVVWMZ,3QGHA0EA1MGR4GKNSEWY8BJ80SRWBM,37UQDCYH61BU9YFMFPKO6RAL45WV7K,3,4
96,2,object_03,object_08,556.0,4,2,313.0,0.6666666666666666,2,object_05,1,1270,0,8,6,forest_6,1,memory-2step-stake-s,589,1610317,0.0-19.0-0.0-0.96,A2WNTI69VVVWMZ,3QGHA0EA1MGR4GKNSEWY8BJ80SRWBM,37UQDCYH61BU9YFMFPKO6RAL45WV7K,3,4
97,3,object_06,object_04,634.0,6,2,375.0,0.5555555555555556,2,object_05,1,1275,0,8,5,library_8,1,memory-2step-stake-s,590,1618404,0.0-19.0-0.0-0.97,A2WNTI69VVVWMZ,3QGHA0EA1MGR4GKNSEWY8BJ80SRWBM,37UQDCYH61BU9YFMFPKO6RAL45WV7K,5,6
98,1,object_07,object_02,763.0,1,2,446.0,0.8888888888888888,1,object_09,1,1283,0,8,5,desert_2,1,memory-2step-stake-s,591,1626865,0.0-19.0-0.0-0.98,A2WNTI69VVVWMZ,3QGHA0EA1MGR4GKNSEWY8BJ80SRWBM,37UQDCYH61BU9YFMFPKO6RAL45WV7K,2,1
99,2,object_03,object_08,678.0,4,2,363.0,0.8888888888888888,2,object_05,1,1291,0,6,8,forest_8,1,memory-2step-stake-s,592,1635243,0.0-19.0-0.0-0.99,A2WNTI69VVVWMZ,3QGHA0EA1MGR4GKNSEWY8BJ80SRWBM,37UQDCYH61BU9YFMFPKO6RAL45WV7K,3,4
100,2,object_03,object_08,1076.0,4,2,826.0,0.8888888888888888,2,object_05,1,1299,0,7,8,forest_4,1,memory-2step-stake-s,593,1644081,0.0-19.0-0.0-0.100,A2WNTI69VVVWMZ,3QGHA0EA1MGR4GKNSEWY8BJ80SRWBM,37UQDCYH61BU9YFMFPKO6RAL45WV7K,3,4
101,3,object_04,object_06,621.0,5,2,370.0,0.5555555555555556,1,object_09,1,1304,0,5,5,library_6,1,memory-2step-stake-s,594,1652162,0.0-19.0-0.0-0.101,A2WNTI69VVVWMZ,3QGHA0EA1MGR4GKNSEWY8BJ80SRWBM,37UQDCYH61BU9YFMFPKO6RAL45WV7K,6,5
102,3,object_06,object_04,844.0,6,2,498.0,0.4444444444444444,2,object_05,5,1324,0,6,4,library_1,1,memory-2step-stake-s,595,1660269,0.0-19.0-0.0-0.102,A2WNTI69VVVWMZ,3QGHA0EA1MGR4GKNSEWY8BJ80SRWBM,37UQDCYH61BU9YFMFPKO6RAL45WV7K,5,6
103,1,object_07,object_02,848.0,2,1,318.0,0.3333333333333333,2,object_05,5,1339,0,6,3,desert_4,1,memory-2step-stake-s,596,1668099,0.0-19.0-0.0-0.103,A2WNTI69VVVWMZ,3QGHA0EA1MGR4GKNSEWY8BJ80SRWBM,37UQDCYH61BU9YFMFPKO6RAL45WV7K,2,1
104,2,object_08,object_03,724.0,3,2,312.0,0.5555555555555556,1,object_09,1,1344,0,5,1,forest_8,1,memory-2step-stake-s,597,1676119,0.0-19.0-0.0-0.104,A2WNTI69VVVWMZ,3QGHA0EA1MGR4GKNSEWY8BJ80SRWBM,37UQDCYH61BU9YFMFPKO6RAL45WV7K,4,3
105,3,object_04,object_06,573.0,5,2,423.0,0.5555555555555556,1,object_09,5,1369,0,5,1,library_4,1,memory-2step-stake-s,598,1684260,0.0-19.0-0.0-0.105,A2WNTI69VVVWMZ,3QGHA0EA1MGR4GKNSEWY8BJ80SRWBM,37UQDCYH61BU9YFMFPKO6RAL45WV7K,6,5
106,2,object_08,object_03,746.0,3,2,720.0,0.5555555555555556,1,object_09,1,1374,0,5,2,forest_6,1,memory-2step-stake-s,599,1692691,0.0-19.0-0.0-0.106,A2WNTI69VVVWMZ,3QGHA0EA1MGR4GKNSEWY8BJ80SRWBM,37UQDCYH61BU9YFMFPKO6RAL45WV7K,4,3
107,3,object_04,object_06,921.0,5,2,710.0,0.2222222222222222,1,object_09,5,1384,0,2,2,library_6,1,memory-2step-stake-s,600,1700811,0.0-19.0-0.0-0.107,A2WNTI69VVVWMZ,3QGHA0EA1MGR4GKNSEWY8BJ80SRWBM,37UQDCYH61BU9YFMFPKO6RAL45WV7K,6,5
108,1,object_07,object_02,762.0,2,1,383.0,0.3333333333333333,2,object_05,1,1387,0,1,3,desert_2,1,memory-2step-stake-s,601,1708701,0.0-19.0-0.0-0.108,A2WNTI69VVVWMZ,3QGHA0EA1MGR4GKNSEWY8BJ80SRWBM,37UQDCYH61BU9YFMFPKO6RAL45WV7K,2,1
109,1,object_02,object_07,737.0,2,2,412.0,0.5555555555555556,2,object_05,1,1392,0,1,5,desert_4,1,memory-2step-stake-s,602,1716825,0.0-19.0-0.0-0.109,A2WNTI69VVVWMZ,3QGHA0EA1MGR4GKNSEWY8BJ80SRWBM,37UQDCYH61BU9YFMFPKO6RAL45WV7K,1,2
110,2,object_03,object_08,929.0,4,2,350.0,0.2222222222222222,2,object_05,1,1394,0,3,2,forest_2,1,memory-2step-stake-s,603,1724585,0.0-19.0-0.0-0.110,A2WNTI69VVVWMZ,3QGHA0EA1MGR4GKNSEWY8BJ80SRWBM,37UQDCYH61BU9YFMFPKO6RAL45WV7K,3,4
111,4,object_10,object_01,1050.0,7,2,314.0,0.1111111111111111,1,object_09,1,1395,0,1,2,restaurant_4,1,memory-2step-stake-s,604,1732205,0.0-19.0-0.0-0.111,A2WNTI69VVVWMZ,3QGHA0EA1MGR4GKNSEWY8BJ80SRWBM,37UQDCYH61BU9YFMFPKO6RAL45WV7K,8,7
112,3,object_06,object_04,765.0,5,1,667.0,0.3333333333333333,1,object_09,5,1410,0,3,5,library_4,1,memory-2step-stake-s,605,1740382,0.0-19.0-0.0-0.112,A2WNTI69VVVWMZ,3QGHA0EA1MGR4GKNSEWY8BJ80SRWBM,37UQDCYH61BU9YFMFPKO6RAL45WV7K,5,6
113,4,object_10,object_01,733.0,7,2,410.0,0.0,1,object_09,5,1410,0,0,6,restaurant_3,1,memory-2step-stake-s,606,1748031,0.0-19.0-0.0-0.113,A2WNTI69VVVWMZ,3QGHA0EA1MGR4GKNSEWY8BJ80SRWBM,37UQDCYH61BU9YFMFPKO6RAL45WV7K,8,7
114,1,object_07,object_02,732.0,2,1,1137.0,0.6666666666666666,2,object_05,1,1416,0,1,6,desert_6,1,memory-2step-stake-s,607,1756977,0.0-19.0-0.0-0.114,A2WNTI69VVVWMZ,3QGHA0EA1MGR4GKNSEWY8BJ80SRWBM,37UQDCYH61BU9YFMFPKO6RAL45WV7K,2,1
115,3,object_04,object_06,802.0,5,2,400.0,0.2222222222222222,1,object_09,1,1418,0,2,4,library_6,1,memory-2step-stake-s,608,1764782,0.0-19.0-0.0-0.115,A2WNTI69VVVWMZ,3QGHA0EA1MGR4GKNSEWY8BJ80SRWBM,37UQDCYH61BU9YFMFPKO6RAL45WV7K,6,5
116,4,object_01,object_10,933.0,8,2,324.0,0.4444444444444444,2,object_05,5,1438,0,2,4,restaurant_4,1,memory-2step-stake-s,609,1772714,0.0-19.0-0.0-0.116,A2WNTI69VVVWMZ,3QGHA0EA1MGR4GKNSEWY8BJ80SRWBM,37UQDCYH61BU9YFMFPKO6RAL45WV7K,7,8
117,1,object_07,object_02,929.0,1,2,436.0,0.2222222222222222,1,object_09,5,1448,0,2,3,desert_2,1,memory-2step-stake-s,610,1780559,0.0-19.0-0.0-0.117,A2WNTI69VVVWMZ,3QGHA0EA1MGR4GKNSEWY8BJ80SRWBM,37UQDCYH61BU9YFMFPKO6RAL45WV7K,2,1
118,2,object_08,object_03,947.0,4,1,417.0,0.6666666666666666,2,object_05,5,1478,0,5,6,forest_6,1,memory-2step-stake-s,611,1788785,0.0-19.0-0.0-0.118,A2WNTI69VVVWMZ,3QGHA0EA1MGR4GKNSEWY8BJ80SRWBM,37UQDCYH61BU9YFMFPKO6RAL45WV7K,4,3
119,4,object_10,object_01,818.0,7,2,308.0,0.3333333333333333,1,object_09,5,1493,0,3,7,restaurant_3,1,memory-2step-stake-s,612,1796608,0.0-19.0-0.0-0.119,A2WNTI69VVVWMZ,3QGHA0EA1MGR4GKNSEWY8BJ80SRWBM,37UQDCYH61BU9YFMFPKO6RAL45WV7K,8,7
120,1,object_07,object_02,825.0,2,1,264.0,0.7777777777777778,2,object_05,5,1528,0,2,7,desert_1,1,memory-2step-stake-s,613,1804782,0.0-19.0-0.0-0.120,A2WNTI69VVVWMZ,3QGHA0EA1MGR4GKNSEWY8BJ80SRWBM,37UQDCYH61BU9YFMFPKO6RAL45WV7K,2,1
121,1,object_07,object_02,707.0,2,1,358.0,0.7777777777777778,2,object_05,5,1563,0,0,7,desert_1,1,memory-2step-stake-s,614,1813055,0.0-19.0-0.0-0.121,A2WNTI69VVVWMZ,3QGHA0EA1MGR4GKNSEWY8BJ80SRWBM,37UQDCYH61BU9YFMFPKO6RAL45WV7K,2,1
122,4,object_01,object_10,754.0,8,2,288.0,0.5555555555555556,2,object_05,5,1588,0,2,5,restaurant_7,1,memory-2step-stake-s,615,1821052,0.0-19.0-0.0-0.122,A2WNTI69VVVWMZ,3QGHA0EA1MGR4GKNSEWY8BJ80SRWBM,37UQDCYH61BU9YFMFPKO6RAL45WV7K,7,8
123,4,object_10,object_01,676.0,8,1,331.0,0.4444444444444444,2,object_05,5,1608,0,2,4,restaurant_4,1,memory-2step-stake-s,616,1828996,0.0-19.0-0.0-0.123,A2WNTI69VVVWMZ,3QGHA0EA1MGR4GKNSEWY8BJ80SRWBM,37UQDCYH61BU9YFMFPKO6RAL45WV7K,8,7
124,3,object_04,object_06,964.0,5,2,385.0,0.1111111111111111,1,object_09,5,1613,0,1,3,library_8,1,memory-2step-stake-s,617,1836693,0.0-19.0-0.0-0.124,A2WNTI69VVVWMZ,3QGHA0EA1MGR4GKNSEWY8BJ80SRWBM,37UQDCYH61BU9YFMFPKO6RAL45WV7K,6,5
125,4,object_01,object_10,964.0,8,2,307.0,0.4444444444444444,2,object_05,1,1617,0,2,4,restaurant_5,1,memory-2step-stake-s,618,1844607,0.0-19.0-0.0-0.125,A2WNTI69VVVWMZ,3QGHA0EA1MGR4GKNSEWY8BJ80SRWBM,37UQDCYH61BU9YFMFPKO6RAL45WV7K,7,8
126,3,object_06,object_04,874.0,5,1,361.0,0.1111111111111111,1,object_09,5,1622,0,1,5,library_8,1,memory-2step-stake-s,619,1852275,0.0-19.0-0.0-0.126,A2WNTI69VVVWMZ,3QGHA0EA1MGR4GKNSEWY8BJ80SRWBM,37UQDCYH61BU9YFMFPKO6RAL45WV7K,5,6
127,2,object_03,object_08,934.0,4,2,428.0,0.1111111111111111,2,object_05,1,1623,0,2,1,forest_4,1,memory-2step-stake-s,620,1860009,0.0-19.0-0.0-0.127,A2WNTI69VVVWMZ,3QGHA0EA1MGR4GKNSEWY8BJ80SRWBM,37UQDCYH61BU9YFMFPKO6RAL45WV7K,3,4
128,4,object_01,object_10,1321.0,8,2,517.0,0.0,2,object_05,5,1623,0,4,0,restaurant_4,1,memory-2step-stake-s,622,2029520,0.0-19.0-0.1-0.128,A2WNTI69VVVWMZ,3QGHA0EA1MGR4GKNSEWY8BJ80SRWBM,37UQDCYH61BU9YFMFPKO6RAL45WV7K,7,8
129,2,object_03,object_08,877.0,3,1,363.0,0.7777777777777778,1,object_09,1,1630,0,7,1,forest_8,1,memory-2step-stake-s,623,2037794,0.0-19.0-0.1-0.129,A2WNTI69VVVWMZ,3QGHA0EA1MGR4GKNSEWY8BJ80SRWBM,37UQDCYH61BU9YFMFPKO6RAL45WV7K,3,4
130,4,object_10,object_01,924.0,8,1,288.0,0.0,2,object_05,1,1630,0,4,0,restaurant_7,1,memory-2step-stake-s,624,2045287,0.0-19.0-0.1-0.130,A2WNTI69VVVWMZ,3QGHA0EA1MGR4GKNSEWY8BJ80SRWBM,37UQDCYH61BU9YFMFPKO6RAL45WV7K,8,7
131,2,object_03,object_08,1084.0,4,2,402.0,0.3333333333333333,2,object_05,1,1633,0,1,3,forest_4,1,memory-2step-stake-s,625,2053200,0.0-19.0-0.1-0.131,A2WNTI69VVVWMZ,3QGHA0EA1MGR4GKNSEWY8BJ80SRWBM,37UQDCYH61BU9YFMFPKO6RAL45WV7K,3,4
132,4,object_01,object_10,1259.0,7,1,417.0,0.4444444444444444,1,object_09,5,1653,0,4,5,restaurant_3,1,memory-2step-stake-s,626,2061224,0.0-19.0-0.1-0.132,A2WNTI69VVVWMZ,3QGHA0EA1MGR4GKNSEWY8BJ80SRWBM,37UQDCYH61BU9YFMFPKO6RAL45WV7K,7,8
133,3,object_06,object_04,1300.0,5,1,402.0,0.6666666666666666,1,object_09,5,1683,0,6,2,library_4,1,memory-2step-stake-s,627,2069436,0.0-19.0-0.1-0.133,A2WNTI69VVVWMZ,3QGHA0EA1MGR4GKNSEWY8BJ80SRWBM,37UQDCYH61BU9YFMFPKO6RAL45WV7K,5,6
134,2,object_08,object_03,1334.0,4,1,348.0,0.0,2,object_05,1,1683,0,7,0,forest_4,1,memory-2step-stake-s,628,2076991,0.0-19.0-0.1-0.134,A2WNTI69VVVWMZ,3QGHA0EA1MGR4GKNSEWY8BJ80SRWBM,37UQDCYH61BU9YFMFPKO6RAL45WV7K,4,3
135,1,object_02,object_07,1173.0,1,1,698.0,0.5555555555555556,1,object_09,1,1688,0,5,1,desert_6,1,memory-2step-stake-s,629,2085398,0.0-19.0-0.1-0.135,A2WNTI69VVVWMZ,3QGHA0EA1MGR4GKNSEWY8BJ80SRWBM,37UQDCYH61BU9YFMFPKO6RAL45WV7K,1,2
136,1,object_02,object_07,805.0,1,1,706.0,0.3333333333333333,1,object_09,1,1691,0,3,2,desert_6,1,memory-2step-stake-s,630,2093613,0.0-19.0-0.1-0.136,A2WNTI69VVVWMZ,3QGHA0EA1MGR4GKNSEWY8BJ80SRWBM,37UQDCYH61BU9YFMFPKO6RAL45WV7K,1,2
137,4,object_10,object_01,1054.0,7,2,625.0,0.2222222222222222,1,object_09,1,1693,0,2,5,restaurant_4,1,memory-2step-stake-s,631,2101648,0.0-19.0-0.1-0.137,A2WNTI69VVVWMZ,3QGHA0EA1MGR4GKNSEWY8BJ80SRWBM,37UQDCYH61BU9YFMFPKO6RAL45WV7K,8,7
138,3,object_06,object_04,1169.0,5,1,407.0,0.0,1,object_09,5,1693,0,0,5,library_8,1,memory-2step-stake-s,632,2109261,0.0-19.0-0.1-0.138,A2WNTI69VVVWMZ,3QGHA0EA1MGR4GKNSEWY8BJ80SRWBM,37UQDCYH61BU9YFMFPKO6RAL45WV7K,5,6
139,4,object_01,object_10,781.0,7,1,657.0,0.3333333333333333,1,object_09,5,1708,0,3,7,restaurant_4,1,memory-2step-stake-s,633,2117426,0.0-19.0-0.1-0.139,A2WNTI69VVVWMZ,3QGHA0EA1MGR4GKNSEWY8BJ80SRWBM,37UQDCYH61BU9YFMFPKO6RAL45WV7K,7,8
140,2,object_08,object_03,1153.0,4,1,630.0,1.0,2,object_05,1,1717,0,1,9,forest_6,1,memory-2step-stake-s,634,2126169,0.0-19.0-0.1-0.140,A2WNTI69VVVWMZ,3QGHA0EA1MGR4GKNSEWY8BJ80SRWBM,37UQDCYH61BU9YFMFPKO6RAL45WV7K,4,3
141,3,object_04,object_06,961.0,5,2,343.0,0.1111111111111111,1,object_09,5,1722,0,1,8,library_6,1,memory-2step-stake-s,635,2133819,0.0-19.0-0.1-0.141,A2WNTI69VVVWMZ,3QGHA0EA1MGR4GKNSEWY8BJ80SRWBM,37UQDCYH61BU9YFMFPKO6RAL45WV7K,6,5
142,3,object_04,object_06,839.0,5,2,269.0,0.0,1,object_09,5,1722,0,0,5,library_1,1,memory-2step-stake-s,636,2141292,0.0-19.0-0.1-0.142,A2WNTI69VVVWMZ,3QGHA0EA1MGR4GKNSEWY8BJ80SRWBM,37UQDCYH61BU9YFMFPKO6RAL45WV7K,6,5
143,3,object_04,object_06,790.0,6,1,292.0,0.3333333333333333,2,object_05,1,1725,0,2,3,library_1,1,memory-2step-stake-s,637,2149091,0.0-19.0-0.1-0.143,A2WNTI69VVVWMZ,3QGHA0EA1MGR4GKNSEWY8BJ80SRWBM,37UQDCYH61BU9YFMFPKO6RAL45WV7K,6,5
144,3,object_04,object_06,446.0,5,2,242.0,0.1111111111111111,1,object_09,1,1726,0,1,5,library_8,1,memory-2step-stake-s,638,2156641,0.0-19.0-0.1-0.144,A2WNTI69VVVWMZ,3QGHA0EA1MGR4GKNSEWY8BJ80SRWBM,37UQDCYH61BU9YFMFPKO6RAL45WV7K,6,5
145,1,object_02,object_07,728.0,1,1,165.0,0.3333333333333333,1,object_09,1,1729,0,3,7,desert_4,1,memory-2step-stake-s,639,2164317,0.0-19.0-0.1-0.145,A2WNTI69VVVWMZ,3QGHA0EA1MGR4GKNSEWY8BJ80SRWBM,37UQDCYH61BU9YFMFPKO6RAL45WV7K,1,2
146,3,object_04,object_06,691.0,5,2,497.0,0.5555555555555556,1,object_09,5,1754,0,5,8,library_1,1,memory-2step-stake-s,640,2172525,0.0-19.0-0.1-0.146,A2WNTI69VVVWMZ,3QGHA0EA1MGR4GKNSEWY8BJ80SRWBM,37UQDCYH61BU9YFMFPKO6RAL45WV7K,6,5
147,4,object_01,object_10,604.0,7,1,298.0,0.4444444444444444,1,object_09,1,1758,0,4,9,restaurant_5,1,memory-2step-stake-s,641,2180432,0.0-19.0-0.1-0.147,A2WNTI69VVVWMZ,3QGHA0EA1MGR4GKNSEWY8BJ80SRWBM,37UQDCYH61BU9YFMFPKO6RAL45WV7K,7,8
148,4,object_01,object_10,584.0,7,1,309.0,0.6666666666666666,1,object_09,5,1788,0,6,8,restaurant_7,1,memory-2step-stake-s,642,2188552,0.0-19.0-0.1-0.148,A2WNTI69VVVWMZ,3QGHA0EA1MGR4GKNSEWY8BJ80SRWBM,37UQDCYH61BU9YFMFPKO6RAL45WV7K,7,8
149,2,object_03,object_08,863.0,4,2,84.0,0.8888888888888888,2,object_05,1,1796,0,7,8,forest_2,1,memory-2step-stake-s,643,2196651,0.0-19.0-0.1-0.149,A2WNTI69VVVWMZ,3QGHA0EA1MGR4GKNSEWY8BJ80SRWBM,37UQDCYH61BU9YFMFPKO6RAL45WV7K,3,4
150,4,object_01,object_10,639.0,8,2,349.0,0.8888888888888888,2,object_05,5,1836,0,5,8,restaurant_4,1,memory-2step-stake-s,644,2205007,0.0-19.0-0.1-0.150,A2WNTI69VVVWMZ,3QGHA0EA1MGR4GKNSEWY8BJ80SRWBM,37UQDCYH61BU9YFMFPKO6RAL45WV7K,7,8
151,4,object_01,object_10,784.0,8,2,381.0,0.6666666666666666,2,object_05,1,1842,0,5,6,restaurant_7,1,memory-2step-stake-s,645,2213200,0.0-19.0-0.1-0.151,A2WNTI69VVVWMZ,3QGHA0EA1MGR4GKNSEWY8BJ80SRWBM,37UQDCYH61BU9YFMFPKO6RAL45WV7K,7,8
152,1,object_07,object_02,1008.0,2,1,286.0,0.8888888888888888,2,object_05,1,1850,0,6,8,desert_4,1,memory-2step-stake-s,646,2221495,0.0-19.0-0.1-0.152,A2WNTI69VVVWMZ,3QGHA0EA1MGR4GKNSEWY8BJ80SRWBM,37UQDCYH61BU9YFMFPKO6RAL45WV7K,2,1
153,3,object_06,object_04,1216.0,5,1,764.0,0.7777777777777778,1,object_09,1,1857,0,7,6,library_4,1,memory-2step-stake-s,647,2230170,0.0-19.0-0.1-0.153,A2WNTI69VVVWMZ,3QGHA0EA1MGR4GKNSEWY8BJ80SRWBM,37UQDCYH61BU9YFMFPKO6RAL45WV7K,5,6
154,2,object_03,object_08,798.0,4,2,252.0,0.3333333333333333,2,object_05,1,1860,0,9,3,forest_4,1,memory-2step-stake-s,648,2237930,0.0-19.0-0.1-0.154,A2WNTI69VVVWMZ,3QGHA0EA1MGR4GKNSEWY8BJ80SRWBM,37UQDCYH61BU9YFMFPKO6RAL45WV7K,3,4
155,3,object_06,object_04,721.0,5,1,369.0,0.8888888888888888,1,object_09,5,1900,0,8,5,library_8,1,memory-2step-stake-s,649,2246309,0.0-19.0-0.1-0.155,A2WNTI69VVVWMZ,3QGHA0EA1MGR4GKNSEWY8BJ80SRWBM,37UQDCYH61BU9YFMFPKO6RAL45WV7K,5,6
156,3,object_04,object_06,803.0,5,2,30.0,0.7777777777777778,1,object_09,5,1935,0,7,6,library_8,1,memory-2step-stake-s,650,2254250,0.0-19.0-0.1-0.156,A2WNTI69VVVWMZ,3QGHA0EA1MGR4GKNSEWY8BJ80SRWBM,37UQDCYH61BU9YFMFPKO6RAL45WV7K,6,5
157,1,object_07,object_02,629.0,1,2,267.0,0.6666666666666666,1,object_09,1,1941,0,6,3,desert_6,1,memory-2step-stake-s,651,2262325,0.0-19.0-0.1-0.157,A2WNTI69VVVWMZ,3QGHA0EA1MGR4GKNSEWY8BJ80SRWBM,37UQDCYH61BU9YFMFPKO6RAL45WV7K,2,1
158,1,object_02,object_07,601.0,1,1,302.0,0.1111111111111111,1,object_09,1,1942,0,1,2,desert_2,1,memory-2step-stake-s,652,2269935,0.0-19.0-0.1-0.158,A2WNTI69VVVWMZ,3QGHA0EA1MGR4GKNSEWY8BJ80SRWBM,37UQDCYH61BU9YFMFPKO6RAL45WV7K,1,2
159,1,object_07,object_02,671.0,2,1,374.0,0.1111111111111111,2,object_05,1,1943,0,2,1,desert_6,1,memory-2step-stake-s,653,2277614,0.0-19.0-0.1-0.159,A2WNTI69VVVWMZ,3QGHA0EA1MGR4GKNSEWY8BJ80SRWBM,37UQDCYH61BU9YFMFPKO6RAL45WV7K,2,1
160,3,object_04,object_06,687.0,5,2,333.0,0.0,1,object_09,5,1943,0,0,0,library_8,1,memory-2step-stake-s,654,2285155,0.0-19.0-0.1-0.160,A2WNTI69VVVWMZ,3QGHA0EA1MGR4GKNSEWY8BJ80SRWBM,37UQDCYH61BU9YFMFPKO6RAL45WV7K,6,5
161,1,object_02,object_07,516.0,1,1,281.0,0.4444444444444444,1,object_09,1,1947,0,4,2,desert_2,1,memory-2step-stake-s,655,2293044,0.0-19.0-0.1-0.161,A2WNTI69VVVWMZ,3QGHA0EA1MGR4GKNSEWY8BJ80SRWBM,37UQDCYH61BU9YFMFPKO6RAL45WV7K,1,2
162,4,object_10,object_01,930.0,7,2,471.0,0.8888888888888888,1,object_09,5,1987,0,8,0,restaurant_5,1,memory-2step-stake-s,656,2301528,0.0-19.0-0.1-0.162,A2WNTI69VVVWMZ,3QGHA0EA1MGR4GKNSEWY8BJ80SRWBM,37UQDCYH61BU9YFMFPKO6RAL45WV7K,8,7
163,3,object_06,object_04,989.0,5,1,419.0,1.0,1,object_09,5,2032,0,9,1,library_4,1,memory-2step-stake-s,657,2310058,0.0-19.0-0.1-0.163,A2WNTI69VVVWMZ,3QGHA0EA1MGR4GKNSEWY8BJ80SRWBM,37UQDCYH61BU9YFMFPKO6RAL45WV7K,5,6
164,1,object_02,object_07,724.0,1,1,766.0,0.8888888888888888,1,object_09,1,2040,0,8,1,desert_6,1,memory-2step-stake-s,658,2318841,0.0-19.0-0.1-0.164,A2WNTI69VVVWMZ,3QGHA0EA1MGR4GKNSEWY8BJ80SRWBM,37UQDCYH61BU9YFMFPKO6RAL45WV7K,1,2
165,2,object_03,object_08,795.0,4,2,266.0,0.1111111111111111,2,object_05,1,2041,0,9,1,forest_6,1,memory-2step-stake-s,659,2326414,0.0-19.0-0.1-0.165,A2WNTI69VVVWMZ,3QGHA0EA1MGR4GKNSEWY8BJ80SRWBM,37UQDCYH61BU9YFMFPKO6RAL45WV7K,3,4
166,2,object_08,object_03,831.0,4,1,693.0,0.1111111111111111,2,object_05,1,2042,0,8,1,forest_8,1,memory-2step-stake-s,660,2334416,0.0-19.0-0.1-0.166,A2WNTI69VVVWMZ,3QGHA0EA1MGR4GKNSEWY8BJ80SRWBM,37UQDCYH61BU9YFMFPKO6RAL45WV7K,4,3
167,2,object_08,object_03,757.0,3,2,346.0,0.1111111111111111,1,object_09,1,2043,0,1,0,forest_6,1,memory-2step-stake-s,661,2342069,0.0-19.0-0.1-0.167,A2WNTI69VVVWMZ,3QGHA0EA1MGR4GKNSEWY8BJ80SRWBM,37UQDCYH61BU9YFMFPKO6RAL45WV7K,4,3
168,2,object_08,object_03,610.0,4,1,382.0,0.1111111111111111,2,object_05,1,2044,0,1,1,forest_2,1,memory-2step-stake-s,662,2349756,0.0-19.0-0.1-0.168,A2WNTI69VVVWMZ,3QGHA0EA1MGR4GKNSEWY8BJ80SRWBM,37UQDCYH61BU9YFMFPKO6RAL45WV7K,4,3
169,1,object_02,object_07,705.0,2,2,349.0,0.1111111111111111,2,object_05,5,2049,0,1,1,desert_2,1,memory-2step-stake-s,663,2357413,0.0-19.0-0.1-0.169,A2WNTI69VVVWMZ,3QGHA0EA1MGR4GKNSEWY8BJ80SRWBM,37UQDCYH61BU9YFMFPKO6RAL45WV7K,1,2
170,2,object_03,object_08,550.0,3,1,347.0,0.6666666666666666,1,object_09,1,2055,0,6,3,forest_4,1,memory-2step-stake-s,664,2365573,0.0-19.0-0.1-0.170,A2WNTI69VVVWMZ,3QGHA0EA1MGR4GKNSEWY8BJ80SRWBM,37UQDCYH61BU9YFMFPKO6RAL45WV7K,3,4
171,4,object_10,object_01,958.0,7,2,329.0,0.5555555555555556,1,object_09,1,2060,0,5,4,restaurant_5,1,memory-2step-stake-s,665,2373616,0.0-19.0-0.1-0.171,A2WNTI69VVVWMZ,3QGHA0EA1MGR4GKNSEWY8BJ80SRWBM,37UQDCYH61BU9YFMFPKO6RAL45WV7K,8,7
172,1,object_02,object_07,772.0,1,1,442.0,0.4444444444444444,1,object_09,5,2080,0,4,4,desert_1,1,memory-2step-stake-s,666,2381669,0.0-19.0-0.1-0.172,A2WNTI69VVVWMZ,3QGHA0EA1MGR4GKNSEWY8BJ80SRWBM,37UQDCYH61BU9YFMFPKO6RAL45WV7K,1,2
173,1,object_07,object_02,631.0,1,2,294.0,0.4444444444444444,1,object_09,5,2100,0,4,3,desert_2,1,memory-2step-stake-s,667,2389570,0.0-19.0-0.1-0.173,A2WNTI69VVVWMZ,3QGHA0EA1MGR4GKNSEWY8BJ80SRWBM,37UQDCYH61BU9YFMFPKO6RAL45WV7K,2,1
174,4,object_01,object_10,619.0,7,1,384.0,0.2222222222222222,1,object_09,5,2110,0,2,1,restaurant_5,1,memory-2step-stake-s,668,2397359,0.0-19.0-0.1-0.174,A2WNTI69VVVWMZ,3QGHA0EA1MGR4GKNSEWY8BJ80SRWBM,37UQDCYH61BU9YFMFPKO6RAL45WV7K,7,8
175,4,object_10,object_01,490.0,7,2,119.0,0.4444444444444444,1,object_09,5,2130,0,4,1,restaurant_3,1,memory-2step-stake-s,669,2405089,0.0-19.0-0.1-0.175,A2WNTI69VVVWMZ,3QGHA0EA1MGR4GKNSEWY8BJ80SRWBM,37UQDCYH61BU9YFMFPKO6RAL45WV7K,8,7
176,1,object_07,object_02,608.0,2,1,412.0,0.2222222222222222,2,object_05,1,2132,0,0,2,desert_1,1,memory-2step-stake-s,670,2412912,0.0-19.0-0.1-0.176,A2WNTI69VVVWMZ,3QGHA0EA1MGR4GKNSEWY8BJ80SRWBM,37UQDCYH61BU9YFMFPKO6RAL45WV7K,2,1
177,3,object_06,object_04,698.0,6,2,416.0,0.1111111111111111,2,object_05,5,2137,0,0,1,library_6,1,memory-2step-stake-s,671,2420635,0.0-19.0-0.1-0.177,A2WNTI69VVVWMZ,3QGHA0EA1MGR4GKNSEWY8BJ80SRWBM,37UQDCYH61BU9YFMFPKO6RAL45WV7K,5,6
178,4,object_01,object_10,423.0,7,1,250.0,0.2222222222222222,1,object_09,5,2147,0,2,1,restaurant_4,1,memory-2step-stake-s,672,2428297,0.0-19.0-0.1-0.178,A2WNTI69VVVWMZ,3QGHA0EA1MGR4GKNSEWY8BJ80SRWBM,37UQDCYH61BU9YFMFPKO6RAL45WV7K,7,8
179,3,object_04,object_06,890.0,5,2,287.0,0.8888888888888888,1,object_09,5,2187,0,8,0,library_4,1,memory-2step-stake-s,673,2436596,0.0-19.0-0.1-0.179,A2WNTI69VVVWMZ,3QGHA0EA1MGR4GKNSEWY8BJ80SRWBM,37UQDCYH61BU9YFMFPKO6RAL45WV7K,6,5
180,1,object_07,object_02,679.0,2,1,139.0,0.3333333333333333,2,object_05,1,2190,0,5,3,desert_4,1,memory-2step-stake-s,674,2444246,0.0-19.0-0.1-0.180,A2WNTI69VVVWMZ,3QGHA0EA1MGR4GKNSEWY8BJ80SRWBM,37UQDCYH61BU9YFMFPKO6RAL45WV7K,2,1
181,2,object_03,object_08,628.0,3,1,412.0,0.7777777777777778,1,object_09,1,2197,0,7,2,forest_8,1,memory-2step-stake-s,675,2452566,0.0-19.0-0.1-0.181,A2WNTI69VVVWMZ,3QGHA0EA1MGR4GKNSEWY8BJ80SRWBM,37UQDCYH61BU9YFMFPKO6RAL45WV7K,3,4
182,3,object_06,object_04,628.0,5,1,321.0,0.4444444444444444,1,object_09,5,2217,0,4,4,library_6,1,memory-2step-stake-s,676,2460498,0.0-19.0-0.1-0.182,A2WNTI69VVVWMZ,3QGHA0EA1MGR4GKNSEWY8BJ80SRWBM,37UQDCYH61BU9YFMFPKO6RAL45WV7K,5,6
183,4,object_10,object_01,745.0,7,2,262.0,0.3333333333333333,1,object_09,5,2232,0,3,0,restaurant_3,1,memory-2step-stake-s,677,2468267,0.0-19.0-0.1-0.183,A2WNTI69VVVWMZ,3QGHA0EA1MGR4GKNSEWY8BJ80SRWBM,37UQDCYH61BU9YFMFPKO6RAL45WV7K,8,7
184,2,object_08,object_03,485.0,4,1,236.0,0.1111111111111111,2,object_05,1,2233,0,4,1,forest_2,1,memory-2step-stake-s,678,2475811,0.0-19.0-0.1-0.184,A2WNTI69VVVWMZ,3QGHA0EA1MGR4GKNSEWY8BJ80SRWBM,37UQDCYH61BU9YFMFPKO6RAL45WV7K,4,3
185,3,object_06,object_04,749.0,5,1,451.0,0.2222222222222222,1,object_09,5,2243,0,2,2,library_6,1,memory-2step-stake-s,679,2483670,0.0-19.0-0.1-0.185,A2WNTI69VVVWMZ,3QGHA0EA1MGR4GKNSEWY8BJ80SRWBM,37UQDCYH61BU9YFMFPKO6RAL45WV7K,5,6
186,2,object_08,object_03,683.0,3,2,88.0,0.1111111111111111,1,object_09,1,2244,0,1,4,forest_2,1,memory-2step-stake-s,680,2491065,0.0-19.0-0.1-0.186,A2WNTI69VVVWMZ,3QGHA0EA1MGR4GKNSEWY8BJ80SRWBM,37UQDCYH61BU9YFMFPKO6RAL45WV7K,4,3
187,3,object_06,object_04,928.0,6,2,437.0,0.5555555555555556,2,object_05,5,2269,0,0,5,library_8,1,memory-2step-stake-s,681,2499214,0.0-19.0-0.1-0.187,A2WNTI69VVVWMZ,3QGHA0EA1MGR4GKNSEWY8BJ80SRWBM,37UQDCYH61BU9YFMFPKO6RAL45WV7K,5,6
188,3,object_04,object_06,627.0,6,1,312.0,0.3333333333333333,2,object_05,1,2272,0,0,3,library_1,1,memory-2step-stake-s,682,2507035,0.0-19.0-0.1-0.188,A2WNTI69VVVWMZ,3QGHA0EA1MGR4GKNSEWY8BJ80SRWBM,37UQDCYH61BU9YFMFPKO6RAL45WV7K,6,5
189,2,object_08,object_03,782.0,4,1,723.0,0.1111111111111111,2,object_05,1,2273,0,1,1,forest_4,1,memory-2step-stake-s,683,2515064,0.0-19.0-0.1-0.189,A2WNTI69VVVWMZ,3QGHA0EA1MGR4GKNSEWY8BJ80SRWBM,37UQDCYH61BU9YFMFPKO6RAL45WV7K,4,3
190,2,object_08,object_03,984.0,4,1,359.0,0.1111111111111111,2,object_05,1,2274,0,1,1,forest_4,1,memory-2step-stake-s,684,2522729,0.0-19.0-0.1-0.190,A2WNTI69VVVWMZ,3QGHA0EA1MGR4GKNSEWY8BJ80SRWBM,37UQDCYH61BU9YFMFPKO6RAL45WV7K,4,3
191,3,object_04,object_06,679.0,5,2,133.0,0.4444444444444444,1,object_09,5,2294,0,4,0,library_6,1,memory-2step-stake-s,685,2530470,0.0-19.0-0.1-0.191,A2WNTI69VVVWMZ,3QGHA0EA1MGR4GKNSEWY8BJ80SRWBM,37UQDCYH61BU9YFMFPKO6RAL45WV7K,6,5
192,1,object_02,object_07,830.0,2,2,703.0,0.1111111111111111,2,object_05,1,2295,0,5,1,desert_2,1,memory-2step-stake-s,686,2538481,0.0-19.0-0.1-0.192,A2WNTI69VVVWMZ,3QGHA0EA1MGR4GKNSEWY8BJ80SRWBM,37UQDCYH61BU9YFMFPKO6RAL45WV7K,1,2
193,3,object_06,object_04,615.0,5,1,557.0,0.4444444444444444,1,object_09,5,2315,0,4,1,library_6,1,memory-2step-stake-s,687,2546647,0.0-19.0-0.1-0.193,A2WNTI69VVVWMZ,3QGHA0EA1MGR4GKNSEWY8BJ80SRWBM,37UQDCYH61BU9YFMFPKO6RAL45WV7K,5,6
194,4,object_10,object_01,769.0,8,1,367.0,0.0,2,object_05,5,2315,0,2,0,restaurant_7,1,memory-2step-stake-s,688,2554217,0.0-19.0-0.1-0.194,A2WNTI69VVVWMZ,3QGHA0EA1MGR4GKNSEWY8BJ80SRWBM,37UQDCYH61BU9YFMFPKO6RAL45WV7K,8,7
195,3,object_06,object_04,807.0,5,1,849.0,0.1111111111111111,1,object_09,5,2320,0,1,2,library_1,1,memory-2step-stake-s,689,2562376,0.0-19.0-0.1-0.195,A2WNTI69VVVWMZ,3QGHA0EA1MGR4GKNSEWY8BJ80SRWBM,37UQDCYH61BU9YFMFPKO6RAL45WV7K,5,6
196,1,object_02,object_07,896.0,2,2,317.0,0.2222222222222222,2,object_05,5,2330,0,2,2,desert_4,1,memory-2step-stake-s,690,2570098,0.0-19.0-0.1-0.196,A2WNTI69VVVWMZ,3QGHA0EA1MGR4GKNSEWY8BJ80SRWBM,37UQDCYH61BU9YFMFPKO6RAL45WV7K,1,2
197,4,object_01,object_10,652.0,7,1,506.0,0.1111111111111111,1,object_09,5,2335,0,1,0,restaurant_5,1,memory-2step-stake-s,691,2577912,0.0-19.0-0.1-0.197,A2WNTI69VVVWMZ,3QGHA0EA1MGR4GKNSEWY8BJ80SRWBM,37UQDCYH61BU9YFMFPKO6RAL45WV7K,7,8
198,1,object_02,object_07,614.0,1,1,812.0,0.2222222222222222,1,object_09,1,2337,0,2,0,desert_4,1,memory-2step-stake-s,692,2586133,0.0-19.0-0.1-0.198,A2WNTI69VVVWMZ,3QGHA0EA1MGR4GKNSEWY8BJ80SRWBM,37UQDCYH61BU9YFMFPKO6RAL45WV7K,1,2
199,4,object_01,object_10,514.0,8,2,15.0,0.4444444444444444,2,object_05,5,2357,0,0,4,restaurant_5,1,memory-2step-stake-s,693,2593754,0.0-19.0-0.1-0.199,A2WNTI69VVVWMZ,3QGHA0EA1MGR4GKNSEWY8BJ80SRWBM,37UQDCYH61BU9YFMFPKO6RAL45WV7K,7,8
200,2,object_03,object_08,708.0,3,1,217.0,0.1111111111111111,1,object_09,1,2358,0,1,4,forest_2,1,memory-2step-stake-s,694,2601279,0.0-19.0-0.1-0.200,A2WNTI69VVVWMZ,3QGHA0EA1MGR4GKNSEWY8BJ80SRWBM,37UQDCYH61BU9YFMFPKO6RAL45WV7K,3,4
201,2,object_03,object_08,559.0,3,1,156.0,0.1111111111111111,1,object_09,1,2359,0,1,7,forest_8,1,memory-2step-stake-s,695,2608744,0.0-19.0-0.1-0.201,A2WNTI69VVVWMZ,3QGHA0EA1MGR4GKNSEWY8BJ80SRWBM,37UQDCYH61BU9YFMFPKO6RAL45WV7K,3,4
202,3,object_06,object_04,684.0,6,2,293.0,0.8888888888888888,2,object_05,5,2399,0,1,8,library_6,1,memory-2step-stake-s,696,2617048,0.0-19.0-0.1-0.202,A2WNTI69VVVWMZ,3QGHA0EA1MGR4GKNSEWY8BJ80SRWBM,37UQDCYH61BU9YFMFPKO6RAL45WV7K,5,6
203,2,object_03,object_08,1117.0,3,1,442.0,0.3333333333333333,1,object_09,5,2414,0,3,5,forest_8,1,memory-2step-stake-s,697,2624998,0.0-19.0-0.1-0.203,A2WNTI69VVVWMZ,3QGHA0EA1MGR4GKNSEWY8BJ80SRWBM,37UQDCYH61BU9YFMFPKO6RAL45WV7K,3,4
204,4,object_01,object_10,1065.0,8,2,447.0,0.2222222222222222,2,object_05,5,2424,0,2,2,restaurant_5,1,memory-2step-stake-s,698,2632852,0.0-19.0-0.1-0.204,A2WNTI69VVVWMZ,3QGHA0EA1MGR4GKNSEWY8BJ80SRWBM,37UQDCYH61BU9YFMFPKO6RAL45WV7K,7,8
205,2,object_08,object_03,1090.0,3,2,462.0,0.4444444444444444,1,object_09,1,2428,0,4,1,forest_2,1,memory-2step-stake-s,699,2640926,0.0-19.0-0.1-0.205,A2WNTI69VVVWMZ,3QGHA0EA1MGR4GKNSEWY8BJ80SRWBM,37UQDCYH61BU9YFMFPKO6RAL45WV7K,4,3
206,3,object_04,object_06,1039.0,5,2,508.0,0.5555555555555556,1,object_09,5,2453,0,5,4,library_1,1,memory-2step-stake-s,700,2649145,0.0-19.0-0.1-0.206,A2WNTI69VVVWMZ,3QGHA0EA1MGR4GKNSEWY8BJ80SRWBM,37UQDCYH61BU9YFMFPKO6RAL45WV7K,6,5
207,4,object_01,object_10,740.0,7,1,418.0,0.1111111111111111,1,object_09,5,2458,0,1,2,restaurant_4,1,memory-2step-stake-s,701,2656868,0.0-19.0-0.1-0.207,A2WNTI69VVVWMZ,3QGHA0EA1MGR4GKNSEWY8BJ80SRWBM,37UQDCYH61BU9YFMFPKO6RAL45WV7K,7,8
208,3,object_06,object_04,739.0,5,1,360.0,0.3333333333333333,1,object_09,5,2473,0,3,3,library_4,1,memory-2step-stake-s,702,2664731,0.0-19.0-0.1-0.208,A2WNTI69VVVWMZ,3QGHA0EA1MGR4GKNSEWY8BJ80SRWBM,37UQDCYH61BU9YFMFPKO6RAL45WV7K,5,6
209,1,object_02,object_07,674.0,1,1,255.0,0.1111111111111111,1,object_09,1,2474,0,1,3,desert_6,1,memory-2step-stake-s,703,2672295,0.0-19.0-0.1-0.209,A2WNTI69VVVWMZ,3QGHA0EA1MGR4GKNSEWY8BJ80SRWBM,37UQDCYH61BU9YFMFPKO6RAL45WV7K,1,2
210,4,object_01,object_10,461.0,8,2,234.0,0.6666666666666666,2,object_05,1,2480,0,1,6,restaurant_5,1,memory-2step-stake-s,704,2680341,0.0-19.0-0.1-0.210,A2WNTI69VVVWMZ,3QGHA0EA1MGR4GKNSEWY8BJ80SRWBM,37UQDCYH61BU9YFMFPKO6RAL45WV7K,7,8
211,3,object_04,object_06,792.0,5,2,358.0,0.4444444444444444,1,object_09,1,2484,0,4,7,library_6,1,memory-2step-stake-s,705,2688309,0.0-19.0-0.1-0.211,A2WNTI69VVVWMZ,3QGHA0EA1MGR4GKNSEWY8BJ80SRWBM,37UQDCYH61BU9YFMFPKO6RAL45WV7K,6,5
212,1,object_07,object_02,1456.0,1,2,455.0,0.5555555555555556,1,object_09,1,2489,0,5,6,desert_1,1,memory-2step-stake-s,706,2696468,0.0-19.0-0.1-0.212,A2WNTI69VVVWMZ,3QGHA0EA1MGR4GKNSEWY8BJ80SRWBM,37UQDCYH61BU9YFMFPKO6RAL45WV7K,2,1
213,4,object_10,object_01,847.0,7,2,370.0,0.6666666666666666,1,object_09,5,2519,0,6,6,restaurant_4,1,memory-2step-stake-s,707,2704647,0.0-19.0-0.1-0.213,A2WNTI69VVVWMZ,3QGHA0EA1MGR4GKNSEWY8BJ80SRWBM,37UQDCYH61BU9YFMFPKO6RAL45WV7K,8,7
214,4,object_10,object_01,653.0,7,2,924.0,1.0,1,object_09,1,2528,0,9,8,restaurant_5,1,memory-2step-stake-s,708,2713682,0.0-19.0-0.1-0.214,A2WNTI69VVVWMZ,3QGHA0EA1MGR4GKNSEWY8BJ80SRWBM,37UQDCYH61BU9YFMFPKO6RAL45WV7K,8,7
215,1,object_07,object_02,833.0,1,2,365.0,0.8888888888888888,1,object_09,1,2536,0,8,8,desert_1,1,memory-2step-stake-s,709,2722063,0.0-19.0-0.1-0.215,A2WNTI69VVVWMZ,3QGHA0EA1MGR4GKNSEWY8BJ80SRWBM,37UQDCYH61BU9YFMFPKO6RAL45WV7K,2,1
216,4,object_01,object_10,645.0,7,1,267.0,0.6666666666666666,1,object_09,5,2566,0,6,8,restaurant_3,1,memory-2step-stake-s,710,2730139,0.0-19.0-0.1-0.216,A2WNTI69VVVWMZ,3QGHA0EA1MGR4GKNSEWY8BJ80SRWBM,37UQDCYH61BU9YFMFPKO6RAL45WV7K,7,8
217,4,object_01,object_10,544.0,7,1,269.0,0.7777777777777778,1,object_09,5,2601,0,7,8,restaurant_5,1,memory-2step-stake-s,711,2738317,0.0-19.0-0.1-0.217,A2WNTI69VVVWMZ,3QGHA0EA1MGR4GKNSEWY8BJ80SRWBM,37UQDCYH61BU9YFMFPKO6RAL45WV7K,7,8
218,1,object_07,object_02,622.0,1,2,314.0,0.7777777777777778,1,object_09,1,2608,0,7,7,desert_2,1,memory-2step-stake-s,712,2746545,0.0-19.0-0.1-0.218,A2WNTI69VVVWMZ,3QGHA0EA1MGR4GKNSEWY8BJ80SRWBM,37UQDCYH61BU9YFMFPKO6RAL45WV7K,2,1
219,3,object_04,object_06,841.0,5,2,286.0,0.4444444444444444,1,object_09,5,2628,0,4,7,library_6,1,memory-2step-stake-s,713,2754445,0.0-19.0-0.1-0.219,A2WNTI69VVVWMZ,3QGHA0EA1MGR4GKNSEWY8BJ80SRWBM,37UQDCYH61BU9YFMFPKO6RAL45WV7K,6,5
220,3,object_06,object_04,910.0,5,1,297.0,0.1111111111111111,1,object_09,5,2633,0,1,4,library_8,1,memory-2step-stake-s,714,2762049,0.0-19.0-0.1-0.220,A2WNTI69VVVWMZ,3QGHA0EA1MGR4GKNSEWY8BJ80SRWBM,37UQDCYH61BU9YFMFPKO6RAL45WV7K,5,6
221,2,object_08,object_03,754.0,3,2,327.0,0.0,1,object_09,1,2633,0,0,1,forest_8,1,memory-2step-stake-s,715,2769582,0.0-19.0-0.1-0.221,A2WNTI69VVVWMZ,3QGHA0EA1MGR4GKNSEWY8BJ80SRWBM,37UQDCYH61BU9YFMFPKO6RAL45WV7K,4,3
222,4,object_10,object_01,915.0,8,1,296.0,0.3333333333333333,2,object_05,5,2648,0,1,3,restaurant_3,1,memory-2step-stake-s,716,2777387,0.0-19.0-0.1-0.222,A2WNTI69VVVWMZ,3QGHA0EA1MGR4GKNSEWY8BJ80SRWBM,37UQDCYH61BU9YFMFPKO6RAL45WV7K,8,7
223,4,object_01,object_10,717.0,8,2,603.0,0.3333333333333333,2,object_05,5,2663,0,2,3,restaurant_4,1,memory-2step-stake-s,717,2785499,0.0-19.0-0.1-0.223,A2WNTI69VVVWMZ,3QGHA0EA1MGR4GKNSEWY8BJ80SRWBM,37UQDCYH61BU9YFMFPKO6RAL45WV7K,7,8
224,1,object_02,object_07,798.0,2,2,388.0,0.5555555555555556,2,object_05,1,2668,0,1,5,desert_1,1,memory-2step-stake-s,718,2793596,0.0-19.0-0.1-0.224,A2WNTI69VVVWMZ,3QGHA0EA1MGR4GKNSEWY8BJ80SRWBM,37UQDCYH61BU9YFMFPKO6RAL45WV7K,1,2
225,4,object_10,object_01,877.0,8,1,255.0,0.2222222222222222,2,object_05,5,2678,0,2,2,restaurant_3,1,memory-2step-stake-s,719,2801264,0.0-19.0-0.1-0.225,A2WNTI69VVVWMZ,3QGHA0EA1MGR4GKNSEWY8BJ80SRWBM,37UQDCYH61BU9YFMFPKO6RAL45WV7K,8,7
226,3,object_06,object_04,793.0,5,1,279.0,0.1111111111111111,1,object_09,5,2683,0,1,5,library_4,1,memory-2step-stake-s,720,2808848,0.0-19.0-0.1-0.226,A2WNTI69VVVWMZ,3QGHA0EA1MGR4GKNSEWY8BJ80SRWBM,37UQDCYH61BU9YFMFPKO6RAL45WV7K,5,6
227,1,object_07,object_02,784.0,1,2,462.0,0.0,1,object_09,1,2683,0,0,7,desert_2,1,memory-2step-stake-s,721,2816515,0.0-19.0-0.1-0.227,A2WNTI69VVVWMZ,3QGHA0EA1MGR4GKNSEWY8BJ80SRWBM,37UQDCYH61BU9YFMFPKO6RAL45WV7K,2,1
228,2,object_08,object_03,941.0,4,1,162.0,1.0,2,object_05,1,2692,0,5,9,forest_8,1,memory-2step-stake-s,722,2824788,0.0-19.0-0.1-0.228,A2WNTI69VVVWMZ,3QGHA0EA1MGR4GKNSEWY8BJ80SRWBM,37UQDCYH61BU9YFMFPKO6RAL45WV7K,4,3
229,2,object_03,object_08,1219.0,3,1,441.0,0.5555555555555556,1,object_09,1,2697,0,5,9,forest_6,1,memory-2step-stake-s,723,2832940,0.0-19.0-0.1-0.229,A2WNTI69VVVWMZ,3QGHA0EA1MGR4GKNSEWY8BJ80SRWBM,37UQDCYH61BU9YFMFPKO6RAL45WV7K,3,4
230,2,object_03,object_08,723.0,3,1,361.0,0.6666666666666666,1,object_09,5,2727,0,6,8,forest_4,1,memory-2step-stake-s,724,2841113,0.0-19.0-0.1-0.230,A2WNTI69VVVWMZ,3QGHA0EA1MGR4GKNSEWY8BJ80SRWBM,37UQDCYH61BU9YFMFPKO6RAL45WV7K,3,4
231,3,object_04,object_06,792.0,6,1,270.0,0.7777777777777778,2,object_05,1,2734,0,5,7,library_6,1,memory-2step-stake-s,725,2849292,0.0-19.0-0.1-0.231,A2WNTI69VVVWMZ,3QGHA0EA1MGR4GKNSEWY8BJ80SRWBM,37UQDCYH61BU9YFMFPKO6RAL45WV7K,6,5
232,2,object_08,object_03,772.0,4,1,289.0,0.6666666666666666,2,object_05,5,2764,0,6,6,forest_2,1,memory-2step-stake-s,726,2857391,0.0-19.0-0.1-0.232,A2WNTI69VVVWMZ,3QGHA0EA1MGR4GKNSEWY8BJ80SRWBM,37UQDCYH61BU9YFMFPKO6RAL45WV7K,4,3
233,3,object_04,object_06,657.0,6,1,350.0,1.0,2,object_05,5,2809,0,2,9,library_8,1,memory-2step-stake-s,727,2865853,0.0-19.0-0.1-0.233,A2WNTI69VVVWMZ,3QGHA0EA1MGR4GKNSEWY8BJ80SRWBM,37UQDCYH61BU9YFMFPKO6RAL45WV7K,6,5
234,4,object_01,object_10,1145.0,8,2,351.0,0.6666666666666666,2,object_05,1,2815,0,0,6,restaurant_5,1,memory-2step-stake-s,728,2874012,0.0-19.0-0.1-0.234,A2WNTI69VVVWMZ,3QGHA0EA1MGR4GKNSEWY8BJ80SRWBM,37UQDCYH61BU9YFMFPKO6RAL45WV7K,7,8
235,1,object_07,object_02,1203.0,1,2,415.0,0.2222222222222222,1,object_09,1,2817,0,2,8,desert_4,1,memory-2step-stake-s,729,2881837,0.0-19.0-0.1-0.235,A2WNTI69VVVWMZ,3QGHA0EA1MGR4GKNSEWY8BJ80SRWBM,37UQDCYH61BU9YFMFPKO6RAL45WV7K,2,1
236,4,object_01,object_10,745.0,7,1,-1.0,0.0,1,object_09,5,2817,0,5,9,restaurant_5,1,memory-2step-stake-s,730,2890343,0.0-19.0-0.1-0.236,A2WNTI69VVVWMZ,3QGHA0EA1MGR4GKNSEWY8BJ80SRWBM,37UQDCYH61BU9YFMFPKO6RAL45WV7K,7,8
237,3,object_04,object_06,807.0,5,2,349.0,0.3333333333333333,1,object_09,5,2832,0,3,8,library_1,1,memory-2step-stake-s,731,2898203,0.0-19.0-0.1-0.237,A2WNTI69VVVWMZ,3QGHA0EA1MGR4GKNSEWY8BJ80SRWBM,37UQDCYH61BU9YFMFPKO6RAL45WV7K,6,5
238,2,object_03,object_08,804.0,4,2,1042.0,0.7777777777777778,2,object_05,1,2839,0,4,7,forest_6,1,memory-2step-stake-s,732,2907151,0.0-19.0-0.1-0.238,A2WNTI69VVVWMZ,3QGHA0EA1MGR4GKNSEWY8BJ80SRWBM,37UQDCYH61BU9YFMFPKO6RAL45WV7K,3,4
239,1,object_02,object_07,719.0,1,1,765.0,0.7777777777777778,1,object_09,1,2846,0,7,5,desert_4,1,memory-2step-stake-s,733,2915826,0.0-19.0-0.1-0.239,A2WNTI69VVVWMZ,3QGHA0EA1MGR4GKNSEWY8BJ80SRWBM,37UQDCYH61BU9YFMFPKO6RAL45WV7K,1,2
240,1,object_02,object_07,635.0,1,1,145.0,0.6666666666666666,1,object_09,1,2852,0,6,2,desert_6,1,memory-2step-stake-s,734,2923778,0.0-19.0-0.1-0.240,A2WNTI69VVVWMZ,3QGHA0EA1MGR4GKNSEWY8BJ80SRWBM,37UQDCYH61BU9YFMFPKO6RAL45WV7K,1,2
241,4,object_10,object_01,683.0,7,2,440.0,0.8888888888888888,1,object_09,5,2892,0,8,0,restaurant_7,1,memory-2step-stake-s,735,2932230,0.0-19.0-0.1-0.241,A2WNTI69VVVWMZ,3QGHA0EA1MGR4GKNSEWY8BJ80SRWBM,37UQDCYH61BU9YFMFPKO6RAL45WV7K,8,7
242,3,object_04,object_06,1119.0,5,2,388.0,1.0,1,object_09,5,2937,0,9,1,library_4,1,memory-2step-stake-s,736,2940732,0.0-19.0-0.1-0.242,A2WNTI69VVVWMZ,3QGHA0EA1MGR4GKNSEWY8BJ80SRWBM,37UQDCYH61BU9YFMFPKO6RAL45WV7K,6,5
243,3,object_04,object_06,856.0,5,2,221.0,0.6666666666666666,1,object_09,5,2967,0,6,1,library_4,1,memory-2step-stake-s,737,2948765,0.0-19.0-0.1-0.243,A2WNTI69VVVWMZ,3QGHA0EA1MGR4GKNSEWY8BJ80SRWBM,37UQDCYH61BU9YFMFPKO6RAL45WV7K,6,5
244,1,object_02,object_07,704.0,1,1,387.0,0.6666666666666666,1,object_09,1,2973,0,6,3,desert_6,1,memory-2step-stake-s,738,2956966,0.0-19.0-0.1-0.244,A2WNTI69VVVWMZ,3QGHA0EA1MGR4GKNSEWY8BJ80SRWBM,37UQDCYH61BU9YFMFPKO6RAL45WV7K,1,2
245,2,object_03,object_08,928.0,4,2,319.0,0.4444444444444444,2,object_05,1,2977,0,9,4,forest_8,1,memory-2step-stake-s,739,2964891,0.0-19.0-0.1-0.245,A2WNTI69VVVWMZ,3QGHA0EA1MGR4GKNSEWY8BJ80SRWBM,37UQDCYH61BU9YFMFPKO6RAL45WV7K,3,4
246,1,object_07,object_02,603.0,1,2,361.0,0.6666666666666666,1,object_09,1,2983,0,6,3,desert_6,1,memory-2step-stake-s,740,2973059,0.0-19.0-0.1-0.246,A2WNTI69VVVWMZ,3QGHA0EA1MGR4GKNSEWY8BJ80SRWBM,37UQDCYH61BU9YFMFPKO6RAL45WV7K,2,1
247,4,object_10,object_01,786.0,7,2,328.0,0.6666666666666666,1,object_09,5,3013,0,6,7,restaurant_5,1,memory-2step-stake-s,741,2981197,0.0-19.0-0.1-0.247,A2WNTI69VVVWMZ,3QGHA0EA1MGR4GKNSEWY8BJ80SRWBM,37UQDCYH61BU9YFMFPKO6RAL45WV7K,8,7
248,2,object_03,object_08,720.0,4,2,324.0,0.8888888888888888,2,object_05,5,3053,0,5,8,forest_6,1,memory-2step-stake-s,742,2989536,0.0-19.0-0.1-0.248,A2WNTI69VVVWMZ,3QGHA0EA1MGR4GKNSEWY8BJ80SRWBM,37UQDCYH61BU9YFMFPKO6RAL45WV7K,3,4
249,4,object_01,object_10,603.0,7,1,418.0,0.4444444444444444,1,object_09,1,3057,0,4,8,restaurant_7,1,memory-2step-stake-s,743,2997563,0.0-19.0-0.1-0.249,A2WNTI69VVVWMZ,3QGHA0EA1MGR4GKNSEWY8BJ80SRWBM,37UQDCYH61BU9YFMFPKO6RAL45WV7K,7,8
250,1,object_02,object_07,682.0,1,1,320.0,0.3333333333333333,1,object_09,1,3060,0,3,9,desert_1,1,memory-2step-stake-s,744,3005392,0.0-19.0-0.1-0.250,A2WNTI69VVVWMZ,3QGHA0EA1MGR4GKNSEWY8BJ80SRWBM,37UQDCYH61BU9YFMFPKO6RAL45WV7K,1,2
251,2,object_03,object_08,851.0,4,2,529.0,0.8888888888888888,2,object_05,1,3068,0,5,8,forest_6,1,memory-2step-stake-s,745,3013929,0.0-19.0-0.1-0.251,A2WNTI69VVVWMZ,3QGHA0EA1MGR4GKNSEWY8BJ80SRWBM,37UQDCYH61BU9YFMFPKO6RAL45WV7K,3,4
252,2,object_03,object_08,755.0,4,2,478.0,1.0,2,object_05,1,3077,0,5,9,forest_8,1,memory-2step-stake-s,746,3022523,0.0-19.0-0.1-0.252,A2WNTI69VVVWMZ,3QGHA0EA1MGR4GKNSEWY8BJ80SRWBM,37UQDCYH61BU9YFMFPKO6RAL45WV7K,3,4
253,1,object_02,object_07,679.0,1,1,252.0,0.3333333333333333,1,object_09,1,3080,0,3,8,desert_1,1,memory-2step-stake-s,747,3030286,0.0-19.0-0.1-0.253,A2WNTI69VVVWMZ,3QGHA0EA1MGR4GKNSEWY8BJ80SRWBM,37UQDCYH61BU9YFMFPKO6RAL45WV7K,1,2
254,1,object_07,object_02,819.0,1,2,359.0,0.2222222222222222,1,object_09,1,3082,0,2,7,desert_1,1,memory-2step-stake-s,748,3038056,0.0-19.0-0.1-0.254,A2WNTI69VVVWMZ,3QGHA0EA1MGR4GKNSEWY8BJ80SRWBM,37UQDCYH61BU9YFMFPKO6RAL45WV7K,2,1
255,4,object_01,object_10,764.0,7,1,458.0,0.4444444444444444,1,object_09,5,3102,0,4,2,restaurant_7,1,memory-2step-stake-s,749,3046123,0.0-19.0-0.1-0.255,A2WNTI69VVVWMZ,3QGHA0EA1MGR4GKNSEWY8BJ80SRWBM,37UQDCYH61BU9YFMFPKO6RAL45WV7K,7,8
