,state1,stim_left,stim_right,rt_1,choice1,response1,rt_2,points,state2,stim_state2,stake,score,practice,rews1,rews2,background,high_arm,trial_type,trial_index,time_elapsed,internal_node_id,subid,hitid,assignmentid,stim_left_num,stim_right_num
0,1,object_05,object_08,853.89999997616,1,2,-1.0,0.0,1,object_01,1,0,0,2,2,desert_4,1,memory-2step-stake-s,494,1023083,0.0-19.0-0.0-0.0,A12HWPFXQPITHD,3HRWUH63RXIZS6U0Z3EY966PXK25N4,3U4J9857OIRF0KHGA8TO5FGE1D17BB,2,1
1,2,object_03,object_10,864.40000003576,3,1,371.69999998808,0.2222222222222222,1,object_01,1,2,0,2,1,forest_1,1,memory-2step-stake-s,495,1030872,0.0-19.0-0.0-0.1,A12HWPFXQPITHD,3HRWUH63RXIZS6U0Z3EY966PXK25N4,3U4J9857OIRF0KHGA8TO5FGE1D17BB,3,4
2,2,object_10,object_03,1123.6000000238,3,2,868.79999995232,0.1111111111111111,1,object_01,5,7,0,1,2,forest_2,1,memory-2step-stake-s,496,1039060,0.0-19.0-0.0-0.2,A12HWPFXQPITHD,3HRWUH63RXIZS6U0Z3EY966PXK25N4,3U4J9857OIRF0KHGA8TO5FGE1D17BB,4,3
3,4,object_04,object_09,-1.0,-1,-1,-1.0,0.0,-,0,5,7,0,0,0,restaurant_7,1,memory-2step-stake-s,497,1045575,0.0-19.0-0.0-0.3,A12HWPFXQPITHD,3HRWUH63RXIZS6U0Z3EY966PXK25N4,3U4J9857OIRF0KHGA8TO5FGE1D17BB,8,7
4,3,object_06,object_07,740.39999997616,6,1,684.69999998808,0.1111111111111111,2,object_02,5,12,0,1,1,library_3,1,memory-2step-stake-s,498,1053578,0.0-19.0-0.0-0.4,A12HWPFXQPITHD,3HRWUH63RXIZS6U0Z3EY966PXK25N4,3U4J9857OIRF0KHGA8TO5FGE1D17BB,6,5
5,3,object_07,object_06,927.59999996424,6,2,635.0,0.1111111111111111,2,object_02,1,13,0,1,1,library_3,1,memory-2step-stake-s,499,1061530,0.0-19.0-0.0-0.5,A12HWPFXQPITHD,3HRWUH63RXIZS6U0Z3EY966PXK25N4,3U4J9857OIRF0KHGA8TO5FGE1D17BB,5,6
6,4,object_09,object_04,900.29999995232,7,1,668.69999998808,0.0,1,object_01,5,13,0,0,3,restaurant_1,1,memory-2step-stake-s,500,1069413,0.0-19.0-0.0-0.6,A12HWPFXQPITHD,3HRWUH63RXIZS6U0Z3EY966PXK25N4,3U4J9857OIRF0KHGA8TO5FGE1D17BB,7,8
7,3,object_07,object_06,1080.5,5,1,519.90000003576,0.1111111111111111,1,object_01,5,18,0,1,2,library_2,1,memory-2step-stake-s,501,1077262,0.0-19.0-0.0-0.7,A12HWPFXQPITHD,3HRWUH63RXIZS6U0Z3EY966PXK25N4,3U4J9857OIRF0KHGA8TO5FGE1D17BB,5,6
8,1,object_05,object_08,743.5,2,1,538.40000003576,0.1111111111111111,2,object_02,1,19,0,1,1,desert_4,1,memory-2step-stake-s,502,1085116,0.0-19.0-0.0-0.8,A12HWPFXQPITHD,3HRWUH63RXIZS6U0Z3EY966PXK25N4,3U4J9857OIRF0KHGA8TO5FGE1D17BB,2,1
9,3,object_07,object_06,951.39999997616,6,2,1209.1999999881,0.3333333333333333,2,object_02,5,34,0,1,3,library_4,1,memory-2step-stake-s,503,1093847,0.0-19.0-0.0-0.9,A12HWPFXQPITHD,3HRWUH63RXIZS6U0Z3EY966PXK25N4,3U4J9857OIRF0KHGA8TO5FGE1D17BB,5,6
10,2,object_10,object_03,862.90000003576,4,1,866.30000001192,0.5555555555555556,2,object_02,1,39,0,0,5,forest_1,1,memory-2step-stake-s,504,1102432,0.0-19.0-0.0-0.10,A12HWPFXQPITHD,3HRWUH63RXIZS6U0Z3EY966PXK25N4,3U4J9857OIRF0KHGA8TO5FGE1D17BB,4,3
11,1,object_08,object_05,1184.8999999762,1,1,866.40000003576,0.1111111111111111,1,object_01,1,40,0,1,5,desert_4,1,memory-2step-stake-s,505,1110611,0.0-19.0-0.0-0.11,A12HWPFXQPITHD,3HRWUH63RXIZS6U0Z3EY966PXK25N4,3U4J9857OIRF0KHGA8TO5FGE1D17BB,1,2
12,4,object_04,object_09,779.19999998808,8,1,541.0,0.5555555555555556,2,object_02,5,65,0,0,5,restaurant_1,1,memory-2step-stake-s,506,1118872,0.0-19.0-0.0-0.12,A12HWPFXQPITHD,3HRWUH63RXIZS6U0Z3EY966PXK25N4,3U4J9857OIRF0KHGA8TO5FGE1D17BB,8,7
13,4,object_09,object_04,851.0,7,1,420.30000001192,0.3333333333333333,1,object_01,5,80,0,3,5,restaurant_1,1,memory-2step-stake-s,507,1126812,0.0-19.0-0.0-0.13,A12HWPFXQPITHD,3HRWUH63RXIZS6U0Z3EY966PXK25N4,3U4J9857OIRF0KHGA8TO5FGE1D17BB,7,8
14,4,object_09,object_04,788.70000004768,7,1,454.5,0.2222222222222222,1,object_01,5,90,0,2,4,restaurant_7,1,memory-2step-stake-s,508,1134688,0.0-19.0-0.0-0.14,A12HWPFXQPITHD,3HRWUH63RXIZS6U0Z3EY966PXK25N4,3U4J9857OIRF0KHGA8TO5FGE1D17BB,7,8
15,3,object_06,object_07,897.39999997616,5,2,498.80000001192,0.0,1,object_01,5,90,0,0,8,library_2,1,memory-2step-stake-s,509,1142401,0.0-19.0-0.0-0.15,A12HWPFXQPITHD,3HRWUH63RXIZS6U0Z3EY966PXK25N4,3U4J9857OIRF0KHGA8TO5FGE1D17BB,6,5
16,3,object_07,object_06,926.89999997616,6,2,736.39999997616,1.0,2,object_02,1,99,0,4,9,library_3,1,memory-2step-stake-s,510,1151267,0.0-19.0-0.0-0.16,A12HWPFXQPITHD,3HRWUH63RXIZS6U0Z3EY966PXK25N4,3U4J9857OIRF0KHGA8TO5FGE1D17BB,5,6
17,2,object_03,object_10,840.30000001192,3,1,674.70000004768,0.7777777777777778,1,object_01,1,106,0,7,7,forest_1,1,memory-2step-stake-s,511,1159863,0.0-19.0-0.0-0.17,A12HWPFXQPITHD,3HRWUH63RXIZS6U0Z3EY966PXK25N4,3U4J9857OIRF0KHGA8TO5FGE1D17BB,3,4
18,1,object_05,object_08,862.89999997616,1,2,594.69999998808,0.7777777777777778,1,object_01,1,113,0,7,7,desert_5,1,memory-2step-stake-s,512,1168382,0.0-19.0-0.0-0.18,A12HWPFXQPITHD,3HRWUH63RXIZS6U0Z3EY966PXK25N4,3U4J9857OIRF0KHGA8TO5FGE1D17BB,2,1
19,3,object_06,object_07,909.19999998808,6,1,577.80000001192,0.7777777777777778,2,object_02,5,148,0,8,7,library_4,1,memory-2step-stake-s,513,1176884,0.0-19.0-0.0-0.19,A12HWPFXQPITHD,3HRWUH63RXIZS6U0Z3EY966PXK25N4,3U4J9857OIRF0KHGA8TO5FGE1D17BB,6,5
20,1,object_08,object_05,713.59999996424,1,1,522.69999998808,0.7777777777777778,1,object_01,1,155,0,7,7,desert_5,1,memory-2step-stake-s,514,1185346,0.0-19.0-0.0-0.20,A12HWPFXQPITHD,3HRWUH63RXIZS6U0Z3EY966PXK25N4,3U4J9857OIRF0KHGA8TO5FGE1D17BB,1,2
21,1,object_05,object_08,707.80000001192,1,2,486.89999997616,0.4444444444444444,1,object_01,1,159,0,4,6,desert_1,1,memory-2step-stake-s,515,1193453,0.0-19.0-0.0-0.21,A12HWPFXQPITHD,3HRWUH63RXIZS6U0Z3EY966PXK25N4,3U4J9857OIRF0KHGA8TO5FGE1D17BB,2,1
22,3,object_06,object_07,778.0,6,1,299.5,0.5555555555555556,2,object_02,5,184,0,7,5,library_5,1,memory-2step-stake-s,516,1201471,0.0-19.0-0.0-0.22,A12HWPFXQPITHD,3HRWUH63RXIZS6U0Z3EY966PXK25N4,3U4J9857OIRF0KHGA8TO5FGE1D17BB,6,5
23,3,object_07,object_06,638.30000001192,5,1,338.80000001192,0.7777777777777778,1,object_01,5,219,0,7,2,library_4,1,memory-2step-stake-s,517,1209735,0.0-19.0-0.0-0.23,A12HWPFXQPITHD,3HRWUH63RXIZS6U0Z3EY966PXK25N4,3U4J9857OIRF0KHGA8TO5FGE1D17BB,5,6
24,4,object_09,object_04,727.90000003576,7,1,559.0,0.8888888888888888,1,object_01,1,227,0,8,2,restaurant_7,1,memory-2step-stake-s,518,1218319,0.0-19.0-0.0-0.24,A12HWPFXQPITHD,3HRWUH63RXIZS6U0Z3EY966PXK25N4,3U4J9857OIRF0KHGA8TO5FGE1D17BB,7,8
25,3,object_06,object_07,350.19999998808,5,2,465.5,0.5555555555555556,1,object_01,5,252,0,5,7,library_5,1,memory-2step-stake-s,519,1226517,0.0-19.0-0.0-0.25,A12HWPFXQPITHD,3HRWUH63RXIZS6U0Z3EY966PXK25N4,3U4J9857OIRF0KHGA8TO5FGE1D17BB,6,5
26,2,object_03,object_10,951.30000001192,3,1,803.30000001192,0.4444444444444444,1,object_01,1,256,0,4,7,forest_4,1,memory-2step-stake-s,520,1234947,0.0-19.0-0.0-0.26,A12HWPFXQPITHD,3HRWUH63RXIZS6U0Z3EY966PXK25N4,3U4J9857OIRF0KHGA8TO5FGE1D17BB,3,4
27,4,object_09,object_04,709.59999996424,7,1,454.70000004768,0.7777777777777778,1,object_01,5,291,0,7,9,restaurant_2,1,memory-2step-stake-s,521,1243340,0.0-19.0-0.0-0.27,A12HWPFXQPITHD,3HRWUH63RXIZS6U0Z3EY966PXK25N4,3U4J9857OIRF0KHGA8TO5FGE1D17BB,7,8
28,1,object_05,object_08,666.69999998808,2,1,565.09999996424,0.8888888888888888,2,object_02,1,299,0,8,8,desert_5,1,memory-2step-stake-s,522,1251930,0.0-19.0-0.0-0.28,A12HWPFXQPITHD,3HRWUH63RXIZS6U0Z3EY966PXK25N4,3U4J9857OIRF0KHGA8TO5FGE1D17BB,2,1
29,2,object_10,object_03,821.0,3,2,439.5,0.5555555555555556,1,object_01,5,324,0,5,3,forest_2,1,memory-2step-stake-s,523,1260094,0.0-19.0-0.0-0.29,A12HWPFXQPITHD,3HRWUH63RXIZS6U0Z3EY966PXK25N4,3U4J9857OIRF0KHGA8TO5FGE1D17BB,4,3
30,4,object_09,object_04,593.5,7,1,461.10000002384,0.1111111111111111,1,object_01,5,329,0,1,2,restaurant_2,1,memory-2step-stake-s,524,1267878,0.0-19.0-0.0-0.30,A12HWPFXQPITHD,3HRWUH63RXIZS6U0Z3EY966PXK25N4,3U4J9857OIRF0KHGA8TO5FGE1D17BB,7,8
31,1,object_05,object_08,597.0,2,1,464.19999998808,0.2222222222222222,2,object_02,1,331,0,3,2,desert_1,1,memory-2step-stake-s,525,1275760,0.0-19.0-0.0-0.31,A12HWPFXQPITHD,3HRWUH63RXIZS6U0Z3EY966PXK25N4,3U4J9857OIRF0KHGA8TO5FGE1D17BB,2,1
32,4,object_04,object_09,763.40000003576,7,2,319.5,0.6666666666666666,1,object_01,5,361,0,6,5,restaurant_3,1,memory-2step-stake-s,526,1283900,0.0-19.0-0.0-0.32,A12HWPFXQPITHD,3HRWUH63RXIZS6U0Z3EY966PXK25N4,3U4J9857OIRF0KHGA8TO5FGE1D17BB,8,7
33,3,object_07,object_06,857.70000004768,6,2,458.60000002384,0.6666666666666666,2,object_02,5,391,0,5,6,library_5,1,memory-2step-stake-s,527,1292185,0.0-19.0-0.0-0.33,A12HWPFXQPITHD,3HRWUH63RXIZS6U0Z3EY966PXK25N4,3U4J9857OIRF0KHGA8TO5FGE1D17BB,5,6
34,3,object_07,object_06,565.40000003576,6,2,296.59999996424,0.7777777777777778,2,object_02,5,426,0,5,7,library_5,1,memory-2step-stake-s,528,1300401,0.0-19.0-0.0-0.34,A12HWPFXQPITHD,3HRWUH63RXIZS6U0Z3EY966PXK25N4,3U4J9857OIRF0KHGA8TO5FGE1D17BB,5,6
35,1,object_05,object_08,689.5,2,1,612.90000003576,1.0,2,object_02,1,435,0,5,9,desert_4,1,memory-2step-stake-s,529,1309154,0.0-19.0-0.0-0.35,A12HWPFXQPITHD,3HRWUH63RXIZS6U0Z3EY966PXK25N4,3U4J9857OIRF0KHGA8TO5FGE1D17BB,2,1
36,4,object_09,object_04,526.69999998808,7,1,353.69999998808,0.5555555555555556,1,object_01,5,460,0,5,8,restaurant_2,1,memory-2step-stake-s,530,1317225,0.0-19.0-0.0-0.36,A12HWPFXQPITHD,3HRWUH63RXIZS6U0Z3EY966PXK25N4,3U4J9857OIRF0KHGA8TO5FGE1D17BB,7,8
37,4,object_04,object_09,714.80000001192,7,2,493.0,0.4444444444444444,1,object_01,5,480,0,4,8,restaurant_1,1,memory-2step-stake-s,531,1325341,0.0-19.0-0.0-0.37,A12HWPFXQPITHD,3HRWUH63RXIZS6U0Z3EY966PXK25N4,3U4J9857OIRF0KHGA8TO5FGE1D17BB,8,7
38,4,object_04,object_09,585.60000002384,8,1,330.39999997616,0.7777777777777778,2,object_02,5,515,0,3,7,restaurant_7,1,memory-2step-stake-s,532,1333596,0.0-19.0-0.0-0.38,A12HWPFXQPITHD,3HRWUH63RXIZS6U0Z3EY966PXK25N4,3U4J9857OIRF0KHGA8TO5FGE1D17BB,8,7
39,2,object_03,object_10,687.40000003576,4,2,473.0,0.3333333333333333,2,object_02,1,518,0,1,3,forest_4,1,memory-2step-stake-s,533,1341604,0.0-19.0-0.0-0.39,A12HWPFXQPITHD,3HRWUH63RXIZS6U0Z3EY966PXK25N4,3U4J9857OIRF0KHGA8TO5FGE1D17BB,3,4
40,2,object_10,object_03,630.09999996424,4,1,433.80000001192,0.5555555555555556,2,object_02,1,523,0,5,5,forest_2,1,memory-2step-stake-s,534,1349763,0.0-19.0-0.0-0.40,A12HWPFXQPITHD,3HRWUH63RXIZS6U0Z3EY966PXK25N4,3U4J9857OIRF0KHGA8TO5FGE1D17BB,4,3
41,1,object_05,object_08,835.5,1,2,624.60000002384,0.8888888888888888,1,object_01,5,563,0,8,4,desert_1,1,memory-2step-stake-s,535,1358409,0.0-19.0-0.0-0.41,A12HWPFXQPITHD,3HRWUH63RXIZS6U0Z3EY966PXK25N4,3U4J9857OIRF0KHGA8TO5FGE1D17BB,2,1
42,2,object_03,object_10,598.0,3,1,406.90000003576,0.8888888888888888,1,object_01,1,571,0,8,3,forest_4,1,memory-2step-stake-s,536,1366837,0.0-19.0-0.0-0.42,A12HWPFXQPITHD,3HRWUH63RXIZS6U0Z3EY966PXK25N4,3U4J9857OIRF0KHGA8TO5FGE1D17BB,3,4
43,2,object_03,object_10,625.30000001192,4,2,419.60000002384,0.4444444444444444,2,object_02,1,575,0,7,4,forest_4,1,memory-2step-stake-s,537,1374874,0.0-19.0-0.0-0.43,A12HWPFXQPITHD,3HRWUH63RXIZS6U0Z3EY966PXK25N4,3U4J9857OIRF0KHGA8TO5FGE1D17BB,3,4
44,2,object_10,object_03,540.39999997616,4,1,414.80000001192,0.3333333333333333,2,object_02,1,578,0,8,3,forest_1,1,memory-2step-stake-s,538,1382818,0.0-19.0-0.0-0.44,A12HWPFXQPITHD,3HRWUH63RXIZS6U0Z3EY966PXK25N4,3U4J9857OIRF0KHGA8TO5FGE1D17BB,4,3
45,4,object_04,object_09,821.60000002384,7,2,465.19999998808,0.5555555555555556,1,object_01,5,603,0,5,3,restaurant_7,1,memory-2step-stake-s,539,1391004,0.0-19.0-0.0-0.45,A12HWPFXQPITHD,3HRWUH63RXIZS6U0Z3EY966PXK25N4,3U4J9857OIRF0KHGA8TO5FGE1D17BB,8,7
46,3,object_07,object_06,699.70000004768,5,1,445.5,0.4444444444444444,1,object_01,5,623,0,4,2,library_2,1,memory-2step-stake-s,540,1399078,0.0-19.0-0.0-0.46,A12HWPFXQPITHD,3HRWUH63RXIZS6U0Z3EY966PXK25N4,3U4J9857OIRF0KHGA8TO5FGE1D17BB,5,6
47,4,object_09,object_04,656.10000002384,7,1,713.80000001192,0.5555555555555556,1,object_01,5,648,0,5,2,restaurant_1,1,memory-2step-stake-s,541,1407523,0.0-19.0-0.0-0.47,A12HWPFXQPITHD,3HRWUH63RXIZS6U0Z3EY966PXK25N4,3U4J9857OIRF0KHGA8TO5FGE1D17BB,7,8
48,1,object_08,object_05,856.5,2,2,524.5,0.1111111111111111,2,object_02,1,649,0,4,1,desert_5,1,memory-2step-stake-s,542,1415364,0.0-19.0-0.0-0.48,A12HWPFXQPITHD,3HRWUH63RXIZS6U0Z3EY966PXK25N4,3U4J9857OIRF0KHGA8TO5FGE1D17BB,1,2
49,3,object_06,object_07,651.19999998808,6,1,597.10000002384,0.2222222222222222,2,object_02,5,659,0,6,2,library_2,1,memory-2step-stake-s,543,1423380,0.0-19.0-0.0-0.49,A12HWPFXQPITHD,3HRWUH63RXIZS6U0Z3EY966PXK25N4,3U4J9857OIRF0KHGA8TO5FGE1D17BB,6,5
50,3,object_06,object_07,850.70000004768,6,1,685.39999997616,0.3333333333333333,2,object_02,5,674,0,6,3,library_2,1,memory-2step-stake-s,544,1431584,0.0-19.0-0.0-0.50,A12HWPFXQPITHD,3HRWUH63RXIZS6U0Z3EY966PXK25N4,3U4J9857OIRF0KHGA8TO5FGE1D17BB,6,5
51,3,object_06,object_07,1158.3000000119,5,2,370.89999997616,0.5555555555555556,1,object_01,5,699,0,5,3,library_2,1,memory-2step-stake-s,545,1439687,0.0-19.0-0.0-0.51,A12HWPFXQPITHD,3HRWUH63RXIZS6U0Z3EY966PXK25N4,3U4J9857OIRF0KHGA8TO5FGE1D17BB,6,5
52,3,object_07,object_06,1055.7999999523,5,1,312.60000002384,0.6666666666666666,1,object_01,1,705,0,6,2,library_5,1,memory-2step-stake-s,546,1447828,0.0-19.0-0.0-0.52,A12HWPFXQPITHD,3HRWUH63RXIZS6U0Z3EY966PXK25N4,3U4J9857OIRF0KHGA8TO5FGE1D17BB,5,6
53,1,object_05,object_08,873.90000003576,2,1,306.80000001192,0.4444444444444444,2,object_02,1,709,0,5,4,desert_5,1,memory-2step-stake-s,547,1455767,0.0-19.0-0.0-0.53,A12HWPFXQPITHD,3HRWUH63RXIZS6U0Z3EY966PXK25N4,3U4J9857OIRF0KHGA8TO5FGE1D17BB,2,1
54,4,object_09,object_04,817.09999996424,8,2,468.10000002384,0.2222222222222222,2,object_02,1,711,0,5,2,restaurant_7,1,memory-2step-stake-s,548,1463648,0.0-19.0-0.0-0.54,A12HWPFXQPITHD,3HRWUH63RXIZS6U0Z3EY966PXK25N4,3U4J9857OIRF0KHGA8TO5FGE1D17BB,7,8
55,1,object_08,object_05,819.39999997616,1,1,407.29999995232,0.4444444444444444,1,object_01,1,715,0,4,2,desert_1,1,memory-2step-stake-s,549,1471676,0.0-19.0-0.0-0.55,A12HWPFXQPITHD,3HRWUH63RXIZS6U0Z3EY966PXK25N4,3U4J9857OIRF0KHGA8TO5FGE1D17BB,1,2
56,2,object_10,object_03,711.89999997616,4,1,283.79999995232,0.3333333333333333,2,object_02,5,730,0,8,3,forest_2,1,memory-2step-stake-s,550,1479479,0.0-19.0-0.0-0.56,A12HWPFXQPITHD,3HRWUH63RXIZS6U0Z3EY966PXK25N4,3U4J9857OIRF0KHGA8TO5FGE1D17BB,4,3
57,2,object_03,object_10,637.40000003576,3,1,255.20000004768,0.5555555555555556,1,object_01,5,755,0,5,5,forest_1,1,memory-2step-stake-s,551,1487474,0.0-19.0-0.0-0.57,A12HWPFXQPITHD,3HRWUH63RXIZS6U0Z3EY966PXK25N4,3U4J9857OIRF0KHGA8TO5FGE1D17BB,3,4
58,3,object_07,object_06,962.60000002384,5,1,306.89999997616,0.5555555555555556,1,object_01,5,780,0,5,3,library_4,1,memory-2step-stake-s,552,1495501,0.0-19.0-0.0-0.58,A12HWPFXQPITHD,3HRWUH63RXIZS6U0Z3EY966PXK25N4,3U4J9857OIRF0KHGA8TO5FGE1D17BB,5,6
59,1,object_08,object_05,906.10000002384,2,2,629.40000003576,0.3333333333333333,2,object_02,1,783,0,6,3,desert_4,1,memory-2step-stake-s,553,1503658,0.0-19.0-0.0-0.59,A12HWPFXQPITHD,3HRWUH63RXIZS6U0Z3EY966PXK25N4,3U4J9857OIRF0KHGA8TO5FGE1D17BB,1,2
60,3,object_06,object_07,1115.8000000119,6,1,413.69999998808,0.3333333333333333,2,object_02,1,786,0,5,3,library_4,1,memory-2step-stake-s,554,1511590,0.0-19.0-0.0-0.60,A12HWPFXQPITHD,3HRWUH63RXIZS6U0Z3EY966PXK25N4,3U4J9857OIRF0KHGA8TO5FGE1D17BB,6,5
61,1,object_05,object_08,864.79999995232,1,2,403.30000001192,0.7777777777777778,1,object_01,1,793,0,7,7,desert_3,1,memory-2step-stake-s,555,1519915,0.0-19.0-0.0-0.61,A12HWPFXQPITHD,3HRWUH63RXIZS6U0Z3EY966PXK25N4,3U4J9857OIRF0KHGA8TO5FGE1D17BB,2,1
62,2,object_10,object_03,980.30000001192,4,1,263.80000001192,0.6666666666666666,2,object_02,1,799,0,7,6,forest_8,1,memory-2step-stake-s,556,1528008,0.0-19.0-0.0-0.62,A12HWPFXQPITHD,3HRWUH63RXIZS6U0Z3EY966PXK25N4,3U4J9857OIRF0KHGA8TO5FGE1D17BB,4,3
63,4,object_04,object_09,773.19999998808,7,2,280.30000001192,1.0,1,object_01,5,844,0,9,5,restaurant_3,1,memory-2step-stake-s,557,1536413,0.0-19.0-0.0-0.63,A12HWPFXQPITHD,3HRWUH63RXIZS6U0Z3EY966PXK25N4,3U4J9857OIRF0KHGA8TO5FGE1D17BB,8,7
64,4,object_09,object_04,681.10000002384,7,1,261.10000002384,1.0,1,object_01,5,889,0,9,6,restaurant_7,1,memory-2step-stake-s,558,1544795,0.0-19.0-0.0-0.64,A12HWPFXQPITHD,3HRWUH63RXIZS6U0Z3EY966PXK25N4,3U4J9857OIRF0KHGA8TO5FGE1D17BB,7,8
65,4,object_09,object_04,733.39999997616,7,1,238.39999997616,0.8888888888888888,1,object_01,5,929,0,8,8,restaurant_3,1,memory-2step-stake-s,559,1553057,0.0-19.0-0.0-0.65,A12HWPFXQPITHD,3HRWUH63RXIZS6U0Z3EY966PXK25N4,3U4J9857OIRF0KHGA8TO5FGE1D17BB,7,8
66,1,object_08,object_05,920.0,2,2,219.40000003576,0.7777777777777778,2,object_02,1,936,0,4,7,desert_3,1,memory-2step-stake-s,560,1561196,0.0-19.0-0.0-0.66,A12HWPFXQPITHD,3HRWUH63RXIZS6U0Z3EY966PXK25N4,3U4J9857OIRF0KHGA8TO5FGE1D17BB,1,2
67,3,object_06,object_07,1011.3000000119,6,1,303.09999996424,0.5555555555555556,2,object_02,5,961,0,6,5,library_5,1,memory-2step-stake-s,561,1569216,0.0-19.0-0.0-0.67,A12HWPFXQPITHD,3HRWUH63RXIZS6U0Z3EY966PXK25N4,3U4J9857OIRF0KHGA8TO5FGE1D17BB,6,5
68,3,object_07,object_06,1206.7999999523,5,1,367.5,0.6666666666666666,1,object_01,5,991,0,6,7,library_3,1,memory-2step-stake-s,562,1577412,0.0-19.0-0.0-0.68,A12HWPFXQPITHD,3HRWUH63RXIZS6U0Z3EY966PXK25N4,3U4J9857OIRF0KHGA8TO5FGE1D17BB,5,6
69,1,object_05,object_08,1168.0,2,1,315.39999997616,1.0,2,object_02,1,1000,0,6,9,desert_4,1,memory-2step-stake-s,563,1585873,0.0-19.0-0.0-0.69,A12HWPFXQPITHD,3HRWUH63RXIZS6U0Z3EY966PXK25N4,3U4J9857OIRF0KHGA8TO5FGE1D17BB,2,1
70,4,object_09,object_04,670.19999998808,7,1,153.0,0.7777777777777778,1,object_01,5,1035,0,7,8,restaurant_2,1,memory-2step-stake-s,564,1593961,0.0-19.0-0.0-0.70,A12HWPFXQPITHD,3HRWUH63RXIZS6U0Z3EY966PXK25N4,3U4J9857OIRF0KHGA8TO5FGE1D17BB,7,8
71,4,object_09,object_04,467.5,8,2,266.30000001192,0.7777777777777778,2,object_02,5,1070,0,7,7,restaurant_2,1,memory-2step-stake-s,565,1602146,0.0-19.0-0.0-0.71,A12HWPFXQPITHD,3HRWUH63RXIZS6U0Z3EY966PXK25N4,3U4J9857OIRF0KHGA8TO5FGE1D17BB,7,8
72,2,object_03,object_10,905.0,4,2,259.90000003576,0.6666666666666666,2,object_02,1,1076,0,8,6,forest_4,1,memory-2step-stake-s,566,1610219,0.0-19.0-0.0-0.72,A12HWPFXQPITHD,3HRWUH63RXIZS6U0Z3EY966PXK25N4,3U4J9857OIRF0KHGA8TO5FGE1D17BB,3,4
73,3,object_07,object_06,1267.6000000238,6,2,267.89999997616,0.7777777777777778,2,object_02,5,1111,0,7,7,library_2,1,memory-2step-stake-s,567,1618408,0.0-19.0-0.0-0.73,A12HWPFXQPITHD,3HRWUH63RXIZS6U0Z3EY966PXK25N4,3U4J9857OIRF0KHGA8TO5FGE1D17BB,5,6
74,2,object_03,object_10,926.80000001192,4,2,1295.7000000477,0.4444444444444444,2,object_02,1,1115,0,7,4,forest_4,1,memory-2step-stake-s,568,1627328,0.0-19.0-0.0-0.74,A12HWPFXQPITHD,3HRWUH63RXIZS6U0Z3EY966PXK25N4,3U4J9857OIRF0KHGA8TO5FGE1D17BB,3,4
75,2,object_10,object_03,896.19999998808,3,2,340.5,0.8888888888888888,1,object_01,1,1123,0,8,3,forest_8,1,memory-2step-stake-s,569,1635688,0.0-19.0-0.0-0.75,A12HWPFXQPITHD,3HRWUH63RXIZS6U0Z3EY966PXK25N4,3U4J9857OIRF0KHGA8TO5FGE1D17BB,4,3
76,1,object_08,object_05,702.0,1,1,294.89999997616,0.6666666666666666,1,object_01,1,1129,0,6,1,desert_3,1,memory-2step-stake-s,570,1643803,0.0-19.0-0.0-0.76,A12HWPFXQPITHD,3HRWUH63RXIZS6U0Z3EY966PXK25N4,3U4J9857OIRF0KHGA8TO5FGE1D17BB,1,2
77,3,object_07,object_06,1083.5,6,2,337.40000003576,0.3333333333333333,2,object_02,5,1144,0,6,3,library_4,1,memory-2step-stake-s,571,1651653,0.0-19.0-0.0-0.77,A12HWPFXQPITHD,3HRWUH63RXIZS6U0Z3EY966PXK25N4,3U4J9857OIRF0KHGA8TO5FGE1D17BB,5,6
78,1,object_08,object_05,537.0,1,1,218.30000001192,1.0,1,object_01,5,1189,0,9,2,desert_1,1,memory-2step-stake-s,572,1659997,0.0-19.0-0.0-0.78,A12HWPFXQPITHD,3HRWUH63RXIZS6U0Z3EY966PXK25N4,3U4J9857OIRF0KHGA8TO5FGE1D17BB,1,2
79,4,object_09,object_04,1018.6000000238,7,1,293.89999997616,0.8888888888888888,1,object_01,1,1197,0,8,1,restaurant_3,1,memory-2step-stake-s,573,1668318,0.0-19.0-0.0-0.79,A12HWPFXQPITHD,3HRWUH63RXIZS6U0Z3EY966PXK25N4,3U4J9857OIRF0KHGA8TO5FGE1D17BB,7,8
80,2,object_10,object_03,838.89999997616,3,2,251.80000001192,0.5555555555555556,1,object_01,1,1202,0,5,2,forest_8,1,memory-2step-stake-s,574,1676292,0.0-19.0-0.0-0.80,A12HWPFXQPITHD,3HRWUH63RXIZS6U0Z3EY966PXK25N4,3U4J9857OIRF0KHGA8TO5FGE1D17BB,4,3
81,4,object_04,object_09,776.30000001192,7,2,267.30000001192,0.4444444444444444,1,object_01,5,1222,0,4,5,restaurant_1,1,memory-2step-stake-s,575,1684188,0.0-19.0-0.0-0.81,A12HWPFXQPITHD,3HRWUH63RXIZS6U0Z3EY966PXK25N4,3U4J9857OIRF0KHGA8TO5FGE1D17BB,8,7
82,2,object_10,object_03,735.89999997616,4,1,264.60000002384,0.4444444444444444,2,object_02,1,1226,0,5,4,forest_1,1,memory-2step-stake-s,576,1692083,0.0-19.0-0.0-0.82,A12HWPFXQPITHD,3HRWUH63RXIZS6U0Z3EY966PXK25N4,3U4J9857OIRF0KHGA8TO5FGE1D17BB,4,3
83,1,object_05,object_08,897.69999998808,2,1,924.59999996424,0.3333333333333333,2,object_02,1,1229,0,7,3,desert_4,1,memory-2step-stake-s,577,1700527,0.0-19.0-0.0-0.83,A12HWPFXQPITHD,3HRWUH63RXIZS6U0Z3EY966PXK25N4,3U4J9857OIRF0KHGA8TO5FGE1D17BB,2,1
84,4,object_04,object_09,904.70000004768,8,1,275.40000003576,0.2222222222222222,2,object_02,5,1239,0,6,2,restaurant_3,1,memory-2step-stake-s,578,1708217,0.0-19.0-0.0-0.84,A12HWPFXQPITHD,3HRWUH63RXIZS6U0Z3EY966PXK25N4,3U4J9857OIRF0KHGA8TO5FGE1D17BB,8,7
85,4,object_04,object_09,1492.3999999762,7,2,374.90000003576,0.5555555555555556,1,object_01,5,1264,0,5,2,restaurant_1,1,memory-2step-stake-s,579,1716310,0.0-19.0-0.0-0.85,A12HWPFXQPITHD,3HRWUH63RXIZS6U0Z3EY966PXK25N4,3U4J9857OIRF0KHGA8TO5FGE1D17BB,8,7
86,2,object_10,object_03,959.80000001192,3,2,363.30000001192,0.0,1,object_01,1,1264,0,0,3,forest_4,1,memory-2step-stake-s,580,1723888,0.0-19.0-0.0-0.86,A12HWPFXQPITHD,3HRWUH63RXIZS6U0Z3EY966PXK25N4,3U4J9857OIRF0KHGA8TO5FGE1D17BB,4,3
87,2,object_10,object_03,856.0,4,1,283.19999998808,0.4444444444444444,2,object_02,5,1284,0,5,4,forest_2,1,memory-2step-stake-s,581,1731803,0.0-19.0-0.0-0.87,A12HWPFXQPITHD,3HRWUH63RXIZS6U0Z3EY966PXK25N4,3U4J9857OIRF0KHGA8TO5FGE1D17BB,4,3
88,3,object_06,object_07,887.89999997616,6,1,256.69999998808,0.6666666666666666,2,object_02,5,1314,0,6,6,library_3,1,memory-2step-stake-s,582,1739887,0.0-19.0-0.0-0.88,A12HWPFXQPITHD,3HRWUH63RXIZS6U0Z3EY966PXK25N4,3U4J9857OIRF0KHGA8TO5FGE1D17BB,6,5
89,2,object_03,object_10,877.10000002384,4,2,230.5,0.1111111111111111,2,object_02,1,1315,0,8,1,forest_8,1,memory-2step-stake-s,583,1747435,0.0-19.0-0.0-0.89,A12HWPFXQPITHD,3HRWUH63RXIZS6U0Z3EY966PXK25N4,3U4J9857OIRF0KHGA8TO5FGE1D17BB,3,4
90,1,object_08,object_05,998.39999997616,1,1,249.79999995232,0.7777777777777778,1,object_01,1,1322,0,7,3,desert_3,1,memory-2step-stake-s,584,1755605,0.0-19.0-0.0-0.90,A12HWPFXQPITHD,3HRWUH63RXIZS6U0Z3EY966PXK25N4,3U4J9857OIRF0KHGA8TO5FGE1D17BB,1,2
91,3,object_07,object_06,1402.3999999762,5,1,397.60000002384,0.8888888888888888,1,object_01,1,1330,0,8,2,library_5,1,memory-2step-stake-s,585,1764026,0.0-19.0-0.0-0.91,A12HWPFXQPITHD,3HRWUH63RXIZS6U0Z3EY966PXK25N4,3U4J9857OIRF0KHGA8TO5FGE1D17BB,5,6
92,4,object_04,object_09,788.0,7,2,261.69999998808,0.7777777777777778,1,object_01,5,1365,0,7,2,restaurant_3,1,memory-2step-stake-s,586,1772212,0.0-19.0-0.0-0.92,A12HWPFXQPITHD,3HRWUH63RXIZS6U0Z3EY966PXK25N4,3U4J9857OIRF0KHGA8TO5FGE1D17BB,8,7
93,1,object_08,object_05,729.5,1,1,389.0,0.7777777777777778,1,object_01,1,1372,0,7,5,desert_1,1,memory-2step-stake-s,587,1780522,0.0-19.0-0.0-0.93,A12HWPFXQPITHD,3HRWUH63RXIZS6U0Z3EY966PXK25N4,3U4J9857OIRF0KHGA8TO5FGE1D17BB,1,2
94,4,object_09,object_04,805.30000001192,7,1,86.400000035763,0.6666666666666666,1,object_01,5,1402,0,6,5,restaurant_3,1,memory-2step-stake-s,588,1788434,0.0-19.0-0.0-0.94,A12HWPFXQPITHD,3HRWUH63RXIZS6U0Z3EY966PXK25N4,3U4J9857OIRF0KHGA8TO5FGE1D17BB,7,8
95,2,object_10,object_03,986.90000003576,3,2,252.60000002384,0.5555555555555556,1,object_01,5,1427,0,5,2,forest_2,1,memory-2step-stake-s,589,1796411,0.0-19.0-0.0-0.95,A12HWPFXQPITHD,3HRWUH63RXIZS6U0Z3EY966PXK25N4,3U4J9857OIRF0KHGA8TO5FGE1D17BB,4,3
96,4,object_09,object_04,794.69999998808,8,2,111.0,0.2222222222222222,2,object_02,5,1437,0,7,2,restaurant_3,1,memory-2step-stake-s,590,1803938,0.0-19.0-0.0-0.96,A12HWPFXQPITHD,3HRWUH63RXIZS6U0Z3EY966PXK25N4,3U4J9857OIRF0KHGA8TO5FGE1D17BB,7,8
97,3,object_06,object_07,1190.6000000238,6,1,264.30000001192,0.2222222222222222,2,object_02,5,1447,0,8,2,library_3,1,memory-2step-stake-s,591,1811639,0.0-19.0-0.0-0.97,A12HWPFXQPITHD,3HRWUH63RXIZS6U0Z3EY966PXK25N4,3U4J9857OIRF0KHGA8TO5FGE1D17BB,6,5
98,4,object_09,object_04,856.40000003576,8,2,259.40000003576,0.5555555555555556,2,object_02,5,1472,0,7,5,restaurant_1,1,memory-2step-stake-s,592,1819625,0.0-19.0-0.0-0.98,A12HWPFXQPITHD,3HRWUH63RXIZS6U0Z3EY966PXK25N4,3U4J9857OIRF0KHGA8TO5FGE1D17BB,7,8
99,1,object_05,object_08,1049.4000000358,2,1,290.30000001192,0.4444444444444444,2,object_02,1,1476,0,8,4,desert_1,1,memory-2step-stake-s,593,1827531,0.0-19.0-0.0-0.99,A12HWPFXQPITHD,3HRWUH63RXIZS6U0Z3EY966PXK25N4,3U4J9857OIRF0KHGA8TO5FGE1D17BB,2,1
100,1,object_08,object_05,724.60000002384,1,1,328.10000002384,0.7777777777777778,1,object_01,1,1483,0,7,5,desert_5,1,memory-2step-stake-s,594,1835784,0.0-19.0-0.0-0.100,A12HWPFXQPITHD,3HRWUH63RXIZS6U0Z3EY966PXK25N4,3U4J9857OIRF0KHGA8TO5FGE1D17BB,1,2
101,1,object_05,object_08,665.09999996424,1,2,298.09999996424,0.8888888888888888,1,object_01,1,1491,0,8,4,desert_1,1,memory-2step-stake-s,595,1844114,0.0-19.0-0.0-0.101,A12HWPFXQPITHD,3HRWUH63RXIZS6U0Z3EY966PXK25N4,3U4J9857OIRF0KHGA8TO5FGE1D17BB,2,1
102,1,object_05,object_08,534.70000004768,1,2,569.0,0.7777777777777778,1,object_01,1,1498,0,7,5,desert_4,1,memory-2step-stake-s,596,1852617,0.0-19.0-0.0-0.102,A12HWPFXQPITHD,3HRWUH63RXIZS6U0Z3EY966PXK25N4,3U4J9857OIRF0KHGA8TO5FGE1D17BB,2,1
103,1,object_08,object_05,836.69999998808,1,1,456.19999998808,0.8888888888888888,1,object_01,1,1506,0,8,5,desert_3,1,memory-2step-stake-s,597,1861096,0.0-19.0-0.0-0.103,A12HWPFXQPITHD,3HRWUH63RXIZS6U0Z3EY966PXK25N4,3U4J9857OIRF0KHGA8TO5FGE1D17BB,1,2
104,4,object_04,object_09,1125.3999999762,8,1,255.10000002384,0.4444444444444444,2,object_02,5,1526,0,6,4,restaurant_7,1,memory-2step-stake-s,598,1868970,0.0-19.0-0.0-0.104,A12HWPFXQPITHD,3HRWUH63RXIZS6U0Z3EY966PXK25N4,3U4J9857OIRF0KHGA8TO5FGE1D17BB,8,7
105,1,object_05,object_08,414.30000001192,1,2,818.20000004768,0.6666666666666666,1,object_01,5,1556,0,6,4,desert_1,1,memory-2step-stake-s,599,1877606,0.0-19.0-0.0-0.105,A12HWPFXQPITHD,3HRWUH63RXIZS6U0Z3EY966PXK25N4,3U4J9857OIRF0KHGA8TO5FGE1D17BB,2,1
106,1,object_08,object_05,930.29999995232,1,1,293.0,0.3333333333333333,1,object_01,1,1559,0,3,6,desert_3,1,memory-2step-stake-s,600,1885415,0.0-19.0-0.0-0.106,A12HWPFXQPITHD,3HRWUH63RXIZS6U0Z3EY966PXK25N4,3U4J9857OIRF0KHGA8TO5FGE1D17BB,1,2
107,3,object_07,object_06,1077.6999999881,5,1,344.19999998808,0.3333333333333333,1,object_01,5,1574,0,3,4,library_5,1,memory-2step-stake-s,601,1893278,0.0-19.0-0.0-0.107,A12HWPFXQPITHD,3HRWUH63RXIZS6U0Z3EY966PXK25N4,3U4J9857OIRF0KHGA8TO5FGE1D17BB,5,6
108,3,object_07,object_06,886.19999998808,6,2,316.40000003576,0.4444444444444444,2,object_02,5,1594,0,4,4,library_4,1,memory-2step-stake-s,602,1901219,0.0-19.0-0.0-0.108,A12HWPFXQPITHD,3HRWUH63RXIZS6U0Z3EY966PXK25N4,3U4J9857OIRF0KHGA8TO5FGE1D17BB,5,6
109,4,object_09,object_04,953.0,8,2,244.60000002384,0.5555555555555556,2,object_02,5,1619,0,1,5,restaurant_1,1,memory-2step-stake-s,603,1909191,0.0-19.0-0.0-0.109,A12HWPFXQPITHD,3HRWUH63RXIZS6U0Z3EY966PXK25N4,3U4J9857OIRF0KHGA8TO5FGE1D17BB,7,8
110,3,object_07,object_06,685.69999998808,6,2,799.69999998808,0.7777777777777778,2,object_02,5,1654,0,1,7,library_3,1,memory-2step-stake-s,604,1917915,0.0-19.0-0.0-0.110,A12HWPFXQPITHD,3HRWUH63RXIZS6U0Z3EY966PXK25N4,3U4J9857OIRF0KHGA8TO5FGE1D17BB,5,6
111,3,object_07,object_06,541.19999998808,6,2,738.19999998808,0.7777777777777778,2,object_02,5,1689,0,2,7,library_2,1,memory-2step-stake-s,605,1926571,0.0-19.0-0.0-0.111,A12HWPFXQPITHD,3HRWUH63RXIZS6U0Z3EY966PXK25N4,3U4J9857OIRF0KHGA8TO5FGE1D17BB,5,6
112,1,object_08,object_05,515.69999998808,2,2,470.0,0.8888888888888888,2,object_02,5,1729,0,4,8,desert_3,1,memory-2step-stake-s,606,1935060,0.0-19.0-0.0-0.112,A12HWPFXQPITHD,3HRWUH63RXIZS6U0Z3EY966PXK25N4,3U4J9857OIRF0KHGA8TO5FGE1D17BB,1,2
113,3,object_06,object_07,671.89999997616,6,1,747.30000001192,0.7777777777777778,2,object_02,5,1764,0,3,7,library_4,1,memory-2step-stake-s,607,1943741,0.0-19.0-0.0-0.113,A12HWPFXQPITHD,3HRWUH63RXIZS6U0Z3EY966PXK25N4,3U4J9857OIRF0KHGA8TO5FGE1D17BB,6,5
114,3,object_07,object_06,776.89999997616,6,2,475.10000002384,0.6666666666666666,2,object_02,5,1794,0,2,6,library_5,1,memory-2step-stake-s,608,1952037,0.0-19.0-0.0-0.114,A12HWPFXQPITHD,3HRWUH63RXIZS6U0Z3EY966PXK25N4,3U4J9857OIRF0KHGA8TO5FGE1D17BB,5,6
115,4,object_04,object_09,832.40000003576,8,1,497.90000003576,0.5555555555555556,2,object_02,1,1799,0,1,5,restaurant_3,1,memory-2step-stake-s,609,1960264,0.0-19.0-0.0-0.115,A12HWPFXQPITHD,3HRWUH63RXIZS6U0Z3EY966PXK25N4,3U4J9857OIRF0KHGA8TO5FGE1D17BB,8,7
116,4,object_04,object_09,725.89999997616,7,2,248.69999998808,0.1111111111111111,1,object_01,5,1804,0,1,5,restaurant_3,1,memory-2step-stake-s,610,1967831,0.0-19.0-0.0-0.116,A12HWPFXQPITHD,3HRWUH63RXIZS6U0Z3EY966PXK25N4,3U4J9857OIRF0KHGA8TO5FGE1D17BB,8,7
117,2,object_10,object_03,801.40000003576,4,1,28.599999964237,0.3333333333333333,2,object_02,1,1807,0,1,3,forest_1,1,memory-2step-stake-s,611,1975380,0.0-19.0-0.0-0.117,A12HWPFXQPITHD,3HRWUH63RXIZS6U0Z3EY966PXK25N4,3U4J9857OIRF0KHGA8TO5FGE1D17BB,4,3
118,1,object_08,object_05,836.79999995232,1,1,103.10000002384,0.3333333333333333,1,object_01,1,1810,0,3,2,desert_1,1,memory-2step-stake-s,612,1982997,0.0-19.0-0.0-0.118,A12HWPFXQPITHD,3HRWUH63RXIZS6U0Z3EY966PXK25N4,3U4J9857OIRF0KHGA8TO5FGE1D17BB,1,2
119,1,object_05,object_08,1039.9000000358,2,1,329.60000002384,0.3333333333333333,2,object_02,5,1825,0,4,3,desert_3,1,memory-2step-stake-s,613,1990855,0.0-19.0-0.0-0.119,A12HWPFXQPITHD,3HRWUH63RXIZS6U0Z3EY966PXK25N4,3U4J9857OIRF0KHGA8TO5FGE1D17BB,2,1
120,4,object_04,object_09,809.70000004768,7,2,27.800000011921,0.5555555555555556,1,object_01,5,1850,0,5,2,restaurant_7,1,memory-2step-stake-s,614,1998601,0.0-19.0-0.0-0.120,A12HWPFXQPITHD,3HRWUH63RXIZS6U0Z3EY966PXK25N4,3U4J9857OIRF0KHGA8TO5FGE1D17BB,8,7
121,1,object_05,object_08,630.39999997616,1,2,308.5,0.5555555555555556,1,object_01,1,1855,0,5,3,desert_3,1,memory-2step-stake-s,615,2006631,0.0-19.0-0.0-0.121,A12HWPFXQPITHD,3HRWUH63RXIZS6U0Z3EY966PXK25N4,3U4J9857OIRF0KHGA8TO5FGE1D17BB,2,1
122,3,object_07,object_06,929.0,5,1,272.30000001192,0.6666666666666666,1,object_01,5,1885,0,6,1,library_2,1,memory-2step-stake-s,616,2014724,0.0-19.0-0.0-0.122,A12HWPFXQPITHD,3HRWUH63RXIZS6U0Z3EY966PXK25N4,3U4J9857OIRF0KHGA8TO5FGE1D17BB,5,6
123,2,object_10,object_03,724.0,3,2,244.19999998808,0.6666666666666666,1,object_01,1,1891,0,6,1,forest_1,1,memory-2step-stake-s,617,2022788,0.0-19.0-0.0-0.123,A12HWPFXQPITHD,3HRWUH63RXIZS6U0Z3EY966PXK25N4,3U4J9857OIRF0KHGA8TO5FGE1D17BB,4,3
124,3,object_07,object_06,669.79999995232,5,1,328.5,0.8888888888888888,1,object_01,5,1931,0,8,2,library_3,1,memory-2step-stake-s,618,2031138,0.0-19.0-0.0-0.124,A12HWPFXQPITHD,3HRWUH63RXIZS6U0Z3EY966PXK25N4,3U4J9857OIRF0KHGA8TO5FGE1D17BB,5,6
125,4,object_04,object_09,898.09999996424,7,2,270.0,0.8888888888888888,1,object_01,1,1939,0,8,1,restaurant_2,1,memory-2step-stake-s,619,2039436,0.0-19.0-0.0-0.125,A12HWPFXQPITHD,3HRWUH63RXIZS6U0Z3EY966PXK25N4,3U4J9857OIRF0KHGA8TO5FGE1D17BB,8,7
126,4,object_09,object_04,708.30000001192,7,1,281.79999995232,0.8888888888888888,1,object_01,5,1979,0,8,2,restaurant_2,1,memory-2step-stake-s,620,2047755,0.0-19.0-0.0-0.126,A12HWPFXQPITHD,3HRWUH63RXIZS6U0Z3EY966PXK25N4,3U4J9857OIRF0KHGA8TO5FGE1D17BB,7,8
127,2,object_03,object_10,651.80000001192,4,2,231.10000002384,0.1111111111111111,2,object_02,1,1980,0,6,1,forest_8,1,memory-2step-stake-s,621,2055300,0.0-19.0-0.0-0.127,A12HWPFXQPITHD,3HRWUH63RXIZS6U0Z3EY966PXK25N4,3U4J9857OIRF0KHGA8TO5FGE1D17BB,3,4
128,1,object_08,object_05,681.09999996424,1,1,298.80000001192,0.5555555555555556,1,object_01,1,1985,0,5,0,desert_3,1,memory-2step-stake-s,623,2141136,0.0-19.0-0.1-0.128,A12HWPFXQPITHD,3HRWUH63RXIZS6U0Z3EY966PXK25N4,3U4J9857OIRF0KHGA8TO5FGE1D17BB,1,2
129,2,object_03,object_10,720.80000001192,4,2,432.59999996424,0.1111111111111111,2,object_02,1,1986,0,8,1,forest_1,1,memory-2step-stake-s,624,2148897,0.0-19.0-0.1-0.129,A12HWPFXQPITHD,3HRWUH63RXIZS6U0Z3EY966PXK25N4,3U4J9857OIRF0KHGA8TO5FGE1D17BB,3,4
130,2,object_03,object_10,740.89999997616,3,1,512.0,0.8888888888888888,1,object_01,1,1994,0,8,1,forest_8,1,memory-2step-stake-s,625,2157441,0.0-19.0-0.1-0.130,A12HWPFXQPITHD,3HRWUH63RXIZS6U0Z3EY966PXK25N4,3U4J9857OIRF0KHGA8TO5FGE1D17BB,3,4
131,3,object_06,object_07,834.30000001192,5,2,323.19999998808,0.7777777777777778,1,object_01,5,2029,0,7,2,library_3,1,memory-2step-stake-s,626,2165697,0.0-19.0-0.1-0.131,A12HWPFXQPITHD,3HRWUH63RXIZS6U0Z3EY966PXK25N4,3U4J9857OIRF0KHGA8TO5FGE1D17BB,6,5
132,3,object_07,object_06,757.60000002384,5,1,-1.0,0.0,1,object_01,5,2029,0,6,4,library_4,1,memory-2step-stake-s,627,2174215,0.0-19.0-0.1-0.132,A12HWPFXQPITHD,3HRWUH63RXIZS6U0Z3EY966PXK25N4,3U4J9857OIRF0KHGA8TO5FGE1D17BB,5,6
133,3,object_06,object_07,698.29999995232,5,2,276.90000003576,0.6666666666666666,1,object_01,1,2035,0,6,6,library_4,1,memory-2step-stake-s,628,2182310,0.0-19.0-0.1-0.133,A12HWPFXQPITHD,3HRWUH63RXIZS6U0Z3EY966PXK25N4,3U4J9857OIRF0KHGA8TO5FGE1D17BB,6,5
134,1,object_08,object_05,646.69999998808,1,1,338.09999996424,0.8888888888888888,1,object_01,1,2043,0,8,6,desert_3,1,memory-2step-stake-s,629,2190672,0.0-19.0-0.1-0.134,A12HWPFXQPITHD,3HRWUH63RXIZS6U0Z3EY966PXK25N4,3U4J9857OIRF0KHGA8TO5FGE1D17BB,1,2
135,2,object_03,object_10,1023.0,4,2,409.29999995232,0.8888888888888888,2,object_02,1,2051,0,9,8,forest_4,1,memory-2step-stake-s,630,2199109,0.0-19.0-0.1-0.135,A12HWPFXQPITHD,3HRWUH63RXIZS6U0Z3EY966PXK25N4,3U4J9857OIRF0KHGA8TO5FGE1D17BB,3,4
136,2,object_03,object_10,496.79999995232,4,2,276.79999995232,0.6666666666666666,2,object_02,1,2057,0,7,6,forest_1,1,memory-2step-stake-s,631,2207206,0.0-19.0-0.1-0.136,A12HWPFXQPITHD,3HRWUH63RXIZS6U0Z3EY966PXK25N4,3U4J9857OIRF0KHGA8TO5FGE1D17BB,3,4
137,1,object_08,object_05,834.39999997616,1,1,315.69999998808,1.0,1,object_01,1,2066,0,9,7,desert_4,1,memory-2step-stake-s,632,2215664,0.0-19.0-0.1-0.137,A12HWPFXQPITHD,3HRWUH63RXIZS6U0Z3EY966PXK25N4,3U4J9857OIRF0KHGA8TO5FGE1D17BB,1,2
138,2,object_10,object_03,712.69999998808,3,2,501.0,0.6666666666666666,1,object_01,1,2072,0,6,3,forest_4,1,memory-2step-stake-s,633,2224010,0.0-19.0-0.1-0.138,A12HWPFXQPITHD,3HRWUH63RXIZS6U0Z3EY966PXK25N4,3U4J9857OIRF0KHGA8TO5FGE1D17BB,4,3
139,3,object_07,object_06,672.60000002384,5,1,330.60000002384,0.8888888888888888,1,object_01,5,2112,0,8,0,library_3,1,memory-2step-stake-s,634,2232364,0.0-19.0-0.1-0.139,A12HWPFXQPITHD,3HRWUH63RXIZS6U0Z3EY966PXK25N4,3U4J9857OIRF0KHGA8TO5FGE1D17BB,5,6
140,2,object_03,object_10,625.30000001192,4,2,221.09999996424,0.2222222222222222,2,object_02,1,2114,0,9,2,forest_8,1,memory-2step-stake-s,635,2240004,0.0-19.0-0.1-0.140,A12HWPFXQPITHD,3HRWUH63RXIZS6U0Z3EY966PXK25N4,3U4J9857OIRF0KHGA8TO5FGE1D17BB,3,4
141,1,object_05,object_08,852.40000003576,1,2,390.39999997616,0.8888888888888888,1,object_01,1,2122,0,8,3,desert_4,1,memory-2step-stake-s,636,2248428,0.0-19.0-0.1-0.141,A12HWPFXQPITHD,3HRWUH63RXIZS6U0Z3EY966PXK25N4,3U4J9857OIRF0KHGA8TO5FGE1D17BB,2,1
142,3,object_06,object_07,948.5,5,2,326.5,0.8888888888888888,1,object_01,5,2162,0,8,0,library_4,1,memory-2step-stake-s,637,2256776,0.0-19.0-0.1-0.142,A12HWPFXQPITHD,3HRWUH63RXIZS6U0Z3EY966PXK25N4,3U4J9857OIRF0KHGA8TO5FGE1D17BB,6,5
143,4,object_04,object_09,844.19999998808,8,1,314.39999997616,0.1111111111111111,2,object_02,5,2167,0,9,1,restaurant_3,1,memory-2step-stake-s,638,2264421,0.0-19.0-0.1-0.143,A12HWPFXQPITHD,3HRWUH63RXIZS6U0Z3EY966PXK25N4,3U4J9857OIRF0KHGA8TO5FGE1D17BB,8,7
144,2,object_03,object_10,795.39999997616,3,1,380.5,0.8888888888888888,1,object_01,1,2175,0,8,1,forest_8,1,memory-2step-stake-s,639,2272831,0.0-19.0-0.1-0.144,A12HWPFXQPITHD,3HRWUH63RXIZS6U0Z3EY966PXK25N4,3U4J9857OIRF0KHGA8TO5FGE1D17BB,3,4
145,4,object_09,object_04,824.89999997616,7,1,386.69999998808,0.7777777777777778,1,object_01,5,2210,0,7,1,restaurant_2,1,memory-2step-stake-s,640,2281139,0.0-19.0-0.1-0.145,A12HWPFXQPITHD,3HRWUH63RXIZS6U0Z3EY966PXK25N4,3U4J9857OIRF0KHGA8TO5FGE1D17BB,7,8
146,2,object_10,object_03,843.90000003576,3,2,357.29999995232,0.8888888888888888,1,object_01,1,2218,0,8,0,forest_8,1,memory-2step-stake-s,641,2289519,0.0-19.0-0.1-0.146,A12HWPFXQPITHD,3HRWUH63RXIZS6U0Z3EY966PXK25N4,3U4J9857OIRF0KHGA8TO5FGE1D17BB,4,3
147,1,object_05,object_08,670.59999996424,1,2,67.100000023842,0.8888888888888888,1,object_01,1,2226,0,8,1,desert_3,1,memory-2step-stake-s,642,2297626,0.0-19.0-0.1-0.147,A12HWPFXQPITHD,3HRWUH63RXIZS6U0Z3EY966PXK25N4,3U4J9857OIRF0KHGA8TO5FGE1D17BB,2,1
148,4,object_04,object_09,736.5,7,2,314.10000002384,0.4444444444444444,1,object_01,5,2246,0,4,2,restaurant_1,1,memory-2step-stake-s,643,2305554,0.0-19.0-0.1-0.148,A12HWPFXQPITHD,3HRWUH63RXIZS6U0Z3EY966PXK25N4,3U4J9857OIRF0KHGA8TO5FGE1D17BB,8,7
149,2,object_03,object_10,859.60000002384,3,1,288.0,0.5555555555555556,1,object_01,1,2251,0,5,1,forest_4,1,memory-2step-stake-s,644,2313562,0.0-19.0-0.1-0.149,A12HWPFXQPITHD,3HRWUH63RXIZS6U0Z3EY966PXK25N4,3U4J9857OIRF0KHGA8TO5FGE1D17BB,3,4
150,1,object_05,object_08,415.0,1,2,291.20000004768,0.5555555555555556,1,object_01,1,2256,0,5,1,desert_3,1,memory-2step-stake-s,645,2321580,0.0-19.0-0.1-0.150,A12HWPFXQPITHD,3HRWUH63RXIZS6U0Z3EY966PXK25N4,3U4J9857OIRF0KHGA8TO5FGE1D17BB,2,1
151,2,object_10,object_03,854.5,3,2,291.59999996424,0.4444444444444444,1,object_01,5,2276,0,4,1,forest_2,1,memory-2step-stake-s,646,2329483,0.0-19.0-0.1-0.151,A12HWPFXQPITHD,3HRWUH63RXIZS6U0Z3EY966PXK25N4,3U4J9857OIRF0KHGA8TO5FGE1D17BB,4,3
152,1,object_08,object_05,710.39999997616,2,2,568.59999996424,0.1111111111111111,2,object_02,5,2281,0,4,1,desert_5,1,memory-2step-stake-s,647,2337378,0.0-19.0-0.1-0.152,A12HWPFXQPITHD,3HRWUH63RXIZS6U0Z3EY966PXK25N4,3U4J9857OIRF0KHGA8TO5FGE1D17BB,1,2
153,1,object_05,object_08,727.19999998808,1,2,378.60000002384,0.2222222222222222,1,object_01,1,2283,0,2,0,desert_5,1,memory-2step-stake-s,648,2345170,0.0-19.0-0.1-0.153,A12HWPFXQPITHD,3HRWUH63RXIZS6U0Z3EY966PXK25N4,3U4J9857OIRF0KHGA8TO5FGE1D17BB,2,1
154,2,object_10,object_03,725.5,4,1,606.60000002384,0.1111111111111111,2,object_02,1,2284,0,1,1,forest_2,1,memory-2step-stake-s,649,2353094,0.0-19.0-0.1-0.154,A12HWPFXQPITHD,3HRWUH63RXIZS6U0Z3EY966PXK25N4,3U4J9857OIRF0KHGA8TO5FGE1D17BB,4,3
155,1,object_08,object_05,737.60000002384,1,1,555.09999996424,0.4444444444444444,1,object_01,5,2304,0,4,1,desert_4,1,memory-2step-stake-s,650,2361285,0.0-19.0-0.1-0.155,A12HWPFXQPITHD,3HRWUH63RXIZS6U0Z3EY966PXK25N4,3U4J9857OIRF0KHGA8TO5FGE1D17BB,1,2
156,3,object_07,object_06,810.19999998808,5,1,276.80000001192,0.4444444444444444,1,object_01,1,2308,0,4,3,library_5,1,memory-2step-stake-s,651,2369176,0.0-19.0-0.1-0.156,A12HWPFXQPITHD,3HRWUH63RXIZS6U0Z3EY966PXK25N4,3U4J9857OIRF0KHGA8TO5FGE1D17BB,5,6
157,4,object_09,object_04,767.19999998808,7,1,250.10000002384,0.1111111111111111,1,object_01,5,2313,0,1,2,restaurant_1,1,memory-2step-stake-s,652,2376740,0.0-19.0-0.1-0.157,A12HWPFXQPITHD,3HRWUH63RXIZS6U0Z3EY966PXK25N4,3U4J9857OIRF0KHGA8TO5FGE1D17BB,7,8
158,2,object_03,object_10,892.40000003576,4,2,361.40000003576,0.3333333333333333,2,object_02,5,2328,0,0,3,forest_2,1,memory-2step-stake-s,653,2384618,0.0-19.0-0.1-0.158,A12HWPFXQPITHD,3HRWUH63RXIZS6U0Z3EY966PXK25N4,3U4J9857OIRF0KHGA8TO5FGE1D17BB,3,4
159,3,object_07,object_06,875.89999997616,6,2,267.0,0.2222222222222222,2,object_02,5,2338,0,3,2,library_3,1,memory-2step-stake-s,654,2392323,0.0-19.0-0.1-0.159,A12HWPFXQPITHD,3HRWUH63RXIZS6U0Z3EY966PXK25N4,3U4J9857OIRF0KHGA8TO5FGE1D17BB,5,6
160,4,object_04,object_09,954.59999996424,8,1,253.20000004768,0.2222222222222222,2,object_02,5,2348,0,2,2,restaurant_1,1,memory-2step-stake-s,655,2400000,0.0-19.0-0.1-0.160,A12HWPFXQPITHD,3HRWUH63RXIZS6U0Z3EY966PXK25N4,3U4J9857OIRF0KHGA8TO5FGE1D17BB,8,7
161,3,object_06,object_07,999.80000001192,5,2,281.5,0.3333333333333333,1,object_01,1,2351,0,3,1,library_5,1,memory-2step-stake-s,656,2407799,0.0-19.0-0.1-0.161,A12HWPFXQPITHD,3HRWUH63RXIZS6U0Z3EY966PXK25N4,3U4J9857OIRF0KHGA8TO5FGE1D17BB,6,5
162,4,object_04,object_09,782.40000003576,7,2,264.69999998808,0.2222222222222222,1,object_01,5,2361,0,2,2,restaurant_3,1,memory-2step-stake-s,657,2415482,0.0-19.0-0.1-0.162,A12HWPFXQPITHD,3HRWUH63RXIZS6U0Z3EY966PXK25N4,3U4J9857OIRF0KHGA8TO5FGE1D17BB,8,7
163,3,object_07,object_06,866.5,5,1,580.0,0.1111111111111111,1,object_01,1,2362,0,1,0,library_2,1,memory-2step-stake-s,658,2423380,0.0-19.0-0.1-0.163,A12HWPFXQPITHD,3HRWUH63RXIZS6U0Z3EY966PXK25N4,3U4J9857OIRF0KHGA8TO5FGE1D17BB,5,6
164,1,object_08,object_05,721.60000002384,1,1,301.5,0.0,1,object_01,1,2362,0,0,1,desert_1,1,memory-2step-stake-s,659,2430896,0.0-19.0-0.1-0.164,A12HWPFXQPITHD,3HRWUH63RXIZS6U0Z3EY966PXK25N4,3U4J9857OIRF0KHGA8TO5FGE1D17BB,1,2
165,1,object_05,object_08,991.80000001192,2,1,391.89999997616,0.0,2,object_02,1,2362,0,2,0,desert_1,1,memory-2step-stake-s,660,2438515,0.0-19.0-0.1-0.165,A12HWPFXQPITHD,3HRWUH63RXIZS6U0Z3EY966PXK25N4,3U4J9857OIRF0KHGA8TO5FGE1D17BB,2,1
166,1,object_08,object_05,541.10000002384,1,1,278.5,0.3333333333333333,1,object_01,1,2365,0,3,1,desert_5,1,memory-2step-stake-s,661,2446312,0.0-19.0-0.1-0.166,A12HWPFXQPITHD,3HRWUH63RXIZS6U0Z3EY966PXK25N4,3U4J9857OIRF0KHGA8TO5FGE1D17BB,1,2
167,2,object_03,object_10,747.60000002384,3,1,287.89999997616,0.3333333333333333,1,object_01,1,2368,0,3,1,forest_8,1,memory-2step-stake-s,662,2454133,0.0-19.0-0.1-0.167,A12HWPFXQPITHD,3HRWUH63RXIZS6U0Z3EY966PXK25N4,3U4J9857OIRF0KHGA8TO5FGE1D17BB,3,4
168,2,object_10,object_03,836.69999998808,4,1,333.39999997616,0.1111111111111111,2,object_02,1,2369,0,4,1,forest_4,1,memory-2step-stake-s,663,2461781,0.0-19.0-0.1-0.168,A12HWPFXQPITHD,3HRWUH63RXIZS6U0Z3EY966PXK25N4,3U4J9857OIRF0KHGA8TO5FGE1D17BB,4,3
169,2,object_10,object_03,866.0,3,2,267.19999998808,0.1111111111111111,1,object_01,1,2370,0,1,2,forest_1,1,memory-2step-stake-s,664,2469367,0.0-19.0-0.1-0.169,A12HWPFXQPITHD,3HRWUH63RXIZS6U0Z3EY966PXK25N4,3U4J9857OIRF0KHGA8TO5FGE1D17BB,4,3
170,1,object_08,object_05,899.70000004768,2,2,835.5,0.3333333333333333,2,object_02,1,2373,0,0,3,desert_3,1,memory-2step-stake-s,665,2477730,0.0-19.0-0.1-0.170,A12HWPFXQPITHD,3HRWUH63RXIZS6U0Z3EY966PXK25N4,3U4J9857OIRF0KHGA8TO5FGE1D17BB,1,2
171,2,object_10,object_03,1146.7999999523,4,1,332.69999998808,0.3333333333333333,2,object_02,1,2376,0,1,3,forest_8,1,memory-2step-stake-s,666,2485586,0.0-19.0-0.1-0.171,A12HWPFXQPITHD,3HRWUH63RXIZS6U0Z3EY966PXK25N4,3U4J9857OIRF0KHGA8TO5FGE1D17BB,4,3
172,3,object_06,object_07,839.09999996424,6,1,250.79999995232,0.3333333333333333,2,object_02,5,2391,0,5,3,library_5,1,memory-2step-stake-s,667,2493352,0.0-19.0-0.1-0.172,A12HWPFXQPITHD,3HRWUH63RXIZS6U0Z3EY966PXK25N4,3U4J9857OIRF0KHGA8TO5FGE1D17BB,6,5
173,4,object_09,object_04,1043.8999999762,8,2,284.89999997616,0.2222222222222222,2,object_02,5,2401,0,7,2,restaurant_2,1,memory-2step-stake-s,668,2501065,0.0-19.0-0.1-0.173,A12HWPFXQPITHD,3HRWUH63RXIZS6U0Z3EY966PXK25N4,3U4J9857OIRF0KHGA8TO5FGE1D17BB,7,8
174,3,object_07,object_06,1055.5,5,1,378.0,0.8888888888888888,1,object_01,5,2441,0,8,4,library_5,1,memory-2step-stake-s,669,2509469,0.0-19.0-0.1-0.174,A12HWPFXQPITHD,3HRWUH63RXIZS6U0Z3EY966PXK25N4,3U4J9857OIRF0KHGA8TO5FGE1D17BB,5,6
175,2,object_03,object_10,1021.6999999881,4,2,47.699999988079,0.2222222222222222,2,object_02,1,2443,0,9,2,forest_1,1,memory-2step-stake-s,670,2516941,0.0-19.0-0.1-0.175,A12HWPFXQPITHD,3HRWUH63RXIZS6U0Z3EY966PXK25N4,3U4J9857OIRF0KHGA8TO5FGE1D17BB,3,4
176,1,object_05,object_08,970.10000002384,1,2,315.59999996424,0.8888888888888888,1,object_01,1,2451,0,8,3,desert_4,1,memory-2step-stake-s,671,2525291,0.0-19.0-0.1-0.176,A12HWPFXQPITHD,3HRWUH63RXIZS6U0Z3EY966PXK25N4,3U4J9857OIRF0KHGA8TO5FGE1D17BB,2,1
177,3,object_07,object_06,937.69999998808,5,1,398.19999998808,0.8888888888888888,1,object_01,5,2491,0,8,6,library_3,1,memory-2step-stake-s,672,2533711,0.0-19.0-0.1-0.177,A12HWPFXQPITHD,3HRWUH63RXIZS6U0Z3EY966PXK25N4,3U4J9857OIRF0KHGA8TO5FGE1D17BB,5,6
178,3,object_06,object_07,1095.5999999642,5,2,370.30000001192,0.8888888888888888,1,object_01,5,2531,0,8,3,library_3,1,memory-2step-stake-s,673,2542105,0.0-19.0-0.1-0.178,A12HWPFXQPITHD,3HRWUH63RXIZS6U0Z3EY966PXK25N4,3U4J9857OIRF0KHGA8TO5FGE1D17BB,6,5
179,1,object_05,object_08,623.89999997616,1,2,89.899999976158,0.7777777777777778,1,object_01,1,2538,0,7,3,desert_5,1,memory-2step-stake-s,674,2550114,0.0-19.0-0.1-0.179,A12HWPFXQPITHD,3HRWUH63RXIZS6U0Z3EY966PXK25N4,3U4J9857OIRF0KHGA8TO5FGE1D17BB,2,1
180,4,object_04,object_09,701.39999997616,8,1,183.30000001192,0.2222222222222222,2,object_02,5,2548,0,7,2,restaurant_3,1,memory-2step-stake-s,675,2557714,0.0-19.0-0.1-0.180,A12HWPFXQPITHD,3HRWUH63RXIZS6U0Z3EY966PXK25N4,3U4J9857OIRF0KHGA8TO5FGE1D17BB,8,7
181,3,object_07,object_06,1109.8000000119,5,1,341.69999998808,0.7777777777777778,1,object_01,5,2583,0,7,1,library_4,1,memory-2step-stake-s,676,2565987,0.0-19.0-0.1-0.181,A12HWPFXQPITHD,3HRWUH63RXIZS6U0Z3EY966PXK25N4,3U4J9857OIRF0KHGA8TO5FGE1D17BB,5,6
182,3,object_06,object_07,742.0,5,2,614.5,0.6666666666666666,1,object_01,5,2613,0,6,1,library_4,1,memory-2step-stake-s,677,2574435,0.0-19.0-0.1-0.182,A12HWPFXQPITHD,3HRWUH63RXIZS6U0Z3EY966PXK25N4,3U4J9857OIRF0KHGA8TO5FGE1D17BB,6,5
183,1,object_05,object_08,730.40000003576,1,2,317.69999998808,0.8888888888888888,1,object_01,1,2621,0,8,1,desert_5,1,memory-2step-stake-s,678,2582786,0.0-19.0-0.1-0.183,A12HWPFXQPITHD,3HRWUH63RXIZS6U0Z3EY966PXK25N4,3U4J9857OIRF0KHGA8TO5FGE1D17BB,2,1
184,4,object_04,object_09,1095.3999999762,7,2,304.19999998808,1.0,1,object_01,5,2666,0,9,1,restaurant_1,1,memory-2step-stake-s,679,2591212,0.0-19.0-0.1-0.184,A12HWPFXQPITHD,3HRWUH63RXIZS6U0Z3EY966PXK25N4,3U4J9857OIRF0KHGA8TO5FGE1D17BB,8,7
185,4,object_04,object_09,948.20000004768,7,2,553.5,0.8888888888888888,1,object_01,5,2706,0,8,3,restaurant_7,1,memory-2step-stake-s,680,2599788,0.0-19.0-0.1-0.185,A12HWPFXQPITHD,3HRWUH63RXIZS6U0Z3EY966PXK25N4,3U4J9857OIRF0KHGA8TO5FGE1D17BB,8,7
186,4,object_04,object_09,462.30000001192,7,2,296.19999998808,0.7777777777777778,1,object_01,5,2741,0,7,2,restaurant_7,1,memory-2step-stake-s,681,2608027,0.0-19.0-0.1-0.186,A12HWPFXQPITHD,3HRWUH63RXIZS6U0Z3EY966PXK25N4,3U4J9857OIRF0KHGA8TO5FGE1D17BB,8,7
187,3,object_06,object_07,738.59999996424,6,1,311.0,0.2222222222222222,2,object_02,5,2751,0,5,2,library_2,1,memory-2step-stake-s,682,2615758,0.0-19.0-0.1-0.187,A12HWPFXQPITHD,3HRWUH63RXIZS6U0Z3EY966PXK25N4,3U4J9857OIRF0KHGA8TO5FGE1D17BB,6,5
188,4,object_04,object_09,738.89999997616,8,1,389.0,0.3333333333333333,2,object_02,5,2766,0,4,3,restaurant_3,1,memory-2step-stake-s,683,2623668,0.0-19.0-0.1-0.188,A12HWPFXQPITHD,3HRWUH63RXIZS6U0Z3EY966PXK25N4,3U4J9857OIRF0KHGA8TO5FGE1D17BB,8,7
189,3,object_06,object_07,1069.8999999762,5,2,284.80000001192,0.1111111111111111,1,object_01,5,2771,0,1,2,library_2,1,memory-2step-stake-s,684,2631268,0.0-19.0-0.1-0.189,A12HWPFXQPITHD,3HRWUH63RXIZS6U0Z3EY966PXK25N4,3U4J9857OIRF0KHGA8TO5FGE1D17BB,6,5
190,2,object_10,object_03,941.39999997616,3,2,270.90000003576,0.2222222222222222,1,object_01,5,2781,0,2,3,forest_8,1,memory-2step-stake-s,685,2638952,0.0-19.0-0.1-0.190,A12HWPFXQPITHD,3HRWUH63RXIZS6U0Z3EY966PXK25N4,3U4J9857OIRF0KHGA8TO5FGE1D17BB,4,3
191,2,object_10,object_03,927.80000001192,4,1,355.39999997616,0.4444444444444444,2,object_02,1,2785,0,0,4,forest_1,1,memory-2step-stake-s,686,2646941,0.0-19.0-0.1-0.191,A12HWPFXQPITHD,3HRWUH63RXIZS6U0Z3EY966PXK25N4,3U4J9857OIRF0KHGA8TO5FGE1D17BB,4,3
192,1,object_05,object_08,962.30000001192,1,2,260.5,0.3333333333333333,1,object_01,1,2788,0,3,2,desert_4,1,memory-2step-stake-s,687,2654721,0.0-19.0-0.1-0.192,A12HWPFXQPITHD,3HRWUH63RXIZS6U0Z3EY966PXK25N4,3U4J9857OIRF0KHGA8TO5FGE1D17BB,2,1
193,2,object_10,object_03,568.70000004768,4,1,267.70000004768,0.1111111111111111,2,object_02,1,2789,0,5,1,forest_1,1,memory-2step-stake-s,688,2662305,0.0-19.0-0.1-0.193,A12HWPFXQPITHD,3HRWUH63RXIZS6U0Z3EY966PXK25N4,3U4J9857OIRF0KHGA8TO5FGE1D17BB,4,3
194,4,object_04,object_09,1111.8999999762,7,2,282.30000001192,0.7777777777777778,1,object_01,5,2824,0,7,0,restaurant_7,1,memory-2step-stake-s,689,2670523,0.0-19.0-0.1-0.194,A12HWPFXQPITHD,3HRWUH63RXIZS6U0Z3EY966PXK25N4,3U4J9857OIRF0KHGA8TO5FGE1D17BB,8,7
195,4,object_09,object_04,1033.9000000358,7,1,387.5,0.5555555555555556,1,object_01,1,2829,0,5,1,restaurant_7,1,memory-2step-stake-s,690,2678635,0.0-19.0-0.1-0.195,A12HWPFXQPITHD,3HRWUH63RXIZS6U0Z3EY966PXK25N4,3U4J9857OIRF0KHGA8TO5FGE1D17BB,7,8
196,3,object_07,object_06,1132.5999999642,6,2,143.69999998808,0.1111111111111111,2,object_02,5,2834,0,3,1,library_2,1,memory-2step-stake-s,691,2686094,0.0-19.0-0.1-0.196,A12HWPFXQPITHD,3HRWUH63RXIZS6U0Z3EY966PXK25N4,3U4J9857OIRF0KHGA8TO5FGE1D17BB,5,6
197,4,object_04,object_09,1259.1999999881,8,1,544.10000002384,0.4444444444444444,2,object_02,5,2854,0,5,4,restaurant_7,1,memory-2step-stake-s,692,2694253,0.0-19.0-0.1-0.197,A12HWPFXQPITHD,3HRWUH63RXIZS6U0Z3EY966PXK25N4,3U4J9857OIRF0KHGA8TO5FGE1D17BB,8,7
198,4,object_04,object_09,723.10000002384,7,2,216.30000001192,0.7777777777777778,1,object_01,1,2861,0,7,0,restaurant_2,1,memory-2step-stake-s,693,2702387,0.0-19.0-0.1-0.198,A12HWPFXQPITHD,3HRWUH63RXIZS6U0Z3EY966PXK25N4,3U4J9857OIRF0KHGA8TO5FGE1D17BB,8,7
199,2,object_10,object_03,885.0,3,2,366.89999997616,0.7777777777777778,1,object_01,5,2896,0,7,1,forest_4,1,memory-2step-stake-s,694,2710676,0.0-19.0-0.1-0.199,A12HWPFXQPITHD,3HRWUH63RXIZS6U0Z3EY966PXK25N4,3U4J9857OIRF0KHGA8TO5FGE1D17BB,4,3
200,2,object_10,object_03,676.0,3,2,541.80000001192,0.7777777777777778,1,object_01,5,2931,0,7,1,forest_4,1,memory-2step-stake-s,695,2719140,0.0-19.0-0.1-0.200,A12HWPFXQPITHD,3HRWUH63RXIZS6U0Z3EY966PXK25N4,3U4J9857OIRF0KHGA8TO5FGE1D17BB,4,3
201,3,object_07,object_06,885.10000002384,5,1,246.60000002384,0.8888888888888888,1,object_01,5,2971,0,8,0,library_4,1,memory-2step-stake-s,696,2727431,0.0-19.0-0.1-0.201,A12HWPFXQPITHD,3HRWUH63RXIZS6U0Z3EY966PXK25N4,3U4J9857OIRF0KHGA8TO5FGE1D17BB,5,6
202,4,object_04,object_09,803.60000002384,7,2,269.10000002384,1.0,1,object_01,5,3016,0,9,3,restaurant_2,1,memory-2step-stake-s,697,2735820,0.0-19.0-0.1-0.202,A12HWPFXQPITHD,3HRWUH63RXIZS6U0Z3EY966PXK25N4,3U4J9857OIRF0KHGA8TO5FGE1D17BB,8,7
203,4,object_04,object_09,660.30000001192,7,2,191.09999996424,0.8888888888888888,1,object_01,5,3056,0,8,0,restaurant_2,1,memory-2step-stake-s,698,2744049,0.0-19.0-0.1-0.203,A12HWPFXQPITHD,3HRWUH63RXIZS6U0Z3EY966PXK25N4,3U4J9857OIRF0KHGA8TO5FGE1D17BB,8,7
204,2,object_10,object_03,783.30000001192,3,2,239.90000003576,0.8888888888888888,1,object_01,1,3064,0,8,1,forest_4,1,memory-2step-stake-s,699,2752313,0.0-19.0-0.1-0.204,A12HWPFXQPITHD,3HRWUH63RXIZS6U0Z3EY966PXK25N4,3U4J9857OIRF0KHGA8TO5FGE1D17BB,4,3
205,4,object_04,object_09,342.90000003576,7,2,329.19999998808,0.7777777777777778,1,object_01,5,3099,0,7,1,restaurant_3,1,memory-2step-stake-s,700,2760564,0.0-19.0-0.1-0.205,A12HWPFXQPITHD,3HRWUH63RXIZS6U0Z3EY966PXK25N4,3U4J9857OIRF0KHGA8TO5FGE1D17BB,8,7
206,2,object_03,object_10,817.30000001192,3,1,268.0,0.4444444444444444,1,object_01,1,3103,0,4,0,forest_2,1,memory-2step-stake-s,701,2768461,0.0-19.0-0.1-0.206,A12HWPFXQPITHD,3HRWUH63RXIZS6U0Z3EY966PXK25N4,3U4J9857OIRF0KHGA8TO5FGE1D17BB,3,4
207,3,object_07,object_06,832.79999995232,6,2,265.89999997616,0.1111111111111111,2,object_02,5,3108,0,6,1,library_2,1,memory-2step-stake-s,702,2776054,0.0-19.0-0.1-0.207,A12HWPFXQPITHD,3HRWUH63RXIZS6U0Z3EY966PXK25N4,3U4J9857OIRF0KHGA8TO5FGE1D17BB,5,6
208,2,object_03,object_10,745.5,3,1,366.5,0.6666666666666666,1,object_01,1,3114,0,6,1,forest_2,1,memory-2step-stake-s,703,2784240,0.0-19.0-0.1-0.208,A12HWPFXQPITHD,3HRWUH63RXIZS6U0Z3EY966PXK25N4,3U4J9857OIRF0KHGA8TO5FGE1D17BB,3,4
209,1,object_08,object_05,458.69999998808,1,1,221.19999998808,0.6666666666666666,1,object_01,5,3144,0,6,3,desert_5,1,memory-2step-stake-s,704,2792289,0.0-19.0-0.1-0.209,A12HWPFXQPITHD,3HRWUH63RXIZS6U0Z3EY966PXK25N4,3U4J9857OIRF0KHGA8TO5FGE1D17BB,1,2
210,4,object_09,object_04,757.5,7,1,375.30000001192,0.7777777777777778,1,object_01,5,3179,0,7,6,restaurant_2,1,memory-2step-stake-s,705,2800608,0.0-19.0-0.1-0.210,A12HWPFXQPITHD,3HRWUH63RXIZS6U0Z3EY966PXK25N4,3U4J9857OIRF0KHGA8TO5FGE1D17BB,7,8
211,1,object_05,object_08,760.19999998808,1,2,108.80000001192,1.0,1,object_01,1,3188,0,9,7,desert_5,1,memory-2step-stake-s,706,2808848,0.0-19.0-0.1-0.211,A12HWPFXQPITHD,3HRWUH63RXIZS6U0Z3EY966PXK25N4,3U4J9857OIRF0KHGA8TO5FGE1D17BB,2,1
212,1,object_08,object_05,570.10000002384,1,1,302.90000003576,0.6666666666666666,1,object_01,5,3218,0,6,7,desert_1,1,memory-2step-stake-s,707,2816989,0.0-19.0-0.1-0.212,A12HWPFXQPITHD,3HRWUH63RXIZS6U0Z3EY966PXK25N4,3U4J9857OIRF0KHGA8TO5FGE1D17BB,1,2
213,3,object_07,object_06,765.0,5,1,309.80000001192,0.5555555555555556,1,object_01,5,3243,0,5,6,library_2,1,memory-2step-stake-s,708,2825023,0.0-19.0-0.1-0.213,A12HWPFXQPITHD,3HRWUH63RXIZS6U0Z3EY966PXK25N4,3U4J9857OIRF0KHGA8TO5FGE1D17BB,5,6
214,2,object_03,object_10,544.10000002384,4,2,251.0,0.7777777777777778,2,object_02,1,3250,0,7,7,forest_8,1,memory-2step-stake-s,709,2833202,0.0-19.0-0.1-0.214,A12HWPFXQPITHD,3HRWUH63RXIZS6U0Z3EY966PXK25N4,3U4J9857OIRF0KHGA8TO5FGE1D17BB,3,4
215,3,object_07,object_06,684.39999997616,6,2,24.800000011921,1.0,2,object_02,5,3295,0,6,9,library_5,1,memory-2step-stake-s,710,2841351,0.0-19.0-0.1-0.215,A12HWPFXQPITHD,3HRWUH63RXIZS6U0Z3EY966PXK25N4,3U4J9857OIRF0KHGA8TO5FGE1D17BB,5,6
216,1,object_05,object_08,467.5,2,1,526.19999998808,0.6666666666666666,2,object_02,1,3301,0,5,6,desert_4,1,memory-2step-stake-s,711,2849695,0.0-19.0-0.1-0.216,A12HWPFXQPITHD,3HRWUH63RXIZS6U0Z3EY966PXK25N4,3U4J9857OIRF0KHGA8TO5FGE1D17BB,2,1
217,1,object_08,object_05,674.30000001192,2,2,277.30000001192,0.5555555555555556,2,object_02,1,3306,0,7,5,desert_1,1,memory-2step-stake-s,712,2857691,0.0-19.0-0.1-0.217,A12HWPFXQPITHD,3HRWUH63RXIZS6U0Z3EY966PXK25N4,3U4J9857OIRF0KHGA8TO5FGE1D17BB,1,2
218,3,object_07,object_06,565.89999997616,6,2,390.39999997616,0.4444444444444444,2,object_02,5,3326,0,3,4,library_3,1,memory-2step-stake-s,713,2865704,0.0-19.0-0.1-0.218,A12HWPFXQPITHD,3HRWUH63RXIZS6U0Z3EY966PXK25N4,3U4J9857OIRF0KHGA8TO5FGE1D17BB,5,6
219,1,object_05,object_08,557.29999995232,1,2,90.800000011921,0.3333333333333333,1,object_01,5,3341,0,3,2,desert_1,1,memory-2step-stake-s,714,2873318,0.0-19.0-0.1-0.219,A12HWPFXQPITHD,3HRWUH63RXIZS6U0Z3EY966PXK25N4,3U4J9857OIRF0KHGA8TO5FGE1D17BB,2,1
220,3,object_06,object_07,634.0,6,1,284.19999998808,0.4444444444444444,2,object_02,5,3361,0,0,4,library_4,1,memory-2step-stake-s,715,2881220,0.0-19.0-0.1-0.220,A12HWPFXQPITHD,3HRWUH63RXIZS6U0Z3EY966PXK25N4,3U4J9857OIRF0KHGA8TO5FGE1D17BB,6,5
221,3,object_06,object_07,516.60000002384,6,1,303.30000001192,0.3333333333333333,2,object_02,5,3376,0,3,3,library_4,1,memory-2step-stake-s,716,2889040,0.0-19.0-0.1-0.221,A12HWPFXQPITHD,3HRWUH63RXIZS6U0Z3EY966PXK25N4,3U4J9857OIRF0KHGA8TO5FGE1D17BB,6,5
222,3,object_06,object_07,640.10000002384,5,2,160.59999996424,0.3333333333333333,1,object_01,5,3391,0,3,4,library_2,1,memory-2step-stake-s,717,2896748,0.0-19.0-0.1-0.222,A12HWPFXQPITHD,3HRWUH63RXIZS6U0Z3EY966PXK25N4,3U4J9857OIRF0KHGA8TO5FGE1D17BB,6,5
223,2,object_10,object_03,755.0,4,1,342.89999997616,0.3333333333333333,2,object_02,1,3394,0,5,3,forest_2,1,memory-2step-stake-s,718,2904621,0.0-19.0-0.1-0.223,A12HWPFXQPITHD,3HRWUH63RXIZS6U0Z3EY966PXK25N4,3U4J9857OIRF0KHGA8TO5FGE1D17BB,4,3
224,4,object_04,object_09,1280.6999999881,8,1,458.80000001192,0.1111111111111111,2,object_02,5,3399,0,6,1,restaurant_3,1,memory-2step-stake-s,719,2912397,0.0-19.0-0.1-0.224,A12HWPFXQPITHD,3HRWUH63RXIZS6U0Z3EY966PXK25N4,3U4J9857OIRF0KHGA8TO5FGE1D17BB,8,7
225,1,object_08,object_05,360.80000001192,1,1,418.89999997616,0.2222222222222222,1,object_01,1,3401,0,2,1,desert_3,1,memory-2step-stake-s,720,2920243,0.0-19.0-0.1-0.225,A12HWPFXQPITHD,3HRWUH63RXIZS6U0Z3EY966PXK25N4,3U4J9857OIRF0KHGA8TO5FGE1D17BB,1,2
226,1,object_08,object_05,537.80000001192,2,2,788.5,0.2222222222222222,2,object_02,5,3411,0,4,2,desert_4,1,memory-2step-stake-s,721,2928452,0.0-19.0-0.1-0.226,A12HWPFXQPITHD,3HRWUH63RXIZS6U0Z3EY966PXK25N4,3U4J9857OIRF0KHGA8TO5FGE1D17BB,1,2
227,4,object_09,object_04,715.09999996424,8,2,285.19999998808,0.3333333333333333,2,object_02,5,3426,0,0,3,restaurant_1,1,memory-2step-stake-s,722,2936259,0.0-19.0-0.1-0.227,A12HWPFXQPITHD,3HRWUH63RXIZS6U0Z3EY966PXK25N4,3U4J9857OIRF0KHGA8TO5FGE1D17BB,7,8
228,3,object_07,object_06,726.80000001192,6,2,369.30000001192,0.1111111111111111,2,object_02,5,3431,0,1,1,library_3,1,memory-2step-stake-s,723,2943944,0.0-19.0-0.1-0.228,A12HWPFXQPITHD,3HRWUH63RXIZS6U0Z3EY966PXK25N4,3U4J9857OIRF0KHGA8TO5FGE1D17BB,5,6
229,2,object_03,object_10,872.69999998808,3,1,363.80000001192,0.2222222222222222,1,object_01,1,3433,0,2,1,forest_1,1,memory-2step-stake-s,724,2951733,0.0-19.0-0.1-0.229,A12HWPFXQPITHD,3HRWUH63RXIZS6U0Z3EY966PXK25N4,3U4J9857OIRF0KHGA8TO5FGE1D17BB,3,4
230,2,object_03,object_10,666.5,3,1,415.60000002384,0.1111111111111111,1,object_01,1,3434,0,1,1,forest_8,1,memory-2step-stake-s,725,2959463,0.0-19.0-0.1-0.230,A12HWPFXQPITHD,3HRWUH63RXIZS6U0Z3EY966PXK25N4,3U4J9857OIRF0KHGA8TO5FGE1D17BB,3,4
231,2,object_10,object_03,673.80000001192,3,2,91.600000023842,0.2222222222222222,1,object_01,1,3436,0,2,3,forest_2,1,memory-2step-stake-s,726,2966979,0.0-19.0-0.1-0.231,A12HWPFXQPITHD,3HRWUH63RXIZS6U0Z3EY966PXK25N4,3U4J9857OIRF0KHGA8TO5FGE1D17BB,4,3
232,1,object_08,object_05,934.89999997616,2,2,298.10000002384,0.1111111111111111,2,object_02,1,3437,0,4,1,desert_5,1,memory-2step-stake-s,727,2974604,0.0-19.0-0.1-0.232,A12HWPFXQPITHD,3HRWUH63RXIZS6U0Z3EY966PXK25N4,3U4J9857OIRF0KHGA8TO5FGE1D17BB,1,2
233,3,object_07,object_06,926.19999998808,6,2,282.0,0.0,2,object_02,5,3437,0,3,0,library_3,1,memory-2step-stake-s,728,2982098,0.0-19.0-0.1-0.233,A12HWPFXQPITHD,3HRWUH63RXIZS6U0Z3EY966PXK25N4,3U4J9857OIRF0KHGA8TO5FGE1D17BB,5,6
234,1,object_08,object_05,799.10000002384,1,1,369.0,0.2222222222222222,1,object_01,1,3439,0,2,0,desert_1,1,memory-2step-stake-s,729,2989882,0.0-19.0-0.1-0.234,A12HWPFXQPITHD,3HRWUH63RXIZS6U0Z3EY966PXK25N4,3U4J9857OIRF0KHGA8TO5FGE1D17BB,1,2
235,3,object_06,object_07,1253.0,6,1,254.5,0.2222222222222222,2,object_02,5,3449,0,3,2,library_5,1,memory-2step-stake-s,730,2997568,0.0-19.0-0.1-0.235,A12HWPFXQPITHD,3HRWUH63RXIZS6U0Z3EY966PXK25N4,3U4J9857OIRF0KHGA8TO5FGE1D17BB,6,5
236,1,object_08,object_05,984.80000001192,1,1,252.69999998808,0.3333333333333333,1,object_01,5,3464,0,3,3,desert_3,1,memory-2step-stake-s,731,3005339,0.0-19.0-0.1-0.236,A12HWPFXQPITHD,3HRWUH63RXIZS6U0Z3EY966PXK25N4,3U4J9857OIRF0KHGA8TO5FGE1D17BB,1,2
237,1,object_05,object_08,708.89999997616,1,2,272.60000002384,0.2222222222222222,1,object_01,1,3466,0,2,3,desert_4,1,memory-2step-stake-s,732,3013040,0.0-19.0-0.1-0.237,A12HWPFXQPITHD,3HRWUH63RXIZS6U0Z3EY966PXK25N4,3U4J9857OIRF0KHGA8TO5FGE1D17BB,2,1
238,4,object_04,object_09,915.20000004768,8,1,267.19999998808,0.3333333333333333,2,object_02,1,3469,0,2,3,restaurant_2,1,memory-2step-stake-s,733,3020821,0.0-19.0-0.1-0.238,A12HWPFXQPITHD,3HRWUH63RXIZS6U0Z3EY966PXK25N4,3U4J9857OIRF0KHGA8TO5FGE1D17BB,8,7
239,1,object_08,object_05,859.5,2,2,269.39999997616,0.0,2,object_02,5,3469,0,0,0,desert_5,1,memory-2step-stake-s,734,3028305,0.0-19.0-0.1-0.239,A12HWPFXQPITHD,3HRWUH63RXIZS6U0Z3EY966PXK25N4,3U4J9857OIRF0KHGA8TO5FGE1D17BB,1,2
240,2,object_03,object_10,768.0,4,2,187.60000002384,0.1111111111111111,2,object_02,1,3470,0,0,1,forest_8,1,memory-2step-stake-s,735,3035807,0.0-19.0-0.1-0.240,A12HWPFXQPITHD,3HRWUH63RXIZS6U0Z3EY966PXK25N4,3U4J9857OIRF0KHGA8TO5FGE1D17BB,3,4
241,4,object_04,object_09,1097.3999999762,7,2,309.5,0.2222222222222222,1,object_01,5,3480,0,2,5,restaurant_1,1,memory-2step-stake-s,736,3043544,0.0-19.0-0.1-0.241,A12HWPFXQPITHD,3HRWUH63RXIZS6U0Z3EY966PXK25N4,3U4J9857OIRF0KHGA8TO5FGE1D17BB,8,7
242,2,object_10,object_03,1201.3999999762,3,2,283.89999997616,0.1111111111111111,1,object_01,1,3481,0,1,3,forest_2,1,memory-2step-stake-s,737,3051143,0.0-19.0-0.1-0.242,A12HWPFXQPITHD,3HRWUH63RXIZS6U0Z3EY966PXK25N4,3U4J9857OIRF0KHGA8TO5FGE1D17BB,4,3
243,2,object_03,object_10,691.10000002384,4,2,118.70000004768,0.1111111111111111,2,object_02,1,3482,0,1,1,forest_2,1,memory-2step-stake-s,738,3058576,0.0-19.0-0.1-0.243,A12HWPFXQPITHD,3HRWUH63RXIZS6U0Z3EY966PXK25N4,3U4J9857OIRF0KHGA8TO5FGE1D17BB,3,4
244,1,object_05,object_08,895.80000001192,1,2,323.60000002384,0.1111111111111111,1,object_01,1,3483,0,1,1,desert_5,1,memory-2step-stake-s,739,3066214,0.0-19.0-0.1-0.244,A12HWPFXQPITHD,3HRWUH63RXIZS6U0Z3EY966PXK25N4,3U4J9857OIRF0KHGA8TO5FGE1D17BB,2,1
245,2,object_03,object_10,819.5,3,1,445.69999998808,0.3333333333333333,1,object_01,1,3486,0,3,2,forest_1,1,memory-2step-stake-s,740,3074175,0.0-19.0-0.1-0.245,A12HWPFXQPITHD,3HRWUH63RXIZS6U0Z3EY966PXK25N4,3U4J9857OIRF0KHGA8TO5FGE1D17BB,3,4
246,4,object_04,object_09,819.39999997616,7,2,395.30000001192,0.3333333333333333,1,object_01,1,3489,0,3,1,restaurant_2,1,memory-2step-stake-s,741,3082087,0.0-19.0-0.1-0.246,A12HWPFXQPITHD,3HRWUH63RXIZS6U0Z3EY966PXK25N4,3U4J9857OIRF0KHGA8TO5FGE1D17BB,8,7
247,4,object_09,object_04,786.0,7,1,308.09999996424,0.4444444444444444,1,object_01,5,3509,0,4,1,restaurant_7,1,memory-2step-stake-s,742,3090016,0.0-19.0-0.1-0.247,A12HWPFXQPITHD,3HRWUH63RXIZS6U0Z3EY966PXK25N4,3U4J9857OIRF0KHGA8TO5FGE1D17BB,7,8
248,2,object_10,object_03,1104.1000000238,3,2,323.39999997616,0.3333333333333333,1,object_01,5,3524,0,3,2,forest_8,1,memory-2step-stake-s,743,3097858,0.0-19.0-0.1-0.248,A12HWPFXQPITHD,3HRWUH63RXIZS6U0Z3EY966PXK25N4,3U4J9857OIRF0KHGA8TO5FGE1D17BB,4,3
249,2,object_03,object_10,798.60000002384,4,2,250.39999997616,0.2222222222222222,2,object_02,1,3526,0,3,2,forest_4,1,memory-2step-stake-s,744,3105536,0.0-19.0-0.1-0.249,A12HWPFXQPITHD,3HRWUH63RXIZS6U0Z3EY966PXK25N4,3U4J9857OIRF0KHGA8TO5FGE1D17BB,3,4
250,4,object_04,object_09,1102.1000000238,7,2,346.69999998808,0.6666666666666666,1,object_01,5,3556,0,6,0,restaurant_7,1,memory-2step-stake-s,745,3113709,0.0-19.0-0.1-0.250,A12HWPFXQPITHD,3HRWUH63RXIZS6U0Z3EY966PXK25N4,3U4J9857OIRF0KHGA8TO5FGE1D17BB,8,7
251,4,object_04,object_09,577.70000004768,7,2,467.40000003576,0.8888888888888888,1,object_01,5,3596,0,8,0,restaurant_1,1,memory-2step-stake-s,746,3122210,0.0-19.0-0.1-0.251,A12HWPFXQPITHD,3HRWUH63RXIZS6U0Z3EY966PXK25N4,3U4J9857OIRF0KHGA8TO5FGE1D17BB,8,7
252,4,object_04,object_09,614.79999995232,7,2,341.39999997616,1.0,1,object_01,5,3641,0,9,4,restaurant_2,1,memory-2step-stake-s,747,3130683,0.0-19.0-0.1-0.252,A12HWPFXQPITHD,3HRWUH63RXIZS6U0Z3EY966PXK25N4,3U4J9857OIRF0KHGA8TO5FGE1D17BB,8,7
253,2,object_10,object_03,805.80000001192,3,2,154.59999996424,0.7777777777777778,1,object_01,1,3648,0,7,1,forest_2,1,memory-2step-stake-s,748,3138773,0.0-19.0-0.1-0.253,A12HWPFXQPITHD,3HRWUH63RXIZS6U0Z3EY966PXK25N4,3U4J9857OIRF0KHGA8TO5FGE1D17BB,4,3
254,2,object_10,object_03,765.90000003576,3,2,336.80000001192,0.8888888888888888,1,object_01,1,3656,0,8,2,forest_4,1,memory-2step-stake-s,749,3147155,0.0-19.0-0.1-0.254,A12HWPFXQPITHD,3HRWUH63RXIZS6U0Z3EY966PXK25N4,3U4J9857OIRF0KHGA8TO5FGE1D17BB,4,3
255,3,object_06,object_07,765.59999996424,5,2,754.0,0.5555555555555556,1,object_01,5,3681,0,5,4,library_5,1,memory-2step-stake-s,750,3155628,0.0-19.0-0.1-0.255,A12HWPFXQPITHD,3HRWUH63RXIZS6U0Z3EY966PXK25N4,3U4J9857OIRF0KHGA8TO5FGE1D17BB,6,5
