,state1,stim_left,stim_right,rt_1,choice1,response1,rt_2,points,state2,stim_state2,stake,score,practice,rews1,rews2,background,high_arm,trial_type,trial_index,time_elapsed,internal_node_id,subid,hitid,assignmentid,stim_left_num,stim_right_num
0,3,object_06,object_08,1063.0,6,1,1429.5,0.1111111111111111,2,object_04,5,5,0,4,1,library_2,1,memory-2step-stake-s,524,1359188,0.0-19.0-0.0-0.0,A19YM9K2W233IM,371DNNCG57IGA1IMUX7DUPM8OSP8TA,3ZQIG0FLQIW9ZDGNNXS0Y792XW7VWO,6,5
1,1,object_05,object_02,951.19999998808,2,1,1335.2000000477,0.2222222222222222,2,object_04,5,15,0,2,2,desert_8,1,memory-2step-stake-s,525,1367999,0.0-19.0-0.0-0.1,A19YM9K2W233IM,371DNNCG57IGA1IMUX7DUPM8OSP8TA,3ZQIG0FLQIW9ZDGNNXS0Y792XW7VWO,2,1
2,4,object_10,object_03,1192.9000000358,8,1,547.89999997616,0.6666666666666666,2,object_04,1,21,0,2,6,restaurant_4,1,memory-2step-stake-s,526,1376464,0.0-19.0-0.0-0.2,A19YM9K2W233IM,371DNNCG57IGA1IMUX7DUPM8OSP8TA,3ZQIG0FLQIW9ZDGNNXS0Y792XW7VWO,8,7
3,1,object_02,object_05,1442.1999999881,2,2,-1.0,0.0,2,object_04,1,21,0,2,6,desert_8,1,memory-2step-stake-s,527,1385051,0.0-19.0-0.0-0.3,A19YM9K2W233IM,371DNNCG57IGA1IMUX7DUPM8OSP8TA,3ZQIG0FLQIW9ZDGNNXS0Y792XW7VWO,1,2
4,3,object_08,object_06,975.10000002384,5,1,626.5,0.1111111111111111,1,object_07,5,26,0,1,7,library_2,1,memory-2step-stake-s,528,1393057,0.0-19.0-0.0-0.4,A19YM9K2W233IM,371DNNCG57IGA1IMUX7DUPM8OSP8TA,3ZQIG0FLQIW9ZDGNNXS0Y792XW7VWO,5,6
5,2,object_09,object_01,966.89999997616,3,2,353.80000001192,0.1111111111111111,1,object_07,1,27,0,1,7,forest_1,1,memory-2step-stake-s,529,1400796,0.0-19.0-0.0-0.5,A19YM9K2W233IM,371DNNCG57IGA1IMUX7DUPM8OSP8TA,3ZQIG0FLQIW9ZDGNNXS0Y792XW7VWO,4,3
6,2,object_09,object_01,847.19999998808,3,2,831.59999996424,0.3333333333333333,1,object_07,1,30,0,3,7,forest_2,1,memory-2step-stake-s,530,1409230,0.0-19.0-0.0-0.6,A19YM9K2W233IM,371DNNCG57IGA1IMUX7DUPM8OSP8TA,3ZQIG0FLQIW9ZDGNNXS0Y792XW7VWO,4,3
7,4,object_10,object_03,329.60000002384,8,1,375.0,0.5555555555555556,2,object_04,1,35,0,1,5,restaurant_2,1,memory-2step-stake-s,531,1417429,0.0-19.0-0.0-0.7,A19YM9K2W233IM,371DNNCG57IGA1IMUX7DUPM8OSP8TA,3ZQIG0FLQIW9ZDGNNXS0Y792XW7VWO,8,7
8,1,object_02,object_05,910.60000002384,1,1,469.5,0.0,1,object_07,1,35,0,0,4,desert_5,1,memory-2step-stake-s,532,1425190,0.0-19.0-0.0-0.8,A19YM9K2W233IM,371DNNCG57IGA1IMUX7DUPM8OSP8TA,3ZQIG0FLQIW9ZDGNNXS0Y792XW7VWO,1,2
9,2,object_09,object_01,1054.8999999762,4,1,997.80000001192,0.3333333333333333,2,object_04,1,38,0,0,3,forest_2,1,memory-2step-stake-s,533,1433797,0.0-19.0-0.0-0.9,A19YM9K2W233IM,371DNNCG57IGA1IMUX7DUPM8OSP8TA,3ZQIG0FLQIW9ZDGNNXS0Y792XW7VWO,4,3
10,3,object_08,object_06,1051.1000000238,6,2,575.30000001192,0.3333333333333333,2,object_04,5,53,0,1,3,library_8,1,memory-2step-stake-s,534,1441993,0.0-19.0-0.0-0.10,A19YM9K2W233IM,371DNNCG57IGA1IMUX7DUPM8OSP8TA,3ZQIG0FLQIW9ZDGNNXS0Y792XW7VWO,5,6
11,4,object_03,object_10,1226.9000000358,7,1,641.5,0.0,1,object_07,5,53,0,0,2,restaurant_1,1,memory-2step-stake-s,535,1449923,0.0-19.0-0.0-0.11,A19YM9K2W233IM,371DNNCG57IGA1IMUX7DUPM8OSP8TA,3ZQIG0FLQIW9ZDGNNXS0Y792XW7VWO,7,8
12,2,object_09,object_01,999.09999996424,3,2,916.40000003576,0.1111111111111111,1,object_07,1,54,0,1,0,forest_1,1,memory-2step-stake-s,536,1458233,0.0-19.0-0.0-0.12,A19YM9K2W233IM,371DNNCG57IGA1IMUX7DUPM8OSP8TA,3ZQIG0FLQIW9ZDGNNXS0Y792XW7VWO,4,3
13,3,object_06,object_08,882.69999998808,5,2,557.70000004768,0.1111111111111111,1,object_07,5,59,0,1,0,library_1,1,memory-2step-stake-s,537,1466164,0.0-19.0-0.0-0.13,A19YM9K2W233IM,371DNNCG57IGA1IMUX7DUPM8OSP8TA,3ZQIG0FLQIW9ZDGNNXS0Y792XW7VWO,6,5
14,2,object_09,object_01,617.30000001192,4,1,460.10000002384,0.2222222222222222,2,object_04,1,61,0,1,2,forest_1,1,memory-2step-stake-s,538,1474116,0.0-19.0-0.0-0.14,A19YM9K2W233IM,371DNNCG57IGA1IMUX7DUPM8OSP8TA,3ZQIG0FLQIW9ZDGNNXS0Y792XW7VWO,4,3
15,2,object_01,object_09,815.19999998808,4,2,752.09999996424,0.3333333333333333,2,object_04,5,76,0,2,3,forest_2,1,memory-2step-stake-s,539,1482473,0.0-19.0-0.0-0.15,A19YM9K2W233IM,371DNNCG57IGA1IMUX7DUPM8OSP8TA,3ZQIG0FLQIW9ZDGNNXS0Y792XW7VWO,3,4
16,4,object_03,object_10,868.5,7,1,499.69999998808,0.1111111111111111,1,object_07,5,81,0,1,0,restaurant_6,1,memory-2step-stake-s,540,1490350,0.0-19.0-0.0-0.16,A19YM9K2W233IM,371DNNCG57IGA1IMUX7DUPM8OSP8TA,3ZQIG0FLQIW9ZDGNNXS0Y792XW7VWO,7,8
17,2,object_01,object_09,574.89999997616,3,1,620.39999997616,0.4444444444444444,1,object_07,1,85,0,4,2,forest_3,1,memory-2step-stake-s,541,1498667,0.0-19.0-0.0-0.17,A19YM9K2W233IM,371DNNCG57IGA1IMUX7DUPM8OSP8TA,3ZQIG0FLQIW9ZDGNNXS0Y792XW7VWO,3,4
18,1,object_05,object_02,960.89999997616,1,2,333.19999998808,0.6666666666666666,1,object_07,1,91,0,6,4,desert_5,1,memory-2step-stake-s,542,1506895,0.0-19.0-0.0-0.18,A19YM9K2W233IM,371DNNCG57IGA1IMUX7DUPM8OSP8TA,3ZQIG0FLQIW9ZDGNNXS0Y792XW7VWO,2,1
19,2,object_09,object_01,1068.0,4,1,657.19999998808,0.4444444444444444,2,object_04,1,95,0,8,4,forest_7,1,memory-2step-stake-s,543,1515250,0.0-19.0-0.0-0.19,A19YM9K2W233IM,371DNNCG57IGA1IMUX7DUPM8OSP8TA,3ZQIG0FLQIW9ZDGNNXS0Y792XW7VWO,4,3
20,3,object_08,object_06,1061.7999999523,6,2,-1.0,0.0,2,object_04,5,95,0,8,6,library_6,1,memory-2step-stake-s,544,1523843,0.0-19.0-0.0-0.20,A19YM9K2W233IM,371DNNCG57IGA1IMUX7DUPM8OSP8TA,3ZQIG0FLQIW9ZDGNNXS0Y792XW7VWO,5,6
21,1,object_02,object_05,1039.8999999762,2,2,449.69999998808,0.8888888888888888,2,object_04,1,103,0,9,8,desert_2,1,memory-2step-stake-s,545,1532434,0.0-19.0-0.0-0.21,A19YM9K2W233IM,371DNNCG57IGA1IMUX7DUPM8OSP8TA,3ZQIG0FLQIW9ZDGNNXS0Y792XW7VWO,1,2
22,2,object_01,object_09,582.5,3,1,663.89999997616,1.0,1,object_07,1,112,0,9,6,forest_7,1,memory-2step-stake-s,546,1541320,0.0-19.0-0.0-0.22,A19YM9K2W233IM,371DNNCG57IGA1IMUX7DUPM8OSP8TA,3ZQIG0FLQIW9ZDGNNXS0Y792XW7VWO,3,4
23,1,object_05,object_02,906.5,2,1,633.40000003576,0.7777777777777778,2,object_04,1,119,0,7,7,desert_5,1,memory-2step-stake-s,547,1549971,0.0-19.0-0.0-0.23,A19YM9K2W233IM,371DNNCG57IGA1IMUX7DUPM8OSP8TA,3ZQIG0FLQIW9ZDGNNXS0Y792XW7VWO,2,1
24,2,object_01,object_09,703.69999998808,3,1,635.39999997616,0.8888888888888888,1,object_07,1,127,0,8,5,forest_7,1,memory-2step-stake-s,548,1558728,0.0-19.0-0.0-0.24,A19YM9K2W233IM,371DNNCG57IGA1IMUX7DUPM8OSP8TA,3ZQIG0FLQIW9ZDGNNXS0Y792XW7VWO,3,4
25,3,object_08,object_06,1302.1000000238,6,2,406.89999997616,0.3333333333333333,2,object_04,5,142,0,9,3,library_6,1,memory-2step-stake-s,549,1566705,0.0-19.0-0.0-0.25,A19YM9K2W233IM,371DNNCG57IGA1IMUX7DUPM8OSP8TA,3ZQIG0FLQIW9ZDGNNXS0Y792XW7VWO,5,6
26,3,object_06,object_08,1324.8999999762,5,2,610.80000001192,0.7777777777777778,1,object_07,5,177,0,7,5,library_2,1,memory-2step-stake-s,550,1575318,0.0-19.0-0.0-0.26,A19YM9K2W233IM,371DNNCG57IGA1IMUX7DUPM8OSP8TA,3ZQIG0FLQIW9ZDGNNXS0Y792XW7VWO,6,5
27,3,object_06,object_08,975.69999998808,5,2,543.39999997616,0.6666666666666666,1,object_07,5,207,0,6,2,library_8,1,memory-2step-stake-s,551,1583790,0.0-19.0-0.0-0.27,A19YM9K2W233IM,371DNNCG57IGA1IMUX7DUPM8OSP8TA,3ZQIG0FLQIW9ZDGNNXS0Y792XW7VWO,6,5
28,1,object_05,object_02,861.89999997616,2,1,654.5,0.1111111111111111,2,object_04,1,208,0,8,1,desert_8,1,memory-2step-stake-s,552,1591817,0.0-19.0-0.0-0.28,A19YM9K2W233IM,371DNNCG57IGA1IMUX7DUPM8OSP8TA,3ZQIG0FLQIW9ZDGNNXS0Y792XW7VWO,2,1
29,4,object_10,object_03,1032.3000000119,8,1,370.30000001192,0.3333333333333333,2,object_04,5,223,0,9,3,restaurant_6,1,memory-2step-stake-s,553,1599764,0.0-19.0-0.0-0.29,A19YM9K2W233IM,371DNNCG57IGA1IMUX7DUPM8OSP8TA,3ZQIG0FLQIW9ZDGNNXS0Y792XW7VWO,8,7
30,1,object_05,object_02,806.79999995232,1,2,419.69999998808,0.8888888888888888,1,object_07,1,231,0,8,4,desert_8,1,memory-2step-stake-s,554,1608301,0.0-19.0-0.0-0.30,A19YM9K2W233IM,371DNNCG57IGA1IMUX7DUPM8OSP8TA,3ZQIG0FLQIW9ZDGNNXS0Y792XW7VWO,2,1
31,4,object_03,object_10,694.40000003576,7,1,337.10000002384,0.6666666666666666,1,object_07,5,261,0,6,1,restaurant_4,1,memory-2step-stake-s,555,1616566,0.0-19.0-0.0-0.31,A19YM9K2W233IM,371DNNCG57IGA1IMUX7DUPM8OSP8TA,3ZQIG0FLQIW9ZDGNNXS0Y792XW7VWO,7,8
32,2,object_09,object_01,1088.6999999881,4,1,338.89999997616,0.2222222222222222,2,object_04,1,263,0,8,2,forest_7,1,memory-2step-stake-s,556,1624388,0.0-19.0-0.0-0.32,A19YM9K2W233IM,371DNNCG57IGA1IMUX7DUPM8OSP8TA,3ZQIG0FLQIW9ZDGNNXS0Y792XW7VWO,4,3
33,1,object_05,object_02,745.09999996424,1,2,215.5,0.8888888888888888,1,object_07,1,271,0,8,2,desert_2,1,memory-2step-stake-s,557,1632709,0.0-19.0-0.0-0.33,A19YM9K2W233IM,371DNNCG57IGA1IMUX7DUPM8OSP8TA,3ZQIG0FLQIW9ZDGNNXS0Y792XW7VWO,2,1
34,2,object_01,object_09,582.10000002384,4,2,301.5,0.0,2,object_04,1,271,0,5,0,forest_2,1,memory-2step-stake-s,558,1640304,0.0-19.0-0.0-0.34,A19YM9K2W233IM,371DNNCG57IGA1IMUX7DUPM8OSP8TA,3ZQIG0FLQIW9ZDGNNXS0Y792XW7VWO,3,4
35,1,object_05,object_02,679.79999995232,1,2,276.0,0.3333333333333333,1,object_07,1,274,0,3,3,desert_5,1,memory-2step-stake-s,559,1648161,0.0-19.0-0.0-0.35,A19YM9K2W233IM,371DNNCG57IGA1IMUX7DUPM8OSP8TA,3ZQIG0FLQIW9ZDGNNXS0Y792XW7VWO,2,1
36,4,object_10,object_03,926.0,8,1,254.60000002384,0.2222222222222222,2,object_04,5,284,0,4,2,restaurant_1,1,memory-2step-stake-s,560,1655891,0.0-19.0-0.0-0.36,A19YM9K2W233IM,371DNNCG57IGA1IMUX7DUPM8OSP8TA,3ZQIG0FLQIW9ZDGNNXS0Y792XW7VWO,8,7
37,4,object_03,object_10,718.29999995232,8,2,314.10000002384,0.4444444444444444,2,object_04,5,304,0,4,4,restaurant_6,1,memory-2step-stake-s,561,1663877,0.0-19.0-0.0-0.37,A19YM9K2W233IM,371DNNCG57IGA1IMUX7DUPM8OSP8TA,3ZQIG0FLQIW9ZDGNNXS0Y792XW7VWO,7,8
38,2,object_09,object_01,455.10000002384,3,2,261.69999998808,0.3333333333333333,1,object_07,1,307,0,3,5,forest_2,1,memory-2step-stake-s,562,1671733,0.0-19.0-0.0-0.38,A19YM9K2W233IM,371DNNCG57IGA1IMUX7DUPM8OSP8TA,3ZQIG0FLQIW9ZDGNNXS0Y792XW7VWO,4,3
39,4,object_03,object_10,1311.6999999881,8,2,327.29999995232,0.8888888888888888,2,object_04,5,347,0,2,8,restaurant_1,1,memory-2step-stake-s,563,1680177,0.0-19.0-0.0-0.39,A19YM9K2W233IM,371DNNCG57IGA1IMUX7DUPM8OSP8TA,3ZQIG0FLQIW9ZDGNNXS0Y792XW7VWO,7,8
40,1,object_05,object_02,1091.6999999881,2,1,307.10000002384,1.0,2,object_04,1,356,0,4,9,desert_3,1,memory-2step-stake-s,564,1688668,0.0-19.0-0.0-0.40,A19YM9K2W233IM,371DNNCG57IGA1IMUX7DUPM8OSP8TA,3ZQIG0FLQIW9ZDGNNXS0Y792XW7VWO,2,1
41,4,object_03,object_10,741.10000002384,7,1,280.89999997616,0.4444444444444444,1,object_07,1,360,0,4,6,restaurant_4,1,memory-2step-stake-s,565,1696621,0.0-19.0-0.0-0.41,A19YM9K2W233IM,371DNNCG57IGA1IMUX7DUPM8OSP8TA,3ZQIG0FLQIW9ZDGNNXS0Y792XW7VWO,7,8
42,1,object_05,object_02,816.39999997616,1,2,260.40000003576,0.1111111111111111,1,object_07,1,361,0,1,8,desert_5,1,memory-2step-stake-s,566,1704234,0.0-19.0-0.0-0.42,A19YM9K2W233IM,371DNNCG57IGA1IMUX7DUPM8OSP8TA,3ZQIG0FLQIW9ZDGNNXS0Y792XW7VWO,2,1
43,4,object_03,object_10,975.5,8,2,312.30000001192,0.8888888888888888,2,object_04,5,401,0,4,8,restaurant_2,1,memory-2step-stake-s,567,1712654,0.0-19.0-0.0-0.43,A19YM9K2W233IM,371DNNCG57IGA1IMUX7DUPM8OSP8TA,3ZQIG0FLQIW9ZDGNNXS0Y792XW7VWO,7,8
44,4,object_10,object_03,718.5,8,1,333.90000003576,0.6666666666666666,2,object_04,5,431,0,4,6,restaurant_1,1,memory-2step-stake-s,568,1720889,0.0-19.0-0.0-0.44,A19YM9K2W233IM,371DNNCG57IGA1IMUX7DUPM8OSP8TA,3ZQIG0FLQIW9ZDGNNXS0Y792XW7VWO,8,7
45,2,object_01,object_09,691.0,3,1,360.69999998808,0.4444444444444444,1,object_07,1,435,0,4,8,forest_7,1,memory-2step-stake-s,569,1728920,0.0-19.0-0.0-0.45,A19YM9K2W233IM,371DNNCG57IGA1IMUX7DUPM8OSP8TA,3ZQIG0FLQIW9ZDGNNXS0Y792XW7VWO,3,4
46,3,object_08,object_06,732.5,5,1,226.79999995232,0.5555555555555556,1,object_07,5,460,0,5,8,library_2,1,memory-2step-stake-s,570,1736909,0.0-19.0-0.0-0.46,A19YM9K2W233IM,371DNNCG57IGA1IMUX7DUPM8OSP8TA,3ZQIG0FLQIW9ZDGNNXS0Y792XW7VWO,5,6
47,1,object_05,object_02,606.69999998808,1,2,293.30000001192,0.4444444444444444,1,object_07,1,464,0,4,8,desert_5,1,memory-2step-stake-s,571,1744869,0.0-19.0-0.0-0.47,A19YM9K2W233IM,371DNNCG57IGA1IMUX7DUPM8OSP8TA,3ZQIG0FLQIW9ZDGNNXS0Y792XW7VWO,2,1
48,2,object_01,object_09,768.5,3,1,285.80000001192,0.3333333333333333,1,object_07,1,467,0,3,7,forest_3,1,memory-2step-stake-s,572,1752717,0.0-19.0-0.0-0.48,A19YM9K2W233IM,371DNNCG57IGA1IMUX7DUPM8OSP8TA,3ZQIG0FLQIW9ZDGNNXS0Y792XW7VWO,3,4
49,1,object_05,object_02,597.60000002384,1,2,303.40000003576,0.2222222222222222,1,object_07,1,469,0,2,9,desert_8,1,memory-2step-stake-s,573,1760478,0.0-19.0-0.0-0.49,A19YM9K2W233IM,371DNNCG57IGA1IMUX7DUPM8OSP8TA,3ZQIG0FLQIW9ZDGNNXS0Y792XW7VWO,2,1
50,2,object_01,object_09,1281.5,3,1,306.80000001192,0.2222222222222222,1,object_07,1,471,0,2,8,forest_1,1,memory-2step-stake-s,574,1768258,0.0-19.0-0.0-0.50,A19YM9K2W233IM,371DNNCG57IGA1IMUX7DUPM8OSP8TA,3ZQIG0FLQIW9ZDGNNXS0Y792XW7VWO,3,4
51,3,object_06,object_08,719.30000001192,5,2,277.30000001192,0.4444444444444444,1,object_07,5,491,0,4,7,library_2,1,memory-2step-stake-s,575,1776186,0.0-19.0-0.0-0.51,A19YM9K2W233IM,371DNNCG57IGA1IMUX7DUPM8OSP8TA,3ZQIG0FLQIW9ZDGNNXS0Y792XW7VWO,6,5
52,4,object_10,object_03,723.10000002384,8,1,316.5,0.6666666666666666,2,object_04,5,521,0,3,6,restaurant_1,1,memory-2step-stake-s,576,1784407,0.0-19.0-0.0-0.52,A19YM9K2W233IM,371DNNCG57IGA1IMUX7DUPM8OSP8TA,3ZQIG0FLQIW9ZDGNNXS0Y792XW7VWO,8,7
53,2,object_01,object_09,817.90000003576,3,1,299.59999996424,0.7777777777777778,1,object_07,5,556,0,7,7,forest_3,1,memory-2step-stake-s,577,1792705,0.0-19.0-0.0-0.53,A19YM9K2W233IM,371DNNCG57IGA1IMUX7DUPM8OSP8TA,3ZQIG0FLQIW9ZDGNNXS0Y792XW7VWO,3,4
54,1,object_02,object_05,547.30000001192,1,1,159.10000002384,0.7777777777777778,1,object_07,1,563,0,7,6,desert_3,1,memory-2step-stake-s,578,1800886,0.0-19.0-0.0-0.54,A19YM9K2W233IM,371DNNCG57IGA1IMUX7DUPM8OSP8TA,3ZQIG0FLQIW9ZDGNNXS0Y792XW7VWO,1,2
55,4,object_03,object_10,782.19999998808,8,2,258.69999998808,0.5555555555555556,2,object_04,5,588,0,5,5,restaurant_2,1,memory-2step-stake-s,579,1808898,0.0-19.0-0.0-0.55,A19YM9K2W233IM,371DNNCG57IGA1IMUX7DUPM8OSP8TA,3ZQIG0FLQIW9ZDGNNXS0Y792XW7VWO,7,8
56,3,object_08,object_06,1138.1999999881,5,1,327.5,0.2222222222222222,1,object_07,5,598,0,2,4,library_2,1,memory-2step-stake-s,580,1816681,0.0-19.0-0.0-0.56,A19YM9K2W233IM,371DNNCG57IGA1IMUX7DUPM8OSP8TA,3ZQIG0FLQIW9ZDGNNXS0Y792XW7VWO,5,6
57,3,object_06,object_08,778.19999998808,5,2,411.5,0.0,1,object_07,5,598,0,0,4,library_1,1,memory-2step-stake-s,581,1824398,0.0-19.0-0.0-0.57,A19YM9K2W233IM,371DNNCG57IGA1IMUX7DUPM8OSP8TA,3ZQIG0FLQIW9ZDGNNXS0Y792XW7VWO,6,5
58,2,object_01,object_09,627.90000003576,3,1,238.09999996424,0.0,1,object_07,1,598,0,0,3,forest_1,1,memory-2step-stake-s,582,1831905,0.0-19.0-0.0-0.58,A19YM9K2W233IM,371DNNCG57IGA1IMUX7DUPM8OSP8TA,3ZQIG0FLQIW9ZDGNNXS0Y792XW7VWO,3,4
59,2,object_09,object_01,724.60000002384,4,1,288.60000002384,0.3333333333333333,2,object_04,1,601,0,0,3,forest_1,1,memory-2step-stake-s,583,1839767,0.0-19.0-0.0-0.59,A19YM9K2W233IM,371DNNCG57IGA1IMUX7DUPM8OSP8TA,3ZQIG0FLQIW9ZDGNNXS0Y792XW7VWO,4,3
60,1,object_05,object_02,645.79999995232,2,1,356.19999998808,0.4444444444444444,2,object_04,1,605,0,1,4,desert_5,1,memory-2step-stake-s,584,1847834,0.0-19.0-0.0-0.60,A19YM9K2W233IM,371DNNCG57IGA1IMUX7DUPM8OSP8TA,3ZQIG0FLQIW9ZDGNNXS0Y792XW7VWO,2,1
61,1,object_05,object_02,935.40000003576,1,2,280.70000004768,0.0,1,object_07,1,605,0,0,5,desert_3,1,memory-2step-stake-s,585,1855361,0.0-19.0-0.0-0.61,A19YM9K2W233IM,371DNNCG57IGA1IMUX7DUPM8OSP8TA,3ZQIG0FLQIW9ZDGNNXS0Y792XW7VWO,2,1
62,4,object_10,object_03,775.69999998808,8,1,322.80000001192,0.3333333333333333,2,object_04,5,620,0,2,3,restaurant_4,1,memory-2step-stake-s,586,1863268,0.0-19.0-0.0-0.62,A19YM9K2W233IM,371DNNCG57IGA1IMUX7DUPM8OSP8TA,3ZQIG0FLQIW9ZDGNNXS0Y792XW7VWO,8,7
63,1,object_02,object_05,417.29999995232,1,1,272.30000001192,0.5555555555555556,1,object_07,1,625,0,5,2,desert_3,1,memory-2step-stake-s,587,1871329,0.0-19.0-0.0-0.63,A19YM9K2W233IM,371DNNCG57IGA1IMUX7DUPM8OSP8TA,3ZQIG0FLQIW9ZDGNNXS0Y792XW7VWO,1,2
64,1,object_05,object_02,629.80000001192,2,1,272.69999998808,0.4444444444444444,2,object_04,1,629,0,4,4,desert_5,1,memory-2step-stake-s,588,1879300,0.0-19.0-0.0-0.64,A19YM9K2W233IM,371DNNCG57IGA1IMUX7DUPM8OSP8TA,3ZQIG0FLQIW9ZDGNNXS0Y792XW7VWO,2,1
65,3,object_06,object_08,586.40000003576,6,1,261.19999998808,0.3333333333333333,2,object_04,5,644,0,1,3,library_6,1,memory-2step-stake-s,589,1887134,0.0-19.0-0.0-0.65,A19YM9K2W233IM,371DNNCG57IGA1IMUX7DUPM8OSP8TA,3ZQIG0FLQIW9ZDGNNXS0Y792XW7VWO,6,5
66,4,object_03,object_10,780.5,7,1,230.19999998808,0.2222222222222222,1,object_07,5,654,0,2,6,restaurant_6,1,memory-2step-stake-s,590,1894860,0.0-19.0-0.0-0.66,A19YM9K2W233IM,371DNNCG57IGA1IMUX7DUPM8OSP8TA,3ZQIG0FLQIW9ZDGNNXS0Y792XW7VWO,7,8
67,3,object_06,object_08,697.69999998808,6,1,263.19999998808,0.8888888888888888,2,object_04,5,694,0,3,8,library_6,1,memory-2step-stake-s,591,1903223,0.0-19.0-0.0-0.67,A19YM9K2W233IM,371DNNCG57IGA1IMUX7DUPM8OSP8TA,3ZQIG0FLQIW9ZDGNNXS0Y792XW7VWO,6,5
68,4,object_03,object_10,525.69999998808,7,1,271.29999995232,0.3333333333333333,1,object_07,5,709,0,3,9,restaurant_6,1,memory-2step-stake-s,592,1911108,0.0-19.0-0.0-0.68,A19YM9K2W233IM,371DNNCG57IGA1IMUX7DUPM8OSP8TA,3ZQIG0FLQIW9ZDGNNXS0Y792XW7VWO,7,8
69,4,object_03,object_10,598.30000001192,7,1,285.10000002384,0.0,1,object_07,5,709,0,0,8,restaurant_2,1,memory-2step-stake-s,593,1918662,0.0-19.0-0.0-0.69,A19YM9K2W233IM,371DNNCG57IGA1IMUX7DUPM8OSP8TA,3ZQIG0FLQIW9ZDGNNXS0Y792XW7VWO,7,8
70,3,object_06,object_08,869.90000003576,6,1,346.70000004768,0.7777777777777778,2,object_04,5,744,0,3,7,library_6,1,memory-2step-stake-s,594,1927001,0.0-19.0-0.0-0.70,A19YM9K2W233IM,371DNNCG57IGA1IMUX7DUPM8OSP8TA,3ZQIG0FLQIW9ZDGNNXS0Y792XW7VWO,6,5
71,3,object_08,object_06,770.19999998808,6,2,312.30000001192,0.8888888888888888,2,object_04,5,784,0,3,8,library_2,1,memory-2step-stake-s,595,1935444,0.0-19.0-0.0-0.71,A19YM9K2W233IM,371DNNCG57IGA1IMUX7DUPM8OSP8TA,3ZQIG0FLQIW9ZDGNNXS0Y792XW7VWO,5,6
72,1,object_05,object_02,875.90000003576,2,1,230.39999997616,0.6666666666666666,2,object_04,5,814,0,4,6,desert_2,1,memory-2step-stake-s,596,1943574,0.0-19.0-0.0-0.72,A19YM9K2W233IM,371DNNCG57IGA1IMUX7DUPM8OSP8TA,3ZQIG0FLQIW9ZDGNNXS0Y792XW7VWO,2,1
73,3,object_08,object_06,826.39999997616,6,2,247.39999997616,0.4444444444444444,2,object_04,5,834,0,3,4,library_1,1,memory-2step-stake-s,597,1951496,0.0-19.0-0.0-0.73,A19YM9K2W233IM,371DNNCG57IGA1IMUX7DUPM8OSP8TA,3ZQIG0FLQIW9ZDGNNXS0Y792XW7VWO,5,6
74,3,object_06,object_08,875.80000001192,6,1,259.89999997616,0.3333333333333333,2,object_04,5,849,0,2,3,library_2,1,memory-2step-stake-s,598,1959329,0.0-19.0-0.0-0.74,A19YM9K2W233IM,371DNNCG57IGA1IMUX7DUPM8OSP8TA,3ZQIG0FLQIW9ZDGNNXS0Y792XW7VWO,6,5
75,3,object_06,object_08,1037.3999999762,5,2,261.60000002384,0.1111111111111111,1,object_07,5,854,0,1,6,library_8,1,memory-2step-stake-s,599,1966978,0.0-19.0-0.0-0.75,A19YM9K2W233IM,371DNNCG57IGA1IMUX7DUPM8OSP8TA,3ZQIG0FLQIW9ZDGNNXS0Y792XW7VWO,6,5
76,4,object_10,object_03,1104.5,7,2,391.09999996424,0.2222222222222222,1,object_07,5,864,0,2,7,restaurant_6,1,memory-2step-stake-s,600,1974854,0.0-19.0-0.0-0.76,A19YM9K2W233IM,371DNNCG57IGA1IMUX7DUPM8OSP8TA,3ZQIG0FLQIW9ZDGNNXS0Y792XW7VWO,8,7
77,2,object_09,object_01,969.40000003576,3,2,262.60000002384,0.3333333333333333,1,object_07,1,867,0,3,8,forest_1,1,memory-2step-stake-s,601,1982699,0.0-19.0-0.0-0.77,A19YM9K2W233IM,371DNNCG57IGA1IMUX7DUPM8OSP8TA,3ZQIG0FLQIW9ZDGNNXS0Y792XW7VWO,4,3
78,4,object_03,object_10,838.30000001192,7,1,292.10000002384,0.3333333333333333,1,object_07,5,882,0,3,6,restaurant_4,1,memory-2step-stake-s,602,1990577,0.0-19.0-0.0-0.78,A19YM9K2W233IM,371DNNCG57IGA1IMUX7DUPM8OSP8TA,3ZQIG0FLQIW9ZDGNNXS0Y792XW7VWO,7,8
79,3,object_06,object_08,1145.6999999881,6,1,325.89999997616,0.4444444444444444,2,object_04,5,902,0,4,4,library_8,1,memory-2step-stake-s,603,1998582,0.0-19.0-0.0-0.79,A19YM9K2W233IM,371DNNCG57IGA1IMUX7DUPM8OSP8TA,3ZQIG0FLQIW9ZDGNNXS0Y792XW7VWO,6,5
80,2,object_01,object_09,829.30000001192,4,2,238.0,0.3333333333333333,2,object_04,1,905,0,7,3,forest_7,1,memory-2step-stake-s,604,2006417,0.0-19.0-0.0-0.80,A19YM9K2W233IM,371DNNCG57IGA1IMUX7DUPM8OSP8TA,3ZQIG0FLQIW9ZDGNNXS0Y792XW7VWO,3,4
81,3,object_06,object_08,764.69999998808,6,1,227.59999996424,0.0,2,object_04,5,905,0,7,0,library_6,1,memory-2step-stake-s,605,2013897,0.0-19.0-0.0-0.81,A19YM9K2W233IM,371DNNCG57IGA1IMUX7DUPM8OSP8TA,3ZQIG0FLQIW9ZDGNNXS0Y792XW7VWO,6,5
82,4,object_10,object_03,894.0,8,1,219.59999996424,0.2222222222222222,2,object_04,1,907,0,4,2,restaurant_1,1,memory-2step-stake-s,606,2021595,0.0-19.0-0.0-0.82,A19YM9K2W233IM,371DNNCG57IGA1IMUX7DUPM8OSP8TA,3ZQIG0FLQIW9ZDGNNXS0Y792XW7VWO,8,7
83,4,object_03,object_10,709.70000004768,7,1,275.20000004768,0.5555555555555556,1,object_07,5,932,0,5,4,restaurant_4,1,memory-2step-stake-s,607,2029657,0.0-19.0-0.0-0.83,A19YM9K2W233IM,371DNNCG57IGA1IMUX7DUPM8OSP8TA,3ZQIG0FLQIW9ZDGNNXS0Y792XW7VWO,7,8
84,3,object_08,object_06,958.5,5,1,326.79999995232,0.6666666666666666,1,object_07,5,962,0,6,4,library_1,1,memory-2step-stake-s,608,2037883,0.0-19.0-0.0-0.84,A19YM9K2W233IM,371DNNCG57IGA1IMUX7DUPM8OSP8TA,3ZQIG0FLQIW9ZDGNNXS0Y792XW7VWO,5,6
85,2,object_01,object_09,955.89999997616,4,2,256.60000002384,0.1111111111111111,2,object_04,1,963,0,5,1,forest_1,1,memory-2step-stake-s,609,2045504,0.0-19.0-0.0-0.85,A19YM9K2W233IM,371DNNCG57IGA1IMUX7DUPM8OSP8TA,3ZQIG0FLQIW9ZDGNNXS0Y792XW7VWO,3,4
86,4,object_03,object_10,1020.3999999762,7,1,282.79999995232,0.4444444444444444,1,object_07,5,983,0,4,2,restaurant_2,1,memory-2step-stake-s,610,2053500,0.0-19.0-0.0-0.86,A19YM9K2W233IM,371DNNCG57IGA1IMUX7DUPM8OSP8TA,3ZQIG0FLQIW9ZDGNNXS0Y792XW7VWO,7,8
87,4,object_10,object_03,738.39999997616,7,2,242.0,0.3333333333333333,1,object_07,5,998,0,3,3,restaurant_1,1,memory-2step-stake-s,611,2061304,0.0-19.0-0.0-0.87,A19YM9K2W233IM,371DNNCG57IGA1IMUX7DUPM8OSP8TA,3ZQIG0FLQIW9ZDGNNXS0Y792XW7VWO,8,7
88,2,object_01,object_09,605.69999998808,3,1,248.69999998808,0.1111111111111111,1,object_07,5,1003,0,1,5,forest_3,1,memory-2step-stake-s,612,2068935,0.0-19.0-0.0-0.88,A19YM9K2W233IM,371DNNCG57IGA1IMUX7DUPM8OSP8TA,3ZQIG0FLQIW9ZDGNNXS0Y792XW7VWO,3,4
89,2,object_01,object_09,605.30000001192,3,1,292.60000002384,0.1111111111111111,1,object_07,1,1004,0,1,3,forest_7,1,memory-2step-stake-s,613,2076599,0.0-19.0-0.0-0.89,A19YM9K2W233IM,371DNNCG57IGA1IMUX7DUPM8OSP8TA,3ZQIG0FLQIW9ZDGNNXS0Y792XW7VWO,3,4
90,2,object_01,object_09,634.39999997616,3,1,289.80000001192,0.0,1,object_07,1,1004,0,0,2,forest_2,1,memory-2step-stake-s,614,2084164,0.0-19.0-0.0-0.90,A19YM9K2W233IM,371DNNCG57IGA1IMUX7DUPM8OSP8TA,3ZQIG0FLQIW9ZDGNNXS0Y792XW7VWO,3,4
91,3,object_08,object_06,946.5,6,2,328.60000002384,0.4444444444444444,2,object_04,5,1024,0,4,4,library_8,1,memory-2step-stake-s,615,2092150,0.0-19.0-0.0-0.91,A19YM9K2W233IM,371DNNCG57IGA1IMUX7DUPM8OSP8TA,3ZQIG0FLQIW9ZDGNNXS0Y792XW7VWO,5,6
92,2,object_09,object_01,868.19999998808,3,2,529.69999998808,0.0,1,object_07,1,1024,0,0,4,forest_2,1,memory-2step-stake-s,616,2099950,0.0-19.0-0.0-0.92,A19YM9K2W233IM,371DNNCG57IGA1IMUX7DUPM8OSP8TA,3ZQIG0FLQIW9ZDGNNXS0Y792XW7VWO,4,3
93,4,object_10,object_03,1243.6999999881,7,2,269.0,0.0,1,object_07,5,1024,0,0,3,restaurant_6,1,memory-2step-stake-s,617,2107474,0.0-19.0-0.0-0.93,A19YM9K2W233IM,371DNNCG57IGA1IMUX7DUPM8OSP8TA,3ZQIG0FLQIW9ZDGNNXS0Y792XW7VWO,8,7
94,3,object_06,object_08,1434.1999999881,5,2,605.5,0.1111111111111111,1,object_07,5,1029,0,1,5,library_1,1,memory-2step-stake-s,618,2115454,0.0-19.0-0.0-0.94,A19YM9K2W233IM,371DNNCG57IGA1IMUX7DUPM8OSP8TA,3ZQIG0FLQIW9ZDGNNXS0Y792XW7VWO,6,5
95,2,object_01,object_09,931.60000002384,4,2,229.5,0.6666666666666666,2,object_04,5,1059,0,5,6,forest_3,1,memory-2step-stake-s,619,2123609,0.0-19.0-0.0-0.95,A19YM9K2W233IM,371DNNCG57IGA1IMUX7DUPM8OSP8TA,3ZQIG0FLQIW9ZDGNNXS0Y792XW7VWO,3,4
96,3,object_06,object_08,787.89999997616,6,1,442.89999997616,0.1111111111111111,2,object_04,5,1064,0,5,1,library_1,1,memory-2step-stake-s,620,2131436,0.0-19.0-0.0-0.96,A19YM9K2W233IM,371DNNCG57IGA1IMUX7DUPM8OSP8TA,3ZQIG0FLQIW9ZDGNNXS0Y792XW7VWO,6,5
97,2,object_01,object_09,721.30000001192,3,1,290.29999995232,0.6666666666666666,1,object_07,1,1070,0,6,1,forest_1,1,memory-2step-stake-s,621,2139654,0.0-19.0-0.0-0.97,A19YM9K2W233IM,371DNNCG57IGA1IMUX7DUPM8OSP8TA,3ZQIG0FLQIW9ZDGNNXS0Y792XW7VWO,3,4
98,4,object_03,object_10,-1.0,-1,-1,-1.0,0.0,-,0,1,1070,0,8,4,restaurant_6,1,memory-2step-stake-s,622,2146211,0.0-19.0-0.0-0.98,A19YM9K2W233IM,371DNNCG57IGA1IMUX7DUPM8OSP8TA,3ZQIG0FLQIW9ZDGNNXS0Y792XW7VWO,7,8
99,2,object_01,object_09,661.10000002384,3,1,529.29999995232,0.8888888888888888,1,object_07,1,1078,0,8,4,forest_2,1,memory-2step-stake-s,623,2154845,0.0-19.0-0.0-0.99,A19YM9K2W233IM,371DNNCG57IGA1IMUX7DUPM8OSP8TA,3ZQIG0FLQIW9ZDGNNXS0Y792XW7VWO,3,4
100,4,object_03,object_10,854.0,8,2,315.0,0.0,2,object_04,5,1078,0,8,0,restaurant_1,1,memory-2step-stake-s,624,2162451,0.0-19.0-0.0-0.100,A19YM9K2W233IM,371DNNCG57IGA1IMUX7DUPM8OSP8TA,3ZQIG0FLQIW9ZDGNNXS0Y792XW7VWO,7,8
101,3,object_08,object_06,836.5,5,1,353.30000001192,0.6666666666666666,1,object_07,5,1108,0,6,0,library_2,1,memory-2step-stake-s,625,2170706,0.0-19.0-0.0-0.101,A19YM9K2W233IM,371DNNCG57IGA1IMUX7DUPM8OSP8TA,3ZQIG0FLQIW9ZDGNNXS0Y792XW7VWO,5,6
102,2,object_09,object_01,690.60000002384,3,2,245.40000003576,0.4444444444444444,1,object_07,1,1112,0,4,0,forest_2,1,memory-2step-stake-s,626,2178628,0.0-19.0-0.0-0.102,A19YM9K2W233IM,371DNNCG57IGA1IMUX7DUPM8OSP8TA,3ZQIG0FLQIW9ZDGNNXS0Y792XW7VWO,4,3
103,1,object_05,object_02,585.0,2,1,302.80000001192,0.1111111111111111,2,object_04,1,1113,0,4,1,desert_8,1,memory-2step-stake-s,627,2186324,0.0-19.0-0.0-0.103,A19YM9K2W233IM,371DNNCG57IGA1IMUX7DUPM8OSP8TA,3ZQIG0FLQIW9ZDGNNXS0Y792XW7VWO,2,1
104,3,object_08,object_06,791.30000001192,5,1,348.0,0.7777777777777778,1,object_07,5,1148,0,7,1,library_8,1,memory-2step-stake-s,628,2194687,0.0-19.0-0.0-0.104,A19YM9K2W233IM,371DNNCG57IGA1IMUX7DUPM8OSP8TA,3ZQIG0FLQIW9ZDGNNXS0Y792XW7VWO,5,6
105,2,object_09,object_01,707.69999998808,3,2,241.5,0.6666666666666666,1,object_07,5,1178,0,6,1,forest_3,1,memory-2step-stake-s,629,2202810,0.0-19.0-0.0-0.105,A19YM9K2W233IM,371DNNCG57IGA1IMUX7DUPM8OSP8TA,3ZQIG0FLQIW9ZDGNNXS0Y792XW7VWO,4,3
106,3,object_08,object_06,619.89999997616,5,1,284.80000001192,0.7777777777777778,1,object_07,5,1213,0,7,0,library_8,1,memory-2step-stake-s,630,2211105,0.0-19.0-0.0-0.106,A19YM9K2W233IM,371DNNCG57IGA1IMUX7DUPM8OSP8TA,3ZQIG0FLQIW9ZDGNNXS0Y792XW7VWO,5,6
107,1,object_05,object_02,869.59999996424,1,2,268.80000001192,1.0,1,object_07,5,1258,0,9,0,desert_3,1,memory-2step-stake-s,631,2219560,0.0-19.0-0.0-0.107,A19YM9K2W233IM,371DNNCG57IGA1IMUX7DUPM8OSP8TA,3ZQIG0FLQIW9ZDGNNXS0Y792XW7VWO,2,1
108,4,object_03,object_10,717.19999998808,7,1,355.60000002384,0.7777777777777778,1,object_07,5,1293,0,7,1,restaurant_4,1,memory-2step-stake-s,632,2227942,0.0-19.0-0.0-0.108,A19YM9K2W233IM,371DNNCG57IGA1IMUX7DUPM8OSP8TA,3ZQIG0FLQIW9ZDGNNXS0Y792XW7VWO,7,8
109,2,object_01,object_09,967.80000001192,4,2,339.0,0.2222222222222222,2,object_04,1,1295,0,4,2,forest_3,1,memory-2step-stake-s,633,2235768,0.0-19.0-0.0-0.109,A19YM9K2W233IM,371DNNCG57IGA1IMUX7DUPM8OSP8TA,3ZQIG0FLQIW9ZDGNNXS0Y792XW7VWO,3,4
110,2,object_01,object_09,635.69999998808,3,1,329.19999998808,0.3333333333333333,1,object_07,5,1310,0,3,5,forest_3,1,memory-2step-stake-s,634,2243688,0.0-19.0-0.0-0.110,A19YM9K2W233IM,371DNNCG57IGA1IMUX7DUPM8OSP8TA,3ZQIG0FLQIW9ZDGNNXS0Y792XW7VWO,3,4
111,4,object_03,object_10,960.0,8,2,229.09999996424,0.5555555555555556,2,object_04,1,1315,0,4,5,restaurant_6,1,memory-2step-stake-s,635,2251727,0.0-19.0-0.0-0.111,A19YM9K2W233IM,371DNNCG57IGA1IMUX7DUPM8OSP8TA,3ZQIG0FLQIW9ZDGNNXS0Y792XW7VWO,7,8
112,4,object_10,object_03,1209.6999999881,8,1,259.60000002384,0.8888888888888888,2,object_04,5,1355,0,6,8,restaurant_6,1,memory-2step-stake-s,636,2260099,0.0-19.0-0.0-0.112,A19YM9K2W233IM,371DNNCG57IGA1IMUX7DUPM8OSP8TA,3ZQIG0FLQIW9ZDGNNXS0Y792XW7VWO,8,7
113,3,object_08,object_06,753.69999998808,6,2,425.79999995232,1.0,2,object_04,1,1364,0,8,9,library_6,1,memory-2step-stake-s,637,2268715,0.0-19.0-0.0-0.113,A19YM9K2W233IM,371DNNCG57IGA1IMUX7DUPM8OSP8TA,3ZQIG0FLQIW9ZDGNNXS0Y792XW7VWO,5,6
114,4,object_03,object_10,1254.4000000358,8,2,299.39999997616,0.7777777777777778,2,object_04,5,1399,0,6,7,restaurant_1,1,memory-2step-stake-s,638,2277028,0.0-19.0-0.0-0.114,A19YM9K2W233IM,371DNNCG57IGA1IMUX7DUPM8OSP8TA,3ZQIG0FLQIW9ZDGNNXS0Y792XW7VWO,7,8
115,2,object_09,object_01,731.09999996424,3,2,275.89999997616,0.6666666666666666,1,object_07,5,1429,0,6,4,forest_7,1,memory-2step-stake-s,639,2285185,0.0-19.0-0.0-0.115,A19YM9K2W233IM,371DNNCG57IGA1IMUX7DUPM8OSP8TA,3ZQIG0FLQIW9ZDGNNXS0Y792XW7VWO,4,3
116,3,object_06,object_08,661.20000004768,6,1,233.39999997616,0.4444444444444444,2,object_04,5,1449,0,7,4,library_2,1,memory-2step-stake-s,640,2293110,0.0-19.0-0.0-0.116,A19YM9K2W233IM,371DNNCG57IGA1IMUX7DUPM8OSP8TA,3ZQIG0FLQIW9ZDGNNXS0Y792XW7VWO,6,5
117,1,object_02,object_05,641.59999996424,1,1,242.60000002384,0.7777777777777778,1,object_07,1,1456,0,7,4,desert_2,1,memory-2step-stake-s,641,2301345,0.0-19.0-0.0-0.117,A19YM9K2W233IM,371DNNCG57IGA1IMUX7DUPM8OSP8TA,3ZQIG0FLQIW9ZDGNNXS0Y792XW7VWO,1,2
118,1,object_02,object_05,836.09999996424,2,2,226.0,0.4444444444444444,2,object_04,1,1460,0,5,4,desert_3,1,memory-2step-stake-s,642,2309260,0.0-19.0-0.0-0.118,A19YM9K2W233IM,371DNNCG57IGA1IMUX7DUPM8OSP8TA,3ZQIG0FLQIW9ZDGNNXS0Y792XW7VWO,1,2
119,3,object_08,object_06,587.30000001192,6,2,262.0,0.4444444444444444,2,object_04,5,1480,0,6,4,library_1,1,memory-2step-stake-s,643,2317223,0.0-19.0-0.0-0.119,A19YM9K2W233IM,371DNNCG57IGA1IMUX7DUPM8OSP8TA,3ZQIG0FLQIW9ZDGNNXS0Y792XW7VWO,5,6
120,1,object_02,object_05,626.5,2,2,344.60000002384,0.2222222222222222,2,object_04,1,1482,0,6,2,desert_2,1,memory-2step-stake-s,644,2325044,0.0-19.0-0.0-0.120,A19YM9K2W233IM,371DNNCG57IGA1IMUX7DUPM8OSP8TA,3ZQIG0FLQIW9ZDGNNXS0Y792XW7VWO,1,2
121,4,object_10,object_03,871.60000002384,7,2,232.69999998808,1.0,1,object_07,1,1491,0,9,3,restaurant_2,1,memory-2step-stake-s,645,2333473,0.0-19.0-0.0-0.121,A19YM9K2W233IM,371DNNCG57IGA1IMUX7DUPM8OSP8TA,3ZQIG0FLQIW9ZDGNNXS0Y792XW7VWO,8,7
122,2,object_09,object_01,1002.6999999881,3,2,272.30000001192,0.8888888888888888,1,object_07,1,1499,0,8,1,forest_2,1,memory-2step-stake-s,646,2341891,0.0-19.0-0.0-0.122,A19YM9K2W233IM,371DNNCG57IGA1IMUX7DUPM8OSP8TA,3ZQIG0FLQIW9ZDGNNXS0Y792XW7VWO,4,3
123,2,object_01,object_09,610.79999995232,3,1,236.39999997616,1.0,1,object_07,5,1544,0,9,3,forest_7,1,memory-2step-stake-s,647,2350326,0.0-19.0-0.0-0.123,A19YM9K2W233IM,371DNNCG57IGA1IMUX7DUPM8OSP8TA,3ZQIG0FLQIW9ZDGNNXS0Y792XW7VWO,3,4
124,4,object_03,object_10,708.60000002384,8,2,236.90000003576,0.2222222222222222,2,object_04,5,1554,0,9,2,restaurant_6,1,memory-2step-stake-s,648,2358038,0.0-19.0-0.0-0.124,A19YM9K2W233IM,371DNNCG57IGA1IMUX7DUPM8OSP8TA,3ZQIG0FLQIW9ZDGNNXS0Y792XW7VWO,7,8
125,3,object_08,object_06,999.5,5,1,282.60000002384,0.7777777777777778,1,object_07,5,1589,0,7,1,library_8,1,memory-2step-stake-s,649,2366334,0.0-19.0-0.0-0.125,A19YM9K2W233IM,371DNNCG57IGA1IMUX7DUPM8OSP8TA,3ZQIG0FLQIW9ZDGNNXS0Y792XW7VWO,5,6
126,2,object_01,object_09,662.69999998808,4,2,208.60000002384,0.1111111111111111,2,object_04,1,1590,0,6,1,forest_1,1,memory-2step-stake-s,650,2373939,0.0-19.0-0.0-0.126,A19YM9K2W233IM,371DNNCG57IGA1IMUX7DUPM8OSP8TA,3ZQIG0FLQIW9ZDGNNXS0Y792XW7VWO,3,4
127,1,object_05,object_02,541.60000002384,2,1,145.69999998808,0.4444444444444444,2,object_04,1,1594,0,7,4,desert_5,1,memory-2step-stake-s,651,2381758,0.0-19.0-0.0-0.127,A19YM9K2W233IM,371DNNCG57IGA1IMUX7DUPM8OSP8TA,3ZQIG0FLQIW9ZDGNNXS0Y792XW7VWO,2,1
128,1,object_02,object_05,787.0,2,2,537.5,0.4444444444444444,2,object_04,1,1598,0,6,4,desert_8,1,memory-2step-stake-s,653,2431397,0.0-19.0-0.1-0.128,A19YM9K2W233IM,371DNNCG57IGA1IMUX7DUPM8OSP8TA,3ZQIG0FLQIW9ZDGNNXS0Y792XW7VWO,1,2
129,4,object_03,object_10,718.80000001192,8,2,259.60000002384,0.3333333333333333,2,object_04,5,1613,0,3,3,restaurant_4,1,memory-2step-stake-s,654,2439276,0.0-19.0-0.1-0.129,A19YM9K2W233IM,371DNNCG57IGA1IMUX7DUPM8OSP8TA,3ZQIG0FLQIW9ZDGNNXS0Y792XW7VWO,7,8
130,1,object_02,object_05,678.5,2,2,240.19999998808,0.3333333333333333,2,object_04,1,1616,0,2,3,desert_3,1,memory-2step-stake-s,655,2447100,0.0-19.0-0.1-0.130,A19YM9K2W233IM,371DNNCG57IGA1IMUX7DUPM8OSP8TA,3ZQIG0FLQIW9ZDGNNXS0Y792XW7VWO,1,2
131,3,object_08,object_06,809.60000002384,5,1,228.30000001192,0.1111111111111111,1,object_07,5,1621,0,1,1,library_8,1,memory-2step-stake-s,656,2454726,0.0-19.0-0.1-0.131,A19YM9K2W233IM,371DNNCG57IGA1IMUX7DUPM8OSP8TA,3ZQIG0FLQIW9ZDGNNXS0Y792XW7VWO,5,6
132,3,object_06,object_08,883.59999996424,6,1,214.40000003576,0.1111111111111111,2,object_04,5,1626,0,3,1,library_8,1,memory-2step-stake-s,657,2462321,0.0-19.0-0.1-0.132,A19YM9K2W233IM,371DNNCG57IGA1IMUX7DUPM8OSP8TA,3ZQIG0FLQIW9ZDGNNXS0Y792XW7VWO,6,5
133,2,object_01,object_09,677.89999997616,3,1,355.40000003576,0.1111111111111111,1,object_07,5,1631,0,1,2,forest_7,1,memory-2step-stake-s,658,2470066,0.0-19.0-0.1-0.133,A19YM9K2W233IM,371DNNCG57IGA1IMUX7DUPM8OSP8TA,3ZQIG0FLQIW9ZDGNNXS0Y792XW7VWO,3,4
134,2,object_09,object_01,787.59999996424,4,1,251.60000002384,0.3333333333333333,2,object_04,1,1634,0,0,3,forest_7,1,memory-2step-stake-s,659,2477891,0.0-19.0-0.1-0.134,A19YM9K2W233IM,371DNNCG57IGA1IMUX7DUPM8OSP8TA,3ZQIG0FLQIW9ZDGNNXS0Y792XW7VWO,4,3
135,3,object_06,object_08,797.5,5,2,46.100000023842,0.1111111111111111,1,object_07,5,1639,0,1,5,library_1,1,memory-2step-stake-s,660,2485355,0.0-19.0-0.1-0.135,A19YM9K2W233IM,371DNNCG57IGA1IMUX7DUPM8OSP8TA,3ZQIG0FLQIW9ZDGNNXS0Y792XW7VWO,6,5
136,2,object_01,object_09,724.70000004768,4,2,530.0,0.5555555555555556,2,object_04,1,1644,0,0,5,forest_3,1,memory-2step-stake-s,661,2493702,0.0-19.0-0.1-0.136,A19YM9K2W233IM,371DNNCG57IGA1IMUX7DUPM8OSP8TA,3ZQIG0FLQIW9ZDGNNXS0Y792XW7VWO,3,4
137,1,object_05,object_02,1105.1999999881,2,1,459.0,0.8888888888888888,2,object_04,1,1652,0,1,8,desert_3,1,memory-2step-stake-s,662,2502269,0.0-19.0-0.1-0.137,A19YM9K2W233IM,371DNNCG57IGA1IMUX7DUPM8OSP8TA,3ZQIG0FLQIW9ZDGNNXS0Y792XW7VWO,2,1
138,3,object_06,object_08,1015.8000000119,5,2,269.69999998808,0.1111111111111111,1,object_07,1,1653,0,1,8,library_6,1,memory-2step-stake-s,663,2509923,0.0-19.0-0.1-0.138,A19YM9K2W233IM,371DNNCG57IGA1IMUX7DUPM8OSP8TA,3ZQIG0FLQIW9ZDGNNXS0Y792XW7VWO,6,5
139,4,object_03,object_10,836.0,7,1,290.19999998808,0.3333333333333333,1,object_07,1,1656,0,3,7,restaurant_4,1,memory-2step-stake-s,664,2517842,0.0-19.0-0.1-0.139,A19YM9K2W233IM,371DNNCG57IGA1IMUX7DUPM8OSP8TA,3ZQIG0FLQIW9ZDGNNXS0Y792XW7VWO,7,8
140,4,object_10,object_03,802.90000003576,8,1,355.0,1.0,2,object_04,5,1701,0,4,9,restaurant_4,1,memory-2step-stake-s,665,2526402,0.0-19.0-0.1-0.140,A19YM9K2W233IM,371DNNCG57IGA1IMUX7DUPM8OSP8TA,3ZQIG0FLQIW9ZDGNNXS0Y792XW7VWO,8,7
141,4,object_10,object_03,750.60000002384,8,1,252.89999997616,1.0,2,object_04,5,1746,0,5,9,restaurant_4,1,memory-2step-stake-s,666,2534872,0.0-19.0-0.1-0.141,A19YM9K2W233IM,371DNNCG57IGA1IMUX7DUPM8OSP8TA,3ZQIG0FLQIW9ZDGNNXS0Y792XW7VWO,8,7
142,3,object_06,object_08,888.60000002384,5,2,257.0,0.7777777777777778,1,object_07,5,1781,0,7,8,library_8,1,memory-2step-stake-s,667,2543133,0.0-19.0-0.1-0.142,A19YM9K2W233IM,371DNNCG57IGA1IMUX7DUPM8OSP8TA,3ZQIG0FLQIW9ZDGNNXS0Y792XW7VWO,6,5
143,2,object_01,object_09,758.5,3,1,232.0,0.6666666666666666,1,object_07,5,1811,0,6,8,forest_2,1,memory-2step-stake-s,668,2551284,0.0-19.0-0.1-0.143,A19YM9K2W233IM,371DNNCG57IGA1IMUX7DUPM8OSP8TA,3ZQIG0FLQIW9ZDGNNXS0Y792XW7VWO,3,4
144,3,object_08,object_06,660.0,5,1,221.69999998808,0.6666666666666666,1,object_07,5,1841,0,6,7,library_2,1,memory-2step-stake-s,669,2559397,0.0-19.0-0.1-0.144,A19YM9K2W233IM,371DNNCG57IGA1IMUX7DUPM8OSP8TA,3ZQIG0FLQIW9ZDGNNXS0Y792XW7VWO,5,6
145,1,object_02,object_05,740.5,1,1,139.30000001192,0.6666666666666666,1,object_07,1,1847,0,6,7,desert_8,1,memory-2step-stake-s,670,2567418,0.0-19.0-0.1-0.145,A19YM9K2W233IM,371DNNCG57IGA1IMUX7DUPM8OSP8TA,3ZQIG0FLQIW9ZDGNNXS0Y792XW7VWO,1,2
146,3,object_08,object_06,1484.8999999762,5,1,318.30000001192,0.7777777777777778,1,object_07,5,1882,0,7,6,library_6,1,memory-2step-stake-s,671,2575745,0.0-19.0-0.1-0.146,A19YM9K2W233IM,371DNNCG57IGA1IMUX7DUPM8OSP8TA,3ZQIG0FLQIW9ZDGNNXS0Y792XW7VWO,5,6
147,2,object_09,object_01,777.80000001192,3,2,216.59999996424,0.5555555555555556,1,object_07,1,1887,0,5,7,forest_2,1,memory-2step-stake-s,672,2583751,0.0-19.0-0.1-0.147,A19YM9K2W233IM,371DNNCG57IGA1IMUX7DUPM8OSP8TA,3ZQIG0FLQIW9ZDGNNXS0Y792XW7VWO,4,3
148,1,object_05,object_02,648.40000003576,2,1,158.89999997616,0.6666666666666666,2,object_04,1,1893,0,4,6,desert_5,1,memory-2step-stake-s,673,2591810,0.0-19.0-0.1-0.148,A19YM9K2W233IM,371DNNCG57IGA1IMUX7DUPM8OSP8TA,3ZQIG0FLQIW9ZDGNNXS0Y792XW7VWO,2,1
149,1,object_02,object_05,1095.5,2,2,170.19999998808,0.8888888888888888,2,object_04,1,1901,0,6,8,desert_3,1,memory-2step-stake-s,674,2600077,0.0-19.0-0.1-0.149,A19YM9K2W233IM,371DNNCG57IGA1IMUX7DUPM8OSP8TA,3ZQIG0FLQIW9ZDGNNXS0Y792XW7VWO,1,2
150,3,object_06,object_08,807.09999996424,5,2,222.20000004768,0.5555555555555556,1,object_07,5,1926,0,5,7,library_8,1,memory-2step-stake-s,675,2608093,0.0-19.0-0.1-0.150,A19YM9K2W233IM,371DNNCG57IGA1IMUX7DUPM8OSP8TA,3ZQIG0FLQIW9ZDGNNXS0Y792XW7VWO,6,5
151,1,object_02,object_05,667.09999996424,2,2,285.69999998808,0.6666666666666666,2,object_04,1,1932,0,4,6,desert_2,1,memory-2step-stake-s,676,2616274,0.0-19.0-0.1-0.151,A19YM9K2W233IM,371DNNCG57IGA1IMUX7DUPM8OSP8TA,3ZQIG0FLQIW9ZDGNNXS0Y792XW7VWO,1,2
152,1,object_02,object_05,785.89999997616,2,2,295.79999995232,1.0,2,object_04,1,1941,0,4,9,desert_8,1,memory-2step-stake-s,677,2624788,0.0-19.0-0.1-0.152,A19YM9K2W233IM,371DNNCG57IGA1IMUX7DUPM8OSP8TA,3ZQIG0FLQIW9ZDGNNXS0Y792XW7VWO,1,2
153,3,object_08,object_06,566.09999996424,6,2,395.39999997616,0.8888888888888888,2,object_04,1,1949,0,8,8,library_1,1,memory-2step-stake-s,678,2633267,0.0-19.0-0.1-0.153,A19YM9K2W233IM,371DNNCG57IGA1IMUX7DUPM8OSP8TA,3ZQIG0FLQIW9ZDGNNXS0Y792XW7VWO,5,6
154,1,object_05,object_02,1061.5,1,2,333.69999998808,0.4444444444444444,1,object_07,1,1953,0,4,8,desert_3,1,memory-2step-stake-s,679,2641279,0.0-19.0-0.1-0.154,A19YM9K2W233IM,371DNNCG57IGA1IMUX7DUPM8OSP8TA,3ZQIG0FLQIW9ZDGNNXS0Y792XW7VWO,2,1
155,3,object_06,object_08,660.39999997616,5,2,216.80000001192,0.2222222222222222,1,object_07,5,1963,0,2,8,library_1,1,memory-2step-stake-s,680,2648960,0.0-19.0-0.1-0.155,A19YM9K2W233IM,371DNNCG57IGA1IMUX7DUPM8OSP8TA,3ZQIG0FLQIW9ZDGNNXS0Y792XW7VWO,6,5
156,3,object_08,object_06,897.39999997616,5,1,257.5,0.1111111111111111,1,object_07,5,1968,0,1,7,library_6,1,memory-2step-stake-s,681,2656581,0.0-19.0-0.1-0.156,A19YM9K2W233IM,371DNNCG57IGA1IMUX7DUPM8OSP8TA,3ZQIG0FLQIW9ZDGNNXS0Y792XW7VWO,5,6
157,4,object_03,object_10,941.69999998808,7,1,255.5,0.3333333333333333,1,object_07,5,1983,0,3,7,restaurant_2,1,memory-2step-stake-s,682,2664419,0.0-19.0-0.1-0.157,A19YM9K2W233IM,371DNNCG57IGA1IMUX7DUPM8OSP8TA,3ZQIG0FLQIW9ZDGNNXS0Y792XW7VWO,7,8
158,4,object_03,object_10,519.5,7,1,270.5,0.6666666666666666,1,object_07,1,1989,0,6,8,restaurant_1,1,memory-2step-stake-s,683,2672570,0.0-19.0-0.1-0.158,A19YM9K2W233IM,371DNNCG57IGA1IMUX7DUPM8OSP8TA,3ZQIG0FLQIW9ZDGNNXS0Y792XW7VWO,7,8
159,2,object_01,object_09,815.0,4,2,359.20000004768,0.6666666666666666,2,object_04,1,1995,0,6,6,forest_3,1,memory-2step-stake-s,684,2680832,0.0-19.0-0.1-0.159,A19YM9K2W233IM,371DNNCG57IGA1IMUX7DUPM8OSP8TA,3ZQIG0FLQIW9ZDGNNXS0Y792XW7VWO,3,4
160,2,object_09,object_01,677.60000002384,4,1,259.19999998808,0.6666666666666666,2,object_04,1,2001,0,8,6,forest_7,1,memory-2step-stake-s,685,2688984,0.0-19.0-0.1-0.160,A19YM9K2W233IM,371DNNCG57IGA1IMUX7DUPM8OSP8TA,3ZQIG0FLQIW9ZDGNNXS0Y792XW7VWO,4,3
161,4,object_03,object_10,755.60000002384,8,2,280.30000001192,0.8888888888888888,2,object_04,1,2009,0,8,8,restaurant_4,1,memory-2step-stake-s,686,2697378,0.0-19.0-0.1-0.161,A19YM9K2W233IM,371DNNCG57IGA1IMUX7DUPM8OSP8TA,3ZQIG0FLQIW9ZDGNNXS0Y792XW7VWO,7,8
162,2,object_01,object_09,1039.4000000358,4,2,305.19999998808,0.7777777777777778,2,object_04,5,2044,0,6,7,forest_3,1,memory-2step-stake-s,687,2705699,0.0-19.0-0.1-0.162,A19YM9K2W233IM,371DNNCG57IGA1IMUX7DUPM8OSP8TA,3ZQIG0FLQIW9ZDGNNXS0Y792XW7VWO,3,4
163,1,object_02,object_05,783.60000002384,2,2,216.5,0.6666666666666666,2,object_04,1,2050,0,5,6,desert_3,1,memory-2step-stake-s,688,2713821,0.0-19.0-0.1-0.163,A19YM9K2W233IM,371DNNCG57IGA1IMUX7DUPM8OSP8TA,3ZQIG0FLQIW9ZDGNNXS0Y792XW7VWO,1,2
164,2,object_09,object_01,952.19999998808,3,2,249.19999998808,0.7777777777777778,1,object_07,1,2057,0,7,8,forest_2,1,memory-2step-stake-s,689,2722105,0.0-19.0-0.1-0.164,A19YM9K2W233IM,371DNNCG57IGA1IMUX7DUPM8OSP8TA,3ZQIG0FLQIW9ZDGNNXS0Y792XW7VWO,4,3
165,1,object_02,object_05,657.20000004768,1,1,187.0,0.3333333333333333,1,object_07,1,2060,0,3,8,desert_8,1,memory-2step-stake-s,690,2729898,0.0-19.0-0.1-0.165,A19YM9K2W233IM,371DNNCG57IGA1IMUX7DUPM8OSP8TA,3ZQIG0FLQIW9ZDGNNXS0Y792XW7VWO,1,2
166,4,object_03,object_10,971.10000002384,8,2,258.0,0.8888888888888888,2,object_04,5,2100,0,4,8,restaurant_1,1,memory-2step-stake-s,691,2738263,0.0-19.0-0.1-0.166,A19YM9K2W233IM,371DNNCG57IGA1IMUX7DUPM8OSP8TA,3ZQIG0FLQIW9ZDGNNXS0Y792XW7VWO,7,8
167,4,object_03,object_10,760.09999996424,8,2,270.10000002384,0.8888888888888888,2,object_04,1,2108,0,3,8,restaurant_6,1,memory-2step-stake-s,692,2746661,0.0-19.0-0.1-0.167,A19YM9K2W233IM,371DNNCG57IGA1IMUX7DUPM8OSP8TA,3ZQIG0FLQIW9ZDGNNXS0Y792XW7VWO,7,8
168,1,object_05,object_02,702.30000001192,2,1,80.900000035763,0.6666666666666666,2,object_04,5,2138,0,1,6,desert_2,1,memory-2step-stake-s,693,2754626,0.0-19.0-0.1-0.168,A19YM9K2W233IM,371DNNCG57IGA1IMUX7DUPM8OSP8TA,3ZQIG0FLQIW9ZDGNNXS0Y792XW7VWO,2,1
169,4,object_10,object_03,737.60000002384,8,1,321.80000001192,0.4444444444444444,2,object_04,1,2142,0,2,4,restaurant_6,1,memory-2step-stake-s,694,2762652,0.0-19.0-0.1-0.169,A19YM9K2W233IM,371DNNCG57IGA1IMUX7DUPM8OSP8TA,3ZQIG0FLQIW9ZDGNNXS0Y792XW7VWO,8,7
170,1,object_02,object_05,663.10000002384,2,2,433.5,0.4444444444444444,2,object_04,1,2146,0,2,4,desert_2,1,memory-2step-stake-s,695,2770786,0.0-19.0-0.1-0.170,A19YM9K2W233IM,371DNNCG57IGA1IMUX7DUPM8OSP8TA,3ZQIG0FLQIW9ZDGNNXS0Y792XW7VWO,1,2
171,2,object_01,object_09,734.30000001192,4,2,375.39999997616,0.3333333333333333,2,object_04,1,2149,0,1,3,forest_2,1,memory-2step-stake-s,696,2778742,0.0-19.0-0.1-0.171,A19YM9K2W233IM,371DNNCG57IGA1IMUX7DUPM8OSP8TA,3ZQIG0FLQIW9ZDGNNXS0Y792XW7VWO,3,4
172,2,object_01,object_09,519.5,4,2,269.19999998808,0.4444444444444444,2,object_04,1,2153,0,3,4,forest_1,1,memory-2step-stake-s,697,2786675,0.0-19.0-0.1-0.172,A19YM9K2W233IM,371DNNCG57IGA1IMUX7DUPM8OSP8TA,3ZQIG0FLQIW9ZDGNNXS0Y792XW7VWO,3,4
173,2,object_09,object_01,673.10000002384,3,2,248.30000001192,0.6666666666666666,1,object_07,5,2183,0,6,2,forest_7,1,memory-2step-stake-s,698,2794811,0.0-19.0-0.1-0.173,A19YM9K2W233IM,371DNNCG57IGA1IMUX7DUPM8OSP8TA,3ZQIG0FLQIW9ZDGNNXS0Y792XW7VWO,4,3
174,2,object_09,object_01,742.19999998808,3,2,267.09999996424,0.3333333333333333,1,object_07,5,2198,0,3,2,forest_3,1,memory-2step-stake-s,699,2802644,0.0-19.0-0.1-0.174,A19YM9K2W233IM,371DNNCG57IGA1IMUX7DUPM8OSP8TA,3ZQIG0FLQIW9ZDGNNXS0Y792XW7VWO,4,3
175,4,object_10,object_03,677.60000002384,7,2,327.69999998808,0.1111111111111111,1,object_07,5,2203,0,1,1,restaurant_1,1,memory-2step-stake-s,700,2810323,0.0-19.0-0.1-0.175,A19YM9K2W233IM,371DNNCG57IGA1IMUX7DUPM8OSP8TA,3ZQIG0FLQIW9ZDGNNXS0Y792XW7VWO,8,7
176,1,object_05,object_02,877.19999998808,1,2,252.60000002384,0.1111111111111111,1,object_07,5,2208,0,1,0,desert_3,1,memory-2step-stake-s,701,2817945,0.0-19.0-0.1-0.176,A19YM9K2W233IM,371DNNCG57IGA1IMUX7DUPM8OSP8TA,3ZQIG0FLQIW9ZDGNNXS0Y792XW7VWO,2,1
177,4,object_10,object_03,914.29999995232,8,1,312.89999997616,0.1111111111111111,2,object_04,5,2213,0,1,1,restaurant_4,1,memory-2step-stake-s,702,2825635,0.0-19.0-0.1-0.177,A19YM9K2W233IM,371DNNCG57IGA1IMUX7DUPM8OSP8TA,3ZQIG0FLQIW9ZDGNNXS0Y792XW7VWO,8,7
178,3,object_06,object_08,836.60000002384,5,2,361.0,0.2222222222222222,1,object_07,5,2223,0,2,2,library_6,1,memory-2step-stake-s,703,2833473,0.0-19.0-0.1-0.178,A19YM9K2W233IM,371DNNCG57IGA1IMUX7DUPM8OSP8TA,3ZQIG0FLQIW9ZDGNNXS0Y792XW7VWO,6,5
179,4,object_03,object_10,800.30000001192,7,1,261.30000001192,0.1111111111111111,1,object_07,5,2228,0,1,1,restaurant_2,1,memory-2step-stake-s,704,2841096,0.0-19.0-0.1-0.179,A19YM9K2W233IM,371DNNCG57IGA1IMUX7DUPM8OSP8TA,3ZQIG0FLQIW9ZDGNNXS0Y792XW7VWO,7,8
180,1,object_02,object_05,629.69999998808,2,2,487.69999998808,0.1111111111111111,2,object_04,1,2229,0,0,1,desert_5,1,memory-2step-stake-s,705,2848956,0.0-19.0-0.1-0.180,A19YM9K2W233IM,371DNNCG57IGA1IMUX7DUPM8OSP8TA,3ZQIG0FLQIW9ZDGNNXS0Y792XW7VWO,1,2
181,4,object_03,object_10,798.89999997616,8,2,361.0,0.2222222222222222,2,object_04,1,2231,0,1,2,restaurant_6,1,memory-2step-stake-s,706,2856798,0.0-19.0-0.1-0.181,A19YM9K2W233IM,371DNNCG57IGA1IMUX7DUPM8OSP8TA,3ZQIG0FLQIW9ZDGNNXS0Y792XW7VWO,7,8
182,4,object_03,object_10,771.19999998808,8,2,426.19999998808,0.3333333333333333,2,object_04,5,2246,0,0,3,restaurant_4,1,memory-2step-stake-s,707,2864815,0.0-19.0-0.1-0.182,A19YM9K2W233IM,371DNNCG57IGA1IMUX7DUPM8OSP8TA,3ZQIG0FLQIW9ZDGNNXS0Y792XW7VWO,7,8
183,3,object_08,object_06,661.19999998808,5,1,295.59999996424,0.1111111111111111,1,object_07,5,2251,0,1,1,library_1,1,memory-2step-stake-s,708,2872466,0.0-19.0-0.1-0.183,A19YM9K2W233IM,371DNNCG57IGA1IMUX7DUPM8OSP8TA,3ZQIG0FLQIW9ZDGNNXS0Y792XW7VWO,5,6
184,1,object_02,object_05,351.80000001192,2,2,217.60000002384,0.1111111111111111,2,object_04,1,2252,0,3,1,desert_8,1,memory-2step-stake-s,709,2880044,0.0-19.0-0.1-0.184,A19YM9K2W233IM,371DNNCG57IGA1IMUX7DUPM8OSP8TA,3ZQIG0FLQIW9ZDGNNXS0Y792XW7VWO,1,2
185,3,object_06,object_08,812.80000001192,5,2,576.19999998808,0.3333333333333333,1,object_07,1,2255,0,3,0,library_8,1,memory-2step-stake-s,710,2888194,0.0-19.0-0.1-0.185,A19YM9K2W233IM,371DNNCG57IGA1IMUX7DUPM8OSP8TA,3ZQIG0FLQIW9ZDGNNXS0Y792XW7VWO,6,5
186,1,object_05,object_02,691.0,2,1,374.59999996424,0.1111111111111111,2,object_04,1,2256,0,2,1,desert_3,1,memory-2step-stake-s,711,2895939,0.0-19.0-0.1-0.186,A19YM9K2W233IM,371DNNCG57IGA1IMUX7DUPM8OSP8TA,3ZQIG0FLQIW9ZDGNNXS0Y792XW7VWO,2,1
187,3,object_06,object_08,554.30000001192,5,2,376.80000001192,0.1111111111111111,1,object_07,5,2261,0,1,0,library_8,1,memory-2step-stake-s,712,2903674,0.0-19.0-0.1-0.187,A19YM9K2W233IM,371DNNCG57IGA1IMUX7DUPM8OSP8TA,3ZQIG0FLQIW9ZDGNNXS0Y792XW7VWO,6,5
188,4,object_10,object_03,1039.0,8,1,263.5,0.1111111111111111,2,object_04,5,2266,0,1,1,restaurant_2,1,memory-2step-stake-s,713,2911313,0.0-19.0-0.1-0.188,A19YM9K2W233IM,371DNNCG57IGA1IMUX7DUPM8OSP8TA,3ZQIG0FLQIW9ZDGNNXS0Y792XW7VWO,8,7
189,1,object_02,object_05,801.80000001192,2,2,230.39999997616,0.0,2,object_04,1,2266,0,2,0,desert_3,1,memory-2step-stake-s,714,2918810,0.0-19.0-0.1-0.189,A19YM9K2W233IM,371DNNCG57IGA1IMUX7DUPM8OSP8TA,3ZQIG0FLQIW9ZDGNNXS0Y792XW7VWO,1,2
190,2,object_01,object_09,676.09999996424,3,1,325.89999997616,0.1111111111111111,1,object_07,5,2271,0,1,7,forest_3,1,memory-2step-stake-s,715,2926498,0.0-19.0-0.1-0.190,A19YM9K2W233IM,371DNNCG57IGA1IMUX7DUPM8OSP8TA,3ZQIG0FLQIW9ZDGNNXS0Y792XW7VWO,3,4
191,3,object_08,object_06,825.0,5,1,275.90000003576,0.2222222222222222,1,object_07,5,2281,0,2,7,library_6,1,memory-2step-stake-s,716,2934256,0.0-19.0-0.1-0.191,A19YM9K2W233IM,371DNNCG57IGA1IMUX7DUPM8OSP8TA,3ZQIG0FLQIW9ZDGNNXS0Y792XW7VWO,5,6
192,1,object_02,object_05,711.39999997616,2,2,240.69999998808,0.8888888888888888,2,object_04,1,2289,0,3,8,desert_8,1,memory-2step-stake-s,717,2942562,0.0-19.0-0.1-0.192,A19YM9K2W233IM,371DNNCG57IGA1IMUX7DUPM8OSP8TA,3ZQIG0FLQIW9ZDGNNXS0Y792XW7VWO,1,2
193,1,object_05,object_02,676.09999996424,1,2,365.59999996424,0.4444444444444444,1,object_07,1,2293,0,4,8,desert_5,1,memory-2step-stake-s,718,2950627,0.0-19.0-0.1-0.193,A19YM9K2W233IM,371DNNCG57IGA1IMUX7DUPM8OSP8TA,3ZQIG0FLQIW9ZDGNNXS0Y792XW7VWO,2,1
194,3,object_06,object_08,437.59999996424,6,1,283.19999998808,0.8888888888888888,2,object_04,5,2333,0,2,8,library_6,1,memory-2step-stake-s,719,2959010,0.0-19.0-0.1-0.194,A19YM9K2W233IM,371DNNCG57IGA1IMUX7DUPM8OSP8TA,3ZQIG0FLQIW9ZDGNNXS0Y792XW7VWO,6,5
195,1,object_02,object_05,595.59999996424,1,1,320.0,0.1111111111111111,1,object_07,1,2334,0,1,5,desert_2,1,memory-2step-stake-s,720,2966684,0.0-19.0-0.1-0.195,A19YM9K2W233IM,371DNNCG57IGA1IMUX7DUPM8OSP8TA,3ZQIG0FLQIW9ZDGNNXS0Y792XW7VWO,1,2
196,4,object_03,object_10,582.0,8,2,252.90000003576,0.5555555555555556,2,object_04,5,2359,0,3,5,restaurant_1,1,memory-2step-stake-s,721,2974752,0.0-19.0-0.1-0.196,A19YM9K2W233IM,371DNNCG57IGA1IMUX7DUPM8OSP8TA,3ZQIG0FLQIW9ZDGNNXS0Y792XW7VWO,7,8
197,1,object_02,object_05,627.60000002384,1,1,276.5,0.3333333333333333,1,object_07,5,2374,0,3,1,desert_5,1,memory-2step-stake-s,722,2982583,0.0-19.0-0.1-0.197,A19YM9K2W233IM,371DNNCG57IGA1IMUX7DUPM8OSP8TA,3ZQIG0FLQIW9ZDGNNXS0Y792XW7VWO,1,2
198,3,object_06,object_08,898.69999998808,6,1,280.30000001192,0.0,2,object_04,5,2374,0,2,0,library_1,1,memory-2step-stake-s,723,2990114,0.0-19.0-0.1-0.198,A19YM9K2W233IM,371DNNCG57IGA1IMUX7DUPM8OSP8TA,3ZQIG0FLQIW9ZDGNNXS0Y792XW7VWO,6,5
199,1,object_05,object_02,733.89999997616,1,2,245.40000003576,0.3333333333333333,1,object_07,1,2377,0,3,1,desert_2,1,memory-2step-stake-s,724,2997929,0.0-19.0-0.1-0.199,A19YM9K2W233IM,371DNNCG57IGA1IMUX7DUPM8OSP8TA,3ZQIG0FLQIW9ZDGNNXS0Y792XW7VWO,2,1
200,1,object_02,object_05,623.39999997616,2,2,287.5,0.7777777777777778,2,object_04,5,2412,0,4,7,desert_5,1,memory-2step-stake-s,725,3006225,0.0-19.0-0.1-0.200,A19YM9K2W233IM,371DNNCG57IGA1IMUX7DUPM8OSP8TA,3ZQIG0FLQIW9ZDGNNXS0Y792XW7VWO,1,2
201,3,object_06,object_08,729.5,6,1,282.69999998808,0.7777777777777778,2,object_04,5,2447,0,4,7,library_1,1,memory-2step-stake-s,726,3014522,0.0-19.0-0.1-0.201,A19YM9K2W233IM,371DNNCG57IGA1IMUX7DUPM8OSP8TA,3ZQIG0FLQIW9ZDGNNXS0Y792XW7VWO,6,5
202,1,object_02,object_05,596.30000001192,2,2,231.39999997616,0.5555555555555556,2,object_04,1,2452,0,5,5,desert_2,1,memory-2step-stake-s,727,3022524,0.0-19.0-0.1-0.202,A19YM9K2W233IM,371DNNCG57IGA1IMUX7DUPM8OSP8TA,3ZQIG0FLQIW9ZDGNNXS0Y792XW7VWO,1,2
203,3,object_06,object_08,646.79999995232,6,1,310.80000001192,0.6666666666666666,2,object_04,5,2482,0,3,6,library_2,1,memory-2step-stake-s,728,3030731,0.0-19.0-0.1-0.203,A19YM9K2W233IM,371DNNCG57IGA1IMUX7DUPM8OSP8TA,3ZQIG0FLQIW9ZDGNNXS0Y792XW7VWO,6,5
204,1,object_05,object_02,913.19999998808,1,2,280.89999997616,0.5555555555555556,1,object_07,1,2487,0,5,5,desert_8,1,memory-2step-stake-s,729,3038772,0.0-19.0-0.1-0.204,A19YM9K2W233IM,371DNNCG57IGA1IMUX7DUPM8OSP8TA,3ZQIG0FLQIW9ZDGNNXS0Y792XW7VWO,2,1
205,1,object_02,object_05,534.09999996424,1,1,-1.0,0.0,1,object_07,1,2487,0,1,6,desert_2,1,memory-2step-stake-s,730,3047363,0.0-19.0-0.1-0.205,A19YM9K2W233IM,371DNNCG57IGA1IMUX7DUPM8OSP8TA,3ZQIG0FLQIW9ZDGNNXS0Y792XW7VWO,1,2
206,2,object_01,object_09,591.30000001192,3,1,458.5,0.1111111111111111,1,object_07,1,2488,0,1,9,forest_1,1,memory-2step-stake-s,731,3055201,0.0-19.0-0.1-0.206,A19YM9K2W233IM,371DNNCG57IGA1IMUX7DUPM8OSP8TA,3ZQIG0FLQIW9ZDGNNXS0Y792XW7VWO,3,4
207,2,object_01,object_09,672.80000001192,4,2,183.0,0.8888888888888888,2,object_04,1,2496,0,1,8,forest_2,1,memory-2step-stake-s,732,3063486,0.0-19.0-0.1-0.207,A19YM9K2W233IM,371DNNCG57IGA1IMUX7DUPM8OSP8TA,3ZQIG0FLQIW9ZDGNNXS0Y792XW7VWO,3,4
208,1,object_05,object_02,683.89999997616,1,2,234.90000003576,0.3333333333333333,1,object_07,5,2511,0,3,9,desert_3,1,memory-2step-stake-s,733,3071326,0.0-19.0-0.1-0.208,A19YM9K2W233IM,371DNNCG57IGA1IMUX7DUPM8OSP8TA,3ZQIG0FLQIW9ZDGNNXS0Y792XW7VWO,2,1
209,4,object_03,object_10,835.60000002384,8,2,423.70000004768,0.7777777777777778,2,object_04,5,2546,0,5,7,restaurant_4,1,memory-2step-stake-s,734,3079757,0.0-19.0-0.1-0.209,A19YM9K2W233IM,371DNNCG57IGA1IMUX7DUPM8OSP8TA,3ZQIG0FLQIW9ZDGNNXS0Y792XW7VWO,7,8
210,4,object_03,object_10,821.5,7,1,257.5,0.5555555555555556,1,object_07,5,2571,0,5,8,restaurant_2,1,memory-2step-stake-s,735,3087807,0.0-19.0-0.1-0.210,A19YM9K2W233IM,371DNNCG57IGA1IMUX7DUPM8OSP8TA,3ZQIG0FLQIW9ZDGNNXS0Y792XW7VWO,7,8
211,1,object_02,object_05,830.89999997616,2,2,249.19999998808,0.6666666666666666,2,object_04,5,2601,0,6,6,desert_2,1,memory-2step-stake-s,736,3095953,0.0-19.0-0.1-0.211,A19YM9K2W233IM,371DNNCG57IGA1IMUX7DUPM8OSP8TA,3ZQIG0FLQIW9ZDGNNXS0Y792XW7VWO,1,2
212,4,object_10,object_03,869.5,7,2,221.59999996424,0.6666666666666666,1,object_07,5,2631,0,6,4,restaurant_6,1,memory-2step-stake-s,737,3104048,0.0-19.0-0.1-0.212,A19YM9K2W233IM,371DNNCG57IGA1IMUX7DUPM8OSP8TA,3ZQIG0FLQIW9ZDGNNXS0Y792XW7VWO,8,7
213,2,object_09,object_01,915.69999998808,4,1,215.19999998808,0.5555555555555556,2,object_04,1,2636,0,9,5,forest_3,1,memory-2step-stake-s,738,3112031,0.0-19.0-0.1-0.213,A19YM9K2W233IM,371DNNCG57IGA1IMUX7DUPM8OSP8TA,3ZQIG0FLQIW9ZDGNNXS0Y792XW7VWO,4,3
214,2,object_01,object_09,709.30000001192,4,2,272.69999998808,1.0,2,object_04,1,2645,0,9,9,forest_7,1,memory-2step-stake-s,739,3120545,0.0-19.0-0.1-0.214,A19YM9K2W233IM,371DNNCG57IGA1IMUX7DUPM8OSP8TA,3ZQIG0FLQIW9ZDGNNXS0Y792XW7VWO,3,4
215,4,object_03,object_10,925.40000003576,8,2,358.90000003576,0.6666666666666666,2,object_04,1,2651,0,7,6,restaurant_1,1,memory-2step-stake-s,740,3128820,0.0-19.0-0.1-0.215,A19YM9K2W233IM,371DNNCG57IGA1IMUX7DUPM8OSP8TA,3ZQIG0FLQIW9ZDGNNXS0Y792XW7VWO,7,8
216,2,object_09,object_01,811.0,4,1,525.5,0.7777777777777778,2,object_04,1,2658,0,8,7,forest_7,1,memory-2step-stake-s,741,3137345,0.0-19.0-0.1-0.216,A19YM9K2W233IM,371DNNCG57IGA1IMUX7DUPM8OSP8TA,3ZQIG0FLQIW9ZDGNNXS0Y792XW7VWO,4,3
217,1,object_05,object_02,817.80000001192,1,2,375.80000001192,1.0,1,object_07,1,2667,0,9,7,desert_8,1,memory-2step-stake-s,742,3145922,0.0-19.0-0.1-0.217,A19YM9K2W233IM,371DNNCG57IGA1IMUX7DUPM8OSP8TA,3ZQIG0FLQIW9ZDGNNXS0Y792XW7VWO,2,1
218,3,object_06,object_08,716.5,5,2,377.39999997616,0.5555555555555556,1,object_07,1,2672,0,5,8,library_2,1,memory-2step-stake-s,743,3154141,0.0-19.0-0.1-0.218,A19YM9K2W233IM,371DNNCG57IGA1IMUX7DUPM8OSP8TA,3ZQIG0FLQIW9ZDGNNXS0Y792XW7VWO,6,5
219,1,object_02,object_05,409.0,1,1,243.39999997616,0.4444444444444444,1,object_07,5,2692,0,4,8,desert_2,1,memory-2step-stake-s,744,3162097,0.0-19.0-0.1-0.219,A19YM9K2W233IM,371DNNCG57IGA1IMUX7DUPM8OSP8TA,3ZQIG0FLQIW9ZDGNNXS0Y792XW7VWO,1,2
220,3,object_06,object_08,652.69999998808,5,2,248.39999997616,0.5555555555555556,1,object_07,5,2717,0,5,7,library_8,1,memory-2step-stake-s,745,3170162,0.0-19.0-0.1-0.220,A19YM9K2W233IM,371DNNCG57IGA1IMUX7DUPM8OSP8TA,3ZQIG0FLQIW9ZDGNNXS0Y792XW7VWO,6,5
221,2,object_01,object_09,844.39999997616,4,2,231.60000002384,0.7777777777777778,2,object_04,1,2724,0,6,7,forest_1,1,memory-2step-stake-s,746,3178402,0.0-19.0-0.1-0.221,A19YM9K2W233IM,371DNNCG57IGA1IMUX7DUPM8OSP8TA,3ZQIG0FLQIW9ZDGNNXS0Y792XW7VWO,3,4
222,2,object_01,object_09,861.20000004768,4,2,524.30000001192,0.8888888888888888,2,object_04,1,2732,0,9,8,forest_1,1,memory-2step-stake-s,747,3187054,0.0-19.0-0.1-0.222,A19YM9K2W233IM,371DNNCG57IGA1IMUX7DUPM8OSP8TA,3ZQIG0FLQIW9ZDGNNXS0Y792XW7VWO,3,4
223,3,object_08,object_06,653.89999997616,5,1,273.0,1.0,1,object_07,5,2777,0,9,8,library_2,1,memory-2step-stake-s,748,3195525,0.0-19.0-0.1-0.223,A19YM9K2W233IM,371DNNCG57IGA1IMUX7DUPM8OSP8TA,3ZQIG0FLQIW9ZDGNNXS0Y792XW7VWO,5,6
224,4,object_10,object_03,621.19999998808,7,2,271.5,0.7777777777777778,1,object_07,5,2812,0,7,8,restaurant_2,1,memory-2step-stake-s,749,3203798,0.0-19.0-0.1-0.224,A19YM9K2W233IM,371DNNCG57IGA1IMUX7DUPM8OSP8TA,3ZQIG0FLQIW9ZDGNNXS0Y792XW7VWO,8,7
225,4,object_03,object_10,461.5,7,1,233.29999995232,0.4444444444444444,1,object_07,5,2832,0,4,6,restaurant_2,1,memory-2step-stake-s,750,3211718,0.0-19.0-0.1-0.225,A19YM9K2W233IM,371DNNCG57IGA1IMUX7DUPM8OSP8TA,3ZQIG0FLQIW9ZDGNNXS0Y792XW7VWO,7,8
226,3,object_08,object_06,795.19999998808,6,2,365.30000001192,0.3333333333333333,2,object_04,5,2847,0,4,3,library_1,1,memory-2step-stake-s,751,3219691,0.0-19.0-0.1-0.226,A19YM9K2W233IM,371DNNCG57IGA1IMUX7DUPM8OSP8TA,3ZQIG0FLQIW9ZDGNNXS0Y792XW7VWO,5,6
227,3,object_06,object_08,989.0,5,2,283.30000001192,0.5555555555555556,1,object_07,5,2872,0,5,5,library_6,1,memory-2step-stake-s,752,3227797,0.0-19.0-0.1-0.227,A19YM9K2W233IM,371DNNCG57IGA1IMUX7DUPM8OSP8TA,3ZQIG0FLQIW9ZDGNNXS0Y792XW7VWO,6,5
228,1,object_05,object_02,706.5,2,1,211.40000003576,0.6666666666666666,2,object_04,1,2878,0,9,6,desert_2,1,memory-2step-stake-s,753,3235921,0.0-19.0-0.1-0.228,A19YM9K2W233IM,371DNNCG57IGA1IMUX7DUPM8OSP8TA,3ZQIG0FLQIW9ZDGNNXS0Y792XW7VWO,2,1
229,3,object_08,object_06,796.69999998808,5,1,234.39999997616,1.0,1,object_07,5,2923,0,9,5,library_2,1,memory-2step-stake-s,754,3244396,0.0-19.0-0.1-0.229,A19YM9K2W233IM,371DNNCG57IGA1IMUX7DUPM8OSP8TA,3ZQIG0FLQIW9ZDGNNXS0Y792XW7VWO,5,6
230,3,object_06,object_08,694.19999998808,6,1,275.80000001192,0.7777777777777778,2,object_04,1,2930,0,8,7,library_1,1,memory-2step-stake-s,755,3252690,0.0-19.0-0.1-0.230,A19YM9K2W233IM,371DNNCG57IGA1IMUX7DUPM8OSP8TA,3ZQIG0FLQIW9ZDGNNXS0Y792XW7VWO,6,5
231,4,object_03,object_10,817.90000003576,8,2,603.0,0.8888888888888888,2,object_04,1,2938,0,7,8,restaurant_2,1,memory-2step-stake-s,756,3261403,0.0-19.0-0.1-0.231,A19YM9K2W233IM,371DNNCG57IGA1IMUX7DUPM8OSP8TA,3ZQIG0FLQIW9ZDGNNXS0Y792XW7VWO,7,8
232,2,object_01,object_09,789.30000001192,4,2,293.90000003576,0.7777777777777778,2,object_04,1,2945,0,5,7,forest_1,1,memory-2step-stake-s,757,3269736,0.0-19.0-0.1-0.232,A19YM9K2W233IM,371DNNCG57IGA1IMUX7DUPM8OSP8TA,3ZQIG0FLQIW9ZDGNNXS0Y792XW7VWO,3,4
233,3,object_08,object_06,718.10000002384,5,1,480.0,0.4444444444444444,1,object_07,5,2965,0,4,8,library_8,1,memory-2step-stake-s,758,3277924,0.0-19.0-0.1-0.233,A19YM9K2W233IM,371DNNCG57IGA1IMUX7DUPM8OSP8TA,3ZQIG0FLQIW9ZDGNNXS0Y792XW7VWO,5,6
234,4,object_03,object_10,717.09999996424,7,1,306.30000001192,0.5555555555555556,1,object_07,5,2990,0,5,8,restaurant_1,1,memory-2step-stake-s,759,3286007,0.0-19.0-0.1-0.234,A19YM9K2W233IM,371DNNCG57IGA1IMUX7DUPM8OSP8TA,3ZQIG0FLQIW9ZDGNNXS0Y792XW7VWO,7,8
235,4,object_10,object_03,656.20000004768,7,2,256.0,1.0,1,object_07,5,3035,0,9,7,restaurant_6,1,memory-2step-stake-s,760,3294484,0.0-19.0-0.1-0.235,A19YM9K2W233IM,371DNNCG57IGA1IMUX7DUPM8OSP8TA,3ZQIG0FLQIW9ZDGNNXS0Y792XW7VWO,8,7
236,4,object_10,object_03,674.09999996424,8,1,349.90000003576,0.4444444444444444,2,object_04,1,3039,0,9,4,restaurant_2,1,memory-2step-stake-s,761,3302519,0.0-19.0-0.1-0.236,A19YM9K2W233IM,371DNNCG57IGA1IMUX7DUPM8OSP8TA,3ZQIG0FLQIW9ZDGNNXS0Y792XW7VWO,8,7
237,2,object_09,object_01,664.69999998808,4,1,251.39999997616,0.8888888888888888,2,object_04,1,3047,0,9,8,forest_7,1,memory-2step-stake-s,762,3310884,0.0-19.0-0.1-0.237,A19YM9K2W233IM,371DNNCG57IGA1IMUX7DUPM8OSP8TA,3ZQIG0FLQIW9ZDGNNXS0Y792XW7VWO,4,3
238,4,object_10,object_03,630.5,7,2,267.90000003576,0.8888888888888888,1,object_07,5,3087,0,8,4,restaurant_2,1,memory-2step-stake-s,763,3319228,0.0-19.0-0.1-0.238,A19YM9K2W233IM,371DNNCG57IGA1IMUX7DUPM8OSP8TA,3ZQIG0FLQIW9ZDGNNXS0Y792XW7VWO,8,7
239,3,object_08,object_06,682.30000001192,6,2,198.60000002384,0.1111111111111111,2,object_04,5,3092,0,7,1,library_1,1,memory-2step-stake-s,764,3326833,0.0-19.0-0.1-0.239,A19YM9K2W233IM,371DNNCG57IGA1IMUX7DUPM8OSP8TA,3ZQIG0FLQIW9ZDGNNXS0Y792XW7VWO,5,6
240,4,object_10,object_03,582.0,8,1,63.300000011921,0.0,2,object_04,1,3092,0,5,0,restaurant_2,1,memory-2step-stake-s,765,3334180,0.0-19.0-0.1-0.240,A19YM9K2W233IM,371DNNCG57IGA1IMUX7DUPM8OSP8TA,3ZQIG0FLQIW9ZDGNNXS0Y792XW7VWO,8,7
241,1,object_05,object_02,676.5,1,2,384.10000002384,0.6666666666666666,1,object_07,1,3098,0,6,1,desert_3,1,memory-2step-stake-s,766,3342468,0.0-19.0-0.1-0.241,A19YM9K2W233IM,371DNNCG57IGA1IMUX7DUPM8OSP8TA,3ZQIG0FLQIW9ZDGNNXS0Y792XW7VWO,2,1
242,2,object_09,object_01,647.10000002384,3,2,273.5,0.6666666666666666,1,object_07,1,3104,0,6,0,forest_3,1,memory-2step-stake-s,767,3350613,0.0-19.0-0.1-0.242,A19YM9K2W233IM,371DNNCG57IGA1IMUX7DUPM8OSP8TA,3ZQIG0FLQIW9ZDGNNXS0Y792XW7VWO,4,3
243,1,object_02,object_05,561.40000003576,2,2,289.69999998808,0.3333333333333333,2,object_04,5,3119,0,8,3,desert_8,1,memory-2step-stake-s,768,3358492,0.0-19.0-0.1-0.243,A19YM9K2W233IM,371DNNCG57IGA1IMUX7DUPM8OSP8TA,3ZQIG0FLQIW9ZDGNNXS0Y792XW7VWO,1,2
244,3,object_08,object_06,786.0,5,1,346.39999997616,0.5555555555555556,1,object_07,5,3144,0,5,5,library_2,1,memory-2step-stake-s,769,3366650,0.0-19.0-0.1-0.244,A19YM9K2W233IM,371DNNCG57IGA1IMUX7DUPM8OSP8TA,3ZQIG0FLQIW9ZDGNNXS0Y792XW7VWO,5,6
245,1,object_05,object_02,469.89999997616,1,2,267.5,0.7777777777777778,1,object_07,5,3179,0,7,6,desert_2,1,memory-2step-stake-s,770,3374917,0.0-19.0-0.1-0.245,A19YM9K2W233IM,371DNNCG57IGA1IMUX7DUPM8OSP8TA,3ZQIG0FLQIW9ZDGNNXS0Y792XW7VWO,2,1
246,3,object_06,object_08,858.59999996424,5,2,274.60000002384,0.8888888888888888,1,object_07,1,3187,0,8,8,library_6,1,memory-2step-stake-s,771,3383328,0.0-19.0-0.1-0.246,A19YM9K2W233IM,371DNNCG57IGA1IMUX7DUPM8OSP8TA,3ZQIG0FLQIW9ZDGNNXS0Y792XW7VWO,6,5
247,3,object_08,object_06,683.0,6,2,241.0,0.8888888888888888,2,object_04,5,3227,0,8,8,library_6,1,memory-2step-stake-s,772,3391669,0.0-19.0-0.1-0.247,A19YM9K2W233IM,371DNNCG57IGA1IMUX7DUPM8OSP8TA,3ZQIG0FLQIW9ZDGNNXS0Y792XW7VWO,5,6
248,1,object_05,object_02,779.10000002384,1,2,213.5,0.8888888888888888,1,object_07,5,3267,0,8,8,desert_8,1,memory-2step-stake-s,773,3399993,0.0-19.0-0.1-0.248,A19YM9K2W233IM,371DNNCG57IGA1IMUX7DUPM8OSP8TA,3ZQIG0FLQIW9ZDGNNXS0Y792XW7VWO,2,1
249,4,object_03,object_10,629.79999995232,7,1,478.19999998808,0.8888888888888888,1,object_07,5,3307,0,8,4,restaurant_1,1,memory-2step-stake-s,774,3408575,0.0-19.0-0.1-0.249,A19YM9K2W233IM,371DNNCG57IGA1IMUX7DUPM8OSP8TA,3ZQIG0FLQIW9ZDGNNXS0Y792XW7VWO,7,8
250,2,object_01,object_09,767.69999998808,3,1,405.10000002384,1.0,1,object_07,1,3316,0,9,5,forest_2,1,memory-2step-stake-s,775,3417169,0.0-19.0-0.1-0.250,A19YM9K2W233IM,371DNNCG57IGA1IMUX7DUPM8OSP8TA,3ZQIG0FLQIW9ZDGNNXS0Y792XW7VWO,3,4
251,1,object_02,object_05,478.89999997616,2,2,713.59999996424,0.8888888888888888,2,object_04,1,3324,0,8,8,desert_5,1,memory-2step-stake-s,776,3425976,0.0-19.0-0.1-0.251,A19YM9K2W233IM,371DNNCG57IGA1IMUX7DUPM8OSP8TA,3ZQIG0FLQIW9ZDGNNXS0Y792XW7VWO,1,2
252,4,object_03,object_10,648.39999997616,7,1,270.69999998808,0.7777777777777778,1,object_07,5,3359,0,7,5,restaurant_4,1,memory-2step-stake-s,777,3434250,0.0-19.0-0.1-0.252,A19YM9K2W233IM,371DNNCG57IGA1IMUX7DUPM8OSP8TA,3ZQIG0FLQIW9ZDGNNXS0Y792XW7VWO,7,8
253,1,object_02,object_05,433.30000001192,1,1,266.10000002384,0.4444444444444444,1,object_07,5,3379,0,4,6,desert_5,1,memory-2step-stake-s,778,3442215,0.0-19.0-0.1-0.253,A19YM9K2W233IM,371DNNCG57IGA1IMUX7DUPM8OSP8TA,3ZQIG0FLQIW9ZDGNNXS0Y792XW7VWO,1,2
254,2,object_09,object_01,764.70000004768,3,2,220.20000004768,0.4444444444444444,1,object_07,1,3383,0,4,6,forest_3,1,memory-2step-stake-s,779,3450136,0.0-19.0-0.1-0.254,A19YM9K2W233IM,371DNNCG57IGA1IMUX7DUPM8OSP8TA,3ZQIG0FLQIW9ZDGNNXS0Y792XW7VWO,4,3
255,2,object_01,object_09,661.0,4,2,266.89999997616,0.4444444444444444,2,object_04,1,3387,0,4,4,forest_1,1,memory-2step-stake-s,780,3458090,0.0-19.0-0.1-0.255,A19YM9K2W233IM,371DNNCG57IGA1IMUX7DUPM8OSP8TA,3ZQIG0FLQIW9ZDGNNXS0Y792XW7VWO,3,4
