,state1,stim_left,stim_right,rt_1,choice1,response1,rt_2,points,state2,stim_state2,stake,score,practice,rews1,rews2,background,high_arm,trial_type,trial_index,time_elapsed,internal_node_id,subid,hitid,assignmentid,stim_left_num,stim_right_num
0,4,object_08,object_04,1470.0,8,1,-1.0,0.0,2,object_01,5,0,0,5,1,restaurant_8,2,memory-2step-stake-s,496,1121057,0.0-19.0-0.0-0.0,A3BJ95HQQ28GTE,3QGHA0EA1MGR4GKNSEWY8BJ80SRWBM,3ZV9H2YQQHNPN4E43NMUFCHJ6DOW34,8,7
1,3,object_03,object_10,734.0,5,2,559.0,0.4444444444444444,1,object_09,1,4,0,4,1,library_1,2,memory-2step-stake-s,497,1129338,0.0-19.0-0.0-0.1,A3BJ95HQQ28GTE,3QGHA0EA1MGR4GKNSEWY8BJ80SRWBM,3ZV9H2YQQHNPN4E43NMUFCHJ6DOW34,6,5
2,3,object_03,object_10,563.0,6,1,432.0,0.1111111111111111,2,object_01,5,9,0,4,1,library_8,2,memory-2step-stake-s,498,1137154,0.0-19.0-0.0-0.2,A3BJ95HQQ28GTE,3QGHA0EA1MGR4GKNSEWY8BJ80SRWBM,3ZV9H2YQQHNPN4E43NMUFCHJ6DOW34,6,5
3,4,object_04,object_08,703.0,8,2,534.0,0.5555555555555556,2,object_01,1,14,0,6,5,restaurant_1,2,memory-2step-stake-s,499,1145487,0.0-19.0-0.0-0.3,A3BJ95HQQ28GTE,3QGHA0EA1MGR4GKNSEWY8BJ80SRWBM,3ZV9H2YQQHNPN4E43NMUFCHJ6DOW34,7,8
4,2,object_06,object_05,410.0,3,1,518.0,0.6666666666666666,1,object_09,5,44,0,6,4,forest_7,2,memory-2step-stake-s,500,1153919,0.0-19.0-0.0-0.4,A3BJ95HQQ28GTE,3QGHA0EA1MGR4GKNSEWY8BJ80SRWBM,3ZV9H2YQQHNPN4E43NMUFCHJ6DOW34,3,4
5,1,object_02,object_07,315.0,2,2,541.0,0.5555555555555556,2,object_01,5,69,0,9,5,desert_7,2,memory-2step-stake-s,501,1162287,0.0-19.0-0.0-0.5,A3BJ95HQQ28GTE,3QGHA0EA1MGR4GKNSEWY8BJ80SRWBM,3ZV9H2YQQHNPN4E43NMUFCHJ6DOW34,1,2
6,3,object_03,object_10,359.0,6,1,570.0,0.4444444444444444,2,object_01,5,89,0,9,4,library_6,2,memory-2step-stake-s,502,1170553,0.0-19.0-0.0-0.6,A3BJ95HQQ28GTE,3QGHA0EA1MGR4GKNSEWY8BJ80SRWBM,3ZV9H2YQQHNPN4E43NMUFCHJ6DOW34,6,5
7,1,object_02,object_07,969.0,2,2,751.0,0.2222222222222222,2,object_01,1,91,0,8,2,desert_1,2,memory-2step-stake-s,503,1178786,0.0-19.0-0.0-0.7,A3BJ95HQQ28GTE,3QGHA0EA1MGR4GKNSEWY8BJ80SRWBM,3ZV9H2YQQHNPN4E43NMUFCHJ6DOW34,1,2
8,3,object_03,object_10,970.0,6,1,596.0,0.1111111111111111,2,object_01,5,96,0,5,1,library_1,2,memory-2step-stake-s,504,1186786,0.0-19.0-0.0-0.8,A3BJ95HQQ28GTE,3QGHA0EA1MGR4GKNSEWY8BJ80SRWBM,3ZV9H2YQQHNPN4E43NMUFCHJ6DOW34,6,5
9,2,object_06,object_05,1000.0,3,1,592.0,0.5555555555555556,1,object_09,5,121,0,5,3,forest_7,2,memory-2step-stake-s,505,1195186,0.0-19.0-0.0-0.9,A3BJ95HQQ28GTE,3QGHA0EA1MGR4GKNSEWY8BJ80SRWBM,3ZV9H2YQQHNPN4E43NMUFCHJ6DOW34,3,4
10,1,object_07,object_02,1017.0,1,2,590.0,0.3333333333333333,1,object_09,1,124,0,3,4,desert_1,2,memory-2step-stake-s,506,1203385,0.0-19.0-0.0-0.10,A3BJ95HQQ28GTE,3QGHA0EA1MGR4GKNSEWY8BJ80SRWBM,3ZV9H2YQQHNPN4E43NMUFCHJ6DOW34,2,1
11,1,object_07,object_02,860.0,1,2,538.0,0.0,1,object_09,1,124,0,0,3,desert_2,2,memory-2step-stake-s,507,1211186,0.0-19.0-0.0-0.11,A3BJ95HQQ28GTE,3QGHA0EA1MGR4GKNSEWY8BJ80SRWBM,3ZV9H2YQQHNPN4E43NMUFCHJ6DOW34,2,1
12,4,object_08,object_04,734.0,8,1,609.0,0.2222222222222222,2,object_01,1,126,0,2,2,restaurant_1,2,memory-2step-stake-s,508,1219301,0.0-19.0-0.0-0.12,A3BJ95HQQ28GTE,3QGHA0EA1MGR4GKNSEWY8BJ80SRWBM,3ZV9H2YQQHNPN4E43NMUFCHJ6DOW34,8,7
13,3,object_03,object_10,313.0,5,2,668.0,0.2222222222222222,1,object_09,1,128,0,2,2,library_8,2,memory-2step-stake-s,509,1227468,0.0-19.0-0.0-0.13,A3BJ95HQQ28GTE,3QGHA0EA1MGR4GKNSEWY8BJ80SRWBM,3ZV9H2YQQHNPN4E43NMUFCHJ6DOW34,6,5
14,3,object_03,object_10,407.0,6,1,426.0,0.0,2,object_01,1,128,0,4,0,library_2,2,memory-2step-stake-s,510,1235151,0.0-19.0-0.0-0.14,A3BJ95HQQ28GTE,3QGHA0EA1MGR4GKNSEWY8BJ80SRWBM,3ZV9H2YQQHNPN4E43NMUFCHJ6DOW34,6,5
15,3,object_10,object_03,1391.0,6,2,521.0,0.1111111111111111,2,object_01,1,129,0,4,1,library_2,2,memory-2step-stake-s,511,1243051,0.0-19.0-0.0-0.15,A3BJ95HQQ28GTE,3QGHA0EA1MGR4GKNSEWY8BJ80SRWBM,3ZV9H2YQQHNPN4E43NMUFCHJ6DOW34,5,6
16,1,object_07,object_02,953.0,2,1,394.0,0.4444444444444444,2,object_01,5,149,0,3,4,desert_8,2,memory-2step-stake-s,512,1251150,0.0-19.0-0.0-0.16,A3BJ95HQQ28GTE,3QGHA0EA1MGR4GKNSEWY8BJ80SRWBM,3ZV9H2YQQHNPN4E43NMUFCHJ6DOW34,2,1
17,4,object_08,object_04,1078.0,7,2,447.0,0.6666666666666666,1,object_09,5,179,0,6,2,restaurant_7,2,memory-2step-stake-s,513,1259483,0.0-19.0-0.0-0.17,A3BJ95HQQ28GTE,3QGHA0EA1MGR4GKNSEWY8BJ80SRWBM,3ZV9H2YQQHNPN4E43NMUFCHJ6DOW34,8,7
18,1,object_07,object_02,1469.0,2,1,501.0,0.0,2,object_01,5,179,0,3,0,desert_2,2,memory-2step-stake-s,514,1267234,0.0-19.0-0.0-0.18,A3BJ95HQQ28GTE,3QGHA0EA1MGR4GKNSEWY8BJ80SRWBM,3ZV9H2YQQHNPN4E43NMUFCHJ6DOW34,2,1
19,1,object_02,object_07,-1.0,-1,-1,-1.0,0.0,-,0,1,179,0,2,1,desert_2,2,memory-2step-stake-s,515,1273750,0.0-19.0-0.0-0.19,A3BJ95HQQ28GTE,3QGHA0EA1MGR4GKNSEWY8BJ80SRWBM,3ZV9H2YQQHNPN4E43NMUFCHJ6DOW34,1,2
20,3,object_10,object_03,344.0,6,2,118.0,0.5555555555555556,2,object_01,1,184,0,0,5,library_8,2,memory-2step-stake-s,516,1281665,0.0-19.0-0.0-0.20,A3BJ95HQQ28GTE,3QGHA0EA1MGR4GKNSEWY8BJ80SRWBM,3ZV9H2YQQHNPN4E43NMUFCHJ6DOW34,5,6
21,3,object_10,object_03,845.0,6,2,508.0,0.8888888888888888,2,object_01,1,192,0,5,8,library_6,2,memory-2step-stake-s,517,1290297,0.0-19.0-0.0-0.21,A3BJ95HQQ28GTE,3QGHA0EA1MGR4GKNSEWY8BJ80SRWBM,3ZV9H2YQQHNPN4E43NMUFCHJ6DOW34,5,6
22,1,object_07,object_02,1078.0,2,1,495.0,0.7777777777777778,2,object_01,5,227,0,4,7,desert_2,2,memory-2step-stake-s,518,1298815,0.0-19.0-0.0-0.22,A3BJ95HQQ28GTE,3QGHA0EA1MGR4GKNSEWY8BJ80SRWBM,3ZV9H2YQQHNPN4E43NMUFCHJ6DOW34,2,1
23,2,object_05,object_06,907.0,4,1,346.0,0.4444444444444444,2,object_01,5,247,0,5,4,forest_6,2,memory-2step-stake-s,519,1306864,0.0-19.0-0.0-0.23,A3BJ95HQQ28GTE,3QGHA0EA1MGR4GKNSEWY8BJ80SRWBM,3ZV9H2YQQHNPN4E43NMUFCHJ6DOW34,4,3
24,2,object_06,object_05,937.0,3,1,424.0,0.1111111111111111,1,object_09,5,252,0,1,1,forest_6,2,memory-2step-stake-s,520,1314664,0.0-19.0-0.0-0.24,A3BJ95HQQ28GTE,3QGHA0EA1MGR4GKNSEWY8BJ80SRWBM,3ZV9H2YQQHNPN4E43NMUFCHJ6DOW34,3,4
25,3,object_10,object_03,767.0,6,2,450.0,0.1111111111111111,2,object_01,1,253,0,1,1,library_2,2,memory-2step-stake-s,521,1322497,0.0-19.0-0.0-0.25,A3BJ95HQQ28GTE,3QGHA0EA1MGR4GKNSEWY8BJ80SRWBM,3ZV9H2YQQHNPN4E43NMUFCHJ6DOW34,5,6
26,3,object_10,object_03,642.0,5,1,443.0,0.1111111111111111,1,object_09,1,254,0,1,2,library_1,2,memory-2step-stake-s,522,1330330,0.0-19.0-0.0-0.26,A3BJ95HQQ28GTE,3QGHA0EA1MGR4GKNSEWY8BJ80SRWBM,3ZV9H2YQQHNPN4E43NMUFCHJ6DOW34,5,6
27,3,object_10,object_03,1204.0,6,2,424.0,0.4444444444444444,2,object_01,1,258,0,2,4,library_1,2,memory-2step-stake-s,523,1338480,0.0-19.0-0.0-0.27,A3BJ95HQQ28GTE,3QGHA0EA1MGR4GKNSEWY8BJ80SRWBM,3ZV9H2YQQHNPN4E43NMUFCHJ6DOW34,5,6
28,3,object_03,object_10,562.0,6,1,465.0,0.7777777777777778,2,object_01,5,293,0,1,7,library_1,2,memory-2step-stake-s,524,1346962,0.0-19.0-0.0-0.28,A3BJ95HQQ28GTE,3QGHA0EA1MGR4GKNSEWY8BJ80SRWBM,3ZV9H2YQQHNPN4E43NMUFCHJ6DOW34,6,5
29,1,object_07,object_02,985.0,2,1,422.0,1.0,2,object_01,5,338,0,3,9,desert_8,2,memory-2step-stake-s,525,1355647,0.0-19.0-0.0-0.29,A3BJ95HQQ28GTE,3QGHA0EA1MGR4GKNSEWY8BJ80SRWBM,3ZV9H2YQQHNPN4E43NMUFCHJ6DOW34,2,1
30,2,object_05,object_06,1110.0,3,2,297.0,0.5555555555555556,1,object_09,5,363,0,5,6,forest_3,2,memory-2step-stake-s,526,1363762,0.0-19.0-0.0-0.30,A3BJ95HQQ28GTE,3QGHA0EA1MGR4GKNSEWY8BJ80SRWBM,3ZV9H2YQQHNPN4E43NMUFCHJ6DOW34,4,3
31,4,object_04,object_08,1001.0,8,2,436.0,0.7777777777777778,2,object_01,1,370,0,5,7,restaurant_8,2,memory-2step-stake-s,527,1372229,0.0-19.0-0.0-0.31,A3BJ95HQQ28GTE,3QGHA0EA1MGR4GKNSEWY8BJ80SRWBM,3ZV9H2YQQHNPN4E43NMUFCHJ6DOW34,7,8
32,1,object_07,object_02,861.0,1,2,227.0,0.2222222222222222,1,object_09,1,372,0,2,6,desert_8,2,memory-2step-stake-s,528,1379945,0.0-19.0-0.0-0.32,A3BJ95HQQ28GTE,3QGHA0EA1MGR4GKNSEWY8BJ80SRWBM,3ZV9H2YQQHNPN4E43NMUFCHJ6DOW34,2,1
33,1,object_02,object_07,1064.0,1,1,479.0,0.5555555555555556,1,object_09,5,397,0,5,7,desert_2,2,memory-2step-stake-s,529,1388228,0.0-19.0-0.0-0.33,A3BJ95HQQ28GTE,3QGHA0EA1MGR4GKNSEWY8BJ80SRWBM,3ZV9H2YQQHNPN4E43NMUFCHJ6DOW34,1,2
34,1,object_07,object_02,688.0,2,1,315.0,1.0,2,object_01,5,442,0,7,9,desert_8,2,memory-2step-stake-s,530,1396793,0.0-19.0-0.0-0.34,A3BJ95HQQ28GTE,3QGHA0EA1MGR4GKNSEWY8BJ80SRWBM,3ZV9H2YQQHNPN4E43NMUFCHJ6DOW34,2,1
35,4,object_08,object_04,969.0,7,2,515.0,0.8888888888888888,1,object_09,1,450,0,8,9,restaurant_1,2,memory-2step-stake-s,531,1405428,0.0-19.0-0.0-0.35,A3BJ95HQQ28GTE,3QGHA0EA1MGR4GKNSEWY8BJ80SRWBM,3ZV9H2YQQHNPN4E43NMUFCHJ6DOW34,8,7
36,2,object_06,object_05,797.0,4,2,572.0,0.5555555555555556,2,object_01,5,475,0,9,5,forest_4,2,memory-2step-stake-s,532,1413810,0.0-19.0-0.0-0.36,A3BJ95HQQ28GTE,3QGHA0EA1MGR4GKNSEWY8BJ80SRWBM,3ZV9H2YQQHNPN4E43NMUFCHJ6DOW34,3,4
37,1,object_07,object_02,580.0,2,1,320.0,0.5555555555555556,2,object_01,1,480,0,7,5,desert_7,2,memory-2step-stake-s,533,1421925,0.0-19.0-0.0-0.37,A3BJ95HQQ28GTE,3QGHA0EA1MGR4GKNSEWY8BJ80SRWBM,3ZV9H2YQQHNPN4E43NMUFCHJ6DOW34,2,1
38,2,object_06,object_05,954.0,3,1,485.0,1.0,1,object_09,5,525,0,9,2,forest_7,2,memory-2step-stake-s,534,1430660,0.0-19.0-0.0-0.38,A3BJ95HQQ28GTE,3QGHA0EA1MGR4GKNSEWY8BJ80SRWBM,3ZV9H2YQQHNPN4E43NMUFCHJ6DOW34,3,4
39,1,object_02,object_07,718.0,2,2,469.0,0.2222222222222222,2,object_01,1,527,0,5,2,desert_1,2,memory-2step-stake-s,535,1438609,0.0-19.0-0.0-0.39,A3BJ95HQQ28GTE,3QGHA0EA1MGR4GKNSEWY8BJ80SRWBM,3ZV9H2YQQHNPN4E43NMUFCHJ6DOW34,1,2
40,3,object_03,object_10,1143.0,6,1,472.0,0.3333333333333333,2,object_01,1,530,0,5,3,library_8,2,memory-2step-stake-s,536,1446674,0.0-19.0-0.0-0.40,A3BJ95HQQ28GTE,3QGHA0EA1MGR4GKNSEWY8BJ80SRWBM,3ZV9H2YQQHNPN4E43NMUFCHJ6DOW34,6,5
41,4,object_04,object_08,1125.0,8,2,583.0,0.4444444444444444,2,object_01,5,550,0,2,4,restaurant_1,2,memory-2step-stake-s,537,1454975,0.0-19.0-0.0-0.41,A3BJ95HQQ28GTE,3QGHA0EA1MGR4GKNSEWY8BJ80SRWBM,3ZV9H2YQQHNPN4E43NMUFCHJ6DOW34,7,8
42,2,object_05,object_06,1000.0,4,1,498.0,0.3333333333333333,2,object_01,5,565,0,1,3,forest_3,2,memory-2step-stake-s,538,1463042,0.0-19.0-0.0-0.42,A3BJ95HQQ28GTE,3QGHA0EA1MGR4GKNSEWY8BJ80SRWBM,3ZV9H2YQQHNPN4E43NMUFCHJ6DOW34,4,3
43,1,object_07,object_02,750.0,2,1,419.0,0.3333333333333333,2,object_01,5,580,0,0,3,desert_7,2,memory-2step-stake-s,539,1471058,0.0-19.0-0.0-0.43,A3BJ95HQQ28GTE,3QGHA0EA1MGR4GKNSEWY8BJ80SRWBM,3ZV9H2YQQHNPN4E43NMUFCHJ6DOW34,2,1
44,2,object_05,object_06,938.0,4,1,408.0,0.2222222222222222,2,object_01,5,590,0,1,2,forest_4,2,memory-2step-stake-s,540,1478958,0.0-19.0-0.0-0.44,A3BJ95HQQ28GTE,3QGHA0EA1MGR4GKNSEWY8BJ80SRWBM,3ZV9H2YQQHNPN4E43NMUFCHJ6DOW34,4,3
45,4,object_08,object_04,1048.0,7,2,462.0,0.3333333333333333,1,object_09,1,593,0,3,1,restaurant_5,2,memory-2step-stake-s,541,1487007,0.0-19.0-0.0-0.45,A3BJ95HQQ28GTE,3QGHA0EA1MGR4GKNSEWY8BJ80SRWBM,3ZV9H2YQQHNPN4E43NMUFCHJ6DOW34,8,7
46,1,object_02,object_07,797.0,2,2,416.0,0.4444444444444444,2,object_01,5,613,0,3,4,desert_8,2,memory-2step-stake-s,542,1495106,0.0-19.0-0.0-0.46,A3BJ95HQQ28GTE,3QGHA0EA1MGR4GKNSEWY8BJ80SRWBM,3ZV9H2YQQHNPN4E43NMUFCHJ6DOW34,1,2
47,1,object_02,object_07,500.0,2,2,451.0,0.4444444444444444,2,object_01,5,633,0,1,4,desert_8,2,memory-2step-stake-s,543,1503239,0.0-19.0-0.0-0.47,A3BJ95HQQ28GTE,3QGHA0EA1MGR4GKNSEWY8BJ80SRWBM,3ZV9H2YQQHNPN4E43NMUFCHJ6DOW34,1,2
48,3,object_10,object_03,672.0,6,2,379.0,0.3333333333333333,2,object_01,1,636,0,6,3,library_1,2,memory-2step-stake-s,544,1511240,0.0-19.0-0.0-0.48,A3BJ95HQQ28GTE,3QGHA0EA1MGR4GKNSEWY8BJ80SRWBM,3ZV9H2YQQHNPN4E43NMUFCHJ6DOW34,5,6
49,4,object_08,object_04,906.0,8,1,379.0,0.1111111111111111,2,object_01,1,637,0,9,1,restaurant_7,2,memory-2step-stake-s,545,1519004,0.0-19.0-0.0-0.49,A3BJ95HQQ28GTE,3QGHA0EA1MGR4GKNSEWY8BJ80SRWBM,3ZV9H2YQQHNPN4E43NMUFCHJ6DOW34,8,7
50,2,object_05,object_06,1281.0,4,1,480.0,0.1111111111111111,2,object_01,1,638,0,9,1,forest_4,2,memory-2step-stake-s,546,1526856,0.0-19.0-0.0-0.50,A3BJ95HQQ28GTE,3QGHA0EA1MGR4GKNSEWY8BJ80SRWBM,3ZV9H2YQQHNPN4E43NMUFCHJ6DOW34,4,3
51,4,object_04,object_08,-1.0,-1,-1,-1.0,0.0,-,0,1,638,0,7,1,restaurant_8,2,memory-2step-stake-s,547,1533390,0.0-19.0-0.0-0.51,A3BJ95HQQ28GTE,3QGHA0EA1MGR4GKNSEWY8BJ80SRWBM,3ZV9H2YQQHNPN4E43NMUFCHJ6DOW34,7,8
52,2,object_06,object_05,687.0,4,2,424.0,0.1111111111111111,2,object_01,5,643,0,5,1,forest_4,2,memory-2step-stake-s,548,1541205,0.0-19.0-0.0-0.52,A3BJ95HQQ28GTE,3QGHA0EA1MGR4GKNSEWY8BJ80SRWBM,3ZV9H2YQQHNPN4E43NMUFCHJ6DOW34,3,4
53,4,object_04,object_08,626.0,7,1,551.0,0.3333333333333333,1,object_09,1,646,0,3,2,restaurant_1,2,memory-2step-stake-s,549,1549355,0.0-19.0-0.0-0.53,A3BJ95HQQ28GTE,3QGHA0EA1MGR4GKNSEWY8BJ80SRWBM,3ZV9H2YQQHNPN4E43NMUFCHJ6DOW34,7,8
54,3,object_10,object_03,562.0,6,2,667.0,0.0,2,object_01,1,646,0,1,0,library_2,2,memory-2step-stake-s,550,1557288,0.0-19.0-0.0-0.54,A3BJ95HQQ28GTE,3QGHA0EA1MGR4GKNSEWY8BJ80SRWBM,3ZV9H2YQQHNPN4E43NMUFCHJ6DOW34,5,6
55,2,object_05,object_06,735.0,4,1,466.0,0.4444444444444444,2,object_01,5,666,0,5,4,forest_4,2,memory-2step-stake-s,551,1565471,0.0-19.0-0.0-0.55,A3BJ95HQQ28GTE,3QGHA0EA1MGR4GKNSEWY8BJ80SRWBM,3ZV9H2YQQHNPN4E43NMUFCHJ6DOW34,4,3
56,2,object_05,object_06,875.0,4,1,459.0,0.1111111111111111,2,object_01,5,671,0,3,1,forest_4,2,memory-2step-stake-s,552,1573336,0.0-19.0-0.0-0.56,A3BJ95HQQ28GTE,3QGHA0EA1MGR4GKNSEWY8BJ80SRWBM,3ZV9H2YQQHNPN4E43NMUFCHJ6DOW34,4,3
57,4,object_04,object_08,829.0,8,2,384.0,0.3333333333333333,2,object_01,1,674,0,4,3,restaurant_8,2,memory-2step-stake-s,553,1581320,0.0-19.0-0.0-0.57,A3BJ95HQQ28GTE,3QGHA0EA1MGR4GKNSEWY8BJ80SRWBM,3ZV9H2YQQHNPN4E43NMUFCHJ6DOW34,7,8
58,1,object_02,object_07,987.0,1,1,420.0,0.2222222222222222,1,object_09,1,676,0,2,5,desert_8,2,memory-2step-stake-s,554,1589237,0.0-19.0-0.0-0.58,A3BJ95HQQ28GTE,3QGHA0EA1MGR4GKNSEWY8BJ80SRWBM,3ZV9H2YQQHNPN4E43NMUFCHJ6DOW34,1,2
59,3,object_03,object_10,1143.0,5,2,473.0,0.2222222222222222,1,object_09,1,678,0,2,8,library_8,2,memory-2step-stake-s,555,1597220,0.0-19.0-0.0-0.59,A3BJ95HQQ28GTE,3QGHA0EA1MGR4GKNSEWY8BJ80SRWBM,3ZV9H2YQQHNPN4E43NMUFCHJ6DOW34,6,5
60,3,object_10,object_03,751.0,5,1,389.0,0.3333333333333333,1,object_09,1,681,0,3,6,library_2,2,memory-2step-stake-s,556,1605202,0.0-19.0-0.0-0.60,A3BJ95HQQ28GTE,3QGHA0EA1MGR4GKNSEWY8BJ80SRWBM,3ZV9H2YQQHNPN4E43NMUFCHJ6DOW34,5,6
61,3,object_03,object_10,642.0,5,2,426.0,0.3333333333333333,1,object_09,1,684,0,3,7,library_8,2,memory-2step-stake-s,557,1613236,0.0-19.0-0.0-0.61,A3BJ95HQQ28GTE,3QGHA0EA1MGR4GKNSEWY8BJ80SRWBM,3ZV9H2YQQHNPN4E43NMUFCHJ6DOW34,6,5
62,3,object_10,object_03,565.0,5,1,493.0,0.2222222222222222,1,object_09,5,694,0,2,4,library_8,2,memory-2step-stake-s,558,1621219,0.0-19.0-0.0-0.62,A3BJ95HQQ28GTE,3QGHA0EA1MGR4GKNSEWY8BJ80SRWBM,3ZV9H2YQQHNPN4E43NMUFCHJ6DOW34,5,6
63,4,object_04,object_08,860.0,8,2,585.0,0.0,2,object_01,1,694,0,2,0,restaurant_5,2,memory-2step-stake-s,559,1629068,0.0-19.0-0.0-0.63,A3BJ95HQQ28GTE,3QGHA0EA1MGR4GKNSEWY8BJ80SRWBM,3ZV9H2YQQHNPN4E43NMUFCHJ6DOW34,7,8
64,4,object_04,object_08,565.0,8,2,524.0,0.0,2,object_01,1,694,0,7,0,restaurant_5,2,memory-2step-stake-s,560,1636870,0.0-19.0-0.0-0.64,A3BJ95HQQ28GTE,3QGHA0EA1MGR4GKNSEWY8BJ80SRWBM,3ZV9H2YQQHNPN4E43NMUFCHJ6DOW34,7,8
65,1,object_02,object_07,813.0,1,1,356.0,0.4444444444444444,1,object_09,5,714,0,4,1,desert_1,2,memory-2step-stake-s,561,1644968,0.0-19.0-0.0-0.65,A3BJ95HQQ28GTE,3QGHA0EA1MGR4GKNSEWY8BJ80SRWBM,3ZV9H2YQQHNPN4E43NMUFCHJ6DOW34,1,2
66,2,object_05,object_06,813.0,3,2,416.0,0.3333333333333333,1,object_09,5,729,0,3,0,forest_7,2,memory-2step-stake-s,562,1652966,0.0-19.0-0.0-0.66,A3BJ95HQQ28GTE,3QGHA0EA1MGR4GKNSEWY8BJ80SRWBM,3ZV9H2YQQHNPN4E43NMUFCHJ6DOW34,4,3
67,2,object_05,object_06,860.0,3,2,631.0,0.1111111111111111,1,object_09,1,730,0,1,2,forest_7,2,memory-2step-stake-s,563,1660965,0.0-19.0-0.0-0.67,A3BJ95HQQ28GTE,3QGHA0EA1MGR4GKNSEWY8BJ80SRWBM,3ZV9H2YQQHNPN4E43NMUFCHJ6DOW34,4,3
68,1,object_07,object_02,781.0,2,1,480.0,0.2222222222222222,2,object_01,1,732,0,4,2,desert_1,2,memory-2step-stake-s,564,1668933,0.0-19.0-0.0-0.68,A3BJ95HQQ28GTE,3QGHA0EA1MGR4GKNSEWY8BJ80SRWBM,3ZV9H2YQQHNPN4E43NMUFCHJ6DOW34,2,1
69,4,object_04,object_08,1017.0,8,2,371.0,0.3333333333333333,2,object_01,1,735,0,5,3,restaurant_1,2,memory-2step-stake-s,565,1676917,0.0-19.0-0.0-0.69,A3BJ95HQQ28GTE,3QGHA0EA1MGR4GKNSEWY8BJ80SRWBM,3ZV9H2YQQHNPN4E43NMUFCHJ6DOW34,7,8
70,3,object_10,object_03,1251.0,6,2,512.0,0.1111111111111111,2,object_01,5,740,0,7,1,library_2,2,memory-2step-stake-s,566,1684798,0.0-19.0-0.0-0.70,A3BJ95HQQ28GTE,3QGHA0EA1MGR4GKNSEWY8BJ80SRWBM,3ZV9H2YQQHNPN4E43NMUFCHJ6DOW34,5,6
71,1,object_02,object_07,970.0,2,2,547.0,0.6666666666666666,2,object_01,5,770,0,9,6,desert_2,2,memory-2step-stake-s,567,1693299,0.0-19.0-0.0-0.71,A3BJ95HQQ28GTE,3QGHA0EA1MGR4GKNSEWY8BJ80SRWBM,3ZV9H2YQQHNPN4E43NMUFCHJ6DOW34,1,2
72,2,object_06,object_05,844.0,3,1,586.0,1.0,1,object_09,1,779,0,9,8,forest_7,2,memory-2step-stake-s,568,1702115,0.0-19.0-0.0-0.72,A3BJ95HQQ28GTE,3QGHA0EA1MGR4GKNSEWY8BJ80SRWBM,3ZV9H2YQQHNPN4E43NMUFCHJ6DOW34,3,4
73,4,object_08,object_04,593.0,7,2,367.0,0.7777777777777778,1,object_09,1,786,0,7,8,restaurant_8,2,memory-2step-stake-s,569,1710515,0.0-19.0-0.0-0.73,A3BJ95HQQ28GTE,3QGHA0EA1MGR4GKNSEWY8BJ80SRWBM,3ZV9H2YQQHNPN4E43NMUFCHJ6DOW34,8,7
74,3,object_03,object_10,1078.0,6,1,493.0,0.8888888888888888,2,object_01,1,794,0,6,8,library_6,2,memory-2step-stake-s,570,1719131,0.0-19.0-0.0-0.74,A3BJ95HQQ28GTE,3QGHA0EA1MGR4GKNSEWY8BJ80SRWBM,3ZV9H2YQQHNPN4E43NMUFCHJ6DOW34,6,5
75,2,object_06,object_05,501.0,4,2,356.0,1.0,2,object_01,5,839,0,5,9,forest_6,2,memory-2step-stake-s,571,1727731,0.0-19.0-0.0-0.75,A3BJ95HQQ28GTE,3QGHA0EA1MGR4GKNSEWY8BJ80SRWBM,3ZV9H2YQQHNPN4E43NMUFCHJ6DOW34,3,4
76,2,object_05,object_06,751.0,4,1,513.0,0.7777777777777778,2,object_01,5,874,0,8,7,forest_7,2,memory-2step-stake-s,572,1736262,0.0-19.0-0.0-0.76,A3BJ95HQQ28GTE,3QGHA0EA1MGR4GKNSEWY8BJ80SRWBM,3ZV9H2YQQHNPN4E43NMUFCHJ6DOW34,4,3
77,3,object_03,object_10,610.0,5,2,398.0,1.0,1,object_09,1,883,0,9,6,library_1,2,memory-2step-stake-s,573,1744897,0.0-19.0-0.0-0.77,A3BJ95HQQ28GTE,3QGHA0EA1MGR4GKNSEWY8BJ80SRWBM,3ZV9H2YQQHNPN4E43NMUFCHJ6DOW34,6,5
78,1,object_02,object_07,422.0,1,1,426.0,1.0,1,object_09,5,928,0,9,7,desert_1,2,memory-2step-stake-s,574,1753563,0.0-19.0-0.0-0.78,A3BJ95HQQ28GTE,3QGHA0EA1MGR4GKNSEWY8BJ80SRWBM,3ZV9H2YQQHNPN4E43NMUFCHJ6DOW34,1,2
79,2,object_06,object_05,641.0,4,2,583.0,0.5555555555555556,2,object_01,5,953,0,7,5,forest_7,2,memory-2step-stake-s,575,1761930,0.0-19.0-0.0-0.79,A3BJ95HQQ28GTE,3QGHA0EA1MGR4GKNSEWY8BJ80SRWBM,3ZV9H2YQQHNPN4E43NMUFCHJ6DOW34,3,4
80,4,object_04,object_08,563.0,7,1,384.0,0.7777777777777778,1,object_09,5,988,0,7,8,restaurant_7,2,memory-2step-stake-s,576,1770346,0.0-19.0-0.0-0.80,A3BJ95HQQ28GTE,3QGHA0EA1MGR4GKNSEWY8BJ80SRWBM,3ZV9H2YQQHNPN4E43NMUFCHJ6DOW34,7,8
81,2,object_05,object_06,328.0,3,2,410.0,0.6666666666666666,1,object_09,5,1018,0,6,7,forest_6,2,memory-2step-stake-s,577,1778677,0.0-19.0-0.0-0.81,A3BJ95HQQ28GTE,3QGHA0EA1MGR4GKNSEWY8BJ80SRWBM,3ZV9H2YQQHNPN4E43NMUFCHJ6DOW34,4,3
82,3,object_10,object_03,297.0,5,1,452.0,0.8888888888888888,1,object_09,1,1026,0,8,6,library_1,2,memory-2step-stake-s,578,1787260,0.0-19.0-0.0-0.82,A3BJ95HQQ28GTE,3QGHA0EA1MGR4GKNSEWY8BJ80SRWBM,3ZV9H2YQQHNPN4E43NMUFCHJ6DOW34,5,6
83,2,object_06,object_05,328.0,4,2,737.0,0.8888888888888888,2,object_01,5,1066,0,6,8,forest_3,2,memory-2step-stake-s,579,1796093,0.0-19.0-0.0-0.83,A3BJ95HQQ28GTE,3QGHA0EA1MGR4GKNSEWY8BJ80SRWBM,3ZV9H2YQQHNPN4E43NMUFCHJ6DOW34,3,4
84,1,object_07,object_02,156.0,2,1,378.0,0.6666666666666666,2,object_01,5,1096,0,3,6,desert_2,2,memory-2step-stake-s,580,1804376,0.0-19.0-0.0-0.84,A3BJ95HQQ28GTE,3QGHA0EA1MGR4GKNSEWY8BJ80SRWBM,3ZV9H2YQQHNPN4E43NMUFCHJ6DOW34,2,1
85,2,object_05,object_06,313.0,3,2,480.0,0.3333333333333333,1,object_09,1,1099,0,3,7,forest_4,2,memory-2step-stake-s,581,1812426,0.0-19.0-0.0-0.85,A3BJ95HQQ28GTE,3QGHA0EA1MGR4GKNSEWY8BJ80SRWBM,3ZV9H2YQQHNPN4E43NMUFCHJ6DOW34,4,3
86,4,object_08,object_04,578.0,8,1,308.0,0.8888888888888888,2,object_01,1,1107,0,5,8,restaurant_5,2,memory-2step-stake-s,582,1820827,0.0-19.0-0.0-0.86,A3BJ95HQQ28GTE,3QGHA0EA1MGR4GKNSEWY8BJ80SRWBM,3ZV9H2YQQHNPN4E43NMUFCHJ6DOW34,8,7
87,2,object_05,object_06,314.0,4,1,402.0,0.6666666666666666,2,object_01,5,1137,0,4,6,forest_3,2,memory-2step-stake-s,583,1829177,0.0-19.0-0.0-0.87,A3BJ95HQQ28GTE,3QGHA0EA1MGR4GKNSEWY8BJ80SRWBM,3ZV9H2YQQHNPN4E43NMUFCHJ6DOW34,4,3
88,3,object_10,object_03,516.0,5,1,810.0,0.4444444444444444,1,object_09,1,1141,0,4,8,library_1,2,memory-2step-stake-s,584,1837677,0.0-19.0-0.0-0.88,A3BJ95HQQ28GTE,3QGHA0EA1MGR4GKNSEWY8BJ80SRWBM,3ZV9H2YQQHNPN4E43NMUFCHJ6DOW34,5,6
89,4,object_08,object_04,297.0,8,1,498.0,0.6666666666666666,2,object_01,1,1147,0,1,6,restaurant_5,2,memory-2step-stake-s,585,1846076,0.0-19.0-0.0-0.89,A3BJ95HQQ28GTE,3QGHA0EA1MGR4GKNSEWY8BJ80SRWBM,3ZV9H2YQQHNPN4E43NMUFCHJ6DOW34,8,7
90,3,object_10,object_03,282.0,6,2,340.0,0.4444444444444444,2,object_01,1,1151,0,0,4,library_2,2,memory-2step-stake-s,586,1854109,0.0-19.0-0.0-0.90,A3BJ95HQQ28GTE,3QGHA0EA1MGR4GKNSEWY8BJ80SRWBM,3ZV9H2YQQHNPN4E43NMUFCHJ6DOW34,5,6
91,1,object_02,object_07,362.0,2,2,618.0,0.6666666666666666,2,object_01,5,1181,0,3,6,desert_7,2,memory-2step-stake-s,587,1862659,0.0-19.0-0.0-0.91,A3BJ95HQQ28GTE,3QGHA0EA1MGR4GKNSEWY8BJ80SRWBM,3ZV9H2YQQHNPN4E43NMUFCHJ6DOW34,1,2
92,1,object_07,object_02,157.0,1,2,520.0,0.4444444444444444,1,object_09,1,1185,0,4,5,desert_1,2,memory-2step-stake-s,588,1870892,0.0-19.0-0.0-0.92,A3BJ95HQQ28GTE,3QGHA0EA1MGR4GKNSEWY8BJ80SRWBM,3ZV9H2YQQHNPN4E43NMUFCHJ6DOW34,2,1
93,4,object_08,object_04,594.0,8,1,480.0,0.2222222222222222,2,object_01,1,1187,0,2,2,restaurant_8,2,memory-2step-stake-s,589,1878858,0.0-19.0-0.0-0.93,A3BJ95HQQ28GTE,3QGHA0EA1MGR4GKNSEWY8BJ80SRWBM,3ZV9H2YQQHNPN4E43NMUFCHJ6DOW34,8,7
94,3,object_03,object_10,611.0,5,2,321.0,0.0,1,object_09,1,1187,0,0,4,library_6,2,memory-2step-stake-s,590,1886441,0.0-19.0-0.0-0.94,A3BJ95HQQ28GTE,3QGHA0EA1MGR4GKNSEWY8BJ80SRWBM,3ZV9H2YQQHNPN4E43NMUFCHJ6DOW34,6,5
95,3,object_10,object_03,578.0,5,1,495.0,0.3333333333333333,1,object_09,1,1190,0,3,1,library_2,2,memory-2step-stake-s,591,1894506,0.0-19.0-0.0-0.95,A3BJ95HQQ28GTE,3QGHA0EA1MGR4GKNSEWY8BJ80SRWBM,3ZV9H2YQQHNPN4E43NMUFCHJ6DOW34,5,6
96,1,object_07,object_02,563.0,2,1,449.0,0.4444444444444444,2,object_01,5,1210,0,2,4,desert_7,2,memory-2step-stake-s,592,1902623,0.0-19.0-0.0-0.96,A3BJ95HQQ28GTE,3QGHA0EA1MGR4GKNSEWY8BJ80SRWBM,3ZV9H2YQQHNPN4E43NMUFCHJ6DOW34,2,1
97,2,object_06,object_05,719.0,3,1,549.0,0.1111111111111111,1,object_09,1,1211,0,1,5,forest_6,2,memory-2step-stake-s,593,1910557,0.0-19.0-0.0-0.97,A3BJ95HQQ28GTE,3QGHA0EA1MGR4GKNSEWY8BJ80SRWBM,3ZV9H2YQQHNPN4E43NMUFCHJ6DOW34,3,4
98,2,object_06,object_05,469.0,4,2,423.0,0.6666666666666666,2,object_01,5,1241,0,1,6,forest_6,2,memory-2step-stake-s,594,1918906,0.0-19.0-0.0-0.98,A3BJ95HQQ28GTE,3QGHA0EA1MGR4GKNSEWY8BJ80SRWBM,3ZV9H2YQQHNPN4E43NMUFCHJ6DOW34,3,4
99,3,object_03,object_10,689.0,5,2,536.0,0.2222222222222222,1,object_09,1,1243,0,2,8,library_2,2,memory-2step-stake-s,595,1926940,0.0-19.0-0.0-0.99,A3BJ95HQQ28GTE,3QGHA0EA1MGR4GKNSEWY8BJ80SRWBM,3ZV9H2YQQHNPN4E43NMUFCHJ6DOW34,6,5
100,4,object_08,object_04,562.0,8,1,464.0,0.8888888888888888,2,object_01,5,1283,0,0,8,restaurant_7,2,memory-2step-stake-s,596,1935523,0.0-19.0-0.0-0.100,A3BJ95HQQ28GTE,3QGHA0EA1MGR4GKNSEWY8BJ80SRWBM,3ZV9H2YQQHNPN4E43NMUFCHJ6DOW34,8,7
101,4,object_08,object_04,468.0,7,2,423.0,0.0,1,object_09,1,1283,0,0,8,restaurant_1,2,memory-2step-stake-s,597,1943241,0.0-19.0-0.0-0.101,A3BJ95HQQ28GTE,3QGHA0EA1MGR4GKNSEWY8BJ80SRWBM,3ZV9H2YQQHNPN4E43NMUFCHJ6DOW34,8,7
102,3,object_10,object_03,532.0,5,1,553.0,0.0,1,object_09,1,1283,0,0,8,library_6,2,memory-2step-stake-s,598,1951072,0.0-19.0-0.0-0.102,A3BJ95HQQ28GTE,3QGHA0EA1MGR4GKNSEWY8BJ80SRWBM,3ZV9H2YQQHNPN4E43NMUFCHJ6DOW34,5,6
103,1,object_02,object_07,65.0,2,2,387.0,0.7777777777777778,2,object_01,5,1318,0,3,7,desert_8,2,memory-2step-stake-s,599,1959489,0.0-19.0-0.0-0.103,A3BJ95HQQ28GTE,3QGHA0EA1MGR4GKNSEWY8BJ80SRWBM,3ZV9H2YQQHNPN4E43NMUFCHJ6DOW34,1,2
104,4,object_08,object_04,299.0,7,2,417.0,0.2222222222222222,1,object_09,1,1320,0,2,7,restaurant_1,2,memory-2step-stake-s,600,1967405,0.0-19.0-0.0-0.104,A3BJ95HQQ28GTE,3QGHA0EA1MGR4GKNSEWY8BJ80SRWBM,3ZV9H2YQQHNPN4E43NMUFCHJ6DOW34,8,7
105,2,object_06,object_05,408.0,4,2,364.0,1.0,2,object_01,5,1365,0,2,9,forest_3,2,memory-2step-stake-s,601,1976038,0.0-19.0-0.0-0.105,A3BJ95HQQ28GTE,3QGHA0EA1MGR4GKNSEWY8BJ80SRWBM,3ZV9H2YQQHNPN4E43NMUFCHJ6DOW34,3,4
106,1,object_07,object_02,407.0,1,2,378.0,0.1111111111111111,1,object_09,1,1366,0,1,7,desert_8,2,memory-2step-stake-s,602,1983804,0.0-19.0-0.0-0.106,A3BJ95HQQ28GTE,3QGHA0EA1MGR4GKNSEWY8BJ80SRWBM,3ZV9H2YQQHNPN4E43NMUFCHJ6DOW34,2,1
107,2,object_06,object_05,438.0,3,1,440.0,0.0,1,object_09,5,1366,0,0,3,forest_6,2,memory-2step-stake-s,603,1991505,0.0-19.0-0.0-0.107,A3BJ95HQQ28GTE,3QGHA0EA1MGR4GKNSEWY8BJ80SRWBM,3ZV9H2YQQHNPN4E43NMUFCHJ6DOW34,3,4
108,2,object_05,object_06,532.0,4,1,725.0,0.5555555555555556,2,object_01,1,1371,0,1,5,forest_3,2,memory-2step-stake-s,604,2000020,0.0-19.0-0.0-0.108,A3BJ95HQQ28GTE,3QGHA0EA1MGR4GKNSEWY8BJ80SRWBM,3ZV9H2YQQHNPN4E43NMUFCHJ6DOW34,4,3
109,1,object_07,object_02,422.0,1,2,396.0,0.1111111111111111,1,object_09,1,1372,0,1,5,desert_1,2,memory-2step-stake-s,605,2007803,0.0-19.0-0.0-0.109,A3BJ95HQQ28GTE,3QGHA0EA1MGR4GKNSEWY8BJ80SRWBM,3ZV9H2YQQHNPN4E43NMUFCHJ6DOW34,2,1
110,4,object_04,object_08,313.0,7,1,292.0,0.1111111111111111,1,object_09,1,1373,0,1,5,restaurant_7,2,memory-2step-stake-s,606,2015436,0.0-19.0-0.0-0.110,A3BJ95HQQ28GTE,3QGHA0EA1MGR4GKNSEWY8BJ80SRWBM,3ZV9H2YQQHNPN4E43NMUFCHJ6DOW34,7,8
111,1,object_07,object_02,283.0,2,1,418.0,0.4444444444444444,2,object_01,5,1393,0,0,4,desert_7,2,memory-2step-stake-s,607,2023585,0.0-19.0-0.0-0.111,A3BJ95HQQ28GTE,3QGHA0EA1MGR4GKNSEWY8BJ80SRWBM,3ZV9H2YQQHNPN4E43NMUFCHJ6DOW34,2,1
112,4,object_04,object_08,313.0,8,2,372.0,0.7777777777777778,2,object_01,5,1428,0,2,7,restaurant_7,2,memory-2step-stake-s,608,2032001,0.0-19.0-0.0-0.112,A3BJ95HQQ28GTE,3QGHA0EA1MGR4GKNSEWY8BJ80SRWBM,3ZV9H2YQQHNPN4E43NMUFCHJ6DOW34,7,8
113,3,object_03,object_10,423.0,6,1,802.0,0.5555555555555556,2,object_01,1,1433,0,4,5,library_2,2,memory-2step-stake-s,609,2040635,0.0-19.0-0.0-0.113,A3BJ95HQQ28GTE,3QGHA0EA1MGR4GKNSEWY8BJ80SRWBM,3ZV9H2YQQHNPN4E43NMUFCHJ6DOW34,6,5
114,4,object_04,object_08,439.0,8,2,410.0,0.2222222222222222,2,object_01,1,1435,0,4,2,restaurant_5,2,memory-2step-stake-s,610,2048552,0.0-19.0-0.0-0.114,A3BJ95HQQ28GTE,3QGHA0EA1MGR4GKNSEWY8BJ80SRWBM,3ZV9H2YQQHNPN4E43NMUFCHJ6DOW34,7,8
115,4,object_04,object_08,485.0,8,2,310.0,0.5555555555555556,2,object_01,5,1460,0,5,5,restaurant_5,2,memory-2step-stake-s,611,2056667,0.0-19.0-0.0-0.115,A3BJ95HQQ28GTE,3QGHA0EA1MGR4GKNSEWY8BJ80SRWBM,3ZV9H2YQQHNPN4E43NMUFCHJ6DOW34,7,8
116,3,object_10,object_03,344.0,5,1,431.0,0.6666666666666666,1,object_09,1,1466,0,6,7,library_6,2,memory-2step-stake-s,612,2065034,0.0-19.0-0.0-0.116,A3BJ95HQQ28GTE,3QGHA0EA1MGR4GKNSEWY8BJ80SRWBM,3ZV9H2YQQHNPN4E43NMUFCHJ6DOW34,5,6
117,1,object_02,object_07,484.0,2,2,375.0,0.4444444444444444,2,object_01,5,1486,0,8,4,desert_7,2,memory-2step-stake-s,613,2073101,0.0-19.0-0.0-0.117,A3BJ95HQQ28GTE,3QGHA0EA1MGR4GKNSEWY8BJ80SRWBM,3ZV9H2YQQHNPN4E43NMUFCHJ6DOW34,1,2
118,2,object_06,object_05,236.0,3,1,797.0,0.4444444444444444,1,object_09,1,1490,0,4,5,forest_6,2,memory-2step-stake-s,614,2081634,0.0-19.0-0.0-0.118,A3BJ95HQQ28GTE,3QGHA0EA1MGR4GKNSEWY8BJ80SRWBM,3ZV9H2YQQHNPN4E43NMUFCHJ6DOW34,3,4
119,4,object_04,object_08,297.0,8,2,386.0,1.0,2,object_01,1,1499,0,1,9,restaurant_5,2,memory-2step-stake-s,615,2090233,0.0-19.0-0.0-0.119,A3BJ95HQQ28GTE,3QGHA0EA1MGR4GKNSEWY8BJ80SRWBM,3ZV9H2YQQHNPN4E43NMUFCHJ6DOW34,7,8
120,2,object_05,object_06,437.0,4,1,534.0,1.0,2,object_01,5,1544,0,0,9,forest_7,2,memory-2step-stake-s,616,2099016,0.0-19.0-0.0-0.120,A3BJ95HQQ28GTE,3QGHA0EA1MGR4GKNSEWY8BJ80SRWBM,3ZV9H2YQQHNPN4E43NMUFCHJ6DOW34,4,3
121,3,object_03,object_10,250.0,5,2,357.0,0.4444444444444444,1,object_09,1,1548,0,4,8,library_1,2,memory-2step-stake-s,617,2107066,0.0-19.0-0.0-0.121,A3BJ95HQQ28GTE,3QGHA0EA1MGR4GKNSEWY8BJ80SRWBM,3ZV9H2YQQHNPN4E43NMUFCHJ6DOW34,6,5
122,1,object_07,object_02,297.0,1,2,427.0,0.0,1,object_09,5,1548,0,0,5,desert_7,2,memory-2step-stake-s,618,2114766,0.0-19.0-0.0-0.122,A3BJ95HQQ28GTE,3QGHA0EA1MGR4GKNSEWY8BJ80SRWBM,3ZV9H2YQQHNPN4E43NMUFCHJ6DOW34,2,1
123,2,object_05,object_06,312.0,3,2,416.0,0.4444444444444444,1,object_09,5,1568,0,4,7,forest_4,2,memory-2step-stake-s,619,2122899,0.0-19.0-0.0-0.123,A3BJ95HQQ28GTE,3QGHA0EA1MGR4GKNSEWY8BJ80SRWBM,3ZV9H2YQQHNPN4E43NMUFCHJ6DOW34,4,3
124,4,object_08,object_04,173.0,8,1,410.0,0.6666666666666666,2,object_01,1,1574,0,2,6,restaurant_8,2,memory-2step-stake-s,620,2131265,0.0-19.0-0.0-0.124,A3BJ95HQQ28GTE,3QGHA0EA1MGR4GKNSEWY8BJ80SRWBM,3ZV9H2YQQHNPN4E43NMUFCHJ6DOW34,8,7
125,1,object_02,object_07,391.0,2,2,506.0,0.5555555555555556,2,object_01,5,1599,0,1,5,desert_2,2,memory-2step-stake-s,621,2139565,0.0-19.0-0.0-0.125,A3BJ95HQQ28GTE,3QGHA0EA1MGR4GKNSEWY8BJ80SRWBM,3ZV9H2YQQHNPN4E43NMUFCHJ6DOW34,1,2
126,3,object_03,object_10,312.0,6,1,403.0,0.6666666666666666,2,object_01,1,1605,0,6,6,library_6,2,memory-2step-stake-s,622,2147864,0.0-19.0-0.0-0.126,A3BJ95HQQ28GTE,3QGHA0EA1MGR4GKNSEWY8BJ80SRWBM,3ZV9H2YQQHNPN4E43NMUFCHJ6DOW34,6,5
127,4,object_04,object_08,595.0,8,2,461.0,0.6666666666666666,2,object_01,1,1611,0,8,6,restaurant_8,2,memory-2step-stake-s,623,2156264,0.0-19.0-0.0-0.127,A3BJ95HQQ28GTE,3QGHA0EA1MGR4GKNSEWY8BJ80SRWBM,3ZV9H2YQQHNPN4E43NMUFCHJ6DOW34,7,8
128,2,object_06,object_05,313.0,3,1,614.0,0.8888888888888888,1,object_09,5,1651,0,8,7,forest_3,2,memory-2step-stake-s,625,2194479,0.0-19.0-0.1-0.128,A3BJ95HQQ28GTE,3QGHA0EA1MGR4GKNSEWY8BJ80SRWBM,3ZV9H2YQQHNPN4E43NMUFCHJ6DOW34,3,4
129,2,object_05,object_06,328.0,3,2,1229.0,0.7777777777777778,1,object_09,5,1686,0,7,9,forest_4,2,memory-2step-stake-s,626,2203729,0.0-19.0-0.1-0.129,A3BJ95HQQ28GTE,3QGHA0EA1MGR4GKNSEWY8BJ80SRWBM,3ZV9H2YQQHNPN4E43NMUFCHJ6DOW34,4,3
130,4,object_04,object_08,547.0,7,1,418.0,0.8888888888888888,1,object_09,1,1694,0,8,8,restaurant_7,2,memory-2step-stake-s,627,2212260,0.0-19.0-0.1-0.130,A3BJ95HQQ28GTE,3QGHA0EA1MGR4GKNSEWY8BJ80SRWBM,3ZV9H2YQQHNPN4E43NMUFCHJ6DOW34,7,8
131,1,object_02,object_07,-1.0,-1,-1,-1.0,0.0,-,0,5,1694,0,7,6,desert_7,2,memory-2step-stake-s,628,2218779,0.0-19.0-0.1-0.131,A3BJ95HQQ28GTE,3QGHA0EA1MGR4GKNSEWY8BJ80SRWBM,3ZV9H2YQQHNPN4E43NMUFCHJ6DOW34,1,2
132,2,object_05,object_06,141.0,4,1,549.0,1.0,2,object_01,5,1739,0,7,9,forest_4,2,memory-2step-stake-s,629,2227579,0.0-19.0-0.1-0.132,A3BJ95HQQ28GTE,3QGHA0EA1MGR4GKNSEWY8BJ80SRWBM,3ZV9H2YQQHNPN4E43NMUFCHJ6DOW34,4,3
133,1,object_02,object_07,422.0,2,2,488.0,1.0,2,object_01,5,1784,0,6,9,desert_1,2,memory-2step-stake-s,630,2236311,0.0-19.0-0.1-0.133,A3BJ95HQQ28GTE,3QGHA0EA1MGR4GKNSEWY8BJ80SRWBM,3ZV9H2YQQHNPN4E43NMUFCHJ6DOW34,1,2
134,1,object_07,object_02,328.0,2,1,714.0,0.8888888888888888,2,object_01,5,1824,0,6,8,desert_8,2,memory-2step-stake-s,631,2245144,0.0-19.0-0.1-0.134,A3BJ95HQQ28GTE,3QGHA0EA1MGR4GKNSEWY8BJ80SRWBM,3ZV9H2YQQHNPN4E43NMUFCHJ6DOW34,2,1
135,2,object_05,object_06,219.0,3,2,377.0,0.3333333333333333,1,object_09,5,1839,0,3,9,forest_4,2,memory-2step-stake-s,632,2253092,0.0-19.0-0.1-0.135,A3BJ95HQQ28GTE,3QGHA0EA1MGR4GKNSEWY8BJ80SRWBM,3ZV9H2YQQHNPN4E43NMUFCHJ6DOW34,4,3
136,4,object_04,object_08,235.0,7,1,453.0,0.5555555555555556,1,object_09,5,1864,0,5,8,restaurant_7,2,memory-2step-stake-s,633,2261326,0.0-19.0-0.1-0.136,A3BJ95HQQ28GTE,3QGHA0EA1MGR4GKNSEWY8BJ80SRWBM,3ZV9H2YQQHNPN4E43NMUFCHJ6DOW34,7,8
137,4,object_04,object_08,376.0,8,2,365.0,0.7777777777777778,2,object_01,5,1899,0,5,7,restaurant_1,2,memory-2step-stake-s,634,2269743,0.0-19.0-0.1-0.137,A3BJ95HQQ28GTE,3QGHA0EA1MGR4GKNSEWY8BJ80SRWBM,3ZV9H2YQQHNPN4E43NMUFCHJ6DOW34,7,8
138,1,object_07,object_02,625.0,2,1,304.0,0.7777777777777778,2,object_01,5,1934,0,4,7,desert_8,2,memory-2step-stake-s,635,2278059,0.0-19.0-0.1-0.138,A3BJ95HQQ28GTE,3QGHA0EA1MGR4GKNSEWY8BJ80SRWBM,3ZV9H2YQQHNPN4E43NMUFCHJ6DOW34,2,1
139,4,object_04,object_08,328.0,8,2,448.0,0.7777777777777778,2,object_01,5,1969,0,4,7,restaurant_1,2,memory-2step-stake-s,636,2286525,0.0-19.0-0.1-0.139,A3BJ95HQQ28GTE,3QGHA0EA1MGR4GKNSEWY8BJ80SRWBM,3ZV9H2YQQHNPN4E43NMUFCHJ6DOW34,7,8
140,2,object_05,object_06,470.0,4,1,548.0,0.8888888888888888,2,object_01,5,2009,0,4,8,forest_7,2,memory-2step-stake-s,637,2295208,0.0-19.0-0.1-0.140,A3BJ95HQQ28GTE,3QGHA0EA1MGR4GKNSEWY8BJ80SRWBM,3ZV9H2YQQHNPN4E43NMUFCHJ6DOW34,4,3
141,3,object_10,object_03,375.0,6,2,412.0,0.7777777777777778,2,object_01,1,2016,0,2,7,library_6,2,memory-2step-stake-s,638,2303607,0.0-19.0-0.1-0.141,A3BJ95HQQ28GTE,3QGHA0EA1MGR4GKNSEWY8BJ80SRWBM,3ZV9H2YQQHNPN4E43NMUFCHJ6DOW34,5,6
142,2,object_06,object_05,516.0,3,1,513.0,0.1111111111111111,1,object_09,1,2017,0,1,7,forest_4,2,memory-2step-stake-s,639,2311474,0.0-19.0-0.1-0.142,A3BJ95HQQ28GTE,3QGHA0EA1MGR4GKNSEWY8BJ80SRWBM,3ZV9H2YQQHNPN4E43NMUFCHJ6DOW34,3,4
143,4,object_08,object_04,299.0,8,1,322.0,0.6666666666666666,2,object_01,1,2023,0,1,6,restaurant_1,2,memory-2step-stake-s,640,2319724,0.0-19.0-0.1-0.143,A3BJ95HQQ28GTE,3QGHA0EA1MGR4GKNSEWY8BJ80SRWBM,3ZV9H2YQQHNPN4E43NMUFCHJ6DOW34,8,7
144,2,object_05,object_06,313.0,3,2,887.0,0.0,1,object_09,5,2023,0,0,8,forest_7,2,memory-2step-stake-s,641,2327891,0.0-19.0-0.1-0.144,A3BJ95HQQ28GTE,3QGHA0EA1MGR4GKNSEWY8BJ80SRWBM,3ZV9H2YQQHNPN4E43NMUFCHJ6DOW34,4,3
145,4,object_04,object_08,345.0,7,1,322.0,0.3333333333333333,1,object_09,5,2038,0,3,8,restaurant_5,2,memory-2step-stake-s,642,2335823,0.0-19.0-0.1-0.145,A3BJ95HQQ28GTE,3QGHA0EA1MGR4GKNSEWY8BJ80SRWBM,3ZV9H2YQQHNPN4E43NMUFCHJ6DOW34,7,8
146,3,object_10,object_03,314.0,5,1,380.0,0.2222222222222222,1,object_09,5,2048,0,2,4,library_2,2,memory-2step-stake-s,643,2343706,0.0-19.0-0.1-0.146,A3BJ95HQQ28GTE,3QGHA0EA1MGR4GKNSEWY8BJ80SRWBM,3ZV9H2YQQHNPN4E43NMUFCHJ6DOW34,5,6
147,4,object_08,object_04,298.0,8,1,526.0,0.8888888888888888,2,object_01,5,2088,0,2,8,restaurant_8,2,memory-2step-stake-s,644,2352374,0.0-19.0-0.1-0.147,A3BJ95HQQ28GTE,3QGHA0EA1MGR4GKNSEWY8BJ80SRWBM,3ZV9H2YQQHNPN4E43NMUFCHJ6DOW34,8,7
148,2,object_05,object_06,266.0,3,2,386.0,0.2222222222222222,1,object_09,1,2090,0,2,9,forest_3,2,memory-2step-stake-s,645,2360256,0.0-19.0-0.1-0.148,A3BJ95HQQ28GTE,3QGHA0EA1MGR4GKNSEWY8BJ80SRWBM,3ZV9H2YQQHNPN4E43NMUFCHJ6DOW34,4,3
149,2,object_05,object_06,157.0,4,1,425.0,0.7777777777777778,2,object_01,5,2125,0,2,7,forest_6,2,memory-2step-stake-s,646,2368722,0.0-19.0-0.1-0.149,A3BJ95HQQ28GTE,3QGHA0EA1MGR4GKNSEWY8BJ80SRWBM,3ZV9H2YQQHNPN4E43NMUFCHJ6DOW34,4,3
150,4,object_08,object_04,344.0,8,1,353.0,0.6666666666666666,2,object_01,1,2131,0,3,6,restaurant_8,2,memory-2step-stake-s,647,2377005,0.0-19.0-0.1-0.150,A3BJ95HQQ28GTE,3QGHA0EA1MGR4GKNSEWY8BJ80SRWBM,3ZV9H2YQQHNPN4E43NMUFCHJ6DOW34,8,7
151,4,object_08,object_04,297.0,8,1,322.0,0.4444444444444444,2,object_01,1,2135,0,6,4,restaurant_5,2,memory-2step-stake-s,648,2384988,0.0-19.0-0.1-0.151,A3BJ95HQQ28GTE,3QGHA0EA1MGR4GKNSEWY8BJ80SRWBM,3ZV9H2YQQHNPN4E43NMUFCHJ6DOW34,8,7
152,2,object_06,object_05,408.0,3,1,363.0,0.7777777777777778,1,object_09,5,2170,0,7,2,forest_3,2,memory-2step-stake-s,649,2393388,0.0-19.0-0.1-0.152,A3BJ95HQQ28GTE,3QGHA0EA1MGR4GKNSEWY8BJ80SRWBM,3ZV9H2YQQHNPN4E43NMUFCHJ6DOW34,3,4
153,4,object_08,object_04,422.0,8,1,345.0,0.0,2,object_01,1,2170,0,9,0,restaurant_7,2,memory-2step-stake-s,650,2401005,0.0-19.0-0.1-0.153,A3BJ95HQQ28GTE,3QGHA0EA1MGR4GKNSEWY8BJ80SRWBM,3ZV9H2YQQHNPN4E43NMUFCHJ6DOW34,8,7
154,1,object_02,object_07,157.0,2,2,551.0,0.1111111111111111,2,object_01,5,2175,0,7,1,desert_2,2,memory-2step-stake-s,651,2408937,0.0-19.0-0.1-0.154,A3BJ95HQQ28GTE,3QGHA0EA1MGR4GKNSEWY8BJ80SRWBM,3ZV9H2YQQHNPN4E43NMUFCHJ6DOW34,1,2
155,4,object_08,object_04,281.0,7,2,433.0,1.0,1,object_09,1,2184,0,9,2,restaurant_7,2,memory-2step-stake-s,652,2417605,0.0-19.0-0.1-0.155,A3BJ95HQQ28GTE,3QGHA0EA1MGR4GKNSEWY8BJ80SRWBM,3ZV9H2YQQHNPN4E43NMUFCHJ6DOW34,8,7
156,2,object_05,object_06,171.0,4,1,315.0,0.0,2,object_01,5,2184,0,7,0,forest_6,2,memory-2step-stake-s,653,2425171,0.0-19.0-0.1-0.156,A3BJ95HQQ28GTE,3QGHA0EA1MGR4GKNSEWY8BJ80SRWBM,3ZV9H2YQQHNPN4E43NMUFCHJ6DOW34,4,3
157,4,object_04,object_08,109.0,8,2,538.0,0.3333333333333333,2,object_01,1,2187,0,5,3,restaurant_7,2,memory-2step-stake-s,654,2433303,0.0-19.0-0.1-0.157,A3BJ95HQQ28GTE,3QGHA0EA1MGR4GKNSEWY8BJ80SRWBM,3ZV9H2YQQHNPN4E43NMUFCHJ6DOW34,7,8
158,4,object_04,object_08,235.0,8,2,500.0,0.5555555555555556,2,object_01,1,2192,0,4,5,restaurant_1,2,memory-2step-stake-s,655,2441603,0.0-19.0-0.1-0.158,A3BJ95HQQ28GTE,3QGHA0EA1MGR4GKNSEWY8BJ80SRWBM,3ZV9H2YQQHNPN4E43NMUFCHJ6DOW34,7,8
159,1,object_02,object_07,422.0,2,2,581.0,0.4444444444444444,2,object_01,5,2212,0,8,4,desert_7,2,memory-2step-stake-s,656,2449886,0.0-19.0-0.1-0.159,A3BJ95HQQ28GTE,3QGHA0EA1MGR4GKNSEWY8BJ80SRWBM,3ZV9H2YQQHNPN4E43NMUFCHJ6DOW34,1,2
160,2,object_05,object_06,391.0,3,2,535.0,0.6666666666666666,1,object_09,5,2242,0,6,5,forest_3,2,memory-2step-stake-s,657,2458352,0.0-19.0-0.1-0.160,A3BJ95HQQ28GTE,3QGHA0EA1MGR4GKNSEWY8BJ80SRWBM,3ZV9H2YQQHNPN4E43NMUFCHJ6DOW34,4,3
161,1,object_07,object_02,733.0,2,1,405.0,0.5555555555555556,2,object_01,5,2267,0,7,5,desert_8,2,memory-2step-stake-s,658,2466584,0.0-19.0-0.1-0.161,A3BJ95HQQ28GTE,3QGHA0EA1MGR4GKNSEWY8BJ80SRWBM,3ZV9H2YQQHNPN4E43NMUFCHJ6DOW34,2,1
162,4,object_08,object_04,313.0,7,2,793.0,0.7777777777777778,1,object_09,1,2274,0,7,4,restaurant_5,2,memory-2step-stake-s,659,2475417,0.0-19.0-0.1-0.162,A3BJ95HQQ28GTE,3QGHA0EA1MGR4GKNSEWY8BJ80SRWBM,3ZV9H2YQQHNPN4E43NMUFCHJ6DOW34,8,7
163,4,object_08,object_04,296.0,8,1,418.0,0.1111111111111111,2,object_01,5,2279,0,3,1,restaurant_8,2,memory-2step-stake-s,660,2483218,0.0-19.0-0.1-0.163,A3BJ95HQQ28GTE,3QGHA0EA1MGR4GKNSEWY8BJ80SRWBM,3ZV9H2YQQHNPN4E43NMUFCHJ6DOW34,8,7
164,2,object_05,object_06,360.0,4,1,397.0,0.1111111111111111,2,object_01,5,2284,0,5,1,forest_4,2,memory-2step-stake-s,661,2491000,0.0-19.0-0.1-0.164,A3BJ95HQQ28GTE,3QGHA0EA1MGR4GKNSEWY8BJ80SRWBM,3ZV9H2YQQHNPN4E43NMUFCHJ6DOW34,4,3
165,3,object_03,object_10,594.0,5,2,1181.0,0.5555555555555556,1,object_09,1,2289,0,5,4,library_6,2,memory-2step-stake-s,662,2499984,0.0-19.0-0.1-0.165,A3BJ95HQQ28GTE,3QGHA0EA1MGR4GKNSEWY8BJ80SRWBM,3ZV9H2YQQHNPN4E43NMUFCHJ6DOW34,6,5
166,1,object_02,object_07,-1.0,-1,-1,-1.0,0.0,-,0,5,2289,0,8,6,desert_7,2,memory-2step-stake-s,663,2506501,0.0-19.0-0.1-0.166,A3BJ95HQQ28GTE,3QGHA0EA1MGR4GKNSEWY8BJ80SRWBM,3ZV9H2YQQHNPN4E43NMUFCHJ6DOW34,1,2
167,3,object_10,object_03,329.0,6,2,477.0,0.4444444444444444,2,object_01,5,2309,0,6,4,library_6,2,memory-2step-stake-s,664,2514683,0.0-19.0-0.1-0.167,A3BJ95HQQ28GTE,3QGHA0EA1MGR4GKNSEWY8BJ80SRWBM,3ZV9H2YQQHNPN4E43NMUFCHJ6DOW34,5,6
168,1,object_02,object_07,141.0,1,1,419.0,0.4444444444444444,1,object_09,5,2329,0,4,7,desert_2,2,memory-2step-stake-s,665,2522833,0.0-19.0-0.1-0.168,A3BJ95HQQ28GTE,3QGHA0EA1MGR4GKNSEWY8BJ80SRWBM,3ZV9H2YQQHNPN4E43NMUFCHJ6DOW34,1,2
169,1,object_07,object_02,282.0,1,2,433.0,0.5555555555555556,1,object_09,5,2354,0,5,7,desert_2,2,memory-2step-stake-s,666,2531066,0.0-19.0-0.1-0.169,A3BJ95HQQ28GTE,3QGHA0EA1MGR4GKNSEWY8BJ80SRWBM,3ZV9H2YQQHNPN4E43NMUFCHJ6DOW34,2,1
170,3,object_10,object_03,475.0,5,1,359.0,0.6666666666666666,1,object_09,1,2360,0,6,8,library_8,2,memory-2step-stake-s,667,2539382,0.0-19.0-0.1-0.170,A3BJ95HQQ28GTE,3QGHA0EA1MGR4GKNSEWY8BJ80SRWBM,3ZV9H2YQQHNPN4E43NMUFCHJ6DOW34,5,6
171,4,object_08,object_04,359.0,7,2,491.0,0.7777777777777778,1,object_09,5,2395,0,7,8,restaurant_7,2,memory-2step-stake-s,668,2547898,0.0-19.0-0.1-0.171,A3BJ95HQQ28GTE,3QGHA0EA1MGR4GKNSEWY8BJ80SRWBM,3ZV9H2YQQHNPN4E43NMUFCHJ6DOW34,8,7
172,2,object_05,object_06,437.0,4,1,533.0,0.7777777777777778,2,object_01,5,2430,0,3,7,forest_3,2,memory-2step-stake-s,669,2556431,0.0-19.0-0.1-0.172,A3BJ95HQQ28GTE,3QGHA0EA1MGR4GKNSEWY8BJ80SRWBM,3ZV9H2YQQHNPN4E43NMUFCHJ6DOW34,4,3
173,4,object_08,object_04,344.0,7,2,414.0,0.5555555555555556,1,object_09,1,2435,0,5,9,restaurant_7,2,memory-2step-stake-s,670,2564648,0.0-19.0-0.1-0.173,A3BJ95HQQ28GTE,3QGHA0EA1MGR4GKNSEWY8BJ80SRWBM,3ZV9H2YQQHNPN4E43NMUFCHJ6DOW34,8,7
174,4,object_08,object_04,22.0,8,1,542.0,1.0,2,object_01,1,2444,0,4,9,restaurant_1,2,memory-2step-stake-s,671,2573447,0.0-19.0-0.1-0.174,A3BJ95HQQ28GTE,3QGHA0EA1MGR4GKNSEWY8BJ80SRWBM,3ZV9H2YQQHNPN4E43NMUFCHJ6DOW34,8,7
175,3,object_03,object_10,328.0,5,2,571.0,0.7777777777777778,1,object_09,1,2451,0,7,8,library_1,2,memory-2step-stake-s,672,2582047,0.0-19.0-0.1-0.175,A3BJ95HQQ28GTE,3QGHA0EA1MGR4GKNSEWY8BJ80SRWBM,3ZV9H2YQQHNPN4E43NMUFCHJ6DOW34,6,5
176,2,object_06,object_05,391.0,3,1,347.0,0.5555555555555556,1,object_09,5,2476,0,5,8,forest_7,2,memory-2step-stake-s,673,2590213,0.0-19.0-0.1-0.176,A3BJ95HQQ28GTE,3QGHA0EA1MGR4GKNSEWY8BJ80SRWBM,3ZV9H2YQQHNPN4E43NMUFCHJ6DOW34,3,4
177,3,object_10,object_03,297.0,6,2,348.0,0.8888888888888888,2,object_01,1,2484,0,8,8,library_2,2,memory-2step-stake-s,674,2598680,0.0-19.0-0.1-0.177,A3BJ95HQQ28GTE,3QGHA0EA1MGR4GKNSEWY8BJ80SRWBM,3ZV9H2YQQHNPN4E43NMUFCHJ6DOW34,5,6
178,2,object_05,object_06,313.0,4,1,558.0,0.7777777777777778,2,object_01,5,2519,0,8,7,forest_4,2,memory-2step-stake-s,675,2607263,0.0-19.0-0.1-0.178,A3BJ95HQQ28GTE,3QGHA0EA1MGR4GKNSEWY8BJ80SRWBM,3ZV9H2YQQHNPN4E43NMUFCHJ6DOW34,4,3
179,1,object_02,object_07,422.0,2,2,551.0,0.3333333333333333,2,object_01,1,2522,0,7,3,desert_2,2,memory-2step-stake-s,676,2615412,0.0-19.0-0.1-0.179,A3BJ95HQQ28GTE,3QGHA0EA1MGR4GKNSEWY8BJ80SRWBM,3ZV9H2YQQHNPN4E43NMUFCHJ6DOW34,1,2
180,3,object_10,object_03,250.0,5,1,585.0,0.8888888888888888,1,object_09,1,2530,0,8,6,library_1,2,memory-2step-stake-s,677,2624095,0.0-19.0-0.1-0.180,A3BJ95HQQ28GTE,3QGHA0EA1MGR4GKNSEWY8BJ80SRWBM,3ZV9H2YQQHNPN4E43NMUFCHJ6DOW34,5,6
181,2,object_06,object_05,297.0,4,2,417.0,0.3333333333333333,2,object_01,1,2533,0,8,3,forest_4,2,memory-2step-stake-s,678,2632093,0.0-19.0-0.1-0.181,A3BJ95HQQ28GTE,3QGHA0EA1MGR4GKNSEWY8BJ80SRWBM,3ZV9H2YQQHNPN4E43NMUFCHJ6DOW34,3,4
182,1,object_02,object_07,219.0,1,1,298.0,0.6666666666666666,1,object_09,5,2563,0,6,2,desert_1,2,memory-2step-stake-s,679,2640345,0.0-19.0-0.1-0.182,A3BJ95HQQ28GTE,3QGHA0EA1MGR4GKNSEWY8BJ80SRWBM,3ZV9H2YQQHNPN4E43NMUFCHJ6DOW34,1,2
183,2,object_06,object_05,325.0,3,1,308.0,0.6666666666666666,1,object_09,5,2593,0,6,0,forest_7,2,memory-2step-stake-s,680,2648561,0.0-19.0-0.1-0.183,A3BJ95HQQ28GTE,3QGHA0EA1MGR4GKNSEWY8BJ80SRWBM,3ZV9H2YQQHNPN4E43NMUFCHJ6DOW34,3,4
184,3,object_03,object_10,313.0,6,1,317.0,0.1111111111111111,2,object_01,5,2598,0,6,1,library_8,2,memory-2step-stake-s,681,2656259,0.0-19.0-0.1-0.184,A3BJ95HQQ28GTE,3QGHA0EA1MGR4GKNSEWY8BJ80SRWBM,3ZV9H2YQQHNPN4E43NMUFCHJ6DOW34,6,5
185,1,object_07,object_02,281.0,2,1,293.0,0.0,2,object_01,5,2598,0,8,0,desert_2,2,memory-2step-stake-s,682,2663794,0.0-19.0-0.1-0.185,A3BJ95HQQ28GTE,3QGHA0EA1MGR4GKNSEWY8BJ80SRWBM,3ZV9H2YQQHNPN4E43NMUFCHJ6DOW34,2,1
186,4,object_04,object_08,157.0,8,2,334.0,0.1111111111111111,2,object_01,1,2599,0,8,1,restaurant_7,2,memory-2step-stake-s,683,2671510,0.0-19.0-0.1-0.186,A3BJ95HQQ28GTE,3QGHA0EA1MGR4GKNSEWY8BJ80SRWBM,3ZV9H2YQQHNPN4E43NMUFCHJ6DOW34,7,8
187,4,object_08,object_04,328.0,7,2,340.0,0.6666666666666666,1,object_09,5,2629,0,6,1,restaurant_8,2,memory-2step-stake-s,684,2679760,0.0-19.0-0.1-0.187,A3BJ95HQQ28GTE,3QGHA0EA1MGR4GKNSEWY8BJ80SRWBM,3ZV9H2YQQHNPN4E43NMUFCHJ6DOW34,8,7
188,4,object_04,object_08,454.0,7,1,331.0,0.6666666666666666,1,object_09,1,2635,0,6,2,restaurant_8,2,memory-2step-stake-s,685,2688009,0.0-19.0-0.1-0.188,A3BJ95HQQ28GTE,3QGHA0EA1MGR4GKNSEWY8BJ80SRWBM,3ZV9H2YQQHNPN4E43NMUFCHJ6DOW34,7,8
189,1,object_02,object_07,391.0,2,2,366.0,0.3333333333333333,2,object_01,5,2650,0,5,3,desert_1,2,memory-2step-stake-s,686,2695976,0.0-19.0-0.1-0.189,A3BJ95HQQ28GTE,3QGHA0EA1MGR4GKNSEWY8BJ80SRWBM,3ZV9H2YQQHNPN4E43NMUFCHJ6DOW34,1,2
190,3,object_10,object_03,252.0,5,1,389.0,0.5555555555555556,1,object_09,5,2675,0,5,2,library_6,2,memory-2step-stake-s,687,2704175,0.0-19.0-0.1-0.190,A3BJ95HQQ28GTE,3QGHA0EA1MGR4GKNSEWY8BJ80SRWBM,3ZV9H2YQQHNPN4E43NMUFCHJ6DOW34,5,6
191,1,object_02,object_07,313.0,2,2,357.0,0.2222222222222222,2,object_01,5,2685,0,7,2,desert_1,2,memory-2step-stake-s,688,2712025,0.0-19.0-0.1-0.191,A3BJ95HQQ28GTE,3QGHA0EA1MGR4GKNSEWY8BJ80SRWBM,3ZV9H2YQQHNPN4E43NMUFCHJ6DOW34,1,2
192,2,object_06,object_05,297.0,3,1,373.0,0.8888888888888888,1,object_09,5,2725,0,8,3,forest_3,2,memory-2step-stake-s,689,2720506,0.0-19.0-0.1-0.192,A3BJ95HQQ28GTE,3QGHA0EA1MGR4GKNSEWY8BJ80SRWBM,3ZV9H2YQQHNPN4E43NMUFCHJ6DOW34,3,4
193,1,object_07,object_02,313.0,1,2,496.0,0.6666666666666666,1,object_09,5,2755,0,6,1,desert_1,2,memory-2step-stake-s,690,2728908,0.0-19.0-0.1-0.193,A3BJ95HQQ28GTE,3QGHA0EA1MGR4GKNSEWY8BJ80SRWBM,3ZV9H2YQQHNPN4E43NMUFCHJ6DOW34,2,1
194,3,object_03,object_10,501.0,6,1,390.0,0.2222222222222222,2,object_01,5,2765,0,6,2,library_2,2,memory-2step-stake-s,691,2736773,0.0-19.0-0.1-0.194,A3BJ95HQQ28GTE,3QGHA0EA1MGR4GKNSEWY8BJ80SRWBM,3ZV9H2YQQHNPN4E43NMUFCHJ6DOW34,6,5
195,1,object_02,object_07,360.0,2,2,399.0,0.3333333333333333,2,object_01,5,2780,0,8,3,desert_2,2,memory-2step-stake-s,692,2744790,0.0-19.0-0.1-0.195,A3BJ95HQQ28GTE,3QGHA0EA1MGR4GKNSEWY8BJ80SRWBM,3ZV9H2YQQHNPN4E43NMUFCHJ6DOW34,1,2
196,2,object_05,object_06,126.0,4,1,397.0,0.6666666666666666,2,object_01,5,2810,0,7,6,forest_7,2,memory-2step-stake-s,693,2753140,0.0-19.0-0.1-0.196,A3BJ95HQQ28GTE,3QGHA0EA1MGR4GKNSEWY8BJ80SRWBM,3ZV9H2YQQHNPN4E43NMUFCHJ6DOW34,4,3
197,3,object_03,object_10,234.0,5,2,314.0,0.7777777777777778,1,object_09,1,2817,0,7,7,library_8,2,memory-2step-stake-s,694,2761473,0.0-19.0-0.1-0.197,A3BJ95HQQ28GTE,3QGHA0EA1MGR4GKNSEWY8BJ80SRWBM,3ZV9H2YQQHNPN4E43NMUFCHJ6DOW34,6,5
198,4,object_08,object_04,329.0,8,1,340.0,0.8888888888888888,2,object_01,1,2825,0,7,8,restaurant_7,2,memory-2step-stake-s,695,2769973,0.0-19.0-0.1-0.198,A3BJ95HQQ28GTE,3QGHA0EA1MGR4GKNSEWY8BJ80SRWBM,3ZV9H2YQQHNPN4E43NMUFCHJ6DOW34,8,7
199,3,object_10,object_03,469.0,6,2,378.0,0.8888888888888888,2,object_01,5,2865,0,5,8,library_2,2,memory-2step-stake-s,696,2778472,0.0-19.0-0.1-0.199,A3BJ95HQQ28GTE,3QGHA0EA1MGR4GKNSEWY8BJ80SRWBM,3ZV9H2YQQHNPN4E43NMUFCHJ6DOW34,5,6
200,1,object_07,object_02,406.0,2,1,521.0,0.7777777777777778,2,object_01,5,2900,0,5,7,desert_1,2,memory-2step-stake-s,697,2787005,0.0-19.0-0.1-0.200,A3BJ95HQQ28GTE,3QGHA0EA1MGR4GKNSEWY8BJ80SRWBM,3ZV9H2YQQHNPN4E43NMUFCHJ6DOW34,2,1
201,2,object_05,object_06,375.0,3,2,382.0,0.5555555555555556,1,object_09,5,2925,0,5,8,forest_7,2,memory-2step-stake-s,698,2795188,0.0-19.0-0.1-0.201,A3BJ95HQQ28GTE,3QGHA0EA1MGR4GKNSEWY8BJ80SRWBM,3ZV9H2YQQHNPN4E43NMUFCHJ6DOW34,4,3
202,3,object_10,object_03,422.0,5,1,410.0,0.4444444444444444,1,object_09,1,2929,0,4,7,library_8,2,memory-2step-stake-s,699,2803321,0.0-19.0-0.1-0.202,A3BJ95HQQ28GTE,3QGHA0EA1MGR4GKNSEWY8BJ80SRWBM,3ZV9H2YQQHNPN4E43NMUFCHJ6DOW34,5,6
203,3,object_03,object_10,281.0,5,2,467.0,0.3333333333333333,1,object_09,5,2944,0,3,5,library_1,2,memory-2step-stake-s,700,2811371,0.0-19.0-0.1-0.203,A3BJ95HQQ28GTE,3QGHA0EA1MGR4GKNSEWY8BJ80SRWBM,3ZV9H2YQQHNPN4E43NMUFCHJ6DOW34,6,5
204,2,object_05,object_06,328.0,4,1,713.0,0.8888888888888888,2,object_01,5,2984,0,1,8,forest_6,2,memory-2step-stake-s,701,2820204,0.0-19.0-0.1-0.204,A3BJ95HQQ28GTE,3QGHA0EA1MGR4GKNSEWY8BJ80SRWBM,3ZV9H2YQQHNPN4E43NMUFCHJ6DOW34,4,3
205,3,object_03,object_10,296.0,5,2,448.0,0.3333333333333333,1,object_09,1,2987,0,3,7,library_6,2,memory-2step-stake-s,702,2828220,0.0-19.0-0.1-0.205,A3BJ95HQQ28GTE,3QGHA0EA1MGR4GKNSEWY8BJ80SRWBM,3ZV9H2YQQHNPN4E43NMUFCHJ6DOW34,6,5
206,3,object_10,object_03,328.0,5,1,354.0,0.1111111111111111,1,object_09,1,2988,0,1,7,library_8,2,memory-2step-stake-s,703,2835953,0.0-19.0-0.1-0.206,A3BJ95HQQ28GTE,3QGHA0EA1MGR4GKNSEWY8BJ80SRWBM,3ZV9H2YQQHNPN4E43NMUFCHJ6DOW34,5,6
207,4,object_04,object_08,345.0,8,2,321.0,0.5555555555555556,2,object_01,1,2993,0,1,5,restaurant_1,2,memory-2step-stake-s,704,2844103,0.0-19.0-0.1-0.207,A3BJ95HQQ28GTE,3QGHA0EA1MGR4GKNSEWY8BJ80SRWBM,3ZV9H2YQQHNPN4E43NMUFCHJ6DOW34,7,8
208,2,object_05,object_06,235.0,4,1,405.0,0.6666666666666666,2,object_01,1,2999,0,4,6,forest_3,2,memory-2step-stake-s,705,2852418,0.0-19.0-0.1-0.208,A3BJ95HQQ28GTE,3QGHA0EA1MGR4GKNSEWY8BJ80SRWBM,3ZV9H2YQQHNPN4E43NMUFCHJ6DOW34,4,3
209,1,object_07,object_02,95.0,1,2,338.0,0.6666666666666666,1,object_09,5,3029,0,6,7,desert_2,2,memory-2step-stake-s,706,2860686,0.0-19.0-0.1-0.209,A3BJ95HQQ28GTE,3QGHA0EA1MGR4GKNSEWY8BJ80SRWBM,3ZV9H2YQQHNPN4E43NMUFCHJ6DOW34,2,1
210,2,object_06,object_05,642.0,3,1,443.0,0.5555555555555556,1,object_09,5,3054,0,5,8,forest_6,2,memory-2step-stake-s,707,2868935,0.0-19.0-0.1-0.210,A3BJ95HQQ28GTE,3QGHA0EA1MGR4GKNSEWY8BJ80SRWBM,3ZV9H2YQQHNPN4E43NMUFCHJ6DOW34,3,4
211,3,object_10,object_03,439.0,6,2,409.0,0.7777777777777778,2,object_01,1,3061,0,5,7,library_1,2,memory-2step-stake-s,708,2877383,0.0-19.0-0.1-0.211,A3BJ95HQQ28GTE,3QGHA0EA1MGR4GKNSEWY8BJ80SRWBM,3ZV9H2YQQHNPN4E43NMUFCHJ6DOW34,5,6
212,3,object_10,object_03,453.0,5,1,440.0,0.5555555555555556,1,object_09,5,3086,0,5,6,library_1,2,memory-2step-stake-s,709,2885635,0.0-19.0-0.1-0.212,A3BJ95HQQ28GTE,3QGHA0EA1MGR4GKNSEWY8BJ80SRWBM,3ZV9H2YQQHNPN4E43NMUFCHJ6DOW34,5,6
213,4,object_08,object_04,188.0,7,2,332.0,0.2222222222222222,1,object_09,1,3088,0,2,1,restaurant_8,2,memory-2step-stake-s,710,2893451,0.0-19.0-0.1-0.213,A3BJ95HQQ28GTE,3QGHA0EA1MGR4GKNSEWY8BJ80SRWBM,3ZV9H2YQQHNPN4E43NMUFCHJ6DOW34,8,7
214,1,object_07,object_02,172.0,2,1,551.0,0.1111111111111111,2,object_01,5,3093,0,0,1,desert_8,2,memory-2step-stake-s,711,2901384,0.0-19.0-0.1-0.214,A3BJ95HQQ28GTE,3QGHA0EA1MGR4GKNSEWY8BJ80SRWBM,3ZV9H2YQQHNPN4E43NMUFCHJ6DOW34,2,1
215,4,object_04,object_08,313.0,7,1,339.0,0.2222222222222222,1,object_09,1,3095,0,2,5,restaurant_8,2,memory-2step-stake-s,712,2909217,0.0-19.0-0.1-0.215,A3BJ95HQQ28GTE,3QGHA0EA1MGR4GKNSEWY8BJ80SRWBM,3ZV9H2YQQHNPN4E43NMUFCHJ6DOW34,7,8
216,3,object_10,object_03,266.0,6,2,557.0,0.3333333333333333,2,object_01,1,3098,0,2,3,library_6,2,memory-2step-stake-s,713,2917333,0.0-19.0-0.1-0.216,A3BJ95HQQ28GTE,3QGHA0EA1MGR4GKNSEWY8BJ80SRWBM,3ZV9H2YQQHNPN4E43NMUFCHJ6DOW34,5,6
217,4,object_08,object_04,282.0,7,2,339.0,0.0,1,object_09,1,3098,0,0,2,restaurant_8,2,memory-2step-stake-s,714,2924950,0.0-19.0-0.1-0.217,A3BJ95HQQ28GTE,3QGHA0EA1MGR4GKNSEWY8BJ80SRWBM,3ZV9H2YQQHNPN4E43NMUFCHJ6DOW34,8,7
218,4,object_08,object_04,375.0,7,2,506.0,0.3333333333333333,1,object_09,5,3113,0,3,4,restaurant_1,2,memory-2step-stake-s,715,2933048,0.0-19.0-0.1-0.218,A3BJ95HQQ28GTE,3QGHA0EA1MGR4GKNSEWY8BJ80SRWBM,3ZV9H2YQQHNPN4E43NMUFCHJ6DOW34,8,7
219,4,object_04,object_08,313.0,7,1,309.0,0.1111111111111111,1,object_09,1,3114,0,1,0,restaurant_1,2,memory-2step-stake-s,716,2940749,0.0-19.0-0.1-0.219,A3BJ95HQQ28GTE,3QGHA0EA1MGR4GKNSEWY8BJ80SRWBM,3ZV9H2YQQHNPN4E43NMUFCHJ6DOW34,7,8
220,2,object_06,object_05,282.0,3,1,308.0,0.0,1,object_09,5,3114,0,0,2,forest_7,2,memory-2step-stake-s,717,2948300,0.0-19.0-0.1-0.220,A3BJ95HQQ28GTE,3QGHA0EA1MGR4GKNSEWY8BJ80SRWBM,3ZV9H2YQQHNPN4E43NMUFCHJ6DOW34,3,4
221,3,object_03,object_10,313.0,6,1,307.0,0.2222222222222222,2,object_01,5,3124,0,0,2,library_8,2,memory-2step-stake-s,718,2956065,0.0-19.0-0.1-0.221,A3BJ95HQQ28GTE,3QGHA0EA1MGR4GKNSEWY8BJ80SRWBM,3ZV9H2YQQHNPN4E43NMUFCHJ6DOW34,6,5
222,1,object_02,object_07,345.0,2,2,72.0,0.4444444444444444,2,object_01,5,3144,0,1,4,desert_7,2,memory-2step-stake-s,719,2963848,0.0-19.0-0.1-0.222,A3BJ95HQQ28GTE,3QGHA0EA1MGR4GKNSEWY8BJ80SRWBM,3ZV9H2YQQHNPN4E43NMUFCHJ6DOW34,1,2
223,3,object_03,object_10,625.0,6,1,601.0,0.2222222222222222,2,object_01,1,3146,0,1,2,library_1,2,memory-2step-stake-s,720,2971931,0.0-19.0-0.1-0.223,A3BJ95HQQ28GTE,3QGHA0EA1MGR4GKNSEWY8BJ80SRWBM,3ZV9H2YQQHNPN4E43NMUFCHJ6DOW34,6,5
224,3,object_10,object_03,500.0,6,2,467.0,0.1111111111111111,2,object_01,1,3147,0,0,1,library_2,2,memory-2step-stake-s,721,2979764,0.0-19.0-0.1-0.224,A3BJ95HQQ28GTE,3QGHA0EA1MGR4GKNSEWY8BJ80SRWBM,3ZV9H2YQQHNPN4E43NMUFCHJ6DOW34,5,6
225,2,object_05,object_06,283.0,3,2,620.0,0.4444444444444444,1,object_09,5,3167,0,4,1,forest_6,2,memory-2step-stake-s,722,2988081,0.0-19.0-0.1-0.225,A3BJ95HQQ28GTE,3QGHA0EA1MGR4GKNSEWY8BJ80SRWBM,3ZV9H2YQQHNPN4E43NMUFCHJ6DOW34,4,3
226,2,object_05,object_06,454.0,4,1,1159.0,0.2222222222222222,2,object_01,5,3177,0,5,2,forest_3,2,memory-2step-stake-s,723,2996730,0.0-19.0-0.1-0.226,A3BJ95HQQ28GTE,3QGHA0EA1MGR4GKNSEWY8BJ80SRWBM,3ZV9H2YQQHNPN4E43NMUFCHJ6DOW34,4,3
227,1,object_02,object_07,469.0,2,2,438.0,0.3333333333333333,2,object_01,5,3192,0,6,3,desert_7,2,memory-2step-stake-s,724,3004780,0.0-19.0-0.1-0.227,A3BJ95HQQ28GTE,3QGHA0EA1MGR4GKNSEWY8BJ80SRWBM,3ZV9H2YQQHNPN4E43NMUFCHJ6DOW34,1,2
228,1,object_02,object_07,266.0,1,1,489.0,0.5555555555555556,1,object_09,1,3197,0,5,3,desert_7,2,memory-2step-stake-s,725,3013096,0.0-19.0-0.1-0.228,A3BJ95HQQ28GTE,3QGHA0EA1MGR4GKNSEWY8BJ80SRWBM,3ZV9H2YQQHNPN4E43NMUFCHJ6DOW34,1,2
229,3,object_03,object_10,438.0,5,2,285.0,0.3333333333333333,1,object_09,1,3200,0,3,3,library_8,2,memory-2step-stake-s,726,3020979,0.0-19.0-0.1-0.229,A3BJ95HQQ28GTE,3QGHA0EA1MGR4GKNSEWY8BJ80SRWBM,3ZV9H2YQQHNPN4E43NMUFCHJ6DOW34,6,5
230,3,object_10,object_03,297.0,5,1,417.0,0.4444444444444444,1,object_09,1,3204,0,4,1,library_8,2,memory-2step-stake-s,727,3029078,0.0-19.0-0.1-0.230,A3BJ95HQQ28GTE,3QGHA0EA1MGR4GKNSEWY8BJ80SRWBM,3ZV9H2YQQHNPN4E43NMUFCHJ6DOW34,5,6
231,3,object_10,object_03,438.0,6,2,723.0,0.1111111111111111,2,object_01,1,3205,0,4,1,library_2,2,memory-2step-stake-s,728,3037177,0.0-19.0-0.1-0.231,A3BJ95HQQ28GTE,3QGHA0EA1MGR4GKNSEWY8BJ80SRWBM,3ZV9H2YQQHNPN4E43NMUFCHJ6DOW34,5,6
232,4,object_08,object_04,391.0,8,1,411.0,0.2222222222222222,2,object_01,5,3215,0,5,2,restaurant_7,2,memory-2step-stake-s,729,3045078,0.0-19.0-0.1-0.232,A3BJ95HQQ28GTE,3QGHA0EA1MGR4GKNSEWY8BJ80SRWBM,3ZV9H2YQQHNPN4E43NMUFCHJ6DOW34,8,7
233,4,object_04,object_08,328.0,8,2,964.0,0.4444444444444444,2,object_01,1,3219,0,5,4,restaurant_5,2,memory-2step-stake-s,730,3053762,0.0-19.0-0.1-0.233,A3BJ95HQQ28GTE,3QGHA0EA1MGR4GKNSEWY8BJ80SRWBM,3ZV9H2YQQHNPN4E43NMUFCHJ6DOW34,7,8
234,2,object_06,object_05,344.0,3,1,493.0,0.4444444444444444,1,object_09,5,3239,0,4,2,forest_6,2,memory-2step-stake-s,731,3061921,0.0-19.0-0.1-0.234,A3BJ95HQQ28GTE,3QGHA0EA1MGR4GKNSEWY8BJ80SRWBM,3ZV9H2YQQHNPN4E43NMUFCHJ6DOW34,3,4
235,3,object_10,object_03,360.0,6,2,429.0,0.1111111111111111,2,object_01,1,3240,0,4,1,library_8,2,memory-2step-stake-s,732,3069709,0.0-19.0-0.1-0.235,A3BJ95HQQ28GTE,3QGHA0EA1MGR4GKNSEWY8BJ80SRWBM,3ZV9H2YQQHNPN4E43NMUFCHJ6DOW34,5,6
236,2,object_06,object_05,266.0,3,1,520.0,0.1111111111111111,1,object_09,5,3245,0,1,3,forest_4,2,memory-2step-stake-s,733,3077592,0.0-19.0-0.1-0.236,A3BJ95HQQ28GTE,3QGHA0EA1MGR4GKNSEWY8BJ80SRWBM,3ZV9H2YQQHNPN4E43NMUFCHJ6DOW34,3,4
237,1,object_07,object_02,375.0,1,2,380.0,0.2222222222222222,1,object_09,5,3255,0,2,1,desert_1,2,memory-2step-stake-s,734,3085477,0.0-19.0-0.1-0.237,A3BJ95HQQ28GTE,3QGHA0EA1MGR4GKNSEWY8BJ80SRWBM,3ZV9H2YQQHNPN4E43NMUFCHJ6DOW34,2,1
238,3,object_10,object_03,45.0,5,1,418.0,0.4444444444444444,1,object_09,5,3275,0,4,0,library_6,2,memory-2step-stake-s,735,3093576,0.0-19.0-0.1-0.238,A3BJ95HQQ28GTE,3QGHA0EA1MGR4GKNSEWY8BJ80SRWBM,3ZV9H2YQQHNPN4E43NMUFCHJ6DOW34,5,6
239,2,object_06,object_05,267.0,4,2,497.0,0.2222222222222222,2,object_01,5,3285,0,6,2,forest_3,2,memory-2step-stake-s,736,3101542,0.0-19.0-0.1-0.239,A3BJ95HQQ28GTE,3QGHA0EA1MGR4GKNSEWY8BJ80SRWBM,3ZV9H2YQQHNPN4E43NMUFCHJ6DOW34,3,4
240,1,object_02,object_07,626.0,1,1,898.0,0.7777777777777778,1,object_09,1,3292,0,7,5,desert_7,2,memory-2step-stake-s,737,3110476,0.0-19.0-0.1-0.240,A3BJ95HQQ28GTE,3QGHA0EA1MGR4GKNSEWY8BJ80SRWBM,3ZV9H2YQQHNPN4E43NMUFCHJ6DOW34,1,2
241,1,object_07,object_02,-1.0,-1,-1,-1.0,0.0,-,0,5,3292,0,8,6,desert_8,2,memory-2step-stake-s,738,3116994,0.0-19.0-0.1-0.241,A3BJ95HQQ28GTE,3QGHA0EA1MGR4GKNSEWY8BJ80SRWBM,3ZV9H2YQQHNPN4E43NMUFCHJ6DOW34,2,1
242,1,object_02,object_07,359.0,2,2,289.0,0.6666666666666666,2,object_01,5,3322,0,8,6,desert_2,2,memory-2step-stake-s,739,3125209,0.0-19.0-0.1-0.242,A3BJ95HQQ28GTE,3QGHA0EA1MGR4GKNSEWY8BJ80SRWBM,3ZV9H2YQQHNPN4E43NMUFCHJ6DOW34,1,2
243,1,object_02,object_07,454.0,1,1,471.0,0.8888888888888888,1,object_09,5,3362,0,8,4,desert_1,2,memory-2step-stake-s,740,3133791,0.0-19.0-0.1-0.243,A3BJ95HQQ28GTE,3QGHA0EA1MGR4GKNSEWY8BJ80SRWBM,3ZV9H2YQQHNPN4E43NMUFCHJ6DOW34,1,2
244,1,object_07,object_02,313.0,1,2,434.0,0.7777777777777778,1,object_09,5,3397,0,7,7,desert_8,2,memory-2step-stake-s,741,3142258,0.0-19.0-0.1-0.244,A3BJ95HQQ28GTE,3QGHA0EA1MGR4GKNSEWY8BJ80SRWBM,3ZV9H2YQQHNPN4E43NMUFCHJ6DOW34,2,1
245,4,object_08,object_04,563.0,8,1,263.0,0.5555555555555556,2,object_01,1,3402,0,6,5,restaurant_5,2,memory-2step-stake-s,742,3150341,0.0-19.0-0.1-0.245,A3BJ95HQQ28GTE,3QGHA0EA1MGR4GKNSEWY8BJ80SRWBM,3ZV9H2YQQHNPN4E43NMUFCHJ6DOW34,8,7
246,2,object_06,object_05,359.0,4,2,428.0,0.3333333333333333,2,object_01,1,3405,0,6,3,forest_3,2,memory-2step-stake-s,743,3158374,0.0-19.0-0.1-0.246,A3BJ95HQQ28GTE,3QGHA0EA1MGR4GKNSEWY8BJ80SRWBM,3ZV9H2YQQHNPN4E43NMUFCHJ6DOW34,3,4
247,3,object_10,object_03,625.0,5,1,459.0,0.8888888888888888,1,object_09,1,3413,0,8,3,library_6,2,memory-2step-stake-s,744,3166957,0.0-19.0-0.1-0.247,A3BJ95HQQ28GTE,3QGHA0EA1MGR4GKNSEWY8BJ80SRWBM,3ZV9H2YQQHNPN4E43NMUFCHJ6DOW34,5,6
248,3,object_10,object_03,469.0,6,2,486.0,0.6666666666666666,2,object_01,1,3419,0,7,6,library_6,2,memory-2step-stake-s,745,3175357,0.0-19.0-0.1-0.248,A3BJ95HQQ28GTE,3QGHA0EA1MGR4GKNSEWY8BJ80SRWBM,3ZV9H2YQQHNPN4E43NMUFCHJ6DOW34,5,6
249,1,object_07,object_02,564.0,2,1,432.0,0.6666666666666666,2,object_01,5,3449,0,8,6,desert_7,2,memory-2step-stake-s,746,3183723,0.0-19.0-0.1-0.249,A3BJ95HQQ28GTE,3QGHA0EA1MGR4GKNSEWY8BJ80SRWBM,3ZV9H2YQQHNPN4E43NMUFCHJ6DOW34,2,1
250,4,object_04,object_08,187.0,8,2,581.0,0.5555555555555556,2,object_01,1,3454,0,6,5,restaurant_5,2,memory-2step-stake-s,747,3192147,0.0-19.0-0.1-0.250,A3BJ95HQQ28GTE,3QGHA0EA1MGR4GKNSEWY8BJ80SRWBM,3ZV9H2YQQHNPN4E43NMUFCHJ6DOW34,7,8
251,4,object_04,object_08,375.0,7,1,443.0,0.5555555555555556,1,object_09,5,3479,0,5,6,restaurant_5,2,memory-2step-stake-s,748,3200389,0.0-19.0-0.1-0.251,A3BJ95HQQ28GTE,3QGHA0EA1MGR4GKNSEWY8BJ80SRWBM,3ZV9H2YQQHNPN4E43NMUFCHJ6DOW34,7,8
252,4,object_08,object_04,234.0,7,2,438.0,0.4444444444444444,1,object_09,1,3483,0,4,7,restaurant_5,2,memory-2step-stake-s,749,3208555,0.0-19.0-0.1-0.252,A3BJ95HQQ28GTE,3QGHA0EA1MGR4GKNSEWY8BJ80SRWBM,3ZV9H2YQQHNPN4E43NMUFCHJ6DOW34,8,7
253,2,object_05,object_06,220.0,4,1,626.0,0.8888888888888888,2,object_01,5,3523,0,4,8,forest_6,2,memory-2step-stake-s,750,3217339,0.0-19.0-0.1-0.253,A3BJ95HQQ28GTE,3QGHA0EA1MGR4GKNSEWY8BJ80SRWBM,3ZV9H2YQQHNPN4E43NMUFCHJ6DOW34,4,3
254,2,object_05,object_06,641.0,3,2,910.0,0.2222222222222222,1,object_09,5,3533,0,2,8,forest_6,2,memory-2step-stake-s,751,3225738,0.0-19.0-0.1-0.254,A3BJ95HQQ28GTE,3QGHA0EA1MGR4GKNSEWY8BJ80SRWBM,3ZV9H2YQQHNPN4E43NMUFCHJ6DOW34,4,3
255,1,object_02,object_07,393.0,1,1,427.0,0.0,1,object_09,5,3533,0,0,6,desert_8,2,memory-2step-stake-s,752,3233417,0.0-19.0-0.1-0.255,A3BJ95HQQ28GTE,3QGHA0EA1MGR4GKNSEWY8BJ80SRWBM,3ZV9H2YQQHNPN4E43NMUFCHJ6DOW34,1,2
