,state1,stim_left,stim_right,rt_1,choice1,response1,rt_2,points,state2,stim_state2,stake,score,practice,rews1,rews2,background,high_arm,trial_type,trial_index,time_elapsed,internal_node_id,subid,hitid,assignmentid,stim_left_num,stim_right_num
0,3,object_03,object_07,-1.0,-1,-1,-1.0,0.0,-,0,1,0,0,8,1,library_6,2,memory-2step-stake-s,492,1096853,0.0-19.0-0.0-0.0,A3JGVZEXXELM3C,3SD15I2WE5AO7614M34OSYMJOYM362,3K2755HG5WJLUAU66NI6OXHV2MBDF7,5,6
1,4,object_01,object_05,1050.1999999881,7,2,-1.0,0.0,1,object_04,5,0,0,9,3,restaurant_7,2,memory-2step-stake-s,493,1105389,0.0-19.0-0.0-0.1,A3JGVZEXXELM3C,3SD15I2WE5AO7614M34OSYMJOYM362,3K2755HG5WJLUAU66NI6OXHV2MBDF7,8,7
2,2,object_10,object_02,1002.1999999881,4,2,-1.0,0.0,2,object_08,5,0,0,8,4,forest_8,2,memory-2step-stake-s,494,1113925,0.0-19.0-0.0-0.2,A3JGVZEXXELM3C,3SD15I2WE5AO7614M34OSYMJOYM362,3K2755HG5WJLUAU66NI6OXHV2MBDF7,3,4
3,2,object_02,object_10,1032.6999999881,3,2,-1.0,0.0,1,object_04,1,0,0,8,3,forest_2,2,memory-2step-stake-s,495,1122444,0.0-19.0-0.0-0.3,A3JGVZEXXELM3C,3SD15I2WE5AO7614M34OSYMJOYM362,3K2755HG5WJLUAU66NI6OXHV2MBDF7,4,3
4,4,object_01,object_05,682.39999997616,7,2,412.10000002384,1.0,1,object_04,1,9,0,9,4,restaurant_1,2,memory-2step-stake-s,496,1131018,0.0-19.0-0.0-0.4,A3JGVZEXXELM3C,3SD15I2WE5AO7614M34OSYMJOYM362,3K2755HG5WJLUAU66NI6OXHV2MBDF7,8,7
5,3,object_03,object_07,765.10000002384,5,1,392.89999997616,0.6666666666666666,1,object_04,5,39,0,6,6,library_8,2,memory-2step-stake-s,497,1139240,0.0-19.0-0.0-0.5,A3JGVZEXXELM3C,3SD15I2WE5AO7614M34OSYMJOYM362,3K2755HG5WJLUAU66NI6OXHV2MBDF7,5,6
6,1,object_06,object_09,781.80000001192,1,2,728.09999996424,0.8888888888888888,1,object_04,1,47,0,8,6,desert_6,2,memory-2step-stake-s,498,1148006,0.0-19.0-0.0-0.6,A3JGVZEXXELM3C,3SD15I2WE5AO7614M34OSYMJOYM362,3K2755HG5WJLUAU66NI6OXHV2MBDF7,2,1
7,1,object_06,object_09,856.69999998808,2,1,745.79999995232,0.5555555555555556,2,object_08,1,52,0,8,5,desert_1,2,memory-2step-stake-s,499,1156475,0.0-19.0-0.0-0.7,A3JGVZEXXELM3C,3SD15I2WE5AO7614M34OSYMJOYM362,3K2755HG5WJLUAU66NI6OXHV2MBDF7,2,1
8,4,object_05,object_01,913.80000001192,8,2,674.60000002384,0.7777777777777778,2,object_08,1,59,0,8,7,restaurant_6,2,memory-2step-stake-s,500,1165096,0.0-19.0-0.0-0.8,A3JGVZEXXELM3C,3SD15I2WE5AO7614M34OSYMJOYM362,3K2755HG5WJLUAU66NI6OXHV2MBDF7,7,8
9,2,object_02,object_10,1064.8000000119,3,2,745.19999998808,0.8888888888888888,1,object_04,5,99,0,8,7,forest_8,2,memory-2step-stake-s,501,1173955,0.0-19.0-0.0-0.9,A3JGVZEXXELM3C,3SD15I2WE5AO7614M34OSYMJOYM362,3K2755HG5WJLUAU66NI6OXHV2MBDF7,4,3
10,4,object_01,object_05,1099.8999999762,8,1,925.29999995232,0.8888888888888888,2,object_08,1,107,0,7,8,restaurant_1,2,memory-2step-stake-s,502,1183007,0.0-19.0-0.0-0.10,A3JGVZEXXELM3C,3SD15I2WE5AO7614M34OSYMJOYM362,3K2755HG5WJLUAU66NI6OXHV2MBDF7,8,7
11,1,object_09,object_06,1181.3000000119,1,1,665.59999996424,0.7777777777777778,1,object_04,5,142,0,7,8,desert_1,2,memory-2step-stake-s,503,1191596,0.0-19.0-0.0-0.11,A3JGVZEXXELM3C,3SD15I2WE5AO7614M34OSYMJOYM362,3K2755HG5WJLUAU66NI6OXHV2MBDF7,1,2
12,3,object_03,object_07,1215.1999999881,6,2,763.40000003576,1.0,2,object_08,1,151,0,1,9,library_1,2,memory-2step-stake-s,504,1200488,0.0-19.0-0.0-0.12,A3JGVZEXXELM3C,3SD15I2WE5AO7614M34OSYMJOYM362,3K2755HG5WJLUAU66NI6OXHV2MBDF7,5,6
13,3,object_03,object_07,1060.6999999881,5,1,529.90000003576,0.0,1,object_04,5,151,0,0,8,library_6,2,memory-2step-stake-s,505,1208244,0.0-19.0-0.0-0.13,A3JGVZEXXELM3C,3SD15I2WE5AO7614M34OSYMJOYM362,3K2755HG5WJLUAU66NI6OXHV2MBDF7,5,6
14,3,object_07,object_03,1120.4000000358,5,2,603.0,0.3333333333333333,1,object_04,1,154,0,3,5,library_6,2,memory-2step-stake-s,506,1216424,0.0-19.0-0.0-0.14,A3JGVZEXXELM3C,3SD15I2WE5AO7614M34OSYMJOYM362,3K2755HG5WJLUAU66NI6OXHV2MBDF7,6,5
15,3,object_03,object_07,1259.3000000119,5,1,671.79999995232,0.2222222222222222,1,object_04,1,156,0,2,2,library_2,2,memory-2step-stake-s,507,1224517,0.0-19.0-0.0-0.15,A3JGVZEXXELM3C,3SD15I2WE5AO7614M34OSYMJOYM362,3K2755HG5WJLUAU66NI6OXHV2MBDF7,5,6
16,1,object_06,object_09,1122.0,2,1,959.60000002384,0.0,2,object_08,1,156,0,2,0,desert_3,2,memory-2step-stake-s,508,1232694,0.0-19.0-0.0-0.16,A3JGVZEXXELM3C,3SD15I2WE5AO7614M34OSYMJOYM362,3K2755HG5WJLUAU66NI6OXHV2MBDF7,2,1
17,2,object_02,object_10,1246.0,3,2,715.69999998808,0.1111111111111111,1,object_04,5,161,0,1,2,forest_6,2,memory-2step-stake-s,509,1240752,0.0-19.0-0.0-0.17,A3JGVZEXXELM3C,3SD15I2WE5AO7614M34OSYMJOYM362,3K2755HG5WJLUAU66NI6OXHV2MBDF7,4,3
18,2,object_02,object_10,982.0,4,1,571.30000001192,0.1111111111111111,2,object_08,5,166,0,0,1,forest_8,2,memory-2step-stake-s,510,1248645,0.0-19.0-0.0-0.18,A3JGVZEXXELM3C,3SD15I2WE5AO7614M34OSYMJOYM362,3K2755HG5WJLUAU66NI6OXHV2MBDF7,4,3
19,1,object_06,object_09,1030.6999999881,2,1,595.90000003576,0.1111111111111111,2,object_08,5,171,0,0,1,desert_1,2,memory-2step-stake-s,511,1256584,0.0-19.0-0.0-0.19,A3JGVZEXXELM3C,3SD15I2WE5AO7614M34OSYMJOYM362,3K2755HG5WJLUAU66NI6OXHV2MBDF7,2,1
20,4,object_01,object_05,700.09999996424,7,2,473.80000001192,0.0,1,object_04,1,171,0,0,2,restaurant_3,2,memory-2step-stake-s,512,1264318,0.0-19.0-0.0-0.20,A3JGVZEXXELM3C,3SD15I2WE5AO7614M34OSYMJOYM362,3K2755HG5WJLUAU66NI6OXHV2MBDF7,8,7
21,4,object_01,object_05,1324.3999999762,8,1,399.40000003576,0.1111111111111111,2,object_08,5,176,0,1,1,restaurant_1,2,memory-2step-stake-s,513,1272036,0.0-19.0-0.0-0.21,A3JGVZEXXELM3C,3SD15I2WE5AO7614M34OSYMJOYM362,3K2755HG5WJLUAU66NI6OXHV2MBDF7,8,7
22,4,object_01,object_05,921.0,7,2,422.19999998808,0.3333333333333333,1,object_04,1,179,0,3,3,restaurant_6,2,memory-2step-stake-s,514,1279980,0.0-19.0-0.0-0.22,A3JGVZEXXELM3C,3SD15I2WE5AO7614M34OSYMJOYM362,3K2755HG5WJLUAU66NI6OXHV2MBDF7,8,7
23,4,object_05,object_01,630.89999997616,7,1,382.20000004768,0.2222222222222222,1,object_04,5,189,0,2,4,restaurant_6,2,memory-2step-stake-s,515,1287786,0.0-19.0-0.0-0.23,A3JGVZEXXELM3C,3SD15I2WE5AO7614M34OSYMJOYM362,3K2755HG5WJLUAU66NI6OXHV2MBDF7,7,8
24,1,object_09,object_06,868.89999997616,2,2,455.80000001192,0.3333333333333333,2,object_08,5,204,0,3,3,desert_1,2,memory-2step-stake-s,516,1295765,0.0-19.0-0.0-0.24,A3JGVZEXXELM3C,3SD15I2WE5AO7614M34OSYMJOYM362,3K2755HG5WJLUAU66NI6OXHV2MBDF7,1,2
25,2,object_10,object_02,957.90000003576,4,2,335.39999997616,0.4444444444444444,2,object_08,5,224,0,4,4,forest_8,2,memory-2step-stake-s,517,1303723,0.0-19.0-0.0-0.25,A3JGVZEXXELM3C,3SD15I2WE5AO7614M34OSYMJOYM362,3K2755HG5WJLUAU66NI6OXHV2MBDF7,3,4
26,1,object_09,object_06,623.29999995232,1,1,483.30000001192,0.4444444444444444,1,object_04,5,244,0,4,5,desert_8,2,memory-2step-stake-s,518,1311829,0.0-19.0-0.0-0.26,A3JGVZEXXELM3C,3SD15I2WE5AO7614M34OSYMJOYM362,3K2755HG5WJLUAU66NI6OXHV2MBDF7,1,2
27,4,object_05,object_01,815.30000001192,7,1,441.89999997616,0.6666666666666666,1,object_04,5,274,0,6,4,restaurant_3,2,memory-2step-stake-s,519,1320097,0.0-19.0-0.0-0.27,A3JGVZEXXELM3C,3SD15I2WE5AO7614M34OSYMJOYM362,3K2755HG5WJLUAU66NI6OXHV2MBDF7,7,8
28,3,object_03,object_07,1289.8999999762,6,2,518.89999997616,0.5555555555555556,2,object_08,1,279,0,7,5,library_2,2,memory-2step-stake-s,520,1328345,0.0-19.0-0.0-0.28,A3JGVZEXXELM3C,3SD15I2WE5AO7614M34OSYMJOYM362,3K2755HG5WJLUAU66NI6OXHV2MBDF7,5,6
29,3,object_03,object_07,1187.5,5,1,651.59999996424,0.7777777777777778,1,object_04,1,286,0,7,4,library_2,2,memory-2step-stake-s,521,1336925,0.0-19.0-0.0-0.29,A3JGVZEXXELM3C,3SD15I2WE5AO7614M34OSYMJOYM362,3K2755HG5WJLUAU66NI6OXHV2MBDF7,5,6
30,2,object_10,object_02,1080.3999999762,3,1,882.09999996424,0.5555555555555556,1,object_04,5,311,0,5,7,forest_2,2,memory-2step-stake-s,522,1345530,0.0-19.0-0.0-0.30,A3JGVZEXXELM3C,3SD15I2WE5AO7614M34OSYMJOYM362,3K2755HG5WJLUAU66NI6OXHV2MBDF7,3,4
31,1,object_09,object_06,607.40000003576,2,2,445.80000001192,0.7777777777777778,2,object_08,5,346,0,4,7,desert_8,2,memory-2step-stake-s,523,1353902,0.0-19.0-0.0-0.31,A3JGVZEXXELM3C,3SD15I2WE5AO7614M34OSYMJOYM362,3K2755HG5WJLUAU66NI6OXHV2MBDF7,1,2
32,3,object_07,object_03,1098.8999999762,5,2,552.69999998808,0.1111111111111111,1,object_04,1,347,0,1,9,library_1,2,memory-2step-stake-s,524,1361776,0.0-19.0-0.0-0.32,A3JGVZEXXELM3C,3SD15I2WE5AO7614M34OSYMJOYM362,3K2755HG5WJLUAU66NI6OXHV2MBDF7,6,5
33,3,object_07,object_03,1232.9000000358,5,2,570.10000002384,0.3333333333333333,1,object_04,5,362,0,3,7,library_6,2,memory-2step-stake-s,525,1369869,0.0-19.0-0.0-0.33,A3JGVZEXXELM3C,3SD15I2WE5AO7614M34OSYMJOYM362,3K2755HG5WJLUAU66NI6OXHV2MBDF7,6,5
34,2,object_10,object_02,979.0,4,2,794.5,0.4444444444444444,2,object_08,1,366,0,1,4,forest_8,2,memory-2step-stake-s,526,1378289,0.0-19.0-0.0-0.34,A3JGVZEXXELM3C,3SD15I2WE5AO7614M34OSYMJOYM362,3K2755HG5WJLUAU66NI6OXHV2MBDF7,3,4
35,2,object_10,object_02,630.10000002384,4,2,480.5,0.5555555555555556,2,object_08,5,391,0,1,5,forest_8,2,memory-2step-stake-s,527,1386500,0.0-19.0-0.0-0.35,A3JGVZEXXELM3C,3SD15I2WE5AO7614M34OSYMJOYM362,3K2755HG5WJLUAU66NI6OXHV2MBDF7,3,4
36,1,object_06,object_09,975.80000001192,1,2,601.80000001192,0.1111111111111111,1,object_04,1,392,0,1,3,desert_3,2,memory-2step-stake-s,528,1394422,0.0-19.0-0.0-0.36,A3JGVZEXXELM3C,3SD15I2WE5AO7614M34OSYMJOYM362,3K2755HG5WJLUAU66NI6OXHV2MBDF7,2,1
37,4,object_01,object_05,941.60000002384,7,2,605.10000002384,0.5555555555555556,1,object_04,1,397,0,5,4,restaurant_3,2,memory-2step-stake-s,529,1402752,0.0-19.0-0.0-0.37,A3JGVZEXXELM3C,3SD15I2WE5AO7614M34OSYMJOYM362,3K2755HG5WJLUAU66NI6OXHV2MBDF7,8,7
38,2,object_10,object_02,511.0,4,2,398.59999996424,0.3333333333333333,2,object_08,1,400,0,5,3,forest_2,2,memory-2step-stake-s,530,1410678,0.0-19.0-0.0-0.38,A3JGVZEXXELM3C,3SD15I2WE5AO7614M34OSYMJOYM362,3K2755HG5WJLUAU66NI6OXHV2MBDF7,3,4
39,1,object_09,object_06,1444.5999999642,2,2,651.80000001192,0.2222222222222222,2,object_08,5,410,0,5,2,desert_1,2,memory-2step-stake-s,531,1418753,0.0-19.0-0.0-0.39,A3JGVZEXXELM3C,3SD15I2WE5AO7614M34OSYMJOYM362,3K2755HG5WJLUAU66NI6OXHV2MBDF7,1,2
40,1,object_09,object_06,540.0,2,2,490.10000002384,0.3333333333333333,2,object_08,5,425,0,7,3,desert_6,2,memory-2step-stake-s,532,1426769,0.0-19.0-0.0-0.40,A3JGVZEXXELM3C,3SD15I2WE5AO7614M34OSYMJOYM362,3K2755HG5WJLUAU66NI6OXHV2MBDF7,1,2
41,2,object_02,object_10,810.90000003576,4,1,481.19999998808,0.7777777777777778,2,object_08,1,432,0,8,7,forest_6,2,memory-2step-stake-s,533,1435179,0.0-19.0-0.0-0.41,A3JGVZEXXELM3C,3SD15I2WE5AO7614M34OSYMJOYM362,3K2755HG5WJLUAU66NI6OXHV2MBDF7,4,3
42,2,object_10,object_02,529.29999995232,4,2,418.90000003576,0.8888888888888888,2,object_08,5,472,0,8,8,forest_2,2,memory-2step-stake-s,534,1443639,0.0-19.0-0.0-0.42,A3JGVZEXXELM3C,3SD15I2WE5AO7614M34OSYMJOYM362,3K2755HG5WJLUAU66NI6OXHV2MBDF7,3,4
43,1,object_06,object_09,1031.6000000238,2,1,470.0,0.6666666666666666,2,object_08,5,502,0,7,6,desert_6,2,memory-2step-stake-s,535,1451936,0.0-19.0-0.0-0.43,A3JGVZEXXELM3C,3SD15I2WE5AO7614M34OSYMJOYM362,3K2755HG5WJLUAU66NI6OXHV2MBDF7,2,1
44,1,object_09,object_06,1060.5999999642,2,2,1372.6999999881,0.0,2,object_08,5,502,0,3,0,desert_6,2,memory-2step-stake-s,536,1460530,0.0-19.0-0.0-0.44,A3JGVZEXXELM3C,3SD15I2WE5AO7614M34OSYMJOYM362,3K2755HG5WJLUAU66NI6OXHV2MBDF7,1,2
45,2,object_02,object_10,807.89999997616,4,1,509.19999998808,0.1111111111111111,2,object_08,5,507,0,1,1,forest_8,2,memory-2step-stake-s,537,1468363,0.0-19.0-0.0-0.45,A3JGVZEXXELM3C,3SD15I2WE5AO7614M34OSYMJOYM362,3K2755HG5WJLUAU66NI6OXHV2MBDF7,4,3
46,3,object_07,object_03,1487.7000000477,6,1,817.5,0.1111111111111111,2,object_08,1,508,0,4,1,library_1,2,memory-2step-stake-s,538,1476502,0.0-19.0-0.0-0.46,A3JGVZEXXELM3C,3SD15I2WE5AO7614M34OSYMJOYM362,3K2755HG5WJLUAU66NI6OXHV2MBDF7,6,5
47,4,object_05,object_01,1020.6999999881,7,1,302.09999996424,0.7777777777777778,1,object_04,1,515,0,7,2,restaurant_6,2,memory-2step-stake-s,539,1484733,0.0-19.0-0.0-0.47,A3JGVZEXXELM3C,3SD15I2WE5AO7614M34OSYMJOYM362,3K2755HG5WJLUAU66NI6OXHV2MBDF7,7,8
48,4,object_01,object_05,614.5,7,2,360.09999996424,0.7777777777777778,1,object_04,1,522,0,7,7,restaurant_6,2,memory-2step-stake-s,540,1493025,0.0-19.0-0.0-0.48,A3JGVZEXXELM3C,3SD15I2WE5AO7614M34OSYMJOYM362,3K2755HG5WJLUAU66NI6OXHV2MBDF7,8,7
49,4,object_05,object_01,858.70000004768,7,1,470.0,1.0,1,object_04,1,531,0,9,5,restaurant_3,2,memory-2step-stake-s,541,1501626,0.0-19.0-0.0-0.49,A3JGVZEXXELM3C,3SD15I2WE5AO7614M34OSYMJOYM362,3K2755HG5WJLUAU66NI6OXHV2MBDF7,7,8
50,2,object_10,object_02,770.69999998808,4,2,471.89999997616,0.6666666666666666,2,object_08,1,537,0,8,6,forest_7,2,memory-2step-stake-s,542,1509930,0.0-19.0-0.0-0.50,A3JGVZEXXELM3C,3SD15I2WE5AO7614M34OSYMJOYM362,3K2755HG5WJLUAU66NI6OXHV2MBDF7,3,4
51,2,object_02,object_10,756.0,4,1,621.69999998808,0.6666666666666666,2,object_08,5,567,0,6,6,forest_6,2,memory-2step-stake-s,543,1518384,0.0-19.0-0.0-0.51,A3JGVZEXXELM3C,3SD15I2WE5AO7614M34OSYMJOYM362,3K2755HG5WJLUAU66NI6OXHV2MBDF7,4,3
52,4,object_05,object_01,763.69999998808,7,1,513.0,0.8888888888888888,1,object_04,1,575,0,8,8,restaurant_6,2,memory-2step-stake-s,544,1526924,0.0-19.0-0.0-0.52,A3JGVZEXXELM3C,3SD15I2WE5AO7614M34OSYMJOYM362,3K2755HG5WJLUAU66NI6OXHV2MBDF7,7,8
53,3,object_07,object_03,1055.0,6,1,375.0,0.7777777777777778,2,object_08,1,582,0,8,7,library_6,2,memory-2step-stake-s,545,1535238,0.0-19.0-0.0-0.53,A3JGVZEXXELM3C,3SD15I2WE5AO7614M34OSYMJOYM362,3K2755HG5WJLUAU66NI6OXHV2MBDF7,6,5
54,3,object_03,object_07,895.80000001192,6,2,443.29999995232,1.0,2,object_08,1,591,0,8,9,library_2,2,memory-2step-stake-s,546,1543815,0.0-19.0-0.0-0.54,A3JGVZEXXELM3C,3SD15I2WE5AO7614M34OSYMJOYM362,3K2755HG5WJLUAU66NI6OXHV2MBDF7,5,6
55,2,object_10,object_02,861.0,4,2,492.30000001192,0.7777777777777778,2,object_08,5,626,0,8,7,forest_2,2,memory-2step-stake-s,547,1552242,0.0-19.0-0.0-0.55,A3JGVZEXXELM3C,3SD15I2WE5AO7614M34OSYMJOYM362,3K2755HG5WJLUAU66NI6OXHV2MBDF7,3,4
56,1,object_06,object_09,1021.4000000358,2,1,342.5,0.6666666666666666,2,object_08,5,656,0,8,6,desert_1,2,memory-2step-stake-s,548,1560414,0.0-19.0-0.0-0.56,A3JGVZEXXELM3C,3SD15I2WE5AO7614M34OSYMJOYM362,3K2755HG5WJLUAU66NI6OXHV2MBDF7,2,1
57,4,object_01,object_05,939.19999998808,7,2,314.30000001192,0.8888888888888888,1,object_04,5,696,0,8,3,restaurant_1,2,memory-2step-stake-s,549,1568772,0.0-19.0-0.0-0.57,A3JGVZEXXELM3C,3SD15I2WE5AO7614M34OSYMJOYM362,3K2755HG5WJLUAU66NI6OXHV2MBDF7,8,7
58,2,object_02,object_10,722.59999996424,4,1,254.90000003576,0.4444444444444444,2,object_08,5,716,0,8,4,forest_6,2,memory-2step-stake-s,550,1576655,0.0-19.0-0.0-0.58,A3JGVZEXXELM3C,3SD15I2WE5AO7614M34OSYMJOYM362,3K2755HG5WJLUAU66NI6OXHV2MBDF7,4,3
59,3,object_03,object_07,1229.8000000119,6,2,302.60000002384,0.4444444444444444,2,object_08,5,736,0,8,4,library_6,2,memory-2step-stake-s,551,1584582,0.0-19.0-0.0-0.59,A3JGVZEXXELM3C,3SD15I2WE5AO7614M34OSYMJOYM362,3K2755HG5WJLUAU66NI6OXHV2MBDF7,5,6
60,1,object_09,object_06,923.89999997616,2,2,399.90000003576,0.6666666666666666,2,object_08,5,766,0,7,6,desert_8,2,memory-2step-stake-s,552,1592805,0.0-19.0-0.0-0.60,A3JGVZEXXELM3C,3SD15I2WE5AO7614M34OSYMJOYM362,3K2755HG5WJLUAU66NI6OXHV2MBDF7,1,2
61,3,object_07,object_03,1075.1000000238,6,1,268.90000003576,0.7777777777777778,2,object_08,1,773,0,7,7,library_8,2,memory-2step-stake-s,553,1601010,0.0-19.0-0.0-0.61,A3JGVZEXXELM3C,3SD15I2WE5AO7614M34OSYMJOYM362,3K2755HG5WJLUAU66NI6OXHV2MBDF7,6,5
62,1,object_06,object_09,798.69999998808,1,2,393.5,0.3333333333333333,1,object_04,5,788,0,3,9,desert_8,2,memory-2step-stake-s,554,1608921,0.0-19.0-0.0-0.62,A3JGVZEXXELM3C,3SD15I2WE5AO7614M34OSYMJOYM362,3K2755HG5WJLUAU66NI6OXHV2MBDF7,2,1
63,3,object_03,object_07,1063.6999999881,5,1,326.59999996424,0.3333333333333333,1,object_04,1,791,0,3,7,library_8,2,memory-2step-stake-s,555,1616765,0.0-19.0-0.0-0.63,A3JGVZEXXELM3C,3SD15I2WE5AO7614M34OSYMJOYM362,3K2755HG5WJLUAU66NI6OXHV2MBDF7,5,6
64,3,object_03,object_07,1072.3000000119,5,1,384.69999998808,0.3333333333333333,1,object_04,1,794,0,3,7,library_2,2,memory-2step-stake-s,556,1624673,0.0-19.0-0.0-0.64,A3JGVZEXXELM3C,3SD15I2WE5AO7614M34OSYMJOYM362,3K2755HG5WJLUAU66NI6OXHV2MBDF7,5,6
65,3,object_03,object_07,752.19999998808,5,1,352.80000001192,0.2222222222222222,1,object_04,1,796,0,2,5,library_8,2,memory-2step-stake-s,557,1632445,0.0-19.0-0.0-0.65,A3JGVZEXXELM3C,3SD15I2WE5AO7614M34OSYMJOYM362,3K2755HG5WJLUAU66NI6OXHV2MBDF7,5,6
66,1,object_06,object_09,1081.6999999881,1,2,479.69999998808,0.1111111111111111,1,object_04,5,801,0,1,4,desert_8,2,memory-2step-stake-s,558,1640242,0.0-19.0-0.0-0.66,A3JGVZEXXELM3C,3SD15I2WE5AO7614M34OSYMJOYM362,3K2755HG5WJLUAU66NI6OXHV2MBDF7,2,1
67,1,object_09,object_06,1303.4000000358,1,1,452.60000002384,0.1111111111111111,1,object_04,1,802,0,1,6,desert_3,2,memory-2step-stake-s,559,1648013,0.0-19.0-0.0-0.67,A3JGVZEXXELM3C,3SD15I2WE5AO7614M34OSYMJOYM362,3K2755HG5WJLUAU66NI6OXHV2MBDF7,1,2
68,2,object_10,object_02,915.5,3,1,317.30000001192,0.1111111111111111,1,object_04,5,807,0,1,7,forest_6,2,memory-2step-stake-s,560,1655648,0.0-19.0-0.0-0.68,A3JGVZEXXELM3C,3SD15I2WE5AO7614M34OSYMJOYM362,3K2755HG5WJLUAU66NI6OXHV2MBDF7,3,4
69,3,object_03,object_07,1087.1999999881,5,1,326.60000002384,0.1111111111111111,1,object_04,1,808,0,1,6,library_8,2,memory-2step-stake-s,561,1663291,0.0-19.0-0.0-0.69,A3JGVZEXXELM3C,3SD15I2WE5AO7614M34OSYMJOYM362,3K2755HG5WJLUAU66NI6OXHV2MBDF7,5,6
70,4,object_05,object_01,1110.3000000119,8,2,316.80000001192,0.5555555555555556,2,object_08,1,813,0,0,5,restaurant_1,2,memory-2step-stake-s,562,1671328,0.0-19.0-0.0-0.70,A3JGVZEXXELM3C,3SD15I2WE5AO7614M34OSYMJOYM362,3K2755HG5WJLUAU66NI6OXHV2MBDF7,7,8
71,4,object_05,object_01,909.60000002384,8,2,342.80000001192,0.7777777777777778,2,object_08,1,820,0,3,7,restaurant_1,2,memory-2step-stake-s,563,1679594,0.0-19.0-0.0-0.71,A3JGVZEXXELM3C,3SD15I2WE5AO7614M34OSYMJOYM362,3K2755HG5WJLUAU66NI6OXHV2MBDF7,7,8
72,3,object_07,object_03,1231.3999999762,6,1,314.5,0.7777777777777778,2,object_08,5,855,0,6,7,library_8,2,memory-2step-stake-s,564,1687836,0.0-19.0-0.0-0.72,A3JGVZEXXELM3C,3SD15I2WE5AO7614M34OSYMJOYM362,3K2755HG5WJLUAU66NI6OXHV2MBDF7,6,5
73,1,object_09,object_06,1222.6999999881,2,2,432.39999997616,0.8888888888888888,2,object_08,1,863,0,4,8,desert_3,2,memory-2step-stake-s,565,1696294,0.0-19.0-0.0-0.73,A3JGVZEXXELM3C,3SD15I2WE5AO7614M34OSYMJOYM362,3K2755HG5WJLUAU66NI6OXHV2MBDF7,1,2
74,2,object_10,object_02,1379.0999999642,3,1,363.09999996424,0.3333333333333333,1,object_04,1,866,0,3,7,forest_7,2,memory-2step-stake-s,566,1704179,0.0-19.0-0.0-0.74,A3JGVZEXXELM3C,3SD15I2WE5AO7614M34OSYMJOYM362,3K2755HG5WJLUAU66NI6OXHV2MBDF7,3,4
75,4,object_01,object_05,1029.1000000238,7,2,251.30000001192,0.6666666666666666,1,object_04,1,872,0,6,9,restaurant_1,2,memory-2step-stake-s,567,1712254,0.0-19.0-0.0-0.75,A3JGVZEXXELM3C,3SD15I2WE5AO7614M34OSYMJOYM362,3K2755HG5WJLUAU66NI6OXHV2MBDF7,8,7
76,3,object_03,object_07,872.19999998808,6,2,456.10000002384,0.6666666666666666,2,object_08,1,878,0,6,6,library_6,2,memory-2step-stake-s,568,1720533,0.0-19.0-0.0-0.76,A3JGVZEXXELM3C,3SD15I2WE5AO7614M34OSYMJOYM362,3K2755HG5WJLUAU66NI6OXHV2MBDF7,5,6
77,2,object_02,object_10,1204.8999999762,4,1,290.90000003576,0.6666666666666666,2,object_08,5,908,0,9,6,forest_8,2,memory-2step-stake-s,569,1728649,0.0-19.0-0.0-0.77,A3JGVZEXXELM3C,3SD15I2WE5AO7614M34OSYMJOYM362,3K2755HG5WJLUAU66NI6OXHV2MBDF7,4,3
78,1,object_06,object_09,1186.6999999881,2,1,347.0,0.7777777777777778,2,object_08,5,943,0,7,7,desert_6,2,memory-2step-stake-s,570,1736921,0.0-19.0-0.0-0.78,A3JGVZEXXELM3C,3SD15I2WE5AO7614M34OSYMJOYM362,3K2755HG5WJLUAU66NI6OXHV2MBDF7,2,1
79,4,object_05,object_01,1122.1999999881,7,1,260.69999998808,1.0,1,object_04,1,952,0,9,8,restaurant_7,2,memory-2step-stake-s,571,1745315,0.0-19.0-0.0-0.79,A3JGVZEXXELM3C,3SD15I2WE5AO7614M34OSYMJOYM362,3K2755HG5WJLUAU66NI6OXHV2MBDF7,7,8
80,2,object_02,object_10,1052.5999999642,4,1,326.39999997616,0.6666666666666666,2,object_08,1,958,0,7,6,forest_6,2,memory-2step-stake-s,572,1753477,0.0-19.0-0.0-0.80,A3JGVZEXXELM3C,3SD15I2WE5AO7614M34OSYMJOYM362,3K2755HG5WJLUAU66NI6OXHV2MBDF7,4,3
81,3,object_07,object_03,849.80000001192,6,1,310.09999996424,0.6666666666666666,2,object_08,1,964,0,7,6,library_8,2,memory-2step-stake-s,573,1761611,0.0-19.0-0.0-0.81,A3JGVZEXXELM3C,3SD15I2WE5AO7614M34OSYMJOYM362,3K2755HG5WJLUAU66NI6OXHV2MBDF7,6,5
82,1,object_09,object_06,1152.7999999523,2,2,326.90000003576,0.6666666666666666,2,object_08,1,970,0,4,6,desert_1,2,memory-2step-stake-s,574,1769762,0.0-19.0-0.0-0.82,A3JGVZEXXELM3C,3SD15I2WE5AO7614M34OSYMJOYM362,3K2755HG5WJLUAU66NI6OXHV2MBDF7,1,2
83,4,object_01,object_05,1082.0999999642,7,2,416.30000001192,0.2222222222222222,1,object_04,1,972,0,2,8,restaurant_6,2,memory-2step-stake-s,575,1777601,0.0-19.0-0.0-0.83,A3JGVZEXXELM3C,3SD15I2WE5AO7614M34OSYMJOYM362,3K2755HG5WJLUAU66NI6OXHV2MBDF7,8,7
84,2,object_02,object_10,964.20000004768,4,1,257.5,0.8888888888888888,2,object_08,5,1012,0,3,8,forest_7,2,memory-2step-stake-s,576,1785890,0.0-19.0-0.0-0.84,A3JGVZEXXELM3C,3SD15I2WE5AO7614M34OSYMJOYM362,3K2755HG5WJLUAU66NI6OXHV2MBDF7,4,3
85,3,object_03,object_07,870.19999998808,6,2,326.5,1.0,2,object_08,5,1057,0,2,9,library_2,2,memory-2step-stake-s,577,1794404,0.0-19.0-0.0-0.85,A3JGVZEXXELM3C,3SD15I2WE5AO7614M34OSYMJOYM362,3K2755HG5WJLUAU66NI6OXHV2MBDF7,5,6
86,4,object_05,object_01,797.89999997616,7,1,240.89999997616,0.1111111111111111,1,object_04,1,1058,0,1,5,restaurant_6,2,memory-2step-stake-s,578,1801967,0.0-19.0-0.0-0.86,A3JGVZEXXELM3C,3SD15I2WE5AO7614M34OSYMJOYM362,3K2755HG5WJLUAU66NI6OXHV2MBDF7,7,8
87,3,object_07,object_03,973.69999998808,6,1,366.39999997616,0.5555555555555556,2,object_08,1,1063,0,1,5,library_6,2,memory-2step-stake-s,579,1810057,0.0-19.0-0.0-0.87,A3JGVZEXXELM3C,3SD15I2WE5AO7614M34OSYMJOYM362,3K2755HG5WJLUAU66NI6OXHV2MBDF7,6,5
88,4,object_01,object_05,838.60000002384,8,1,285.19999998808,0.3333333333333333,2,object_08,1,1066,0,0,3,restaurant_7,2,memory-2step-stake-s,580,1817866,0.0-19.0-0.0-0.88,A3JGVZEXXELM3C,3SD15I2WE5AO7614M34OSYMJOYM362,3K2755HG5WJLUAU66NI6OXHV2MBDF7,8,7
89,2,object_10,object_02,613.09999996424,4,2,350.80000001192,0.5555555555555556,2,object_08,5,1091,0,2,5,forest_7,2,memory-2step-stake-s,581,1825944,0.0-19.0-0.0-0.89,A3JGVZEXXELM3C,3SD15I2WE5AO7614M34OSYMJOYM362,3K2755HG5WJLUAU66NI6OXHV2MBDF7,3,4
90,4,object_05,object_01,1246.2000000477,8,2,271.69999998808,0.5555555555555556,2,object_08,1,1096,0,0,5,restaurant_3,2,memory-2step-stake-s,582,1833943,0.0-19.0-0.0-0.90,A3JGVZEXXELM3C,3SD15I2WE5AO7614M34OSYMJOYM362,3K2755HG5WJLUAU66NI6OXHV2MBDF7,7,8
91,4,object_05,object_01,838.0,8,2,276.19999998808,0.6666666666666666,2,object_08,1,1102,0,4,6,restaurant_6,2,memory-2step-stake-s,583,1842045,0.0-19.0-0.0-0.91,A3JGVZEXXELM3C,3SD15I2WE5AO7614M34OSYMJOYM362,3K2755HG5WJLUAU66NI6OXHV2MBDF7,7,8
92,4,object_05,object_01,732.59999996424,8,2,0.59999996423721,0.5555555555555556,2,object_08,5,1127,0,5,5,restaurant_6,2,memory-2step-stake-s,584,1849770,0.0-19.0-0.0-0.92,A3JGVZEXXELM3C,3SD15I2WE5AO7614M34OSYMJOYM362,3K2755HG5WJLUAU66NI6OXHV2MBDF7,7,8
93,3,object_07,object_03,1102.8999999762,6,1,246.30000001192,0.4444444444444444,2,object_08,1,1131,0,6,4,library_1,2,memory-2step-stake-s,585,1857642,0.0-19.0-0.0-0.93,A3JGVZEXXELM3C,3SD15I2WE5AO7614M34OSYMJOYM362,3K2755HG5WJLUAU66NI6OXHV2MBDF7,6,5
94,4,object_05,object_01,697.70000004768,8,2,37.0,0.6666666666666666,2,object_08,1,1137,0,6,6,restaurant_6,2,memory-2step-stake-s,586,1865511,0.0-19.0-0.0-0.94,A3JGVZEXXELM3C,3SD15I2WE5AO7614M34OSYMJOYM362,3K2755HG5WJLUAU66NI6OXHV2MBDF7,7,8
95,4,object_01,object_05,646.60000002384,8,1,395.40000003576,0.6666666666666666,2,object_08,5,1167,0,8,6,restaurant_1,2,memory-2step-stake-s,587,1873736,0.0-19.0-0.0-0.95,A3JGVZEXXELM3C,3SD15I2WE5AO7614M34OSYMJOYM362,3K2755HG5WJLUAU66NI6OXHV2MBDF7,8,7
96,1,object_09,object_06,1407.1999999881,1,1,242.39999997616,1.0,1,object_04,5,1212,0,9,7,desert_3,2,memory-2step-stake-s,588,1882110,0.0-19.0-0.0-0.96,A3JGVZEXXELM3C,3SD15I2WE5AO7614M34OSYMJOYM362,3K2755HG5WJLUAU66NI6OXHV2MBDF7,1,2
97,3,object_07,object_03,1249.3000000119,5,2,321.19999998808,0.8888888888888888,1,object_04,1,1220,0,8,8,library_1,2,memory-2step-stake-s,589,1890464,0.0-19.0-0.0-0.97,A3JGVZEXXELM3C,3SD15I2WE5AO7614M34OSYMJOYM362,3K2755HG5WJLUAU66NI6OXHV2MBDF7,6,5
98,2,object_10,object_02,666.69999998808,4,2,266.90000003576,1.0,2,object_08,5,1265,0,8,9,forest_6,2,memory-2step-stake-s,590,1898861,0.0-19.0-0.0-0.98,A3JGVZEXXELM3C,3SD15I2WE5AO7614M34OSYMJOYM362,3K2755HG5WJLUAU66NI6OXHV2MBDF7,3,4
99,2,object_10,object_02,587.5,4,2,307.30000001192,0.7777777777777778,2,object_08,1,1272,0,9,7,forest_8,2,memory-2step-stake-s,591,1907101,0.0-19.0-0.0-0.99,A3JGVZEXXELM3C,3SD15I2WE5AO7614M34OSYMJOYM362,3K2755HG5WJLUAU66NI6OXHV2MBDF7,3,4
100,1,object_09,object_06,790.30000001192,1,1,359.39999997616,0.7777777777777778,1,object_04,5,1307,0,7,2,desert_3,2,memory-2step-stake-s,592,1915395,0.0-19.0-0.0-0.100,A3JGVZEXXELM3C,3SD15I2WE5AO7614M34OSYMJOYM362,3K2755HG5WJLUAU66NI6OXHV2MBDF7,1,2
101,1,object_09,object_06,487.69999998808,1,1,352.39999997616,0.6666666666666666,1,object_04,1,1313,0,6,4,desert_8,2,memory-2step-stake-s,593,1923578,0.0-19.0-0.0-0.101,A3JGVZEXXELM3C,3SD15I2WE5AO7614M34OSYMJOYM362,3K2755HG5WJLUAU66NI6OXHV2MBDF7,1,2
102,4,object_05,object_01,1018.7999999523,8,2,243.60000002384,0.4444444444444444,2,object_08,1,1317,0,6,4,restaurant_3,2,memory-2step-stake-s,594,1931446,0.0-19.0-0.0-0.102,A3JGVZEXXELM3C,3SD15I2WE5AO7614M34OSYMJOYM362,3K2755HG5WJLUAU66NI6OXHV2MBDF7,7,8
103,3,object_03,object_07,809.5,5,1,348.5,0.7777777777777778,1,object_04,1,1324,0,7,6,library_2,2,memory-2step-stake-s,595,1939722,0.0-19.0-0.0-0.103,A3JGVZEXXELM3C,3SD15I2WE5AO7614M34OSYMJOYM362,3K2755HG5WJLUAU66NI6OXHV2MBDF7,5,6
104,4,object_01,object_05,1069.9000000358,8,1,334.69999998808,0.6666666666666666,2,object_08,5,1354,0,4,6,restaurant_3,2,memory-2step-stake-s,596,1947885,0.0-19.0-0.0-0.104,A3JGVZEXXELM3C,3SD15I2WE5AO7614M34OSYMJOYM362,3K2755HG5WJLUAU66NI6OXHV2MBDF7,8,7
105,1,object_09,object_06,702.39999997616,1,1,343.0,0.4444444444444444,1,object_04,1,1358,0,4,4,desert_3,2,memory-2step-stake-s,597,1955855,0.0-19.0-0.0-0.105,A3JGVZEXXELM3C,3SD15I2WE5AO7614M34OSYMJOYM362,3K2755HG5WJLUAU66NI6OXHV2MBDF7,1,2
106,3,object_07,object_03,1086.8999999762,5,2,309.60000002384,0.3333333333333333,1,object_04,1,1361,0,3,4,library_1,2,memory-2step-stake-s,598,1963689,0.0-19.0-0.0-0.106,A3JGVZEXXELM3C,3SD15I2WE5AO7614M34OSYMJOYM362,3K2755HG5WJLUAU66NI6OXHV2MBDF7,6,5
107,4,object_01,object_05,734.89999997616,7,2,269.80000001192,0.5555555555555556,1,object_04,1,1366,0,5,6,restaurant_1,2,memory-2step-stake-s,599,1971685,0.0-19.0-0.0-0.107,A3JGVZEXXELM3C,3SD15I2WE5AO7614M34OSYMJOYM362,3K2755HG5WJLUAU66NI6OXHV2MBDF7,8,7
108,1,object_09,object_06,769.0,2,2,424.80000001192,0.6666666666666666,2,object_08,5,1396,0,7,6,desert_3,2,memory-2step-stake-s,600,1979939,0.0-19.0-0.0-0.108,A3JGVZEXXELM3C,3SD15I2WE5AO7614M34OSYMJOYM362,3K2755HG5WJLUAU66NI6OXHV2MBDF7,1,2
109,2,object_02,object_10,647.90000003576,4,1,316.80000001192,0.7777777777777778,2,object_08,1,1403,0,5,7,forest_8,2,memory-2step-stake-s,601,1988192,0.0-19.0-0.0-0.109,A3JGVZEXXELM3C,3SD15I2WE5AO7614M34OSYMJOYM362,3K2755HG5WJLUAU66NI6OXHV2MBDF7,4,3
110,4,object_05,object_01,733.09999996424,7,1,223.59999996424,0.5555555555555556,1,object_04,1,1408,0,5,9,restaurant_3,2,memory-2step-stake-s,602,1996145,0.0-19.0-0.0-0.110,A3JGVZEXXELM3C,3SD15I2WE5AO7614M34OSYMJOYM362,3K2755HG5WJLUAU66NI6OXHV2MBDF7,7,8
111,1,object_06,object_09,438.89999997616,2,1,300.0,0.4444444444444444,2,object_08,5,1428,0,7,4,desert_6,2,memory-2step-stake-s,603,2004076,0.0-19.0-0.0-0.111,A3JGVZEXXELM3C,3SD15I2WE5AO7614M34OSYMJOYM362,3K2755HG5WJLUAU66NI6OXHV2MBDF7,2,1
112,4,object_01,object_05,784.0,7,2,382.5,0.8888888888888888,1,object_04,5,1468,0,8,5,restaurant_7,2,memory-2step-stake-s,604,2012492,0.0-19.0-0.0-0.112,A3JGVZEXXELM3C,3SD15I2WE5AO7614M34OSYMJOYM362,3K2755HG5WJLUAU66NI6OXHV2MBDF7,8,7
113,2,object_10,object_02,770.5,4,2,290.0,0.4444444444444444,2,object_08,5,1488,0,8,4,forest_6,2,memory-2step-stake-s,605,2020412,0.0-19.0-0.0-0.113,A3JGVZEXXELM3C,3SD15I2WE5AO7614M34OSYMJOYM362,3K2755HG5WJLUAU66NI6OXHV2MBDF7,3,4
114,2,object_10,object_02,877.5,4,2,353.20000004768,0.1111111111111111,2,object_08,5,1493,0,8,1,forest_6,2,memory-2step-stake-s,606,2028088,0.0-19.0-0.0-0.114,A3JGVZEXXELM3C,3SD15I2WE5AO7614M34OSYMJOYM362,3K2755HG5WJLUAU66NI6OXHV2MBDF7,3,4
115,2,object_02,object_10,653.79999995232,3,2,309.79999995232,0.7777777777777778,1,object_04,5,1528,0,7,0,forest_2,2,memory-2step-stake-s,607,2036330,0.0-19.0-0.0-0.115,A3JGVZEXXELM3C,3SD15I2WE5AO7614M34OSYMJOYM362,3K2755HG5WJLUAU66NI6OXHV2MBDF7,4,3
116,1,object_09,object_06,611.09999996424,2,2,489.30000001192,0.3333333333333333,2,object_08,5,1543,0,5,3,desert_8,2,memory-2step-stake-s,608,2044351,0.0-19.0-0.0-0.116,A3JGVZEXXELM3C,3SD15I2WE5AO7614M34OSYMJOYM362,3K2755HG5WJLUAU66NI6OXHV2MBDF7,1,2
117,4,object_05,object_01,580.19999998808,7,1,280.19999998808,0.4444444444444444,1,object_04,1,1547,0,4,5,restaurant_7,2,memory-2step-stake-s,609,2052265,0.0-19.0-0.0-0.117,A3JGVZEXXELM3C,3SD15I2WE5AO7614M34OSYMJOYM362,3K2755HG5WJLUAU66NI6OXHV2MBDF7,7,8
118,3,object_07,object_03,862.0,5,2,270.5,0.1111111111111111,1,object_04,1,1548,0,1,4,library_8,2,memory-2step-stake-s,610,2059866,0.0-19.0-0.0-0.118,A3JGVZEXXELM3C,3SD15I2WE5AO7614M34OSYMJOYM362,3K2755HG5WJLUAU66NI6OXHV2MBDF7,6,5
119,2,object_02,object_10,709.0,3,2,267.39999997616,0.2222222222222222,1,object_04,5,1558,0,2,4,forest_2,2,memory-2step-stake-s,611,2067571,0.0-19.0-0.0-0.119,A3JGVZEXXELM3C,3SD15I2WE5AO7614M34OSYMJOYM362,3K2755HG5WJLUAU66NI6OXHV2MBDF7,4,3
120,3,object_03,object_07,1131.0999999642,6,2,148.09999996424,0.5555555555555556,2,object_08,1,1563,0,4,5,library_1,2,memory-2step-stake-s,612,2075443,0.0-19.0-0.0-0.120,A3JGVZEXXELM3C,3SD15I2WE5AO7614M34OSYMJOYM362,3K2755HG5WJLUAU66NI6OXHV2MBDF7,5,6
121,3,object_07,object_03,387.0,6,1,253.90000003576,0.7777777777777778,2,object_08,1,1570,0,5,7,library_2,2,memory-2step-stake-s,613,2083622,0.0-19.0-0.0-0.121,A3JGVZEXXELM3C,3SD15I2WE5AO7614M34OSYMJOYM362,3K2755HG5WJLUAU66NI6OXHV2MBDF7,6,5
122,4,object_01,object_05,717.10000002384,7,2,293.70000004768,0.4444444444444444,1,object_04,1,1574,0,4,7,restaurant_7,2,memory-2step-stake-s,614,2091533,0.0-19.0-0.0-0.122,A3JGVZEXXELM3C,3SD15I2WE5AO7614M34OSYMJOYM362,3K2755HG5WJLUAU66NI6OXHV2MBDF7,8,7
123,1,object_09,object_06,1011.5999999642,1,1,251.09999996424,0.2222222222222222,1,object_04,5,1584,0,2,7,desert_6,2,memory-2step-stake-s,615,2099200,0.0-19.0-0.0-0.123,A3JGVZEXXELM3C,3SD15I2WE5AO7614M34OSYMJOYM362,3K2755HG5WJLUAU66NI6OXHV2MBDF7,1,2
124,3,object_03,object_07,845.0,6,2,250.39999997616,1.0,2,object_08,1,1593,0,1,9,library_6,2,memory-2step-stake-s,616,2107574,0.0-19.0-0.0-0.124,A3JGVZEXXELM3C,3SD15I2WE5AO7614M34OSYMJOYM362,3K2755HG5WJLUAU66NI6OXHV2MBDF7,5,6
125,2,object_10,object_02,862.30000001192,4,2,317.29999995232,0.6666666666666666,2,object_08,5,1623,0,1,6,forest_8,2,memory-2step-stake-s,617,2115725,0.0-19.0-0.0-0.125,A3JGVZEXXELM3C,3SD15I2WE5AO7614M34OSYMJOYM362,3K2755HG5WJLUAU66NI6OXHV2MBDF7,3,4
126,1,object_06,object_09,751.79999995232,1,2,336.80000001192,0.1111111111111111,1,object_04,5,1628,0,1,5,desert_8,2,memory-2step-stake-s,618,2123388,0.0-19.0-0.0-0.126,A3JGVZEXXELM3C,3SD15I2WE5AO7614M34OSYMJOYM362,3K2755HG5WJLUAU66NI6OXHV2MBDF7,2,1
127,1,object_09,object_06,479.30000001192,2,2,293.69999998808,1.0,2,object_08,1,1637,0,0,9,desert_3,2,memory-2step-stake-s,619,2131810,0.0-19.0-0.0-0.127,A3JGVZEXXELM3C,3SD15I2WE5AO7614M34OSYMJOYM362,3K2755HG5WJLUAU66NI6OXHV2MBDF7,1,2
128,3,object_03,object_07,859.30000001192,6,2,593.39999997616,0.8888888888888888,2,object_08,1,1645,0,3,8,library_8,2,memory-2step-stake-s,621,2238540,0.0-19.0-0.1-0.128,A3JGVZEXXELM3C,3SD15I2WE5AO7614M34OSYMJOYM362,3K2755HG5WJLUAU66NI6OXHV2MBDF7,5,6
129,3,object_07,object_03,432.19999998808,6,1,571.39999997616,0.7777777777777778,2,object_08,1,1652,0,1,7,library_6,2,memory-2step-stake-s,622,2247038,0.0-19.0-0.1-0.129,A3JGVZEXXELM3C,3SD15I2WE5AO7614M34OSYMJOYM362,3K2755HG5WJLUAU66NI6OXHV2MBDF7,6,5
130,2,object_10,object_02,633.60000002384,4,2,333.0,0.7777777777777778,2,object_08,5,1687,0,0,7,forest_7,2,memory-2step-stake-s,623,2255298,0.0-19.0-0.1-0.130,A3JGVZEXXELM3C,3SD15I2WE5AO7614M34OSYMJOYM362,3K2755HG5WJLUAU66NI6OXHV2MBDF7,3,4
131,2,object_02,object_10,536.30000001192,4,1,296.5,0.8888888888888888,2,object_08,5,1727,0,0,8,forest_6,2,memory-2step-stake-s,624,2263624,0.0-19.0-0.1-0.131,A3JGVZEXXELM3C,3SD15I2WE5AO7614M34OSYMJOYM362,3K2755HG5WJLUAU66NI6OXHV2MBDF7,4,3
132,1,object_09,object_06,894.59999996424,2,2,247.89999997616,0.5555555555555556,2,object_08,5,1752,0,4,5,desert_1,2,memory-2step-stake-s,625,2271598,0.0-19.0-0.1-0.132,A3JGVZEXXELM3C,3SD15I2WE5AO7614M34OSYMJOYM362,3K2755HG5WJLUAU66NI6OXHV2MBDF7,1,2
133,1,object_09,object_06,624.69999998808,1,1,293.09999996424,0.3333333333333333,1,object_04,1,1755,0,3,1,desert_8,2,memory-2step-stake-s,626,2279413,0.0-19.0-0.1-0.133,A3JGVZEXXELM3C,3SD15I2WE5AO7614M34OSYMJOYM362,3K2755HG5WJLUAU66NI6OXHV2MBDF7,1,2
134,4,object_05,object_01,1005.0,7,1,300.29999995232,0.3333333333333333,1,object_04,5,1770,0,3,3,restaurant_7,2,memory-2step-stake-s,627,2287246,0.0-19.0-0.1-0.134,A3JGVZEXXELM3C,3SD15I2WE5AO7614M34OSYMJOYM362,3K2755HG5WJLUAU66NI6OXHV2MBDF7,7,8
135,4,object_05,object_01,567.80000001192,8,2,322.10000002384,0.8888888888888888,2,object_08,1,1778,0,6,8,restaurant_6,2,memory-2step-stake-s,628,2295596,0.0-19.0-0.1-0.135,A3JGVZEXXELM3C,3SD15I2WE5AO7614M34OSYMJOYM362,3K2755HG5WJLUAU66NI6OXHV2MBDF7,7,8
136,4,object_05,object_01,532.10000002384,8,2,296.40000003576,0.8888888888888888,2,object_08,1,1786,0,7,8,restaurant_6,2,memory-2step-stake-s,629,2303922,0.0-19.0-0.1-0.136,A3JGVZEXXELM3C,3SD15I2WE5AO7614M34OSYMJOYM362,3K2755HG5WJLUAU66NI6OXHV2MBDF7,7,8
137,3,object_07,object_03,1331.3000000119,6,1,299.19999998808,0.6666666666666666,2,object_08,1,1792,0,7,6,library_1,2,memory-2step-stake-s,630,2312045,0.0-19.0-0.1-0.137,A3JGVZEXXELM3C,3SD15I2WE5AO7614M34OSYMJOYM362,3K2755HG5WJLUAU66NI6OXHV2MBDF7,6,5
138,3,object_07,object_03,1329.9000000358,6,1,282.40000003576,0.4444444444444444,2,object_08,1,1796,0,7,4,library_8,2,memory-2step-stake-s,631,2319953,0.0-19.0-0.1-0.138,A3JGVZEXXELM3C,3SD15I2WE5AO7614M34OSYMJOYM362,3K2755HG5WJLUAU66NI6OXHV2MBDF7,6,5
139,1,object_09,object_06,991.80000001192,2,2,299.69999998808,0.7777777777777778,2,object_08,5,1831,0,8,7,desert_1,2,memory-2step-stake-s,632,2328183,0.0-19.0-0.1-0.139,A3JGVZEXXELM3C,3SD15I2WE5AO7614M34OSYMJOYM362,3K2755HG5WJLUAU66NI6OXHV2MBDF7,1,2
140,3,object_03,object_07,715.10000002384,5,1,299.0,1.0,1,object_04,1,1840,0,9,5,library_1,2,memory-2step-stake-s,633,2336610,0.0-19.0-0.1-0.140,A3JGVZEXXELM3C,3SD15I2WE5AO7614M34OSYMJOYM362,3K2755HG5WJLUAU66NI6OXHV2MBDF7,5,6
141,2,object_02,object_10,537.5,4,1,286.30000001192,0.4444444444444444,2,object_08,5,1860,0,8,4,forest_2,2,memory-2step-stake-s,634,2344524,0.0-19.0-0.1-0.141,A3JGVZEXXELM3C,3SD15I2WE5AO7614M34OSYMJOYM362,3K2755HG5WJLUAU66NI6OXHV2MBDF7,4,3
142,3,object_07,object_03,874.90000003576,5,2,272.30000001192,0.8888888888888888,1,object_04,1,1868,0,8,4,library_8,2,memory-2step-stake-s,635,2352828,0.0-19.0-0.1-0.142,A3JGVZEXXELM3C,3SD15I2WE5AO7614M34OSYMJOYM362,3K2755HG5WJLUAU66NI6OXHV2MBDF7,6,5
143,3,object_07,object_03,545.39999997616,5,2,280.09999996424,0.8888888888888888,1,object_04,1,1876,0,8,2,library_6,2,memory-2step-stake-s,636,2361137,0.0-19.0-0.1-0.143,A3JGVZEXXELM3C,3SD15I2WE5AO7614M34OSYMJOYM362,3K2755HG5WJLUAU66NI6OXHV2MBDF7,6,5
144,1,object_09,object_06,1299.2999999523,2,2,134.30000001192,0.3333333333333333,2,object_08,5,1891,0,6,3,desert_6,2,memory-2step-stake-s,637,2368795,0.0-19.0-0.1-0.144,A3JGVZEXXELM3C,3SD15I2WE5AO7614M34OSYMJOYM362,3K2755HG5WJLUAU66NI6OXHV2MBDF7,1,2
145,3,object_07,object_03,709.0,5,2,677.40000003576,0.7777777777777778,1,object_04,1,1898,0,7,1,library_2,2,memory-2step-stake-s,638,2377399,0.0-19.0-0.1-0.145,A3JGVZEXXELM3C,3SD15I2WE5AO7614M34OSYMJOYM362,3K2755HG5WJLUAU66NI6OXHV2MBDF7,6,5
146,2,object_02,object_10,623.30000001192,4,1,87.5,0.2222222222222222,2,object_08,5,1908,0,7,2,forest_6,2,memory-2step-stake-s,639,2384907,0.0-19.0-0.1-0.146,A3JGVZEXXELM3C,3SD15I2WE5AO7614M34OSYMJOYM362,3K2755HG5WJLUAU66NI6OXHV2MBDF7,4,3
147,1,object_09,object_06,890.79999995232,1,1,274.39999997616,0.8888888888888888,1,object_04,5,1948,0,8,1,desert_3,2,memory-2step-stake-s,640,2393209,0.0-19.0-0.1-0.147,A3JGVZEXXELM3C,3SD15I2WE5AO7614M34OSYMJOYM362,3K2755HG5WJLUAU66NI6OXHV2MBDF7,1,2
148,2,object_10,object_02,709.80000001192,3,1,298.5,0.7777777777777778,1,object_04,1,1955,0,7,3,forest_2,2,memory-2step-stake-s,641,2401434,0.0-19.0-0.1-0.148,A3JGVZEXXELM3C,3SD15I2WE5AO7614M34OSYMJOYM362,3K2755HG5WJLUAU66NI6OXHV2MBDF7,3,4
149,1,object_06,object_09,586.20000004768,1,2,218.20000004768,0.5555555555555556,1,object_04,5,1980,0,5,4,desert_6,2,memory-2step-stake-s,642,2409388,0.0-19.0-0.1-0.149,A3JGVZEXXELM3C,3SD15I2WE5AO7614M34OSYMJOYM362,3K2755HG5WJLUAU66NI6OXHV2MBDF7,2,1
150,2,object_02,object_10,461.30000001192,3,2,260.69999998808,0.5555555555555556,1,object_04,5,2005,0,5,7,forest_8,2,memory-2step-stake-s,643,2417377,0.0-19.0-0.1-0.150,A3JGVZEXXELM3C,3SD15I2WE5AO7614M34OSYMJOYM362,3K2755HG5WJLUAU66NI6OXHV2MBDF7,4,3
151,4,object_01,object_05,1016.3999999762,8,1,228.39999997616,0.8888888888888888,2,object_08,1,2013,0,8,8,restaurant_7,2,memory-2step-stake-s,644,2425641,0.0-19.0-0.1-0.151,A3JGVZEXXELM3C,3SD15I2WE5AO7614M34OSYMJOYM362,3K2755HG5WJLUAU66NI6OXHV2MBDF7,8,7
152,4,object_01,object_05,614.89999997616,8,1,255.59999996424,0.7777777777777778,2,object_08,1,2020,0,6,7,restaurant_7,2,memory-2step-stake-s,645,2433827,0.0-19.0-0.1-0.152,A3JGVZEXXELM3C,3SD15I2WE5AO7614M34OSYMJOYM362,3K2755HG5WJLUAU66NI6OXHV2MBDF7,8,7
153,3,object_07,object_03,1304.2000000477,5,2,218.19999998808,0.7777777777777778,1,object_04,5,2055,0,7,7,library_1,2,memory-2step-stake-s,646,2441976,0.0-19.0-0.1-0.153,A3JGVZEXXELM3C,3SD15I2WE5AO7614M34OSYMJOYM362,3K2755HG5WJLUAU66NI6OXHV2MBDF7,6,5
154,2,object_10,object_02,784.10000002384,3,1,98.199999988079,0.8888888888888888,1,object_04,1,2063,0,8,7,forest_8,2,memory-2step-stake-s,647,2450105,0.0-19.0-0.1-0.154,A3JGVZEXXELM3C,3SD15I2WE5AO7614M34OSYMJOYM362,3K2755HG5WJLUAU66NI6OXHV2MBDF7,3,4
155,1,object_09,object_06,444.5,1,1,517.69999998808,0.6666666666666666,1,object_04,5,2093,0,6,7,desert_3,2,memory-2step-stake-s,648,2458451,0.0-19.0-0.1-0.155,A3JGVZEXXELM3C,3SD15I2WE5AO7614M34OSYMJOYM362,3K2755HG5WJLUAU66NI6OXHV2MBDF7,1,2
156,4,object_05,object_01,507.30000001192,8,2,249.5,1.0,2,object_08,5,2138,0,3,9,restaurant_6,2,memory-2step-stake-s,649,2466836,0.0-19.0-0.1-0.156,A3JGVZEXXELM3C,3SD15I2WE5AO7614M34OSYMJOYM362,3K2755HG5WJLUAU66NI6OXHV2MBDF7,7,8
157,3,object_03,object_07,1048.4000000358,5,1,335.19999998808,0.3333333333333333,1,object_04,1,2141,0,3,9,library_1,2,memory-2step-stake-s,650,2474696,0.0-19.0-0.1-0.157,A3JGVZEXXELM3C,3SD15I2WE5AO7614M34OSYMJOYM362,3K2755HG5WJLUAU66NI6OXHV2MBDF7,5,6
158,3,object_03,object_07,473.39999997616,6,2,52.100000023842,0.7777777777777778,2,object_08,1,2148,0,4,7,library_8,2,memory-2step-stake-s,651,2482681,0.0-19.0-0.1-0.158,A3JGVZEXXELM3C,3SD15I2WE5AO7614M34OSYMJOYM362,3K2755HG5WJLUAU66NI6OXHV2MBDF7,5,6
159,3,object_07,object_03,449.30000001192,6,1,286.90000003576,0.5555555555555556,2,object_08,1,2153,0,5,5,library_2,2,memory-2step-stake-s,652,2490696,0.0-19.0-0.1-0.159,A3JGVZEXXELM3C,3SD15I2WE5AO7614M34OSYMJOYM362,3K2755HG5WJLUAU66NI6OXHV2MBDF7,6,5
160,1,object_09,object_06,989.80000001192,1,1,99.0,0.5555555555555556,1,object_04,5,2178,0,5,7,desert_1,2,memory-2step-stake-s,653,2498523,0.0-19.0-0.1-0.160,A3JGVZEXXELM3C,3SD15I2WE5AO7614M34OSYMJOYM362,3K2755HG5WJLUAU66NI6OXHV2MBDF7,1,2
161,2,object_02,object_10,427.09999996424,3,2,430.80000001192,0.1111111111111111,1,object_04,5,2183,0,1,4,forest_7,2,memory-2step-stake-s,654,2506278,0.0-19.0-0.1-0.161,A3JGVZEXXELM3C,3SD15I2WE5AO7614M34OSYMJOYM362,3K2755HG5WJLUAU66NI6OXHV2MBDF7,4,3
162,1,object_09,object_06,634.69999998808,2,2,271.30000001192,0.0,2,object_08,5,2183,0,1,0,desert_1,2,memory-2step-stake-s,655,2513773,0.0-19.0-0.1-0.162,A3JGVZEXXELM3C,3SD15I2WE5AO7614M34OSYMJOYM362,3K2755HG5WJLUAU66NI6OXHV2MBDF7,1,2
163,2,object_10,object_02,880.29999995232,3,1,300.89999997616,0.4444444444444444,1,object_04,5,2203,0,4,1,forest_7,2,memory-2step-stake-s,656,2521703,0.0-19.0-0.1-0.163,A3JGVZEXXELM3C,3SD15I2WE5AO7614M34OSYMJOYM362,3K2755HG5WJLUAU66NI6OXHV2MBDF7,3,4
164,2,object_02,object_10,1137.7000000477,4,1,290.30000001192,0.5555555555555556,2,object_08,5,2228,0,1,5,forest_8,2,memory-2step-stake-s,657,2529733,0.0-19.0-0.1-0.164,A3JGVZEXXELM3C,3SD15I2WE5AO7614M34OSYMJOYM362,3K2755HG5WJLUAU66NI6OXHV2MBDF7,4,3
165,4,object_01,object_05,779.5,8,1,436.89999997616,0.6666666666666666,2,object_08,1,2234,0,3,6,restaurant_6,2,memory-2step-stake-s,658,2538003,0.0-19.0-0.1-0.165,A3JGVZEXXELM3C,3SD15I2WE5AO7614M34OSYMJOYM362,3K2755HG5WJLUAU66NI6OXHV2MBDF7,8,7
166,1,object_06,object_09,1029.8999999762,1,2,387.19999998808,0.4444444444444444,1,object_04,5,2254,0,4,6,desert_6,2,memory-2step-stake-s,659,2546020,0.0-19.0-0.1-0.166,A3JGVZEXXELM3C,3SD15I2WE5AO7614M34OSYMJOYM362,3K2755HG5WJLUAU66NI6OXHV2MBDF7,2,1
167,1,object_06,object_09,998.19999998808,2,1,301.70000004768,0.8888888888888888,2,object_08,5,2294,0,3,8,desert_8,2,memory-2step-stake-s,660,2554355,0.0-19.0-0.1-0.167,A3JGVZEXXELM3C,3SD15I2WE5AO7614M34OSYMJOYM362,3K2755HG5WJLUAU66NI6OXHV2MBDF7,2,1
168,4,object_05,object_01,1061.8999999762,8,2,413.09999996424,0.6666666666666666,2,object_08,1,2300,0,2,6,restaurant_7,2,memory-2step-stake-s,661,2562596,0.0-19.0-0.1-0.168,A3JGVZEXXELM3C,3SD15I2WE5AO7614M34OSYMJOYM362,3K2755HG5WJLUAU66NI6OXHV2MBDF7,7,8
169,2,object_02,object_10,659.19999998808,4,1,305.5,0.4444444444444444,2,object_08,1,2304,0,3,4,forest_6,2,memory-2step-stake-s,662,2570522,0.0-19.0-0.1-0.169,A3JGVZEXXELM3C,3SD15I2WE5AO7614M34OSYMJOYM362,3K2755HG5WJLUAU66NI6OXHV2MBDF7,4,3
170,3,object_03,object_07,465.0,6,2,301.0,0.4444444444444444,2,object_08,5,2324,0,1,4,library_6,2,memory-2step-stake-s,663,2578444,0.0-19.0-0.1-0.170,A3JGVZEXXELM3C,3SD15I2WE5AO7614M34OSYMJOYM362,3K2755HG5WJLUAU66NI6OXHV2MBDF7,5,6
171,2,object_10,object_02,716.39999997616,3,1,261.19999998808,0.5555555555555556,1,object_04,1,2329,0,5,4,forest_7,2,memory-2step-stake-s,664,2586427,0.0-19.0-0.1-0.171,A3JGVZEXXELM3C,3SD15I2WE5AO7614M34OSYMJOYM362,3K2755HG5WJLUAU66NI6OXHV2MBDF7,3,4
172,2,object_02,object_10,643.19999998808,3,2,352.60000002384,0.4444444444444444,1,object_04,5,2349,0,4,2,forest_7,2,memory-2step-stake-s,665,2594400,0.0-19.0-0.1-0.172,A3JGVZEXXELM3C,3SD15I2WE5AO7614M34OSYMJOYM362,3K2755HG5WJLUAU66NI6OXHV2MBDF7,4,3
173,2,object_10,object_02,545.60000002384,4,2,335.29999995232,0.1111111111111111,2,object_08,5,2354,0,4,1,forest_2,2,memory-2step-stake-s,666,2602057,0.0-19.0-0.1-0.173,A3JGVZEXXELM3C,3SD15I2WE5AO7614M34OSYMJOYM362,3K2755HG5WJLUAU66NI6OXHV2MBDF7,3,4
174,1,object_09,object_06,637.69999998808,1,1,290.59999996424,0.3333333333333333,1,object_04,5,2369,0,3,0,desert_3,2,memory-2step-stake-s,667,2609870,0.0-19.0-0.1-0.174,A3JGVZEXXELM3C,3SD15I2WE5AO7614M34OSYMJOYM362,3K2755HG5WJLUAU66NI6OXHV2MBDF7,1,2
175,2,object_10,object_02,1404.8000000119,4,2,283.10000002384,0.1111111111111111,2,object_08,5,2374,0,0,1,forest_2,2,memory-2step-stake-s,668,2617471,0.0-19.0-0.1-0.175,A3JGVZEXXELM3C,3SD15I2WE5AO7614M34OSYMJOYM362,3K2755HG5WJLUAU66NI6OXHV2MBDF7,3,4
176,2,object_10,object_02,619.19999998808,3,1,289.20000004768,0.2222222222222222,1,object_04,1,2376,0,2,3,forest_6,2,memory-2step-stake-s,669,2625180,0.0-19.0-0.1-0.176,A3JGVZEXXELM3C,3SD15I2WE5AO7614M34OSYMJOYM362,3K2755HG5WJLUAU66NI6OXHV2MBDF7,3,4
177,3,object_03,object_07,563.89999997616,6,2,256.39999997616,0.4444444444444444,2,object_08,1,2380,0,2,4,library_2,2,memory-2step-stake-s,670,2633059,0.0-19.0-0.1-0.177,A3JGVZEXXELM3C,3SD15I2WE5AO7614M34OSYMJOYM362,3K2755HG5WJLUAU66NI6OXHV2MBDF7,5,6
178,4,object_01,object_05,897.29999995232,7,2,277.19999998808,0.4444444444444444,1,object_04,5,2400,0,4,2,restaurant_1,2,memory-2step-stake-s,671,2640958,0.0-19.0-0.1-0.178,A3JGVZEXXELM3C,3SD15I2WE5AO7614M34OSYMJOYM362,3K2755HG5WJLUAU66NI6OXHV2MBDF7,8,7
179,3,object_07,object_03,750.0,5,2,324.69999998808,0.2222222222222222,1,object_04,5,2410,0,2,4,library_2,2,memory-2step-stake-s,672,2648707,0.0-19.0-0.1-0.179,A3JGVZEXXELM3C,3SD15I2WE5AO7614M34OSYMJOYM362,3K2755HG5WJLUAU66NI6OXHV2MBDF7,6,5
180,3,object_07,object_03,876.10000002384,6,1,399.0,0.2222222222222222,2,object_08,1,2412,0,0,2,library_8,2,memory-2step-stake-s,673,2656529,0.0-19.0-0.1-0.180,A3JGVZEXXELM3C,3SD15I2WE5AO7614M34OSYMJOYM362,3K2755HG5WJLUAU66NI6OXHV2MBDF7,6,5
181,4,object_05,object_01,1117.5999999642,8,2,274.20000004768,0.2222222222222222,2,object_08,1,2414,0,2,2,restaurant_1,2,memory-2step-stake-s,674,2664222,0.0-19.0-0.1-0.181,A3JGVZEXXELM3C,3SD15I2WE5AO7614M34OSYMJOYM362,3K2755HG5WJLUAU66NI6OXHV2MBDF7,7,8
182,2,object_10,object_02,901.20000004768,4,2,217.10000002384,0.4444444444444444,2,object_08,1,2418,0,4,4,forest_7,2,memory-2step-stake-s,675,2672062,0.0-19.0-0.1-0.182,A3JGVZEXXELM3C,3SD15I2WE5AO7614M34OSYMJOYM362,3K2755HG5WJLUAU66NI6OXHV2MBDF7,3,4
183,4,object_05,object_01,528.5,7,1,418.19999998808,0.6666666666666666,1,object_04,5,2448,0,6,2,restaurant_3,2,memory-2step-stake-s,676,2680307,0.0-19.0-0.1-0.183,A3JGVZEXXELM3C,3SD15I2WE5AO7614M34OSYMJOYM362,3K2755HG5WJLUAU66NI6OXHV2MBDF7,7,8
184,2,object_02,object_10,928.69999998808,3,2,421.19999998808,0.7777777777777778,1,object_04,1,2455,0,7,4,forest_7,2,memory-2step-stake-s,677,2688653,0.0-19.0-0.1-0.184,A3JGVZEXXELM3C,3SD15I2WE5AO7614M34OSYMJOYM362,3K2755HG5WJLUAU66NI6OXHV2MBDF7,4,3
185,2,object_02,object_10,792.69999998808,4,1,1010.0,0.4444444444444444,2,object_08,1,2459,0,9,4,forest_7,2,memory-2step-stake-s,678,2697286,0.0-19.0-0.1-0.185,A3JGVZEXXELM3C,3SD15I2WE5AO7614M34OSYMJOYM362,3K2755HG5WJLUAU66NI6OXHV2MBDF7,4,3
186,4,object_05,object_01,976.19999998808,8,2,1252.8999999762,0.2222222222222222,2,object_08,1,2461,0,7,2,restaurant_3,2,memory-2step-stake-s,679,2705960,0.0-19.0-0.1-0.186,A3JGVZEXXELM3C,3SD15I2WE5AO7614M34OSYMJOYM362,3K2755HG5WJLUAU66NI6OXHV2MBDF7,7,8
187,3,object_03,object_07,-1.0,-1,-1,-1.0,0.0,-,0,1,2461,0,8,5,library_6,2,memory-2step-stake-s,680,2712472,0.0-19.0-0.1-0.187,A3JGVZEXXELM3C,3SD15I2WE5AO7614M34OSYMJOYM362,3K2755HG5WJLUAU66NI6OXHV2MBDF7,5,6
188,2,object_10,object_02,743.30000001192,4,2,632.5,0.7777777777777778,2,object_08,5,2496,0,7,7,forest_2,2,memory-2step-stake-s,681,2721051,0.0-19.0-0.1-0.188,A3JGVZEXXELM3C,3SD15I2WE5AO7614M34OSYMJOYM362,3K2755HG5WJLUAU66NI6OXHV2MBDF7,3,4
189,1,object_06,object_09,549.19999998808,2,1,488.59999996424,0.7777777777777778,2,object_08,5,2531,0,3,7,desert_8,2,memory-2step-stake-s,682,2729623,0.0-19.0-0.1-0.189,A3JGVZEXXELM3C,3SD15I2WE5AO7614M34OSYMJOYM362,3K2755HG5WJLUAU66NI6OXHV2MBDF7,2,1
190,3,object_07,object_03,642.90000003576,6,1,1466.8999999762,0.5555555555555556,2,object_08,1,2536,0,0,5,library_1,2,memory-2step-stake-s,683,2738959,0.0-19.0-0.1-0.190,A3JGVZEXXELM3C,3SD15I2WE5AO7614M34OSYMJOYM362,3K2755HG5WJLUAU66NI6OXHV2MBDF7,6,5
191,4,object_01,object_05,667.10000002384,7,2,55.100000023842,0.2222222222222222,1,object_04,1,2538,0,2,5,restaurant_1,2,memory-2step-stake-s,684,2746535,0.0-19.0-0.1-0.191,A3JGVZEXXELM3C,3SD15I2WE5AO7614M34OSYMJOYM362,3K2755HG5WJLUAU66NI6OXHV2MBDF7,8,7
192,2,object_02,object_10,647.09999996424,4,1,230.80000001192,0.6666666666666666,2,object_08,5,2568,0,4,6,forest_7,2,memory-2step-stake-s,685,2754635,0.0-19.0-0.1-0.192,A3JGVZEXXELM3C,3SD15I2WE5AO7614M34OSYMJOYM362,3K2755HG5WJLUAU66NI6OXHV2MBDF7,4,3
193,3,object_03,object_07,747.80000001192,5,1,372.89999997616,0.2222222222222222,1,object_04,1,2570,0,2,9,library_1,2,memory-2step-stake-s,686,2762511,0.0-19.0-0.1-0.193,A3JGVZEXXELM3C,3SD15I2WE5AO7614M34OSYMJOYM362,3K2755HG5WJLUAU66NI6OXHV2MBDF7,5,6
194,4,object_05,object_01,704.19999998808,7,1,352.80000001192,0.3333333333333333,1,object_04,1,2573,0,3,9,restaurant_7,2,memory-2step-stake-s,687,2770442,0.0-19.0-0.1-0.194,A3JGVZEXXELM3C,3SD15I2WE5AO7614M34OSYMJOYM362,3K2755HG5WJLUAU66NI6OXHV2MBDF7,7,8
195,1,object_09,object_06,957.59999996424,1,1,502.5,0.2222222222222222,1,object_04,5,2583,0,2,9,desert_6,2,memory-2step-stake-s,688,2778417,0.0-19.0-0.1-0.195,A3JGVZEXXELM3C,3SD15I2WE5AO7614M34OSYMJOYM362,3K2755HG5WJLUAU66NI6OXHV2MBDF7,1,2
196,4,object_01,object_05,745.10000002384,7,2,352.0,0.1111111111111111,1,object_04,5,2588,0,1,8,restaurant_1,2,memory-2step-stake-s,689,2786087,0.0-19.0-0.1-0.196,A3JGVZEXXELM3C,3SD15I2WE5AO7614M34OSYMJOYM362,3K2755HG5WJLUAU66NI6OXHV2MBDF7,8,7
197,4,object_01,object_05,609.80000001192,8,1,364.5,1.0,2,object_08,1,2597,0,4,9,restaurant_3,2,memory-2step-stake-s,690,2794580,0.0-19.0-0.1-0.197,A3JGVZEXXELM3C,3SD15I2WE5AO7614M34OSYMJOYM362,3K2755HG5WJLUAU66NI6OXHV2MBDF7,8,7
198,4,object_05,object_01,712.19999998808,8,2,364.09999996424,0.6666666666666666,2,object_08,1,2603,0,5,6,restaurant_3,2,memory-2step-stake-s,691,2802767,0.0-19.0-0.1-0.198,A3JGVZEXXELM3C,3SD15I2WE5AO7614M34OSYMJOYM362,3K2755HG5WJLUAU66NI6OXHV2MBDF7,7,8
199,4,object_05,object_01,710.5,8,2,615.80000001192,0.6666666666666666,2,object_08,1,2609,0,5,6,restaurant_3,2,memory-2step-stake-s,692,2811207,0.0-19.0-0.1-0.199,A3JGVZEXXELM3C,3SD15I2WE5AO7614M34OSYMJOYM362,3K2755HG5WJLUAU66NI6OXHV2MBDF7,7,8
200,2,object_10,object_02,636.20000004768,4,2,327.09999996424,0.3333333333333333,2,object_08,5,2624,0,6,3,forest_8,2,memory-2step-stake-s,693,2819073,0.0-19.0-0.1-0.200,A3JGVZEXXELM3C,3SD15I2WE5AO7614M34OSYMJOYM362,3K2755HG5WJLUAU66NI6OXHV2MBDF7,3,4
201,1,object_06,object_09,602.69999998808,1,2,346.5,0.8888888888888888,1,object_04,1,2632,0,8,3,desert_1,2,memory-2step-stake-s,694,2827517,0.0-19.0-0.1-0.201,A3JGVZEXXELM3C,3SD15I2WE5AO7614M34OSYMJOYM362,3K2755HG5WJLUAU66NI6OXHV2MBDF7,2,1
202,2,object_10,object_02,476.30000001192,3,1,465.80000001192,0.8888888888888888,1,object_04,5,2672,0,8,1,forest_7,2,memory-2step-stake-s,695,2836022,0.0-19.0-0.1-0.202,A3JGVZEXXELM3C,3SD15I2WE5AO7614M34OSYMJOYM362,3K2755HG5WJLUAU66NI6OXHV2MBDF7,3,4
203,4,object_01,object_05,821.29999995232,8,1,371.40000003576,0.0,2,object_08,1,2672,0,8,0,restaurant_7,2,memory-2step-stake-s,696,2843612,0.0-19.0-0.1-0.203,A3JGVZEXXELM3C,3SD15I2WE5AO7614M34OSYMJOYM362,3K2755HG5WJLUAU66NI6OXHV2MBDF7,8,7
204,2,object_10,object_02,1133.8999999762,4,2,290.5,0.1111111111111111,2,object_08,5,2677,0,8,1,forest_8,2,memory-2step-stake-s,697,2851222,0.0-19.0-0.1-0.204,A3JGVZEXXELM3C,3SD15I2WE5AO7614M34OSYMJOYM362,3K2755HG5WJLUAU66NI6OXHV2MBDF7,3,4
205,3,object_07,object_03,550.69999998808,5,2,868.60000002384,0.6666666666666666,1,object_04,1,2683,0,6,0,library_8,2,memory-2step-stake-s,698,2859915,0.0-19.0-0.1-0.205,A3JGVZEXXELM3C,3SD15I2WE5AO7614M34OSYMJOYM362,3K2755HG5WJLUAU66NI6OXHV2MBDF7,6,5
206,1,object_09,object_06,907.10000002384,2,2,280.80000001192,0.4444444444444444,2,object_08,1,2687,0,3,4,desert_8,2,memory-2step-stake-s,699,2867824,0.0-19.0-0.1-0.206,A3JGVZEXXELM3C,3SD15I2WE5AO7614M34OSYMJOYM362,3K2755HG5WJLUAU66NI6OXHV2MBDF7,1,2
207,1,object_06,object_09,825.09999996424,1,2,207.30000001192,0.2222222222222222,1,object_04,5,2697,0,2,5,desert_6,2,memory-2step-stake-s,700,2875453,0.0-19.0-0.1-0.207,A3JGVZEXXELM3C,3SD15I2WE5AO7614M34OSYMJOYM362,3K2755HG5WJLUAU66NI6OXHV2MBDF7,2,1
208,2,object_02,object_10,909.19999998808,4,1,338.59999996424,0.5555555555555556,2,object_08,1,2702,0,1,5,forest_2,2,memory-2step-stake-s,701,2883542,0.0-19.0-0.1-0.208,A3JGVZEXXELM3C,3SD15I2WE5AO7614M34OSYMJOYM362,3K2755HG5WJLUAU66NI6OXHV2MBDF7,4,3
209,3,object_03,object_07,1120.8999999762,5,1,315.80000001192,0.3333333333333333,1,object_04,1,2705,0,3,3,library_2,2,memory-2step-stake-s,702,2891386,0.0-19.0-0.1-0.209,A3JGVZEXXELM3C,3SD15I2WE5AO7614M34OSYMJOYM362,3K2755HG5WJLUAU66NI6OXHV2MBDF7,5,6
210,3,object_03,object_07,849.19999998808,6,2,385.30000001192,0.0,2,object_08,1,2705,0,3,0,library_8,2,memory-2step-stake-s,703,2898993,0.0-19.0-0.1-0.210,A3JGVZEXXELM3C,3SD15I2WE5AO7614M34OSYMJOYM362,3K2755HG5WJLUAU66NI6OXHV2MBDF7,5,6
211,3,object_03,object_07,663.0,5,1,270.59999996424,0.2222222222222222,1,object_04,1,2707,0,2,0,library_8,2,memory-2step-stake-s,704,2906686,0.0-19.0-0.1-0.211,A3JGVZEXXELM3C,3SD15I2WE5AO7614M34OSYMJOYM362,3K2755HG5WJLUAU66NI6OXHV2MBDF7,5,6
212,4,object_01,object_05,1047.1000000238,7,2,323.5,0.3333333333333333,1,object_04,1,2710,0,3,2,restaurant_7,2,memory-2step-stake-s,705,2914531,0.0-19.0-0.1-0.212,A3JGVZEXXELM3C,3SD15I2WE5AO7614M34OSYMJOYM362,3K2755HG5WJLUAU66NI6OXHV2MBDF7,8,7
213,1,object_06,object_09,552.60000002384,2,1,364.69999998808,0.5555555555555556,2,object_08,1,2715,0,4,5,desert_1,2,memory-2step-stake-s,706,2922621,0.0-19.0-0.1-0.213,A3JGVZEXXELM3C,3SD15I2WE5AO7614M34OSYMJOYM362,3K2755HG5WJLUAU66NI6OXHV2MBDF7,2,1
214,4,object_01,object_05,629.09999996424,8,1,91.399999976158,0.7777777777777778,2,object_08,5,2750,0,4,7,restaurant_1,2,memory-2step-stake-s,707,2930641,0.0-19.0-0.1-0.214,A3JGVZEXXELM3C,3SD15I2WE5AO7614M34OSYMJOYM362,3K2755HG5WJLUAU66NI6OXHV2MBDF7,8,7
215,2,object_02,object_10,478.40000003576,4,1,413.80000001192,0.8888888888888888,2,object_08,5,2790,0,4,8,forest_2,2,memory-2step-stake-s,708,2939082,0.0-19.0-0.1-0.215,A3JGVZEXXELM3C,3SD15I2WE5AO7614M34OSYMJOYM362,3K2755HG5WJLUAU66NI6OXHV2MBDF7,4,3
216,3,object_07,object_03,943.5,6,1,475.70000004768,0.6666666666666666,2,object_08,1,2796,0,5,6,library_1,2,memory-2step-stake-s,709,2947416,0.0-19.0-0.1-0.216,A3JGVZEXXELM3C,3SD15I2WE5AO7614M34OSYMJOYM362,3K2755HG5WJLUAU66NI6OXHV2MBDF7,6,5
217,4,object_01,object_05,1079.5999999642,8,1,425.59999996424,0.7777777777777778,2,object_08,1,2803,0,4,7,restaurant_7,2,memory-2step-stake-s,710,2955770,0.0-19.0-0.1-0.217,A3JGVZEXXELM3C,3SD15I2WE5AO7614M34OSYMJOYM362,3K2755HG5WJLUAU66NI6OXHV2MBDF7,8,7
218,2,object_02,object_10,526.89999997616,4,1,384.09999996424,0.8888888888888888,2,object_08,5,2843,0,6,8,forest_2,2,memory-2step-stake-s,711,2964181,0.0-19.0-0.1-0.218,A3JGVZEXXELM3C,3SD15I2WE5AO7614M34OSYMJOYM362,3K2755HG5WJLUAU66NI6OXHV2MBDF7,4,3
219,2,object_02,object_10,1308.7000000477,4,1,344.30000001192,0.6666666666666666,2,object_08,5,2873,0,5,6,forest_7,2,memory-2step-stake-s,712,2972350,0.0-19.0-0.1-0.219,A3JGVZEXXELM3C,3SD15I2WE5AO7614M34OSYMJOYM362,3K2755HG5WJLUAU66NI6OXHV2MBDF7,4,3
220,1,object_09,object_06,876.40000003576,2,2,392.0,0.5555555555555556,2,object_08,1,2878,0,6,5,desert_3,2,memory-2step-stake-s,713,2980465,0.0-19.0-0.1-0.220,A3JGVZEXXELM3C,3SD15I2WE5AO7614M34OSYMJOYM362,3K2755HG5WJLUAU66NI6OXHV2MBDF7,1,2
221,2,object_02,object_10,569.90000003576,4,1,319.89999997616,0.5555555555555556,2,object_08,5,2903,0,7,5,forest_2,2,memory-2step-stake-s,714,2988508,0.0-19.0-0.1-0.221,A3JGVZEXXELM3C,3SD15I2WE5AO7614M34OSYMJOYM362,3K2755HG5WJLUAU66NI6OXHV2MBDF7,4,3
222,1,object_06,object_09,860.30000001192,2,1,308.89999997616,0.4444444444444444,2,object_08,5,2923,0,8,4,desert_1,2,memory-2step-stake-s,715,2996438,0.0-19.0-0.1-0.222,A3JGVZEXXELM3C,3SD15I2WE5AO7614M34OSYMJOYM362,3K2755HG5WJLUAU66NI6OXHV2MBDF7,2,1
223,1,object_06,object_09,828.60000002384,2,1,233.5,0.4444444444444444,2,object_08,5,2943,0,8,4,desert_3,2,memory-2step-stake-s,716,3004295,0.0-19.0-0.1-0.223,A3JGVZEXXELM3C,3SD15I2WE5AO7614M34OSYMJOYM362,3K2755HG5WJLUAU66NI6OXHV2MBDF7,2,1
224,4,object_01,object_05,822.40000003576,8,1,117.59999996424,0.5555555555555556,2,object_08,1,2948,0,7,5,restaurant_3,2,memory-2step-stake-s,717,3012135,0.0-19.0-0.1-0.224,A3JGVZEXXELM3C,3SD15I2WE5AO7614M34OSYMJOYM362,3K2755HG5WJLUAU66NI6OXHV2MBDF7,8,7
225,3,object_07,object_03,996.19999998808,6,1,242.5,0.7777777777777778,2,object_08,1,2955,0,8,7,library_6,2,memory-2step-stake-s,718,3020303,0.0-19.0-0.1-0.225,A3JGVZEXXELM3C,3SD15I2WE5AO7614M34OSYMJOYM362,3K2755HG5WJLUAU66NI6OXHV2MBDF7,6,5
226,3,object_07,object_03,538.70000004768,6,1,354.19999998808,0.4444444444444444,2,object_08,1,2959,0,7,4,library_1,2,memory-2step-stake-s,719,3028281,0.0-19.0-0.1-0.226,A3JGVZEXXELM3C,3SD15I2WE5AO7614M34OSYMJOYM362,3K2755HG5WJLUAU66NI6OXHV2MBDF7,6,5
227,4,object_05,object_01,1369.1000000238,8,2,617.0,0.5555555555555556,2,object_08,5,2984,0,8,5,restaurant_3,2,memory-2step-stake-s,720,3036622,0.0-19.0-0.1-0.227,A3JGVZEXXELM3C,3SD15I2WE5AO7614M34OSYMJOYM362,3K2755HG5WJLUAU66NI6OXHV2MBDF7,7,8
228,1,object_09,object_06,808.5,2,2,325.20000004768,0.4444444444444444,2,object_08,5,3004,0,5,4,desert_3,2,memory-2step-stake-s,721,3044569,0.0-19.0-0.1-0.228,A3JGVZEXXELM3C,3SD15I2WE5AO7614M34OSYMJOYM362,3K2755HG5WJLUAU66NI6OXHV2MBDF7,1,2
229,1,object_06,object_09,781.40000003576,2,1,476.0,0.6666666666666666,2,object_08,5,3034,0,5,6,desert_6,2,memory-2step-stake-s,722,3052869,0.0-19.0-0.1-0.229,A3JGVZEXXELM3C,3SD15I2WE5AO7614M34OSYMJOYM362,3K2755HG5WJLUAU66NI6OXHV2MBDF7,2,1
230,3,object_07,object_03,835.09999996424,6,1,444.69999998808,0.7777777777777778,2,object_08,1,3041,0,4,7,library_2,2,memory-2step-stake-s,723,3061243,0.0-19.0-0.1-0.230,A3JGVZEXXELM3C,3SD15I2WE5AO7614M34OSYMJOYM362,3K2755HG5WJLUAU66NI6OXHV2MBDF7,6,5
231,1,object_06,object_09,917.5,2,1,382.90000003576,1.0,2,object_08,5,3086,0,6,9,desert_8,2,memory-2step-stake-s,724,3069764,0.0-19.0-0.1-0.231,A3JGVZEXXELM3C,3SD15I2WE5AO7614M34OSYMJOYM362,3K2755HG5WJLUAU66NI6OXHV2MBDF7,2,1
232,1,object_09,object_06,803.19999998808,2,2,289.89999997616,0.8888888888888888,2,object_08,1,3094,0,2,8,desert_8,2,memory-2step-stake-s,725,3078082,0.0-19.0-0.1-0.232,A3JGVZEXXELM3C,3SD15I2WE5AO7614M34OSYMJOYM362,3K2755HG5WJLUAU66NI6OXHV2MBDF7,1,2
233,4,object_05,object_01,1005.1999999881,7,1,255.69999998808,0.3333333333333333,1,object_04,5,3109,0,3,6,restaurant_7,2,memory-2step-stake-s,726,3085861,0.0-19.0-0.1-0.233,A3JGVZEXXELM3C,3SD15I2WE5AO7614M34OSYMJOYM362,3K2755HG5WJLUAU66NI6OXHV2MBDF7,7,8
234,1,object_06,object_09,855.40000003576,2,1,284.69999998808,0.7777777777777778,2,object_08,5,3144,0,2,7,desert_8,2,memory-2step-stake-s,727,3094071,0.0-19.0-0.1-0.234,A3JGVZEXXELM3C,3SD15I2WE5AO7614M34OSYMJOYM362,3K2755HG5WJLUAU66NI6OXHV2MBDF7,2,1
235,1,object_09,object_06,580.59999996424,1,1,418.69999998808,0.4444444444444444,1,object_04,1,3148,0,4,7,desert_6,2,memory-2step-stake-s,728,3102115,0.0-19.0-0.1-0.235,A3JGVZEXXELM3C,3SD15I2WE5AO7614M34OSYMJOYM362,3K2755HG5WJLUAU66NI6OXHV2MBDF7,1,2
236,4,object_01,object_05,778.29999995232,8,1,373.5,0.6666666666666666,2,object_08,1,3154,0,0,6,restaurant_6,2,memory-2step-stake-s,729,3110327,0.0-19.0-0.1-0.236,A3JGVZEXXELM3C,3SD15I2WE5AO7614M34OSYMJOYM362,3K2755HG5WJLUAU66NI6OXHV2MBDF7,8,7
237,2,object_02,object_10,916.09999996424,4,1,313.80000001192,0.7777777777777778,2,object_08,5,3189,0,2,7,forest_7,2,memory-2step-stake-s,730,3118568,0.0-19.0-0.1-0.237,A3JGVZEXXELM3C,3SD15I2WE5AO7614M34OSYMJOYM362,3K2755HG5WJLUAU66NI6OXHV2MBDF7,4,3
238,2,object_02,object_10,510.0,4,1,377.80000001192,0.8888888888888888,2,object_08,5,3229,0,3,8,forest_6,2,memory-2step-stake-s,731,3126983,0.0-19.0-0.1-0.238,A3JGVZEXXELM3C,3SD15I2WE5AO7614M34OSYMJOYM362,3K2755HG5WJLUAU66NI6OXHV2MBDF7,4,3
239,4,object_05,object_01,782.0,8,2,471.0,0.6666666666666666,2,object_08,1,3235,0,2,6,restaurant_1,2,memory-2step-stake-s,732,3135281,0.0-19.0-0.1-0.239,A3JGVZEXXELM3C,3SD15I2WE5AO7614M34OSYMJOYM362,3K2755HG5WJLUAU66NI6OXHV2MBDF7,7,8
240,4,object_05,object_01,856.80000001192,8,2,431.0,0.5555555555555556,2,object_08,1,3240,0,4,5,restaurant_7,2,memory-2step-stake-s,733,3143443,0.0-19.0-0.1-0.240,A3JGVZEXXELM3C,3SD15I2WE5AO7614M34OSYMJOYM362,3K2755HG5WJLUAU66NI6OXHV2MBDF7,7,8
241,1,object_09,object_06,934.10000002384,2,2,603.30000001192,0.5555555555555556,2,object_08,1,3245,0,4,5,desert_8,2,memory-2step-stake-s,734,3151771,0.0-19.0-0.1-0.241,A3JGVZEXXELM3C,3SD15I2WE5AO7614M34OSYMJOYM362,3K2755HG5WJLUAU66NI6OXHV2MBDF7,1,2
242,4,object_05,object_01,827.80000001192,8,2,315.39999997616,0.7777777777777778,2,object_08,5,3280,0,2,7,restaurant_3,2,memory-2step-stake-s,735,3160015,0.0-19.0-0.1-0.242,A3JGVZEXXELM3C,3SD15I2WE5AO7614M34OSYMJOYM362,3K2755HG5WJLUAU66NI6OXHV2MBDF7,7,8
243,3,object_03,object_07,789.10000002384,5,1,358.5,0.2222222222222222,1,object_04,1,3282,0,2,3,library_1,2,memory-2step-stake-s,736,3167798,0.0-19.0-0.1-0.243,A3JGVZEXXELM3C,3SD15I2WE5AO7614M34OSYMJOYM362,3K2755HG5WJLUAU66NI6OXHV2MBDF7,5,6
244,3,object_07,object_03,823.10000002384,6,1,511.69999998808,0.2222222222222222,2,object_08,1,3284,0,5,2,library_6,2,memory-2step-stake-s,737,3175733,0.0-19.0-0.1-0.244,A3JGVZEXXELM3C,3SD15I2WE5AO7614M34OSYMJOYM362,3K2755HG5WJLUAU66NI6OXHV2MBDF7,6,5
245,1,object_09,object_06,949.0,2,2,647.80000001192,0.2222222222222222,2,object_08,5,3294,0,4,2,desert_3,2,memory-2step-stake-s,738,3183806,0.0-19.0-0.1-0.245,A3JGVZEXXELM3C,3SD15I2WE5AO7614M34OSYMJOYM362,3K2755HG5WJLUAU66NI6OXHV2MBDF7,1,2
246,1,object_09,object_06,749.20000004768,1,1,321.59999996424,0.6666666666666666,1,object_04,5,3324,0,6,3,desert_1,2,memory-2step-stake-s,739,3191966,0.0-19.0-0.1-0.246,A3JGVZEXXELM3C,3SD15I2WE5AO7614M34OSYMJOYM362,3K2755HG5WJLUAU66NI6OXHV2MBDF7,1,2
247,3,object_07,object_03,1145.2999999523,5,2,321.60000002384,0.7777777777777778,1,object_04,1,3331,0,7,1,library_2,2,memory-2step-stake-s,740,3200225,0.0-19.0-0.1-0.247,A3JGVZEXXELM3C,3SD15I2WE5AO7614M34OSYMJOYM362,3K2755HG5WJLUAU66NI6OXHV2MBDF7,6,5
248,1,object_06,object_09,975.70000004768,1,2,307.80000001192,1.0,1,object_04,5,3376,0,9,1,desert_6,2,memory-2step-stake-s,741,3208669,0.0-19.0-0.1-0.248,A3JGVZEXXELM3C,3SD15I2WE5AO7614M34OSYMJOYM362,3K2755HG5WJLUAU66NI6OXHV2MBDF7,2,1
249,3,object_07,object_03,538.5,5,2,344.59999996424,0.5555555555555556,1,object_04,1,3381,0,5,0,library_6,2,memory-2step-stake-s,742,3216739,0.0-19.0-0.1-0.249,A3JGVZEXXELM3C,3SD15I2WE5AO7614M34OSYMJOYM362,3K2755HG5WJLUAU66NI6OXHV2MBDF7,6,5
250,2,object_02,object_10,752.29999995232,4,1,336.19999998808,0.1111111111111111,2,object_08,5,3386,0,4,1,forest_6,2,memory-2step-stake-s,743,3224408,0.0-19.0-0.1-0.250,A3JGVZEXXELM3C,3SD15I2WE5AO7614M34OSYMJOYM362,3K2755HG5WJLUAU66NI6OXHV2MBDF7,4,3
251,2,object_02,object_10,519.89999997616,3,2,277.30000001192,0.3333333333333333,1,object_04,5,3401,0,3,1,forest_6,2,memory-2step-stake-s,744,3232212,0.0-19.0-0.1-0.251,A3JGVZEXXELM3C,3SD15I2WE5AO7614M34OSYMJOYM362,3K2755HG5WJLUAU66NI6OXHV2MBDF7,4,3
252,1,object_06,object_09,491.30000001192,1,2,290.69999998808,0.1111111111111111,1,object_04,5,3406,0,1,0,desert_6,2,memory-2step-stake-s,745,3239855,0.0-19.0-0.1-0.252,A3JGVZEXXELM3C,3SD15I2WE5AO7614M34OSYMJOYM362,3K2755HG5WJLUAU66NI6OXHV2MBDF7,2,1
253,4,object_05,object_01,932.0,8,2,400.0,0.3333333333333333,2,object_08,5,3421,0,5,3,restaurant_1,2,memory-2step-stake-s,746,3247790,0.0-19.0-0.1-0.253,A3JGVZEXXELM3C,3SD15I2WE5AO7614M34OSYMJOYM362,3K2755HG5WJLUAU66NI6OXHV2MBDF7,7,8
254,3,object_07,object_03,670.39999997616,5,2,487.39999997616,0.3333333333333333,1,object_04,5,3436,0,3,1,library_2,2,memory-2step-stake-s,747,3255805,0.0-19.0-0.1-0.254,A3JGVZEXXELM3C,3SD15I2WE5AO7614M34OSYMJOYM362,3K2755HG5WJLUAU66NI6OXHV2MBDF7,6,5
255,1,object_06,object_09,832.80000001192,2,1,379.30000001192,0.2222222222222222,2,object_08,5,3446,0,3,2,desert_1,2,memory-2step-stake-s,748,3263614,0.0-19.0-0.1-0.255,A3JGVZEXXELM3C,3SD15I2WE5AO7614M34OSYMJOYM362,3K2755HG5WJLUAU66NI6OXHV2MBDF7,2,1
