,state1,stim_left,stim_right,rt_1,choice1,response1,rt_2,points,state2,stim_state2,stake,score,practice,rews1,rews2,background,high_arm,trial_type,trial_index,time_elapsed,internal_node_id,subid,hitid,assignmentid,stim_left_num,stim_right_num
0,1,object_08,object_02,627.80000001192,2,1,832.80000001192,0.2222222222222222,2,object_03,5,10,0,7,2,desert_8,2,memory-2step-stake-s,490,862870,0.0-19.0-0.0-0.0,A39CG6GXC2ZJXB,371DNNCG57IGA1IMUX7DUPM8OSP8TA,37C0GNLMHJJPBH1V5UF2UR4I9NC6D1,2,1
1,2,object_05,object_09,694.0,4,2,683.0,0.3333333333333333,2,object_03,5,25,0,6,3,forest_5,2,memory-2step-stake-s,491,871181,0.0-19.0-0.0-0.1,A39CG6GXC2ZJXB,371DNNCG57IGA1IMUX7DUPM8OSP8TA,37C0GNLMHJJPBH1V5UF2UR4I9NC6D1,3,4
2,3,object_06,object_07,535.5,6,1,448.69999998808,0.3333333333333333,2,object_03,1,28,0,6,3,library_1,2,memory-2step-stake-s,492,879265,0.0-19.0-0.0-0.2,A39CG6GXC2ZJXB,371DNNCG57IGA1IMUX7DUPM8OSP8TA,37C0GNLMHJJPBH1V5UF2UR4I9NC6D1,6,5
3,4,object_01,object_10,600.69999998808,7,1,471.59999996424,1.0,1,object_04,1,37,0,9,3,restaurant_3,2,memory-2step-stake-s,493,888011,0.0-19.0-0.0-0.3,A39CG6GXC2ZJXB,371DNNCG57IGA1IMUX7DUPM8OSP8TA,37C0GNLMHJJPBH1V5UF2UR4I9NC6D1,7,8
4,2,object_09,object_05,598.30000001192,3,2,665.30000001192,0.7777777777777778,1,object_04,5,72,0,7,0,forest_5,2,memory-2step-stake-s,494,896736,0.0-19.0-0.0-0.4,A39CG6GXC2ZJXB,371DNNCG57IGA1IMUX7DUPM8OSP8TA,37C0GNLMHJJPBH1V5UF2UR4I9NC6D1,4,3
5,1,object_02,object_08,899.69999998808,2,2,649.60000002384,0.1111111111111111,2,object_03,5,77,0,6,1,desert_4,2,memory-2step-stake-s,495,904810,0.0-19.0-0.0-0.5,A39CG6GXC2ZJXB,371DNNCG57IGA1IMUX7DUPM8OSP8TA,37C0GNLMHJJPBH1V5UF2UR4I9NC6D1,1,2
6,1,object_02,object_08,1030.8000000119,1,1,379.60000002384,0.6666666666666666,1,object_04,1,83,0,6,1,desert_7,2,memory-2step-stake-s,496,913138,0.0-19.0-0.0-0.6,A39CG6GXC2ZJXB,371DNNCG57IGA1IMUX7DUPM8OSP8TA,37C0GNLMHJJPBH1V5UF2UR4I9NC6D1,1,2
7,2,object_05,object_09,901.5,4,2,451.89999997616,0.0,2,object_03,5,83,0,7,0,forest_2,2,memory-2step-stake-s,497,920868,0.0-19.0-0.0-0.7,A39CG6GXC2ZJXB,371DNNCG57IGA1IMUX7DUPM8OSP8TA,37C0GNLMHJJPBH1V5UF2UR4I9NC6D1,3,4
8,3,object_07,object_06,1219.5999999642,5,1,384.40000003576,1.0,1,object_04,5,128,0,9,3,library_4,2,memory-2step-stake-s,498,929564,0.0-19.0-0.0-0.8,A39CG6GXC2ZJXB,371DNNCG57IGA1IMUX7DUPM8OSP8TA,37C0GNLMHJJPBH1V5UF2UR4I9NC6D1,5,6
9,3,object_07,object_06,579.5,5,1,468.5,0.8888888888888888,1,object_04,1,136,0,8,4,library_1,2,memory-2step-stake-s,499,938212,0.0-19.0-0.0-0.9,A39CG6GXC2ZJXB,371DNNCG57IGA1IMUX7DUPM8OSP8TA,37C0GNLMHJJPBH1V5UF2UR4I9NC6D1,5,6
10,3,object_06,object_07,774.80000001192,6,1,358.19999998808,0.5555555555555556,2,object_03,1,141,0,6,5,library_7,2,memory-2step-stake-s,500,946463,0.0-19.0-0.0-0.10,A39CG6GXC2ZJXB,371DNNCG57IGA1IMUX7DUPM8OSP8TA,37C0GNLMHJJPBH1V5UF2UR4I9NC6D1,6,5
11,1,object_02,object_08,585.90000003576,1,1,409.09999996424,0.8888888888888888,1,object_04,5,181,0,8,4,desert_8,2,memory-2step-stake-s,501,955028,0.0-19.0-0.0-0.11,A39CG6GXC2ZJXB,371DNNCG57IGA1IMUX7DUPM8OSP8TA,37C0GNLMHJJPBH1V5UF2UR4I9NC6D1,1,2
12,4,object_01,object_10,567.69999998808,8,2,456.40000003576,0.6666666666666666,2,object_03,1,187,0,8,6,restaurant_3,2,memory-2step-stake-s,502,963456,0.0-19.0-0.0-0.12,A39CG6GXC2ZJXB,371DNNCG57IGA1IMUX7DUPM8OSP8TA,37C0GNLMHJJPBH1V5UF2UR4I9NC6D1,7,8
13,3,object_07,object_06,1006.0,5,1,431.0,0.8888888888888888,1,object_04,1,195,0,8,5,library_1,2,memory-2step-stake-s,503,972124,0.0-19.0-0.0-0.13,A39CG6GXC2ZJXB,371DNNCG57IGA1IMUX7DUPM8OSP8TA,37C0GNLMHJJPBH1V5UF2UR4I9NC6D1,5,6
14,2,object_09,object_05,1414.1000000238,3,2,755.89999997616,0.7777777777777778,1,object_04,1,202,0,7,3,forest_7,2,memory-2step-stake-s,504,980937,0.0-19.0-0.0-0.14,A39CG6GXC2ZJXB,371DNNCG57IGA1IMUX7DUPM8OSP8TA,37C0GNLMHJJPBH1V5UF2UR4I9NC6D1,4,3
15,4,object_10,object_01,1051.0999999642,7,2,418.19999998808,0.7777777777777778,1,object_04,1,209,0,7,3,restaurant_7,2,memory-2step-stake-s,505,989404,0.0-19.0-0.0-0.15,A39CG6GXC2ZJXB,371DNNCG57IGA1IMUX7DUPM8OSP8TA,37C0GNLMHJJPBH1V5UF2UR4I9NC6D1,8,7
16,3,object_06,object_07,1087.1999999881,6,1,364.19999998808,0.3333333333333333,2,object_03,1,212,0,5,3,library_1,2,memory-2step-stake-s,506,997379,0.0-19.0-0.0-0.16,A39CG6GXC2ZJXB,371DNNCG57IGA1IMUX7DUPM8OSP8TA,37C0GNLMHJJPBH1V5UF2UR4I9NC6D1,6,5
17,2,object_05,object_09,1078.8000000119,3,1,404.20000004768,0.5555555555555556,1,object_04,5,237,0,5,3,forest_7,2,memory-2step-stake-s,507,1005644,0.0-19.0-0.0-0.17,A39CG6GXC2ZJXB,371DNNCG57IGA1IMUX7DUPM8OSP8TA,37C0GNLMHJJPBH1V5UF2UR4I9NC6D1,3,4
18,3,object_07,object_06,1248.9000000358,6,2,735.19999998808,0.4444444444444444,2,object_03,1,241,0,9,4,library_1,2,memory-2step-stake-s,508,1014109,0.0-19.0-0.0-0.18,A39CG6GXC2ZJXB,371DNNCG57IGA1IMUX7DUPM8OSP8TA,37C0GNLMHJJPBH1V5UF2UR4I9NC6D1,5,6
19,3,object_06,object_07,1133.6999999881,5,2,465.69999998808,0.7777777777777778,1,object_04,1,248,0,7,5,library_7,2,memory-2step-stake-s,509,1022640,0.0-19.0-0.0-0.19,A39CG6GXC2ZJXB,371DNNCG57IGA1IMUX7DUPM8OSP8TA,37C0GNLMHJJPBH1V5UF2UR4I9NC6D1,6,5
20,3,object_07,object_06,1034.5999999642,6,2,524.19999998808,0.7777777777777778,2,object_03,1,255,0,4,7,library_4,2,memory-2step-stake-s,510,1031234,0.0-19.0-0.0-0.20,A39CG6GXC2ZJXB,371DNNCG57IGA1IMUX7DUPM8OSP8TA,37C0GNLMHJJPBH1V5UF2UR4I9NC6D1,5,6
21,4,object_01,object_10,965.10000002384,8,2,372.69999998808,0.8888888888888888,2,object_03,1,263,0,1,8,restaurant_3,2,memory-2step-stake-s,511,1039771,0.0-19.0-0.0-0.21,A39CG6GXC2ZJXB,371DNNCG57IGA1IMUX7DUPM8OSP8TA,37C0GNLMHJJPBH1V5UF2UR4I9NC6D1,7,8
22,3,object_06,object_07,1239.2000000477,6,1,584.69999998808,0.7777777777777778,2,object_03,1,270,0,2,7,library_5,2,memory-2step-stake-s,512,1048403,0.0-19.0-0.0-0.22,A39CG6GXC2ZJXB,371DNNCG57IGA1IMUX7DUPM8OSP8TA,37C0GNLMHJJPBH1V5UF2UR4I9NC6D1,6,5
23,4,object_10,object_01,934.30000001192,8,1,305.5,0.8888888888888888,2,object_03,1,278,0,4,8,restaurant_6,2,memory-2step-stake-s,513,1056911,0.0-19.0-0.0-0.23,A39CG6GXC2ZJXB,371DNNCG57IGA1IMUX7DUPM8OSP8TA,37C0GNLMHJJPBH1V5UF2UR4I9NC6D1,8,7
24,1,object_08,object_02,1056.2000000477,1,2,661.69999998808,0.3333333333333333,1,object_04,1,281,0,3,7,desert_6,2,memory-2step-stake-s,514,1065196,0.0-19.0-0.0-0.24,A39CG6GXC2ZJXB,371DNNCG57IGA1IMUX7DUPM8OSP8TA,37C0GNLMHJJPBH1V5UF2UR4I9NC6D1,2,1
25,2,object_05,object_09,-1.0,-1,-1,-1.0,0.0,-,0,5,281,0,5,5,forest_7,2,memory-2step-stake-s,515,1071764,0.0-19.0-0.0-0.25,A39CG6GXC2ZJXB,371DNNCG57IGA1IMUX7DUPM8OSP8TA,37C0GNLMHJJPBH1V5UF2UR4I9NC6D1,3,4
26,2,object_09,object_05,485.10000002384,3,2,404.10000002384,0.5555555555555556,1,object_04,5,306,0,5,3,forest_8,2,memory-2step-stake-s,516,1080021,0.0-19.0-0.0-0.26,A39CG6GXC2ZJXB,371DNNCG57IGA1IMUX7DUPM8OSP8TA,37C0GNLMHJJPBH1V5UF2UR4I9NC6D1,4,3
27,2,object_09,object_05,727.30000001192,4,1,513.0,0.3333333333333333,2,object_03,5,321,0,6,3,forest_5,2,memory-2step-stake-s,517,1088189,0.0-19.0-0.0-0.27,A39CG6GXC2ZJXB,371DNNCG57IGA1IMUX7DUPM8OSP8TA,37C0GNLMHJJPBH1V5UF2UR4I9NC6D1,4,3
28,3,object_06,object_07,370.10000002384,6,1,514.30000001192,0.3333333333333333,2,object_03,1,324,0,3,3,library_7,2,memory-2step-stake-s,518,1096375,0.0-19.0-0.0-0.28,A39CG6GXC2ZJXB,371DNNCG57IGA1IMUX7DUPM8OSP8TA,37C0GNLMHJJPBH1V5UF2UR4I9NC6D1,6,5
29,4,object_01,object_10,653.19999998808,7,1,417.09999996424,0.6666666666666666,1,object_04,1,330,0,6,1,restaurant_7,2,memory-2step-stake-s,519,1104776,0.0-19.0-0.0-0.29,A39CG6GXC2ZJXB,371DNNCG57IGA1IMUX7DUPM8OSP8TA,37C0GNLMHJJPBH1V5UF2UR4I9NC6D1,7,8
30,3,object_06,object_07,922.19999998808,6,1,434.89999997616,0.2222222222222222,2,object_03,1,332,0,3,2,library_5,2,memory-2step-stake-s,520,1112748,0.0-19.0-0.0-0.30,A39CG6GXC2ZJXB,371DNNCG57IGA1IMUX7DUPM8OSP8TA,37C0GNLMHJJPBH1V5UF2UR4I9NC6D1,6,5
31,2,object_09,object_05,666.0,4,1,427.10000002384,0.2222222222222222,2,object_03,5,342,0,3,2,forest_7,2,memory-2step-stake-s,521,1120706,0.0-19.0-0.0-0.31,A39CG6GXC2ZJXB,371DNNCG57IGA1IMUX7DUPM8OSP8TA,37C0GNLMHJJPBH1V5UF2UR4I9NC6D1,4,3
32,3,object_06,object_07,605.19999998808,5,2,427.79999995232,0.3333333333333333,1,object_04,1,345,0,3,6,library_5,2,memory-2step-stake-s,522,1128776,0.0-19.0-0.0-0.32,A39CG6GXC2ZJXB,371DNNCG57IGA1IMUX7DUPM8OSP8TA,37C0GNLMHJJPBH1V5UF2UR4I9NC6D1,6,5
33,1,object_02,object_08,642.09999996424,1,1,613.10000002384,0.2222222222222222,1,object_04,5,355,0,2,7,desert_8,2,memory-2step-stake-s,523,1136900,0.0-19.0-0.0-0.33,A39CG6GXC2ZJXB,371DNNCG57IGA1IMUX7DUPM8OSP8TA,37C0GNLMHJJPBH1V5UF2UR4I9NC6D1,1,2
34,3,object_06,object_07,655.09999996424,5,2,888.19999998808,0.2222222222222222,1,object_04,1,357,0,2,7,library_7,2,memory-2step-stake-s,524,1145279,0.0-19.0-0.0-0.34,A39CG6GXC2ZJXB,371DNNCG57IGA1IMUX7DUPM8OSP8TA,37C0GNLMHJJPBH1V5UF2UR4I9NC6D1,6,5
35,3,object_07,object_06,803.5,5,1,377.19999998808,0.3333333333333333,1,object_04,1,360,0,3,8,library_4,2,memory-2step-stake-s,525,1153280,0.0-19.0-0.0-0.35,A39CG6GXC2ZJXB,371DNNCG57IGA1IMUX7DUPM8OSP8TA,37C0GNLMHJJPBH1V5UF2UR4I9NC6D1,5,6
36,1,object_02,object_08,795.90000003576,2,2,449.70000004768,1.0,2,object_03,1,369,0,3,9,desert_6,2,memory-2step-stake-s,526,1161979,0.0-19.0-0.0-0.36,A39CG6GXC2ZJXB,371DNNCG57IGA1IMUX7DUPM8OSP8TA,37C0GNLMHJJPBH1V5UF2UR4I9NC6D1,1,2
37,4,object_01,object_10,-1.0,-1,-1,-1.0,0.0,-,0,1,369,0,4,8,restaurant_5,2,memory-2step-stake-s,527,1168543,0.0-19.0-0.0-0.37,A39CG6GXC2ZJXB,371DNNCG57IGA1IMUX7DUPM8OSP8TA,37C0GNLMHJJPBH1V5UF2UR4I9NC6D1,7,8
38,1,object_02,object_08,344.0,1,1,491.60000002384,0.6666666666666666,1,object_04,1,375,0,6,7,desert_6,2,memory-2step-stake-s,528,1176975,0.0-19.0-0.0-0.38,A39CG6GXC2ZJXB,371DNNCG57IGA1IMUX7DUPM8OSP8TA,37C0GNLMHJJPBH1V5UF2UR4I9NC6D1,1,2
39,1,object_08,object_02,582.5,2,1,351.0,1.0,2,object_03,5,420,0,2,9,desert_8,2,memory-2step-stake-s,529,1185571,0.0-19.0-0.0-0.39,A39CG6GXC2ZJXB,371DNNCG57IGA1IMUX7DUPM8OSP8TA,37C0GNLMHJJPBH1V5UF2UR4I9NC6D1,2,1
40,1,object_02,object_08,461.09999996424,1,1,332.90000003576,0.2222222222222222,1,object_04,5,430,0,2,8,desert_7,2,memory-2step-stake-s,530,1193403,0.0-19.0-0.0-0.40,A39CG6GXC2ZJXB,371DNNCG57IGA1IMUX7DUPM8OSP8TA,37C0GNLMHJJPBH1V5UF2UR4I9NC6D1,1,2
41,1,object_08,object_02,630.20000004768,2,1,373.70000004768,0.8888888888888888,2,object_03,1,438,0,4,8,desert_7,2,memory-2step-stake-s,531,1201942,0.0-19.0-0.0-0.41,A39CG6GXC2ZJXB,371DNNCG57IGA1IMUX7DUPM8OSP8TA,37C0GNLMHJJPBH1V5UF2UR4I9NC6D1,2,1
42,1,object_02,object_08,612.90000003576,2,2,332.40000003576,0.6666666666666666,2,object_03,5,468,0,3,6,desert_4,2,memory-2step-stake-s,532,1210204,0.0-19.0-0.0-0.42,A39CG6GXC2ZJXB,371DNNCG57IGA1IMUX7DUPM8OSP8TA,37C0GNLMHJJPBH1V5UF2UR4I9NC6D1,1,2
43,3,object_07,object_06,609.0,5,1,573.19999998808,0.3333333333333333,1,object_04,5,483,0,3,4,library_5,2,memory-2step-stake-s,533,1218407,0.0-19.0-0.0-0.43,A39CG6GXC2ZJXB,371DNNCG57IGA1IMUX7DUPM8OSP8TA,37C0GNLMHJJPBH1V5UF2UR4I9NC6D1,5,6
44,4,object_01,object_10,361.19999998808,7,1,350.10000002384,0.2222222222222222,1,object_04,1,485,0,2,6,restaurant_5,2,memory-2step-stake-s,534,1226245,0.0-19.0-0.0-0.44,A39CG6GXC2ZJXB,371DNNCG57IGA1IMUX7DUPM8OSP8TA,37C0GNLMHJJPBH1V5UF2UR4I9NC6D1,7,8
45,3,object_06,object_07,611.40000003576,5,2,359.0,0.3333333333333333,1,object_04,1,488,0,3,7,library_5,2,memory-2step-stake-s,535,1234204,0.0-19.0-0.0-0.45,A39CG6GXC2ZJXB,371DNNCG57IGA1IMUX7DUPM8OSP8TA,37C0GNLMHJJPBH1V5UF2UR4I9NC6D1,6,5
46,4,object_01,object_10,419.0,7,1,393.0,0.2222222222222222,1,object_04,1,490,0,2,6,restaurant_6,2,memory-2step-stake-s,536,1242092,0.0-19.0-0.0-0.46,A39CG6GXC2ZJXB,371DNNCG57IGA1IMUX7DUPM8OSP8TA,37C0GNLMHJJPBH1V5UF2UR4I9NC6D1,7,8
47,3,object_06,object_07,716.19999998808,6,1,286.0,0.7777777777777778,2,object_03,1,497,0,2,7,library_4,2,memory-2step-stake-s,537,1250445,0.0-19.0-0.0-0.47,A39CG6GXC2ZJXB,371DNNCG57IGA1IMUX7DUPM8OSP8TA,37C0GNLMHJJPBH1V5UF2UR4I9NC6D1,6,5
48,3,object_07,object_06,516.70000004768,6,2,326.5,0.6666666666666666,2,object_03,1,503,0,3,6,library_4,2,memory-2step-stake-s,538,1258745,0.0-19.0-0.0-0.48,A39CG6GXC2ZJXB,371DNNCG57IGA1IMUX7DUPM8OSP8TA,37C0GNLMHJJPBH1V5UF2UR4I9NC6D1,5,6
49,2,object_05,object_09,390.39999997616,3,1,374.60000002384,0.3333333333333333,1,object_04,1,506,0,3,6,forest_5,2,memory-2step-stake-s,539,1266770,0.0-19.0-0.0-0.49,A39CG6GXC2ZJXB,371DNNCG57IGA1IMUX7DUPM8OSP8TA,37C0GNLMHJJPBH1V5UF2UR4I9NC6D1,3,4
50,3,object_07,object_06,547.10000002384,5,1,366.10000002384,0.2222222222222222,1,object_04,1,508,0,2,6,library_7,2,memory-2step-stake-s,540,1274661,0.0-19.0-0.0-0.50,A39CG6GXC2ZJXB,371DNNCG57IGA1IMUX7DUPM8OSP8TA,37C0GNLMHJJPBH1V5UF2UR4I9NC6D1,5,6
51,3,object_06,object_07,642.0,5,2,426.59999996424,0.2222222222222222,1,object_04,1,510,0,2,3,library_4,2,memory-2step-stake-s,541,1282581,0.0-19.0-0.0-0.51,A39CG6GXC2ZJXB,371DNNCG57IGA1IMUX7DUPM8OSP8TA,37C0GNLMHJJPBH1V5UF2UR4I9NC6D1,6,5
52,2,object_05,object_09,526.29999995232,4,2,324.69999998808,0.2222222222222222,2,object_03,5,520,0,2,2,forest_2,2,memory-2step-stake-s,542,1290415,0.0-19.0-0.0-0.52,A39CG6GXC2ZJXB,371DNNCG57IGA1IMUX7DUPM8OSP8TA,37C0GNLMHJJPBH1V5UF2UR4I9NC6D1,3,4
53,4,object_01,object_10,784.69999998808,7,1,361.80000001192,0.1111111111111111,1,object_04,1,521,0,1,2,restaurant_6,2,memory-2step-stake-s,543,1298187,0.0-19.0-0.0-0.53,A39CG6GXC2ZJXB,371DNNCG57IGA1IMUX7DUPM8OSP8TA,37C0GNLMHJJPBH1V5UF2UR4I9NC6D1,7,8
54,3,object_07,object_06,829.19999998808,6,2,299.70000004768,0.2222222222222222,2,object_03,1,523,0,1,2,library_7,2,memory-2step-stake-s,544,1305997,0.0-19.0-0.0-0.54,A39CG6GXC2ZJXB,371DNNCG57IGA1IMUX7DUPM8OSP8TA,37C0GNLMHJJPBH1V5UF2UR4I9NC6D1,5,6
55,2,object_05,object_09,542.19999998808,3,1,322.09999996424,0.4444444444444444,1,object_04,5,543,0,4,3,forest_7,2,memory-2step-stake-s,545,1314042,0.0-19.0-0.0-0.55,A39CG6GXC2ZJXB,371DNNCG57IGA1IMUX7DUPM8OSP8TA,37C0GNLMHJJPBH1V5UF2UR4I9NC6D1,3,4
56,2,object_05,object_09,582.89999997616,4,2,395.0,0.3333333333333333,2,object_03,5,558,0,4,3,forest_8,2,memory-2step-stake-s,546,1322055,0.0-19.0-0.0-0.56,A39CG6GXC2ZJXB,371DNNCG57IGA1IMUX7DUPM8OSP8TA,37C0GNLMHJJPBH1V5UF2UR4I9NC6D1,3,4
57,2,object_09,object_05,997.19999998808,3,2,317.30000001192,0.5555555555555556,1,object_04,5,583,0,5,0,forest_5,2,memory-2step-stake-s,547,1330189,0.0-19.0-0.0-0.57,A39CG6GXC2ZJXB,371DNNCG57IGA1IMUX7DUPM8OSP8TA,37C0GNLMHJJPBH1V5UF2UR4I9NC6D1,4,3
58,4,object_10,object_01,682.30000001192,8,1,347.80000001192,0.4444444444444444,2,object_03,1,587,0,1,4,restaurant_7,2,memory-2step-stake-s,548,1338283,0.0-19.0-0.0-0.58,A39CG6GXC2ZJXB,371DNNCG57IGA1IMUX7DUPM8OSP8TA,37C0GNLMHJJPBH1V5UF2UR4I9NC6D1,8,7
59,2,object_09,object_05,641.39999997616,3,2,416.69999998808,0.1111111111111111,1,object_04,5,592,0,1,5,forest_2,2,memory-2step-stake-s,549,1346087,0.0-19.0-0.0-0.59,A39CG6GXC2ZJXB,371DNNCG57IGA1IMUX7DUPM8OSP8TA,37C0GNLMHJJPBH1V5UF2UR4I9NC6D1,4,3
60,4,object_10,object_01,420.60000002384,8,1,343.09999996424,0.6666666666666666,2,object_03,1,598,0,2,6,restaurant_3,2,memory-2step-stake-s,550,1354365,0.0-19.0-0.0-0.60,A39CG6GXC2ZJXB,371DNNCG57IGA1IMUX7DUPM8OSP8TA,37C0GNLMHJJPBH1V5UF2UR4I9NC6D1,8,7
61,4,object_01,object_10,631.19999998808,8,2,397.29999995232,0.5555555555555556,2,object_03,5,623,0,0,5,restaurant_3,2,memory-2step-stake-s,551,1362579,0.0-19.0-0.0-0.61,A39CG6GXC2ZJXB,371DNNCG57IGA1IMUX7DUPM8OSP8TA,37C0GNLMHJJPBH1V5UF2UR4I9NC6D1,7,8
62,2,object_05,object_09,411.69999998808,3,1,501.09999996424,0.0,1,object_04,5,623,0,0,5,forest_2,2,memory-2step-stake-s,552,1370382,0.0-19.0-0.0-0.62,A39CG6GXC2ZJXB,371DNNCG57IGA1IMUX7DUPM8OSP8TA,37C0GNLMHJJPBH1V5UF2UR4I9NC6D1,3,4
63,4,object_01,object_10,508.80000001192,8,2,277.5,0.6666666666666666,2,object_03,1,629,0,4,6,restaurant_5,2,memory-2step-stake-s,553,1378613,0.0-19.0-0.0-0.63,A39CG6GXC2ZJXB,371DNNCG57IGA1IMUX7DUPM8OSP8TA,37C0GNLMHJJPBH1V5UF2UR4I9NC6D1,7,8
64,1,object_02,object_08,412.40000003576,1,1,354.19999998808,0.3333333333333333,1,object_04,5,644,0,3,8,desert_8,2,memory-2step-stake-s,554,1386553,0.0-19.0-0.0-0.64,A39CG6GXC2ZJXB,371DNNCG57IGA1IMUX7DUPM8OSP8TA,37C0GNLMHJJPBH1V5UF2UR4I9NC6D1,1,2
65,4,object_10,object_01,457.0,7,2,466.30000001192,0.2222222222222222,1,object_04,1,646,0,2,9,restaurant_5,2,memory-2step-stake-s,555,1394520,0.0-19.0-0.0-0.65,A39CG6GXC2ZJXB,371DNNCG57IGA1IMUX7DUPM8OSP8TA,37C0GNLMHJJPBH1V5UF2UR4I9NC6D1,8,7
66,4,object_01,object_10,752.80000001192,7,1,305.60000002384,0.1111111111111111,1,object_04,5,651,0,1,5,restaurant_6,2,memory-2step-stake-s,556,1402209,0.0-19.0-0.0-0.66,A39CG6GXC2ZJXB,371DNNCG57IGA1IMUX7DUPM8OSP8TA,37C0GNLMHJJPBH1V5UF2UR4I9NC6D1,7,8
67,4,object_01,object_10,513.20000004768,8,2,423.5,0.7777777777777778,2,object_03,1,658,0,1,7,restaurant_7,2,memory-2step-stake-s,557,1410682,0.0-19.0-0.0-0.67,A39CG6GXC2ZJXB,371DNNCG57IGA1IMUX7DUPM8OSP8TA,37C0GNLMHJJPBH1V5UF2UR4I9NC6D1,7,8
68,1,object_08,object_02,402.90000003576,2,1,387.10000002384,0.6666666666666666,2,object_03,1,664,0,1,6,desert_7,2,memory-2step-stake-s,558,1419020,0.0-19.0-0.0-0.68,A39CG6GXC2ZJXB,371DNNCG57IGA1IMUX7DUPM8OSP8TA,37C0GNLMHJJPBH1V5UF2UR4I9NC6D1,2,1
69,2,object_09,object_05,740.40000003576,4,1,427.0,0.5555555555555556,2,object_03,5,689,0,1,5,forest_5,2,memory-2step-stake-s,559,1427241,0.0-19.0-0.0-0.69,A39CG6GXC2ZJXB,371DNNCG57IGA1IMUX7DUPM8OSP8TA,37C0GNLMHJJPBH1V5UF2UR4I9NC6D1,4,3
70,2,object_05,object_09,466.29999995232,3,1,318.60000002384,0.1111111111111111,1,object_04,1,690,0,1,7,forest_2,2,memory-2step-stake-s,560,1434974,0.0-19.0-0.0-0.70,A39CG6GXC2ZJXB,371DNNCG57IGA1IMUX7DUPM8OSP8TA,37C0GNLMHJJPBH1V5UF2UR4I9NC6D1,3,4
71,4,object_01,object_10,753.30000001192,8,2,439.19999998808,0.7777777777777778,2,object_03,1,697,0,0,7,restaurant_6,2,memory-2step-stake-s,561,1443453,0.0-19.0-0.0-0.71,A39CG6GXC2ZJXB,371DNNCG57IGA1IMUX7DUPM8OSP8TA,37C0GNLMHJJPBH1V5UF2UR4I9NC6D1,7,8
72,2,object_05,object_09,502.79999995232,3,1,324.0,0.1111111111111111,1,object_04,5,702,0,1,3,forest_2,2,memory-2step-stake-s,562,1451189,0.0-19.0-0.0-0.72,A39CG6GXC2ZJXB,371DNNCG57IGA1IMUX7DUPM8OSP8TA,37C0GNLMHJJPBH1V5UF2UR4I9NC6D1,3,4
73,2,object_09,object_05,717.90000003576,4,1,339.79999995232,0.0,2,object_03,5,702,0,0,0,forest_5,2,memory-2step-stake-s,563,1458806,0.0-19.0-0.0-0.73,A39CG6GXC2ZJXB,371DNNCG57IGA1IMUX7DUPM8OSP8TA,37C0GNLMHJJPBH1V5UF2UR4I9NC6D1,4,3
74,4,object_01,object_10,449.30000001192,8,2,260.09999996424,0.2222222222222222,2,object_03,1,704,0,2,2,restaurant_3,2,memory-2step-stake-s,564,1466599,0.0-19.0-0.0-0.74,A39CG6GXC2ZJXB,371DNNCG57IGA1IMUX7DUPM8OSP8TA,37C0GNLMHJJPBH1V5UF2UR4I9NC6D1,7,8
75,3,object_07,object_06,306.89999997616,5,1,286.69999998808,0.2222222222222222,1,object_04,1,706,0,2,2,library_5,2,memory-2step-stake-s,565,1474385,0.0-19.0-0.0-0.75,A39CG6GXC2ZJXB,371DNNCG57IGA1IMUX7DUPM8OSP8TA,37C0GNLMHJJPBH1V5UF2UR4I9NC6D1,5,6
76,4,object_10,object_01,680.80000001192,7,2,440.10000002384,0.4444444444444444,1,object_04,5,726,0,4,5,restaurant_6,2,memory-2step-stake-s,566,1482566,0.0-19.0-0.0-0.76,A39CG6GXC2ZJXB,371DNNCG57IGA1IMUX7DUPM8OSP8TA,37C0GNLMHJJPBH1V5UF2UR4I9NC6D1,8,7
77,2,object_05,object_09,513.39999997616,3,1,564.89999997616,0.5555555555555556,1,object_04,5,751,0,5,8,forest_5,2,memory-2step-stake-s,567,1491010,0.0-19.0-0.0-0.77,A39CG6GXC2ZJXB,371DNNCG57IGA1IMUX7DUPM8OSP8TA,37C0GNLMHJJPBH1V5UF2UR4I9NC6D1,3,4
78,3,object_06,object_07,621.30000001192,6,1,396.19999998808,0.8888888888888888,2,object_03,1,759,0,5,8,library_5,2,memory-2step-stake-s,568,1499607,0.0-19.0-0.0-0.78,A39CG6GXC2ZJXB,371DNNCG57IGA1IMUX7DUPM8OSP8TA,37C0GNLMHJJPBH1V5UF2UR4I9NC6D1,6,5
79,2,object_05,object_09,494.80000001192,3,1,455.5,0.6666666666666666,1,object_04,1,765,0,6,9,forest_2,2,memory-2step-stake-s,569,1508026,0.0-19.0-0.0-0.79,A39CG6GXC2ZJXB,371DNNCG57IGA1IMUX7DUPM8OSP8TA,37C0GNLMHJJPBH1V5UF2UR4I9NC6D1,3,4
80,1,object_08,object_02,289.30000001192,1,2,349.40000003576,0.5555555555555556,1,object_04,5,790,0,5,9,desert_8,2,memory-2step-stake-s,570,1516253,0.0-19.0-0.0-0.80,A39CG6GXC2ZJXB,371DNNCG57IGA1IMUX7DUPM8OSP8TA,37C0GNLMHJJPBH1V5UF2UR4I9NC6D1,2,1
81,3,object_07,object_06,674.60000002384,5,1,348.70000004768,0.2222222222222222,1,object_04,1,792,0,2,7,library_1,2,memory-2step-stake-s,571,1524101,0.0-19.0-0.0-0.81,A39CG6GXC2ZJXB,371DNNCG57IGA1IMUX7DUPM8OSP8TA,37C0GNLMHJJPBH1V5UF2UR4I9NC6D1,5,6
82,4,object_10,object_01,883.69999998808,7,2,253.0,0.1111111111111111,1,object_04,1,793,0,1,6,restaurant_5,2,memory-2step-stake-s,572,1531752,0.0-19.0-0.0-0.82,A39CG6GXC2ZJXB,371DNNCG57IGA1IMUX7DUPM8OSP8TA,37C0GNLMHJJPBH1V5UF2UR4I9NC6D1,8,7
83,4,object_10,object_01,645.30000001192,8,1,284.30000001192,1.0,2,object_03,1,802,0,2,9,restaurant_6,2,memory-2step-stake-s,573,1540321,0.0-19.0-0.0-0.83,A39CG6GXC2ZJXB,371DNNCG57IGA1IMUX7DUPM8OSP8TA,37C0GNLMHJJPBH1V5UF2UR4I9NC6D1,8,7
84,4,object_01,object_10,522.30000001192,7,1,328.30000001192,0.2222222222222222,1,object_04,1,804,0,2,6,restaurant_7,2,memory-2step-stake-s,574,1548165,0.0-19.0-0.0-0.84,A39CG6GXC2ZJXB,371DNNCG57IGA1IMUX7DUPM8OSP8TA,37C0GNLMHJJPBH1V5UF2UR4I9NC6D1,7,8
85,3,object_07,object_06,697.80000001192,6,2,266.80000001192,0.7777777777777778,2,object_03,1,811,0,1,7,library_4,2,memory-2step-stake-s,575,1556497,0.0-19.0-0.0-0.85,A39CG6GXC2ZJXB,371DNNCG57IGA1IMUX7DUPM8OSP8TA,37C0GNLMHJJPBH1V5UF2UR4I9NC6D1,5,6
86,2,object_09,object_05,617.09999996424,4,1,306.20000004768,0.7777777777777778,2,object_03,5,846,0,2,7,forest_8,2,memory-2step-stake-s,576,1564882,0.0-19.0-0.0-0.86,A39CG6GXC2ZJXB,371DNNCG57IGA1IMUX7DUPM8OSP8TA,37C0GNLMHJJPBH1V5UF2UR4I9NC6D1,4,3
87,2,object_09,object_05,879.30000001192,4,1,334.19999998808,0.5555555555555556,2,object_03,5,871,0,3,5,forest_2,2,memory-2step-stake-s,577,1573061,0.0-19.0-0.0-0.87,A39CG6GXC2ZJXB,371DNNCG57IGA1IMUX7DUPM8OSP8TA,37C0GNLMHJJPBH1V5UF2UR4I9NC6D1,4,3
88,4,object_10,object_01,1180.3000000119,7,2,292.40000003576,0.1111111111111111,1,object_04,5,876,0,1,6,restaurant_7,2,memory-2step-stake-s,578,1580739,0.0-19.0-0.0-0.88,A39CG6GXC2ZJXB,371DNNCG57IGA1IMUX7DUPM8OSP8TA,37C0GNLMHJJPBH1V5UF2UR4I9NC6D1,8,7
89,1,object_02,object_08,264.39999997616,1,1,364.20000004768,0.1111111111111111,1,object_04,5,881,0,1,7,desert_4,2,memory-2step-stake-s,579,1588489,0.0-19.0-0.0-0.89,A39CG6GXC2ZJXB,371DNNCG57IGA1IMUX7DUPM8OSP8TA,37C0GNLMHJJPBH1V5UF2UR4I9NC6D1,1,2
90,2,object_05,object_09,467.39999997616,4,2,376.19999998808,0.7777777777777778,2,object_03,1,888,0,0,7,forest_8,2,memory-2step-stake-s,580,1596920,0.0-19.0-0.0-0.90,A39CG6GXC2ZJXB,371DNNCG57IGA1IMUX7DUPM8OSP8TA,37C0GNLMHJJPBH1V5UF2UR4I9NC6D1,3,4
91,4,object_01,object_10,880.90000003576,8,2,338.60000002384,0.6666666666666666,2,object_03,5,918,0,1,6,restaurant_3,2,memory-2step-stake-s,581,1605229,0.0-19.0-0.0-0.91,A39CG6GXC2ZJXB,371DNNCG57IGA1IMUX7DUPM8OSP8TA,37C0GNLMHJJPBH1V5UF2UR4I9NC6D1,7,8
92,1,object_02,object_08,680.30000001192,2,2,337.89999997616,0.7777777777777778,2,object_03,5,953,0,2,7,desert_6,2,memory-2step-stake-s,582,1613617,0.0-19.0-0.0-0.92,A39CG6GXC2ZJXB,371DNNCG57IGA1IMUX7DUPM8OSP8TA,37C0GNLMHJJPBH1V5UF2UR4I9NC6D1,1,2
93,1,object_08,object_02,954.29999995232,2,1,469.09999996424,0.7777777777777778,2,object_03,5,988,0,3,7,desert_8,2,memory-2step-stake-s,583,1622153,0.0-19.0-0.0-0.93,A39CG6GXC2ZJXB,371DNNCG57IGA1IMUX7DUPM8OSP8TA,37C0GNLMHJJPBH1V5UF2UR4I9NC6D1,2,1
94,1,object_08,object_02,682.10000002384,1,2,354.90000003576,0.4444444444444444,1,object_04,5,1008,0,4,7,desert_8,2,memory-2step-stake-s,584,1630224,0.0-19.0-0.0-0.94,A39CG6GXC2ZJXB,371DNNCG57IGA1IMUX7DUPM8OSP8TA,37C0GNLMHJJPBH1V5UF2UR4I9NC6D1,2,1
95,2,object_09,object_05,800.89999997616,4,1,354.70000004768,0.8888888888888888,2,object_03,1,1016,0,8,8,forest_8,2,memory-2step-stake-s,585,1638742,0.0-19.0-0.0-0.95,A39CG6GXC2ZJXB,371DNNCG57IGA1IMUX7DUPM8OSP8TA,37C0GNLMHJJPBH1V5UF2UR4I9NC6D1,4,3
96,3,object_06,object_07,851.0,6,1,428.0,1.0,2,object_03,5,1061,0,9,9,library_7,2,memory-2step-stake-s,586,1647454,0.0-19.0-0.0-0.96,A39CG6GXC2ZJXB,371DNNCG57IGA1IMUX7DUPM8OSP8TA,37C0GNLMHJJPBH1V5UF2UR4I9NC6D1,6,5
97,1,object_02,object_08,696.0,2,2,347.89999997616,0.8888888888888888,2,object_03,5,1101,0,9,8,desert_6,2,memory-2step-stake-s,587,1655973,0.0-19.0-0.0-0.97,A39CG6GXC2ZJXB,371DNNCG57IGA1IMUX7DUPM8OSP8TA,37C0GNLMHJJPBH1V5UF2UR4I9NC6D1,1,2
98,3,object_06,object_07,654.60000002384,6,1,368.39999997616,0.7777777777777778,2,object_03,1,1108,0,9,7,library_1,2,memory-2step-stake-s,588,1664400,0.0-19.0-0.0-0.98,A39CG6GXC2ZJXB,371DNNCG57IGA1IMUX7DUPM8OSP8TA,37C0GNLMHJJPBH1V5UF2UR4I9NC6D1,6,5
99,1,object_02,object_08,549.30000001192,2,2,342.10000002384,1.0,2,object_03,5,1153,0,8,9,desert_8,2,memory-2step-stake-s,589,1673050,0.0-19.0-0.0-0.99,A39CG6GXC2ZJXB,371DNNCG57IGA1IMUX7DUPM8OSP8TA,37C0GNLMHJJPBH1V5UF2UR4I9NC6D1,1,2
100,4,object_10,object_01,1088.7999999523,8,1,363.69999998808,1.0,2,object_03,5,1198,0,6,9,restaurant_5,2,memory-2step-stake-s,590,1681713,0.0-19.0-0.0-0.100,A39CG6GXC2ZJXB,371DNNCG57IGA1IMUX7DUPM8OSP8TA,37C0GNLMHJJPBH1V5UF2UR4I9NC6D1,8,7
101,1,object_02,object_08,876.60000002384,2,2,259.90000003576,0.8888888888888888,2,object_03,5,1238,0,6,8,desert_4,2,memory-2step-stake-s,591,1690140,0.0-19.0-0.0-0.101,A39CG6GXC2ZJXB,371DNNCG57IGA1IMUX7DUPM8OSP8TA,37C0GNLMHJJPBH1V5UF2UR4I9NC6D1,1,2
102,1,object_08,object_02,641.60000002384,2,1,216.20000004768,0.8888888888888888,2,object_03,5,1278,0,2,8,desert_4,2,memory-2step-stake-s,592,1698547,0.0-19.0-0.0-0.102,A39CG6GXC2ZJXB,371DNNCG57IGA1IMUX7DUPM8OSP8TA,37C0GNLMHJJPBH1V5UF2UR4I9NC6D1,2,1
103,4,object_10,object_01,1153.8000000119,8,1,403.69999998808,0.8888888888888888,2,object_03,5,1318,0,1,8,restaurant_5,2,memory-2step-stake-s,593,1707132,0.0-19.0-0.0-0.103,A39CG6GXC2ZJXB,371DNNCG57IGA1IMUX7DUPM8OSP8TA,37C0GNLMHJJPBH1V5UF2UR4I9NC6D1,8,7
104,2,object_05,object_09,823.39999997616,4,2,323.10000002384,0.6666666666666666,2,object_03,5,1348,0,0,6,forest_7,2,memory-2step-stake-s,594,1715388,0.0-19.0-0.0-0.104,A39CG6GXC2ZJXB,371DNNCG57IGA1IMUX7DUPM8OSP8TA,37C0GNLMHJJPBH1V5UF2UR4I9NC6D1,3,4
105,4,object_10,object_01,1006.2000000477,7,2,393.40000003576,0.1111111111111111,1,object_04,1,1349,0,1,5,restaurant_7,2,memory-2step-stake-s,595,1723190,0.0-19.0-0.0-0.105,A39CG6GXC2ZJXB,371DNNCG57IGA1IMUX7DUPM8OSP8TA,37C0GNLMHJJPBH1V5UF2UR4I9NC6D1,8,7
106,1,object_08,object_02,626.80000001192,2,1,277.19999998808,0.4444444444444444,2,object_03,5,1369,0,0,4,desert_4,2,memory-2step-stake-s,596,1731230,0.0-19.0-0.0-0.106,A39CG6GXC2ZJXB,371DNNCG57IGA1IMUX7DUPM8OSP8TA,37C0GNLMHJJPBH1V5UF2UR4I9NC6D1,2,1
107,2,object_09,object_05,672.19999998808,4,1,424.5,0.3333333333333333,2,object_03,5,1384,0,0,3,forest_2,2,memory-2step-stake-s,597,1739287,0.0-19.0-0.0-0.107,A39CG6GXC2ZJXB,371DNNCG57IGA1IMUX7DUPM8OSP8TA,37C0GNLMHJJPBH1V5UF2UR4I9NC6D1,4,3
108,4,object_01,object_10,736.40000003576,7,1,187.5,0.2222222222222222,1,object_04,1,1386,0,2,3,restaurant_5,2,memory-2step-stake-s,598,1746975,0.0-19.0-0.0-0.108,A39CG6GXC2ZJXB,371DNNCG57IGA1IMUX7DUPM8OSP8TA,37C0GNLMHJJPBH1V5UF2UR4I9NC6D1,7,8
109,4,object_01,object_10,691.80000001192,7,1,424.90000003576,0.2222222222222222,1,object_04,1,1388,0,2,5,restaurant_5,2,memory-2step-stake-s,599,1754915,0.0-19.0-0.0-0.109,A39CG6GXC2ZJXB,371DNNCG57IGA1IMUX7DUPM8OSP8TA,37C0GNLMHJJPBH1V5UF2UR4I9NC6D1,7,8
110,3,object_07,object_06,458.90000003576,6,2,405.69999998808,0.4444444444444444,2,object_03,1,1392,0,1,4,library_5,2,memory-2step-stake-s,600,1763082,0.0-19.0-0.0-0.110,A39CG6GXC2ZJXB,371DNNCG57IGA1IMUX7DUPM8OSP8TA,37C0GNLMHJJPBH1V5UF2UR4I9NC6D1,5,6
111,3,object_06,object_07,416.29999995232,5,2,29.700000047684,0.0,1,object_04,1,1392,0,0,2,library_7,2,memory-2step-stake-s,601,1770413,0.0-19.0-0.0-0.111,A39CG6GXC2ZJXB,371DNNCG57IGA1IMUX7DUPM8OSP8TA,37C0GNLMHJJPBH1V5UF2UR4I9NC6D1,6,5
112,1,object_08,object_02,658.80000001192,1,2,294.90000003576,0.0,1,object_04,5,1392,0,0,5,desert_7,2,memory-2step-stake-s,602,1777995,0.0-19.0-0.0-0.112,A39CG6GXC2ZJXB,371DNNCG57IGA1IMUX7DUPM8OSP8TA,37C0GNLMHJJPBH1V5UF2UR4I9NC6D1,2,1
113,2,object_09,object_05,623.0,4,1,252.0,0.8888888888888888,2,object_03,5,1432,0,2,8,forest_5,2,memory-2step-stake-s,603,1786445,0.0-19.0-0.0-0.113,A39CG6GXC2ZJXB,371DNNCG57IGA1IMUX7DUPM8OSP8TA,37C0GNLMHJJPBH1V5UF2UR4I9NC6D1,4,3
114,1,object_02,object_08,708.30000001192,2,2,267.20000004768,0.8888888888888888,2,object_03,1,1440,0,3,8,desert_4,2,memory-2step-stake-s,604,1794907,0.0-19.0-0.0-0.114,A39CG6GXC2ZJXB,371DNNCG57IGA1IMUX7DUPM8OSP8TA,37C0GNLMHJJPBH1V5UF2UR4I9NC6D1,1,2
115,1,object_08,object_02,861.69999998808,2,1,305.5,0.7777777777777778,2,object_03,5,1475,0,1,7,desert_6,2,memory-2step-stake-s,605,1803259,0.0-19.0-0.0-0.115,A39CG6GXC2ZJXB,371DNNCG57IGA1IMUX7DUPM8OSP8TA,37C0GNLMHJJPBH1V5UF2UR4I9NC6D1,2,1
116,4,object_01,object_10,860.39999997616,7,1,366.19999998808,0.3333333333333333,1,object_04,1,1478,0,3,8,restaurant_7,2,memory-2step-stake-s,606,1811262,0.0-19.0-0.0-0.116,A39CG6GXC2ZJXB,371DNNCG57IGA1IMUX7DUPM8OSP8TA,37C0GNLMHJJPBH1V5UF2UR4I9NC6D1,7,8
117,2,object_05,object_09,682.10000002384,4,2,303.59999996424,0.8888888888888888,2,object_03,1,1486,0,0,8,forest_2,2,memory-2step-stake-s,607,1819774,0.0-19.0-0.0-0.117,A39CG6GXC2ZJXB,371DNNCG57IGA1IMUX7DUPM8OSP8TA,37C0GNLMHJJPBH1V5UF2UR4I9NC6D1,3,4
118,2,object_05,object_09,588.5,4,2,257.19999998808,0.7777777777777778,2,object_03,5,1521,0,2,7,forest_8,2,memory-2step-stake-s,608,1828108,0.0-19.0-0.0-0.118,A39CG6GXC2ZJXB,371DNNCG57IGA1IMUX7DUPM8OSP8TA,37C0GNLMHJJPBH1V5UF2UR4I9NC6D1,3,4
119,3,object_07,object_06,444.90000003576,5,1,384.0,0.8888888888888888,1,object_04,1,1529,0,8,7,library_5,2,memory-2step-stake-s,609,1836692,0.0-19.0-0.0-0.119,A39CG6GXC2ZJXB,371DNNCG57IGA1IMUX7DUPM8OSP8TA,37C0GNLMHJJPBH1V5UF2UR4I9NC6D1,5,6
120,1,object_08,object_02,456.0,2,1,280.5,0.8888888888888888,2,object_03,5,1569,0,7,8,desert_4,2,memory-2step-stake-s,610,1845174,0.0-19.0-0.0-0.120,A39CG6GXC2ZJXB,371DNNCG57IGA1IMUX7DUPM8OSP8TA,37C0GNLMHJJPBH1V5UF2UR4I9NC6D1,2,1
121,2,object_09,object_05,472.5,4,1,416.69999998808,0.4444444444444444,2,object_03,5,1589,0,6,4,forest_8,2,memory-2step-stake-s,611,1853354,0.0-19.0-0.0-0.121,A39CG6GXC2ZJXB,371DNNCG57IGA1IMUX7DUPM8OSP8TA,37C0GNLMHJJPBH1V5UF2UR4I9NC6D1,4,3
122,3,object_07,object_06,792.40000003576,5,1,352.19999998808,0.8888888888888888,1,object_04,1,1597,0,8,5,library_1,2,memory-2step-stake-s,612,1861906,0.0-19.0-0.0-0.122,A39CG6GXC2ZJXB,371DNNCG57IGA1IMUX7DUPM8OSP8TA,37C0GNLMHJJPBH1V5UF2UR4I9NC6D1,5,6
123,4,object_01,object_10,586.69999998808,7,1,288.5,0.7777777777777778,1,object_04,1,1604,0,7,5,restaurant_3,2,memory-2step-stake-s,613,1870283,0.0-19.0-0.0-0.123,A39CG6GXC2ZJXB,371DNNCG57IGA1IMUX7DUPM8OSP8TA,37C0GNLMHJJPBH1V5UF2UR4I9NC6D1,7,8
124,1,object_02,object_08,812.39999997616,2,2,460.10000002384,0.5555555555555556,2,object_03,5,1629,0,6,5,desert_4,2,memory-2step-stake-s,614,1878597,0.0-19.0-0.0-0.124,A39CG6GXC2ZJXB,371DNNCG57IGA1IMUX7DUPM8OSP8TA,37C0GNLMHJJPBH1V5UF2UR4I9NC6D1,1,2
125,4,object_01,object_10,435.60000002384,7,1,413.89999997616,0.3333333333333333,1,object_04,1,1632,0,3,7,restaurant_3,2,memory-2step-stake-s,615,1886671,0.0-19.0-0.0-0.125,A39CG6GXC2ZJXB,371DNNCG57IGA1IMUX7DUPM8OSP8TA,37C0GNLMHJJPBH1V5UF2UR4I9NC6D1,7,8
126,4,object_01,object_10,641.19999998808,8,2,324.60000002384,0.6666666666666666,2,object_03,5,1662,0,3,6,restaurant_7,2,memory-2step-stake-s,616,1894964,0.0-19.0-0.0-0.126,A39CG6GXC2ZJXB,371DNNCG57IGA1IMUX7DUPM8OSP8TA,37C0GNLMHJJPBH1V5UF2UR4I9NC6D1,7,8
127,3,object_06,object_07,554.30000001192,6,1,999.69999998808,0.5555555555555556,2,object_03,1,1667,0,3,5,library_4,2,memory-2step-stake-s,617,1903808,0.0-19.0-0.0-0.127,A39CG6GXC2ZJXB,371DNNCG57IGA1IMUX7DUPM8OSP8TA,37C0GNLMHJJPBH1V5UF2UR4I9NC6D1,6,5
128,1,object_02,object_08,503.19999998808,1,1,382.0,0.2222222222222222,1,object_04,5,1677,0,2,4,desert_6,2,memory-2step-stake-s,619,1939204,0.0-19.0-0.1-0.128,A39CG6GXC2ZJXB,371DNNCG57IGA1IMUX7DUPM8OSP8TA,37C0GNLMHJJPBH1V5UF2UR4I9NC6D1,1,2
129,3,object_07,object_06,608.0,5,1,310.30000001192,0.0,1,object_04,1,1677,0,0,3,library_4,2,memory-2step-stake-s,620,1946808,0.0-19.0-0.1-0.129,A39CG6GXC2ZJXB,371DNNCG57IGA1IMUX7DUPM8OSP8TA,37C0GNLMHJJPBH1V5UF2UR4I9NC6D1,5,6
130,4,object_01,object_10,678.60000002384,8,2,460.39999997616,0.4444444444444444,2,object_03,1,1681,0,2,4,restaurant_3,2,memory-2step-stake-s,621,1954998,0.0-19.0-0.1-0.130,A39CG6GXC2ZJXB,371DNNCG57IGA1IMUX7DUPM8OSP8TA,37C0GNLMHJJPBH1V5UF2UR4I9NC6D1,7,8
131,1,object_02,object_08,756.69999998808,2,2,296.60000002384,0.4444444444444444,2,object_03,1,1685,0,0,4,desert_7,2,memory-2step-stake-s,622,1963014,0.0-19.0-0.1-0.131,A39CG6GXC2ZJXB,371DNNCG57IGA1IMUX7DUPM8OSP8TA,37C0GNLMHJJPBH1V5UF2UR4I9NC6D1,1,2
132,3,object_06,object_07,731.30000001192,5,2,305.69999998808,0.0,1,object_04,5,1685,0,0,4,library_5,2,memory-2step-stake-s,623,1970605,0.0-19.0-0.1-0.132,A39CG6GXC2ZJXB,371DNNCG57IGA1IMUX7DUPM8OSP8TA,37C0GNLMHJJPBH1V5UF2UR4I9NC6D1,6,5
133,1,object_02,object_08,269.5,1,1,381.5,0.1111111111111111,1,object_04,1,1686,0,1,5,desert_7,2,memory-2step-stake-s,624,1978361,0.0-19.0-0.1-0.133,A39CG6GXC2ZJXB,371DNNCG57IGA1IMUX7DUPM8OSP8TA,37C0GNLMHJJPBH1V5UF2UR4I9NC6D1,1,2
134,1,object_08,object_02,612.0,2,1,318.59999996424,0.6666666666666666,2,object_03,5,1716,0,2,6,desert_6,2,memory-2step-stake-s,625,1986631,0.0-19.0-0.1-0.134,A39CG6GXC2ZJXB,371DNNCG57IGA1IMUX7DUPM8OSP8TA,37C0GNLMHJJPBH1V5UF2UR4I9NC6D1,2,1
135,4,object_01,object_10,673.19999998808,8,2,277.20000004768,0.7777777777777778,2,object_03,1,1723,0,2,7,restaurant_5,2,memory-2step-stake-s,626,1994957,0.0-19.0-0.1-0.135,A39CG6GXC2ZJXB,371DNNCG57IGA1IMUX7DUPM8OSP8TA,37C0GNLMHJJPBH1V5UF2UR4I9NC6D1,7,8
136,3,object_06,object_07,823.60000002384,6,1,405.5,0.8888888888888888,2,object_03,1,1731,0,3,8,library_7,2,memory-2step-stake-s,627,2003530,0.0-19.0-0.1-0.136,A39CG6GXC2ZJXB,371DNNCG57IGA1IMUX7DUPM8OSP8TA,37C0GNLMHJJPBH1V5UF2UR4I9NC6D1,6,5
137,4,object_01,object_10,730.89999997616,7,1,506.60000002384,0.1111111111111111,1,object_04,1,1732,0,1,7,restaurant_6,2,memory-2step-stake-s,628,2011434,0.0-19.0-0.1-0.137,A39CG6GXC2ZJXB,371DNNCG57IGA1IMUX7DUPM8OSP8TA,37C0GNLMHJJPBH1V5UF2UR4I9NC6D1,7,8
138,2,object_05,object_09,620.19999998808,4,2,317.5,0.8888888888888888,2,object_03,5,1772,0,1,8,forest_8,2,memory-2step-stake-s,629,2019891,0.0-19.0-0.1-0.138,A39CG6GXC2ZJXB,371DNNCG57IGA1IMUX7DUPM8OSP8TA,37C0GNLMHJJPBH1V5UF2UR4I9NC6D1,3,4
139,4,object_01,object_10,659.30000001192,8,2,378.89999997616,0.5555555555555556,2,object_03,1,1777,0,1,5,restaurant_5,2,memory-2step-stake-s,630,2028103,0.0-19.0-0.1-0.139,A39CG6GXC2ZJXB,371DNNCG57IGA1IMUX7DUPM8OSP8TA,37C0GNLMHJJPBH1V5UF2UR4I9NC6D1,7,8
140,1,object_02,object_08,685.40000003576,2,2,346.60000002384,0.5555555555555556,2,object_03,5,1802,0,0,5,desert_7,2,memory-2step-stake-s,631,2036280,0.0-19.0-0.1-0.140,A39CG6GXC2ZJXB,371DNNCG57IGA1IMUX7DUPM8OSP8TA,37C0GNLMHJJPBH1V5UF2UR4I9NC6D1,1,2
141,2,object_09,object_05,627.89999997616,4,1,330.19999998808,0.4444444444444444,2,object_03,5,1822,0,0,4,forest_2,2,memory-2step-stake-s,632,2044334,0.0-19.0-0.1-0.141,A39CG6GXC2ZJXB,371DNNCG57IGA1IMUX7DUPM8OSP8TA,37C0GNLMHJJPBH1V5UF2UR4I9NC6D1,4,3
142,4,object_01,object_10,603.0,7,1,291.80000001192,0.0,1,object_04,1,1822,0,0,4,restaurant_3,2,memory-2step-stake-s,633,2051910,0.0-19.0-0.1-0.142,A39CG6GXC2ZJXB,371DNNCG57IGA1IMUX7DUPM8OSP8TA,37C0GNLMHJJPBH1V5UF2UR4I9NC6D1,7,8
143,2,object_05,object_09,472.69999998808,4,2,281.29999995232,0.2222222222222222,2,object_03,5,1832,0,0,2,forest_5,2,memory-2step-stake-s,634,2059668,0.0-19.0-0.1-0.143,A39CG6GXC2ZJXB,371DNNCG57IGA1IMUX7DUPM8OSP8TA,37C0GNLMHJJPBH1V5UF2UR4I9NC6D1,3,4
144,3,object_06,object_07,687.19999998808,5,2,318.30000001192,0.1111111111111111,1,object_04,1,1833,0,1,4,library_1,2,memory-2step-stake-s,635,2067384,0.0-19.0-0.1-0.144,A39CG6GXC2ZJXB,371DNNCG57IGA1IMUX7DUPM8OSP8TA,37C0GNLMHJJPBH1V5UF2UR4I9NC6D1,6,5
145,4,object_10,object_01,763.0,7,2,352.80000001192,0.0,1,object_04,1,1833,0,0,4,restaurant_6,2,memory-2step-stake-s,636,2074993,0.0-19.0-0.1-0.145,A39CG6GXC2ZJXB,371DNNCG57IGA1IMUX7DUPM8OSP8TA,37C0GNLMHJJPBH1V5UF2UR4I9NC6D1,8,7
146,2,object_05,object_09,648.90000003576,4,2,427.09999996424,0.2222222222222222,2,object_03,5,1843,0,1,2,forest_7,2,memory-2step-stake-s,637,2082909,0.0-19.0-0.1-0.146,A39CG6GXC2ZJXB,371DNNCG57IGA1IMUX7DUPM8OSP8TA,37C0GNLMHJJPBH1V5UF2UR4I9NC6D1,3,4
147,4,object_10,object_01,1049.8000000119,8,1,472.5,0.3333333333333333,2,object_03,1,1846,0,1,3,restaurant_5,2,memory-2step-stake-s,638,2090967,0.0-19.0-0.1-0.147,A39CG6GXC2ZJXB,371DNNCG57IGA1IMUX7DUPM8OSP8TA,37C0GNLMHJJPBH1V5UF2UR4I9NC6D1,8,7
148,4,object_01,object_10,741.29999995232,8,2,401.39999997616,0.3333333333333333,2,object_03,1,1849,0,2,3,restaurant_7,2,memory-2step-stake-s,639,2098969,0.0-19.0-0.1-0.148,A39CG6GXC2ZJXB,371DNNCG57IGA1IMUX7DUPM8OSP8TA,37C0GNLMHJJPBH1V5UF2UR4I9NC6D1,7,8
149,1,object_02,object_08,743.80000001192,2,2,344.30000001192,0.6666666666666666,2,object_03,5,1879,0,2,6,desert_4,2,memory-2step-stake-s,640,2107247,0.0-19.0-0.1-0.149,A39CG6GXC2ZJXB,371DNNCG57IGA1IMUX7DUPM8OSP8TA,37C0GNLMHJJPBH1V5UF2UR4I9NC6D1,1,2
150,1,object_08,object_02,641.89999997616,1,2,330.30000001192,0.3333333333333333,1,object_04,1,1882,0,3,8,desert_8,2,memory-2step-stake-s,641,2115190,0.0-19.0-0.1-0.150,A39CG6GXC2ZJXB,371DNNCG57IGA1IMUX7DUPM8OSP8TA,37C0GNLMHJJPBH1V5UF2UR4I9NC6D1,2,1
151,3,object_06,object_07,709.89999997616,5,2,508.60000002384,0.1111111111111111,1,object_04,1,1883,0,1,8,library_4,2,memory-2step-stake-s,642,2123108,0.0-19.0-0.1-0.151,A39CG6GXC2ZJXB,371DNNCG57IGA1IMUX7DUPM8OSP8TA,37C0GNLMHJJPBH1V5UF2UR4I9NC6D1,6,5
152,1,object_08,object_02,701.10000002384,2,1,253.90000003576,0.8888888888888888,2,object_03,5,1923,0,3,8,desert_6,2,memory-2step-stake-s,643,2131557,0.0-19.0-0.1-0.152,A39CG6GXC2ZJXB,371DNNCG57IGA1IMUX7DUPM8OSP8TA,37C0GNLMHJJPBH1V5UF2UR4I9NC6D1,2,1
153,1,object_02,object_08,635.10000002384,2,2,344.30000001192,0.6666666666666666,2,object_03,5,1953,0,4,6,desert_8,2,memory-2step-stake-s,644,2139844,0.0-19.0-0.1-0.153,A39CG6GXC2ZJXB,371DNNCG57IGA1IMUX7DUPM8OSP8TA,37C0GNLMHJJPBH1V5UF2UR4I9NC6D1,1,2
154,2,object_05,object_09,628.40000003576,4,2,563.10000002384,0.2222222222222222,2,object_03,5,1963,0,4,2,forest_7,2,memory-2step-stake-s,645,2147906,0.0-19.0-0.1-0.154,A39CG6GXC2ZJXB,371DNNCG57IGA1IMUX7DUPM8OSP8TA,37C0GNLMHJJPBH1V5UF2UR4I9NC6D1,3,4
155,1,object_08,object_02,710.80000001192,2,1,240.19999998808,0.3333333333333333,2,object_03,5,1978,0,3,3,desert_4,2,memory-2step-stake-s,646,2155767,0.0-19.0-0.1-0.155,A39CG6GXC2ZJXB,371DNNCG57IGA1IMUX7DUPM8OSP8TA,37C0GNLMHJJPBH1V5UF2UR4I9NC6D1,2,1
156,1,object_02,object_08,667.59999996424,1,1,329.5,0.7777777777777778,1,object_04,5,2013,0,7,3,desert_4,2,memory-2step-stake-s,647,2164117,0.0-19.0-0.1-0.156,A39CG6GXC2ZJXB,371DNNCG57IGA1IMUX7DUPM8OSP8TA,37C0GNLMHJJPBH1V5UF2UR4I9NC6D1,1,2
157,2,object_05,object_09,593.40000003576,3,1,297.90000003576,0.5555555555555556,1,object_04,5,2038,0,5,4,forest_7,2,memory-2step-stake-s,648,2172217,0.0-19.0-0.1-0.157,A39CG6GXC2ZJXB,371DNNCG57IGA1IMUX7DUPM8OSP8TA,37C0GNLMHJJPBH1V5UF2UR4I9NC6D1,3,4
158,4,object_01,object_10,866.30000001192,8,2,303.60000002384,0.3333333333333333,2,object_03,1,2041,0,2,3,restaurant_6,2,memory-2step-stake-s,649,2180145,0.0-19.0-0.1-0.158,A39CG6GXC2ZJXB,371DNNCG57IGA1IMUX7DUPM8OSP8TA,37C0GNLMHJJPBH1V5UF2UR4I9NC6D1,7,8
159,1,object_02,object_08,848.19999998808,1,1,320.19999998808,0.1111111111111111,1,object_04,5,2046,0,1,2,desert_6,2,memory-2step-stake-s,650,2187839,0.0-19.0-0.1-0.159,A39CG6GXC2ZJXB,371DNNCG57IGA1IMUX7DUPM8OSP8TA,37C0GNLMHJJPBH1V5UF2UR4I9NC6D1,1,2
160,2,object_09,object_05,888.0,4,1,315.69999998808,0.4444444444444444,2,object_03,5,2066,0,1,4,forest_7,2,memory-2step-stake-s,651,2195872,0.0-19.0-0.1-0.160,A39CG6GXC2ZJXB,371DNNCG57IGA1IMUX7DUPM8OSP8TA,37C0GNLMHJJPBH1V5UF2UR4I9NC6D1,4,3
161,1,object_02,object_08,618.09999996424,2,2,286.10000002384,0.3333333333333333,2,object_03,5,2081,0,3,3,desert_7,2,memory-2step-stake-s,652,2203764,0.0-19.0-0.1-0.161,A39CG6GXC2ZJXB,371DNNCG57IGA1IMUX7DUPM8OSP8TA,37C0GNLMHJJPBH1V5UF2UR4I9NC6D1,1,2
162,2,object_05,object_09,657.19999998808,3,1,221.90000003576,0.5555555555555556,1,object_04,1,2086,0,5,2,forest_2,2,memory-2step-stake-s,653,2211816,0.0-19.0-0.1-0.162,A39CG6GXC2ZJXB,371DNNCG57IGA1IMUX7DUPM8OSP8TA,37C0GNLMHJJPBH1V5UF2UR4I9NC6D1,3,4
163,1,object_02,object_08,532.09999996424,1,1,340.5,0.4444444444444444,1,object_04,5,2106,0,4,5,desert_8,2,memory-2step-stake-s,654,2219884,0.0-19.0-0.1-0.163,A39CG6GXC2ZJXB,371DNNCG57IGA1IMUX7DUPM8OSP8TA,37C0GNLMHJJPBH1V5UF2UR4I9NC6D1,1,2
164,4,object_01,object_10,778.60000002384,7,1,277.10000002384,0.6666666666666666,1,object_04,5,2136,0,6,5,restaurant_3,2,memory-2step-stake-s,655,2228147,0.0-19.0-0.1-0.164,A39CG6GXC2ZJXB,371DNNCG57IGA1IMUX7DUPM8OSP8TA,37C0GNLMHJJPBH1V5UF2UR4I9NC6D1,7,8
165,1,object_08,object_02,566.5,2,1,260.69999998808,0.2222222222222222,2,object_03,1,2138,0,6,2,desert_4,2,memory-2step-stake-s,656,2235898,0.0-19.0-0.1-0.165,A39CG6GXC2ZJXB,371DNNCG57IGA1IMUX7DUPM8OSP8TA,37C0GNLMHJJPBH1V5UF2UR4I9NC6D1,2,1
166,2,object_09,object_05,652.10000002384,3,2,267.0,0.8888888888888888,1,object_04,5,2178,0,8,0,forest_7,2,memory-2step-stake-s,657,2244312,0.0-19.0-0.1-0.166,A39CG6GXC2ZJXB,371DNNCG57IGA1IMUX7DUPM8OSP8TA,37C0GNLMHJJPBH1V5UF2UR4I9NC6D1,4,3
167,4,object_01,object_10,688.39999997616,7,1,169.0,1.0,1,object_04,1,2187,0,9,2,restaurant_7,2,memory-2step-stake-s,658,2252767,0.0-19.0-0.1-0.167,A39CG6GXC2ZJXB,371DNNCG57IGA1IMUX7DUPM8OSP8TA,37C0GNLMHJJPBH1V5UF2UR4I9NC6D1,7,8
168,1,object_02,object_08,725.69999998808,2,2,300.19999998808,0.3333333333333333,2,object_03,5,2202,0,9,3,desert_7,2,memory-2step-stake-s,659,2260676,0.0-19.0-0.1-0.168,A39CG6GXC2ZJXB,371DNNCG57IGA1IMUX7DUPM8OSP8TA,37C0GNLMHJJPBH1V5UF2UR4I9NC6D1,1,2
169,4,object_01,object_10,562.10000002384,7,1,237.10000002384,0.7777777777777778,1,object_04,5,2237,0,7,5,restaurant_6,2,memory-2step-stake-s,660,2268982,0.0-19.0-0.1-0.169,A39CG6GXC2ZJXB,371DNNCG57IGA1IMUX7DUPM8OSP8TA,37C0GNLMHJJPBH1V5UF2UR4I9NC6D1,7,8
170,2,object_09,object_05,760.5,4,1,298.39999997616,0.3333333333333333,2,object_03,5,2252,0,8,3,forest_8,2,memory-2step-stake-s,661,2276881,0.0-19.0-0.1-0.170,A39CG6GXC2ZJXB,371DNNCG57IGA1IMUX7DUPM8OSP8TA,37C0GNLMHJJPBH1V5UF2UR4I9NC6D1,4,3
171,2,object_05,object_09,594.0,4,2,401.40000003576,0.2222222222222222,2,object_03,5,2262,0,6,2,forest_8,2,memory-2step-stake-s,662,2284807,0.0-19.0-0.1-0.171,A39CG6GXC2ZJXB,371DNNCG57IGA1IMUX7DUPM8OSP8TA,37C0GNLMHJJPBH1V5UF2UR4I9NC6D1,3,4
172,1,object_02,object_08,968.30000001192,1,1,226.89999997616,0.8888888888888888,1,object_04,1,2270,0,8,3,desert_8,2,memory-2step-stake-s,663,2293211,0.0-19.0-0.1-0.172,A39CG6GXC2ZJXB,371DNNCG57IGA1IMUX7DUPM8OSP8TA,37C0GNLMHJJPBH1V5UF2UR4I9NC6D1,1,2
173,2,object_05,object_09,682.79999995232,3,1,344.5,0.8888888888888888,1,object_04,5,2310,0,8,0,forest_5,2,memory-2step-stake-s,664,2301738,0.0-19.0-0.1-0.173,A39CG6GXC2ZJXB,371DNNCG57IGA1IMUX7DUPM8OSP8TA,37C0GNLMHJJPBH1V5UF2UR4I9NC6D1,3,4
174,2,object_05,object_09,638.40000003576,3,1,322.09999996424,0.7777777777777778,1,object_04,5,2345,0,7,0,forest_2,2,memory-2step-stake-s,665,2310116,0.0-19.0-0.1-0.174,A39CG6GXC2ZJXB,371DNNCG57IGA1IMUX7DUPM8OSP8TA,37C0GNLMHJJPBH1V5UF2UR4I9NC6D1,3,4
175,3,object_06,object_07,1201.3999999762,6,1,488.5,0.1111111111111111,2,object_03,1,2346,0,7,1,library_5,2,memory-2step-stake-s,666,2317990,0.0-19.0-0.1-0.175,A39CG6GXC2ZJXB,371DNNCG57IGA1IMUX7DUPM8OSP8TA,37C0GNLMHJJPBH1V5UF2UR4I9NC6D1,6,5
176,3,object_06,object_07,789.89999997616,5,2,457.30000001192,0.7777777777777778,1,object_04,1,2353,0,7,3,library_7,2,memory-2step-stake-s,667,2326545,0.0-19.0-0.1-0.176,A39CG6GXC2ZJXB,371DNNCG57IGA1IMUX7DUPM8OSP8TA,37C0GNLMHJJPBH1V5UF2UR4I9NC6D1,6,5
177,1,object_08,object_02,726.80000001192,1,2,271.59999996424,0.6666666666666666,1,object_04,5,2383,0,6,0,desert_7,2,memory-2step-stake-s,668,2334758,0.0-19.0-0.1-0.177,A39CG6GXC2ZJXB,371DNNCG57IGA1IMUX7DUPM8OSP8TA,37C0GNLMHJJPBH1V5UF2UR4I9NC6D1,2,1
178,3,object_07,object_06,760.19999998808,5,1,285.69999998808,0.6666666666666666,1,object_04,5,2413,0,6,1,library_1,2,memory-2step-stake-s,669,2342983,0.0-19.0-0.1-0.178,A39CG6GXC2ZJXB,371DNNCG57IGA1IMUX7DUPM8OSP8TA,37C0GNLMHJJPBH1V5UF2UR4I9NC6D1,5,6
179,4,object_01,object_10,807.90000003576,7,1,3.1000000238419,0.7777777777777778,1,object_04,1,2420,0,7,0,restaurant_7,2,memory-2step-stake-s,670,2351038,0.0-19.0-0.1-0.179,A39CG6GXC2ZJXB,371DNNCG57IGA1IMUX7DUPM8OSP8TA,37C0GNLMHJJPBH1V5UF2UR4I9NC6D1,7,8
180,2,object_09,object_05,718.0,3,2,352.70000004768,0.6666666666666666,1,object_04,5,2450,0,6,0,forest_5,2,memory-2step-stake-s,671,2359340,0.0-19.0-0.1-0.180,A39CG6GXC2ZJXB,371DNNCG57IGA1IMUX7DUPM8OSP8TA,37C0GNLMHJJPBH1V5UF2UR4I9NC6D1,4,3
181,3,object_06,object_07,759.19999998808,5,2,350.89999997616,1.0,1,object_04,5,2495,0,9,2,library_1,2,memory-2step-stake-s,672,2367968,0.0-19.0-0.1-0.181,A39CG6GXC2ZJXB,371DNNCG57IGA1IMUX7DUPM8OSP8TA,37C0GNLMHJJPBH1V5UF2UR4I9NC6D1,6,5
182,4,object_10,object_01,727.80000001192,7,2,294.69999998808,0.8888888888888888,1,object_04,1,2503,0,8,2,restaurant_3,2,memory-2step-stake-s,673,2376449,0.0-19.0-0.1-0.182,A39CG6GXC2ZJXB,371DNNCG57IGA1IMUX7DUPM8OSP8TA,37C0GNLMHJJPBH1V5UF2UR4I9NC6D1,8,7
183,2,object_09,object_05,622.89999997616,3,2,335.39999997616,0.5555555555555556,1,object_04,5,2528,0,5,1,forest_2,2,memory-2step-stake-s,674,2384644,0.0-19.0-0.1-0.183,A39CG6GXC2ZJXB,371DNNCG57IGA1IMUX7DUPM8OSP8TA,37C0GNLMHJJPBH1V5UF2UR4I9NC6D1,4,3
184,4,object_10,object_01,622.39999997616,7,2,0.19999998807907,1.0,1,object_04,1,2537,0,9,1,restaurant_3,2,memory-2step-stake-s,675,2392934,0.0-19.0-0.1-0.184,A39CG6GXC2ZJXB,371DNNCG57IGA1IMUX7DUPM8OSP8TA,37C0GNLMHJJPBH1V5UF2UR4I9NC6D1,8,7
185,1,object_02,object_08,436.59999996424,1,1,257.29999995232,0.7777777777777778,1,object_04,5,2572,0,7,0,desert_6,2,memory-2step-stake-s,676,2401249,0.0-19.0-0.1-0.185,A39CG6GXC2ZJXB,371DNNCG57IGA1IMUX7DUPM8OSP8TA,37C0GNLMHJJPBH1V5UF2UR4I9NC6D1,1,2
186,1,object_08,object_02,559.0,1,2,38.300000011921,0.7777777777777778,1,object_04,5,2607,0,7,1,desert_4,2,memory-2step-stake-s,677,2409340,0.0-19.0-0.1-0.186,A39CG6GXC2ZJXB,371DNNCG57IGA1IMUX7DUPM8OSP8TA,37C0GNLMHJJPBH1V5UF2UR4I9NC6D1,2,1
187,4,object_01,object_10,631.5,7,1,310.80000001192,0.5555555555555556,1,object_04,5,2632,0,5,0,restaurant_5,2,memory-2step-stake-s,678,2417501,0.0-19.0-0.1-0.187,A39CG6GXC2ZJXB,371DNNCG57IGA1IMUX7DUPM8OSP8TA,37C0GNLMHJJPBH1V5UF2UR4I9NC6D1,7,8
188,1,object_08,object_02,698.0,1,2,430.59999996424,0.4444444444444444,1,object_04,5,2652,0,4,3,desert_7,2,memory-2step-stake-s,679,2425678,0.0-19.0-0.1-0.188,A39CG6GXC2ZJXB,371DNNCG57IGA1IMUX7DUPM8OSP8TA,37C0GNLMHJJPBH1V5UF2UR4I9NC6D1,2,1
189,4,object_01,object_10,567.09999996424,8,2,263.19999998808,0.2222222222222222,2,object_03,1,2654,0,1,2,restaurant_3,2,memory-2step-stake-s,680,2433422,0.0-19.0-0.1-0.189,A39CG6GXC2ZJXB,371DNNCG57IGA1IMUX7DUPM8OSP8TA,37C0GNLMHJJPBH1V5UF2UR4I9NC6D1,7,8
190,3,object_07,object_06,779.39999997616,6,2,292.09999996424,0.3333333333333333,2,object_03,1,2657,0,4,3,library_4,2,memory-2step-stake-s,681,2441340,0.0-19.0-0.1-0.190,A39CG6GXC2ZJXB,371DNNCG57IGA1IMUX7DUPM8OSP8TA,37C0GNLMHJJPBH1V5UF2UR4I9NC6D1,5,6
191,1,object_02,object_08,533.69999998808,1,1,71.099999964237,0.8888888888888888,1,object_04,5,2697,0,8,5,desert_6,2,memory-2step-stake-s,682,2449595,0.0-19.0-0.1-0.191,A39CG6GXC2ZJXB,371DNNCG57IGA1IMUX7DUPM8OSP8TA,37C0GNLMHJJPBH1V5UF2UR4I9NC6D1,1,2
192,2,object_05,object_09,671.69999998808,4,2,360.80000001192,0.4444444444444444,2,object_03,1,2701,0,7,4,forest_2,2,memory-2step-stake-s,683,2457665,0.0-19.0-0.1-0.192,A39CG6GXC2ZJXB,371DNNCG57IGA1IMUX7DUPM8OSP8TA,37C0GNLMHJJPBH1V5UF2UR4I9NC6D1,3,4
193,4,object_10,object_01,955.5,7,2,307.79999995232,0.8888888888888888,1,object_04,1,2709,0,8,2,restaurant_7,2,memory-2step-stake-s,684,2466142,0.0-19.0-0.1-0.193,A39CG6GXC2ZJXB,371DNNCG57IGA1IMUX7DUPM8OSP8TA,37C0GNLMHJJPBH1V5UF2UR4I9NC6D1,8,7
194,1,object_02,object_08,659.0,1,1,205.89999997616,0.6666666666666666,1,object_04,5,2739,0,6,3,desert_4,2,memory-2step-stake-s,685,2474284,0.0-19.0-0.1-0.194,A39CG6GXC2ZJXB,371DNNCG57IGA1IMUX7DUPM8OSP8TA,37C0GNLMHJJPBH1V5UF2UR4I9NC6D1,1,2
195,4,object_01,object_10,564.79999995232,8,2,264.40000003576,0.3333333333333333,2,object_03,1,2742,0,6,3,restaurant_6,2,memory-2step-stake-s,686,2482184,0.0-19.0-0.1-0.195,A39CG6GXC2ZJXB,371DNNCG57IGA1IMUX7DUPM8OSP8TA,37C0GNLMHJJPBH1V5UF2UR4I9NC6D1,7,8
196,2,object_05,object_09,703.69999998808,4,2,452.69999998808,0.4444444444444444,2,object_03,1,2746,0,9,4,forest_8,2,memory-2step-stake-s,687,2490364,0.0-19.0-0.1-0.196,A39CG6GXC2ZJXB,371DNNCG57IGA1IMUX7DUPM8OSP8TA,37C0GNLMHJJPBH1V5UF2UR4I9NC6D1,3,4
197,2,object_05,object_09,433.69999998808,4,2,321.30000001192,0.3333333333333333,2,object_03,1,2749,0,8,3,forest_7,2,memory-2step-stake-s,688,2498310,0.0-19.0-0.1-0.197,A39CG6GXC2ZJXB,371DNNCG57IGA1IMUX7DUPM8OSP8TA,37C0GNLMHJJPBH1V5UF2UR4I9NC6D1,3,4
198,3,object_06,object_07,812.80000001192,5,2,308.30000001192,0.8888888888888888,1,object_04,5,2789,0,8,3,library_1,2,memory-2step-stake-s,689,2506796,0.0-19.0-0.1-0.198,A39CG6GXC2ZJXB,371DNNCG57IGA1IMUX7DUPM8OSP8TA,37C0GNLMHJJPBH1V5UF2UR4I9NC6D1,6,5
199,2,object_09,object_05,578.10000002384,3,2,331.5,0.7777777777777778,1,object_04,5,2824,0,7,2,forest_5,2,memory-2step-stake-s,690,2515221,0.0-19.0-0.1-0.199,A39CG6GXC2ZJXB,371DNNCG57IGA1IMUX7DUPM8OSP8TA,37C0GNLMHJJPBH1V5UF2UR4I9NC6D1,4,3
200,4,object_10,object_01,1005.6999999881,8,1,207.30000001192,0.1111111111111111,2,object_03,1,2825,0,8,1,restaurant_7,2,memory-2step-stake-s,691,2522857,0.0-19.0-0.1-0.200,A39CG6GXC2ZJXB,371DNNCG57IGA1IMUX7DUPM8OSP8TA,37C0GNLMHJJPBH1V5UF2UR4I9NC6D1,8,7
201,1,object_02,object_08,695.59999996424,2,2,124.19999998808,0.2222222222222222,2,object_03,1,2827,0,9,2,desert_6,2,memory-2step-stake-s,692,2530475,0.0-19.0-0.1-0.201,A39CG6GXC2ZJXB,371DNNCG57IGA1IMUX7DUPM8OSP8TA,37C0GNLMHJJPBH1V5UF2UR4I9NC6D1,1,2
202,2,object_05,object_09,825.89999997616,3,1,391.59999996424,0.6666666666666666,1,object_04,1,2833,0,6,1,forest_7,2,memory-2step-stake-s,693,2538853,0.0-19.0-0.1-0.202,A39CG6GXC2ZJXB,371DNNCG57IGA1IMUX7DUPM8OSP8TA,37C0GNLMHJJPBH1V5UF2UR4I9NC6D1,3,4
203,3,object_06,object_07,596.19999998808,6,1,257.60000002384,0.3333333333333333,2,object_03,1,2836,0,5,3,library_7,2,memory-2step-stake-s,694,2546756,0.0-19.0-0.1-0.203,A39CG6GXC2ZJXB,371DNNCG57IGA1IMUX7DUPM8OSP8TA,37C0GNLMHJJPBH1V5UF2UR4I9NC6D1,6,5
204,3,object_07,object_06,671.80000001192,6,2,246.70000004768,0.3333333333333333,2,object_03,1,2839,0,6,3,library_7,2,memory-2step-stake-s,695,2554621,0.0-19.0-0.1-0.204,A39CG6GXC2ZJXB,371DNNCG57IGA1IMUX7DUPM8OSP8TA,37C0GNLMHJJPBH1V5UF2UR4I9NC6D1,5,6
205,1,object_02,object_08,598.5,1,1,260.0,0.5555555555555556,1,object_04,5,2864,0,5,5,desert_7,2,memory-2step-stake-s,696,2562731,0.0-19.0-0.1-0.205,A39CG6GXC2ZJXB,371DNNCG57IGA1IMUX7DUPM8OSP8TA,37C0GNLMHJJPBH1V5UF2UR4I9NC6D1,1,2
206,4,object_01,object_10,612.0,7,1,369.5,0.5555555555555556,1,object_04,1,2869,0,5,5,restaurant_5,2,memory-2step-stake-s,697,2570923,0.0-19.0-0.1-0.206,A39CG6GXC2ZJXB,371DNNCG57IGA1IMUX7DUPM8OSP8TA,37C0GNLMHJJPBH1V5UF2UR4I9NC6D1,7,8
207,3,object_07,object_06,901.90000003576,5,1,397.20000004768,0.7777777777777778,1,object_04,1,2876,0,7,5,library_5,2,memory-2step-stake-s,698,2579368,0.0-19.0-0.1-0.207,A39CG6GXC2ZJXB,371DNNCG57IGA1IMUX7DUPM8OSP8TA,37C0GNLMHJJPBH1V5UF2UR4I9NC6D1,5,6
208,1,object_08,object_02,934.29999995232,1,2,359.19999998808,0.7777777777777778,1,object_04,5,2911,0,7,4,desert_6,2,memory-2step-stake-s,699,2587776,0.0-19.0-0.1-0.208,A39CG6GXC2ZJXB,371DNNCG57IGA1IMUX7DUPM8OSP8TA,37C0GNLMHJJPBH1V5UF2UR4I9NC6D1,2,1
209,3,object_06,object_07,613.5,6,1,265.09999996424,0.3333333333333333,2,object_03,1,2914,0,9,3,library_4,2,memory-2step-stake-s,700,2595675,0.0-19.0-0.1-0.209,A39CG6GXC2ZJXB,371DNNCG57IGA1IMUX7DUPM8OSP8TA,37C0GNLMHJJPBH1V5UF2UR4I9NC6D1,6,5
210,3,object_06,object_07,734.60000002384,5,2,207.69999998808,0.8888888888888888,1,object_04,1,2922,0,8,1,library_7,2,memory-2step-stake-s,701,2604071,0.0-19.0-0.1-0.210,A39CG6GXC2ZJXB,371DNNCG57IGA1IMUX7DUPM8OSP8TA,37C0GNLMHJJPBH1V5UF2UR4I9NC6D1,6,5
211,2,object_09,object_05,399.80000001192,3,2,516.5,0.8888888888888888,1,object_04,5,2962,0,8,1,forest_8,2,memory-2step-stake-s,702,2612745,0.0-19.0-0.1-0.211,A39CG6GXC2ZJXB,371DNNCG57IGA1IMUX7DUPM8OSP8TA,37C0GNLMHJJPBH1V5UF2UR4I9NC6D1,4,3
212,3,object_06,object_07,478.5,5,2,63.599999964237,0.5555555555555556,1,object_04,1,2967,0,5,2,library_1,2,memory-2step-stake-s,703,2620662,0.0-19.0-0.1-0.212,A39CG6GXC2ZJXB,371DNNCG57IGA1IMUX7DUPM8OSP8TA,37C0GNLMHJJPBH1V5UF2UR4I9NC6D1,6,5
213,3,object_06,object_07,686.80000001192,6,1,77.0,0.6666666666666666,2,object_03,1,2973,0,7,6,library_4,2,memory-2step-stake-s,704,2628705,0.0-19.0-0.1-0.213,A39CG6GXC2ZJXB,371DNNCG57IGA1IMUX7DUPM8OSP8TA,37C0GNLMHJJPBH1V5UF2UR4I9NC6D1,6,5
214,4,object_10,object_01,625.29999995232,8,1,257.19999998808,0.6666666666666666,2,object_03,1,2979,0,8,6,restaurant_6,2,memory-2step-stake-s,705,2636927,0.0-19.0-0.1-0.214,A39CG6GXC2ZJXB,371DNNCG57IGA1IMUX7DUPM8OSP8TA,37C0GNLMHJJPBH1V5UF2UR4I9NC6D1,8,7
215,1,object_08,object_02,896.5,1,2,247.40000003576,0.8888888888888888,1,object_04,5,3019,0,8,6,desert_6,2,memory-2step-stake-s,706,2645364,0.0-19.0-0.1-0.215,A39CG6GXC2ZJXB,371DNNCG57IGA1IMUX7DUPM8OSP8TA,37C0GNLMHJJPBH1V5UF2UR4I9NC6D1,2,1
216,4,object_01,object_10,569.60000002384,7,1,231.19999998808,1.0,1,object_04,5,3064,0,9,5,restaurant_7,2,memory-2step-stake-s,707,2653878,0.0-19.0-0.1-0.216,A39CG6GXC2ZJXB,371DNNCG57IGA1IMUX7DUPM8OSP8TA,37C0GNLMHJJPBH1V5UF2UR4I9NC6D1,7,8
217,3,object_07,object_06,511.19999998808,6,2,235.30000001192,0.6666666666666666,2,object_03,5,3094,0,8,6,library_1,2,memory-2step-stake-s,708,2662056,0.0-19.0-0.1-0.217,A39CG6GXC2ZJXB,371DNNCG57IGA1IMUX7DUPM8OSP8TA,37C0GNLMHJJPBH1V5UF2UR4I9NC6D1,5,6
218,3,object_07,object_06,430.69999998808,5,1,308.5,0.7777777777777778,1,object_04,1,3101,0,7,6,library_7,2,memory-2step-stake-s,709,2670444,0.0-19.0-0.1-0.218,A39CG6GXC2ZJXB,371DNNCG57IGA1IMUX7DUPM8OSP8TA,37C0GNLMHJJPBH1V5UF2UR4I9NC6D1,5,6
219,3,object_06,object_07,463.39999997616,5,2,342.80000001192,0.6666666666666666,1,object_04,1,3107,0,6,7,library_1,2,memory-2step-stake-s,710,2678740,0.0-19.0-0.1-0.219,A39CG6GXC2ZJXB,371DNNCG57IGA1IMUX7DUPM8OSP8TA,37C0GNLMHJJPBH1V5UF2UR4I9NC6D1,6,5
220,2,object_05,object_09,523.0,3,1,65.5,0.3333333333333333,1,object_04,5,3122,0,3,9,forest_8,2,memory-2step-stake-s,711,2686398,0.0-19.0-0.1-0.220,A39CG6GXC2ZJXB,371DNNCG57IGA1IMUX7DUPM8OSP8TA,37C0GNLMHJJPBH1V5UF2UR4I9NC6D1,3,4
221,2,object_05,object_09,537.69999998808,4,2,414.39999997616,0.8888888888888888,2,object_03,1,3130,0,5,8,forest_8,2,memory-2step-stake-s,712,2694957,0.0-19.0-0.1-0.221,A39CG6GXC2ZJXB,371DNNCG57IGA1IMUX7DUPM8OSP8TA,37C0GNLMHJJPBH1V5UF2UR4I9NC6D1,3,4
222,3,object_07,object_06,702.80000001192,5,1,266.90000003576,0.5555555555555556,1,object_04,1,3135,0,5,5,library_5,2,memory-2step-stake-s,713,2703056,0.0-19.0-0.1-0.222,A39CG6GXC2ZJXB,371DNNCG57IGA1IMUX7DUPM8OSP8TA,37C0GNLMHJJPBH1V5UF2UR4I9NC6D1,5,6
223,4,object_01,object_10,763.69999998808,7,1,277.69999998808,0.4444444444444444,1,object_04,1,3139,0,4,6,restaurant_7,2,memory-2step-stake-s,714,2711051,0.0-19.0-0.1-0.223,A39CG6GXC2ZJXB,371DNNCG57IGA1IMUX7DUPM8OSP8TA,37C0GNLMHJJPBH1V5UF2UR4I9NC6D1,7,8
224,3,object_07,object_06,790.5,6,2,198.5,0.6666666666666666,2,object_03,1,3145,0,1,6,library_5,2,memory-2step-stake-s,715,2719158,0.0-19.0-0.1-0.224,A39CG6GXC2ZJXB,371DNNCG57IGA1IMUX7DUPM8OSP8TA,37C0GNLMHJJPBH1V5UF2UR4I9NC6D1,5,6
225,2,object_05,object_09,353.90000003576,4,2,146.0,0.7777777777777778,2,object_03,5,3180,0,2,7,forest_2,2,memory-2step-stake-s,716,2727379,0.0-19.0-0.1-0.225,A39CG6GXC2ZJXB,371DNNCG57IGA1IMUX7DUPM8OSP8TA,37C0GNLMHJJPBH1V5UF2UR4I9NC6D1,3,4
226,4,object_10,object_01,645.80000001192,8,1,283.59999996424,0.7777777777777778,2,object_03,1,3187,0,3,7,restaurant_6,2,memory-2step-stake-s,717,2735699,0.0-19.0-0.1-0.226,A39CG6GXC2ZJXB,371DNNCG57IGA1IMUX7DUPM8OSP8TA,37C0GNLMHJJPBH1V5UF2UR4I9NC6D1,8,7
227,2,object_09,object_05,614.30000001192,4,1,211.70000004768,0.7777777777777778,2,object_03,5,3222,0,3,7,forest_7,2,memory-2step-stake-s,718,2743952,0.0-19.0-0.1-0.227,A39CG6GXC2ZJXB,371DNNCG57IGA1IMUX7DUPM8OSP8TA,37C0GNLMHJJPBH1V5UF2UR4I9NC6D1,4,3
228,2,object_05,object_09,570.90000003576,4,2,278.40000003576,0.8888888888888888,2,object_03,5,3262,0,6,8,forest_7,2,memory-2step-stake-s,719,2752382,0.0-19.0-0.1-0.228,A39CG6GXC2ZJXB,371DNNCG57IGA1IMUX7DUPM8OSP8TA,37C0GNLMHJJPBH1V5UF2UR4I9NC6D1,3,4
229,3,object_06,object_07,342.0,6,1,303.09999996424,0.6666666666666666,2,object_03,1,3268,0,5,6,library_4,2,memory-2step-stake-s,720,2760650,0.0-19.0-0.1-0.229,A39CG6GXC2ZJXB,371DNNCG57IGA1IMUX7DUPM8OSP8TA,37C0GNLMHJJPBH1V5UF2UR4I9NC6D1,6,5
230,3,object_07,object_06,555.0,6,2,363.19999998808,0.7777777777777778,2,object_03,5,3303,0,8,7,library_4,2,memory-2step-stake-s,721,2769056,0.0-19.0-0.1-0.230,A39CG6GXC2ZJXB,371DNNCG57IGA1IMUX7DUPM8OSP8TA,37C0GNLMHJJPBH1V5UF2UR4I9NC6D1,5,6
231,3,object_07,object_06,781.39999997616,5,1,397.60000002384,1.0,1,object_04,5,3348,0,9,9,library_7,2,memory-2step-stake-s,722,2777676,0.0-19.0-0.1-0.231,A39CG6GXC2ZJXB,371DNNCG57IGA1IMUX7DUPM8OSP8TA,37C0GNLMHJJPBH1V5UF2UR4I9NC6D1,5,6
232,4,object_01,object_10,634.70000004768,8,2,282.90000003576,1.0,2,object_03,1,3357,0,7,9,restaurant_6,2,memory-2step-stake-s,723,2786256,0.0-19.0-0.1-0.232,A39CG6GXC2ZJXB,371DNNCG57IGA1IMUX7DUPM8OSP8TA,37C0GNLMHJJPBH1V5UF2UR4I9NC6D1,7,8
233,2,object_09,object_05,429.29999995232,4,1,374.0,0.8888888888888888,2,object_03,5,3397,0,6,8,forest_5,2,memory-2step-stake-s,724,2794802,0.0-19.0-0.1-0.233,A39CG6GXC2ZJXB,371DNNCG57IGA1IMUX7DUPM8OSP8TA,37C0GNLMHJJPBH1V5UF2UR4I9NC6D1,4,3
234,3,object_06,object_07,528.0,5,2,345.39999997616,0.5555555555555556,1,object_04,1,3402,0,5,7,library_7,2,memory-2step-stake-s,725,2802975,0.0-19.0-0.1-0.234,A39CG6GXC2ZJXB,371DNNCG57IGA1IMUX7DUPM8OSP8TA,37C0GNLMHJJPBH1V5UF2UR4I9NC6D1,6,5
235,4,object_01,object_10,553.39999997616,7,1,338.89999997616,0.2222222222222222,1,object_04,1,3404,0,2,8,restaurant_6,2,memory-2step-stake-s,726,2810791,0.0-19.0-0.1-0.235,A39CG6GXC2ZJXB,371DNNCG57IGA1IMUX7DUPM8OSP8TA,37C0GNLMHJJPBH1V5UF2UR4I9NC6D1,7,8
236,4,object_10,object_01,617.5,7,2,430.79999995232,0.1111111111111111,1,object_04,1,3405,0,1,7,restaurant_3,2,memory-2step-stake-s,727,2818621,0.0-19.0-0.1-0.236,A39CG6GXC2ZJXB,371DNNCG57IGA1IMUX7DUPM8OSP8TA,37C0GNLMHJJPBH1V5UF2UR4I9NC6D1,8,7
237,1,object_08,object_02,459.5,2,1,225.90000003576,0.8888888888888888,2,object_03,5,3445,0,0,8,desert_4,2,memory-2step-stake-s,728,2827025,0.0-19.0-0.1-0.237,A39CG6GXC2ZJXB,371DNNCG57IGA1IMUX7DUPM8OSP8TA,37C0GNLMHJJPBH1V5UF2UR4I9NC6D1,2,1
238,3,object_06,object_07,1032.5999999642,6,1,294.40000003576,1.0,2,object_03,1,3454,0,1,9,library_4,2,memory-2step-stake-s,729,2835592,0.0-19.0-0.1-0.238,A39CG6GXC2ZJXB,371DNNCG57IGA1IMUX7DUPM8OSP8TA,37C0GNLMHJJPBH1V5UF2UR4I9NC6D1,6,5
239,1,object_02,object_08,634.60000002384,2,2,408.30000001192,1.0,2,object_03,5,3499,0,1,9,desert_7,2,memory-2step-stake-s,730,2844259,0.0-19.0-0.1-0.239,A39CG6GXC2ZJXB,371DNNCG57IGA1IMUX7DUPM8OSP8TA,37C0GNLMHJJPBH1V5UF2UR4I9NC6D1,1,2
240,2,object_05,object_09,773.89999997616,4,2,329.29999995232,0.5555555555555556,2,object_03,5,3524,0,2,5,forest_8,2,memory-2step-stake-s,731,2852449,0.0-19.0-0.1-0.240,A39CG6GXC2ZJXB,371DNNCG57IGA1IMUX7DUPM8OSP8TA,37C0GNLMHJJPBH1V5UF2UR4I9NC6D1,3,4
241,4,object_10,object_01,651.69999998808,8,1,250.10000002384,0.2222222222222222,2,object_03,5,3534,0,3,2,restaurant_5,2,memory-2step-stake-s,732,2860187,0.0-19.0-0.1-0.241,A39CG6GXC2ZJXB,371DNNCG57IGA1IMUX7DUPM8OSP8TA,37C0GNLMHJJPBH1V5UF2UR4I9NC6D1,8,7
242,1,object_08,object_02,388.10000002384,1,2,41.400000035763,0.2222222222222222,1,object_04,5,3544,0,2,3,desert_7,2,memory-2step-stake-s,733,2867701,0.0-19.0-0.1-0.242,A39CG6GXC2ZJXB,371DNNCG57IGA1IMUX7DUPM8OSP8TA,37C0GNLMHJJPBH1V5UF2UR4I9NC6D1,2,1
243,2,object_09,object_05,724.5,4,1,357.80000001192,0.3333333333333333,2,object_03,5,3559,0,2,3,forest_5,2,memory-2step-stake-s,734,2875657,0.0-19.0-0.1-0.243,A39CG6GXC2ZJXB,371DNNCG57IGA1IMUX7DUPM8OSP8TA,37C0GNLMHJJPBH1V5UF2UR4I9NC6D1,4,3
244,4,object_01,object_10,617.30000001192,8,2,197.30000001192,0.3333333333333333,2,object_03,5,3574,0,1,3,restaurant_5,2,memory-2step-stake-s,735,2883472,0.0-19.0-0.1-0.244,A39CG6GXC2ZJXB,371DNNCG57IGA1IMUX7DUPM8OSP8TA,37C0GNLMHJJPBH1V5UF2UR4I9NC6D1,7,8
245,3,object_07,object_06,648.0,5,1,315.70000004768,0.2222222222222222,1,object_04,5,3584,0,2,3,library_5,2,memory-2step-stake-s,736,2891290,0.0-19.0-0.1-0.245,A39CG6GXC2ZJXB,371DNNCG57IGA1IMUX7DUPM8OSP8TA,37C0GNLMHJJPBH1V5UF2UR4I9NC6D1,5,6
246,1,object_08,object_02,681.0,2,1,379.39999997616,0.3333333333333333,2,object_03,1,3587,0,1,3,desert_8,2,memory-2step-stake-s,737,2899282,0.0-19.0-0.1-0.246,A39CG6GXC2ZJXB,371DNNCG57IGA1IMUX7DUPM8OSP8TA,37C0GNLMHJJPBH1V5UF2UR4I9NC6D1,2,1
247,1,object_02,object_08,553.09999996424,2,2,231.40000003576,0.6666666666666666,2,object_03,5,3617,0,2,6,desert_8,2,memory-2step-stake-s,738,2907531,0.0-19.0-0.1-0.247,A39CG6GXC2ZJXB,371DNNCG57IGA1IMUX7DUPM8OSP8TA,37C0GNLMHJJPBH1V5UF2UR4I9NC6D1,1,2
248,1,object_02,object_08,593.30000001192,2,2,246.60000002384,0.7777777777777778,2,object_03,5,3652,0,3,7,desert_8,2,memory-2step-stake-s,739,2915860,0.0-19.0-0.1-0.248,A39CG6GXC2ZJXB,371DNNCG57IGA1IMUX7DUPM8OSP8TA,37C0GNLMHJJPBH1V5UF2UR4I9NC6D1,1,2
249,1,object_02,object_08,632.69999998808,2,2,383.20000004768,0.7777777777777778,2,object_03,5,3687,0,5,7,desert_6,2,memory-2step-stake-s,740,2924310,0.0-19.0-0.1-0.249,A39CG6GXC2ZJXB,371DNNCG57IGA1IMUX7DUPM8OSP8TA,37C0GNLMHJJPBH1V5UF2UR4I9NC6D1,1,2
250,3,object_06,object_07,741.69999998808,6,1,219.5,0.8888888888888888,2,object_03,5,3727,0,5,8,library_5,2,memory-2step-stake-s,741,2932674,0.0-19.0-0.1-0.250,A39CG6GXC2ZJXB,371DNNCG57IGA1IMUX7DUPM8OSP8TA,37C0GNLMHJJPBH1V5UF2UR4I9NC6D1,6,5
251,1,object_08,object_02,555.60000002384,2,1,363.5,1.0,2,object_03,5,3772,0,7,9,desert_7,2,memory-2step-stake-s,742,2941299,0.0-19.0-0.1-0.251,A39CG6GXC2ZJXB,371DNNCG57IGA1IMUX7DUPM8OSP8TA,37C0GNLMHJJPBH1V5UF2UR4I9NC6D1,2,1
252,3,object_06,object_07,541.0,6,1,158.39999997616,0.8888888888888888,2,object_03,1,3780,0,8,8,library_1,2,memory-2step-stake-s,743,2949624,0.0-19.0-0.1-0.252,A39CG6GXC2ZJXB,371DNNCG57IGA1IMUX7DUPM8OSP8TA,37C0GNLMHJJPBH1V5UF2UR4I9NC6D1,6,5
253,2,object_09,object_05,542.89999997616,4,1,368.80000001192,0.8888888888888888,2,object_03,5,3820,0,9,8,forest_5,2,memory-2step-stake-s,744,2958148,0.0-19.0-0.1-0.253,A39CG6GXC2ZJXB,371DNNCG57IGA1IMUX7DUPM8OSP8TA,37C0GNLMHJJPBH1V5UF2UR4I9NC6D1,4,3
254,2,object_09,object_05,388.10000002384,4,1,402.90000003576,0.7777777777777778,2,object_03,5,3855,0,9,7,forest_8,2,memory-2step-stake-s,745,2966615,0.0-19.0-0.1-0.254,A39CG6GXC2ZJXB,371DNNCG57IGA1IMUX7DUPM8OSP8TA,37C0GNLMHJJPBH1V5UF2UR4I9NC6D1,4,3
255,2,object_05,object_09,393.19999998808,4,2,285.89999997616,1.0,2,object_03,5,3900,0,5,9,forest_7,2,memory-2step-stake-s,746,2975172,0.0-19.0-0.1-0.255,A39CG6GXC2ZJXB,371DNNCG57IGA1IMUX7DUPM8OSP8TA,37C0GNLMHJJPBH1V5UF2UR4I9NC6D1,3,4
