,state1,stim_left,stim_right,rt_1,choice1,response1,rt_2,points,state2,stim_state2,stake,score,practice,rews1,rews2,background,high_arm,trial_type,trial_index,time_elapsed,internal_node_id,subid,hitid,assignmentid,stim_left_num,stim_right_num
0,4,object_06,object_10,1433.6000000006,8,1,1124.2000000002,0.3333333333333333,2,object_04,5,15,0,5,3,restaurant_2,1,memory-2step-stake-s,503,1377822,0.0-19.0-0.0-0.0,A5HEKO0GZ3GD9,382GHPVPIV7ASJXQ3FB9V025S7G34H,3JWH6J9I9WT43593QFAD1C241SUBNE,8,7
1,4,object_06,object_10,1231.9000000004,7,2,666.90000000037,0.5555555555555556,1,object_07,5,40,0,5,5,restaurant_2,1,memory-2step-stake-s,504,1386372,0.0-19.0-0.0-0.1,A5HEKO0GZ3GD9,382GHPVPIV7ASJXQ3FB9V025S7G34H,3JWH6J9I9WT43593QFAD1C241SUBNE,8,7
2,4,object_06,object_10,1408.0,7,2,789.90000000037,0.4444444444444444,1,object_07,5,60,0,4,5,restaurant_6,1,memory-2step-stake-s,505,1394978,0.0-19.0-0.0-0.2,A5HEKO0GZ3GD9,382GHPVPIV7ASJXQ3FB9V025S7G34H,3JWH6J9I9WT43593QFAD1C241SUBNE,8,7
3,4,object_06,object_10,-1.0,-1,-1,-1.0,0.0,-,0,5,60,0,2,4,restaurant_8,1,memory-2step-stake-s,506,1401596,0.0-19.0-0.0-0.3,A5HEKO0GZ3GD9,382GHPVPIV7ASJXQ3FB9V025S7G34H,3JWH6J9I9WT43593QFAD1C241SUBNE,8,7
4,4,object_06,object_10,719.79999999981,8,1,141.59999999963,0.1111111111111111,2,object_04,1,61,0,4,1,restaurant_6,1,memory-2step-stake-s,507,1409205,0.0-19.0-0.0-0.4,A5HEKO0GZ3GD9,382GHPVPIV7ASJXQ3FB9V025S7G34H,3JWH6J9I9WT43593QFAD1C241SUBNE,8,7
5,2,object_01,object_09,1137.0999999996,3,2,852.59999999963,0.7777777777777778,1,object_07,5,96,0,7,1,forest_4,1,memory-2step-stake-s,508,1418190,0.0-19.0-0.0-0.5,A5HEKO0GZ3GD9,382GHPVPIV7ASJXQ3FB9V025S7G34H,3JWH6J9I9WT43593QFAD1C241SUBNE,4,3
6,1,object_08,object_03,1370.7000000002,1,2,801.79999999981,0.8888888888888888,1,object_07,1,104,0,8,1,desert_2,1,memory-2step-stake-s,509,1427215,0.0-19.0-0.0-0.6,A5HEKO0GZ3GD9,382GHPVPIV7ASJXQ3FB9V025S7G34H,3JWH6J9I9WT43593QFAD1C241SUBNE,2,1
7,4,object_10,object_06,1388.3999999994,7,1,673.40000000037,0.6666666666666666,1,object_07,5,134,0,6,3,restaurant_7,1,memory-2step-stake-s,510,1435846,0.0-19.0-0.0-0.7,A5HEKO0GZ3GD9,382GHPVPIV7ASJXQ3FB9V025S7G34H,3JWH6J9I9WT43593QFAD1C241SUBNE,7,8
8,4,object_06,object_10,950.30000000075,7,2,608.79999999981,0.6666666666666666,1,object_07,5,164,0,6,2,restaurant_6,1,memory-2step-stake-s,511,1444412,0.0-19.0-0.0-0.8,A5HEKO0GZ3GD9,382GHPVPIV7ASJXQ3FB9V025S7G34H,3JWH6J9I9WT43593QFAD1C241SUBNE,8,7
9,1,object_03,object_08,-1.0,-1,-1,-1.0,0.0,-,0,1,164,0,3,4,desert_7,1,memory-2step-stake-s,512,1450984,0.0-19.0-0.0-0.9,A5HEKO0GZ3GD9,382GHPVPIV7ASJXQ3FB9V025S7G34H,3JWH6J9I9WT43593QFAD1C241SUBNE,1,2
10,2,object_09,object_01,1459.1000000006,3,1,514.39999999944,0.2222222222222222,1,object_07,5,174,0,2,5,forest_5,1,memory-2step-stake-s,513,1459043,0.0-19.0-0.0-0.10,A5HEKO0GZ3GD9,382GHPVPIV7ASJXQ3FB9V025S7G34H,3JWH6J9I9WT43593QFAD1C241SUBNE,3,4
11,2,object_01,object_09,997.29999999981,3,2,567.0,0.0,1,object_07,5,174,0,0,3,forest_5,1,memory-2step-stake-s,514,1466926,0.0-19.0-0.0-0.11,A5HEKO0GZ3GD9,382GHPVPIV7ASJXQ3FB9V025S7G34H,3JWH6J9I9WT43593QFAD1C241SUBNE,4,3
12,2,object_01,object_09,915.39999999944,4,1,573.0,0.4444444444444444,2,object_04,1,178,0,0,4,forest_6,1,memory-2step-stake-s,515,1475297,0.0-19.0-0.0-0.12,A5HEKO0GZ3GD9,382GHPVPIV7ASJXQ3FB9V025S7G34H,3JWH6J9I9WT43593QFAD1C241SUBNE,4,3
13,1,object_03,object_08,1378.5,2,2,745.40000000037,0.3333333333333333,2,object_04,5,193,0,0,3,desert_2,1,memory-2step-stake-s,516,1483714,0.0-19.0-0.0-0.13,A5HEKO0GZ3GD9,382GHPVPIV7ASJXQ3FB9V025S7G34H,3JWH6J9I9WT43593QFAD1C241SUBNE,1,2
14,3,object_02,object_05,1239.4000000004,5,1,519.0,0.0,1,object_07,1,193,0,0,7,library_4,1,memory-2step-stake-s,517,1491545,0.0-19.0-0.0-0.14,A5HEKO0GZ3GD9,382GHPVPIV7ASJXQ3FB9V025S7G34H,3JWH6J9I9WT43593QFAD1C241SUBNE,5,6
15,3,object_05,object_02,1361.2000000002,5,2,573.69999999925,0.1111111111111111,1,object_07,5,198,0,1,8,library_4,1,memory-2step-stake-s,518,1499579,0.0-19.0-0.0-0.15,A5HEKO0GZ3GD9,382GHPVPIV7ASJXQ3FB9V025S7G34H,3JWH6J9I9WT43593QFAD1C241SUBNE,6,5
16,2,object_09,object_01,1079.7999999998,4,2,489.10000000056,1.0,2,object_04,1,207,0,1,9,forest_7,1,memory-2step-stake-s,519,1508404,0.0-19.0-0.0-0.16,A5HEKO0GZ3GD9,382GHPVPIV7ASJXQ3FB9V025S7G34H,3JWH6J9I9WT43593QFAD1C241SUBNE,3,4
17,1,object_03,object_08,1064.1999999993,2,2,464.19999999925,0.4444444444444444,2,object_04,5,227,0,5,4,desert_6,1,memory-2step-stake-s,520,1516658,0.0-19.0-0.0-0.17,A5HEKO0GZ3GD9,382GHPVPIV7ASJXQ3FB9V025S7G34H,3JWH6J9I9WT43593QFAD1C241SUBNE,1,2
18,1,object_08,object_03,-1.0,-1,-1,-1.0,0.0,-,0,5,227,0,6,2,desert_2,1,memory-2step-stake-s,521,1523253,0.0-19.0-0.0-0.18,A5HEKO0GZ3GD9,382GHPVPIV7ASJXQ3FB9V025S7G34H,3JWH6J9I9WT43593QFAD1C241SUBNE,2,1
19,4,object_10,object_06,1020.2999999998,8,2,515.29999999981,0.5555555555555556,2,object_04,5,252,0,7,5,restaurant_8,1,memory-2step-stake-s,522,1531629,0.0-19.0-0.0-0.19,A5HEKO0GZ3GD9,382GHPVPIV7ASJXQ3FB9V025S7G34H,3JWH6J9I9WT43593QFAD1C241SUBNE,7,8
20,3,object_05,object_02,1086.2000000002,5,2,612.29999999981,0.6666666666666666,1,object_07,5,282,0,6,3,library_2,1,memory-2step-stake-s,523,1540203,0.0-19.0-0.0-0.20,A5HEKO0GZ3GD9,382GHPVPIV7ASJXQ3FB9V025S7G34H,3JWH6J9I9WT43593QFAD1C241SUBNE,6,5
21,3,object_02,object_05,723.79999999981,5,1,696.20000000019,0.4444444444444444,1,object_07,5,302,0,4,2,library_2,1,memory-2step-stake-s,524,1548646,0.0-19.0-0.0-0.21,A5HEKO0GZ3GD9,382GHPVPIV7ASJXQ3FB9V025S7G34H,3JWH6J9I9WT43593QFAD1C241SUBNE,5,6
22,2,object_09,object_01,947.20000000019,4,2,647.20000000019,0.2222222222222222,2,object_04,1,304,0,7,2,forest_6,1,memory-2step-stake-s,525,1556816,0.0-19.0-0.0-0.22,A5HEKO0GZ3GD9,382GHPVPIV7ASJXQ3FB9V025S7G34H,3JWH6J9I9WT43593QFAD1C241SUBNE,3,4
23,3,object_05,object_02,968.90000000037,6,1,836.09999999963,0.2222222222222222,2,object_04,5,314,0,5,2,library_2,1,memory-2step-stake-s,526,1565158,0.0-19.0-0.0-0.23,A5HEKO0GZ3GD9,382GHPVPIV7ASJXQ3FB9V025S7G34H,3JWH6J9I9WT43593QFAD1C241SUBNE,6,5
24,3,object_05,object_02,1044.6000000006,5,2,552.19999999925,0.4444444444444444,1,object_07,1,318,0,4,5,library_3,1,memory-2step-stake-s,527,1573440,0.0-19.0-0.0-0.24,A5HEKO0GZ3GD9,382GHPVPIV7ASJXQ3FB9V025S7G34H,3JWH6J9I9WT43593QFAD1C241SUBNE,6,5
25,2,object_09,object_01,1488.5999999996,3,1,604.59999999963,0.4444444444444444,1,object_07,1,322,0,4,4,forest_4,1,memory-2step-stake-s,528,1581815,0.0-19.0-0.0-0.25,A5HEKO0GZ3GD9,382GHPVPIV7ASJXQ3FB9V025S7G34H,3JWH6J9I9WT43593QFAD1C241SUBNE,3,4
26,2,object_01,object_09,773.29999999981,3,2,579.79999999981,0.5555555555555556,1,object_07,1,327,0,5,6,forest_6,1,memory-2step-stake-s,529,1590221,0.0-19.0-0.0-0.26,A5HEKO0GZ3GD9,382GHPVPIV7ASJXQ3FB9V025S7G34H,3JWH6J9I9WT43593QFAD1C241SUBNE,4,3
27,2,object_01,object_09,1035.0,3,2,566.90000000037,0.3333333333333333,1,object_07,1,330,0,3,6,forest_5,1,memory-2step-stake-s,530,1598411,0.0-19.0-0.0-0.27,A5HEKO0GZ3GD9,382GHPVPIV7ASJXQ3FB9V025S7G34H,3JWH6J9I9WT43593QFAD1C241SUBNE,4,3
28,2,object_01,object_09,1269.2000000002,4,1,434.29999999981,0.4444444444444444,2,object_04,1,334,0,1,4,forest_4,1,memory-2step-stake-s,531,1606599,0.0-19.0-0.0-0.28,A5HEKO0GZ3GD9,382GHPVPIV7ASJXQ3FB9V025S7G34H,3JWH6J9I9WT43593QFAD1C241SUBNE,4,3
29,3,object_02,object_05,941.70000000019,5,1,660.30000000075,0.3333333333333333,1,object_07,5,349,0,3,3,library_1,1,memory-2step-stake-s,532,1614894,0.0-19.0-0.0-0.29,A5HEKO0GZ3GD9,382GHPVPIV7ASJXQ3FB9V025S7G34H,3JWH6J9I9WT43593QFAD1C241SUBNE,5,6
30,3,object_05,object_02,710.59999999963,6,1,526.70000000019,0.6666666666666666,2,object_04,5,379,0,1,6,library_2,1,memory-2step-stake-s,533,1623463,0.0-19.0-0.0-0.30,A5HEKO0GZ3GD9,382GHPVPIV7ASJXQ3FB9V025S7G34H,3JWH6J9I9WT43593QFAD1C241SUBNE,6,5
31,1,object_08,object_03,1037.2000000002,1,2,472.29999999981,0.1111111111111111,1,object_07,1,380,0,1,8,desert_1,1,memory-2step-stake-s,534,1631310,0.0-19.0-0.0-0.31,A5HEKO0GZ3GD9,382GHPVPIV7ASJXQ3FB9V025S7G34H,3JWH6J9I9WT43593QFAD1C241SUBNE,2,1
32,4,object_10,object_06,1061.4000000004,8,2,517.90000000037,0.6666666666666666,2,object_04,5,410,0,2,6,restaurant_7,1,memory-2step-stake-s,535,1639764,0.0-19.0-0.0-0.32,A5HEKO0GZ3GD9,382GHPVPIV7ASJXQ3FB9V025S7G34H,3JWH6J9I9WT43593QFAD1C241SUBNE,7,8
33,2,object_01,object_09,914.5,4,1,591.79999999981,1.0,2,object_04,5,455,0,0,9,forest_5,1,memory-2step-stake-s,536,1648615,0.0-19.0-0.0-0.33,A5HEKO0GZ3GD9,382GHPVPIV7ASJXQ3FB9V025S7G34H,3JWH6J9I9WT43593QFAD1C241SUBNE,4,3
34,1,object_03,object_08,863.69999999925,2,2,429.5,0.4444444444444444,2,object_04,1,459,0,4,4,desert_6,1,memory-2step-stake-s,537,1656763,0.0-19.0-0.0-0.34,A5HEKO0GZ3GD9,382GHPVPIV7ASJXQ3FB9V025S7G34H,3JWH6J9I9WT43593QFAD1C241SUBNE,1,2
35,3,object_02,object_05,860.89999999944,5,1,520.79999999981,0.5555555555555556,1,object_07,5,484,0,5,3,library_1,1,memory-2step-stake-s,538,1665107,0.0-19.0-0.0-0.35,A5HEKO0GZ3GD9,382GHPVPIV7ASJXQ3FB9V025S7G34H,3JWH6J9I9WT43593QFAD1C241SUBNE,5,6
36,2,object_01,object_09,1010.0,4,1,493.90000000037,0.2222222222222222,2,object_04,1,486,0,4,2,forest_4,1,memory-2step-stake-s,539,1673084,0.0-19.0-0.0-0.36,A5HEKO0GZ3GD9,382GHPVPIV7ASJXQ3FB9V025S7G34H,3JWH6J9I9WT43593QFAD1C241SUBNE,4,3
37,4,object_06,object_10,945.40000000037,7,2,593.70000000019,0.4444444444444444,1,object_07,5,506,0,4,0,restaurant_2,1,memory-2step-stake-s,540,1681380,0.0-19.0-0.0-0.37,A5HEKO0GZ3GD9,382GHPVPIV7ASJXQ3FB9V025S7G34H,3JWH6J9I9WT43593QFAD1C241SUBNE,8,7
38,3,object_05,object_02,793.5,6,1,658.29999999981,0.3333333333333333,2,object_04,5,521,0,5,3,library_3,1,memory-2step-stake-s,541,1689643,0.0-19.0-0.0-0.38,A5HEKO0GZ3GD9,382GHPVPIV7ASJXQ3FB9V025S7G34H,3JWH6J9I9WT43593QFAD1C241SUBNE,6,5
39,2,object_09,object_01,939.40000000037,3,1,567.90000000037,0.6666666666666666,1,object_07,1,527,0,6,5,forest_7,1,memory-2step-stake-s,542,1698231,0.0-19.0-0.0-0.39,A5HEKO0GZ3GD9,382GHPVPIV7ASJXQ3FB9V025S7G34H,3JWH6J9I9WT43593QFAD1C241SUBNE,3,4
40,4,object_10,object_06,909.19999999925,8,2,538.5,0.7777777777777778,2,object_04,1,534,0,6,7,restaurant_6,1,memory-2step-stake-s,543,1706831,0.0-19.0-0.0-0.40,A5HEKO0GZ3GD9,382GHPVPIV7ASJXQ3FB9V025S7G34H,3JWH6J9I9WT43593QFAD1C241SUBNE,7,8
41,4,object_06,object_10,1033.9000000004,8,1,663.39999999944,0.3333333333333333,2,object_04,1,537,0,4,3,restaurant_7,1,memory-2step-stake-s,544,1715126,0.0-19.0-0.0-0.41,A5HEKO0GZ3GD9,382GHPVPIV7ASJXQ3FB9V025S7G34H,3JWH6J9I9WT43593QFAD1C241SUBNE,8,7
42,1,object_03,object_08,955.39999999944,1,1,523.0,0.4444444444444444,1,object_07,5,557,0,4,4,desert_2,1,memory-2step-stake-s,545,1723415,0.0-19.0-0.0-0.42,A5HEKO0GZ3GD9,382GHPVPIV7ASJXQ3FB9V025S7G34H,3JWH6J9I9WT43593QFAD1C241SUBNE,1,2
43,4,object_10,object_06,784.29999999981,8,2,475.79999999981,0.7777777777777778,2,object_04,5,592,0,2,7,restaurant_7,1,memory-2step-stake-s,546,1731986,0.0-19.0-0.0-0.43,A5HEKO0GZ3GD9,382GHPVPIV7ASJXQ3FB9V025S7G34H,3JWH6J9I9WT43593QFAD1C241SUBNE,7,8
44,3,object_02,object_05,758.09999999963,6,2,572.79999999981,0.5555555555555556,2,object_04,5,617,0,3,5,library_3,1,memory-2step-stake-s,547,1740408,0.0-19.0-0.0-0.44,A5HEKO0GZ3GD9,382GHPVPIV7ASJXQ3FB9V025S7G34H,3JWH6J9I9WT43593QFAD1C241SUBNE,5,6
45,4,object_10,object_06,1080.3999999994,8,2,900.59999999963,0.6666666666666666,2,object_04,5,647,0,7,6,restaurant_6,1,memory-2step-stake-s,548,1749294,0.0-19.0-0.0-0.45,A5HEKO0GZ3GD9,382GHPVPIV7ASJXQ3FB9V025S7G34H,3JWH6J9I9WT43593QFAD1C241SUBNE,7,8
46,4,object_06,object_10,681.29999999981,8,1,645.60000000056,0.6666666666666666,2,object_04,5,677,0,6,6,restaurant_2,1,memory-2step-stake-s,549,1757945,0.0-19.0-0.0-0.46,A5HEKO0GZ3GD9,382GHPVPIV7ASJXQ3FB9V025S7G34H,3JWH6J9I9WT43593QFAD1C241SUBNE,8,7
47,3,object_05,object_02,908.5,6,1,613.09999999963,0.4444444444444444,2,object_04,1,681,0,4,4,library_4,1,memory-2step-stake-s,550,1766317,0.0-19.0-0.0-0.47,A5HEKO0GZ3GD9,382GHPVPIV7ASJXQ3FB9V025S7G34H,3JWH6J9I9WT43593QFAD1C241SUBNE,6,5
48,4,object_10,object_06,1026.0,8,2,551.5,0.4444444444444444,2,object_04,1,685,0,8,4,restaurant_2,1,memory-2step-stake-s,551,1774599,0.0-19.0-0.0-0.48,A5HEKO0GZ3GD9,382GHPVPIV7ASJXQ3FB9V025S7G34H,3JWH6J9I9WT43593QFAD1C241SUBNE,7,8
49,4,object_10,object_06,989.0,8,2,633.39999999944,0.0,2,object_04,5,685,0,6,0,restaurant_7,1,memory-2step-stake-s,552,1782539,0.0-19.0-0.0-0.49,A5HEKO0GZ3GD9,382GHPVPIV7ASJXQ3FB9V025S7G34H,3JWH6J9I9WT43593QFAD1C241SUBNE,7,8
50,3,object_05,object_02,799.29999999981,5,2,771.79999999981,0.6666666666666666,1,object_07,5,715,0,6,4,library_3,1,memory-2step-stake-s,553,1791299,0.0-19.0-0.0-0.50,A5HEKO0GZ3GD9,382GHPVPIV7ASJXQ3FB9V025S7G34H,3JWH6J9I9WT43593QFAD1C241SUBNE,6,5
51,1,object_03,object_08,1308.3999999994,1,1,595.90000000037,0.4444444444444444,1,object_07,1,719,0,4,4,desert_2,1,memory-2step-stake-s,554,1799659,0.0-19.0-0.0-0.51,A5HEKO0GZ3GD9,382GHPVPIV7ASJXQ3FB9V025S7G34H,3JWH6J9I9WT43593QFAD1C241SUBNE,1,2
52,3,object_05,object_02,1057.1999999993,6,1,-1.0,0.0,2,object_04,1,719,0,4,3,library_2,1,memory-2step-stake-s,555,1808235,0.0-19.0-0.0-0.52,A5HEKO0GZ3GD9,382GHPVPIV7ASJXQ3FB9V025S7G34H,3JWH6J9I9WT43593QFAD1C241SUBNE,6,5
53,1,object_08,object_03,1109.3000000007,2,1,-1.0,0.0,2,object_04,1,719,0,5,1,desert_7,1,memory-2step-stake-s,556,1816825,0.0-19.0-0.0-0.53,A5HEKO0GZ3GD9,382GHPVPIV7ASJXQ3FB9V025S7G34H,3JWH6J9I9WT43593QFAD1C241SUBNE,2,1
54,1,object_03,object_08,952.0,2,2,-1.0,0.0,2,object_04,5,719,0,3,3,desert_1,1,memory-2step-stake-s,557,1825433,0.0-19.0-0.0-0.54,A5HEKO0GZ3GD9,382GHPVPIV7ASJXQ3FB9V025S7G34H,3JWH6J9I9WT43593QFAD1C241SUBNE,1,2
55,2,object_09,object_01,1041.1000000006,3,1,1063.3999999994,0.5555555555555556,1,object_07,1,724,0,5,4,forest_6,1,memory-2step-stake-s,558,1834391,0.0-19.0-0.0-0.55,A5HEKO0GZ3GD9,382GHPVPIV7ASJXQ3FB9V025S7G34H,3JWH6J9I9WT43593QFAD1C241SUBNE,3,4
56,1,object_03,object_08,1218.8999999994,1,1,533.79999999981,0.8888888888888888,1,object_07,1,732,0,8,6,desert_1,1,memory-2step-stake-s,559,1843128,0.0-19.0-0.0-0.56,A5HEKO0GZ3GD9,382GHPVPIV7ASJXQ3FB9V025S7G34H,3JWH6J9I9WT43593QFAD1C241SUBNE,1,2
57,4,object_10,object_06,1158.5999999996,8,2,640.20000000019,0.7777777777777778,2,object_04,5,767,0,9,7,restaurant_6,1,memory-2step-stake-s,560,1851847,0.0-19.0-0.0-0.57,A5HEKO0GZ3GD9,382GHPVPIV7ASJXQ3FB9V025S7G34H,3JWH6J9I9WT43593QFAD1C241SUBNE,7,8
58,4,object_10,object_06,1156.7000000002,7,1,493.90000000037,0.8888888888888888,1,object_07,1,775,0,8,7,restaurant_6,1,memory-2step-stake-s,561,1860570,0.0-19.0-0.0-0.58,A5HEKO0GZ3GD9,382GHPVPIV7ASJXQ3FB9V025S7G34H,3JWH6J9I9WT43593QFAD1C241SUBNE,7,8
59,1,object_08,object_03,1257.6000000006,1,2,601.90000000037,1.0,1,object_07,5,820,0,9,4,desert_7,1,memory-2step-stake-s,562,1869490,0.0-19.0-0.0-0.59,A5HEKO0GZ3GD9,382GHPVPIV7ASJXQ3FB9V025S7G34H,3JWH6J9I9WT43593QFAD1C241SUBNE,2,1
60,1,object_08,object_03,1268.0999999996,1,2,542.70000000019,1.0,1,object_07,1,829,0,9,5,desert_2,1,memory-2step-stake-s,563,1878342,0.0-19.0-0.0-0.60,A5HEKO0GZ3GD9,382GHPVPIV7ASJXQ3FB9V025S7G34H,3JWH6J9I9WT43593QFAD1C241SUBNE,2,1
61,3,object_05,object_02,1084.0,5,2,573.0,0.8888888888888888,1,object_07,1,837,0,8,8,library_1,1,memory-2step-stake-s,564,1887141,0.0-19.0-0.0-0.61,A5HEKO0GZ3GD9,382GHPVPIV7ASJXQ3FB9V025S7G34H,3JWH6J9I9WT43593QFAD1C241SUBNE,6,5
62,4,object_06,object_10,1109.2000000002,8,1,551.40000000037,0.7777777777777778,2,object_04,5,872,0,7,7,restaurant_6,1,memory-2step-stake-s,565,1895809,0.0-19.0-0.0-0.62,A5HEKO0GZ3GD9,382GHPVPIV7ASJXQ3FB9V025S7G34H,3JWH6J9I9WT43593QFAD1C241SUBNE,8,7
63,1,object_08,object_03,1104.0999999996,1,2,505.70000000019,1.0,1,object_07,1,881,0,9,7,desert_1,1,memory-2step-stake-s,566,1904642,0.0-19.0-0.0-0.63,A5HEKO0GZ3GD9,382GHPVPIV7ASJXQ3FB9V025S7G34H,3JWH6J9I9WT43593QFAD1C241SUBNE,2,1
64,2,object_01,object_09,884.5,4,1,449.20000000019,0.4444444444444444,2,object_04,5,901,0,2,4,forest_5,1,memory-2step-stake-s,567,1912894,0.0-19.0-0.0-0.64,A5HEKO0GZ3GD9,382GHPVPIV7ASJXQ3FB9V025S7G34H,3JWH6J9I9WT43593QFAD1C241SUBNE,4,3
65,4,object_10,object_06,924.09999999963,7,1,557.59999999963,0.3333333333333333,1,object_07,5,916,0,3,6,restaurant_2,1,memory-2step-stake-s,568,1921111,0.0-19.0-0.0-0.65,A5HEKO0GZ3GD9,382GHPVPIV7ASJXQ3FB9V025S7G34H,3JWH6J9I9WT43593QFAD1C241SUBNE,7,8
66,1,object_03,object_08,1156.0999999996,2,2,420.0,0.6666666666666666,2,object_04,1,922,0,4,6,desert_2,1,memory-2step-stake-s,569,1929540,0.0-19.0-0.0-0.66,A5HEKO0GZ3GD9,382GHPVPIV7ASJXQ3FB9V025S7G34H,3JWH6J9I9WT43593QFAD1C241SUBNE,1,2
67,2,object_09,object_01,845.29999999981,3,1,791.89999999944,0.6666666666666666,1,object_07,5,952,0,6,6,forest_7,1,memory-2step-stake-s,570,1938329,0.0-19.0-0.0-0.67,A5HEKO0GZ3GD9,382GHPVPIV7ASJXQ3FB9V025S7G34H,3JWH6J9I9WT43593QFAD1C241SUBNE,3,4
68,3,object_05,object_02,820.59999999963,6,1,615.5,0.8888888888888888,2,object_04,5,992,0,4,8,library_1,1,memory-2step-stake-s,571,1947190,0.0-19.0-0.0-0.68,A5HEKO0GZ3GD9,382GHPVPIV7ASJXQ3FB9V025S7G34H,3JWH6J9I9WT43593QFAD1C241SUBNE,6,5
69,3,object_02,object_05,1328.5999999996,5,1,846.0,0.3333333333333333,1,object_07,5,1007,0,3,5,library_4,1,memory-2step-stake-s,572,1955694,0.0-19.0-0.0-0.69,A5HEKO0GZ3GD9,382GHPVPIV7ASJXQ3FB9V025S7G34H,3JWH6J9I9WT43593QFAD1C241SUBNE,5,6
70,1,object_08,object_03,944.90000000037,1,2,443.20000000019,0.4444444444444444,1,object_07,1,1011,0,4,4,desert_2,1,memory-2step-stake-s,573,1963878,0.0-19.0-0.0-0.70,A5HEKO0GZ3GD9,382GHPVPIV7ASJXQ3FB9V025S7G34H,3JWH6J9I9WT43593QFAD1C241SUBNE,2,1
71,1,object_03,object_08,1081.7000000002,2,2,507.0,0.4444444444444444,2,object_04,1,1015,0,3,4,desert_7,1,memory-2step-stake-s,574,1972156,0.0-19.0-0.0-0.71,A5HEKO0GZ3GD9,382GHPVPIV7ASJXQ3FB9V025S7G34H,3JWH6J9I9WT43593QFAD1C241SUBNE,1,2
72,2,object_09,object_01,776.59999999963,3,1,561.10000000056,0.4444444444444444,1,object_07,1,1019,0,4,3,forest_7,1,memory-2step-stake-s,575,1980470,0.0-19.0-0.0-0.72,A5HEKO0GZ3GD9,382GHPVPIV7ASJXQ3FB9V025S7G34H,3JWH6J9I9WT43593QFAD1C241SUBNE,3,4
73,4,object_10,object_06,763.70000000019,8,2,402.5,0.5555555555555556,2,object_04,1,1024,0,2,5,restaurant_2,1,memory-2step-stake-s,576,1988681,0.0-19.0-0.0-0.73,A5HEKO0GZ3GD9,382GHPVPIV7ASJXQ3FB9V025S7G34H,3JWH6J9I9WT43593QFAD1C241SUBNE,7,8
74,3,object_02,object_05,798.90000000037,6,2,518.40000000037,0.2222222222222222,2,object_04,5,1034,0,2,2,library_3,1,memory-2step-stake-s,577,1996679,0.0-19.0-0.0-0.74,A5HEKO0GZ3GD9,382GHPVPIV7ASJXQ3FB9V025S7G34H,3JWH6J9I9WT43593QFAD1C241SUBNE,5,6
75,3,object_05,object_02,1047.9000000004,5,2,467.79999999981,0.2222222222222222,1,object_07,5,1044,0,2,1,library_2,1,memory-2step-stake-s,578,2004643,0.0-19.0-0.0-0.75,A5HEKO0GZ3GD9,382GHPVPIV7ASJXQ3FB9V025S7G34H,3JWH6J9I9WT43593QFAD1C241SUBNE,6,5
76,3,object_05,object_02,1015.8000000007,6,1,818.30000000075,0.1111111111111111,2,object_04,5,1049,0,2,1,library_3,1,memory-2step-stake-s,579,2012879,0.0-19.0-0.0-0.76,A5HEKO0GZ3GD9,382GHPVPIV7ASJXQ3FB9V025S7G34H,3JWH6J9I9WT43593QFAD1C241SUBNE,6,5
77,3,object_05,object_02,862.79999999981,5,2,482.10000000056,0.1111111111111111,1,object_07,5,1054,0,1,1,library_1,1,memory-2step-stake-s,580,2020796,0.0-19.0-0.0-0.77,A5HEKO0GZ3GD9,382GHPVPIV7ASJXQ3FB9V025S7G34H,3JWH6J9I9WT43593QFAD1C241SUBNE,6,5
78,2,object_09,object_01,749.09999999963,3,1,436.5,0.2222222222222222,1,object_07,1,1056,0,2,4,forest_7,1,memory-2step-stake-s,581,2028739,0.0-19.0-0.0-0.78,A5HEKO0GZ3GD9,382GHPVPIV7ASJXQ3FB9V025S7G34H,3JWH6J9I9WT43593QFAD1C241SUBNE,3,4
79,2,object_09,object_01,766.59999999963,4,2,878.5,0.1111111111111111,2,object_04,1,1057,0,2,1,forest_5,1,memory-2step-stake-s,582,2037071,0.0-19.0-0.0-0.79,A5HEKO0GZ3GD9,382GHPVPIV7ASJXQ3FB9V025S7G34H,3JWH6J9I9WT43593QFAD1C241SUBNE,3,4
80,3,object_02,object_05,1096.7000000002,6,2,656.5,0.2222222222222222,2,object_04,5,1067,0,2,2,library_2,1,memory-2step-stake-s,583,2045260,0.0-19.0-0.0-0.80,A5HEKO0GZ3GD9,382GHPVPIV7ASJXQ3FB9V025S7G34H,3JWH6J9I9WT43593QFAD1C241SUBNE,5,6
81,3,object_02,object_05,609.20000000019,5,1,621.90000000037,0.7777777777777778,1,object_07,5,1102,0,7,4,library_2,1,memory-2step-stake-s,584,2053941,0.0-19.0-0.0-0.81,A5HEKO0GZ3GD9,382GHPVPIV7ASJXQ3FB9V025S7G34H,3JWH6J9I9WT43593QFAD1C241SUBNE,5,6
82,2,object_01,object_09,1085.0,3,2,550.40000000037,0.5555555555555556,1,object_07,5,1127,0,5,4,forest_5,1,memory-2step-stake-s,585,2062312,0.0-19.0-0.0-0.82,A5HEKO0GZ3GD9,382GHPVPIV7ASJXQ3FB9V025S7G34H,3JWH6J9I9WT43593QFAD1C241SUBNE,4,3
83,1,object_08,object_03,1135.7000000002,1,2,497.29999999981,0.2222222222222222,1,object_07,1,1129,0,2,2,desert_6,1,memory-2step-stake-s,586,2070331,0.0-19.0-0.0-0.83,A5HEKO0GZ3GD9,382GHPVPIV7ASJXQ3FB9V025S7G34H,3JWH6J9I9WT43593QFAD1C241SUBNE,2,1
84,4,object_10,object_06,991.79999999981,8,2,542.09999999963,0.2222222222222222,2,object_04,5,1139,0,5,2,restaurant_8,1,memory-2step-stake-s,587,2078408,0.0-19.0-0.0-0.84,A5HEKO0GZ3GD9,382GHPVPIV7ASJXQ3FB9V025S7G34H,3JWH6J9I9WT43593QFAD1C241SUBNE,7,8
85,3,object_02,object_05,695.5,5,1,524.29999999981,0.6666666666666666,1,object_07,5,1169,0,6,3,library_3,1,memory-2step-stake-s,588,2086913,0.0-19.0-0.0-0.85,A5HEKO0GZ3GD9,382GHPVPIV7ASJXQ3FB9V025S7G34H,3JWH6J9I9WT43593QFAD1C241SUBNE,5,6
86,4,object_10,object_06,1029.0,7,1,584.90000000037,0.8888888888888888,1,object_07,1,1177,0,8,5,restaurant_8,1,memory-2step-stake-s,589,2095665,0.0-19.0-0.0-0.86,A5HEKO0GZ3GD9,382GHPVPIV7ASJXQ3FB9V025S7G34H,3JWH6J9I9WT43593QFAD1C241SUBNE,7,8
87,1,object_03,object_08,1083.5,2,2,433.59999999963,0.4444444444444444,2,object_04,1,1181,0,4,4,desert_1,1,memory-2step-stake-s,590,2103867,0.0-19.0-0.0-0.87,A5HEKO0GZ3GD9,382GHPVPIV7ASJXQ3FB9V025S7G34H,3JWH6J9I9WT43593QFAD1C241SUBNE,1,2
88,4,object_06,object_10,1324.2999999998,8,1,784.0,0.5555555555555556,2,object_04,5,1206,0,6,5,restaurant_6,1,memory-2step-stake-s,591,2112540,0.0-19.0-0.0-0.88,A5HEKO0GZ3GD9,382GHPVPIV7ASJXQ3FB9V025S7G34H,3JWH6J9I9WT43593QFAD1C241SUBNE,8,7
89,3,object_05,object_02,1007.5999999996,5,2,564.89999999944,0.4444444444444444,1,object_07,5,1226,0,4,3,library_4,1,memory-2step-stake-s,592,2120857,0.0-19.0-0.0-0.89,A5HEKO0GZ3GD9,382GHPVPIV7ASJXQ3FB9V025S7G34H,3JWH6J9I9WT43593QFAD1C241SUBNE,6,5
90,4,object_06,object_10,1047.0,8,1,477.70000000019,0.4444444444444444,2,object_04,5,1246,0,3,4,restaurant_6,1,memory-2step-stake-s,593,2129089,0.0-19.0-0.0-0.90,A5HEKO0GZ3GD9,382GHPVPIV7ASJXQ3FB9V025S7G34H,3JWH6J9I9WT43593QFAD1C241SUBNE,8,7
91,3,object_02,object_05,1229.6999999993,6,2,584.29999999981,0.2222222222222222,2,object_04,1,1248,0,4,2,library_2,1,memory-2step-stake-s,594,2137205,0.0-19.0-0.0-0.91,A5HEKO0GZ3GD9,382GHPVPIV7ASJXQ3FB9V025S7G34H,3JWH6J9I9WT43593QFAD1C241SUBNE,5,6
92,2,object_01,object_09,1148.2000000002,4,1,491.0,0.4444444444444444,2,object_04,1,1252,0,4,4,forest_4,1,memory-2step-stake-s,595,2145470,0.0-19.0-0.0-0.92,A5HEKO0GZ3GD9,382GHPVPIV7ASJXQ3FB9V025S7G34H,3JWH6J9I9WT43593QFAD1C241SUBNE,4,3
93,3,object_05,object_02,744.29999999981,5,2,453.60000000056,0.4444444444444444,1,object_07,5,1272,0,4,1,library_4,1,memory-2step-stake-s,596,2153689,0.0-19.0-0.0-0.93,A5HEKO0GZ3GD9,382GHPVPIV7ASJXQ3FB9V025S7G34H,3JWH6J9I9WT43593QFAD1C241SUBNE,6,5
94,3,object_05,object_02,915.90000000037,5,2,463.09999999963,0.2222222222222222,1,object_07,5,1282,0,2,1,library_2,1,memory-2step-stake-s,597,2161681,0.0-19.0-0.0-0.94,A5HEKO0GZ3GD9,382GHPVPIV7ASJXQ3FB9V025S7G34H,3JWH6J9I9WT43593QFAD1C241SUBNE,6,5
95,4,object_06,object_10,995.70000000019,8,1,595.70000000019,0.1111111111111111,2,object_04,1,1283,0,2,1,restaurant_8,1,memory-2step-stake-s,598,2169670,0.0-19.0-0.0-0.95,A5HEKO0GZ3GD9,382GHPVPIV7ASJXQ3FB9V025S7G34H,3JWH6J9I9WT43593QFAD1C241SUBNE,8,7
96,4,object_06,object_10,865.60000000056,7,2,556.0,0.1111111111111111,1,object_07,5,1288,0,1,3,restaurant_8,1,memory-2step-stake-s,599,2177659,0.0-19.0-0.0-0.96,A5HEKO0GZ3GD9,382GHPVPIV7ASJXQ3FB9V025S7G34H,3JWH6J9I9WT43593QFAD1C241SUBNE,8,7
97,2,object_09,object_01,772.59999999963,3,1,596.20000000019,0.2222222222222222,1,object_07,1,1290,0,2,1,forest_7,1,memory-2step-stake-s,600,2185782,0.0-19.0-0.0-0.97,A5HEKO0GZ3GD9,382GHPVPIV7ASJXQ3FB9V025S7G34H,3JWH6J9I9WT43593QFAD1C241SUBNE,3,4
98,3,object_05,object_02,847.60000000056,5,2,411.10000000056,0.2222222222222222,1,object_07,5,1300,0,2,1,library_1,1,memory-2step-stake-s,601,2193754,0.0-19.0-0.0-0.98,A5HEKO0GZ3GD9,382GHPVPIV7ASJXQ3FB9V025S7G34H,3JWH6J9I9WT43593QFAD1C241SUBNE,6,5
99,1,object_03,object_08,1026.4000000004,1,1,602.09999999963,0.1111111111111111,1,object_07,1,1301,0,1,2,desert_7,1,memory-2step-stake-s,602,2201764,0.0-19.0-0.0-0.99,A5HEKO0GZ3GD9,382GHPVPIV7ASJXQ3FB9V025S7G34H,3JWH6J9I9WT43593QFAD1C241SUBNE,1,2
100,2,object_01,object_09,1023.0,3,2,707.90000000037,0.1111111111111111,1,object_07,1,1302,0,1,4,forest_6,1,memory-2step-stake-s,603,2209911,0.0-19.0-0.0-0.100,A5HEKO0GZ3GD9,382GHPVPIV7ASJXQ3FB9V025S7G34H,3JWH6J9I9WT43593QFAD1C241SUBNE,4,3
101,4,object_10,object_06,1249.7999999998,8,2,505.59999999963,0.5555555555555556,2,object_04,5,1327,0,2,5,restaurant_6,1,memory-2step-stake-s,604,2218265,0.0-19.0-0.0-0.101,A5HEKO0GZ3GD9,382GHPVPIV7ASJXQ3FB9V025S7G34H,3JWH6J9I9WT43593QFAD1C241SUBNE,7,8
102,3,object_02,object_05,951.90000000037,6,2,566.59999999963,0.3333333333333333,2,object_04,1,1330,0,2,3,library_4,1,memory-2step-stake-s,605,2226485,0.0-19.0-0.0-0.102,A5HEKO0GZ3GD9,382GHPVPIV7ASJXQ3FB9V025S7G34H,3JWH6J9I9WT43593QFAD1C241SUBNE,5,6
103,4,object_10,object_06,1069.0,8,2,540.59999999963,0.2222222222222222,2,object_04,5,1340,0,3,2,restaurant_2,1,memory-2step-stake-s,606,2234549,0.0-19.0-0.0-0.103,A5HEKO0GZ3GD9,382GHPVPIV7ASJXQ3FB9V025S7G34H,3JWH6J9I9WT43593QFAD1C241SUBNE,7,8
104,1,object_08,object_03,1247.3000000007,1,2,509.59999999963,0.5555555555555556,1,object_07,1,1345,0,5,2,desert_7,1,memory-2step-stake-s,607,2242943,0.0-19.0-0.0-0.104,A5HEKO0GZ3GD9,382GHPVPIV7ASJXQ3FB9V025S7G34H,3JWH6J9I9WT43593QFAD1C241SUBNE,2,1
105,4,object_10,object_06,798.39999999944,8,2,479.0,0.5555555555555556,2,object_04,5,1370,0,4,5,restaurant_7,1,memory-2step-stake-s,608,2251349,0.0-19.0-0.0-0.105,A5HEKO0GZ3GD9,382GHPVPIV7ASJXQ3FB9V025S7G34H,3JWH6J9I9WT43593QFAD1C241SUBNE,7,8
106,3,object_05,object_02,919.5,6,1,625.5,0.2222222222222222,2,object_04,1,1372,0,7,2,library_3,1,memory-2step-stake-s,609,2259505,0.0-19.0-0.0-0.106,A5HEKO0GZ3GD9,382GHPVPIV7ASJXQ3FB9V025S7G34H,3JWH6J9I9WT43593QFAD1C241SUBNE,6,5
107,1,object_03,object_08,1172.7999999998,2,2,620.29999999981,0.4444444444444444,2,object_04,1,1376,0,8,4,desert_2,1,memory-2step-stake-s,610,2267869,0.0-19.0-0.0-0.107,A5HEKO0GZ3GD9,382GHPVPIV7ASJXQ3FB9V025S7G34H,3JWH6J9I9WT43593QFAD1C241SUBNE,1,2
108,1,object_08,object_03,993.5,2,1,632.39999999944,0.6666666666666666,2,object_04,5,1406,0,8,6,desert_1,1,memory-2step-stake-s,611,2276466,0.0-19.0-0.0-0.108,A5HEKO0GZ3GD9,382GHPVPIV7ASJXQ3FB9V025S7G34H,3JWH6J9I9WT43593QFAD1C241SUBNE,2,1
109,2,object_01,object_09,1055.0,4,1,661.20000000019,0.7777777777777778,2,object_04,5,1441,0,9,7,forest_6,1,memory-2step-stake-s,612,2285207,0.0-19.0-0.0-0.109,A5HEKO0GZ3GD9,382GHPVPIV7ASJXQ3FB9V025S7G34H,3JWH6J9I9WT43593QFAD1C241SUBNE,4,3
110,4,object_06,object_10,1402.9000000004,7,2,556.5,0.6666666666666666,1,object_07,5,1471,0,6,8,restaurant_8,1,memory-2step-stake-s,613,2293767,0.0-19.0-0.0-0.110,A5HEKO0GZ3GD9,382GHPVPIV7ASJXQ3FB9V025S7G34H,3JWH6J9I9WT43593QFAD1C241SUBNE,8,7
111,3,object_05,object_02,1078.2000000002,6,1,548.20000000019,0.6666666666666666,2,object_04,5,1501,0,8,6,library_1,1,memory-2step-stake-s,614,2302289,0.0-19.0-0.0-0.111,A5HEKO0GZ3GD9,382GHPVPIV7ASJXQ3FB9V025S7G34H,3JWH6J9I9WT43593QFAD1C241SUBNE,6,5
112,3,object_02,object_05,1168.5,6,2,540.19999999925,1.0,2,object_04,5,1546,0,8,9,library_3,1,memory-2step-stake-s,615,2311170,0.0-19.0-0.0-0.112,A5HEKO0GZ3GD9,382GHPVPIV7ASJXQ3FB9V025S7G34H,3JWH6J9I9WT43593QFAD1C241SUBNE,5,6
113,1,object_03,object_08,1149.5,2,2,490.29999999981,0.6666666666666666,2,object_04,1,1552,0,6,6,desert_1,1,memory-2step-stake-s,616,2319662,0.0-19.0-0.0-0.113,A5HEKO0GZ3GD9,382GHPVPIV7ASJXQ3FB9V025S7G34H,3JWH6J9I9WT43593QFAD1C241SUBNE,1,2
114,3,object_02,object_05,897.40000000037,6,2,550.5,0.6666666666666666,2,object_04,1,1558,0,8,6,library_3,1,memory-2step-stake-s,617,2328196,0.0-19.0-0.0-0.114,A5HEKO0GZ3GD9,382GHPVPIV7ASJXQ3FB9V025S7G34H,3JWH6J9I9WT43593QFAD1C241SUBNE,5,6
115,3,object_02,object_05,990.5,6,2,665.59999999963,0.8888888888888888,2,object_04,5,1598,0,5,8,library_4,1,memory-2step-stake-s,618,2337048,0.0-19.0-0.0-0.115,A5HEKO0GZ3GD9,382GHPVPIV7ASJXQ3FB9V025S7G34H,3JWH6J9I9WT43593QFAD1C241SUBNE,5,6
116,3,object_05,object_02,939.29999999981,6,1,-1.0,0.0,2,object_04,5,1598,0,9,8,library_3,1,memory-2step-stake-s,619,2345667,0.0-19.0-0.0-0.116,A5HEKO0GZ3GD9,382GHPVPIV7ASJXQ3FB9V025S7G34H,3JWH6J9I9WT43593QFAD1C241SUBNE,6,5
117,1,object_03,object_08,933.79999999981,2,2,523.20000000019,1.0,2,object_04,1,1607,0,8,9,desert_1,1,memory-2step-stake-s,620,2354485,0.0-19.0-0.0-0.117,A5HEKO0GZ3GD9,382GHPVPIV7ASJXQ3FB9V025S7G34H,3JWH6J9I9WT43593QFAD1C241SUBNE,1,2
118,1,object_08,object_03,852.5,2,1,570.90000000037,0.7777777777777778,2,object_04,1,1614,0,8,7,desert_7,1,memory-2step-stake-s,621,2363124,0.0-19.0-0.0-0.118,A5HEKO0GZ3GD9,382GHPVPIV7ASJXQ3FB9V025S7G34H,3JWH6J9I9WT43593QFAD1C241SUBNE,2,1
119,2,object_09,object_01,1114.2000000002,4,2,497.80000000075,0.7777777777777778,2,object_04,1,1621,0,8,7,forest_5,1,memory-2step-stake-s,622,2371748,0.0-19.0-0.0-0.119,A5HEKO0GZ3GD9,382GHPVPIV7ASJXQ3FB9V025S7G34H,3JWH6J9I9WT43593QFAD1C241SUBNE,3,4
120,2,object_09,object_01,1121.5,4,2,517.20000000019,0.7777777777777778,2,object_04,1,1628,0,6,7,forest_5,1,memory-2step-stake-s,623,2380388,0.0-19.0-0.0-0.120,A5HEKO0GZ3GD9,382GHPVPIV7ASJXQ3FB9V025S7G34H,3JWH6J9I9WT43593QFAD1C241SUBNE,3,4
121,2,object_01,object_09,1008.5,4,1,444.59999999963,0.6666666666666666,2,object_04,1,1634,0,8,6,forest_4,1,memory-2step-stake-s,624,2388822,0.0-19.0-0.0-0.121,A5HEKO0GZ3GD9,382GHPVPIV7ASJXQ3FB9V025S7G34H,3JWH6J9I9WT43593QFAD1C241SUBNE,4,3
122,4,object_06,object_10,1087.7999999998,7,2,677.60000000056,0.8888888888888888,1,object_07,5,1674,0,8,8,restaurant_8,1,memory-2step-stake-s,625,2397739,0.0-19.0-0.0-0.122,A5HEKO0GZ3GD9,382GHPVPIV7ASJXQ3FB9V025S7G34H,3JWH6J9I9WT43593QFAD1C241SUBNE,8,7
123,3,object_02,object_05,1003.2999999998,5,1,489.5,0.6666666666666666,1,object_07,5,1704,0,6,7,library_4,1,memory-2step-stake-s,626,2406217,0.0-19.0-0.0-0.123,A5HEKO0GZ3GD9,382GHPVPIV7ASJXQ3FB9V025S7G34H,3JWH6J9I9WT43593QFAD1C241SUBNE,5,6
124,1,object_03,object_08,963.20000000019,1,1,463.29999999981,0.8888888888888888,1,object_07,1,1712,0,8,8,desert_6,1,memory-2step-stake-s,627,2414925,0.0-19.0-0.0-0.124,A5HEKO0GZ3GD9,382GHPVPIV7ASJXQ3FB9V025S7G34H,3JWH6J9I9WT43593QFAD1C241SUBNE,1,2
125,3,object_02,object_05,1066.6000000006,5,1,534.59999999963,1.0,1,object_07,1,1721,0,9,7,library_2,1,memory-2step-stake-s,628,2423784,0.0-19.0-0.0-0.125,A5HEKO0GZ3GD9,382GHPVPIV7ASJXQ3FB9V025S7G34H,3JWH6J9I9WT43593QFAD1C241SUBNE,5,6
126,2,object_01,object_09,795.40000000037,3,2,455.5,0.8888888888888888,1,object_07,1,1729,0,8,8,forest_4,1,memory-2step-stake-s,629,2432402,0.0-19.0-0.0-0.126,A5HEKO0GZ3GD9,382GHPVPIV7ASJXQ3FB9V025S7G34H,3JWH6J9I9WT43593QFAD1C241SUBNE,4,3
127,3,object_05,object_02,1061.0999999996,6,1,581.79999999981,0.8888888888888888,2,object_04,5,1769,0,7,8,library_4,1,memory-2step-stake-s,630,2441202,0.0-19.0-0.0-0.127,A5HEKO0GZ3GD9,382GHPVPIV7ASJXQ3FB9V025S7G34H,3JWH6J9I9WT43593QFAD1C241SUBNE,6,5
128,3,object_02,object_05,961.70000000019,5,1,454.09999999963,0.8888888888888888,1,object_07,1,1777,0,8,7,library_1,1,memory-2step-stake-s,632,2593769,0.0-19.0-0.1-0.128,A5HEKO0GZ3GD9,382GHPVPIV7ASJXQ3FB9V025S7G34H,3JWH6J9I9WT43593QFAD1C241SUBNE,5,6
129,4,object_10,object_06,833.0,8,2,513.40000000037,0.8888888888888888,2,object_04,5,1817,0,7,8,restaurant_7,1,memory-2step-stake-s,633,2602453,0.0-19.0-0.1-0.129,A5HEKO0GZ3GD9,382GHPVPIV7ASJXQ3FB9V025S7G34H,3JWH6J9I9WT43593QFAD1C241SUBNE,7,8
130,2,object_01,object_09,650.10000000056,4,1,565.20000000019,0.7777777777777778,2,object_04,1,1824,0,5,7,forest_7,1,memory-2step-stake-s,634,2611072,0.0-19.0-0.1-0.130,A5HEKO0GZ3GD9,382GHPVPIV7ASJXQ3FB9V025S7G34H,3JWH6J9I9WT43593QFAD1C241SUBNE,4,3
131,1,object_08,object_03,626.29999999981,2,1,528.5,0.5555555555555556,2,object_04,1,1829,0,5,5,desert_7,1,memory-2step-stake-s,635,2619481,0.0-19.0-0.1-0.131,A5HEKO0GZ3GD9,382GHPVPIV7ASJXQ3FB9V025S7G34H,3JWH6J9I9WT43593QFAD1C241SUBNE,2,1
132,4,object_10,object_06,735.59999999963,8,2,560.10000000056,0.6666666666666666,2,object_04,1,1835,0,5,6,restaurant_6,1,memory-2step-stake-s,636,2628048,0.0-19.0-0.1-0.132,A5HEKO0GZ3GD9,382GHPVPIV7ASJXQ3FB9V025S7G34H,3JWH6J9I9WT43593QFAD1C241SUBNE,7,8
133,1,object_03,object_08,691.40000000037,1,1,549.70000000019,0.3333333333333333,1,object_07,1,1838,0,3,7,desert_1,1,memory-2step-stake-s,637,2636274,0.0-19.0-0.1-0.133,A5HEKO0GZ3GD9,382GHPVPIV7ASJXQ3FB9V025S7G34H,3JWH6J9I9WT43593QFAD1C241SUBNE,1,2
134,1,object_03,object_08,1039.5,2,2,694.20000000019,0.2222222222222222,2,object_04,1,1840,0,2,2,desert_6,1,memory-2step-stake-s,638,2644536,0.0-19.0-0.1-0.134,A5HEKO0GZ3GD9,382GHPVPIV7ASJXQ3FB9V025S7G34H,3JWH6J9I9WT43593QFAD1C241SUBNE,1,2
135,3,object_02,object_05,935.29999999981,5,1,531.89999999944,0.3333333333333333,1,object_07,5,1855,0,3,1,library_3,1,memory-2step-stake-s,639,2652702,0.0-19.0-0.1-0.135,A5HEKO0GZ3GD9,382GHPVPIV7ASJXQ3FB9V025S7G34H,3JWH6J9I9WT43593QFAD1C241SUBNE,5,6
136,2,object_01,object_09,923.40000000037,3,2,443.80000000075,0.2222222222222222,1,object_07,1,1857,0,2,4,forest_6,1,memory-2step-stake-s,640,2660676,0.0-19.0-0.1-0.136,A5HEKO0GZ3GD9,382GHPVPIV7ASJXQ3FB9V025S7G34H,3JWH6J9I9WT43593QFAD1C241SUBNE,4,3
137,4,object_10,object_06,1191.5,7,1,707.60000000056,0.1111111111111111,1,object_07,5,1862,0,1,7,restaurant_7,1,memory-2step-stake-s,641,2668822,0.0-19.0-0.1-0.137,A5HEKO0GZ3GD9,382GHPVPIV7ASJXQ3FB9V025S7G34H,3JWH6J9I9WT43593QFAD1C241SUBNE,7,8
138,3,object_02,object_05,937.79999999981,6,2,411.90000000037,0.7777777777777778,2,object_04,5,1897,0,3,7,library_2,1,memory-2step-stake-s,642,2677311,0.0-19.0-0.1-0.138,A5HEKO0GZ3GD9,382GHPVPIV7ASJXQ3FB9V025S7G34H,3JWH6J9I9WT43593QFAD1C241SUBNE,5,6
139,1,object_03,object_08,1268.9000000004,2,2,463.79999999981,0.6666666666666666,2,object_04,1,1903,0,3,6,desert_7,1,memory-2step-stake-s,643,2685772,0.0-19.0-0.1-0.139,A5HEKO0GZ3GD9,382GHPVPIV7ASJXQ3FB9V025S7G34H,3JWH6J9I9WT43593QFAD1C241SUBNE,1,2
140,1,object_08,object_03,1169.2000000002,2,1,477.29999999981,1.0,2,object_04,1,1912,0,2,9,desert_2,1,memory-2step-stake-s,644,2694567,0.0-19.0-0.1-0.140,A5HEKO0GZ3GD9,382GHPVPIV7ASJXQ3FB9V025S7G34H,3JWH6J9I9WT43593QFAD1C241SUBNE,2,1
141,1,object_03,object_08,799.80000000075,2,2,369.09999999963,0.8888888888888888,2,object_04,1,1920,0,0,8,desert_6,1,memory-2step-stake-s,645,2703162,0.0-19.0-0.1-0.141,A5HEKO0GZ3GD9,382GHPVPIV7ASJXQ3FB9V025S7G34H,3JWH6J9I9WT43593QFAD1C241SUBNE,1,2
142,2,object_09,object_01,1149.1999999993,4,2,545.90000000037,0.7777777777777778,2,object_04,1,1927,0,1,7,forest_5,1,memory-2step-stake-s,646,2711754,0.0-19.0-0.1-0.142,A5HEKO0GZ3GD9,382GHPVPIV7ASJXQ3FB9V025S7G34H,3JWH6J9I9WT43593QFAD1C241SUBNE,3,4
143,3,object_05,object_02,749.59999999963,6,1,1017.7999999998,0.7777777777777778,2,object_04,1,1934,0,2,7,library_3,1,memory-2step-stake-s,647,2720803,0.0-19.0-0.1-0.143,A5HEKO0GZ3GD9,382GHPVPIV7ASJXQ3FB9V025S7G34H,3JWH6J9I9WT43593QFAD1C241SUBNE,6,5
144,2,object_01,object_09,1270.0,4,1,1178.7999999998,1.0,2,object_04,5,1979,0,1,9,forest_7,1,memory-2step-stake-s,648,2730249,0.0-19.0-0.1-0.144,A5HEKO0GZ3GD9,382GHPVPIV7ASJXQ3FB9V025S7G34H,3JWH6J9I9WT43593QFAD1C241SUBNE,4,3
145,1,object_08,object_03,942.09999999963,2,1,701.90000000037,0.8888888888888888,2,object_04,1,1987,0,0,8,desert_1,1,memory-2step-stake-s,649,2739115,0.0-19.0-0.1-0.145,A5HEKO0GZ3GD9,382GHPVPIV7ASJXQ3FB9V025S7G34H,3JWH6J9I9WT43593QFAD1C241SUBNE,2,1
146,2,object_01,object_09,1001.5999999996,4,1,649.89999999944,1.0,2,object_04,1,1996,0,1,9,forest_5,1,memory-2step-stake-s,650,2748006,0.0-19.0-0.1-0.146,A5HEKO0GZ3GD9,382GHPVPIV7ASJXQ3FB9V025S7G34H,3JWH6J9I9WT43593QFAD1C241SUBNE,4,3
147,3,object_02,object_05,1069.7999999998,6,2,566.5,0.7777777777777778,2,object_04,1,2003,0,3,7,library_4,1,memory-2step-stake-s,651,2756600,0.0-19.0-0.1-0.147,A5HEKO0GZ3GD9,382GHPVPIV7ASJXQ3FB9V025S7G34H,3JWH6J9I9WT43593QFAD1C241SUBNE,5,6
148,1,object_03,object_08,825.5,2,2,431.09999999963,0.3333333333333333,2,object_04,5,2018,0,1,3,desert_6,1,memory-2step-stake-s,652,2764650,0.0-19.0-0.1-0.148,A5HEKO0GZ3GD9,382GHPVPIV7ASJXQ3FB9V025S7G34H,3JWH6J9I9WT43593QFAD1C241SUBNE,1,2
149,4,object_06,object_10,1496.9000000004,7,2,533.40000000037,0.2222222222222222,1,object_07,5,2028,0,2,5,restaurant_2,1,memory-2step-stake-s,653,2772721,0.0-19.0-0.1-0.149,A5HEKO0GZ3GD9,382GHPVPIV7ASJXQ3FB9V025S7G34H,3JWH6J9I9WT43593QFAD1C241SUBNE,8,7
150,2,object_01,object_09,1342.5,3,2,450.79999999981,0.2222222222222222,1,object_07,5,2038,0,2,6,forest_7,1,memory-2step-stake-s,654,2780679,0.0-19.0-0.1-0.150,A5HEKO0GZ3GD9,382GHPVPIV7ASJXQ3FB9V025S7G34H,3JWH6J9I9WT43593QFAD1C241SUBNE,4,3
151,1,object_08,object_03,1088.2000000002,2,1,411.5,0.3333333333333333,2,object_04,1,2041,0,6,3,desert_7,1,memory-2step-stake-s,655,2788739,0.0-19.0-0.1-0.151,A5HEKO0GZ3GD9,382GHPVPIV7ASJXQ3FB9V025S7G34H,3JWH6J9I9WT43593QFAD1C241SUBNE,2,1
152,1,object_08,object_03,1019.6000000006,1,2,385.0,0.8888888888888888,1,object_07,1,2049,0,8,3,desert_6,1,memory-2step-stake-s,656,2797349,0.0-19.0-0.1-0.152,A5HEKO0GZ3GD9,382GHPVPIV7ASJXQ3FB9V025S7G34H,3JWH6J9I9WT43593QFAD1C241SUBNE,2,1
153,2,object_09,object_01,917.30000000075,3,1,443.79999999981,1.0,1,object_07,1,2058,0,9,6,forest_4,1,memory-2step-stake-s,657,2806093,0.0-19.0-0.1-0.153,A5HEKO0GZ3GD9,382GHPVPIV7ASJXQ3FB9V025S7G34H,3JWH6J9I9WT43593QFAD1C241SUBNE,3,4
154,4,object_06,object_10,1080.4000000004,7,2,429.70000000019,0.7777777777777778,1,object_07,5,2093,0,7,6,restaurant_7,1,memory-2step-stake-s,658,2814578,0.0-19.0-0.1-0.154,A5HEKO0GZ3GD9,382GHPVPIV7ASJXQ3FB9V025S7G34H,3JWH6J9I9WT43593QFAD1C241SUBNE,8,7
155,3,object_02,object_05,681.60000000056,5,1,836.79999999981,0.6666666666666666,1,object_07,1,2099,0,6,7,library_1,1,memory-2step-stake-s,659,2823413,0.0-19.0-0.1-0.155,A5HEKO0GZ3GD9,382GHPVPIV7ASJXQ3FB9V025S7G34H,3JWH6J9I9WT43593QFAD1C241SUBNE,5,6
156,4,object_10,object_06,1060.7999999998,8,2,535.20000000019,0.8888888888888888,2,object_04,5,2139,0,8,8,restaurant_8,1,memory-2step-stake-s,660,2832141,0.0-19.0-0.1-0.156,A5HEKO0GZ3GD9,382GHPVPIV7ASJXQ3FB9V025S7G34H,3JWH6J9I9WT43593QFAD1C241SUBNE,7,8
157,4,object_06,object_10,1170.4000000004,7,2,611.30000000075,0.5555555555555556,1,object_07,5,2164,0,5,4,restaurant_6,1,memory-2step-stake-s,661,2840582,0.0-19.0-0.1-0.157,A5HEKO0GZ3GD9,382GHPVPIV7ASJXQ3FB9V025S7G34H,3JWH6J9I9WT43593QFAD1C241SUBNE,8,7
158,4,object_06,object_10,1264.8000000007,8,1,730.20000000019,0.3333333333333333,2,object_04,5,2179,0,5,3,restaurant_2,1,memory-2step-stake-s,662,2848966,0.0-19.0-0.1-0.158,A5HEKO0GZ3GD9,382GHPVPIV7ASJXQ3FB9V025S7G34H,3JWH6J9I9WT43593QFAD1C241SUBNE,8,7
159,2,object_09,object_01,1442.1999999993,4,2,538.0,0.4444444444444444,2,object_04,5,2199,0,3,4,forest_4,1,memory-2step-stake-s,663,2857284,0.0-19.0-0.1-0.159,A5HEKO0GZ3GD9,382GHPVPIV7ASJXQ3FB9V025S7G34H,3JWH6J9I9WT43593QFAD1C241SUBNE,3,4
160,2,object_01,object_09,1133.0,3,2,562.40000000037,0.8888888888888888,1,object_07,5,2239,0,8,7,forest_6,1,memory-2step-stake-s,664,2866018,0.0-19.0-0.1-0.160,A5HEKO0GZ3GD9,382GHPVPIV7ASJXQ3FB9V025S7G34H,3JWH6J9I9WT43593QFAD1C241SUBNE,4,3
161,1,object_03,object_08,1318.0999999996,2,2,468.59999999963,1.0,2,object_04,1,2248,0,9,9,desert_2,1,memory-2step-stake-s,665,2874825,0.0-19.0-0.1-0.161,A5HEKO0GZ3GD9,382GHPVPIV7ASJXQ3FB9V025S7G34H,3JWH6J9I9WT43593QFAD1C241SUBNE,1,2
162,4,object_06,object_10,1047.5999999996,8,1,645.79999999981,0.8888888888888888,2,object_04,5,2288,0,8,8,restaurant_2,1,memory-2step-stake-s,666,2883647,0.0-19.0-0.1-0.162,A5HEKO0GZ3GD9,382GHPVPIV7ASJXQ3FB9V025S7G34H,3JWH6J9I9WT43593QFAD1C241SUBNE,8,7
163,4,object_10,object_06,1083.1000000006,8,2,476.59999999963,0.6666666666666666,2,object_04,5,2318,0,8,6,restaurant_7,1,memory-2step-stake-s,667,2892044,0.0-19.0-0.1-0.163,A5HEKO0GZ3GD9,382GHPVPIV7ASJXQ3FB9V025S7G34H,3JWH6J9I9WT43593QFAD1C241SUBNE,7,8
164,1,object_08,object_03,1288.0,2,1,672.29999999981,1.0,2,object_04,5,2363,0,8,9,desert_6,1,memory-2step-stake-s,668,2900982,0.0-19.0-0.1-0.164,A5HEKO0GZ3GD9,382GHPVPIV7ASJXQ3FB9V025S7G34H,3JWH6J9I9WT43593QFAD1C241SUBNE,2,1
165,4,object_06,object_10,1181.8999999994,8,1,610.5,0.8888888888888888,2,object_04,5,2403,0,5,8,restaurant_2,1,memory-2step-stake-s,669,2909764,0.0-19.0-0.1-0.165,A5HEKO0GZ3GD9,382GHPVPIV7ASJXQ3FB9V025S7G34H,3JWH6J9I9WT43593QFAD1C241SUBNE,8,7
166,2,object_01,object_09,1455.5999999996,4,1,560.5,0.6666666666666666,2,object_04,1,2409,0,5,6,forest_5,1,memory-2step-stake-s,670,2918302,0.0-19.0-0.1-0.166,A5HEKO0GZ3GD9,382GHPVPIV7ASJXQ3FB9V025S7G34H,3JWH6J9I9WT43593QFAD1C241SUBNE,4,3
167,1,object_03,object_08,937.59999999963,2,2,968.40000000037,0.8888888888888888,2,object_04,1,2417,0,2,8,desert_6,1,memory-2step-stake-s,671,2927419,0.0-19.0-0.1-0.167,A5HEKO0GZ3GD9,382GHPVPIV7ASJXQ3FB9V025S7G34H,3JWH6J9I9WT43593QFAD1C241SUBNE,1,2
168,3,object_02,object_05,1164.5,6,2,1017.7000000002,0.4444444444444444,2,object_04,5,2437,0,2,4,library_1,1,memory-2step-stake-s,672,2936153,0.0-19.0-0.1-0.168,A5HEKO0GZ3GD9,382GHPVPIV7ASJXQ3FB9V025S7G34H,3JWH6J9I9WT43593QFAD1C241SUBNE,5,6
169,3,object_02,object_05,973.90000000037,6,2,646.70000000019,0.7777777777777778,2,object_04,5,2472,0,1,7,library_1,1,memory-2step-stake-s,673,2944869,0.0-19.0-0.1-0.169,A5HEKO0GZ3GD9,382GHPVPIV7ASJXQ3FB9V025S7G34H,3JWH6J9I9WT43593QFAD1C241SUBNE,5,6
170,2,object_01,object_09,1195.7999999998,4,1,499.59999999963,1.0,2,object_04,1,2481,0,0,9,forest_6,1,memory-2step-stake-s,674,2953688,0.0-19.0-0.1-0.170,A5HEKO0GZ3GD9,382GHPVPIV7ASJXQ3FB9V025S7G34H,3JWH6J9I9WT43593QFAD1C241SUBNE,4,3
171,2,object_09,object_01,1087.7999999998,4,2,617.29999999981,0.8888888888888888,2,object_04,1,2489,0,3,8,forest_4,1,memory-2step-stake-s,675,2962531,0.0-19.0-0.1-0.171,A5HEKO0GZ3GD9,382GHPVPIV7ASJXQ3FB9V025S7G34H,3JWH6J9I9WT43593QFAD1C241SUBNE,3,4
172,2,object_09,object_01,1364.4000000004,4,2,549.29999999981,0.7777777777777778,2,object_04,5,2524,0,0,7,forest_4,1,memory-2step-stake-s,676,2971172,0.0-19.0-0.1-0.172,A5HEKO0GZ3GD9,382GHPVPIV7ASJXQ3FB9V025S7G34H,3JWH6J9I9WT43593QFAD1C241SUBNE,3,4
173,4,object_06,object_10,890.59999999963,8,1,572.5,0.8888888888888888,2,object_04,5,2564,0,0,8,restaurant_6,1,memory-2step-stake-s,677,2979971,0.0-19.0-0.1-0.173,A5HEKO0GZ3GD9,382GHPVPIV7ASJXQ3FB9V025S7G34H,3JWH6J9I9WT43593QFAD1C241SUBNE,8,7
174,3,object_02,object_05,854.90000000037,6,2,581.29999999981,0.8888888888888888,2,object_04,5,2604,0,4,8,library_2,1,memory-2step-stake-s,678,2988748,0.0-19.0-0.1-0.174,A5HEKO0GZ3GD9,382GHPVPIV7ASJXQ3FB9V025S7G34H,3JWH6J9I9WT43593QFAD1C241SUBNE,5,6
175,2,object_09,object_01,1142.9000000004,3,1,421.29999999981,0.2222222222222222,1,object_07,1,2606,0,2,6,forest_6,1,memory-2step-stake-s,679,2996691,0.0-19.0-0.1-0.175,A5HEKO0GZ3GD9,382GHPVPIV7ASJXQ3FB9V025S7G34H,3JWH6J9I9WT43593QFAD1C241SUBNE,3,4
176,4,object_10,object_06,1011.8999999994,8,2,458.40000000037,0.6666666666666666,2,object_04,5,2636,0,2,6,restaurant_6,1,memory-2step-stake-s,680,3005073,0.0-19.0-0.1-0.176,A5HEKO0GZ3GD9,382GHPVPIV7ASJXQ3FB9V025S7G34H,3JWH6J9I9WT43593QFAD1C241SUBNE,7,8
177,1,object_08,object_03,1020.7999999998,2,1,420.10000000056,0.3333333333333333,2,object_04,5,2651,0,1,3,desert_1,1,memory-2step-stake-s,681,3013110,0.0-19.0-0.1-0.177,A5HEKO0GZ3GD9,382GHPVPIV7ASJXQ3FB9V025S7G34H,3JWH6J9I9WT43593QFAD1C241SUBNE,2,1
178,1,object_08,object_03,1095.5,1,2,483.70000000019,0.2222222222222222,1,object_07,1,2653,0,2,5,desert_6,1,memory-2step-stake-s,682,3021097,0.0-19.0-0.1-0.178,A5HEKO0GZ3GD9,382GHPVPIV7ASJXQ3FB9V025S7G34H,3JWH6J9I9WT43593QFAD1C241SUBNE,2,1
179,2,object_01,object_09,1109.2000000002,4,1,479.0,0.7777777777777778,2,object_04,1,2660,0,6,7,forest_4,1,memory-2step-stake-s,683,3029621,0.0-19.0-0.1-0.179,A5HEKO0GZ3GD9,382GHPVPIV7ASJXQ3FB9V025S7G34H,3JWH6J9I9WT43593QFAD1C241SUBNE,4,3
180,1,object_03,object_08,1081.7999999998,2,2,463.90000000037,0.6666666666666666,2,object_04,1,2666,0,5,6,desert_2,1,memory-2step-stake-s,684,3038067,0.0-19.0-0.1-0.180,A5HEKO0GZ3GD9,382GHPVPIV7ASJXQ3FB9V025S7G34H,3JWH6J9I9WT43593QFAD1C241SUBNE,1,2
181,1,object_03,object_08,793.09999999963,2,2,912.5,0.5555555555555556,2,object_04,5,2691,0,5,5,desert_7,1,memory-2step-stake-s,685,3046868,0.0-19.0-0.1-0.181,A5HEKO0GZ3GD9,382GHPVPIV7ASJXQ3FB9V025S7G34H,3JWH6J9I9WT43593QFAD1C241SUBNE,1,2
182,1,object_03,object_08,853.39999999944,2,2,592.5,0.6666666666666666,2,object_04,1,2697,0,5,6,desert_6,1,memory-2step-stake-s,686,3055382,0.0-19.0-0.1-0.182,A5HEKO0GZ3GD9,382GHPVPIV7ASJXQ3FB9V025S7G34H,3JWH6J9I9WT43593QFAD1C241SUBNE,1,2
183,2,object_09,object_01,913.60000000056,4,2,642.80000000075,0.6666666666666666,2,object_04,1,2703,0,7,6,forest_7,1,memory-2step-stake-s,687,3063963,0.0-19.0-0.1-0.183,A5HEKO0GZ3GD9,382GHPVPIV7ASJXQ3FB9V025S7G34H,3JWH6J9I9WT43593QFAD1C241SUBNE,3,4
184,4,object_10,object_06,1233.6999999993,8,2,652.79999999981,0.7777777777777778,2,object_04,5,2738,0,6,7,restaurant_7,1,memory-2step-stake-s,688,3072631,0.0-19.0-0.1-0.184,A5HEKO0GZ3GD9,382GHPVPIV7ASJXQ3FB9V025S7G34H,3JWH6J9I9WT43593QFAD1C241SUBNE,7,8
185,2,object_09,object_01,989.79999999981,4,2,755.0,0.6666666666666666,2,object_04,5,2768,0,5,6,forest_5,1,memory-2step-stake-s,689,3081272,0.0-19.0-0.1-0.185,A5HEKO0GZ3GD9,382GHPVPIV7ASJXQ3FB9V025S7G34H,3JWH6J9I9WT43593QFAD1C241SUBNE,3,4
186,1,object_03,object_08,794.0,2,2,642.5,0.7777777777777778,2,object_04,1,2775,0,5,7,desert_2,1,memory-2step-stake-s,690,3090001,0.0-19.0-0.1-0.186,A5HEKO0GZ3GD9,382GHPVPIV7ASJXQ3FB9V025S7G34H,3JWH6J9I9WT43593QFAD1C241SUBNE,1,2
187,4,object_10,object_06,932.59999999963,8,2,420.5,0.7777777777777778,2,object_04,5,2810,0,7,7,restaurant_7,1,memory-2step-stake-s,691,3098524,0.0-19.0-0.1-0.187,A5HEKO0GZ3GD9,382GHPVPIV7ASJXQ3FB9V025S7G34H,3JWH6J9I9WT43593QFAD1C241SUBNE,7,8
188,4,object_10,object_06,703.5,8,2,23.700000000186,0.5555555555555556,2,object_04,5,2835,0,8,5,restaurant_8,1,memory-2step-stake-s,692,3106424,0.0-19.0-0.1-0.188,A5HEKO0GZ3GD9,382GHPVPIV7ASJXQ3FB9V025S7G34H,3JWH6J9I9WT43593QFAD1C241SUBNE,7,8
189,3,object_05,object_02,964.40000000037,6,1,390.60000000056,0.1111111111111111,2,object_04,5,2840,0,8,1,library_4,1,memory-2step-stake-s,693,3114238,0.0-19.0-0.1-0.189,A5HEKO0GZ3GD9,382GHPVPIV7ASJXQ3FB9V025S7G34H,3JWH6J9I9WT43593QFAD1C241SUBNE,6,5
190,3,object_02,object_05,1134.6000000006,5,1,639.70000000019,0.8888888888888888,1,object_07,5,2880,0,8,4,library_1,1,memory-2step-stake-s,694,3123081,0.0-19.0-0.1-0.190,A5HEKO0GZ3GD9,382GHPVPIV7ASJXQ3FB9V025S7G34H,3JWH6J9I9WT43593QFAD1C241SUBNE,5,6
191,2,object_01,object_09,-1.0,-1,-1,-1.0,0.0,-,0,1,2880,0,6,2,forest_4,1,memory-2step-stake-s,695,3129656,0.0-19.0-0.1-0.191,A5HEKO0GZ3GD9,382GHPVPIV7ASJXQ3FB9V025S7G34H,3JWH6J9I9WT43593QFAD1C241SUBNE,4,3
192,2,object_09,object_01,932.0,3,1,589.90000000037,0.7777777777777778,1,object_07,1,2887,0,7,4,forest_4,1,memory-2step-stake-s,696,3138331,0.0-19.0-0.1-0.192,A5HEKO0GZ3GD9,382GHPVPIV7ASJXQ3FB9V025S7G34H,3JWH6J9I9WT43593QFAD1C241SUBNE,3,4
193,2,object_09,object_01,805.10000000056,3,1,440.59999999963,0.8888888888888888,1,object_07,5,2927,0,8,1,forest_7,1,memory-2step-stake-s,697,3146953,0.0-19.0-0.1-0.193,A5HEKO0GZ3GD9,382GHPVPIV7ASJXQ3FB9V025S7G34H,3JWH6J9I9WT43593QFAD1C241SUBNE,3,4
194,4,object_10,object_06,1339.7000000002,7,1,529.40000000037,1.0,1,object_07,5,2972,0,9,3,restaurant_2,1,memory-2step-stake-s,698,3155739,0.0-19.0-0.1-0.194,A5HEKO0GZ3GD9,382GHPVPIV7ASJXQ3FB9V025S7G34H,3JWH6J9I9WT43593QFAD1C241SUBNE,7,8
195,2,object_09,object_01,754.20000000019,3,1,622.40000000037,0.6666666666666666,1,object_07,5,3002,0,6,4,forest_7,1,memory-2step-stake-s,699,3164339,0.0-19.0-0.1-0.195,A5HEKO0GZ3GD9,382GHPVPIV7ASJXQ3FB9V025S7G34H,3JWH6J9I9WT43593QFAD1C241SUBNE,3,4
196,2,object_01,object_09,861.20000000019,3,2,575.0,0.3333333333333333,1,object_07,1,3005,0,3,2,forest_7,1,memory-2step-stake-s,700,3172576,0.0-19.0-0.1-0.196,A5HEKO0GZ3GD9,382GHPVPIV7ASJXQ3FB9V025S7G34H,3JWH6J9I9WT43593QFAD1C241SUBNE,4,3
197,1,object_03,object_08,1052.2999999998,2,2,402.79999999981,0.2222222222222222,2,object_04,1,3007,0,2,2,desert_1,1,memory-2step-stake-s,701,3180487,0.0-19.0-0.1-0.197,A5HEKO0GZ3GD9,382GHPVPIV7ASJXQ3FB9V025S7G34H,3JWH6J9I9WT43593QFAD1C241SUBNE,1,2
198,1,object_03,object_08,1075.2000000002,1,1,713.29999999981,0.6666666666666666,1,object_07,1,3013,0,6,3,desert_7,1,memory-2step-stake-s,702,3189191,0.0-19.0-0.1-0.198,A5HEKO0GZ3GD9,382GHPVPIV7ASJXQ3FB9V025S7G34H,3JWH6J9I9WT43593QFAD1C241SUBNE,1,2
199,3,object_05,object_02,1160.4000000004,5,2,388.59999999963,0.4444444444444444,1,object_07,5,3033,0,4,4,library_2,1,memory-2step-stake-s,703,3197350,0.0-19.0-0.1-0.199,A5HEKO0GZ3GD9,382GHPVPIV7ASJXQ3FB9V025S7G34H,3JWH6J9I9WT43593QFAD1C241SUBNE,6,5
200,3,object_02,object_05,1047.0,6,2,521.40000000037,0.8888888888888888,2,object_04,5,3073,0,4,8,library_1,1,memory-2step-stake-s,704,3206078,0.0-19.0-0.1-0.200,A5HEKO0GZ3GD9,382GHPVPIV7ASJXQ3FB9V025S7G34H,3JWH6J9I9WT43593QFAD1C241SUBNE,5,6
201,3,object_02,object_05,733.20000000019,6,2,560.10000000056,0.6666666666666666,2,object_04,5,3103,0,4,6,library_2,1,memory-2step-stake-s,705,3214631,0.0-19.0-0.1-0.201,A5HEKO0GZ3GD9,382GHPVPIV7ASJXQ3FB9V025S7G34H,3JWH6J9I9WT43593QFAD1C241SUBNE,5,6
202,3,object_02,object_05,983.90000000037,6,2,781.09999999963,0.6666666666666666,2,object_04,5,3133,0,3,6,library_1,1,memory-2step-stake-s,706,3223404,0.0-19.0-0.1-0.202,A5HEKO0GZ3GD9,382GHPVPIV7ASJXQ3FB9V025S7G34H,3JWH6J9I9WT43593QFAD1C241SUBNE,5,6
203,4,object_06,object_10,1019.7999999998,7,2,322.29999999981,0.0,1,object_07,5,3133,0,0,6,restaurant_8,1,memory-2step-stake-s,707,3231047,0.0-19.0-0.1-0.203,A5HEKO0GZ3GD9,382GHPVPIV7ASJXQ3FB9V025S7G34H,3JWH6J9I9WT43593QFAD1C241SUBNE,8,7
204,1,object_03,object_08,1064.5,2,2,495.79999999981,0.6666666666666666,2,object_04,1,3139,0,0,6,desert_6,1,memory-2step-stake-s,708,3239509,0.0-19.0-0.1-0.204,A5HEKO0GZ3GD9,382GHPVPIV7ASJXQ3FB9V025S7G34H,3JWH6J9I9WT43593QFAD1C241SUBNE,1,2
205,4,object_10,object_06,1104.0,8,2,572.29999999981,0.8888888888888888,2,object_04,1,3147,0,2,8,restaurant_8,1,memory-2step-stake-s,709,3248269,0.0-19.0-0.1-0.205,A5HEKO0GZ3GD9,382GHPVPIV7ASJXQ3FB9V025S7G34H,3JWH6J9I9WT43593QFAD1C241SUBNE,7,8
206,1,object_08,object_03,852.59999999963,2,1,579.70000000019,0.8888888888888888,2,object_04,1,3155,0,3,8,desert_7,1,memory-2step-stake-s,710,3256983,0.0-19.0-0.1-0.206,A5HEKO0GZ3GD9,382GHPVPIV7ASJXQ3FB9V025S7G34H,3JWH6J9I9WT43593QFAD1C241SUBNE,2,1
207,3,object_05,object_02,1105.0,6,1,600.69999999925,0.8888888888888888,2,object_04,5,3195,0,5,8,library_1,1,memory-2step-stake-s,711,3265740,0.0-19.0-0.1-0.207,A5HEKO0GZ3GD9,382GHPVPIV7ASJXQ3FB9V025S7G34H,3JWH6J9I9WT43593QFAD1C241SUBNE,6,5
208,2,object_09,object_01,1203.5,4,2,799.5,0.7777777777777778,2,object_04,1,3202,0,4,7,forest_7,1,memory-2step-stake-s,712,3274560,0.0-19.0-0.1-0.208,A5HEKO0GZ3GD9,382GHPVPIV7ASJXQ3FB9V025S7G34H,3JWH6J9I9WT43593QFAD1C241SUBNE,3,4
209,2,object_01,object_09,879.30000000075,4,1,556.60000000056,0.8888888888888888,2,object_04,1,3210,0,8,8,forest_6,1,memory-2step-stake-s,713,3283271,0.0-19.0-0.1-0.209,A5HEKO0GZ3GD9,382GHPVPIV7ASJXQ3FB9V025S7G34H,3JWH6J9I9WT43593QFAD1C241SUBNE,4,3
210,4,object_06,object_10,761.10000000056,8,1,456.70000000019,0.8888888888888888,2,object_04,1,3218,0,5,8,restaurant_7,1,memory-2step-stake-s,714,3291932,0.0-19.0-0.1-0.210,A5HEKO0GZ3GD9,382GHPVPIV7ASJXQ3FB9V025S7G34H,3JWH6J9I9WT43593QFAD1C241SUBNE,8,7
211,2,object_09,object_01,813.0,4,2,581.40000000037,1.0,2,object_04,1,3227,0,4,9,forest_5,1,memory-2step-stake-s,715,3300788,0.0-19.0-0.1-0.211,A5HEKO0GZ3GD9,382GHPVPIV7ASJXQ3FB9V025S7G34H,3JWH6J9I9WT43593QFAD1C241SUBNE,3,4
212,3,object_02,object_05,936.70000000019,6,2,438.30000000075,1.0,2,object_04,1,3236,0,1,9,library_4,1,memory-2step-stake-s,716,3309587,0.0-19.0-0.1-0.212,A5HEKO0GZ3GD9,382GHPVPIV7ASJXQ3FB9V025S7G34H,3JWH6J9I9WT43593QFAD1C241SUBNE,5,6
213,2,object_01,object_09,538.79999999981,4,1,605.79999999981,0.7777777777777778,2,object_04,1,3243,0,2,7,forest_4,1,memory-2step-stake-s,717,3318289,0.0-19.0-0.1-0.213,A5HEKO0GZ3GD9,382GHPVPIV7ASJXQ3FB9V025S7G34H,3JWH6J9I9WT43593QFAD1C241SUBNE,4,3
214,1,object_03,object_08,791.29999999981,2,2,647.29999999981,0.6666666666666666,2,object_04,1,3249,0,4,6,desert_7,1,memory-2step-stake-s,718,3326919,0.0-19.0-0.1-0.214,A5HEKO0GZ3GD9,382GHPVPIV7ASJXQ3FB9V025S7G34H,3JWH6J9I9WT43593QFAD1C241SUBNE,1,2
215,2,object_01,object_09,658.59999999963,4,1,496.70000000019,0.6666666666666666,2,object_04,1,3255,0,1,6,forest_4,1,memory-2step-stake-s,719,3335440,0.0-19.0-0.1-0.215,A5HEKO0GZ3GD9,382GHPVPIV7ASJXQ3FB9V025S7G34H,3JWH6J9I9WT43593QFAD1C241SUBNE,4,3
216,4,object_10,object_06,1374.2999999998,8,2,786.79999999981,0.5555555555555556,2,object_04,5,3280,0,1,5,restaurant_2,1,memory-2step-stake-s,720,3344102,0.0-19.0-0.1-0.216,A5HEKO0GZ3GD9,382GHPVPIV7ASJXQ3FB9V025S7G34H,3JWH6J9I9WT43593QFAD1C241SUBNE,7,8
217,3,object_02,object_05,823.60000000056,6,2,-1.0,0.0,2,object_04,5,3280,0,1,2,library_4,1,memory-2step-stake-s,721,3352714,0.0-19.0-0.1-0.217,A5HEKO0GZ3GD9,382GHPVPIV7ASJXQ3FB9V025S7G34H,3JWH6J9I9WT43593QFAD1C241SUBNE,5,6
218,4,object_10,object_06,827.20000000019,8,2,451.79999999981,0.1111111111111111,2,object_04,5,3285,0,1,1,restaurant_7,1,memory-2step-stake-s,722,3360581,0.0-19.0-0.1-0.218,A5HEKO0GZ3GD9,382GHPVPIV7ASJXQ3FB9V025S7G34H,3JWH6J9I9WT43593QFAD1C241SUBNE,7,8
219,1,object_08,object_03,995.5,1,2,419.59999999963,0.1111111111111111,1,object_07,1,3286,0,1,1,desert_2,1,memory-2step-stake-s,723,3368432,0.0-19.0-0.1-0.219,A5HEKO0GZ3GD9,382GHPVPIV7ASJXQ3FB9V025S7G34H,3JWH6J9I9WT43593QFAD1C241SUBNE,2,1
220,2,object_01,object_09,893.89999999944,4,1,316.09999999963,0.1111111111111111,2,object_04,1,3287,0,2,1,forest_6,1,memory-2step-stake-s,724,3376173,0.0-19.0-0.1-0.220,A5HEKO0GZ3GD9,382GHPVPIV7ASJXQ3FB9V025S7G34H,3JWH6J9I9WT43593QFAD1C241SUBNE,4,3
221,1,object_08,object_03,1212.9000000004,1,2,400.0,0.7777777777777778,1,object_07,1,3294,0,7,1,desert_2,1,memory-2step-stake-s,725,3384723,0.0-19.0-0.1-0.221,A5HEKO0GZ3GD9,382GHPVPIV7ASJXQ3FB9V025S7G34H,3JWH6J9I9WT43593QFAD1C241SUBNE,2,1
222,4,object_06,object_10,816.29999999981,7,2,528.10000000056,0.6666666666666666,1,object_07,5,3324,0,6,1,restaurant_7,1,memory-2step-stake-s,726,3393271,0.0-19.0-0.1-0.222,A5HEKO0GZ3GD9,382GHPVPIV7ASJXQ3FB9V025S7G34H,3JWH6J9I9WT43593QFAD1C241SUBNE,8,7
223,4,object_06,object_10,1004.2000000002,7,2,625.60000000056,0.6666666666666666,1,object_07,5,3354,0,6,3,restaurant_8,1,memory-2step-stake-s,727,3401879,0.0-19.0-0.1-0.223,A5HEKO0GZ3GD9,382GHPVPIV7ASJXQ3FB9V025S7G34H,3JWH6J9I9WT43593QFAD1C241SUBNE,8,7
224,4,object_06,object_10,977.39999999944,7,2,540.60000000056,0.8888888888888888,1,object_07,1,3362,0,8,2,restaurant_2,1,memory-2step-stake-s,728,3410626,0.0-19.0-0.1-0.224,A5HEKO0GZ3GD9,382GHPVPIV7ASJXQ3FB9V025S7G34H,3JWH6J9I9WT43593QFAD1C241SUBNE,8,7
225,3,object_05,object_02,882.79999999981,5,2,880.39999999944,0.8888888888888888,1,object_07,5,3402,0,8,2,library_4,1,memory-2step-stake-s,729,3419718,0.0-19.0-0.1-0.225,A5HEKO0GZ3GD9,382GHPVPIV7ASJXQ3FB9V025S7G34H,3JWH6J9I9WT43593QFAD1C241SUBNE,6,5
226,2,object_01,object_09,893.79999999981,4,1,441.89999999944,0.3333333333333333,2,object_04,1,3405,0,7,3,forest_7,1,memory-2step-stake-s,730,3427785,0.0-19.0-0.1-0.226,A5HEKO0GZ3GD9,382GHPVPIV7ASJXQ3FB9V025S7G34H,3JWH6J9I9WT43593QFAD1C241SUBNE,4,3
227,2,object_09,object_01,801.20000000019,3,1,712.19999999925,0.7777777777777778,1,object_07,1,3412,0,7,3,forest_6,1,memory-2step-stake-s,731,3436492,0.0-19.0-0.1-0.227,A5HEKO0GZ3GD9,382GHPVPIV7ASJXQ3FB9V025S7G34H,3JWH6J9I9WT43593QFAD1C241SUBNE,3,4
228,2,object_01,object_09,1228.6000000006,3,2,557.20000000019,1.0,1,object_07,1,3421,0,9,2,forest_5,1,memory-2step-stake-s,732,3445281,0.0-19.0-0.1-0.228,A5HEKO0GZ3GD9,382GHPVPIV7ASJXQ3FB9V025S7G34H,3JWH6J9I9WT43593QFAD1C241SUBNE,4,3
229,3,object_05,object_02,1190.9000000004,5,2,663.20000000019,0.6666666666666666,1,object_07,5,3451,0,6,1,library_4,1,memory-2step-stake-s,733,3453845,0.0-19.0-0.1-0.229,A5HEKO0GZ3GD9,382GHPVPIV7ASJXQ3FB9V025S7G34H,3JWH6J9I9WT43593QFAD1C241SUBNE,6,5
230,2,object_09,object_01,735.19999999925,3,1,349.20000000019,0.7777777777777778,1,object_07,1,3458,0,7,1,forest_6,1,memory-2step-stake-s,734,3462234,0.0-19.0-0.1-0.230,A5HEKO0GZ3GD9,382GHPVPIV7ASJXQ3FB9V025S7G34H,3JWH6J9I9WT43593QFAD1C241SUBNE,3,4
231,4,object_10,object_06,-1.0,-1,-1,-1.0,0.0,-,0,5,3458,0,8,0,restaurant_8,1,memory-2step-stake-s,735,3468792,0.0-19.0-0.1-0.231,A5HEKO0GZ3GD9,382GHPVPIV7ASJXQ3FB9V025S7G34H,3JWH6J9I9WT43593QFAD1C241SUBNE,7,8
232,4,object_06,object_10,854.70000000019,7,2,483.19999999925,1.0,1,object_07,5,3503,0,9,2,restaurant_8,1,memory-2step-stake-s,736,3477531,0.0-19.0-0.1-0.232,A5HEKO0GZ3GD9,382GHPVPIV7ASJXQ3FB9V025S7G34H,3JWH6J9I9WT43593QFAD1C241SUBNE,8,7
233,4,object_06,object_10,929.40000000037,7,2,419.20000000019,0.8888888888888888,1,object_07,5,3543,0,8,3,restaurant_2,1,memory-2step-stake-s,737,3486134,0.0-19.0-0.1-0.233,A5HEKO0GZ3GD9,382GHPVPIV7ASJXQ3FB9V025S7G34H,3JWH6J9I9WT43593QFAD1C241SUBNE,8,7
234,1,object_08,object_03,994.70000000019,1,2,437.20000000019,0.6666666666666666,1,object_07,5,3573,0,6,3,desert_1,1,memory-2step-stake-s,738,3494550,0.0-19.0-0.1-0.234,A5HEKO0GZ3GD9,382GHPVPIV7ASJXQ3FB9V025S7G34H,3JWH6J9I9WT43593QFAD1C241SUBNE,2,1
235,4,object_10,object_06,1045.0999999996,7,1,532.09999999963,0.6666666666666666,1,object_07,5,3603,0,6,0,restaurant_6,1,memory-2step-stake-s,739,3503071,0.0-19.0-0.1-0.235,A5HEKO0GZ3GD9,382GHPVPIV7ASJXQ3FB9V025S7G34H,3JWH6J9I9WT43593QFAD1C241SUBNE,7,8
236,1,object_03,object_08,723.90000000037,1,1,453.40000000037,0.1111111111111111,1,object_07,1,3604,0,1,1,desert_7,1,memory-2step-stake-s,740,3510951,0.0-19.0-0.1-0.236,A5HEKO0GZ3GD9,382GHPVPIV7ASJXQ3FB9V025S7G34H,3JWH6J9I9WT43593QFAD1C241SUBNE,1,2
237,3,object_02,object_05,613.20000000019,6,2,362.59999999963,0.3333333333333333,2,object_04,5,3619,0,2,3,library_3,1,memory-2step-stake-s,741,3518939,0.0-19.0-0.1-0.237,A5HEKO0GZ3GD9,382GHPVPIV7ASJXQ3FB9V025S7G34H,3JWH6J9I9WT43593QFAD1C241SUBNE,5,6
238,2,object_01,object_09,992.0,4,1,479.10000000056,0.7777777777777778,2,object_04,1,3626,0,1,7,forest_5,1,memory-2step-stake-s,742,3527476,0.0-19.0-0.1-0.238,A5HEKO0GZ3GD9,382GHPVPIV7ASJXQ3FB9V025S7G34H,3JWH6J9I9WT43593QFAD1C241SUBNE,4,3
239,3,object_05,object_02,819.79999999981,6,1,402.40000000037,0.5555555555555556,2,object_04,5,3651,0,0,5,library_1,1,memory-2step-stake-s,743,3535764,0.0-19.0-0.1-0.239,A5HEKO0GZ3GD9,382GHPVPIV7ASJXQ3FB9V025S7G34H,3JWH6J9I9WT43593QFAD1C241SUBNE,6,5
240,1,object_08,object_03,1047.7999999998,2,1,474.70000000019,0.3333333333333333,2,object_04,1,3654,0,1,3,desert_7,1,memory-2step-stake-s,744,3543874,0.0-19.0-0.1-0.240,A5HEKO0GZ3GD9,382GHPVPIV7ASJXQ3FB9V025S7G34H,3JWH6J9I9WT43593QFAD1C241SUBNE,2,1
241,4,object_10,object_06,891.80000000075,8,2,430.20000000019,0.4444444444444444,2,object_04,5,3674,0,2,4,restaurant_8,1,memory-2step-stake-s,745,3552030,0.0-19.0-0.1-0.241,A5HEKO0GZ3GD9,382GHPVPIV7ASJXQ3FB9V025S7G34H,3JWH6J9I9WT43593QFAD1C241SUBNE,7,8
242,1,object_08,object_03,947.20000000019,1,2,514.79999999981,0.3333333333333333,1,object_07,1,3677,0,3,6,desert_6,1,memory-2step-stake-s,746,3560202,0.0-19.0-0.1-0.242,A5HEKO0GZ3GD9,382GHPVPIV7ASJXQ3FB9V025S7G34H,3JWH6J9I9WT43593QFAD1C241SUBNE,2,1
243,1,object_08,object_03,876.0,2,1,566.60000000056,0.6666666666666666,2,object_04,1,3683,0,1,6,desert_1,1,memory-2step-stake-s,747,3568767,0.0-19.0-0.1-0.243,A5HEKO0GZ3GD9,382GHPVPIV7ASJXQ3FB9V025S7G34H,3JWH6J9I9WT43593QFAD1C241SUBNE,2,1
244,1,object_08,object_03,887.59999999963,2,1,558.40000000037,0.6666666666666666,2,object_04,1,3689,0,2,6,desert_2,1,memory-2step-stake-s,748,3577310,0.0-19.0-0.1-0.244,A5HEKO0GZ3GD9,382GHPVPIV7ASJXQ3FB9V025S7G34H,3JWH6J9I9WT43593QFAD1C241SUBNE,2,1
245,1,object_03,object_08,761.80000000075,2,2,835.60000000056,0.6666666666666666,2,object_04,1,3695,0,1,6,desert_1,1,memory-2step-stake-s,749,3586125,0.0-19.0-0.1-0.245,A5HEKO0GZ3GD9,382GHPVPIV7ASJXQ3FB9V025S7G34H,3JWH6J9I9WT43593QFAD1C241SUBNE,1,2
246,1,object_08,object_03,691.0,2,1,874.40000000037,0.6666666666666666,2,object_04,5,3725,0,1,6,desert_6,1,memory-2step-stake-s,750,3594983,0.0-19.0-0.1-0.246,A5HEKO0GZ3GD9,382GHPVPIV7ASJXQ3FB9V025S7G34H,3JWH6J9I9WT43593QFAD1C241SUBNE,2,1
247,2,object_01,object_09,782.70000000019,4,1,582.5,0.6666666666666666,2,object_04,1,3731,0,1,6,forest_7,1,memory-2step-stake-s,751,3603517,0.0-19.0-0.1-0.247,A5HEKO0GZ3GD9,382GHPVPIV7ASJXQ3FB9V025S7G34H,3JWH6J9I9WT43593QFAD1C241SUBNE,4,3
248,3,object_02,object_05,745.79999999981,6,2,388.0,0.5555555555555556,2,object_04,5,3756,0,2,5,library_3,1,memory-2step-stake-s,752,3611760,0.0-19.0-0.1-0.248,A5HEKO0GZ3GD9,382GHPVPIV7ASJXQ3FB9V025S7G34H,3JWH6J9I9WT43593QFAD1C241SUBNE,5,6
249,2,object_09,object_01,757.79999999981,3,1,336.69999999925,0.0,1,object_07,1,3756,0,0,5,forest_6,1,memory-2step-stake-s,753,3619370,0.0-19.0-0.1-0.249,A5HEKO0GZ3GD9,382GHPVPIV7ASJXQ3FB9V025S7G34H,3JWH6J9I9WT43593QFAD1C241SUBNE,3,4
250,3,object_05,object_02,1047.3000000007,6,1,527.20000000019,0.7777777777777778,2,object_04,5,3791,0,1,7,library_3,1,memory-2step-stake-s,754,3627919,0.0-19.0-0.1-0.250,A5HEKO0GZ3GD9,382GHPVPIV7ASJXQ3FB9V025S7G34H,3JWH6J9I9WT43593QFAD1C241SUBNE,6,5
251,3,object_02,object_05,803.29999999981,6,2,518.79999999981,0.7777777777777778,2,object_04,1,3798,0,0,7,library_2,1,memory-2step-stake-s,755,3636488,0.0-19.0-0.1-0.251,A5HEKO0GZ3GD9,382GHPVPIV7ASJXQ3FB9V025S7G34H,3JWH6J9I9WT43593QFAD1C241SUBNE,5,6
252,4,object_10,object_06,973.70000000019,8,2,592.5,0.6666666666666666,2,object_04,5,3828,0,1,6,restaurant_7,1,memory-2step-stake-s,756,3645011,0.0-19.0-0.1-0.252,A5HEKO0GZ3GD9,382GHPVPIV7ASJXQ3FB9V025S7G34H,3JWH6J9I9WT43593QFAD1C241SUBNE,7,8
253,1,object_03,object_08,849.20000000019,2,2,524.5,0.7777777777777778,2,object_04,5,3863,0,2,7,desert_6,1,memory-2step-stake-s,757,3653604,0.0-19.0-0.1-0.253,A5HEKO0GZ3GD9,382GHPVPIV7ASJXQ3FB9V025S7G34H,3JWH6J9I9WT43593QFAD1C241SUBNE,1,2
254,2,object_01,object_09,684.0,4,1,627.10000000056,0.8888888888888888,2,object_04,1,3871,0,5,8,forest_6,1,memory-2step-stake-s,758,3662363,0.0-19.0-0.1-0.254,A5HEKO0GZ3GD9,382GHPVPIV7ASJXQ3FB9V025S7G34H,3JWH6J9I9WT43593QFAD1C241SUBNE,4,3
255,1,object_03,object_08,700.5,2,2,625.5,0.8888888888888888,2,object_04,5,3911,0,3,8,desert_1,1,memory-2step-stake-s,759,3671195,0.0-19.0-0.1-0.255,A5HEKO0GZ3GD9,382GHPVPIV7ASJXQ3FB9V025S7G34H,3JWH6J9I9WT43593QFAD1C241SUBNE,1,2
