,state1,stim_left,stim_right,rt_1,choice1,response1,rt_2,points,state2,stim_state2,stake,score,practice,rews1,rews2,background,high_arm,trial_type,trial_index,time_elapsed,internal_node_id,subid,hitid,assignmentid,stim_left_num,stim_right_num
0,4,object_03,object_05,742.59999999404,7,1,1246.200000003,0.0,1,object_06,1,0,0,0,4,restaurant_6,1,memory-2step-stake-s,493,1043122,0.0-19.0-0.0-0.0,A36T7N6CT9GUCG,3MQKOF1EF54KJDI76AN431783D3WDT,39PAAFCODQGH7WCTSSNPBN23T2STVZ,7,8
1,3,object_02,object_04,583.10000000894,5,1,853.10000000894,0.3333333333333333,1,object_06,5,15,0,3,4,library_7,1,memory-2step-stake-s,494,1051550,0.0-19.0-0.0-0.1,A36T7N6CT9GUCG,3MQKOF1EF54KJDI76AN431783D3WDT,39PAAFCODQGH7WCTSSNPBN23T2STVZ,5,6
2,2,object_09,object_10,516.29999999702,4,1,1244.299999997,0.3333333333333333,2,object_01,1,18,0,1,3,forest_2,1,memory-2step-stake-s,495,1060370,0.0-19.0-0.0-0.2,A36T7N6CT9GUCG,3MQKOF1EF54KJDI76AN431783D3WDT,39PAAFCODQGH7WCTSSNPBN23T2STVZ,4,3
3,4,object_03,object_05,336.90000000596,7,1,-1.0,0.0,1,object_06,5,18,0,3,4,restaurant_5,1,memory-2step-stake-s,496,1068927,0.0-19.0-0.0-0.3,A36T7N6CT9GUCG,3MQKOF1EF54KJDI76AN431783D3WDT,39PAAFCODQGH7WCTSSNPBN23T2STVZ,7,8
4,1,object_07,object_08,606.80000001192,1,1,776.29999999702,0.4444444444444444,1,object_06,1,22,0,4,2,desert_4,1,memory-2step-stake-s,497,1077378,0.0-19.0-0.0-0.4,A36T7N6CT9GUCG,3MQKOF1EF54KJDI76AN431783D3WDT,39PAAFCODQGH7WCTSSNPBN23T2STVZ,1,2
5,2,object_10,object_09,596.0,3,1,557.60000000894,0.3333333333333333,1,object_06,5,37,0,3,2,forest_3,1,memory-2step-stake-s,498,1085512,0.0-19.0-0.0-0.5,A36T7N6CT9GUCG,3MQKOF1EF54KJDI76AN431783D3WDT,39PAAFCODQGH7WCTSSNPBN23T2STVZ,3,4
6,3,object_04,object_02,726.19999998808,6,1,926.60000000894,0.0,2,object_01,5,37,0,1,0,library_7,1,memory-2step-stake-s,499,1093697,0.0-19.0-0.0-0.6,A36T7N6CT9GUCG,3MQKOF1EF54KJDI76AN431783D3WDT,39PAAFCODQGH7WCTSSNPBN23T2STVZ,6,5
7,4,object_03,object_05,634.70000000298,7,1,756.29999999702,0.3333333333333333,1,object_06,5,52,0,3,0,restaurant_1,1,memory-2step-stake-s,500,1102028,0.0-19.0-0.0-0.7,A36T7N6CT9GUCG,3MQKOF1EF54KJDI76AN431783D3WDT,39PAAFCODQGH7WCTSSNPBN23T2STVZ,7,8
8,2,object_09,object_10,1233.599999994,3,2,1242.8999999911,0.1111111111111111,1,object_06,1,53,0,1,0,forest_5,1,memory-2step-stake-s,501,1110637,0.0-19.0-0.0-0.8,A36T7N6CT9GUCG,3MQKOF1EF54KJDI76AN431783D3WDT,39PAAFCODQGH7WCTSSNPBN23T2STVZ,4,3
9,1,object_08,object_07,928.10000000894,1,2,713.70000000298,0.3333333333333333,1,object_06,1,56,0,3,2,desert_4,1,memory-2step-stake-s,502,1118926,0.0-19.0-0.0-0.9,A36T7N6CT9GUCG,3MQKOF1EF54KJDI76AN431783D3WDT,39PAAFCODQGH7WCTSSNPBN23T2STVZ,2,1
10,4,object_05,object_03,1078.0,7,2,457.59999999404,0.1111111111111111,1,object_06,5,61,0,1,3,restaurant_2,1,memory-2step-stake-s,503,1126745,0.0-19.0-0.0-0.10,A36T7N6CT9GUCG,3MQKOF1EF54KJDI76AN431783D3WDT,39PAAFCODQGH7WCTSSNPBN23T2STVZ,8,7
11,1,object_07,object_08,1227.599999994,1,1,677.09999999404,0.2222222222222222,1,object_06,1,63,0,2,4,desert_4,1,memory-2step-stake-s,504,1134885,0.0-19.0-0.0-0.11,A36T7N6CT9GUCG,3MQKOF1EF54KJDI76AN431783D3WDT,39PAAFCODQGH7WCTSSNPBN23T2STVZ,1,2
12,2,object_10,object_09,971.20000000298,3,1,913.70000000298,0.2222222222222222,1,object_06,1,65,0,2,1,forest_5,1,memory-2step-stake-s,505,1143256,0.0-19.0-0.0-0.12,A36T7N6CT9GUCG,3MQKOF1EF54KJDI76AN431783D3WDT,39PAAFCODQGH7WCTSSNPBN23T2STVZ,3,4
13,4,object_05,object_03,814.0,8,1,585.59999999404,0.1111111111111111,2,object_01,1,66,0,2,1,restaurant_1,1,memory-2step-stake-s,506,1151193,0.0-19.0-0.0-0.13,A36T7N6CT9GUCG,3MQKOF1EF54KJDI76AN431783D3WDT,39PAAFCODQGH7WCTSSNPBN23T2STVZ,8,7
14,3,object_02,object_04,848.40000000596,6,2,662.90000000596,0.3333333333333333,2,object_01,5,81,0,1,3,library_8,1,memory-2step-stake-s,507,1159401,0.0-19.0-0.0-0.14,A36T7N6CT9GUCG,3MQKOF1EF54KJDI76AN431783D3WDT,39PAAFCODQGH7WCTSSNPBN23T2STVZ,5,6
15,2,object_09,object_10,824.79999999702,4,1,526.10000000894,0.5555555555555556,2,object_01,1,86,0,1,5,forest_5,1,memory-2step-stake-s,508,1167682,0.0-19.0-0.0-0.15,A36T7N6CT9GUCG,3MQKOF1EF54KJDI76AN431783D3WDT,39PAAFCODQGH7WCTSSNPBN23T2STVZ,4,3
16,4,object_05,object_03,891.40000000596,8,1,641.39999999106,0.6666666666666666,2,object_01,1,92,0,1,6,restaurant_1,1,memory-2step-stake-s,509,1176179,0.0-19.0-0.0-0.16,A36T7N6CT9GUCG,3MQKOF1EF54KJDI76AN431783D3WDT,39PAAFCODQGH7WCTSSNPBN23T2STVZ,8,7
17,1,object_08,object_07,909.60000000894,2,1,455.29999999702,0.0,2,object_01,1,92,0,1,0,desert_3,1,memory-2step-stake-s,510,1183867,0.0-19.0-0.0-0.17,A36T7N6CT9GUCG,3MQKOF1EF54KJDI76AN431783D3WDT,39PAAFCODQGH7WCTSSNPBN23T2STVZ,2,1
18,2,object_10,object_09,659.5,4,2,-1.0,0.0,2,object_01,5,92,0,3,4,forest_3,1,memory-2step-stake-s,511,1192396,0.0-19.0-0.0-0.18,A36T7N6CT9GUCG,3MQKOF1EF54KJDI76AN431783D3WDT,39PAAFCODQGH7WCTSSNPBN23T2STVZ,3,4
19,4,object_05,object_03,794.39999999106,8,1,598.0,0.8888888888888888,2,object_01,5,132,0,2,8,restaurant_1,1,memory-2step-stake-s,512,1201063,0.0-19.0-0.0-0.19,A36T7N6CT9GUCG,3MQKOF1EF54KJDI76AN431783D3WDT,39PAAFCODQGH7WCTSSNPBN23T2STVZ,8,7
20,1,object_08,object_07,800.89999999106,2,1,501.80000001192,0.8888888888888888,2,object_01,1,140,0,1,8,desert_3,1,memory-2step-stake-s,513,1209630,0.0-19.0-0.0-0.20,A36T7N6CT9GUCG,3MQKOF1EF54KJDI76AN431783D3WDT,39PAAFCODQGH7WCTSSNPBN23T2STVZ,2,1
21,4,object_03,object_05,826.10000000894,8,2,575.5,0.6666666666666666,2,object_01,5,170,0,2,6,restaurant_2,1,memory-2step-stake-s,514,1218068,0.0-19.0-0.0-0.21,A36T7N6CT9GUCG,3MQKOF1EF54KJDI76AN431783D3WDT,39PAAFCODQGH7WCTSSNPBN23T2STVZ,7,8
22,1,object_07,object_08,917.5,2,2,464.69999998808,0.7777777777777778,2,object_01,1,177,0,4,7,desert_1,1,memory-2step-stake-s,515,1226496,0.0-19.0-0.0-0.22,A36T7N6CT9GUCG,3MQKOF1EF54KJDI76AN431783D3WDT,39PAAFCODQGH7WCTSSNPBN23T2STVZ,1,2
23,1,object_08,object_07,703.19999998808,2,1,473.30000001192,0.7777777777777778,2,object_01,1,184,0,3,7,desert_4,1,memory-2step-stake-s,516,1234934,0.0-19.0-0.0-0.23,A36T7N6CT9GUCG,3MQKOF1EF54KJDI76AN431783D3WDT,39PAAFCODQGH7WCTSSNPBN23T2STVZ,2,1
24,4,object_03,object_05,723.40000000596,8,2,483.80000001192,0.5555555555555556,2,object_01,5,209,0,1,5,restaurant_6,1,memory-2step-stake-s,517,1243168,0.0-19.0-0.0-0.24,A36T7N6CT9GUCG,3MQKOF1EF54KJDI76AN431783D3WDT,39PAAFCODQGH7WCTSSNPBN23T2STVZ,7,8
25,3,object_02,object_04,916.20000000298,5,1,395.60000000894,0.1111111111111111,1,object_06,5,214,0,1,5,library_5,1,memory-2step-stake-s,518,1250899,0.0-19.0-0.0-0.25,A36T7N6CT9GUCG,3MQKOF1EF54KJDI76AN431783D3WDT,39PAAFCODQGH7WCTSSNPBN23T2STVZ,5,6
26,2,object_09,object_10,861.79999999702,4,1,382.0,0.4444444444444444,2,object_01,1,218,0,0,4,forest_1,1,memory-2step-stake-s,519,1258929,0.0-19.0-0.0-0.26,A36T7N6CT9GUCG,3MQKOF1EF54KJDI76AN431783D3WDT,39PAAFCODQGH7WCTSSNPBN23T2STVZ,4,3
27,2,object_10,object_09,591.40000000596,3,1,430.09999999404,0.3333333333333333,1,object_06,1,221,0,3,6,forest_3,1,memory-2step-stake-s,520,1266903,0.0-19.0-0.0-0.27,A36T7N6CT9GUCG,3MQKOF1EF54KJDI76AN431783D3WDT,39PAAFCODQGH7WCTSSNPBN23T2STVZ,3,4
28,4,object_05,object_03,527.20000000298,7,2,452.09999999404,0.3333333333333333,1,object_06,5,236,0,3,2,restaurant_1,1,memory-2step-stake-s,521,1274908,0.0-19.0-0.0-0.28,A36T7N6CT9GUCG,3MQKOF1EF54KJDI76AN431783D3WDT,39PAAFCODQGH7WCTSSNPBN23T2STVZ,8,7
29,1,object_07,object_08,698.90000000596,2,2,434.0,0.6666666666666666,2,object_01,1,242,0,2,6,desert_7,1,memory-2step-stake-s,522,1283206,0.0-19.0-0.0-0.29,A36T7N6CT9GUCG,3MQKOF1EF54KJDI76AN431783D3WDT,39PAAFCODQGH7WCTSSNPBN23T2STVZ,1,2
30,3,object_04,object_02,1006.5,5,2,350.20000000298,0.7777777777777778,1,object_06,1,249,0,7,7,library_8,1,memory-2step-stake-s,523,1291519,0.0-19.0-0.0-0.30,A36T7N6CT9GUCG,3MQKOF1EF54KJDI76AN431783D3WDT,39PAAFCODQGH7WCTSSNPBN23T2STVZ,6,5
31,3,object_02,object_04,1076.5,6,2,654.20000000298,0.8888888888888888,2,object_01,5,289,0,8,8,library_8,1,memory-2step-stake-s,524,1300246,0.0-19.0-0.0-0.31,A36T7N6CT9GUCG,3MQKOF1EF54KJDI76AN431783D3WDT,39PAAFCODQGH7WCTSSNPBN23T2STVZ,5,6
32,3,object_02,object_04,1157.799999997,6,2,430.5,0.7777777777777778,2,object_01,5,324,0,8,7,library_7,1,memory-2step-stake-s,525,1308639,0.0-19.0-0.0-0.32,A36T7N6CT9GUCG,3MQKOF1EF54KJDI76AN431783D3WDT,39PAAFCODQGH7WCTSSNPBN23T2STVZ,5,6
33,2,object_10,object_09,854.89999999106,4,2,548.90000000596,0.4444444444444444,2,object_01,5,344,0,8,4,forest_3,1,memory-2step-stake-s,526,1316836,0.0-19.0-0.0-0.33,A36T7N6CT9GUCG,3MQKOF1EF54KJDI76AN431783D3WDT,39PAAFCODQGH7WCTSSNPBN23T2STVZ,3,4
34,1,object_07,object_08,643.70000000298,1,1,346.90000000596,1.0,1,object_06,1,353,0,9,5,desert_3,1,memory-2step-stake-s,527,1325355,0.0-19.0-0.0-0.34,A36T7N6CT9GUCG,3MQKOF1EF54KJDI76AN431783D3WDT,39PAAFCODQGH7WCTSSNPBN23T2STVZ,1,2
35,2,object_10,object_09,492.89999999106,3,1,462.59999999404,0.8888888888888888,1,object_06,1,361,0,8,4,forest_2,1,memory-2step-stake-s,528,1333893,0.0-19.0-0.0-0.35,A36T7N6CT9GUCG,3MQKOF1EF54KJDI76AN431783D3WDT,39PAAFCODQGH7WCTSSNPBN23T2STVZ,3,4
36,3,object_02,object_04,991.79999999702,5,1,571.20000000298,1.0,1,object_06,5,406,0,9,5,library_7,1,memory-2step-stake-s,529,1342636,0.0-19.0-0.0-0.36,A36T7N6CT9GUCG,3MQKOF1EF54KJDI76AN431783D3WDT,39PAAFCODQGH7WCTSSNPBN23T2STVZ,5,6
37,3,object_02,object_04,1113.200000003,5,1,498.80000001192,0.8888888888888888,1,object_06,5,446,0,8,6,library_5,1,memory-2step-stake-s,530,1351200,0.0-19.0-0.0-0.37,A36T7N6CT9GUCG,3MQKOF1EF54KJDI76AN431783D3WDT,39PAAFCODQGH7WCTSSNPBN23T2STVZ,5,6
38,1,object_07,object_08,831.09999999404,2,2,914.90000000596,0.7777777777777778,2,object_01,1,453,0,9,7,desert_1,1,memory-2step-stake-s,531,1360081,0.0-19.0-0.0-0.38,A36T7N6CT9GUCG,3MQKOF1EF54KJDI76AN431783D3WDT,39PAAFCODQGH7WCTSSNPBN23T2STVZ,1,2
39,3,object_04,object_02,790.59999999404,6,1,378.79999999702,0.6666666666666666,2,object_01,5,483,0,9,6,library_8,1,memory-2step-stake-s,532,1368317,0.0-19.0-0.0-0.39,A36T7N6CT9GUCG,3MQKOF1EF54KJDI76AN431783D3WDT,39PAAFCODQGH7WCTSSNPBN23T2STVZ,6,5
40,4,object_05,object_03,901.39999999106,7,2,333.5,1.0,1,object_06,5,528,0,9,9,restaurant_6,1,memory-2step-stake-s,533,1376831,0.0-19.0-0.0-0.40,A36T7N6CT9GUCG,3MQKOF1EF54KJDI76AN431783D3WDT,39PAAFCODQGH7WCTSSNPBN23T2STVZ,8,7
41,4,object_03,object_05,625.5,7,1,436.79999999702,1.0,1,object_06,5,573,0,9,8,restaurant_2,1,memory-2step-stake-s,534,1385431,0.0-19.0-0.0-0.41,A36T7N6CT9GUCG,3MQKOF1EF54KJDI76AN431783D3WDT,39PAAFCODQGH7WCTSSNPBN23T2STVZ,7,8
42,4,object_03,object_05,562.59999999404,7,1,443.70000000298,0.8888888888888888,1,object_06,5,613,0,8,5,restaurant_5,1,memory-2step-stake-s,535,1393944,0.0-19.0-0.0-0.42,A36T7N6CT9GUCG,3MQKOF1EF54KJDI76AN431783D3WDT,39PAAFCODQGH7WCTSSNPBN23T2STVZ,7,8
43,4,object_05,object_03,576.09999999404,7,2,387.69999998808,0.7777777777777778,1,object_06,5,648,0,7,4,restaurant_1,1,memory-2step-stake-s,536,1402300,0.0-19.0-0.0-0.43,A36T7N6CT9GUCG,3MQKOF1EF54KJDI76AN431783D3WDT,39PAAFCODQGH7WCTSSNPBN23T2STVZ,8,7
44,3,object_02,object_04,860.79999999702,5,1,518.09999999404,0.8888888888888888,1,object_06,5,688,0,8,1,library_5,1,memory-2step-stake-s,537,1410887,0.0-19.0-0.0-0.44,A36T7N6CT9GUCG,3MQKOF1EF54KJDI76AN431783D3WDT,39PAAFCODQGH7WCTSSNPBN23T2STVZ,5,6
45,2,object_10,object_09,730.29999999702,4,2,704.39999999106,0.4444444444444444,2,object_01,1,692,0,8,4,forest_1,1,memory-2step-stake-s,538,1419248,0.0-19.0-0.0-0.45,A36T7N6CT9GUCG,3MQKOF1EF54KJDI76AN431783D3WDT,39PAAFCODQGH7WCTSSNPBN23T2STVZ,3,4
46,3,object_02,object_04,943.5,5,1,620.5,0.8888888888888888,1,object_06,5,732,0,8,6,library_5,1,memory-2step-stake-s,539,1427945,0.0-19.0-0.0-0.46,A36T7N6CT9GUCG,3MQKOF1EF54KJDI76AN431783D3WDT,39PAAFCODQGH7WCTSSNPBN23T2STVZ,5,6
47,2,object_09,object_10,730.0,3,2,464.0,0.8888888888888888,1,object_06,1,740,0,8,8,forest_2,1,memory-2step-stake-s,540,1436482,0.0-19.0-0.0-0.47,A36T7N6CT9GUCG,3MQKOF1EF54KJDI76AN431783D3WDT,39PAAFCODQGH7WCTSSNPBN23T2STVZ,4,3
48,2,object_09,object_10,644.5,3,2,614.5,0.6666666666666666,1,object_06,1,746,0,6,5,forest_2,1,memory-2step-stake-s,541,1444962,0.0-19.0-0.0-0.48,A36T7N6CT9GUCG,3MQKOF1EF54KJDI76AN431783D3WDT,39PAAFCODQGH7WCTSSNPBN23T2STVZ,4,3
49,4,object_03,object_05,1047.3999999911,8,2,321.29999999702,0.4444444444444444,2,object_01,5,766,0,4,4,restaurant_1,1,memory-2step-stake-s,542,1452946,0.0-19.0-0.0-0.49,A36T7N6CT9GUCG,3MQKOF1EF54KJDI76AN431783D3WDT,39PAAFCODQGH7WCTSSNPBN23T2STVZ,7,8
50,4,object_03,object_05,522.70000000298,7,1,854.40000000596,0.5555555555555556,1,object_06,1,771,0,5,4,restaurant_5,1,memory-2step-stake-s,543,1461555,0.0-19.0-0.0-0.50,A36T7N6CT9GUCG,3MQKOF1EF54KJDI76AN431783D3WDT,39PAAFCODQGH7WCTSSNPBN23T2STVZ,7,8
51,2,object_10,object_09,648.79999999702,4,2,481.79999999702,0.3333333333333333,2,object_01,1,774,0,1,3,forest_1,1,memory-2step-stake-s,544,1469588,0.0-19.0-0.0-0.51,A36T7N6CT9GUCG,3MQKOF1EF54KJDI76AN431783D3WDT,39PAAFCODQGH7WCTSSNPBN23T2STVZ,3,4
52,2,object_09,object_10,687.80000001192,3,2,582.20000000298,0.2222222222222222,1,object_06,1,776,0,2,0,forest_5,1,memory-2step-stake-s,545,1477621,0.0-19.0-0.0-0.52,A36T7N6CT9GUCG,3MQKOF1EF54KJDI76AN431783D3WDT,39PAAFCODQGH7WCTSSNPBN23T2STVZ,4,3
53,3,object_02,object_04,1448.0,6,2,504.89999999106,0.1111111111111111,2,object_01,5,781,0,1,1,library_7,1,memory-2step-stake-s,546,1485473,0.0-19.0-0.0-0.53,A36T7N6CT9GUCG,3MQKOF1EF54KJDI76AN431783D3WDT,39PAAFCODQGH7WCTSSNPBN23T2STVZ,5,6
54,4,object_03,object_05,959.89999999106,8,2,501.79999999702,0.3333333333333333,2,object_01,5,796,0,2,3,restaurant_2,1,memory-2step-stake-s,547,1493525,0.0-19.0-0.0-0.54,A36T7N6CT9GUCG,3MQKOF1EF54KJDI76AN431783D3WDT,39PAAFCODQGH7WCTSSNPBN23T2STVZ,7,8
55,3,object_04,object_02,1052.900000006,6,1,435.0,0.3333333333333333,2,object_01,1,799,0,1,3,library_5,1,memory-2step-stake-s,548,1501520,0.0-19.0-0.0-0.55,A36T7N6CT9GUCG,3MQKOF1EF54KJDI76AN431783D3WDT,39PAAFCODQGH7WCTSSNPBN23T2STVZ,6,5
56,1,object_07,object_08,958.20000000298,1,1,476.20000000298,0.1111111111111111,1,object_06,1,800,0,1,1,desert_1,1,memory-2step-stake-s,549,1509348,0.0-19.0-0.0-0.56,A36T7N6CT9GUCG,3MQKOF1EF54KJDI76AN431783D3WDT,39PAAFCODQGH7WCTSSNPBN23T2STVZ,1,2
57,4,object_03,object_05,708.70000000298,8,2,534.29999999702,0.2222222222222222,2,object_01,5,810,0,1,2,restaurant_6,1,memory-2step-stake-s,550,1517333,0.0-19.0-0.0-0.57,A36T7N6CT9GUCG,3MQKOF1EF54KJDI76AN431783D3WDT,39PAAFCODQGH7WCTSSNPBN23T2STVZ,7,8
58,2,object_09,object_10,734.5,3,2,521.39999999106,0.0,1,object_06,1,810,0,0,2,forest_2,1,memory-2step-stake-s,551,1525099,0.0-19.0-0.0-0.58,A36T7N6CT9GUCG,3MQKOF1EF54KJDI76AN431783D3WDT,39PAAFCODQGH7WCTSSNPBN23T2STVZ,4,3
59,2,object_10,object_09,606.70000000298,4,2,573.20000000298,0.2222222222222222,2,object_01,1,812,0,2,2,forest_3,1,memory-2step-stake-s,552,1533129,0.0-19.0-0.0-0.59,A36T7N6CT9GUCG,3MQKOF1EF54KJDI76AN431783D3WDT,39PAAFCODQGH7WCTSSNPBN23T2STVZ,3,4
60,4,object_05,object_03,788.70000000298,8,1,466.40000000596,0.2222222222222222,2,object_01,5,822,0,2,2,restaurant_6,1,memory-2step-stake-s,553,1541046,0.0-19.0-0.0-0.60,A36T7N6CT9GUCG,3MQKOF1EF54KJDI76AN431783D3WDT,39PAAFCODQGH7WCTSSNPBN23T2STVZ,8,7
61,1,object_07,object_08,1155.900000006,2,2,830.40000000596,0.1111111111111111,2,object_01,1,823,0,3,1,desert_3,1,memory-2step-stake-s,554,1549223,0.0-19.0-0.0-0.61,A36T7N6CT9GUCG,3MQKOF1EF54KJDI76AN431783D3WDT,39PAAFCODQGH7WCTSSNPBN23T2STVZ,1,2
62,4,object_03,object_05,947.29999999702,8,2,622.29999999702,0.1111111111111111,2,object_01,5,828,0,2,1,restaurant_6,1,memory-2step-stake-s,555,1557186,0.0-19.0-0.0-0.62,A36T7N6CT9GUCG,3MQKOF1EF54KJDI76AN431783D3WDT,39PAAFCODQGH7WCTSSNPBN23T2STVZ,7,8
63,3,object_02,object_04,720.79999999702,5,1,383.90000000596,0.5555555555555556,1,object_06,1,833,0,5,1,library_1,1,memory-2step-stake-s,556,1565333,0.0-19.0-0.0-0.63,A36T7N6CT9GUCG,3MQKOF1EF54KJDI76AN431783D3WDT,39PAAFCODQGH7WCTSSNPBN23T2STVZ,5,6
64,1,object_07,object_08,1120.900000006,1,1,650.0,0.0,1,object_06,5,833,0,0,0,desert_3,1,memory-2step-stake-s,557,1573228,0.0-19.0-0.0-0.64,A36T7N6CT9GUCG,3MQKOF1EF54KJDI76AN431783D3WDT,39PAAFCODQGH7WCTSSNPBN23T2STVZ,1,2
65,1,object_08,object_07,680.0,1,2,557.90000000596,0.3333333333333333,1,object_06,1,836,0,3,1,desert_7,1,memory-2step-stake-s,558,1581335,0.0-19.0-0.0-0.65,A36T7N6CT9GUCG,3MQKOF1EF54KJDI76AN431783D3WDT,39PAAFCODQGH7WCTSSNPBN23T2STVZ,2,1
66,2,object_10,object_09,522.59999999404,3,1,512.59999999404,0.6666666666666666,1,object_06,1,842,0,6,3,forest_2,1,memory-2step-stake-s,559,1589717,0.0-19.0-0.0-0.66,A36T7N6CT9GUCG,3MQKOF1EF54KJDI76AN431783D3WDT,39PAAFCODQGH7WCTSSNPBN23T2STVZ,3,4
67,3,object_02,object_04,768.09999999404,5,1,387.20000000298,0.8888888888888888,1,object_06,5,882,0,8,1,library_7,1,memory-2step-stake-s,560,1598187,0.0-19.0-0.0-0.67,A36T7N6CT9GUCG,3MQKOF1EF54KJDI76AN431783D3WDT,39PAAFCODQGH7WCTSSNPBN23T2STVZ,5,6
68,1,object_08,object_07,716.29999999702,1,2,446.5,0.7777777777777778,1,object_06,1,889,0,7,1,desert_7,1,memory-2step-stake-s,561,1606614,0.0-19.0-0.0-0.68,A36T7N6CT9GUCG,3MQKOF1EF54KJDI76AN431783D3WDT,39PAAFCODQGH7WCTSSNPBN23T2STVZ,2,1
69,1,object_07,object_08,531.29999999702,1,1,525.60000000894,0.4444444444444444,1,object_06,1,893,0,4,2,desert_4,1,memory-2step-stake-s,562,1614803,0.0-19.0-0.0-0.69,A36T7N6CT9GUCG,3MQKOF1EF54KJDI76AN431783D3WDT,39PAAFCODQGH7WCTSSNPBN23T2STVZ,1,2
70,2,object_10,object_09,648.59999999404,4,2,366.5,0.1111111111111111,2,object_01,1,894,0,7,1,forest_3,1,memory-2step-stake-s,563,1622523,0.0-19.0-0.0-0.70,A36T7N6CT9GUCG,3MQKOF1EF54KJDI76AN431783D3WDT,39PAAFCODQGH7WCTSSNPBN23T2STVZ,3,4
71,1,object_07,object_08,567.09999999404,1,1,1209.8999999911,0.6666666666666666,1,object_06,1,900,0,6,1,desert_7,1,memory-2step-stake-s,564,1631603,0.0-19.0-0.0-0.71,A36T7N6CT9GUCG,3MQKOF1EF54KJDI76AN431783D3WDT,39PAAFCODQGH7WCTSSNPBN23T2STVZ,1,2
72,1,object_08,object_07,645.10000000894,1,2,319.59999999404,0.8888888888888888,1,object_06,5,940,0,8,3,desert_4,1,memory-2step-stake-s,565,1640015,0.0-19.0-0.0-0.72,A36T7N6CT9GUCG,3MQKOF1EF54KJDI76AN431783D3WDT,39PAAFCODQGH7WCTSSNPBN23T2STVZ,2,1
73,1,object_07,object_08,704.20000000298,1,1,526.90000000596,0.7777777777777778,1,object_06,1,947,0,7,3,desert_7,1,memory-2step-stake-s,566,1648523,0.0-19.0-0.0-0.73,A36T7N6CT9GUCG,3MQKOF1EF54KJDI76AN431783D3WDT,39PAAFCODQGH7WCTSSNPBN23T2STVZ,1,2
74,1,object_07,object_08,634.19999998808,2,2,421.10000000894,0.3333333333333333,2,object_01,1,950,0,7,3,desert_3,1,memory-2step-stake-s,567,1656501,0.0-19.0-0.0-0.74,A36T7N6CT9GUCG,3MQKOF1EF54KJDI76AN431783D3WDT,39PAAFCODQGH7WCTSSNPBN23T2STVZ,1,2
75,1,object_07,object_08,686.5,1,1,675.40000000596,0.8888888888888888,1,object_06,1,958,0,8,5,desert_1,1,memory-2step-stake-s,568,1665263,0.0-19.0-0.0-0.75,A36T7N6CT9GUCG,3MQKOF1EF54KJDI76AN431783D3WDT,39PAAFCODQGH7WCTSSNPBN23T2STVZ,1,2
76,3,object_02,object_04,883.40000000596,5,1,457.70000000298,0.5555555555555556,1,object_06,5,983,0,5,3,library_1,1,memory-2step-stake-s,569,1673484,0.0-19.0-0.0-0.76,A36T7N6CT9GUCG,3MQKOF1EF54KJDI76AN431783D3WDT,39PAAFCODQGH7WCTSSNPBN23T2STVZ,5,6
77,4,object_05,object_03,870.5,8,1,469.79999999702,0.4444444444444444,2,object_01,1,987,0,2,4,restaurant_1,1,memory-2step-stake-s,570,1681609,0.0-19.0-0.0-0.77,A36T7N6CT9GUCG,3MQKOF1EF54KJDI76AN431783D3WDT,39PAAFCODQGH7WCTSSNPBN23T2STVZ,8,7
78,1,object_08,object_07,676.69999998808,2,1,586.0,0.7777777777777778,2,object_01,1,994,0,2,7,desert_3,1,memory-2step-stake-s,571,1690179,0.0-19.0-0.0-0.78,A36T7N6CT9GUCG,3MQKOF1EF54KJDI76AN431783D3WDT,39PAAFCODQGH7WCTSSNPBN23T2STVZ,2,1
79,2,object_10,object_09,625.79999999702,4,2,546.59999999404,0.5555555555555556,2,object_01,1,999,0,0,5,forest_5,1,memory-2step-stake-s,572,1698501,0.0-19.0-0.0-0.79,A36T7N6CT9GUCG,3MQKOF1EF54KJDI76AN431783D3WDT,39PAAFCODQGH7WCTSSNPBN23T2STVZ,3,4
80,3,object_02,object_04,694.20000000298,5,1,415.89999999106,0.2222222222222222,1,object_06,5,1009,0,2,8,library_7,1,memory-2step-stake-s,573,1706368,0.0-19.0-0.0-0.80,A36T7N6CT9GUCG,3MQKOF1EF54KJDI76AN431783D3WDT,39PAAFCODQGH7WCTSSNPBN23T2STVZ,5,6
81,2,object_09,object_10,546.20000000298,3,2,410.20000000298,0.3333333333333333,1,object_06,1,1012,0,3,8,forest_5,1,memory-2step-stake-s,574,1714337,0.0-19.0-0.0-0.81,A36T7N6CT9GUCG,3MQKOF1EF54KJDI76AN431783D3WDT,39PAAFCODQGH7WCTSSNPBN23T2STVZ,4,3
82,3,object_04,object_02,887.5,6,1,447.90000000596,1.0,2,object_01,1,1021,0,0,9,library_1,1,memory-2step-stake-s,575,1722985,0.0-19.0-0.0-0.82,A36T7N6CT9GUCG,3MQKOF1EF54KJDI76AN431783D3WDT,39PAAFCODQGH7WCTSSNPBN23T2STVZ,6,5
83,2,object_10,object_09,837.59999999404,3,1,693.89999999106,0.1111111111111111,1,object_06,1,1022,0,1,8,forest_3,1,memory-2step-stake-s,576,1731021,0.0-19.0-0.0-0.83,A36T7N6CT9GUCG,3MQKOF1EF54KJDI76AN431783D3WDT,39PAAFCODQGH7WCTSSNPBN23T2STVZ,3,4
84,2,object_09,object_10,769.0,3,2,513.0,0.0,1,object_06,1,1022,0,0,8,forest_3,1,memory-2step-stake-s,577,1738773,0.0-19.0-0.0-0.84,A36T7N6CT9GUCG,3MQKOF1EF54KJDI76AN431783D3WDT,39PAAFCODQGH7WCTSSNPBN23T2STVZ,4,3
85,3,object_04,object_02,900.40000000596,6,1,474.40000000596,0.5555555555555556,2,object_01,5,1047,0,1,5,library_5,1,memory-2step-stake-s,578,1747006,0.0-19.0-0.0-0.85,A36T7N6CT9GUCG,3MQKOF1EF54KJDI76AN431783D3WDT,39PAAFCODQGH7WCTSSNPBN23T2STVZ,6,5
86,2,object_09,object_10,760.40000000596,4,1,624.59999999404,0.5555555555555556,2,object_01,1,1052,0,1,5,forest_1,1,memory-2step-stake-s,579,1755402,0.0-19.0-0.0-0.86,A36T7N6CT9GUCG,3MQKOF1EF54KJDI76AN431783D3WDT,39PAAFCODQGH7WCTSSNPBN23T2STVZ,4,3
87,1,object_07,object_08,697.29999999702,2,2,497.29999999702,0.5555555555555556,2,object_01,1,1057,0,2,5,desert_7,1,memory-2step-stake-s,580,1763671,0.0-19.0-0.0-0.87,A36T7N6CT9GUCG,3MQKOF1EF54KJDI76AN431783D3WDT,39PAAFCODQGH7WCTSSNPBN23T2STVZ,1,2
88,4,object_05,object_03,1070.5,8,1,352.39999999106,0.2222222222222222,2,object_01,5,1067,0,0,2,restaurant_1,1,memory-2step-stake-s,581,1771476,0.0-19.0-0.0-0.88,A36T7N6CT9GUCG,3MQKOF1EF54KJDI76AN431783D3WDT,39PAAFCODQGH7WCTSSNPBN23T2STVZ,8,7
89,2,object_10,object_09,654.29999999702,3,1,419.20000000298,0.2222222222222222,1,object_06,1,1069,0,2,5,forest_2,1,memory-2step-stake-s,582,1779352,0.0-19.0-0.0-0.89,A36T7N6CT9GUCG,3MQKOF1EF54KJDI76AN431783D3WDT,39PAAFCODQGH7WCTSSNPBN23T2STVZ,3,4
90,2,object_10,object_09,563.40000000596,4,2,371.60000000894,0.1111111111111111,2,object_01,5,1074,0,4,1,forest_5,1,memory-2step-stake-s,583,1787069,0.0-19.0-0.0-0.90,A36T7N6CT9GUCG,3MQKOF1EF54KJDI76AN431783D3WDT,39PAAFCODQGH7WCTSSNPBN23T2STVZ,3,4
91,3,object_02,object_04,992.0,5,1,443.40000000596,0.6666666666666666,1,object_06,5,1104,0,6,2,library_5,1,memory-2step-stake-s,584,1795391,0.0-19.0-0.0-0.91,A36T7N6CT9GUCG,3MQKOF1EF54KJDI76AN431783D3WDT,39PAAFCODQGH7WCTSSNPBN23T2STVZ,5,6
92,1,object_08,object_07,654.80000001192,1,2,395.20000000298,0.8888888888888888,1,object_06,1,1112,0,8,4,desert_3,1,memory-2step-stake-s,585,1803866,0.0-19.0-0.0-0.92,A36T7N6CT9GUCG,3MQKOF1EF54KJDI76AN431783D3WDT,39PAAFCODQGH7WCTSSNPBN23T2STVZ,2,1
93,1,object_08,object_07,685.20000000298,1,2,504.10000000894,0.6666666666666666,1,object_06,1,1118,0,6,1,desert_4,1,memory-2step-stake-s,586,1812252,0.0-19.0-0.0-0.93,A36T7N6CT9GUCG,3MQKOF1EF54KJDI76AN431783D3WDT,39PAAFCODQGH7WCTSSNPBN23T2STVZ,2,1
94,2,object_10,object_09,536.29999999702,3,1,749.0,0.6666666666666666,1,object_06,5,1148,0,6,3,forest_1,1,memory-2step-stake-s,587,1820879,0.0-19.0-0.0-0.94,A36T7N6CT9GUCG,3MQKOF1EF54KJDI76AN431783D3WDT,39PAAFCODQGH7WCTSSNPBN23T2STVZ,3,4
95,1,object_08,object_07,934.79999999702,2,1,744.20000000298,0.3333333333333333,2,object_01,1,1151,0,6,3,desert_1,1,memory-2step-stake-s,588,1829184,0.0-19.0-0.0-0.95,A36T7N6CT9GUCG,3MQKOF1EF54KJDI76AN431783D3WDT,39PAAFCODQGH7WCTSSNPBN23T2STVZ,2,1
96,4,object_03,object_05,905.80000001192,7,1,378.59999999404,0.7777777777777778,1,object_06,5,1186,0,7,2,restaurant_5,1,memory-2step-stake-s,589,1837546,0.0-19.0-0.0-0.96,A36T7N6CT9GUCG,3MQKOF1EF54KJDI76AN431783D3WDT,39PAAFCODQGH7WCTSSNPBN23T2STVZ,7,8
97,4,object_03,object_05,490.0,7,1,367.5,1.0,1,object_06,5,1231,0,9,2,restaurant_1,1,memory-2step-stake-s,590,1846100,0.0-19.0-0.0-0.97,A36T7N6CT9GUCG,3MQKOF1EF54KJDI76AN431783D3WDT,39PAAFCODQGH7WCTSSNPBN23T2STVZ,7,8
98,3,object_02,object_04,706.09999999404,5,1,582.29999999702,1.0,1,object_06,5,1276,0,9,3,library_8,1,memory-2step-stake-s,591,1854874,0.0-19.0-0.0-0.98,A36T7N6CT9GUCG,3MQKOF1EF54KJDI76AN431783D3WDT,39PAAFCODQGH7WCTSSNPBN23T2STVZ,5,6
99,3,object_02,object_04,881.89999999106,5,1,499.59999999404,0.6666666666666666,1,object_06,5,1306,0,6,1,library_7,1,memory-2step-stake-s,592,1863241,0.0-19.0-0.0-0.99,A36T7N6CT9GUCG,3MQKOF1EF54KJDI76AN431783D3WDT,39PAAFCODQGH7WCTSSNPBN23T2STVZ,5,6
100,1,object_08,object_07,644.20000000298,1,2,903.0,0.5555555555555556,1,object_06,5,1331,0,5,5,desert_1,1,memory-2step-stake-s,593,1871915,0.0-19.0-0.0-0.100,A36T7N6CT9GUCG,3MQKOF1EF54KJDI76AN431783D3WDT,39PAAFCODQGH7WCTSSNPBN23T2STVZ,2,1
101,3,object_04,object_02,776.59999999404,5,2,381.89999999106,0.3333333333333333,1,object_06,5,1346,0,3,5,library_1,1,memory-2step-stake-s,594,1879864,0.0-19.0-0.0-0.101,A36T7N6CT9GUCG,3MQKOF1EF54KJDI76AN431783D3WDT,39PAAFCODQGH7WCTSSNPBN23T2STVZ,6,5
102,2,object_09,object_10,488.29999999702,4,1,275.20000000298,0.5555555555555556,2,object_01,1,1351,0,3,5,forest_1,1,memory-2step-stake-s,595,1887920,0.0-19.0-0.0-0.102,A36T7N6CT9GUCG,3MQKOF1EF54KJDI76AN431783D3WDT,39PAAFCODQGH7WCTSSNPBN23T2STVZ,4,3
103,3,object_04,object_02,740.70000000298,6,1,290.90000000596,0.4444444444444444,2,object_01,5,1371,0,1,4,library_7,1,memory-2step-stake-s,596,1895874,0.0-19.0-0.0-0.103,A36T7N6CT9GUCG,3MQKOF1EF54KJDI76AN431783D3WDT,39PAAFCODQGH7WCTSSNPBN23T2STVZ,6,5
104,4,object_05,object_03,940.40000000596,8,1,342.70000000298,0.4444444444444444,2,object_01,5,1391,0,0,4,restaurant_2,1,memory-2step-stake-s,597,1903887,0.0-19.0-0.0-0.104,A36T7N6CT9GUCG,3MQKOF1EF54KJDI76AN431783D3WDT,39PAAFCODQGH7WCTSSNPBN23T2STVZ,8,7
105,4,object_03,object_05,839.0,7,1,364.5,0.5555555555555556,1,object_06,5,1416,0,5,3,restaurant_1,1,memory-2step-stake-s,598,1912028,0.0-19.0-0.0-0.105,A36T7N6CT9GUCG,3MQKOF1EF54KJDI76AN431783D3WDT,39PAAFCODQGH7WCTSSNPBN23T2STVZ,7,8
106,4,object_05,object_03,751.39999999106,7,2,672.20000000298,0.7777777777777778,1,object_06,5,1451,0,7,4,restaurant_6,1,memory-2step-stake-s,599,1920692,0.0-19.0-0.0-0.106,A36T7N6CT9GUCG,3MQKOF1EF54KJDI76AN431783D3WDT,39PAAFCODQGH7WCTSSNPBN23T2STVZ,8,7
107,2,object_10,object_09,592.19999998808,3,1,324.5,0.6666666666666666,1,object_06,1,1457,0,6,2,forest_2,1,memory-2step-stake-s,600,1928895,0.0-19.0-0.0-0.107,A36T7N6CT9GUCG,3MQKOF1EF54KJDI76AN431783D3WDT,39PAAFCODQGH7WCTSSNPBN23T2STVZ,3,4
108,1,object_07,object_08,983.80000001192,1,1,489.29999999702,0.5555555555555556,1,object_06,1,1462,0,5,0,desert_4,1,memory-2step-stake-s,601,1937161,0.0-19.0-0.0-0.108,A36T7N6CT9GUCG,3MQKOF1EF54KJDI76AN431783D3WDT,39PAAFCODQGH7WCTSSNPBN23T2STVZ,1,2
109,2,object_10,object_09,583.10000000894,3,1,323.40000000596,0.1111111111111111,1,object_06,5,1467,0,1,3,forest_3,1,memory-2step-stake-s,602,1944828,0.0-19.0-0.0-0.109,A36T7N6CT9GUCG,3MQKOF1EF54KJDI76AN431783D3WDT,39PAAFCODQGH7WCTSSNPBN23T2STVZ,3,4
110,3,object_04,object_02,845.90000000596,6,1,331.5,0.4444444444444444,2,object_01,5,1487,0,0,4,library_5,1,memory-2step-stake-s,603,1952810,0.0-19.0-0.0-0.110,A36T7N6CT9GUCG,3MQKOF1EF54KJDI76AN431783D3WDT,39PAAFCODQGH7WCTSSNPBN23T2STVZ,6,5
111,2,object_09,object_10,1007.200000003,4,1,530.79999999702,0.4444444444444444,2,object_01,1,1491,0,3,4,forest_2,1,memory-2step-stake-s,604,1960993,0.0-19.0-0.0-0.111,A36T7N6CT9GUCG,3MQKOF1EF54KJDI76AN431783D3WDT,39PAAFCODQGH7WCTSSNPBN23T2STVZ,4,3
112,2,object_10,object_09,598.0,3,1,300.80000001192,0.2222222222222222,1,object_06,1,1493,0,2,8,forest_5,1,memory-2step-stake-s,605,1968736,0.0-19.0-0.0-0.112,A36T7N6CT9GUCG,3MQKOF1EF54KJDI76AN431783D3WDT,39PAAFCODQGH7WCTSSNPBN23T2STVZ,3,4
113,4,object_05,object_03,704.59999999404,8,1,272.40000000596,1.0,2,object_01,1,1502,0,2,9,restaurant_2,1,memory-2step-stake-s,606,1977182,0.0-19.0-0.0-0.113,A36T7N6CT9GUCG,3MQKOF1EF54KJDI76AN431783D3WDT,39PAAFCODQGH7WCTSSNPBN23T2STVZ,8,7
114,1,object_08,object_07,732.60000000894,2,1,410.90000000596,0.8888888888888888,2,object_01,1,1510,0,2,8,desert_7,1,memory-2step-stake-s,607,1985654,0.0-19.0-0.0-0.114,A36T7N6CT9GUCG,3MQKOF1EF54KJDI76AN431783D3WDT,39PAAFCODQGH7WCTSSNPBN23T2STVZ,2,1
115,3,object_04,object_02,655.29999999702,6,1,382.70000000298,0.6666666666666666,2,object_01,5,1540,0,1,6,library_8,1,memory-2step-stake-s,608,1993890,0.0-19.0-0.0-0.115,A36T7N6CT9GUCG,3MQKOF1EF54KJDI76AN431783D3WDT,39PAAFCODQGH7WCTSSNPBN23T2STVZ,6,5
116,2,object_10,object_09,594.10000000894,4,2,446.29999999702,0.6666666666666666,2,object_01,1,1546,0,7,6,forest_1,1,memory-2step-stake-s,609,2002193,0.0-19.0-0.0-0.116,A36T7N6CT9GUCG,3MQKOF1EF54KJDI76AN431783D3WDT,39PAAFCODQGH7WCTSSNPBN23T2STVZ,3,4
117,1,object_07,object_08,888.20000000298,2,2,399.29999999702,0.5555555555555556,2,object_01,5,1571,0,8,5,desert_4,1,memory-2step-stake-s,610,2010346,0.0-19.0-0.0-0.117,A36T7N6CT9GUCG,3MQKOF1EF54KJDI76AN431783D3WDT,39PAAFCODQGH7WCTSSNPBN23T2STVZ,1,2
118,1,object_08,object_07,575.60000000894,1,2,500.90000000596,0.8888888888888888,1,object_06,1,1579,0,8,5,desert_3,1,memory-2step-stake-s,611,2018905,0.0-19.0-0.0-0.118,A36T7N6CT9GUCG,3MQKOF1EF54KJDI76AN431783D3WDT,39PAAFCODQGH7WCTSSNPBN23T2STVZ,2,1
119,4,object_05,object_03,726.5,7,2,450.09999999404,1.0,1,object_06,5,1624,0,9,1,restaurant_1,1,memory-2step-stake-s,612,2027521,0.0-19.0-0.0-0.119,A36T7N6CT9GUCG,3MQKOF1EF54KJDI76AN431783D3WDT,39PAAFCODQGH7WCTSSNPBN23T2STVZ,8,7
120,3,object_04,object_02,1174.6999999881,5,2,439.29999999702,0.7777777777777778,1,object_06,1,1631,0,7,2,library_8,1,memory-2step-stake-s,613,2035926,0.0-19.0-0.0-0.120,A36T7N6CT9GUCG,3MQKOF1EF54KJDI76AN431783D3WDT,39PAAFCODQGH7WCTSSNPBN23T2STVZ,6,5
121,4,object_03,object_05,635.0,7,1,305.0,0.7777777777777778,1,object_06,5,1666,0,7,3,restaurant_5,1,memory-2step-stake-s,614,2044193,0.0-19.0-0.0-0.121,A36T7N6CT9GUCG,3MQKOF1EF54KJDI76AN431783D3WDT,39PAAFCODQGH7WCTSSNPBN23T2STVZ,7,8
122,3,object_04,object_02,1087.400000006,5,2,441.20000000298,0.8888888888888888,1,object_06,5,1706,0,8,3,library_1,1,memory-2step-stake-s,615,2052697,0.0-19.0-0.0-0.122,A36T7N6CT9GUCG,3MQKOF1EF54KJDI76AN431783D3WDT,39PAAFCODQGH7WCTSSNPBN23T2STVZ,6,5
123,4,object_03,object_05,694.09999999404,7,1,603.0,0.6666666666666666,1,object_06,5,1736,0,6,4,restaurant_2,1,memory-2step-stake-s,616,2061155,0.0-19.0-0.0-0.123,A36T7N6CT9GUCG,3MQKOF1EF54KJDI76AN431783D3WDT,39PAAFCODQGH7WCTSSNPBN23T2STVZ,7,8
124,1,object_08,object_07,620.20000000298,2,1,680.89999999106,0.2222222222222222,2,object_01,1,1738,0,8,2,desert_7,1,memory-2step-stake-s,617,2069282,0.0-19.0-0.0-0.124,A36T7N6CT9GUCG,3MQKOF1EF54KJDI76AN431783D3WDT,39PAAFCODQGH7WCTSSNPBN23T2STVZ,2,1
125,4,object_05,object_03,749.0,7,2,368.59999999404,0.8888888888888888,1,object_06,1,1746,0,8,1,restaurant_2,1,memory-2step-stake-s,618,2077719,0.0-19.0-0.0-0.125,A36T7N6CT9GUCG,3MQKOF1EF54KJDI76AN431783D3WDT,39PAAFCODQGH7WCTSSNPBN23T2STVZ,8,7
126,4,object_05,object_03,488.59999999404,7,2,437.5,1.0,1,object_06,5,1791,0,9,1,restaurant_2,1,memory-2step-stake-s,619,2086336,0.0-19.0-0.0-0.126,A36T7N6CT9GUCG,3MQKOF1EF54KJDI76AN431783D3WDT,39PAAFCODQGH7WCTSSNPBN23T2STVZ,8,7
127,1,object_08,object_07,1148.5,1,2,483.39999999106,0.8888888888888888,1,object_06,1,1799,0,8,4,desert_7,1,memory-2step-stake-s,620,2094899,0.0-19.0-0.0-0.127,A36T7N6CT9GUCG,3MQKOF1EF54KJDI76AN431783D3WDT,39PAAFCODQGH7WCTSSNPBN23T2STVZ,2,1
128,3,object_02,object_04,-1.0,-1,-1,-1.0,0.0,-,0,5,1799,0,3,3,library_1,1,memory-2step-stake-s,622,2131186,0.0-19.0-0.1-0.128,A36T7N6CT9GUCG,3MQKOF1EF54KJDI76AN431783D3WDT,39PAAFCODQGH7WCTSSNPBN23T2STVZ,5,6
129,2,object_10,object_09,784.89999999106,3,1,564.39999999106,0.4444444444444444,1,object_06,1,1803,0,4,4,forest_2,1,memory-2step-stake-s,623,2139403,0.0-19.0-0.1-0.129,A36T7N6CT9GUCG,3MQKOF1EF54KJDI76AN431783D3WDT,39PAAFCODQGH7WCTSSNPBN23T2STVZ,3,4
130,3,object_04,object_02,649.39999999106,6,1,307.70000000298,0.3333333333333333,2,object_01,5,1818,0,1,3,library_8,1,memory-2step-stake-s,624,2147254,0.0-19.0-0.1-0.130,A36T7N6CT9GUCG,3MQKOF1EF54KJDI76AN431783D3WDT,39PAAFCODQGH7WCTSSNPBN23T2STVZ,6,5
131,2,object_10,object_09,830.70000000298,3,1,643.29999999702,0.1111111111111111,1,object_06,1,1819,0,1,4,forest_1,1,memory-2step-stake-s,625,2155232,0.0-19.0-0.1-0.131,A36T7N6CT9GUCG,3MQKOF1EF54KJDI76AN431783D3WDT,39PAAFCODQGH7WCTSSNPBN23T2STVZ,3,4
132,4,object_03,object_05,726.79999999702,8,2,335.5,0.1111111111111111,2,object_01,5,1824,0,2,1,restaurant_6,1,memory-2step-stake-s,626,2162911,0.0-19.0-0.1-0.132,A36T7N6CT9GUCG,3MQKOF1EF54KJDI76AN431783D3WDT,39PAAFCODQGH7WCTSSNPBN23T2STVZ,7,8
133,2,object_10,object_09,574.90000000596,3,1,288.09999999404,0.1111111111111111,1,object_06,1,1825,0,1,2,forest_1,1,memory-2step-stake-s,627,2170539,0.0-19.0-0.1-0.133,A36T7N6CT9GUCG,3MQKOF1EF54KJDI76AN431783D3WDT,39PAAFCODQGH7WCTSSNPBN23T2STVZ,3,4
134,3,object_02,object_04,1223.599999994,6,2,341.29999999702,0.6666666666666666,2,object_01,1,1831,0,0,6,library_1,1,memory-2step-stake-s,628,2178741,0.0-19.0-0.1-0.134,A36T7N6CT9GUCG,3MQKOF1EF54KJDI76AN431783D3WDT,39PAAFCODQGH7WCTSSNPBN23T2STVZ,5,6
135,1,object_07,object_08,717.20000000298,2,2,506.40000000596,0.8888888888888888,2,object_01,1,1839,0,1,8,desert_1,1,memory-2step-stake-s,629,2187320,0.0-19.0-0.1-0.135,A36T7N6CT9GUCG,3MQKOF1EF54KJDI76AN431783D3WDT,39PAAFCODQGH7WCTSSNPBN23T2STVZ,1,2
136,3,object_04,object_02,690.79999999702,6,1,433.19999998808,0.8888888888888888,2,object_01,5,1879,0,2,8,library_8,1,memory-2step-stake-s,630,2195829,0.0-19.0-0.1-0.136,A36T7N6CT9GUCG,3MQKOF1EF54KJDI76AN431783D3WDT,39PAAFCODQGH7WCTSSNPBN23T2STVZ,6,5
137,3,object_04,object_02,616.10000000894,6,1,315.39999999106,0.8888888888888888,2,object_01,5,1919,0,0,8,library_1,1,memory-2step-stake-s,631,2204223,0.0-19.0-0.1-0.137,A36T7N6CT9GUCG,3MQKOF1EF54KJDI76AN431783D3WDT,39PAAFCODQGH7WCTSSNPBN23T2STVZ,6,5
138,3,object_04,object_02,591.5,6,1,426.10000000894,0.4444444444444444,2,object_01,5,1939,0,1,4,library_5,1,memory-2step-stake-s,632,2212305,0.0-19.0-0.1-0.138,A36T7N6CT9GUCG,3MQKOF1EF54KJDI76AN431783D3WDT,39PAAFCODQGH7WCTSSNPBN23T2STVZ,6,5
139,3,object_04,object_02,616.60000000894,5,2,383.79999999702,0.2222222222222222,1,object_06,1,1941,0,2,5,library_5,1,memory-2step-stake-s,633,2220127,0.0-19.0-0.1-0.139,A36T7N6CT9GUCG,3MQKOF1EF54KJDI76AN431783D3WDT,39PAAFCODQGH7WCTSSNPBN23T2STVZ,6,5
140,4,object_05,object_03,655.5,8,1,400.20000000298,0.5555555555555556,2,object_01,1,1946,0,4,5,restaurant_2,1,memory-2step-stake-s,634,2228286,0.0-19.0-0.1-0.140,A36T7N6CT9GUCG,3MQKOF1EF54KJDI76AN431783D3WDT,39PAAFCODQGH7WCTSSNPBN23T2STVZ,8,7
141,4,object_03,object_05,695.20000000298,8,2,304.70000000298,0.5555555555555556,2,object_01,5,1971,0,4,5,restaurant_5,1,memory-2step-stake-s,635,2236353,0.0-19.0-0.1-0.141,A36T7N6CT9GUCG,3MQKOF1EF54KJDI76AN431783D3WDT,39PAAFCODQGH7WCTSSNPBN23T2STVZ,7,8
142,2,object_09,object_10,529.79999999702,4,1,437.09999999404,0.5555555555555556,2,object_01,1,1976,0,4,5,forest_5,1,memory-2step-stake-s,636,2244540,0.0-19.0-0.1-0.142,A36T7N6CT9GUCG,3MQKOF1EF54KJDI76AN431783D3WDT,39PAAFCODQGH7WCTSSNPBN23T2STVZ,4,3
143,2,object_10,object_09,509.5,4,2,625.5,0.5555555555555556,2,object_01,5,2001,0,2,5,forest_1,1,memory-2step-stake-s,637,2252923,0.0-19.0-0.1-0.143,A36T7N6CT9GUCG,3MQKOF1EF54KJDI76AN431783D3WDT,39PAAFCODQGH7WCTSSNPBN23T2STVZ,3,4
144,4,object_05,object_03,831.59999999404,8,1,377.40000000596,0.8888888888888888,2,object_01,5,2041,0,1,8,restaurant_5,1,memory-2step-stake-s,638,2261364,0.0-19.0-0.1-0.144,A36T7N6CT9GUCG,3MQKOF1EF54KJDI76AN431783D3WDT,39PAAFCODQGH7WCTSSNPBN23T2STVZ,8,7
145,3,object_04,object_02,1211.900000006,6,1,462.79999999702,0.8888888888888888,2,object_01,5,2081,0,5,8,library_7,1,memory-2step-stake-s,639,2269897,0.0-19.0-0.1-0.145,A36T7N6CT9GUCG,3MQKOF1EF54KJDI76AN431783D3WDT,39PAAFCODQGH7WCTSSNPBN23T2STVZ,6,5
146,4,object_03,object_05,807.0,8,2,498.40000000596,0.5555555555555556,2,object_01,5,2106,0,7,5,restaurant_5,1,memory-2step-stake-s,640,2278161,0.0-19.0-0.1-0.146,A36T7N6CT9GUCG,3MQKOF1EF54KJDI76AN431783D3WDT,39PAAFCODQGH7WCTSSNPBN23T2STVZ,7,8
147,2,object_10,object_09,661.0,4,2,461.09999999404,0.5555555555555556,2,object_01,5,2131,0,5,5,forest_5,1,memory-2step-stake-s,641,2286383,0.0-19.0-0.1-0.147,A36T7N6CT9GUCG,3MQKOF1EF54KJDI76AN431783D3WDT,39PAAFCODQGH7WCTSSNPBN23T2STVZ,3,4
148,3,object_02,object_04,1011.1000000089,6,2,426.89999999106,0.6666666666666666,2,object_01,5,2161,0,6,6,library_8,1,memory-2step-stake-s,642,2294679,0.0-19.0-0.1-0.148,A36T7N6CT9GUCG,3MQKOF1EF54KJDI76AN431783D3WDT,39PAAFCODQGH7WCTSSNPBN23T2STVZ,5,6
149,3,object_02,object_04,869.79999999702,6,2,298.20000000298,0.7777777777777778,2,object_01,1,2168,0,7,7,library_7,1,memory-2step-stake-s,643,2302946,0.0-19.0-0.1-0.149,A36T7N6CT9GUCG,3MQKOF1EF54KJDI76AN431783D3WDT,39PAAFCODQGH7WCTSSNPBN23T2STVZ,5,6
150,2,object_09,object_10,465.20000000298,4,1,480.19999998808,1.0,2,object_01,1,2177,0,7,9,forest_3,1,memory-2step-stake-s,644,2311607,0.0-19.0-0.1-0.150,A36T7N6CT9GUCG,3MQKOF1EF54KJDI76AN431783D3WDT,39PAAFCODQGH7WCTSSNPBN23T2STVZ,4,3
151,4,object_05,object_03,691.79999999702,8,1,326.70000000298,0.6666666666666666,2,object_01,5,2207,0,7,6,restaurant_6,1,memory-2step-stake-s,645,2319803,0.0-19.0-0.1-0.151,A36T7N6CT9GUCG,3MQKOF1EF54KJDI76AN431783D3WDT,39PAAFCODQGH7WCTSSNPBN23T2STVZ,8,7
152,2,object_09,object_10,576.80000001192,4,1,321.0,0.3333333333333333,2,object_01,1,2210,0,9,3,forest_2,1,memory-2step-stake-s,646,2327674,0.0-19.0-0.1-0.152,A36T7N6CT9GUCG,3MQKOF1EF54KJDI76AN431783D3WDT,39PAAFCODQGH7WCTSSNPBN23T2STVZ,4,3
153,1,object_08,object_07,692.70000000298,1,2,348.5,1.0,1,object_06,1,2219,0,9,6,desert_4,1,memory-2step-stake-s,647,2336206,0.0-19.0-0.1-0.153,A36T7N6CT9GUCG,3MQKOF1EF54KJDI76AN431783D3WDT,39PAAFCODQGH7WCTSSNPBN23T2STVZ,2,1
154,1,object_07,object_08,498.5,1,1,331.90000000596,0.5555555555555556,1,object_06,1,2224,0,5,6,desert_4,1,memory-2step-stake-s,648,2344308,0.0-19.0-0.1-0.154,A36T7N6CT9GUCG,3MQKOF1EF54KJDI76AN431783D3WDT,39PAAFCODQGH7WCTSSNPBN23T2STVZ,1,2
155,4,object_05,object_03,897.90000000596,7,2,416.80000001192,0.7777777777777778,1,object_06,5,2259,0,7,5,restaurant_2,1,memory-2step-stake-s,649,2352702,0.0-19.0-0.1-0.155,A36T7N6CT9GUCG,3MQKOF1EF54KJDI76AN431783D3WDT,39PAAFCODQGH7WCTSSNPBN23T2STVZ,8,7
156,1,object_08,object_07,495.0,1,2,376.29999999702,0.8888888888888888,1,object_06,1,2267,0,8,6,desert_1,1,memory-2step-stake-s,650,2361141,0.0-19.0-0.1-0.156,A36T7N6CT9GUCG,3MQKOF1EF54KJDI76AN431783D3WDT,39PAAFCODQGH7WCTSSNPBN23T2STVZ,2,1
157,4,object_05,object_03,663.79999999702,7,2,362.5,0.2222222222222222,1,object_06,5,2277,0,2,6,restaurant_1,1,memory-2step-stake-s,651,2368956,0.0-19.0-0.1-0.157,A36T7N6CT9GUCG,3MQKOF1EF54KJDI76AN431783D3WDT,39PAAFCODQGH7WCTSSNPBN23T2STVZ,8,7
158,4,object_05,object_03,808.70000000298,8,1,398.0,0.6666666666666666,2,object_01,5,2307,0,2,6,restaurant_5,1,memory-2step-stake-s,652,2377219,0.0-19.0-0.1-0.158,A36T7N6CT9GUCG,3MQKOF1EF54KJDI76AN431783D3WDT,39PAAFCODQGH7WCTSSNPBN23T2STVZ,8,7
159,2,object_10,object_09,614.5,4,2,535.90000000596,0.5555555555555556,2,object_01,1,2312,0,4,5,forest_5,1,memory-2step-stake-s,653,2385525,0.0-19.0-0.1-0.159,A36T7N6CT9GUCG,3MQKOF1EF54KJDI76AN431783D3WDT,39PAAFCODQGH7WCTSSNPBN23T2STVZ,3,4
160,1,object_07,object_08,879.09999999404,2,2,377.69999998808,0.8888888888888888,2,object_01,1,2320,0,5,8,desert_1,1,memory-2step-stake-s,654,2393985,0.0-19.0-0.1-0.160,A36T7N6CT9GUCG,3MQKOF1EF54KJDI76AN431783D3WDT,39PAAFCODQGH7WCTSSNPBN23T2STVZ,1,2
161,2,object_10,object_09,521.0,4,2,343.5,1.0,2,object_01,5,2365,0,4,9,forest_3,1,memory-2step-stake-s,655,2402514,0.0-19.0-0.1-0.161,A36T7N6CT9GUCG,3MQKOF1EF54KJDI76AN431783D3WDT,39PAAFCODQGH7WCTSSNPBN23T2STVZ,3,4
162,4,object_03,object_05,609.59999999404,7,1,442.20000000298,0.6666666666666666,1,object_06,5,2395,0,6,8,restaurant_6,1,memory-2step-stake-s,656,2410819,0.0-19.0-0.1-0.162,A36T7N6CT9GUCG,3MQKOF1EF54KJDI76AN431783D3WDT,39PAAFCODQGH7WCTSSNPBN23T2STVZ,7,8
163,2,object_10,object_09,561.79999999702,4,2,595.5,1.0,2,object_01,1,2404,0,9,9,forest_3,1,memory-2step-stake-s,657,2419603,0.0-19.0-0.1-0.163,A36T7N6CT9GUCG,3MQKOF1EF54KJDI76AN431783D3WDT,39PAAFCODQGH7WCTSSNPBN23T2STVZ,3,4
164,4,object_03,object_05,656.29999999702,7,1,476.89999999106,0.8888888888888888,1,object_06,1,2412,0,8,9,restaurant_6,1,memory-2step-stake-s,658,2428155,0.0-19.0-0.1-0.164,A36T7N6CT9GUCG,3MQKOF1EF54KJDI76AN431783D3WDT,39PAAFCODQGH7WCTSSNPBN23T2STVZ,7,8
165,2,object_09,object_10,558.70000000298,4,1,322.29999999702,1.0,2,object_01,5,2457,0,7,9,forest_5,1,memory-2step-stake-s,659,2436667,0.0-19.0-0.1-0.165,A36T7N6CT9GUCG,3MQKOF1EF54KJDI76AN431783D3WDT,39PAAFCODQGH7WCTSSNPBN23T2STVZ,4,3
166,3,object_02,object_04,737.69999998808,5,1,458.0,0.7777777777777778,1,object_06,5,2492,0,7,5,library_5,1,memory-2step-stake-s,660,2445106,0.0-19.0-0.1-0.166,A36T7N6CT9GUCG,3MQKOF1EF54KJDI76AN431783D3WDT,39PAAFCODQGH7WCTSSNPBN23T2STVZ,5,6
167,3,object_02,object_04,821.0,6,2,453.29999999702,1.0,2,object_01,1,2501,0,7,9,library_7,1,memory-2step-stake-s,661,2453736,0.0-19.0-0.1-0.167,A36T7N6CT9GUCG,3MQKOF1EF54KJDI76AN431783D3WDT,39PAAFCODQGH7WCTSSNPBN23T2STVZ,5,6
168,3,object_04,object_02,721.89999999106,5,2,462.20000000298,0.7777777777777778,1,object_06,5,2536,0,7,9,library_5,1,memory-2step-stake-s,662,2462176,0.0-19.0-0.1-0.168,A36T7N6CT9GUCG,3MQKOF1EF54KJDI76AN431783D3WDT,39PAAFCODQGH7WCTSSNPBN23T2STVZ,6,5
169,1,object_07,object_08,739.70000000298,2,2,550.5,0.6666666666666666,2,object_01,1,2542,0,9,6,desert_1,1,memory-2step-stake-s,663,2470605,0.0-19.0-0.1-0.169,A36T7N6CT9GUCG,3MQKOF1EF54KJDI76AN431783D3WDT,39PAAFCODQGH7WCTSSNPBN23T2STVZ,1,2
170,3,object_02,object_04,723.29999999702,5,1,545.79999999702,0.8888888888888888,1,object_06,5,2582,0,8,8,library_1,1,memory-2step-stake-s,664,2479236,0.0-19.0-0.1-0.170,A36T7N6CT9GUCG,3MQKOF1EF54KJDI76AN431783D3WDT,39PAAFCODQGH7WCTSSNPBN23T2STVZ,5,6
171,2,object_09,object_10,560.89999999106,3,2,462.60000000894,0.8888888888888888,1,object_06,1,2590,0,8,9,forest_5,1,memory-2step-stake-s,665,2487769,0.0-19.0-0.1-0.171,A36T7N6CT9GUCG,3MQKOF1EF54KJDI76AN431783D3WDT,39PAAFCODQGH7WCTSSNPBN23T2STVZ,4,3
172,1,object_08,object_07,825.90000000596,1,2,533.29999999702,0.5555555555555556,1,object_06,1,2595,0,5,8,desert_3,1,memory-2step-stake-s,666,2496074,0.0-19.0-0.1-0.172,A36T7N6CT9GUCG,3MQKOF1EF54KJDI76AN431783D3WDT,39PAAFCODQGH7WCTSSNPBN23T2STVZ,2,1
173,2,object_10,object_09,591.10000000894,4,2,355.79999999702,1.0,2,object_01,1,2604,0,4,9,forest_1,1,memory-2step-stake-s,667,2504618,0.0-19.0-0.1-0.173,A36T7N6CT9GUCG,3MQKOF1EF54KJDI76AN431783D3WDT,39PAAFCODQGH7WCTSSNPBN23T2STVZ,3,4
174,3,object_04,object_02,759.0,6,1,364.10000000894,0.6666666666666666,2,object_01,5,2634,0,4,6,library_5,1,memory-2step-stake-s,668,2512859,0.0-19.0-0.1-0.174,A36T7N6CT9GUCG,3MQKOF1EF54KJDI76AN431783D3WDT,39PAAFCODQGH7WCTSSNPBN23T2STVZ,6,5
175,4,object_03,object_05,818.0,7,1,446.10000000894,0.5555555555555556,1,object_06,5,2659,0,5,6,restaurant_5,1,memory-2step-stake-s,669,2521076,0.0-19.0-0.1-0.175,A36T7N6CT9GUCG,3MQKOF1EF54KJDI76AN431783D3WDT,39PAAFCODQGH7WCTSSNPBN23T2STVZ,7,8
176,3,object_02,object_04,859.29999999702,6,2,374.70000000298,0.5555555555555556,2,object_01,5,2684,0,6,5,library_1,1,memory-2step-stake-s,670,2529220,0.0-19.0-0.1-0.176,A36T7N6CT9GUCG,3MQKOF1EF54KJDI76AN431783D3WDT,39PAAFCODQGH7WCTSSNPBN23T2STVZ,5,6
177,2,object_09,object_10,481.5,4,1,277.79999999702,0.5555555555555556,2,object_01,1,2689,0,3,5,forest_5,1,memory-2step-stake-s,671,2537267,0.0-19.0-0.1-0.177,A36T7N6CT9GUCG,3MQKOF1EF54KJDI76AN431783D3WDT,39PAAFCODQGH7WCTSSNPBN23T2STVZ,4,3
178,2,object_10,object_09,618.5,3,1,303.10000000894,0.4444444444444444,1,object_06,1,2693,0,4,7,forest_2,1,memory-2step-stake-s,672,2545232,0.0-19.0-0.1-0.178,A36T7N6CT9GUCG,3MQKOF1EF54KJDI76AN431783D3WDT,39PAAFCODQGH7WCTSSNPBN23T2STVZ,3,4
179,4,object_05,object_03,751.40000000596,8,1,310.79999999702,0.7777777777777778,2,object_01,5,2728,0,4,7,restaurant_6,1,memory-2step-stake-s,673,2553527,0.0-19.0-0.1-0.179,A36T7N6CT9GUCG,3MQKOF1EF54KJDI76AN431783D3WDT,39PAAFCODQGH7WCTSSNPBN23T2STVZ,8,7
180,4,object_03,object_05,832.39999999106,8,2,350.0,0.8888888888888888,2,object_01,5,2768,0,5,8,restaurant_5,1,memory-2step-stake-s,674,2561954,0.0-19.0-0.1-0.180,A36T7N6CT9GUCG,3MQKOF1EF54KJDI76AN431783D3WDT,39PAAFCODQGH7WCTSSNPBN23T2STVZ,7,8
181,2,object_09,object_10,501.59999999404,4,1,378.29999999702,0.8888888888888888,2,object_01,1,2776,0,7,8,forest_2,1,memory-2step-stake-s,675,2570420,0.0-19.0-0.1-0.181,A36T7N6CT9GUCG,3MQKOF1EF54KJDI76AN431783D3WDT,39PAAFCODQGH7WCTSSNPBN23T2STVZ,4,3
182,4,object_03,object_05,1020.700000003,8,2,602.70000000298,0.8888888888888888,2,object_01,5,2816,0,8,8,restaurant_5,1,memory-2step-stake-s,676,2579113,0.0-19.0-0.1-0.182,A36T7N6CT9GUCG,3MQKOF1EF54KJDI76AN431783D3WDT,39PAAFCODQGH7WCTSSNPBN23T2STVZ,7,8
183,1,object_08,object_07,880.29999999702,2,1,398.09999999404,0.7777777777777778,2,object_01,1,2823,0,4,7,desert_3,1,memory-2step-stake-s,677,2587486,0.0-19.0-0.1-0.183,A36T7N6CT9GUCG,3MQKOF1EF54KJDI76AN431783D3WDT,39PAAFCODQGH7WCTSSNPBN23T2STVZ,2,1
184,4,object_03,object_05,782.5,8,2,331.39999999106,0.8888888888888888,2,object_01,5,2863,0,5,8,restaurant_5,1,memory-2step-stake-s,678,2595904,0.0-19.0-0.1-0.184,A36T7N6CT9GUCG,3MQKOF1EF54KJDI76AN431783D3WDT,39PAAFCODQGH7WCTSSNPBN23T2STVZ,7,8
185,3,object_04,object_02,684.20000000298,6,1,293.29999999702,1.0,2,object_01,5,2908,0,7,9,library_8,1,memory-2step-stake-s,679,2604394,0.0-19.0-0.1-0.185,A36T7N6CT9GUCG,3MQKOF1EF54KJDI76AN431783D3WDT,39PAAFCODQGH7WCTSSNPBN23T2STVZ,6,5
186,2,object_09,object_10,522.79999999702,4,1,513.40000000596,1.0,2,object_01,1,2917,0,7,9,forest_1,1,memory-2step-stake-s,680,2613105,0.0-19.0-0.1-0.186,A36T7N6CT9GUCG,3MQKOF1EF54KJDI76AN431783D3WDT,39PAAFCODQGH7WCTSSNPBN23T2STVZ,4,3
187,3,object_02,object_04,853.90000000596,6,2,305.10000000894,0.8888888888888888,2,object_01,5,2957,0,7,8,library_1,1,memory-2step-stake-s,681,2621494,0.0-19.0-0.1-0.187,A36T7N6CT9GUCG,3MQKOF1EF54KJDI76AN431783D3WDT,39PAAFCODQGH7WCTSSNPBN23T2STVZ,5,6
188,4,object_05,object_03,883.20000000298,8,1,330.79999999702,0.7777777777777778,2,object_01,5,2992,0,4,7,restaurant_2,1,memory-2step-stake-s,682,2629811,0.0-19.0-0.1-0.188,A36T7N6CT9GUCG,3MQKOF1EF54KJDI76AN431783D3WDT,39PAAFCODQGH7WCTSSNPBN23T2STVZ,8,7
189,1,object_08,object_07,666.29999999702,1,2,320.40000000596,0.5555555555555556,1,object_06,1,2997,0,5,5,desert_7,1,memory-2step-stake-s,683,2637910,0.0-19.0-0.1-0.189,A36T7N6CT9GUCG,3MQKOF1EF54KJDI76AN431783D3WDT,39PAAFCODQGH7WCTSSNPBN23T2STVZ,2,1
190,3,object_02,object_04,790.5,6,2,387.19999998808,0.2222222222222222,2,object_01,5,3007,0,6,2,library_5,1,memory-2step-stake-s,684,2645748,0.0-19.0-0.1-0.190,A36T7N6CT9GUCG,3MQKOF1EF54KJDI76AN431783D3WDT,39PAAFCODQGH7WCTSSNPBN23T2STVZ,5,6
191,3,object_04,object_02,678.09999999404,5,2,318.29999999702,0.7777777777777778,1,object_06,1,3014,0,7,4,library_5,1,memory-2step-stake-s,685,2654052,0.0-19.0-0.1-0.191,A36T7N6CT9GUCG,3MQKOF1EF54KJDI76AN431783D3WDT,39PAAFCODQGH7WCTSSNPBN23T2STVZ,6,5
192,1,object_07,object_08,589.20000000298,1,1,590.29999999702,0.2222222222222222,1,object_06,5,3024,0,2,4,desert_1,1,memory-2step-stake-s,686,2662102,0.0-19.0-0.1-0.192,A36T7N6CT9GUCG,3MQKOF1EF54KJDI76AN431783D3WDT,39PAAFCODQGH7WCTSSNPBN23T2STVZ,1,2
193,2,object_09,object_10,461.0,4,1,292.09999999404,0.6666666666666666,2,object_01,1,3030,0,1,6,forest_3,1,memory-2step-stake-s,687,2670267,0.0-19.0-0.1-0.193,A36T7N6CT9GUCG,3MQKOF1EF54KJDI76AN431783D3WDT,39PAAFCODQGH7WCTSSNPBN23T2STVZ,4,3
194,1,object_08,object_07,728.40000000596,2,1,436.79999999702,0.7777777777777778,2,object_01,1,3037,0,2,7,desert_4,1,memory-2step-stake-s,688,2678694,0.0-19.0-0.1-0.194,A36T7N6CT9GUCG,3MQKOF1EF54KJDI76AN431783D3WDT,39PAAFCODQGH7WCTSSNPBN23T2STVZ,2,1
195,1,object_07,object_08,805.70000000298,2,2,343.0,0.7777777777777778,2,object_01,1,3044,0,3,7,desert_7,1,memory-2step-stake-s,689,2687027,0.0-19.0-0.1-0.195,A36T7N6CT9GUCG,3MQKOF1EF54KJDI76AN431783D3WDT,39PAAFCODQGH7WCTSSNPBN23T2STVZ,1,2
196,1,object_08,object_07,556.10000000894,2,1,465.10000000894,0.3333333333333333,2,object_01,1,3047,0,0,3,desert_7,1,memory-2step-stake-s,690,2695055,0.0-19.0-0.1-0.196,A36T7N6CT9GUCG,3MQKOF1EF54KJDI76AN431783D3WDT,39PAAFCODQGH7WCTSSNPBN23T2STVZ,2,1
197,1,object_08,object_07,670.5,1,2,301.5,0.3333333333333333,1,object_06,5,3062,0,3,6,desert_7,1,memory-2step-stake-s,691,2702916,0.0-19.0-0.1-0.197,A36T7N6CT9GUCG,3MQKOF1EF54KJDI76AN431783D3WDT,39PAAFCODQGH7WCTSSNPBN23T2STVZ,2,1
198,2,object_10,object_09,1338.099999994,4,2,570.0,0.5555555555555556,2,object_01,1,3067,0,5,5,forest_2,1,memory-2step-stake-s,692,2711245,0.0-19.0-0.1-0.198,A36T7N6CT9GUCG,3MQKOF1EF54KJDI76AN431783D3WDT,39PAAFCODQGH7WCTSSNPBN23T2STVZ,3,4
199,3,object_02,object_04,817.09999999404,6,2,303.89999999106,0.2222222222222222,2,object_01,5,3077,0,3,2,library_7,1,memory-2step-stake-s,693,2718986,0.0-19.0-0.1-0.199,A36T7N6CT9GUCG,3MQKOF1EF54KJDI76AN431783D3WDT,39PAAFCODQGH7WCTSSNPBN23T2STVZ,5,6
200,3,object_04,object_02,578.60000000894,5,2,282.39999999106,0.6666666666666666,1,object_06,1,3083,0,6,4,library_7,1,memory-2step-stake-s,694,2727121,0.0-19.0-0.1-0.200,A36T7N6CT9GUCG,3MQKOF1EF54KJDI76AN431783D3WDT,39PAAFCODQGH7WCTSSNPBN23T2STVZ,6,5
201,4,object_03,object_05,686.39999999106,7,1,268.5,0.3333333333333333,1,object_06,5,3098,0,3,5,restaurant_6,1,memory-2step-stake-s,695,2734930,0.0-19.0-0.1-0.201,A36T7N6CT9GUCG,3MQKOF1EF54KJDI76AN431783D3WDT,39PAAFCODQGH7WCTSSNPBN23T2STVZ,7,8
202,4,object_03,object_05,607.59999999404,7,1,356.40000000596,0.1111111111111111,1,object_06,5,3103,0,1,5,restaurant_5,1,memory-2step-stake-s,696,2742623,0.0-19.0-0.1-0.202,A36T7N6CT9GUCG,3MQKOF1EF54KJDI76AN431783D3WDT,39PAAFCODQGH7WCTSSNPBN23T2STVZ,7,8
203,4,object_03,object_05,748.80000001192,8,2,272.29999999702,0.6666666666666666,2,object_01,1,3109,0,2,6,restaurant_2,1,memory-2step-stake-s,697,2750748,0.0-19.0-0.1-0.203,A36T7N6CT9GUCG,3MQKOF1EF54KJDI76AN431783D3WDT,39PAAFCODQGH7WCTSSNPBN23T2STVZ,7,8
204,1,object_07,object_08,831.89999999106,2,2,334.39999999106,0.7777777777777778,2,object_01,1,3116,0,0,7,desert_7,1,memory-2step-stake-s,698,2759045,0.0-19.0-0.1-0.204,A36T7N6CT9GUCG,3MQKOF1EF54KJDI76AN431783D3WDT,39PAAFCODQGH7WCTSSNPBN23T2STVZ,1,2
205,4,object_05,object_03,1063.799999997,8,1,370.90000000596,0.7777777777777778,2,object_01,1,3123,0,4,7,restaurant_1,1,memory-2step-stake-s,699,2767385,0.0-19.0-0.1-0.205,A36T7N6CT9GUCG,3MQKOF1EF54KJDI76AN431783D3WDT,39PAAFCODQGH7WCTSSNPBN23T2STVZ,8,7
206,3,object_02,object_04,1038.5,6,2,320.29999999702,1.0,2,object_01,5,3168,0,3,9,library_1,1,memory-2step-stake-s,700,2775871,0.0-19.0-0.1-0.206,A36T7N6CT9GUCG,3MQKOF1EF54KJDI76AN431783D3WDT,39PAAFCODQGH7WCTSSNPBN23T2STVZ,5,6
207,3,object_04,object_02,843.39999999106,6,1,386.79999999702,0.8888888888888888,2,object_01,1,3176,0,2,8,library_7,1,memory-2step-stake-s,701,2784329,0.0-19.0-0.1-0.207,A36T7N6CT9GUCG,3MQKOF1EF54KJDI76AN431783D3WDT,39PAAFCODQGH7WCTSSNPBN23T2STVZ,6,5
208,3,object_02,object_04,638.69999998808,6,2,310.29999999702,0.6666666666666666,2,object_01,5,3206,0,0,6,library_8,1,memory-2step-stake-s,702,2792497,0.0-19.0-0.1-0.208,A36T7N6CT9GUCG,3MQKOF1EF54KJDI76AN431783D3WDT,39PAAFCODQGH7WCTSSNPBN23T2STVZ,5,6
209,2,object_10,object_09,507.20000000298,4,2,400.59999999404,0.5555555555555556,2,object_01,1,3211,0,1,5,forest_3,1,memory-2step-stake-s,703,2800661,0.0-19.0-0.1-0.209,A36T7N6CT9GUCG,3MQKOF1EF54KJDI76AN431783D3WDT,39PAAFCODQGH7WCTSSNPBN23T2STVZ,3,4
210,2,object_09,object_10,462.80000001192,4,1,300.5,0.3333333333333333,2,object_01,1,3214,0,1,3,forest_1,1,memory-2step-stake-s,704,2808512,0.0-19.0-0.1-0.210,A36T7N6CT9GUCG,3MQKOF1EF54KJDI76AN431783D3WDT,39PAAFCODQGH7WCTSSNPBN23T2STVZ,4,3
211,1,object_08,object_07,541.59999999404,1,2,446.90000000596,0.2222222222222222,1,object_06,1,3216,0,2,3,desert_4,1,memory-2step-stake-s,705,2816395,0.0-19.0-0.1-0.211,A36T7N6CT9GUCG,3MQKOF1EF54KJDI76AN431783D3WDT,39PAAFCODQGH7WCTSSNPBN23T2STVZ,2,1
212,4,object_03,object_05,687.0,8,2,301.20000000298,0.5555555555555556,2,object_01,5,3241,0,2,5,restaurant_2,1,memory-2step-stake-s,706,2824442,0.0-19.0-0.1-0.212,A36T7N6CT9GUCG,3MQKOF1EF54KJDI76AN431783D3WDT,39PAAFCODQGH7WCTSSNPBN23T2STVZ,7,8
213,3,object_04,object_02,731.09999999404,6,1,295.70000000298,0.5555555555555556,2,object_01,5,3266,0,5,5,library_5,1,memory-2step-stake-s,707,2832491,0.0-19.0-0.1-0.213,A36T7N6CT9GUCG,3MQKOF1EF54KJDI76AN431783D3WDT,39PAAFCODQGH7WCTSSNPBN23T2STVZ,6,5
214,1,object_08,object_07,485.5,1,2,243.5,0.8888888888888888,1,object_06,1,3274,0,8,8,desert_7,1,memory-2step-stake-s,708,2840799,0.0-19.0-0.1-0.214,A36T7N6CT9GUCG,3MQKOF1EF54KJDI76AN431783D3WDT,39PAAFCODQGH7WCTSSNPBN23T2STVZ,2,1
215,1,object_08,object_07,1305.299999997,1,2,499.0,1.0,1,object_06,1,3283,0,9,4,desert_7,1,memory-2step-stake-s,709,2849471,0.0-19.0-0.1-0.215,A36T7N6CT9GUCG,3MQKOF1EF54KJDI76AN431783D3WDT,39PAAFCODQGH7WCTSSNPBN23T2STVZ,2,1
216,2,object_10,object_09,491.90000000596,3,1,406.5,0.7777777777777778,1,object_06,1,3290,0,7,1,forest_3,1,memory-2step-stake-s,710,2857835,0.0-19.0-0.1-0.216,A36T7N6CT9GUCG,3MQKOF1EF54KJDI76AN431783D3WDT,39PAAFCODQGH7WCTSSNPBN23T2STVZ,3,4
217,3,object_02,object_04,571.09999999404,5,1,374.10000000894,0.6666666666666666,1,object_06,1,3296,0,6,2,library_1,1,memory-2step-stake-s,711,2866073,0.0-19.0-0.1-0.217,A36T7N6CT9GUCG,3MQKOF1EF54KJDI76AN431783D3WDT,39PAAFCODQGH7WCTSSNPBN23T2STVZ,5,6
218,3,object_04,object_02,640.60000000894,5,2,430.60000000894,0.8888888888888888,1,object_06,5,3336,0,8,4,library_8,1,memory-2step-stake-s,712,2874580,0.0-19.0-0.1-0.218,A36T7N6CT9GUCG,3MQKOF1EF54KJDI76AN431783D3WDT,39PAAFCODQGH7WCTSSNPBN23T2STVZ,6,5
219,3,object_02,object_04,547.70000000298,5,1,408.59999999404,0.7777777777777778,1,object_06,5,3371,0,7,3,library_1,1,memory-2step-stake-s,713,2882961,0.0-19.0-0.1-0.219,A36T7N6CT9GUCG,3MQKOF1EF54KJDI76AN431783D3WDT,39PAAFCODQGH7WCTSSNPBN23T2STVZ,5,6
220,2,object_10,object_09,626.70000000298,3,1,372.59999999404,0.6666666666666666,1,object_06,1,3377,0,6,5,forest_1,1,memory-2step-stake-s,714,2891200,0.0-19.0-0.1-0.220,A36T7N6CT9GUCG,3MQKOF1EF54KJDI76AN431783D3WDT,39PAAFCODQGH7WCTSSNPBN23T2STVZ,3,4
221,1,object_08,object_07,657.29999999702,2,1,349.39999999106,0.6666666666666666,2,object_01,1,3383,0,6,6,desert_3,1,memory-2step-stake-s,715,2899412,0.0-19.0-0.1-0.221,A36T7N6CT9GUCG,3MQKOF1EF54KJDI76AN431783D3WDT,39PAAFCODQGH7WCTSSNPBN23T2STVZ,2,1
222,1,object_07,object_08,601.29999999702,2,2,346.60000000894,0.4444444444444444,2,object_01,1,3387,0,4,4,desert_3,1,memory-2step-stake-s,716,2907418,0.0-19.0-0.1-0.222,A36T7N6CT9GUCG,3MQKOF1EF54KJDI76AN431783D3WDT,39PAAFCODQGH7WCTSSNPBN23T2STVZ,1,2
223,3,object_04,object_02,674.60000000894,5,2,420.89999999106,0.4444444444444444,1,object_06,5,3407,0,4,4,library_8,1,memory-2step-stake-s,717,2915488,0.0-19.0-0.1-0.223,A36T7N6CT9GUCG,3MQKOF1EF54KJDI76AN431783D3WDT,39PAAFCODQGH7WCTSSNPBN23T2STVZ,6,5
224,4,object_03,object_05,802.80000001192,8,2,387.69999998808,0.1111111111111111,2,object_01,5,3412,0,5,1,restaurant_1,1,memory-2step-stake-s,718,2923230,0.0-19.0-0.1-0.224,A36T7N6CT9GUCG,3MQKOF1EF54KJDI76AN431783D3WDT,39PAAFCODQGH7WCTSSNPBN23T2STVZ,7,8
225,2,object_09,object_10,531.40000000596,3,2,279.59999999404,0.4444444444444444,1,object_06,1,3416,0,4,3,forest_1,1,memory-2step-stake-s,719,2931159,0.0-19.0-0.1-0.225,A36T7N6CT9GUCG,3MQKOF1EF54KJDI76AN431783D3WDT,39PAAFCODQGH7WCTSSNPBN23T2STVZ,4,3
226,4,object_03,object_05,819.79999999702,7,1,540.59999999404,0.1111111111111111,1,object_06,5,3421,0,1,2,restaurant_2,1,memory-2step-stake-s,720,2939043,0.0-19.0-0.1-0.226,A36T7N6CT9GUCG,3MQKOF1EF54KJDI76AN431783D3WDT,39PAAFCODQGH7WCTSSNPBN23T2STVZ,7,8
227,2,object_10,object_09,530.60000000894,4,2,593.90000000596,0.3333333333333333,2,object_01,1,3424,0,4,3,forest_2,1,memory-2step-stake-s,721,2947185,0.0-19.0-0.1-0.227,A36T7N6CT9GUCG,3MQKOF1EF54KJDI76AN431783D3WDT,39PAAFCODQGH7WCTSSNPBN23T2STVZ,3,4
228,3,object_02,object_04,1003.599999994,6,2,443.5,0.5555555555555556,2,object_01,1,3429,0,0,5,library_8,1,memory-2step-stake-s,722,2955389,0.0-19.0-0.1-0.228,A36T7N6CT9GUCG,3MQKOF1EF54KJDI76AN431783D3WDT,39PAAFCODQGH7WCTSSNPBN23T2STVZ,5,6
229,4,object_05,object_03,1012.799999997,8,1,443.79999999702,0.2222222222222222,2,object_01,5,3439,0,1,2,restaurant_5,1,memory-2step-stake-s,723,2963281,0.0-19.0-0.1-0.229,A36T7N6CT9GUCG,3MQKOF1EF54KJDI76AN431783D3WDT,39PAAFCODQGH7WCTSSNPBN23T2STVZ,8,7
230,1,object_07,object_08,631.79999999702,1,1,398.19999998808,0.1111111111111111,1,object_06,1,3440,0,1,1,desert_1,1,memory-2step-stake-s,724,2971027,0.0-19.0-0.1-0.230,A36T7N6CT9GUCG,3MQKOF1EF54KJDI76AN431783D3WDT,39PAAFCODQGH7WCTSSNPBN23T2STVZ,1,2
231,1,object_07,object_08,990.20000000298,2,2,424.0,0.4444444444444444,2,object_01,1,3444,0,0,4,desert_4,1,memory-2step-stake-s,725,2979104,0.0-19.0-0.1-0.231,A36T7N6CT9GUCG,3MQKOF1EF54KJDI76AN431783D3WDT,39PAAFCODQGH7WCTSSNPBN23T2STVZ,1,2
232,2,object_09,object_10,677.29999999702,4,1,398.69999998808,0.3333333333333333,2,object_01,1,3447,0,4,3,forest_3,1,memory-2step-stake-s,726,2987051,0.0-19.0-0.1-0.232,A36T7N6CT9GUCG,3MQKOF1EF54KJDI76AN431783D3WDT,39PAAFCODQGH7WCTSSNPBN23T2STVZ,4,3
233,2,object_09,object_10,489.5,3,2,283.0,0.3333333333333333,1,object_06,1,3450,0,3,0,forest_1,1,memory-2step-stake-s,727,2994881,0.0-19.0-0.1-0.233,A36T7N6CT9GUCG,3MQKOF1EF54KJDI76AN431783D3WDT,39PAAFCODQGH7WCTSSNPBN23T2STVZ,4,3
234,1,object_07,object_08,688.69999998808,2,2,342.40000000596,0.1111111111111111,2,object_01,1,3451,0,5,1,desert_4,1,memory-2step-stake-s,728,3002568,0.0-19.0-0.1-0.234,A36T7N6CT9GUCG,3MQKOF1EF54KJDI76AN431783D3WDT,39PAAFCODQGH7WCTSSNPBN23T2STVZ,1,2
235,1,object_07,object_08,452.70000000298,1,1,289.29999999702,0.7777777777777778,1,object_06,5,3486,0,7,2,desert_3,1,memory-2step-stake-s,729,3010820,0.0-19.0-0.1-0.235,A36T7N6CT9GUCG,3MQKOF1EF54KJDI76AN431783D3WDT,39PAAFCODQGH7WCTSSNPBN23T2STVZ,1,2
236,4,object_05,object_03,798.0,7,2,297.0,1.0,1,object_06,5,3531,0,9,4,restaurant_6,1,memory-2step-stake-s,730,3019290,0.0-19.0-0.1-0.236,A36T7N6CT9GUCG,3MQKOF1EF54KJDI76AN431783D3WDT,39PAAFCODQGH7WCTSSNPBN23T2STVZ,8,7
237,2,object_10,object_09,493.60000000894,3,1,281.79999999702,0.6666666666666666,1,object_06,1,3537,0,6,1,forest_2,1,memory-2step-stake-s,731,3027437,0.0-19.0-0.1-0.237,A36T7N6CT9GUCG,3MQKOF1EF54KJDI76AN431783D3WDT,39PAAFCODQGH7WCTSSNPBN23T2STVZ,3,4
238,3,object_02,object_04,670.90000000596,5,1,461.30000001192,0.7777777777777778,1,object_06,1,3544,0,7,1,library_1,1,memory-2step-stake-s,732,3035872,0.0-19.0-0.1-0.238,A36T7N6CT9GUCG,3MQKOF1EF54KJDI76AN431783D3WDT,39PAAFCODQGH7WCTSSNPBN23T2STVZ,5,6
239,1,object_08,object_07,537.79999999702,1,2,326.0,0.8888888888888888,1,object_06,1,3552,0,8,1,desert_1,1,memory-2step-stake-s,733,3044270,0.0-19.0-0.1-0.239,A36T7N6CT9GUCG,3MQKOF1EF54KJDI76AN431783D3WDT,39PAAFCODQGH7WCTSSNPBN23T2STVZ,2,1
240,3,object_02,object_04,496.5,5,1,328.70000000298,1.0,1,object_06,5,3597,0,9,0,library_1,1,memory-2step-stake-s,734,3052788,0.0-19.0-0.1-0.240,A36T7N6CT9GUCG,3MQKOF1EF54KJDI76AN431783D3WDT,39PAAFCODQGH7WCTSSNPBN23T2STVZ,5,6
241,3,object_02,object_04,539.29999999702,5,1,349.40000000596,0.8888888888888888,1,object_06,5,3637,0,8,1,library_8,1,memory-2step-stake-s,735,3061209,0.0-19.0-0.1-0.241,A36T7N6CT9GUCG,3MQKOF1EF54KJDI76AN431783D3WDT,39PAAFCODQGH7WCTSSNPBN23T2STVZ,5,6
242,1,object_08,object_07,674.70000000298,1,2,331.69999998808,0.5555555555555556,1,object_06,1,3642,0,5,1,desert_4,1,memory-2step-stake-s,736,3069298,0.0-19.0-0.1-0.242,A36T7N6CT9GUCG,3MQKOF1EF54KJDI76AN431783D3WDT,39PAAFCODQGH7WCTSSNPBN23T2STVZ,2,1
243,3,object_02,object_04,755.59999999404,6,2,340.0,0.4444444444444444,2,object_01,5,3662,0,4,4,library_7,1,memory-2step-stake-s,737,3077296,0.0-19.0-0.1-0.243,A36T7N6CT9GUCG,3MQKOF1EF54KJDI76AN431783D3WDT,39PAAFCODQGH7WCTSSNPBN23T2STVZ,5,6
244,1,object_07,object_08,516.29999999702,2,2,293.20000000298,0.4444444444444444,2,object_01,1,3666,0,2,4,desert_1,1,memory-2step-stake-s,738,3085249,0.0-19.0-0.1-0.244,A36T7N6CT9GUCG,3MQKOF1EF54KJDI76AN431783D3WDT,39PAAFCODQGH7WCTSSNPBN23T2STVZ,1,2
245,4,object_03,object_05,694.0,7,1,323.0,0.0,1,object_06,5,3666,0,0,3,restaurant_5,1,memory-2step-stake-s,739,3092815,0.0-19.0-0.1-0.245,A36T7N6CT9GUCG,3MQKOF1EF54KJDI76AN431783D3WDT,39PAAFCODQGH7WCTSSNPBN23T2STVZ,7,8
246,4,object_03,object_05,723.79999999702,8,2,312.90000000596,0.4444444444444444,2,object_01,5,3686,0,3,4,restaurant_2,1,memory-2step-stake-s,740,3100782,0.0-19.0-0.1-0.246,A36T7N6CT9GUCG,3MQKOF1EF54KJDI76AN431783D3WDT,39PAAFCODQGH7WCTSSNPBN23T2STVZ,7,8
247,1,object_07,object_08,618.20000000298,2,2,293.60000000894,0.4444444444444444,2,object_01,5,3706,0,7,4,desert_1,1,memory-2step-stake-s,741,3108732,0.0-19.0-0.1-0.247,A36T7N6CT9GUCG,3MQKOF1EF54KJDI76AN431783D3WDT,39PAAFCODQGH7WCTSSNPBN23T2STVZ,1,2
248,4,object_03,object_05,881.29999999702,8,2,324.5,0.2222222222222222,2,object_01,5,3716,0,6,2,restaurant_1,1,memory-2step-stake-s,742,3116503,0.0-19.0-0.1-0.248,A36T7N6CT9GUCG,3MQKOF1EF54KJDI76AN431783D3WDT,39PAAFCODQGH7WCTSSNPBN23T2STVZ,7,8
249,4,object_05,object_03,618.10000000894,8,1,317.29999999702,0.3333333333333333,2,object_01,5,3731,0,4,3,restaurant_6,1,memory-2step-stake-s,743,3124368,0.0-19.0-0.1-0.249,A36T7N6CT9GUCG,3MQKOF1EF54KJDI76AN431783D3WDT,39PAAFCODQGH7WCTSSNPBN23T2STVZ,8,7
250,4,object_05,object_03,648.30000001192,7,2,294.40000000596,0.1111111111111111,1,object_06,5,3736,0,1,7,restaurant_6,1,memory-2step-stake-s,744,3132003,0.0-19.0-0.1-0.250,A36T7N6CT9GUCG,3MQKOF1EF54KJDI76AN431783D3WDT,39PAAFCODQGH7WCTSSNPBN23T2STVZ,8,7
251,1,object_08,object_07,618.80000001192,2,1,297.80000001192,0.7777777777777778,2,object_01,1,3743,0,1,7,desert_1,1,memory-2step-stake-s,745,3140277,0.0-19.0-0.1-0.251,A36T7N6CT9GUCG,3MQKOF1EF54KJDI76AN431783D3WDT,39PAAFCODQGH7WCTSSNPBN23T2STVZ,2,1
252,1,object_07,object_08,1256.3999999911,2,2,413.29999999702,0.8888888888888888,2,object_01,5,3783,0,3,8,desert_3,1,memory-2step-stake-s,746,3148764,0.0-19.0-0.1-0.252,A36T7N6CT9GUCG,3MQKOF1EF54KJDI76AN431783D3WDT,39PAAFCODQGH7WCTSSNPBN23T2STVZ,1,2
253,2,object_10,object_09,574.90000000596,4,2,342.70000000298,0.5555555555555556,2,object_01,1,3788,0,6,5,forest_5,1,memory-2step-stake-s,747,3156864,0.0-19.0-0.1-0.253,A36T7N6CT9GUCG,3MQKOF1EF54KJDI76AN431783D3WDT,39PAAFCODQGH7WCTSSNPBN23T2STVZ,3,4
254,2,object_10,object_09,465.29999999702,3,1,299.20000000298,0.3333333333333333,1,object_06,1,3791,0,3,8,forest_5,1,memory-2step-stake-s,748,3164716,0.0-19.0-0.1-0.254,A36T7N6CT9GUCG,3MQKOF1EF54KJDI76AN431783D3WDT,39PAAFCODQGH7WCTSSNPBN23T2STVZ,3,4
255,1,object_08,object_07,611.59999999404,2,1,275.70000000298,0.8888888888888888,2,object_01,1,3799,0,2,8,desert_3,1,memory-2step-stake-s,749,3173082,0.0-19.0-0.1-0.255,A36T7N6CT9GUCG,3MQKOF1EF54KJDI76AN431783D3WDT,39PAAFCODQGH7WCTSSNPBN23T2STVZ,2,1
