,state1,stim_left,stim_right,rt_1,choice1,response1,rt_2,points,state2,stim_state2,stake,score,practice,rews1,rews2,background,high_arm,trial_type,trial_index,time_elapsed,internal_node_id,subid,hitid,assignmentid,stim_left_num,stim_right_num
0,2,object_07,object_01,1098.6000000015,4,1,1049.9000000022,0.1111111111111111,2,object_10,1,1,0,7,1,forest_7,1,memory-2step-stake-s,492,1247874,0.0-19.0-0.0-0.0,AEWGY34WUIA32,3VGZ74AYUJWEHZMTR9OBXS32OP2GCF,3IXEICO796ZWS6XSRKFHZVM4C9XT64,4,3
1,1,object_02,object_08,-1.0,-1,-1,-1.0,0.0,-,0,1,1,0,7,3,desert_2,1,memory-2step-stake-s,493,1254423,0.0-19.0-0.0-0.1,AEWGY34WUIA32,3VGZ74AYUJWEHZMTR9OBXS32OP2GCF,3IXEICO796ZWS6XSRKFHZVM4C9XT64,2,1
2,4,object_04,object_09,643.10000000149,8,2,550.0,0.1111111111111111,2,object_10,1,2,0,6,1,restaurant_3,1,memory-2step-stake-s,494,1262310,0.0-19.0-0.0-0.2,AEWGY34WUIA32,3VGZ74AYUJWEHZMTR9OBXS32OP2GCF,3IXEICO796ZWS6XSRKFHZVM4C9XT64,7,8
3,3,object_05,object_06,734.80000000075,5,2,622.19999999925,0.8888888888888888,1,object_03,1,10,0,8,1,library_7,1,memory-2step-stake-s,495,1271003,0.0-19.0-0.0-0.3,AEWGY34WUIA32,3VGZ74AYUJWEHZMTR9OBXS32OP2GCF,3IXEICO796ZWS6XSRKFHZVM4C9XT64,6,5
4,2,object_01,object_07,827.10000000149,4,2,387.69999999925,0.5555555555555556,2,object_10,1,15,0,7,5,forest_2,1,memory-2step-stake-s,496,1279163,0.0-19.0-0.0-0.4,AEWGY34WUIA32,3VGZ74AYUJWEHZMTR9OBXS32OP2GCF,3IXEICO796ZWS6XSRKFHZVM4C9XT64,3,4
5,1,object_08,object_02,1074.5,2,2,343.19999999925,0.5555555555555556,2,object_10,5,40,0,6,5,desert_5,1,memory-2step-stake-s,497,1287264,0.0-19.0-0.0-0.5,AEWGY34WUIA32,3VGZ74AYUJWEHZMTR9OBXS32OP2GCF,3IXEICO796ZWS6XSRKFHZVM4C9XT64,1,2
6,4,object_09,object_04,869.89999999851,8,1,413.60000000149,0.7777777777777778,2,object_10,5,75,0,6,7,restaurant_6,1,memory-2step-stake-s,498,1295654,0.0-19.0-0.0-0.6,AEWGY34WUIA32,3VGZ74AYUJWEHZMTR9OBXS32OP2GCF,3IXEICO796ZWS6XSRKFHZVM4C9XT64,8,7
7,3,object_06,object_05,883.69999999925,5,1,400.09999999776,0.3333333333333333,1,object_03,5,90,0,3,5,library_7,1,memory-2step-stake-s,499,1303608,0.0-19.0-0.0-0.7,AEWGY34WUIA32,3VGZ74AYUJWEHZMTR9OBXS32OP2GCF,3IXEICO796ZWS6XSRKFHZVM4C9XT64,5,6
8,1,object_02,object_08,1003.3999999985,2,1,334.20000000298,0.6666666666666666,2,object_10,5,120,0,5,6,desert_5,1,memory-2step-stake-s,500,1311830,0.0-19.0-0.0-0.8,AEWGY34WUIA32,3VGZ74AYUJWEHZMTR9OBXS32OP2GCF,3IXEICO796ZWS6XSRKFHZVM4C9XT64,2,1
9,2,object_07,object_01,742.39999999851,3,2,429.40000000224,0.8888888888888888,1,object_03,1,128,0,8,8,forest_7,1,memory-2step-stake-s,501,1320342,0.0-19.0-0.0-0.9,AEWGY34WUIA32,3VGZ74AYUJWEHZMTR9OBXS32OP2GCF,3IXEICO796ZWS6XSRKFHZVM4C9XT64,4,3
10,1,object_02,object_08,830.30000000075,2,1,428.59999999776,0.6666666666666666,2,object_10,5,158,0,4,6,desert_6,1,memory-2step-stake-s,502,1328639,0.0-19.0-0.0-0.10,AEWGY34WUIA32,3VGZ74AYUJWEHZMTR9OBXS32OP2GCF,3IXEICO796ZWS6XSRKFHZVM4C9XT64,2,1
11,4,object_04,object_09,771.30000000075,8,2,413.39999999851,0.2222222222222222,2,object_10,5,168,0,8,2,restaurant_4,1,memory-2step-stake-s,503,1336488,0.0-19.0-0.0-0.11,AEWGY34WUIA32,3VGZ74AYUJWEHZMTR9OBXS32OP2GCF,3IXEICO796ZWS6XSRKFHZVM4C9XT64,7,8
12,2,object_07,object_01,981.59999999776,3,2,366.30000000075,0.8888888888888888,1,object_03,1,176,0,8,4,forest_2,1,memory-2step-stake-s,504,1344943,0.0-19.0-0.0-0.12,AEWGY34WUIA32,3VGZ74AYUJWEHZMTR9OBXS32OP2GCF,3IXEICO796ZWS6XSRKFHZVM4C9XT64,4,3
13,4,object_04,object_09,851.90000000224,8,2,243.09999999776,0.7777777777777778,2,object_10,5,211,0,8,7,restaurant_6,1,memory-2step-stake-s,505,1353141,0.0-19.0-0.0-0.13,AEWGY34WUIA32,3VGZ74AYUJWEHZMTR9OBXS32OP2GCF,3IXEICO796ZWS6XSRKFHZVM4C9XT64,7,8
14,4,object_04,object_09,762.40000000224,7,1,271.0,0.5555555555555556,1,object_03,5,236,0,5,7,restaurant_4,1,memory-2step-stake-s,506,1361204,0.0-19.0-0.0-0.14,AEWGY34WUIA32,3VGZ74AYUJWEHZMTR9OBXS32OP2GCF,3IXEICO796ZWS6XSRKFHZVM4C9XT64,7,8
15,3,object_06,object_05,691.80000000075,5,1,411.10000000149,0.4444444444444444,1,object_03,1,240,0,4,5,library_7,1,memory-2step-stake-s,507,1369258,0.0-19.0-0.0-0.15,AEWGY34WUIA32,3VGZ74AYUJWEHZMTR9OBXS32OP2GCF,3IXEICO796ZWS6XSRKFHZVM4C9XT64,5,6
16,3,object_05,object_06,1273.3999999985,6,1,300.30000000075,0.5555555555555556,2,object_10,1,245,0,6,5,library_1,1,memory-2step-stake-s,508,1377337,0.0-19.0-0.0-0.16,AEWGY34WUIA32,3VGZ74AYUJWEHZMTR9OBXS32OP2GCF,3IXEICO796ZWS6XSRKFHZVM4C9XT64,6,5
17,1,object_02,object_08,743.20000000298,2,1,147.70000000298,0.7777777777777778,2,object_10,1,252,0,6,7,desert_8,1,memory-2step-stake-s,509,1385471,0.0-19.0-0.0-0.17,AEWGY34WUIA32,3VGZ74AYUJWEHZMTR9OBXS32OP2GCF,3IXEICO796ZWS6XSRKFHZVM4C9XT64,2,1
18,4,object_09,object_04,729.30000000075,7,2,663.10000000149,0.3333333333333333,1,object_03,5,267,0,3,6,restaurant_6,1,memory-2step-stake-s,510,1393688,0.0-19.0-0.0-0.18,AEWGY34WUIA32,3VGZ74AYUJWEHZMTR9OBXS32OP2GCF,3IXEICO796ZWS6XSRKFHZVM4C9XT64,8,7
19,1,object_08,object_02,558.70000000298,2,2,481.79999999702,1.0,2,object_10,1,276,0,0,9,desert_8,1,memory-2step-stake-s,511,1402400,0.0-19.0-0.0-0.19,AEWGY34WUIA32,3VGZ74AYUJWEHZMTR9OBXS32OP2GCF,3IXEICO796ZWS6XSRKFHZVM4C9XT64,1,2
20,2,object_07,object_01,1075.200000003,4,1,299.5,0.6666666666666666,2,object_10,1,282,0,0,6,forest_7,1,memory-2step-stake-s,512,1410602,0.0-19.0-0.0-0.20,AEWGY34WUIA32,3VGZ74AYUJWEHZMTR9OBXS32OP2GCF,3IXEICO796ZWS6XSRKFHZVM4C9XT64,4,3
21,2,object_07,object_01,686.19999999925,3,2,296.30000000075,0.3333333333333333,1,object_03,1,285,0,3,5,forest_3,1,memory-2step-stake-s,513,1418457,0.0-19.0-0.0-0.21,AEWGY34WUIA32,3VGZ74AYUJWEHZMTR9OBXS32OP2GCF,3IXEICO796ZWS6XSRKFHZVM4C9XT64,4,3
22,1,object_08,object_02,652.5,2,2,389.5,0.4444444444444444,2,object_10,1,289,0,0,4,desert_2,1,memory-2step-stake-s,514,1426507,0.0-19.0-0.0-0.22,AEWGY34WUIA32,3VGZ74AYUJWEHZMTR9OBXS32OP2GCF,3IXEICO796ZWS6XSRKFHZVM4C9XT64,1,2
23,3,object_06,object_05,724.80000000075,5,1,264.90000000224,0.2222222222222222,1,object_03,1,291,0,2,5,library_7,1,memory-2step-stake-s,515,1434238,0.0-19.0-0.0-0.23,AEWGY34WUIA32,3VGZ74AYUJWEHZMTR9OBXS32OP2GCF,3IXEICO796ZWS6XSRKFHZVM4C9XT64,5,6
24,4,object_04,object_09,1042.1000000015,7,1,171.59999999776,0.0,1,object_03,5,291,0,0,4,restaurant_1,1,memory-2step-stake-s,516,1441649,0.0-19.0-0.0-0.24,AEWGY34WUIA32,3VGZ74AYUJWEHZMTR9OBXS32OP2GCF,3IXEICO796ZWS6XSRKFHZVM4C9XT64,7,8
25,1,object_02,object_08,1083.9000000022,1,2,272.30000000075,0.0,1,object_03,1,291,0,0,4,desert_8,1,memory-2step-stake-s,517,1449181,0.0-19.0-0.0-0.25,AEWGY34WUIA32,3VGZ74AYUJWEHZMTR9OBXS32OP2GCF,3IXEICO796ZWS6XSRKFHZVM4C9XT64,2,1
26,1,object_08,object_02,721.19999999925,1,1,480.90000000224,0.3333333333333333,1,object_03,1,294,0,3,4,desert_6,1,memory-2step-stake-s,518,1457209,0.0-19.0-0.0-0.26,AEWGY34WUIA32,3VGZ74AYUJWEHZMTR9OBXS32OP2GCF,3IXEICO796ZWS6XSRKFHZVM4C9XT64,1,2
27,3,object_05,object_06,1312.5,6,1,520.30000000075,0.0,2,object_10,5,294,0,0,0,library_7,1,memory-2step-stake-s,519,1464967,0.0-19.0-0.0-0.27,AEWGY34WUIA32,3VGZ74AYUJWEHZMTR9OBXS32OP2GCF,3IXEICO796ZWS6XSRKFHZVM4C9XT64,6,5
28,1,object_08,object_02,926.10000000149,2,2,264.40000000224,0.1111111111111111,2,object_10,1,295,0,2,1,desert_2,1,memory-2step-stake-s,520,1472579,0.0-19.0-0.0-0.28,AEWGY34WUIA32,3VGZ74AYUJWEHZMTR9OBXS32OP2GCF,3IXEICO796ZWS6XSRKFHZVM4C9XT64,1,2
29,2,object_01,object_07,812.40000000224,4,2,353.20000000298,0.1111111111111111,2,object_10,1,296,0,1,1,forest_3,1,memory-2step-stake-s,521,1480308,0.0-19.0-0.0-0.29,AEWGY34WUIA32,3VGZ74AYUJWEHZMTR9OBXS32OP2GCF,3IXEICO796ZWS6XSRKFHZVM4C9XT64,3,4
30,2,object_01,object_07,699.59999999776,4,2,339.69999999925,0.2222222222222222,2,object_10,1,298,0,1,2,forest_3,1,memory-2step-stake-s,522,1488069,0.0-19.0-0.0-0.30,AEWGY34WUIA32,3VGZ74AYUJWEHZMTR9OBXS32OP2GCF,3IXEICO796ZWS6XSRKFHZVM4C9XT64,3,4
31,3,object_05,object_06,628.30000000075,5,2,768.30000000075,0.3333333333333333,1,object_03,5,313,0,3,3,library_7,1,memory-2step-stake-s,523,1496387,0.0-19.0-0.0-0.31,AEWGY34WUIA32,3VGZ74AYUJWEHZMTR9OBXS32OP2GCF,3IXEICO796ZWS6XSRKFHZVM4C9XT64,6,5
32,3,object_05,object_06,1182.3000000007,6,1,361.0,0.4444444444444444,2,object_10,1,317,0,3,4,library_1,1,memory-2step-stake-s,524,1504433,0.0-19.0-0.0-0.32,AEWGY34WUIA32,3VGZ74AYUJWEHZMTR9OBXS32OP2GCF,3IXEICO796ZWS6XSRKFHZVM4C9XT64,6,5
33,4,object_09,object_04,1068.6000000015,8,1,423.10000000149,0.4444444444444444,2,object_10,5,337,0,3,4,restaurant_4,1,memory-2step-stake-s,525,1512523,0.0-19.0-0.0-0.33,AEWGY34WUIA32,3VGZ74AYUJWEHZMTR9OBXS32OP2GCF,3IXEICO796ZWS6XSRKFHZVM4C9XT64,8,7
34,4,object_04,object_09,891.90000000224,8,2,283.39999999851,0.4444444444444444,2,object_10,5,357,0,4,4,restaurant_6,1,memory-2step-stake-s,526,1520436,0.0-19.0-0.0-0.34,AEWGY34WUIA32,3VGZ74AYUJWEHZMTR9OBXS32OP2GCF,3IXEICO796ZWS6XSRKFHZVM4C9XT64,7,8
35,2,object_07,object_01,1172.1000000015,4,1,539.5,0.0,2,object_10,1,357,0,6,0,forest_6,1,memory-2step-stake-s,527,1528227,0.0-19.0-0.0-0.35,AEWGY34WUIA32,3VGZ74AYUJWEHZMTR9OBXS32OP2GCF,3IXEICO796ZWS6XSRKFHZVM4C9XT64,4,3
36,2,object_07,object_01,946.0,3,2,286.89999999851,0.7777777777777778,1,object_03,1,364,0,7,0,forest_7,1,memory-2step-stake-s,528,1536481,0.0-19.0-0.0-0.36,AEWGY34WUIA32,3VGZ74AYUJWEHZMTR9OBXS32OP2GCF,3IXEICO796ZWS6XSRKFHZVM4C9XT64,4,3
37,2,object_01,object_07,1234.8000000007,3,1,367.19999999925,0.7777777777777778,1,object_03,1,371,0,7,4,forest_6,1,memory-2step-stake-s,529,1544824,0.0-19.0-0.0-0.37,AEWGY34WUIA32,3VGZ74AYUJWEHZMTR9OBXS32OP2GCF,3IXEICO796ZWS6XSRKFHZVM4C9XT64,3,4
38,3,object_05,object_06,-1.0,-1,-1,-1.0,0.0,-,0,1,371,0,7,0,library_4,1,memory-2step-stake-s,530,1551372,0.0-19.0-0.0-0.38,AEWGY34WUIA32,3VGZ74AYUJWEHZMTR9OBXS32OP2GCF,3IXEICO796ZWS6XSRKFHZVM4C9XT64,6,5
39,1,object_08,object_02,866.09999999776,1,1,395.5,0.8888888888888888,1,object_03,1,379,0,8,0,desert_6,1,memory-2step-stake-s,531,1559851,0.0-19.0-0.0-0.39,AEWGY34WUIA32,3VGZ74AYUJWEHZMTR9OBXS32OP2GCF,3IXEICO796ZWS6XSRKFHZVM4C9XT64,1,2
40,2,object_01,object_07,767.80000000075,3,1,571.30000000075,0.7777777777777778,1,object_03,5,414,0,7,1,forest_2,1,memory-2step-stake-s,532,1569179,0.0-19.0-0.0-0.40,AEWGY34WUIA32,3VGZ74AYUJWEHZMTR9OBXS32OP2GCF,3IXEICO796ZWS6XSRKFHZVM4C9XT64,3,4
41,3,object_05,object_06,510.09999999776,5,2,407.10000000149,0.6666666666666666,1,object_03,5,444,0,6,1,library_4,1,memory-2step-stake-s,533,1578096,0.0-19.0-0.0-0.41,AEWGY34WUIA32,3VGZ74AYUJWEHZMTR9OBXS32OP2GCF,3IXEICO796ZWS6XSRKFHZVM4C9XT64,6,5
42,4,object_09,object_04,669.89999999851,7,2,397.30000000075,0.7777777777777778,1,object_03,5,479,0,7,2,restaurant_4,1,memory-2step-stake-s,534,1586486,0.0-19.0-0.0-0.42,AEWGY34WUIA32,3VGZ74AYUJWEHZMTR9OBXS32OP2GCF,3IXEICO796ZWS6XSRKFHZVM4C9XT64,8,7
43,3,object_06,object_05,1115.6000000015,5,1,388.19999999925,0.6666666666666666,1,object_03,5,509,0,6,2,library_1,1,memory-2step-stake-s,535,1594772,0.0-19.0-0.0-0.43,AEWGY34WUIA32,3VGZ74AYUJWEHZMTR9OBXS32OP2GCF,3IXEICO796ZWS6XSRKFHZVM4C9XT64,5,6
44,1,object_08,object_02,1205.6000000015,1,1,281.0,0.4444444444444444,1,object_03,1,513,0,4,0,desert_2,1,memory-2step-stake-s,536,1602750,0.0-19.0-0.0-0.44,AEWGY34WUIA32,3VGZ74AYUJWEHZMTR9OBXS32OP2GCF,3IXEICO796ZWS6XSRKFHZVM4C9XT64,1,2
45,1,object_02,object_08,1030.3000000007,1,2,270.70000000298,0.1111111111111111,1,object_03,1,514,0,1,1,desert_2,1,memory-2step-stake-s,537,1610347,0.0-19.0-0.0-0.45,AEWGY34WUIA32,3VGZ74AYUJWEHZMTR9OBXS32OP2GCF,3IXEICO796ZWS6XSRKFHZVM4C9XT64,2,1
46,2,object_07,object_01,784.80000000075,4,1,528.80000000075,0.2222222222222222,2,object_10,1,516,0,2,2,forest_7,1,memory-2step-stake-s,538,1618338,0.0-19.0-0.0-0.46,AEWGY34WUIA32,3VGZ74AYUJWEHZMTR9OBXS32OP2GCF,3IXEICO796ZWS6XSRKFHZVM4C9XT64,4,3
47,3,object_05,object_06,871.5,6,1,660.69999999925,0.3333333333333333,2,object_10,1,519,0,2,3,library_4,1,memory-2step-stake-s,539,1626596,0.0-19.0-0.0-0.47,AEWGY34WUIA32,3VGZ74AYUJWEHZMTR9OBXS32OP2GCF,3IXEICO796ZWS6XSRKFHZVM4C9XT64,6,5
48,2,object_01,object_07,703.89999999851,3,1,701.20000000298,0.1111111111111111,1,object_03,1,520,0,1,7,forest_6,1,memory-2step-stake-s,540,1634679,0.0-19.0-0.0-0.48,AEWGY34WUIA32,3VGZ74AYUJWEHZMTR9OBXS32OP2GCF,3IXEICO796ZWS6XSRKFHZVM4C9XT64,3,4
49,2,object_07,object_01,601.59999999776,4,1,283.0,0.8888888888888888,2,object_10,1,528,0,1,8,forest_6,1,memory-2step-stake-s,541,1643053,0.0-19.0-0.0-0.49,AEWGY34WUIA32,3VGZ74AYUJWEHZMTR9OBXS32OP2GCF,3IXEICO796ZWS6XSRKFHZVM4C9XT64,4,3
50,3,object_05,object_06,1149.3000000007,6,1,482.30000000075,0.8888888888888888,2,object_10,5,568,0,1,8,library_4,1,memory-2step-stake-s,542,1651623,0.0-19.0-0.0-0.50,AEWGY34WUIA32,3VGZ74AYUJWEHZMTR9OBXS32OP2GCF,3IXEICO796ZWS6XSRKFHZVM4C9XT64,6,5
51,3,object_06,object_05,-1.0,-1,-1,-1.0,0.0,-,0,1,568,0,3,5,library_7,1,memory-2step-stake-s,543,1658164,0.0-19.0-0.0-0.51,AEWGY34WUIA32,3VGZ74AYUJWEHZMTR9OBXS32OP2GCF,3IXEICO796ZWS6XSRKFHZVM4C9XT64,5,6
52,1,object_08,object_02,1225.1999999993,1,1,604.60000000149,0.0,1,object_03,1,568,0,0,5,desert_2,1,memory-2step-stake-s,544,1666010,0.0-19.0-0.0-0.52,AEWGY34WUIA32,3VGZ74AYUJWEHZMTR9OBXS32OP2GCF,3IXEICO796ZWS6XSRKFHZVM4C9XT64,1,2
53,1,object_08,object_02,543.20000000298,2,2,314.80000000075,0.6666666666666666,2,object_10,1,574,0,3,6,desert_6,1,memory-2step-stake-s,545,1674200,0.0-19.0-0.0-0.53,AEWGY34WUIA32,3VGZ74AYUJWEHZMTR9OBXS32OP2GCF,3IXEICO796ZWS6XSRKFHZVM4C9XT64,1,2
54,4,object_09,object_04,827.89999999851,8,1,264.29999999702,0.5555555555555556,2,object_10,5,599,0,1,5,restaurant_6,1,memory-2step-stake-s,546,1682228,0.0-19.0-0.0-0.54,AEWGY34WUIA32,3VGZ74AYUJWEHZMTR9OBXS32OP2GCF,3IXEICO796ZWS6XSRKFHZVM4C9XT64,8,7
55,3,object_06,object_05,811.80000000075,5,1,377.79999999702,0.1111111111111111,1,object_03,5,604,0,1,2,library_7,1,memory-2step-stake-s,547,1689976,0.0-19.0-0.0-0.55,AEWGY34WUIA32,3VGZ74AYUJWEHZMTR9OBXS32OP2GCF,3IXEICO796ZWS6XSRKFHZVM4C9XT64,5,6
56,1,object_08,object_02,682.29999999702,2,2,220.89999999851,0.2222222222222222,2,object_10,1,606,0,1,2,desert_8,1,memory-2step-stake-s,548,1697661,0.0-19.0-0.0-0.56,AEWGY34WUIA32,3VGZ74AYUJWEHZMTR9OBXS32OP2GCF,3IXEICO796ZWS6XSRKFHZVM4C9XT64,1,2
57,3,object_06,object_05,874.60000000149,6,2,1.5,0.3333333333333333,2,object_10,5,621,0,1,3,library_3,1,memory-2step-stake-s,549,1705237,0.0-19.0-0.0-0.57,AEWGY34WUIA32,3VGZ74AYUJWEHZMTR9OBXS32OP2GCF,3IXEICO796ZWS6XSRKFHZVM4C9XT64,5,6
58,2,object_07,object_01,955.80000000075,3,2,282.10000000149,0.0,1,object_03,1,621,0,0,0,forest_3,1,memory-2step-stake-s,550,1712773,0.0-19.0-0.0-0.58,AEWGY34WUIA32,3VGZ74AYUJWEHZMTR9OBXS32OP2GCF,3IXEICO796ZWS6XSRKFHZVM4C9XT64,4,3
59,1,object_02,object_08,598.89999999851,2,1,295.59999999776,0.0,2,object_10,1,621,0,3,0,desert_5,1,memory-2step-stake-s,551,1720283,0.0-19.0-0.0-0.59,AEWGY34WUIA32,3VGZ74AYUJWEHZMTR9OBXS32OP2GCF,3IXEICO796ZWS6XSRKFHZVM4C9XT64,2,1
60,1,object_02,object_08,902.69999999925,1,2,179.29999999702,0.3333333333333333,1,object_03,1,624,0,3,1,desert_2,1,memory-2step-stake-s,552,1728023,0.0-19.0-0.0-0.60,AEWGY34WUIA32,3VGZ74AYUJWEHZMTR9OBXS32OP2GCF,3IXEICO796ZWS6XSRKFHZVM4C9XT64,2,1
61,4,object_04,object_09,1049.5,7,1,253.60000000149,0.5555555555555556,1,object_03,5,649,0,5,1,restaurant_1,1,memory-2step-stake-s,553,1736079,0.0-19.0-0.0-0.61,AEWGY34WUIA32,3VGZ74AYUJWEHZMTR9OBXS32OP2GCF,3IXEICO796ZWS6XSRKFHZVM4C9XT64,7,8
62,2,object_01,object_07,963.90000000224,3,1,453.19999999925,0.6666666666666666,1,object_03,1,655,0,6,0,forest_7,1,memory-2step-stake-s,554,1744422,0.0-19.0-0.0-0.62,AEWGY34WUIA32,3VGZ74AYUJWEHZMTR9OBXS32OP2GCF,3IXEICO796ZWS6XSRKFHZVM4C9XT64,3,4
63,4,object_09,object_04,843.40000000224,7,2,247.89999999851,0.5555555555555556,1,object_03,1,660,0,5,2,restaurant_4,1,memory-2step-stake-s,555,1752430,0.0-19.0-0.0-0.63,AEWGY34WUIA32,3VGZ74AYUJWEHZMTR9OBXS32OP2GCF,3IXEICO796ZWS6XSRKFHZVM4C9XT64,8,7
64,1,object_08,object_02,862.29999999702,1,1,39.5,0.5555555555555556,1,object_03,5,685,0,5,5,desert_5,1,memory-2step-stake-s,556,1760251,0.0-19.0-0.0-0.64,AEWGY34WUIA32,3VGZ74AYUJWEHZMTR9OBXS32OP2GCF,3IXEICO796ZWS6XSRKFHZVM4C9XT64,1,2
65,1,object_02,object_08,816.89999999851,1,2,240.90000000224,0.8888888888888888,1,object_03,1,693,0,8,6,desert_2,1,memory-2step-stake-s,557,1768576,0.0-19.0-0.0-0.65,AEWGY34WUIA32,3VGZ74AYUJWEHZMTR9OBXS32OP2GCF,3IXEICO796ZWS6XSRKFHZVM4C9XT64,2,1
66,3,object_05,object_06,1095.0,6,1,628.20000000298,0.8888888888888888,2,object_10,5,733,0,8,8,library_1,1,memory-2step-stake-s,558,1777322,0.0-19.0-0.0-0.66,AEWGY34WUIA32,3VGZ74AYUJWEHZMTR9OBXS32OP2GCF,3IXEICO796ZWS6XSRKFHZVM4C9XT64,6,5
67,2,object_07,object_01,1232.1999999993,4,1,489.30000000075,0.7777777777777778,2,object_10,1,740,0,9,7,forest_2,1,memory-2step-stake-s,559,1785793,0.0-19.0-0.0-0.67,AEWGY34WUIA32,3VGZ74AYUJWEHZMTR9OBXS32OP2GCF,3IXEICO796ZWS6XSRKFHZVM4C9XT64,4,3
68,3,object_05,object_06,829.0,5,2,578.90000000224,0.8888888888888888,1,object_03,5,780,0,8,8,library_1,1,memory-2step-stake-s,560,1794442,0.0-19.0-0.0-0.68,AEWGY34WUIA32,3VGZ74AYUJWEHZMTR9OBXS32OP2GCF,3IXEICO796ZWS6XSRKFHZVM4C9XT64,6,5
69,2,object_07,object_01,638.5,4,1,440.59999999776,0.7777777777777778,2,object_10,5,815,0,3,7,forest_7,1,memory-2step-stake-s,561,1802857,0.0-19.0-0.0-0.69,AEWGY34WUIA32,3VGZ74AYUJWEHZMTR9OBXS32OP2GCF,3IXEICO796ZWS6XSRKFHZVM4C9XT64,4,3
70,2,object_01,object_07,551.0,4,2,430.89999999851,0.4444444444444444,2,object_10,1,819,0,3,4,forest_7,1,memory-2step-stake-s,562,1810946,0.0-19.0-0.0-0.70,AEWGY34WUIA32,3VGZ74AYUJWEHZMTR9OBXS32OP2GCF,3IXEICO796ZWS6XSRKFHZVM4C9XT64,3,4
71,4,object_09,object_04,818.80000000075,8,1,279.79999999702,0.1111111111111111,2,object_10,1,820,0,1,1,restaurant_6,1,memory-2step-stake-s,563,1818588,0.0-19.0-0.0-0.71,AEWGY34WUIA32,3VGZ74AYUJWEHZMTR9OBXS32OP2GCF,3IXEICO796ZWS6XSRKFHZVM4C9XT64,8,7
72,1,object_02,object_08,1137.0,1,2,273.69999999925,0.2222222222222222,1,object_03,1,822,0,2,5,desert_8,1,memory-2step-stake-s,564,1826335,0.0-19.0-0.0-0.72,AEWGY34WUIA32,3VGZ74AYUJWEHZMTR9OBXS32OP2GCF,3IXEICO796ZWS6XSRKFHZVM4C9XT64,2,1
73,2,object_01,object_07,977.0,3,1,369.80000000075,0.4444444444444444,1,object_03,5,842,0,4,3,forest_2,1,memory-2step-stake-s,565,1834374,0.0-19.0-0.0-0.73,AEWGY34WUIA32,3VGZ74AYUJWEHZMTR9OBXS32OP2GCF,3IXEICO796ZWS6XSRKFHZVM4C9XT64,3,4
74,4,object_09,object_04,1153.3000000007,7,2,279.80000000075,0.6666666666666666,1,object_03,5,872,0,6,3,restaurant_6,1,memory-2step-stake-s,566,1842515,0.0-19.0-0.0-0.74,AEWGY34WUIA32,3VGZ74AYUJWEHZMTR9OBXS32OP2GCF,3IXEICO796ZWS6XSRKFHZVM4C9XT64,8,7
75,3,object_05,object_06,1201.9000000022,5,2,522.59999999776,1.0,1,object_03,5,917,0,9,1,library_3,1,memory-2step-stake-s,567,1851234,0.0-19.0-0.0-0.75,AEWGY34WUIA32,3VGZ74AYUJWEHZMTR9OBXS32OP2GCF,3IXEICO796ZWS6XSRKFHZVM4C9XT64,6,5
76,2,object_07,object_01,741.10000000149,3,2,301.69999999925,0.6666666666666666,1,object_03,1,923,0,6,2,forest_3,1,memory-2step-stake-s,568,1859435,0.0-19.0-0.0-0.76,AEWGY34WUIA32,3VGZ74AYUJWEHZMTR9OBXS32OP2GCF,3IXEICO796ZWS6XSRKFHZVM4C9XT64,4,3
77,3,object_05,object_06,1291.9000000022,5,2,291.5,0.4444444444444444,1,object_03,5,943,0,4,3,library_4,1,memory-2step-stake-s,569,1867407,0.0-19.0-0.0-0.77,AEWGY34WUIA32,3VGZ74AYUJWEHZMTR9OBXS32OP2GCF,3IXEICO796ZWS6XSRKFHZVM4C9XT64,6,5
78,3,object_05,object_06,534.29999999702,5,2,24.699999999255,0.2222222222222222,1,object_03,5,953,0,2,3,library_1,1,memory-2step-stake-s,570,1874888,0.0-19.0-0.0-0.78,AEWGY34WUIA32,3VGZ74AYUJWEHZMTR9OBXS32OP2GCF,3IXEICO796ZWS6XSRKFHZVM4C9XT64,6,5
79,3,object_05,object_06,1041.3000000007,6,1,226.30000000075,0.0,2,object_10,5,953,0,1,0,library_1,1,memory-2step-stake-s,571,1882361,0.0-19.0-0.0-0.79,AEWGY34WUIA32,3VGZ74AYUJWEHZMTR9OBXS32OP2GCF,3IXEICO796ZWS6XSRKFHZVM4C9XT64,6,5
80,4,object_04,object_09,1265.0,7,1,223.40000000224,0.1111111111111111,1,object_03,5,958,0,1,3,restaurant_1,1,memory-2step-stake-s,572,1889946,0.0-19.0-0.0-0.80,AEWGY34WUIA32,3VGZ74AYUJWEHZMTR9OBXS32OP2GCF,3IXEICO796ZWS6XSRKFHZVM4C9XT64,7,8
81,4,object_09,object_04,784.10000000149,8,1,122.90000000224,0.2222222222222222,2,object_10,5,968,0,5,2,restaurant_4,1,memory-2step-stake-s,573,1897495,0.0-19.0-0.0-0.81,AEWGY34WUIA32,3VGZ74AYUJWEHZMTR9OBXS32OP2GCF,3IXEICO796ZWS6XSRKFHZVM4C9XT64,8,7
82,4,object_04,object_09,903.19999999925,8,2,326.10000000149,0.6666666666666666,2,object_10,5,998,0,9,6,restaurant_6,1,memory-2step-stake-s,574,1905693,0.0-19.0-0.0-0.82,AEWGY34WUIA32,3VGZ74AYUJWEHZMTR9OBXS32OP2GCF,3IXEICO796ZWS6XSRKFHZVM4C9XT64,7,8
83,3,object_06,object_05,878.40000000224,6,2,249.19999999925,1.0,2,object_10,5,1043,0,9,9,library_7,1,memory-2step-stake-s,575,1914121,0.0-19.0-0.0-0.83,AEWGY34WUIA32,3VGZ74AYUJWEHZMTR9OBXS32OP2GCF,3IXEICO796ZWS6XSRKFHZVM4C9XT64,5,6
84,2,object_07,object_01,765.69999999925,3,2,301.5,0.8888888888888888,1,object_03,1,1051,0,8,6,forest_2,1,memory-2step-stake-s,576,1922529,0.0-19.0-0.0-0.84,AEWGY34WUIA32,3VGZ74AYUJWEHZMTR9OBXS32OP2GCF,3IXEICO796ZWS6XSRKFHZVM4C9XT64,4,3
85,4,object_04,object_09,772.69999999925,7,1,220.5,1.0,1,object_03,5,1096,0,9,5,restaurant_6,1,memory-2step-stake-s,577,1930944,0.0-19.0-0.0-0.85,AEWGY34WUIA32,3VGZ74AYUJWEHZMTR9OBXS32OP2GCF,3IXEICO796ZWS6XSRKFHZVM4C9XT64,7,8
86,2,object_07,object_01,794.80000000075,3,2,222.80000000075,0.7777777777777778,1,object_03,5,1131,0,7,7,forest_6,1,memory-2step-stake-s,578,1939133,0.0-19.0-0.0-0.86,AEWGY34WUIA32,3VGZ74AYUJWEHZMTR9OBXS32OP2GCF,3IXEICO796ZWS6XSRKFHZVM4C9XT64,4,3
87,3,object_06,object_05,750.59999999776,5,1,448.89999999851,0.6666666666666666,1,object_03,5,1161,0,6,9,library_4,1,memory-2step-stake-s,579,1947455,0.0-19.0-0.0-0.87,AEWGY34WUIA32,3VGZ74AYUJWEHZMTR9OBXS32OP2GCF,3IXEICO796ZWS6XSRKFHZVM4C9XT64,5,6
88,1,object_08,object_02,1093.0999999978,2,2,256.39999999851,0.8888888888888888,2,object_10,5,1201,0,8,8,desert_5,1,memory-2step-stake-s,580,1955782,0.0-19.0-0.0-0.88,AEWGY34WUIA32,3VGZ74AYUJWEHZMTR9OBXS32OP2GCF,3IXEICO796ZWS6XSRKFHZVM4C9XT64,1,2
89,4,object_04,object_09,520.10000000149,8,2,266.90000000224,0.8888888888888888,2,object_10,5,1241,0,8,8,restaurant_4,1,memory-2step-stake-s,581,1964171,0.0-19.0-0.0-0.89,AEWGY34WUIA32,3VGZ74AYUJWEHZMTR9OBXS32OP2GCF,3IXEICO796ZWS6XSRKFHZVM4C9XT64,7,8
90,4,object_04,object_09,1273.0,8,2,320.89999999851,1.0,2,object_10,5,1286,0,9,9,restaurant_1,1,memory-2step-stake-s,582,1972671,0.0-19.0-0.0-0.90,AEWGY34WUIA32,3VGZ74AYUJWEHZMTR9OBXS32OP2GCF,3IXEICO796ZWS6XSRKFHZVM4C9XT64,7,8
91,4,object_04,object_09,465.20000000298,8,2,318.0,0.7777777777777778,2,object_10,1,1293,0,9,7,restaurant_3,1,memory-2step-stake-s,583,1980960,0.0-19.0-0.0-0.91,AEWGY34WUIA32,3VGZ74AYUJWEHZMTR9OBXS32OP2GCF,3IXEICO796ZWS6XSRKFHZVM4C9XT64,7,8
92,4,object_09,object_04,462.30000000075,8,1,249.80000000075,1.0,2,object_10,1,1302,0,8,9,restaurant_1,1,memory-2step-stake-s,584,1989385,0.0-19.0-0.0-0.92,AEWGY34WUIA32,3VGZ74AYUJWEHZMTR9OBXS32OP2GCF,3IXEICO796ZWS6XSRKFHZVM4C9XT64,8,7
93,4,object_09,object_04,450.5,8,1,511.89999999851,0.7777777777777778,2,object_10,5,1337,0,7,7,restaurant_4,1,memory-2step-stake-s,585,1997869,0.0-19.0-0.0-0.93,AEWGY34WUIA32,3VGZ74AYUJWEHZMTR9OBXS32OP2GCF,3IXEICO796ZWS6XSRKFHZVM4C9XT64,8,7
94,1,object_08,object_02,926.89999999851,1,1,232.30000000075,0.7777777777777778,1,object_03,1,1344,0,7,5,desert_5,1,memory-2step-stake-s,586,2006103,0.0-19.0-0.0-0.94,AEWGY34WUIA32,3VGZ74AYUJWEHZMTR9OBXS32OP2GCF,3IXEICO796ZWS6XSRKFHZVM4C9XT64,1,2
95,4,object_09,object_04,611.30000000075,8,1,101.19999999925,0.1111111111111111,2,object_10,5,1349,0,7,1,restaurant_1,1,memory-2step-stake-s,587,2013541,0.0-19.0-0.0-0.95,AEWGY34WUIA32,3VGZ74AYUJWEHZMTR9OBXS32OP2GCF,3IXEICO796ZWS6XSRKFHZVM4C9XT64,8,7
96,1,object_02,object_08,1008.8999999985,1,2,273.39999999851,0.8888888888888888,1,object_03,1,1357,0,8,0,desert_2,1,memory-2step-stake-s,588,2021895,0.0-19.0-0.0-0.96,AEWGY34WUIA32,3VGZ74AYUJWEHZMTR9OBXS32OP2GCF,3IXEICO796ZWS6XSRKFHZVM4C9XT64,2,1
97,2,object_07,object_01,660.19999999925,4,1,325.59999999776,0.2222222222222222,2,object_10,5,1367,0,5,2,forest_6,1,memory-2step-stake-s,589,2029663,0.0-19.0-0.0-0.97,AEWGY34WUIA32,3VGZ74AYUJWEHZMTR9OBXS32OP2GCF,3IXEICO796ZWS6XSRKFHZVM4C9XT64,4,3
98,1,object_08,object_02,1091.4000000022,2,2,312.09999999776,0.1111111111111111,2,object_10,1,1368,0,4,1,desert_8,1,memory-2step-stake-s,590,2037319,0.0-19.0-0.0-0.98,AEWGY34WUIA32,3VGZ74AYUJWEHZMTR9OBXS32OP2GCF,3IXEICO796ZWS6XSRKFHZVM4C9XT64,1,2
99,1,object_02,object_08,933.89999999851,1,2,224.0,0.7777777777777778,1,object_03,1,1375,0,7,0,desert_8,1,memory-2step-stake-s,591,2045527,0.0-19.0-0.0-0.99,AEWGY34WUIA32,3VGZ74AYUJWEHZMTR9OBXS32OP2GCF,3IXEICO796ZWS6XSRKFHZVM4C9XT64,2,1
100,3,object_06,object_05,801.40000000224,6,2,226.10000000149,0.3333333333333333,2,object_10,5,1390,0,4,3,library_7,1,memory-2step-stake-s,592,2053336,0.0-19.0-0.0-0.100,AEWGY34WUIA32,3VGZ74AYUJWEHZMTR9OBXS32OP2GCF,3IXEICO796ZWS6XSRKFHZVM4C9XT64,5,6
101,2,object_07,object_01,861.69999999925,3,2,245.30000000075,0.3333333333333333,1,object_03,1,1393,0,3,2,forest_6,1,memory-2step-stake-s,593,2061166,0.0-19.0-0.0-0.101,AEWGY34WUIA32,3VGZ74AYUJWEHZMTR9OBXS32OP2GCF,3IXEICO796ZWS6XSRKFHZVM4C9XT64,4,3
102,3,object_05,object_06,737.39999999851,6,1,438.40000000224,0.2222222222222222,2,object_10,5,1403,0,1,2,library_3,1,memory-2step-stake-s,594,2069088,0.0-19.0-0.0-0.102,AEWGY34WUIA32,3VGZ74AYUJWEHZMTR9OBXS32OP2GCF,3IXEICO796ZWS6XSRKFHZVM4C9XT64,6,5
103,3,object_05,object_06,467.19999999925,5,2,462.69999999925,0.3333333333333333,1,object_03,1,1406,0,3,1,library_7,1,memory-2step-stake-s,595,2077111,0.0-19.0-0.0-0.103,AEWGY34WUIA32,3VGZ74AYUJWEHZMTR9OBXS32OP2GCF,3IXEICO796ZWS6XSRKFHZVM4C9XT64,6,5
104,1,object_08,object_02,829.30000000075,2,2,287.30000000075,0.3333333333333333,2,object_10,1,1409,0,4,3,desert_6,1,memory-2step-stake-s,596,2084961,0.0-19.0-0.0-0.104,AEWGY34WUIA32,3VGZ74AYUJWEHZMTR9OBXS32OP2GCF,3IXEICO796ZWS6XSRKFHZVM4C9XT64,1,2
105,4,object_04,object_09,581.60000000149,8,2,259.70000000298,0.4444444444444444,2,object_10,1,1413,0,5,4,restaurant_6,1,memory-2step-stake-s,597,2092915,0.0-19.0-0.0-0.105,AEWGY34WUIA32,3VGZ74AYUJWEHZMTR9OBXS32OP2GCF,3IXEICO796ZWS6XSRKFHZVM4C9XT64,7,8
106,2,object_07,object_01,608.19999999925,3,2,254.90000000224,0.7777777777777778,1,object_03,1,1420,0,7,3,forest_3,1,memory-2step-stake-s,598,2101122,0.0-19.0-0.0-0.106,AEWGY34WUIA32,3VGZ74AYUJWEHZMTR9OBXS32OP2GCF,3IXEICO796ZWS6XSRKFHZVM4C9XT64,4,3
107,4,object_09,object_04,651.0,7,2,278.5,0.7777777777777778,1,object_03,5,1455,0,7,4,restaurant_4,1,memory-2step-stake-s,599,2109417,0.0-19.0-0.0-0.107,AEWGY34WUIA32,3VGZ74AYUJWEHZMTR9OBXS32OP2GCF,3IXEICO796ZWS6XSRKFHZVM4C9XT64,8,7
108,3,object_06,object_05,1237.1999999993,5,1,318.80000000075,0.8888888888888888,1,object_03,5,1495,0,8,5,library_4,1,memory-2step-stake-s,600,2117854,0.0-19.0-0.0-0.108,AEWGY34WUIA32,3VGZ74AYUJWEHZMTR9OBXS32OP2GCF,3IXEICO796ZWS6XSRKFHZVM4C9XT64,5,6
109,4,object_04,object_09,832.80000000075,7,1,393.70000000298,0.7777777777777778,1,object_03,5,1530,0,7,3,restaurant_3,1,memory-2step-stake-s,601,2126198,0.0-19.0-0.0-0.109,AEWGY34WUIA32,3VGZ74AYUJWEHZMTR9OBXS32OP2GCF,3IXEICO796ZWS6XSRKFHZVM4C9XT64,7,8
110,4,object_09,object_04,652.89999999851,7,2,279.30000000075,0.8888888888888888,1,object_03,5,1570,0,8,1,restaurant_1,1,memory-2step-stake-s,602,2134534,0.0-19.0-0.0-0.110,AEWGY34WUIA32,3VGZ74AYUJWEHZMTR9OBXS32OP2GCF,3IXEICO796ZWS6XSRKFHZVM4C9XT64,8,7
111,1,object_08,object_02,956.89999999851,1,1,271.90000000224,1.0,1,object_03,1,1579,0,9,3,desert_8,1,memory-2step-stake-s,603,2142978,0.0-19.0-0.0-0.111,AEWGY34WUIA32,3VGZ74AYUJWEHZMTR9OBXS32OP2GCF,3IXEICO796ZWS6XSRKFHZVM4C9XT64,1,2
112,4,object_09,object_04,862.60000000149,7,2,435.59999999776,0.8888888888888888,1,object_03,5,1619,0,8,5,restaurant_1,1,memory-2step-stake-s,604,2151496,0.0-19.0-0.0-0.112,AEWGY34WUIA32,3VGZ74AYUJWEHZMTR9OBXS32OP2GCF,3IXEICO796ZWS6XSRKFHZVM4C9XT64,8,7
113,3,object_05,object_06,940.80000000075,6,1,388.10000000149,0.5555555555555556,2,object_10,5,1644,0,9,5,library_4,1,memory-2step-stake-s,605,2159656,0.0-19.0-0.0-0.113,AEWGY34WUIA32,3VGZ74AYUJWEHZMTR9OBXS32OP2GCF,3IXEICO796ZWS6XSRKFHZVM4C9XT64,6,5
114,3,object_05,object_06,699.0,5,2,198.89999999851,1.0,1,object_03,5,1689,0,9,1,library_1,1,memory-2step-stake-s,606,2168031,0.0-19.0-0.0-0.114,AEWGY34WUIA32,3VGZ74AYUJWEHZMTR9OBXS32OP2GCF,3IXEICO796ZWS6XSRKFHZVM4C9XT64,6,5
115,4,object_04,object_09,814.5,7,1,281.19999999925,0.8888888888888888,1,object_03,5,1729,0,8,2,restaurant_6,1,memory-2step-stake-s,607,2176379,0.0-19.0-0.0-0.115,AEWGY34WUIA32,3VGZ74AYUJWEHZMTR9OBXS32OP2GCF,3IXEICO796ZWS6XSRKFHZVM4C9XT64,7,8
116,4,object_04,object_09,727.19999999925,7,1,202.0,1.0,1,object_03,5,1774,0,9,4,restaurant_4,1,memory-2step-stake-s,608,2184770,0.0-19.0-0.0-0.116,AEWGY34WUIA32,3VGZ74AYUJWEHZMTR9OBXS32OP2GCF,3IXEICO796ZWS6XSRKFHZVM4C9XT64,7,8
117,3,object_05,object_06,818.59999999776,5,2,236.79999999702,1.0,1,object_03,5,1819,0,9,8,library_4,1,memory-2step-stake-s,609,2193208,0.0-19.0-0.0-0.117,AEWGY34WUIA32,3VGZ74AYUJWEHZMTR9OBXS32OP2GCF,3IXEICO796ZWS6XSRKFHZVM4C9XT64,6,5
118,1,object_08,object_02,694.09999999776,1,1,262.59999999776,0.5555555555555556,1,object_03,1,1824,0,5,8,desert_2,1,memory-2step-stake-s,610,2201241,0.0-19.0-0.0-0.118,AEWGY34WUIA32,3VGZ74AYUJWEHZMTR9OBXS32OP2GCF,3IXEICO796ZWS6XSRKFHZVM4C9XT64,1,2
119,2,object_07,object_01,792.10000000149,4,1,231.80000000075,0.8888888888888888,2,object_10,1,1832,0,2,8,forest_2,1,memory-2step-stake-s,611,2209538,0.0-19.0-0.0-0.119,AEWGY34WUIA32,3VGZ74AYUJWEHZMTR9OBXS32OP2GCF,3IXEICO796ZWS6XSRKFHZVM4C9XT64,4,3
120,3,object_06,object_05,749.79999999702,6,2,246.39999999851,0.8888888888888888,2,object_10,1,1840,0,3,8,library_3,1,memory-2step-stake-s,612,2217860,0.0-19.0-0.0-0.120,AEWGY34WUIA32,3VGZ74AYUJWEHZMTR9OBXS32OP2GCF,3IXEICO796ZWS6XSRKFHZVM4C9XT64,5,6
121,1,object_02,object_08,865.0,1,2,8.3000000007451,0.4444444444444444,1,object_03,1,1844,0,4,7,desert_5,1,memory-2step-stake-s,613,2225519,0.0-19.0-0.0-0.121,AEWGY34WUIA32,3VGZ74AYUJWEHZMTR9OBXS32OP2GCF,3IXEICO796ZWS6XSRKFHZVM4C9XT64,2,1
122,1,object_08,object_02,535.09999999776,1,1,184.5,0.4444444444444444,1,object_03,1,1848,0,4,7,desert_2,1,memory-2step-stake-s,614,2233374,0.0-19.0-0.0-0.122,AEWGY34WUIA32,3VGZ74AYUJWEHZMTR9OBXS32OP2GCF,3IXEICO796ZWS6XSRKFHZVM4C9XT64,1,2
123,2,object_01,object_07,615.89999999851,3,1,340.0,0.7777777777777778,1,object_03,1,1855,0,7,8,forest_3,1,memory-2step-stake-s,615,2241699,0.0-19.0-0.0-0.123,AEWGY34WUIA32,3VGZ74AYUJWEHZMTR9OBXS32OP2GCF,3IXEICO796ZWS6XSRKFHZVM4C9XT64,3,4
124,4,object_09,object_04,782.0,7,2,232.09999999776,0.8888888888888888,1,object_03,5,1895,0,8,5,restaurant_3,1,memory-2step-stake-s,616,2249987,0.0-19.0-0.0-0.124,AEWGY34WUIA32,3VGZ74AYUJWEHZMTR9OBXS32OP2GCF,3IXEICO796ZWS6XSRKFHZVM4C9XT64,8,7
125,2,object_01,object_07,990.0,4,2,266.19999999925,1.0,2,object_10,1,1904,0,8,9,forest_7,1,memory-2step-stake-s,617,2258408,0.0-19.0-0.0-0.125,AEWGY34WUIA32,3VGZ74AYUJWEHZMTR9OBXS32OP2GCF,3IXEICO796ZWS6XSRKFHZVM4C9XT64,3,4
126,4,object_09,object_04,617.19999999925,8,1,191.30000000075,1.0,2,object_10,5,1949,0,8,9,restaurant_3,1,memory-2step-stake-s,618,2266788,0.0-19.0-0.0-0.126,AEWGY34WUIA32,3VGZ74AYUJWEHZMTR9OBXS32OP2GCF,3IXEICO796ZWS6XSRKFHZVM4C9XT64,8,7
127,3,object_05,object_06,746.10000000149,6,1,120.80000000075,0.8888888888888888,2,object_10,1,1957,0,7,8,library_1,1,memory-2step-stake-s,619,2274982,0.0-19.0-0.0-0.127,AEWGY34WUIA32,3VGZ74AYUJWEHZMTR9OBXS32OP2GCF,3IXEICO796ZWS6XSRKFHZVM4C9XT64,6,5
128,1,object_02,object_08,-1.0,-1,-1,-1.0,0.0,-,0,1,1957,0,8,7,desert_6,1,memory-2step-stake-s,621,3251738,0.0-19.0-0.1-0.128,AEWGY34WUIA32,3VGZ74AYUJWEHZMTR9OBXS32OP2GCF,3IXEICO796ZWS6XSRKFHZVM4C9XT64,2,1
129,1,object_08,object_02,552.5,2,2,500.70000000298,0.4444444444444444,2,object_10,1,1961,0,7,4,desert_5,1,memory-2step-stake-s,622,3259896,0.0-19.0-0.1-0.129,AEWGY34WUIA32,3VGZ74AYUJWEHZMTR9OBXS32OP2GCF,3IXEICO796ZWS6XSRKFHZVM4C9XT64,1,2
130,1,object_08,object_02,654.30000000075,1,1,244.5,0.8888888888888888,1,object_03,5,2001,0,8,1,desert_6,1,memory-2step-stake-s,623,3268214,0.0-19.0-0.1-0.130,AEWGY34WUIA32,3VGZ74AYUJWEHZMTR9OBXS32OP2GCF,3IXEICO796ZWS6XSRKFHZVM4C9XT64,1,2
131,2,object_01,object_07,698.59999999776,3,1,489.19999999925,0.8888888888888888,1,object_03,5,2041,0,8,3,forest_3,1,memory-2step-stake-s,624,3276802,0.0-19.0-0.1-0.131,AEWGY34WUIA32,3VGZ74AYUJWEHZMTR9OBXS32OP2GCF,3IXEICO796ZWS6XSRKFHZVM4C9XT64,3,4
132,1,object_02,object_08,969.69999999925,1,2,277.90000000224,0.5555555555555556,1,object_03,1,2046,0,5,3,desert_5,1,memory-2step-stake-s,625,3284884,0.0-19.0-0.1-0.132,AEWGY34WUIA32,3VGZ74AYUJWEHZMTR9OBXS32OP2GCF,3IXEICO796ZWS6XSRKFHZVM4C9XT64,2,1
133,2,object_07,object_01,861.0,3,2,205.89999999851,0.7777777777777778,1,object_03,1,2053,0,7,2,forest_7,1,memory-2step-stake-s,626,3293052,0.0-19.0-0.1-0.133,AEWGY34WUIA32,3VGZ74AYUJWEHZMTR9OBXS32OP2GCF,3IXEICO796ZWS6XSRKFHZVM4C9XT64,4,3
134,3,object_06,object_05,1043.799999997,6,2,245.19999999925,0.4444444444444444,2,object_10,5,2073,0,9,4,library_3,1,memory-2step-stake-s,627,3300961,0.0-19.0-0.1-0.134,AEWGY34WUIA32,3VGZ74AYUJWEHZMTR9OBXS32OP2GCF,3IXEICO796ZWS6XSRKFHZVM4C9XT64,5,6
135,1,object_02,object_08,798.0,1,2,271.19999999925,0.6666666666666666,1,object_03,5,2103,0,6,5,desert_5,1,memory-2step-stake-s,628,3309091,0.0-19.0-0.1-0.135,AEWGY34WUIA32,3VGZ74AYUJWEHZMTR9OBXS32OP2GCF,3IXEICO796ZWS6XSRKFHZVM4C9XT64,2,1
136,2,object_01,object_07,868.69999999925,3,1,31.199999999255,0.3333333333333333,1,object_03,1,2106,0,3,5,forest_2,1,memory-2step-stake-s,629,3316676,0.0-19.0-0.1-0.136,AEWGY34WUIA32,3VGZ74AYUJWEHZMTR9OBXS32OP2GCF,3IXEICO796ZWS6XSRKFHZVM4C9XT64,3,4
137,1,object_02,object_08,825.59999999776,2,1,249.0,0.3333333333333333,2,object_10,5,2121,0,5,3,desert_5,1,memory-2step-stake-s,630,3324480,0.0-19.0-0.1-0.137,AEWGY34WUIA32,3VGZ74AYUJWEHZMTR9OBXS32OP2GCF,3IXEICO796ZWS6XSRKFHZVM4C9XT64,2,1
138,3,object_06,object_05,1078.4000000022,6,2,279.5,0.2222222222222222,2,object_10,5,2131,0,3,2,library_3,1,memory-2step-stake-s,631,3332226,0.0-19.0-0.1-0.138,AEWGY34WUIA32,3VGZ74AYUJWEHZMTR9OBXS32OP2GCF,3IXEICO796ZWS6XSRKFHZVM4C9XT64,5,6
139,2,object_07,object_01,795.60000000149,4,1,437.5,0.3333333333333333,2,object_10,1,2134,0,4,3,forest_6,1,memory-2step-stake-s,632,3340219,0.0-19.0-0.1-0.139,AEWGY34WUIA32,3VGZ74AYUJWEHZMTR9OBXS32OP2GCF,3IXEICO796ZWS6XSRKFHZVM4C9XT64,4,3
140,3,object_05,object_06,883.10000000149,5,2,242.40000000224,0.2222222222222222,1,object_03,5,2144,0,2,2,library_7,1,memory-2step-stake-s,633,3347936,0.0-19.0-0.1-0.140,AEWGY34WUIA32,3VGZ74AYUJWEHZMTR9OBXS32OP2GCF,3IXEICO796ZWS6XSRKFHZVM4C9XT64,6,5
141,1,object_02,object_08,827.19999999925,2,1,239.89999999851,0.2222222222222222,2,object_10,1,2146,0,2,2,desert_8,1,memory-2step-stake-s,634,3355634,0.0-19.0-0.1-0.141,AEWGY34WUIA32,3VGZ74AYUJWEHZMTR9OBXS32OP2GCF,3IXEICO796ZWS6XSRKFHZVM4C9XT64,2,1
142,3,object_05,object_06,572.30000000075,5,2,254.19999999925,0.2222222222222222,1,object_03,5,2156,0,2,0,library_7,1,memory-2step-stake-s,635,3363347,0.0-19.0-0.1-0.142,AEWGY34WUIA32,3VGZ74AYUJWEHZMTR9OBXS32OP2GCF,3IXEICO796ZWS6XSRKFHZVM4C9XT64,6,5
143,2,object_07,object_01,434.29999999702,4,1,264.5,0.0,2,object_10,1,2156,0,6,0,forest_3,1,memory-2step-stake-s,636,3370842,0.0-19.0-0.1-0.143,AEWGY34WUIA32,3VGZ74AYUJWEHZMTR9OBXS32OP2GCF,3IXEICO796ZWS6XSRKFHZVM4C9XT64,4,3
144,3,object_06,object_05,860.89999999851,5,1,377.80000000075,0.5555555555555556,1,object_03,5,2181,0,5,1,library_4,1,memory-2step-stake-s,637,3379012,0.0-19.0-0.1-0.144,AEWGY34WUIA32,3VGZ74AYUJWEHZMTR9OBXS32OP2GCF,3IXEICO796ZWS6XSRKFHZVM4C9XT64,5,6
145,3,object_06,object_05,549.10000000149,5,1,286.89999999851,0.7777777777777778,1,object_03,5,2216,0,7,3,library_4,1,memory-2step-stake-s,638,3387293,0.0-19.0-0.1-0.145,AEWGY34WUIA32,3VGZ74AYUJWEHZMTR9OBXS32OP2GCF,3IXEICO796ZWS6XSRKFHZVM4C9XT64,5,6
146,3,object_06,object_05,454.0,5,1,279.90000000224,0.6666666666666666,1,object_03,5,2246,0,6,4,library_3,1,memory-2step-stake-s,639,3395444,0.0-19.0-0.1-0.146,AEWGY34WUIA32,3VGZ74AYUJWEHZMTR9OBXS32OP2GCF,3IXEICO796ZWS6XSRKFHZVM4C9XT64,5,6
147,3,object_05,object_06,769.59999999776,5,2,269.60000000149,0.6666666666666666,1,object_03,5,2276,0,6,5,library_1,1,memory-2step-stake-s,640,3403591,0.0-19.0-0.1-0.147,AEWGY34WUIA32,3VGZ74AYUJWEHZMTR9OBXS32OP2GCF,3IXEICO796ZWS6XSRKFHZVM4C9XT64,6,5
148,2,object_07,object_01,672.59999999776,3,2,230.5,0.6666666666666666,1,object_03,5,2306,0,6,5,forest_6,1,memory-2step-stake-s,641,3411696,0.0-19.0-0.1-0.148,AEWGY34WUIA32,3VGZ74AYUJWEHZMTR9OBXS32OP2GCF,3IXEICO796ZWS6XSRKFHZVM4C9XT64,4,3
149,4,object_04,object_09,1051.6999999993,7,1,307.30000000075,0.5555555555555556,1,object_03,5,2331,0,5,8,restaurant_3,1,memory-2step-stake-s,642,3419777,0.0-19.0-0.1-0.149,AEWGY34WUIA32,3VGZ74AYUJWEHZMTR9OBXS32OP2GCF,3IXEICO796ZWS6XSRKFHZVM4C9XT64,7,8
150,1,object_08,object_02,801.59999999776,1,1,996.89999999851,0.3333333333333333,1,object_03,1,2334,0,3,8,desert_5,1,memory-2step-stake-s,643,3428334,0.0-19.0-0.1-0.150,AEWGY34WUIA32,3VGZ74AYUJWEHZMTR9OBXS32OP2GCF,3IXEICO796ZWS6XSRKFHZVM4C9XT64,1,2
151,2,object_01,object_07,939.39999999851,4,2,-1.0,0.0,2,object_10,1,2334,0,4,6,forest_6,1,memory-2step-stake-s,644,3436880,0.0-19.0-0.1-0.151,AEWGY34WUIA32,3VGZ74AYUJWEHZMTR9OBXS32OP2GCF,3IXEICO796ZWS6XSRKFHZVM4C9XT64,3,4
152,1,object_08,object_02,816.40000000224,2,2,306.10000000149,0.8888888888888888,2,object_10,1,2342,0,6,8,desert_5,1,memory-2step-stake-s,645,3445274,0.0-19.0-0.1-0.152,AEWGY34WUIA32,3VGZ74AYUJWEHZMTR9OBXS32OP2GCF,3IXEICO796ZWS6XSRKFHZVM4C9XT64,1,2
153,2,object_07,object_01,655.30000000075,3,2,276.10000000149,0.7777777777777778,1,object_03,1,2349,0,7,7,forest_3,1,memory-2step-stake-s,646,3453532,0.0-19.0-0.1-0.153,AEWGY34WUIA32,3VGZ74AYUJWEHZMTR9OBXS32OP2GCF,3IXEICO796ZWS6XSRKFHZVM4C9XT64,4,3
154,3,object_05,object_06,763.30000000075,5,2,1187.5,0.7777777777777778,1,object_03,5,2384,0,7,7,library_7,1,memory-2step-stake-s,647,3462709,0.0-19.0-0.1-0.154,AEWGY34WUIA32,3VGZ74AYUJWEHZMTR9OBXS32OP2GCF,3IXEICO796ZWS6XSRKFHZVM4C9XT64,6,5
155,4,object_04,object_09,895.09999999776,8,2,231.59999999776,0.8888888888888888,2,object_10,1,2392,0,6,8,restaurant_3,1,memory-2step-stake-s,648,3471005,0.0-19.0-0.1-0.155,AEWGY34WUIA32,3VGZ74AYUJWEHZMTR9OBXS32OP2GCF,3IXEICO796ZWS6XSRKFHZVM4C9XT64,7,8
156,3,object_06,object_05,547.69999999925,6,2,62.199999999255,0.8888888888888888,2,object_10,5,2432,0,8,8,library_7,1,memory-2step-stake-s,649,3479128,0.0-19.0-0.1-0.156,AEWGY34WUIA32,3VGZ74AYUJWEHZMTR9OBXS32OP2GCF,3IXEICO796ZWS6XSRKFHZVM4C9XT64,5,6
157,3,object_05,object_06,524.90000000224,6,1,330.80000000075,0.6666666666666666,2,object_10,5,2462,0,7,6,library_3,1,memory-2step-stake-s,650,3487338,0.0-19.0-0.1-0.157,AEWGY34WUIA32,3VGZ74AYUJWEHZMTR9OBXS32OP2GCF,3IXEICO796ZWS6XSRKFHZVM4C9XT64,6,5
158,2,object_07,object_01,939.19999999925,3,2,281.79999999702,0.3333333333333333,1,object_03,1,2465,0,3,3,forest_2,1,memory-2step-stake-s,651,3495185,0.0-19.0-0.1-0.158,AEWGY34WUIA32,3VGZ74AYUJWEHZMTR9OBXS32OP2GCF,3IXEICO796ZWS6XSRKFHZVM4C9XT64,4,3
159,1,object_08,object_02,433.40000000224,1,1,255.89999999851,0.1111111111111111,1,object_03,1,2466,0,1,0,desert_6,1,memory-2step-stake-s,652,3502811,0.0-19.0-0.1-0.159,AEWGY34WUIA32,3VGZ74AYUJWEHZMTR9OBXS32OP2GCF,3IXEICO796ZWS6XSRKFHZVM4C9XT64,1,2
160,1,object_02,object_08,604.80000000075,2,1,289.80000000075,0.3333333333333333,2,object_10,1,2469,0,1,3,desert_2,1,memory-2step-stake-s,653,3510677,0.0-19.0-0.1-0.160,AEWGY34WUIA32,3VGZ74AYUJWEHZMTR9OBXS32OP2GCF,3IXEICO796ZWS6XSRKFHZVM4C9XT64,2,1
161,2,object_07,object_01,337.60000000149,3,2,263.30000000075,0.4444444444444444,1,object_03,1,2473,0,4,9,forest_6,1,memory-2step-stake-s,654,3518616,0.0-19.0-0.1-0.161,AEWGY34WUIA32,3VGZ74AYUJWEHZMTR9OBXS32OP2GCF,3IXEICO796ZWS6XSRKFHZVM4C9XT64,4,3
162,1,object_08,object_02,595.80000000075,1,1,750.30000000075,0.3333333333333333,1,object_03,1,2476,0,3,7,desert_5,1,memory-2step-stake-s,655,3526927,0.0-19.0-0.1-0.162,AEWGY34WUIA32,3VGZ74AYUJWEHZMTR9OBXS32OP2GCF,3IXEICO796ZWS6XSRKFHZVM4C9XT64,1,2
163,4,object_09,object_04,413.19999999925,7,2,196.30000000075,0.3333333333333333,1,object_03,5,2491,0,3,4,restaurant_4,1,memory-2step-stake-s,656,3534689,0.0-19.0-0.1-0.163,AEWGY34WUIA32,3VGZ74AYUJWEHZMTR9OBXS32OP2GCF,3IXEICO796ZWS6XSRKFHZVM4C9XT64,8,7
164,2,object_01,object_07,750.0,4,2,261.69999999925,0.4444444444444444,2,object_10,5,2511,0,5,4,forest_6,1,memory-2step-stake-s,657,3542634,0.0-19.0-0.1-0.164,AEWGY34WUIA32,3VGZ74AYUJWEHZMTR9OBXS32OP2GCF,3IXEICO796ZWS6XSRKFHZVM4C9XT64,3,4
165,1,object_08,object_02,599.0,1,1,161.39999999851,0.4444444444444444,1,object_03,1,2515,0,4,5,desert_6,1,memory-2step-stake-s,658,3550480,0.0-19.0-0.1-0.165,AEWGY34WUIA32,3VGZ74AYUJWEHZMTR9OBXS32OP2GCF,3IXEICO796ZWS6XSRKFHZVM4C9XT64,1,2
166,4,object_04,object_09,353.80000000075,8,2,252.89999999851,0.5555555555555556,2,object_10,5,2540,0,8,5,restaurant_6,1,memory-2step-stake-s,659,3558518,0.0-19.0-0.1-0.166,AEWGY34WUIA32,3VGZ74AYUJWEHZMTR9OBXS32OP2GCF,3IXEICO796ZWS6XSRKFHZVM4C9XT64,7,8
167,1,object_08,object_02,340.60000000149,1,1,237.30000000075,1.0,1,object_03,5,2585,0,9,3,desert_8,1,memory-2step-stake-s,660,3566938,0.0-19.0-0.1-0.167,AEWGY34WUIA32,3VGZ74AYUJWEHZMTR9OBXS32OP2GCF,3IXEICO796ZWS6XSRKFHZVM4C9XT64,1,2
168,2,object_07,object_01,831.60000000149,3,2,305.79999999702,0.8888888888888888,1,object_03,1,2593,0,8,1,forest_3,1,memory-2step-stake-s,661,3575338,0.0-19.0-0.1-0.168,AEWGY34WUIA32,3VGZ74AYUJWEHZMTR9OBXS32OP2GCF,3IXEICO796ZWS6XSRKFHZVM4C9XT64,4,3
169,1,object_08,object_02,979.40000000224,1,1,331.79999999702,0.5555555555555556,1,object_03,1,2598,0,5,0,desert_6,1,memory-2step-stake-s,662,3583433,0.0-19.0-0.1-0.169,AEWGY34WUIA32,3VGZ74AYUJWEHZMTR9OBXS32OP2GCF,3IXEICO796ZWS6XSRKFHZVM4C9XT64,1,2
170,1,object_02,object_08,1087.3000000007,1,2,267.19999999925,0.4444444444444444,1,object_03,1,2602,0,4,4,desert_2,1,memory-2step-stake-s,663,3591415,0.0-19.0-0.1-0.170,AEWGY34WUIA32,3VGZ74AYUJWEHZMTR9OBXS32OP2GCF,3IXEICO796ZWS6XSRKFHZVM4C9XT64,2,1
171,1,object_08,object_02,713.09999999776,2,2,278.90000000224,0.3333333333333333,2,object_10,1,2605,0,6,3,desert_6,1,memory-2step-stake-s,664,3599276,0.0-19.0-0.1-0.171,AEWGY34WUIA32,3VGZ74AYUJWEHZMTR9OBXS32OP2GCF,3IXEICO796ZWS6XSRKFHZVM4C9XT64,1,2
172,2,object_01,object_07,910.39999999851,3,1,351.79999999702,0.7777777777777778,1,object_03,5,2640,0,7,4,forest_2,1,memory-2step-stake-s,665,3607627,0.0-19.0-0.1-0.172,AEWGY34WUIA32,3VGZ74AYUJWEHZMTR9OBXS32OP2GCF,3IXEICO796ZWS6XSRKFHZVM4C9XT64,3,4
173,3,object_06,object_05,694.60000000149,5,1,301.10000000149,0.7777777777777778,1,object_03,5,2675,0,7,1,library_4,1,memory-2step-stake-s,666,3615939,0.0-19.0-0.1-0.173,AEWGY34WUIA32,3VGZ74AYUJWEHZMTR9OBXS32OP2GCF,3IXEICO796ZWS6XSRKFHZVM4C9XT64,5,6
174,2,object_07,object_01,868.89999999851,3,2,279.0,0.7777777777777778,1,object_03,1,2682,0,7,0,forest_7,1,memory-2step-stake-s,667,3624200,0.0-19.0-0.1-0.174,AEWGY34WUIA32,3VGZ74AYUJWEHZMTR9OBXS32OP2GCF,3IXEICO796ZWS6XSRKFHZVM4C9XT64,4,3
175,1,object_02,object_08,1043.5,2,1,210.89999999851,0.0,2,object_10,1,2682,0,8,0,desert_6,1,memory-2step-stake-s,668,3631651,0.0-19.0-0.1-0.175,AEWGY34WUIA32,3VGZ74AYUJWEHZMTR9OBXS32OP2GCF,3IXEICO796ZWS6XSRKFHZVM4C9XT64,2,1
176,2,object_01,object_07,840.5,3,1,195.89999999851,0.7777777777777778,1,object_03,5,2717,0,7,1,forest_6,1,memory-2step-stake-s,669,3639843,0.0-19.0-0.1-0.176,AEWGY34WUIA32,3VGZ74AYUJWEHZMTR9OBXS32OP2GCF,3IXEICO796ZWS6XSRKFHZVM4C9XT64,3,4
177,3,object_06,object_05,992.90000000224,5,1,250.40000000224,0.7777777777777778,1,object_03,1,2724,0,7,0,library_4,1,memory-2step-stake-s,670,3648054,0.0-19.0-0.1-0.177,AEWGY34WUIA32,3VGZ74AYUJWEHZMTR9OBXS32OP2GCF,3IXEICO796ZWS6XSRKFHZVM4C9XT64,5,6
178,4,object_04,object_09,747.69999999925,7,1,52.900000002235,0.8888888888888888,1,object_03,1,2732,0,8,1,restaurant_6,1,memory-2step-stake-s,671,3656210,0.0-19.0-0.1-0.178,AEWGY34WUIA32,3VGZ74AYUJWEHZMTR9OBXS32OP2GCF,3IXEICO796ZWS6XSRKFHZVM4C9XT64,7,8
179,4,object_09,object_04,601.69999999925,7,2,257.19999999925,0.5555555555555556,1,object_03,5,2757,0,5,0,restaurant_3,1,memory-2step-stake-s,672,3664241,0.0-19.0-0.1-0.179,AEWGY34WUIA32,3VGZ74AYUJWEHZMTR9OBXS32OP2GCF,3IXEICO796ZWS6XSRKFHZVM4C9XT64,8,7
180,1,object_08,object_02,590.19999999925,1,1,308.19999999925,0.5555555555555556,1,object_03,1,2762,0,5,3,desert_6,1,memory-2step-stake-s,673,3672364,0.0-19.0-0.1-0.180,AEWGY34WUIA32,3VGZ74AYUJWEHZMTR9OBXS32OP2GCF,3IXEICO796ZWS6XSRKFHZVM4C9XT64,1,2
181,3,object_05,object_06,789.0,5,2,1126.3000000007,0.4444444444444444,1,object_03,5,2782,0,4,4,library_4,1,memory-2step-stake-s,674,3681144,0.0-19.0-0.1-0.181,AEWGY34WUIA32,3VGZ74AYUJWEHZMTR9OBXS32OP2GCF,3IXEICO796ZWS6XSRKFHZVM4C9XT64,6,5
182,4,object_04,object_09,761.80000000075,7,1,279.60000000149,0.3333333333333333,1,object_03,5,2797,0,3,5,restaurant_4,1,memory-2step-stake-s,675,3688989,0.0-19.0-0.1-0.182,AEWGY34WUIA32,3VGZ74AYUJWEHZMTR9OBXS32OP2GCF,3IXEICO796ZWS6XSRKFHZVM4C9XT64,7,8
183,4,object_09,object_04,606.09999999776,7,2,246.0,0.2222222222222222,1,object_03,5,2807,0,2,5,restaurant_1,1,memory-2step-stake-s,676,3696693,0.0-19.0-0.1-0.183,AEWGY34WUIA32,3VGZ74AYUJWEHZMTR9OBXS32OP2GCF,3IXEICO796ZWS6XSRKFHZVM4C9XT64,8,7
184,4,object_09,object_04,637.90000000224,8,1,202.5,0.4444444444444444,2,object_10,5,2827,0,4,4,restaurant_3,1,memory-2step-stake-s,677,3704591,0.0-19.0-0.1-0.184,AEWGY34WUIA32,3VGZ74AYUJWEHZMTR9OBXS32OP2GCF,3IXEICO796ZWS6XSRKFHZVM4C9XT64,8,7
185,3,object_05,object_06,541.89999999851,6,1,281.59999999776,0.1111111111111111,2,object_10,1,2828,0,1,1,library_3,1,memory-2step-stake-s,678,3712238,0.0-19.0-0.1-0.185,AEWGY34WUIA32,3VGZ74AYUJWEHZMTR9OBXS32OP2GCF,3IXEICO796ZWS6XSRKFHZVM4C9XT64,6,5
186,3,object_06,object_05,1102.799999997,5,1,391.79999999702,0.2222222222222222,1,object_03,5,2838,0,2,4,library_4,1,memory-2step-stake-s,679,3720098,0.0-19.0-0.1-0.186,AEWGY34WUIA32,3VGZ74AYUJWEHZMTR9OBXS32OP2GCF,3IXEICO796ZWS6XSRKFHZVM4C9XT64,5,6
187,3,object_05,object_06,753.10000000149,5,2,346.19999999925,0.6666666666666666,1,object_03,5,2868,0,6,3,library_3,1,memory-2step-stake-s,680,3728345,0.0-19.0-0.1-0.187,AEWGY34WUIA32,3VGZ74AYUJWEHZMTR9OBXS32OP2GCF,3IXEICO796ZWS6XSRKFHZVM4C9XT64,6,5
188,4,object_09,object_04,660.5,7,2,314.19999999925,0.3333333333333333,1,object_03,1,2871,0,3,3,restaurant_1,1,memory-2step-stake-s,681,3736208,0.0-19.0-0.1-0.188,AEWGY34WUIA32,3VGZ74AYUJWEHZMTR9OBXS32OP2GCF,3IXEICO796ZWS6XSRKFHZVM4C9XT64,8,7
189,4,object_09,object_04,710.5,7,2,283.5,0.0,1,object_03,5,2871,0,0,3,restaurant_4,1,memory-2step-stake-s,682,3743751,0.0-19.0-0.1-0.189,AEWGY34WUIA32,3VGZ74AYUJWEHZMTR9OBXS32OP2GCF,3IXEICO796ZWS6XSRKFHZVM4C9XT64,8,7
190,4,object_09,object_04,515.69999999925,8,1,257.0,0.0,2,object_10,5,2871,0,1,0,restaurant_6,1,memory-2step-stake-s,683,3751268,0.0-19.0-0.1-0.190,AEWGY34WUIA32,3VGZ74AYUJWEHZMTR9OBXS32OP2GCF,3IXEICO796ZWS6XSRKFHZVM4C9XT64,8,7
191,4,object_04,object_09,317.60000000149,8,2,17.300000000745,0.1111111111111111,2,object_10,5,2876,0,2,1,restaurant_6,1,memory-2step-stake-s,684,3758664,0.0-19.0-0.1-0.191,AEWGY34WUIA32,3VGZ74AYUJWEHZMTR9OBXS32OP2GCF,3IXEICO796ZWS6XSRKFHZVM4C9XT64,7,8
192,2,object_01,object_07,646.0,4,2,41.0,0.3333333333333333,2,object_10,1,2879,0,0,3,forest_7,1,memory-2step-stake-s,685,3766313,0.0-19.0-0.1-0.192,AEWGY34WUIA32,3VGZ74AYUJWEHZMTR9OBXS32OP2GCF,3IXEICO796ZWS6XSRKFHZVM4C9XT64,3,4
193,3,object_06,object_05,592.60000000149,5,1,98.5,0.1111111111111111,1,object_03,5,2884,0,1,1,library_1,1,memory-2step-stake-s,686,3773777,0.0-19.0-0.1-0.193,AEWGY34WUIA32,3VGZ74AYUJWEHZMTR9OBXS32OP2GCF,3IXEICO796ZWS6XSRKFHZVM4C9XT64,5,6
194,3,object_05,object_06,760.69999999925,5,2,259.19999999925,0.0,1,object_03,5,2884,0,0,1,library_1,1,memory-2step-stake-s,687,3781288,0.0-19.0-0.1-0.194,AEWGY34WUIA32,3VGZ74AYUJWEHZMTR9OBXS32OP2GCF,3IXEICO796ZWS6XSRKFHZVM4C9XT64,6,5
195,3,object_05,object_06,941.89999999851,6,1,335.10000000149,0.1111111111111111,2,object_10,5,2889,0,1,1,library_1,1,memory-2step-stake-s,688,3788988,0.0-19.0-0.1-0.195,AEWGY34WUIA32,3VGZ74AYUJWEHZMTR9OBXS32OP2GCF,3IXEICO796ZWS6XSRKFHZVM4C9XT64,6,5
196,1,object_08,object_02,723.10000000149,1,1,108.80000000075,0.2222222222222222,1,object_03,5,2899,0,2,1,desert_6,1,memory-2step-stake-s,689,3796555,0.0-19.0-0.1-0.196,AEWGY34WUIA32,3VGZ74AYUJWEHZMTR9OBXS32OP2GCF,3IXEICO796ZWS6XSRKFHZVM4C9XT64,1,2
197,2,object_01,object_07,590.19999999925,3,1,220.19999999925,0.2222222222222222,1,object_03,5,2909,0,2,3,forest_7,1,memory-2step-stake-s,690,3804232,0.0-19.0-0.1-0.197,AEWGY34WUIA32,3VGZ74AYUJWEHZMTR9OBXS32OP2GCF,3IXEICO796ZWS6XSRKFHZVM4C9XT64,3,4
198,3,object_06,object_05,734.89999999851,5,1,385.40000000224,0.1111111111111111,1,object_03,5,2914,0,1,0,library_7,1,memory-2step-stake-s,691,3811990,0.0-19.0-0.1-0.198,AEWGY34WUIA32,3VGZ74AYUJWEHZMTR9OBXS32OP2GCF,3IXEICO796ZWS6XSRKFHZVM4C9XT64,5,6
199,2,object_07,object_01,894.0,3,2,255.70000000298,0.3333333333333333,1,object_03,5,2929,0,3,0,forest_2,1,memory-2step-stake-s,692,3819821,0.0-19.0-0.1-0.199,AEWGY34WUIA32,3VGZ74AYUJWEHZMTR9OBXS32OP2GCF,3IXEICO796ZWS6XSRKFHZVM4C9XT64,4,3
200,4,object_04,object_09,901.40000000224,7,1,89.300000000745,0.5555555555555556,1,object_03,5,2954,0,5,2,restaurant_4,1,memory-2step-stake-s,693,3827678,0.0-19.0-0.1-0.200,AEWGY34WUIA32,3VGZ74AYUJWEHZMTR9OBXS32OP2GCF,3IXEICO796ZWS6XSRKFHZVM4C9XT64,7,8
201,4,object_09,object_04,552.0,7,2,257.39999999851,0.6666666666666666,1,object_03,5,2984,0,6,2,restaurant_1,1,memory-2step-stake-s,694,3835824,0.0-19.0-0.1-0.201,AEWGY34WUIA32,3VGZ74AYUJWEHZMTR9OBXS32OP2GCF,3IXEICO796ZWS6XSRKFHZVM4C9XT64,8,7
202,3,object_05,object_06,1161.3999999985,5,2,181.09999999776,0.8888888888888888,1,object_03,5,3024,0,8,0,library_3,1,memory-2step-stake-s,695,3844112,0.0-19.0-0.1-0.202,AEWGY34WUIA32,3VGZ74AYUJWEHZMTR9OBXS32OP2GCF,3IXEICO796ZWS6XSRKFHZVM4C9XT64,6,5
203,1,object_02,object_08,715.69999999925,1,2,284.89999999851,0.6666666666666666,1,object_03,1,3030,0,6,1,desert_5,1,memory-2step-stake-s,696,3852278,0.0-19.0-0.1-0.203,AEWGY34WUIA32,3VGZ74AYUJWEHZMTR9OBXS32OP2GCF,3IXEICO796ZWS6XSRKFHZVM4C9XT64,2,1
204,1,object_08,object_02,996.5,1,1,351.39999999851,0.8888888888888888,1,object_03,1,3038,0,8,1,desert_6,1,memory-2step-stake-s,697,3860715,0.0-19.0-0.1-0.204,AEWGY34WUIA32,3VGZ74AYUJWEHZMTR9OBXS32OP2GCF,3IXEICO796ZWS6XSRKFHZVM4C9XT64,1,2
205,2,object_07,object_01,779.59999999776,3,2,343.0,0.5555555555555556,1,object_03,1,3043,0,5,3,forest_7,1,memory-2step-stake-s,698,3868825,0.0-19.0-0.1-0.205,AEWGY34WUIA32,3VGZ74AYUJWEHZMTR9OBXS32OP2GCF,3IXEICO796ZWS6XSRKFHZVM4C9XT64,4,3
206,4,object_04,object_09,678.60000000149,7,1,163.5,0.5555555555555556,1,object_03,5,3068,0,5,3,restaurant_3,1,memory-2step-stake-s,699,3876762,0.0-19.0-0.1-0.206,AEWGY34WUIA32,3VGZ74AYUJWEHZMTR9OBXS32OP2GCF,3IXEICO796ZWS6XSRKFHZVM4C9XT64,7,8
207,3,object_05,object_06,897.0,5,2,254.80000000075,0.6666666666666666,1,object_03,5,3098,0,6,6,library_3,1,memory-2step-stake-s,700,3884913,0.0-19.0-0.1-0.207,AEWGY34WUIA32,3VGZ74AYUJWEHZMTR9OBXS32OP2GCF,3IXEICO796ZWS6XSRKFHZVM4C9XT64,6,5
208,3,object_06,object_05,671.69999999925,6,2,281.39999999851,0.7777777777777778,2,object_10,1,3105,0,4,7,library_1,1,memory-2step-stake-s,701,3893185,0.0-19.0-0.1-0.208,AEWGY34WUIA32,3VGZ74AYUJWEHZMTR9OBXS32OP2GCF,3IXEICO796ZWS6XSRKFHZVM4C9XT64,5,6
209,2,object_07,object_01,1022.6999999993,4,1,341.40000000224,1.0,2,object_10,1,3114,0,4,9,forest_2,1,memory-2step-stake-s,702,3901703,0.0-19.0-0.1-0.209,AEWGY34WUIA32,3VGZ74AYUJWEHZMTR9OBXS32OP2GCF,3IXEICO796ZWS6XSRKFHZVM4C9XT64,4,3
210,4,object_09,object_04,648.09999999776,8,1,307.80000000075,1.0,2,object_10,1,3123,0,3,9,restaurant_3,1,memory-2step-stake-s,703,3910175,0.0-19.0-0.1-0.210,AEWGY34WUIA32,3VGZ74AYUJWEHZMTR9OBXS32OP2GCF,3IXEICO796ZWS6XSRKFHZVM4C9XT64,8,7
211,1,object_02,object_08,981.29999999702,1,2,521.79999999702,0.2222222222222222,1,object_03,5,3133,0,2,8,desert_2,1,memory-2step-stake-s,704,3918152,0.0-19.0-0.1-0.211,AEWGY34WUIA32,3VGZ74AYUJWEHZMTR9OBXS32OP2GCF,3IXEICO796ZWS6XSRKFHZVM4C9XT64,2,1
212,4,object_09,object_04,582.69999999925,8,1,372.39999999851,0.8888888888888888,2,object_10,1,3141,0,3,8,restaurant_3,1,memory-2step-stake-s,705,3926614,0.0-19.0-0.1-0.212,AEWGY34WUIA32,3VGZ74AYUJWEHZMTR9OBXS32OP2GCF,3IXEICO796ZWS6XSRKFHZVM4C9XT64,8,7
213,1,object_02,object_08,1409.5999999978,2,1,374.20000000298,1.0,2,object_10,1,3150,0,0,9,desert_2,1,memory-2step-stake-s,706,3935183,0.0-19.0-0.1-0.213,AEWGY34WUIA32,3VGZ74AYUJWEHZMTR9OBXS32OP2GCF,3IXEICO796ZWS6XSRKFHZVM4C9XT64,2,1
214,4,object_04,object_09,653.0,8,2,281.89999999851,0.7777777777777778,2,object_10,5,3185,0,2,7,restaurant_1,1,memory-2step-stake-s,707,3943457,0.0-19.0-0.1-0.214,AEWGY34WUIA32,3VGZ74AYUJWEHZMTR9OBXS32OP2GCF,3IXEICO796ZWS6XSRKFHZVM4C9XT64,7,8
215,1,object_08,object_02,697.59999999776,1,1,409.19999999925,0.3333333333333333,1,object_03,5,3200,0,3,8,desert_2,1,memory-2step-stake-s,708,3951469,0.0-19.0-0.1-0.215,AEWGY34WUIA32,3VGZ74AYUJWEHZMTR9OBXS32OP2GCF,3IXEICO796ZWS6XSRKFHZVM4C9XT64,1,2
216,1,object_02,object_08,874.5,1,2,421.80000000075,0.1111111111111111,1,object_03,1,3201,0,1,7,desert_8,1,memory-2step-stake-s,709,3959254,0.0-19.0-0.1-0.216,AEWGY34WUIA32,3VGZ74AYUJWEHZMTR9OBXS32OP2GCF,3IXEICO796ZWS6XSRKFHZVM4C9XT64,2,1
217,3,object_05,object_06,1190.1000000015,5,2,365.40000000224,0.1111111111111111,1,object_03,5,3206,0,1,9,library_1,1,memory-2step-stake-s,710,3966977,0.0-19.0-0.1-0.217,AEWGY34WUIA32,3VGZ74AYUJWEHZMTR9OBXS32OP2GCF,3IXEICO796ZWS6XSRKFHZVM4C9XT64,6,5
218,1,object_08,object_02,998.40000000224,2,2,309.09999999776,1.0,2,object_10,1,3215,0,0,9,desert_8,1,memory-2step-stake-s,711,3975493,0.0-19.0-0.1-0.218,AEWGY34WUIA32,3VGZ74AYUJWEHZMTR9OBXS32OP2GCF,3IXEICO796ZWS6XSRKFHZVM4C9XT64,1,2
219,1,object_08,object_02,772.0,1,1,185.89999999851,0.0,1,object_03,1,3215,0,0,8,desert_8,1,memory-2step-stake-s,712,3982939,0.0-19.0-0.1-0.219,AEWGY34WUIA32,3VGZ74AYUJWEHZMTR9OBXS32OP2GCF,3IXEICO796ZWS6XSRKFHZVM4C9XT64,1,2
220,4,object_04,object_09,548.29999999702,8,2,226.89999999851,0.8888888888888888,2,object_10,5,3255,0,3,8,restaurant_3,1,memory-2step-stake-s,713,3991255,0.0-19.0-0.1-0.220,AEWGY34WUIA32,3VGZ74AYUJWEHZMTR9OBXS32OP2GCF,3IXEICO796ZWS6XSRKFHZVM4C9XT64,7,8
221,3,object_06,object_05,1291.8999999985,6,2,335.30000000075,0.7777777777777778,2,object_10,5,3290,0,5,7,library_1,1,memory-2step-stake-s,714,3999610,0.0-19.0-0.1-0.221,AEWGY34WUIA32,3VGZ74AYUJWEHZMTR9OBXS32OP2GCF,3IXEICO796ZWS6XSRKFHZVM4C9XT64,5,6
222,1,object_08,object_02,712.09999999776,2,2,284.5,0.4444444444444444,2,object_10,5,3310,0,4,4,desert_8,1,memory-2step-stake-s,715,4007597,0.0-19.0-0.1-0.222,AEWGY34WUIA32,3VGZ74AYUJWEHZMTR9OBXS32OP2GCF,3IXEICO796ZWS6XSRKFHZVM4C9XT64,1,2
223,4,object_04,object_09,515.80000000075,8,2,235.10000000149,0.6666666666666666,2,object_10,5,3340,0,6,6,restaurant_1,1,memory-2step-stake-s,716,4015739,0.0-19.0-0.1-0.223,AEWGY34WUIA32,3VGZ74AYUJWEHZMTR9OBXS32OP2GCF,3IXEICO796ZWS6XSRKFHZVM4C9XT64,7,8
224,2,object_01,object_07,1105.3000000007,3,1,272.5,0.6666666666666666,1,object_03,1,3346,0,6,6,forest_6,1,memory-2step-stake-s,717,4023911,0.0-19.0-0.1-0.224,AEWGY34WUIA32,3VGZ74AYUJWEHZMTR9OBXS32OP2GCF,3IXEICO796ZWS6XSRKFHZVM4C9XT64,3,4
225,4,object_09,object_04,692.39999999851,7,2,319.60000000149,0.6666666666666666,1,object_03,5,3376,0,6,7,restaurant_6,1,memory-2step-stake-s,718,4032130,0.0-19.0-0.1-0.225,AEWGY34WUIA32,3VGZ74AYUJWEHZMTR9OBXS32OP2GCF,3IXEICO796ZWS6XSRKFHZVM4C9XT64,8,7
226,1,object_02,object_08,1217.3999999985,1,2,275.69999999925,0.5555555555555556,1,object_03,1,3381,0,5,8,desert_8,1,memory-2step-stake-s,719,4040196,0.0-19.0-0.1-0.226,AEWGY34WUIA32,3VGZ74AYUJWEHZMTR9OBXS32OP2GCF,3IXEICO796ZWS6XSRKFHZVM4C9XT64,2,1
227,2,object_07,object_01,726.19999999925,3,2,200.5,0.6666666666666666,1,object_03,1,3387,0,6,7,forest_3,1,memory-2step-stake-s,720,4048290,0.0-19.0-0.1-0.227,AEWGY34WUIA32,3VGZ74AYUJWEHZMTR9OBXS32OP2GCF,3IXEICO796ZWS6XSRKFHZVM4C9XT64,4,3
228,3,object_05,object_06,1074.200000003,5,2,249.80000000075,0.6666666666666666,1,object_03,1,3393,0,6,8,library_4,1,memory-2step-stake-s,721,4056432,0.0-19.0-0.1-0.228,AEWGY34WUIA32,3VGZ74AYUJWEHZMTR9OBXS32OP2GCF,3IXEICO796ZWS6XSRKFHZVM4C9XT64,6,5
229,2,object_07,object_01,786.30000000075,3,2,227.5,0.8888888888888888,1,object_03,1,3401,0,8,7,forest_3,1,memory-2step-stake-s,722,4064730,0.0-19.0-0.1-0.229,AEWGY34WUIA32,3VGZ74AYUJWEHZMTR9OBXS32OP2GCF,3IXEICO796ZWS6XSRKFHZVM4C9XT64,4,3
230,4,object_09,object_04,755.0,7,2,195.5,0.6666666666666666,1,object_03,5,3431,0,6,7,restaurant_1,1,memory-2step-stake-s,723,4072802,0.0-19.0-0.1-0.230,AEWGY34WUIA32,3VGZ74AYUJWEHZMTR9OBXS32OP2GCF,3IXEICO796ZWS6XSRKFHZVM4C9XT64,8,7
231,1,object_02,object_08,1080.1999999993,2,1,358.59999999776,0.7777777777777778,2,object_10,1,3438,0,8,7,desert_6,1,memory-2step-stake-s,724,4081164,0.0-19.0-0.1-0.231,AEWGY34WUIA32,3VGZ74AYUJWEHZMTR9OBXS32OP2GCF,3IXEICO796ZWS6XSRKFHZVM4C9XT64,2,1
232,3,object_05,object_06,728.30000000075,5,2,365.89999999851,1.0,1,object_03,5,3483,0,9,7,library_3,1,memory-2step-stake-s,725,4089737,0.0-19.0-0.1-0.232,AEWGY34WUIA32,3VGZ74AYUJWEHZMTR9OBXS32OP2GCF,3IXEICO796ZWS6XSRKFHZVM4C9XT64,6,5
233,4,object_09,object_04,844.09999999776,7,2,372.0,0.5555555555555556,1,object_03,1,3488,0,5,8,restaurant_3,1,memory-2step-stake-s,726,4097877,0.0-19.0-0.1-0.233,AEWGY34WUIA32,3VGZ74AYUJWEHZMTR9OBXS32OP2GCF,3IXEICO796ZWS6XSRKFHZVM4C9XT64,8,7
234,1,object_08,object_02,605.40000000224,1,1,89.5,0.4444444444444444,1,object_03,1,3492,0,4,6,desert_8,1,memory-2step-stake-s,727,4105643,0.0-19.0-0.1-0.234,AEWGY34WUIA32,3VGZ74AYUJWEHZMTR9OBXS32OP2GCF,3IXEICO796ZWS6XSRKFHZVM4C9XT64,1,2
235,4,object_04,object_09,535.80000000075,8,2,306.59999999776,0.5555555555555556,2,object_10,1,3497,0,8,5,restaurant_1,1,memory-2step-stake-s,728,4113723,0.0-19.0-0.1-0.235,AEWGY34WUIA32,3VGZ74AYUJWEHZMTR9OBXS32OP2GCF,3IXEICO796ZWS6XSRKFHZVM4C9XT64,7,8
236,2,object_07,object_01,511.39999999851,3,2,237.69999999925,1.0,1,object_03,5,3542,0,9,8,forest_2,1,memory-2step-stake-s,729,4122132,0.0-19.0-0.1-0.236,AEWGY34WUIA32,3VGZ74AYUJWEHZMTR9OBXS32OP2GCF,3IXEICO796ZWS6XSRKFHZVM4C9XT64,4,3
237,4,object_09,object_04,651.09999999776,7,2,212.19999999925,0.3333333333333333,1,object_03,5,3557,0,3,9,restaurant_3,1,memory-2step-stake-s,730,4129909,0.0-19.0-0.1-0.237,AEWGY34WUIA32,3VGZ74AYUJWEHZMTR9OBXS32OP2GCF,3IXEICO796ZWS6XSRKFHZVM4C9XT64,8,7
238,3,object_06,object_05,1231.3000000007,6,2,267.89999999851,0.8888888888888888,2,object_10,1,3565,0,2,8,library_3,1,memory-2step-stake-s,731,4138265,0.0-19.0-0.1-0.238,AEWGY34WUIA32,3VGZ74AYUJWEHZMTR9OBXS32OP2GCF,3IXEICO796ZWS6XSRKFHZVM4C9XT64,5,6
239,4,object_04,object_09,457.80000000075,8,2,34.0,0.7777777777777778,2,object_10,5,3600,0,5,7,restaurant_3,1,memory-2step-stake-s,732,4146287,0.0-19.0-0.1-0.239,AEWGY34WUIA32,3VGZ74AYUJWEHZMTR9OBXS32OP2GCF,3IXEICO796ZWS6XSRKFHZVM4C9XT64,7,8
240,4,object_09,object_04,718.90000000224,8,1,342.39999999851,0.7777777777777778,2,object_10,5,3635,0,6,7,restaurant_4,1,memory-2step-stake-s,733,4154598,0.0-19.0-0.1-0.240,AEWGY34WUIA32,3VGZ74AYUJWEHZMTR9OBXS32OP2GCF,3IXEICO796ZWS6XSRKFHZVM4C9XT64,8,7
241,1,object_02,object_08,1148.0,1,2,309.89999999851,0.4444444444444444,1,object_03,1,3639,0,4,4,desert_5,1,memory-2step-stake-s,734,4162552,0.0-19.0-0.1-0.241,AEWGY34WUIA32,3VGZ74AYUJWEHZMTR9OBXS32OP2GCF,3IXEICO796ZWS6XSRKFHZVM4C9XT64,2,1
242,2,object_01,object_07,818.80000000075,4,2,245.10000000149,0.1111111111111111,2,object_10,1,3640,0,5,1,forest_3,1,memory-2step-stake-s,735,4170157,0.0-19.0-0.1-0.242,AEWGY34WUIA32,3VGZ74AYUJWEHZMTR9OBXS32OP2GCF,3IXEICO796ZWS6XSRKFHZVM4C9XT64,3,4
243,4,object_09,object_04,713.80000000075,7,2,103.10000000149,0.5555555555555556,1,object_03,5,3665,0,5,1,restaurant_4,1,memory-2step-stake-s,736,4178014,0.0-19.0-0.1-0.243,AEWGY34WUIA32,3VGZ74AYUJWEHZMTR9OBXS32OP2GCF,3IXEICO796ZWS6XSRKFHZVM4C9XT64,8,7
244,2,object_01,object_07,817.69999999925,3,1,272.60000000149,0.5555555555555556,1,object_03,5,3690,0,5,3,forest_3,1,memory-2step-stake-s,737,4186080,0.0-19.0-0.1-0.244,AEWGY34WUIA32,3VGZ74AYUJWEHZMTR9OBXS32OP2GCF,3IXEICO796ZWS6XSRKFHZVM4C9XT64,3,4
245,2,object_07,object_01,539.30000000075,3,2,69.199999999255,0.4444444444444444,1,object_03,1,3694,0,4,5,forest_3,1,memory-2step-stake-s,738,4193819,0.0-19.0-0.1-0.245,AEWGY34WUIA32,3VGZ74AYUJWEHZMTR9OBXS32OP2GCF,3IXEICO796ZWS6XSRKFHZVM4C9XT64,4,3
246,2,object_01,object_07,767.09999999776,4,2,258.10000000149,0.6666666666666666,2,object_10,1,3700,0,5,6,forest_2,1,memory-2step-stake-s,739,4201968,0.0-19.0-0.1-0.246,AEWGY34WUIA32,3VGZ74AYUJWEHZMTR9OBXS32OP2GCF,3IXEICO796ZWS6XSRKFHZVM4C9XT64,3,4
247,3,object_06,object_05,1139.200000003,5,1,277.79999999702,0.5555555555555556,1,object_03,1,3705,0,5,7,library_3,1,memory-2step-stake-s,740,4210034,0.0-19.0-0.1-0.247,AEWGY34WUIA32,3VGZ74AYUJWEHZMTR9OBXS32OP2GCF,3IXEICO796ZWS6XSRKFHZVM4C9XT64,5,6
248,3,object_06,object_05,916.0,6,2,164.89999999851,0.6666666666666666,2,object_10,1,3711,0,7,6,library_3,1,memory-2step-stake-s,741,4218092,0.0-19.0-0.1-0.248,AEWGY34WUIA32,3VGZ74AYUJWEHZMTR9OBXS32OP2GCF,3IXEICO796ZWS6XSRKFHZVM4C9XT64,5,6
249,2,object_01,object_07,814.69999999925,3,1,254.29999999702,0.7777777777777778,1,object_03,1,3718,0,7,9,forest_2,1,memory-2step-stake-s,742,4226328,0.0-19.0-0.1-0.249,AEWGY34WUIA32,3VGZ74AYUJWEHZMTR9OBXS32OP2GCF,3IXEICO796ZWS6XSRKFHZVM4C9XT64,3,4
250,4,object_09,object_04,650.60000000149,7,2,190.60000000149,0.8888888888888888,1,object_03,5,3758,0,8,8,restaurant_1,1,memory-2step-stake-s,743,4234641,0.0-19.0-0.1-0.250,AEWGY34WUIA32,3VGZ74AYUJWEHZMTR9OBXS32OP2GCF,3IXEICO796ZWS6XSRKFHZVM4C9XT64,8,7
251,2,object_07,object_01,887.0,3,2,294.0,0.6666666666666666,1,object_03,5,3788,0,6,7,forest_6,1,memory-2step-stake-s,744,4242804,0.0-19.0-0.1-0.251,AEWGY34WUIA32,3VGZ74AYUJWEHZMTR9OBXS32OP2GCF,3IXEICO796ZWS6XSRKFHZVM4C9XT64,4,3
252,2,object_07,object_01,1044.6999999993,3,2,341.69999999925,0.3333333333333333,1,object_03,1,3791,0,3,8,forest_2,1,memory-2step-stake-s,745,4250710,0.0-19.0-0.1-0.252,AEWGY34WUIA32,3VGZ74AYUJWEHZMTR9OBXS32OP2GCF,3IXEICO796ZWS6XSRKFHZVM4C9XT64,4,3
253,2,object_07,object_01,983.60000000149,4,1,288.29999999702,0.4444444444444444,2,object_10,1,3795,0,2,4,forest_7,1,memory-2step-stake-s,746,4258681,0.0-19.0-0.1-0.253,AEWGY34WUIA32,3VGZ74AYUJWEHZMTR9OBXS32OP2GCF,3IXEICO796ZWS6XSRKFHZVM4C9XT64,4,3
254,2,object_07,object_01,659.10000000149,4,1,275.09999999776,0.4444444444444444,2,object_10,5,3815,0,1,4,forest_6,1,memory-2step-stake-s,747,4266622,0.0-19.0-0.1-0.254,AEWGY34WUIA32,3VGZ74AYUJWEHZMTR9OBXS32OP2GCF,3IXEICO796ZWS6XSRKFHZVM4C9XT64,4,3
255,2,object_07,object_01,469.59999999776,3,2,265.30000000075,0.2222222222222222,1,object_03,1,3817,0,2,3,forest_7,1,memory-2step-stake-s,748,4274345,0.0-19.0-0.1-0.255,AEWGY34WUIA32,3VGZ74AYUJWEHZMTR9OBXS32OP2GCF,3IXEICO796ZWS6XSRKFHZVM4C9XT64,4,3
