,state1,stim_left,stim_right,rt_1,choice1,response1,rt_2,points,state2,stim_state2,stake,score,practice,rews1,rews2,background,high_arm,trial_type,trial_index,time_elapsed,internal_node_id,subid,hitid,assignmentid,stim_left_num,stim_right_num
0,1,object_09,object_03,695.0,2,2,1232.6000000006,0.1111111111111111,2,object_10,5,5,0,8,1,desert_3,2,memory-2step-stake-s,489,656856,0.0-19.0-0.0-0.0,AB8BRFF4ZTZ40,3YO4AH2FQG0L0WLRIP03W553LNE0Q1,3NG53N1RLZZL4SN93I3VEZHYT148P2,1,2
1,3,object_01,object_07,163.5,6,2,795.39999999944,0.2222222222222222,2,object_10,1,7,0,8,2,library_6,2,memory-2step-stake-s,490,665083,0.0-19.0-0.0-0.1,AB8BRFF4ZTZ40,3YO4AH2FQG0L0WLRIP03W553LNE0Q1,3NG53N1RLZZL4SN93I3VEZHYT148P2,5,6
2,1,object_09,object_03,670.20000000019,1,1,1000.6999999993,0.8888888888888888,1,object_08,5,47,0,8,0,desert_8,2,memory-2step-stake-s,491,674119,0.0-19.0-0.0-0.2,AB8BRFF4ZTZ40,3YO4AH2FQG0L0WLRIP03W553LNE0Q1,3NG53N1RLZZL4SN93I3VEZHYT148P2,1,2
3,2,object_05,object_04,921.79999999981,3,1,634.19999999925,0.7777777777777778,1,object_08,5,82,0,7,1,forest_4,2,memory-2step-stake-s,492,682681,0.0-19.0-0.0-0.3,AB8BRFF4ZTZ40,3YO4AH2FQG0L0WLRIP03W553LNE0Q1,3NG53N1RLZZL4SN93I3VEZHYT148P2,3,4
4,3,object_07,object_01,1088.6999999993,5,2,687.29999999981,0.8888888888888888,1,object_08,1,90,0,8,3,library_7,2,memory-2step-stake-s,493,691398,0.0-19.0-0.0-0.4,AB8BRFF4ZTZ40,3YO4AH2FQG0L0WLRIP03W553LNE0Q1,3NG53N1RLZZL4SN93I3VEZHYT148P2,6,5
5,4,object_02,object_06,1267.6000000006,7,1,418.0,0.8888888888888888,1,object_08,1,98,0,8,1,restaurant_1,2,memory-2step-stake-s,494,699844,0.0-19.0-0.0-0.5,AB8BRFF4ZTZ40,3YO4AH2FQG0L0WLRIP03W553LNE0Q1,3NG53N1RLZZL4SN93I3VEZHYT148P2,7,8
6,4,object_06,object_02,532.60000000056,7,2,398.20000000019,0.6666666666666666,1,object_08,1,104,0,6,4,restaurant_7,2,memory-2step-stake-s,495,708082,0.0-19.0-0.0-0.6,AB8BRFF4ZTZ40,3YO4AH2FQG0L0WLRIP03W553LNE0Q1,3NG53N1RLZZL4SN93I3VEZHYT148P2,8,7
7,2,object_04,object_05,1011.5999999996,3,2,403.80000000075,0.7777777777777778,1,object_08,5,139,0,7,3,forest_2,2,memory-2step-stake-s,496,716424,0.0-19.0-0.0-0.7,AB8BRFF4ZTZ40,3YO4AH2FQG0L0WLRIP03W553LNE0Q1,3NG53N1RLZZL4SN93I3VEZHYT148P2,4,3
8,2,object_05,object_04,465.20000000019,3,1,344.89999999944,1.0,1,object_08,5,184,0,9,3,forest_2,2,memory-2step-stake-s,497,724895,0.0-19.0-0.0-0.8,AB8BRFF4ZTZ40,3YO4AH2FQG0L0WLRIP03W553LNE0Q1,3NG53N1RLZZL4SN93I3VEZHYT148P2,3,4
9,1,object_09,object_03,840.40000000037,1,1,471.29999999981,1.0,1,object_08,5,229,0,9,3,desert_1,2,memory-2step-stake-s,498,733518,0.0-19.0-0.0-0.9,AB8BRFF4ZTZ40,3YO4AH2FQG0L0WLRIP03W553LNE0Q1,3NG53N1RLZZL4SN93I3VEZHYT148P2,1,2
10,4,object_02,object_06,724.70000000019,7,1,499.20000000019,0.8888888888888888,1,object_08,5,269,0,8,4,restaurant_7,2,memory-2step-stake-s,499,742040,0.0-19.0-0.0-0.10,AB8BRFF4ZTZ40,3YO4AH2FQG0L0WLRIP03W553LNE0Q1,3NG53N1RLZZL4SN93I3VEZHYT148P2,7,8
11,2,object_04,object_05,688.59999999963,3,2,271.09999999963,1.0,1,object_08,5,314,0,9,5,forest_1,2,memory-2step-stake-s,500,750439,0.0-19.0-0.0-0.11,AB8BRFF4ZTZ40,3YO4AH2FQG0L0WLRIP03W553LNE0Q1,3NG53N1RLZZL4SN93I3VEZHYT148P2,4,3
12,1,object_09,object_03,582.60000000056,1,1,389.70000000019,0.8888888888888888,1,object_08,1,322,0,8,5,desert_1,2,memory-2step-stake-s,501,758868,0.0-19.0-0.0-0.12,AB8BRFF4ZTZ40,3YO4AH2FQG0L0WLRIP03W553LNE0Q1,3NG53N1RLZZL4SN93I3VEZHYT148P2,1,2
13,1,object_03,object_09,781.29999999981,1,2,415.59999999963,0.8888888888888888,1,object_08,5,362,0,8,9,desert_1,2,memory-2step-stake-s,502,767317,0.0-19.0-0.0-0.13,AB8BRFF4ZTZ40,3YO4AH2FQG0L0WLRIP03W553LNE0Q1,3NG53N1RLZZL4SN93I3VEZHYT148P2,2,1
14,3,object_07,object_01,939.39999999944,5,2,396.90000000037,0.2222222222222222,1,object_08,5,372,0,2,6,library_2,2,memory-2step-stake-s,503,775130,0.0-19.0-0.0-0.14,AB8BRFF4ZTZ40,3YO4AH2FQG0L0WLRIP03W553LNE0Q1,3NG53N1RLZZL4SN93I3VEZHYT148P2,6,5
15,4,object_06,object_02,960.19999999925,8,1,405.90000000037,0.6666666666666666,2,object_10,1,378,0,1,6,restaurant_8,2,memory-2step-stake-s,504,783373,0.0-19.0-0.0-0.15,AB8BRFF4ZTZ40,3YO4AH2FQG0L0WLRIP03W553LNE0Q1,3NG53N1RLZZL4SN93I3VEZHYT148P2,8,7
16,4,object_02,object_06,986.59999999963,8,2,333.5,0.6666666666666666,2,object_10,5,408,0,1,6,restaurant_1,2,memory-2step-stake-s,505,791536,0.0-19.0-0.0-0.16,AB8BRFF4ZTZ40,3YO4AH2FQG0L0WLRIP03W553LNE0Q1,3NG53N1RLZZL4SN93I3VEZHYT148P2,7,8
17,2,object_05,object_04,654.60000000056,4,2,353.79999999981,1.0,2,object_10,1,417,0,4,9,forest_2,2,memory-2step-stake-s,506,800013,0.0-19.0-0.0-0.17,AB8BRFF4ZTZ40,3YO4AH2FQG0L0WLRIP03W553LNE0Q1,3NG53N1RLZZL4SN93I3VEZHYT148P2,3,4
18,2,object_04,object_05,1088.6999999993,4,1,355.40000000037,0.4444444444444444,2,object_10,5,437,0,3,4,forest_6,2,memory-2step-stake-s,507,807987,0.0-19.0-0.0-0.18,AB8BRFF4ZTZ40,3YO4AH2FQG0L0WLRIP03W553LNE0Q1,3NG53N1RLZZL4SN93I3VEZHYT148P2,4,3
19,4,object_06,object_02,811.29999999981,8,1,354.19999999925,0.6666666666666666,2,object_10,1,443,0,5,6,restaurant_2,2,memory-2step-stake-s,508,816165,0.0-19.0-0.0-0.19,AB8BRFF4ZTZ40,3YO4AH2FQG0L0WLRIP03W553LNE0Q1,3NG53N1RLZZL4SN93I3VEZHYT148P2,8,7
20,1,object_09,object_03,728.79999999981,1,1,355.60000000056,0.5555555555555556,1,object_08,5,468,0,5,4,desert_8,2,memory-2step-stake-s,509,824238,0.0-19.0-0.0-0.20,AB8BRFF4ZTZ40,3YO4AH2FQG0L0WLRIP03W553LNE0Q1,3NG53N1RLZZL4SN93I3VEZHYT148P2,1,2
21,4,object_02,object_06,790.5,8,2,328.09999999963,0.2222222222222222,2,object_10,1,470,0,8,2,restaurant_8,2,memory-2step-stake-s,510,831982,0.0-19.0-0.0-0.21,AB8BRFF4ZTZ40,3YO4AH2FQG0L0WLRIP03W553LNE0Q1,3NG53N1RLZZL4SN93I3VEZHYT148P2,7,8
22,1,object_03,object_09,533.59999999963,2,1,388.0,0.4444444444444444,2,object_10,5,490,0,6,4,desert_3,2,memory-2step-stake-s,511,840001,0.0-19.0-0.0-0.22,AB8BRFF4ZTZ40,3YO4AH2FQG0L0WLRIP03W553LNE0Q1,3NG53N1RLZZL4SN93I3VEZHYT148P2,2,1
23,4,object_06,object_02,1317.6000000006,7,2,307.10000000056,0.5555555555555556,1,object_08,1,495,0,5,5,restaurant_7,2,memory-2step-stake-s,512,848048,0.0-19.0-0.0-0.23,AB8BRFF4ZTZ40,3YO4AH2FQG0L0WLRIP03W553LNE0Q1,3NG53N1RLZZL4SN93I3VEZHYT148P2,8,7
24,1,object_03,object_09,507.30000000075,1,2,409.90000000037,0.4444444444444444,1,object_08,5,515,0,4,7,desert_3,2,memory-2step-stake-s,513,856087,0.0-19.0-0.0-0.24,AB8BRFF4ZTZ40,3YO4AH2FQG0L0WLRIP03W553LNE0Q1,3NG53N1RLZZL4SN93I3VEZHYT148P2,2,1
25,2,object_05,object_04,1470.3999999994,3,1,485.59999999963,0.5555555555555556,1,object_08,5,540,0,5,7,forest_2,2,memory-2step-stake-s,514,864300,0.0-19.0-0.0-0.25,AB8BRFF4ZTZ40,3YO4AH2FQG0L0WLRIP03W553LNE0Q1,3NG53N1RLZZL4SN93I3VEZHYT148P2,3,4
26,3,object_07,object_01,1037.2000000002,5,2,499.19999999925,0.2222222222222222,1,object_08,1,542,0,2,7,library_7,2,memory-2step-stake-s,515,872217,0.0-19.0-0.0-0.26,AB8BRFF4ZTZ40,3YO4AH2FQG0L0WLRIP03W553LNE0Q1,3NG53N1RLZZL4SN93I3VEZHYT148P2,6,5
27,4,object_06,object_02,915.70000000019,8,1,391.70000000019,1.0,2,object_10,5,587,0,2,9,restaurant_8,2,memory-2step-stake-s,516,880743,0.0-19.0-0.0-0.27,AB8BRFF4ZTZ40,3YO4AH2FQG0L0WLRIP03W553LNE0Q1,3NG53N1RLZZL4SN93I3VEZHYT148P2,8,7
28,1,object_09,object_03,640.5,2,2,454.59999999963,0.7777777777777778,2,object_10,5,622,0,3,7,desert_2,2,memory-2step-stake-s,517,889119,0.0-19.0-0.0-0.28,AB8BRFF4ZTZ40,3YO4AH2FQG0L0WLRIP03W553LNE0Q1,3NG53N1RLZZL4SN93I3VEZHYT148P2,1,2
29,4,object_06,object_02,943.5,8,1,426.5,0.8888888888888888,2,object_10,1,630,0,1,8,restaurant_8,2,memory-2step-stake-s,518,900913,0.0-19.0-0.0-0.29,AB8BRFF4ZTZ40,3YO4AH2FQG0L0WLRIP03W553LNE0Q1,3NG53N1RLZZL4SN93I3VEZHYT148P2,8,7
30,1,object_09,object_03,787.70000000019,2,2,283.09999999963,0.8888888888888888,2,object_10,5,670,0,2,8,desert_8,2,memory-2step-stake-s,519,909223,0.0-19.0-0.0-0.30,AB8BRFF4ZTZ40,3YO4AH2FQG0L0WLRIP03W553LNE0Q1,3NG53N1RLZZL4SN93I3VEZHYT148P2,1,2
31,1,object_09,object_03,754.70000000019,2,2,-1.0,0.0,2,object_10,5,670,0,0,8,desert_3,2,memory-2step-stake-s,520,917736,0.0-19.0-0.0-0.31,AB8BRFF4ZTZ40,3YO4AH2FQG0L0WLRIP03W553LNE0Q1,3NG53N1RLZZL4SN93I3VEZHYT148P2,1,2
32,2,object_04,object_05,737.39999999944,3,2,267.79999999981,0.2222222222222222,1,object_08,5,680,0,2,9,forest_4,2,memory-2step-stake-s,521,925419,0.0-19.0-0.0-0.32,AB8BRFF4ZTZ40,3YO4AH2FQG0L0WLRIP03W553LNE0Q1,3NG53N1RLZZL4SN93I3VEZHYT148P2,4,3
33,1,object_09,object_03,905.29999999981,1,1,279.20000000112,0.2222222222222222,1,object_08,5,690,0,2,7,desert_8,2,memory-2step-stake-s,522,933115,0.0-19.0-0.0-0.33,AB8BRFF4ZTZ40,3YO4AH2FQG0L0WLRIP03W553LNE0Q1,3NG53N1RLZZL4SN93I3VEZHYT148P2,1,2
34,4,object_02,object_06,1434.6000000015,8,2,300.79999999888,0.7777777777777778,2,object_10,5,725,0,2,7,restaurant_8,2,memory-2step-stake-s,523,941339,0.0-19.0-0.0-0.34,AB8BRFF4ZTZ40,3YO4AH2FQG0L0WLRIP03W553LNE0Q1,3NG53N1RLZZL4SN93I3VEZHYT148P2,7,8
35,4,object_06,object_02,1107.8999999985,8,1,529.10000000149,0.6666666666666666,2,object_10,1,731,0,3,6,restaurant_1,2,memory-2step-stake-s,524,949696,0.0-19.0-0.0-0.35,AB8BRFF4ZTZ40,3YO4AH2FQG0L0WLRIP03W553LNE0Q1,3NG53N1RLZZL4SN93I3VEZHYT148P2,8,7
36,4,object_02,object_06,629.09999999963,8,2,464.59999999963,0.3333333333333333,2,object_10,1,734,0,2,3,restaurant_2,2,memory-2step-stake-s,525,957688,0.0-19.0-0.0-0.36,AB8BRFF4ZTZ40,3YO4AH2FQG0L0WLRIP03W553LNE0Q1,3NG53N1RLZZL4SN93I3VEZHYT148P2,7,8
37,4,object_06,object_02,601.30000000075,8,1,601.0,0.2222222222222222,2,object_10,1,736,0,1,2,restaurant_2,2,memory-2step-stake-s,526,965707,0.0-19.0-0.0-0.37,AB8BRFF4ZTZ40,3YO4AH2FQG0L0WLRIP03W553LNE0Q1,3NG53N1RLZZL4SN93I3VEZHYT148P2,8,7
38,3,object_07,object_01,1117.0999999996,5,2,543.5,0.0,1,object_08,1,736,0,0,3,library_2,2,memory-2step-stake-s,527,973464,0.0-19.0-0.0-0.38,AB8BRFF4ZTZ40,3YO4AH2FQG0L0WLRIP03W553LNE0Q1,3NG53N1RLZZL4SN93I3VEZHYT148P2,6,5
39,1,object_03,object_09,792.69999999925,1,2,962.09999999963,0.0,1,object_08,5,736,0,0,5,desert_2,2,memory-2step-stake-s,528,981640,0.0-19.0-0.0-0.39,AB8BRFF4ZTZ40,3YO4AH2FQG0L0WLRIP03W553LNE0Q1,3NG53N1RLZZL4SN93I3VEZHYT148P2,2,1
40,1,object_03,object_09,1406.9000000004,2,1,-1.0,0.0,2,object_10,5,736,0,1,8,desert_8,2,memory-2step-stake-s,529,990168,0.0-19.0-0.0-0.40,AB8BRFF4ZTZ40,3YO4AH2FQG0L0WLRIP03W553LNE0Q1,3NG53N1RLZZL4SN93I3VEZHYT148P2,2,1
41,3,object_01,object_07,507.40000000037,6,2,402.80000000075,0.7777777777777778,2,object_10,1,743,0,2,7,library_2,2,memory-2step-stake-s,530,998497,0.0-19.0-0.0-0.41,AB8BRFF4ZTZ40,3YO4AH2FQG0L0WLRIP03W553LNE0Q1,3NG53N1RLZZL4SN93I3VEZHYT148P2,5,6
42,1,object_09,object_03,793.5,2,2,480.89999999851,0.8888888888888888,2,object_10,5,783,0,6,8,desert_3,2,memory-2step-stake-s,531,1007002,0.0-19.0-0.0-0.42,AB8BRFF4ZTZ40,3YO4AH2FQG0L0WLRIP03W553LNE0Q1,3NG53N1RLZZL4SN93I3VEZHYT148P2,1,2
43,3,object_07,object_01,572.80000000075,5,2,451.30000000075,0.6666666666666666,1,object_08,1,789,0,6,8,library_2,2,memory-2step-stake-s,532,1015276,0.0-19.0-0.0-0.43,AB8BRFF4ZTZ40,3YO4AH2FQG0L0WLRIP03W553LNE0Q1,3NG53N1RLZZL4SN93I3VEZHYT148P2,6,5
44,3,object_01,object_07,540.39999999851,6,2,441.40000000037,0.7777777777777778,2,object_10,5,824,0,6,7,library_6,2,memory-2step-stake-s,533,1023634,0.0-19.0-0.0-0.44,AB8BRFF4ZTZ40,3YO4AH2FQG0L0WLRIP03W553LNE0Q1,3NG53N1RLZZL4SN93I3VEZHYT148P2,5,6
45,4,object_02,object_06,663.80000000075,8,2,404.29999999888,0.8888888888888888,2,object_10,1,832,0,5,8,restaurant_1,2,memory-2step-stake-s,534,1032073,0.0-19.0-0.0-0.45,AB8BRFF4ZTZ40,3YO4AH2FQG0L0WLRIP03W553LNE0Q1,3NG53N1RLZZL4SN93I3VEZHYT148P2,7,8
46,1,object_09,object_03,813.90000000037,2,2,329.5,0.8888888888888888,2,object_10,5,872,0,3,8,desert_1,2,memory-2step-stake-s,535,1040436,0.0-19.0-0.0-0.46,AB8BRFF4ZTZ40,3YO4AH2FQG0L0WLRIP03W553LNE0Q1,3NG53N1RLZZL4SN93I3VEZHYT148P2,1,2
47,3,object_07,object_01,610.40000000037,5,2,358.19999999925,0.4444444444444444,1,object_08,1,876,0,4,7,library_7,2,memory-2step-stake-s,536,1048411,0.0-19.0-0.0-0.47,AB8BRFF4ZTZ40,3YO4AH2FQG0L0WLRIP03W553LNE0Q1,3NG53N1RLZZL4SN93I3VEZHYT148P2,6,5
48,4,object_06,object_02,607.40000000037,8,1,260.90000000037,0.4444444444444444,2,object_10,1,880,0,4,4,restaurant_2,2,memory-2step-stake-s,537,1056300,0.0-19.0-0.0-0.48,AB8BRFF4ZTZ40,3YO4AH2FQG0L0WLRIP03W553LNE0Q1,3NG53N1RLZZL4SN93I3VEZHYT148P2,8,7
49,3,object_07,object_01,-1.0,-1,-1,-1.0,0.0,-,0,1,880,0,7,8,library_2,2,memory-2step-stake-s,538,1062808,0.0-19.0-0.0-0.49,AB8BRFF4ZTZ40,3YO4AH2FQG0L0WLRIP03W553LNE0Q1,3NG53N1RLZZL4SN93I3VEZHYT148P2,6,5
50,2,object_04,object_05,727.90000000037,4,1,298.09999999963,1.0,2,object_10,5,925,0,7,9,forest_4,2,memory-2step-stake-s,539,1071232,0.0-19.0-0.0-0.50,AB8BRFF4ZTZ40,3YO4AH2FQG0L0WLRIP03W553LNE0Q1,3NG53N1RLZZL4SN93I3VEZHYT148P2,4,3
51,2,object_05,object_04,983.80000000075,4,2,306.69999999925,0.8888888888888888,2,object_10,5,965,0,6,8,forest_1,2,memory-2step-stake-s,540,1079570,0.0-19.0-0.0-0.51,AB8BRFF4ZTZ40,3YO4AH2FQG0L0WLRIP03W553LNE0Q1,3NG53N1RLZZL4SN93I3VEZHYT148P2,3,4
52,4,object_02,object_06,632.90000000037,8,2,320.19999999925,0.6666666666666666,2,object_10,1,971,0,4,6,restaurant_7,2,memory-2step-stake-s,541,1087712,0.0-19.0-0.0-0.52,AB8BRFF4ZTZ40,3YO4AH2FQG0L0WLRIP03W553LNE0Q1,3NG53N1RLZZL4SN93I3VEZHYT148P2,7,8
53,4,object_02,object_06,476.39999999851,8,2,396.29999999888,0.8888888888888888,2,object_10,1,979,0,6,8,restaurant_2,2,memory-2step-stake-s,542,1096129,0.0-19.0-0.0-0.53,AB8BRFF4ZTZ40,3YO4AH2FQG0L0WLRIP03W553LNE0Q1,3NG53N1RLZZL4SN93I3VEZHYT148P2,7,8
54,1,object_03,object_09,676.5,2,1,418.09999999963,1.0,2,object_10,5,1024,0,8,9,desert_8,2,memory-2step-stake-s,543,1104685,0.0-19.0-0.0-0.54,AB8BRFF4ZTZ40,3YO4AH2FQG0L0WLRIP03W553LNE0Q1,3NG53N1RLZZL4SN93I3VEZHYT148P2,2,1
55,1,object_09,object_03,512.80000000075,1,1,264.5,0.7777777777777778,1,object_08,5,1059,0,7,8,desert_3,2,memory-2step-stake-s,544,1112870,0.0-19.0-0.0-0.55,AB8BRFF4ZTZ40,3YO4AH2FQG0L0WLRIP03W553LNE0Q1,3NG53N1RLZZL4SN93I3VEZHYT148P2,1,2
56,2,object_05,object_04,794.90000000037,3,1,218.5,0.8888888888888888,1,object_08,5,1099,0,8,8,forest_6,2,memory-2step-stake-s,545,1121111,0.0-19.0-0.0-0.56,AB8BRFF4ZTZ40,3YO4AH2FQG0L0WLRIP03W553LNE0Q1,3NG53N1RLZZL4SN93I3VEZHYT148P2,3,4
57,3,object_07,object_01,713.5,5,2,343.30000000075,0.8888888888888888,1,object_08,1,1107,0,8,6,library_6,2,memory-2step-stake-s,546,1129478,0.0-19.0-0.0-0.57,AB8BRFF4ZTZ40,3YO4AH2FQG0L0WLRIP03W553LNE0Q1,3NG53N1RLZZL4SN93I3VEZHYT148P2,6,5
58,1,object_03,object_09,739.0,1,2,282.89999999851,0.7777777777777778,1,object_08,1,1114,0,7,8,desert_1,2,memory-2step-stake-s,547,1137684,0.0-19.0-0.0-0.58,AB8BRFF4ZTZ40,3YO4AH2FQG0L0WLRIP03W553LNE0Q1,3NG53N1RLZZL4SN93I3VEZHYT148P2,2,1
59,2,object_05,object_04,803.40000000037,3,1,874.69999999925,0.5555555555555556,1,object_08,5,1139,0,5,7,forest_6,2,memory-2step-stake-s,548,1146275,0.0-19.0-0.0-0.59,AB8BRFF4ZTZ40,3YO4AH2FQG0L0WLRIP03W553LNE0Q1,3NG53N1RLZZL4SN93I3VEZHYT148P2,3,4
60,4,object_06,object_02,975.0,7,2,348.80000000075,0.6666666666666666,1,object_08,1,1145,0,6,8,restaurant_1,2,memory-2step-stake-s,549,1154445,0.0-19.0-0.0-0.60,AB8BRFF4ZTZ40,3YO4AH2FQG0L0WLRIP03W553LNE0Q1,3NG53N1RLZZL4SN93I3VEZHYT148P2,8,7
61,3,object_01,object_07,1264.5,5,1,471.5,1.0,1,object_08,1,1154,0,9,8,library_7,2,memory-2step-stake-s,550,1163040,0.0-19.0-0.0-0.61,AB8BRFF4ZTZ40,3YO4AH2FQG0L0WLRIP03W553LNE0Q1,3NG53N1RLZZL4SN93I3VEZHYT148P2,5,6
62,2,object_04,object_05,723.70000000112,3,2,354.40000000037,0.6666666666666666,1,object_08,5,1184,0,6,9,forest_4,2,memory-2step-stake-s,551,1171220,0.0-19.0-0.0-0.62,AB8BRFF4ZTZ40,3YO4AH2FQG0L0WLRIP03W553LNE0Q1,3NG53N1RLZZL4SN93I3VEZHYT148P2,4,3
63,3,object_07,object_01,691.69999999925,5,2,438.40000000037,0.4444444444444444,1,object_08,1,1188,0,4,8,library_6,2,memory-2step-stake-s,552,1179276,0.0-19.0-0.0-0.63,AB8BRFF4ZTZ40,3YO4AH2FQG0L0WLRIP03W553LNE0Q1,3NG53N1RLZZL4SN93I3VEZHYT148P2,6,5
64,3,object_01,object_07,1007.5999999996,6,2,438.69999999925,0.7777777777777778,2,object_10,5,1223,0,2,7,library_2,2,memory-2step-stake-s,553,1187637,0.0-19.0-0.0-0.64,AB8BRFF4ZTZ40,3YO4AH2FQG0L0WLRIP03W553LNE0Q1,3NG53N1RLZZL4SN93I3VEZHYT148P2,5,6
65,2,object_05,object_04,692.90000000037,4,2,247.40000000037,0.8888888888888888,2,object_10,1,1231,0,1,8,forest_1,2,memory-2step-stake-s,554,1195908,0.0-19.0-0.0-0.65,AB8BRFF4ZTZ40,3YO4AH2FQG0L0WLRIP03W553LNE0Q1,3NG53N1RLZZL4SN93I3VEZHYT148P2,3,4
66,4,object_02,object_06,806.80000000075,8,2,301.0,0.7777777777777778,2,object_10,5,1266,0,5,7,restaurant_8,2,memory-2step-stake-s,555,1204131,0.0-19.0-0.0-0.66,AB8BRFF4ZTZ40,3YO4AH2FQG0L0WLRIP03W553LNE0Q1,3NG53N1RLZZL4SN93I3VEZHYT148P2,7,8
67,3,object_01,object_07,464.90000000037,6,2,423.5,0.6666666666666666,2,object_10,5,1296,0,8,6,library_1,2,memory-2step-stake-s,556,1212377,0.0-19.0-0.0-0.67,AB8BRFF4ZTZ40,3YO4AH2FQG0L0WLRIP03W553LNE0Q1,3NG53N1RLZZL4SN93I3VEZHYT148P2,5,6
68,4,object_06,object_02,1096.5999999996,8,1,699.0,0.6666666666666666,2,object_10,5,1326,0,9,6,restaurant_7,2,memory-2step-stake-s,557,1220909,0.0-19.0-0.0-0.68,AB8BRFF4ZTZ40,3YO4AH2FQG0L0WLRIP03W553LNE0Q1,3NG53N1RLZZL4SN93I3VEZHYT148P2,8,7
69,4,object_06,object_02,971.0,8,1,646.30000000075,0.6666666666666666,2,object_10,1,1332,0,8,6,restaurant_8,2,memory-2step-stake-s,558,1229378,0.0-19.0-0.0-0.69,AB8BRFF4ZTZ40,3YO4AH2FQG0L0WLRIP03W553LNE0Q1,3NG53N1RLZZL4SN93I3VEZHYT148P2,8,7
70,3,object_01,object_07,672.59999999963,6,2,1048.1999999993,0.6666666666666666,2,object_10,5,1362,0,9,6,library_1,2,memory-2step-stake-s,559,1238244,0.0-19.0-0.0-0.70,AB8BRFF4ZTZ40,3YO4AH2FQG0L0WLRIP03W553LNE0Q1,3NG53N1RLZZL4SN93I3VEZHYT148P2,5,6
71,2,object_05,object_04,975.30000000075,4,2,497.19999999925,0.7777777777777778,2,object_10,5,1397,0,7,7,forest_1,2,memory-2step-stake-s,560,1246685,0.0-19.0-0.0-0.71,AB8BRFF4ZTZ40,3YO4AH2FQG0L0WLRIP03W553LNE0Q1,3NG53N1RLZZL4SN93I3VEZHYT148P2,3,4
72,2,object_04,object_05,554.0,3,2,236.70000000112,0.7777777777777778,1,object_08,5,1432,0,7,9,forest_2,2,memory-2step-stake-s,561,1257199,0.0-19.0-0.0-0.72,AB8BRFF4ZTZ40,3YO4AH2FQG0L0WLRIP03W553LNE0Q1,3NG53N1RLZZL4SN93I3VEZHYT148P2,4,3
73,1,object_03,object_09,618.70000000112,2,1,329.40000000037,0.8888888888888888,2,object_10,1,1440,0,8,8,desert_3,2,memory-2step-stake-s,562,1265567,0.0-19.0-0.0-0.73,AB8BRFF4ZTZ40,3YO4AH2FQG0L0WLRIP03W553LNE0Q1,3NG53N1RLZZL4SN93I3VEZHYT148P2,2,1
74,3,object_07,object_01,745.0,5,2,1027.2000000011,0.8888888888888888,1,object_08,5,1480,0,8,7,library_7,2,memory-2step-stake-s,563,1274617,0.0-19.0-0.0-0.74,AB8BRFF4ZTZ40,3YO4AH2FQG0L0WLRIP03W553LNE0Q1,3NG53N1RLZZL4SN93I3VEZHYT148P2,6,5
75,2,object_04,object_05,627.70000000112,3,2,1026.3000000007,0.8888888888888888,1,object_08,5,1520,0,8,8,forest_1,2,memory-2step-stake-s,564,1283678,0.0-19.0-0.0-0.75,AB8BRFF4ZTZ40,3YO4AH2FQG0L0WLRIP03W553LNE0Q1,3NG53N1RLZZL4SN93I3VEZHYT148P2,4,3
76,1,object_09,object_03,595.40000000037,1,1,787.09999999963,0.7777777777777778,1,object_08,5,1555,0,7,7,desert_2,2,memory-2step-stake-s,565,1292402,0.0-19.0-0.0-0.76,AB8BRFF4ZTZ40,3YO4AH2FQG0L0WLRIP03W553LNE0Q1,3NG53N1RLZZL4SN93I3VEZHYT148P2,1,2
77,1,object_09,object_03,704.90000000037,1,1,1231.0,0.6666666666666666,1,object_08,5,1585,0,6,5,desert_1,2,memory-2step-stake-s,566,1301454,0.0-19.0-0.0-0.77,AB8BRFF4ZTZ40,3YO4AH2FQG0L0WLRIP03W553LNE0Q1,3NG53N1RLZZL4SN93I3VEZHYT148P2,1,2
78,2,object_05,object_04,680.59999999963,3,1,253.69999999925,0.8888888888888888,1,object_08,5,1625,0,8,4,forest_1,2,memory-2step-stake-s,567,1309737,0.0-19.0-0.0-0.78,AB8BRFF4ZTZ40,3YO4AH2FQG0L0WLRIP03W553LNE0Q1,3NG53N1RLZZL4SN93I3VEZHYT148P2,3,4
79,4,object_06,object_02,611.59999999963,8,1,404.69999999925,0.3333333333333333,2,object_10,1,1628,0,9,3,restaurant_7,2,memory-2step-stake-s,568,1317670,0.0-19.0-0.0-0.79,AB8BRFF4ZTZ40,3YO4AH2FQG0L0WLRIP03W553LNE0Q1,3NG53N1RLZZL4SN93I3VEZHYT148P2,8,7
80,2,object_04,object_05,612.90000000037,3,2,478.90000000037,0.5555555555555556,1,object_08,5,1653,0,5,3,forest_1,2,memory-2step-stake-s,569,1325883,0.0-19.0-0.0-0.80,AB8BRFF4ZTZ40,3YO4AH2FQG0L0WLRIP03W553LNE0Q1,3NG53N1RLZZL4SN93I3VEZHYT148P2,4,3
81,3,object_01,object_07,1419.1000000015,5,1,382.30000000075,0.3333333333333333,1,object_08,1,1656,0,3,6,library_1,2,memory-2step-stake-s,570,1333784,0.0-19.0-0.0-0.81,AB8BRFF4ZTZ40,3YO4AH2FQG0L0WLRIP03W553LNE0Q1,3NG53N1RLZZL4SN93I3VEZHYT148P2,5,6
82,2,object_05,object_04,267.59999999963,4,2,361.90000000037,0.7777777777777778,2,object_10,1,1663,0,5,7,forest_2,2,memory-2step-stake-s,571,1342081,0.0-19.0-0.0-0.82,AB8BRFF4ZTZ40,3YO4AH2FQG0L0WLRIP03W553LNE0Q1,3NG53N1RLZZL4SN93I3VEZHYT148P2,3,4
83,2,object_05,object_04,768.20000000112,4,2,404.0,0.6666666666666666,2,object_10,5,1693,0,4,6,forest_2,2,memory-2step-stake-s,572,1350314,0.0-19.0-0.0-0.83,AB8BRFF4ZTZ40,3YO4AH2FQG0L0WLRIP03W553LNE0Q1,3NG53N1RLZZL4SN93I3VEZHYT148P2,3,4
84,1,object_03,object_09,984.29999999888,2,1,287.29999999888,0.7777777777777778,2,object_10,5,1728,0,3,7,desert_3,2,memory-2step-stake-s,573,1358522,0.0-19.0-0.0-0.84,AB8BRFF4ZTZ40,3YO4AH2FQG0L0WLRIP03W553LNE0Q1,3NG53N1RLZZL4SN93I3VEZHYT148P2,2,1
85,3,object_01,object_07,875.80000000075,6,2,461.0,1.0,2,object_10,1,1737,0,0,9,library_7,2,memory-2step-stake-s,574,1367122,0.0-19.0-0.0-0.85,AB8BRFF4ZTZ40,3YO4AH2FQG0L0WLRIP03W553LNE0Q1,3NG53N1RLZZL4SN93I3VEZHYT148P2,5,6
86,2,object_05,object_04,1254.7000000011,4,2,417.19999999925,0.6666666666666666,2,object_10,5,1767,0,2,6,forest_6,2,memory-2step-stake-s,575,1375367,0.0-19.0-0.0-0.86,AB8BRFF4ZTZ40,3YO4AH2FQG0L0WLRIP03W553LNE0Q1,3NG53N1RLZZL4SN93I3VEZHYT148P2,3,4
87,4,object_02,object_06,1051.8000000007,7,1,268.29999999888,0.5555555555555556,1,object_08,5,1792,0,5,4,restaurant_8,2,memory-2step-stake-s,576,1383350,0.0-19.0-0.0-0.87,AB8BRFF4ZTZ40,3YO4AH2FQG0L0WLRIP03W553LNE0Q1,3NG53N1RLZZL4SN93I3VEZHYT148P2,7,8
88,3,object_01,object_07,695.79999999888,6,2,533.5,0.4444444444444444,2,object_10,1,1796,0,6,4,library_6,2,memory-2step-stake-s,577,1391503,0.0-19.0-0.0-0.88,AB8BRFF4ZTZ40,3YO4AH2FQG0L0WLRIP03W553LNE0Q1,3NG53N1RLZZL4SN93I3VEZHYT148P2,5,6
89,4,object_02,object_06,977.80000000075,8,2,735.69999999925,0.3333333333333333,2,object_10,1,1799,0,9,3,restaurant_7,2,memory-2step-stake-s,578,1399764,0.0-19.0-0.0-0.89,AB8BRFF4ZTZ40,3YO4AH2FQG0L0WLRIP03W553LNE0Q1,3NG53N1RLZZL4SN93I3VEZHYT148P2,7,8
90,3,object_07,object_01,705.0,5,2,363.0,0.7777777777777778,1,object_08,1,1806,0,7,3,library_1,2,memory-2step-stake-s,579,1408060,0.0-19.0-0.0-0.90,AB8BRFF4ZTZ40,3YO4AH2FQG0L0WLRIP03W553LNE0Q1,3NG53N1RLZZL4SN93I3VEZHYT148P2,6,5
91,2,object_05,object_04,496.30000000075,4,2,366.60000000149,0.3333333333333333,2,object_10,5,1821,0,5,3,forest_2,2,memory-2step-stake-s,580,1415944,0.0-19.0-0.0-0.91,AB8BRFF4ZTZ40,3YO4AH2FQG0L0WLRIP03W553LNE0Q1,3NG53N1RLZZL4SN93I3VEZHYT148P2,3,4
92,4,object_02,object_06,1319.7000000011,8,2,365.80000000075,0.4444444444444444,2,object_10,5,1841,0,2,4,restaurant_2,2,memory-2step-stake-s,581,1423933,0.0-19.0-0.0-0.92,AB8BRFF4ZTZ40,3YO4AH2FQG0L0WLRIP03W553LNE0Q1,3NG53N1RLZZL4SN93I3VEZHYT148P2,7,8
93,1,object_09,object_03,1265.8000000007,1,1,364.29999999888,0.5555555555555556,1,object_08,5,1866,0,5,3,desert_2,2,memory-2step-stake-s,582,1432018,0.0-19.0-0.0-0.93,AB8BRFF4ZTZ40,3YO4AH2FQG0L0WLRIP03W553LNE0Q1,3NG53N1RLZZL4SN93I3VEZHYT148P2,1,2
94,4,object_02,object_06,1088.7999999989,7,1,268.09999999963,0.7777777777777778,1,object_08,1,1873,0,7,5,restaurant_2,2,memory-2step-stake-s,583,1442213,0.0-19.0-0.0-0.94,AB8BRFF4ZTZ40,3YO4AH2FQG0L0WLRIP03W553LNE0Q1,3NG53N1RLZZL4SN93I3VEZHYT148P2,7,8
95,3,object_07,object_01,1119.6999999993,5,2,385.89999999851,0.8888888888888888,1,object_08,1,1881,0,8,2,library_1,2,memory-2step-stake-s,584,1450629,0.0-19.0-0.0-0.95,AB8BRFF4ZTZ40,3YO4AH2FQG0L0WLRIP03W553LNE0Q1,3NG53N1RLZZL4SN93I3VEZHYT148P2,6,5
96,2,object_04,object_05,571.59999999963,4,1,-1.0,0.0,2,object_10,5,1881,0,7,4,forest_4,2,memory-2step-stake-s,585,1459148,0.0-19.0-0.0-0.96,AB8BRFF4ZTZ40,3YO4AH2FQG0L0WLRIP03W553LNE0Q1,3NG53N1RLZZL4SN93I3VEZHYT148P2,4,3
97,2,object_04,object_05,505.90000000037,3,2,481.69999999925,0.5555555555555556,1,object_08,1,1886,0,5,4,forest_1,2,memory-2step-stake-s,586,1467352,0.0-19.0-0.0-0.97,AB8BRFF4ZTZ40,3YO4AH2FQG0L0WLRIP03W553LNE0Q1,3NG53N1RLZZL4SN93I3VEZHYT148P2,4,3
98,2,object_04,object_05,568.10000000149,4,1,468.5,0.6666666666666666,2,object_10,1,1892,0,6,6,forest_6,2,memory-2step-stake-s,587,1475647,0.0-19.0-0.0-0.98,AB8BRFF4ZTZ40,3YO4AH2FQG0L0WLRIP03W553LNE0Q1,3NG53N1RLZZL4SN93I3VEZHYT148P2,4,3
99,1,object_09,object_03,600.59999999963,2,2,254.60000000149,0.6666666666666666,2,object_10,5,1922,0,5,6,desert_3,2,memory-2step-stake-s,588,1483720,0.0-19.0-0.0-0.99,AB8BRFF4ZTZ40,3YO4AH2FQG0L0WLRIP03W553LNE0Q1,3NG53N1RLZZL4SN93I3VEZHYT148P2,1,2
100,2,object_05,object_04,475.20000000112,3,1,450.20000000112,0.4444444444444444,1,object_08,5,1942,0,4,7,forest_6,2,memory-2step-stake-s,589,1491795,0.0-19.0-0.0-0.100,AB8BRFF4ZTZ40,3YO4AH2FQG0L0WLRIP03W553LNE0Q1,3NG53N1RLZZL4SN93I3VEZHYT148P2,3,4
101,1,object_09,object_03,868.30000000075,2,2,322.20000000112,0.6666666666666666,2,object_10,5,1972,0,3,6,desert_1,2,memory-2step-stake-s,590,1499941,0.0-19.0-0.0-0.101,AB8BRFF4ZTZ40,3YO4AH2FQG0L0WLRIP03W553LNE0Q1,3NG53N1RLZZL4SN93I3VEZHYT148P2,1,2
102,4,object_06,object_02,648.5,8,1,354.20000000112,0.6666666666666666,2,object_10,1,1978,0,1,6,restaurant_8,2,memory-2step-stake-s,591,1508118,0.0-19.0-0.0-0.102,AB8BRFF4ZTZ40,3YO4AH2FQG0L0WLRIP03W553LNE0Q1,3NG53N1RLZZL4SN93I3VEZHYT148P2,8,7
103,3,object_07,object_01,742.60000000149,6,1,445.80000000075,0.7777777777777778,2,object_10,1,1985,0,1,7,library_1,2,memory-2step-stake-s,592,1516485,0.0-19.0-0.0-0.103,AB8BRFF4ZTZ40,3YO4AH2FQG0L0WLRIP03W553LNE0Q1,3NG53N1RLZZL4SN93I3VEZHYT148P2,6,5
104,4,object_06,object_02,539.59999999963,8,1,370.0,0.8888888888888888,2,object_10,1,1993,0,1,8,restaurant_8,2,memory-2step-stake-s,593,1524893,0.0-19.0-0.0-0.104,AB8BRFF4ZTZ40,3YO4AH2FQG0L0WLRIP03W553LNE0Q1,3NG53N1RLZZL4SN93I3VEZHYT148P2,8,7
105,4,object_06,object_02,692.69999999925,8,1,314.5,0.7777777777777778,2,object_10,1,2000,0,1,7,restaurant_7,2,memory-2step-stake-s,594,1533130,0.0-19.0-0.0-0.105,AB8BRFF4ZTZ40,3YO4AH2FQG0L0WLRIP03W553LNE0Q1,3NG53N1RLZZL4SN93I3VEZHYT148P2,8,7
106,2,object_05,object_04,806.40000000037,3,1,263.80000000075,0.0,1,object_08,5,2000,0,0,2,forest_2,2,memory-2step-stake-s,595,1540607,0.0-19.0-0.0-0.106,AB8BRFF4ZTZ40,3YO4AH2FQG0L0WLRIP03W553LNE0Q1,3NG53N1RLZZL4SN93I3VEZHYT148P2,3,4
107,3,object_07,object_01,542.69999999925,5,2,430.70000000112,0.1111111111111111,1,object_08,5,2005,0,1,1,library_7,2,memory-2step-stake-s,596,1548350,0.0-19.0-0.0-0.107,AB8BRFF4ZTZ40,3YO4AH2FQG0L0WLRIP03W553LNE0Q1,3NG53N1RLZZL4SN93I3VEZHYT148P2,6,5
108,1,object_03,object_09,879.29999999888,2,1,1193.5999999996,0.1111111111111111,2,object_10,5,2010,0,0,1,desert_8,2,memory-2step-stake-s,597,1556874,0.0-19.0-0.0-0.108,AB8BRFF4ZTZ40,3YO4AH2FQG0L0WLRIP03W553LNE0Q1,3NG53N1RLZZL4SN93I3VEZHYT148P2,2,1
109,3,object_01,object_07,967.40000000037,6,2,443.0,0.3333333333333333,2,object_10,1,2013,0,1,3,library_6,2,memory-2step-stake-s,598,1564839,0.0-19.0-0.0-0.109,AB8BRFF4ZTZ40,3YO4AH2FQG0L0WLRIP03W553LNE0Q1,3NG53N1RLZZL4SN93I3VEZHYT148P2,5,6
110,4,object_06,object_02,1010.0999999996,8,1,300.5,0.1111111111111111,2,object_10,1,2014,0,1,1,restaurant_1,2,memory-2step-stake-s,599,1572463,0.0-19.0-0.0-0.110,AB8BRFF4ZTZ40,3YO4AH2FQG0L0WLRIP03W553LNE0Q1,3NG53N1RLZZL4SN93I3VEZHYT148P2,8,7
111,2,object_04,object_05,681.39999999851,3,2,456.59999999963,0.4444444444444444,1,object_08,1,2018,0,4,5,forest_4,2,memory-2step-stake-s,600,1580536,0.0-19.0-0.0-0.111,AB8BRFF4ZTZ40,3YO4AH2FQG0L0WLRIP03W553LNE0Q1,3NG53N1RLZZL4SN93I3VEZHYT148P2,4,3
112,2,object_04,object_05,750.79999999888,3,2,384.90000000037,0.4444444444444444,1,object_08,5,2038,0,4,4,forest_4,2,memory-2step-stake-s,601,1588542,0.0-19.0-0.0-0.112,AB8BRFF4ZTZ40,3YO4AH2FQG0L0WLRIP03W553LNE0Q1,3NG53N1RLZZL4SN93I3VEZHYT148P2,4,3
113,1,object_09,object_03,777.09999999963,1,1,468.19999999925,0.4444444444444444,1,object_08,5,2058,0,4,3,desert_2,2,memory-2step-stake-s,602,1596632,0.0-19.0-0.0-0.113,AB8BRFF4ZTZ40,3YO4AH2FQG0L0WLRIP03W553LNE0Q1,3NG53N1RLZZL4SN93I3VEZHYT148P2,1,2
114,4,object_06,object_02,992.69999999925,8,1,812.19999999925,0.3333333333333333,2,object_10,5,2073,0,5,3,restaurant_7,2,memory-2step-stake-s,603,1604962,0.0-19.0-0.0-0.114,AB8BRFF4ZTZ40,3YO4AH2FQG0L0WLRIP03W553LNE0Q1,3NG53N1RLZZL4SN93I3VEZHYT148P2,8,7
115,4,object_06,object_02,420.5,7,2,623.0,0.2222222222222222,1,object_08,1,2075,0,2,5,restaurant_1,2,memory-2step-stake-s,604,1612999,0.0-19.0-0.0-0.115,AB8BRFF4ZTZ40,3YO4AH2FQG0L0WLRIP03W553LNE0Q1,3NG53N1RLZZL4SN93I3VEZHYT148P2,8,7
116,3,object_01,object_07,617.79999999888,6,2,395.80000000075,0.4444444444444444,2,object_10,1,2079,0,6,4,library_1,2,memory-2step-stake-s,605,1621013,0.0-19.0-0.0-0.116,AB8BRFF4ZTZ40,3YO4AH2FQG0L0WLRIP03W553LNE0Q1,3NG53N1RLZZL4SN93I3VEZHYT148P2,5,6
117,2,object_05,object_04,402.30000000075,3,1,425.0,0.8888888888888888,1,object_08,5,2119,0,8,2,forest_1,2,memory-2step-stake-s,606,1629461,0.0-19.0-0.0-0.117,AB8BRFF4ZTZ40,3YO4AH2FQG0L0WLRIP03W553LNE0Q1,3NG53N1RLZZL4SN93I3VEZHYT148P2,3,4
118,1,object_03,object_09,759.20000000112,1,2,1085.7999999989,0.7777777777777778,1,object_08,5,2154,0,7,3,desert_2,2,memory-2step-stake-s,607,1638476,0.0-19.0-0.0-0.118,AB8BRFF4ZTZ40,3YO4AH2FQG0L0WLRIP03W553LNE0Q1,3NG53N1RLZZL4SN93I3VEZHYT148P2,2,1
119,3,object_07,object_01,-1.0,-1,-1,-1.0,0.0,-,0,1,2154,0,6,2,library_7,2,memory-2step-stake-s,608,1644987,0.0-19.0-0.0-0.119,AB8BRFF4ZTZ40,3YO4AH2FQG0L0WLRIP03W553LNE0Q1,3NG53N1RLZZL4SN93I3VEZHYT148P2,6,5
120,1,object_09,object_03,585.79999999888,1,1,486.0,0.6666666666666666,1,object_08,5,2184,0,6,0,desert_2,2,memory-2step-stake-s,609,1653298,0.0-19.0-0.0-0.120,AB8BRFF4ZTZ40,3YO4AH2FQG0L0WLRIP03W553LNE0Q1,3NG53N1RLZZL4SN93I3VEZHYT148P2,1,2
121,3,object_07,object_01,1031.6999999993,5,2,795.0,0.6666666666666666,1,object_08,1,2190,0,6,0,library_6,2,memory-2step-stake-s,610,1661917,0.0-19.0-0.0-0.121,AB8BRFF4ZTZ40,3YO4AH2FQG0L0WLRIP03W553LNE0Q1,3NG53N1RLZZL4SN93I3VEZHYT148P2,6,5
122,1,object_03,object_09,1035.0,1,2,870.19999999925,0.5555555555555556,1,object_08,5,2215,0,5,0,desert_2,2,memory-2step-stake-s,611,1670509,0.0-19.0-0.0-0.122,AB8BRFF4ZTZ40,3YO4AH2FQG0L0WLRIP03W553LNE0Q1,3NG53N1RLZZL4SN93I3VEZHYT148P2,2,1
123,1,object_03,object_09,558.20000000112,1,2,665.69999999925,0.6666666666666666,1,object_08,5,2245,0,6,0,desert_2,2,memory-2step-stake-s,612,1679003,0.0-19.0-0.0-0.123,AB8BRFF4ZTZ40,3YO4AH2FQG0L0WLRIP03W553LNE0Q1,3NG53N1RLZZL4SN93I3VEZHYT148P2,2,1
124,3,object_07,object_01,539.40000000037,5,2,1187.0999999996,0.8888888888888888,1,object_08,1,2253,0,8,1,library_6,2,memory-2step-stake-s,613,1688213,0.0-19.0-0.0-0.124,AB8BRFF4ZTZ40,3YO4AH2FQG0L0WLRIP03W553LNE0Q1,3NG53N1RLZZL4SN93I3VEZHYT148P2,6,5
125,1,object_03,object_09,709.59999999963,1,2,370.10000000149,0.5555555555555556,1,object_08,1,2258,0,5,4,desert_8,2,memory-2step-stake-s,614,1696313,0.0-19.0-0.0-0.125,AB8BRFF4ZTZ40,3YO4AH2FQG0L0WLRIP03W553LNE0Q1,3NG53N1RLZZL4SN93I3VEZHYT148P2,2,1
126,3,object_07,object_01,910.60000000149,5,2,439.0,0.4444444444444444,1,object_08,1,2262,0,4,5,library_1,2,memory-2step-stake-s,615,1704382,0.0-19.0-0.0-0.126,AB8BRFF4ZTZ40,3YO4AH2FQG0L0WLRIP03W553LNE0Q1,3NG53N1RLZZL4SN93I3VEZHYT148P2,6,5
127,4,object_02,object_06,540.59999999963,8,2,446.79999999888,0.0,2,object_10,1,2262,0,6,0,restaurant_7,2,memory-2step-stake-s,616,1712042,0.0-19.0-0.0-0.127,AB8BRFF4ZTZ40,3YO4AH2FQG0L0WLRIP03W553LNE0Q1,3NG53N1RLZZL4SN93I3VEZHYT148P2,7,8
128,4,object_06,object_02,568.29999999888,7,2,290.69999999925,0.1111111111111111,1,object_08,5,2267,0,1,1,restaurant_7,2,memory-2step-stake-s,618,1721302,0.0-19.0-0.1-0.128,AB8BRFF4ZTZ40,3YO4AH2FQG0L0WLRIP03W553LNE0Q1,3NG53N1RLZZL4SN93I3VEZHYT148P2,8,7
129,1,object_09,object_03,478.69999999925,1,1,261.19999999925,0.4444444444444444,1,object_08,5,2287,0,4,3,desert_1,2,memory-2step-stake-s,619,1729183,0.0-19.0-0.1-0.129,AB8BRFF4ZTZ40,3YO4AH2FQG0L0WLRIP03W553LNE0Q1,3NG53N1RLZZL4SN93I3VEZHYT148P2,1,2
130,3,object_01,object_07,1180.5,6,2,283.0,0.6666666666666666,2,object_10,1,2293,0,5,6,library_1,2,memory-2step-stake-s,620,1737303,0.0-19.0-0.1-0.130,AB8BRFF4ZTZ40,3YO4AH2FQG0L0WLRIP03W553LNE0Q1,3NG53N1RLZZL4SN93I3VEZHYT148P2,5,6
131,4,object_02,object_06,1331.1999999993,8,2,345.20000000112,0.4444444444444444,2,object_10,1,2297,0,3,4,restaurant_8,2,memory-2step-stake-s,621,1745278,0.0-19.0-0.1-0.131,AB8BRFF4ZTZ40,3YO4AH2FQG0L0WLRIP03W553LNE0Q1,3NG53N1RLZZL4SN93I3VEZHYT148P2,7,8
132,1,object_03,object_09,899.69999999925,2,1,334.90000000037,0.2222222222222222,2,object_10,5,2307,0,7,2,desert_3,2,memory-2step-stake-s,622,1753028,0.0-19.0-0.1-0.132,AB8BRFF4ZTZ40,3YO4AH2FQG0L0WLRIP03W553LNE0Q1,3NG53N1RLZZL4SN93I3VEZHYT148P2,2,1
133,2,object_04,object_05,696.80000000075,3,2,318.80000000075,0.7777777777777778,1,object_08,1,2314,0,7,1,forest_2,2,memory-2step-stake-s,623,1761279,0.0-19.0-0.1-0.133,AB8BRFF4ZTZ40,3YO4AH2FQG0L0WLRIP03W553LNE0Q1,3NG53N1RLZZL4SN93I3VEZHYT148P2,4,3
134,4,object_02,object_06,1067.9000000004,7,1,419.0,1.0,1,object_08,1,2323,0,9,1,restaurant_1,2,memory-2step-stake-s,624,1769823,0.0-19.0-0.1-0.134,AB8BRFF4ZTZ40,3YO4AH2FQG0L0WLRIP03W553LNE0Q1,3NG53N1RLZZL4SN93I3VEZHYT148P2,7,8
135,4,object_02,object_06,861.5,7,1,407.20000000112,0.7777777777777778,1,object_08,1,2330,0,7,0,restaurant_2,2,memory-2step-stake-s,625,1778153,0.0-19.0-0.1-0.135,AB8BRFF4ZTZ40,3YO4AH2FQG0L0WLRIP03W553LNE0Q1,3NG53N1RLZZL4SN93I3VEZHYT148P2,7,8
136,2,object_04,object_05,842.90000000037,3,2,1041.1999999993,0.8888888888888888,1,object_08,5,2370,0,8,1,forest_4,2,memory-2step-stake-s,626,1787219,0.0-19.0-0.1-0.136,AB8BRFF4ZTZ40,3YO4AH2FQG0L0WLRIP03W553LNE0Q1,3NG53N1RLZZL4SN93I3VEZHYT148P2,4,3
137,4,object_06,object_02,504.30000000075,8,1,412.59999999963,0.0,2,object_10,1,2370,0,3,0,restaurant_8,2,memory-2step-stake-s,627,1794842,0.0-19.0-0.1-0.137,AB8BRFF4ZTZ40,3YO4AH2FQG0L0WLRIP03W553LNE0Q1,3NG53N1RLZZL4SN93I3VEZHYT148P2,8,7
138,4,object_02,object_06,480.30000000075,8,2,422.79999999888,0.2222222222222222,2,object_10,1,2372,0,3,2,restaurant_8,2,memory-2step-stake-s,628,1802681,0.0-19.0-0.1-0.138,AB8BRFF4ZTZ40,3YO4AH2FQG0L0WLRIP03W553LNE0Q1,3NG53N1RLZZL4SN93I3VEZHYT148P2,7,8
139,1,object_09,object_03,511.79999999888,1,1,273.19999999925,0.6666666666666666,1,object_08,5,2402,0,6,5,desert_8,2,memory-2step-stake-s,629,1810787,0.0-19.0-0.1-0.139,AB8BRFF4ZTZ40,3YO4AH2FQG0L0WLRIP03W553LNE0Q1,3NG53N1RLZZL4SN93I3VEZHYT148P2,1,2
140,1,object_03,object_09,519.89999999851,1,2,421.80000000075,0.7777777777777778,1,object_08,5,2437,0,7,8,desert_1,2,memory-2step-stake-s,630,1819135,0.0-19.0-0.1-0.140,AB8BRFF4ZTZ40,3YO4AH2FQG0L0WLRIP03W553LNE0Q1,3NG53N1RLZZL4SN93I3VEZHYT148P2,2,1
141,1,object_09,object_03,-1.0,-1,-1,-1.0,0.0,-,0,5,2437,0,7,7,desert_8,2,memory-2step-stake-s,631,1825642,0.0-19.0-0.1-0.141,AB8BRFF4ZTZ40,3YO4AH2FQG0L0WLRIP03W553LNE0Q1,3NG53N1RLZZL4SN93I3VEZHYT148P2,1,2
142,3,object_01,object_07,401.5,6,2,1136.2000000011,0.8888888888888888,2,object_10,1,2445,0,7,8,library_6,2,memory-2step-stake-s,632,1834811,0.0-19.0-0.1-0.142,AB8BRFF4ZTZ40,3YO4AH2FQG0L0WLRIP03W553LNE0Q1,3NG53N1RLZZL4SN93I3VEZHYT148P2,5,6
143,3,object_01,object_07,415.19999999925,6,2,885.90000000037,0.7777777777777778,2,object_10,1,2452,0,7,7,library_7,2,memory-2step-stake-s,633,1843621,0.0-19.0-0.1-0.143,AB8BRFF4ZTZ40,3YO4AH2FQG0L0WLRIP03W553LNE0Q1,3NG53N1RLZZL4SN93I3VEZHYT148P2,5,6
144,4,object_02,object_06,584.30000000075,7,1,720.59999999963,0.6666666666666666,1,object_08,5,2482,0,6,3,restaurant_1,2,memory-2step-stake-s,634,1852170,0.0-19.0-0.1-0.144,AB8BRFF4ZTZ40,3YO4AH2FQG0L0WLRIP03W553LNE0Q1,3NG53N1RLZZL4SN93I3VEZHYT148P2,7,8
145,2,object_05,object_04,843.39999999851,3,1,690.79999999888,0.5555555555555556,1,object_08,1,2487,0,5,1,forest_6,2,memory-2step-stake-s,635,1860589,0.0-19.0-0.1-0.145,AB8BRFF4ZTZ40,3YO4AH2FQG0L0WLRIP03W553LNE0Q1,3NG53N1RLZZL4SN93I3VEZHYT148P2,3,4
146,2,object_04,object_05,903.29999999888,3,2,381.79999999888,0.6666666666666666,1,object_08,5,2517,0,6,3,forest_6,2,memory-2step-stake-s,636,1868795,0.0-19.0-0.1-0.146,AB8BRFF4ZTZ40,3YO4AH2FQG0L0WLRIP03W553LNE0Q1,3NG53N1RLZZL4SN93I3VEZHYT148P2,4,3
147,2,object_04,object_05,1244.6999999993,3,2,467.40000000037,0.6666666666666666,1,object_08,1,2523,0,6,6,forest_4,2,memory-2step-stake-s,637,1877095,0.0-19.0-0.1-0.147,AB8BRFF4ZTZ40,3YO4AH2FQG0L0WLRIP03W553LNE0Q1,3NG53N1RLZZL4SN93I3VEZHYT148P2,4,3
148,1,object_03,object_09,975.69999999925,1,2,262.69999999925,0.7777777777777778,1,object_08,5,2558,0,7,7,desert_8,2,memory-2step-stake-s,638,1885293,0.0-19.0-0.1-0.148,AB8BRFF4ZTZ40,3YO4AH2FQG0L0WLRIP03W553LNE0Q1,3NG53N1RLZZL4SN93I3VEZHYT148P2,2,1
149,4,object_06,object_02,937.0,7,2,343.19999999925,1.0,1,object_08,5,2603,0,9,8,restaurant_7,2,memory-2step-stake-s,639,1893776,0.0-19.0-0.1-0.149,AB8BRFF4ZTZ40,3YO4AH2FQG0L0WLRIP03W553LNE0Q1,3NG53N1RLZZL4SN93I3VEZHYT148P2,8,7
150,4,object_02,object_06,-1.0,-1,-1,-1.0,0.0,-,0,1,2603,0,8,8,restaurant_7,2,memory-2step-stake-s,640,1900287,0.0-19.0-0.1-0.150,AB8BRFF4ZTZ40,3YO4AH2FQG0L0WLRIP03W553LNE0Q1,3NG53N1RLZZL4SN93I3VEZHYT148P2,7,8
151,2,object_05,object_04,794.0,3,1,328.30000000075,0.6666666666666666,1,object_08,5,2633,0,6,7,forest_6,2,memory-2step-stake-s,641,1908436,0.0-19.0-0.1-0.151,AB8BRFF4ZTZ40,3YO4AH2FQG0L0WLRIP03W553LNE0Q1,3NG53N1RLZZL4SN93I3VEZHYT148P2,3,4
152,2,object_04,object_05,763.69999999925,3,2,422.19999999925,0.4444444444444444,1,object_08,5,2653,0,4,9,forest_4,2,memory-2step-stake-s,642,1916492,0.0-19.0-0.1-0.152,AB8BRFF4ZTZ40,3YO4AH2FQG0L0WLRIP03W553LNE0Q1,3NG53N1RLZZL4SN93I3VEZHYT148P2,4,3
153,2,object_05,object_04,1170.4000000004,3,1,457.5,0.4444444444444444,1,object_08,5,2673,0,4,6,forest_6,2,memory-2step-stake-s,643,1924572,0.0-19.0-0.1-0.153,AB8BRFF4ZTZ40,3YO4AH2FQG0L0WLRIP03W553LNE0Q1,3NG53N1RLZZL4SN93I3VEZHYT148P2,3,4
154,1,object_03,object_09,487.29999999888,1,2,270.29999999888,0.4444444444444444,1,object_08,5,2693,0,4,6,desert_2,2,memory-2step-stake-s,644,1932474,0.0-19.0-0.1-0.154,AB8BRFF4ZTZ40,3YO4AH2FQG0L0WLRIP03W553LNE0Q1,3NG53N1RLZZL4SN93I3VEZHYT148P2,2,1
155,3,object_01,object_07,881.80000000075,5,1,415.89999999851,0.5555555555555556,1,object_08,1,2698,0,5,4,library_7,2,memory-2step-stake-s,645,1940613,0.0-19.0-0.1-0.155,AB8BRFF4ZTZ40,3YO4AH2FQG0L0WLRIP03W553LNE0Q1,3NG53N1RLZZL4SN93I3VEZHYT148P2,5,6
156,2,object_04,object_05,761.20000000112,4,1,368.40000000037,0.3333333333333333,2,object_10,5,2713,0,2,3,forest_4,2,memory-2step-stake-s,646,1948514,0.0-19.0-0.1-0.156,AB8BRFF4ZTZ40,3YO4AH2FQG0L0WLRIP03W553LNE0Q1,3NG53N1RLZZL4SN93I3VEZHYT148P2,4,3
157,2,object_04,object_05,369.69999999925,3,2,463.5,0.4444444444444444,1,object_08,5,2733,0,4,5,forest_4,2,memory-2step-stake-s,647,1956607,0.0-19.0-0.1-0.157,AB8BRFF4ZTZ40,3YO4AH2FQG0L0WLRIP03W553LNE0Q1,3NG53N1RLZZL4SN93I3VEZHYT148P2,4,3
158,2,object_05,object_04,524.30000000075,3,1,411.90000000037,0.2222222222222222,1,object_08,5,2743,0,2,3,forest_1,2,memory-2step-stake-s,648,1964452,0.0-19.0-0.1-0.158,AB8BRFF4ZTZ40,3YO4AH2FQG0L0WLRIP03W553LNE0Q1,3NG53N1RLZZL4SN93I3VEZHYT148P2,3,4
159,4,object_06,object_02,909.70000000112,8,1,436.90000000037,0.2222222222222222,2,object_10,1,2745,0,1,2,restaurant_8,2,memory-2step-stake-s,649,1972308,0.0-19.0-0.1-0.159,AB8BRFF4ZTZ40,3YO4AH2FQG0L0WLRIP03W553LNE0Q1,3NG53N1RLZZL4SN93I3VEZHYT148P2,8,7
160,3,object_07,object_01,291.90000000037,5,2,1001.1000000015,0.0,1,object_08,1,2745,0,0,3,library_6,2,memory-2step-stake-s,650,1980524,0.0-19.0-0.1-0.160,AB8BRFF4ZTZ40,3YO4AH2FQG0L0WLRIP03W553LNE0Q1,3NG53N1RLZZL4SN93I3VEZHYT148P2,6,5
161,4,object_06,object_02,290.90000000037,8,1,427.40000000037,0.4444444444444444,2,object_10,5,2765,0,2,4,restaurant_1,2,memory-2step-stake-s,651,1988569,0.0-19.0-0.1-0.161,AB8BRFF4ZTZ40,3YO4AH2FQG0L0WLRIP03W553LNE0Q1,3NG53N1RLZZL4SN93I3VEZHYT148P2,8,7
162,3,object_01,object_07,809.5,5,1,374.10000000149,0.1111111111111111,1,object_08,1,2766,0,1,1,library_2,2,memory-2step-stake-s,652,1996255,0.0-19.0-0.1-0.162,AB8BRFF4ZTZ40,3YO4AH2FQG0L0WLRIP03W553LNE0Q1,3NG53N1RLZZL4SN93I3VEZHYT148P2,5,6
163,2,object_05,object_04,485.5,4,2,475.09999999963,0.2222222222222222,2,object_10,5,2776,0,2,2,forest_1,2,memory-2step-stake-s,653,2004164,0.0-19.0-0.1-0.163,AB8BRFF4ZTZ40,3YO4AH2FQG0L0WLRIP03W553LNE0Q1,3NG53N1RLZZL4SN93I3VEZHYT148P2,3,4
164,4,object_06,object_02,317.69999999925,8,1,397.40000000037,0.2222222222222222,2,object_10,1,2778,0,1,2,restaurant_1,2,memory-2step-stake-s,654,2011974,0.0-19.0-0.1-0.164,AB8BRFF4ZTZ40,3YO4AH2FQG0L0WLRIP03W553LNE0Q1,3NG53N1RLZZL4SN93I3VEZHYT148P2,8,7
165,2,object_04,object_05,570.5,3,2,221.5,0.2222222222222222,1,object_08,1,2780,0,2,1,forest_2,2,memory-2step-stake-s,655,2019626,0.0-19.0-0.1-0.165,AB8BRFF4ZTZ40,3YO4AH2FQG0L0WLRIP03W553LNE0Q1,3NG53N1RLZZL4SN93I3VEZHYT148P2,4,3
166,4,object_06,object_02,-1.0,-1,-1,-1.0,0.0,-,0,1,2780,0,2,3,restaurant_1,2,memory-2step-stake-s,656,2026139,0.0-19.0-0.1-0.166,AB8BRFF4ZTZ40,3YO4AH2FQG0L0WLRIP03W553LNE0Q1,3NG53N1RLZZL4SN93I3VEZHYT148P2,8,7
167,1,object_03,object_09,285.5,2,1,478.20000000112,0.3333333333333333,2,object_10,5,2795,0,1,3,desert_8,2,memory-2step-stake-s,657,2034131,0.0-19.0-0.1-0.167,AB8BRFF4ZTZ40,3YO4AH2FQG0L0WLRIP03W553LNE0Q1,3NG53N1RLZZL4SN93I3VEZHYT148P2,2,1
168,3,object_07,object_01,419.30000000075,6,1,378.30000000075,0.3333333333333333,2,object_10,1,2798,0,0,3,library_7,2,memory-2step-stake-s,658,2042027,0.0-19.0-0.1-0.168,AB8BRFF4ZTZ40,3YO4AH2FQG0L0WLRIP03W553LNE0Q1,3NG53N1RLZZL4SN93I3VEZHYT148P2,6,5
169,2,object_04,object_05,937.40000000037,4,1,392.89999999851,0.1111111111111111,2,object_10,5,2803,0,2,1,forest_4,2,memory-2step-stake-s,659,2049747,0.0-19.0-0.1-0.169,AB8BRFF4ZTZ40,3YO4AH2FQG0L0WLRIP03W553LNE0Q1,3NG53N1RLZZL4SN93I3VEZHYT148P2,4,3
170,1,object_09,object_03,791.09999999963,2,2,1066.1000000015,0.3333333333333333,2,object_10,5,2818,0,5,3,desert_2,2,memory-2step-stake-s,660,2058328,0.0-19.0-0.1-0.170,AB8BRFF4ZTZ40,3YO4AH2FQG0L0WLRIP03W553LNE0Q1,3NG53N1RLZZL4SN93I3VEZHYT148P2,1,2
171,3,object_07,object_01,596.5,5,2,589.10000000149,0.5555555555555556,1,object_08,5,2843,0,5,2,library_7,2,memory-2step-stake-s,661,2066636,0.0-19.0-0.1-0.171,AB8BRFF4ZTZ40,3YO4AH2FQG0L0WLRIP03W553LNE0Q1,3NG53N1RLZZL4SN93I3VEZHYT148P2,6,5
172,3,object_01,object_07,776.69999999925,6,2,504.90000000037,0.3333333333333333,2,object_10,1,2846,0,5,3,library_6,2,memory-2step-stake-s,662,2074662,0.0-19.0-0.1-0.172,AB8BRFF4ZTZ40,3YO4AH2FQG0L0WLRIP03W553LNE0Q1,3NG53N1RLZZL4SN93I3VEZHYT148P2,5,6
173,3,object_01,object_07,344.69999999925,5,1,766.5,0.5555555555555556,1,object_08,1,2851,0,5,4,library_2,2,memory-2step-stake-s,663,2083172,0.0-19.0-0.1-0.173,AB8BRFF4ZTZ40,3YO4AH2FQG0L0WLRIP03W553LNE0Q1,3NG53N1RLZZL4SN93I3VEZHYT148P2,5,6
174,3,object_01,object_07,471.5,6,2,62.300000000745,0.6666666666666666,2,object_10,1,2857,0,8,6,library_2,2,memory-2step-stake-s,664,2091060,0.0-19.0-0.1-0.174,AB8BRFF4ZTZ40,3YO4AH2FQG0L0WLRIP03W553LNE0Q1,3NG53N1RLZZL4SN93I3VEZHYT148P2,5,6
175,1,object_09,object_03,646.19999999925,2,2,345.09999999963,0.5555555555555556,2,object_10,5,2882,0,8,5,desert_3,2,memory-2step-stake-s,665,2099124,0.0-19.0-0.1-0.175,AB8BRFF4ZTZ40,3YO4AH2FQG0L0WLRIP03W553LNE0Q1,3NG53N1RLZZL4SN93I3VEZHYT148P2,1,2
176,3,object_07,object_01,936.0,6,1,392.09999999963,0.2222222222222222,2,object_10,1,2884,0,6,2,library_7,2,memory-2step-stake-s,666,2106935,0.0-19.0-0.1-0.176,AB8BRFF4ZTZ40,3YO4AH2FQG0L0WLRIP03W553LNE0Q1,3NG53N1RLZZL4SN93I3VEZHYT148P2,6,5
177,2,object_04,object_05,-1.0,-1,-1,-1.0,0.0,-,0,5,2884,0,7,0,forest_1,2,memory-2step-stake-s,667,2113442,0.0-19.0-0.1-0.177,AB8BRFF4ZTZ40,3YO4AH2FQG0L0WLRIP03W553LNE0Q1,3NG53N1RLZZL4SN93I3VEZHYT148P2,4,3
178,1,object_03,object_09,330.09999999963,1,2,370.09999999963,0.7777777777777778,1,object_08,5,2919,0,7,3,desert_1,2,memory-2step-stake-s,668,2121744,0.0-19.0-0.1-0.178,AB8BRFF4ZTZ40,3YO4AH2FQG0L0WLRIP03W553LNE0Q1,3NG53N1RLZZL4SN93I3VEZHYT148P2,2,1
179,2,object_05,object_04,563.09999999963,3,1,371.40000000037,0.7777777777777778,1,object_08,5,2954,0,7,5,forest_1,2,memory-2step-stake-s,669,2130038,0.0-19.0-0.1-0.179,AB8BRFF4ZTZ40,3YO4AH2FQG0L0WLRIP03W553LNE0Q1,3NG53N1RLZZL4SN93I3VEZHYT148P2,3,4
180,1,object_09,object_03,560.79999999888,1,1,333.29999999888,0.7777777777777778,1,object_08,5,2989,0,7,2,desert_1,2,memory-2step-stake-s,670,2138309,0.0-19.0-0.1-0.180,AB8BRFF4ZTZ40,3YO4AH2FQG0L0WLRIP03W553LNE0Q1,3NG53N1RLZZL4SN93I3VEZHYT148P2,1,2
181,2,object_04,object_05,676.69999999925,3,2,350.69999999925,0.7777777777777778,1,object_08,5,3024,0,7,1,forest_1,2,memory-2step-stake-s,671,2146591,0.0-19.0-0.1-0.181,AB8BRFF4ZTZ40,3YO4AH2FQG0L0WLRIP03W553LNE0Q1,3NG53N1RLZZL4SN93I3VEZHYT148P2,4,3
182,4,object_02,object_06,513.59999999963,8,2,380.59999999963,0.2222222222222222,2,object_10,5,3034,0,6,2,restaurant_2,2,memory-2step-stake-s,672,2154389,0.0-19.0-0.1-0.182,AB8BRFF4ZTZ40,3YO4AH2FQG0L0WLRIP03W553LNE0Q1,3NG53N1RLZZL4SN93I3VEZHYT148P2,7,8
183,2,object_05,object_04,496.79999999888,3,1,379.10000000149,1.0,1,object_08,5,3079,0,9,3,forest_2,2,memory-2step-stake-s,673,2164118,0.0-19.0-0.1-0.183,AB8BRFF4ZTZ40,3YO4AH2FQG0L0WLRIP03W553LNE0Q1,3NG53N1RLZZL4SN93I3VEZHYT148P2,3,4
184,3,object_01,object_07,868.59999999963,6,2,348.0,0.3333333333333333,2,object_10,5,3094,0,7,3,library_1,2,memory-2step-stake-s,674,2171981,0.0-19.0-0.1-0.184,AB8BRFF4ZTZ40,3YO4AH2FQG0L0WLRIP03W553LNE0Q1,3NG53N1RLZZL4SN93I3VEZHYT148P2,5,6
185,3,object_07,object_01,413.5,6,1,524.20000000112,0.6666666666666666,2,object_10,5,3124,0,9,6,library_1,2,memory-2step-stake-s,675,2180331,0.0-19.0-0.1-0.185,AB8BRFF4ZTZ40,3YO4AH2FQG0L0WLRIP03W553LNE0Q1,3NG53N1RLZZL4SN93I3VEZHYT148P2,6,5
186,3,object_07,object_01,486.90000000037,6,1,493.30000000075,1.0,2,object_10,1,3133,0,8,9,library_6,2,memory-2step-stake-s,676,2188967,0.0-19.0-0.1-0.186,AB8BRFF4ZTZ40,3YO4AH2FQG0L0WLRIP03W553LNE0Q1,3NG53N1RLZZL4SN93I3VEZHYT148P2,6,5
187,4,object_06,object_02,439.5,7,2,455.09999999963,0.4444444444444444,1,object_08,1,3137,0,4,8,restaurant_2,2,memory-2step-stake-s,677,2197043,0.0-19.0-0.1-0.187,AB8BRFF4ZTZ40,3YO4AH2FQG0L0WLRIP03W553LNE0Q1,3NG53N1RLZZL4SN93I3VEZHYT148P2,8,7
188,4,object_02,object_06,447.69999999925,7,1,334.10000000149,0.5555555555555556,1,object_08,1,3142,0,5,6,restaurant_2,2,memory-2step-stake-s,678,2205120,0.0-19.0-0.1-0.188,AB8BRFF4ZTZ40,3YO4AH2FQG0L0WLRIP03W553LNE0Q1,3NG53N1RLZZL4SN93I3VEZHYT148P2,7,8
189,4,object_06,object_02,434.09999999963,7,2,19.099999999627,0.4444444444444444,1,object_08,1,3146,0,4,8,restaurant_2,2,memory-2step-stake-s,679,2212773,0.0-19.0-0.1-0.189,AB8BRFF4ZTZ40,3YO4AH2FQG0L0WLRIP03W553LNE0Q1,3NG53N1RLZZL4SN93I3VEZHYT148P2,8,7
190,1,object_09,object_03,358.90000000037,2,2,313.40000000037,0.7777777777777778,2,object_10,5,3181,0,7,7,desert_2,2,memory-2step-stake-s,680,2221023,0.0-19.0-0.1-0.190,AB8BRFF4ZTZ40,3YO4AH2FQG0L0WLRIP03W553LNE0Q1,3NG53N1RLZZL4SN93I3VEZHYT148P2,1,2
191,4,object_06,object_02,527.69999999925,8,1,374.90000000037,0.7777777777777778,2,object_10,1,3188,0,8,7,restaurant_1,2,memory-2step-stake-s,681,2229321,0.0-19.0-0.1-0.191,AB8BRFF4ZTZ40,3YO4AH2FQG0L0WLRIP03W553LNE0Q1,3NG53N1RLZZL4SN93I3VEZHYT148P2,8,7
192,4,object_06,object_02,821.69999999925,8,1,589.79999999888,0.8888888888888888,2,object_10,1,3196,0,8,8,restaurant_7,2,memory-2step-stake-s,682,2237946,0.0-19.0-0.1-0.192,AB8BRFF4ZTZ40,3YO4AH2FQG0L0WLRIP03W553LNE0Q1,3NG53N1RLZZL4SN93I3VEZHYT148P2,8,7
193,4,object_06,object_02,999.70000000112,8,1,816.40000000037,0.6666666666666666,2,object_10,1,3202,0,3,6,restaurant_8,2,memory-2step-stake-s,683,2246615,0.0-19.0-0.1-0.193,AB8BRFF4ZTZ40,3YO4AH2FQG0L0WLRIP03W553LNE0Q1,3NG53N1RLZZL4SN93I3VEZHYT148P2,8,7
194,2,object_05,object_04,631.20000000112,4,2,379.20000000112,0.8888888888888888,2,object_10,5,3242,0,2,8,forest_4,2,memory-2step-stake-s,684,2255022,0.0-19.0-0.1-0.194,AB8BRFF4ZTZ40,3YO4AH2FQG0L0WLRIP03W553LNE0Q1,3NG53N1RLZZL4SN93I3VEZHYT148P2,3,4
195,3,object_01,object_07,423.59999999963,6,2,336.69999999925,0.8888888888888888,2,object_10,1,3250,0,2,8,library_2,2,memory-2step-stake-s,685,2263382,0.0-19.0-0.1-0.195,AB8BRFF4ZTZ40,3YO4AH2FQG0L0WLRIP03W553LNE0Q1,3NG53N1RLZZL4SN93I3VEZHYT148P2,5,6
196,2,object_05,object_04,460.59999999963,3,1,364.69999999925,0.7777777777777778,1,object_08,5,3285,0,7,9,forest_2,2,memory-2step-stake-s,686,2271670,0.0-19.0-0.1-0.196,AB8BRFF4ZTZ40,3YO4AH2FQG0L0WLRIP03W553LNE0Q1,3NG53N1RLZZL4SN93I3VEZHYT148P2,3,4
197,1,object_09,object_03,318.80000000075,2,2,-1.0,0.0,2,object_10,1,3285,0,6,7,desert_1,2,memory-2step-stake-s,687,2280187,0.0-19.0-0.1-0.197,AB8BRFF4ZTZ40,3YO4AH2FQG0L0WLRIP03W553LNE0Q1,3NG53N1RLZZL4SN93I3VEZHYT148P2,1,2
198,3,object_07,object_01,339.5,6,1,365.5,0.7777777777777778,2,object_10,1,3292,0,9,7,library_1,2,memory-2step-stake-s,688,2289255,0.0-19.0-0.1-0.198,AB8BRFF4ZTZ40,3YO4AH2FQG0L0WLRIP03W553LNE0Q1,3NG53N1RLZZL4SN93I3VEZHYT148P2,6,5
199,2,object_04,object_05,383.69999999925,3,2,421.40000000037,0.7777777777777778,1,object_08,5,3327,0,7,6,forest_6,2,memory-2step-stake-s,689,2299811,0.0-19.0-0.1-0.199,AB8BRFF4ZTZ40,3YO4AH2FQG0L0WLRIP03W553LNE0Q1,3NG53N1RLZZL4SN93I3VEZHYT148P2,4,3
200,3,object_07,object_01,4.0999999996275,5,2,446.0,0.7777777777777778,1,object_08,1,3334,0,7,9,library_2,2,memory-2step-stake-s,690,2314430,0.0-19.0-0.1-0.200,AB8BRFF4ZTZ40,3YO4AH2FQG0L0WLRIP03W553LNE0Q1,3NG53N1RLZZL4SN93I3VEZHYT148P2,6,5
201,1,object_03,object_09,294.80000000075,1,2,230.09999999963,0.4444444444444444,1,object_08,1,3338,0,4,7,desert_2,2,memory-2step-stake-s,691,2322291,0.0-19.0-0.1-0.201,AB8BRFF4ZTZ40,3YO4AH2FQG0L0WLRIP03W553LNE0Q1,3NG53N1RLZZL4SN93I3VEZHYT148P2,2,1
202,2,object_04,object_05,280.59999999963,4,1,312.0,0.8888888888888888,2,object_10,5,3378,0,6,8,forest_4,2,memory-2step-stake-s,692,2330625,0.0-19.0-0.1-0.202,AB8BRFF4ZTZ40,3YO4AH2FQG0L0WLRIP03W553LNE0Q1,3NG53N1RLZZL4SN93I3VEZHYT148P2,4,3
203,2,object_04,object_05,389.39999999851,3,2,273.90000000037,0.5555555555555556,1,object_08,5,3403,0,5,9,forest_6,2,memory-2step-stake-s,693,2338630,0.0-19.0-0.1-0.203,AB8BRFF4ZTZ40,3YO4AH2FQG0L0WLRIP03W553LNE0Q1,3NG53N1RLZZL4SN93I3VEZHYT148P2,4,3
204,1,object_09,object_03,77.599999999627,1,1,266.29999999888,0.3333333333333333,1,object_08,5,3418,0,3,6,desert_2,2,memory-2step-stake-s,694,2346420,0.0-19.0-0.1-0.204,AB8BRFF4ZTZ40,3YO4AH2FQG0L0WLRIP03W553LNE0Q1,3NG53N1RLZZL4SN93I3VEZHYT148P2,1,2
205,4,object_06,object_02,44.900000000373,7,2,260.0,0.3333333333333333,1,object_08,5,3433,0,3,8,restaurant_2,2,memory-2step-stake-s,695,2354197,0.0-19.0-0.1-0.205,AB8BRFF4ZTZ40,3YO4AH2FQG0L0WLRIP03W553LNE0Q1,3NG53N1RLZZL4SN93I3VEZHYT148P2,8,7
206,2,object_04,object_05,285.09999999963,4,1,239.59999999963,0.7777777777777778,2,object_10,1,3440,0,3,7,forest_1,2,memory-2step-stake-s,696,2362365,0.0-19.0-0.1-0.206,AB8BRFF4ZTZ40,3YO4AH2FQG0L0WLRIP03W553LNE0Q1,3NG53N1RLZZL4SN93I3VEZHYT148P2,4,3
207,1,object_03,object_09,291.69999999925,1,2,250.90000000037,0.8888888888888888,1,object_08,5,3480,0,8,6,desert_1,2,memory-2step-stake-s,697,2370639,0.0-19.0-0.1-0.207,AB8BRFF4ZTZ40,3YO4AH2FQG0L0WLRIP03W553LNE0Q1,3NG53N1RLZZL4SN93I3VEZHYT148P2,2,1
208,1,object_09,object_03,424.5,1,1,52.300000000745,1.0,1,object_08,5,3525,0,9,4,desert_3,2,memory-2step-stake-s,698,2378825,0.0-19.0-0.1-0.208,AB8BRFF4ZTZ40,3YO4AH2FQG0L0WLRIP03W553LNE0Q1,3NG53N1RLZZL4SN93I3VEZHYT148P2,1,2
209,3,object_07,object_01,462.80000000075,6,1,409.90000000037,0.4444444444444444,2,object_10,5,3545,0,8,4,library_1,2,memory-2step-stake-s,699,2386866,0.0-19.0-0.1-0.209,AB8BRFF4ZTZ40,3YO4AH2FQG0L0WLRIP03W553LNE0Q1,3NG53N1RLZZL4SN93I3VEZHYT148P2,6,5
210,1,object_03,object_09,339.5,2,1,390.80000000075,0.7777777777777778,2,object_10,5,3580,0,9,7,desert_8,2,memory-2step-stake-s,700,2395177,0.0-19.0-0.1-0.210,AB8BRFF4ZTZ40,3YO4AH2FQG0L0WLRIP03W553LNE0Q1,3NG53N1RLZZL4SN93I3VEZHYT148P2,2,1
211,2,object_05,object_04,437.39999999851,3,1,534.80000000075,1.0,1,object_08,5,3625,0,9,8,forest_2,2,memory-2step-stake-s,701,2403836,0.0-19.0-0.1-0.211,AB8BRFF4ZTZ40,3YO4AH2FQG0L0WLRIP03W553LNE0Q1,3NG53N1RLZZL4SN93I3VEZHYT148P2,3,4
212,3,object_07,object_01,437.5,6,1,448.09999999963,0.8888888888888888,2,object_10,5,3665,0,8,8,library_1,2,memory-2step-stake-s,702,2412315,0.0-19.0-0.1-0.212,AB8BRFF4ZTZ40,3YO4AH2FQG0L0WLRIP03W553LNE0Q1,3NG53N1RLZZL4SN93I3VEZHYT148P2,6,5
213,4,object_02,object_06,293.40000000037,8,2,335.29999999888,0.6666666666666666,2,object_10,1,3671,0,9,6,restaurant_1,2,memory-2step-stake-s,703,2420473,0.0-19.0-0.1-0.213,AB8BRFF4ZTZ40,3YO4AH2FQG0L0WLRIP03W553LNE0Q1,3NG53N1RLZZL4SN93I3VEZHYT148P2,7,8
214,4,object_02,object_06,514.60000000149,7,1,369.90000000037,1.0,1,object_08,1,3680,0,9,7,restaurant_7,2,memory-2step-stake-s,704,2428968,0.0-19.0-0.1-0.214,AB8BRFF4ZTZ40,3YO4AH2FQG0L0WLRIP03W553LNE0Q1,3NG53N1RLZZL4SN93I3VEZHYT148P2,7,8
215,4,object_02,object_06,259.80000000075,8,2,273.69999999925,1.0,2,object_10,1,3689,0,8,9,restaurant_1,2,memory-2step-stake-s,705,2437379,0.0-19.0-0.1-0.215,AB8BRFF4ZTZ40,3YO4AH2FQG0L0WLRIP03W553LNE0Q1,3NG53N1RLZZL4SN93I3VEZHYT148P2,7,8
216,4,object_06,object_02,1044.5,8,1,382.59999999963,1.0,2,object_10,1,3698,0,9,9,restaurant_7,2,memory-2step-stake-s,706,2445888,0.0-19.0-0.1-0.216,AB8BRFF4ZTZ40,3YO4AH2FQG0L0WLRIP03W553LNE0Q1,3NG53N1RLZZL4SN93I3VEZHYT148P2,8,7
217,2,object_04,object_05,441.5,3,2,279.5,0.7777777777777778,1,object_08,5,3733,0,7,6,forest_6,2,memory-2step-stake-s,707,2454100,0.0-19.0-0.1-0.217,AB8BRFF4ZTZ40,3YO4AH2FQG0L0WLRIP03W553LNE0Q1,3NG53N1RLZZL4SN93I3VEZHYT148P2,4,3
218,4,object_06,object_02,271.40000000037,7,2,406.10000000149,0.4444444444444444,1,object_08,1,3737,0,4,5,restaurant_1,2,memory-2step-stake-s,708,2462124,0.0-19.0-0.1-0.218,AB8BRFF4ZTZ40,3YO4AH2FQG0L0WLRIP03W553LNE0Q1,3NG53N1RLZZL4SN93I3VEZHYT148P2,8,7
219,3,object_01,object_07,267.40000000037,6,2,380.30000000075,0.5555555555555556,2,object_10,1,3742,0,5,5,library_6,2,memory-2step-stake-s,709,2470225,0.0-19.0-0.1-0.219,AB8BRFF4ZTZ40,3YO4AH2FQG0L0WLRIP03W553LNE0Q1,3NG53N1RLZZL4SN93I3VEZHYT148P2,5,6
220,1,object_09,object_03,394.5,2,2,345.90000000037,0.5555555555555556,2,object_10,1,3747,0,8,5,desert_8,2,memory-2step-stake-s,710,2478288,0.0-19.0-0.1-0.220,AB8BRFF4ZTZ40,3YO4AH2FQG0L0WLRIP03W553LNE0Q1,3NG53N1RLZZL4SN93I3VEZHYT148P2,1,2
221,3,object_07,object_01,267.59999999963,6,1,254.10000000149,0.5555555555555556,2,object_10,1,3752,0,8,5,library_2,2,memory-2step-stake-s,711,2486263,0.0-19.0-0.1-0.221,AB8BRFF4ZTZ40,3YO4AH2FQG0L0WLRIP03W553LNE0Q1,3NG53N1RLZZL4SN93I3VEZHYT148P2,6,5
222,2,object_04,object_05,223.09999999963,3,2,284.89999999851,0.8888888888888888,1,object_08,1,3760,0,8,5,forest_4,2,memory-2step-stake-s,712,2494578,0.0-19.0-0.1-0.222,AB8BRFF4ZTZ40,3YO4AH2FQG0L0WLRIP03W553LNE0Q1,3NG53N1RLZZL4SN93I3VEZHYT148P2,4,3
223,1,object_09,object_03,267.09999999963,1,1,275.29999999888,0.7777777777777778,1,object_08,5,3795,0,7,7,desert_3,2,memory-2step-stake-s,713,2502774,0.0-19.0-0.1-0.223,AB8BRFF4ZTZ40,3YO4AH2FQG0L0WLRIP03W553LNE0Q1,3NG53N1RLZZL4SN93I3VEZHYT148P2,1,2
224,1,object_09,object_03,976.59999999963,1,1,239.59999999963,0.7777777777777778,1,object_08,1,3802,0,7,8,desert_8,2,memory-2step-stake-s,714,2510933,0.0-19.0-0.1-0.224,AB8BRFF4ZTZ40,3YO4AH2FQG0L0WLRIP03W553LNE0Q1,3NG53N1RLZZL4SN93I3VEZHYT148P2,1,2
225,1,object_09,object_03,482.5,1,1,211.90000000037,0.6666666666666666,1,object_08,5,3832,0,6,9,desert_3,2,memory-2step-stake-s,715,2518974,0.0-19.0-0.1-0.225,AB8BRFF4ZTZ40,3YO4AH2FQG0L0WLRIP03W553LNE0Q1,3NG53N1RLZZL4SN93I3VEZHYT148P2,1,2
226,1,object_09,object_03,333.09999999963,1,1,418.30000000075,0.8888888888888888,1,object_08,5,3872,0,8,9,desert_3,2,memory-2step-stake-s,716,2530458,0.0-19.0-0.1-0.226,AB8BRFF4ZTZ40,3YO4AH2FQG0L0WLRIP03W553LNE0Q1,3NG53N1RLZZL4SN93I3VEZHYT148P2,1,2
227,3,object_07,object_01,651.70000000112,6,1,336.0,0.7777777777777778,2,object_10,5,3907,0,7,7,library_1,2,memory-2step-stake-s,717,2538720,0.0-19.0-0.1-0.227,AB8BRFF4ZTZ40,3YO4AH2FQG0L0WLRIP03W553LNE0Q1,3NG53N1RLZZL4SN93I3VEZHYT148P2,6,5
228,3,object_07,object_01,378.90000000037,6,1,321.19999999925,0.6666666666666666,2,object_10,5,3937,0,6,6,library_6,2,memory-2step-stake-s,718,2546871,0.0-19.0-0.1-0.228,AB8BRFF4ZTZ40,3YO4AH2FQG0L0WLRIP03W553LNE0Q1,3NG53N1RLZZL4SN93I3VEZHYT148P2,6,5
229,1,object_03,object_09,454.19999999925,1,2,290.40000000037,0.8888888888888888,1,object_08,5,3977,0,8,5,desert_1,2,memory-2step-stake-s,719,2555203,0.0-19.0-0.1-0.229,AB8BRFF4ZTZ40,3YO4AH2FQG0L0WLRIP03W553LNE0Q1,3NG53N1RLZZL4SN93I3VEZHYT148P2,2,1
230,3,object_01,object_07,510.20000000112,6,2,357.09999999963,0.3333333333333333,2,object_10,1,3980,0,8,3,library_7,2,memory-2step-stake-s,720,2563075,0.0-19.0-0.1-0.230,AB8BRFF4ZTZ40,3YO4AH2FQG0L0WLRIP03W553LNE0Q1,3NG53N1RLZZL4SN93I3VEZHYT148P2,5,6
231,4,object_06,object_02,488.69999999925,7,2,28.099999999627,0.8888888888888888,1,object_08,1,3988,0,8,1,restaurant_8,2,memory-2step-stake-s,721,2571125,0.0-19.0-0.1-0.231,AB8BRFF4ZTZ40,3YO4AH2FQG0L0WLRIP03W553LNE0Q1,3NG53N1RLZZL4SN93I3VEZHYT148P2,8,7
232,2,object_04,object_05,634.30000000075,4,1,200.90000000037,0.1111111111111111,2,object_10,5,3993,0,6,1,forest_1,2,memory-2step-stake-s,722,2578639,0.0-19.0-0.1-0.232,AB8BRFF4ZTZ40,3YO4AH2FQG0L0WLRIP03W553LNE0Q1,3NG53N1RLZZL4SN93I3VEZHYT148P2,4,3
233,4,object_06,object_02,662.59999999963,7,2,273.5,0.7777777777777778,1,object_08,1,4000,0,7,3,restaurant_2,2,memory-2step-stake-s,723,2586847,0.0-19.0-0.1-0.233,AB8BRFF4ZTZ40,3YO4AH2FQG0L0WLRIP03W553LNE0Q1,3NG53N1RLZZL4SN93I3VEZHYT148P2,8,7
234,3,object_07,object_01,639.30000000075,5,2,312.30000000075,0.3333333333333333,1,object_08,1,4003,0,3,1,library_6,2,memory-2step-stake-s,724,2594701,0.0-19.0-0.1-0.234,AB8BRFF4ZTZ40,3YO4AH2FQG0L0WLRIP03W553LNE0Q1,3NG53N1RLZZL4SN93I3VEZHYT148P2,6,5
235,2,object_04,object_05,552.09999999963,4,1,303.80000000075,0.1111111111111111,2,object_10,1,4004,0,5,1,forest_6,2,memory-2step-stake-s,725,2602318,0.0-19.0-0.1-0.235,AB8BRFF4ZTZ40,3YO4AH2FQG0L0WLRIP03W553LNE0Q1,3NG53N1RLZZL4SN93I3VEZHYT148P2,4,3
236,3,object_01,object_07,494.29999999888,6,2,343.69999999925,0.0,2,object_10,1,4004,0,5,0,library_7,2,memory-2step-stake-s,726,2609876,0.0-19.0-0.1-0.236,AB8BRFF4ZTZ40,3YO4AH2FQG0L0WLRIP03W553LNE0Q1,3NG53N1RLZZL4SN93I3VEZHYT148P2,5,6
237,2,object_05,object_04,625.30000000075,3,1,193.10000000149,0.5555555555555556,1,object_08,5,4029,0,5,2,forest_6,2,memory-2step-stake-s,727,2617785,0.0-19.0-0.1-0.237,AB8BRFF4ZTZ40,3YO4AH2FQG0L0WLRIP03W553LNE0Q1,3NG53N1RLZZL4SN93I3VEZHYT148P2,3,4
238,4,object_02,object_06,1075.5,7,1,304.80000000075,0.6666666666666666,1,object_08,1,4035,0,6,1,restaurant_2,2,memory-2step-stake-s,728,2625913,0.0-19.0-0.1-0.238,AB8BRFF4ZTZ40,3YO4AH2FQG0L0WLRIP03W553LNE0Q1,3NG53N1RLZZL4SN93I3VEZHYT148P2,7,8
239,1,object_09,object_03,542.89999999851,1,1,264.09999999963,0.4444444444444444,1,object_08,5,4055,0,4,1,desert_3,2,memory-2step-stake-s,729,2633800,0.0-19.0-0.1-0.239,AB8BRFF4ZTZ40,3YO4AH2FQG0L0WLRIP03W553LNE0Q1,3NG53N1RLZZL4SN93I3VEZHYT148P2,1,2
240,1,object_09,object_03,498.69999999925,1,1,252.59999999963,0.5555555555555556,1,object_08,5,4080,0,5,1,desert_1,2,memory-2step-stake-s,730,2641774,0.0-19.0-0.1-0.240,AB8BRFF4ZTZ40,3YO4AH2FQG0L0WLRIP03W553LNE0Q1,3NG53N1RLZZL4SN93I3VEZHYT148P2,1,2
241,3,object_01,object_07,548.0,5,1,400.0,0.6666666666666666,1,object_08,1,4086,0,6,3,library_2,2,memory-2step-stake-s,731,2649997,0.0-19.0-0.1-0.241,AB8BRFF4ZTZ40,3YO4AH2FQG0L0WLRIP03W553LNE0Q1,3NG53N1RLZZL4SN93I3VEZHYT148P2,5,6
242,3,object_01,object_07,566.90000000037,5,1,266.80000000075,0.7777777777777778,1,object_08,1,4093,0,7,2,library_1,2,memory-2step-stake-s,732,2658195,0.0-19.0-0.1-0.242,AB8BRFF4ZTZ40,3YO4AH2FQG0L0WLRIP03W553LNE0Q1,3NG53N1RLZZL4SN93I3VEZHYT148P2,5,6
243,3,object_07,object_01,413.29999999888,6,1,375.0,0.2222222222222222,2,object_10,1,4095,0,5,2,library_2,2,memory-2step-stake-s,733,2665988,0.0-19.0-0.1-0.243,AB8BRFF4ZTZ40,3YO4AH2FQG0L0WLRIP03W553LNE0Q1,3NG53N1RLZZL4SN93I3VEZHYT148P2,6,5
244,1,object_09,object_03,395.70000000112,1,1,357.59999999963,0.3333333333333333,1,object_08,5,4110,0,3,1,desert_2,2,memory-2step-stake-s,734,2673870,0.0-19.0-0.1-0.244,AB8BRFF4ZTZ40,3YO4AH2FQG0L0WLRIP03W553LNE0Q1,3NG53N1RLZZL4SN93I3VEZHYT148P2,1,2
245,2,object_05,object_04,413.40000000037,3,1,348.59999999963,0.7777777777777778,1,object_08,5,4145,0,7,3,forest_2,2,memory-2step-stake-s,735,2682141,0.0-19.0-0.1-0.245,AB8BRFF4ZTZ40,3YO4AH2FQG0L0WLRIP03W553LNE0Q1,3NG53N1RLZZL4SN93I3VEZHYT148P2,3,4
246,3,object_07,object_01,395.39999999851,6,1,239.60000000149,0.4444444444444444,2,object_10,5,4165,0,8,4,library_6,2,memory-2step-stake-s,736,2690012,0.0-19.0-0.1-0.246,AB8BRFF4ZTZ40,3YO4AH2FQG0L0WLRIP03W553LNE0Q1,3NG53N1RLZZL4SN93I3VEZHYT148P2,6,5
247,2,object_04,object_05,566.39999999851,3,2,238.69999999925,0.7777777777777778,1,object_08,5,4200,0,7,7,forest_6,2,memory-2step-stake-s,737,2698179,0.0-19.0-0.1-0.247,AB8BRFF4ZTZ40,3YO4AH2FQG0L0WLRIP03W553LNE0Q1,3NG53N1RLZZL4SN93I3VEZHYT148P2,4,3
248,1,object_03,object_09,376.59999999963,1,2,686.0,0.3333333333333333,1,object_08,5,4215,0,3,7,desert_2,2,memory-2step-stake-s,738,2706398,0.0-19.0-0.1-0.248,AB8BRFF4ZTZ40,3YO4AH2FQG0L0WLRIP03W553LNE0Q1,3NG53N1RLZZL4SN93I3VEZHYT148P2,2,1
249,3,object_01,object_07,409.69999999925,6,2,1311.4000000004,0.7777777777777778,2,object_10,1,4222,0,3,7,library_2,2,memory-2step-stake-s,739,2715631,0.0-19.0-0.1-0.249,AB8BRFF4ZTZ40,3YO4AH2FQG0L0WLRIP03W553LNE0Q1,3NG53N1RLZZL4SN93I3VEZHYT148P2,5,6
250,2,object_05,object_04,486.0,4,2,950.0,0.5555555555555556,2,object_10,5,4247,0,1,5,forest_2,2,memory-2step-stake-s,740,2724303,0.0-19.0-0.1-0.250,AB8BRFF4ZTZ40,3YO4AH2FQG0L0WLRIP03W553LNE0Q1,3NG53N1RLZZL4SN93I3VEZHYT148P2,3,4
251,4,object_02,object_06,510.69999999925,8,2,358.29999999888,0.6666666666666666,2,object_10,5,4277,0,2,6,restaurant_2,2,memory-2step-stake-s,741,2732499,0.0-19.0-0.1-0.251,AB8BRFF4ZTZ40,3YO4AH2FQG0L0WLRIP03W553LNE0Q1,3NG53N1RLZZL4SN93I3VEZHYT148P2,7,8
252,3,object_07,object_01,-1.0,-1,-1,-1.0,0.0,-,0,1,4277,0,5,4,library_2,2,memory-2step-stake-s,742,2739008,0.0-19.0-0.1-0.252,AB8BRFF4ZTZ40,3YO4AH2FQG0L0WLRIP03W553LNE0Q1,3NG53N1RLZZL4SN93I3VEZHYT148P2,6,5
253,1,object_03,object_09,594.19999999925,1,2,334.5,0.8888888888888888,1,object_08,5,4317,0,8,2,desert_1,2,memory-2step-stake-s,743,2747371,0.0-19.0-0.1-0.253,AB8BRFF4ZTZ40,3YO4AH2FQG0L0WLRIP03W553LNE0Q1,3NG53N1RLZZL4SN93I3VEZHYT148P2,2,1
254,3,object_07,object_01,-1.0,-1,-1,-1.0,0.0,-,0,1,4317,0,8,2,library_7,2,memory-2step-stake-s,744,2753880,0.0-19.0-0.1-0.254,AB8BRFF4ZTZ40,3YO4AH2FQG0L0WLRIP03W553LNE0Q1,3NG53N1RLZZL4SN93I3VEZHYT148P2,6,5
255,1,object_03,object_09,354.90000000037,2,1,682.80000000075,0.2222222222222222,2,object_10,5,4327,0,8,2,desert_8,2,memory-2step-stake-s,745,2761985,0.0-19.0-0.1-0.255,AB8BRFF4ZTZ40,3YO4AH2FQG0L0WLRIP03W553LNE0Q1,3NG53N1RLZZL4SN93I3VEZHYT148P2,2,1
