,state1,stim_left,stim_right,rt_1,choice1,response1,rt_2,points,state2,stim_state2,stake,score,practice,rews1,rews2,background,high_arm,trial_type,trial_index,time_elapsed,internal_node_id,subid,hitid,assignmentid,stim_left_num,stim_right_num
0,2,object_07,object_10,1030.0,4,1,1025.0,0.7777777777777778,2,object_02,5,35,0,5,7,forest_1,2,memory-2step-stake-s,493,900373,0.0-19.0-0.0-0.0,A25R6M1SRCDIYF,31KPKEKW5DTYWQJ2Z73D1GA4ZNDB00,37WLF8U1WT6XPN75XB1PY4Z8TX5K6Q,4,3
1,4,object_08,object_05,900.0,7,2,798.0,0.8888888888888888,1,object_01,5,75,0,8,8,restaurant_5,2,memory-2step-stake-s,494,909452,0.0-19.0-0.0-0.1,A25R6M1SRCDIYF,31KPKEKW5DTYWQJ2Z73D1GA4ZNDB00,37WLF8U1WT6XPN75XB1PY4Z8TX5K6Q,8,7
2,4,object_08,object_05,868.0,8,1,803.0,0.8888888888888888,2,object_02,1,83,0,4,8,restaurant_3,2,memory-2step-stake-s,495,918542,0.0-19.0-0.0-0.2,A25R6M1SRCDIYF,31KPKEKW5DTYWQJ2Z73D1GA4ZNDB00,37WLF8U1WT6XPN75XB1PY4Z8TX5K6Q,8,7
3,1,object_03,object_06,1066.0,2,2,427.0,0.8888888888888888,2,object_02,5,123,0,6,8,desert_5,2,memory-2step-stake-s,496,927232,0.0-19.0-0.0-0.3,A25R6M1SRCDIYF,31KPKEKW5DTYWQJ2Z73D1GA4ZNDB00,37WLF8U1WT6XPN75XB1PY4Z8TX5K6Q,1,2
4,2,object_07,object_10,944.0,3,2,911.0,0.6666666666666666,1,object_01,5,153,0,6,8,forest_5,2,memory-2step-stake-s,497,936203,0.0-19.0-0.0-0.4,A25R6M1SRCDIYF,31KPKEKW5DTYWQJ2Z73D1GA4ZNDB00,37WLF8U1WT6XPN75XB1PY4Z8TX5K6Q,4,3
5,4,object_05,object_08,734.0,7,1,672.0,1.0,1,object_01,1,162,0,9,9,restaurant_5,2,memory-2step-stake-s,498,945229,0.0-19.0-0.0-0.5,A25R6M1SRCDIYF,31KPKEKW5DTYWQJ2Z73D1GA4ZNDB00,37WLF8U1WT6XPN75XB1PY4Z8TX5K6Q,7,8
6,1,object_06,object_03,793.0,1,2,658.0,0.7777777777777778,1,object_01,5,197,0,7,5,desert_4,2,memory-2step-stake-s,499,954033,0.0-19.0-0.0-0.6,A25R6M1SRCDIYF,31KPKEKW5DTYWQJ2Z73D1GA4ZNDB00,37WLF8U1WT6XPN75XB1PY4Z8TX5K6Q,2,1
7,3,object_04,object_09,905.0,5,1,692.0,0.7777777777777778,1,object_01,1,204,0,7,0,library_2,2,memory-2step-stake-s,500,962843,0.0-19.0-0.0-0.7,A25R6M1SRCDIYF,31KPKEKW5DTYWQJ2Z73D1GA4ZNDB00,37WLF8U1WT6XPN75XB1PY4Z8TX5K6Q,5,6
8,1,object_03,object_06,1246.0,1,1,557.0,0.8888888888888888,1,object_01,1,212,0,8,1,desert_3,2,memory-2step-stake-s,501,971673,0.0-19.0-0.0-0.8,A25R6M1SRCDIYF,31KPKEKW5DTYWQJ2Z73D1GA4ZNDB00,37WLF8U1WT6XPN75XB1PY4Z8TX5K6Q,1,2
9,1,object_06,object_03,922.0,1,2,481.0,0.7777777777777778,1,object_01,5,247,0,7,1,desert_7,2,memory-2step-stake-s,502,980323,0.0-19.0-0.0-0.9,A25R6M1SRCDIYF,31KPKEKW5DTYWQJ2Z73D1GA4ZNDB00,37WLF8U1WT6XPN75XB1PY4Z8TX5K6Q,2,1
10,4,object_08,object_05,1358.0,8,1,495.0,0.1111111111111111,2,object_02,1,248,0,5,1,restaurant_7,2,memory-2step-stake-s,503,988273,0.0-19.0-0.0-0.10,A25R6M1SRCDIYF,31KPKEKW5DTYWQJ2Z73D1GA4ZNDB00,37WLF8U1WT6XPN75XB1PY4Z8TX5K6Q,8,7
11,3,object_09,object_04,871.0,5,2,517.0,0.4444444444444444,1,object_01,1,252,0,4,1,library_7,2,memory-2step-stake-s,504,996583,0.0-19.0-0.0-0.11,A25R6M1SRCDIYF,31KPKEKW5DTYWQJ2Z73D1GA4ZNDB00,37WLF8U1WT6XPN75XB1PY4Z8TX5K6Q,6,5
12,4,object_05,object_08,1477.0,7,1,519.0,0.4444444444444444,1,object_01,1,256,0,4,2,restaurant_8,2,memory-2step-stake-s,505,1004864,0.0-19.0-0.0-0.12,A25R6M1SRCDIYF,31KPKEKW5DTYWQJ2Z73D1GA4ZNDB00,37WLF8U1WT6XPN75XB1PY4Z8TX5K6Q,7,8
13,2,object_07,object_10,1106.0,3,2,370.0,0.4444444444444444,1,object_01,5,276,0,4,3,forest_5,2,memory-2step-stake-s,506,1012993,0.0-19.0-0.0-0.13,A25R6M1SRCDIYF,31KPKEKW5DTYWQJ2Z73D1GA4ZNDB00,37WLF8U1WT6XPN75XB1PY4Z8TX5K6Q,4,3
14,2,object_07,object_10,825.0,4,1,386.0,0.3333333333333333,2,object_02,5,291,0,4,3,forest_1,2,memory-2step-stake-s,507,1021043,0.0-19.0-0.0-0.14,A25R6M1SRCDIYF,31KPKEKW5DTYWQJ2Z73D1GA4ZNDB00,37WLF8U1WT6XPN75XB1PY4Z8TX5K6Q,4,3
15,2,object_07,object_10,1181.0,4,1,406.0,0.4444444444444444,2,object_02,5,311,0,7,4,forest_2,2,memory-2step-stake-s,508,1029233,0.0-19.0-0.0-0.15,A25R6M1SRCDIYF,31KPKEKW5DTYWQJ2Z73D1GA4ZNDB00,37WLF8U1WT6XPN75XB1PY4Z8TX5K6Q,4,3
16,4,object_08,object_05,1497.0,8,1,419.0,0.3333333333333333,2,object_02,1,314,0,5,3,restaurant_5,2,memory-2step-stake-s,509,1037323,0.0-19.0-0.0-0.16,A25R6M1SRCDIYF,31KPKEKW5DTYWQJ2Z73D1GA4ZNDB00,37WLF8U1WT6XPN75XB1PY4Z8TX5K6Q,8,7
17,1,object_03,object_06,1222.0,1,1,401.0,0.3333333333333333,1,object_01,5,329,0,3,1,desert_7,2,memory-2step-stake-s,510,1045393,0.0-19.0-0.0-0.17,A25R6M1SRCDIYF,31KPKEKW5DTYWQJ2Z73D1GA4ZNDB00,37WLF8U1WT6XPN75XB1PY4Z8TX5K6Q,1,2
18,4,object_08,object_05,1347.0,7,2,384.0,0.2222222222222222,1,object_01,1,331,0,2,1,restaurant_8,2,memory-2step-stake-s,511,1053324,0.0-19.0-0.0-0.18,A25R6M1SRCDIYF,31KPKEKW5DTYWQJ2Z73D1GA4ZNDB00,37WLF8U1WT6XPN75XB1PY4Z8TX5K6Q,8,7
19,3,object_04,object_09,1254.0,6,2,447.0,0.3333333333333333,2,object_02,1,334,0,4,3,library_7,2,memory-2step-stake-s,512,1061443,0.0-19.0-0.0-0.19,A25R6M1SRCDIYF,31KPKEKW5DTYWQJ2Z73D1GA4ZNDB00,37WLF8U1WT6XPN75XB1PY4Z8TX5K6Q,5,6
20,4,object_08,object_05,997.0,7,2,348.0,0.7777777777777778,1,object_01,1,341,0,7,2,restaurant_5,2,memory-2step-stake-s,513,1069904,0.0-19.0-0.0-0.20,A25R6M1SRCDIYF,31KPKEKW5DTYWQJ2Z73D1GA4ZNDB00,37WLF8U1WT6XPN75XB1PY4Z8TX5K6Q,8,7
21,3,object_04,object_09,1170.0,6,2,313.0,0.2222222222222222,2,object_02,1,343,0,9,2,library_2,2,memory-2step-stake-s,514,1077763,0.0-19.0-0.0-0.21,A25R6M1SRCDIYF,31KPKEKW5DTYWQJ2Z73D1GA4ZNDB00,37WLF8U1WT6XPN75XB1PY4Z8TX5K6Q,5,6
22,4,object_05,object_08,1357.0,8,2,596.0,0.0,2,object_02,1,343,0,5,0,restaurant_7,2,memory-2step-stake-s,515,1085653,0.0-19.0-0.0-0.22,A25R6M1SRCDIYF,31KPKEKW5DTYWQJ2Z73D1GA4ZNDB00,37WLF8U1WT6XPN75XB1PY4Z8TX5K6Q,7,8
23,2,object_10,object_07,1172.0,3,1,453.0,0.7777777777777778,1,object_01,5,378,0,7,2,forest_3,2,memory-2step-stake-s,516,1094198,0.0-19.0-0.0-0.23,A25R6M1SRCDIYF,31KPKEKW5DTYWQJ2Z73D1GA4ZNDB00,37WLF8U1WT6XPN75XB1PY4Z8TX5K6Q,3,4
24,1,object_06,object_03,714.0,2,1,381.0,0.0,2,object_02,5,378,0,7,0,desert_4,2,memory-2step-stake-s,517,1101893,0.0-19.0-0.0-0.24,A25R6M1SRCDIYF,31KPKEKW5DTYWQJ2Z73D1GA4ZNDB00,37WLF8U1WT6XPN75XB1PY4Z8TX5K6Q,2,1
25,2,object_07,object_10,1118.0,3,2,359.0,0.8888888888888888,1,object_01,5,418,0,8,0,forest_5,2,memory-2step-stake-s,518,1110493,0.0-19.0-0.0-0.25,A25R6M1SRCDIYF,31KPKEKW5DTYWQJ2Z73D1GA4ZNDB00,37WLF8U1WT6XPN75XB1PY4Z8TX5K6Q,4,3
26,3,object_09,object_04,1181.0,6,1,372.0,0.2222222222222222,2,object_02,1,420,0,8,2,library_4,2,memory-2step-stake-s,519,1118403,0.0-19.0-0.0-0.26,A25R6M1SRCDIYF,31KPKEKW5DTYWQJ2Z73D1GA4ZNDB00,37WLF8U1WT6XPN75XB1PY4Z8TX5K6Q,6,5
27,4,object_08,object_05,1479.0,7,2,458.0,0.7777777777777778,1,object_01,5,455,0,7,2,restaurant_8,2,memory-2step-stake-s,520,1126953,0.0-19.0-0.0-0.27,A25R6M1SRCDIYF,31KPKEKW5DTYWQJ2Z73D1GA4ZNDB00,37WLF8U1WT6XPN75XB1PY4Z8TX5K6Q,8,7
28,3,object_09,object_04,1080.0,5,2,263.0,0.8888888888888888,1,object_01,1,463,0,8,1,library_6,2,memory-2step-stake-s,521,1135464,0.0-19.0-0.0-0.28,A25R6M1SRCDIYF,31KPKEKW5DTYWQJ2Z73D1GA4ZNDB00,37WLF8U1WT6XPN75XB1PY4Z8TX5K6Q,6,5
29,4,object_05,object_08,1033.0,8,2,316.0,0.1111111111111111,2,object_02,1,464,0,7,1,restaurant_3,2,memory-2step-stake-s,522,1143213,0.0-19.0-0.0-0.29,A25R6M1SRCDIYF,31KPKEKW5DTYWQJ2Z73D1GA4ZNDB00,37WLF8U1WT6XPN75XB1PY4Z8TX5K6Q,7,8
30,2,object_07,object_10,818.0,4,1,185.0,0.3333333333333333,2,object_02,5,479,0,8,3,forest_5,2,memory-2step-stake-s,523,1151043,0.0-19.0-0.0-0.30,A25R6M1SRCDIYF,31KPKEKW5DTYWQJ2Z73D1GA4ZNDB00,37WLF8U1WT6XPN75XB1PY4Z8TX5K6Q,4,3
31,3,object_09,object_04,879.0,5,2,275.0,0.8888888888888888,1,object_01,5,519,0,8,0,library_7,2,memory-2step-stake-s,524,1159533,0.0-19.0-0.0-0.31,A25R6M1SRCDIYF,31KPKEKW5DTYWQJ2Z73D1GA4ZNDB00,37WLF8U1WT6XPN75XB1PY4Z8TX5K6Q,6,5
32,3,object_04,object_09,767.0,5,1,266.0,0.8888888888888888,1,object_01,1,527,0,8,2,library_4,2,memory-2step-stake-s,525,1168042,0.0-19.0-0.0-0.32,A25R6M1SRCDIYF,31KPKEKW5DTYWQJ2Z73D1GA4ZNDB00,37WLF8U1WT6XPN75XB1PY4Z8TX5K6Q,5,6
33,2,object_10,object_07,902.0,3,1,399.0,0.7777777777777778,1,object_01,5,562,0,7,0,forest_5,2,memory-2step-stake-s,526,1176563,0.0-19.0-0.0-0.33,A25R6M1SRCDIYF,31KPKEKW5DTYWQJ2Z73D1GA4ZNDB00,37WLF8U1WT6XPN75XB1PY4Z8TX5K6Q,3,4
34,3,object_09,object_04,893.0,5,2,277.0,0.7777777777777778,1,object_01,1,569,0,7,0,library_2,2,memory-2step-stake-s,527,1184993,0.0-19.0-0.0-0.34,A25R6M1SRCDIYF,31KPKEKW5DTYWQJ2Z73D1GA4ZNDB00,37WLF8U1WT6XPN75XB1PY4Z8TX5K6Q,6,5
35,2,object_10,object_07,1509.0,3,1,-1.0,0.0,1,object_01,5,569,0,7,2,forest_2,2,memory-2step-stake-s,528,1193584,0.0-19.0-0.0-0.35,A25R6M1SRCDIYF,31KPKEKW5DTYWQJ2Z73D1GA4ZNDB00,37WLF8U1WT6XPN75XB1PY4Z8TX5K6Q,3,4
36,2,object_10,object_07,921.0,3,1,786.0,0.8888888888888888,1,object_01,1,577,0,8,1,forest_5,2,memory-2step-stake-s,529,1202604,0.0-19.0-0.0-0.36,A25R6M1SRCDIYF,31KPKEKW5DTYWQJ2Z73D1GA4ZNDB00,37WLF8U1WT6XPN75XB1PY4Z8TX5K6Q,3,4
37,1,object_06,object_03,736.0,1,2,304.0,0.7777777777777778,1,object_01,1,584,0,7,0,desert_4,2,memory-2step-stake-s,530,1211022,0.0-19.0-0.0-0.37,A25R6M1SRCDIYF,31KPKEKW5DTYWQJ2Z73D1GA4ZNDB00,37WLF8U1WT6XPN75XB1PY4Z8TX5K6Q,2,1
38,3,object_04,object_09,-1.0,-1,-1,-1.0,0.0,-,0,1,584,0,6,2,library_6,2,memory-2step-stake-s,531,1217613,0.0-19.0-0.0-0.38,A25R6M1SRCDIYF,31KPKEKW5DTYWQJ2Z73D1GA4ZNDB00,37WLF8U1WT6XPN75XB1PY4Z8TX5K6Q,5,6
39,1,object_03,object_06,1203.0,2,2,354.0,0.1111111111111111,2,object_02,5,589,0,4,1,desert_7,2,memory-2step-stake-s,532,1225383,0.0-19.0-0.0-0.39,A25R6M1SRCDIYF,31KPKEKW5DTYWQJ2Z73D1GA4ZNDB00,37WLF8U1WT6XPN75XB1PY4Z8TX5K6Q,1,2
40,4,object_05,object_08,785.0,8,2,291.0,0.0,2,object_02,5,589,0,5,0,restaurant_8,2,memory-2step-stake-s,533,1232974,0.0-19.0-0.0-0.40,A25R6M1SRCDIYF,31KPKEKW5DTYWQJ2Z73D1GA4ZNDB00,37WLF8U1WT6XPN75XB1PY4Z8TX5K6Q,7,8
41,4,object_08,object_05,1052.0,8,1,342.0,0.0,2,object_02,1,589,0,6,0,restaurant_7,2,memory-2step-stake-s,534,1240643,0.0-19.0-0.0-0.41,A25R6M1SRCDIYF,31KPKEKW5DTYWQJ2Z73D1GA4ZNDB00,37WLF8U1WT6XPN75XB1PY4Z8TX5K6Q,8,7
42,2,object_07,object_10,1125.0,3,2,246.0,1.0,1,object_01,5,634,0,9,1,forest_2,2,memory-2step-stake-s,535,1249241,0.0-19.0-0.0-0.42,A25R6M1SRCDIYF,31KPKEKW5DTYWQJ2Z73D1GA4ZNDB00,37WLF8U1WT6XPN75XB1PY4Z8TX5K6Q,4,3
43,3,object_09,object_04,568.0,5,2,264.0,0.8888888888888888,1,object_01,1,642,0,8,3,library_4,2,memory-2step-stake-s,536,1257703,0.0-19.0-0.0-0.43,A25R6M1SRCDIYF,31KPKEKW5DTYWQJ2Z73D1GA4ZNDB00,37WLF8U1WT6XPN75XB1PY4Z8TX5K6Q,6,5
44,4,object_05,object_08,786.0,7,1,397.0,0.6666666666666666,1,object_01,5,672,0,6,4,restaurant_7,2,memory-2step-stake-s,537,1266143,0.0-19.0-0.0-0.44,A25R6M1SRCDIYF,31KPKEKW5DTYWQJ2Z73D1GA4ZNDB00,37WLF8U1WT6XPN75XB1PY4Z8TX5K6Q,7,8
45,1,object_03,object_06,930.0,1,1,307.0,0.8888888888888888,1,object_01,5,712,0,8,9,desert_7,2,memory-2step-stake-s,538,1274724,0.0-19.0-0.0-0.45,A25R6M1SRCDIYF,31KPKEKW5DTYWQJ2Z73D1GA4ZNDB00,37WLF8U1WT6XPN75XB1PY4Z8TX5K6Q,1,2
46,2,object_07,object_10,1352.0,3,2,376.0,0.6666666666666666,1,object_01,5,742,0,6,9,forest_2,2,memory-2step-stake-s,539,1283083,0.0-19.0-0.0-0.46,A25R6M1SRCDIYF,31KPKEKW5DTYWQJ2Z73D1GA4ZNDB00,37WLF8U1WT6XPN75XB1PY4Z8TX5K6Q,4,3
47,2,object_10,object_07,982.0,3,1,262.0,0.8888888888888888,1,object_01,5,782,0,8,8,forest_2,2,memory-2step-stake-s,540,1291613,0.0-19.0-0.0-0.47,A25R6M1SRCDIYF,31KPKEKW5DTYWQJ2Z73D1GA4ZNDB00,37WLF8U1WT6XPN75XB1PY4Z8TX5K6Q,3,4
48,2,object_10,object_07,548.0,3,1,622.0,1.0,1,object_01,5,827,0,9,8,forest_2,2,memory-2step-stake-s,541,1300603,0.0-19.0-0.0-0.48,A25R6M1SRCDIYF,31KPKEKW5DTYWQJ2Z73D1GA4ZNDB00,37WLF8U1WT6XPN75XB1PY4Z8TX5K6Q,3,4
49,3,object_09,object_04,670.0,5,2,321.0,0.6666666666666666,1,object_01,5,857,0,6,8,library_4,2,memory-2step-stake-s,542,1308913,0.0-19.0-0.0-0.49,A25R6M1SRCDIYF,31KPKEKW5DTYWQJ2Z73D1GA4ZNDB00,37WLF8U1WT6XPN75XB1PY4Z8TX5K6Q,6,5
50,4,object_05,object_08,458.0,7,1,155.0,0.7777777777777778,1,object_01,1,864,0,7,9,restaurant_8,2,memory-2step-stake-s,543,1317173,0.0-19.0-0.0-0.50,A25R6M1SRCDIYF,31KPKEKW5DTYWQJ2Z73D1GA4ZNDB00,37WLF8U1WT6XPN75XB1PY4Z8TX5K6Q,7,8
51,2,object_10,object_07,486.0,3,1,316.0,0.4444444444444444,1,object_01,5,884,0,4,8,forest_2,2,memory-2step-stake-s,544,1325303,0.0-19.0-0.0-0.51,A25R6M1SRCDIYF,31KPKEKW5DTYWQJ2Z73D1GA4ZNDB00,37WLF8U1WT6XPN75XB1PY4Z8TX5K6Q,3,4
52,4,object_05,object_08,843.0,7,1,475.0,0.4444444444444444,1,object_01,1,888,0,4,9,restaurant_7,2,memory-2step-stake-s,545,1333572,0.0-19.0-0.0-0.52,A25R6M1SRCDIYF,31KPKEKW5DTYWQJ2Z73D1GA4ZNDB00,37WLF8U1WT6XPN75XB1PY4Z8TX5K6Q,7,8
53,3,object_09,object_04,756.0,5,2,-1.0,0.0,1,object_01,1,888,0,2,9,library_7,2,memory-2step-stake-s,546,1342193,0.0-19.0-0.0-0.53,A25R6M1SRCDIYF,31KPKEKW5DTYWQJ2Z73D1GA4ZNDB00,37WLF8U1WT6XPN75XB1PY4Z8TX5K6Q,6,5
54,1,object_06,object_03,721.0,1,2,384.0,0.0,1,object_01,1,888,0,0,9,desert_5,2,memory-2step-stake-s,547,1349883,0.0-19.0-0.0-0.54,A25R6M1SRCDIYF,31KPKEKW5DTYWQJ2Z73D1GA4ZNDB00,37WLF8U1WT6XPN75XB1PY4Z8TX5K6Q,2,1
55,2,object_10,object_07,974.0,4,2,429.0,0.8888888888888888,2,object_02,5,928,0,3,8,forest_2,2,memory-2step-stake-s,548,1358513,0.0-19.0-0.0-0.55,A25R6M1SRCDIYF,31KPKEKW5DTYWQJ2Z73D1GA4ZNDB00,37WLF8U1WT6XPN75XB1PY4Z8TX5K6Q,3,4
56,2,object_10,object_07,736.0,4,2,385.0,0.8888888888888888,2,object_02,5,968,0,0,8,forest_1,2,memory-2step-stake-s,549,1367163,0.0-19.0-0.0-0.56,A25R6M1SRCDIYF,31KPKEKW5DTYWQJ2Z73D1GA4ZNDB00,37WLF8U1WT6XPN75XB1PY4Z8TX5K6Q,3,4
57,2,object_07,object_10,-1.0,-1,-1,-1.0,0.0,-,0,1,968,0,1,9,forest_3,2,memory-2step-stake-s,550,1373783,0.0-19.0-0.0-0.57,A25R6M1SRCDIYF,31KPKEKW5DTYWQJ2Z73D1GA4ZNDB00,37WLF8U1WT6XPN75XB1PY4Z8TX5K6Q,4,3
58,3,object_09,object_04,811.0,6,1,425.0,0.8888888888888888,2,object_02,1,976,0,1,8,library_4,2,memory-2step-stake-s,551,1382403,0.0-19.0-0.0-0.58,A25R6M1SRCDIYF,31KPKEKW5DTYWQJ2Z73D1GA4ZNDB00,37WLF8U1WT6XPN75XB1PY4Z8TX5K6Q,6,5
59,3,object_09,object_04,822.0,6,1,1478.0,0.8888888888888888,2,object_02,1,984,0,1,8,library_4,2,memory-2step-stake-s,552,1392033,0.0-19.0-0.0-0.59,A25R6M1SRCDIYF,31KPKEKW5DTYWQJ2Z73D1GA4ZNDB00,37WLF8U1WT6XPN75XB1PY4Z8TX5K6Q,6,5
60,4,object_05,object_08,832.0,7,1,290.0,0.4444444444444444,1,object_01,1,988,0,4,8,restaurant_3,2,memory-2step-stake-s,553,1400053,0.0-19.0-0.0-0.60,A25R6M1SRCDIYF,31KPKEKW5DTYWQJ2Z73D1GA4ZNDB00,37WLF8U1WT6XPN75XB1PY4Z8TX5K6Q,7,8
61,4,object_05,object_08,718.0,8,2,427.0,0.8888888888888888,2,object_02,1,996,0,5,8,restaurant_5,2,memory-2step-stake-s,554,1408683,0.0-19.0-0.0-0.61,A25R6M1SRCDIYF,31KPKEKW5DTYWQJ2Z73D1GA4ZNDB00,37WLF8U1WT6XPN75XB1PY4Z8TX5K6Q,7,8
62,4,object_08,object_05,624.0,8,1,350.0,1.0,2,object_02,1,1005,0,5,9,restaurant_3,2,memory-2step-stake-s,555,1417372,0.0-19.0-0.0-0.62,A25R6M1SRCDIYF,31KPKEKW5DTYWQJ2Z73D1GA4ZNDB00,37WLF8U1WT6XPN75XB1PY4Z8TX5K6Q,8,7
63,2,object_07,object_10,807.0,4,1,309.0,1.0,2,object_02,1,1014,0,4,9,forest_5,2,memory-2step-stake-s,556,1426053,0.0-19.0-0.0-0.63,A25R6M1SRCDIYF,31KPKEKW5DTYWQJ2Z73D1GA4ZNDB00,37WLF8U1WT6XPN75XB1PY4Z8TX5K6Q,4,3
64,1,object_06,object_03,773.0,2,1,323.0,0.7777777777777778,2,object_02,1,1021,0,3,7,desert_3,2,memory-2step-stake-s,557,1434522,0.0-19.0-0.0-0.64,A25R6M1SRCDIYF,31KPKEKW5DTYWQJ2Z73D1GA4ZNDB00,37WLF8U1WT6XPN75XB1PY4Z8TX5K6Q,2,1
65,4,object_05,object_08,471.0,8,2,366.0,0.5555555555555556,2,object_02,1,1026,0,3,5,restaurant_7,2,memory-2step-stake-s,558,1442773,0.0-19.0-0.0-0.65,A25R6M1SRCDIYF,31KPKEKW5DTYWQJ2Z73D1GA4ZNDB00,37WLF8U1WT6XPN75XB1PY4Z8TX5K6Q,7,8
66,2,object_10,object_07,1012.0,3,1,322.0,0.3333333333333333,1,object_01,5,1041,0,3,6,forest_3,2,memory-2step-stake-s,559,1450743,0.0-19.0-0.0-0.66,A25R6M1SRCDIYF,31KPKEKW5DTYWQJ2Z73D1GA4ZNDB00,37WLF8U1WT6XPN75XB1PY4Z8TX5K6Q,3,4
67,4,object_05,object_08,789.0,7,1,168.0,0.0,1,object_01,1,1041,0,0,6,restaurant_3,2,memory-2step-stake-s,560,1458193,0.0-19.0-0.0-0.67,A25R6M1SRCDIYF,31KPKEKW5DTYWQJ2Z73D1GA4ZNDB00,37WLF8U1WT6XPN75XB1PY4Z8TX5K6Q,7,8
68,1,object_03,object_06,792.0,2,2,320.0,1.0,2,object_02,5,1086,0,1,9,desert_3,2,memory-2step-stake-s,561,1466923,0.0-19.0-0.0-0.68,A25R6M1SRCDIYF,31KPKEKW5DTYWQJ2Z73D1GA4ZNDB00,37WLF8U1WT6XPN75XB1PY4Z8TX5K6Q,1,2
69,4,object_05,object_08,535.0,8,2,411.0,0.8888888888888888,2,object_02,1,1094,0,3,8,restaurant_7,2,memory-2step-stake-s,562,1475593,0.0-19.0-0.0-0.69,A25R6M1SRCDIYF,31KPKEKW5DTYWQJ2Z73D1GA4ZNDB00,37WLF8U1WT6XPN75XB1PY4Z8TX5K6Q,7,8
70,2,object_07,object_10,881.0,4,1,291.0,0.8888888888888888,2,object_02,5,1134,0,4,8,forest_1,2,memory-2step-stake-s,563,1484093,0.0-19.0-0.0-0.70,A25R6M1SRCDIYF,31KPKEKW5DTYWQJ2Z73D1GA4ZNDB00,37WLF8U1WT6XPN75XB1PY4Z8TX5K6Q,4,3
71,1,object_03,object_06,771.0,2,2,331.0,0.8888888888888888,2,object_02,5,1174,0,0,8,desert_5,2,memory-2step-stake-s,564,1492663,0.0-19.0-0.0-0.71,A25R6M1SRCDIYF,31KPKEKW5DTYWQJ2Z73D1GA4ZNDB00,37WLF8U1WT6XPN75XB1PY4Z8TX5K6Q,1,2
72,1,object_06,object_03,715.0,2,1,610.0,1.0,2,object_02,1,1183,0,2,9,desert_3,2,memory-2step-stake-s,565,1501653,0.0-19.0-0.0-0.72,A25R6M1SRCDIYF,31KPKEKW5DTYWQJ2Z73D1GA4ZNDB00,37WLF8U1WT6XPN75XB1PY4Z8TX5K6Q,2,1
73,3,object_09,object_04,949.0,6,1,981.0,0.7777777777777778,2,object_02,1,1190,0,2,7,library_6,2,memory-2step-stake-s,566,1510762,0.0-19.0-0.0-0.73,A25R6M1SRCDIYF,31KPKEKW5DTYWQJ2Z73D1GA4ZNDB00,37WLF8U1WT6XPN75XB1PY4Z8TX5K6Q,6,5
74,4,object_05,object_08,830.0,8,2,258.0,0.8888888888888888,2,object_02,1,1198,0,1,8,restaurant_3,2,memory-2step-stake-s,567,1519303,0.0-19.0-0.0-0.74,A25R6M1SRCDIYF,31KPKEKW5DTYWQJ2Z73D1GA4ZNDB00,37WLF8U1WT6XPN75XB1PY4Z8TX5K6Q,7,8
75,2,object_07,object_10,883.0,4,1,471.0,0.7777777777777778,2,object_02,5,1233,0,0,7,forest_3,2,memory-2step-stake-s,568,1527873,0.0-19.0-0.0-0.75,A25R6M1SRCDIYF,31KPKEKW5DTYWQJ2Z73D1GA4ZNDB00,37WLF8U1WT6XPN75XB1PY4Z8TX5K6Q,4,3
76,4,object_08,object_05,905.0,7,2,368.0,0.1111111111111111,1,object_01,1,1234,0,1,6,restaurant_7,2,memory-2step-stake-s,569,1535673,0.0-19.0-0.0-0.76,A25R6M1SRCDIYF,31KPKEKW5DTYWQJ2Z73D1GA4ZNDB00,37WLF8U1WT6XPN75XB1PY4Z8TX5K6Q,8,7
77,3,object_09,object_04,691.0,6,1,276.0,0.8888888888888888,2,object_02,1,1242,0,3,8,library_6,2,memory-2step-stake-s,570,1544173,0.0-19.0-0.0-0.77,A25R6M1SRCDIYF,31KPKEKW5DTYWQJ2Z73D1GA4ZNDB00,37WLF8U1WT6XPN75XB1PY4Z8TX5K6Q,6,5
78,2,object_10,object_07,805.0,4,2,301.0,0.6666666666666666,2,object_02,5,1272,0,0,6,forest_1,2,memory-2step-stake-s,571,1552503,0.0-19.0-0.0-0.78,A25R6M1SRCDIYF,31KPKEKW5DTYWQJ2Z73D1GA4ZNDB00,37WLF8U1WT6XPN75XB1PY4Z8TX5K6Q,3,4
79,4,object_05,object_08,704.0,8,2,250.0,0.7777777777777778,2,object_02,1,1279,0,0,7,restaurant_3,2,memory-2step-stake-s,572,1560873,0.0-19.0-0.0-0.79,A25R6M1SRCDIYF,31KPKEKW5DTYWQJ2Z73D1GA4ZNDB00,37WLF8U1WT6XPN75XB1PY4Z8TX5K6Q,7,8
80,4,object_08,object_05,704.0,8,1,202.0,0.8888888888888888,2,object_02,1,1287,0,2,8,restaurant_7,2,memory-2step-stake-s,573,1569283,0.0-19.0-0.0-0.80,A25R6M1SRCDIYF,31KPKEKW5DTYWQJ2Z73D1GA4ZNDB00,37WLF8U1WT6XPN75XB1PY4Z8TX5K6Q,8,7
81,1,object_06,object_03,814.0,2,1,326.0,0.5555555555555556,2,object_02,5,1312,0,0,5,desert_7,2,memory-2step-stake-s,574,1577553,0.0-19.0-0.0-0.81,A25R6M1SRCDIYF,31KPKEKW5DTYWQJ2Z73D1GA4ZNDB00,37WLF8U1WT6XPN75XB1PY4Z8TX5K6Q,2,1
82,3,object_09,object_04,641.0,6,1,368.0,0.4444444444444444,2,object_02,1,1316,0,2,4,library_4,2,memory-2step-stake-s,575,1585663,0.0-19.0-0.0-0.82,A25R6M1SRCDIYF,31KPKEKW5DTYWQJ2Z73D1GA4ZNDB00,37WLF8U1WT6XPN75XB1PY4Z8TX5K6Q,6,5
83,1,object_03,object_06,836.0,2,2,277.0,0.4444444444444444,2,object_02,5,1336,0,4,4,desert_4,2,memory-2step-stake-s,576,1593713,0.0-19.0-0.0-0.83,A25R6M1SRCDIYF,31KPKEKW5DTYWQJ2Z73D1GA4ZNDB00,37WLF8U1WT6XPN75XB1PY4Z8TX5K6Q,1,2
84,1,object_06,object_03,1008.0,1,2,370.0,0.3333333333333333,1,object_01,5,1351,0,3,2,desert_7,2,memory-2step-stake-s,577,1601763,0.0-19.0-0.0-0.84,A25R6M1SRCDIYF,31KPKEKW5DTYWQJ2Z73D1GA4ZNDB00,37WLF8U1WT6XPN75XB1PY4Z8TX5K6Q,2,1
85,3,object_09,object_04,737.0,6,1,321.0,0.2222222222222222,2,object_02,1,1353,0,0,2,library_6,2,memory-2step-stake-s,578,1609613,0.0-19.0-0.0-0.85,A25R6M1SRCDIYF,31KPKEKW5DTYWQJ2Z73D1GA4ZNDB00,37WLF8U1WT6XPN75XB1PY4Z8TX5K6Q,6,5
86,3,object_09,object_04,868.0,5,2,302.0,0.3333333333333333,1,object_01,1,1356,0,3,2,library_6,2,memory-2step-stake-s,579,1617573,0.0-19.0-0.0-0.86,A25R6M1SRCDIYF,31KPKEKW5DTYWQJ2Z73D1GA4ZNDB00,37WLF8U1WT6XPN75XB1PY4Z8TX5K6Q,6,5
87,3,object_04,object_09,380.0,6,2,405.0,0.1111111111111111,2,object_02,1,1357,0,2,1,library_2,2,memory-2step-stake-s,580,1625413,0.0-19.0-0.0-0.87,A25R6M1SRCDIYF,31KPKEKW5DTYWQJ2Z73D1GA4ZNDB00,37WLF8U1WT6XPN75XB1PY4Z8TX5K6Q,5,6
88,1,object_03,object_06,677.0,1,1,253.0,0.7777777777777778,1,object_01,5,1392,0,7,2,desert_3,2,memory-2step-stake-s,581,1633813,0.0-19.0-0.0-0.88,A25R6M1SRCDIYF,31KPKEKW5DTYWQJ2Z73D1GA4ZNDB00,37WLF8U1WT6XPN75XB1PY4Z8TX5K6Q,1,2
89,4,object_05,object_08,468.0,7,1,284.0,0.8888888888888888,1,object_01,1,1400,0,8,3,restaurant_3,2,memory-2step-stake-s,582,1642363,0.0-19.0-0.0-0.89,A25R6M1SRCDIYF,31KPKEKW5DTYWQJ2Z73D1GA4ZNDB00,37WLF8U1WT6XPN75XB1PY4Z8TX5K6Q,7,8
90,1,object_06,object_03,623.0,1,2,640.0,0.8888888888888888,1,object_01,5,1440,0,8,1,desert_7,2,memory-2step-stake-s,583,1651273,0.0-19.0-0.0-0.90,A25R6M1SRCDIYF,31KPKEKW5DTYWQJ2Z73D1GA4ZNDB00,37WLF8U1WT6XPN75XB1PY4Z8TX5K6Q,2,1
91,2,object_10,object_07,619.0,4,2,298.0,0.3333333333333333,2,object_02,5,1455,0,7,3,forest_3,2,memory-2step-stake-s,584,1659263,0.0-19.0-0.0-0.91,A25R6M1SRCDIYF,31KPKEKW5DTYWQJ2Z73D1GA4ZNDB00,37WLF8U1WT6XPN75XB1PY4Z8TX5K6Q,3,4
92,1,object_06,object_03,958.0,1,2,272.0,0.8888888888888888,1,object_01,5,1495,0,8,0,desert_7,2,memory-2step-stake-s,585,1667753,0.0-19.0-0.0-0.92,A25R6M1SRCDIYF,31KPKEKW5DTYWQJ2Z73D1GA4ZNDB00,37WLF8U1WT6XPN75XB1PY4Z8TX5K6Q,2,1
93,4,object_05,object_08,449.0,7,1,267.0,0.8888888888888888,1,object_01,1,1503,0,8,3,restaurant_5,2,memory-2step-stake-s,586,1676263,0.0-19.0-0.0-0.93,A25R6M1SRCDIYF,31KPKEKW5DTYWQJ2Z73D1GA4ZNDB00,37WLF8U1WT6XPN75XB1PY4Z8TX5K6Q,7,8
94,1,object_03,object_06,514.0,1,1,275.0,0.4444444444444444,1,object_01,5,1523,0,4,5,desert_3,2,memory-2step-stake-s,587,1684324,0.0-19.0-0.0-0.94,A25R6M1SRCDIYF,31KPKEKW5DTYWQJ2Z73D1GA4ZNDB00,37WLF8U1WT6XPN75XB1PY4Z8TX5K6Q,1,2
95,1,object_03,object_06,559.0,1,1,295.0,0.3333333333333333,1,object_01,5,1538,0,3,5,desert_5,2,memory-2step-stake-s,588,1692293,0.0-19.0-0.0-0.95,A25R6M1SRCDIYF,31KPKEKW5DTYWQJ2Z73D1GA4ZNDB00,37WLF8U1WT6XPN75XB1PY4Z8TX5K6Q,1,2
96,1,object_06,object_03,641.0,1,2,288.0,0.4444444444444444,1,object_01,5,1558,0,4,6,desert_3,2,memory-2step-stake-s,589,1700343,0.0-19.0-0.0-0.96,A25R6M1SRCDIYF,31KPKEKW5DTYWQJ2Z73D1GA4ZNDB00,37WLF8U1WT6XPN75XB1PY4Z8TX5K6Q,2,1
97,2,object_07,object_10,954.0,3,2,347.0,0.4444444444444444,1,object_01,5,1578,0,4,7,forest_5,2,memory-2step-stake-s,590,1708474,0.0-19.0-0.0-0.97,A25R6M1SRCDIYF,31KPKEKW5DTYWQJ2Z73D1GA4ZNDB00,37WLF8U1WT6XPN75XB1PY4Z8TX5K6Q,4,3
98,3,object_04,object_09,713.0,5,1,344.0,0.3333333333333333,1,object_01,5,1593,0,3,7,library_4,2,memory-2step-stake-s,591,1716493,0.0-19.0-0.0-0.98,A25R6M1SRCDIYF,31KPKEKW5DTYWQJ2Z73D1GA4ZNDB00,37WLF8U1WT6XPN75XB1PY4Z8TX5K6Q,5,6
99,1,object_03,object_06,718.0,2,2,391.0,0.6666666666666666,2,object_02,5,1623,0,1,6,desert_5,2,memory-2step-stake-s,592,1724892,0.0-19.0-0.0-0.99,A25R6M1SRCDIYF,31KPKEKW5DTYWQJ2Z73D1GA4ZNDB00,37WLF8U1WT6XPN75XB1PY4Z8TX5K6Q,1,2
100,3,object_04,object_09,660.0,6,2,292.0,0.6666666666666666,2,object_02,1,1629,0,0,6,library_7,2,memory-2step-stake-s,593,1733183,0.0-19.0-0.0-0.100,A25R6M1SRCDIYF,31KPKEKW5DTYWQJ2Z73D1GA4ZNDB00,37WLF8U1WT6XPN75XB1PY4Z8TX5K6Q,5,6
101,2,object_10,object_07,683.0,4,2,286.0,0.6666666666666666,2,object_02,5,1659,0,2,6,forest_5,2,memory-2step-stake-s,594,1741493,0.0-19.0-0.0-0.101,A25R6M1SRCDIYF,31KPKEKW5DTYWQJ2Z73D1GA4ZNDB00,37WLF8U1WT6XPN75XB1PY4Z8TX5K6Q,3,4
102,2,object_07,object_10,772.0,4,1,299.0,0.4444444444444444,2,object_02,5,1679,0,3,4,forest_2,2,memory-2step-stake-s,595,1749583,0.0-19.0-0.0-0.102,A25R6M1SRCDIYF,31KPKEKW5DTYWQJ2Z73D1GA4ZNDB00,37WLF8U1WT6XPN75XB1PY4Z8TX5K6Q,4,3
103,4,object_08,object_05,418.0,7,2,362.0,0.1111111111111111,1,object_01,1,1680,0,1,3,restaurant_5,2,memory-2step-stake-s,596,1757383,0.0-19.0-0.0-0.103,A25R6M1SRCDIYF,31KPKEKW5DTYWQJ2Z73D1GA4ZNDB00,37WLF8U1WT6XPN75XB1PY4Z8TX5K6Q,8,7
104,2,object_07,object_10,1077.0,4,1,341.0,0.4444444444444444,2,object_02,5,1700,0,3,4,forest_3,2,memory-2step-stake-s,597,1765484,0.0-19.0-0.0-0.104,A25R6M1SRCDIYF,31KPKEKW5DTYWQJ2Z73D1GA4ZNDB00,37WLF8U1WT6XPN75XB1PY4Z8TX5K6Q,4,3
105,1,object_03,object_06,822.0,2,2,231.0,0.5555555555555556,2,object_02,5,1725,0,0,5,desert_5,2,memory-2step-stake-s,598,1773593,0.0-19.0-0.0-0.105,A25R6M1SRCDIYF,31KPKEKW5DTYWQJ2Z73D1GA4ZNDB00,37WLF8U1WT6XPN75XB1PY4Z8TX5K6Q,1,2
106,4,object_05,object_08,794.0,7,1,292.0,0.0,1,object_01,5,1725,0,0,6,restaurant_8,2,memory-2step-stake-s,599,1781183,0.0-19.0-0.0-0.106,A25R6M1SRCDIYF,31KPKEKW5DTYWQJ2Z73D1GA4ZNDB00,37WLF8U1WT6XPN75XB1PY4Z8TX5K6Q,7,8
107,1,object_03,object_06,706.0,1,1,309.0,0.0,1,object_01,1,1725,0,0,6,desert_3,2,memory-2step-stake-s,600,1788793,0.0-19.0-0.0-0.107,A25R6M1SRCDIYF,31KPKEKW5DTYWQJ2Z73D1GA4ZNDB00,37WLF8U1WT6XPN75XB1PY4Z8TX5K6Q,1,2
108,3,object_04,object_09,1169.0,5,1,443.0,0.1111111111111111,1,object_01,5,1730,0,1,7,library_4,2,memory-2step-stake-s,601,1796643,0.0-19.0-0.0-0.108,A25R6M1SRCDIYF,31KPKEKW5DTYWQJ2Z73D1GA4ZNDB00,37WLF8U1WT6XPN75XB1PY4Z8TX5K6Q,5,6
109,2,object_10,object_07,801.0,4,2,658.0,0.4444444444444444,2,object_02,5,1750,0,2,4,forest_1,2,memory-2step-stake-s,602,1805083,0.0-19.0-0.0-0.109,A25R6M1SRCDIYF,31KPKEKW5DTYWQJ2Z73D1GA4ZNDB00,37WLF8U1WT6XPN75XB1PY4Z8TX5K6Q,3,4
110,2,object_10,object_07,718.0,4,2,543.0,0.4444444444444444,2,object_02,5,1770,0,2,4,forest_2,2,memory-2step-stake-s,603,1813403,0.0-19.0-0.0-0.110,A25R6M1SRCDIYF,31KPKEKW5DTYWQJ2Z73D1GA4ZNDB00,37WLF8U1WT6XPN75XB1PY4Z8TX5K6Q,3,4
111,4,object_08,object_05,991.0,7,2,317.0,0.2222222222222222,1,object_01,1,1772,0,2,3,restaurant_8,2,memory-2step-stake-s,604,1821223,0.0-19.0-0.0-0.111,A25R6M1SRCDIYF,31KPKEKW5DTYWQJ2Z73D1GA4ZNDB00,37WLF8U1WT6XPN75XB1PY4Z8TX5K6Q,8,7
112,3,object_09,object_04,698.0,6,1,307.0,0.4444444444444444,2,object_02,1,1776,0,5,4,library_4,2,memory-2step-stake-s,605,1829333,0.0-19.0-0.0-0.112,A25R6M1SRCDIYF,31KPKEKW5DTYWQJ2Z73D1GA4ZNDB00,37WLF8U1WT6XPN75XB1PY4Z8TX5K6Q,6,5
113,4,object_05,object_08,773.0,8,2,269.0,0.6666666666666666,2,object_02,1,1782,0,8,6,restaurant_8,2,memory-2step-stake-s,606,1837583,0.0-19.0-0.0-0.113,A25R6M1SRCDIYF,31KPKEKW5DTYWQJ2Z73D1GA4ZNDB00,37WLF8U1WT6XPN75XB1PY4Z8TX5K6Q,7,8
114,1,object_06,object_03,1067.0,2,1,315.0,0.5555555555555556,2,object_02,1,1787,0,8,5,desert_7,2,memory-2step-stake-s,607,1845793,0.0-19.0-0.0-0.114,A25R6M1SRCDIYF,31KPKEKW5DTYWQJ2Z73D1GA4ZNDB00,37WLF8U1WT6XPN75XB1PY4Z8TX5K6Q,2,1
115,3,object_04,object_09,769.0,6,2,323.0,0.6666666666666666,2,object_02,1,1793,0,7,6,library_6,2,memory-2step-stake-s,608,1854153,0.0-19.0-0.0-0.115,A25R6M1SRCDIYF,31KPKEKW5DTYWQJ2Z73D1GA4ZNDB00,37WLF8U1WT6XPN75XB1PY4Z8TX5K6Q,5,6
116,2,object_10,object_07,837.0,4,2,260.0,1.0,2,object_02,1,1802,0,5,9,forest_1,2,memory-2step-stake-s,609,1862763,0.0-19.0-0.0-0.116,A25R6M1SRCDIYF,31KPKEKW5DTYWQJ2Z73D1GA4ZNDB00,37WLF8U1WT6XPN75XB1PY4Z8TX5K6Q,3,4
117,1,object_06,object_03,719.0,2,1,262.0,0.7777777777777778,2,object_02,5,1837,0,5,7,desert_5,2,memory-2step-stake-s,610,1871173,0.0-19.0-0.0-0.117,A25R6M1SRCDIYF,31KPKEKW5DTYWQJ2Z73D1GA4ZNDB00,37WLF8U1WT6XPN75XB1PY4Z8TX5K6Q,2,1
118,3,object_09,object_04,653.0,6,1,265.0,0.7777777777777778,2,object_02,1,1844,0,4,7,library_7,2,memory-2step-stake-s,611,1879603,0.0-19.0-0.0-0.118,A25R6M1SRCDIYF,31KPKEKW5DTYWQJ2Z73D1GA4ZNDB00,37WLF8U1WT6XPN75XB1PY4Z8TX5K6Q,6,5
119,3,object_09,object_04,783.0,6,1,304.0,0.8888888888888888,2,object_02,1,1852,0,4,8,library_6,2,memory-2step-stake-s,612,1888133,0.0-19.0-0.0-0.119,A25R6M1SRCDIYF,31KPKEKW5DTYWQJ2Z73D1GA4ZNDB00,37WLF8U1WT6XPN75XB1PY4Z8TX5K6Q,6,5
120,4,object_05,object_08,688.0,8,2,337.0,1.0,2,object_02,5,1897,0,3,9,restaurant_5,2,memory-2step-stake-s,613,1896803,0.0-19.0-0.0-0.120,A25R6M1SRCDIYF,31KPKEKW5DTYWQJ2Z73D1GA4ZNDB00,37WLF8U1WT6XPN75XB1PY4Z8TX5K6Q,7,8
121,3,object_09,object_04,679.0,6,1,520.0,0.6666666666666666,2,object_02,1,1903,0,4,6,library_2,2,memory-2step-stake-s,614,1905333,0.0-19.0-0.0-0.121,A25R6M1SRCDIYF,31KPKEKW5DTYWQJ2Z73D1GA4ZNDB00,37WLF8U1WT6XPN75XB1PY4Z8TX5K6Q,6,5
122,1,object_03,object_06,781.0,2,2,302.0,1.0,2,object_02,5,1948,0,1,9,desert_4,2,memory-2step-stake-s,615,1913953,0.0-19.0-0.0-0.122,A25R6M1SRCDIYF,31KPKEKW5DTYWQJ2Z73D1GA4ZNDB00,37WLF8U1WT6XPN75XB1PY4Z8TX5K6Q,1,2
123,4,object_05,object_08,537.0,8,2,249.0,0.6666666666666666,2,object_02,1,1954,0,3,6,restaurant_8,2,memory-2step-stake-s,616,1922183,0.0-19.0-0.0-0.123,A25R6M1SRCDIYF,31KPKEKW5DTYWQJ2Z73D1GA4ZNDB00,37WLF8U1WT6XPN75XB1PY4Z8TX5K6Q,7,8
124,4,object_08,object_05,580.0,8,1,298.0,1.0,2,object_02,1,1963,0,2,9,restaurant_3,2,memory-2step-stake-s,617,1930873,0.0-19.0-0.0-0.124,A25R6M1SRCDIYF,31KPKEKW5DTYWQJ2Z73D1GA4ZNDB00,37WLF8U1WT6XPN75XB1PY4Z8TX5K6Q,8,7
125,2,object_07,object_10,738.0,4,1,272.0,0.7777777777777778,2,object_02,5,1998,0,2,7,forest_2,2,memory-2step-stake-s,618,1939263,0.0-19.0-0.0-0.125,A25R6M1SRCDIYF,31KPKEKW5DTYWQJ2Z73D1GA4ZNDB00,37WLF8U1WT6XPN75XB1PY4Z8TX5K6Q,4,3
126,2,object_10,object_07,818.0,4,2,278.0,0.6666666666666666,2,object_02,5,2028,0,2,6,forest_5,2,memory-2step-stake-s,619,1947553,0.0-19.0-0.0-0.126,A25R6M1SRCDIYF,31KPKEKW5DTYWQJ2Z73D1GA4ZNDB00,37WLF8U1WT6XPN75XB1PY4Z8TX5K6Q,3,4
127,3,object_09,object_04,738.0,6,1,282.0,0.7777777777777778,2,object_02,1,2035,0,2,7,library_6,2,memory-2step-stake-s,620,1955923,0.0-19.0-0.0-0.127,A25R6M1SRCDIYF,31KPKEKW5DTYWQJ2Z73D1GA4ZNDB00,37WLF8U1WT6XPN75XB1PY4Z8TX5K6Q,6,5
128,3,object_04,object_09,1520.0,5,1,423.0,0.0,1,object_01,1,2035,0,0,9,library_2,2,memory-2step-stake-s,622,2082042,0.0-19.0-0.1-0.128,A25R6M1SRCDIYF,31KPKEKW5DTYWQJ2Z73D1GA4ZNDB00,37WLF8U1WT6XPN75XB1PY4Z8TX5K6Q,5,6
129,2,object_07,object_10,777.0,4,1,235.0,0.7777777777777778,2,object_02,1,2042,0,3,7,forest_3,2,memory-2step-stake-s,623,2090383,0.0-19.0-0.1-0.129,A25R6M1SRCDIYF,31KPKEKW5DTYWQJ2Z73D1GA4ZNDB00,37WLF8U1WT6XPN75XB1PY4Z8TX5K6Q,4,3
130,3,object_04,object_09,562.0,6,2,252.0,1.0,2,object_02,1,2051,0,3,9,library_7,2,memory-2step-stake-s,624,2098993,0.0-19.0-0.1-0.130,A25R6M1SRCDIYF,31KPKEKW5DTYWQJ2Z73D1GA4ZNDB00,37WLF8U1WT6XPN75XB1PY4Z8TX5K6Q,5,6
131,3,object_09,object_04,762.0,6,1,328.0,0.8888888888888888,2,object_02,5,2091,0,2,8,library_6,2,memory-2step-stake-s,625,2107543,0.0-19.0-0.1-0.131,A25R6M1SRCDIYF,31KPKEKW5DTYWQJ2Z73D1GA4ZNDB00,37WLF8U1WT6XPN75XB1PY4Z8TX5K6Q,6,5
132,2,object_10,object_07,686.0,4,2,392.0,0.6666666666666666,2,object_02,5,2121,0,6,6,forest_3,2,memory-2step-stake-s,626,2115913,0.0-19.0-0.1-0.132,A25R6M1SRCDIYF,31KPKEKW5DTYWQJ2Z73D1GA4ZNDB00,37WLF8U1WT6XPN75XB1PY4Z8TX5K6Q,3,4
133,3,object_09,object_04,615.0,6,1,277.0,0.4444444444444444,2,object_02,5,2141,0,6,4,library_4,2,memory-2step-stake-s,627,2123904,0.0-19.0-0.1-0.133,A25R6M1SRCDIYF,31KPKEKW5DTYWQJ2Z73D1GA4ZNDB00,37WLF8U1WT6XPN75XB1PY4Z8TX5K6Q,6,5
134,2,object_10,object_07,666.0,4,2,261.0,0.3333333333333333,2,object_02,5,2156,0,6,3,forest_5,2,memory-2step-stake-s,628,2131833,0.0-19.0-0.1-0.134,A25R6M1SRCDIYF,31KPKEKW5DTYWQJ2Z73D1GA4ZNDB00,37WLF8U1WT6XPN75XB1PY4Z8TX5K6Q,3,4
135,3,object_09,object_04,620.0,5,2,322.0,0.8888888888888888,1,object_01,1,2164,0,8,1,library_2,2,memory-2step-stake-s,629,2140393,0.0-19.0-0.1-0.135,A25R6M1SRCDIYF,31KPKEKW5DTYWQJ2Z73D1GA4ZNDB00,37WLF8U1WT6XPN75XB1PY4Z8TX5K6Q,6,5
136,3,object_04,object_09,450.0,5,1,386.0,1.0,1,object_01,1,2173,0,9,1,library_4,2,memory-2step-stake-s,630,2149123,0.0-19.0-0.1-0.136,A25R6M1SRCDIYF,31KPKEKW5DTYWQJ2Z73D1GA4ZNDB00,37WLF8U1WT6XPN75XB1PY4Z8TX5K6Q,5,6
137,3,object_09,object_04,1360.0,6,1,535.0,0.2222222222222222,2,object_02,1,2175,0,8,2,library_2,2,memory-2step-stake-s,631,2157212,0.0-19.0-0.1-0.137,A25R6M1SRCDIYF,31KPKEKW5DTYWQJ2Z73D1GA4ZNDB00,37WLF8U1WT6XPN75XB1PY4Z8TX5K6Q,6,5
138,2,object_07,object_10,669.0,3,2,285.0,1.0,1,object_01,5,2220,0,9,1,forest_5,2,memory-2step-stake-s,632,2165883,0.0-19.0-0.1-0.138,A25R6M1SRCDIYF,31KPKEKW5DTYWQJ2Z73D1GA4ZNDB00,37WLF8U1WT6XPN75XB1PY4Z8TX5K6Q,4,3
139,3,object_04,object_09,752.0,5,1,400.0,0.8888888888888888,1,object_01,1,2228,0,8,3,library_2,2,memory-2step-stake-s,633,2174503,0.0-19.0-0.1-0.139,A25R6M1SRCDIYF,31KPKEKW5DTYWQJ2Z73D1GA4ZNDB00,37WLF8U1WT6XPN75XB1PY4Z8TX5K6Q,5,6
140,1,object_03,object_06,853.0,1,1,284.0,0.6666666666666666,1,object_01,1,2234,0,6,1,desert_7,2,memory-2step-stake-s,634,2182773,0.0-19.0-0.1-0.140,A25R6M1SRCDIYF,31KPKEKW5DTYWQJ2Z73D1GA4ZNDB00,37WLF8U1WT6XPN75XB1PY4Z8TX5K6Q,1,2
141,1,object_03,object_06,734.0,1,1,377.0,0.3333333333333333,1,object_01,5,2249,0,3,3,desert_7,2,memory-2step-stake-s,635,2190823,0.0-19.0-0.1-0.141,A25R6M1SRCDIYF,31KPKEKW5DTYWQJ2Z73D1GA4ZNDB00,37WLF8U1WT6XPN75XB1PY4Z8TX5K6Q,1,2
142,2,object_10,object_07,604.0,4,2,343.0,0.3333333333333333,2,object_02,5,2264,0,1,3,forest_1,2,memory-2step-stake-s,636,2198813,0.0-19.0-0.1-0.142,A25R6M1SRCDIYF,31KPKEKW5DTYWQJ2Z73D1GA4ZNDB00,37WLF8U1WT6XPN75XB1PY4Z8TX5K6Q,3,4
143,2,object_07,object_10,606.0,3,2,260.0,0.1111111111111111,1,object_01,1,2265,0,1,4,forest_1,2,memory-2step-stake-s,637,2206503,0.0-19.0-0.1-0.143,A25R6M1SRCDIYF,31KPKEKW5DTYWQJ2Z73D1GA4ZNDB00,37WLF8U1WT6XPN75XB1PY4Z8TX5K6Q,4,3
144,1,object_06,object_03,779.0,2,1,323.0,0.0,2,object_02,5,2265,0,1,0,desert_7,2,memory-2step-stake-s,638,2214133,0.0-19.0-0.1-0.144,A25R6M1SRCDIYF,31KPKEKW5DTYWQJ2Z73D1GA4ZNDB00,37WLF8U1WT6XPN75XB1PY4Z8TX5K6Q,2,1
145,3,object_04,object_09,629.0,5,1,260.0,0.1111111111111111,1,object_01,1,2266,0,1,1,library_7,2,memory-2step-stake-s,639,2221803,0.0-19.0-0.1-0.145,A25R6M1SRCDIYF,31KPKEKW5DTYWQJ2Z73D1GA4ZNDB00,37WLF8U1WT6XPN75XB1PY4Z8TX5K6Q,5,6
146,2,object_07,object_10,688.0,3,2,319.0,0.6666666666666666,1,object_01,5,2296,0,6,2,forest_2,2,memory-2step-stake-s,640,2230133,0.0-19.0-0.1-0.146,A25R6M1SRCDIYF,31KPKEKW5DTYWQJ2Z73D1GA4ZNDB00,37WLF8U1WT6XPN75XB1PY4Z8TX5K6Q,4,3
147,3,object_04,object_09,452.0,5,1,245.0,0.7777777777777778,1,object_01,1,2303,0,7,1,library_2,2,memory-2step-stake-s,641,2238483,0.0-19.0-0.1-0.147,A25R6M1SRCDIYF,31KPKEKW5DTYWQJ2Z73D1GA4ZNDB00,37WLF8U1WT6XPN75XB1PY4Z8TX5K6Q,5,6
148,2,object_07,object_10,639.0,3,2,350.0,1.0,1,object_01,5,2348,0,9,1,forest_1,2,memory-2step-stake-s,642,2247173,0.0-19.0-0.1-0.148,A25R6M1SRCDIYF,31KPKEKW5DTYWQJ2Z73D1GA4ZNDB00,37WLF8U1WT6XPN75XB1PY4Z8TX5K6Q,4,3
149,1,object_06,object_03,757.0,1,2,293.0,1.0,1,object_01,5,2393,0,9,3,desert_4,2,memory-2step-stake-s,643,2255801,0.0-19.0-0.1-0.149,A25R6M1SRCDIYF,31KPKEKW5DTYWQJ2Z73D1GA4ZNDB00,37WLF8U1WT6XPN75XB1PY4Z8TX5K6Q,2,1
150,1,object_06,object_03,598.0,1,2,269.0,0.7777777777777778,1,object_01,5,2428,0,7,1,desert_3,2,memory-2step-stake-s,644,2264182,0.0-19.0-0.1-0.150,A25R6M1SRCDIYF,31KPKEKW5DTYWQJ2Z73D1GA4ZNDB00,37WLF8U1WT6XPN75XB1PY4Z8TX5K6Q,2,1
151,2,object_07,object_10,723.0,3,2,236.0,0.6666666666666666,1,object_01,5,2458,0,6,3,forest_1,2,memory-2step-stake-s,645,2272453,0.0-19.0-0.1-0.151,A25R6M1SRCDIYF,31KPKEKW5DTYWQJ2Z73D1GA4ZNDB00,37WLF8U1WT6XPN75XB1PY4Z8TX5K6Q,4,3
152,4,object_08,object_05,965.0,7,2,270.0,0.6666666666666666,1,object_01,1,2464,0,6,7,restaurant_7,2,memory-2step-stake-s,646,2280762,0.0-19.0-0.1-0.152,A25R6M1SRCDIYF,31KPKEKW5DTYWQJ2Z73D1GA4ZNDB00,37WLF8U1WT6XPN75XB1PY4Z8TX5K6Q,8,7
153,3,object_04,object_09,439.0,5,1,222.0,0.3333333333333333,1,object_01,1,2467,0,3,6,library_6,2,memory-2step-stake-s,647,2288653,0.0-19.0-0.1-0.153,A25R6M1SRCDIYF,31KPKEKW5DTYWQJ2Z73D1GA4ZNDB00,37WLF8U1WT6XPN75XB1PY4Z8TX5K6Q,5,6
154,2,object_10,object_07,717.0,3,1,262.0,0.2222222222222222,1,object_01,5,2477,0,2,6,forest_2,2,memory-2step-stake-s,648,2296483,0.0-19.0-0.1-0.154,A25R6M1SRCDIYF,31KPKEKW5DTYWQJ2Z73D1GA4ZNDB00,37WLF8U1WT6XPN75XB1PY4Z8TX5K6Q,3,4
155,1,object_03,object_06,759.0,2,2,295.0,0.7777777777777778,2,object_02,5,2512,0,2,7,desert_7,2,memory-2step-stake-s,649,2304912,0.0-19.0-0.1-0.155,A25R6M1SRCDIYF,31KPKEKW5DTYWQJ2Z73D1GA4ZNDB00,37WLF8U1WT6XPN75XB1PY4Z8TX5K6Q,1,2
156,4,object_05,object_08,513.0,8,2,264.0,0.6666666666666666,2,object_02,1,2518,0,5,6,restaurant_7,2,memory-2step-stake-s,650,2313213,0.0-19.0-0.1-0.156,A25R6M1SRCDIYF,31KPKEKW5DTYWQJ2Z73D1GA4ZNDB00,37WLF8U1WT6XPN75XB1PY4Z8TX5K6Q,7,8
157,3,object_04,object_09,861.0,5,1,288.0,0.5555555555555556,1,object_01,1,2523,0,5,8,library_4,2,memory-2step-stake-s,651,2321363,0.0-19.0-0.1-0.157,A25R6M1SRCDIYF,31KPKEKW5DTYWQJ2Z73D1GA4ZNDB00,37WLF8U1WT6XPN75XB1PY4Z8TX5K6Q,5,6
158,2,object_07,object_10,754.0,4,1,305.0,0.8888888888888888,2,object_02,5,2563,0,3,8,forest_5,2,memory-2step-stake-s,652,2329913,0.0-19.0-0.1-0.158,A25R6M1SRCDIYF,31KPKEKW5DTYWQJ2Z73D1GA4ZNDB00,37WLF8U1WT6XPN75XB1PY4Z8TX5K6Q,4,3
159,3,object_09,object_04,635.0,6,1,267.0,0.7777777777777778,2,object_02,1,2570,0,2,7,library_4,2,memory-2step-stake-s,653,2338333,0.0-19.0-0.1-0.159,A25R6M1SRCDIYF,31KPKEKW5DTYWQJ2Z73D1GA4ZNDB00,37WLF8U1WT6XPN75XB1PY4Z8TX5K6Q,6,5
160,1,object_06,object_03,677.0,1,2,271.0,0.1111111111111111,1,object_01,5,2575,0,1,3,desert_5,2,memory-2step-stake-s,654,2346003,0.0-19.0-0.1-0.160,A25R6M1SRCDIYF,31KPKEKW5DTYWQJ2Z73D1GA4ZNDB00,37WLF8U1WT6XPN75XB1PY4Z8TX5K6Q,2,1
161,2,object_10,object_07,863.0,4,2,344.0,0.3333333333333333,2,object_02,5,2590,0,1,3,forest_1,2,memory-2step-stake-s,655,2353992,0.0-19.0-0.1-0.161,A25R6M1SRCDIYF,31KPKEKW5DTYWQJ2Z73D1GA4ZNDB00,37WLF8U1WT6XPN75XB1PY4Z8TX5K6Q,3,4
162,3,object_04,object_09,571.0,6,2,298.0,0.3333333333333333,2,object_02,1,2593,0,3,3,library_7,2,memory-2step-stake-s,656,2361963,0.0-19.0-0.1-0.162,A25R6M1SRCDIYF,31KPKEKW5DTYWQJ2Z73D1GA4ZNDB00,37WLF8U1WT6XPN75XB1PY4Z8TX5K6Q,5,6
163,4,object_08,object_05,583.0,7,2,288.0,0.3333333333333333,1,object_01,1,2596,0,3,1,restaurant_8,2,memory-2step-stake-s,657,2369893,0.0-19.0-0.1-0.163,A25R6M1SRCDIYF,31KPKEKW5DTYWQJ2Z73D1GA4ZNDB00,37WLF8U1WT6XPN75XB1PY4Z8TX5K6Q,8,7
164,1,object_06,object_03,749.0,2,1,222.0,0.1111111111111111,2,object_02,5,2601,0,1,1,desert_5,2,memory-2step-stake-s,658,2377542,0.0-19.0-0.1-0.164,A25R6M1SRCDIYF,31KPKEKW5DTYWQJ2Z73D1GA4ZNDB00,37WLF8U1WT6XPN75XB1PY4Z8TX5K6Q,2,1
165,4,object_08,object_05,387.0,7,2,261.0,0.1111111111111111,1,object_01,1,2602,0,1,3,restaurant_8,2,memory-2step-stake-s,659,2385233,0.0-19.0-0.1-0.165,A25R6M1SRCDIYF,31KPKEKW5DTYWQJ2Z73D1GA4ZNDB00,37WLF8U1WT6XPN75XB1PY4Z8TX5K6Q,8,7
166,4,object_08,object_05,586.0,7,2,289.0,0.0,1,object_01,1,2602,0,0,0,restaurant_7,2,memory-2step-stake-s,660,2392823,0.0-19.0-0.1-0.166,A25R6M1SRCDIYF,31KPKEKW5DTYWQJ2Z73D1GA4ZNDB00,37WLF8U1WT6XPN75XB1PY4Z8TX5K6Q,8,7
167,3,object_09,object_04,788.0,6,1,301.0,0.0,2,object_02,5,2602,0,0,0,library_7,2,memory-2step-stake-s,661,2400433,0.0-19.0-0.1-0.167,A25R6M1SRCDIYF,31KPKEKW5DTYWQJ2Z73D1GA4ZNDB00,37WLF8U1WT6XPN75XB1PY4Z8TX5K6Q,6,5
168,1,object_06,object_03,850.0,2,1,339.0,0.2222222222222222,2,object_02,5,2612,0,1,2,desert_7,2,memory-2step-stake-s,662,2408313,0.0-19.0-0.1-0.168,A25R6M1SRCDIYF,31KPKEKW5DTYWQJ2Z73D1GA4ZNDB00,37WLF8U1WT6XPN75XB1PY4Z8TX5K6Q,2,1
169,1,object_03,object_06,497.0,1,1,233.0,0.3333333333333333,1,object_01,5,2627,0,3,0,desert_4,2,memory-2step-stake-s,663,2416214,0.0-19.0-0.1-0.169,A25R6M1SRCDIYF,31KPKEKW5DTYWQJ2Z73D1GA4ZNDB00,37WLF8U1WT6XPN75XB1PY4Z8TX5K6Q,1,2
170,4,object_05,object_08,360.0,7,1,353.0,0.0,1,object_01,1,2627,0,0,0,restaurant_8,2,memory-2step-stake-s,664,2423833,0.0-19.0-0.1-0.170,A25R6M1SRCDIYF,31KPKEKW5DTYWQJ2Z73D1GA4ZNDB00,37WLF8U1WT6XPN75XB1PY4Z8TX5K6Q,7,8
171,4,object_05,object_08,482.0,8,2,273.0,0.2222222222222222,2,object_02,1,2629,0,0,2,restaurant_5,2,memory-2step-stake-s,665,2431662,0.0-19.0-0.1-0.171,A25R6M1SRCDIYF,31KPKEKW5DTYWQJ2Z73D1GA4ZNDB00,37WLF8U1WT6XPN75XB1PY4Z8TX5K6Q,7,8
172,3,object_09,object_04,708.0,6,1,246.0,0.4444444444444444,2,object_02,1,2633,0,1,4,library_6,2,memory-2step-stake-s,666,2439653,0.0-19.0-0.1-0.172,A25R6M1SRCDIYF,31KPKEKW5DTYWQJ2Z73D1GA4ZNDB00,37WLF8U1WT6XPN75XB1PY4Z8TX5K6Q,6,5
173,3,object_04,object_09,718.0,6,2,318.0,0.7777777777777778,2,object_02,5,2668,0,2,7,library_2,2,memory-2step-stake-s,667,2448043,0.0-19.0-0.1-0.173,A25R6M1SRCDIYF,31KPKEKW5DTYWQJ2Z73D1GA4ZNDB00,37WLF8U1WT6XPN75XB1PY4Z8TX5K6Q,5,6
174,1,object_06,object_03,705.0,1,2,259.0,0.2222222222222222,1,object_01,5,2678,0,2,6,desert_4,2,memory-2step-stake-s,668,2455792,0.0-19.0-0.1-0.174,A25R6M1SRCDIYF,31KPKEKW5DTYWQJ2Z73D1GA4ZNDB00,37WLF8U1WT6XPN75XB1PY4Z8TX5K6Q,2,1
175,1,object_03,object_06,1196.0,2,2,428.0,0.3333333333333333,2,object_02,5,2693,0,3,3,desert_7,2,memory-2step-stake-s,669,2463842,0.0-19.0-0.1-0.175,A25R6M1SRCDIYF,31KPKEKW5DTYWQJ2Z73D1GA4ZNDB00,37WLF8U1WT6XPN75XB1PY4Z8TX5K6Q,1,2
176,1,object_03,object_06,695.0,2,2,264.0,0.5555555555555556,2,object_02,5,2718,0,5,5,desert_4,2,memory-2step-stake-s,670,2471993,0.0-19.0-0.1-0.176,A25R6M1SRCDIYF,31KPKEKW5DTYWQJ2Z73D1GA4ZNDB00,37WLF8U1WT6XPN75XB1PY4Z8TX5K6Q,1,2
177,3,object_04,object_09,531.0,6,2,340.0,0.3333333333333333,2,object_02,5,2733,0,7,3,library_7,2,memory-2step-stake-s,671,2480022,0.0-19.0-0.1-0.177,A25R6M1SRCDIYF,31KPKEKW5DTYWQJ2Z73D1GA4ZNDB00,37WLF8U1WT6XPN75XB1PY4Z8TX5K6Q,5,6
178,3,object_09,object_04,637.0,5,2,191.0,0.4444444444444444,1,object_01,1,2737,0,4,1,library_6,2,memory-2step-stake-s,672,2487933,0.0-19.0-0.1-0.178,A25R6M1SRCDIYF,31KPKEKW5DTYWQJ2Z73D1GA4ZNDB00,37WLF8U1WT6XPN75XB1PY4Z8TX5K6Q,6,5
179,3,object_04,object_09,471.0,5,1,322.0,0.2222222222222222,1,object_01,1,2739,0,2,0,library_2,2,memory-2step-stake-s,673,2495803,0.0-19.0-0.1-0.179,A25R6M1SRCDIYF,31KPKEKW5DTYWQJ2Z73D1GA4ZNDB00,37WLF8U1WT6XPN75XB1PY4Z8TX5K6Q,5,6
180,4,object_05,object_08,567.0,8,2,282.0,0.0,2,object_02,1,2739,0,2,0,restaurant_5,2,memory-2step-stake-s,674,2503393,0.0-19.0-0.1-0.180,A25R6M1SRCDIYF,31KPKEKW5DTYWQJ2Z73D1GA4ZNDB00,37WLF8U1WT6XPN75XB1PY4Z8TX5K6Q,7,8
181,2,object_10,object_07,828.0,3,1,327.0,0.2222222222222222,1,object_01,1,2741,0,2,1,forest_5,2,memory-2step-stake-s,675,2511232,0.0-19.0-0.1-0.181,A25R6M1SRCDIYF,31KPKEKW5DTYWQJ2Z73D1GA4ZNDB00,37WLF8U1WT6XPN75XB1PY4Z8TX5K6Q,3,4
182,3,object_09,object_04,679.0,5,2,209.0,0.1111111111111111,1,object_01,1,2742,0,1,2,library_2,2,memory-2step-stake-s,676,2518852,0.0-19.0-0.1-0.182,A25R6M1SRCDIYF,31KPKEKW5DTYWQJ2Z73D1GA4ZNDB00,37WLF8U1WT6XPN75XB1PY4Z8TX5K6Q,6,5
183,4,object_08,object_05,830.0,8,1,293.0,0.5555555555555556,2,object_02,1,2747,0,6,5,restaurant_8,2,memory-2step-stake-s,677,2527023,0.0-19.0-0.1-0.183,A25R6M1SRCDIYF,31KPKEKW5DTYWQJ2Z73D1GA4ZNDB00,37WLF8U1WT6XPN75XB1PY4Z8TX5K6Q,8,7
184,1,object_03,object_06,1259.0,2,2,381.0,0.7777777777777778,2,object_02,1,2754,0,5,7,desert_3,2,memory-2step-stake-s,678,2535553,0.0-19.0-0.1-0.184,A25R6M1SRCDIYF,31KPKEKW5DTYWQJ2Z73D1GA4ZNDB00,37WLF8U1WT6XPN75XB1PY4Z8TX5K6Q,1,2
185,3,object_04,object_09,635.0,5,1,244.0,0.5555555555555556,1,object_01,5,2779,0,5,8,library_7,2,memory-2step-stake-s,679,2543673,0.0-19.0-0.1-0.185,A25R6M1SRCDIYF,31KPKEKW5DTYWQJ2Z73D1GA4ZNDB00,37WLF8U1WT6XPN75XB1PY4Z8TX5K6Q,5,6
186,4,object_05,object_08,579.0,8,2,308.0,0.4444444444444444,2,object_02,5,2799,0,7,4,restaurant_8,2,memory-2step-stake-s,680,2551753,0.0-19.0-0.1-0.186,A25R6M1SRCDIYF,31KPKEKW5DTYWQJ2Z73D1GA4ZNDB00,37WLF8U1WT6XPN75XB1PY4Z8TX5K6Q,7,8
187,2,object_10,object_07,627.0,4,2,285.0,0.3333333333333333,2,object_02,5,2814,0,6,3,forest_5,2,memory-2step-stake-s,681,2559673,0.0-19.0-0.1-0.187,A25R6M1SRCDIYF,31KPKEKW5DTYWQJ2Z73D1GA4ZNDB00,37WLF8U1WT6XPN75XB1PY4Z8TX5K6Q,3,4
188,1,object_03,object_06,346.0,1,1,275.0,0.6666666666666666,1,object_01,5,2844,0,6,2,desert_3,2,memory-2step-stake-s,682,2567933,0.0-19.0-0.1-0.188,A25R6M1SRCDIYF,31KPKEKW5DTYWQJ2Z73D1GA4ZNDB00,37WLF8U1WT6XPN75XB1PY4Z8TX5K6Q,1,2
189,4,object_08,object_05,485.0,7,2,253.0,1.0,1,object_01,1,2853,0,9,4,restaurant_7,2,memory-2step-stake-s,683,2576563,0.0-19.0-0.1-0.189,A25R6M1SRCDIYF,31KPKEKW5DTYWQJ2Z73D1GA4ZNDB00,37WLF8U1WT6XPN75XB1PY4Z8TX5K6Q,8,7
190,2,object_07,object_10,791.0,3,2,296.0,0.8888888888888888,1,object_01,5,2893,0,8,2,forest_1,2,memory-2step-stake-s,684,2585073,0.0-19.0-0.1-0.190,A25R6M1SRCDIYF,31KPKEKW5DTYWQJ2Z73D1GA4ZNDB00,37WLF8U1WT6XPN75XB1PY4Z8TX5K6Q,4,3
191,2,object_07,object_10,619.0,3,2,300.0,1.0,1,object_01,1,2902,0,9,3,forest_3,2,memory-2step-stake-s,685,2593683,0.0-19.0-0.1-0.191,A25R6M1SRCDIYF,31KPKEKW5DTYWQJ2Z73D1GA4ZNDB00,37WLF8U1WT6XPN75XB1PY4Z8TX5K6Q,4,3
192,4,object_08,object_05,497.0,7,2,340.0,0.8888888888888888,1,object_01,1,2910,0,8,2,restaurant_5,2,memory-2step-stake-s,686,2602213,0.0-19.0-0.1-0.192,A25R6M1SRCDIYF,31KPKEKW5DTYWQJ2Z73D1GA4ZNDB00,37WLF8U1WT6XPN75XB1PY4Z8TX5K6Q,8,7
193,3,object_04,object_09,757.0,5,1,293.0,0.8888888888888888,1,object_01,5,2950,0,8,2,library_7,2,memory-2step-stake-s,687,2610743,0.0-19.0-0.1-0.193,A25R6M1SRCDIYF,31KPKEKW5DTYWQJ2Z73D1GA4ZNDB00,37WLF8U1WT6XPN75XB1PY4Z8TX5K6Q,5,6
194,1,object_06,object_03,892.0,1,2,343.0,0.6666666666666666,1,object_01,5,2980,0,6,1,desert_5,2,memory-2step-stake-s,688,2619073,0.0-19.0-0.1-0.194,A25R6M1SRCDIYF,31KPKEKW5DTYWQJ2Z73D1GA4ZNDB00,37WLF8U1WT6XPN75XB1PY4Z8TX5K6Q,2,1
195,2,object_07,object_10,650.0,3,2,282.0,0.7777777777777778,1,object_01,5,3015,0,7,1,forest_3,2,memory-2step-stake-s,689,2627503,0.0-19.0-0.1-0.195,A25R6M1SRCDIYF,31KPKEKW5DTYWQJ2Z73D1GA4ZNDB00,37WLF8U1WT6XPN75XB1PY4Z8TX5K6Q,4,3
196,3,object_04,object_09,676.0,5,1,285.0,0.8888888888888888,1,object_01,5,3055,0,8,1,library_2,2,memory-2step-stake-s,690,2636053,0.0-19.0-0.1-0.196,A25R6M1SRCDIYF,31KPKEKW5DTYWQJ2Z73D1GA4ZNDB00,37WLF8U1WT6XPN75XB1PY4Z8TX5K6Q,5,6
197,1,object_06,object_03,631.0,1,2,279.0,0.7777777777777778,1,object_01,5,3090,0,7,3,desert_3,2,memory-2step-stake-s,691,2644463,0.0-19.0-0.1-0.197,A25R6M1SRCDIYF,31KPKEKW5DTYWQJ2Z73D1GA4ZNDB00,37WLF8U1WT6XPN75XB1PY4Z8TX5K6Q,2,1
198,1,object_06,object_03,580.0,1,2,310.0,0.5555555555555556,1,object_01,1,3095,0,5,1,desert_5,2,memory-2step-stake-s,692,2652673,0.0-19.0-0.1-0.198,A25R6M1SRCDIYF,31KPKEKW5DTYWQJ2Z73D1GA4ZNDB00,37WLF8U1WT6XPN75XB1PY4Z8TX5K6Q,2,1
199,4,object_08,object_05,492.0,7,2,291.0,0.4444444444444444,1,object_01,1,3099,0,4,3,restaurant_3,2,memory-2step-stake-s,693,2660763,0.0-19.0-0.1-0.199,A25R6M1SRCDIYF,31KPKEKW5DTYWQJ2Z73D1GA4ZNDB00,37WLF8U1WT6XPN75XB1PY4Z8TX5K6Q,8,7
200,1,object_06,object_03,561.0,1,2,298.0,0.4444444444444444,1,object_01,5,3119,0,4,4,desert_3,2,memory-2step-stake-s,694,2668823,0.0-19.0-0.1-0.200,A25R6M1SRCDIYF,31KPKEKW5DTYWQJ2Z73D1GA4ZNDB00,37WLF8U1WT6XPN75XB1PY4Z8TX5K6Q,2,1
201,2,object_10,object_07,436.0,3,1,274.0,0.2222222222222222,1,object_01,5,3129,0,2,2,forest_1,2,memory-2step-stake-s,695,2676592,0.0-19.0-0.1-0.201,A25R6M1SRCDIYF,31KPKEKW5DTYWQJ2Z73D1GA4ZNDB00,37WLF8U1WT6XPN75XB1PY4Z8TX5K6Q,3,4
202,4,object_08,object_05,465.0,8,1,89.0,0.1111111111111111,2,object_02,1,3130,0,4,1,restaurant_8,2,memory-2step-stake-s,696,2684113,0.0-19.0-0.1-0.202,A25R6M1SRCDIYF,31KPKEKW5DTYWQJ2Z73D1GA4ZNDB00,37WLF8U1WT6XPN75XB1PY4Z8TX5K6Q,8,7
203,1,object_06,object_03,643.0,1,2,331.0,0.3333333333333333,1,object_01,5,3145,0,3,2,desert_5,2,memory-2step-stake-s,697,2692103,0.0-19.0-0.1-0.203,A25R6M1SRCDIYF,31KPKEKW5DTYWQJ2Z73D1GA4ZNDB00,37WLF8U1WT6XPN75XB1PY4Z8TX5K6Q,2,1
204,3,object_04,object_09,622.0,5,1,391.0,0.3333333333333333,1,object_01,5,3160,0,3,0,library_6,2,memory-2step-stake-s,698,2700142,0.0-19.0-0.1-0.204,A25R6M1SRCDIYF,31KPKEKW5DTYWQJ2Z73D1GA4ZNDB00,37WLF8U1WT6XPN75XB1PY4Z8TX5K6Q,5,6
205,3,object_09,object_04,468.0,5,2,651.0,0.4444444444444444,1,object_01,1,3164,0,4,1,library_4,2,memory-2step-stake-s,699,2708593,0.0-19.0-0.1-0.205,A25R6M1SRCDIYF,31KPKEKW5DTYWQJ2Z73D1GA4ZNDB00,37WLF8U1WT6XPN75XB1PY4Z8TX5K6Q,6,5
206,4,object_05,object_08,409.0,8,2,298.0,0.1111111111111111,2,object_02,5,3169,0,6,1,restaurant_5,2,memory-2step-stake-s,700,2716323,0.0-19.0-0.1-0.206,A25R6M1SRCDIYF,31KPKEKW5DTYWQJ2Z73D1GA4ZNDB00,37WLF8U1WT6XPN75XB1PY4Z8TX5K6Q,7,8
207,1,object_06,object_03,640.0,1,2,312.0,0.6666666666666666,1,object_01,5,3199,0,6,3,desert_5,2,memory-2step-stake-s,701,2724653,0.0-19.0-0.1-0.207,A25R6M1SRCDIYF,31KPKEKW5DTYWQJ2Z73D1GA4ZNDB00,37WLF8U1WT6XPN75XB1PY4Z8TX5K6Q,2,1
208,2,object_07,object_10,647.0,3,2,297.0,0.6666666666666666,1,object_01,1,3205,0,6,6,forest_3,2,memory-2step-stake-s,702,2732963,0.0-19.0-0.1-0.208,A25R6M1SRCDIYF,31KPKEKW5DTYWQJ2Z73D1GA4ZNDB00,37WLF8U1WT6XPN75XB1PY4Z8TX5K6Q,4,3
209,1,object_03,object_06,576.0,1,1,298.0,0.3333333333333333,1,object_01,5,3220,0,3,9,desert_4,2,memory-2step-stake-s,703,2740933,0.0-19.0-0.1-0.209,A25R6M1SRCDIYF,31KPKEKW5DTYWQJ2Z73D1GA4ZNDB00,37WLF8U1WT6XPN75XB1PY4Z8TX5K6Q,1,2
210,2,object_07,object_10,751.0,3,2,327.0,0.3333333333333333,1,object_01,5,3235,0,3,7,forest_2,2,memory-2step-stake-s,704,2748923,0.0-19.0-0.1-0.210,A25R6M1SRCDIYF,31KPKEKW5DTYWQJ2Z73D1GA4ZNDB00,37WLF8U1WT6XPN75XB1PY4Z8TX5K6Q,4,3
211,1,object_06,object_03,531.0,2,1,266.0,0.7777777777777778,2,object_02,5,3270,0,4,7,desert_3,2,memory-2step-stake-s,705,2757332,0.0-19.0-0.1-0.211,A25R6M1SRCDIYF,31KPKEKW5DTYWQJ2Z73D1GA4ZNDB00,37WLF8U1WT6XPN75XB1PY4Z8TX5K6Q,2,1
212,1,object_06,object_03,840.0,2,1,319.0,0.6666666666666666,2,object_02,5,3300,0,5,6,desert_4,2,memory-2step-stake-s,706,2765673,0.0-19.0-0.1-0.212,A25R6M1SRCDIYF,31KPKEKW5DTYWQJ2Z73D1GA4ZNDB00,37WLF8U1WT6XPN75XB1PY4Z8TX5K6Q,2,1
213,2,object_07,object_10,506.0,4,1,305.0,0.4444444444444444,2,object_02,5,3320,0,6,4,forest_3,2,memory-2step-stake-s,707,2773773,0.0-19.0-0.1-0.213,A25R6M1SRCDIYF,31KPKEKW5DTYWQJ2Z73D1GA4ZNDB00,37WLF8U1WT6XPN75XB1PY4Z8TX5K6Q,4,3
214,4,object_08,object_05,541.0,8,1,272.0,0.3333333333333333,2,object_02,5,3335,0,6,3,restaurant_3,2,memory-2step-stake-s,708,2781703,0.0-19.0-0.1-0.214,A25R6M1SRCDIYF,31KPKEKW5DTYWQJ2Z73D1GA4ZNDB00,37WLF8U1WT6XPN75XB1PY4Z8TX5K6Q,8,7
215,1,object_03,object_06,901.0,1,1,350.0,0.6666666666666666,1,object_01,1,3341,0,6,8,desert_5,2,memory-2step-stake-s,709,2790063,0.0-19.0-0.1-0.215,A25R6M1SRCDIYF,31KPKEKW5DTYWQJ2Z73D1GA4ZNDB00,37WLF8U1WT6XPN75XB1PY4Z8TX5K6Q,1,2
216,2,object_07,object_10,637.0,3,2,313.0,0.4444444444444444,1,object_01,5,3361,0,4,9,forest_3,2,memory-2step-stake-s,710,2798133,0.0-19.0-0.1-0.216,A25R6M1SRCDIYF,31KPKEKW5DTYWQJ2Z73D1GA4ZNDB00,37WLF8U1WT6XPN75XB1PY4Z8TX5K6Q,4,3
217,3,object_04,object_09,951.0,5,1,341.0,0.5555555555555556,1,object_01,1,3366,0,5,8,library_6,2,memory-2step-stake-s,711,2806363,0.0-19.0-0.1-0.217,A25R6M1SRCDIYF,31KPKEKW5DTYWQJ2Z73D1GA4ZNDB00,37WLF8U1WT6XPN75XB1PY4Z8TX5K6Q,5,6
218,2,object_10,object_07,737.0,3,1,272.0,0.3333333333333333,1,object_01,5,3381,0,3,6,forest_5,2,memory-2step-stake-s,712,2814273,0.0-19.0-0.1-0.218,A25R6M1SRCDIYF,31KPKEKW5DTYWQJ2Z73D1GA4ZNDB00,37WLF8U1WT6XPN75XB1PY4Z8TX5K6Q,3,4
219,1,object_06,object_03,661.0,1,2,102.0,0.3333333333333333,1,object_01,5,3396,0,3,4,desert_7,2,memory-2step-stake-s,713,2822003,0.0-19.0-0.1-0.219,A25R6M1SRCDIYF,31KPKEKW5DTYWQJ2Z73D1GA4ZNDB00,37WLF8U1WT6XPN75XB1PY4Z8TX5K6Q,2,1
220,1,object_03,object_06,596.0,2,2,284.0,0.3333333333333333,2,object_02,5,3411,0,1,3,desert_5,2,memory-2step-stake-s,714,2829953,0.0-19.0-0.1-0.220,A25R6M1SRCDIYF,31KPKEKW5DTYWQJ2Z73D1GA4ZNDB00,37WLF8U1WT6XPN75XB1PY4Z8TX5K6Q,1,2
221,4,object_08,object_05,635.0,8,1,292.0,0.3333333333333333,2,object_02,1,3414,0,0,3,restaurant_3,2,memory-2step-stake-s,715,2837864,0.0-19.0-0.1-0.221,A25R6M1SRCDIYF,31KPKEKW5DTYWQJ2Z73D1GA4ZNDB00,37WLF8U1WT6XPN75XB1PY4Z8TX5K6Q,8,7
222,1,object_03,object_06,804.0,1,1,267.0,0.0,1,object_01,5,3414,0,0,0,desert_4,2,memory-2step-stake-s,716,2845433,0.0-19.0-0.1-0.222,A25R6M1SRCDIYF,31KPKEKW5DTYWQJ2Z73D1GA4ZNDB00,37WLF8U1WT6XPN75XB1PY4Z8TX5K6Q,1,2
223,4,object_05,object_08,916.0,8,2,371.0,0.1111111111111111,2,object_02,1,3415,0,3,1,restaurant_3,2,memory-2step-stake-s,717,2853203,0.0-19.0-0.1-0.223,A25R6M1SRCDIYF,31KPKEKW5DTYWQJ2Z73D1GA4ZNDB00,37WLF8U1WT6XPN75XB1PY4Z8TX5K6Q,7,8
224,2,object_07,object_10,1000.0,4,1,1088.0,0.2222222222222222,2,object_02,5,3425,0,3,2,forest_2,2,memory-2step-stake-s,718,2861852,0.0-19.0-0.1-0.224,A25R6M1SRCDIYF,31KPKEKW5DTYWQJ2Z73D1GA4ZNDB00,37WLF8U1WT6XPN75XB1PY4Z8TX5K6Q,4,3
225,1,object_03,object_06,739.0,1,1,403.0,0.4444444444444444,1,object_01,5,3445,0,4,4,desert_3,2,memory-2step-stake-s,719,2869983,0.0-19.0-0.1-0.225,A25R6M1SRCDIYF,31KPKEKW5DTYWQJ2Z73D1GA4ZNDB00,37WLF8U1WT6XPN75XB1PY4Z8TX5K6Q,1,2
226,3,object_09,object_04,878.0,5,2,477.0,0.6666666666666666,1,object_01,1,3451,0,6,6,library_2,2,memory-2step-stake-s,720,2878403,0.0-19.0-0.1-0.226,A25R6M1SRCDIYF,31KPKEKW5DTYWQJ2Z73D1GA4ZNDB00,37WLF8U1WT6XPN75XB1PY4Z8TX5K6Q,6,5
227,1,object_06,object_03,890.0,2,1,-1.0,0.0,2,object_02,5,3451,0,4,7,desert_4,2,memory-2step-stake-s,721,2887013,0.0-19.0-0.1-0.227,A25R6M1SRCDIYF,31KPKEKW5DTYWQJ2Z73D1GA4ZNDB00,37WLF8U1WT6XPN75XB1PY4Z8TX5K6Q,2,1
228,4,object_05,object_08,447.0,7,1,282.0,0.6666666666666666,1,object_01,1,3457,0,6,5,restaurant_7,2,memory-2step-stake-s,722,2895263,0.0-19.0-0.1-0.228,A25R6M1SRCDIYF,31KPKEKW5DTYWQJ2Z73D1GA4ZNDB00,37WLF8U1WT6XPN75XB1PY4Z8TX5K6Q,7,8
229,3,object_09,object_04,976.0,5,2,282.0,0.4444444444444444,1,object_01,1,3461,0,4,3,library_6,2,memory-2step-stake-s,723,2903283,0.0-19.0-0.1-0.229,A25R6M1SRCDIYF,31KPKEKW5DTYWQJ2Z73D1GA4ZNDB00,37WLF8U1WT6XPN75XB1PY4Z8TX5K6Q,6,5
230,1,object_03,object_06,784.0,1,1,162.0,0.7777777777777778,1,object_01,5,3496,0,7,3,desert_5,2,memory-2step-stake-s,724,2911583,0.0-19.0-0.1-0.230,A25R6M1SRCDIYF,31KPKEKW5DTYWQJ2Z73D1GA4ZNDB00,37WLF8U1WT6XPN75XB1PY4Z8TX5K6Q,1,2
231,2,object_07,object_10,445.0,3,2,557.0,1.0,1,object_01,1,3505,0,9,1,forest_3,2,memory-2step-stake-s,725,2920483,0.0-19.0-0.1-0.231,A25R6M1SRCDIYF,31KPKEKW5DTYWQJ2Z73D1GA4ZNDB00,37WLF8U1WT6XPN75XB1PY4Z8TX5K6Q,4,3
232,3,object_04,object_09,825.0,5,1,320.0,0.7777777777777778,1,object_01,1,3512,0,7,1,library_7,2,memory-2step-stake-s,726,2928952,0.0-19.0-0.1-0.232,A25R6M1SRCDIYF,31KPKEKW5DTYWQJ2Z73D1GA4ZNDB00,37WLF8U1WT6XPN75XB1PY4Z8TX5K6Q,5,6
233,4,object_08,object_05,977.0,7,2,257.0,0.4444444444444444,1,object_01,1,3516,0,4,3,restaurant_5,2,memory-2step-stake-s,727,2937023,0.0-19.0-0.1-0.233,A25R6M1SRCDIYF,31KPKEKW5DTYWQJ2Z73D1GA4ZNDB00,37WLF8U1WT6XPN75XB1PY4Z8TX5K6Q,8,7
234,4,object_08,object_05,803.0,7,2,404.0,0.3333333333333333,1,object_01,1,3519,0,3,0,restaurant_3,2,memory-2step-stake-s,728,2945053,0.0-19.0-0.1-0.234,A25R6M1SRCDIYF,31KPKEKW5DTYWQJ2Z73D1GA4ZNDB00,37WLF8U1WT6XPN75XB1PY4Z8TX5K6Q,8,7
235,2,object_07,object_10,702.0,4,1,447.0,0.2222222222222222,2,object_02,5,3529,0,2,2,forest_1,2,memory-2step-stake-s,729,2953023,0.0-19.0-0.1-0.235,A25R6M1SRCDIYF,31KPKEKW5DTYWQJ2Z73D1GA4ZNDB00,37WLF8U1WT6XPN75XB1PY4Z8TX5K6Q,4,3
236,2,object_10,object_07,1077.0,4,2,819.0,0.5555555555555556,2,object_02,5,3554,0,4,5,forest_2,2,memory-2step-stake-s,730,2961723,0.0-19.0-0.1-0.236,A25R6M1SRCDIYF,31KPKEKW5DTYWQJ2Z73D1GA4ZNDB00,37WLF8U1WT6XPN75XB1PY4Z8TX5K6Q,3,4
237,1,object_06,object_03,351.0,2,1,163.0,0.7777777777777778,2,object_02,1,3561,0,3,7,desert_3,2,memory-2step-stake-s,731,2970013,0.0-19.0-0.1-0.237,A25R6M1SRCDIYF,31KPKEKW5DTYWQJ2Z73D1GA4ZNDB00,37WLF8U1WT6XPN75XB1PY4Z8TX5K6Q,2,1
238,3,object_04,object_09,398.0,6,2,319.0,0.7777777777777778,2,object_02,5,3596,0,2,7,library_2,2,memory-2step-stake-s,732,2978471,0.0-19.0-0.1-0.238,A25R6M1SRCDIYF,31KPKEKW5DTYWQJ2Z73D1GA4ZNDB00,37WLF8U1WT6XPN75XB1PY4Z8TX5K6Q,5,6
239,4,object_08,object_05,762.0,7,2,489.0,0.5555555555555556,1,object_01,1,3601,0,5,6,restaurant_5,2,memory-2step-stake-s,733,2986842,0.0-19.0-0.1-0.239,A25R6M1SRCDIYF,31KPKEKW5DTYWQJ2Z73D1GA4ZNDB00,37WLF8U1WT6XPN75XB1PY4Z8TX5K6Q,8,7
240,4,object_05,object_08,606.0,7,1,335.0,0.3333333333333333,1,object_01,5,3616,0,3,6,restaurant_7,2,memory-2step-stake-s,734,2994822,0.0-19.0-0.1-0.240,A25R6M1SRCDIYF,31KPKEKW5DTYWQJ2Z73D1GA4ZNDB00,37WLF8U1WT6XPN75XB1PY4Z8TX5K6Q,7,8
241,2,object_10,object_07,311.0,3,1,379.0,0.3333333333333333,1,object_01,5,3631,0,3,3,forest_3,2,memory-2step-stake-s,735,3002853,0.0-19.0-0.1-0.241,A25R6M1SRCDIYF,31KPKEKW5DTYWQJ2Z73D1GA4ZNDB00,37WLF8U1WT6XPN75XB1PY4Z8TX5K6Q,3,4
242,1,object_06,object_03,1111.0,1,2,-1.0,0.0,1,object_01,5,3631,0,3,2,desert_4,2,memory-2step-stake-s,736,3011443,0.0-19.0-0.1-0.242,A25R6M1SRCDIYF,31KPKEKW5DTYWQJ2Z73D1GA4ZNDB00,37WLF8U1WT6XPN75XB1PY4Z8TX5K6Q,2,1
243,4,object_05,object_08,506.0,8,2,888.0,0.6666666666666666,2,object_02,1,3637,0,3,6,restaurant_3,2,memory-2step-stake-s,737,3020353,0.0-19.0-0.1-0.243,A25R6M1SRCDIYF,31KPKEKW5DTYWQJ2Z73D1GA4ZNDB00,37WLF8U1WT6XPN75XB1PY4Z8TX5K6Q,7,8
244,4,object_08,object_05,-1.0,-1,-1,-1.0,0.0,-,0,1,3637,0,6,5,restaurant_3,2,memory-2step-stake-s,738,3026943,0.0-19.0-0.1-0.244,A25R6M1SRCDIYF,31KPKEKW5DTYWQJ2Z73D1GA4ZNDB00,37WLF8U1WT6XPN75XB1PY4Z8TX5K6Q,8,7
245,2,object_10,object_07,380.0,3,1,310.0,0.7777777777777778,1,object_01,5,3672,0,7,5,forest_3,2,memory-2step-stake-s,739,3035353,0.0-19.0-0.1-0.245,A25R6M1SRCDIYF,31KPKEKW5DTYWQJ2Z73D1GA4ZNDB00,37WLF8U1WT6XPN75XB1PY4Z8TX5K6Q,3,4
246,1,object_06,object_03,451.0,1,2,277.0,0.8888888888888888,1,object_01,5,3712,0,8,3,desert_4,2,memory-2step-stake-s,740,3043882,0.0-19.0-0.1-0.246,A25R6M1SRCDIYF,31KPKEKW5DTYWQJ2Z73D1GA4ZNDB00,37WLF8U1WT6XPN75XB1PY4Z8TX5K6Q,2,1
247,3,object_04,object_09,532.0,5,1,613.0,1.0,1,object_01,1,3721,0,9,4,library_7,2,memory-2step-stake-s,741,3052863,0.0-19.0-0.1-0.247,A25R6M1SRCDIYF,31KPKEKW5DTYWQJ2Z73D1GA4ZNDB00,37WLF8U1WT6XPN75XB1PY4Z8TX5K6Q,5,6
248,4,object_05,object_08,413.0,8,2,463.0,0.3333333333333333,2,object_02,1,3724,0,7,3,restaurant_8,2,memory-2step-stake-s,742,3060953,0.0-19.0-0.1-0.248,A25R6M1SRCDIYF,31KPKEKW5DTYWQJ2Z73D1GA4ZNDB00,37WLF8U1WT6XPN75XB1PY4Z8TX5K6Q,7,8
249,4,object_08,object_05,578.0,8,1,-1.0,0.0,2,object_02,1,3724,0,5,2,restaurant_7,2,memory-2step-stake-s,743,3069563,0.0-19.0-0.1-0.249,A25R6M1SRCDIYF,31KPKEKW5DTYWQJ2Z73D1GA4ZNDB00,37WLF8U1WT6XPN75XB1PY4Z8TX5K6Q,8,7
250,3,object_09,object_04,273.0,6,1,770.0,0.2222222222222222,2,object_02,1,3726,0,4,2,library_7,2,memory-2step-stake-s,744,3077873,0.0-19.0-0.1-0.250,A25R6M1SRCDIYF,31KPKEKW5DTYWQJ2Z73D1GA4ZNDB00,37WLF8U1WT6XPN75XB1PY4Z8TX5K6Q,6,5
251,1,object_03,object_06,865.0,1,1,284.0,0.4444444444444444,1,object_01,1,3730,0,4,1,desert_4,2,memory-2step-stake-s,745,3085903,0.0-19.0-0.1-0.251,A25R6M1SRCDIYF,31KPKEKW5DTYWQJ2Z73D1GA4ZNDB00,37WLF8U1WT6XPN75XB1PY4Z8TX5K6Q,1,2
252,4,object_08,object_05,493.0,7,2,247.0,0.4444444444444444,1,object_01,1,3734,0,4,0,restaurant_5,2,memory-2step-stake-s,746,3093934,0.0-19.0-0.1-0.252,A25R6M1SRCDIYF,31KPKEKW5DTYWQJ2Z73D1GA4ZNDB00,37WLF8U1WT6XPN75XB1PY4Z8TX5K6Q,8,7
253,3,object_09,object_04,841.0,5,2,272.0,0.4444444444444444,1,object_01,1,3738,0,4,2,library_4,2,memory-2step-stake-s,747,3101973,0.0-19.0-0.1-0.253,A25R6M1SRCDIYF,31KPKEKW5DTYWQJ2Z73D1GA4ZNDB00,37WLF8U1WT6XPN75XB1PY4Z8TX5K6Q,6,5
254,2,object_10,object_07,598.0,3,1,337.0,0.3333333333333333,1,object_01,5,3753,0,3,0,forest_1,2,memory-2step-stake-s,748,3109943,0.0-19.0-0.1-0.254,A25R6M1SRCDIYF,31KPKEKW5DTYWQJ2Z73D1GA4ZNDB00,37WLF8U1WT6XPN75XB1PY4Z8TX5K6Q,3,4
255,4,object_05,object_08,1133.0,8,2,275.0,0.1111111111111111,2,object_02,1,3754,0,3,1,restaurant_5,2,memory-2step-stake-s,749,3117672,0.0-19.0-0.1-0.255,A25R6M1SRCDIYF,31KPKEKW5DTYWQJ2Z73D1GA4ZNDB00,37WLF8U1WT6XPN75XB1PY4Z8TX5K6Q,7,8
