,state1,stim_left,stim_right,rt_1,choice1,response1,rt_2,points,state2,stim_state2,stake,score,practice,rews1,rews2,background,high_arm,trial_type,trial_index,time_elapsed,internal_node_id,subid,hitid,assignmentid,stim_left_num,stim_right_num
0,2,object_07,object_10,-1.0,-1,-1,-1.0,0.0,-,0,5,0,0,2,2,forest_4,2,memory-2step-stake-s,494,3086597,0.0-19.0-0.0-0.0,A28U7B76HLCS1U,3QX22DUVPRXA8IOFTTHB0PBO5I3MV1,3IXEICO796ZWS6XSRKFHZVM4CBDT6O,3,4
1,4,object_06,object_01,869.29999998212,8,2,-1.0,0.0,2,object_02,1,0,0,0,4,restaurant_3,2,memory-2step-stake-s,495,3095130,0.0-19.0-0.0-0.1,A28U7B76HLCS1U,3QX22DUVPRXA8IOFTTHB0PBO5I3MV1,3IXEICO796ZWS6XSRKFHZVM4CBDT6O,7,8
2,1,object_09,object_03,732.30000001192,1,1,-1.0,0.0,1,object_04,1,0,0,0,6,desert_3,2,memory-2step-stake-s,496,3103644,0.0-19.0-0.0-0.2,A28U7B76HLCS1U,3QX22DUVPRXA8IOFTTHB0PBO5I3MV1,3IXEICO796ZWS6XSRKFHZVM4CBDT6O,1,2
3,2,object_10,object_07,396.90000000596,3,2,405.90000000596,0.1111111111111111,1,object_04,5,5,0,1,3,forest_4,2,memory-2step-stake-s,497,3111391,0.0-19.0-0.0-0.3,A28U7B76HLCS1U,3QX22DUVPRXA8IOFTTHB0PBO5I3MV1,3IXEICO796ZWS6XSRKFHZVM4CBDT6O,4,3
4,2,object_07,object_10,300.59999999404,3,1,648.59999999404,0.1111111111111111,1,object_04,5,10,0,1,6,forest_2,2,memory-2step-stake-s,498,3119357,0.0-19.0-0.0-0.4,A28U7B76HLCS1U,3QX22DUVPRXA8IOFTTHB0PBO5I3MV1,3IXEICO796ZWS6XSRKFHZVM4CBDT6O,3,4
5,1,object_09,object_03,338.09999999404,2,2,452.59999999404,0.7777777777777778,2,object_02,5,45,0,1,7,desert_3,2,memory-2step-stake-s,499,3127748,0.0-19.0-0.0-0.5,A28U7B76HLCS1U,3QX22DUVPRXA8IOFTTHB0PBO5I3MV1,3IXEICO796ZWS6XSRKFHZVM4CBDT6O,1,2
6,1,object_09,object_03,486.30000001192,2,2,473.59999999404,0.7777777777777778,2,object_02,5,80,0,2,7,desert_4,2,memory-2step-stake-s,500,3136161,0.0-19.0-0.0-0.6,A28U7B76HLCS1U,3QX22DUVPRXA8IOFTTHB0PBO5I3MV1,3IXEICO796ZWS6XSRKFHZVM4CBDT6O,1,2
7,4,object_06,object_01,596.59999999404,8,2,358.5,0.5555555555555556,2,object_02,1,85,0,2,5,restaurant_3,2,memory-2step-stake-s,501,3144260,0.0-19.0-0.0-0.7,A28U7B76HLCS1U,3QX22DUVPRXA8IOFTTHB0PBO5I3MV1,3IXEICO796ZWS6XSRKFHZVM4CBDT6O,7,8
8,4,object_01,object_06,297.59999999404,8,1,542.40000000596,0.3333333333333333,2,object_02,5,100,0,2,3,restaurant_6,2,memory-2step-stake-s,502,3152322,0.0-19.0-0.0-0.8,A28U7B76HLCS1U,3QX22DUVPRXA8IOFTTHB0PBO5I3MV1,3IXEICO796ZWS6XSRKFHZVM4CBDT6O,8,7
9,1,object_03,object_09,646.5,2,1,329.20000001788,0.3333333333333333,2,object_02,5,115,0,0,3,desert_6,2,memory-2step-stake-s,503,3160177,0.0-19.0-0.0-0.9,A28U7B76HLCS1U,3QX22DUVPRXA8IOFTTHB0PBO5I3MV1,3IXEICO796ZWS6XSRKFHZVM4CBDT6O,2,1
10,4,object_06,object_01,517.69999998808,7,1,387.30000001192,0.2222222222222222,1,object_04,1,117,0,2,3,restaurant_8,2,memory-2step-stake-s,504,3167991,0.0-19.0-0.0-0.10,A28U7B76HLCS1U,3QX22DUVPRXA8IOFTTHB0PBO5I3MV1,3IXEICO796ZWS6XSRKFHZVM4CBDT6O,7,8
11,3,object_05,object_08,681.79999998212,6,2,467.69999998808,0.1111111111111111,2,object_02,1,118,0,1,1,library_4,2,memory-2step-stake-s,505,3175771,0.0-19.0-0.0-0.11,A28U7B76HLCS1U,3QX22DUVPRXA8IOFTTHB0PBO5I3MV1,3IXEICO796ZWS6XSRKFHZVM4CBDT6O,5,6
12,1,object_03,object_09,752.59999999404,2,1,418.90000000596,0.4444444444444444,2,object_02,5,138,0,0,4,desert_3,2,memory-2step-stake-s,506,3183829,0.0-19.0-0.0-0.12,A28U7B76HLCS1U,3QX22DUVPRXA8IOFTTHB0PBO5I3MV1,3IXEICO796ZWS6XSRKFHZVM4CBDT6O,2,1
13,2,object_07,object_10,556.40000000596,3,1,399.09999999404,0.4444444444444444,1,object_04,5,158,0,4,6,forest_7,2,memory-2step-stake-s,507,3191850,0.0-19.0-0.0-0.13,A28U7B76HLCS1U,3QX22DUVPRXA8IOFTTHB0PBO5I3MV1,3IXEICO796ZWS6XSRKFHZVM4CBDT6O,3,4
14,2,object_07,object_10,504.09999999404,3,1,292.40000000596,0.7777777777777778,1,object_04,5,193,0,7,6,forest_3,2,memory-2step-stake-s,508,3200091,0.0-19.0-0.0-0.14,A28U7B76HLCS1U,3QX22DUVPRXA8IOFTTHB0PBO5I3MV1,3IXEICO796ZWS6XSRKFHZVM4CBDT6O,3,4
15,3,object_08,object_05,505.70000001788,6,1,254.0,0.4444444444444444,2,object_02,1,197,0,6,4,library_2,2,memory-2step-stake-s,509,3207984,0.0-19.0-0.0-0.15,A28U7B76HLCS1U,3QX22DUVPRXA8IOFTTHB0PBO5I3MV1,3IXEICO796ZWS6XSRKFHZVM4CBDT6O,6,5
16,1,object_03,object_09,583.5,1,2,282.79999998212,0.3333333333333333,1,object_04,5,212,0,3,5,desert_6,2,memory-2step-stake-s,510,3215786,0.0-19.0-0.0-0.16,A28U7B76HLCS1U,3QX22DUVPRXA8IOFTTHB0PBO5I3MV1,3IXEICO796ZWS6XSRKFHZVM4CBDT6O,2,1
17,1,object_03,object_09,591.10000002384,2,1,352.60000002384,0.0,2,object_02,5,212,0,4,0,desert_6,2,memory-2step-stake-s,511,3223351,0.0-19.0-0.0-0.17,A28U7B76HLCS1U,3QX22DUVPRXA8IOFTTHB0PBO5I3MV1,3IXEICO796ZWS6XSRKFHZVM4CBDT6O,2,1
18,4,object_01,object_06,480.59999999404,7,2,379.80000001192,0.3333333333333333,1,object_04,5,227,0,3,0,restaurant_6,2,memory-2step-stake-s,512,3231249,0.0-19.0-0.0-0.18,A28U7B76HLCS1U,3QX22DUVPRXA8IOFTTHB0PBO5I3MV1,3IXEICO796ZWS6XSRKFHZVM4CBDT6O,8,7
19,2,object_07,object_10,543.69999998808,3,1,303.80000001192,0.3333333333333333,1,object_04,5,242,0,3,3,forest_2,2,memory-2step-stake-s,513,3239069,0.0-19.0-0.0-0.19,A28U7B76HLCS1U,3QX22DUVPRXA8IOFTTHB0PBO5I3MV1,3IXEICO796ZWS6XSRKFHZVM4CBDT6O,3,4
20,2,object_10,object_07,371.59999999404,3,2,343.5,0.4444444444444444,1,object_04,1,246,0,4,1,forest_2,2,memory-2step-stake-s,514,3247031,0.0-19.0-0.0-0.20,A28U7B76HLCS1U,3QX22DUVPRXA8IOFTTHB0PBO5I3MV1,3IXEICO796ZWS6XSRKFHZVM4CBDT6O,4,3
21,1,object_03,object_09,450.90000000596,2,1,308.30000001192,0.2222222222222222,2,object_02,5,256,0,8,2,desert_8,2,memory-2step-stake-s,515,3254764,0.0-19.0-0.0-0.21,A28U7B76HLCS1U,3QX22DUVPRXA8IOFTTHB0PBO5I3MV1,3IXEICO796ZWS6XSRKFHZVM4CBDT6O,2,1
22,3,object_05,object_08,771.19999998808,5,1,448.90000000596,0.5555555555555556,1,object_04,1,261,0,5,5,library_2,2,memory-2step-stake-s,516,3262948,0.0-19.0-0.0-0.22,A28U7B76HLCS1U,3QX22DUVPRXA8IOFTTHB0PBO5I3MV1,3IXEICO796ZWS6XSRKFHZVM4CBDT6O,5,6
23,1,object_03,object_09,692.19999998808,2,1,271.59999999404,0.3333333333333333,2,object_02,5,276,0,5,3,desert_4,2,memory-2step-stake-s,517,3270738,0.0-19.0-0.0-0.23,A28U7B76HLCS1U,3QX22DUVPRXA8IOFTTHB0PBO5I3MV1,3IXEICO796ZWS6XSRKFHZVM4CBDT6O,2,1
24,2,object_07,object_10,542.69999998808,3,1,266.09999999404,0.2222222222222222,1,object_04,1,278,0,2,2,forest_7,2,memory-2step-stake-s,518,3278417,0.0-19.0-0.0-0.24,A28U7B76HLCS1U,3QX22DUVPRXA8IOFTTHB0PBO5I3MV1,3IXEICO796ZWS6XSRKFHZVM4CBDT6O,3,4
25,2,object_10,object_07,624.59999999404,3,2,386.69999998808,0.3333333333333333,1,object_04,5,293,0,3,6,forest_7,2,memory-2step-stake-s,519,3286318,0.0-19.0-0.0-0.25,A28U7B76HLCS1U,3QX22DUVPRXA8IOFTTHB0PBO5I3MV1,3IXEICO796ZWS6XSRKFHZVM4CBDT6O,4,3
26,4,object_06,object_01,825.0,7,1,349.80000001192,0.4444444444444444,1,object_04,5,313,0,4,7,restaurant_1,2,memory-2step-stake-s,520,3294288,0.0-19.0-0.0-0.26,A28U7B76HLCS1U,3QX22DUVPRXA8IOFTTHB0PBO5I3MV1,3IXEICO796ZWS6XSRKFHZVM4CBDT6O,7,8
27,3,object_05,object_08,720.0,6,2,411.09999999404,0.7777777777777778,2,object_02,1,320,0,3,7,library_7,2,memory-2step-stake-s,521,3302621,0.0-19.0-0.0-0.27,A28U7B76HLCS1U,3QX22DUVPRXA8IOFTTHB0PBO5I3MV1,3IXEICO796ZWS6XSRKFHZVM4CBDT6O,5,6
28,3,object_05,object_08,457.69999998808,6,2,378.79999998212,0.8888888888888888,2,object_02,1,328,0,7,8,library_7,2,memory-2step-stake-s,522,3311039,0.0-19.0-0.0-0.28,A28U7B76HLCS1U,3QX22DUVPRXA8IOFTTHB0PBO5I3MV1,3IXEICO796ZWS6XSRKFHZVM4CBDT6O,5,6
29,3,object_05,object_08,505.80000001192,6,2,318.40000000596,0.5555555555555556,2,object_02,1,333,0,8,5,library_2,2,memory-2step-stake-s,523,3319090,0.0-19.0-0.0-0.29,A28U7B76HLCS1U,3QX22DUVPRXA8IOFTTHB0PBO5I3MV1,3IXEICO796ZWS6XSRKFHZVM4CBDT6O,5,6
30,4,object_01,object_06,775.40000000596,7,2,483.30000001192,0.6666666666666666,1,object_04,1,339,0,6,1,restaurant_8,2,memory-2step-stake-s,524,3327393,0.0-19.0-0.0-0.30,A28U7B76HLCS1U,3QX22DUVPRXA8IOFTTHB0PBO5I3MV1,3IXEICO796ZWS6XSRKFHZVM4CBDT6O,8,7
31,2,object_10,object_07,491.5,4,1,502.59999999404,0.4444444444444444,2,object_02,5,359,0,9,4,forest_2,2,memory-2step-stake-s,525,3335528,0.0-19.0-0.0-0.31,A28U7B76HLCS1U,3QX22DUVPRXA8IOFTTHB0PBO5I3MV1,3IXEICO796ZWS6XSRKFHZVM4CBDT6O,4,3
32,3,object_05,object_08,501.0,6,2,287.69999998808,0.7777777777777778,2,object_02,1,366,0,7,7,library_4,2,memory-2step-stake-s,526,3343767,0.0-19.0-0.0-0.32,A28U7B76HLCS1U,3QX22DUVPRXA8IOFTTHB0PBO5I3MV1,3IXEICO796ZWS6XSRKFHZVM4CBDT6O,5,6
33,1,object_09,object_03,884.09999999404,2,2,462.0,0.5555555555555556,2,object_02,5,391,0,8,5,desert_8,2,memory-2step-stake-s,527,3351953,0.0-19.0-0.0-0.33,A28U7B76HLCS1U,3QX22DUVPRXA8IOFTTHB0PBO5I3MV1,3IXEICO796ZWS6XSRKFHZVM4CBDT6O,1,2
34,3,object_05,object_08,496.40000000596,6,2,394.80000001192,0.6666666666666666,2,object_02,1,397,0,8,6,library_7,2,memory-2step-stake-s,528,3360166,0.0-19.0-0.0-0.34,A28U7B76HLCS1U,3QX22DUVPRXA8IOFTTHB0PBO5I3MV1,3IXEICO796ZWS6XSRKFHZVM4CBDT6O,5,6
35,2,object_10,object_07,604.19999998808,3,2,311.40000000596,0.7777777777777778,1,object_04,1,404,0,7,4,forest_3,2,memory-2step-stake-s,529,3368411,0.0-19.0-0.0-0.35,A28U7B76HLCS1U,3QX22DUVPRXA8IOFTTHB0PBO5I3MV1,3IXEICO796ZWS6XSRKFHZVM4CBDT6O,4,3
36,4,object_06,object_01,837.09999999404,7,1,575.40000000596,0.5555555555555556,1,object_04,1,409,0,5,6,restaurant_6,2,memory-2step-stake-s,530,3376707,0.0-19.0-0.0-0.36,A28U7B76HLCS1U,3QX22DUVPRXA8IOFTTHB0PBO5I3MV1,3IXEICO796ZWS6XSRKFHZVM4CBDT6O,7,8
37,4,object_06,object_01,638.30000001192,7,1,511.90000000596,0.8888888888888888,1,object_04,5,449,0,8,6,restaurant_1,2,memory-2step-stake-s,531,3385246,0.0-19.0-0.0-0.37,A28U7B76HLCS1U,3QX22DUVPRXA8IOFTTHB0PBO5I3MV1,3IXEICO796ZWS6XSRKFHZVM4CBDT6O,7,8
38,4,object_06,object_01,753.5,7,1,291.20000001788,1.0,1,object_04,1,458,0,9,8,restaurant_3,2,memory-2step-stake-s,532,3393666,0.0-19.0-0.0-0.38,A28U7B76HLCS1U,3QX22DUVPRXA8IOFTTHB0PBO5I3MV1,3IXEICO796ZWS6XSRKFHZVM4CBDT6O,7,8
39,3,object_08,object_05,1120.099999994,6,1,377.90000000596,0.6666666666666666,2,object_02,1,464,0,8,6,library_4,2,memory-2step-stake-s,533,3401882,0.0-19.0-0.0-0.39,A28U7B76HLCS1U,3QX22DUVPRXA8IOFTTHB0PBO5I3MV1,3IXEICO796ZWS6XSRKFHZVM4CBDT6O,6,5
40,4,object_06,object_01,666.29999998212,7,1,333.0,1.0,1,object_04,1,473,0,9,8,restaurant_8,2,memory-2step-stake-s,534,3410339,0.0-19.0-0.0-0.40,A28U7B76HLCS1U,3QX22DUVPRXA8IOFTTHB0PBO5I3MV1,3IXEICO796ZWS6XSRKFHZVM4CBDT6O,7,8
41,2,object_10,object_07,622.09999999404,3,2,336.40000000596,0.8888888888888888,1,object_04,5,513,0,8,9,forest_2,2,memory-2step-stake-s,535,3418695,0.0-19.0-0.0-0.41,A28U7B76HLCS1U,3QX22DUVPRXA8IOFTTHB0PBO5I3MV1,3IXEICO796ZWS6XSRKFHZVM4CBDT6O,4,3
42,2,object_07,object_10,601.70000001788,3,1,98.799999982119,0.6666666666666666,1,object_04,5,543,0,6,7,forest_7,2,memory-2step-stake-s,536,3426628,0.0-19.0-0.0-0.42,A28U7B76HLCS1U,3QX22DUVPRXA8IOFTTHB0PBO5I3MV1,3IXEICO796ZWS6XSRKFHZVM4CBDT6O,3,4
43,1,object_09,object_03,924.0,1,1,262.29999998212,0.8888888888888888,1,object_04,5,583,0,8,5,desert_4,2,memory-2step-stake-s,537,3434945,0.0-19.0-0.0-0.43,A28U7B76HLCS1U,3QX22DUVPRXA8IOFTTHB0PBO5I3MV1,3IXEICO796ZWS6XSRKFHZVM4CBDT6O,1,2
44,2,object_10,object_07,544.19999998808,3,2,332.29999998212,0.8888888888888888,1,object_04,5,623,0,8,3,forest_4,2,memory-2step-stake-s,538,3443300,0.0-19.0-0.0-0.44,A28U7B76HLCS1U,3QX22DUVPRXA8IOFTTHB0PBO5I3MV1,3IXEICO796ZWS6XSRKFHZVM4CBDT6O,4,3
45,2,object_07,object_10,691.5,3,1,373.09999999404,0.6666666666666666,1,object_04,5,653,0,6,3,forest_3,2,memory-2step-stake-s,539,3451501,0.0-19.0-0.0-0.45,A28U7B76HLCS1U,3QX22DUVPRXA8IOFTTHB0PBO5I3MV1,3IXEICO796ZWS6XSRKFHZVM4CBDT6O,3,4
46,4,object_06,object_01,595.40000000596,7,1,428.80000001192,0.5555555555555556,1,object_04,1,658,0,5,5,restaurant_6,2,memory-2step-stake-s,540,3459651,0.0-19.0-0.0-0.46,A28U7B76HLCS1U,3QX22DUVPRXA8IOFTTHB0PBO5I3MV1,3IXEICO796ZWS6XSRKFHZVM4CBDT6O,7,8
47,3,object_05,object_08,540.69999998808,6,2,430.79999998212,0.6666666666666666,2,object_02,1,664,0,4,6,library_4,2,memory-2step-stake-s,541,3467913,0.0-19.0-0.0-0.47,A28U7B76HLCS1U,3QX22DUVPRXA8IOFTTHB0PBO5I3MV1,3IXEICO796ZWS6XSRKFHZVM4CBDT6O,5,6
48,1,object_09,object_03,847.90000000596,1,1,330.70000001788,0.1111111111111111,1,object_04,1,665,0,1,6,desert_8,2,memory-2step-stake-s,542,3475556,0.0-19.0-0.0-0.48,A28U7B76HLCS1U,3QX22DUVPRXA8IOFTTHB0PBO5I3MV1,3IXEICO796ZWS6XSRKFHZVM4CBDT6O,1,2
49,4,object_01,object_06,722.79999998212,8,1,359.5,0.6666666666666666,2,object_02,5,695,0,2,6,restaurant_8,2,memory-2step-stake-s,543,3483755,0.0-19.0-0.0-0.49,A28U7B76HLCS1U,3QX22DUVPRXA8IOFTTHB0PBO5I3MV1,3IXEICO796ZWS6XSRKFHZVM4CBDT6O,8,7
50,1,object_09,object_03,846.09999999404,1,1,304.79999998212,0.5555555555555556,1,object_04,5,720,0,5,6,desert_3,2,memory-2step-stake-s,544,3491775,0.0-19.0-0.0-0.50,A28U7B76HLCS1U,3QX22DUVPRXA8IOFTTHB0PBO5I3MV1,3IXEICO796ZWS6XSRKFHZVM4CBDT6O,1,2
51,4,object_06,object_01,710.79999998212,8,2,496.90000000596,1.0,2,object_02,1,729,0,5,9,restaurant_6,2,memory-2step-stake-s,545,3500414,0.0-19.0-0.0-0.51,A28U7B76HLCS1U,3QX22DUVPRXA8IOFTTHB0PBO5I3MV1,3IXEICO796ZWS6XSRKFHZVM4CBDT6O,7,8
52,4,object_06,object_01,474.60000002384,8,2,312.0,0.8888888888888888,2,object_02,1,737,0,6,8,restaurant_1,2,memory-2step-stake-s,546,3508753,0.0-19.0-0.0-0.52,A28U7B76HLCS1U,3QX22DUVPRXA8IOFTTHB0PBO5I3MV1,3IXEICO796ZWS6XSRKFHZVM4CBDT6O,7,8
53,2,object_10,object_07,639.10000002384,3,2,313.5,0.7777777777777778,1,object_04,5,772,0,7,8,forest_2,2,memory-2step-stake-s,547,3516987,0.0-19.0-0.0-0.53,A28U7B76HLCS1U,3QX22DUVPRXA8IOFTTHB0PBO5I3MV1,3IXEICO796ZWS6XSRKFHZVM4CBDT6O,4,3
54,4,object_06,object_01,724.5,8,2,592.59999999404,1.0,2,object_02,1,781,0,8,9,restaurant_1,2,memory-2step-stake-s,548,3525703,0.0-19.0-0.0-0.54,A28U7B76HLCS1U,3QX22DUVPRXA8IOFTTHB0PBO5I3MV1,3IXEICO796ZWS6XSRKFHZVM4CBDT6O,7,8
55,4,object_01,object_06,704.90000000596,8,1,314.59999999404,0.7777777777777778,2,object_02,1,788,0,9,7,restaurant_8,2,memory-2step-stake-s,549,3533939,0.0-19.0-0.0-0.55,A28U7B76HLCS1U,3QX22DUVPRXA8IOFTTHB0PBO5I3MV1,3IXEICO796ZWS6XSRKFHZVM4CBDT6O,8,7
56,1,object_09,object_03,502.30000001192,1,1,320.69999998808,0.7777777777777778,1,object_04,5,823,0,7,8,desert_8,2,memory-2step-stake-s,550,3542197,0.0-19.0-0.0-0.56,A28U7B76HLCS1U,3QX22DUVPRXA8IOFTTHB0PBO5I3MV1,3IXEICO796ZWS6XSRKFHZVM4CBDT6O,1,2
57,4,object_01,object_06,466.09999999404,8,1,270.59999999404,0.8888888888888888,2,object_02,1,831,0,7,8,restaurant_6,2,memory-2step-stake-s,551,3550488,0.0-19.0-0.0-0.57,A28U7B76HLCS1U,3QX22DUVPRXA8IOFTTHB0PBO5I3MV1,3IXEICO796ZWS6XSRKFHZVM4CBDT6O,8,7
58,2,object_07,object_10,591.5,3,1,337.29999998212,0.6666666666666666,1,object_04,5,861,0,6,7,forest_3,2,memory-2step-stake-s,552,3558652,0.0-19.0-0.0-0.58,A28U7B76HLCS1U,3QX22DUVPRXA8IOFTTHB0PBO5I3MV1,3IXEICO796ZWS6XSRKFHZVM4CBDT6O,3,4
59,2,object_10,object_07,489.0,3,2,451.29999998212,0.4444444444444444,1,object_04,5,881,0,4,6,forest_3,2,memory-2step-stake-s,553,3566724,0.0-19.0-0.0-0.59,A28U7B76HLCS1U,3QX22DUVPRXA8IOFTTHB0PBO5I3MV1,3IXEICO796ZWS6XSRKFHZVM4CBDT6O,4,3
60,2,object_07,object_10,549.40000000596,3,1,375.90000000596,0.3333333333333333,1,object_04,5,896,0,3,8,forest_7,2,memory-2step-stake-s,554,3574616,0.0-19.0-0.0-0.60,A28U7B76HLCS1U,3QX22DUVPRXA8IOFTTHB0PBO5I3MV1,3IXEICO796ZWS6XSRKFHZVM4CBDT6O,3,4
61,3,object_08,object_05,664.20000001788,6,1,329.79999998212,0.6666666666666666,2,object_02,1,902,0,3,6,library_2,2,memory-2step-stake-s,555,3582773,0.0-19.0-0.0-0.61,A28U7B76HLCS1U,3QX22DUVPRXA8IOFTTHB0PBO5I3MV1,3IXEICO796ZWS6XSRKFHZVM4CBDT6O,6,5
62,4,object_01,object_06,584.29999998212,8,1,1090.900000006,0.5555555555555556,2,object_02,1,907,0,2,5,restaurant_1,2,memory-2step-stake-s,556,3591591,0.0-19.0-0.0-0.62,A28U7B76HLCS1U,3QX22DUVPRXA8IOFTTHB0PBO5I3MV1,3IXEICO796ZWS6XSRKFHZVM4CBDT6O,8,7
63,2,object_10,object_07,602.59999999404,3,2,679.90000000596,0.3333333333333333,1,object_04,5,922,0,3,7,forest_3,2,memory-2step-stake-s,557,3599796,0.0-19.0-0.0-0.63,A28U7B76HLCS1U,3QX22DUVPRXA8IOFTTHB0PBO5I3MV1,3IXEICO796ZWS6XSRKFHZVM4CBDT6O,4,3
64,4,object_06,object_01,482.60000002384,7,1,252.5,0.0,1,object_04,1,922,0,0,7,restaurant_6,2,memory-2step-stake-s,558,3607263,0.0-19.0-0.0-0.64,A28U7B76HLCS1U,3QX22DUVPRXA8IOFTTHB0PBO5I3MV1,3IXEICO796ZWS6XSRKFHZVM4CBDT6O,7,8
65,1,object_09,object_03,830.40000000596,1,1,376.80000001192,0.0,1,object_04,1,922,0,0,6,desert_4,2,memory-2step-stake-s,559,3614857,0.0-19.0-0.0-0.65,A28U7B76HLCS1U,3QX22DUVPRXA8IOFTTHB0PBO5I3MV1,3IXEICO796ZWS6XSRKFHZVM4CBDT6O,1,2
66,2,object_10,object_07,622.69999998808,3,2,169.10000002384,0.0,1,object_04,5,922,0,0,8,forest_7,2,memory-2step-stake-s,560,3622244,0.0-19.0-0.0-0.66,A28U7B76HLCS1U,3QX22DUVPRXA8IOFTTHB0PBO5I3MV1,3IXEICO796ZWS6XSRKFHZVM4CBDT6O,4,3
67,4,object_06,object_01,898.69999998808,8,2,373.09999999404,0.8888888888888888,2,object_02,1,930,0,1,8,restaurant_6,2,memory-2step-stake-s,561,3630642,0.0-19.0-0.0-0.67,A28U7B76HLCS1U,3QX22DUVPRXA8IOFTTHB0PBO5I3MV1,3IXEICO796ZWS6XSRKFHZVM4CBDT6O,7,8
68,3,object_08,object_05,619.0,6,1,399.20000001788,1.0,2,object_02,1,939,0,0,9,library_4,2,memory-2step-stake-s,562,3639165,0.0-19.0-0.0-0.68,A28U7B76HLCS1U,3QX22DUVPRXA8IOFTTHB0PBO5I3MV1,3IXEICO796ZWS6XSRKFHZVM4CBDT6O,6,5
69,2,object_10,object_07,676.29999998212,3,2,412.59999999404,0.0,1,object_04,5,939,0,0,9,forest_4,2,memory-2step-stake-s,563,3646795,0.0-19.0-0.0-0.69,A28U7B76HLCS1U,3QX22DUVPRXA8IOFTTHB0PBO5I3MV1,3IXEICO796ZWS6XSRKFHZVM4CBDT6O,4,3
70,1,object_03,object_09,723.30000001192,1,2,326.0,0.3333333333333333,1,object_04,5,954,0,3,2,desert_4,2,memory-2step-stake-s,564,3654638,0.0-19.0-0.0-0.70,A28U7B76HLCS1U,3QX22DUVPRXA8IOFTTHB0PBO5I3MV1,3IXEICO796ZWS6XSRKFHZVM4CBDT6O,2,1
71,3,object_05,object_08,599.20000001788,6,2,402.20000001788,0.2222222222222222,2,object_02,1,956,0,4,2,library_4,2,memory-2step-stake-s,565,3662457,0.0-19.0-0.0-0.71,A28U7B76HLCS1U,3QX22DUVPRXA8IOFTTHB0PBO5I3MV1,3IXEICO796ZWS6XSRKFHZVM4CBDT6O,5,6
72,1,object_03,object_09,445.80000001192,2,1,314.5,0.4444444444444444,2,object_02,5,976,0,5,4,desert_6,2,memory-2step-stake-s,566,3670402,0.0-19.0-0.0-0.72,A28U7B76HLCS1U,3QX22DUVPRXA8IOFTTHB0PBO5I3MV1,3IXEICO796ZWS6XSRKFHZVM4CBDT6O,2,1
73,1,object_09,object_03,435.80000001192,1,1,503.29999998212,0.3333333333333333,1,object_04,5,991,0,3,2,desert_8,2,memory-2step-stake-s,567,3678451,0.0-19.0-0.0-0.73,A28U7B76HLCS1U,3QX22DUVPRXA8IOFTTHB0PBO5I3MV1,3IXEICO796ZWS6XSRKFHZVM4CBDT6O,1,2
74,1,object_09,object_03,461.90000000596,2,2,233.5,0.5555555555555556,2,object_02,5,1016,0,3,5,desert_8,2,memory-2step-stake-s,568,3686400,0.0-19.0-0.0-0.74,A28U7B76HLCS1U,3QX22DUVPRXA8IOFTTHB0PBO5I3MV1,3IXEICO796ZWS6XSRKFHZVM4CBDT6O,1,2
75,3,object_05,object_08,479.20000001788,6,2,274.80000001192,0.7777777777777778,2,object_02,5,1051,0,0,7,library_2,2,memory-2step-stake-s,569,3694598,0.0-19.0-0.0-0.75,A28U7B76HLCS1U,3QX22DUVPRXA8IOFTTHB0PBO5I3MV1,3IXEICO796ZWS6XSRKFHZVM4CBDT6O,5,6
76,2,object_07,object_10,675.59999999404,4,2,357.59999999404,0.8888888888888888,2,object_02,5,1091,0,0,8,forest_2,2,memory-2step-stake-s,570,3702974,0.0-19.0-0.0-0.76,A28U7B76HLCS1U,3QX22DUVPRXA8IOFTTHB0PBO5I3MV1,3IXEICO796ZWS6XSRKFHZVM4CBDT6O,3,4
77,4,object_06,object_01,698.30000001192,8,2,364.90000000596,0.6666666666666666,2,object_02,1,1097,0,1,6,restaurant_3,2,memory-2step-stake-s,571,3711168,0.0-19.0-0.0-0.77,A28U7B76HLCS1U,3QX22DUVPRXA8IOFTTHB0PBO5I3MV1,3IXEICO796ZWS6XSRKFHZVM4CBDT6O,7,8
78,4,object_06,object_01,544.59999999404,8,2,308.0,0.6666666666666666,2,object_02,1,1103,0,2,6,restaurant_1,2,memory-2step-stake-s,572,3719298,0.0-19.0-0.0-0.78,A28U7B76HLCS1U,3QX22DUVPRXA8IOFTTHB0PBO5I3MV1,3IXEICO796ZWS6XSRKFHZVM4CBDT6O,7,8
79,1,object_09,object_03,680.5,2,2,275.70000001788,0.8888888888888888,2,object_02,5,1143,0,3,8,desert_8,2,memory-2step-stake-s,573,3727592,0.0-19.0-0.0-0.79,A28U7B76HLCS1U,3QX22DUVPRXA8IOFTTHB0PBO5I3MV1,3IXEICO796ZWS6XSRKFHZVM4CBDT6O,1,2
80,2,object_10,object_07,865.59999999404,4,1,372.70000001788,1.0,2,object_02,5,1188,0,4,9,forest_3,2,memory-2step-stake-s,574,3736085,0.0-19.0-0.0-0.80,A28U7B76HLCS1U,3QX22DUVPRXA8IOFTTHB0PBO5I3MV1,3IXEICO796ZWS6XSRKFHZVM4CBDT6O,4,3
81,2,object_10,object_07,411.39999997616,4,1,455.5,1.0,2,object_02,5,1233,0,3,9,forest_3,2,memory-2step-stake-s,575,3744665,0.0-19.0-0.0-0.81,A28U7B76HLCS1U,3QX22DUVPRXA8IOFTTHB0PBO5I3MV1,3IXEICO796ZWS6XSRKFHZVM4CBDT6O,4,3
82,2,object_10,object_07,413.40000000596,4,1,207.30000001192,0.7777777777777778,2,object_02,5,1268,0,5,7,forest_4,2,memory-2step-stake-s,576,3752798,0.0-19.0-0.0-0.82,A28U7B76HLCS1U,3QX22DUVPRXA8IOFTTHB0PBO5I3MV1,3IXEICO796ZWS6XSRKFHZVM4CBDT6O,4,3
83,2,object_10,object_07,592.90000000596,4,1,275.59999999404,0.7777777777777778,2,object_02,5,1303,0,5,7,forest_2,2,memory-2step-stake-s,577,3761005,0.0-19.0-0.0-0.83,A28U7B76HLCS1U,3QX22DUVPRXA8IOFTTHB0PBO5I3MV1,3IXEICO796ZWS6XSRKFHZVM4CBDT6O,4,3
84,3,object_08,object_05,514.5,6,1,420.70000001788,0.7777777777777778,2,object_02,1,1310,0,5,7,library_2,2,memory-2step-stake-s,578,3769352,0.0-19.0-0.0-0.84,A28U7B76HLCS1U,3QX22DUVPRXA8IOFTTHB0PBO5I3MV1,3IXEICO796ZWS6XSRKFHZVM4CBDT6O,6,5
85,2,object_07,object_10,576.30000001192,4,2,308.89999997616,0.8888888888888888,2,object_02,1,1318,0,5,8,forest_4,2,memory-2step-stake-s,579,3777679,0.0-19.0-0.0-0.85,A28U7B76HLCS1U,3QX22DUVPRXA8IOFTTHB0PBO5I3MV1,3IXEICO796ZWS6XSRKFHZVM4CBDT6O,3,4
86,3,object_05,object_08,614.69999998808,6,2,272.39999997616,0.7777777777777778,2,object_02,1,1325,0,4,7,library_4,2,memory-2step-stake-s,580,3785885,0.0-19.0-0.0-0.86,A28U7B76HLCS1U,3QX22DUVPRXA8IOFTTHB0PBO5I3MV1,3IXEICO796ZWS6XSRKFHZVM4CBDT6O,5,6
87,1,object_03,object_09,592.70000001788,2,1,275.59999999404,0.8888888888888888,2,object_02,1,1333,0,1,8,desert_6,2,memory-2step-stake-s,581,3794192,0.0-19.0-0.0-0.87,A28U7B76HLCS1U,3QX22DUVPRXA8IOFTTHB0PBO5I3MV1,3IXEICO796ZWS6XSRKFHZVM4CBDT6O,2,1
88,4,object_01,object_06,673.09999999404,8,1,89.799999982119,0.7777777777777778,2,object_02,5,1368,0,0,7,restaurant_3,2,memory-2step-stake-s,582,3802223,0.0-19.0-0.0-0.88,A28U7B76HLCS1U,3QX22DUVPRXA8IOFTTHB0PBO5I3MV1,3IXEICO796ZWS6XSRKFHZVM4CBDT6O,8,7
89,1,object_09,object_03,685.59999999404,2,2,217.5,0.8888888888888888,2,object_02,5,1408,0,1,8,desert_8,2,memory-2step-stake-s,583,3810463,0.0-19.0-0.0-0.89,A28U7B76HLCS1U,3QX22DUVPRXA8IOFTTHB0PBO5I3MV1,3IXEICO796ZWS6XSRKFHZVM4CBDT6O,1,2
90,3,object_05,object_08,608.30000001192,6,2,561.40000000596,0.8888888888888888,2,object_02,5,1448,0,2,8,library_1,2,memory-2step-stake-s,584,3819056,0.0-19.0-0.0-0.90,A28U7B76HLCS1U,3QX22DUVPRXA8IOFTTHB0PBO5I3MV1,3IXEICO796ZWS6XSRKFHZVM4CBDT6O,5,6
91,4,object_01,object_06,573.60000002384,8,1,384.40000000596,0.8888888888888888,2,object_02,1,1456,0,3,8,restaurant_6,2,memory-2step-stake-s,585,3827462,0.0-19.0-0.0-0.91,A28U7B76HLCS1U,3QX22DUVPRXA8IOFTTHB0PBO5I3MV1,3IXEICO796ZWS6XSRKFHZVM4CBDT6O,8,7
92,2,object_10,object_07,601.0,4,1,323.40000000596,0.7777777777777778,2,object_02,5,1491,0,2,7,forest_3,2,memory-2step-stake-s,586,3835716,0.0-19.0-0.0-0.92,A28U7B76HLCS1U,3QX22DUVPRXA8IOFTTHB0PBO5I3MV1,3IXEICO796ZWS6XSRKFHZVM4CBDT6O,4,3
93,3,object_08,object_05,506.90000000596,6,1,316.19999998808,0.8888888888888888,2,object_02,1,1499,0,2,8,library_1,2,memory-2step-stake-s,587,3844059,0.0-19.0-0.0-0.93,A28U7B76HLCS1U,3QX22DUVPRXA8IOFTTHB0PBO5I3MV1,3IXEICO796ZWS6XSRKFHZVM4CBDT6O,6,5
94,4,object_01,object_06,499.70000001788,8,1,318.40000000596,1.0,2,object_02,1,1508,0,2,9,restaurant_3,2,memory-2step-stake-s,588,3852524,0.0-19.0-0.0-0.94,A28U7B76HLCS1U,3QX22DUVPRXA8IOFTTHB0PBO5I3MV1,3IXEICO796ZWS6XSRKFHZVM4CBDT6O,8,7
95,3,object_08,object_05,474.5,6,1,309.70000001788,0.7777777777777778,2,object_02,1,1515,0,1,7,library_2,2,memory-2step-stake-s,589,3860765,0.0-19.0-0.0-0.95,A28U7B76HLCS1U,3QX22DUVPRXA8IOFTTHB0PBO5I3MV1,3IXEICO796ZWS6XSRKFHZVM4CBDT6O,6,5
96,4,object_06,object_01,513.90000000596,7,1,236.59999999404,0.2222222222222222,1,object_04,1,1517,0,2,6,restaurant_1,2,memory-2step-stake-s,590,3868418,0.0-19.0-0.0-0.96,A28U7B76HLCS1U,3QX22DUVPRXA8IOFTTHB0PBO5I3MV1,3IXEICO796ZWS6XSRKFHZVM4CBDT6O,7,8
97,2,object_07,object_10,605.09999999404,3,1,300.09999999404,0.0,1,object_04,1,1517,0,0,6,forest_7,2,memory-2step-stake-s,591,3875944,0.0-19.0-0.0-0.97,A28U7B76HLCS1U,3QX22DUVPRXA8IOFTTHB0PBO5I3MV1,3IXEICO796ZWS6XSRKFHZVM4CBDT6O,3,4
98,2,object_07,object_10,859.80000001192,3,1,302.89999997616,0.5555555555555556,1,object_04,1,1522,0,5,9,forest_4,2,memory-2step-stake-s,592,3883977,0.0-19.0-0.0-0.98,A28U7B76HLCS1U,3QX22DUVPRXA8IOFTTHB0PBO5I3MV1,3IXEICO796ZWS6XSRKFHZVM4CBDT6O,3,4
99,2,object_10,object_07,432.5,4,1,227.80000001192,1.0,2,object_02,5,1567,0,3,9,forest_4,2,memory-2step-stake-s,593,3892333,0.0-19.0-0.0-0.99,A28U7B76HLCS1U,3QX22DUVPRXA8IOFTTHB0PBO5I3MV1,3IXEICO796ZWS6XSRKFHZVM4CBDT6O,4,3
100,4,object_06,object_01,728.80000001192,8,2,419.60000002384,1.0,2,object_02,1,1576,0,2,9,restaurant_8,2,memory-2step-stake-s,594,3900912,0.0-19.0-0.0-0.100,A28U7B76HLCS1U,3QX22DUVPRXA8IOFTTHB0PBO5I3MV1,3IXEICO796ZWS6XSRKFHZVM4CBDT6O,7,8
101,1,object_09,object_03,460.29999998212,1,1,23.800000011921,0.1111111111111111,1,object_04,5,1581,0,1,7,desert_6,2,memory-2step-stake-s,595,3908253,0.0-19.0-0.0-0.101,A28U7B76HLCS1U,3QX22DUVPRXA8IOFTTHB0PBO5I3MV1,3IXEICO796ZWS6XSRKFHZVM4CBDT6O,1,2
102,3,object_05,object_08,678.0,5,1,304.40000000596,0.4444444444444444,1,object_04,1,1585,0,4,9,library_7,2,memory-2step-stake-s,596,3916195,0.0-19.0-0.0-0.102,A28U7B76HLCS1U,3QX22DUVPRXA8IOFTTHB0PBO5I3MV1,3IXEICO796ZWS6XSRKFHZVM4CBDT6O,5,6
103,4,object_01,object_06,594.0,7,2,283.70000001788,0.5555555555555556,1,object_04,1,1590,0,5,8,restaurant_6,2,memory-2step-stake-s,597,3924210,0.0-19.0-0.0-0.103,A28U7B76HLCS1U,3QX22DUVPRXA8IOFTTHB0PBO5I3MV1,3IXEICO796ZWS6XSRKFHZVM4CBDT6O,8,7
104,1,object_09,object_03,516.90000000596,2,2,288.59999999404,0.7777777777777778,2,object_02,5,1625,0,4,7,desert_4,2,memory-2step-stake-s,598,3932418,0.0-19.0-0.0-0.104,A28U7B76HLCS1U,3QX22DUVPRXA8IOFTTHB0PBO5I3MV1,3IXEICO796ZWS6XSRKFHZVM4CBDT6O,1,2
105,3,object_08,object_05,882.09999999404,5,2,252.19999998808,0.4444444444444444,1,object_04,1,1629,0,4,8,library_7,2,memory-2step-stake-s,599,3940299,0.0-19.0-0.0-0.105,A28U7B76HLCS1U,3QX22DUVPRXA8IOFTTHB0PBO5I3MV1,3IXEICO796ZWS6XSRKFHZVM4CBDT6O,6,5
106,2,object_10,object_07,474.5,4,1,205.09999999404,0.8888888888888888,2,object_02,5,1669,0,6,8,forest_7,2,memory-2step-stake-s,600,3948531,0.0-19.0-0.0-0.106,A28U7B76HLCS1U,3QX22DUVPRXA8IOFTTHB0PBO5I3MV1,3IXEICO796ZWS6XSRKFHZVM4CBDT6O,4,3
107,3,object_05,object_08,690.09999999404,5,1,341.40000000596,0.8888888888888888,1,object_04,1,1677,0,8,9,library_1,2,memory-2step-stake-s,601,3956893,0.0-19.0-0.0-0.107,A28U7B76HLCS1U,3QX22DUVPRXA8IOFTTHB0PBO5I3MV1,3IXEICO796ZWS6XSRKFHZVM4CBDT6O,5,6
108,4,object_01,object_06,635.59999999404,7,2,39.90000000596,0.5555555555555556,1,object_04,1,1682,0,5,8,restaurant_8,2,memory-2step-stake-s,602,3964657,0.0-19.0-0.0-0.108,A28U7B76HLCS1U,3QX22DUVPRXA8IOFTTHB0PBO5I3MV1,3IXEICO796ZWS6XSRKFHZVM4CBDT6O,8,7
109,1,object_09,object_03,966.79999998212,2,2,560.20000001788,1.0,2,object_02,5,1727,0,2,9,desert_6,2,memory-2step-stake-s,603,3973351,0.0-19.0-0.0-0.109,A28U7B76HLCS1U,3QX22DUVPRXA8IOFTTHB0PBO5I3MV1,3IXEICO796ZWS6XSRKFHZVM4CBDT6O,1,2
110,1,object_03,object_09,374.90000000596,2,1,194.29999998212,0.5555555555555556,2,object_02,5,1752,0,4,5,desert_4,2,memory-2step-stake-s,604,3981290,0.0-19.0-0.0-0.110,A28U7B76HLCS1U,3QX22DUVPRXA8IOFTTHB0PBO5I3MV1,3IXEICO796ZWS6XSRKFHZVM4CBDT6O,2,1
111,2,object_07,object_10,555.39999997616,4,2,286.30000001192,0.0,2,object_02,5,1752,0,3,0,forest_7,2,memory-2step-stake-s,605,3988792,0.0-19.0-0.0-0.111,A28U7B76HLCS1U,3QX22DUVPRXA8IOFTTHB0PBO5I3MV1,3IXEICO796ZWS6XSRKFHZVM4CBDT6O,3,4
112,3,object_08,object_05,661.19999998808,5,2,672.59999999404,0.1111111111111111,1,object_04,1,1753,0,1,1,library_7,2,memory-2step-stake-s,606,3996789,0.0-19.0-0.0-0.112,A28U7B76HLCS1U,3QX22DUVPRXA8IOFTTHB0PBO5I3MV1,3IXEICO796ZWS6XSRKFHZVM4CBDT6O,6,5
113,4,object_01,object_06,707.79999998212,7,2,365.29999998212,0.0,1,object_04,1,1753,0,0,4,restaurant_1,2,memory-2step-stake-s,607,4004378,0.0-19.0-0.0-0.113,A28U7B76HLCS1U,3QX22DUVPRXA8IOFTTHB0PBO5I3MV1,3IXEICO796ZWS6XSRKFHZVM4CBDT6O,8,7
114,3,object_05,object_08,619.60000002384,5,1,318.90000000596,0.2222222222222222,1,object_04,1,1755,0,2,1,library_7,2,memory-2step-stake-s,608,4012121,0.0-19.0-0.0-0.114,A28U7B76HLCS1U,3QX22DUVPRXA8IOFTTHB0PBO5I3MV1,3IXEICO796ZWS6XSRKFHZVM4CBDT6O,5,6
115,1,object_09,object_03,576.70000001788,1,1,367.0,0.1111111111111111,1,object_04,1,1756,0,1,2,desert_6,2,memory-2step-stake-s,609,4019817,0.0-19.0-0.0-0.115,A28U7B76HLCS1U,3QX22DUVPRXA8IOFTTHB0PBO5I3MV1,3IXEICO796ZWS6XSRKFHZVM4CBDT6O,1,2
116,3,object_05,object_08,653.5,5,1,354.60000002384,0.2222222222222222,1,object_04,1,1758,0,2,0,library_1,2,memory-2step-stake-s,610,4027586,0.0-19.0-0.0-0.116,A28U7B76HLCS1U,3QX22DUVPRXA8IOFTTHB0PBO5I3MV1,3IXEICO796ZWS6XSRKFHZVM4CBDT6O,5,6
117,3,object_05,object_08,787.69999998808,5,1,415.59999999404,0.3333333333333333,1,object_04,1,1761,0,3,4,library_1,2,memory-2step-stake-s,611,4035520,0.0-19.0-0.0-0.117,A28U7B76HLCS1U,3QX22DUVPRXA8IOFTTHB0PBO5I3MV1,3IXEICO796ZWS6XSRKFHZVM4CBDT6O,5,6
118,1,object_03,object_09,854.90000000596,1,2,359.40000000596,0.2222222222222222,1,object_04,1,1763,0,2,4,desert_3,2,memory-2step-stake-s,612,4043296,0.0-19.0-0.0-0.118,A28U7B76HLCS1U,3QX22DUVPRXA8IOFTTHB0PBO5I3MV1,3IXEICO796ZWS6XSRKFHZVM4CBDT6O,2,1
119,1,object_03,object_09,481.29999998212,2,1,339.80000001192,0.4444444444444444,2,object_02,5,1783,0,4,4,desert_8,2,memory-2step-stake-s,613,4051259,0.0-19.0-0.0-0.119,A28U7B76HLCS1U,3QX22DUVPRXA8IOFTTHB0PBO5I3MV1,3IXEICO796ZWS6XSRKFHZVM4CBDT6O,2,1
120,2,object_07,object_10,538.09999999404,4,2,381.59999999404,0.3333333333333333,2,object_02,5,1798,0,3,3,forest_3,2,memory-2step-stake-s,614,4059157,0.0-19.0-0.0-0.120,A28U7B76HLCS1U,3QX22DUVPRXA8IOFTTHB0PBO5I3MV1,3IXEICO796ZWS6XSRKFHZVM4CBDT6O,3,4
121,1,object_09,object_03,720.59999999404,2,2,283.5,0.0,2,object_02,5,1798,0,2,0,desert_6,2,memory-2step-stake-s,615,4066655,0.0-19.0-0.0-0.121,A28U7B76HLCS1U,3QX22DUVPRXA8IOFTTHB0PBO5I3MV1,3IXEICO796ZWS6XSRKFHZVM4CBDT6O,1,2
122,3,object_08,object_05,815.90000000596,5,2,345.30000001192,0.1111111111111111,1,object_04,1,1799,0,1,3,library_1,2,memory-2step-stake-s,616,4074339,0.0-19.0-0.0-0.122,A28U7B76HLCS1U,3QX22DUVPRXA8IOFTTHB0PBO5I3MV1,3IXEICO796ZWS6XSRKFHZVM4CBDT6O,6,5
123,1,object_09,object_03,709.09999999404,1,1,280.0,0.0,1,object_04,1,1799,0,0,4,desert_6,2,memory-2step-stake-s,617,4081842,0.0-19.0-0.0-0.123,A28U7B76HLCS1U,3QX22DUVPRXA8IOFTTHB0PBO5I3MV1,3IXEICO796ZWS6XSRKFHZVM4CBDT6O,1,2
124,2,object_07,object_10,643.90000000596,3,1,263.69999998808,0.2222222222222222,1,object_04,5,1809,0,2,6,forest_3,2,memory-2step-stake-s,618,4089522,0.0-19.0-0.0-0.124,A28U7B76HLCS1U,3QX22DUVPRXA8IOFTTHB0PBO5I3MV1,3IXEICO796ZWS6XSRKFHZVM4CBDT6O,3,4
125,1,object_09,object_03,894.59999999404,2,2,682.5,0.5555555555555556,2,object_02,5,1834,0,1,5,desert_3,2,memory-2step-stake-s,619,4097920,0.0-19.0-0.0-0.125,A28U7B76HLCS1U,3QX22DUVPRXA8IOFTTHB0PBO5I3MV1,3IXEICO796ZWS6XSRKFHZVM4CBDT6O,1,2
126,4,object_01,object_06,649.19999998808,8,1,323.89999997616,0.8888888888888888,2,object_02,1,1842,0,1,8,restaurant_3,2,memory-2step-stake-s,620,4106284,0.0-19.0-0.0-0.126,A28U7B76HLCS1U,3QX22DUVPRXA8IOFTTHB0PBO5I3MV1,3IXEICO796ZWS6XSRKFHZVM4CBDT6O,8,7
127,3,object_05,object_08,563.80000001192,5,1,319.09999999404,0.1111111111111111,1,object_04,5,1847,0,1,5,library_2,2,memory-2step-stake-s,621,4113923,0.0-19.0-0.0-0.127,A28U7B76HLCS1U,3QX22DUVPRXA8IOFTTHB0PBO5I3MV1,3IXEICO796ZWS6XSRKFHZVM4CBDT6O,5,6
128,4,object_06,object_01,1078.8999999762,7,1,488.80000001192,0.0,1,object_04,1,1847,0,0,0,restaurant_3,2,memory-2step-stake-s,623,4536748,0.0-19.0-0.1-0.128,A28U7B76HLCS1U,3QX22DUVPRXA8IOFTTHB0PBO5I3MV1,3IXEICO796ZWS6XSRKFHZVM4CBDT6O,7,8
129,3,object_08,object_05,682.59999999404,5,2,291.5,0.3333333333333333,1,object_04,1,1850,0,3,0,library_2,2,memory-2step-stake-s,624,4544562,0.0-19.0-0.1-0.129,A28U7B76HLCS1U,3QX22DUVPRXA8IOFTTHB0PBO5I3MV1,3IXEICO796ZWS6XSRKFHZVM4CBDT6O,6,5
130,3,object_08,object_05,1091.3999999762,5,2,285.59999999404,0.2222222222222222,1,object_04,1,1852,0,2,1,library_4,2,memory-2step-stake-s,625,4552264,0.0-19.0-0.1-0.130,A28U7B76HLCS1U,3QX22DUVPRXA8IOFTTHB0PBO5I3MV1,3IXEICO796ZWS6XSRKFHZVM4CBDT6O,6,5
131,2,object_07,object_10,679.09999999404,4,2,275.30000001192,0.3333333333333333,2,object_02,5,1867,0,0,3,forest_3,2,memory-2step-stake-s,626,4560080,0.0-19.0-0.1-0.131,A28U7B76HLCS1U,3QX22DUVPRXA8IOFTTHB0PBO5I3MV1,3IXEICO796ZWS6XSRKFHZVM4CBDT6O,3,4
132,3,object_05,object_08,590.0,6,2,262.80000001192,0.3333333333333333,2,object_02,1,1870,0,3,3,library_2,2,memory-2step-stake-s,627,4567861,0.0-19.0-0.1-0.132,A28U7B76HLCS1U,3QX22DUVPRXA8IOFTTHB0PBO5I3MV1,3IXEICO796ZWS6XSRKFHZVM4CBDT6O,5,6
133,3,object_05,object_08,729.39999997616,5,1,292.90000000596,0.4444444444444444,1,object_04,1,1874,0,4,2,library_1,2,memory-2step-stake-s,628,4575768,0.0-19.0-0.1-0.133,A28U7B76HLCS1U,3QX22DUVPRXA8IOFTTHB0PBO5I3MV1,3IXEICO796ZWS6XSRKFHZVM4CBDT6O,5,6
134,1,object_09,object_03,427.0,2,2,444.80000001192,0.0,2,object_02,5,1874,0,0,0,desert_4,2,memory-2step-stake-s,629,4583432,0.0-19.0-0.1-0.134,A28U7B76HLCS1U,3QX22DUVPRXA8IOFTTHB0PBO5I3MV1,3IXEICO796ZWS6XSRKFHZVM4CBDT6O,1,2
135,2,object_10,object_07,465.19999998808,3,2,395.59999999404,0.2222222222222222,1,object_04,5,1884,0,2,3,forest_3,2,memory-2step-stake-s,630,4591254,0.0-19.0-0.1-0.135,A28U7B76HLCS1U,3QX22DUVPRXA8IOFTTHB0PBO5I3MV1,3IXEICO796ZWS6XSRKFHZVM4CBDT6O,4,3
136,1,object_09,object_03,409.70000001788,1,1,261.40000000596,0.0,1,object_04,1,1884,0,0,2,desert_3,2,memory-2step-stake-s,631,4598727,0.0-19.0-0.1-0.136,A28U7B76HLCS1U,3QX22DUVPRXA8IOFTTHB0PBO5I3MV1,3IXEICO796ZWS6XSRKFHZVM4CBDT6O,1,2
137,3,object_08,object_05,567.90000000596,6,1,483.80000001192,0.1111111111111111,2,object_02,1,1885,0,1,1,library_1,2,memory-2step-stake-s,632,4606538,0.0-19.0-0.1-0.137,A28U7B76HLCS1U,3QX22DUVPRXA8IOFTTHB0PBO5I3MV1,3IXEICO796ZWS6XSRKFHZVM4CBDT6O,6,5
138,4,object_01,object_06,596.80000001192,8,1,111.0,0.3333333333333333,2,object_02,5,1900,0,1,3,restaurant_3,2,memory-2step-stake-s,633,4614163,0.0-19.0-0.1-0.138,A28U7B76HLCS1U,3QX22DUVPRXA8IOFTTHB0PBO5I3MV1,3IXEICO796ZWS6XSRKFHZVM4CBDT6O,8,7
139,4,object_06,object_01,570.09999999404,8,2,332.59999999404,0.3333333333333333,2,object_02,5,1915,0,3,3,restaurant_1,2,memory-2step-stake-s,634,4622013,0.0-19.0-0.1-0.139,A28U7B76HLCS1U,3QX22DUVPRXA8IOFTTHB0PBO5I3MV1,3IXEICO796ZWS6XSRKFHZVM4CBDT6O,7,8
140,4,object_06,object_01,639.0,8,2,314.90000000596,0.4444444444444444,2,object_02,1,1919,0,4,4,restaurant_8,2,memory-2step-stake-s,635,4629954,0.0-19.0-0.1-0.140,A28U7B76HLCS1U,3QX22DUVPRXA8IOFTTHB0PBO5I3MV1,3IXEICO796ZWS6XSRKFHZVM4CBDT6O,7,8
141,4,object_01,object_06,706.30000001192,8,1,338.80000001192,0.3333333333333333,2,object_02,1,1922,0,6,3,restaurant_3,2,memory-2step-stake-s,636,4637830,0.0-19.0-0.1-0.141,A28U7B76HLCS1U,3QX22DUVPRXA8IOFTTHB0PBO5I3MV1,3IXEICO796ZWS6XSRKFHZVM4CBDT6O,8,7
142,1,object_03,object_09,721.90000000596,2,1,323.09999999404,0.1111111111111111,2,object_02,1,1923,0,8,1,desert_8,2,memory-2step-stake-s,637,4645466,0.0-19.0-0.1-0.142,A28U7B76HLCS1U,3QX22DUVPRXA8IOFTTHB0PBO5I3MV1,3IXEICO796ZWS6XSRKFHZVM4CBDT6O,2,1
143,3,object_05,object_08,603.90000000596,5,1,494.19999998808,1.0,1,object_04,1,1932,0,9,0,library_2,2,memory-2step-stake-s,638,4654097,0.0-19.0-0.1-0.143,A28U7B76HLCS1U,3QX22DUVPRXA8IOFTTHB0PBO5I3MV1,3IXEICO796ZWS6XSRKFHZVM4CBDT6O,5,6
144,1,object_03,object_09,670.29999998212,2,1,311.80000001192,0.2222222222222222,2,object_02,5,1942,0,8,2,desert_4,2,memory-2step-stake-s,639,4661823,0.0-19.0-0.1-0.144,A28U7B76HLCS1U,3QX22DUVPRXA8IOFTTHB0PBO5I3MV1,3IXEICO796ZWS6XSRKFHZVM4CBDT6O,2,1
145,4,object_06,object_01,548.39999997616,8,2,343.5,0.3333333333333333,2,object_02,1,1945,0,9,3,restaurant_3,2,memory-2step-stake-s,640,4669689,0.0-19.0-0.1-0.145,A28U7B76HLCS1U,3QX22DUVPRXA8IOFTTHB0PBO5I3MV1,3IXEICO796ZWS6XSRKFHZVM4CBDT6O,7,8
146,2,object_07,object_10,522.70000001788,4,2,309.80000001192,0.5555555555555556,2,object_02,5,1970,0,8,5,forest_2,2,memory-2step-stake-s,641,4677722,0.0-19.0-0.1-0.146,A28U7B76HLCS1U,3QX22DUVPRXA8IOFTTHB0PBO5I3MV1,3IXEICO796ZWS6XSRKFHZVM4CBDT6O,3,4
147,2,object_10,object_07,329.69999998808,4,1,291.79999998212,0.4444444444444444,2,object_02,1,1974,0,7,4,forest_3,2,memory-2step-stake-s,642,4685635,0.0-19.0-0.1-0.147,A28U7B76HLCS1U,3QX22DUVPRXA8IOFTTHB0PBO5I3MV1,3IXEICO796ZWS6XSRKFHZVM4CBDT6O,4,3
148,3,object_08,object_05,641.69999998808,5,2,331.79999998212,0.7777777777777778,1,object_04,1,1981,0,7,2,library_2,2,memory-2step-stake-s,643,4693891,0.0-19.0-0.1-0.148,A28U7B76HLCS1U,3QX22DUVPRXA8IOFTTHB0PBO5I3MV1,3IXEICO796ZWS6XSRKFHZVM4CBDT6O,6,5
149,4,object_06,object_01,554.0,8,2,293.40000000596,0.1111111111111111,2,object_02,1,1982,0,6,1,restaurant_6,2,memory-2step-stake-s,644,4701538,0.0-19.0-0.1-0.149,A28U7B76HLCS1U,3QX22DUVPRXA8IOFTTHB0PBO5I3MV1,3IXEICO796ZWS6XSRKFHZVM4CBDT6O,7,8
150,1,object_03,object_09,443.69999998808,2,1,551.59999999404,0.1111111111111111,2,object_02,5,1987,0,2,1,desert_3,2,memory-2step-stake-s,645,4709403,0.0-19.0-0.1-0.150,A28U7B76HLCS1U,3QX22DUVPRXA8IOFTTHB0PBO5I3MV1,3IXEICO796ZWS6XSRKFHZVM4CBDT6O,2,1
151,4,object_01,object_06,467.09999999404,8,1,270.0,0.1111111111111111,2,object_02,1,1988,0,1,1,restaurant_1,2,memory-2step-stake-s,646,4716984,0.0-19.0-0.1-0.151,A28U7B76HLCS1U,3QX22DUVPRXA8IOFTTHB0PBO5I3MV1,3IXEICO796ZWS6XSRKFHZVM4CBDT6O,8,7
152,4,object_01,object_06,620.10000002384,8,1,461.69999998808,0.0,2,object_02,1,1988,0,3,0,restaurant_8,2,memory-2step-stake-s,647,4724661,0.0-19.0-0.1-0.152,A28U7B76HLCS1U,3QX22DUVPRXA8IOFTTHB0PBO5I3MV1,3IXEICO796ZWS6XSRKFHZVM4CBDT6O,8,7
153,3,object_05,object_08,639.59999999404,6,2,284.09999999404,0.2222222222222222,2,object_02,5,1998,0,7,2,library_2,2,memory-2step-stake-s,648,4732368,0.0-19.0-0.1-0.153,A28U7B76HLCS1U,3QX22DUVPRXA8IOFTTHB0PBO5I3MV1,3IXEICO796ZWS6XSRKFHZVM4CBDT6O,5,6
154,2,object_07,object_10,583.70000001788,4,2,533.29999998212,0.1111111111111111,2,object_02,5,2003,0,7,1,forest_4,2,memory-2step-stake-s,649,4740213,0.0-19.0-0.1-0.154,A28U7B76HLCS1U,3QX22DUVPRXA8IOFTTHB0PBO5I3MV1,3IXEICO796ZWS6XSRKFHZVM4CBDT6O,3,4
155,3,object_08,object_05,505.69999998808,5,2,243.30000001192,1.0,1,object_04,1,2012,0,9,3,library_4,2,memory-2step-stake-s,650,4748599,0.0-19.0-0.1-0.155,A28U7B76HLCS1U,3QX22DUVPRXA8IOFTTHB0PBO5I3MV1,3IXEICO796ZWS6XSRKFHZVM4CBDT6O,6,5
156,1,object_03,object_09,288.90000000596,1,2,229.0,0.8888888888888888,1,object_04,5,2052,0,8,4,desert_8,2,memory-2step-stake-s,651,4756859,0.0-19.0-0.1-0.156,A28U7B76HLCS1U,3QX22DUVPRXA8IOFTTHB0PBO5I3MV1,3IXEICO796ZWS6XSRKFHZVM4CBDT6O,2,1
157,4,object_01,object_06,617.79999998212,7,2,302.5,0.7777777777777778,1,object_04,1,2059,0,7,4,restaurant_3,2,memory-2step-stake-s,652,4765123,0.0-19.0-0.1-0.157,A28U7B76HLCS1U,3QX22DUVPRXA8IOFTTHB0PBO5I3MV1,3IXEICO796ZWS6XSRKFHZVM4CBDT6O,8,7
158,1,object_03,object_09,403.69999998808,1,2,255.19999998808,0.5555555555555556,1,object_04,5,2084,0,5,6,desert_6,2,memory-2step-stake-s,653,4773124,0.0-19.0-0.1-0.158,A28U7B76HLCS1U,3QX22DUVPRXA8IOFTTHB0PBO5I3MV1,3IXEICO796ZWS6XSRKFHZVM4CBDT6O,2,1
159,3,object_08,object_05,970.39999997616,6,1,302.79999998212,0.6666666666666666,2,object_02,1,2090,0,5,6,library_1,2,memory-2step-stake-s,654,4781264,0.0-19.0-0.1-0.159,A28U7B76HLCS1U,3QX22DUVPRXA8IOFTTHB0PBO5I3MV1,3IXEICO796ZWS6XSRKFHZVM4CBDT6O,6,5
160,1,object_03,object_09,606.19999998808,2,1,113.5,0.4444444444444444,2,object_02,5,2110,0,6,4,desert_6,2,memory-2step-stake-s,655,4789008,0.0-19.0-0.1-0.160,A28U7B76HLCS1U,3QX22DUVPRXA8IOFTTHB0PBO5I3MV1,3IXEICO796ZWS6XSRKFHZVM4CBDT6O,2,1
161,1,object_03,object_09,406.40000000596,1,2,226.70000001788,0.6666666666666666,1,object_04,5,2140,0,6,4,desert_8,2,memory-2step-stake-s,656,4797076,0.0-19.0-0.1-0.161,A28U7B76HLCS1U,3QX22DUVPRXA8IOFTTHB0PBO5I3MV1,3IXEICO796ZWS6XSRKFHZVM4CBDT6O,2,1
162,2,object_07,object_10,657.90000000596,3,1,299.79999998212,0.5555555555555556,1,object_04,1,2145,0,5,2,forest_2,2,memory-2step-stake-s,657,4805122,0.0-19.0-0.1-0.162,A28U7B76HLCS1U,3QX22DUVPRXA8IOFTTHB0PBO5I3MV1,3IXEICO796ZWS6XSRKFHZVM4CBDT6O,3,4
163,2,object_10,object_07,610.39999997616,4,1,311.0,0.0,2,object_02,5,2145,0,4,0,forest_4,2,memory-2step-stake-s,658,4812651,0.0-19.0-0.1-0.163,A28U7B76HLCS1U,3QX22DUVPRXA8IOFTTHB0PBO5I3MV1,3IXEICO796ZWS6XSRKFHZVM4CBDT6O,4,3
164,4,object_01,object_06,962.0,8,1,305.5,0.2222222222222222,2,object_02,1,2147,0,5,2,restaurant_3,2,memory-2step-stake-s,659,4820375,0.0-19.0-0.1-0.164,A28U7B76HLCS1U,3QX22DUVPRXA8IOFTTHB0PBO5I3MV1,3IXEICO796ZWS6XSRKFHZVM4CBDT6O,8,7
165,2,object_10,object_07,540.40000000596,3,2,280.09999999404,0.4444444444444444,1,object_04,5,2167,0,4,3,forest_4,2,memory-2step-stake-s,660,4828273,0.0-19.0-0.1-0.165,A28U7B76HLCS1U,3QX22DUVPRXA8IOFTTHB0PBO5I3MV1,3IXEICO796ZWS6XSRKFHZVM4CBDT6O,4,3
166,2,object_07,object_10,972.0,4,2,670.40000000596,0.5555555555555556,2,object_02,5,2192,0,6,5,forest_7,2,memory-2step-stake-s,661,4836659,0.0-19.0-0.1-0.166,A28U7B76HLCS1U,3QX22DUVPRXA8IOFTTHB0PBO5I3MV1,3IXEICO796ZWS6XSRKFHZVM4CBDT6O,3,4
167,3,object_05,object_08,1232.400000006,6,2,493.10000002384,0.6666666666666666,2,object_02,1,2198,0,4,6,library_7,2,memory-2step-stake-s,662,4844983,0.0-19.0-0.1-0.167,A28U7B76HLCS1U,3QX22DUVPRXA8IOFTTHB0PBO5I3MV1,3IXEICO796ZWS6XSRKFHZVM4CBDT6O,5,6
168,1,object_03,object_09,309.20000001788,1,2,182.40000000596,0.3333333333333333,1,object_04,5,2213,0,3,5,desert_3,2,memory-2step-stake-s,663,4852686,0.0-19.0-0.1-0.168,A28U7B76HLCS1U,3QX22DUVPRXA8IOFTTHB0PBO5I3MV1,3IXEICO796ZWS6XSRKFHZVM4CBDT6O,2,1
169,4,object_01,object_06,447.90000000596,8,1,281.5,0.1111111111111111,2,object_02,5,2218,0,5,1,restaurant_3,2,memory-2step-stake-s,664,4860283,0.0-19.0-0.1-0.169,A28U7B76HLCS1U,3QX22DUVPRXA8IOFTTHB0PBO5I3MV1,3IXEICO796ZWS6XSRKFHZVM4CBDT6O,8,7
170,2,object_10,object_07,759.69999998808,4,1,330.40000000596,0.4444444444444444,2,object_02,5,2238,0,9,4,forest_4,2,memory-2step-stake-s,665,4868257,0.0-19.0-0.1-0.170,A28U7B76HLCS1U,3QX22DUVPRXA8IOFTTHB0PBO5I3MV1,3IXEICO796ZWS6XSRKFHZVM4CBDT6O,4,3
171,2,object_10,object_07,1021.1999999881,3,2,317.80000001192,0.7777777777777778,1,object_04,5,2273,0,7,3,forest_2,2,memory-2step-stake-s,666,4876498,0.0-19.0-0.1-0.171,A28U7B76HLCS1U,3QX22DUVPRXA8IOFTTHB0PBO5I3MV1,3IXEICO796ZWS6XSRKFHZVM4CBDT6O,4,3
172,1,object_09,object_03,555.39999997616,1,1,294.80000001192,0.4444444444444444,1,object_04,5,2293,0,4,1,desert_6,2,memory-2step-stake-s,667,4884419,0.0-19.0-0.1-0.172,A28U7B76HLCS1U,3QX22DUVPRXA8IOFTTHB0PBO5I3MV1,3IXEICO796ZWS6XSRKFHZVM4CBDT6O,1,2
173,4,object_01,object_06,859.80000001192,8,1,383.59999999404,0.0,2,object_02,1,2293,0,2,0,restaurant_8,2,memory-2step-stake-s,668,4892021,0.0-19.0-0.1-0.173,A28U7B76HLCS1U,3QX22DUVPRXA8IOFTTHB0PBO5I3MV1,3IXEICO796ZWS6XSRKFHZVM4CBDT6O,8,7
174,1,object_03,object_09,736.0,2,1,385.70000001788,0.0,2,object_02,1,2293,0,3,0,desert_3,2,memory-2step-stake-s,669,4899637,0.0-19.0-0.1-0.174,A28U7B76HLCS1U,3QX22DUVPRXA8IOFTTHB0PBO5I3MV1,3IXEICO796ZWS6XSRKFHZVM4CBDT6O,2,1
175,3,object_05,object_08,784.5,6,2,268.70000001788,0.2222222222222222,2,object_02,1,2295,0,0,2,library_1,2,memory-2step-stake-s,670,4907322,0.0-19.0-0.1-0.175,A28U7B76HLCS1U,3QX22DUVPRXA8IOFTTHB0PBO5I3MV1,3IXEICO796ZWS6XSRKFHZVM4CBDT6O,5,6
176,1,object_09,object_03,1076.2000000179,1,1,341.79999998212,0.1111111111111111,1,object_04,5,2300,0,1,0,desert_6,2,memory-2step-stake-s,671,4914981,0.0-19.0-0.1-0.176,A28U7B76HLCS1U,3QX22DUVPRXA8IOFTTHB0PBO5I3MV1,3IXEICO796ZWS6XSRKFHZVM4CBDT6O,1,2
177,2,object_10,object_07,824.09999999404,4,1,288.59999999404,0.5555555555555556,2,object_02,5,2325,0,1,5,forest_7,2,memory-2step-stake-s,672,4923011,0.0-19.0-0.1-0.177,A28U7B76HLCS1U,3QX22DUVPRXA8IOFTTHB0PBO5I3MV1,3IXEICO796ZWS6XSRKFHZVM4CBDT6O,4,3
178,4,object_06,object_01,1008.599999994,8,2,756.59999999404,0.7777777777777778,2,object_02,1,2332,0,1,7,restaurant_1,2,memory-2step-stake-s,673,4931689,0.0-19.0-0.1-0.178,A28U7B76HLCS1U,3QX22DUVPRXA8IOFTTHB0PBO5I3MV1,3IXEICO796ZWS6XSRKFHZVM4CBDT6O,7,8
179,3,object_05,object_08,1001.8000000119,6,2,282.80000001192,0.8888888888888888,2,object_02,1,2340,0,3,8,library_4,2,memory-2step-stake-s,674,4940037,0.0-19.0-0.1-0.179,A28U7B76HLCS1U,3QX22DUVPRXA8IOFTTHB0PBO5I3MV1,3IXEICO796ZWS6XSRKFHZVM4CBDT6O,5,6
180,2,object_07,object_10,878.30000001192,3,1,329.79999998212,0.1111111111111111,1,object_04,5,2345,0,1,8,forest_2,2,memory-2step-stake-s,675,4947694,0.0-19.0-0.1-0.180,A28U7B76HLCS1U,3QX22DUVPRXA8IOFTTHB0PBO5I3MV1,3IXEICO796ZWS6XSRKFHZVM4CBDT6O,3,4
181,1,object_03,object_09,488.39999997616,1,2,178.40000000596,0.0,1,object_04,5,2345,0,0,9,desert_3,2,memory-2step-stake-s,676,4955090,0.0-19.0-0.1-0.181,A28U7B76HLCS1U,3QX22DUVPRXA8IOFTTHB0PBO5I3MV1,3IXEICO796ZWS6XSRKFHZVM4CBDT6O,2,1
182,2,object_10,object_07,907.09999999404,4,1,407.69999998808,0.7777777777777778,2,object_02,5,2380,0,2,7,forest_7,2,memory-2step-stake-s,677,4963443,0.0-19.0-0.1-0.182,A28U7B76HLCS1U,3QX22DUVPRXA8IOFTTHB0PBO5I3MV1,3IXEICO796ZWS6XSRKFHZVM4CBDT6O,4,3
183,3,object_08,object_05,592.09999999404,6,1,372.79999998212,0.5555555555555556,2,object_02,1,2385,0,1,5,library_7,2,memory-2step-stake-s,678,4971537,0.0-19.0-0.1-0.183,A28U7B76HLCS1U,3QX22DUVPRXA8IOFTTHB0PBO5I3MV1,3IXEICO796ZWS6XSRKFHZVM4CBDT6O,6,5
184,4,object_01,object_06,614.0,8,1,1304.400000006,0.5555555555555556,2,object_02,1,2390,0,2,5,restaurant_6,2,memory-2step-stake-s,679,4980561,0.0-19.0-0.1-0.184,A28U7B76HLCS1U,3QX22DUVPRXA8IOFTTHB0PBO5I3MV1,3IXEICO796ZWS6XSRKFHZVM4CBDT6O,8,7
185,1,object_03,object_09,645.19999998808,2,1,303.10000002384,0.7777777777777778,2,object_02,5,2425,0,0,7,desert_6,2,memory-2step-stake-s,680,4988788,0.0-19.0-0.1-0.185,A28U7B76HLCS1U,3QX22DUVPRXA8IOFTTHB0PBO5I3MV1,3IXEICO796ZWS6XSRKFHZVM4CBDT6O,2,1
186,1,object_03,object_09,546.30000001192,2,1,388.40000000596,0.8888888888888888,2,object_02,5,2465,0,2,8,desert_4,2,memory-2step-stake-s,681,4997204,0.0-19.0-0.1-0.186,A28U7B76HLCS1U,3QX22DUVPRXA8IOFTTHB0PBO5I3MV1,3IXEICO796ZWS6XSRKFHZVM4CBDT6O,2,1
187,1,object_09,object_03,455.80000001192,2,2,266.10000002384,0.8888888888888888,2,object_02,5,2505,0,2,8,desert_4,2,memory-2step-stake-s,682,5005522,0.0-19.0-0.1-0.187,A28U7B76HLCS1U,3QX22DUVPRXA8IOFTTHB0PBO5I3MV1,3IXEICO796ZWS6XSRKFHZVM4CBDT6O,1,2
188,1,object_09,object_03,587.20000001788,1,1,82.699999988079,0.7777777777777778,1,object_04,1,2512,0,7,8,desert_8,2,memory-2step-stake-s,683,5013536,0.0-19.0-0.1-0.188,A28U7B76HLCS1U,3QX22DUVPRXA8IOFTTHB0PBO5I3MV1,3IXEICO796ZWS6XSRKFHZVM4CBDT6O,1,2
189,4,object_06,object_01,454.0,8,2,262.59999999404,0.7777777777777778,2,object_02,1,2519,0,3,7,restaurant_8,2,memory-2step-stake-s,684,5021720,0.0-19.0-0.1-0.189,A28U7B76HLCS1U,3QX22DUVPRXA8IOFTTHB0PBO5I3MV1,3IXEICO796ZWS6XSRKFHZVM4CBDT6O,7,8
190,1,object_03,object_09,654.40000000596,2,1,595.79999998212,0.7777777777777778,2,object_02,5,2554,0,2,7,desert_4,2,memory-2step-stake-s,685,5030236,0.0-19.0-0.1-0.190,A28U7B76HLCS1U,3QX22DUVPRXA8IOFTTHB0PBO5I3MV1,3IXEICO796ZWS6XSRKFHZVM4CBDT6O,2,1
191,4,object_01,object_06,393.79999998212,8,1,278.19999998808,0.2222222222222222,2,object_02,1,2556,0,2,2,restaurant_3,2,memory-2step-stake-s,686,5037929,0.0-19.0-0.1-0.191,A28U7B76HLCS1U,3QX22DUVPRXA8IOFTTHB0PBO5I3MV1,3IXEICO796ZWS6XSRKFHZVM4CBDT6O,8,7
192,1,object_09,object_03,786.09999999404,1,1,302.40000000596,0.4444444444444444,1,object_04,5,2576,0,4,3,desert_8,2,memory-2step-stake-s,687,5045857,0.0-19.0-0.1-0.192,A28U7B76HLCS1U,3QX22DUVPRXA8IOFTTHB0PBO5I3MV1,3IXEICO796ZWS6XSRKFHZVM4CBDT6O,1,2
193,3,object_08,object_05,1098.099999994,6,1,365.29999998212,0.1111111111111111,2,object_02,1,2577,0,3,1,library_4,2,memory-2step-stake-s,688,5053538,0.0-19.0-0.1-0.193,A28U7B76HLCS1U,3QX22DUVPRXA8IOFTTHB0PBO5I3MV1,3IXEICO796ZWS6XSRKFHZVM4CBDT6O,6,5
194,4,object_06,object_01,740.20000001788,8,2,624.09999999404,0.0,2,object_02,1,2577,0,4,0,restaurant_8,2,memory-2step-stake-s,689,5061378,0.0-19.0-0.1-0.194,A28U7B76HLCS1U,3QX22DUVPRXA8IOFTTHB0PBO5I3MV1,3IXEICO796ZWS6XSRKFHZVM4CBDT6O,7,8
195,3,object_08,object_05,939.5,6,1,322.80000001192,0.2222222222222222,2,object_02,1,2579,0,4,2,library_1,2,memory-2step-stake-s,690,5069120,0.0-19.0-0.1-0.195,A28U7B76HLCS1U,3QX22DUVPRXA8IOFTTHB0PBO5I3MV1,3IXEICO796ZWS6XSRKFHZVM4CBDT6O,6,5
196,2,object_10,object_07,973.0,3,2,271.5,0.3333333333333333,1,object_04,5,2594,0,3,3,forest_7,2,memory-2step-stake-s,691,5076921,0.0-19.0-0.1-0.196,A28U7B76HLCS1U,3QX22DUVPRXA8IOFTTHB0PBO5I3MV1,3IXEICO796ZWS6XSRKFHZVM4CBDT6O,4,3
197,3,object_08,object_05,941.79999998212,6,1,344.20000001788,0.2222222222222222,2,object_02,1,2596,0,4,2,library_7,2,memory-2step-stake-s,692,5084681,0.0-19.0-0.1-0.197,A28U7B76HLCS1U,3QX22DUVPRXA8IOFTTHB0PBO5I3MV1,3IXEICO796ZWS6XSRKFHZVM4CBDT6O,6,5
198,3,object_08,object_05,868.5,5,2,246.0,0.7777777777777778,1,object_04,5,2631,0,7,5,library_2,2,memory-2step-stake-s,693,5092860,0.0-19.0-0.1-0.198,A28U7B76HLCS1U,3QX22DUVPRXA8IOFTTHB0PBO5I3MV1,3IXEICO796ZWS6XSRKFHZVM4CBDT6O,6,5
199,3,object_05,object_08,890.69999998808,6,2,253.89999997616,0.7777777777777778,2,object_02,1,2638,0,1,7,library_4,2,memory-2step-stake-s,694,5101054,0.0-19.0-0.1-0.199,A28U7B76HLCS1U,3QX22DUVPRXA8IOFTTHB0PBO5I3MV1,3IXEICO796ZWS6XSRKFHZVM4CBDT6O,5,6
200,3,object_05,object_08,1047.7999999821,6,2,315.29999998212,0.4444444444444444,2,object_02,1,2642,0,1,4,library_7,2,memory-2step-stake-s,695,5108987,0.0-19.0-0.1-0.200,A28U7B76HLCS1U,3QX22DUVPRXA8IOFTTHB0PBO5I3MV1,3IXEICO796ZWS6XSRKFHZVM4CBDT6O,5,6
201,4,object_06,object_01,731.60000002384,8,2,264.30000001192,0.2222222222222222,2,object_02,1,2644,0,0,2,restaurant_8,2,memory-2step-stake-s,696,5116669,0.0-19.0-0.1-0.201,A28U7B76HLCS1U,3QX22DUVPRXA8IOFTTHB0PBO5I3MV1,3IXEICO796ZWS6XSRKFHZVM4CBDT6O,7,8
202,4,object_06,object_01,561.0,8,2,617.19999998808,0.2222222222222222,2,object_02,1,2646,0,1,2,restaurant_8,2,memory-2step-stake-s,697,5124712,0.0-19.0-0.1-0.202,A28U7B76HLCS1U,3QX22DUVPRXA8IOFTTHB0PBO5I3MV1,3IXEICO796ZWS6XSRKFHZVM4CBDT6O,7,8
203,1,object_09,object_03,563.70000001788,2,2,85.800000011921,0.1111111111111111,2,object_02,5,2651,0,2,1,desert_3,2,memory-2step-stake-s,698,5132123,0.0-19.0-0.1-0.203,A28U7B76HLCS1U,3QX22DUVPRXA8IOFTTHB0PBO5I3MV1,3IXEICO796ZWS6XSRKFHZVM4CBDT6O,1,2
204,2,object_07,object_10,601.30000001192,3,1,241.90000000596,0.0,1,object_04,5,2651,0,0,1,forest_3,2,memory-2step-stake-s,699,5139581,0.0-19.0-0.1-0.204,A28U7B76HLCS1U,3QX22DUVPRXA8IOFTTHB0PBO5I3MV1,3IXEICO796ZWS6XSRKFHZVM4CBDT6O,3,4
205,4,object_01,object_06,455.0,8,1,211.0,0.1111111111111111,2,object_02,1,2652,0,0,1,restaurant_8,2,memory-2step-stake-s,700,5147119,0.0-19.0-0.1-0.205,A28U7B76HLCS1U,3QX22DUVPRXA8IOFTTHB0PBO5I3MV1,3IXEICO796ZWS6XSRKFHZVM4CBDT6O,8,7
206,1,object_09,object_03,364.19999998808,1,1,277.40000000596,0.1111111111111111,1,object_04,5,2657,0,1,3,desert_3,2,memory-2step-stake-s,701,5154712,0.0-19.0-0.1-0.206,A28U7B76HLCS1U,3QX22DUVPRXA8IOFTTHB0PBO5I3MV1,3IXEICO796ZWS6XSRKFHZVM4CBDT6O,1,2
207,3,object_05,object_08,836.40000000596,5,1,430.29999998212,0.3333333333333333,1,object_04,1,2660,0,3,1,library_4,2,memory-2step-stake-s,702,5162661,0.0-19.0-0.1-0.207,A28U7B76HLCS1U,3QX22DUVPRXA8IOFTTHB0PBO5I3MV1,3IXEICO796ZWS6XSRKFHZVM4CBDT6O,5,6
208,2,object_10,object_07,695.29999998212,4,1,291.59999999404,0.1111111111111111,2,object_02,5,2665,0,4,1,forest_4,2,memory-2step-stake-s,703,5170265,0.0-19.0-0.1-0.208,A28U7B76HLCS1U,3QX22DUVPRXA8IOFTTHB0PBO5I3MV1,3IXEICO796ZWS6XSRKFHZVM4CBDT6O,4,3
209,3,object_08,object_05,609.90000000596,5,2,332.20000001788,0.1111111111111111,1,object_04,5,2670,0,1,2,library_1,2,memory-2step-stake-s,704,5177921,0.0-19.0-0.1-0.209,A28U7B76HLCS1U,3QX22DUVPRXA8IOFTTHB0PBO5I3MV1,3IXEICO796ZWS6XSRKFHZVM4CBDT6O,6,5
210,1,object_03,object_09,475.29999998212,1,2,53.5,0.2222222222222222,1,object_04,1,2672,0,2,0,desert_6,2,memory-2step-stake-s,705,5185391,0.0-19.0-0.1-0.210,A28U7B76HLCS1U,3QX22DUVPRXA8IOFTTHB0PBO5I3MV1,3IXEICO796ZWS6XSRKFHZVM4CBDT6O,2,1
211,1,object_03,object_09,460.40000000596,2,1,534.59999999404,0.1111111111111111,2,object_02,1,2673,0,2,1,desert_8,2,memory-2step-stake-s,706,5193247,0.0-19.0-0.1-0.211,A28U7B76HLCS1U,3QX22DUVPRXA8IOFTTHB0PBO5I3MV1,3IXEICO796ZWS6XSRKFHZVM4CBDT6O,2,1
212,1,object_03,object_09,334.79999998212,1,2,256.0,0.3333333333333333,1,object_04,5,2688,0,3,1,desert_4,2,memory-2step-stake-s,707,5201019,0.0-19.0-0.1-0.212,A28U7B76HLCS1U,3QX22DUVPRXA8IOFTTHB0PBO5I3MV1,3IXEICO796ZWS6XSRKFHZVM4CBDT6O,2,1
213,3,object_05,object_08,657.0,5,1,275.40000000596,0.3333333333333333,1,object_04,1,2691,0,3,1,library_7,2,memory-2step-stake-s,708,5208819,0.0-19.0-0.1-0.213,A28U7B76HLCS1U,3QX22DUVPRXA8IOFTTHB0PBO5I3MV1,3IXEICO796ZWS6XSRKFHZVM4CBDT6O,5,6
214,2,object_07,object_10,465.5,4,2,285.30000001192,0.1111111111111111,2,object_02,5,2696,0,5,1,forest_4,2,memory-2step-stake-s,709,5216430,0.0-19.0-0.1-0.214,A28U7B76HLCS1U,3QX22DUVPRXA8IOFTTHB0PBO5I3MV1,3IXEICO796ZWS6XSRKFHZVM4CBDT6O,3,4
215,3,object_08,object_05,1160.6999999881,6,1,345.90000000596,0.3333333333333333,2,object_02,1,2699,0,3,3,library_2,2,memory-2step-stake-s,710,5224292,0.0-19.0-0.1-0.215,A28U7B76HLCS1U,3QX22DUVPRXA8IOFTTHB0PBO5I3MV1,3IXEICO796ZWS6XSRKFHZVM4CBDT6O,6,5
216,1,object_09,object_03,389.29999998212,1,1,303.59999999404,0.2222222222222222,1,object_04,5,2709,0,2,2,desert_3,2,memory-2step-stake-s,711,5232025,0.0-19.0-0.1-0.216,A28U7B76HLCS1U,3QX22DUVPRXA8IOFTTHB0PBO5I3MV1,3IXEICO796ZWS6XSRKFHZVM4CBDT6O,1,2
217,2,object_10,object_07,707.70000001788,3,2,215.20000001788,0.1111111111111111,1,object_04,5,2714,0,1,1,forest_2,2,memory-2step-stake-s,712,5239560,0.0-19.0-0.1-0.217,A28U7B76HLCS1U,3QX22DUVPRXA8IOFTTHB0PBO5I3MV1,3IXEICO796ZWS6XSRKFHZVM4CBDT6O,4,3
218,1,object_09,object_03,236.79999998212,2,2,279.70000001788,0.1111111111111111,2,object_02,5,2719,0,1,1,desert_4,2,memory-2step-stake-s,713,5247157,0.0-19.0-0.1-0.218,A28U7B76HLCS1U,3QX22DUVPRXA8IOFTTHB0PBO5I3MV1,3IXEICO796ZWS6XSRKFHZVM4CBDT6O,1,2
219,2,object_07,object_10,490.29999998212,4,2,324.20000001788,0.2222222222222222,2,object_02,5,2729,0,1,2,forest_2,2,memory-2step-stake-s,714,5254897,0.0-19.0-0.1-0.219,A28U7B76HLCS1U,3QX22DUVPRXA8IOFTTHB0PBO5I3MV1,3IXEICO796ZWS6XSRKFHZVM4CBDT6O,3,4
220,3,object_08,object_05,765.19999998808,6,1,311.40000000596,0.2222222222222222,2,object_02,1,2731,0,3,2,library_7,2,memory-2step-stake-s,715,5262624,0.0-19.0-0.1-0.220,A28U7B76HLCS1U,3QX22DUVPRXA8IOFTTHB0PBO5I3MV1,3IXEICO796ZWS6XSRKFHZVM4CBDT6O,6,5
221,3,object_08,object_05,766.20000001788,6,1,328.69999998808,0.3333333333333333,2,object_02,1,2734,0,0,3,library_4,2,memory-2step-stake-s,716,5270478,0.0-19.0-0.1-0.221,A28U7B76HLCS1U,3QX22DUVPRXA8IOFTTHB0PBO5I3MV1,3IXEICO796ZWS6XSRKFHZVM4CBDT6O,6,5
222,4,object_01,object_06,841.40000000596,8,1,428.59999999404,0.7777777777777778,2,object_02,5,2769,0,1,7,restaurant_8,2,memory-2step-stake-s,717,5278830,0.0-19.0-0.1-0.222,A28U7B76HLCS1U,3QX22DUVPRXA8IOFTTHB0PBO5I3MV1,3IXEICO796ZWS6XSRKFHZVM4CBDT6O,8,7
223,2,object_07,object_10,704.5,3,1,283.09999999404,0.1111111111111111,1,object_04,5,2774,0,1,5,forest_4,2,memory-2step-stake-s,718,5286440,0.0-19.0-0.1-0.223,A28U7B76HLCS1U,3QX22DUVPRXA8IOFTTHB0PBO5I3MV1,3IXEICO796ZWS6XSRKFHZVM4CBDT6O,3,4
224,1,object_03,object_09,422.90000000596,1,2,166.80000001192,0.5555555555555556,1,object_04,5,2799,0,5,8,desert_8,2,memory-2step-stake-s,719,5294343,0.0-19.0-0.1-0.224,A28U7B76HLCS1U,3QX22DUVPRXA8IOFTTHB0PBO5I3MV1,3IXEICO796ZWS6XSRKFHZVM4CBDT6O,2,1
225,4,object_01,object_06,462.39999997616,7,2,289.09999999404,0.5555555555555556,1,object_04,5,2824,0,5,6,restaurant_3,2,memory-2step-stake-s,720,5302369,0.0-19.0-0.1-0.225,A28U7B76HLCS1U,3QX22DUVPRXA8IOFTTHB0PBO5I3MV1,3IXEICO796ZWS6XSRKFHZVM4CBDT6O,8,7
226,3,object_08,object_05,901.5,6,1,547.09999999404,0.5555555555555556,2,object_02,1,2829,0,3,5,library_1,2,memory-2step-stake-s,721,5310630,0.0-19.0-0.1-0.226,A28U7B76HLCS1U,3QX22DUVPRXA8IOFTTHB0PBO5I3MV1,3IXEICO796ZWS6XSRKFHZVM4CBDT6O,6,5
227,1,object_03,object_09,325.30000001192,2,1,169.70000001788,0.6666666666666666,2,object_02,5,2859,0,0,6,desert_3,2,memory-2step-stake-s,722,5318629,0.0-19.0-0.1-0.227,A28U7B76HLCS1U,3QX22DUVPRXA8IOFTTHB0PBO5I3MV1,3IXEICO796ZWS6XSRKFHZVM4CBDT6O,2,1
228,4,object_01,object_06,541.30000001192,8,1,375.5,0.6666666666666666,2,object_02,5,2889,0,5,6,restaurant_1,2,memory-2step-stake-s,723,5326827,0.0-19.0-0.1-0.228,A28U7B76HLCS1U,3QX22DUVPRXA8IOFTTHB0PBO5I3MV1,3IXEICO796ZWS6XSRKFHZVM4CBDT6O,8,7
229,2,object_07,object_10,449.09999999404,3,1,332.80000001192,0.1111111111111111,1,object_04,1,2890,0,1,3,forest_7,2,memory-2step-stake-s,724,5334488,0.0-19.0-0.1-0.229,A28U7B76HLCS1U,3QX22DUVPRXA8IOFTTHB0PBO5I3MV1,3IXEICO796ZWS6XSRKFHZVM4CBDT6O,3,4
230,3,object_08,object_05,861.40000000596,6,1,479.20000001788,0.2222222222222222,2,object_02,5,2900,0,2,2,library_7,2,memory-2step-stake-s,725,5342399,0.0-19.0-0.1-0.230,A28U7B76HLCS1U,3QX22DUVPRXA8IOFTTHB0PBO5I3MV1,3IXEICO796ZWS6XSRKFHZVM4CBDT6O,6,5
231,2,object_07,object_10,454.30000001192,4,2,242.69999998808,0.1111111111111111,2,object_02,5,2905,0,1,1,forest_2,2,memory-2step-stake-s,726,5349966,0.0-19.0-0.1-0.231,A28U7B76HLCS1U,3QX22DUVPRXA8IOFTTHB0PBO5I3MV1,3IXEICO796ZWS6XSRKFHZVM4CBDT6O,3,4
232,1,object_09,object_03,360.0,1,1,242.29999998212,0.3333333333333333,1,object_04,5,2920,0,3,2,desert_4,2,memory-2step-stake-s,727,5357740,0.0-19.0-0.1-0.232,A28U7B76HLCS1U,3QX22DUVPRXA8IOFTTHB0PBO5I3MV1,3IXEICO796ZWS6XSRKFHZVM4CBDT6O,1,2
233,4,object_01,object_06,386.80000001192,8,1,302.19999998808,0.1111111111111111,2,object_02,1,2921,0,1,1,restaurant_1,2,memory-2step-stake-s,728,5365357,0.0-19.0-0.1-0.233,A28U7B76HLCS1U,3QX22DUVPRXA8IOFTTHB0PBO5I3MV1,3IXEICO796ZWS6XSRKFHZVM4CBDT6O,8,7
234,3,object_05,object_08,439.90000000596,5,1,273.09999999404,0.1111111111111111,1,object_04,1,2922,0,1,1,library_1,2,memory-2step-stake-s,729,5372954,0.0-19.0-0.1-0.234,A28U7B76HLCS1U,3QX22DUVPRXA8IOFTTHB0PBO5I3MV1,3IXEICO796ZWS6XSRKFHZVM4CBDT6O,5,6
235,3,object_05,object_08,491.40000000596,5,1,198.80000001192,0.1111111111111111,1,object_04,1,2923,0,1,2,library_7,2,memory-2step-stake-s,730,5380467,0.0-19.0-0.1-0.235,A28U7B76HLCS1U,3QX22DUVPRXA8IOFTTHB0PBO5I3MV1,3IXEICO796ZWS6XSRKFHZVM4CBDT6O,5,6
236,4,object_06,object_01,523.30000001192,7,1,264.40000000596,0.2222222222222222,1,object_04,1,2925,0,2,1,restaurant_6,2,memory-2step-stake-s,731,5388149,0.0-19.0-0.1-0.236,A28U7B76HLCS1U,3QX22DUVPRXA8IOFTTHB0PBO5I3MV1,3IXEICO796ZWS6XSRKFHZVM4CBDT6O,7,8
237,3,object_08,object_05,632.20000001788,5,2,267.59999999404,0.4444444444444444,1,object_04,5,2945,0,4,2,library_4,2,memory-2step-stake-s,732,5396034,0.0-19.0-0.1-0.237,A28U7B76HLCS1U,3QX22DUVPRXA8IOFTTHB0PBO5I3MV1,3IXEICO796ZWS6XSRKFHZVM4CBDT6O,6,5
238,1,object_03,object_09,652.30000001192,1,2,157.79999998212,0.4444444444444444,1,object_04,5,2965,0,4,3,desert_4,2,memory-2step-stake-s,733,5403835,0.0-19.0-0.1-0.238,A28U7B76HLCS1U,3QX22DUVPRXA8IOFTTHB0PBO5I3MV1,3IXEICO796ZWS6XSRKFHZVM4CBDT6O,2,1
239,2,object_10,object_07,560.0,4,1,284.0,0.5555555555555556,2,object_02,5,2990,0,5,5,forest_2,2,memory-2step-stake-s,734,5411843,0.0-19.0-0.1-0.239,A28U7B76HLCS1U,3QX22DUVPRXA8IOFTTHB0PBO5I3MV1,3IXEICO796ZWS6XSRKFHZVM4CBDT6O,4,3
240,2,object_07,object_10,575.29999998212,4,2,371.30000001192,0.3333333333333333,2,object_02,5,3005,0,7,3,forest_7,2,memory-2step-stake-s,735,5419733,0.0-19.0-0.1-0.240,A28U7B76HLCS1U,3QX22DUVPRXA8IOFTTHB0PBO5I3MV1,3IXEICO796ZWS6XSRKFHZVM4CBDT6O,3,4
241,3,object_08,object_05,577.90000000596,6,1,388.5,0.6666666666666666,2,object_02,1,3011,0,8,6,library_7,2,memory-2step-stake-s,736,5427958,0.0-19.0-0.1-0.241,A28U7B76HLCS1U,3QX22DUVPRXA8IOFTTHB0PBO5I3MV1,3IXEICO796ZWS6XSRKFHZVM4CBDT6O,6,5
242,3,object_08,object_05,751.5,6,1,297.40000000596,0.6666666666666666,2,object_02,1,3017,0,8,6,library_2,2,memory-2step-stake-s,737,5436076,0.0-19.0-0.1-0.242,A28U7B76HLCS1U,3QX22DUVPRXA8IOFTTHB0PBO5I3MV1,3IXEICO796ZWS6XSRKFHZVM4CBDT6O,6,5
243,4,object_06,object_01,326.39999997616,7,1,274.59999999404,0.8888888888888888,1,object_04,5,3057,0,8,3,restaurant_1,2,memory-2step-stake-s,738,5444403,0.0-19.0-0.1-0.243,A28U7B76HLCS1U,3QX22DUVPRXA8IOFTTHB0PBO5I3MV1,3IXEICO796ZWS6XSRKFHZVM4CBDT6O,7,8
244,1,object_03,object_09,596.90000000596,1,2,261.30000001192,0.7777777777777778,1,object_04,5,3092,0,7,3,desert_3,2,memory-2step-stake-s,739,5452589,0.0-19.0-0.1-0.244,A28U7B76HLCS1U,3QX22DUVPRXA8IOFTTHB0PBO5I3MV1,3IXEICO796ZWS6XSRKFHZVM4CBDT6O,2,1
245,4,object_06,object_01,841.29999998212,7,1,284.30000001192,0.5555555555555556,1,object_04,1,3097,0,5,5,restaurant_1,2,memory-2step-stake-s,740,5460590,0.0-19.0-0.1-0.245,A28U7B76HLCS1U,3QX22DUVPRXA8IOFTTHB0PBO5I3MV1,3IXEICO796ZWS6XSRKFHZVM4CBDT6O,7,8
246,3,object_08,object_05,694.40000000596,6,1,339.0,0.3333333333333333,2,object_02,1,3100,0,6,3,library_1,2,memory-2step-stake-s,741,5468447,0.0-19.0-0.1-0.246,A28U7B76HLCS1U,3QX22DUVPRXA8IOFTTHB0PBO5I3MV1,3IXEICO796ZWS6XSRKFHZVM4CBDT6O,6,5
247,3,object_05,object_08,619.80000001192,5,1,566.09999999404,0.6666666666666666,1,object_04,1,3106,0,6,2,library_1,2,memory-2step-stake-s,742,5476847,0.0-19.0-0.1-0.247,A28U7B76HLCS1U,3QX22DUVPRXA8IOFTTHB0PBO5I3MV1,3IXEICO796ZWS6XSRKFHZVM4CBDT6O,5,6
248,4,object_01,object_06,462.80000001192,8,1,353.29999998212,0.1111111111111111,2,object_02,1,3107,0,7,1,restaurant_1,2,memory-2step-stake-s,743,5484529,0.0-19.0-0.1-0.248,A28U7B76HLCS1U,3QX22DUVPRXA8IOFTTHB0PBO5I3MV1,3IXEICO796ZWS6XSRKFHZVM4CBDT6O,8,7
249,2,object_07,object_10,419.40000000596,4,2,223.40000000596,0.1111111111111111,2,object_02,5,3112,0,7,1,forest_7,2,memory-2step-stake-s,744,5492086,0.0-19.0-0.1-0.249,A28U7B76HLCS1U,3QX22DUVPRXA8IOFTTHB0PBO5I3MV1,3IXEICO796ZWS6XSRKFHZVM4CBDT6O,3,4
250,2,object_07,object_10,623.60000002384,4,2,250.30000001192,0.0,2,object_02,1,3112,0,6,0,forest_4,2,memory-2step-stake-s,745,5499549,0.0-19.0-0.1-0.250,A28U7B76HLCS1U,3QX22DUVPRXA8IOFTTHB0PBO5I3MV1,3IXEICO796ZWS6XSRKFHZVM4CBDT6O,3,4
251,2,object_10,object_07,774.70000001788,4,1,280.69999998808,0.1111111111111111,2,object_02,5,3117,0,7,1,forest_3,2,memory-2step-stake-s,746,5507147,0.0-19.0-0.1-0.251,A28U7B76HLCS1U,3QX22DUVPRXA8IOFTTHB0PBO5I3MV1,3IXEICO796ZWS6XSRKFHZVM4CBDT6O,4,3
252,4,object_01,object_06,449.80000001192,8,1,314.69999998808,0.0,2,object_02,1,3117,0,5,0,restaurant_6,2,memory-2step-stake-s,747,5514675,0.0-19.0-0.1-0.252,A28U7B76HLCS1U,3QX22DUVPRXA8IOFTTHB0PBO5I3MV1,3IXEICO796ZWS6XSRKFHZVM4CBDT6O,8,7
253,3,object_05,object_08,873.5,6,2,284.0,0.3333333333333333,2,object_02,1,3120,0,1,3,library_4,2,memory-2step-stake-s,748,5522487,0.0-19.0-0.1-0.253,A28U7B76HLCS1U,3QX22DUVPRXA8IOFTTHB0PBO5I3MV1,3IXEICO796ZWS6XSRKFHZVM4CBDT6O,5,6
254,4,object_01,object_06,750.69999998808,8,1,229.69999998808,0.5555555555555556,2,object_02,1,3125,0,3,5,restaurant_6,2,memory-2step-stake-s,749,5530458,0.0-19.0-0.1-0.254,A28U7B76HLCS1U,3QX22DUVPRXA8IOFTTHB0PBO5I3MV1,3IXEICO796ZWS6XSRKFHZVM4CBDT6O,8,7
255,4,object_01,object_06,1098.900000006,8,1,781.29999998212,0.8888888888888888,2,object_02,1,3133,0,4,8,restaurant_6,2,memory-2step-stake-s,750,5539259,0.0-19.0-0.1-0.255,A28U7B76HLCS1U,3QX22DUVPRXA8IOFTTHB0PBO5I3MV1,3IXEICO796ZWS6XSRKFHZVM4CBDT6O,8,7
