,state1,stim_left,stim_right,rt_1,choice1,response1,rt_2,points,state2,stim_state2,stake,score,practice,rews1,rews2,background,high_arm,trial_type,trial_index,time_elapsed,internal_node_id,subid,hitid,assignmentid,stim_left_num,stim_right_num
0,4,object_04,object_08,1090.3999999911,7,1,-1.0,0.0,1,object_01,1,0,0,6,2,restaurant_3,2,memory-2step-stake-s,495,1396091,0.0-19.0-0.0-0.0,A2RVFMCKSSEHDV,3YO4AH2FQG0L0WLRIP03W553LNE0Q1,3W8CV64QJ6FT5G8VPX145MAIRGB9HM,7,8
1,3,object_07,object_03,835.29999999702,5,2,558.20000000298,0.4444444444444444,1,object_01,5,20,0,4,1,library_2,2,memory-2step-stake-s,496,1404378,0.0-19.0-0.0-0.1,A2RVFMCKSSEHDV,3YO4AH2FQG0L0WLRIP03W553LNE0Q1,3W8CV64QJ6FT5G8VPX145MAIRGB9HM,6,5
2,1,object_09,object_05,1074.900000006,2,2,701.5,0.1111111111111111,2,object_06,5,25,0,5,1,desert_2,2,memory-2step-stake-s,497,1412467,0.0-19.0-0.0-0.2,A2RVFMCKSSEHDV,3YO4AH2FQG0L0WLRIP03W553LNE0Q1,3W8CV64QJ6FT5G8VPX145MAIRGB9HM,1,2
3,4,object_08,object_04,615.0,8,1,509.60000000894,0.3333333333333333,2,object_06,5,40,0,5,3,restaurant_2,2,memory-2step-stake-s,498,1420554,0.0-19.0-0.0-0.3,A2RVFMCKSSEHDV,3YO4AH2FQG0L0WLRIP03W553LNE0Q1,3W8CV64QJ6FT5G8VPX145MAIRGB9HM,8,7
4,2,object_10,object_02,606.40000000596,4,2,692.79999999702,0.2222222222222222,2,object_06,5,50,0,5,2,forest_8,2,memory-2step-stake-s,499,1428716,0.0-19.0-0.0-0.4,A2RVFMCKSSEHDV,3YO4AH2FQG0L0WLRIP03W553LNE0Q1,3W8CV64QJ6FT5G8VPX145MAIRGB9HM,3,4
5,1,object_09,object_05,836.59999999404,1,1,625.20000000298,0.4444444444444444,1,object_01,5,70,0,4,2,desert_7,2,memory-2step-stake-s,500,1437064,0.0-19.0-0.0-0.5,A2RVFMCKSSEHDV,3YO4AH2FQG0L0WLRIP03W553LNE0Q1,3W8CV64QJ6FT5G8VPX145MAIRGB9HM,1,2
6,4,object_08,object_04,1180.5,8,1,482.69999998808,0.1111111111111111,2,object_06,1,71,0,6,1,restaurant_2,2,memory-2step-stake-s,501,1444913,0.0-19.0-0.0-0.6,A2RVFMCKSSEHDV,3YO4AH2FQG0L0WLRIP03W553LNE0Q1,3W8CV64QJ6FT5G8VPX145MAIRGB9HM,8,7
7,4,object_04,object_08,1050.700000003,8,2,578.29999999702,0.1111111111111111,2,object_06,5,76,0,1,1,restaurant_3,2,memory-2step-stake-s,502,1452897,0.0-19.0-0.0-0.7,A2RVFMCKSSEHDV,3YO4AH2FQG0L0WLRIP03W553LNE0Q1,3W8CV64QJ6FT5G8VPX145MAIRGB9HM,7,8
8,4,object_08,object_04,1072.0,7,2,443.19999998808,0.0,1,object_01,1,76,0,0,4,restaurant_6,2,memory-2step-stake-s,503,1460612,0.0-19.0-0.0-0.8,A2RVFMCKSSEHDV,3YO4AH2FQG0L0WLRIP03W553LNE0Q1,3W8CV64QJ6FT5G8VPX145MAIRGB9HM,8,7
9,2,object_10,object_02,438.29999999702,3,1,425.20000000298,0.0,1,object_01,1,76,0,0,5,forest_1,2,memory-2step-stake-s,504,1468299,0.0-19.0-0.0-0.9,A2RVFMCKSSEHDV,3YO4AH2FQG0L0WLRIP03W553LNE0Q1,3W8CV64QJ6FT5G8VPX145MAIRGB9HM,3,4
10,2,object_10,object_02,735.20000000298,4,2,1009.700000003,0.8888888888888888,2,object_06,5,116,0,2,8,forest_8,2,memory-2step-stake-s,505,1477447,0.0-19.0-0.0-0.10,A2RVFMCKSSEHDV,3YO4AH2FQG0L0WLRIP03W553LNE0Q1,3W8CV64QJ6FT5G8VPX145MAIRGB9HM,3,4
11,3,object_07,object_03,1224.5,5,2,647.5,0.4444444444444444,1,object_01,1,120,0,4,8,library_4,2,memory-2step-stake-s,506,1485791,0.0-19.0-0.0-0.11,A2RVFMCKSSEHDV,3YO4AH2FQG0L0WLRIP03W553LNE0Q1,3W8CV64QJ6FT5G8VPX145MAIRGB9HM,6,5
12,1,object_09,object_05,680.09999999404,1,1,481.5,0.4444444444444444,1,object_01,5,140,0,4,8,desert_7,2,memory-2step-stake-s,507,1493932,0.0-19.0-0.0-0.12,A2RVFMCKSSEHDV,3YO4AH2FQG0L0WLRIP03W553LNE0Q1,3W8CV64QJ6FT5G8VPX145MAIRGB9HM,1,2
13,2,object_10,object_02,1273.1000000089,4,2,465.19999998808,0.6666666666666666,2,object_06,5,170,0,3,6,forest_7,2,memory-2step-stake-s,508,1502281,0.0-19.0-0.0-0.13,A2RVFMCKSSEHDV,3YO4AH2FQG0L0WLRIP03W553LNE0Q1,3W8CV64QJ6FT5G8VPX145MAIRGB9HM,3,4
14,1,object_05,object_09,823.39999999106,1,2,368.0,0.2222222222222222,1,object_01,5,180,0,2,5,desert_2,2,memory-2step-stake-s,509,1510150,0.0-19.0-0.0-0.14,A2RVFMCKSSEHDV,3YO4AH2FQG0L0WLRIP03W553LNE0Q1,3W8CV64QJ6FT5G8VPX145MAIRGB9HM,2,1
15,2,object_10,object_02,1115.8999999911,4,2,613.09999999404,0.2222222222222222,2,object_06,5,190,0,3,2,forest_6,2,memory-2step-stake-s,510,1518245,0.0-19.0-0.0-0.15,A2RVFMCKSSEHDV,3YO4AH2FQG0L0WLRIP03W553LNE0Q1,3W8CV64QJ6FT5G8VPX145MAIRGB9HM,3,4
16,4,object_04,object_08,838.20000000298,7,1,396.79999999702,0.3333333333333333,1,object_01,1,193,0,3,3,restaurant_6,2,memory-2step-stake-s,511,1526242,0.0-19.0-0.0-0.16,A2RVFMCKSSEHDV,3YO4AH2FQG0L0WLRIP03W553LNE0Q1,3W8CV64QJ6FT5G8VPX145MAIRGB9HM,7,8
17,4,object_08,object_04,712.79999999702,7,2,398.0,0.1111111111111111,1,object_01,1,194,0,1,3,restaurant_2,2,memory-2step-stake-s,512,1533995,0.0-19.0-0.0-0.17,A2RVFMCKSSEHDV,3YO4AH2FQG0L0WLRIP03W553LNE0Q1,3W8CV64QJ6FT5G8VPX145MAIRGB9HM,8,7
18,2,object_10,object_02,968.79999999702,3,1,628.90000000596,0.2222222222222222,1,object_01,5,204,0,2,2,forest_8,2,memory-2step-stake-s,513,1542103,0.0-19.0-0.0-0.18,A2RVFMCKSSEHDV,3YO4AH2FQG0L0WLRIP03W553LNE0Q1,3W8CV64QJ6FT5G8VPX145MAIRGB9HM,3,4
19,2,object_02,object_10,848.79999999702,3,2,463.90000000596,0.1111111111111111,1,object_01,5,209,0,1,2,forest_7,2,memory-2step-stake-s,514,1549930,0.0-19.0-0.0-0.19,A2RVFMCKSSEHDV,3YO4AH2FQG0L0WLRIP03W553LNE0Q1,3W8CV64QJ6FT5G8VPX145MAIRGB9HM,4,3
20,2,object_02,object_10,876.90000000596,4,1,458.29999999702,0.3333333333333333,2,object_06,5,224,0,0,3,forest_7,2,memory-2step-stake-s,515,1557961,0.0-19.0-0.0-0.20,A2RVFMCKSSEHDV,3YO4AH2FQG0L0WLRIP03W553LNE0Q1,3W8CV64QJ6FT5G8VPX145MAIRGB9HM,4,3
21,1,object_09,object_05,769.79999999702,2,2,169.79999999702,0.6666666666666666,2,object_06,5,254,0,0,6,desert_6,2,memory-2step-stake-s,516,1566060,0.0-19.0-0.0-0.21,A2RVFMCKSSEHDV,3YO4AH2FQG0L0WLRIP03W553LNE0Q1,3W8CV64QJ6FT5G8VPX145MAIRGB9HM,1,2
22,1,object_05,object_09,1068.799999997,1,2,421.59999999404,0.3333333333333333,1,object_01,5,269,0,3,8,desert_2,2,memory-2step-stake-s,517,1574070,0.0-19.0-0.0-0.22,A2RVFMCKSSEHDV,3YO4AH2FQG0L0WLRIP03W553LNE0Q1,3W8CV64QJ6FT5G8VPX145MAIRGB9HM,2,1
23,3,object_07,object_03,495.89999999106,6,1,595.0,0.7777777777777778,2,object_06,1,276,0,2,7,library_4,2,memory-2step-stake-s,518,1582760,0.0-19.0-0.0-0.23,A2RVFMCKSSEHDV,3YO4AH2FQG0L0WLRIP03W553LNE0Q1,3W8CV64QJ6FT5G8VPX145MAIRGB9HM,6,5
24,1,object_09,object_05,601.40000000596,1,1,479.30000001192,0.2222222222222222,1,object_01,5,286,0,2,7,desert_1,2,memory-2step-stake-s,519,1590754,0.0-19.0-0.0-0.24,A2RVFMCKSSEHDV,3YO4AH2FQG0L0WLRIP03W553LNE0Q1,3W8CV64QJ6FT5G8VPX145MAIRGB9HM,1,2
25,3,object_03,object_07,715.39999999106,5,1,797.59999999404,0.1111111111111111,1,object_01,1,287,0,1,6,library_3,2,memory-2step-stake-s,520,1598925,0.0-19.0-0.0-0.25,A2RVFMCKSSEHDV,3YO4AH2FQG0L0WLRIP03W553LNE0Q1,3W8CV64QJ6FT5G8VPX145MAIRGB9HM,5,6
26,1,object_05,object_09,418.09999999404,2,1,460.40000000596,1.0,2,object_06,5,332,0,1,9,desert_6,2,memory-2step-stake-s,521,1607633,0.0-19.0-0.0-0.26,A2RVFMCKSSEHDV,3YO4AH2FQG0L0WLRIP03W553LNE0Q1,3W8CV64QJ6FT5G8VPX145MAIRGB9HM,2,1
27,4,object_08,object_04,1264.900000006,8,1,-1.0,0.0,2,object_06,1,332,0,0,8,restaurant_6,2,memory-2step-stake-s,522,1616224,0.0-19.0-0.0-0.27,A2RVFMCKSSEHDV,3YO4AH2FQG0L0WLRIP03W553LNE0Q1,3W8CV64QJ6FT5G8VPX145MAIRGB9HM,8,7
28,3,object_07,object_03,697.40000000596,6,1,524.70000000298,0.7777777777777778,2,object_06,1,339,0,0,7,library_8,2,memory-2step-stake-s,523,1624776,0.0-19.0-0.0-0.28,A2RVFMCKSSEHDV,3YO4AH2FQG0L0WLRIP03W553LNE0Q1,3W8CV64QJ6FT5G8VPX145MAIRGB9HM,6,5
29,1,object_05,object_09,1310.599999994,2,1,727.0,0.8888888888888888,2,object_06,5,379,0,0,8,desert_7,2,memory-2step-stake-s,524,1633677,0.0-19.0-0.0-0.29,A2RVFMCKSSEHDV,3YO4AH2FQG0L0WLRIP03W553LNE0Q1,3W8CV64QJ6FT5G8VPX145MAIRGB9HM,2,1
30,2,object_02,object_10,621.29999999702,3,2,404.20000000298,0.2222222222222222,1,object_01,5,389,0,2,9,forest_7,2,memory-2step-stake-s,525,1641577,0.0-19.0-0.0-0.30,A2RVFMCKSSEHDV,3YO4AH2FQG0L0WLRIP03W553LNE0Q1,3W8CV64QJ6FT5G8VPX145MAIRGB9HM,4,3
31,4,object_08,object_04,1473.8000000119,8,1,424.79999999702,0.7777777777777778,2,object_06,5,424,0,3,7,restaurant_3,2,memory-2step-stake-s,526,1649990,0.0-19.0-0.0-0.31,A2RVFMCKSSEHDV,3YO4AH2FQG0L0WLRIP03W553LNE0Q1,3W8CV64QJ6FT5G8VPX145MAIRGB9HM,8,7
32,3,object_03,object_07,1122.6999999881,5,1,626.40000000596,0.0,1,object_01,1,424,0,0,6,library_4,2,memory-2step-stake-s,527,1657874,0.0-19.0-0.0-0.32,A2RVFMCKSSEHDV,3YO4AH2FQG0L0WLRIP03W553LNE0Q1,3W8CV64QJ6FT5G8VPX145MAIRGB9HM,5,6
33,1,object_05,object_09,-1.0,-1,-1,-1.0,0.0,-,0,5,424,0,0,8,desert_6,2,memory-2step-stake-s,528,1664435,0.0-19.0-0.0-0.33,A2RVFMCKSSEHDV,3YO4AH2FQG0L0WLRIP03W553LNE0Q1,3W8CV64QJ6FT5G8VPX145MAIRGB9HM,2,1
34,4,object_04,object_08,474.59999999404,7,1,418.70000000298,0.1111111111111111,1,object_01,1,425,0,1,9,restaurant_2,2,memory-2step-stake-s,529,1672239,0.0-19.0-0.0-0.34,A2RVFMCKSSEHDV,3YO4AH2FQG0L0WLRIP03W553LNE0Q1,3W8CV64QJ6FT5G8VPX145MAIRGB9HM,7,8
35,1,object_09,object_05,602.39999999106,2,2,468.70000000298,0.8888888888888888,2,object_06,1,433,0,3,8,desert_2,2,memory-2step-stake-s,530,1680845,0.0-19.0-0.0-0.35,A2RVFMCKSSEHDV,3YO4AH2FQG0L0WLRIP03W553LNE0Q1,3W8CV64QJ6FT5G8VPX145MAIRGB9HM,1,2
36,2,object_02,object_10,362.0,3,2,391.59999999404,0.2222222222222222,1,object_01,1,435,0,2,8,forest_6,2,memory-2step-stake-s,531,1688703,0.0-19.0-0.0-0.36,A2RVFMCKSSEHDV,3YO4AH2FQG0L0WLRIP03W553LNE0Q1,3W8CV64QJ6FT5G8VPX145MAIRGB9HM,4,3
37,1,object_05,object_09,668.40000000596,2,1,452.09999999404,0.5555555555555556,2,object_06,5,460,0,2,5,desert_7,2,memory-2step-stake-s,532,1696951,0.0-19.0-0.0-0.37,A2RVFMCKSSEHDV,3YO4AH2FQG0L0WLRIP03W553LNE0Q1,3W8CV64QJ6FT5G8VPX145MAIRGB9HM,2,1
38,3,object_03,object_07,720.0,6,2,423.5,0.5555555555555556,2,object_06,1,465,0,2,5,library_8,2,memory-2step-stake-s,533,1705226,0.0-19.0-0.0-0.38,A2RVFMCKSSEHDV,3YO4AH2FQG0L0WLRIP03W553LNE0Q1,3W8CV64QJ6FT5G8VPX145MAIRGB9HM,5,6
39,4,object_08,object_04,820.80000001192,8,1,312.90000000596,0.5555555555555556,2,object_06,1,470,0,0,5,restaurant_6,2,memory-2step-stake-s,534,1713354,0.0-19.0-0.0-0.39,A2RVFMCKSSEHDV,3YO4AH2FQG0L0WLRIP03W553LNE0Q1,3W8CV64QJ6FT5G8VPX145MAIRGB9HM,8,7
40,1,object_05,object_09,435.79999999702,1,2,322.70000000298,0.1111111111111111,1,object_01,1,471,0,1,6,desert_6,2,memory-2step-stake-s,535,1721049,0.0-19.0-0.0-0.40,A2RVFMCKSSEHDV,3YO4AH2FQG0L0WLRIP03W553LNE0Q1,3W8CV64QJ6FT5G8VPX145MAIRGB9HM,2,1
41,3,object_07,object_03,915.79999999702,6,1,378.09999999404,0.6666666666666666,2,object_06,1,477,0,5,6,library_8,2,memory-2step-stake-s,536,1729379,0.0-19.0-0.0-0.41,A2RVFMCKSSEHDV,3YO4AH2FQG0L0WLRIP03W553LNE0Q1,3W8CV64QJ6FT5G8VPX145MAIRGB9HM,6,5
42,4,object_08,object_04,656.60000000894,7,2,-1.0,0.0,1,object_01,1,477,0,1,7,restaurant_2,2,memory-2step-stake-s,537,1737954,0.0-19.0-0.0-0.42,A2RVFMCKSSEHDV,3YO4AH2FQG0L0WLRIP03W553LNE0Q1,3W8CV64QJ6FT5G8VPX145MAIRGB9HM,8,7
43,2,object_02,object_10,365.90000000596,3,2,379.39999999106,0.2222222222222222,1,object_01,5,487,0,2,9,forest_6,2,memory-2step-stake-s,538,1745802,0.0-19.0-0.0-0.43,A2RVFMCKSSEHDV,3YO4AH2FQG0L0WLRIP03W553LNE0Q1,3W8CV64QJ6FT5G8VPX145MAIRGB9HM,4,3
44,2,object_10,object_02,632.90000000596,3,1,444.0,0.0,1,object_01,5,487,0,0,8,forest_6,2,memory-2step-stake-s,539,1753505,0.0-19.0-0.0-0.44,A2RVFMCKSSEHDV,3YO4AH2FQG0L0WLRIP03W553LNE0Q1,3W8CV64QJ6FT5G8VPX145MAIRGB9HM,3,4
45,1,object_05,object_09,554.79999999702,1,2,375.70000000298,0.1111111111111111,1,object_01,1,488,0,1,8,desert_6,2,memory-2step-stake-s,540,1761239,0.0-19.0-0.0-0.45,A2RVFMCKSSEHDV,3YO4AH2FQG0L0WLRIP03W553LNE0Q1,3W8CV64QJ6FT5G8VPX145MAIRGB9HM,2,1
46,4,object_08,object_04,425.5,8,1,485.70000000298,1.0,2,object_06,1,497,0,0,9,restaurant_6,2,memory-2step-stake-s,541,1769960,0.0-19.0-0.0-0.46,A2RVFMCKSSEHDV,3YO4AH2FQG0L0WLRIP03W553LNE0Q1,3W8CV64QJ6FT5G8VPX145MAIRGB9HM,8,7
47,2,object_02,object_10,362.89999999106,3,2,432.60000000894,0.1111111111111111,1,object_01,1,498,0,1,8,forest_7,2,memory-2step-stake-s,542,1777776,0.0-19.0-0.0-0.47,A2RVFMCKSSEHDV,3YO4AH2FQG0L0WLRIP03W553LNE0Q1,3W8CV64QJ6FT5G8VPX145MAIRGB9HM,4,3
48,4,object_04,object_08,588.5,8,2,757.60000000894,0.8888888888888888,2,object_06,1,506,0,2,8,restaurant_3,2,memory-2step-stake-s,543,1786742,0.0-19.0-0.0-0.48,A2RVFMCKSSEHDV,3YO4AH2FQG0L0WLRIP03W553LNE0Q1,3W8CV64QJ6FT5G8VPX145MAIRGB9HM,7,8
49,4,object_08,object_04,680.29999999702,7,2,390.40000000596,0.0,1,object_01,1,506,0,0,4,restaurant_2,2,memory-2step-stake-s,544,1794382,0.0-19.0-0.0-0.49,A2RVFMCKSSEHDV,3YO4AH2FQG0L0WLRIP03W553LNE0Q1,3W8CV64QJ6FT5G8VPX145MAIRGB9HM,8,7
50,2,object_02,object_10,629.29999999702,3,2,269.70000000298,0.1111111111111111,1,object_01,1,507,0,1,2,forest_8,2,memory-2step-stake-s,545,1802028,0.0-19.0-0.0-0.50,A2RVFMCKSSEHDV,3YO4AH2FQG0L0WLRIP03W553LNE0Q1,3W8CV64QJ6FT5G8VPX145MAIRGB9HM,4,3
51,1,object_09,object_05,586.69999998808,2,2,468.20000000298,0.3333333333333333,2,object_06,5,522,0,1,3,desert_7,2,memory-2step-stake-s,546,1810060,0.0-19.0-0.0-0.51,A2RVFMCKSSEHDV,3YO4AH2FQG0L0WLRIP03W553LNE0Q1,3W8CV64QJ6FT5G8VPX145MAIRGB9HM,1,2
52,1,object_05,object_09,517.60000000894,1,2,435.10000000894,0.0,1,object_01,5,522,0,0,3,desert_2,2,memory-2step-stake-s,547,1817770,0.0-19.0-0.0-0.52,A2RVFMCKSSEHDV,3YO4AH2FQG0L0WLRIP03W553LNE0Q1,3W8CV64QJ6FT5G8VPX145MAIRGB9HM,2,1
53,1,object_09,object_05,408.59999999404,1,1,374.30000001192,0.2222222222222222,1,object_01,5,532,0,2,3,desert_6,2,memory-2step-stake-s,548,1825608,0.0-19.0-0.0-0.53,A2RVFMCKSSEHDV,3YO4AH2FQG0L0WLRIP03W553LNE0Q1,3W8CV64QJ6FT5G8VPX145MAIRGB9HM,1,2
54,4,object_08,object_04,361.70000000298,7,2,297.29999999702,0.2222222222222222,1,object_01,1,534,0,2,0,restaurant_3,2,memory-2step-stake-s,549,1833378,0.0-19.0-0.0-0.54,A2RVFMCKSSEHDV,3YO4AH2FQG0L0WLRIP03W553LNE0Q1,3W8CV64QJ6FT5G8VPX145MAIRGB9HM,8,7
55,2,object_10,object_02,630.70000000298,3,1,360.60000000894,0.1111111111111111,1,object_01,5,539,0,1,2,forest_8,2,memory-2step-stake-s,550,1841152,0.0-19.0-0.0-0.55,A2RVFMCKSSEHDV,3YO4AH2FQG0L0WLRIP03W553LNE0Q1,3W8CV64QJ6FT5G8VPX145MAIRGB9HM,3,4
56,4,object_04,object_08,317.79999999702,8,2,446.40000000596,0.2222222222222222,2,object_06,1,541,0,0,2,restaurant_6,2,memory-2step-stake-s,551,1849087,0.0-19.0-0.0-0.56,A2RVFMCKSSEHDV,3YO4AH2FQG0L0WLRIP03W553LNE0Q1,3W8CV64QJ6FT5G8VPX145MAIRGB9HM,7,8
57,1,object_05,object_09,765.20000000298,1,2,384.0,0.1111111111111111,1,object_01,5,546,0,1,1,desert_2,2,memory-2step-stake-s,552,1856851,0.0-19.0-0.0-0.57,A2RVFMCKSSEHDV,3YO4AH2FQG0L0WLRIP03W553LNE0Q1,3W8CV64QJ6FT5G8VPX145MAIRGB9HM,2,1
58,2,object_02,object_10,841.59999999404,4,1,392.60000000894,0.4444444444444444,2,object_06,5,566,0,3,4,forest_8,2,memory-2step-stake-s,553,1864936,0.0-19.0-0.0-0.58,A2RVFMCKSSEHDV,3YO4AH2FQG0L0WLRIP03W553LNE0Q1,3W8CV64QJ6FT5G8VPX145MAIRGB9HM,4,3
59,2,object_10,object_02,655.80000001192,4,2,432.19999998808,1.0,2,object_06,5,611,0,6,9,forest_1,2,memory-2step-stake-s,554,1873612,0.0-19.0-0.0-0.59,A2RVFMCKSSEHDV,3YO4AH2FQG0L0WLRIP03W553LNE0Q1,3W8CV64QJ6FT5G8VPX145MAIRGB9HM,3,4
60,1,object_09,object_05,1203.900000006,2,2,538.5,1.0,2,object_06,5,656,0,6,9,desert_1,2,memory-2step-stake-s,555,1882424,0.0-19.0-0.0-0.60,A2RVFMCKSSEHDV,3YO4AH2FQG0L0WLRIP03W553LNE0Q1,3W8CV64QJ6FT5G8VPX145MAIRGB9HM,1,2
61,2,object_10,object_02,1350.5,4,2,804.60000000894,1.0,2,object_06,5,701,0,6,9,forest_1,2,memory-2step-stake-s,556,1891484,0.0-19.0-0.0-0.61,A2RVFMCKSSEHDV,3YO4AH2FQG0L0WLRIP03W553LNE0Q1,3W8CV64QJ6FT5G8VPX145MAIRGB9HM,3,4
62,2,object_02,object_10,1388.0,3,2,327.90000000596,0.4444444444444444,1,object_01,1,705,0,4,9,forest_8,2,memory-2step-stake-s,557,1899509,0.0-19.0-0.0-0.62,A2RVFMCKSSEHDV,3YO4AH2FQG0L0WLRIP03W553LNE0Q1,3W8CV64QJ6FT5G8VPX145MAIRGB9HM,4,3
63,3,object_07,object_03,849.39999999106,5,2,493.5,0.1111111111111111,1,object_01,1,706,0,1,8,library_2,2,memory-2step-stake-s,558,1907386,0.0-19.0-0.0-0.63,A2RVFMCKSSEHDV,3YO4AH2FQG0L0WLRIP03W553LNE0Q1,3W8CV64QJ6FT5G8VPX145MAIRGB9HM,6,5
64,4,object_08,object_04,663.5,8,1,400.90000000596,0.8888888888888888,2,object_06,5,746,0,0,8,restaurant_6,2,memory-2step-stake-s,559,1915923,0.0-19.0-0.0-0.64,A2RVFMCKSSEHDV,3YO4AH2FQG0L0WLRIP03W553LNE0Q1,3W8CV64QJ6FT5G8VPX145MAIRGB9HM,8,7
65,1,object_05,object_09,545.5,2,1,457.5,0.7777777777777778,2,object_06,1,753,0,1,7,desert_7,2,memory-2step-stake-s,560,1924376,0.0-19.0-0.0-0.65,A2RVFMCKSSEHDV,3YO4AH2FQG0L0WLRIP03W553LNE0Q1,3W8CV64QJ6FT5G8VPX145MAIRGB9HM,2,1
66,4,object_04,object_08,563.10000000894,7,1,307.29999999702,0.0,1,object_01,1,753,0,0,8,restaurant_8,2,memory-2step-stake-s,561,1931957,0.0-19.0-0.0-0.66,A2RVFMCKSSEHDV,3YO4AH2FQG0L0WLRIP03W553LNE0Q1,3W8CV64QJ6FT5G8VPX145MAIRGB9HM,7,8
67,4,object_08,object_04,657.30000001192,8,1,424.29999999702,1.0,2,object_06,1,762,0,0,9,restaurant_8,2,memory-2step-stake-s,562,1940630,0.0-19.0-0.0-0.67,A2RVFMCKSSEHDV,3YO4AH2FQG0L0WLRIP03W553LNE0Q1,3W8CV64QJ6FT5G8VPX145MAIRGB9HM,8,7
68,4,object_04,object_08,682.90000000596,7,1,410.59999999404,0.3333333333333333,1,object_01,5,777,0,3,7,restaurant_2,2,memory-2step-stake-s,563,1948648,0.0-19.0-0.0-0.68,A2RVFMCKSSEHDV,3YO4AH2FQG0L0WLRIP03W553LNE0Q1,3W8CV64QJ6FT5G8VPX145MAIRGB9HM,7,8
69,2,object_02,object_10,632.0,3,2,420.0,0.4444444444444444,1,object_01,5,797,0,4,7,forest_6,2,memory-2step-stake-s,564,1956775,0.0-19.0-0.0-0.69,A2RVFMCKSSEHDV,3YO4AH2FQG0L0WLRIP03W553LNE0Q1,3W8CV64QJ6FT5G8VPX145MAIRGB9HM,4,3
70,4,object_04,object_08,557.90000000596,7,1,514.20000000298,0.4444444444444444,1,object_01,1,801,0,4,6,restaurant_2,2,memory-2step-stake-s,565,1964992,0.0-19.0-0.0-0.70,A2RVFMCKSSEHDV,3YO4AH2FQG0L0WLRIP03W553LNE0Q1,3W8CV64QJ6FT5G8VPX145MAIRGB9HM,7,8
71,4,object_08,object_04,360.29999999702,8,1,-1.0,0.0,2,object_06,1,801,0,7,2,restaurant_3,2,memory-2step-stake-s,566,1973568,0.0-19.0-0.0-0.71,A2RVFMCKSSEHDV,3YO4AH2FQG0L0WLRIP03W553LNE0Q1,3W8CV64QJ6FT5G8VPX145MAIRGB9HM,8,7
72,3,object_07,object_03,340.5,6,1,435.29999999702,0.2222222222222222,2,object_06,5,811,0,7,2,library_3,2,memory-2step-stake-s,567,1981490,0.0-19.0-0.0-0.72,A2RVFMCKSSEHDV,3YO4AH2FQG0L0WLRIP03W553LNE0Q1,3W8CV64QJ6FT5G8VPX145MAIRGB9HM,6,5
73,2,object_02,object_10,537.20000000298,4,1,513.0,0.4444444444444444,2,object_06,5,831,0,3,4,forest_1,2,memory-2step-stake-s,568,1989674,0.0-19.0-0.0-0.73,A2RVFMCKSSEHDV,3YO4AH2FQG0L0WLRIP03W553LNE0Q1,3W8CV64QJ6FT5G8VPX145MAIRGB9HM,4,3
74,3,object_03,object_07,1061.099999994,6,2,411.29999999702,0.3333333333333333,2,object_06,1,834,0,1,3,library_3,2,memory-2step-stake-s,569,1997665,0.0-19.0-0.0-0.74,A2RVFMCKSSEHDV,3YO4AH2FQG0L0WLRIP03W553LNE0Q1,3W8CV64QJ6FT5G8VPX145MAIRGB9HM,5,6
75,3,object_03,object_07,1434.700000003,5,1,-1.0,0.0,1,object_01,1,834,0,0,3,library_4,2,memory-2step-stake-s,570,2006228,0.0-19.0-0.0-0.75,A2RVFMCKSSEHDV,3YO4AH2FQG0L0WLRIP03W553LNE0Q1,3W8CV64QJ6FT5G8VPX145MAIRGB9HM,5,6
76,1,object_09,object_05,1417.5,1,1,619.59999999404,0.4444444444444444,1,object_01,1,838,0,4,0,desert_6,2,memory-2step-stake-s,571,2014561,0.0-19.0-0.0-0.76,A2RVFMCKSSEHDV,3YO4AH2FQG0L0WLRIP03W553LNE0Q1,3W8CV64QJ6FT5G8VPX145MAIRGB9HM,1,2
77,3,object_03,object_07,768.0,5,1,417.5,0.3333333333333333,1,object_01,1,841,0,3,4,library_4,2,memory-2step-stake-s,572,2022569,0.0-19.0-0.0-0.77,A2RVFMCKSSEHDV,3YO4AH2FQG0L0WLRIP03W553LNE0Q1,3W8CV64QJ6FT5G8VPX145MAIRGB9HM,5,6
78,2,object_02,object_10,286.09999999404,3,2,412.80000001192,0.4444444444444444,1,object_01,5,861,0,4,5,forest_6,2,memory-2step-stake-s,573,2030675,0.0-19.0-0.0-0.78,A2RVFMCKSSEHDV,3YO4AH2FQG0L0WLRIP03W553LNE0Q1,3W8CV64QJ6FT5G8VPX145MAIRGB9HM,4,3
79,2,object_10,object_02,420.59999999404,3,1,371.70000000298,0.3333333333333333,1,object_01,5,876,0,3,5,forest_6,2,memory-2step-stake-s,574,2038627,0.0-19.0-0.0-0.79,A2RVFMCKSSEHDV,3YO4AH2FQG0L0WLRIP03W553LNE0Q1,3W8CV64QJ6FT5G8VPX145MAIRGB9HM,3,4
80,1,object_09,object_05,833.90000000596,2,2,581.0,0.6666666666666666,2,object_06,1,882,0,1,6,desert_2,2,memory-2step-stake-s,575,2047109,0.0-19.0-0.0-0.80,A2RVFMCKSSEHDV,3YO4AH2FQG0L0WLRIP03W553LNE0Q1,3W8CV64QJ6FT5G8VPX145MAIRGB9HM,1,2
81,1,object_05,object_09,763.5,1,2,369.5,0.0,1,object_01,5,882,0,0,4,desert_2,2,memory-2step-stake-s,576,2054739,0.0-19.0-0.0-0.81,A2RVFMCKSSEHDV,3YO4AH2FQG0L0WLRIP03W553LNE0Q1,3W8CV64QJ6FT5G8VPX145MAIRGB9HM,2,1
82,3,object_07,object_03,1072.5,5,2,602.0,0.1111111111111111,1,object_01,5,887,0,1,3,library_8,2,memory-2step-stake-s,577,2062724,0.0-19.0-0.0-0.82,A2RVFMCKSSEHDV,3YO4AH2FQG0L0WLRIP03W553LNE0Q1,3W8CV64QJ6FT5G8VPX145MAIRGB9HM,6,5
83,2,object_10,object_02,892.79999999702,3,1,406.89999999106,0.2222222222222222,1,object_01,5,897,0,2,3,forest_1,2,memory-2step-stake-s,578,2070626,0.0-19.0-0.0-0.83,A2RVFMCKSSEHDV,3YO4AH2FQG0L0WLRIP03W553LNE0Q1,3W8CV64QJ6FT5G8VPX145MAIRGB9HM,3,4
84,4,object_08,object_04,807.69999998808,7,2,456.90000000596,0.1111111111111111,1,object_01,1,898,0,1,1,restaurant_3,2,memory-2step-stake-s,579,2078441,0.0-19.0-0.0-0.84,A2RVFMCKSSEHDV,3YO4AH2FQG0L0WLRIP03W553LNE0Q1,3W8CV64QJ6FT5G8VPX145MAIRGB9HM,8,7
85,1,object_09,object_05,743.89999999106,2,2,387.79999999702,0.3333333333333333,2,object_06,5,913,0,2,3,desert_6,2,memory-2step-stake-s,580,2086409,0.0-19.0-0.0-0.85,A2RVFMCKSSEHDV,3YO4AH2FQG0L0WLRIP03W553LNE0Q1,3W8CV64QJ6FT5G8VPX145MAIRGB9HM,1,2
86,3,object_03,object_07,843.09999999404,5,1,350.90000000596,0.3333333333333333,1,object_01,5,928,0,3,6,library_3,2,memory-2step-stake-s,581,2094368,0.0-19.0-0.0-0.86,A2RVFMCKSSEHDV,3YO4AH2FQG0L0WLRIP03W553LNE0Q1,3W8CV64QJ6FT5G8VPX145MAIRGB9HM,5,6
87,4,object_04,object_08,366.60000000894,8,2,506.10000000894,0.5555555555555556,2,object_06,1,933,0,0,5,restaurant_6,2,memory-2step-stake-s,582,2102675,0.0-19.0-0.0-0.87,A2RVFMCKSSEHDV,3YO4AH2FQG0L0WLRIP03W553LNE0Q1,3W8CV64QJ6FT5G8VPX145MAIRGB9HM,7,8
88,3,object_03,object_07,552.20000000298,5,1,463.70000000298,0.1111111111111111,1,object_01,1,934,0,1,6,library_8,2,memory-2step-stake-s,583,2110526,0.0-19.0-0.0-0.88,A2RVFMCKSSEHDV,3YO4AH2FQG0L0WLRIP03W553LNE0Q1,3W8CV64QJ6FT5G8VPX145MAIRGB9HM,5,6
89,3,object_07,object_03,292.29999999702,5,2,487.79999999702,0.3333333333333333,1,object_01,5,949,0,3,4,library_2,2,memory-2step-stake-s,584,2118606,0.0-19.0-0.0-0.89,A2RVFMCKSSEHDV,3YO4AH2FQG0L0WLRIP03W553LNE0Q1,3W8CV64QJ6FT5G8VPX145MAIRGB9HM,6,5
90,1,object_09,object_05,943.39999999106,1,1,420.80000001192,0.3333333333333333,1,object_01,5,964,0,3,4,desert_1,2,memory-2step-stake-s,585,2126634,0.0-19.0-0.0-0.90,A2RVFMCKSSEHDV,3YO4AH2FQG0L0WLRIP03W553LNE0Q1,3W8CV64QJ6FT5G8VPX145MAIRGB9HM,1,2
91,2,object_10,object_02,565.60000000894,4,2,443.70000000298,0.6666666666666666,2,object_06,1,970,0,4,6,forest_6,2,memory-2step-stake-s,586,2134982,0.0-19.0-0.0-0.91,A2RVFMCKSSEHDV,3YO4AH2FQG0L0WLRIP03W553LNE0Q1,3W8CV64QJ6FT5G8VPX145MAIRGB9HM,3,4
92,3,object_03,object_07,323.19999998808,6,2,46.20000000298,1.0,2,object_06,1,979,0,4,9,library_3,2,memory-2step-stake-s,587,2143246,0.0-19.0-0.0-0.92,A2RVFMCKSSEHDV,3YO4AH2FQG0L0WLRIP03W553LNE0Q1,3W8CV64QJ6FT5G8VPX145MAIRGB9HM,5,6
93,4,object_04,object_08,460.79999999702,7,1,326.30000001192,0.6666666666666666,1,object_01,1,985,0,6,9,restaurant_2,2,memory-2step-stake-s,588,2151469,0.0-19.0-0.0-0.93,A2RVFMCKSSEHDV,3YO4AH2FQG0L0WLRIP03W553LNE0Q1,3W8CV64QJ6FT5G8VPX145MAIRGB9HM,7,8
94,3,object_03,object_07,424.59999999404,6,2,411.5,0.7777777777777778,2,object_06,1,992,0,5,7,library_4,2,memory-2step-stake-s,589,2159889,0.0-19.0-0.0-0.94,A2RVFMCKSSEHDV,3YO4AH2FQG0L0WLRIP03W553LNE0Q1,3W8CV64QJ6FT5G8VPX145MAIRGB9HM,5,6
95,4,object_08,object_04,429.09999999404,8,1,374.59999999404,0.6666666666666666,2,object_06,1,998,0,6,6,restaurant_2,2,memory-2step-stake-s,590,2168189,0.0-19.0-0.0-0.95,A2RVFMCKSSEHDV,3YO4AH2FQG0L0WLRIP03W553LNE0Q1,3W8CV64QJ6FT5G8VPX145MAIRGB9HM,8,7
96,2,object_10,object_02,291.10000000894,4,2,355.79999999702,0.7777777777777778,2,object_06,1,1005,0,3,7,forest_1,2,memory-2step-stake-s,591,2176561,0.0-19.0-0.0-0.96,A2RVFMCKSSEHDV,3YO4AH2FQG0L0WLRIP03W553LNE0Q1,3W8CV64QJ6FT5G8VPX145MAIRGB9HM,3,4
97,1,object_09,object_05,934.0,1,1,387.20000000298,0.2222222222222222,1,object_01,5,1015,0,2,6,desert_7,2,memory-2step-stake-s,592,2184428,0.0-19.0-0.0-0.97,A2RVFMCKSSEHDV,3YO4AH2FQG0L0WLRIP03W553LNE0Q1,3W8CV64QJ6FT5G8VPX145MAIRGB9HM,1,2
98,3,object_03,object_07,777.70000000298,6,2,987.5,0.4444444444444444,2,object_06,1,1019,0,1,4,library_3,2,memory-2step-stake-s,593,2193109,0.0-19.0-0.0-0.98,A2RVFMCKSSEHDV,3YO4AH2FQG0L0WLRIP03W553LNE0Q1,3W8CV64QJ6FT5G8VPX145MAIRGB9HM,5,6
99,2,object_10,object_02,1277.299999997,3,1,463.5,0.3333333333333333,1,object_01,5,1034,0,3,2,forest_7,2,memory-2step-stake-s,594,2201178,0.0-19.0-0.0-0.99,A2RVFMCKSSEHDV,3YO4AH2FQG0L0WLRIP03W553LNE0Q1,3W8CV64QJ6FT5G8VPX145MAIRGB9HM,3,4
100,3,object_07,object_03,1207.6000000089,5,2,637.0,0.2222222222222222,1,object_01,5,1044,0,2,2,library_2,2,memory-2step-stake-s,595,2209354,0.0-19.0-0.0-0.100,A2RVFMCKSSEHDV,3YO4AH2FQG0L0WLRIP03W553LNE0Q1,3W8CV64QJ6FT5G8VPX145MAIRGB9HM,6,5
101,4,object_08,object_04,1145.6999999881,8,1,678.90000000596,0.2222222222222222,2,object_06,5,1054,0,5,2,restaurant_8,2,memory-2step-stake-s,596,2217528,0.0-19.0-0.0-0.101,A2RVFMCKSSEHDV,3YO4AH2FQG0L0WLRIP03W553LNE0Q1,3W8CV64QJ6FT5G8VPX145MAIRGB9HM,8,7
102,1,object_05,object_09,899.09999999404,1,2,473.19999998808,0.2222222222222222,1,object_01,5,1064,0,2,2,desert_1,2,memory-2step-stake-s,597,2225489,0.0-19.0-0.0-0.102,A2RVFMCKSSEHDV,3YO4AH2FQG0L0WLRIP03W553LNE0Q1,3W8CV64QJ6FT5G8VPX145MAIRGB9HM,2,1
103,1,object_09,object_05,818.59999999404,2,2,413.20000000298,0.2222222222222222,2,object_06,5,1074,0,1,2,desert_1,2,memory-2step-stake-s,598,2233416,0.0-19.0-0.0-0.103,A2RVFMCKSSEHDV,3YO4AH2FQG0L0WLRIP03W553LNE0Q1,3W8CV64QJ6FT5G8VPX145MAIRGB9HM,1,2
104,2,object_10,object_02,658.09999999404,3,1,383.0,0.4444444444444444,1,object_01,5,1094,0,4,2,forest_7,2,memory-2step-stake-s,599,2241480,0.0-19.0-0.0-0.104,A2RVFMCKSSEHDV,3YO4AH2FQG0L0WLRIP03W553LNE0Q1,3W8CV64QJ6FT5G8VPX145MAIRGB9HM,3,4
105,1,object_05,object_09,1071.700000003,1,2,453.5,0.5555555555555556,1,object_01,5,1119,0,5,1,desert_2,2,memory-2step-stake-s,600,2249750,0.0-19.0-0.0-0.105,A2RVFMCKSSEHDV,3YO4AH2FQG0L0WLRIP03W553LNE0Q1,3W8CV64QJ6FT5G8VPX145MAIRGB9HM,2,1
106,4,object_04,object_08,415.40000000596,8,2,409.0,0.2222222222222222,2,object_06,1,1121,0,6,2,restaurant_6,2,memory-2step-stake-s,601,2257649,0.0-19.0-0.0-0.106,A2RVFMCKSSEHDV,3YO4AH2FQG0L0WLRIP03W553LNE0Q1,3W8CV64QJ6FT5G8VPX145MAIRGB9HM,7,8
107,2,object_10,object_02,1059.700000003,4,2,379.79999999702,0.3333333333333333,2,object_06,5,1136,0,6,3,forest_7,2,memory-2step-stake-s,602,2265623,0.0-19.0-0.0-0.107,A2RVFMCKSSEHDV,3YO4AH2FQG0L0WLRIP03W553LNE0Q1,3W8CV64QJ6FT5G8VPX145MAIRGB9HM,3,4
108,1,object_09,object_05,1114.5,1,1,620.10000000894,0.8888888888888888,1,object_01,5,1176,0,8,4,desert_7,2,memory-2step-stake-s,603,2274363,0.0-19.0-0.0-0.108,A2RVFMCKSSEHDV,3YO4AH2FQG0L0WLRIP03W553LNE0Q1,3W8CV64QJ6FT5G8VPX145MAIRGB9HM,1,2
109,1,object_05,object_09,1156.099999994,1,2,440.80000001192,0.8888888888888888,1,object_01,5,1216,0,8,2,desert_7,2,memory-2step-stake-s,604,2282935,0.0-19.0-0.0-0.109,A2RVFMCKSSEHDV,3YO4AH2FQG0L0WLRIP03W553LNE0Q1,3W8CV64QJ6FT5G8VPX145MAIRGB9HM,2,1
110,3,object_07,object_03,614.79999999702,5,2,436.0,0.8888888888888888,1,object_01,1,1224,0,8,3,library_2,2,memory-2step-stake-s,605,2291512,0.0-19.0-0.0-0.110,A2RVFMCKSSEHDV,3YO4AH2FQG0L0WLRIP03W553LNE0Q1,3W8CV64QJ6FT5G8VPX145MAIRGB9HM,6,5
111,3,object_03,object_07,1315.3999999911,5,1,798.5,1.0,1,object_01,5,1269,0,9,2,library_3,2,memory-2step-stake-s,606,2300528,0.0-19.0-0.0-0.111,A2RVFMCKSSEHDV,3YO4AH2FQG0L0WLRIP03W553LNE0Q1,3W8CV64QJ6FT5G8VPX145MAIRGB9HM,5,6
112,4,object_08,object_04,1121.0,7,2,466.29999999702,0.4444444444444444,1,object_01,1,1273,0,4,4,restaurant_3,2,memory-2step-stake-s,607,2308714,0.0-19.0-0.0-0.112,A2RVFMCKSSEHDV,3YO4AH2FQG0L0WLRIP03W553LNE0Q1,3W8CV64QJ6FT5G8VPX145MAIRGB9HM,8,7
113,3,object_07,object_03,820.70000000298,6,1,309.09999999404,0.1111111111111111,2,object_06,1,1274,0,7,1,library_2,2,memory-2step-stake-s,608,2316366,0.0-19.0-0.0-0.113,A2RVFMCKSSEHDV,3YO4AH2FQG0L0WLRIP03W553LNE0Q1,3W8CV64QJ6FT5G8VPX145MAIRGB9HM,6,5
114,1,object_05,object_09,1280.700000003,1,2,517.09999999404,1.0,1,object_01,5,1319,0,9,0,desert_1,2,memory-2step-stake-s,609,2325096,0.0-19.0-0.0-0.114,A2RVFMCKSSEHDV,3YO4AH2FQG0L0WLRIP03W553LNE0Q1,3W8CV64QJ6FT5G8VPX145MAIRGB9HM,2,1
115,1,object_09,object_05,1275.1000000089,1,1,489.0,0.8888888888888888,1,object_01,5,1359,0,8,0,desert_6,2,memory-2step-stake-s,610,2333726,0.0-19.0-0.0-0.115,A2RVFMCKSSEHDV,3YO4AH2FQG0L0WLRIP03W553LNE0Q1,3W8CV64QJ6FT5G8VPX145MAIRGB9HM,1,2
116,1,object_09,object_05,971.30000001192,1,1,370.60000000894,1.0,1,object_01,5,1404,0,9,1,desert_1,2,memory-2step-stake-s,611,2342330,0.0-19.0-0.0-0.116,A2RVFMCKSSEHDV,3YO4AH2FQG0L0WLRIP03W553LNE0Q1,3W8CV64QJ6FT5G8VPX145MAIRGB9HM,1,2
117,2,object_02,object_10,1488.700000003,3,2,508.79999999702,1.0,1,object_01,5,1449,0,9,0,forest_1,2,memory-2step-stake-s,612,2351045,0.0-19.0-0.0-0.117,A2RVFMCKSSEHDV,3YO4AH2FQG0L0WLRIP03W553LNE0Q1,3W8CV64QJ6FT5G8VPX145MAIRGB9HM,4,3
118,1,object_05,object_09,1084.0,1,2,446.0,0.8888888888888888,1,object_01,5,1489,0,8,0,desert_1,2,memory-2step-stake-s,613,2359614,0.0-19.0-0.0-0.118,A2RVFMCKSSEHDV,3YO4AH2FQG0L0WLRIP03W553LNE0Q1,3W8CV64QJ6FT5G8VPX145MAIRGB9HM,2,1
119,4,object_08,object_04,443.09999999404,7,2,377.40000000596,0.7777777777777778,1,object_01,1,1496,0,7,2,restaurant_8,2,memory-2step-stake-s,614,2368041,0.0-19.0-0.0-0.119,A2RVFMCKSSEHDV,3YO4AH2FQG0L0WLRIP03W553LNE0Q1,3W8CV64QJ6FT5G8VPX145MAIRGB9HM,8,7
120,3,object_03,object_07,856.70000000298,6,2,415.70000000298,0.4444444444444444,2,object_06,1,1500,0,7,4,library_2,2,memory-2step-stake-s,615,2376195,0.0-19.0-0.0-0.120,A2RVFMCKSSEHDV,3YO4AH2FQG0L0WLRIP03W553LNE0Q1,3W8CV64QJ6FT5G8VPX145MAIRGB9HM,5,6
121,2,object_10,object_02,1145.8000000119,3,1,421.5,0.6666666666666666,1,object_01,5,1530,0,6,4,forest_8,2,memory-2step-stake-s,616,2384517,0.0-19.0-0.0-0.121,A2RVFMCKSSEHDV,3YO4AH2FQG0L0WLRIP03W553LNE0Q1,3W8CV64QJ6FT5G8VPX145MAIRGB9HM,3,4
122,4,object_04,object_08,697.39999999106,8,2,431.59999999404,0.7777777777777778,2,object_06,1,1537,0,5,7,restaurant_3,2,memory-2step-stake-s,617,2392986,0.0-19.0-0.0-0.122,A2RVFMCKSSEHDV,3YO4AH2FQG0L0WLRIP03W553LNE0Q1,3W8CV64QJ6FT5G8VPX145MAIRGB9HM,7,8
123,3,object_07,object_03,1033.200000003,5,2,505.60000000894,0.5555555555555556,1,object_01,5,1562,0,5,7,library_2,2,memory-2step-stake-s,618,2401320,0.0-19.0-0.0-0.123,A2RVFMCKSSEHDV,3YO4AH2FQG0L0WLRIP03W553LNE0Q1,3W8CV64QJ6FT5G8VPX145MAIRGB9HM,6,5
124,2,object_02,object_10,1099.599999994,3,2,385.70000000298,0.4444444444444444,1,object_01,5,1582,0,4,6,forest_1,2,memory-2step-stake-s,619,2409432,0.0-19.0-0.0-0.124,A2RVFMCKSSEHDV,3YO4AH2FQG0L0WLRIP03W553LNE0Q1,3W8CV64QJ6FT5G8VPX145MAIRGB9HM,4,3
125,2,object_02,object_10,315.20000000298,4,1,431.09999999404,0.5555555555555556,2,object_06,1,1587,0,1,5,forest_6,2,memory-2step-stake-s,620,2417716,0.0-19.0-0.0-0.125,A2RVFMCKSSEHDV,3YO4AH2FQG0L0WLRIP03W553LNE0Q1,3W8CV64QJ6FT5G8VPX145MAIRGB9HM,4,3
126,1,object_05,object_09,1200.299999997,2,1,353.09999999404,0.4444444444444444,2,object_06,1,1591,0,1,4,desert_6,2,memory-2step-stake-s,621,2425791,0.0-19.0-0.0-0.126,A2RVFMCKSSEHDV,3YO4AH2FQG0L0WLRIP03W553LNE0Q1,3W8CV64QJ6FT5G8VPX145MAIRGB9HM,2,1
127,4,object_04,object_08,1049.5,8,2,310.59999999404,0.2222222222222222,2,object_06,1,1593,0,5,2,restaurant_3,2,memory-2step-stake-s,622,2433591,0.0-19.0-0.0-0.127,A2RVFMCKSSEHDV,3YO4AH2FQG0L0WLRIP03W553LNE0Q1,3W8CV64QJ6FT5G8VPX145MAIRGB9HM,7,8
128,3,object_07,object_03,899.20000000298,5,2,386.29999999702,0.4444444444444444,1,object_01,1,1597,0,4,5,library_4,2,memory-2step-stake-s,624,2613808,0.0-19.0-0.1-0.128,A2RVFMCKSSEHDV,3YO4AH2FQG0L0WLRIP03W553LNE0Q1,3W8CV64QJ6FT5G8VPX145MAIRGB9HM,6,5
129,3,object_07,object_03,969.60000000894,5,2,359.70000000298,0.5555555555555556,1,object_01,5,1622,0,5,3,library_4,2,memory-2step-stake-s,625,2621976,0.0-19.0-0.1-0.129,A2RVFMCKSSEHDV,3YO4AH2FQG0L0WLRIP03W553LNE0Q1,3W8CV64QJ6FT5G8VPX145MAIRGB9HM,6,5
130,1,object_05,object_09,1095.799999997,1,2,332.39999999106,0.3333333333333333,1,object_01,5,1637,0,3,1,desert_6,2,memory-2step-stake-s,626,2629915,0.0-19.0-0.1-0.130,A2RVFMCKSSEHDV,3YO4AH2FQG0L0WLRIP03W553LNE0Q1,3W8CV64QJ6FT5G8VPX145MAIRGB9HM,2,1
131,1,object_05,object_09,796.0,2,1,420.90000000596,0.3333333333333333,2,object_06,5,1652,0,3,3,desert_2,2,memory-2step-stake-s,627,2637908,0.0-19.0-0.1-0.131,A2RVFMCKSSEHDV,3YO4AH2FQG0L0WLRIP03W553LNE0Q1,3W8CV64QJ6FT5G8VPX145MAIRGB9HM,2,1
132,4,object_04,object_08,1083.5,8,2,603.59999999404,0.6666666666666666,2,object_06,5,1682,0,5,6,restaurant_6,2,memory-2step-stake-s,628,2646421,0.0-19.0-0.1-0.132,A2RVFMCKSSEHDV,3YO4AH2FQG0L0WLRIP03W553LNE0Q1,3W8CV64QJ6FT5G8VPX145MAIRGB9HM,7,8
133,2,object_02,object_10,873.5,4,1,348.0,0.5555555555555556,2,object_06,1,1687,0,4,5,forest_1,2,memory-2step-stake-s,629,2654576,0.0-19.0-0.1-0.133,A2RVFMCKSSEHDV,3YO4AH2FQG0L0WLRIP03W553LNE0Q1,3W8CV64QJ6FT5G8VPX145MAIRGB9HM,4,3
134,2,object_10,object_02,657.29999999702,4,2,456.29999999702,0.8888888888888888,2,object_06,5,1727,0,5,8,forest_6,2,memory-2step-stake-s,630,2663163,0.0-19.0-0.1-0.134,A2RVFMCKSSEHDV,3YO4AH2FQG0L0WLRIP03W553LNE0Q1,3W8CV64QJ6FT5G8VPX145MAIRGB9HM,3,4
135,1,object_05,object_09,675.79999999702,1,2,429.90000000596,0.2222222222222222,1,object_01,5,1737,0,2,8,desert_1,2,memory-2step-stake-s,631,2671065,0.0-19.0-0.1-0.135,A2RVFMCKSSEHDV,3YO4AH2FQG0L0WLRIP03W553LNE0Q1,3W8CV64QJ6FT5G8VPX145MAIRGB9HM,2,1
136,3,object_07,object_03,615.09999999404,6,1,1029.599999994,1.0,2,object_06,1,1746,0,4,9,library_8,2,memory-2step-stake-s,632,2680327,0.0-19.0-0.1-0.136,A2RVFMCKSSEHDV,3YO4AH2FQG0L0WLRIP03W553LNE0Q1,3W8CV64QJ6FT5G8VPX145MAIRGB9HM,6,5
137,2,object_02,object_10,1477.599999994,3,2,517.40000000596,0.3333333333333333,1,object_01,5,1761,0,3,9,forest_8,2,memory-2step-stake-s,633,2688467,0.0-19.0-0.1-0.137,A2RVFMCKSSEHDV,3YO4AH2FQG0L0WLRIP03W553LNE0Q1,3W8CV64QJ6FT5G8VPX145MAIRGB9HM,4,3
138,4,object_04,object_08,1008.0,7,1,407.70000000298,0.0,1,object_01,1,1761,0,0,9,restaurant_8,2,memory-2step-stake-s,634,2696122,0.0-19.0-0.1-0.138,A2RVFMCKSSEHDV,3YO4AH2FQG0L0WLRIP03W553LNE0Q1,3W8CV64QJ6FT5G8VPX145MAIRGB9HM,7,8
139,2,object_02,object_10,893.59999999404,4,1,341.70000000298,0.8888888888888888,2,object_06,1,1769,0,2,8,forest_1,2,memory-2step-stake-s,635,2704597,0.0-19.0-0.1-0.139,A2RVFMCKSSEHDV,3YO4AH2FQG0L0WLRIP03W553LNE0Q1,3W8CV64QJ6FT5G8VPX145MAIRGB9HM,4,3
140,3,object_03,object_07,617.59999999404,6,2,545.90000000596,0.8888888888888888,2,object_06,1,1777,0,1,8,library_8,2,memory-2step-stake-s,636,2713265,0.0-19.0-0.1-0.140,A2RVFMCKSSEHDV,3YO4AH2FQG0L0WLRIP03W553LNE0Q1,3W8CV64QJ6FT5G8VPX145MAIRGB9HM,5,6
141,4,object_08,object_04,1071.0,7,2,464.60000000894,0.1111111111111111,1,object_01,5,1782,0,1,9,restaurant_8,2,memory-2step-stake-s,637,2721074,0.0-19.0-0.1-0.141,A2RVFMCKSSEHDV,3YO4AH2FQG0L0WLRIP03W553LNE0Q1,3W8CV64QJ6FT5G8VPX145MAIRGB9HM,8,7
142,2,object_10,object_02,1059.900000006,4,2,380.29999999702,0.8888888888888888,2,object_06,5,1822,0,0,8,forest_1,2,memory-2step-stake-s,638,2729587,0.0-19.0-0.1-0.142,A2RVFMCKSSEHDV,3YO4AH2FQG0L0WLRIP03W553LNE0Q1,3W8CV64QJ6FT5G8VPX145MAIRGB9HM,3,4
143,1,object_05,object_09,949.79999999702,1,2,332.20000000298,0.2222222222222222,1,object_01,1,1824,0,2,8,desert_6,2,memory-2step-stake-s,639,2737406,0.0-19.0-0.1-0.143,A2RVFMCKSSEHDV,3YO4AH2FQG0L0WLRIP03W553LNE0Q1,3W8CV64QJ6FT5G8VPX145MAIRGB9HM,2,1
144,4,object_08,object_04,1457.599999994,8,1,556.29999999702,0.4444444444444444,2,object_06,5,1844,0,2,4,restaurant_3,2,memory-2step-stake-s,640,2745646,0.0-19.0-0.1-0.144,A2RVFMCKSSEHDV,3YO4AH2FQG0L0WLRIP03W553LNE0Q1,3W8CV64QJ6FT5G8VPX145MAIRGB9HM,8,7
145,2,object_02,object_10,893.0,4,1,366.89999999106,0.2222222222222222,2,object_06,5,1854,0,4,2,forest_7,2,memory-2step-stake-s,641,2753467,0.0-19.0-0.1-0.145,A2RVFMCKSSEHDV,3YO4AH2FQG0L0WLRIP03W553LNE0Q1,3W8CV64QJ6FT5G8VPX145MAIRGB9HM,4,3
146,1,object_05,object_09,1105.5,2,1,424.80000001192,0.5555555555555556,2,object_06,1,1859,0,0,5,desert_2,2,memory-2step-stake-s,642,2761702,0.0-19.0-0.1-0.146,A2RVFMCKSSEHDV,3YO4AH2FQG0L0WLRIP03W553LNE0Q1,3W8CV64QJ6FT5G8VPX145MAIRGB9HM,2,1
147,3,object_07,object_03,863.40000000596,5,2,267.89999999106,0.0,1,object_01,1,1859,0,0,3,library_8,2,memory-2step-stake-s,643,2769226,0.0-19.0-0.1-0.147,A2RVFMCKSSEHDV,3YO4AH2FQG0L0WLRIP03W553LNE0Q1,3W8CV64QJ6FT5G8VPX145MAIRGB9HM,6,5
148,2,object_02,object_10,839.20000000298,4,1,367.69999998808,0.0,2,object_06,5,1859,0,1,0,forest_6,2,memory-2step-stake-s,644,2776885,0.0-19.0-0.1-0.148,A2RVFMCKSSEHDV,3YO4AH2FQG0L0WLRIP03W553LNE0Q1,3W8CV64QJ6FT5G8VPX145MAIRGB9HM,4,3
149,4,object_04,object_08,1345.900000006,7,1,250.5,0.2222222222222222,1,object_01,1,1861,0,2,0,restaurant_6,2,memory-2step-stake-s,645,2784587,0.0-19.0-0.1-0.149,A2RVFMCKSSEHDV,3YO4AH2FQG0L0WLRIP03W553LNE0Q1,3W8CV64QJ6FT5G8VPX145MAIRGB9HM,7,8
150,1,object_09,object_05,1246.6000000089,1,1,466.60000000894,0.2222222222222222,1,object_01,5,1871,0,2,1,desert_1,2,memory-2step-stake-s,646,2792514,0.0-19.0-0.1-0.150,A2RVFMCKSSEHDV,3YO4AH2FQG0L0WLRIP03W553LNE0Q1,3W8CV64QJ6FT5G8VPX145MAIRGB9HM,1,2
151,1,object_05,object_09,418.70000000298,1,2,289.40000000596,0.6666666666666666,1,object_01,1,1877,0,6,3,desert_2,2,memory-2step-stake-s,647,2800735,0.0-19.0-0.1-0.151,A2RVFMCKSSEHDV,3YO4AH2FQG0L0WLRIP03W553LNE0Q1,3W8CV64QJ6FT5G8VPX145MAIRGB9HM,2,1
152,4,object_04,object_08,1233.6999999881,7,1,381.30000001192,0.3333333333333333,1,object_01,1,1880,0,3,2,restaurant_8,2,memory-2step-stake-s,648,2808724,0.0-19.0-0.1-0.152,A2RVFMCKSSEHDV,3YO4AH2FQG0L0WLRIP03W553LNE0Q1,3W8CV64QJ6FT5G8VPX145MAIRGB9HM,7,8
153,2,object_10,object_02,885.5,4,2,415.40000000596,0.6666666666666666,2,object_06,5,1910,0,1,6,forest_7,2,memory-2step-stake-s,649,2817061,0.0-19.0-0.1-0.153,A2RVFMCKSSEHDV,3YO4AH2FQG0L0WLRIP03W553LNE0Q1,3W8CV64QJ6FT5G8VPX145MAIRGB9HM,3,4
154,2,object_02,object_10,1023.200000003,3,2,317.19999998808,0.3333333333333333,1,object_01,5,1925,0,3,8,forest_6,2,memory-2step-stake-s,650,2824996,0.0-19.0-0.1-0.154,A2RVFMCKSSEHDV,3YO4AH2FQG0L0WLRIP03W553LNE0Q1,3W8CV64QJ6FT5G8VPX145MAIRGB9HM,4,3
155,4,object_04,object_08,848.20000000298,8,2,366.5,0.8888888888888888,2,object_06,1,1933,0,1,8,restaurant_8,2,memory-2step-stake-s,651,2833498,0.0-19.0-0.1-0.155,A2RVFMCKSSEHDV,3YO4AH2FQG0L0WLRIP03W553LNE0Q1,3W8CV64QJ6FT5G8VPX145MAIRGB9HM,7,8
156,4,object_08,object_04,627.69999998808,7,2,323.90000000596,0.2222222222222222,1,object_01,1,1935,0,2,8,restaurant_8,2,memory-2step-stake-s,652,2841303,0.0-19.0-0.1-0.156,A2RVFMCKSSEHDV,3YO4AH2FQG0L0WLRIP03W553LNE0Q1,3W8CV64QJ6FT5G8VPX145MAIRGB9HM,8,7
157,2,object_10,object_02,983.70000000298,3,1,316.5,0.2222222222222222,1,object_01,1,1937,0,2,5,forest_1,2,memory-2step-stake-s,653,2849119,0.0-19.0-0.1-0.157,A2RVFMCKSSEHDV,3YO4AH2FQG0L0WLRIP03W553LNE0Q1,3W8CV64QJ6FT5G8VPX145MAIRGB9HM,3,4
158,1,object_05,object_09,785.79999999702,1,2,328.0,0.3333333333333333,1,object_01,5,1952,0,3,3,desert_7,2,memory-2step-stake-s,654,2857022,0.0-19.0-0.1-0.158,A2RVFMCKSSEHDV,3YO4AH2FQG0L0WLRIP03W553LNE0Q1,3W8CV64QJ6FT5G8VPX145MAIRGB9HM,2,1
159,2,object_02,object_10,793.09999999404,4,1,404.20000000298,0.3333333333333333,2,object_06,5,1967,0,0,3,forest_1,2,memory-2step-stake-s,655,2865033,0.0-19.0-0.1-0.159,A2RVFMCKSSEHDV,3YO4AH2FQG0L0WLRIP03W553LNE0Q1,3W8CV64QJ6FT5G8VPX145MAIRGB9HM,4,3
160,2,object_10,object_02,1020.799999997,3,1,385.0,0.1111111111111111,1,object_01,1,1968,0,1,1,forest_8,2,memory-2step-stake-s,656,2872808,0.0-19.0-0.1-0.160,A2RVFMCKSSEHDV,3YO4AH2FQG0L0WLRIP03W553LNE0Q1,3W8CV64QJ6FT5G8VPX145MAIRGB9HM,3,4
161,4,object_04,object_08,722.89999999106,8,2,420.10000000894,0.3333333333333333,2,object_06,5,1983,0,3,3,restaurant_8,2,memory-2step-stake-s,657,2880831,0.0-19.0-0.1-0.161,A2RVFMCKSSEHDV,3YO4AH2FQG0L0WLRIP03W553LNE0Q1,3W8CV64QJ6FT5G8VPX145MAIRGB9HM,7,8
162,4,object_04,object_08,631.40000000596,8,2,346.0,0.5555555555555556,2,object_06,1,1988,0,2,5,restaurant_3,2,memory-2step-stake-s,658,2888999,0.0-19.0-0.1-0.162,A2RVFMCKSSEHDV,3YO4AH2FQG0L0WLRIP03W553LNE0Q1,3W8CV64QJ6FT5G8VPX145MAIRGB9HM,7,8
163,4,object_04,object_08,766.79999999702,8,2,482.79999999702,0.5555555555555556,2,object_06,1,1993,0,3,5,restaurant_6,2,memory-2step-stake-s,659,2897286,0.0-19.0-0.1-0.163,A2RVFMCKSSEHDV,3YO4AH2FQG0L0WLRIP03W553LNE0Q1,3W8CV64QJ6FT5G8VPX145MAIRGB9HM,7,8
164,1,object_05,object_09,891.40000000596,2,1,335.40000000596,0.5555555555555556,2,object_06,5,2018,0,4,5,desert_7,2,memory-2step-stake-s,660,2905399,0.0-19.0-0.1-0.164,A2RVFMCKSSEHDV,3YO4AH2FQG0L0WLRIP03W553LNE0Q1,3W8CV64QJ6FT5G8VPX145MAIRGB9HM,2,1
165,1,object_09,object_05,854.79999999702,2,2,490.90000000596,0.5555555555555556,2,object_06,5,2043,0,6,5,desert_1,2,memory-2step-stake-s,661,2913716,0.0-19.0-0.1-0.165,A2RVFMCKSSEHDV,3YO4AH2FQG0L0WLRIP03W553LNE0Q1,3W8CV64QJ6FT5G8VPX145MAIRGB9HM,1,2
166,4,object_04,object_08,596.29999999702,8,2,357.40000000596,0.4444444444444444,2,object_06,1,2047,0,8,4,restaurant_2,2,memory-2step-stake-s,662,2921750,0.0-19.0-0.1-0.166,A2RVFMCKSSEHDV,3YO4AH2FQG0L0WLRIP03W553LNE0Q1,3W8CV64QJ6FT5G8VPX145MAIRGB9HM,7,8
167,3,object_03,object_07,542.60000000894,6,2,298.0,0.3333333333333333,2,object_06,1,2050,0,9,3,library_3,2,memory-2step-stake-s,663,2929614,0.0-19.0-0.1-0.167,A2RVFMCKSSEHDV,3YO4AH2FQG0L0WLRIP03W553LNE0Q1,3W8CV64QJ6FT5G8VPX145MAIRGB9HM,5,6
168,3,object_07,object_03,654.60000000894,6,1,400.39999999106,0.3333333333333333,2,object_06,5,2065,0,5,3,library_3,2,memory-2step-stake-s,664,2937598,0.0-19.0-0.1-0.168,A2RVFMCKSSEHDV,3YO4AH2FQG0L0WLRIP03W553LNE0Q1,3W8CV64QJ6FT5G8VPX145MAIRGB9HM,6,5
169,3,object_03,object_07,454.60000000894,6,2,412.5,0.4444444444444444,2,object_06,1,2069,0,4,4,library_3,2,memory-2step-stake-s,665,2945690,0.0-19.0-0.1-0.169,A2RVFMCKSSEHDV,3YO4AH2FQG0L0WLRIP03W553LNE0Q1,3W8CV64QJ6FT5G8VPX145MAIRGB9HM,5,6
170,1,object_05,object_09,824.59999999404,1,2,337.5,0.2222222222222222,1,object_01,5,2079,0,2,4,desert_7,2,memory-2step-stake-s,666,2953503,0.0-19.0-0.1-0.170,A2RVFMCKSSEHDV,3YO4AH2FQG0L0WLRIP03W553LNE0Q1,3W8CV64QJ6FT5G8VPX145MAIRGB9HM,2,1
171,3,object_03,object_07,686.40000000596,5,1,362.89999999106,0.0,1,object_01,1,2079,0,0,4,library_3,2,memory-2step-stake-s,667,2961186,0.0-19.0-0.1-0.171,A2RVFMCKSSEHDV,3YO4AH2FQG0L0WLRIP03W553LNE0Q1,3W8CV64QJ6FT5G8VPX145MAIRGB9HM,5,6
172,2,object_10,object_02,870.29999999702,4,2,449.20000000298,0.4444444444444444,2,object_06,5,2099,0,1,4,forest_7,2,memory-2step-stake-s,668,2969337,0.0-19.0-0.1-0.172,A2RVFMCKSSEHDV,3YO4AH2FQG0L0WLRIP03W553LNE0Q1,3W8CV64QJ6FT5G8VPX145MAIRGB9HM,3,4
173,2,object_02,object_10,679.70000000298,4,1,321.39999999106,0.4444444444444444,2,object_06,5,2119,0,3,4,forest_7,2,memory-2step-stake-s,669,2977357,0.0-19.0-0.1-0.173,A2RVFMCKSSEHDV,3YO4AH2FQG0L0WLRIP03W553LNE0Q1,3W8CV64QJ6FT5G8VPX145MAIRGB9HM,4,3
174,4,object_04,object_08,521.0,8,2,269.90000000596,0.4444444444444444,2,object_06,1,2123,0,3,4,restaurant_8,2,memory-2step-stake-s,670,2985337,0.0-19.0-0.1-0.174,A2RVFMCKSSEHDV,3YO4AH2FQG0L0WLRIP03W553LNE0Q1,3W8CV64QJ6FT5G8VPX145MAIRGB9HM,7,8
175,2,object_10,object_02,706.09999999404,3,1,460.70000000298,0.8888888888888888,1,object_01,5,2163,0,8,8,forest_1,2,memory-2step-stake-s,671,2993920,0.0-19.0-0.1-0.175,A2RVFMCKSSEHDV,3YO4AH2FQG0L0WLRIP03W553LNE0Q1,3W8CV64QJ6FT5G8VPX145MAIRGB9HM,3,4
176,4,object_04,object_08,662.0,7,1,392.0,0.8888888888888888,1,object_01,5,2203,0,8,9,restaurant_6,2,memory-2step-stake-s,672,3002441,0.0-19.0-0.1-0.176,A2RVFMCKSSEHDV,3YO4AH2FQG0L0WLRIP03W553LNE0Q1,3W8CV64QJ6FT5G8VPX145MAIRGB9HM,7,8
177,2,object_02,object_10,675.70000000298,4,1,387.5,0.5555555555555556,2,object_06,5,2228,0,7,5,forest_6,2,memory-2step-stake-s,673,3010670,0.0-19.0-0.1-0.177,A2RVFMCKSSEHDV,3YO4AH2FQG0L0WLRIP03W553LNE0Q1,3W8CV64QJ6FT5G8VPX145MAIRGB9HM,4,3
178,4,object_04,object_08,699.79999999702,8,2,406.10000000894,0.3333333333333333,2,object_06,5,2243,0,6,3,restaurant_6,2,memory-2step-stake-s,674,3018701,0.0-19.0-0.1-0.178,A2RVFMCKSSEHDV,3YO4AH2FQG0L0WLRIP03W553LNE0Q1,3W8CV64QJ6FT5G8VPX145MAIRGB9HM,7,8
179,4,object_08,object_04,835.90000000596,8,1,403.79999999702,0.3333333333333333,2,object_06,1,2246,0,8,3,restaurant_2,2,memory-2step-stake-s,675,3026687,0.0-19.0-0.1-0.179,A2RVFMCKSSEHDV,3YO4AH2FQG0L0WLRIP03W553LNE0Q1,3W8CV64QJ6FT5G8VPX145MAIRGB9HM,8,7
180,4,object_04,object_08,239.40000000596,8,2,418.39999999106,0.3333333333333333,2,object_06,1,2249,0,7,3,restaurant_8,2,memory-2step-stake-s,676,3034683,0.0-19.0-0.1-0.180,A2RVFMCKSSEHDV,3YO4AH2FQG0L0WLRIP03W553LNE0Q1,3W8CV64QJ6FT5G8VPX145MAIRGB9HM,7,8
181,1,object_09,object_05,739.10000000894,2,2,375.09999999404,0.1111111111111111,2,object_06,5,2254,0,8,1,desert_1,2,memory-2step-stake-s,677,3042447,0.0-19.0-0.1-0.181,A2RVFMCKSSEHDV,3YO4AH2FQG0L0WLRIP03W553LNE0Q1,3W8CV64QJ6FT5G8VPX145MAIRGB9HM,1,2
182,1,object_09,object_05,699.19999998808,1,1,729.40000000596,0.3333333333333333,1,object_01,5,2269,0,3,3,desert_6,2,memory-2step-stake-s,678,3050755,0.0-19.0-0.1-0.182,A2RVFMCKSSEHDV,3YO4AH2FQG0L0WLRIP03W553LNE0Q1,3W8CV64QJ6FT5G8VPX145MAIRGB9HM,1,2
183,1,object_09,object_05,828.40000000596,2,2,510.09999999404,0.1111111111111111,2,object_06,5,2274,0,4,1,desert_7,2,memory-2step-stake-s,679,3058643,0.0-19.0-0.1-0.183,A2RVFMCKSSEHDV,3YO4AH2FQG0L0WLRIP03W553LNE0Q1,3W8CV64QJ6FT5G8VPX145MAIRGB9HM,1,2
184,2,object_02,object_10,391.20000000298,4,1,348.30000001192,0.2222222222222222,2,object_06,5,2284,0,3,2,forest_8,2,memory-2step-stake-s,680,3066499,0.0-19.0-0.1-0.184,A2RVFMCKSSEHDV,3YO4AH2FQG0L0WLRIP03W553LNE0Q1,3W8CV64QJ6FT5G8VPX145MAIRGB9HM,4,3
185,4,object_08,object_04,555.0,7,2,368.59999999404,0.4444444444444444,1,object_01,5,2304,0,4,2,restaurant_8,2,memory-2step-stake-s,681,3074564,0.0-19.0-0.1-0.185,A2RVFMCKSSEHDV,3YO4AH2FQG0L0WLRIP03W553LNE0Q1,3W8CV64QJ6FT5G8VPX145MAIRGB9HM,8,7
186,4,object_08,object_04,333.80000001192,7,2,392.60000000894,0.1111111111111111,1,object_01,1,2305,0,1,3,restaurant_3,2,memory-2step-stake-s,682,3082313,0.0-19.0-0.1-0.186,A2RVFMCKSSEHDV,3YO4AH2FQG0L0WLRIP03W553LNE0Q1,3W8CV64QJ6FT5G8VPX145MAIRGB9HM,8,7
187,4,object_04,object_08,578.90000000596,7,1,311.90000000596,0.2222222222222222,1,object_01,1,2307,0,2,4,restaurant_2,2,memory-2step-stake-s,683,3090115,0.0-19.0-0.1-0.187,A2RVFMCKSSEHDV,3YO4AH2FQG0L0WLRIP03W553LNE0Q1,3W8CV64QJ6FT5G8VPX145MAIRGB9HM,7,8
188,4,object_08,object_04,320.09999999404,7,2,285.79999999702,0.1111111111111111,1,object_01,1,2308,0,1,3,restaurant_2,2,memory-2step-stake-s,684,3097764,0.0-19.0-0.1-0.188,A2RVFMCKSSEHDV,3YO4AH2FQG0L0WLRIP03W553LNE0Q1,3W8CV64QJ6FT5G8VPX145MAIRGB9HM,8,7
189,1,object_05,object_09,876.10000000894,2,1,326.0,0.3333333333333333,2,object_06,5,2323,0,1,3,desert_7,2,memory-2step-stake-s,685,3105666,0.0-19.0-0.1-0.189,A2RVFMCKSSEHDV,3YO4AH2FQG0L0WLRIP03W553LNE0Q1,3W8CV64QJ6FT5G8VPX145MAIRGB9HM,2,1
190,3,object_07,object_03,780.09999999404,6,1,278.10000000894,0.0,2,object_06,1,2323,0,0,0,library_2,2,memory-2step-stake-s,686,3113193,0.0-19.0-0.1-0.190,A2RVFMCKSSEHDV,3YO4AH2FQG0L0WLRIP03W553LNE0Q1,3W8CV64QJ6FT5G8VPX145MAIRGB9HM,6,5
191,1,object_09,object_05,1166.1999999881,2,2,399.59999999404,0.6666666666666666,2,object_06,5,2353,0,1,6,desert_6,2,memory-2step-stake-s,687,3121523,0.0-19.0-0.1-0.191,A2RVFMCKSSEHDV,3YO4AH2FQG0L0WLRIP03W553LNE0Q1,3W8CV64QJ6FT5G8VPX145MAIRGB9HM,1,2
192,4,object_08,object_04,1237.3999999911,8,1,542.09999999404,0.5555555555555556,2,object_06,5,2378,0,1,5,restaurant_6,2,memory-2step-stake-s,688,3129905,0.0-19.0-0.1-0.192,A2RVFMCKSSEHDV,3YO4AH2FQG0L0WLRIP03W553LNE0Q1,3W8CV64QJ6FT5G8VPX145MAIRGB9HM,8,7
193,1,object_09,object_05,1263.700000003,1,1,316.20000000298,0.1111111111111111,1,object_01,5,2383,0,1,8,desert_2,2,memory-2step-stake-s,689,3137630,0.0-19.0-0.1-0.193,A2RVFMCKSSEHDV,3YO4AH2FQG0L0WLRIP03W553LNE0Q1,3W8CV64QJ6FT5G8VPX145MAIRGB9HM,1,2
194,3,object_03,object_07,745.90000000596,6,2,288.69999998808,0.7777777777777778,2,object_06,1,2390,0,3,7,library_3,2,memory-2step-stake-s,690,3145932,0.0-19.0-0.1-0.194,A2RVFMCKSSEHDV,3YO4AH2FQG0L0WLRIP03W553LNE0Q1,3W8CV64QJ6FT5G8VPX145MAIRGB9HM,5,6
195,3,object_07,object_03,874.70000000298,6,1,377.70000000298,0.8888888888888888,2,object_06,1,2398,0,3,8,library_4,2,memory-2step-stake-s,691,3154450,0.0-19.0-0.1-0.195,A2RVFMCKSSEHDV,3YO4AH2FQG0L0WLRIP03W553LNE0Q1,3W8CV64QJ6FT5G8VPX145MAIRGB9HM,6,5
196,3,object_03,object_07,709.70000000298,6,2,462.09999999404,0.8888888888888888,2,object_06,5,2438,0,2,8,library_8,2,memory-2step-stake-s,692,3163056,0.0-19.0-0.1-0.196,A2RVFMCKSSEHDV,3YO4AH2FQG0L0WLRIP03W553LNE0Q1,3W8CV64QJ6FT5G8VPX145MAIRGB9HM,5,6
197,4,object_08,object_04,1176.5,8,1,466.0,0.5555555555555556,2,object_06,1,2443,0,0,5,restaurant_8,2,memory-2step-stake-s,693,3171354,0.0-19.0-0.1-0.197,A2RVFMCKSSEHDV,3YO4AH2FQG0L0WLRIP03W553LNE0Q1,3W8CV64QJ6FT5G8VPX145MAIRGB9HM,8,7
198,3,object_03,object_07,678.20000000298,6,2,345.60000000894,0.6666666666666666,2,object_06,1,2449,0,1,6,library_8,2,memory-2step-stake-s,694,3179636,0.0-19.0-0.1-0.198,A2RVFMCKSSEHDV,3YO4AH2FQG0L0WLRIP03W553LNE0Q1,3W8CV64QJ6FT5G8VPX145MAIRGB9HM,5,6
199,3,object_03,object_07,580.39999999106,6,2,333.80000001192,0.5555555555555556,2,object_06,1,2454,0,1,5,library_3,2,memory-2step-stake-s,695,3187807,0.0-19.0-0.1-0.199,A2RVFMCKSSEHDV,3YO4AH2FQG0L0WLRIP03W553LNE0Q1,3W8CV64QJ6FT5G8VPX145MAIRGB9HM,5,6
200,3,object_03,object_07,704.90000000596,6,2,385.30000001192,0.5555555555555556,2,object_06,5,2479,0,1,5,library_8,2,memory-2step-stake-s,696,3196029,0.0-19.0-0.1-0.200,A2RVFMCKSSEHDV,3YO4AH2FQG0L0WLRIP03W553LNE0Q1,3W8CV64QJ6FT5G8VPX145MAIRGB9HM,5,6
201,4,object_04,object_08,1010.700000003,8,2,401.20000000298,0.5555555555555556,2,object_06,1,2484,0,3,5,restaurant_2,2,memory-2step-stake-s,697,3204230,0.0-19.0-0.1-0.201,A2RVFMCKSSEHDV,3YO4AH2FQG0L0WLRIP03W553LNE0Q1,3W8CV64QJ6FT5G8VPX145MAIRGB9HM,7,8
202,1,object_05,object_09,982.29999999702,1,2,422.90000000596,0.1111111111111111,1,object_01,5,2489,0,1,8,desert_1,2,memory-2step-stake-s,698,3212011,0.0-19.0-0.1-0.202,A2RVFMCKSSEHDV,3YO4AH2FQG0L0WLRIP03W553LNE0Q1,3W8CV64QJ6FT5G8VPX145MAIRGB9HM,2,1
203,2,object_10,object_02,1074.400000006,4,2,402.69999998808,0.7777777777777778,2,object_06,5,2524,0,1,7,forest_7,2,memory-2step-stake-s,699,3220426,0.0-19.0-0.1-0.203,A2RVFMCKSSEHDV,3YO4AH2FQG0L0WLRIP03W553LNE0Q1,3W8CV64QJ6FT5G8VPX145MAIRGB9HM,3,4
204,2,object_02,object_10,872.80000001192,4,1,267.5,0.7777777777777778,2,object_06,1,2531,0,2,7,forest_6,2,memory-2step-stake-s,700,3228698,0.0-19.0-0.1-0.204,A2RVFMCKSSEHDV,3YO4AH2FQG0L0WLRIP03W553LNE0Q1,3W8CV64QJ6FT5G8VPX145MAIRGB9HM,4,3
205,2,object_02,object_10,963.59999999404,4,1,353.70000000298,0.7777777777777778,2,object_06,5,2566,0,5,7,forest_7,2,memory-2step-stake-s,701,3237117,0.0-19.0-0.1-0.205,A2RVFMCKSSEHDV,3YO4AH2FQG0L0WLRIP03W553LNE0Q1,3W8CV64QJ6FT5G8VPX145MAIRGB9HM,4,3
206,2,object_02,object_10,779.19999998808,4,1,313.0,0.8888888888888888,2,object_06,5,2606,0,6,8,forest_6,2,memory-2step-stake-s,702,3245553,0.0-19.0-0.1-0.206,A2RVFMCKSSEHDV,3YO4AH2FQG0L0WLRIP03W553LNE0Q1,3W8CV64QJ6FT5G8VPX145MAIRGB9HM,4,3
207,2,object_10,object_02,597.20000000298,4,2,405.40000000596,0.8888888888888888,2,object_06,5,2646,0,7,8,forest_6,2,memory-2step-stake-s,703,3254083,0.0-19.0-0.1-0.207,A2RVFMCKSSEHDV,3YO4AH2FQG0L0WLRIP03W553LNE0Q1,3W8CV64QJ6FT5G8VPX145MAIRGB9HM,3,4
208,1,object_09,object_05,1090.0,2,2,354.09999999404,1.0,2,object_06,5,2691,0,7,9,desert_2,2,memory-2step-stake-s,704,3262706,0.0-19.0-0.1-0.208,A2RVFMCKSSEHDV,3YO4AH2FQG0L0WLRIP03W553LNE0Q1,3W8CV64QJ6FT5G8VPX145MAIRGB9HM,1,2
209,3,object_07,object_03,672.09999999404,6,1,502.20000000298,0.7777777777777778,2,object_06,1,2698,0,2,7,library_8,2,memory-2step-stake-s,705,3271232,0.0-19.0-0.1-0.209,A2RVFMCKSSEHDV,3YO4AH2FQG0L0WLRIP03W553LNE0Q1,3W8CV64QJ6FT5G8VPX145MAIRGB9HM,6,5
210,1,object_05,object_09,973.40000000596,2,1,412.70000000298,0.2222222222222222,2,object_06,5,2708,0,2,2,desert_1,2,memory-2step-stake-s,706,3279134,0.0-19.0-0.1-0.210,A2RVFMCKSSEHDV,3YO4AH2FQG0L0WLRIP03W553LNE0Q1,3W8CV64QJ6FT5G8VPX145MAIRGB9HM,2,1
211,3,object_07,object_03,604.29999999702,6,1,295.09999999404,0.4444444444444444,2,object_06,1,2712,0,6,4,library_2,2,memory-2step-stake-s,707,3287161,0.0-19.0-0.1-0.211,A2RVFMCKSSEHDV,3YO4AH2FQG0L0WLRIP03W553LNE0Q1,3W8CV64QJ6FT5G8VPX145MAIRGB9HM,6,5
212,3,object_03,object_07,499.59999999404,6,2,294.5,0.7777777777777778,2,object_06,1,2719,0,5,7,library_3,2,memory-2step-stake-s,708,3295462,0.0-19.0-0.1-0.212,A2RVFMCKSSEHDV,3YO4AH2FQG0L0WLRIP03W553LNE0Q1,3W8CV64QJ6FT5G8VPX145MAIRGB9HM,5,6
213,3,object_07,object_03,590.09999999404,6,1,269.29999999702,0.7777777777777778,2,object_06,1,2726,0,8,7,library_4,2,memory-2step-stake-s,709,3303706,0.0-19.0-0.1-0.213,A2RVFMCKSSEHDV,3YO4AH2FQG0L0WLRIP03W553LNE0Q1,3W8CV64QJ6FT5G8VPX145MAIRGB9HM,6,5
214,4,object_04,object_08,818.59999999404,8,2,378.89999999106,0.8888888888888888,2,object_06,1,2734,0,8,8,restaurant_8,2,memory-2step-stake-s,710,3312244,0.0-19.0-0.1-0.214,A2RVFMCKSSEHDV,3YO4AH2FQG0L0WLRIP03W553LNE0Q1,3W8CV64QJ6FT5G8VPX145MAIRGB9HM,7,8
215,3,object_07,object_03,685.09999999404,6,1,330.89999999106,0.8888888888888888,2,object_06,1,2742,0,7,8,library_4,2,memory-2step-stake-s,711,3320701,0.0-19.0-0.1-0.215,A2RVFMCKSSEHDV,3YO4AH2FQG0L0WLRIP03W553LNE0Q1,3W8CV64QJ6FT5G8VPX145MAIRGB9HM,6,5
216,3,object_07,object_03,590.40000000596,6,1,393.09999999404,0.6666666666666666,2,object_06,1,2748,0,8,6,library_2,2,memory-2step-stake-s,712,3329014,0.0-19.0-0.1-0.216,A2RVFMCKSSEHDV,3YO4AH2FQG0L0WLRIP03W553LNE0Q1,3W8CV64QJ6FT5G8VPX145MAIRGB9HM,6,5
217,2,object_02,object_10,740.10000000894,4,1,362.59999999404,0.6666666666666666,2,object_06,5,2778,0,9,6,forest_8,2,memory-2step-stake-s,713,3337321,0.0-19.0-0.1-0.217,A2RVFMCKSSEHDV,3YO4AH2FQG0L0WLRIP03W553LNE0Q1,3W8CV64QJ6FT5G8VPX145MAIRGB9HM,4,3
218,3,object_03,object_07,582.59999999404,6,2,323.19999998808,0.7777777777777778,2,object_06,1,2785,0,6,7,library_4,2,memory-2step-stake-s,714,3345674,0.0-19.0-0.1-0.218,A2RVFMCKSSEHDV,3YO4AH2FQG0L0WLRIP03W553LNE0Q1,3W8CV64QJ6FT5G8VPX145MAIRGB9HM,5,6
219,3,object_07,object_03,581.79999999702,6,1,410.0,0.7777777777777778,2,object_06,1,2792,0,5,7,library_8,2,memory-2step-stake-s,715,3354118,0.0-19.0-0.1-0.219,A2RVFMCKSSEHDV,3YO4AH2FQG0L0WLRIP03W553LNE0Q1,3W8CV64QJ6FT5G8VPX145MAIRGB9HM,6,5
220,2,object_02,object_10,596.90000000596,4,1,301.89999999106,0.8888888888888888,2,object_06,5,2832,0,4,8,forest_1,2,memory-2step-stake-s,716,3362604,0.0-19.0-0.1-0.220,A2RVFMCKSSEHDV,3YO4AH2FQG0L0WLRIP03W553LNE0Q1,3W8CV64QJ6FT5G8VPX145MAIRGB9HM,4,3
221,3,object_07,object_03,546.70000000298,6,1,338.40000000596,0.8888888888888888,2,object_06,1,2840,0,3,8,library_4,2,memory-2step-stake-s,717,3371074,0.0-19.0-0.1-0.221,A2RVFMCKSSEHDV,3YO4AH2FQG0L0WLRIP03W553LNE0Q1,3W8CV64QJ6FT5G8VPX145MAIRGB9HM,6,5
222,4,object_08,object_04,1043.200000003,8,1,-1.0,0.0,2,object_06,1,2840,0,6,5,restaurant_3,2,memory-2step-stake-s,718,3379639,0.0-19.0-0.1-0.222,A2RVFMCKSSEHDV,3YO4AH2FQG0L0WLRIP03W553LNE0Q1,3W8CV64QJ6FT5G8VPX145MAIRGB9HM,8,7
223,1,object_09,object_05,1295.900000006,2,2,474.5,0.7777777777777778,2,object_06,5,2875,0,5,7,desert_7,2,memory-2step-stake-s,719,3388143,0.0-19.0-0.1-0.223,A2RVFMCKSSEHDV,3YO4AH2FQG0L0WLRIP03W553LNE0Q1,3W8CV64QJ6FT5G8VPX145MAIRGB9HM,1,2
224,3,object_03,object_07,566.29999999702,6,2,338.10000000894,0.4444444444444444,2,object_06,1,2879,0,5,4,library_3,2,memory-2step-stake-s,720,3396215,0.0-19.0-0.1-0.224,A2RVFMCKSSEHDV,3YO4AH2FQG0L0WLRIP03W553LNE0Q1,3W8CV64QJ6FT5G8VPX145MAIRGB9HM,5,6
225,2,object_02,object_10,670.59999999404,4,1,300.40000000596,1.0,2,object_06,1,2888,0,7,9,forest_8,2,memory-2step-stake-s,721,3404730,0.0-19.0-0.1-0.225,A2RVFMCKSSEHDV,3YO4AH2FQG0L0WLRIP03W553LNE0Q1,3W8CV64QJ6FT5G8VPX145MAIRGB9HM,4,3
226,4,object_08,object_04,844.69999998808,7,2,346.10000000894,0.8888888888888888,1,object_01,1,2896,0,8,6,restaurant_3,2,memory-2step-stake-s,722,3413196,0.0-19.0-0.1-0.226,A2RVFMCKSSEHDV,3YO4AH2FQG0L0WLRIP03W553LNE0Q1,3W8CV64QJ6FT5G8VPX145MAIRGB9HM,8,7
227,3,object_07,object_03,692.59999999404,5,2,270.0,0.8888888888888888,1,object_01,1,2904,0,8,6,library_2,2,memory-2step-stake-s,723,3421599,0.0-19.0-0.1-0.227,A2RVFMCKSSEHDV,3YO4AH2FQG0L0WLRIP03W553LNE0Q1,3W8CV64QJ6FT5G8VPX145MAIRGB9HM,6,5
228,1,object_05,object_09,962.60000000894,1,2,379.20000000298,1.0,1,object_01,5,2949,0,9,5,desert_7,2,memory-2step-stake-s,724,3430272,0.0-19.0-0.1-0.228,A2RVFMCKSSEHDV,3YO4AH2FQG0L0WLRIP03W553LNE0Q1,3W8CV64QJ6FT5G8VPX145MAIRGB9HM,2,1
229,3,object_03,object_07,608.40000000596,5,1,425.29999999702,0.8888888888888888,1,object_01,1,2957,0,8,2,library_8,2,memory-2step-stake-s,725,3438876,0.0-19.0-0.1-0.229,A2RVFMCKSSEHDV,3YO4AH2FQG0L0WLRIP03W553LNE0Q1,3W8CV64QJ6FT5G8VPX145MAIRGB9HM,5,6
230,2,object_10,object_02,726.60000000894,3,1,424.5,0.8888888888888888,1,object_01,5,2997,0,8,3,forest_1,2,memory-2step-stake-s,726,3447430,0.0-19.0-0.1-0.230,A2RVFMCKSSEHDV,3YO4AH2FQG0L0WLRIP03W553LNE0Q1,3W8CV64QJ6FT5G8VPX145MAIRGB9HM,3,4
231,1,object_05,object_09,1299.200000003,1,2,403.29999999702,0.8888888888888888,1,object_01,1,3005,0,8,3,desert_6,2,memory-2step-stake-s,727,3455979,0.0-19.0-0.1-0.231,A2RVFMCKSSEHDV,3YO4AH2FQG0L0WLRIP03W553LNE0Q1,3W8CV64QJ6FT5G8VPX145MAIRGB9HM,2,1
232,3,object_03,object_07,577.70000000298,5,1,321.09999999404,0.5555555555555556,1,object_01,5,3030,0,5,4,library_8,2,memory-2step-stake-s,728,3464144,0.0-19.0-0.1-0.232,A2RVFMCKSSEHDV,3YO4AH2FQG0L0WLRIP03W553LNE0Q1,3W8CV64QJ6FT5G8VPX145MAIRGB9HM,5,6
233,2,object_10,object_02,829.40000000596,3,1,397.80000001192,0.8888888888888888,1,object_01,5,3070,0,8,3,forest_8,2,memory-2step-stake-s,729,3472717,0.0-19.0-0.1-0.233,A2RVFMCKSSEHDV,3YO4AH2FQG0L0WLRIP03W553LNE0Q1,3W8CV64QJ6FT5G8VPX145MAIRGB9HM,3,4
234,1,object_05,object_09,841.09999999404,1,2,377.29999999702,0.8888888888888888,1,object_01,5,3110,0,8,4,desert_1,2,memory-2step-stake-s,730,3481212,0.0-19.0-0.1-0.234,A2RVFMCKSSEHDV,3YO4AH2FQG0L0WLRIP03W553LNE0Q1,3W8CV64QJ6FT5G8VPX145MAIRGB9HM,2,1
235,2,object_10,object_02,1057.700000003,4,2,380.90000000596,0.5555555555555556,2,object_06,5,3135,0,9,5,forest_8,2,memory-2step-stake-s,731,3489432,0.0-19.0-0.1-0.235,A2RVFMCKSSEHDV,3YO4AH2FQG0L0WLRIP03W553LNE0Q1,3W8CV64QJ6FT5G8VPX145MAIRGB9HM,3,4
236,3,object_03,object_07,586.20000000298,5,1,277.70000000298,0.8888888888888888,1,object_01,1,3143,0,8,7,library_2,2,memory-2step-stake-s,732,3497837,0.0-19.0-0.1-0.236,A2RVFMCKSSEHDV,3YO4AH2FQG0L0WLRIP03W553LNE0Q1,3W8CV64QJ6FT5G8VPX145MAIRGB9HM,5,6
237,3,object_03,object_07,628.59999999404,5,1,273.40000000596,0.8888888888888888,1,object_01,1,3151,0,8,7,library_8,2,memory-2step-stake-s,733,3506285,0.0-19.0-0.1-0.237,A2RVFMCKSSEHDV,3YO4AH2FQG0L0WLRIP03W553LNE0Q1,3W8CV64QJ6FT5G8VPX145MAIRGB9HM,5,6
238,3,object_07,object_03,632.70000000298,5,2,273.40000000596,0.8888888888888888,1,object_01,1,3159,0,8,5,library_2,2,memory-2step-stake-s,734,3514666,0.0-19.0-0.1-0.238,A2RVFMCKSSEHDV,3YO4AH2FQG0L0WLRIP03W553LNE0Q1,3W8CV64QJ6FT5G8VPX145MAIRGB9HM,6,5
239,4,object_04,object_08,950.90000000596,7,1,361.90000000596,0.7777777777777778,1,object_01,1,3166,0,7,4,restaurant_6,2,memory-2step-stake-s,735,3523060,0.0-19.0-0.1-0.239,A2RVFMCKSSEHDV,3YO4AH2FQG0L0WLRIP03W553LNE0Q1,3W8CV64QJ6FT5G8VPX145MAIRGB9HM,7,8
240,1,object_05,object_09,966.40000000596,1,2,314.29999999702,0.8888888888888888,1,object_01,5,3206,0,8,5,desert_6,2,memory-2step-stake-s,736,3531499,0.0-19.0-0.1-0.240,A2RVFMCKSSEHDV,3YO4AH2FQG0L0WLRIP03W553LNE0Q1,3W8CV64QJ6FT5G8VPX145MAIRGB9HM,2,1
241,3,object_07,object_03,911.89999999106,5,2,369.80000001192,1.0,1,object_01,1,3215,0,9,8,library_4,2,memory-2step-stake-s,737,3540132,0.0-19.0-0.1-0.241,A2RVFMCKSSEHDV,3YO4AH2FQG0L0WLRIP03W553LNE0Q1,3W8CV64QJ6FT5G8VPX145MAIRGB9HM,6,5
242,4,object_04,object_08,891.90000000596,7,1,490.59999999404,0.8888888888888888,1,object_01,1,3223,0,8,3,restaurant_8,2,memory-2step-stake-s,738,3548757,0.0-19.0-0.1-0.242,A2RVFMCKSSEHDV,3YO4AH2FQG0L0WLRIP03W553LNE0Q1,3W8CV64QJ6FT5G8VPX145MAIRGB9HM,7,8
243,3,object_03,object_07,651.0,5,1,371.89999999106,0.7777777777777778,1,object_01,1,3230,0,7,7,library_4,2,memory-2step-stake-s,739,3557152,0.0-19.0-0.1-0.243,A2RVFMCKSSEHDV,3YO4AH2FQG0L0WLRIP03W553LNE0Q1,3W8CV64QJ6FT5G8VPX145MAIRGB9HM,5,6
244,2,object_10,object_02,1038.900000006,3,1,372.80000001192,1.0,1,object_01,5,3275,0,9,9,forest_7,2,memory-2step-stake-s,740,3565758,0.0-19.0-0.1-0.244,A2RVFMCKSSEHDV,3YO4AH2FQG0L0WLRIP03W553LNE0Q1,3W8CV64QJ6FT5G8VPX145MAIRGB9HM,3,4
245,1,object_09,object_05,841.29999999702,1,1,355.59999999404,0.7777777777777778,1,object_01,5,3310,0,7,6,desert_2,2,memory-2step-stake-s,741,3574133,0.0-19.0-0.1-0.245,A2RVFMCKSSEHDV,3YO4AH2FQG0L0WLRIP03W553LNE0Q1,3W8CV64QJ6FT5G8VPX145MAIRGB9HM,1,2
246,4,object_04,object_08,835.20000000298,7,1,308.90000000596,0.7777777777777778,1,object_01,1,3317,0,7,4,restaurant_3,2,memory-2step-stake-s,742,3582481,0.0-19.0-0.1-0.246,A2RVFMCKSSEHDV,3YO4AH2FQG0L0WLRIP03W553LNE0Q1,3W8CV64QJ6FT5G8VPX145MAIRGB9HM,7,8
247,1,object_09,object_05,763.20000000298,1,1,326.19999998808,0.5555555555555556,1,object_01,5,3342,0,5,3,desert_2,2,memory-2step-stake-s,743,3590639,0.0-19.0-0.1-0.247,A2RVFMCKSSEHDV,3YO4AH2FQG0L0WLRIP03W553LNE0Q1,3W8CV64QJ6FT5G8VPX145MAIRGB9HM,1,2
248,3,object_07,object_03,887.79999999702,5,2,379.60000000894,0.7777777777777778,1,object_01,1,3349,0,7,4,library_4,2,memory-2step-stake-s,744,3599054,0.0-19.0-0.1-0.248,A2RVFMCKSSEHDV,3YO4AH2FQG0L0WLRIP03W553LNE0Q1,3W8CV64QJ6FT5G8VPX145MAIRGB9HM,6,5
249,3,object_03,object_07,617.30000001192,5,1,448.20000000298,0.7777777777777778,1,object_01,1,3356,0,7,2,library_2,2,memory-2step-stake-s,745,3607553,0.0-19.0-0.1-0.249,A2RVFMCKSSEHDV,3YO4AH2FQG0L0WLRIP03W553LNE0Q1,3W8CV64QJ6FT5G8VPX145MAIRGB9HM,5,6
250,3,object_03,object_07,692.70000000298,5,1,340.5,0.8888888888888888,1,object_01,1,3364,0,8,1,library_2,2,memory-2step-stake-s,746,3616023,0.0-19.0-0.1-0.250,A2RVFMCKSSEHDV,3YO4AH2FQG0L0WLRIP03W553LNE0Q1,3W8CV64QJ6FT5G8VPX145MAIRGB9HM,5,6
251,2,object_10,object_02,883.09999999404,3,1,316.40000000596,0.8888888888888888,1,object_01,5,3404,0,8,0,forest_8,2,memory-2step-stake-s,747,3624462,0.0-19.0-0.1-0.251,A2RVFMCKSSEHDV,3YO4AH2FQG0L0WLRIP03W553LNE0Q1,3W8CV64QJ6FT5G8VPX145MAIRGB9HM,3,4
252,3,object_07,object_03,749.70000000298,5,2,324.40000000596,0.5555555555555556,1,object_01,1,3409,0,5,2,library_3,2,memory-2step-stake-s,748,3632599,0.0-19.0-0.1-0.252,A2RVFMCKSSEHDV,3YO4AH2FQG0L0WLRIP03W553LNE0Q1,3W8CV64QJ6FT5G8VPX145MAIRGB9HM,6,5
253,2,object_02,object_10,881.20000000298,3,2,388.10000000894,0.7777777777777778,1,object_01,5,3444,0,7,4,forest_7,2,memory-2step-stake-s,749,3641008,0.0-19.0-0.1-0.253,A2RVFMCKSSEHDV,3YO4AH2FQG0L0WLRIP03W553LNE0Q1,3W8CV64QJ6FT5G8VPX145MAIRGB9HM,4,3
254,1,object_09,object_05,780.39999999106,1,1,309.60000000894,0.6666666666666666,1,object_01,5,3474,0,6,0,desert_1,2,memory-2step-stake-s,750,3649237,0.0-19.0-0.1-0.254,A2RVFMCKSSEHDV,3YO4AH2FQG0L0WLRIP03W553LNE0Q1,3W8CV64QJ6FT5G8VPX145MAIRGB9HM,1,2
255,4,object_04,object_08,583.09999999404,8,2,322.40000000596,0.0,2,object_06,1,3474,0,8,0,restaurant_2,2,memory-2step-stake-s,751,3656830,0.0-19.0-0.1-0.255,A2RVFMCKSSEHDV,3YO4AH2FQG0L0WLRIP03W553LNE0Q1,3W8CV64QJ6FT5G8VPX145MAIRGB9HM,7,8
