,state1,stim_left,stim_right,rt_1,choice1,response1,rt_2,points,state2,stim_state2,stake,score,practice,rews1,rews2,background,high_arm,trial_type,trial_index,time_elapsed,internal_node_id,subid,hitid,assignmentid,stim_left_num,stim_right_num
0,1,object_05,object_01,1338.0999999996,2,1,-1.0,0.0,2,object_08,5,0,0,3,6,desert_3,2,memory-2step-stake-s,509,1282643,0.0-19.0-0.0-0.0,A3RHJEMZ4EGY2U,382GHPVPIV7ASJXQ3FB9V025S7G34H,34BBWHLWHER4D7WNOQTHJIJ8PUJWI0,2,1
1,4,object_02,object_09,1190.5,8,1,806.20000000112,0.6666666666666666,2,object_08,1,6,0,5,6,restaurant_1,2,memory-2step-stake-s,510,1291331,0.0-19.0-0.0-0.1,A3RHJEMZ4EGY2U,382GHPVPIV7ASJXQ3FB9V025S7G34H,34BBWHLWHER4D7WNOQTHJIJ8PUJWI0,8,7
2,2,object_07,object_03,900.60000000149,4,1,814.19999999925,0.4444444444444444,2,object_08,5,26,0,5,4,forest_2,2,memory-2step-stake-s,511,1299835,0.0-19.0-0.0-0.2,A3RHJEMZ4EGY2U,382GHPVPIV7ASJXQ3FB9V025S7G34H,34BBWHLWHER4D7WNOQTHJIJ8PUJWI0,4,3
3,4,object_09,object_02,1281.1999999993,7,1,1114.8999999985,0.6666666666666666,1,object_04,1,32,0,6,1,restaurant_2,2,memory-2step-stake-s,512,1308858,0.0-19.0-0.0-0.3,A3RHJEMZ4EGY2U,382GHPVPIV7ASJXQ3FB9V025S7G34H,34BBWHLWHER4D7WNOQTHJIJ8PUJWI0,7,8
4,1,object_01,object_05,701.90000000037,2,2,1023.7000000011,0.1111111111111111,2,object_08,1,33,0,6,1,desert_3,2,memory-2step-stake-s,513,1317246,0.0-19.0-0.0-0.4,A3RHJEMZ4EGY2U,382GHPVPIV7ASJXQ3FB9V025S7G34H,34BBWHLWHER4D7WNOQTHJIJ8PUJWI0,1,2
5,3,object_10,object_06,563.80000000075,5,1,942.40000000037,0.4444444444444444,1,object_04,1,37,0,4,3,library_6,2,memory-2step-stake-s,514,1325885,0.0-19.0-0.0-0.5,A3RHJEMZ4EGY2U,382GHPVPIV7ASJXQ3FB9V025S7G34H,34BBWHLWHER4D7WNOQTHJIJ8PUJWI0,5,6
6,2,object_03,object_07,732.5,4,2,1048.8000000007,0.4444444444444444,2,object_08,5,57,0,3,4,forest_3,2,memory-2step-stake-s,515,1334609,0.0-19.0-0.0-0.6,A3RHJEMZ4EGY2U,382GHPVPIV7ASJXQ3FB9V025S7G34H,34BBWHLWHER4D7WNOQTHJIJ8PUJWI0,3,4
7,4,object_09,object_02,985.0,7,1,680.5,0.2222222222222222,1,object_04,1,59,0,2,5,restaurant_8,2,memory-2step-stake-s,516,1342776,0.0-19.0-0.0-0.7,A3RHJEMZ4EGY2U,382GHPVPIV7ASJXQ3FB9V025S7G34H,34BBWHLWHER4D7WNOQTHJIJ8PUJWI0,7,8
8,1,object_05,object_01,697.5,2,1,486.10000000149,0.5555555555555556,2,object_08,5,84,0,0,5,desert_3,2,memory-2step-stake-s,517,1351041,0.0-19.0-0.0-0.8,A3RHJEMZ4EGY2U,382GHPVPIV7ASJXQ3FB9V025S7G34H,34BBWHLWHER4D7WNOQTHJIJ8PUJWI0,2,1
9,2,object_03,object_07,774.40000000037,4,2,582.09999999963,0.3333333333333333,2,object_08,5,99,0,2,3,forest_7,2,memory-2step-stake-s,518,1359201,0.0-19.0-0.0-0.9,A3RHJEMZ4EGY2U,382GHPVPIV7ASJXQ3FB9V025S7G34H,34BBWHLWHER4D7WNOQTHJIJ8PUJWI0,3,4
10,3,object_10,object_06,900.5,5,1,533.70000000112,0.4444444444444444,1,object_04,1,103,0,4,3,library_7,2,memory-2step-stake-s,519,1367428,0.0-19.0-0.0-0.10,A3RHJEMZ4EGY2U,382GHPVPIV7ASJXQ3FB9V025S7G34H,34BBWHLWHER4D7WNOQTHJIJ8PUJWI0,5,6
11,1,object_01,object_05,742.09999999963,2,2,833.69999999925,0.3333333333333333,2,object_08,5,118,0,8,3,desert_3,2,memory-2step-stake-s,520,1375849,0.0-19.0-0.0-0.11,A3RHJEMZ4EGY2U,382GHPVPIV7ASJXQ3FB9V025S7G34H,34BBWHLWHER4D7WNOQTHJIJ8PUJWI0,1,2
12,3,object_06,object_10,868.5,5,2,598.09999999963,0.7777777777777778,1,object_04,1,125,0,7,1,library_7,2,memory-2step-stake-s,521,1384454,0.0-19.0-0.0-0.12,A3RHJEMZ4EGY2U,382GHPVPIV7ASJXQ3FB9V025S7G34H,34BBWHLWHER4D7WNOQTHJIJ8PUJWI0,6,5
13,4,object_09,object_02,1039.5,7,1,413.60000000149,0.6666666666666666,1,object_04,1,131,0,6,1,restaurant_2,2,memory-2step-stake-s,522,1392778,0.0-19.0-0.0-0.13,A3RHJEMZ4EGY2U,382GHPVPIV7ASJXQ3FB9V025S7G34H,34BBWHLWHER4D7WNOQTHJIJ8PUJWI0,7,8
14,1,object_05,object_01,791.69999999925,2,1,541.09999999963,0.2222222222222222,2,object_08,5,141,0,6,2,desert_6,2,memory-2step-stake-s,523,1400776,0.0-19.0-0.0-0.14,A3RHJEMZ4EGY2U,382GHPVPIV7ASJXQ3FB9V025S7G34H,34BBWHLWHER4D7WNOQTHJIJ8PUJWI0,2,1
15,2,object_03,object_07,656.90000000037,4,2,563.80000000075,0.1111111111111111,2,object_08,5,146,0,9,1,forest_1,2,memory-2step-stake-s,524,1408721,0.0-19.0-0.0-0.15,A3RHJEMZ4EGY2U,382GHPVPIV7ASJXQ3FB9V025S7G34H,34BBWHLWHER4D7WNOQTHJIJ8PUJWI0,3,4
16,3,object_10,object_06,791.20000000112,6,2,674.70000000112,0.0,2,object_08,5,146,0,6,0,library_3,2,memory-2step-stake-s,525,1416681,0.0-19.0-0.0-0.16,A3RHJEMZ4EGY2U,382GHPVPIV7ASJXQ3FB9V025S7G34H,34BBWHLWHER4D7WNOQTHJIJ8PUJWI0,5,6
17,4,object_09,object_02,803.10000000149,7,1,405.09999999963,1.0,1,object_04,5,191,0,9,0,restaurant_6,2,memory-2step-stake-s,526,1425323,0.0-19.0-0.0-0.17,A3RHJEMZ4EGY2U,382GHPVPIV7ASJXQ3FB9V025S7G34H,34BBWHLWHER4D7WNOQTHJIJ8PUJWI0,7,8
18,2,object_07,object_03,641.30000000075,4,1,783.10000000149,0.1111111111111111,2,object_08,5,196,0,6,1,forest_2,2,memory-2step-stake-s,527,1433490,0.0-19.0-0.0-0.18,A3RHJEMZ4EGY2U,382GHPVPIV7ASJXQ3FB9V025S7G34H,34BBWHLWHER4D7WNOQTHJIJ8PUJWI0,4,3
19,4,object_02,object_09,1118.0999999996,8,1,944.19999999925,0.1111111111111111,2,object_08,1,197,0,7,1,restaurant_6,2,memory-2step-stake-s,528,1441813,0.0-19.0-0.0-0.19,A3RHJEMZ4EGY2U,382GHPVPIV7ASJXQ3FB9V025S7G34H,34BBWHLWHER4D7WNOQTHJIJ8PUJWI0,8,7
20,1,object_05,object_01,1070.5,1,2,-1.0,0.0,1,object_04,1,197,0,6,2,desert_3,2,memory-2step-stake-s,529,1450353,0.0-19.0-0.0-0.20,A3RHJEMZ4EGY2U,382GHPVPIV7ASJXQ3FB9V025S7G34H,34BBWHLWHER4D7WNOQTHJIJ8PUJWI0,2,1
21,2,object_03,object_07,695.69999999925,3,1,1047.3000000007,0.1111111111111111,1,object_04,5,202,0,1,1,forest_3,2,memory-2step-stake-s,530,1458767,0.0-19.0-0.0-0.21,A3RHJEMZ4EGY2U,382GHPVPIV7ASJXQ3FB9V025S7G34H,34BBWHLWHER4D7WNOQTHJIJ8PUJWI0,3,4
22,4,object_09,object_02,1276.1999999993,7,1,-1.0,0.0,1,object_04,5,202,0,0,0,restaurant_2,2,memory-2step-stake-s,531,1467332,0.0-19.0-0.0-0.22,A3RHJEMZ4EGY2U,382GHPVPIV7ASJXQ3FB9V025S7G34H,34BBWHLWHER4D7WNOQTHJIJ8PUJWI0,7,8
23,1,object_05,object_01,991.09999999963,1,2,902.29999999888,0.1111111111111111,1,object_04,5,207,0,1,1,desert_5,2,memory-2step-stake-s,532,1475587,0.0-19.0-0.0-0.23,A3RHJEMZ4EGY2U,382GHPVPIV7ASJXQ3FB9V025S7G34H,34BBWHLWHER4D7WNOQTHJIJ8PUJWI0,2,1
24,1,object_05,object_01,1015.2999999989,2,1,-1.0,0.0,2,object_08,1,207,0,1,2,desert_6,2,memory-2step-stake-s,533,1484153,0.0-19.0-0.0-0.24,A3RHJEMZ4EGY2U,382GHPVPIV7ASJXQ3FB9V025S7G34H,34BBWHLWHER4D7WNOQTHJIJ8PUJWI0,2,1
25,4,object_02,object_09,1392.7999999989,7,2,127.69999999925,0.2222222222222222,1,object_04,5,217,0,2,2,restaurant_2,2,memory-2step-stake-s,534,1491749,0.0-19.0-0.0-0.25,A3RHJEMZ4EGY2U,382GHPVPIV7ASJXQ3FB9V025S7G34H,34BBWHLWHER4D7WNOQTHJIJ8PUJWI0,8,7
26,3,object_06,object_10,912.0,5,2,-1.0,0.0,1,object_04,1,217,0,0,3,library_7,2,memory-2step-stake-s,535,1500302,0.0-19.0-0.0-0.26,A3RHJEMZ4EGY2U,382GHPVPIV7ASJXQ3FB9V025S7G34H,34BBWHLWHER4D7WNOQTHJIJ8PUJWI0,6,5
27,4,object_02,object_09,-1.0,-1,-1,-1.0,0.0,-,0,5,217,0,1,2,restaurant_2,2,memory-2step-stake-s,536,1506863,0.0-19.0-0.0-0.27,A3RHJEMZ4EGY2U,382GHPVPIV7ASJXQ3FB9V025S7G34H,34BBWHLWHER4D7WNOQTHJIJ8PUJWI0,8,7
28,3,object_10,object_06,541.59999999963,5,1,875.40000000037,0.1111111111111111,1,object_04,1,218,0,1,4,library_3,2,memory-2step-stake-s,537,1515111,0.0-19.0-0.0-0.28,A3RHJEMZ4EGY2U,382GHPVPIV7ASJXQ3FB9V025S7G34H,34BBWHLWHER4D7WNOQTHJIJ8PUJWI0,5,6
29,4,object_02,object_09,1227.4000000004,8,1,963.09999999963,0.2222222222222222,2,object_08,1,220,0,1,2,restaurant_1,2,memory-2step-stake-s,538,1523539,0.0-19.0-0.0-0.29,A3RHJEMZ4EGY2U,382GHPVPIV7ASJXQ3FB9V025S7G34H,34BBWHLWHER4D7WNOQTHJIJ8PUJWI0,8,7
30,4,object_02,object_09,1322.5,7,2,993.29999999888,0.6666666666666666,1,object_04,1,226,0,6,1,restaurant_1,2,memory-2step-stake-s,539,1532424,0.0-19.0-0.0-0.30,A3RHJEMZ4EGY2U,382GHPVPIV7ASJXQ3FB9V025S7G34H,34BBWHLWHER4D7WNOQTHJIJ8PUJWI0,8,7
31,1,object_05,object_01,811.20000000112,2,1,371.69999999925,0.3333333333333333,2,object_08,5,241,0,7,3,desert_5,2,memory-2step-stake-s,540,1540368,0.0-19.0-0.0-0.31,A3RHJEMZ4EGY2U,382GHPVPIV7ASJXQ3FB9V025S7G34H,34BBWHLWHER4D7WNOQTHJIJ8PUJWI0,2,1
32,1,object_05,object_01,927.40000000037,1,2,543.19999999925,0.5555555555555556,1,object_04,5,266,0,5,1,desert_3,2,memory-2step-stake-s,541,1548690,0.0-19.0-0.0-0.32,A3RHJEMZ4EGY2U,382GHPVPIV7ASJXQ3FB9V025S7G34H,34BBWHLWHER4D7WNOQTHJIJ8PUJWI0,2,1
33,2,object_03,object_07,797.19999999925,4,2,1091.7000000011,0.3333333333333333,2,object_08,5,281,0,3,3,forest_1,2,memory-2step-stake-s,542,1557367,0.0-19.0-0.0-0.33,A3RHJEMZ4EGY2U,382GHPVPIV7ASJXQ3FB9V025S7G34H,34BBWHLWHER4D7WNOQTHJIJ8PUJWI0,3,4
34,1,object_05,object_01,1048.9000000004,1,2,441.69999999925,0.2222222222222222,1,object_04,5,291,0,2,2,desert_7,2,memory-2step-stake-s,543,1565286,0.0-19.0-0.0-0.34,A3RHJEMZ4EGY2U,382GHPVPIV7ASJXQ3FB9V025S7G34H,34BBWHLWHER4D7WNOQTHJIJ8PUJWI0,2,1
35,2,object_03,object_07,655.40000000037,4,2,424.70000000112,0.0,2,object_08,1,291,0,5,0,forest_2,2,memory-2step-stake-s,544,1572953,0.0-19.0-0.0-0.35,A3RHJEMZ4EGY2U,382GHPVPIV7ASJXQ3FB9V025S7G34H,34BBWHLWHER4D7WNOQTHJIJ8PUJWI0,3,4
36,4,object_09,object_02,1068.5,8,2,-1.0,0.0,2,object_08,1,291,0,6,1,restaurant_8,2,memory-2step-stake-s,545,1581511,0.0-19.0-0.0-0.36,A3RHJEMZ4EGY2U,382GHPVPIV7ASJXQ3FB9V025S7G34H,34BBWHLWHER4D7WNOQTHJIJ8PUJWI0,7,8
37,1,object_01,object_05,1232.7000000011,1,1,527.5,0.7777777777777778,1,object_04,1,298,0,7,1,desert_7,2,memory-2step-stake-s,546,1590060,0.0-19.0-0.0-0.37,A3RHJEMZ4EGY2U,382GHPVPIV7ASJXQ3FB9V025S7G34H,34BBWHLWHER4D7WNOQTHJIJ8PUJWI0,1,2
38,1,object_05,object_01,876.5,1,2,628.80000000075,0.8888888888888888,1,object_04,1,306,0,8,1,desert_7,2,memory-2step-stake-s,547,1598803,0.0-19.0-0.0-0.38,A3RHJEMZ4EGY2U,382GHPVPIV7ASJXQ3FB9V025S7G34H,34BBWHLWHER4D7WNOQTHJIJ8PUJWI0,2,1
39,3,object_10,object_06,926.0,6,2,1048.5999999996,0.6666666666666666,2,object_08,1,312,0,8,6,library_6,2,memory-2step-stake-s,548,1607735,0.0-19.0-0.0-0.39,A3RHJEMZ4EGY2U,382GHPVPIV7ASJXQ3FB9V025S7G34H,34BBWHLWHER4D7WNOQTHJIJ8PUJWI0,5,6
40,4,object_02,object_09,883.90000000037,8,1,644.90000000037,0.4444444444444444,2,object_08,5,332,0,5,4,restaurant_1,2,memory-2step-stake-s,549,1616052,0.0-19.0-0.0-0.40,A3RHJEMZ4EGY2U,382GHPVPIV7ASJXQ3FB9V025S7G34H,34BBWHLWHER4D7WNOQTHJIJ8PUJWI0,8,7
41,2,object_03,object_07,1271.0,4,2,-1.0,0.0,2,object_08,5,332,0,3,4,forest_7,2,memory-2step-stake-s,550,1624623,0.0-19.0-0.0-0.41,A3RHJEMZ4EGY2U,382GHPVPIV7ASJXQ3FB9V025S7G34H,34BBWHLWHER4D7WNOQTHJIJ8PUJWI0,3,4
42,2,object_03,object_07,1223.3000000007,3,1,701.19999999925,0.3333333333333333,1,object_04,5,347,0,3,2,forest_3,2,memory-2step-stake-s,551,1632891,0.0-19.0-0.0-0.42,A3RHJEMZ4EGY2U,382GHPVPIV7ASJXQ3FB9V025S7G34H,34BBWHLWHER4D7WNOQTHJIJ8PUJWI0,3,4
43,2,object_03,object_07,997.20000000112,3,1,1258.5999999996,0.1111111111111111,1,object_04,5,352,0,1,3,forest_1,2,memory-2step-stake-s,552,1641517,0.0-19.0-0.0-0.43,A3RHJEMZ4EGY2U,382GHPVPIV7ASJXQ3FB9V025S7G34H,34BBWHLWHER4D7WNOQTHJIJ8PUJWI0,3,4
44,2,object_03,object_07,942.59999999963,3,1,1058.0,0.2222222222222222,1,object_04,5,362,0,2,2,forest_3,2,memory-2step-stake-s,553,1650058,0.0-19.0-0.0-0.44,A3RHJEMZ4EGY2U,382GHPVPIV7ASJXQ3FB9V025S7G34H,34BBWHLWHER4D7WNOQTHJIJ8PUJWI0,3,4
45,1,object_01,object_05,726.69999999925,1,1,28.300000000745,0.0,1,object_04,1,362,0,0,4,desert_3,2,memory-2step-stake-s,554,1657349,0.0-19.0-0.0-0.45,A3RHJEMZ4EGY2U,382GHPVPIV7ASJXQ3FB9V025S7G34H,34BBWHLWHER4D7WNOQTHJIJ8PUJWI0,1,2
46,2,object_03,object_07,1114.5999999996,4,2,894.30000000075,0.5555555555555556,2,object_08,5,387,0,1,5,forest_7,2,memory-2step-stake-s,555,1666043,0.0-19.0-0.0-0.46,A3RHJEMZ4EGY2U,382GHPVPIV7ASJXQ3FB9V025S7G34H,34BBWHLWHER4D7WNOQTHJIJ8PUJWI0,3,4
47,3,object_06,object_10,-1.0,-1,-1,-1.0,0.0,-,0,1,387,0,2,4,library_5,2,memory-2step-stake-s,556,1672573,0.0-19.0-0.0-0.47,A3RHJEMZ4EGY2U,382GHPVPIV7ASJXQ3FB9V025S7G34H,34BBWHLWHER4D7WNOQTHJIJ8PUJWI0,6,5
48,2,object_07,object_03,841.59999999963,4,1,677.90000000037,0.2222222222222222,2,object_08,5,397,0,3,2,forest_1,2,memory-2step-stake-s,557,1680728,0.0-19.0-0.0-0.48,A3RHJEMZ4EGY2U,382GHPVPIV7ASJXQ3FB9V025S7G34H,34BBWHLWHER4D7WNOQTHJIJ8PUJWI0,4,3
49,1,object_05,object_01,1376.1999999993,2,1,775.40000000037,0.4444444444444444,2,object_08,5,417,0,3,4,desert_5,2,memory-2step-stake-s,558,1689193,0.0-19.0-0.0-0.49,A3RHJEMZ4EGY2U,382GHPVPIV7ASJXQ3FB9V025S7G34H,34BBWHLWHER4D7WNOQTHJIJ8PUJWI0,2,1
50,4,object_02,object_09,650.90000000037,8,1,655.5,0.8888888888888888,2,object_08,1,425,0,0,8,restaurant_6,2,memory-2step-stake-s,559,1697964,0.0-19.0-0.0-0.50,A3RHJEMZ4EGY2U,382GHPVPIV7ASJXQ3FB9V025S7G34H,34BBWHLWHER4D7WNOQTHJIJ8PUJWI0,8,7
51,4,object_09,object_02,699.90000000037,8,2,699.40000000037,0.8888888888888888,2,object_08,5,465,0,1,8,restaurant_6,2,memory-2step-stake-s,560,1706752,0.0-19.0-0.0-0.51,A3RHJEMZ4EGY2U,382GHPVPIV7ASJXQ3FB9V025S7G34H,34BBWHLWHER4D7WNOQTHJIJ8PUJWI0,7,8
52,3,object_06,object_10,1263.3000000007,5,2,607.59999999963,0.3333333333333333,1,object_04,1,468,0,3,7,library_5,2,memory-2step-stake-s,561,1714948,0.0-19.0-0.0-0.52,A3RHJEMZ4EGY2U,382GHPVPIV7ASJXQ3FB9V025S7G34H,34BBWHLWHER4D7WNOQTHJIJ8PUJWI0,6,5
53,4,object_09,object_02,930.19999999925,8,2,526.69999999925,0.6666666666666666,2,object_08,1,474,0,1,6,restaurant_2,2,memory-2step-stake-s,562,1723359,0.0-19.0-0.0-0.53,A3RHJEMZ4EGY2U,382GHPVPIV7ASJXQ3FB9V025S7G34H,34BBWHLWHER4D7WNOQTHJIJ8PUJWI0,7,8
54,2,object_03,object_07,1437.0999999996,3,1,624.19999999925,0.1111111111111111,1,object_04,5,479,0,1,6,forest_2,2,memory-2step-stake-s,563,1731335,0.0-19.0-0.0-0.54,A3RHJEMZ4EGY2U,382GHPVPIV7ASJXQ3FB9V025S7G34H,34BBWHLWHER4D7WNOQTHJIJ8PUJWI0,3,4
55,2,object_07,object_03,1003.6000000015,3,2,-1.0,0.0,1,object_04,5,479,0,2,3,forest_1,2,memory-2step-stake-s,564,1739899,0.0-19.0-0.0-0.55,A3RHJEMZ4EGY2U,382GHPVPIV7ASJXQ3FB9V025S7G34H,34BBWHLWHER4D7WNOQTHJIJ8PUJWI0,4,3
56,3,object_10,object_06,900.90000000037,5,1,-1.0,0.0,1,object_04,5,479,0,3,5,library_6,2,memory-2step-stake-s,565,1748464,0.0-19.0-0.0-0.56,A3RHJEMZ4EGY2U,382GHPVPIV7ASJXQ3FB9V025S7G34H,34BBWHLWHER4D7WNOQTHJIJ8PUJWI0,5,6
57,2,object_07,object_03,629.30000000075,3,2,1342.5,0.3333333333333333,1,object_04,5,494,0,3,3,forest_7,2,memory-2step-stake-s,566,1757388,0.0-19.0-0.0-0.57,A3RHJEMZ4EGY2U,382GHPVPIV7ASJXQ3FB9V025S7G34H,34BBWHLWHER4D7WNOQTHJIJ8PUJWI0,4,3
58,4,object_09,object_02,734.40000000037,7,1,952.20000000112,0.4444444444444444,1,object_04,5,514,0,4,3,restaurant_8,2,memory-2step-stake-s,567,1766007,0.0-19.0-0.0-0.58,A3RHJEMZ4EGY2U,382GHPVPIV7ASJXQ3FB9V025S7G34H,34BBWHLWHER4D7WNOQTHJIJ8PUJWI0,7,8
59,2,object_07,object_03,495.80000000075,3,2,1008.3999999985,0.6666666666666666,1,object_04,5,544,0,6,4,forest_3,2,memory-2step-stake-s,568,1774918,0.0-19.0-0.0-0.59,A3RHJEMZ4EGY2U,382GHPVPIV7ASJXQ3FB9V025S7G34H,34BBWHLWHER4D7WNOQTHJIJ8PUJWI0,4,3
60,4,object_09,object_02,985.19999999925,7,1,-1.0,0.0,1,object_04,5,544,0,7,8,restaurant_6,2,memory-2step-stake-s,569,1783491,0.0-19.0-0.0-0.60,A3RHJEMZ4EGY2U,382GHPVPIV7ASJXQ3FB9V025S7G34H,34BBWHLWHER4D7WNOQTHJIJ8PUJWI0,7,8
61,2,object_07,object_03,555.69999999925,4,1,-1.0,0.0,2,object_08,5,544,0,8,4,forest_2,2,memory-2step-stake-s,570,1792024,0.0-19.0-0.0-0.61,A3RHJEMZ4EGY2U,382GHPVPIV7ASJXQ3FB9V025S7G34H,34BBWHLWHER4D7WNOQTHJIJ8PUJWI0,4,3
62,2,object_07,object_03,508.5,4,1,460.90000000037,0.2222222222222222,2,object_08,5,554,0,8,2,forest_1,2,memory-2step-stake-s,571,1799978,0.0-19.0-0.0-0.62,A3RHJEMZ4EGY2U,382GHPVPIV7ASJXQ3FB9V025S7G34H,34BBWHLWHER4D7WNOQTHJIJ8PUJWI0,4,3
63,3,object_10,object_06,654.30000000075,5,1,-1.0,0.0,1,object_04,1,554,0,9,2,library_5,2,memory-2step-stake-s,572,1808553,0.0-19.0-0.0-0.63,A3RHJEMZ4EGY2U,382GHPVPIV7ASJXQ3FB9V025S7G34H,34BBWHLWHER4D7WNOQTHJIJ8PUJWI0,5,6
64,2,object_07,object_03,422.09999999963,4,1,390.0,0.3333333333333333,2,object_08,5,569,0,6,3,forest_7,2,memory-2step-stake-s,573,1816490,0.0-19.0-0.0-0.64,A3RHJEMZ4EGY2U,382GHPVPIV7ASJXQ3FB9V025S7G34H,34BBWHLWHER4D7WNOQTHJIJ8PUJWI0,4,3
65,1,object_05,object_01,762.59999999963,2,1,526.19999999925,0.3333333333333333,2,object_08,5,584,0,8,3,desert_7,2,memory-2step-stake-s,574,1824601,0.0-19.0-0.0-0.65,A3RHJEMZ4EGY2U,382GHPVPIV7ASJXQ3FB9V025S7G34H,34BBWHLWHER4D7WNOQTHJIJ8PUJWI0,2,1
66,1,object_01,object_05,910.10000000149,2,2,127.5,0.2222222222222222,2,object_08,5,594,0,8,2,desert_5,2,memory-2step-stake-s,575,1832217,0.0-19.0-0.0-0.66,A3RHJEMZ4EGY2U,382GHPVPIV7ASJXQ3FB9V025S7G34H,34BBWHLWHER4D7WNOQTHJIJ8PUJWI0,1,2
67,2,object_07,object_03,932.59999999963,4,1,516.5,0.7777777777777778,2,object_08,1,601,0,4,7,forest_3,2,memory-2step-stake-s,576,1840721,0.0-19.0-0.0-0.67,A3RHJEMZ4EGY2U,382GHPVPIV7ASJXQ3FB9V025S7G34H,34BBWHLWHER4D7WNOQTHJIJ8PUJWI0,4,3
68,3,object_06,object_10,1181.5,6,1,603.5,0.5555555555555556,2,object_08,1,606,0,2,5,library_7,2,memory-2step-stake-s,577,1849106,0.0-19.0-0.0-0.68,A3RHJEMZ4EGY2U,382GHPVPIV7ASJXQ3FB9V025S7G34H,34BBWHLWHER4D7WNOQTHJIJ8PUJWI0,6,5
69,3,object_06,object_10,-1.0,-1,-1,-1.0,0.0,-,0,5,606,0,1,4,library_6,2,memory-2step-stake-s,578,1855670,0.0-19.0-0.0-0.69,A3RHJEMZ4EGY2U,382GHPVPIV7ASJXQ3FB9V025S7G34H,34BBWHLWHER4D7WNOQTHJIJ8PUJWI0,6,5
70,3,object_06,object_10,316.5,6,1,451.89999999851,0.2222222222222222,2,object_08,1,608,0,1,2,library_7,2,memory-2step-stake-s,579,1863583,0.0-19.0-0.0-0.70,A3RHJEMZ4EGY2U,382GHPVPIV7ASJXQ3FB9V025S7G34H,34BBWHLWHER4D7WNOQTHJIJ8PUJWI0,6,5
71,3,object_06,object_10,590.10000000149,6,1,393.40000000037,0.4444444444444444,2,object_08,1,612,0,1,4,library_3,2,memory-2step-stake-s,580,1871635,0.0-19.0-0.0-0.71,A3RHJEMZ4EGY2U,382GHPVPIV7ASJXQ3FB9V025S7G34H,34BBWHLWHER4D7WNOQTHJIJ8PUJWI0,6,5
72,2,object_07,object_03,944.0,4,1,353.40000000037,0.4444444444444444,2,object_08,1,616,0,2,4,forest_7,2,memory-2step-stake-s,581,1879661,0.0-19.0-0.0-0.72,A3RHJEMZ4EGY2U,382GHPVPIV7ASJXQ3FB9V025S7G34H,34BBWHLWHER4D7WNOQTHJIJ8PUJWI0,4,3
73,1,object_05,object_01,973.40000000037,1,2,139.19999999925,0.2222222222222222,1,object_04,5,626,0,2,2,desert_6,2,memory-2step-stake-s,582,1887276,0.0-19.0-0.0-0.73,A3RHJEMZ4EGY2U,382GHPVPIV7ASJXQ3FB9V025S7G34H,34BBWHLWHER4D7WNOQTHJIJ8PUJWI0,2,1
74,3,object_06,object_10,683.5,6,1,683.90000000037,0.4444444444444444,2,object_08,1,630,0,3,4,library_5,2,memory-2step-stake-s,583,1895660,0.0-19.0-0.0-0.74,A3RHJEMZ4EGY2U,382GHPVPIV7ASJXQ3FB9V025S7G34H,34BBWHLWHER4D7WNOQTHJIJ8PUJWI0,6,5
75,3,object_10,object_06,893.69999999925,6,2,-1.0,0.0,2,object_08,1,630,0,0,4,library_5,2,memory-2step-stake-s,584,1904237,0.0-19.0-0.0-0.75,A3RHJEMZ4EGY2U,382GHPVPIV7ASJXQ3FB9V025S7G34H,34BBWHLWHER4D7WNOQTHJIJ8PUJWI0,5,6
76,1,object_05,object_01,921.5,1,2,394.0,0.2222222222222222,1,object_04,5,640,0,2,2,desert_7,2,memory-2step-stake-s,585,1912110,0.0-19.0-0.0-0.76,A3RHJEMZ4EGY2U,382GHPVPIV7ASJXQ3FB9V025S7G34H,34BBWHLWHER4D7WNOQTHJIJ8PUJWI0,2,1
77,1,object_01,object_05,984.90000000037,1,1,360.29999999888,0.3333333333333333,1,object_04,5,655,0,3,3,desert_7,2,memory-2step-stake-s,586,1920077,0.0-19.0-0.0-0.77,A3RHJEMZ4EGY2U,382GHPVPIV7ASJXQ3FB9V025S7G34H,34BBWHLWHER4D7WNOQTHJIJ8PUJWI0,1,2
78,4,object_02,object_09,1123.8000000007,8,1,387.80000000075,0.1111111111111111,2,object_08,1,656,0,2,1,restaurant_1,2,memory-2step-stake-s,587,1927839,0.0-19.0-0.0-0.78,A3RHJEMZ4EGY2U,382GHPVPIV7ASJXQ3FB9V025S7G34H,34BBWHLWHER4D7WNOQTHJIJ8PUJWI0,8,7
79,2,object_03,object_07,996.09999999963,4,2,-1.0,0.0,2,object_08,5,656,0,3,0,forest_3,2,memory-2step-stake-s,588,1936403,0.0-19.0-0.0-0.79,A3RHJEMZ4EGY2U,382GHPVPIV7ASJXQ3FB9V025S7G34H,34BBWHLWHER4D7WNOQTHJIJ8PUJWI0,3,4
80,1,object_01,object_05,600.5,1,1,409.80000000075,0.2222222222222222,1,object_04,1,658,0,2,1,desert_7,2,memory-2step-stake-s,589,1944269,0.0-19.0-0.0-0.80,A3RHJEMZ4EGY2U,382GHPVPIV7ASJXQ3FB9V025S7G34H,34BBWHLWHER4D7WNOQTHJIJ8PUJWI0,1,2
81,3,object_10,object_06,918.19999999925,5,1,-1.0,0.0,1,object_04,1,658,0,4,1,library_3,2,memory-2step-stake-s,590,1952842,0.0-19.0-0.0-0.81,A3RHJEMZ4EGY2U,382GHPVPIV7ASJXQ3FB9V025S7G34H,34BBWHLWHER4D7WNOQTHJIJ8PUJWI0,5,6
82,1,object_05,object_01,754.5,2,1,296.5,0.4444444444444444,2,object_08,5,678,0,1,4,desert_6,2,memory-2step-stake-s,591,1960848,0.0-19.0-0.0-0.82,A3RHJEMZ4EGY2U,382GHPVPIV7ASJXQ3FB9V025S7G34H,34BBWHLWHER4D7WNOQTHJIJ8PUJWI0,2,1
83,2,object_03,object_07,506.59999999963,4,2,463.39999999851,0.4444444444444444,2,object_08,5,698,0,3,4,forest_3,2,memory-2step-stake-s,592,1968987,0.0-19.0-0.0-0.83,A3RHJEMZ4EGY2U,382GHPVPIV7ASJXQ3FB9V025S7G34H,34BBWHLWHER4D7WNOQTHJIJ8PUJWI0,3,4
84,2,object_07,object_03,894.09999999963,4,1,464.30000000075,0.8888888888888888,2,object_08,5,738,0,3,8,forest_7,2,memory-2step-stake-s,593,1977544,0.0-19.0-0.0-0.84,A3RHJEMZ4EGY2U,382GHPVPIV7ASJXQ3FB9V025S7G34H,34BBWHLWHER4D7WNOQTHJIJ8PUJWI0,4,3
85,1,object_05,object_01,986.19999999925,1,2,607.59999999963,0.4444444444444444,1,object_04,1,742,0,4,7,desert_7,2,memory-2step-stake-s,594,1985824,0.0-19.0-0.0-0.85,A3RHJEMZ4EGY2U,382GHPVPIV7ASJXQ3FB9V025S7G34H,34BBWHLWHER4D7WNOQTHJIJ8PUJWI0,2,1
86,3,object_10,object_06,870.40000000037,5,1,522.89999999851,0.2222222222222222,1,object_04,1,744,0,2,7,library_3,2,memory-2step-stake-s,595,1993831,0.0-19.0-0.0-0.86,A3RHJEMZ4EGY2U,382GHPVPIV7ASJXQ3FB9V025S7G34H,34BBWHLWHER4D7WNOQTHJIJ8PUJWI0,5,6
87,1,object_05,object_01,790.29999999888,1,2,444.0,0.4444444444444444,1,object_04,5,764,0,4,9,desert_5,2,memory-2step-stake-s,596,2001991,0.0-19.0-0.0-0.87,A3RHJEMZ4EGY2U,382GHPVPIV7ASJXQ3FB9V025S7G34H,34BBWHLWHER4D7WNOQTHJIJ8PUJWI0,2,1
88,1,object_01,object_05,716.70000000112,1,1,32.0,0.5555555555555556,1,object_04,5,789,0,5,9,desert_5,2,memory-2step-stake-s,597,2009797,0.0-19.0-0.0-0.88,A3RHJEMZ4EGY2U,382GHPVPIV7ASJXQ3FB9V025S7G34H,34BBWHLWHER4D7WNOQTHJIJ8PUJWI0,1,2
89,4,object_09,object_02,1231.5999999996,7,1,778.69999999925,0.8888888888888888,1,object_04,1,797,0,8,8,restaurant_6,2,memory-2step-stake-s,598,2018718,0.0-19.0-0.0-0.89,A3RHJEMZ4EGY2U,382GHPVPIV7ASJXQ3FB9V025S7G34H,34BBWHLWHER4D7WNOQTHJIJ8PUJWI0,7,8
90,1,object_05,object_01,830.5,1,2,590.90000000037,0.8888888888888888,1,object_04,5,837,0,8,9,desert_5,2,memory-2step-stake-s,599,2027397,0.0-19.0-0.0-0.90,A3RHJEMZ4EGY2U,382GHPVPIV7ASJXQ3FB9V025S7G34H,34BBWHLWHER4D7WNOQTHJIJ8PUJWI0,2,1
91,2,object_03,object_07,-1.0,-1,-1,-1.0,0.0,-,0,5,837,0,3,6,forest_7,2,memory-2step-stake-s,600,2033969,0.0-19.0-0.0-0.91,A3RHJEMZ4EGY2U,382GHPVPIV7ASJXQ3FB9V025S7G34H,34BBWHLWHER4D7WNOQTHJIJ8PUJWI0,3,4
92,3,object_06,object_10,783.40000000037,5,2,556.40000000037,0.5555555555555556,1,object_04,1,842,0,5,6,library_3,2,memory-2step-stake-s,601,2042311,0.0-19.0-0.0-0.92,A3RHJEMZ4EGY2U,382GHPVPIV7ASJXQ3FB9V025S7G34H,34BBWHLWHER4D7WNOQTHJIJ8PUJWI0,6,5
93,3,object_06,object_10,818.40000000037,5,2,533.40000000037,0.3333333333333333,1,object_04,1,845,0,3,9,library_3,2,memory-2step-stake-s,602,2050443,0.0-19.0-0.0-0.93,A3RHJEMZ4EGY2U,382GHPVPIV7ASJXQ3FB9V025S7G34H,34BBWHLWHER4D7WNOQTHJIJ8PUJWI0,6,5
94,3,object_10,object_06,767.59999999776,5,1,597.5,0.5555555555555556,1,object_04,1,850,0,5,6,library_7,2,memory-2step-stake-s,603,2058882,0.0-19.0-0.0-0.94,A3RHJEMZ4EGY2U,382GHPVPIV7ASJXQ3FB9V025S7G34H,34BBWHLWHER4D7WNOQTHJIJ8PUJWI0,5,6
95,3,object_10,object_06,784.30000000075,5,1,466.59999999776,0.4444444444444444,1,object_04,5,870,0,4,8,library_6,2,memory-2step-stake-s,604,2066997,0.0-19.0-0.0-0.95,A3RHJEMZ4EGY2U,382GHPVPIV7ASJXQ3FB9V025S7G34H,34BBWHLWHER4D7WNOQTHJIJ8PUJWI0,5,6
96,4,object_02,object_09,1076.5,7,2,494.40000000224,0.3333333333333333,1,object_04,1,873,0,3,6,restaurant_6,2,memory-2step-stake-s,605,2075076,0.0-19.0-0.0-0.96,A3RHJEMZ4EGY2U,382GHPVPIV7ASJXQ3FB9V025S7G34H,34BBWHLWHER4D7WNOQTHJIJ8PUJWI0,8,7
97,4,object_09,object_02,1087.1999999993,7,1,420.79999999702,0.5555555555555556,1,object_04,1,878,0,5,9,restaurant_2,2,memory-2step-stake-s,606,2083276,0.0-19.0-0.0-0.97,A3RHJEMZ4EGY2U,382GHPVPIV7ASJXQ3FB9V025S7G34H,34BBWHLWHER4D7WNOQTHJIJ8PUJWI0,7,8
98,4,object_02,object_09,862.19999999925,7,2,502.40000000224,0.4444444444444444,1,object_04,1,882,0,4,8,restaurant_8,2,memory-2step-stake-s,607,2091484,0.0-19.0-0.0-0.98,A3RHJEMZ4EGY2U,382GHPVPIV7ASJXQ3FB9V025S7G34H,34BBWHLWHER4D7WNOQTHJIJ8PUJWI0,8,7
99,3,object_06,object_10,866.69999999925,5,2,1021.6000000015,0.5555555555555556,1,object_04,1,887,0,5,8,library_5,2,memory-2step-stake-s,608,2100299,0.0-19.0-0.0-0.99,A3RHJEMZ4EGY2U,382GHPVPIV7ASJXQ3FB9V025S7G34H,34BBWHLWHER4D7WNOQTHJIJ8PUJWI0,6,5
100,3,object_10,object_06,882.59999999776,5,1,589.40000000224,0.5555555555555556,1,object_04,1,892,0,5,9,library_6,2,memory-2step-stake-s,609,2108638,0.0-19.0-0.0-0.100,A3RHJEMZ4EGY2U,382GHPVPIV7ASJXQ3FB9V025S7G34H,34BBWHLWHER4D7WNOQTHJIJ8PUJWI0,5,6
101,3,object_10,object_06,594.69999999925,5,1,541.0,0.5555555555555556,1,object_04,1,897,0,5,6,library_6,2,memory-2step-stake-s,610,2116951,0.0-19.0-0.0-0.101,A3RHJEMZ4EGY2U,382GHPVPIV7ASJXQ3FB9V025S7G34H,34BBWHLWHER4D7WNOQTHJIJ8PUJWI0,5,6
102,1,object_05,object_01,906.10000000149,1,2,645.5,0.6666666666666666,1,object_04,5,927,0,6,7,desert_5,2,memory-2step-stake-s,611,2125483,0.0-19.0-0.0-0.102,A3RHJEMZ4EGY2U,382GHPVPIV7ASJXQ3FB9V025S7G34H,34BBWHLWHER4D7WNOQTHJIJ8PUJWI0,2,1
103,3,object_06,object_10,746.39999999851,5,2,479.09999999776,0.8888888888888888,1,object_04,5,967,0,8,7,library_7,2,memory-2step-stake-s,612,2134077,0.0-19.0-0.0-0.103,A3RHJEMZ4EGY2U,382GHPVPIV7ASJXQ3FB9V025S7G34H,34BBWHLWHER4D7WNOQTHJIJ8PUJWI0,6,5
104,4,object_02,object_09,777.0,7,2,443.40000000224,0.6666666666666666,1,object_04,1,973,0,6,7,restaurant_8,2,memory-2step-stake-s,613,2142414,0.0-19.0-0.0-0.104,A3RHJEMZ4EGY2U,382GHPVPIV7ASJXQ3FB9V025S7G34H,34BBWHLWHER4D7WNOQTHJIJ8PUJWI0,8,7
105,2,object_07,object_03,1308.0,4,1,651.60000000149,0.6666666666666666,2,object_08,1,979,0,5,6,forest_1,2,memory-2step-stake-s,614,2150934,0.0-19.0-0.0-0.105,A3RHJEMZ4EGY2U,382GHPVPIV7ASJXQ3FB9V025S7G34H,34BBWHLWHER4D7WNOQTHJIJ8PUJWI0,4,3
106,2,object_07,object_03,1259.1999999993,4,1,777.30000000075,0.7777777777777778,2,object_08,1,986,0,3,7,forest_2,2,memory-2step-stake-s,615,2159698,0.0-19.0-0.0-0.106,A3RHJEMZ4EGY2U,382GHPVPIV7ASJXQ3FB9V025S7G34H,34BBWHLWHER4D7WNOQTHJIJ8PUJWI0,4,3
107,1,object_01,object_05,878.19999999925,2,2,488.5,0.8888888888888888,2,object_08,5,1026,0,2,8,desert_6,2,memory-2step-stake-s,616,2168295,0.0-19.0-0.0-0.107,A3RHJEMZ4EGY2U,382GHPVPIV7ASJXQ3FB9V025S7G34H,34BBWHLWHER4D7WNOQTHJIJ8PUJWI0,1,2
108,2,object_07,object_03,1269.0999999978,4,1,602.0,0.6666666666666666,2,object_08,1,1032,0,2,6,forest_7,2,memory-2step-stake-s,617,2176780,0.0-19.0-0.0-0.108,A3RHJEMZ4EGY2U,382GHPVPIV7ASJXQ3FB9V025S7G34H,34BBWHLWHER4D7WNOQTHJIJ8PUJWI0,4,3
109,1,object_05,object_01,834.0,2,1,59.0,0.4444444444444444,2,object_08,5,1052,0,2,4,desert_6,2,memory-2step-stake-s,618,2184481,0.0-19.0-0.0-0.109,A3RHJEMZ4EGY2U,382GHPVPIV7ASJXQ3FB9V025S7G34H,34BBWHLWHER4D7WNOQTHJIJ8PUJWI0,2,1
110,2,object_07,object_03,948.29999999702,4,1,484.0,0.3333333333333333,2,object_08,5,1067,0,3,3,forest_2,2,memory-2step-stake-s,619,2192527,0.0-19.0-0.0-0.110,A3RHJEMZ4EGY2U,382GHPVPIV7ASJXQ3FB9V025S7G34H,34BBWHLWHER4D7WNOQTHJIJ8PUJWI0,4,3
111,1,object_05,object_01,647.5,1,2,484.80000000075,0.3333333333333333,1,object_04,5,1082,0,3,2,desert_5,2,memory-2step-stake-s,620,2200611,0.0-19.0-0.0-0.111,A3RHJEMZ4EGY2U,382GHPVPIV7ASJXQ3FB9V025S7G34H,34BBWHLWHER4D7WNOQTHJIJ8PUJWI0,2,1
112,1,object_05,object_01,688.19999999925,1,2,354.10000000149,0.2222222222222222,1,object_04,5,1092,0,2,3,desert_3,2,memory-2step-stake-s,621,2208448,0.0-19.0-0.0-0.112,A3RHJEMZ4EGY2U,382GHPVPIV7ASJXQ3FB9V025S7G34H,34BBWHLWHER4D7WNOQTHJIJ8PUJWI0,2,1
113,1,object_05,object_01,854.29999999702,2,1,346.30000000075,0.2222222222222222,2,object_08,1,1094,0,3,2,desert_5,2,memory-2step-stake-s,622,2216268,0.0-19.0-0.0-0.113,A3RHJEMZ4EGY2U,382GHPVPIV7ASJXQ3FB9V025S7G34H,34BBWHLWHER4D7WNOQTHJIJ8PUJWI0,2,1
114,3,object_10,object_06,910.80000000075,5,1,402.90000000224,0.1111111111111111,1,object_04,1,1095,0,1,4,library_7,2,memory-2step-stake-s,623,2224047,0.0-19.0-0.0-0.114,A3RHJEMZ4EGY2U,382GHPVPIV7ASJXQ3FB9V025S7G34H,34BBWHLWHER4D7WNOQTHJIJ8PUJWI0,5,6
115,1,object_05,object_01,923.10000000149,2,1,487.89999999851,0.3333333333333333,2,object_08,5,1110,0,1,3,desert_5,2,memory-2step-stake-s,624,2232128,0.0-19.0-0.0-0.115,A3RHJEMZ4EGY2U,382GHPVPIV7ASJXQ3FB9V025S7G34H,34BBWHLWHER4D7WNOQTHJIJ8PUJWI0,2,1
116,3,object_06,object_10,797.89999999851,6,1,414.79999999702,0.3333333333333333,2,object_08,1,1113,0,1,3,library_6,2,memory-2step-stake-s,625,2240136,0.0-19.0-0.0-0.116,A3RHJEMZ4EGY2U,382GHPVPIV7ASJXQ3FB9V025S7G34H,34BBWHLWHER4D7WNOQTHJIJ8PUJWI0,6,5
117,4,object_02,object_09,1245.1000000015,8,1,71.800000000745,0.3333333333333333,2,object_08,5,1128,0,2,3,restaurant_6,2,memory-2step-stake-s,626,2247783,0.0-19.0-0.0-0.117,A3RHJEMZ4EGY2U,382GHPVPIV7ASJXQ3FB9V025S7G34H,34BBWHLWHER4D7WNOQTHJIJ8PUJWI0,8,7
118,1,object_01,object_05,826.0,2,2,443.80000000075,0.4444444444444444,2,object_08,5,1148,0,3,4,desert_7,2,memory-2step-stake-s,627,2255901,0.0-19.0-0.0-0.118,A3RHJEMZ4EGY2U,382GHPVPIV7ASJXQ3FB9V025S7G34H,34BBWHLWHER4D7WNOQTHJIJ8PUJWI0,1,2
119,4,object_02,object_09,930.40000000224,7,2,454.90000000224,0.3333333333333333,1,object_04,5,1163,0,3,7,restaurant_8,2,memory-2step-stake-s,628,2263934,0.0-19.0-0.0-0.119,A3RHJEMZ4EGY2U,382GHPVPIV7ASJXQ3FB9V025S7G34H,34BBWHLWHER4D7WNOQTHJIJ8PUJWI0,8,7
120,1,object_01,object_05,850.10000000149,2,2,938.79999999702,0.7777777777777778,2,object_08,5,1198,0,4,7,desert_6,2,memory-2step-stake-s,629,2272866,0.0-19.0-0.0-0.120,A3RHJEMZ4EGY2U,382GHPVPIV7ASJXQ3FB9V025S7G34H,34BBWHLWHER4D7WNOQTHJIJ8PUJWI0,1,2
121,4,object_02,object_09,1095.200000003,8,1,423.29999999702,0.6666666666666666,2,object_08,5,1228,0,5,6,restaurant_2,2,memory-2step-stake-s,630,2281195,0.0-19.0-0.0-0.121,A3RHJEMZ4EGY2U,382GHPVPIV7ASJXQ3FB9V025S7G34H,34BBWHLWHER4D7WNOQTHJIJ8PUJWI0,8,7
122,1,object_01,object_05,655.29999999702,2,2,656.5,0.7777777777777778,2,object_08,5,1263,0,2,7,desert_5,2,memory-2step-stake-s,631,2289850,0.0-19.0-0.0-0.122,A3RHJEMZ4EGY2U,382GHPVPIV7ASJXQ3FB9V025S7G34H,34BBWHLWHER4D7WNOQTHJIJ8PUJWI0,1,2
123,2,object_07,object_03,1201.3000000007,3,2,427.5,0.4444444444444444,1,object_04,5,1283,0,4,5,forest_2,2,memory-2step-stake-s,632,2297974,0.0-19.0-0.0-0.123,A3RHJEMZ4EGY2U,382GHPVPIV7ASJXQ3FB9V025S7G34H,34BBWHLWHER4D7WNOQTHJIJ8PUJWI0,4,3
124,3,object_10,object_06,876.10000000149,6,2,649.80000000075,0.5555555555555556,2,object_08,1,1288,0,3,5,library_5,2,memory-2step-stake-s,633,2306408,0.0-19.0-0.0-0.124,A3RHJEMZ4EGY2U,382GHPVPIV7ASJXQ3FB9V025S7G34H,34BBWHLWHER4D7WNOQTHJIJ8PUJWI0,5,6
125,1,object_01,object_05,818.5,2,2,646.09999999776,0.8888888888888888,2,object_08,5,1328,0,3,8,desert_6,2,memory-2step-stake-s,634,2315166,0.0-19.0-0.0-0.125,A3RHJEMZ4EGY2U,382GHPVPIV7ASJXQ3FB9V025S7G34H,34BBWHLWHER4D7WNOQTHJIJ8PUJWI0,1,2
126,1,object_05,object_01,779.40000000224,2,1,631.39999999851,0.8888888888888888,2,object_08,1,1336,0,4,8,desert_6,2,memory-2step-stake-s,635,2323934,0.0-19.0-0.0-0.126,A3RHJEMZ4EGY2U,382GHPVPIV7ASJXQ3FB9V025S7G34H,34BBWHLWHER4D7WNOQTHJIJ8PUJWI0,2,1
127,3,object_10,object_06,763.10000000149,6,2,451.60000000149,0.6666666666666666,2,object_08,5,1366,0,5,6,library_7,2,memory-2step-stake-s,636,2332278,0.0-19.0-0.0-0.127,A3RHJEMZ4EGY2U,382GHPVPIV7ASJXQ3FB9V025S7G34H,34BBWHLWHER4D7WNOQTHJIJ8PUJWI0,5,6
128,1,object_01,object_05,694.09999999776,1,1,345.10000000149,1.0,1,object_04,5,1411,0,9,6,desert_3,2,memory-2step-stake-s,638,2679471,0.0-19.0-0.1-0.128,A3RHJEMZ4EGY2U,382GHPVPIV7ASJXQ3FB9V025S7G34H,34BBWHLWHER4D7WNOQTHJIJ8PUJWI0,1,2
129,4,object_09,object_02,1126.1999999993,7,1,569.10000000149,0.7777777777777778,1,object_04,1,1418,0,7,4,restaurant_2,2,memory-2step-stake-s,639,2688050,0.0-19.0-0.1-0.129,A3RHJEMZ4EGY2U,382GHPVPIV7ASJXQ3FB9V025S7G34H,34BBWHLWHER4D7WNOQTHJIJ8PUJWI0,7,8
130,4,object_09,object_02,752.90000000224,7,1,368.39999999851,0.7777777777777778,1,object_04,1,1425,0,7,4,restaurant_2,2,memory-2step-stake-s,640,2696443,0.0-19.0-0.1-0.130,A3RHJEMZ4EGY2U,382GHPVPIV7ASJXQ3FB9V025S7G34H,34BBWHLWHER4D7WNOQTHJIJ8PUJWI0,7,8
131,1,object_01,object_05,780.80000000075,1,1,405.79999999702,0.5555555555555556,1,object_04,1,1430,0,5,4,desert_5,2,memory-2step-stake-s,641,2704678,0.0-19.0-0.1-0.131,A3RHJEMZ4EGY2U,382GHPVPIV7ASJXQ3FB9V025S7G34H,34BBWHLWHER4D7WNOQTHJIJ8PUJWI0,1,2
132,2,object_07,object_03,960.80000000075,3,2,406.10000000149,0.4444444444444444,1,object_04,5,1450,0,4,3,forest_1,2,memory-2step-stake-s,642,2712760,0.0-19.0-0.1-0.132,A3RHJEMZ4EGY2U,382GHPVPIV7ASJXQ3FB9V025S7G34H,34BBWHLWHER4D7WNOQTHJIJ8PUJWI0,4,3
133,2,object_07,object_03,1053.5,4,1,400.0,0.6666666666666666,2,object_08,1,1456,0,5,6,forest_2,2,memory-2step-stake-s,643,2721080,0.0-19.0-0.1-0.133,A3RHJEMZ4EGY2U,382GHPVPIV7ASJXQ3FB9V025S7G34H,34BBWHLWHER4D7WNOQTHJIJ8PUJWI0,4,3
134,2,object_07,object_03,990.0,4,1,344.69999999925,1.0,2,object_08,5,1501,0,6,9,forest_1,2,memory-2step-stake-s,644,2729625,0.0-19.0-0.1-0.134,A3RHJEMZ4EGY2U,382GHPVPIV7ASJXQ3FB9V025S7G34H,34BBWHLWHER4D7WNOQTHJIJ8PUJWI0,4,3
135,1,object_01,object_05,1164.3000000007,2,2,486.89999999851,0.8888888888888888,2,object_08,1,1509,0,5,8,desert_5,2,memory-2step-stake-s,645,2738207,0.0-19.0-0.1-0.135,A3RHJEMZ4EGY2U,382GHPVPIV7ASJXQ3FB9V025S7G34H,34BBWHLWHER4D7WNOQTHJIJ8PUJWI0,1,2
136,2,object_03,object_07,684.60000000149,3,1,520.5,0.1111111111111111,1,object_04,5,1514,0,1,9,forest_3,2,memory-2step-stake-s,646,2746119,0.0-19.0-0.1-0.136,A3RHJEMZ4EGY2U,382GHPVPIV7ASJXQ3FB9V025S7G34H,34BBWHLWHER4D7WNOQTHJIJ8PUJWI0,3,4
137,3,object_06,object_10,960.0,6,1,486.39999999851,0.7777777777777778,2,object_08,1,1521,0,0,7,library_7,2,memory-2step-stake-s,647,2754627,0.0-19.0-0.1-0.137,A3RHJEMZ4EGY2U,382GHPVPIV7ASJXQ3FB9V025S7G34H,34BBWHLWHER4D7WNOQTHJIJ8PUJWI0,6,5
138,4,object_09,object_02,903.29999999702,8,2,314.5,0.7777777777777778,2,object_08,1,1528,0,0,7,restaurant_8,2,memory-2step-stake-s,648,2762906,0.0-19.0-0.1-0.138,A3RHJEMZ4EGY2U,382GHPVPIV7ASJXQ3FB9V025S7G34H,34BBWHLWHER4D7WNOQTHJIJ8PUJWI0,7,8
139,1,object_01,object_05,893.60000000149,2,2,420.10000000149,0.7777777777777778,2,object_08,5,1563,0,3,7,desert_7,2,memory-2step-stake-s,649,2771346,0.0-19.0-0.1-0.139,A3RHJEMZ4EGY2U,382GHPVPIV7ASJXQ3FB9V025S7G34H,34BBWHLWHER4D7WNOQTHJIJ8PUJWI0,1,2
140,1,object_05,object_01,1094.0,2,1,440.90000000224,0.5555555555555556,2,object_08,1,1568,0,1,5,desert_6,2,memory-2step-stake-s,650,2779555,0.0-19.0-0.1-0.140,A3RHJEMZ4EGY2U,382GHPVPIV7ASJXQ3FB9V025S7G34H,34BBWHLWHER4D7WNOQTHJIJ8PUJWI0,2,1
141,4,object_09,object_02,993.89999999851,8,2,372.5,0.6666666666666666,2,object_08,5,1598,0,1,6,restaurant_1,2,memory-2step-stake-s,651,2787829,0.0-19.0-0.1-0.141,A3RHJEMZ4EGY2U,382GHPVPIV7ASJXQ3FB9V025S7G34H,34BBWHLWHER4D7WNOQTHJIJ8PUJWI0,7,8
142,1,object_05,object_01,931.60000000149,2,1,418.40000000224,0.7777777777777778,2,object_08,5,1633,0,3,7,desert_3,2,memory-2step-stake-s,652,2796245,0.0-19.0-0.1-0.142,A3RHJEMZ4EGY2U,382GHPVPIV7ASJXQ3FB9V025S7G34H,34BBWHLWHER4D7WNOQTHJIJ8PUJWI0,2,1
143,1,object_01,object_05,682.20000000298,2,2,379.40000000224,0.5555555555555556,2,object_08,1,1638,0,0,5,desert_7,2,memory-2step-stake-s,653,2804414,0.0-19.0-0.1-0.143,A3RHJEMZ4EGY2U,382GHPVPIV7ASJXQ3FB9V025S7G34H,34BBWHLWHER4D7WNOQTHJIJ8PUJWI0,1,2
144,1,object_05,object_01,529.19999999925,2,1,282.5,0.8888888888888888,2,object_08,5,1678,0,2,8,desert_7,2,memory-2step-stake-s,654,2812797,0.0-19.0-0.1-0.144,A3RHJEMZ4EGY2U,382GHPVPIV7ASJXQ3FB9V025S7G34H,34BBWHLWHER4D7WNOQTHJIJ8PUJWI0,2,1
145,3,object_10,object_06,985.19999999925,6,2,352.60000000149,0.6666666666666666,2,object_08,1,1684,0,1,6,library_3,2,memory-2step-stake-s,655,2821066,0.0-19.0-0.1-0.145,A3RHJEMZ4EGY2U,382GHPVPIV7ASJXQ3FB9V025S7G34H,34BBWHLWHER4D7WNOQTHJIJ8PUJWI0,5,6
146,4,object_02,object_09,598.39999999851,7,2,391.09999999776,0.2222222222222222,1,object_04,1,1686,0,2,8,restaurant_6,2,memory-2step-stake-s,656,2828943,0.0-19.0-0.1-0.146,A3RHJEMZ4EGY2U,382GHPVPIV7ASJXQ3FB9V025S7G34H,34BBWHLWHER4D7WNOQTHJIJ8PUJWI0,8,7
147,4,object_09,object_02,1081.3000000007,8,2,359.80000000075,0.5555555555555556,2,object_08,1,1691,0,0,5,restaurant_8,2,memory-2step-stake-s,657,2837089,0.0-19.0-0.1-0.147,A3RHJEMZ4EGY2U,382GHPVPIV7ASJXQ3FB9V025S7G34H,34BBWHLWHER4D7WNOQTHJIJ8PUJWI0,7,8
148,3,object_10,object_06,908.19999999925,6,2,361.90000000224,0.5555555555555556,2,object_08,1,1696,0,2,5,library_3,2,memory-2step-stake-s,658,2845262,0.0-19.0-0.1-0.148,A3RHJEMZ4EGY2U,382GHPVPIV7ASJXQ3FB9V025S7G34H,34BBWHLWHER4D7WNOQTHJIJ8PUJWI0,5,6
149,1,object_01,object_05,878.30000000075,2,2,408.5,0.5555555555555556,2,object_08,5,1721,0,1,5,desert_7,2,memory-2step-stake-s,659,2853497,0.0-19.0-0.1-0.149,A3RHJEMZ4EGY2U,382GHPVPIV7ASJXQ3FB9V025S7G34H,34BBWHLWHER4D7WNOQTHJIJ8PUJWI0,1,2
150,1,object_01,object_05,661.10000000149,2,2,578.19999999925,0.7777777777777778,2,object_08,5,1756,0,1,7,desert_6,2,memory-2step-stake-s,660,2862091,0.0-19.0-0.1-0.150,A3RHJEMZ4EGY2U,382GHPVPIV7ASJXQ3FB9V025S7G34H,34BBWHLWHER4D7WNOQTHJIJ8PUJWI0,1,2
151,1,object_01,object_05,666.0,2,2,458.10000000149,0.8888888888888888,2,object_08,5,1796,0,1,8,desert_3,2,memory-2step-stake-s,661,2870661,0.0-19.0-0.1-0.151,A3RHJEMZ4EGY2U,382GHPVPIV7ASJXQ3FB9V025S7G34H,34BBWHLWHER4D7WNOQTHJIJ8PUJWI0,1,2
152,4,object_02,object_09,689.80000000075,8,1,391.5,0.7777777777777778,2,object_08,1,1803,0,2,7,restaurant_8,2,memory-2step-stake-s,662,2879081,0.0-19.0-0.1-0.152,A3RHJEMZ4EGY2U,382GHPVPIV7ASJXQ3FB9V025S7G34H,34BBWHLWHER4D7WNOQTHJIJ8PUJWI0,8,7
153,1,object_01,object_05,439.69999999925,2,2,433.0,0.6666666666666666,2,object_08,5,1833,0,2,6,desert_5,2,memory-2step-stake-s,663,2887393,0.0-19.0-0.1-0.153,A3RHJEMZ4EGY2U,382GHPVPIV7ASJXQ3FB9V025S7G34H,34BBWHLWHER4D7WNOQTHJIJ8PUJWI0,1,2
154,4,object_02,object_09,738.5,8,1,386.19999999925,0.7777777777777778,2,object_08,1,1840,0,1,7,restaurant_2,2,memory-2step-stake-s,664,2895780,0.0-19.0-0.1-0.154,A3RHJEMZ4EGY2U,382GHPVPIV7ASJXQ3FB9V025S7G34H,34BBWHLWHER4D7WNOQTHJIJ8PUJWI0,8,7
155,4,object_02,object_09,556.69999999925,8,1,456.60000000149,0.6666666666666666,2,object_08,1,1846,0,2,6,restaurant_6,2,memory-2step-stake-s,665,2904139,0.0-19.0-0.1-0.155,A3RHJEMZ4EGY2U,382GHPVPIV7ASJXQ3FB9V025S7G34H,34BBWHLWHER4D7WNOQTHJIJ8PUJWI0,8,7
156,4,object_02,object_09,502.19999999925,8,1,417.10000000149,0.6666666666666666,2,object_08,1,1852,0,0,6,restaurant_8,2,memory-2step-stake-s,666,2912471,0.0-19.0-0.1-0.156,A3RHJEMZ4EGY2U,382GHPVPIV7ASJXQ3FB9V025S7G34H,34BBWHLWHER4D7WNOQTHJIJ8PUJWI0,8,7
157,2,object_07,object_03,978.69999999925,3,2,641.39999999851,0.2222222222222222,1,object_04,1,1854,0,2,5,forest_1,2,memory-2step-stake-s,667,2920607,0.0-19.0-0.1-0.157,A3RHJEMZ4EGY2U,382GHPVPIV7ASJXQ3FB9V025S7G34H,34BBWHLWHER4D7WNOQTHJIJ8PUJWI0,4,3
158,3,object_06,object_10,720.30000000075,6,1,371.19999999925,0.5555555555555556,2,object_08,5,1879,0,2,5,library_5,2,memory-2step-stake-s,668,2928773,0.0-19.0-0.1-0.158,A3RHJEMZ4EGY2U,382GHPVPIV7ASJXQ3FB9V025S7G34H,34BBWHLWHER4D7WNOQTHJIJ8PUJWI0,6,5
159,4,object_09,object_02,828.5,8,2,368.90000000224,0.6666666666666666,2,object_08,1,1885,0,3,6,restaurant_8,2,memory-2step-stake-s,669,2937033,0.0-19.0-0.1-0.159,A3RHJEMZ4EGY2U,382GHPVPIV7ASJXQ3FB9V025S7G34H,34BBWHLWHER4D7WNOQTHJIJ8PUJWI0,7,8
160,3,object_10,object_06,865.89999999851,6,2,470.80000000075,1.0,2,object_08,1,1894,0,3,9,library_6,2,memory-2step-stake-s,670,2945714,0.0-19.0-0.1-0.160,A3RHJEMZ4EGY2U,382GHPVPIV7ASJXQ3FB9V025S7G34H,34BBWHLWHER4D7WNOQTHJIJ8PUJWI0,5,6
161,3,object_10,object_06,724.80000000075,6,2,582.39999999851,0.6666666666666666,2,object_08,1,1900,0,2,6,library_7,2,memory-2step-stake-s,671,2954192,0.0-19.0-0.1-0.161,A3RHJEMZ4EGY2U,382GHPVPIV7ASJXQ3FB9V025S7G34H,34BBWHLWHER4D7WNOQTHJIJ8PUJWI0,5,6
162,2,object_03,object_07,1415.5999999978,4,2,621.10000000149,0.7777777777777778,2,object_08,1,1907,0,1,7,forest_3,2,memory-2step-stake-s,672,2962819,0.0-19.0-0.1-0.162,A3RHJEMZ4EGY2U,382GHPVPIV7ASJXQ3FB9V025S7G34H,34BBWHLWHER4D7WNOQTHJIJ8PUJWI0,3,4
163,2,object_03,object_07,824.60000000149,4,2,376.90000000224,0.6666666666666666,2,object_08,5,1937,0,3,6,forest_2,2,memory-2step-stake-s,673,2971118,0.0-19.0-0.1-0.163,A3RHJEMZ4EGY2U,382GHPVPIV7ASJXQ3FB9V025S7G34H,34BBWHLWHER4D7WNOQTHJIJ8PUJWI0,3,4
164,2,object_07,object_03,567.19999999925,4,1,360.60000000149,0.5555555555555556,2,object_08,5,1962,0,2,5,forest_3,2,memory-2step-stake-s,674,2979265,0.0-19.0-0.1-0.164,A3RHJEMZ4EGY2U,382GHPVPIV7ASJXQ3FB9V025S7G34H,34BBWHLWHER4D7WNOQTHJIJ8PUJWI0,4,3
165,2,object_03,object_07,876.10000000149,4,2,387.69999999925,0.6666666666666666,2,object_08,1,1968,0,2,6,forest_3,2,memory-2step-stake-s,675,2987556,0.0-19.0-0.1-0.165,A3RHJEMZ4EGY2U,382GHPVPIV7ASJXQ3FB9V025S7G34H,34BBWHLWHER4D7WNOQTHJIJ8PUJWI0,3,4
166,2,object_07,object_03,618.5,4,1,388.19999999925,0.8888888888888888,2,object_08,5,2008,0,2,8,forest_3,2,memory-2step-stake-s,676,2996067,0.0-19.0-0.1-0.166,A3RHJEMZ4EGY2U,382GHPVPIV7ASJXQ3FB9V025S7G34H,34BBWHLWHER4D7WNOQTHJIJ8PUJWI0,4,3
167,3,object_10,object_06,973.30000000075,6,2,400.0,1.0,2,object_08,1,2017,0,3,9,library_5,2,memory-2step-stake-s,677,3004672,0.0-19.0-0.1-0.167,A3RHJEMZ4EGY2U,382GHPVPIV7ASJXQ3FB9V025S7G34H,34BBWHLWHER4D7WNOQTHJIJ8PUJWI0,5,6
168,2,object_03,object_07,749.0,4,2,413.5,1.0,2,object_08,5,2062,0,3,9,forest_3,2,memory-2step-stake-s,678,3013307,0.0-19.0-0.1-0.168,A3RHJEMZ4EGY2U,382GHPVPIV7ASJXQ3FB9V025S7G34H,34BBWHLWHER4D7WNOQTHJIJ8PUJWI0,3,4
169,3,object_10,object_06,832.19999999925,6,2,397.89999999851,0.8888888888888888,2,object_08,1,2070,0,1,8,library_5,2,memory-2step-stake-s,679,3021820,0.0-19.0-0.1-0.169,A3RHJEMZ4EGY2U,382GHPVPIV7ASJXQ3FB9V025S7G34H,34BBWHLWHER4D7WNOQTHJIJ8PUJWI0,5,6
170,4,object_02,object_09,493.90000000224,8,1,463.19999999925,0.8888888888888888,2,object_08,5,2110,0,1,8,restaurant_2,2,memory-2step-stake-s,680,3030408,0.0-19.0-0.1-0.170,A3RHJEMZ4EGY2U,382GHPVPIV7ASJXQ3FB9V025S7G34H,34BBWHLWHER4D7WNOQTHJIJ8PUJWI0,8,7
171,3,object_10,object_06,826.19999999925,6,2,404.69999999925,0.6666666666666666,2,object_08,1,2116,0,2,6,library_6,2,memory-2step-stake-s,681,3038720,0.0-19.0-0.1-0.171,A3RHJEMZ4EGY2U,382GHPVPIV7ASJXQ3FB9V025S7G34H,34BBWHLWHER4D7WNOQTHJIJ8PUJWI0,5,6
172,2,object_07,object_03,588.60000000149,4,1,416.20000000298,0.6666666666666666,2,object_08,5,2146,0,1,6,forest_7,2,memory-2step-stake-s,682,3047088,0.0-19.0-0.1-0.172,A3RHJEMZ4EGY2U,382GHPVPIV7ASJXQ3FB9V025S7G34H,34BBWHLWHER4D7WNOQTHJIJ8PUJWI0,4,3
173,3,object_10,object_06,863.69999999925,6,2,594.19999999925,0.8888888888888888,2,object_08,1,2154,0,1,8,library_5,2,memory-2step-stake-s,683,3055807,0.0-19.0-0.1-0.173,A3RHJEMZ4EGY2U,382GHPVPIV7ASJXQ3FB9V025S7G34H,34BBWHLWHER4D7WNOQTHJIJ8PUJWI0,5,6
174,4,object_02,object_09,732.69999999925,8,1,526.69999999925,0.8888888888888888,2,object_08,1,2162,0,3,8,restaurant_1,2,memory-2step-stake-s,684,3064415,0.0-19.0-0.1-0.174,A3RHJEMZ4EGY2U,382GHPVPIV7ASJXQ3FB9V025S7G34H,34BBWHLWHER4D7WNOQTHJIJ8PUJWI0,8,7
175,4,object_09,object_02,773.39999999851,8,2,419.39999999851,0.5555555555555556,2,object_08,5,2187,0,1,5,restaurant_1,2,memory-2step-stake-s,685,3072639,0.0-19.0-0.1-0.175,A3RHJEMZ4EGY2U,382GHPVPIV7ASJXQ3FB9V025S7G34H,34BBWHLWHER4D7WNOQTHJIJ8PUJWI0,7,8
176,3,object_06,object_10,1004.9000000022,6,1,404.80000000075,0.6666666666666666,2,object_08,1,2193,0,1,6,library_6,2,memory-2step-stake-s,686,3080946,0.0-19.0-0.1-0.176,A3RHJEMZ4EGY2U,382GHPVPIV7ASJXQ3FB9V025S7G34H,34BBWHLWHER4D7WNOQTHJIJ8PUJWI0,6,5
177,4,object_09,object_02,671.5,8,2,310.59999999776,0.1111111111111111,2,object_08,1,2194,0,3,1,restaurant_1,2,memory-2step-stake-s,687,3088602,0.0-19.0-0.1-0.177,A3RHJEMZ4EGY2U,382GHPVPIV7ASJXQ3FB9V025S7G34H,34BBWHLWHER4D7WNOQTHJIJ8PUJWI0,7,8
178,4,object_09,object_02,888.70000000298,7,1,401.30000000075,0.0,1,object_04,1,2194,0,0,0,restaurant_2,2,memory-2step-stake-s,688,3096276,0.0-19.0-0.1-0.178,A3RHJEMZ4EGY2U,382GHPVPIV7ASJXQ3FB9V025S7G34H,34BBWHLWHER4D7WNOQTHJIJ8PUJWI0,7,8
179,3,object_06,object_10,948.19999999925,6,1,513.09999999776,0.2222222222222222,2,object_08,1,2196,0,2,2,library_5,2,memory-2step-stake-s,689,3104261,0.0-19.0-0.1-0.179,A3RHJEMZ4EGY2U,382GHPVPIV7ASJXQ3FB9V025S7G34H,34BBWHLWHER4D7WNOQTHJIJ8PUJWI0,6,5
180,3,object_10,object_06,1134.3000000007,6,2,262.19999999925,0.1111111111111111,2,object_08,1,2197,0,2,1,library_7,2,memory-2step-stake-s,690,3111878,0.0-19.0-0.1-0.180,A3RHJEMZ4EGY2U,382GHPVPIV7ASJXQ3FB9V025S7G34H,34BBWHLWHER4D7WNOQTHJIJ8PUJWI0,5,6
181,4,object_02,object_09,920.30000000075,8,1,348.30000000075,0.1111111111111111,2,object_08,1,2198,0,3,1,restaurant_2,2,memory-2step-stake-s,691,3119611,0.0-19.0-0.1-0.181,A3RHJEMZ4EGY2U,382GHPVPIV7ASJXQ3FB9V025S7G34H,34BBWHLWHER4D7WNOQTHJIJ8PUJWI0,8,7
182,2,object_07,object_03,1242.6000000015,3,2,137.39999999851,0.4444444444444444,1,object_04,5,2218,0,4,4,forest_7,2,memory-2step-stake-s,692,3127442,0.0-19.0-0.1-0.182,A3RHJEMZ4EGY2U,382GHPVPIV7ASJXQ3FB9V025S7G34H,34BBWHLWHER4D7WNOQTHJIJ8PUJWI0,4,3
183,3,object_06,object_10,743.29999999702,5,2,50.0,0.1111111111111111,1,object_04,1,2219,0,1,0,library_6,2,memory-2step-stake-s,693,3134859,0.0-19.0-0.1-0.183,A3RHJEMZ4EGY2U,382GHPVPIV7ASJXQ3FB9V025S7G34H,34BBWHLWHER4D7WNOQTHJIJ8PUJWI0,6,5
184,2,object_07,object_03,739.0,3,2,458.89999999851,0.2222222222222222,1,object_04,5,2229,0,2,2,forest_7,2,memory-2step-stake-s,694,3142789,0.0-19.0-0.1-0.184,A3RHJEMZ4EGY2U,382GHPVPIV7ASJXQ3FB9V025S7G34H,34BBWHLWHER4D7WNOQTHJIJ8PUJWI0,4,3
185,1,object_01,object_05,1100.3000000007,2,2,364.39999999851,0.2222222222222222,2,object_08,1,2231,0,2,2,desert_6,2,memory-2step-stake-s,695,3150680,0.0-19.0-0.1-0.185,A3RHJEMZ4EGY2U,382GHPVPIV7ASJXQ3FB9V025S7G34H,34BBWHLWHER4D7WNOQTHJIJ8PUJWI0,1,2
186,1,object_05,object_01,317.09999999776,1,2,398.69999999925,0.2222222222222222,1,object_04,5,2241,0,2,3,desert_6,2,memory-2step-stake-s,696,3158534,0.0-19.0-0.1-0.186,A3RHJEMZ4EGY2U,382GHPVPIV7ASJXQ3FB9V025S7G34H,34BBWHLWHER4D7WNOQTHJIJ8PUJWI0,2,1
187,2,object_07,object_03,1069.0,4,1,476.10000000149,0.2222222222222222,2,object_08,5,2251,0,3,2,forest_1,2,memory-2step-stake-s,697,3166491,0.0-19.0-0.1-0.187,A3RHJEMZ4EGY2U,382GHPVPIV7ASJXQ3FB9V025S7G34H,34BBWHLWHER4D7WNOQTHJIJ8PUJWI0,4,3
188,4,object_09,object_02,546.5,8,2,350.70000000298,0.2222222222222222,2,object_08,1,2253,0,4,2,restaurant_6,2,memory-2step-stake-s,698,3174314,0.0-19.0-0.1-0.188,A3RHJEMZ4EGY2U,382GHPVPIV7ASJXQ3FB9V025S7G34H,34BBWHLWHER4D7WNOQTHJIJ8PUJWI0,7,8
189,2,object_07,object_03,446.69999999925,3,2,354.80000000075,0.5555555555555556,1,object_04,5,2278,0,5,3,forest_7,2,memory-2step-stake-s,699,3182434,0.0-19.0-0.1-0.189,A3RHJEMZ4EGY2U,382GHPVPIV7ASJXQ3FB9V025S7G34H,34BBWHLWHER4D7WNOQTHJIJ8PUJWI0,4,3
190,4,object_02,object_09,565.10000000149,7,2,330.80000000075,0.6666666666666666,1,object_04,1,2284,0,6,3,restaurant_1,2,memory-2step-stake-s,700,3190641,0.0-19.0-0.1-0.190,A3RHJEMZ4EGY2U,382GHPVPIV7ASJXQ3FB9V025S7G34H,34BBWHLWHER4D7WNOQTHJIJ8PUJWI0,8,7
191,4,object_09,object_02,969.80000000075,7,1,261.0,0.5555555555555556,1,object_04,1,2289,0,5,3,restaurant_8,2,memory-2step-stake-s,701,3198668,0.0-19.0-0.1-0.191,A3RHJEMZ4EGY2U,382GHPVPIV7ASJXQ3FB9V025S7G34H,34BBWHLWHER4D7WNOQTHJIJ8PUJWI0,7,8
192,4,object_02,object_09,817.0,7,2,580.5,0.7777777777777778,1,object_04,1,2296,0,7,5,restaurant_6,2,memory-2step-stake-s,702,3207224,0.0-19.0-0.1-0.192,A3RHJEMZ4EGY2U,382GHPVPIV7ASJXQ3FB9V025S7G34H,34BBWHLWHER4D7WNOQTHJIJ8PUJWI0,8,7
193,2,object_03,object_07,1059.5999999978,3,1,424.90000000224,0.8888888888888888,1,object_04,5,2336,0,8,3,forest_3,2,memory-2step-stake-s,703,3215783,0.0-19.0-0.1-0.193,A3RHJEMZ4EGY2U,382GHPVPIV7ASJXQ3FB9V025S7G34H,34BBWHLWHER4D7WNOQTHJIJ8PUJWI0,3,4
194,3,object_06,object_10,1250.3999999985,5,2,402.59999999776,1.0,1,object_04,1,2345,0,9,5,library_5,2,memory-2step-stake-s,704,3224432,0.0-19.0-0.1-0.194,A3RHJEMZ4EGY2U,382GHPVPIV7ASJXQ3FB9V025S7G34H,34BBWHLWHER4D7WNOQTHJIJ8PUJWI0,6,5
195,4,object_02,object_09,777.30000000075,7,2,462.90000000224,1.0,1,object_04,1,2354,0,9,6,restaurant_1,2,memory-2step-stake-s,705,3233087,0.0-19.0-0.1-0.195,A3RHJEMZ4EGY2U,382GHPVPIV7ASJXQ3FB9V025S7G34H,34BBWHLWHER4D7WNOQTHJIJ8PUJWI0,8,7
196,3,object_06,object_10,1203.0,5,2,1223.4000000022,0.7777777777777778,1,object_04,5,2389,0,7,5,library_3,2,memory-2step-stake-s,706,3242326,0.0-19.0-0.1-0.196,A3RHJEMZ4EGY2U,382GHPVPIV7ASJXQ3FB9V025S7G34H,34BBWHLWHER4D7WNOQTHJIJ8PUJWI0,6,5
197,2,object_03,object_07,933.0,3,1,545.80000000075,0.5555555555555556,1,object_04,5,2414,0,5,9,forest_2,2,memory-2step-stake-s,707,3250669,0.0-19.0-0.1-0.197,A3RHJEMZ4EGY2U,382GHPVPIV7ASJXQ3FB9V025S7G34H,34BBWHLWHER4D7WNOQTHJIJ8PUJWI0,3,4
198,1,object_05,object_01,895.29999999702,1,2,398.30000000075,0.7777777777777778,1,object_04,5,2449,0,7,7,desert_6,2,memory-2step-stake-s,708,3259061,0.0-19.0-0.1-0.198,A3RHJEMZ4EGY2U,382GHPVPIV7ASJXQ3FB9V025S7G34H,34BBWHLWHER4D7WNOQTHJIJ8PUJWI0,2,1
199,1,object_01,object_05,742.69999999925,1,1,489.80000000075,0.8888888888888888,1,object_04,5,2489,0,8,6,desert_7,2,memory-2step-stake-s,709,3267651,0.0-19.0-0.1-0.199,A3RHJEMZ4EGY2U,382GHPVPIV7ASJXQ3FB9V025S7G34H,34BBWHLWHER4D7WNOQTHJIJ8PUJWI0,1,2
200,2,object_07,object_03,737.69999999925,3,2,268.19999999925,0.8888888888888888,1,object_04,5,2529,0,8,4,forest_7,2,memory-2step-stake-s,710,3276070,0.0-19.0-0.1-0.200,A3RHJEMZ4EGY2U,382GHPVPIV7ASJXQ3FB9V025S7G34H,34BBWHLWHER4D7WNOQTHJIJ8PUJWI0,4,3
201,3,object_06,object_10,865.69999999925,5,2,89.5,0.8888888888888888,1,object_04,1,2537,0,8,3,library_5,2,memory-2step-stake-s,711,3284253,0.0-19.0-0.1-0.201,A3RHJEMZ4EGY2U,382GHPVPIV7ASJXQ3FB9V025S7G34H,34BBWHLWHER4D7WNOQTHJIJ8PUJWI0,6,5
202,3,object_10,object_06,662.19999999925,5,1,510.5,0.7777777777777778,1,object_04,1,2544,0,7,1,library_6,2,memory-2step-stake-s,712,3292744,0.0-19.0-0.1-0.202,A3RHJEMZ4EGY2U,382GHPVPIV7ASJXQ3FB9V025S7G34H,34BBWHLWHER4D7WNOQTHJIJ8PUJWI0,5,6
203,2,object_03,object_07,906.19999999925,3,1,493.69999999925,0.8888888888888888,1,object_04,5,2584,0,8,1,forest_3,2,memory-2step-stake-s,713,3301337,0.0-19.0-0.1-0.203,A3RHJEMZ4EGY2U,382GHPVPIV7ASJXQ3FB9V025S7G34H,34BBWHLWHER4D7WNOQTHJIJ8PUJWI0,3,4
204,4,object_09,object_02,1240.8999999985,7,1,624.0,0.7777777777777778,1,object_04,1,2591,0,7,2,restaurant_6,2,memory-2step-stake-s,714,3309964,0.0-19.0-0.1-0.204,A3RHJEMZ4EGY2U,382GHPVPIV7ASJXQ3FB9V025S7G34H,34BBWHLWHER4D7WNOQTHJIJ8PUJWI0,7,8
205,4,object_02,object_09,746.30000000075,7,2,420.69999999925,0.4444444444444444,1,object_04,1,2595,0,4,4,restaurant_6,2,memory-2step-stake-s,715,3318087,0.0-19.0-0.1-0.205,A3RHJEMZ4EGY2U,382GHPVPIV7ASJXQ3FB9V025S7G34H,34BBWHLWHER4D7WNOQTHJIJ8PUJWI0,8,7
206,4,object_09,object_02,810.89999999851,7,1,549.19999999925,0.6666666666666666,1,object_04,1,2601,0,6,4,restaurant_1,2,memory-2step-stake-s,716,3326538,0.0-19.0-0.1-0.206,A3RHJEMZ4EGY2U,382GHPVPIV7ASJXQ3FB9V025S7G34H,34BBWHLWHER4D7WNOQTHJIJ8PUJWI0,7,8
207,4,object_02,object_09,639.5,7,2,693.39999999851,1.0,1,object_04,1,2610,0,9,8,restaurant_8,2,memory-2step-stake-s,717,3335460,0.0-19.0-0.1-0.207,A3RHJEMZ4EGY2U,382GHPVPIV7ASJXQ3FB9V025S7G34H,34BBWHLWHER4D7WNOQTHJIJ8PUJWI0,8,7
208,3,object_06,object_10,908.80000000075,5,2,457.10000000149,1.0,1,object_04,1,2619,0,9,8,library_6,2,memory-2step-stake-s,718,3344152,0.0-19.0-0.1-0.208,A3RHJEMZ4EGY2U,382GHPVPIV7ASJXQ3FB9V025S7G34H,34BBWHLWHER4D7WNOQTHJIJ8PUJWI0,6,5
209,3,object_10,object_06,509.09999999776,5,1,558.39999999851,0.8888888888888888,1,object_04,5,2659,0,8,7,library_7,2,memory-2step-stake-s,719,3352811,0.0-19.0-0.1-0.209,A3RHJEMZ4EGY2U,382GHPVPIV7ASJXQ3FB9V025S7G34H,34BBWHLWHER4D7WNOQTHJIJ8PUJWI0,5,6
210,2,object_03,object_07,845.60000000149,3,1,446.60000000149,0.8888888888888888,1,object_04,5,2699,0,8,6,forest_2,2,memory-2step-stake-s,720,3361363,0.0-19.0-0.1-0.210,A3RHJEMZ4EGY2U,382GHPVPIV7ASJXQ3FB9V025S7G34H,34BBWHLWHER4D7WNOQTHJIJ8PUJWI0,3,4
211,1,object_01,object_05,921.69999999925,1,1,793.40000000224,0.6666666666666666,1,object_04,1,2705,0,6,3,desert_7,2,memory-2step-stake-s,721,3370062,0.0-19.0-0.1-0.211,A3RHJEMZ4EGY2U,382GHPVPIV7ASJXQ3FB9V025S7G34H,34BBWHLWHER4D7WNOQTHJIJ8PUJWI0,1,2
212,4,object_09,object_02,969.0,7,1,559.19999999925,0.6666666666666666,1,object_04,1,2711,0,6,2,restaurant_1,2,memory-2step-stake-s,722,3378540,0.0-19.0-0.1-0.212,A3RHJEMZ4EGY2U,382GHPVPIV7ASJXQ3FB9V025S7G34H,34BBWHLWHER4D7WNOQTHJIJ8PUJWI0,7,8
213,2,object_07,object_03,667.0,3,2,506.0,0.8888888888888888,1,object_04,1,2719,0,8,3,forest_7,2,memory-2step-stake-s,723,3387128,0.0-19.0-0.1-0.213,A3RHJEMZ4EGY2U,382GHPVPIV7ASJXQ3FB9V025S7G34H,34BBWHLWHER4D7WNOQTHJIJ8PUJWI0,4,3
214,3,object_10,object_06,844.59999999776,5,1,495.0,0.8888888888888888,1,object_04,1,2727,0,8,4,library_3,2,memory-2step-stake-s,724,3395761,0.0-19.0-0.1-0.214,A3RHJEMZ4EGY2U,382GHPVPIV7ASJXQ3FB9V025S7G34H,34BBWHLWHER4D7WNOQTHJIJ8PUJWI0,5,6
215,3,object_10,object_06,1167.1000000015,5,1,394.80000000075,0.6666666666666666,1,object_04,1,2733,0,6,6,library_5,2,memory-2step-stake-s,725,3404064,0.0-19.0-0.1-0.215,A3RHJEMZ4EGY2U,382GHPVPIV7ASJXQ3FB9V025S7G34H,34BBWHLWHER4D7WNOQTHJIJ8PUJWI0,5,6
216,1,object_05,object_01,863.40000000224,2,1,379.19999999925,0.2222222222222222,2,object_08,5,2743,0,9,2,desert_3,2,memory-2step-stake-s,726,3411917,0.0-19.0-0.1-0.216,A3RHJEMZ4EGY2U,382GHPVPIV7ASJXQ3FB9V025S7G34H,34BBWHLWHER4D7WNOQTHJIJ8PUJWI0,2,1
217,2,object_03,object_07,1105.3000000007,3,1,403.30000000075,0.7777777777777778,1,object_04,5,2778,0,7,1,forest_1,2,memory-2step-stake-s,727,3420324,0.0-19.0-0.1-0.217,A3RHJEMZ4EGY2U,382GHPVPIV7ASJXQ3FB9V025S7G34H,34BBWHLWHER4D7WNOQTHJIJ8PUJWI0,3,4
218,4,object_09,object_02,1131.8000000007,7,1,460.59999999776,0.7777777777777778,1,object_04,1,2785,0,7,4,restaurant_1,2,memory-2step-stake-s,728,3428764,0.0-19.0-0.1-0.218,A3RHJEMZ4EGY2U,382GHPVPIV7ASJXQ3FB9V025S7G34H,34BBWHLWHER4D7WNOQTHJIJ8PUJWI0,7,8
219,3,object_10,object_06,679.59999999776,5,1,679.30000000075,0.6666666666666666,1,object_04,5,2815,0,6,5,library_3,2,memory-2step-stake-s,729,3437326,0.0-19.0-0.1-0.219,A3RHJEMZ4EGY2U,382GHPVPIV7ASJXQ3FB9V025S7G34H,34BBWHLWHER4D7WNOQTHJIJ8PUJWI0,5,6
220,1,object_01,object_05,896.09999999776,1,1,689.89999999851,0.3333333333333333,1,object_04,5,2830,0,3,6,desert_6,2,memory-2step-stake-s,730,3445568,0.0-19.0-0.1-0.220,A3RHJEMZ4EGY2U,382GHPVPIV7ASJXQ3FB9V025S7G34H,34BBWHLWHER4D7WNOQTHJIJ8PUJWI0,1,2
221,4,object_09,object_02,784.10000000149,7,1,541.39999999851,0.4444444444444444,1,object_04,5,2850,0,4,6,restaurant_8,2,memory-2step-stake-s,731,3453833,0.0-19.0-0.1-0.221,A3RHJEMZ4EGY2U,382GHPVPIV7ASJXQ3FB9V025S7G34H,34BBWHLWHER4D7WNOQTHJIJ8PUJWI0,7,8
222,1,object_05,object_01,684.5,1,2,412.90000000224,0.7777777777777778,1,object_04,5,2885,0,7,5,desert_7,2,memory-2step-stake-s,732,3462233,0.0-19.0-0.1-0.222,A3RHJEMZ4EGY2U,382GHPVPIV7ASJXQ3FB9V025S7G34H,34BBWHLWHER4D7WNOQTHJIJ8PUJWI0,2,1
223,4,object_02,object_09,731.5,7,2,569.5,0.7777777777777778,1,object_04,1,2892,0,7,4,restaurant_1,2,memory-2step-stake-s,733,3470806,0.0-19.0-0.1-0.223,A3RHJEMZ4EGY2U,382GHPVPIV7ASJXQ3FB9V025S7G34H,34BBWHLWHER4D7WNOQTHJIJ8PUJWI0,8,7
224,4,object_02,object_09,567.89999999851,7,2,560.10000000149,0.8888888888888888,1,object_04,1,2900,0,8,4,restaurant_8,2,memory-2step-stake-s,734,3479495,0.0-19.0-0.1-0.224,A3RHJEMZ4EGY2U,382GHPVPIV7ASJXQ3FB9V025S7G34H,34BBWHLWHER4D7WNOQTHJIJ8PUJWI0,8,7
225,1,object_05,object_01,602.0,1,2,433.0,0.5555555555555556,1,object_04,5,2925,0,5,8,desert_3,2,memory-2step-stake-s,735,3487726,0.0-19.0-0.1-0.225,A3RHJEMZ4EGY2U,382GHPVPIV7ASJXQ3FB9V025S7G34H,34BBWHLWHER4D7WNOQTHJIJ8PUJWI0,2,1
226,4,object_09,object_02,805.19999999925,7,1,559.80000000075,0.3333333333333333,1,object_04,1,2928,0,3,9,restaurant_2,2,memory-2step-stake-s,736,3495876,0.0-19.0-0.1-0.226,A3RHJEMZ4EGY2U,382GHPVPIV7ASJXQ3FB9V025S7G34H,34BBWHLWHER4D7WNOQTHJIJ8PUJWI0,7,8
227,3,object_06,object_10,1016.8999999985,5,2,443.69999999925,0.2222222222222222,1,object_04,1,2930,0,2,8,library_7,2,memory-2step-stake-s,737,3503794,0.0-19.0-0.1-0.227,A3RHJEMZ4EGY2U,382GHPVPIV7ASJXQ3FB9V025S7G34H,34BBWHLWHER4D7WNOQTHJIJ8PUJWI0,6,5
228,4,object_09,object_02,1002.8999999985,7,1,500.39999999851,0.4444444444444444,1,object_04,1,2934,0,4,7,restaurant_6,2,memory-2step-stake-s,738,3511986,0.0-19.0-0.1-0.228,A3RHJEMZ4EGY2U,382GHPVPIV7ASJXQ3FB9V025S7G34H,34BBWHLWHER4D7WNOQTHJIJ8PUJWI0,7,8
229,3,object_10,object_06,651.39999999851,5,1,492.60000000149,0.4444444444444444,1,object_04,1,2938,0,4,5,library_3,2,memory-2step-stake-s,739,3520159,0.0-19.0-0.1-0.229,A3RHJEMZ4EGY2U,382GHPVPIV7ASJXQ3FB9V025S7G34H,34BBWHLWHER4D7WNOQTHJIJ8PUJWI0,5,6
230,2,object_03,object_07,1028.6000000015,3,1,532.10000000149,0.4444444444444444,1,object_04,5,2958,0,4,3,forest_2,2,memory-2step-stake-s,740,3528414,0.0-19.0-0.1-0.230,A3RHJEMZ4EGY2U,382GHPVPIV7ASJXQ3FB9V025S7G34H,34BBWHLWHER4D7WNOQTHJIJ8PUJWI0,3,4
231,2,object_03,object_07,602.19999999925,3,1,435.0,0.1111111111111111,1,object_04,5,2963,0,1,3,forest_1,2,memory-2step-stake-s,741,3536244,0.0-19.0-0.1-0.231,A3RHJEMZ4EGY2U,382GHPVPIV7ASJXQ3FB9V025S7G34H,34BBWHLWHER4D7WNOQTHJIJ8PUJWI0,3,4
232,3,object_10,object_06,588.89999999851,6,2,338.60000000149,0.1111111111111111,2,object_08,1,2964,0,1,1,library_3,2,memory-2step-stake-s,742,3543937,0.0-19.0-0.1-0.232,A3RHJEMZ4EGY2U,382GHPVPIV7ASJXQ3FB9V025S7G34H,34BBWHLWHER4D7WNOQTHJIJ8PUJWI0,5,6
233,2,object_07,object_03,1426.1000000015,3,2,464.19999999925,0.1111111111111111,1,object_04,1,2965,0,1,2,forest_1,2,memory-2step-stake-s,743,3551777,0.0-19.0-0.1-0.233,A3RHJEMZ4EGY2U,382GHPVPIV7ASJXQ3FB9V025S7G34H,34BBWHLWHER4D7WNOQTHJIJ8PUJWI0,4,3
234,4,object_02,object_09,438.30000000075,8,1,51.199999999255,0.3333333333333333,2,object_08,1,2968,0,1,3,restaurant_2,2,memory-2step-stake-s,744,3559405,0.0-19.0-0.1-0.234,A3RHJEMZ4EGY2U,382GHPVPIV7ASJXQ3FB9V025S7G34H,34BBWHLWHER4D7WNOQTHJIJ8PUJWI0,8,7
235,3,object_10,object_06,853.09999999776,6,2,479.10000000149,0.2222222222222222,2,object_08,1,2970,0,5,2,library_5,2,memory-2step-stake-s,745,3567386,0.0-19.0-0.1-0.235,A3RHJEMZ4EGY2U,382GHPVPIV7ASJXQ3FB9V025S7G34H,34BBWHLWHER4D7WNOQTHJIJ8PUJWI0,5,6
236,1,object_01,object_05,502.39999999851,1,1,276.60000000149,0.3333333333333333,1,object_04,5,2985,0,3,3,desert_6,2,memory-2step-stake-s,746,3575247,0.0-19.0-0.1-0.236,A3RHJEMZ4EGY2U,382GHPVPIV7ASJXQ3FB9V025S7G34H,34BBWHLWHER4D7WNOQTHJIJ8PUJWI0,1,2
237,3,object_10,object_06,750.89999999851,5,1,354.19999999925,0.1111111111111111,1,object_04,1,2986,0,1,2,library_7,2,memory-2step-stake-s,747,3582969,0.0-19.0-0.1-0.237,A3RHJEMZ4EGY2U,382GHPVPIV7ASJXQ3FB9V025S7G34H,34BBWHLWHER4D7WNOQTHJIJ8PUJWI0,5,6
238,3,object_10,object_06,655.10000000149,6,2,329.39999999851,0.2222222222222222,2,object_08,1,2988,0,4,2,library_3,2,memory-2step-stake-s,748,3590793,0.0-19.0-0.1-0.238,A3RHJEMZ4EGY2U,382GHPVPIV7ASJXQ3FB9V025S7G34H,34BBWHLWHER4D7WNOQTHJIJ8PUJWI0,5,6
239,2,object_07,object_03,1084.5,4,1,453.30000000075,0.0,2,object_08,5,2988,0,3,0,forest_2,2,memory-2step-stake-s,749,3598517,0.0-19.0-0.1-0.239,A3RHJEMZ4EGY2U,382GHPVPIV7ASJXQ3FB9V025S7G34H,34BBWHLWHER4D7WNOQTHJIJ8PUJWI0,4,3
240,3,object_10,object_06,722.69999999925,5,1,410.69999999925,0.2222222222222222,1,object_04,5,2998,0,2,2,library_7,2,memory-2step-stake-s,750,3606429,0.0-19.0-0.1-0.240,A3RHJEMZ4EGY2U,382GHPVPIV7ASJXQ3FB9V025S7G34H,34BBWHLWHER4D7WNOQTHJIJ8PUJWI0,5,6
241,2,object_03,object_07,697.39999999851,3,1,315.89999999851,0.3333333333333333,1,object_04,1,3001,0,3,1,forest_1,2,memory-2step-stake-s,751,3614341,0.0-19.0-0.1-0.241,A3RHJEMZ4EGY2U,382GHPVPIV7ASJXQ3FB9V025S7G34H,34BBWHLWHER4D7WNOQTHJIJ8PUJWI0,3,4
242,4,object_02,object_09,1084.0,7,2,493.80000000075,0.2222222222222222,1,object_04,1,3003,0,2,2,restaurant_8,2,memory-2step-stake-s,752,3622305,0.0-19.0-0.1-0.242,A3RHJEMZ4EGY2U,382GHPVPIV7ASJXQ3FB9V025S7G34H,34BBWHLWHER4D7WNOQTHJIJ8PUJWI0,8,7
243,1,object_01,object_05,738.79999999702,1,1,411.60000000149,0.0,1,object_04,5,3003,0,0,1,desert_3,2,memory-2step-stake-s,753,3629961,0.0-19.0-0.1-0.243,A3RHJEMZ4EGY2U,382GHPVPIV7ASJXQ3FB9V025S7G34H,34BBWHLWHER4D7WNOQTHJIJ8PUJWI0,1,2
244,1,object_01,object_05,743.19999999925,2,2,338.59999999776,0.2222222222222222,2,object_08,1,3005,0,3,2,desert_3,2,memory-2step-stake-s,754,3637784,0.0-19.0-0.1-0.244,A3RHJEMZ4EGY2U,382GHPVPIV7ASJXQ3FB9V025S7G34H,34BBWHLWHER4D7WNOQTHJIJ8PUJWI0,1,2
245,2,object_07,object_03,1160.0,4,1,217.29999999702,0.3333333333333333,2,object_08,5,3020,0,0,3,forest_1,2,memory-2step-stake-s,755,3645591,0.0-19.0-0.1-0.245,A3RHJEMZ4EGY2U,382GHPVPIV7ASJXQ3FB9V025S7G34H,34BBWHLWHER4D7WNOQTHJIJ8PUJWI0,4,3
246,4,object_09,object_02,723.69999999925,8,2,806.0,0.4444444444444444,2,object_08,1,3024,0,1,4,restaurant_6,2,memory-2step-stake-s,756,3654073,0.0-19.0-0.1-0.246,A3RHJEMZ4EGY2U,382GHPVPIV7ASJXQ3FB9V025S7G34H,34BBWHLWHER4D7WNOQTHJIJ8PUJWI0,7,8
247,3,object_06,object_10,801.80000000075,6,1,363.80000000075,0.6666666666666666,2,object_08,1,3030,0,3,6,library_3,2,memory-2step-stake-s,757,3662314,0.0-19.0-0.1-0.247,A3RHJEMZ4EGY2U,382GHPVPIV7ASJXQ3FB9V025S7G34H,34BBWHLWHER4D7WNOQTHJIJ8PUJWI0,6,5
248,1,object_05,object_01,658.0,2,1,1118.3000000007,0.7777777777777778,2,object_08,5,3065,0,2,7,desert_5,2,memory-2step-stake-s,758,3671451,0.0-19.0-0.1-0.248,A3RHJEMZ4EGY2U,382GHPVPIV7ASJXQ3FB9V025S7G34H,34BBWHLWHER4D7WNOQTHJIJ8PUJWI0,2,1
249,2,object_03,object_07,1052.299999997,4,2,442.5,0.5555555555555556,2,object_08,1,3070,0,1,5,forest_2,2,memory-2step-stake-s,759,3679696,0.0-19.0-0.1-0.249,A3RHJEMZ4EGY2U,382GHPVPIV7ASJXQ3FB9V025S7G34H,34BBWHLWHER4D7WNOQTHJIJ8PUJWI0,3,4
250,3,object_10,object_06,884.5,6,2,346.29999999702,0.4444444444444444,2,object_08,5,3090,0,4,4,library_6,2,memory-2step-stake-s,760,3687763,0.0-19.0-0.1-0.250,A3RHJEMZ4EGY2U,382GHPVPIV7ASJXQ3FB9V025S7G34H,34BBWHLWHER4D7WNOQTHJIJ8PUJWI0,5,6
251,2,object_07,object_03,790.70000000298,4,1,579.0,0.2222222222222222,2,object_08,5,3100,0,3,2,forest_7,2,memory-2step-stake-s,761,3695832,0.0-19.0-0.1-0.251,A3RHJEMZ4EGY2U,382GHPVPIV7ASJXQ3FB9V025S7G34H,34BBWHLWHER4D7WNOQTHJIJ8PUJWI0,4,3
252,2,object_03,object_07,1081.8999999985,4,2,397.30000000075,0.1111111111111111,2,object_08,5,3105,0,3,1,forest_2,2,memory-2step-stake-s,762,3703609,0.0-19.0-0.1-0.252,A3RHJEMZ4EGY2U,382GHPVPIV7ASJXQ3FB9V025S7G34H,34BBWHLWHER4D7WNOQTHJIJ8PUJWI0,3,4
253,3,object_10,object_06,1177.799999997,6,2,52.800000000745,0.1111111111111111,2,object_08,1,3106,0,6,1,library_6,2,memory-2step-stake-s,763,3711054,0.0-19.0-0.1-0.253,A3RHJEMZ4EGY2U,382GHPVPIV7ASJXQ3FB9V025S7G34H,34BBWHLWHER4D7WNOQTHJIJ8PUJWI0,5,6
254,4,object_02,object_09,787.30000000075,8,1,362.30000000075,0.1111111111111111,2,object_08,1,3107,0,5,1,restaurant_1,2,memory-2step-stake-s,764,3718810,0.0-19.0-0.1-0.254,A3RHJEMZ4EGY2U,382GHPVPIV7ASJXQ3FB9V025S7G34H,34BBWHLWHER4D7WNOQTHJIJ8PUJWI0,8,7
255,1,object_05,object_01,1001.8000000007,1,2,358.90000000224,0.6666666666666666,1,object_04,5,3137,0,6,4,desert_3,2,memory-2step-stake-s,765,3727101,0.0-19.0-0.1-0.255,A3RHJEMZ4EGY2U,382GHPVPIV7ASJXQ3FB9V025S7G34H,34BBWHLWHER4D7WNOQTHJIJ8PUJWI0,2,1
