,state1,stim_left,stim_right,rt_1,choice1,response1,rt_2,points,state2,stim_state2,stake,score,practice,rews1,rews2,background,high_arm,trial_type,trial_index,time_elapsed,internal_node_id,subid,hitid,assignmentid,stim_left_num,stim_right_num
0,2,object_07,object_09,581.39999999851,4,1,-1.0,0.0,2,object_05,5,0,0,1,3,forest_6,2,memory-2step-stake-s,488,763889,0.0-19.0-0.0-0.0,A11S8IAAVDXCUS,3B623HUYK76FV1575X2NKKQMM9B8SL,3A1COHJ8NNBTRBPLK5VQ5QF77AS8HV,4,3
1,2,object_09,object_07,526.70000000112,4,2,344.90000000037,0.5555555555555556,2,object_05,1,5,0,4,5,forest_1,2,memory-2step-stake-s,489,771977,0.0-19.0-0.0-0.1,A11S8IAAVDXCUS,3B623HUYK76FV1575X2NKKQMM9B8SL,3A1COHJ8NNBTRBPLK5VQ5QF77AS8HV,3,4
2,3,object_06,object_08,696.90000000037,6,2,369.79999999888,0.5555555555555556,2,object_05,1,10,0,1,5,library_6,2,memory-2step-stake-s,490,780080,0.0-19.0-0.0-0.2,A11S8IAAVDXCUS,3B623HUYK76FV1575X2NKKQMM9B8SL,3A1COHJ8NNBTRBPLK5VQ5QF77AS8HV,5,6
3,4,object_04,object_03,558.5,7,1,262.59999999963,0.2222222222222222,1,object_02,1,12,0,2,4,restaurant_5,2,memory-2step-stake-s,491,787768,0.0-19.0-0.0-0.3,A11S8IAAVDXCUS,3B623HUYK76FV1575X2NKKQMM9B8SL,3A1COHJ8NNBTRBPLK5VQ5QF77AS8HV,7,8
4,2,object_09,object_07,556.30000000075,4,2,720.70000000112,0.4444444444444444,2,object_05,5,32,0,4,4,forest_6,2,memory-2step-stake-s,492,796127,0.0-19.0-0.0-0.4,A11S8IAAVDXCUS,3B623HUYK76FV1575X2NKKQMM9B8SL,3A1COHJ8NNBTRBPLK5VQ5QF77AS8HV,3,4
5,3,object_06,object_08,1041.1999999993,6,2,1441.0,0.2222222222222222,2,object_05,1,34,0,5,2,library_4,2,memory-2step-stake-s,493,804993,0.0-19.0-0.0-0.5,A11S8IAAVDXCUS,3B623HUYK76FV1575X2NKKQMM9B8SL,3A1COHJ8NNBTRBPLK5VQ5QF77AS8HV,5,6
6,3,object_06,object_08,-1.0,-1,-1,-1.0,0.0,-,0,1,34,0,6,2,library_3,2,memory-2step-stake-s,494,811509,0.0-19.0-0.0-0.6,A11S8IAAVDXCUS,3B623HUYK76FV1575X2NKKQMM9B8SL,3A1COHJ8NNBTRBPLK5VQ5QF77AS8HV,5,6
7,3,object_06,object_08,661.30000000075,5,1,473.59999999963,0.7777777777777778,1,object_02,1,41,0,7,3,library_7,2,memory-2step-stake-s,495,819904,0.0-19.0-0.0-0.7,A11S8IAAVDXCUS,3B623HUYK76FV1575X2NKKQMM9B8SL,3A1COHJ8NNBTRBPLK5VQ5QF77AS8HV,5,6
8,3,object_06,object_08,453.69999999925,5,1,252.90000000037,0.4444444444444444,1,object_02,1,45,0,4,2,library_6,2,memory-2step-stake-s,496,827777,0.0-19.0-0.0-0.8,A11S8IAAVDXCUS,3B623HUYK76FV1575X2NKKQMM9B8SL,3A1COHJ8NNBTRBPLK5VQ5QF77AS8HV,5,6
9,2,object_09,object_07,758.80000000075,4,2,435.0,0.2222222222222222,2,object_05,5,55,0,3,2,forest_6,2,memory-2step-stake-s,497,835629,0.0-19.0-0.0-0.9,A11S8IAAVDXCUS,3B623HUYK76FV1575X2NKKQMM9B8SL,3A1COHJ8NNBTRBPLK5VQ5QF77AS8HV,3,4
10,4,object_03,object_04,681.89999999851,7,2,422.5,0.1111111111111111,1,object_02,1,56,0,1,1,restaurant_4,2,memory-2step-stake-s,498,843367,0.0-19.0-0.0-0.10,A11S8IAAVDXCUS,3B623HUYK76FV1575X2NKKQMM9B8SL,3A1COHJ8NNBTRBPLK5VQ5QF77AS8HV,8,7
11,1,object_01,object_10,699.09999999963,2,2,325.40000000037,0.0,2,object_05,5,56,0,1,0,desert_8,2,memory-2step-stake-s,499,850906,0.0-19.0-0.0-0.11,A11S8IAAVDXCUS,3B623HUYK76FV1575X2NKKQMM9B8SL,3A1COHJ8NNBTRBPLK5VQ5QF77AS8HV,1,2
12,1,object_01,object_10,809.29999999888,2,2,642.40000000037,0.3333333333333333,2,object_05,5,71,0,4,3,desert_5,2,memory-2step-stake-s,500,859076,0.0-19.0-0.0-0.12,A11S8IAAVDXCUS,3B623HUYK76FV1575X2NKKQMM9B8SL,3A1COHJ8NNBTRBPLK5VQ5QF77AS8HV,1,2
13,1,object_01,object_10,754.29999999888,1,1,372.09999999963,0.5555555555555556,1,object_02,1,76,0,5,1,desert_4,2,memory-2step-stake-s,501,867168,0.0-19.0-0.0-0.13,A11S8IAAVDXCUS,3B623HUYK76FV1575X2NKKQMM9B8SL,3A1COHJ8NNBTRBPLK5VQ5QF77AS8HV,1,2
14,3,object_06,object_08,945.40000000037,5,1,346.90000000037,0.6666666666666666,1,object_02,1,82,0,6,1,library_4,2,memory-2step-stake-s,502,875340,0.0-19.0-0.0-0.14,A11S8IAAVDXCUS,3B623HUYK76FV1575X2NKKQMM9B8SL,3A1COHJ8NNBTRBPLK5VQ5QF77AS8HV,5,6
15,2,object_07,object_09,1087.0999999996,4,1,306.29999999888,0.1111111111111111,2,object_05,5,87,0,5,1,forest_6,2,memory-2step-stake-s,503,882964,0.0-19.0-0.0-0.15,A11S8IAAVDXCUS,3B623HUYK76FV1575X2NKKQMM9B8SL,3A1COHJ8NNBTRBPLK5VQ5QF77AS8HV,4,3
16,4,object_04,object_03,996.59999999963,8,2,438.40000000037,0.4444444444444444,2,object_05,1,91,0,2,4,restaurant_8,2,memory-2step-stake-s,504,891021,0.0-19.0-0.0-0.16,A11S8IAAVDXCUS,3B623HUYK76FV1575X2NKKQMM9B8SL,3A1COHJ8NNBTRBPLK5VQ5QF77AS8HV,7,8
17,2,object_09,object_07,874.90000000037,3,1,438.29999999888,0.1111111111111111,1,object_02,5,96,0,1,3,forest_6,2,memory-2step-stake-s,505,898791,0.0-19.0-0.0-0.17,A11S8IAAVDXCUS,3B623HUYK76FV1575X2NKKQMM9B8SL,3A1COHJ8NNBTRBPLK5VQ5QF77AS8HV,3,4
18,1,object_01,object_10,890.69999999925,1,1,402.90000000037,0.3333333333333333,1,object_02,1,99,0,3,3,desert_5,2,memory-2step-stake-s,506,906713,0.0-19.0-0.0-0.18,A11S8IAAVDXCUS,3B623HUYK76FV1575X2NKKQMM9B8SL,3A1COHJ8NNBTRBPLK5VQ5QF77AS8HV,1,2
19,4,object_04,object_03,699.5,7,1,420.40000000037,0.6666666666666666,1,object_02,5,129,0,6,7,restaurant_7,2,memory-2step-stake-s,507,914966,0.0-19.0-0.0-0.19,A11S8IAAVDXCUS,3B623HUYK76FV1575X2NKKQMM9B8SL,3A1COHJ8NNBTRBPLK5VQ5QF77AS8HV,7,8
20,2,object_09,object_07,534.69999999925,4,2,320.40000000037,0.4444444444444444,2,object_05,5,149,0,4,4,forest_3,2,memory-2step-stake-s,508,922905,0.0-19.0-0.0-0.20,A11S8IAAVDXCUS,3B623HUYK76FV1575X2NKKQMM9B8SL,3A1COHJ8NNBTRBPLK5VQ5QF77AS8HV,3,4
21,2,object_09,object_07,530.89999999851,3,1,333.90000000037,0.3333333333333333,1,object_02,1,152,0,3,6,forest_3,2,memory-2step-stake-s,509,930758,0.0-19.0-0.0-0.21,A11S8IAAVDXCUS,3B623HUYK76FV1575X2NKKQMM9B8SL,3A1COHJ8NNBTRBPLK5VQ5QF77AS8HV,3,4
22,3,object_06,object_08,549.0,5,1,332.59999999963,0.5555555555555556,1,object_02,1,157,0,5,6,library_6,2,memory-2step-stake-s,510,938814,0.0-19.0-0.0-0.22,A11S8IAAVDXCUS,3B623HUYK76FV1575X2NKKQMM9B8SL,3A1COHJ8NNBTRBPLK5VQ5QF77AS8HV,5,6
23,3,object_08,object_06,662.0,6,1,265.29999999888,0.7777777777777778,2,object_05,1,164,0,9,7,library_3,2,memory-2step-stake-s,511,947005,0.0-19.0-0.0-0.23,A11S8IAAVDXCUS,3B623HUYK76FV1575X2NKKQMM9B8SL,3A1COHJ8NNBTRBPLK5VQ5QF77AS8HV,6,5
24,1,object_10,object_01,1065.0999999996,2,1,381.59999999963,0.6666666666666666,2,object_05,5,194,0,6,6,desert_8,2,memory-2step-stake-s,512,955206,0.0-19.0-0.0-0.24,A11S8IAAVDXCUS,3B623HUYK76FV1575X2NKKQMM9B8SL,3A1COHJ8NNBTRBPLK5VQ5QF77AS8HV,2,1
25,1,object_10,object_01,728.09999999963,2,1,332.59999999963,0.6666666666666666,2,object_05,5,224,0,4,6,desert_5,2,memory-2step-stake-s,513,963361,0.0-19.0-0.0-0.25,A11S8IAAVDXCUS,3B623HUYK76FV1575X2NKKQMM9B8SL,3A1COHJ8NNBTRBPLK5VQ5QF77AS8HV,2,1
26,4,object_03,object_04,871.30000000075,7,2,280.10000000149,0.1111111111111111,1,object_02,1,225,0,1,6,restaurant_5,2,memory-2step-stake-s,514,970958,0.0-19.0-0.0-0.26,A11S8IAAVDXCUS,3B623HUYK76FV1575X2NKKQMM9B8SL,3A1COHJ8NNBTRBPLK5VQ5QF77AS8HV,8,7
27,1,object_01,object_10,687.90000000037,2,2,356.70000000112,0.7777777777777778,2,object_05,5,260,0,1,7,desert_4,2,memory-2step-stake-s,515,979243,0.0-19.0-0.0-0.27,A11S8IAAVDXCUS,3B623HUYK76FV1575X2NKKQMM9B8SL,3A1COHJ8NNBTRBPLK5VQ5QF77AS8HV,1,2
28,4,object_03,object_04,615.19999999925,8,1,283.0,0.8888888888888888,2,object_05,1,268,0,0,8,restaurant_4,2,memory-2step-stake-s,516,987552,0.0-19.0-0.0-0.28,A11S8IAAVDXCUS,3B623HUYK76FV1575X2NKKQMM9B8SL,3A1COHJ8NNBTRBPLK5VQ5QF77AS8HV,8,7
29,1,object_10,object_01,442.59999999963,2,1,228.69999999925,0.6666666666666666,2,object_05,1,274,0,1,6,desert_8,2,memory-2step-stake-s,517,995621,0.0-19.0-0.0-0.29,A11S8IAAVDXCUS,3B623HUYK76FV1575X2NKKQMM9B8SL,3A1COHJ8NNBTRBPLK5VQ5QF77AS8HV,2,1
30,1,object_01,object_10,430.89999999851,2,2,48.300000000745,0.8888888888888888,2,object_05,5,314,0,1,8,desert_5,2,memory-2step-stake-s,518,1003694,0.0-19.0-0.0-0.30,A11S8IAAVDXCUS,3B623HUYK76FV1575X2NKKQMM9B8SL,3A1COHJ8NNBTRBPLK5VQ5QF77AS8HV,1,2
31,2,object_09,object_07,500.0,4,2,739.19999999925,0.6666666666666666,2,object_05,5,344,0,1,6,forest_6,2,memory-2step-stake-s,519,1012266,0.0-19.0-0.0-0.31,A11S8IAAVDXCUS,3B623HUYK76FV1575X2NKKQMM9B8SL,3A1COHJ8NNBTRBPLK5VQ5QF77AS8HV,3,4
32,4,object_03,object_04,922.5,8,1,875.0,0.5555555555555556,2,object_05,1,349,0,2,5,restaurant_8,2,memory-2step-stake-s,520,1020876,0.0-19.0-0.0-0.32,A11S8IAAVDXCUS,3B623HUYK76FV1575X2NKKQMM9B8SL,3A1COHJ8NNBTRBPLK5VQ5QF77AS8HV,8,7
33,4,object_04,object_03,730.20000000112,7,1,882.69999999925,0.1111111111111111,1,object_02,1,350,0,1,2,restaurant_5,2,memory-2step-stake-s,521,1029077,0.0-19.0-0.0-0.33,A11S8IAAVDXCUS,3B623HUYK76FV1575X2NKKQMM9B8SL,3A1COHJ8NNBTRBPLK5VQ5QF77AS8HV,7,8
34,3,object_06,object_08,614.19999999925,5,1,508.40000000037,0.1111111111111111,1,object_02,1,351,0,1,0,library_7,2,memory-2step-stake-s,522,1036900,0.0-19.0-0.0-0.34,A11S8IAAVDXCUS,3B623HUYK76FV1575X2NKKQMM9B8SL,3A1COHJ8NNBTRBPLK5VQ5QF77AS8HV,5,6
35,3,object_06,object_08,828.80000000075,5,1,1049.2000000011,0.1111111111111111,1,object_02,5,356,0,1,0,library_6,2,memory-2step-stake-s,523,1045272,0.0-19.0-0.0-0.35,A11S8IAAVDXCUS,3B623HUYK76FV1575X2NKKQMM9B8SL,3A1COHJ8NNBTRBPLK5VQ5QF77AS8HV,5,6
36,3,object_06,object_08,548.29999999888,5,1,399.0,0.1111111111111111,1,object_02,5,361,0,1,1,library_7,2,memory-2step-stake-s,524,1053002,0.0-19.0-0.0-0.36,A11S8IAAVDXCUS,3B623HUYK76FV1575X2NKKQMM9B8SL,3A1COHJ8NNBTRBPLK5VQ5QF77AS8HV,5,6
37,1,object_01,object_10,516.30000000075,2,2,509.39999999851,0.3333333333333333,2,object_05,5,376,0,1,3,desert_4,2,memory-2step-stake-s,525,1061036,0.0-19.0-0.0-0.37,A11S8IAAVDXCUS,3B623HUYK76FV1575X2NKKQMM9B8SL,3A1COHJ8NNBTRBPLK5VQ5QF77AS8HV,1,2
38,3,object_06,object_08,648.59999999963,5,1,627.90000000037,0.1111111111111111,1,object_02,1,377,0,1,1,library_4,2,memory-2step-stake-s,526,1068996,0.0-19.0-0.0-0.38,A11S8IAAVDXCUS,3B623HUYK76FV1575X2NKKQMM9B8SL,3A1COHJ8NNBTRBPLK5VQ5QF77AS8HV,5,6
39,2,object_09,object_07,594.90000000037,3,1,494.29999999888,0.0,1,object_02,5,377,0,0,2,forest_1,2,memory-2step-stake-s,527,1076711,0.0-19.0-0.0-0.39,A11S8IAAVDXCUS,3B623HUYK76FV1575X2NKKQMM9B8SL,3A1COHJ8NNBTRBPLK5VQ5QF77AS8HV,3,4
40,3,object_08,object_06,425.0,5,2,317.10000000149,0.0,1,object_02,5,377,0,0,2,library_6,2,memory-2step-stake-s,528,1084242,0.0-19.0-0.0-0.40,A11S8IAAVDXCUS,3B623HUYK76FV1575X2NKKQMM9B8SL,3A1COHJ8NNBTRBPLK5VQ5QF77AS8HV,6,5
41,2,object_09,object_07,636.79999999888,3,1,354.5,0.2222222222222222,1,object_02,1,379,0,2,0,forest_1,2,memory-2step-stake-s,529,1092013,0.0-19.0-0.0-0.41,A11S8IAAVDXCUS,3B623HUYK76FV1575X2NKKQMM9B8SL,3A1COHJ8NNBTRBPLK5VQ5QF77AS8HV,3,4
42,4,object_04,object_03,842.30000000075,7,1,469.59999999963,0.1111111111111111,1,object_02,1,380,0,1,3,restaurant_7,2,memory-2step-stake-s,530,1099802,0.0-19.0-0.0-0.42,A11S8IAAVDXCUS,3B623HUYK76FV1575X2NKKQMM9B8SL,3A1COHJ8NNBTRBPLK5VQ5QF77AS8HV,7,8
43,4,object_03,object_04,668.0,8,1,334.09999999963,0.3333333333333333,2,object_05,5,395,0,3,3,restaurant_7,2,memory-2step-stake-s,531,1107662,0.0-19.0-0.0-0.43,A11S8IAAVDXCUS,3B623HUYK76FV1575X2NKKQMM9B8SL,3A1COHJ8NNBTRBPLK5VQ5QF77AS8HV,8,7
44,2,object_09,object_07,572.80000000075,3,1,295.40000000037,0.2222222222222222,1,object_02,5,405,0,2,0,forest_3,2,memory-2step-stake-s,532,1115393,0.0-19.0-0.0-0.44,A11S8IAAVDXCUS,3B623HUYK76FV1575X2NKKQMM9B8SL,3A1COHJ8NNBTRBPLK5VQ5QF77AS8HV,3,4
45,4,object_04,object_03,817.80000000075,8,2,265.79999999888,0.0,2,object_05,1,405,0,8,0,restaurant_8,2,memory-2step-stake-s,533,1122899,0.0-19.0-0.0-0.45,A11S8IAAVDXCUS,3B623HUYK76FV1575X2NKKQMM9B8SL,3A1COHJ8NNBTRBPLK5VQ5QF77AS8HV,7,8
46,2,object_09,object_07,763.59999999963,3,1,293.19999999925,1.0,1,object_02,5,450,0,9,2,forest_5,2,memory-2step-stake-s,534,1131328,0.0-19.0-0.0-0.46,A11S8IAAVDXCUS,3B623HUYK76FV1575X2NKKQMM9B8SL,3A1COHJ8NNBTRBPLK5VQ5QF77AS8HV,3,4
47,2,object_07,object_09,884.59999999963,3,2,368.09999999963,1.0,1,object_02,5,495,0,9,1,forest_5,2,memory-2step-stake-s,535,1139838,0.0-19.0-0.0-0.47,A11S8IAAVDXCUS,3B623HUYK76FV1575X2NKKQMM9B8SL,3A1COHJ8NNBTRBPLK5VQ5QF77AS8HV,4,3
48,3,object_08,object_06,823.70000000112,6,1,402.29999999888,0.2222222222222222,2,object_05,1,497,0,9,2,library_3,2,memory-2step-stake-s,536,1147669,0.0-19.0-0.0-0.48,A11S8IAAVDXCUS,3B623HUYK76FV1575X2NKKQMM9B8SL,3A1COHJ8NNBTRBPLK5VQ5QF77AS8HV,6,5
49,4,object_03,object_04,736.90000000037,7,2,279.89999999851,0.6666666666666666,1,object_02,1,503,0,6,2,restaurant_4,2,memory-2step-stake-s,537,1155771,0.0-19.0-0.0-0.49,A11S8IAAVDXCUS,3B623HUYK76FV1575X2NKKQMM9B8SL,3A1COHJ8NNBTRBPLK5VQ5QF77AS8HV,8,7
50,1,object_01,object_10,773.09999999963,1,1,344.90000000037,1.0,1,object_02,1,512,0,9,4,desert_8,2,memory-2step-stake-s,538,1164243,0.0-19.0-0.0-0.50,A11S8IAAVDXCUS,3B623HUYK76FV1575X2NKKQMM9B8SL,3A1COHJ8NNBTRBPLK5VQ5QF77AS8HV,1,2
51,3,object_06,object_08,606.40000000037,5,1,396.09999999963,1.0,1,object_02,5,557,0,9,4,library_4,2,memory-2step-stake-s,539,1172772,0.0-19.0-0.0-0.51,A11S8IAAVDXCUS,3B623HUYK76FV1575X2NKKQMM9B8SL,3A1COHJ8NNBTRBPLK5VQ5QF77AS8HV,5,6
52,4,object_03,object_04,659.19999999925,8,1,454.5,0.0,2,object_05,1,557,0,9,0,restaurant_8,2,memory-2step-stake-s,540,1180443,0.0-19.0-0.0-0.52,A11S8IAAVDXCUS,3B623HUYK76FV1575X2NKKQMM9B8SL,3A1COHJ8NNBTRBPLK5VQ5QF77AS8HV,8,7
53,3,object_08,object_06,594.09999999963,5,2,373.80000000075,0.8888888888888888,1,object_02,1,565,0,8,2,library_4,2,memory-2step-stake-s,541,1188843,0.0-19.0-0.0-0.53,A11S8IAAVDXCUS,3B623HUYK76FV1575X2NKKQMM9B8SL,3A1COHJ8NNBTRBPLK5VQ5QF77AS8HV,6,5
54,1,object_01,object_10,546.70000000112,1,1,388.5,1.0,1,object_02,5,610,0,9,0,desert_5,2,memory-2step-stake-s,542,1197354,0.0-19.0-0.0-0.54,A11S8IAAVDXCUS,3B623HUYK76FV1575X2NKKQMM9B8SL,3A1COHJ8NNBTRBPLK5VQ5QF77AS8HV,1,2
55,1,object_10,object_01,542.90000000037,2,1,481.40000000037,0.0,2,object_05,5,610,0,8,0,desert_8,2,memory-2step-stake-s,543,1205057,0.0-19.0-0.0-0.55,A11S8IAAVDXCUS,3B623HUYK76FV1575X2NKKQMM9B8SL,3A1COHJ8NNBTRBPLK5VQ5QF77AS8HV,2,1
56,1,object_10,object_01,485.90000000037,2,1,406.20000000112,0.2222222222222222,2,object_05,5,620,0,8,2,desert_5,2,memory-2step-stake-s,544,1212878,0.0-19.0-0.0-0.56,A11S8IAAVDXCUS,3B623HUYK76FV1575X2NKKQMM9B8SL,3A1COHJ8NNBTRBPLK5VQ5QF77AS8HV,2,1
57,4,object_03,object_04,636.40000000037,8,1,381.69999999925,0.2222222222222222,2,object_05,1,622,0,8,2,restaurant_4,2,memory-2step-stake-s,545,1220677,0.0-19.0-0.0-0.57,A11S8IAAVDXCUS,3B623HUYK76FV1575X2NKKQMM9B8SL,3A1COHJ8NNBTRBPLK5VQ5QF77AS8HV,8,7
58,2,object_09,object_07,531.70000000112,3,1,398.59999999963,0.8888888888888888,1,object_02,5,662,0,8,3,forest_1,2,memory-2step-stake-s,546,1229109,0.0-19.0-0.0-0.58,A11S8IAAVDXCUS,3B623HUYK76FV1575X2NKKQMM9B8SL,3A1COHJ8NNBTRBPLK5VQ5QF77AS8HV,3,4
59,4,object_03,object_04,639.20000000112,8,1,329.09999999963,0.2222222222222222,2,object_05,1,664,0,8,2,restaurant_4,2,memory-2step-stake-s,547,1236851,0.0-19.0-0.0-0.59,A11S8IAAVDXCUS,3B623HUYK76FV1575X2NKKQMM9B8SL,3A1COHJ8NNBTRBPLK5VQ5QF77AS8HV,8,7
60,4,object_03,object_04,441.89999999851,8,1,427.80000000075,0.2222222222222222,2,object_05,1,666,0,9,2,restaurant_8,2,memory-2step-stake-s,548,1244697,0.0-19.0-0.0-0.60,A11S8IAAVDXCUS,3B623HUYK76FV1575X2NKKQMM9B8SL,3A1COHJ8NNBTRBPLK5VQ5QF77AS8HV,8,7
61,2,object_07,object_09,828.80000000075,3,2,655.5,0.8888888888888888,1,object_02,5,706,0,8,3,forest_6,2,memory-2step-stake-s,549,1253391,0.0-19.0-0.0-0.61,A11S8IAAVDXCUS,3B623HUYK76FV1575X2NKKQMM9B8SL,3A1COHJ8NNBTRBPLK5VQ5QF77AS8HV,4,3
62,1,object_10,object_01,502.59999999963,2,1,418.90000000037,0.1111111111111111,2,object_05,1,707,0,7,1,desert_5,2,memory-2step-stake-s,550,1261125,0.0-19.0-0.0-0.62,A11S8IAAVDXCUS,3B623HUYK76FV1575X2NKKQMM9B8SL,3A1COHJ8NNBTRBPLK5VQ5QF77AS8HV,2,1
63,3,object_08,object_06,609.69999999925,6,1,282.90000000037,0.1111111111111111,2,object_05,1,708,0,9,1,library_4,2,memory-2step-stake-s,551,1268726,0.0-19.0-0.0-0.63,A11S8IAAVDXCUS,3B623HUYK76FV1575X2NKKQMM9B8SL,3A1COHJ8NNBTRBPLK5VQ5QF77AS8HV,6,5
64,3,object_08,object_06,747.09999999963,6,1,359.09999999963,0.1111111111111111,2,object_05,1,709,0,9,1,library_4,2,memory-2step-stake-s,552,1276400,0.0-19.0-0.0-0.64,A11S8IAAVDXCUS,3B623HUYK76FV1575X2NKKQMM9B8SL,3A1COHJ8NNBTRBPLK5VQ5QF77AS8HV,6,5
65,4,object_04,object_03,555.59999999963,8,2,476.79999999888,0.1111111111111111,2,object_05,1,710,0,9,1,restaurant_7,2,memory-2step-stake-s,553,1284193,0.0-19.0-0.0-0.65,A11S8IAAVDXCUS,3B623HUYK76FV1575X2NKKQMM9B8SL,3A1COHJ8NNBTRBPLK5VQ5QF77AS8HV,7,8
66,4,object_04,object_03,833.59999999963,7,1,314.5,0.7777777777777778,1,object_02,1,717,0,7,0,restaurant_7,2,memory-2step-stake-s,554,1292448,0.0-19.0-0.0-0.66,A11S8IAAVDXCUS,3B623HUYK76FV1575X2NKKQMM9B8SL,3A1COHJ8NNBTRBPLK5VQ5QF77AS8HV,7,8
67,4,object_04,object_03,695.40000000037,7,1,248.09999999963,0.6666666666666666,1,object_02,1,723,0,6,1,restaurant_5,2,memory-2step-stake-s,555,1300525,0.0-19.0-0.0-0.67,A11S8IAAVDXCUS,3B623HUYK76FV1575X2NKKQMM9B8SL,3A1COHJ8NNBTRBPLK5VQ5QF77AS8HV,7,8
68,1,object_01,object_10,680.5,1,1,370.5,0.5555555555555556,1,object_02,5,748,0,5,4,desert_8,2,memory-2step-stake-s,556,1308618,0.0-19.0-0.0-0.68,A11S8IAAVDXCUS,3B623HUYK76FV1575X2NKKQMM9B8SL,3A1COHJ8NNBTRBPLK5VQ5QF77AS8HV,1,2
69,4,object_03,object_04,699.19999999925,8,1,101.29999999888,0.4444444444444444,2,object_05,5,768,0,6,4,restaurant_7,2,memory-2step-stake-s,557,1316341,0.0-19.0-0.0-0.69,A11S8IAAVDXCUS,3B623HUYK76FV1575X2NKKQMM9B8SL,3A1COHJ8NNBTRBPLK5VQ5QF77AS8HV,8,7
70,1,object_10,object_01,1135.0,2,1,454.30000000075,0.5555555555555556,2,object_05,5,793,0,5,5,desert_6,2,memory-2step-stake-s,558,1324521,0.0-19.0-0.0-0.70,A11S8IAAVDXCUS,3B623HUYK76FV1575X2NKKQMM9B8SL,3A1COHJ8NNBTRBPLK5VQ5QF77AS8HV,2,1
71,3,object_06,object_08,586.59999999963,5,1,380.59999999963,0.7777777777777778,1,object_02,1,800,0,7,4,library_7,2,memory-2step-stake-s,559,1332829,0.0-19.0-0.0-0.71,A11S8IAAVDXCUS,3B623HUYK76FV1575X2NKKQMM9B8SL,3A1COHJ8NNBTRBPLK5VQ5QF77AS8HV,5,6
72,2,object_09,object_07,739.90000000037,4,2,255.19999999925,0.2222222222222222,2,object_05,5,810,0,6,2,forest_6,2,memory-2step-stake-s,560,1340505,0.0-19.0-0.0-0.72,A11S8IAAVDXCUS,3B623HUYK76FV1575X2NKKQMM9B8SL,3A1COHJ8NNBTRBPLK5VQ5QF77AS8HV,3,4
73,1,object_10,object_01,584.09999999963,2,1,250.59999999963,0.2222222222222222,2,object_05,5,820,0,5,2,desert_6,2,memory-2step-stake-s,561,1348183,0.0-19.0-0.0-0.73,A11S8IAAVDXCUS,3B623HUYK76FV1575X2NKKQMM9B8SL,3A1COHJ8NNBTRBPLK5VQ5QF77AS8HV,2,1
74,4,object_04,object_03,1001.1999999993,7,1,371.5,0.4444444444444444,1,object_02,5,840,0,4,1,restaurant_5,2,memory-2step-stake-s,562,1356178,0.0-19.0-0.0-0.74,A11S8IAAVDXCUS,3B623HUYK76FV1575X2NKKQMM9B8SL,3A1COHJ8NNBTRBPLK5VQ5QF77AS8HV,7,8
75,1,object_10,object_01,641.39999999851,2,1,251.29999999888,0.0,2,object_05,5,840,0,9,0,desert_5,2,memory-2step-stake-s,563,1363647,0.0-19.0-0.0-0.75,A11S8IAAVDXCUS,3B623HUYK76FV1575X2NKKQMM9B8SL,3A1COHJ8NNBTRBPLK5VQ5QF77AS8HV,2,1
76,2,object_07,object_09,781.30000000075,3,2,305.29999999888,1.0,1,object_02,5,885,0,9,1,forest_1,2,memory-2step-stake-s,564,1372105,0.0-19.0-0.0-0.76,A11S8IAAVDXCUS,3B623HUYK76FV1575X2NKKQMM9B8SL,3A1COHJ8NNBTRBPLK5VQ5QF77AS8HV,4,3
77,4,object_03,object_04,594.09999999963,8,1,411.69999999925,0.1111111111111111,2,object_05,1,886,0,6,1,restaurant_5,2,memory-2step-stake-s,565,1379837,0.0-19.0-0.0-0.77,A11S8IAAVDXCUS,3B623HUYK76FV1575X2NKKQMM9B8SL,3A1COHJ8NNBTRBPLK5VQ5QF77AS8HV,8,7
78,2,object_07,object_09,511.0,4,1,491.40000000037,0.1111111111111111,2,object_05,5,891,0,6,1,forest_6,2,memory-2step-stake-s,566,1387652,0.0-19.0-0.0-0.78,A11S8IAAVDXCUS,3B623HUYK76FV1575X2NKKQMM9B8SL,3A1COHJ8NNBTRBPLK5VQ5QF77AS8HV,4,3
79,3,object_06,object_08,981.30000000075,6,2,422.79999999888,0.2222222222222222,2,object_05,1,893,0,2,2,library_3,2,memory-2step-stake-s,567,1395500,0.0-19.0-0.0-0.79,A11S8IAAVDXCUS,3B623HUYK76FV1575X2NKKQMM9B8SL,3A1COHJ8NNBTRBPLK5VQ5QF77AS8HV,5,6
80,4,object_03,object_04,561.20000000112,8,1,440.79999999888,0.4444444444444444,2,object_05,5,913,0,4,4,restaurant_8,2,memory-2step-stake-s,568,1403561,0.0-19.0-0.0-0.80,A11S8IAAVDXCUS,3B623HUYK76FV1575X2NKKQMM9B8SL,3A1COHJ8NNBTRBPLK5VQ5QF77AS8HV,8,7
81,3,object_06,object_08,665.69999999925,5,1,516.40000000037,0.4444444444444444,1,object_02,1,917,0,4,4,library_3,2,memory-2step-stake-s,569,1411703,0.0-19.0-0.0-0.81,A11S8IAAVDXCUS,3B623HUYK76FV1575X2NKKQMM9B8SL,3A1COHJ8NNBTRBPLK5VQ5QF77AS8HV,5,6
82,3,object_06,object_08,546.09999999963,5,1,488.0,0.6666666666666666,1,object_02,1,923,0,6,7,library_4,2,memory-2step-stake-s,570,1420023,0.0-19.0-0.0-0.82,A11S8IAAVDXCUS,3B623HUYK76FV1575X2NKKQMM9B8SL,3A1COHJ8NNBTRBPLK5VQ5QF77AS8HV,5,6
83,1,object_10,object_01,503.70000000112,2,1,345.09999999963,0.6666666666666666,2,object_05,1,929,0,6,6,desert_8,2,memory-2step-stake-s,571,1428207,0.0-19.0-0.0-0.83,A11S8IAAVDXCUS,3B623HUYK76FV1575X2NKKQMM9B8SL,3A1COHJ8NNBTRBPLK5VQ5QF77AS8HV,2,1
84,3,object_06,object_08,553.30000000075,5,1,292.29999999888,0.7777777777777778,1,object_02,1,936,0,7,1,library_4,2,memory-2step-stake-s,572,1436453,0.0-19.0-0.0-0.84,A11S8IAAVDXCUS,3B623HUYK76FV1575X2NKKQMM9B8SL,3A1COHJ8NNBTRBPLK5VQ5QF77AS8HV,5,6
85,2,object_07,object_09,637.29999999888,3,2,353.10000000149,1.0,1,object_02,5,981,0,9,5,forest_5,2,memory-2step-stake-s,573,1444934,0.0-19.0-0.0-0.85,A11S8IAAVDXCUS,3B623HUYK76FV1575X2NKKQMM9B8SL,3A1COHJ8NNBTRBPLK5VQ5QF77AS8HV,4,3
86,1,object_10,object_01,622.10000000149,2,1,316.69999999925,0.2222222222222222,2,object_05,5,991,0,7,2,desert_8,2,memory-2step-stake-s,574,1452671,0.0-19.0-0.0-0.86,A11S8IAAVDXCUS,3B623HUYK76FV1575X2NKKQMM9B8SL,3A1COHJ8NNBTRBPLK5VQ5QF77AS8HV,2,1
87,4,object_03,object_04,641.20000000112,8,1,338.09999999963,0.3333333333333333,2,object_05,1,994,0,5,3,restaurant_7,2,memory-2step-stake-s,575,1460531,0.0-19.0-0.0-0.87,A11S8IAAVDXCUS,3B623HUYK76FV1575X2NKKQMM9B8SL,3A1COHJ8NNBTRBPLK5VQ5QF77AS8HV,8,7
88,4,object_04,object_03,764.69999999925,8,2,423.19999999925,0.4444444444444444,2,object_05,1,998,0,5,4,restaurant_4,2,memory-2step-stake-s,576,1468578,0.0-19.0-0.0-0.88,A11S8IAAVDXCUS,3B623HUYK76FV1575X2NKKQMM9B8SL,3A1COHJ8NNBTRBPLK5VQ5QF77AS8HV,7,8
89,2,object_09,object_07,672.80000000075,3,1,194.69999999925,0.8888888888888888,1,object_02,5,1038,0,8,1,forest_1,2,memory-2step-stake-s,577,1476796,0.0-19.0-0.0-0.89,A11S8IAAVDXCUS,3B623HUYK76FV1575X2NKKQMM9B8SL,3A1COHJ8NNBTRBPLK5VQ5QF77AS8HV,3,4
90,1,object_10,object_01,680.90000000037,2,1,398.30000000075,0.0,2,object_05,5,1038,0,6,0,desert_4,2,memory-2step-stake-s,578,1484413,0.0-19.0-0.0-0.90,A11S8IAAVDXCUS,3B623HUYK76FV1575X2NKKQMM9B8SL,3A1COHJ8NNBTRBPLK5VQ5QF77AS8HV,2,1
91,2,object_09,object_07,686.39999999851,3,1,499.90000000037,0.1111111111111111,1,object_02,5,1043,0,1,0,forest_6,2,memory-2step-stake-s,579,1492234,0.0-19.0-0.0-0.91,A11S8IAAVDXCUS,3B623HUYK76FV1575X2NKKQMM9B8SL,3A1COHJ8NNBTRBPLK5VQ5QF77AS8HV,3,4
92,2,object_09,object_07,644.70000000112,4,2,199.40000000037,0.1111111111111111,2,object_05,5,1048,0,2,1,forest_5,2,memory-2step-stake-s,580,1499746,0.0-19.0-0.0-0.92,A11S8IAAVDXCUS,3B623HUYK76FV1575X2NKKQMM9B8SL,3A1COHJ8NNBTRBPLK5VQ5QF77AS8HV,3,4
93,2,object_09,object_07,436.89999999851,3,1,257.59999999963,0.2222222222222222,1,object_02,5,1058,0,2,0,forest_1,2,memory-2step-stake-s,581,1507419,0.0-19.0-0.0-0.93,A11S8IAAVDXCUS,3B623HUYK76FV1575X2NKKQMM9B8SL,3A1COHJ8NNBTRBPLK5VQ5QF77AS8HV,3,4
94,3,object_06,object_08,873.09999999963,6,2,412.5,0.3333333333333333,2,object_05,1,1061,0,5,3,library_3,2,memory-2step-stake-s,582,1515344,0.0-19.0-0.0-0.94,A11S8IAAVDXCUS,3B623HUYK76FV1575X2NKKQMM9B8SL,3A1COHJ8NNBTRBPLK5VQ5QF77AS8HV,5,6
95,2,object_07,object_09,841.39999999851,4,1,258.79999999888,0.7777777777777778,2,object_05,5,1096,0,4,7,forest_3,2,memory-2step-stake-s,583,1523528,0.0-19.0-0.0-0.95,A11S8IAAVDXCUS,3B623HUYK76FV1575X2NKKQMM9B8SL,3A1COHJ8NNBTRBPLK5VQ5QF77AS8HV,4,3
96,2,object_09,object_07,786.5,3,1,302.40000000037,0.3333333333333333,1,object_02,5,1111,0,3,6,forest_3,2,memory-2step-stake-s,584,1531348,0.0-19.0-0.0-0.96,A11S8IAAVDXCUS,3B623HUYK76FV1575X2NKKQMM9B8SL,3A1COHJ8NNBTRBPLK5VQ5QF77AS8HV,3,4
97,1,object_01,object_10,873.0,1,1,256.59999999963,0.7777777777777778,1,object_02,5,1146,0,7,7,desert_5,2,memory-2step-stake-s,585,1539531,0.0-19.0-0.0-0.97,A11S8IAAVDXCUS,3B623HUYK76FV1575X2NKKQMM9B8SL,3A1COHJ8NNBTRBPLK5VQ5QF77AS8HV,1,2
98,2,object_07,object_09,826.70000000112,3,2,102.80000000075,0.8888888888888888,1,object_02,5,1186,0,8,8,forest_1,2,memory-2step-stake-s,586,1547657,0.0-19.0-0.0-0.98,A11S8IAAVDXCUS,3B623HUYK76FV1575X2NKKQMM9B8SL,3A1COHJ8NNBTRBPLK5VQ5QF77AS8HV,4,3
99,2,object_09,object_07,469.0,3,1,75.700000001118,0.8888888888888888,1,object_02,5,1226,0,8,8,forest_5,2,memory-2step-stake-s,587,1555758,0.0-19.0-0.0-0.99,A11S8IAAVDXCUS,3B623HUYK76FV1575X2NKKQMM9B8SL,3A1COHJ8NNBTRBPLK5VQ5QF77AS8HV,3,4
100,3,object_08,object_06,782.0,5,2,158.70000000112,0.5555555555555556,1,object_02,5,1251,0,5,5,library_7,2,memory-2step-stake-s,588,1563636,0.0-19.0-0.0-0.100,A11S8IAAVDXCUS,3B623HUYK76FV1575X2NKKQMM9B8SL,3A1COHJ8NNBTRBPLK5VQ5QF77AS8HV,6,5
101,2,object_07,object_09,807.90000000037,3,2,403.40000000037,0.3333333333333333,1,object_02,1,1254,0,3,9,forest_5,2,memory-2step-stake-s,589,1571556,0.0-19.0-0.0-0.101,A11S8IAAVDXCUS,3B623HUYK76FV1575X2NKKQMM9B8SL,3A1COHJ8NNBTRBPLK5VQ5QF77AS8HV,4,3
102,3,object_06,object_08,585.90000000037,5,1,362.69999999925,0.2222222222222222,1,object_02,1,1256,0,2,8,library_3,2,memory-2step-stake-s,590,1579343,0.0-19.0-0.0-0.102,A11S8IAAVDXCUS,3B623HUYK76FV1575X2NKKQMM9B8SL,3A1COHJ8NNBTRBPLK5VQ5QF77AS8HV,5,6
103,1,object_10,object_01,538.09999999963,2,1,307.69999999925,0.8888888888888888,2,object_05,5,1296,0,5,8,desert_4,2,memory-2step-stake-s,591,1587685,0.0-19.0-0.0-0.103,A11S8IAAVDXCUS,3B623HUYK76FV1575X2NKKQMM9B8SL,3A1COHJ8NNBTRBPLK5VQ5QF77AS8HV,2,1
104,3,object_06,object_08,554.29999999888,5,1,83.900000000373,0.6666666666666666,1,object_02,1,1302,0,6,8,library_6,2,memory-2step-stake-s,592,1595592,0.0-19.0-0.0-0.104,A11S8IAAVDXCUS,3B623HUYK76FV1575X2NKKQMM9B8SL,3A1COHJ8NNBTRBPLK5VQ5QF77AS8HV,5,6
105,4,object_03,object_04,519.19999999925,8,1,758.90000000037,0.7777777777777778,2,object_05,1,1309,0,5,7,restaurant_7,2,memory-2step-stake-s,593,1604287,0.0-19.0-0.0-0.105,A11S8IAAVDXCUS,3B623HUYK76FV1575X2NKKQMM9B8SL,3A1COHJ8NNBTRBPLK5VQ5QF77AS8HV,8,7
106,4,object_03,object_04,712.69999999925,7,2,266.59999999963,0.3333333333333333,1,object_02,1,1312,0,3,8,restaurant_4,2,memory-2step-stake-s,594,1612095,0.0-19.0-0.0-0.106,A11S8IAAVDXCUS,3B623HUYK76FV1575X2NKKQMM9B8SL,3A1COHJ8NNBTRBPLK5VQ5QF77AS8HV,8,7
107,4,object_04,object_03,572.60000000149,7,1,487.29999999888,0.0,1,object_02,1,1312,0,0,6,restaurant_5,2,memory-2step-stake-s,595,1619796,0.0-19.0-0.0-0.107,A11S8IAAVDXCUS,3B623HUYK76FV1575X2NKKQMM9B8SL,3A1COHJ8NNBTRBPLK5VQ5QF77AS8HV,7,8
108,3,object_06,object_08,640.90000000037,6,2,445.69999999925,1.0,2,object_05,5,1357,0,1,9,library_7,2,memory-2step-stake-s,596,1628370,0.0-19.0-0.0-0.108,A11S8IAAVDXCUS,3B623HUYK76FV1575X2NKKQMM9B8SL,3A1COHJ8NNBTRBPLK5VQ5QF77AS8HV,5,6
109,2,object_09,object_07,677.09999999963,3,1,265.29999999888,0.1111111111111111,1,object_02,5,1362,0,1,8,forest_6,2,memory-2step-stake-s,597,1635951,0.0-19.0-0.0-0.109,A11S8IAAVDXCUS,3B623HUYK76FV1575X2NKKQMM9B8SL,3A1COHJ8NNBTRBPLK5VQ5QF77AS8HV,3,4
110,1,object_01,object_10,518.70000000112,2,2,423.10000000149,0.7777777777777778,2,object_05,1,1369,0,1,7,desert_4,2,memory-2step-stake-s,598,1644309,0.0-19.0-0.0-0.110,A11S8IAAVDXCUS,3B623HUYK76FV1575X2NKKQMM9B8SL,3A1COHJ8NNBTRBPLK5VQ5QF77AS8HV,1,2
111,3,object_08,object_06,867.90000000037,5,2,485.5,0.2222222222222222,1,object_02,1,1371,0,2,9,library_3,2,memory-2step-stake-s,599,1652214,0.0-19.0-0.0-0.111,A11S8IAAVDXCUS,3B623HUYK76FV1575X2NKKQMM9B8SL,3A1COHJ8NNBTRBPLK5VQ5QF77AS8HV,6,5
112,1,object_01,object_10,836.29999999888,1,1,367.59999999963,0.4444444444444444,1,object_02,5,1391,0,4,7,desert_8,2,memory-2step-stake-s,600,1660203,0.0-19.0-0.0-0.112,A11S8IAAVDXCUS,3B623HUYK76FV1575X2NKKQMM9B8SL,3A1COHJ8NNBTRBPLK5VQ5QF77AS8HV,1,2
113,3,object_08,object_06,721.69999999925,5,2,75.800000000745,0.5555555555555556,1,object_02,1,1396,0,5,5,library_4,2,memory-2step-stake-s,601,1668000,0.0-19.0-0.0-0.113,A11S8IAAVDXCUS,3B623HUYK76FV1575X2NKKQMM9B8SL,3A1COHJ8NNBTRBPLK5VQ5QF77AS8HV,6,5
114,3,object_08,object_06,770.69999999925,6,1,286.19999999925,0.3333333333333333,2,object_05,1,1399,0,2,3,library_7,2,memory-2step-stake-s,602,1675807,0.0-19.0-0.0-0.114,A11S8IAAVDXCUS,3B623HUYK76FV1575X2NKKQMM9B8SL,3A1COHJ8NNBTRBPLK5VQ5QF77AS8HV,6,5
115,2,object_09,object_07,580.0,3,1,221.40000000037,0.1111111111111111,1,object_02,5,1404,0,1,8,forest_3,2,memory-2step-stake-s,603,1683349,0.0-19.0-0.0-0.115,A11S8IAAVDXCUS,3B623HUYK76FV1575X2NKKQMM9B8SL,3A1COHJ8NNBTRBPLK5VQ5QF77AS8HV,3,4
116,4,object_03,object_04,417.19999999925,8,1,92.700000001118,0.6666666666666666,2,object_05,1,1410,0,0,6,restaurant_4,2,memory-2step-stake-s,604,1691263,0.0-19.0-0.0-0.116,A11S8IAAVDXCUS,3B623HUYK76FV1575X2NKKQMM9B8SL,3A1COHJ8NNBTRBPLK5VQ5QF77AS8HV,8,7
117,2,object_09,object_07,503.60000000149,3,1,16.900000000373,0.0,1,object_02,5,1410,0,0,6,forest_6,2,memory-2step-stake-s,605,1698502,0.0-19.0-0.0-0.117,A11S8IAAVDXCUS,3B623HUYK76FV1575X2NKKQMM9B8SL,3A1COHJ8NNBTRBPLK5VQ5QF77AS8HV,3,4
118,1,object_10,object_01,691.30000000075,1,2,339.90000000037,0.1111111111111111,1,object_02,5,1415,0,1,8,desert_6,2,memory-2step-stake-s,606,1706159,0.0-19.0-0.0-0.118,A11S8IAAVDXCUS,3B623HUYK76FV1575X2NKKQMM9B8SL,3A1COHJ8NNBTRBPLK5VQ5QF77AS8HV,2,1
119,4,object_04,object_03,783.5,8,2,359.69999999925,1.0,2,object_05,1,1424,0,4,9,restaurant_4,2,memory-2step-stake-s,607,1714656,0.0-19.0-0.0-0.119,A11S8IAAVDXCUS,3B623HUYK76FV1575X2NKKQMM9B8SL,3A1COHJ8NNBTRBPLK5VQ5QF77AS8HV,7,8
120,4,object_03,object_04,820.69999999925,8,1,303.60000000149,0.8888888888888888,2,object_05,1,1432,0,3,8,restaurant_8,2,memory-2step-stake-s,608,1722989,0.0-19.0-0.0-0.120,A11S8IAAVDXCUS,3B623HUYK76FV1575X2NKKQMM9B8SL,3A1COHJ8NNBTRBPLK5VQ5QF77AS8HV,8,7
121,1,object_01,object_10,894.40000000037,1,1,315.40000000037,0.6666666666666666,1,object_02,5,1462,0,6,9,desert_6,2,memory-2step-stake-s,609,1731134,0.0-19.0-0.0-0.121,A11S8IAAVDXCUS,3B623HUYK76FV1575X2NKKQMM9B8SL,3A1COHJ8NNBTRBPLK5VQ5QF77AS8HV,1,2
122,2,object_09,object_07,709.70000000112,4,2,296.0,1.0,2,object_05,5,1507,0,7,9,forest_5,2,memory-2step-stake-s,610,1739557,0.0-19.0-0.0-0.122,A11S8IAAVDXCUS,3B623HUYK76FV1575X2NKKQMM9B8SL,3A1COHJ8NNBTRBPLK5VQ5QF77AS8HV,3,4
123,4,object_03,object_04,603.30000000075,8,1,74.599999999627,1.0,2,object_05,1,1516,0,9,9,restaurant_7,2,memory-2step-stake-s,611,1747761,0.0-19.0-0.0-0.123,A11S8IAAVDXCUS,3B623HUYK76FV1575X2NKKQMM9B8SL,3A1COHJ8NNBTRBPLK5VQ5QF77AS8HV,8,7
124,4,object_04,object_03,656.59999999963,8,2,229.90000000037,0.7777777777777778,2,object_05,1,1523,0,6,7,restaurant_8,2,memory-2step-stake-s,612,1755924,0.0-19.0-0.0-0.124,A11S8IAAVDXCUS,3B623HUYK76FV1575X2NKKQMM9B8SL,3A1COHJ8NNBTRBPLK5VQ5QF77AS8HV,7,8
125,3,object_06,object_08,747.79999999888,6,2,268.59999999963,0.6666666666666666,2,object_05,5,1553,0,3,6,library_4,2,memory-2step-stake-s,613,1764020,0.0-19.0-0.0-0.125,A11S8IAAVDXCUS,3B623HUYK76FV1575X2NKKQMM9B8SL,3A1COHJ8NNBTRBPLK5VQ5QF77AS8HV,5,6
126,4,object_04,object_03,519.29999999888,8,2,329.09999999963,0.7777777777777778,2,object_05,1,1560,0,3,7,restaurant_5,2,memory-2step-stake-s,614,1772284,0.0-19.0-0.0-0.126,A11S8IAAVDXCUS,3B623HUYK76FV1575X2NKKQMM9B8SL,3A1COHJ8NNBTRBPLK5VQ5QF77AS8HV,7,8
127,2,object_09,object_07,647.5,4,2,195.0,1.0,2,object_05,5,1605,0,5,9,forest_1,2,memory-2step-stake-s,615,1780600,0.0-19.0-0.0-0.127,A11S8IAAVDXCUS,3B623HUYK76FV1575X2NKKQMM9B8SL,3A1COHJ8NNBTRBPLK5VQ5QF77AS8HV,3,4
128,2,object_07,object_09,675.5,4,1,287.80000000075,0.8888888888888888,2,object_05,5,1645,0,4,8,forest_1,2,memory-2step-stake-s,617,1799504,0.0-19.0-0.1-0.128,A11S8IAAVDXCUS,3B623HUYK76FV1575X2NKKQMM9B8SL,3A1COHJ8NNBTRBPLK5VQ5QF77AS8HV,4,3
129,2,object_07,object_09,707.69999999925,4,1,143.39999999851,1.0,2,object_05,5,1690,0,5,9,forest_5,2,memory-2step-stake-s,618,1807782,0.0-19.0-0.1-0.129,A11S8IAAVDXCUS,3B623HUYK76FV1575X2NKKQMM9B8SL,3A1COHJ8NNBTRBPLK5VQ5QF77AS8HV,4,3
130,1,object_10,object_01,601.69999999925,1,2,18.60000000149,0.5555555555555556,1,object_02,1,1695,0,5,8,desert_4,2,memory-2step-stake-s,619,1815523,0.0-19.0-0.1-0.130,A11S8IAAVDXCUS,3B623HUYK76FV1575X2NKKQMM9B8SL,3A1COHJ8NNBTRBPLK5VQ5QF77AS8HV,2,1
131,1,object_10,object_01,530.30000000075,2,1,221.5,1.0,2,object_05,5,1740,0,5,9,desert_6,2,memory-2step-stake-s,620,1823879,0.0-19.0-0.1-0.131,A11S8IAAVDXCUS,3B623HUYK76FV1575X2NKKQMM9B8SL,3A1COHJ8NNBTRBPLK5VQ5QF77AS8HV,2,1
132,2,object_09,object_07,619.40000000037,4,2,276.80000000075,0.8888888888888888,2,object_05,5,1780,0,4,8,forest_3,2,memory-2step-stake-s,621,1832179,0.0-19.0-0.1-0.132,A11S8IAAVDXCUS,3B623HUYK76FV1575X2NKKQMM9B8SL,3A1COHJ8NNBTRBPLK5VQ5QF77AS8HV,3,4
133,2,object_07,object_09,560.59999999963,4,1,265.30000000075,1.0,2,object_05,5,1825,0,2,9,forest_3,2,memory-2step-stake-s,622,1840578,0.0-19.0-0.1-0.133,A11S8IAAVDXCUS,3B623HUYK76FV1575X2NKKQMM9B8SL,3A1COHJ8NNBTRBPLK5VQ5QF77AS8HV,4,3
134,2,object_09,object_07,545.09999999963,4,2,244.5,0.8888888888888888,2,object_05,5,1865,0,2,8,forest_3,2,memory-2step-stake-s,623,1848851,0.0-19.0-0.1-0.134,A11S8IAAVDXCUS,3B623HUYK76FV1575X2NKKQMM9B8SL,3A1COHJ8NNBTRBPLK5VQ5QF77AS8HV,3,4
135,4,object_04,object_03,503.69999999925,8,2,242.70000000112,1.0,2,object_05,1,1874,0,5,9,restaurant_4,2,memory-2step-stake-s,624,1857219,0.0-19.0-0.1-0.135,A11S8IAAVDXCUS,3B623HUYK76FV1575X2NKKQMM9B8SL,3A1COHJ8NNBTRBPLK5VQ5QF77AS8HV,7,8
136,2,object_09,object_07,685.30000000075,4,2,300.59999999963,0.7777777777777778,2,object_05,5,1909,0,6,7,forest_3,2,memory-2step-stake-s,625,1865440,0.0-19.0-0.1-0.136,A11S8IAAVDXCUS,3B623HUYK76FV1575X2NKKQMM9B8SL,3A1COHJ8NNBTRBPLK5VQ5QF77AS8HV,3,4
137,4,object_03,object_04,645.5,8,1,393.59999999963,0.6666666666666666,2,object_05,1,1915,0,7,6,restaurant_5,2,memory-2step-stake-s,626,1873656,0.0-19.0-0.1-0.137,A11S8IAAVDXCUS,3B623HUYK76FV1575X2NKKQMM9B8SL,3A1COHJ8NNBTRBPLK5VQ5QF77AS8HV,8,7
138,2,object_07,object_09,673.0,4,1,409.70000000112,0.6666666666666666,2,object_05,1,1921,0,6,6,forest_6,2,memory-2step-stake-s,627,1881896,0.0-19.0-0.1-0.138,A11S8IAAVDXCUS,3B623HUYK76FV1575X2NKKQMM9B8SL,3A1COHJ8NNBTRBPLK5VQ5QF77AS8HV,4,3
139,3,object_06,object_08,640.40000000037,5,1,231.09999999963,0.6666666666666666,1,object_02,5,1951,0,6,8,library_6,2,memory-2step-stake-s,628,1889951,0.0-19.0-0.1-0.139,A11S8IAAVDXCUS,3B623HUYK76FV1575X2NKKQMM9B8SL,3A1COHJ8NNBTRBPLK5VQ5QF77AS8HV,5,6
140,4,object_04,object_03,646.69999999925,8,2,224.29999999888,0.6666666666666666,2,object_05,1,1957,0,8,6,restaurant_4,2,memory-2step-stake-s,629,1897995,0.0-19.0-0.1-0.140,A11S8IAAVDXCUS,3B623HUYK76FV1575X2NKKQMM9B8SL,3A1COHJ8NNBTRBPLK5VQ5QF77AS8HV,7,8
141,3,object_06,object_08,1134.5999999996,5,1,440.29999999888,0.6666666666666666,1,object_02,1,1963,0,6,6,library_7,2,memory-2step-stake-s,630,1906260,0.0-19.0-0.1-0.141,A11S8IAAVDXCUS,3B623HUYK76FV1575X2NKKQMM9B8SL,3A1COHJ8NNBTRBPLK5VQ5QF77AS8HV,5,6
142,1,object_01,object_10,767.19999999925,1,1,248.59999999963,0.8888888888888888,1,object_02,5,2003,0,8,9,desert_5,2,memory-2step-stake-s,631,1914535,0.0-19.0-0.1-0.142,A11S8IAAVDXCUS,3B623HUYK76FV1575X2NKKQMM9B8SL,3A1COHJ8NNBTRBPLK5VQ5QF77AS8HV,1,2
143,2,object_07,object_09,808.20000000112,4,1,295.60000000149,0.8888888888888888,2,object_05,5,2043,0,6,8,forest_1,2,memory-2step-stake-s,632,1922857,0.0-19.0-0.1-0.143,A11S8IAAVDXCUS,3B623HUYK76FV1575X2NKKQMM9B8SL,3A1COHJ8NNBTRBPLK5VQ5QF77AS8HV,4,3
144,2,object_07,object_09,699.70000000112,3,2,126.19999999925,0.7777777777777778,1,object_02,5,2078,0,7,5,forest_5,2,memory-2step-stake-s,633,1930908,0.0-19.0-0.1-0.144,A11S8IAAVDXCUS,3B623HUYK76FV1575X2NKKQMM9B8SL,3A1COHJ8NNBTRBPLK5VQ5QF77AS8HV,4,3
145,3,object_06,object_08,611.59999999963,5,1,433.40000000037,1.0,1,object_02,1,2087,0,9,7,library_6,2,memory-2step-stake-s,634,1939466,0.0-19.0-0.1-0.145,A11S8IAAVDXCUS,3B623HUYK76FV1575X2NKKQMM9B8SL,3A1COHJ8NNBTRBPLK5VQ5QF77AS8HV,5,6
146,1,object_01,object_10,539.69999999925,2,2,461.79999999888,0.8888888888888888,2,object_05,1,2095,0,8,8,desert_4,2,memory-2step-stake-s,635,1947952,0.0-19.0-0.1-0.146,A11S8IAAVDXCUS,3B623HUYK76FV1575X2NKKQMM9B8SL,3A1COHJ8NNBTRBPLK5VQ5QF77AS8HV,1,2
147,4,object_04,object_03,792.09999999963,8,2,1217.5,0.5555555555555556,2,object_05,5,2120,0,7,5,restaurant_8,2,memory-2step-stake-s,636,1956894,0.0-19.0-0.1-0.147,A11S8IAAVDXCUS,3B623HUYK76FV1575X2NKKQMM9B8SL,3A1COHJ8NNBTRBPLK5VQ5QF77AS8HV,7,8
148,2,object_09,object_07,725.5,4,2,487.79999999888,0.8888888888888888,2,object_05,5,2160,0,6,8,forest_5,2,memory-2step-stake-s,637,1965406,0.0-19.0-0.1-0.148,A11S8IAAVDXCUS,3B623HUYK76FV1575X2NKKQMM9B8SL,3A1COHJ8NNBTRBPLK5VQ5QF77AS8HV,3,4
149,2,object_09,object_07,711.79999999888,3,1,8.7000000011176,0.6666666666666666,1,object_02,5,2190,0,6,9,forest_3,2,memory-2step-stake-s,638,1973238,0.0-19.0-0.1-0.149,A11S8IAAVDXCUS,3B623HUYK76FV1575X2NKKQMM9B8SL,3A1COHJ8NNBTRBPLK5VQ5QF77AS8HV,3,4
150,4,object_04,object_03,630.40000000037,8,2,205.90000000037,0.6666666666666666,2,object_05,1,2196,0,5,6,restaurant_4,2,memory-2step-stake-s,639,1981279,0.0-19.0-0.1-0.150,A11S8IAAVDXCUS,3B623HUYK76FV1575X2NKKQMM9B8SL,3A1COHJ8NNBTRBPLK5VQ5QF77AS8HV,7,8
151,4,object_03,object_04,582.19999999925,8,1,375.90000000037,0.6666666666666666,2,object_05,1,2202,0,6,6,restaurant_8,2,memory-2step-stake-s,640,1989486,0.0-19.0-0.1-0.151,A11S8IAAVDXCUS,3B623HUYK76FV1575X2NKKQMM9B8SL,3A1COHJ8NNBTRBPLK5VQ5QF77AS8HV,8,7
152,1,object_01,object_10,602.40000000037,2,2,412.90000000037,0.8888888888888888,2,object_05,5,2242,0,6,8,desert_8,2,memory-2step-stake-s,641,1997926,0.0-19.0-0.1-0.152,A11S8IAAVDXCUS,3B623HUYK76FV1575X2NKKQMM9B8SL,3A1COHJ8NNBTRBPLK5VQ5QF77AS8HV,1,2
153,1,object_10,object_01,454.69999999925,2,1,415.29999999888,0.7777777777777778,2,object_05,5,2277,0,8,7,desert_4,2,memory-2step-stake-s,642,2006269,0.0-19.0-0.1-0.153,A11S8IAAVDXCUS,3B623HUYK76FV1575X2NKKQMM9B8SL,3A1COHJ8NNBTRBPLK5VQ5QF77AS8HV,2,1
154,1,object_01,object_10,510.29999999888,2,2,360.09999999963,0.2222222222222222,2,object_05,5,2287,0,7,2,desert_5,2,memory-2step-stake-s,643,2014048,0.0-19.0-0.1-0.154,A11S8IAAVDXCUS,3B623HUYK76FV1575X2NKKQMM9B8SL,3A1COHJ8NNBTRBPLK5VQ5QF77AS8HV,1,2
155,2,object_09,object_07,519.89999999851,3,1,128.40000000037,0.4444444444444444,1,object_02,1,2291,0,4,2,forest_5,2,memory-2step-stake-s,644,2021802,0.0-19.0-0.1-0.155,A11S8IAAVDXCUS,3B623HUYK76FV1575X2NKKQMM9B8SL,3A1COHJ8NNBTRBPLK5VQ5QF77AS8HV,3,4
156,2,object_09,object_07,933.80000000075,3,1,896.0,0.4444444444444444,1,object_02,5,2311,0,4,4,forest_1,2,memory-2step-stake-s,645,2030330,0.0-19.0-0.1-0.156,A11S8IAAVDXCUS,3B623HUYK76FV1575X2NKKQMM9B8SL,3A1COHJ8NNBTRBPLK5VQ5QF77AS8HV,3,4
157,1,object_10,object_01,528.29999999888,2,1,464.90000000037,0.5555555555555556,2,object_05,5,2336,0,4,5,desert_6,2,memory-2step-stake-s,646,2038527,0.0-19.0-0.1-0.157,A11S8IAAVDXCUS,3B623HUYK76FV1575X2NKKQMM9B8SL,3A1COHJ8NNBTRBPLK5VQ5QF77AS8HV,2,1
158,2,object_09,object_07,421.69999999925,4,2,552.19999999925,0.2222222222222222,2,object_05,5,2346,0,3,2,forest_5,2,memory-2step-stake-s,647,2046500,0.0-19.0-0.1-0.158,A11S8IAAVDXCUS,3B623HUYK76FV1575X2NKKQMM9B8SL,3A1COHJ8NNBTRBPLK5VQ5QF77AS8HV,3,4
159,3,object_06,object_08,710.09999999963,5,1,713.29999999888,0.2222222222222222,1,object_02,1,2348,0,2,1,library_7,2,memory-2step-stake-s,648,2054641,0.0-19.0-0.1-0.159,A11S8IAAVDXCUS,3B623HUYK76FV1575X2NKKQMM9B8SL,3A1COHJ8NNBTRBPLK5VQ5QF77AS8HV,5,6
160,4,object_04,object_03,645.60000000149,8,2,407.59999999963,0.0,2,object_05,5,2348,0,1,0,restaurant_5,2,memory-2step-stake-s,649,2062265,0.0-19.0-0.1-0.160,A11S8IAAVDXCUS,3B623HUYK76FV1575X2NKKQMM9B8SL,3A1COHJ8NNBTRBPLK5VQ5QF77AS8HV,7,8
161,4,object_04,object_03,496.19999999925,7,1,435.30000000075,0.5555555555555556,1,object_02,5,2373,0,5,2,restaurant_7,2,memory-2step-stake-s,650,2070417,0.0-19.0-0.1-0.161,A11S8IAAVDXCUS,3B623HUYK76FV1575X2NKKQMM9B8SL,3A1COHJ8NNBTRBPLK5VQ5QF77AS8HV,7,8
162,1,object_10,object_01,595.90000000037,2,1,470.69999999925,0.3333333333333333,2,object_05,5,2388,0,3,3,desert_6,2,memory-2step-stake-s,651,2078413,0.0-19.0-0.1-0.162,A11S8IAAVDXCUS,3B623HUYK76FV1575X2NKKQMM9B8SL,3A1COHJ8NNBTRBPLK5VQ5QF77AS8HV,2,1
163,2,object_07,object_09,549.70000000112,4,1,805.39999999851,0.4444444444444444,2,object_05,5,2408,0,2,4,forest_3,2,memory-2step-stake-s,652,2086845,0.0-19.0-0.1-0.163,A11S8IAAVDXCUS,3B623HUYK76FV1575X2NKKQMM9B8SL,3A1COHJ8NNBTRBPLK5VQ5QF77AS8HV,4,3
164,4,object_04,object_03,340.5,7,1,184.40000000037,0.1111111111111111,1,object_02,1,2409,0,1,4,restaurant_7,2,memory-2step-stake-s,653,2094344,0.0-19.0-0.1-0.164,A11S8IAAVDXCUS,3B623HUYK76FV1575X2NKKQMM9B8SL,3A1COHJ8NNBTRBPLK5VQ5QF77AS8HV,7,8
165,2,object_07,object_09,562.70000000112,4,1,450.80000000075,0.4444444444444444,2,object_05,5,2429,0,0,4,forest_3,2,memory-2step-stake-s,654,2102422,0.0-19.0-0.1-0.165,A11S8IAAVDXCUS,3B623HUYK76FV1575X2NKKQMM9B8SL,3A1COHJ8NNBTRBPLK5VQ5QF77AS8HV,4,3
166,4,object_04,object_03,723.09999999963,7,1,399.69999999925,0.2222222222222222,1,object_02,1,2431,0,2,4,restaurant_8,2,memory-2step-stake-s,655,2110252,0.0-19.0-0.1-0.166,A11S8IAAVDXCUS,3B623HUYK76FV1575X2NKKQMM9B8SL,3A1COHJ8NNBTRBPLK5VQ5QF77AS8HV,7,8
167,4,object_04,object_03,472.89999999851,8,2,20.599999999627,0.1111111111111111,2,object_05,1,2432,0,0,1,restaurant_8,2,memory-2step-stake-s,656,2117600,0.0-19.0-0.1-0.167,A11S8IAAVDXCUS,3B623HUYK76FV1575X2NKKQMM9B8SL,3A1COHJ8NNBTRBPLK5VQ5QF77AS8HV,7,8
168,4,object_04,object_03,535.90000000037,7,1,535.70000000112,0.1111111111111111,1,object_02,1,2433,0,1,4,restaurant_5,2,memory-2step-stake-s,657,2125455,0.0-19.0-0.1-0.168,A11S8IAAVDXCUS,3B623HUYK76FV1575X2NKKQMM9B8SL,3A1COHJ8NNBTRBPLK5VQ5QF77AS8HV,7,8
169,1,object_01,object_10,699.30000000075,1,1,422.0,0.3333333333333333,1,object_02,5,2448,0,3,5,desert_6,2,memory-2step-stake-s,658,2133394,0.0-19.0-0.1-0.169,A11S8IAAVDXCUS,3B623HUYK76FV1575X2NKKQMM9B8SL,3A1COHJ8NNBTRBPLK5VQ5QF77AS8HV,1,2
170,3,object_06,object_08,739.59999999963,5,1,956.80000000075,0.2222222222222222,1,object_02,5,2458,0,2,6,library_6,2,memory-2step-stake-s,659,2141767,0.0-19.0-0.1-0.170,A11S8IAAVDXCUS,3B623HUYK76FV1575X2NKKQMM9B8SL,3A1COHJ8NNBTRBPLK5VQ5QF77AS8HV,5,6
171,3,object_06,object_08,1484.2999999989,6,2,798.0,0.8888888888888888,2,object_05,1,2466,0,2,8,library_3,2,memory-2step-stake-s,660,2150599,0.0-19.0-0.1-0.171,A11S8IAAVDXCUS,3B623HUYK76FV1575X2NKKQMM9B8SL,3A1COHJ8NNBTRBPLK5VQ5QF77AS8HV,5,6
172,2,object_09,object_07,792.90000000037,3,1,482.10000000149,0.1111111111111111,1,object_02,5,2471,0,1,8,forest_5,2,memory-2step-stake-s,661,2158400,0.0-19.0-0.1-0.172,A11S8IAAVDXCUS,3B623HUYK76FV1575X2NKKQMM9B8SL,3A1COHJ8NNBTRBPLK5VQ5QF77AS8HV,3,4
173,2,object_07,object_09,728.59999999963,3,2,472.5,0.5555555555555556,1,object_02,5,2496,0,5,8,forest_6,2,memory-2step-stake-s,662,2166591,0.0-19.0-0.1-0.173,A11S8IAAVDXCUS,3B623HUYK76FV1575X2NKKQMM9B8SL,3A1COHJ8NNBTRBPLK5VQ5QF77AS8HV,4,3
174,3,object_08,object_06,655.40000000037,6,1,490.20000000112,1.0,2,object_05,5,2541,0,6,9,library_6,2,memory-2step-stake-s,663,2175205,0.0-19.0-0.1-0.174,A11S8IAAVDXCUS,3B623HUYK76FV1575X2NKKQMM9B8SL,3A1COHJ8NNBTRBPLK5VQ5QF77AS8HV,6,5
175,2,object_07,object_09,546.40000000037,3,2,574.5,0.7777777777777778,1,object_02,5,2576,0,7,5,forest_1,2,memory-2step-stake-s,664,2183702,0.0-19.0-0.1-0.175,A11S8IAAVDXCUS,3B623HUYK76FV1575X2NKKQMM9B8SL,3A1COHJ8NNBTRBPLK5VQ5QF77AS8HV,4,3
176,1,object_10,object_01,524.0,2,1,37.400000000373,0.7777777777777778,2,object_05,5,2611,0,6,7,desert_5,2,memory-2step-stake-s,665,2191667,0.0-19.0-0.1-0.176,A11S8IAAVDXCUS,3B623HUYK76FV1575X2NKKQMM9B8SL,3A1COHJ8NNBTRBPLK5VQ5QF77AS8HV,2,1
177,2,object_07,object_09,456.29999999888,4,1,458.10000000149,0.5555555555555556,2,object_05,5,2636,0,4,5,forest_1,2,memory-2step-stake-s,666,2199847,0.0-19.0-0.1-0.177,A11S8IAAVDXCUS,3B623HUYK76FV1575X2NKKQMM9B8SL,3A1COHJ8NNBTRBPLK5VQ5QF77AS8HV,4,3
178,3,object_06,object_08,579.09999999963,5,1,638.59999999963,0.2222222222222222,1,object_02,1,2638,0,2,3,library_3,2,memory-2step-stake-s,667,2207902,0.0-19.0-0.1-0.178,A11S8IAAVDXCUS,3B623HUYK76FV1575X2NKKQMM9B8SL,3A1COHJ8NNBTRBPLK5VQ5QF77AS8HV,5,6
179,1,object_01,object_10,884.59999999963,2,2,445.59999999963,0.5555555555555556,2,object_05,1,2643,0,9,5,desert_8,2,memory-2step-stake-s,668,2216079,0.0-19.0-0.1-0.179,A11S8IAAVDXCUS,3B623HUYK76FV1575X2NKKQMM9B8SL,3A1COHJ8NNBTRBPLK5VQ5QF77AS8HV,1,2
180,1,object_01,object_10,610.20000000112,1,1,145.80000000075,0.8888888888888888,1,object_02,1,2651,0,8,8,desert_6,2,memory-2step-stake-s,669,2224249,0.0-19.0-0.1-0.180,A11S8IAAVDXCUS,3B623HUYK76FV1575X2NKKQMM9B8SL,3A1COHJ8NNBTRBPLK5VQ5QF77AS8HV,1,2
181,2,object_09,object_07,744.0,3,1,593.40000000037,0.7777777777777778,1,object_02,5,2686,0,7,9,forest_3,2,memory-2step-stake-s,670,2232766,0.0-19.0-0.1-0.181,A11S8IAAVDXCUS,3B623HUYK76FV1575X2NKKQMM9B8SL,3A1COHJ8NNBTRBPLK5VQ5QF77AS8HV,3,4
182,3,object_08,object_06,838.69999999925,6,1,1029.2999999989,0.8888888888888888,2,object_05,1,2694,0,8,8,library_7,2,memory-2step-stake-s,671,2241843,0.0-19.0-0.1-0.182,A11S8IAAVDXCUS,3B623HUYK76FV1575X2NKKQMM9B8SL,3A1COHJ8NNBTRBPLK5VQ5QF77AS8HV,6,5
183,1,object_10,object_01,589.69999999925,2,1,1252.7000000011,0.5555555555555556,2,object_05,1,2699,0,8,5,desert_5,2,memory-2step-stake-s,672,2250832,0.0-19.0-0.1-0.183,A11S8IAAVDXCUS,3B623HUYK76FV1575X2NKKQMM9B8SL,3A1COHJ8NNBTRBPLK5VQ5QF77AS8HV,2,1
184,1,object_01,object_10,479.5,2,2,563.80000000075,0.7777777777777778,2,object_05,5,2734,0,7,7,desert_6,2,memory-2step-stake-s,673,2259322,0.0-19.0-0.1-0.184,A11S8IAAVDXCUS,3B623HUYK76FV1575X2NKKQMM9B8SL,3A1COHJ8NNBTRBPLK5VQ5QF77AS8HV,1,2
185,1,object_01,object_10,688.90000000037,1,1,265.0,0.6666666666666666,1,object_02,1,2740,0,6,7,desert_6,2,memory-2step-stake-s,674,2267413,0.0-19.0-0.1-0.185,A11S8IAAVDXCUS,3B623HUYK76FV1575X2NKKQMM9B8SL,3A1COHJ8NNBTRBPLK5VQ5QF77AS8HV,1,2
186,3,object_08,object_06,738.80000000075,6,1,733.69999999925,0.8888888888888888,2,object_05,1,2748,0,3,8,library_7,2,memory-2step-stake-s,675,2276186,0.0-19.0-0.1-0.186,A11S8IAAVDXCUS,3B623HUYK76FV1575X2NKKQMM9B8SL,3A1COHJ8NNBTRBPLK5VQ5QF77AS8HV,6,5
187,3,object_06,object_08,562.59999999963,5,1,348.19999999925,0.4444444444444444,1,object_02,1,2752,0,4,8,library_7,2,memory-2step-stake-s,676,2284157,0.0-19.0-0.1-0.187,A11S8IAAVDXCUS,3B623HUYK76FV1575X2NKKQMM9B8SL,3A1COHJ8NNBTRBPLK5VQ5QF77AS8HV,5,6
188,4,object_03,object_04,639.10000000149,7,2,387.69999999925,0.1111111111111111,1,object_02,1,2753,0,1,7,restaurant_4,2,memory-2step-stake-s,677,2291864,0.0-19.0-0.1-0.188,A11S8IAAVDXCUS,3B623HUYK76FV1575X2NKKQMM9B8SL,3A1COHJ8NNBTRBPLK5VQ5QF77AS8HV,8,7
189,3,object_06,object_08,475.79999999888,5,1,878.80000000075,0.1111111111111111,1,object_02,1,2754,0,1,7,library_4,2,memory-2step-stake-s,678,2300061,0.0-19.0-0.1-0.189,A11S8IAAVDXCUS,3B623HUYK76FV1575X2NKKQMM9B8SL,3A1COHJ8NNBTRBPLK5VQ5QF77AS8HV,5,6
190,3,object_06,object_08,557.79999999888,6,2,338.10000000149,0.7777777777777778,2,object_05,1,2761,0,1,7,library_3,2,memory-2step-stake-s,679,2308347,0.0-19.0-0.1-0.190,A11S8IAAVDXCUS,3B623HUYK76FV1575X2NKKQMM9B8SL,3A1COHJ8NNBTRBPLK5VQ5QF77AS8HV,5,6
191,1,object_01,object_10,978.5,1,1,453.90000000037,0.0,1,object_02,5,2761,0,0,6,desert_6,2,memory-2step-stake-s,680,2316019,0.0-19.0-0.1-0.191,A11S8IAAVDXCUS,3B623HUYK76FV1575X2NKKQMM9B8SL,3A1COHJ8NNBTRBPLK5VQ5QF77AS8HV,1,2
192,4,object_04,object_03,637.80000000075,8,2,7.9000000003725,0.7777777777777778,2,object_05,1,2768,0,1,7,restaurant_4,2,memory-2step-stake-s,681,2323959,0.0-19.0-0.1-0.192,A11S8IAAVDXCUS,3B623HUYK76FV1575X2NKKQMM9B8SL,3A1COHJ8NNBTRBPLK5VQ5QF77AS8HV,7,8
193,4,object_03,object_04,975.90000000037,8,1,202.69999999925,0.8888888888888888,2,object_05,1,2776,0,3,8,restaurant_4,2,memory-2step-stake-s,682,2332189,0.0-19.0-0.1-0.193,A11S8IAAVDXCUS,3B623HUYK76FV1575X2NKKQMM9B8SL,3A1COHJ8NNBTRBPLK5VQ5QF77AS8HV,8,7
194,3,object_06,object_08,721.30000000075,6,2,292.69999999925,0.7777777777777778,2,object_05,1,2783,0,2,7,library_4,2,memory-2step-stake-s,683,2340403,0.0-19.0-0.1-0.194,A11S8IAAVDXCUS,3B623HUYK76FV1575X2NKKQMM9B8SL,3A1COHJ8NNBTRBPLK5VQ5QF77AS8HV,5,6
195,3,object_08,object_06,534.0,6,1,16.900000000373,0.7777777777777778,2,object_05,1,2790,0,3,7,library_3,2,memory-2step-stake-s,684,2348367,0.0-19.0-0.1-0.195,A11S8IAAVDXCUS,3B623HUYK76FV1575X2NKKQMM9B8SL,3A1COHJ8NNBTRBPLK5VQ5QF77AS8HV,6,5
196,4,object_03,object_04,536.40000000037,8,1,75.400000000373,0.7777777777777778,2,object_05,5,2825,0,0,7,restaurant_5,2,memory-2step-stake-s,685,2356360,0.0-19.0-0.1-0.196,A11S8IAAVDXCUS,3B623HUYK76FV1575X2NKKQMM9B8SL,3A1COHJ8NNBTRBPLK5VQ5QF77AS8HV,8,7
197,2,object_09,object_07,702.09999999963,4,2,64.599999999627,0.7777777777777778,2,object_05,5,2860,0,1,7,forest_6,2,memory-2step-stake-s,686,2364354,0.0-19.0-0.1-0.197,A11S8IAAVDXCUS,3B623HUYK76FV1575X2NKKQMM9B8SL,3A1COHJ8NNBTRBPLK5VQ5QF77AS8HV,3,4
198,4,object_04,object_03,778.70000000112,7,1,164.5,0.2222222222222222,1,object_02,1,2862,0,2,2,restaurant_8,2,memory-2step-stake-s,687,2371956,0.0-19.0-0.1-0.198,A11S8IAAVDXCUS,3B623HUYK76FV1575X2NKKQMM9B8SL,3A1COHJ8NNBTRBPLK5VQ5QF77AS8HV,7,8
199,1,object_01,object_10,601.59999999963,2,2,341.79999999888,0.3333333333333333,2,object_05,5,2877,0,5,3,desert_8,2,memory-2step-stake-s,688,2379829,0.0-19.0-0.1-0.199,A11S8IAAVDXCUS,3B623HUYK76FV1575X2NKKQMM9B8SL,3A1COHJ8NNBTRBPLK5VQ5QF77AS8HV,1,2
200,3,object_08,object_06,612.80000000075,6,1,143.19999999925,0.0,2,object_05,1,2877,0,7,0,library_7,2,memory-2step-stake-s,689,2387187,0.0-19.0-0.1-0.200,A11S8IAAVDXCUS,3B623HUYK76FV1575X2NKKQMM9B8SL,3A1COHJ8NNBTRBPLK5VQ5QF77AS8HV,6,5
201,3,object_06,object_08,863.80000000075,5,1,310.09999999963,0.6666666666666666,1,object_02,1,2883,0,6,2,library_6,2,memory-2step-stake-s,690,2395319,0.0-19.0-0.1-0.201,A11S8IAAVDXCUS,3B623HUYK76FV1575X2NKKQMM9B8SL,3A1COHJ8NNBTRBPLK5VQ5QF77AS8HV,5,6
202,1,object_01,object_10,1000.0999999996,2,2,490.59999999963,0.3333333333333333,2,object_05,5,2898,0,5,3,desert_8,2,memory-2step-stake-s,691,2403327,0.0-19.0-0.1-0.202,A11S8IAAVDXCUS,3B623HUYK76FV1575X2NKKQMM9B8SL,3A1COHJ8NNBTRBPLK5VQ5QF77AS8HV,1,2
203,4,object_04,object_03,783.40000000037,7,1,279.79999999888,0.4444444444444444,1,object_02,1,2902,0,4,3,restaurant_7,2,memory-2step-stake-s,692,2411227,0.0-19.0-0.1-0.203,A11S8IAAVDXCUS,3B623HUYK76FV1575X2NKKQMM9B8SL,3A1COHJ8NNBTRBPLK5VQ5QF77AS8HV,7,8
204,2,object_07,object_09,790.5,3,2,304.09999999963,0.4444444444444444,1,object_02,5,2922,0,4,1,forest_1,2,memory-2step-stake-s,693,2419151,0.0-19.0-0.1-0.204,A11S8IAAVDXCUS,3B623HUYK76FV1575X2NKKQMM9B8SL,3A1COHJ8NNBTRBPLK5VQ5QF77AS8HV,4,3
205,1,object_01,object_10,649.80000000075,2,2,228.09999999963,0.3333333333333333,2,object_05,5,2937,0,2,3,desert_6,2,memory-2step-stake-s,694,2426898,0.0-19.0-0.1-0.205,A11S8IAAVDXCUS,3B623HUYK76FV1575X2NKKQMM9B8SL,3A1COHJ8NNBTRBPLK5VQ5QF77AS8HV,1,2
206,3,object_08,object_06,623.90000000037,6,1,401.80000000075,0.1111111111111111,2,object_05,5,2942,0,2,1,library_7,2,memory-2step-stake-s,695,2434617,0.0-19.0-0.1-0.206,A11S8IAAVDXCUS,3B623HUYK76FV1575X2NKKQMM9B8SL,3A1COHJ8NNBTRBPLK5VQ5QF77AS8HV,6,5
207,4,object_03,object_04,624.30000000075,7,2,435.69999999925,0.1111111111111111,1,object_02,1,2943,0,1,3,restaurant_7,2,memory-2step-stake-s,696,2442380,0.0-19.0-0.1-0.207,A11S8IAAVDXCUS,3B623HUYK76FV1575X2NKKQMM9B8SL,3A1COHJ8NNBTRBPLK5VQ5QF77AS8HV,8,7
208,1,object_10,object_01,668.5,2,1,803.59999999963,0.0,2,object_05,5,2943,0,6,0,desert_8,2,memory-2step-stake-s,697,2450397,0.0-19.0-0.1-0.208,A11S8IAAVDXCUS,3B623HUYK76FV1575X2NKKQMM9B8SL,3A1COHJ8NNBTRBPLK5VQ5QF77AS8HV,2,1
209,4,object_04,object_03,609.30000000075,7,1,603.5,0.6666666666666666,1,object_02,1,2949,0,6,3,restaurant_4,2,memory-2step-stake-s,698,2458821,0.0-19.0-0.1-0.209,A11S8IAAVDXCUS,3B623HUYK76FV1575X2NKKQMM9B8SL,3A1COHJ8NNBTRBPLK5VQ5QF77AS8HV,7,8
210,2,object_07,object_09,310.39999999851,4,1,457.80000000075,0.1111111111111111,2,object_05,5,2954,0,5,1,forest_1,2,memory-2step-stake-s,699,2466596,0.0-19.0-0.1-0.210,A11S8IAAVDXCUS,3B623HUYK76FV1575X2NKKQMM9B8SL,3A1COHJ8NNBTRBPLK5VQ5QF77AS8HV,4,3
211,1,object_10,object_01,706.40000000037,1,2,309.40000000037,0.5555555555555556,1,object_02,5,2979,0,5,1,desert_6,2,memory-2step-stake-s,700,2474639,0.0-19.0-0.1-0.211,A11S8IAAVDXCUS,3B623HUYK76FV1575X2NKKQMM9B8SL,3A1COHJ8NNBTRBPLK5VQ5QF77AS8HV,2,1
212,4,object_04,object_03,624.30000000075,8,2,546.19999999925,0.1111111111111111,2,object_05,1,2980,0,5,1,restaurant_7,2,memory-2step-stake-s,701,2482501,0.0-19.0-0.1-0.212,A11S8IAAVDXCUS,3B623HUYK76FV1575X2NKKQMM9B8SL,3A1COHJ8NNBTRBPLK5VQ5QF77AS8HV,7,8
213,4,object_04,object_03,538.10000000149,7,1,213.5,0.3333333333333333,1,object_02,1,2983,0,3,1,restaurant_8,2,memory-2step-stake-s,702,2490235,0.0-19.0-0.1-0.213,A11S8IAAVDXCUS,3B623HUYK76FV1575X2NKKQMM9B8SL,3A1COHJ8NNBTRBPLK5VQ5QF77AS8HV,7,8
214,3,object_08,object_06,743.59999999963,5,2,402.69999999925,0.4444444444444444,1,object_02,1,2987,0,4,1,library_7,2,memory-2step-stake-s,703,2498265,0.0-19.0-0.1-0.214,A11S8IAAVDXCUS,3B623HUYK76FV1575X2NKKQMM9B8SL,3A1COHJ8NNBTRBPLK5VQ5QF77AS8HV,6,5
215,2,object_07,object_09,630.80000000075,4,1,577.0,0.4444444444444444,2,object_05,5,3007,0,4,4,forest_3,2,memory-2step-stake-s,704,2506464,0.0-19.0-0.1-0.215,A11S8IAAVDXCUS,3B623HUYK76FV1575X2NKKQMM9B8SL,3A1COHJ8NNBTRBPLK5VQ5QF77AS8HV,4,3
216,1,object_01,object_10,593.5,2,2,645.30000000075,0.4444444444444444,2,object_05,5,3027,0,6,4,desert_5,2,memory-2step-stake-s,705,2514729,0.0-19.0-0.1-0.216,A11S8IAAVDXCUS,3B623HUYK76FV1575X2NKKQMM9B8SL,3A1COHJ8NNBTRBPLK5VQ5QF77AS8HV,1,2
217,1,object_01,object_10,555.20000000112,2,2,625.0,0.3333333333333333,2,object_05,5,3042,0,7,3,desert_8,2,memory-2step-stake-s,706,2522882,0.0-19.0-0.1-0.217,A11S8IAAVDXCUS,3B623HUYK76FV1575X2NKKQMM9B8SL,3A1COHJ8NNBTRBPLK5VQ5QF77AS8HV,1,2
218,2,object_07,object_09,539.19999999925,4,1,462.5,0.2222222222222222,2,object_05,5,3052,0,8,2,forest_5,2,memory-2step-stake-s,707,2530789,0.0-19.0-0.1-0.218,A11S8IAAVDXCUS,3B623HUYK76FV1575X2NKKQMM9B8SL,3A1COHJ8NNBTRBPLK5VQ5QF77AS8HV,4,3
219,2,object_07,object_09,273.19999999925,3,2,665.29999999888,0.7777777777777778,1,object_02,5,3087,0,7,2,forest_3,2,memory-2step-stake-s,708,2539379,0.0-19.0-0.1-0.219,A11S8IAAVDXCUS,3B623HUYK76FV1575X2NKKQMM9B8SL,3A1COHJ8NNBTRBPLK5VQ5QF77AS8HV,4,3
220,4,object_04,object_03,419.0,7,1,1095.3999999985,0.6666666666666666,1,object_02,1,3093,0,6,3,restaurant_5,2,memory-2step-stake-s,709,2548300,0.0-19.0-0.1-0.220,A11S8IAAVDXCUS,3B623HUYK76FV1575X2NKKQMM9B8SL,3A1COHJ8NNBTRBPLK5VQ5QF77AS8HV,7,8
221,3,object_08,object_06,675.79999999888,6,1,462.70000000112,0.5555555555555556,2,object_05,5,3118,0,6,5,library_3,2,memory-2step-stake-s,710,2556487,0.0-19.0-0.1-0.221,A11S8IAAVDXCUS,3B623HUYK76FV1575X2NKKQMM9B8SL,3A1COHJ8NNBTRBPLK5VQ5QF77AS8HV,6,5
222,1,object_10,object_01,561.69999999925,2,1,465.80000000075,0.8888888888888888,2,object_05,5,3158,0,6,8,desert_4,2,memory-2step-stake-s,711,2564987,0.0-19.0-0.1-0.222,A11S8IAAVDXCUS,3B623HUYK76FV1575X2NKKQMM9B8SL,3A1COHJ8NNBTRBPLK5VQ5QF77AS8HV,2,1
223,3,object_08,object_06,635.10000000149,6,1,357.59999999963,0.7777777777777778,2,object_05,1,3165,0,8,7,library_7,2,memory-2step-stake-s,712,2573280,0.0-19.0-0.1-0.223,A11S8IAAVDXCUS,3B623HUYK76FV1575X2NKKQMM9B8SL,3A1COHJ8NNBTRBPLK5VQ5QF77AS8HV,6,5
224,1,object_10,object_01,448.30000000075,1,2,683.59999999963,0.8888888888888888,1,object_02,5,3205,0,8,6,desert_4,2,memory-2step-stake-s,713,2582002,0.0-19.0-0.1-0.224,A11S8IAAVDXCUS,3B623HUYK76FV1575X2NKKQMM9B8SL,3A1COHJ8NNBTRBPLK5VQ5QF77AS8HV,2,1
225,1,object_10,object_01,586.0,2,1,845.20000000112,0.7777777777777778,2,object_05,1,3212,0,7,7,desert_4,2,memory-2step-stake-s,714,2590778,0.0-19.0-0.1-0.225,A11S8IAAVDXCUS,3B623HUYK76FV1575X2NKKQMM9B8SL,3A1COHJ8NNBTRBPLK5VQ5QF77AS8HV,2,1
226,2,object_09,object_07,858.90000000037,3,1,989.69999999925,0.2222222222222222,1,object_02,1,3214,0,2,6,forest_5,2,memory-2step-stake-s,715,2599190,0.0-19.0-0.1-0.226,A11S8IAAVDXCUS,3B623HUYK76FV1575X2NKKQMM9B8SL,3A1COHJ8NNBTRBPLK5VQ5QF77AS8HV,3,4
227,1,object_01,object_10,819.59999999963,1,1,502.09999999963,0.1111111111111111,1,object_02,1,3215,0,1,6,desert_4,2,memory-2step-stake-s,716,2607009,0.0-19.0-0.1-0.227,A11S8IAAVDXCUS,3B623HUYK76FV1575X2NKKQMM9B8SL,3A1COHJ8NNBTRBPLK5VQ5QF77AS8HV,1,2
228,3,object_08,object_06,863.79999999888,5,2,-1.0,0.0,1,object_02,1,3215,0,2,7,library_3,2,memory-2step-stake-s,717,2615524,0.0-19.0-0.1-0.228,A11S8IAAVDXCUS,3B623HUYK76FV1575X2NKKQMM9B8SL,3A1COHJ8NNBTRBPLK5VQ5QF77AS8HV,6,5
229,1,object_01,object_10,91.099999999627,1,1,399.90000000037,0.3333333333333333,1,object_02,5,3230,0,3,7,desert_5,2,memory-2step-stake-s,718,2623445,0.0-19.0-0.1-0.229,A11S8IAAVDXCUS,3B623HUYK76FV1575X2NKKQMM9B8SL,3A1COHJ8NNBTRBPLK5VQ5QF77AS8HV,1,2
230,3,object_08,object_06,360.69999999925,5,2,787.0,0.3333333333333333,1,object_02,1,3233,0,3,8,library_6,2,memory-2step-stake-s,719,2631748,0.0-19.0-0.1-0.230,A11S8IAAVDXCUS,3B623HUYK76FV1575X2NKKQMM9B8SL,3A1COHJ8NNBTRBPLK5VQ5QF77AS8HV,6,5
231,3,object_06,object_08,458.20000000112,5,1,678.60000000149,0.4444444444444444,1,object_02,5,3253,0,4,7,library_6,2,memory-2step-stake-s,720,2640045,0.0-19.0-0.1-0.231,A11S8IAAVDXCUS,3B623HUYK76FV1575X2NKKQMM9B8SL,3A1COHJ8NNBTRBPLK5VQ5QF77AS8HV,5,6
232,1,object_01,object_10,297.69999999925,1,1,579.69999999925,0.2222222222222222,1,object_02,5,3263,0,2,5,desert_4,2,memory-2step-stake-s,721,2648042,0.0-19.0-0.1-0.232,A11S8IAAVDXCUS,3B623HUYK76FV1575X2NKKQMM9B8SL,3A1COHJ8NNBTRBPLK5VQ5QF77AS8HV,1,2
233,3,object_08,object_06,532.09999999963,5,2,920.0,0.0,1,object_02,1,3263,0,0,4,library_4,2,memory-2step-stake-s,722,2656175,0.0-19.0-0.1-0.233,A11S8IAAVDXCUS,3B623HUYK76FV1575X2NKKQMM9B8SL,3A1COHJ8NNBTRBPLK5VQ5QF77AS8HV,6,5
234,3,object_06,object_08,420.09999999963,6,2,439.90000000037,0.8888888888888888,2,object_05,1,3271,0,0,8,library_4,2,memory-2step-stake-s,723,2664636,0.0-19.0-0.1-0.234,A11S8IAAVDXCUS,3B623HUYK76FV1575X2NKKQMM9B8SL,3A1COHJ8NNBTRBPLK5VQ5QF77AS8HV,5,6
235,4,object_03,object_04,911.20000000112,8,1,1473.3000000007,0.6666666666666666,2,object_05,1,3277,0,3,6,restaurant_5,2,memory-2step-stake-s,724,2673928,0.0-19.0-0.1-0.235,A11S8IAAVDXCUS,3B623HUYK76FV1575X2NKKQMM9B8SL,3A1COHJ8NNBTRBPLK5VQ5QF77AS8HV,8,7
236,1,object_01,object_10,584.79999999888,1,1,714.0,0.3333333333333333,1,object_02,5,3292,0,3,6,desert_8,2,memory-2step-stake-s,725,2682173,0.0-19.0-0.1-0.236,A11S8IAAVDXCUS,3B623HUYK76FV1575X2NKKQMM9B8SL,3A1COHJ8NNBTRBPLK5VQ5QF77AS8HV,1,2
237,1,object_01,object_10,179.5,1,1,-1.0,0.0,1,object_02,5,3292,0,5,5,desert_4,2,memory-2step-stake-s,726,2690695,0.0-19.0-0.1-0.237,A11S8IAAVDXCUS,3B623HUYK76FV1575X2NKKQMM9B8SL,3A1COHJ8NNBTRBPLK5VQ5QF77AS8HV,1,2
238,2,object_07,object_09,349.30000000075,4,1,185.40000000037,0.6666666666666666,2,object_05,5,3322,0,3,6,forest_6,2,memory-2step-stake-s,727,2698700,0.0-19.0-0.1-0.238,A11S8IAAVDXCUS,3B623HUYK76FV1575X2NKKQMM9B8SL,3A1COHJ8NNBTRBPLK5VQ5QF77AS8HV,4,3
239,3,object_06,object_08,-1.0,-1,-1,-1.0,0.0,-,0,1,3322,0,2,8,library_6,2,memory-2step-stake-s,728,2705208,0.0-19.0-0.1-0.239,A11S8IAAVDXCUS,3B623HUYK76FV1575X2NKKQMM9B8SL,3A1COHJ8NNBTRBPLK5VQ5QF77AS8HV,5,6
240,4,object_03,object_04,215.29999999888,8,1,704.20000000112,0.7777777777777778,2,object_05,1,3329,0,5,7,restaurant_7,2,memory-2step-stake-s,729,2713841,0.0-19.0-0.1-0.240,A11S8IAAVDXCUS,3B623HUYK76FV1575X2NKKQMM9B8SL,3A1COHJ8NNBTRBPLK5VQ5QF77AS8HV,8,7
241,1,object_10,object_01,102.30000000075,2,1,209.39999999851,1.0,2,object_05,5,3374,0,5,9,desert_6,2,memory-2step-stake-s,730,2722172,0.0-19.0-0.1-0.241,A11S8IAAVDXCUS,3B623HUYK76FV1575X2NKKQMM9B8SL,3A1COHJ8NNBTRBPLK5VQ5QF77AS8HV,2,1
242,3,object_08,object_06,319.59999999963,6,1,1017.5,0.5555555555555556,2,object_05,1,3379,0,0,5,library_6,2,memory-2step-stake-s,731,2730931,0.0-19.0-0.1-0.242,A11S8IAAVDXCUS,3B623HUYK76FV1575X2NKKQMM9B8SL,3A1COHJ8NNBTRBPLK5VQ5QF77AS8HV,6,5
243,4,object_04,object_03,123.80000000075,8,2,117.5,0.5555555555555556,2,object_05,1,3384,0,2,5,restaurant_7,2,memory-2step-stake-s,732,2738782,0.0-19.0-0.1-0.243,A11S8IAAVDXCUS,3B623HUYK76FV1575X2NKKQMM9B8SL,3A1COHJ8NNBTRBPLK5VQ5QF77AS8HV,7,8
244,3,object_08,object_06,132.30000000075,6,1,509.80000000075,0.3333333333333333,2,object_05,1,3387,0,2,3,library_6,2,memory-2step-stake-s,733,2746809,0.0-19.0-0.1-0.244,A11S8IAAVDXCUS,3B623HUYK76FV1575X2NKKQMM9B8SL,3A1COHJ8NNBTRBPLK5VQ5QF77AS8HV,6,5
245,4,object_03,object_04,570.10000000149,8,1,205.19999999925,0.1111111111111111,2,object_05,5,3392,0,2,1,restaurant_5,2,memory-2step-stake-s,734,2754342,0.0-19.0-0.1-0.245,A11S8IAAVDXCUS,3B623HUYK76FV1575X2NKKQMM9B8SL,3A1COHJ8NNBTRBPLK5VQ5QF77AS8HV,8,7
246,1,object_10,object_01,646.40000000037,1,2,153.19999999925,0.0,1,object_02,5,3392,0,0,3,desert_6,2,memory-2step-stake-s,735,2761709,0.0-19.0-0.1-0.246,A11S8IAAVDXCUS,3B623HUYK76FV1575X2NKKQMM9B8SL,3A1COHJ8NNBTRBPLK5VQ5QF77AS8HV,2,1
247,3,object_06,object_08,296.29999999888,5,1,121.0,0.1111111111111111,1,object_02,1,3393,0,1,5,library_3,2,memory-2step-stake-s,736,2769147,0.0-19.0-0.1-0.247,A11S8IAAVDXCUS,3B623HUYK76FV1575X2NKKQMM9B8SL,3A1COHJ8NNBTRBPLK5VQ5QF77AS8HV,5,6
248,3,object_06,object_08,617.69999999925,6,2,397.70000000112,0.7777777777777778,2,object_05,1,3400,0,3,7,library_3,2,memory-2step-stake-s,737,2777489,0.0-19.0-0.1-0.248,A11S8IAAVDXCUS,3B623HUYK76FV1575X2NKKQMM9B8SL,3A1COHJ8NNBTRBPLK5VQ5QF77AS8HV,5,6
249,4,object_04,object_03,620.70000000112,8,2,285.69999999925,0.7777777777777778,2,object_05,1,3407,0,4,7,restaurant_5,2,memory-2step-stake-s,738,2785702,0.0-19.0-0.1-0.249,A11S8IAAVDXCUS,3B623HUYK76FV1575X2NKKQMM9B8SL,3A1COHJ8NNBTRBPLK5VQ5QF77AS8HV,7,8
250,2,object_09,object_07,666.30000000075,4,2,179.79999999888,0.6666666666666666,2,object_05,5,3437,0,4,6,forest_5,2,memory-2step-stake-s,739,2793704,0.0-19.0-0.1-0.250,A11S8IAAVDXCUS,3B623HUYK76FV1575X2NKKQMM9B8SL,3A1COHJ8NNBTRBPLK5VQ5QF77AS8HV,3,4
251,1,object_01,object_10,585.30000000075,1,1,317.40000000037,0.5555555555555556,1,object_02,5,3462,0,5,5,desert_4,2,memory-2step-stake-s,740,2801738,0.0-19.0-0.1-0.251,A11S8IAAVDXCUS,3B623HUYK76FV1575X2NKKQMM9B8SL,3A1COHJ8NNBTRBPLK5VQ5QF77AS8HV,1,2
252,4,object_04,object_03,878.90000000037,7,1,980.39999999851,0.3333333333333333,1,object_02,1,3465,0,3,2,restaurant_8,2,memory-2step-stake-s,741,2810238,0.0-19.0-0.1-0.252,A11S8IAAVDXCUS,3B623HUYK76FV1575X2NKKQMM9B8SL,3A1COHJ8NNBTRBPLK5VQ5QF77AS8HV,7,8
253,3,object_06,object_08,188.30000000075,5,1,750.09999999963,0.4444444444444444,1,object_02,5,3485,0,4,0,library_4,2,memory-2step-stake-s,742,2818609,0.0-19.0-0.1-0.253,A11S8IAAVDXCUS,3B623HUYK76FV1575X2NKKQMM9B8SL,3A1COHJ8NNBTRBPLK5VQ5QF77AS8HV,5,6
254,4,object_03,object_04,545.09999999963,7,2,321.40000000037,0.3333333333333333,1,object_02,1,3488,0,3,1,restaurant_8,2,memory-2step-stake-s,743,2826453,0.0-19.0-0.1-0.254,A11S8IAAVDXCUS,3B623HUYK76FV1575X2NKKQMM9B8SL,3A1COHJ8NNBTRBPLK5VQ5QF77AS8HV,8,7
255,1,object_01,object_10,103.40000000037,1,1,447.5,0.2222222222222222,1,object_02,5,3498,0,2,5,desert_5,2,memory-2step-stake-s,744,2834318,0.0-19.0-0.1-0.255,A11S8IAAVDXCUS,3B623HUYK76FV1575X2NKKQMM9B8SL,3A1COHJ8NNBTRBPLK5VQ5QF77AS8HV,1,2
