,state1,stim_left,stim_right,rt_1,choice1,response1,rt_2,points,state2,stim_state2,stake,score,practice,rews1,rews2,background,high_arm,trial_type,trial_index,time_elapsed,internal_node_id,subid,hitid,assignmentid,stim_left_num,stim_right_num
0,4,object_07,object_01,783.5,7,1,-1.0,0.0,1,object_03,5,0,0,0,3,restaurant_2,1,memory-2step-stake-s,499,877453,0.0-19.0-0.0-0.0,A38GFVEBNQNSUJ,3YO4AH2FQG0L0WLRIP03W553LNE0Q1,3F6KKYWMNFHXI27N4B1JW2Q44E5NDY,7,8
1,3,object_04,object_02,652.20000000298,5,1,345.89999999106,0.2222222222222222,1,object_03,5,10,0,2,1,library_7,1,memory-2step-stake-s,500,885257,0.0-19.0-0.0-0.1,A38GFVEBNQNSUJ,3YO4AH2FQG0L0WLRIP03W553LNE0Q1,3F6KKYWMNFHXI27N4B1JW2Q44E5NDY,5,6
2,3,object_04,object_02,625.79999999702,5,1,448.0,0.1111111111111111,1,object_03,5,15,0,1,0,library_4,1,memory-2step-stake-s,501,893066,0.0-19.0-0.0-0.2,A38GFVEBNQNSUJ,3YO4AH2FQG0L0WLRIP03W553LNE0Q1,3F6KKYWMNFHXI27N4B1JW2Q44E5NDY,5,6
3,3,object_02,object_04,537.59999999404,6,1,337.69999998808,0.2222222222222222,2,object_05,5,25,0,2,2,library_4,1,memory-2step-stake-s,502,900883,0.0-19.0-0.0-0.3,A38GFVEBNQNSUJ,3YO4AH2FQG0L0WLRIP03W553LNE0Q1,3F6KKYWMNFHXI27N4B1JW2Q44E5NDY,6,5
4,1,object_10,object_09,961.89999999106,1,2,315.70000000298,0.1111111111111111,1,object_03,1,26,0,1,5,desert_8,1,memory-2step-stake-s,503,908597,0.0-19.0-0.0-0.4,A38GFVEBNQNSUJ,3YO4AH2FQG0L0WLRIP03W553LNE0Q1,3F6KKYWMNFHXI27N4B1JW2Q44E5NDY,2,1
5,2,object_06,object_08,729.29999999702,3,1,284.5,0.3333333333333333,1,object_03,1,29,0,3,6,forest_7,1,memory-2step-stake-s,504,916474,0.0-19.0-0.0-0.5,A38GFVEBNQNSUJ,3YO4AH2FQG0L0WLRIP03W553LNE0Q1,3F6KKYWMNFHXI27N4B1JW2Q44E5NDY,3,4
6,3,object_04,object_02,692.5,6,2,438.19999998808,0.4444444444444444,2,object_05,5,49,0,0,4,library_3,1,memory-2step-stake-s,505,924635,0.0-19.0-0.0-0.6,A38GFVEBNQNSUJ,3YO4AH2FQG0L0WLRIP03W553LNE0Q1,3F6KKYWMNFHXI27N4B1JW2Q44E5NDY,5,6
7,3,object_02,object_04,1016.3999999911,6,1,320.89999999106,0.2222222222222222,2,object_05,5,59,0,2,2,library_3,1,memory-2step-stake-s,506,932453,0.0-19.0-0.0-0.7,A38GFVEBNQNSUJ,3YO4AH2FQG0L0WLRIP03W553LNE0Q1,3F6KKYWMNFHXI27N4B1JW2Q44E5NDY,6,5
8,2,object_08,object_06,821.70000000298,4,1,236.0,0.1111111111111111,2,object_05,1,60,0,3,1,forest_3,1,memory-2step-stake-s,507,940072,0.0-19.0-0.0-0.8,A38GFVEBNQNSUJ,3YO4AH2FQG0L0WLRIP03W553LNE0Q1,3F6KKYWMNFHXI27N4B1JW2Q44E5NDY,4,3
9,3,object_04,object_02,628.40000000596,6,2,302.60000000894,0.3333333333333333,2,object_05,5,75,0,1,3,library_6,1,memory-2step-stake-s,508,947980,0.0-19.0-0.0-0.9,A38GFVEBNQNSUJ,3YO4AH2FQG0L0WLRIP03W553LNE0Q1,3F6KKYWMNFHXI27N4B1JW2Q44E5NDY,5,6
10,4,object_01,object_07,912.59999999404,7,2,304.70000000298,0.0,1,object_03,5,75,0,0,2,restaurant_8,1,memory-2step-stake-s,509,955544,0.0-19.0-0.0-0.10,A38GFVEBNQNSUJ,3YO4AH2FQG0L0WLRIP03W553LNE0Q1,3F6KKYWMNFHXI27N4B1JW2Q44E5NDY,8,7
11,1,object_10,object_09,562.0,2,1,279.60000000894,0.1111111111111111,2,object_05,1,76,0,0,1,desert_8,1,memory-2step-stake-s,510,963203,0.0-19.0-0.0-0.11,A38GFVEBNQNSUJ,3YO4AH2FQG0L0WLRIP03W553LNE0Q1,3F6KKYWMNFHXI27N4B1JW2Q44E5NDY,2,1
12,2,object_06,object_08,815.69999998808,4,2,440.70000000298,0.1111111111111111,2,object_05,1,77,0,1,1,forest_7,1,memory-2step-stake-s,511,971009,0.0-19.0-0.0-0.12,A38GFVEBNQNSUJ,3YO4AH2FQG0L0WLRIP03W553LNE0Q1,3F6KKYWMNFHXI27N4B1JW2Q44E5NDY,3,4
13,4,object_07,object_01,815.5,8,2,260.5,0.1111111111111111,2,object_05,1,78,0,3,1,restaurant_6,1,memory-2step-stake-s,512,978619,0.0-19.0-0.0-0.13,A38GFVEBNQNSUJ,3YO4AH2FQG0L0WLRIP03W553LNE0Q1,3F6KKYWMNFHXI27N4B1JW2Q44E5NDY,7,8
14,4,object_07,object_01,590.40000000596,7,1,330.20000000298,0.3333333333333333,1,object_03,5,93,0,3,0,restaurant_2,1,memory-2step-stake-s,513,986524,0.0-19.0-0.0-0.14,A38GFVEBNQNSUJ,3YO4AH2FQG0L0WLRIP03W553LNE0Q1,3F6KKYWMNFHXI27N4B1JW2Q44E5NDY,7,8
15,1,object_09,object_10,864.60000000894,1,1,311.5,0.5555555555555556,1,object_03,5,118,0,5,4,desert_2,1,memory-2step-stake-s,514,994651,0.0-19.0-0.0-0.15,A38GFVEBNQNSUJ,3YO4AH2FQG0L0WLRIP03W553LNE0Q1,3F6KKYWMNFHXI27N4B1JW2Q44E5NDY,1,2
16,2,object_08,object_06,661.20000000298,3,2,288.20000000298,1.0,1,object_03,1,127,0,9,5,forest_3,1,memory-2step-stake-s,515,1003228,0.0-19.0-0.0-0.16,A38GFVEBNQNSUJ,3YO4AH2FQG0L0WLRIP03W553LNE0Q1,3F6KKYWMNFHXI27N4B1JW2Q44E5NDY,4,3
17,2,object_06,object_08,561.10000000894,4,2,253.09999999404,0.3333333333333333,2,object_05,1,130,0,8,3,forest_8,1,memory-2step-stake-s,516,1011091,0.0-19.0-0.0-0.17,A38GFVEBNQNSUJ,3YO4AH2FQG0L0WLRIP03W553LNE0Q1,3F6KKYWMNFHXI27N4B1JW2Q44E5NDY,3,4
18,4,object_07,object_01,733.70000000298,7,1,249.60000000894,0.8888888888888888,1,object_03,5,170,0,8,2,restaurant_2,1,memory-2step-stake-s,517,1019503,0.0-19.0-0.0-0.18,A38GFVEBNQNSUJ,3YO4AH2FQG0L0WLRIP03W553LNE0Q1,3F6KKYWMNFHXI27N4B1JW2Q44E5NDY,7,8
19,4,object_01,object_07,894.0,8,1,272.20000000298,0.1111111111111111,2,object_05,1,171,0,8,1,restaurant_5,1,memory-2step-stake-s,518,1027161,0.0-19.0-0.0-0.19,A38GFVEBNQNSUJ,3YO4AH2FQG0L0WLRIP03W553LNE0Q1,3F6KKYWMNFHXI27N4B1JW2Q44E5NDY,8,7
20,3,object_02,object_04,794.60000000894,5,2,295.40000000596,0.7777777777777778,1,object_03,5,206,0,7,2,library_3,1,memory-2step-stake-s,519,1035523,0.0-19.0-0.0-0.20,A38GFVEBNQNSUJ,3YO4AH2FQG0L0WLRIP03W553LNE0Q1,3F6KKYWMNFHXI27N4B1JW2Q44E5NDY,6,5
21,4,object_07,object_01,1326.400000006,7,1,322.40000000596,0.6666666666666666,1,object_03,1,212,0,6,0,restaurant_5,1,memory-2step-stake-s,520,1043752,0.0-19.0-0.0-0.21,A38GFVEBNQNSUJ,3YO4AH2FQG0L0WLRIP03W553LNE0Q1,3F6KKYWMNFHXI27N4B1JW2Q44E5NDY,7,8
22,2,object_06,object_08,1018.200000003,3,1,282.5,0.5555555555555556,1,object_03,1,217,0,5,3,forest_7,1,memory-2step-stake-s,521,1051857,0.0-19.0-0.0-0.22,A38GFVEBNQNSUJ,3YO4AH2FQG0L0WLRIP03W553LNE0Q1,3F6KKYWMNFHXI27N4B1JW2Q44E5NDY,3,4
23,1,object_09,object_10,847.79999999702,2,2,338.5,0.5555555555555556,2,object_05,1,222,0,3,5,desert_5,1,memory-2step-stake-s,522,1059993,0.0-19.0-0.0-0.23,A38GFVEBNQNSUJ,3YO4AH2FQG0L0WLRIP03W553LNE0Q1,3F6KKYWMNFHXI27N4B1JW2Q44E5NDY,1,2
24,2,object_08,object_06,908.79999999702,4,1,313.0,0.8888888888888888,2,object_05,1,230,0,5,8,forest_7,1,memory-2step-stake-s,523,1068429,0.0-19.0-0.0-0.24,A38GFVEBNQNSUJ,3YO4AH2FQG0L0WLRIP03W553LNE0Q1,3F6KKYWMNFHXI27N4B1JW2Q44E5NDY,4,3
25,4,object_07,object_01,1340.799999997,8,2,346.39999999106,0.8888888888888888,2,object_05,5,270,0,3,8,restaurant_8,1,memory-2step-stake-s,524,1076948,0.0-19.0-0.0-0.25,A38GFVEBNQNSUJ,3YO4AH2FQG0L0WLRIP03W553LNE0Q1,3F6KKYWMNFHXI27N4B1JW2Q44E5NDY,7,8
26,1,object_10,object_09,823.59999999404,1,2,344.29999999702,0.2222222222222222,1,object_03,5,280,0,2,9,desert_8,1,memory-2step-stake-s,525,1084782,0.0-19.0-0.0-0.26,A38GFVEBNQNSUJ,3YO4AH2FQG0L0WLRIP03W553LNE0Q1,3F6KKYWMNFHXI27N4B1JW2Q44E5NDY,2,1
27,1,object_09,object_10,592.5,1,1,299.40000000596,0.6666666666666666,1,object_03,5,310,0,6,6,desert_8,1,memory-2step-stake-s,526,1093000,0.0-19.0-0.0-0.27,A38GFVEBNQNSUJ,3YO4AH2FQG0L0WLRIP03W553LNE0Q1,3F6KKYWMNFHXI27N4B1JW2Q44E5NDY,1,2
28,3,object_04,object_02,803.09999999404,6,2,401.09999999404,0.6666666666666666,2,object_05,1,316,0,6,6,library_6,1,memory-2step-stake-s,527,1101323,0.0-19.0-0.0-0.28,A38GFVEBNQNSUJ,3YO4AH2FQG0L0WLRIP03W553LNE0Q1,3F6KKYWMNFHXI27N4B1JW2Q44E5NDY,5,6
29,1,object_09,object_10,827.80000001192,2,2,506.10000000894,0.4444444444444444,2,object_05,1,320,0,9,4,desert_5,1,memory-2step-stake-s,528,1109563,0.0-19.0-0.0-0.29,A38GFVEBNQNSUJ,3YO4AH2FQG0L0WLRIP03W553LNE0Q1,3F6KKYWMNFHXI27N4B1JW2Q44E5NDY,1,2
30,2,object_06,object_08,656.29999999702,4,2,914.60000000894,0.4444444444444444,2,object_05,1,324,0,6,4,forest_3,1,memory-2step-stake-s,529,1118215,0.0-19.0-0.0-0.30,A38GFVEBNQNSUJ,3YO4AH2FQG0L0WLRIP03W553LNE0Q1,3F6KKYWMNFHXI27N4B1JW2Q44E5NDY,3,4
31,1,object_09,object_10,676.79999999702,1,1,398.29999999702,0.7777777777777778,1,object_03,1,331,0,7,2,desert_8,1,memory-2step-stake-s,530,1126688,0.0-19.0-0.0-0.31,A38GFVEBNQNSUJ,3YO4AH2FQG0L0WLRIP03W553LNE0Q1,3F6KKYWMNFHXI27N4B1JW2Q44E5NDY,1,2
32,2,object_08,object_06,486.09999999404,3,2,296.90000000596,0.6666666666666666,1,object_03,1,337,0,6,1,forest_8,1,memory-2step-stake-s,531,1134900,0.0-19.0-0.0-0.32,A38GFVEBNQNSUJ,3YO4AH2FQG0L0WLRIP03W553LNE0Q1,3F6KKYWMNFHXI27N4B1JW2Q44E5NDY,4,3
33,4,object_07,object_01,912.09999999404,8,2,276.39999999106,0.0,2,object_05,5,337,0,7,0,restaurant_5,1,memory-2step-stake-s,532,1142445,0.0-19.0-0.0-0.33,A38GFVEBNQNSUJ,3YO4AH2FQG0L0WLRIP03W553LNE0Q1,3F6KKYWMNFHXI27N4B1JW2Q44E5NDY,7,8
34,4,object_01,object_07,632.40000000596,7,2,302.20000000298,0.7777777777777778,1,object_03,5,372,0,7,1,restaurant_6,1,memory-2step-stake-s,533,1150741,0.0-19.0-0.0-0.34,A38GFVEBNQNSUJ,3YO4AH2FQG0L0WLRIP03W553LNE0Q1,3F6KKYWMNFHXI27N4B1JW2Q44E5NDY,8,7
35,4,object_01,object_07,904.0,7,2,349.5,0.5555555555555556,1,object_03,1,377,0,5,3,restaurant_5,1,memory-2step-stake-s,534,1158901,0.0-19.0-0.0-0.35,A38GFVEBNQNSUJ,3YO4AH2FQG0L0WLRIP03W553LNE0Q1,3F6KKYWMNFHXI27N4B1JW2Q44E5NDY,8,7
36,3,object_04,object_02,598.19999998808,6,2,275.70000000298,0.2222222222222222,2,object_05,5,387,0,4,2,library_3,1,memory-2step-stake-s,535,1166673,0.0-19.0-0.0-0.36,A38GFVEBNQNSUJ,3YO4AH2FQG0L0WLRIP03W553LNE0Q1,3F6KKYWMNFHXI27N4B1JW2Q44E5NDY,5,6
37,4,object_07,object_01,987.60000000894,7,1,359.59999999404,0.6666666666666666,1,object_03,1,393,0,6,3,restaurant_6,1,memory-2step-stake-s,536,1174928,0.0-19.0-0.0-0.37,A38GFVEBNQNSUJ,3YO4AH2FQG0L0WLRIP03W553LNE0Q1,3F6KKYWMNFHXI27N4B1JW2Q44E5NDY,7,8
38,1,object_09,object_10,747.0,1,1,382.0,0.4444444444444444,1,object_03,1,397,0,4,1,desert_5,1,memory-2step-stake-s,537,1182989,0.0-19.0-0.0-0.38,A38GFVEBNQNSUJ,3YO4AH2FQG0L0WLRIP03W553LNE0Q1,3F6KKYWMNFHXI27N4B1JW2Q44E5NDY,1,2
39,4,object_07,object_01,751.29999999702,8,2,399.29999999702,0.1111111111111111,2,object_05,5,402,0,1,1,restaurant_8,1,memory-2step-stake-s,538,1190796,0.0-19.0-0.0-0.39,A38GFVEBNQNSUJ,3YO4AH2FQG0L0WLRIP03W553LNE0Q1,3F6KKYWMNFHXI27N4B1JW2Q44E5NDY,7,8
40,2,object_08,object_06,724.10000000894,4,1,103.90000000596,0.1111111111111111,2,object_05,5,407,0,1,1,forest_3,1,memory-2step-stake-s,539,1198292,0.0-19.0-0.0-0.40,A38GFVEBNQNSUJ,3YO4AH2FQG0L0WLRIP03W553LNE0Q1,3F6KKYWMNFHXI27N4B1JW2Q44E5NDY,4,3
41,2,object_06,object_08,746.40000000596,3,1,235.90000000596,0.8888888888888888,1,object_03,5,447,0,8,2,forest_3,1,memory-2step-stake-s,540,1206646,0.0-19.0-0.0-0.41,A38GFVEBNQNSUJ,3YO4AH2FQG0L0WLRIP03W553LNE0Q1,3F6KKYWMNFHXI27N4B1JW2Q44E5NDY,3,4
42,4,object_07,object_01,877.10000000894,8,2,145.30000001192,0.2222222222222222,2,object_05,5,457,0,5,2,restaurant_5,1,memory-2step-stake-s,541,1214256,0.0-19.0-0.0-0.42,A38GFVEBNQNSUJ,3YO4AH2FQG0L0WLRIP03W553LNE0Q1,3F6KKYWMNFHXI27N4B1JW2Q44E5NDY,7,8
43,4,object_01,object_07,688.60000000894,7,2,55.399999991059,0.8888888888888888,1,object_03,5,497,0,8,2,restaurant_2,1,memory-2step-stake-s,542,1222461,0.0-19.0-0.0-0.43,A38GFVEBNQNSUJ,3YO4AH2FQG0L0WLRIP03W553LNE0Q1,3F6KKYWMNFHXI27N4B1JW2Q44E5NDY,8,7
44,4,object_01,object_07,709.5,7,2,151.10000000894,0.5555555555555556,1,object_03,5,522,0,5,2,restaurant_5,1,memory-2step-stake-s,543,1230381,0.0-19.0-0.0-0.44,A38GFVEBNQNSUJ,3YO4AH2FQG0L0WLRIP03W553LNE0Q1,3F6KKYWMNFHXI27N4B1JW2Q44E5NDY,8,7
45,4,object_07,object_01,741.70000000298,8,2,81.40000000596,0.3333333333333333,2,object_05,5,537,0,5,3,restaurant_5,1,memory-2step-stake-s,544,1238032,0.0-19.0-0.0-0.45,A38GFVEBNQNSUJ,3YO4AH2FQG0L0WLRIP03W553LNE0Q1,3F6KKYWMNFHXI27N4B1JW2Q44E5NDY,7,8
46,1,object_09,object_10,858.39999999106,2,2,343.60000000894,0.0,2,object_05,1,537,0,6,0,desert_2,1,memory-2step-stake-s,545,1245639,0.0-19.0-0.0-0.46,A38GFVEBNQNSUJ,3YO4AH2FQG0L0WLRIP03W553LNE0Q1,3F6KKYWMNFHXI27N4B1JW2Q44E5NDY,1,2
47,3,object_04,object_02,718.59999999404,5,1,223.39999999106,0.3333333333333333,1,object_03,5,552,0,3,5,library_7,1,memory-2step-stake-s,546,1253442,0.0-19.0-0.0-0.47,A38GFVEBNQNSUJ,3YO4AH2FQG0L0WLRIP03W553LNE0Q1,3F6KKYWMNFHXI27N4B1JW2Q44E5NDY,5,6
48,3,object_02,object_04,899.59999999404,6,1,322.80000001192,0.5555555555555556,2,object_05,1,557,0,3,5,library_3,1,memory-2step-stake-s,547,1261581,0.0-19.0-0.0-0.48,A38GFVEBNQNSUJ,3YO4AH2FQG0L0WLRIP03W553LNE0Q1,3F6KKYWMNFHXI27N4B1JW2Q44E5NDY,6,5
49,2,object_06,object_08,909.20000000298,3,1,190.60000000894,0.1111111111111111,1,object_03,1,558,0,1,5,forest_8,1,memory-2step-stake-s,548,1269137,0.0-19.0-0.0-0.49,A38GFVEBNQNSUJ,3YO4AH2FQG0L0WLRIP03W553LNE0Q1,3F6KKYWMNFHXI27N4B1JW2Q44E5NDY,3,4
50,1,object_09,object_10,1057.3999999911,1,1,318.19999998808,0.4444444444444444,1,object_03,5,578,0,4,4,desert_2,1,memory-2step-stake-s,549,1277156,0.0-19.0-0.0-0.50,A38GFVEBNQNSUJ,3YO4AH2FQG0L0WLRIP03W553LNE0Q1,3F6KKYWMNFHXI27N4B1JW2Q44E5NDY,1,2
51,3,object_04,object_02,787.69999998808,5,1,389.5,0.1111111111111111,1,object_03,5,583,0,1,2,library_3,1,memory-2step-stake-s,550,1284934,0.0-19.0-0.0-0.51,A38GFVEBNQNSUJ,3YO4AH2FQG0L0WLRIP03W553LNE0Q1,3F6KKYWMNFHXI27N4B1JW2Q44E5NDY,5,6
52,1,object_10,object_09,908.5,2,1,249.5,0.1111111111111111,2,object_05,5,588,0,1,1,desert_2,1,memory-2step-stake-s,551,1292582,0.0-19.0-0.0-0.52,A38GFVEBNQNSUJ,3YO4AH2FQG0L0WLRIP03W553LNE0Q1,3F6KKYWMNFHXI27N4B1JW2Q44E5NDY,2,1
53,4,object_01,object_07,825.20000000298,8,1,356.10000000894,0.2222222222222222,2,object_05,5,598,0,4,2,restaurant_5,1,memory-2step-stake-s,552,1300412,0.0-19.0-0.0-0.53,A38GFVEBNQNSUJ,3YO4AH2FQG0L0WLRIP03W553LNE0Q1,3F6KKYWMNFHXI27N4B1JW2Q44E5NDY,8,7
54,3,object_04,object_02,819.39999999106,6,2,386.09999999404,0.1111111111111111,2,object_05,1,599,0,5,1,library_4,1,memory-2step-stake-s,553,1308175,0.0-19.0-0.0-0.54,A38GFVEBNQNSUJ,3YO4AH2FQG0L0WLRIP03W553LNE0Q1,3F6KKYWMNFHXI27N4B1JW2Q44E5NDY,5,6
55,2,object_06,object_08,845.09999999404,3,1,2.6999999880791,0.5555555555555556,1,object_03,1,604,0,5,1,forest_3,1,memory-2step-stake-s,554,1315995,0.0-19.0-0.0-0.55,A38GFVEBNQNSUJ,3YO4AH2FQG0L0WLRIP03W553LNE0Q1,3F6KKYWMNFHXI27N4B1JW2Q44E5NDY,3,4
56,2,object_06,object_08,833.29999999702,4,2,470.0,0.1111111111111111,2,object_05,1,605,0,5,1,forest_3,1,memory-2step-stake-s,555,1323858,0.0-19.0-0.0-0.56,A38GFVEBNQNSUJ,3YO4AH2FQG0L0WLRIP03W553LNE0Q1,3F6KKYWMNFHXI27N4B1JW2Q44E5NDY,3,4
57,2,object_08,object_06,641.0,4,1,370.0,0.1111111111111111,2,object_05,1,606,0,8,1,forest_2,1,memory-2step-stake-s,556,1331579,0.0-19.0-0.0-0.57,A38GFVEBNQNSUJ,3YO4AH2FQG0L0WLRIP03W553LNE0Q1,3F6KKYWMNFHXI27N4B1JW2Q44E5NDY,4,3
58,2,object_06,object_08,932.5,3,1,301.90000000596,0.6666666666666666,1,object_03,1,612,0,6,0,forest_8,1,memory-2step-stake-s,557,1339871,0.0-19.0-0.0-0.58,A38GFVEBNQNSUJ,3YO4AH2FQG0L0WLRIP03W553LNE0Q1,3F6KKYWMNFHXI27N4B1JW2Q44E5NDY,3,4
59,2,object_08,object_06,644.20000000298,3,2,528.90000000596,0.5555555555555556,1,object_03,1,617,0,5,4,forest_7,1,memory-2step-stake-s,558,1348182,0.0-19.0-0.0-0.59,A38GFVEBNQNSUJ,3YO4AH2FQG0L0WLRIP03W553LNE0Q1,3F6KKYWMNFHXI27N4B1JW2Q44E5NDY,4,3
60,4,object_01,object_07,883.20000000298,7,2,330.40000000596,0.3333333333333333,1,object_03,5,632,0,3,1,restaurant_2,1,memory-2step-stake-s,559,1356143,0.0-19.0-0.0-0.60,A38GFVEBNQNSUJ,3YO4AH2FQG0L0WLRIP03W553LNE0Q1,3F6KKYWMNFHXI27N4B1JW2Q44E5NDY,8,7
61,1,object_10,object_09,1017.900000006,1,2,295.60000000894,0.1111111111111111,1,object_03,5,637,0,1,3,desert_8,1,memory-2step-stake-s,560,1363800,0.0-19.0-0.0-0.61,A38GFVEBNQNSUJ,3YO4AH2FQG0L0WLRIP03W553LNE0Q1,3F6KKYWMNFHXI27N4B1JW2Q44E5NDY,2,1
62,3,object_04,object_02,855.70000000298,5,1,465.0,0.1111111111111111,1,object_03,5,642,0,1,4,library_7,1,memory-2step-stake-s,561,1371657,0.0-19.0-0.0-0.62,A38GFVEBNQNSUJ,3YO4AH2FQG0L0WLRIP03W553LNE0Q1,3F6KKYWMNFHXI27N4B1JW2Q44E5NDY,5,6
63,2,object_08,object_06,908.19999998808,3,2,303.60000000894,0.2222222222222222,1,object_03,1,644,0,2,6,forest_8,1,memory-2step-stake-s,562,1379442,0.0-19.0-0.0-0.63,A38GFVEBNQNSUJ,3YO4AH2FQG0L0WLRIP03W553LNE0Q1,3F6KKYWMNFHXI27N4B1JW2Q44E5NDY,4,3
64,3,object_04,object_02,780.5,5,1,198.40000000596,0.3333333333333333,1,object_03,1,647,0,3,4,library_6,1,memory-2step-stake-s,563,1387279,0.0-19.0-0.0-0.64,A38GFVEBNQNSUJ,3YO4AH2FQG0L0WLRIP03W553LNE0Q1,3F6KKYWMNFHXI27N4B1JW2Q44E5NDY,5,6
65,3,object_04,object_02,659.0,6,2,344.20000000298,0.1111111111111111,2,object_05,5,652,0,6,1,library_3,1,memory-2step-stake-s,564,1394995,0.0-19.0-0.0-0.65,A38GFVEBNQNSUJ,3YO4AH2FQG0L0WLRIP03W553LNE0Q1,3F6KKYWMNFHXI27N4B1JW2Q44E5NDY,5,6
66,4,object_07,object_01,572.20000000298,7,1,287.79999999702,0.7777777777777778,1,object_03,5,687,0,7,1,restaurant_5,1,memory-2step-stake-s,565,1403344,0.0-19.0-0.0-0.66,A38GFVEBNQNSUJ,3YO4AH2FQG0L0WLRIP03W553LNE0Q1,3F6KKYWMNFHXI27N4B1JW2Q44E5NDY,7,8
67,1,object_10,object_09,737.39999999106,1,2,360.60000000894,0.4444444444444444,1,object_03,1,691,0,4,0,desert_2,1,memory-2step-stake-s,566,1411428,0.0-19.0-0.0-0.67,A38GFVEBNQNSUJ,3YO4AH2FQG0L0WLRIP03W553LNE0Q1,3F6KKYWMNFHXI27N4B1JW2Q44E5NDY,2,1
68,3,object_04,object_02,851.89999999106,5,1,453.10000000894,0.5555555555555556,1,object_03,5,716,0,5,1,library_3,1,memory-2step-stake-s,567,1419706,0.0-19.0-0.0-0.68,A38GFVEBNQNSUJ,3YO4AH2FQG0L0WLRIP03W553LNE0Q1,3F6KKYWMNFHXI27N4B1JW2Q44E5NDY,5,6
69,4,object_07,object_01,648.90000000596,7,1,362.89999999106,0.3333333333333333,1,object_03,5,731,0,3,0,restaurant_2,1,memory-2step-stake-s,568,1427664,0.0-19.0-0.0-0.69,A38GFVEBNQNSUJ,3YO4AH2FQG0L0WLRIP03W553LNE0Q1,3F6KKYWMNFHXI27N4B1JW2Q44E5NDY,7,8
70,2,object_08,object_06,604.60000000894,4,1,9.2000000029802,0.0,2,object_05,5,731,0,1,0,forest_8,1,memory-2step-stake-s,569,1434909,0.0-19.0-0.0-0.70,A38GFVEBNQNSUJ,3YO4AH2FQG0L0WLRIP03W553LNE0Q1,3F6KKYWMNFHXI27N4B1JW2Q44E5NDY,4,3
71,2,object_06,object_08,864.29999999702,4,2,333.70000000298,0.1111111111111111,2,object_05,1,732,0,0,1,forest_2,1,memory-2step-stake-s,570,1442637,0.0-19.0-0.0-0.71,A38GFVEBNQNSUJ,3YO4AH2FQG0L0WLRIP03W553LNE0Q1,3F6KKYWMNFHXI27N4B1JW2Q44E5NDY,3,4
72,4,object_01,object_07,844.90000000596,7,2,301.69999998808,0.4444444444444444,1,object_03,5,752,0,4,2,restaurant_8,1,memory-2step-stake-s,571,1450627,0.0-19.0-0.0-0.72,A38GFVEBNQNSUJ,3YO4AH2FQG0L0WLRIP03W553LNE0Q1,3F6KKYWMNFHXI27N4B1JW2Q44E5NDY,8,7
73,2,object_08,object_06,729.70000000298,4,1,265.39999999106,0.3333333333333333,2,object_05,1,755,0,5,3,forest_7,1,memory-2step-stake-s,572,1458496,0.0-19.0-0.0-0.73,A38GFVEBNQNSUJ,3YO4AH2FQG0L0WLRIP03W553LNE0Q1,3F6KKYWMNFHXI27N4B1JW2Q44E5NDY,4,3
74,1,object_09,object_10,807.29999999702,1,1,-1.0,0.0,1,object_03,1,755,0,4,5,desert_8,1,memory-2step-stake-s,573,1467083,0.0-19.0-0.0-0.74,A38GFVEBNQNSUJ,3YO4AH2FQG0L0WLRIP03W553LNE0Q1,3F6KKYWMNFHXI27N4B1JW2Q44E5NDY,1,2
75,3,object_04,object_02,653.09999999404,6,2,-1.0,0.0,2,object_05,5,755,0,4,8,library_4,1,memory-2step-stake-s,574,1475668,0.0-19.0-0.0-0.75,A38GFVEBNQNSUJ,3YO4AH2FQG0L0WLRIP03W553LNE0Q1,3F6KKYWMNFHXI27N4B1JW2Q44E5NDY,5,6
76,2,object_08,object_06,458.60000000894,4,1,276.09999999404,1.0,2,object_05,1,764,0,2,9,forest_3,1,memory-2step-stake-s,575,1484191,0.0-19.0-0.0-0.76,A38GFVEBNQNSUJ,3YO4AH2FQG0L0WLRIP03W553LNE0Q1,3F6KKYWMNFHXI27N4B1JW2Q44E5NDY,4,3
77,1,object_09,object_10,563.40000000596,2,2,360.5,0.7777777777777778,2,object_05,1,771,0,1,7,desert_3,1,memory-2step-stake-s,576,1492564,0.0-19.0-0.0-0.77,A38GFVEBNQNSUJ,3YO4AH2FQG0L0WLRIP03W553LNE0Q1,3F6KKYWMNFHXI27N4B1JW2Q44E5NDY,1,2
78,1,object_09,object_10,480.79999999702,1,1,267.10000000894,0.0,1,object_03,5,771,0,0,8,desert_2,1,memory-2step-stake-s,577,1500071,0.0-19.0-0.0-0.78,A38GFVEBNQNSUJ,3YO4AH2FQG0L0WLRIP03W553LNE0Q1,3F6KKYWMNFHXI27N4B1JW2Q44E5NDY,1,2
79,4,object_01,object_07,668.5,8,1,106.09999999404,0.7777777777777778,2,object_05,5,806,0,2,7,restaurant_8,1,memory-2step-stake-s,578,1508246,0.0-19.0-0.0-0.79,A38GFVEBNQNSUJ,3YO4AH2FQG0L0WLRIP03W553LNE0Q1,3F6KKYWMNFHXI27N4B1JW2Q44E5NDY,8,7
80,4,object_01,object_07,550.60000000894,8,1,264.90000000596,0.6666666666666666,2,object_05,1,812,0,2,6,restaurant_8,1,memory-2step-stake-s,579,1516445,0.0-19.0-0.0-0.80,A38GFVEBNQNSUJ,3YO4AH2FQG0L0WLRIP03W553LNE0Q1,3F6KKYWMNFHXI27N4B1JW2Q44E5NDY,8,7
81,1,object_09,object_10,765.69999998808,2,2,342.30000001192,0.4444444444444444,2,object_05,5,832,0,0,4,desert_3,1,memory-2step-stake-s,580,1524491,0.0-19.0-0.0-0.81,A38GFVEBNQNSUJ,3YO4AH2FQG0L0WLRIP03W553LNE0Q1,3F6KKYWMNFHXI27N4B1JW2Q44E5NDY,1,2
82,3,object_02,object_04,644.29999999702,6,1,273.20000000298,0.3333333333333333,2,object_05,5,847,0,0,3,library_6,1,memory-2step-stake-s,581,1532347,0.0-19.0-0.0-0.82,A38GFVEBNQNSUJ,3YO4AH2FQG0L0WLRIP03W553LNE0Q1,3F6KKYWMNFHXI27N4B1JW2Q44E5NDY,6,5
83,1,object_10,object_09,727.20000000298,2,1,354.79999999702,0.5555555555555556,2,object_05,1,852,0,1,5,desert_5,1,memory-2step-stake-s,582,1540494,0.0-19.0-0.0-0.83,A38GFVEBNQNSUJ,3YO4AH2FQG0L0WLRIP03W553LNE0Q1,3F6KKYWMNFHXI27N4B1JW2Q44E5NDY,2,1
84,2,object_06,object_08,1037.6000000089,3,1,118.79999999702,0.6666666666666666,1,object_03,1,858,0,6,4,forest_2,1,memory-2step-stake-s,583,1548567,0.0-19.0-0.0-0.84,A38GFVEBNQNSUJ,3YO4AH2FQG0L0WLRIP03W553LNE0Q1,3F6KKYWMNFHXI27N4B1JW2Q44E5NDY,3,4
85,2,object_06,object_08,748.59999999404,4,2,280.89999999106,0.3333333333333333,2,object_05,1,861,0,6,3,forest_7,1,memory-2step-stake-s,584,1556473,0.0-19.0-0.0-0.85,A38GFVEBNQNSUJ,3YO4AH2FQG0L0WLRIP03W553LNE0Q1,3F6KKYWMNFHXI27N4B1JW2Q44E5NDY,3,4
86,4,object_07,object_01,748.39999999106,8,2,48.0,0.5555555555555556,2,object_05,5,886,0,9,5,restaurant_6,1,memory-2step-stake-s,585,1564333,0.0-19.0-0.0-0.86,A38GFVEBNQNSUJ,3YO4AH2FQG0L0WLRIP03W553LNE0Q1,3F6KKYWMNFHXI27N4B1JW2Q44E5NDY,7,8
87,4,object_01,object_07,626.5,8,1,162.70000000298,0.6666666666666666,2,object_05,5,916,0,8,6,restaurant_8,1,memory-2step-stake-s,586,1572469,0.0-19.0-0.0-0.87,A38GFVEBNQNSUJ,3YO4AH2FQG0L0WLRIP03W553LNE0Q1,3F6KKYWMNFHXI27N4B1JW2Q44E5NDY,8,7
88,3,object_02,object_04,863.69999998808,6,1,59.90000000596,0.6666666666666666,2,object_05,1,922,0,8,6,library_7,1,memory-2step-stake-s,587,1580500,0.0-19.0-0.0-0.88,A38GFVEBNQNSUJ,3YO4AH2FQG0L0WLRIP03W553LNE0Q1,3F6KKYWMNFHXI27N4B1JW2Q44E5NDY,6,5
89,1,object_10,object_09,628.89999999106,1,2,167.90000000596,0.7777777777777778,1,object_03,1,929,0,7,4,desert_3,1,memory-2step-stake-s,588,1588716,0.0-19.0-0.0-0.89,A38GFVEBNQNSUJ,3YO4AH2FQG0L0WLRIP03W553LNE0Q1,3F6KKYWMNFHXI27N4B1JW2Q44E5NDY,2,1
90,2,object_06,object_08,723.0,4,2,72.300000011921,0.3333333333333333,2,object_05,1,932,0,7,3,forest_3,1,memory-2step-stake-s,589,1596391,0.0-19.0-0.0-0.90,A38GFVEBNQNSUJ,3YO4AH2FQG0L0WLRIP03W553LNE0Q1,3F6KKYWMNFHXI27N4B1JW2Q44E5NDY,3,4
91,4,object_01,object_07,803.0,7,2,151.30000001192,0.6666666666666666,1,object_03,5,962,0,6,3,restaurant_6,1,memory-2step-stake-s,590,1604462,0.0-19.0-0.0-0.91,A38GFVEBNQNSUJ,3YO4AH2FQG0L0WLRIP03W553LNE0Q1,3F6KKYWMNFHXI27N4B1JW2Q44E5NDY,8,7
92,2,object_08,object_06,617.79999999702,4,1,144.70000000298,0.2222222222222222,2,object_05,1,964,0,7,2,forest_7,1,memory-2step-stake-s,591,1612087,0.0-19.0-0.0-0.92,A38GFVEBNQNSUJ,3YO4AH2FQG0L0WLRIP03W553LNE0Q1,3F6KKYWMNFHXI27N4B1JW2Q44E5NDY,4,3
93,2,object_08,object_06,743.09999999404,3,2,70.70000000298,0.3333333333333333,1,object_03,1,967,0,3,2,forest_3,1,memory-2step-stake-s,592,1619739,0.0-19.0-0.0-0.93,A38GFVEBNQNSUJ,3YO4AH2FQG0L0WLRIP03W553LNE0Q1,3F6KKYWMNFHXI27N4B1JW2Q44E5NDY,4,3
94,3,object_02,object_04,637.60000000894,5,2,130.40000000596,0.1111111111111111,1,object_03,5,972,0,1,3,library_7,1,memory-2step-stake-s,593,1627257,0.0-19.0-0.0-0.94,A38GFVEBNQNSUJ,3YO4AH2FQG0L0WLRIP03W553LNE0Q1,3F6KKYWMNFHXI27N4B1JW2Q44E5NDY,6,5
95,4,object_07,object_01,742.20000000298,7,1,213.20000000298,0.3333333333333333,1,object_03,5,987,0,3,5,restaurant_8,1,memory-2step-stake-s,594,1635027,0.0-19.0-0.0-0.95,A38GFVEBNQNSUJ,3YO4AH2FQG0L0WLRIP03W553LNE0Q1,3F6KKYWMNFHXI27N4B1JW2Q44E5NDY,7,8
96,3,object_04,object_02,798.70000000298,5,1,448.0,0.8888888888888888,1,object_03,1,995,0,8,9,library_3,1,memory-2step-stake-s,595,1643619,0.0-19.0-0.0-0.96,A38GFVEBNQNSUJ,3YO4AH2FQG0L0WLRIP03W553LNE0Q1,3F6KKYWMNFHXI27N4B1JW2Q44E5NDY,5,6
97,3,object_02,object_04,1166.8000000119,5,2,310.09999999404,0.7777777777777778,1,object_03,5,1030,0,7,8,library_7,1,memory-2step-stake-s,596,1651952,0.0-19.0-0.0-0.97,A38GFVEBNQNSUJ,3YO4AH2FQG0L0WLRIP03W553LNE0Q1,3F6KKYWMNFHXI27N4B1JW2Q44E5NDY,6,5
98,1,object_10,object_09,718.29999999702,2,1,153.80000001192,0.8888888888888888,2,object_05,5,1070,0,7,8,desert_3,1,memory-2step-stake-s,597,1660203,0.0-19.0-0.0-0.98,A38GFVEBNQNSUJ,3YO4AH2FQG0L0WLRIP03W553LNE0Q1,3F6KKYWMNFHXI27N4B1JW2Q44E5NDY,2,1
99,3,object_02,object_04,714.40000000596,6,1,140.59999999404,1.0,2,object_05,5,1115,0,5,9,library_4,1,memory-2step-stake-s,598,1668592,0.0-19.0-0.0-0.99,A38GFVEBNQNSUJ,3YO4AH2FQG0L0WLRIP03W553LNE0Q1,3F6KKYWMNFHXI27N4B1JW2Q44E5NDY,6,5
100,1,object_10,object_09,641.09999999404,1,2,73.20000000298,0.5555555555555556,1,object_03,1,1120,0,5,7,desert_2,1,memory-2step-stake-s,599,1676445,0.0-19.0-0.0-0.100,A38GFVEBNQNSUJ,3YO4AH2FQG0L0WLRIP03W553LNE0Q1,3F6KKYWMNFHXI27N4B1JW2Q44E5NDY,2,1
101,4,object_07,object_01,567.09999999404,7,1,325.79999999702,0.2222222222222222,1,object_03,5,1130,0,2,6,restaurant_2,1,memory-2step-stake-s,600,1684255,0.0-19.0-0.0-0.101,A38GFVEBNQNSUJ,3YO4AH2FQG0L0WLRIP03W553LNE0Q1,3F6KKYWMNFHXI27N4B1JW2Q44E5NDY,7,8
102,2,object_08,object_06,662.10000000894,3,2,359.70000000298,0.0,1,object_03,1,1130,0,0,6,forest_7,1,memory-2step-stake-s,601,1691904,0.0-19.0-0.0-0.102,A38GFVEBNQNSUJ,3YO4AH2FQG0L0WLRIP03W553LNE0Q1,3F6KKYWMNFHXI27N4B1JW2Q44E5NDY,4,3
103,1,object_10,object_09,510.09999999404,2,1,319.0,0.6666666666666666,2,object_05,1,1136,0,5,6,desert_3,1,memory-2step-stake-s,602,1700119,0.0-19.0-0.0-0.103,A38GFVEBNQNSUJ,3YO4AH2FQG0L0WLRIP03W553LNE0Q1,3F6KKYWMNFHXI27N4B1JW2Q44E5NDY,2,1
104,4,object_01,object_07,865.29999999702,8,1,196.59999999404,0.7777777777777778,2,object_05,5,1171,0,5,7,restaurant_6,1,memory-2step-stake-s,603,1708323,0.0-19.0-0.0-0.104,A38GFVEBNQNSUJ,3YO4AH2FQG0L0WLRIP03W553LNE0Q1,3F6KKYWMNFHXI27N4B1JW2Q44E5NDY,8,7
105,3,object_02,object_04,720.70000000298,5,2,59.399999991059,0.3333333333333333,1,object_03,5,1186,0,3,7,library_6,1,memory-2step-stake-s,604,1715936,0.0-19.0-0.0-0.105,A38GFVEBNQNSUJ,3YO4AH2FQG0L0WLRIP03W553LNE0Q1,3F6KKYWMNFHXI27N4B1JW2Q44E5NDY,6,5
106,1,object_09,object_10,460.70000000298,1,1,342.0,0.2222222222222222,1,object_03,1,1188,0,2,6,desert_8,1,memory-2step-stake-s,605,1723779,0.0-19.0-0.0-0.106,A38GFVEBNQNSUJ,3YO4AH2FQG0L0WLRIP03W553LNE0Q1,3F6KKYWMNFHXI27N4B1JW2Q44E5NDY,1,2
107,2,object_06,object_08,454.89999999106,4,2,449.70000000298,0.5555555555555556,2,object_05,1,1193,0,0,5,forest_8,1,memory-2step-stake-s,606,1731988,0.0-19.0-0.0-0.107,A38GFVEBNQNSUJ,3YO4AH2FQG0L0WLRIP03W553LNE0Q1,3F6KKYWMNFHXI27N4B1JW2Q44E5NDY,3,4
108,2,object_06,object_08,431.10000000894,3,1,152.5,0.2222222222222222,1,object_03,5,1203,0,2,6,forest_3,1,memory-2step-stake-s,607,1739631,0.0-19.0-0.0-0.108,A38GFVEBNQNSUJ,3YO4AH2FQG0L0WLRIP03W553LNE0Q1,3F6KKYWMNFHXI27N4B1JW2Q44E5NDY,3,4
109,2,object_06,object_08,480.79999999702,4,2,378.79999999702,0.6666666666666666,2,object_05,1,1209,0,4,6,forest_7,1,memory-2step-stake-s,608,1747891,0.0-19.0-0.0-0.109,A38GFVEBNQNSUJ,3YO4AH2FQG0L0WLRIP03W553LNE0Q1,3F6KKYWMNFHXI27N4B1JW2Q44E5NDY,3,4
110,1,object_10,object_09,508.29999999702,2,1,232.5,0.8888888888888888,2,object_05,1,1217,0,1,8,desert_8,1,memory-2step-stake-s,609,1756254,0.0-19.0-0.0-0.110,A38GFVEBNQNSUJ,3YO4AH2FQG0L0WLRIP03W553LNE0Q1,3F6KKYWMNFHXI27N4B1JW2Q44E5NDY,2,1
111,3,object_02,object_04,633.29999999702,6,1,63.29999999702,1.0,2,object_05,5,1262,0,1,9,library_3,1,memory-2step-stake-s,610,1764629,0.0-19.0-0.0-0.111,A38GFVEBNQNSUJ,3YO4AH2FQG0L0WLRIP03W553LNE0Q1,3F6KKYWMNFHXI27N4B1JW2Q44E5NDY,6,5
112,3,object_02,object_04,619.60000000894,5,2,332.59999999404,0.1111111111111111,1,object_03,5,1267,0,1,6,library_4,1,memory-2step-stake-s,611,1772349,0.0-19.0-0.0-0.112,A38GFVEBNQNSUJ,3YO4AH2FQG0L0WLRIP03W553LNE0Q1,3F6KKYWMNFHXI27N4B1JW2Q44E5NDY,6,5
113,1,object_10,object_09,865.0,2,1,292.70000000298,0.4444444444444444,2,object_05,1,1271,0,1,4,desert_2,1,memory-2step-stake-s,612,1780330,0.0-19.0-0.0-0.113,A38GFVEBNQNSUJ,3YO4AH2FQG0L0WLRIP03W553LNE0Q1,3F6KKYWMNFHXI27N4B1JW2Q44E5NDY,2,1
114,1,object_10,object_09,489.90000000596,1,2,397.0,0.0,1,object_03,1,1271,0,0,8,desert_5,1,memory-2step-stake-s,613,1788007,0.0-19.0-0.0-0.114,A38GFVEBNQNSUJ,3YO4AH2FQG0L0WLRIP03W553LNE0Q1,3F6KKYWMNFHXI27N4B1JW2Q44E5NDY,2,1
115,4,object_07,object_01,406.79999999702,7,1,73.0,0.1111111111111111,1,object_03,5,1276,0,1,9,restaurant_8,1,memory-2step-stake-s,614,1795436,0.0-19.0-0.0-0.115,A38GFVEBNQNSUJ,3YO4AH2FQG0L0WLRIP03W553LNE0Q1,3F6KKYWMNFHXI27N4B1JW2Q44E5NDY,7,8
116,1,object_10,object_09,698.0,1,2,362.0,0.0,1,object_03,1,1276,0,0,7,desert_2,1,memory-2step-stake-s,615,1803056,0.0-19.0-0.0-0.116,A38GFVEBNQNSUJ,3YO4AH2FQG0L0WLRIP03W553LNE0Q1,3F6KKYWMNFHXI27N4B1JW2Q44E5NDY,2,1
117,4,object_01,object_07,855.59999999404,7,2,123.60000000894,0.1111111111111111,1,object_03,5,1281,0,1,3,restaurant_8,1,memory-2step-stake-s,616,1810541,0.0-19.0-0.0-0.117,A38GFVEBNQNSUJ,3YO4AH2FQG0L0WLRIP03W553LNE0Q1,3F6KKYWMNFHXI27N4B1JW2Q44E5NDY,8,7
118,1,object_10,object_09,765.89999999106,2,1,111.40000000596,0.1111111111111111,2,object_05,1,1282,0,1,1,desert_3,1,memory-2step-stake-s,617,1818020,0.0-19.0-0.0-0.118,A38GFVEBNQNSUJ,3YO4AH2FQG0L0WLRIP03W553LNE0Q1,3F6KKYWMNFHXI27N4B1JW2Q44E5NDY,2,1
119,1,object_10,object_09,912.79999999702,1,2,212.70000000298,0.1111111111111111,1,object_03,1,1283,0,1,2,desert_5,1,memory-2step-stake-s,618,1825600,0.0-19.0-0.0-0.119,A38GFVEBNQNSUJ,3YO4AH2FQG0L0WLRIP03W553LNE0Q1,3F6KKYWMNFHXI27N4B1JW2Q44E5NDY,2,1
120,2,object_06,object_08,453.89999999106,3,1,129.29999999702,0.0,1,object_03,1,1283,0,0,1,forest_3,1,memory-2step-stake-s,619,1833022,0.0-19.0-0.0-0.120,A38GFVEBNQNSUJ,3YO4AH2FQG0L0WLRIP03W553LNE0Q1,3F6KKYWMNFHXI27N4B1JW2Q44E5NDY,3,4
121,1,object_09,object_10,894.60000000894,1,1,132.29999999702,0.1111111111111111,1,object_03,1,1284,0,1,2,desert_5,1,memory-2step-stake-s,620,1840550,0.0-19.0-0.0-0.121,A38GFVEBNQNSUJ,3YO4AH2FQG0L0WLRIP03W553LNE0Q1,3F6KKYWMNFHXI27N4B1JW2Q44E5NDY,1,2
122,2,object_06,object_08,805.89999999106,3,1,67.79999999702,0.1111111111111111,1,object_03,1,1285,0,1,5,forest_8,1,memory-2step-stake-s,621,1848001,0.0-19.0-0.0-0.122,A38GFVEBNQNSUJ,3YO4AH2FQG0L0WLRIP03W553LNE0Q1,3F6KKYWMNFHXI27N4B1JW2Q44E5NDY,3,4
123,1,object_10,object_09,837.90000000596,2,1,22.199999988079,0.3333333333333333,2,object_05,1,1288,0,0,3,desert_3,1,memory-2step-stake-s,622,1855627,0.0-19.0-0.0-0.123,A38GFVEBNQNSUJ,3YO4AH2FQG0L0WLRIP03W553LNE0Q1,3F6KKYWMNFHXI27N4B1JW2Q44E5NDY,2,1
124,3,object_04,object_02,759.0,6,2,302.40000000596,0.1111111111111111,2,object_05,5,1293,0,3,1,library_4,1,memory-2step-stake-s,623,1863318,0.0-19.0-0.0-0.124,A38GFVEBNQNSUJ,3YO4AH2FQG0L0WLRIP03W553LNE0Q1,3F6KKYWMNFHXI27N4B1JW2Q44E5NDY,5,6
125,1,object_09,object_10,637.39999999106,2,2,116.29999999702,0.1111111111111111,2,object_05,1,1294,0,4,1,desert_3,1,memory-2step-stake-s,624,1870844,0.0-19.0-0.0-0.125,A38GFVEBNQNSUJ,3YO4AH2FQG0L0WLRIP03W553LNE0Q1,3F6KKYWMNFHXI27N4B1JW2Q44E5NDY,1,2
126,3,object_04,object_02,675.39999999106,5,1,147.90000000596,1.0,1,object_03,5,1339,0,9,2,library_7,1,memory-2step-stake-s,625,1879244,0.0-19.0-0.0-0.126,A38GFVEBNQNSUJ,3YO4AH2FQG0L0WLRIP03W553LNE0Q1,3F6KKYWMNFHXI27N4B1JW2Q44E5NDY,5,6
127,3,object_04,object_02,487.70000000298,5,1,5.5999999940395,1.0,1,object_03,5,1384,0,9,3,library_6,1,memory-2step-stake-s,626,1887499,0.0-19.0-0.0-0.127,A38GFVEBNQNSUJ,3YO4AH2FQG0L0WLRIP03W553LNE0Q1,3F6KKYWMNFHXI27N4B1JW2Q44E5NDY,5,6
128,2,object_06,object_08,779.5,3,1,276.70000000298,0.7777777777777778,1,object_03,1,1391,0,7,7,forest_7,1,memory-2step-stake-s,628,2327439,0.0-19.0-0.1-0.128,A38GFVEBNQNSUJ,3YO4AH2FQG0L0WLRIP03W553LNE0Q1,3F6KKYWMNFHXI27N4B1JW2Q44E5NDY,3,4
129,3,object_02,object_04,578.60000000894,5,2,344.90000000596,0.6666666666666666,1,object_03,5,1421,0,6,6,library_4,1,memory-2step-stake-s,629,2335675,0.0-19.0-0.1-0.129,A38GFVEBNQNSUJ,3YO4AH2FQG0L0WLRIP03W553LNE0Q1,3F6KKYWMNFHXI27N4B1JW2Q44E5NDY,6,5
130,3,object_04,object_02,391.0,5,1,-1.0,0.0,1,object_03,5,1421,0,5,7,library_3,1,memory-2step-stake-s,630,2344244,0.0-19.0-0.1-0.130,A38GFVEBNQNSUJ,3YO4AH2FQG0L0WLRIP03W553LNE0Q1,3F6KKYWMNFHXI27N4B1JW2Q44E5NDY,5,6
131,4,object_01,object_07,604.80000001192,7,2,-1.0,0.0,1,object_03,5,1421,0,7,7,restaurant_6,1,memory-2step-stake-s,631,2352822,0.0-19.0-0.1-0.131,A38GFVEBNQNSUJ,3YO4AH2FQG0L0WLRIP03W553LNE0Q1,3F6KKYWMNFHXI27N4B1JW2Q44E5NDY,8,7
132,3,object_04,object_02,792.79999999702,6,2,128.10000000894,0.4444444444444444,2,object_05,5,1441,0,4,4,library_6,1,memory-2step-stake-s,632,2360618,0.0-19.0-0.1-0.132,A38GFVEBNQNSUJ,3YO4AH2FQG0L0WLRIP03W553LNE0Q1,3F6KKYWMNFHXI27N4B1JW2Q44E5NDY,5,6
133,1,object_09,object_10,559.79999999702,1,1,362.70000000298,0.2222222222222222,1,object_03,1,1443,0,2,4,desert_3,1,memory-2step-stake-s,633,2368500,0.0-19.0-0.1-0.133,A38GFVEBNQNSUJ,3YO4AH2FQG0L0WLRIP03W553LNE0Q1,3F6KKYWMNFHXI27N4B1JW2Q44E5NDY,1,2
134,3,object_04,object_02,575.60000000894,6,2,100.39999999106,0.6666666666666666,2,object_05,5,1473,0,4,6,library_7,1,memory-2step-stake-s,634,2376506,0.0-19.0-0.1-0.134,A38GFVEBNQNSUJ,3YO4AH2FQG0L0WLRIP03W553LNE0Q1,3F6KKYWMNFHXI27N4B1JW2Q44E5NDY,5,6
135,3,object_04,object_02,708.79999999702,6,2,65.199999988079,0.8888888888888888,2,object_05,5,1513,0,1,8,library_4,1,memory-2step-stake-s,635,2384752,0.0-19.0-0.1-0.135,A38GFVEBNQNSUJ,3YO4AH2FQG0L0WLRIP03W553LNE0Q1,3F6KKYWMNFHXI27N4B1JW2Q44E5NDY,5,6
136,2,object_08,object_06,760.80000001192,3,2,886.70000000298,0.0,1,object_03,5,1513,0,0,9,forest_2,1,memory-2step-stake-s,636,2392905,0.0-19.0-0.1-0.136,A38GFVEBNQNSUJ,3YO4AH2FQG0L0WLRIP03W553LNE0Q1,3F6KKYWMNFHXI27N4B1JW2Q44E5NDY,4,3
137,4,object_01,object_07,303.0,8,1,391.60000000894,0.7777777777777778,2,object_05,1,1520,0,1,7,restaurant_5,1,memory-2step-stake-s,637,2401349,0.0-19.0-0.1-0.137,A38GFVEBNQNSUJ,3YO4AH2FQG0L0WLRIP03W553LNE0Q1,3F6KKYWMNFHXI27N4B1JW2Q44E5NDY,8,7
138,4,object_01,object_07,305.0,7,2,444.20000000298,0.3333333333333333,1,object_03,5,1535,0,3,5,restaurant_5,1,memory-2step-stake-s,638,2409376,0.0-19.0-0.1-0.138,A38GFVEBNQNSUJ,3YO4AH2FQG0L0WLRIP03W553LNE0Q1,3F6KKYWMNFHXI27N4B1JW2Q44E5NDY,8,7
139,2,object_06,object_08,466.89999999106,4,2,192.60000000894,0.4444444444444444,2,object_05,1,1539,0,1,4,forest_8,1,memory-2step-stake-s,639,2417245,0.0-19.0-0.1-0.139,A38GFVEBNQNSUJ,3YO4AH2FQG0L0WLRIP03W553LNE0Q1,3F6KKYWMNFHXI27N4B1JW2Q44E5NDY,3,4
140,1,object_10,object_09,602.5,2,1,1102.1999999881,0.4444444444444444,2,object_05,1,1543,0,2,4,desert_8,1,memory-2step-stake-s,640,2426072,0.0-19.0-0.1-0.140,A38GFVEBNQNSUJ,3YO4AH2FQG0L0WLRIP03W553LNE0Q1,3F6KKYWMNFHXI27N4B1JW2Q44E5NDY,2,1
141,2,object_06,object_08,425.0,4,2,107.59999999404,0.0,2,object_05,1,1543,0,1,0,forest_2,1,memory-2step-stake-s,641,2433428,0.0-19.0-0.1-0.141,A38GFVEBNQNSUJ,3YO4AH2FQG0L0WLRIP03W553LNE0Q1,3F6KKYWMNFHXI27N4B1JW2Q44E5NDY,3,4
142,1,object_09,object_10,323.5,1,1,128.0,0.2222222222222222,1,object_03,1,1545,0,2,0,desert_3,1,memory-2step-stake-s,642,2441024,0.0-19.0-0.1-0.142,A38GFVEBNQNSUJ,3YO4AH2FQG0L0WLRIP03W553LNE0Q1,3F6KKYWMNFHXI27N4B1JW2Q44E5NDY,1,2
143,2,object_08,object_06,417.0,3,2,363.89999999106,0.1111111111111111,1,object_03,5,1550,0,1,2,forest_2,1,memory-2step-stake-s,643,2448769,0.0-19.0-0.1-0.143,A38GFVEBNQNSUJ,3YO4AH2FQG0L0WLRIP03W553LNE0Q1,3F6KKYWMNFHXI27N4B1JW2Q44E5NDY,4,3
144,2,object_08,object_06,457.70000000298,4,1,864.79999999702,0.0,2,object_05,1,1550,0,1,0,forest_8,1,memory-2step-stake-s,644,2456896,0.0-19.0-0.1-0.144,A38GFVEBNQNSUJ,3YO4AH2FQG0L0WLRIP03W553LNE0Q1,3F6KKYWMNFHXI27N4B1JW2Q44E5NDY,4,3
145,1,object_09,object_10,513.10000000894,2,2,455.20000000298,0.0,2,object_05,1,1550,0,0,0,desert_2,1,memory-2step-stake-s,645,2464620,0.0-19.0-0.1-0.145,A38GFVEBNQNSUJ,3YO4AH2FQG0L0WLRIP03W553LNE0Q1,3F6KKYWMNFHXI27N4B1JW2Q44E5NDY,1,2
146,3,object_02,object_04,444.10000000894,6,1,39.20000000298,0.0,2,object_05,5,1550,0,0,0,library_7,1,memory-2step-stake-s,646,2471921,0.0-19.0-0.1-0.146,A38GFVEBNQNSUJ,3YO4AH2FQG0L0WLRIP03W553LNE0Q1,3F6KKYWMNFHXI27N4B1JW2Q44E5NDY,6,5
147,3,object_04,object_02,873.39999999106,6,2,217.40000000596,0.3333333333333333,2,object_05,5,1565,0,0,3,library_3,1,memory-2step-stake-s,647,2479714,0.0-19.0-0.1-0.147,A38GFVEBNQNSUJ,3YO4AH2FQG0L0WLRIP03W553LNE0Q1,3F6KKYWMNFHXI27N4B1JW2Q44E5NDY,5,6
148,2,object_08,object_06,543.20000000298,4,1,149.79999999702,0.3333333333333333,2,object_05,5,1580,0,1,3,forest_8,1,memory-2step-stake-s,648,2487456,0.0-19.0-0.1-0.148,A38GFVEBNQNSUJ,3YO4AH2FQG0L0WLRIP03W553LNE0Q1,3F6KKYWMNFHXI27N4B1JW2Q44E5NDY,4,3
149,1,object_10,object_09,775.40000000596,1,2,358.59999999404,0.1111111111111111,1,object_03,1,1581,0,1,2,desert_2,1,memory-2step-stake-s,649,2495183,0.0-19.0-0.1-0.149,A38GFVEBNQNSUJ,3YO4AH2FQG0L0WLRIP03W553LNE0Q1,3F6KKYWMNFHXI27N4B1JW2Q44E5NDY,2,1
150,3,object_04,object_02,798.69999998808,5,1,93.20000000298,0.1111111111111111,1,object_03,5,1586,0,1,1,library_3,1,memory-2step-stake-s,650,2502651,0.0-19.0-0.1-0.150,A38GFVEBNQNSUJ,3YO4AH2FQG0L0WLRIP03W553LNE0Q1,3F6KKYWMNFHXI27N4B1JW2Q44E5NDY,5,6
151,4,object_07,object_01,838.5,8,2,265.90000000596,0.0,2,object_05,5,1586,0,0,0,restaurant_2,1,memory-2step-stake-s,651,2510167,0.0-19.0-0.1-0.151,A38GFVEBNQNSUJ,3YO4AH2FQG0L0WLRIP03W553LNE0Q1,3F6KKYWMNFHXI27N4B1JW2Q44E5NDY,7,8
152,4,object_07,object_01,558.69999998808,7,1,167.29999999702,0.1111111111111111,1,object_03,1,1587,0,1,1,restaurant_6,1,memory-2step-stake-s,652,2517687,0.0-19.0-0.1-0.152,A38GFVEBNQNSUJ,3YO4AH2FQG0L0WLRIP03W553LNE0Q1,3F6KKYWMNFHXI27N4B1JW2Q44E5NDY,7,8
153,4,object_01,object_07,717.40000000596,7,2,122.90000000596,0.2222222222222222,1,object_03,5,1597,0,2,2,restaurant_6,1,memory-2step-stake-s,653,2525279,0.0-19.0-0.1-0.153,A38GFVEBNQNSUJ,3YO4AH2FQG0L0WLRIP03W553LNE0Q1,3F6KKYWMNFHXI27N4B1JW2Q44E5NDY,8,7
154,2,object_06,object_08,728.5,4,2,102.39999999106,0.1111111111111111,2,object_05,5,1602,0,2,1,forest_8,1,memory-2step-stake-s,654,2532744,0.0-19.0-0.1-0.154,A38GFVEBNQNSUJ,3YO4AH2FQG0L0WLRIP03W553LNE0Q1,3F6KKYWMNFHXI27N4B1JW2Q44E5NDY,3,4
155,4,object_07,object_01,373.90000000596,7,1,219.5,0.1111111111111111,1,object_03,5,1607,0,1,6,restaurant_6,1,memory-2step-stake-s,655,2540352,0.0-19.0-0.1-0.155,A38GFVEBNQNSUJ,3YO4AH2FQG0L0WLRIP03W553LNE0Q1,3F6KKYWMNFHXI27N4B1JW2Q44E5NDY,7,8
156,2,object_06,object_08,462.39999999106,4,2,163.5,0.6666666666666666,2,object_05,1,1613,0,3,6,forest_2,1,memory-2step-stake-s,656,2548463,0.0-19.0-0.1-0.156,A38GFVEBNQNSUJ,3YO4AH2FQG0L0WLRIP03W553LNE0Q1,3F6KKYWMNFHXI27N4B1JW2Q44E5NDY,3,4
157,1,object_09,object_10,766.40000000596,1,1,23.09999999404,0.1111111111111111,1,object_03,1,1614,0,1,5,desert_3,1,memory-2step-stake-s,657,2555847,0.0-19.0-0.1-0.157,A38GFVEBNQNSUJ,3YO4AH2FQG0L0WLRIP03W553LNE0Q1,3F6KKYWMNFHXI27N4B1JW2Q44E5NDY,1,2
158,1,object_10,object_09,603.0,2,1,143.70000000298,0.3333333333333333,2,object_05,1,1617,0,0,3,desert_5,1,memory-2step-stake-s,658,2563554,0.0-19.0-0.1-0.158,A38GFVEBNQNSUJ,3YO4AH2FQG0L0WLRIP03W553LNE0Q1,3F6KKYWMNFHXI27N4B1JW2Q44E5NDY,2,1
159,2,object_06,object_08,557.60000000894,4,2,620.0,0.3333333333333333,2,object_05,1,1620,0,0,3,forest_7,1,memory-2step-stake-s,659,2571787,0.0-19.0-0.1-0.159,A38GFVEBNQNSUJ,3YO4AH2FQG0L0WLRIP03W553LNE0Q1,3F6KKYWMNFHXI27N4B1JW2Q44E5NDY,3,4
160,4,object_07,object_01,554.19999998808,7,1,384.5,0.2222222222222222,1,object_03,5,1630,0,2,6,restaurant_8,1,memory-2step-stake-s,660,2579648,0.0-19.0-0.1-0.160,A38GFVEBNQNSUJ,3YO4AH2FQG0L0WLRIP03W553LNE0Q1,3F6KKYWMNFHXI27N4B1JW2Q44E5NDY,7,8
161,3,object_04,object_02,473.60000000894,6,2,458.79999999702,0.4444444444444444,2,object_05,1,1634,0,2,4,library_7,1,memory-2step-stake-s,661,2587793,0.0-19.0-0.1-0.161,A38GFVEBNQNSUJ,3YO4AH2FQG0L0WLRIP03W553LNE0Q1,3F6KKYWMNFHXI27N4B1JW2Q44E5NDY,5,6
162,3,object_04,object_02,469.0,5,1,496.70000000298,0.1111111111111111,1,object_03,5,1639,0,1,3,library_4,1,memory-2step-stake-s,662,2595647,0.0-19.0-0.1-0.162,A38GFVEBNQNSUJ,3YO4AH2FQG0L0WLRIP03W553LNE0Q1,3F6KKYWMNFHXI27N4B1JW2Q44E5NDY,5,6
163,3,object_02,object_04,202.59999999404,5,2,467.40000000596,0.1111111111111111,1,object_03,5,1644,0,1,0,library_6,1,memory-2step-stake-s,663,2603518,0.0-19.0-0.1-0.163,A38GFVEBNQNSUJ,3YO4AH2FQG0L0WLRIP03W553LNE0Q1,3F6KKYWMNFHXI27N4B1JW2Q44E5NDY,6,5
164,2,object_06,object_08,567.70000000298,3,1,501.0,0.1111111111111111,1,object_03,1,1645,0,1,1,forest_2,1,memory-2step-stake-s,664,2611411,0.0-19.0-0.1-0.164,A38GFVEBNQNSUJ,3YO4AH2FQG0L0WLRIP03W553LNE0Q1,3F6KKYWMNFHXI27N4B1JW2Q44E5NDY,3,4
165,1,object_10,object_09,455.29999999702,1,2,598.40000000596,0.3333333333333333,1,object_03,1,1648,0,3,3,desert_5,1,memory-2step-stake-s,665,2619620,0.0-19.0-0.1-0.165,A38GFVEBNQNSUJ,3YO4AH2FQG0L0WLRIP03W553LNE0Q1,3F6KKYWMNFHXI27N4B1JW2Q44E5NDY,2,1
166,3,object_02,object_04,651.30000001192,6,1,137.69999998808,0.1111111111111111,2,object_05,5,1653,0,1,1,library_3,1,memory-2step-stake-s,666,2627168,0.0-19.0-0.1-0.166,A38GFVEBNQNSUJ,3YO4AH2FQG0L0WLRIP03W553LNE0Q1,3F6KKYWMNFHXI27N4B1JW2Q44E5NDY,6,5
167,3,object_04,object_02,527.40000000596,5,1,76.90000000596,0.2222222222222222,1,object_03,5,1663,0,2,3,library_4,1,memory-2step-stake-s,667,2634726,0.0-19.0-0.1-0.167,A38GFVEBNQNSUJ,3YO4AH2FQG0L0WLRIP03W553LNE0Q1,3F6KKYWMNFHXI27N4B1JW2Q44E5NDY,5,6
168,1,object_10,object_09,585.79999999702,1,2,575.59999999404,0.3333333333333333,1,object_03,1,1666,0,3,1,desert_8,1,memory-2step-stake-s,668,2642894,0.0-19.0-0.1-0.168,A38GFVEBNQNSUJ,3YO4AH2FQG0L0WLRIP03W553LNE0Q1,3F6KKYWMNFHXI27N4B1JW2Q44E5NDY,2,1
169,2,object_06,object_08,476.69999998808,3,1,177.0,0.4444444444444444,1,object_03,1,1670,0,4,4,forest_3,1,memory-2step-stake-s,669,2650785,0.0-19.0-0.1-0.169,A38GFVEBNQNSUJ,3YO4AH2FQG0L0WLRIP03W553LNE0Q1,3F6KKYWMNFHXI27N4B1JW2Q44E5NDY,3,4
170,3,object_02,object_04,543.20000000298,5,2,-1.0,0.0,1,object_03,1,1670,0,3,6,library_6,1,memory-2step-stake-s,670,2659359,0.0-19.0-0.1-0.170,A38GFVEBNQNSUJ,3YO4AH2FQG0L0WLRIP03W553LNE0Q1,3F6KKYWMNFHXI27N4B1JW2Q44E5NDY,6,5
171,1,object_10,object_09,349.20000000298,2,1,1004.599999994,0.6666666666666666,2,object_05,1,1676,0,3,6,desert_5,1,memory-2step-stake-s,671,2668279,0.0-19.0-0.1-0.171,A38GFVEBNQNSUJ,3YO4AH2FQG0L0WLRIP03W553LNE0Q1,3F6KKYWMNFHXI27N4B1JW2Q44E5NDY,2,1
172,1,object_10,object_09,636.70000000298,2,1,282.5,0.4444444444444444,2,object_05,5,1696,0,1,4,desert_3,1,memory-2step-stake-s,672,2676261,0.0-19.0-0.1-0.172,A38GFVEBNQNSUJ,3YO4AH2FQG0L0WLRIP03W553LNE0Q1,3F6KKYWMNFHXI27N4B1JW2Q44E5NDY,2,1
173,4,object_01,object_07,652.80000001192,8,1,184.79999999702,0.3333333333333333,2,object_05,1,1699,0,0,3,restaurant_5,1,memory-2step-stake-s,673,2684056,0.0-19.0-0.1-0.173,A38GFVEBNQNSUJ,3YO4AH2FQG0L0WLRIP03W553LNE0Q1,3F6KKYWMNFHXI27N4B1JW2Q44E5NDY,8,7
174,4,object_07,object_01,238.29999999702,8,2,401.40000000596,0.2222222222222222,2,object_05,5,1709,0,0,2,restaurant_2,1,memory-2step-stake-s,674,2691963,0.0-19.0-0.1-0.174,A38GFVEBNQNSUJ,3YO4AH2FQG0L0WLRIP03W553LNE0Q1,3F6KKYWMNFHXI27N4B1JW2Q44E5NDY,7,8
175,3,object_02,object_04,522.09999999404,6,1,156.29999999702,0.1111111111111111,2,object_05,5,1714,0,3,1,library_4,1,memory-2step-stake-s,675,2699517,0.0-19.0-0.1-0.175,A38GFVEBNQNSUJ,3YO4AH2FQG0L0WLRIP03W553LNE0Q1,3F6KKYWMNFHXI27N4B1JW2Q44E5NDY,6,5
176,2,object_06,object_08,724.0,4,2,54.29999999702,0.2222222222222222,2,object_05,5,1724,0,5,2,forest_7,1,memory-2step-stake-s,676,2707068,0.0-19.0-0.1-0.176,A38GFVEBNQNSUJ,3YO4AH2FQG0L0WLRIP03W553LNE0Q1,3F6KKYWMNFHXI27N4B1JW2Q44E5NDY,3,4
177,3,object_02,object_04,496.29999999702,6,1,144.0,0.3333333333333333,2,object_05,5,1739,0,3,3,library_4,1,memory-2step-stake-s,677,2714818,0.0-19.0-0.1-0.177,A38GFVEBNQNSUJ,3YO4AH2FQG0L0WLRIP03W553LNE0Q1,3F6KKYWMNFHXI27N4B1JW2Q44E5NDY,6,5
178,1,object_10,object_09,611.10000000894,1,2,549.70000000298,0.4444444444444444,1,object_03,1,1743,0,4,4,desert_5,1,memory-2step-stake-s,678,2723035,0.0-19.0-0.1-0.178,A38GFVEBNQNSUJ,3YO4AH2FQG0L0WLRIP03W553LNE0Q1,3F6KKYWMNFHXI27N4B1JW2Q44E5NDY,2,1
179,3,object_02,object_04,436.5,5,2,53.899999991059,0.3333333333333333,1,object_03,1,1746,0,3,7,library_6,1,memory-2step-stake-s,679,2730656,0.0-19.0-0.1-0.179,A38GFVEBNQNSUJ,3YO4AH2FQG0L0WLRIP03W553LNE0Q1,3F6KKYWMNFHXI27N4B1JW2Q44E5NDY,6,5
180,1,object_09,object_10,530.09999999404,2,2,630.90000000596,0.7777777777777778,2,object_05,1,1753,0,1,7,desert_2,1,memory-2step-stake-s,680,2739352,0.0-19.0-0.1-0.180,A38GFVEBNQNSUJ,3YO4AH2FQG0L0WLRIP03W553LNE0Q1,3F6KKYWMNFHXI27N4B1JW2Q44E5NDY,1,2
181,4,object_01,object_07,565.80000001192,8,1,146.10000000894,0.5555555555555556,2,object_05,1,1758,0,3,5,restaurant_2,1,memory-2step-stake-s,681,2747344,0.0-19.0-0.1-0.181,A38GFVEBNQNSUJ,3YO4AH2FQG0L0WLRIP03W553LNE0Q1,3F6KKYWMNFHXI27N4B1JW2Q44E5NDY,8,7
182,1,object_09,object_10,772.79999999702,1,1,318.70000000298,0.2222222222222222,1,object_03,1,1760,0,2,1,desert_5,1,memory-2step-stake-s,682,2755143,0.0-19.0-0.1-0.182,A38GFVEBNQNSUJ,3YO4AH2FQG0L0WLRIP03W553LNE0Q1,3F6KKYWMNFHXI27N4B1JW2Q44E5NDY,1,2
183,4,object_01,object_07,686.19999998808,8,1,218.79999999702,0.3333333333333333,2,object_05,5,1775,0,1,3,restaurant_2,1,memory-2step-stake-s,683,2762932,0.0-19.0-0.1-0.183,A38GFVEBNQNSUJ,3YO4AH2FQG0L0WLRIP03W553LNE0Q1,3F6KKYWMNFHXI27N4B1JW2Q44E5NDY,8,7
184,2,object_08,object_06,771.90000000596,3,2,355.09999999404,0.3333333333333333,1,object_03,1,1778,0,3,1,forest_2,1,memory-2step-stake-s,684,2770888,0.0-19.0-0.1-0.184,A38GFVEBNQNSUJ,3YO4AH2FQG0L0WLRIP03W553LNE0Q1,3F6KKYWMNFHXI27N4B1JW2Q44E5NDY,4,3
185,4,object_01,object_07,618.29999999702,8,1,463.29999999702,0.1111111111111111,2,object_05,1,1779,0,6,1,restaurant_6,1,memory-2step-stake-s,685,2778733,0.0-19.0-0.1-0.185,A38GFVEBNQNSUJ,3YO4AH2FQG0L0WLRIP03W553LNE0Q1,3F6KKYWMNFHXI27N4B1JW2Q44E5NDY,8,7
186,4,object_01,object_07,599.09999999404,7,2,138.69999998808,0.4444444444444444,1,object_03,5,1799,0,4,2,restaurant_6,1,memory-2step-stake-s,686,2786536,0.0-19.0-0.1-0.186,A38GFVEBNQNSUJ,3YO4AH2FQG0L0WLRIP03W553LNE0Q1,3F6KKYWMNFHXI27N4B1JW2Q44E5NDY,8,7
187,4,object_07,object_01,710.60000000894,8,2,84.29999999702,0.3333333333333333,2,object_05,5,1814,0,7,3,restaurant_8,1,memory-2step-stake-s,687,2794227,0.0-19.0-0.1-0.187,A38GFVEBNQNSUJ,3YO4AH2FQG0L0WLRIP03W553LNE0Q1,3F6KKYWMNFHXI27N4B1JW2Q44E5NDY,7,8
188,3,object_02,object_04,726.90000000596,6,1,410.59999999404,0.3333333333333333,2,object_05,1,1817,0,7,3,library_7,1,memory-2step-stake-s,688,2802284,0.0-19.0-0.1-0.188,A38GFVEBNQNSUJ,3YO4AH2FQG0L0WLRIP03W553LNE0Q1,3F6KKYWMNFHXI27N4B1JW2Q44E5NDY,6,5
189,4,object_01,object_07,499.5,7,2,503.70000000298,0.3333333333333333,1,object_03,1,1820,0,3,2,restaurant_8,1,memory-2step-stake-s,689,2810386,0.0-19.0-0.1-0.189,A38GFVEBNQNSUJ,3YO4AH2FQG0L0WLRIP03W553LNE0Q1,3F6KKYWMNFHXI27N4B1JW2Q44E5NDY,8,7
190,4,object_07,object_01,388.0,7,1,149.59999999404,0.1111111111111111,1,object_03,1,1821,0,1,1,restaurant_8,1,memory-2step-stake-s,690,2817879,0.0-19.0-0.1-0.190,A38GFVEBNQNSUJ,3YO4AH2FQG0L0WLRIP03W553LNE0Q1,3F6KKYWMNFHXI27N4B1JW2Q44E5NDY,7,8
191,1,object_09,object_10,626.40000000596,1,1,532.09999999404,0.2222222222222222,1,object_03,1,1823,0,2,2,desert_5,1,memory-2step-stake-s,691,2825871,0.0-19.0-0.1-0.191,A38GFVEBNQNSUJ,3YO4AH2FQG0L0WLRIP03W553LNE0Q1,3F6KKYWMNFHXI27N4B1JW2Q44E5NDY,1,2
192,3,object_02,object_04,561.70000000298,5,2,168.60000000894,0.0,1,object_03,5,1823,0,0,2,library_4,1,memory-2step-stake-s,692,2833271,0.0-19.0-0.1-0.192,A38GFVEBNQNSUJ,3YO4AH2FQG0L0WLRIP03W553LNE0Q1,3F6KKYWMNFHXI27N4B1JW2Q44E5NDY,6,5
193,1,object_09,object_10,485.40000000596,1,1,438.5,0.2222222222222222,1,object_03,1,1825,0,2,2,desert_5,1,memory-2step-stake-s,693,2841215,0.0-19.0-0.1-0.193,A38GFVEBNQNSUJ,3YO4AH2FQG0L0WLRIP03W553LNE0Q1,3F6KKYWMNFHXI27N4B1JW2Q44E5NDY,1,2
194,2,object_08,object_06,620.30000001192,4,1,239.5,0.2222222222222222,2,object_05,1,1827,0,5,2,forest_2,1,memory-2step-stake-s,694,2848995,0.0-19.0-0.1-0.194,A38GFVEBNQNSUJ,3YO4AH2FQG0L0WLRIP03W553LNE0Q1,3F6KKYWMNFHXI27N4B1JW2Q44E5NDY,4,3
195,1,object_10,object_09,274.0,1,2,160.40000000596,0.8888888888888888,1,object_03,1,1835,0,8,5,desert_3,1,memory-2step-stake-s,695,2857317,0.0-19.0-0.1-0.195,A38GFVEBNQNSUJ,3YO4AH2FQG0L0WLRIP03W553LNE0Q1,3F6KKYWMNFHXI27N4B1JW2Q44E5NDY,2,1
196,2,object_08,object_06,502.5,4,1,86.09999999404,0.2222222222222222,2,object_05,1,1837,0,9,2,forest_3,1,memory-2step-stake-s,696,2864864,0.0-19.0-0.1-0.196,A38GFVEBNQNSUJ,3YO4AH2FQG0L0WLRIP03W553LNE0Q1,3F6KKYWMNFHXI27N4B1JW2Q44E5NDY,4,3
197,3,object_02,object_04,771.79999999702,5,2,224.39999999106,0.6666666666666666,1,object_03,5,1867,0,6,1,library_6,1,memory-2step-stake-s,697,2873015,0.0-19.0-0.1-0.197,A38GFVEBNQNSUJ,3YO4AH2FQG0L0WLRIP03W553LNE0Q1,3F6KKYWMNFHXI27N4B1JW2Q44E5NDY,6,5
198,1,object_09,object_10,696.29999999702,1,1,945.10000000894,0.5555555555555556,1,object_03,1,1872,0,5,2,desert_2,1,memory-2step-stake-s,698,2881748,0.0-19.0-0.1-0.198,A38GFVEBNQNSUJ,3YO4AH2FQG0L0WLRIP03W553LNE0Q1,3F6KKYWMNFHXI27N4B1JW2Q44E5NDY,1,2
199,2,object_08,object_06,457.5,4,1,166.70000000298,0.1111111111111111,2,object_05,5,1877,0,7,1,forest_2,1,memory-2step-stake-s,699,2889305,0.0-19.0-0.1-0.199,A38GFVEBNQNSUJ,3YO4AH2FQG0L0WLRIP03W553LNE0Q1,3F6KKYWMNFHXI27N4B1JW2Q44E5NDY,4,3
200,2,object_08,object_06,569.10000000894,3,2,55.90000000596,1.0,1,object_03,1,1886,0,9,0,forest_3,1,memory-2step-stake-s,700,2897639,0.0-19.0-0.1-0.200,A38GFVEBNQNSUJ,3YO4AH2FQG0L0WLRIP03W553LNE0Q1,3F6KKYWMNFHXI27N4B1JW2Q44E5NDY,4,3
201,2,object_08,object_06,862.5,3,2,105.30000001192,0.7777777777777778,1,object_03,1,1893,0,7,1,forest_2,1,memory-2step-stake-s,701,2905816,0.0-19.0-0.1-0.201,A38GFVEBNQNSUJ,3YO4AH2FQG0L0WLRIP03W553LNE0Q1,3F6KKYWMNFHXI27N4B1JW2Q44E5NDY,4,3
202,3,object_04,object_02,851.0,5,1,19.29999999702,0.0,1,object_03,5,1893,0,0,0,library_7,1,memory-2step-stake-s,702,2913090,0.0-19.0-0.1-0.202,A38GFVEBNQNSUJ,3YO4AH2FQG0L0WLRIP03W553LNE0Q1,3F6KKYWMNFHXI27N4B1JW2Q44E5NDY,5,6
203,1,object_10,object_09,742.09999999404,1,2,365.80000001192,0.4444444444444444,1,object_03,1,1897,0,4,2,desert_3,1,memory-2step-stake-s,703,2921176,0.0-19.0-0.1-0.203,A38GFVEBNQNSUJ,3YO4AH2FQG0L0WLRIP03W553LNE0Q1,3F6KKYWMNFHXI27N4B1JW2Q44E5NDY,2,1
204,1,object_10,object_09,880.89999999106,1,2,68.0,0.0,1,object_03,1,1897,0,0,2,desert_5,1,memory-2step-stake-s,704,2928541,0.0-19.0-0.1-0.204,A38GFVEBNQNSUJ,3YO4AH2FQG0L0WLRIP03W553LNE0Q1,3F6KKYWMNFHXI27N4B1JW2Q44E5NDY,2,1
205,4,object_07,object_01,785.20000000298,7,1,126.40000000596,0.3333333333333333,1,object_03,5,1912,0,3,1,restaurant_6,1,memory-2step-stake-s,705,2936266,0.0-19.0-0.1-0.205,A38GFVEBNQNSUJ,3YO4AH2FQG0L0WLRIP03W553LNE0Q1,3F6KKYWMNFHXI27N4B1JW2Q44E5NDY,7,8
206,3,object_02,object_04,693.40000000596,6,1,28.0,0.1111111111111111,2,object_05,5,1917,0,6,1,library_7,1,memory-2step-stake-s,706,2943674,0.0-19.0-0.1-0.206,A38GFVEBNQNSUJ,3YO4AH2FQG0L0WLRIP03W553LNE0Q1,3F6KKYWMNFHXI27N4B1JW2Q44E5NDY,6,5
207,3,object_04,object_02,705.79999999702,5,1,163.40000000596,0.5555555555555556,1,object_03,5,1942,0,5,1,library_7,1,memory-2step-stake-s,707,2951655,0.0-19.0-0.1-0.207,A38GFVEBNQNSUJ,3YO4AH2FQG0L0WLRIP03W553LNE0Q1,3F6KKYWMNFHXI27N4B1JW2Q44E5NDY,5,6
208,2,object_06,object_08,588.79999999702,4,2,754.09999999404,0.1111111111111111,2,object_05,1,1943,0,5,1,forest_7,1,memory-2step-stake-s,708,2959777,0.0-19.0-0.1-0.208,A38GFVEBNQNSUJ,3YO4AH2FQG0L0WLRIP03W553LNE0Q1,3F6KKYWMNFHXI27N4B1JW2Q44E5NDY,3,4
209,4,object_07,object_01,617.30000001192,7,1,208.70000000298,1.0,1,object_03,1,1952,0,9,0,restaurant_5,1,memory-2step-stake-s,709,2968232,0.0-19.0-0.1-0.209,A38GFVEBNQNSUJ,3YO4AH2FQG0L0WLRIP03W553LNE0Q1,3F6KKYWMNFHXI27N4B1JW2Q44E5NDY,7,8
210,1,object_09,object_10,618.59999999404,2,2,111.10000000894,0.1111111111111111,2,object_05,1,1953,0,6,1,desert_8,1,memory-2step-stake-s,710,2975754,0.0-19.0-0.1-0.210,A38GFVEBNQNSUJ,3YO4AH2FQG0L0WLRIP03W553LNE0Q1,3F6KKYWMNFHXI27N4B1JW2Q44E5NDY,1,2
211,3,object_04,object_02,634.90000000596,5,1,63.09999999404,0.5555555555555556,1,object_03,5,1978,0,5,0,library_4,1,memory-2step-stake-s,711,2983644,0.0-19.0-0.1-0.211,A38GFVEBNQNSUJ,3YO4AH2FQG0L0WLRIP03W553LNE0Q1,3F6KKYWMNFHXI27N4B1JW2Q44E5NDY,5,6
212,2,object_06,object_08,538.89999999106,4,2,295.10000000894,0.1111111111111111,2,object_05,1,1979,0,7,1,forest_8,1,memory-2step-stake-s,712,2991293,0.0-19.0-0.1-0.212,A38GFVEBNQNSUJ,3YO4AH2FQG0L0WLRIP03W553LNE0Q1,3F6KKYWMNFHXI27N4B1JW2Q44E5NDY,3,4
213,2,object_08,object_06,508.5,4,1,43.79999999702,0.3333333333333333,2,object_05,5,1994,0,6,3,forest_8,1,memory-2step-stake-s,713,2998946,0.0-19.0-0.1-0.213,A38GFVEBNQNSUJ,3YO4AH2FQG0L0WLRIP03W553LNE0Q1,3F6KKYWMNFHXI27N4B1JW2Q44E5NDY,4,3
214,4,object_07,object_01,782.79999999702,8,2,139.0,0.5555555555555556,2,object_05,5,2019,0,5,5,restaurant_8,1,memory-2step-stake-s,714,3006844,0.0-19.0-0.1-0.214,A38GFVEBNQNSUJ,3YO4AH2FQG0L0WLRIP03W553LNE0Q1,3F6KKYWMNFHXI27N4B1JW2Q44E5NDY,7,8
215,1,object_10,object_09,601.10000000894,1,2,180.39999999106,0.2222222222222222,1,object_03,1,2021,0,2,3,desert_2,1,memory-2step-stake-s,715,3014483,0.0-19.0-0.1-0.215,A38GFVEBNQNSUJ,3YO4AH2FQG0L0WLRIP03W553LNE0Q1,3F6KKYWMNFHXI27N4B1JW2Q44E5NDY,2,1
216,4,object_07,object_01,709.29999999702,7,1,63.399999991059,0.0,1,object_03,5,2021,0,0,3,restaurant_2,1,memory-2step-stake-s,716,3021826,0.0-19.0-0.1-0.216,A38GFVEBNQNSUJ,3YO4AH2FQG0L0WLRIP03W553LNE0Q1,3F6KKYWMNFHXI27N4B1JW2Q44E5NDY,7,8
217,1,object_09,object_10,760.40000000596,2,2,1154.0,0.1111111111111111,2,object_05,1,2022,0,3,1,desert_8,1,memory-2step-stake-s,717,3030332,0.0-19.0-0.1-0.217,A38GFVEBNQNSUJ,3YO4AH2FQG0L0WLRIP03W553LNE0Q1,3F6KKYWMNFHXI27N4B1JW2Q44E5NDY,1,2
218,3,object_04,object_02,457.5,5,1,297.79999999702,0.3333333333333333,1,object_03,5,2037,0,3,3,library_7,1,memory-2step-stake-s,718,3038248,0.0-19.0-0.1-0.218,A38GFVEBNQNSUJ,3YO4AH2FQG0L0WLRIP03W553LNE0Q1,3F6KKYWMNFHXI27N4B1JW2Q44E5NDY,5,6
219,4,object_07,object_01,572.89999999106,7,1,163.29999999702,0.4444444444444444,1,object_03,5,2057,0,4,4,restaurant_6,1,memory-2step-stake-s,719,3046094,0.0-19.0-0.1-0.219,A38GFVEBNQNSUJ,3YO4AH2FQG0L0WLRIP03W553LNE0Q1,3F6KKYWMNFHXI27N4B1JW2Q44E5NDY,7,8
220,4,object_07,object_01,1055.6000000089,7,1,282.60000000894,0.3333333333333333,1,object_03,1,2060,0,3,5,restaurant_5,1,memory-2step-stake-s,720,3053964,0.0-19.0-0.1-0.220,A38GFVEBNQNSUJ,3YO4AH2FQG0L0WLRIP03W553LNE0Q1,3F6KKYWMNFHXI27N4B1JW2Q44E5NDY,7,8
221,3,object_04,object_02,376.60000000894,6,2,9.0999999940395,0.4444444444444444,2,object_05,5,2080,0,4,4,library_3,1,memory-2step-stake-s,721,3061696,0.0-19.0-0.1-0.221,A38GFVEBNQNSUJ,3YO4AH2FQG0L0WLRIP03W553LNE0Q1,3F6KKYWMNFHXI27N4B1JW2Q44E5NDY,5,6
222,1,object_10,object_09,508.79999999702,2,1,-1.0,0.0,2,object_05,1,2080,0,5,2,desert_5,1,memory-2step-stake-s,722,3070262,0.0-19.0-0.1-0.222,A38GFVEBNQNSUJ,3YO4AH2FQG0L0WLRIP03W553LNE0Q1,3F6KKYWMNFHXI27N4B1JW2Q44E5NDY,2,1
223,1,object_09,object_10,575.0,1,1,376.59999999404,0.3333333333333333,1,object_03,1,2083,0,3,3,desert_2,1,memory-2step-stake-s,723,3078247,0.0-19.0-0.1-0.223,A38GFVEBNQNSUJ,3YO4AH2FQG0L0WLRIP03W553LNE0Q1,3F6KKYWMNFHXI27N4B1JW2Q44E5NDY,1,2
224,3,object_04,object_02,471.79999999702,6,2,-1.0,0.0,2,object_05,1,2083,0,5,3,library_4,1,memory-2step-stake-s,724,3086801,0.0-19.0-0.1-0.224,A38GFVEBNQNSUJ,3YO4AH2FQG0L0WLRIP03W553LNE0Q1,3F6KKYWMNFHXI27N4B1JW2Q44E5NDY,5,6
225,1,object_10,object_09,542.59999999404,2,1,434.79999999702,0.2222222222222222,2,object_05,1,2085,0,6,2,desert_2,1,memory-2step-stake-s,725,3094727,0.0-19.0-0.1-0.225,A38GFVEBNQNSUJ,3YO4AH2FQG0L0WLRIP03W553LNE0Q1,3F6KKYWMNFHXI27N4B1JW2Q44E5NDY,2,1
226,2,object_08,object_06,365.39999999106,3,2,115.0,0.5555555555555556,1,object_03,1,2090,0,5,1,forest_8,1,memory-2step-stake-s,726,3102681,0.0-19.0-0.1-0.226,A38GFVEBNQNSUJ,3YO4AH2FQG0L0WLRIP03W553LNE0Q1,3F6KKYWMNFHXI27N4B1JW2Q44E5NDY,4,3
227,3,object_04,object_02,330.0,5,1,292.20000000298,0.3333333333333333,1,object_03,1,2093,0,3,0,library_6,1,memory-2step-stake-s,727,3110599,0.0-19.0-0.1-0.227,A38GFVEBNQNSUJ,3YO4AH2FQG0L0WLRIP03W553LNE0Q1,3F6KKYWMNFHXI27N4B1JW2Q44E5NDY,5,6
228,4,object_07,object_01,353.5,8,2,360.0,0.2222222222222222,2,object_05,5,2103,0,2,2,restaurant_2,1,memory-2step-stake-s,728,3118457,0.0-19.0-0.1-0.228,A38GFVEBNQNSUJ,3YO4AH2FQG0L0WLRIP03W553LNE0Q1,3F6KKYWMNFHXI27N4B1JW2Q44E5NDY,7,8
229,4,object_07,object_01,500.5,7,1,432.79999999702,0.2222222222222222,1,object_03,5,2113,0,2,2,restaurant_5,1,memory-2step-stake-s,729,3126396,0.0-19.0-0.1-0.229,A38GFVEBNQNSUJ,3YO4AH2FQG0L0WLRIP03W553LNE0Q1,3F6KKYWMNFHXI27N4B1JW2Q44E5NDY,7,8
230,2,object_06,object_08,700.5,4,2,144.29999999702,0.3333333333333333,2,object_05,1,2116,0,3,3,forest_2,1,memory-2step-stake-s,730,3134147,0.0-19.0-0.1-0.230,A38GFVEBNQNSUJ,3YO4AH2FQG0L0WLRIP03W553LNE0Q1,3F6KKYWMNFHXI27N4B1JW2Q44E5NDY,3,4
231,1,object_10,object_09,720.0,2,1,155.79999999702,0.6666666666666666,2,object_05,5,2146,0,6,6,desert_8,1,memory-2step-stake-s,731,3142275,0.0-19.0-0.1-0.231,A38GFVEBNQNSUJ,3YO4AH2FQG0L0WLRIP03W553LNE0Q1,3F6KKYWMNFHXI27N4B1JW2Q44E5NDY,2,1
232,4,object_07,object_01,797.40000000596,8,2,268.89999999106,0.6666666666666666,2,object_05,5,2176,0,4,6,restaurant_2,1,memory-2step-stake-s,732,3150486,0.0-19.0-0.1-0.232,A38GFVEBNQNSUJ,3YO4AH2FQG0L0WLRIP03W553LNE0Q1,3F6KKYWMNFHXI27N4B1JW2Q44E5NDY,7,8
233,1,object_09,object_10,823.89999999106,2,2,85.09999999404,0.7777777777777778,2,object_05,5,2211,0,5,7,desert_8,1,memory-2step-stake-s,733,3158628,0.0-19.0-0.1-0.233,A38GFVEBNQNSUJ,3YO4AH2FQG0L0WLRIP03W553LNE0Q1,3F6KKYWMNFHXI27N4B1JW2Q44E5NDY,1,2
234,4,object_07,object_01,654.20000000298,7,1,3.2000000029802,0.4444444444444444,1,object_03,1,2215,0,4,5,restaurant_6,1,memory-2step-stake-s,734,3166344,0.0-19.0-0.1-0.234,A38GFVEBNQNSUJ,3YO4AH2FQG0L0WLRIP03W553LNE0Q1,3F6KKYWMNFHXI27N4B1JW2Q44E5NDY,7,8
235,2,object_06,object_08,558.40000000596,4,2,42.0,0.2222222222222222,2,object_05,1,2217,0,5,2,forest_8,1,memory-2step-stake-s,735,3173854,0.0-19.0-0.1-0.235,A38GFVEBNQNSUJ,3YO4AH2FQG0L0WLRIP03W553LNE0Q1,3F6KKYWMNFHXI27N4B1JW2Q44E5NDY,3,4
236,3,object_02,object_04,766.59999999404,6,1,24.40000000596,0.1111111111111111,2,object_05,5,2222,0,3,1,library_6,1,memory-2step-stake-s,736,3181249,0.0-19.0-0.1-0.236,A38GFVEBNQNSUJ,3YO4AH2FQG0L0WLRIP03W553LNE0Q1,3F6KKYWMNFHXI27N4B1JW2Q44E5NDY,6,5
237,2,object_06,object_08,677.79999999702,3,1,356.90000000596,0.5555555555555556,1,object_03,1,2227,0,5,4,forest_7,1,memory-2step-stake-s,737,3189462,0.0-19.0-0.1-0.237,A38GFVEBNQNSUJ,3YO4AH2FQG0L0WLRIP03W553LNE0Q1,3F6KKYWMNFHXI27N4B1JW2Q44E5NDY,3,4
238,2,object_08,object_06,622.29999999702,3,2,857.80000001192,0.5555555555555556,1,object_03,1,2232,0,5,6,forest_3,1,memory-2step-stake-s,738,3198127,0.0-19.0-0.1-0.238,A38GFVEBNQNSUJ,3YO4AH2FQG0L0WLRIP03W553LNE0Q1,3F6KKYWMNFHXI27N4B1JW2Q44E5NDY,4,3
239,4,object_07,object_01,653.29999999702,7,1,295.60000000894,0.6666666666666666,1,object_03,5,2262,0,6,7,restaurant_5,1,memory-2step-stake-s,739,3206306,0.0-19.0-0.1-0.239,A38GFVEBNQNSUJ,3YO4AH2FQG0L0WLRIP03W553LNE0Q1,3F6KKYWMNFHXI27N4B1JW2Q44E5NDY,7,8
240,3,object_02,object_04,640.20000000298,5,2,1371.799999997,0.5555555555555556,1,object_03,1,2267,0,5,5,library_7,1,memory-2step-stake-s,740,3215517,0.0-19.0-0.1-0.240,A38GFVEBNQNSUJ,3YO4AH2FQG0L0WLRIP03W553LNE0Q1,3F6KKYWMNFHXI27N4B1JW2Q44E5NDY,6,5
241,1,object_10,object_09,412.90000000596,2,1,206.39999999106,0.6666666666666666,2,object_05,1,2273,0,8,6,desert_3,1,memory-2step-stake-s,741,3223666,0.0-19.0-0.1-0.241,A38GFVEBNQNSUJ,3YO4AH2FQG0L0WLRIP03W553LNE0Q1,3F6KKYWMNFHXI27N4B1JW2Q44E5NDY,2,1
242,4,object_01,object_07,656.59999999404,8,1,92.20000000298,0.2222222222222222,2,object_05,5,2283,0,8,2,restaurant_2,1,memory-2step-stake-s,742,3231236,0.0-19.0-0.1-0.242,A38GFVEBNQNSUJ,3YO4AH2FQG0L0WLRIP03W553LNE0Q1,3F6KKYWMNFHXI27N4B1JW2Q44E5NDY,8,7
243,2,object_06,object_08,367.39999999106,4,2,322.89999999106,0.2222222222222222,2,object_05,1,2285,0,4,2,forest_7,1,memory-2step-stake-s,743,3239010,0.0-19.0-0.1-0.243,A38GFVEBNQNSUJ,3YO4AH2FQG0L0WLRIP03W553LNE0Q1,3F6KKYWMNFHXI27N4B1JW2Q44E5NDY,3,4
244,4,object_01,object_07,577.40000000596,8,1,46.5,0.0,2,object_05,5,2285,0,5,0,restaurant_8,1,memory-2step-stake-s,744,3246329,0.0-19.0-0.1-0.244,A38GFVEBNQNSUJ,3YO4AH2FQG0L0WLRIP03W553LNE0Q1,3F6KKYWMNFHXI27N4B1JW2Q44E5NDY,8,7
245,3,object_04,object_02,783.40000000596,5,1,2.0,0.5555555555555556,1,object_03,5,2310,0,5,0,library_6,1,memory-2step-stake-s,745,3254145,0.0-19.0-0.1-0.245,A38GFVEBNQNSUJ,3YO4AH2FQG0L0WLRIP03W553LNE0Q1,3F6KKYWMNFHXI27N4B1JW2Q44E5NDY,5,6
246,3,object_04,object_02,427.5,6,2,203.20000000298,0.1111111111111111,2,object_05,5,2315,0,4,1,library_6,1,memory-2step-stake-s,746,3261732,0.0-19.0-0.1-0.246,A38GFVEBNQNSUJ,3YO4AH2FQG0L0WLRIP03W553LNE0Q1,3F6KKYWMNFHXI27N4B1JW2Q44E5NDY,5,6
247,1,object_09,object_10,680.10000000894,1,1,168.5,0.5555555555555556,1,object_03,1,2320,0,5,1,desert_8,1,memory-2step-stake-s,747,3269683,0.0-19.0-0.1-0.247,A38GFVEBNQNSUJ,3YO4AH2FQG0L0WLRIP03W553LNE0Q1,3F6KKYWMNFHXI27N4B1JW2Q44E5NDY,1,2
248,2,object_08,object_06,476.0,4,1,27.29999999702,0.0,2,object_05,5,2320,0,4,0,forest_2,1,memory-2step-stake-s,748,3276996,0.0-19.0-0.1-0.248,A38GFVEBNQNSUJ,3YO4AH2FQG0L0WLRIP03W553LNE0Q1,3F6KKYWMNFHXI27N4B1JW2Q44E5NDY,4,3
249,3,object_02,object_04,722.29999999702,5,2,145.30000001192,0.5555555555555556,1,object_03,5,2345,0,5,2,library_3,1,memory-2step-stake-s,749,3284973,0.0-19.0-0.1-0.249,A38GFVEBNQNSUJ,3YO4AH2FQG0L0WLRIP03W553LNE0Q1,3F6KKYWMNFHXI27N4B1JW2Q44E5NDY,6,5
250,3,object_02,object_04,814.30000001192,6,1,180.59999999404,0.1111111111111111,2,object_05,1,2346,0,5,1,library_6,1,memory-2step-stake-s,750,3292513,0.0-19.0-0.1-0.250,A38GFVEBNQNSUJ,3YO4AH2FQG0L0WLRIP03W553LNE0Q1,3F6KKYWMNFHXI27N4B1JW2Q44E5NDY,6,5
251,4,object_01,object_07,637.5,8,1,117.89999999106,0.4444444444444444,2,object_05,5,2366,0,5,4,restaurant_6,1,memory-2step-stake-s,751,3300294,0.0-19.0-0.1-0.251,A38GFVEBNQNSUJ,3YO4AH2FQG0L0WLRIP03W553LNE0Q1,3F6KKYWMNFHXI27N4B1JW2Q44E5NDY,8,7
252,4,object_07,object_01,751.5,8,2,718.90000000596,0.0,2,object_05,5,2366,0,2,0,restaurant_2,1,memory-2step-stake-s,752,3308258,0.0-19.0-0.1-0.252,A38GFVEBNQNSUJ,3YO4AH2FQG0L0WLRIP03W553LNE0Q1,3F6KKYWMNFHXI27N4B1JW2Q44E5NDY,7,8
253,2,object_06,object_08,532.90000000596,3,1,356.70000000298,0.4444444444444444,1,object_03,1,2370,0,4,1,forest_2,1,memory-2step-stake-s,753,3316331,0.0-19.0-0.1-0.253,A38GFVEBNQNSUJ,3YO4AH2FQG0L0WLRIP03W553LNE0Q1,3F6KKYWMNFHXI27N4B1JW2Q44E5NDY,3,4
254,1,object_09,object_10,547.70000000298,1,1,530.79999999702,0.2222222222222222,1,object_03,1,2372,0,2,1,desert_3,1,memory-2step-stake-s,754,3324376,0.0-19.0-0.1-0.254,A38GFVEBNQNSUJ,3YO4AH2FQG0L0WLRIP03W553LNE0Q1,3F6KKYWMNFHXI27N4B1JW2Q44E5NDY,1,2
255,2,object_06,object_08,484.59999999404,4,2,241.30000001192,0.2222222222222222,2,object_05,1,2374,0,3,2,forest_2,1,memory-2step-stake-s,755,3332112,0.0-19.0-0.1-0.255,A38GFVEBNQNSUJ,3YO4AH2FQG0L0WLRIP03W553LNE0Q1,3F6KKYWMNFHXI27N4B1JW2Q44E5NDY,3,4
