,state1,stim_left,stim_right,rt_1,choice1,response1,rt_2,points,state2,stim_state2,stake,score,practice,rews1,rews2,background,high_arm,trial_type,trial_index,time_elapsed,internal_node_id,subid,hitid,assignmentid,stim_left_num,stim_right_num
0,2,object_02,object_08,835.0,4,2,-1.0,0.0,2,object_06,5,0,0,0,3,forest_5,2,memory-2step-stake-s,504,982181,0.0-19.0-0.0-0.0,A3W1CKM4PBLRC0,306996CF7Z0Y3F4KVQ7DFLTE4FJB13,3YZ8UPK3VX2080LI1GIUQR0GR9FCU6,3,4
1,1,object_04,object_03,611.80000001192,2,2,772.30000001192,0.4444444444444444,2,object_06,1,4,0,1,4,desert_6,2,memory-2step-stake-s,505,990616,0.0-19.0-0.0-0.1,A3W1CKM4PBLRC0,306996CF7Z0Y3F4KVQ7DFLTE4FJB13,3YZ8UPK3VX2080LI1GIUQR0GR9FCU6,1,2
2,1,object_04,object_03,563.69999998808,2,2,362.79999995232,0.4444444444444444,2,object_06,5,24,0,1,4,desert_6,2,memory-2step-stake-s,506,998645,0.0-19.0-0.0-0.2,A3W1CKM4PBLRC0,306996CF7Z0Y3F4KVQ7DFLTE4FJB13,3YZ8UPK3VX2080LI1GIUQR0GR9FCU6,1,2
3,3,object_01,object_10,494.19999998808,5,2,684.39999997616,0.1111111111111111,1,object_09,1,25,0,1,3,library_1,2,memory-2step-stake-s,507,1006659,0.0-19.0-0.0-0.3,A3W1CKM4PBLRC0,306996CF7Z0Y3F4KVQ7DFLTE4FJB13,3YZ8UPK3VX2080LI1GIUQR0GR9FCU6,6,5
4,2,object_02,object_08,396.5,4,2,369.0,0.5555555555555556,2,object_06,5,50,0,2,5,forest_2,2,memory-2step-stake-s,508,1014752,0.0-19.0-0.0-0.4,A3W1CKM4PBLRC0,306996CF7Z0Y3F4KVQ7DFLTE4FJB13,3YZ8UPK3VX2080LI1GIUQR0GR9FCU6,3,4
5,3,object_01,object_10,725.80000001192,5,2,345.60000002384,0.3333333333333333,1,object_09,5,65,0,3,6,library_5,2,memory-2step-stake-s,509,1022624,0.0-19.0-0.0-0.5,A3W1CKM4PBLRC0,306996CF7Z0Y3F4KVQ7DFLTE4FJB13,3YZ8UPK3VX2080LI1GIUQR0GR9FCU6,6,5
6,2,object_08,object_02,743.0,4,1,368.69999998808,0.7777777777777778,2,object_06,5,100,0,5,7,forest_6,2,memory-2step-stake-s,510,1030918,0.0-19.0-0.0-0.6,A3W1CKM4PBLRC0,306996CF7Z0Y3F4KVQ7DFLTE4FJB13,3YZ8UPK3VX2080LI1GIUQR0GR9FCU6,4,3
7,1,object_04,object_03,747.09999996424,2,2,331.89999997616,0.8888888888888888,2,object_06,5,140,0,7,8,desert_8,2,memory-2step-stake-s,511,1039283,0.0-19.0-0.0-0.7,A3W1CKM4PBLRC0,306996CF7Z0Y3F4KVQ7DFLTE4FJB13,3YZ8UPK3VX2080LI1GIUQR0GR9FCU6,1,2
8,1,object_04,object_03,685.09999996424,2,2,353.59999996424,0.4444444444444444,2,object_06,1,144,0,7,4,desert_1,2,memory-2step-stake-s,512,1047262,0.0-19.0-0.0-0.8,A3W1CKM4PBLRC0,306996CF7Z0Y3F4KVQ7DFLTE4FJB13,3YZ8UPK3VX2080LI1GIUQR0GR9FCU6,1,2
9,4,object_07,object_05,819.30000001192,8,1,394.40000003576,0.6666666666666666,2,object_06,1,150,0,9,6,restaurant_6,2,memory-2step-stake-s,513,1055482,0.0-19.0-0.0-0.9,A3W1CKM4PBLRC0,306996CF7Z0Y3F4KVQ7DFLTE4FJB13,3YZ8UPK3VX2080LI1GIUQR0GR9FCU6,8,7
10,4,object_05,object_07,522.60000002384,8,2,433.89999997616,0.4444444444444444,2,object_06,1,154,0,8,4,restaurant_5,2,memory-2step-stake-s,514,1063539,0.0-19.0-0.0-0.10,A3W1CKM4PBLRC0,306996CF7Z0Y3F4KVQ7DFLTE4FJB13,3YZ8UPK3VX2080LI1GIUQR0GR9FCU6,7,8
11,2,object_02,object_08,564.30000001192,4,2,335.5,0.4444444444444444,2,object_06,5,174,0,9,4,forest_8,2,memory-2step-stake-s,515,1071503,0.0-19.0-0.0-0.11,A3W1CKM4PBLRC0,306996CF7Z0Y3F4KVQ7DFLTE4FJB13,3YZ8UPK3VX2080LI1GIUQR0GR9FCU6,3,4
12,3,object_10,object_01,1002.5,5,1,348.69999998808,0.6666666666666666,1,object_09,1,180,0,6,3,library_5,2,memory-2step-stake-s,516,1079683,0.0-19.0-0.0-0.12,A3W1CKM4PBLRC0,306996CF7Z0Y3F4KVQ7DFLTE4FJB13,3YZ8UPK3VX2080LI1GIUQR0GR9FCU6,5,6
13,3,object_01,object_10,519.5,5,2,392.09999996424,0.5555555555555556,1,object_09,1,185,0,5,5,library_8,2,memory-2step-stake-s,517,1087797,0.0-19.0-0.0-0.13,A3W1CKM4PBLRC0,306996CF7Z0Y3F4KVQ7DFLTE4FJB13,3YZ8UPK3VX2080LI1GIUQR0GR9FCU6,6,5
14,3,object_10,object_01,533.19999998808,5,1,510.40000003576,0.2222222222222222,1,object_09,1,187,0,2,5,library_8,2,memory-2step-stake-s,518,1095734,0.0-19.0-0.0-0.14,A3W1CKM4PBLRC0,306996CF7Z0Y3F4KVQ7DFLTE4FJB13,3YZ8UPK3VX2080LI1GIUQR0GR9FCU6,5,6
15,4,object_07,object_05,593.30000001192,8,1,309.40000003576,0.5555555555555556,2,object_06,1,192,0,2,5,restaurant_5,2,memory-2step-stake-s,519,1103779,0.0-19.0-0.0-0.15,A3W1CKM4PBLRC0,306996CF7Z0Y3F4KVQ7DFLTE4FJB13,3YZ8UPK3VX2080LI1GIUQR0GR9FCU6,8,7
16,3,object_10,object_01,515.0,6,2,372.60000002384,0.5555555555555556,2,object_06,1,197,0,1,5,library_4,2,memory-2step-stake-s,520,1111886,0.0-19.0-0.0-0.16,A3W1CKM4PBLRC0,306996CF7Z0Y3F4KVQ7DFLTE4FJB13,3YZ8UPK3VX2080LI1GIUQR0GR9FCU6,5,6
17,1,object_03,object_04,792.09999996424,2,1,268.40000003576,0.5555555555555556,2,object_06,5,222,0,1,5,desert_6,2,memory-2step-stake-s,521,1119880,0.0-19.0-0.0-0.17,A3W1CKM4PBLRC0,306996CF7Z0Y3F4KVQ7DFLTE4FJB13,3YZ8UPK3VX2080LI1GIUQR0GR9FCU6,2,1
18,4,object_05,object_07,1034.1999999881,8,2,262.60000002384,0.8888888888888888,2,object_06,5,262,0,0,8,restaurant_6,2,memory-2step-stake-s,522,1128169,0.0-19.0-0.0-0.18,A3W1CKM4PBLRC0,306996CF7Z0Y3F4KVQ7DFLTE4FJB13,3YZ8UPK3VX2080LI1GIUQR0GR9FCU6,7,8
19,2,object_02,object_08,497.5,4,2,261.0,0.7777777777777778,2,object_06,5,297,0,0,7,forest_2,2,memory-2step-stake-s,523,1136367,0.0-19.0-0.0-0.19,A3W1CKM4PBLRC0,306996CF7Z0Y3F4KVQ7DFLTE4FJB13,3YZ8UPK3VX2080LI1GIUQR0GR9FCU6,3,4
20,1,object_04,object_03,874.70000004768,2,2,279.5,0.3333333333333333,2,object_06,5,312,0,1,3,desert_8,2,memory-2step-stake-s,524,1144172,0.0-19.0-0.0-0.20,A3W1CKM4PBLRC0,306996CF7Z0Y3F4KVQ7DFLTE4FJB13,3YZ8UPK3VX2080LI1GIUQR0GR9FCU6,1,2
21,3,object_10,object_01,578.10000002384,5,1,302.30000001192,0.1111111111111111,1,object_09,5,317,0,1,0,library_1,2,memory-2step-stake-s,525,1151800,0.0-19.0-0.0-0.21,A3W1CKM4PBLRC0,306996CF7Z0Y3F4KVQ7DFLTE4FJB13,3YZ8UPK3VX2080LI1GIUQR0GR9FCU6,5,6
22,3,object_01,object_10,932.80000001192,6,1,312.59999996424,0.0,2,object_06,1,317,0,3,0,library_5,2,memory-2step-stake-s,526,1159334,0.0-19.0-0.0-0.22,A3W1CKM4PBLRC0,306996CF7Z0Y3F4KVQ7DFLTE4FJB13,3YZ8UPK3VX2080LI1GIUQR0GR9FCU6,6,5
23,3,object_01,object_10,1108.6999999881,5,2,363.29999995232,0.5555555555555556,1,object_09,5,342,0,5,1,library_4,2,memory-2step-stake-s,527,1167435,0.0-19.0-0.0-0.23,A3W1CKM4PBLRC0,306996CF7Z0Y3F4KVQ7DFLTE4FJB13,3YZ8UPK3VX2080LI1GIUQR0GR9FCU6,6,5
24,3,object_10,object_01,701.39999997616,6,2,326.60000002384,0.3333333333333333,2,object_06,1,345,0,7,3,library_5,2,memory-2step-stake-s,528,1175286,0.0-19.0-0.0-0.24,A3W1CKM4PBLRC0,306996CF7Z0Y3F4KVQ7DFLTE4FJB13,3YZ8UPK3VX2080LI1GIUQR0GR9FCU6,5,6
25,1,object_03,object_04,747.40000003576,2,1,278.80000001192,0.4444444444444444,2,object_06,1,349,0,3,4,desert_8,2,memory-2step-stake-s,529,1183189,0.0-19.0-0.0-0.25,A3W1CKM4PBLRC0,306996CF7Z0Y3F4KVQ7DFLTE4FJB13,3YZ8UPK3VX2080LI1GIUQR0GR9FCU6,2,1
26,1,object_04,object_03,905.5,1,1,348.70000004768,0.4444444444444444,1,object_09,5,369,0,4,3,desert_4,2,memory-2step-stake-s,530,1191168,0.0-19.0-0.0-0.26,A3W1CKM4PBLRC0,306996CF7Z0Y3F4KVQ7DFLTE4FJB13,3YZ8UPK3VX2080LI1GIUQR0GR9FCU6,1,2
27,4,object_05,object_07,612.10000002384,8,2,258.90000003576,0.1111111111111111,2,object_06,5,374,0,4,1,restaurant_6,2,memory-2step-stake-s,531,1198753,0.0-19.0-0.0-0.27,A3W1CKM4PBLRC0,306996CF7Z0Y3F4KVQ7DFLTE4FJB13,3YZ8UPK3VX2080LI1GIUQR0GR9FCU6,7,8
28,3,object_01,object_10,764.19999998808,6,1,239.19999998808,0.1111111111111111,2,object_06,1,375,0,5,1,library_4,2,memory-2step-stake-s,532,1206328,0.0-19.0-0.0-0.28,A3W1CKM4PBLRC0,306996CF7Z0Y3F4KVQ7DFLTE4FJB13,3YZ8UPK3VX2080LI1GIUQR0GR9FCU6,6,5
29,3,object_01,object_10,1041.7999999523,6,1,185.30000001192,0.6666666666666666,2,object_06,1,381,0,4,6,library_1,2,memory-2step-stake-s,533,1214347,0.0-19.0-0.0-0.29,A3W1CKM4PBLRC0,306996CF7Z0Y3F4KVQ7DFLTE4FJB13,3YZ8UPK3VX2080LI1GIUQR0GR9FCU6,6,5
30,4,object_07,object_05,895.80000001192,7,2,273.89999997616,0.5555555555555556,1,object_09,1,386,0,5,8,restaurant_7,2,memory-2step-stake-s,534,1222353,0.0-19.0-0.0-0.30,A3W1CKM4PBLRC0,306996CF7Z0Y3F4KVQ7DFLTE4FJB13,3YZ8UPK3VX2080LI1GIUQR0GR9FCU6,8,7
31,3,object_01,object_10,1283.3999999762,5,2,249.5,0.3333333333333333,1,object_09,5,401,0,3,6,library_8,2,memory-2step-stake-s,535,1230137,0.0-19.0-0.0-0.31,A3W1CKM4PBLRC0,306996CF7Z0Y3F4KVQ7DFLTE4FJB13,3YZ8UPK3VX2080LI1GIUQR0GR9FCU6,6,5
32,4,object_05,object_07,883.69999998808,7,1,323.39999997616,0.3333333333333333,1,object_09,5,416,0,3,6,restaurant_7,2,memory-2step-stake-s,536,1237986,0.0-19.0-0.0-0.32,A3W1CKM4PBLRC0,306996CF7Z0Y3F4KVQ7DFLTE4FJB13,3YZ8UPK3VX2080LI1GIUQR0GR9FCU6,7,8
33,2,object_08,object_02,890.5,4,1,58.400000035763,0.6666666666666666,2,object_06,5,446,0,3,6,forest_5,2,memory-2step-stake-s,537,1245885,0.0-19.0-0.0-0.33,A3W1CKM4PBLRC0,306996CF7Z0Y3F4KVQ7DFLTE4FJB13,3YZ8UPK3VX2080LI1GIUQR0GR9FCU6,4,3
34,3,object_10,object_01,1006.1000000238,6,2,616.19999998808,0.4444444444444444,2,object_06,5,466,0,4,4,library_5,2,memory-2step-stake-s,538,1254140,0.0-19.0-0.0-0.34,A3W1CKM4PBLRC0,306996CF7Z0Y3F4KVQ7DFLTE4FJB13,3YZ8UPK3VX2080LI1GIUQR0GR9FCU6,5,6
35,2,object_08,object_02,759.89999997616,4,1,390.29999995232,0.5555555555555556,2,object_06,1,471,0,2,5,forest_2,2,memory-2step-stake-s,539,1262267,0.0-19.0-0.0-0.35,A3W1CKM4PBLRC0,306996CF7Z0Y3F4KVQ7DFLTE4FJB13,3YZ8UPK3VX2080LI1GIUQR0GR9FCU6,4,3
36,2,object_02,object_08,1086.1999999881,4,2,763.09999996424,0.2222222222222222,2,object_06,5,481,0,0,2,forest_6,2,memory-2step-stake-s,540,1270463,0.0-19.0-0.0-0.36,A3W1CKM4PBLRC0,306996CF7Z0Y3F4KVQ7DFLTE4FJB13,3YZ8UPK3VX2080LI1GIUQR0GR9FCU6,3,4
37,4,object_05,object_07,1112.4000000358,8,2,258.80000001192,0.1111111111111111,2,object_06,1,482,0,0,1,restaurant_1,2,memory-2step-stake-s,541,1278051,0.0-19.0-0.0-0.37,A3W1CKM4PBLRC0,306996CF7Z0Y3F4KVQ7DFLTE4FJB13,3YZ8UPK3VX2080LI1GIUQR0GR9FCU6,7,8
38,4,object_07,object_05,470.20000004768,7,2,331.19999998808,0.1111111111111111,1,object_09,1,483,0,1,0,restaurant_6,2,memory-2step-stake-s,542,1285711,0.0-19.0-0.0-0.38,A3W1CKM4PBLRC0,306996CF7Z0Y3F4KVQ7DFLTE4FJB13,3YZ8UPK3VX2080LI1GIUQR0GR9FCU6,8,7
39,1,object_03,object_04,958.30000001192,2,1,335.10000002384,0.1111111111111111,2,object_06,5,488,0,4,1,desert_4,2,memory-2step-stake-s,543,1293379,0.0-19.0-0.0-0.39,A3W1CKM4PBLRC0,306996CF7Z0Y3F4KVQ7DFLTE4FJB13,3YZ8UPK3VX2080LI1GIUQR0GR9FCU6,2,1
40,2,object_08,object_02,1066.8999999762,3,2,265.10000002384,0.3333333333333333,1,object_09,5,503,0,3,4,forest_8,2,memory-2step-stake-s,544,1301175,0.0-19.0-0.0-0.40,A3W1CKM4PBLRC0,306996CF7Z0Y3F4KVQ7DFLTE4FJB13,3YZ8UPK3VX2080LI1GIUQR0GR9FCU6,4,3
41,1,object_04,object_03,1010.5999999642,1,1,247.30000001192,0.2222222222222222,1,object_09,5,513,0,2,3,desert_4,2,memory-2step-stake-s,545,1308855,0.0-19.0-0.0-0.41,A3W1CKM4PBLRC0,306996CF7Z0Y3F4KVQ7DFLTE4FJB13,3YZ8UPK3VX2080LI1GIUQR0GR9FCU6,1,2
42,2,object_08,object_02,1278.8000000119,4,1,320.5,0.4444444444444444,2,object_06,5,533,0,2,4,forest_5,2,memory-2step-stake-s,546,1316834,0.0-19.0-0.0-0.42,A3W1CKM4PBLRC0,306996CF7Z0Y3F4KVQ7DFLTE4FJB13,3YZ8UPK3VX2080LI1GIUQR0GR9FCU6,4,3
43,2,object_08,object_02,842.19999998808,4,1,283.0,0.5555555555555556,2,object_06,5,558,0,1,5,forest_8,2,memory-2step-stake-s,547,1324853,0.0-19.0-0.0-0.43,A3W1CKM4PBLRC0,306996CF7Z0Y3F4KVQ7DFLTE4FJB13,3YZ8UPK3VX2080LI1GIUQR0GR9FCU6,4,3
44,3,object_10,object_01,1292.0999999642,6,2,321.90000003576,1.0,2,object_06,5,603,0,3,9,library_4,2,memory-2step-stake-s,548,1333323,0.0-19.0-0.0-0.44,A3W1CKM4PBLRC0,306996CF7Z0Y3F4KVQ7DFLTE4FJB13,3YZ8UPK3VX2080LI1GIUQR0GR9FCU6,5,6
45,2,object_08,object_02,438.09999996424,4,1,392.5,1.0,2,object_06,5,648,0,3,9,forest_2,2,memory-2step-stake-s,549,1341869,0.0-19.0-0.0-0.45,A3W1CKM4PBLRC0,306996CF7Z0Y3F4KVQ7DFLTE4FJB13,3YZ8UPK3VX2080LI1GIUQR0GR9FCU6,4,3
46,4,object_05,object_07,986.30000001192,8,2,420.90000003576,0.7777777777777778,2,object_06,5,683,0,2,7,restaurant_7,2,memory-2step-stake-s,550,1350233,0.0-19.0-0.0-0.46,A3W1CKM4PBLRC0,306996CF7Z0Y3F4KVQ7DFLTE4FJB13,3YZ8UPK3VX2080LI1GIUQR0GR9FCU6,7,8
47,3,object_01,object_10,-1.0,-1,-1,-1.0,0.0,-,0,1,683,0,1,7,library_4,2,memory-2step-stake-s,551,1356751,0.0-19.0-0.0-0.47,A3W1CKM4PBLRC0,306996CF7Z0Y3F4KVQ7DFLTE4FJB13,3YZ8UPK3VX2080LI1GIUQR0GR9FCU6,6,5
48,1,object_04,object_03,1205.6000000238,2,2,344.30000001192,0.7777777777777778,2,object_06,5,718,0,1,7,desert_4,2,memory-2step-stake-s,552,1365031,0.0-19.0-0.0-0.48,A3W1CKM4PBLRC0,306996CF7Z0Y3F4KVQ7DFLTE4FJB13,3YZ8UPK3VX2080LI1GIUQR0GR9FCU6,1,2
49,1,object_04,object_03,348.70000004768,2,2,336.0,0.8888888888888888,2,object_06,1,726,0,2,8,desert_6,2,memory-2step-stake-s,553,1373420,0.0-19.0-0.0-0.49,A3W1CKM4PBLRC0,306996CF7Z0Y3F4KVQ7DFLTE4FJB13,3YZ8UPK3VX2080LI1GIUQR0GR9FCU6,1,2
50,2,object_02,object_08,568.90000003576,4,2,337.10000002384,0.7777777777777778,2,object_06,5,761,0,1,7,forest_5,2,memory-2step-stake-s,554,1381702,0.0-19.0-0.0-0.50,A3W1CKM4PBLRC0,306996CF7Z0Y3F4KVQ7DFLTE4FJB13,3YZ8UPK3VX2080LI1GIUQR0GR9FCU6,3,4
51,1,object_04,object_03,613.60000002384,2,2,380.30000001192,1.0,2,object_06,5,806,0,5,9,desert_4,2,memory-2step-stake-s,555,1390222,0.0-19.0-0.0-0.51,A3W1CKM4PBLRC0,306996CF7Z0Y3F4KVQ7DFLTE4FJB13,3YZ8UPK3VX2080LI1GIUQR0GR9FCU6,1,2
52,4,object_07,object_05,885.5,7,2,272.39999997616,0.4444444444444444,1,object_09,1,810,0,4,8,restaurant_1,2,memory-2step-stake-s,556,1398130,0.0-19.0-0.0-0.52,A3W1CKM4PBLRC0,306996CF7Z0Y3F4KVQ7DFLTE4FJB13,3YZ8UPK3VX2080LI1GIUQR0GR9FCU6,8,7
53,3,object_10,object_01,1004.5,6,2,518.70000004768,0.5555555555555556,2,object_06,1,815,0,5,5,library_4,2,memory-2step-stake-s,557,1406389,0.0-19.0-0.0-0.53,A3W1CKM4PBLRC0,306996CF7Z0Y3F4KVQ7DFLTE4FJB13,3YZ8UPK3VX2080LI1GIUQR0GR9FCU6,5,6
54,3,object_01,object_10,718.5,6,1,377.90000003576,0.7777777777777778,2,object_06,5,850,0,5,7,library_4,2,memory-2step-stake-s,558,1414710,0.0-19.0-0.0-0.54,A3W1CKM4PBLRC0,306996CF7Z0Y3F4KVQ7DFLTE4FJB13,3YZ8UPK3VX2080LI1GIUQR0GR9FCU6,6,5
55,4,object_05,object_07,962.0,7,1,304.80000001192,0.2222222222222222,1,object_09,1,852,0,2,3,restaurant_7,2,memory-2step-stake-s,559,1422449,0.0-19.0-0.0-0.55,A3W1CKM4PBLRC0,306996CF7Z0Y3F4KVQ7DFLTE4FJB13,3YZ8UPK3VX2080LI1GIUQR0GR9FCU6,7,8
56,3,object_10,object_01,721.80000001192,6,2,502.69999998808,0.6666666666666666,2,object_06,1,858,0,0,6,library_5,2,memory-2step-stake-s,560,1430798,0.0-19.0-0.0-0.56,A3W1CKM4PBLRC0,306996CF7Z0Y3F4KVQ7DFLTE4FJB13,3YZ8UPK3VX2080LI1GIUQR0GR9FCU6,5,6
57,2,object_08,object_02,671.39999997616,4,1,787.89999997616,0.6666666666666666,2,object_06,5,888,0,4,6,forest_2,2,memory-2step-stake-s,561,1439428,0.0-19.0-0.0-0.57,A3W1CKM4PBLRC0,306996CF7Z0Y3F4KVQ7DFLTE4FJB13,3YZ8UPK3VX2080LI1GIUQR0GR9FCU6,4,3
58,3,object_01,object_10,1135.8999999762,6,1,284.29999995232,0.7777777777777778,2,object_06,1,895,0,2,7,library_8,2,memory-2step-stake-s,562,1447649,0.0-19.0-0.0-0.58,A3W1CKM4PBLRC0,306996CF7Z0Y3F4KVQ7DFLTE4FJB13,3YZ8UPK3VX2080LI1GIUQR0GR9FCU6,6,5
59,4,object_07,object_05,778.90000003576,7,2,270.89999997616,0.2222222222222222,1,object_09,5,905,0,2,7,restaurant_1,2,memory-2step-stake-s,563,1455355,0.0-19.0-0.0-0.59,A3W1CKM4PBLRC0,306996CF7Z0Y3F4KVQ7DFLTE4FJB13,3YZ8UPK3VX2080LI1GIUQR0GR9FCU6,8,7
60,3,object_10,object_01,528.30000001192,6,2,270.69999998808,0.3333333333333333,2,object_06,5,920,0,2,3,library_4,2,memory-2step-stake-s,564,1463165,0.0-19.0-0.0-0.60,A3W1CKM4PBLRC0,306996CF7Z0Y3F4KVQ7DFLTE4FJB13,3YZ8UPK3VX2080LI1GIUQR0GR9FCU6,5,6
61,2,object_02,object_08,579.30000001192,4,2,243.89999997616,0.1111111111111111,2,object_06,1,921,0,2,1,forest_6,2,memory-2step-stake-s,565,1470744,0.0-19.0-0.0-0.61,A3W1CKM4PBLRC0,306996CF7Z0Y3F4KVQ7DFLTE4FJB13,3YZ8UPK3VX2080LI1GIUQR0GR9FCU6,3,4
62,4,object_07,object_05,638.40000003576,8,1,308.0,0.1111111111111111,2,object_06,5,926,0,0,1,restaurant_6,2,memory-2step-stake-s,566,1478408,0.0-19.0-0.0-0.62,A3W1CKM4PBLRC0,306996CF7Z0Y3F4KVQ7DFLTE4FJB13,3YZ8UPK3VX2080LI1GIUQR0GR9FCU6,8,7
63,2,object_08,object_02,532.5,4,1,238.30000001192,0.4444444444444444,2,object_06,5,946,0,1,4,forest_2,2,memory-2step-stake-s,567,1486295,0.0-19.0-0.0-0.63,A3W1CKM4PBLRC0,306996CF7Z0Y3F4KVQ7DFLTE4FJB13,3YZ8UPK3VX2080LI1GIUQR0GR9FCU6,4,3
64,4,object_05,object_07,1353.0999999642,7,1,310.39999997616,0.1111111111111111,1,object_09,1,947,0,1,5,restaurant_6,2,memory-2step-stake-s,568,1493951,0.0-19.0-0.0-0.64,A3W1CKM4PBLRC0,306996CF7Z0Y3F4KVQ7DFLTE4FJB13,3YZ8UPK3VX2080LI1GIUQR0GR9FCU6,7,8
65,3,object_10,object_01,784.19999998808,5,1,255.39999997616,0.1111111111111111,1,object_09,1,948,0,1,5,library_1,2,memory-2step-stake-s,569,1501553,0.0-19.0-0.0-0.65,A3W1CKM4PBLRC0,306996CF7Z0Y3F4KVQ7DFLTE4FJB13,3YZ8UPK3VX2080LI1GIUQR0GR9FCU6,5,6
66,4,object_07,object_05,1206.8000000119,8,1,347.19999998808,0.3333333333333333,2,object_06,1,951,0,2,3,restaurant_1,2,memory-2step-stake-s,570,1509447,0.0-19.0-0.0-0.66,A3W1CKM4PBLRC0,306996CF7Z0Y3F4KVQ7DFLTE4FJB13,3YZ8UPK3VX2080LI1GIUQR0GR9FCU6,8,7
67,3,object_10,object_01,425.39999997616,5,1,286.59999996424,0.1111111111111111,1,object_09,1,952,0,1,4,library_1,2,memory-2step-stake-s,571,1517080,0.0-19.0-0.0-0.67,A3W1CKM4PBLRC0,306996CF7Z0Y3F4KVQ7DFLTE4FJB13,3YZ8UPK3VX2080LI1GIUQR0GR9FCU6,5,6
68,1,object_03,object_04,679.40000003576,2,1,318.30000001192,0.0,2,object_06,5,952,0,1,0,desert_1,2,memory-2step-stake-s,572,1524629,0.0-19.0-0.0-0.68,A3W1CKM4PBLRC0,306996CF7Z0Y3F4KVQ7DFLTE4FJB13,3YZ8UPK3VX2080LI1GIUQR0GR9FCU6,2,1
69,3,object_10,object_01,785.19999998808,6,2,730.19999998808,0.4444444444444444,2,object_06,1,956,0,1,4,library_8,2,memory-2step-stake-s,573,1533006,0.0-19.0-0.0-0.69,A3W1CKM4PBLRC0,306996CF7Z0Y3F4KVQ7DFLTE4FJB13,3YZ8UPK3VX2080LI1GIUQR0GR9FCU6,5,6
70,1,object_03,object_04,509.09999996424,1,2,208.69999998808,0.1111111111111111,1,object_09,5,961,0,1,4,desert_6,2,memory-2step-stake-s,574,1540558,0.0-19.0-0.0-0.70,A3W1CKM4PBLRC0,306996CF7Z0Y3F4KVQ7DFLTE4FJB13,3YZ8UPK3VX2080LI1GIUQR0GR9FCU6,2,1
71,4,object_05,object_07,347.69999998808,8,2,283.30000001192,0.0,2,object_06,1,961,0,1,0,restaurant_6,2,memory-2step-stake-s,575,1548085,0.0-19.0-0.0-0.71,A3W1CKM4PBLRC0,306996CF7Z0Y3F4KVQ7DFLTE4FJB13,3YZ8UPK3VX2080LI1GIUQR0GR9FCU6,7,8
72,4,object_05,object_07,565.09999996424,7,1,307.69999998808,0.2222222222222222,1,object_09,1,963,0,2,3,restaurant_7,2,memory-2step-stake-s,576,1555828,0.0-19.0-0.0-0.72,A3W1CKM4PBLRC0,306996CF7Z0Y3F4KVQ7DFLTE4FJB13,3YZ8UPK3VX2080LI1GIUQR0GR9FCU6,7,8
73,2,object_08,object_02,1278.5,3,2,328.19999998808,0.6666666666666666,1,object_09,1,969,0,6,2,forest_8,2,memory-2step-stake-s,577,1564010,0.0-19.0-0.0-0.73,A3W1CKM4PBLRC0,306996CF7Z0Y3F4KVQ7DFLTE4FJB13,3YZ8UPK3VX2080LI1GIUQR0GR9FCU6,4,3
74,4,object_05,object_07,1026.8000000119,8,2,301.60000002384,0.1111111111111111,2,object_06,1,970,0,8,1,restaurant_1,2,memory-2step-stake-s,578,1571652,0.0-19.0-0.0-0.74,A3W1CKM4PBLRC0,306996CF7Z0Y3F4KVQ7DFLTE4FJB13,3YZ8UPK3VX2080LI1GIUQR0GR9FCU6,7,8
75,2,object_02,object_08,732.90000003576,3,1,266.39999997616,1.0,1,object_09,1,979,0,9,2,forest_8,2,memory-2step-stake-s,579,1580072,0.0-19.0-0.0-0.75,A3W1CKM4PBLRC0,306996CF7Z0Y3F4KVQ7DFLTE4FJB13,3YZ8UPK3VX2080LI1GIUQR0GR9FCU6,3,4
76,1,object_03,object_04,1177.1000000238,2,1,302.79999995232,0.3333333333333333,2,object_06,5,994,0,7,3,desert_6,2,memory-2step-stake-s,580,1587931,0.0-19.0-0.0-0.76,A3W1CKM4PBLRC0,306996CF7Z0Y3F4KVQ7DFLTE4FJB13,3YZ8UPK3VX2080LI1GIUQR0GR9FCU6,2,1
77,2,object_08,object_02,862.40000003576,3,2,348.0,0.7777777777777778,1,object_09,5,1029,0,7,6,forest_5,2,memory-2step-stake-s,581,1596240,0.0-19.0-0.0-0.77,A3W1CKM4PBLRC0,306996CF7Z0Y3F4KVQ7DFLTE4FJB13,3YZ8UPK3VX2080LI1GIUQR0GR9FCU6,4,3
78,2,object_08,object_02,1106.3999999762,3,2,503.5,0.6666666666666666,1,object_09,1,1035,0,6,6,forest_8,2,memory-2step-stake-s,582,1604611,0.0-19.0-0.0-0.78,A3W1CKM4PBLRC0,306996CF7Z0Y3F4KVQ7DFLTE4FJB13,3YZ8UPK3VX2080LI1GIUQR0GR9FCU6,4,3
79,3,object_10,object_01,1316.9000000358,6,2,328.19999998808,0.7777777777777778,2,object_06,1,1042,0,6,7,library_1,2,memory-2step-stake-s,583,1612894,0.0-19.0-0.0-0.79,A3W1CKM4PBLRC0,306996CF7Z0Y3F4KVQ7DFLTE4FJB13,3YZ8UPK3VX2080LI1GIUQR0GR9FCU6,5,6
80,2,object_08,object_02,1055.8999999762,3,2,670.0,0.8888888888888888,1,object_09,5,1082,0,8,4,forest_5,2,memory-2step-stake-s,584,1621615,0.0-19.0-0.0-0.80,A3W1CKM4PBLRC0,306996CF7Z0Y3F4KVQ7DFLTE4FJB13,3YZ8UPK3VX2080LI1GIUQR0GR9FCU6,4,3
81,1,object_04,object_03,796.80000001192,1,1,264.09999996424,0.8888888888888888,1,object_09,5,1122,0,8,1,desert_1,2,memory-2step-stake-s,585,1629938,0.0-19.0-0.0-0.81,A3W1CKM4PBLRC0,306996CF7Z0Y3F4KVQ7DFLTE4FJB13,3YZ8UPK3VX2080LI1GIUQR0GR9FCU6,1,2
82,4,object_05,object_07,591.0,8,2,296.09999996424,0.2222222222222222,2,object_06,1,1124,0,8,2,restaurant_1,2,memory-2step-stake-s,586,1637688,0.0-19.0-0.0-0.82,A3W1CKM4PBLRC0,306996CF7Z0Y3F4KVQ7DFLTE4FJB13,3YZ8UPK3VX2080LI1GIUQR0GR9FCU6,7,8
83,2,object_02,object_08,392.69999998808,3,1,316.89999997616,0.7777777777777778,1,object_09,5,1159,0,7,1,forest_5,2,memory-2step-stake-s,587,1645959,0.0-19.0-0.0-0.83,A3W1CKM4PBLRC0,306996CF7Z0Y3F4KVQ7DFLTE4FJB13,3YZ8UPK3VX2080LI1GIUQR0GR9FCU6,3,4
84,3,object_01,object_10,727.89999997616,5,2,279.0,0.8888888888888888,1,object_09,1,1167,0,8,2,library_4,2,memory-2step-stake-s,588,1654305,0.0-19.0-0.0-0.84,A3W1CKM4PBLRC0,306996CF7Z0Y3F4KVQ7DFLTE4FJB13,3YZ8UPK3VX2080LI1GIUQR0GR9FCU6,6,5
85,1,object_03,object_04,976.5,2,1,286.90000003576,0.4444444444444444,2,object_06,1,1171,0,8,4,desert_4,2,memory-2step-stake-s,589,1662237,0.0-19.0-0.0-0.85,A3W1CKM4PBLRC0,306996CF7Z0Y3F4KVQ7DFLTE4FJB13,3YZ8UPK3VX2080LI1GIUQR0GR9FCU6,2,1
86,4,object_07,object_05,1077.6000000238,8,1,353.5,0.6666666666666666,2,object_06,5,1201,0,4,6,restaurant_5,2,memory-2step-stake-s,590,1670448,0.0-19.0-0.0-0.86,A3W1CKM4PBLRC0,306996CF7Z0Y3F4KVQ7DFLTE4FJB13,3YZ8UPK3VX2080LI1GIUQR0GR9FCU6,8,7
87,1,object_04,object_03,910.89999997616,2,2,318.20000004768,0.6666666666666666,2,object_06,5,1231,0,6,6,desert_6,2,memory-2step-stake-s,591,1678621,0.0-19.0-0.0-0.87,A3W1CKM4PBLRC0,306996CF7Z0Y3F4KVQ7DFLTE4FJB13,3YZ8UPK3VX2080LI1GIUQR0GR9FCU6,1,2
88,2,object_02,object_08,630.0,3,1,285.69999998808,0.8888888888888888,1,object_09,5,1271,0,8,6,forest_6,2,memory-2step-stake-s,592,1686936,0.0-19.0-0.0-0.88,A3W1CKM4PBLRC0,306996CF7Z0Y3F4KVQ7DFLTE4FJB13,3YZ8UPK3VX2080LI1GIUQR0GR9FCU6,3,4
89,4,object_05,object_07,1187.7999999523,7,1,321.90000003576,0.7777777777777778,1,object_09,1,1278,0,7,6,restaurant_7,2,memory-2step-stake-s,593,1695188,0.0-19.0-0.0-0.89,A3W1CKM4PBLRC0,306996CF7Z0Y3F4KVQ7DFLTE4FJB13,3YZ8UPK3VX2080LI1GIUQR0GR9FCU6,7,8
90,4,object_07,object_05,1436.5999999642,7,2,384.40000003576,0.6666666666666666,1,object_09,1,1284,0,6,6,restaurant_1,2,memory-2step-stake-s,594,1703398,0.0-19.0-0.0-0.90,A3W1CKM4PBLRC0,306996CF7Z0Y3F4KVQ7DFLTE4FJB13,3YZ8UPK3VX2080LI1GIUQR0GR9FCU6,8,7
91,2,object_08,object_02,1020.5,3,2,328.0,0.8888888888888888,1,object_09,5,1324,0,8,4,forest_6,2,memory-2step-stake-s,595,1711758,0.0-19.0-0.0-0.91,A3W1CKM4PBLRC0,306996CF7Z0Y3F4KVQ7DFLTE4FJB13,3YZ8UPK3VX2080LI1GIUQR0GR9FCU6,4,3
92,2,object_02,object_08,674.5,3,1,337.5,0.5555555555555556,1,object_09,5,1349,0,5,8,forest_5,2,memory-2step-stake-s,596,1719820,0.0-19.0-0.0-0.92,A3W1CKM4PBLRC0,306996CF7Z0Y3F4KVQ7DFLTE4FJB13,3YZ8UPK3VX2080LI1GIUQR0GR9FCU6,3,4
93,1,object_03,object_04,1053.3000000119,2,1,296.5,0.7777777777777778,2,object_06,5,1384,0,9,7,desert_4,2,memory-2step-stake-s,597,1728040,0.0-19.0-0.0-0.93,A3W1CKM4PBLRC0,306996CF7Z0Y3F4KVQ7DFLTE4FJB13,3YZ8UPK3VX2080LI1GIUQR0GR9FCU6,2,1
94,3,object_01,object_10,1103.6999999881,6,1,283.19999998808,0.6666666666666666,2,object_06,1,1390,0,9,6,library_8,2,memory-2step-stake-s,598,1736154,0.0-19.0-0.0-0.94,A3W1CKM4PBLRC0,306996CF7Z0Y3F4KVQ7DFLTE4FJB13,3YZ8UPK3VX2080LI1GIUQR0GR9FCU6,6,5
95,3,object_10,object_01,888.59999996424,6,2,273.69999998808,1.0,2,object_06,5,1435,0,8,9,library_5,2,memory-2step-stake-s,599,1744561,0.0-19.0-0.0-0.95,A3W1CKM4PBLRC0,306996CF7Z0Y3F4KVQ7DFLTE4FJB13,3YZ8UPK3VX2080LI1GIUQR0GR9FCU6,5,6
96,2,object_02,object_08,479.59999996424,3,1,284.5,0.7777777777777778,1,object_09,5,1470,0,7,8,forest_6,2,memory-2step-stake-s,600,1752780,0.0-19.0-0.0-0.96,A3W1CKM4PBLRC0,306996CF7Z0Y3F4KVQ7DFLTE4FJB13,3YZ8UPK3VX2080LI1GIUQR0GR9FCU6,3,4
97,3,object_01,object_10,740.39999997616,5,2,262.90000003576,0.7777777777777778,1,object_09,1,1477,0,7,6,library_8,2,memory-2step-stake-s,601,1760974,0.0-19.0-0.0-0.97,A3W1CKM4PBLRC0,306996CF7Z0Y3F4KVQ7DFLTE4FJB13,3YZ8UPK3VX2080LI1GIUQR0GR9FCU6,6,5
98,4,object_07,object_05,800.40000003576,8,1,325.59999996424,0.5555555555555556,2,object_06,1,1482,0,6,5,restaurant_6,2,memory-2step-stake-s,602,1769035,0.0-19.0-0.0-0.98,A3W1CKM4PBLRC0,306996CF7Z0Y3F4KVQ7DFLTE4FJB13,3YZ8UPK3VX2080LI1GIUQR0GR9FCU6,8,7
99,2,object_08,object_02,869.80000001192,3,2,-1.0,0.0,1,object_09,5,1482,0,5,6,forest_6,2,memory-2step-stake-s,603,1777569,0.0-19.0-0.0-0.99,A3W1CKM4PBLRC0,306996CF7Z0Y3F4KVQ7DFLTE4FJB13,3YZ8UPK3VX2080LI1GIUQR0GR9FCU6,4,3
100,2,object_02,object_08,902.10000002384,3,1,400.80000001192,0.8888888888888888,1,object_09,1,1490,0,8,5,forest_2,2,memory-2step-stake-s,604,1786004,0.0-19.0-0.0-0.100,A3W1CKM4PBLRC0,306996CF7Z0Y3F4KVQ7DFLTE4FJB13,3YZ8UPK3VX2080LI1GIUQR0GR9FCU6,3,4
101,1,object_03,object_04,758.60000002384,2,1,512.90000003576,0.3333333333333333,2,object_06,5,1505,0,7,3,desert_4,2,memory-2step-stake-s,605,1794043,0.0-19.0-0.0-0.101,A3W1CKM4PBLRC0,306996CF7Z0Y3F4KVQ7DFLTE4FJB13,3YZ8UPK3VX2080LI1GIUQR0GR9FCU6,2,1
102,4,object_05,object_07,347.79999995232,8,2,637.19999998808,0.8888888888888888,2,object_06,1,1513,0,7,8,restaurant_1,2,memory-2step-stake-s,606,1802713,0.0-19.0-0.0-0.102,A3W1CKM4PBLRC0,306996CF7Z0Y3F4KVQ7DFLTE4FJB13,3YZ8UPK3VX2080LI1GIUQR0GR9FCU6,7,8
103,1,object_03,object_04,865.40000003576,2,1,276.89999997616,0.6666666666666666,2,object_06,1,1519,0,7,6,desert_8,2,memory-2step-stake-s,607,1810829,0.0-19.0-0.0-0.103,A3W1CKM4PBLRC0,306996CF7Z0Y3F4KVQ7DFLTE4FJB13,3YZ8UPK3VX2080LI1GIUQR0GR9FCU6,2,1
104,1,object_03,object_04,971.19999998808,2,1,518.0,0.5555555555555556,2,object_06,1,1524,0,7,5,desert_6,2,memory-2step-stake-s,608,1819084,0.0-19.0-0.0-0.104,A3W1CKM4PBLRC0,306996CF7Z0Y3F4KVQ7DFLTE4FJB13,3YZ8UPK3VX2080LI1GIUQR0GR9FCU6,2,1
105,4,object_05,object_07,417.5,8,2,329.19999998808,0.5555555555555556,2,object_06,1,1529,0,6,5,restaurant_1,2,memory-2step-stake-s,609,1827145,0.0-19.0-0.0-0.105,A3W1CKM4PBLRC0,306996CF7Z0Y3F4KVQ7DFLTE4FJB13,3YZ8UPK3VX2080LI1GIUQR0GR9FCU6,7,8
106,4,object_07,object_05,760.80000001192,7,2,279.5,0.4444444444444444,1,object_09,1,1533,0,4,3,restaurant_5,2,memory-2step-stake-s,610,1835056,0.0-19.0-0.0-0.106,A3W1CKM4PBLRC0,306996CF7Z0Y3F4KVQ7DFLTE4FJB13,3YZ8UPK3VX2080LI1GIUQR0GR9FCU6,8,7
107,4,object_07,object_05,486.19999998808,7,2,325.60000002384,0.6666666666666666,1,object_09,1,1539,0,6,4,restaurant_5,2,memory-2step-stake-s,611,1843212,0.0-19.0-0.0-0.107,A3W1CKM4PBLRC0,306996CF7Z0Y3F4KVQ7DFLTE4FJB13,3YZ8UPK3VX2080LI1GIUQR0GR9FCU6,8,7
108,2,object_02,object_08,601.5,4,2,312.30000001192,0.4444444444444444,2,object_06,5,1559,0,8,4,forest_2,2,memory-2step-stake-s,612,1851154,0.0-19.0-0.0-0.108,A3W1CKM4PBLRC0,306996CF7Z0Y3F4KVQ7DFLTE4FJB13,3YZ8UPK3VX2080LI1GIUQR0GR9FCU6,3,4
109,4,object_07,object_05,997.19999998808,7,2,266.80000001192,0.8888888888888888,1,object_09,1,1567,0,8,3,restaurant_7,2,memory-2step-stake-s,613,1859454,0.0-19.0-0.0-0.109,A3W1CKM4PBLRC0,306996CF7Z0Y3F4KVQ7DFLTE4FJB13,3YZ8UPK3VX2080LI1GIUQR0GR9FCU6,8,7
110,2,object_08,object_02,810.70000004768,3,2,286.19999998808,0.8888888888888888,1,object_09,5,1607,0,8,3,forest_8,2,memory-2step-stake-s,614,1867789,0.0-19.0-0.0-0.110,A3W1CKM4PBLRC0,306996CF7Z0Y3F4KVQ7DFLTE4FJB13,3YZ8UPK3VX2080LI1GIUQR0GR9FCU6,4,3
111,1,object_04,object_03,786.89999997616,2,2,585.69999998808,0.1111111111111111,2,object_06,5,1612,0,8,1,desert_4,2,memory-2step-stake-s,615,1875701,0.0-19.0-0.0-0.111,A3W1CKM4PBLRC0,306996CF7Z0Y3F4KVQ7DFLTE4FJB13,3YZ8UPK3VX2080LI1GIUQR0GR9FCU6,1,2
112,3,object_01,object_10,568.09999996424,5,2,417.69999998808,1.0,1,object_09,1,1621,0,9,1,library_8,2,memory-2step-stake-s,616,1884264,0.0-19.0-0.0-0.112,A3W1CKM4PBLRC0,306996CF7Z0Y3F4KVQ7DFLTE4FJB13,3YZ8UPK3VX2080LI1GIUQR0GR9FCU6,6,5
113,3,object_01,object_10,396.0,5,2,-1.0,0.0,1,object_09,1,1621,0,8,3,library_8,2,memory-2step-stake-s,617,1892797,0.0-19.0-0.0-0.113,A3W1CKM4PBLRC0,306996CF7Z0Y3F4KVQ7DFLTE4FJB13,3YZ8UPK3VX2080LI1GIUQR0GR9FCU6,6,5
114,3,object_01,object_10,552.40000003576,5,2,290.60000002384,0.3333333333333333,1,object_09,1,1624,0,3,4,library_8,2,memory-2step-stake-s,618,1900633,0.0-19.0-0.0-0.114,A3W1CKM4PBLRC0,306996CF7Z0Y3F4KVQ7DFLTE4FJB13,3YZ8UPK3VX2080LI1GIUQR0GR9FCU6,6,5
115,4,object_07,object_05,603.19999998808,7,2,328.29999995232,0.2222222222222222,1,object_09,1,1626,0,2,4,restaurant_6,2,memory-2step-stake-s,619,1908392,0.0-19.0-0.0-0.115,A3W1CKM4PBLRC0,306996CF7Z0Y3F4KVQ7DFLTE4FJB13,3YZ8UPK3VX2080LI1GIUQR0GR9FCU6,8,7
116,1,object_04,object_03,691.0,2,2,373.30000001192,0.4444444444444444,2,object_06,1,1630,0,2,4,desert_8,2,memory-2step-stake-s,620,1916406,0.0-19.0-0.0-0.116,A3W1CKM4PBLRC0,306996CF7Z0Y3F4KVQ7DFLTE4FJB13,3YZ8UPK3VX2080LI1GIUQR0GR9FCU6,1,2
117,3,object_10,object_01,564.30000001192,6,2,302.09999996424,0.3333333333333333,2,object_06,1,1633,0,0,3,library_1,2,memory-2step-stake-s,621,1924251,0.0-19.0-0.0-0.117,A3W1CKM4PBLRC0,306996CF7Z0Y3F4KVQ7DFLTE4FJB13,3YZ8UPK3VX2080LI1GIUQR0GR9FCU6,5,6
118,2,object_08,object_02,675.0,3,2,315.10000002384,0.1111111111111111,1,object_09,5,1638,0,1,5,forest_2,2,memory-2step-stake-s,622,1931899,0.0-19.0-0.0-0.118,A3W1CKM4PBLRC0,306996CF7Z0Y3F4KVQ7DFLTE4FJB13,3YZ8UPK3VX2080LI1GIUQR0GR9FCU6,4,3
119,4,object_07,object_05,532.69999998808,7,2,271.70000004768,0.0,1,object_09,1,1638,0,0,7,restaurant_7,2,memory-2step-stake-s,623,1939410,0.0-19.0-0.0-0.119,A3W1CKM4PBLRC0,306996CF7Z0Y3F4KVQ7DFLTE4FJB13,3YZ8UPK3VX2080LI1GIUQR0GR9FCU6,8,7
120,3,object_10,object_01,891.29999995232,6,2,279.80000001192,0.4444444444444444,2,object_06,1,1642,0,1,4,library_8,2,memory-2step-stake-s,624,1947339,0.0-19.0-0.0-0.120,A3W1CKM4PBLRC0,306996CF7Z0Y3F4KVQ7DFLTE4FJB13,3YZ8UPK3VX2080LI1GIUQR0GR9FCU6,5,6
121,4,object_05,object_07,1206.3000000119,8,2,314.79999995232,0.1111111111111111,2,object_06,1,1643,0,1,1,restaurant_6,2,memory-2step-stake-s,625,1954983,0.0-19.0-0.0-0.121,A3W1CKM4PBLRC0,306996CF7Z0Y3F4KVQ7DFLTE4FJB13,3YZ8UPK3VX2080LI1GIUQR0GR9FCU6,7,8
122,2,object_02,object_08,453.30000001192,4,2,429.09999996424,0.4444444444444444,2,object_06,5,1663,0,2,4,forest_6,2,memory-2step-stake-s,626,1963058,0.0-19.0-0.0-0.122,A3W1CKM4PBLRC0,306996CF7Z0Y3F4KVQ7DFLTE4FJB13,3YZ8UPK3VX2080LI1GIUQR0GR9FCU6,3,4
123,1,object_03,object_04,593.30000001192,2,1,618.19999998808,0.2222222222222222,2,object_06,5,1673,0,2,2,desert_1,2,memory-2step-stake-s,627,1971117,0.0-19.0-0.0-0.123,A3W1CKM4PBLRC0,306996CF7Z0Y3F4KVQ7DFLTE4FJB13,3YZ8UPK3VX2080LI1GIUQR0GR9FCU6,2,1
124,3,object_01,object_10,1119.3999999762,5,2,297.69999998808,0.0,1,object_09,1,1673,0,0,2,library_8,2,memory-2step-stake-s,628,1978645,0.0-19.0-0.0-0.124,A3W1CKM4PBLRC0,306996CF7Z0Y3F4KVQ7DFLTE4FJB13,3YZ8UPK3VX2080LI1GIUQR0GR9FCU6,6,5
125,2,object_08,object_02,756.80000001192,4,1,592.89999997616,0.5555555555555556,2,object_06,1,1678,0,2,5,forest_8,2,memory-2step-stake-s,629,1986983,0.0-19.0-0.0-0.125,A3W1CKM4PBLRC0,306996CF7Z0Y3F4KVQ7DFLTE4FJB13,3YZ8UPK3VX2080LI1GIUQR0GR9FCU6,4,3
126,1,object_04,object_03,572.39999997616,2,2,368.30000001192,0.4444444444444444,2,object_06,5,1698,0,4,4,desert_8,2,memory-2step-stake-s,630,1994997,0.0-19.0-0.0-0.126,A3W1CKM4PBLRC0,306996CF7Z0Y3F4KVQ7DFLTE4FJB13,3YZ8UPK3VX2080LI1GIUQR0GR9FCU6,1,2
127,2,object_02,object_08,559.39999997616,4,2,287.19999998808,0.4444444444444444,2,object_06,5,1718,0,2,4,forest_6,2,memory-2step-stake-s,631,2002924,0.0-19.0-0.0-0.127,A3W1CKM4PBLRC0,306996CF7Z0Y3F4KVQ7DFLTE4FJB13,3YZ8UPK3VX2080LI1GIUQR0GR9FCU6,3,4
128,3,object_10,object_01,661.80000001192,5,1,823.89999997616,0.1111111111111111,1,object_09,1,1719,0,1,3,library_1,2,memory-2step-stake-s,633,2222132,0.0-19.0-0.1-0.128,A3W1CKM4PBLRC0,306996CF7Z0Y3F4KVQ7DFLTE4FJB13,3YZ8UPK3VX2080LI1GIUQR0GR9FCU6,5,6
129,2,object_08,object_02,535.10000002384,4,1,480.89999997616,0.5555555555555556,2,object_06,5,1744,0,3,5,forest_2,2,memory-2step-stake-s,634,2230349,0.0-19.0-0.1-0.129,A3W1CKM4PBLRC0,306996CF7Z0Y3F4KVQ7DFLTE4FJB13,3YZ8UPK3VX2080LI1GIUQR0GR9FCU6,4,3
130,1,object_03,object_04,866.20000004768,2,1,429.60000002384,0.4444444444444444,2,object_06,5,1764,0,5,4,desert_8,2,memory-2step-stake-s,635,2238410,0.0-19.0-0.1-0.130,A3W1CKM4PBLRC0,306996CF7Z0Y3F4KVQ7DFLTE4FJB13,3YZ8UPK3VX2080LI1GIUQR0GR9FCU6,2,1
131,3,object_10,object_01,724.80000001192,6,2,322.90000003576,0.4444444444444444,2,object_06,1,1768,0,5,4,library_8,2,memory-2step-stake-s,636,2246366,0.0-19.0-0.1-0.131,A3W1CKM4PBLRC0,306996CF7Z0Y3F4KVQ7DFLTE4FJB13,3YZ8UPK3VX2080LI1GIUQR0GR9FCU6,5,6
132,4,object_07,object_05,768.30000001192,7,2,392.89999997616,1.0,1,object_09,1,1777,0,9,5,restaurant_6,2,memory-2step-stake-s,637,2254897,0.0-19.0-0.1-0.132,A3W1CKM4PBLRC0,306996CF7Z0Y3F4KVQ7DFLTE4FJB13,3YZ8UPK3VX2080LI1GIUQR0GR9FCU6,8,7
133,3,object_01,object_10,591.79999995232,6,1,314.39999997616,0.4444444444444444,2,object_06,1,1781,0,3,4,library_5,2,memory-2step-stake-s,638,2262842,0.0-19.0-0.1-0.133,A3W1CKM4PBLRC0,306996CF7Z0Y3F4KVQ7DFLTE4FJB13,3YZ8UPK3VX2080LI1GIUQR0GR9FCU6,6,5
134,4,object_05,object_07,359.90000003576,7,1,279.0,0.5555555555555556,1,object_09,5,1806,0,5,4,restaurant_7,2,memory-2step-stake-s,639,2270873,0.0-19.0-0.1-0.134,A3W1CKM4PBLRC0,306996CF7Z0Y3F4KVQ7DFLTE4FJB13,3YZ8UPK3VX2080LI1GIUQR0GR9FCU6,7,8
135,4,object_05,object_07,905.89999997616,8,2,284.20000004768,0.1111111111111111,2,object_06,1,1807,0,6,1,restaurant_5,2,memory-2step-stake-s,640,2278501,0.0-19.0-0.1-0.135,A3W1CKM4PBLRC0,306996CF7Z0Y3F4KVQ7DFLTE4FJB13,3YZ8UPK3VX2080LI1GIUQR0GR9FCU6,7,8
136,4,object_05,object_07,454.5,7,1,307.59999996424,0.4444444444444444,1,object_09,1,1811,0,4,3,restaurant_5,2,memory-2step-stake-s,641,2286446,0.0-19.0-0.1-0.136,A3W1CKM4PBLRC0,306996CF7Z0Y3F4KVQ7DFLTE4FJB13,3YZ8UPK3VX2080LI1GIUQR0GR9FCU6,7,8
137,2,object_08,object_02,427.5,4,1,286.39999997616,0.3333333333333333,2,object_06,5,1826,0,2,3,forest_6,2,memory-2step-stake-s,642,2294264,0.0-19.0-0.1-0.137,A3W1CKM4PBLRC0,306996CF7Z0Y3F4KVQ7DFLTE4FJB13,3YZ8UPK3VX2080LI1GIUQR0GR9FCU6,4,3
138,3,object_10,object_01,597.0,6,2,253.80000001192,0.2222222222222222,2,object_06,1,1828,0,2,2,library_8,2,memory-2step-stake-s,643,2301960,0.0-19.0-0.1-0.138,A3W1CKM4PBLRC0,306996CF7Z0Y3F4KVQ7DFLTE4FJB13,3YZ8UPK3VX2080LI1GIUQR0GR9FCU6,5,6
139,1,object_04,object_03,382.5,2,2,293.60000002384,0.8888888888888888,2,object_06,1,1836,0,4,8,desert_1,2,memory-2step-stake-s,644,2310302,0.0-19.0-0.1-0.139,A3W1CKM4PBLRC0,306996CF7Z0Y3F4KVQ7DFLTE4FJB13,3YZ8UPK3VX2080LI1GIUQR0GR9FCU6,1,2
140,1,object_04,object_03,406.30000001192,2,2,356.30000001192,0.8888888888888888,2,object_06,5,1876,0,2,8,desert_6,2,memory-2step-stake-s,645,2318709,0.0-19.0-0.1-0.140,A3W1CKM4PBLRC0,306996CF7Z0Y3F4KVQ7DFLTE4FJB13,3YZ8UPK3VX2080LI1GIUQR0GR9FCU6,1,2
141,4,object_05,object_07,854.30000001192,8,2,255.10000002384,0.5555555555555556,2,object_06,1,1881,0,1,5,restaurant_1,2,memory-2step-stake-s,646,2326706,0.0-19.0-0.1-0.141,A3W1CKM4PBLRC0,306996CF7Z0Y3F4KVQ7DFLTE4FJB13,3YZ8UPK3VX2080LI1GIUQR0GR9FCU6,7,8
142,2,object_08,object_02,462.10000002384,3,2,249.19999998808,0.2222222222222222,1,object_09,5,1891,0,2,3,forest_8,2,memory-2step-stake-s,647,2334388,0.0-19.0-0.1-0.142,A3W1CKM4PBLRC0,306996CF7Z0Y3F4KVQ7DFLTE4FJB13,3YZ8UPK3VX2080LI1GIUQR0GR9FCU6,4,3
143,2,object_02,object_08,605.89999997616,4,2,489.19999998808,0.2222222222222222,2,object_06,1,1893,0,4,2,forest_8,2,memory-2step-stake-s,648,2342314,0.0-19.0-0.1-0.143,A3W1CKM4PBLRC0,306996CF7Z0Y3F4KVQ7DFLTE4FJB13,3YZ8UPK3VX2080LI1GIUQR0GR9FCU6,3,4
144,4,object_05,object_07,649.10000002384,7,1,217.80000001192,0.5555555555555556,1,object_09,1,1898,0,5,0,restaurant_1,2,memory-2step-stake-s,649,2350276,0.0-19.0-0.1-0.144,A3W1CKM4PBLRC0,306996CF7Z0Y3F4KVQ7DFLTE4FJB13,3YZ8UPK3VX2080LI1GIUQR0GR9FCU6,7,8
145,3,object_10,object_01,600.39999997616,6,2,247.09999996424,0.4444444444444444,2,object_06,5,1918,0,3,4,library_5,2,memory-2step-stake-s,650,2358159,0.0-19.0-0.1-0.145,A3W1CKM4PBLRC0,306996CF7Z0Y3F4KVQ7DFLTE4FJB13,3YZ8UPK3VX2080LI1GIUQR0GR9FCU6,5,6
146,4,object_07,object_05,380.69999998808,7,2,332.30000001192,0.4444444444444444,1,object_09,1,1922,0,4,1,restaurant_7,2,memory-2step-stake-s,651,2366124,0.0-19.0-0.1-0.146,A3W1CKM4PBLRC0,306996CF7Z0Y3F4KVQ7DFLTE4FJB13,3YZ8UPK3VX2080LI1GIUQR0GR9FCU6,8,7
147,3,object_10,object_01,671.09999996424,6,2,309.0,0.5555555555555556,2,object_06,1,1927,0,6,5,library_4,2,memory-2step-stake-s,652,2374170,0.0-19.0-0.1-0.147,A3W1CKM4PBLRC0,306996CF7Z0Y3F4KVQ7DFLTE4FJB13,3YZ8UPK3VX2080LI1GIUQR0GR9FCU6,5,6
148,4,object_05,object_07,813.69999998808,8,2,282.69999998808,0.6666666666666666,2,object_06,1,1933,0,5,6,restaurant_6,2,memory-2step-stake-s,653,2382306,0.0-19.0-0.1-0.148,A3W1CKM4PBLRC0,306996CF7Z0Y3F4KVQ7DFLTE4FJB13,3YZ8UPK3VX2080LI1GIUQR0GR9FCU6,7,8
149,1,object_03,object_04,785.89999997616,2,1,307.5,1.0,2,object_06,5,1978,0,5,9,desert_8,2,memory-2step-stake-s,654,2390764,0.0-19.0-0.1-0.149,A3W1CKM4PBLRC0,306996CF7Z0Y3F4KVQ7DFLTE4FJB13,3YZ8UPK3VX2080LI1GIUQR0GR9FCU6,2,1
150,3,object_01,object_10,387.40000003576,5,2,341.40000003576,0.8888888888888888,1,object_09,1,1986,0,8,9,library_5,2,memory-2step-stake-s,655,2399153,0.0-19.0-0.1-0.150,A3W1CKM4PBLRC0,306996CF7Z0Y3F4KVQ7DFLTE4FJB13,3YZ8UPK3VX2080LI1GIUQR0GR9FCU6,6,5
151,1,object_04,object_03,410.80000001192,1,1,280.60000002384,0.8888888888888888,1,object_09,5,2026,0,8,8,desert_4,2,memory-2step-stake-s,656,2407481,0.0-19.0-0.1-0.151,A3W1CKM4PBLRC0,306996CF7Z0Y3F4KVQ7DFLTE4FJB13,3YZ8UPK3VX2080LI1GIUQR0GR9FCU6,1,2
152,4,object_07,object_05,670.19999998808,8,1,293.80000001192,0.8888888888888888,2,object_06,1,2034,0,7,8,restaurant_7,2,memory-2step-stake-s,657,2415856,0.0-19.0-0.1-0.152,A3W1CKM4PBLRC0,306996CF7Z0Y3F4KVQ7DFLTE4FJB13,3YZ8UPK3VX2080LI1GIUQR0GR9FCU6,8,7
153,1,object_04,object_03,533.0,2,2,270.40000003576,0.7777777777777778,2,object_06,1,2041,0,5,7,desert_4,2,memory-2step-stake-s,658,2424078,0.0-19.0-0.1-0.153,A3W1CKM4PBLRC0,306996CF7Z0Y3F4KVQ7DFLTE4FJB13,3YZ8UPK3VX2080LI1GIUQR0GR9FCU6,1,2
154,3,object_10,object_01,1031.6000000238,5,1,295.80000001192,0.4444444444444444,1,object_09,1,2045,0,4,7,library_1,2,memory-2step-stake-s,659,2432023,0.0-19.0-0.1-0.154,A3W1CKM4PBLRC0,306996CF7Z0Y3F4KVQ7DFLTE4FJB13,3YZ8UPK3VX2080LI1GIUQR0GR9FCU6,5,6
155,2,object_08,object_02,421.0,4,1,292.5,0.5555555555555556,2,object_06,5,2070,0,3,5,forest_2,2,memory-2step-stake-s,660,2440077,0.0-19.0-0.1-0.155,A3W1CKM4PBLRC0,306996CF7Z0Y3F4KVQ7DFLTE4FJB13,3YZ8UPK3VX2080LI1GIUQR0GR9FCU6,4,3
156,2,object_02,object_08,923.30000001192,3,1,261.69999998808,0.3333333333333333,1,object_09,5,2085,0,3,4,forest_5,2,memory-2step-stake-s,661,2447886,0.0-19.0-0.1-0.156,A3W1CKM4PBLRC0,306996CF7Z0Y3F4KVQ7DFLTE4FJB13,3YZ8UPK3VX2080LI1GIUQR0GR9FCU6,3,4
157,4,object_05,object_07,525.79999995232,7,1,261.30000001192,0.2222222222222222,1,object_09,1,2087,0,2,5,restaurant_5,2,memory-2step-stake-s,662,2455592,0.0-19.0-0.1-0.157,A3W1CKM4PBLRC0,306996CF7Z0Y3F4KVQ7DFLTE4FJB13,3YZ8UPK3VX2080LI1GIUQR0GR9FCU6,7,8
158,4,object_07,object_05,609.79999995232,8,1,252.60000002384,0.4444444444444444,2,object_06,5,2107,0,5,4,restaurant_5,2,memory-2step-stake-s,663,2463488,0.0-19.0-0.1-0.158,A3W1CKM4PBLRC0,306996CF7Z0Y3F4KVQ7DFLTE4FJB13,3YZ8UPK3VX2080LI1GIUQR0GR9FCU6,8,7
159,2,object_08,object_02,491.40000003576,4,1,476.40000003576,0.5555555555555556,2,object_06,5,2132,0,4,5,forest_5,2,memory-2step-stake-s,664,2471716,0.0-19.0-0.1-0.159,A3W1CKM4PBLRC0,306996CF7Z0Y3F4KVQ7DFLTE4FJB13,3YZ8UPK3VX2080LI1GIUQR0GR9FCU6,4,3
160,1,object_04,object_03,967.5,1,1,413.89999997616,0.2222222222222222,1,object_09,5,2142,0,2,3,desert_6,2,memory-2step-stake-s,665,2479571,0.0-19.0-0.1-0.160,A3W1CKM4PBLRC0,306996CF7Z0Y3F4KVQ7DFLTE4FJB13,3YZ8UPK3VX2080LI1GIUQR0GR9FCU6,1,2
161,3,object_01,object_10,964.60000002384,5,2,449.5,0.2222222222222222,1,object_09,1,2144,0,2,1,library_5,2,memory-2step-stake-s,666,2487473,0.0-19.0-0.1-0.161,A3W1CKM4PBLRC0,306996CF7Z0Y3F4KVQ7DFLTE4FJB13,3YZ8UPK3VX2080LI1GIUQR0GR9FCU6,6,5
162,1,object_04,object_03,484.5,2,2,299.79999995232,0.6666666666666666,2,object_06,1,2150,0,2,6,desert_8,2,memory-2step-stake-s,667,2495621,0.0-19.0-0.1-0.162,A3W1CKM4PBLRC0,306996CF7Z0Y3F4KVQ7DFLTE4FJB13,3YZ8UPK3VX2080LI1GIUQR0GR9FCU6,1,2
163,1,object_04,object_03,336.60000002384,1,1,300.39999997616,0.0,1,object_09,1,2150,0,0,6,desert_1,2,memory-2step-stake-s,668,2503152,0.0-19.0-0.1-0.163,A3W1CKM4PBLRC0,306996CF7Z0Y3F4KVQ7DFLTE4FJB13,3YZ8UPK3VX2080LI1GIUQR0GR9FCU6,1,2
164,3,object_10,object_01,596.80000001192,6,2,196.19999998808,0.6666666666666666,2,object_06,5,2180,0,2,6,library_5,2,memory-2step-stake-s,669,2511200,0.0-19.0-0.1-0.164,A3W1CKM4PBLRC0,306996CF7Z0Y3F4KVQ7DFLTE4FJB13,3YZ8UPK3VX2080LI1GIUQR0GR9FCU6,5,6
165,2,object_08,object_02,616.19999998808,4,1,287.5,0.4444444444444444,2,object_06,1,2184,0,3,4,forest_8,2,memory-2step-stake-s,670,2519131,0.0-19.0-0.1-0.165,A3W1CKM4PBLRC0,306996CF7Z0Y3F4KVQ7DFLTE4FJB13,3YZ8UPK3VX2080LI1GIUQR0GR9FCU6,4,3
166,1,object_04,object_03,375.30000001192,2,2,263.59999996424,0.4444444444444444,2,object_06,5,2204,0,1,4,desert_1,2,memory-2step-stake-s,671,2527036,0.0-19.0-0.1-0.166,A3W1CKM4PBLRC0,306996CF7Z0Y3F4KVQ7DFLTE4FJB13,3YZ8UPK3VX2080LI1GIUQR0GR9FCU6,1,2
167,3,object_01,object_10,743.19999998808,6,1,267.10000002384,0.6666666666666666,2,object_06,5,2234,0,0,6,library_8,2,memory-2step-stake-s,672,2535149,0.0-19.0-0.1-0.167,A3W1CKM4PBLRC0,306996CF7Z0Y3F4KVQ7DFLTE4FJB13,3YZ8UPK3VX2080LI1GIUQR0GR9FCU6,6,5
168,3,object_10,object_01,628.0,6,2,307.30000001192,0.7777777777777778,2,object_06,1,2241,0,2,7,library_8,2,memory-2step-stake-s,673,2543416,0.0-19.0-0.1-0.168,A3W1CKM4PBLRC0,306996CF7Z0Y3F4KVQ7DFLTE4FJB13,3YZ8UPK3VX2080LI1GIUQR0GR9FCU6,5,6
169,4,object_07,object_05,773.09999996424,8,1,263.0,0.5555555555555556,2,object_06,1,2246,0,4,5,restaurant_5,2,memory-2step-stake-s,674,2551425,0.0-19.0-0.1-0.169,A3W1CKM4PBLRC0,306996CF7Z0Y3F4KVQ7DFLTE4FJB13,3YZ8UPK3VX2080LI1GIUQR0GR9FCU6,8,7
170,3,object_10,object_01,492.60000002384,5,1,243.60000002384,0.4444444444444444,1,object_09,1,2250,0,4,3,library_5,2,memory-2step-stake-s,675,2559321,0.0-19.0-0.1-0.170,A3W1CKM4PBLRC0,306996CF7Z0Y3F4KVQ7DFLTE4FJB13,3YZ8UPK3VX2080LI1GIUQR0GR9FCU6,5,6
171,1,object_04,object_03,406.89999997616,2,2,254.10000002384,0.3333333333333333,2,object_06,5,2265,0,5,3,desert_8,2,memory-2step-stake-s,676,2567130,0.0-19.0-0.1-0.171,A3W1CKM4PBLRC0,306996CF7Z0Y3F4KVQ7DFLTE4FJB13,3YZ8UPK3VX2080LI1GIUQR0GR9FCU6,1,2
172,3,object_10,object_01,899.5,6,2,262.40000003576,0.4444444444444444,2,object_06,1,2269,0,7,4,library_1,2,memory-2step-stake-s,677,2575042,0.0-19.0-0.1-0.172,A3W1CKM4PBLRC0,306996CF7Z0Y3F4KVQ7DFLTE4FJB13,3YZ8UPK3VX2080LI1GIUQR0GR9FCU6,5,6
173,4,object_05,object_07,599.69999998808,8,2,303.30000001192,0.6666666666666666,2,object_06,1,2275,0,4,6,restaurant_7,2,memory-2step-stake-s,678,2583204,0.0-19.0-0.1-0.173,A3W1CKM4PBLRC0,306996CF7Z0Y3F4KVQ7DFLTE4FJB13,3YZ8UPK3VX2080LI1GIUQR0GR9FCU6,7,8
174,2,object_08,object_02,483.0,4,1,279.70000004768,0.7777777777777778,2,object_06,1,2282,0,4,7,forest_6,2,memory-2step-stake-s,679,2591440,0.0-19.0-0.1-0.174,A3W1CKM4PBLRC0,306996CF7Z0Y3F4KVQ7DFLTE4FJB13,3YZ8UPK3VX2080LI1GIUQR0GR9FCU6,4,3
175,3,object_10,object_01,570.70000004768,5,1,250.10000002384,0.2222222222222222,1,object_09,1,2284,0,2,9,library_5,2,memory-2step-stake-s,680,2599153,0.0-19.0-0.1-0.175,A3W1CKM4PBLRC0,306996CF7Z0Y3F4KVQ7DFLTE4FJB13,3YZ8UPK3VX2080LI1GIUQR0GR9FCU6,5,6
176,2,object_08,object_02,582.89999997616,4,1,296.89999997616,0.4444444444444444,2,object_06,5,2304,0,5,4,forest_6,2,memory-2step-stake-s,681,2607118,0.0-19.0-0.1-0.176,A3W1CKM4PBLRC0,306996CF7Z0Y3F4KVQ7DFLTE4FJB13,3YZ8UPK3VX2080LI1GIUQR0GR9FCU6,4,3
177,1,object_03,object_04,474.29999995232,1,2,301.80000001192,1.0,1,object_09,5,2349,0,9,2,desert_4,2,memory-2step-stake-s,682,2615595,0.0-19.0-0.1-0.177,A3W1CKM4PBLRC0,306996CF7Z0Y3F4KVQ7DFLTE4FJB13,3YZ8UPK3VX2080LI1GIUQR0GR9FCU6,2,1
178,4,object_05,object_07,1025.6000000238,8,2,232.30000001192,0.2222222222222222,2,object_06,5,2359,0,7,2,restaurant_1,2,memory-2step-stake-s,683,2623289,0.0-19.0-0.1-0.178,A3W1CKM4PBLRC0,306996CF7Z0Y3F4KVQ7DFLTE4FJB13,3YZ8UPK3VX2080LI1GIUQR0GR9FCU6,7,8
179,2,object_02,object_08,631.59999996424,4,2,311.40000003576,0.3333333333333333,2,object_06,5,2374,0,8,3,forest_8,2,memory-2step-stake-s,684,2631155,0.0-19.0-0.1-0.179,A3W1CKM4PBLRC0,306996CF7Z0Y3F4KVQ7DFLTE4FJB13,3YZ8UPK3VX2080LI1GIUQR0GR9FCU6,3,4
180,1,object_04,object_03,867.80000001192,2,2,342.60000002384,0.6666666666666666,2,object_06,5,2404,0,8,6,desert_1,2,memory-2step-stake-s,685,2639357,0.0-19.0-0.1-0.180,A3W1CKM4PBLRC0,306996CF7Z0Y3F4KVQ7DFLTE4FJB13,3YZ8UPK3VX2080LI1GIUQR0GR9FCU6,1,2
181,1,object_03,object_04,508.19999998808,2,1,265.10000002384,0.4444444444444444,2,object_06,5,2424,0,5,4,desert_6,2,memory-2step-stake-s,686,2647282,0.0-19.0-0.1-0.181,A3W1CKM4PBLRC0,306996CF7Z0Y3F4KVQ7DFLTE4FJB13,3YZ8UPK3VX2080LI1GIUQR0GR9FCU6,2,1
182,2,object_08,object_02,580.39999997616,3,2,274.0,0.2222222222222222,1,object_09,5,2434,0,2,6,forest_5,2,memory-2step-stake-s,687,2654998,0.0-19.0-0.1-0.182,A3W1CKM4PBLRC0,306996CF7Z0Y3F4KVQ7DFLTE4FJB13,3YZ8UPK3VX2080LI1GIUQR0GR9FCU6,4,3
183,3,object_10,object_01,433.70000004768,6,2,331.30000001192,0.8888888888888888,2,object_06,5,2474,0,2,8,library_1,2,memory-2step-stake-s,688,2663389,0.0-19.0-0.1-0.183,A3W1CKM4PBLRC0,306996CF7Z0Y3F4KVQ7DFLTE4FJB13,3YZ8UPK3VX2080LI1GIUQR0GR9FCU6,5,6
184,3,object_10,object_01,505.09999996424,6,2,292.10000002384,0.8888888888888888,2,object_06,1,2482,0,4,8,library_4,2,memory-2step-stake-s,689,2671745,0.0-19.0-0.1-0.184,A3W1CKM4PBLRC0,306996CF7Z0Y3F4KVQ7DFLTE4FJB13,3YZ8UPK3VX2080LI1GIUQR0GR9FCU6,5,6
185,2,object_02,object_08,459.80000001192,3,1,256.80000001192,0.1111111111111111,1,object_09,5,2487,0,1,8,forest_8,2,memory-2step-stake-s,690,2679353,0.0-19.0-0.1-0.185,A3W1CKM4PBLRC0,306996CF7Z0Y3F4KVQ7DFLTE4FJB13,3YZ8UPK3VX2080LI1GIUQR0GR9FCU6,3,4
186,1,object_04,object_03,369.80000001192,2,2,267.0,0.8888888888888888,2,object_06,5,2527,0,1,8,desert_8,2,memory-2step-stake-s,691,2687682,0.0-19.0-0.1-0.186,A3W1CKM4PBLRC0,306996CF7Z0Y3F4KVQ7DFLTE4FJB13,3YZ8UPK3VX2080LI1GIUQR0GR9FCU6,1,2
187,4,object_05,object_07,428.60000002384,7,1,315.0,0.1111111111111111,1,object_09,1,2528,0,1,7,restaurant_6,2,memory-2step-stake-s,692,2695342,0.0-19.0-0.1-0.187,A3W1CKM4PBLRC0,306996CF7Z0Y3F4KVQ7DFLTE4FJB13,3YZ8UPK3VX2080LI1GIUQR0GR9FCU6,7,8
188,4,object_05,object_07,455.89999997616,8,2,362.0,0.6666666666666666,2,object_06,5,2558,0,2,6,restaurant_5,2,memory-2step-stake-s,693,2703558,0.0-19.0-0.1-0.188,A3W1CKM4PBLRC0,306996CF7Z0Y3F4KVQ7DFLTE4FJB13,3YZ8UPK3VX2080LI1GIUQR0GR9FCU6,7,8
189,1,object_03,object_04,1118.6999999881,1,2,306.89999997616,0.3333333333333333,1,object_09,5,2573,0,3,2,desert_1,2,memory-2step-stake-s,694,2711416,0.0-19.0-0.1-0.189,A3W1CKM4PBLRC0,306996CF7Z0Y3F4KVQ7DFLTE4FJB13,3YZ8UPK3VX2080LI1GIUQR0GR9FCU6,2,1
190,3,object_10,object_01,450.09999996424,6,2,330.10000002384,0.4444444444444444,2,object_06,1,2577,0,0,4,library_4,2,memory-2step-stake-s,695,2719406,0.0-19.0-0.1-0.190,A3W1CKM4PBLRC0,306996CF7Z0Y3F4KVQ7DFLTE4FJB13,3YZ8UPK3VX2080LI1GIUQR0GR9FCU6,5,6
191,2,object_08,object_02,425.40000003576,4,1,313.69999998808,0.1111111111111111,2,object_06,5,2582,0,2,1,forest_2,2,memory-2step-stake-s,696,2727079,0.0-19.0-0.1-0.191,A3W1CKM4PBLRC0,306996CF7Z0Y3F4KVQ7DFLTE4FJB13,3YZ8UPK3VX2080LI1GIUQR0GR9FCU6,4,3
192,2,object_02,object_08,414.60000002384,4,2,355.80000001192,0.2222222222222222,2,object_06,5,2592,0,2,2,forest_8,2,memory-2step-stake-s,697,2734879,0.0-19.0-0.1-0.192,A3W1CKM4PBLRC0,306996CF7Z0Y3F4KVQ7DFLTE4FJB13,3YZ8UPK3VX2080LI1GIUQR0GR9FCU6,3,4
193,2,object_02,object_08,361.30000001192,3,1,285.19999998808,0.6666666666666666,1,object_09,5,2622,0,6,5,forest_5,2,memory-2step-stake-s,698,2743021,0.0-19.0-0.1-0.193,A3W1CKM4PBLRC0,306996CF7Z0Y3F4KVQ7DFLTE4FJB13,3YZ8UPK3VX2080LI1GIUQR0GR9FCU6,3,4
194,3,object_10,object_01,406.89999997616,6,2,279.70000004768,0.6666666666666666,2,object_06,1,2628,0,7,6,library_1,2,memory-2step-stake-s,699,2751161,0.0-19.0-0.1-0.194,A3W1CKM4PBLRC0,306996CF7Z0Y3F4KVQ7DFLTE4FJB13,3YZ8UPK3VX2080LI1GIUQR0GR9FCU6,5,6
195,1,object_04,object_03,416.30000001192,1,1,381.19999998808,0.5555555555555556,1,object_09,5,2653,0,5,6,desert_1,2,memory-2step-stake-s,700,2759316,0.0-19.0-0.1-0.195,A3W1CKM4PBLRC0,306996CF7Z0Y3F4KVQ7DFLTE4FJB13,3YZ8UPK3VX2080LI1GIUQR0GR9FCU6,1,2
196,4,object_05,object_07,890.5,8,2,312.5,0.8888888888888888,2,object_06,1,2661,0,3,8,restaurant_5,2,memory-2step-stake-s,701,2767683,0.0-19.0-0.1-0.196,A3W1CKM4PBLRC0,306996CF7Z0Y3F4KVQ7DFLTE4FJB13,3YZ8UPK3VX2080LI1GIUQR0GR9FCU6,7,8
197,3,object_10,object_01,786.40000003576,6,2,267.80000001192,0.8888888888888888,2,object_06,5,2701,0,0,8,library_1,2,memory-2step-stake-s,702,2775984,0.0-19.0-0.1-0.197,A3W1CKM4PBLRC0,306996CF7Z0Y3F4KVQ7DFLTE4FJB13,3YZ8UPK3VX2080LI1GIUQR0GR9FCU6,5,6
198,4,object_07,object_05,544.19999998808,8,1,395.69999998808,1.0,2,object_06,1,2710,0,1,9,restaurant_5,2,memory-2step-stake-s,703,2784506,0.0-19.0-0.1-0.198,A3W1CKM4PBLRC0,306996CF7Z0Y3F4KVQ7DFLTE4FJB13,3YZ8UPK3VX2080LI1GIUQR0GR9FCU6,8,7
199,1,object_03,object_04,843.20000004768,1,2,253.60000002384,0.0,1,object_09,5,2710,0,0,8,desert_1,2,memory-2step-stake-s,704,2791974,0.0-19.0-0.1-0.199,A3W1CKM4PBLRC0,306996CF7Z0Y3F4KVQ7DFLTE4FJB13,3YZ8UPK3VX2080LI1GIUQR0GR9FCU6,2,1
200,4,object_07,object_05,766.0,7,2,254.89999997616,0.5555555555555556,1,object_09,1,2715,0,5,6,restaurant_7,2,memory-2step-stake-s,705,2799949,0.0-19.0-0.1-0.200,A3W1CKM4PBLRC0,306996CF7Z0Y3F4KVQ7DFLTE4FJB13,3YZ8UPK3VX2080LI1GIUQR0GR9FCU6,8,7
201,2,object_02,object_08,432.89999997616,3,1,316.69999998808,0.6666666666666666,1,object_09,1,2721,0,6,7,forest_6,2,memory-2step-stake-s,706,2808093,0.0-19.0-0.1-0.201,A3W1CKM4PBLRC0,306996CF7Z0Y3F4KVQ7DFLTE4FJB13,3YZ8UPK3VX2080LI1GIUQR0GR9FCU6,3,4
202,1,object_04,object_03,464.10000002384,1,1,327.80000001192,0.6666666666666666,1,object_09,5,2751,0,6,6,desert_1,2,memory-2step-stake-s,707,2816244,0.0-19.0-0.1-0.202,A3W1CKM4PBLRC0,306996CF7Z0Y3F4KVQ7DFLTE4FJB13,3YZ8UPK3VX2080LI1GIUQR0GR9FCU6,1,2
203,3,object_10,object_01,662.80000001192,6,2,244.30000001192,0.8888888888888888,2,object_06,1,2759,0,7,8,library_4,2,memory-2step-stake-s,708,2824510,0.0-19.0-0.1-0.203,A3W1CKM4PBLRC0,306996CF7Z0Y3F4KVQ7DFLTE4FJB13,3YZ8UPK3VX2080LI1GIUQR0GR9FCU6,5,6
204,1,object_03,object_04,563.80000001192,1,2,295.39999997616,0.4444444444444444,1,object_09,5,2779,0,4,6,desert_6,2,memory-2step-stake-s,709,2832425,0.0-19.0-0.1-0.204,A3W1CKM4PBLRC0,306996CF7Z0Y3F4KVQ7DFLTE4FJB13,3YZ8UPK3VX2080LI1GIUQR0GR9FCU6,2,1
205,4,object_05,object_07,318.19999998808,8,2,256.5,0.8888888888888888,2,object_06,1,2787,0,1,8,restaurant_1,2,memory-2step-stake-s,710,2840705,0.0-19.0-0.1-0.205,A3W1CKM4PBLRC0,306996CF7Z0Y3F4KVQ7DFLTE4FJB13,3YZ8UPK3VX2080LI1GIUQR0GR9FCU6,7,8
206,3,object_10,object_01,558.69999998808,5,1,298.90000003576,0.3333333333333333,1,object_09,1,2790,0,3,8,library_4,2,memory-2step-stake-s,711,2848523,0.0-19.0-0.1-0.206,A3W1CKM4PBLRC0,306996CF7Z0Y3F4KVQ7DFLTE4FJB13,3YZ8UPK3VX2080LI1GIUQR0GR9FCU6,5,6
207,1,object_04,object_03,371.60000002384,1,1,396.89999997616,0.6666666666666666,1,object_09,5,2820,0,6,8,desert_1,2,memory-2step-stake-s,712,2856742,0.0-19.0-0.1-0.207,A3W1CKM4PBLRC0,306996CF7Z0Y3F4KVQ7DFLTE4FJB13,3YZ8UPK3VX2080LI1GIUQR0GR9FCU6,1,2
208,2,object_02,object_08,920.5,3,1,306.80000001192,0.3333333333333333,1,object_09,5,2835,0,3,7,forest_2,2,memory-2step-stake-s,713,2864569,0.0-19.0-0.1-0.208,A3W1CKM4PBLRC0,306996CF7Z0Y3F4KVQ7DFLTE4FJB13,3YZ8UPK3VX2080LI1GIUQR0GR9FCU6,3,4
209,3,object_01,object_10,685.29999995232,6,1,424.5,0.8888888888888888,2,object_06,1,2843,0,2,8,library_5,2,memory-2step-stake-s,714,2873020,0.0-19.0-0.1-0.209,A3W1CKM4PBLRC0,306996CF7Z0Y3F4KVQ7DFLTE4FJB13,3YZ8UPK3VX2080LI1GIUQR0GR9FCU6,6,5
210,1,object_03,object_04,461.09999996424,1,2,420.19999998808,0.1111111111111111,1,object_09,5,2848,0,1,9,desert_1,2,memory-2step-stake-s,715,2880758,0.0-19.0-0.1-0.210,A3W1CKM4PBLRC0,306996CF7Z0Y3F4KVQ7DFLTE4FJB13,3YZ8UPK3VX2080LI1GIUQR0GR9FCU6,2,1
211,2,object_08,object_02,368.90000003576,3,2,251.40000003576,0.0,1,object_09,5,2848,0,0,8,forest_6,2,memory-2step-stake-s,716,2888226,0.0-19.0-0.1-0.211,A3W1CKM4PBLRC0,306996CF7Z0Y3F4KVQ7DFLTE4FJB13,3YZ8UPK3VX2080LI1GIUQR0GR9FCU6,4,3
212,1,object_04,object_03,533.30000001192,2,2,303.10000002384,0.8888888888888888,2,object_06,5,2888,0,1,8,desert_8,2,memory-2step-stake-s,717,2896567,0.0-19.0-0.1-0.212,A3W1CKM4PBLRC0,306996CF7Z0Y3F4KVQ7DFLTE4FJB13,3YZ8UPK3VX2080LI1GIUQR0GR9FCU6,1,2
213,1,object_03,object_04,433.89999997616,2,1,329.5,0.8888888888888888,2,object_06,5,2928,0,2,8,desert_4,2,memory-2step-stake-s,718,2904928,0.0-19.0-0.1-0.213,A3W1CKM4PBLRC0,306996CF7Z0Y3F4KVQ7DFLTE4FJB13,3YZ8UPK3VX2080LI1GIUQR0GR9FCU6,2,1
214,3,object_01,object_10,833.0,6,1,297.60000002384,0.3333333333333333,2,object_06,5,2943,0,0,3,library_1,2,memory-2step-stake-s,719,2912747,0.0-19.0-0.1-0.214,A3W1CKM4PBLRC0,306996CF7Z0Y3F4KVQ7DFLTE4FJB13,3YZ8UPK3VX2080LI1GIUQR0GR9FCU6,6,5
215,2,object_02,object_08,453.39999997616,4,2,293.10000002384,0.3333333333333333,2,object_06,5,2958,0,2,3,forest_5,2,memory-2step-stake-s,720,2920568,0.0-19.0-0.1-0.215,A3W1CKM4PBLRC0,306996CF7Z0Y3F4KVQ7DFLTE4FJB13,3YZ8UPK3VX2080LI1GIUQR0GR9FCU6,3,4
216,3,object_10,object_01,815.0,6,2,302.5,0.2222222222222222,2,object_06,5,2968,0,0,2,library_5,2,memory-2step-stake-s,721,2928294,0.0-19.0-0.1-0.216,A3W1CKM4PBLRC0,306996CF7Z0Y3F4KVQ7DFLTE4FJB13,3YZ8UPK3VX2080LI1GIUQR0GR9FCU6,5,6
217,4,object_05,object_07,428.10000002384,8,2,287.89999997616,0.2222222222222222,2,object_06,5,2978,0,3,2,restaurant_1,2,memory-2step-stake-s,722,2936003,0.0-19.0-0.1-0.217,A3W1CKM4PBLRC0,306996CF7Z0Y3F4KVQ7DFLTE4FJB13,3YZ8UPK3VX2080LI1GIUQR0GR9FCU6,7,8
218,1,object_04,object_03,627.5,2,2,298.5,0.3333333333333333,2,object_06,5,2993,0,6,3,desert_8,2,memory-2step-stake-s,723,2943826,0.0-19.0-0.1-0.218,A3W1CKM4PBLRC0,306996CF7Z0Y3F4KVQ7DFLTE4FJB13,3YZ8UPK3VX2080LI1GIUQR0GR9FCU6,1,2
219,3,object_01,object_10,676.80000001192,5,2,278.5,0.8888888888888888,1,object_09,5,3033,0,8,1,library_4,2,memory-2step-stake-s,724,2952135,0.0-19.0-0.1-0.219,A3W1CKM4PBLRC0,306996CF7Z0Y3F4KVQ7DFLTE4FJB13,3YZ8UPK3VX2080LI1GIUQR0GR9FCU6,6,5
220,1,object_04,object_03,650.29999995232,2,2,266.60000002384,0.3333333333333333,2,object_06,5,3048,0,4,3,desert_4,2,memory-2step-stake-s,725,2959924,0.0-19.0-0.1-0.220,A3W1CKM4PBLRC0,306996CF7Z0Y3F4KVQ7DFLTE4FJB13,3YZ8UPK3VX2080LI1GIUQR0GR9FCU6,1,2
221,4,object_07,object_05,1057.6000000238,7,2,374.59999996424,0.2222222222222222,1,object_09,1,3050,0,2,6,restaurant_6,2,memory-2step-stake-s,726,2967725,0.0-19.0-0.1-0.221,A3W1CKM4PBLRC0,306996CF7Z0Y3F4KVQ7DFLTE4FJB13,3YZ8UPK3VX2080LI1GIUQR0GR9FCU6,8,7
222,1,object_03,object_04,562.5,1,2,385.19999998808,0.3333333333333333,1,object_09,5,3065,0,3,6,desert_8,2,memory-2step-stake-s,727,2975640,0.0-19.0-0.1-0.222,A3W1CKM4PBLRC0,306996CF7Z0Y3F4KVQ7DFLTE4FJB13,3YZ8UPK3VX2080LI1GIUQR0GR9FCU6,2,1
223,1,object_04,object_03,490.19999998808,1,1,276.30000001192,0.5555555555555556,1,object_09,1,3070,0,5,2,desert_6,2,memory-2step-stake-s,728,2983643,0.0-19.0-0.1-0.223,A3W1CKM4PBLRC0,306996CF7Z0Y3F4KVQ7DFLTE4FJB13,3YZ8UPK3VX2080LI1GIUQR0GR9FCU6,1,2
224,1,object_04,object_03,356.40000003576,1,1,262.59999996424,0.6666666666666666,1,object_09,5,3100,0,6,3,desert_8,2,memory-2step-stake-s,729,2991740,0.0-19.0-0.1-0.224,A3W1CKM4PBLRC0,306996CF7Z0Y3F4KVQ7DFLTE4FJB13,3YZ8UPK3VX2080LI1GIUQR0GR9FCU6,1,2
225,1,object_04,object_03,309.59999996424,1,1,280.0,0.7777777777777778,1,object_09,1,3107,0,7,4,desert_1,2,memory-2step-stake-s,730,2999952,0.0-19.0-0.1-0.225,A3W1CKM4PBLRC0,306996CF7Z0Y3F4KVQ7DFLTE4FJB13,3YZ8UPK3VX2080LI1GIUQR0GR9FCU6,1,2
226,2,object_08,object_02,333.5,3,2,286.69999998808,0.7777777777777778,1,object_09,5,3142,0,7,4,forest_2,2,memory-2step-stake-s,731,3008176,0.0-19.0-0.1-0.226,A3W1CKM4PBLRC0,306996CF7Z0Y3F4KVQ7DFLTE4FJB13,3YZ8UPK3VX2080LI1GIUQR0GR9FCU6,4,3
227,2,object_08,object_02,367.40000003576,3,2,287.29999995232,0.8888888888888888,1,object_09,5,3182,0,8,1,forest_5,2,memory-2step-stake-s,732,3016500,0.0-19.0-0.1-0.227,A3W1CKM4PBLRC0,306996CF7Z0Y3F4KVQ7DFLTE4FJB13,3YZ8UPK3VX2080LI1GIUQR0GR9FCU6,4,3
228,4,object_05,object_07,547.0,7,1,275.39999997616,0.8888888888888888,1,object_09,1,3190,0,8,2,restaurant_5,2,memory-2step-stake-s,733,3024811,0.0-19.0-0.1-0.228,A3W1CKM4PBLRC0,306996CF7Z0Y3F4KVQ7DFLTE4FJB13,3YZ8UPK3VX2080LI1GIUQR0GR9FCU6,7,8
229,3,object_10,object_01,670.89999997616,5,1,274.20000004768,1.0,1,object_09,5,3235,0,9,3,library_1,2,memory-2step-stake-s,734,3033224,0.0-19.0-0.1-0.229,A3W1CKM4PBLRC0,306996CF7Z0Y3F4KVQ7DFLTE4FJB13,3YZ8UPK3VX2080LI1GIUQR0GR9FCU6,5,6
230,4,object_05,object_07,1103.8999999762,8,2,279.89999997616,0.1111111111111111,2,object_06,1,3236,0,6,1,restaurant_7,2,memory-2step-stake-s,735,3040827,0.0-19.0-0.1-0.230,A3W1CKM4PBLRC0,306996CF7Z0Y3F4KVQ7DFLTE4FJB13,3YZ8UPK3VX2080LI1GIUQR0GR9FCU6,7,8
231,4,object_05,object_07,349.69999998808,7,1,340.0,0.8888888888888888,1,object_09,1,3244,0,8,0,restaurant_7,2,memory-2step-stake-s,736,3049204,0.0-19.0-0.1-0.231,A3W1CKM4PBLRC0,306996CF7Z0Y3F4KVQ7DFLTE4FJB13,3YZ8UPK3VX2080LI1GIUQR0GR9FCU6,7,8
232,3,object_10,object_01,527.39999997616,5,1,265.19999998808,0.6666666666666666,1,object_09,1,3250,0,6,4,library_1,2,memory-2step-stake-s,737,3057301,0.0-19.0-0.1-0.232,A3W1CKM4PBLRC0,306996CF7Z0Y3F4KVQ7DFLTE4FJB13,3YZ8UPK3VX2080LI1GIUQR0GR9FCU6,5,6
233,4,object_07,object_05,525.0,7,2,316.69999998808,0.8888888888888888,1,object_09,1,3258,0,8,3,restaurant_6,2,memory-2step-stake-s,738,3065672,0.0-19.0-0.1-0.233,A3W1CKM4PBLRC0,306996CF7Z0Y3F4KVQ7DFLTE4FJB13,3YZ8UPK3VX2080LI1GIUQR0GR9FCU6,8,7
234,2,object_08,object_02,391.79999995232,3,2,308.10000002384,0.8888888888888888,1,object_09,1,3266,0,8,0,forest_8,2,memory-2step-stake-s,739,3074017,0.0-19.0-0.1-0.234,A3W1CKM4PBLRC0,306996CF7Z0Y3F4KVQ7DFLTE4FJB13,3YZ8UPK3VX2080LI1GIUQR0GR9FCU6,4,3
235,2,object_02,object_08,399.19999998808,3,1,344.89999997616,0.8888888888888888,1,object_09,5,3306,0,8,2,forest_2,2,memory-2step-stake-s,740,3082403,0.0-19.0-0.1-0.235,A3W1CKM4PBLRC0,306996CF7Z0Y3F4KVQ7DFLTE4FJB13,3YZ8UPK3VX2080LI1GIUQR0GR9FCU6,3,4
236,1,object_03,object_04,469.0,1,2,264.40000003576,1.0,1,object_09,5,3351,0,9,1,desert_6,2,memory-2step-stake-s,741,3090806,0.0-19.0-0.1-0.236,A3W1CKM4PBLRC0,306996CF7Z0Y3F4KVQ7DFLTE4FJB13,3YZ8UPK3VX2080LI1GIUQR0GR9FCU6,2,1
237,1,object_04,object_03,396.19999998808,1,1,291.30000001192,0.8888888888888888,1,object_09,1,3359,0,8,3,desert_8,2,memory-2step-stake-s,742,3099137,0.0-19.0-0.1-0.237,A3W1CKM4PBLRC0,306996CF7Z0Y3F4KVQ7DFLTE4FJB13,3YZ8UPK3VX2080LI1GIUQR0GR9FCU6,1,2
238,4,object_05,object_07,717.69999998808,8,2,270.69999998808,0.5555555555555556,2,object_06,5,3384,0,9,5,restaurant_1,2,memory-2step-stake-s,743,3107150,0.0-19.0-0.1-0.238,A3W1CKM4PBLRC0,306996CF7Z0Y3F4KVQ7DFLTE4FJB13,3YZ8UPK3VX2080LI1GIUQR0GR9FCU6,7,8
239,2,object_02,object_08,427.30000001192,3,1,379.30000001192,1.0,1,object_09,1,3393,0,9,3,forest_5,2,memory-2step-stake-s,744,3115672,0.0-19.0-0.1-0.239,A3W1CKM4PBLRC0,306996CF7Z0Y3F4KVQ7DFLTE4FJB13,3YZ8UPK3VX2080LI1GIUQR0GR9FCU6,3,4
240,1,object_04,object_03,468.69999998808,1,1,330.0,0.8888888888888888,1,object_09,5,3433,0,8,6,desert_6,2,memory-2step-stake-s,745,3124050,0.0-19.0-0.1-0.240,A3W1CKM4PBLRC0,306996CF7Z0Y3F4KVQ7DFLTE4FJB13,3YZ8UPK3VX2080LI1GIUQR0GR9FCU6,1,2
241,4,object_07,object_05,546.19999998808,8,1,350.60000002384,1.0,2,object_06,5,3478,0,8,9,restaurant_7,2,memory-2step-stake-s,746,3132558,0.0-19.0-0.1-0.241,A3W1CKM4PBLRC0,306996CF7Z0Y3F4KVQ7DFLTE4FJB13,3YZ8UPK3VX2080LI1GIUQR0GR9FCU6,8,7
242,1,object_03,object_04,412.60000002384,1,2,359.39999997616,0.7777777777777778,1,object_09,5,3513,0,7,5,desert_1,2,memory-2step-stake-s,747,3140836,0.0-19.0-0.1-0.242,A3W1CKM4PBLRC0,306996CF7Z0Y3F4KVQ7DFLTE4FJB13,3YZ8UPK3VX2080LI1GIUQR0GR9FCU6,2,1
243,4,object_07,object_05,913.60000002384,7,2,340.19999998808,0.8888888888888888,1,object_09,1,3521,0,8,5,restaurant_5,2,memory-2step-stake-s,748,3149212,0.0-19.0-0.1-0.243,A3W1CKM4PBLRC0,306996CF7Z0Y3F4KVQ7DFLTE4FJB13,3YZ8UPK3VX2080LI1GIUQR0GR9FCU6,8,7
244,3,object_10,object_01,835.39999997616,5,1,310.10000002384,0.8888888888888888,1,object_09,5,3561,0,8,7,library_4,2,memory-2step-stake-s,749,3157565,0.0-19.0-0.1-0.244,A3W1CKM4PBLRC0,306996CF7Z0Y3F4KVQ7DFLTE4FJB13,3YZ8UPK3VX2080LI1GIUQR0GR9FCU6,5,6
245,1,object_04,object_03,489.0,1,1,351.5,0.3333333333333333,1,object_09,5,3576,0,3,8,desert_6,2,memory-2step-stake-s,750,3165463,0.0-19.0-0.1-0.245,A3W1CKM4PBLRC0,306996CF7Z0Y3F4KVQ7DFLTE4FJB13,3YZ8UPK3VX2080LI1GIUQR0GR9FCU6,1,2
246,4,object_05,object_07,576.59999996424,8,2,372.29999995232,0.8888888888888888,2,object_06,1,3584,0,7,8,restaurant_1,2,memory-2step-stake-s,751,3173870,0.0-19.0-0.1-0.246,A3W1CKM4PBLRC0,306996CF7Z0Y3F4KVQ7DFLTE4FJB13,3YZ8UPK3VX2080LI1GIUQR0GR9FCU6,7,8
247,4,object_05,object_07,568.40000003576,8,2,292.19999998808,1.0,2,object_06,1,3593,0,8,9,restaurant_5,2,memory-2step-stake-s,752,3182288,0.0-19.0-0.1-0.247,A3W1CKM4PBLRC0,306996CF7Z0Y3F4KVQ7DFLTE4FJB13,3YZ8UPK3VX2080LI1GIUQR0GR9FCU6,7,8
248,2,object_08,object_02,431.60000002384,3,2,325.90000003576,0.6666666666666666,1,object_09,5,3623,0,6,5,forest_2,2,memory-2step-stake-s,753,3190444,0.0-19.0-0.1-0.248,A3W1CKM4PBLRC0,306996CF7Z0Y3F4KVQ7DFLTE4FJB13,3YZ8UPK3VX2080LI1GIUQR0GR9FCU6,4,3
249,2,object_02,object_08,460.40000003576,3,1,273.0,0.8888888888888888,1,object_09,5,3663,0,8,4,forest_5,2,memory-2step-stake-s,754,3198772,0.0-19.0-0.1-0.249,A3W1CKM4PBLRC0,306996CF7Z0Y3F4KVQ7DFLTE4FJB13,3YZ8UPK3VX2080LI1GIUQR0GR9FCU6,3,4
250,4,object_07,object_05,528.0,8,1,407.19999998808,0.4444444444444444,2,object_06,1,3667,0,9,4,restaurant_6,2,memory-2step-stake-s,755,3206814,0.0-19.0-0.1-0.250,A3W1CKM4PBLRC0,306996CF7Z0Y3F4KVQ7DFLTE4FJB13,3YZ8UPK3VX2080LI1GIUQR0GR9FCU6,8,7
251,2,object_02,object_08,726.0,3,1,757.0,0.8888888888888888,1,object_09,5,3707,0,8,8,forest_8,2,memory-2step-stake-s,756,3215597,0.0-19.0-0.1-0.251,A3W1CKM4PBLRC0,306996CF7Z0Y3F4KVQ7DFLTE4FJB13,3YZ8UPK3VX2080LI1GIUQR0GR9FCU6,3,4
252,2,object_02,object_08,600.89999997616,3,1,360.30000001192,0.8888888888888888,1,object_09,1,3715,0,8,9,forest_6,2,memory-2step-stake-s,757,3223997,0.0-19.0-0.1-0.252,A3W1CKM4PBLRC0,306996CF7Z0Y3F4KVQ7DFLTE4FJB13,3YZ8UPK3VX2080LI1GIUQR0GR9FCU6,3,4
253,1,object_04,object_03,366.40000003576,1,1,289.5,1.0,1,object_09,1,3724,0,9,8,desert_4,2,memory-2step-stake-s,758,3232441,0.0-19.0-0.1-0.253,A3W1CKM4PBLRC0,306996CF7Z0Y3F4KVQ7DFLTE4FJB13,3YZ8UPK3VX2080LI1GIUQR0GR9FCU6,1,2
254,2,object_08,object_02,645.5,3,2,446.89999997616,0.7777777777777778,1,object_09,5,3759,0,7,6,forest_6,2,memory-2step-stake-s,759,3240809,0.0-19.0-0.1-0.254,A3W1CKM4PBLRC0,306996CF7Z0Y3F4KVQ7DFLTE4FJB13,3YZ8UPK3VX2080LI1GIUQR0GR9FCU6,4,3
255,1,object_04,object_03,417.39999997616,1,1,367.29999995232,0.7777777777777778,1,object_09,5,3794,0,7,6,desert_4,2,memory-2step-stake-s,760,3249103,0.0-19.0-0.1-0.255,A3W1CKM4PBLRC0,306996CF7Z0Y3F4KVQ7DFLTE4FJB13,3YZ8UPK3VX2080LI1GIUQR0GR9FCU6,1,2
