,state1,stim_left,stim_right,rt_1,choice1,response1,rt_2,points,state2,stim_state2,stake,score,practice,rews1,rews2,background,high_arm,trial_type,trial_index,time_elapsed,internal_node_id,subid,hitid,assignmentid,stim_left_num,stim_right_num
0,4,object_07,object_09,-1.0,-1,-1,-1.0,0.0,-,0,1,0,0,4,3,restaurant_8,2,memory-2step-stake-s,636,1234364,0.0-19.0-0.0-0.0,A16Y5JEB1EF9CY,371DNNCG57IGA1IMUX7DUPM8OSP8TA,3300DTYQT6XND5YFGY4K6E3U90QQEC,7,8
1,1,object_06,object_05,-1.0,-1,-1,-1.0,0.0,-,0,5,0,0,8,1,desert_7,2,memory-2step-stake-s,637,1240935,0.0-19.0-0.0-0.1,A16Y5JEB1EF9CY,371DNNCG57IGA1IMUX7DUPM8OSP8TA,3300DTYQT6XND5YFGY4K6E3U90QQEC,2,1
2,1,object_06,object_05,-1.0,-1,-1,-1.0,0.0,-,0,5,0,0,6,1,desert_6,2,memory-2step-stake-s,638,1247475,0.0-19.0-0.0-0.2,A16Y5JEB1EF9CY,371DNNCG57IGA1IMUX7DUPM8OSP8TA,3300DTYQT6XND5YFGY4K6E3U90QQEC,2,1
3,3,object_04,object_01,839.30000000075,5,1,-1.0,0.0,1,object_10,5,0,0,2,2,library_2,2,memory-2step-stake-s,639,1256042,0.0-19.0-0.0-0.3,A16Y5JEB1EF9CY,371DNNCG57IGA1IMUX7DUPM8OSP8TA,3300DTYQT6XND5YFGY4K6E3U90QQEC,5,6
4,2,object_02,object_03,442.5,4,1,1203.6999999993,0.6666666666666666,2,object_08,5,30,0,2,6,forest_6,2,memory-2step-stake-s,640,1265124,0.0-19.0-0.0-0.4,A16Y5JEB1EF9CY,371DNNCG57IGA1IMUX7DUPM8OSP8TA,3300DTYQT6XND5YFGY4K6E3U90QQEC,4,3
5,4,object_09,object_07,392.69999999925,8,1,480.19999999925,0.7777777777777778,2,object_08,1,37,0,2,7,restaurant_8,2,memory-2step-stake-s,641,1273584,0.0-19.0-0.0-0.5,A16Y5JEB1EF9CY,371DNNCG57IGA1IMUX7DUPM8OSP8TA,3300DTYQT6XND5YFGY4K6E3U90QQEC,8,7
6,4,object_07,object_09,339.09999999776,7,1,459.89999999851,0.1111111111111111,1,object_10,1,38,0,1,9,restaurant_3,2,memory-2step-stake-s,642,1281430,0.0-19.0-0.0-0.6,A16Y5JEB1EF9CY,371DNNCG57IGA1IMUX7DUPM8OSP8TA,3300DTYQT6XND5YFGY4K6E3U90QQEC,7,8
7,1,object_05,object_06,410.90000000224,1,1,354.79999999702,0.1111111111111111,1,object_10,5,43,0,1,7,desert_2,2,memory-2step-stake-s,643,1289142,0.0-19.0-0.0-0.7,A16Y5JEB1EF9CY,371DNNCG57IGA1IMUX7DUPM8OSP8TA,3300DTYQT6XND5YFGY4K6E3U90QQEC,1,2
8,1,object_05,object_06,373.59999999776,1,1,481.70000000298,0.1111111111111111,1,object_10,5,48,0,1,7,desert_7,2,memory-2step-stake-s,644,1296996,0.0-19.0-0.0-0.8,A16Y5JEB1EF9CY,371DNNCG57IGA1IMUX7DUPM8OSP8TA,3300DTYQT6XND5YFGY4K6E3U90QQEC,1,2
9,2,object_03,object_02,265.09999999776,4,2,290.70000000298,0.7777777777777778,2,object_08,1,55,0,3,7,forest_4,2,memory-2step-stake-s,645,1305263,0.0-19.0-0.0-0.9,A16Y5JEB1EF9CY,371DNNCG57IGA1IMUX7DUPM8OSP8TA,3300DTYQT6XND5YFGY4K6E3U90QQEC,3,4
10,1,object_05,object_06,632.0,1,1,608.19999999925,0.5555555555555556,1,object_10,1,60,0,5,7,desert_6,2,memory-2step-stake-s,646,1313664,0.0-19.0-0.0-0.10,A16Y5JEB1EF9CY,371DNNCG57IGA1IMUX7DUPM8OSP8TA,3300DTYQT6XND5YFGY4K6E3U90QQEC,1,2
11,3,object_01,object_04,361.60000000149,5,2,342.09999999776,0.2222222222222222,1,object_10,1,62,0,2,8,library_2,2,memory-2step-stake-s,647,1321467,0.0-19.0-0.0-0.11,A16Y5JEB1EF9CY,371DNNCG57IGA1IMUX7DUPM8OSP8TA,3300DTYQT6XND5YFGY4K6E3U90QQEC,6,5
12,3,object_01,object_04,296.0,6,1,441.60000000149,0.7777777777777778,2,object_08,1,69,0,1,7,library_1,2,memory-2step-stake-s,648,1329876,0.0-19.0-0.0-0.12,A16Y5JEB1EF9CY,371DNNCG57IGA1IMUX7DUPM8OSP8TA,3300DTYQT6XND5YFGY4K6E3U90QQEC,6,5
13,4,object_09,object_07,344.80000000075,8,1,305.09999999776,0.8888888888888888,2,object_08,5,109,0,2,8,restaurant_5,2,memory-2step-stake-s,649,1338255,0.0-19.0-0.0-0.13,A16Y5JEB1EF9CY,371DNNCG57IGA1IMUX7DUPM8OSP8TA,3300DTYQT6XND5YFGY4K6E3U90QQEC,8,7
14,3,object_01,object_04,563.30000000075,5,2,314.19999999925,0.0,1,object_10,1,109,0,0,8,library_1,2,memory-2step-stake-s,650,1345824,0.0-19.0-0.0-0.14,A16Y5JEB1EF9CY,371DNNCG57IGA1IMUX7DUPM8OSP8TA,3300DTYQT6XND5YFGY4K6E3U90QQEC,6,5
15,2,object_02,object_03,360.40000000224,3,2,301.39999999851,0.1111111111111111,1,object_10,5,114,0,1,7,forest_6,2,memory-2step-stake-s,651,1353483,0.0-19.0-0.0-0.15,A16Y5JEB1EF9CY,371DNNCG57IGA1IMUX7DUPM8OSP8TA,3300DTYQT6XND5YFGY4K6E3U90QQEC,4,3
16,1,object_05,object_06,271.30000000075,2,2,312.39999999851,0.5555555555555556,2,object_08,5,139,0,1,5,desert_6,2,memory-2step-stake-s,652,1361556,0.0-19.0-0.0-0.16,A16Y5JEB1EF9CY,371DNNCG57IGA1IMUX7DUPM8OSP8TA,3300DTYQT6XND5YFGY4K6E3U90QQEC,1,2
17,3,object_01,object_04,356.0,6,1,478.20000000298,0.8888888888888888,2,object_08,5,179,0,2,8,library_1,2,memory-2step-stake-s,653,1370112,0.0-19.0-0.0-0.17,A16Y5JEB1EF9CY,371DNNCG57IGA1IMUX7DUPM8OSP8TA,3300DTYQT6XND5YFGY4K6E3U90QQEC,6,5
18,3,object_01,object_04,302.80000000075,6,1,413.0,1.0,2,object_08,5,224,0,0,9,library_8,2,memory-2step-stake-s,654,1378731,0.0-19.0-0.0-0.18,A16Y5JEB1EF9CY,371DNNCG57IGA1IMUX7DUPM8OSP8TA,3300DTYQT6XND5YFGY4K6E3U90QQEC,6,5
19,1,object_06,object_05,378.0,1,2,510.40000000224,0.1111111111111111,1,object_10,5,229,0,1,7,desert_5,2,memory-2step-stake-s,655,1386622,0.0-19.0-0.0-0.19,A16Y5JEB1EF9CY,371DNNCG57IGA1IMUX7DUPM8OSP8TA,3300DTYQT6XND5YFGY4K6E3U90QQEC,2,1
20,1,object_06,object_05,296.40000000224,1,2,331.19999999925,0.1111111111111111,1,object_10,1,230,0,1,5,desert_7,2,memory-2step-stake-s,656,1394303,0.0-19.0-0.0-0.20,A16Y5JEB1EF9CY,371DNNCG57IGA1IMUX7DUPM8OSP8TA,3300DTYQT6XND5YFGY4K6E3U90QQEC,2,1
21,3,object_01,object_04,641.90000000224,5,2,433.59999999776,0.2222222222222222,1,object_10,1,232,0,2,4,library_4,2,memory-2step-stake-s,657,1402194,0.0-19.0-0.0-0.21,A16Y5JEB1EF9CY,371DNNCG57IGA1IMUX7DUPM8OSP8TA,3300DTYQT6XND5YFGY4K6E3U90QQEC,6,5
22,1,object_06,object_05,1077.3999999985,1,2,370.5,0.1111111111111111,1,object_10,1,233,0,1,3,desert_2,2,memory-2step-stake-s,658,1409910,0.0-19.0-0.0-0.22,A16Y5JEB1EF9CY,371DNNCG57IGA1IMUX7DUPM8OSP8TA,3300DTYQT6XND5YFGY4K6E3U90QQEC,2,1
23,3,object_04,object_01,337.0,5,1,458.30000000075,0.3333333333333333,1,object_10,1,236,0,3,4,library_1,2,memory-2step-stake-s,659,1417960,0.0-19.0-0.0-0.23,A16Y5JEB1EF9CY,371DNNCG57IGA1IMUX7DUPM8OSP8TA,3300DTYQT6XND5YFGY4K6E3U90QQEC,5,6
24,1,object_06,object_05,333.69999999925,1,2,596.69999999925,0.2222222222222222,1,object_10,1,238,0,2,6,desert_7,2,memory-2step-stake-s,660,1426030,0.0-19.0-0.0-0.24,A16Y5JEB1EF9CY,371DNNCG57IGA1IMUX7DUPM8OSP8TA,3300DTYQT6XND5YFGY4K6E3U90QQEC,2,1
25,1,object_06,object_05,440.69999999925,1,2,433.40000000224,0.0,1,object_10,5,238,0,0,4,desert_7,2,memory-2step-stake-s,661,1433718,0.0-19.0-0.0-0.25,A16Y5JEB1EF9CY,371DNNCG57IGA1IMUX7DUPM8OSP8TA,3300DTYQT6XND5YFGY4K6E3U90QQEC,2,1
26,1,object_06,object_05,887.40000000224,1,2,596.80000000075,0.2222222222222222,1,object_10,5,248,0,2,4,desert_2,2,memory-2step-stake-s,662,1441789,0.0-19.0-0.0-0.26,A16Y5JEB1EF9CY,371DNNCG57IGA1IMUX7DUPM8OSP8TA,3300DTYQT6XND5YFGY4K6E3U90QQEC,2,1
27,2,object_02,object_03,140.30000000075,4,1,474.60000000149,0.4444444444444444,2,object_08,1,252,0,1,4,forest_7,2,memory-2step-stake-s,663,1449958,0.0-19.0-0.0-0.27,A16Y5JEB1EF9CY,371DNNCG57IGA1IMUX7DUPM8OSP8TA,3300DTYQT6XND5YFGY4K6E3U90QQEC,4,3
28,2,object_02,object_03,358.30000000075,3,2,363.69999999925,0.2222222222222222,1,object_10,1,254,0,2,4,forest_2,2,memory-2step-stake-s,664,1457774,0.0-19.0-0.0-0.28,A16Y5JEB1EF9CY,371DNNCG57IGA1IMUX7DUPM8OSP8TA,3300DTYQT6XND5YFGY4K6E3U90QQEC,4,3
29,3,object_01,object_04,879.69999999925,6,1,573.39999999851,0.7777777777777778,2,object_08,1,261,0,3,7,library_1,2,memory-2step-stake-s,665,1466312,0.0-19.0-0.0-0.29,A16Y5JEB1EF9CY,371DNNCG57IGA1IMUX7DUPM8OSP8TA,3300DTYQT6XND5YFGY4K6E3U90QQEC,6,5
30,2,object_03,object_02,344.19999999925,4,2,309.90000000224,0.7777777777777778,2,object_08,5,296,0,6,7,forest_4,2,memory-2step-stake-s,666,1474599,0.0-19.0-0.0-0.30,A16Y5JEB1EF9CY,371DNNCG57IGA1IMUX7DUPM8OSP8TA,3300DTYQT6XND5YFGY4K6E3U90QQEC,3,4
31,3,object_04,object_01,485.19999999925,5,1,413.40000000224,0.6666666666666666,1,object_10,1,302,0,6,9,library_2,2,memory-2step-stake-s,667,1482933,0.0-19.0-0.0-0.31,A16Y5JEB1EF9CY,371DNNCG57IGA1IMUX7DUPM8OSP8TA,3300DTYQT6XND5YFGY4K6E3U90QQEC,5,6
32,1,object_05,object_06,601.09999999776,1,1,385.5,0.6666666666666666,1,object_10,5,332,0,6,7,desert_5,2,memory-2step-stake-s,668,1491214,0.0-19.0-0.0-0.32,A16Y5JEB1EF9CY,371DNNCG57IGA1IMUX7DUPM8OSP8TA,3300DTYQT6XND5YFGY4K6E3U90QQEC,1,2
33,2,object_02,object_03,306.69999999925,3,2,359.0,0.7777777777777778,1,object_10,5,367,0,7,7,forest_4,2,memory-2step-stake-s,669,1499554,0.0-19.0-0.0-0.33,A16Y5JEB1EF9CY,371DNNCG57IGA1IMUX7DUPM8OSP8TA,3300DTYQT6XND5YFGY4K6E3U90QQEC,4,3
34,2,object_02,object_03,316.19999999925,4,1,440.60000000149,0.7777777777777778,2,object_08,5,402,0,7,7,forest_6,2,memory-2step-stake-s,670,1507961,0.0-19.0-0.0-0.34,A16Y5JEB1EF9CY,371DNNCG57IGA1IMUX7DUPM8OSP8TA,3300DTYQT6XND5YFGY4K6E3U90QQEC,4,3
35,4,object_07,object_09,486.70000000298,8,2,577.39999999851,0.7777777777777778,2,object_08,1,409,0,4,7,restaurant_2,2,memory-2step-stake-s,671,1516536,0.0-19.0-0.0-0.35,A16Y5JEB1EF9CY,371DNNCG57IGA1IMUX7DUPM8OSP8TA,3300DTYQT6XND5YFGY4K6E3U90QQEC,7,8
36,1,object_06,object_05,312.59999999776,1,2,928.29999999702,0.5555555555555556,1,object_10,5,434,0,5,7,desert_6,2,memory-2step-stake-s,672,1525237,0.0-19.0-0.0-0.36,A16Y5JEB1EF9CY,371DNNCG57IGA1IMUX7DUPM8OSP8TA,3300DTYQT6XND5YFGY4K6E3U90QQEC,2,1
37,1,object_06,object_05,758.0,2,1,-1.0,0.0,2,object_08,5,434,0,5,6,desert_5,2,memory-2step-stake-s,673,1533817,0.0-19.0-0.0-0.37,A16Y5JEB1EF9CY,371DNNCG57IGA1IMUX7DUPM8OSP8TA,3300DTYQT6XND5YFGY4K6E3U90QQEC,2,1
38,4,object_09,object_07,383.80000000075,7,2,378.30000000075,0.1111111111111111,1,object_10,5,439,0,1,4,restaurant_8,2,memory-2step-stake-s,674,1541559,0.0-19.0-0.0-0.38,A16Y5JEB1EF9CY,371DNNCG57IGA1IMUX7DUPM8OSP8TA,3300DTYQT6XND5YFGY4K6E3U90QQEC,8,7
39,2,object_03,object_02,704.09999999776,3,1,1127.5,0.3333333333333333,1,object_10,5,454,0,3,6,forest_2,2,memory-2step-stake-s,675,1550247,0.0-19.0-0.0-0.39,A16Y5JEB1EF9CY,371DNNCG57IGA1IMUX7DUPM8OSP8TA,3300DTYQT6XND5YFGY4K6E3U90QQEC,3,4
40,4,object_09,object_07,471.59999999776,7,2,354.0,0.5555555555555556,1,object_10,1,459,0,5,4,restaurant_3,2,memory-2step-stake-s,676,1558390,0.0-19.0-0.0-0.40,A16Y5JEB1EF9CY,371DNNCG57IGA1IMUX7DUPM8OSP8TA,3300DTYQT6XND5YFGY4K6E3U90QQEC,8,7
41,1,object_06,object_05,434.30000000075,2,1,350.30000000075,0.6666666666666666,2,object_08,1,465,0,6,6,desert_5,2,memory-2step-stake-s,677,1566597,0.0-19.0-0.0-0.41,A16Y5JEB1EF9CY,371DNNCG57IGA1IMUX7DUPM8OSP8TA,3300DTYQT6XND5YFGY4K6E3U90QQEC,2,1
42,4,object_07,object_09,960.19999999925,8,2,358.30000000075,0.5555555555555556,2,object_08,1,470,0,3,5,restaurant_2,2,memory-2step-stake-s,678,1574716,0.0-19.0-0.0-0.42,A16Y5JEB1EF9CY,371DNNCG57IGA1IMUX7DUPM8OSP8TA,3300DTYQT6XND5YFGY4K6E3U90QQEC,7,8
43,3,object_04,object_01,-1.0,-1,-1,-1.0,0.0,-,0,1,470,0,5,7,library_1,2,memory-2step-stake-s,679,1581271,0.0-19.0-0.0-0.43,A16Y5JEB1EF9CY,371DNNCG57IGA1IMUX7DUPM8OSP8TA,3300DTYQT6XND5YFGY4K6E3U90QQEC,5,6
44,2,object_03,object_02,284.40000000224,4,2,396.0,0.8888888888888888,2,object_08,5,510,0,5,8,forest_2,2,memory-2step-stake-s,680,1589752,0.0-19.0-0.0-0.44,A16Y5JEB1EF9CY,371DNNCG57IGA1IMUX7DUPM8OSP8TA,3300DTYQT6XND5YFGY4K6E3U90QQEC,3,4
45,2,object_03,object_02,549.79999999702,4,2,103.69999999925,0.8888888888888888,2,object_08,5,550,0,2,8,forest_7,2,memory-2step-stake-s,681,1597944,0.0-19.0-0.0-0.45,A16Y5JEB1EF9CY,371DNNCG57IGA1IMUX7DUPM8OSP8TA,3300DTYQT6XND5YFGY4K6E3U90QQEC,3,4
46,1,object_05,object_06,299.40000000224,1,1,1073.8999999985,0.2222222222222222,1,object_10,5,560,0,2,7,desert_5,2,memory-2step-stake-s,682,1606495,0.0-19.0-0.0-0.46,A16Y5JEB1EF9CY,371DNNCG57IGA1IMUX7DUPM8OSP8TA,3300DTYQT6XND5YFGY4K6E3U90QQEC,1,2
47,3,object_04,object_01,575.79999999702,5,1,610.09999999776,0.5555555555555556,1,object_10,1,565,0,5,9,library_8,2,memory-2step-stake-s,683,1614920,0.0-19.0-0.0-0.47,A16Y5JEB1EF9CY,371DNNCG57IGA1IMUX7DUPM8OSP8TA,3300DTYQT6XND5YFGY4K6E3U90QQEC,5,6
48,4,object_09,object_07,264.69999999925,7,2,421.80000000075,0.5555555555555556,1,object_10,1,570,0,5,8,restaurant_3,2,memory-2step-stake-s,684,1623083,0.0-19.0-0.0-0.48,A16Y5JEB1EF9CY,371DNNCG57IGA1IMUX7DUPM8OSP8TA,3300DTYQT6XND5YFGY4K6E3U90QQEC,8,7
49,4,object_07,object_09,372.19999999925,7,1,411.0,0.4444444444444444,1,object_10,5,590,0,4,7,restaurant_5,2,memory-2step-stake-s,685,1631168,0.0-19.0-0.0-0.49,A16Y5JEB1EF9CY,371DNNCG57IGA1IMUX7DUPM8OSP8TA,3300DTYQT6XND5YFGY4K6E3U90QQEC,7,8
50,1,object_06,object_05,277.09999999776,1,2,402.80000000075,0.4444444444444444,1,object_10,1,594,0,4,4,desert_2,2,memory-2step-stake-s,686,1639241,0.0-19.0-0.0-0.50,A16Y5JEB1EF9CY,371DNNCG57IGA1IMUX7DUPM8OSP8TA,3300DTYQT6XND5YFGY4K6E3U90QQEC,2,1
51,4,object_07,object_09,765.30000000075,8,2,408.89999999851,0.4444444444444444,2,object_08,1,598,0,4,4,restaurant_3,2,memory-2step-stake-s,687,1647329,0.0-19.0-0.0-0.51,A16Y5JEB1EF9CY,371DNNCG57IGA1IMUX7DUPM8OSP8TA,3300DTYQT6XND5YFGY4K6E3U90QQEC,7,8
52,1,object_05,object_06,417.19999999925,2,2,439.30000000075,0.2222222222222222,2,object_08,5,608,0,3,2,desert_2,2,memory-2step-stake-s,688,1655219,0.0-19.0-0.0-0.52,A16Y5JEB1EF9CY,371DNNCG57IGA1IMUX7DUPM8OSP8TA,3300DTYQT6XND5YFGY4K6E3U90QQEC,1,2
53,4,object_09,object_07,310.0,8,1,306.60000000149,0.2222222222222222,2,object_08,1,610,0,6,2,restaurant_5,2,memory-2step-stake-s,689,1662990,0.0-19.0-0.0-0.53,A16Y5JEB1EF9CY,371DNNCG57IGA1IMUX7DUPM8OSP8TA,3300DTYQT6XND5YFGY4K6E3U90QQEC,8,7
54,2,object_02,object_03,254.10000000149,3,2,321.0,0.5555555555555556,1,object_10,5,635,0,5,1,forest_2,2,memory-2step-stake-s,690,1671081,0.0-19.0-0.0-0.54,A16Y5JEB1EF9CY,371DNNCG57IGA1IMUX7DUPM8OSP8TA,3300DTYQT6XND5YFGY4K6E3U90QQEC,4,3
55,1,object_06,object_05,474.5,1,2,549.89999999851,0.5555555555555556,1,object_10,5,660,0,5,3,desert_2,2,memory-2step-stake-s,691,1679405,0.0-19.0-0.0-0.55,A16Y5JEB1EF9CY,371DNNCG57IGA1IMUX7DUPM8OSP8TA,3300DTYQT6XND5YFGY4K6E3U90QQEC,2,1
56,1,object_05,object_06,416.10000000149,2,2,439.90000000224,0.1111111111111111,2,object_08,5,665,0,7,1,desert_2,2,memory-2step-stake-s,692,1687216,0.0-19.0-0.0-0.56,A16Y5JEB1EF9CY,371DNNCG57IGA1IMUX7DUPM8OSP8TA,3300DTYQT6XND5YFGY4K6E3U90QQEC,1,2
57,2,object_03,object_02,345.10000000149,3,1,440.39999999851,0.4444444444444444,1,object_10,5,685,0,4,2,forest_7,2,memory-2step-stake-s,693,1695334,0.0-19.0-0.0-0.57,A16Y5JEB1EF9CY,371DNNCG57IGA1IMUX7DUPM8OSP8TA,3300DTYQT6XND5YFGY4K6E3U90QQEC,3,4
58,3,object_01,object_04,502.19999999925,5,2,425.70000000298,0.5555555555555556,1,object_10,1,690,0,5,2,library_4,2,memory-2step-stake-s,694,1703571,0.0-19.0-0.0-0.58,A16Y5JEB1EF9CY,371DNNCG57IGA1IMUX7DUPM8OSP8TA,3300DTYQT6XND5YFGY4K6E3U90QQEC,6,5
59,1,object_06,object_05,-1.0,-1,-1,-1.0,0.0,-,0,5,690,0,8,0,desert_7,2,memory-2step-stake-s,695,1710113,0.0-19.0-0.0-0.59,A16Y5JEB1EF9CY,371DNNCG57IGA1IMUX7DUPM8OSP8TA,3300DTYQT6XND5YFGY4K6E3U90QQEC,2,1
60,3,object_01,object_04,-1.0,-1,-1,-1.0,0.0,-,0,5,690,0,8,2,library_8,2,memory-2step-stake-s,696,1716648,0.0-19.0-0.0-0.60,A16Y5JEB1EF9CY,371DNNCG57IGA1IMUX7DUPM8OSP8TA,3300DTYQT6XND5YFGY4K6E3U90QQEC,6,5
61,3,object_01,object_04,-1.0,-1,-1,-1.0,0.0,-,0,1,690,0,7,0,library_4,2,memory-2step-stake-s,697,1723199,0.0-19.0-0.0-0.61,A16Y5JEB1EF9CY,371DNNCG57IGA1IMUX7DUPM8OSP8TA,3300DTYQT6XND5YFGY4K6E3U90QQEC,6,5
62,3,object_04,object_01,-1.0,-1,-1,-1.0,0.0,-,0,1,690,0,6,2,library_1,2,memory-2step-stake-s,698,1729717,0.0-19.0-0.0-0.62,A16Y5JEB1EF9CY,371DNNCG57IGA1IMUX7DUPM8OSP8TA,3300DTYQT6XND5YFGY4K6E3U90QQEC,5,6
63,4,object_07,object_09,623.80000000075,8,2,468.19999999925,0.1111111111111111,2,object_08,1,691,0,7,1,restaurant_8,2,memory-2step-stake-s,699,1737548,0.0-19.0-0.0-0.63,A16Y5JEB1EF9CY,371DNNCG57IGA1IMUX7DUPM8OSP8TA,3300DTYQT6XND5YFGY4K6E3U90QQEC,7,8
64,1,object_06,object_05,1154.9000000022,1,2,526.5,0.8888888888888888,1,object_10,5,731,0,8,5,desert_7,2,memory-2step-stake-s,700,1746152,0.0-19.0-0.0-0.64,A16Y5JEB1EF9CY,371DNNCG57IGA1IMUX7DUPM8OSP8TA,3300DTYQT6XND5YFGY4K6E3U90QQEC,2,1
65,2,object_03,object_02,523.69999999925,3,1,427.60000000149,1.0,1,object_10,5,776,0,9,6,forest_2,2,memory-2step-stake-s,701,1754777,0.0-19.0-0.0-0.65,A16Y5JEB1EF9CY,371DNNCG57IGA1IMUX7DUPM8OSP8TA,3300DTYQT6XND5YFGY4K6E3U90QQEC,3,4
66,3,object_01,object_04,489.69999999925,5,2,948.10000000149,0.4444444444444444,1,object_10,1,780,0,4,5,library_4,2,memory-2step-stake-s,702,1763402,0.0-19.0-0.0-0.66,A16Y5JEB1EF9CY,371DNNCG57IGA1IMUX7DUPM8OSP8TA,3300DTYQT6XND5YFGY4K6E3U90QQEC,6,5
67,2,object_02,object_03,911.80000000075,3,2,593.0,0.5555555555555556,1,object_10,5,805,0,5,2,forest_7,2,memory-2step-stake-s,703,1771796,0.0-19.0-0.0-0.67,A16Y5JEB1EF9CY,371DNNCG57IGA1IMUX7DUPM8OSP8TA,3300DTYQT6XND5YFGY4K6E3U90QQEC,4,3
68,4,object_07,object_09,445.5,7,1,387.89999999851,0.6666666666666666,1,object_10,1,811,0,6,0,restaurant_2,2,memory-2step-stake-s,704,1780048,0.0-19.0-0.0-0.68,A16Y5JEB1EF9CY,371DNNCG57IGA1IMUX7DUPM8OSP8TA,3300DTYQT6XND5YFGY4K6E3U90QQEC,7,8
69,3,object_01,object_04,534.80000000075,5,2,403.30000000075,0.4444444444444444,1,object_10,5,831,0,4,1,library_2,2,memory-2step-stake-s,705,1788136,0.0-19.0-0.0-0.69,A16Y5JEB1EF9CY,371DNNCG57IGA1IMUX7DUPM8OSP8TA,3300DTYQT6XND5YFGY4K6E3U90QQEC,6,5
70,4,object_09,object_07,518.19999999925,7,2,420.69999999925,0.6666666666666666,1,object_10,1,837,0,6,2,restaurant_8,2,memory-2step-stake-s,706,1796417,0.0-19.0-0.0-0.70,A16Y5JEB1EF9CY,371DNNCG57IGA1IMUX7DUPM8OSP8TA,3300DTYQT6XND5YFGY4K6E3U90QQEC,8,7
71,3,object_04,object_01,292.60000000149,5,1,343.09999999776,0.4444444444444444,1,object_10,5,857,0,4,3,library_8,2,memory-2step-stake-s,707,1804428,0.0-19.0-0.0-0.71,A16Y5JEB1EF9CY,371DNNCG57IGA1IMUX7DUPM8OSP8TA,3300DTYQT6XND5YFGY4K6E3U90QQEC,5,6
72,4,object_09,object_07,572.69999999925,7,2,405.5,0.5555555555555556,1,object_10,1,862,0,5,0,restaurant_3,2,memory-2step-stake-s,708,1812595,0.0-19.0-0.0-0.72,A16Y5JEB1EF9CY,371DNNCG57IGA1IMUX7DUPM8OSP8TA,3300DTYQT6XND5YFGY4K6E3U90QQEC,8,7
73,3,object_01,object_04,-1.0,-1,-1,-1.0,0.0,-,0,1,862,0,3,1,library_4,2,memory-2step-stake-s,709,1819120,0.0-19.0-0.0-0.73,A16Y5JEB1EF9CY,371DNNCG57IGA1IMUX7DUPM8OSP8TA,3300DTYQT6XND5YFGY4K6E3U90QQEC,6,5
74,3,object_01,object_04,670.69999999925,6,1,519.90000000224,0.3333333333333333,2,object_08,1,865,0,4,3,library_4,2,memory-2step-stake-s,710,1827236,0.0-19.0-0.0-0.74,A16Y5JEB1EF9CY,371DNNCG57IGA1IMUX7DUPM8OSP8TA,3300DTYQT6XND5YFGY4K6E3U90QQEC,6,5
75,1,object_06,object_05,588.0,1,2,541.20000000298,0.3333333333333333,1,object_10,5,880,0,3,6,desert_2,2,memory-2step-stake-s,711,1835360,0.0-19.0-0.0-0.75,A16Y5JEB1EF9CY,371DNNCG57IGA1IMUX7DUPM8OSP8TA,3300DTYQT6XND5YFGY4K6E3U90QQEC,2,1
76,4,object_09,object_07,383.5,7,2,338.70000000298,0.4444444444444444,1,object_10,1,884,0,4,5,restaurant_2,2,memory-2step-stake-s,712,1843357,0.0-19.0-0.0-0.76,A16Y5JEB1EF9CY,371DNNCG57IGA1IMUX7DUPM8OSP8TA,3300DTYQT6XND5YFGY4K6E3U90QQEC,8,7
77,2,object_02,object_03,330.59999999776,4,1,509.69999999925,0.6666666666666666,2,object_08,5,914,0,4,6,forest_7,2,memory-2step-stake-s,713,1851704,0.0-19.0-0.0-0.77,A16Y5JEB1EF9CY,371DNNCG57IGA1IMUX7DUPM8OSP8TA,3300DTYQT6XND5YFGY4K6E3U90QQEC,4,3
78,1,object_06,object_05,571.0,1,2,666.5,0.5555555555555556,1,object_10,1,919,0,5,5,desert_6,2,memory-2step-stake-s,714,1860174,0.0-19.0-0.0-0.78,A16Y5JEB1EF9CY,371DNNCG57IGA1IMUX7DUPM8OSP8TA,3300DTYQT6XND5YFGY4K6E3U90QQEC,2,1
79,1,object_06,object_05,535.0,2,1,583.10000000149,0.4444444444444444,2,object_08,5,939,0,4,4,desert_6,2,memory-2step-stake-s,715,1868440,0.0-19.0-0.0-0.79,A16Y5JEB1EF9CY,371DNNCG57IGA1IMUX7DUPM8OSP8TA,3300DTYQT6XND5YFGY4K6E3U90QQEC,2,1
80,2,object_02,object_03,322.19999999925,3,2,287.30000000075,0.3333333333333333,1,object_10,5,954,0,3,1,forest_6,2,memory-2step-stake-s,716,1876300,0.0-19.0-0.0-0.80,A16Y5JEB1EF9CY,371DNNCG57IGA1IMUX7DUPM8OSP8TA,3300DTYQT6XND5YFGY4K6E3U90QQEC,4,3
81,4,object_07,object_09,878.10000000149,8,2,483.60000000149,0.4444444444444444,2,object_08,5,974,0,5,4,restaurant_2,2,memory-2step-stake-s,717,1884462,0.0-19.0-0.0-0.81,A16Y5JEB1EF9CY,371DNNCG57IGA1IMUX7DUPM8OSP8TA,3300DTYQT6XND5YFGY4K6E3U90QQEC,7,8
82,3,object_01,object_04,624.5,6,1,459.5,0.4444444444444444,2,object_08,1,978,0,5,4,library_8,2,memory-2step-stake-s,718,1892592,0.0-19.0-0.0-0.82,A16Y5JEB1EF9CY,371DNNCG57IGA1IMUX7DUPM8OSP8TA,3300DTYQT6XND5YFGY4K6E3U90QQEC,6,5
83,3,object_01,object_04,380.0,5,2,445.5,0.3333333333333333,1,object_10,1,981,0,3,2,library_4,2,memory-2step-stake-s,719,1900617,0.0-19.0-0.0-0.83,A16Y5JEB1EF9CY,371DNNCG57IGA1IMUX7DUPM8OSP8TA,3300DTYQT6XND5YFGY4K6E3U90QQEC,6,5
84,1,object_05,object_06,382.30000000075,2,2,608.30000000075,0.2222222222222222,2,object_08,5,991,0,4,2,desert_6,2,memory-2step-stake-s,720,1908689,0.0-19.0-0.0-0.84,A16Y5JEB1EF9CY,371DNNCG57IGA1IMUX7DUPM8OSP8TA,3300DTYQT6XND5YFGY4K6E3U90QQEC,1,2
85,4,object_07,object_09,811.39999999851,7,1,713.5,0.3333333333333333,1,object_10,1,994,0,3,5,restaurant_2,2,memory-2step-stake-s,721,1916984,0.0-19.0-0.0-0.85,A16Y5JEB1EF9CY,371DNNCG57IGA1IMUX7DUPM8OSP8TA,3300DTYQT6XND5YFGY4K6E3U90QQEC,7,8
86,3,object_01,object_04,529.80000000075,5,2,458.60000000149,0.4444444444444444,1,object_10,1,998,0,4,7,library_8,2,memory-2step-stake-s,722,1925122,0.0-19.0-0.0-0.86,A16Y5JEB1EF9CY,371DNNCG57IGA1IMUX7DUPM8OSP8TA,3300DTYQT6XND5YFGY4K6E3U90QQEC,6,5
87,4,object_09,object_07,837.19999999925,8,1,427.5,0.6666666666666666,2,object_08,1,1004,0,3,6,restaurant_8,2,memory-2step-stake-s,723,1933457,0.0-19.0-0.0-0.87,A16Y5JEB1EF9CY,371DNNCG57IGA1IMUX7DUPM8OSP8TA,3300DTYQT6XND5YFGY4K6E3U90QQEC,8,7
88,3,object_04,object_01,585.5,6,2,589.70000000298,0.2222222222222222,2,object_08,5,1014,0,3,2,library_8,2,memory-2step-stake-s,724,1941489,0.0-19.0-0.0-0.88,A16Y5JEB1EF9CY,371DNNCG57IGA1IMUX7DUPM8OSP8TA,3300DTYQT6XND5YFGY4K6E3U90QQEC,5,6
89,4,object_09,object_07,450.70000000298,7,2,657.0,0.2222222222222222,1,object_10,1,1016,0,2,3,restaurant_3,2,memory-2step-stake-s,725,1949628,0.0-19.0-0.0-0.89,A16Y5JEB1EF9CY,371DNNCG57IGA1IMUX7DUPM8OSP8TA,3300DTYQT6XND5YFGY4K6E3U90QQEC,8,7
90,4,object_07,object_09,266.40000000224,7,1,349.19999999925,0.4444444444444444,1,object_10,1,1020,0,4,7,restaurant_5,2,memory-2step-stake-s,726,1957654,0.0-19.0-0.0-0.90,A16Y5JEB1EF9CY,371DNNCG57IGA1IMUX7DUPM8OSP8TA,3300DTYQT6XND5YFGY4K6E3U90QQEC,7,8
91,3,object_04,object_01,600.60000000149,6,2,1225.0,0.8888888888888888,2,object_08,5,1060,0,4,8,library_8,2,memory-2step-stake-s,727,1966976,0.0-19.0-0.0-0.91,A16Y5JEB1EF9CY,371DNNCG57IGA1IMUX7DUPM8OSP8TA,3300DTYQT6XND5YFGY4K6E3U90QQEC,5,6
92,3,object_01,object_04,1015.8000000007,5,2,641.39999999851,0.3333333333333333,1,object_10,5,1075,0,3,7,library_4,2,memory-2step-stake-s,728,1975221,0.0-19.0-0.0-0.92,A16Y5JEB1EF9CY,371DNNCG57IGA1IMUX7DUPM8OSP8TA,3300DTYQT6XND5YFGY4K6E3U90QQEC,6,5
93,2,object_02,object_03,862.30000000075,4,1,1193.0,0.6666666666666666,2,object_08,5,1105,0,4,6,forest_4,2,memory-2step-stake-s,729,1984303,0.0-19.0-0.0-0.93,A16Y5JEB1EF9CY,371DNNCG57IGA1IMUX7DUPM8OSP8TA,3300DTYQT6XND5YFGY4K6E3U90QQEC,4,3
94,3,object_01,object_04,706.29999999702,5,2,1126.3000000007,0.5555555555555556,1,object_10,1,1110,0,5,8,library_8,2,memory-2step-stake-s,730,1993194,0.0-19.0-0.0-0.94,A16Y5JEB1EF9CY,371DNNCG57IGA1IMUX7DUPM8OSP8TA,3300DTYQT6XND5YFGY4K6E3U90QQEC,6,5
95,4,object_07,object_09,392.19999999925,8,2,1100.5,0.6666666666666666,2,object_08,5,1140,0,6,6,restaurant_5,2,memory-2step-stake-s,731,2002164,0.0-19.0-0.0-0.95,A16Y5JEB1EF9CY,371DNNCG57IGA1IMUX7DUPM8OSP8TA,3300DTYQT6XND5YFGY4K6E3U90QQEC,7,8
96,1,object_05,object_06,560.0,1,1,1028.1999999993,0.5555555555555556,1,object_10,5,1165,0,5,8,desert_5,2,memory-2step-stake-s,732,2011000,0.0-19.0-0.0-0.96,A16Y5JEB1EF9CY,371DNNCG57IGA1IMUX7DUPM8OSP8TA,3300DTYQT6XND5YFGY4K6E3U90QQEC,1,2
97,2,object_03,object_02,604.10000000149,3,1,1083.3999999985,0.4444444444444444,1,object_10,5,1185,0,4,7,forest_7,2,memory-2step-stake-s,733,2019731,0.0-19.0-0.0-0.97,A16Y5JEB1EF9CY,371DNNCG57IGA1IMUX7DUPM8OSP8TA,3300DTYQT6XND5YFGY4K6E3U90QQEC,3,4
98,1,object_06,object_05,450.80000000075,1,2,1445.5,0.5555555555555556,1,object_10,5,1210,0,5,8,desert_7,2,memory-2step-stake-s,734,2028956,0.0-19.0-0.0-0.98,A16Y5JEB1EF9CY,371DNNCG57IGA1IMUX7DUPM8OSP8TA,3300DTYQT6XND5YFGY4K6E3U90QQEC,2,1
99,3,object_01,object_04,851.29999999702,5,2,1146.8000000007,0.6666666666666666,1,object_10,1,1216,0,6,5,library_1,2,memory-2step-stake-s,735,2037963,0.0-19.0-0.0-0.99,A16Y5JEB1EF9CY,371DNNCG57IGA1IMUX7DUPM8OSP8TA,3300DTYQT6XND5YFGY4K6E3U90QQEC,6,5
100,1,object_05,object_06,778.10000000149,1,1,-1.0,0.0,1,object_10,5,1216,0,6,1,desert_7,2,memory-2step-stake-s,736,2046528,0.0-19.0-0.0-0.100,A16Y5JEB1EF9CY,371DNNCG57IGA1IMUX7DUPM8OSP8TA,3300DTYQT6XND5YFGY4K6E3U90QQEC,1,2
101,2,object_02,object_03,492.59999999776,4,1,916.40000000224,0.3333333333333333,2,object_08,5,1231,0,8,3,forest_6,2,memory-2step-stake-s,737,2055028,0.0-19.0-0.0-0.101,A16Y5JEB1EF9CY,371DNNCG57IGA1IMUX7DUPM8OSP8TA,3300DTYQT6XND5YFGY4K6E3U90QQEC,4,3
102,3,object_01,object_04,248.69999999925,5,2,466.70000000298,0.8888888888888888,1,object_10,1,1239,0,8,7,library_8,2,memory-2step-stake-s,738,2063569,0.0-19.0-0.0-0.102,A16Y5JEB1EF9CY,371DNNCG57IGA1IMUX7DUPM8OSP8TA,3300DTYQT6XND5YFGY4K6E3U90QQEC,6,5
103,2,object_03,object_02,637.39999999851,3,1,1018.4000000022,0.8888888888888888,1,object_10,5,1279,0,8,8,forest_6,2,memory-2step-stake-s,739,2072676,0.0-19.0-0.0-0.103,A16Y5JEB1EF9CY,371DNNCG57IGA1IMUX7DUPM8OSP8TA,3300DTYQT6XND5YFGY4K6E3U90QQEC,3,4
104,4,object_07,object_09,683.5,8,2,1121.0999999978,0.8888888888888888,2,object_08,1,1287,0,8,8,restaurant_2,2,memory-2step-stake-s,740,2081872,0.0-19.0-0.0-0.104,A16Y5JEB1EF9CY,371DNNCG57IGA1IMUX7DUPM8OSP8TA,3300DTYQT6XND5YFGY4K6E3U90QQEC,7,8
105,2,object_02,object_03,316.59999999776,4,1,-1.0,0.0,2,object_08,5,1287,0,6,9,forest_4,2,memory-2step-stake-s,741,2090460,0.0-19.0-0.0-0.105,A16Y5JEB1EF9CY,371DNNCG57IGA1IMUX7DUPM8OSP8TA,3300DTYQT6XND5YFGY4K6E3U90QQEC,4,3
106,2,object_03,object_02,443.5,4,2,1128.3000000007,0.6666666666666666,2,object_08,5,1317,0,6,6,forest_7,2,memory-2step-stake-s,742,2099447,0.0-19.0-0.0-0.106,A16Y5JEB1EF9CY,371DNNCG57IGA1IMUX7DUPM8OSP8TA,3300DTYQT6XND5YFGY4K6E3U90QQEC,3,4
107,1,object_06,object_05,630.19999999925,1,2,1388.3000000007,0.5555555555555556,1,object_10,5,1342,0,5,9,desert_6,2,memory-2step-stake-s,743,2108629,0.0-19.0-0.0-0.107,A16Y5JEB1EF9CY,371DNNCG57IGA1IMUX7DUPM8OSP8TA,3300DTYQT6XND5YFGY4K6E3U90QQEC,2,1
108,1,object_05,object_06,1018.9000000022,1,1,1011.8999999985,0.4444444444444444,1,object_10,5,1362,0,4,6,desert_7,2,memory-2step-stake-s,744,2117314,0.0-19.0-0.0-0.108,A16Y5JEB1EF9CY,371DNNCG57IGA1IMUX7DUPM8OSP8TA,3300DTYQT6XND5YFGY4K6E3U90QQEC,1,2
109,4,object_09,object_07,384.59999999776,8,1,526.19999999925,0.7777777777777778,2,object_08,1,1369,0,6,7,restaurant_5,2,memory-2step-stake-s,745,2125795,0.0-19.0-0.0-0.109,A16Y5JEB1EF9CY,371DNNCG57IGA1IMUX7DUPM8OSP8TA,3300DTYQT6XND5YFGY4K6E3U90QQEC,8,7
110,2,object_02,object_03,542.20000000298,3,2,1184.8999999985,0.6666666666666666,1,object_10,1,1375,0,6,9,forest_2,2,memory-2step-stake-s,746,2134856,0.0-19.0-0.0-0.110,A16Y5JEB1EF9CY,371DNNCG57IGA1IMUX7DUPM8OSP8TA,3300DTYQT6XND5YFGY4K6E3U90QQEC,4,3
111,4,object_09,object_07,1168.299999997,7,2,1260.1999999993,0.6666666666666666,1,object_10,5,1405,0,6,7,restaurant_5,2,memory-2step-stake-s,747,2143986,0.0-19.0-0.0-0.111,A16Y5JEB1EF9CY,371DNNCG57IGA1IMUX7DUPM8OSP8TA,3300DTYQT6XND5YFGY4K6E3U90QQEC,8,7
112,4,object_09,object_07,580.80000000075,8,1,1186.4000000022,0.7777777777777778,2,object_08,1,1412,0,7,7,restaurant_8,2,memory-2step-stake-s,748,2153168,0.0-19.0-0.0-0.112,A16Y5JEB1EF9CY,371DNNCG57IGA1IMUX7DUPM8OSP8TA,3300DTYQT6XND5YFGY4K6E3U90QQEC,8,7
113,1,object_06,object_05,552.0,1,2,1215.8000000007,0.7777777777777778,1,object_10,5,1447,0,7,7,desert_5,2,memory-2step-stake-s,749,2162349,0.0-19.0-0.0-0.113,A16Y5JEB1EF9CY,371DNNCG57IGA1IMUX7DUPM8OSP8TA,3300DTYQT6XND5YFGY4K6E3U90QQEC,2,1
114,3,object_04,object_01,562.5,6,2,1223.8000000007,0.6666666666666666,2,object_08,1,1453,0,6,6,library_2,2,memory-2step-stake-s,750,2171469,0.0-19.0-0.0-0.114,A16Y5JEB1EF9CY,371DNNCG57IGA1IMUX7DUPM8OSP8TA,3300DTYQT6XND5YFGY4K6E3U90QQEC,5,6
115,4,object_09,object_07,539.30000000075,8,1,1259.3999999985,0.7777777777777778,2,object_08,1,1460,0,9,7,restaurant_3,2,memory-2step-stake-s,751,2180710,0.0-19.0-0.0-0.115,A16Y5JEB1EF9CY,371DNNCG57IGA1IMUX7DUPM8OSP8TA,3300DTYQT6XND5YFGY4K6E3U90QQEC,8,7
116,2,object_02,object_03,1043.3999999985,4,1,-1.0,0.0,2,object_08,1,1460,0,8,8,forest_2,2,memory-2step-stake-s,752,2189267,0.0-19.0-0.0-0.116,A16Y5JEB1EF9CY,371DNNCG57IGA1IMUX7DUPM8OSP8TA,3300DTYQT6XND5YFGY4K6E3U90QQEC,4,3
117,2,object_02,object_03,-1.0,-1,-1,-1.0,0.0,-,0,1,1460,0,8,5,forest_4,2,memory-2step-stake-s,753,2195831,0.0-19.0-0.0-0.117,A16Y5JEB1EF9CY,371DNNCG57IGA1IMUX7DUPM8OSP8TA,3300DTYQT6XND5YFGY4K6E3U90QQEC,4,3
118,2,object_02,object_03,1215.0999999978,4,1,-1.0,0.0,2,object_08,1,1460,0,9,4,forest_7,2,memory-2step-stake-s,754,2204397,0.0-19.0-0.0-0.118,A16Y5JEB1EF9CY,371DNNCG57IGA1IMUX7DUPM8OSP8TA,3300DTYQT6XND5YFGY4K6E3U90QQEC,4,3
119,2,object_02,object_03,890.69999999925,3,2,867.80000000075,1.0,1,object_10,5,1505,0,9,4,forest_6,2,memory-2step-stake-s,755,2213457,0.0-19.0-0.0-0.119,A16Y5JEB1EF9CY,371DNNCG57IGA1IMUX7DUPM8OSP8TA,3300DTYQT6XND5YFGY4K6E3U90QQEC,4,3
120,4,object_07,object_09,806.60000000149,7,1,-1.0,0.0,1,object_10,1,1505,0,8,6,restaurant_8,2,memory-2step-stake-s,756,2222023,0.0-19.0-0.0-0.120,A16Y5JEB1EF9CY,371DNNCG57IGA1IMUX7DUPM8OSP8TA,3300DTYQT6XND5YFGY4K6E3U90QQEC,7,8
121,3,object_04,object_01,964.60000000149,5,1,547.5,0.5555555555555556,1,object_10,1,1510,0,5,5,library_2,2,memory-2step-stake-s,757,2230365,0.0-19.0-0.0-0.121,A16Y5JEB1EF9CY,371DNNCG57IGA1IMUX7DUPM8OSP8TA,3300DTYQT6XND5YFGY4K6E3U90QQEC,5,6
122,2,object_03,object_02,398.10000000149,4,2,-1.0,0.0,2,object_08,5,1510,0,4,9,forest_6,2,memory-2step-stake-s,758,2238930,0.0-19.0-0.0-0.122,A16Y5JEB1EF9CY,371DNNCG57IGA1IMUX7DUPM8OSP8TA,3300DTYQT6XND5YFGY4K6E3U90QQEC,3,4
123,3,object_01,object_04,390.19999999925,5,2,1131.6999999993,0.4444444444444444,1,object_10,1,1514,0,4,6,library_2,2,memory-2step-stake-s,759,2247750,0.0-19.0-0.0-0.123,A16Y5JEB1EF9CY,371DNNCG57IGA1IMUX7DUPM8OSP8TA,3300DTYQT6XND5YFGY4K6E3U90QQEC,6,5
124,1,object_05,object_06,308.20000000298,1,1,1442.0,0.4444444444444444,1,object_10,1,1518,0,4,6,desert_2,2,memory-2step-stake-s,760,2256871,0.0-19.0-0.0-0.124,A16Y5JEB1EF9CY,371DNNCG57IGA1IMUX7DUPM8OSP8TA,3300DTYQT6XND5YFGY4K6E3U90QQEC,1,2
125,1,object_06,object_05,313.0,1,2,1103.5,0.0,1,object_10,5,1518,0,0,6,desert_5,2,memory-2step-stake-s,761,2265233,0.0-19.0-0.0-0.125,A16Y5JEB1EF9CY,371DNNCG57IGA1IMUX7DUPM8OSP8TA,3300DTYQT6XND5YFGY4K6E3U90QQEC,2,1
126,4,object_07,object_09,640.40000000224,8,2,588.59999999776,0.6666666666666666,2,object_08,1,1524,0,3,6,restaurant_8,2,memory-2step-stake-s,762,2273703,0.0-19.0-0.0-0.126,A16Y5JEB1EF9CY,371DNNCG57IGA1IMUX7DUPM8OSP8TA,3300DTYQT6XND5YFGY4K6E3U90QQEC,7,8
127,4,object_07,object_09,461.20000000298,7,1,448.10000000149,0.6666666666666666,1,object_10,5,1554,0,6,8,restaurant_5,2,memory-2step-stake-s,763,2282014,0.0-19.0-0.0-0.127,A16Y5JEB1EF9CY,371DNNCG57IGA1IMUX7DUPM8OSP8TA,3300DTYQT6XND5YFGY4K6E3U90QQEC,7,8
128,1,object_06,object_05,713.69999999925,1,2,917.5,0.5555555555555556,1,object_10,5,1579,0,5,8,desert_6,2,memory-2step-stake-s,765,2295462,0.0-19.0-0.1-0.128,A16Y5JEB1EF9CY,371DNNCG57IGA1IMUX7DUPM8OSP8TA,3300DTYQT6XND5YFGY4K6E3U90QQEC,2,1
129,3,object_01,object_04,329.69999999925,5,2,1075.8000000007,0.6666666666666666,1,object_10,5,1609,0,6,8,library_1,2,memory-2step-stake-s,766,2304440,0.0-19.0-0.1-0.129,A16Y5JEB1EF9CY,371DNNCG57IGA1IMUX7DUPM8OSP8TA,3300DTYQT6XND5YFGY4K6E3U90QQEC,6,5
130,3,object_04,object_01,311.5,6,2,1016.9000000022,0.8888888888888888,2,object_08,5,1649,0,6,8,library_1,2,memory-2step-stake-s,767,2313552,0.0-19.0-0.1-0.130,A16Y5JEB1EF9CY,371DNNCG57IGA1IMUX7DUPM8OSP8TA,3300DTYQT6XND5YFGY4K6E3U90QQEC,5,6
131,4,object_07,object_09,949.19999999925,8,2,989.5,0.7777777777777778,2,object_08,1,1656,0,5,7,restaurant_5,2,memory-2step-stake-s,768,2322508,0.0-19.0-0.1-0.131,A16Y5JEB1EF9CY,371DNNCG57IGA1IMUX7DUPM8OSP8TA,3300DTYQT6XND5YFGY4K6E3U90QQEC,7,8
132,2,object_02,object_03,603.19999999925,3,2,-1.0,0.0,1,object_10,5,1656,0,6,4,forest_2,2,memory-2step-stake-s,769,2331075,0.0-19.0-0.1-0.132,A16Y5JEB1EF9CY,371DNNCG57IGA1IMUX7DUPM8OSP8TA,3300DTYQT6XND5YFGY4K6E3U90QQEC,4,3
133,2,object_03,object_02,969.19999999925,4,2,1452.4000000022,0.5555555555555556,2,object_08,5,1681,0,6,5,forest_6,2,memory-2step-stake-s,770,2340325,0.0-19.0-0.1-0.133,A16Y5JEB1EF9CY,371DNNCG57IGA1IMUX7DUPM8OSP8TA,3300DTYQT6XND5YFGY4K6E3U90QQEC,3,4
134,2,object_03,object_02,498.89999999851,4,2,590.10000000149,0.8888888888888888,2,object_08,5,1721,0,8,8,forest_4,2,memory-2step-stake-s,771,2349041,0.0-19.0-0.1-0.134,A16Y5JEB1EF9CY,371DNNCG57IGA1IMUX7DUPM8OSP8TA,3300DTYQT6XND5YFGY4K6E3U90QQEC,3,4
135,4,object_09,object_07,397.60000000149,7,2,1056.3999999985,1.0,1,object_10,1,1730,0,9,7,restaurant_2,2,memory-2step-stake-s,772,2358281,0.0-19.0-0.1-0.135,A16Y5JEB1EF9CY,371DNNCG57IGA1IMUX7DUPM8OSP8TA,3300DTYQT6XND5YFGY4K6E3U90QQEC,8,7
136,2,object_03,object_02,900.30000000075,4,2,601.0,0.3333333333333333,2,object_08,5,1745,0,6,3,forest_7,2,memory-2step-stake-s,773,2366442,0.0-19.0-0.1-0.136,A16Y5JEB1EF9CY,371DNNCG57IGA1IMUX7DUPM8OSP8TA,3300DTYQT6XND5YFGY4K6E3U90QQEC,3,4
137,4,object_09,object_07,280.80000000075,7,2,990.5,0.8888888888888888,1,object_10,1,1753,0,8,1,restaurant_3,2,memory-2step-stake-s,774,2375508,0.0-19.0-0.1-0.137,A16Y5JEB1EF9CY,371DNNCG57IGA1IMUX7DUPM8OSP8TA,3300DTYQT6XND5YFGY4K6E3U90QQEC,8,7
138,4,object_09,object_07,349.39999999851,7,2,452.60000000149,0.6666666666666666,1,object_10,1,1759,0,6,2,restaurant_2,2,memory-2step-stake-s,775,2383850,0.0-19.0-0.1-0.138,A16Y5JEB1EF9CY,371DNNCG57IGA1IMUX7DUPM8OSP8TA,3300DTYQT6XND5YFGY4K6E3U90QQEC,8,7
139,2,object_03,object_02,481.30000000075,4,2,917.40000000224,0.0,2,object_08,1,1759,0,6,0,forest_2,2,memory-2step-stake-s,776,2392034,0.0-19.0-0.1-0.139,A16Y5JEB1EF9CY,371DNNCG57IGA1IMUX7DUPM8OSP8TA,3300DTYQT6XND5YFGY4K6E3U90QQEC,3,4
140,4,object_07,object_09,346.60000000149,7,1,471.39999999851,0.5555555555555556,1,object_10,1,1764,0,5,4,restaurant_8,2,memory-2step-stake-s,777,2400271,0.0-19.0-0.1-0.140,A16Y5JEB1EF9CY,371DNNCG57IGA1IMUX7DUPM8OSP8TA,3300DTYQT6XND5YFGY4K6E3U90QQEC,7,8
141,4,object_07,object_09,411.10000000149,8,2,1198.1999999993,1.0,2,object_08,1,1773,0,6,9,restaurant_8,2,memory-2step-stake-s,778,2409638,0.0-19.0-0.1-0.141,A16Y5JEB1EF9CY,371DNNCG57IGA1IMUX7DUPM8OSP8TA,3300DTYQT6XND5YFGY4K6E3U90QQEC,7,8
142,3,object_04,object_01,289.09999999776,6,2,1156.0,0.7777777777777778,2,object_08,1,1780,0,7,7,library_8,2,memory-2step-stake-s,779,2418799,0.0-19.0-0.1-0.142,A16Y5JEB1EF9CY,371DNNCG57IGA1IMUX7DUPM8OSP8TA,3300DTYQT6XND5YFGY4K6E3U90QQEC,5,6
143,1,object_06,object_05,-1.0,-1,-1,-1.0,0.0,-,0,1,1780,0,8,6,desert_7,2,memory-2step-stake-s,780,2425370,0.0-19.0-0.1-0.143,A16Y5JEB1EF9CY,371DNNCG57IGA1IMUX7DUPM8OSP8TA,3300DTYQT6XND5YFGY4K6E3U90QQEC,2,1
144,2,object_02,object_03,939.90000000224,4,1,1087.8000000007,0.7777777777777778,2,object_08,5,1815,0,8,7,forest_2,2,memory-2step-stake-s,781,2434430,0.0-19.0-0.1-0.144,A16Y5JEB1EF9CY,371DNNCG57IGA1IMUX7DUPM8OSP8TA,3300DTYQT6XND5YFGY4K6E3U90QQEC,4,3
145,3,object_04,object_01,370.89999999851,6,2,1323.6999999993,0.7777777777777778,2,object_08,5,1850,0,9,7,library_8,2,memory-2step-stake-s,782,2443761,0.0-19.0-0.1-0.145,A16Y5JEB1EF9CY,371DNNCG57IGA1IMUX7DUPM8OSP8TA,3300DTYQT6XND5YFGY4K6E3U90QQEC,5,6
146,4,object_07,object_09,744.0,7,1,807.5,0.8888888888888888,1,object_10,1,1858,0,8,9,restaurant_2,2,memory-2step-stake-s,783,2452647,0.0-19.0-0.1-0.146,A16Y5JEB1EF9CY,371DNNCG57IGA1IMUX7DUPM8OSP8TA,3300DTYQT6XND5YFGY4K6E3U90QQEC,7,8
147,1,object_05,object_06,717.59999999776,2,2,-1.0,0.0,2,object_08,1,1858,0,8,6,desert_6,2,memory-2step-stake-s,784,2461237,0.0-19.0-0.1-0.147,A16Y5JEB1EF9CY,371DNNCG57IGA1IMUX7DUPM8OSP8TA,3300DTYQT6XND5YFGY4K6E3U90QQEC,1,2
148,2,object_02,object_03,292.19999999925,4,1,531.69999999925,0.7777777777777778,2,object_08,5,1893,0,8,7,forest_7,2,memory-2step-stake-s,785,2469733,0.0-19.0-0.1-0.148,A16Y5JEB1EF9CY,371DNNCG57IGA1IMUX7DUPM8OSP8TA,3300DTYQT6XND5YFGY4K6E3U90QQEC,4,3
149,1,object_05,object_06,-1.0,-1,-1,-1.0,0.0,-,0,1,1893,0,8,8,desert_7,2,memory-2step-stake-s,786,2476299,0.0-19.0-0.1-0.149,A16Y5JEB1EF9CY,371DNNCG57IGA1IMUX7DUPM8OSP8TA,3300DTYQT6XND5YFGY4K6E3U90QQEC,1,2
150,1,object_06,object_05,701.90000000224,2,1,-1.0,0.0,2,object_08,5,1893,0,6,6,desert_6,2,memory-2step-stake-s,787,2484841,0.0-19.0-0.1-0.150,A16Y5JEB1EF9CY,371DNNCG57IGA1IMUX7DUPM8OSP8TA,3300DTYQT6XND5YFGY4K6E3U90QQEC,2,1
151,4,object_09,object_07,784.60000000149,7,2,501.80000000075,0.6666666666666666,1,object_10,1,1899,0,6,4,restaurant_2,2,memory-2step-stake-s,788,2493265,0.0-19.0-0.1-0.151,A16Y5JEB1EF9CY,371DNNCG57IGA1IMUX7DUPM8OSP8TA,3300DTYQT6XND5YFGY4K6E3U90QQEC,8,7
152,2,object_03,object_02,1146.3000000007,3,1,726.5,0.7777777777777778,1,object_10,1,1906,0,7,6,forest_6,2,memory-2step-stake-s,789,2501972,0.0-19.0-0.1-0.152,A16Y5JEB1EF9CY,371DNNCG57IGA1IMUX7DUPM8OSP8TA,3300DTYQT6XND5YFGY4K6E3U90QQEC,3,4
153,2,object_03,object_02,413.70000000298,4,2,782.5,0.3333333333333333,2,object_08,5,1921,0,4,3,forest_2,2,memory-2step-stake-s,790,2510322,0.0-19.0-0.1-0.153,A16Y5JEB1EF9CY,371DNNCG57IGA1IMUX7DUPM8OSP8TA,3300DTYQT6XND5YFGY4K6E3U90QQEC,3,4
154,3,object_04,object_01,293.89999999851,5,1,-1.0,0.0,1,object_10,1,1921,0,4,4,library_4,2,memory-2step-stake-s,791,2518889,0.0-19.0-0.1-0.154,A16Y5JEB1EF9CY,371DNNCG57IGA1IMUX7DUPM8OSP8TA,3300DTYQT6XND5YFGY4K6E3U90QQEC,5,6
155,1,object_06,object_05,-1.0,-1,-1,-1.0,0.0,-,0,5,1921,0,5,8,desert_5,2,memory-2step-stake-s,792,2525449,0.0-19.0-0.1-0.155,A16Y5JEB1EF9CY,371DNNCG57IGA1IMUX7DUPM8OSP8TA,3300DTYQT6XND5YFGY4K6E3U90QQEC,2,1
156,4,object_09,object_07,-1.0,-1,-1,-1.0,0.0,-,0,1,1921,0,6,8,restaurant_8,2,memory-2step-stake-s,793,2532006,0.0-19.0-0.1-0.156,A16Y5JEB1EF9CY,371DNNCG57IGA1IMUX7DUPM8OSP8TA,3300DTYQT6XND5YFGY4K6E3U90QQEC,8,7
157,2,object_02,object_03,709.20000000298,4,1,1206.8000000007,1.0,2,object_08,5,1966,0,4,9,forest_2,2,memory-2step-stake-s,794,2541396,0.0-19.0-0.1-0.157,A16Y5JEB1EF9CY,371DNNCG57IGA1IMUX7DUPM8OSP8TA,3300DTYQT6XND5YFGY4K6E3U90QQEC,4,3
158,4,object_07,object_09,411.5,8,2,492.89999999851,1.0,2,object_08,1,1975,0,3,9,restaurant_8,2,memory-2step-stake-s,795,2550077,0.0-19.0-0.1-0.158,A16Y5JEB1EF9CY,371DNNCG57IGA1IMUX7DUPM8OSP8TA,3300DTYQT6XND5YFGY4K6E3U90QQEC,7,8
159,1,object_06,object_05,911.09999999776,1,2,1037.8000000007,0.4444444444444444,1,object_10,5,1995,0,4,8,desert_6,2,memory-2step-stake-s,796,2558792,0.0-19.0-0.1-0.159,A16Y5JEB1EF9CY,371DNNCG57IGA1IMUX7DUPM8OSP8TA,3300DTYQT6XND5YFGY4K6E3U90QQEC,2,1
160,3,object_01,object_04,-1.0,-1,-1,-1.0,0.0,-,0,1,1995,0,3,8,library_1,2,memory-2step-stake-s,797,2565337,0.0-19.0-0.1-0.160,A16Y5JEB1EF9CY,371DNNCG57IGA1IMUX7DUPM8OSP8TA,3300DTYQT6XND5YFGY4K6E3U90QQEC,6,5
161,2,object_03,object_02,1108.5999999978,3,1,820.0,0.5555555555555556,1,object_10,5,2020,0,5,8,forest_6,2,memory-2step-stake-s,798,2573974,0.0-19.0-0.1-0.161,A16Y5JEB1EF9CY,371DNNCG57IGA1IMUX7DUPM8OSP8TA,3300DTYQT6XND5YFGY4K6E3U90QQEC,3,4
162,4,object_07,object_09,296.80000000075,7,1,1095.5999999978,0.6666666666666666,1,object_10,1,2026,0,6,7,restaurant_5,2,memory-2step-stake-s,799,2582944,0.0-19.0-0.1-0.162,A16Y5JEB1EF9CY,371DNNCG57IGA1IMUX7DUPM8OSP8TA,3300DTYQT6XND5YFGY4K6E3U90QQEC,7,8
163,4,object_07,object_09,403.30000000075,8,2,448.29999999702,0.7777777777777778,2,object_08,1,2033,0,4,7,restaurant_3,2,memory-2step-stake-s,800,2591380,0.0-19.0-0.1-0.163,A16Y5JEB1EF9CY,371DNNCG57IGA1IMUX7DUPM8OSP8TA,3300DTYQT6XND5YFGY4K6E3U90QQEC,7,8
164,3,object_04,object_01,1161.0,6,2,478.80000000075,0.8888888888888888,2,object_08,1,2041,0,2,8,library_8,2,memory-2step-stake-s,801,2599954,0.0-19.0-0.1-0.164,A16Y5JEB1EF9CY,371DNNCG57IGA1IMUX7DUPM8OSP8TA,3300DTYQT6XND5YFGY4K6E3U90QQEC,5,6
165,2,object_02,object_03,365.89999999851,4,1,497.30000000075,0.8888888888888888,2,object_08,5,2081,0,3,8,forest_4,2,memory-2step-stake-s,802,2608564,0.0-19.0-0.1-0.165,A16Y5JEB1EF9CY,371DNNCG57IGA1IMUX7DUPM8OSP8TA,3300DTYQT6XND5YFGY4K6E3U90QQEC,4,3
166,4,object_09,object_07,1284.200000003,7,2,837.79999999702,0.1111111111111111,1,object_10,1,2082,0,1,7,restaurant_8,2,memory-2step-stake-s,803,2616785,0.0-19.0-0.1-0.166,A16Y5JEB1EF9CY,371DNNCG57IGA1IMUX7DUPM8OSP8TA,3300DTYQT6XND5YFGY4K6E3U90QQEC,8,7
167,4,object_09,object_07,358.19999999925,7,2,390.0,0.0,1,object_10,1,2082,0,0,7,restaurant_2,2,memory-2step-stake-s,804,2624436,0.0-19.0-0.1-0.167,A16Y5JEB1EF9CY,371DNNCG57IGA1IMUX7DUPM8OSP8TA,3300DTYQT6XND5YFGY4K6E3U90QQEC,8,7
168,2,object_03,object_02,303.10000000149,3,1,447.5,0.1111111111111111,1,object_10,5,2087,0,1,4,forest_2,2,memory-2step-stake-s,805,2632258,0.0-19.0-0.1-0.168,A16Y5JEB1EF9CY,371DNNCG57IGA1IMUX7DUPM8OSP8TA,3300DTYQT6XND5YFGY4K6E3U90QQEC,3,4
169,3,object_04,object_01,1225.5999999978,6,2,613.19999999925,0.2222222222222222,2,object_08,1,2089,0,0,2,library_2,2,memory-2step-stake-s,806,2640345,0.0-19.0-0.1-0.169,A16Y5JEB1EF9CY,371DNNCG57IGA1IMUX7DUPM8OSP8TA,3300DTYQT6XND5YFGY4K6E3U90QQEC,5,6
170,1,object_06,object_05,737.59999999776,1,2,989.80000000075,0.2222222222222222,1,object_10,1,2091,0,2,3,desert_7,2,memory-2step-stake-s,807,2648800,0.0-19.0-0.1-0.170,A16Y5JEB1EF9CY,371DNNCG57IGA1IMUX7DUPM8OSP8TA,3300DTYQT6XND5YFGY4K6E3U90QQEC,2,1
171,4,object_07,object_09,396.30000000075,7,1,388.0,0.1111111111111111,1,object_10,1,2092,0,1,6,restaurant_3,2,memory-2step-stake-s,808,2656542,0.0-19.0-0.1-0.171,A16Y5JEB1EF9CY,371DNNCG57IGA1IMUX7DUPM8OSP8TA,3300DTYQT6XND5YFGY4K6E3U90QQEC,7,8
172,3,object_04,object_01,473.09999999776,6,2,767.80000000075,0.6666666666666666,2,object_08,1,2098,0,1,6,library_1,2,memory-2step-stake-s,809,2665197,0.0-19.0-0.1-0.172,A16Y5JEB1EF9CY,371DNNCG57IGA1IMUX7DUPM8OSP8TA,3300DTYQT6XND5YFGY4K6E3U90QQEC,5,6
173,3,object_01,object_04,539.0,6,1,533.5,0.8888888888888888,2,object_08,1,2106,0,2,8,library_1,2,memory-2step-stake-s,810,2673814,0.0-19.0-0.1-0.173,A16Y5JEB1EF9CY,371DNNCG57IGA1IMUX7DUPM8OSP8TA,3300DTYQT6XND5YFGY4K6E3U90QQEC,6,5
174,2,object_02,object_03,869.90000000224,3,2,1178.1999999993,0.3333333333333333,1,object_10,5,2121,0,3,8,forest_7,2,memory-2step-stake-s,811,2682583,0.0-19.0-0.1-0.174,A16Y5JEB1EF9CY,371DNNCG57IGA1IMUX7DUPM8OSP8TA,3300DTYQT6XND5YFGY4K6E3U90QQEC,4,3
175,1,object_05,object_06,-1.0,-1,-1,-1.0,0.0,-,0,5,2121,0,1,8,desert_5,2,memory-2step-stake-s,812,2689140,0.0-19.0-0.1-0.175,A16Y5JEB1EF9CY,371DNNCG57IGA1IMUX7DUPM8OSP8TA,3300DTYQT6XND5YFGY4K6E3U90QQEC,1,2
176,1,object_05,object_06,680.10000000149,1,1,662.19999999925,0.2222222222222222,1,object_10,1,2123,0,2,7,desert_5,2,memory-2step-stake-s,813,2697257,0.0-19.0-0.1-0.176,A16Y5JEB1EF9CY,371DNNCG57IGA1IMUX7DUPM8OSP8TA,3300DTYQT6XND5YFGY4K6E3U90QQEC,1,2
177,2,object_03,object_02,598.69999999925,4,2,902.69999999925,1.0,2,object_08,5,2168,0,1,9,forest_4,2,memory-2step-stake-s,814,2706362,0.0-19.0-0.1-0.177,A16Y5JEB1EF9CY,371DNNCG57IGA1IMUX7DUPM8OSP8TA,3300DTYQT6XND5YFGY4K6E3U90QQEC,3,4
178,3,object_01,object_04,341.30000000075,6,1,809.09999999776,0.5555555555555556,2,object_08,1,2173,0,1,5,library_1,2,memory-2step-stake-s,815,2714935,0.0-19.0-0.1-0.178,A16Y5JEB1EF9CY,371DNNCG57IGA1IMUX7DUPM8OSP8TA,3300DTYQT6XND5YFGY4K6E3U90QQEC,6,5
179,3,object_04,object_01,322.20000000298,6,2,587.70000000298,0.4444444444444444,2,object_08,1,2177,0,3,4,library_4,2,memory-2step-stake-s,816,2723210,0.0-19.0-0.1-0.179,A16Y5JEB1EF9CY,371DNNCG57IGA1IMUX7DUPM8OSP8TA,3300DTYQT6XND5YFGY4K6E3U90QQEC,5,6
180,1,object_06,object_05,615.30000000075,2,1,471.80000000075,0.4444444444444444,2,object_08,5,2197,0,4,4,desert_2,2,memory-2step-stake-s,817,2731371,0.0-19.0-0.1-0.180,A16Y5JEB1EF9CY,371DNNCG57IGA1IMUX7DUPM8OSP8TA,3300DTYQT6XND5YFGY4K6E3U90QQEC,2,1
181,2,object_03,object_02,-1.0,-1,-1,-1.0,0.0,-,0,5,2197,0,2,3,forest_7,2,memory-2step-stake-s,818,2737904,0.0-19.0-0.1-0.181,A16Y5JEB1EF9CY,371DNNCG57IGA1IMUX7DUPM8OSP8TA,3300DTYQT6XND5YFGY4K6E3U90QQEC,3,4
182,1,object_05,object_06,383.5,2,2,597.30000000075,0.2222222222222222,2,object_08,5,2207,0,4,2,desert_2,2,memory-2step-stake-s,819,2746000,0.0-19.0-0.1-0.182,A16Y5JEB1EF9CY,371DNNCG57IGA1IMUX7DUPM8OSP8TA,3300DTYQT6XND5YFGY4K6E3U90QQEC,1,2
183,1,object_05,object_06,310.59999999776,1,1,752.5,0.5555555555555556,1,object_10,5,2232,0,5,3,desert_5,2,memory-2step-stake-s,820,2754527,0.0-19.0-0.1-0.183,A16Y5JEB1EF9CY,371DNNCG57IGA1IMUX7DUPM8OSP8TA,3300DTYQT6XND5YFGY4K6E3U90QQEC,1,2
184,2,object_03,object_02,617.90000000224,4,2,807.0,0.4444444444444444,2,object_08,5,2252,0,7,4,forest_6,2,memory-2step-stake-s,821,2763012,0.0-19.0-0.1-0.184,A16Y5JEB1EF9CY,371DNNCG57IGA1IMUX7DUPM8OSP8TA,3300DTYQT6XND5YFGY4K6E3U90QQEC,3,4
185,1,object_05,object_06,361.60000000149,2,2,982.29999999702,0.8888888888888888,2,object_08,5,2292,0,7,8,desert_2,2,memory-2step-stake-s,822,2772088,0.0-19.0-0.1-0.185,A16Y5JEB1EF9CY,371DNNCG57IGA1IMUX7DUPM8OSP8TA,3300DTYQT6XND5YFGY4K6E3U90QQEC,1,2
186,3,object_01,object_04,387.0,5,2,622.60000000149,0.6666666666666666,1,object_10,1,2298,0,6,8,library_4,2,memory-2step-stake-s,823,2780584,0.0-19.0-0.1-0.186,A16Y5JEB1EF9CY,371DNNCG57IGA1IMUX7DUPM8OSP8TA,3300DTYQT6XND5YFGY4K6E3U90QQEC,6,5
187,4,object_07,object_09,441.0,7,1,33.599999997765,0.7777777777777778,1,object_10,1,2305,0,7,5,restaurant_3,2,memory-2step-stake-s,824,2788603,0.0-19.0-0.1-0.187,A16Y5JEB1EF9CY,371DNNCG57IGA1IMUX7DUPM8OSP8TA,3300DTYQT6XND5YFGY4K6E3U90QQEC,7,8
188,3,object_04,object_01,757.69999999925,6,2,1000.3000000007,1.0,2,object_08,1,2314,0,6,9,library_2,2,memory-2step-stake-s,825,2797790,0.0-19.0-0.1-0.188,A16Y5JEB1EF9CY,371DNNCG57IGA1IMUX7DUPM8OSP8TA,3300DTYQT6XND5YFGY4K6E3U90QQEC,5,6
189,2,object_03,object_02,743.30000000075,3,1,642.09999999776,0.5555555555555556,1,object_10,5,2339,0,5,5,forest_4,2,memory-2step-stake-s,826,2806216,0.0-19.0-0.1-0.189,A16Y5JEB1EF9CY,371DNNCG57IGA1IMUX7DUPM8OSP8TA,3300DTYQT6XND5YFGY4K6E3U90QQEC,3,4
190,1,object_06,object_05,476.0,1,2,1014.8000000007,0.8888888888888888,1,object_10,5,2379,0,8,5,desert_6,2,memory-2step-stake-s,827,2815313,0.0-19.0-0.1-0.190,A16Y5JEB1EF9CY,371DNNCG57IGA1IMUX7DUPM8OSP8TA,3300DTYQT6XND5YFGY4K6E3U90QQEC,2,1
191,3,object_01,object_04,421.70000000298,6,1,991.69999999925,0.5555555555555556,2,object_08,1,2384,0,9,5,library_2,2,memory-2step-stake-s,828,2824069,0.0-19.0-0.1-0.191,A16Y5JEB1EF9CY,371DNNCG57IGA1IMUX7DUPM8OSP8TA,3300DTYQT6XND5YFGY4K6E3U90QQEC,6,5
192,4,object_09,object_07,1418.799999997,7,2,829.40000000224,1.0,1,object_10,1,2393,0,9,2,restaurant_2,2,memory-2step-stake-s,829,2833085,0.0-19.0-0.1-0.192,A16Y5JEB1EF9CY,371DNNCG57IGA1IMUX7DUPM8OSP8TA,3300DTYQT6XND5YFGY4K6E3U90QQEC,8,7
193,3,object_01,object_04,-1.0,-1,-1,-1.0,0.0,-,0,1,2393,0,6,4,library_2,2,memory-2step-stake-s,830,2839640,0.0-19.0-0.1-0.193,A16Y5JEB1EF9CY,371DNNCG57IGA1IMUX7DUPM8OSP8TA,3300DTYQT6XND5YFGY4K6E3U90QQEC,6,5
194,1,object_05,object_06,457.40000000224,1,1,546.40000000224,0.4444444444444444,1,object_10,5,2413,0,4,6,desert_5,2,memory-2step-stake-s,831,2847860,0.0-19.0-0.1-0.194,A16Y5JEB1EF9CY,371DNNCG57IGA1IMUX7DUPM8OSP8TA,3300DTYQT6XND5YFGY4K6E3U90QQEC,1,2
195,1,object_06,object_05,653.19999999925,1,2,901.10000000149,0.4444444444444444,1,object_10,5,2433,0,4,7,desert_7,2,memory-2step-stake-s,832,2856425,0.0-19.0-0.1-0.195,A16Y5JEB1EF9CY,371DNNCG57IGA1IMUX7DUPM8OSP8TA,3300DTYQT6XND5YFGY4K6E3U90QQEC,2,1
196,3,object_01,object_04,1120.0999999978,6,1,844.80000000075,0.6666666666666666,2,object_08,1,2439,0,3,6,library_8,2,memory-2step-stake-s,833,2865147,0.0-19.0-0.1-0.196,A16Y5JEB1EF9CY,371DNNCG57IGA1IMUX7DUPM8OSP8TA,3300DTYQT6XND5YFGY4K6E3U90QQEC,6,5
197,3,object_04,object_01,337.10000000149,6,2,462.10000000149,0.6666666666666666,2,object_08,5,2469,0,1,6,library_4,2,memory-2step-stake-s,834,2873488,0.0-19.0-0.1-0.197,A16Y5JEB1EF9CY,371DNNCG57IGA1IMUX7DUPM8OSP8TA,3300DTYQT6XND5YFGY4K6E3U90QQEC,5,6
198,3,object_04,object_01,419.0,5,1,681.5,0.6666666666666666,1,object_10,1,2475,0,6,4,library_4,2,memory-2step-stake-s,835,2882068,0.0-19.0-0.1-0.198,A16Y5JEB1EF9CY,371DNNCG57IGA1IMUX7DUPM8OSP8TA,3300DTYQT6XND5YFGY4K6E3U90QQEC,5,6
199,4,object_09,object_07,1219.5999999978,7,2,778.90000000224,0.3333333333333333,1,object_10,1,2478,0,3,3,restaurant_2,2,memory-2step-stake-s,836,2890417,0.0-19.0-0.1-0.199,A16Y5JEB1EF9CY,371DNNCG57IGA1IMUX7DUPM8OSP8TA,3300DTYQT6XND5YFGY4K6E3U90QQEC,8,7
200,1,object_05,object_06,727.89999999851,2,2,1064.5,0.1111111111111111,2,object_08,5,2483,0,1,1,desert_2,2,memory-2step-stake-s,837,2898848,0.0-19.0-0.1-0.200,A16Y5JEB1EF9CY,371DNNCG57IGA1IMUX7DUPM8OSP8TA,3300DTYQT6XND5YFGY4K6E3U90QQEC,1,2
201,2,object_03,object_02,165.40000000224,4,2,936.39999999851,0.3333333333333333,2,object_08,5,2498,0,4,3,forest_7,2,memory-2step-stake-s,838,2907383,0.0-19.0-0.1-0.201,A16Y5JEB1EF9CY,371DNNCG57IGA1IMUX7DUPM8OSP8TA,3300DTYQT6XND5YFGY4K6E3U90QQEC,3,4
202,4,object_09,object_07,675.20000000298,8,1,390.60000000149,0.1111111111111111,2,object_08,1,2499,0,1,1,restaurant_8,2,memory-2step-stake-s,839,2915123,0.0-19.0-0.1-0.202,A16Y5JEB1EF9CY,371DNNCG57IGA1IMUX7DUPM8OSP8TA,3300DTYQT6XND5YFGY4K6E3U90QQEC,8,7
203,1,object_05,object_06,435.19999999925,2,2,491.19999999925,0.2222222222222222,2,object_08,5,2509,0,4,2,desert_2,2,memory-2step-stake-s,840,2923060,0.0-19.0-0.1-0.203,A16Y5JEB1EF9CY,371DNNCG57IGA1IMUX7DUPM8OSP8TA,3300DTYQT6XND5YFGY4K6E3U90QQEC,1,2
204,4,object_07,object_09,874.30000000075,7,1,-1.0,0.0,1,object_10,1,2509,0,5,2,restaurant_5,2,memory-2step-stake-s,841,2931597,0.0-19.0-0.1-0.204,A16Y5JEB1EF9CY,371DNNCG57IGA1IMUX7DUPM8OSP8TA,3300DTYQT6XND5YFGY4K6E3U90QQEC,7,8
205,4,object_09,object_07,392.39999999851,7,2,169.30000000075,0.3333333333333333,1,object_10,1,2512,0,3,1,restaurant_5,2,memory-2step-stake-s,842,2939321,0.0-19.0-0.1-0.205,A16Y5JEB1EF9CY,371DNNCG57IGA1IMUX7DUPM8OSP8TA,3300DTYQT6XND5YFGY4K6E3U90QQEC,8,7
206,1,object_05,object_06,-1.0,-1,-1,-1.0,0.0,-,0,1,2512,0,2,0,desert_6,2,memory-2step-stake-s,843,2945877,0.0-19.0-0.1-0.206,A16Y5JEB1EF9CY,371DNNCG57IGA1IMUX7DUPM8OSP8TA,3300DTYQT6XND5YFGY4K6E3U90QQEC,1,2
207,3,object_04,object_01,389.30000000075,6,2,524.5,0.2222222222222222,2,object_08,1,2514,0,2,2,library_1,2,memory-2step-stake-s,844,2953859,0.0-19.0-0.1-0.207,A16Y5JEB1EF9CY,371DNNCG57IGA1IMUX7DUPM8OSP8TA,3300DTYQT6XND5YFGY4K6E3U90QQEC,5,6
208,3,object_01,object_04,700.70000000298,6,1,529.80000000075,0.1111111111111111,2,object_08,1,2515,0,1,1,library_2,2,memory-2step-stake-s,845,2961727,0.0-19.0-0.1-0.208,A16Y5JEB1EF9CY,371DNNCG57IGA1IMUX7DUPM8OSP8TA,3300DTYQT6XND5YFGY4K6E3U90QQEC,6,5
209,3,object_04,object_01,522.19999999925,6,2,590.10000000149,0.0,2,object_08,1,2515,0,1,0,library_2,2,memory-2step-stake-s,846,2969572,0.0-19.0-0.1-0.209,A16Y5JEB1EF9CY,371DNNCG57IGA1IMUX7DUPM8OSP8TA,3300DTYQT6XND5YFGY4K6E3U90QQEC,5,6
210,2,object_02,object_03,643.5,3,2,1447.3999999985,0.2222222222222222,1,object_10,5,2525,0,2,2,forest_4,2,memory-2step-stake-s,847,2978494,0.0-19.0-0.1-0.210,A16Y5JEB1EF9CY,371DNNCG57IGA1IMUX7DUPM8OSP8TA,3300DTYQT6XND5YFGY4K6E3U90QQEC,4,3
211,4,object_09,object_07,889.79999999702,7,2,599.5,0.2222222222222222,1,object_10,5,2535,0,2,2,restaurant_3,2,memory-2step-stake-s,848,2986571,0.0-19.0-0.1-0.211,A16Y5JEB1EF9CY,371DNNCG57IGA1IMUX7DUPM8OSP8TA,3300DTYQT6XND5YFGY4K6E3U90QQEC,8,7
212,2,object_03,object_02,786.89999999851,3,1,552.30000000075,0.2222222222222222,1,object_10,5,2545,0,2,2,forest_6,2,memory-2step-stake-s,849,2994598,0.0-19.0-0.1-0.212,A16Y5JEB1EF9CY,371DNNCG57IGA1IMUX7DUPM8OSP8TA,3300DTYQT6XND5YFGY4K6E3U90QQEC,3,4
213,2,object_02,object_03,844.10000000149,4,1,1173.0,0.3333333333333333,2,object_08,5,2560,0,8,3,forest_7,2,memory-2step-stake-s,850,3003338,0.0-19.0-0.1-0.213,A16Y5JEB1EF9CY,371DNNCG57IGA1IMUX7DUPM8OSP8TA,3300DTYQT6XND5YFGY4K6E3U90QQEC,4,3
214,4,object_07,object_09,552.29999999702,8,2,494.5,0.0,2,object_08,1,2560,0,6,0,restaurant_2,2,memory-2step-stake-s,851,3011085,0.0-19.0-0.1-0.214,A16Y5JEB1EF9CY,371DNNCG57IGA1IMUX7DUPM8OSP8TA,3300DTYQT6XND5YFGY4K6E3U90QQEC,7,8
215,4,object_09,object_07,371.29999999702,7,2,523.69999999925,0.6666666666666666,1,object_10,1,2566,0,6,1,restaurant_8,2,memory-2step-stake-s,852,3019469,0.0-19.0-0.1-0.215,A16Y5JEB1EF9CY,371DNNCG57IGA1IMUX7DUPM8OSP8TA,3300DTYQT6XND5YFGY4K6E3U90QQEC,8,7
216,3,object_01,object_04,570.20000000298,5,2,444.19999999925,1.0,1,object_10,1,2575,0,9,2,library_1,2,memory-2step-stake-s,853,3028103,0.0-19.0-0.1-0.216,A16Y5JEB1EF9CY,371DNNCG57IGA1IMUX7DUPM8OSP8TA,3300DTYQT6XND5YFGY4K6E3U90QQEC,6,5
217,3,object_01,object_04,1294.1000000015,6,1,755.19999999925,0.3333333333333333,2,object_08,5,2590,0,8,3,library_2,2,memory-2step-stake-s,854,3036444,0.0-19.0-0.1-0.217,A16Y5JEB1EF9CY,371DNNCG57IGA1IMUX7DUPM8OSP8TA,3300DTYQT6XND5YFGY4K6E3U90QQEC,6,5
218,4,object_09,object_07,358.80000000075,7,2,474.60000000149,1.0,1,object_10,1,2599,0,9,3,restaurant_2,2,memory-2step-stake-s,855,3045115,0.0-19.0-0.1-0.218,A16Y5JEB1EF9CY,371DNNCG57IGA1IMUX7DUPM8OSP8TA,3300DTYQT6XND5YFGY4K6E3U90QQEC,8,7
219,3,object_01,object_04,771.30000000075,6,1,394.69999999925,0.1111111111111111,2,object_08,1,2600,0,9,1,library_8,2,memory-2step-stake-s,856,3052888,0.0-19.0-0.1-0.219,A16Y5JEB1EF9CY,371DNNCG57IGA1IMUX7DUPM8OSP8TA,3300DTYQT6XND5YFGY4K6E3U90QQEC,6,5
220,2,object_03,object_02,331.0,4,2,509.80000000075,0.1111111111111111,2,object_08,5,2605,0,9,1,forest_4,2,memory-2step-stake-s,857,3060764,0.0-19.0-0.1-0.220,A16Y5JEB1EF9CY,371DNNCG57IGA1IMUX7DUPM8OSP8TA,3300DTYQT6XND5YFGY4K6E3U90QQEC,3,4
221,1,object_06,object_05,271.09999999776,1,2,801.10000000149,0.8888888888888888,1,object_10,5,2645,0,8,1,desert_7,2,memory-2step-stake-s,858,3069649,0.0-19.0-0.1-0.221,A16Y5JEB1EF9CY,371DNNCG57IGA1IMUX7DUPM8OSP8TA,3300DTYQT6XND5YFGY4K6E3U90QQEC,2,1
222,2,object_02,object_03,771.29999999702,4,1,-1.0,0.0,2,object_08,5,2645,0,8,0,forest_4,2,memory-2step-stake-s,859,3078200,0.0-19.0-0.1-0.222,A16Y5JEB1EF9CY,371DNNCG57IGA1IMUX7DUPM8OSP8TA,3300DTYQT6XND5YFGY4K6E3U90QQEC,4,3
223,1,object_06,object_05,680.59999999776,2,1,768.30000000075,0.2222222222222222,2,object_08,5,2655,0,5,2,desert_2,2,memory-2step-stake-s,860,3086436,0.0-19.0-0.1-0.223,A16Y5JEB1EF9CY,371DNNCG57IGA1IMUX7DUPM8OSP8TA,3300DTYQT6XND5YFGY4K6E3U90QQEC,2,1
224,4,object_09,object_07,247.5,7,2,613.0,0.2222222222222222,1,object_10,5,2665,0,2,1,restaurant_5,2,memory-2step-stake-s,861,3094507,0.0-19.0-0.1-0.224,A16Y5JEB1EF9CY,371DNNCG57IGA1IMUX7DUPM8OSP8TA,3300DTYQT6XND5YFGY4K6E3U90QQEC,8,7
225,2,object_03,object_02,830.30000000075,4,2,576.5,0.3333333333333333,2,object_08,5,2680,0,0,3,forest_2,2,memory-2step-stake-s,862,3102654,0.0-19.0-0.1-0.225,A16Y5JEB1EF9CY,371DNNCG57IGA1IMUX7DUPM8OSP8TA,3300DTYQT6XND5YFGY4K6E3U90QQEC,3,4
226,3,object_04,object_01,431.10000000149,5,1,585.0,0.2222222222222222,1,object_10,1,2682,0,2,2,library_4,2,memory-2step-stake-s,863,3110711,0.0-19.0-0.1-0.226,A16Y5JEB1EF9CY,371DNNCG57IGA1IMUX7DUPM8OSP8TA,3300DTYQT6XND5YFGY4K6E3U90QQEC,5,6
227,2,object_03,object_02,500.20000000298,3,1,728.60000000149,0.5555555555555556,1,object_10,1,2687,0,5,2,forest_4,2,memory-2step-stake-s,864,3119202,0.0-19.0-0.1-0.227,A16Y5JEB1EF9CY,371DNNCG57IGA1IMUX7DUPM8OSP8TA,3300DTYQT6XND5YFGY4K6E3U90QQEC,3,4
228,4,object_07,object_09,849.69999999925,8,2,961.39999999851,0.6666666666666666,2,object_08,1,2693,0,8,6,restaurant_5,2,memory-2step-stake-s,865,3128044,0.0-19.0-0.1-0.228,A16Y5JEB1EF9CY,371DNNCG57IGA1IMUX7DUPM8OSP8TA,3300DTYQT6XND5YFGY4K6E3U90QQEC,7,8
229,2,object_02,object_03,-1.0,-1,-1,-1.0,0.0,-,0,5,2693,0,9,8,forest_4,2,memory-2step-stake-s,866,3134608,0.0-19.0-0.1-0.229,A16Y5JEB1EF9CY,371DNNCG57IGA1IMUX7DUPM8OSP8TA,3300DTYQT6XND5YFGY4K6E3U90QQEC,4,3
230,2,object_03,object_02,502.69999999925,3,1,464.5,0.7777777777777778,1,object_10,5,2728,0,7,7,forest_6,2,memory-2step-stake-s,867,3143069,0.0-19.0-0.1-0.230,A16Y5JEB1EF9CY,371DNNCG57IGA1IMUX7DUPM8OSP8TA,3300DTYQT6XND5YFGY4K6E3U90QQEC,3,4
231,4,object_09,object_07,751.10000000149,7,2,654.80000000075,0.6666666666666666,1,object_10,5,2758,0,6,4,restaurant_5,2,memory-2step-stake-s,868,3151596,0.0-19.0-0.1-0.231,A16Y5JEB1EF9CY,371DNNCG57IGA1IMUX7DUPM8OSP8TA,3300DTYQT6XND5YFGY4K6E3U90QQEC,8,7
232,2,object_03,object_02,663.29999999702,3,1,486.09999999776,0.4444444444444444,1,object_10,5,2778,0,4,1,forest_6,2,memory-2step-stake-s,869,3159767,0.0-19.0-0.1-0.232,A16Y5JEB1EF9CY,371DNNCG57IGA1IMUX7DUPM8OSP8TA,3300DTYQT6XND5YFGY4K6E3U90QQEC,3,4
233,2,object_03,object_02,904.69999999925,4,2,437.5,0.1111111111111111,2,object_08,5,2783,0,8,1,forest_4,2,memory-2step-stake-s,870,3167552,0.0-19.0-0.1-0.233,A16Y5JEB1EF9CY,371DNNCG57IGA1IMUX7DUPM8OSP8TA,3300DTYQT6XND5YFGY4K6E3U90QQEC,3,4
234,2,object_03,object_02,531.89999999851,4,2,724.40000000224,0.3333333333333333,2,object_08,5,2798,0,7,3,forest_2,2,memory-2step-stake-s,871,3175834,0.0-19.0-0.1-0.234,A16Y5JEB1EF9CY,371DNNCG57IGA1IMUX7DUPM8OSP8TA,3300DTYQT6XND5YFGY4K6E3U90QQEC,3,4
235,3,object_04,object_01,797.0,5,1,509.90000000224,0.8888888888888888,1,object_10,1,2806,0,8,3,library_4,2,memory-2step-stake-s,872,3184421,0.0-19.0-0.1-0.235,A16Y5JEB1EF9CY,371DNNCG57IGA1IMUX7DUPM8OSP8TA,3300DTYQT6XND5YFGY4K6E3U90QQEC,5,6
236,3,object_01,object_04,1073.8000000007,5,2,831.30000000075,0.7777777777777778,1,object_10,1,2813,0,7,1,library_2,2,memory-2step-stake-s,873,3193250,0.0-19.0-0.1-0.236,A16Y5JEB1EF9CY,371DNNCG57IGA1IMUX7DUPM8OSP8TA,3300DTYQT6XND5YFGY4K6E3U90QQEC,6,5
237,4,object_07,object_09,515.09999999776,8,2,799.30000000075,0.2222222222222222,2,object_08,1,2815,0,8,2,restaurant_3,2,memory-2step-stake-s,874,3201531,0.0-19.0-0.1-0.237,A16Y5JEB1EF9CY,371DNNCG57IGA1IMUX7DUPM8OSP8TA,3300DTYQT6XND5YFGY4K6E3U90QQEC,7,8
238,2,object_02,object_03,946.60000000149,4,1,635.10000000149,0.0,2,object_08,5,2815,0,9,0,forest_6,2,memory-2step-stake-s,875,3209442,0.0-19.0-0.1-0.238,A16Y5JEB1EF9CY,371DNNCG57IGA1IMUX7DUPM8OSP8TA,3300DTYQT6XND5YFGY4K6E3U90QQEC,4,3
239,1,object_06,object_05,971.0,1,2,-1.0,0.0,1,object_10,5,2815,0,5,1,desert_6,2,memory-2step-stake-s,876,3218033,0.0-19.0-0.1-0.239,A16Y5JEB1EF9CY,371DNNCG57IGA1IMUX7DUPM8OSP8TA,3300DTYQT6XND5YFGY4K6E3U90QQEC,2,1
240,4,object_09,object_07,618.5,7,2,491.90000000224,0.6666666666666666,1,object_10,5,2845,0,6,1,restaurant_3,2,memory-2step-stake-s,877,3226404,0.0-19.0-0.1-0.240,A16Y5JEB1EF9CY,371DNNCG57IGA1IMUX7DUPM8OSP8TA,3300DTYQT6XND5YFGY4K6E3U90QQEC,8,7
241,1,object_05,object_06,771.60000000149,1,1,1103.1999999993,0.6666666666666666,1,object_10,5,2875,0,6,3,desert_5,2,memory-2step-stake-s,878,3235375,0.0-19.0-0.1-0.241,A16Y5JEB1EF9CY,371DNNCG57IGA1IMUX7DUPM8OSP8TA,3300DTYQT6XND5YFGY4K6E3U90QQEC,1,2
242,1,object_06,object_05,727.80000000075,1,2,1020.0999999978,0.6666666666666666,1,object_10,5,2905,0,6,0,desert_6,2,memory-2step-stake-s,879,3244263,0.0-19.0-0.1-0.242,A16Y5JEB1EF9CY,371DNNCG57IGA1IMUX7DUPM8OSP8TA,3300DTYQT6XND5YFGY4K6E3U90QQEC,2,1
243,3,object_01,object_04,640.60000000149,6,1,905.5,0.1111111111111111,2,object_08,1,2906,0,8,1,library_4,2,memory-2step-stake-s,880,3252536,0.0-19.0-0.1-0.243,A16Y5JEB1EF9CY,371DNNCG57IGA1IMUX7DUPM8OSP8TA,3300DTYQT6XND5YFGY4K6E3U90QQEC,6,5
244,1,object_05,object_06,586.79999999702,2,2,-1.0,0.0,2,object_08,5,2906,0,9,1,desert_2,2,memory-2step-stake-s,881,3261103,0.0-19.0-0.1-0.244,A16Y5JEB1EF9CY,371DNNCG57IGA1IMUX7DUPM8OSP8TA,3300DTYQT6XND5YFGY4K6E3U90QQEC,1,2
245,2,object_02,object_03,500.0,4,1,956.5,0.3333333333333333,2,object_08,5,2921,0,8,3,forest_7,2,memory-2step-stake-s,882,3269639,0.0-19.0-0.1-0.245,A16Y5JEB1EF9CY,371DNNCG57IGA1IMUX7DUPM8OSP8TA,3300DTYQT6XND5YFGY4K6E3U90QQEC,4,3
246,4,object_07,object_09,586.59999999776,8,2,963.30000000075,0.1111111111111111,2,object_08,1,2922,0,5,1,restaurant_3,2,memory-2step-stake-s,883,3277955,0.0-19.0-0.1-0.246,A16Y5JEB1EF9CY,371DNNCG57IGA1IMUX7DUPM8OSP8TA,3300DTYQT6XND5YFGY4K6E3U90QQEC,7,8
247,2,object_03,object_02,1477.6000000015,4,2,862.60000000149,0.3333333333333333,2,object_08,5,2937,0,7,3,forest_2,2,memory-2step-stake-s,884,3286410,0.0-19.0-0.1-0.247,A16Y5JEB1EF9CY,371DNNCG57IGA1IMUX7DUPM8OSP8TA,3300DTYQT6XND5YFGY4K6E3U90QQEC,3,4
248,1,object_06,object_05,755.39999999851,1,2,922.5,0.8888888888888888,1,object_10,5,2977,0,8,0,desert_5,2,memory-2step-stake-s,885,3295427,0.0-19.0-0.1-0.248,A16Y5JEB1EF9CY,371DNNCG57IGA1IMUX7DUPM8OSP8TA,3300DTYQT6XND5YFGY4K6E3U90QQEC,2,1
249,4,object_09,object_07,446.0,8,1,546.09999999776,0.1111111111111111,2,object_08,1,2978,0,9,1,restaurant_5,2,memory-2step-stake-s,886,3303348,0.0-19.0-0.1-0.249,A16Y5JEB1EF9CY,371DNNCG57IGA1IMUX7DUPM8OSP8TA,3300DTYQT6XND5YFGY4K6E3U90QQEC,8,7
250,4,object_07,object_09,403.30000000075,7,1,528.80000000075,1.0,1,object_10,1,2987,0,9,1,restaurant_3,2,memory-2step-stake-s,887,3312040,0.0-19.0-0.1-0.250,A16Y5JEB1EF9CY,371DNNCG57IGA1IMUX7DUPM8OSP8TA,3300DTYQT6XND5YFGY4K6E3U90QQEC,7,8
251,2,object_02,object_03,411.80000000075,3,2,449.39999999851,0.7777777777777778,1,object_10,5,3022,0,7,3,forest_7,2,memory-2step-stake-s,888,3320487,0.0-19.0-0.1-0.251,A16Y5JEB1EF9CY,371DNNCG57IGA1IMUX7DUPM8OSP8TA,3300DTYQT6XND5YFGY4K6E3U90QQEC,4,3
252,1,object_06,object_05,785.39999999851,1,2,1126.9000000022,0.8888888888888888,1,object_10,5,3062,0,8,1,desert_5,2,memory-2step-stake-s,889,3329705,0.0-19.0-0.1-0.252,A16Y5JEB1EF9CY,371DNNCG57IGA1IMUX7DUPM8OSP8TA,3300DTYQT6XND5YFGY4K6E3U90QQEC,2,1
253,3,object_04,object_01,872.19999999925,5,1,557.10000000149,0.8888888888888888,1,object_10,1,3070,0,8,0,library_8,2,memory-2step-stake-s,890,3338321,0.0-19.0-0.1-0.253,A16Y5JEB1EF9CY,371DNNCG57IGA1IMUX7DUPM8OSP8TA,3300DTYQT6XND5YFGY4K6E3U90QQEC,5,6
254,1,object_05,object_06,314.10000000149,2,2,707.60000000149,0.1111111111111111,2,object_08,5,3075,0,7,1,desert_7,2,memory-2step-stake-s,891,3346386,0.0-19.0-0.1-0.254,A16Y5JEB1EF9CY,371DNNCG57IGA1IMUX7DUPM8OSP8TA,3300DTYQT6XND5YFGY4K6E3U90QQEC,1,2
255,3,object_04,object_01,872.79999999702,5,1,770.30000000075,0.8888888888888888,1,object_10,1,3083,0,8,3,library_2,2,memory-2step-stake-s,892,3355222,0.0-19.0-0.1-0.255,A16Y5JEB1EF9CY,371DNNCG57IGA1IMUX7DUPM8OSP8TA,3300DTYQT6XND5YFGY4K6E3U90QQEC,5,6
