,state1,stim_left,stim_right,rt_1,choice1,response1,rt_2,points,state2,stim_state2,stake,score,practice,rews1,rews2,background,high_arm,trial_type,trial_index,time_elapsed,internal_node_id,subid,hitid,assignmentid,stim_left_num,stim_right_num
0,3,object_05,object_09,1011.8999999762,6,1,1228.1999999881,0.1111111111111111,2,object_06,1,1,0,5,1,library_2,2,memory-2step-stake-s,502,999408,0.0-19.0-0.0-0.0,A3TT7QV49VCZJ9,3Q9SPIIRXM2ML6FVM0W2D0Z2IA6WAR,3T3IWE1XGA3P2OGC6TTF503VCA9QTY,6,5
1,4,object_01,object_04,770.39999997616,8,2,832.5,0.1111111111111111,2,object_06,1,2,0,6,1,restaurant_5,2,memory-2step-stake-s,503,1007555,0.0-19.0-0.0-0.1,A3TT7QV49VCZJ9,3Q9SPIIRXM2ML6FVM0W2D0Z2IA6WAR,3T3IWE1XGA3P2OGC6TTF503VCA9QTY,7,8
2,4,object_04,object_01,872.69999998808,7,2,837.5,0.5555555555555556,1,object_08,1,7,0,5,4,restaurant_5,2,memory-2step-stake-s,504,1016123,0.0-19.0-0.0-0.2,A3TT7QV49VCZJ9,3Q9SPIIRXM2ML6FVM0W2D0Z2IA6WAR,3T3IWE1XGA3P2OGC6TTF503VCA9QTY,8,7
3,2,object_03,object_02,1016.8999999762,3,1,510.0,0.4444444444444444,1,object_08,5,27,0,4,3,forest_7,2,memory-2step-stake-s,505,1024247,0.0-19.0-0.0-0.3,A3TT7QV49VCZJ9,3Q9SPIIRXM2ML6FVM0W2D0Z2IA6WAR,3T3IWE1XGA3P2OGC6TTF503VCA9QTY,3,4
4,2,object_02,object_03,865.30000001192,4,1,784.19999998808,0.1111111111111111,2,object_06,5,32,0,4,1,forest_7,2,memory-2step-stake-s,506,1032343,0.0-19.0-0.0-0.4,A3TT7QV49VCZJ9,3Q9SPIIRXM2ML6FVM0W2D0Z2IA6WAR,3T3IWE1XGA3P2OGC6TTF503VCA9QTY,4,3
5,3,object_09,object_05,944.89999997616,5,1,782.0,0.2222222222222222,1,object_08,1,34,0,2,1,library_4,2,memory-2step-stake-s,507,1040564,0.0-19.0-0.0-0.5,A3TT7QV49VCZJ9,3Q9SPIIRXM2ML6FVM0W2D0Z2IA6WAR,3T3IWE1XGA3P2OGC6TTF503VCA9QTY,5,6
6,1,object_07,object_10,1057.8999999762,2,1,955.0,0.0,2,object_06,5,34,0,4,0,desert_4,2,memory-2step-stake-s,508,1048731,0.0-19.0-0.0-0.6,A3TT7QV49VCZJ9,3Q9SPIIRXM2ML6FVM0W2D0Z2IA6WAR,3T3IWE1XGA3P2OGC6TTF503VCA9QTY,2,1
7,1,object_07,object_10,1055.1000000238,1,2,805.19999998808,0.4444444444444444,1,object_08,5,54,0,4,2,desert_8,2,memory-2step-stake-s,509,1057168,0.0-19.0-0.0-0.7,A3TT7QV49VCZJ9,3Q9SPIIRXM2ML6FVM0W2D0Z2IA6WAR,3T3IWE1XGA3P2OGC6TTF503VCA9QTY,2,1
8,1,object_10,object_07,1059.8000000119,1,1,857.40000003576,0.4444444444444444,1,object_08,5,74,0,4,4,desert_7,2,memory-2step-stake-s,510,1065641,0.0-19.0-0.0-0.8,A3TT7QV49VCZJ9,3Q9SPIIRXM2ML6FVM0W2D0Z2IA6WAR,3T3IWE1XGA3P2OGC6TTF503VCA9QTY,1,2
9,4,object_04,object_01,1061.0999999642,8,1,801.09999996424,0.3333333333333333,2,object_06,1,77,0,5,3,restaurant_8,2,memory-2step-stake-s,511,1073953,0.0-19.0-0.0-0.9,A3TT7QV49VCZJ9,3Q9SPIIRXM2ML6FVM0W2D0Z2IA6WAR,3T3IWE1XGA3P2OGC6TTF503VCA9QTY,8,7
10,4,object_01,object_04,931.69999998808,8,2,645.19999998808,0.2222222222222222,2,object_06,5,87,0,7,2,restaurant_8,2,memory-2step-stake-s,512,1082012,0.0-19.0-0.0-0.10,A3TT7QV49VCZJ9,3Q9SPIIRXM2ML6FVM0W2D0Z2IA6WAR,3T3IWE1XGA3P2OGC6TTF503VCA9QTY,7,8
11,2,object_02,object_03,1093.5,3,2,714.80000001192,0.5555555555555556,1,object_08,5,112,0,5,2,forest_8,2,memory-2step-stake-s,513,1090470,0.0-19.0-0.0-0.11,A3TT7QV49VCZJ9,3Q9SPIIRXM2ML6FVM0W2D0Z2IA6WAR,3T3IWE1XGA3P2OGC6TTF503VCA9QTY,4,3
12,2,object_03,object_02,1170.3000000119,3,1,717.89999997616,0.2222222222222222,1,object_08,5,122,0,2,4,forest_2,2,memory-2step-stake-s,514,1098601,0.0-19.0-0.0-0.12,A3TT7QV49VCZJ9,3Q9SPIIRXM2ML6FVM0W2D0Z2IA6WAR,3T3IWE1XGA3P2OGC6TTF503VCA9QTY,3,4
13,4,object_01,object_04,1027.6000000238,7,1,755.09999996424,0.1111111111111111,1,object_08,1,123,0,1,0,restaurant_6,2,memory-2step-stake-s,515,1106667,0.0-19.0-0.0-0.13,A3TT7QV49VCZJ9,3Q9SPIIRXM2ML6FVM0W2D0Z2IA6WAR,3T3IWE1XGA3P2OGC6TTF503VCA9QTY,7,8
14,4,object_01,object_04,914.80000001192,7,1,885.29999995232,0.3333333333333333,1,object_08,5,138,0,3,3,restaurant_8,2,memory-2step-stake-s,516,1115065,0.0-19.0-0.0-0.14,A3TT7QV49VCZJ9,3Q9SPIIRXM2ML6FVM0W2D0Z2IA6WAR,3T3IWE1XGA3P2OGC6TTF503VCA9QTY,7,8
15,1,object_07,object_10,1214.4000000358,1,2,784.29999995232,0.4444444444444444,1,object_08,5,158,0,4,2,desert_2,2,memory-2step-stake-s,517,1123475,0.0-19.0-0.0-0.15,A3TT7QV49VCZJ9,3Q9SPIIRXM2ML6FVM0W2D0Z2IA6WAR,3T3IWE1XGA3P2OGC6TTF503VCA9QTY,2,1
16,3,object_05,object_09,1290.1999999881,5,2,833.19999998808,0.5555555555555556,1,object_08,5,183,0,5,2,library_4,2,memory-2step-stake-s,518,1132033,0.0-19.0-0.0-0.16,A3TT7QV49VCZJ9,3Q9SPIIRXM2ML6FVM0W2D0Z2IA6WAR,3T3IWE1XGA3P2OGC6TTF503VCA9QTY,6,5
17,1,object_10,object_07,1059.1999999881,1,1,637.80000001192,0.6666666666666666,1,object_08,5,213,0,6,4,desert_2,2,memory-2step-stake-s,519,1140492,0.0-19.0-0.0-0.17,A3TT7QV49VCZJ9,3Q9SPIIRXM2ML6FVM0W2D0Z2IA6WAR,3T3IWE1XGA3P2OGC6TTF503VCA9QTY,1,2
18,3,object_09,object_05,1184.9000000358,5,1,565.5,0.6666666666666666,1,object_08,1,219,0,6,6,library_8,2,memory-2step-stake-s,520,1148884,0.0-19.0-0.0-0.18,A3TT7QV49VCZJ9,3Q9SPIIRXM2ML6FVM0W2D0Z2IA6WAR,3T3IWE1XGA3P2OGC6TTF503VCA9QTY,5,6
19,3,object_05,object_09,953.69999998808,5,2,358.0,0.4444444444444444,1,object_08,1,223,0,4,8,library_8,2,memory-2step-stake-s,521,1156870,0.0-19.0-0.0-0.19,A3TT7QV49VCZJ9,3Q9SPIIRXM2ML6FVM0W2D0Z2IA6WAR,3T3IWE1XGA3P2OGC6TTF503VCA9QTY,6,5
20,2,object_03,object_02,925.90000003576,3,1,814.5,0.7777777777777778,1,object_08,5,258,0,7,7,forest_8,2,memory-2step-stake-s,522,1165602,0.0-19.0-0.0-0.20,A3TT7QV49VCZJ9,3Q9SPIIRXM2ML6FVM0W2D0Z2IA6WAR,3T3IWE1XGA3P2OGC6TTF503VCA9QTY,3,4
21,1,object_07,object_10,855.69999998808,1,2,470.69999998808,0.8888888888888888,1,object_08,1,266,0,8,3,desert_2,2,memory-2step-stake-s,523,1174092,0.0-19.0-0.0-0.21,A3TT7QV49VCZJ9,3Q9SPIIRXM2ML6FVM0W2D0Z2IA6WAR,3T3IWE1XGA3P2OGC6TTF503VCA9QTY,2,1
22,4,object_04,object_01,1157.6999999881,8,1,915.5,0.2222222222222222,2,object_06,1,268,0,9,2,restaurant_5,2,memory-2step-stake-s,524,1182421,0.0-19.0-0.0-0.22,A3TT7QV49VCZJ9,3Q9SPIIRXM2ML6FVM0W2D0Z2IA6WAR,3T3IWE1XGA3P2OGC6TTF503VCA9QTY,8,7
23,4,object_04,object_01,1443.0999999642,7,2,681.59999996424,0.7777777777777778,1,object_08,1,275,0,7,3,restaurant_4,2,memory-2step-stake-s,525,1191021,0.0-19.0-0.0-0.23,A3TT7QV49VCZJ9,3Q9SPIIRXM2ML6FVM0W2D0Z2IA6WAR,3T3IWE1XGA3P2OGC6TTF503VCA9QTY,8,7
24,2,object_03,object_02,816.69999998808,3,1,419.30000001192,0.8888888888888888,1,object_08,1,283,0,8,4,forest_7,2,memory-2step-stake-s,526,1199463,0.0-19.0-0.0-0.24,A3TT7QV49VCZJ9,3Q9SPIIRXM2ML6FVM0W2D0Z2IA6WAR,3T3IWE1XGA3P2OGC6TTF503VCA9QTY,3,4
25,4,object_01,object_04,850.80000001192,7,1,573.30000001192,0.6666666666666666,1,object_08,1,289,0,6,0,restaurant_4,2,memory-2step-stake-s,527,1207879,0.0-19.0-0.0-0.25,A3TT7QV49VCZJ9,3Q9SPIIRXM2ML6FVM0W2D0Z2IA6WAR,3T3IWE1XGA3P2OGC6TTF503VCA9QTY,7,8
26,1,object_07,object_10,726.80000001192,1,2,499.19999998808,0.4444444444444444,1,object_08,1,293,0,4,4,desert_7,2,memory-2step-stake-s,528,1215993,0.0-19.0-0.0-0.26,A3TT7QV49VCZJ9,3Q9SPIIRXM2ML6FVM0W2D0Z2IA6WAR,3T3IWE1XGA3P2OGC6TTF503VCA9QTY,2,1
27,2,object_03,object_02,811.10000002384,3,1,454.19999998808,0.6666666666666666,1,object_08,5,323,0,6,3,forest_8,2,memory-2step-stake-s,529,1224272,0.0-19.0-0.0-0.27,A3TT7QV49VCZJ9,3Q9SPIIRXM2ML6FVM0W2D0Z2IA6WAR,3T3IWE1XGA3P2OGC6TTF503VCA9QTY,3,4
28,2,object_03,object_02,830.09999996424,3,1,641.80000001192,0.5555555555555556,1,object_08,5,348,0,5,3,forest_3,2,memory-2step-stake-s,530,1232628,0.0-19.0-0.0-0.28,A3TT7QV49VCZJ9,3Q9SPIIRXM2ML6FVM0W2D0Z2IA6WAR,3T3IWE1XGA3P2OGC6TTF503VCA9QTY,3,4
29,4,object_01,object_04,904.70000004768,7,1,1065.0999999642,0.1111111111111111,1,object_08,1,349,0,1,2,restaurant_8,2,memory-2step-stake-s,531,1241005,0.0-19.0-0.0-0.29,A3TT7QV49VCZJ9,3Q9SPIIRXM2ML6FVM0W2D0Z2IA6WAR,3T3IWE1XGA3P2OGC6TTF503VCA9QTY,7,8
30,4,object_01,object_04,1170.0,8,2,663.19999998808,0.1111111111111111,2,object_06,1,350,0,2,1,restaurant_5,2,memory-2step-stake-s,532,1248980,0.0-19.0-0.0-0.30,A3TT7QV49VCZJ9,3Q9SPIIRXM2ML6FVM0W2D0Z2IA6WAR,3T3IWE1XGA3P2OGC6TTF503VCA9QTY,7,8
31,4,object_04,object_01,1453.1999999881,7,2,804.0,0.3333333333333333,1,object_08,1,353,0,3,1,restaurant_4,2,memory-2step-stake-s,533,1257297,0.0-19.0-0.0-0.31,A3TT7QV49VCZJ9,3Q9SPIIRXM2ML6FVM0W2D0Z2IA6WAR,3T3IWE1XGA3P2OGC6TTF503VCA9QTY,8,7
32,3,object_09,object_05,947.90000003576,5,1,392.09999996424,0.2222222222222222,1,object_08,1,355,0,2,1,library_2,2,memory-2step-stake-s,534,1265115,0.0-19.0-0.0-0.32,A3TT7QV49VCZJ9,3Q9SPIIRXM2ML6FVM0W2D0Z2IA6WAR,3T3IWE1XGA3P2OGC6TTF503VCA9QTY,5,6
33,1,object_10,object_07,798.30000001192,1,1,493.59999996424,0.1111111111111111,1,object_08,5,360,0,1,1,desert_7,2,memory-2step-stake-s,535,1272919,0.0-19.0-0.0-0.33,A3TT7QV49VCZJ9,3Q9SPIIRXM2ML6FVM0W2D0Z2IA6WAR,3T3IWE1XGA3P2OGC6TTF503VCA9QTY,1,2
34,3,object_05,object_09,874.69999998808,5,2,512.09999996424,0.1111111111111111,1,object_08,1,361,0,1,3,library_2,2,memory-2step-stake-s,536,1280743,0.0-19.0-0.0-0.34,A3TT7QV49VCZJ9,3Q9SPIIRXM2ML6FVM0W2D0Z2IA6WAR,3T3IWE1XGA3P2OGC6TTF503VCA9QTY,6,5
35,3,object_05,object_09,742.40000003576,6,1,500.80000001192,0.3333333333333333,2,object_06,1,364,0,0,3,library_4,2,memory-2step-stake-s,537,1288757,0.0-19.0-0.0-0.35,A3TT7QV49VCZJ9,3Q9SPIIRXM2ML6FVM0W2D0Z2IA6WAR,3T3IWE1XGA3P2OGC6TTF503VCA9QTY,6,5
36,2,object_03,object_02,908.89999997616,4,2,754.0,0.7777777777777778,2,object_06,5,399,0,0,7,forest_7,2,memory-2step-stake-s,538,1297430,0.0-19.0-0.0-0.36,A3TT7QV49VCZJ9,3Q9SPIIRXM2ML6FVM0W2D0Z2IA6WAR,3T3IWE1XGA3P2OGC6TTF503VCA9QTY,3,4
37,1,object_07,object_10,696.30000001192,2,1,503.79999995232,0.8888888888888888,2,object_06,5,439,0,1,8,desert_4,2,memory-2step-stake-s,539,1305980,0.0-19.0-0.0-0.37,A3TT7QV49VCZJ9,3Q9SPIIRXM2ML6FVM0W2D0Z2IA6WAR,3T3IWE1XGA3P2OGC6TTF503VCA9QTY,2,1
38,2,object_02,object_03,1301.5999999642,4,1,440.09999996424,0.6666666666666666,2,object_06,1,445,0,1,6,forest_2,2,memory-2step-stake-s,540,1314237,0.0-19.0-0.0-0.38,A3TT7QV49VCZJ9,3Q9SPIIRXM2ML6FVM0W2D0Z2IA6WAR,3T3IWE1XGA3P2OGC6TTF503VCA9QTY,4,3
39,4,object_01,object_04,1165.3999999762,8,2,872.09999996424,0.3333333333333333,2,object_06,1,448,0,2,3,restaurant_6,2,memory-2step-stake-s,541,1322621,0.0-19.0-0.0-0.39,A3TT7QV49VCZJ9,3Q9SPIIRXM2ML6FVM0W2D0Z2IA6WAR,3T3IWE1XGA3P2OGC6TTF503VCA9QTY,7,8
40,1,object_10,object_07,1032.8000000119,2,2,520.09999996424,0.3333333333333333,2,object_06,1,451,0,5,3,desert_4,2,memory-2step-stake-s,542,1330655,0.0-19.0-0.0-0.40,A3TT7QV49VCZJ9,3Q9SPIIRXM2ML6FVM0W2D0Z2IA6WAR,3T3IWE1XGA3P2OGC6TTF503VCA9QTY,1,2
41,2,object_03,object_02,937.0,4,2,450.79999995232,0.2222222222222222,2,object_06,5,461,0,7,2,forest_3,2,memory-2step-stake-s,543,1338519,0.0-19.0-0.0-0.41,A3TT7QV49VCZJ9,3Q9SPIIRXM2ML6FVM0W2D0Z2IA6WAR,3T3IWE1XGA3P2OGC6TTF503VCA9QTY,3,4
42,2,object_03,object_02,940.5,3,1,592.10000002384,0.7777777777777778,1,object_08,5,496,0,7,6,forest_7,2,memory-2step-stake-s,544,1347031,0.0-19.0-0.0-0.42,A3TT7QV49VCZJ9,3Q9SPIIRXM2ML6FVM0W2D0Z2IA6WAR,3T3IWE1XGA3P2OGC6TTF503VCA9QTY,3,4
43,2,object_03,object_02,1067.0,3,1,490.30000001192,0.8888888888888888,1,object_08,5,536,0,8,6,forest_7,2,memory-2step-stake-s,545,1355542,0.0-19.0-0.0-0.43,A3TT7QV49VCZJ9,3Q9SPIIRXM2ML6FVM0W2D0Z2IA6WAR,3T3IWE1XGA3P2OGC6TTF503VCA9QTY,3,4
44,3,object_05,object_09,981.0,5,2,520.19999998808,0.8888888888888888,1,object_08,5,576,0,8,5,library_1,2,memory-2step-stake-s,546,1364090,0.0-19.0-0.0-0.44,A3TT7QV49VCZJ9,3Q9SPIIRXM2ML6FVM0W2D0Z2IA6WAR,3T3IWE1XGA3P2OGC6TTF503VCA9QTY,6,5
45,4,object_04,object_01,1499.8999999762,7,2,876.59999996424,0.7777777777777778,1,object_08,1,583,0,7,8,restaurant_5,2,memory-2step-stake-s,547,1372885,0.0-19.0-0.0-0.45,A3TT7QV49VCZJ9,3Q9SPIIRXM2ML6FVM0W2D0Z2IA6WAR,3T3IWE1XGA3P2OGC6TTF503VCA9QTY,8,7
46,3,object_05,object_09,827.69999998808,5,2,755.19999998808,0.7777777777777778,1,object_08,1,590,0,7,4,library_2,2,memory-2step-stake-s,548,1381579,0.0-19.0-0.0-0.46,A3TT7QV49VCZJ9,3Q9SPIIRXM2ML6FVM0W2D0Z2IA6WAR,3T3IWE1XGA3P2OGC6TTF503VCA9QTY,6,5
47,3,object_09,object_05,900.80000001192,5,1,631.19999998808,0.6666666666666666,1,object_08,1,596,0,6,3,library_8,2,memory-2step-stake-s,549,1390029,0.0-19.0-0.0-0.47,A3TT7QV49VCZJ9,3Q9SPIIRXM2ML6FVM0W2D0Z2IA6WAR,3T3IWE1XGA3P2OGC6TTF503VCA9QTY,5,6
48,1,object_07,object_10,822.89999997616,1,2,468.19999998808,0.6666666666666666,1,object_08,5,626,0,6,3,desert_4,2,memory-2step-stake-s,550,1398314,0.0-19.0-0.0-0.48,A3TT7QV49VCZJ9,3Q9SPIIRXM2ML6FVM0W2D0Z2IA6WAR,3T3IWE1XGA3P2OGC6TTF503VCA9QTY,2,1
49,2,object_02,object_03,1012.8000000119,3,2,247.19999998808,0.0,1,object_08,5,626,0,0,1,forest_3,2,memory-2step-stake-s,551,1405771,0.0-19.0-0.0-0.49,A3TT7QV49VCZJ9,3Q9SPIIRXM2ML6FVM0W2D0Z2IA6WAR,3T3IWE1XGA3P2OGC6TTF503VCA9QTY,4,3
50,1,object_07,object_10,1015.0999999642,2,1,418.69999998808,0.3333333333333333,2,object_06,5,641,0,2,3,desert_7,2,memory-2step-stake-s,552,1413703,0.0-19.0-0.0-0.50,A3TT7QV49VCZJ9,3Q9SPIIRXM2ML6FVM0W2D0Z2IA6WAR,3T3IWE1XGA3P2OGC6TTF503VCA9QTY,2,1
51,4,object_04,object_01,1221.8000000119,8,1,489.59999996424,0.3333333333333333,2,object_06,1,644,0,1,3,restaurant_8,2,memory-2step-stake-s,553,1421708,0.0-19.0-0.0-0.51,A3TT7QV49VCZJ9,3Q9SPIIRXM2ML6FVM0W2D0Z2IA6WAR,3T3IWE1XGA3P2OGC6TTF503VCA9QTY,8,7
52,2,object_03,object_02,1360.8999999762,3,1,553.39999997616,0.1111111111111111,1,object_08,5,649,0,1,5,forest_2,2,memory-2step-stake-s,554,1429574,0.0-19.0-0.0-0.52,A3TT7QV49VCZJ9,3Q9SPIIRXM2ML6FVM0W2D0Z2IA6WAR,3T3IWE1XGA3P2OGC6TTF503VCA9QTY,3,4
53,3,object_09,object_05,872.39999997616,6,2,510.29999995232,0.7777777777777778,2,object_06,1,656,0,1,7,library_1,2,memory-2step-stake-s,555,1438018,0.0-19.0-0.0-0.53,A3TT7QV49VCZJ9,3Q9SPIIRXM2ML6FVM0W2D0Z2IA6WAR,3T3IWE1XGA3P2OGC6TTF503VCA9QTY,5,6
54,1,object_10,object_07,1123.3999999762,2,2,361.69999998808,0.7777777777777778,2,object_06,5,691,0,4,7,desert_4,2,memory-2step-stake-s,556,1446299,0.0-19.0-0.0-0.54,A3TT7QV49VCZJ9,3Q9SPIIRXM2ML6FVM0W2D0Z2IA6WAR,3T3IWE1XGA3P2OGC6TTF503VCA9QTY,1,2
55,1,object_10,object_07,907.80000001192,2,2,334.30000001192,0.6666666666666666,2,object_06,5,721,0,3,6,desert_2,2,memory-2step-stake-s,557,1454475,0.0-19.0-0.0-0.55,A3TT7QV49VCZJ9,3Q9SPIIRXM2ML6FVM0W2D0Z2IA6WAR,3T3IWE1XGA3P2OGC6TTF503VCA9QTY,1,2
56,1,object_10,object_07,684.5,2,2,1231.3000000119,0.3333333333333333,2,object_06,5,736,0,5,3,desert_8,2,memory-2step-stake-s,558,1463219,0.0-19.0-0.0-0.56,A3TT7QV49VCZJ9,3Q9SPIIRXM2ML6FVM0W2D0Z2IA6WAR,3T3IWE1XGA3P2OGC6TTF503VCA9QTY,1,2
57,4,object_04,object_01,1050.6999999881,8,1,258.19999998808,0.2222222222222222,2,object_06,1,738,0,7,2,restaurant_5,2,memory-2step-stake-s,559,1470891,0.0-19.0-0.0-0.57,A3TT7QV49VCZJ9,3Q9SPIIRXM2ML6FVM0W2D0Z2IA6WAR,3T3IWE1XGA3P2OGC6TTF503VCA9QTY,8,7
58,1,object_10,object_07,670.69999998808,1,1,377.19999998808,0.6666666666666666,1,object_08,5,768,0,6,1,desert_2,2,memory-2step-stake-s,560,1479086,0.0-19.0-0.0-0.58,A3TT7QV49VCZJ9,3Q9SPIIRXM2ML6FVM0W2D0Z2IA6WAR,3T3IWE1XGA3P2OGC6TTF503VCA9QTY,1,2
59,2,object_03,object_02,939.80000001192,3,1,266.29999995232,0.4444444444444444,1,object_08,1,772,0,4,3,forest_2,2,memory-2step-stake-s,561,1486968,0.0-19.0-0.0-0.59,A3TT7QV49VCZJ9,3Q9SPIIRXM2ML6FVM0W2D0Z2IA6WAR,3T3IWE1XGA3P2OGC6TTF503VCA9QTY,3,4
60,1,object_07,object_10,770.19999998808,1,2,392.09999996424,0.0,1,object_08,5,772,0,0,1,desert_7,2,memory-2step-stake-s,562,1494572,0.0-19.0-0.0-0.60,A3TT7QV49VCZJ9,3Q9SPIIRXM2ML6FVM0W2D0Z2IA6WAR,3T3IWE1XGA3P2OGC6TTF503VCA9QTY,2,1
61,4,object_04,object_01,656.80000001192,7,2,520.09999996424,0.1111111111111111,1,object_08,1,773,0,1,5,restaurant_6,2,memory-2step-stake-s,563,1502404,0.0-19.0-0.0-0.61,A3TT7QV49VCZJ9,3Q9SPIIRXM2ML6FVM0W2D0Z2IA6WAR,3T3IWE1XGA3P2OGC6TTF503VCA9QTY,8,7
62,1,object_07,object_10,696.29999995232,2,1,484.19999998808,0.5555555555555556,2,object_06,5,798,0,1,5,desert_8,2,memory-2step-stake-s,564,1510601,0.0-19.0-0.0-0.62,A3TT7QV49VCZJ9,3Q9SPIIRXM2ML6FVM0W2D0Z2IA6WAR,3T3IWE1XGA3P2OGC6TTF503VCA9QTY,2,1
63,2,object_02,object_03,1395.3000000119,4,1,665.29999995232,0.2222222222222222,2,object_06,1,800,0,0,2,forest_2,2,memory-2step-stake-s,565,1518679,0.0-19.0-0.0-0.63,A3TT7QV49VCZJ9,3Q9SPIIRXM2ML6FVM0W2D0Z2IA6WAR,3T3IWE1XGA3P2OGC6TTF503VCA9QTY,4,3
64,2,object_02,object_03,1219.0,3,2,409.19999998808,0.2222222222222222,1,object_08,1,802,0,2,3,forest_2,2,memory-2step-stake-s,566,1526500,0.0-19.0-0.0-0.64,A3TT7QV49VCZJ9,3Q9SPIIRXM2ML6FVM0W2D0Z2IA6WAR,3T3IWE1XGA3P2OGC6TTF503VCA9QTY,4,3
65,2,object_02,object_03,1024.1000000238,4,1,321.69999998808,0.5555555555555556,2,object_06,1,807,0,2,5,forest_2,2,memory-2step-stake-s,567,1534539,0.0-19.0-0.0-0.65,A3TT7QV49VCZJ9,3Q9SPIIRXM2ML6FVM0W2D0Z2IA6WAR,3T3IWE1XGA3P2OGC6TTF503VCA9QTY,4,3
66,2,object_02,object_03,889.30000001192,4,1,375.79999995232,0.5555555555555556,2,object_06,5,832,0,2,5,forest_7,2,memory-2step-stake-s,568,1542632,0.0-19.0-0.0-0.66,A3TT7QV49VCZJ9,3Q9SPIIRXM2ML6FVM0W2D0Z2IA6WAR,3T3IWE1XGA3P2OGC6TTF503VCA9QTY,4,3
67,4,object_04,object_01,1127.3999999762,8,1,961.09999996424,0.7777777777777778,2,object_06,1,839,0,5,7,restaurant_5,2,memory-2step-stake-s,569,1551510,0.0-19.0-0.0-0.67,A3TT7QV49VCZJ9,3Q9SPIIRXM2ML6FVM0W2D0Z2IA6WAR,3T3IWE1XGA3P2OGC6TTF503VCA9QTY,8,7
68,4,object_01,object_04,1150.5,7,1,398.80000001192,0.4444444444444444,1,object_08,1,843,0,4,9,restaurant_5,2,memory-2step-stake-s,570,1559519,0.0-19.0-0.0-0.68,A3TT7QV49VCZJ9,3Q9SPIIRXM2ML6FVM0W2D0Z2IA6WAR,3T3IWE1XGA3P2OGC6TTF503VCA9QTY,7,8
69,4,object_04,object_01,1037.3000000119,8,1,545.59999996424,1.0,2,object_06,1,852,0,4,9,restaurant_5,2,memory-2step-stake-s,571,1568181,0.0-19.0-0.0-0.69,A3TT7QV49VCZJ9,3Q9SPIIRXM2ML6FVM0W2D0Z2IA6WAR,3T3IWE1XGA3P2OGC6TTF503VCA9QTY,8,7
70,4,object_01,object_04,705.29999995232,8,2,398.89999997616,0.8888888888888888,2,object_06,1,860,0,5,8,restaurant_4,2,memory-2step-stake-s,572,1576600,0.0-19.0-0.0-0.70,A3TT7QV49VCZJ9,3Q9SPIIRXM2ML6FVM0W2D0Z2IA6WAR,3T3IWE1XGA3P2OGC6TTF503VCA9QTY,7,8
71,2,object_02,object_03,1317.8000000119,4,1,530.29999995232,0.8888888888888888,2,object_06,1,868,0,6,8,forest_2,2,memory-2step-stake-s,573,1585150,0.0-19.0-0.0-0.71,A3TT7QV49VCZJ9,3Q9SPIIRXM2ML6FVM0W2D0Z2IA6WAR,3T3IWE1XGA3P2OGC6TTF503VCA9QTY,4,3
72,3,object_09,object_05,967.19999998808,5,1,347.09999996424,0.4444444444444444,1,object_08,1,872,0,4,8,library_4,2,memory-2step-stake-s,574,1593113,0.0-19.0-0.0-0.72,A3TT7QV49VCZJ9,3Q9SPIIRXM2ML6FVM0W2D0Z2IA6WAR,3T3IWE1XGA3P2OGC6TTF503VCA9QTY,5,6
73,1,object_10,object_07,939.89999997616,1,1,379.0,0.6666666666666666,1,object_08,5,902,0,6,5,desert_2,2,memory-2step-stake-s,575,1601309,0.0-19.0-0.0-0.73,A3TT7QV49VCZJ9,3Q9SPIIRXM2ML6FVM0W2D0Z2IA6WAR,3T3IWE1XGA3P2OGC6TTF503VCA9QTY,1,2
74,2,object_03,object_02,1109.6999999881,4,2,508.19999998808,0.6666666666666666,2,object_06,1,908,0,8,6,forest_7,2,memory-2step-stake-s,576,1609670,0.0-19.0-0.0-0.74,A3TT7QV49VCZJ9,3Q9SPIIRXM2ML6FVM0W2D0Z2IA6WAR,3T3IWE1XGA3P2OGC6TTF503VCA9QTY,3,4
75,4,object_01,object_04,1087.8000000119,7,1,445.10000002384,0.7777777777777778,1,object_08,1,915,0,7,9,restaurant_8,2,memory-2step-stake-s,577,1618035,0.0-19.0-0.0-0.75,A3TT7QV49VCZJ9,3Q9SPIIRXM2ML6FVM0W2D0Z2IA6WAR,3T3IWE1XGA3P2OGC6TTF503VCA9QTY,7,8
76,1,object_07,object_10,771.30000001192,1,2,417.0,0.4444444444444444,1,object_08,5,935,0,4,7,desert_7,2,memory-2step-stake-s,578,1626068,0.0-19.0-0.0-0.76,A3TT7QV49VCZJ9,3Q9SPIIRXM2ML6FVM0W2D0Z2IA6WAR,3T3IWE1XGA3P2OGC6TTF503VCA9QTY,2,1
77,2,object_02,object_03,1147.5999999642,3,2,1016.6999999881,0.0,1,object_08,5,935,0,0,6,forest_3,2,memory-2step-stake-s,579,1634297,0.0-19.0-0.0-0.77,A3TT7QV49VCZJ9,3Q9SPIIRXM2ML6FVM0W2D0Z2IA6WAR,3T3IWE1XGA3P2OGC6TTF503VCA9QTY,4,3
78,3,object_05,object_09,915.39999997616,5,2,149.19999998808,0.6666666666666666,1,object_08,1,941,0,6,5,library_2,2,memory-2step-stake-s,580,1642274,0.0-19.0-0.0-0.78,A3TT7QV49VCZJ9,3Q9SPIIRXM2ML6FVM0W2D0Z2IA6WAR,3T3IWE1XGA3P2OGC6TTF503VCA9QTY,6,5
79,2,object_02,object_03,1059.8000000119,3,2,251.29999995232,0.6666666666666666,1,object_08,5,971,0,6,4,forest_7,2,memory-2step-stake-s,581,1650372,0.0-19.0-0.0-0.79,A3TT7QV49VCZJ9,3Q9SPIIRXM2ML6FVM0W2D0Z2IA6WAR,3T3IWE1XGA3P2OGC6TTF503VCA9QTY,4,3
80,4,object_04,object_01,1223.6999999881,8,1,522.79999995232,0.4444444444444444,2,object_06,1,975,0,3,4,restaurant_4,2,memory-2step-stake-s,582,1658526,0.0-19.0-0.0-0.80,A3TT7QV49VCZJ9,3Q9SPIIRXM2ML6FVM0W2D0Z2IA6WAR,3T3IWE1XGA3P2OGC6TTF503VCA9QTY,8,7
81,1,object_10,object_07,854.79999995232,1,1,595.5,0.4444444444444444,1,object_08,5,995,0,4,2,desert_8,2,memory-2step-stake-s,583,1666739,0.0-19.0-0.0-0.81,A3TT7QV49VCZJ9,3Q9SPIIRXM2ML6FVM0W2D0Z2IA6WAR,3T3IWE1XGA3P2OGC6TTF503VCA9QTY,1,2
82,4,object_01,object_04,1036.3000000119,8,2,688.0,0.0,2,object_06,1,995,0,3,0,restaurant_4,2,memory-2step-stake-s,584,1674637,0.0-19.0-0.0-0.82,A3TT7QV49VCZJ9,3Q9SPIIRXM2ML6FVM0W2D0Z2IA6WAR,3T3IWE1XGA3P2OGC6TTF503VCA9QTY,7,8
83,3,object_09,object_05,805.69999998808,5,1,476.59999996424,0.2222222222222222,1,object_08,1,997,0,2,5,library_8,2,memory-2step-stake-s,585,1682531,0.0-19.0-0.0-0.83,A3TT7QV49VCZJ9,3Q9SPIIRXM2ML6FVM0W2D0Z2IA6WAR,3T3IWE1XGA3P2OGC6TTF503VCA9QTY,5,6
84,2,object_02,object_03,1355.8999999762,3,2,487.0,0.2222222222222222,1,object_08,5,1007,0,2,2,forest_3,2,memory-2step-stake-s,586,1690433,0.0-19.0-0.0-0.84,A3TT7QV49VCZJ9,3Q9SPIIRXM2ML6FVM0W2D0Z2IA6WAR,3T3IWE1XGA3P2OGC6TTF503VCA9QTY,4,3
85,2,object_03,object_02,1054.6999999881,4,2,449.29999995232,0.4444444444444444,2,object_06,5,1027,0,8,4,forest_2,2,memory-2step-stake-s,587,1698499,0.0-19.0-0.0-0.85,A3TT7QV49VCZJ9,3Q9SPIIRXM2ML6FVM0W2D0Z2IA6WAR,3T3IWE1XGA3P2OGC6TTF503VCA9QTY,3,4
86,4,object_01,object_04,1474.3999999762,8,2,836.19999998808,0.5555555555555556,2,object_06,5,1052,0,7,5,restaurant_4,2,memory-2step-stake-s,588,1707070,0.0-19.0-0.0-0.86,A3TT7QV49VCZJ9,3Q9SPIIRXM2ML6FVM0W2D0Z2IA6WAR,3T3IWE1XGA3P2OGC6TTF503VCA9QTY,7,8
87,3,object_05,object_09,839.69999998808,6,1,653.09999996424,0.7777777777777778,2,object_06,1,1059,0,9,7,library_2,2,memory-2step-stake-s,589,1715642,0.0-19.0-0.0-0.87,A3TT7QV49VCZJ9,3Q9SPIIRXM2ML6FVM0W2D0Z2IA6WAR,3T3IWE1XGA3P2OGC6TTF503VCA9QTY,6,5
88,3,object_09,object_05,951.10000002384,6,2,915.09999996424,0.7777777777777778,2,object_06,1,1066,0,7,7,library_1,2,memory-2step-stake-s,590,1724484,0.0-19.0-0.0-0.88,A3TT7QV49VCZJ9,3Q9SPIIRXM2ML6FVM0W2D0Z2IA6WAR,3T3IWE1XGA3P2OGC6TTF503VCA9QTY,5,6
89,2,object_02,object_03,1243.1999999881,4,1,136.5,0.6666666666666666,2,object_06,5,1096,0,5,6,forest_2,2,memory-2step-stake-s,591,1732436,0.0-19.0-0.0-0.89,A3TT7QV49VCZJ9,3Q9SPIIRXM2ML6FVM0W2D0Z2IA6WAR,3T3IWE1XGA3P2OGC6TTF503VCA9QTY,4,3
90,4,object_04,object_01,901.10000002384,7,2,607.89999997616,0.5555555555555556,1,object_08,1,1101,0,5,8,restaurant_5,2,memory-2step-stake-s,592,1740774,0.0-19.0-0.0-0.90,A3TT7QV49VCZJ9,3Q9SPIIRXM2ML6FVM0W2D0Z2IA6WAR,3T3IWE1XGA3P2OGC6TTF503VCA9QTY,8,7
91,2,object_03,object_02,931.79999995232,3,1,288.0,0.4444444444444444,1,object_08,5,1121,0,4,5,forest_8,2,memory-2step-stake-s,593,1748675,0.0-19.0-0.0-0.91,A3TT7QV49VCZJ9,3Q9SPIIRXM2ML6FVM0W2D0Z2IA6WAR,3T3IWE1XGA3P2OGC6TTF503VCA9QTY,3,4
92,3,object_05,object_09,983.10000002384,6,1,327.60000002384,0.6666666666666666,2,object_06,1,1127,0,5,6,library_4,2,memory-2step-stake-s,594,1756827,0.0-19.0-0.0-0.92,A3TT7QV49VCZJ9,3Q9SPIIRXM2ML6FVM0W2D0Z2IA6WAR,3T3IWE1XGA3P2OGC6TTF503VCA9QTY,6,5
93,2,object_02,object_03,1178.0,4,1,373.19999998808,0.5555555555555556,2,object_06,1,1132,0,4,5,forest_7,2,memory-2step-stake-s,595,1764914,0.0-19.0-0.0-0.93,A3TT7QV49VCZJ9,3Q9SPIIRXM2ML6FVM0W2D0Z2IA6WAR,3T3IWE1XGA3P2OGC6TTF503VCA9QTY,4,3
94,3,object_09,object_05,1122.8000000119,6,2,326.09999996424,0.6666666666666666,2,object_06,5,1162,0,1,6,library_8,2,memory-2step-stake-s,596,1773074,0.0-19.0-0.0-0.94,A3TT7QV49VCZJ9,3Q9SPIIRXM2ML6FVM0W2D0Z2IA6WAR,3T3IWE1XGA3P2OGC6TTF503VCA9QTY,5,6
95,2,object_03,object_02,-1.0,-1,-1,-1.0,0.0,-,0,5,1162,0,2,7,forest_7,2,memory-2step-stake-s,597,1779582,0.0-19.0-0.0-0.95,A3TT7QV49VCZJ9,3Q9SPIIRXM2ML6FVM0W2D0Z2IA6WAR,3T3IWE1XGA3P2OGC6TTF503VCA9QTY,3,4
96,2,object_02,object_03,737.80000001192,3,2,495.30000001192,0.1111111111111111,1,object_08,5,1167,0,1,9,forest_7,2,memory-2step-stake-s,598,1787390,0.0-19.0-0.0-0.96,A3TT7QV49VCZJ9,3Q9SPIIRXM2ML6FVM0W2D0Z2IA6WAR,3T3IWE1XGA3P2OGC6TTF503VCA9QTY,4,3
97,1,object_10,object_07,982.39999997616,1,1,388.60000002384,0.1111111111111111,1,object_08,5,1172,0,1,8,desert_8,2,memory-2step-stake-s,599,1795090,0.0-19.0-0.0-0.97,A3TT7QV49VCZJ9,3Q9SPIIRXM2ML6FVM0W2D0Z2IA6WAR,3T3IWE1XGA3P2OGC6TTF503VCA9QTY,1,2
98,4,object_04,object_01,961.19999998808,8,1,784.19999998808,0.5555555555555556,2,object_06,1,1177,0,0,5,restaurant_4,2,memory-2step-stake-s,600,1803590,0.0-19.0-0.0-0.98,A3TT7QV49VCZJ9,3Q9SPIIRXM2ML6FVM0W2D0Z2IA6WAR,3T3IWE1XGA3P2OGC6TTF503VCA9QTY,8,7
99,3,object_05,object_09,765.0,6,1,731.19999998808,0.5555555555555556,2,object_06,1,1182,0,0,5,library_8,2,memory-2step-stake-s,601,1812036,0.0-19.0-0.0-0.99,A3TT7QV49VCZJ9,3Q9SPIIRXM2ML6FVM0W2D0Z2IA6WAR,3T3IWE1XGA3P2OGC6TTF503VCA9QTY,6,5
100,2,object_02,object_03,853.89999997616,4,1,436.39999997616,0.4444444444444444,2,object_06,5,1202,0,3,4,forest_8,2,memory-2step-stake-s,602,1820086,0.0-19.0-0.0-0.100,A3TT7QV49VCZJ9,3Q9SPIIRXM2ML6FVM0W2D0Z2IA6WAR,3T3IWE1XGA3P2OGC6TTF503VCA9QTY,4,3
101,2,object_02,object_03,1332.3000000119,3,2,529.0,0.4444444444444444,1,object_08,5,1222,0,4,6,forest_8,2,memory-2step-stake-s,603,1828229,0.0-19.0-0.0-0.101,A3TT7QV49VCZJ9,3Q9SPIIRXM2ML6FVM0W2D0Z2IA6WAR,3T3IWE1XGA3P2OGC6TTF503VCA9QTY,4,3
102,1,object_10,object_07,918.0,1,1,416.0,0.4444444444444444,1,object_08,5,1242,0,4,8,desert_8,2,memory-2step-stake-s,604,1836276,0.0-19.0-0.0-0.102,A3TT7QV49VCZJ9,3Q9SPIIRXM2ML6FVM0W2D0Z2IA6WAR,3T3IWE1XGA3P2OGC6TTF503VCA9QTY,1,2
103,3,object_05,object_09,907.39999997616,5,2,381.19999998808,0.6666666666666666,1,object_08,1,1248,0,6,9,library_8,2,memory-2step-stake-s,605,1844485,0.0-19.0-0.0-0.103,A3TT7QV49VCZJ9,3Q9SPIIRXM2ML6FVM0W2D0Z2IA6WAR,3T3IWE1XGA3P2OGC6TTF503VCA9QTY,6,5
104,1,object_07,object_10,686.19999998808,1,2,547.40000003576,0.5555555555555556,1,object_08,5,1273,0,5,7,desert_2,2,memory-2step-stake-s,606,1852747,0.0-19.0-0.0-0.104,A3TT7QV49VCZJ9,3Q9SPIIRXM2ML6FVM0W2D0Z2IA6WAR,3T3IWE1XGA3P2OGC6TTF503VCA9QTY,2,1
105,1,object_10,object_07,720.89999997616,1,1,459.09999996424,0.3333333333333333,1,object_08,5,1288,0,3,9,desert_4,2,memory-2step-stake-s,607,1860719,0.0-19.0-0.0-0.105,A3TT7QV49VCZJ9,3Q9SPIIRXM2ML6FVM0W2D0Z2IA6WAR,3T3IWE1XGA3P2OGC6TTF503VCA9QTY,1,2
106,2,object_02,object_03,1127.6999999881,4,1,463.69999998808,1.0,2,object_06,5,1333,0,2,9,forest_3,2,memory-2step-stake-s,608,1869301,0.0-19.0-0.0-0.106,A3TT7QV49VCZJ9,3Q9SPIIRXM2ML6FVM0W2D0Z2IA6WAR,3T3IWE1XGA3P2OGC6TTF503VCA9QTY,4,3
107,1,object_07,object_10,690.90000003576,2,1,482.0,1.0,2,object_06,5,1378,0,3,9,desert_7,2,memory-2step-stake-s,609,1877902,0.0-19.0-0.0-0.107,A3TT7QV49VCZJ9,3Q9SPIIRXM2ML6FVM0W2D0Z2IA6WAR,3T3IWE1XGA3P2OGC6TTF503VCA9QTY,2,1
108,4,object_04,object_01,1132.3999999762,8,1,431.19999998808,1.0,2,object_06,1,1387,0,3,9,restaurant_6,2,memory-2step-stake-s,610,1886476,0.0-19.0-0.0-0.108,A3TT7QV49VCZJ9,3Q9SPIIRXM2ML6FVM0W2D0Z2IA6WAR,3T3IWE1XGA3P2OGC6TTF503VCA9QTY,8,7
109,4,object_04,object_01,1023.1999999881,8,1,388.09999996424,1.0,2,object_06,5,1432,0,6,9,restaurant_4,2,memory-2step-stake-s,611,1894981,0.0-19.0-0.0-0.109,A3TT7QV49VCZJ9,3Q9SPIIRXM2ML6FVM0W2D0Z2IA6WAR,3T3IWE1XGA3P2OGC6TTF503VCA9QTY,8,7
110,1,object_10,object_07,984.39999997616,2,2,507.09999996424,0.7777777777777778,2,object_06,5,1467,0,4,7,desert_7,2,memory-2step-stake-s,612,1903407,0.0-19.0-0.0-0.110,A3TT7QV49VCZJ9,3Q9SPIIRXM2ML6FVM0W2D0Z2IA6WAR,3T3IWE1XGA3P2OGC6TTF503VCA9QTY,1,2
111,4,object_01,object_04,1096.6999999881,8,2,400.69999998808,0.7777777777777778,2,object_06,1,1474,0,4,7,restaurant_8,2,memory-2step-stake-s,613,1911725,0.0-19.0-0.0-0.111,A3TT7QV49VCZJ9,3Q9SPIIRXM2ML6FVM0W2D0Z2IA6WAR,3T3IWE1XGA3P2OGC6TTF503VCA9QTY,7,8
112,1,object_10,object_07,910.39999997616,2,2,457.0,0.8888888888888888,2,object_06,5,1514,0,4,8,desert_7,2,memory-2step-stake-s,614,1920201,0.0-19.0-0.0-0.112,A3TT7QV49VCZJ9,3Q9SPIIRXM2ML6FVM0W2D0Z2IA6WAR,3T3IWE1XGA3P2OGC6TTF503VCA9QTY,1,2
113,2,object_02,object_03,1170.6000000238,4,1,502.89999997616,0.7777777777777778,2,object_06,5,1549,0,3,7,forest_3,2,memory-2step-stake-s,615,1928622,0.0-19.0-0.0-0.113,A3TT7QV49VCZJ9,3Q9SPIIRXM2ML6FVM0W2D0Z2IA6WAR,3T3IWE1XGA3P2OGC6TTF503VCA9QTY,4,3
114,2,object_02,object_03,618.30000001192,4,1,268.69999998808,0.3333333333333333,2,object_06,5,1564,0,3,3,forest_8,2,memory-2step-stake-s,616,1936406,0.0-19.0-0.0-0.114,A3TT7QV49VCZJ9,3Q9SPIIRXM2ML6FVM0W2D0Z2IA6WAR,3T3IWE1XGA3P2OGC6TTF503VCA9QTY,4,3
115,3,object_05,object_09,1328.5999999642,5,2,483.19999998808,0.2222222222222222,1,object_08,1,1566,0,2,3,library_1,2,memory-2step-stake-s,617,1944303,0.0-19.0-0.0-0.115,A3TT7QV49VCZJ9,3Q9SPIIRXM2ML6FVM0W2D0Z2IA6WAR,3T3IWE1XGA3P2OGC6TTF503VCA9QTY,6,5
116,1,object_10,object_07,637.19999998808,1,1,216.60000002384,0.2222222222222222,1,object_08,5,1576,0,2,4,desert_7,2,memory-2step-stake-s,618,1951932,0.0-19.0-0.0-0.116,A3TT7QV49VCZJ9,3Q9SPIIRXM2ML6FVM0W2D0Z2IA6WAR,3T3IWE1XGA3P2OGC6TTF503VCA9QTY,1,2
117,2,object_03,object_02,912.39999997616,3,1,332.19999998808,0.1111111111111111,1,object_08,1,1577,0,1,3,forest_3,2,memory-2step-stake-s,619,1959576,0.0-19.0-0.0-0.117,A3TT7QV49VCZJ9,3Q9SPIIRXM2ML6FVM0W2D0Z2IA6WAR,3T3IWE1XGA3P2OGC6TTF503VCA9QTY,3,4
118,4,object_04,object_01,1111.0,8,1,433.19999998808,0.5555555555555556,2,object_06,1,1582,0,5,5,restaurant_5,2,memory-2step-stake-s,620,1967741,0.0-19.0-0.0-0.118,A3TT7QV49VCZJ9,3Q9SPIIRXM2ML6FVM0W2D0Z2IA6WAR,3T3IWE1XGA3P2OGC6TTF503VCA9QTY,8,7
119,4,object_01,object_04,1291.8999999762,8,2,708.10000002384,0.5555555555555556,2,object_06,1,1587,0,6,5,restaurant_6,2,memory-2step-stake-s,621,1976173,0.0-19.0-0.0-0.119,A3TT7QV49VCZJ9,3Q9SPIIRXM2ML6FVM0W2D0Z2IA6WAR,3T3IWE1XGA3P2OGC6TTF503VCA9QTY,7,8
120,2,object_03,object_02,793.69999998808,3,1,568.09999996424,0.0,1,object_08,5,1587,0,0,6,forest_2,2,memory-2step-stake-s,622,1983951,0.0-19.0-0.0-0.120,A3TT7QV49VCZJ9,3Q9SPIIRXM2ML6FVM0W2D0Z2IA6WAR,3T3IWE1XGA3P2OGC6TTF503VCA9QTY,3,4
121,1,object_07,object_10,1072.1000000238,1,2,419.09999996424,0.2222222222222222,1,object_08,5,1597,0,2,6,desert_7,2,memory-2step-stake-s,623,1991782,0.0-19.0-0.0-0.121,A3TT7QV49VCZJ9,3Q9SPIIRXM2ML6FVM0W2D0Z2IA6WAR,3T3IWE1XGA3P2OGC6TTF503VCA9QTY,2,1
122,3,object_09,object_05,983.39999997616,6,2,263.09999996424,0.6666666666666666,2,object_06,5,1627,0,8,6,library_1,2,memory-2step-stake-s,624,1999881,0.0-19.0-0.0-0.122,A3TT7QV49VCZJ9,3Q9SPIIRXM2ML6FVM0W2D0Z2IA6WAR,3T3IWE1XGA3P2OGC6TTF503VCA9QTY,5,6
123,1,object_07,object_10,676.5,2,1,249.60000002384,0.8888888888888888,2,object_06,5,1667,0,7,8,desert_4,2,memory-2step-stake-s,625,2008177,0.0-19.0-0.0-0.123,A3TT7QV49VCZJ9,3Q9SPIIRXM2ML6FVM0W2D0Z2IA6WAR,3T3IWE1XGA3P2OGC6TTF503VCA9QTY,2,1
124,4,object_04,object_01,1089.8000000119,8,1,270.10000002384,0.6666666666666666,2,object_06,1,1673,0,8,6,restaurant_8,2,memory-2step-stake-s,626,2016275,0.0-19.0-0.0-0.124,A3TT7QV49VCZJ9,3Q9SPIIRXM2ML6FVM0W2D0Z2IA6WAR,3T3IWE1XGA3P2OGC6TTF503VCA9QTY,8,7
125,4,object_01,object_04,1227.0,8,2,393.19999998808,1.0,2,object_06,5,1718,0,7,9,restaurant_8,2,memory-2step-stake-s,627,2024792,0.0-19.0-0.0-0.125,A3TT7QV49VCZJ9,3Q9SPIIRXM2ML6FVM0W2D0Z2IA6WAR,3T3IWE1XGA3P2OGC6TTF503VCA9QTY,7,8
126,3,object_09,object_05,1020.3000000119,6,2,277.5,0.8888888888888888,2,object_06,1,1726,0,1,8,library_8,2,memory-2step-stake-s,628,2033090,0.0-19.0-0.0-0.126,A3TT7QV49VCZJ9,3Q9SPIIRXM2ML6FVM0W2D0Z2IA6WAR,3T3IWE1XGA3P2OGC6TTF503VCA9QTY,5,6
127,4,object_04,object_01,1168.2999999523,8,1,327.69999998808,0.7777777777777778,2,object_06,5,1761,0,4,7,restaurant_6,2,memory-2step-stake-s,629,2041339,0.0-19.0-0.0-0.127,A3TT7QV49VCZJ9,3Q9SPIIRXM2ML6FVM0W2D0Z2IA6WAR,3T3IWE1XGA3P2OGC6TTF503VCA9QTY,8,7
128,4,object_01,object_04,1080.0999999642,8,2,411.90000003576,0.3333333333333333,2,object_06,1,1764,0,5,3,restaurant_5,2,memory-2step-stake-s,631,2052070,0.0-19.0-0.1-0.128,A3TT7QV49VCZJ9,3Q9SPIIRXM2ML6FVM0W2D0Z2IA6WAR,3T3IWE1XGA3P2OGC6TTF503VCA9QTY,7,8
129,2,object_03,object_02,923.69999998808,4,2,502.19999998808,0.2222222222222222,2,object_06,5,1774,0,5,2,forest_2,2,memory-2step-stake-s,632,2059987,0.0-19.0-0.1-0.129,A3TT7QV49VCZJ9,3Q9SPIIRXM2ML6FVM0W2D0Z2IA6WAR,3T3IWE1XGA3P2OGC6TTF503VCA9QTY,3,4
130,4,object_01,object_04,992.90000003576,7,1,355.19999998808,0.6666666666666666,1,object_08,1,1780,0,6,2,restaurant_4,2,memory-2step-stake-s,633,2068171,0.0-19.0-0.1-0.130,A3TT7QV49VCZJ9,3Q9SPIIRXM2ML6FVM0W2D0Z2IA6WAR,3T3IWE1XGA3P2OGC6TTF503VCA9QTY,7,8
131,3,object_09,object_05,784.30000001192,5,1,453.10000002384,0.7777777777777778,1,object_08,1,1787,0,7,0,library_4,2,memory-2step-stake-s,634,2076544,0.0-19.0-0.1-0.131,A3TT7QV49VCZJ9,3Q9SPIIRXM2ML6FVM0W2D0Z2IA6WAR,3T3IWE1XGA3P2OGC6TTF503VCA9QTY,5,6
132,1,object_10,object_07,707.0,1,1,252.19999998808,0.7777777777777778,1,object_08,5,1822,0,7,4,desert_7,2,memory-2step-stake-s,635,2084715,0.0-19.0-0.1-0.132,A3TT7QV49VCZJ9,3Q9SPIIRXM2ML6FVM0W2D0Z2IA6WAR,3T3IWE1XGA3P2OGC6TTF503VCA9QTY,1,2
133,3,object_09,object_05,1068.8999999762,5,1,351.29999995232,0.1111111111111111,1,object_08,1,1823,0,1,7,library_1,2,memory-2step-stake-s,636,2092381,0.0-19.0-0.1-0.133,A3TT7QV49VCZJ9,3Q9SPIIRXM2ML6FVM0W2D0Z2IA6WAR,3T3IWE1XGA3P2OGC6TTF503VCA9QTY,5,6
134,2,object_03,object_02,745.79999995232,4,2,326.5,0.7777777777777778,2,object_06,1,1830,0,4,7,forest_3,2,memory-2step-stake-s,637,2100627,0.0-19.0-0.1-0.134,A3TT7QV49VCZJ9,3Q9SPIIRXM2ML6FVM0W2D0Z2IA6WAR,3T3IWE1XGA3P2OGC6TTF503VCA9QTY,3,4
135,3,object_09,object_05,-1.0,-1,-1,-1.0,0.0,-,0,1,1830,0,6,8,library_1,2,memory-2step-stake-s,638,2107135,0.0-19.0-0.1-0.135,A3TT7QV49VCZJ9,3Q9SPIIRXM2ML6FVM0W2D0Z2IA6WAR,3T3IWE1XGA3P2OGC6TTF503VCA9QTY,5,6
136,4,object_04,object_01,1161.4000000358,7,2,285.19999998808,0.6666666666666666,1,object_08,1,1836,0,6,8,restaurant_4,2,memory-2step-stake-s,639,2115239,0.0-19.0-0.1-0.136,A3TT7QV49VCZJ9,3Q9SPIIRXM2ML6FVM0W2D0Z2IA6WAR,3T3IWE1XGA3P2OGC6TTF503VCA9QTY,8,7
137,4,object_04,object_01,1176.8000000119,8,1,420.79999995232,0.4444444444444444,2,object_06,5,1856,0,5,4,restaurant_6,2,memory-2step-stake-s,640,2123289,0.0-19.0-0.1-0.137,A3TT7QV49VCZJ9,3Q9SPIIRXM2ML6FVM0W2D0Z2IA6WAR,3T3IWE1XGA3P2OGC6TTF503VCA9QTY,8,7
138,1,object_10,object_07,904.40000003576,1,1,407.80000001192,0.5555555555555556,1,object_08,5,1881,0,5,1,desert_8,2,memory-2step-stake-s,641,2131411,0.0-19.0-0.1-0.138,A3TT7QV49VCZJ9,3Q9SPIIRXM2ML6FVM0W2D0Z2IA6WAR,3T3IWE1XGA3P2OGC6TTF503VCA9QTY,1,2
139,3,object_05,object_09,852.5,6,1,254.89999997616,0.2222222222222222,2,object_06,1,1883,0,4,2,library_1,2,memory-2step-stake-s,642,2139080,0.0-19.0-0.1-0.139,A3TT7QV49VCZJ9,3Q9SPIIRXM2ML6FVM0W2D0Z2IA6WAR,3T3IWE1XGA3P2OGC6TTF503VCA9QTY,6,5
140,1,object_07,object_10,772.80000001192,1,2,626.19999998808,0.3333333333333333,1,object_08,5,1898,0,3,2,desert_8,2,memory-2step-stake-s,643,2147219,0.0-19.0-0.1-0.140,A3TT7QV49VCZJ9,3Q9SPIIRXM2ML6FVM0W2D0Z2IA6WAR,3T3IWE1XGA3P2OGC6TTF503VCA9QTY,2,1
141,2,object_03,object_02,951.29999995232,4,2,612.0,0.2222222222222222,2,object_06,5,1908,0,4,2,forest_8,2,memory-2step-stake-s,644,2155246,0.0-19.0-0.1-0.141,A3TT7QV49VCZJ9,3Q9SPIIRXM2ML6FVM0W2D0Z2IA6WAR,3T3IWE1XGA3P2OGC6TTF503VCA9QTY,3,4
142,4,object_01,object_04,989.90000003576,8,2,595.39999997616,0.0,2,object_06,1,1908,0,6,0,restaurant_8,2,memory-2step-stake-s,645,2163053,0.0-19.0-0.1-0.142,A3TT7QV49VCZJ9,3Q9SPIIRXM2ML6FVM0W2D0Z2IA6WAR,3T3IWE1XGA3P2OGC6TTF503VCA9QTY,7,8
143,4,object_04,object_01,1130.8000000119,7,2,596.60000002384,0.3333333333333333,1,object_08,1,1911,0,3,3,restaurant_6,2,memory-2step-stake-s,646,2171173,0.0-19.0-0.1-0.143,A3TT7QV49VCZJ9,3Q9SPIIRXM2ML6FVM0W2D0Z2IA6WAR,3T3IWE1XGA3P2OGC6TTF503VCA9QTY,8,7
144,3,object_09,object_05,472.89999997616,5,1,438.09999996424,0.1111111111111111,1,object_08,1,1912,0,1,4,library_1,2,memory-2step-stake-s,647,2178924,0.0-19.0-0.1-0.144,A3TT7QV49VCZJ9,3Q9SPIIRXM2ML6FVM0W2D0Z2IA6WAR,3T3IWE1XGA3P2OGC6TTF503VCA9QTY,5,6
145,4,object_04,object_01,1169.1000000238,8,1,485.19999998808,0.5555555555555556,2,object_06,1,1917,0,0,5,restaurant_6,2,memory-2step-stake-s,648,2187122,0.0-19.0-0.1-0.145,A3TT7QV49VCZJ9,3Q9SPIIRXM2ML6FVM0W2D0Z2IA6WAR,3T3IWE1XGA3P2OGC6TTF503VCA9QTY,8,7
146,2,object_03,object_02,768.40000003576,4,2,358.59999996424,0.7777777777777778,2,object_06,5,1952,0,0,7,forest_3,2,memory-2step-stake-s,649,2195398,0.0-19.0-0.1-0.146,A3TT7QV49VCZJ9,3Q9SPIIRXM2ML6FVM0W2D0Z2IA6WAR,3T3IWE1XGA3P2OGC6TTF503VCA9QTY,3,4
147,1,object_10,object_07,961.89999997616,2,2,531.39999997616,0.3333333333333333,2,object_06,5,1967,0,2,3,desert_8,2,memory-2step-stake-s,650,2203452,0.0-19.0-0.1-0.147,A3TT7QV49VCZJ9,3Q9SPIIRXM2ML6FVM0W2D0Z2IA6WAR,3T3IWE1XGA3P2OGC6TTF503VCA9QTY,1,2
148,3,object_09,object_05,722.90000003576,5,1,661.29999995232,0.4444444444444444,1,object_08,1,1971,0,4,2,library_2,2,memory-2step-stake-s,651,2211728,0.0-19.0-0.1-0.148,A3TT7QV49VCZJ9,3Q9SPIIRXM2ML6FVM0W2D0Z2IA6WAR,3T3IWE1XGA3P2OGC6TTF503VCA9QTY,5,6
149,3,object_05,object_09,821.0,5,2,323.29999995232,0.1111111111111111,1,object_08,1,1972,0,1,4,library_2,2,memory-2step-stake-s,652,2219378,0.0-19.0-0.1-0.149,A3TT7QV49VCZJ9,3Q9SPIIRXM2ML6FVM0W2D0Z2IA6WAR,3T3IWE1XGA3P2OGC6TTF503VCA9QTY,6,5
150,3,object_09,object_05,768.90000003576,6,2,542.79999995232,0.6666666666666666,2,object_06,1,1978,0,2,6,library_8,2,memory-2step-stake-s,653,2227737,0.0-19.0-0.1-0.150,A3TT7QV49VCZJ9,3Q9SPIIRXM2ML6FVM0W2D0Z2IA6WAR,3T3IWE1XGA3P2OGC6TTF503VCA9QTY,5,6
151,3,object_05,object_09,681.39999997616,5,2,343.09999996424,0.4444444444444444,1,object_08,5,1998,0,4,7,library_4,2,memory-2step-stake-s,654,2235707,0.0-19.0-0.1-0.151,A3TT7QV49VCZJ9,3Q9SPIIRXM2ML6FVM0W2D0Z2IA6WAR,3T3IWE1XGA3P2OGC6TTF503VCA9QTY,6,5
152,1,object_07,object_10,-1.0,-1,-1,-1.0,0.0,-,0,5,1998,0,4,6,desert_7,2,memory-2step-stake-s,655,2242230,0.0-19.0-0.1-0.152,A3TT7QV49VCZJ9,3Q9SPIIRXM2ML6FVM0W2D0Z2IA6WAR,3T3IWE1XGA3P2OGC6TTF503VCA9QTY,2,1
153,4,object_01,object_04,833.5,7,1,1275.8000000119,0.6666666666666666,1,object_08,1,2004,0,6,8,restaurant_4,2,memory-2step-stake-s,656,2251335,0.0-19.0-0.1-0.153,A3TT7QV49VCZJ9,3Q9SPIIRXM2ML6FVM0W2D0Z2IA6WAR,3T3IWE1XGA3P2OGC6TTF503VCA9QTY,7,8
154,4,object_01,object_04,482.5,8,2,371.59999996424,1.0,2,object_06,1,2013,0,4,9,restaurant_5,2,memory-2step-stake-s,657,2259827,0.0-19.0-0.1-0.154,A3TT7QV49VCZJ9,3Q9SPIIRXM2ML6FVM0W2D0Z2IA6WAR,3T3IWE1XGA3P2OGC6TTF503VCA9QTY,7,8
155,3,object_05,object_09,610.39999997616,5,2,331.39999997616,0.7777777777777778,1,object_08,1,2020,0,7,6,library_4,2,memory-2step-stake-s,658,2268076,0.0-19.0-0.1-0.155,A3TT7QV49VCZJ9,3Q9SPIIRXM2ML6FVM0W2D0Z2IA6WAR,3T3IWE1XGA3P2OGC6TTF503VCA9QTY,6,5
156,3,object_09,object_05,582.20000004768,5,1,358.10000002384,0.4444444444444444,1,object_08,1,2024,0,4,6,library_1,2,memory-2step-stake-s,659,2276047,0.0-19.0-0.1-0.156,A3TT7QV49VCZJ9,3Q9SPIIRXM2ML6FVM0W2D0Z2IA6WAR,3T3IWE1XGA3P2OGC6TTF503VCA9QTY,5,6
157,4,object_01,object_04,801.80000001192,7,1,284.19999998808,0.4444444444444444,1,object_08,1,2028,0,4,2,restaurant_6,2,memory-2step-stake-s,660,2283960,0.0-19.0-0.1-0.157,A3TT7QV49VCZJ9,3Q9SPIIRXM2ML6FVM0W2D0Z2IA6WAR,3T3IWE1XGA3P2OGC6TTF503VCA9QTY,7,8
158,4,object_04,object_01,715.19999998808,7,2,296.79999995232,0.6666666666666666,1,object_08,1,2034,0,6,2,restaurant_5,2,memory-2step-stake-s,661,2292072,0.0-19.0-0.1-0.158,A3TT7QV49VCZJ9,3Q9SPIIRXM2ML6FVM0W2D0Z2IA6WAR,3T3IWE1XGA3P2OGC6TTF503VCA9QTY,8,7
159,3,object_09,object_05,672.09999996424,5,1,304.0,0.7777777777777778,1,object_08,1,2041,0,7,2,library_4,2,memory-2step-stake-s,662,2300297,0.0-19.0-0.1-0.159,A3TT7QV49VCZJ9,3Q9SPIIRXM2ML6FVM0W2D0Z2IA6WAR,3T3IWE1XGA3P2OGC6TTF503VCA9QTY,5,6
160,2,object_02,object_03,727.29999995232,3,2,248.80000001192,0.6666666666666666,1,object_08,5,2071,0,6,1,forest_3,2,memory-2step-stake-s,663,2308372,0.0-19.0-0.1-0.160,A3TT7QV49VCZJ9,3Q9SPIIRXM2ML6FVM0W2D0Z2IA6WAR,3T3IWE1XGA3P2OGC6TTF503VCA9QTY,4,3
161,1,object_10,object_07,729.89999997616,1,1,213.29999995232,0.8888888888888888,1,object_08,5,2111,0,8,0,desert_2,2,memory-2step-stake-s,664,2316603,0.0-19.0-0.1-0.161,A3TT7QV49VCZJ9,3Q9SPIIRXM2ML6FVM0W2D0Z2IA6WAR,3T3IWE1XGA3P2OGC6TTF503VCA9QTY,1,2
162,4,object_01,object_04,898.5,7,1,369.29999995232,0.6666666666666666,1,object_08,1,2117,0,6,2,restaurant_6,2,memory-2step-stake-s,665,2324789,0.0-19.0-0.1-0.162,A3TT7QV49VCZJ9,3Q9SPIIRXM2ML6FVM0W2D0Z2IA6WAR,3T3IWE1XGA3P2OGC6TTF503VCA9QTY,7,8
163,1,object_07,object_10,556.0,1,2,334.39999997616,0.4444444444444444,1,object_08,5,2137,0,4,1,desert_8,2,memory-2step-stake-s,666,2332736,0.0-19.0-0.1-0.163,A3TT7QV49VCZJ9,3Q9SPIIRXM2ML6FVM0W2D0Z2IA6WAR,3T3IWE1XGA3P2OGC6TTF503VCA9QTY,2,1
164,3,object_09,object_05,915.30000001192,6,2,378.19999998808,0.0,2,object_06,1,2137,0,5,0,library_4,2,memory-2step-stake-s,667,2340327,0.0-19.0-0.1-0.164,A3TT7QV49VCZJ9,3Q9SPIIRXM2ML6FVM0W2D0Z2IA6WAR,3T3IWE1XGA3P2OGC6TTF503VCA9QTY,5,6
165,3,object_05,object_09,1026.5,6,1,453.30000001192,0.3333333333333333,2,object_06,1,2140,0,6,3,library_8,2,memory-2step-stake-s,668,2348293,0.0-19.0-0.1-0.165,A3TT7QV49VCZJ9,3Q9SPIIRXM2ML6FVM0W2D0Z2IA6WAR,3T3IWE1XGA3P2OGC6TTF503VCA9QTY,6,5
166,1,object_10,object_07,871.89999997616,2,2,513.0,0.1111111111111111,2,object_06,5,2145,0,7,1,desert_2,2,memory-2step-stake-s,669,2356118,0.0-19.0-0.1-0.166,A3TT7QV49VCZJ9,3Q9SPIIRXM2ML6FVM0W2D0Z2IA6WAR,3T3IWE1XGA3P2OGC6TTF503VCA9QTY,1,2
167,4,object_04,object_01,1001.1000000238,7,2,362.39999997616,0.6666666666666666,1,object_08,5,2175,0,6,1,restaurant_6,2,memory-2step-stake-s,670,2364295,0.0-19.0-0.1-0.167,A3TT7QV49VCZJ9,3Q9SPIIRXM2ML6FVM0W2D0Z2IA6WAR,3T3IWE1XGA3P2OGC6TTF503VCA9QTY,8,7
168,3,object_09,object_05,517.19999998808,5,1,223.69999998808,0.8888888888888888,1,object_08,1,2183,0,8,1,library_1,2,memory-2step-stake-s,671,2372536,0.0-19.0-0.1-0.168,A3TT7QV49VCZJ9,3Q9SPIIRXM2ML6FVM0W2D0Z2IA6WAR,3T3IWE1XGA3P2OGC6TTF503VCA9QTY,5,6
169,4,object_01,object_04,811.09999996424,7,1,85.699999988079,1.0,1,object_08,1,2192,0,9,0,restaurant_8,2,memory-2step-stake-s,672,2380740,0.0-19.0-0.1-0.169,A3TT7QV49VCZJ9,3Q9SPIIRXM2ML6FVM0W2D0Z2IA6WAR,3T3IWE1XGA3P2OGC6TTF503VCA9QTY,7,8
170,3,object_05,object_09,378.30000001192,5,2,257.19999998808,0.4444444444444444,1,object_08,1,2196,0,4,3,library_2,2,memory-2step-stake-s,673,2388613,0.0-19.0-0.1-0.170,A3TT7QV49VCZJ9,3Q9SPIIRXM2ML6FVM0W2D0Z2IA6WAR,3T3IWE1XGA3P2OGC6TTF503VCA9QTY,6,5
171,3,object_09,object_05,641.0,5,1,390.10000002384,0.5555555555555556,1,object_08,1,2201,0,5,2,library_1,2,memory-2step-stake-s,674,2396718,0.0-19.0-0.1-0.171,A3TT7QV49VCZJ9,3Q9SPIIRXM2ML6FVM0W2D0Z2IA6WAR,3T3IWE1XGA3P2OGC6TTF503VCA9QTY,5,6
172,2,object_02,object_03,679.90000003576,3,2,201.10000002384,0.6666666666666666,1,object_08,5,2231,0,6,4,forest_3,2,memory-2step-stake-s,675,2404739,0.0-19.0-0.1-0.172,A3TT7QV49VCZJ9,3Q9SPIIRXM2ML6FVM0W2D0Z2IA6WAR,3T3IWE1XGA3P2OGC6TTF503VCA9QTY,4,3
173,4,object_04,object_01,821.89999997616,7,2,736.60000002384,0.6666666666666666,1,object_08,1,2237,0,6,3,restaurant_6,2,memory-2step-stake-s,676,2413294,0.0-19.0-0.1-0.173,A3TT7QV49VCZJ9,3Q9SPIIRXM2ML6FVM0W2D0Z2IA6WAR,3T3IWE1XGA3P2OGC6TTF503VCA9QTY,8,7
174,3,object_09,object_05,591.60000002384,5,1,422.39999997616,0.5555555555555556,1,object_08,1,2242,0,5,2,library_4,2,memory-2step-stake-s,677,2421441,0.0-19.0-0.1-0.174,A3TT7QV49VCZJ9,3Q9SPIIRXM2ML6FVM0W2D0Z2IA6WAR,3T3IWE1XGA3P2OGC6TTF503VCA9QTY,5,6
175,2,object_02,object_03,815.59999996424,3,2,324.19999998808,0.6666666666666666,1,object_08,5,2272,0,6,1,forest_8,2,memory-2step-stake-s,678,2429596,0.0-19.0-0.1-0.175,A3TT7QV49VCZJ9,3Q9SPIIRXM2ML6FVM0W2D0Z2IA6WAR,3T3IWE1XGA3P2OGC6TTF503VCA9QTY,4,3
176,2,object_03,object_02,878.90000003576,3,1,753.89999997616,0.3333333333333333,1,object_08,5,2287,0,3,0,forest_8,2,memory-2step-stake-s,679,2437878,0.0-19.0-0.1-0.176,A3TT7QV49VCZJ9,3Q9SPIIRXM2ML6FVM0W2D0Z2IA6WAR,3T3IWE1XGA3P2OGC6TTF503VCA9QTY,3,4
177,3,object_05,object_09,970.80000001192,6,1,235.29999995232,0.2222222222222222,2,object_06,1,2289,0,1,2,library_4,2,memory-2step-stake-s,680,2445528,0.0-19.0-0.1-0.177,A3TT7QV49VCZJ9,3Q9SPIIRXM2ML6FVM0W2D0Z2IA6WAR,3T3IWE1XGA3P2OGC6TTF503VCA9QTY,6,5
178,3,object_09,object_05,664.29999995232,6,2,456.89999997616,0.3333333333333333,2,object_06,1,2292,0,5,3,library_2,2,memory-2step-stake-s,681,2453513,0.0-19.0-0.1-0.178,A3TT7QV49VCZJ9,3Q9SPIIRXM2ML6FVM0W2D0Z2IA6WAR,3T3IWE1XGA3P2OGC6TTF503VCA9QTY,5,6
179,1,object_10,object_07,729.79999995232,2,2,276.5,0.2222222222222222,2,object_06,1,2294,0,2,2,desert_4,2,memory-2step-stake-s,682,2461204,0.0-19.0-0.1-0.179,A3TT7QV49VCZJ9,3Q9SPIIRXM2ML6FVM0W2D0Z2IA6WAR,3T3IWE1XGA3P2OGC6TTF503VCA9QTY,1,2
180,3,object_09,object_05,1127.1000000238,6,2,330.90000003576,0.1111111111111111,2,object_06,1,2295,0,0,1,library_8,2,memory-2step-stake-s,683,2468845,0.0-19.0-0.1-0.180,A3TT7QV49VCZJ9,3Q9SPIIRXM2ML6FVM0W2D0Z2IA6WAR,3T3IWE1XGA3P2OGC6TTF503VCA9QTY,5,6
181,3,object_09,object_05,729.5,5,1,421.0,0.0,1,object_08,1,2295,0,0,1,library_8,2,memory-2step-stake-s,684,2476477,0.0-19.0-0.1-0.181,A3TT7QV49VCZJ9,3Q9SPIIRXM2ML6FVM0W2D0Z2IA6WAR,3T3IWE1XGA3P2OGC6TTF503VCA9QTY,5,6
182,4,object_04,object_01,875.80000001192,7,2,453.89999997616,0.2222222222222222,1,object_08,5,2305,0,2,2,restaurant_4,2,memory-2step-stake-s,685,2484358,0.0-19.0-0.1-0.182,A3TT7QV49VCZJ9,3Q9SPIIRXM2ML6FVM0W2D0Z2IA6WAR,3T3IWE1XGA3P2OGC6TTF503VCA9QTY,8,7
183,1,object_07,object_10,908.60000002384,1,2,262.59999996424,0.3333333333333333,1,object_08,5,2320,0,3,2,desert_7,2,memory-2step-stake-s,686,2492136,0.0-19.0-0.1-0.183,A3TT7QV49VCZJ9,3Q9SPIIRXM2ML6FVM0W2D0Z2IA6WAR,3T3IWE1XGA3P2OGC6TTF503VCA9QTY,2,1
184,4,object_04,object_01,1016.3999999762,7,2,340.19999998808,0.1111111111111111,1,object_08,1,2321,0,1,2,restaurant_8,2,memory-2step-stake-s,687,2499789,0.0-19.0-0.1-0.184,A3TT7QV49VCZJ9,3Q9SPIIRXM2ML6FVM0W2D0Z2IA6WAR,3T3IWE1XGA3P2OGC6TTF503VCA9QTY,8,7
185,4,object_04,object_01,1174.7999999523,7,2,231.29999995232,0.0,1,object_08,1,2321,0,0,6,restaurant_4,2,memory-2step-stake-s,688,2507232,0.0-19.0-0.1-0.185,A3TT7QV49VCZJ9,3Q9SPIIRXM2ML6FVM0W2D0Z2IA6WAR,3T3IWE1XGA3P2OGC6TTF503VCA9QTY,8,7
186,2,object_02,object_03,753.39999997616,4,1,299.80000001192,0.8888888888888888,2,object_06,5,2361,0,2,8,forest_7,2,memory-2step-stake-s,689,2515554,0.0-19.0-0.1-0.186,A3TT7QV49VCZJ9,3Q9SPIIRXM2ML6FVM0W2D0Z2IA6WAR,3T3IWE1XGA3P2OGC6TTF503VCA9QTY,4,3
187,3,object_09,object_05,791.0,6,2,534.69999998808,0.4444444444444444,2,object_06,1,2365,0,1,4,library_2,2,memory-2step-stake-s,690,2523705,0.0-19.0-0.1-0.187,A3TT7QV49VCZJ9,3Q9SPIIRXM2ML6FVM0W2D0Z2IA6WAR,3T3IWE1XGA3P2OGC6TTF503VCA9QTY,5,6
188,1,object_10,object_07,719.0,2,2,55.599999964237,0.3333333333333333,2,object_06,5,2380,0,3,3,desert_2,2,memory-2step-stake-s,691,2531278,0.0-19.0-0.1-0.188,A3TT7QV49VCZJ9,3Q9SPIIRXM2ML6FVM0W2D0Z2IA6WAR,3T3IWE1XGA3P2OGC6TTF503VCA9QTY,1,2
189,4,object_04,object_01,947.10000002384,7,2,277.59999996424,0.3333333333333333,1,object_08,1,2383,0,3,0,restaurant_8,2,memory-2step-stake-s,692,2539078,0.0-19.0-0.1-0.189,A3TT7QV49VCZJ9,3Q9SPIIRXM2ML6FVM0W2D0Z2IA6WAR,3T3IWE1XGA3P2OGC6TTF503VCA9QTY,8,7
190,3,object_09,object_05,858.39999997616,6,2,76.100000023842,0.4444444444444444,2,object_06,1,2387,0,3,4,library_1,2,memory-2step-stake-s,693,2546771,0.0-19.0-0.1-0.190,A3TT7QV49VCZJ9,3Q9SPIIRXM2ML6FVM0W2D0Z2IA6WAR,3T3IWE1XGA3P2OGC6TTF503VCA9QTY,5,6
191,3,object_09,object_05,770.30000001192,5,1,577.39999997616,0.2222222222222222,1,object_08,1,2389,0,2,4,library_8,2,memory-2step-stake-s,694,2554770,0.0-19.0-0.1-0.191,A3TT7QV49VCZJ9,3Q9SPIIRXM2ML6FVM0W2D0Z2IA6WAR,3T3IWE1XGA3P2OGC6TTF503VCA9QTY,5,6
192,1,object_10,object_07,1071.3999999762,1,1,394.39999997616,0.4444444444444444,1,object_08,5,2409,0,4,3,desert_8,2,memory-2step-stake-s,695,2562779,0.0-19.0-0.1-0.192,A3TT7QV49VCZJ9,3Q9SPIIRXM2ML6FVM0W2D0Z2IA6WAR,3T3IWE1XGA3P2OGC6TTF503VCA9QTY,1,2
193,1,object_10,object_07,942.5,1,1,643.5,0.6666666666666666,1,object_08,5,2439,0,6,0,desert_2,2,memory-2step-stake-s,696,2571236,0.0-19.0-0.1-0.193,A3TT7QV49VCZJ9,3Q9SPIIRXM2ML6FVM0W2D0Z2IA6WAR,3T3IWE1XGA3P2OGC6TTF503VCA9QTY,1,2
194,1,object_10,object_07,722.60000002384,1,1,285.29999995232,1.0,1,object_08,1,2448,0,9,0,desert_4,2,memory-2step-stake-s,697,2579650,0.0-19.0-0.1-0.194,A3TT7QV49VCZJ9,3Q9SPIIRXM2ML6FVM0W2D0Z2IA6WAR,3T3IWE1XGA3P2OGC6TTF503VCA9QTY,1,2
195,2,object_02,object_03,720.39999997616,3,2,51.199999988079,0.6666666666666666,1,object_08,5,2478,0,6,0,forest_3,2,memory-2step-stake-s,698,2587514,0.0-19.0-0.1-0.195,A3TT7QV49VCZJ9,3Q9SPIIRXM2ML6FVM0W2D0Z2IA6WAR,3T3IWE1XGA3P2OGC6TTF503VCA9QTY,4,3
196,3,object_05,object_09,1271.1000000238,5,2,694.30000001192,0.5555555555555556,1,object_08,1,2483,0,5,2,library_4,2,memory-2step-stake-s,699,2595920,0.0-19.0-0.1-0.196,A3TT7QV49VCZJ9,3Q9SPIIRXM2ML6FVM0W2D0Z2IA6WAR,3T3IWE1XGA3P2OGC6TTF503VCA9QTY,6,5
197,2,object_02,object_03,-1.0,-1,-1,-1.0,0.0,-,0,5,2483,0,6,1,forest_8,2,memory-2step-stake-s,700,2602425,0.0-19.0-0.1-0.197,A3TT7QV49VCZJ9,3Q9SPIIRXM2ML6FVM0W2D0Z2IA6WAR,3T3IWE1XGA3P2OGC6TTF503VCA9QTY,4,3
198,2,object_02,object_03,691.39999997616,3,2,432.80000001192,0.4444444444444444,1,object_08,5,2503,0,4,2,forest_8,2,memory-2step-stake-s,701,2610472,0.0-19.0-0.1-0.198,A3TT7QV49VCZJ9,3Q9SPIIRXM2ML6FVM0W2D0Z2IA6WAR,3T3IWE1XGA3P2OGC6TTF503VCA9QTY,4,3
199,1,object_10,object_07,-1.0,-1,-1,-1.0,0.0,-,0,5,2503,0,4,0,desert_2,2,memory-2step-stake-s,702,2616979,0.0-19.0-0.1-0.199,A3TT7QV49VCZJ9,3Q9SPIIRXM2ML6FVM0W2D0Z2IA6WAR,3T3IWE1XGA3P2OGC6TTF503VCA9QTY,1,2
200,2,object_03,object_02,759.60000002384,3,1,673.79999995232,0.3333333333333333,1,object_08,5,2518,0,3,2,forest_8,2,memory-2step-stake-s,703,2625165,0.0-19.0-0.1-0.200,A3TT7QV49VCZJ9,3Q9SPIIRXM2ML6FVM0W2D0Z2IA6WAR,3T3IWE1XGA3P2OGC6TTF503VCA9QTY,3,4
201,4,object_01,object_04,773.5,8,2,319.69999998808,0.2222222222222222,2,object_06,5,2528,0,3,2,restaurant_4,2,memory-2step-stake-s,704,2632898,0.0-19.0-0.1-0.201,A3TT7QV49VCZJ9,3Q9SPIIRXM2ML6FVM0W2D0Z2IA6WAR,3T3IWE1XGA3P2OGC6TTF503VCA9QTY,7,8
202,1,object_10,object_07,672.5,1,1,254.5,0.4444444444444444,1,object_08,5,2548,0,4,4,desert_2,2,memory-2step-stake-s,705,2640767,0.0-19.0-0.1-0.202,A3TT7QV49VCZJ9,3Q9SPIIRXM2ML6FVM0W2D0Z2IA6WAR,3T3IWE1XGA3P2OGC6TTF503VCA9QTY,1,2
203,4,object_04,object_01,736.19999998808,7,2,493.30000001192,0.0,1,object_08,5,2548,0,0,1,restaurant_6,2,memory-2step-stake-s,706,2648470,0.0-19.0-0.1-0.203,A3TT7QV49VCZJ9,3Q9SPIIRXM2ML6FVM0W2D0Z2IA6WAR,3T3IWE1XGA3P2OGC6TTF503VCA9QTY,8,7
204,3,object_09,object_05,880.79999995232,6,2,304.29999995232,0.7777777777777778,2,object_06,1,2555,0,0,7,library_8,2,memory-2step-stake-s,707,2656691,0.0-19.0-0.1-0.204,A3TT7QV49VCZJ9,3Q9SPIIRXM2ML6FVM0W2D0Z2IA6WAR,3T3IWE1XGA3P2OGC6TTF503VCA9QTY,5,6
205,1,object_07,object_10,746.39999997616,2,1,336.79999995232,0.6666666666666666,2,object_06,1,2561,0,1,6,desert_8,2,memory-2step-stake-s,708,2664844,0.0-19.0-0.1-0.205,A3TT7QV49VCZJ9,3Q9SPIIRXM2ML6FVM0W2D0Z2IA6WAR,3T3IWE1XGA3P2OGC6TTF503VCA9QTY,2,1
206,1,object_07,object_10,722.0,2,1,124.89999997616,0.5555555555555556,2,object_06,5,2586,0,3,5,desert_4,2,memory-2step-stake-s,709,2672684,0.0-19.0-0.1-0.206,A3TT7QV49VCZJ9,3Q9SPIIRXM2ML6FVM0W2D0Z2IA6WAR,3T3IWE1XGA3P2OGC6TTF503VCA9QTY,2,1
207,1,object_07,object_10,470.69999998808,1,2,283.89999997616,0.3333333333333333,1,object_08,5,2601,0,3,7,desert_8,2,memory-2step-stake-s,710,2680480,0.0-19.0-0.1-0.207,A3TT7QV49VCZJ9,3Q9SPIIRXM2ML6FVM0W2D0Z2IA6WAR,3T3IWE1XGA3P2OGC6TTF503VCA9QTY,2,1
208,1,object_10,object_07,641.30000001192,1,1,534.19999998808,0.8888888888888888,1,object_08,5,2641,0,8,7,desert_2,2,memory-2step-stake-s,711,2689032,0.0-19.0-0.1-0.208,A3TT7QV49VCZJ9,3Q9SPIIRXM2ML6FVM0W2D0Z2IA6WAR,3T3IWE1XGA3P2OGC6TTF503VCA9QTY,1,2
209,1,object_07,object_10,380.10000002384,1,2,517.19999998808,0.4444444444444444,1,object_08,1,2645,0,4,8,desert_4,2,memory-2step-stake-s,712,2697175,0.0-19.0-0.1-0.209,A3TT7QV49VCZJ9,3Q9SPIIRXM2ML6FVM0W2D0Z2IA6WAR,3T3IWE1XGA3P2OGC6TTF503VCA9QTY,2,1
210,2,object_02,object_03,1198.0,3,2,500.5,0.0,1,object_08,5,2645,0,0,7,forest_8,2,memory-2step-stake-s,713,2704887,0.0-19.0-0.1-0.210,A3TT7QV49VCZJ9,3Q9SPIIRXM2ML6FVM0W2D0Z2IA6WAR,3T3IWE1XGA3P2OGC6TTF503VCA9QTY,4,3
211,3,object_09,object_05,770.79999995232,6,2,421.20000004768,0.7777777777777778,2,object_06,1,2652,0,2,7,library_2,2,memory-2step-stake-s,714,2713224,0.0-19.0-0.1-0.211,A3TT7QV49VCZJ9,3Q9SPIIRXM2ML6FVM0W2D0Z2IA6WAR,3T3IWE1XGA3P2OGC6TTF503VCA9QTY,5,6
212,3,object_09,object_05,757.5,6,2,116.29999995232,0.1111111111111111,2,object_06,1,2653,0,0,1,library_2,2,memory-2step-stake-s,715,2720651,0.0-19.0-0.1-0.212,A3TT7QV49VCZJ9,3Q9SPIIRXM2ML6FVM0W2D0Z2IA6WAR,3T3IWE1XGA3P2OGC6TTF503VCA9QTY,5,6
213,1,object_10,object_07,624.39999997616,1,1,394.29999995232,0.1111111111111111,1,object_08,5,2658,0,1,2,desert_7,2,memory-2step-stake-s,716,2728369,0.0-19.0-0.1-0.213,A3TT7QV49VCZJ9,3Q9SPIIRXM2ML6FVM0W2D0Z2IA6WAR,3T3IWE1XGA3P2OGC6TTF503VCA9QTY,1,2
214,4,object_04,object_01,670.20000004768,7,2,300.5,0.3333333333333333,1,object_08,5,2673,0,3,1,restaurant_8,2,memory-2step-stake-s,717,2736184,0.0-19.0-0.1-0.214,A3TT7QV49VCZJ9,3Q9SPIIRXM2ML6FVM0W2D0Z2IA6WAR,3T3IWE1XGA3P2OGC6TTF503VCA9QTY,8,7
215,2,object_02,object_03,692.0,3,2,269.79999995232,0.4444444444444444,1,object_08,5,2693,0,4,1,forest_8,2,memory-2step-stake-s,718,2744068,0.0-19.0-0.1-0.215,A3TT7QV49VCZJ9,3Q9SPIIRXM2ML6FVM0W2D0Z2IA6WAR,3T3IWE1XGA3P2OGC6TTF503VCA9QTY,4,3
216,1,object_10,object_07,496.0,1,1,409.19999998808,0.7777777777777778,1,object_08,5,2728,0,7,2,desert_4,2,memory-2step-stake-s,719,2752394,0.0-19.0-0.1-0.216,A3TT7QV49VCZJ9,3Q9SPIIRXM2ML6FVM0W2D0Z2IA6WAR,3T3IWE1XGA3P2OGC6TTF503VCA9QTY,1,2
217,1,object_07,object_10,608.5,1,2,269.39999997616,0.5555555555555556,1,object_08,5,2753,0,5,3,desert_8,2,memory-2step-stake-s,720,2760378,0.0-19.0-0.1-0.217,A3TT7QV49VCZJ9,3Q9SPIIRXM2ML6FVM0W2D0Z2IA6WAR,3T3IWE1XGA3P2OGC6TTF503VCA9QTY,2,1
218,4,object_01,object_04,854.39999997616,8,2,416.29999995232,0.1111111111111111,2,object_06,1,2754,0,5,1,restaurant_5,2,memory-2step-stake-s,721,2768108,0.0-19.0-0.1-0.218,A3TT7QV49VCZJ9,3Q9SPIIRXM2ML6FVM0W2D0Z2IA6WAR,3T3IWE1XGA3P2OGC6TTF503VCA9QTY,7,8
219,2,object_02,object_03,979.89999997616,3,2,369.69999998808,0.6666666666666666,1,object_08,5,2784,0,6,2,forest_2,2,memory-2step-stake-s,722,2776296,0.0-19.0-0.1-0.219,A3TT7QV49VCZJ9,3Q9SPIIRXM2ML6FVM0W2D0Z2IA6WAR,3T3IWE1XGA3P2OGC6TTF503VCA9QTY,4,3
220,4,object_01,object_04,788.39999997616,7,1,523.19999998808,0.6666666666666666,1,object_08,1,2790,0,6,3,restaurant_4,2,memory-2step-stake-s,723,2784632,0.0-19.0-0.1-0.220,A3TT7QV49VCZJ9,3Q9SPIIRXM2ML6FVM0W2D0Z2IA6WAR,3T3IWE1XGA3P2OGC6TTF503VCA9QTY,7,8
221,1,object_07,object_10,676.0,1,2,334.29999995232,0.6666666666666666,1,object_08,5,2820,0,6,0,desert_4,2,memory-2step-stake-s,724,2792782,0.0-19.0-0.1-0.221,A3TT7QV49VCZJ9,3Q9SPIIRXM2ML6FVM0W2D0Z2IA6WAR,3T3IWE1XGA3P2OGC6TTF503VCA9QTY,2,1
222,3,object_05,object_09,696.29999995232,5,2,282.39999997616,0.6666666666666666,1,object_08,1,2826,0,6,0,library_1,2,memory-2step-stake-s,725,2800880,0.0-19.0-0.1-0.222,A3TT7QV49VCZJ9,3Q9SPIIRXM2ML6FVM0W2D0Z2IA6WAR,3T3IWE1XGA3P2OGC6TTF503VCA9QTY,6,5
223,3,object_05,object_09,1025.0,5,2,295.89999997616,0.7777777777777778,1,object_08,1,2833,0,7,1,library_2,2,memory-2step-stake-s,726,2809092,0.0-19.0-0.1-0.223,A3TT7QV49VCZJ9,3Q9SPIIRXM2ML6FVM0W2D0Z2IA6WAR,3T3IWE1XGA3P2OGC6TTF503VCA9QTY,6,5
224,1,object_07,object_10,919.30000001192,1,2,188.5,0.8888888888888888,1,object_08,5,2873,0,8,1,desert_2,2,memory-2step-stake-s,727,2817300,0.0-19.0-0.1-0.224,A3TT7QV49VCZJ9,3Q9SPIIRXM2ML6FVM0W2D0Z2IA6WAR,3T3IWE1XGA3P2OGC6TTF503VCA9QTY,2,1
225,1,object_10,object_07,647.0,1,1,246.0,0.7777777777777778,1,object_08,5,2908,0,7,2,desert_4,2,memory-2step-stake-s,728,2825474,0.0-19.0-0.1-0.225,A3TT7QV49VCZJ9,3Q9SPIIRXM2ML6FVM0W2D0Z2IA6WAR,3T3IWE1XGA3P2OGC6TTF503VCA9QTY,1,2
226,4,object_01,object_04,815.5,7,1,386.30000001192,0.7777777777777778,1,object_08,1,2915,0,7,4,restaurant_5,2,memory-2step-stake-s,729,2833778,0.0-19.0-0.1-0.226,A3TT7QV49VCZJ9,3Q9SPIIRXM2ML6FVM0W2D0Z2IA6WAR,3T3IWE1XGA3P2OGC6TTF503VCA9QTY,7,8
227,2,object_02,object_03,614.40000003576,3,2,239.39999997616,0.4444444444444444,1,object_08,5,2935,0,4,2,forest_2,2,memory-2step-stake-s,730,2841633,0.0-19.0-0.1-0.227,A3TT7QV49VCZJ9,3Q9SPIIRXM2ML6FVM0W2D0Z2IA6WAR,3T3IWE1XGA3P2OGC6TTF503VCA9QTY,4,3
228,3,object_09,object_05,698.10000002384,5,1,336.90000003576,0.3333333333333333,1,object_08,1,2938,0,3,6,library_1,2,memory-2step-stake-s,731,2849483,0.0-19.0-0.1-0.228,A3TT7QV49VCZJ9,3Q9SPIIRXM2ML6FVM0W2D0Z2IA6WAR,3T3IWE1XGA3P2OGC6TTF503VCA9QTY,5,6
229,4,object_01,object_04,1052.6000000238,8,2,434.90000003576,0.3333333333333333,2,object_06,1,2941,0,4,3,restaurant_8,2,memory-2step-stake-s,732,2857432,0.0-19.0-0.1-0.229,A3TT7QV49VCZJ9,3Q9SPIIRXM2ML6FVM0W2D0Z2IA6WAR,3T3IWE1XGA3P2OGC6TTF503VCA9QTY,7,8
230,1,object_10,object_07,628.10000002384,2,2,258.0,0.2222222222222222,2,object_06,5,2951,0,4,2,desert_8,2,memory-2step-stake-s,733,2865103,0.0-19.0-0.1-0.230,A3TT7QV49VCZJ9,3Q9SPIIRXM2ML6FVM0W2D0Z2IA6WAR,3T3IWE1XGA3P2OGC6TTF503VCA9QTY,1,2
231,2,object_03,object_02,797.29999995232,4,2,258.39999997616,0.2222222222222222,2,object_06,5,2961,0,5,2,forest_7,2,memory-2step-stake-s,734,2872772,0.0-19.0-0.1-0.231,A3TT7QV49VCZJ9,3Q9SPIIRXM2ML6FVM0W2D0Z2IA6WAR,3T3IWE1XGA3P2OGC6TTF503VCA9QTY,3,4
232,3,object_05,object_09,523.60000002384,5,2,433.29999995232,0.2222222222222222,1,object_08,1,2963,0,2,4,library_1,2,memory-2step-stake-s,735,2880616,0.0-19.0-0.1-0.232,A3TT7QV49VCZJ9,3Q9SPIIRXM2ML6FVM0W2D0Z2IA6WAR,3T3IWE1XGA3P2OGC6TTF503VCA9QTY,6,5
233,2,object_03,object_02,743.60000002384,3,1,490.29999995232,0.2222222222222222,1,object_08,1,2965,0,2,5,forest_7,2,memory-2step-stake-s,736,2888520,0.0-19.0-0.1-0.233,A3TT7QV49VCZJ9,3Q9SPIIRXM2ML6FVM0W2D0Z2IA6WAR,3T3IWE1XGA3P2OGC6TTF503VCA9QTY,3,4
234,3,object_09,object_05,653.60000002384,6,2,439.79999995232,0.5555555555555556,2,object_06,5,2990,0,0,5,library_2,2,memory-2step-stake-s,737,2896683,0.0-19.0-0.1-0.234,A3TT7QV49VCZJ9,3Q9SPIIRXM2ML6FVM0W2D0Z2IA6WAR,3T3IWE1XGA3P2OGC6TTF503VCA9QTY,5,6
235,4,object_04,object_01,892.5,7,2,223.30000001192,0.1111111111111111,1,object_08,1,2991,0,1,5,restaurant_8,2,memory-2step-stake-s,738,2904219,0.0-19.0-0.1-0.235,A3TT7QV49VCZJ9,3Q9SPIIRXM2ML6FVM0W2D0Z2IA6WAR,3T3IWE1XGA3P2OGC6TTF503VCA9QTY,8,7
236,2,object_02,object_03,1244.1000000238,4,1,536.59999996424,0.4444444444444444,2,object_06,1,2995,0,1,4,forest_3,2,memory-2step-stake-s,739,2912381,0.0-19.0-0.1-0.236,A3TT7QV49VCZJ9,3Q9SPIIRXM2ML6FVM0W2D0Z2IA6WAR,3T3IWE1XGA3P2OGC6TTF503VCA9QTY,4,3
237,2,object_03,object_02,887.0,4,2,240.89999997616,0.6666666666666666,2,object_06,5,3025,0,4,6,forest_2,2,memory-2step-stake-s,740,2920459,0.0-19.0-0.1-0.237,A3TT7QV49VCZJ9,3Q9SPIIRXM2ML6FVM0W2D0Z2IA6WAR,3T3IWE1XGA3P2OGC6TTF503VCA9QTY,3,4
238,1,object_10,object_07,903.29999995232,1,1,789.30000001192,0.2222222222222222,1,object_08,5,3035,0,2,5,desert_2,2,memory-2step-stake-s,741,2928674,0.0-19.0-0.1-0.238,A3TT7QV49VCZJ9,3Q9SPIIRXM2ML6FVM0W2D0Z2IA6WAR,3T3IWE1XGA3P2OGC6TTF503VCA9QTY,1,2
239,2,object_03,object_02,952.60000002384,4,2,342.40000003576,0.7777777777777778,2,object_06,5,3070,0,4,7,forest_8,2,memory-2step-stake-s,742,2936951,0.0-19.0-0.1-0.239,A3TT7QV49VCZJ9,3Q9SPIIRXM2ML6FVM0W2D0Z2IA6WAR,3T3IWE1XGA3P2OGC6TTF503VCA9QTY,3,4
240,4,object_04,object_01,788.89999997616,8,1,278.89999997616,0.8888888888888888,2,object_06,1,3078,0,4,8,restaurant_6,2,memory-2step-stake-s,743,2945252,0.0-19.0-0.1-0.240,A3TT7QV49VCZJ9,3Q9SPIIRXM2ML6FVM0W2D0Z2IA6WAR,3T3IWE1XGA3P2OGC6TTF503VCA9QTY,8,7
241,3,object_09,object_05,1274.0,6,2,420.29999995232,0.8888888888888888,2,object_06,1,3086,0,2,8,library_8,2,memory-2step-stake-s,744,2953689,0.0-19.0-0.1-0.241,A3TT7QV49VCZJ9,3Q9SPIIRXM2ML6FVM0W2D0Z2IA6WAR,3T3IWE1XGA3P2OGC6TTF503VCA9QTY,5,6
242,3,object_09,object_05,968.29999995232,5,1,496.59999996424,0.5555555555555556,1,object_08,1,3091,0,5,5,library_4,2,memory-2step-stake-s,745,2961911,0.0-19.0-0.1-0.242,A3TT7QV49VCZJ9,3Q9SPIIRXM2ML6FVM0W2D0Z2IA6WAR,3T3IWE1XGA3P2OGC6TTF503VCA9QTY,5,6
243,2,object_03,object_02,752.20000004768,3,1,391.29999995232,0.4444444444444444,1,object_08,5,3111,0,4,3,forest_3,2,memory-2step-stake-s,746,2969916,0.0-19.0-0.1-0.243,A3TT7QV49VCZJ9,3Q9SPIIRXM2ML6FVM0W2D0Z2IA6WAR,3T3IWE1XGA3P2OGC6TTF503VCA9QTY,3,4
244,1,object_10,object_07,1102.3999999762,1,1,546.39999997616,0.4444444444444444,1,object_08,1,3115,0,4,6,desert_4,2,memory-2step-stake-s,747,2978075,0.0-19.0-0.1-0.244,A3TT7QV49VCZJ9,3Q9SPIIRXM2ML6FVM0W2D0Z2IA6WAR,3T3IWE1XGA3P2OGC6TTF503VCA9QTY,1,2
245,3,object_09,object_05,827.90000003576,5,1,389.29999995232,0.2222222222222222,1,object_08,5,3125,0,2,4,library_4,2,memory-2step-stake-s,748,2985878,0.0-19.0-0.1-0.245,A3TT7QV49VCZJ9,3Q9SPIIRXM2ML6FVM0W2D0Z2IA6WAR,3T3IWE1XGA3P2OGC6TTF503VCA9QTY,5,6
246,2,object_02,object_03,860.89999997616,3,2,351.19999998808,0.1111111111111111,1,object_08,5,3130,0,1,2,forest_7,2,memory-2step-stake-s,749,2993539,0.0-19.0-0.1-0.246,A3TT7QV49VCZJ9,3Q9SPIIRXM2ML6FVM0W2D0Z2IA6WAR,3T3IWE1XGA3P2OGC6TTF503VCA9QTY,4,3
247,2,object_02,object_03,806.5,4,1,449.29999995232,0.1111111111111111,2,object_06,5,3135,0,3,1,forest_3,2,memory-2step-stake-s,750,3001300,0.0-19.0-0.1-0.247,A3TT7QV49VCZJ9,3Q9SPIIRXM2ML6FVM0W2D0Z2IA6WAR,3T3IWE1XGA3P2OGC6TTF503VCA9QTY,4,3
248,1,object_07,object_10,876.0,1,2,422.40000003576,0.1111111111111111,1,object_08,1,3136,0,1,2,desert_8,2,memory-2step-stake-s,751,3009035,0.0-19.0-0.1-0.248,A3TT7QV49VCZJ9,3Q9SPIIRXM2ML6FVM0W2D0Z2IA6WAR,3T3IWE1XGA3P2OGC6TTF503VCA9QTY,2,1
249,3,object_05,object_09,679.0,5,2,80.399999976158,0.2222222222222222,1,object_08,1,3138,0,2,1,library_2,2,memory-2step-stake-s,752,3016528,0.0-19.0-0.1-0.249,A3TT7QV49VCZJ9,3Q9SPIIRXM2ML6FVM0W2D0Z2IA6WAR,3T3IWE1XGA3P2OGC6TTF503VCA9QTY,6,5
250,2,object_03,object_02,929.59999996424,4,2,255.39999997616,0.0,2,object_06,5,3138,0,0,0,forest_2,2,memory-2step-stake-s,753,3023994,0.0-19.0-0.1-0.250,A3TT7QV49VCZJ9,3Q9SPIIRXM2ML6FVM0W2D0Z2IA6WAR,3T3IWE1XGA3P2OGC6TTF503VCA9QTY,3,4
251,1,object_07,object_10,640.39999997616,1,2,291.30000001192,0.3333333333333333,1,object_08,5,3153,0,3,2,desert_7,2,memory-2step-stake-s,754,3031800,0.0-19.0-0.1-0.251,A3TT7QV49VCZJ9,3Q9SPIIRXM2ML6FVM0W2D0Z2IA6WAR,3T3IWE1XGA3P2OGC6TTF503VCA9QTY,2,1
252,3,object_09,object_05,832.5,5,1,65.599999964237,0.5555555555555556,1,object_08,1,3158,0,5,4,library_8,2,memory-2step-stake-s,755,3039582,0.0-19.0-0.1-0.252,A3TT7QV49VCZJ9,3Q9SPIIRXM2ML6FVM0W2D0Z2IA6WAR,3T3IWE1XGA3P2OGC6TTF503VCA9QTY,5,6
253,3,object_05,object_09,840.79999995232,5,2,314.29999995232,0.3333333333333333,1,object_08,5,3173,0,3,4,library_4,2,memory-2step-stake-s,756,3047412,0.0-19.0-0.1-0.253,A3TT7QV49VCZJ9,3Q9SPIIRXM2ML6FVM0W2D0Z2IA6WAR,3T3IWE1XGA3P2OGC6TTF503VCA9QTY,6,5
254,4,object_01,object_04,926.10000002384,7,1,166.89999997616,0.4444444444444444,1,object_08,1,3177,0,4,6,restaurant_6,2,memory-2step-stake-s,757,3055194,0.0-19.0-0.1-0.254,A3TT7QV49VCZJ9,3Q9SPIIRXM2ML6FVM0W2D0Z2IA6WAR,3T3IWE1XGA3P2OGC6TTF503VCA9QTY,7,8
255,1,object_10,object_07,648.39999997616,1,1,293.29999995232,0.4444444444444444,1,object_08,5,3197,0,4,8,desert_4,2,memory-2step-stake-s,758,3063101,0.0-19.0-0.1-0.255,A3TT7QV49VCZJ9,3Q9SPIIRXM2ML6FVM0W2D0Z2IA6WAR,3T3IWE1XGA3P2OGC6TTF503VCA9QTY,1,2
