,state1,stim_left,stim_right,rt_1,choice1,response1,rt_2,points,state2,stim_state2,stake,score,practice,rews1,rews2,background,high_arm,trial_type,trial_index,time_elapsed,internal_node_id,subid,hitid,assignmentid,stim_left_num,stim_right_num
0,4,object_01,object_10,1436.2999999523,8,1,-1.0,0.0,2,object_08,5,0,0,0,1,restaurant_6,2,memory-2step-stake-s,498,1216420,0.0-19.0-0.0-0.0,A5CIHEPULDFUF,3X52SWXE10LAELCT6ESTJVPQIDRWCT,3IO1LGZLKDDDUM54OM4M8ZQHYX586P,8,7
1,3,object_04,object_02,702.09999990463,5,1,452.60000002384,0.1111111111111111,1,object_06,1,1,0,1,1,library_5,2,memory-2step-stake-s,499,1224206,0.0-19.0-0.0-0.1,A5CIHEPULDFUF,3X52SWXE10LAELCT6ESTJVPQIDRWCT,3IO1LGZLKDDDUM54OM4M8ZQHYX586P,5,6
2,2,object_03,object_09,619.39999997616,4,2,373.69999992847,0.1111111111111111,2,object_08,1,2,0,4,1,forest_4,2,memory-2step-stake-s,500,1231917,0.0-19.0-0.0-0.2,A5CIHEPULDFUF,3X52SWXE10LAELCT6ESTJVPQIDRWCT,3IO1LGZLKDDDUM54OM4M8ZQHYX586P,3,4
3,3,object_02,object_04,357.89999997616,5,2,361.89999997616,0.1111111111111111,1,object_06,1,3,0,1,0,library_1,2,memory-2step-stake-s,501,1239617,0.0-19.0-0.0-0.3,A5CIHEPULDFUF,3X52SWXE10LAELCT6ESTJVPQIDRWCT,3IO1LGZLKDDDUM54OM4M8ZQHYX586P,6,5
4,4,object_10,object_01,336.40000009537,7,1,438.89999997616,0.1111111111111111,1,object_06,1,4,0,1,2,restaurant_1,2,memory-2step-stake-s,502,1247382,0.0-19.0-0.0-0.4,A5CIHEPULDFUF,3X52SWXE10LAELCT6ESTJVPQIDRWCT,3IO1LGZLKDDDUM54OM4M8ZQHYX586P,7,8
5,1,object_05,object_07,393.89999997616,1,2,519.90000009537,0.2222222222222222,1,object_06,5,14,0,2,3,desert_2,2,memory-2step-stake-s,503,1255366,0.0-19.0-0.0-0.5,A5CIHEPULDFUF,3X52SWXE10LAELCT6ESTJVPQIDRWCT,3IO1LGZLKDDDUM54OM4M8ZQHYX586P,2,1
6,4,object_10,object_01,262.10000002384,7,1,397.60000002384,0.1111111111111111,1,object_06,5,19,0,1,3,restaurant_2,2,memory-2step-stake-s,504,1263098,0.0-19.0-0.0-0.6,A5CIHEPULDFUF,3X52SWXE10LAELCT6ESTJVPQIDRWCT,3IO1LGZLKDDDUM54OM4M8ZQHYX586P,7,8
7,3,object_04,object_02,549.89999997616,6,2,640.20000004768,0.4444444444444444,2,object_08,1,23,0,0,4,library_1,2,memory-2step-stake-s,505,1271386,0.0-19.0-0.0-0.7,A5CIHEPULDFUF,3X52SWXE10LAELCT6ESTJVPQIDRWCT,3IO1LGZLKDDDUM54OM4M8ZQHYX586P,5,6
8,3,object_04,object_02,625.10000002384,5,1,525.60000002384,0.1111111111111111,1,object_06,1,24,0,1,5,library_1,2,memory-2step-stake-s,506,1279257,0.0-19.0-0.0-0.8,A5CIHEPULDFUF,3X52SWXE10LAELCT6ESTJVPQIDRWCT,3IO1LGZLKDDDUM54OM4M8ZQHYX586P,5,6
9,1,object_07,object_05,600.39999997616,1,1,465.29999995232,0.3333333333333333,1,object_06,5,39,0,3,9,desert_7,2,memory-2step-stake-s,507,1287274,0.0-19.0-0.0-0.9,A5CIHEPULDFUF,3X52SWXE10LAELCT6ESTJVPQIDRWCT,3IO1LGZLKDDDUM54OM4M8ZQHYX586P,1,2
10,1,object_05,object_07,446.89999997616,1,2,403.5,0.4444444444444444,1,object_06,5,59,0,4,8,desert_2,2,memory-2step-stake-s,508,1295343,0.0-19.0-0.0-0.10,A5CIHEPULDFUF,3X52SWXE10LAELCT6ESTJVPQIDRWCT,3IO1LGZLKDDDUM54OM4M8ZQHYX586P,2,1
11,4,object_10,object_01,415.5,7,1,532.79999995232,0.4444444444444444,1,object_06,1,63,0,4,5,restaurant_2,2,memory-2step-stake-s,509,1303521,0.0-19.0-0.0-0.11,A5CIHEPULDFUF,3X52SWXE10LAELCT6ESTJVPQIDRWCT,3IO1LGZLKDDDUM54OM4M8ZQHYX586P,7,8
12,2,object_03,object_09,828.90000009537,3,1,672.70000004768,0.3333333333333333,1,object_06,5,78,0,3,5,forest_2,2,memory-2step-stake-s,510,1311727,0.0-19.0-0.0-0.12,A5CIHEPULDFUF,3X52SWXE10LAELCT6ESTJVPQIDRWCT,3IO1LGZLKDDDUM54OM4M8ZQHYX586P,3,4
13,3,object_02,object_04,597.5,5,2,537.40000009537,0.1111111111111111,1,object_06,5,83,0,1,1,library_5,2,memory-2step-stake-s,511,1319600,0.0-19.0-0.0-0.13,A5CIHEPULDFUF,3X52SWXE10LAELCT6ESTJVPQIDRWCT,3IO1LGZLKDDDUM54OM4M8ZQHYX586P,6,5
14,3,object_02,object_04,354.30000007153,6,1,547.39999997616,0.1111111111111111,2,object_08,1,84,0,0,1,library_8,2,memory-2step-stake-s,512,1327475,0.0-19.0-0.0-0.14,A5CIHEPULDFUF,3X52SWXE10LAELCT6ESTJVPQIDRWCT,3IO1LGZLKDDDUM54OM4M8ZQHYX586P,6,5
15,4,object_10,object_01,511.09999990463,8,2,617.29999995232,0.1111111111111111,2,object_08,5,89,0,4,1,restaurant_7,2,memory-2step-stake-s,513,1335421,0.0-19.0-0.0-0.15,A5CIHEPULDFUF,3X52SWXE10LAELCT6ESTJVPQIDRWCT,3IO1LGZLKDDDUM54OM4M8ZQHYX586P,7,8
16,4,object_01,object_10,661.5,7,2,526.60000002384,0.4444444444444444,1,object_06,1,93,0,4,1,restaurant_6,2,memory-2step-stake-s,514,1343580,0.0-19.0-0.0-0.16,A5CIHEPULDFUF,3X52SWXE10LAELCT6ESTJVPQIDRWCT,3IO1LGZLKDDDUM54OM4M8ZQHYX586P,8,7
17,3,object_04,object_02,528.80000007153,5,1,498.29999995232,0.5555555555555556,1,object_06,1,98,0,5,1,library_1,2,memory-2step-stake-s,515,1351814,0.0-19.0-0.0-0.17,A5CIHEPULDFUF,3X52SWXE10LAELCT6ESTJVPQIDRWCT,3IO1LGZLKDDDUM54OM4M8ZQHYX586P,5,6
18,4,object_10,object_01,576.89999997616,8,2,553.29999995232,0.3333333333333333,2,object_08,1,101,0,3,3,restaurant_2,2,memory-2step-stake-s,516,1359904,0.0-19.0-0.0-0.18,A5CIHEPULDFUF,3X52SWXE10LAELCT6ESTJVPQIDRWCT,3IO1LGZLKDDDUM54OM4M8ZQHYX586P,7,8
19,2,object_09,object_03,807.09999990463,3,2,547.60000002384,0.8888888888888888,1,object_06,5,141,0,8,3,forest_6,2,memory-2step-stake-s,517,1368493,0.0-19.0-0.0-0.19,A5CIHEPULDFUF,3X52SWXE10LAELCT6ESTJVPQIDRWCT,3IO1LGZLKDDDUM54OM4M8ZQHYX586P,4,3
20,3,object_02,object_04,615.09999990463,6,1,656.5,0.1111111111111111,2,object_08,1,142,0,9,1,library_8,2,memory-2step-stake-s,518,1376480,0.0-19.0-0.0-0.20,A5CIHEPULDFUF,3X52SWXE10LAELCT6ESTJVPQIDRWCT,3IO1LGZLKDDDUM54OM4M8ZQHYX586P,6,5
21,3,object_04,object_02,465.30000007153,6,2,713.60000002384,0.0,2,object_08,1,142,0,6,0,library_5,2,memory-2step-stake-s,519,1384417,0.0-19.0-0.0-0.21,A5CIHEPULDFUF,3X52SWXE10LAELCT6ESTJVPQIDRWCT,3IO1LGZLKDDDUM54OM4M8ZQHYX586P,5,6
22,1,object_05,object_07,287.40000009537,2,1,435.30000007153,0.4444444444444444,2,object_08,1,146,0,9,4,desert_7,2,memory-2step-stake-s,520,1392505,0.0-19.0-0.0-0.22,A5CIHEPULDFUF,3X52SWXE10LAELCT6ESTJVPQIDRWCT,3IO1LGZLKDDDUM54OM4M8ZQHYX586P,2,1
23,1,object_07,object_05,551.39999997616,1,1,445.20000004768,0.5555555555555556,1,object_06,5,171,0,5,4,desert_1,2,memory-2step-stake-s,521,1400696,0.0-19.0-0.0-0.23,A5CIHEPULDFUF,3X52SWXE10LAELCT6ESTJVPQIDRWCT,3IO1LGZLKDDDUM54OM4M8ZQHYX586P,1,2
24,3,object_02,object_04,542.40000009537,5,2,463.5,0.4444444444444444,1,object_06,1,175,0,4,0,library_1,2,memory-2step-stake-s,522,1408810,0.0-19.0-0.0-0.24,A5CIHEPULDFUF,3X52SWXE10LAELCT6ESTJVPQIDRWCT,3IO1LGZLKDDDUM54OM4M8ZQHYX586P,6,5
25,4,object_10,object_01,550.79999995232,7,1,628.5,0.0,1,object_06,1,175,0,0,1,restaurant_7,2,memory-2step-stake-s,523,1416664,0.0-19.0-0.0-0.25,A5CIHEPULDFUF,3X52SWXE10LAELCT6ESTJVPQIDRWCT,3IO1LGZLKDDDUM54OM4M8ZQHYX586P,7,8
26,2,object_09,object_03,489.19999992847,3,2,492.30000007153,0.6666666666666666,1,object_06,5,205,0,6,1,forest_3,2,memory-2step-stake-s,524,1425007,0.0-19.0-0.0-0.26,A5CIHEPULDFUF,3X52SWXE10LAELCT6ESTJVPQIDRWCT,3IO1LGZLKDDDUM54OM4M8ZQHYX586P,4,3
27,3,object_02,object_04,854.5,5,2,470.90000009537,0.6666666666666666,1,object_06,5,235,0,6,4,library_8,2,memory-2step-stake-s,525,1433324,0.0-19.0-0.0-0.27,A5CIHEPULDFUF,3X52SWXE10LAELCT6ESTJVPQIDRWCT,3IO1LGZLKDDDUM54OM4M8ZQHYX586P,6,5
28,2,object_03,object_09,482.40000009537,3,1,809.0,0.8888888888888888,1,object_06,1,243,0,8,2,forest_2,2,memory-2step-stake-s,526,1442170,0.0-19.0-0.0-0.28,A5CIHEPULDFUF,3X52SWXE10LAELCT6ESTJVPQIDRWCT,3IO1LGZLKDDDUM54OM4M8ZQHYX586P,3,4
29,1,object_07,object_05,357.70000004768,2,2,490.70000004768,0.3333333333333333,2,object_08,5,258,0,5,3,desert_7,2,memory-2step-stake-s,527,1450192,0.0-19.0-0.0-0.29,A5CIHEPULDFUF,3X52SWXE10LAELCT6ESTJVPQIDRWCT,3IO1LGZLKDDDUM54OM4M8ZQHYX586P,1,2
30,2,object_03,object_09,480.0,3,1,609.10000002384,0.6666666666666666,1,object_06,5,288,0,6,2,forest_3,2,memory-2step-stake-s,528,1458640,0.0-19.0-0.0-0.30,A5CIHEPULDFUF,3X52SWXE10LAELCT6ESTJVPQIDRWCT,3IO1LGZLKDDDUM54OM4M8ZQHYX586P,3,4
31,4,object_10,object_01,332.30000007153,8,2,430.5,0.1111111111111111,2,object_08,1,289,0,4,1,restaurant_2,2,memory-2step-stake-s,529,1466401,0.0-19.0-0.0-0.31,A5CIHEPULDFUF,3X52SWXE10LAELCT6ESTJVPQIDRWCT,3IO1LGZLKDDDUM54OM4M8ZQHYX586P,7,8
32,1,object_07,object_05,365.39999997616,1,1,306.10000002384,0.5555555555555556,1,object_06,5,314,0,5,2,desert_6,2,memory-2step-stake-s,530,1474436,0.0-19.0-0.0-0.32,A5CIHEPULDFUF,3X52SWXE10LAELCT6ESTJVPQIDRWCT,3IO1LGZLKDDDUM54OM4M8ZQHYX586P,1,2
33,4,object_10,object_01,348.79999995232,7,1,482.39999997616,0.2222222222222222,1,object_06,1,316,0,2,6,restaurant_6,2,memory-2step-stake-s,531,1482344,0.0-19.0-0.0-0.33,A5CIHEPULDFUF,3X52SWXE10LAELCT6ESTJVPQIDRWCT,3IO1LGZLKDDDUM54OM4M8ZQHYX586P,7,8
34,4,object_01,object_10,433.10000002384,8,1,422.10000002384,0.7777777777777778,2,object_08,5,351,0,2,7,restaurant_7,2,memory-2step-stake-s,532,1490697,0.0-19.0-0.0-0.34,A5CIHEPULDFUF,3X52SWXE10LAELCT6ESTJVPQIDRWCT,3IO1LGZLKDDDUM54OM4M8ZQHYX586P,8,7
35,2,object_03,object_09,292.5,3,1,372.39999997616,0.2222222222222222,1,object_06,5,361,0,2,7,forest_4,2,memory-2step-stake-s,533,1498515,0.0-19.0-0.0-0.35,A5CIHEPULDFUF,3X52SWXE10LAELCT6ESTJVPQIDRWCT,3IO1LGZLKDDDUM54OM4M8ZQHYX586P,3,4
36,2,object_09,object_03,465.0,3,2,296.5,0.2222222222222222,1,object_06,1,363,0,2,5,forest_3,2,memory-2step-stake-s,534,1506237,0.0-19.0-0.0-0.36,A5CIHEPULDFUF,3X52SWXE10LAELCT6ESTJVPQIDRWCT,3IO1LGZLKDDDUM54OM4M8ZQHYX586P,4,3
37,4,object_10,object_01,307.89999997616,7,1,485.5,0.0,1,object_06,1,363,0,0,2,restaurant_7,2,memory-2step-stake-s,535,1513947,0.0-19.0-0.0-0.37,A5CIHEPULDFUF,3X52SWXE10LAELCT6ESTJVPQIDRWCT,3IO1LGZLKDDDUM54OM4M8ZQHYX586P,7,8
38,3,object_02,object_04,363.60000002384,5,2,506.5,0.3333333333333333,1,object_06,1,366,0,3,5,library_1,2,memory-2step-stake-s,536,1521996,0.0-19.0-0.0-0.38,A5CIHEPULDFUF,3X52SWXE10LAELCT6ESTJVPQIDRWCT,3IO1LGZLKDDDUM54OM4M8ZQHYX586P,6,5
39,1,object_05,object_07,274.69999992847,2,1,301.10000002384,1.0,2,object_08,5,411,0,3,9,desert_6,2,memory-2step-stake-s,537,1530450,0.0-19.0-0.0-0.39,A5CIHEPULDFUF,3X52SWXE10LAELCT6ESTJVPQIDRWCT,3IO1LGZLKDDDUM54OM4M8ZQHYX586P,2,1
40,3,object_02,object_04,1269.3999999762,5,2,421.09999990463,0.6666666666666666,1,object_06,1,417,0,6,8,library_1,2,memory-2step-stake-s,538,1538726,0.0-19.0-0.0-0.40,A5CIHEPULDFUF,3X52SWXE10LAELCT6ESTJVPQIDRWCT,3IO1LGZLKDDDUM54OM4M8ZQHYX586P,6,5
41,3,object_02,object_04,294.5,6,1,390.0,0.7777777777777778,2,object_08,5,452,0,5,7,library_5,2,memory-2step-stake-s,539,1547062,0.0-19.0-0.0-0.41,A5CIHEPULDFUF,3X52SWXE10LAELCT6ESTJVPQIDRWCT,3IO1LGZLKDDDUM54OM4M8ZQHYX586P,6,5
42,4,object_01,object_10,309.60000002384,7,2,681.60000002384,0.4444444444444444,1,object_06,1,456,0,4,5,restaurant_6,2,memory-2step-stake-s,540,1555395,0.0-19.0-0.0-0.42,A5CIHEPULDFUF,3X52SWXE10LAELCT6ESTJVPQIDRWCT,3IO1LGZLKDDDUM54OM4M8ZQHYX586P,8,7
43,2,object_03,object_09,332.90000009537,3,1,419.09999990463,0.4444444444444444,1,object_06,5,476,0,4,5,forest_2,2,memory-2step-stake-s,541,1563454,0.0-19.0-0.0-0.43,A5CIHEPULDFUF,3X52SWXE10LAELCT6ESTJVPQIDRWCT,3IO1LGZLKDDDUM54OM4M8ZQHYX586P,3,4
44,3,object_04,object_02,373.90000009537,6,2,398.89999997616,0.7777777777777778,2,object_08,1,483,0,5,7,library_8,2,memory-2step-stake-s,542,1571809,0.0-19.0-0.0-0.44,A5CIHEPULDFUF,3X52SWXE10LAELCT6ESTJVPQIDRWCT,3IO1LGZLKDDDUM54OM4M8ZQHYX586P,5,6
45,1,object_05,object_07,350.30000007153,1,2,286.30000007153,0.6666666666666666,1,object_06,5,513,0,6,6,desert_6,2,memory-2step-stake-s,543,1579937,0.0-19.0-0.0-0.45,A5CIHEPULDFUF,3X52SWXE10LAELCT6ESTJVPQIDRWCT,3IO1LGZLKDDDUM54OM4M8ZQHYX586P,2,1
46,4,object_10,object_01,397.5,7,1,527.19999992847,0.1111111111111111,1,object_06,5,518,0,1,5,restaurant_1,2,memory-2step-stake-s,544,1587788,0.0-19.0-0.0-0.46,A5CIHEPULDFUF,3X52SWXE10LAELCT6ESTJVPQIDRWCT,3IO1LGZLKDDDUM54OM4M8ZQHYX586P,7,8
47,4,object_01,object_10,833.10000002384,7,2,1445.6000000238,0.3333333333333333,1,object_06,1,521,0,3,5,restaurant_1,2,memory-2step-stake-s,545,1596760,0.0-19.0-0.0-0.47,A5CIHEPULDFUF,3X52SWXE10LAELCT6ESTJVPQIDRWCT,3IO1LGZLKDDDUM54OM4M8ZQHYX586P,8,7
48,1,object_05,object_07,802.89999997616,1,2,459.60000002384,0.1111111111111111,1,object_06,5,526,0,1,2,desert_6,2,memory-2step-stake-s,546,1604545,0.0-19.0-0.0-0.48,A5CIHEPULDFUF,3X52SWXE10LAELCT6ESTJVPQIDRWCT,3IO1LGZLKDDDUM54OM4M8ZQHYX586P,2,1
49,2,object_09,object_03,539.20000004768,4,1,515.19999992847,0.2222222222222222,2,object_08,5,536,0,0,2,forest_2,2,memory-2step-stake-s,547,1612491,0.0-19.0-0.0-0.49,A5CIHEPULDFUF,3X52SWXE10LAELCT6ESTJVPQIDRWCT,3IO1LGZLKDDDUM54OM4M8ZQHYX586P,4,3
50,4,object_10,object_01,353.80000007153,8,2,477.70000004768,0.2222222222222222,2,object_08,1,538,0,2,2,restaurant_7,2,memory-2step-stake-s,548,1620398,0.0-19.0-0.0-0.50,A5CIHEPULDFUF,3X52SWXE10LAELCT6ESTJVPQIDRWCT,3IO1LGZLKDDDUM54OM4M8ZQHYX586P,7,8
51,4,object_10,object_01,370.89999997616,7,1,522.10000002384,0.2222222222222222,1,object_06,1,540,0,2,2,restaurant_6,2,memory-2step-stake-s,549,1628353,0.0-19.0-0.0-0.51,A5CIHEPULDFUF,3X52SWXE10LAELCT6ESTJVPQIDRWCT,3IO1LGZLKDDDUM54OM4M8ZQHYX586P,7,8
52,3,object_02,object_04,392.0,5,2,435.70000004768,0.0,1,object_06,1,540,0,0,0,library_5,2,memory-2step-stake-s,550,1636017,0.0-19.0-0.0-0.52,A5CIHEPULDFUF,3X52SWXE10LAELCT6ESTJVPQIDRWCT,3IO1LGZLKDDDUM54OM4M8ZQHYX586P,6,5
53,4,object_10,object_01,614.0,7,1,750.60000002384,0.0,1,object_06,1,540,0,0,6,restaurant_7,2,memory-2step-stake-s,551,1643991,0.0-19.0-0.0-0.53,A5CIHEPULDFUF,3X52SWXE10LAELCT6ESTJVPQIDRWCT,3IO1LGZLKDDDUM54OM4M8ZQHYX586P,7,8
54,4,object_10,object_01,358.39999997616,8,2,477.60000002384,0.5555555555555556,2,object_08,1,545,0,0,5,restaurant_7,2,memory-2step-stake-s,552,1652222,0.0-19.0-0.0-0.54,A5CIHEPULDFUF,3X52SWXE10LAELCT6ESTJVPQIDRWCT,3IO1LGZLKDDDUM54OM4M8ZQHYX586P,7,8
55,2,object_03,object_09,356.69999992847,3,1,620.39999997616,0.1111111111111111,1,object_06,5,550,0,1,2,forest_2,2,memory-2step-stake-s,553,1660181,0.0-19.0-0.0-0.55,A5CIHEPULDFUF,3X52SWXE10LAELCT6ESTJVPQIDRWCT,3IO1LGZLKDDDUM54OM4M8ZQHYX586P,3,4
56,1,object_07,object_05,487.69999992847,2,2,574.5,0.0,2,object_08,5,550,0,2,0,desert_2,2,memory-2step-stake-s,554,1667993,0.0-19.0-0.0-0.56,A5CIHEPULDFUF,3X52SWXE10LAELCT6ESTJVPQIDRWCT,3IO1LGZLKDDDUM54OM4M8ZQHYX586P,1,2
57,2,object_03,object_09,394.29999995232,3,1,663.10000002384,0.5555555555555556,1,object_06,5,575,0,5,3,forest_3,2,memory-2step-stake-s,555,1676410,0.0-19.0-0.0-0.57,A5CIHEPULDFUF,3X52SWXE10LAELCT6ESTJVPQIDRWCT,3IO1LGZLKDDDUM54OM4M8ZQHYX586P,3,4
58,3,object_04,object_02,320.89999997616,6,2,532.20000004768,0.3333333333333333,2,object_08,1,578,0,1,3,library_5,2,memory-2step-stake-s,556,1684482,0.0-19.0-0.0-0.58,A5CIHEPULDFUF,3X52SWXE10LAELCT6ESTJVPQIDRWCT,3IO1LGZLKDDDUM54OM4M8ZQHYX586P,5,6
59,3,object_02,object_04,367.79999995232,6,1,691.60000002384,0.4444444444444444,2,object_08,1,582,0,1,4,library_1,2,memory-2step-stake-s,557,1692826,0.0-19.0-0.0-0.59,A5CIHEPULDFUF,3X52SWXE10LAELCT6ESTJVPQIDRWCT,3IO1LGZLKDDDUM54OM4M8ZQHYX586P,6,5
60,3,object_02,object_04,356.69999992847,6,1,596.89999997616,0.3333333333333333,2,object_08,1,585,0,1,3,library_8,2,memory-2step-stake-s,558,1700955,0.0-19.0-0.0-0.60,A5CIHEPULDFUF,3X52SWXE10LAELCT6ESTJVPQIDRWCT,3IO1LGZLKDDDUM54OM4M8ZQHYX586P,6,5
61,3,object_02,object_04,671.29999995232,5,2,512.60000002384,0.2222222222222222,1,object_06,1,587,0,2,1,library_5,2,memory-2step-stake-s,559,1708902,0.0-19.0-0.0-0.61,A5CIHEPULDFUF,3X52SWXE10LAELCT6ESTJVPQIDRWCT,3IO1LGZLKDDDUM54OM4M8ZQHYX586P,6,5
62,4,object_10,object_01,339.19999992847,7,1,753.19999992847,0.4444444444444444,1,object_06,5,607,0,4,1,restaurant_7,2,memory-2step-stake-s,560,1717295,0.0-19.0-0.0-0.62,A5CIHEPULDFUF,3X52SWXE10LAELCT6ESTJVPQIDRWCT,3IO1LGZLKDDDUM54OM4M8ZQHYX586P,7,8
63,2,object_09,object_03,410.0,4,1,1411.6000000238,0.0,2,object_08,1,607,0,5,0,forest_6,2,memory-2step-stake-s,561,1725930,0.0-19.0-0.0-0.63,A5CIHEPULDFUF,3X52SWXE10LAELCT6ESTJVPQIDRWCT,3IO1LGZLKDDDUM54OM4M8ZQHYX586P,4,3
64,3,object_04,object_02,590.39999997616,5,1,693.89999997616,0.4444444444444444,1,object_06,1,611,0,4,4,library_5,2,memory-2step-stake-s,562,1734251,0.0-19.0-0.0-0.64,A5CIHEPULDFUF,3X52SWXE10LAELCT6ESTJVPQIDRWCT,3IO1LGZLKDDDUM54OM4M8ZQHYX586P,5,6
65,1,object_07,object_05,281.60000002384,1,1,-1.0,0.0,1,object_06,5,611,0,3,7,desert_7,2,memory-2step-stake-s,563,1742775,0.0-19.0-0.0-0.65,A5CIHEPULDFUF,3X52SWXE10LAELCT6ESTJVPQIDRWCT,3IO1LGZLKDDDUM54OM4M8ZQHYX586P,1,2
66,2,object_09,object_03,397.0,4,1,484.29999995232,0.4444444444444444,2,object_08,1,615,0,4,4,forest_6,2,memory-2step-stake-s,564,1750893,0.0-19.0-0.0-0.66,A5CIHEPULDFUF,3X52SWXE10LAELCT6ESTJVPQIDRWCT,3IO1LGZLKDDDUM54OM4M8ZQHYX586P,4,3
67,4,object_10,object_01,527.20000004768,7,1,589.69999992847,0.3333333333333333,1,object_06,1,618,0,3,3,restaurant_1,2,memory-2step-stake-s,565,1759022,0.0-19.0-0.0-0.67,A5CIHEPULDFUF,3X52SWXE10LAELCT6ESTJVPQIDRWCT,3IO1LGZLKDDDUM54OM4M8ZQHYX586P,7,8
68,1,object_07,object_05,308.5,1,1,411.40000009537,0.2222222222222222,1,object_06,5,628,0,2,8,desert_7,2,memory-2step-stake-s,566,1766865,0.0-19.0-0.0-0.68,A5CIHEPULDFUF,3X52SWXE10LAELCT6ESTJVPQIDRWCT,3IO1LGZLKDDDUM54OM4M8ZQHYX586P,1,2
69,4,object_01,object_10,345.59999990463,8,1,-1.0,0.0,2,object_08,1,628,0,6,6,restaurant_1,2,memory-2step-stake-s,567,1775388,0.0-19.0-0.0-0.69,A5CIHEPULDFUF,3X52SWXE10LAELCT6ESTJVPQIDRWCT,3IO1LGZLKDDDUM54OM4M8ZQHYX586P,8,7
70,2,object_03,object_09,918.69999992847,4,2,637.80000007153,0.6666666666666666,2,object_08,1,634,0,5,6,forest_3,2,memory-2step-stake-s,568,1783866,0.0-19.0-0.0-0.70,A5CIHEPULDFUF,3X52SWXE10LAELCT6ESTJVPQIDRWCT,3IO1LGZLKDDDUM54OM4M8ZQHYX586P,3,4
71,1,object_07,object_05,416.5,1,1,420.0,0.7777777777777778,1,object_06,5,669,0,7,9,desert_1,2,memory-2step-stake-s,569,1792246,0.0-19.0-0.0-0.71,A5CIHEPULDFUF,3X52SWXE10LAELCT6ESTJVPQIDRWCT,3IO1LGZLKDDDUM54OM4M8ZQHYX586P,1,2
72,4,object_01,object_10,512.60000002384,8,1,1196.8000000715,0.8888888888888888,2,object_08,1,677,0,7,8,restaurant_2,2,memory-2step-stake-s,570,1801496,0.0-19.0-0.0-0.72,A5CIHEPULDFUF,3X52SWXE10LAELCT6ESTJVPQIDRWCT,3IO1LGZLKDDDUM54OM4M8ZQHYX586P,8,7
73,3,object_04,object_02,339.70000004768,5,1,498.5,0.2222222222222222,1,object_06,1,679,0,2,9,library_1,2,memory-2step-stake-s,571,1809424,0.0-19.0-0.0-0.73,A5CIHEPULDFUF,3X52SWXE10LAELCT6ESTJVPQIDRWCT,3IO1LGZLKDDDUM54OM4M8ZQHYX586P,5,6
74,1,object_07,object_05,290.79999995232,2,2,444.69999992847,1.0,2,object_08,5,724,0,2,9,desert_6,2,memory-2step-stake-s,572,1818010,0.0-19.0-0.0-0.74,A5CIHEPULDFUF,3X52SWXE10LAELCT6ESTJVPQIDRWCT,3IO1LGZLKDDDUM54OM4M8ZQHYX586P,1,2
75,1,object_07,object_05,288.0,1,1,485.0,0.2222222222222222,1,object_06,5,734,0,2,8,desert_7,2,memory-2step-stake-s,573,1825927,0.0-19.0-0.0-0.75,A5CIHEPULDFUF,3X52SWXE10LAELCT6ESTJVPQIDRWCT,3IO1LGZLKDDDUM54OM4M8ZQHYX586P,1,2
76,3,object_02,object_04,401.80000007153,5,2,569.0,0.1111111111111111,1,object_06,1,735,0,1,7,library_1,2,memory-2step-stake-s,574,1833826,0.0-19.0-0.0-0.76,A5CIHEPULDFUF,3X52SWXE10LAELCT6ESTJVPQIDRWCT,3IO1LGZLKDDDUM54OM4M8ZQHYX586P,6,5
77,3,object_04,object_02,360.0,5,1,481.79999995232,0.1111111111111111,1,object_06,1,736,0,1,5,library_8,2,memory-2step-stake-s,575,1841641,0.0-19.0-0.0-0.77,A5CIHEPULDFUF,3X52SWXE10LAELCT6ESTJVPQIDRWCT,3IO1LGZLKDDDUM54OM4M8ZQHYX586P,5,6
78,3,object_02,object_04,440.0,5,2,1466.3999999762,0.2222222222222222,1,object_06,5,746,0,2,5,library_2,2,memory-2step-stake-s,576,1850542,0.0-19.0-0.0-0.78,A5CIHEPULDFUF,3X52SWXE10LAELCT6ESTJVPQIDRWCT,3IO1LGZLKDDDUM54OM4M8ZQHYX586P,6,5
79,2,object_09,object_03,559.80000007153,3,2,533.0,0.2222222222222222,1,object_06,5,756,0,2,5,forest_2,2,memory-2step-stake-s,577,1858503,0.0-19.0-0.0-0.79,A5CIHEPULDFUF,3X52SWXE10LAELCT6ESTJVPQIDRWCT,3IO1LGZLKDDDUM54OM4M8ZQHYX586P,4,3
80,1,object_07,object_05,625.89999997616,1,1,420.79999995232,0.3333333333333333,1,object_06,5,771,0,3,5,desert_1,2,memory-2step-stake-s,578,1866465,0.0-19.0-0.0-0.80,A5CIHEPULDFUF,3X52SWXE10LAELCT6ESTJVPQIDRWCT,3IO1LGZLKDDDUM54OM4M8ZQHYX586P,1,2
81,1,object_07,object_05,246.09999990463,2,2,525.0,0.5555555555555556,2,object_08,5,796,0,1,5,desert_7,2,memory-2step-stake-s,579,1874732,0.0-19.0-0.0-0.81,A5CIHEPULDFUF,3X52SWXE10LAELCT6ESTJVPQIDRWCT,3IO1LGZLKDDDUM54OM4M8ZQHYX586P,1,2
82,1,object_07,object_05,638.60000002384,1,1,614.69999992847,0.2222222222222222,1,object_06,1,798,0,2,6,desert_7,2,memory-2step-stake-s,580,1882792,0.0-19.0-0.0-0.82,A5CIHEPULDFUF,3X52SWXE10LAELCT6ESTJVPQIDRWCT,3IO1LGZLKDDDUM54OM4M8ZQHYX586P,1,2
83,3,object_04,object_02,296.20000004768,6,2,718.10000002384,0.5555555555555556,2,object_08,1,803,0,3,5,library_1,2,memory-2step-stake-s,581,1891243,0.0-19.0-0.0-0.83,A5CIHEPULDFUF,3X52SWXE10LAELCT6ESTJVPQIDRWCT,3IO1LGZLKDDDUM54OM4M8ZQHYX586P,5,6
84,4,object_01,object_10,479.20000004768,8,1,431.60000002384,0.3333333333333333,2,object_08,1,806,0,0,3,restaurant_1,2,memory-2step-stake-s,582,1899205,0.0-19.0-0.0-0.84,A5CIHEPULDFUF,3X52SWXE10LAELCT6ESTJVPQIDRWCT,3IO1LGZLKDDDUM54OM4M8ZQHYX586P,8,7
85,3,object_02,object_04,554.79999995232,5,2,1230.8000000715,0.0,1,object_06,1,806,0,0,1,library_8,2,memory-2step-stake-s,583,1907656,0.0-19.0-0.0-0.85,A5CIHEPULDFUF,3X52SWXE10LAELCT6ESTJVPQIDRWCT,3IO1LGZLKDDDUM54OM4M8ZQHYX586P,6,5
86,2,object_03,object_09,569.70000004768,4,2,471.20000004768,0.4444444444444444,2,object_08,5,826,0,0,4,forest_4,2,memory-2step-stake-s,584,1915761,0.0-19.0-0.0-0.86,A5CIHEPULDFUF,3X52SWXE10LAELCT6ESTJVPQIDRWCT,3IO1LGZLKDDDUM54OM4M8ZQHYX586P,3,4
87,3,object_02,object_04,523.5,6,1,517.5,0.2222222222222222,2,object_08,1,828,0,3,2,library_8,2,memory-2step-stake-s,585,1923709,0.0-19.0-0.0-0.87,A5CIHEPULDFUF,3X52SWXE10LAELCT6ESTJVPQIDRWCT,3IO1LGZLKDDDUM54OM4M8ZQHYX586P,6,5
88,4,object_01,object_10,340.20000004768,7,2,566.89999997616,0.3333333333333333,1,object_06,1,831,0,3,3,restaurant_7,2,memory-2step-stake-s,586,1931807,0.0-19.0-0.0-0.88,A5CIHEPULDFUF,3X52SWXE10LAELCT6ESTJVPQIDRWCT,3IO1LGZLKDDDUM54OM4M8ZQHYX586P,8,7
89,4,object_01,object_10,610.69999992847,8,1,401.10000002384,0.4444444444444444,2,object_08,5,851,0,5,4,restaurant_2,2,memory-2step-stake-s,587,1939855,0.0-19.0-0.0-0.89,A5CIHEPULDFUF,3X52SWXE10LAELCT6ESTJVPQIDRWCT,3IO1LGZLKDDDUM54OM4M8ZQHYX586P,8,7
90,2,object_09,object_03,345.0,3,2,1302.5999999046,1.0,1,object_06,5,896,0,9,3,forest_2,2,memory-2step-stake-s,588,1949338,0.0-19.0-0.0-0.90,A5CIHEPULDFUF,3X52SWXE10LAELCT6ESTJVPQIDRWCT,3IO1LGZLKDDDUM54OM4M8ZQHYX586P,4,3
91,3,object_04,object_02,303.29999995232,6,2,444.29999995232,0.2222222222222222,2,object_08,5,906,0,9,2,library_8,2,memory-2step-stake-s,589,1957214,0.0-19.0-0.0-0.91,A5CIHEPULDFUF,3X52SWXE10LAELCT6ESTJVPQIDRWCT,3IO1LGZLKDDDUM54OM4M8ZQHYX586P,5,6
92,4,object_10,object_01,397.60000002384,7,1,-1.0,0.0,1,object_06,5,906,0,7,4,restaurant_6,2,memory-2step-stake-s,590,1965750,0.0-19.0-0.0-0.92,A5CIHEPULDFUF,3X52SWXE10LAELCT6ESTJVPQIDRWCT,3IO1LGZLKDDDUM54OM4M8ZQHYX586P,7,8
93,2,object_09,object_03,311.89999997616,3,2,420.0,0.6666666666666666,1,object_06,5,936,0,6,4,forest_4,2,memory-2step-stake-s,591,1974016,0.0-19.0-0.0-0.93,A5CIHEPULDFUF,3X52SWXE10LAELCT6ESTJVPQIDRWCT,3IO1LGZLKDDDUM54OM4M8ZQHYX586P,4,3
94,3,object_04,object_02,546.39999997616,5,1,619.89999997616,0.7777777777777778,1,object_06,1,943,0,7,9,library_8,2,memory-2step-stake-s,592,1982588,0.0-19.0-0.0-0.94,A5CIHEPULDFUF,3X52SWXE10LAELCT6ESTJVPQIDRWCT,3IO1LGZLKDDDUM54OM4M8ZQHYX586P,5,6
95,1,object_07,object_05,372.10000002384,2,2,462.40000009537,0.7777777777777778,2,object_08,5,978,0,6,7,desert_2,2,memory-2step-stake-s,593,1991008,0.0-19.0-0.0-0.95,A5CIHEPULDFUF,3X52SWXE10LAELCT6ESTJVPQIDRWCT,3IO1LGZLKDDDUM54OM4M8ZQHYX586P,1,2
96,3,object_02,object_04,326.30000007153,6,1,555.89999997616,0.5555555555555556,2,object_08,5,1003,0,2,5,library_5,2,memory-2step-stake-s,594,1999328,0.0-19.0-0.0-0.96,A5CIHEPULDFUF,3X52SWXE10LAELCT6ESTJVPQIDRWCT,3IO1LGZLKDDDUM54OM4M8ZQHYX586P,6,5
97,2,object_09,object_03,475.89999997616,4,1,443.10000002384,0.6666666666666666,2,object_08,5,1033,0,2,6,forest_4,2,memory-2step-stake-s,595,2007604,0.0-19.0-0.0-0.97,A5CIHEPULDFUF,3X52SWXE10LAELCT6ESTJVPQIDRWCT,3IO1LGZLKDDDUM54OM4M8ZQHYX586P,4,3
98,2,object_09,object_03,528.70000004768,4,1,601.5,0.8888888888888888,2,object_08,5,1073,0,2,8,forest_4,2,memory-2step-stake-s,596,2016256,0.0-19.0-0.0-0.98,A5CIHEPULDFUF,3X52SWXE10LAELCT6ESTJVPQIDRWCT,3IO1LGZLKDDDUM54OM4M8ZQHYX586P,4,3
99,2,object_03,object_09,454.5,3,1,654.39999997616,0.2222222222222222,1,object_06,5,1083,0,2,6,forest_6,2,memory-2step-stake-s,597,2024334,0.0-19.0-0.0-0.99,A5CIHEPULDFUF,3X52SWXE10LAELCT6ESTJVPQIDRWCT,3IO1LGZLKDDDUM54OM4M8ZQHYX586P,3,4
100,4,object_10,object_01,391.5,7,1,463.10000002384,0.4444444444444444,1,object_06,1,1087,0,4,5,restaurant_2,2,memory-2step-stake-s,598,2032426,0.0-19.0-0.0-0.100,A5CIHEPULDFUF,3X52SWXE10LAELCT6ESTJVPQIDRWCT,3IO1LGZLKDDDUM54OM4M8ZQHYX586P,7,8
101,4,object_10,object_01,315.0,7,1,516.80000007153,0.8888888888888888,1,object_06,1,1095,0,8,2,restaurant_2,2,memory-2step-stake-s,599,2041007,0.0-19.0-0.0-0.101,A5CIHEPULDFUF,3X52SWXE10LAELCT6ESTJVPQIDRWCT,3IO1LGZLKDDDUM54OM4M8ZQHYX586P,7,8
102,3,object_04,object_02,-1.0,-1,-1,-1.0,0.0,-,0,1,1095,0,7,2,library_5,2,memory-2step-stake-s,600,2047521,0.0-19.0-0.0-0.102,A5CIHEPULDFUF,3X52SWXE10LAELCT6ESTJVPQIDRWCT,3IO1LGZLKDDDUM54OM4M8ZQHYX586P,5,6
103,4,object_10,object_01,448.5,7,1,451.60000002384,0.8888888888888888,1,object_06,1,1103,0,8,0,restaurant_6,2,memory-2step-stake-s,601,2056014,0.0-19.0-0.0-0.103,A5CIHEPULDFUF,3X52SWXE10LAELCT6ESTJVPQIDRWCT,3IO1LGZLKDDDUM54OM4M8ZQHYX586P,7,8
104,4,object_10,object_01,353.5,7,1,432.10000002384,0.8888888888888888,1,object_06,1,1111,0,8,2,restaurant_1,2,memory-2step-stake-s,602,2064497,0.0-19.0-0.0-0.104,A5CIHEPULDFUF,3X52SWXE10LAELCT6ESTJVPQIDRWCT,3IO1LGZLKDDDUM54OM4M8ZQHYX586P,7,8
105,2,object_03,object_09,322.39999997616,3,1,297.19999992847,0.6666666666666666,1,object_06,5,1141,0,6,4,forest_2,2,memory-2step-stake-s,603,2072624,0.0-19.0-0.0-0.105,A5CIHEPULDFUF,3X52SWXE10LAELCT6ESTJVPQIDRWCT,3IO1LGZLKDDDUM54OM4M8ZQHYX586P,3,4
106,3,object_04,object_02,268.60000002384,5,1,386.0,0.7777777777777778,1,object_06,1,1148,0,7,1,library_2,2,memory-2step-stake-s,604,2080959,0.0-19.0-0.0-0.106,A5CIHEPULDFUF,3X52SWXE10LAELCT6ESTJVPQIDRWCT,3IO1LGZLKDDDUM54OM4M8ZQHYX586P,5,6
107,2,object_09,object_03,362.79999995232,4,1,1372.1000000238,0.2222222222222222,2,object_08,1,1150,0,7,2,forest_3,2,memory-2step-stake-s,605,2089765,0.0-19.0-0.0-0.107,A5CIHEPULDFUF,3X52SWXE10LAELCT6ESTJVPQIDRWCT,3IO1LGZLKDDDUM54OM4M8ZQHYX586P,4,3
108,2,object_03,object_09,459.0,4,2,425.0,0.1111111111111111,2,object_08,5,1155,0,4,1,forest_3,2,memory-2step-stake-s,606,2097530,0.0-19.0-0.0-0.108,A5CIHEPULDFUF,3X52SWXE10LAELCT6ESTJVPQIDRWCT,3IO1LGZLKDDDUM54OM4M8ZQHYX586P,3,4
109,2,object_09,object_03,967.0,3,2,462.30000007153,0.6666666666666666,1,object_06,5,1185,0,6,5,forest_4,2,memory-2step-stake-s,607,2105847,0.0-19.0-0.0-0.109,A5CIHEPULDFUF,3X52SWXE10LAELCT6ESTJVPQIDRWCT,3IO1LGZLKDDDUM54OM4M8ZQHYX586P,4,3
110,2,object_09,object_03,284.79999995232,4,1,322.80000007153,1.0,2,object_08,5,1230,0,7,9,forest_6,2,memory-2step-stake-s,608,2114324,0.0-19.0-0.0-0.110,A5CIHEPULDFUF,3X52SWXE10LAELCT6ESTJVPQIDRWCT,3IO1LGZLKDDDUM54OM4M8ZQHYX586P,4,3
111,2,object_03,object_09,614.39999997616,4,2,1379.6000000238,0.8888888888888888,2,object_08,1,1238,0,6,8,forest_6,2,memory-2step-stake-s,609,2123761,0.0-19.0-0.0-0.111,A5CIHEPULDFUF,3X52SWXE10LAELCT6ESTJVPQIDRWCT,3IO1LGZLKDDDUM54OM4M8ZQHYX586P,3,4
112,4,object_01,object_10,476.69999992847,8,1,477.0,1.0,2,object_08,5,1283,0,6,9,restaurant_7,2,memory-2step-stake-s,610,2132404,0.0-19.0-0.0-0.112,A5CIHEPULDFUF,3X52SWXE10LAELCT6ESTJVPQIDRWCT,3IO1LGZLKDDDUM54OM4M8ZQHYX586P,8,7
113,4,object_10,object_01,422.89999997616,7,1,507.69999992847,0.5555555555555556,1,object_06,1,1288,0,5,7,restaurant_2,2,memory-2step-stake-s,611,2140642,0.0-19.0-0.0-0.113,A5CIHEPULDFUF,3X52SWXE10LAELCT6ESTJVPQIDRWCT,3IO1LGZLKDDDUM54OM4M8ZQHYX586P,7,8
114,4,object_10,object_01,334.20000004768,8,2,471.80000007153,0.6666666666666666,2,object_08,5,1318,0,4,6,restaurant_1,2,memory-2step-stake-s,612,2148967,0.0-19.0-0.0-0.114,A5CIHEPULDFUF,3X52SWXE10LAELCT6ESTJVPQIDRWCT,3IO1LGZLKDDDUM54OM4M8ZQHYX586P,7,8
115,1,object_07,object_05,442.40000009537,1,1,396.20000004768,0.5555555555555556,1,object_06,5,1343,0,5,8,desert_2,2,memory-2step-stake-s,613,2157123,0.0-19.0-0.0-0.115,A5CIHEPULDFUF,3X52SWXE10LAELCT6ESTJVPQIDRWCT,3IO1LGZLKDDDUM54OM4M8ZQHYX586P,1,2
116,1,object_05,object_07,306.39999997616,1,2,437.70000004768,0.7777777777777778,1,object_06,5,1378,0,7,7,desert_7,2,memory-2step-stake-s,614,2165523,0.0-19.0-0.0-0.116,A5CIHEPULDFUF,3X52SWXE10LAELCT6ESTJVPQIDRWCT,3IO1LGZLKDDDUM54OM4M8ZQHYX586P,2,1
117,1,object_05,object_07,470.39999997616,2,1,511.0,0.8888888888888888,2,object_08,5,1418,0,3,8,desert_1,2,memory-2step-stake-s,615,2174095,0.0-19.0-0.0-0.117,A5CIHEPULDFUF,3X52SWXE10LAELCT6ESTJVPQIDRWCT,3IO1LGZLKDDDUM54OM4M8ZQHYX586P,2,1
118,1,object_07,object_05,902.5,2,2,1431.8999999762,0.8888888888888888,2,object_08,5,1458,0,4,8,desert_1,2,memory-2step-stake-s,616,2183594,0.0-19.0-0.0-0.118,A5CIHEPULDFUF,3X52SWXE10LAELCT6ESTJVPQIDRWCT,3IO1LGZLKDDDUM54OM4M8ZQHYX586P,1,2
119,1,object_05,object_07,314.0,2,1,424.0,0.8888888888888888,2,object_08,1,1466,0,8,8,desert_1,2,memory-2step-stake-s,617,2192073,0.0-19.0-0.0-0.119,A5CIHEPULDFUF,3X52SWXE10LAELCT6ESTJVPQIDRWCT,3IO1LGZLKDDDUM54OM4M8ZQHYX586P,2,1
120,1,object_07,object_05,289.09999990463,1,1,452.10000002384,0.6666666666666666,1,object_06,5,1496,0,6,8,desert_6,2,memory-2step-stake-s,618,2200356,0.0-19.0-0.0-0.120,A5CIHEPULDFUF,3X52SWXE10LAELCT6ESTJVPQIDRWCT,3IO1LGZLKDDDUM54OM4M8ZQHYX586P,1,2
121,4,object_01,object_10,-1.0,-1,-1,-1.0,0.0,-,0,5,1496,0,4,8,restaurant_1,2,memory-2step-stake-s,619,2206870,0.0-19.0-0.0-0.121,A5CIHEPULDFUF,3X52SWXE10LAELCT6ESTJVPQIDRWCT,3IO1LGZLKDDDUM54OM4M8ZQHYX586P,8,7
122,3,object_02,object_04,303.59999990463,6,1,465.70000004768,0.5555555555555556,2,object_08,5,1521,0,2,5,library_2,2,memory-2step-stake-s,620,2215083,0.0-19.0-0.0-0.122,A5CIHEPULDFUF,3X52SWXE10LAELCT6ESTJVPQIDRWCT,3IO1LGZLKDDDUM54OM4M8ZQHYX586P,6,5
123,4,object_01,object_10,517.79999995232,8,1,498.5,0.7777777777777778,2,object_08,1,1528,0,0,7,restaurant_6,2,memory-2step-stake-s,621,2223535,0.0-19.0-0.0-0.123,A5CIHEPULDFUF,3X52SWXE10LAELCT6ESTJVPQIDRWCT,3IO1LGZLKDDDUM54OM4M8ZQHYX586P,8,7
124,2,object_09,object_03,449.80000007153,4,1,506.60000002384,0.8888888888888888,2,object_08,1,1536,0,2,8,forest_4,2,memory-2step-stake-s,622,2232078,0.0-19.0-0.0-0.124,A5CIHEPULDFUF,3X52SWXE10LAELCT6ESTJVPQIDRWCT,3IO1LGZLKDDDUM54OM4M8ZQHYX586P,4,3
125,2,object_09,object_03,511.29999995232,4,1,429.89999997616,1.0,2,object_08,5,1581,0,4,9,forest_6,2,memory-2step-stake-s,623,2240653,0.0-19.0-0.0-0.125,A5CIHEPULDFUF,3X52SWXE10LAELCT6ESTJVPQIDRWCT,3IO1LGZLKDDDUM54OM4M8ZQHYX586P,4,3
126,3,object_04,object_02,463.20000004768,5,1,453.5,0.3333333333333333,1,object_06,1,1584,0,3,6,library_2,2,memory-2step-stake-s,624,2248653,0.0-19.0-0.0-0.126,A5CIHEPULDFUF,3X52SWXE10LAELCT6ESTJVPQIDRWCT,3IO1LGZLKDDDUM54OM4M8ZQHYX586P,5,6
127,1,object_07,object_05,299.79999995232,1,1,546.20000004768,0.2222222222222222,1,object_06,5,1594,0,2,9,desert_1,2,memory-2step-stake-s,625,2256630,0.0-19.0-0.0-0.127,A5CIHEPULDFUF,3X52SWXE10LAELCT6ESTJVPQIDRWCT,3IO1LGZLKDDDUM54OM4M8ZQHYX586P,1,2
128,4,object_01,object_10,-1.0,-1,-1,-1.0,0.0,-,0,1,1594,0,2,8,restaurant_7,2,memory-2step-stake-s,627,2314726,0.0-19.0-0.1-0.128,A5CIHEPULDFUF,3X52SWXE10LAELCT6ESTJVPQIDRWCT,3IO1LGZLKDDDUM54OM4M8ZQHYX586P,8,7
129,2,object_09,object_03,362.5,4,1,426.19999992847,0.6666666666666666,2,object_08,5,1624,0,1,6,forest_2,2,memory-2step-stake-s,628,2323021,0.0-19.0-0.1-0.129,A5CIHEPULDFUF,3X52SWXE10LAELCT6ESTJVPQIDRWCT,3IO1LGZLKDDDUM54OM4M8ZQHYX586P,4,3
130,3,object_04,object_02,475.39999997616,5,1,498.10000002384,0.2222222222222222,1,object_06,1,1626,0,2,9,library_5,2,memory-2step-stake-s,629,2330940,0.0-19.0-0.1-0.130,A5CIHEPULDFUF,3X52SWXE10LAELCT6ESTJVPQIDRWCT,3IO1LGZLKDDDUM54OM4M8ZQHYX586P,5,6
131,3,object_04,object_02,329.60000002384,5,1,342.39999997616,0.1111111111111111,1,object_06,1,1627,0,1,7,library_2,2,memory-2step-stake-s,630,2338618,0.0-19.0-0.1-0.131,A5CIHEPULDFUF,3X52SWXE10LAELCT6ESTJVPQIDRWCT,3IO1LGZLKDDDUM54OM4M8ZQHYX586P,5,6
132,1,object_07,object_05,323.69999992847,1,1,425.29999995232,0.0,1,object_06,5,1627,0,0,7,desert_7,2,memory-2step-stake-s,631,2346265,0.0-19.0-0.1-0.132,A5CIHEPULDFUF,3X52SWXE10LAELCT6ESTJVPQIDRWCT,3IO1LGZLKDDDUM54OM4M8ZQHYX586P,1,2
133,2,object_09,object_03,404.80000007153,4,1,546.60000002384,0.5555555555555556,2,object_08,5,1652,0,1,5,forest_3,2,memory-2step-stake-s,632,2354555,0.0-19.0-0.1-0.133,A5CIHEPULDFUF,3X52SWXE10LAELCT6ESTJVPQIDRWCT,3IO1LGZLKDDDUM54OM4M8ZQHYX586P,4,3
134,3,object_02,object_04,447.19999992847,6,1,459.5,0.4444444444444444,2,object_08,1,1656,0,0,4,library_2,2,memory-2step-stake-s,633,2362641,0.0-19.0-0.1-0.134,A5CIHEPULDFUF,3X52SWXE10LAELCT6ESTJVPQIDRWCT,3IO1LGZLKDDDUM54OM4M8ZQHYX586P,6,5
135,3,object_02,object_04,391.79999995232,6,1,549.5,0.3333333333333333,2,object_08,1,1659,0,1,3,library_5,2,memory-2step-stake-s,634,2370725,0.0-19.0-0.1-0.135,A5CIHEPULDFUF,3X52SWXE10LAELCT6ESTJVPQIDRWCT,3IO1LGZLKDDDUM54OM4M8ZQHYX586P,6,5
136,4,object_01,object_10,439.40000009537,8,1,480.80000007153,0.5555555555555556,2,object_08,1,1664,0,3,5,restaurant_1,2,memory-2step-stake-s,635,2378937,0.0-19.0-0.1-0.136,A5CIHEPULDFUF,3X52SWXE10LAELCT6ESTJVPQIDRWCT,3IO1LGZLKDDDUM54OM4M8ZQHYX586P,8,7
137,3,object_04,object_02,444.30000007153,5,1,775.69999992847,0.1111111111111111,1,object_06,5,1669,0,1,0,library_2,2,memory-2step-stake-s,636,2387036,0.0-19.0-0.1-0.137,A5CIHEPULDFUF,3X52SWXE10LAELCT6ESTJVPQIDRWCT,3IO1LGZLKDDDUM54OM4M8ZQHYX586P,5,6
138,1,object_07,object_05,332.20000004768,1,1,569.5,0.1111111111111111,1,object_06,5,1674,0,1,2,desert_7,2,memory-2step-stake-s,637,2394935,0.0-19.0-0.1-0.138,A5CIHEPULDFUF,3X52SWXE10LAELCT6ESTJVPQIDRWCT,3IO1LGZLKDDDUM54OM4M8ZQHYX586P,1,2
139,1,object_07,object_05,349.5,1,1,489.29999995232,0.1111111111111111,1,object_06,5,1679,0,1,1,desert_1,2,memory-2step-stake-s,638,2402748,0.0-19.0-0.1-0.139,A5CIHEPULDFUF,3X52SWXE10LAELCT6ESTJVPQIDRWCT,3IO1LGZLKDDDUM54OM4M8ZQHYX586P,1,2
140,1,object_07,object_05,359.30000007153,2,2,702.89999997616,0.2222222222222222,2,object_08,5,1689,0,3,2,desert_6,2,memory-2step-stake-s,639,2410880,0.0-19.0-0.1-0.140,A5CIHEPULDFUF,3X52SWXE10LAELCT6ESTJVPQIDRWCT,3IO1LGZLKDDDUM54OM4M8ZQHYX586P,1,2
141,1,object_07,object_05,432.10000002384,1,1,542.10000002384,0.5555555555555556,1,object_06,5,1714,0,5,1,desert_6,2,memory-2step-stake-s,640,2419156,0.0-19.0-0.1-0.141,A5CIHEPULDFUF,3X52SWXE10LAELCT6ESTJVPQIDRWCT,3IO1LGZLKDDDUM54OM4M8ZQHYX586P,1,2
142,2,object_03,object_09,318.5,3,1,570.80000007153,0.2222222222222222,1,object_06,5,1724,0,2,2,forest_2,2,memory-2step-stake-s,641,2427148,0.0-19.0-0.1-0.142,A5CIHEPULDFUF,3X52SWXE10LAELCT6ESTJVPQIDRWCT,3IO1LGZLKDDDUM54OM4M8ZQHYX586P,3,4
143,2,object_09,object_03,1336.5999999046,4,1,352.79999995232,0.4444444444444444,2,object_08,1,1728,0,2,4,forest_6,2,memory-2step-stake-s,642,2435127,0.0-19.0-0.1-0.143,A5CIHEPULDFUF,3X52SWXE10LAELCT6ESTJVPQIDRWCT,3IO1LGZLKDDDUM54OM4M8ZQHYX586P,4,3
144,4,object_01,object_10,388.19999992847,8,1,437.89999997616,0.4444444444444444,2,object_08,1,1732,0,2,4,restaurant_7,2,memory-2step-stake-s,643,2443191,0.0-19.0-0.1-0.144,A5CIHEPULDFUF,3X52SWXE10LAELCT6ESTJVPQIDRWCT,3IO1LGZLKDDDUM54OM4M8ZQHYX586P,8,7
145,2,object_03,object_09,453.60000002384,3,1,946.09999990463,0.2222222222222222,1,object_06,1,1734,0,2,6,forest_3,2,memory-2step-stake-s,644,2451562,0.0-19.0-0.1-0.145,A5CIHEPULDFUF,3X52SWXE10LAELCT6ESTJVPQIDRWCT,3IO1LGZLKDDDUM54OM4M8ZQHYX586P,3,4
146,4,object_01,object_10,623.89999997616,8,1,751.79999995232,0.7777777777777778,2,object_08,1,1741,0,5,7,restaurant_2,2,memory-2step-stake-s,645,2460252,0.0-19.0-0.1-0.146,A5CIHEPULDFUF,3X52SWXE10LAELCT6ESTJVPQIDRWCT,3IO1LGZLKDDDUM54OM4M8ZQHYX586P,8,7
147,2,object_03,object_09,352.20000004768,3,1,440.70000004768,0.6666666666666666,1,object_06,5,1771,0,6,8,forest_2,2,memory-2step-stake-s,646,2468537,0.0-19.0-0.1-0.147,A5CIHEPULDFUF,3X52SWXE10LAELCT6ESTJVPQIDRWCT,3IO1LGZLKDDDUM54OM4M8ZQHYX586P,3,4
148,1,object_05,object_07,400.80000007153,2,1,392.19999992847,0.6666666666666666,2,object_08,5,1801,0,6,6,desert_6,2,memory-2step-stake-s,647,2476773,0.0-19.0-0.1-0.148,A5CIHEPULDFUF,3X52SWXE10LAELCT6ESTJVPQIDRWCT,3IO1LGZLKDDDUM54OM4M8ZQHYX586P,2,1
149,1,object_07,object_05,361.0,1,1,486.80000007153,0.8888888888888888,1,object_06,5,1841,0,8,4,desert_7,2,memory-2step-stake-s,648,2485301,0.0-19.0-0.1-0.149,A5CIHEPULDFUF,3X52SWXE10LAELCT6ESTJVPQIDRWCT,3IO1LGZLKDDDUM54OM4M8ZQHYX586P,1,2
150,2,object_03,object_09,438.0,3,1,450.10000002384,0.7777777777777778,1,object_06,5,1876,0,7,3,forest_6,2,memory-2step-stake-s,649,2493694,0.0-19.0-0.1-0.150,A5CIHEPULDFUF,3X52SWXE10LAELCT6ESTJVPQIDRWCT,3IO1LGZLKDDDUM54OM4M8ZQHYX586P,3,4
151,4,object_10,object_01,855.30000007153,7,1,707.0,0.5555555555555556,1,object_06,1,1881,0,5,1,restaurant_7,2,memory-2step-stake-s,650,2502136,0.0-19.0-0.1-0.151,A5CIHEPULDFUF,3X52SWXE10LAELCT6ESTJVPQIDRWCT,3IO1LGZLKDDDUM54OM4M8ZQHYX586P,7,8
152,3,object_02,object_04,385.5,6,1,574.80000007153,0.5555555555555556,2,object_08,5,1906,0,4,5,library_2,2,memory-2step-stake-s,651,2510454,0.0-19.0-0.1-0.152,A5CIHEPULDFUF,3X52SWXE10LAELCT6ESTJVPQIDRWCT,3IO1LGZLKDDDUM54OM4M8ZQHYX586P,6,5
153,3,object_04,object_02,314.79999995232,5,1,475.39999997616,0.7777777777777778,1,object_06,1,1913,0,7,6,library_2,2,memory-2step-stake-s,652,2518878,0.0-19.0-0.1-0.153,A5CIHEPULDFUF,3X52SWXE10LAELCT6ESTJVPQIDRWCT,3IO1LGZLKDDDUM54OM4M8ZQHYX586P,5,6
154,1,object_07,object_05,668.5,1,1,415.69999992847,0.4444444444444444,1,object_06,1,1917,0,4,8,desert_1,2,memory-2step-stake-s,653,2526934,0.0-19.0-0.1-0.154,A5CIHEPULDFUF,3X52SWXE10LAELCT6ESTJVPQIDRWCT,3IO1LGZLKDDDUM54OM4M8ZQHYX586P,1,2
155,4,object_10,object_01,401.19999992847,7,1,732.70000004768,0.5555555555555556,1,object_06,1,1922,0,5,9,restaurant_2,2,memory-2step-stake-s,654,2535414,0.0-19.0-0.1-0.155,A5CIHEPULDFUF,3X52SWXE10LAELCT6ESTJVPQIDRWCT,3IO1LGZLKDDDUM54OM4M8ZQHYX586P,7,8
156,1,object_07,object_05,556.89999997616,1,1,789.20000004768,0.5555555555555556,1,object_06,5,1947,0,5,6,desert_2,2,memory-2step-stake-s,655,2543936,0.0-19.0-0.1-0.156,A5CIHEPULDFUF,3X52SWXE10LAELCT6ESTJVPQIDRWCT,3IO1LGZLKDDDUM54OM4M8ZQHYX586P,1,2
157,4,object_10,object_01,499.89999997616,7,1,467.0,0.4444444444444444,1,object_06,1,1951,0,4,7,restaurant_1,2,memory-2step-stake-s,656,2552035,0.0-19.0-0.1-0.157,A5CIHEPULDFUF,3X52SWXE10LAELCT6ESTJVPQIDRWCT,3IO1LGZLKDDDUM54OM4M8ZQHYX586P,7,8
158,2,object_09,object_03,391.70000004768,4,1,511.20000004768,0.8888888888888888,2,object_08,5,1991,0,5,8,forest_4,2,memory-2step-stake-s,657,2560584,0.0-19.0-0.1-0.158,A5CIHEPULDFUF,3X52SWXE10LAELCT6ESTJVPQIDRWCT,3IO1LGZLKDDDUM54OM4M8ZQHYX586P,4,3
159,3,object_02,object_04,809.59999990463,6,1,653.0,0.8888888888888888,2,object_08,1,1999,0,9,8,library_5,2,memory-2step-stake-s,658,2569292,0.0-19.0-0.1-0.159,A5CIHEPULDFUF,3X52SWXE10LAELCT6ESTJVPQIDRWCT,3IO1LGZLKDDDUM54OM4M8ZQHYX586P,6,5
160,4,object_01,object_10,502.20000004768,8,1,704.69999992847,1.0,2,object_08,1,2008,0,4,9,restaurant_6,2,memory-2step-stake-s,659,2578161,0.0-19.0-0.1-0.160,A5CIHEPULDFUF,3X52SWXE10LAELCT6ESTJVPQIDRWCT,3IO1LGZLKDDDUM54OM4M8ZQHYX586P,8,7
161,2,object_09,object_03,269.30000007153,4,1,1249.0,0.6666666666666666,2,object_08,5,2038,0,6,6,forest_6,2,memory-2step-stake-s,660,2587245,0.0-19.0-0.1-0.161,A5CIHEPULDFUF,3X52SWXE10LAELCT6ESTJVPQIDRWCT,3IO1LGZLKDDDUM54OM4M8ZQHYX586P,4,3
162,3,object_04,object_02,437.20000004768,5,1,705.0,0.8888888888888888,1,object_06,1,2046,0,8,6,library_2,2,memory-2step-stake-s,661,2595983,0.0-19.0-0.1-0.162,A5CIHEPULDFUF,3X52SWXE10LAELCT6ESTJVPQIDRWCT,3IO1LGZLKDDDUM54OM4M8ZQHYX586P,5,6
163,1,object_05,object_07,1341.5999999046,1,2,674.80000007153,0.8888888888888888,1,object_06,5,2086,0,8,2,desert_2,2,memory-2step-stake-s,662,2604713,0.0-19.0-0.1-0.163,A5CIHEPULDFUF,3X52SWXE10LAELCT6ESTJVPQIDRWCT,3IO1LGZLKDDDUM54OM4M8ZQHYX586P,2,1
164,4,object_01,object_10,287.80000007153,8,1,512.0,0.3333333333333333,2,object_08,1,2089,0,9,3,restaurant_2,2,memory-2step-stake-s,663,2612762,0.0-19.0-0.1-0.164,A5CIHEPULDFUF,3X52SWXE10LAELCT6ESTJVPQIDRWCT,3IO1LGZLKDDDUM54OM4M8ZQHYX586P,8,7
165,1,object_05,object_07,298.60000002384,2,1,367.79999995232,0.2222222222222222,2,object_08,5,2099,0,6,2,desert_2,2,memory-2step-stake-s,664,2620568,0.0-19.0-0.1-0.165,A5CIHEPULDFUF,3X52SWXE10LAELCT6ESTJVPQIDRWCT,3IO1LGZLKDDDUM54OM4M8ZQHYX586P,2,1
166,1,object_07,object_05,835.80000007153,1,1,498.10000002384,0.5555555555555556,1,object_06,1,2104,0,5,2,desert_1,2,memory-2step-stake-s,665,2628796,0.0-19.0-0.1-0.166,A5CIHEPULDFUF,3X52SWXE10LAELCT6ESTJVPQIDRWCT,3IO1LGZLKDDDUM54OM4M8ZQHYX586P,1,2
167,2,object_09,object_03,-1.0,-1,-1,-1.0,0.0,-,0,5,2104,0,3,1,forest_2,2,memory-2step-stake-s,666,2635308,0.0-19.0-0.1-0.167,A5CIHEPULDFUF,3X52SWXE10LAELCT6ESTJVPQIDRWCT,3IO1LGZLKDDDUM54OM4M8ZQHYX586P,4,3
168,3,object_04,object_02,321.60000002384,5,1,419.30000007153,0.3333333333333333,1,object_06,1,2107,0,3,1,library_1,2,memory-2step-stake-s,667,2643265,0.0-19.0-0.1-0.168,A5CIHEPULDFUF,3X52SWXE10LAELCT6ESTJVPQIDRWCT,3IO1LGZLKDDDUM54OM4M8ZQHYX586P,5,6
169,2,object_09,object_03,576.60000002384,4,1,819.89999997616,0.1111111111111111,2,object_08,5,2112,0,3,1,forest_3,2,memory-2step-stake-s,668,2651414,0.0-19.0-0.1-0.169,A5CIHEPULDFUF,3X52SWXE10LAELCT6ESTJVPQIDRWCT,3IO1LGZLKDDDUM54OM4M8ZQHYX586P,4,3
170,1,object_05,object_07,364.39999997616,2,1,546.20000004768,0.2222222222222222,2,object_08,5,2122,0,4,2,desert_6,2,memory-2step-stake-s,669,2659391,0.0-19.0-0.1-0.170,A5CIHEPULDFUF,3X52SWXE10LAELCT6ESTJVPQIDRWCT,3IO1LGZLKDDDUM54OM4M8ZQHYX586P,2,1
171,3,object_02,object_04,342.80000007153,6,1,765.09999990463,0.2222222222222222,2,object_08,1,2124,0,7,2,library_2,2,memory-2step-stake-s,670,2667607,0.0-19.0-0.1-0.171,A5CIHEPULDFUF,3X52SWXE10LAELCT6ESTJVPQIDRWCT,3IO1LGZLKDDDUM54OM4M8ZQHYX586P,6,5
172,1,object_05,object_07,330.20000004768,2,1,669.30000007153,0.4444444444444444,2,object_08,5,2144,0,8,4,desert_2,2,memory-2step-stake-s,671,2675905,0.0-19.0-0.1-0.172,A5CIHEPULDFUF,3X52SWXE10LAELCT6ESTJVPQIDRWCT,3IO1LGZLKDDDUM54OM4M8ZQHYX586P,2,1
173,4,object_10,object_01,594.39999997616,7,1,478.39999997616,0.6666666666666666,1,object_06,1,2150,0,6,2,restaurant_6,2,memory-2step-stake-s,672,2684236,0.0-19.0-0.1-0.173,A5CIHEPULDFUF,3X52SWXE10LAELCT6ESTJVPQIDRWCT,3IO1LGZLKDDDUM54OM4M8ZQHYX586P,7,8
174,3,object_02,object_04,484.40000009537,6,1,633.89999997616,0.6666666666666666,2,object_08,1,2156,0,6,6,library_2,2,memory-2step-stake-s,673,2692744,0.0-19.0-0.1-0.174,A5CIHEPULDFUF,3X52SWXE10LAELCT6ESTJVPQIDRWCT,3IO1LGZLKDDDUM54OM4M8ZQHYX586P,6,5
175,3,object_02,object_04,607.79999995232,6,1,898.39999997616,1.0,2,object_08,5,2201,0,3,9,library_8,2,memory-2step-stake-s,674,2701800,0.0-19.0-0.1-0.175,A5CIHEPULDFUF,3X52SWXE10LAELCT6ESTJVPQIDRWCT,3IO1LGZLKDDDUM54OM4M8ZQHYX586P,6,5
176,2,object_09,object_03,268.5,4,1,385.10000002384,0.6666666666666666,2,object_08,5,2231,0,2,6,forest_6,2,memory-2step-stake-s,675,2710034,0.0-19.0-0.1-0.176,A5CIHEPULDFUF,3X52SWXE10LAELCT6ESTJVPQIDRWCT,3IO1LGZLKDDDUM54OM4M8ZQHYX586P,4,3
177,1,object_07,object_05,379.5,1,1,743.0,0.3333333333333333,1,object_06,5,2246,0,3,6,desert_1,2,memory-2step-stake-s,676,2718318,0.0-19.0-0.1-0.177,A5CIHEPULDFUF,3X52SWXE10LAELCT6ESTJVPQIDRWCT,3IO1LGZLKDDDUM54OM4M8ZQHYX586P,1,2
178,3,object_02,object_04,476.59999990463,6,1,420.89999997616,0.6666666666666666,2,object_08,1,2252,0,0,6,library_2,2,memory-2step-stake-s,677,2726583,0.0-19.0-0.1-0.178,A5CIHEPULDFUF,3X52SWXE10LAELCT6ESTJVPQIDRWCT,3IO1LGZLKDDDUM54OM4M8ZQHYX586P,6,5
179,2,object_09,object_03,983.70000004768,4,1,408.70000004768,0.6666666666666666,2,object_08,5,2282,0,0,6,forest_3,2,memory-2step-stake-s,678,2734844,0.0-19.0-0.1-0.179,A5CIHEPULDFUF,3X52SWXE10LAELCT6ESTJVPQIDRWCT,3IO1LGZLKDDDUM54OM4M8ZQHYX586P,4,3
180,4,object_01,object_10,371.60000002384,8,1,335.10000002384,0.2222222222222222,2,object_08,1,2284,0,4,2,restaurant_2,2,memory-2step-stake-s,679,2742611,0.0-19.0-0.1-0.180,A5CIHEPULDFUF,3X52SWXE10LAELCT6ESTJVPQIDRWCT,3IO1LGZLKDDDUM54OM4M8ZQHYX586P,8,7
181,1,object_05,object_07,442.0,2,1,823.80000007153,0.3333333333333333,2,object_08,1,2287,0,4,3,desert_6,2,memory-2step-stake-s,680,2750971,0.0-19.0-0.1-0.181,A5CIHEPULDFUF,3X52SWXE10LAELCT6ESTJVPQIDRWCT,3IO1LGZLKDDDUM54OM4M8ZQHYX586P,2,1
182,1,object_07,object_05,734.19999992847,1,1,842.40000009537,0.3333333333333333,1,object_06,5,2302,0,3,1,desert_6,2,memory-2step-stake-s,681,2759341,0.0-19.0-0.1-0.182,A5CIHEPULDFUF,3X52SWXE10LAELCT6ESTJVPQIDRWCT,3IO1LGZLKDDDUM54OM4M8ZQHYX586P,1,2
183,2,object_09,object_03,483.80000007153,4,1,1210.6999999285,0.3333333333333333,2,object_08,1,2305,0,2,3,forest_2,2,memory-2step-stake-s,682,2768082,0.0-19.0-0.1-0.183,A5CIHEPULDFUF,3X52SWXE10LAELCT6ESTJVPQIDRWCT,3IO1LGZLKDDDUM54OM4M8ZQHYX586P,4,3
184,3,object_04,object_02,1027.1000000238,5,1,540.90000009537,0.6666666666666666,1,object_06,1,2311,0,6,5,library_1,2,memory-2step-stake-s,683,2776483,0.0-19.0-0.1-0.184,A5CIHEPULDFUF,3X52SWXE10LAELCT6ESTJVPQIDRWCT,3IO1LGZLKDDDUM54OM4M8ZQHYX586P,5,6
185,1,object_07,object_05,553.79999995232,1,1,429.79999995232,0.4444444444444444,1,object_06,5,2331,0,4,5,desert_2,2,memory-2step-stake-s,684,2784552,0.0-19.0-0.1-0.185,A5CIHEPULDFUF,3X52SWXE10LAELCT6ESTJVPQIDRWCT,3IO1LGZLKDDDUM54OM4M8ZQHYX586P,1,2
186,1,object_05,object_07,698.29999995232,2,1,438.89999997616,0.5555555555555556,2,object_08,5,2356,0,8,5,desert_2,2,memory-2step-stake-s,685,2792734,0.0-19.0-0.1-0.186,A5CIHEPULDFUF,3X52SWXE10LAELCT6ESTJVPQIDRWCT,3IO1LGZLKDDDUM54OM4M8ZQHYX586P,2,1
187,2,object_09,object_03,424.70000004768,4,1,530.39999997616,0.8888888888888888,2,object_08,5,2396,0,6,8,forest_3,2,memory-2step-stake-s,686,2801313,0.0-19.0-0.1-0.187,A5CIHEPULDFUF,3X52SWXE10LAELCT6ESTJVPQIDRWCT,3IO1LGZLKDDDUM54OM4M8ZQHYX586P,4,3
188,2,object_03,object_09,339.60000002384,3,1,514.40000009537,0.6666666666666666,1,object_06,1,2402,0,6,5,forest_6,2,memory-2step-stake-s,687,2809693,0.0-19.0-0.1-0.188,A5CIHEPULDFUF,3X52SWXE10LAELCT6ESTJVPQIDRWCT,3IO1LGZLKDDDUM54OM4M8ZQHYX586P,3,4
189,4,object_01,object_10,508.5,8,1,686.79999995232,0.5555555555555556,2,object_08,1,2407,0,7,5,restaurant_1,2,memory-2step-stake-s,688,2818118,0.0-19.0-0.1-0.189,A5CIHEPULDFUF,3X52SWXE10LAELCT6ESTJVPQIDRWCT,3IO1LGZLKDDDUM54OM4M8ZQHYX586P,8,7
190,1,object_07,object_05,657.0,1,1,431.60000002384,1.0,1,object_06,1,2416,0,9,5,desert_2,2,memory-2step-stake-s,689,2826702,0.0-19.0-0.1-0.190,A5CIHEPULDFUF,3X52SWXE10LAELCT6ESTJVPQIDRWCT,3IO1LGZLKDDDUM54OM4M8ZQHYX586P,1,2
191,2,object_09,object_03,359.30000007153,4,1,602.80000007153,0.2222222222222222,2,object_08,5,2426,0,4,2,forest_2,2,memory-2step-stake-s,690,2834734,0.0-19.0-0.1-0.191,A5CIHEPULDFUF,3X52SWXE10LAELCT6ESTJVPQIDRWCT,3IO1LGZLKDDDUM54OM4M8ZQHYX586P,4,3
192,4,object_10,object_01,524.60000002384,7,1,434.70000004768,0.6666666666666666,1,object_06,1,2432,0,6,5,restaurant_1,2,memory-2step-stake-s,691,2843032,0.0-19.0-0.1-0.192,A5CIHEPULDFUF,3X52SWXE10LAELCT6ESTJVPQIDRWCT,3IO1LGZLKDDDUM54OM4M8ZQHYX586P,7,8
193,3,object_02,object_04,1027.6999999285,6,1,-1.0,0.0,2,object_08,1,2432,0,9,2,library_8,2,memory-2step-stake-s,692,2851563,0.0-19.0-0.1-0.193,A5CIHEPULDFUF,3X52SWXE10LAELCT6ESTJVPQIDRWCT,3IO1LGZLKDDDUM54OM4M8ZQHYX586P,6,5
194,4,object_01,object_10,361.0,8,1,456.40000009537,0.6666666666666666,2,object_08,1,2438,0,8,6,restaurant_7,2,memory-2step-stake-s,693,2859851,0.0-19.0-0.1-0.194,A5CIHEPULDFUF,3X52SWXE10LAELCT6ESTJVPQIDRWCT,3IO1LGZLKDDDUM54OM4M8ZQHYX586P,8,7
195,4,object_01,object_10,604.0,8,1,286.70000004768,0.4444444444444444,2,object_08,5,2458,0,8,4,restaurant_7,2,memory-2step-stake-s,694,2867776,0.0-19.0-0.1-0.195,A5CIHEPULDFUF,3X52SWXE10LAELCT6ESTJVPQIDRWCT,3IO1LGZLKDDDUM54OM4M8ZQHYX586P,8,7
196,3,object_02,object_04,593.39999997616,6,1,379.90000009537,0.0,2,object_08,5,2458,0,5,0,library_2,2,memory-2step-stake-s,695,2875379,0.0-19.0-0.1-0.196,A5CIHEPULDFUF,3X52SWXE10LAELCT6ESTJVPQIDRWCT,3IO1LGZLKDDDUM54OM4M8ZQHYX586P,6,5
197,3,object_02,object_04,532.60000002384,6,1,416.5,0.1111111111111111,2,object_08,5,2463,0,6,1,library_1,2,memory-2step-stake-s,696,2883129,0.0-19.0-0.1-0.197,A5CIHEPULDFUF,3X52SWXE10LAELCT6ESTJVPQIDRWCT,3IO1LGZLKDDDUM54OM4M8ZQHYX586P,6,5
198,4,object_01,object_10,783.5,8,1,540.30000007153,0.1111111111111111,2,object_08,1,2464,0,6,1,restaurant_6,2,memory-2step-stake-s,697,2891008,0.0-19.0-0.1-0.198,A5CIHEPULDFUF,3X52SWXE10LAELCT6ESTJVPQIDRWCT,3IO1LGZLKDDDUM54OM4M8ZQHYX586P,8,7
199,2,object_09,object_03,504.59999990463,4,1,521.60000002384,0.3333333333333333,2,object_08,5,2479,0,7,3,forest_4,2,memory-2step-stake-s,698,2899066,0.0-19.0-0.1-0.199,A5CIHEPULDFUF,3X52SWXE10LAELCT6ESTJVPQIDRWCT,3IO1LGZLKDDDUM54OM4M8ZQHYX586P,4,3
200,2,object_09,object_03,506.5,4,1,692.5,0.2222222222222222,2,object_08,1,2481,0,5,2,forest_3,2,memory-2step-stake-s,699,2907194,0.0-19.0-0.1-0.200,A5CIHEPULDFUF,3X52SWXE10LAELCT6ESTJVPQIDRWCT,3IO1LGZLKDDDUM54OM4M8ZQHYX586P,4,3
201,2,object_03,object_09,911.89999997616,3,1,-1.0,0.0,1,object_06,1,2481,0,7,0,forest_4,2,memory-2step-stake-s,700,2915715,0.0-19.0-0.1-0.201,A5CIHEPULDFUF,3X52SWXE10LAELCT6ESTJVPQIDRWCT,3IO1LGZLKDDDUM54OM4M8ZQHYX586P,3,4
202,1,object_05,object_07,322.39999997616,2,1,558.30000007153,0.1111111111111111,2,object_08,1,2482,0,6,1,desert_1,2,memory-2step-stake-s,701,2923600,0.0-19.0-0.1-0.202,A5CIHEPULDFUF,3X52SWXE10LAELCT6ESTJVPQIDRWCT,3IO1LGZLKDDDUM54OM4M8ZQHYX586P,2,1
203,4,object_01,object_10,520.10000002384,8,1,849.79999995232,0.1111111111111111,2,object_08,1,2483,0,6,1,restaurant_6,2,memory-2step-stake-s,702,2931778,0.0-19.0-0.1-0.203,A5CIHEPULDFUF,3X52SWXE10LAELCT6ESTJVPQIDRWCT,3IO1LGZLKDDDUM54OM4M8ZQHYX586P,8,7
204,4,object_01,object_10,402.0,8,1,735.60000002384,0.0,2,object_08,1,2483,0,8,0,restaurant_2,2,memory-2step-stake-s,703,2939731,0.0-19.0-0.1-0.204,A5CIHEPULDFUF,3X52SWXE10LAELCT6ESTJVPQIDRWCT,3IO1LGZLKDDDUM54OM4M8ZQHYX586P,8,7
205,3,object_04,object_02,447.59999990463,5,1,369.89999997616,0.8888888888888888,1,object_06,1,2491,0,8,1,library_1,2,memory-2step-stake-s,704,2948133,0.0-19.0-0.1-0.205,A5CIHEPULDFUF,3X52SWXE10LAELCT6ESTJVPQIDRWCT,3IO1LGZLKDDDUM54OM4M8ZQHYX586P,5,6
206,1,object_05,object_07,352.5,2,1,441.30000007153,0.2222222222222222,2,object_08,5,2501,0,9,2,desert_6,2,memory-2step-stake-s,705,2956013,0.0-19.0-0.1-0.206,A5CIHEPULDFUF,3X52SWXE10LAELCT6ESTJVPQIDRWCT,3IO1LGZLKDDDUM54OM4M8ZQHYX586P,2,1
207,1,object_05,object_07,343.60000002384,2,1,1141.3999999762,0.5555555555555556,2,object_08,5,2526,0,9,5,desert_7,2,memory-2step-stake-s,706,2964886,0.0-19.0-0.1-0.207,A5CIHEPULDFUF,3X52SWXE10LAELCT6ESTJVPQIDRWCT,3IO1LGZLKDDDUM54OM4M8ZQHYX586P,2,1
208,3,object_04,object_02,365.09999990463,5,1,-1.0,0.0,1,object_06,1,2526,0,7,6,library_8,2,memory-2step-stake-s,707,2973408,0.0-19.0-0.1-0.208,A5CIHEPULDFUF,3X52SWXE10LAELCT6ESTJVPQIDRWCT,3IO1LGZLKDDDUM54OM4M8ZQHYX586P,5,6
209,1,object_07,object_05,337.90000009537,1,1,330.60000002384,0.5555555555555556,1,object_06,5,2551,0,5,4,desert_7,2,memory-2step-stake-s,708,2981503,0.0-19.0-0.1-0.209,A5CIHEPULDFUF,3X52SWXE10LAELCT6ESTJVPQIDRWCT,3IO1LGZLKDDDUM54OM4M8ZQHYX586P,1,2
210,1,object_05,object_07,457.80000007153,2,1,622.90000009537,0.3333333333333333,2,object_08,5,2566,0,2,3,desert_6,2,memory-2step-stake-s,709,2989647,0.0-19.0-0.1-0.210,A5CIHEPULDFUF,3X52SWXE10LAELCT6ESTJVPQIDRWCT,3IO1LGZLKDDDUM54OM4M8ZQHYX586P,2,1
211,2,object_03,object_09,340.10000002384,3,1,348.89999997616,0.1111111111111111,1,object_06,5,2571,0,1,1,forest_2,2,memory-2step-stake-s,710,2997318,0.0-19.0-0.1-0.211,A5CIHEPULDFUF,3X52SWXE10LAELCT6ESTJVPQIDRWCT,3IO1LGZLKDDDUM54OM4M8ZQHYX586P,3,4
212,2,object_09,object_03,552.70000004768,4,1,491.29999995232,0.1111111111111111,2,object_08,5,2576,0,1,1,forest_2,2,memory-2step-stake-s,711,3005143,0.0-19.0-0.1-0.212,A5CIHEPULDFUF,3X52SWXE10LAELCT6ESTJVPQIDRWCT,3IO1LGZLKDDDUM54OM4M8ZQHYX586P,4,3
213,3,object_02,object_04,359.5,6,1,637.5,0.0,2,object_08,5,2576,0,5,0,library_5,2,memory-2step-stake-s,712,3012999,0.0-19.0-0.1-0.213,A5CIHEPULDFUF,3X52SWXE10LAELCT6ESTJVPQIDRWCT,3IO1LGZLKDDDUM54OM4M8ZQHYX586P,6,5
214,2,object_09,object_03,362.5,4,1,610.10000002384,0.2222222222222222,2,object_08,5,2586,0,5,2,forest_6,2,memory-2step-stake-s,713,3021042,0.0-19.0-0.1-0.214,A5CIHEPULDFUF,3X52SWXE10LAELCT6ESTJVPQIDRWCT,3IO1LGZLKDDDUM54OM4M8ZQHYX586P,4,3
215,2,object_03,object_09,518.5,3,1,692.19999992847,0.5555555555555556,1,object_06,5,2611,0,5,2,forest_3,2,memory-2step-stake-s,714,3029507,0.0-19.0-0.1-0.215,A5CIHEPULDFUF,3X52SWXE10LAELCT6ESTJVPQIDRWCT,3IO1LGZLKDDDUM54OM4M8ZQHYX586P,3,4
216,2,object_03,object_09,299.10000002384,3,1,409.70000004768,0.6666666666666666,1,object_06,5,2641,0,6,5,forest_4,2,memory-2step-stake-s,715,3037759,0.0-19.0-0.1-0.216,A5CIHEPULDFUF,3X52SWXE10LAELCT6ESTJVPQIDRWCT,3IO1LGZLKDDDUM54OM4M8ZQHYX586P,3,4
217,3,object_04,object_02,597.39999997616,5,1,520.39999997616,0.8888888888888888,1,object_06,1,2649,0,8,2,library_2,2,memory-2step-stake-s,716,3046317,0.0-19.0-0.1-0.217,A5CIHEPULDFUF,3X52SWXE10LAELCT6ESTJVPQIDRWCT,3IO1LGZLKDDDUM54OM4M8ZQHYX586P,5,6
218,3,object_02,object_04,584.60000002384,6,1,535.5,0.1111111111111111,2,object_08,1,2650,0,6,1,library_5,2,memory-2step-stake-s,717,3054176,0.0-19.0-0.1-0.218,A5CIHEPULDFUF,3X52SWXE10LAELCT6ESTJVPQIDRWCT,3IO1LGZLKDDDUM54OM4M8ZQHYX586P,6,5
219,4,object_01,object_10,516.60000002384,8,1,633.0,0.2222222222222222,2,object_08,1,2652,0,8,2,restaurant_6,2,memory-2step-stake-s,718,3062244,0.0-19.0-0.1-0.219,A5CIHEPULDFUF,3X52SWXE10LAELCT6ESTJVPQIDRWCT,3IO1LGZLKDDDUM54OM4M8ZQHYX586P,8,7
220,1,object_07,object_05,358.80000007153,1,1,540.5,0.3333333333333333,1,object_06,5,2667,0,3,2,desert_2,2,memory-2step-stake-s,719,3070313,0.0-19.0-0.1-0.220,A5CIHEPULDFUF,3X52SWXE10LAELCT6ESTJVPQIDRWCT,3IO1LGZLKDDDUM54OM4M8ZQHYX586P,1,2
221,3,object_04,object_02,416.30000007153,5,1,455.5,0.2222222222222222,1,object_06,1,2669,0,2,2,library_8,2,memory-2step-stake-s,720,3078198,0.0-19.0-0.1-0.221,A5CIHEPULDFUF,3X52SWXE10LAELCT6ESTJVPQIDRWCT,3IO1LGZLKDDDUM54OM4M8ZQHYX586P,5,6
222,1,object_07,object_05,415.0,1,1,409.5,0.6666666666666666,1,object_06,5,2699,0,6,3,desert_1,2,memory-2step-stake-s,721,3086462,0.0-19.0-0.1-0.222,A5CIHEPULDFUF,3X52SWXE10LAELCT6ESTJVPQIDRWCT,3IO1LGZLKDDDUM54OM4M8ZQHYX586P,1,2
223,3,object_02,object_04,153.70000004768,6,1,975.10000002384,0.2222222222222222,2,object_08,5,2709,0,4,2,library_8,2,memory-2step-stake-s,722,3094862,0.0-19.0-0.1-0.223,A5CIHEPULDFUF,3X52SWXE10LAELCT6ESTJVPQIDRWCT,3IO1LGZLKDDDUM54OM4M8ZQHYX586P,6,5
224,4,object_10,object_01,1263.1000000238,7,1,516.20000004768,0.7777777777777778,1,object_06,1,2716,0,7,0,restaurant_6,2,memory-2step-stake-s,723,3103314,0.0-19.0-0.1-0.224,A5CIHEPULDFUF,3X52SWXE10LAELCT6ESTJVPQIDRWCT,3IO1LGZLKDDDUM54OM4M8ZQHYX586P,7,8
225,2,object_09,object_03,332.90000009537,4,1,427.39999997616,0.0,2,object_08,5,2716,0,6,0,forest_6,2,memory-2step-stake-s,724,3110964,0.0-19.0-0.1-0.225,A5CIHEPULDFUF,3X52SWXE10LAELCT6ESTJVPQIDRWCT,3IO1LGZLKDDDUM54OM4M8ZQHYX586P,4,3
226,1,object_05,object_07,328.80000007153,2,1,444.0,0.1111111111111111,2,object_08,5,2721,0,6,1,desert_1,2,memory-2step-stake-s,725,3118740,0.0-19.0-0.1-0.226,A5CIHEPULDFUF,3X52SWXE10LAELCT6ESTJVPQIDRWCT,3IO1LGZLKDDDUM54OM4M8ZQHYX586P,2,1
227,2,object_09,object_03,566.29999995232,4,1,567.60000002384,0.3333333333333333,2,object_08,5,2736,0,6,3,forest_4,2,memory-2step-stake-s,726,3126838,0.0-19.0-0.1-0.227,A5CIHEPULDFUF,3X52SWXE10LAELCT6ESTJVPQIDRWCT,3IO1LGZLKDDDUM54OM4M8ZQHYX586P,4,3
228,1,object_07,object_05,353.80000007153,1,1,829.09999990463,0.5555555555555556,1,object_06,5,2761,0,5,4,desert_2,2,memory-2step-stake-s,727,3135399,0.0-19.0-0.1-0.228,A5CIHEPULDFUF,3X52SWXE10LAELCT6ESTJVPQIDRWCT,3IO1LGZLKDDDUM54OM4M8ZQHYX586P,1,2
229,1,object_05,object_07,419.60000002384,2,1,107.20000004768,0.2222222222222222,2,object_08,5,2771,0,5,2,desert_7,2,memory-2step-stake-s,728,3142935,0.0-19.0-0.1-0.229,A5CIHEPULDFUF,3X52SWXE10LAELCT6ESTJVPQIDRWCT,3IO1LGZLKDDDUM54OM4M8ZQHYX586P,2,1
230,4,object_10,object_01,553.5,7,1,578.29999995232,0.7777777777777778,1,object_06,1,2778,0,7,3,restaurant_6,2,memory-2step-stake-s,729,3151460,0.0-19.0-0.1-0.230,A5CIHEPULDFUF,3X52SWXE10LAELCT6ESTJVPQIDRWCT,3IO1LGZLKDDDUM54OM4M8ZQHYX586P,7,8
231,2,object_09,object_03,451.30000007153,4,1,340.0,0.3333333333333333,2,object_08,5,2793,0,5,3,forest_3,2,memory-2step-stake-s,730,3159343,0.0-19.0-0.1-0.231,A5CIHEPULDFUF,3X52SWXE10LAELCT6ESTJVPQIDRWCT,3IO1LGZLKDDDUM54OM4M8ZQHYX586P,4,3
232,1,object_07,object_05,388.09999990463,1,1,425.0,0.2222222222222222,1,object_06,5,2803,0,2,3,desert_1,2,memory-2step-stake-s,731,3167228,0.0-19.0-0.1-0.232,A5CIHEPULDFUF,3X52SWXE10LAELCT6ESTJVPQIDRWCT,3IO1LGZLKDDDUM54OM4M8ZQHYX586P,1,2
233,2,object_09,object_03,400.69999992847,4,1,496.59999990463,0.3333333333333333,2,object_08,5,2818,0,2,3,forest_4,2,memory-2step-stake-s,732,3175278,0.0-19.0-0.1-0.233,A5CIHEPULDFUF,3X52SWXE10LAELCT6ESTJVPQIDRWCT,3IO1LGZLKDDDUM54OM4M8ZQHYX586P,4,3
234,1,object_05,object_07,287.09999990463,2,1,426.0,0.1111111111111111,2,object_08,5,2823,0,1,1,desert_1,2,memory-2step-stake-s,733,3183030,0.0-19.0-0.1-0.234,A5CIHEPULDFUF,3X52SWXE10LAELCT6ESTJVPQIDRWCT,3IO1LGZLKDDDUM54OM4M8ZQHYX586P,2,1
235,4,object_01,object_10,417.69999992847,8,1,-1.0,0.0,2,object_08,1,2823,0,0,1,restaurant_2,2,memory-2step-stake-s,734,3191556,0.0-19.0-0.1-0.235,A5CIHEPULDFUF,3X52SWXE10LAELCT6ESTJVPQIDRWCT,3IO1LGZLKDDDUM54OM4M8ZQHYX586P,8,7
236,4,object_01,object_10,947.30000007153,8,1,594.89999997616,0.2222222222222222,2,object_08,1,2825,0,3,2,restaurant_1,2,memory-2step-stake-s,735,3199582,0.0-19.0-0.1-0.236,A5CIHEPULDFUF,3X52SWXE10LAELCT6ESTJVPQIDRWCT,3IO1LGZLKDDDUM54OM4M8ZQHYX586P,8,7
237,2,object_03,object_09,385.10000002384,3,1,421.39999997616,0.6666666666666666,1,object_06,5,2855,0,6,1,forest_6,2,memory-2step-stake-s,736,3207873,0.0-19.0-0.1-0.237,A5CIHEPULDFUF,3X52SWXE10LAELCT6ESTJVPQIDRWCT,3IO1LGZLKDDDUM54OM4M8ZQHYX586P,3,4
238,2,object_09,object_03,351.90000009537,4,1,1256.8000000715,0.2222222222222222,2,object_08,5,2865,0,3,2,forest_3,2,memory-2step-stake-s,737,3216558,0.0-19.0-0.1-0.238,A5CIHEPULDFUF,3X52SWXE10LAELCT6ESTJVPQIDRWCT,3IO1LGZLKDDDUM54OM4M8ZQHYX586P,4,3
239,3,object_02,object_04,379.0,6,1,428.5,0.3333333333333333,2,object_08,5,2880,0,6,3,library_8,2,memory-2step-stake-s,738,3224518,0.0-19.0-0.1-0.239,A5CIHEPULDFUF,3X52SWXE10LAELCT6ESTJVPQIDRWCT,3IO1LGZLKDDDUM54OM4M8ZQHYX586P,6,5
240,3,object_02,object_04,520.20000004768,6,1,659.30000007153,0.6666666666666666,2,object_08,1,2886,0,3,6,library_2,2,memory-2step-stake-s,739,3233018,0.0-19.0-0.1-0.240,A5CIHEPULDFUF,3X52SWXE10LAELCT6ESTJVPQIDRWCT,3IO1LGZLKDDDUM54OM4M8ZQHYX586P,6,5
241,1,object_05,object_07,295.39999997616,2,1,525.5,0.5555555555555556,2,object_08,1,2891,0,1,5,desert_6,2,memory-2step-stake-s,740,3241275,0.0-19.0-0.1-0.241,A5CIHEPULDFUF,3X52SWXE10LAELCT6ESTJVPQIDRWCT,3IO1LGZLKDDDUM54OM4M8ZQHYX586P,2,1
242,1,object_05,object_07,347.29999995232,2,1,843.30000007153,0.2222222222222222,2,object_08,5,2901,0,1,2,desert_2,2,memory-2step-stake-s,741,3249542,0.0-19.0-0.1-0.242,A5CIHEPULDFUF,3X52SWXE10LAELCT6ESTJVPQIDRWCT,3IO1LGZLKDDDUM54OM4M8ZQHYX586P,2,1
243,4,object_01,object_10,396.10000002384,8,1,144.29999995232,0.0,2,object_08,1,2901,0,3,0,restaurant_7,2,memory-2step-stake-s,742,3256915,0.0-19.0-0.1-0.243,A5CIHEPULDFUF,3X52SWXE10LAELCT6ESTJVPQIDRWCT,3IO1LGZLKDDDUM54OM4M8ZQHYX586P,8,7
244,4,object_01,object_10,444.10000002384,8,1,656.5,0.1111111111111111,2,object_08,5,2906,0,4,1,restaurant_2,2,memory-2step-stake-s,743,3264900,0.0-19.0-0.1-0.244,A5CIHEPULDFUF,3X52SWXE10LAELCT6ESTJVPQIDRWCT,3IO1LGZLKDDDUM54OM4M8ZQHYX586P,8,7
245,1,object_07,object_05,287.30000007153,1,1,529.59999990463,0.2222222222222222,1,object_06,5,2916,0,2,3,desert_2,2,memory-2step-stake-s,744,3272862,0.0-19.0-0.1-0.245,A5CIHEPULDFUF,3X52SWXE10LAELCT6ESTJVPQIDRWCT,3IO1LGZLKDDDUM54OM4M8ZQHYX586P,1,2
246,1,object_05,object_07,510.0,2,1,370.79999995232,0.2222222222222222,2,object_08,5,2926,0,4,2,desert_6,2,memory-2step-stake-s,745,3280656,0.0-19.0-0.1-0.246,A5CIHEPULDFUF,3X52SWXE10LAELCT6ESTJVPQIDRWCT,3IO1LGZLKDDDUM54OM4M8ZQHYX586P,2,1
247,3,object_02,object_04,1208.1999999285,6,1,725.80000007153,0.5555555555555556,2,object_08,1,2931,0,6,5,library_1,2,memory-2step-stake-s,746,3289112,0.0-19.0-0.1-0.247,A5CIHEPULDFUF,3X52SWXE10LAELCT6ESTJVPQIDRWCT,3IO1LGZLKDDDUM54OM4M8ZQHYX586P,6,5
248,4,object_01,object_10,333.30000007153,8,1,984.70000004768,0.5555555555555556,2,object_08,5,2956,0,4,5,restaurant_6,2,memory-2step-stake-s,747,3297826,0.0-19.0-0.1-0.248,A5CIHEPULDFUF,3X52SWXE10LAELCT6ESTJVPQIDRWCT,3IO1LGZLKDDDUM54OM4M8ZQHYX586P,8,7
249,3,object_02,object_04,873.20000004768,6,1,950.19999992847,0.8888888888888888,2,object_08,1,2964,0,4,8,library_5,2,memory-2step-stake-s,748,3306805,0.0-19.0-0.1-0.249,A5CIHEPULDFUF,3X52SWXE10LAELCT6ESTJVPQIDRWCT,3IO1LGZLKDDDUM54OM4M8ZQHYX586P,6,5
250,4,object_01,object_10,427.10000002384,8,1,441.60000002384,1.0,2,object_08,1,2973,0,4,9,restaurant_1,2,memory-2step-stake-s,749,3315409,0.0-19.0-0.1-0.250,A5CIHEPULDFUF,3X52SWXE10LAELCT6ESTJVPQIDRWCT,3IO1LGZLKDDDUM54OM4M8ZQHYX586P,8,7
251,2,object_03,object_09,318.0,3,1,513.5,0.7777777777777778,1,object_06,5,3008,0,7,9,forest_4,2,memory-2step-stake-s,750,3323873,0.0-19.0-0.1-0.251,A5CIHEPULDFUF,3X52SWXE10LAELCT6ESTJVPQIDRWCT,3IO1LGZLKDDDUM54OM4M8ZQHYX586P,3,4
252,2,object_03,object_09,303.20000004768,3,1,515.5,0.8888888888888888,1,object_06,1,3016,0,8,9,forest_6,2,memory-2step-stake-s,751,3332455,0.0-19.0-0.1-0.252,A5CIHEPULDFUF,3X52SWXE10LAELCT6ESTJVPQIDRWCT,3IO1LGZLKDDDUM54OM4M8ZQHYX586P,3,4
253,2,object_09,object_03,279.0,4,1,538.29999995232,0.6666666666666666,2,object_08,5,3046,0,9,6,forest_4,2,memory-2step-stake-s,752,3340829,0.0-19.0-0.1-0.253,A5CIHEPULDFUF,3X52SWXE10LAELCT6ESTJVPQIDRWCT,3IO1LGZLKDDDUM54OM4M8ZQHYX586P,4,3
254,1,object_07,object_05,275.30000007153,1,1,858.10000002384,1.0,1,object_06,5,3091,0,9,3,desert_7,2,memory-2step-stake-s,753,3349829,0.0-19.0-0.1-0.254,A5CIHEPULDFUF,3X52SWXE10LAELCT6ESTJVPQIDRWCT,3IO1LGZLKDDDUM54OM4M8ZQHYX586P,1,2
255,4,object_10,object_01,525.29999995232,7,1,526.20000004768,1.0,1,object_06,5,3136,0,9,3,restaurant_1,2,memory-2step-stake-s,754,3358491,0.0-19.0-0.1-0.255,A5CIHEPULDFUF,3X52SWXE10LAELCT6ESTJVPQIDRWCT,3IO1LGZLKDDDUM54OM4M8ZQHYX586P,7,8
