,state1,stim_left,stim_right,rt_1,choice1,response1,rt_2,points,state2,stim_state2,stake,score,practice,rews1,rews2,background,high_arm,trial_type,trial_index,time_elapsed,internal_node_id,subid,hitid,assignmentid,stim_left_num,stim_right_num
0,3,object_07,object_04,730.60000000149,6,1,1483.1000000015,0.7777777777777778,2,object_02,5,35,0,0,7,library_3,1,memory-2step-stake-s,505,776415,0.0-19.0-0.0-0.0,A159MC0L7J302O,3HRWUH63RXIZS6U0Z3EY966PXK25N4,3NOKK93PR5OYG28A779KCXEGQXYEEK,6,5
1,1,object_08,object_09,429.39999999851,2,2,577.79999999702,1.0,2,object_02,1,44,0,4,9,desert_1,1,memory-2step-stake-s,506,785246,0.0-19.0-0.0-0.1,A159MC0L7J302O,3HRWUH63RXIZS6U0Z3EY966PXK25N4,3NOKK93PR5OYG28A779KCXEGQXYEEK,1,2
2,4,object_06,object_03,87.699999999255,8,1,294.5,0.7777777777777778,2,object_02,1,51,0,4,7,restaurant_8,1,memory-2step-stake-s,507,793565,0.0-19.0-0.0-0.2,A159MC0L7J302O,3HRWUH63RXIZS6U0Z3EY966PXK25N4,3NOKK93PR5OYG28A779KCXEGQXYEEK,8,7
3,4,object_06,object_03,31.89999999851,7,2,402.39999999851,0.5555555555555556,1,object_05,5,76,0,5,9,restaurant_2,1,memory-2step-stake-s,508,801819,0.0-19.0-0.0-0.3,A159MC0L7J302O,3HRWUH63RXIZS6U0Z3EY966PXK25N4,3NOKK93PR5OYG28A779KCXEGQXYEEK,8,7
4,2,object_10,object_01,669.30000000075,3,2,382.19999999925,0.3333333333333333,1,object_05,1,79,0,3,8,forest_5,1,memory-2step-stake-s,509,809806,0.0-19.0-0.0-0.4,A159MC0L7J302O,3HRWUH63RXIZS6U0Z3EY966PXK25N4,3NOKK93PR5OYG28A779KCXEGQXYEEK,4,3
5,4,object_06,object_03,237.69999999925,8,1,421.80000000075,0.7777777777777778,2,object_02,5,114,0,5,7,restaurant_8,1,memory-2step-stake-s,510,818259,0.0-19.0-0.0-0.5,A159MC0L7J302O,3HRWUH63RXIZS6U0Z3EY966PXK25N4,3NOKK93PR5OYG28A779KCXEGQXYEEK,8,7
6,4,object_03,object_06,166.89999999851,8,2,359.20000000298,0.7777777777777778,2,object_02,5,149,0,5,7,restaurant_8,1,memory-2step-stake-s,511,826645,0.0-19.0-0.0-0.6,A159MC0L7J302O,3HRWUH63RXIZS6U0Z3EY966PXK25N4,3NOKK93PR5OYG28A779KCXEGQXYEEK,7,8
7,4,object_06,object_03,249.5,8,1,143.89999999851,0.6666666666666666,2,object_02,5,179,0,5,6,restaurant_3,1,memory-2step-stake-s,512,834702,0.0-19.0-0.0-0.7,A159MC0L7J302O,3HRWUH63RXIZS6U0Z3EY966PXK25N4,3NOKK93PR5OYG28A779KCXEGQXYEEK,8,7
8,4,object_06,object_03,319.80000000075,7,2,269.29999999702,0.4444444444444444,1,object_05,5,199,0,4,6,restaurant_2,1,memory-2step-stake-s,513,842678,0.0-19.0-0.0-0.8,A159MC0L7J302O,3HRWUH63RXIZS6U0Z3EY966PXK25N4,3NOKK93PR5OYG28A779KCXEGQXYEEK,8,7
9,4,object_03,object_06,386.79999999702,7,1,251.5,0.5555555555555556,1,object_05,1,204,0,5,5,restaurant_2,1,memory-2step-stake-s,514,850739,0.0-19.0-0.0-0.9,A159MC0L7J302O,3HRWUH63RXIZS6U0Z3EY966PXK25N4,3NOKK93PR5OYG28A779KCXEGQXYEEK,7,8
10,3,object_07,object_04,277.39999999851,5,2,18.099999997765,0.5555555555555556,1,object_05,5,229,0,5,6,library_6,1,memory-2step-stake-s,515,858552,0.0-19.0-0.0-0.10,A159MC0L7J302O,3HRWUH63RXIZS6U0Z3EY966PXK25N4,3NOKK93PR5OYG28A779KCXEGQXYEEK,6,5
11,2,object_10,object_01,365.80000000075,3,2,267.0,0.6666666666666666,1,object_05,1,235,0,6,6,forest_7,1,memory-2step-stake-s,516,866751,0.0-19.0-0.0-0.11,A159MC0L7J302O,3HRWUH63RXIZS6U0Z3EY966PXK25N4,3NOKK93PR5OYG28A779KCXEGQXYEEK,4,3
12,4,object_06,object_03,523.5,8,1,361.0,0.6666666666666666,2,object_02,5,265,0,5,6,restaurant_8,1,memory-2step-stake-s,517,875049,0.0-19.0-0.0-0.12,A159MC0L7J302O,3HRWUH63RXIZS6U0Z3EY966PXK25N4,3NOKK93PR5OYG28A779KCXEGQXYEEK,8,7
13,2,object_01,object_10,324.5,3,1,223.5,0.4444444444444444,1,object_05,1,269,0,4,6,forest_5,1,memory-2step-stake-s,518,882970,0.0-19.0-0.0-0.13,A159MC0L7J302O,3HRWUH63RXIZS6U0Z3EY966PXK25N4,3NOKK93PR5OYG28A779KCXEGQXYEEK,3,4
14,1,object_09,object_08,487.19999999925,1,2,262.0,0.4444444444444444,1,object_05,5,289,0,4,7,desert_4,1,memory-2step-stake-s,519,890945,0.0-19.0-0.0-0.14,A159MC0L7J302O,3HRWUH63RXIZS6U0Z3EY966PXK25N4,3NOKK93PR5OYG28A779KCXEGQXYEEK,2,1
15,2,object_10,object_01,642.20000000298,4,1,368.80000000075,0.5555555555555556,2,object_02,1,294,0,5,5,forest_6,1,memory-2step-stake-s,520,899138,0.0-19.0-0.0-0.15,A159MC0L7J302O,3HRWUH63RXIZS6U0Z3EY966PXK25N4,3NOKK93PR5OYG28A779KCXEGQXYEEK,4,3
16,3,object_07,object_04,342.30000000075,6,1,292.5,0.5555555555555556,2,object_02,1,299,0,4,5,library_5,1,memory-2step-stake-s,521,907283,0.0-19.0-0.0-0.16,A159MC0L7J302O,3HRWUH63RXIZS6U0Z3EY966PXK25N4,3NOKK93PR5OYG28A779KCXEGQXYEEK,6,5
17,1,object_09,object_08,28.89999999851,2,1,265.40000000224,0.1111111111111111,2,object_02,5,304,0,4,1,desert_7,1,memory-2step-stake-s,522,914958,0.0-19.0-0.0-0.17,A159MC0L7J302O,3HRWUH63RXIZS6U0Z3EY966PXK25N4,3NOKK93PR5OYG28A779KCXEGQXYEEK,2,1
18,4,object_03,object_06,613.10000000149,8,2,315.80000000075,0.1111111111111111,2,object_02,5,309,0,5,1,restaurant_8,1,memory-2step-stake-s,523,922682,0.0-19.0-0.0-0.18,A159MC0L7J302O,3HRWUH63RXIZS6U0Z3EY966PXK25N4,3NOKK93PR5OYG28A779KCXEGQXYEEK,7,8
19,3,object_07,object_04,693.5,6,1,356.60000000149,0.1111111111111111,2,object_02,5,314,0,7,1,library_4,1,memory-2step-stake-s,524,930400,0.0-19.0-0.0-0.19,A159MC0L7J302O,3HRWUH63RXIZS6U0Z3EY966PXK25N4,3NOKK93PR5OYG28A779KCXEGQXYEEK,6,5
20,3,object_07,object_04,698.69999999925,5,2,462.0,0.6666666666666666,1,object_05,1,320,0,6,1,library_5,1,memory-2step-stake-s,525,938770,0.0-19.0-0.0-0.20,A159MC0L7J302O,3HRWUH63RXIZS6U0Z3EY966PXK25N4,3NOKK93PR5OYG28A779KCXEGQXYEEK,6,5
21,1,object_09,object_08,721.30000000075,1,2,301.40000000224,0.4444444444444444,1,object_05,1,324,0,4,1,desert_2,1,memory-2step-stake-s,526,946758,0.0-19.0-0.0-0.21,A159MC0L7J302O,3HRWUH63RXIZS6U0Z3EY966PXK25N4,3NOKK93PR5OYG28A779KCXEGQXYEEK,2,1
22,2,object_10,object_01,748.80000000075,4,1,318.59999999776,0.1111111111111111,2,object_02,1,325,0,2,1,forest_6,1,memory-2step-stake-s,527,954440,0.0-19.0-0.0-0.22,A159MC0L7J302O,3HRWUH63RXIZS6U0Z3EY966PXK25N4,3NOKK93PR5OYG28A779KCXEGQXYEEK,4,3
23,4,object_03,object_06,1067.6000000015,8,2,586.40000000224,0.1111111111111111,2,object_02,5,330,0,4,1,restaurant_3,1,memory-2step-stake-s,528,962392,0.0-19.0-0.0-0.23,A159MC0L7J302O,3HRWUH63RXIZS6U0Z3EY966PXK25N4,3NOKK93PR5OYG28A779KCXEGQXYEEK,7,8
24,2,object_10,object_01,465.30000000075,3,2,54.60000000149,0.3333333333333333,1,object_05,1,333,0,3,2,forest_7,1,memory-2step-stake-s,529,970042,0.0-19.0-0.0-0.24,A159MC0L7J302O,3HRWUH63RXIZS6U0Z3EY966PXK25N4,3NOKK93PR5OYG28A779KCXEGQXYEEK,4,3
25,4,object_06,object_03,1139.5,8,1,859.10000000149,0.2222222222222222,2,object_02,5,343,0,3,2,restaurant_5,1,memory-2step-stake-s,530,978354,0.0-19.0-0.0-0.25,A159MC0L7J302O,3HRWUH63RXIZS6U0Z3EY966PXK25N4,3NOKK93PR5OYG28A779KCXEGQXYEEK,8,7
26,3,object_07,object_04,926.29999999702,5,2,542.0,0.1111111111111111,1,object_05,5,348,0,1,2,library_5,1,memory-2step-stake-s,531,986268,0.0-19.0-0.0-0.26,A159MC0L7J302O,3HRWUH63RXIZS6U0Z3EY966PXK25N4,3NOKK93PR5OYG28A779KCXEGQXYEEK,6,5
27,1,object_08,object_09,119.5,1,1,94.199999999255,0.3333333333333333,1,object_05,1,351,0,3,0,desert_1,1,memory-2step-stake-s,532,993949,0.0-19.0-0.0-0.27,A159MC0L7J302O,3HRWUH63RXIZS6U0Z3EY966PXK25N4,3NOKK93PR5OYG28A779KCXEGQXYEEK,1,2
28,1,object_08,object_09,637.39999999851,2,2,248.30000000075,0.0,2,object_02,1,351,0,2,0,desert_4,1,memory-2step-stake-s,533,1001468,0.0-19.0-0.0-0.28,A159MC0L7J302O,3HRWUH63RXIZS6U0Z3EY966PXK25N4,3NOKK93PR5OYG28A779KCXEGQXYEEK,1,2
29,2,object_01,object_10,570.10000000149,4,2,335.39999999851,0.1111111111111111,2,object_02,1,352,0,5,1,forest_7,1,memory-2step-stake-s,534,1009179,0.0-19.0-0.0-0.29,A159MC0L7J302O,3HRWUH63RXIZS6U0Z3EY966PXK25N4,3NOKK93PR5OYG28A779KCXEGQXYEEK,3,4
30,1,object_08,object_09,800.0,1,1,970.90000000224,0.6666666666666666,1,object_05,1,358,0,6,5,desert_7,1,memory-2step-stake-s,535,1018055,0.0-19.0-0.0-0.30,A159MC0L7J302O,3HRWUH63RXIZS6U0Z3EY966PXK25N4,3NOKK93PR5OYG28A779KCXEGQXYEEK,1,2
31,3,object_04,object_07,127.89999999851,5,1,37.699999999255,0.7777777777777778,1,object_05,1,365,0,7,2,library_3,1,memory-2step-stake-s,536,1026102,0.0-19.0-0.0-0.31,A159MC0L7J302O,3HRWUH63RXIZS6U0Z3EY966PXK25N4,3NOKK93PR5OYG28A779KCXEGQXYEEK,5,6
32,2,object_10,object_01,462.60000000149,3,2,306.89999999851,0.6666666666666666,1,object_05,1,371,0,6,1,forest_5,1,memory-2step-stake-s,537,1034341,0.0-19.0-0.0-0.32,A159MC0L7J302O,3HRWUH63RXIZS6U0Z3EY966PXK25N4,3NOKK93PR5OYG28A779KCXEGQXYEEK,4,3
33,2,object_01,object_10,329.20000000298,3,1,65.10000000149,0.5555555555555556,1,object_05,1,376,0,5,0,forest_8,1,memory-2step-stake-s,538,1042193,0.0-19.0-0.0-0.33,A159MC0L7J302O,3HRWUH63RXIZS6U0Z3EY966PXK25N4,3NOKK93PR5OYG28A779KCXEGQXYEEK,3,4
34,4,object_03,object_06,976.10000000149,7,1,293.29999999702,0.5555555555555556,1,object_05,5,401,0,5,2,restaurant_3,1,memory-2step-stake-s,539,1050344,0.0-19.0-0.0-0.34,A159MC0L7J302O,3HRWUH63RXIZS6U0Z3EY966PXK25N4,3NOKK93PR5OYG28A779KCXEGQXYEEK,7,8
35,1,object_09,object_08,439.30000000075,1,2,412.40000000224,0.5555555555555556,1,object_05,1,406,0,5,3,desert_1,1,memory-2step-stake-s,540,1058577,0.0-19.0-0.0-0.35,A159MC0L7J302O,3HRWUH63RXIZS6U0Z3EY966PXK25N4,3NOKK93PR5OYG28A779KCXEGQXYEEK,2,1
36,4,object_06,object_03,933.80000000075,8,1,317.70000000298,0.1111111111111111,2,object_02,1,407,0,5,1,restaurant_3,1,memory-2step-stake-s,541,1066282,0.0-19.0-0.0-0.36,A159MC0L7J302O,3HRWUH63RXIZS6U0Z3EY966PXK25N4,3NOKK93PR5OYG28A779KCXEGQXYEEK,8,7
37,1,object_09,object_08,608.20000000298,1,2,337.0,0.4444444444444444,1,object_05,1,411,0,4,0,desert_7,1,memory-2step-stake-s,542,1074346,0.0-19.0-0.0-0.37,A159MC0L7J302O,3HRWUH63RXIZS6U0Z3EY966PXK25N4,3NOKK93PR5OYG28A779KCXEGQXYEEK,2,1
38,1,object_08,object_09,598.5,1,1,409.80000000075,0.5555555555555556,1,object_05,1,416,0,5,1,desert_2,1,memory-2step-stake-s,543,1082598,0.0-19.0-0.0-0.38,A159MC0L7J302O,3HRWUH63RXIZS6U0Z3EY966PXK25N4,3NOKK93PR5OYG28A779KCXEGQXYEEK,1,2
39,1,object_08,object_09,644.39999999851,2,2,477.80000000075,0.2222222222222222,2,object_02,1,418,0,6,2,desert_4,1,memory-2step-stake-s,544,1090565,0.0-19.0-0.0-0.39,A159MC0L7J302O,3HRWUH63RXIZS6U0Z3EY966PXK25N4,3NOKK93PR5OYG28A779KCXEGQXYEEK,1,2
40,4,object_06,object_03,418.10000000149,7,2,290.10000000149,0.4444444444444444,1,object_05,5,438,0,4,1,restaurant_5,1,memory-2step-stake-s,545,1098539,0.0-19.0-0.0-0.40,A159MC0L7J302O,3HRWUH63RXIZS6U0Z3EY966PXK25N4,3NOKK93PR5OYG28A779KCXEGQXYEEK,8,7
41,2,object_10,object_01,122.80000000075,4,1,462.40000000224,0.2222222222222222,2,object_02,1,440,0,8,2,forest_6,1,memory-2step-stake-s,546,1106510,0.0-19.0-0.0-0.41,A159MC0L7J302O,3HRWUH63RXIZS6U0Z3EY966PXK25N4,3NOKK93PR5OYG28A779KCXEGQXYEEK,4,3
42,3,object_07,object_04,783.19999999925,6,1,344.69999999925,0.4444444444444444,2,object_02,5,460,0,7,4,library_6,1,memory-2step-stake-s,547,1114530,0.0-19.0-0.0-0.42,A159MC0L7J302O,3HRWUH63RXIZS6U0Z3EY966PXK25N4,3NOKK93PR5OYG28A779KCXEGQXYEEK,6,5
43,2,object_10,object_01,553.59999999776,4,1,327.0,0.5555555555555556,2,object_02,1,465,0,4,5,forest_7,1,memory-2step-stake-s,548,1122664,0.0-19.0-0.0-0.43,A159MC0L7J302O,3HRWUH63RXIZS6U0Z3EY966PXK25N4,3NOKK93PR5OYG28A779KCXEGQXYEEK,4,3
44,2,object_10,object_01,351.69999999925,3,2,267.40000000224,0.3333333333333333,1,object_05,1,468,0,3,9,forest_8,1,memory-2step-stake-s,549,1130507,0.0-19.0-0.0-0.44,A159MC0L7J302O,3HRWUH63RXIZS6U0Z3EY966PXK25N4,3NOKK93PR5OYG28A779KCXEGQXYEEK,4,3
45,2,object_10,object_01,291.20000000298,4,1,256.19999999925,0.4444444444444444,2,object_02,1,472,0,3,4,forest_8,1,memory-2step-stake-s,550,1138454,0.0-19.0-0.0-0.45,A159MC0L7J302O,3HRWUH63RXIZS6U0Z3EY966PXK25N4,3NOKK93PR5OYG28A779KCXEGQXYEEK,4,3
46,1,object_09,object_08,648.5,1,2,270.0,0.4444444444444444,1,object_05,5,492,0,4,4,desert_4,1,memory-2step-stake-s,551,1146412,0.0-19.0-0.0-0.46,A159MC0L7J302O,3HRWUH63RXIZS6U0Z3EY966PXK25N4,3NOKK93PR5OYG28A779KCXEGQXYEEK,2,1
47,2,object_01,object_10,596.60000000149,3,1,278.19999999925,0.2222222222222222,1,object_05,5,502,0,2,4,forest_6,1,memory-2step-stake-s,552,1154163,0.0-19.0-0.0-0.47,A159MC0L7J302O,3HRWUH63RXIZS6U0Z3EY966PXK25N4,3NOKK93PR5OYG28A779KCXEGQXYEEK,3,4
48,4,object_03,object_06,86.699999999255,8,2,291.10000000149,0.4444444444444444,2,object_02,1,506,0,1,4,restaurant_8,1,memory-2step-stake-s,553,1162158,0.0-19.0-0.0-0.48,A159MC0L7J302O,3HRWUH63RXIZS6U0Z3EY966PXK25N4,3NOKK93PR5OYG28A779KCXEGQXYEEK,7,8
49,3,object_07,object_04,277.5,6,1,284.10000000149,0.6666666666666666,2,object_02,5,536,0,0,6,library_4,1,memory-2step-stake-s,554,1170388,0.0-19.0-0.0-0.49,A159MC0L7J302O,3HRWUH63RXIZS6U0Z3EY966PXK25N4,3NOKK93PR5OYG28A779KCXEGQXYEEK,6,5
50,4,object_06,object_03,775.5,8,1,356.60000000149,0.6666666666666666,2,object_02,5,566,0,2,6,restaurant_3,1,memory-2step-stake-s,555,1178660,0.0-19.0-0.0-0.50,A159MC0L7J302O,3HRWUH63RXIZS6U0Z3EY966PXK25N4,3NOKK93PR5OYG28A779KCXEGQXYEEK,8,7
51,4,object_06,object_03,737.30000000075,7,2,265.5,0.4444444444444444,1,object_05,5,586,0,4,5,restaurant_5,1,memory-2step-stake-s,556,1186634,0.0-19.0-0.0-0.51,A159MC0L7J302O,3HRWUH63RXIZS6U0Z3EY966PXK25N4,3NOKK93PR5OYG28A779KCXEGQXYEEK,8,7
52,2,object_01,object_10,518.5,3,1,268.69999999925,0.6666666666666666,1,object_05,5,616,0,6,3,forest_6,1,memory-2step-stake-s,557,1194845,0.0-19.0-0.0-0.52,A159MC0L7J302O,3HRWUH63RXIZS6U0Z3EY966PXK25N4,3NOKK93PR5OYG28A779KCXEGQXYEEK,3,4
53,3,object_04,object_07,135.5,5,1,262.09999999776,0.8888888888888888,1,object_05,5,656,0,8,2,library_6,1,memory-2step-stake-s,558,1203233,0.0-19.0-0.0-0.53,A159MC0L7J302O,3HRWUH63RXIZS6U0Z3EY966PXK25N4,3NOKK93PR5OYG28A779KCXEGQXYEEK,5,6
54,4,object_03,object_06,218.60000000149,8,2,267.89999999851,0.1111111111111111,2,object_02,5,661,0,7,1,restaurant_3,1,memory-2step-stake-s,559,1210874,0.0-19.0-0.0-0.54,A159MC0L7J302O,3HRWUH63RXIZS6U0Z3EY966PXK25N4,3NOKK93PR5OYG28A779KCXEGQXYEEK,7,8
55,1,object_08,object_09,230.30000000075,1,1,278.69999999925,0.8888888888888888,1,object_05,5,701,0,8,4,desert_7,1,memory-2step-stake-s,560,1219293,0.0-19.0-0.0-0.55,A159MC0L7J302O,3HRWUH63RXIZS6U0Z3EY966PXK25N4,3NOKK93PR5OYG28A779KCXEGQXYEEK,1,2
56,2,object_10,object_01,67.800000000745,4,1,293.69999999925,0.0,2,object_02,1,701,0,4,0,forest_8,1,memory-2step-stake-s,561,1226866,0.0-19.0-0.0-0.56,A159MC0L7J302O,3HRWUH63RXIZS6U0Z3EY966PXK25N4,3NOKK93PR5OYG28A779KCXEGQXYEEK,4,3
57,1,object_09,object_08,110.0,1,2,315.5,0.5555555555555556,1,object_05,1,706,0,5,3,desert_2,1,memory-2step-stake-s,562,1234991,0.0-19.0-0.0-0.57,A159MC0L7J302O,3HRWUH63RXIZS6U0Z3EY966PXK25N4,3NOKK93PR5OYG28A779KCXEGQXYEEK,2,1
58,2,object_01,object_10,357.19999999925,3,1,511.40000000224,0.6666666666666666,1,object_05,1,712,0,6,1,forest_6,1,memory-2step-stake-s,563,1243407,0.0-19.0-0.0-0.58,A159MC0L7J302O,3HRWUH63RXIZS6U0Z3EY966PXK25N4,3NOKK93PR5OYG28A779KCXEGQXYEEK,3,4
59,2,object_10,object_01,155.39999999851,4,1,369.5,0.0,2,object_02,1,712,0,5,0,forest_6,1,memory-2step-stake-s,564,1251046,0.0-19.0-0.0-0.59,A159MC0L7J302O,3HRWUH63RXIZS6U0Z3EY966PXK25N4,3NOKK93PR5OYG28A779KCXEGQXYEEK,4,3
60,2,object_10,object_01,320.59999999776,4,1,613.40000000224,0.1111111111111111,2,object_02,1,713,0,5,1,forest_6,1,memory-2step-stake-s,565,1259029,0.0-19.0-0.0-0.60,A159MC0L7J302O,3HRWUH63RXIZS6U0Z3EY966PXK25N4,3NOKK93PR5OYG28A779KCXEGQXYEEK,4,3
61,3,object_04,object_07,332.10000000149,5,1,394.60000000149,0.6666666666666666,1,object_05,5,743,0,6,3,library_4,1,memory-2step-stake-s,566,1267332,0.0-19.0-0.0-0.61,A159MC0L7J302O,3HRWUH63RXIZS6U0Z3EY966PXK25N4,3NOKK93PR5OYG28A779KCXEGQXYEEK,5,6
62,1,object_08,object_09,855.40000000224,1,1,473.09999999776,0.4444444444444444,1,object_05,1,747,0,4,2,desert_4,1,memory-2step-stake-s,567,1275522,0.0-19.0-0.0-0.62,A159MC0L7J302O,3HRWUH63RXIZS6U0Z3EY966PXK25N4,3NOKK93PR5OYG28A779KCXEGQXYEEK,1,2
63,2,object_01,object_10,89.0,4,2,400.89999999851,0.5555555555555556,2,object_02,1,752,0,6,5,forest_7,1,memory-2step-stake-s,568,1283720,0.0-19.0-0.0-0.63,A159MC0L7J302O,3HRWUH63RXIZS6U0Z3EY966PXK25N4,3NOKK93PR5OYG28A779KCXEGQXYEEK,3,4
64,3,object_04,object_07,99.900000002235,6,2,288.29999999702,0.6666666666666666,2,object_02,5,782,0,9,6,library_5,1,memory-2step-stake-s,569,1291944,0.0-19.0-0.0-0.64,A159MC0L7J302O,3HRWUH63RXIZS6U0Z3EY966PXK25N4,3NOKK93PR5OYG28A779KCXEGQXYEEK,5,6
65,2,object_10,object_01,271.10000000149,4,1,308.19999999925,0.7777777777777778,2,object_02,1,789,0,8,7,forest_8,1,memory-2step-stake-s,570,1300287,0.0-19.0-0.0-0.65,A159MC0L7J302O,3HRWUH63RXIZS6U0Z3EY966PXK25N4,3NOKK93PR5OYG28A779KCXEGQXYEEK,4,3
66,1,object_08,object_09,525.09999999776,1,1,341.39999999851,0.7777777777777778,1,object_05,1,796,0,7,7,desert_4,1,memory-2step-stake-s,571,1308648,0.0-19.0-0.0-0.66,A159MC0L7J302O,3HRWUH63RXIZS6U0Z3EY966PXK25N4,3NOKK93PR5OYG28A779KCXEGQXYEEK,1,2
67,3,object_07,object_04,546.39999999851,5,2,558.80000000075,0.7777777777777778,1,object_05,1,803,0,7,6,library_3,1,memory-2step-stake-s,572,1317261,0.0-19.0-0.0-0.67,A159MC0L7J302O,3HRWUH63RXIZS6U0Z3EY966PXK25N4,3NOKK93PR5OYG28A779KCXEGQXYEEK,6,5
68,3,object_04,object_07,39.300000000745,5,1,280.69999999925,0.5555555555555556,1,object_05,5,828,0,5,6,library_4,1,memory-2step-stake-s,573,1325355,0.0-19.0-0.0-0.68,A159MC0L7J302O,3HRWUH63RXIZS6U0Z3EY966PXK25N4,3NOKK93PR5OYG28A779KCXEGQXYEEK,5,6
69,1,object_08,object_09,410.80000000075,1,1,383.19999999925,0.2222222222222222,1,object_05,1,830,0,2,7,desert_2,1,memory-2step-stake-s,574,1333236,0.0-19.0-0.0-0.69,A159MC0L7J302O,3HRWUH63RXIZS6U0Z3EY966PXK25N4,3NOKK93PR5OYG28A779KCXEGQXYEEK,1,2
70,2,object_01,object_10,87.39999999851,4,2,251.80000000075,0.5555555555555556,2,object_02,1,835,0,3,5,forest_8,1,memory-2step-stake-s,575,1341297,0.0-19.0-0.0-0.70,A159MC0L7J302O,3HRWUH63RXIZS6U0Z3EY966PXK25N4,3NOKK93PR5OYG28A779KCXEGQXYEEK,3,4
71,2,object_01,object_10,527.59999999776,3,1,363.70000000298,0.3333333333333333,1,object_05,5,850,0,3,8,forest_6,1,memory-2step-stake-s,576,1349276,0.0-19.0-0.0-0.71,A159MC0L7J302O,3HRWUH63RXIZS6U0Z3EY966PXK25N4,3NOKK93PR5OYG28A779KCXEGQXYEEK,3,4
72,3,object_04,object_07,669.59999999776,5,1,268.79999999702,0.5555555555555556,1,object_05,5,875,0,5,8,library_6,1,memory-2step-stake-s,577,1357372,0.0-19.0-0.0-0.72,A159MC0L7J302O,3HRWUH63RXIZS6U0Z3EY966PXK25N4,3NOKK93PR5OYG28A779KCXEGQXYEEK,5,6
73,1,object_09,object_08,142.30000000075,2,1,114.39999999851,0.8888888888888888,2,object_02,1,883,0,6,8,desert_2,1,memory-2step-stake-s,578,1365620,0.0-19.0-0.0-0.73,A159MC0L7J302O,3HRWUH63RXIZS6U0Z3EY966PXK25N4,3NOKK93PR5OYG28A779KCXEGQXYEEK,2,1
74,4,object_06,object_03,309.80000000075,8,1,661.0,1.0,2,object_02,1,892,0,6,9,restaurant_3,1,memory-2step-stake-s,579,1374527,0.0-19.0-0.0-0.74,A159MC0L7J302O,3HRWUH63RXIZS6U0Z3EY966PXK25N4,3NOKK93PR5OYG28A779KCXEGQXYEEK,8,7
75,3,object_07,object_04,407.0,6,1,336.09999999776,0.7777777777777778,2,object_02,1,899,0,8,7,library_6,1,memory-2step-stake-s,580,1382905,0.0-19.0-0.0-0.75,A159MC0L7J302O,3HRWUH63RXIZS6U0Z3EY966PXK25N4,3NOKK93PR5OYG28A779KCXEGQXYEEK,6,5
76,4,object_06,object_03,763.69999999925,7,2,279.30000000075,0.7777777777777778,1,object_05,5,934,0,7,5,restaurant_2,1,memory-2step-stake-s,581,1391249,0.0-19.0-0.0-0.76,A159MC0L7J302O,3HRWUH63RXIZS6U0Z3EY966PXK25N4,3NOKK93PR5OYG28A779KCXEGQXYEEK,8,7
77,2,object_10,object_01,87.300000000745,3,2,221.30000000075,0.5555555555555556,1,object_05,1,939,0,5,4,forest_8,1,memory-2step-stake-s,582,1399296,0.0-19.0-0.0-0.77,A159MC0L7J302O,3HRWUH63RXIZS6U0Z3EY966PXK25N4,3NOKK93PR5OYG28A779KCXEGQXYEEK,4,3
78,4,object_03,object_06,261.0,7,1,271.30000000075,0.6666666666666666,1,object_05,5,969,0,6,3,restaurant_2,1,memory-2step-stake-s,583,1407492,0.0-19.0-0.0-0.78,A159MC0L7J302O,3HRWUH63RXIZS6U0Z3EY966PXK25N4,3NOKK93PR5OYG28A779KCXEGQXYEEK,7,8
79,4,object_03,object_06,97.29999999702,7,1,266.19999999925,0.3333333333333333,1,object_05,5,984,0,3,2,restaurant_2,1,memory-2step-stake-s,584,1415343,0.0-19.0-0.0-0.79,A159MC0L7J302O,3HRWUH63RXIZS6U0Z3EY966PXK25N4,3NOKK93PR5OYG28A779KCXEGQXYEEK,7,8
80,3,object_07,object_04,513.79999999702,5,2,418.39999999851,0.1111111111111111,1,object_05,5,989,0,1,1,library_4,1,memory-2step-stake-s,585,1423143,0.0-19.0-0.0-0.80,A159MC0L7J302O,3HRWUH63RXIZS6U0Z3EY966PXK25N4,3NOKK93PR5OYG28A779KCXEGQXYEEK,6,5
81,4,object_06,object_03,252.19999999925,8,1,250.0,0.4444444444444444,2,object_02,5,1009,0,3,4,restaurant_5,1,memory-2step-stake-s,586,1431104,0.0-19.0-0.0-0.81,A159MC0L7J302O,3HRWUH63RXIZS6U0Z3EY966PXK25N4,3NOKK93PR5OYG28A779KCXEGQXYEEK,8,7
82,4,object_03,object_06,261.5,7,1,233.19999999925,0.3333333333333333,1,object_05,5,1024,0,3,6,restaurant_2,1,memory-2step-stake-s,587,1438934,0.0-19.0-0.0-0.82,A159MC0L7J302O,3HRWUH63RXIZS6U0Z3EY966PXK25N4,3NOKK93PR5OYG28A779KCXEGQXYEEK,7,8
83,3,object_04,object_07,77.0,6,2,271.30000000075,0.4444444444444444,2,object_02,5,1044,0,4,4,library_4,1,memory-2step-stake-s,588,1446880,0.0-19.0-0.0-0.83,A159MC0L7J302O,3HRWUH63RXIZS6U0Z3EY966PXK25N4,3NOKK93PR5OYG28A779KCXEGQXYEEK,5,6
84,1,object_09,object_08,259.80000000075,2,1,372.30000000075,0.4444444444444444,2,object_02,1,1048,0,6,4,desert_2,1,memory-2step-stake-s,589,1454991,0.0-19.0-0.0-0.84,A159MC0L7J302O,3HRWUH63RXIZS6U0Z3EY966PXK25N4,3NOKK93PR5OYG28A779KCXEGQXYEEK,2,1
85,3,object_07,object_04,258.80000000075,6,1,93.0,0.2222222222222222,2,object_02,5,1058,0,8,2,library_3,1,memory-2step-stake-s,590,1462576,0.0-19.0-0.0-0.85,A159MC0L7J302O,3HRWUH63RXIZS6U0Z3EY966PXK25N4,3NOKK93PR5OYG28A779KCXEGQXYEEK,6,5
86,3,object_07,object_04,268.0,5,2,312.19999999925,0.8888888888888888,1,object_05,5,1098,0,8,1,library_6,1,memory-2step-stake-s,591,1470997,0.0-19.0-0.0-0.86,A159MC0L7J302O,3HRWUH63RXIZS6U0Z3EY966PXK25N4,3NOKK93PR5OYG28A779KCXEGQXYEEK,6,5
87,1,object_08,object_09,415.29999999702,1,1,457.39999999851,0.5555555555555556,1,object_05,1,1103,0,5,5,desert_7,1,memory-2step-stake-s,592,1479276,0.0-19.0-0.0-0.87,A159MC0L7J302O,3HRWUH63RXIZS6U0Z3EY966PXK25N4,3NOKK93PR5OYG28A779KCXEGQXYEEK,1,2
88,1,object_08,object_09,325.89999999851,1,1,328.5,0.7777777777777778,1,object_05,1,1110,0,7,5,desert_2,1,memory-2step-stake-s,593,1487639,0.0-19.0-0.0-0.88,A159MC0L7J302O,3HRWUH63RXIZS6U0Z3EY966PXK25N4,3NOKK93PR5OYG28A779KCXEGQXYEEK,1,2
89,3,object_07,object_04,285.89999999851,6,1,545.10000000149,0.2222222222222222,2,object_02,5,1120,0,9,2,library_3,1,memory-2step-stake-s,594,1495675,0.0-19.0-0.0-0.89,A159MC0L7J302O,3HRWUH63RXIZS6U0Z3EY966PXK25N4,3NOKK93PR5OYG28A779KCXEGQXYEEK,6,5
90,1,object_09,object_08,258.5,2,1,468.19999999925,0.1111111111111111,2,object_02,1,1121,0,7,1,desert_2,1,memory-2step-stake-s,595,1503525,0.0-19.0-0.0-0.90,A159MC0L7J302O,3HRWUH63RXIZS6U0Z3EY966PXK25N4,3NOKK93PR5OYG28A779KCXEGQXYEEK,2,1
91,2,object_01,object_10,216.0,3,1,404.0,0.6666666666666666,1,object_05,5,1151,0,6,3,forest_6,1,memory-2step-stake-s,596,1511842,0.0-19.0-0.0-0.91,A159MC0L7J302O,3HRWUH63RXIZS6U0Z3EY966PXK25N4,3NOKK93PR5OYG28A779KCXEGQXYEEK,3,4
92,3,object_07,object_04,444.09999999776,6,1,381.69999999925,0.2222222222222222,2,object_02,5,1161,0,6,2,library_5,1,memory-2step-stake-s,597,1519707,0.0-19.0-0.0-0.92,A159MC0L7J302O,3HRWUH63RXIZS6U0Z3EY966PXK25N4,3NOKK93PR5OYG28A779KCXEGQXYEEK,6,5
93,1,object_08,object_09,379.80000000075,2,2,639.90000000224,0.5555555555555556,2,object_02,1,1166,0,2,5,desert_1,1,memory-2step-stake-s,598,1528170,0.0-19.0-0.0-0.93,A159MC0L7J302O,3HRWUH63RXIZS6U0Z3EY966PXK25N4,3NOKK93PR5OYG28A779KCXEGQXYEEK,1,2
94,4,object_03,object_06,439.09999999776,7,1,287.89999999851,0.3333333333333333,1,object_05,5,1181,0,3,8,restaurant_8,1,memory-2step-stake-s,599,1536066,0.0-19.0-0.0-0.94,A159MC0L7J302O,3HRWUH63RXIZS6U0Z3EY966PXK25N4,3NOKK93PR5OYG28A779KCXEGQXYEEK,7,8
95,3,object_04,object_07,91.5,6,2,271.69999999925,0.8888888888888888,2,object_02,5,1221,0,5,8,library_3,1,memory-2step-stake-s,600,1544464,0.0-19.0-0.0-0.95,A159MC0L7J302O,3HRWUH63RXIZS6U0Z3EY966PXK25N4,3NOKK93PR5OYG28A779KCXEGQXYEEK,5,6
96,3,object_04,object_07,235.09999999776,5,1,332.89999999851,0.5555555555555556,1,object_05,5,1246,0,5,7,library_4,1,memory-2step-stake-s,601,1552593,0.0-19.0-0.0-0.96,A159MC0L7J302O,3HRWUH63RXIZS6U0Z3EY966PXK25N4,3NOKK93PR5OYG28A779KCXEGQXYEEK,5,6
97,1,object_09,object_08,162.90000000224,2,1,255.40000000224,0.6666666666666666,2,object_02,5,1276,0,4,6,desert_4,1,memory-2step-stake-s,602,1560759,0.0-19.0-0.0-0.97,A159MC0L7J302O,3HRWUH63RXIZS6U0Z3EY966PXK25N4,3NOKK93PR5OYG28A779KCXEGQXYEEK,2,1
98,3,object_07,object_04,439.59999999776,5,2,408.39999999851,0.2222222222222222,1,object_05,5,1286,0,2,5,library_3,1,memory-2step-stake-s,603,1568641,0.0-19.0-0.0-0.98,A159MC0L7J302O,3HRWUH63RXIZS6U0Z3EY966PXK25N4,3NOKK93PR5OYG28A779KCXEGQXYEEK,6,5
99,1,object_09,object_08,279.40000000224,2,1,279.5,0.2222222222222222,2,object_02,1,1288,0,1,2,desert_7,1,memory-2step-stake-s,604,1576373,0.0-19.0-0.0-0.99,A159MC0L7J302O,3HRWUH63RXIZS6U0Z3EY966PXK25N4,3NOKK93PR5OYG28A779KCXEGQXYEEK,2,1
100,1,object_09,object_08,500.40000000224,1,2,286.70000000298,0.0,1,object_05,5,1288,0,0,4,desert_1,1,memory-2step-stake-s,605,1583928,0.0-19.0-0.0-0.100,A159MC0L7J302O,3HRWUH63RXIZS6U0Z3EY966PXK25N4,3NOKK93PR5OYG28A779KCXEGQXYEEK,2,1
101,4,object_06,object_03,42.20000000298,8,1,273.70000000298,0.3333333333333333,2,object_02,5,1303,0,0,3,restaurant_5,1,memory-2step-stake-s,606,1591816,0.0-19.0-0.0-0.101,A159MC0L7J302O,3HRWUH63RXIZS6U0Z3EY966PXK25N4,3NOKK93PR5OYG28A779KCXEGQXYEEK,8,7
102,3,object_04,object_07,167.30000000075,6,2,56.800000000745,0.5555555555555556,2,object_02,1,1308,0,1,5,library_6,1,memory-2step-stake-s,607,1599643,0.0-19.0-0.0-0.102,A159MC0L7J302O,3HRWUH63RXIZS6U0Z3EY966PXK25N4,3NOKK93PR5OYG28A779KCXEGQXYEEK,5,6
103,3,object_07,object_04,48.39999999851,5,2,606.90000000224,0.3333333333333333,1,object_05,1,1311,0,3,4,library_4,1,memory-2step-stake-s,608,1607874,0.0-19.0-0.0-0.103,A159MC0L7J302O,3HRWUH63RXIZS6U0Z3EY966PXK25N4,3NOKK93PR5OYG28A779KCXEGQXYEEK,6,5
104,1,object_09,object_08,144.19999999925,2,1,498.40000000224,0.2222222222222222,2,object_02,1,1313,0,8,2,desert_1,1,memory-2step-stake-s,609,1615837,0.0-19.0-0.0-0.104,A159MC0L7J302O,3HRWUH63RXIZS6U0Z3EY966PXK25N4,3NOKK93PR5OYG28A779KCXEGQXYEEK,2,1
105,2,object_10,object_01,279.20000000298,4,1,394.70000000298,0.2222222222222222,2,object_02,1,1315,0,9,2,forest_7,1,memory-2step-stake-s,610,1623701,0.0-19.0-0.0-0.105,A159MC0L7J302O,3HRWUH63RXIZS6U0Z3EY966PXK25N4,3NOKK93PR5OYG28A779KCXEGQXYEEK,4,3
106,3,object_04,object_07,566.0,6,2,490.59999999776,0.5555555555555556,2,object_02,1,1320,0,6,5,library_5,1,memory-2step-stake-s,611,1632044,0.0-19.0-0.0-0.106,A159MC0L7J302O,3HRWUH63RXIZS6U0Z3EY966PXK25N4,3NOKK93PR5OYG28A779KCXEGQXYEEK,5,6
107,1,object_08,object_09,276.80000000075,2,2,344.40000000224,0.1111111111111111,2,object_02,1,1321,0,7,1,desert_1,1,memory-2step-stake-s,612,1639765,0.0-19.0-0.0-0.107,A159MC0L7J302O,3HRWUH63RXIZS6U0Z3EY966PXK25N4,3NOKK93PR5OYG28A779KCXEGQXYEEK,1,2
108,2,object_01,object_10,133.09999999776,3,1,340.89999999851,0.8888888888888888,1,object_05,1,1329,0,8,1,forest_6,1,memory-2step-stake-s,613,1648249,0.0-19.0-0.0-0.108,A159MC0L7J302O,3HRWUH63RXIZS6U0Z3EY966PXK25N4,3NOKK93PR5OYG28A779KCXEGQXYEEK,3,4
109,3,object_07,object_04,416.20000000298,5,2,312.30000000075,0.6666666666666666,1,object_05,1,1335,0,6,1,library_4,1,memory-2step-stake-s,614,1656475,0.0-19.0-0.0-0.109,A159MC0L7J302O,3HRWUH63RXIZS6U0Z3EY966PXK25N4,3NOKK93PR5OYG28A779KCXEGQXYEEK,6,5
110,2,object_01,object_10,254.19999999925,4,2,332.19999999925,0.3333333333333333,2,object_02,1,1338,0,7,3,forest_8,1,memory-2step-stake-s,615,1664408,0.0-19.0-0.0-0.110,A159MC0L7J302O,3HRWUH63RXIZS6U0Z3EY966PXK25N4,3NOKK93PR5OYG28A779KCXEGQXYEEK,3,4
111,1,object_08,object_09,296.19999999925,2,2,634.80000000075,0.2222222222222222,2,object_02,1,1340,0,7,2,desert_7,1,memory-2step-stake-s,616,1672534,0.0-19.0-0.0-0.111,A159MC0L7J302O,3HRWUH63RXIZS6U0Z3EY966PXK25N4,3NOKK93PR5OYG28A779KCXEGQXYEEK,1,2
112,1,object_09,object_08,3.5,1,2,279.69999999925,0.5555555555555556,1,object_05,1,1345,0,5,3,desert_4,1,memory-2step-stake-s,617,1680648,0.0-19.0-0.0-0.112,A159MC0L7J302O,3HRWUH63RXIZS6U0Z3EY966PXK25N4,3NOKK93PR5OYG28A779KCXEGQXYEEK,2,1
113,4,object_03,object_06,46.199999999255,7,1,70.199999999255,0.6666666666666666,1,object_05,1,1351,0,6,2,restaurant_5,1,memory-2step-stake-s,618,1688660,0.0-19.0-0.0-0.113,A159MC0L7J302O,3HRWUH63RXIZS6U0Z3EY966PXK25N4,3NOKK93PR5OYG28A779KCXEGQXYEEK,7,8
114,2,object_10,object_01,194.59999999776,3,2,320.30000000075,0.8888888888888888,1,object_05,1,1359,0,8,6,forest_7,1,memory-2step-stake-s,619,1697091,0.0-19.0-0.0-0.114,A159MC0L7J302O,3HRWUH63RXIZS6U0Z3EY966PXK25N4,3NOKK93PR5OYG28A779KCXEGQXYEEK,4,3
115,1,object_09,object_08,500.19999999925,1,2,499.0,0.7777777777777778,1,object_05,1,1366,0,7,4,desert_4,1,memory-2step-stake-s,620,1705658,0.0-19.0-0.0-0.115,A159MC0L7J302O,3HRWUH63RXIZS6U0Z3EY966PXK25N4,3NOKK93PR5OYG28A779KCXEGQXYEEK,2,1
116,2,object_01,object_10,316.59999999776,4,2,317.60000000149,0.4444444444444444,2,object_02,1,1370,0,6,4,forest_7,1,memory-2step-stake-s,621,1713685,0.0-19.0-0.0-0.116,A159MC0L7J302O,3HRWUH63RXIZS6U0Z3EY966PXK25N4,3NOKK93PR5OYG28A779KCXEGQXYEEK,3,4
117,4,object_03,object_06,158.89999999851,8,2,501.80000000075,0.3333333333333333,2,object_02,5,1385,0,8,3,restaurant_2,1,memory-2step-stake-s,622,1721772,0.0-19.0-0.0-0.117,A159MC0L7J302O,3HRWUH63RXIZS6U0Z3EY966PXK25N4,3NOKK93PR5OYG28A779KCXEGQXYEEK,7,8
118,4,object_03,object_06,107.90000000224,7,1,169.40000000224,0.7777777777777778,1,object_05,5,1420,0,7,1,restaurant_3,1,memory-2step-stake-s,623,1729957,0.0-19.0-0.0-0.118,A159MC0L7J302O,3HRWUH63RXIZS6U0Z3EY966PXK25N4,3NOKK93PR5OYG28A779KCXEGQXYEEK,7,8
119,1,object_08,object_09,179.60000000149,2,2,296.5,0.3333333333333333,2,object_02,1,1423,0,7,3,desert_4,1,memory-2step-stake-s,624,1737857,0.0-19.0-0.0-0.119,A159MC0L7J302O,3HRWUH63RXIZS6U0Z3EY966PXK25N4,3NOKK93PR5OYG28A779KCXEGQXYEEK,1,2
120,3,object_04,object_07,106.5,6,2,382.60000000149,0.4444444444444444,2,object_02,5,1443,0,5,4,library_4,1,memory-2step-stake-s,625,1745944,0.0-19.0-0.0-0.120,A159MC0L7J302O,3HRWUH63RXIZS6U0Z3EY966PXK25N4,3NOKK93PR5OYG28A779KCXEGQXYEEK,5,6
121,3,object_04,object_07,47.5,5,1,473.0,0.5555555555555556,1,object_05,5,1468,0,5,6,library_6,1,memory-2step-stake-s,626,1754274,0.0-19.0-0.0-0.121,A159MC0L7J302O,3HRWUH63RXIZS6U0Z3EY966PXK25N4,3NOKK93PR5OYG28A779KCXEGQXYEEK,5,6
122,2,object_01,object_10,356.5,4,2,739.80000000075,0.4444444444444444,2,object_02,1,1472,0,3,4,forest_5,1,memory-2step-stake-s,627,1762715,0.0-19.0-0.0-0.122,A159MC0L7J302O,3HRWUH63RXIZS6U0Z3EY966PXK25N4,3NOKK93PR5OYG28A779KCXEGQXYEEK,3,4
123,4,object_03,object_06,22.39999999851,8,2,324.0,0.1111111111111111,2,object_02,5,1477,0,4,1,restaurant_5,1,memory-2step-stake-s,628,1770416,0.0-19.0-0.0-0.123,A159MC0L7J302O,3HRWUH63RXIZS6U0Z3EY966PXK25N4,3NOKK93PR5OYG28A779KCXEGQXYEEK,7,8
124,4,object_03,object_06,330.5,8,2,253.89999999851,0.0,2,object_02,5,1477,0,4,0,restaurant_8,1,memory-2step-stake-s,629,1777952,0.0-19.0-0.0-0.124,A159MC0L7J302O,3HRWUH63RXIZS6U0Z3EY966PXK25N4,3NOKK93PR5OYG28A779KCXEGQXYEEK,7,8
125,1,object_09,object_08,78.300000000745,2,1,90.400000002235,0.0,2,object_02,1,1477,0,2,0,desert_1,1,memory-2step-stake-s,630,1785313,0.0-19.0-0.0-0.125,A159MC0L7J302O,3HRWUH63RXIZS6U0Z3EY966PXK25N4,3NOKK93PR5OYG28A779KCXEGQXYEEK,2,1
126,1,object_09,object_08,839.80000000075,2,1,599.60000000149,0.2222222222222222,2,object_02,1,1479,0,1,2,desert_1,1,memory-2step-stake-s,631,1793401,0.0-19.0-0.0-0.126,A159MC0L7J302O,3HRWUH63RXIZS6U0Z3EY966PXK25N4,3NOKK93PR5OYG28A779KCXEGQXYEEK,2,1
127,2,object_10,object_01,395.39999999851,4,1,250.09999999776,0.4444444444444444,2,object_02,1,1483,0,1,4,forest_5,1,memory-2step-stake-s,632,1801351,0.0-19.0-0.0-0.127,A159MC0L7J302O,3HRWUH63RXIZS6U0Z3EY966PXK25N4,3NOKK93PR5OYG28A779KCXEGQXYEEK,4,3
128,1,object_09,object_08,503.70000000298,2,1,298.19999999925,0.5555555555555556,2,object_02,1,1488,0,0,5,desert_7,1,memory-2step-stake-s,634,1830440,0.0-19.0-0.1-0.128,A159MC0L7J302O,3HRWUH63RXIZS6U0Z3EY966PXK25N4,3NOKK93PR5OYG28A779KCXEGQXYEEK,2,1
129,1,object_09,object_08,399.70000000298,1,2,275.70000000298,0.0,1,object_05,5,1488,0,0,4,desert_2,1,memory-2step-stake-s,635,1837977,0.0-19.0-0.1-0.129,A159MC0L7J302O,3HRWUH63RXIZS6U0Z3EY966PXK25N4,3NOKK93PR5OYG28A779KCXEGQXYEEK,2,1
130,1,object_09,object_08,417.60000000149,2,1,538.39999999851,0.6666666666666666,2,object_02,5,1518,0,3,6,desert_2,1,memory-2step-stake-s,636,1846437,0.0-19.0-0.1-0.130,A159MC0L7J302O,3HRWUH63RXIZS6U0Z3EY966PXK25N4,3NOKK93PR5OYG28A779KCXEGQXYEEK,2,1
131,1,object_08,object_09,518.5,2,2,340.89999999851,0.8888888888888888,2,object_02,1,1526,0,1,8,desert_7,1,memory-2step-stake-s,637,1854963,0.0-19.0-0.1-0.131,A159MC0L7J302O,3HRWUH63RXIZS6U0Z3EY966PXK25N4,3NOKK93PR5OYG28A779KCXEGQXYEEK,1,2
132,4,object_03,object_06,628.59999999776,8,2,292.90000000224,0.8888888888888888,2,object_02,5,1566,0,1,8,restaurant_2,1,memory-2step-stake-s,638,1863389,0.0-19.0-0.1-0.132,A159MC0L7J302O,3HRWUH63RXIZS6U0Z3EY966PXK25N4,3NOKK93PR5OYG28A779KCXEGQXYEEK,7,8
133,2,object_01,object_10,430.5,3,1,301.90000000224,0.2222222222222222,1,object_05,5,1576,0,2,7,forest_8,1,memory-2step-stake-s,639,1871151,0.0-19.0-0.1-0.133,A159MC0L7J302O,3HRWUH63RXIZS6U0Z3EY966PXK25N4,3NOKK93PR5OYG28A779KCXEGQXYEEK,3,4
134,2,object_01,object_10,496.90000000224,3,1,298.80000000075,0.3333333333333333,1,object_05,5,1591,0,3,4,forest_7,1,memory-2step-stake-s,640,1879097,0.0-19.0-0.1-0.134,A159MC0L7J302O,3HRWUH63RXIZS6U0Z3EY966PXK25N4,3NOKK93PR5OYG28A779KCXEGQXYEEK,3,4
135,1,object_08,object_09,546.0,2,2,312.60000000149,0.6666666666666666,2,object_02,1,1597,0,5,6,desert_1,1,memory-2step-stake-s,641,1887314,0.0-19.0-0.1-0.135,A159MC0L7J302O,3HRWUH63RXIZS6U0Z3EY966PXK25N4,3NOKK93PR5OYG28A779KCXEGQXYEEK,1,2
136,2,object_10,object_01,941.10000000149,3,2,255.20000000298,0.1111111111111111,1,object_05,5,1602,0,1,5,forest_7,1,memory-2step-stake-s,642,1894941,0.0-19.0-0.1-0.136,A159MC0L7J302O,3HRWUH63RXIZS6U0Z3EY966PXK25N4,3NOKK93PR5OYG28A779KCXEGQXYEEK,4,3
137,4,object_03,object_06,175.10000000149,7,1,336.29999999702,0.1111111111111111,1,object_05,5,1607,0,1,5,restaurant_3,1,memory-2step-stake-s,643,1902657,0.0-19.0-0.1-0.137,A159MC0L7J302O,3HRWUH63RXIZS6U0Z3EY966PXK25N4,3NOKK93PR5OYG28A779KCXEGQXYEEK,7,8
138,1,object_08,object_09,223.39999999851,1,1,291.30000000075,0.6666666666666666,1,object_05,1,1613,0,6,1,desert_1,1,memory-2step-stake-s,644,1910851,0.0-19.0-0.1-0.138,A159MC0L7J302O,3HRWUH63RXIZS6U0Z3EY966PXK25N4,3NOKK93PR5OYG28A779KCXEGQXYEEK,1,2
139,2,object_10,object_01,342.40000000224,4,1,337.09999999776,0.0,2,object_02,5,1613,0,3,0,forest_5,1,memory-2step-stake-s,645,1918437,0.0-19.0-0.1-0.139,A159MC0L7J302O,3HRWUH63RXIZS6U0Z3EY966PXK25N4,3NOKK93PR5OYG28A779KCXEGQXYEEK,4,3
140,3,object_04,object_07,767.10000000149,5,1,291.80000000075,0.1111111111111111,1,object_05,5,1618,0,1,3,library_3,1,memory-2step-stake-s,646,1926101,0.0-19.0-0.1-0.140,A159MC0L7J302O,3HRWUH63RXIZS6U0Z3EY966PXK25N4,3NOKK93PR5OYG28A779KCXEGQXYEEK,5,6
141,2,object_10,object_01,873.19999999925,3,2,483.0,0.1111111111111111,1,object_05,1,1619,0,1,3,forest_5,1,memory-2step-stake-s,647,1933973,0.0-19.0-0.1-0.141,A159MC0L7J302O,3HRWUH63RXIZS6U0Z3EY966PXK25N4,3NOKK93PR5OYG28A779KCXEGQXYEEK,4,3
142,4,object_03,object_06,463.69999999925,7,1,295.20000000298,0.0,1,object_05,5,1619,0,0,3,restaurant_2,1,memory-2step-stake-s,648,1941565,0.0-19.0-0.1-0.142,A159MC0L7J302O,3HRWUH63RXIZS6U0Z3EY966PXK25N4,3NOKK93PR5OYG28A779KCXEGQXYEEK,7,8
143,4,object_06,object_03,75.300000000745,8,1,323.5,0.1111111111111111,2,object_02,5,1624,0,2,1,restaurant_2,1,memory-2step-stake-s,649,1949258,0.0-19.0-0.1-0.143,A159MC0L7J302O,3HRWUH63RXIZS6U0Z3EY966PXK25N4,3NOKK93PR5OYG28A779KCXEGQXYEEK,8,7
144,2,object_10,object_01,601.70000000298,4,1,310.10000000149,0.0,2,object_02,1,1624,0,3,0,forest_5,1,memory-2step-stake-s,650,1956855,0.0-19.0-0.1-0.144,A159MC0L7J302O,3HRWUH63RXIZS6U0Z3EY966PXK25N4,3NOKK93PR5OYG28A779KCXEGQXYEEK,4,3
145,2,object_10,object_01,10.800000000745,3,2,191.0,0.2222222222222222,1,object_05,1,1626,0,2,0,forest_6,1,memory-2step-stake-s,651,1964524,0.0-19.0-0.1-0.145,A159MC0L7J302O,3HRWUH63RXIZS6U0Z3EY966PXK25N4,3NOKK93PR5OYG28A779KCXEGQXYEEK,4,3
146,2,object_10,object_01,938.89999999851,4,1,418.30000000075,0.2222222222222222,2,object_02,1,1628,0,5,2,forest_7,1,memory-2step-stake-s,652,1972434,0.0-19.0-0.1-0.146,A159MC0L7J302O,3HRWUH63RXIZS6U0Z3EY966PXK25N4,3NOKK93PR5OYG28A779KCXEGQXYEEK,4,3
147,3,object_07,object_04,555.39999999851,5,2,298.0,0.7777777777777778,1,object_05,5,1663,0,7,1,library_3,1,memory-2step-stake-s,653,1980755,0.0-19.0-0.1-0.147,A159MC0L7J302O,3HRWUH63RXIZS6U0Z3EY966PXK25N4,3NOKK93PR5OYG28A779KCXEGQXYEEK,6,5
148,4,object_03,object_06,904.80000000075,8,2,421.40000000224,0.2222222222222222,2,object_02,5,1673,0,6,2,restaurant_8,1,memory-2step-stake-s,654,1988663,0.0-19.0-0.1-0.148,A159MC0L7J302O,3HRWUH63RXIZS6U0Z3EY966PXK25N4,3NOKK93PR5OYG28A779KCXEGQXYEEK,7,8
149,4,object_06,object_03,519.69999999925,8,1,336.09999999776,0.5555555555555556,2,object_02,5,1698,0,5,5,restaurant_5,1,memory-2step-stake-s,655,1996788,0.0-19.0-0.1-0.149,A159MC0L7J302O,3HRWUH63RXIZS6U0Z3EY966PXK25N4,3NOKK93PR5OYG28A779KCXEGQXYEEK,8,7
150,1,object_09,object_08,798.0,1,2,314.89999999851,0.4444444444444444,1,object_05,5,1718,0,4,5,desert_1,1,memory-2step-stake-s,656,2004801,0.0-19.0-0.1-0.150,A159MC0L7J302O,3HRWUH63RXIZS6U0Z3EY966PXK25N4,3NOKK93PR5OYG28A779KCXEGQXYEEK,2,1
151,3,object_04,object_07,1022.4000000022,5,1,484.30000000075,0.3333333333333333,1,object_05,5,1733,0,3,6,library_6,1,memory-2step-stake-s,657,2012880,0.0-19.0-0.1-0.151,A159MC0L7J302O,3HRWUH63RXIZS6U0Z3EY966PXK25N4,3NOKK93PR5OYG28A779KCXEGQXYEEK,5,6
152,1,object_09,object_08,202.10000000149,2,1,267.10000000149,0.6666666666666666,2,object_02,1,1739,0,1,6,desert_4,1,memory-2step-stake-s,658,2021076,0.0-19.0-0.1-0.152,A159MC0L7J302O,3HRWUH63RXIZS6U0Z3EY966PXK25N4,3NOKK93PR5OYG28A779KCXEGQXYEEK,2,1
153,2,object_10,object_01,88.79999999702,4,1,122.89999999851,0.7777777777777778,2,object_02,1,1746,0,4,7,forest_8,1,memory-2step-stake-s,659,2029255,0.0-19.0-0.1-0.153,A159MC0L7J302O,3HRWUH63RXIZS6U0Z3EY966PXK25N4,3NOKK93PR5OYG28A779KCXEGQXYEEK,4,3
154,4,object_03,object_06,42.0,7,1,78.89999999851,0.4444444444444444,1,object_05,1,1750,0,4,7,restaurant_5,1,memory-2step-stake-s,660,2037038,0.0-19.0-0.1-0.154,A159MC0L7J302O,3HRWUH63RXIZS6U0Z3EY966PXK25N4,3NOKK93PR5OYG28A779KCXEGQXYEEK,7,8
155,1,object_09,object_08,503.19999999925,1,2,373.59999999776,0.5555555555555556,1,object_05,5,1775,0,5,7,desert_4,1,memory-2step-stake-s,661,2045215,0.0-19.0-0.1-0.155,A159MC0L7J302O,3HRWUH63RXIZS6U0Z3EY966PXK25N4,3NOKK93PR5OYG28A779KCXEGQXYEEK,2,1
156,4,object_06,object_03,100.5,8,1,309.0,0.7777777777777778,2,object_02,1,1782,0,4,7,restaurant_5,1,memory-2step-stake-s,662,2053544,0.0-19.0-0.1-0.156,A159MC0L7J302O,3HRWUH63RXIZS6U0Z3EY966PXK25N4,3NOKK93PR5OYG28A779KCXEGQXYEEK,8,7
157,3,object_04,object_07,182.39999999851,5,1,236.19999999925,0.3333333333333333,1,object_05,5,1797,0,3,7,library_3,1,memory-2step-stake-s,663,2061374,0.0-19.0-0.1-0.157,A159MC0L7J302O,3HRWUH63RXIZS6U0Z3EY966PXK25N4,3NOKK93PR5OYG28A779KCXEGQXYEEK,5,6
158,1,object_08,object_09,191.69999999925,1,1,155.89999999851,0.2222222222222222,1,object_05,1,1799,0,2,5,desert_4,1,memory-2step-stake-s,664,2068989,0.0-19.0-0.1-0.158,A159MC0L7J302O,3HRWUH63RXIZS6U0Z3EY966PXK25N4,3NOKK93PR5OYG28A779KCXEGQXYEEK,1,2
159,1,object_08,object_09,190.39999999851,1,1,277.20000000298,0.1111111111111111,1,object_05,1,1800,0,1,7,desert_7,1,memory-2step-stake-s,665,2076628,0.0-19.0-0.1-0.159,A159MC0L7J302O,3HRWUH63RXIZS6U0Z3EY966PXK25N4,3NOKK93PR5OYG28A779KCXEGQXYEEK,1,2
160,2,object_10,object_01,1077.9000000022,3,2,250.39999999851,0.1111111111111111,1,object_05,5,1805,0,1,8,forest_5,1,memory-2step-stake-s,666,2084238,0.0-19.0-0.1-0.160,A159MC0L7J302O,3HRWUH63RXIZS6U0Z3EY966PXK25N4,3NOKK93PR5OYG28A779KCXEGQXYEEK,4,3
161,4,object_03,object_06,104.59999999776,8,2,31.5,1.0,2,object_02,5,1850,0,2,9,restaurant_5,1,memory-2step-stake-s,667,2092508,0.0-19.0-0.1-0.161,A159MC0L7J302O,3HRWUH63RXIZS6U0Z3EY966PXK25N4,3NOKK93PR5OYG28A779KCXEGQXYEEK,7,8
162,2,object_10,object_01,110.29999999702,3,2,134.59999999776,0.1111111111111111,1,object_05,5,1855,0,1,8,forest_8,1,memory-2step-stake-s,668,2099998,0.0-19.0-0.1-0.162,A159MC0L7J302O,3HRWUH63RXIZS6U0Z3EY966PXK25N4,3NOKK93PR5OYG28A779KCXEGQXYEEK,4,3
163,2,object_01,object_10,25.400000002235,4,2,839.69999999925,0.8888888888888888,2,object_02,1,1863,0,1,8,forest_5,1,memory-2step-stake-s,669,2108961,0.0-19.0-0.1-0.163,A159MC0L7J302O,3HRWUH63RXIZS6U0Z3EY966PXK25N4,3NOKK93PR5OYG28A779KCXEGQXYEEK,3,4
164,4,object_03,object_06,637.19999999925,8,2,427.39999999851,1.0,2,object_02,5,1908,0,3,9,restaurant_5,1,memory-2step-stake-s,670,2117632,0.0-19.0-0.1-0.164,A159MC0L7J302O,3HRWUH63RXIZS6U0Z3EY966PXK25N4,3NOKK93PR5OYG28A779KCXEGQXYEEK,7,8
165,2,object_01,object_10,434.89999999851,3,1,230.39999999851,0.8888888888888888,1,object_05,5,1948,0,8,6,forest_7,1,memory-2step-stake-s,671,2126009,0.0-19.0-0.1-0.165,A159MC0L7J302O,3HRWUH63RXIZS6U0Z3EY966PXK25N4,3NOKK93PR5OYG28A779KCXEGQXYEEK,3,4
166,3,object_07,object_04,289.39999999851,6,1,316.60000000149,0.4444444444444444,2,object_02,5,1968,0,6,4,library_6,1,memory-2step-stake-s,672,2134041,0.0-19.0-0.1-0.166,A159MC0L7J302O,3HRWUH63RXIZS6U0Z3EY966PXK25N4,3NOKK93PR5OYG28A779KCXEGQXYEEK,6,5
167,3,object_04,object_07,259.90000000224,6,2,299.5,0.1111111111111111,2,object_02,5,1973,0,4,1,library_5,1,memory-2step-stake-s,673,2141720,0.0-19.0-0.1-0.167,A159MC0L7J302O,3HRWUH63RXIZS6U0Z3EY966PXK25N4,3NOKK93PR5OYG28A779KCXEGQXYEEK,5,6
168,2,object_10,object_01,258.0,4,1,289.30000000075,0.1111111111111111,2,object_02,5,1978,0,3,1,forest_5,1,memory-2step-stake-s,674,2149386,0.0-19.0-0.1-0.168,A159MC0L7J302O,3HRWUH63RXIZS6U0Z3EY966PXK25N4,3NOKK93PR5OYG28A779KCXEGQXYEEK,4,3
169,1,object_09,object_08,84.5,1,2,0.10000000149012,0.4444444444444444,1,object_05,1,1982,0,4,2,desert_7,1,memory-2step-stake-s,675,2157077,0.0-19.0-0.1-0.169,A159MC0L7J302O,3HRWUH63RXIZS6U0Z3EY966PXK25N4,3NOKK93PR5OYG28A779KCXEGQXYEEK,2,1
170,2,object_10,object_01,155.0,4,1,196.5,0.1111111111111111,2,object_02,1,1983,0,0,1,forest_7,1,memory-2step-stake-s,676,2164635,0.0-19.0-0.1-0.170,A159MC0L7J302O,3HRWUH63RXIZS6U0Z3EY966PXK25N4,3NOKK93PR5OYG28A779KCXEGQXYEEK,4,3
171,2,object_10,object_01,35.199999999255,3,2,290.79999999702,0.0,1,object_05,5,1983,0,0,1,forest_5,1,memory-2step-stake-s,677,2172195,0.0-19.0-0.1-0.171,A159MC0L7J302O,3HRWUH63RXIZS6U0Z3EY966PXK25N4,3NOKK93PR5OYG28A779KCXEGQXYEEK,4,3
172,4,object_06,object_03,88.599999997765,8,1,281.80000000075,0.2222222222222222,2,object_02,5,1993,0,1,2,restaurant_5,1,memory-2step-stake-s,678,2179964,0.0-19.0-0.1-0.172,A159MC0L7J302O,3HRWUH63RXIZS6U0Z3EY966PXK25N4,3NOKK93PR5OYG28A779KCXEGQXYEEK,8,7
173,4,object_03,object_06,46.199999999255,8,2,252.0,0.4444444444444444,2,object_02,1,1997,0,2,4,restaurant_8,1,memory-2step-stake-s,679,2187954,0.0-19.0-0.1-0.173,A159MC0L7J302O,3HRWUH63RXIZS6U0Z3EY966PXK25N4,3NOKK93PR5OYG28A779KCXEGQXYEEK,7,8
174,1,object_09,object_08,248.10000000149,2,1,83.400000002235,0.5555555555555556,2,object_02,1,2002,0,1,5,desert_1,1,memory-2step-stake-s,680,2195850,0.0-19.0-0.1-0.174,A159MC0L7J302O,3HRWUH63RXIZS6U0Z3EY966PXK25N4,3NOKK93PR5OYG28A779KCXEGQXYEEK,2,1
175,3,object_07,object_04,121.69999999925,6,1,234.09999999776,0.1111111111111111,2,object_02,5,2007,0,1,1,library_4,1,memory-2step-stake-s,681,2203459,0.0-19.0-0.1-0.175,A159MC0L7J302O,3HRWUH63RXIZS6U0Z3EY966PXK25N4,3NOKK93PR5OYG28A779KCXEGQXYEEK,6,5
176,4,object_03,object_06,878.60000000149,8,2,270.39999999851,0.3333333333333333,2,object_02,5,2022,0,1,3,restaurant_5,1,memory-2step-stake-s,682,2211317,0.0-19.0-0.1-0.176,A159MC0L7J302O,3HRWUH63RXIZS6U0Z3EY966PXK25N4,3NOKK93PR5OYG28A779KCXEGQXYEEK,7,8
177,3,object_04,object_07,350.40000000224,5,1,300.80000000075,0.2222222222222222,1,object_05,5,2032,0,2,3,library_6,1,memory-2step-stake-s,683,2219095,0.0-19.0-0.1-0.177,A159MC0L7J302O,3HRWUH63RXIZS6U0Z3EY966PXK25N4,3NOKK93PR5OYG28A779KCXEGQXYEEK,5,6
178,4,object_03,object_06,217.80000000075,8,2,283.39999999851,0.5555555555555556,2,object_02,5,2057,0,0,5,restaurant_8,1,memory-2step-stake-s,684,2227192,0.0-19.0-0.1-0.178,A159MC0L7J302O,3HRWUH63RXIZS6U0Z3EY966PXK25N4,3NOKK93PR5OYG28A779KCXEGQXYEEK,7,8
179,1,object_09,object_08,509.80000000075,2,1,350.0,0.5555555555555556,2,object_02,1,2062,0,2,5,desert_1,1,memory-2step-stake-s,685,2235366,0.0-19.0-0.1-0.179,A159MC0L7J302O,3HRWUH63RXIZS6U0Z3EY966PXK25N4,3NOKK93PR5OYG28A779KCXEGQXYEEK,2,1
180,3,object_07,object_04,286.40000000224,5,2,704.60000000149,0.2222222222222222,1,object_05,5,2072,0,2,7,library_4,1,memory-2step-stake-s,686,2243561,0.0-19.0-0.1-0.180,A159MC0L7J302O,3HRWUH63RXIZS6U0Z3EY966PXK25N4,3NOKK93PR5OYG28A779KCXEGQXYEEK,6,5
181,3,object_07,object_04,459.39999999851,6,1,380.5,0.4444444444444444,2,object_02,1,2076,0,1,4,library_3,1,memory-2step-stake-s,687,2251636,0.0-19.0-0.1-0.181,A159MC0L7J302O,3HRWUH63RXIZS6U0Z3EY966PXK25N4,3NOKK93PR5OYG28A779KCXEGQXYEEK,6,5
182,3,object_07,object_04,50.0,5,2,37.0,0.3333333333333333,1,object_05,5,2091,0,3,4,library_4,1,memory-2step-stake-s,688,2259262,0.0-19.0-0.1-0.182,A159MC0L7J302O,3HRWUH63RXIZS6U0Z3EY966PXK25N4,3NOKK93PR5OYG28A779KCXEGQXYEEK,6,5
183,4,object_06,object_03,371.30000000075,7,2,567.80000000075,0.2222222222222222,1,object_05,5,2101,0,2,3,restaurant_3,1,memory-2step-stake-s,689,2267308,0.0-19.0-0.1-0.183,A159MC0L7J302O,3HRWUH63RXIZS6U0Z3EY966PXK25N4,3NOKK93PR5OYG28A779KCXEGQXYEEK,8,7
184,3,object_07,object_04,189.80000000075,6,1,479.30000000075,0.5555555555555556,2,object_02,5,2126,0,1,5,library_5,1,memory-2step-stake-s,690,2275610,0.0-19.0-0.1-0.184,A159MC0L7J302O,3HRWUH63RXIZS6U0Z3EY966PXK25N4,3NOKK93PR5OYG28A779KCXEGQXYEEK,6,5
185,2,object_10,object_01,247.0,3,2,334.5,0.3333333333333333,1,object_05,1,2129,0,3,6,forest_7,1,memory-2step-stake-s,691,2283506,0.0-19.0-0.1-0.185,A159MC0L7J302O,3HRWUH63RXIZS6U0Z3EY966PXK25N4,3NOKK93PR5OYG28A779KCXEGQXYEEK,4,3
186,4,object_03,object_06,335.19999999925,7,1,347.89999999851,0.5555555555555556,1,object_05,5,2154,0,5,2,restaurant_8,1,memory-2step-stake-s,692,2291673,0.0-19.0-0.1-0.186,A159MC0L7J302O,3HRWUH63RXIZS6U0Z3EY966PXK25N4,3NOKK93PR5OYG28A779KCXEGQXYEEK,7,8
187,1,object_09,object_08,316.19999999925,2,1,313.90000000224,0.3333333333333333,2,object_02,1,2157,0,6,3,desert_2,1,memory-2step-stake-s,693,2299561,0.0-19.0-0.1-0.187,A159MC0L7J302O,3HRWUH63RXIZS6U0Z3EY966PXK25N4,3NOKK93PR5OYG28A779KCXEGQXYEEK,2,1
188,4,object_06,object_03,248.19999999925,8,1,377.10000000149,1.0,2,object_02,1,2166,0,1,9,restaurant_5,1,memory-2step-stake-s,694,2308207,0.0-19.0-0.1-0.188,A159MC0L7J302O,3HRWUH63RXIZS6U0Z3EY966PXK25N4,3NOKK93PR5OYG28A779KCXEGQXYEEK,8,7
189,1,object_09,object_08,135.59999999776,1,2,116.19999999925,0.2222222222222222,1,object_05,1,2168,0,2,7,desert_1,1,memory-2step-stake-s,695,2315812,0.0-19.0-0.1-0.189,A159MC0L7J302O,3HRWUH63RXIZS6U0Z3EY966PXK25N4,3NOKK93PR5OYG28A779KCXEGQXYEEK,2,1
190,4,object_06,object_03,43.199999999255,7,2,185.5,0.1111111111111111,1,object_05,5,2173,0,1,9,restaurant_8,1,memory-2step-stake-s,696,2323360,0.0-19.0-0.1-0.190,A159MC0L7J302O,3HRWUH63RXIZS6U0Z3EY966PXK25N4,3NOKK93PR5OYG28A779KCXEGQXYEEK,8,7
191,3,object_04,object_07,200.80000000075,5,1,331.0,0.2222222222222222,1,object_05,5,2183,0,2,7,library_5,1,memory-2step-stake-s,697,2331166,0.0-19.0-0.1-0.191,A159MC0L7J302O,3HRWUH63RXIZS6U0Z3EY966PXK25N4,3NOKK93PR5OYG28A779KCXEGQXYEEK,5,6
192,3,object_07,object_04,9.5999999977648,5,2,331.40000000224,0.0,1,object_05,5,2183,0,0,8,library_4,1,memory-2step-stake-s,698,2338744,0.0-19.0-0.1-0.192,A159MC0L7J302O,3HRWUH63RXIZS6U0Z3EY966PXK25N4,3NOKK93PR5OYG28A779KCXEGQXYEEK,6,5
193,2,object_01,object_10,207.60000000149,3,1,318.5,0.2222222222222222,1,object_05,1,2185,0,2,8,forest_5,1,memory-2step-stake-s,699,2346541,0.0-19.0-0.1-0.193,A159MC0L7J302O,3HRWUH63RXIZS6U0Z3EY966PXK25N4,3NOKK93PR5OYG28A779KCXEGQXYEEK,3,4
194,4,object_03,object_06,18.599999997765,8,2,67.5,0.8888888888888888,2,object_02,5,2225,0,3,8,restaurant_2,1,memory-2step-stake-s,700,2354738,0.0-19.0-0.1-0.194,A159MC0L7J302O,3HRWUH63RXIZS6U0Z3EY966PXK25N4,3NOKK93PR5OYG28A779KCXEGQXYEEK,7,8
195,4,object_03,object_06,43.0,8,2,394.40000000224,0.8888888888888888,2,object_02,5,2265,0,6,8,restaurant_8,1,memory-2step-stake-s,701,2363280,0.0-19.0-0.1-0.195,A159MC0L7J302O,3HRWUH63RXIZS6U0Z3EY966PXK25N4,3NOKK93PR5OYG28A779KCXEGQXYEEK,7,8
196,3,object_07,object_04,63.300000000745,5,2,359.39999999851,0.6666666666666666,1,object_05,5,2295,0,6,6,library_5,1,memory-2step-stake-s,702,2371568,0.0-19.0-0.1-0.196,A159MC0L7J302O,3HRWUH63RXIZS6U0Z3EY966PXK25N4,3NOKK93PR5OYG28A779KCXEGQXYEEK,6,5
197,1,object_09,object_08,43.89999999851,1,2,447.60000000149,0.4444444444444444,1,object_05,1,2299,0,4,8,desert_7,1,memory-2step-stake-s,703,2379713,0.0-19.0-0.1-0.197,A159MC0L7J302O,3HRWUH63RXIZS6U0Z3EY966PXK25N4,3NOKK93PR5OYG28A779KCXEGQXYEEK,2,1
198,2,object_01,object_10,575.40000000224,4,2,370.5,0.8888888888888888,2,object_02,1,2307,0,8,8,forest_5,1,memory-2step-stake-s,704,2388233,0.0-19.0-0.1-0.198,A159MC0L7J302O,3HRWUH63RXIZS6U0Z3EY966PXK25N4,3NOKK93PR5OYG28A779KCXEGQXYEEK,3,4
199,4,object_03,object_06,439.59999999776,8,2,210.10000000149,0.6666666666666666,2,object_02,5,2337,0,7,6,restaurant_3,1,memory-2step-stake-s,705,2396333,0.0-19.0-0.1-0.199,A159MC0L7J302O,3HRWUH63RXIZS6U0Z3EY966PXK25N4,3NOKK93PR5OYG28A779KCXEGQXYEEK,7,8
200,1,object_08,object_09,503.60000000149,1,1,455.5,0.8888888888888888,1,object_05,1,2345,0,8,7,desert_4,1,memory-2step-stake-s,706,2404910,0.0-19.0-0.1-0.200,A159MC0L7J302O,3HRWUH63RXIZS6U0Z3EY966PXK25N4,3NOKK93PR5OYG28A779KCXEGQXYEEK,1,2
201,3,object_04,object_07,1015.6999999993,5,1,549.30000000075,0.8888888888888888,1,object_05,1,2353,0,8,6,library_6,1,memory-2step-stake-s,707,2413581,0.0-19.0-0.1-0.201,A159MC0L7J302O,3HRWUH63RXIZS6U0Z3EY966PXK25N4,3NOKK93PR5OYG28A779KCXEGQXYEEK,5,6
202,1,object_09,object_08,369.39999999851,2,1,778.0,0.7777777777777778,2,object_02,1,2360,0,8,7,desert_4,1,memory-2step-stake-s,708,2422368,0.0-19.0-0.1-0.202,A159MC0L7J302O,3HRWUH63RXIZS6U0Z3EY966PXK25N4,3NOKK93PR5OYG28A779KCXEGQXYEEK,2,1
203,1,object_08,object_09,111.0,1,1,238.39999999851,0.4444444444444444,1,object_05,5,2380,0,4,6,desert_2,1,memory-2step-stake-s,709,2430305,0.0-19.0-0.1-0.203,A159MC0L7J302O,3HRWUH63RXIZS6U0Z3EY966PXK25N4,3NOKK93PR5OYG28A779KCXEGQXYEEK,1,2
204,2,object_10,object_01,711.09999999776,4,1,419.19999999925,0.6666666666666666,2,object_02,1,2386,0,5,6,forest_8,1,memory-2step-stake-s,710,2438623,0.0-19.0-0.1-0.204,A159MC0L7J302O,3HRWUH63RXIZS6U0Z3EY966PXK25N4,3NOKK93PR5OYG28A779KCXEGQXYEEK,4,3
205,3,object_07,object_04,47.400000002235,6,1,357.19999999925,0.7777777777777778,2,object_02,5,2421,0,5,7,library_3,1,memory-2step-stake-s,711,2447034,0.0-19.0-0.1-0.205,A159MC0L7J302O,3HRWUH63RXIZS6U0Z3EY966PXK25N4,3NOKK93PR5OYG28A779KCXEGQXYEEK,6,5
206,3,object_04,object_07,282.89999999851,5,1,495.89999999851,0.2222222222222222,1,object_05,5,2431,0,2,6,library_6,1,memory-2step-stake-s,712,2455007,0.0-19.0-0.1-0.206,A159MC0L7J302O,3HRWUH63RXIZS6U0Z3EY966PXK25N4,3NOKK93PR5OYG28A779KCXEGQXYEEK,5,6
207,3,object_07,object_04,105.30000000075,5,2,530.5,0.4444444444444444,1,object_05,5,2451,0,4,4,library_3,1,memory-2step-stake-s,713,2463236,0.0-19.0-0.1-0.207,A159MC0L7J302O,3HRWUH63RXIZS6U0Z3EY966PXK25N4,3NOKK93PR5OYG28A779KCXEGQXYEEK,6,5
208,3,object_07,object_04,106.80000000075,6,1,392.0,0.4444444444444444,2,object_02,5,2471,0,2,4,library_5,1,memory-2step-stake-s,714,2471337,0.0-19.0-0.1-0.208,A159MC0L7J302O,3HRWUH63RXIZS6U0Z3EY966PXK25N4,3NOKK93PR5OYG28A779KCXEGQXYEEK,6,5
209,1,object_08,object_09,79.10000000149,1,1,434.5,0.0,1,object_05,1,2471,0,0,5,desert_7,1,memory-2step-stake-s,715,2479029,0.0-19.0-0.1-0.209,A159MC0L7J302O,3HRWUH63RXIZS6U0Z3EY966PXK25N4,3NOKK93PR5OYG28A779KCXEGQXYEEK,1,2
210,2,object_10,object_01,22.300000000745,3,2,73.099999997765,0.0,1,object_05,1,2471,0,0,4,forest_8,1,memory-2step-stake-s,716,2486379,0.0-19.0-0.1-0.210,A159MC0L7J302O,3HRWUH63RXIZS6U0Z3EY966PXK25N4,3NOKK93PR5OYG28A779KCXEGQXYEEK,4,3
211,4,object_06,object_03,493.30000000075,8,1,314.79999999702,0.7777777777777778,2,object_02,1,2478,0,1,7,restaurant_2,1,memory-2step-stake-s,717,2494723,0.0-19.0-0.1-0.211,A159MC0L7J302O,3HRWUH63RXIZS6U0Z3EY966PXK25N4,3NOKK93PR5OYG28A779KCXEGQXYEEK,8,7
212,1,object_08,object_09,-1.0,-1,-1,-1.0,0.0,-,0,1,2478,0,2,6,desert_2,1,memory-2step-stake-s,718,2501298,0.0-19.0-0.1-0.212,A159MC0L7J302O,3HRWUH63RXIZS6U0Z3EY966PXK25N4,3NOKK93PR5OYG28A779KCXEGQXYEEK,1,2
213,2,object_01,object_10,7.6000000014901,4,2,9.8000000007451,0.6666666666666666,2,object_02,5,2508,0,1,6,forest_5,1,memory-2step-stake-s,719,2509262,0.0-19.0-0.1-0.213,A159MC0L7J302O,3HRWUH63RXIZS6U0Z3EY966PXK25N4,3NOKK93PR5OYG28A779KCXEGQXYEEK,3,4
214,1,object_09,object_08,140.89999999851,1,2,141.69999999925,0.2222222222222222,1,object_05,5,2518,0,2,4,desert_2,1,memory-2step-stake-s,720,2516882,0.0-19.0-0.1-0.214,A159MC0L7J302O,3HRWUH63RXIZS6U0Z3EY966PXK25N4,3NOKK93PR5OYG28A779KCXEGQXYEEK,2,1
215,2,object_01,object_10,388.19999999925,3,1,307.69999999925,0.2222222222222222,1,object_05,1,2520,0,2,3,forest_7,1,memory-2step-stake-s,721,2524685,0.0-19.0-0.1-0.215,A159MC0L7J302O,3HRWUH63RXIZS6U0Z3EY966PXK25N4,3NOKK93PR5OYG28A779KCXEGQXYEEK,3,4
216,3,object_07,object_04,43.0,5,2,4.3999999985099,0.3333333333333333,1,object_05,5,2535,0,3,1,library_3,1,memory-2step-stake-s,722,2532273,0.0-19.0-0.1-0.216,A159MC0L7J302O,3HRWUH63RXIZS6U0Z3EY966PXK25N4,3NOKK93PR5OYG28A779KCXEGQXYEEK,6,5
217,4,object_03,object_06,23.0,8,2,8.6999999992549,0.0,2,object_02,1,2535,0,1,0,restaurant_8,1,memory-2step-stake-s,723,2539549,0.0-19.0-0.1-0.217,A159MC0L7J302O,3HRWUH63RXIZS6U0Z3EY966PXK25N4,3NOKK93PR5OYG28A779KCXEGQXYEEK,7,8
218,4,object_03,object_06,543.39999999851,7,1,286.5,0.1111111111111111,1,object_05,5,2540,0,1,2,restaurant_3,1,memory-2step-stake-s,724,2547198,0.0-19.0-0.1-0.218,A159MC0L7J302O,3HRWUH63RXIZS6U0Z3EY966PXK25N4,3NOKK93PR5OYG28A779KCXEGQXYEEK,7,8
219,4,object_03,object_06,782.89999999851,7,1,324.59999999776,0.1111111111111111,1,object_05,5,2545,0,1,4,restaurant_3,1,memory-2step-stake-s,725,2554896,0.0-19.0-0.1-0.219,A159MC0L7J302O,3HRWUH63RXIZS6U0Z3EY966PXK25N4,3NOKK93PR5OYG28A779KCXEGQXYEEK,7,8
220,4,object_03,object_06,133.5,8,2,250.5,0.5555555555555556,2,object_02,5,2570,0,4,5,restaurant_2,1,memory-2step-stake-s,726,2562959,0.0-19.0-0.1-0.220,A159MC0L7J302O,3HRWUH63RXIZS6U0Z3EY966PXK25N4,3NOKK93PR5OYG28A779KCXEGQXYEEK,7,8
221,3,object_07,object_04,11.10000000149,5,2,240.90000000224,0.4444444444444444,1,object_05,5,2590,0,4,6,library_4,1,memory-2step-stake-s,727,2570905,0.0-19.0-0.1-0.221,A159MC0L7J302O,3HRWUH63RXIZS6U0Z3EY966PXK25N4,3NOKK93PR5OYG28A779KCXEGQXYEEK,6,5
222,2,object_10,object_01,79.800000000745,3,2,54.5,0.2222222222222222,1,object_05,1,2592,0,2,7,forest_6,1,memory-2step-stake-s,728,2578438,0.0-19.0-0.1-0.222,A159MC0L7J302O,3HRWUH63RXIZS6U0Z3EY966PXK25N4,3NOKK93PR5OYG28A779KCXEGQXYEEK,4,3
223,2,object_10,object_01,41.699999999255,4,1,301.0,0.6666666666666666,2,object_02,1,2598,0,3,6,forest_8,1,memory-2step-stake-s,729,2586669,0.0-19.0-0.1-0.223,A159MC0L7J302O,3HRWUH63RXIZS6U0Z3EY966PXK25N4,3NOKK93PR5OYG28A779KCXEGQXYEEK,4,3
224,2,object_10,object_01,166.89999999851,3,2,174.5,0.3333333333333333,1,object_05,1,2601,0,3,7,forest_6,1,memory-2step-stake-s,730,2594437,0.0-19.0-0.1-0.224,A159MC0L7J302O,3HRWUH63RXIZS6U0Z3EY966PXK25N4,3NOKK93PR5OYG28A779KCXEGQXYEEK,4,3
225,2,object_10,object_01,4.5999999977648,3,2,13.800000000745,0.2222222222222222,1,object_05,1,2603,0,2,6,forest_6,1,memory-2step-stake-s,731,2601918,0.0-19.0-0.1-0.225,A159MC0L7J302O,3HRWUH63RXIZS6U0Z3EY966PXK25N4,3NOKK93PR5OYG28A779KCXEGQXYEEK,4,3
226,1,object_09,object_08,469.79999999702,1,2,477.90000000224,0.2222222222222222,1,object_05,1,2605,0,2,4,desert_2,1,memory-2step-stake-s,732,2609864,0.0-19.0-0.1-0.226,A159MC0L7J302O,3HRWUH63RXIZS6U0Z3EY966PXK25N4,3NOKK93PR5OYG28A779KCXEGQXYEEK,2,1
227,3,object_04,object_07,70.5,5,1,286.80000000075,0.1111111111111111,1,object_05,5,2610,0,1,3,library_3,1,memory-2step-stake-s,733,2617539,0.0-19.0-0.1-0.227,A159MC0L7J302O,3HRWUH63RXIZS6U0Z3EY966PXK25N4,3NOKK93PR5OYG28A779KCXEGQXYEEK,5,6
228,1,object_08,object_09,144.09999999776,2,2,249.09999999776,0.3333333333333333,2,object_02,1,2613,0,1,3,desert_4,1,memory-2step-stake-s,734,2625364,0.0-19.0-0.1-0.228,A159MC0L7J302O,3HRWUH63RXIZS6U0Z3EY966PXK25N4,3NOKK93PR5OYG28A779KCXEGQXYEEK,1,2
229,2,object_10,object_01,115.10000000149,4,1,150.89999999851,0.5555555555555556,2,object_02,1,2618,0,0,5,forest_6,1,memory-2step-stake-s,735,2633335,0.0-19.0-0.1-0.229,A159MC0L7J302O,3HRWUH63RXIZS6U0Z3EY966PXK25N4,3NOKK93PR5OYG28A779KCXEGQXYEEK,4,3
230,3,object_07,object_04,61.10000000149,5,2,87.699999999255,0.1111111111111111,1,object_05,1,2619,0,1,1,library_5,1,memory-2step-stake-s,736,2640766,0.0-19.0-0.1-0.230,A159MC0L7J302O,3HRWUH63RXIZS6U0Z3EY966PXK25N4,3NOKK93PR5OYG28A779KCXEGQXYEEK,6,5
231,1,object_09,object_08,82.300000000745,2,1,191.19999999925,0.1111111111111111,2,object_02,1,2620,0,1,1,desert_7,1,memory-2step-stake-s,737,2648331,0.0-19.0-0.1-0.231,A159MC0L7J302O,3HRWUH63RXIZS6U0Z3EY966PXK25N4,3NOKK93PR5OYG28A779KCXEGQXYEEK,2,1
232,3,object_04,object_07,1.4000000022352,6,2,23.900000002235,0.1111111111111111,2,object_02,5,2625,0,5,1,library_4,1,memory-2step-stake-s,738,2655778,0.0-19.0-0.1-0.232,A159MC0L7J302O,3HRWUH63RXIZS6U0Z3EY966PXK25N4,3NOKK93PR5OYG28A779KCXEGQXYEEK,5,6
233,3,object_04,object_07,13.699999999255,6,2,46.699999999255,0.0,2,object_02,5,2625,0,6,0,library_5,1,memory-2step-stake-s,739,2663089,0.0-19.0-0.1-0.233,A159MC0L7J302O,3HRWUH63RXIZS6U0Z3EY966PXK25N4,3NOKK93PR5OYG28A779KCXEGQXYEEK,5,6
234,2,object_10,object_01,589.19999999925,3,2,222.29999999702,0.7777777777777778,1,object_05,5,2660,0,7,0,forest_8,1,memory-2step-stake-s,740,2671343,0.0-19.0-0.1-0.234,A159MC0L7J302O,3HRWUH63RXIZS6U0Z3EY966PXK25N4,3NOKK93PR5OYG28A779KCXEGQXYEEK,4,3
235,1,object_09,object_08,95.29999999702,2,1,118.0,0.1111111111111111,2,object_02,1,2661,0,7,1,desert_7,1,memory-2step-stake-s,741,2678841,0.0-19.0-0.1-0.235,A159MC0L7J302O,3HRWUH63RXIZS6U0Z3EY966PXK25N4,3NOKK93PR5OYG28A779KCXEGQXYEEK,2,1
236,4,object_03,object_06,611.79999999702,7,1,315.90000000224,0.7777777777777778,1,object_05,5,2696,0,7,4,restaurant_3,1,memory-2step-stake-s,742,2687202,0.0-19.0-0.1-0.236,A159MC0L7J302O,3HRWUH63RXIZS6U0Z3EY966PXK25N4,3NOKK93PR5OYG28A779KCXEGQXYEEK,7,8
237,3,object_04,object_07,670.60000000149,5,1,249.39999999851,0.4444444444444444,1,object_05,5,2716,0,4,0,library_5,1,memory-2step-stake-s,743,2695186,0.0-19.0-0.1-0.237,A159MC0L7J302O,3HRWUH63RXIZS6U0Z3EY966PXK25N4,3NOKK93PR5OYG28A779KCXEGQXYEEK,5,6
238,1,object_08,object_09,266.60000000149,1,1,424.59999999776,0.6666666666666666,1,object_05,1,2722,0,6,2,desert_7,1,memory-2step-stake-s,744,2703556,0.0-19.0-0.1-0.238,A159MC0L7J302O,3HRWUH63RXIZS6U0Z3EY966PXK25N4,3NOKK93PR5OYG28A779KCXEGQXYEEK,1,2
239,4,object_03,object_06,437.30000000075,8,2,260.90000000224,0.1111111111111111,2,object_02,5,2727,0,7,1,restaurant_2,1,memory-2step-stake-s,745,2711179,0.0-19.0-0.1-0.239,A159MC0L7J302O,3HRWUH63RXIZS6U0Z3EY966PXK25N4,3NOKK93PR5OYG28A779KCXEGQXYEEK,7,8
240,2,object_01,object_10,90.20000000298,3,1,151.59999999776,0.7777777777777778,1,object_05,1,2734,0,7,0,forest_8,1,memory-2step-stake-s,746,2719355,0.0-19.0-0.1-0.240,A159MC0L7J302O,3HRWUH63RXIZS6U0Z3EY966PXK25N4,3NOKK93PR5OYG28A779KCXEGQXYEEK,3,4
241,2,object_01,object_10,843.60000000149,3,1,311.60000000149,0.6666666666666666,1,object_05,5,2764,0,6,2,forest_7,1,memory-2step-stake-s,747,2727591,0.0-19.0-0.1-0.241,A159MC0L7J302O,3HRWUH63RXIZS6U0Z3EY966PXK25N4,3NOKK93PR5OYG28A779KCXEGQXYEEK,3,4
242,1,object_08,object_09,190.30000000075,1,1,112.59999999776,0.7777777777777778,1,object_05,1,2771,0,7,4,desert_2,1,memory-2step-stake-s,748,2735713,0.0-19.0-0.1-0.242,A159MC0L7J302O,3HRWUH63RXIZS6U0Z3EY966PXK25N4,3NOKK93PR5OYG28A779KCXEGQXYEEK,1,2
243,3,object_07,object_04,36.20000000298,5,2,136.80000000075,0.6666666666666666,1,object_05,5,2801,0,6,3,library_3,1,memory-2step-stake-s,749,2743774,0.0-19.0-0.1-0.243,A159MC0L7J302O,3HRWUH63RXIZS6U0Z3EY966PXK25N4,3NOKK93PR5OYG28A779KCXEGQXYEEK,6,5
244,3,object_04,object_07,562.69999999925,5,1,153.0,0.5555555555555556,1,object_05,5,2826,0,5,2,library_5,1,memory-2step-stake-s,750,2751738,0.0-19.0-0.1-0.244,A159MC0L7J302O,3HRWUH63RXIZS6U0Z3EY966PXK25N4,3NOKK93PR5OYG28A779KCXEGQXYEEK,5,6
245,4,object_03,object_06,835.39999999851,7,1,377.60000000149,0.5555555555555556,1,object_05,5,2851,0,5,0,restaurant_3,1,memory-2step-stake-s,751,2759943,0.0-19.0-0.1-0.245,A159MC0L7J302O,3HRWUH63RXIZS6U0Z3EY966PXK25N4,3NOKK93PR5OYG28A779KCXEGQXYEEK,7,8
246,3,object_04,object_07,572.69999999925,5,1,316.30000000075,0.6666666666666666,1,object_05,5,2881,0,6,2,library_6,1,memory-2step-stake-s,752,2768229,0.0-19.0-0.1-0.246,A159MC0L7J302O,3HRWUH63RXIZS6U0Z3EY966PXK25N4,3NOKK93PR5OYG28A779KCXEGQXYEEK,5,6
247,3,object_04,object_07,609.89999999851,5,1,262.60000000149,0.2222222222222222,1,object_05,5,2891,0,2,7,library_6,1,memory-2step-stake-s,753,2775963,0.0-19.0-0.1-0.247,A159MC0L7J302O,3HRWUH63RXIZS6U0Z3EY966PXK25N4,3NOKK93PR5OYG28A779KCXEGQXYEEK,5,6
248,4,object_03,object_06,573.5,8,2,288.5,0.8888888888888888,2,object_02,5,2931,0,4,8,restaurant_5,1,memory-2step-stake-s,754,2784387,0.0-19.0-0.1-0.248,A159MC0L7J302O,3HRWUH63RXIZS6U0Z3EY966PXK25N4,3NOKK93PR5OYG28A779KCXEGQXYEEK,7,8
249,3,object_04,object_07,16.300000000745,5,1,72.60000000149,0.6666666666666666,1,object_05,1,2937,0,6,8,library_6,1,memory-2step-stake-s,755,2792383,0.0-19.0-0.1-0.249,A159MC0L7J302O,3HRWUH63RXIZS6U0Z3EY966PXK25N4,3NOKK93PR5OYG28A779KCXEGQXYEEK,5,6
250,4,object_06,object_03,185.5,8,1,205.69999999925,0.5555555555555556,2,object_02,5,2962,0,5,5,restaurant_2,1,memory-2step-stake-s,756,2800414,0.0-19.0-0.1-0.250,A159MC0L7J302O,3HRWUH63RXIZS6U0Z3EY966PXK25N4,3NOKK93PR5OYG28A779KCXEGQXYEEK,8,7
251,4,object_03,object_06,586.0,8,2,107.60000000149,0.3333333333333333,2,object_02,5,2977,0,8,3,restaurant_3,1,memory-2step-stake-s,757,2808099,0.0-19.0-0.1-0.251,A159MC0L7J302O,3HRWUH63RXIZS6U0Z3EY966PXK25N4,3NOKK93PR5OYG28A779KCXEGQXYEEK,7,8
252,3,object_04,object_07,23.79999999702,5,1,51.39999999851,1.0,1,object_05,1,2986,0,9,2,library_5,1,memory-2step-stake-s,758,2816456,0.0-19.0-0.1-0.252,A159MC0L7J302O,3HRWUH63RXIZS6U0Z3EY966PXK25N4,3NOKK93PR5OYG28A779KCXEGQXYEEK,5,6
253,1,object_08,object_09,77.300000000745,1,1,23.70000000298,0.8888888888888888,1,object_05,1,2994,0,8,4,desert_1,1,memory-2step-stake-s,759,2824605,0.0-19.0-0.1-0.253,A159MC0L7J302O,3HRWUH63RXIZS6U0Z3EY966PXK25N4,3NOKK93PR5OYG28A779KCXEGQXYEEK,1,2
254,4,object_03,object_06,113.69999999925,7,1,265.60000000149,0.7777777777777778,1,object_05,5,3029,0,7,6,restaurant_8,1,memory-2step-stake-s,760,2832896,0.0-19.0-0.1-0.254,A159MC0L7J302O,3HRWUH63RXIZS6U0Z3EY966PXK25N4,3NOKK93PR5OYG28A779KCXEGQXYEEK,7,8
255,2,object_10,object_01,122.10000000149,3,2,83.79999999702,0.7777777777777778,1,object_05,1,3036,0,7,5,forest_5,1,memory-2step-stake-s,761,2841032,0.0-19.0-0.1-0.255,A159MC0L7J302O,3HRWUH63RXIZS6U0Z3EY966PXK25N4,3NOKK93PR5OYG28A779KCXEGQXYEEK,4,3
